ACCELEROMETER X (m/s²),ACCELEROMETER Y (m/s²),ACCELEROMETER Z (m/s²),LINEAR ACCELERATION X (m/s²),LINEAR ACCELERATION Y (m/s²),LINEAR ACCELERATION Z (m/s²),GYROSCOPE X (rad/s),GYROSCOPE Y (rad/s),GYROSCOPE Z (rad/s),Time since start in ms ,YYYY-MO-DD HH-MI-SS_SSS
5.0495,-8.3954,1.3233,-0.2006,-0.0403,-0.0107,0.0335,0.0089,0.0184,4,2019-08-07 16:16:06:999
4.9155,-8.2904,1.2904,-0.1773,-0.1449,0.0463,0.0239,0.0153,0.012,9,2019-08-07 16:16:07:004
4.9155,-8.2904,1.2904,-0.1773,-0.1449,0.0463,0.0239,0.0153,0.012,14,2019-08-07 16:16:07:009
4.9155,-8.2904,1.2904,-0.1773,-0.1449,0.0463,0.0325,0.0121,0.0227,18,2019-08-07 16:16:07:013
4.9538,-8.4336,1.3469,-0.1773,-0.1449,0.0463,0.0325,0.0121,0.0227,24,2019-08-07 16:16:07:019
4.9538,-8.4336,1.3469,-0.1228,0.0167,-0.0609,0.0282,-0.0039,0.0216,29,2019-08-07 16:16:07:024
4.8486,-8.3954,1.3611,-0.1228,0.0167,-0.0609,0.0282,-0.0039,0.0216,34,2019-08-07 16:16:07:029
4.8486,-8.3954,1.3611,-0.1228,0.0167,-0.0609,0.0293,-0.0156,0.0141,39,2019-08-07 16:16:07:034
4.8486,-8.3954,1.3611,-0.1228,0.0167,-0.0609,0.0293,-0.0156,0.0141,44,2019-08-07 16:16:07:039
4.7338,-8.3047,1.3045,0.0574,-0.1507,0.0323,0.0154,-0.0401,0.0077,49,2019-08-07 16:16:07:044
4.7338,-8.3047,1.3045,0.0574,-0.1507,0.0323,0.0154,-0.0401,0.0077,54,2019-08-07 16:16:07:049
4.839,-8.3285,1.3846,0.0574,-0.1507,0.0323,5.0E-4,-0.0433,0.0088,59,2019-08-07 16:16:07:054
4.839,-8.3285,1.3846,0.0574,-0.1507,0.0323,5.0E-4,-0.0433,0.0088,64,2019-08-07 16:16:07:059
4.839,-8.3285,1.3846,-0.1237,-0.1174,-0.0466,-0.0069,-0.0476,0.0035,69,2019-08-07 16:16:07:064
4.8964,-8.3667,1.4223,-0.1237,-0.1174,-0.0466,-0.0069,-0.0476,0.0035,73,2019-08-07 16:16:07:068
4.8964,-8.3667,1.4223,-0.1237,-0.1174,-0.0466,-0.0037,-0.0561,3.0E-4,79,2019-08-07 16:16:07:074
5.04,-8.3238,1.3281,-0.1237,-0.1174,-0.0466,-0.0037,-0.0561,3.0E-4,84,2019-08-07 16:16:07:079
5.04,-8.3238,1.3281,-0.2594,-0.1166,-0.0475,0.0048,-0.0444,-0.0061,88,2019-08-07 16:16:07:083
5.04,-8.3238,1.3281,-0.2594,-0.1166,-0.0475,0.0048,-0.0444,-0.0061,94,2019-08-07 16:16:07:089
5.0878,-8.3333,1.3281,-0.2594,-0.1166,-0.0475,0.0037,-0.0263,-0.0029,99,2019-08-07 16:16:07:094
5.0878,-8.3333,1.3281,-0.2594,-0.1166,-0.0475,0.0037,-0.0263,-0.0029,104,2019-08-07 16:16:07:099
5.0639,-8.2808,1.2715,-0.2367,-0.1151,0.0814,-0.0027,0.0025,0.0035,109,2019-08-07 16:16:07:104
5.0639,-8.2808,1.2715,-0.2367,-0.1151,0.0814,-0.0027,0.0025,0.0035,114,2019-08-07 16:16:07:109
5.0639,-8.2808,1.2715,-0.2367,-0.1151,0.0814,0.0016,0.0057,0.0024,119,2019-08-07 16:16:07:114
5.016,-8.3715,1.3893,-0.2367,-0.1151,0.0814,0.0016,0.0057,0.0024,124,2019-08-07 16:16:07:119
5.016,-8.3715,1.3893,-0.1782,-0.0285,-0.0783,0.0026,-0.0071,0.0067,130,2019-08-07 16:16:07:125
4.9299,-8.4336,1.3988,-0.1782,-0.0285,-0.0783,0.0026,-0.0071,0.0067,134,2019-08-07 16:16:07:129
4.9299,-8.4336,1.3988,-0.1782,-0.0285,-0.0783,0.0026,-0.0071,0.0067,138,2019-08-07 16:16:07:133
4.9299,-8.4336,1.3988,-0.1782,-0.0285,-0.0783,5.0E-4,-0.0103,-0.0018,144,2019-08-07 16:16:07:139
4.9204,-8.4002,1.2856,-0.1203,-0.052,0.0395,5.0E-4,-0.0103,-0.0018,149,2019-08-07 16:16:07:144
4.9204,-8.4002,1.2856,-0.1203,-0.052,0.0395,-0.0027,-0.0263,3.0E-4,154,2019-08-07 16:16:07:149
4.9539,-8.4192,1.4506,-0.1203,-0.052,0.0395,-0.0027,-0.0263,3.0E-4,159,2019-08-07 16:16:07:154
4.9539,-8.4192,1.4506,-0.1203,-0.052,0.0395,-0.0037,-0.0433,-0.0018,165,2019-08-07 16:16:07:160
4.9539,-8.4192,1.4506,-0.1949,-0.0657,-0.0481,-0.0037,-0.0433,-0.0018,169,2019-08-07 16:16:07:164
4.9539,-8.4192,1.4506,-0.1949,-0.0657,-0.0481,-0.0037,-0.0433,-0.0018,174,2019-08-07 16:16:07:169
5.083,-8.467,1.2715,-0.1949,-0.0657,-0.0481,-6.0E-4,-0.0358,0.0024,179,2019-08-07 16:16:07:174
5.083,-8.467,1.2715,-0.1949,-0.0657,-0.0481,-6.0E-4,-0.0358,0.0024,184,2019-08-07 16:16:07:179
5.107,-8.4193,1.2998,-0.317,-0.0506,0.0331,0.0026,-0.0145,0.0014,189,2019-08-07 16:16:07:184
5.107,-8.4193,1.2998,-0.317,-0.0506,0.0331,0.0026,-0.0145,0.0014,193,2019-08-07 16:16:07:188
5.107,-8.4193,1.2998,-0.317,-0.0506,0.0331,0.0058,0.0057,0.0014,198,2019-08-07 16:16:07:193
5.0543,-8.3858,1.3799,-0.317,-0.0506,0.0331,0.0058,0.0057,0.0014,204,2019-08-07 16:16:07:199
5.0543,-8.3858,1.3799,-0.2343,-0.0306,0.0154,0.009,0.01,0.0045,209,2019-08-07 16:16:07:204
5.0256,-8.4527,1.2856,-0.2343,-0.0306,0.0154,0.009,0.01,0.0045,215,2019-08-07 16:16:07:210
5.0256,-8.4527,1.2856,-0.2343,-0.0306,0.0154,0.0037,0.0185,0.0056,219,2019-08-07 16:16:07:214
5.0256,-8.4527,1.2856,-0.2343,-0.0306,0.0154,0.0037,0.0185,0.0056,224,2019-08-07 16:16:07:219
4.9478,-8.3857,1.3702,-0.1896,-0.0682,-0.1231,0.0037,0.0185,0.0056,229,2019-08-07 16:16:07:224
4.9478,-8.3857,1.3702,-0.1896,-0.0682,-0.1231,0.008,0.0132,-8.0E-4,234,2019-08-07 16:16:07:229
4.9287,-8.4669,1.4786,-0.1896,-0.0682,-0.1231,0.008,0.0132,-8.0E-4,238,2019-08-07 16:16:07:233
4.9287,-8.4669,1.4786,-0.1896,-0.0682,-0.1231,0.009,0.0132,0.0013,244,2019-08-07 16:16:07:239
4.9287,-8.4669,1.4786,-0.0888,-0.0198,-0.1055,0.009,0.0132,0.0013,249,2019-08-07 16:16:07:244
4.9095,-8.4239,1.4362,-0.0888,-0.0198,-0.1055,0.0058,0.0068,-0.0029,254,2019-08-07 16:16:07:249
4.9095,-8.4239,1.4362,-0.0888,-0.0198,-0.1055,0.0058,0.0068,-0.0029,259,2019-08-07 16:16:07:254
4.9095,-8.4048,1.4645,-0.0888,-0.0198,-0.1055,0.0016,-0.0156,-0.0029,264,2019-08-07 16:16:07:259
4.9095,-8.4048,1.4645,-0.14,-0.0379,-0.1046,0.0016,-0.0156,-0.0029,269,2019-08-07 16:16:07:264
4.9095,-8.4048,1.4645,-0.14,-0.0379,-0.1046,0.0069,-0.0209,-0.0019,274,2019-08-07 16:16:07:269
4.9478,-8.4478,1.4975,-0.14,-0.0379,-0.1046,0.0069,-0.0209,-0.0019,279,2019-08-07 16:16:07:274
4.9478,-8.4478,1.4975,-0.14,-0.0379,-0.1046,0.0122,-0.005,0.0013,283,2019-08-07 16:16:07:278
5.0195,-8.4,1.2288,-0.2099,-0.0463,0.0991,0.0122,-0.005,0.0013,289,2019-08-07 16:16:07:284
5.0195,-8.4,1.2288,-0.2099,-0.0463,0.0991,0.009,-0.005,-0.005,294,2019-08-07 16:16:07:289
5.0195,-8.4,1.2288,-0.2099,-0.0463,0.0991,0.009,-0.005,-0.005,298,2019-08-07 16:16:07:293
5.0147,-8.3714,1.4174,-0.2099,-0.0463,0.0991,0.0186,4.0E-4,0.0045,304,2019-08-07 16:16:07:299
5.0147,-8.3714,1.4174,-0.2099,-0.0463,0.0991,0.0186,4.0E-4,0.0045,308,2019-08-07 16:16:07:303
4.986,-8.3809,1.3796,-0.1751,-0.0785,-0.0114,0.0271,0.0036,0.0131,314,2019-08-07 16:16:07:309
4.986,-8.3809,1.3796,-0.1751,-0.0785,-0.0114,0.0271,0.0036,0.0131,319,2019-08-07 16:16:07:314
4.986,-8.3809,1.3796,-0.1751,-0.0785,-0.0114,0.0271,0.0036,0.0131,323,2019-08-07 16:16:07:318
4.9908,-8.3571,1.3184,-0.1751,-0.0785,-0.0114,0.0229,0.0078,0.012,329,2019-08-07 16:16:07:324
4.9908,-8.3571,1.3184,-0.1187,-0.1117,-0.0865,0.0229,0.0078,0.012,334,2019-08-07 16:16:07:329
4.9716,-8.295,1.4126,-0.1187,-0.1117,-0.0865,0.0165,-0.0071,0.0088,339,2019-08-07 16:16:07:334
4.9716,-8.295,1.4126,-0.1187,-0.1117,-0.0865,0.0165,-0.0071,0.0088,344,2019-08-07 16:16:07:339
4.9716,-8.295,1.4126,-0.1187,-0.1117,-0.0865,0.0154,-0.0028,0.0163,349,2019-08-07 16:16:07:344
4.9716,-8.3905,1.3843,-0.1622,-0.0208,-0.0407,0.0154,-0.0028,0.0163,354,2019-08-07 16:16:07:349
4.9716,-8.3905,1.3843,-0.1622,-0.0208,-0.0407,0.008,0.0153,0.0056,359,2019-08-07 16:16:07:354
4.9716,-8.3905,1.3843,-0.1622,-0.0208,-0.0407,0.008,0.0153,0.0056,363,2019-08-07 16:16:07:358
4.8807,-8.3761,1.4221,-0.1622,-0.0208,-0.0407,0.008,0.0153,0.0056,369,2019-08-07 16:16:07:364
4.8807,-8.3761,1.4221,-0.0527,-0.1353,-0.0945,-0.0016,0.0014,0.0013,374,2019-08-07 16:16:07:369
4.8759,-8.3571,1.4739,-0.0527,-0.1353,-0.0945,-0.0016,0.0014,0.0013,379,2019-08-07 16:16:07:374
4.8759,-8.3571,1.4739,-0.0527,-0.1353,-0.0945,0.0037,0.0025,-8.0E-4,384,2019-08-07 16:16:07:379
4.8759,-8.3571,1.4739,-0.0527,-0.1353,-0.0945,0.0037,0.0025,-8.0E-4,388,2019-08-07 16:16:07:383
4.9429,-8.3714,1.3655,-0.1336,-0.0728,-0.0228,-6.0E-4,-0.0113,-0.004,394,2019-08-07 16:16:07:389
4.9429,-8.3714,1.3655,-0.1336,-0.0728,-0.0228,-6.0E-4,-0.0113,-0.004,399,2019-08-07 16:16:07:394
5.0481,-8.3475,1.4456,-0.1336,-0.0728,-0.0228,-0.0027,-0.0177,-0.004,403,2019-08-07 16:16:07:398
5.0481,-8.3475,1.4456,-0.1336,-0.0728,-0.0228,-0.0027,-0.0177,-0.004,409,2019-08-07 16:16:07:404
5.0481,-8.3475,1.4456,-0.265,-0.1385,-0.1002,0.0026,-0.0284,0.0035,413,2019-08-07 16:16:07:408
5.1007,-8.3714,1.3325,-0.265,-0.1385,-0.1002,0.0026,-0.0284,0.0035,419,2019-08-07 16:16:07:414
5.1007,-8.3714,1.3325,-0.265,-0.1385,-0.1002,0.0026,-0.0284,0.0035,423,2019-08-07 16:16:07:418
5.1103,-8.4287,1.2759,-0.265,-0.1385,-0.1002,0.009,-0.0018,0.0099,429,2019-08-07 16:16:07:424
5.1103,-8.4287,1.2759,-0.3116,-0.071,-0.0064,0.009,-0.0018,0.0099,434,2019-08-07 16:16:07:429
5.1103,-8.4287,1.2759,-0.3116,-0.071,-0.0064,0.0112,0.0132,0.0035,439,2019-08-07 16:16:07:434
5.0481,-8.3952,1.3183,-0.3116,-0.071,-0.0064,0.0112,0.0132,0.0035,444,2019-08-07 16:16:07:439
5.0481,-8.3952,1.3183,-0.3116,-0.071,-0.0064,0.0112,0.0249,0.0099,449,2019-08-07 16:16:07:444
4.962,-8.3952,1.3796,-0.1638,8.0E-4,-0.0026,0.0112,0.0249,0.0099,454,2019-08-07 16:16:07:449
4.962,-8.3952,1.3796,-0.1638,8.0E-4,-0.0026,0.0154,0.0366,0.0141,458,2019-08-07 16:16:07:453
4.962,-8.3952,1.3796,-0.1638,8.0E-4,-0.0026,0.0154,0.0366,0.0141,465,2019-08-07 16:16:07:460
4.9572,-8.4239,1.4409,-0.1638,8.0E-4,-0.0026,0.0122,0.0291,0.0109,468,2019-08-07 16:16:07:463
4.9572,-8.4239,1.4409,-0.1181,-0.0138,-0.1098,0.0122,0.0291,0.0109,474,2019-08-07 16:16:07:469
4.9045,-8.4334,1.4833,-0.1181,-0.0138,-0.1098,0.0133,0.0078,0.0099,480,2019-08-07 16:16:07:475
4.9045,-8.4334,1.4833,-0.1181,-0.0138,-0.1098,0.0133,0.0078,0.0099,484,2019-08-07 16:16:07:479
4.9045,-8.4334,1.4833,-0.1181,-0.0138,-0.1098,0.0165,0.0121,0.0067,489,2019-08-07 16:16:07:484
4.9189,-8.4048,1.3843,-0.1094,-0.0374,-0.03,0.0165,0.0121,0.0067,494,2019-08-07 16:16:07:489
4.9189,-8.4048,1.3843,-0.1094,-0.0374,-0.03,0.0165,0.0121,0.0067,499,2019-08-07 16:16:07:494
4.9189,-8.4048,1.3843,-0.1094,-0.0374,-0.03,0.0133,0.0238,-0.0029,504,2019-08-07 16:16:07:499
4.9093,-8.3141,1.323,-0.1094,-0.0374,-0.03,0.0133,0.0238,-0.0029,510,2019-08-07 16:16:07:505
4.9093,-8.3141,1.323,-0.0134,-0.0555,-0.1192,0.0112,0.0185,-0.005,514,2019-08-07 16:16:07:509
4.8088,-8.357,1.422,-0.0134,-0.0555,-0.1192,0.0112,0.0185,-0.005,519,2019-08-07 16:16:07:514
4.8088,-8.357,1.422,-0.0134,-0.0555,-0.1192,0.0122,0.01,-0.005,524,2019-08-07 16:16:07:519
4.8088,-8.357,1.422,-0.0134,-0.0555,-0.1192,0.0122,0.01,-0.005,529,2019-08-07 16:16:07:524
4.8853,-8.3666,1.3796,-0.0884,-0.0589,0.0256,0.0133,-0.0039,-0.0136,534,2019-08-07 16:16:07:529
4.8853,-8.3666,1.3796,-0.0884,-0.0589,0.0256,0.0133,-0.0039,-0.0136,539,2019-08-07 16:16:07:534
4.8997,-8.3905,1.4692,-0.0884,-0.0589,0.0256,0.0176,-0.0145,-0.0125,544,2019-08-07 16:16:07:539
4.8997,-8.3905,1.4692,-0.0884,-0.0589,0.0256,0.0176,-0.0145,-0.0125,549,2019-08-07 16:16:07:544
4.8997,-8.3905,1.4692,-0.1614,-0.0565,0.0234,0.0176,-0.0145,-0.0125,554,2019-08-07 16:16:07:549
4.914,-8.3618,1.3513,-0.1614,-0.0565,0.0234,0.0303,0.0068,-0.0125,559,2019-08-07 16:16:07:554
4.914,-8.3618,1.3513,-0.1614,-0.0565,0.0234,0.0208,0.0195,-0.0168,565,2019-08-07 16:16:07:560
4.8949,-8.3427,1.2617,-0.1614,-0.0565,0.0234,0.0208,0.0195,-0.0168,568,2019-08-07 16:16:07:563
4.8949,-8.3427,1.2617,-0.0531,-0.0778,0.0522,0.0208,0.0195,-0.0168,574,2019-08-07 16:16:07:569
4.8949,-8.3427,1.2617,-0.0531,-0.0778,0.0522,0.0112,0.0153,-0.02,578,2019-08-07 16:16:07:573
4.8518,-8.4382,1.3419,-0.0531,-0.0778,0.0522,0.0112,0.0153,-0.02,584,2019-08-07 16:16:07:579
4.8518,-8.4382,1.3419,-0.0531,-0.0778,0.0522,0.0101,0.01,-0.0157,588,2019-08-07 16:16:07:583
4.847,-8.4764,1.5069,-0.0263,0.0438,-0.1328,0.0101,0.01,-0.0157,594,2019-08-07 16:16:07:589
4.847,-8.4764,1.5069,-0.0263,0.0438,-0.1328,0.0133,-0.0039,-0.021,599,2019-08-07 16:16:07:594
4.847,-8.4764,1.5069,-0.0263,0.0438,-0.1328,0.0133,-0.0039,-0.021,603,2019-08-07 16:16:07:598
4.8853,-8.4382,1.4126,-0.0263,0.0438,-0.1328,0.0101,-0.0156,-0.0274,609,2019-08-07 16:16:07:604
4.8853,-8.4382,1.4126,-0.1554,-0.0297,0.0098,0.0101,-0.0156,-0.0274,614,2019-08-07 16:16:07:609
5.0048,-8.3427,1.4079,-0.1554,-0.0297,0.0098,0.0037,-0.0454,-0.0253,618,2019-08-07 16:16:07:613
5.0048,-8.3427,1.4079,-0.1554,-0.0297,0.0098,0.0037,-0.0454,-0.0253,624,2019-08-07 16:16:07:619
5.0048,-8.3427,1.4079,-0.2142,-0.0232,-0.1002,0.0037,-0.0454,-0.0253,628,2019-08-07 16:16:07:623
5.1149,-8.3713,1.4503,-0.2142,-0.0232,-0.1002,0.0101,-0.0231,-0.0157,634,2019-08-07 16:16:07:629
5.1149,-8.3713,1.4503,-0.2142,-0.0232,-0.1002,0.0101,-0.0231,-0.0157,639,2019-08-07 16:16:07:634
5.1244,-8.2806,1.4267,-0.2904,-0.1442,-0.0516,0.0133,0.0164,-0.0157,644,2019-08-07 16:16:07:639
5.1244,-8.2806,1.4267,-0.2904,-0.1442,-0.0516,0.0133,0.0164,-0.0157,648,2019-08-07 16:16:07:643
5.1244,-8.2806,1.4267,-0.2904,-0.1442,-0.0516,0.0016,0.0174,-0.0104,654,2019-08-07 16:16:07:649
5.0574,-8.3475,1.4833,-0.2904,-0.1442,-0.0516,0.0016,0.0174,-0.0104,658,2019-08-07 16:16:07:653
5.0574,-8.3475,1.4833,-0.2062,-0.0848,-0.1573,0.0069,0.011,-0.0019,664,2019-08-07 16:16:07:659
5.0574,-8.3475,1.4833,-0.2062,-0.0848,-0.1573,0.0069,0.011,-0.0019,669,2019-08-07 16:16:07:664
5.0574,-8.443,1.4833,-0.2062,-0.0848,-0.1573,0.0186,0.0238,0.012,675,2019-08-07 16:16:07:670
5.0574,-8.443,1.4833,-0.2062,-0.0848,-0.1573,0.0186,0.0238,0.012,678,2019-08-07 16:16:07:673
5.0239,-8.4907,1.455,-0.1885,0.068,-0.0719,0.0186,0.0238,0.012,684,2019-08-07 16:16:07:679
5.0239,-8.4907,1.455,-0.1885,0.068,-0.0719,0.0176,0.0174,0.0195,688,2019-08-07 16:16:07:683
5.0239,-8.4907,1.455,-0.1885,0.068,-0.0719,0.0176,0.0174,0.0195,694,2019-08-07 16:16:07:689
4.9665,-8.4286,1.5021,-0.1885,0.068,-0.0719,0.0208,0.0057,0.0216,698,2019-08-07 16:16:07:693
4.9665,-8.4286,1.5021,-0.1885,0.068,-0.0719,0.0208,0.0057,0.0216,704,2019-08-07 16:16:07:699
4.9665,-8.4286,1.5021,-0.1482,-0.0139,-0.0433,0.0197,0.0206,0.0152,708,2019-08-07 16:16:07:703
4.9808,-8.4239,1.4267,-0.1482,-0.0139,-0.0433,0.0197,0.0206,0.0152,714,2019-08-07 16:16:07:709
4.9808,-8.4239,1.4267,-0.1482,-0.0139,-0.0433,0.0197,0.0206,0.0152,719,2019-08-07 16:16:07:714
4.9043,-8.4143,1.4361,-0.1482,-0.0139,-0.0433,0.0133,0.0185,0.0141,723,2019-08-07 16:16:07:718
4.9043,-8.4143,1.4361,-0.0646,-0.0336,-0.0194,0.0154,0.0238,0.0067,729,2019-08-07 16:16:07:724
4.9043,-8.4143,1.4361,-0.0646,-0.0336,-0.0194,0.0154,0.0238,0.0067,734,2019-08-07 16:16:07:729
4.9521,-8.3666,1.4408,-0.0646,-0.0336,-0.0194,0.0154,0.0238,0.0067,738,2019-08-07 16:16:07:733
4.9521,-8.3666,1.4408,-0.0646,-0.0336,-0.0194,0.0186,0.027,3.0E-4,744,2019-08-07 16:16:07:739
4.9282,-8.2997,1.3748,-0.1035,-0.0713,-0.0187,0.0186,0.027,3.0E-4,749,2019-08-07 16:16:07:744
4.9282,-8.2997,1.3748,-0.1035,-0.0713,-0.0187,0.0144,0.01,-0.0136,754,2019-08-07 16:16:07:749
4.9282,-8.2997,1.3748,-0.1035,-0.0713,-0.0187,0.0144,0.01,-0.0136,759,2019-08-07 16:16:07:754
4.9521,-8.295,1.4785,-0.1106,-0.1027,-0.1137,0.0176,-0.005,-0.0125,765,2019-08-07 16:16:07:760
4.9521,-8.295,1.4785,-0.1106,-0.1027,-0.1137,0.0176,-0.005,-0.0125,768,2019-08-07 16:16:07:763
4.9521,-8.295,1.4785,-0.1106,-0.1027,-0.1137,0.0176,-0.005,-0.0125,774,2019-08-07 16:16:07:769
5.0095,-8.2615,1.4502,-0.1106,-0.1027,-0.1137,0.0122,-0.0081,-0.0146,779,2019-08-07 16:16:07:774
5.0095,-8.2615,1.4502,-0.1106,-0.1027,-0.1137,0.0122,-0.0081,-0.0146,784,2019-08-07 16:16:07:779
4.9855,-8.2186,1.389,-0.1782,-0.186,0.0146,-0.0016,-0.006,-0.0157,788,2019-08-07 16:16:07:783
4.9855,-8.2186,1.389,-0.1782,-0.186,0.0146,-0.0016,-0.006,-0.0157,794,2019-08-07 16:16:07:789
4.9855,-8.2186,1.389,-0.1782,-0.186,0.0146,-0.0037,-0.0018,-0.005,799,2019-08-07 16:16:07:794
4.9138,-8.3093,1.5021,-0.1782,-0.186,0.0146,-0.0037,-0.0018,-0.005,803,2019-08-07 16:16:07:798
4.9138,-8.3093,1.5021,-0.0799,-0.0844,-0.0986,-5.0E-4,0.0089,0.0056,809,2019-08-07 16:16:07:804
4.9807,-8.2806,1.4314,-0.0799,-0.0844,-0.0986,-5.0E-4,0.0089,0.0056,814,2019-08-07 16:16:07:809
4.9807,-8.2806,1.4314,-0.0799,-0.0844,-0.0986,-0.0037,0.01,-8.0E-4,819,2019-08-07 16:16:07:814
4.9807,-8.2806,1.4314,-0.0799,-0.0844,-0.0986,-0.0037,0.01,-8.0E-4,824,2019-08-07 16:16:07:819
4.8468,-8.3045,1.3842,-0.0077,-0.1126,0.0197,-0.0091,0.0014,-8.0E-4,829,2019-08-07 16:16:07:824
4.8468,-8.3045,1.3842,-0.0077,-0.1126,0.0197,-0.0091,0.0014,-8.0E-4,834,2019-08-07 16:16:07:829
4.9855,-8.3952,1.3842,-0.0077,-0.1126,0.0197,-0.0037,-0.0039,0.0024,839,2019-08-07 16:16:07:834
4.9855,-8.3952,1.3842,-0.0077,-0.1126,0.0197,-0.0037,-0.0039,0.0024,843,2019-08-07 16:16:07:838
4.9855,-8.3952,1.3842,-0.1459,-0.0123,0.0279,5.0E-4,-0.0039,0.0024,849,2019-08-07 16:16:07:844
4.9759,-8.3856,1.3842,-0.1459,-0.0123,0.0279,5.0E-4,-0.0039,0.0024,853,2019-08-07 16:16:07:848
4.9759,-8.3856,1.3842,-0.1459,-0.0123,0.0279,5.0E-4,-0.0039,0.0024,859,2019-08-07 16:16:07:854
4.9855,-8.3666,1.389,-0.1459,-0.0123,0.0279,-0.0016,0.0014,0.0024,864,2019-08-07 16:16:07:859
4.9855,-8.3666,1.389,-0.2312,-0.0407,0.0695,-0.0016,0.0014,0.0024,869,2019-08-07 16:16:07:864
4.9855,-8.3666,1.389,-0.2312,-0.0407,0.0695,-0.0101,4.0E-4,-0.0029,874,2019-08-07 16:16:07:869
5.0237,-8.3761,1.3842,-0.2312,-0.0407,0.0695,-0.0144,0.0238,-0.005,880,2019-08-07 16:16:07:875
5.0237,-8.3761,1.3842,-0.2312,-0.0407,0.0695,-0.0144,0.0238,-0.005,884,2019-08-07 16:16:07:879
4.928,-8.462,1.4031,-0.0865,0.0457,-0.0022,-0.0144,0.0238,-0.005,889,2019-08-07 16:16:07:884
4.928,-8.462,1.4031,-0.0865,0.0457,-0.0022,-0.0187,0.0323,-0.0093,894,2019-08-07 16:16:07:889
4.8084,-8.3809,1.4455,-0.0865,0.0457,-0.0022,-0.0187,0.0323,-0.0093,899,2019-08-07 16:16:07:894
4.8084,-8.3809,1.4455,-0.0865,0.0457,-0.0022,-0.0197,0.0238,-0.0157,904,2019-08-07 16:16:07:899
4.8084,-8.3809,1.4455,0.0249,0.0179,-0.1249,-0.0197,0.0238,-0.0157,909,2019-08-07 16:16:07:904
4.7749,-8.4191,1.5492,0.0249,0.0179,-0.1249,-0.0133,0.0057,-0.0232,914,2019-08-07 16:16:07:909
4.7749,-8.4191,1.5492,0.0249,0.0179,-0.1249,-0.0133,0.0057,-0.0232,918,2019-08-07 16:16:07:913
4.7749,-8.4191,1.5492,0.0249,0.0179,-0.1249,-0.0133,0.0057,-0.0232,924,2019-08-07 16:16:07:919
4.8036,-8.4143,1.4455,0.024,-0.0183,-0.079,-0.0059,-0.0263,-0.0264,929,2019-08-07 16:16:07:924
4.8036,-8.4143,1.4455,0.024,-0.0183,-0.079,-0.0059,-0.0263,-0.0264,934,2019-08-07 16:16:07:929
4.9662,-8.3713,1.4974,0.024,-0.0183,-0.079,-0.0016,-0.038,-0.0242,939,2019-08-07 16:16:07:934
4.9662,-8.3713,1.4974,0.024,-0.0183,-0.079,-0.0016,-0.038,-0.0242,944,2019-08-07 16:16:07:939
4.9662,-8.3713,1.4974,-0.2234,-0.0011,-0.0452,0.0016,-0.0476,-0.0221,948,2019-08-07 16:16:07:943
5.0811,-8.3856,1.4738,-0.2234,-0.0011,-0.0452,0.0016,-0.0476,-0.0221,954,2019-08-07 16:16:07:949
5.0811,-8.3856,1.4738,-0.2234,-0.0011,-0.0452,0.0048,-0.0209,-0.0146,959,2019-08-07 16:16:07:954
5.2006,-8.314,1.4031,-0.2234,-0.0011,-0.0452,0.0048,-0.0209,-0.0146,965,2019-08-07 16:16:07:960
5.2006,-8.314,1.4031,-0.3426,-0.0366,0.0282,-0.0059,-0.0018,-0.004,968,2019-08-07 16:16:07:963
5.2006,-8.314,1.4031,-0.3426,-0.0366,0.0282,-0.0059,-0.0018,-0.004,974,2019-08-07 16:16:07:969
5.1863,-8.3713,1.4313,-0.3426,-0.0366,0.0282,-0.0101,0.0249,0.0067,980,2019-08-07 16:16:07:975
5.1863,-8.3713,1.4313,-0.3426,-0.0366,0.0282,-0.0101,0.0249,0.0067,984,2019-08-07 16:16:07:979
5.1001,-8.3331,1.4832,-0.2413,-0.0743,-0.0891,-0.008,0.0409,0.0088,988,2019-08-07 16:16:07:983
5.1001,-8.3331,1.4832,-0.2413,-0.0743,-0.0891,-0.008,0.0409,0.0088,994,2019-08-07 16:16:07:989
5.1001,-8.3331,1.4832,-0.2413,-0.0743,-0.0891,-0.0197,0.0398,0.0099,999,2019-08-07 16:16:07:994
4.9901,-8.4381,1.3465,-0.2413,-0.0743,-0.0891,-0.0197,0.0398,0.0099,1004,2019-08-07 16:16:07:999
4.9901,-8.4381,1.3465,-0.2413,-0.0743,-0.0891,-0.025,0.0345,0.012,1008,2019-08-07 16:16:08:003
4.9375,-8.4572,1.4879,-0.1091,0.0107,-0.0271,-0.025,0.0345,0.012,1014,2019-08-07 16:16:08:009
4.9375,-8.4572,1.4879,-0.1091,0.0107,-0.0271,-0.0208,0.0377,0.0141,1018,2019-08-07 16:16:08:013
4.9375,-8.4572,1.4879,-0.1091,0.0107,-0.0271,-0.0208,0.0377,0.0141,1025,2019-08-07 16:16:08:020
4.8752,-8.4763,1.4313,-0.0306,0.0378,-0.0174,-0.0165,0.0164,0.0099,1029,2019-08-07 16:16:08:024
4.8752,-8.4763,1.4313,-0.0306,0.0378,-0.0174,-0.0165,0.0164,0.0099,1034,2019-08-07 16:16:08:029
4.8944,-8.4477,1.4502,-0.0306,0.0378,-0.0174,-0.0165,0.0164,0.0099,1039,2019-08-07 16:16:08:034
4.8944,-8.4477,1.4502,-0.0306,0.0378,-0.0174,-0.0059,0.0025,3.0E-4,1044,2019-08-07 16:16:08:039
4.8944,-8.4477,1.4502,-0.0459,0.0228,-0.0133,-0.0059,0.0025,3.0E-4,1049,2019-08-07 16:16:08:044
4.9087,-8.3809,1.3512,-0.0459,0.0228,-0.0133,-0.0016,0.0025,-0.0019,1054,2019-08-07 16:16:08:049
4.9087,-8.3809,1.3512,-0.0459,0.0228,-0.0133,-0.0016,0.0025,-0.0019,1059,2019-08-07 16:16:08:054
4.8896,-8.3713,1.4125,-0.0459,0.0228,-0.0133,-0.0027,0.011,-0.0061,1064,2019-08-07 16:16:08:059
4.8896,-8.3713,1.4125,-0.0459,0.0228,-0.0133,-0.0027,0.011,-0.0061,1069,2019-08-07 16:16:08:064
4.8896,-8.3713,1.4125,-0.0594,-0.0626,0.0105,-0.0027,0.011,-0.0061,1073,2019-08-07 16:16:08:068
4.9517,-8.4047,1.4596,-0.0594,-0.0626,0.0105,-0.0059,4.0E-4,-0.0019,1079,2019-08-07 16:16:08:074
4.9517,-8.4047,1.4596,-0.0594,-0.0626,0.0105,-0.0059,4.0E-4,-0.0019,1084,2019-08-07 16:16:08:079
4.9517,-8.4047,1.4596,-0.0594,-0.0626,0.0105,-5.0E-4,-0.006,-0.004,1088,2019-08-07 16:16:08:083
4.9852,-8.4047,1.4313,-0.1301,-0.0048,-0.0369,-5.0E-4,-0.006,-0.004,1094,2019-08-07 16:16:08:089
4.9852,-8.4047,1.4313,-0.1301,-0.0048,-0.0369,0.0037,-0.0145,-0.0029,1100,2019-08-07 16:16:08:095
4.9804,-8.3761,1.4407,-0.1301,-0.0048,-0.0369,0.0037,-0.0145,-0.0029,1104,2019-08-07 16:16:08:099
4.9804,-8.3761,1.4407,-0.1301,-0.0048,-0.0369,0.009,-0.0145,0.0035,1109,2019-08-07 16:16:08:104
4.9804,-8.3761,1.4407,-0.1909,-0.047,0.0147,0.009,-0.0145,0.0035,1114,2019-08-07 16:16:08:109
5.0665,-8.3427,1.3889,-0.1909,-0.047,0.0147,0.0069,-0.006,0.0077,1119,2019-08-07 16:16:08:114
5.0665,-8.3427,1.3889,-0.1909,-0.047,0.0147,0.0069,-0.006,0.0077,1124,2019-08-07 16:16:08:119
5.0857,-8.3761,1.4125,-0.1909,-0.047,0.0147,0.008,0.01,0.0099,1129,2019-08-07 16:16:08:124
5.0857,-8.3761,1.4125,-0.1478,-0.0325,-0.0503,0.008,0.01,0.0099,1134,2019-08-07 16:16:08:129
5.0857,-8.3761,1.4125,-0.1478,-0.0325,-0.0503,0.008,0.0238,0.0173,1139,2019-08-07 16:16:08:134
4.9995,-8.4477,1.4407,-0.144,0.0388,-0.0439,0.008,0.0238,0.0173,1144,2019-08-07 16:16:08:139
4.9995,-8.4477,1.4407,-0.144,0.0388,-0.0439,0.0122,0.0345,0.0152,1149,2019-08-07 16:16:08:144
4.9995,-8.4477,1.4407,-0.144,0.0388,-0.0439,0.0122,0.0345,0.0152,1154,2019-08-07 16:16:08:149
4.966,-8.4572,1.4219,-0.144,0.0388,-0.0439,0.0122,0.0345,0.0152,1159,2019-08-07 16:16:08:154
4.966,-8.4572,1.4219,-0.051,-0.0143,-0.0475,0.0154,0.0504,0.0056,1165,2019-08-07 16:16:08:160
4.966,-8.4572,1.4219,-0.051,-0.0143,-0.0475,0.0154,0.0504,0.0056,1168,2019-08-07 16:16:08:163
4.7459,-8.4095,1.469,-0.051,-0.0143,-0.0475,0.0154,0.0462,-0.0019,1174,2019-08-07 16:16:08:169
4.7459,-8.4095,1.469,-0.051,-0.0143,-0.0475,0.0154,0.0462,-0.0019,1179,2019-08-07 16:16:08:174
4.7268,-8.3474,1.502,0.1243,-0.0379,-0.1249,0.0037,0.0206,-0.0072,1184,2019-08-07 16:16:08:179
4.7268,-8.3474,1.502,0.1243,-0.0379,-0.1249,0.0037,0.0206,-0.0072,1188,2019-08-07 16:16:08:183
4.7268,-8.3474,1.502,0.1243,-0.0379,-0.1249,0.0037,0.0206,-0.0072,1194,2019-08-07 16:16:08:189
4.7698,-8.3665,1.4973,0.1243,-0.0379,-0.1249,-0.0037,-0.022,-0.0189,1200,2019-08-07 16:16:08:195
4.7698,-8.3665,1.4973,-0.0215,-0.0079,-0.1252,-0.0037,-0.022,-0.0189,1204,2019-08-07 16:16:08:199
4.7698,-8.3665,1.469,-0.0215,-0.0079,-0.1252,-0.008,-0.055,-0.02,1208,2019-08-07 16:16:08:203
4.9181,-8.3665,1.469,-0.0215,-0.0079,-0.1252,-0.008,-0.055,-0.02,1214,2019-08-07 16:16:08:209
4.9181,-8.3665,1.469,-0.0215,-0.0079,-0.1252,-0.008,-0.055,-0.02,1220,2019-08-07 16:16:08:215
5.1717,-8.3331,1.3276,-0.3126,-0.0725,0.0762,-0.0059,-0.039,-0.0157,1224,2019-08-07 16:16:08:219
5.1717,-8.3331,1.3276,-0.3126,-0.0725,0.0762,-0.0059,-0.039,-0.0157,1229,2019-08-07 16:16:08:224
5.2164,-8.2903,1.3185,-0.3547,-0.1142,0.083,-0.008,-0.0039,-0.0029,1234,2019-08-07 16:16:08:229
5.2164,-8.2903,1.3185,-0.3547,-0.1142,0.083,-0.008,-0.0039,-0.0029,1239,2019-08-07 16:16:08:234
5.2164,-8.2903,1.3185,-0.3547,-0.1142,0.083,-0.0059,0.0249,0.0067,1244,2019-08-07 16:16:08:239
5.1686,-8.338,1.2242,-0.3547,-0.1142,0.083,-0.0059,0.0249,0.0067,1250,2019-08-07 16:16:08:245
5.1686,-8.338,1.2242,-0.22,-0.0756,0.1066,-0.0059,0.0249,0.0067,1254,2019-08-07 16:16:08:249
5.1686,-8.338,1.2242,-0.22,-0.0756,0.1066,-0.0059,0.0387,0.0131,1258,2019-08-07 16:16:08:253
4.9772,-8.4287,1.3562,-0.22,-0.0756,0.1066,-0.0059,0.0387,0.0131,1264,2019-08-07 16:16:08:259
4.9772,-8.4287,1.3562,-0.22,-0.0756,0.1066,-0.0027,0.0366,0.0131,1269,2019-08-07 16:16:08:264
4.8145,-8.424,1.4317,0.0449,0.0186,-0.0275,-0.0027,0.0366,0.0131,1274,2019-08-07 16:16:08:269
4.8145,-8.424,1.4317,0.0449,0.0186,-0.0275,0.0037,-0.0039,0.0152,1278,2019-08-07 16:16:08:273
4.8145,-8.424,1.4317,0.0449,0.0186,-0.0275,0.0037,-0.0039,0.0152,1284,2019-08-07 16:16:08:279
4.8767,-8.4144,1.4128,0.0449,0.0186,-0.0275,0.0101,-0.0199,0.0077,1289,2019-08-07 16:16:08:284
4.8767,-8.4144,1.4128,0.019,0.0079,0.081,0.0101,-0.0199,0.0077,1294,2019-08-07 16:16:08:289
4.8241,-8.4001,1.3657,0.019,0.0079,0.081,0.0069,-0.0188,3.0E-4,1298,2019-08-07 16:16:08:293
4.8241,-8.4001,1.3657,0.019,0.0079,0.081,0.0069,-0.0188,3.0E-4,1304,2019-08-07 16:16:08:299
4.7954,-8.3858,1.4552,0.019,0.0079,0.081,0.0112,0.0014,-0.0104,1309,2019-08-07 16:16:08:304
4.7954,-8.3858,1.4552,0.0725,-0.0105,-0.0549,0.0112,0.0014,-0.0104,1314,2019-08-07 16:16:08:309
4.7954,-8.3858,1.4552,0.0725,-0.0105,-0.0549,0.0112,0.0014,-0.0104,1319,2019-08-07 16:16:08:314
4.7954,-8.3858,1.4552,0.0725,-0.0105,-0.0549,0.0165,-0.0028,-0.0232,1324,2019-08-07 16:16:08:319
4.8146,-8.3571,1.4317,0.0452,-0.0476,-0.0251,0.0165,-0.0028,-0.0232,1329,2019-08-07 16:16:08:324
4.8146,-8.3571,1.4317,0.0452,-0.0476,-0.0251,0.0165,-0.0082,-0.0263,1335,2019-08-07 16:16:08:330
4.8433,-8.3046,1.4599,0.0452,-0.0476,-0.0251,0.0165,-0.0082,-0.0263,1339,2019-08-07 16:16:08:334
4.8433,-8.3046,1.4599,0.0072,-0.0635,-0.0278,0.0229,-0.0327,-0.0253,1344,2019-08-07 16:16:08:339
4.8433,-8.3046,1.4599,0.0072,-0.0635,-0.0278,0.0229,-0.0327,-0.0253,1349,2019-08-07 16:16:08:344
4.9438,-8.3476,1.4458,0.0072,-0.0635,-0.0278,0.0293,-0.0518,-0.0253,1354,2019-08-07 16:16:08:349
4.9438,-8.3476,1.4458,0.0072,-0.0635,-0.0278,0.0293,-0.0518,-0.0253,1359,2019-08-07 16:16:08:354
4.9438,-8.3476,1.4458,0.0072,-0.0635,-0.0278,0.0293,-0.0518,-0.0253,1364,2019-08-07 16:16:08:359
5.0442,-8.3333,1.3751,-0.1728,-0.0644,0.0333,0.0239,-0.0614,-0.0253,1369,2019-08-07 16:16:08:364
5.0442,-8.3333,1.3751,-0.1728,-0.0644,0.0333,0.0239,-0.0614,-0.0253,1374,2019-08-07 16:16:08:369
5.1495,-8.3858,1.3704,-0.1728,-0.0644,0.0333,0.0186,-0.0497,-0.0232,1380,2019-08-07 16:16:08:375
5.1495,-8.3858,1.3704,-0.1728,-0.0644,0.0333,0.0186,-0.0497,-0.0232,1384,2019-08-07 16:16:08:379
5.1495,-8.3858,1.3704,-0.276,0.0155,0.0405,0.0133,-0.0113,-0.02,1389,2019-08-07 16:16:08:384
5.1256,-8.4813,1.3845,-0.276,0.0155,0.0405,0.0133,-0.0113,-0.02,1394,2019-08-07 16:16:08:389
5.1256,-8.4813,1.3845,-0.276,0.0155,0.0405,0.0037,0.0121,-0.0189,1399,2019-08-07 16:16:08:394
5.1256,-8.4813,1.3845,-0.276,0.0155,0.0405,0.0037,0.0121,-0.0189,1404,2019-08-07 16:16:08:399
4.9821,-8.4574,1.4977,-0.0998,0.0658,-0.09,0.0037,0.0164,-0.0221,1409,2019-08-07 16:16:08:404
4.9821,-8.4574,1.4977,-0.0998,0.0658,-0.09,0.0037,0.0164,-0.0221,1414,2019-08-07 16:16:08:409
4.9055,-8.3762,1.4977,-0.0998,0.0658,-0.09,0.0016,0.0057,-0.021,1419,2019-08-07 16:16:08:414
4.9055,-8.3762,1.4977,-0.0998,0.0658,-0.09,0.0016,0.0057,-0.021,1424,2019-08-07 16:16:08:419
4.9055,-8.3762,1.4977,0.0183,-0.0465,-0.0789,-0.0027,-0.0135,-0.0146,1429,2019-08-07 16:16:08:424
4.8912,-8.3285,1.4411,0.0183,-0.0465,-0.0789,-0.0027,-0.0135,-0.0146,1435,2019-08-07 16:16:08:430
4.8912,-8.3285,1.4411,0.0183,-0.0465,-0.0789,-0.0027,-0.0135,-0.0146,1439,2019-08-07 16:16:08:434
4.9725,-8.4049,1.5071,0.0183,-0.0465,-0.0789,-0.0048,-0.0284,3.0E-4,1444,2019-08-07 16:16:08:439
4.9725,-8.4049,1.5071,-0.1036,0.0119,-0.1093,-0.0048,-0.0284,3.0E-4,1449,2019-08-07 16:16:08:444
4.9725,-8.4049,1.5071,-0.1036,0.0119,-0.1093,0.0112,-0.0124,0.0013,1453,2019-08-07 16:16:08:448
5.0874,-8.3571,1.4741,-0.1036,0.0119,-0.1093,0.0112,-0.0124,0.0013,1459,2019-08-07 16:16:08:454
5.0874,-8.3571,1.4741,-0.1036,0.0119,-0.1093,0.0186,-0.0071,0.0013,1465,2019-08-07 16:16:08:460
5.0682,-8.3619,1.4552,-0.2124,-0.0349,-0.0699,0.0186,-0.0071,0.0013,1469,2019-08-07 16:16:08:464
5.0682,-8.3619,1.4552,-0.2124,-0.0349,-0.0699,0.0186,-0.0071,0.0013,1474,2019-08-07 16:16:08:469
5.0682,-8.3619,1.4552,-0.2124,-0.0349,-0.0699,0.0197,4.0E-4,0.0077,1479,2019-08-07 16:16:08:474
5.1065,-8.3476,1.4081,-0.2124,-0.0349,-0.0699,0.0197,4.0E-4,0.0077,1484,2019-08-07 16:16:08:479
5.1065,-8.3476,1.4081,-0.2604,-0.0152,-0.0941,0.0271,0.0068,0.0173,1490,2019-08-07 16:16:08:485
5.1065,-8.3476,1.4081,-0.2604,-0.0152,-0.0941,0.0271,0.0068,0.0173,1494,2019-08-07 16:16:08:489
5.1352,-8.4049,1.4882,-0.2604,-0.0152,-0.0941,0.0293,0.0057,0.0131,1499,2019-08-07 16:16:08:494
5.1352,-8.4049,1.4882,-0.2604,-0.0152,-0.0941,0.0293,0.0057,0.0131,1504,2019-08-07 16:16:08:499
5.0682,-8.3762,1.4128,-0.1801,-0.0101,0.0058,0.0293,0.0057,0.0131,1508,2019-08-07 16:16:08:503
5.0682,-8.3762,1.4128,-0.1801,-0.0101,0.0058,0.0208,0.0068,0.0141,1514,2019-08-07 16:16:08:509
5.0108,-8.3476,1.5118,-0.1801,-0.0101,0.0058,0.0208,0.0068,0.0141,1519,2019-08-07 16:16:08:514
5.0108,-8.3476,1.5118,-0.1801,-0.0101,0.0058,0.0208,0.0068,0.0141,1524,2019-08-07 16:16:08:519
5.0108,-8.3476,1.5118,-0.1428,-0.0432,0.0057,0.0154,0.0132,0.0045,1529,2019-08-07 16:16:08:524
5.0013,-8.3094,1.4364,-0.1428,-0.0432,0.0057,0.0154,0.0132,0.0045,1534,2019-08-07 16:16:08:529
5.0013,-8.3094,1.4364,-0.1428,-0.0432,0.0057,0.0069,0.011,-0.005,1539,2019-08-07 16:16:08:534
5.0013,-8.3094,1.4364,-0.1428,-0.0432,0.0057,0.0069,0.011,-0.005,1543,2019-08-07 16:16:08:538
4.9869,-8.3524,1.4647,-0.094,7.0E-4,-0.0626,0.0058,0.0142,-0.0125,1549,2019-08-07 16:16:08:544
4.9869,-8.3524,1.4647,-0.094,7.0E-4,-0.0626,0.0058,0.0142,-0.0125,1554,2019-08-07 16:16:08:549
4.9678,-8.3142,1.4458,-0.094,7.0E-4,-0.0626,0.0058,0.0217,-0.0189,1559,2019-08-07 16:16:08:554
4.9678,-8.3142,1.4458,-0.094,7.0E-4,-0.0626,0.0058,0.0217,-0.0189,1564,2019-08-07 16:16:08:559
4.9678,-8.3142,1.4458,-0.0817,-0.1117,-0.036,-0.0059,0.0217,-0.0125,1570,2019-08-07 16:16:08:565
4.9295,-8.2808,1.4694,-0.0817,-0.1117,-0.036,-0.0059,0.0217,-0.0125,1574,2019-08-07 16:16:08:569
4.9295,-8.2808,1.4694,-0.0231,-0.1443,-0.0542,-0.0059,0.0217,-0.0125,1579,2019-08-07 16:16:08:574
4.9822,-8.2426,1.4788,-0.0231,-0.1443,-0.0542,-0.0101,0.0132,-0.0093,1585,2019-08-07 16:16:08:580
4.9822,-8.2426,1.4788,-0.0231,-0.1443,-0.0542,-0.0101,0.0132,-0.0093,1589,2019-08-07 16:16:08:584
4.9822,-8.2426,1.4788,-0.0231,-0.1443,-0.0542,-0.0112,0.0036,-0.0072,1595,2019-08-07 16:16:08:590
5.03,-8.3094,1.3987,-0.1361,-0.0718,0.0298,-0.0112,0.0036,-0.0072,1600,2019-08-07 16:16:08:595
5.03,-8.3094,1.3987,-0.1361,-0.0718,0.0298,-0.008,0.0068,0.0024,1603,2019-08-07 16:16:08:598
5.03,-8.3094,1.3987,-0.1361,-0.0718,0.0298,-0.008,0.0068,0.0024,1609,2019-08-07 16:16:08:604
5.0874,-8.4288,1.3846,-0.1361,-0.0718,0.0298,-0.0048,0.0249,3.0E-4,1615,2019-08-07 16:16:08:610
5.0874,-8.4288,1.3846,-0.1116,1.0E-4,0.0389,-0.0048,0.0249,3.0E-4,1619,2019-08-07 16:16:08:614
5.0157,-8.4144,1.3893,-0.1116,1.0E-4,0.0389,-0.0048,0.0249,3.0E-4,1624,2019-08-07 16:16:08:619
5.0157,-8.4144,1.3893,-0.1116,1.0E-4,0.0389,0.0133,0.0515,-0.0104,1629,2019-08-07 16:16:08:624
5.0157,-8.4144,1.3893,-0.1116,1.0E-4,0.0389,0.0133,0.0515,-0.0104,1635,2019-08-07 16:16:08:630
4.8339,-8.4144,1.4176,0.061,-0.0032,-0.0058,0.0154,0.0643,-0.0178,1639,2019-08-07 16:16:08:634
4.8339,-8.4144,1.4176,0.061,-0.0032,-0.0058,0.0154,0.0643,-0.0178,1644,2019-08-07 16:16:08:639
4.8052,-8.4097,1.4458,0.061,-0.0032,-0.0058,0.009,0.0611,-0.0189,1649,2019-08-07 16:16:08:644
4.8052,-8.4097,1.4458,0.061,-0.0032,-0.0058,0.009,0.0611,-0.0189,1654,2019-08-07 16:16:08:649
4.8052,-8.4097,1.4458,0.061,-0.0032,-0.0058,0.009,0.0611,-0.0189,1658,2019-08-07 16:16:08:653
4.8148,-8.4192,1.5024,0.1247,0.0276,-0.064,0.008,0.0355,-0.0317,1665,2019-08-07 16:16:08:660
4.8148,-8.4192,1.5024,0.1247,0.0276,-0.064,0.008,0.0355,-0.0317,1669,2019-08-07 16:16:08:664
4.8148,-8.4192,1.5024,0.1247,0.0276,-0.064,0.0016,0.0057,-0.0402,1674,2019-08-07 16:16:08:669
4.8052,-8.3763,1.526,0.1247,0.0276,-0.064,0.0016,0.0057,-0.0402,1678,2019-08-07 16:16:08:673
4.8052,-8.3763,1.526,0.0629,0.0073,-0.0656,0.0016,-0.0103,-0.0445,1684,2019-08-07 16:16:08:679
4.92,-8.4861,1.4176,0.0629,0.0073,-0.0656,0.0016,-0.0103,-0.0445,1689,2019-08-07 16:16:08:684
4.92,-8.4861,1.4176,0.0629,0.0073,-0.0656,0.0026,-0.0156,-0.0498,1694,2019-08-07 16:16:08:689
4.92,-8.4861,1.4176,-0.0915,0.0598,-0.0189,0.0026,-0.0156,-0.0498,1699,2019-08-07 16:16:08:694
5.0397,-8.5099,1.4129,-0.0915,0.0598,-0.0189,0.008,-0.0039,-0.0487,1704,2019-08-07 16:16:08:699
5.0397,-8.5099,1.4129,-0.0915,0.0598,-0.0189,0.008,-0.0039,-0.0487,1709,2019-08-07 16:16:08:704
5.0349,-8.5768,1.427,-0.0915,0.0598,-0.0189,0.0197,0.011,-0.0455,1715,2019-08-07 16:16:08:710
5.0349,-8.5768,1.427,-0.1313,0.2655,-0.0213,0.0197,0.011,-0.0455,1719,2019-08-07 16:16:08:714
5.0349,-8.5768,1.427,-0.1313,0.2655,-0.0213,0.0197,0.011,-0.0455,1724,2019-08-07 16:16:08:719
5.0349,-8.6245,1.4223,-0.1313,0.2655,-0.0213,0.0208,0.027,-0.0455,1730,2019-08-07 16:16:08:725
5.0349,-8.6245,1.4223,-0.1313,0.2655,-0.0213,0.0208,0.027,-0.0455,1734,2019-08-07 16:16:08:729
5.0349,-8.6245,1.4223,-0.1313,0.2655,-0.0213,0.0229,0.0366,-0.0285,1738,2019-08-07 16:16:08:733
5.0062,-8.6245,1.3799,-0.0829,0.2649,0.0741,0.0229,0.0366,-0.0285,1744,2019-08-07 16:16:08:739
5.0062,-8.6245,1.3799,-0.0829,0.2649,0.0741,0.0293,0.06,-0.0274,1748,2019-08-07 16:16:08:743
4.9057,-8.7534,1.4553,-0.0829,0.2649,0.0741,0.0293,0.06,-0.0274,1754,2019-08-07 16:16:08:749
4.9057,-8.7534,1.4553,-0.0829,0.2649,0.0741,0.0399,0.0771,-0.0285,1760,2019-08-07 16:16:08:755
4.9057,-8.7534,1.4553,0.1527,0.3963,0.0469,0.0399,0.0771,-0.0285,1764,2019-08-07 16:16:08:759
4.6617,-8.7868,1.4223,0.1527,0.3963,0.0469,0.0399,0.0771,-0.0285,1768,2019-08-07 16:16:08:763
4.6617,-8.7868,1.4223,0.1527,0.3963,0.0469,0.0453,0.092,-0.0189,1774,2019-08-07 16:16:08:769
4.6617,-8.7868,1.4223,0.1527,0.3963,0.0469,0.0453,0.092,-0.0189,1779,2019-08-07 16:16:08:774
4.4799,-8.8823,1.3563,0.4751,0.5931,0.1008,0.0527,0.0994,-0.0178,1783,2019-08-07 16:16:08:778
4.4799,-8.8823,1.3563,0.4751,0.5931,0.1008,0.0527,0.0994,-0.0178,1789,2019-08-07 16:16:08:784
4.2742,-9.0446,1.427,0.4751,0.5931,0.1008,0.0655,0.0899,-0.0306,1793,2019-08-07 16:16:08:788
4.2742,-9.0446,1.427,0.4751,0.5931,0.1008,0.0655,0.0899,-0.0306,1799,2019-08-07 16:16:08:794
4.2742,-9.0446,1.427,0.8299,0.9093,-0.0262,0.0793,0.0526,-0.0434,1804,2019-08-07 16:16:08:799
3.9489,-9.4313,1.5307,0.8299,0.9093,-0.0262,0.0793,0.0526,-0.0434,1809,2019-08-07 16:16:08:804
3.9489,-9.4313,1.5307,1.0244,1.2155,-0.0739,0.09,0.0174,-0.0466,1814,2019-08-07 16:16:08:809
3.8054,-9.8466,1.526,1.0244,1.2155,-0.0739,0.09,0.0174,-0.0466,1819,2019-08-07 16:16:08:814
3.8054,-9.8466,1.526,1.0244,1.2155,-0.0739,0.1273,-0.0316,-0.0434,1824,2019-08-07 16:16:08:819
3.7049,-10.324,1.4411,1.0244,1.2155,-0.0739,0.1273,-0.0316,-0.0434,1829,2019-08-07 16:16:08:824
3.7049,-10.324,1.4411,1.284,2.0805,0.1267,0.1273,-0.0316,-0.0434,1834,2019-08-07 16:16:08:829
3.7049,-10.324,1.4411,1.284,2.0805,0.1267,0.188,-0.0508,-0.0295,1839,2019-08-07 16:16:08:834
3.3509,-10.9971,1.361,1.284,2.0805,0.1267,0.188,-0.0508,-0.0295,1844,2019-08-07 16:16:08:839
3.3509,-10.9971,1.361,1.284,2.0805,0.1267,0.2551,-0.054,0.0088,1849,2019-08-07 16:16:08:844
2.9203,-11.8946,1.4647,1.8939,3.2959,0.0748,0.2551,-0.054,0.0088,1854,2019-08-07 16:16:08:849
2.9203,-11.8946,1.4647,1.8939,3.2959,0.0748,0.368,-0.0412,0.0631,1859,2019-08-07 16:16:08:854
2.9203,-11.8946,1.4647,1.8939,3.2959,0.0748,0.368,-0.0412,0.0631,1863,2019-08-07 16:16:08:858
2.3127,-12.9878,1.3422,1.8939,3.2959,0.0748,0.5566,0.0078,0.1516,1869,2019-08-07 16:16:08:864
2.3127,-12.9878,1.3422,2.9339,5.0583,0.2538,0.5566,0.0078,0.1516,1874,2019-08-07 16:16:08:869
1.6286,-13.9616,1.328,2.9339,5.0583,0.2538,0.7398,0.0962,0.2325,1880,2019-08-07 16:16:08:875
1.6286,-13.9616,1.328,2.9339,5.0583,0.2538,0.7398,0.0962,0.2325,1884,2019-08-07 16:16:08:879
0.4565,-15.2076,1.3752,2.9339,5.0583,0.2538,0.9529,0.2294,0.3135,1889,2019-08-07 16:16:08:884
0.4565,-15.2076,1.3752,4.6342,7.1577,0.5231,0.9529,0.2294,0.3135,1894,2019-08-07 16:16:08:889
0.4565,-15.2076,1.3752,4.6342,7.1577,0.5231,0.9529,0.2294,0.3135,1899,2019-08-07 16:16:08:894
-1.0123,-16.7209,0.6964,4.6342,7.1577,0.5231,1.1968,0.516,0.42,1904,2019-08-07 16:16:08:899
-1.0123,-16.7209,0.6964,4.6342,7.1577,0.5231,1.1968,0.516,0.42,1909,2019-08-07 16:16:08:904
-2.3471,-18.0289,-0.3784,7.0107,9.6314,2.3701,1.33,0.8228,0.5159,1915,2019-08-07 16:16:08:910
-2.3471,-18.0289,-0.3784,7.0107,9.6314,2.3701,1.33,0.8228,0.5159,1918,2019-08-07 16:16:08:913
-2.3471,-18.0289,-0.3784,7.0107,9.6314,2.3701,1.33,0.8228,0.5159,1924,2019-08-07 16:16:08:919
-3.0025,-19.6616,-1.01,7.0107,9.6314,2.3701,1.4194,1.1178,0.5627,1929,2019-08-07 16:16:08:924
-3.0025,-19.6616,-1.01,7.5334,12.7336,3.0341,1.4194,1.1178,0.5627,1934,2019-08-07 16:16:08:929
-3.0025,-19.6616,-1.01,7.5334,12.7336,3.0341,1.7582,1.5077,0.5095,1939,2019-08-07 16:16:08:934
-2.7872,-22.502,-1.0572,7.5334,12.7336,3.0341,1.7582,1.5077,0.5095,1944,2019-08-07 16:16:08:939
-2.7872,-22.502,-1.0572,7.5334,12.7336,3.0341,2.0107,1.8891,0.4157,1949,2019-08-07 16:16:08:944
-2.7872,-22.502,-1.0572,7.2873,16.47,6.2181,2.0107,1.8891,0.4157,1954,2019-08-07 16:16:08:949
-3.146,-25.4474,-4.0598,7.2873,16.47,6.2181,2.0107,1.8891,0.4157,1959,2019-08-07 16:16:08:954
-3.146,-25.4474,-4.0598,7.2873,16.47,6.2181,2.0874,2.9437,0.338,1964,2019-08-07 16:16:08:959
-3.7727,-29.3047,-7.5811,7.2873,16.47,6.2181,2.0874,2.9437,0.338,1968,2019-08-07 16:16:08:963
-3.7727,-29.3047,-7.5811,7.2873,16.47,6.2181,2.0874,2.9437,0.338,1974,2019-08-07 16:16:08:969
-3.7727,-29.3047,-7.5811,8.5822,22.0879,12.0016,1.8807,4.7099,0.1345,1979,2019-08-07 16:16:08:974
-5.562,-31.2381,-10.1501,8.5822,22.0879,12.0016,1.8807,4.7099,0.1345,1983,2019-08-07 16:16:08:978
-5.562,-31.2381,-10.1501,8.5822,22.0879,12.0016,1.6293,6.3536,-0.2479,1989,2019-08-07 16:16:08:984
-9.7865,-32.2215,-12.3043,13.7936,23.6799,15.7029,1.7241,7.6969,-0.6016,1994,2019-08-07 16:16:08:989
-9.7865,-32.2215,-12.3043,13.7936,23.6799,15.7029,1.7241,7.6969,-0.6016,1999,2019-08-07 16:16:08:994
-9.7865,-32.2215,-12.3043,13.7936,23.6799,15.7029,1.7241,7.6969,-0.6016,2004,2019-08-07 16:16:08:999
-7.1504,-27.7341,-2.2356,13.7936,23.6799,15.7029,2.9758,9.0029,-1.6903,2009,2019-08-07 16:16:09:004
-7.1504,-27.7341,-2.2356,6.7155,16.7794,3.7931,2.9758,9.0029,-1.6903,2014,2019-08-07 16:16:09:009
-7.1504,-27.7341,-2.2356,6.7155,16.7794,3.7931,5.2725,7.3635,-3.1465,2019,2019-08-07 16:16:09:014
-1.0696,-22.4018,1.7711,6.7155,16.7794,3.7931,5.2725,7.3635,-3.1465,2024,2019-08-07 16:16:09:019
-1.0696,-22.4018,1.7711,2.9363,14.0813,3.5782,5.2725,7.3635,-3.1465,2029,2019-08-07 16:16:09:024
3.6668,-18.9503,4.3355,2.9363,14.0813,3.5782,7.0099,5.4428,-4.0328,2034,2019-08-07 16:16:09:029
3.6668,-18.9503,4.3355,2.9363,14.0813,3.5782,7.0099,5.4428,-4.0328,2038,2019-08-07 16:16:09:033
3.6668,-18.9503,4.3355,-1.7907,7.0971,21.222,9.1991,7.7342,-4.8957,2044,2019-08-07 16:16:09:039
5.2312,-11.9423,-14.7555,-1.7907,7.0971,21.222,9.1991,7.7342,-4.8957,2049,2019-08-07 16:16:09:044
5.2312,-11.9423,-14.7555,-1.7907,7.0971,21.222,10.1237,11.4466,-5.391,2054,2019-08-07 16:16:09:049
0.7293,1.6058,-12.9548,-1.7907,7.0971,21.222,10.1237,11.4466,-5.391,2059,2019-08-07 16:16:09:054
0.7293,1.6058,-12.9548,5.7162,-15.2503,19.3916,11.2124,13.4152,-5.0672,2064,2019-08-07 16:16:09:059
0.7293,1.6058,-12.9548,5.7162,-15.2503,19.3916,11.2124,13.4152,-5.0672,2069,2019-08-07 16:16:09:064
-9.5473,52.3897,15.2149,5.7162,-15.2503,19.3916,11.2124,13.4152,-5.0672,2074,2019-08-07 16:16:09:069
-9.5473,52.3897,15.2149,5.7162,-15.2503,19.3916,13.7264,12.9849,-2.6203,2079,2019-08-07 16:16:09:074
-8.6,100.4334,-9.8012,8.0138,-102.5793,19.3557,9.1469,6.4995,-2.0258,2084,2019-08-07 16:16:09:079
-8.6,100.4334,-9.8012,8.0138,-102.5793,19.3557,9.1469,6.4995,-2.0258,2089,2019-08-07 16:16:09:084
-8.6,100.4334,-9.8012,8.0138,-102.5793,19.3557,9.1469,6.4995,-2.0258,2093,2019-08-07 16:16:09:088
-14.1066,64.9591,10.091,8.0138,-102.5793,19.3557,9.7743,4.2071,-3.6578,2099,2019-08-07 16:16:09:094
-14.1066,64.9591,10.091,8.0138,-102.5793,19.3557,9.7743,4.2071,-3.6578,2104,2019-08-07 16:16:09:099
-14.1066,64.9591,10.091,12.4355,-53.9266,-8.1056,3.2016,-12.0478,-2.5542,2108,2019-08-07 16:16:09:103
-17.1446,49.8739,12.891,12.4355,-53.9266,-8.1056,3.2016,-12.0478,-2.5542,2114,2019-08-07 16:16:09:109
-17.1446,49.8739,12.891,12.4355,-53.9266,-8.1056,-2.1076,-5.8202,0.8504,2119,2019-08-07 16:16:09:114
-17.1446,49.8739,12.891,12.4355,-53.9266,-8.1056,-2.1076,-5.8202,0.8504,2124,2019-08-07 16:16:09:119
8.1975,26.2626,-13.742,-7.2956,-26.5681,23.5057,-2.1076,-5.8202,0.8504,2129,2019-08-07 16:16:09:124
8.1975,26.2626,-13.742,-7.2956,-26.5681,23.5057,-4.5013,-5.4176,2.771,2134,2019-08-07 16:16:09:129
6.5039,26.6254,5.0944,-7.2956,-26.5681,23.5057,-4.5013,-5.4176,2.771,2139,2019-08-07 16:16:09:134
6.5039,26.6254,5.0944,-7.2956,-26.5681,23.5057,-6.9599,-10.2624,5.0518,2144,2019-08-07 16:16:09:139
14.6084,19.6986,-7.1756,-5.8598,-25.8116,17.3145,-6.9599,-10.2624,5.0518,2149,2019-08-07 16:16:09:144
14.6084,19.6986,-7.1756,-5.8598,-25.8116,17.3145,-6.7778,-3.4703,5.8528,2154,2019-08-07 16:16:09:149
14.6084,19.6986,-7.1756,-5.8598,-25.8116,17.3145,-6.7778,-3.4703,5.8528,2159,2019-08-07 16:16:09:154
21.4547,18.2043,26.4998,-5.8598,-25.8116,17.3145,-5.0606,-1.6849,4.7013,2164,2019-08-07 16:16:09:159
21.4547,18.2043,26.4998,-15.2551,-20.7941,-7.7401,-5.0606,-1.6849,4.7013,2169,2019-08-07 16:16:09:164
21.4547,18.2043,26.4998,-15.2551,-20.7941,-7.7401,-5.0606,-1.6849,4.7013,2174,2019-08-07 16:16:09:169
5.4753,19.985,2.2473,-15.2551,-20.7941,-7.7401,-4.2105,-1.2833,3.7383,2179,2019-08-07 16:16:09:174
5.4753,19.985,2.2473,1.611,-23.7062,8.8782,-4.2105,-1.2833,3.7383,2184,2019-08-07 16:16:09:179
5.4753,19.985,2.2473,1.611,-23.7062,8.8782,-4.6504,-0.0529,3.2866,2189,2019-08-07 16:16:09:184
-0.2083,17.8702,-2.2167,1.611,-23.7062,8.8782,-4.6504,-0.0529,3.2866,2194,2019-08-07 16:16:09:189
-0.2083,17.8702,-2.2167,1.611,-23.7062,8.8782,-5.4291,-0.4779,3.1982,2199,2019-08-07 16:16:09:194
-0.792,10.5042,-3.777,1.611,-23.7062,8.8782,-5.4291,-0.4779,3.1982,2204,2019-08-07 16:16:09:199
-0.792,10.5042,-3.777,3.2477,-13.7292,10.9923,-6.1216,-1.1214,3.0011,2209,2019-08-07 16:16:09:204
-0.2705,4.5703,1.3752,3.2477,-13.7292,10.9923,-6.1216,-1.1214,3.0011,2215,2019-08-07 16:16:09:210
-0.2705,4.5703,1.3752,3.2477,-13.7292,10.9923,-6.1216,-1.1214,3.0011,2219,2019-08-07 16:16:09:214
-0.2705,4.5703,1.3752,3.2477,-13.7292,10.9923,-7.0441,-3.7611,2.2203,2224,2019-08-07 16:16:09:219
-0.8214,-0.9434,11.3495,3.5271,-4.9748,-4.0084,-7.0441,-3.7611,2.2203,2229,2019-08-07 16:16:09:224
-0.8214,-0.9434,11.3495,3.5271,-4.9748,-4.0084,-6.374,-5.6807,1.6578,2234,2019-08-07 16:16:09:229
-0.8214,-0.9434,11.3495,3.5271,-4.9748,-4.0084,-6.374,-5.6807,1.6578,2239,2019-08-07 16:16:09:234
-3.3475,-7.3642,2.8128,3.5271,-4.9748,-4.0084,-6.374,-5.6807,1.6578,2244,2019-08-07 16:16:09:239
-3.3475,-7.3642,2.8128,6.6118,3.2739,5.2368,-5.5207,-6.8695,1.3383,2249,2019-08-07 16:16:09:244
-2.0031,-14.0714,0.3145,6.6118,3.2739,5.2368,-5.5207,-6.8695,1.3383,2254,2019-08-07 16:16:09:249
-2.0031,-14.0714,0.3145,6.6118,3.2739,5.2368,-5.2033,-7.1497,1.1998,2259,2019-08-07 16:16:09:254
-2.0031,-14.0714,0.3145,6.6118,3.2739,5.2368,-5.2033,-7.1497,1.1998,2264,2019-08-07 16:16:09:259
2.0252,-37.3056,-0.9394,1.8649,29.7392,5.8234,-5.2033,-7.1497,1.1998,2269,2019-08-07 16:16:09:264
2.0252,-37.3056,-0.9394,1.8649,29.7392,5.8234,-4.6664,-6.8482,0.7833,2274,2019-08-07 16:16:09:269
5.7856,-43.163,-2.2074,1.8649,29.7392,5.8234,-4.742,-6.3486,0.4818,2280,2019-08-07 16:16:09:275
5.7856,-43.163,-2.2074,1.8649,29.7392,5.8234,-4.742,-6.3486,0.4818,2284,2019-08-07 16:16:09:279
5.7856,-43.163,-2.2074,0.4215,15.4781,-1.7176,-4.742,-6.3486,0.4818,2289,2019-08-07 16:16:09:284
3.5514,-19.2796,6.3858,0.4215,15.4781,-1.7176,-3.1846,-5.4772,0.1878,2294,2019-08-07 16:16:09:289
3.5514,-19.2796,6.3858,0.4215,15.4781,-1.7176,-3.1846,-5.4772,0.1878,2299,2019-08-07 16:16:09:294
3.5514,-19.2796,6.3858,0.4215,15.4781,-1.7176,0.0058,-3.7366,0.0642,2303,2019-08-07 16:16:09:298
1.5324,-16.0621,1.8936,3.2218,9.7674,3.1056,0.0058,-3.7366,0.0642,2309,2019-08-07 16:16:09:304
1.5324,-16.0621,1.8936,3.2218,9.7674,3.1056,0.8016,-2.4742,0.1579,2313,2019-08-07 16:16:09:308
4.3982,-25.3853,-7.3879,3.2218,9.7674,3.1056,0.8016,-2.4742,0.1579,2319,2019-08-07 16:16:09:314
4.3982,-25.3853,-7.3879,3.2218,9.7674,3.1056,-1.2938,-2.3762,-0.0988,2324,2019-08-07 16:16:09:319
-0.0751,-22.5067,-14.2654,4.7837,14.3004,16.8578,-1.2938,-2.3762,-0.0988,2329,2019-08-07 16:16:09:324
-0.0751,-22.5067,-14.2654,4.7837,14.3004,16.8578,-1.2938,-2.3762,-0.0988,2334,2019-08-07 16:16:09:329
-0.0751,-22.5067,-14.2654,4.7837,14.3004,16.8578,-3.599,-0.1232,0.0163,2339,2019-08-07 16:16:09:334
-2.448,-21.0412,4.1515,4.7837,14.3004,16.8578,-3.599,-0.1232,0.0163,2344,2019-08-07 16:16:09:339
-2.448,-21.0412,4.1515,8.5682,13.6857,2.0316,-2.8587,-0.1562,0.2538,2349,2019-08-07 16:16:09:344
-2.448,-21.0412,4.1515,8.5682,13.6857,2.0316,-2.8587,-0.1562,0.2538,2354,2019-08-07 16:16:09:349
-5.1751,-22.9602,-2.3206,8.5682,13.6857,2.0316,-1.5409,0.4052,0.5159,2358,2019-08-07 16:16:09:353
-5.1751,-22.9602,-2.3206,8.5682,13.6857,2.0316,-1.5409,0.4052,0.5159,2364,2019-08-07 16:16:09:359
-4.9789,-20.3346,3.5481,9.5336,11.8223,-1.8072,-1.5409,0.4052,0.5159,2369,2019-08-07 16:16:09:364
-4.9789,-20.3346,3.5481,9.5336,11.8223,-1.8072,0.3872,0.7972,0.3145,2374,2019-08-07 16:16:09:369
-4.9789,-20.3346,3.5481,9.5336,11.8223,-1.8072,0.3872,0.7972,0.3145,2380,2019-08-07 16:16:09:375
-4.7636,-16.3915,4.802,9.5336,11.8223,-1.8072,1.6634,-0.0955,0.0301,2384,2019-08-07 16:16:09:379
-4.7636,-16.3915,4.802,9.2828,6.8926,2.9111,1.6634,-0.0955,0.0301,2389,2019-08-07 16:16:09:384
-4.7636,-16.3915,4.802,9.2828,6.8926,2.9111,1.7433,-1.2534,-0.1403,2394,2019-08-07 16:16:09:389
-5.6583,-11.9136,-6.0492,9.2828,6.8926,2.9111,1.7433,-1.2534,-0.1403,2399,2019-08-07 16:16:09:394
-5.6583,-11.9136,-6.0492,9.2828,6.8926,2.9111,0.2423,-0.4992,-0.1126,2404,2019-08-07 16:16:09:399
-2.4241,-9.078,-1.3731,9.2828,6.8926,2.9111,0.2423,-0.4992,-0.1126,2409,2019-08-07 16:16:09:404
-2.4241,-9.078,-1.3731,6.3734,0.2532,2.2454,-0.7239,-1.6263,-0.0967,2415,2019-08-07 16:16:09:410
-2.4241,-9.078,-1.3731,6.3734,0.2532,2.2454,-0.7239,-1.6263,-0.0967,2418,2019-08-07 16:16:09:413
-0.3334,-9.3358,3.3407,6.3734,0.2532,2.2454,-0.7239,-1.6263,-0.0967,2424,2019-08-07 16:16:09:419
-0.3334,-9.3358,3.3407,6.3734,0.2532,2.2454,-0.4895,-1.9384,-0.1776,2429,2019-08-07 16:16:09:424
2.7955,-12.3385,0.338,3.0728,2.7746,0.9112,-0.4895,-1.9384,-0.1776,2434,2019-08-07 16:16:09:429
2.7955,-12.3385,0.338,3.0728,2.7746,0.9112,0.009,-1.9096,-0.3608,2439,2019-08-07 16:16:09:434
2.7955,-12.3385,0.338,3.0728,2.7746,0.9112,0.009,-1.9096,-0.3608,2444,2019-08-07 16:16:09:439
4.8623,-12.5151,-0.5152,-0.5224,3.6083,2.3486,0.1997,-1.7786,-0.5313,2449,2019-08-07 16:16:09:444
4.8623,-12.5151,-0.5152,-0.5224,3.6083,2.3486,0.1997,-1.7786,-0.5313,2454,2019-08-07 16:16:09:449
4.8623,-12.5151,-0.5152,-0.5224,3.6083,2.3486,0.1997,-1.7786,-0.5313,2459,2019-08-07 16:16:09:454
5.9913,-9.6461,-0.0956,-0.5224,3.6083,2.3486,0.3084,-1.4484,-0.6431,2465,2019-08-07 16:16:09:460
5.9913,-9.6461,-0.0956,-1.6071,0.0576,1.6996,0.3084,-1.4484,-0.6431,2469,2019-08-07 16:16:09:464
5.9913,-9.6461,-0.0956,-1.6071,0.0576,1.6996,0.3084,-1.4484,-0.6431,2474,2019-08-07 16:16:09:469
6.6133,-8.128,-0.1522,-1.6071,0.0576,1.6996,0.4085,-0.9935,-0.4983,2479,2019-08-07 16:16:09:474
6.6133,-8.128,-0.1522,-1.6071,0.0576,1.6996,0.4085,-0.9935,-0.4983,2484,2019-08-07 16:16:09:479
6.6133,-8.128,-0.1522,-1.6071,0.0576,1.6996,0.3222,-0.6462,-0.2767,2489,2019-08-07 16:16:09:484
7.4888,-6.7054,-0.5246,-2.5701,-1.6561,1.9835,0.3222,-0.6462,-0.2767,2494,2019-08-07 16:16:09:489
7.4888,-6.7054,-0.5246,-2.5701,-1.6561,1.9835,0.122,-0.332,-0.0903,2499,2019-08-07 16:16:09:494
7.4888,-6.7054,-0.5246,-2.5701,-1.6561,1.9835,0.122,-0.332,-0.0903,2504,2019-08-07 16:16:09:499
7.6371,-6.7579,0.7434,-2.5701,-1.6561,1.9835,-0.0773,-0.1211,0.11,2510,2019-08-07 16:16:09:505
7.6371,-6.7579,0.7434,-2.5833,-1.2392,0.0476,-0.0773,-0.1211,0.11,2514,2019-08-07 16:16:09:509
7.6371,-6.7579,0.7434,-2.5833,-1.2392,0.0476,-0.0773,-0.1211,0.11,2519,2019-08-07 16:16:09:514
6.9434,-7.8081,1.9549,-2.5833,-1.2392,0.0476,-0.0527,0.0366,0.2261,2523,2019-08-07 16:16:09:518
6.9434,-7.8081,1.9549,-2.5833,-1.2392,0.0476,-0.0527,0.0366,0.2261,2529,2019-08-07 16:16:09:524
6.5942,-8.2903,1.9831,-1.6784,-0.1468,-0.639,-0.0506,0.0398,0.2964,2534,2019-08-07 16:16:09:529
6.5942,-8.2903,1.9831,-1.6784,-0.1468,-0.639,-0.0506,0.0398,0.2964,2539,2019-08-07 16:16:09:534
6.5942,-8.2903,1.9831,-1.6784,-0.1468,-0.639,-0.0783,0.0558,0.3018,2544,2019-08-07 16:16:09:539
6.709,-8.338,1.903,-1.6784,-0.1468,-0.639,-0.0783,0.0558,0.3018,2550,2019-08-07 16:16:09:545
6.709,-8.338,1.903,-1.9499,-0.105,-0.3214,-0.0932,0.2326,0.2101,2554,2019-08-07 16:16:09:549
6.8094,-8.1709,1.7427,-1.9499,-0.105,-0.3214,-0.0932,0.2326,0.2101,2559,2019-08-07 16:16:09:554
6.8094,-8.1709,1.7427,-1.9499,-0.105,-0.3214,-0.1039,0.5053,0.1025,2565,2019-08-07 16:16:09:560
6.8094,-8.1709,1.7427,-1.9499,-0.105,-0.3214,-0.1039,0.5053,0.1025,2569,2019-08-07 16:16:09:564
6.2114,-7.9848,1.639,-1.349,-0.4119,-0.1939,-0.1039,0.5053,0.1025,2574,2019-08-07 16:16:09:569
6.2114,-7.9848,1.639,-1.349,-0.4119,-0.1939,-0.1241,0.8291,0.0077,2579,2019-08-07 16:16:09:574
5.2498,-7.727,1.9266,-0.3965,-0.6693,-0.4488,-0.1241,0.8291,0.0077,2584,2019-08-07 16:16:09:579
5.2498,-7.727,1.9266,-0.3965,-0.6693,-0.4488,-0.1646,1.0262,-0.0796,2589,2019-08-07 16:16:09:584
5.2498,-7.727,1.9266,-0.3965,-0.6693,-0.4488,-0.1646,1.0262,-0.0796,2594,2019-08-07 16:16:09:589
3.9245,-7.6458,2.8175,-0.3965,-0.6693,-0.4488,-0.1976,0.8441,-0.0892,2600,2019-08-07 16:16:09:595
3.9245,-7.6458,2.8175,1.2645,-0.509,-1.61,-0.1976,0.8441,-0.0892,2604,2019-08-07 16:16:09:599
3.4796,-8.0468,3.1993,1.2645,-0.509,-1.61,-0.2115,0.4542,-0.0903,2608,2019-08-07 16:16:09:603
3.4796,-8.0468,3.1993,1.2645,-0.509,-1.61,-0.2115,0.4542,-0.0903,2614,2019-08-07 16:16:09:609
4.025,-8.3094,3.0202,1.2645,-0.509,-1.61,-0.2083,-0.1381,-0.1094,2619,2019-08-07 16:16:09:614
4.025,-8.3094,3.0202,0.5475,-0.04,-1.3416,-0.2083,-0.1381,-0.1094,2624,2019-08-07 16:16:09:619
4.025,-8.3094,3.0202,0.5475,-0.04,-1.3416,-0.1689,-0.4321,-0.1201,2630,2019-08-07 16:16:09:625
5.2402,-8.3285,2.2,0.5475,-0.04,-1.3416,-0.1689,-0.4321,-0.1201,2634,2019-08-07 16:16:09:629
5.2402,-8.3285,2.2,0.5475,-0.04,-1.3416,-0.1689,-0.4321,-0.1201,2639,2019-08-07 16:16:09:634
5.2402,-8.3285,2.2,-1.0059,-0.2409,-0.3282,-0.1071,-0.4556,-0.118,2644,2019-08-07 16:16:09:639
5.9865,-8.0611,1.6343,-1.0059,-0.2409,-0.3282,-0.1071,-0.4556,-0.118,2649,2019-08-07 16:16:09:644
5.9865,-8.0611,1.6343,-1.0059,-0.2409,-0.3282,-0.0645,-0.1892,-0.0988,2654,2019-08-07 16:16:09:649
5.9865,-8.0611,1.6343,-1.0059,-0.2409,-0.3282,-0.0645,-0.1892,-0.0988,2659,2019-08-07 16:16:09:654
6.331,-7.7699,1.2054,-1.3979,-0.5854,0.2406,-0.0858,0.1133,-0.1009,2665,2019-08-07 16:16:09:660
6.331,-7.7699,1.2054,-1.3979,-0.5854,0.2406,-0.0858,0.1133,-0.1009,2669,2019-08-07 16:16:09:664
6.331,-7.7699,1.2054,-1.3979,-0.5854,0.2406,-0.0858,0.1133,-0.1009,2673,2019-08-07 16:16:09:668
5.9052,-7.8559,1.3798,-0.9907,-0.5075,0.0824,-0.1294,0.3945,-0.1116,2680,2019-08-07 16:16:09:675
5.9052,-7.8559,1.3798,-0.9907,-0.5075,0.0824,-0.1294,0.3945,-0.1116,2684,2019-08-07 16:16:09:679
5.2306,-8.0802,1.6673,-0.9907,-0.5075,0.0824,-0.2061,0.6406,-0.1116,2689,2019-08-07 16:16:09:684
5.2306,-8.0802,1.6673,-0.1134,-0.2508,-0.2637,-0.2061,0.6406,-0.1116,2694,2019-08-07 16:16:09:689
5.2306,-8.0802,1.6673,-0.1134,-0.2508,-0.2637,-0.2328,0.6555,-0.0999,2698,2019-08-07 16:16:09:693
4.8192,-8.276,1.7239,-0.1134,-0.2508,-0.2637,-0.2328,0.6555,-0.0999,2704,2019-08-07 16:16:09:699
4.8192,-8.276,1.7239,-0.1134,-0.2508,-0.2637,-0.2456,0.6076,-0.0754,2709,2019-08-07 16:16:09:704
4.7283,-8.3905,1.6673,0.1876,0.0368,-0.1556,-0.2456,0.6076,-0.0754,2715,2019-08-07 16:16:09:710
4.7283,-8.3905,1.6673,0.1876,0.0368,-0.1556,-0.2328,0.4936,-0.0604,2719,2019-08-07 16:16:09:714
4.7283,-8.3905,1.6673,0.1876,0.0368,-0.1556,-0.2328,0.4936,-0.0604,2724,2019-08-07 16:16:09:719
4.6565,-8.4096,1.6767,0.1876,0.0368,-0.1556,-0.2328,0.4936,-0.0604,2728,2019-08-07 16:16:09:723
4.6565,-8.4096,1.6767,0.3499,-0.0604,-0.2335,-0.204,0.3402,-0.0572,2734,2019-08-07 16:16:09:729
4.6565,-8.4096,1.6767,0.3499,-0.0604,-0.2335,-0.204,0.3402,-0.0572,2739,2019-08-07 16:16:09:734
4.58,-8.2282,1.606,0.3499,-0.0604,-0.2335,-0.1518,0.1026,-0.054,2743,2019-08-07 16:16:09:738
4.58,-8.2282,1.606,0.3499,-0.0604,-0.2335,-0.1518,0.1026,-0.054,2749,2019-08-07 16:16:09:744
4.8957,-8.2569,1.4693,0.0206,-0.0982,0.0335,-0.1103,-0.0838,-0.0509,2754,2019-08-07 16:16:09:749
4.8957,-8.2569,1.4693,0.0206,-0.0982,0.0335,-0.1103,-0.0838,-0.0509,2759,2019-08-07 16:16:09:754
4.8957,-8.2569,1.4693,0.0206,-0.0982,0.0335,-0.073,-0.1307,-0.0498,2765,2019-08-07 16:16:09:760
5.1158,-8.4049,1.0074,0.0206,-0.0982,0.0335,-0.073,-0.1307,-0.0498,2768,2019-08-07 16:16:09:763
5.1158,-8.4049,1.0074,-0.3726,0.1911,0.4062,-0.0485,-0.1083,-0.054,2774,2019-08-07 16:16:09:769
5.4124,-8.6388,0.9932,-0.3726,0.1911,0.4062,-0.0485,-0.1083,-0.054,2780,2019-08-07 16:16:09:775
5.4124,-8.6388,0.9932,-0.3726,0.1911,0.4062,-0.0485,-0.1083,-0.054,2783,2019-08-07 16:16:09:778
5.4124,-8.6388,0.9932,-0.3726,0.1911,0.4062,0.0133,-0.0103,-0.0828,2790,2019-08-07 16:16:09:785
5.6516,-8.7915,1.1299,-0.3726,0.1911,0.4062,0.0133,-0.0103,-0.0828,2793,2019-08-07 16:16:09:788
5.6516,-8.7915,1.1299,-0.6865,0.3997,0.275,0.074,0.1239,-0.1073,2799,2019-08-07 16:16:09:794
5.4698,-8.5624,1.1441,-0.6865,0.3997,0.275,0.074,0.1239,-0.1073,2804,2019-08-07 16:16:09:799
5.4698,-8.5624,1.1441,-0.6865,0.3997,0.275,0.122,0.2848,-0.1222,2809,2019-08-07 16:16:09:804
5.4698,-8.5624,1.1441,-0.6865,0.3997,0.275,0.122,0.2848,-0.1222,2813,2019-08-07 16:16:09:808
5.2498,-8.1471,1.1535,-0.2878,-0.1811,0.3486,0.1124,0.3455,-0.1361,2820,2019-08-07 16:16:09:815
5.2498,-8.1471,1.1535,-0.2878,-0.1811,0.3486,0.1124,0.3455,-0.1361,2824,2019-08-07 16:16:09:819
4.8383,-7.8988,1.3515,-0.2878,-0.1811,0.3486,0.1124,0.3455,-0.1361,2830,2019-08-07 16:16:09:825
4.8383,-7.8988,1.3515,0.2664,-0.4219,0.0152,0.0836,0.288,-0.1275,2834,2019-08-07 16:16:09:829
4.8383,-7.8988,1.3515,0.2664,-0.4219,0.0152,0.0836,0.288,-0.1275,2839,2019-08-07 16:16:09:834
4.5847,-7.9132,1.771,0.2664,-0.4219,0.0152,0.0623,0.1495,-0.0999,2844,2019-08-07 16:16:09:839
4.5847,-7.9132,1.771,0.2664,-0.4219,0.0152,0.0623,0.1495,-0.0999,2849,2019-08-07 16:16:09:844
4.5847,-7.9132,1.771,0.2664,-0.4219,0.0152,0.0644,-0.1413,-0.0391,2853,2019-08-07 16:16:09:848
4.7905,-8.0516,1.8276,0.196,-0.2496,-0.2583,0.0644,-0.1413,-0.0391,2859,2019-08-07 16:16:09:854
4.7905,-8.0516,1.8276,0.196,-0.2496,-0.2583,0.0644,-0.1413,-0.0391,2864,2019-08-07 16:16:09:859
5.4124,-8.2091,1.3845,0.196,-0.2496,-0.2583,0.0698,-0.2915,-0.0072,2868,2019-08-07 16:16:09:863
5.4124,-8.2091,1.3845,0.196,-0.2496,-0.2583,0.0698,-0.2915,-0.0072,2874,2019-08-07 16:16:09:869
5.4124,-8.1805,1.2289,-0.7637,-0.0698,0.2917,0.0847,-0.3618,0.0376,2879,2019-08-07 16:16:09:874
5.9387,-8.1805,1.2289,-0.7637,-0.0698,0.2917,0.0847,-0.3618,0.0376,2884,2019-08-07 16:16:09:879
5.9387,-8.1805,1.2289,-0.7637,-0.0698,0.2917,0.0964,-0.2713,0.0525,2889,2019-08-07 16:16:09:884
6.0152,-8.1137,1.0875,-0.7637,-0.0698,0.2917,0.0964,-0.2713,0.0525,2894,2019-08-07 16:16:09:889
6.0152,-8.1137,1.0875,-0.9914,-0.1975,0.4131,0.0921,-0.0635,0.0642,2898,2019-08-07 16:16:09:893
5.7569,-8.0564,1.2808,-0.9914,-0.1975,0.4131,0.0921,-0.0635,0.0642,2904,2019-08-07 16:16:09:899
5.7569,-8.0564,1.2808,-0.9914,-0.1975,0.4131,0.0666,0.0984,0.0663,2909,2019-08-07 16:16:09:904
5.7569,-8.0564,1.2808,-0.9914,-0.1975,0.4131,0.0666,0.0984,0.0663,2914,2019-08-07 16:16:09:909
5.1636,-8.0182,1.6343,-0.276,-0.2707,-0.0157,0.0666,0.0984,0.0663,2919,2019-08-07 16:16:09:914
5.1636,-8.0182,1.6343,-0.276,-0.2707,-0.0157,0.0293,0.1815,0.044,2923,2019-08-07 16:16:09:918
5.1636,-8.0182,1.6343,-0.276,-0.2707,-0.0157,0.0293,0.1815,0.044,2929,2019-08-07 16:16:09:924
4.58,-8.0325,1.903,-0.276,-0.2707,-0.0157,-0.0229,0.0654,0.0216,2933,2019-08-07 16:16:09:928
4.58,-8.0325,1.903,0.4065,-0.1688,-0.4678,-0.0229,0.0654,0.0216,2939,2019-08-07 16:16:09:934
4.5752,-8.1423,2.332,0.4065,-0.1688,-0.4678,-0.0378,-0.0817,0.0131,2943,2019-08-07 16:16:09:938
4.5752,-8.1423,2.332,0.4065,-0.1688,-0.4678,-0.0378,-0.0817,0.0131,2949,2019-08-07 16:16:09:944
4.5752,-8.1423,2.332,0.4065,-0.1688,-0.4678,-0.0251,-0.2329,0.0024,2954,2019-08-07 16:16:09:949
4.7522,-8.1518,2.2,0.2336,-0.1519,-0.6426,-0.0251,-0.2329,0.0024,2958,2019-08-07 16:16:09:953
4.7522,-8.1518,2.2,0.2336,-0.1519,-0.6426,-0.0229,-0.3426,0.0045,2964,2019-08-07 16:16:09:959
5.355,-8.1375,1.936,0.2336,-0.1519,-0.6426,-0.0229,-0.3426,0.0045,2969,2019-08-07 16:16:09:964
5.355,-8.1375,1.936,0.2336,-0.1519,-0.6426,-0.0229,-0.3426,0.0045,2974,2019-08-07 16:16:09:969
5.355,-8.1375,1.936,-0.7305,-0.1274,-0.2297,-0.0155,-0.3533,0.012,2979,2019-08-07 16:16:09:974
5.843,-8.2521,1.6532,-0.7305,-0.1274,-0.2297,-0.0155,-0.3533,0.012,2984,2019-08-07 16:16:09:979
5.843,-8.2521,1.6532,-0.7305,-0.1274,-0.2297,-0.0059,-0.2425,0.0109,2989,2019-08-07 16:16:09:984
5.843,-8.2521,1.6532,-0.7305,-0.1274,-0.2297,-0.0059,-0.2425,0.0109,2993,2019-08-07 16:16:09:988
6.0583,-8.2807,1.639,-1.0064,-0.0348,-0.1525,0.0026,-0.0987,0.0184,2999,2019-08-07 16:16:09:994
6.0583,-8.2807,1.639,-1.0064,-0.0348,-0.1525,0.0026,-0.0987,0.0184,3004,2019-08-07 16:16:09:999
5.9148,-8.3237,1.705,-1.0064,-0.0348,-0.1525,0.0133,0.0451,0.0301,3009,2019-08-07 16:16:10:004
5.9148,-8.3237,1.705,-1.0064,-0.0348,-0.1525,0.0133,0.0451,0.0301,3014,2019-08-07 16:16:10:009
5.8239,-8.2855,1.804,-0.6532,-0.0725,-0.4863,0.0101,0.1048,0.0376,3019,2019-08-07 16:16:10:014
5.8239,-8.2855,1.804,-0.6532,-0.0725,-0.4863,0.0101,0.1048,0.0376,3024,2019-08-07 16:16:10:019
5.8239,-8.2855,1.804,-0.6532,-0.0725,-0.4863,0.0101,0.1048,0.0376,3029,2019-08-07 16:16:10:024
5.2545,-8.1184,2.0821,-0.6532,-0.0725,-0.4863,0.0122,0.1761,0.0418,3034,2019-08-07 16:16:10:029
5.2545,-8.1184,2.0821,-0.1747,-0.2363,-0.6563,0.0122,0.1761,0.0418,3038,2019-08-07 16:16:10:033
5.0201,-8.0086,2.2612,-0.1747,-0.2363,-0.6563,-0.0048,0.1346,0.045,3044,2019-08-07 16:16:10:039
5.0201,-8.0086,2.2612,-0.1747,-0.2363,-0.6563,-0.0048,0.1346,0.045,3049,2019-08-07 16:16:10:044
5.0201,-8.0086,2.2612,-0.1747,-0.2363,-0.6563,-0.0208,0.0451,0.0525,3054,2019-08-07 16:16:10:049
5.1254,-8.0564,2.1764,-0.156,-0.2734,-0.6582,-0.0208,0.0451,0.0525,3058,2019-08-07 16:16:10:053
5.1254,-8.0564,2.1764,-0.156,-0.2734,-0.6582,-0.0219,-0.0305,0.0386,3064,2019-08-07 16:16:10:059
5.1254,-8.0564,2.1764,-0.156,-0.2734,-0.6582,-0.0219,-0.0305,0.0386,3069,2019-08-07 16:16:10:064
5.3119,-7.9704,2.035,-0.156,-0.2734,-0.6582,-0.0133,-0.0742,0.0312,3074,2019-08-07 16:16:10:069
5.3119,-7.9704,2.035,-0.5646,-0.2992,-0.219,-0.0133,-0.0742,0.0312,3080,2019-08-07 16:16:10:075
5.6708,-8.0086,1.6437,-0.5646,-0.2992,-0.219,-0.0133,-0.0742,0.0312,3083,2019-08-07 16:16:10:078
5.6708,-8.0086,1.6437,-0.5646,-0.2992,-0.219,-0.0197,-0.0263,0.0216,3089,2019-08-07 16:16:10:084
5.6708,-8.0086,1.6437,-0.5646,-0.2992,-0.219,-0.0197,-0.0263,0.0216,3093,2019-08-07 16:16:10:088
5.6899,-8.085,1.408,-0.6824,-0.232,0.0506,-0.0133,0.0707,0.0131,3099,2019-08-07 16:16:10:094
5.6899,-8.085,1.408,-0.6824,-0.232,0.0506,-0.0133,0.0707,0.0131,3104,2019-08-07 16:16:10:099
5.4315,-8.2091,1.3562,-0.6824,-0.232,0.0506,-0.0133,0.1612,0.0184,3109,2019-08-07 16:16:10:104
5.4315,-8.2091,1.3562,-0.6824,-0.232,0.0506,-0.0133,0.1612,0.0184,3114,2019-08-07 16:16:10:109
5.4315,-8.2091,1.3562,-0.2906,-0.0131,0.1156,-0.0187,0.2283,0.0258,3119,2019-08-07 16:16:10:114
5.1541,-8.3189,1.5212,-0.2906,-0.0131,0.1156,-0.0187,0.2283,0.0258,3124,2019-08-07 16:16:10:119
5.1541,-8.3189,1.5212,-0.2906,-0.0131,0.1156,-0.0165,0.2124,0.0184,3129,2019-08-07 16:16:10:124
4.9483,-8.276,1.5589,-0.2906,-0.0131,0.1156,-0.0165,0.2124,0.0184,3134,2019-08-07 16:16:10:129
4.9483,-8.276,1.5589,0.044,-0.0012,0.0169,-0.0048,0.174,0.0163,3140,2019-08-07 16:16:10:135
4.9483,-8.276,1.5589,0.044,-0.0012,0.0169,-0.0048,0.174,0.0163,3145,2019-08-07 16:16:10:140
4.8766,-8.2807,1.5353,0.044,-0.0012,0.0169,-0.0048,0.174,0.0163,3149,2019-08-07 16:16:10:144
4.8766,-8.2807,1.5353,0.044,-0.0012,0.0169,-0.008,0.092,0.0067,3154,2019-08-07 16:16:10:149
4.7617,-8.0802,1.5966,0.2055,-0.2318,-0.0242,-0.008,0.092,0.0067,3159,2019-08-07 16:16:10:154
4.7617,-8.0802,1.5966,0.2055,-0.2318,-0.0242,-6.0E-4,0.0355,0.0131,3164,2019-08-07 16:16:10:159
4.7617,-8.0802,1.5966,0.2055,-0.2318,-0.0242,-6.0E-4,0.0355,0.0131,3169,2019-08-07 16:16:10:164
4.8957,-7.9991,1.6249,0.2055,-0.2318,-0.0242,5.0E-4,-0.0231,0.0141,3175,2019-08-07 16:16:10:170
4.8957,-7.9991,1.6249,-0.0687,-0.3138,-0.0285,5.0E-4,-0.0231,0.0141,3179,2019-08-07 16:16:10:174
4.8957,-7.9991,1.6249,-0.0687,-0.3138,-0.0285,-0.0091,-0.0944,0.0045,3184,2019-08-07 16:16:10:179
5.1349,-7.9895,1.5117,-0.0687,-0.3138,-0.0285,-0.0091,-0.0944,0.0045,3189,2019-08-07 16:16:10:184
5.1349,-7.9895,1.5117,-0.0687,-0.3138,-0.0285,-0.0069,-0.0998,-0.0061,3194,2019-08-07 16:16:10:189
5.245,-8.0707,1.5495,-0.293,-0.2077,0.0878,-0.0069,-0.0998,-0.0061,3199,2019-08-07 16:16:10:194
5.245,-8.0707,1.5495,-0.293,-0.2077,0.0878,-0.0027,-0.0731,-0.0082,3203,2019-08-07 16:16:10:198
5.245,-8.0707,1.5495,-0.293,-0.2077,0.0878,-0.0027,-0.0731,-0.0082,3209,2019-08-07 16:16:10:204
5.2593,-8.1327,1.4222,-0.2853,-0.178,0.1356,-0.0027,-0.0731,-0.0082,3213,2019-08-07 16:16:10:208
5.2593,-8.1327,1.4222,-0.2853,-0.178,0.1356,-0.0069,-0.0305,-0.004,3219,2019-08-07 16:16:10:214
5.2593,-8.1327,1.4222,-0.2853,-0.178,0.1356,-0.0069,-0.0305,-0.004,3224,2019-08-07 16:16:10:219
5.2494,-8.233,1.5117,-0.2853,-0.178,0.1356,-0.0027,-0.0071,3.0E-4,3229,2019-08-07 16:16:10:224
5.2494,-8.233,1.5117,-0.2722,-0.0193,0.0425,-0.0027,-0.0071,3.0E-4,3234,2019-08-07 16:16:10:229
5.2302,-8.3284,1.5682,-0.2722,-0.0193,0.0425,0.0101,0.0217,-0.0018,3239,2019-08-07 16:16:10:234
5.2302,-8.3284,1.5682,-0.2722,-0.0193,0.0425,0.0101,0.0217,-0.0018,3244,2019-08-07 16:16:10:239
5.2302,-8.3284,1.5682,-0.2722,-0.0193,0.0425,0.0197,0.0195,-0.0114,3248,2019-08-07 16:16:10:243
5.0723,-8.2711,1.5965,-0.0936,-0.0366,-0.0381,0.0197,0.0195,-0.0114,3254,2019-08-07 16:16:10:249
5.0723,-8.2711,1.5965,-0.0936,-0.0366,-0.0381,0.0314,-0.0358,-0.0189,3258,2019-08-07 16:16:10:253
5.1345,-8.2234,1.7379,-0.0936,-0.0366,-0.0381,0.0314,-0.0358,-0.0189,3264,2019-08-07 16:16:10:259
5.1345,-8.2234,1.7379,-0.0936,-0.0366,-0.0381,0.0389,-0.0859,-0.0189,3268,2019-08-07 16:16:10:263
5.1345,-8.2234,1.7379,-0.3031,-0.1187,-0.1252,0.0389,-0.0859,-0.0189,3274,2019-08-07 16:16:10:269
5.3259,-8.1375,1.6766,-0.3031,-0.1187,-0.1252,0.0389,-0.0859,-0.0189,3279,2019-08-07 16:16:10:274
5.3259,-8.1375,1.6766,-0.3031,-0.1187,-0.1252,0.0314,-0.1104,-0.0189,3284,2019-08-07 16:16:10:279
5.3259,-8.1375,1.6766,-0.3031,-0.1187,-0.1252,0.0314,-0.1104,-0.0189,3288,2019-08-07 16:16:10:283
5.5268,-8.0802,1.6295,-0.4992,-0.2141,-0.1115,0.0176,-0.1157,-0.0104,3294,2019-08-07 16:16:10:289
5.5268,-8.0802,1.6295,-0.4992,-0.2141,-0.1115,0.0176,-0.1157,-0.0104,3299,2019-08-07 16:16:10:294
5.5412,-8.0372,1.6389,-0.4992,-0.2141,-0.1115,-6.0E-4,-0.1157,0.0045,3304,2019-08-07 16:16:10:299
5.5412,-8.0372,1.6389,-0.4992,-0.2141,-0.1115,-6.0E-4,-0.1157,0.0045,3309,2019-08-07 16:16:10:304
5.5412,-8.0372,1.6389,-0.5302,-0.1544,-0.1313,-0.0165,-0.103,0.0109,3314,2019-08-07 16:16:10:309
5.5412,-8.1852,1.6766,-0.5302,-0.1544,-0.1313,-0.0165,-0.103,0.0109,3319,2019-08-07 16:16:10:314
5.5412,-8.1852,1.6766,-0.5302,-0.1544,-0.1313,-0.0165,-0.0753,0.0141,3324,2019-08-07 16:16:10:319
5.3211,-8.2807,1.6955,-0.5302,-0.1544,-0.1313,-0.0165,-0.0753,0.0141,3329,2019-08-07 16:16:10:324
5.3211,-8.2807,1.6955,-0.308,-0.0596,-0.151,-0.0091,-0.0508,0.0205,3334,2019-08-07 16:16:10:329
5.3211,-8.2807,1.6955,-0.308,-0.0596,-0.151,-0.0091,-0.0508,0.0205,3338,2019-08-07 16:16:10:333
5.211,-8.2807,1.6484,-0.308,-0.0596,-0.151,0.009,-0.0295,0.0088,3344,2019-08-07 16:16:10:339
5.211,-8.2807,1.6484,-0.308,-0.0596,-0.151,0.009,-0.0295,0.0088,3349,2019-08-07 16:16:10:344
5.1536,-8.2473,1.7332,-0.1596,-0.036,-0.2236,0.009,-0.0295,0.0088,3354,2019-08-07 16:16:10:349
5.1536,-8.2473,1.7332,-0.1596,-0.036,-0.2236,0.0314,-0.0103,-0.0136,3358,2019-08-07 16:16:10:353
5.1536,-8.2473,1.7332,-0.1596,-0.036,-0.2236,0.0314,-0.0103,-0.0136,3364,2019-08-07 16:16:10:359
5.0866,-8.0945,1.7332,-0.1596,-0.036,-0.2236,0.0378,0.0259,-0.037,3369,2019-08-07 16:16:10:364
5.0866,-8.0945,1.7332,-0.0165,-0.2945,-0.1785,0.0378,0.0259,-0.037,3374,2019-08-07 16:16:10:369
4.9527,-7.9704,1.6531,-0.0165,-0.2945,-0.1785,0.025,0.0249,-0.0434,3379,2019-08-07 16:16:10:374
4.9527,-7.9704,1.6531,-0.0165,-0.2945,-0.1785,0.025,0.0249,-0.0434,3384,2019-08-07 16:16:10:379
4.9527,-7.9704,1.6531,-0.0165,-0.2945,-0.1785,-5.0E-4,-0.006,-0.0402,3390,2019-08-07 16:16:10:385
5.0149,-8.0515,1.7756,1.0E-4,-0.2365,-0.2283,-5.0E-4,-0.006,-0.0402,3394,2019-08-07 16:16:10:389
5.0149,-8.0515,1.7756,1.0E-4,-0.2365,-0.2283,-5.0E-4,-0.006,-0.0402,3399,2019-08-07 16:16:10:394
5.0149,-8.0515,1.7756,1.0E-4,-0.2365,-0.2283,-0.0048,-0.0753,-0.0423,3403,2019-08-07 16:16:10:398
5.0914,-8.1948,1.6766,1.0E-4,-0.2365,-0.2283,-0.0048,-0.0753,-0.0423,3408,2019-08-07 16:16:10:403
5.0914,-8.1948,1.6766,-0.2385,-0.031,-0.1024,-0.0037,-0.1147,-0.0445,3414,2019-08-07 16:16:10:409
5.3402,-8.2807,1.5776,-0.2385,-0.031,-0.1024,-0.0037,-0.1147,-0.0445,3419,2019-08-07 16:16:10:414
5.3402,-8.2807,1.5776,-0.2385,-0.031,-0.1024,0.0026,-0.1392,-0.0466,3424,2019-08-07 16:16:10:419
5.3402,-8.2807,1.5776,-0.2385,-0.031,-0.1024,0.0026,-0.1392,-0.0466,3429,2019-08-07 16:16:10:424
5.4598,-8.2139,1.5069,-0.4351,-0.0489,0.035,0.0026,-0.1392,-0.0466,3434,2019-08-07 16:16:10:429
5.4598,-8.2139,1.5069,-0.4351,-0.0489,0.035,0.0154,-0.1232,-0.037,3438,2019-08-07 16:16:10:433
5.5842,-8.1995,1.3702,-0.4351,-0.0489,0.035,0.0154,-0.1232,-0.037,3444,2019-08-07 16:16:10:439
5.5842,-8.1995,1.3702,-0.4351,-0.0489,0.035,0.0122,-0.0795,-0.0285,3449,2019-08-07 16:16:10:444
5.5842,-8.1995,1.3702,-0.5574,-0.115,0.21,0.0122,-0.0795,-0.0285,3453,2019-08-07 16:16:10:448
5.6224,-8.1661,1.4079,-0.5574,-0.115,0.21,0.0026,-0.0284,-0.0274,3459,2019-08-07 16:16:10:454
5.6224,-8.1661,1.4079,-0.5574,-0.115,0.21,0.0026,-0.0284,-0.0274,3464,2019-08-07 16:16:10:459
5.6224,-8.1661,1.4079,-0.5574,-0.115,0.21,0.0154,0.0398,-0.0264,3469,2019-08-07 16:16:10:464
5.3593,-8.2091,1.5399,-0.359,-0.077,-0.0383,0.0154,0.0398,-0.0264,3474,2019-08-07 16:16:10:469
5.3593,-8.2091,1.5399,-0.359,-0.077,-0.0383,0.0144,0.0771,-0.0253,3479,2019-08-07 16:16:10:474
5.2205,-8.1327,1.5494,-0.359,-0.077,-0.0383,0.0144,0.0771,-0.0253,3483,2019-08-07 16:16:10:478
5.2205,-8.1327,1.5494,-0.359,-0.077,-0.0383,0.0144,0.0771,-0.0253,3490,2019-08-07 16:16:10:485
5.2205,-8.1327,1.5494,-0.0115,-0.1594,-0.1751,-5.0E-4,0.0643,-0.0253,3494,2019-08-07 16:16:10:489
5.0626,-8.085,1.7191,-0.0115,-0.1594,-0.1751,-5.0E-4,0.0643,-0.0253,3499,2019-08-07 16:16:10:494
5.0626,-8.085,1.7191,-0.0115,-0.1594,-0.1751,0.0048,4.0E-4,-0.0264,3504,2019-08-07 16:16:10:499
5.0626,-8.085,1.7191,-0.0115,-0.1594,-0.1751,0.0048,4.0E-4,-0.0264,3509,2019-08-07 16:16:10:504
5.0196,-8.1231,1.6389,-0.0161,-0.099,-0.066,0.0026,-0.0731,-0.0264,3514,2019-08-07 16:16:10:509
5.0196,-8.1231,1.6389,-0.0161,-0.099,-0.066,0.0026,-0.0731,-0.0264,3518,2019-08-07 16:16:10:513
5.1918,-8.1757,1.6012,-0.0161,-0.099,-0.066,0.0058,-0.1328,-0.0285,3524,2019-08-07 16:16:10:519
5.1918,-8.1757,1.6012,-0.0161,-0.099,-0.066,0.0058,-0.1328,-0.0285,3529,2019-08-07 16:16:10:524
5.1918,-8.1757,1.6012,-0.4267,-0.1329,-0.0825,0.0186,-0.1679,-0.0253,3533,2019-08-07 16:16:10:528
5.5028,-8.1231,1.6012,-0.4267,-0.1329,-0.0825,0.0186,-0.1679,-0.0253,3539,2019-08-07 16:16:10:534
5.5028,-8.1231,1.6012,-0.4267,-0.1329,-0.0825,0.0335,-0.1413,-0.02,3544,2019-08-07 16:16:10:539
5.7133,-8.1041,1.5588,-0.4267,-0.1329,-0.0825,0.0335,-0.1413,-0.02,3549,2019-08-07 16:16:10:544
5.7133,-8.1041,1.5588,-0.4267,-0.1329,-0.0825,0.0335,-0.1413,-0.02,3554,2019-08-07 16:16:10:549
5.7133,-8.1041,1.5588,-0.6828,-0.242,-0.0213,0.0271,-0.0795,-0.0168,3558,2019-08-07 16:16:10:553
5.7755,-8.0038,1.4975,-0.6828,-0.242,-0.0213,0.0271,-0.0795,-0.0168,3564,2019-08-07 16:16:10:559
5.7755,-8.0038,1.4975,-0.6828,-0.242,-0.0213,-5.0E-4,0.0057,-0.0114,3568,2019-08-07 16:16:10:563
5.6989,-7.9608,1.6153,-0.6828,-0.242,-0.0213,-5.0E-4,0.0057,-0.0114,3574,2019-08-07 16:16:10:569
5.6989,-7.9608,1.6153,-0.5609,-0.3092,-0.1017,-0.0251,0.0526,-8.0E-4,3579,2019-08-07 16:16:10:574
5.6989,-7.9608,1.6153,-0.5609,-0.3092,-0.1017,-0.0251,0.0526,-8.0E-4,3583,2019-08-07 16:16:10:578
5.5075,-7.9799,1.7332,-0.5609,-0.3092,-0.1017,-0.0389,0.0707,0.0067,3589,2019-08-07 16:16:10:584
5.5075,-7.9799,1.7332,-0.369,-0.1892,-0.2454,-0.0389,0.0707,0.0067,3595,2019-08-07 16:16:10:590
5.3975,-8.0659,1.7379,-0.369,-0.1892,-0.2454,-0.0496,0.043,0.0141,3598,2019-08-07 16:16:10:593
5.3975,-8.0659,1.7379,-0.369,-0.1892,-0.2454,-0.0496,0.043,0.0141,3604,2019-08-07 16:16:10:599
5.3975,-8.0659,1.7379,-0.369,-0.1892,-0.2454,-0.0485,0.0227,0.0216,3609,2019-08-07 16:16:10:604
5.4166,-8.1709,1.6153,-0.369,-0.1892,-0.2454,-0.0485,0.0227,0.0216,3613,2019-08-07 16:16:10:608
5.4166,-8.1709,1.6153,-0.2945,-0.0336,-0.1737,-0.0485,0.0227,0.0216,3619,2019-08-07 16:16:10:614
5.4118,-8.1757,1.6153,-0.2945,-0.0336,-0.1737,-0.041,0.0281,0.0216,3624,2019-08-07 16:16:10:619
5.4118,-8.1757,1.6153,-0.2945,-0.0336,-0.1737,-0.041,0.0281,0.0216,3629,2019-08-07 16:16:10:624
5.4118,-8.1757,1.6153,-0.2945,-0.0336,-0.1737,-0.0229,0.0334,0.0173,3634,2019-08-07 16:16:10:629
5.3879,-8.2091,1.6389,-0.2966,-0.04,-0.133,-0.0229,0.0334,0.0173,3640,2019-08-07 16:16:10:635
5.3879,-8.2091,1.6389,-0.2966,-0.04,-0.133,-0.0112,0.0462,0.0056,3644,2019-08-07 16:16:10:639
5.3209,-8.0659,1.5682,-0.2966,-0.04,-0.133,-0.0112,0.0462,0.0056,3649,2019-08-07 16:16:10:644
5.3209,-8.0659,1.5682,-0.2966,-0.04,-0.133,-0.0101,0.0568,-0.0019,3653,2019-08-07 16:16:10:648
5.297,-8.0133,1.5729,-0.1913,-0.2398,-0.0253,-0.0101,0.0568,-0.0019,3659,2019-08-07 16:16:10:654
5.297,-8.0133,1.5729,-0.1913,-0.2398,-0.0253,-0.0357,0.0409,-0.0082,3663,2019-08-07 16:16:10:658
5.297,-8.0133,1.5729,-0.1913,-0.2398,-0.0253,-0.0357,0.0409,-0.0082,3669,2019-08-07 16:16:10:664
5.3018,-7.9799,1.6012,-0.1913,-0.2398,-0.0253,-0.0464,0.01,-0.004,3673,2019-08-07 16:16:10:668
5.3018,-7.9799,1.6012,-0.2276,-0.2246,-0.1355,-0.0464,0.01,-0.004,3679,2019-08-07 16:16:10:674
5.3018,-7.9799,1.6012,-0.2276,-0.2246,-0.1355,-0.0485,-0.0039,-0.004,3684,2019-08-07 16:16:10:679
5.4788,-8.147,1.5823,-0.2276,-0.2246,-0.1355,-0.0485,-0.0039,-0.004,3690,2019-08-07 16:16:10:685
5.4788,-8.147,1.5823,-0.2276,-0.2246,-0.1355,-0.0432,0.0121,-0.0082,3695,2019-08-07 16:16:10:690
5.4309,-8.1231,1.4598,-0.3918,-0.095,0.0876,-0.0432,0.0121,-0.0082,3699,2019-08-07 16:16:10:694
5.4309,-8.1231,1.4598,-0.3918,-0.095,0.0876,-0.0389,0.0419,-0.0019,3704,2019-08-07 16:16:10:699
5.4309,-8.1231,1.4598,-0.3918,-0.095,0.0876,-0.0389,0.0419,-0.0019,3709,2019-08-07 16:16:10:704
5.3305,-8.1661,1.5116,-0.3918,-0.095,0.0876,-0.0251,0.0568,0.0024,3714,2019-08-07 16:16:10:709
5.3305,-8.1661,1.5116,-0.209,-0.0089,-0.0416,-0.0251,0.0568,0.0024,3719,2019-08-07 16:16:10:714
5.3305,-8.1661,1.5116,-0.209,-0.0089,-0.0416,-0.0251,0.0568,0.0024,3723,2019-08-07 16:16:10:718
5.1965,-8.1852,1.5258,-0.209,-0.0089,-0.0416,-0.0048,0.0739,-0.005,3729,2019-08-07 16:16:10:724
5.1965,-8.1852,1.5258,-0.209,-0.0089,-0.0416,-0.0048,0.0739,-0.005,3734,2019-08-07 16:16:10:729
4.6798,-8.0133,1.2665,0.417,-0.2327,0.2373,-0.0037,0.027,-0.0146,3739,2019-08-07 16:16:10:734
4.6798,-8.0133,1.2665,0.417,-0.2327,0.2373,-0.1476,-0.3213,-0.0104,3744,2019-08-07 16:16:10:739
4.6798,-8.0133,1.2665,0.417,-0.2327,0.2373,-0.1476,-0.3213,-0.0104,3749,2019-08-07 16:16:10:744
4.8329,-8.2282,2.28,0.417,-0.2327,0.2373,-0.1476,-0.3213,-0.0104,3753,2019-08-07 16:16:10:748
4.8329,-8.2282,2.28,0.0233,-0.0534,-0.5942,-0.0506,-0.2681,-0.0402,3759,2019-08-07 16:16:10:754
4.8329,-8.2282,2.28,0.0233,-0.0534,-0.5942,-0.0506,-0.2681,-0.0402,3763,2019-08-07 16:16:10:758
5.2826,-8.2043,1.4786,0.0233,-0.0534,-0.5942,0.0548,-0.2947,-0.0359,3769,2019-08-07 16:16:10:764
5.2826,-8.2043,1.4786,0.0233,-0.0534,-0.5942,0.0548,-0.2947,-0.0359,3774,2019-08-07 16:16:10:769
5.9524,-8.1661,1.2571,-0.8301,-0.0752,0.1845,0.0911,-0.1637,-0.0359,3779,2019-08-07 16:16:10:774
5.9524,-8.1661,1.2571,-0.8301,-0.0752,0.1845,0.0911,-0.1637,-0.0359,3784,2019-08-07 16:16:10:779
5.9524,-8.1661,1.2571,-0.8301,-0.0752,0.1845,0.0953,0.0036,-0.0285,3789,2019-08-07 16:16:10:784
6.2155,-8.0563,1.2665,-0.8301,-0.0752,0.1845,0.0953,0.0036,-0.0285,3794,2019-08-07 16:16:10:789
6.2155,-8.0563,1.2665,-1.1335,-0.2899,0.2387,0.0953,0.0036,-0.0285,3799,2019-08-07 16:16:10:794
6.0385,-7.8797,1.1722,-1.1335,-0.2899,0.2387,0.0506,0.1879,-0.0359,3804,2019-08-07 16:16:10:799
6.0385,-7.8797,1.1722,-1.1335,-0.2899,0.2387,0.0506,0.1879,-0.0359,3808,2019-08-07 16:16:10:803
6.0385,-7.8797,1.1722,-1.1335,-0.2899,0.2387,-0.0421,0.2006,-0.0402,3814,2019-08-07 16:16:10:809
5.3543,-7.9608,1.8604,-0.1387,-0.1833,-0.5286,-0.0421,0.2006,-0.0402,3818,2019-08-07 16:16:10:813
5.3543,-7.9608,1.8604,-0.1387,-0.1833,-0.5286,-0.0634,0.1772,-0.0189,3824,2019-08-07 16:16:10:819
5.3496,-8.2902,2.148,-0.1387,-0.1833,-0.5286,-0.0634,0.1772,-0.0189,3829,2019-08-07 16:16:10:824
5.3496,-8.2902,2.148,-0.1387,-0.1833,-0.5286,-0.0378,0.0803,-0.0189,3834,2019-08-07 16:16:10:829
5.3496,-8.2902,2.148,-0.1387,-0.1833,-0.5286,-0.0378,0.0803,-0.0189,3838,2019-08-07 16:16:10:833