ACCELEROMETER X (m/s²),ACCELEROMETER Y (m/s²),ACCELEROMETER Z (m/s²),LINEAR ACCELERATION X (m/s²),LINEAR ACCELERATION Y (m/s²),LINEAR ACCELERATION Z (m/s²),GYROSCOPE X (rad/s),GYROSCOPE Y (rad/s),GYROSCOPE Z (rad/s),Time since start in ms ,YYYY-MO-DD HH-MI-SS_SSS
4.4128,-8.6016,1.5233,-0.0339,-0.0306,-0.1199,0.008,0.0185,0.0089,3,2019-08-07 16:15:07:280
4.4128,-8.6016,1.5233,-0.0339,-0.0306,-0.1199,0.008,0.0185,0.0089,9,2019-08-07 16:15:07:286
4.4703,-8.5586,1.5893,-0.0697,-0.0882,-0.1385,0.0122,-0.0082,0.0046,13,2019-08-07 16:15:07:290
4.4703,-8.5586,1.5893,-0.0697,-0.0882,-0.1385,0.0122,-0.0082,0.0046,19,2019-08-07 16:15:07:296
4.4703,-8.5586,1.5893,-0.0697,-0.0882,-0.1385,0.0133,-0.0188,0.0035,24,2019-08-07 16:15:07:301
4.6425,-8.5395,1.4856,-0.0697,-0.0882,-0.1385,0.0133,-0.0188,0.0035,29,2019-08-07 16:15:07:306
4.6425,-8.5395,1.4856,-0.2839,-0.0636,0.0277,-0.0016,-0.0124,0.0078,34,2019-08-07 16:15:07:311
4.6425,-8.5395,1.4856,-0.2839,-0.0636,0.0277,-0.0016,-0.0124,0.0078,38,2019-08-07 16:15:07:315
4.7191,-8.4965,1.3866,-0.2839,-0.0636,0.0277,-0.0112,0.0025,0.0131,44,2019-08-07 16:15:07:321
4.7191,-8.4965,1.3866,-0.2839,-0.0636,0.0277,-0.0112,0.0025,0.0131,49,2019-08-07 16:15:07:326
4.6617,-8.6254,1.4761,-0.2405,-0.0445,0.0026,-0.0112,0.0025,0.0131,54,2019-08-07 16:15:07:331
4.6617,-8.6254,1.4761,-0.2405,-0.0445,0.0026,-0.0059,0.0238,0.0121,59,2019-08-07 16:15:07:336
4.6617,-8.6254,1.4761,-0.2405,-0.0445,0.0026,-0.0059,0.0238,0.0121,63,2019-08-07 16:15:07:340
4.5325,-8.6063,1.4761,-0.2405,-0.0445,0.0026,-6.0E-4,0.0376,0.0121,69,2019-08-07 16:15:07:346
4.5325,-8.6063,1.4761,-0.0846,-0.069,-0.0379,-6.0E-4,0.0376,0.0121,74,2019-08-07 16:15:07:351
4.5325,-8.6063,1.4761,-0.0846,-0.069,-0.0379,-0.0038,0.0334,0.0078,79,2019-08-07 16:15:07:356
4.4751,-8.5252,1.528,-0.0846,-0.069,-0.0379,-0.0038,0.0334,0.0078,84,2019-08-07 16:15:07:361
4.4751,-8.5252,1.528,-0.0846,-0.069,-0.0379,-0.0038,0.0334,0.0078,89,2019-08-07 16:15:07:366
4.4751,-8.5252,1.528,-0.043,-0.1792,-0.0497,0.0016,0.0067,0.0078,94,2019-08-07 16:15:07:371
4.4464,-8.4918,1.5327,-0.043,-0.1792,-0.0497,0.0037,-0.0114,0.0025,99,2019-08-07 16:15:07:376
4.4464,-8.4918,1.5327,-0.043,-0.1792,-0.0497,0.0037,-0.0114,0.0025,104,2019-08-07 16:15:07:381
4.4799,-8.4727,1.462,-0.043,-0.1792,-0.0497,0.0037,-0.0114,0.0025,109,2019-08-07 16:15:07:386
4.4799,-8.4727,1.462,-0.1427,-0.1596,-0.0161,0.0122,-0.0146,3.0E-4,114,2019-08-07 16:15:07:391
4.4799,-8.4727,1.462,-0.1427,-0.1596,-0.0161,0.0122,-0.0146,3.0E-4,119,2019-08-07 16:15:07:396
4.566,-8.487,1.429,-0.1427,-0.1596,-0.0161,0.0197,-0.0082,-7.0E-4,124,2019-08-07 16:15:07:401
4.566,-8.487,1.429,-0.1427,-0.1596,-0.0161,0.0197,-0.0082,-7.0E-4,129,2019-08-07 16:15:07:406
4.5804,-8.5252,1.4526,-0.1789,-0.1199,0.0052,0.0175,0.0046,-0.0071,133,2019-08-07 16:15:07:410
4.5804,-8.5252,1.4526,-0.1789,-0.1199,0.0052,0.0175,0.0046,-0.0071,139,2019-08-07 16:15:07:416
4.5804,-8.5252,1.4526,-0.1789,-0.1199,0.0052,0.0111,0.0099,-0.0092,144,2019-08-07 16:15:07:421
4.5086,-8.5777,1.4337,-0.1789,-0.1199,0.0052,0.0111,0.0099,-0.0092,149,2019-08-07 16:15:07:426
4.5086,-8.5777,1.4337,-0.076,0.0058,-0.0584,0.0026,0.0089,-0.0124,153,2019-08-07 16:15:07:430
4.4752,-8.6398,1.4337,-0.076,0.0058,-0.0584,0.0026,0.0089,-0.0124,159,2019-08-07 16:15:07:436
4.4752,-8.6398,1.4337,-0.076,0.0058,-0.0584,-6.0E-4,0.0025,-0.0188,164,2019-08-07 16:15:07:441
4.4752,-8.6398,1.4337,-0.076,0.0058,-0.0584,-6.0E-4,0.0025,-0.0188,169,2019-08-07 16:15:07:446
4.4273,-8.6445,1.5044,-0.0294,-0.0209,-0.0438,0.0016,-0.0092,-0.021,173,2019-08-07 16:15:07:450
4.4273,-8.6445,1.5044,-0.0294,-0.0209,-0.0438,0.0016,-0.0092,-0.021,179,2019-08-07 16:15:07:456
4.4848,-8.635,1.4432,-0.0294,-0.0209,-0.0438,5.0E-4,-0.0242,-0.0199,184,2019-08-07 16:15:07:461
4.4848,-8.635,1.4432,-0.0294,-0.0209,-0.0438,5.0E-4,-0.0242,-0.0199,189,2019-08-07 16:15:07:466
4.4848,-8.635,1.4432,-0.1203,-0.0234,-0.1251,0.0037,-0.0242,-0.022,194,2019-08-07 16:15:07:471
4.5757,-8.5538,1.561,-0.1203,-0.0234,-0.1251,0.0037,-0.0242,-0.022,198,2019-08-07 16:15:07:475
4.5757,-8.5538,1.561,-0.1203,-0.0234,-0.1251,0.008,-0.0327,-0.0242,204,2019-08-07 16:15:07:481
4.5757,-8.5109,1.4432,-0.1203,-0.0234,-0.1251,0.008,-0.0327,-0.0242,209,2019-08-07 16:15:07:486
4.5757,-8.5109,1.4432,-0.1618,-0.1541,-0.0559,0.0026,-0.0316,-0.0231,214,2019-08-07 16:15:07:491
4.5757,-8.5109,1.4432,-0.1618,-0.1541,-0.0559,0.0026,-0.0316,-0.0231,219,2019-08-07 16:15:07:496
4.6474,-8.5395,1.528,-0.1618,-0.1541,-0.0559,0.0026,-0.0316,-0.0231,224,2019-08-07 16:15:07:501
4.6474,-8.5395,1.528,-0.1618,-0.1541,-0.0559,-0.0027,-0.0252,-0.0199,229,2019-08-07 16:15:07:506
4.7144,-8.6159,1.5233,-0.2899,-0.0178,-0.0675,-0.0027,-0.0252,-0.0199,234,2019-08-07 16:15:07:511
4.7144,-8.6159,1.5233,-0.2899,-0.0178,-0.0675,-0.0027,-7.0E-4,-0.0167,238,2019-08-07 16:15:07:515
4.7144,-8.6159,1.5233,-0.2899,-0.0178,-0.0675,-0.0027,-7.0E-4,-0.0167,244,2019-08-07 16:15:07:521
4.5948,-8.592,1.5516,-0.2899,-0.0178,-0.0675,-0.0059,0.0057,-0.005,249,2019-08-07 16:15:07:526
4.5948,-8.592,1.5516,-0.1098,-0.0162,0.0079,-0.0059,0.0057,-0.005,254,2019-08-07 16:15:07:531
4.5757,-8.6111,1.5092,-0.1098,-0.0162,0.0079,-0.0102,-0.006,0.0057,259,2019-08-07 16:15:07:536
4.5757,-8.6111,1.5092,-0.1098,-0.0162,0.0079,-0.0102,-0.006,0.0057,264,2019-08-07 16:15:07:541
4.5757,-8.6111,1.5092,-0.1098,-0.0162,0.0079,-0.0144,-0.0156,0.0099,269,2019-08-07 16:15:07:546
4.6427,-8.7114,1.4526,-0.1767,0.0692,-0.019,-0.0144,-0.0156,0.0099,274,2019-08-07 16:15:07:551
4.6427,-8.7114,1.4526,-0.1767,0.0692,-0.019,-0.008,-0.0092,0.011,279,2019-08-07 16:15:07:556
4.6427,-8.7114,1.4526,-0.1767,0.0692,-0.019,-0.008,-0.0092,0.011,283,2019-08-07 16:15:07:560
4.6236,-8.6971,1.4809,-0.1767,0.0692,-0.019,-6.0E-4,0.0078,0.0121,289,2019-08-07 16:15:07:566
4.6236,-8.6971,1.4809,-0.1767,0.0692,-0.019,-6.0E-4,0.0078,0.0121,294,2019-08-07 16:15:07:571
4.571,-8.6445,1.4008,-0.154,0.0017,0.0559,0.0026,0.027,0.0131,299,2019-08-07 16:15:07:576
4.571,-8.6445,1.4008,-0.154,0.0017,0.0559,0.0026,0.027,0.0131,304,2019-08-07 16:15:07:581
4.571,-8.6445,1.4008,-0.154,0.0017,0.0559,5.0E-4,0.0206,0.0142,309,2019-08-07 16:15:07:586
4.4848,-8.6064,1.462,-0.154,0.0017,0.0559,5.0E-4,0.0206,0.0142,314,2019-08-07 16:15:07:591
4.4848,-8.6064,1.462,-0.0225,0.0438,-0.0595,5.0E-4,0.0206,0.0142,319,2019-08-07 16:15:07:596
4.5183,-8.6111,1.528,-0.0225,0.0438,-0.0595,0.0111,0.0078,0.0121,324,2019-08-07 16:15:07:601
4.5183,-8.6111,1.528,-0.0225,0.0438,-0.0595,0.0175,0.0078,0.0089,329,2019-08-07 16:15:07:606
4.5183,-8.6111,1.528,-0.0225,0.0438,-0.0595,0.0175,0.0078,0.0089,334,2019-08-07 16:15:07:611
4.5136,-8.6111,1.4998,-0.0908,-0.0231,-0.0418,0.0175,0.0078,0.0089,338,2019-08-07 16:15:07:615
4.5136,-8.6111,1.4998,-0.0908,-0.0231,-0.0418,0.0197,-0.005,-0.0039,344,2019-08-07 16:15:07:621
4.5519,-8.487,1.5375,-0.0908,-0.0231,-0.0418,0.0197,-0.005,-0.0039,349,2019-08-07 16:15:07:626
4.5519,-8.487,1.5375,-0.0908,-0.0231,-0.0418,0.0207,-0.0305,3.0E-4,354,2019-08-07 16:15:07:631
4.5519,-8.487,1.5375,-0.1416,-0.0885,-0.0813,0.0207,-0.0305,3.0E-4,360,2019-08-07 16:15:07:637
4.6141,-8.5682,1.5705,-0.1416,-0.0885,-0.0813,0.0207,-0.022,-0.0018,365,2019-08-07 16:15:07:642
4.6141,-8.5682,1.5705,-0.1416,-0.0885,-0.0813,0.0207,-0.022,-0.0018,368,2019-08-07 16:15:07:645
4.6141,-8.5682,1.5705,-0.1416,-0.0885,-0.0813,0.0133,-0.0039,-0.0082,374,2019-08-07 16:15:07:651
4.638,-8.4966,1.4432,-0.1723,-0.1487,-0.0131,0.0133,-0.0039,-0.0082,379,2019-08-07 16:15:07:656
4.638,-8.4966,1.4432,-0.1723,-0.1487,-0.0131,0.0069,0.0046,-0.0071,384,2019-08-07 16:15:07:661
4.5567,-8.4966,1.5045,-0.1723,-0.1487,-0.0131,0.0069,0.0046,-0.0071,388,2019-08-07 16:15:07:665
4.5567,-8.4966,1.5045,-0.1723,-0.1487,-0.0131,5.0E-4,-0.0039,-0.006,394,2019-08-07 16:15:07:671
4.5567,-8.4966,1.5045,-0.1174,-0.0948,-0.0634,5.0E-4,-0.0039,-0.006,399,2019-08-07 16:15:07:676
4.461,-8.5443,1.5516,-0.1174,-0.0948,-0.0634,5.0E-4,-0.0039,-0.006,403,2019-08-07 16:15:07:680
4.461,-8.5443,1.5516,-0.1174,-0.0948,-0.0634,0.0026,3.0E-4,-0.006,409,2019-08-07 16:15:07:686
4.5519,-8.5157,1.4762,-0.1174,-0.0948,-0.0634,0.0026,3.0E-4,-0.006,414,2019-08-07 16:15:07:691
4.5519,-8.5157,1.4762,-0.1202,-0.1127,-0.0299,-0.0016,-0.0018,-0.005,419,2019-08-07 16:15:07:696
4.5519,-8.5157,1.4762,-0.1202,-0.1127,-0.0299,-0.0016,-0.0018,-0.005,424,2019-08-07 16:15:07:701
4.595,-8.5586,1.4809,-0.1202,-0.1127,-0.0299,-6.0E-4,-0.0124,-0.0114,429,2019-08-07 16:15:07:706
4.595,-8.5586,1.4809,-0.1202,-0.1127,-0.0299,-6.0E-4,-0.0124,-0.0114,433,2019-08-07 16:15:07:710
4.595,-8.5586,1.4809,-0.1411,-0.0635,-0.1058,0.0058,-0.0103,-0.0082,439,2019-08-07 16:15:07:716
4.6093,-8.5873,1.5139,-0.1411,-0.0635,-0.1058,0.0058,-0.0103,-0.0082,444,2019-08-07 16:15:07:721
4.6093,-8.5873,1.5139,-0.1411,-0.0635,-0.1058,5.0E-4,-0.006,-0.0092,448,2019-08-07 16:15:07:725
4.6189,-8.5157,1.4809,-0.1411,-0.0635,-0.1058,5.0E-4,-0.006,-0.0092,454,2019-08-07 16:15:07:731
4.6189,-8.5157,1.4809,-0.2194,-0.0764,-0.0592,-0.007,-0.0167,-0.0018,459,2019-08-07 16:15:07:736
4.6094,-8.5252,1.5563,-0.2194,-0.0764,-0.0592,-0.007,-0.0167,-0.0018,464,2019-08-07 16:15:07:741
4.6094,-8.5252,1.5563,-0.2194,-0.0764,-0.0592,-0.007,-0.0167,-0.0018,469,2019-08-07 16:15:07:746
4.6094,-8.5252,1.5563,-0.2194,-0.0764,-0.0592,-0.008,-0.0103,-0.0039,474,2019-08-07 16:15:07:751
4.6955,-8.6064,1.4903,-0.2555,-0.0183,-0.028,-0.008,-0.0103,-0.0039,478,2019-08-07 16:15:07:755
4.6955,-8.6064,1.4903,-0.2555,-0.0183,-0.028,-0.0134,0.0089,-0.0039,484,2019-08-07 16:15:07:761
4.6955,-8.6064,1.4903,-0.2555,-0.0183,-0.028,-0.0134,0.0089,-0.0039,488,2019-08-07 16:15:07:765
4.6285,-8.5586,1.4762,-0.2555,-0.0183,-0.028,-0.0229,0.0248,0.0035,494,2019-08-07 16:15:07:771
4.6285,-8.5586,1.4762,-0.2066,-0.018,-0.0767,-0.0229,0.0248,0.0035,499,2019-08-07 16:15:07:776
4.6094,-8.6493,1.5328,-0.2066,-0.018,-0.0767,-0.0229,0.0248,0.0035,503,2019-08-07 16:15:07:780
4.6094,-8.6493,1.5328,-0.2066,-0.018,-0.0767,-0.0219,0.0259,0.0089,509,2019-08-07 16:15:07:786
4.6094,-8.6493,1.5328,-0.2066,-0.018,-0.0767,-0.0219,0.0259,0.0089,514,2019-08-07 16:15:07:791
4.552,-8.5586,1.5375,-0.0786,-0.0234,-0.0678,-0.0155,0.0344,0.0067,519,2019-08-07 16:15:07:796
4.552,-8.5586,1.5375,-0.0786,-0.0234,-0.0678,-0.0155,0.0344,0.0067,523,2019-08-07 16:15:07:800
4.4754,-8.5873,1.4809,-0.0786,-0.0234,-0.0678,-0.0155,0.0302,0.0057,529,2019-08-07 16:15:07:806
4.4754,-8.5873,1.4809,-0.0786,-0.0234,-0.0678,-0.0155,0.0302,0.0057,533,2019-08-07 16:15:07:810
4.4754,-8.5873,1.4809,0.0057,-0.0816,-0.0724,-0.0155,0.0099,0.0046,539,2019-08-07 16:15:07:816
4.4133,-8.592,1.4856,0.0057,-0.0816,-0.0724,-0.0155,0.0099,0.0046,544,2019-08-07 16:15:07:821
4.4133,-8.592,1.4856,0.0057,-0.0816,-0.0724,-0.0155,-0.0018,0.0046,549,2019-08-07 16:15:07:826
4.4563,-8.6111,1.5092,0.0057,-0.0816,-0.0724,-0.0155,-0.0018,0.0046,554,2019-08-07 16:15:07:831
4.4563,-8.6111,1.5092,-0.0808,-0.0202,-0.0514,-0.0091,-0.0146,0.0035,559,2019-08-07 16:15:07:836
4.4563,-8.6111,1.5092,-0.0808,-0.0202,-0.0514,-0.0091,-0.0146,0.0035,564,2019-08-07 16:15:07:841
4.552,-8.6302,1.5516,-0.0808,-0.0202,-0.0514,-0.0091,-0.0146,0.0035,569,2019-08-07 16:15:07:846
4.552,-8.6302,1.5516,-0.0808,-0.0202,-0.0514,0.0026,-0.0167,-0.0028,574,2019-08-07 16:15:07:851
4.6286,-8.6207,1.4149,-0.1894,-0.0053,0.0416,0.0026,-0.0167,-0.0028,580,2019-08-07 16:15:07:857
4.6286,-8.6207,1.4149,-0.1894,-0.0053,0.0416,0.0111,0.0025,-0.0071,584,2019-08-07 16:15:07:861
4.6286,-8.6207,1.4149,-0.1894,-0.0053,0.0416,0.0111,0.0025,-0.0071,588,2019-08-07 16:15:07:865
4.6095,-8.5777,1.4055,-0.1894,-0.0053,0.0416,0.009,0.0259,-0.005,594,2019-08-07 16:15:07:871
4.6095,-8.5777,1.4055,-0.1637,-0.0469,0.0253,0.009,0.0259,-0.005,599,2019-08-07 16:15:07:876
4.6095,-8.5777,1.4055,-0.1637,-0.0469,0.0253,0.008,0.0366,-0.0103,604,2019-08-07 16:15:07:881
4.4946,-8.5777,1.4857,-0.1637,-0.0469,0.0253,0.008,0.0366,-0.0103,609,2019-08-07 16:15:07:886
4.4946,-8.5777,1.4857,-0.1637,-0.0469,0.0253,0.0143,0.0419,-0.0135,615,2019-08-07 16:15:07:892
4.4946,-8.5777,1.4857,-0.1637,-0.0469,0.0253,0.0143,0.0419,-0.0135,618,2019-08-07 16:15:07:895
4.4277,-8.5873,1.4809,0.0243,-0.007,-0.0019,0.0026,0.0195,-0.0124,624,2019-08-07 16:15:07:901
4.4277,-8.5873,1.4809,0.0243,-0.007,-0.0019,0.0026,0.0195,-0.0124,628,2019-08-07 16:15:07:905
4.4277,-8.5873,1.4809,0.0243,-0.007,-0.0019,-0.0059,-0.006,-0.021,634,2019-08-07 16:15:07:911
4.4468,-8.5968,1.5281,0.0243,-0.007,-0.0019,-0.0059,-0.006,-0.021,638,2019-08-07 16:15:07:915
4.4468,-8.5968,1.5281,-0.0586,-0.0244,-0.0961,-0.0038,-0.0327,-0.0231,644,2019-08-07 16:15:07:921
4.509,-8.5968,1.5517,-0.0586,-0.0244,-0.0961,-0.0038,-0.0327,-0.0231,649,2019-08-07 16:15:07:926
4.509,-8.5968,1.5517,-0.0586,-0.0244,-0.0961,-0.0016,-0.0401,-0.0242,654,2019-08-07 16:15:07:931
4.5952,-8.5825,1.5469,-0.177,-0.0219,-0.0382,-0.0016,-0.0401,-0.0242,660,2019-08-07 16:15:07:937
4.5952,-8.5825,1.5469,-0.177,-0.0219,-0.0382,-0.008,-0.0423,-0.0231,664,2019-08-07 16:15:07:941
4.5952,-8.5825,1.5469,-0.177,-0.0219,-0.0382,-0.008,-0.0423,-0.0231,669,2019-08-07 16:15:07:946
4.7052,-8.5777,1.4809,-0.177,-0.0219,-0.0382,-0.008,-0.0295,-0.0188,673,2019-08-07 16:15:07:950
4.7052,-8.5777,1.4809,-0.177,-0.0219,-0.0382,-0.008,-0.0295,-0.0188,679,2019-08-07 16:15:07:956
4.7052,-8.5586,1.481,-0.2475,-0.0576,-0.08,-0.007,-0.0092,-0.0092,684,2019-08-07 16:15:07:961
4.7052,-8.5586,1.481,-0.2475,-0.0576,-0.08,-0.007,-0.0092,-0.0092,689,2019-08-07 16:15:07:966
4.7052,-8.5586,1.481,-0.2172,-0.0044,-0.0194,-0.0016,0.0142,4.0E-4,694,2019-08-07 16:15:07:971
4.6909,-8.5682,1.4904,-0.2172,-0.0044,-0.0194,-0.0016,0.0142,4.0E-4,699,2019-08-07 16:15:07:976
4.6909,-8.5682,1.4904,-0.2172,-0.0044,-0.0194,5.0E-4,0.0302,0.0057,703,2019-08-07 16:15:07:980
4.6861,-8.6112,1.4715,-0.2172,-0.0044,-0.0194,5.0E-4,0.0302,0.0057,709,2019-08-07 16:15:07:986
4.6861,-8.6112,1.4715,-0.179,0.0294,-0.0501,0.0058,0.0515,0.0099,714,2019-08-07 16:15:07:991
4.6861,-8.6112,1.4715,-0.179,0.0294,-0.0501,0.0058,0.0515,0.0099,719,2019-08-07 16:15:07:996
4.5378,-8.6016,1.5092,-0.179,0.0294,-0.0501,0.0058,0.0515,0.0099,724,2019-08-07 16:15:08:001
4.5378,-8.6016,1.5092,-0.179,0.0294,-0.0501,0.0058,0.0504,0.0131,729,2019-08-07 16:15:08:006
4.466,-8.5921,1.5847,-0.0099,1.0E-4,-0.1006,0.0058,0.0504,0.0131,733,2019-08-07 16:15:08:010
4.466,-8.5921,1.5847,-0.0099,1.0E-4,-0.1006,0.0037,0.028,0.0057,739,2019-08-07 16:15:08:016
4.466,-8.5921,1.5847,-0.0099,1.0E-4,-0.1006,0.0037,0.028,0.0057,743,2019-08-07 16:15:08:020
4.4421,-8.5873,1.6177,-0.0099,1.0E-4,-0.1006,-6.0E-4,0.011,-7.0E-4,749,2019-08-07 16:15:08:026
4.4421,-8.5873,1.6177,-0.0119,-0.0193,-0.0826,-6.0E-4,0.011,-7.0E-4,753,2019-08-07 16:15:08:030
4.5091,-8.5586,1.5517,-0.0119,-0.0193,-0.0826,-0.008,-0.0039,-0.0092,759,2019-08-07 16:15:08:036
4.5091,-8.5586,1.5517,-0.0119,-0.0193,-0.0826,-0.008,-0.0039,-0.0092,764,2019-08-07 16:15:08:041
4.5091,-8.5586,1.5517,-0.0119,-0.0193,-0.0826,-0.0134,-0.022,-0.0167,769,2019-08-07 16:15:08:046
4.5665,-8.5682,1.5658,-0.1099,-0.0469,-0.0982,-0.0134,-0.022,-0.0167,773,2019-08-07 16:15:08:050
4.5665,-8.5682,1.5658,-0.1099,-0.0469,-0.0982,-0.0123,-0.0188,-0.0242,780,2019-08-07 16:15:08:057
4.6622,-8.5348,1.5375,-0.1099,-0.0469,-0.0982,-0.0123,-0.0188,-0.0242,784,2019-08-07 16:15:08:061
4.6622,-8.5348,1.5375,-0.1099,-0.0469,-0.0982,-0.0123,-0.0188,-0.0242,789,2019-08-07 16:15:08:066
4.6622,-8.5348,1.5375,-0.1901,-0.0445,0.0394,-0.0165,-0.0135,-0.0295,793,2019-08-07 16:15:08:070
4.6766,-8.5348,1.4008,-0.1901,-0.0445,0.0394,-0.0165,-0.0135,-0.0295,799,2019-08-07 16:15:08:076
4.6766,-8.5348,1.4008,-0.1901,-0.0445,0.0394,-0.0165,-0.0092,-0.0252,803,2019-08-07 16:15:08:080
4.6766,-8.5348,1.4008,-0.1901,-0.0445,0.0394,-0.0165,-0.0092,-0.0252,809,2019-08-07 16:15:08:086
4.7149,-8.6494,1.3914,-0.227,0.0296,0.1012,-0.0123,0.0153,-0.0231,814,2019-08-07 16:15:08:091
4.7149,-8.6494,1.3914,-0.227,0.0296,0.1012,-0.0123,0.0153,-0.0231,819,2019-08-07 16:15:08:096
4.6431,-8.6589,1.4433,-0.227,0.0296,0.1012,-0.0123,0.0153,-0.0231,823,2019-08-07 16:15:08:100
4.6431,-8.6589,1.4433,-0.227,0.0296,0.1012,0.0026,0.0355,-0.0114,828,2019-08-07 16:15:08:105
4.6431,-8.6589,1.4433,-0.0665,0.0409,-0.0192,0.0133,0.0259,-0.0039,834,2019-08-07 16:15:08:111
4.5092,-8.6303,1.4998,-0.0665,0.0409,-0.0192,0.0133,0.0259,-0.0039,839,2019-08-07 16:15:08:116
4.5092,-8.6303,1.4998,-0.0665,0.0409,-0.0192,0.0133,0.0259,-0.0039,843,2019-08-07 16:15:08:120
4.4613,-8.6159,1.5423,-0.0665,0.0409,-0.0192,0.0229,0.011,0.0089,849,2019-08-07 16:15:08:126
4.4613,-8.6159,1.5423,-0.0291,-0.0685,-0.0284,0.0229,0.011,0.0089,853,2019-08-07 16:15:08:130
4.4613,-8.6159,1.5423,-0.0291,-0.0685,-0.0284,0.0143,-0.0028,0.0174,859,2019-08-07 16:15:08:136
4.5714,-8.5396,1.4621,-0.0291,-0.0685,-0.0284,0.0143,-0.0028,0.0174,865,2019-08-07 16:15:08:142
4.5714,-8.5396,1.4621,-0.0291,-0.0685,-0.0284,0.0143,-0.0028,0.0174,869,2019-08-07 16:15:08:146
4.5188,-8.5825,1.5423,-0.05,-0.0262,-0.0738,0.008,-0.0135,0.0121,874,2019-08-07 16:15:08:151
4.5188,-8.5825,1.5423,-0.05,-0.0262,-0.0738,0.008,-0.0135,0.0121,879,2019-08-07 16:15:08:156
4.5188,-8.5825,1.5423,-0.05,-0.0262,-0.0738,0.0026,-0.005,0.0078,884,2019-08-07 16:15:08:161
4.5427,-8.635,1.4951,-0.05,-0.0262,-0.0738,0.0026,-0.005,0.0078,889,2019-08-07 16:15:08:166
4.5427,-8.635,1.4951,-0.103,-0.0551,0.0202,-0.0091,0.0089,0.0025,894,2019-08-07 16:15:08:171
4.5284,-8.5587,1.4716,-0.103,-0.0551,0.0202,-0.0091,0.0089,0.0025,898,2019-08-07 16:15:08:175
4.5284,-8.5587,1.4716,-0.103,-0.0551,0.0202,-0.0197,0.0131,-0.0103,904,2019-08-07 16:15:08:181
4.5284,-8.5587,1.4716,-0.103,-0.0551,0.0202,-0.0197,0.0131,-0.0103,908,2019-08-07 16:15:08:185
4.499,-8.6207,1.5044,-0.0102,-0.0214,-0.0333,-0.0197,0.0046,-0.0124,915,2019-08-07 16:15:08:192
4.499,-8.6207,1.5044,-0.0102,-0.0214,-0.0333,-0.0197,0.0046,-0.0124,918,2019-08-07 16:15:08:195
4.499,-8.6207,1.5044,-0.0102,-0.0214,-0.0333,-0.0197,0.0046,-0.0124,924,2019-08-07 16:15:08:201
4.5277,-8.5777,1.5515,-0.0102,-0.0214,-0.0333,-0.0144,-0.0114,-0.0178,929,2019-08-07 16:15:08:206
4.5277,-8.5777,1.5515,-0.1266,0.018,-0.0218,-0.0144,-0.0114,-0.0178,934,2019-08-07 16:15:08:211
4.5659,-8.592,1.4997,-0.1266,0.018,-0.0218,-0.0048,-0.0242,-0.0167,939,2019-08-07 16:15:08:216
4.5659,-8.592,1.4997,-0.1266,0.018,-0.0218,-0.0048,-0.0242,-0.0167,944,2019-08-07 16:15:08:221
4.5659,-8.592,1.4997,-0.1266,0.018,-0.0218,0.0016,-0.0305,-0.0135,948,2019-08-07 16:15:08:225
4.6951,-8.5634,1.4856,-0.2084,-0.0375,0.004,0.0016,-0.0305,-0.0135,954,2019-08-07 16:15:08:231
4.6951,-8.5634,1.4856,-0.2084,-0.0375,0.004,0.0058,-0.021,-7.0E-4,958,2019-08-07 16:15:08:235
4.719,-8.5825,1.429,-0.2084,-0.0375,0.004,0.0058,-0.021,-7.0E-4,965,2019-08-07 16:15:08:242
4.719,-8.5825,1.429,-0.2084,-0.0375,0.004,0.0058,-0.021,-7.0E-4,968,2019-08-07 16:15:08:245
4.719,-8.5825,1.429,-0.2084,-0.0375,0.004,0.0016,-7.0E-4,0.0067,974,2019-08-07 16:15:08:251
4.6281,-8.5395,1.462,-0.1499,-0.0656,-0.0012,0.0016,0.0163,0.0153,979,2019-08-07 16:15:08:256
4.6281,-8.5395,1.462,-0.1499,-0.0656,-0.0012,0.0016,0.0163,0.0153,983,2019-08-07 16:15:08:260
4.609,-8.6063,1.4903,-0.1499,-0.0656,-0.0012,0.0026,0.0185,0.0153,989,2019-08-07 16:15:08:266
4.609,-8.6063,1.4903,-0.1499,-0.0656,-0.0012,0.0026,0.0185,0.0153,994,2019-08-07 16:15:08:271
4.609,-8.6063,1.4903,-0.0948,-0.0044,-0.0745,0.0026,0.0185,0.0153,999,2019-08-07 16:15:08:276
4.5851,-8.5634,1.4714,-0.0948,-0.0044,-0.0745,0.0037,0.0206,0.0131,1004,2019-08-07 16:15:08:281
4.5851,-8.5634,1.4714,-0.0948,-0.0044,-0.0745,0.0037,0.0206,0.0131,1009,2019-08-07 16:15:08:286
4.5899,-8.5586,1.5091,-0.1164,-0.0482,-0.0438,5.0E-4,0.0185,0.0131,1014,2019-08-07 16:15:08:291
4.5899,-8.5586,1.5091,-0.1164,-0.0482,-0.0438,5.0E-4,0.0185,0.0131,1019,2019-08-07 16:15:08:296
4.5899,-8.5586,1.5091,-0.1164,-0.0482,-0.0438,-0.0016,0.0131,0.0025,1023,2019-08-07 16:15:08:300
4.566,-8.5681,1.5374,-0.1164,-0.0482,-0.0438,-0.0016,0.0131,0.0025,1029,2019-08-07 16:15:08:306
4.566,-8.5681,1.5374,-0.1164,-0.0482,-0.0438,-0.008,0.0131,0.0014,1034,2019-08-07 16:15:08:311
4.566,-8.5681,1.5374,-0.0595,-0.0483,-0.0945,-0.008,0.0131,0.0014,1039,2019-08-07 16:15:08:316
4.609,-8.5634,1.4903,-0.0595,-0.0483,-0.0945,-0.0144,0.0025,-0.0039,1044,2019-08-07 16:15:08:321
4.609,-8.5634,1.4903,-0.1021,-0.0386,-0.0527,-0.0144,0.0025,-0.0039,1048,2019-08-07 16:15:08:325
4.609,-8.5634,1.4903,-0.1021,-0.0386,-0.0527,-0.0144,0.0025,-0.0039,1054,2019-08-07 16:15:08:331
4.542,-8.5347,1.5138,-0.1021,-0.0386,-0.0527,-0.0176,-0.0092,-0.0082,1058,2019-08-07 16:15:08:335
4.542,-8.5347,1.5138,-0.1021,-0.0386,-0.0527,-0.0176,-0.0092,-0.0082,1065,2019-08-07 16:15:08:342
4.6473,-8.5395,1.4714,-0.1381,-0.0331,-0.0272,-0.0144,-0.0082,-0.0082,1069,2019-08-07 16:15:08:346
4.6473,-8.5395,1.4714,-0.1381,-0.0331,-0.0272,-0.0144,-0.0082,-0.0082,1074,2019-08-07 16:15:08:351
4.6473,-8.5395,1.4714,-0.1381,-0.0331,-0.0272,-0.0165,-0.005,-0.006,1079,2019-08-07 16:15:08:356
4.6042,-8.5109,1.495,-0.1381,-0.0331,-0.0272,-0.0165,-0.005,-0.006,1084,2019-08-07 16:15:08:361
4.6042,-8.5109,1.495,-0.1405,-0.0802,-0.0117,-0.0165,-0.0039,-7.0E-4,1089,2019-08-07 16:15:08:366
4.6042,-8.5109,1.495,-0.1405,-0.0802,-0.0117,-0.0165,-0.0039,-7.0E-4,1094,2019-08-07 16:15:08:371
4.6473,-8.5634,1.4714,-0.1405,-0.0802,-0.0117,-0.0102,-0.0071,0.0046,1099,2019-08-07 16:15:08:376
4.6473,-8.5634,1.4714,-0.1405,-0.0802,-0.0117,-0.0102,-0.0071,0.0046,1105,2019-08-07 16:15:08:382
4.6473,-8.5634,1.4714,-0.1924,-0.0228,0.0239,-0.007,0.0089,0.0014,1109,2019-08-07 16:15:08:386
4.676,-8.6159,1.4903,-0.1924,-0.0228,0.0239,-0.007,0.0089,0.0014,1114,2019-08-07 16:15:08:391
4.676,-8.6159,1.4903,-0.1924,-0.0228,0.0239,-0.0016,0.0195,0.0046,1119,2019-08-07 16:15:08:396
4.676,-8.6159,1.4903,-0.1924,-0.0228,0.0239,-0.0016,0.0195,0.0046,1124,2019-08-07 16:15:08:401
4.6234,-8.5681,1.4478,-0.2019,-0.0703,-0.0029,0.0026,0.0291,0.0035,1129,2019-08-07 16:15:08:406
4.6234,-8.5681,1.4478,-0.2019,-0.0703,-0.0029,0.0026,0.0291,0.0035,1134,2019-08-07 16:15:08:411
4.5277,-8.592,1.5374,-0.2019,-0.0703,-0.0029,0.0133,0.0483,0.0025,1139,2019-08-07 16:15:08:416
4.5277,-8.592,1.5374,-0.2019,-0.0703,-0.0029,0.0133,0.0483,0.0025,1144,2019-08-07 16:15:08:421
4.5277,-8.592,1.5374,0.0309,-0.0559,-0.0588,0.0101,0.0323,0.0046,1150,2019-08-07 16:15:08:427
4.4176,-8.5872,1.5327,0.0309,-0.0559,-0.0588,0.0101,0.0323,0.0046,1154,2019-08-07 16:15:08:431
4.4176,-8.5872,1.5327,0.0159,0.0062,-0.0944,0.0048,0.0131,-0.0018,1158,2019-08-07 16:15:08:435
4.4176,-8.5872,1.5327,0.0159,0.0062,-0.0944,0.0048,0.0131,-0.0018,1164,2019-08-07 16:15:08:441
4.4942,-8.5729,1.6317,0.0159,0.0062,-0.0944,0.0048,0.0131,-0.0018,1169,2019-08-07 16:15:08:446
4.4942,-8.5729,1.6317,0.0159,0.0062,-0.0944,5.0E-4,-0.0146,-0.006,1175,2019-08-07 16:15:08:452
4.566,-8.549,1.5091,-0.0881,-0.0552,-0.0421,5.0E-4,-0.0146,-0.006,1179,2019-08-07 16:15:08:456
4.566,-8.549,1.5091,-0.0881,-0.0552,-0.0421,-0.0112,-0.0199,-0.0114,1183,2019-08-07 16:15:08:460
4.566,-8.549,1.5091,-0.0881,-0.0552,-0.0421,-0.0112,-0.0199,-0.0114,1189,2019-08-07 16:15:08:466
4.6473,-8.5204,1.5044,-0.0881,-0.0552,-0.0421,-0.0144,-0.022,-0.0124,1193,2019-08-07 16:15:08:470
4.6473,-8.5204,1.5044,-0.1989,-0.1015,-0.0789,-0.0144,-0.022,-0.0124,1199,2019-08-07 16:15:08:476
4.6473,-8.5204,1.5044,-0.1989,-0.1015,-0.0789,-0.0197,-0.0082,-0.006,1204,2019-08-07 16:15:08:481
4.7478,-8.5443,1.4761,-0.1989,-0.1015,-0.0789,-0.0197,-0.0082,-0.006,1209,2019-08-07 16:15:08:486
4.7478,-8.5443,1.4761,-0.1989,-0.1015,-0.0789,-0.0229,0.0174,-0.006,1214,2019-08-07 16:15:08:491
4.7191,-8.5299,1.4337,-0.2343,-0.0719,0.0259,-0.0229,0.0174,-0.006,1219,2019-08-07 16:15:08:496
4.7191,-8.5299,1.4337,-0.2343,-0.0719,0.0259,-0.0229,0.0174,-0.006,1224,2019-08-07 16:15:08:501
4.7191,-8.5299,1.4337,-0.2343,-0.0719,0.0259,-0.024,0.0419,0.0014,1229,2019-08-07 16:15:08:506
4.7191,-8.592,1.4101,-0.2338,-0.0098,0.0488,-0.024,0.0419,0.0014,1234,2019-08-07 16:15:08:511
4.7191,-8.592,1.4101,-0.2338,-0.0098,0.0488,-0.0176,0.0643,0.0057,1239,2019-08-07 16:15:08:516
4.5373,-8.6493,1.462,-0.2338,-0.0098,0.0488,-0.0176,0.0643,0.0057,1244,2019-08-07 16:15:08:521
4.5373,-8.6493,1.462,-0.0397,0.1185,-0.0386,-0.0112,0.06,0.0025,1249,2019-08-07 16:15:08:526
4.5373,-8.6493,1.462,-0.0397,0.1185,-0.0386,-0.0112,0.06,0.0025,1254,2019-08-07 16:15:08:531
4.4751,-8.7018,1.528,-0.0397,0.1185,-0.0386,-0.0027,0.0387,0.0035,1258,2019-08-07 16:15:08:535
4.4751,-8.7018,1.528,-0.0397,0.1185,-0.0386,-0.0027,0.0387,0.0035,1264,2019-08-07 16:15:08:541
4.3794,-8.592,1.561,0.1016,-0.011,-0.0964,0.0016,0.0206,0.0025,1269,2019-08-07 16:15:08:546
4.3794,-8.592,1.561,0.1016,-0.011,-0.0964,0.0016,0.0206,0.0025,1274,2019-08-07 16:15:08:551
4.3794,-8.592,1.561,0.1016,-0.011,-0.0964,0.0111,-0.006,3.0E-4,1279,2019-08-07 16:15:08:556
4.5086,-8.549,1.5563,-0.0278,-0.0539,-0.0904,0.0111,-0.006,3.0E-4,1284,2019-08-07 16:15:08:561
4.5086,-8.549,1.5563,-0.0278,-0.0539,-0.0904,0.009,-0.038,-0.0071,1289,2019-08-07 16:15:08:566
4.6856,-8.4345,1.5516,-0.0278,-0.0539,-0.0904,0.009,-0.038,-0.0071,1294,2019-08-07 16:15:08:571
4.6856,-8.4345,1.5516,-0.2826,-0.2288,-0.0301,0.0058,-0.0391,-0.0124,1300,2019-08-07 16:15:08:577
4.6856,-8.4345,1.5516,-0.2826,-0.2288,-0.0301,0.0058,-0.0391,-0.0124,1304,2019-08-07 16:15:08:581
4.7143,-8.3533,1.4384,-0.2826,-0.2288,-0.0301,-0.0112,-0.022,-0.0135,1309,2019-08-07 16:15:08:586
4.7143,-8.3533,1.4384,-0.2826,-0.2288,-0.0301,-0.0112,-0.022,-0.0135,1314,2019-08-07 16:15:08:591
4.7143,-8.3533,1.4384,-0.2731,-0.1505,-0.005,-0.0165,0.0131,-0.0071,1319,2019-08-07 16:15:08:596
4.7621,-8.4774,1.4761,-0.2731,-0.1505,-0.005,-0.0165,0.0131,-0.0071,1324,2019-08-07 16:15:08:601
4.7621,-8.4774,1.4761,-0.2731,-0.1505,-0.005,-0.0165,0.0131,-0.0071,1328,2019-08-07 16:15:08:605
4.6808,-8.5586,1.4479,-0.2337,-0.045,-0.0055,-0.0165,0.044,-0.0039,1334,2019-08-07 16:15:08:611
4.6808,-8.5586,1.4479,-0.2337,-0.045,-0.0055,-0.0165,0.044,-0.0039,1339,2019-08-07 16:15:08:616
4.6808,-8.5586,1.4479,-0.2337,-0.045,-0.0055,-0.0123,0.0653,-0.005,1345,2019-08-07 16:15:08:622
4.4607,-8.5538,1.4479,-0.2337,-0.045,-0.0055,-0.0123,0.0653,-0.005,1349,2019-08-07 16:15:08:626
4.4607,-8.5538,1.4479,0.0769,-0.0637,0.0072,-0.0123,0.0653,-0.005,1353,2019-08-07 16:15:08:630
4.4607,-8.5538,1.4479,0.0769,-0.0637,0.0072,-0.0102,0.0632,-0.0135,1359,2019-08-07 16:15:08:636
4.3124,-8.549,1.4997,0.0769,-0.0637,0.0072,-0.0112,0.0536,-0.0242,1365,2019-08-07 16:15:08:642
4.3124,-8.549,1.4997,0.0769,-0.0637,0.0072,-0.0112,0.0536,-0.0242,1369,2019-08-07 16:15:08:646
4.1593,-8.5729,1.462,0.2734,0.0039,-0.0128,-0.0112,0.0536,-0.0242,1374,2019-08-07 16:15:08:651
4.1593,-8.5729,1.462,0.2734,0.0039,-0.0128,-0.0091,0.0195,-0.038,1379,2019-08-07 16:15:08:656
4.1593,-8.5729,1.462,0.2734,0.0039,-0.0128,-0.0091,0.0195,-0.038,1384,2019-08-07 16:15:08:661
4.2789,-8.6016,1.5091,0.2734,0.0039,-0.0128,-0.0059,-0.0327,-0.0487,1389,2019-08-07 16:15:08:666
4.2789,-8.6016,1.5091,0.1546,0.0353,0.0239,-0.0059,-0.0327,-0.0487,1393,2019-08-07 16:15:08:670
4.4751,-8.6159,1.5468,0.1546,0.0353,0.0239,-6.0E-4,-0.0529,-0.0614,1399,2019-08-07 16:15:08:676
4.4751,-8.6159,1.5468,0.1546,0.0353,0.0239,-6.0E-4,-0.0529,-0.0614,1404,2019-08-07 16:15:08:681
4.4751,-8.6159,1.5468,0.1546,0.0353,0.0239,-6.0E-4,-0.0657,-0.0668,1409,2019-08-07 16:15:08:686
4.6856,-8.5443,1.4479,-0.1775,-0.045,0.0141,-6.0E-4,-0.0657,-0.0668,1415,2019-08-07 16:15:08:692
4.6856,-8.5443,1.4479,-0.1775,-0.045,0.0141,-6.0E-4,-0.0657,-0.0668,1419,2019-08-07 16:15:08:696
4.6856,-8.5443,1.4479,-0.1775,-0.045,0.0141,-0.0102,-0.0497,-0.0593,1424,2019-08-07 16:15:08:701
4.7861,-8.5252,1.4007,-0.1775,-0.045,0.0141,-0.0102,-0.0497,-0.0593,1429,2019-08-07 16:15:08:706
4.7861,-8.5252,1.4007,-0.3361,0.0087,0.1252,-0.0144,-0.0284,-0.0455,1434,2019-08-07 16:15:08:711
4.8387,-8.6016,1.3206,-0.3361,0.0087,0.1252,-0.0144,-0.0284,-0.0455,1438,2019-08-07 16:15:08:715
4.8387,-8.6016,1.3206,-0.3361,0.0087,0.1252,-0.0134,0.0025,-0.0316,1444,2019-08-07 16:15:08:721
4.8387,-8.6016,1.3206,-0.3361,0.0087,0.1252,-0.0134,0.0025,-0.0316,1449,2019-08-07 16:15:08:726
4.6904,-8.6493,1.4761,-0.1614,0.0693,-0.024,-0.0038,0.0238,-0.022,1454,2019-08-07 16:15:08:731
4.6904,-8.6493,1.4761,-0.1614,0.0693,-0.024,-0.0038,0.0238,-0.022,1459,2019-08-07 16:15:08:736
4.6425,-8.6732,1.5846,-0.1614,0.0693,-0.024,0.0101,0.0185,-0.0114,1465,2019-08-07 16:15:08:742
4.6425,-8.6732,1.5846,-0.1614,0.0693,-0.024,0.0101,0.0185,-0.0114,1469,2019-08-07 16:15:08:746
4.6425,-8.6732,1.5846,-0.0399,0.071,-0.1095,0.0101,0.0185,-0.0114,1474,2019-08-07 16:15:08:751
4.5038,-8.6254,1.5374,-0.0399,0.071,-0.1095,0.0207,0.0163,-0.0071,1480,2019-08-07 16:15:08:757
4.5038,-8.6254,1.5374,-0.0399,0.071,-0.1095,0.0207,0.0163,-0.0071,1484,2019-08-07 16:15:08:761
4.5038,-8.6254,1.5374,-0.0399,0.071,-0.1095,0.0133,0.0153,-0.005,1489,2019-08-07 16:15:08:766
4.5229,-8.5968,1.5468,0.0085,0.0197,-0.0853,0.0133,0.0153,-0.005,1494,2019-08-07 16:15:08:771
4.5229,-8.5968,1.5468,0.0085,0.0197,-0.0853,0.0026,0.0099,-0.0018,1500,2019-08-07 16:15:08:777
4.5229,-8.5968,1.5468,0.0085,0.0197,-0.0853,0.0026,0.0099,-0.0018,1504,2019-08-07 16:15:08:781
4.566,-8.6159,1.5751,0.0085,0.0197,-0.0853,-0.0038,0.0163,-0.006,1510,2019-08-07 16:15:08:787
4.566,-8.6159,1.5751,-0.0966,0.0488,-0.1022,-0.0038,0.0163,-0.006,1515,2019-08-07 16:15:08:792
4.5708,-8.6063,1.594,-0.0966,0.0488,-0.1022,-0.0208,0.0142,-0.0135,1519,2019-08-07 16:15:08:796
4.5708,-8.6063,1.594,-0.0966,0.0488,-0.1022,-0.0208,0.0142,-0.0135,1524,2019-08-07 16:15:08:801
4.5708,-8.6063,1.594,-0.0966,0.0488,-0.1022,-0.0208,0.0142,-0.0135,1529,2019-08-07 16:15:08:806
4.6425,-8.6827,1.4997,-0.1093,0.1067,-0.0376,-0.0219,0.0153,-0.0103,1533,2019-08-07 16:15:08:810
4.6425,-8.6827,1.4997,-0.1093,0.1067,-0.0376,-0.0219,0.0153,-0.0103,1539,2019-08-07 16:15:08:816
4.6425,-8.6827,1.4997,-0.1093,0.1067,-0.0376,-0.0197,0.0174,-0.0082,1544,2019-08-07 16:15:08:821
4.6712,-8.6398,1.4903,-0.1093,0.1067,-0.0376,-0.0197,0.0174,-0.0082,1549,2019-08-07 16:15:08:826
4.6712,-8.6398,1.4903,-0.0693,0.0214,-0.0396,-0.0102,0.0089,-0.0103,1554,2019-08-07 16:15:08:831
4.6186,-8.6207,1.4761,-0.0693,0.0214,-0.0396,-0.0102,0.0089,-0.0103,1560,2019-08-07 16:15:08:837
4.6186,-8.6207,1.4761,-0.0693,0.0214,-0.0396,0.0026,0.0067,-0.0071,1564,2019-08-07 16:15:08:841
4.6186,-8.6207,1.4761,-0.0693,0.0214,-0.0396,0.0026,0.0067,-0.0071,1569,2019-08-07 16:15:08:846
4.6186,-8.5777,1.429,-0.082,0.0032,0.0318,0.0026,0.0067,-0.0071,1574,2019-08-07 16:15:08:851
4.6186,-8.5777,1.429,-0.082,0.0032,0.0318,0.0143,-0.0039,-0.0114,1579,2019-08-07 16:15:08:856
4.6186,-8.5777,1.429,-0.082,0.0032,0.0318,0.0143,-0.0039,-0.0114,1584,2019-08-07 16:15:08:861
4.5899,-8.53,1.3819,-0.082,0.0032,0.0318,0.0303,0.0014,-0.0092,1588,2019-08-07 16:15:08:865
4.5899,-8.53,1.3819,-0.082,0.0032,0.0318,0.0303,0.0014,-0.0092,1594,2019-08-07 16:15:08:871
4.6186,-8.4631,1.4903,-0.0514,-0.0716,0.0116,0.0357,0.0153,-0.0103,1599,2019-08-07 16:15:08:876
4.6186,-8.4631,1.4903,-0.0514,-0.0716,0.0116,0.0357,0.0153,-0.0103,1604,2019-08-07 16:15:08:881
4.6186,-8.4631,1.4903,-0.0514,-0.0716,0.0116,0.0357,0.0153,-0.0103,1609,2019-08-07 16:15:08:886
4.5421,-8.4488,1.4667,-0.0018,-0.1219,0.0191,0.0325,0.0206,-0.0124,1614,2019-08-07 16:15:08:891
4.5421,-8.4488,1.4667,-0.0018,-0.1219,0.0191,0.0325,0.0206,-0.0124,1619,2019-08-07 16:15:08:896
4.5421,-8.4488,1.4667,-0.0018,-0.1219,0.0191,0.0143,0.011,-0.0092,1624,2019-08-07 16:15:08:901
4.5182,-8.4631,1.4856,0.023,-0.1067,-0.0114,0.0143,0.011,-0.0092,1629,2019-08-07 16:15:08:906
4.5182,-8.4631,1.4856,0.023,-0.1067,-0.0114,0.0048,-7.0E-4,-0.0092,1635,2019-08-07 16:15:08:912
4.566,-8.5968,1.4054,0.023,-0.1067,-0.0114,0.0048,-7.0E-4,-0.0092,1639,2019-08-07 16:15:08:916
4.566,-8.5968,1.4054,0.023,-0.1067,-0.0114,-0.0027,-0.0103,-0.0092,1643,2019-08-07 16:15:08:920
4.566,-8.5968,1.4054,-0.0186,0.0087,0.069,-0.0027,-0.0103,-0.0092,1649,2019-08-07 16:15:08:926
4.6186,-8.5777,1.4337,-0.0186,0.0087,0.069,-0.0048,-0.0284,-0.0188,1654,2019-08-07 16:15:08:931
4.6186,-8.5777,1.4337,-0.0186,0.0087,0.069,-0.0048,-0.0284,-0.0188,1659,2019-08-07 16:15:08:936
4.6186,-8.5777,1.4337,-0.0186,0.0087,0.069,-0.0048,-0.0284,-0.0188,1663,2019-08-07 16:15:08:940
4.676,-8.697,1.3489,-0.1297,0.1294,0.1216,5.0E-4,-0.0369,-0.0167,1669,2019-08-07 16:15:08:946
4.676,-8.697,1.3489,-0.1297,0.1294,0.1216,5.0E-4,-0.0369,-0.0167,1674,2019-08-07 16:15:08:951
4.7334,-8.6684,1.3866,-0.1297,0.1294,0.1216,0.009,-0.0284,-0.022,1679,2019-08-07 16:15:08:956
4.7334,-8.6684,1.3866,-0.1297,0.1294,0.1216,0.009,-0.0284,-0.022,1683,2019-08-07 16:15:08:960
4.7334,-8.6684,1.3866,-0.191,0.0462,-0.0263,0.0186,-0.0135,-0.0316,1689,2019-08-07 16:15:08:966
4.676,-8.5347,1.429,-0.191,0.0462,-0.0263,0.0186,-0.0135,-0.0316,1694,2019-08-07 16:15:08:971
4.676,-8.5347,1.429,-0.191,0.0462,-0.0263,0.0197,3.0E-4,-0.0273,1700,2019-08-07 16:15:08:977
4.676,-8.5347,1.429,-0.191,0.0462,-0.0263,0.0197,3.0E-4,-0.0273,1704,2019-08-07 16:15:08:981
4.6521,-8.5109,1.495,-0.094,-0.0504,-0.0234,0.0101,-0.0018,-0.022,1709,2019-08-07 16:15:08:986
4.6521,-8.5109,1.495,-0.094,-0.0504,-0.0234,0.0101,-0.0018,-0.022,1714,2019-08-07 16:15:08:991
4.6521,-8.5109,1.495,-0.094,-0.0504,-0.0234,0.0101,-0.0018,-0.022,1719,2019-08-07 16:15:08:996
4.6091,-8.5825,1.5186,-0.094,-0.0504,-0.0234,0.008,-0.0124,-0.0231,1724,2019-08-07 16:15:09:001
4.6091,-8.5825,1.5186,-0.0368,0.0526,-0.0409,0.008,-0.0124,-0.0231,1728,2019-08-07 16:15:09:005
4.5516,-8.635,1.5327,-0.0368,0.0526,-0.0409,0.0154,-0.0199,-0.0188,1734,2019-08-07 16:15:09:011
4.5516,-8.635,1.5327,-0.0368,0.0526,-0.0409,0.0154,-0.0199,-0.0188,1739,2019-08-07 16:15:09:016
4.5516,-8.635,1.5327,-0.0368,0.0526,-0.0409,0.0293,-0.0167,-0.0146,1744,2019-08-07 16:15:09:021
4.6473,-8.7209,1.4196,-0.0811,0.1646,0.0553,0.0293,-0.0167,-0.0146,1749,2019-08-07 16:15:09:026
4.6473,-8.7209,1.4196,-0.0811,0.1646,0.0553,0.0548,-0.005,-0.0188,1753,2019-08-07 16:15:09:030
4.5564,-8.697,1.495,-0.0811,0.1646,0.0553,0.0548,-0.005,-0.0188,1760,2019-08-07 16:15:09:037
4.5564,-8.697,1.495,-0.0811,0.1646,0.0553,0.0793,-0.0039,-0.0156,1765,2019-08-07 16:15:09:042
4.5564,-8.697,1.495,-0.0208,0.1343,0.0032,0.0793,-0.0039,-0.0156,1769,2019-08-07 16:15:09:046
4.5277,-8.6398,1.4337,-0.0208,0.1343,0.0032,0.0793,-0.0039,-0.0156,1774,2019-08-07 16:15:09:051
4.5277,-8.6398,1.4337,-0.0208,0.1343,0.0032,0.0868,0.0014,-0.0167,1779,2019-08-07 16:15:09:056
4.5469,-8.635,1.4903,-0.0208,0.1343,0.0032,0.0868,0.0014,-0.0167,1784,2019-08-07 16:15:09:061
4.5469,-8.635,1.4903,0.0488,0.1144,-0.015,0.0836,3.0E-4,-0.0188,1790,2019-08-07 16:15:09:067
4.4608,-8.6445,1.5704,0.0488,0.1144,-0.015,0.0836,3.0E-4,-0.0188,1794,2019-08-07 16:15:09:071
4.4608,-8.6445,1.5704,0.1171,0.0687,-0.0644,0.0751,0.0035,-0.0231,1799,2019-08-07 16:15:09:076
4.4608,-8.6445,1.5704,0.1171,0.0687,-0.0644,0.0751,0.0035,-0.0231,1804,2019-08-07 16:15:09:081
4.3746,-8.6684,1.6081,0.1171,0.0687,-0.0644,0.0612,-0.0114,-0.0199,1809,2019-08-07 16:15:09:086
4.3746,-8.6684,1.6081,0.1171,0.0687,-0.0644,0.0612,-0.0114,-0.0199,1814,2019-08-07 16:15:09:091
4.3746,-8.6684,1.6081,0.2294,0.1338,-0.1198,0.041,-0.038,-0.0178,1819,2019-08-07 16:15:09:096
4.3172,-8.6875,1.6223,0.2294,0.1338,-0.1198,0.041,-0.038,-0.0178,1824,2019-08-07 16:15:09:101
4.3172,-8.6875,1.6223,0.2294,0.1338,-0.1198,0.041,-0.038,-0.0178,1829,2019-08-07 16:15:09:106
4.3507,-8.8021,1.5751,0.2294,0.1338,-0.1198,0.0325,-0.0444,-0.021,1834,2019-08-07 16:15:09:111
4.3507,-8.8021,1.5751,0.1605,0.2552,-0.0414,0.0325,-0.0444,-0.021,1839,2019-08-07 16:15:09:116
4.3507,-8.8021,1.5751,0.1605,0.2552,-0.0414,0.0346,-0.0337,-0.0252,1844,2019-08-07 16:15:09:121
4.3794,-8.7973,1.5139,0.1605,0.2552,-0.0414,0.0346,-0.0337,-0.0252,1850,2019-08-07 16:15:09:127
4.3794,-8.7973,1.5139,0.1605,0.2552,-0.0414,0.0559,0.0131,-0.0305,1854,2019-08-07 16:15:09:131
4.3794,-8.7973,1.5139,0.2782,0.3724,0.1296,0.0559,0.0131,-0.0305,1859,2019-08-07 16:15:09:136
4.279,-8.9835,1.4196,0.2782,0.3724,0.1296,0.074,0.0653,-0.0465,1865,2019-08-07 16:15:09:142
4.279,-8.9835,1.4196,0.2782,0.3724,0.1296,0.074,0.0653,-0.0465,1868,2019-08-07 16:15:09:145
4.279,-8.9835,1.4196,0.2782,0.3724,0.1296,0.0953,0.1037,-0.0838,1874,2019-08-07 16:15:09:151
4.0397,-9.098,1.3772,0.6221,0.5502,0.1168,0.0953,0.1037,-0.0838,1879,2019-08-07 16:15:09:156
4.0397,-9.098,1.3772,0.6221,0.5502,0.1168,0.1081,0.1452,-0.1307,1884,2019-08-07 16:15:09:161
3.6714,-9.2126,1.4007,0.6221,0.5502,0.1168,0.1081,0.1452,-0.1307,1889,2019-08-07 16:15:09:166
3.6714,-9.2126,1.4007,0.6221,0.5502,0.1168,0.1049,0.1591,-0.1914,1893,2019-08-07 16:15:09:170
3.6714,-9.2126,1.4007,1.3438,0.9307,0.1996,0.1049,0.1591,-0.1914,1899,2019-08-07 16:15:09:176
3.0255,-9.6232,1.3819,1.3438,0.9307,0.1996,0.1049,0.1591,-0.1914,1904,2019-08-07 16:15:09:181
3.0255,-9.6232,1.3819,1.3438,0.9307,0.1996,0.0868,0.1271,-0.2638,1909,2019-08-07 16:15:09:186
3.0255,-9.6232,1.3819,1.3438,0.9307,0.1996,0.0868,0.1271,-0.2638,1914,2019-08-07 16:15:09:191
2.5028,-10.2723,1.4759,2.3152,2.0243,0.2764,0.0815,0.0675,-0.3214,1918,2019-08-07 16:15:09:195
2.5028,-10.2723,1.4759,2.3152,2.0243,0.2764,0.0815,0.0675,-0.3214,1924,2019-08-07 16:15:09:201
2.5028,-10.2723,1.4759,2.3152,2.0243,0.2764,0.0772,0.0334,-0.3533,1929,2019-08-07 16:15:09:206
1.8425,-11.5373,1.5136,2.3152,2.0243,0.2764,0.0772,0.0334,-0.3533,1934,2019-08-07 16:15:09:211
1.8425,-11.5373,1.5136,3.5947,4.4718,-0.4625,0.1954,-0.087,-0.3033,1939,2019-08-07 16:15:09:216
0.8952,-13.4182,2.2065,3.5947,4.4718,-0.4625,0.1954,-0.087,-0.3033,1944,2019-08-07 16:15:09:221
0.8952,-13.4182,2.2065,3.5947,4.4718,-0.4625,0.4405,-0.0657,-0.1818,1949,2019-08-07 16:15:09:226
0.8952,-13.4182,2.2065,3.5947,4.4718,-0.4625,0.4405,-0.0657,-0.1818,1954,2019-08-07 16:15:09:231
0.168,-16.4162,2.6873,4.6135,8.3542,-0.8569,0.6769,0.0153,-0.0785,1959,2019-08-07 16:15:09:236
0.168,-16.4162,2.6873,4.6135,8.3542,-0.8569,0.6769,0.0153,-0.0785,1964,2019-08-07 16:15:09:241
0.168,-16.4162,2.6873,4.6135,8.3542,-0.8569,1.1105,0.3615,0.0728,1969,2019-08-07 16:15:09:246
-0.7889,-18.593,2.2536,4.6135,8.3542,-0.8569,1.1105,0.3615,0.0728,1974,2019-08-07 16:15:09:251
-0.7889,-18.593,2.2536,6.1451,10.9269,0.0773,1.4024,0.6917,0.1346,1979,2019-08-07 16:15:09:256
-1.9419,-19.8247,1.3203,6.1451,10.9269,0.0773,1.4024,0.6917,0.1346,1984,2019-08-07 16:15:09:261
-1.9419,-19.8247,1.3203,6.1451,10.9269,0.0773,1.902,1.61,0.125,1989,2019-08-07 16:15:09:266
-1.9419,-19.8247,1.3203,6.1451,10.9269,0.0773,1.902,1.61,0.125,1993,2019-08-07 16:15:09:270
-2.6213,-21.1757,-0.7915,7.2221,12.9043,3.408,2.1491,2.476,-0.022,1999,2019-08-07 16:15:09:276
-2.6213,-21.1757,-0.7915,7.2221,12.9043,3.408,2.1491,2.476,-0.022,2004,2019-08-07 16:15:09:281
-2.6213,-21.1757,-0.7915,7.2221,12.9043,3.408,2.1491,2.476,-0.022,2009,2019-08-07 16:15:09:286
-3.5016,-22.1018,-1.9322,7.2221,12.9043,3.408,2.3558,3.3421,-0.2521,2014,2019-08-07 16:15:09:291
-3.5016,-22.1018,-1.9322,8.8666,14.9644,5.4634,2.3558,3.3421,-0.2521,2019,2019-08-07 16:15:09:296
-3.5016,-22.1018,-1.9322,8.8666,14.9644,5.4634,2.571,4.2167,-0.4172,2024,2019-08-07 16:15:09:301
-4.7072,-23.8633,-2.1019,8.8666,14.9644,5.4634,2.571,4.2167,-0.4172,2029,2019-08-07 16:15:09:306
-4.7072,-23.8633,-2.1019,8.8666,14.9644,5.4634,2.8575,5.0987,-0.478,2034,2019-08-07 16:15:09:311
-5.5158,-28.3316,-4.3127,9.4899,21.0799,8.6707,2.8575,5.0987,-0.478,2039,2019-08-07 16:15:09:316
-5.5158,-28.3316,-4.3127,9.4899,21.0799,8.6707,2.8948,6.1501,-0.4194,2044,2019-08-07 16:15:09:321
-5.5158,-28.3316,-4.3127,9.4899,21.0799,8.6707,2.8948,6.1501,-0.4194,2049,2019-08-07 16:15:09:326
-5.4727,-30.265,-6.7922,9.4899,21.0799,8.6707,2.8948,6.1501,-0.4194,2053,2019-08-07 16:15:09:330
-5.4727,-30.265,-6.7922,9.4899,21.0799,8.6707,2.7776,7.1451,-0.495,2059,2019-08-07 16:15:09:336
-7.9366,-30.666,-10.4454,10.6917,22.7527,14.6045,2.7776,7.1451,-0.495,2064,2019-08-07 16:15:09:341
-7.9366,-30.666,-10.4454,10.6917,22.7527,14.6045,2.7595,8.4063,-0.6654,2069,2019-08-07 16:15:09:346
-7.9366,-30.666,-10.4454,10.6917,22.7527,14.6045,2.7595,8.4063,-0.6654,2074,2019-08-07 16:15:09:351
-11.123,-28.3937,-5.4629,10.6917,22.7527,14.6045,3.2591,9.3161,-0.936,2079,2019-08-07 16:15:09:356
-11.123,-28.3937,-5.4629,13.3706,20.0393,9.1895,3.2591,9.3161,-0.936,2084,2019-08-07 16:15:09:361
-11.123,-28.3937,-5.4629,13.3706,20.0393,9.1895,3.2591,9.3161,-0.936,2089,2019-08-07 16:15:09:366
-7.4822,-23.5482,3.5122,13.3706,20.0393,9.1895,5.0498,8.7142,-1.7627,2093,2019-08-07 16:15:09:370
-7.4822,-23.5482,3.5122,13.3706,20.0393,9.1895,5.0498,8.7142,-1.7627,2098,2019-08-07 16:15:09:375
-1.7315,-18.3496,7.6698,4.6998,12.4233,-1.0268,7.3593,5.968,-2.91,2104,2019-08-07 16:15:09:381
-1.7315,-18.3496,7.6698,4.6998,12.4233,-1.0268,7.3593,5.968,-2.91,2109,2019-08-07 16:15:09:386
-1.7315,-18.3496,7.6698,4.6998,12.4233,-1.0268,8.9668,4.9538,-3.9912,2115,2019-08-07 16:15:09:392
1.8519,-14.2488,-8.0319,4.6998,12.4233,-1.0268,8.9668,4.9538,-3.9912,2119,2019-08-07 16:15:09:396
1.8519,-14.2488,-8.0319,-0.2834,4.5117,18.99,8.9668,4.9538,-3.9912,2124,2019-08-07 16:15:09:401
1.8519,-14.2488,-8.0319,-0.2834,4.5117,18.99,9.4952,8.2348,-4.8839,2128,2019-08-07 16:15:09:405
2.2394,-3.2118,-9.8939,-0.2834,4.5117,18.99,9.4952,8.2348,-4.8839,2134,2019-08-07 16:15:09:411
2.2394,-3.2118,-9.8939,-0.2834,4.5117,18.99,9.851,9.6729,-5.3345,2139,2019-08-07 16:15:09:416
1.694,19.3159,-1.8616,-1.4109,-23.1096,10.9039,9.851,9.6729,-5.3345,2143,2019-08-07 16:15:09:420
1.694,19.3159,-1.8616,-1.4109,-23.1096,10.9039,11.9315,9.6282,-4.6921,2149,2019-08-07 16:15:09:426
1.694,19.3159,-1.8616,-1.4109,-23.1096,10.9039,11.9315,9.6282,-4.6921,2154,2019-08-07 16:15:09:431
-21.9354,110.0758,15.7539,-1.4109,-23.1096,10.9039,15.4681,2.0286,-1.1459,2159,2019-08-07 16:15:09:436
-21.9354,110.0758,15.7539,12.7901,-104.9727,56.0941,15.4681,2.0286,-1.1459,2164,2019-08-07 16:15:09:441
-21.9354,110.0758,15.7539,12.7901,-104.9727,56.0941,5.9383,-1.0212,-3.3936,2169,2019-08-07 16:15:09:446
-9.3768,45.1375,-48.0993,12.7901,-104.9727,56.0941,5.9383,-1.0212,-3.3936,2173,2019-08-07 16:15:09:450
-9.3768,45.1375,-48.0993,12.7901,-104.9727,56.0941,5.9383,-1.0212,-3.3936,2179,2019-08-07 16:15:09:456
-5.7934,60.4996,37.4987,3.4767,-57.5296,-14.867,-1.2171,-6.7939,-1.849,2184,2019-08-07 16:15:09:461
-5.7934,60.4996,37.4987,3.4767,-57.5296,-14.867,-1.2171,-6.7939,-1.849,2189,2019-08-07 16:15:09:466
-5.7934,60.4996,37.4987,3.4767,-57.5296,-14.867,-6.2185,-18.2987,2.3972,2194,2019-08-07 16:15:09:471
20.9792,24.3905,-14.1128,3.4767,-57.5296,-14.867,-6.2185,-18.2987,2.3972,2199,2019-08-07 16:15:09:476
20.9792,24.3905,-14.1128,-35.7057,-16.8193,9.9704,-4.9274,-6.1782,2.378,2204,2019-08-07 16:15:09:481
36.2552,15.1818,5.4543,-35.7057,-16.8193,9.9704,-4.9274,-6.1782,2.378,2209,2019-08-07 16:15:09:486
36.2552,15.1818,5.4543,-26.3799,-20.6455,-2.1345,-3.1005,-2.9238,1.7847,2214,2019-08-07 16:15:09:491
36.2552,15.1818,5.4543,-26.3799,-20.6455,-2.1345,-3.1005,-2.9238,1.7847,2219,2019-08-07 16:15:09:496
36.2552,15.1818,5.4543,-26.3799,-20.6455,-2.1345,-3.1005,-2.9238,1.7847,2224,2019-08-07 16:15:09:501
13.2,24.7819,15.5371,-26.3799,-20.6455,-2.1345,-2.3623,-3.6876,2.7306,2229,2019-08-07 16:15:09:506
13.2,24.7819,15.5371,-2.0534,-23.9819,18.0068,-2.3623,-3.6876,2.7306,2235,2019-08-07 16:15:09:512
7.3345,18.8051,-9.4461,-2.0534,-23.9819,18.0068,-4.1135,0.2699,4.3274,2240,2019-08-07 16:15:09:517
7.3345,18.8051,-9.4461,-2.0534,-23.9819,18.0068,-4.1135,0.2699,4.3274,2245,2019-08-07 16:15:09:522
7.3345,18.8051,-9.4461,-2.0534,-23.9819,18.0068,-5.721,0.5905,3.9557,2250,2019-08-07 16:15:09:527
10.1524,13.7496,4.9122,-5.9637,-16.4546,2.8723,-5.721,0.5905,3.9557,2255,2019-08-07 16:15:09:532
10.1524,13.7496,4.9122,-5.9637,-16.4546,2.8723,-6.6254,-1.6316,3.0736,2259,2019-08-07 16:15:09:536
2.665,10.9188,7.7734,-5.9637,-16.4546,2.8723,-6.6254,-1.6316,3.0736,2264,2019-08-07 16:15:09:541
2.665,10.9188,7.7734,-5.9637,-16.4546,2.8723,-6.2569,-2.1845,2.6486,2269,2019-08-07 16:15:09:546
2.665,10.9188,7.7734,2.8532,-11.5146,-6.9822,-6.2569,-2.1845,2.6486,2274,2019-08-07 16:15:09:551
0.4882,5.9158,14.0051,2.8532,-11.5146,-6.9822,-4.8688,-3.3989,2.5048,2280,2019-08-07 16:15:09:557
0.4882,5.9158,14.0051,2.8532,-11.5146,-6.9822,-4.8688,-3.3989,2.5048,2284,2019-08-07 16:15:09:561
0.8996,3.2281,7.6886,2.8532,-11.5146,-6.9822,-4.5013,-4.7848,2.3855,2289,2019-08-07 16:15:09:566
0.8996,3.2281,7.6886,3.1492,-7.9034,1.3253,-4.5013,-4.7848,2.3855,2295,2019-08-07 16:15:09:572
0.8996,3.2281,7.6886,3.1492,-7.9034,1.3253,-4.823,-6.0727,2.4707,2299,2019-08-07 16:15:09:576
0.1819,1.2709,3.4037,3.1492,-7.9034,1.3253,-4.823,-6.0727,2.4707,2304,2019-08-07 16:15:09:581
0.1819,1.2709,3.4037,3.1492,-7.9034,1.3253,-5.1628,-6.6373,2.7221,2309,2019-08-07 16:15:09:586
2.2583,-2.6675,3.8233,1.9747,-3.6858,2.3373,-5.1628,-6.6373,2.7221,2314,2019-08-07 16:15:09:591
2.2583,-2.6675,3.8233,1.9747,-3.6858,2.3373,-5.0723,-6.8791,2.8329,2319,2019-08-07 16:15:09:596
2.2583,-2.6675,3.8233,1.9747,-3.6858,2.3373,-5.0723,-6.8791,2.8329,2324,2019-08-07 16:15:09:601
4.9375,-6.6203,3.2765,-0.4862,-0.1583,2.2438,-4.6888,-6.6757,2.7263,2329,2019-08-07 16:15:09:606
4.9375,-6.6203,3.2765,-0.4862,-0.1583,2.2438,-4.6888,-6.6757,2.7263,2334,2019-08-07 16:15:09:611
8.3247,-17.1799,-1.8427,-0.4862,-0.1583,2.2438,-4.6888,-6.6757,2.7263,2339,2019-08-07 16:15:09:616
8.3247,-17.1799,-1.8427,-0.4862,-0.1583,2.2438,-3.9996,-4.7486,1.9849,2344,2019-08-07 16:15:09:621
8.3247,-17.1799,-1.8427,-1.542,12.0714,7.1315,-3.9996,-4.7486,1.9849,2349,2019-08-07 16:15:09:626
5.4398,-23.4623,1.0468,-1.542,12.0714,7.1315,-3.7301,-3.1731,2.1202,2354,2019-08-07 16:15:09:631
5.4398,-23.4623,1.0468,-1.542,12.0714,7.1315,-3.7301,-3.1731,2.1202,2359,2019-08-07 16:15:09:636
2.4448,-20.9178,3.3613,2.1309,12.9474,0.0694,-3.0259,-1.8234,2.5548,2364,2019-08-07 16:15:09:641
2.4448,-20.9178,3.3613,2.1309,12.9474,0.0694,-3.0259,-1.8234,2.5548,2368,2019-08-07 16:15:09:645
2.4448,-20.9178,3.3613,2.1309,12.9474,0.0694,-1.7178,-1.6945,2.705,2374,2019-08-07 16:15:09:651
1.1674,-13.5757,6.2273,2.1309,12.9474,0.0694,-1.7178,-1.6945,2.705,2380,2019-08-07 16:15:09:657
1.1674,-13.5757,6.2273,3.3587,4.4731,3.9631,-1.7178,-1.6945,2.705,2383,2019-08-07 16:15:09:660
1.1674,-13.5757,6.2273,3.3587,4.4731,3.9631,-0.9071,-1.7073,2.3237,2389,2019-08-07 16:15:09:666
0.2775,-12.5971,-2.8845,3.3587,4.4731,3.9631,-1.379,-1.3802,1.7175,2394,2019-08-07 16:15:09:671
0.2775,-12.5971,-2.8845,3.3587,4.4731,3.9631,-1.379,-1.3802,1.7175,2399,2019-08-07 16:15:09:676
-2.4256,-15.6475,-5.0576,6.3913,7.0518,7.6308,-1.379,-1.3802,1.7175,2403,2019-08-07 16:15:09:680
-2.4256,-15.6475,-5.0576,6.3913,7.0518,7.6308,-2.6712,-1.3781,1.1775,2409,2019-08-07 16:15:09:686
-2.4256,-15.6475,-5.0576,6.3913,7.0518,7.6308,-2.6712,-1.3781,1.1775,2415,2019-08-07 16:15:09:692
-4.856,-19.0847,-2.4744,8.7359,10.3612,4.7291,-2.6712,-1.3781,1.1775,2419,2019-08-07 16:15:09:696
-4.856,-19.0847,-2.4744,8.7359,10.3612,4.7291,-3.3199,-1.8468,1.1924,2424,2019-08-07 16:15:09:701
-6.7171,-23.4862,-2.7808,8.7359,10.3612,4.7291,-3.3199,-1.8468,1.1924,2430,2019-08-07 16:15:09:707
-6.7171,-23.4862,-2.7808,11.3224,15.3,3.8204,-2.7276,-1.4037,1.3074,2434,2019-08-07 16:15:09:711
-6.7171,-23.4862,-2.7808,11.3224,15.3,3.8204,-2.7276,-1.4037,1.3074,2439,2019-08-07 16:15:09:716
-8.6308,-23.954,-1.395,11.3224,15.3,3.8204,-1.6379,-0.4993,1.039,2444,2019-08-07 16:15:09:721
-8.6308,-23.954,-1.395,11.3224,15.3,3.8204,-1.6379,-0.4993,1.039,2449,2019-08-07 16:15:09:726
-8.6308,-23.954,-1.395,11.3224,15.3,3.8204,0.0644,0.5159,0.4062,2454,2019-08-07 16:15:09:731
-11.2861,-21.061,-1.3855,14.7634,11.9855,2.719,0.0644,0.5159,0.4062,2459,2019-08-07 16:15:09:736
-11.2861,-21.061,-1.3855,14.7634,11.9855,2.719,1.1552,0.8036,-0.2287,2464,2019-08-07 16:15:09:741
-8.7743,-17.3947,1.5936,14.7634,11.9855,2.719,1.1552,0.8036,-0.2287,2469,2019-08-07 16:15:09:746
-8.7743,-17.3947,1.5936,14.7634,11.9855,2.719,1.1552,0.8036,-0.2287,2474,2019-08-07 16:15:09:751
-8.7743,-17.3947,1.5936,10.5911,7.6492,8.4189,1.7017,0.3093,-1.0106,2479,2019-08-07 16:15:09:756
-7.4156,-13.8717,-6.9196,10.5911,7.6492,8.4189,1.7017,0.3093,-1.0106,2484,2019-08-07 16:15:09:761
-7.4156,-13.8717,-6.9196,10.5911,7.6492,8.4189,0.401,1.512,-1.8042,2489,2019-08-07 16:15:09:766
-7.4156,-13.8717,-6.9196,10.5911,7.6492,8.4189,0.401,1.512,-1.8042,2494,2019-08-07 16:15:09:771
-7.7506,-10.9167,-1.5505,11.4542,1.5891,1.6033,-0.7249,0.4574,-1.8671,2499,2019-08-07 16:15:09:776
-7.7506,-10.9167,-1.5505,11.4542,1.5891,1.6033,-0.7249,0.4574,-1.8671,2503,2019-08-07 16:15:09:780
-6.0139,-10.7878,7.2973,9.8285,1.9018,-5.6466,-0.938,-1.6444,-1.5347,2509,2019-08-07 16:15:09:786
-6.0139,-10.7878,7.2973,9.8285,1.9018,-5.6466,-0.938,-1.6444,-1.5347,2514,2019-08-07 16:15:09:791
-6.0139,-10.7878,7.2973,9.8285,1.9018,-5.6466,-0.3276,-2.3869,-1.229,2519,2019-08-07 16:15:09:796
0.507,-12.5016,2.1875,9.8285,1.9018,-5.6466,-0.3276,-2.3869,-1.229,2524,2019-08-07 16:15:09:801
0.507,-12.5016,2.1875,1.1322,3.5431,-2.2024,-0.2328,-3.3563,-1.147,2529,2019-08-07 16:15:09:806
4.9803,-11.7044,3.3141,1.1322,3.5431,-2.2024,-0.2328,-3.3563,-1.147,2534,2019-08-07 16:15:09:811
4.9803,-11.7044,3.3141,1.1322,3.5431,-2.2024,-0.2328,-3.3563,-1.147,2539,2019-08-07 16:15:09:816
4.9803,-11.7044,3.3141,1.1322,3.5431,-2.2024,0.2008,-4.6559,-0.9754,2543,2019-08-07 16:15:09:820
7.315,-10.1338,-0.4946,-2.9436,1.4127,1.5289,0.2008,-4.6559,-0.9754,2549,2019-08-07 16:15:09:826
7.315,-10.1338,-0.4946,-2.9436,1.4127,1.5289,0.4895,-4.6282,-0.43,2554,2019-08-07 16:15:09:831
9.9271,-9.1599,-2.0691,-5.4574,0.4696,2.9272,0.4895,-4.6282,-0.43,2559,2019-08-07 16:15:09:836
9.9271,-9.1599,-2.0691,-5.4574,0.4696,2.9272,0.4884,-4.1499,0.0323,2564,2019-08-07 16:15:09:841
9.9271,-9.1599,-2.0691,-5.4574,0.4696,2.9272,0.4884,-4.1499,0.0323,2568,2019-08-07 16:15:09:845
9.9271,-9.1599,-2.0691,-5.4574,0.4696,2.9272,0.4884,-4.1499,0.0323,2574,2019-08-07 16:15:09:851
12.5728,-9.2936,-4.2751,-8.5751,0.6148,5.3226,0.4277,-2.3858,0.3625,2579,2019-08-07 16:15:09:856
12.5728,-9.2936,-4.2751,-8.5751,0.6148,5.3226,0.4277,-2.3858,0.3625,2584,2019-08-07 16:15:09:861
12.5728,-9.2936,-4.2751,-8.5751,0.6148,5.3226,0.254,0.7396,0.468,2589,2019-08-07 16:15:09:866
11.9843,-8.4343,-3.4596,-8.5751,0.6148,5.3226,0.254,0.7396,0.468,2594,2019-08-07 16:15:09:871
11.9843,-8.4343,-3.4596,-4.7092,-1.0977,1.8971,0.1507,1.92,0.3125,2600,2019-08-07 16:15:09:877
7.0518,-7.2504,-0.4051,-4.7092,-1.0977,1.8971,0.1507,1.92,0.3125,2604,2019-08-07 16:15:09:881
7.0518,-7.2504,-0.4051,-4.7092,-1.0977,1.8971,-0.007,2.5804,0.2166,2609,2019-08-07 16:15:09:886
7.0518,-7.2504,-0.4051,-4.7092,-1.0977,1.8971,-0.007,2.5804,0.2166,2614,2019-08-07 16:15:09:891
3.2961,-7.384,1.8245,1.5626,-1.2003,-1.2209,-0.007,2.5804,0.2166,2619,2019-08-07 16:15:09:896
3.2961,-7.384,1.8245,1.5626,-1.2003,-1.2209,-0.1476,2.2204,0.3157,2624,2019-08-07 16:15:09:901
1.8848,-8.1001,3.5121,2.4591,-0.6407,-2.5299,-0.1774,1.6941,0.3284,2630,2019-08-07 16:15:09:907
1.8848,-8.1001,3.5121,2.4591,-0.6407,-2.5299,-0.1774,1.6941,0.3284,2634,2019-08-07 16:15:09:911
1.8848,-8.1001,3.5121,2.4591,-0.6407,-2.5299,-0.1774,1.6941,0.3284,2639,2019-08-07 16:15:09:916
1.3633,-8.6825,3.5215,2.4591,-0.6407,-2.5299,-0.1071,0.6033,0.1974,2643,2019-08-07 16:15:09:920
1.3633,-8.6825,3.5215,2.7601,0.1543,-1.9922,-0.1071,0.6033,0.1974,2649,2019-08-07 16:15:09:926
1.3633,-8.6825,3.5215,2.7601,0.1543,-1.9922,0.0058,-0.495,0.0834,2654,2019-08-07 16:15:09:931
2.1431,-9.2363,2.5222,2.7601,0.1543,-1.9922,0.0058,-0.495,0.0834,2659,2019-08-07 16:15:09:936
2.1431,-9.2363,2.5222,2.7601,0.1543,-1.9922,0.0644,-1.1001,0.076,2665,2019-08-07 16:15:09:942
2.1431,-9.2363,2.5222,0.2936,0.7157,-0.3751,0.0644,-1.1001,0.076,2669,2019-08-07 16:15:09:946
4.3629,-9.4893,1.2966,0.2936,0.7157,-0.3751,0.0644,-1.1001,0.076,2673,2019-08-07 16:15:09:950
4.3629,-9.4893,1.2966,0.2936,0.7157,-0.3751,0.1294,-1.2226,0.093,2679,2019-08-07 16:15:09:956
5.9226,-9.136,0.5801,0.2936,0.7157,-0.3751,0.1294,-1.2226,0.093,2684,2019-08-07 16:15:09:961
5.9226,-9.136,0.5801,0.2936,0.7157,-0.3751,0.2828,-0.7794,0.0866,2689,2019-08-07 16:15:09:966
5.9226,-9.136,0.5801,-2.0114,0.1603,0.7246,0.2828,-0.7794,0.0866,2693,2019-08-07 16:15:09:970
6.3388,-8.3913,-0.0233,-2.0114,0.1603,0.7246,0.3073,-0.2447,0.0674,2700,2019-08-07 16:15:09:977
6.3388,-8.3913,-0.0233,-2.0114,0.1603,0.7246,0.3073,-0.2447,0.0674,2703,2019-08-07 16:15:09:980
6.3388,-8.3913,-0.0233,-2.0114,0.1603,0.7246,0.2349,0.2592,0.0525,2709,2019-08-07 16:15:09:986
5.8891,-7.7516,0.2265,-1.6229,-1.0273,0.7568,0.2349,0.2592,0.0525,2714,2019-08-07 16:15:09:991
5.8891,-7.7516,0.2265,-1.6229,-1.0273,0.7568,0.0857,0.6544,-0.0061,2719,2019-08-07 16:15:09:996
4.7121,-7.4747,0.9242,-1.6229,-1.0273,0.7568,0.0857,0.6544,-0.0061,2724,2019-08-07 16:15:10:001
4.7121,-7.4747,0.9242,0.224,-1.1457,-0.3392,0.0857,0.6544,-0.0061,2729,2019-08-07 16:15:10:006
3.7313,-7.8041,1.57,0.224,-1.1457,-0.3392,-0.0304,0.5873,-0.0284,2734,2019-08-07 16:15:10:011
3.7313,-7.8041,1.57,0.224,-1.1457,-0.3392,-0.0304,0.5873,-0.0284,2739,2019-08-07 16:15:10:016
3.7313,-7.8041,1.57,0.6461,-0.696,-0.5419,-0.0581,0.3242,-0.0316,2744,2019-08-07 16:15:10:021
3.6404,-8.334,1.8669,0.6461,-0.696,-0.5419,-0.0581,0.3242,-0.0316,2750,2019-08-07 16:15:10:027
3.6404,-8.334,1.8669,0.6461,-0.696,-0.5419,-0.0581,0.3242,-0.0316,2753,2019-08-07 16:15:10:030
4.1571,-8.5488,1.5558,0.1003,-0.222,-0.4683,-0.008,-0.0465,-0.0252,2760,2019-08-07 16:15:10:037
4.1571,-8.5488,1.5558,0.1003,-0.222,-0.4683,-0.008,-0.0465,-0.0252,2764,2019-08-07 16:15:10:041
4.1571,-8.5488,1.5558,0.1003,-0.222,-0.4683,0.0335,-0.2415,-0.005,2770,2019-08-07 16:15:10:047
4.1571,-8.5488,1.5558,0.1003,-0.222,-0.4683,0.0335,-0.2415,-0.005,2773,2019-08-07 16:15:10:050
5.3627,-8.4629,0.7827,-1.2989,-0.3756,0.3364,0.042,-0.2777,-7.0E-4,2780,2019-08-07 16:15:10:057
5.3627,-8.4629,0.7827,-1.2989,-0.3756,0.3364,0.042,-0.2777,-7.0E-4,2783,2019-08-07 16:15:10:060
5.7598,-8.3865,0.6837,-1.2989,-0.3756,0.3364,0.0389,-0.071,0.0035,2789,2019-08-07 16:15:10:066
5.7598,-8.3865,0.6837,-1.2989,-0.3756,0.3364,0.0389,-0.071,0.0035,2794,2019-08-07 16:15:10:071
5.6258,-8.5488,0.4952,-1.3457,-0.2128,0.5776,0.0357,0.2038,3.0E-4,2800,2019-08-07 16:15:10:077
5.6258,-8.5488,0.4952,-1.3457,-0.2128,0.5776,0.0357,0.2038,3.0E-4,2804,2019-08-07 16:15:10:081
5.6258,-8.5488,0.4952,-1.3457,-0.2128,0.5776,0.0112,0.4552,-0.0146,2809,2019-08-07 16:15:10:086
5.1091,-8.6777,0.877,-1.3457,-0.2128,0.5776,0.0112,0.4552,-0.0146,2814,2019-08-07 16:15:10:091
5.1091,-8.6777,0.877,-1.3457,-0.2128,0.5776,0.0144,0.598,-0.0412,2819,2019-08-07 16:15:10:096
5.1091,-8.6777,0.877,-0.3274,-0.0171,-0.1174,0.0144,0.598,-0.0412,2823,2019-08-07 16:15:10:100
4.4489,-8.8018,1.3107,-0.3274,-0.0171,-0.1174,0.057,0.6257,-0.0604,2830,2019-08-07 16:15:10:107
4.4489,-8.8018,1.3107,0.2393,0.0477,-0.3919,0.057,0.6257,-0.0604,2833,2019-08-07 16:15:10:110
3.6786,-8.7302,1.6972,0.2393,0.0477,-0.3919,0.057,0.6257,-0.0604,2839,2019-08-07 16:15:10:116
3.6786,-8.7302,1.6972,0.2393,0.0477,-0.3919,0.0974,0.517,-0.0955,2844,2019-08-07 16:15:10:121
3.6786,-8.7302,1.6972,0.2393,0.0477,-0.3919,0.0974,0.517,-0.0955,2849,2019-08-07 16:15:10:126
3.2241,-8.5106,1.7726,1.0507,-0.2355,-0.5614,0.1028,0.2336,-0.0966,2854,2019-08-07 16:15:10:131
3.2241,-8.5106,1.7726,1.0507,-0.2355,-0.5614,0.1028,0.2336,-0.0966,2859,2019-08-07 16:15:10:136
3.3867,-8.3865,1.7632,1.0507,-0.2355,-0.5614,0.1028,0.2336,-0.0966,2864,2019-08-07 16:15:10:141
3.3867,-8.3865,1.7632,1.0507,-0.2355,-0.5614,0.0836,-0.0817,-0.1041,2869,2019-08-07 16:15:10:146
3.3867,-8.3865,1.7632,0.4731,-0.2979,-0.4108,0.0836,-0.0817,-0.1041,2873,2019-08-07 16:15:10:150
3.9513,-8.4486,1.6265,0.4731,-0.2979,-0.4108,0.0751,-0.2596,-0.12,2879,2019-08-07 16:15:10:156
3.9513,-8.4486,1.6265,0.4731,-0.2979,-0.4108,0.0751,-0.2596,-0.12,2884,2019-08-07 16:15:10:161
4.8459,-8.5059,1.1504,0.4731,-0.2979,-0.4108,0.0591,-0.3203,-0.1136,2889,2019-08-07 16:15:10:166
4.8459,-8.5059,1.1504,-0.8224,-0.1465,0.2707,0.0591,-0.3203,-0.1136,2893,2019-08-07 16:15:10:170
4.8459,-8.5059,1.1504,-0.8224,-0.1465,0.2707,0.0474,-0.2223,-0.1019,2900,2019-08-07 16:15:10:177
5.6209,-8.6491,0.7356,-0.8224,-0.1465,0.2707,0.0474,-0.2223,-0.1019,2903,2019-08-07 16:15:10:180
5.6209,-8.6491,0.7356,-0.8224,-0.1465,0.2707,0.0367,-0.0369,-0.0732,2909,2019-08-07 16:15:10:186
5.8042,-8.6779,0.5945,-1.461,-0.0336,0.6236,0.0367,-0.0369,-0.0732,2915,2019-08-07 16:15:10:192
5.8042,-8.6779,0.5945,-1.461,-0.0336,0.6236,0.0357,0.1825,-0.0465,2919,2019-08-07 16:15:10:196
5.8042,-8.6779,0.5945,-1.461,-0.0336,0.6236,0.0357,0.1825,-0.0465,2924,2019-08-07 16:15:10:201
5.6607,-8.6874,0.7972,-1.461,-0.0336,0.6236,0.0506,0.3828,-0.0412,2930,2019-08-07 16:15:10:207
5.6607,-8.6874,0.7972,-1.0203,-0.0439,0.3242,0.0506,0.3828,-0.0412,2934,2019-08-07 16:15:10:211
5.6607,-8.6874,0.7972,-1.0203,-0.0439,0.3242,0.0506,0.3828,-0.0412,2939,2019-08-07 16:15:10:216
4.5364,-8.4201,1.3675,-1.0203,-0.0439,0.3242,0.0836,0.5106,-0.0401,2944,2019-08-07 16:15:10:221
4.5364,-8.4201,1.3675,-1.0203,-0.0439,0.3242,0.0985,0.4115,-0.0103,2950,2019-08-07 16:15:10:227
3.6896,-8.3819,1.7164,0.5967,-0.353,-0.3109,0.0985,0.4115,-0.0103,2954,2019-08-07 16:15:10:231
3.6896,-8.3819,1.7164,0.5967,-0.353,-0.3109,0.0985,0.4115,-0.0103,2959,2019-08-07 16:15:10:236
3.6896,-8.3819,1.7164,0.5967,-0.353,-0.3109,0.0974,0.1974,0.0131,2964,2019-08-07 16:15:10:241
3.5556,-8.3532,2.0887,0.5967,-0.353,-0.3109,0.0974,0.1974,0.0131,2969,2019-08-07 16:15:10:246
3.5556,-8.3532,2.0887,0.6439,-0.3047,-0.6557,0.106,-0.0891,0.0142,2973,2019-08-07 16:15:10:250
3.5556,-8.3532,2.0887,0.6439,-0.3047,-0.6557,0.106,-0.0891,0.0142,2979,2019-08-07 16:15:10:256
4.058,-8.4296,1.9615,0.6439,-0.3047,-0.6557,0.1134,-0.3682,-0.0092,2983,2019-08-07 16:15:10:260
4.058,-8.4296,1.9615,0.6439,-0.3047,-0.6557,0.1134,-0.3682,-0.0092,2989,2019-08-07 16:15:10:266
4.7086,-8.2864,1.6127,-0.3606,-0.4056,-0.2784,0.1092,-0.4321,-0.0135,2995,2019-08-07 16:15:10:272
4.7086,-8.2864,1.6127,-0.3606,-0.4056,-0.2784,0.1092,-0.4321,-0.0135,2998,2019-08-07 16:15:10:275
4.7086,-8.2864,1.6127,-0.3606,-0.4056,-0.2784,0.0825,-0.3469,-0.0039,3003,2019-08-07 16:15:10:280
5.2684,-8.2959,1.2355,-0.3606,-0.4056,-0.2784,0.0825,-0.3469,-0.0039,3010,2019-08-07 16:15:10:287
5.2684,-8.2959,1.2355,-0.3606,-0.4056,-0.2784,0.0825,-0.3469,-0.0039,3014,2019-08-07 16:15:10:291
5.2684,-8.2959,1.2355,-0.3606,-0.4056,-0.2784,0.0825,-0.3469,-0.0039,3019,2019-08-07 16:15:10:296
5.5028,-8.3246,1.1743,-1.1373,-0.361,0.1442,0.0463,-0.1722,-0.0146,3024,2019-08-07 16:15:10:301
5.5028,-8.3246,1.1743,-1.1373,-0.361,0.1442,0.0463,-0.1722,-0.0146,3028,2019-08-07 16:15:10:305
5.1201,-8.3867,1.3298,-0.7428,-0.2927,-0.0094,-0.0038,0.1516,-0.0348,3034,2019-08-07 16:15:10:311
5.1201,-8.3867,1.3298,-0.7428,-0.2927,-0.0094,-0.0038,0.1516,-0.0348,3039,2019-08-07 16:15:10:316
5.1201,-8.3867,1.3298,-0.7428,-0.2927,-0.0094,-0.0123,0.2283,-0.0433,3044,2019-08-07 16:15:10:321
4.6847,-8.4344,1.6362,-0.7428,-0.2927,-0.0094,-0.0123,0.2283,-0.0433,3049,2019-08-07 16:15:10:326
4.6847,-8.4344,1.6362,0.0366,-0.2253,-0.4883,0.009,0.2251,-0.0465,3053,2019-08-07 16:15:10:330
4.2446,-8.4344,1.8154,0.0366,-0.2253,-0.4883,0.009,0.2251,-0.0465,3059,2019-08-07 16:15:10:336
4.2446,-8.4344,1.8154,0.0366,-0.2253,-0.4883,0.0602,0.1474,-0.0327,3064,2019-08-07 16:15:10:341
4.2446,-8.4344,1.8154,0.0366,-0.2253,-0.4883,0.0602,0.1474,-0.0327,3069,2019-08-07 16:15:10:346
4.1393,-8.3246,1.8012,0.263,-0.3636,-0.4667,0.0793,0.027,-0.0274,3075,2019-08-07 16:15:10:352
4.1393,-8.3246,1.8012,0.263,-0.3636,-0.4667,0.0793,0.027,-0.0274,3079,2019-08-07 16:15:10:356
4.2255,-8.2052,1.7635,0.263,-0.3636,-0.4667,0.0708,-0.0913,-0.021,3083,2019-08-07 16:15:10:360
4.2255,-8.2052,1.7635,0.263,-0.3636,-0.4667,0.0708,-0.0913,-0.021,3089,2019-08-07 16:15:10:366
4.2255,-8.2052,1.7635,-0.0418,-0.3637,-0.3107,0.0538,-0.1573,-0.0156,3094,2019-08-07 16:15:10:371
4.5221,-8.3055,1.6692,-0.0418,-0.3637,-0.3107,0.0538,-0.1573,-0.0156,3099,2019-08-07 16:15:10:376
4.5221,-8.3055,1.6692,-0.0418,-0.3637,-0.3107,0.0314,-0.1658,-0.022,3103,2019-08-07 16:15:10:380
4.5221,-8.3055,1.6692,-0.0418,-0.3637,-0.3107,0.0314,-0.1658,-0.022,3109,2019-08-07 16:15:10:386
4.8618,-8.4583,1.5231,-0.0418,-0.3637,-0.3107,0.0314,-0.1658,-0.022,3113,2019-08-07 16:15:10:390
4.8618,-8.4583,1.5231,-0.4709,-0.1586,-0.1334,0.009,-0.1296,-0.022,3119,2019-08-07 16:15:10:396
4.8618,-8.4583,1.5231,-0.4709,-0.1586,-0.1334,0.009,-0.1296,-0.022,3124,2019-08-07 16:15:10:401
4.924,-8.6206,1.3864,-0.4709,-0.1586,-0.1334,-0.0059,-0.0444,-0.0082,3129,2019-08-07 16:15:10:406
4.924,-8.6206,1.3864,-0.512,0.0731,-0.1294,-0.0059,-0.0444,-0.0082,3134,2019-08-07 16:15:10:411
4.8953,-8.7638,1.5231,-0.512,0.0731,-0.1294,-0.0123,0.0536,0.0025,3138,2019-08-07 16:15:10:415
4.8953,-8.7638,1.5231,-0.512,0.0731,-0.1294,-0.0123,0.0536,0.0025,3144,2019-08-07 16:15:10:421
4.8953,-8.7638,1.5231,-0.512,0.0731,-0.1294,-0.008,0.0866,0.0099,3149,2019-08-07 16:15:10:426
4.8092,-8.6349,1.5844,-0.512,0.0731,-0.1294,-0.008,0.0866,0.0099,3153,2019-08-07 16:15:10:430
4.8092,-8.6349,1.5844,-0.2783,-0.1602,-0.34,0.0016,0.0909,0.0142,3159,2019-08-07 16:15:10:436
4.5365,-8.3532,1.7776,-0.2783,-0.1602,-0.34,0.0016,0.0909,0.0142,3164,2019-08-07 16:15:10:441
4.5365,-8.3532,1.7776,-0.2783,-0.1602,-0.34,0.008,0.0632,0.0344,3169,2019-08-07 16:15:10:446
4.5365,-8.3532,1.7776,-0.2783,-0.1602,-0.34,0.008,0.0632,0.0344,3173,2019-08-07 16:15:10:450
4.4551,-8.2769,1.6268,-0.0539,-0.3807,-0.2443,-0.008,0.0387,0.0525,3179,2019-08-07 16:15:10:456
4.4551,-8.2769,1.6268,-0.0539,-0.3807,-0.2443,-0.008,0.0387,0.0525,3184,2019-08-07 16:15:10:461
4.4169,-8.2673,1.7211,-0.0539,-0.3807,-0.2443,-0.0421,0.0099,0.044,3189,2019-08-07 16:15:10:466
4.4169,-8.2673,1.7211,-0.0539,-0.3807,-0.2443,-0.0421,0.0099,0.044,3195,2019-08-07 16:15:10:472
4.4169,-8.2673,1.7211,0.1105,-0.3083,-0.3246,-0.0634,-0.0156,0.0323,3198,2019-08-07 16:15:10:475
4.2542,-8.4105,1.6739,0.1105,-0.3083,-0.3246,-0.0634,-0.0156,0.0323,3204,2019-08-07 16:15:10:481
4.2542,-8.4105,1.6739,0.1105,-0.3083,-0.3246,-0.0943,-0.0327,0.0259,3208,2019-08-07 16:15:10:485
4.3451,-8.6063,1.5514,0.1105,-0.3083,-0.3246,-0.0943,-0.0327,0.0259,3214,2019-08-07 16:15:10:491
4.3451,-8.6063,1.5514,0.0102,-0.0123,-0.1367,-0.0943,-0.0327,0.0259,3219,2019-08-07 16:15:10:496
4.3451,-8.6063,1.5514,0.0102,-0.0123,-0.1367,-0.1135,-0.0806,0.0185,3224,2019-08-07 16:15:10:501
4.6035,-8.7972,1.5325,0.0102,-0.0123,-0.1367,-0.1135,-0.0806,0.0185,3229,2019-08-07 16:15:10:506
4.6035,-8.7972,1.5325,0.0102,-0.0123,-0.1367,-0.0932,-0.0902,0.0142,3234,2019-08-07 16:15:10:511
4.924,-8.8354,1.2921,-0.4583,0.1653,0.0077,-0.0932,-0.0902,0.0142,3239,2019-08-07 16:15:10:516
4.924,-8.8354,1.2921,-0.4583,0.1653,0.0077,-0.0645,-0.0806,0.0174,3245,2019-08-07 16:15:10:522
4.924,-8.8354,1.2921,-0.4583,0.1653,0.0077,-0.0645,-0.0806,0.0174,3249,2019-08-07 16:15:10:526
5.0532,-8.611,1.2214,-0.4583,0.1653,0.0077,-0.0229,-0.038,0.0185,3254,2019-08-07 16:15:10:531
5.0532,-8.611,1.2214,-0.6851,-0.1603,0.0999,-0.0229,-0.038,0.0185,3259,2019-08-07 16:15:10:536
5.0532,-8.611,1.2214,-0.6851,-0.1603,0.0999,0.0175,-0.0071,0.0248,3264,2019-08-07 16:15:10:541
4.9862,-8.3867,1.4288,-0.6851,-0.1603,0.0999,0.0175,-0.0071,0.0248,3269,2019-08-07 16:15:10:546
4.9862,-8.3867,1.4288,-0.6851,-0.1603,0.0999,0.0431,-0.0039,0.0472,3274,2019-08-07 16:15:10:551
4.8953,-8.2578,1.245,-0.48,-0.3894,0.0886,0.0431,-0.0039,0.0472,3279,2019-08-07 16:15:10:556
4.8953,-8.2578,1.245,-0.48,-0.3894,0.0886,0.0346,-0.0167,0.0547,3283,2019-08-07 16:15:10:560
4.8953,-8.2578,1.245,-0.48,-0.3894,0.0886,0.0346,-0.0167,0.0547,3289,2019-08-07 16:15:10:566
4.7518,-8.3103,1.4477,-0.48,-0.3894,0.0886,0.0229,-0.0391,0.0483,3294,2019-08-07 16:15:10:571
4.7518,-8.3103,1.4477,-0.3222,-0.3195,-0.1898,0.0229,-0.0391,0.0483,3299,2019-08-07 16:15:10:576
4.6178,-8.4678,1.5043,-0.3222,-0.3195,-0.1898,0.0165,-0.0646,0.0408,3304,2019-08-07 16:15:10:581
4.6178,-8.4678,1.5043,-0.3222,-0.3195,-0.1898,0.0165,-0.0646,0.0408,3309,2019-08-07 16:15:10:586
4.6178,-8.4678,1.5043,-0.3222,-0.3195,-0.1898,5.0E-4,-0.0849,0.0312,3314,2019-08-07 16:15:10:591
4.503,-8.5872,1.476,-0.1198,-0.0876,-0.1446,5.0E-4,-0.0849,0.0312,3319,2019-08-07 16:15:10:596
4.503,-8.5872,1.476,-0.1198,-0.0876,-0.1446,5.0E-4,-0.0849,0.0312,3325,2019-08-07 16:15:10:602
4.5891,-8.7304,1.5373,-0.1198,-0.0876,-0.1446,-0.024,-0.1211,0.028,3330,2019-08-07 16:15:10:607
4.5891,-8.7304,1.5373,-0.1198,-0.0876,-0.1446,-0.024,-0.1211,0.028,3333,2019-08-07 16:15:10:610
4.5891,-8.7304,1.5373,-0.3068,0.0867,-0.2011,-0.0251,-0.1658,0.0248,3339,2019-08-07 16:15:10:616
4.8571,-8.8736,1.4336,-0.3068,0.0867,-0.2011,-0.0251,-0.1658,0.0248,3344,2019-08-07 16:15:10:621
4.8571,-8.8736,1.4336,-0.3068,0.0867,-0.2011,-0.0134,-0.1541,0.0174,3349,2019-08-07 16:15:10:626
4.8571,-8.8736,1.4336,-0.3068,0.0867,-0.2011,-0.0134,-0.1541,0.0174,3353,2019-08-07 16:15:10:630
5.0628,-8.8068,1.212,-0.7431,0.1005,0.089,0.0016,-0.0923,0.0174,3359,2019-08-07 16:15:10:636
5.0628,-8.8068,1.212,-0.7431,0.1005,0.089,0.0016,-0.0923,0.0174,3364,2019-08-07 16:15:10:641
5.0628,-8.8068,1.212,-0.7431,0.1005,0.089,0.0016,-0.0923,0.0174,3368,2019-08-07 16:15:10:645
5.0963,-8.654,1.2969,-0.7431,0.1005,0.089,0.0197,0.0035,0.0185,3374,2019-08-07 16:15:10:651
5.0963,-8.654,1.2969,-0.5881,-0.0896,-0.0671,0.0197,0.0035,0.0185,3379,2019-08-07 16:15:10:656
4.8571,-8.5872,1.3487,-0.5881,-0.0896,-0.0671,0.0346,0.0366,0.0248,3384,2019-08-07 16:15:10:661
4.8571,-8.5872,1.3487,-0.5881,-0.0896,-0.0671,0.0346,0.0366,0.0248,3388,2019-08-07 16:15:10:665
4.8571,-8.5872,1.3487,-0.4457,-0.118,-0.1611,0.0527,0.0195,0.0366,3394,2019-08-07 16:15:10:671
4.7757,-8.5347,1.5325,-0.4457,-0.118,-0.1611,0.0527,0.0195,0.0366,3398,2019-08-07 16:15:10:675
4.7757,-8.5347,1.5325,-0.4457,-0.118,-0.1611,0.0602,3.0E-4,0.0398,3404,2019-08-07 16:15:10:681
4.7757,-8.5347,1.5325,-0.2729,-0.2185,-0.2431,0.0602,3.0E-4,0.0398,3409,2019-08-07 16:15:10:686
4.6848,-8.401,1.5278,-0.2729,-0.2185,-0.2431,0.0644,-0.0369,0.0451,3413,2019-08-07 16:15:10:690
4.6848,-8.401,1.5278,-0.2729,-0.2185,-0.2431,0.0644,-0.0369,0.0451,3419,2019-08-07 16:15:10:696
4.7518,-8.3962,1.4288,-0.2729,-0.2185,-0.2431,0.0516,-0.0625,0.0472,3424,2019-08-07 16:15:10:701
4.7518,-8.3962,1.4288,-0.2729,-0.2185,-0.2431,0.0399,-0.0668,0.0568,3430,2019-08-07 16:15:10:707
4.7518,-8.3962,1.4288,-0.3341,-0.2863,-0.1751,0.0399,-0.0668,0.0568,3434,2019-08-07 16:15:10:711
4.771,-8.4344,1.476,-0.3341,-0.2863,-0.1751,0.0399,-0.0668,0.0568,3440,2019-08-07 16:15:10:717
4.771,-8.4344,1.476,-0.3341,-0.2863,-0.1751,0.0165,-0.0572,0.0675,3444,2019-08-07 16:15:10:721
4.9815,-8.5537,1.4383,-0.6079,-0.1269,-0.1139,0.0165,-0.0572,0.0675,3449,2019-08-07 16:15:10:726
4.9815,-8.5537,1.4383,-0.6079,-0.1269,-0.1139,0.0016,-0.0178,0.077,3454,2019-08-07 16:15:10:731
4.9815,-8.5537,1.4383,-0.6079,-0.1269,-0.1139,0.0016,-0.0178,0.077,3459,2019-08-07 16:15:10:736
5.0724,-8.6254,1.3911,-0.6079,-0.1269,-0.1139,0.008,0.0398,0.0845,3464,2019-08-07 16:15:10:741
5.0724,-8.6254,1.3911,-0.7469,-0.0362,-0.0324,0.008,0.0398,0.0845,3469,2019-08-07 16:15:10:746
5.0341,-8.6254,1.3723,-0.7469,-0.0362,-0.0324,0.008,0.0962,0.0834,3474,2019-08-07 16:15:10:751
5.0341,-8.6254,1.3723,-0.7469,-0.0362,-0.0324,0.008,0.0962,0.0834,3479,2019-08-07 16:15:10:756
5.0341,-8.6254,1.3723,-0.7469,-0.0362,-0.0324,0.008,0.0962,0.0834,3484,2019-08-07 16:15:10:761
4.7662,-8.5299,1.4713,-0.7469,-0.0362,-0.0324,0.0133,0.1378,0.0802,3489,2019-08-07 16:15:10:766
4.7662,-8.5299,1.4713,-0.3732,-0.1272,-0.1194,0.0133,0.1378,0.0802,3494,2019-08-07 16:15:10:771
4.6418,-8.5394,1.5467,-0.3732,-0.1272,-0.1194,0.0229,0.1261,0.0834,3499,2019-08-07 16:15:10:776
4.6418,-8.5394,1.5467,-0.3732,-0.1272,-0.1194,0.0229,0.1261,0.0834,3504,2019-08-07 16:15:10:781
4.6418,-8.5394,1.5467,-0.3732,-0.1272,-0.1194,0.0335,0.1037,0.0706,3508,2019-08-07 16:15:10:785
4.3739,-8.4583,1.5373,-0.1112,-0.1896,-0.1876,0.0335,0.1037,0.0706,3514,2019-08-07 16:15:10:791
4.3739,-8.4583,1.5373,-0.1112,-0.1896,-0.1876,0.0335,0.1037,0.0706,3519,2019-08-07 16:15:10:796
4.2352,-8.4296,1.575,-0.1112,-0.1896,-0.1876,0.0367,0.0504,0.0461,3524,2019-08-07 16:15:10:801
4.2352,-8.4296,1.575,0.1041,-0.3022,-0.2268,0.0314,0.0046,0.0302,3529,2019-08-07 16:15:10:806
4.2352,-8.4296,1.575,0.1041,-0.3022,-0.2268,0.0314,0.0046,0.0302,3534,2019-08-07 16:15:10:811
4.2352,-8.4296,1.575,0.1041,-0.3022,-0.2268,0.0314,0.0046,0.0302,3539,2019-08-07 16:15:10:816
4.2543,-8.3819,1.5891,0.1041,-0.3022,-0.2268,0.0197,-0.0518,0.0142,3543,2019-08-07 16:15:10:820
4.2543,-8.3819,1.5891,0.1041,-0.3022,-0.2268,0.0197,-0.0518,0.0142,3549,2019-08-07 16:15:10:826
4.5222,-8.3246,1.4053,-0.0728,-0.3833,-0.0757,5.0E-4,-0.0817,-0.0071,3554,2019-08-07 16:15:10:831
4.5222,-8.3246,1.4053,-0.0728,-0.3833,-0.0757,5.0E-4,-0.0817,-0.0071,3559,2019-08-07 16:15:10:836
4.5222,-8.3246,1.4053,-0.0728,-0.3833,-0.0757,-0.024,-0.07,-0.0263,3564,2019-08-07 16:15:10:841
4.7136,-8.3819,1.3817,-0.0728,-0.3833,-0.0757,-0.024,-0.07,-0.0263,3568,2019-08-07 16:15:10:845
4.7136,-8.3819,1.3817,-0.4036,-0.2751,-0.0512,-0.0325,-0.0114,-0.038,3574,2019-08-07 16:15:10:851
4.728,-8.3533,1.443,-0.4036,-0.2751,-0.0512,-0.0325,-0.0114,-0.038,3578,2019-08-07 16:15:10:855
4.728,-8.3533,1.443,-0.4036,-0.2751,-0.0512,-0.04,0.0217,-0.0306,3584,2019-08-07 16:15:10:861
4.728,-8.3533,1.443,-0.4036,-0.2751,-0.0512,-0.04,0.0217,-0.0306,3590,2019-08-07 16:15:10:867
4.7423,-8.4821,1.5231,-0.3994,-0.2093,-0.1688,-0.0293,0.0323,-0.0188,3594,2019-08-07 16:15:10:871
4.7423,-8.4821,1.5231,-0.3994,-0.2093,-0.1688,-0.0293,0.0323,-0.0188,3600,2019-08-07 16:15:10:877
4.7423,-8.4821,1.5231,-0.3994,-0.2093,-0.1688,-0.0293,0.0323,-0.0188,3604,2019-08-07 16:15:10:881
4.7327,-8.5108,1.3487,-0.3994,-0.2093,-0.1688,-0.0219,0.0206,0.0014,3609,2019-08-07 16:15:10:886
4.7327,-8.5108,1.3487,-0.4097,-0.1789,-0.0716,-0.0219,0.0206,0.0014,3613,2019-08-07 16:15:10:890
4.6849,-8.5872,1.476,-0.4097,-0.1789,-0.0716,-0.0134,0.0163,0.0089,3619,2019-08-07 16:15:10:896
4.6849,-8.5872,1.476,-0.4097,-0.1789,-0.0716,-0.0134,0.0163,0.0089,3624,2019-08-07 16:15:10:901
4.6849,-8.5872,1.476,-0.4097,-0.1789,-0.0716,-0.0038,0.0078,0.0153,3629,2019-08-07 16:15:10:906
4.6323,-8.611,1.3629,-0.2852,-0.0787,-0.011,-0.0038,0.0078,0.0153,3633,2019-08-07 16:15:10:910
4.6323,-8.611,1.3629,-0.2852,-0.0787,-0.011,-6.0E-4,0.0046,0.0174,3639,2019-08-07 16:15:10:916
4.5892,-8.6158,1.3487,-0.2852,-0.0787,-0.011,-6.0E-4,0.0046,0.0174,3644,2019-08-07 16:15:10:921
4.5892,-8.6158,1.3487,-0.2852,-0.0787,-0.011,0.0016,-0.0028,0.0185,3649,2019-08-07 16:15:10:926
4.5892,-8.6158,1.3487,-0.1336,-0.046,-0.0579,0.0016,-0.0028,0.0185,3653,2019-08-07 16:15:10:930
4.5175,-8.6636,1.3817,-0.1336,-0.046,-0.0579,0.0016,-0.0028,0.0185,3659,2019-08-07 16:15:10:936
4.5175,-8.6636,1.3817,-0.1336,-0.046,-0.0579,0.008,-0.0082,0.0121,3664,2019-08-07 16:15:10:941
4.5175,-8.6636,1.3817,-0.1336,-0.046,-0.0579,0.008,-0.0082,0.0121,3668,2019-08-07 16:15:10:945
4.4744,-8.6301,1.4147,-0.1247,-0.0558,-0.1189,0.0037,-0.0327,0.0046,3674,2019-08-07 16:15:10:951
4.4744,-8.6301,1.4147,-0.1247,-0.0558,-0.1189,0.0037,-0.0327,0.0046,3679,2019-08-07 16:15:10:956
4.4792,-8.5633,1.4289,-0.1247,-0.0558,-0.1189,0.0037,-0.0327,0.0046,3683,2019-08-07 16:15:10:960
4.4792,-8.5633,1.4289,-0.1247,-0.0558,-0.1189,0.0048,-0.0721,0.0046,3689,2019-08-07 16:15:10:966
4.6132,-8.4583,1.5326,-0.2707,-0.1602,-0.1226,-0.0016,-0.0923,0.0025,3694,2019-08-07 16:15:10:971
4.6132,-8.4583,1.5326,-0.2707,-0.1602,-0.1226,-0.0016,-0.0923,0.0025,3699,2019-08-07 16:15:10:976
4.6132,-8.4583,1.5326,-0.2707,-0.1602,-0.1226,-0.0016,-0.0923,0.0025,3704,2019-08-07 16:15:10:981
4.7471,-8.4535,1.3346,-0.2707,-0.1602,-0.1226,-0.0048,-0.0966,0.0067,3709,2019-08-07 16:15:10:986
4.7471,-8.4535,1.3346,-0.4386,-0.1785,-0.0038,-0.0048,-0.0966,0.0067,3714,2019-08-07 16:15:10:991
4.7471,-8.4535,1.3346,-0.4386,-0.1785,-0.0038,-0.0123,-0.0668,0.0185,3719,2019-08-07 16:15:10:996
4.8045,-8.5203,1.2874,-0.4386,-0.1785,-0.0038,-0.0123,-0.0668,0.0185,3724,2019-08-07 16:15:11:001
4.8045,-8.5203,1.2874,-0.4386,-0.1785,-0.0038,-0.008,-0.0252,0.0195,3728,2019-08-07 16:15:11:005
4.6849,-8.6301,1.344,-0.3319,-0.0595,-0.0106,-0.008,-0.0252,0.0195,3734,2019-08-07 16:15:11:011
4.6849,-8.6301,1.344,-0.3319,-0.0595,-0.0106,-0.008,-0.0252,0.0195,3738,2019-08-07 16:15:11:015
4.6849,-8.6301,1.344,-0.3319,-0.0595,-0.0106,0.0016,0.0078,0.0142,3744,2019-08-07 16:15:11:021
4.5988,-8.6779,1.3393,-0.3319,-0.0595,-0.0106,0.0016,0.0078,0.0142,3749,2019-08-07 16:15:11:026
4.5988,-8.6779,1.3393,-0.2034,-0.0598,-0.0716,0.0026,3.0E-4,0.011,3754,2019-08-07 16:15:11:031
4.5175,-8.6445,1.4477,-0.2034,-0.0598,-0.0716,0.0026,3.0E-4,0.011,3758,2019-08-07 16:15:11:035
4.5175,-8.6445,1.4477,-0.2034,-0.0598,-0.0716,5.0E-4,-0.0167,0.0099,3764,2019-08-07 16:15:11:041
4.5175,-8.6445,1.4477,-0.2034,-0.0598,-0.0716,5.0E-4,-0.0167,0.0099,3768,2019-08-07 16:15:11:045
4.6132,-8.6445,1.3582,-0.3468,-0.0361,-0.04,-0.0123,-0.0327,0.0131,3774,2019-08-07 16:15:11:051
4.6132,-8.6445,1.3582,-0.3468,-0.0361,-0.04,-0.0123,-0.0327,0.0131,3778,2019-08-07 16:15:11:055
4.6132,-8.6445,1.3582,-0.3468,-0.0361,-0.04,-0.024,-0.038,0.011,3784,2019-08-07 16:15:11:061
4.728,-8.592,1.4194,-0.3468,-0.0361,-0.04,-0.024,-0.038,0.011,3789,2019-08-07 16:15:11:066
4.728,-8.592,1.4194,-0.4218,-0.1652,-0.0986,-0.0283,-0.0327,0.0174,3795,2019-08-07 16:15:11:072
4.728,-8.592,1.4194,-0.4218,-0.1652,-0.0986,-0.0283,-0.0327,0.0174,3798,2019-08-07 16:15:11:075
4.862,-8.5156,1.3912,-0.4218,-0.1652,-0.0986,-0.0283,-0.0327,0.0174,3804,2019-08-07 16:15:11:081
4.862,-8.5156,1.3912,-0.4218,-0.1652,-0.0986,-0.0283,-0.022,0.0163,3809,2019-08-07 16:15:11:086
4.7854,-8.4869,1.3817,-0.4399,-0.2611,-0.0676,-0.0283,-0.022,0.0163,3814,2019-08-07 16:15:11:091
4.7854,-8.4869,1.3817,-0.4399,-0.2611,-0.0676,-0.0197,-0.022,0.0259,3819,2019-08-07 16:15:11:096
4.7854,-8.4869,1.3817,-0.4399,-0.2611,-0.0676,-0.0197,-0.022,0.0259,3823,2019-08-07 16:15:11:100
4.0726,-8.3485,0.7454,-0.4399,-0.2611,-0.0676,-0.1689,-0.3576,0.0408,3829,2019-08-07 16:15:11:106
4.0726,-8.3485,0.7454,0.0091,0.0056,-0.7094,-0.1689,-0.3576,0.0408,3834,2019-08-07 16:15:11:111
4.4266,-8.802,1.9097,0.0091,0.0056,-0.7094,-0.1689,-0.3576,0.0408,3839,2019-08-07 16:15:11:116
4.4266,-8.802,1.9097,0.0091,0.0056,-0.7094,-0.024,-0.2468,0.0312,3845,2019-08-07 16:15:11:122
4.9385,-8.9691,1.3205,0.0091,0.0056,-0.7094,0.0804,-0.2074,0.0195,3850,2019-08-07 16:15:11:127
4.9385,-8.9691,1.3205,0.0091,0.0056,-0.7094,0.0804,-0.2074,0.0195,3854,2019-08-07 16:15:11:131
4.9385,-8.9691,1.3205,-0.9254,0.2625,0.0845,0.0804,-0.2074,0.0195,3859,2019-08-07 16:15:11:136
5.6131,-8.9023,0.7878,-0.9254,0.2625,0.0845,0.1635,0.027,-0.0071,3863,2019-08-07 16:15:11:140
5.6131,-8.9023,0.7878,-0.9254,0.2625,0.0845,0.1635,0.027,-0.0071,3869,2019-08-07 16:15:11:146
4.9816,-8.3294,0.8915,-0.6173,-0.3605,0.4028,0.0761,0.1601,-0.0146,3874,2019-08-07 16:15:11:151
4.9816,-8.3294,0.8915,-0.6173,-0.3605,0.4028,0.0761,0.1601,-0.0146,3879,2019-08-07 16:15:11:156
4.9816,-8.3294,0.8915,-0.6173,-0.3605,0.4028,0.008,0.272,-0.0124,3884,2019-08-07 16:15:11:161
4.5606,-8.3103,1.8201,-0.6173,-0.3605,0.4028,0.008,0.272,-0.0124,3888,2019-08-07 16:15:11:165
4.5606,-8.3103,1.8201,0.061,-0.3092,-0.4801,-0.0123,0.2432,-0.0316,3894,2019-08-07 16:15:11:171
4.5606,-8.3103,1.8201,0.061,-0.3092,-0.4801,-0.0123,0.2432,-0.0316,3899,2019-08-07 16:15:11:176
4.1874,-8.5442,1.8154,0.061,-0.3092,-0.4801,-0.0123,0.2432,-0.0316,3904,2019-08-07 16:15:11:181