ACCELEROMETER X (m/s²),ACCELEROMETER Y (m/s²),ACCELEROMETER Z (m/s²),LINEAR ACCELERATION X (m/s²),LINEAR ACCELERATION Y (m/s²),LINEAR ACCELERATION Z (m/s²),GYROSCOPE X (rad/s),GYROSCOPE Y (rad/s),GYROSCOPE Z (rad/s),Time since start in ms ,YYYY-MO-DD HH-MI-SS_SSS
5.2985,-8.2522,1.1961,-0.1231,0.0084,0.0253,-0.0027,0.0046,0.0131,3,2019-08-07 16:15:44:615
5.2602,-8.2426,1.2621,-0.1231,0.0084,0.0253,0.009,-0.0113,0.0163,8,2019-08-07 16:15:44:620
5.2602,-8.2426,1.2621,-0.1231,0.0084,0.0253,0.009,-0.0113,0.0163,13,2019-08-07 16:15:44:625
5.2602,-8.2426,1.2621,-0.1342,-0.0402,-0.0355,0.0176,-0.0113,0.0173,17,2019-08-07 16:15:44:629
5.2937,-8.2331,1.2715,-0.1342,-0.0402,-0.0355,0.0176,-0.0113,0.0173,23,2019-08-07 16:15:44:635
5.2937,-8.2331,1.2715,-0.1342,-0.0402,-0.0355,0.0218,-0.0145,0.0109,28,2019-08-07 16:15:44:640
5.3607,-8.0994,1.2291,-0.1342,-0.0402,-0.0355,0.0218,-0.0145,0.0109,33,2019-08-07 16:15:44:645
5.3607,-8.0994,1.2291,-0.1591,-0.1026,-0.0051,0.0218,-0.0145,0.0109,37,2019-08-07 16:15:44:649
5.3607,-8.0994,1.2291,-0.1591,-0.1026,-0.0051,0.0122,-0.0145,0.0099,43,2019-08-07 16:15:44:655
5.3894,-8.0899,1.2527,-0.1591,-0.1026,-0.0051,0.0122,-0.0145,0.0099,48,2019-08-07 16:15:44:660
5.3894,-8.0899,1.2527,-0.1591,-0.1026,-0.0051,0.0048,0.0046,0.0099,52,2019-08-07 16:15:44:664
5.3894,-8.0899,1.2527,-0.2546,-0.1357,-0.0227,0.0048,0.0046,0.0099,58,2019-08-07 16:15:44:670
5.3942,-8.0612,1.2574,-0.2546,-0.1357,-0.0227,-0.0037,0.0153,0.0109,62,2019-08-07 16:15:44:674
5.3942,-8.0612,1.2574,-0.2546,-0.1357,-0.0227,-0.0037,0.0153,0.0109,68,2019-08-07 16:15:44:680
5.3942,-8.0612,1.2574,-0.2546,-0.1357,-0.0227,-0.0037,0.0153,0.0109,73,2019-08-07 16:15:44:685
5.3607,-8.1185,1.2338,-0.1837,-0.1075,-0.0454,-0.0059,0.01,0.0216,78,2019-08-07 16:15:44:690
5.3607,-8.1185,1.2338,-0.1837,-0.1075,-0.0454,0.0026,0.0014,0.0141,83,2019-08-07 16:15:44:695
5.3798,-8.1901,1.3375,-0.1837,-0.1075,-0.0454,0.0026,0.0014,0.0141,88,2019-08-07 16:15:44:700
5.3798,-8.1901,1.3375,-0.1837,-0.1075,-0.0454,0.0026,0.0014,0.0141,93,2019-08-07 16:15:44:705
5.3798,-8.1901,1.3375,-0.1749,0.0115,-0.0397,0.0122,-0.0092,0.0024,98,2019-08-07 16:15:44:710
5.3511,-8.2522,1.2385,-0.1749,0.0115,-0.0397,0.0122,-0.0092,0.0024,103,2019-08-07 16:15:44:715
5.3511,-8.2522,1.2385,-0.1749,0.0115,-0.0397,0.0186,-0.0092,3.0E-4,108,2019-08-07 16:15:44:720
5.2937,-8.2856,1.2951,-0.1749,0.0115,-0.0397,0.0229,-7.0E-4,-0.0061,113,2019-08-07 16:15:44:725
5.2937,-8.2856,1.2951,-0.0543,0.0747,-0.0511,0.0229,-7.0E-4,-0.0061,118,2019-08-07 16:15:44:730
5.2937,-8.2856,1.2951,-0.0543,0.0747,-0.0511,0.0229,-7.0E-4,-0.0061,122,2019-08-07 16:15:44:734
5.2458,-8.3047,1.2668,-0.0543,0.0747,-0.0511,0.025,0.0036,-0.0136,128,2019-08-07 16:15:44:740
5.2458,-8.3047,1.2668,-0.0543,0.0747,-0.0511,0.025,0.0036,-0.0136,133,2019-08-07 16:15:44:745
5.2458,-8.3047,1.2668,-0.0755,0.0865,-0.1176,0.0186,-0.0103,-0.021,137,2019-08-07 16:15:44:749
5.2219,-8.3095,1.3847,-0.0755,0.0865,-0.1176,0.0186,-0.0103,-0.021,143,2019-08-07 16:15:44:755
5.2219,-8.3095,1.3847,-0.0755,0.0865,-0.1176,0.0208,-0.0071,-0.021,147,2019-08-07 16:15:44:759
5.3032,-8.276,1.3752,-0.0755,0.0865,-0.1176,0.0208,-0.0071,-0.021,153,2019-08-07 16:15:44:765
5.3032,-8.276,1.3752,-0.1479,-0.0058,-0.1801,0.0144,-0.0103,-0.0263,158,2019-08-07 16:15:44:770
5.3032,-8.276,1.3752,-0.1479,-0.0058,-0.1801,0.0144,-0.0103,-0.0263,163,2019-08-07 16:15:44:775
5.3224,-8.1662,1.3328,-0.1479,-0.0058,-0.1801,0.008,0.0025,-0.0253,167,2019-08-07 16:15:44:779
5.3224,-8.1662,1.3328,-0.1479,-0.0058,-0.1801,0.008,0.0025,-0.0253,173,2019-08-07 16:15:44:785
5.3893,-8.1185,1.3469,-0.205,-0.1169,-0.1072,0.0026,0.0036,-0.0189,178,2019-08-07 16:15:44:790
5.3893,-8.1185,1.3469,-0.205,-0.1169,-0.1072,0.0026,0.0036,-0.0189,182,2019-08-07 16:15:44:794
5.3893,-8.1185,1.3469,-0.205,-0.1169,-0.1072,0.0037,0.0014,-0.0114,188,2019-08-07 16:15:44:800
5.4468,-8.171,1.2857,-0.205,-0.1169,-0.1072,0.0037,0.0014,-0.0114,193,2019-08-07 16:15:44:805
5.4468,-8.171,1.2857,-0.2732,-0.0523,-0.0632,0.008,0.0036,-0.0061,198,2019-08-07 16:15:44:810
5.5329,-8.214,1.3422,-0.2732,-0.0523,-0.0632,0.008,0.0036,-0.0061,203,2019-08-07 16:15:44:815
5.5329,-8.214,1.3422,-0.2732,-0.0523,-0.0632,0.008,0.0036,-0.0061,208,2019-08-07 16:15:44:820
5.5329,-8.214,1.3422,-0.2732,-0.0523,-0.0632,0.0144,0.0068,0.0056,213,2019-08-07 16:15:44:825
5.4946,-8.2044,1.2008,-0.2818,-0.0178,0.0391,0.0144,0.0068,0.0056,218,2019-08-07 16:15:44:830
5.4946,-8.2044,1.2008,-0.2818,-0.0178,0.0391,0.0218,0.0249,0.0141,223,2019-08-07 16:15:44:835
5.3702,-8.2474,1.2904,-0.2818,-0.0178,0.0391,0.0218,0.0249,0.0141,228,2019-08-07 16:15:44:840
5.3702,-8.2474,1.2904,-0.2818,-0.0178,0.0391,0.0208,0.0377,0.0173,233,2019-08-07 16:15:44:845
5.3702,-8.2474,1.2904,-0.155,-0.0278,-0.0529,0.0208,0.0377,0.0173,238,2019-08-07 16:15:44:850
5.2937,-8.1997,1.2951,-0.155,-0.0278,-0.0529,0.0133,0.0472,0.0205,243,2019-08-07 16:15:44:855
5.2937,-8.1997,1.2951,-0.155,-0.0278,-0.0529,0.0133,0.0472,0.0205,248,2019-08-07 16:15:44:860
5.2937,-8.1997,1.2951,-0.155,-0.0278,-0.0529,0.0133,0.0472,0.0205,252,2019-08-07 16:15:44:864
5.2602,-8.2808,1.3705,-0.155,-0.0278,-0.0529,0.0101,0.0387,0.0109,258,2019-08-07 16:15:44:870
5.2602,-8.2808,1.3705,-0.0197,0.0188,-0.1119,0.0101,0.0259,0.0046,263,2019-08-07 16:15:44:875
5.1645,-8.1853,1.2762,-0.0197,0.0188,-0.1119,0.0101,0.0259,0.0046,268,2019-08-07 16:15:44:880
5.1645,-8.1853,1.2762,-0.0197,0.0188,-0.1119,0.0101,0.0259,0.0046,272,2019-08-07 16:15:44:884
5.1645,-8.1853,1.2762,-0.0197,0.0188,-0.1119,0.0058,-0.0028,-0.0018,278,2019-08-07 16:15:44:890
5.241,-8.2044,1.3234,0.0082,-0.0241,-0.0422,0.0058,-0.0028,-0.0018,282,2019-08-07 16:15:44:894
5.241,-8.2044,1.3234,0.0082,-0.0241,-0.0422,0.0058,-0.0135,-0.0061,288,2019-08-07 16:15:44:900
5.241,-8.2044,1.3234,0.0082,-0.0241,-0.0422,0.0058,-0.0135,-0.0061,293,2019-08-07 16:15:44:905
5.2984,-8.1662,1.2857,0.0082,-0.0241,-0.0422,0.009,-0.0252,-0.0082,298,2019-08-07 16:15:44:910
5.2984,-8.1662,1.2857,-0.1761,-0.0418,0.0706,0.009,-0.0252,-0.0082,302,2019-08-07 16:15:44:914
5.4276,-8.1662,1.3045,-0.1761,-0.0418,0.0706,0.009,-0.0252,-0.0082,308,2019-08-07 16:15:44:920
5.4276,-8.1662,1.3045,-0.1761,-0.0418,0.0706,0.0165,-0.0316,-0.0072,313,2019-08-07 16:15:44:925
5.4276,-8.1662,1.3045,-0.1761,-0.0418,0.0706,0.0165,-0.0316,-0.0072,317,2019-08-07 16:15:44:929
5.4802,-8.1376,1.215,-0.2926,-0.0924,0.047,0.0271,-0.0167,0.0014,323,2019-08-07 16:15:44:935
5.4802,-8.1376,1.215,-0.2926,-0.0924,0.047,0.0271,-0.0167,0.0014,328,2019-08-07 16:15:44:940
5.4611,-8.171,1.248,-0.273,-0.0584,0.0156,0.0293,-7.0E-4,0.012,333,2019-08-07 16:15:44:945
5.4611,-8.171,1.248,-0.273,-0.0584,0.0156,0.0293,-7.0E-4,0.012,338,2019-08-07 16:15:44:950
5.4611,-8.171,1.248,-0.273,-0.0584,0.0156,0.0229,0.0014,0.0152,343,2019-08-07 16:15:44:955
5.418,-8.1472,1.2527,-0.273,-0.0584,0.0156,0.0229,0.0014,0.0152,348,2019-08-07 16:15:44:960
5.418,-8.1472,1.2527,-0.1639,-0.0105,-0.06,0.0197,0.01,0.0131,353,2019-08-07 16:15:44:965
5.2936,-8.214,1.3234,-0.1639,-0.0105,-0.06,0.0197,0.01,0.0131,358,2019-08-07 16:15:44:970
5.2936,-8.214,1.3234,-0.1639,-0.0105,-0.06,0.009,0.0163,0.0099,363,2019-08-07 16:15:44:975
5.2936,-8.214,1.3234,-0.1639,-0.0105,-0.06,0.009,0.0163,0.0099,368,2019-08-07 16:15:44:980
5.1836,-8.2283,1.3705,0.0016,-0.0016,-0.0982,0.0037,0.0142,0.0046,373,2019-08-07 16:15:44:985
5.1836,-8.2283,1.3705,0.0016,-0.0016,-0.0982,0.0037,0.0142,0.0046,378,2019-08-07 16:15:44:990
5.1597,-8.276,1.3752,0.0016,-0.0016,-0.0982,0.0016,0.0078,0.0035,383,2019-08-07 16:15:44:995
5.1597,-8.276,1.3752,0.0016,-0.0016,-0.0982,0.0016,0.0078,0.0035,387,2019-08-07 16:15:44:999
5.1597,-8.276,1.3752,0.0103,-0.0256,-0.0956,0.0058,-0.006,-0.004,393,2019-08-07 16:15:45:005
5.1884,-8.1758,1.3139,0.0103,-0.0256,-0.0956,0.0058,-0.006,-0.004,398,2019-08-07 16:15:45:010
5.1884,-8.1758,1.3139,0.0103,-0.0256,-0.0956,0.0026,-0.0241,-0.005,403,2019-08-07 16:15:45:015
5.2793,-8.1806,1.3375,0.0103,-0.0256,-0.0956,0.0026,-0.0241,-0.005,408,2019-08-07 16:15:45:020
5.2793,-8.1806,1.3375,-0.0742,-0.0104,-0.049,0.0069,-0.0401,-0.0072,414,2019-08-07 16:15:45:026
5.2793,-8.1806,1.3375,-0.0742,-0.0104,-0.049,0.0069,-0.0401,-0.0072,417,2019-08-07 16:15:45:029
5.3462,-8.1806,1.2998,-0.0742,-0.0104,-0.049,0.0122,-0.0305,-0.0104,423,2019-08-07 16:15:45:035
5.3462,-8.1806,1.2998,-0.0742,-0.0104,-0.049,0.0122,-0.0305,-0.0104,427,2019-08-07 16:15:45:039
5.3462,-8.1806,1.2998,-0.2189,-0.0561,0.0387,0.0122,-0.0305,-0.0104,433,2019-08-07 16:15:45:045
5.4467,-8.171,1.3234,-0.2189,-0.0561,0.0387,0.0176,-0.0284,-0.0104,438,2019-08-07 16:15:45:050
5.4467,-8.171,1.3234,-0.2189,-0.0561,0.0387,0.0239,-0.0252,-0.0061,443,2019-08-07 16:15:45:055
5.4419,-8.1806,1.3375,-0.2189,-0.0561,0.0387,0.0239,-0.0252,-0.0061,448,2019-08-07 16:15:45:060
5.4419,-8.1806,1.3375,-0.2726,-0.0679,-0.0499,0.0239,-0.0252,-0.0061,453,2019-08-07 16:15:45:065
5.4419,-8.1806,1.3375,-0.2726,-0.0679,-0.0499,0.0261,-0.0177,-0.005,457,2019-08-07 16:15:45:069
5.5185,-8.1662,1.3045,-0.2726,-0.0679,-0.0499,0.025,-0.0071,-8.0E-4,463,2019-08-07 16:15:45:075
5.5185,-8.1662,1.3045,-0.2726,-0.0679,-0.0499,0.025,-0.0071,-8.0E-4,468,2019-08-07 16:15:45:080
5.418,-8.1806,1.3234,-0.2224,-0.0421,-0.0467,0.025,-0.0071,-8.0E-4,473,2019-08-07 16:15:45:085
5.418,-8.1806,1.3234,-0.2224,-0.0421,-0.0467,0.0229,-0.005,-0.0018,478,2019-08-07 16:15:45:090
5.418,-8.1806,1.3234,-0.2224,-0.0421,-0.0467,0.0229,-0.005,-0.0018,483,2019-08-07 16:15:45:095
5.3749,-8.214,1.3328,-0.2224,-0.0421,-0.0467,0.0154,0.0089,0.0024,488,2019-08-07 16:15:45:100
5.3749,-8.214,1.3328,-0.1499,-0.0029,-0.0479,0.0154,0.0089,0.0024,493,2019-08-07 16:15:45:105
5.3319,-8.2188,1.3375,-0.1499,-0.0029,-0.0479,0.008,0.0089,-0.004,498,2019-08-07 16:15:45:110
5.3319,-8.2188,1.3375,-0.1499,-0.0029,-0.0479,0.008,0.0089,-0.004,503,2019-08-07 16:15:45:115
5.3319,-8.2188,1.3375,-0.1499,-0.0029,-0.0479,0.008,0.0089,-0.004,507,2019-08-07 16:15:45:119
5.2553,-8.1424,1.3894,-0.0624,-0.0207,-0.1349,0.0112,-0.0092,-0.005,513,2019-08-07 16:15:45:125
5.2553,-8.1424,1.3894,-0.0624,-0.0207,-0.1349,0.0112,-0.0092,-0.005,517,2019-08-07 16:15:45:129
5.2936,-8.1758,1.3234,-0.0624,-0.0207,-0.1349,0.0122,-0.0135,-0.0136,523,2019-08-07 16:15:45:135
5.2936,-8.1758,1.3234,-0.0624,-0.0207,-0.1349,0.0122,-0.0135,-0.0136,528,2019-08-07 16:15:45:140
5.2936,-8.1758,1.3234,-0.1073,-0.0713,0.0304,5.0E-4,-0.0209,-0.0136,532,2019-08-07 16:15:45:144
5.3032,-8.1567,1.3092,-0.1073,-0.0713,0.0304,5.0E-4,-0.0209,-0.0136,538,2019-08-07 16:15:45:150
5.3032,-8.1567,1.3092,-0.1073,-0.0713,0.0304,5.0E-4,-0.0209,-0.0136,543,2019-08-07 16:15:45:155
5.3462,-8.1662,1.3846,-0.1578,-0.0415,-0.0697,0.009,-0.0433,-0.0136,548,2019-08-07 16:15:45:160
5.3462,-8.1662,1.3846,-0.1578,-0.0415,-0.0697,0.009,-0.0433,-0.0136,553,2019-08-07 16:15:45:165
5.3462,-8.1662,1.3846,-0.1578,-0.0415,-0.0697,0.0176,-0.038,-0.0082,557,2019-08-07 16:15:45:169
5.418,-8.2331,1.3092,-0.2113,-0.0249,-0.0097,0.0176,-0.038,-0.0082,563,2019-08-07 16:15:45:175
5.418,-8.2331,1.3092,-0.2113,-0.0249,-0.0097,0.0165,-0.0412,-0.0061,568,2019-08-07 16:15:45:180
5.4275,-8.1758,1.2856,-0.2113,-0.0249,-0.0097,0.0165,-0.0412,-0.0061,573,2019-08-07 16:15:45:185
5.4275,-8.1758,1.2856,-0.2113,-0.0249,-0.0097,0.009,-0.0433,0.0067,578,2019-08-07 16:15:45:190
5.4275,-8.1758,1.2856,-0.3141,0.0097,-0.0307,0.009,-0.0433,0.0067,583,2019-08-07 16:15:45:195
5.5136,-8.1758,1.2856,-0.3141,0.0097,-0.0307,0.0133,-0.0273,0.0131,587,2019-08-07 16:15:45:199
5.5136,-8.1758,1.2856,-0.3141,0.0097,-0.0307,0.0133,-0.0273,0.0131,593,2019-08-07 16:15:45:205
5.5184,-8.1758,1.2762,-0.3141,0.0097,-0.0307,0.0165,-0.006,0.0152,598,2019-08-07 16:15:45:210
5.5184,-8.1758,1.2762,-0.3141,0.0097,-0.0307,0.0165,-0.006,0.0152,602,2019-08-07 16:15:45:214
5.5184,-8.1758,1.2762,-0.257,-0.0094,-0.0391,0.009,0.0089,0.0152,608,2019-08-07 16:15:45:220
5.4035,-8.1519,1.4082,-0.257,-0.0094,-0.0391,0.009,0.0089,0.0152,613,2019-08-07 16:15:45:225
5.4035,-8.1519,1.4082,-0.257,-0.0094,-0.0391,0.009,0.0089,0.0152,618,2019-08-07 16:15:45:230
5.4035,-8.1519,1.4082,-0.257,-0.0094,-0.0391,0.0026,-0.0092,0.0216,622,2019-08-07 16:15:45:234
5.3796,-8.1089,1.2998,-0.1724,-0.1056,-0.0183,0.0026,-0.0092,0.0216,628,2019-08-07 16:15:45:240
5.3796,-8.1089,1.2998,-0.1724,-0.1056,-0.0183,0.0016,-0.0113,0.0259,633,2019-08-07 16:15:45:245
5.3892,-8.2617,1.3658,-0.1724,-0.1056,-0.0183,0.0016,-0.0113,0.0259,638,2019-08-07 16:15:45:250
5.3892,-8.2617,1.3658,-0.1724,-0.1056,-0.0183,0.009,-7.0E-4,0.0184,643,2019-08-07 16:15:45:255
5.3892,-8.2617,1.3658,-0.1799,-0.0548,-0.1029,0.009,-7.0E-4,0.0184,647,2019-08-07 16:15:45:259
5.3605,-8.1996,1.3516,-0.1799,-0.0548,-0.1029,0.0186,0.0014,0.0131,653,2019-08-07 16:15:45:265
5.3605,-8.1996,1.3516,-0.1799,-0.0548,-0.1029,0.0186,0.0014,0.0131,658,2019-08-07 16:15:45:270
5.3605,-8.1996,1.3516,-0.1799,-0.0548,-0.1029,0.0229,0.0249,0.0067,663,2019-08-07 16:15:45:275
5.3413,-8.1853,1.3563,-0.1382,-0.0311,-0.0702,0.0229,0.0249,0.0067,668,2019-08-07 16:15:45:280
5.3413,-8.1853,1.3563,-0.1382,-0.0311,-0.0702,0.0112,0.0291,0.0014,673,2019-08-07 16:15:45:285
5.2887,-8.1662,1.3799,-0.1382,-0.0311,-0.0702,0.0112,0.0291,0.0014,678,2019-08-07 16:15:45:290
5.2887,-8.1662,1.3799,-0.1382,-0.0311,-0.0702,0.0026,0.0217,0.0024,683,2019-08-07 16:15:45:295
5.2887,-8.1662,1.3799,-0.0766,-0.0449,-0.1493,0.0026,0.0217,0.0024,687,2019-08-07 16:15:45:299
5.2265,-8.1567,1.3846,-0.0766,-0.0449,-0.1493,0.0069,0.0014,-8.0E-4,693,2019-08-07 16:15:45:305
5.2265,-8.1567,1.3846,-0.0766,-0.0449,-0.1493,0.0069,0.0014,-8.0E-4,698,2019-08-07 16:15:45:310
5.3222,-8.1519,1.3846,-0.0766,-0.0449,-0.1493,0.0069,0.0014,-8.0E-4,703,2019-08-07 16:15:45:315
5.3222,-8.1519,1.3846,-0.1384,-0.0491,0.0034,0.008,-0.0177,0.0045,708,2019-08-07 16:15:45:320
5.3222,-8.1519,1.3846,-0.1384,-0.0491,0.0034,0.008,-0.0177,0.0045,713,2019-08-07 16:15:45:325
5.4226,-8.1376,1.3092,-0.1384,-0.0491,0.0034,0.0016,-0.0327,0.0067,718,2019-08-07 16:15:45:330
5.4226,-8.1376,1.3092,-0.1384,-0.0491,0.0034,0.0016,-0.0327,0.0067,723,2019-08-07 16:15:45:335
5.5327,-8.0994,1.2998,-0.2761,-0.1444,-0.0563,-0.0101,-0.039,0.0205,728,2019-08-07 16:15:45:340
5.5327,-8.0994,1.2998,-0.2761,-0.1444,-0.0563,-0.0101,-0.039,0.0205,732,2019-08-07 16:15:45:344
5.5327,-8.0994,1.2998,-0.2761,-0.1444,-0.0563,-0.0133,-0.0284,0.0301,738,2019-08-07 16:15:45:350
5.614,-8.171,1.2055,-0.2761,-0.1444,-0.0563,-0.0133,-0.0284,0.0301,742,2019-08-07 16:15:45:354
5.614,-8.171,1.2055,-0.3636,-0.0602,0.0705,-0.0123,0.0089,0.029,749,2019-08-07 16:15:45:361
5.614,-8.171,1.2055,-0.3636,-0.0602,0.0705,-0.0123,0.0089,0.029,753,2019-08-07 16:15:45:365
5.4657,-8.1519,1.1536,-0.3636,-0.0602,0.0705,-0.0123,0.0089,0.029,758,2019-08-07 16:15:45:370
5.4657,-8.1519,1.1536,-0.3636,-0.0602,0.0705,-0.0165,0.0366,0.029,763,2019-08-07 16:15:45:375
5.37,-8.2187,1.2526,-0.1666,-0.0054,0.1318,-0.0059,0.0654,0.028,768,2019-08-07 16:15:45:380
5.37,-8.2187,1.2526,-0.1666,-0.0054,0.1318,-0.0059,0.0654,0.028,772,2019-08-07 16:15:45:384
5.37,-8.2187,1.2526,-0.1666,-0.0054,0.1318,-0.0059,0.0654,0.028,778,2019-08-07 16:15:45:390
5.1404,-8.2617,1.3893,-0.1666,-0.0054,0.1318,0.0026,0.0622,0.0205,782,2019-08-07 16:15:45:394
5.1404,-8.2617,1.3893,0.1292,-0.0365,-0.0689,0.0058,0.0323,0.0152,788,2019-08-07 16:15:45:400
5.1404,-8.2617,1.3893,0.1292,-0.0365,-0.0689,0.0058,0.0323,0.0152,793,2019-08-07 16:15:45:405
5.0782,-8.2426,1.3469,0.1292,-0.0365,-0.0689,0.0016,4.0E-4,0.0088,798,2019-08-07 16:15:45:410
5.0782,-8.2426,1.3469,0.1292,-0.0365,-0.0689,0.0016,4.0E-4,0.0088,803,2019-08-07 16:15:45:415
5.1212,-8.1996,1.3799,0.0692,-0.0235,-0.0855,0.0037,-0.0316,-0.004,810,2019-08-07 16:15:45:422
5.1212,-8.1996,1.3799,0.0692,-0.0235,-0.0855,0.0037,-0.0316,-0.004,813,2019-08-07 16:15:45:425
5.1212,-8.1996,1.3799,0.0692,-0.0235,-0.0855,0.0037,-0.0316,-0.004,818,2019-08-07 16:15:45:430
5.2408,-8.1996,1.3233,0.0692,-0.0235,-0.0855,0.0058,-0.0348,-0.0072,822,2019-08-07 16:15:45:434
5.2408,-8.1996,1.3233,-0.1535,-0.1085,0.025,0.0058,-0.0348,-0.0072,828,2019-08-07 16:15:45:440
5.4035,-8.1042,1.2243,-0.1535,-0.1085,0.025,-0.0037,-0.0273,-0.0157,834,2019-08-07 16:15:45:446
5.4035,-8.1042,1.2243,-0.1535,-0.1085,0.025,-0.0037,-0.0273,-0.0157,839,2019-08-07 16:15:45:451
5.4035,-8.1042,1.2243,-0.1535,-0.1085,0.025,-0.0037,-0.0273,-0.0157,843,2019-08-07 16:15:45:455
5.4657,-8.128,1.2338,-0.2444,-0.0965,0.0074,-0.0059,-0.0103,-0.0168,848,2019-08-07 16:15:45:460
5.4657,-8.128,1.2338,-0.2444,-0.0965,0.0074,-0.0059,-0.0103,-0.0168,852,2019-08-07 16:15:45:464
5.3987,-8.1662,1.295,-0.1989,-0.052,-0.0069,-0.0037,0.0078,-0.0242,858,2019-08-07 16:15:45:470
5.3987,-8.1662,1.295,-0.1989,-0.052,-0.0069,-0.0037,0.0078,-0.0242,863,2019-08-07 16:15:45:475
5.3987,-8.1662,1.295,-0.1989,-0.052,-0.0069,-0.0091,0.0036,-0.0157,867,2019-08-07 16:15:45:479
5.3891,-8.2378,1.2856,-0.1989,-0.052,-0.0069,-0.0091,0.0036,-0.0157,873,2019-08-07 16:15:45:485
5.3891,-8.2378,1.2856,-0.1759,-0.0353,-0.0406,-0.0091,-0.0039,-0.0146,878,2019-08-07 16:15:45:490
5.3891,-8.2378,1.2856,-0.1759,-0.0353,-0.0406,-0.0091,-0.0039,-0.0146,882,2019-08-07 16:15:45:494
5.3556,-8.2283,1.4129,-0.1759,-0.0353,-0.0406,5.0E-4,-7.0E-4,-0.0093,888,2019-08-07 16:15:45:500
5.3556,-8.2283,1.4129,-0.1759,-0.0353,-0.0406,5.0E-4,-7.0E-4,-0.0093,893,2019-08-07 16:15:45:505
5.4417,-8.1949,1.4035,-0.2358,-0.0195,-0.1158,0.0069,-0.0039,0.0024,898,2019-08-07 16:15:45:510
5.4417,-8.1949,1.4035,-0.2358,-0.0195,-0.1158,0.0069,-0.0039,0.0024,902,2019-08-07 16:15:45:514
5.4417,-8.1949,1.4035,-0.2358,-0.0195,-0.1158,0.0058,0.0014,0.0109,908,2019-08-07 16:15:45:520
5.3748,-8.1662,1.427,-0.2358,-0.0195,-0.1158,0.0058,0.0014,0.0109,913,2019-08-07 16:15:45:525
5.3748,-8.1662,1.427,-0.1746,-0.0295,-0.1143,5.0E-4,-0.0028,0.0205,918,2019-08-07 16:15:45:530
5.4082,-8.2283,1.361,-0.1746,-0.0295,-0.1143,5.0E-4,-0.0028,0.0205,923,2019-08-07 16:15:45:535
5.4082,-8.2283,1.361,-0.1746,-0.0295,-0.1143,-0.0037,0.011,0.0269,928,2019-08-07 16:15:45:540
5.4082,-8.2283,1.361,-0.1763,-0.021,-0.0811,-0.0037,0.011,0.0269,933,2019-08-07 16:15:45:545
5.3317,-8.1805,1.3328,-0.1763,-0.021,-0.0811,-0.0112,0.0206,0.0237,938,2019-08-07 16:15:45:550
5.3317,-8.1805,1.3328,-0.1763,-0.021,-0.0811,-0.0112,0.0206,0.0237,943,2019-08-07 16:15:45:555
5.2934,-8.1519,1.3422,-0.0941,-0.0662,-0.0516,-0.0144,0.0302,0.0248,948,2019-08-07 16:15:45:560
5.2934,-8.1519,1.3422,-0.0941,-0.0662,-0.0516,-0.0144,0.0302,0.0248,952,2019-08-07 16:15:45:564
5.2934,-8.1519,1.3422,-0.0941,-0.0662,-0.0516,-0.0208,0.0355,0.0216,958,2019-08-07 16:15:45:570
5.3317,-8.1471,1.3375,-0.0941,-0.0662,-0.0516,-0.0208,0.0355,0.0216,963,2019-08-07 16:15:45:575
5.3317,-8.1471,1.3375,-0.1024,-0.0063,-0.0373,-0.0208,0.0355,0.0216,968,2019-08-07 16:15:45:580
5.3317,-8.1471,1.3375,-0.1024,-0.0063,-0.0373,-0.0251,0.0185,0.0163,972,2019-08-07 16:15:45:584
5.3173,-8.2044,1.3563,-0.1024,-0.0063,-0.0373,-0.0251,0.0185,0.0163,978,2019-08-07 16:15:45:590
5.3173,-8.2044,1.3563,-0.1656,0.0215,0.0137,-0.0112,0.011,0.0056,982,2019-08-07 16:15:45:594
5.3412,-8.2522,1.295,-0.1656,0.0215,0.0137,-0.0112,0.011,0.0056,988,2019-08-07 16:15:45:600
5.3412,-8.2522,1.295,-0.1656,0.0215,0.0137,0.0037,0.0036,0.0024,993,2019-08-07 16:15:45:605
5.3412,-8.2522,1.295,-0.1656,0.0215,0.0137,0.0037,0.0036,0.0024,997,2019-08-07 16:15:45:609
5.4465,-8.2522,1.2526,-0.2085,0.0598,0.0283,0.0133,0.0089,-0.0018,1002,2019-08-07 16:15:45:614
5.4465,-8.2522,1.2526,-0.2085,0.0598,0.0283,0.0133,0.0089,-0.0018,1008,2019-08-07 16:15:45:620
5.3412,-8.214,1.3375,-0.2085,0.0598,0.0283,0.0218,0.0057,-0.0072,1013,2019-08-07 16:15:45:625
5.3412,-8.214,1.3375,-0.2085,0.0598,0.0283,0.0218,0.0057,-0.0072,1018,2019-08-07 16:15:45:630
5.3412,-8.214,1.3375,-0.1351,-0.0054,-0.0105,0.0218,0.0057,-0.0072,1023,2019-08-07 16:15:45:635
5.2838,-8.2092,1.2809,-0.1351,-0.0054,-0.0105,0.0218,4.0E-4,-0.0029,1028,2019-08-07 16:15:45:640
5.2838,-8.2092,1.2809,-0.0914,-0.0428,-0.0178,0.0218,4.0E-4,-0.0029,1033,2019-08-07 16:15:45:645
5.2838,-8.2092,1.2809,-0.0914,-0.0428,-0.0178,0.0154,-0.0135,-0.005,1038,2019-08-07 16:15:45:650
5.279,-8.128,1.2903,-0.0914,-0.0428,-0.0178,0.0154,-0.0135,-0.005,1043,2019-08-07 16:15:45:655
5.279,-8.128,1.2903,-0.0914,-0.0428,-0.0178,0.009,-0.0188,-0.0018,1048,2019-08-07 16:15:45:660
5.2408,-8.1662,1.3469,-0.0564,-0.0417,-0.0261,0.009,-0.0188,-0.0018,1052,2019-08-07 16:15:45:664
5.2408,-8.1662,1.3469,-0.0564,-0.0417,-0.0261,0.0122,-0.0145,-0.0018,1058,2019-08-07 16:15:45:670
5.2455,-8.1519,1.2809,-0.0564,-0.0417,-0.0261,0.0122,-0.0145,-0.0018,1063,2019-08-07 16:15:45:675
5.2455,-8.1519,1.2809,-0.0564,-0.0417,-0.0261,0.0144,-0.0103,-0.0029,1068,2019-08-07 16:15:45:680
5.2455,-8.1519,1.2809,-0.0024,-0.0741,-0.0395,0.0144,-0.0103,-0.0029,1073,2019-08-07 16:15:45:685
5.2168,-8.1471,1.3327,-0.0024,-0.0741,-0.0395,0.0176,-0.0177,-0.0029,1078,2019-08-07 16:15:45:690
5.2168,-8.1471,1.3327,-0.0024,-0.0741,-0.0395,0.0176,-0.0177,-0.0029,1083,2019-08-07 16:15:45:695
5.3269,-8.2856,1.2668,-0.0024,-0.0741,-0.0395,0.0176,-0.022,-0.004,1088,2019-08-07 16:15:45:700
5.3269,-8.2856,1.2668,-0.1826,0.0272,0.032,0.0176,-0.022,-0.004,1092,2019-08-07 16:15:45:704
5.3651,-8.2712,1.3657,-0.1826,0.0272,0.032,0.0261,-0.0273,-0.0189,1099,2019-08-07 16:15:45:711
5.3651,-8.2712,1.3657,-0.1826,0.0272,0.032,0.0261,-0.0273,-0.0189,1102,2019-08-07 16:15:45:714
5.3651,-8.2712,1.3657,-0.1826,0.0272,0.032,0.0261,-0.0273,-0.0189,1108,2019-08-07 16:15:45:720
5.3795,-8.2474,1.2997,-0.1734,0.0354,0.0025,0.0463,-0.0113,-0.0189,1113,2019-08-07 16:15:45:725
5.3795,-8.2474,1.2997,-0.1734,0.0354,0.0025,0.0463,-0.0113,-0.0189,1117,2019-08-07 16:15:45:729
5.3795,-8.2474,1.2997,-0.1734,0.0354,0.0025,0.041,-0.0135,-0.0178,1123,2019-08-07 16:15:45:735
5.4369,-8.1567,1.2997,-0.1734,0.0354,0.0025,0.041,-0.0135,-0.0178,1128,2019-08-07 16:15:45:740
5.4369,-8.1567,1.2997,-0.1738,-0.0563,-0.095,0.0357,-0.005,-0.0146,1133,2019-08-07 16:15:45:745
5.4273,-8.0898,1.3987,-0.1738,-0.0563,-0.095,0.0357,-0.005,-0.0146,1138,2019-08-07 16:15:45:750
5.4273,-8.0898,1.3987,-0.1738,-0.0563,-0.095,0.0176,4.0E-4,-0.0093,1143,2019-08-07 16:15:45:755
5.4273,-8.0898,1.3987,-0.1738,-0.0563,-0.095,0.0176,4.0E-4,-0.0093,1148,2019-08-07 16:15:45:760
5.4512,-8.1519,1.3799,-0.2373,-0.0536,-0.0682,-0.008,0.0078,-0.0104,1153,2019-08-07 16:15:45:765
5.4512,-8.1519,1.3799,-0.2373,-0.0536,-0.0682,-0.008,0.0078,-0.0104,1158,2019-08-07 16:15:45:770
5.4512,-8.1519,1.3799,-0.2373,-0.0536,-0.0682,-0.0144,0.0132,-0.0082,1163,2019-08-07 16:15:45:775
5.4034,-8.1758,1.394,-0.2373,-0.0536,-0.0682,-0.0144,0.0132,-0.0082,1168,2019-08-07 16:15:45:780
5.4034,-8.1758,1.394,-0.1631,-0.0425,-0.134,-0.0144,0.0132,-0.0082,1173,2019-08-07 16:15:45:785
5.3412,-8.2092,1.3657,-0.1631,-0.0425,-0.134,-0.0101,0.0238,-0.005,1178,2019-08-07 16:15:45:790
5.3412,-8.2092,1.3657,-0.1631,-0.0425,-0.134,-0.0101,0.0238,-0.005,1183,2019-08-07 16:15:45:795
5.3412,-8.2092,1.3657,-0.1631,-0.0425,-0.134,-0.0112,0.027,-0.004,1188,2019-08-07 16:15:45:800
5.3555,-8.2569,1.4223,-0.153,0.0297,-0.1606,-0.0112,0.027,-0.004,1192,2019-08-07 16:15:45:804
5.3555,-8.2569,1.4223,-0.153,0.0297,-0.1606,5.0E-4,0.0355,-0.0125,1199,2019-08-07 16:15:45:811
5.3651,-8.276,1.4176,-0.153,0.0297,-0.1606,5.0E-4,0.0355,-0.0125,1203,2019-08-07 16:15:45:815
5.3651,-8.276,1.4176,-0.153,0.0297,-0.1606,5.0E-4,0.0355,-0.0125,1208,2019-08-07 16:15:45:820
5.3651,-8.276,1.4176,-0.1889,-0.0015,-4.0E-4,0.0048,0.0419,-0.0178,1213,2019-08-07 16:15:45:825
5.4321,-8.2426,1.2526,-0.1889,-0.0015,-4.0E-4,0.0048,0.0419,-0.0178,1217,2019-08-07 16:15:45:829
5.4321,-8.2426,1.2526,-0.1889,-0.0015,-4.0E-4,0.008,0.0643,-0.021,1223,2019-08-07 16:15:45:835
5.2933,-8.2712,1.3092,-0.1889,-0.0015,-4.0E-4,0.008,0.0643,-0.021,1228,2019-08-07 16:15:45:840
5.2933,-8.2712,1.3092,-0.0096,0.0586,-0.0722,0.0122,0.0845,-0.0242,1233,2019-08-07 16:15:45:845
5.2933,-8.2712,1.3092,-0.0096,0.0586,-0.0722,0.0122,0.0845,-0.0242,1237,2019-08-07 16:15:45:849
5.1881,-8.2999,1.3704,-0.0096,0.0586,-0.0722,0.0069,0.0845,-0.0231,1243,2019-08-07 16:15:45:855
5.1881,-8.2999,1.3704,0.0244,0.1028,-0.0526,0.0069,0.0845,-0.0231,1249,2019-08-07 16:15:45:861
5.1881,-8.2999,1.3704,0.0244,0.1028,-0.0526,-0.0037,0.0345,-0.0231,1253,2019-08-07 16:15:45:865
5.1976,-8.3047,1.3799,0.0244,0.1028,-0.0526,-0.0037,0.0345,-0.0231,1258,2019-08-07 16:15:45:870
5.1976,-8.3047,1.3799,0.0244,0.1028,-0.0526,-0.0037,0.0345,-0.0231,1263,2019-08-07 16:15:45:875
5.1976,-8.3047,1.3799,-0.0643,0.2004,-9.0E-4,-0.0016,0.0206,-0.0242,1268,2019-08-07 16:15:45:880
5.322,-8.3954,1.3139,-0.0643,0.2004,-9.0E-4,-0.0016,0.0206,-0.0242,1273,2019-08-07 16:15:45:885
5.322,-8.3954,1.3139,-0.0643,0.2004,-9.0E-4,0.0048,0.043,-0.0253,1278,2019-08-07 16:15:45:890
5.3364,-8.3715,1.262,-0.1093,0.179,0.0783,0.0048,0.043,-0.0253,1283,2019-08-07 16:15:45:895
5.3364,-8.3715,1.262,-0.1093,0.179,0.0783,0.0133,0.0579,-0.0146,1288,2019-08-07 16:15:45:900
5.3364,-8.3715,1.262,-0.1093,0.179,0.0783,0.0133,0.0579,-0.0146,1293,2019-08-07 16:15:45:905
5.3842,-8.4001,1.262,-0.1093,0.179,0.0783,0.0293,0.0749,-0.0114,1299,2019-08-07 16:15:45:911
5.3842,-8.4001,1.262,-0.1282,0.2572,0.0838,0.0293,0.0749,-0.0114,1303,2019-08-07 16:15:45:915
5.3842,-8.4001,1.262,-0.1282,0.2572,0.0838,0.0293,0.0749,-0.0114,1308,2019-08-07 16:15:45:920
5.2646,-8.381,1.3092,-0.1282,0.2572,0.0838,0.0453,0.1058,-0.0231,1313,2019-08-07 16:15:45:925
5.2646,-8.381,1.3092,-0.1282,0.2572,0.0838,0.0453,0.1058,-0.0231,1318,2019-08-07 16:15:45:930
5.0876,-8.4097,1.3422,-0.1282,0.2572,0.0838,0.0431,0.1186,-0.0263,1323,2019-08-07 16:15:45:935
5.0876,-8.4097,1.3422,0.1685,0.1982,-0.0062,0.0431,0.1186,-0.0263,1329,2019-08-07 16:15:45:941
5.0876,-8.4097,1.3422,0.1685,0.1982,-0.0062,0.0378,0.1218,-0.037,1332,2019-08-07 16:15:45:944
4.9345,-8.3954,1.493,0.1685,0.1982,-0.0062,0.0378,0.1218,-0.037,1338,2019-08-07 16:15:45:950
4.9345,-8.3954,1.493,0.1685,0.1982,-0.0062,0.0378,0.1325,-0.0519,1343,2019-08-07 16:15:45:955
4.6953,-8.4813,1.5024,0.4511,0.2448,-0.1132,0.0378,0.1325,-0.0519,1348,2019-08-07 16:15:45:960
4.6953,-8.4813,1.5024,0.4511,0.2448,-0.1132,0.0314,0.1421,-0.0679,1353,2019-08-07 16:15:45:965
4.6953,-8.4813,1.5024,0.4511,0.2448,-0.1132,0.0314,0.1421,-0.0679,1358,2019-08-07 16:15:45:970
4.3699,-8.6531,1.5213,0.4511,0.2448,-0.1132,0.025,0.1548,-0.0849,1363,2019-08-07 16:15:45:975
4.3699,-8.6531,1.5213,1.0078,0.641,-0.1249,0.025,0.1548,-0.0849,1368,2019-08-07 16:15:45:980
4.3699,-8.6531,1.5213,1.0078,0.641,-0.1249,0.0144,0.1655,-0.1307,1372,2019-08-07 16:15:45:984
3.9824,-9.2642,1.6721,1.0078,0.641,-0.1249,0.0144,0.1655,-0.1307,1378,2019-08-07 16:15:45:990
3.9824,-9.2642,1.6721,1.0078,0.641,-0.1249,0.0239,0.1666,-0.1755,1384,2019-08-07 16:15:45:996
3.7384,-10.028,1.724,1.4549,1.7138,-0.3103,0.0239,0.1666,-0.1755,1387,2019-08-07 16:15:45:999
3.7384,-10.028,1.724,1.4549,1.7138,-0.3103,0.0421,0.1772,-0.2213,1393,2019-08-07 16:15:46:005
3.7384,-10.028,1.724,1.4549,1.7138,-0.3103,0.0421,0.1772,-0.2213,1398,2019-08-07 16:15:46:010
3.4035,-10.9971,1.6721,1.4549,1.7138,-0.3103,0.0612,0.1921,-0.2831,1403,2019-08-07 16:15:46:015
3.4035,-10.9971,1.6721,2.0514,3.2386,-0.1178,0.0612,0.1921,-0.2831,1408,2019-08-07 16:15:46:020
2.9729,-11.8611,1.493,2.0514,3.2386,-0.1178,0.0612,0.1921,-0.2831,1412,2019-08-07 16:15:46:024
2.9729,-11.8611,1.493,2.0514,3.2386,-0.1178,0.0783,0.1783,-0.3022,1418,2019-08-07 16:15:46:030
2.9729,-11.8611,1.493,2.0514,3.2386,-0.1178,0.0783,0.1783,-0.3022,1423,2019-08-07 16:15:46:035
2.3271,-13.2312,1.2667,3.0176,5.4099,0.3448,0.1624,0.2102,-0.2564,1427,2019-08-07 16:15:46:039
2.3271,-13.2312,1.2667,3.0176,5.4099,0.3448,0.1624,0.2102,-0.2564,1433,2019-08-07 16:15:46:045
1.8821,-15.4845,1.196,3.0176,5.4099,0.3448,0.3968,0.2795,-0.1393,1438,2019-08-07 16:15:46:050
1.8821,-15.4845,1.196,3.0176,5.4099,0.3448,0.3968,0.2795,-0.1393,1443,2019-08-07 16:15:46:055
1.8821,-15.4845,1.196,3.6074,8.5404,0.3164,0.7355,0.4883,0.0045,1448,2019-08-07 16:15:46:060
1.5951,-17.5086,1.3893,3.6074,8.5404,0.3164,0.7355,0.4883,0.0045,1453,2019-08-07 16:15:46:065
1.5951,-17.5086,1.3893,3.6074,8.5404,0.3164,1.3417,1.235,0.1974,1458,2019-08-07 16:15:46:070
1.5951,-17.5086,1.3893,3.6074,8.5404,0.3164,1.3417,1.235,0.1974,1463,2019-08-07 16:15:46:075
-0.0412,-19.0887,1.163,5.6829,11.1456,0.9249,1.3417,1.235,0.1974,1467,2019-08-07 16:15:46:079
-0.0412,-19.0887,1.163,5.6829,11.1456,0.9249,1.9979,2.8819,0.4051,1473,2019-08-07 16:15:46:085
-0.0412,-19.0887,1.163,5.6829,11.1456,0.9249,1.9979,2.8819,0.4051,1478,2019-08-07 16:15:46:090
-3.6006,-21.4422,-1.6794,5.6829,11.1456,0.9249,2.2791,4.8814,0.5127,1484,2019-08-07 16:15:46:096
-3.6006,-21.4422,-1.6794,11.2051,15.4739,7.1959,2.2791,4.8814,0.5127,1488,2019-08-07 16:15:46:100
-8.2748,-25.3042,-6.3838,11.2051,15.4739,7.1959,2.1385,7.1749,0.5201,1492,2019-08-07 16:15:46:104
-8.2748,-25.3042,-6.3838,14.7501,18.2368,9.925,2.1385,7.1749,0.5201,1498,2019-08-07 16:15:46:110
-8.2748,-25.3042,-6.3838,14.7501,18.2368,9.925,2.1385,7.1749,0.5201,1503,2019-08-07 16:15:46:115
-8.2748,-25.3042,-6.3838,14.7501,18.2368,9.925,1.8061,8.956,0.3848,1508,2019-08-07 16:15:46:120
-14.724,-29.4431,-10.1077,18.9983,21.3784,13.7032,1.8061,8.956,0.3848,1513,2019-08-07 16:15:46:125
-14.724,-29.4431,-10.1077,18.9983,21.3784,13.7032,1.6985,10.1172,0.1622,1518,2019-08-07 16:15:46:130
-16.011,-31.8825,-2.7447,18.9983,21.3784,13.7032,1.6985,10.1172,0.1622,1523,2019-08-07 16:15:46:135
-16.011,-31.8825,-2.7447,18.3886,23.6575,6.0419,2.3356,9.9233,-0.3907,1528,2019-08-07 16:15:46:140
-11.1023,-30.3788,1.3186,18.3886,23.6575,6.0419,2.3356,9.9233,-0.3907,1534,2019-08-07 16:15:46:146
-11.1023,-30.3788,1.3186,18.3886,23.6575,6.0419,2.3356,9.9233,-0.3907,1538,2019-08-07 16:15:46:150
-11.1023,-30.3788,1.3186,18.3886,23.6575,6.0419,3.3518,6.5624,-0.9648,1542,2019-08-07 16:15:46:154
-5.4809,-29.5481,-0.0154,8.1559,21.9224,5.5767,3.3518,6.5624,-0.9648,1548,2019-08-07 16:15:46:160
-5.4809,-29.5481,-0.0154,8.1559,21.9224,5.5767,3.828,2.4547,-1.4037,1553,2019-08-07 16:15:46:165
-5.4809,-29.5481,-0.0154,8.1559,21.9224,5.5767,3.828,2.4547,-1.4037,1558,2019-08-07 16:15:46:170
-0.3187,-26.0203,1.5118,8.1559,21.9224,5.5767,4.072,1.5205,-1.7617,1563,2019-08-07 16:15:46:175
-0.3187,-26.0203,1.5118,2.5272,15.2816,20.0959,4.072,1.5205,-1.7617,1568,2019-08-07 16:15:46:180
-0.3187,-26.0203,1.5118,2.5272,15.2816,20.0959,4.9796,6.2077,-2.6267,1573,2019-08-07 16:15:46:185
5.8195,-20.0291,-5.9878,2.5272,15.2816,20.0959,4.9796,6.2077,-2.6267,1578,2019-08-07 16:15:46:190
5.8195,-20.0291,-5.9878,2.5272,15.2816,20.0959,5.6315,6.7723,-3.7345,1583,2019-08-07 16:15:46:195
6.2836,-13.4604,4.7691,-4.0999,7.193,2.455,5.6315,6.7723,-3.7345,1588,2019-08-07 16:15:46:200
6.2836,-13.4604,4.7691,-4.0999,7.193,2.455,6.5593,6.2545,-4.5058,1593,2019-08-07 16:15:46:205
6.2836,-13.4604,4.7691,-4.0999,7.193,2.455,6.5593,6.2545,-4.5058,1598,2019-08-07 16:15:46:210
-1.3186,-3.0296,5.9381,-4.0999,7.193,2.455,8.9626,7.404,-4.9287,1603,2019-08-07 16:15:46:215
-1.3186,-3.0296,5.9381,-4.0999,7.193,2.455,8.9626,7.404,-4.9287,1608,2019-08-07 16:15:46:220
-8.7772,17.1923,18.4014,7.4675,-11.1225,-2.1163,10.7512,6.3451,-4.0094,1612,2019-08-07 16:15:46:224
-8.7772,17.1923,18.4014,7.4675,-11.1225,-2.1163,10.7512,6.3451,-4.0094,1618,2019-08-07 16:15:46:230
-8.7772,17.1923,18.4014,7.4675,-11.1225,-2.1163,10.7512,6.3451,-4.0094,1623,2019-08-07 16:15:46:235
-16.9439,87.4964,19.1085,7.4675,-11.1225,-2.1163,11.1975,0.8654,-1.8181,1627,2019-08-07 16:15:46:239
-16.9439,87.4964,19.1085,9.4333,-105.1836,2.005,11.1975,0.8654,-1.8181,1633,2019-08-07 16:15:46:245
19.866,69.9048,-22.4956,9.4333,-105.1836,2.005,13.1789,0.826,-1.017,1638,2019-08-07 16:15:46:250
19.866,69.9048,-22.4956,9.4333,-105.1836,2.005,13.1789,0.826,-1.017,1642,2019-08-07 16:15:46:254
19.866,69.9048,-22.4956,-21.7293,-50.4392,38.1761,5.3769,-3.7387,-2.4562,1648,2019-08-07 16:15:46:260
19.8708,52.4136,-27.1623,-21.7293,-50.4392,38.1761,5.3769,-3.7387,-2.4562,1653,2019-08-07 16:15:46:265
19.8708,52.4136,-27.1623,-21.7293,-50.4392,38.1761,5.3769,-3.7387,-2.4562,1658,2019-08-07 16:15:46:270
19.8708,52.4136,-27.1623,-21.7293,-50.4392,38.1761,-1.6293,-0.9648,-0.5611,1663,2019-08-07 16:15:46:275
12.3213,49.7307,-15.4767,-5.2496,-48.662,6.0807,-1.6293,-0.9648,-0.5611,1668,2019-08-07 16:15:46:280
12.3213,49.7307,-15.4767,-5.2496,-48.662,6.0807,-5.5282,1.3447,2.1372,1673,2019-08-07 16:15:46:285
1.8294,43.6011,10.864,-5.2496,-48.662,6.0807,-5.5282,1.3447,2.1372,1678,2019-08-07 16:15:46:290
1.8294,43.6011,10.864,0.8851,-36.7897,2.5278,-7.8974,-2.3496,4.0685,1684,2019-08-07 16:15:46:296
1.8294,43.6011,10.864,0.8851,-36.7897,2.5278,-7.8974,-2.3496,4.0685,1688,2019-08-07 16:15:46:300
4.0732,21.7561,6.6593,0.8851,-36.7897,2.5278,-8.3043,-0.8476,4.6619,1692,2019-08-07 16:15:46:304
4.0732,21.7561,6.6593,0.8851,-36.7897,2.5278,-8.3043,-0.8476,4.6619,1698,2019-08-07 16:15:46:310
13.9288,13.5213,26.9853,-14.027,-16.4869,-25.265,-3.9431,-2.8524,3.1982,1703,2019-08-07 16:15:46:315
13.9288,13.5213,26.9853,-14.027,-16.4869,-25.265,-3.9431,-2.8524,3.1982,1707,2019-08-07 16:15:46:319
7.1878,15.8222,13.6452,-14.027,-16.4869,-25.265,-2.0469,-1.719,2.4589,1713,2019-08-07 16:15:46:325
7.1878,15.8222,13.6452,-14.027,-16.4869,-25.265,-2.0469,-1.719,2.4589,1717,2019-08-07 16:15:46:329
7.1878,15.8222,13.6452,-0.6702,-20.029,4.0808,-2.0469,-1.719,2.4589,1723,2019-08-07 16:15:46:335
-0.9455,15.6217,-6.1528,-0.6702,-20.029,4.0808,-3.0259,-3.074,2.5761,1728,2019-08-07 16:15:46:340
-0.9455,15.6217,-6.1528,3.338,-18.4937,16.4552,-3.0259,-3.074,2.5761,1733,2019-08-07 16:15:46:345
-0.9455,15.6217,-6.1528,3.338,-18.4937,16.4552,-4.757,-3.3009,3.0725,1738,2019-08-07 16:15:46:350
0.3846,9.2057,-6.4027,3.338,-18.4937,16.4552,-4.757,-3.3009,3.0725,1742,2019-08-07 16:15:46:354
0.3846,9.2057,-6.4027,3.338,-18.4937,16.4552,-6.3847,-4.0199,3.2451,1748,2019-08-07 16:15:46:360
0.3846,9.2057,-6.4027,-1.3551,-7.3975,4.7314,-6.3847,-4.0199,3.2451,1753,2019-08-07 16:15:46:365
4.6186,0.3121,10.4964,-1.3551,-7.3975,4.7314,-7.1293,-5.8341,2.7859,1757,2019-08-07 16:15:46:369
4.6186,0.3121,10.4964,-1.3551,-7.3975,4.7314,-7.1293,-5.8341,2.7859,1763,2019-08-07 16:15:46:375
0.9826,-3.168,13.2304,-1.3551,-7.3975,4.7314,-5.8947,-7.383,1.9923,1768,2019-08-07 16:15:46:380
0.9826,-3.168,13.2304,3.3258,-1.9703,-2.2296,-5.8947,-7.383,1.9923,1773,2019-08-07 16:15:46:385
0.9826,-3.168,13.2304,3.3258,-1.9703,-2.2296,-5.002,-7.546,1.6355,1778,2019-08-07 16:15:46:390
-1.1177,-8.1948,3.5671,3.3258,-1.9703,-2.2296,-5.002,-7.546,1.6355,1783,2019-08-07 16:15:46:395
-1.1177,-8.1948,3.5671,3.3258,-1.9703,-2.2296,-5.1042,-7.4405,1.449,1788,2019-08-07 16:15:46:400
-1.1177,-8.1948,3.5671,4.0128,6.5255,5.647,-5.1042,-7.4405,1.449,1793,2019-08-07 16:15:46:405
0.6333,-14.9498,0.1637,4.0128,6.5255,5.647,-5.4536,-6.9462,1.3489,1798,2019-08-07 16:15:46:410
0.6333,-14.9498,0.1637,4.0128,6.5255,5.647,-5.4536,-6.9462,1.3489,1803,2019-08-07 16:15:46:415
0.6333,-14.9498,0.1637,4.0128,6.5255,5.647,-5.4536,-6.9462,1.3489,1808,2019-08-07 16:15:46:420
4.0301,-39.4347,-5.969,-1.036,34.5049,9.377,-6.1578,-6.2016,1.6877,1812,2019-08-07 16:15:46:424
4.0301,-39.4347,-5.969,-1.036,34.5049,9.377,-6.1556,-5.3494,1.3084,1818,2019-08-07 16:15:46:430
7.4222,-32.7227,1.3421,-1.036,34.5049,9.377,-6.1556,-5.3494,1.3084,1824,2019-08-07 16:15:46:436
7.4222,-32.7227,1.3421,-1.036,34.5049,9.377,-6.1556,-5.3494,1.3084,1828,2019-08-07 16:15:46:440
1.0352,-16.0,2.596,2.4637,9.1697,-0.7048,-4.4289,-4.201,0.6107,1833,2019-08-07 16:15:46:445
1.0352,-16.0,2.596,2.4637,9.1697,-0.7048,-4.4289,-4.201,0.6107,1838,2019-08-07 16:15:46:450
1.0352,-16.0,2.596,2.4637,9.1697,-0.7048,-1.4962,-2.2154,0.4658,1843,2019-08-07 16:15:46:455
-3.3902,-19.6616,2.8176,2.4637,9.1697,-0.7048,-1.4962,-2.2154,0.4658,1848,2019-08-07 16:15:46:460
-3.3902,-19.6616,2.8176,8.6213,15.8836,-1.3709,-0.335,-2.1195,0.8568,1853,2019-08-07 16:15:46:465
-4.237,-26.4308,-9.4289,8.6213,15.8836,-1.3709,-0.335,-2.1195,0.8568,1858,2019-08-07 16:15:46:470
-4.237,-26.4308,-9.4289,8.6213,15.8836,-1.3709,-1.3652,-1.7158,1.0954,1863,2019-08-07 16:15:46:475
-4.237,-26.4308,-9.4289,8.6213,15.8836,-1.3709,-1.3652,-1.7158,1.0954,1868,2019-08-07 16:15:46:480
-10.7532,-25.0751,1.6061,15.3473,16.6755,0.5333,-1.9862,0.0941,1.3052,1872,2019-08-07 16:15:46:484
-10.7532,-25.0751,1.6061,15.3473,16.6755,0.5333,-1.9862,0.0941,1.3052,1878,2019-08-07 16:15:46:490
-10.7532,-25.0751,1.6061,15.3473,16.6755,0.5333,-1.1585,0.8547,1.5066,1883,2019-08-07 16:15:46:495
-9.0261,-23.4186,6.3576,15.3473,16.6755,0.5333,-1.1585,0.8547,1.5066,1887,2019-08-07 16:15:46:499
-9.0261,-23.4186,6.3576,10.2626,12.3002,-6.7602,0.4447,1.1264,0.8919,1893,2019-08-07 16:15:46:505
-5.3566,-20.0196,8.4411,10.2626,12.3002,-6.7602,0.4447,1.1264,0.8919,1898,2019-08-07 16:15:46:510
-5.3566,-20.0196,8.4411,10.2626,12.3002,-6.7602,2.196,1.3128,-0.2501,1903,2019-08-07 16:15:46:515
-5.3566,-20.0196,8.4411,10.2626,12.3002,-6.7602,2.196,1.3128,-0.2501,1908,2019-08-07 16:15:46:520
-6.5144,-16.4249,3.3644,10.2626,12.3002,-6.7602,2.196,1.3128,-0.2501,1912,2019-08-07 16:15:46:524
-6.5144,-16.4249,3.3644,11.2174,7.503,8.2828,2.7702,1.6004,-1.0756,1918,2019-08-07 16:15:46:530
-6.5144,-16.4249,3.3644,11.2174,7.503,8.2828,2.7702,1.6004,-1.0756,1923,2019-08-07 16:15:46:535
-8.9926,-11.2787,-2.0612,11.2174,7.503,8.2828,1.51,1.6856,-1.2226,1927,2019-08-07 16:15:46:539
-8.9926,-11.2787,-2.0612,12.6628,-0.5597,0.294,1.51,1.6856,-1.2226,1933,2019-08-07 16:15:46:545
-6.2177,-7.0062,4.8351,12.6628,-0.5597,0.294,-0.0496,-0.6814,-0.8477,1938,2019-08-07 16:15:46:550
-6.2177,-7.0062,4.8351,12.6628,-0.5597,0.294,-0.0496,-0.6814,-0.8477,1943,2019-08-07 16:15:46:555
-6.2177,-7.0062,4.8351,12.6628,-0.5597,0.294,-0.4043,-2.6628,-0.6666,1948,2019-08-07 16:15:46:560
1.0974,-8.4479,2.7421,2.3452,0.3901,1.5361,-0.4043,-2.6628,-0.6666,1953,2019-08-07 16:15:46:565
1.0974,-8.4479,2.7421,2.3452,0.3901,1.5361,-0.2541,-3.238,-0.9574,1958,2019-08-07 16:15:46:570
5.5228,-9.374,-0.3973,2.3452,0.3901,1.5361,-0.2541,-3.238,-0.9574,1963,2019-08-07 16:15:46:575
5.5228,-9.374,-0.3973,2.3452,0.3901,1.5361,-0.3563,-4.1936,-1.2567,1967,2019-08-07 16:15:46:579
5.5228,-9.374,-0.3973,-3.1896,0.7616,3.1815,-0.3563,-4.1936,-1.2567,1973,2019-08-07 16:15:46:585
8.3646,-8.8441,-1.6511,-3.1896,0.7616,3.1815,-0.0709,-4.7954,-1.1491,1978,2019-08-07 16:15:46:590
8.3646,-8.8441,-1.6511,-3.1896,0.7616,3.1815,-0.0709,-4.7954,-1.1491,1984,2019-08-07 16:15:46:596
8.3646,-8.8441,-1.6511,-3.1896,0.7616,3.1815,0.3957,-3.9251,-0.2628,1988,2019-08-07 16:15:46:600
10.7089,-7.7222,-5.1064,-3.1896,0.7616,3.1815,0.3957,-3.9251,-0.2628,1993,2019-08-07 16:15:46:605
10.7089,-7.7222,-5.1064,-6.083,-0.0901,7.2571,0.3957,-3.9251,-0.2628,1998,2019-08-07 16:15:46:610
10.7089,-7.7222,-5.1064,-6.083,-0.0901,7.2571,0.564,-2.5765,0.486,2003,2019-08-07 16:15:46:615
12.3499,-8.0516,-6.2188,-6.083,-0.0901,7.2571,0.564,-2.5765,0.486,2008,2019-08-07 16:15:46:620
12.3499,-8.0516,-6.2188,-6.083,-0.0901,7.2571,0.4714,-0.5813,0.8141,2013,2019-08-07 16:15:46:625
12.3499,-8.0516,-6.2188,-7.1939,-0.6297,7.3442,0.4714,-0.5813,0.8141,2018,2019-08-07 16:15:46:630
11.3308,-6.9775,-4.0363,-7.1939,-0.6297,7.3442,0.0016,1.4108,0.5958,2023,2019-08-07 16:15:46:635
11.3308,-6.9775,-4.0363,-7.1939,-0.6297,7.3442,0.0016,1.4108,0.5958,2028,2019-08-07 16:15:46:640
6.0251,-5.5358,0.9226,-0.1337,-2.5784,0.9227,-0.2658,1.7346,0.4392,2033,2019-08-07 16:15:46:645
6.0251,-5.5358,0.9226,-0.1337,-2.5784,0.9227,-0.2658,1.7346,0.4392,2038,2019-08-07 16:15:46:650
6.0251,-5.5358,0.9226,-0.1337,-2.5784,0.9227,-0.2658,1.7346,0.4392,2042,2019-08-07 16:15:46:654
2.901,-7.0873,2.5017,-0.1337,-2.5784,0.9227,-0.2903,1.7442,0.5084,2048,2019-08-07 16:15:46:660
2.901,-7.0873,2.5017,-0.1337,-2.5784,0.9227,-0.2903,1.7442,0.5084,2052,2019-08-07 16:15:46:664
2.2312,-8.381,4.0478,2.5092,-0.2006,-1.959,-0.2136,0.9559,0.4605,2058,2019-08-07 16:15:46:670
2.2312,-8.381,4.0478,2.5092,-0.2006,-1.959,-0.2136,0.9559,0.4605,2063,2019-08-07 16:15:46:675
2.2312,-8.381,4.0478,2.5092,-0.2006,-1.959,-0.0059,0.0845,0.2453,2068,2019-08-07 16:15:46:680
2.279,-9.1257,5.0566,2.5092,-0.2006,-1.959,-0.0059,0.0845,0.2453,2073,2019-08-07 16:15:46:685
2.279,-9.1257,5.0566,2.4049,0.6754,-3.0795,-0.0059,0.0845,0.2453,2078,2019-08-07 16:15:46:690
2.6378,-8.2808,4.6842,2.4049,0.6754,-3.0795,0.1369,-0.6729,0.0578,2083,2019-08-07 16:15:46:695
2.6378,-8.2808,4.6842,2.4049,0.6754,-3.0795,0.1369,-0.6729,0.0578,2088,2019-08-07 16:15:46:700
2.6378,-8.2808,4.6842,2.4049,0.6754,-3.0795,0.1635,-1.3014,0.0205,2093,2019-08-07 16:15:46:705
4.4128,-7.474,3.5246,0.3679,-0.8816,-1.6366,0.1635,-1.3014,0.0205,2098,2019-08-07 16:15:46:710
4.4128,-7.474,3.5246,0.3679,-0.8816,-1.6366,0.1635,-1.3014,0.0205,2102,2019-08-07 16:15:46:714
6.5322,-7.3928,2.4404,0.3679,-0.8816,-1.6366,0.0623,-1.458,0.0024,2108,2019-08-07 16:15:46:720
6.5322,-7.3928,2.4404,0.3679,-0.8816,-1.6366,0.0623,-1.458,0.0024,2112,2019-08-07 16:15:46:724
6.5322,-7.3928,2.4404,-2.4776,-0.9099,-0.1127,-0.0496,-1.1437,-0.0562,2118,2019-08-07 16:15:46:730
7.7139,-7.5408,1.8182,-2.4776,-0.9099,-0.1127,-0.0496,-1.1437,-0.0562,2123,2019-08-07 16:15:46:735
7.7139,-7.5408,1.8182,-2.4776,-0.9099,-0.1127,-0.1241,-0.773,-0.0913,2128,2019-08-07 16:15:46:740
8.1301,-7.9275,1.6438,-2.4776,-0.9099,-0.1127,-0.1241,-0.773,-0.0913,2133,2019-08-07 16:15:46:745
8.1301,-7.9275,1.6438,-3.1796,-0.3074,0.0873,-0.1859,-0.1253,-0.1286,2138,2019-08-07 16:15:46:750
8.1301,-7.9275,1.6438,-3.1796,-0.3074,0.0873,-0.1859,-0.1253,-0.1286,2142,2019-08-07 16:15:46:754
7.7091,-8.2235,1.5731,-3.1796,-0.3074,0.0873,-0.1923,0.4212,-0.1244,2148,2019-08-07 16:15:46:760
7.7091,-8.2235,1.5731,-3.1796,-0.3074,0.0873,-0.1923,0.4212,-0.1244,2153,2019-08-07 16:15:46:765
6.7618,-8.2187,1.7522,-2.0401,-0.1019,-0.0119,-0.1721,0.86,-0.1297,2158,2019-08-07 16:15:46:770
6.7618,-8.2187,1.7522,-2.0401,-0.1019,-0.0119,-0.1721,0.86,-0.1297,2164,2019-08-07 16:15:46:776
6.7618,-8.2187,1.7522,-2.0401,-0.1019,-0.0119,-0.1518,0.9868,-0.1339,2168,2019-08-07 16:15:46:780
5.5753,-8.0707,2.1717,-2.0401,-0.1019,-0.0119,-0.1518,0.9868,-0.1339,2173,2019-08-07 16:15:46:785
5.5753,-8.0707,2.1717,-0.1589,-0.2763,-0.6886,-0.1177,0.9048,-0.118,2178,2019-08-07 16:15:46:790
4.5372,-7.9466,2.53,-0.1589,-0.2763,-0.6886,-0.1177,0.9048,-0.118,2183,2019-08-07 16:15:46:795
4.5372,-7.9466,2.53,-0.1589,-0.2763,-0.6886,-0.1177,0.9048,-0.118,2187,2019-08-07 16:15:46:799
4.5372,-7.9466,2.53,-0.1589,-0.2763,-0.6886,-0.0986,0.5724,-0.0647,2193,2019-08-07 16:15:46:805
3.987,-8.0087,2.5677,0.9225,-0.2903,-0.7619,-0.0986,0.5724,-0.0647,2198,2019-08-07 16:15:46:810
3.987,-8.0087,2.5677,0.9225,-0.2903,-0.7619,-0.0954,0.2188,-0.0189,2202,2019-08-07 16:15:46:814
4.1879,-8.1614,2.6997,0.7161,-0.1388,-0.885,-0.0954,0.2188,-0.0189,2208,2019-08-07 16:15:46:820
4.1879,-8.1614,2.6997,0.7161,-0.1388,-0.885,-0.0773,-0.1157,0.0045,2213,2019-08-07 16:15:46:825
4.1879,-8.1614,2.6997,0.7161,-0.1388,-0.885,-0.0773,-0.1157,0.0045,2218,2019-08-07 16:15:46:830
4.8481,-8.1566,2.101,0.7161,-0.1388,-0.885,-0.0581,-0.3363,0.0248,2223,2019-08-07 16:15:46:835
4.8481,-8.1566,2.101,-0.2753,-0.2092,-0.0062,-0.0581,-0.3363,0.0248,2227,2019-08-07 16:15:46:839
5.6567,-8.0707,1.5825,-0.2753,-0.2092,-0.0062,-0.0645,-0.3618,0.0493,2233,2019-08-07 16:15:46:845
5.6567,-8.0707,1.5825,-0.2753,-0.2092,-0.0062,-0.0645,-0.3618,0.0493,2238,2019-08-07 16:15:46:850
5.6567,-8.0707,1.5825,-0.2753,-0.2092,-0.0062,-0.0645,-0.3618,0.0493,2242,2019-08-07 16:15:46:854
6.2786,-8.1805,1.1818,-1.3617,-0.1277,0.5597,-0.0794,-0.2159,0.0621,2249,2019-08-07 16:15:46:861
6.2786,-8.1805,1.1818,-1.3617,-0.1277,0.5597,-0.0794,-0.2159,0.0621,2253,2019-08-07 16:15:46:865
6.2786,-8.1805,1.1818,-1.3617,-0.1277,0.5597,-0.0986,0.043,0.0642,2258,2019-08-07 16:15:46:870
6.4413,-8.2712,0.9414,-1.3617,-0.1277,0.5597,-0.0986,0.043,0.0642,2264,2019-08-07 16:15:46:876
6.4413,-8.2712,0.9414,-1.1657,-0.0331,0.5372,-0.1018,0.369,0.0504,2269,2019-08-07 16:15:46:881
5.6854,-8.319,1.2997,-1.1657,-0.0331,0.5372,-0.1018,0.369,0.0504,2272,2019-08-07 16:15:46:884
5.6854,-8.319,1.2997,-0.3531,-0.036,0.3312,-0.1028,0.5905,0.0376,2277,2019-08-07 16:15:46:889
5.6854,-8.319,1.2997,-0.3531,-0.036,0.3312,-0.1028,0.5905,0.0376,2283,2019-08-07 16:15:46:895
4.6902,-8.1996,1.8041,-0.3531,-0.036,0.3312,-0.1135,0.6182,0.0557,2287,2019-08-07 16:15:46:899
4.6902,-8.1996,1.8041,-0.3531,-0.036,0.3312,-0.1135,0.6182,0.0557,2293,2019-08-07 16:15:46:905
4.0778,-8.2951,2.233,0.8964,-0.0652,-0.4512,-0.1167,0.5255,0.0589,2298,2019-08-07 16:15:46:910
4.0778,-8.2951,2.233,0.8964,-0.0652,-0.4512,-0.1167,0.5255,0.0589,2303,2019-08-07 16:15:46:915
4.0778,-8.2951,2.233,0.8964,-0.0652,-0.4512,-0.1167,0.5255,0.0589,2307,2019-08-07 16:15:46:919
3.7142,-8.1232,2.3603,0.8964,-0.0652,-0.4512,-0.1049,0.255,0.0514,2313,2019-08-07 16:15:46:925
3.7142,-8.1232,2.3603,1.0378,-0.2682,-0.4034,-0.1049,0.255,0.0514,2317,2019-08-07 16:15:46:929
3.7142,-8.1232,2.3603,1.0378,-0.2682,-0.4034,-0.1049,-0.0667,0.0514,2323,2019-08-07 16:15:46:935
3.9582,-8.1232,2.1717,1.0378,-0.2682,-0.4034,-0.1049,-0.0667,0.0514,2328,2019-08-07 16:15:46:940
3.9582,-8.1232,2.1717,1.0378,-0.2682,-0.4034,-0.0932,-0.2404,0.0504,2333,2019-08-07 16:15:46:945
4.8194,-8.1519,1.6626,0.0185,-0.1966,0.1074,-0.0932,-0.2404,0.0504,2338,2019-08-07 16:15:46:950
4.8194,-8.1519,1.6626,0.0185,-0.1966,0.1074,-0.0783,-0.3203,0.0429,2343,2019-08-07 16:15:46:955
4.8194,-8.1519,1.6626,0.0185,-0.1966,0.1074,-0.0783,-0.3203,0.0429,2348,2019-08-07 16:15:46:960
5.4892,-8.1566,1.5401,0.0185,-0.1966,0.1074,-0.0442,-0.2638,0.0269,2353,2019-08-07 16:15:46:965
5.4892,-8.1566,1.5401,-0.8529,-0.1954,0.2544,-0.0442,-0.2638,0.0269,2358,2019-08-07 16:15:46:970
5.8576,-8.171,1.4599,-0.8529,-0.1954,0.2544,-0.0176,-0.1615,0.0205,2363,2019-08-07 16:15:46:975
5.8576,-8.171,1.4599,-0.8529,-0.1954,0.2544,-0.0176,-0.1615,0.0205,2368,2019-08-07 16:15:46:980
5.8576,-8.171,1.4599,-0.8529,-0.1954,0.2544,-0.0176,-0.1615,0.0205,2373,2019-08-07 16:15:46:985
6.0681,-8.128,1.3185,-1.1605,-0.2706,0.407,-0.0091,-0.0412,0.0227,2378,2019-08-07 16:15:46:990
6.0681,-8.128,1.3185,-1.1605,-0.2706,0.407,-0.0091,-0.0412,0.0227,2383,2019-08-07 16:15:46:995
6.0681,-8.128,1.3185,-1.1605,-0.2706,0.407,-0.0069,0.1026,0.0131,2388,2019-08-07 16:15:47:000
5.5561,-7.9514,1.4599,-1.1605,-0.2706,0.407,-0.0069,0.1026,0.0131,2393,2019-08-07 16:15:47:005
5.5561,-7.9514,1.4599,-1.1605,-0.2706,0.407,-0.0314,0.108,0.0333,2398,2019-08-07 16:15:47:010
5.5561,-7.9514,1.4599,-0.3671,-0.2892,0.0206,-0.0314,0.108,0.0333,2403,2019-08-07 16:15:47:015
5.0586,-8.1137,1.8465,-0.3671,-0.2892,0.0206,-0.04,0.0387,0.0493,2408,2019-08-07 16:15:47:020
5.0586,-8.1137,1.8465,-0.3671,-0.2892,0.0206,-0.04,0.0387,0.0493,2413,2019-08-07 16:15:47:025
4.8337,-8.2951,2.0067,-0.3671,-0.2892,0.0206,-0.04,0.0387,0.0493,2418,2019-08-07 16:15:47:030
4.8337,-8.2951,2.0067,0.027,-0.0651,-0.213,-0.0336,-0.0902,0.044,2423,2019-08-07 16:15:47:035
4.8337,-8.2951,2.0067,0.027,-0.0651,-0.213,-0.0336,-0.0902,0.044,2428,2019-08-07 16:15:47:040
4.8289,-8.2664,2.035,0.027,-0.0651,-0.213,-0.0176,-0.185,0.0429,2433,2019-08-07 16:15:47:045
4.8289,-8.2664,2.035,0.027,-0.0651,-0.213,-0.0176,-0.185,0.0429,2438,2019-08-07 16:15:47:050
5.0394,-8.1853,1.7852,-0.1942,-0.1744,-0.0895,5.0E-4,-0.2084,0.0408,2443,2019-08-07 16:15:47:055
5.0394,-8.1853,1.7852,-0.1942,-0.1744,-0.0895,5.0E-4,-0.2084,0.0408,2448,2019-08-07 16:15:47:060
5.0394,-8.1853,1.7852,-0.1942,-0.1744,-0.0895,0.0026,-0.1743,0.0248,2452,2019-08-07 16:15:47:064
5.2308,-8.1041,1.9219,-0.1942,-0.1744,-0.0895,0.0026,-0.1743,0.0248,2458,2019-08-07 16:15:47:070
5.2308,-8.1041,1.9219,-0.4246,-0.2613,-0.1672,0.0069,-0.1115,0.0141,2464,2019-08-07 16:15:47:076
5.293,-8.0468,1.8936,-0.4246,-0.2613,-0.1672,0.0069,-0.1115,0.0141,2467,2019-08-07 16:15:47:079
5.293,-8.0468,1.8936,-0.4246,-0.2613,-0.1672,0.0069,-0.1115,0.0141,2473,2019-08-07 16:15:47:085
5.293,-8.0468,1.8936,-0.4246,-0.2613,-0.1672,-0.0176,-0.038,0.0077,2478,2019-08-07 16:15:47:090
5.3554,-8.1758,1.8748,-0.5065,-0.198,-0.1504,-0.0176,-0.038,0.0077,2483,2019-08-07 16:15:47:095
5.3554,-8.1758,1.8748,-0.5065,-0.198,-0.1504,-0.0432,0.011,0.0131,2487,2019-08-07 16:15:47:099
5.3554,-8.3142,1.8842,-0.5065,-0.198,-0.1504,-0.0432,0.011,0.0131,2493,2019-08-07 16:15:47:105
5.3554,-8.3142,1.8842,-0.5065,-0.198,-0.1504,-0.0357,0.027,0.0163,2499,2019-08-07 16:15:47:111
5.3554,-8.3142,1.8842,-0.3484,0.0019,-0.3003,-0.0357,0.027,0.0163,2503,2019-08-07 16:15:47:115
5.0396,-8.3333,1.9549,-0.3484,0.0019,-0.3003,-0.0357,0.027,0.0163,2508,2019-08-07 16:15:47:120
5.0396,-8.3333,1.9549,-0.0822,0.0582,-0.2623,-0.0091,0.0014,0.029,2514,2019-08-07 16:15:47:126
4.8913,-8.4765,1.9267,-0.0822,0.0582,-0.2623,-0.0091,0.0014,0.029,2518,2019-08-07 16:15:47:130
4.8913,-8.4765,1.9267,-0.0822,0.0582,-0.2623,-0.0048,-0.0646,0.0376,2523,2019-08-07 16:15:47:135
4.8913,-8.4765,1.9267,-0.0822,0.0582,-0.2623,-0.0048,-0.0646,0.0376,2527,2019-08-07 16:15:47:139
4.7669,-8.3285,1.9926,0.0812,-0.0358,-0.3284,5.0E-4,-0.1509,0.0322,2533,2019-08-07 16:15:47:145
4.7669,-8.3285,1.9926,0.0812,-0.0358,-0.3284,5.0E-4,-0.1509,0.0322,2538,2019-08-07 16:15:47:150
4.92,-8.4479,1.8559,0.0812,-0.0358,-0.3284,0.0048,-0.1946,0.0312,2543,2019-08-07 16:15:47:155
4.92,-8.4479,1.8559,0.0812,-0.0358,-0.3284,0.0048,-0.1946,0.0312,2548,2019-08-07 16:15:47:160
4.92,-8.4479,1.8559,-0.2189,0.0857,-0.0247,0.0048,-0.1946,0.0312,2552,2019-08-07 16:15:47:164
5.1688,-8.3667,1.6108,-0.2189,0.0857,-0.0247,-0.0069,-0.1999,0.012,2558,2019-08-07 16:15:47:170
5.1688,-8.3667,1.6108,-0.2189,0.0857,-0.0247,-0.0176,-0.1754,0.0035,2563,2019-08-07 16:15:47:175
5.1688,-8.3667,1.6108,-0.2189,0.0857,-0.0247,-0.0176,-0.1754,0.0035,2568,2019-08-07 16:15:47:180
5.3841,-8.381,1.6344,-0.5273,0.0145,-0.0066,-0.0176,-0.1754,0.0035,2573,2019-08-07 16:15:47:185
5.3841,-8.381,1.6344,-0.5273,0.0145,-0.0066,-0.0144,-0.0593,-0.0061,2578,2019-08-07 16:15:47:190
5.4463,-8.3667,1.4977,-0.5864,0.0013,0.1263,-0.0144,-0.0593,-0.0061,2583,2019-08-07 16:15:47:195
5.4463,-8.3667,1.4977,-0.5864,0.0013,0.1263,-0.0187,0.0664,-0.004,2588,2019-08-07 16:15:47:200
5.4463,-8.3667,1.4977,-0.5864,0.0013,0.1263,-0.0187,0.0664,-0.004,2593,2019-08-07 16:15:47:205
5.1784,-8.2521,1.4977,-0.5864,0.0013,0.1263,-0.0336,0.1261,3.0E-4,2598,2019-08-07 16:15:47:210
5.1784,-8.2521,1.4977,-0.1988,-0.1364,-0.0397,-0.0336,0.1261,3.0E-4,2603,2019-08-07 16:15:47:215
4.9583,-8.3046,1.7569,-0.1988,-0.1364,-0.0397,-0.0144,0.1165,0.0141,2608,2019-08-07 16:15:47:220
4.9583,-8.3046,1.7569,-0.1988,-0.1364,-0.0397,-0.0144,0.1165,0.0141,2613,2019-08-07 16:15:47:225
4.9583,-8.3046,1.7569,-0.0151,-0.0607,-0.1196,-0.0144,0.1165,0.0141,2618,2019-08-07 16:15:47:230
4.9344,-8.3762,1.5967,-0.0151,-0.0607,-0.1196,0.0133,0.0366,0.0344,2623,2019-08-07 16:15:47:235
4.9344,-8.3762,1.5967,-0.0151,-0.0607,-0.1196,0.0133,0.0366,0.0344,2629,2019-08-07 16:15:47:241
5.0157,-8.3381,1.5401,-0.1652,-0.0302,0.0975,0.025,-0.0295,0.0418,2633,2019-08-07 16:15:47:245
5.0157,-8.3381,1.5401,-0.1652,-0.0302,0.0975,0.025,-0.0295,0.0418,2638,2019-08-07 16:15:47:250
5.0157,-8.3381,1.5401,-0.1652,-0.0302,0.0975,0.0389,-0.0646,0.044,2643,2019-08-07 16:15:47:255
5.0444,-8.2855,1.5165,-0.1652,-0.0302,0.0975,0.0389,-0.0646,0.044,2648,2019-08-07 16:15:47:260
5.0444,-8.2855,1.5165,-0.3277,-0.0615,0.1679,0.041,-0.0657,0.0599,2652,2019-08-07 16:15:47:264
5.2693,-8.2999,1.4176,-0.3277,-0.0615,0.1679,0.041,-0.0657,0.0599,2658,2019-08-07 16:15:47:270
5.2693,-8.2999,1.4176,-0.3277,-0.0615,0.1679,0.0282,-0.0295,0.0589,2663,2019-08-07 16:15:47:275
5.2693,-8.2999,1.4176,-0.3277,-0.0615,0.1679,0.0282,-0.0295,0.0589,2668,2019-08-07 16:15:47:280
5.2645,-8.2187,1.4694,-0.3277,-0.0615,0.1679,0.0282,-0.0295,0.0589,2672,2019-08-07 16:15:47:284
5.2645,-8.2187,1.4694,-0.3863,-0.1795,0.1585,0.0122,0.0025,0.0589,2678,2019-08-07 16:15:47:290
5.2118,-8.2712,1.592,-0.3863,-0.1795,0.1585,0.0122,0.0025,0.0589,2683,2019-08-07 16:15:47:295
5.2118,-8.2712,1.592,-0.3863,-0.1795,0.1585,0.0016,0.0409,0.0557,2687,2019-08-07 16:15:47:299
5.2118,-8.2712,1.592,-0.3863,-0.1795,0.1585,0.0016,0.0409,0.0557,2693,2019-08-07 16:15:47:305
5.1209,-8.2235,1.6297,-0.2891,-0.1549,0.0108,-0.0123,0.0611,0.0482,2698,2019-08-07 16:15:47:310
5.1209,-8.2235,1.6297,-0.2891,-0.1549,0.0108,-0.0123,0.0611,0.0482,2703,2019-08-07 16:15:47:315
4.9296,-8.2283,1.7145,-0.2891,-0.1549,0.0108,-0.0123,0.0611,0.0482,2707,2019-08-07 16:15:47:319
4.9296,-8.2283,1.7145,-0.0156,-0.0736,-0.1803,-0.0282,0.0387,0.0482,2713,2019-08-07 16:15:47:325
4.9296,-8.2283,1.7145,-0.0156,-0.0736,-0.1803,-0.0282,0.0387,0.0482,2718,2019-08-07 16:15:47:330
4.7908,-8.3524,1.7617,-0.0156,-0.0736,-0.1803,-0.0133,-0.0039,0.0472,2723,2019-08-07 16:15:47:335
4.7908,-8.3524,1.7617,0.0137,-0.0666,-0.0344,-0.0133,-0.0039,0.0472,2728,2019-08-07 16:15:47:340
4.8817,-8.3428,1.6674,0.0137,-0.0666,-0.0344,-0.0069,-0.0369,0.044,2733,2019-08-07 16:15:47:345
4.8817,-8.3428,1.6674,0.0137,-0.0666,-0.0344,-0.0069,-0.0369,0.044,2738,2019-08-07 16:15:47:350
4.8817,-8.3428,1.6674,0.0137,-0.0666,-0.0344,0.0122,-0.0657,0.0376,2742,2019-08-07 16:15:47:354
5.0252,-8.3285,1.6957,-0.1778,-0.0846,0.0083,0.0122,-0.0657,0.0376,2748,2019-08-07 16:15:47:360
5.0252,-8.3285,1.6957,-0.1778,-0.0846,0.0083,0.058,-0.0465,0.0227,2753,2019-08-07 16:15:47:365
5.0252,-8.3285,1.6957,-0.1778,-0.0846,0.0083,0.058,-0.0465,0.0227,2758,2019-08-07 16:15:47:370
4.9965,-8.3094,1.6438,-0.2549,-0.1796,0.0359,0.0612,-0.0252,0.0109,2764,2019-08-07 16:15:47:376
4.9965,-8.3094,1.6438,-0.2549,-0.1796,0.0359,0.0612,-0.0252,0.0109,2768,2019-08-07 16:15:47:380
4.9965,-8.3094,1.6438,-0.2549,-0.1796,0.0359,0.0612,-0.0252,0.0109,2773,2019-08-07 16:15:47:385
5.0587,-8.1232,1.5731,-0.2549,-0.1796,0.0359,0.0367,-0.0433,-0.0029,2778,2019-08-07 16:15:47:390
5.0587,-8.1232,1.5731,-0.2549,-0.1796,0.0359,0.0367,-0.0433,-0.0029,2783,2019-08-07 16:15:47:395
5.3027,-8.1948,1.6815,-0.4377,-0.2198,0.0104,0.0197,-0.0593,-8.0E-4,2788,2019-08-07 16:15:47:400
5.3027,-8.1948,1.6815,-0.4377,-0.2198,0.0104,0.0197,-0.0593,-8.0E-4,2793,2019-08-07 16:15:47:405
5.3027,-8.1948,1.6815,-0.4377,-0.2198,0.0104,0.0186,-0.0433,-0.0029,2798,2019-08-07 16:15:47:410
5.3219,-8.3094,1.625,-0.4377,-0.2198,0.0104,0.0186,-0.0433,-0.0029,2803,2019-08-07 16:15:47:415
5.3219,-8.3094,1.625,-0.5278,-0.1644,0.0653,0.0026,-0.0284,-8.0E-4,2808,2019-08-07 16:15:47:420
5.3314,-8.2283,1.5825,-0.5278,-0.1644,0.0653,0.0026,-0.0284,-8.0E-4,2813,2019-08-07 16:15:47:425
5.3314,-8.2283,1.5825,-0.5278,-0.1644,0.0653,-0.0155,-0.0476,0.0131,2818,2019-08-07 16:15:47:430
5.3314,-8.2283,1.5825,-0.5278,-0.1644,0.0653,-0.0155,-0.0476,0.0131,2823,2019-08-07 16:15:47:435
5.384,-8.2569,1.6108,-0.5576,-0.1252,0.0266,-0.008,-0.0231,0.0184,2828,2019-08-07 16:15:47:440
5.384,-8.2569,1.6108,-0.5576,-0.1252,0.0266,-0.008,-0.0231,0.0184,2833,2019-08-07 16:15:47:445
5.384,-8.2569,1.6108,-0.5576,-0.1252,0.0266,-0.008,-0.0231,0.0184,2838,2019-08-07 16:15:47:450
5.2022,-8.2712,1.6297,-0.5576,-0.1252,0.0266,0.0037,0.0302,0.0173,2843,2019-08-07 16:15:47:455
5.2022,-8.2712,1.6297,-0.2898,-0.1301,-0.0113,0.0037,0.0302,0.0173,2848,2019-08-07 16:15:47:460
5.2022,-8.2712,1.6297,-0.2898,-0.1301,-0.0113,5.0E-4,0.0217,0.0131,2853,2019-08-07 16:15:47:465
4.9917,-8.2139,1.6532,-0.1661,-0.1684,-0.0145,5.0E-4,0.0217,0.0131,2858,2019-08-07 16:15:47:470
4.9917,-8.2139,1.6532,-0.1661,-0.1684,-0.0145,0.0026,0.0355,0.0024,2863,2019-08-07 16:15:47:475
4.9917,-8.2139,1.6532,-0.1661,-0.1684,-0.0145,0.0026,0.0355,0.0024,2868,2019-08-07 16:15:47:480
4.8578,-8.2474,1.8654,-0.1661,-0.1684,-0.0145,0.0026,0.0355,0.0024,2873,2019-08-07 16:15:47:485
4.8578,-8.2474,1.8654,0.0059,-0.2248,-0.1648,0.0165,0.0419,-0.0157,2878,2019-08-07 16:15:47:490
4.7764,-8.1185,1.7617,0.0059,-0.2248,-0.1648,0.0165,0.0419,-0.0157,2883,2019-08-07 16:15:47:495
4.7764,-8.1185,1.7617,0.0059,-0.2248,-0.1648,0.008,-0.0071,-0.0349,2888,2019-08-07 16:15:47:500
4.7764,-8.1185,1.7617,0.0059,-0.2248,-0.1648,0.008,-0.0071,-0.0349,2893,2019-08-07 16:15:47:505
4.9008,-8.1376,1.7145,-0.0691,-0.2398,-0.0683,5.0E-4,-0.039,-0.0508,2898,2019-08-07 16:15:47:510
4.9008,-8.1376,1.7145,-0.0691,-0.2398,-0.0683,5.0E-4,-0.039,-0.0508,2903,2019-08-07 16:15:47:515
4.9008,-8.1376,1.7145,-0.0691,-0.2398,-0.0683,-0.0016,-0.0476,-0.0647,2908,2019-08-07 16:15:47:520
5.0491,-8.1948,1.5825,-0.0691,-0.2398,-0.0683,-0.0016,-0.0476,-0.0647,2913,2019-08-07 16:15:47:525
5.0491,-8.1948,1.5825,-0.2989,-0.2134,0.0214,-6.0E-4,-0.0625,-0.0753,2918,2019-08-07 16:15:47:530
5.1879,-8.1805,1.625,-0.2989,-0.2134,0.0214,-6.0E-4,-0.0625,-0.0753,2923,2019-08-07 16:15:47:535
5.1879,-8.1805,1.625,-0.3761,-0.1993,0.0229,0.0037,-0.0614,-0.0796,2928,2019-08-07 16:15:47:540
5.274,-8.1423,1.5637,-0.3761,-0.1993,0.0229,0.0037,-0.0614,-0.0796,2933,2019-08-07 16:15:47:545
5.274,-8.1423,1.5637,-0.3761,-0.1993,0.0229,0.0037,-0.0614,-0.0796,2938,2019-08-07 16:15:47:550
5.274,-8.1423,1.5637,-0.3761,-0.1993,0.0229,0.0016,-0.0891,-0.0732,2943,2019-08-07 16:15:47:555
5.408,-8.1996,1.4883,-0.5869,-0.1471,0.1652,0.0016,-0.0891,-0.0732,2948,2019-08-07 16:15:47:560
5.408,-8.1996,1.4883,-0.5869,-0.1471,0.1652,-0.0037,-0.0859,-0.0583,2953,2019-08-07 16:15:47:565
5.4271,-8.1757,1.6391,-0.5869,-0.1471,0.1652,-0.0037,-0.0859,-0.0583,2958,2019-08-07 16:15:47:570
5.4271,-8.1757,1.6391,-0.5869,-0.1471,0.1652,0.0165,-0.0731,-0.0413,2963,2019-08-07 16:15:47:575
5.4271,-8.1757,1.6391,-0.5525,-0.1014,0.0869,0.0165,-0.0731,-0.0413,2967,2019-08-07 16:15:47:579
5.4558,-8.2235,1.5495,-0.5525,-0.1014,0.0869,0.0165,-0.0731,-0.0413,2973,2019-08-07 16:15:47:585
5.4558,-8.2235,1.5495,-0.5525,-0.1014,0.0869,0.0239,-0.0454,-0.0232,2978,2019-08-07 16:15:47:590
5.317,-8.2187,1.6108,-0.5525,-0.1014,0.0869,0.0239,-0.0454,-0.0232,2983,2019-08-07 16:15:47:595
5.317,-8.2187,1.6108,-0.343,-0.1825,0.0111,0.0303,-0.0433,-0.0157,2988,2019-08-07 16:15:47:600
5.317,-8.2187,1.6108,-0.343,-0.1825,0.0111,0.0303,-0.0433,-0.0157,2993,2019-08-07 16:15:47:605
5.2022,-8.1853,1.625,-0.343,-0.1825,0.0111,0.0389,-0.0465,-0.0072,2997,2019-08-07 16:15:47:609
5.2022,-8.1853,1.625,-0.343,-0.1825,0.0111,0.0389,-0.0465,-0.0072,3003,2019-08-07 16:15:47:615
5.2118,-8.1376,1.6249,-0.3091,-0.2029,-0.0013,0.0389,-0.0518,-0.0072,3009,2019-08-07 16:15:47:621
5.2118,-8.1376,1.6249,-0.3091,-0.2029,-0.0013,0.0389,-0.0518,-0.0072,3013,2019-08-07 16:15:47:625
5.2118,-8.1376,1.6249,-0.3091,-0.2029,-0.0013,0.0357,-0.0454,-0.005,3018,2019-08-07 16:15:47:630
5.1687,-8.1089,1.6249,-0.3091,-0.2029,-0.0013,0.0357,-0.0454,-0.005,3023,2019-08-07 16:15:47:635
5.1687,-8.1089,1.6249,-0.2988,-0.3186,-0.0557,0.0357,-0.0454,-0.005,3028,2019-08-07 16:15:47:640
5.1065,-8.0516,1.6627,-0.2988,-0.3186,-0.0557,0.0208,-0.0092,-0.0189,3033,2019-08-07 16:15:47:645
5.1065,-8.0516,1.6627,-0.2988,-0.3186,-0.0557,0.0208,-0.0092,-0.0189,3038,2019-08-07 16:15:47:650
5.1065,-8.0516,1.6627,-0.2988,-0.3186,-0.0557,-0.0123,-0.0508,-0.0232,3043,2019-08-07 16:15:47:655
4.7334,-7.8941,1.3374,0.2678,-0.4208,0.1502,-0.0123,-0.0508,-0.0232,3048,2019-08-07 16:15:47:660
4.7334,-7.8941,1.3374,0.2678,-0.4208,0.1502,-0.1326,-0.2702,-0.0285,3052,2019-08-07 16:15:47:664
4.7668,-8.1041,2.0586,0.2678,-0.4208,0.1502,-0.1326,-0.2702,-0.0285,3058,2019-08-07 16:15:47:670
4.7668,-8.1041,2.0586,0.2678,-0.4208,0.1502,-0.1263,-0.3437,-0.0349,3063,2019-08-07 16:15:47:675
4.7668,-8.1041,2.0586,-0.1188,-0.0871,-0.1682,-0.1263,-0.3437,-0.0349,3067,2019-08-07 16:15:47:679
5.1304,-8.3094,1.7145,-0.1188,-0.0871,-0.1682,-0.0506,-0.3874,-0.021,3073,2019-08-07 16:15:47:685
5.1304,-8.3094,1.7145,-0.1188,-0.0871,-0.1682,-0.0506,-0.3874,-0.021,3078,2019-08-07 16:15:47:690
5.738,-8.4288,1.2573,-0.1188,-0.0871,-0.1682,-0.0506,-0.3874,-0.021,3083,2019-08-07 16:15:47:695
5.738,-8.4288,1.2573,-1.0155,0.0923,0.2592,0.0399,-0.2159,-0.0093,3088,2019-08-07 16:15:47:700
5.738,-8.4288,1.2573,-1.0155,0.0923,0.2592,0.0399,-0.2159,-0.0093,3093,2019-08-07 16:15:47:705
6.1399,-8.3619,1.4788,-1.0155,0.0923,0.2592,0.1369,0.0654,-8.0E-4,3098,2019-08-07 16:15:47:710
6.1399,-8.3619,1.4788,-1.0155,0.0923,0.2592,0.1369,0.0654,-8.0E-4,3103,2019-08-07 16:15:47:715
6.1686,-8.1137,0.8519,-1.2165,-0.2099,0.7073,0.1635,0.3018,-0.0061,3108,2019-08-07 16:15:47:720
6.1686,-8.1137,0.8519,-1.2165,-0.2099,0.7073,0.1635,0.3018,-0.0061,3113,2019-08-07 16:15:47:725
6.1686,-8.1137,0.8519,-1.2165,-0.2099,0.7073,0.1635,0.3018,-0.0061,3117,2019-08-07 16:15:47:729
4.8242,-7.8893,1.6438,-1.2165,-0.2099,0.7073,0.0016,0.3743,-0.0263,3123,2019-08-07 16:15:47:735
4.8242,-7.8893,1.6438,0.3422,-0.2626,-0.8343,-0.0378,0.3455,-0.0157,3128,2019-08-07 16:15:47:740
4.4846,-8.2473,2.5441,0.3422,-0.2626,-0.8343,-0.0378,0.3455,-0.0157,3133,2019-08-07 16:15:47:745
4.4846,-8.2473,2.5441,0.3422,-0.2626,-0.8343,-0.0378,0.3455,-0.0157,3138,2019-08-07 16:15:47:750
4.4846,-8.2473,2.5441,0.3422,-0.2626,-0.8343,-0.0091,0.1783,-0.0327,3142,2019-08-07 16:15:47:754
4.3075,-8.2903,2.2566,0.6146,-0.0652,-0.5603,-0.0091,0.1783,-0.0327,3148,2019-08-07 16:15:47:760
4.3075,-8.2903,2.2566,0.6146,-0.0652,-0.5603,-0.0016,-0.0742,-0.0466,3153,2019-08-07 16:15:47:765