ACCELEROMETER X (m/s²),ACCELEROMETER Y (m/s²),ACCELEROMETER Z (m/s²),LINEAR ACCELERATION X (m/s²),LINEAR ACCELERATION Y (m/s²),LINEAR ACCELERATION Z (m/s²),GYROSCOPE X (rad/s),GYROSCOPE Y (rad/s),GYROSCOPE Z (rad/s),Time since start in ms ,YYYY-MO-DD HH-MI-SS_SSS
4.1809,-8.7737,1.6322,-0.0584,0.0439,-0.0647,0.0038,0.0077,-0.0018,2,2019-08-07 16:14:42:152
4.1809,-8.7737,1.6322,-0.0584,0.0439,-0.0647,0.0038,0.0077,-0.0018,8,2019-08-07 16:14:42:158
4.224,-8.6973,1.5898,-0.11,-0.07,-0.0261,-0.0026,-0.0019,-0.0071,12,2019-08-07 16:14:42:162
4.224,-8.6973,1.5898,-0.11,-0.07,-0.0261,-0.0026,-0.0019,-0.0071,18,2019-08-07 16:14:42:168
4.224,-8.6973,1.5898,-0.11,-0.07,-0.0261,-0.0068,-0.0115,-0.0082,22,2019-08-07 16:14:42:172
4.3245,-8.6591,1.5804,-0.11,-0.07,-0.0261,-0.0068,-0.0115,-0.0082,28,2019-08-07 16:14:42:178
4.3245,-8.6591,1.5804,-0.2505,-0.0641,0.0432,-0.0047,-0.0041,-0.0018,33,2019-08-07 16:14:42:183
4.4202,-8.683,1.5285,-0.2505,-0.0641,0.0432,-0.0047,-0.0041,-0.0018,39,2019-08-07 16:14:42:189
4.4202,-8.683,1.5285,-0.2505,-0.0641,0.0432,-0.0015,0.0226,-7.0E-4,43,2019-08-07 16:14:42:193
4.4202,-8.683,1.5285,-0.2532,-0.044,-0.0039,-0.0015,0.0226,-7.0E-4,48,2019-08-07 16:14:42:198
4.3627,-8.6925,1.5804,-0.2532,-0.044,-0.0039,0.0049,0.0449,3.0E-4,53,2019-08-07 16:14:42:203
4.3627,-8.6925,1.5804,-0.2532,-0.044,-0.0039,0.0049,0.0449,3.0E-4,59,2019-08-07 16:14:42:209
4.3627,-8.6925,1.5804,-0.2532,-0.044,-0.0039,0.0059,0.046,0.0078,62,2019-08-07 16:14:42:212
4.1953,-8.7212,1.5898,-0.2532,-0.044,-0.0039,0.0059,0.046,0.0078,68,2019-08-07 16:14:42:218
4.1953,-8.7212,1.5898,0.0134,-0.0247,-0.032,0.0049,0.0428,0.0067,73,2019-08-07 16:14:42:223
4.0518,-8.7498,1.6511,0.0134,-0.0247,-0.032,0.0049,0.0428,0.0067,78,2019-08-07 16:14:42:228
4.0518,-8.7498,1.6511,0.0134,-0.0247,-0.032,0.0038,0.0183,0.0035,83,2019-08-07 16:14:42:233
4.0518,-8.7498,1.6511,0.0134,-0.0247,-0.032,0.0038,0.0183,0.0035,88,2019-08-07 16:14:42:238
3.9752,-8.7355,1.6086,0.1403,-0.0299,-0.0378,0.0017,-0.0105,0.0057,93,2019-08-07 16:14:42:243
3.9752,-8.7355,1.6086,0.1403,-0.0299,-0.0378,0.0017,-0.0105,0.0057,98,2019-08-07 16:14:42:248
4.1188,-8.7498,1.5615,0.1403,-0.0299,-0.0378,0.0049,-0.0232,0.0057,103,2019-08-07 16:14:42:253
4.1188,-8.7498,1.5615,0.1403,-0.0299,-0.0378,0.0049,-0.0232,0.0057,108,2019-08-07 16:14:42:258
4.1188,-8.7498,1.5615,-0.0132,-0.0398,0.0461,0.007,-0.0264,-0.005,113,2019-08-07 16:14:42:263
4.2336,-8.7021,1.5521,-0.0132,-0.0398,0.0461,0.007,-0.0264,-0.005,118,2019-08-07 16:14:42:268
4.2336,-8.7021,1.5521,-0.0132,-0.0398,0.0461,0.0091,-0.0115,-0.0093,123,2019-08-07 16:14:42:273
4.2527,-8.6734,1.5521,-0.0132,-0.0398,0.0461,0.0091,-0.0115,-0.0093,127,2019-08-07 16:14:42:277
4.2527,-8.6734,1.5521,-0.1827,-0.091,0.0036,0.0059,0.0077,-0.0125,133,2019-08-07 16:14:42:283
4.2527,-8.6734,1.5521,-0.1827,-0.091,0.0036,0.0059,0.0077,-0.0125,137,2019-08-07 16:14:42:287
4.291,-8.6734,1.4955,-0.1713,-0.0901,0.0748,-0.0015,0.0183,-0.0156,143,2019-08-07 16:14:42:293
4.291,-8.6734,1.4955,-0.1713,-0.0901,0.0748,-0.0015,0.0183,-0.0156,147,2019-08-07 16:14:42:297
4.291,-8.6734,1.4955,-0.1713,-0.0901,0.0748,0.0027,0.029,-0.0188,153,2019-08-07 16:14:42:303
4.3245,-8.7498,1.5002,-0.1713,-0.0901,0.0748,0.0027,0.029,-0.0188,158,2019-08-07 16:14:42:308
4.3245,-8.7498,1.5002,-0.134,-0.0211,-0.0365,0.0123,0.0311,-0.0178,164,2019-08-07 16:14:42:314
4.2288,-8.7593,1.6181,-0.134,-0.0211,-0.0365,0.0123,0.0311,-0.0178,167,2019-08-07 16:14:42:317
4.2288,-8.7593,1.6181,-0.134,-0.0211,-0.0365,0.0123,0.0311,-0.0178,173,2019-08-07 16:14:42:323
4.2288,-8.7593,1.6181,-0.134,-0.0211,-0.0365,0.0145,0.0108,-0.0135,177,2019-08-07 16:14:42:327
4.1762,-8.683,1.6322,-0.0501,-0.0764,-0.0556,0.0145,0.0108,-0.0135,183,2019-08-07 16:14:42:333
4.1762,-8.683,1.6322,-0.0501,-0.0764,-0.0556,0.007,-0.0179,-0.005,187,2019-08-07 16:14:42:337
4.2096,-8.6925,1.6558,-0.0501,-0.0764,-0.0556,0.007,-0.0179,-0.005,193,2019-08-07 16:14:42:343
4.2096,-8.6925,1.6558,-0.0501,-0.0764,-0.0556,0.0017,-0.0318,0.0014,198,2019-08-07 16:14:42:348
4.2096,-8.6925,1.6558,-0.1152,-0.0706,-0.0646,0.0017,-0.0318,0.0014,203,2019-08-07 16:14:42:353
4.2144,-8.6973,1.5756,-0.1152,-0.0706,-0.0646,-0.0058,-0.0318,0.0014,208,2019-08-07 16:14:42:358
4.2144,-8.6973,1.5756,-0.1152,-0.0706,-0.0646,-0.0058,-0.0318,0.0014,213,2019-08-07 16:14:42:363
4.2144,-8.6973,1.5756,-0.1152,-0.0706,-0.0646,-0.009,-0.0254,0.0014,218,2019-08-07 16:14:42:368
4.2671,-8.7164,1.5662,-0.147,-0.0657,0.012,-0.009,-0.0254,0.0014,222,2019-08-07 16:14:42:372
4.2671,-8.7164,1.5662,-0.147,-0.0657,0.012,-0.009,-0.0254,0.0014,228,2019-08-07 16:14:42:378
4.334,-8.7021,1.5002,-0.147,-0.0657,0.012,-0.0036,-0.003,-7.0E-4,233,2019-08-07 16:14:42:383
4.334,-8.7021,1.5002,-0.147,-0.0657,0.012,-0.0036,-0.003,-7.0E-4,238,2019-08-07 16:14:42:388
4.334,-8.7021,1.5002,-0.16,-0.0318,0.0064,0.0049,0.0268,-0.0018,242,2019-08-07 16:14:42:392
4.2671,-8.7164,1.6086,-0.16,-0.0318,0.0064,0.0049,0.0268,-0.0018,248,2019-08-07 16:14:42:398
4.2671,-8.7164,1.6086,-0.16,-0.0318,0.0064,0.0049,0.0268,-0.0018,252,2019-08-07 16:14:42:402
4.1905,-8.6877,1.5379,-0.16,-0.0318,0.0064,0.0102,0.0311,-7.0E-4,258,2019-08-07 16:14:42:408
4.1905,-8.6877,1.5379,-0.0882,-0.0311,0.0433,0.0102,0.0311,-7.0E-4,263,2019-08-07 16:14:42:413
4.1905,-8.6877,1.5379,-0.0882,-0.0311,0.0433,0.0145,0.0183,-0.0039,268,2019-08-07 16:14:42:418
4.1618,-8.7259,1.6228,-0.0882,-0.0311,0.0433,0.0145,0.0183,-0.0039,273,2019-08-07 16:14:42:423
4.1618,-8.7259,1.6228,-0.0882,-0.0311,0.0433,0.0209,0.0034,-0.0093,278,2019-08-07 16:14:42:428
4.1522,-8.7402,1.6369,-0.02,-0.0155,-0.0561,0.0209,0.0034,-0.0093,283,2019-08-07 16:14:42:433
4.1522,-8.7402,1.6369,-0.02,-0.0155,-0.0561,0.0241,-0.0264,-0.0071,288,2019-08-07 16:14:42:438
4.1522,-8.7402,1.6369,-0.02,-0.0155,-0.0561,0.0241,-0.0264,-0.0071,293,2019-08-07 16:14:42:443
4.1905,-8.7307,1.5992,-0.02,-0.0155,-0.0561,0.023,-0.0392,-0.005,298,2019-08-07 16:14:42:448
4.1905,-8.7307,1.5992,-0.1462,-0.0233,0.035,0.023,-0.0392,-0.005,303,2019-08-07 16:14:42:453
4.2862,-8.6925,1.5945,-0.1462,-0.0233,0.035,0.0241,-0.036,-0.0103,309,2019-08-07 16:14:42:459
4.2862,-8.6925,1.5945,-0.1462,-0.0233,0.035,0.0241,-0.036,-0.0103,313,2019-08-07 16:14:42:463
4.2862,-8.6925,1.5945,-0.1462,-0.0233,0.035,0.0102,-0.0328,-0.0125,317,2019-08-07 16:14:42:467
4.2814,-8.6209,1.5898,-0.1421,-0.1311,-0.0075,0.0102,-0.0328,-0.0125,323,2019-08-07 16:14:42:473
4.2814,-8.6209,1.5898,-0.1421,-0.1311,-0.0075,0.0038,-0.0243,-0.0114,328,2019-08-07 16:14:42:478
4.2814,-8.6209,1.5898,-0.1421,-0.1311,-0.0075,0.0038,-0.0243,-0.0114,332,2019-08-07 16:14:42:482
4.291,-8.6686,1.5945,-0.1421,-0.1311,-0.0075,-0.0026,-0.0147,-0.0093,337,2019-08-07 16:14:42:487
4.291,-8.6686,1.5945,-0.1384,-0.0485,-0.0417,-0.0026,-0.0147,-0.0093,343,2019-08-07 16:14:42:493
4.291,-8.6686,1.5945,-0.1384,-0.0485,-0.0417,-0.0036,-0.0062,-0.0082,347,2019-08-07 16:14:42:497
4.267,-8.6639,1.6558,-0.1384,-0.0485,-0.0417,-0.0036,-0.0062,-0.0082,353,2019-08-07 16:14:42:503
4.267,-8.6639,1.6558,-0.1384,-0.0485,-0.0417,-0.0015,0.0013,-0.0114,358,2019-08-07 16:14:42:508
4.2861,-8.6782,1.5662,-0.1402,-0.071,0.0149,-0.0015,0.0013,-0.0114,363,2019-08-07 16:14:42:513
4.2861,-8.6782,1.5662,-0.1402,-0.071,0.0149,-0.0026,0.0023,-0.0039,368,2019-08-07 16:14:42:518
4.2861,-8.6782,1.5662,-0.1402,-0.071,0.0149,-0.0026,0.0023,-0.0039,373,2019-08-07 16:14:42:523
4.3196,-8.745,1.6181,-0.1402,-0.071,0.0149,-0.0026,0.0247,-0.0018,378,2019-08-07 16:14:42:528
4.3196,-8.745,1.6181,-0.1293,-0.0606,0.0161,-0.0026,0.0247,-0.0018,382,2019-08-07 16:14:42:532
4.2574,-8.7211,1.6181,-0.1293,-0.0606,0.0161,-4.0E-4,0.0396,-0.0082,388,2019-08-07 16:14:42:538
4.2574,-8.7211,1.6181,-0.1293,-0.0606,0.0161,-4.0E-4,0.0396,-0.0082,393,2019-08-07 16:14:42:543
4.2574,-8.7211,1.6181,-0.1293,-0.0606,0.0161,-0.0026,0.0332,-0.0071,398,2019-08-07 16:14:42:548
4.0995,-8.7116,1.5662,0.0481,-0.0456,-0.0378,-0.0026,0.0332,-0.0071,403,2019-08-07 16:14:42:553
4.0995,-8.7116,1.5662,0.0481,-0.0456,-0.0378,-4.0E-4,0.0151,-0.0061,408,2019-08-07 16:14:42:558
4.1282,-8.7832,1.6605,0.0481,-0.0456,-0.0378,-4.0E-4,0.0151,-0.0061,414,2019-08-07 16:14:42:564
4.1282,-8.7832,1.6605,0.0481,-0.0456,-0.0378,-4.0E-4,0.0151,-0.0061,418,2019-08-07 16:14:42:568
4.1282,-8.7832,1.6605,0.0481,-0.0456,-0.0378,0.0017,-0.0051,-0.0125,423,2019-08-07 16:14:42:573
4.1522,-8.7546,1.6039,-0.0083,-0.0163,0.0103,0.0017,-0.0051,-0.0125,428,2019-08-07 16:14:42:578
4.1522,-8.7546,1.6039,-0.0083,-0.0163,0.0103,0.0091,-0.0296,-0.0188,432,2019-08-07 16:14:42:582
4.1522,-8.7546,1.6039,-0.0083,-0.0163,0.0103,0.0091,-0.0296,-0.0188,438,2019-08-07 16:14:42:588
4.1952,-8.7593,1.5851,-0.0083,-0.0163,0.0103,0.0155,-0.0424,-0.0167,443,2019-08-07 16:14:42:593
4.1952,-8.7593,1.5851,-0.1186,0.0,-0.0046,0.0155,-0.0424,-0.0167,447,2019-08-07 16:14:42:597
4.3005,-8.7259,1.5709,-0.1186,0.0,-0.0046,0.023,-0.0403,-0.0156,453,2019-08-07 16:14:42:603
4.3005,-8.7259,1.5709,-0.1186,0.0,-0.0046,0.023,-0.0403,-0.0156,457,2019-08-07 16:14:42:607
4.3005,-8.7259,1.5709,-0.1186,0.0,-0.0046,0.0283,-0.0179,-0.0178,463,2019-08-07 16:14:42:613
4.2383,-8.6973,1.5945,-0.0801,-0.045,-0.0073,0.0283,-0.0179,-0.0178,468,2019-08-07 16:14:42:618
4.2383,-8.6973,1.5945,-0.0801,-0.045,-0.0073,0.0294,0.0077,-0.0156,473,2019-08-07 16:14:42:623
4.2718,-8.6782,1.6369,-0.0801,-0.045,-0.0073,0.0294,0.0077,-0.0156,478,2019-08-07 16:14:42:628
4.2718,-8.6782,1.6369,-0.0801,-0.045,-0.0073,0.0262,0.0258,-0.0125,483,2019-08-07 16:14:42:633
4.2718,-8.6782,1.6369,-0.1057,-0.0805,0.0037,0.0262,0.0258,-0.0125,487,2019-08-07 16:14:42:637
4.2239,-8.7355,1.6039,-0.1057,-0.0805,0.0037,0.0219,0.0385,-0.0146,493,2019-08-07 16:14:42:643
4.2239,-8.7355,1.6039,-0.1057,-0.0805,0.0037,0.0219,0.0385,-0.0146,499,2019-08-07 16:14:42:649
4.133,-8.7307,1.6275,-0.1057,-0.0805,0.0037,0.0209,0.0471,-0.0146,502,2019-08-07 16:14:42:652
4.133,-8.7307,1.6275,0.0633,0.0218,-0.0265,0.0209,0.0471,-0.0146,508,2019-08-07 16:14:42:658
4.133,-8.7307,1.6275,0.0633,0.0218,-0.0265,0.0273,0.0417,-0.0167,513,2019-08-07 16:14:42:663
4.0134,-8.7402,1.5945,0.0633,0.0218,-0.0265,0.0273,0.0417,-0.0167,518,2019-08-07 16:14:42:668
4.0134,-8.7402,1.5945,0.0633,0.0218,-0.0265,0.0262,0.0194,-0.0156,522,2019-08-07 16:14:42:672
4.023,-8.7689,1.717,0.1501,0.0426,-0.0661,0.0262,0.0194,-0.0156,528,2019-08-07 16:14:42:678
4.023,-8.7689,1.717,0.1501,0.0426,-0.0661,0.0219,-0.0275,-0.0178,533,2019-08-07 16:14:42:683
4.023,-8.7689,1.717,0.1501,0.0426,-0.0661,0.0219,-0.0275,-0.0178,538,2019-08-07 16:14:42:688
4.1234,-8.7689,1.717,0.1501,0.0426,-0.0661,0.0304,-0.052,-0.0188,543,2019-08-07 16:14:42:693
4.1234,-8.7689,1.717,-0.0377,-0.0077,-0.0682,0.0304,-0.052,-0.0188,548,2019-08-07 16:14:42:698
4.1234,-8.7689,1.717,-0.0377,-0.0077,-0.0682,0.0304,-0.052,-0.0188,553,2019-08-07 16:14:42:703
4.3435,-8.6734,1.5473,-0.0377,-0.0077,-0.0682,0.0198,-0.0563,-0.0167,557,2019-08-07 16:14:42:707
4.3435,-8.6734,1.5473,-0.0377,-0.0077,-0.0682,0.0198,-0.0563,-0.0167,563,2019-08-07 16:14:42:713
4.3435,-8.6734,1.5473,-0.2183,-0.0242,0.0956,0.0134,-0.0371,-0.0093,567,2019-08-07 16:14:42:717
4.4344,-8.6829,1.5332,-0.2183,-0.0242,0.0956,0.0134,-0.0371,-0.0093,573,2019-08-07 16:14:42:723
4.4344,-8.6829,1.5332,-0.2183,-0.0242,0.0956,0.0081,0.0013,-0.0018,578,2019-08-07 16:14:42:728
4.377,-8.7402,1.5615,-0.2183,-0.0242,0.0956,0.0081,0.0013,-0.0018,582,2019-08-07 16:14:42:732
4.377,-8.7402,1.5615,-0.1824,0.0345,0.0825,0.0166,0.0279,0.0025,588,2019-08-07 16:14:42:738
4.3196,-8.8071,1.6039,-0.1824,0.0345,0.0825,0.0166,0.0279,0.0025,593,2019-08-07 16:14:42:743
4.3196,-8.8071,1.6039,-0.1824,0.0345,0.0825,0.0219,0.0385,0.0014,598,2019-08-07 16:14:42:748
4.3196,-8.8071,1.6039,-0.1824,0.0345,0.0825,0.0219,0.0385,0.0014,602,2019-08-07 16:14:42:752
4.1761,-8.7737,1.7076,-0.002,0.0446,-0.0901,0.0358,0.029,0.0035,608,2019-08-07 16:14:42:758
4.1761,-8.7737,1.7076,-0.002,0.0446,-0.0901,0.0358,0.029,0.0035,613,2019-08-07 16:14:42:763
4.1761,-8.7737,1.7076,-0.002,0.0446,-0.0901,0.0358,0.029,0.0035,617,2019-08-07 16:14:42:767
4.1282,-8.7355,1.6086,-0.002,0.0446,-0.0901,0.04,0.0055,3.0E-4,623,2019-08-07 16:14:42:773
4.1282,-8.7355,1.6086,0.0544,-0.0165,-0.0065,0.04,0.0055,3.0E-4,628,2019-08-07 16:14:42:778
4.1617,-8.6639,1.6652,0.0544,-0.0165,-0.0065,0.0251,-0.0147,-0.0039,633,2019-08-07 16:14:42:783
4.1617,-8.6639,1.6652,0.0544,-0.0165,-0.0065,0.0251,-0.0147,-0.0039,638,2019-08-07 16:14:42:788
4.1617,-8.6639,1.6652,0.0544,-0.0165,-0.0065,0.0102,-0.0222,-0.0071,643,2019-08-07 16:14:42:793
4.1521,-8.7068,1.6463,-0.0154,-0.063,0.0184,0.0102,-0.0222,-0.0071,647,2019-08-07 16:14:42:797
4.1521,-8.7068,1.6463,-0.0154,-0.063,0.0184,-0.009,-0.0339,-0.0103,653,2019-08-07 16:14:42:803
4.2717,-8.7211,1.6039,-0.0154,-0.063,0.0184,-0.009,-0.0339,-0.0103,659,2019-08-07 16:14:42:809
4.2717,-8.7211,1.6039,-0.0154,-0.063,0.0184,-0.0111,-0.0296,-0.0167,663,2019-08-07 16:14:42:813
4.2717,-8.7211,1.6039,-0.1164,-0.0379,-0.0238,-0.0111,-0.0296,-0.0167,668,2019-08-07 16:14:42:818
4.267,-8.6591,1.5662,-0.1164,-0.0379,-0.0238,-0.0026,-0.0179,-0.0188,672,2019-08-07 16:14:42:822
4.267,-8.6591,1.5662,-0.1164,-0.0379,-0.0238,-0.0026,-0.0179,-0.0188,678,2019-08-07 16:14:42:828
4.2622,-8.6161,1.5615,-0.1164,-0.0379,-0.0238,0.0081,-0.0051,-0.0188,682,2019-08-07 16:14:42:832
4.2622,-8.6161,1.5615,-0.1166,-0.1122,0.0652,0.0081,-0.0051,-0.0188,688,2019-08-07 16:14:42:838
4.2622,-8.6161,1.5615,-0.1166,-0.1122,0.0652,0.0177,0.0023,-0.0167,693,2019-08-07 16:14:42:843
4.31,-8.6161,1.5709,-0.1166,-0.1122,0.0652,0.0177,0.0023,-0.0167,697,2019-08-07 16:14:42:847
4.31,-8.6161,1.5709,-0.1166,-0.1122,0.0652,0.0241,2.0E-4,-0.0178,703,2019-08-07 16:14:42:853
4.3578,-8.6304,1.5898,-0.17,-0.0906,0.0353,0.0241,2.0E-4,-0.0178,708,2019-08-07 16:14:42:858
4.3578,-8.6304,1.5898,-0.17,-0.0906,0.0353,0.0273,-0.0019,-0.0178,713,2019-08-07 16:14:42:863
4.3578,-8.6304,1.5898,-0.17,-0.0906,0.0353,0.0273,-0.0019,-0.0178,718,2019-08-07 16:14:42:868
4.3483,-8.64,1.5851,-0.17,-0.0906,0.0353,0.0304,-0.0019,-0.0178,723,2019-08-07 16:14:42:873
4.3483,-8.64,1.5851,-0.1083,-0.0591,0.0728,0.0304,-0.0019,-0.0178,728,2019-08-07 16:14:42:878
4.31,-8.6734,1.5709,-0.1083,-0.0591,0.0728,0.0304,-0.0019,-0.0178,733,2019-08-07 16:14:42:883
4.31,-8.6734,1.5709,-0.1083,-0.0591,0.0728,0.0326,-0.0019,-0.0178,737,2019-08-07 16:14:42:887
4.31,-8.6734,1.5709,-0.1083,-0.0591,0.0728,0.0326,-0.0019,-0.0178,743,2019-08-07 16:14:42:893
4.2478,-8.7593,1.6322,-0.1083,-0.0591,0.0728,0.0262,-0.0019,-0.0156,748,2019-08-07 16:14:42:898
4.2478,-8.7593,1.6322,-0.0615,0.0296,-0.0119,0.0262,-0.0019,-0.0156,752,2019-08-07 16:14:42:902
4.2478,-8.7593,1.6322,-0.0615,0.0296,-0.0119,0.0262,-0.0019,-0.0156,758,2019-08-07 16:14:42:908
4.2622,-8.8262,1.6699,-0.0615,0.0296,-0.0119,0.0283,-0.0062,-0.0156,763,2019-08-07 16:14:42:913
4.2622,-8.8262,1.6699,-0.0615,0.0296,-0.0119,0.0283,-0.0062,-0.0156,767,2019-08-07 16:14:42:917
4.2095,-8.7975,1.6228,0.0129,0.1176,0.0113,0.0336,-0.0083,-0.0114,773,2019-08-07 16:14:42:923
4.2095,-8.7975,1.6228,0.0129,0.1176,0.0113,0.0336,-0.0083,-0.0114,778,2019-08-07 16:14:42:928
4.2095,-8.7975,1.6228,0.0129,0.1176,0.0113,0.0443,-0.0073,-0.0114,783,2019-08-07 16:14:42:933
4.2526,-8.8357,1.5615,-0.0853,0.1152,-0.0336,0.0443,-0.0073,-0.0114,787,2019-08-07 16:14:42:937
4.2526,-8.8357,1.5615,-0.0853,0.1152,-0.0336,0.0699,0.013,-0.0167,793,2019-08-07 16:14:42:943
4.3291,-8.745,1.7595,-0.0853,0.1152,-0.0336,0.0699,0.013,-0.0167,798,2019-08-07 16:14:42:948
4.3291,-8.745,1.7595,-0.0645,0.0123,-0.1254,0.0901,0.0215,-0.0188,802,2019-08-07 16:14:42:952
4.3291,-8.745,1.7595,-0.0645,0.0123,-0.1254,0.0901,0.0215,-0.0188,808,2019-08-07 16:14:42:958
4.3818,-8.6448,1.5992,-0.0645,0.0123,-0.1254,0.0816,0.0577,-0.0156,814,2019-08-07 16:14:42:964
4.3818,-8.6448,1.5992,-0.0645,0.0123,-0.1254,0.0816,0.0577,-0.0156,817,2019-08-07 16:14:42:967
4.377,-8.5541,1.7076,-0.2099,-0.1594,-0.0127,0.0816,0.0577,-0.0156,823,2019-08-07 16:14:42:973
4.377,-8.5541,1.7076,-0.2099,-0.1594,-0.0127,0.0581,0.0982,-0.0125,827,2019-08-07 16:14:42:977
4.377,-8.5541,1.7076,-0.2099,-0.1594,-0.0127,0.0581,0.0982,-0.0125,833,2019-08-07 16:14:42:983
4.1808,-8.5875,1.816,-0.2099,-0.1594,-0.0127,0.039,0.1163,0.0078,837,2019-08-07 16:14:42:987
4.1808,-8.5875,1.816,0.1083,-0.1093,-0.0888,0.039,0.1163,0.0078,843,2019-08-07 16:14:42:993
4.0086,-8.6495,1.8632,0.1083,-0.1093,-0.0888,0.0081,0.0673,0.0195,847,2019-08-07 16:14:42:997
4.0086,-8.6495,1.8632,0.1083,-0.1093,-0.0888,0.0081,0.0673,0.0195,853,2019-08-07 16:14:43:003
4.0086,-8.6495,1.8632,0.1083,-0.1093,-0.0888,-0.009,-0.0094,0.0248,858,2019-08-07 16:14:43:008
4.0803,-8.7593,1.8962,0.116,0.0557,-0.2009,-0.009,-0.0094,0.0248,863,2019-08-07 16:14:43:013
4.0803,-8.7593,1.8962,0.116,0.0557,-0.2009,-0.0122,-0.0477,0.0195,867,2019-08-07 16:14:43:017
4.1617,-8.7355,1.6605,0.116,0.0557,-0.2009,-0.0122,-0.0477,0.0195,873,2019-08-07 16:14:43:023
4.1617,-8.7355,1.6605,0.116,0.0557,-0.2009,-0.009,-0.0424,0.0206,878,2019-08-07 16:14:43:028
4.1617,-8.7355,1.6605,-0.0447,0.0294,0.067,-0.009,-0.0424,0.0206,883,2019-08-07 16:14:43:033
4.2382,-8.7832,1.5992,-0.0447,0.0294,0.067,0.0038,-0.0169,0.0142,888,2019-08-07 16:14:43:038
4.2382,-8.7832,1.5992,-0.0447,0.0294,0.067,0.0038,-0.0169,0.0142,893,2019-08-07 16:14:43:043
4.2382,-8.7832,1.5992,-0.0447,0.0294,0.067,0.0038,-0.0169,0.0142,898,2019-08-07 16:14:43:048
4.2382,-8.6925,1.6416,-0.0986,-0.019,8.0E-4,0.023,0.0108,0.0078,902,2019-08-07 16:14:43:052
4.2382,-8.6925,1.6416,-0.0986,-0.019,8.0E-4,0.04,0.0258,-0.0018,908,2019-08-07 16:14:43:058
4.2717,-8.6543,1.6935,-0.0986,-0.019,8.0E-4,0.04,0.0258,-0.0018,913,2019-08-07 16:14:43:063
4.2717,-8.6543,1.6935,-0.0986,-0.019,8.0E-4,0.0443,0.0194,-0.0071,918,2019-08-07 16:14:43:068
4.2717,-8.6543,1.6935,-0.0455,-0.1507,-0.0799,0.0443,0.0194,-0.0071,923,2019-08-07 16:14:43:073
4.2287,-8.5254,1.783,-0.0455,-0.1507,-0.0799,0.0443,0.0194,-0.0071,928,2019-08-07 16:14:43:078
4.2287,-8.5254,1.783,-0.0455,-0.1507,-0.0799,0.0336,-0.0041,-0.0114,932,2019-08-07 16:14:43:082
4.2956,-8.4968,1.717,-0.0455,-0.1507,-0.0799,0.0336,-0.0041,-0.0114,938,2019-08-07 16:14:43:088
4.2956,-8.4968,1.717,-0.095,-0.1098,-0.0218,0.0187,-0.0275,-0.0114,942,2019-08-07 16:14:43:092
4.2956,-8.5588,1.7029,-0.095,-0.1098,-0.0218,0.0187,-0.0275,-0.0114,948,2019-08-07 16:14:43:098
4.3148,-8.5588,1.7029,-0.095,-0.1098,-0.0218,0.0145,-0.02,-0.0061,953,2019-08-07 16:14:43:103
4.3148,-8.5588,1.7029,-0.095,-0.1098,-0.0218,0.0145,-0.02,-0.0061,958,2019-08-07 16:14:43:108
4.3865,-8.5922,1.6463,-0.1874,-0.108,0.0594,0.0187,-0.0062,-0.005,963,2019-08-07 16:14:43:113
4.3865,-8.5922,1.6463,-0.1874,-0.108,0.0594,0.0187,-0.0062,-0.005,968,2019-08-07 16:14:43:118
4.3865,-8.5922,1.6463,-0.1874,-0.108,0.0594,0.0219,0.0098,-0.0114,973,2019-08-07 16:14:43:123
4.353,-8.5493,1.6558,-0.1874,-0.108,0.0594,0.0219,0.0098,-0.0114,978,2019-08-07 16:14:43:128
4.353,-8.5493,1.6558,-0.1653,-0.1772,-0.124,0.0198,0.0204,-0.0156,983,2019-08-07 16:14:43:133
4.3435,-8.5254,1.6935,-0.1653,-0.1772,-0.124,0.0198,0.0204,-0.0156,987,2019-08-07 16:14:43:137
4.3435,-8.5254,1.6935,-0.1653,-0.1772,-0.124,0.0198,0.0204,-0.0156,993,2019-08-07 16:14:43:143
4.3435,-8.5254,1.6935,-0.1653,-0.1772,-0.124,0.0059,0.0162,-0.0199,999,2019-08-07 16:14:43:149
4.42,-8.5636,1.7076,-0.2324,-0.1217,0.0537,0.0059,0.0162,-0.0199,1003,2019-08-07 16:14:43:153
4.42,-8.5636,1.7076,-0.2324,-0.1217,0.0537,0.0059,0.0172,-0.0252,1008,2019-08-07 16:14:43:158
4.3913,-8.6161,1.7312,-0.2324,-0.1217,0.0537,0.0059,0.0172,-0.0252,1013,2019-08-07 16:14:43:163
4.3913,-8.6161,1.7312,-0.2324,-0.1217,0.0537,0.0091,0.0343,-0.0274,1017,2019-08-07 16:14:43:167
4.3913,-8.6161,1.7312,-0.0886,0.0341,-0.0372,0.0091,0.0343,-0.0274,1023,2019-08-07 16:14:43:173
4.2861,-8.6591,1.8302,-0.0886,0.0341,-0.0372,0.0134,0.0439,-0.0274,1028,2019-08-07 16:14:43:178
4.2861,-8.6591,1.8302,-0.0886,0.0341,-0.0372,0.0134,0.0439,-0.0274,1033,2019-08-07 16:14:43:183
4.2143,-8.6734,1.7217,-0.0886,0.0341,-0.0372,0.0155,0.0481,-0.0284,1038,2019-08-07 16:14:43:188
4.2143,-8.6734,1.7217,-0.0229,0.0229,-0.0774,0.0155,0.0481,-0.0284,1043,2019-08-07 16:14:43:193
4.2143,-8.6734,1.7217,-0.0229,0.0229,-0.0774,0.0177,0.0407,-0.0359,1047,2019-08-07 16:14:43:197
4.1808,-8.7068,1.7972,-0.0229,0.0229,-0.0774,0.0177,0.0407,-0.0359,1053,2019-08-07 16:14:43:203
4.1808,-8.7068,1.7972,-0.0229,0.0229,-0.0774,0.023,0.0375,-0.0327,1058,2019-08-07 16:14:43:208
4.1712,-8.6448,1.8537,0.048,-0.0404,-0.1213,0.023,0.0375,-0.0327,1063,2019-08-07 16:14:43:213
4.1712,-8.6448,1.8537,0.048,-0.0404,-0.1213,0.0304,0.029,-0.0338,1067,2019-08-07 16:14:43:217
4.1712,-8.6448,1.8537,0.048,-0.0404,-0.1213,0.0304,0.029,-0.0338,1073,2019-08-07 16:14:43:223
4.243,-8.5684,1.8632,0.048,-0.0404,-0.1213,0.0326,0.0247,-0.0327,1078,2019-08-07 16:14:43:228
4.243,-8.5684,1.8632,0.048,-0.0404,-0.1213,0.0326,0.0247,-0.0327,1083,2019-08-07 16:14:43:233
4.2956,-8.5397,1.7736,-0.0329,-0.1174,-0.0375,0.0241,0.0322,-0.0423,1088,2019-08-07 16:14:43:238
4.2956,-8.5397,1.7736,-0.0329,-0.1174,-0.0375,0.0241,0.0322,-0.0423,1093,2019-08-07 16:14:43:243
4.2956,-8.5397,1.7736,-0.0329,-0.1174,-0.0375,0.007,0.0449,-0.0412,1099,2019-08-07 16:14:43:249
4.2621,-8.5875,1.7547,-0.0329,-0.1174,-0.0375,0.007,0.0449,-0.0412,1102,2019-08-07 16:14:43:252
4.2621,-8.5875,1.7547,-0.0457,-0.0558,-0.0313,0.007,0.0449,-0.0412,1108,2019-08-07 16:14:43:258
4.2621,-8.5875,1.7547,-0.0457,-0.0558,-0.0313,-0.0047,0.0673,-0.0455,1112,2019-08-07 16:14:43:262
4.1425,-8.7164,1.7689,-0.0457,-0.0558,-0.0313,-0.0047,0.0673,-0.0455,1118,2019-08-07 16:14:43:268
4.1425,-8.7164,1.7689,-0.0457,-0.0558,-0.0313,-0.01,0.1003,-0.0529,1123,2019-08-07 16:14:43:273
3.9607,-8.8643,1.7312,0.2748,0.1673,-0.0112,-0.01,0.1003,-0.0529,1128,2019-08-07 16:14:43:278
3.9607,-8.8643,1.7312,0.2748,0.1673,-0.0112,-0.0079,0.1067,-0.0636,1133,2019-08-07 16:14:43:283
3.9607,-8.8643,1.7312,0.2748,0.1673,-0.0112,-0.0079,0.1067,-0.0636,1138,2019-08-07 16:14:43:288
3.7454,-8.893,1.8537,0.2748,0.1673,-0.0112,0.0091,0.1025,-0.0817,1144,2019-08-07 16:14:43:294
3.7454,-8.893,1.8537,0.4809,0.2242,-0.087,0.0091,0.1025,-0.0817,1148,2019-08-07 16:14:43:298
3.6689,-8.9503,1.7972,0.4809,0.2242,-0.087,0.0241,0.0918,-0.0998,1153,2019-08-07 16:14:43:303
3.6689,-8.9503,1.7972,0.4809,0.2242,-0.087,0.0241,0.0918,-0.0998,1158,2019-08-07 16:14:43:308
3.6258,-9.041,1.8349,0.4809,0.2242,-0.087,0.0326,0.078,-0.1211,1163,2019-08-07 16:14:43:313
3.6258,-9.041,1.8349,0.668,0.4178,-0.1077,0.0326,0.078,-0.1211,1168,2019-08-07 16:14:43:318
3.6258,-9.041,1.8349,0.668,0.4178,-0.1077,0.0326,0.078,-0.1211,1173,2019-08-07 16:14:43:323
3.5923,-9.0935,1.915,0.668,0.4178,-0.1077,0.0379,0.0673,-0.1541,1178,2019-08-07 16:14:43:328
3.5923,-9.0935,1.915,0.668,0.4178,-0.1077,0.0379,0.0673,-0.1541,1183,2019-08-07 16:14:43:333
3.4823,-9.3083,1.915,0.7335,0.6584,-0.1133,0.0273,0.0769,-0.1754,1188,2019-08-07 16:14:43:338
3.4823,-9.3083,1.915,0.7335,0.6584,-0.1133,0.0273,0.0769,-0.1754,1192,2019-08-07 16:14:43:342
3.4823,-9.3083,1.915,0.7774,0.8796,-0.0977,0.0294,0.0971,-0.1861,1198,2019-08-07 16:14:43:348
3.444,-9.6902,1.8207,0.7774,0.8796,-0.0977,0.0294,0.0971,-0.1861,1202,2019-08-07 16:14:43:352
3.444,-9.6902,1.8207,0.7774,0.8796,-0.0977,0.0294,0.0971,-0.1861,1208,2019-08-07 16:14:43:358
3.444,-9.6902,1.8207,0.7774,0.8796,-0.0977,0.056,0.1291,-0.1872,1213,2019-08-07 16:14:43:363
3.1857,-10.2153,1.981,1.0739,1.7092,-0.1735,0.056,0.1291,-0.1872,1218,2019-08-07 16:14:43:368
3.1857,-10.2153,1.981,1.0739,1.7092,-0.1735,0.1466,0.2101,-0.185,1223,2019-08-07 16:14:43:373
3.1665,-10.7023,2.0847,1.0739,1.7092,-0.1735,0.1466,0.2101,-0.185,1228,2019-08-07 16:14:43:378
3.1665,-10.7023,2.0847,1.0739,1.7092,-0.1735,0.2478,0.3485,-0.1989,1233,2019-08-07 16:14:43:383
2.8986,-11.151,2.0847,1.3385,2.4379,-0.2123,0.2478,0.3485,-0.1989,1238,2019-08-07 16:14:43:388
2.8986,-11.151,2.0847,1.3385,2.4379,-0.2123,0.3852,0.6596,-0.233,1243,2019-08-07 16:14:43:393
2.8986,-11.151,2.0847,1.3385,2.4379,-0.2123,0.3852,0.6596,-0.233,1248,2019-08-07 16:14:43:398
2.2623,-11.6093,1.9197,1.3385,2.4379,-0.2123,0.3852,0.6596,-0.233,1253,2019-08-07 16:14:43:403
2.2623,-11.6093,1.9197,1.3385,2.4379,-0.2123,0.3852,0.6596,-0.233,1258,2019-08-07 16:14:43:408
2.2623,-11.6093,1.9197,2.4932,3.2913,0.0682,0.4928,1.1507,-0.3161,1262,2019-08-07 16:14:43:412
1.3533,-12.1201,2.0329,2.4932,3.2913,0.0682,0.5865,1.6961,-0.4513,1268,2019-08-07 16:14:43:418
1.3533,-12.1201,2.0329,2.4932,3.2913,0.0682,0.5865,1.6961,-0.4513,1273,2019-08-07 16:14:43:423
0.0089,-12.9698,2.0706,4.5525,4.4441,-0.1141,0.5865,1.6961,-0.4513,1278,2019-08-07 16:14:43:428
0.0089,-12.9698,2.0706,4.5525,4.4441,-0.1141,0.6643,2.0977,-0.5525,1284,2019-08-07 16:14:43:434
0.0089,-12.9698,2.0706,4.5525,4.4441,-0.1141,0.6643,2.0977,-0.5525,1288,2019-08-07 16:14:43:438
-1.9191,-14.2015,1.7736,4.5525,4.4441,-0.1141,0.7761,2.5163,-0.5568,1293,2019-08-07 16:14:43:443
-1.9191,-14.2015,1.7736,6.3656,6.9414,0.8825,0.7761,2.5163,-0.5568,1298,2019-08-07 16:14:43:448
-2.2158,-16.259,1.651,6.3656,6.9414,0.8825,0.8763,2.8306,-0.6133,1303,2019-08-07 16:14:43:453
-2.2158,-16.259,1.651,6.3656,6.9414,0.8825,0.8763,2.8306,-0.6133,1308,2019-08-07 16:14:43:458
-2.7325,-18.6602,1.3541,6.3656,6.9414,0.8825,1.0318,3.049,-0.6889,1314,2019-08-07 16:14:43:464
-2.7325,-18.6602,1.3541,6.8018,10.8398,1.5712,1.0318,3.049,-0.6889,1317,2019-08-07 16:14:43:467
-2.7325,-18.6602,1.3541,6.8018,10.8398,1.5712,1.0318,3.049,-0.6889,1323,2019-08-07 16:14:43:473
-2.2205,-21.7489,1.1608,6.8018,10.8398,1.5712,1.4377,3.5081,-0.6655,1328,2019-08-07 16:14:43:478
-2.2205,-21.7489,1.1608,6.8018,10.8398,1.5712,1.4377,3.5081,-0.6655,1334,2019-08-07 16:14:43:484
-2.2205,-21.7489,1.1608,5.5988,16.1637,4.9138,1.7913,4.0833,-0.5334,1338,2019-08-07 16:14:43:488
-1.5938,-25.1478,-2.384,5.5988,16.1637,4.9138,1.7913,4.0833,-0.5334,1344,2019-08-07 16:14:43:494
-1.5938,-25.1478,-2.384,5.5988,16.1637,4.9138,1.9916,5.3755,-0.3299,1348,2019-08-07 16:14:43:498
-1.5938,-25.1478,-2.384,5.5988,16.1637,4.9138,1.9916,5.3755,-0.3299,1352,2019-08-07 16:14:43:502
-2.4024,-29.1006,-7.1874,5.5988,16.1637,4.9138,1.9916,5.3755,-0.3299,1358,2019-08-07 16:14:43:508
-2.4024,-29.1006,-7.1874,6.3571,21.5741,12.2127,2.0001,6.5494,-0.2404,1363,2019-08-07 16:14:43:513
-4.8328,-31.0101,-11.2035,6.3571,21.5741,12.2127,2.0001,6.5494,-0.2404,1367,2019-08-07 16:14:43:517
-4.8328,-31.0101,-11.2035,6.3571,21.5741,12.2127,1.8627,8.0717,-0.364,1373,2019-08-07 16:14:43:523
-12.0235,-34.2849,-13.2258,14.9447,26.326,18.1612,1.8627,8.0717,-0.364,1379,2019-08-07 16:14:43:529
-12.0235,-34.2849,-13.2258,14.9447,26.326,18.1612,1.9181,9.3575,-0.5121,1383,2019-08-07 16:14:43:533
-12.0235,-34.2849,-13.2258,14.9447,26.326,18.1612,1.9181,9.3575,-0.5121,1388,2019-08-07 16:14:43:538
-13.6932,-32.1654,-1.5308,14.9447,26.326,18.1612,3.1783,10.8648,-0.8551,1393,2019-08-07 16:14:43:543
-13.6932,-32.1654,-1.5308,11.4823,20.4451,0.3167,3.1783,10.8648,-0.8551,1398,2019-08-07 16:14:43:548
-6.4834,-25.5202,7.5291,11.4823,20.4451,0.3167,5.8265,8.7119,-1.703,1403,2019-08-07 16:14:43:553
-6.4834,-25.5202,7.5291,11.4823,20.4451,0.3167,5.8265,8.7119,-1.703,1407,2019-08-07 16:14:43:557
-6.4834,-25.5202,7.5291,11.4823,20.4451,0.3167,7.7675,5.2264,-2.5446,1413,2019-08-07 16:14:43:563
-1.082,-21.4577,4.1493,1.4058,13.6684,4.3586,7.7675,5.2264,-2.5446,1418,2019-08-07 16:14:43:568
-1.082,-21.4577,4.1493,1.4058,13.6684,4.3586,7.7675,5.2264,-2.5446,1423,2019-08-07 16:14:43:573
-1.082,-21.4577,4.1493,1.4058,13.6684,4.3586,8.9179,2.9915,-3.4905,1428,2019-08-07 16:14:43:578
0.9561,-17.1469,-12.9241,0.2186,11.059,20.5263,8.9179,2.9915,-3.4905,1433,2019-08-07 16:14:43:583
0.9561,-17.1469,-12.9241,0.2186,11.059,20.5263,9.4048,7.2014,-4.3992,1438,2019-08-07 16:14:43:588
0.8508,-4.7398,-13.3483,0.2186,11.059,20.5263,9.4048,7.2014,-4.3992,1443,2019-08-07 16:14:43:593
0.8508,-4.7398,-13.3483,3.6561,-6.7163,18.577,9.0383,8.2038,-4.543,1448,2019-08-07 16:14:43:598
0.8508,-4.7398,-13.3483,3.6561,-6.7163,18.577,9.0383,8.2038,-4.543,1453,2019-08-07 16:14:43:603
0.8508,-4.7398,-13.3483,3.6561,-6.7163,18.577,9.0383,8.2038,-4.543,1457,2019-08-07 16:14:43:607
-9.2104,10.589,-2.5113,3.6561,-6.7163,18.577,9.3142,7.3835,-3.6141,1463,2019-08-07 16:14:43:613
-9.2104,10.589,-2.5113,21.2154,-61.5064,-30.4863,9.3142,7.3835,-3.6141,1468,2019-08-07 16:14:43:618
-23.6445,64.9055,32.814,21.2154,-61.5064,-30.4863,11.8485,0.7576,-0.7294,1473,2019-08-07 16:14:43:623
-23.6445,64.9055,32.814,21.2154,-61.5064,-30.4863,11.8485,0.7576,-0.7294,1478,2019-08-07 16:14:43:628
-23.6445,64.9055,32.814,11.7514,-78.7955,31.4292,7.4511,-5.1685,-1.2727,1483,2019-08-07 16:14:43:633
-5.2443,54.2694,-20.4238,11.7514,-78.7955,31.4292,7.4511,-5.1685,-1.2727,1488,2019-08-07 16:14:43:638
-5.2443,54.2694,-20.4238,11.7514,-78.7955,31.4292,6.259,-3.5471,-4.0764,1493,2019-08-07 16:14:43:643
-5.2443,54.2694,-20.4238,11.7514,-78.7955,31.4292,6.259,-3.5471,-4.0764,1498,2019-08-07 16:14:43:648
0.7982,46.0728,8.0618,-0.467,-46.1949,1.7419,2.9397,-5.0204,-4.1851,1503,2019-08-07 16:14:43:653
0.7982,46.0728,8.0618,-0.467,-46.1949,1.7419,2.9397,-5.0204,-4.1851,1508,2019-08-07 16:14:43:658
9.2663,29.5076,1.354,-0.467,-46.1949,1.7419,1.264,-4.3163,-4.0892,1514,2019-08-07 16:14:43:664
9.2663,29.5076,1.354,-0.467,-46.1949,1.7419,1.264,-4.3163,-4.0892,1518,2019-08-07 16:14:43:668
9.2663,29.5076,1.354,-1.213,-28.822,7.0526,1.264,-4.3163,-4.0892,1523,2019-08-07 16:14:43:673
-1.1729,28.6627,0.1756,-1.213,-28.822,7.0526,-0.663,-5.4231,-1.9395,1528,2019-08-07 16:14:43:678
-1.1729,28.6627,0.1756,-1.213,-28.822,7.0526,-2.2854,-4.3748,1.7111,1533,2019-08-07 16:14:43:683
0.004,24.2039,-0.6823,-1.213,-28.822,7.0526,-2.2854,-4.3748,1.7111,1538,2019-08-07 16:14:43:688
0.004,24.2039,-0.6823,0.137,-22.9298,9.5342,-2.2854,-4.3748,1.7111,1543,2019-08-07 16:14:43:693
0.004,24.2039,-0.6823,0.137,-22.9298,9.5342,-3.4945,-2.5895,5.0582,1548,2019-08-07 16:14:43:698
10.9886,23.063,3.6732,0.137,-22.9298,9.5342,-3.4945,-2.5895,5.0582,1553,2019-08-07 16:14:43:703
10.9886,23.063,3.6732,0.137,-22.9298,9.5342,-4.2455,-1.2281,6.4771,1558,2019-08-07 16:14:43:708
15.0983,30.7727,6.3507,-12.402,-29.7084,2.7225,-4.2455,-1.2281,6.4771,1563,2019-08-07 16:14:43:713
15.0983,30.7727,6.3507,-12.402,-29.7084,2.7225,-4.8335,-0.8584,6.1767,1568,2019-08-07 16:14:43:718
15.0983,30.7727,6.3507,-12.402,-29.7084,2.7225,-4.8335,-0.8584,6.1767,1573,2019-08-07 16:14:43:723
12.7062,32.9973,0.7601,-12.402,-29.7084,2.7225,-5.4365,-0.3524,5.5621,1578,2019-08-07 16:14:43:728
12.7062,32.9973,0.7601,-8.1953,-31.9654,8.8342,-5.4365,-0.3524,5.5621,1583,2019-08-07 16:14:43:733
12.7062,32.9973,0.7601,-8.1953,-31.9654,8.8342,-6.7382,-0.1319,4.2827,1588,2019-08-07 16:14:43:738
5.2475,22.4615,4.0126,-2.6907,-25.0074,5.1097,-6.7382,-0.1319,4.2827,1593,2019-08-07 16:14:43:743
5.2475,22.4615,4.0126,-2.6907,-25.0074,5.1097,-7.6181,-1.5892,3.9003,1599,2019-08-07 16:14:43:749
5.2475,22.4615,4.0126,-2.6907,-25.0074,5.1097,-7.6181,-1.5892,3.9003,1603,2019-08-07 16:14:43:753
-1.4743,14.9141,12.4221,-2.6907,-25.0074,5.1097,-7.6181,-1.5892,3.9003,1608,2019-08-07 16:14:43:758
-1.4743,14.9141,12.4221,4.956,-16.275,-6.9746,-7.6139,-3.1636,4.0632,1613,2019-08-07 16:14:43:763
-1.6274,6.9275,14.4207,4.956,-16.275,-6.9746,-7.6139,-3.1636,4.0632,1618,2019-08-07 16:14:43:768
-1.6274,6.9275,14.4207,4.956,-16.275,-6.9746,-5.9542,-4.6039,4.0739,1623,2019-08-07 16:14:43:773
0.2384,1.6667,6.2988,4.956,-16.275,-6.9746,-5.9542,-4.6039,4.0739,1629,2019-08-07 16:14:43:779
0.2384,1.6667,6.2988,2.4657,-6.0332,3.145,-5.5579,-5.7352,3.6286,1633,2019-08-07 16:14:43:783
0.2384,1.6667,6.2988,2.4657,-6.0332,3.145,-5.5579,-5.7352,3.6286,1638,2019-08-07 16:14:43:788
0.8269,-3.0403,-0.2675,2.4657,-6.0332,3.145,-6.0511,-6.9549,3.0875,1642,2019-08-07 16:14:43:792
0.8269,-3.0403,-0.2675,2.4657,-6.0332,3.145,-6.0511,-6.9549,3.0875,1648,2019-08-07 16:14:43:798
0.8269,-3.0403,-0.2675,3.6553,-0.8206,7.8056,-7.0525,-8.2471,2.8648,1653,2019-08-07 16:14:43:803
-1.0246,-7.4942,-2.4453,3.6553,-0.8206,7.8056,-7.0525,-8.2471,2.8648,1658,2019-08-07 16:14:43:808
-1.0246,-7.4942,-2.4453,3.6553,-0.8206,7.8056,-7.0525,-8.2471,2.8648,1663,2019-08-07 16:14:43:813
-1.0246,-7.4942,-2.4453,3.6553,-0.8206,7.8056,-7.1526,-7.8604,3.0406,1668,2019-08-07 16:14:43:818
1.1666,-14.4211,1.3305,2.6941,8.7531,5.8642,-7.1526,-7.8604,3.0406,1673,2019-08-07 16:14:43:823
1.1666,-14.4211,1.3305,2.6941,8.7531,5.8642,-5.7806,-6.4873,3.0182,1677,2019-08-07 16:14:43:827
0.559,-22.6273,-2.3982,2.6941,8.7531,5.8642,-5.7806,-6.4873,3.0182,1684,2019-08-07 16:14:43:834
0.559,-22.6273,-2.3982,2.6941,8.7531,5.8642,-4.9507,-6.1762,3.3293,1688,2019-08-07 16:14:43:838
0.559,-22.6273,-2.3982,5.8019,14.6284,2.399,-4.9507,-6.1762,3.3293,1693,2019-08-07 16:14:43:843
-1.9767,-21.9732,1.354,5.8019,14.6284,2.399,-3.4807,-5.7789,3.6457,1698,2019-08-07 16:14:43:848
-1.9767,-21.9732,1.354,5.8019,14.6284,2.399,-3.4807,-5.7789,3.6457,1702,2019-08-07 16:14:43:852
-1.57,-18.011,0.6752,5.8019,14.6284,2.399,-1.8252,-5.3826,3.407,1708,2019-08-07 16:14:43:858
-1.57,-18.011,0.6752,5.4393,9.3134,2.7732,-1.8252,-5.3826,3.407,1713,2019-08-07 16:14:43:863
-1.57,-18.011,0.6752,5.4393,9.3134,2.7732,-1.8252,-5.3826,3.407,1718,2019-08-07 16:14:43:868
-1.57,-18.011,0.6752,5.4393,9.3134,2.7732,-0.907,-5.8406,2.6539,1724,2019-08-07 16:14:43:874
-3.5268,-19.7343,-10.9207,7.1538,10.8934,13.1385,-0.907,-5.8406,2.6539,1729,2019-08-07 16:14:43:879
-3.5268,-19.7343,-10.9207,7.1538,10.8934,13.1385,-1.9563,-5.2462,2.4174,1733,2019-08-07 16:14:43:883
-4.321,-23.6441,-9.9544,7.1538,10.8934,13.1385,-1.9563,-5.2462,2.4174,1737,2019-08-07 16:14:43:887
-4.321,-23.6441,-9.9544,7.2631,16.1096,2.9865,-2.9992,-4.2214,2.3407,1743,2019-08-07 16:14:43:893
-3.7851,-26.4511,-2.417,7.2631,16.1096,2.9865,-2.9992,-4.2214,2.3407,1748,2019-08-07 16:14:43:898
-3.7851,-26.4511,-2.417,7.2631,16.1096,2.9865,-2.2247,-3.1093,1.9306,1753,2019-08-07 16:14:43:903
-3.7851,-26.4511,-2.417,7.2631,16.1096,2.9865,-2.2247,-3.1093,1.9306,1758,2019-08-07 16:14:43:908
-7.6269,-25.7732,1.4907,10.6364,16.4715,-0.6799,-0.5768,-1.1961,1.5833,1763,2019-08-07 16:14:43:913
-7.6269,-25.7732,1.4907,10.6364,16.4715,-0.6799,-0.5768,-1.1961,1.5833,1768,2019-08-07 16:14:43:918
-7.6269,-25.7732,1.4907,10.6364,16.4715,-0.6799,-0.5768,-1.1961,1.5833,1773,2019-08-07 16:14:43:923
-10.3108,-23.0712,5.3891,13.1581,13.7203,-4.5585,1.7008,1.2029,1.349,1778,2019-08-07 16:14:43:928
-10.3108,-23.0712,5.3891,13.1581,13.7203,-4.5585,1.7008,1.2029,1.349,1783,2019-08-07 16:14:43:933
-9.0287,-18.011,7.4301,13.1581,13.7203,-4.5585,4.104,2.609,0.9292,1788,2019-08-07 16:14:43:938
-9.0287,-18.011,7.4301,13.1581,13.7203,-4.5585,4.104,2.609,0.9292,1793,2019-08-07 16:14:43:943
-7.8517,-11.1271,-4.8871,9.917,6.3145,6.4711,3.793,3.4591,-0.0146,1799,2019-08-07 16:14:43:949
-7.8517,-11.1271,-4.8871,9.917,6.3145,6.4711,3.793,3.4591,-0.0146,1803,2019-08-07 16:14:43:953
-7.8517,-11.1271,-4.8871,9.917,6.3145,6.4711,2.162,4.5968,-0.9201,1808,2019-08-07 16:14:43:958
-7.8517,-11.1271,-4.8871,9.917,6.3145,6.4711,2.162,4.5968,-0.9201,1813,2019-08-07 16:14:43:963
-11.6983,-5.8616,4.3332,15.065,-4.0158,-1.7362,0.0741,2.544,-1.5028,1818,2019-08-07 16:14:43:968
-11.6983,-5.8616,4.3332,15.065,-4.0158,-1.7362,0.0741,2.544,-1.5028,1823,2019-08-07 16:14:43:973
-11.9901,-3.9855,11.3944,15.065,-4.0158,-1.7362,0.0741,2.544,-1.5028,1827,2019-08-07 16:14:43:977
-11.9901,-3.9855,11.3944,10.3662,-3.256,-8.7311,-0.6652,-0.3055,-1.3696,1834,2019-08-07 16:14:43:984
-11.9901,-3.9855,11.3944,10.3662,-3.256,-8.7311,-0.6652,-0.3055,-1.3696,1838,2019-08-07 16:14:43:988
-4.1057,-7.7807,7.6045,10.3662,-3.256,-8.7311,-0.2657,-1.3793,-1.2663,1843,2019-08-07 16:14:43:993
-4.1057,-7.7807,7.6045,10.3662,-3.256,-8.7311,-0.2657,-1.3793,-1.2663,1848,2019-08-07 16:14:43:998
-4.1057,-7.7807,7.6045,10.3662,-3.256,-8.7311,-0.7781,-3.4438,-1.4655,1852,2019-08-07 16:14:44:002
3.9175,-10.2153,-0.852,-1.0413,1.1041,3.0766,-0.7781,-3.4438,-1.4655,1858,2019-08-07 16:14:44:008
3.9175,-10.2153,-0.852,-1.0413,1.1041,3.0766,-1.4705,-4.4153,-1.768,1864,2019-08-07 16:14:44:014
8.6347,-9.3656,-2.6386,-1.0413,1.1041,3.0766,-1.4705,-4.4153,-1.768,1867,2019-08-07 16:14:44:017
8.6347,-9.3656,-2.6386,-1.0413,1.1041,3.0766,-1.4705,-4.4153,-1.768,1873,2019-08-07 16:14:44:023
8.6347,-9.3656,-2.6386,-5.4891,-0.156,1.5821,-1.3661,-4.3716,-1.9448,1878,2019-08-07 16:14:44:028
9.1993,-8.239,-0.1732,-5.4891,-0.156,1.5821,-1.3661,-4.3716,-1.9448,1884,2019-08-07 16:14:44:034
9.1993,-8.239,-0.1732,-5.4891,-0.156,1.5821,-0.3008,-4.2374,-1.1267,1887,2019-08-07 16:14:44:037
9.8308,-7.8952,-2.0682,-5.4891,-0.156,1.5821,-0.3008,-4.2374,-1.1267,1893,2019-08-07 16:14:44:043
9.8308,-7.8952,-2.0682,-6.3798,-0.2304,5.8504,0.4811,-2.7556,-0.4045,1898,2019-08-07 16:14:44:048
9.8308,-7.8952,-2.0682,-6.3798,-0.2304,5.8504,0.4811,-2.7556,-0.4045,1903,2019-08-07 16:14:44:053
11.4,-9.7761,-9.3887,-6.3798,-0.2304,5.8504,0.954,0.4785,0.338,1907,2019-08-07 16:14:44:057
11.4,-9.7761,-9.3887,-6.3798,-0.2304,5.8504,0.954,0.4785,0.338,1912,2019-08-07 16:14:44:062
11.2469,-9.208,-4.4015,-8.0248,0.671,7.1966,0.023,2.8796,0.2922,1918,2019-08-07 16:14:44:068
11.2469,-9.208,-4.4015,-8.0248,0.671,7.1966,0.023,2.8796,0.2922,1923,2019-08-07 16:14:44:073
11.2469,-9.208,-4.4015,-8.0248,0.671,7.1966,-0.8772,3.114,-0.0892,1928,2019-08-07 16:14:44:078
4.3241,-6.9739,-0.7672,-8.0248,0.671,7.1966,-0.8772,3.114,-0.0892,1934,2019-08-07 16:14:44:084
4.3241,-6.9739,-0.7672,1.7083,-2.5611,-2.8156,-0.8772,3.114,-0.0892,1938,2019-08-07 16:14:44:088
0.846,-7.9239,3.9372,1.7083,-2.5611,-2.8156,-0.8207,2.9595,0.0504,1943,2019-08-07 16:14:44:093
0.846,-7.9239,3.9372,1.7083,-2.5611,-2.8156,-0.8207,2.9595,0.0504,1948,2019-08-07 16:14:44:098
0.846,-7.9239,3.9372,1.7083,-2.5611,-2.8156,-0.3616,2.3906,0.2549,1953,2019-08-07 16:14:44:103
0.846,-7.9239,3.9372,2.1826,2.1465,-1.813,-0.3616,2.3906,0.2549,1958,2019-08-07 16:14:44:108
1.3675,-11.4231,3.3244,2.1826,2.1465,-1.813,-0.0771,1.6173,0.1633,1964,2019-08-07 16:14:44:114
1.3675,-11.4231,3.3244,2.7361,2.5408,-1.6616,-0.0771,1.6173,0.1633,1967,2019-08-07 16:14:44:117
1.3675,-11.4231,3.3244,2.7361,2.5408,-1.6616,-0.0771,1.6173,0.1633,1973,2019-08-07 16:14:44:123
0.2288,-10.7739,4.0786,2.7361,2.5408,-1.6616,0.0912,0.8013,-0.0647,1978,2019-08-07 16:14:44:128
0.2288,-10.7739,4.0786,2.7361,2.5408,-1.6616,0.0912,0.8013,-0.0647,1983,2019-08-07 16:14:44:133
0.2288,-10.7739,4.0786,3.3253,0.0393,-2.1514,0.0901,-0.2235,-0.1105,1988,2019-08-07 16:14:44:138
0.5015,-8.807,3.4375,3.3253,0.0393,-2.1514,0.0901,-0.2235,-0.1105,1993,2019-08-07 16:14:44:143
0.5015,-8.807,3.4375,3.3253,0.0393,-2.1514,-0.0249,-0.6848,-0.0987,1999,2019-08-07 16:14:44:149
3.1424,-8.9264,1.7971,3.3253,0.0393,-2.1514,-0.0249,-0.6848,-0.0987,2004,2019-08-07 16:14:44:154
3.1424,-8.9264,1.7971,-0.021,0.0946,0.0643,-0.2273,-0.9937,-0.1286,2007,2019-08-07 16:14:44:157
3.1424,-8.9264,1.7971,-0.021,0.0946,0.0643,-0.2273,-0.9937,-0.1286,2013,2019-08-07 16:14:44:163
4.9461,-9.7284,1.1938,-0.021,0.0946,0.0643,-0.2273,-0.9937,-0.1286,2018,2019-08-07 16:14:44:168
4.9461,-9.7284,1.1938,-0.021,0.0946,0.0643,-0.2082,-0.6571,-0.1893,2023,2019-08-07 16:14:44:173
5.6733,-9.6759,0.9015,-1.9917,0.7847,0.5358,-0.2082,-0.6571,-0.1893,2029,2019-08-07 16:14:44:179
5.6733,-9.6759,0.9015,-1.9917,0.7847,0.5358,-0.0739,-0.1607,-0.2063,2033,2019-08-07 16:14:44:183
5.6733,-9.6759,0.9015,-1.9917,0.7847,0.5358,-0.0739,-0.1607,-0.2063,2038,2019-08-07 16:14:44:188
5.4532,-9.0362,0.6658,-1.9917,0.7847,0.5358,0.0432,0.3272,-0.1967,2043,2019-08-07 16:14:44:193
5.4532,-9.0362,0.6658,-1.4024,-0.3429,0.9293,0.0432,0.3272,-0.1967,2049,2019-08-07 16:14:44:199
5.4532,-9.0362,0.6658,-1.4024,-0.3429,0.9293,0.0326,0.7406,-0.1946,2052,2019-08-07 16:14:44:202
4.5203,-8.3249,1.0052,-1.4024,-0.3429,0.9293,0.0326,0.7406,-0.1946,2058,2019-08-07 16:14:44:208
4.5203,-8.3249,1.0052,-1.4024,-0.3429,0.9293,-0.042,0.7789,-0.2127,2063,2019-08-07 16:14:44:213
3.6447,-8.2628,1.816,0.0283,-0.6932,-0.2239,-0.042,0.7789,-0.2127,2068,2019-08-07 16:14:44:218
3.6447,-8.2628,1.816,0.0283,-0.6932,-0.2239,-0.042,0.7789,-0.2127,2073,2019-08-07 16:14:44:223
3.6447,-8.2628,1.816,0.0283,-0.6932,-0.2239,-0.0708,0.6681,-0.2266,2078,2019-08-07 16:14:44:228
3.262,-8.5922,1.9762,0.42,-0.3563,-0.3631,-0.0708,0.6681,-0.2266,2083,2019-08-07 16:14:44:233
3.262,-8.5922,1.9762,0.42,-0.3563,-0.3631,-0.0569,0.4306,-0.2138,2088,2019-08-07 16:14:44:238
3.262,-8.5922,1.9762,0.42,-0.3563,-0.3631,-0.0569,0.4306,-0.2138,2093,2019-08-07 16:14:44:243
3.3242,-8.8643,1.8867,0.17,0.0201,-0.1838,-0.0207,0.2356,-0.1989,2098,2019-08-07 16:14:44:248
3.3242,-8.8643,1.8867,0.17,0.0201,-0.1838,-0.0207,0.2356,-0.1989,2103,2019-08-07 16:14:44:253
3.7213,-8.9073,1.7311,0.17,0.0201,-0.1838,0.0241,0.1419,-0.1989,2108,2019-08-07 16:14:44:258
3.7213,-8.9073,1.7311,0.17,0.0201,-0.1838,0.0241,0.1419,-0.1989,2113,2019-08-07 16:14:44:263
3.7213,-8.9073,1.7311,-0.3821,-0.2264,0.2421,0.0241,0.1419,-0.1989,2118,2019-08-07 16:14:44:268
3.7213,-8.9073,1.7311,-0.3821,-0.2264,0.2421,0.0454,0.1834,-0.1882,2123,2019-08-07 16:14:44:273
4.2571,-8.6161,1.1749,-0.3821,-0.2264,0.2421,0.0454,0.1834,-0.1882,2128,2019-08-07 16:14:44:278
4.2571,-8.6161,1.1749,-0.5433,-0.2704,0.5061,0.0315,0.258,-0.1861,2133,2019-08-07 16:14:44:283
4.2571,-8.6161,1.1749,-0.5433,-0.2704,0.5061,0.0315,0.258,-0.1861,2138,2019-08-07 16:14:44:288
4.3911,-8.597,1.3634,-0.5433,-0.2704,0.5061,0.023,0.3826,-0.1925,2143,2019-08-07 16:14:44:293
4.3911,-8.597,1.3634,-0.5494,-0.2437,0.2484,0.023,0.3826,-0.1925,2149,2019-08-07 16:14:44:299
4.3911,-8.597,1.3634,-0.5494,-0.2437,0.2484,0.023,0.3826,-0.1925,2152,2019-08-07 16:14:44:302
4.1901,-8.6781,1.5143,-0.5494,-0.2437,0.2484,0.0411,0.5126,-0.2031,2158,2019-08-07 16:14:44:308
4.1901,-8.6781,1.5143,-0.5494,-0.2437,0.2484,0.0326,0.5264,-0.2095,2163,2019-08-07 16:14:44:313
3.7404,-8.6113,1.7358,0.1558,-0.2784,-0.0545,0.0326,0.5264,-0.2095,2168,2019-08-07 16:14:44:318
3.7404,-8.6113,1.7358,0.1558,-0.2784,-0.0545,0.0326,0.5264,-0.2095,2173,2019-08-07 16:14:44:323
3.7404,-8.6113,1.7358,0.1558,-0.2784,-0.0545,0.0134,0.4764,-0.1893,2178,2019-08-07 16:14:44:328
3.4533,-8.5349,2.0234,0.3554,-0.3328,-0.2646,0.0134,0.4764,-0.1893,2183,2019-08-07 16:14:44:333
3.4533,-8.5349,2.0234,0.3554,-0.3328,-0.2646,-0.0367,0.2985,-0.1637,2188,2019-08-07 16:14:44:338
3.3481,-8.6065,1.9574,0.3554,-0.3328,-0.2646,-0.0367,0.2985,-0.1637,2193,2019-08-07 16:14:44:343
3.3481,-8.6065,1.9574,0.3554,-0.3328,-0.2646,-0.0718,0.1685,-0.1541,2198,2019-08-07 16:14:44:348
3.3481,-8.6065,1.9574,0.387,-0.0788,-0.1406,-0.0718,0.1685,-0.1541,2203,2019-08-07 16:14:44:353
3.5586,-8.8977,1.9055,0.387,-0.0788,-0.1406,-0.1134,-0.0286,-0.136,2208,2019-08-07 16:14:44:358
3.5586,-8.8977,1.9055,0.1684,0.0869,-0.0487,-0.1134,-0.0286,-0.136,2213,2019-08-07 16:14:44:363
3.5586,-8.8977,1.9055,0.1684,0.0869,-0.0487,-0.1347,-0.1521,-0.1094,2218,2019-08-07 16:14:44:368
4.2284,-9.1603,1.486,0.1684,0.0869,-0.0487,-0.1347,-0.1521,-0.1094,2223,2019-08-07 16:14:44:373
4.2284,-9.1603,1.486,0.1684,0.0869,-0.0487,-0.1208,-0.133,-0.0934,2228,2019-08-07 16:14:44:378
4.702,-9.1651,1.2645,-0.7765,0.3538,0.3728,-0.1208,-0.133,-0.0934,2233,2019-08-07 16:14:44:383
4.702,-9.1651,1.2645,-0.7765,0.3538,0.3728,-0.1208,-0.133,-0.0934,2238,2019-08-07 16:14:44:388
4.702,-9.1651,1.2645,-0.7765,0.3538,0.3728,-0.0793,0.0183,-0.0519,2242,2019-08-07 16:14:44:392
4.8312,-9.0648,1.123,-0.7765,0.3538,0.3728,-0.0793,0.0183,-0.0519,2249,2019-08-07 16:14:44:399
4.8312,-9.0648,1.123,-0.8513,0.2281,0.4474,-0.0473,0.1962,-0.0231,2253,2019-08-07 16:14:44:403
4.4772,-8.9837,1.3964,-0.8513,0.2281,0.4474,-0.0473,0.1962,-0.0231,2258,2019-08-07 16:14:44:408
4.4772,-8.9837,1.3964,-0.8513,0.2281,0.4474,-0.0356,0.2836,-0.0071,2264,2019-08-07 16:14:44:414
4.4772,-8.9837,1.3964,-0.8513,0.2281,0.4474,-0.0356,0.2836,-0.0071,2268,2019-08-07 16:14:44:418
3.994,-8.9312,1.5991,-0.1179,0.0854,0.1226,-0.0356,0.2836,-0.0071,2273,2019-08-07 16:14:44:423
3.994,-8.9312,1.5991,-0.1179,0.0854,0.1226,-0.0239,0.3155,-0.0029,2278,2019-08-07 16:14:44:428
3.506,-8.893,2.0139,-0.1179,0.0854,0.1226,-0.0239,0.3155,-0.0029,2283,2019-08-07 16:14:44:433
3.506,-8.893,2.0139,-0.1179,0.0854,0.1226,-0.009,0.242,-0.005,2288,2019-08-07 16:14:44:438
3.506,-8.893,2.0139,0.5548,0.0128,-0.3941,-0.009,0.242,-0.005,2292,2019-08-07 16:14:44:442
3.2811,-8.8691,2.2119,0.5548,0.0128,-0.3941,-0.0015,0.1078,0.0046,2298,2019-08-07 16:14:44:448
3.2811,-8.8691,2.2119,0.5548,0.0128,-0.3941,-0.0015,0.1078,0.0046,2303,2019-08-07 16:14:44:453
3.4629,-8.8166,2.1035,0.5548,0.0128,-0.3941,-0.0026,-0.0414,0.0046,2308,2019-08-07 16:14:44:458
3.4629,-8.8166,2.1035,0.2284,0.0116,-0.3022,-0.0026,-0.0414,0.0046,2314,2019-08-07 16:14:44:464
3.4629,-8.8166,2.1035,0.2284,0.0116,-0.3022,-0.0026,-0.0414,0.0046,2318,2019-08-07 16:14:44:468
3.8504,-8.7927,1.9055,0.2284,0.0116,-0.3022,-0.0026,-0.1543,-0.022,2323,2019-08-07 16:14:44:473
3.8504,-8.7927,1.9055,0.2284,0.0116,-0.3022,-0.0026,-0.1543,-0.022,2328,2019-08-07 16:14:44:478
4.1327,-8.7259,1.7123,-0.2072,-0.12,0.0408,-4.0E-4,-0.1436,-0.038,2333,2019-08-07 16:14:44:483
4.1327,-8.7259,1.7123,-0.2072,-0.12,0.0408,-4.0E-4,-0.1436,-0.038,2338,2019-08-07 16:14:44:488
4.1327,-8.7259,1.7123,-0.2072,-0.12,0.0408,-0.0026,-0.0904,-0.0444,2342,2019-08-07 16:14:44:492
4.2427,-8.6877,1.5803,-0.2072,-0.12,0.0408,-0.0026,-0.0904,-0.0444,2349,2019-08-07 16:14:44:499
4.2427,-8.6877,1.5803,-0.3939,-0.1441,0.1281,-0.0015,0.0279,-0.0593,2353,2019-08-07 16:14:44:503
4.2427,-8.6877,1.5803,-0.3939,-0.1441,0.1281,-0.0015,0.0279,-0.0593,2358,2019-08-07 16:14:44:508
4.1035,-8.6829,1.665,-0.3939,-0.1441,0.1281,6.0E-4,0.0907,-0.0785,2363,2019-08-07 16:14:44:513
4.1035,-8.6829,1.665,-0.3939,-0.1441,0.1281,6.0E-4,0.0907,-0.0785,2368,2019-08-07 16:14:44:518
4.1035,-8.6829,1.665,-0.3939,-0.1441,0.1281,6.0E-4,0.0907,-0.0785,2373,2019-08-07 16:14:44:523
3.826,-8.616,1.8206,0.0676,-0.2187,-0.0819,0.0134,0.1078,-0.0902,2378,2019-08-07 16:14:44:528
3.826,-8.616,1.8206,0.0676,-0.2187,-0.0819,0.0134,0.1078,-0.0902,2383,2019-08-07 16:14:44:533
3.7542,-8.6399,2.0563,0.0676,-0.2187,-0.0819,0.0017,-0.0094,-0.0806,2388,2019-08-07 16:14:44:538
3.7542,-8.6399,2.0563,0.1331,-0.1638,-0.31,0.0017,-0.0094,-0.0806,2393,2019-08-07 16:14:44:543
3.7542,-8.6399,2.0563,0.1331,-0.1638,-0.31,-0.0026,-0.1127,-0.0742,2398,2019-08-07 16:14:44:548
4.0125,-8.6447,2.127,0.1331,-0.1638,-0.31,-0.0026,-0.1127,-0.0742,2402,2019-08-07 16:14:44:552
4.0125,-8.6447,2.127,0.1331,-0.1638,-0.31,-0.0122,-0.1916,-0.0647,2408,2019-08-07 16:14:44:558
4.3044,-8.6208,1.8866,-0.4217,-0.2337,-0.0941,-0.0122,-0.1916,-0.0647,2413,2019-08-07 16:14:44:563
4.3044,-8.6208,1.8866,-0.4217,-0.2337,-0.0941,-0.0122,-0.1916,-0.0647,2418,2019-08-07 16:14:44:568
4.3044,-8.6208,1.8866,-0.4217,-0.2337,-0.0941,-0.0484,-0.2246,-0.021,2423,2019-08-07 16:14:44:573
4.4287,-8.659,1.6697,-0.494,-0.1604,0.0543,-0.0484,-0.2246,-0.021,2428,2019-08-07 16:14:44:578
4.4287,-8.659,1.6697,-0.494,-0.1604,0.0543,-0.0846,-0.2043,0.0312,2433,2019-08-07 16:14:44:583
4.7875,-8.8308,1.4482,-0.494,-0.1604,0.0543,-0.0846,-0.2043,0.0312,2438,2019-08-07 16:14:44:588
4.7875,-8.8308,1.4482,-0.8123,0.0606,0.261,-0.1112,-0.1692,0.0525,2444,2019-08-07 16:14:44:594
4.7875,-8.8308,1.4482,-0.8123,0.0606,0.261,-0.1112,-0.1692,0.0525,2448,2019-08-07 16:14:44:598
4.6966,-8.9502,1.5,-0.8123,0.0606,0.261,-0.0878,-0.0744,0.0674,2453,2019-08-07 16:14:44:603
4.6966,-8.9502,1.5,-0.8123,0.0606,0.261,-0.0878,-0.0744,0.0674,2458,2019-08-07 16:14:44:608
4.577,-8.9788,1.3775,-0.5969,0.13,0.2875,-0.0612,-0.0115,0.0834,2463,2019-08-07 16:14:44:613
4.577,-8.9788,1.3775,-0.5969,0.13,0.2875,-0.0612,-0.0115,0.0834,2467,2019-08-07 16:14:44:617
4.577,-8.9788,1.3775,-0.5969,0.13,0.2875,-0.0612,-0.0115,0.0834,2473,2019-08-07 16:14:44:623
4.3569,-8.9263,1.5377,-0.427,0.0928,0.1236,-0.0271,0.0758,0.0909,2478,2019-08-07 16:14:44:628
4.3569,-8.9263,1.5377,-0.427,0.0928,0.1236,-0.0271,0.0758,0.0909,2483,2019-08-07 16:14:44:633
4.3569,-8.9263,1.5377,-0.427,0.0928,0.1236,0.0155,0.1067,0.0717,2488,2019-08-07 16:14:44:638
3.8929,-8.7258,1.8535,-0.427,0.0928,0.1236,0.0155,0.1067,0.0717,2493,2019-08-07 16:14:44:643
3.8929,-8.7258,1.8535,0.1925,-0.1948,-0.2876,0.0262,0.0513,0.0589,2498,2019-08-07 16:14:44:648
3.6393,-8.4346,2.0232,0.1925,-0.1948,-0.2876,0.0262,0.0513,0.0589,2503,2019-08-07 16:14:44:653
3.6393,-8.4346,2.0232,0.1925,-0.1948,-0.2876,0.0273,-0.0382,0.0387,2508,2019-08-07 16:14:44:658
3.6393,-8.4346,2.0232,0.2405,-0.4315,-0.2332,0.0273,-0.0382,0.0387,2513,2019-08-07 16:14:44:663
3.6919,-8.3917,1.9242,0.2405,-0.4315,-0.2332,-0.0036,-0.1532,0.028,2518,2019-08-07 16:14:44:668
3.6919,-8.3917,1.9242,0.2405,-0.4315,-0.2332,-0.0036,-0.1532,0.028,2523,2019-08-07 16:14:44:673
3.9598,-8.4298,1.764,0.2405,-0.4315,-0.2332,-0.0217,-0.2107,0.0248,2528,2019-08-07 16:14:44:678
3.9598,-8.4298,1.764,-0.1257,-0.3138,-0.1435,-0.0217,-0.2107,0.0248,2533,2019-08-07 16:14:44:683
3.9598,-8.4298,1.764,-0.1257,-0.3138,-0.1435,-0.0217,-0.2107,0.0248,2538,2019-08-07 16:14:44:688
4.1129,-8.6017,1.6933,-0.1257,-0.3138,-0.1435,-0.0217,-0.2512,0.0195,2544,2019-08-07 16:14:44:694
4.1129,-8.6017,1.6933,-0.2132,-0.2524,-0.0278,-0.0217,-0.2512,0.0195,2548,2019-08-07 16:14:44:698
4.3521,-8.807,1.6084,-0.2132,-0.2524,-0.0278,-0.0047,-0.2789,0.0397,2553,2019-08-07 16:14:44:703
4.3521,-8.807,1.6084,-0.2132,-0.2524,-0.0278,-0.0047,-0.2789,0.0397,2558,2019-08-07 16:14:44:708
4.3521,-8.807,1.6084,-0.2132,-0.2524,-0.0278,0.0155,-0.2416,0.0355,2563,2019-08-07 16:14:44:713
4.4956,-8.7974,1.6131,-0.5714,-0.0154,-0.0308,0.0155,-0.2416,0.0355,2568,2019-08-07 16:14:44:718
4.4956,-8.7974,1.6131,-0.5714,-0.0154,-0.0308,0.0155,-0.2416,0.0355,2573,2019-08-07 16:14:44:723
4.4956,-8.7974,1.6131,-0.5714,-0.0154,-0.0308,0.0315,-0.2097,0.0291,2578,2019-08-07 16:14:44:728
4.5291,-8.7736,1.5283,-0.6116,-0.0727,0.0945,0.0315,-0.2097,0.0291,2583,2019-08-07 16:14:44:733
4.5291,-8.7736,1.5283,-0.6116,-0.0727,0.0945,0.0368,-0.134,0.0312,2588,2019-08-07 16:14:44:738
4.5961,-8.6685,1.5188,-0.6116,-0.0727,0.0945,0.0368,-0.134,0.0312,2593,2019-08-07 16:14:44:743
4.5961,-8.6685,1.5188,-0.6316,-0.1579,0.0514,0.0432,-0.0382,0.0312,2598,2019-08-07 16:14:44:748
4.5961,-8.6685,1.5188,-0.6316,-0.1579,0.0514,0.0432,-0.0382,0.0312,2603,2019-08-07 16:14:44:753
4.3616,-8.6351,1.6885,-0.441,-0.21,-0.0673,0.0411,0.0375,0.0312,2608,2019-08-07 16:14:44:758
4.3616,-8.6351,1.6885,-0.441,-0.21,-0.0673,0.0411,0.0375,0.0312,2613,2019-08-07 16:14:44:763
4.3616,-8.6351,1.6885,-0.441,-0.21,-0.0673,0.0411,0.0375,0.0312,2618,2019-08-07 16:14:44:768
4.3616,-8.6351,1.6885,-0.441,-0.21,-0.0673,0.0102,0.0322,0.0152,2623,2019-08-07 16:14:44:773
3.9167,-8.5874,1.9808,0.0671,-0.2672,-0.4017,0.0102,0.0322,0.0152,2628,2019-08-07 16:14:44:778
3.9167,-8.5874,1.9808,0.0671,-0.2672,-0.4017,-0.009,-0.0445,0.0174,2634,2019-08-07 16:14:44:784
3.9167,-8.5874,1.9808,0.0671,-0.2672,-0.4017,-0.009,-0.0445,0.0174,2638,2019-08-07 16:14:44:788
3.9597,-8.6876,2.0798,0.0671,-0.2672,-0.4017,-0.0249,-0.133,0.012,2643,2019-08-07 16:14:44:793
3.9597,-8.6876,2.0798,-0.181,-0.1342,-0.3176,-0.0249,-0.133,0.012,2648,2019-08-07 16:14:44:798
4.2994,-8.6924,1.8582,-0.181,-0.1342,-0.3176,-0.0292,-0.1937,0.0078,2653,2019-08-07 16:14:44:803
4.2994,-8.6924,1.8582,-0.4403,-0.139,-0.1522,-0.0292,-0.1937,0.0078,2658,2019-08-07 16:14:44:808
4.2994,-8.6924,1.8582,-0.4403,-0.139,-0.1522,-0.0228,-0.1905,0.0195,2663,2019-08-07 16:14:44:813
4.596,-8.7449,1.6461,-0.4403,-0.139,-0.1522,-0.0228,-0.1905,0.0195,2668,2019-08-07 16:14:44:818
4.596,-8.7449,1.6461,-0.4403,-0.139,-0.1522,-0.0228,-0.1905,0.0195,2673,2019-08-07 16:14:44:823
4.6008,-8.7497,1.5424,-0.7166,-0.0868,0.0579,-0.0122,-0.085,0.0291,2678,2019-08-07 16:14:44:828
4.6008,-8.7497,1.5424,-0.7166,-0.0868,0.0579,-0.0122,-0.085,0.0291,2683,2019-08-07 16:14:44:833
4.6008,-8.7497,1.5424,-0.7166,-0.0868,0.0579,-0.0122,0.0417,0.0344,2688,2019-08-07 16:14:44:838
4.4477,-8.7735,1.5424,-0.7166,-0.0868,0.0579,-0.0122,0.0417,0.0344,2693,2019-08-07 16:14:44:843
4.4477,-8.7735,1.5424,-0.3125,-0.1119,-0.0464,-0.0068,0.0971,0.0248,2698,2019-08-07 16:14:44:848
4.4477,-8.7735,1.5424,-0.3125,-0.1119,-0.0464,-0.0068,0.0971,0.0248,2703,2019-08-07 16:14:44:853
3.974,-8.6876,1.7121,-0.3125,-0.1119,-0.0464,-0.0036,0.0939,0.0174,2708,2019-08-07 16:14:44:858
3.974,-8.6876,1.7121,-0.3125,-0.1119,-0.0464,-0.0036,0.0939,0.0174,2714,2019-08-07 16:14:44:864
3.7874,-8.7258,1.8771,0.1316,-0.1225,-0.2693,0.0113,0.0407,0.0014,2718,2019-08-07 16:14:44:868
3.7874,-8.7258,1.8771,0.1316,-0.1225,-0.2693,0.0113,0.0407,0.0014,2723,2019-08-07 16:14:44:873
3.7874,-8.7258,1.8771,0.1316,-0.1225,-0.2693,0.0113,0.0407,0.0014,2728,2019-08-07 16:14:44:878
3.8496,-8.7401,1.8441,0.0699,-0.1075,-0.2338,0.0155,-0.068,-0.0167,2733,2019-08-07 16:14:44:883
3.8496,-8.7401,1.8441,0.0699,-0.1075,-0.2338,0.0155,-0.068,-0.0167,2738,2019-08-07 16:14:44:888
4.0888,-8.6447,1.8771,0.0699,-0.1075,-0.2338,0.0294,-0.1777,-0.0327,2742,2019-08-07 16:14:44:892
4.0888,-8.6447,1.8771,-0.2593,-0.2374,-0.187,0.0294,-0.1777,-0.0327,2748,2019-08-07 16:14:44:898
4.0888,-8.6447,1.8771,-0.2593,-0.2374,-0.187,0.0358,-0.2416,-0.0114,2753,2019-08-07 16:14:44:903
4.2993,-8.5635,1.6367,-0.2593,-0.2374,-0.187,0.0358,-0.2416,-0.0114,2759,2019-08-07 16:14:44:909
4.2993,-8.5635,1.6367,-0.2593,-0.2374,-0.187,0.0358,-0.2416,-0.0114,2763,2019-08-07 16:14:44:913
4.4668,-8.511,1.5754,-0.5244,-0.3302,0.0145,0.007,-0.2576,0.0046,2768,2019-08-07 16:14:44:918
4.4668,-8.511,1.5754,-0.5244,-0.3302,0.0145,0.007,-0.2576,0.0046,2773,2019-08-07 16:14:44:923
4.4668,-8.511,1.5754,-0.5244,-0.3302,0.0145,-0.0292,-0.2853,0.0206,2778,2019-08-07 16:14:44:928
4.7873,-8.7544,1.3963,-0.5244,-0.3302,0.0145,-0.0292,-0.2853,0.0206,2783,2019-08-07 16:14:44:933
4.7873,-8.7544,1.3963,-1.0408,0.0557,0.1834,-0.0462,-0.2288,0.0333,2788,2019-08-07 16:14:44:938
5.0122,-8.8881,1.3067,-1.0408,0.0557,0.1834,-0.0462,-0.2288,0.0333,2794,2019-08-07 16:14:44:944
5.0122,-8.8881,1.3067,-1.0408,0.0557,0.1834,-0.0292,-0.0957,0.0451,2798,2019-08-07 16:14:44:948
5.0122,-8.8881,1.3067,-1.0408,0.0557,0.1834,-0.0292,-0.0957,0.0451,2802,2019-08-07 16:14:44:952
4.7203,-8.7926,1.2926,-1.0408,0.0557,0.1834,0.0017,0.0748,0.061,2808,2019-08-07 16:14:44:958
4.7203,-8.7926,1.2926,-0.6868,-0.0658,0.2609,0.0017,0.0748,0.061,2813,2019-08-07 16:14:44:963
4.7203,-8.7926,1.2926,-0.6868,-0.0658,0.2609,0.0081,0.1877,0.077,2818,2019-08-07 16:14:44:968
4.1031,-8.7449,1.6272,-0.6868,-0.0658,0.2609,0.0081,0.1877,0.077,2823,2019-08-07 16:14:44:973
4.1031,-8.7449,1.6272,0.0238,-0.1279,-0.1441,0.0091,0.1781,0.0717,2828,2019-08-07 16:14:44:978
3.7778,-8.721,1.7828,0.0238,-0.1279,-0.1441,0.0091,0.1781,0.0717,2833,2019-08-07 16:14:44:983
3.7778,-8.721,1.7828,0.0238,-0.1279,-0.1441,0.0091,0.1781,0.0717,2838,2019-08-07 16:14:44:988
3.7778,-8.721,1.7828,0.0238,-0.1279,-0.1441,0.0187,0.127,0.0376,2843,2019-08-07 16:14:44:993
3.6008,-8.6924,1.8252,0.3457,-0.2503,-0.3076,0.0187,0.127,0.0376,2848,2019-08-07 16:14:44:998
3.6008,-8.6924,1.8252,0.3457,-0.2503,-0.3076,0.0198,2.0E-4,0.0014,2852,2019-08-07 16:14:45:002
3.6008,-8.6924,1.8252,0.3457,-0.2503,-0.3076,0.0198,2.0E-4,0.0014,2858,2019-08-07 16:14:45:008
3.6343,-8.6303,1.8441,0.3457,-0.2503,-0.3076,0.0251,-0.1021,-0.0082,2864,2019-08-07 16:14:45:014
3.6343,-8.6303,1.8441,-0.0449,-0.1919,-0.1976,0.0251,-0.1021,-0.0082,2868,2019-08-07 16:14:45:018
4.1127,-8.7019,1.6697,-0.0449,-0.1919,-0.1976,0.0198,-0.2022,-0.0178,2873,2019-08-07 16:14:45:023
4.1127,-8.7019,1.6697,-0.0449,-0.1919,-0.1976,0.0198,-0.2022,-0.0178,2878,2019-08-07 16:14:45:028
4.1127,-8.7019,1.6697,-0.0449,-0.1919,-0.1976,0.0198,-0.2022,-0.0178,2883,2019-08-07 16:14:45:033
4.4763,-8.7306,1.5235,-0.0449,-0.1919,-0.1976,0.0134,-0.2011,-0.0178,2888,2019-08-07 16:14:45:038
4.4763,-8.7306,1.5235,-0.5632,-0.0597,0.0628,0.0134,-0.2011,-0.0178,2893,2019-08-07 16:14:45:043
4.7011,-8.8547,1.401,-0.5632,-0.0597,0.0628,0.0113,-0.1447,-0.0135,2899,2019-08-07 16:14:45:049
4.7011,-8.8547,1.401,-0.5632,-0.0597,0.0628,0.0113,-0.1447,-0.0135,2902,2019-08-07 16:14:45:052
4.7011,-8.8547,1.401,-0.5632,-0.0597,0.0628,0.0113,-0.1447,-0.0135,2908,2019-08-07 16:14:45:058
4.6437,-8.8404,1.401,-0.6906,-0.0231,0.1655,0.007,-0.0328,-7.0E-4,2913,2019-08-07 16:14:45:063
4.6437,-8.8404,1.401,-0.6906,-0.0231,0.1655,0.007,-0.0328,-7.0E-4,2918,2019-08-07 16:14:45:068
4.6437,-8.8404,1.401,-0.6906,-0.0231,0.1655,0.007,0.0556,0.0184,2923,2019-08-07 16:14:45:073
4.481,-8.7974,1.5659,-0.6906,-0.0231,0.1655,0.007,0.0556,0.0184,2928,2019-08-07 16:14:45:078
4.481,-8.7974,1.5659,-0.4171,-0.1414,-0.0285,0.0134,0.0982,0.0184,2933,2019-08-07 16:14:45:083
4.2083,-8.659,1.5565,-0.4171,-0.1414,-0.0285,0.0134,0.0982,0.0184,2938,2019-08-07 16:14:45:088
4.2083,-8.659,1.5565,-0.4171,-0.1414,-0.0285,0.0113,0.1302,0.0174,2943,2019-08-07 16:14:45:093
4.2083,-8.659,1.5565,-0.4171,-0.1414,-0.0285,0.0113,0.1302,0.0174,2948,2019-08-07 16:14:45:098
4.0217,-8.6399,1.6979,-0.0777,-0.2036,-0.1249,-0.0026,0.0993,0.0174,2953,2019-08-07 16:14:45:103
4.0217,-8.6399,1.6979,-0.0777,-0.2036,-0.1249,-0.0026,0.0993,0.0174,2957,2019-08-07 16:14:45:107
3.9499,-8.6208,1.7262,-0.0777,-0.2036,-0.1249,0.0038,0.079,0.0163,2963,2019-08-07 16:14:45:113
3.9499,-8.6208,1.7262,-0.0777,-0.2036,-0.1249,0.0038,0.079,0.0163,2967,2019-08-07 16:14:45:117
3.9499,-8.6208,1.7262,-0.0252,-0.2329,-0.2292,0.0102,0.0471,0.0046,2973,2019-08-07 16:14:45:123
3.9499,-8.6303,1.7545,-0.0252,-0.2329,-0.2292,0.0102,0.0471,0.0046,2978,2019-08-07 16:14:45:128
3.9499,-8.6303,1.7545,-0.0252,-0.2329,-0.2292,0.0102,0.0471,0.0046,2983,2019-08-07 16:14:45:133
3.9499,-8.6303,1.7545,-0.0252,-0.2329,-0.2292,0.007,-0.0115,-0.0071,2988,2019-08-07 16:14:45:138
4.0504,-8.5539,1.6508,-0.1106,-0.289,-0.0646,0.007,-0.0115,-0.0071,2993,2019-08-07 16:14:45:143
4.0504,-8.5539,1.6508,-0.1106,-0.289,-0.0646,-0.0015,-0.0435,-0.0103,2998,2019-08-07 16:14:45:148
4.2705,-8.678,1.6178,-0.1106,-0.289,-0.0646,-0.0015,-0.0435,-0.0103,3003,2019-08-07 16:14:45:153
4.2705,-8.678,1.6178,-0.1106,-0.289,-0.0646,-0.009,-0.1031,-0.0061,3007,2019-08-07 16:14:45:157
4.2705,-8.678,1.6178,-0.1106,-0.289,-0.0646,-0.009,-0.1031,-0.0061,3013,2019-08-07 16:14:45:163
4.2705,-8.678,1.6178,-0.1106,-0.289,-0.0646,-0.009,-0.1031,-0.0061,3017,2019-08-07 16:14:45:167
4.414,-8.7019,1.5565,-0.4678,-0.1394,0.0233,-0.0143,-0.1117,-7.0E-4,3023,2019-08-07 16:14:45:173
4.414,-8.7019,1.5565,-0.4678,-0.1394,0.0233,-0.0143,-0.1117,-7.0E-4,3028,2019-08-07 16:14:45:178
4.414,-8.7019,1.5565,-0.4678,-0.1394,0.0233,0.0123,0.0236,0.0216,3032,2019-08-07 16:14:45:182
4.7058,-8.7497,1.3538,-0.4678,-0.1394,0.0233,0.0123,0.0236,0.0216,3038,2019-08-07 16:14:45:188
4.7058,-8.7497,1.3538,-0.6487,-0.0759,0.2053,0.0219,0.1206,0.0227,3043,2019-08-07 16:14:45:193
4.3565,-8.6924,1.4669,-0.6487,-0.0759,0.2053,0.0219,0.1206,0.0227,3048,2019-08-07 16:14:45:198
4.3565,-8.6924,1.4669,-0.6487,-0.0759,0.2053,0.0219,0.1206,0.0227,3052,2019-08-07 16:14:45:202
4.3565,-8.6924,1.4669,-0.6487,-0.0759,0.2053,0.0219,0.1504,0.0387,3058,2019-08-07 16:14:45:208
4.0599,-8.7831,1.6413,-0.1155,-0.0575,-0.0534,0.0219,0.1504,0.0387,3063,2019-08-07 16:14:45:213
4.0599,-8.7831,1.6413,-0.1155,-0.0575,-0.0534,0.0315,0.1184,0.0238,3068,2019-08-07 16:14:45:218
3.8685,-8.8022,1.778,0.0712,-0.039,-0.1818,0.0315,0.1184,0.0238,3073,2019-08-07 16:14:45:223
3.8685,-8.8022,1.778,0.0712,-0.039,-0.1818,0.0315,0.1184,0.0238,3078,2019-08-07 16:14:45:228
3.8685,-8.8022,1.778,0.0712,-0.039,-0.1818,0.0368,0.0577,0.0078,3082,2019-08-07 16:14:45:232
3.8063,-8.6685,1.8959,0.0712,-0.039,-0.1818,0.0368,0.0577,0.0078,3088,2019-08-07 16:14:45:238
3.8063,-8.6685,1.8959,0.0676,-0.2341,-0.2637,0.0336,-0.0243,-7.0E-4,3092,2019-08-07 16:14:45:242
3.8063,-8.6685,1.8959,0.0676,-0.2341,-0.2637,0.0336,-0.0243,-7.0E-4,3098,2019-08-07 16:14:45:248
4.012,-8.6446,1.8487,0.0676,-0.2341,-0.2637,0.0273,-0.0669,-0.0189,3103,2019-08-07 16:14:45:253
4.012,-8.6446,1.8487,0.0676,-0.2341,-0.2637,0.0273,-0.0669,-0.0189,3108,2019-08-07 16:14:45:258
4.213,-8.5778,1.7073,-0.2691,-0.2591,-0.0977,0.0123,-0.0754,-0.0391,3113,2019-08-07 16:14:45:263
4.213,-8.5778,1.7073,-0.2691,-0.2591,-0.0977,0.0123,-0.0754,-0.0391,3118,2019-08-07 16:14:45:268
4.213,-8.5778,1.7073,-0.2691,-0.2591,-0.0977,-0.01,-0.0584,-0.0444,3122,2019-08-07 16:14:45:272
4.4378,-8.5682,1.6319,-0.2691,-0.2591,-0.0977,-0.0207,-0.0211,-0.0391,3129,2019-08-07 16:14:45:279
4.4378,-8.5682,1.6319,-0.5332,-0.2017,-0.0279,-0.0207,-0.0211,-0.0391,3133,2019-08-07 16:14:45:283
4.4378,-8.5682,1.6319,-0.5332,-0.2017,-0.0279,-0.0207,-0.0211,-0.0391,3138,2019-08-07 16:14:45:288
4.5574,-8.6971,1.5471,-0.5332,-0.2017,-0.0279,-0.0207,0.013,-0.0295,3142,2019-08-07 16:14:45:292
4.5574,-8.6971,1.5471,-0.5332,-0.2017,-0.0279,-0.0207,0.013,-0.0295,3148,2019-08-07 16:14:45:298
4.5144,-8.7878,1.6178,-0.5489,-0.0408,-0.0157,-0.0015,0.0577,-0.0157,3152,2019-08-07 16:14:45:302
4.5144,-8.7878,1.6178,-0.5489,-0.0408,-0.0157,-0.0015,0.0577,-0.0157,3158,2019-08-07 16:14:45:308
4.5144,-8.7878,1.6178,-0.5489,-0.0408,-0.0157,0.0145,0.0737,0.0014,3162,2019-08-07 16:14:45:312
4.3995,-8.7783,1.6319,-0.5489,-0.0408,-0.0157,0.0145,0.0737,0.0014,3168,2019-08-07 16:14:45:318
4.3995,-8.7783,1.6319,-0.3564,-0.0771,0.0014,0.0166,0.0705,0.0152,3173,2019-08-07 16:14:45:323
4.2895,-8.7496,1.6225,-0.3564,-0.0771,0.0014,0.0166,0.0705,0.0152,3178,2019-08-07 16:14:45:328
4.2895,-8.7496,1.6225,-0.3564,-0.0771,0.0014,0.0134,0.062,0.0152,3183,2019-08-07 16:14:45:333
4.2895,-8.7496,1.6225,-0.3564,-0.0771,0.0014,0.0134,0.062,0.0152,3187,2019-08-07 16:14:45:337
4.1459,-8.6637,1.6885,-0.1295,-0.1581,-0.0287,0.0049,0.0396,0.0142,3193,2019-08-07 16:14:45:343
4.1459,-8.6637,1.6885,-0.1295,-0.1581,-0.0287,0.0049,0.0396,0.0142,3198,2019-08-07 16:14:45:348
4.0694,-8.6351,1.646,-0.1295,-0.1581,-0.0287,0.0049,0.0396,0.0142,3203,2019-08-07 16:14:45:353
4.0694,-8.6351,1.646,-0.1295,-0.1581,-0.0287,-0.009,0.0108,0.0078,3208,2019-08-07 16:14:45:358
4.0502,-8.6924,1.6743,-0.088,-0.1347,-0.0555,-0.009,0.0108,0.0078,3212,2019-08-07 16:14:45:362
4.0502,-8.6924,1.6743,-0.088,-0.1347,-0.0555,-0.0058,-0.0041,-0.0018,3218,2019-08-07 16:14:45:368
4.0502,-8.6924,1.6743,-0.088,-0.1347,-0.0555,-0.0058,-0.0041,-0.0018,3223,2019-08-07 16:14:45:373
4.1124,-8.6207,1.7544,-0.088,-0.1347,-0.0555,0.0028,-0.0286,-0.0157,3228,2019-08-07 16:14:45:378
4.1124,-8.6207,1.7544,-0.1369,-0.1904,-0.0183,0.0028,-0.0286,-0.0157,3233,2019-08-07 16:14:45:383
4.1124,-8.6207,1.7544,-0.1369,-0.1904,-0.0183,0.0059,-0.0286,-0.0338,3237,2019-08-07 16:14:45:387
4.1603,-8.6255,1.6507,-0.1369,-0.1904,-0.0183,0.0059,-0.0286,-0.0338,3243,2019-08-07 16:14:45:393
4.1603,-8.6255,1.6507,-0.1369,-0.1904,-0.0183,6.0E-4,-0.035,-0.037,3248,2019-08-07 16:14:45:398
4.342,-8.6255,1.6083,-0.3809,-0.1959,-0.0574,6.0E-4,-0.035,-0.037,3253,2019-08-07 16:14:45:403
4.342,-8.6255,1.6083,-0.3809,-0.1959,-0.0574,-0.0015,-0.0254,-0.037,3257,2019-08-07 16:14:45:407
4.3468,-8.616,1.6319,-0.3809,-0.1959,-0.0574,-0.0015,-0.0254,-0.037,3263,2019-08-07 16:14:45:413
4.3468,-8.616,1.6319,-0.3809,-0.1959,-0.0574,0.0091,0.014,-0.0402,3268,2019-08-07 16:14:45:418
4.3468,-8.616,1.6319,-0.3809,-0.1959,-0.0574,0.0091,0.014,-0.0402,3272,2019-08-07 16:14:45:422
4.2846,-8.6494,1.6649,-0.3041,-0.2294,-0.0512,0.0123,0.0268,-0.0306,3278,2019-08-07 16:14:45:428
4.2846,-8.6494,1.6649,-0.3041,-0.2294,-0.0512,0.0123,0.0268,-0.0306,3283,2019-08-07 16:14:45:433
4.2846,-8.6494,1.6649,-0.3041,-0.2294,-0.0512,0.0123,0.0268,-0.0306,3287,2019-08-07 16:14:45:437
4.3181,-8.6733,1.6743,-0.3041,-0.2294,-0.0512,0.0177,0.0449,-0.0306,3293,2019-08-07 16:14:45:443
4.3181,-8.6733,1.6743,-0.221,-0.1061,-0.0316,0.0177,0.0449,-0.0306,3298,2019-08-07 16:14:45:448
4.1219,-8.6971,1.6979,-0.221,-0.1061,-0.0316,0.0134,0.0364,-0.0306,3303,2019-08-07 16:14:45:453
4.1219,-8.6971,1.6979,-0.1463,-0.1567,-0.0566,0.0134,0.0364,-0.0306,3308,2019-08-07 16:14:45:458
4.1219,-8.6971,1.6979,-0.1463,-0.1567,-0.0566,0.007,0.0194,-0.0242,3313,2019-08-07 16:14:45:463
4.1506,-8.7258,1.6932,-0.1463,-0.1567,-0.0566,0.007,0.0194,-0.0242,3318,2019-08-07 16:14:45:468
4.1506,-8.7258,1.6932,-0.1463,-0.1567,-0.0566,0.0038,-0.0105,-0.022,3323,2019-08-07 16:14:45:473
4.1411,-8.7067,1.7403,-0.17,-0.106,-0.1005,0.0038,-0.0105,-0.022,3327,2019-08-07 16:14:45:477
4.1411,-8.7067,1.7403,-0.17,-0.106,-0.1005,0.0038,-0.0105,-0.022,3333,2019-08-07 16:14:45:483
4.1411,-8.7067,1.7403,-0.17,-0.106,-0.1005,-0.0079,-0.036,-0.0242,3338,2019-08-07 16:14:45:488
4.2798,-8.6828,1.7497,-0.3258,-0.137,-0.019,-0.0164,-0.0531,-0.0146,3344,2019-08-07 16:14:45:494
4.2798,-8.6828,1.7497,-0.3258,-0.137,-0.019,-0.0164,-0.0531,-0.0146,3348,2019-08-07 16:14:45:498
4.3765,-8.7163,1.6227,-0.3258,-0.137,-0.019,-0.0164,-0.0531,-0.0146,3353,2019-08-07 16:14:45:503
4.3765,-8.7163,1.6227,-0.3258,-0.137,-0.019,-0.026,-0.035,-0.005,3357,2019-08-07 16:14:45:507
4.3765,-8.7163,1.6227,-0.3258,-0.137,-0.019,-0.026,-0.035,-0.005,3363,2019-08-07 16:14:45:513
4.4435,-8.7641,1.5708,-0.4316,-0.0404,0.0487,-0.0292,0.0034,-7.0E-4,3368,2019-08-07 16:14:45:518
4.4435,-8.7641,1.5708,-0.4316,-0.0404,0.0487,-0.0292,0.0034,-7.0E-4,3373,2019-08-07 16:14:45:523
4.343,-8.7593,1.6179,-0.4316,-0.0404,0.0487,-0.0271,0.0343,0.0035,3378,2019-08-07 16:14:45:528
4.343,-8.7593,1.6179,-0.4316,-0.0404,0.0487,-0.0271,0.0343,0.0035,3383,2019-08-07 16:14:45:533
4.343,-8.7593,1.6179,-0.2683,-0.0693,-0.058,-0.0196,0.0503,0.012,3387,2019-08-07 16:14:45:537
4.2234,-8.7831,1.6132,-0.2683,-0.0693,-0.058,-0.0196,0.0503,0.012,3393,2019-08-07 16:14:45:543
4.2234,-8.7831,1.6132,-0.2683,-0.0693,-0.058,-0.0111,0.0577,0.0163,3398,2019-08-07 16:14:45:548
4.1086,-8.7545,1.6745,-0.2683,-0.0693,-0.058,-0.0111,0.0577,0.0163,3403,2019-08-07 16:14:45:553
4.1086,-8.7545,1.6745,-0.0995,-0.0466,-0.084,-0.0068,0.0471,0.0131,3408,2019-08-07 16:14:45:558
4.1086,-8.7545,1.6745,-0.0995,-0.0466,-0.084,-0.0068,0.0471,0.0131,3413,2019-08-07 16:14:45:563
4.0607,-8.7306,1.8536,-0.0995,-0.0466,-0.084,0.0102,0.0353,0.0142,3417,2019-08-07 16:14:45:567
4.0607,-8.7306,1.8536,-0.0995,-0.0466,-0.084,0.0102,0.0353,0.0142,3422,2019-08-07 16:14:45:572
4.1229,-8.659,1.6839,-0.1359,-0.109,-0.1024,0.0134,0.0353,0.0067,3428,2019-08-07 16:14:45:578
4.1229,-8.659,1.6839,-0.1359,-0.109,-0.1024,0.0134,0.0353,0.0067,3433,2019-08-07 16:14:45:583
4.1229,-8.659,1.6839,-0.1359,-0.109,-0.1024,-0.0122,0.0172,0.0078,3439,2019-08-07 16:14:45:589
4.1086,-8.5254,1.6651,-0.1359,-0.109,-0.1024,-0.0122,0.0172,0.0078,3443,2019-08-07 16:14:45:593
4.1086,-8.5254,1.6651,-0.1171,-0.2424,-0.0719,-0.0175,0.0119,0.0078,3448,2019-08-07 16:14:45:598
4.166,-8.6208,1.8395,-0.1171,-0.2424,-0.0719,-0.0175,0.0119,0.0078,3453,2019-08-07 16:14:45:603
4.166,-8.6208,1.8395,-0.1171,-0.2424,-0.0719,-0.0175,0.0119,0.0078,3458,2019-08-07 16:14:45:608
4.166,-8.6208,1.8395,-0.1171,-0.2424,-0.0719,-0.0196,-0.0062,0.0099,3463,2019-08-07 16:14:45:613
4.2473,-8.6161,1.5991,-0.2413,-0.1902,0.0249,-0.0196,-0.0062,0.0099,3468,2019-08-07 16:14:45:618
4.2473,-8.6161,1.5991,-0.2413,-0.1902,0.0249,-0.0367,-0.0264,0.0025,3473,2019-08-07 16:14:45:623
4.3382,-8.6113,1.5661,-0.3308,-0.1952,0.0529,-0.0367,-0.0264,0.0025,3478,2019-08-07 16:14:45:628
4.3382,-8.6113,1.5661,-0.3308,-0.1952,0.0529,-0.0505,-0.0392,0.0025,3483,2019-08-07 16:14:45:633
4.3382,-8.6113,1.5661,-0.3308,-0.1952,0.0529,-0.0505,-0.0392,0.0025,3488,2019-08-07 16:14:45:638
4.3909,-8.7068,1.5095,-0.3308,-0.1952,0.0529,-0.0388,-9.0E-4,0.0067,3493,2019-08-07 16:14:45:643
4.3909,-8.7068,1.5095,-0.3715,-0.0479,0.1424,-0.0388,-9.0E-4,0.0067,3498,2019-08-07 16:14:45:648
4.2904,-8.7832,1.4671,-0.3715,-0.0479,0.1424,-0.0249,0.0375,0.0174,3503,2019-08-07 16:14:45:653
4.2904,-8.7832,1.4671,-0.3715,-0.0479,0.1424,-0.0249,0.0375,0.0174,3508,2019-08-07 16:14:45:658
4.2904,-8.7832,1.4671,-0.3715,-0.0479,0.1424,-0.0122,0.0652,0.0174,3513,2019-08-07 16:14:45:663
4.1325,-8.7784,1.6415,-0.0735,-0.0828,-0.069,-0.0122,0.0652,0.0174,3518,2019-08-07 16:14:45:668
4.1325,-8.7784,1.6415,-0.0735,-0.0828,-0.069,-4.0E-4,0.0609,0.0206,3523,2019-08-07 16:14:45:673
4.0273,-8.7306,1.6509,-0.0735,-0.0828,-0.069,-4.0E-4,0.0609,0.0206,3528,2019-08-07 16:14:45:678
4.0273,-8.7306,1.6509,-0.0735,-0.0828,-0.069,0.0091,0.0481,0.0195,3533,2019-08-07 16:14:45:683
4.0273,-8.7306,1.6509,-0.0735,-0.0828,-0.069,0.0091,0.0481,0.0195,3537,2019-08-07 16:14:45:687
3.9555,-8.5588,1.6651,0.0554,-0.1747,-0.0871,-0.0036,0.0066,0.0174,3543,2019-08-07 16:14:45:693
3.9555,-8.5588,1.6651,0.0554,-0.1747,-0.0871,-0.0036,0.0066,0.0174,3548,2019-08-07 16:14:45:698
4.0369,-8.6113,1.7547,0.0554,-0.1747,-0.0871,-0.0164,-0.0254,0.0131,3553,2019-08-07 16:14:45:703
4.0369,-8.6113,1.7547,-0.1041,-0.1902,-0.1126,-0.0164,-0.0254,0.0131,3558,2019-08-07 16:14:45:708
4.0369,-8.6113,1.7547,-0.1041,-0.1902,-0.1126,-0.0249,-0.052,0.0035,3563,2019-08-07 16:14:45:713
4.1421,-8.6113,1.6981,-0.1041,-0.1902,-0.1126,-0.0249,-0.052,0.0035,3567,2019-08-07 16:14:45:717
4.1421,-8.6113,1.6981,-0.1041,-0.1902,-0.1126,-0.0281,-0.052,-0.0018,3573,2019-08-07 16:14:45:723
4.2043,-8.6113,1.5944,-0.2634,-0.2188,-0.0126,-0.0281,-0.052,-0.0018,3578,2019-08-07 16:14:45:728
4.2043,-8.6113,1.5944,-0.2634,-0.2188,-0.0126,-0.0345,-0.0371,-7.0E-4,3583,2019-08-07 16:14:45:733
4.2043,-8.6113,1.5944,-0.2634,-0.2188,-0.0126,-0.0345,-0.0371,-7.0E-4,3587,2019-08-07 16:14:45:737
4.3431,-8.6781,1.5944,-0.2634,-0.2188,-0.0126,-0.0313,-0.0264,0.0014,3593,2019-08-07 16:14:45:743
4.3431,-8.6781,1.5944,-0.3075,-0.0707,-0.0116,-0.0313,-0.0264,0.0014,3598,2019-08-07 16:14:45:748
4.3431,-8.6781,1.5944,-0.3075,-0.0707,-0.0116,-0.0313,-0.0264,0.0014,3602,2019-08-07 16:14:45:752
4.2713,-8.7306,1.6462,-0.3075,-0.0707,-0.0116,-0.0292,-0.0158,0.0035,3608,2019-08-07 16:14:45:758
4.2713,-8.7306,1.6462,-0.3075,-0.0707,-0.0116,-0.0292,-0.0158,0.0035,3612,2019-08-07 16:14:45:762
4.2761,-8.7641,1.6321,-0.2679,-0.0472,-0.0407,-0.0175,-0.0094,0.0099,3618,2019-08-07 16:14:45:768
4.2761,-8.7641,1.6321,-0.2679,-0.0472,-0.0407,-0.0175,-0.0094,0.0099,3623,2019-08-07 16:14:45:773
4.2761,-8.7641,1.6321,-0.2679,-0.0472,-0.0407,-0.0154,0.0055,0.0057,3628,2019-08-07 16:14:45:778
4.2761,-8.8023,1.6651,-0.2679,-0.0472,-0.0407,-0.0154,0.0055,0.0057,3633,2019-08-07 16:14:45:783
4.2761,-8.8023,1.6651,-0.2679,-0.0472,-0.0407,-0.0154,0.0055,0.0057,3638,2019-08-07 16:14:45:788
4.1852,-8.745,1.6415,-0.2006,-0.0618,0.023,-0.0122,0.0172,0.0025,3643,2019-08-07 16:14:45:793
4.1852,-8.745,1.6415,-0.2006,-0.0618,0.023,-0.0122,0.0172,0.0025,3648,2019-08-07 16:14:45:798
4.1852,-8.745,1.6415,-0.2006,-0.0618,0.023,-0.0271,-0.0083,-0.005,3653,2019-08-07 16:14:45:803
3.6829,-8.6304,1.0947,-0.2006,-0.0618,0.023,-0.0271,-0.0083,-0.005,3658,2019-08-07 16:14:45:808
3.6829,-8.6304,1.0947,0.4709,-0.1631,0.1167,-0.1336,-0.2011,-0.0093,3662,2019-08-07 16:14:45:812
3.6829,-8.6304,1.0947,0.4709,-0.1631,0.1167,-0.1336,-0.2011,-0.0093,3668,2019-08-07 16:14:45:818
4.0465,-8.8643,2.1365,0.4709,-0.1631,0.1167,-0.0186,-0.1596,-0.0103,3673,2019-08-07 16:14:45:823
4.0465,-8.8643,2.1365,0.4709,-0.1631,0.1167,-0.0186,-0.1596,-0.0103,3678,2019-08-07 16:14:45:828
4.3383,-8.8404,1.5425,-0.1731,0.0413,0.0285,0.0454,-0.1766,-0.0157,3684,2019-08-07 16:14:45:834
4.3383,-8.8404,1.5425,-0.1731,0.0413,0.0285,0.0454,-0.1766,-0.0157,3688,2019-08-07 16:14:45:838
4.3383,-8.8404,1.5425,-0.6844,-0.0233,0.074,0.0986,-0.0499,-0.0178,3693,2019-08-07 16:14:45:843
4.8646,-8.8261,1.4436,-0.6844,-0.0233,0.074,0.0986,-0.0499,-0.0178,3697,2019-08-07 16:14:45:847
4.8646,-8.8261,1.4436,-0.6844,-0.0233,0.074,0.0944,0.0513,0.012,3703,2019-08-07 16:14:45:853
4.788,-8.6161,1.0052,-0.6844,-0.0233,0.074,0.0944,0.0513,0.012,3708,2019-08-07 16:14:45:858
4.788,-8.6161,1.0052,-0.6126,-0.2283,0.4203,0.0091,0.1195,0.012,3713,2019-08-07 16:14:45:863
4.788,-8.6161,1.0052,-0.6126,-0.2283,0.4203,0.0091,0.1195,0.012,3717,2019-08-07 16:14:45:867
4.3431,-8.492,1.9102,-0.3175,-0.3137,-0.3317,-0.0015,0.1845,0.0174,3723,2019-08-07 16:14:45:873
4.3431,-8.492,1.9102,-0.3175,-0.3137,-0.3317,-0.0015,0.1845,0.0174,3728,2019-08-07 16:14:45:878
4.3431,-8.492,1.9102,-0.3175,-0.3137,-0.3317,-0.0175,0.1259,0.0206,3733,2019-08-07 16:14:45:883
3.9173,-8.7879,1.8348,-0.3175,-0.3137,-0.3317,-0.0175,0.1259,0.0206,3737,2019-08-07 16:14:45:887