ACCELEROMETER X (m/s²),ACCELEROMETER Y (m/s²),ACCELEROMETER Z (m/s²),LINEAR ACCELERATION X (m/s²),LINEAR ACCELERATION Y (m/s²),LINEAR ACCELERATION Z (m/s²),GYROSCOPE X (rad/s),GYROSCOPE Y (rad/s),GYROSCOPE Z (rad/s),Time since start in ms ,YYYY-MO-DD HH-MI-SS_SSS
5.1351,-8.486,0.8471,-0.2291,0.0237,0.0701,0.0101,-7.0E-4,0.028,3,2019-08-07 16:16:01:784
5.159,-8.4765,0.8471,-0.2291,0.0237,0.0701,0.0101,-7.0E-4,0.028,8,2019-08-07 16:16:01:789
5.159,-8.4765,0.8471,-0.2291,0.0237,0.0701,0.009,0.0313,0.0269,13,2019-08-07 16:16:01:794
4.9677,-8.4813,0.9508,-0.075,0.0171,0.0636,0.009,0.0313,0.0269,18,2019-08-07 16:16:01:799
4.9677,-8.4813,0.9508,-0.075,0.0171,0.0636,0.0069,0.0643,0.0258,22,2019-08-07 16:16:01:803
4.9677,-8.4813,0.9508,-0.075,0.0171,0.0636,0.0069,0.0643,0.0258,28,2019-08-07 16:16:01:809
4.7524,-8.5147,0.9603,-0.075,0.0171,0.0636,0.009,0.0685,0.0237,32,2019-08-07 16:16:01:813
4.7524,-8.5147,0.9603,0.1676,0.0765,-0.0885,0.009,0.0685,0.0237,38,2019-08-07 16:16:01:819
4.7141,-8.5147,1.0263,0.1676,0.0765,-0.0885,0.0133,0.0483,0.0216,42,2019-08-07 16:16:01:823
4.7141,-8.5147,1.0263,0.1676,0.0765,-0.0885,0.0133,0.0483,0.0216,48,2019-08-07 16:16:01:829
4.7141,-8.5147,1.0263,0.1676,0.0765,-0.0885,0.0133,0.0483,0.0216,52,2019-08-07 16:16:01:833
4.7285,-8.4478,1.0263,0.1488,-0.0113,-0.0818,0.0133,0.0068,0.0045,58,2019-08-07 16:16:01:839
4.7285,-8.4478,1.0263,0.1488,-0.0113,-0.0818,0.0133,0.0068,0.0045,63,2019-08-07 16:16:01:844
4.8624,-8.4096,0.965,0.1488,-0.0113,-0.0818,0.0101,-0.022,-0.005,68,2019-08-07 16:16:01:849
4.8624,-8.4096,0.965,0.1488,-0.0113,-0.0818,0.0101,-0.022,-0.005,73,2019-08-07 16:16:01:854
4.8624,-8.4096,0.965,-0.0078,-0.0202,0.0675,-0.0037,-0.0444,-0.0157,78,2019-08-07 16:16:01:859
4.9533,-8.4287,0.899,-0.0078,-0.0202,0.0675,-0.0037,-0.0444,-0.0157,83,2019-08-07 16:16:01:864
4.9533,-8.4287,0.899,-0.0078,-0.0202,0.0675,-0.0133,-0.0508,-0.0146,88,2019-08-07 16:16:01:869
4.9533,-8.4287,0.899,-0.0078,-0.0202,0.0675,-0.0133,-0.0508,-0.0146,93,2019-08-07 16:16:01:874
5.0968,-8.4192,0.9414,-0.18,-0.0373,0.0234,-0.0101,-0.0327,-0.0178,98,2019-08-07 16:16:01:879
5.0968,-8.4192,0.9414,-0.18,-0.0373,0.0234,-0.0101,-0.0327,-0.0178,103,2019-08-07 16:16:01:884
5.1447,-8.4526,0.7953,-0.18,-0.0373,0.0234,-0.0069,-0.0284,-0.0114,108,2019-08-07 16:16:01:889
5.1447,-8.4526,0.7953,-0.18,-0.0373,0.0234,-0.0069,-0.0284,-0.0114,113,2019-08-07 16:16:01:894
5.1447,-8.4526,0.7953,-0.2908,0.0122,0.0656,-0.0101,-0.0167,-8.0E-4,118,2019-08-07 16:16:01:899
5.159,-8.5051,0.833,-0.2908,0.0122,0.0656,-0.0101,-0.0167,-8.0E-4,123,2019-08-07 16:16:01:904
5.159,-8.5051,0.833,-0.2908,0.0122,0.0656,-0.0059,0.0046,0.0077,127,2019-08-07 16:16:01:908
5.1782,-8.5624,0.8754,-0.2908,0.0122,0.0656,-0.0059,0.0046,0.0077,133,2019-08-07 16:16:01:914
5.1782,-8.5624,0.8754,-0.2292,0.1263,0.0833,0.0037,0.0238,0.0195,138,2019-08-07 16:16:01:919
5.049,-8.5863,0.8896,-0.2292,0.1263,0.0833,0.0037,0.0238,0.0195,143,2019-08-07 16:16:01:924
5.049,-8.5863,0.8896,-0.0736,0.1349,-0.0133,0.0176,0.0398,0.028,149,2019-08-07 16:16:01:930
5.049,-8.5863,0.8896,-0.0736,0.1349,-0.0133,0.0176,0.0398,0.028,153,2019-08-07 16:16:01:934
4.9294,-8.5624,0.9839,-0.0736,0.1349,-0.0133,0.0271,0.0377,0.0344,158,2019-08-07 16:16:01:939
4.9294,-8.5624,0.9839,-0.0736,0.1349,-0.0133,0.0271,0.0377,0.0344,163,2019-08-07 16:16:01:944
4.9294,-8.5624,0.9839,0.073,0.0796,-0.0095,0.0335,0.0259,0.028,168,2019-08-07 16:16:01:949
4.805,-8.5385,0.9509,0.073,0.0796,-0.0095,0.0335,0.0259,0.028,173,2019-08-07 16:16:01:954
4.805,-8.5385,0.9509,0.073,0.0796,-0.0095,0.0261,0.0153,0.0258,177,2019-08-07 16:16:01:958
4.7907,-8.4813,1.0451,0.073,0.0796,-0.0095,0.0261,0.0153,0.0258,183,2019-08-07 16:16:01:964
4.7907,-8.4813,1.0451,0.1015,0.0058,-0.1068,0.0144,0.0025,0.0163,188,2019-08-07 16:16:01:969
4.7763,-8.4717,1.0216,0.1015,0.0058,-0.1068,0.0144,0.0025,0.0163,193,2019-08-07 16:16:01:974
4.7763,-8.4717,1.0216,0.1015,0.0058,-0.1068,0.0048,-0.0113,0.0067,198,2019-08-07 16:16:01:979
4.7763,-8.4717,1.0216,0.1015,0.0058,-0.1068,0.0048,-0.0113,0.0067,203,2019-08-07 16:16:01:984
4.8194,-8.486,1.0546,0.1015,0.0058,-0.1068,0.0037,-0.0188,-0.0018,207,2019-08-07 16:16:01:988
4.8194,-8.486,1.0546,0.0238,-0.0378,-0.0494,0.0037,-0.0188,-0.0018,213,2019-08-07 16:16:01:994
4.8864,-8.4431,0.9933,0.0238,-0.0378,-0.0494,-0.008,-0.0167,-0.0061,218,2019-08-07 16:16:01:999
4.8864,-8.4431,0.9933,0.0238,-0.0378,-0.0494,-0.008,-0.0167,-0.0061,222,2019-08-07 16:16:02:003
4.8864,-8.4431,0.9933,0.0238,-0.0378,-0.0494,-0.0155,-0.0188,-0.0136,228,2019-08-07 16:16:02:009
4.9151,-8.4574,0.8943,-0.0653,0.0298,0.0797,-0.0155,-0.0188,-0.0136,233,2019-08-07 16:16:02:014
4.9151,-8.4574,0.8943,-0.0653,0.0298,0.0797,-0.0176,-0.0103,-0.0136,238,2019-08-07 16:16:02:019
4.9868,-8.5433,0.8754,-0.0653,0.0298,0.0797,-0.0176,-0.0103,-0.0136,243,2019-08-07 16:16:02:024
4.9868,-8.5433,0.8754,-0.0653,0.0298,0.0797,-0.0176,-0.0103,-0.0136,248,2019-08-07 16:16:02:029
4.9868,-8.5433,0.8754,-0.0526,0.0884,0.0612,-0.008,-0.0199,-0.0093,252,2019-08-07 16:16:02:033
5.0108,-8.5433,0.8896,-0.0526,0.0884,0.0612,-0.008,-0.0199,-0.0093,258,2019-08-07 16:16:02:039
5.0108,-8.5433,0.8896,-0.0526,0.0884,0.0612,0.0026,-0.0273,0.0056,262,2019-08-07 16:16:02:043
5.0108,-8.5433,0.8896,-0.0526,0.0884,0.0612,0.0026,-0.0273,0.0056,268,2019-08-07 16:16:02:049
5.0156,-8.5385,0.8754,-0.1381,0.0789,0.0632,0.0122,-0.0252,0.012,272,2019-08-07 16:16:02:053
5.0156,-8.5385,0.8754,-0.1381,0.0789,0.0632,0.0122,-0.0252,0.012,278,2019-08-07 16:16:02:059
4.9964,-8.5099,0.9179,-0.1381,0.0789,0.0632,0.025,-0.0263,0.0173,283,2019-08-07 16:16:02:064
4.9964,-8.5099,0.9179,-0.1381,0.0789,0.0632,0.025,-0.0263,0.0173,287,2019-08-07 16:16:02:068
4.9964,-8.5099,0.9179,-0.1163,-0.0273,0.0829,0.0282,-0.0241,0.0301,293,2019-08-07 16:16:02:074
4.9199,-8.4192,0.8802,-0.1163,-0.0273,0.0829,0.0282,-0.0241,0.0301,298,2019-08-07 16:16:02:079
4.9199,-8.4192,0.8802,-0.1163,-0.0273,0.0829,0.025,-0.0167,0.0333,303,2019-08-07 16:16:02:084
4.9007,-8.4574,0.9037,-0.1163,-0.0273,0.0829,0.025,-0.0167,0.0333,308,2019-08-07 16:16:02:089
4.9007,-8.4574,0.9037,0.0173,-0.0013,0.0095,0.0229,-0.0092,0.0269,313,2019-08-07 16:16:02:094
4.9007,-8.4574,0.9037,0.0173,-0.0013,0.0095,0.0229,-0.0092,0.0269,318,2019-08-07 16:16:02:099
4.7907,-8.4622,0.9744,0.0173,-0.0013,0.0095,0.0218,-0.0071,0.0077,323,2019-08-07 16:16:02:104
4.7907,-8.4622,0.9744,0.0173,-0.0013,0.0095,0.0218,-0.0071,0.0077,327,2019-08-07 16:16:02:108
4.7477,-8.4669,0.9886,0.1196,0.0021,-0.0442,0.0133,-0.0199,0.0035,333,2019-08-07 16:16:02:114
4.7477,-8.4669,0.9886,0.1196,0.0021,-0.0442,0.0133,-0.0199,0.0035,337,2019-08-07 16:16:02:118
4.8529,-8.4574,0.9556,0.1196,0.0021,-0.0442,0.0112,-0.0316,-0.0125,343,2019-08-07 16:16:02:124
4.8529,-8.4574,0.9556,0.1196,0.0021,-0.0442,0.0112,-0.0316,-0.0125,348,2019-08-07 16:16:02:129
4.8529,-8.4574,0.9556,-0.0317,-0.0495,-0.0308,0.0112,-0.0316,-0.0125,353,2019-08-07 16:16:02:134
4.8529,-8.4574,0.9556,-0.0317,-0.0495,-0.0308,0.0037,-0.0369,-0.0242,358,2019-08-07 16:16:02:139
4.9151,-8.3762,0.9839,-0.0317,-0.0495,-0.0308,0.0037,-0.0369,-0.0242,363,2019-08-07 16:16:02:144
4.9151,-8.3762,0.9839,-0.0317,-0.0495,-0.0308,0.0069,-0.0433,-0.0263,368,2019-08-07 16:16:02:149
4.9582,-8.424,0.9603,-0.0835,-0.037,-0.0193,0.0069,-0.0433,-0.0263,373,2019-08-07 16:16:02:154
4.9582,-8.424,0.9603,-0.0835,-0.037,-0.0193,0.008,-0.0508,-0.0242,378,2019-08-07 16:16:02:159
4.9582,-8.424,0.9603,-0.0835,-0.037,-0.0193,0.008,-0.0508,-0.0242,382,2019-08-07 16:16:02:163
5.0491,-8.381,0.998,-0.0835,-0.037,-0.0193,0.0058,-0.0529,-0.0242,388,2019-08-07 16:16:02:169
5.0491,-8.381,0.998,-0.1489,-0.0481,-0.037,0.0058,-0.0529,-0.0242,393,2019-08-07 16:16:02:174
5.1161,-8.4192,0.9273,-0.1489,-0.0481,-0.037,5.0E-4,-0.0422,-0.0125,399,2019-08-07 16:16:02:180
5.1161,-8.4192,0.9273,-0.1489,-0.0481,-0.037,5.0E-4,-0.0422,-0.0125,402,2019-08-07 16:16:02:183
5.1161,-8.4192,0.9273,-0.1489,-0.0481,-0.037,5.0E-4,-0.0422,-0.0125,408,2019-08-07 16:16:02:189
5.1878,-8.5051,0.9462,-0.3027,0.0493,-0.0129,-0.0037,-0.0316,-0.004,413,2019-08-07 16:16:02:194
5.1878,-8.5051,0.9462,-0.3027,0.0493,-0.0129,-0.0037,-0.0316,-0.004,417,2019-08-07 16:16:02:198
5.1878,-8.5051,0.9462,-0.3027,0.0493,-0.0129,-0.0027,-0.0113,0.0024,423,2019-08-07 16:16:02:204
5.1783,-8.4813,0.9273,-0.3027,0.0493,-0.0129,-0.0027,-0.0113,0.0024,428,2019-08-07 16:16:02:209
5.1783,-8.4813,0.9273,-0.2353,0.1115,0.0656,-0.0037,0.0068,0.0163,433,2019-08-07 16:16:02:214
5.0969,-8.5195,0.9414,-0.2353,0.1115,0.0656,-0.0037,0.0068,0.0163,438,2019-08-07 16:16:02:219
5.0969,-8.5195,0.9414,-0.2174,0.0678,-0.009,-0.0027,0.0291,0.0163,443,2019-08-07 16:16:02:224
5.0969,-8.5195,0.9414,-0.2174,0.0678,-0.009,-0.0027,0.0377,0.0173,448,2019-08-07 16:16:02:229
4.9629,-8.5099,0.9697,-0.2174,0.0678,-0.009,-0.0027,0.0377,0.0173,453,2019-08-07 16:16:02:234
4.9629,-8.5099,0.9697,-0.2174,0.0678,-0.009,-0.0027,0.0377,0.0173,457,2019-08-07 16:16:02:238
4.8624,-8.5624,0.9179,0.0184,0.1045,0.0186,5.0E-4,0.0494,0.012,463,2019-08-07 16:16:02:244
4.8624,-8.5624,0.9179,0.0184,0.1045,0.0186,5.0E-4,0.0494,0.012,468,2019-08-07 16:16:02:249
4.8624,-8.5624,0.9179,0.0184,0.1045,0.0186,0.0026,0.0334,0.0035,473,2019-08-07 16:16:02:254
4.7524,-8.6006,1.0216,0.0184,0.1045,0.0186,0.0026,0.0334,0.0035,478,2019-08-07 16:16:02:259
4.7524,-8.6006,1.0216,0.0787,0.1325,-0.0669,0.0026,0.01,-0.004,483,2019-08-07 16:16:02:264
4.7763,-8.572,1.0168,0.0787,0.1325,-0.0669,0.0026,0.01,-0.004,488,2019-08-07 16:16:02:269
4.7763,-8.572,1.0168,0.0787,0.1325,-0.0669,0.0069,-0.0156,-0.0146,492,2019-08-07 16:16:02:273
4.7763,-8.572,1.0168,0.0787,0.1325,-0.0669,0.0069,-0.0156,-0.0146,499,2019-08-07 16:16:02:280
4.8863,-8.4622,0.9838,-0.0051,-0.0285,-0.0244,0.008,-0.0305,-0.0168,502,2019-08-07 16:16:02:283
4.8863,-8.4622,0.9838,-0.0051,-0.0285,-0.0244,0.008,-0.0305,-0.0168,508,2019-08-07 16:16:02:289
4.9438,-8.4669,0.965,-0.0051,-0.0285,-0.0244,0.0037,-0.0422,-0.0136,513,2019-08-07 16:16:02:294
4.9438,-8.4669,0.965,-0.0051,-0.0285,-0.0244,0.0037,-0.0422,-0.0136,517,2019-08-07 16:16:02:298
4.9438,-8.4669,0.965,-0.1979,0.0829,0.0191,-0.0037,-0.0337,-0.0061,523,2019-08-07 16:16:02:304
5.0634,-8.5863,0.8943,-0.1979,0.0829,0.0191,-0.0037,-0.0337,-0.0061,527,2019-08-07 16:16:02:308
5.0634,-8.5863,0.8943,-0.1979,0.0829,0.0191,-0.0048,-0.0113,-8.0E-4,533,2019-08-07 16:16:02:314
5.0921,-8.5338,0.8849,-0.1979,0.0829,0.0191,-0.0048,-0.0113,-8.0E-4,538,2019-08-07 16:16:02:319
5.0921,-8.5338,0.8849,-0.12,0.1025,0.0027,0.0048,0.0142,0.0067,543,2019-08-07 16:16:02:324
5.0921,-8.5338,0.8849,-0.12,0.1025,0.0027,0.0048,0.0142,0.0067,547,2019-08-07 16:16:02:328
5.0012,-8.5338,0.9084,-0.12,0.1025,0.0027,0.0186,0.0398,0.0163,553,2019-08-07 16:16:02:334
5.0012,-8.5338,0.9084,-0.12,0.1025,0.0027,0.0186,0.0398,0.0163,557,2019-08-07 16:16:02:338
4.9581,-8.4813,0.899,-0.075,0.025,0.0408,0.0165,0.0462,0.0141,563,2019-08-07 16:16:02:344
4.9581,-8.4813,0.899,-0.075,0.025,0.0408,0.0165,0.0462,0.0141,568,2019-08-07 16:16:02:349
4.9581,-8.4813,0.899,-0.075,0.025,0.0408,0.0165,0.0462,0.0141,573,2019-08-07 16:16:02:354
4.8289,-8.5529,1.0074,-0.075,0.025,0.0408,0.0197,0.0249,0.0131,578,2019-08-07 16:16:02:359
4.8289,-8.5529,1.0074,-0.075,0.025,0.0408,0.0197,0.0249,0.0131,583,2019-08-07 16:16:02:364
4.8002,-8.5147,0.9744,0.0937,0.0572,-0.089,0.0325,0.0132,0.0088,588,2019-08-07 16:16:02:369
4.8002,-8.5147,0.9744,0.0937,0.0572,-0.089,0.0325,0.0132,0.0088,593,2019-08-07 16:16:02:374
4.8002,-8.5147,0.9744,0.0937,0.0572,-0.089,0.025,-0.0113,3.0E-4,598,2019-08-07 16:16:02:379
4.7955,-8.4001,1.0404,0.0937,0.0572,-0.089,0.025,-0.0113,3.0E-4,603,2019-08-07 16:16:02:384
4.7955,-8.4001,1.0404,0.0351,-0.0289,-0.0464,0.0208,-0.0422,-0.005,608,2019-08-07 16:16:02:389
4.9533,-8.3906,1.0074,0.0351,-0.0289,-0.0464,0.0208,-0.0422,-0.005,613,2019-08-07 16:16:02:394
4.9533,-8.3906,1.0074,0.0351,-0.0289,-0.0464,0.0208,-0.0327,-0.0093,618,2019-08-07 16:16:02:399
4.9533,-8.3906,1.0074,-0.1154,-0.0655,-0.0128,0.0208,-0.0327,-0.0093,623,2019-08-07 16:16:02:404
5.006,-8.3762,0.965,-0.1154,-0.0655,-0.0128,0.0122,-0.0263,-0.0104,628,2019-08-07 16:16:02:409
5.006,-8.3762,0.965,-0.1154,-0.0655,-0.0128,0.0122,-0.0263,-0.0104,633,2019-08-07 16:16:02:414
5.006,-8.3762,0.965,-0.1154,-0.0655,-0.0128,0.0122,-0.0263,-0.0104,638,2019-08-07 16:16:02:419
5.0921,-8.3858,0.9367,-0.1154,-0.0655,-0.0128,0.0026,-0.0082,-0.0114,643,2019-08-07 16:16:02:424
5.0921,-8.3858,0.9367,-0.184,-0.0351,-0.0371,0.0026,-0.0082,-0.0114,648,2019-08-07 16:16:02:429
5.0921,-8.3858,0.9367,-0.184,-0.0351,-0.0371,0.0069,0.0078,-0.0114,653,2019-08-07 16:16:02:434
5.0873,-8.4049,0.9509,-0.184,-0.0351,-0.0371,0.0069,0.0078,-0.0114,657,2019-08-07 16:16:02:438
5.0873,-8.4049,0.9509,-0.184,-0.0351,-0.0371,0.0112,0.01,-0.0093,663,2019-08-07 16:16:02:444
5.0012,-8.4001,0.9697,-0.1526,1.0E-4,0.0121,0.0112,0.01,-0.0093,668,2019-08-07 16:16:02:449
5.0012,-8.4001,0.9697,-0.1526,1.0E-4,0.0121,0.0101,0.01,-0.0082,672,2019-08-07 16:16:02:453
5.0012,-8.4001,0.9697,-0.1526,1.0E-4,0.0121,0.0101,0.01,-0.0082,678,2019-08-07 16:16:02:459
5.0347,-8.4144,0.9744,-0.1526,1.0E-4,0.0121,0.0144,0.01,-0.0082,683,2019-08-07 16:16:02:464
5.0347,-8.4144,0.9744,-0.1362,-0.0461,0.0203,0.0144,0.01,-0.0082,688,2019-08-07 16:16:02:469
5.0203,-8.4192,0.9744,-0.1362,-0.0461,0.0203,0.0101,0.0227,-0.0082,693,2019-08-07 16:16:02:474
5.0203,-8.4192,0.9744,-0.1362,-0.0461,0.0203,0.0101,0.0227,-0.0082,698,2019-08-07 16:16:02:479
5.0203,-8.4192,0.9744,-0.1362,-0.0461,0.0203,0.0016,0.0227,-0.0072,702,2019-08-07 16:16:02:483
4.9725,-8.4192,0.9791,-0.0818,-0.0303,-0.0185,0.0016,0.0227,-0.0072,708,2019-08-07 16:16:02:489
4.9725,-8.4192,0.9791,-0.0818,-0.0303,-0.0185,-0.0027,0.0206,-0.005,713,2019-08-07 16:16:02:494
4.9581,-8.4669,0.9791,-0.0818,-0.0303,-0.0185,-0.0027,0.0206,-0.005,718,2019-08-07 16:16:02:499
4.9581,-8.4669,0.9791,-0.0818,-0.0303,-0.0185,-0.0069,0.0195,-0.005,723,2019-08-07 16:16:02:504
4.9581,-8.4669,0.9791,-0.0377,-9.0E-4,-0.1018,-0.0069,0.0195,-0.005,728,2019-08-07 16:16:02:509
4.939,-8.5051,0.9697,-0.0377,-9.0E-4,-0.1018,-0.0069,0.01,-0.0093,732,2019-08-07 16:16:02:513
4.939,-8.5051,0.9697,-0.0377,-9.0E-4,-0.1018,-0.0069,0.01,-0.0093,738,2019-08-07 16:16:02:519
4.9964,-8.4717,0.965,-0.0377,-9.0E-4,-0.1018,-6.0E-4,0.01,-0.0125,743,2019-08-07 16:16:02:524
4.9964,-8.4717,0.965,-0.06,-0.0429,0.0116,-6.0E-4,0.01,-0.0125,748,2019-08-07 16:16:02:529
4.9964,-8.4717,0.965,-0.06,-0.0429,0.0116,-6.0E-4,0.01,-0.0125,753,2019-08-07 16:16:02:534
4.9773,-8.4669,0.866,-0.06,-0.0429,0.0116,0.0016,0.0068,-0.0114,759,2019-08-07 16:16:02:540
4.9773,-8.4669,0.866,-0.06,-0.0429,0.0116,0.0016,0.0068,-0.0114,763,2019-08-07 16:16:02:544
4.9294,-8.5338,0.9886,-0.0529,0.0492,0.0451,0.0058,0.011,-0.0146,768,2019-08-07 16:16:02:549
4.9294,-8.5338,0.9886,-0.0529,0.0492,0.0451,0.0058,0.011,-0.0146,773,2019-08-07 16:16:02:554
4.9294,-8.5338,0.9886,-0.0529,0.0492,0.0451,0.0186,0.0195,-0.0125,778,2019-08-07 16:16:02:559
4.9247,-8.5576,0.9461,-0.0529,0.0492,0.0451,0.0186,0.0195,-0.0125,783,2019-08-07 16:16:02:564
4.9247,-8.5576,0.9461,-0.032,0.0364,0.0068,0.0229,0.0217,-0.0093,788,2019-08-07 16:16:02:569
4.9247,-8.5576,0.9461,-0.032,0.0364,0.0068,0.0229,0.0217,-0.0093,793,2019-08-07 16:16:02:574
4.8386,-8.486,0.9839,-0.032,0.0364,0.0068,0.0229,0.0217,-0.0093,798,2019-08-07 16:16:02:579
4.8386,-8.486,0.9839,-0.032,0.0364,0.0068,0.0261,0.0057,-0.0061,803,2019-08-07 16:16:02:584
4.896,-8.424,1.064,0.0025,-0.0196,-0.0914,0.0261,0.0057,-0.0061,807,2019-08-07 16:16:02:588
4.896,-8.424,1.064,0.0025,-0.0196,-0.0914,0.0165,-0.0039,-0.005,813,2019-08-07 16:16:02:594
4.896,-8.424,1.064,0.0025,-0.0196,-0.0914,0.0165,-0.0039,-0.005,818,2019-08-07 16:16:02:599
4.9295,-8.4526,1.0074,0.0025,-0.0196,-0.0914,0.0026,-0.0177,3.0E-4,823,2019-08-07 16:16:02:604
4.9295,-8.4526,1.0074,-0.0587,-0.0189,0.0228,0.0026,-0.0177,3.0E-4,828,2019-08-07 16:16:02:609
5.0251,-8.4765,0.9414,-0.0587,-0.0189,0.0228,-0.0112,-0.005,0.0024,833,2019-08-07 16:16:02:614
5.0251,-8.4765,0.9414,-0.0587,-0.0189,0.0228,-0.0112,-0.005,0.0024,838,2019-08-07 16:16:02:619
5.0251,-8.4765,0.9414,-0.0587,-0.0189,0.0228,-0.0144,0.0164,-0.0018,843,2019-08-07 16:16:02:624
5.0012,-8.5099,0.9697,-0.0775,0.086,0.0116,-0.0144,0.0164,-0.0018,848,2019-08-07 16:16:02:629
5.0012,-8.5099,0.9697,-0.0775,0.086,0.0116,-0.0144,0.0164,-0.0018,853,2019-08-07 16:16:02:634
5.0012,-8.5099,0.9697,-0.0775,0.086,0.0116,0.0016,0.0483,-0.005,857,2019-08-07 16:16:02:638
4.9534,-8.4526,0.9744,-0.0537,0.0098,-9.0E-4,0.0016,0.0483,-0.005,863,2019-08-07 16:16:02:644
4.9534,-8.4526,0.9744,-0.0537,0.0098,-9.0E-4,-0.0016,0.0451,-0.0061,868,2019-08-07 16:16:02:649
4.8673,-8.4431,0.899,-0.0537,0.0098,-9.0E-4,-0.0016,0.0451,-0.0061,872,2019-08-07 16:16:02:653
4.8673,-8.4431,0.899,0.0799,0.0577,-0.0348,-6.0E-4,0.0259,-8.0E-4,878,2019-08-07 16:16:02:659
4.8386,-8.4192,1.0074,0.0799,0.0577,-0.0348,-6.0E-4,0.0259,-8.0E-4,883,2019-08-07 16:16:02:664
4.8386,-8.4192,1.0074,0.0799,0.0577,-0.0348,0.0069,0.011,-0.005,888,2019-08-07 16:16:02:669
4.8386,-8.4192,1.0074,0.0799,0.0577,-0.0348,0.0069,0.011,-0.005,893,2019-08-07 16:16:02:674
4.8481,-8.4717,0.9367,0.0852,0.0678,0.0753,0.0058,-0.0082,-0.0136,898,2019-08-07 16:16:02:679
4.8481,-8.4717,0.9367,0.0852,0.0678,0.0753,0.0058,-0.0082,-0.0136,903,2019-08-07 16:16:02:684
4.9247,-8.5147,0.866,0.0852,0.0678,0.0753,-6.0E-4,-0.0124,-0.0093,909,2019-08-07 16:16:02:690
4.9247,-8.5147,0.866,0.0852,0.0678,0.0753,-6.0E-4,-0.0124,-0.0093,913,2019-08-07 16:16:02:694
4.9247,-8.5147,0.866,-0.018,0.0354,0.1113,-0.0059,-0.0082,-0.0114,918,2019-08-07 16:16:02:699
4.9199,-8.5242,0.9462,-0.018,0.0354,0.1113,-0.0059,-0.0082,-0.0114,923,2019-08-07 16:16:02:704
4.9199,-8.5242,0.9462,-0.018,0.0354,0.1113,-0.0059,-0.0082,-0.0114,928,2019-08-07 16:16:02:709
4.9199,-8.486,0.9839,-0.018,0.0354,0.1113,-0.0027,-0.0039,-8.0E-4,933,2019-08-07 16:16:02:714
4.9199,-8.486,0.9839,-0.027,0.0451,0.0014,0.0016,-0.0124,0.0077,938,2019-08-07 16:16:02:719
4.9199,-8.486,0.9839,-0.027,0.0451,0.0014,0.0016,-0.0124,0.0077,943,2019-08-07 16:16:02:724
4.9678,-8.5004,0.9791,-0.027,0.0451,0.0014,0.0026,-0.0167,0.0109,949,2019-08-07 16:16:02:730
4.9678,-8.5004,0.9791,-0.027,0.0451,0.0014,0.0026,-0.0167,0.0109,952,2019-08-07 16:16:02:733
4.9678,-8.5004,0.9791,-0.027,0.0451,0.0014,0.0026,-0.0167,0.0109,958,2019-08-07 16:16:02:739
5.0252,-8.4335,0.965,-0.1237,-0.0082,0.0093,0.0037,-0.0145,0.012,963,2019-08-07 16:16:02:744
5.0252,-8.4335,0.965,-0.1237,-0.0082,0.0093,0.0037,-0.0145,0.012,968,2019-08-07 16:16:02:749
5.0587,-8.3762,0.9839,-0.1237,-0.0082,0.0093,0.0197,-0.005,0.0173,973,2019-08-07 16:16:02:754
5.0587,-8.3762,0.9839,-0.1237,-0.0082,0.0093,0.0197,-0.005,0.0173,978,2019-08-07 16:16:02:759
5.0587,-8.3762,0.9839,-0.154,-0.0519,-0.0411,0.0293,-7.0E-4,0.0237,983,2019-08-07 16:16:02:764
5.0634,-8.4097,0.9273,-0.154,-0.0519,-0.0411,0.0293,-7.0E-4,0.0237,988,2019-08-07 16:16:02:769
5.0634,-8.4097,0.9273,-0.154,-0.0519,-0.0411,0.0325,0.0164,0.0152,993,2019-08-07 16:16:02:774
5.0634,-8.4097,0.9273,-0.154,-0.0519,-0.0411,0.0325,0.0164,0.0152,997,2019-08-07 16:16:02:778
5.0252,-8.3667,1.031,-0.0792,-0.0905,-0.0594,0.0346,0.0377,0.0099,1002,2019-08-07 16:16:02:783
5.0252,-8.3667,1.031,-0.0792,-0.0905,-0.0594,0.0346,0.0377,0.0099,1008,2019-08-07 16:16:02:789
4.8769,-8.3715,0.9792,-0.0792,-0.0905,-0.0594,0.025,0.0547,3.0E-4,1014,2019-08-07 16:16:02:795
4.8769,-8.3715,0.9792,-0.0792,-0.0905,-0.0594,0.025,0.0547,3.0E-4,1017,2019-08-07 16:16:02:798
4.8769,-8.3715,0.9792,0.0676,-0.0519,0.0174,0.025,0.0547,3.0E-4,1023,2019-08-07 16:16:02:804
4.7429,-8.4526,1.0451,0.0676,-0.0519,0.0174,0.0048,0.0526,-0.0114,1027,2019-08-07 16:16:02:808
4.7429,-8.4526,1.0451,0.0676,-0.0519,0.0174,0.0048,0.0526,-0.0114,1033,2019-08-07 16:16:02:814
4.7716,-8.5051,1.0121,0.0676,-0.0519,0.0174,-0.0069,0.0238,-0.0178,1037,2019-08-07 16:16:02:818
4.7716,-8.5051,1.0121,0.1686,0.0443,-0.1151,-0.0069,0.0238,-0.0178,1043,2019-08-07 16:16:02:824
4.7716,-8.5051,1.0121,0.1686,0.0443,-0.1151,-0.0059,-0.0199,-0.0242,1049,2019-08-07 16:16:02:830
4.8338,-8.4288,1.0216,0.1686,0.0443,-0.1151,-0.0059,-0.0199,-0.0242,1053,2019-08-07 16:16:02:834
4.8338,-8.4288,1.0216,0.1686,0.0443,-0.1151,-0.0059,-0.0199,-0.0242,1058,2019-08-07 16:16:02:839
4.9486,-8.4431,0.8943,-0.0381,0.0175,0.0697,-0.0112,-0.0444,-0.0221,1064,2019-08-07 16:16:02:845
4.9486,-8.4431,0.8943,-0.0381,0.0175,0.0697,-0.0112,-0.0444,-0.0221,1067,2019-08-07 16:16:02:848
4.9486,-8.4431,0.8943,-0.0381,0.0175,0.0697,-0.0123,-0.0476,-0.0232,1073,2019-08-07 16:16:02:854
5.0922,-8.424,0.8472,-0.0381,0.0175,0.0697,-0.0123,-0.0476,-0.0232,1078,2019-08-07 16:16:02:859
5.0922,-8.424,0.8472,-0.2142,0.0629,0.1516,-0.0101,-0.0476,-0.0178,1083,2019-08-07 16:16:02:864
5.0922,-8.424,0.8472,-0.2142,0.0629,0.1516,-0.0101,-0.0476,-0.0178,1087,2019-08-07 16:16:02:868
5.1878,-8.5242,0.9179,-0.2646,0.1356,0.0742,0.008,-0.005,-0.0178,1093,2019-08-07 16:16:02:874
5.1878,-8.5242,0.9179,-0.2646,0.1356,0.0742,0.008,-0.005,-0.0178,1098,2019-08-07 16:16:02:879
5.1161,-8.5147,0.8613,-0.2646,0.1356,0.0742,0.008,-0.005,-0.0178,1103,2019-08-07 16:16:02:884
5.1161,-8.5147,0.8613,-0.2646,0.1356,0.0742,0.0176,0.0526,-0.021,1107,2019-08-07 16:16:02:888
4.896,-8.4526,1.0357,-0.0982,0.0046,-0.0104,0.0176,0.0526,-0.021,1113,2019-08-07 16:16:02:894
4.896,-8.4526,1.0357,-0.0982,0.0046,-0.0104,0.0208,0.0717,-0.0146,1118,2019-08-07 16:16:02:899
4.896,-8.4526,1.0357,-0.0982,0.0046,-0.0104,0.0208,0.0717,-0.0146,1122,2019-08-07 16:16:02:903
4.7573,-8.4049,1.0687,-0.0982,0.0046,-0.0104,0.0144,0.0664,-0.0168,1128,2019-08-07 16:16:02:909
4.7573,-8.4049,1.0687,0.2278,-0.0272,-0.0519,0.0144,0.0664,-0.0168,1132,2019-08-07 16:16:02:913
4.6855,-8.486,1.1159,0.2278,-0.0272,-0.0519,0.0144,0.0664,-0.0168,1138,2019-08-07 16:16:02:919
4.6855,-8.486,1.1159,0.2278,-0.0272,-0.0519,0.0058,0.0259,-0.0157,1142,2019-08-07 16:16:02:923
4.6855,-8.486,1.1159,0.2278,-0.0272,-0.0519,0.0112,0.0046,-0.021,1149,2019-08-07 16:16:02:930
4.7525,-8.5576,1.1253,0.1617,0.1267,-0.1225,0.0112,0.0046,-0.021,1152,2019-08-07 16:16:02:933
4.7525,-8.5576,1.1253,0.1617,0.1267,-0.1225,0.0112,0.0046,-0.021,1158,2019-08-07 16:16:02:939
4.7525,-8.5576,1.1253,0.1617,0.1267,-0.1225,0.0165,-0.005,-0.0242,1163,2019-08-07 16:16:02:944
4.7764,-8.5672,1.0074,0.1392,0.1372,-0.0033,0.0165,-0.005,-0.0242,1167,2019-08-07 16:16:02:948
4.7764,-8.5672,1.0074,0.1392,0.1372,-0.0033,0.0101,0.0014,-0.021,1173,2019-08-07 16:16:02:954
4.9008,-8.5529,0.899,0.1392,0.1372,-0.0033,0.0101,0.0014,-0.021,1178,2019-08-07 16:16:02:959
4.9008,-8.5529,0.899,-0.0825,0.1917,0.1017,-0.0037,0.0185,-0.0221,1183,2019-08-07 16:16:02:964
4.9199,-8.6245,0.9037,-0.0825,0.1917,0.1017,-0.0037,0.0185,-0.0221,1187,2019-08-07 16:16:02:968
4.9199,-8.6245,0.9037,-0.0825,0.1917,0.1017,-0.0037,0.0185,-0.0221,1193,2019-08-07 16:16:02:974
4.9199,-8.6245,0.9037,-0.0825,0.1917,0.1017,-0.0069,0.0323,-0.0263,1198,2019-08-07 16:16:02:979
4.8338,-8.6818,0.8943,0.0688,0.2508,0.0837,-0.0069,0.0323,-0.0263,1202,2019-08-07 16:16:02:983
4.8338,-8.6818,0.8943,0.0688,0.2508,0.0837,-0.0101,0.0227,-0.021,1208,2019-08-07 16:16:02:989
4.8482,-8.6865,0.9462,0.0743,0.2608,0.06,-0.0101,0.0227,-0.021,1213,2019-08-07 16:16:02:994
4.8482,-8.6865,0.9462,0.0743,0.2608,0.06,-0.0091,0.0068,-0.0125,1219,2019-08-07 16:16:03:000
4.8482,-8.6865,0.9462,0.0743,0.2608,0.06,-0.0091,0.0068,-0.0125,1223,2019-08-07 16:16:03:004
4.8721,-8.72,0.8755,0.0743,0.2608,0.06,0.0058,-0.0082,0.0013,1228,2019-08-07 16:16:03:009
4.8721,-8.72,0.8755,0.026,0.2509,0.1153,0.0058,-0.0082,0.0013,1233,2019-08-07 16:16:03:014
4.8721,-8.72,0.8755,0.026,0.2509,0.1153,0.0058,-0.0082,0.0013,1239,2019-08-07 16:16:03:020
4.896,-8.6484,0.9273,0.026,0.2509,0.1153,0.025,-0.006,0.0109,1242,2019-08-07 16:16:03:023
4.896,-8.6484,0.9273,0.026,0.2509,0.1153,0.025,-0.006,0.0109,1248,2019-08-07 16:16:03:029
4.896,-8.6484,0.9273,0.1139,0.1636,0.0901,0.0367,0.0153,0.0173,1253,2019-08-07 16:16:03:034
4.8099,-8.5672,0.9886,0.1139,0.1636,0.0901,0.0367,0.0153,0.0173,1258,2019-08-07 16:16:03:039
4.8099,-8.5672,0.9886,0.1139,0.1636,0.0901,0.0442,0.0153,0.0163,1263,2019-08-07 16:16:03:044
4.7334,-8.5242,1.0169,0.1139,0.1636,0.0901,0.0442,0.0153,0.0163,1268,2019-08-07 16:16:03:049
4.7334,-8.5242,1.0169,0.2001,0.0474,0.0191,0.0442,0.0153,0.0163,1272,2019-08-07 16:16:03:053
4.7334,-8.5242,1.0169,0.2001,0.0474,0.0191,0.0506,0.0132,0.0152,1278,2019-08-07 16:16:03:059
4.6951,-8.4001,1.031,0.2001,0.0474,0.0191,0.0506,0.0132,0.0152,1283,2019-08-07 16:16:03:064
4.6951,-8.4001,1.031,0.2127,-0.0247,-0.042,0.0442,4.0E-4,0.012,1288,2019-08-07 16:16:03:069
4.7095,-8.3572,1.0782,0.2127,-0.0247,-0.042,0.0442,4.0E-4,0.012,1293,2019-08-07 16:16:03:074
4.7095,-8.3572,1.0782,0.2127,-0.0247,-0.042,0.0314,-0.0252,0.012,1298,2019-08-07 16:16:03:079
4.7095,-8.3572,1.0782,0.2127,-0.0247,-0.042,0.0314,-0.0252,0.012,1302,2019-08-07 16:16:03:083
4.8386,-8.424,1.13,0.1003,-0.0351,-0.0611,0.0293,-0.0476,0.0056,1309,2019-08-07 16:16:03:090
4.8386,-8.424,1.13,0.1003,-0.0351,-0.0611,0.0293,-0.0476,0.0056,1313,2019-08-07 16:16:03:094
4.8386,-8.424,1.13,0.1003,-0.0351,-0.0611,0.025,-0.0667,3.0E-4,1318,2019-08-07 16:16:03:099
4.9917,-8.4097,0.9839,0.1003,-0.0351,-0.0611,0.025,-0.0667,3.0E-4,1323,2019-08-07 16:16:03:104
4.9917,-8.4097,0.9839,-0.1567,0.0324,0.0224,0.0229,-0.0614,-0.0061,1327,2019-08-07 16:16:03:108
5.2118,-8.4431,0.9367,-0.1567,0.0324,0.0224,0.0229,-0.0614,-0.0061,1333,2019-08-07 16:16:03:114
5.2118,-8.4431,0.9367,-0.1567,0.0324,0.0224,0.0229,-0.0614,-0.0061,1337,2019-08-07 16:16:03:118
5.2118,-8.4431,0.9367,-0.1567,0.0324,0.0224,0.0218,-0.0252,-0.0093,1343,2019-08-07 16:16:03:124
5.2788,-8.4192,0.9085,-0.3634,-0.0086,0.115,0.0218,-0.0252,-0.0093,1348,2019-08-07 16:16:03:129
5.2788,-8.4192,0.9085,-0.3634,-0.0086,0.115,0.0282,-0.0071,-0.0072,1353,2019-08-07 16:16:03:134
5.2788,-8.4192,0.9085,-0.3634,-0.0086,0.115,0.0282,-0.0071,-0.0072,1359,2019-08-07 16:16:03:140
5.2357,-8.4335,0.9697,-0.3634,-0.0086,0.115,0.0325,0.0078,-0.0104,1363,2019-08-07 16:16:03:144
5.2357,-8.4335,0.9697,-0.3455,-0.0012,0.0205,0.0325,0.0078,-0.0104,1368,2019-08-07 16:16:03:149
5.2166,-8.3094,1.0263,-0.3455,-0.0012,0.0205,0.0346,0.0227,-0.0189,1373,2019-08-07 16:16:03:154
5.2166,-8.3094,1.0263,-0.3455,-0.0012,0.0205,0.0346,0.0227,-0.0189,1377,2019-08-07 16:16:03:158
5.2166,-8.3094,1.0263,-0.3455,-0.0012,0.0205,0.0325,0.0334,-0.02,1384,2019-08-07 16:16:03:165
5.1975,-8.3142,1.1064,-0.2739,-0.1072,-0.07,0.0325,0.0334,-0.02,1387,2019-08-07 16:16:03:168
5.1975,-8.3142,1.1064,-0.2739,-0.1072,-0.07,0.0176,0.0494,-0.0221,1393,2019-08-07 16:16:03:174
5.1544,-8.4192,1.1253,-0.2739,-0.1072,-0.07,0.0176,0.0494,-0.0221,1399,2019-08-07 16:16:03:180
5.1544,-8.4192,1.1253,-0.2739,-0.1072,-0.07,0.0048,0.0536,-0.0317,1402,2019-08-07 16:16:03:183
5.1544,-8.4192,1.1253,-0.1881,0.0109,-0.0953,0.0048,0.0536,-0.0317,1408,2019-08-07 16:16:03:189
5.0779,-8.5863,1.1489,-0.1881,0.0109,-0.0953,-0.0037,0.0654,-0.0359,1412,2019-08-07 16:16:03:193
5.0779,-8.5863,1.1489,-0.1881,0.0109,-0.0953,-0.0037,0.0654,-0.0359,1418,2019-08-07 16:16:03:199
5.0779,-8.5863,1.1489,-0.1881,0.0109,-0.0953,0.0016,0.093,-0.0445,1423,2019-08-07 16:16:03:204
5.0109,-8.6722,1.1819,-0.0776,0.2584,-0.1301,0.0016,0.093,-0.0445,1427,2019-08-07 16:16:03:208
5.0109,-8.6722,1.1819,-0.0776,0.2584,-0.1301,0.0133,0.1176,-0.0487,1433,2019-08-07 16:16:03:214
4.872,-8.6579,1.1064,-0.0776,0.2584,-0.1301,0.0133,0.1176,-0.0487,1438,2019-08-07 16:16:03:219
4.872,-8.6579,1.1064,-0.0776,0.2584,-0.1301,0.0133,0.1176,-0.0487,1442,2019-08-07 16:16:03:223
4.872,-8.6579,1.1064,0.1139,0.263,0.0163,0.0218,0.1335,-0.053,1448,2019-08-07 16:16:03:229
4.8003,-8.6388,1.0263,0.1139,0.263,0.0163,0.0335,0.1484,-0.0636,1453,2019-08-07 16:16:03:234
4.8003,-8.6388,1.0263,0.1139,0.263,0.0163,0.0335,0.1484,-0.0636,1458,2019-08-07 16:16:03:239
4.7094,-8.72,1.0828,0.1139,0.263,0.0163,0.0335,0.1484,-0.0636,1463,2019-08-07 16:16:03:244
4.7094,-8.72,1.0828,0.2969,0.3789,0.1119,0.041,0.1516,-0.0754,1468,2019-08-07 16:16:03:249
4.7094,-8.72,1.0828,0.2969,0.3789,0.1119,0.041,0.1516,-0.0754,1473,2019-08-07 16:16:03:254
4.6615,-8.9252,0.9461,0.2969,0.3789,0.1119,0.0431,0.1389,-0.0881,1478,2019-08-07 16:16:03:259
4.6615,-8.9252,0.9461,0.2969,0.3789,0.1119,0.0431,0.1389,-0.0881,1484,2019-08-07 16:16:03:265
4.6615,-8.9252,0.9461,0.4104,0.7539,0.1314,0.0484,0.1229,-0.1073,1488,2019-08-07 16:16:03:269
4.4941,-9.183,1.0074,0.4104,0.7539,0.1314,0.0484,0.1229,-0.1073,1494,2019-08-07 16:16:03:275
4.4941,-9.183,1.0074,0.4104,0.7539,0.1314,0.0698,0.1101,-0.1265,1498,2019-08-07 16:16:03:279
4.2931,-9.2737,1.0216,0.4104,0.7539,0.1314,0.0698,0.1101,-0.1265,1502,2019-08-07 16:16:03:283
4.2931,-9.2737,1.0216,0.4104,0.7539,0.1314,0.0698,0.1101,-0.1265,1508,2019-08-07 16:16:03:289
4.2931,-9.2737,1.0216,0.7957,0.9214,0.1857,0.0847,0.093,-0.1425,1513,2019-08-07 16:16:03:294
4.0204,-9.3883,0.701,0.7957,0.9214,0.1857,0.0847,0.093,-0.1425,1519,2019-08-07 16:16:03:300
4.0204,-9.3883,0.701,0.7957,0.9214,0.1857,0.09,0.0962,-0.1712,1523,2019-08-07 16:16:03:304
3.6425,-9.6843,0.7576,1.3374,1.3106,0.3906,0.09,0.0962,-0.1712,1528,2019-08-07 16:16:03:309
3.6425,-9.6843,0.7576,1.3374,1.3106,0.3906,0.107,0.0952,-0.1883,1532,2019-08-07 16:16:03:313
3.6425,-9.6843,0.7576,1.3374,1.3106,0.3906,0.107,0.0952,-0.1883,1538,2019-08-07 16:16:03:319
3.1449,-10.2476,0.9791,1.3374,1.3106,0.3906,0.1465,0.0813,-0.1989,1543,2019-08-07 16:16:03:324
3.1449,-10.2476,0.9791,1.3374,1.3106,0.3906,0.1465,0.0813,-0.1989,1548,2019-08-07 16:16:03:329
2.7574,-10.8538,0.9744,2.1137,2.2977,0.2774,0.1465,0.0813,-0.1989,1553,2019-08-07 16:16:03:334
2.7574,-10.8538,0.9744,2.1137,2.2977,0.2774,0.1816,0.0132,-0.1968,1558,2019-08-07 16:16:03:339
2.3986,-11.7322,0.7812,2.4169,2.9386,0.3159,0.1816,0.0132,-0.1968,1563,2019-08-07 16:16:03:344
2.3986,-11.7322,0.7812,2.4169,2.9386,0.3159,0.2327,-0.0316,-0.1829,1568,2019-08-07 16:16:03:349
2.3986,-11.7322,0.7812,2.4169,2.9386,0.3159,0.2327,-0.0316,-0.1829,1573,2019-08-07 16:16:03:354
1.9728,-12.9352,1.2714,2.4169,2.9386,0.3159,0.2327,-0.0316,-0.1829,1578,2019-08-07 16:16:03:359
1.9728,-12.9352,1.2714,3.1556,4.8576,-0.1231,0.3957,-0.0902,-0.1318,1583,2019-08-07 16:16:03:364
1.4896,-14.4963,1.0593,3.1556,4.8576,-0.1231,0.5811,-0.1285,-0.0519,1588,2019-08-07 16:16:03:369
1.4896,-14.4963,1.0593,3.1556,4.8576,-0.1231,0.5811,-0.1285,-0.0519,1593,2019-08-07 16:16:03:374
1.4896,-14.4963,1.0593,3.8201,7.3145,0.4139,0.7302,-0.0976,0.0077,1598,2019-08-07 16:16:03:379
1.0877,-15.9045,0.8283,3.8201,7.3145,0.4139,0.7302,-0.0976,0.0077,1603,2019-08-07 16:16:03:384
1.0877,-15.9045,0.8283,3.8201,7.3145,0.4139,0.7302,-0.0976,0.0077,1608,2019-08-07 16:16:03:389
1.0877,-15.9045,0.8283,3.8201,7.3145,0.4139,1.0296,-0.0731,0.0834,1613,2019-08-07 16:16:03:394
0.3605,-16.8689,1.0876,4.9013,8.8377,0.5942,1.0296,-0.0731,0.0834,1618,2019-08-07 16:16:03:399
0.3605,-16.8689,1.0876,4.9013,8.8377,0.5942,1.4152,-0.0561,0.1888,1623,2019-08-07 16:16:03:404
-0.8117,-17.6709,0.2626,4.9013,8.8377,0.5942,1.4152,-0.0561,0.1888,1628,2019-08-07 16:16:03:409
-0.8117,-17.6709,0.2626,4.9013,8.8377,0.5942,1.7028,0.0909,0.29,1633,2019-08-07 16:16:03:414
-0.8117,-17.6709,0.2626,6.8345,10.1631,2.5653,1.7028,0.0909,0.29,1638,2019-08-07 16:16:03:419
-2.2182,-18.9264,-1.0996,6.8345,10.1631,2.5653,1.9915,0.5554,0.388,1644,2019-08-07 16:16:03:425
-2.2182,-18.9264,-1.0996,6.8345,10.1631,2.5653,1.9915,0.5554,0.388,1648,2019-08-07 16:16:03:429
-2.2182,-18.9264,-1.0996,6.8345,10.1631,2.5653,1.9915,0.5554,0.388,1653,2019-08-07 16:16:03:434
-4.1319,-22.5258,-1.7643,6.8345,10.1631,2.5653,2.3153,1.6217,0.3934,1658,2019-08-07 16:16:03:439
-4.1319,-22.5258,-1.7643,9.1133,14.9509,4.1673,2.3153,1.6217,0.3934,1663,2019-08-07 16:16:03:444
-4.8783,-25.4999,-1.7502,9.1133,14.9509,4.1673,2.604,2.9267,0.2304,1668,2019-08-07 16:16:03:449
-4.8783,-25.4999,-1.7502,9.1133,14.9509,4.1673,2.604,2.9267,0.2304,1673,2019-08-07 16:16:03:454
-4.8783,-25.4999,-1.7502,9.1133,14.9509,4.1673,2.8085,3.7022,0.0109,1678,2019-08-07 16:16:03:459
-4.6773,-26.9225,-2.0094,9.1671,18.6898,4.8905,2.8085,3.7022,0.0109,1683,2019-08-07 16:16:03:464
-4.6773,-26.9225,-2.0094,9.1671,18.6898,4.8905,2.8085,3.7022,0.0109,1688,2019-08-07 16:16:03:469
-3.0076,-26.2303,-3.1219,9.1671,18.6898,4.8905,3.044,4.3509,-0.2405,1693,2019-08-07 16:16:03:474
-3.0076,-26.2303,-3.1219,9.1671,18.6898,4.8905,3.044,4.3509,-0.2405,1698,2019-08-07 16:16:03:479
-3.0076,-26.2303,-3.1219,6.1115,18.1808,8.5306,3.045,4.9006,-0.2831,1703,2019-08-07 16:16:03:484
-0.8069,-26.2637,-5.3421,6.1115,18.1808,8.5306,3.045,4.9006,-0.2831,1708,2019-08-07 16:16:03:489
-0.8069,-26.2637,-5.3421,6.1115,18.1808,8.5306,2.8171,5.5632,-0.2596,1713,2019-08-07 16:16:03:494
1.9202,-26.5597,-6.6714,6.1115,18.1808,8.5306,2.8171,5.5632,-0.2596,1718,2019-08-07 16:16:03:499
1.9202,-26.5597,-6.6714,1.4263,18.73,11.4133,2.5955,6.3227,-0.3406,1723,2019-08-07 16:16:03:504
1.9202,-26.5597,-6.6714,1.4263,18.73,11.4133,2.5955,6.3227,-0.3406,1728,2019-08-07 16:16:03:509
2.6761,-26.0585,-8.6795,1.4263,18.73,11.4133,2.4325,7.1589,-0.6059,1733,2019-08-07 16:16:03:514
2.6761,-26.0585,-8.6795,1.4263,18.73,11.4133,2.4325,7.1589,-0.6059,1738,2019-08-07 16:16:03:519
2.6761,-26.0585,-8.6795,1.6381,17.7786,15.7888,2.4272,7.7374,-0.9073,1743,2019-08-07 16:16:03:524
0.5279,-24.5595,-10.9939,1.6381,17.7786,15.7888,2.4272,7.7374,-0.9073,1748,2019-08-07 16:16:03:529
0.5279,-24.5595,-10.9939,1.6381,17.7786,15.7888,3.0386,9.2309,-1.6967,1753,2019-08-07 16:16:03:534
0.5279,-24.5595,-10.9939,1.6381,17.7786,15.7888,3.0386,9.2309,-1.6967,1758,2019-08-07 16:16:03:539
-1.2566,-20.0769,-5.1912,3.4461,11.8767,9.7634,4.693,10.4698,-2.5137,1763,2019-08-07 16:16:03:544
-1.2566,-20.0769,-5.1912,3.4461,11.8767,9.7634,4.693,10.4698,-2.5137,1768,2019-08-07 16:16:03:549
0.8676,-14.1669,3.831,3.4461,11.8767,9.7634,7.2315,10.882,-3.4245,1773,2019-08-07 16:16:03:554
0.8676,-14.1669,3.831,3.4461,11.8767,9.7634,7.2315,10.882,-3.4245,1777,2019-08-07 16:16:03:558
0.8676,-14.1669,3.831,0.9659,2.8423,1.5816,7.2315,10.882,-3.4245,1784,2019-08-07 16:16:03:565
-0.759,-6.7531,6.1172,0.9659,2.8423,1.5816,10.2388,10.7276,-4.2352,1788,2019-08-07 16:16:03:569
-0.759,-6.7531,6.1172,5.6626,-6.1921,3.7194,10.2388,10.7276,-4.2352,1793,2019-08-07 16:16:03:574
-10.251,12.113,7.0505,5.6626,-6.1921,3.7194,13.8777,10.4485,-3.9657,1798,2019-08-07 16:16:03:579
-10.251,12.113,7.0505,5.6626,-6.1921,3.7194,13.8777,10.4485,-3.9657,1803,2019-08-07 16:16:03:584
-10.251,12.113,7.0505,5.6626,-6.1921,3.7194,13.8777,10.4485,-3.9657,1808,2019-08-07 16:16:03:589
-17.0494,103.7942,4.0054,10.2132,-109.6787,20.4193,15.0005,1.6121,-1.8799,1812,2019-08-07 16:16:03:593
-17.0494,103.7942,4.0054,10.2132,-109.6787,20.4193,15.0005,1.6121,-1.8799,1818,2019-08-07 16:16:03:599
-17.0494,103.7942,4.0054,10.2132,-109.6787,20.4193,13.9033,1.317,-3.3947,1823,2019-08-07 16:16:03:604
-10.5954,69.5659,-45.5509,10.2132,-109.6787,20.4193,13.9033,1.317,-3.3947,1828,2019-08-07 16:16:03:609
-10.5954,69.5659,-45.5509,5.2484,-53.6192,58.1617,3.9111,-4.7784,-1.2237,1834,2019-08-07 16:16:03:615
-10.5954,69.5659,-45.5509,5.2484,-53.6192,58.1617,3.9111,-4.7784,-1.2237,1838,2019-08-07 16:16:03:619
-2.6105,52.256,-35.3266,5.2484,-53.6192,58.1617,3.9111,-4.7784,-1.2237,1843,2019-08-07 16:16:03:624
-2.6105,52.256,-35.3266,0.4675,-49.6303,33.1176,-3.4445,-10.0344,1.9476,1848,2019-08-07 16:16:03:629
7.5129,38.2544,-11.1118,0.4675,-49.6303,33.1176,-3.4445,-10.0344,1.9476,1853,2019-08-07 16:16:03:634
7.5129,38.2544,-11.1118,0.4675,-49.6303,33.1176,-8.7751,-6.323,4.3082,1858,2019-08-07 16:16:03:639
7.5129,38.2544,-11.1118,-23.7525,-16.8401,0.7308,-8.7751,-6.323,4.3082,1863,2019-08-07 16:16:03:644
29.0659,14.7434,34.6027,-23.7525,-16.8401,0.7308,-8.8891,-2.9046,4.1324,1867,2019-08-07 16:16:03:648
29.0659,14.7434,34.6027,-23.7525,-16.8401,0.7308,-8.8891,-2.9046,4.1324,1873,2019-08-07 16:16:03:654
15.1342,13.0773,13.0371,-23.7525,-16.8401,0.7308,-4.5578,-5.0064,2.2661,1878,2019-08-07 16:16:03:659
15.1342,13.0773,13.0371,-7.9405,-17.7444,5.9252,-4.5578,-5.0064,2.2661,1883,2019-08-07 16:16:03:664
15.1342,13.0773,13.0371,-7.9405,-17.7444,5.9252,-1.7146,-0.1829,2.019,1888,2019-08-07 16:16:03:669
6.3695,20.0948,15.4835,-7.9405,-17.7444,5.9252,-1.7146,-0.1829,2.019,1893,2019-08-07 16:16:03:674
6.3695,20.0948,15.4835,-7.9405,-17.7444,5.9252,-2.7511,-1.2673,2.9745,1899,2019-08-07 16:16:03:680
6.3695,20.0948,15.4835,0.8368,-21.6801,18.496,-2.7511,-1.2673,2.9745,1903,2019-08-07 16:16:03:684
1.968,17.3642,-11.0788,0.8368,-21.6801,18.496,-2.7511,-1.2673,2.9745,1908,2019-08-07 16:16:03:689
1.968,17.3642,-11.0788,0.8368,-21.6801,18.496,-4.3788,0.3253,3.2014,1913,2019-08-07 16:16:03:694
2.6617,12.1655,-2.0141,0.8368,-21.6801,18.496,-4.3788,0.3253,3.2014,1918,2019-08-07 16:16:03:699
2.6617,12.1655,-2.0141,0.3996,-14.0211,4.9989,-6.3485,0.256,2.3204,1923,2019-08-07 16:16:03:704
2.6617,12.1655,-2.0141,0.3996,-14.0211,4.9989,-6.3485,0.256,2.3204,1928,2019-08-07 16:16:03:709
-0.1036,6.0884,9.2142,3.2623,-9.8963,-3.6659,-7.0696,-2.7991,1.6823,1933,2019-08-07 16:16:03:714
-0.1036,6.0884,9.2142,3.2623,-9.8963,-3.6659,-7.0696,-2.7991,1.6823,1938,2019-08-07 16:16:03:719
-1.9981,1.94,18.3778,3.2623,-9.8963,-3.6659,-5.5772,-4.6399,1.2733,1943,2019-08-07 16:16:03:724
-1.9981,1.94,18.3778,3.2623,-9.8963,-3.6659,-5.5772,-4.6399,1.2733,1948,2019-08-07 16:16:03:729
-1.9981,1.94,18.3778,5.0054,-4.248,-0.7471,-4.2723,-5.6956,0.9899,1953,2019-08-07 16:16:03:734
-2.1321,-2.4137,5.7401,5.0054,-4.248,-0.7471,-4.2723,-5.6956,0.9899,1959,2019-08-07 16:16:03:740
-2.1321,-2.4137,5.7401,5.0054,-4.248,-0.7471,-4.3649,-6.6277,0.9878,1963,2019-08-07 16:16:03:744
-0.9025,-6.82,1.3515,5.0054,-4.248,-0.7471,-4.3649,-6.6277,0.9878,1968,2019-08-07 16:16:03:749
-0.9025,-6.82,1.3515,3.1373,2.3781,6.0814,-5.2065,-8.0892,1.0453,1973,2019-08-07 16:16:03:754
-0.9025,-6.82,1.3515,3.1373,2.3781,6.0814,-5.2065,-8.0892,1.0453,1977,2019-08-07 16:16:03:758
2.389,-11.6081,0.2815,3.1373,2.3781,6.0814,-5.2065,-8.0892,1.0453,1983,2019-08-07 16:16:03:764
2.389,-11.6081,0.2815,3.1373,2.3781,6.0814,-5.5655,-8.2735,0.8173,1988,2019-08-07 16:16:03:769
2.389,-11.6081,0.2815,3.1373,2.3781,6.0814,-5.5655,-8.2735,0.8173,1993,2019-08-07 16:16:03:774
4.3984,-25.7673,-4.0458,-0.5964,21.4913,11.3711,-5.5016,-7.7239,0.5947,1998,2019-08-07 16:16:03:779
4.3984,-25.7673,-4.0458,-0.5964,21.4913,11.3711,-5.5016,-7.7239,0.5947,2003,2019-08-07 16:16:03:784
7.1972,-37.382,-2.0707,-0.5964,21.4913,11.3711,-5.4792,-6.6415,0.486,2008,2019-08-07 16:16:03:789
7.1972,-37.382,-2.0707,0.3129,17.4264,1.2591,-5.4792,-6.6415,0.486,2013,2019-08-07 16:16:03:794
7.1972,-37.382,-2.0707,0.3129,17.4264,1.2591,-4.1071,-5.8011,0.502,2019,2019-08-07 16:16:03:800
2.944,-15.8282,4.161,0.3129,17.4264,1.2591,-4.1071,-5.8011,0.502,2022,2019-08-07 16:16:03:803
2.944,-15.8282,4.161,0.3129,17.4264,1.2591,-1.4706,-4.7539,0.7023,2028,2019-08-07 16:16:03:809
2.944,-15.8282,4.161,0.3129,17.4264,1.2591,-1.4706,-4.7539,0.7023,2033,2019-08-07 16:16:03:814
2.8387,-16.9834,1.7192,2.274,8.9539,0.652,0.7078,-3.9177,0.9377,2038,2019-08-07 16:16:03:819
2.8387,-16.9834,1.7192,2.274,8.9539,0.652,0.7078,-3.9177,0.9377,2043,2019-08-07 16:16:03:824
5.0204,-22.9984,-7.3879,2.274,8.9539,0.652,0.7078,-3.9177,0.9377,2049,2019-08-07 16:16:03:830
5.0204,-22.9984,-7.3879,2.274,8.9539,0.652,-0.0229,-3.1741,0.926,2053,2019-08-07 16:16:03:834
5.0204,-22.9984,-7.3879,0.9316,12.3417,10.6483,-0.0229,-3.1741,0.926,2058,2019-08-07 16:16:03:839
2.9918,-19.1889,-9.0094,0.9316,12.3417,10.6483,-2.0235,-1.5773,0.8259,2062,2019-08-07 16:16:03:843
2.9918,-19.1889,-9.0094,0.9316,12.3417,10.6483,-2.0235,-1.5773,0.8259,2069,2019-08-07 16:16:03:850
-0.4432,-17.9573,3.2229,0.9316,12.3417,10.6483,-2.0235,-1.5773,0.8259,2073,2019-08-07 16:16:03:854
-0.4432,-17.9573,3.2229,6.0929,10.5229,-0.2903,-2.212,-0.2958,1.1273,2078,2019-08-07 16:16:03:859
-0.4432,-17.9573,3.2229,6.0929,10.5229,-0.2903,-2.212,-0.2958,1.1273,2083,2019-08-07 16:16:03:864
-2.6966,-22.6356,-0.4256,6.0929,10.5229,-0.2903,-1.6272,-0.1094,1.4288,2087,2019-08-07 16:16:03:868
-2.6966,-22.6356,-0.4256,6.0929,10.5229,-0.2903,-1.6272,-0.1094,1.4288,2093,2019-08-07 16:16:03:874
-4.0745,-21.2226,2.1812,8.7604,13.5397,-0.2286,-0.8847,0.0302,1.3351,2098,2019-08-07 16:16:03:879
-4.0745,-21.2226,2.1812,8.7604,13.5397,-0.2286,-0.8847,0.0302,1.3351,2103,2019-08-07 16:16:03:884
-4.0745,-21.2226,2.1812,8.7604,13.5397,-0.2286,-0.8847,0.0302,1.3351,2108,2019-08-07 16:16:03:889
-4.0506,-17.1744,3.5152,8.7604,13.5397,-0.2286,0.0943,-0.1349,0.9888,2113,2019-08-07 16:16:03:894
-4.0506,-17.1744,3.5152,8.3796,7.3382,-1.7884,0.0943,-0.1349,0.9888,2118,2019-08-07 16:16:03:899
-4.0506,-17.1744,3.5152,8.3796,7.3382,-1.7884,0.7196,-0.9498,0.501,2122,2019-08-07 16:16:03:903
-3.6248,-13.5367,-2.3912,8.3796,7.3382,-1.7884,0.7196,-0.9498,0.501,2128,2019-08-07 16:16:03:909
-3.6248,-13.5367,-2.3912,8.3796,7.3382,-1.7884,0.09,-0.9147,0.3497,2134,2019-08-07 16:16:03:915
-1.113,-10.9875,0.536,5.9896,2.5232,1.5882,0.09,-0.9147,0.3497,2138,2019-08-07 16:16:03:919
-1.113,-10.9875,0.536,5.9896,2.5232,1.5882,-0.5044,-1.3195,0.339,2143,2019-08-07 16:16:03:924
-1.113,-10.9875,0.536,5.9896,2.5232,1.5882,-0.5044,-1.3195,0.339,2148,2019-08-07 16:16:03:929
1.413,-10.2094,1.8465,5.9896,2.5232,1.5882,-0.367,-1.3174,0.2165,2153,2019-08-07 16:16:03:934
1.413,-10.2094,1.8465,2.2863,1.2855,-0.6531,-0.367,-1.3174,0.2165,2158,2019-08-07 16:16:03:939
1.413,-10.2094,1.8465,2.2863,1.2855,-0.6531,-0.367,-1.3174,0.2165,2163,2019-08-07 16:16:03:944
2.767,-9.8084,0.6822,2.2863,1.2855,-0.6531,-0.0389,-1.1214,0.0994,2168,2019-08-07 16:16:03:949
2.767,-9.8084,0.6822,2.2863,1.2855,-0.6531,-0.0389,-1.1214,0.0994,2173,2019-08-07 16:16:03:954
3.6329,-9.2976,-0.8687,0.68,0.5254,1.6959,0.0868,-1.0276,0.0472,2177,2019-08-07 16:16:03:958
3.6329,-9.2976,-0.8687,0.68,0.5254,1.6959,0.0868,-1.0276,0.0472,2184,2019-08-07 16:16:03:965
4.8386,-9.1639,-1.472,0.68,0.5254,1.6959,-0.0996,-0.8401,0.0227,2188,2019-08-07 16:16:03:969
4.8386,-9.1639,-1.472,0.68,0.5254,1.6959,-0.0996,-0.8401,0.0227,2193,2019-08-07 16:16:03:974
4.8386,-9.1639,-1.472,0.68,0.5254,1.6959,-0.0996,-0.8401,0.0227,2199,2019-08-07 16:16:03:980
5.4031,-9.0637,-1.4673,-1.079,0.2878,2.1898,-0.2381,-0.5269,-0.0146,2202,2019-08-07 16:16:03:983
5.4031,-9.0637,-1.4673,-1.079,0.2878,2.1898,-0.2381,-0.5269,-0.0146,2208,2019-08-07 16:16:03:989
5.4031,-9.0637,-1.4673,-1.079,0.2878,2.1898,-0.2243,-0.1594,-0.0626,2213,2019-08-07 16:16:03:994
6.049,-8.7009,-0.732,-1.7456,-0.0562,1.2567,-0.2243,-0.1594,-0.0626,2218,2019-08-07 16:16:03:999
6.049,-8.7009,-0.732,-1.7456,-0.0562,1.2567,-0.0911,0.0781,-0.0402,2223,2019-08-07 16:16:04:004
6.1447,-8.6961,-0.5764,-1.7456,-0.0562,1.2567,-0.0911,0.0781,-0.0402,2228,2019-08-07 16:16:04:009
6.1447,-8.6961,-0.5764,-1.7456,-0.0562,1.2567,0.0186,0.3732,-0.0338,2233,2019-08-07 16:16:04:014
6.1447,-8.6961,-0.5764,-1.6481,-0.1821,1.2021,0.0186,0.3732,-0.0338,2238,2019-08-07 16:16:04:019
5.915,-8.4097,-0.5293,-1.6481,-0.1821,1.2021,0.0463,0.5777,-0.0381,2244,2019-08-07 16:16:04:025
5.915,-8.4097,-0.5293,-1.2656,-0.6218,0.4937,0.0463,0.5777,-0.0381,2248,2019-08-07 16:16:04:029
5.915,-8.4097,-0.5293,-1.2656,-0.6218,0.4937,0.0538,0.7535,-0.0104,2253,2019-08-07 16:16:04:034
5.915,-8.4097,-0.5293,-1.2656,-0.6218,0.4937,0.0538,0.7535,-0.0104,2257,2019-08-07 16:16:04:038
5.0108,-7.8893,0.6869,-1.2656,-0.6218,0.4937,0.0538,0.7535,-0.0104,2263,2019-08-07 16:16:04:044
5.0108,-7.8893,0.6869,-0.169,-0.9371,-0.7747,0.0591,0.811,0.0131,2268,2019-08-07 16:16:04:049
4.2549,-7.8845,1.7852,-0.169,-0.9371,-0.7747,0.0591,0.811,0.0131,2273,2019-08-07 16:16:04:054
4.2549,-7.8845,1.7852,-0.169,-0.9371,-0.7747,0.008,0.6566,0.0163,2278,2019-08-07 16:16:04:059
4.2549,-7.8845,1.7852,-0.169,-0.9371,-0.7747,0.008,0.6566,0.0163,2283,2019-08-07 16:16:04:064
3.8817,-8.0803,2.1057,0.3868,-0.5419,-1.1998,-0.0954,0.3519,0.0354,2288,2019-08-07 16:16:04:069
3.8817,-8.0803,2.1057,0.3868,-0.5419,-1.1998,-0.0954,0.3519,0.0354,2293,2019-08-07 16:16:04:074
4.3601,-8.5195,1.6721,0.3868,-0.5419,-1.1998,-0.1955,0.1271,0.044,2298,2019-08-07 16:16:04:079
4.3601,-8.5195,1.6721,0.3868,-0.5419,-1.1998,-0.1955,0.1271,0.044,2303,2019-08-07 16:16:04:084
4.3601,-8.5195,1.6721,0.3868,-0.5419,-1.1998,-0.1955,0.1271,0.044,2308,2019-08-07 16:16:04:089
4.9342,-9.0541,1.031,-0.5937,0.2928,-0.2338,-0.2285,0.0856,0.0397,2314,2019-08-07 16:16:04:095
4.9342,-9.0541,1.031,-0.5937,0.2928,-0.2338,-0.2285,0.0856,0.0397,2317,2019-08-07 16:16:04:098
5.3026,-9.5363,0.6633,-0.5937,0.2928,-0.2338,-0.1955,0.2603,0.0482,2324,2019-08-07 16:16:04:105
5.3026,-9.5363,0.6633,-0.8837,0.7884,0.227,-0.1955,0.2603,0.0482,2328,2019-08-07 16:16:04:109
5.3026,-9.5363,0.6633,-0.8837,0.7884,0.227,-0.1518,0.4403,0.0557,2333,2019-08-07 16:16:04:114
5.0491,-9.522,0.4229,-0.8837,0.7884,0.227,-0.1518,0.4403,0.0557,2338,2019-08-07 16:16:04:119
5.0491,-9.522,0.4229,-0.8837,0.7884,0.227,-0.106,0.6449,0.0504,2343,2019-08-07 16:16:04:124
4.5611,-9.3549,0.8236,-0.2451,0.5819,-0.0214,-0.106,0.6449,0.0504,2349,2019-08-07 16:16:04:130
4.5611,-9.3549,0.8236,-0.2451,0.5819,-0.0214,-0.106,0.6449,0.0504,2352,2019-08-07 16:16:04:133
4.5611,-9.3549,0.8236,-0.2451,0.5819,-0.0214,-0.0485,0.7141,0.0322,2358,2019-08-07 16:16:04:139
3.676,-9.14,1.6202,-0.2451,0.5819,-0.0214,-0.0485,0.7141,0.0322,2363,2019-08-07 16:16:04:144
3.676,-9.14,1.6202,-0.2451,0.5819,-0.0214,0.0048,0.6502,0.0237,2368,2019-08-07 16:16:04:149
3.676,-9.14,1.6202,1.0584,0.152,-0.9137,0.0048,0.6502,0.0237,2372,2019-08-07 16:16:04:153
3.0875,-8.8727,1.7664,1.0584,0.152,-0.9137,0.0112,0.4094,0.0344,2378,2019-08-07 16:16:04:159
3.0875,-8.8727,1.7664,1.0584,0.152,-0.9137,0.0112,0.4094,0.0344,2383,2019-08-07 16:16:04:164
3.0875,-8.8727,1.7664,1.0584,0.152,-0.9137,-0.0112,0.0057,0.0077,2387,2019-08-07 16:16:04:168
3.5851,-8.8536,1.7805,0.6916,0.0705,-0.885,-0.0112,0.0057,0.0077,2393,2019-08-07 16:16:04:174
3.5851,-8.8536,1.7805,0.6916,0.0705,-0.885,0.0144,-0.2638,-0.0253,2399,2019-08-07 16:16:04:180
4.1688,-8.9252,1.3704,0.6916,0.0705,-0.885,0.0144,-0.2638,-0.0253,2402,2019-08-07 16:16:04:183
4.1688,-8.9252,1.3704,0.6916,0.0705,-0.885,0.0144,-0.2638,-0.0253,2408,2019-08-07 16:16:04:189
4.695,-8.8441,1.0027,-0.2729,0.0818,-0.2204,0.0527,-0.3618,-0.0285,2412,2019-08-07 16:16:04:193
4.695,-8.8441,1.0027,-0.2729,0.0818,-0.2204,0.0527,-0.3618,-0.0285,2418,2019-08-07 16:16:04:199
4.695,-8.8441,1.0027,-0.2729,0.0818,-0.2204,0.0868,-0.3384,0.0099,2423,2019-08-07 16:16:04:204
5.2452,-8.9252,0.5785,-0.2729,0.0818,-0.2204,0.0868,-0.3384,0.0099,2428,2019-08-07 16:16:04:209
5.2452,-8.9252,0.5785,-1.0576,0.1661,0.231,0.1017,-0.169,0.0184,2434,2019-08-07 16:16:04:215
5.4127,-9.0016,0.7529,-1.0576,0.1661,0.231,0.1017,-0.169,0.0184,2437,2019-08-07 16:16:04:218
5.4127,-9.0016,0.7529,-1.0576,0.1661,0.231,0.1209,-0.0103,0.0152,2443,2019-08-07 16:16:04:224
5.4127,-9.0016,0.7529,-1.0576,0.1661,0.231,0.1209,-0.0103,0.0152,2448,2019-08-07 16:16:04:229
5.1591,-8.93,0.4512,-0.8627,0.1551,0.431,0.1326,0.1836,0.0173,2453,2019-08-07 16:16:04:234
5.1591,-8.93,0.4512,-0.8627,0.1551,0.431,0.1326,0.1836,0.0173,2458,2019-08-07 16:16:04:239
5.1591,-8.93,0.4512,-0.8627,0.1551,0.431,0.1326,0.1836,0.0173,2462,2019-08-07 16:16:04:243
4.8625,-8.9873,0.8095,-0.8627,0.1551,0.431,0.1369,0.3168,0.0152,2468,2019-08-07 16:16:04:249
4.8625,-8.9873,0.8095,-0.3843,0.2388,-0.0075,0.1369,0.3168,0.0152,2473,2019-08-07 16:16:04:254
4.7046,-8.9777,1.031,-0.3843,0.2388,-0.0075,0.1933,0.3839,-0.0018,2478,2019-08-07 16:16:04:259
4.7046,-8.9777,1.031,-0.3843,0.2388,-0.0075,0.1933,0.3839,-0.0018,2482,2019-08-07 16:16:04:263
4.2262,-8.6865,1.3751,-0.3843,0.2388,-0.0075,0.2487,0.3498,-0.0104,2488,2019-08-07 16:16:04:269
4.2262,-8.6865,1.3751,0.093,-0.162,-0.3789,0.2487,0.3498,-0.0104,2493,2019-08-07 16:16:04:274
4.2262,-8.6865,1.3751,0.093,-0.162,-0.3789,0.254,0.2667,-0.0061,2498,2019-08-07 16:16:04:279
4.0014,-8.2092,1.427,0.093,-0.162,-0.3789,0.254,0.2667,-0.0061,2503,2019-08-07 16:16:04:284
4.0014,-8.2092,1.427,0.093,-0.162,-0.3789,0.254,0.2667,0.0067,2508,2019-08-07 16:16:04:289
4.0827,-8.1185,1.3468,0.1984,-0.6432,-0.2785,0.205,0.1016,0.0067,2513,2019-08-07 16:16:04:294
4.0827,-8.1185,1.3468,0.1984,-0.6432,-0.2785,0.205,0.1016,0.0067,2518,2019-08-07 16:16:04:299
4.0827,-8.1185,1.3468,0.1984,-0.6432,-0.2785,0.1411,-0.1072,0.0109,2523,2019-08-07 16:16:04:304
4.3315,-8.2235,1.4411,0.1984,-0.6432,-0.2785,0.1411,-0.1072,0.0109,2528,2019-08-07 16:16:04:309
4.3315,-8.2235,1.4411,-0.2594,-0.4393,-0.3978,0.1124,-0.2617,0.0205,2534,2019-08-07 16:16:04:315
4.3315,-8.2235,1.4411,-0.2594,-0.4393,-0.3978,0.1124,-0.2617,0.0205,2537,2019-08-07 16:16:04:318
4.8195,-8.4288,1.4081,-0.2594,-0.4393,-0.3978,0.1145,-0.3331,0.0376,2543,2019-08-07 16:16:04:324
5.1304,-8.5386,1.196,-0.2594,-0.4393,-0.3978,0.1145,-0.3331,0.0376,2549,2019-08-07 16:16:04:330
5.1304,-8.5386,1.196,-1.019,-0.2508,-0.0775,0.123,-0.2926,0.0482,2553,2019-08-07 16:16:04:334
5.1304,-8.5386,1.196,-1.019,-0.2508,-0.0775,0.123,-0.2926,0.0482,2558,2019-08-07 16:16:04:339
5.3649,-8.4144,1.0499,-1.019,-0.2508,-0.0775,0.1315,-0.1637,0.0567,2564,2019-08-07 16:16:04:345
5.3649,-8.4144,1.0499,-1.019,-0.2508,-0.0775,0.1315,-0.1637,0.0567,2568,2019-08-07 16:16:04:349
5.3649,-8.4144,1.0499,-1.0456,-0.4352,0.3437,0.1315,-0.1637,0.0567,2573,2019-08-07 16:16:04:354
5.3505,-8.2808,0.7906,-1.0456,-0.4352,0.3437,0.1113,0.0472,0.0653,2577,2019-08-07 16:16:04:358
5.3505,-8.2808,0.7906,-1.0456,-0.4352,0.3437,0.1113,0.0472,0.0653,2583,2019-08-07 16:16:04:364
5.3505,-8.2808,0.7906,-1.0456,-0.4352,0.3437,0.1017,0.2188,0.0482,2588,2019-08-07 16:16:04:369
4.9056,-8.2712,1.3515,-0.5111,-0.4869,-0.3329,0.1017,0.2188,0.0482,2593,2019-08-07 16:16:04:374
4.9056,-8.2712,1.3515,-0.5111,-0.4869,-0.3329,0.1102,0.2795,0.0227,2599,2019-08-07 16:16:04:380
4.3315,-8.2139,1.7098,-0.5111,-0.4869,-0.3329,0.1102,0.2795,0.0227,2603,2019-08-07 16:16:04:384
4.3315,-8.2139,1.7098,-0.5111,-0.4869,-0.3329,0.1102,0.2795,0.0227,2608,2019-08-07 16:16:04:389
4.0444,-8.1901,1.8371,0.2321,-0.5609,-0.6677,0.1028,0.2592,0.012,2613,2019-08-07 16:16:04:394
4.0444,-8.1901,1.8371,0.2321,-0.5609,-0.6677,0.1028,0.2592,0.012,2618,2019-08-07 16:16:04:399
4.0444,-8.1901,1.8371,0.2321,-0.5609,-0.6677,0.0719,0.1176,-0.0082,2623,2019-08-07 16:16:04:404
4.0444,-8.1901,1.8371,0.2321,-0.5609,-0.6677,0.0719,0.1176,-0.0082,2627,2019-08-07 16:16:04:408
4.0683,-8.2283,1.8606,0.0643,-0.5289,-0.528,0.0474,0.011,-0.0221,2633,2019-08-07 16:16:04:414
4.0683,-8.2283,1.8606,0.0643,-0.5289,-0.528,0.0474,0.011,-0.0221,2638,2019-08-07 16:16:04:419
4.4128,-8.2569,1.5495,0.0643,-0.5289,-0.528,0.009,-0.1083,-0.0455,2643,2019-08-07 16:16:04:424
4.4128,-8.2569,1.5495,-0.2507,-0.4784,-0.3391,0.009,-0.1083,-0.0455,2648,2019-08-07 16:16:04:429
4.4128,-8.2569,1.5495,-0.2507,-0.4784,-0.3391,0.009,-0.1083,-0.0455,2653,2019-08-07 16:16:04:434
4.4128,-8.2569,1.5495,-0.2507,-0.4784,-0.3391,0.009,-0.1083,-0.0455,2657,2019-08-07 16:16:04:438
4.9247,-8.3619,1.2997,-0.2507,-0.4784,-0.3391,-0.0037,-0.1211,-0.0647,2663,2019-08-07 16:16:04:444
4.9247,-8.3619,1.2997,-0.7105,-0.3655,0.0663,-0.0037,-0.1211,-0.0647,2668,2019-08-07 16:16:04:449
5.0922,-8.3906,1.0122,-0.7105,-0.3655,0.0663,-0.0091,-0.006,-0.0594,2673,2019-08-07 16:16:04:454
5.0922,-8.3906,1.0122,-0.7397,-0.2899,0.1572,-0.0091,-0.006,-0.0594,2678,2019-08-07 16:16:04:459
5.0443,-8.5195,1.2148,-0.7397,-0.2899,0.1572,-0.0027,0.0771,-0.0551,2683,2019-08-07 16:16:04:464
5.0443,-8.5195,1.2148,-0.7397,-0.2899,0.1572,-0.0027,0.0771,-0.0551,2688,2019-08-07 16:16:04:469
5.0443,-8.5195,1.2148,-0.7397,-0.2899,0.1572,0.0176,0.1271,-0.0583,2693,2019-08-07 16:16:04:474
4.853,-8.5433,1.2903,-0.5972,-0.1916,-0.1748,0.0176,0.1271,-0.0583,2698,2019-08-07 16:16:04:479
4.853,-8.5433,1.2903,-0.5972,-0.1916,-0.1748,0.041,0.1357,-0.0785,2703,2019-08-07 16:16:04:484
4.853,-8.5433,1.2903,-0.5972,-0.1916,-0.1748,0.041,0.1357,-0.0785,2708,2019-08-07 16:16:04:489
4.5946,-8.4669,1.4882,-0.5972,-0.1916,-0.1748,0.041,0.1357,-0.0785,2714,2019-08-07 16:16:04:495
4.5946,-8.4669,1.4882,-0.1963,-0.292,-0.2494,0.0357,0.1026,-0.0849,2718,2019-08-07 16:16:04:499
4.5946,-8.4669,1.4882,-0.1963,-0.292,-0.2494,0.0357,0.1026,-0.0849,2723,2019-08-07 16:16:04:504
4.5037,-8.3762,1.4458,-0.1963,-0.292,-0.2494,0.0229,0.059,-0.0732,2728,2019-08-07 16:16:04:509
4.5037,-8.3762,1.4458,-0.1963,-0.292,-0.2494,0.0229,0.059,-0.0732,2733,2019-08-07 16:16:04:514
4.5037,-8.3762,1.4458,-0.2591,-0.2263,-0.1202,-0.0123,-0.0092,-0.0583,2737,2019-08-07 16:16:04:518
4.6425,-8.5958,1.3751,-0.2591,-0.2263,-0.1202,-0.0123,-0.0092,-0.0583,2743,2019-08-07 16:16:04:524
4.6425,-8.5958,1.3751,-0.3435,-0.0704,-0.1732,-0.0282,-0.0209,-0.0594,2748,2019-08-07 16:16:04:529
4.8003,-8.72,1.3138,-0.3435,-0.0704,-0.1732,-0.0282,-0.0209,-0.0594,2754,2019-08-07 16:16:04:535
4.8003,-8.72,1.3138,-0.3435,-0.0704,-0.1732,-0.0282,-0.0209,-0.0594,2758,2019-08-07 16:16:04:539
4.8338,-8.7438,1.1866,-0.3435,-0.0704,-0.1732,-0.0219,-0.0092,-0.0604,2763,2019-08-07 16:16:04:544
4.8338,-8.7438,1.1866,-0.5018,0.0218,0.039,-0.0037,0.0536,-0.0445,2769,2019-08-07 16:16:04:550
4.8338,-8.7438,1.1866,-0.5018,0.0218,0.039,-0.0037,0.0536,-0.0445,2773,2019-08-07 16:16:04:554
4.8578,-8.7581,1.2337,-0.5018,0.0218,0.039,0.008,0.1026,-0.0359,2779,2019-08-07 16:16:04:560
4.8578,-8.7581,1.2337,-0.5018,0.0218,0.039,0.008,0.1026,-0.0359,2783,2019-08-07 16:16:04:564
4.8578,-8.7581,1.2337,-0.4262,-0.1257,-0.0159,0.008,0.1026,-0.0359,2787,2019-08-07 16:16:04:568
4.7956,-8.5099,1.3091,-0.4262,-0.1257,-0.0159,0.0133,0.1346,-0.0306,2793,2019-08-07 16:16:04:574
4.7956,-8.5099,1.3091,-0.3327,-0.2475,-0.1123,0.0133,0.1346,-0.0306,2799,2019-08-07 16:16:04:580
4.7956,-8.5099,1.3091,-0.3327,-0.2475,-0.1123,0.0154,0.1325,-0.0402,2802,2019-08-07 16:16:04:583
4.5133,-8.3619,1.4175,-0.3327,-0.2475,-0.1123,0.0154,0.1325,-0.0402,2808,2019-08-07 16:16:04:589
4.5133,-8.3619,1.4175,-0.3327,-0.2475,-0.1123,0.0016,0.0909,-0.037,2813,2019-08-07 16:16:04:594
4.3985,-8.3571,1.4364,-0.0307,-0.3143,-0.1545,0.0016,0.0909,-0.037,2818,2019-08-07 16:16:04:599
4.3985,-8.3571,1.4364,-0.0307,-0.3143,-0.1545,0.0016,0.0909,-0.037,2823,2019-08-07 16:16:04:604
4.3985,-8.3571,1.4364,-0.0307,-0.3143,-0.1545,-0.0165,0.0142,-0.0306,2828,2019-08-07 16:16:04:609
4.3458,-8.4622,1.5118,-0.0307,-0.3143,-0.1545,-0.0165,0.0142,-0.0306,2833,2019-08-07 16:16:04:614
4.3458,-8.4622,1.5118,-0.1113,-0.1397,-0.1871,-0.0016,-0.0785,-0.021,2838,2019-08-07 16:16:04:619
4.6616,-8.6102,1.361,-0.1113,-0.1397,-0.1871,-0.0016,-0.0785,-0.021,2843,2019-08-07 16:16:04:624
4.6616,-8.6102,1.361,-0.1113,-0.1397,-0.1871,0.0058,-0.0987,-0.0295,2849,2019-08-07 16:16:04:630
4.6616,-8.6102,1.361,-0.1113,-0.1397,-0.1871,0.0058,-0.0987,-0.0295,2852,2019-08-07 16:16:04:633
4.8482,-8.4765,1.2808,-0.4934,-0.2453,0.0415,0.0069,-0.0774,-0.0413,2858,2019-08-07 16:16:04:639
4.8482,-8.4765,1.2808,-0.4934,-0.2453,0.0415,0.0069,-0.0774,-0.0413,2864,2019-08-07 16:16:04:645
4.9582,-8.4431,1.2337,-0.4934,-0.2453,0.0415,0.0112,0.0313,-0.0306,2868,2019-08-07 16:16:04:649
4.9582,-8.4431,1.2337,-0.4934,-0.2453,0.0415,0.0112,0.0313,-0.0306,2873,2019-08-07 16:16:04:654
4.9582,-8.4431,1.2337,-0.5213,-0.2733,0.0426,0.0112,0.0313,-0.0306,2877,2019-08-07 16:16:04:658
4.9535,-8.4001,1.1771,-0.5213,-0.2733,0.0426,-0.0176,0.1282,-0.0221,2883,2019-08-07 16:16:04:664
4.9535,-8.4001,1.1771,-0.5213,-0.2733,0.0426,-0.0176,0.1282,-0.0221,2888,2019-08-07 16:16:04:669
4.7525,-8.3762,1.3233,-0.5213,-0.2733,0.0426,-0.0421,0.1484,-0.02,2893,2019-08-07 16:16:04:674
4.7525,-8.3762,1.3233,-0.3019,-0.2606,-0.1719,-0.0421,0.1484,-0.02,2898,2019-08-07 16:16:04:679
4.7525,-8.3762,1.3233,-0.3019,-0.2606,-0.1719,-0.057,0.1239,-0.0146,2903,2019-08-07 16:16:04:684
4.7525,-8.3762,1.3233,-0.3019,-0.2606,-0.1719,-0.057,0.1239,-0.0146,2908,2019-08-07 16:16:04:689
4.5564,-8.4335,1.4128,-0.3019,-0.2606,-0.1719,-0.057,0.1239,-0.0146,2913,2019-08-07 16:16:04:694
4.5564,-8.4335,1.4128,-0.1619,-0.3124,-0.0395,-0.0773,0.0579,-0.0082,2918,2019-08-07 16:16:04:699
4.6042,-8.3858,1.3421,-0.1619,-0.3124,-0.0395,-0.0773,0.0579,-0.0082,2923,2019-08-07 16:16:04:704
4.6042,-8.3858,1.3421,-0.1619,-0.3124,-0.0395,-0.0847,-0.0092,-0.0093,2928,2019-08-07 16:16:04:709
4.6042,-8.3858,1.3421,-0.1619,-0.3124,-0.0395,-0.0847,-0.0092,-0.0093,2933,2019-08-07 16:16:04:714
4.6568,-8.4669,1.196,-0.3065,-0.1933,0.115,-0.0815,-0.054,-0.0029,2937,2019-08-07 16:16:04:718
4.6568,-8.4669,1.196,-0.3065,-0.1933,0.115,-0.0815,-0.054,-0.0029,2943,2019-08-07 16:16:04:724
4.8434,-8.5624,1.0216,-0.3065,-0.1933,0.115,-0.0804,-0.0433,-0.02,2949,2019-08-07 16:16:04:730
4.8434,-8.5624,1.0216,-0.3065,-0.1933,0.115,-0.0804,-0.0433,-0.02,2952,2019-08-07 16:16:04:733
4.853,-8.5433,1.0404,-0.4241,-0.1258,0.1708,-0.0698,-0.0231,-0.0327,2958,2019-08-07 16:16:04:739
4.853,-8.5433,1.0404,-0.4241,-0.1258,0.1708,-0.0698,-0.0231,-0.0327,2964,2019-08-07 16:16:04:745
4.853,-8.5433,1.0404,-0.4241,-0.1258,0.1708,-0.0485,0.0217,-0.0391,2968,2019-08-07 16:16:04:749
4.8195,-8.6293,1.1724,-0.4241,-0.1258,0.1708,-0.0485,0.0217,-0.0391,2973,2019-08-07 16:16:04:754
4.8195,-8.6293,1.1724,-0.4241,-0.1258,0.1708,-0.0485,0.0217,-0.0391,2978,2019-08-07 16:16:04:759
4.7334,-8.5099,1.2054,-0.3435,-0.027,0.0587,-0.0357,0.0515,-0.0466,2983,2019-08-07 16:16:04:764
4.7334,-8.5099,1.2054,-0.3435,-0.027,0.0587,-0.0357,0.0515,-0.0466,2988,2019-08-07 16:16:04:769
4.7334,-8.5099,1.2054,-0.3435,-0.027,0.0587,-0.0432,0.0153,-0.0391,2992,2019-08-07 16:16:04:773
4.7382,-8.5529,1.262,-0.2915,-0.1089,-0.172,-0.0432,0.0153,-0.0391,2998,2019-08-07 16:16:04:779
4.7382,-8.5529,1.262,-0.2915,-0.1089,-0.172,-0.0453,-0.0295,-0.0285,3003,2019-08-07 16:16:04:784
4.8339,-8.6102,1.4128,-0.2915,-0.1089,-0.172,-0.0453,-0.0295,-0.0285,3008,2019-08-07 16:16:04:789
4.8339,-8.6102,1.4128,-0.2915,-0.1089,-0.172,-0.0453,-0.0295,-0.0285,3013,2019-08-07 16:16:04:794
4.8339,-8.6102,1.4128,-0.4939,-0.0919,-0.0744,-0.0442,-0.0572,-0.0232,3018,2019-08-07 16:16:04:799
5.0013,-8.5386,1.2431,-0.4939,-0.0919,-0.0744,-0.0442,-0.0572,-0.0232,3022,2019-08-07 16:16:04:803
5.0013,-8.5386,1.2431,-0.4939,-0.0919,-0.0744,-0.041,-0.0678,0.0067,3028,2019-08-07 16:16:04:809
5.0348,-8.4908,1.3516,-0.4939,-0.0919,-0.0744,-0.041,-0.0678,0.0067,3033,2019-08-07 16:16:04:814
5.0348,-8.4908,1.3516,-0.7233,-0.1198,0.0258,-0.0336,-0.0678,0.0418,3038,2019-08-07 16:16:04:819
5.0348,-8.4908,1.3516,-0.7233,-0.1198,0.0258,-0.0336,-0.0678,0.0418,3042,2019-08-07 16:16:04:823
5.2214,-8.6245,1.0169,-0.7233,-0.1198,0.0258,-0.0368,-0.006,0.0599,3048,2019-08-07 16:16:04:829
5.2214,-8.6245,1.0169,-0.7233,-0.1198,0.0258,-0.0368,-0.006,0.0599,3053,2019-08-07 16:16:04:834
5.0731,-8.6006,1.2337,-0.489,-0.1091,-0.0626,-0.0389,0.0483,0.061,3058,2019-08-07 16:16:04:839
5.0731,-8.6006,1.2337,-0.489,-0.1091,-0.0626,-0.0389,0.0483,0.061,3063,2019-08-07 16:16:04:844
5.0731,-8.6006,1.2337,-0.489,-0.1091,-0.0626,-0.024,0.1026,0.0727,3068,2019-08-07 16:16:04:849
4.6281,-8.6722,1.3327,-0.489,-0.1091,-0.0626,-0.024,0.1026,0.0727,3072,2019-08-07 16:16:04:853
4.6281,-8.6722,1.3327,-0.0474,-0.0196,-0.1666,-0.024,0.1026,0.0727,3077,2019-08-07 16:16:04:858
4.3602,-8.6436,1.4081,-0.0474,-0.0196,-0.1666,-0.0304,0.1112,0.0599,3083,2019-08-07 16:16:04:864
4.3602,-8.6436,1.4081,-0.0474,-0.0196,-0.1666,-0.0304,0.1112,0.0599,3087,2019-08-07 16:16:04:868
4.3602,-8.6436,1.4081,-0.0474,-0.0196,-0.1666,-0.0282,0.0941,0.0397,3093,2019-08-07 16:16:04:874
4.1689,-8.6818,1.5495,0.2761,-0.0103,-0.382,-0.0282,0.0941,0.0397,3098,2019-08-07 16:16:04:879
4.1689,-8.6818,1.5495,0.2761,-0.0103,-0.382,-0.0282,0.0941,0.0397,3103,2019-08-07 16:16:04:884
4.1641,-8.6102,1.5118,0.2761,-0.0103,-0.382,-0.024,0.0707,0.0067,3108,2019-08-07 16:16:04:889
4.1641,-8.6102,1.5118,0.2761,-0.0103,-0.382,-0.024,0.0707,0.0067,3112,2019-08-07 16:16:04:893
4.1641,-8.6102,1.5118,0.2761,-0.0103,-0.382,-0.0357,0.0046,-0.021,3118,2019-08-07 16:16:04:899
4.3507,-8.5004,1.5118,0.0878,-0.1733,-0.3614,-0.0357,0.0046,-0.021,3123,2019-08-07 16:16:04:904
4.3507,-8.5004,1.5118,0.0878,-0.1733,-0.3614,-0.0389,-0.0497,-0.0359,3127,2019-08-07 16:16:04:908
4.3507,-8.5004,1.5118,0.0878,-0.1733,-0.3614,-0.0389,-0.0497,-0.0359,3133,2019-08-07 16:16:04:914
4.6425,-8.4908,1.3657,0.0878,-0.1733,-0.3614,-0.0421,-0.0529,-0.0349,3138,2019-08-07 16:16:04:919
4.6425,-8.4908,1.3657,-0.2722,-0.237,-0.0973,-0.0421,-0.0529,-0.0349,3143,2019-08-07 16:16:04:924
4.8913,-8.4956,0.9745,-0.2722,-0.237,-0.0973,-0.0602,-0.0444,-0.0349,3147,2019-08-07 16:16:04:928
4.8913,-8.4956,0.9745,-0.2722,-0.237,-0.0973,-0.0602,-0.0444,-0.0349,3153,2019-08-07 16:16:04:934
4.8913,-8.4956,0.9745,-0.2722,-0.237,-0.0973,-0.0602,-0.0444,-0.0349,3158,2019-08-07 16:16:04:939
4.8674,-8.5386,1.2761,-0.4195,-0.1285,-0.1212,-0.057,-0.022,-0.0327,3164,2019-08-07 16:16:04:945
4.8674,-8.5386,1.2761,-0.4195,-0.1285,-0.1212,-0.057,-0.022,-0.0327,3167,2019-08-07 16:16:04:948
5.0157,-8.6865,0.9933,-0.4195,-0.1285,-0.1212,-0.0378,-0.0199,-0.0125,3173,2019-08-07 16:16:04:954
5.0157,-8.6865,0.9933,-0.4195,-0.1285,-0.1212,-0.0378,-0.0199,-0.0125,3178,2019-08-07 16:16:04:959
5.0157,-8.6865,0.9933,-0.5227,0.0551,0.0817,-0.0219,-0.0028,-0.0104,3183,2019-08-07 16:16:04:964
4.8626,-8.6961,1.0876,-0.5227,0.0551,0.0817,-0.0219,-0.0028,-0.0104,3188,2019-08-07 16:16:04:969
4.8626,-8.6961,1.0876,-0.5227,0.0551,0.0817,0.0101,0.0206,-0.0082,3193,2019-08-07 16:16:04:974
4.8626,-8.6961,1.0876,-0.5227,0.0551,0.0817,0.0101,0.0206,-0.0082,3198,2019-08-07 16:16:04:979
4.6568,-8.7009,1.1536,-0.1989,0.038,-0.0057,0.0442,0.0451,-0.0029,3203,2019-08-07 16:16:04:984
4.6568,-8.7009,1.1536,-0.1989,0.038,-0.0057,0.0442,0.0451,-0.0029,3208,2019-08-07 16:16:04:989
4.5468,-8.6245,1.2997,-0.1989,0.038,-0.0057,0.0527,0.043,-0.02,3214,2019-08-07 16:16:04:995
4.5468,-8.6245,1.2997,-0.1989,0.038,-0.0057,0.0527,0.043,-0.02,3217,2019-08-07 16:16:04:998
4.5468,-8.6245,1.2997,0.0423,-0.1884,-0.1339,0.0527,0.043,-0.02,3223,2019-08-07 16:16:05:004
4.4272,-8.5386,1.4176,0.0423,-0.1884,-0.1339,0.0495,0.0078,-0.0317,3228,2019-08-07 16:16:05:009
4.4272,-8.5386,1.4176,0.0423,-0.1884,-0.1339,0.0495,0.0078,-0.0317,3233,2019-08-07 16:16:05:014
4.4272,-8.5386,1.4176,0.0423,-0.1884,-0.1339,0.0453,-0.0145,-0.0498,3237,2019-08-07 16:16:05:018
4.5133,-8.3667,1.3846,-0.0458,-0.2881,-0.2133,0.0453,-0.0145,-0.0498,3243,2019-08-07 16:16:05:024
4.5133,-8.3667,1.3846,-0.0458,-0.2881,-0.2133,0.0293,-0.0508,-0.0626,3247,2019-08-07 16:16:05:028
4.5133,-8.3667,1.3846,-0.0458,-0.2881,-0.2133,0.0293,-0.0508,-0.0626,3253,2019-08-07 16:16:05:034
4.6664,-8.2521,1.3846,-0.0458,-0.2881,-0.2133,0.0069,-0.0753,-0.0679,3258,2019-08-07 16:16:05:039
4.6664,-8.2521,1.3846,-0.2607,-0.3854,-0.2272,0.0069,-0.0753,-0.0679,3263,2019-08-07 16:16:05:044
4.8817,-8.2903,1.2714,-0.2607,-0.3854,-0.2272,-0.0155,-0.1211,-0.0583,3268,2019-08-07 16:16:05:049
4.8817,-8.2903,1.2714,-0.2607,-0.3854,-0.2272,-0.0155,-0.1211,-0.0583,3274,2019-08-07 16:16:05:055
4.8817,-8.2903,1.2714,-0.2607,-0.3854,-0.2272,-0.0325,-0.1253,-0.037,3278,2019-08-07 16:16:05:059
5.1257,-8.4288,1.2101,-0.6272,-0.2117,-0.0517,-0.0325,-0.1253,-0.037,3283,2019-08-07 16:16:05:064
5.1257,-8.4288,1.2101,-0.6272,-0.2117,-0.0517,-0.0325,-0.1253,-0.037,3287,2019-08-07 16:16:05:068
5.1257,-8.4288,1.2101,-0.6272,-0.2117,-0.0517,-0.024,-0.0998,-0.0306,3292,2019-08-07 16:16:05:073
5.2453,-8.486,1.1064,-0.6272,-0.2117,-0.0517,-0.0144,-0.0497,-0.021,3298,2019-08-07 16:16:05:079
5.2453,-8.486,1.1064,-0.7726,-0.121,-0.0266,-0.0144,-0.0497,-0.021,3303,2019-08-07 16:16:05:084
5.3075,-8.5958,1.1347,-0.7726,-0.121,-0.0266,-0.0144,-0.0497,-0.021,3308,2019-08-07 16:16:05:089
5.3075,-8.5958,1.1347,-0.7726,-0.121,-0.0266,-0.0016,-0.0018,-0.0093,3314,2019-08-07 16:16:05:095
5.3075,-8.5958,1.1347,-0.7726,-0.121,-0.0266,-0.0016,-0.0018,-0.0093,3317,2019-08-07 16:16:05:098
5.1592,-8.6484,1.2384,-0.6043,-0.0463,-0.0922,-0.0016,0.0717,-0.004,3323,2019-08-07 16:16:05:104
5.1592,-8.6484,1.2384,-0.6043,-0.0463,-0.0922,-0.0016,0.0717,-0.004,3327,2019-08-07 16:16:05:108
4.8817,-8.5863,1.3846,-0.6043,-0.0463,-0.0922,-0.0048,0.1303,-0.0061,3333,2019-08-07 16:16:05:114
4.8817,-8.5863,1.3846,-0.6043,-0.0463,-0.0922,-0.0048,0.1303,-0.0061,3337,2019-08-07 16:16:05:118
4.8817,-8.5863,1.3846,-0.0825,-0.0685,-0.264,-0.0165,0.1431,-0.0114,3343,2019-08-07 16:16:05:124
4.4846,-8.5481,1.4505,-0.0825,-0.0685,-0.264,-0.0165,0.1431,-0.0114,3347,2019-08-07 16:16:05:128
4.4846,-8.5481,1.4505,-0.0825,-0.0685,-0.264,-0.0336,0.108,-0.0253,3353,2019-08-07 16:16:05:134
4.4846,-8.5481,1.4505,-0.0825,-0.0685,-0.264,-0.0336,0.108,-0.0253,3358,2019-08-07 16:16:05:139
4.3028,-8.5147,1.5495,0.1667,-0.0624,-0.3602,-0.0485,0.0377,-0.0349,3363,2019-08-07 16:16:05:144
4.3028,-8.5147,1.5495,0.1667,-0.0624,-0.3602,-0.0485,0.0377,-0.0349,3367,2019-08-07 16:16:05:148
4.3028,-8.5147,1.5495,0.1667,-0.0624,-0.3602,-0.0687,-0.0753,-0.0551,3373,2019-08-07 16:16:05:154
4.255,-8.5099,1.0782,0.1667,-0.0624,-0.3602,-0.0687,-0.0753,-0.0551,3377,2019-08-07 16:16:05:158
4.255,-8.5099,1.0782,0.4304,-0.1512,-0.0033,-0.1966,-0.4055,-0.0647,3383,2019-08-07 16:16:05:164
4.365,-8.572,1.6014,0.4304,-0.1512,-0.0033,-0.1966,-0.4055,-0.0647,3388,2019-08-07 16:16:05:169
4.365,-8.572,1.6014,0.4304,-0.1512,-0.0033,-0.0709,-0.2926,-0.0743,3393,2019-08-07 16:16:05:174
4.365,-8.572,1.6014,0.4304,-0.1512,-0.0033,-0.0709,-0.2926,-0.0743,3397,2019-08-07 16:16:05:178
5.2692,-8.7391,1.4977,-0.917,0.1554,-0.317,-0.0709,-0.2926,-0.0743,3403,2019-08-07 16:16:05:184
5.2692,-8.7391,1.4977,-0.917,0.1554,-0.317,0.1443,-0.0891,-0.0636,3408,2019-08-07 16:16:05:189
6.0347,-8.6388,0.5973,-0.917,0.1554,-0.317,0.1443,-0.0891,-0.0636,3413,2019-08-07 16:16:05:194
6.0347,-8.6388,0.5973,-0.917,0.1554,-0.317,0.1891,0.0867,-0.0583,3418,2019-08-07 16:16:05:199
6.0347,-8.6388,0.5973,-1.028,-0.3379,0.8905,0.1891,0.0867,-0.0583,3424,2019-08-07 16:16:05:205
5.4654,-8.1996,0.5738,-1.028,-0.3379,0.8905,0.0271,0.1037,-0.0434,3428,2019-08-07 16:16:05:209
5.4654,-8.1996,0.5738,-1.028,-0.3379,0.8905,0.0271,0.1037,-0.0434,3433,2019-08-07 16:16:05:214
5.1353,-8.3762,1.5825,-1.028,-0.3379,0.8905,0.0037,0.2646,-0.0136,3438,2019-08-07 16:16:05:219
5.1353,-8.3762,1.5825,-1.028,-0.3379,0.8905,0.0037,0.2646,-0.0136,3442,2019-08-07 16:16:05:223
5.1353,-8.3762,1.5825,-0.3913,-0.0889,-0.4365,0.0133,0.2102,-0.0072,3448,2019-08-07 16:16:05:229
4.6616,-8.634,1.5542,-0.3913,-0.0889,-0.4365,0.0133,0.2102,-0.0072,3453,2019-08-07 16:16:05:234