ACCELEROMETER X (m/s²),ACCELEROMETER Y (m/s²),ACCELEROMETER Z (m/s²),LINEAR ACCELERATION X (m/s²),LINEAR ACCELERATION Y (m/s²),LINEAR ACCELERATION Z (m/s²),GYROSCOPE X (rad/s),GYROSCOPE Y (rad/s),GYROSCOPE Z (rad/s),Time since start in ms ,YYYY-MO-DD HH-MI-SS_SSS
4.2628,-8.6639,1.5051,-0.0106,-0.0523,-0.0706,0.0219,-0.0243,-0.0061,3,2019-08-07 16:14:57:205
4.2628,-8.6639,1.5051,-0.0106,-0.0523,-0.0706,0.0187,-0.0403,-0.0082,8,2019-08-07 16:14:57:210
4.2628,-8.6639,1.5051,-0.0106,-0.0523,-0.0706,0.0187,-0.0403,-0.0082,12,2019-08-07 16:14:57:214
4.3346,-8.578,1.5381,-0.1274,-0.17,-0.1212,0.0187,-0.0477,-0.0061,18,2019-08-07 16:14:57:220
4.3346,-8.578,1.5381,-0.1274,-0.17,-0.1212,0.0187,-0.0477,-0.0061,22,2019-08-07 16:14:57:224
4.4112,-8.5589,1.4249,-0.1274,-0.17,-0.1212,0.0027,-0.036,-0.0061,28,2019-08-07 16:14:57:230
4.4112,-8.5589,1.4249,-0.1274,-0.17,-0.1212,0.0027,-0.036,-0.0061,33,2019-08-07 16:14:57:235
4.4112,-8.5589,1.4249,-0.2479,-0.1827,0.0185,0.0027,-0.036,-0.0061,37,2019-08-07 16:14:57:239
4.4112,-8.5589,1.4249,-0.2479,-0.1827,0.0185,-0.0111,-0.0094,-0.0018,43,2019-08-07 16:14:57:245
4.4447,-8.6019,1.3401,-0.2479,-0.1827,0.0185,-0.0111,-0.0094,-0.0018,47,2019-08-07 16:14:57:249
4.4447,-8.6019,1.3401,-0.2479,-0.1827,0.0185,-0.0239,0.0194,-7.0E-4,53,2019-08-07 16:14:57:255
4.3873,-8.7164,1.3401,-0.1741,-0.0295,0.0719,-0.0239,0.0194,-7.0E-4,57,2019-08-07 16:14:57:259
4.3873,-8.7164,1.3401,-0.1741,-0.0295,0.0719,-0.01,0.0524,-0.005,63,2019-08-07 16:14:57:265
4.2773,-8.769,1.4014,-0.1741,-0.0295,0.0719,-0.01,0.0524,-0.005,68,2019-08-07 16:14:57:270
4.2773,-8.769,1.4014,-0.1741,-0.0295,0.0719,-0.01,0.0524,-0.005,72,2019-08-07 16:14:57:274
4.2773,-8.769,1.4014,0.0171,-5.0E-4,-0.0577,0.007,0.0481,-0.0071,78,2019-08-07 16:14:57:280
4.1577,-8.7451,1.4344,0.0171,-5.0E-4,-0.0577,0.007,0.0481,-0.0071,83,2019-08-07 16:14:57:285
4.1577,-8.7451,1.4344,0.0171,-5.0E-4,-0.0577,0.0123,0.0045,-0.005,88,2019-08-07 16:14:57:290
4.1864,-8.6878,1.4532,0.0171,-5.0E-4,-0.0577,0.0123,0.0045,-0.005,93,2019-08-07 16:14:57:295
4.1864,-8.6878,1.4532,-0.0014,-0.076,-0.0445,0.0091,-0.0339,-0.0093,98,2019-08-07 16:14:57:300
4.1864,-8.6878,1.4532,-0.0014,-0.076,-0.0445,0.0091,-0.0339,-0.0093,102,2019-08-07 16:14:57:304
4.2295,-8.6448,1.4155,-0.0014,-0.076,-0.0445,0.0091,-0.0339,-0.0093,108,2019-08-07 16:14:57:310
4.2295,-8.6448,1.4155,-0.0014,-0.076,-0.0445,0.0049,-0.0616,-0.0103,113,2019-08-07 16:14:57:315
4.2295,-8.6448,1.4155,-0.1696,-0.065,0.023,0.0049,-0.0616,-0.0103,117,2019-08-07 16:14:57:319
4.4018,-8.6783,1.4155,-0.1696,-0.065,0.023,-0.0036,-0.0733,-0.0135,123,2019-08-07 16:14:57:325
4.4018,-8.6783,1.4155,-0.1696,-0.065,0.023,-0.0036,-0.0733,-0.0135,128,2019-08-07 16:14:57:330
4.464,-8.6783,1.4485,-0.1696,-0.065,0.023,-0.0079,-0.0797,-0.0135,133,2019-08-07 16:14:57:335
4.464,-8.6783,1.4485,-0.2779,-0.0535,-0.0597,-4.0E-4,-0.0648,-0.0093,138,2019-08-07 16:14:57:340
4.464,-8.6783,1.4485,-0.2779,-0.0535,-0.0597,-4.0E-4,-0.0648,-0.0093,143,2019-08-07 16:14:57:345
4.5549,-8.7499,1.3637,-0.2779,-0.0535,-0.0597,-4.0E-4,-0.0648,-0.0093,148,2019-08-07 16:14:57:350
4.5549,-8.7499,1.3637,-0.2779,-0.0535,-0.0597,0.007,-0.036,-0.005,152,2019-08-07 16:14:57:354
4.5549,-8.7451,1.392,-0.3261,0.0054,0.0119,0.007,-0.036,-0.005,158,2019-08-07 16:14:57:360
4.5549,-8.7451,1.392,-0.3261,0.0054,0.0119,0.0113,0.0013,-7.0E-4,163,2019-08-07 16:14:57:365
4.5549,-8.7451,1.392,-0.3261,0.0054,0.0119,0.0113,0.0013,-7.0E-4,168,2019-08-07 16:14:57:370
4.5167,-8.7403,1.4485,-0.3261,0.0054,0.0119,0.0262,0.0311,0.0014,172,2019-08-07 16:14:57:374
4.5167,-8.7403,1.4485,-0.1434,-0.0744,-0.0817,0.0262,0.0311,0.0014,178,2019-08-07 16:14:57:380
4.3301,-8.6639,1.5051,-0.1434,-0.0744,-0.0817,0.0304,0.0535,0.0078,183,2019-08-07 16:14:57:385
4.3301,-8.6639,1.5051,-0.1434,-0.0744,-0.0817,0.0304,0.0535,0.0078,189,2019-08-07 16:14:57:391
4.3301,-8.6639,1.5051,-0.1434,-0.0744,-0.0817,0.0198,0.0524,0.0099,193,2019-08-07 16:14:57:395
4.1962,-8.6067,1.5758,0.0406,-0.1219,-0.0959,0.0198,0.0524,0.0099,197,2019-08-07 16:14:57:399
4.1962,-8.6067,1.5758,0.0406,-0.1219,-0.0959,0.0038,0.0215,0.0142,203,2019-08-07 16:14:57:405
4.1962,-8.6067,1.5758,0.0406,-0.1219,-0.0959,0.0038,0.0215,0.0142,207,2019-08-07 16:14:57:409
4.2058,-8.6353,1.5711,0.0406,-0.1219,-0.0959,-0.0058,-0.003,0.0046,213,2019-08-07 16:14:57:415
4.2058,-8.6353,1.5711,-0.023,-0.1222,-0.1791,-0.0058,-0.003,0.0046,218,2019-08-07 16:14:57:420
4.2536,-8.6401,1.59,-0.023,-0.1222,-0.1791,-0.01,-0.0275,-0.0061,223,2019-08-07 16:14:57:425
4.2536,-8.6401,1.59,-0.023,-0.1222,-0.1791,-0.01,-0.0275,-0.0061,228,2019-08-07 16:14:57:430
4.335,-8.5685,1.425,-0.023,-0.1222,-0.1791,-0.0239,-0.0499,-0.0103,233,2019-08-07 16:14:57:435
4.335,-8.5685,1.425,-0.2585,-0.1453,0.0411,-0.0239,-0.0499,-0.0103,239,2019-08-07 16:14:57:441
4.335,-8.5685,1.425,-0.2585,-0.1453,0.0411,-0.0335,-0.0552,-0.0199,243,2019-08-07 16:14:57:445
4.5886,-8.6353,1.4062,-0.2585,-0.1453,0.0411,-0.0335,-0.0552,-0.0199,248,2019-08-07 16:14:57:450
4.5886,-8.6353,1.4062,-0.2585,-0.1453,0.0411,-0.0271,-0.0307,-0.0284,253,2019-08-07 16:14:57:455
4.5886,-8.6353,1.4062,-0.2585,-0.1453,0.0411,-0.0271,-0.0307,-0.0284,258,2019-08-07 16:14:57:460
4.6077,-8.6401,1.2412,-0.3703,-0.0952,0.164,-0.0271,-0.0041,-0.0199,263,2019-08-07 16:14:57:465
4.6077,-8.6401,1.2412,-0.3703,-0.0952,0.164,-0.0271,-0.0041,-0.0199,267,2019-08-07 16:14:57:469
4.5743,-8.7069,1.3449,-0.3703,-0.0952,0.164,-0.0111,0.0151,-0.0093,273,2019-08-07 16:14:57:475
4.5743,-8.7069,1.3449,-0.3703,-0.0952,0.164,-0.0111,0.0151,-0.0093,278,2019-08-07 16:14:57:480
4.5743,-8.7069,1.3449,-0.3132,0.0163,0.0052,-0.0111,0.0151,-0.0093,283,2019-08-07 16:14:57:485
4.4786,-8.7499,1.4156,-0.3132,0.0163,0.0052,0.0166,0.0194,-7.0E-4,287,2019-08-07 16:14:57:489
4.4786,-8.7499,1.4156,-0.3132,0.0163,0.0052,0.0209,0.0055,0.0099,293,2019-08-07 16:14:57:495
4.4374,-8.6828,1.382,-0.3132,0.0163,0.0052,0.0209,0.0055,0.0099,298,2019-08-07 16:14:57:500
4.4374,-8.6828,1.382,-0.142,-0.0355,0.0899,0.0209,0.0055,0.0099,303,2019-08-07 16:14:57:505
4.4374,-8.6828,1.382,-0.142,-0.0355,0.0899,0.0198,0.0034,0.0152,308,2019-08-07 16:14:57:510
4.4231,-8.6685,1.4244,-0.142,-0.0355,0.0899,0.0198,0.0034,0.0152,312,2019-08-07 16:14:57:514
4.4231,-8.6685,1.4244,-0.142,-0.0355,0.0899,0.0219,2.0E-4,0.0163,318,2019-08-07 16:14:57:520
4.3178,-8.6971,1.5234,-0.1292,-0.1073,-0.0193,0.0219,2.0E-4,0.0163,322,2019-08-07 16:14:57:524
4.3178,-8.6971,1.5234,-0.1292,-0.1073,-0.0193,0.0219,0.0077,0.0152,328,2019-08-07 16:14:57:530
4.3178,-8.6971,1.5234,-0.1292,-0.1073,-0.0193,0.0219,0.0077,0.0152,332,2019-08-07 16:14:57:534
4.2651,-8.5491,1.5281,-0.1292,-0.1073,-0.0193,0.0166,0.0034,0.0142,338,2019-08-07 16:14:57:540
4.2651,-8.5491,1.5281,0.0553,-0.1743,-0.1179,0.0166,0.0034,0.0142,343,2019-08-07 16:14:57:545
4.246,-8.6064,1.5045,0.0553,-0.1743,-0.1179,-0.0026,0.0055,0.0088,348,2019-08-07 16:14:57:550
4.246,-8.6064,1.5045,0.0553,-0.1743,-0.1179,-0.0026,0.0055,0.0088,352,2019-08-07 16:14:57:554
4.246,-8.6064,1.5045,0.0553,-0.1743,-0.1179,-0.0164,-0.0019,-0.005,358,2019-08-07 16:14:57:560
4.2747,-8.6207,1.514,-0.0458,-0.122,-0.1032,-0.0164,-0.0019,-0.005,363,2019-08-07 16:14:57:565
4.2747,-8.6207,1.514,-0.0458,-0.122,-0.1032,-0.0249,-0.0136,-0.0167,368,2019-08-07 16:14:57:570
4.2747,-8.6828,1.4951,-0.0458,-0.122,-0.1032,-0.0249,-0.0136,-0.0167,372,2019-08-07 16:14:57:574
4.2747,-8.6828,1.4951,-0.0458,-0.122,-0.1032,-0.0249,-0.0136,-0.0167,378,2019-08-07 16:14:57:580
4.2747,-8.6828,1.4951,-0.1478,-0.0449,-0.0235,-0.0313,-0.0211,-0.0157,382,2019-08-07 16:14:57:584
4.3656,-8.7162,1.4055,-0.1478,-0.0449,-0.0235,-0.0313,-0.0211,-0.0157,388,2019-08-07 16:14:57:590
4.3656,-8.7162,1.4055,-0.1478,-0.0449,-0.0235,-0.0313,-0.0211,-0.0157,392,2019-08-07 16:14:57:594
4.5043,-8.7687,1.3631,-0.1478,-0.0449,-0.0235,-0.0281,-0.0136,-0.0135,399,2019-08-07 16:14:57:601
4.5043,-8.7687,1.3631,-0.2205,0.0609,0.0455,-0.0281,-0.0136,-0.0135,403,2019-08-07 16:14:57:605
4.5043,-8.7687,1.3631,-0.2205,0.0609,0.0455,-0.0047,0.0045,-0.0061,408,2019-08-07 16:14:57:610
4.4995,-8.7353,1.316,-0.2205,0.0609,0.0455,-0.0047,0.0045,-0.0061,413,2019-08-07 16:14:57:615
4.4995,-8.7353,1.316,-0.2205,0.0609,0.0455,0.0049,0.0194,0.0024,418,2019-08-07 16:14:57:620
4.3942,-8.74,1.3914,-0.1664,0.0044,0.0501,0.0049,0.0194,0.0024,422,2019-08-07 16:14:57:624
4.3942,-8.74,1.3914,-0.1664,0.0044,0.0501,0.0123,0.0215,0.0078,427,2019-08-07 16:14:57:629
4.3942,-8.74,1.3914,-0.1664,0.0044,0.0501,0.0123,0.0215,0.0078,433,2019-08-07 16:14:57:635
4.3368,-8.7019,1.3961,-0.1664,0.0044,0.0501,0.0123,0.0172,0.0099,438,2019-08-07 16:14:57:640
4.3368,-8.7019,1.3961,-0.0099,-0.0387,0.03,0.0123,0.0172,0.0099,443,2019-08-07 16:14:57:645
4.2555,-8.678,1.5281,-0.0099,-0.0387,0.03,0.0123,0.0077,0.011,448,2019-08-07 16:14:57:650
4.2555,-8.678,1.5281,-0.0099,-0.0387,0.03,0.0123,0.0077,0.011,453,2019-08-07 16:14:57:655
4.2555,-8.678,1.5281,-0.0099,-0.0387,0.03,0.0155,-0.003,0.0078,458,2019-08-07 16:14:57:660
4.3081,-8.7162,1.4432,-0.064,-0.0151,-0.0327,0.0155,-0.003,0.0078,463,2019-08-07 16:14:57:665
4.3081,-8.7162,1.4432,-0.064,-0.0151,-0.0327,0.0166,-0.0073,-7.0E-4,468,2019-08-07 16:14:57:670
4.3081,-8.7162,1.4432,-0.064,-0.0151,-0.0327,0.0166,-0.0073,-7.0E-4,472,2019-08-07 16:14:57:674
4.2602,-8.7019,1.5281,-0.064,-0.0151,-0.0327,0.0102,-0.0073,-0.0103,478,2019-08-07 16:14:57:680
4.2602,-8.7019,1.5281,-0.0057,0.0335,-0.0539,0.0102,-0.0073,-0.0103,484,2019-08-07 16:14:57:686
4.2985,-8.7209,1.4856,-0.0057,0.0335,-0.0539,0.0091,-9.0E-4,-0.0157,488,2019-08-07 16:14:57:690
4.2985,-8.7209,1.4856,-0.0057,0.0335,-0.0539,0.0091,-9.0E-4,-0.0157,493,2019-08-07 16:14:57:695
4.2985,-8.7209,1.4856,-0.0057,0.0335,-0.0539,0.0091,0.0066,-0.0146,498,2019-08-07 16:14:57:700
4.3224,-8.7162,1.5328,-0.0747,-0.0125,-0.1175,0.0091,0.0066,-0.0146,503,2019-08-07 16:14:57:705
4.3224,-8.7162,1.5328,-0.0747,-0.0125,-0.1175,0.0091,0.0066,-0.0146,508,2019-08-07 16:14:57:710
4.3224,-8.7162,1.5328,-0.0747,-0.0125,-0.1175,0.0145,0.0204,-0.0157,513,2019-08-07 16:14:57:715
4.3128,-8.7018,1.4479,-0.0747,-0.0125,-0.1175,0.0145,0.0204,-0.0157,518,2019-08-07 16:14:57:720
4.3128,-8.7018,1.4479,-0.0581,0.0323,5.0E-4,0.0145,0.0279,-0.0135,522,2019-08-07 16:14:57:724
4.3463,-8.7448,1.3489,-0.0581,0.0323,5.0E-4,0.0145,0.0279,-0.0135,528,2019-08-07 16:14:57:730
4.3463,-8.7448,1.3489,-0.0581,0.0323,5.0E-4,0.0123,0.0375,-0.0135,533,2019-08-07 16:14:57:735
4.3463,-8.7448,1.3489,-0.0581,0.0323,5.0E-4,0.0123,0.0375,-0.0135,537,2019-08-07 16:14:57:739
4.1692,-8.8116,1.3961,0.0578,0.1244,0.0342,0.0102,0.0609,-0.0125,543,2019-08-07 16:14:57:745
4.1692,-8.8116,1.3961,0.0578,0.1244,0.0342,0.0102,0.0609,-0.0125,548,2019-08-07 16:14:57:750
4.1166,-8.826,1.3819,0.0578,0.1244,0.0342,0.0102,0.0726,-0.0103,552,2019-08-07 16:14:57:754
4.1166,-8.826,1.3819,0.0578,0.1244,0.0342,0.0102,0.0726,-0.0103,558,2019-08-07 16:14:57:760
3.9683,-8.9071,1.3819,0.2814,0.1822,0.051,0.0123,0.0535,-0.0135,563,2019-08-07 16:14:57:765
3.9683,-8.9071,1.3819,0.2814,0.1822,0.051,0.0123,0.0535,-0.0135,568,2019-08-07 16:14:57:770
3.9683,-8.9071,1.3819,0.2814,0.1822,0.051,0.0273,0.0343,-0.0178,572,2019-08-07 16:14:57:774
3.9061,-9.0265,1.4055,0.2814,0.1822,0.051,0.0273,0.0343,-0.0178,577,2019-08-07 16:14:57:779
3.9061,-9.0265,1.4055,0.3575,0.2501,0.1387,0.0422,0.0098,-0.0231,583,2019-08-07 16:14:57:785
3.8534,-9.0121,1.3536,0.3575,0.2501,0.1387,0.0422,0.0098,-0.0231,587,2019-08-07 16:14:57:789
3.8534,-9.0121,1.3536,0.3575,0.2501,0.1387,0.0613,-0.0158,-0.0348,593,2019-08-07 16:14:57:795
3.8534,-9.0121,1.3536,0.3575,0.2501,0.1387,0.0613,-0.0158,-0.0348,598,2019-08-07 16:14:57:800
3.8295,-9.0408,1.3913,0.4329,0.368,0.0678,0.089,-0.0318,-0.0572,603,2019-08-07 16:14:57:805
3.8295,-9.0408,1.3913,0.4329,0.368,0.0678,0.089,-0.0318,-0.0572,609,2019-08-07 16:14:57:811
3.7481,-9.2461,1.3489,0.5089,0.5287,0.1077,0.1029,-0.0254,-0.0817,613,2019-08-07 16:14:57:815
3.7481,-9.2461,1.3489,0.5089,0.5287,0.1077,0.1029,-0.0254,-0.0817,618,2019-08-07 16:14:57:820
3.7481,-9.2461,1.3489,0.5089,0.5287,0.1077,0.1029,-0.0254,-0.0817,623,2019-08-07 16:14:57:825
3.4946,-9.3511,1.4196,0.5089,0.5287,0.1077,0.0986,-0.0105,-0.1051,627,2019-08-07 16:14:57:829
3.4946,-9.3511,1.4196,1.0084,0.7518,0.0717,0.0986,-0.0105,-0.1051,633,2019-08-07 16:14:57:835
3.4946,-9.3511,1.4196,1.0084,0.7518,0.0717,0.0976,0.0023,-0.1233,638,2019-08-07 16:14:57:840
3.0066,-9.6805,1.5799,1.0084,0.7518,0.0717,0.0976,0.0023,-0.1233,643,2019-08-07 16:14:57:845
3.0066,-9.6805,1.5799,1.0084,0.7518,0.0717,0.121,-0.0211,-0.1275,648,2019-08-07 16:14:57:850
2.7673,-10.0719,1.561,1.0084,0.7518,0.0717,0.121,-0.0211,-0.1275,653,2019-08-07 16:14:57:855
2.7673,-10.0719,1.561,1.5124,1.3716,-0.0696,0.121,-0.0211,-0.1275,658,2019-08-07 16:14:57:860
2.7673,-10.0719,1.561,1.5124,1.3716,-0.0696,0.1764,-0.0382,-0.1296,663,2019-08-07 16:14:57:865
2.3989,-10.6591,1.5516,1.5124,1.3716,-0.0696,0.1764,-0.0382,-0.1296,667,2019-08-07 16:14:57:869
2.3989,-10.6591,1.5516,1.5124,1.3716,-0.0696,0.2637,-0.0499,-0.1318,673,2019-08-07 16:14:57:875
2.3989,-10.6591,1.5516,2.2142,2.3406,-0.1886,0.2637,-0.0499,-0.1318,678,2019-08-07 16:14:57:880
1.8248,-11.4945,1.5987,2.2142,2.3406,-0.1886,0.2637,-0.0499,-0.1318,683,2019-08-07 16:14:57:885
1.8248,-11.4945,1.5987,2.2142,2.3406,-0.1886,0.3703,-0.0211,-0.103,688,2019-08-07 16:14:57:890
1.8248,-11.4945,1.5987,2.2142,2.3406,-0.1886,0.3703,-0.0211,-0.103,693,2019-08-07 16:14:57:895
1.0976,-13.1558,1.8627,3.187,4.4743,-0.2785,0.4832,0.0503,-0.0806,697,2019-08-07 16:14:57:899
1.0976,-13.1558,1.8627,3.187,4.4743,-0.2785,0.4832,0.0503,-0.0806,703,2019-08-07 16:14:57:905
0.1599,-14.6739,2.0183,3.187,4.4743,-0.2785,0.6472,0.1376,-0.0327,707,2019-08-07 16:14:57:909
0.1599,-14.6739,2.0183,3.187,4.4743,-0.2785,0.6472,0.1376,-0.0327,714,2019-08-07 16:14:57:916
0.1599,-14.6739,2.0183,4.6613,6.8181,-0.274,0.8518,0.372,0.0259,717,2019-08-07 16:14:57:919
-0.8161,-16.001,1.9475,4.6613,6.8181,-0.274,0.8518,0.372,0.0259,723,2019-08-07 16:14:57:925
-0.8161,-16.001,1.9475,4.6613,6.8181,-0.274,1.0978,0.7118,0.0706,727,2019-08-07 16:14:57:929
-2.0696,-16.7553,1.5139,4.6613,6.8181,-0.274,1.0978,0.7118,0.0706,733,2019-08-07 16:14:57:935
-2.0696,-16.7553,1.5139,6.3919,8.3325,0.5099,1.41,1.2274,0.1015,737,2019-08-07 16:14:57:939
-2.0696,-16.7553,1.5139,6.3919,8.3325,0.5099,1.41,1.2274,0.1015,743,2019-08-07 16:14:57:945
-3.1844,-17.3902,1.2263,6.3919,8.3325,0.5099,1.6113,1.5906,0.0546,748,2019-08-07 16:14:57:950
-3.1844,-17.3902,1.2263,6.3919,8.3325,0.5099,1.6113,1.5906,0.0546,753,2019-08-07 16:14:57:955
-3.1844,-17.3902,1.2263,7.7781,9.1018,1.9139,1.6113,1.5906,0.0546,757,2019-08-07 16:14:57:959
-3.7537,-17.7052,0.3118,7.7781,9.1018,1.9139,1.7636,1.9805,-0.0529,763,2019-08-07 16:14:57:965
-3.7537,-17.7052,0.3118,7.7781,9.1018,1.9139,1.7636,1.9805,-0.0529,768,2019-08-07 16:14:57:970
-3.548,-17.9344,-0.2067,7.7781,9.1018,1.9139,1.9096,2.4673,-0.2713,773,2019-08-07 16:14:57:975
-3.548,-17.9344,-0.2067,7.2765,9.6546,3.3824,1.9096,2.4673,-0.2713,778,2019-08-07 16:14:57:980
-2.6677,-18.8557,-1.4935,7.2765,9.6546,3.3824,2.0608,3.114,-0.4258,783,2019-08-07 16:14:57:985
-2.6677,-18.8557,-1.4935,7.2765,9.6546,3.3824,2.0608,3.114,-0.4258,788,2019-08-07 16:14:57:990
-2.6677,-18.8557,-1.4935,7.2765,9.6546,3.3824,2.0608,3.114,-0.4258,793,2019-08-07 16:14:57:995
-0.754,-21.1376,-4.4397,4.5158,12.7472,7.8582,2.1588,4.47,-0.5462,798,2019-08-07 16:14:58:000
-0.754,-21.1376,-4.4397,4.5158,12.7472,7.8582,2.1588,4.47,-0.5462,803,2019-08-07 16:14:58:005
-0.3187,-22.8323,-7.9892,4.5158,12.7472,7.8582,2.1546,6.2661,-0.674,808,2019-08-07 16:14:58:010
-0.3187,-22.8323,-7.9892,4.5158,12.7472,7.8582,2.1546,6.2661,-0.674,813,2019-08-07 16:14:58:015
-0.3187,-22.8323,-7.9892,4.6107,15.1844,14.8991,2.2153,7.9535,-0.7603,818,2019-08-07 16:14:58:020
-2.7539,-23.7203,-11.6801,4.6107,15.1844,14.8991,2.2153,7.9535,-0.7603,822,2019-08-07 16:14:58:024
-2.7539,-23.7203,-11.6801,4.6107,15.1844,14.8991,2.2792,9.4821,-0.7848,827,2019-08-07 16:14:58:029
-8.3754,-22.3549,-9.3091,4.6107,15.1844,14.8991,2.2792,9.4821,-0.7848,833,2019-08-07 16:14:58:035
-8.3754,-22.3549,-9.3091,11.5556,14.0436,13.3095,2.6808,10.7253,-0.5771,838,2019-08-07 16:14:58:040
-8.3754,-22.3549,-9.3091,11.5556,14.0436,13.3095,2.6808,10.7253,-0.5771,843,2019-08-07 16:14:58:045
-8.2653,-21.1472,-1.3804,11.5556,14.0436,13.3095,3.5682,11.1993,-0.4194,848,2019-08-07 16:14:58:050
-8.2653,-21.1472,-1.3804,11.5556,14.0436,13.3095,3.5682,11.1993,-0.4194,853,2019-08-07 16:14:58:055
-8.2653,-21.1472,-1.3804,6.4128,12.7307,4.7762,4.659,9.9934,-0.6676,857,2019-08-07 16:14:58:059
-4.304,-20.1065,1.2923,6.4128,12.7307,4.7762,4.659,9.9934,-0.6676,863,2019-08-07 16:14:58:065
-4.304,-20.1065,1.2923,6.4128,12.7307,4.7762,5.5613,8.1782,-1.2002,867,2019-08-07 16:14:58:069
-2.2468,-18.2447,0.8021,6.4128,12.7307,4.7762,5.5613,8.1782,-1.2002,873,2019-08-07 16:14:58:075
-2.2468,-18.2447,0.8021,2.8525,10.1973,8.3238,6.3379,7.3409,-1.7936,877,2019-08-07 16:14:58:079
-2.2468,-18.2447,0.8021,2.8525,10.1973,8.3238,6.3379,7.3409,-1.7936,883,2019-08-07 16:14:58:085
-2.931,-14.755,-8.7104,2.8525,10.1973,8.3238,6.3379,7.3409,-1.7936,887,2019-08-07 16:14:58:089
-2.931,-14.755,-8.7104,2.8525,10.1973,8.3238,6.7427,9.1125,-2.3869,893,2019-08-07 16:14:58:095
-4.2275,-7.9571,-3.4309,3.6595,2.004,11.2075,6.7427,9.1125,-2.3869,898,2019-08-07 16:14:58:100
-4.2275,-7.9571,-3.4309,3.6595,2.004,11.2075,7.0314,8.5905,-2.6852,903,2019-08-07 16:14:58:105
-4.2275,-7.9571,-3.4309,3.6595,2.004,11.2075,7.0314,8.5905,-2.6852,908,2019-08-07 16:14:58:110
-10.8393,0.7885,-0.1643,3.6595,2.004,11.2075,8.0125,8.0152,-2.5403,913,2019-08-07 16:14:58:115
-10.8393,0.7885,-0.1643,11.39,-10.6081,5.5594,8.0125,8.0152,-2.5403,918,2019-08-07 16:14:58:120
-16.0159,12.2791,11.0122,11.39,-10.6081,5.5594,10.0631,6.3406,-1.7616,923,2019-08-07 16:14:58:125
-16.0159,12.2791,11.0122,11.39,-10.6081,5.5594,10.0631,6.3406,-1.7616,928,2019-08-07 16:14:58:130
-16.0159,12.2791,11.0122,11.39,-10.6081,5.5594,10.0631,6.3406,-1.7616,932,2019-08-07 16:14:58:134
-26.8426,75.1217,8.33,17.951,-70.1978,26.7973,10.9611,-2.6108,-0.1328,938,2019-08-07 16:14:58:140
-26.8426,75.1217,8.33,17.951,-70.1978,26.7973,6.1664,-8.0404,-1.6018,944,2019-08-07 16:14:58:146
-16.8579,71.1117,-6.4101,17.951,-70.1978,26.7973,6.1664,-8.0404,-1.6018,948,2019-08-07 16:14:58:150
-16.8579,71.1117,-6.4101,17.951,-70.1978,26.7973,6.1664,-8.0404,-1.6018,953,2019-08-07 16:14:58:155
-16.8579,71.1117,-6.4101,17.951,-70.1978,26.7973,8.3725,-10.155,-2.9334,957,2019-08-07 16:14:58:159
-0.3906,44.4213,13.8357,-0.0335,-45.9378,-4.1529,8.3725,-10.155,-2.9334,963,2019-08-07 16:14:58:165
-0.3906,44.4213,13.8357,-0.0335,-45.9378,-4.1529,6.7246,-8.8447,-2.5595,968,2019-08-07 16:14:58:170
13.5076,39.6188,-6.6882,-0.0335,-45.9378,-4.1529,6.7246,-8.8447,-2.5595,972,2019-08-07 16:14:58:174
13.5076,39.6188,-6.6882,-17.1225,-41.2197,14.5624,4.675,-6.1826,-1.621,978,2019-08-07 16:14:58:180
13.5076,39.6188,-6.6882,-17.1225,-41.2197,14.5624,4.675,-6.1826,-1.621,983,2019-08-07 16:14:58:185
18.0,40.4829,-11.0532,-17.1225,-41.2197,14.5624,0.1519,-6.0505,1.024,988,2019-08-07 16:14:58:190
18.0,40.4829,-11.0532,-17.1225,-41.2197,14.5624,0.1519,-6.0505,1.024,993,2019-08-07 16:14:58:195
15.1534,36.3201,-22.0364,-12.1297,-35.6888,29.2108,-3.4977,-1.4944,3.048,998,2019-08-07 16:14:58:200
15.1534,36.3201,-22.0364,-12.1297,-35.6888,29.2108,-3.4977,-1.4944,3.048,1002,2019-08-07 16:14:58:204
15.1534,36.3201,-22.0364,-12.1297,-35.6888,29.2108,-3.4977,-1.4944,3.048,1008,2019-08-07 16:14:58:210
13.986,31.9521,3.6539,-12.1297,-35.6888,29.2108,-6.5113,1.2892,4.4031,1013,2019-08-07 16:14:58:215
13.986,31.9521,3.6539,-12.1297,-35.6888,29.2108,-6.5113,1.2892,4.4031,1018,2019-08-07 16:14:58:220
13.986,31.9521,3.6539,-10.0405,-25.5863,-3.9311,-8.5119,-1.2685,4.6459,1023,2019-08-07 16:14:58:225
9.173,22.2135,13.4633,-10.0405,-25.5863,-3.9311,-8.5119,-1.2685,4.6459,1028,2019-08-07 16:14:58:230
9.173,22.2135,13.4633,-10.0405,-25.5863,-3.9311,-6.8671,-0.9745,4.288,1033,2019-08-07 16:14:58:235
9.173,22.2135,13.4633,-10.0405,-25.5863,-3.9311,-6.8671,-0.9745,4.288,1038,2019-08-07 16:14:58:240
5.5657,14.4465,19.134,-3.1904,-17.2605,-10.0414,-3.8684,-2.0323,3.9524,1043,2019-08-07 16:14:58:245
5.5657,14.4465,19.134,-3.1904,-17.2605,-10.0414,-3.8684,-2.0323,3.9524,1048,2019-08-07 16:14:58:250
0.925,12.198,3.7387,-3.1904,-17.2605,-10.0414,-3.8322,-2.7269,3.7298,1052,2019-08-07 16:14:58:254
0.925,12.198,3.7387,-3.1904,-17.2605,-10.0414,-3.8322,-2.7269,3.7298,1058,2019-08-07 16:14:58:260
-0.4864,9.3146,-1.4748,2.9538,-13.8902,9.5612,-4.9315,-3.2734,3.8001,1063,2019-08-07 16:14:58:265
-0.4864,9.3146,-1.4748,2.9538,-13.8902,9.5612,-4.9315,-3.2734,3.8001,1068,2019-08-07 16:14:58:270
-0.4864,9.3146,-1.4748,2.9538,-13.8902,9.5612,-4.9315,-3.2734,3.8001,1073,2019-08-07 16:14:58:275
0.9584,3.3378,1.3347,2.9538,-13.8902,9.5612,-6.441,-4.1043,3.6648,1077,2019-08-07 16:14:58:279
0.9584,3.3378,1.3347,1.279,-5.8449,1.7581,-6.441,-4.1043,3.6648,1084,2019-08-07 16:14:58:286
1.6473,-0.6293,16.5838,1.279,-5.8449,1.7581,-6.506,-5.5733,3.0384,1087,2019-08-07 16:14:58:289
1.6473,-0.6293,16.5838,1.279,-5.8449,1.7581,-6.506,-5.5733,3.0384,1093,2019-08-07 16:14:58:295
1.6473,-0.6293,16.5838,1.279,-5.8449,1.7581,-5.1627,-6.401,2.4973,1098,2019-08-07 16:14:58:300
-0.5965,-4.3242,7.0808,4.0165,-1.5563,-0.0126,-5.1627,-6.401,2.4973,1103,2019-08-07 16:14:58:305
-0.5965,-4.3242,7.0808,4.0165,-1.5563,-0.0126,-5.1627,-6.401,2.4973,1108,2019-08-07 16:14:58:310
-2.1753,-7.6706,1.1555,4.0165,-1.5563,-0.0126,-4.9028,-7.2095,2.3013,1113,2019-08-07 16:14:58:315
-2.1753,-7.6706,1.1555,4.0165,-1.5563,-0.0126,-4.9028,-7.2095,2.3013,1118,2019-08-07 16:14:58:320
-2.1753,-7.6706,1.1555,5.377,4.3358,8.1487,-5.3662,-7.7922,2.3982,1123,2019-08-07 16:14:58:325
0.2934,-14.0532,-0.7677,5.377,4.3358,8.1487,-5.3662,-7.7922,2.3982,1127,2019-08-07 16:14:58:329
0.2934,-14.0532,-0.7677,5.377,4.3358,8.1487,-5.298,-7.3395,2.2832,1133,2019-08-07 16:14:58:335
1.3746,-25.4483,-3.6243,5.377,4.3358,8.1487,-5.298,-7.3395,2.2832,1138,2019-08-07 16:14:58:340
1.3746,-25.4483,-3.6243,5.377,4.3358,8.1487,-5.298,-7.3395,2.2832,1142,2019-08-07 16:14:58:344
1.3746,-25.4483,-3.6243,2.3436,20.6482,7.4277,-4.9539,-6.9901,2.3631,1148,2019-08-07 16:14:58:350
3.9628,-33.244,-1.1872,2.3436,20.6482,7.4277,-4.9539,-6.9901,2.3631,1153,2019-08-07 16:14:58:355
3.9628,-33.244,-1.1872,2.3436,20.6482,7.4277,-3.3006,-5.3804,2.3407,1157,2019-08-07 16:14:58:359
3.9628,-33.244,-1.1872,0.0223,14.93,0.0499,-3.3006,-5.3804,2.3407,1163,2019-08-07 16:14:58:365
4.1255,-20.5027,3.6161,0.0223,14.93,0.0499,-0.989,-3.5077,1.9902,1168,2019-08-07 16:14:58:370
4.1255,-20.5027,3.6161,0.0223,14.93,0.0499,-0.989,-3.5077,1.9902,1173,2019-08-07 16:14:58:375
-0.1516,-16.1346,3.1306,0.0223,14.93,0.0499,1.1085,-2.0259,1.8762,1178,2019-08-07 16:14:58:380
-0.1516,-16.1346,3.1306,5.5441,9.5788,-0.634,1.1085,-2.0259,1.8762,1183,2019-08-07 16:14:58:385
-0.1516,-16.1346,3.1306,5.5441,9.5788,-0.634,0.8283,-1.5956,2.1308,1188,2019-08-07 16:14:58:390
-1.0654,-17.4426,-6.1792,5.5441,9.5788,-0.634,0.8283,-1.5956,2.1308,1193,2019-08-07 16:14:58:395
-1.0654,-17.4426,-6.1792,5.5441,9.5788,-0.634,0.8283,-1.5956,2.1308,1198,2019-08-07 16:14:58:400
-1.0654,-17.4426,-6.1792,6.6177,8.6705,8.835,-0.9464,-1.031,2.1436,1203,2019-08-07 16:14:58:405
-2.5868,-17.2517,-5.524,6.6177,8.6705,8.835,-2.279,-0.1095,1.8624,1208,2019-08-07 16:14:58:410
-2.5868,-17.2517,-5.524,6.6177,8.6705,8.835,-2.279,-0.1095,1.8624,1213,2019-08-07 16:14:58:415
-6.663,-18.7602,6.2323,6.6177,8.6705,8.835,-2.279,-0.1095,1.8624,1218,2019-08-07 16:14:58:420
-6.663,-18.7602,6.2323,10.7354,11.3537,-0.9843,-1.805,-0.1319,1.7175,1223,2019-08-07 16:14:58:425
-6.663,-18.7602,6.2323,10.7354,11.3537,-0.9843,-1.805,-0.1319,1.7175,1227,2019-08-07 16:14:58:429
-7.3281,-21.8441,2.3811,10.8118,13.0869,-0.694,-0.9496,-0.1223,1.497,1233,2019-08-07 16:14:58:435
-7.3281,-21.8441,2.3811,10.8118,13.0869,-0.694,-0.9496,-0.1223,1.497,1238,2019-08-07 16:14:58:440
-6.7444,-21.3285,4.1771,10.8118,13.0869,-0.694,0.1668,0.1355,0.9356,1242,2019-08-07 16:14:58:444
-6.7444,-21.3285,4.1771,10.8118,13.0869,-0.694,0.1668,0.1355,0.9356,1248,2019-08-07 16:14:58:450
-6.7444,-21.3285,4.1771,10.8118,13.0869,-0.694,1.2907,-0.0445,0.2293,1253,2019-08-07 16:14:58:455
-7.9692,-15.6906,0.1986,11.1045,7.346,-0.5784,1.2907,-0.0445,0.2293,1258,2019-08-07 16:14:58:460
-7.9692,-15.6906,0.1986,11.1045,7.346,-0.5784,1.2907,-0.0445,0.2293,1263,2019-08-07 16:14:58:465
-6.7396,-10.005,0.7925,11.1045,7.346,-0.5784,1.1735,0.3943,0.0919,1268,2019-08-07 16:14:58:470
-6.7396,-10.005,0.7925,9.4591,-0.2371,-0.0544,1.1735,0.3943,0.0919,1273,2019-08-07 16:14:58:475
-6.7396,-10.005,0.7925,9.4591,-0.2371,-0.0544,0.5652,0.2804,-0.0881,1278,2019-08-07 16:14:58:480
-5.6297,-7.3699,4.3137,9.4591,-0.2371,-0.0544,0.5652,0.2804,-0.0881,1283,2019-08-07 16:14:58:485
-5.6297,-7.3699,4.3137,9.4591,-0.2371,-0.0544,0.317,-0.3055,-0.3619,1288,2019-08-07 16:14:58:490
-5.6297,-7.3699,4.3137,7.2534,-1.6874,-2.014,0.317,-0.3055,-0.3619,1293,2019-08-07 16:14:58:495
-3.5199,-7.2219,4.639,7.2534,-1.6874,-2.014,0.0816,-0.9074,-0.6378,1297,2019-08-07 16:14:58:499
-3.5199,-7.2219,4.639,7.2534,-1.6874,-2.014,0.0816,-0.9074,-0.6378,1303,2019-08-07 16:14:58:505
-3.5199,-7.2219,4.639,7.2534,-1.6874,-2.014,-0.2763,-1.5135,-0.8082,1307,2019-08-07 16:14:58:509
-0.2216,-8.1482,3.97,2.237,-0.3723,-1.4367,-0.2763,-1.5135,-0.8082,1313,2019-08-07 16:14:58:515
-0.2216,-8.1482,3.97,2.237,-0.3723,-1.4367,-0.5437,-1.8779,-0.9424,1318,2019-08-07 16:14:58:520
-0.2216,-8.1482,3.97,2.237,-0.3723,-1.4367,-0.5437,-1.8779,-0.9424,1323,2019-08-07 16:14:58:525
4.0651,-9.122,1.8677,-0.5326,0.3012,0.5716,-0.5437,-1.8779,-0.9424,1328,2019-08-07 16:14:58:530
4.0651,-9.122,1.8677,-0.5326,0.3012,0.5716,-0.8154,-1.9876,-1.2364,1334,2019-08-07 16:14:58:536
6.1701,-7.8761,1.7357,-0.5326,0.3012,0.5716,-0.8154,-1.9876,-1.2364,1338,2019-08-07 16:14:58:540
6.1701,-7.8761,1.7357,-3.0569,-1.3365,1.5351,-0.6566,-2.0622,-1.1779,1343,2019-08-07 16:14:58:545
6.1701,-7.8761,1.7357,-3.0569,-1.3365,1.5351,-0.6566,-2.0622,-1.1779,1348,2019-08-07 16:14:58:550
7.5432,-7.6278,-0.2865,-3.0569,-1.3365,1.5351,-0.3871,-1.6169,-0.8146,1353,2019-08-07 16:14:58:555
7.5432,-7.6278,-0.2865,-3.0569,-1.3365,1.5351,-0.3871,-1.6169,-0.8146,1358,2019-08-07 16:14:58:560
7.5432,-7.6278,-0.2865,-3.0569,-1.3365,1.5351,-0.3871,-1.6169,-0.8146,1363,2019-08-07 16:14:58:565
8.2561,-7.9381,-1.8044,-4.152,-0.7633,3.7218,-0.2827,-0.8936,-0.4119,1368,2019-08-07 16:14:58:570
8.2561,-7.9381,-1.8044,-4.152,-0.7633,3.7218,-0.2827,-0.8936,-0.4119,1373,2019-08-07 16:14:58:575
8.0408,-8.2437,-1.7808,-4.152,-0.7633,3.7218,-0.4191,-0.2288,-0.0732,1377,2019-08-07 16:14:58:579
8.0408,-8.2437,-1.7808,-3.7221,-0.1492,2.5766,-0.4191,-0.2288,-0.0732,1383,2019-08-07 16:14:58:585
8.0408,-8.2437,-1.7808,-3.7221,-0.1492,2.5766,-0.5405,0.4913,0.0536,1388,2019-08-07 16:14:58:590
7.6724,-8.7497,0.3498,-3.7221,-0.1492,2.5766,-0.5405,0.4913,0.0536,1393,2019-08-07 16:14:58:595
7.6724,-8.7497,0.3498,-2.946,0.1437,0.8117,-0.4425,0.7533,-0.0157,1398,2019-08-07 16:14:58:600
6.2707,-9.0504,1.5472,-2.946,0.1437,0.8117,-0.4425,0.7533,-0.0157,1403,2019-08-07 16:14:58:605
6.2707,-9.0504,1.5472,-2.946,0.1437,0.8117,-0.4425,0.7533,-0.0157,1408,2019-08-07 16:14:58:610
5.7683,-9.0886,1.5424,-2.946,0.1437,0.8117,-0.2625,0.9983,-0.0412,1413,2019-08-07 16:14:58:615
5.7683,-9.0886,1.5424,-1.5319,0.3774,0.2932,-0.2625,0.9983,-0.0412,1418,2019-08-07 16:14:58:620
5.7683,-9.0886,1.5424,-1.5319,0.3774,0.2932,-0.1624,1.3115,-0.022,1423,2019-08-07 16:14:58:625
4.8641,-8.468,1.3963,-1.5319,0.3774,0.2932,-0.1624,1.3115,-0.022,1428,2019-08-07 16:14:58:630
4.8641,-8.468,1.3963,-1.5319,0.3774,0.2932,-0.1634,1.5193,0.0088,1433,2019-08-07 16:14:58:635
4.8641,-8.468,1.3963,0.3612,-0.7525,-0.065,-0.1634,1.5193,0.0088,1438,2019-08-07 16:14:58:640
3.3188,-7.9381,2.3202,0.3612,-0.7525,-0.065,-0.1858,1.5129,0.0429,1443,2019-08-07 16:14:58:645
3.3188,-7.9381,2.3202,0.3612,-0.7525,-0.065,-0.1858,1.5129,0.0429,1448,2019-08-07 16:14:58:650
3.3188,-7.9381,2.3202,0.3612,-0.7525,-0.065,-0.2487,1.0878,0.0674,1453,2019-08-07 16:14:58:655
2.2519,-8.2819,3.4374,1.7793,-0.4461,-1.4859,-0.2487,1.0878,0.0674,1458,2019-08-07 16:14:58:660
2.2519,-8.2819,3.4374,1.7793,-0.4461,-1.4859,-0.2934,0.7416,0.0557,1463,2019-08-07 16:14:58:665
2.118,-8.6447,3.7579,1.8854,-0.0927,-1.7916,-0.2934,0.7416,0.0557,1468,2019-08-07 16:14:58:670
2.118,-8.6447,3.7579,1.8854,-0.0927,-1.7916,-0.2934,0.7416,0.0557,1473,2019-08-07 16:14:58:675
2.118,-8.6447,3.7579,1.8854,-0.0927,-1.7916,-0.3637,0.1216,0.0088,1478,2019-08-07 16:14:58:680
2.7974,-9.06,3.1122,1.8854,-0.0927,-1.7916,-0.3637,0.1216,0.0088,1483,2019-08-07 16:14:58:685
2.7974,-9.06,3.1122,0.8415,0.2861,-0.9618,-0.4148,-0.3151,-0.0402,1488,2019-08-07 16:14:58:690
3.5772,-9.1173,2.4805,0.8415,0.2861,-0.9618,-0.4148,-0.3151,-0.0402,1493,2019-08-07 16:14:58:695
3.5772,-9.1173,2.4805,0.8415,0.2861,-0.9618,-0.4159,-0.3971,-0.0476,1499,2019-08-07 16:14:58:701
3.5772,-9.1173,2.4805,0.8415,0.2861,-0.9618,-0.4159,-0.3971,-0.0476,1503,2019-08-07 16:14:58:705
5.1417,-9.3369,1.1795,-1.1314,0.5702,0.6367,-0.4159,-0.3971,-0.0476,1507,2019-08-07 16:14:58:709
5.1417,-9.3369,1.1795,-1.1314,0.5702,0.6367,-0.385,-0.1276,-0.0806,1513,2019-08-07 16:14:58:715
5.6679,-9.1984,1.0711,-1.1314,0.5702,0.6367,-0.385,-0.1276,-0.0806,1518,2019-08-07 16:14:58:720
5.6679,-9.1984,1.0711,-1.1314,0.5702,0.6367,-0.3008,0.3272,-0.1158,1522,2019-08-07 16:14:58:724
5.6679,-9.1984,1.0711,-1.5532,0.2106,0.6713,-0.3008,0.3272,-0.1158,1528,2019-08-07 16:14:58:730
5.3809,-8.7545,1.0239,-1.5532,0.2106,0.6713,-0.2284,0.6639,-0.1307,1533,2019-08-07 16:14:58:735
5.3809,-8.7545,1.0239,-1.5532,0.2106,0.6713,-0.2284,0.6639,-0.1307,1537,2019-08-07 16:14:58:739
5.3809,-8.7545,1.0239,-1.5532,0.2106,0.6713,-0.2146,0.8183,-0.1435,1543,2019-08-07 16:14:58:745
4.7446,-8.3296,1.3303,-0.5755,-0.4377,0.3074,-0.2146,0.8183,-0.1435,1548,2019-08-07 16:14:58:750
4.7446,-8.3296,1.3303,-0.5755,-0.4377,0.3074,-0.2146,0.8183,-0.1435,1553,2019-08-07 16:14:58:755
4.7446,-8.3296,1.3303,-0.5755,-0.4377,0.3074,-0.205,0.7256,-0.1243,1558,2019-08-07 16:14:58:760
4.0796,-8.2676,1.9384,-0.0402,-0.4926,-0.1554,-0.205,0.7256,-0.1243,1563,2019-08-07 16:14:58:765
4.0796,-8.2676,1.9384,-0.0402,-0.4926,-0.1554,-0.2039,0.5062,-0.0998,1569,2019-08-07 16:14:58:771
3.6203,-8.4776,1.9431,-0.0402,-0.4926,-0.1554,-0.2039,0.5062,-0.0998,1573,2019-08-07 16:14:58:775
3.6203,-8.4776,1.9431,0.4371,-0.1632,-0.1812,-0.2231,0.1983,-0.0615,1579,2019-08-07 16:14:58:781
3.6203,-8.4776,1.9431,0.4371,-0.1632,-0.1812,-0.2231,0.1983,-0.0615,1582,2019-08-07 16:14:58:784
3.8165,-8.8309,1.9479,0.4371,-0.1632,-0.1812,-0.2231,0.1983,-0.0615,1588,2019-08-07 16:14:58:790
3.8165,-8.8309,1.9479,0.4371,-0.1632,-0.1812,-0.2124,-0.2065,0.0227,1593,2019-08-07 16:14:58:795
4.4002,-9.0934,1.5849,-0.3591,0.3251,0.1537,-0.2124,-0.2065,0.0227,1599,2019-08-07 16:14:58:801
4.4002,-9.0934,1.5849,-0.3591,0.3251,0.1537,-0.1517,-0.2608,0.0515,1603,2019-08-07 16:14:58:805
4.4002,-9.0934,1.5849,-0.3591,0.3251,0.1537,-0.1517,-0.2608,0.0515,1608,2019-08-07 16:14:58:810
4.4002,-9.0934,1.5849,-0.3591,0.3251,0.1537,-0.1517,-0.2608,0.0515,1613,2019-08-07 16:14:58:815
4.8738,-8.9693,1.1088,-0.9696,0.107,0.5697,-0.1144,-0.133,0.0589,1618,2019-08-07 16:14:58:820
4.8738,-8.9693,1.1088,-0.9696,0.107,0.5697,-0.1144,-0.133,0.0589,1622,2019-08-07 16:14:58:824
5.0222,-8.7402,1.1701,-0.9696,0.107,0.5697,-0.0974,0.1259,0.0578,1628,2019-08-07 16:14:58:830
5.0222,-8.7402,1.1701,-0.9696,0.107,0.5697,-0.0974,0.1259,0.0578,1633,2019-08-07 16:14:58:835
5.0222,-8.7402,1.1701,-0.725,-0.166,0.2981,-0.0803,0.3805,0.0472,1638,2019-08-07 16:14:58:840
4.6729,-8.5397,1.4482,-0.725,-0.166,0.2981,-0.0803,0.3805,0.0472,1643,2019-08-07 16:14:58:845
4.6729,-8.5397,1.4482,-0.725,-0.166,0.2981,-0.0782,0.569,0.0248,1648,2019-08-07 16:14:58:850
4.6729,-8.5397,1.4482,-0.725,-0.166,0.2981,-0.0782,0.569,0.0248,1653,2019-08-07 16:14:58:855
3.8453,-8.2962,1.9149,-0.725,-0.166,0.2981,-0.0782,0.569,0.0248,1658,2019-08-07 16:14:58:860
3.8453,-8.2962,1.9149,0.2726,-0.5137,-0.219,-0.1006,0.5222,0.0291,1662,2019-08-07 16:14:58:864
3.4625,-8.3201,2.1364,0.2726,-0.5137,-0.219,-0.1006,0.5222,0.0291,1668,2019-08-07 16:14:58:870
3.4625,-8.3201,2.1364,0.2726,-0.5137,-0.219,-0.1389,0.323,0.0344,1673,2019-08-07 16:14:58:875
3.4625,-8.3201,2.1364,0.2726,-0.5137,-0.219,-0.1389,0.323,0.0344,1677,2019-08-07 16:14:58:879
3.4434,-8.5301,2.1553,0.5519,-0.3064,-0.4229,-0.1581,0.0982,0.0333,1683,2019-08-07 16:14:58:885
3.4434,-8.5301,2.1553,0.5519,-0.3064,-0.4229,-0.1581,0.0982,0.0333,1687,2019-08-07 16:14:58:889
3.4434,-8.5301,2.1553,0.5519,-0.3064,-0.4229,-0.1634,-0.1074,0.0312,1693,2019-08-07 16:14:58:895
3.7305,-8.7163,2.028,0.0999,-0.0142,-0.1439,-0.1634,-0.1074,0.0312,1698,2019-08-07 16:14:58:900
3.7305,-8.7163,2.028,0.0999,-0.0142,-0.1439,-0.1517,-0.2043,0.0323,1703,2019-08-07 16:14:58:905
3.7305,-8.7163,2.028,0.0999,-0.0142,-0.1439,-0.1517,-0.2043,0.0323,1708,2019-08-07 16:14:58:910
4.3285,-8.8834,1.5896,-0.3439,0.0776,0.0889,-0.1421,-0.2043,0.0344,1713,2019-08-07 16:14:58:915
4.3285,-8.8834,1.5896,-0.3439,0.0776,0.0889,-0.1421,-0.2043,0.0344,1718,2019-08-07 16:14:58:920
4.3285,-8.8834,1.5896,-0.3439,0.0776,0.0889,-0.1421,-0.2043,0.0344,1723,2019-08-07 16:14:58:925
4.7304,-8.9598,1.3964,-0.3439,0.0776,0.0889,-0.1144,-0.0499,0.0493,1728,2019-08-07 16:14:58:930
4.7304,-8.9598,1.3964,-0.755,0.1525,0.1914,-0.1144,-0.0499,0.0493,1733,2019-08-07 16:14:58:935
4.6539,-8.9073,1.4765,-0.755,0.1525,0.1914,-0.0899,0.1067,0.0547,1738,2019-08-07 16:14:58:940
4.6539,-8.9073,1.4765,-0.755,0.1525,0.1914,-0.0899,0.1067,0.0547,1743,2019-08-07 16:14:58:945
4.6539,-8.9073,1.4765,-0.755,0.1525,0.1914,-0.0654,0.2207,0.0632,1748,2019-08-07 16:14:58:950
4.3716,-8.8786,1.5708,-0.3982,0.0606,0.0696,-0.0654,0.2207,0.0632,1753,2019-08-07 16:14:58:955
4.3716,-8.8786,1.5708,-0.3982,0.0606,0.0696,-0.0494,0.2793,0.0642,1759,2019-08-07 16:14:58:961
4.3716,-8.8786,1.5708,-0.3982,0.0606,0.0696,-0.0494,0.2793,0.0642,1763,2019-08-07 16:14:58:965
3.9075,-8.7306,1.8678,-0.3982,0.0606,0.0696,-0.0494,0.2793,0.0642,1767,2019-08-07 16:14:58:969
3.9075,-8.7306,1.8678,0.1886,-0.0516,-0.2816,-0.0654,0.1408,0.0909,1773,2019-08-07 16:14:58:975
3.7784,-8.8786,1.9856,0.1886,-0.0516,-0.2816,-0.0654,0.1408,0.0909,1778,2019-08-07 16:14:58:980
3.7784,-8.8786,1.9856,0.1886,-0.0516,-0.2816,-0.0686,-0.0264,0.1026,1784,2019-08-07 16:14:58:986
3.7784,-8.8786,1.9856,0.1886,-0.0516,-0.2816,-0.0686,-0.0264,0.1026,1788,2019-08-07 16:14:58:990
3.8884,-8.9359,1.8489,0.0456,0.1007,-0.2061,-0.0505,-0.1777,0.0983,1793,2019-08-07 16:14:58:995
3.8884,-8.9359,1.8489,0.0456,0.1007,-0.2061,-0.0505,-0.1777,0.0983,1798,2019-08-07 16:14:59:000
3.8884,-8.9359,1.8489,0.0456,0.1007,-0.2061,-0.026,-0.2917,0.1196,1803,2019-08-07 16:14:59:005
4.3764,-9.0266,1.5425,0.0456,0.1007,-0.2061,-0.026,-0.2917,0.1196,1808,2019-08-07 16:14:59:010
4.3764,-9.0266,1.5425,-0.625,0.2535,0.0079,-0.026,-0.2917,0.1196,1813,2019-08-07 16:14:59:015
4.6635,-8.9216,1.5378,-0.625,0.2535,0.0079,0.007,-0.2576,0.1228,1817,2019-08-07 16:14:59:019
4.6635,-8.9216,1.5378,-0.625,0.2535,0.0079,0.007,-0.2576,0.1228,1823,2019-08-07 16:14:59:025
4.6635,-8.9216,1.5378,-0.625,0.2535,0.0079,0.0379,-0.1319,0.1303,1827,2019-08-07 16:14:59:029
4.6061,-8.659,1.4907,-0.6948,-0.193,0.1153,0.0379,-0.1319,0.1303,1833,2019-08-07 16:14:59:035
4.6061,-8.659,1.4907,-0.6948,-0.193,0.1153,0.0336,0.0396,0.1441,1837,2019-08-07 16:14:59:039
4.2999,-8.5301,1.5802,-0.6948,-0.193,0.1153,0.0336,0.0396,0.1441,1843,2019-08-07 16:14:59:045
4.2999,-8.5301,1.5802,-0.6948,-0.193,0.1153,0.0049,0.1334,0.1356,1848,2019-08-07 16:14:59:050
4.2999,-8.5301,1.5802,-0.1968,-0.4021,-0.0589,0.0049,0.1334,0.1356,1853,2019-08-07 16:14:59:055
4.0176,-8.5206,1.8065,-0.1968,-0.4021,-0.0589,-0.0228,0.1376,0.1186,1858,2019-08-07 16:14:59:060
4.0176,-8.5206,1.8065,-0.1968,-0.4021,-0.0589,-0.0228,0.1376,0.1186,1862,2019-08-07 16:14:59:064
3.7832,-8.5683,2.0987,-0.1968,-0.4021,-0.0589,-0.0271,0.0982,0.0941,1868,2019-08-07 16:14:59:070
3.7832,-8.5683,2.0987,0.1244,-0.3009,-0.4794,-0.0271,0.0982,0.0941,1873,2019-08-07 16:14:59:075
3.7832,-8.5683,2.0987,0.1244,-0.3009,-0.4794,-0.0271,0.0982,0.0941,1878,2019-08-07 16:14:59:080
3.721,-8.5683,2.0375,0.1244,-0.3009,-0.4794,-0.0271,0.014,0.0855,1883,2019-08-07 16:14:59:085
3.721,-8.5683,2.0375,0.1244,-0.3009,-0.4794,-0.0271,0.014,0.0855,1888,2019-08-07 16:14:59:090
3.721,-8.5683,2.0375,-0.2011,-0.2553,-0.0913,-0.0484,-0.1191,0.0653,1893,2019-08-07 16:14:59:095
4.0942,-8.6686,1.6981,-0.2011,-0.2553,-0.0913,-0.0484,-0.1191,0.0653,1899,2019-08-07 16:14:59:101
4.0942,-8.6686,1.6981,-0.2011,-0.2553,-0.0913,-0.0292,-0.1724,0.0472,1903,2019-08-07 16:14:59:105
4.2808,-8.7641,1.7452,-0.2011,-0.2553,-0.0913,-0.0292,-0.1724,0.0472,1908,2019-08-07 16:14:59:110
4.2808,-8.7641,1.7452,-0.4991,-0.0825,-0.0576,-0.0292,-0.1724,0.0472,1913,2019-08-07 16:14:59:115
4.2808,-8.7641,1.7452,-0.4991,-0.0825,-0.0576,-0.0015,-0.1873,0.0429,1918,2019-08-07 16:14:59:120
4.5057,-8.6829,1.5425,-0.4991,-0.0825,-0.0576,-0.0015,-0.1873,0.0429,1923,2019-08-07 16:14:59:125
4.5057,-8.6829,1.5425,-0.4991,-0.0825,-0.0576,0.0081,-0.1958,0.0408,1928,2019-08-07 16:14:59:130
4.5057,-8.6829,1.5425,-0.7965,-0.2648,-0.0108,0.0081,-0.1958,0.0408,1933,2019-08-07 16:14:59:135
4.6971,-8.5874,1.5661,-0.7965,-0.2648,-0.0108,0.0347,-0.1564,0.0419,1937,2019-08-07 16:14:59:139
4.6971,-8.5874,1.5661,-0.7965,-0.2648,-0.0108,0.0347,-0.1564,0.0419,1943,2019-08-07 16:14:59:145
4.7928,-8.5492,1.4671,-0.7965,-0.2648,-0.0108,0.0368,-0.0829,0.0419,1949,2019-08-07 16:14:59:151
4.7928,-8.5492,1.4671,-0.8693,-0.4167,0.1171,0.0368,-0.0829,0.0419,1952,2019-08-07 16:14:59:154
4.7928,-8.5492,1.4671,-0.8693,-0.4167,0.1171,0.0145,0.0258,0.0323,1958,2019-08-07 16:14:59:160
4.4483,-8.3678,1.5001,-0.4773,-0.5311,0.0715,0.0145,0.0258,0.0323,1963,2019-08-07 16:14:59:165
4.4483,-8.3678,1.5001,-0.4773,-0.5311,0.0715,-0.0207,0.046,0.0376,1968,2019-08-07 16:14:59:170
4.4483,-8.3678,1.5001,-0.4773,-0.5311,0.0715,-0.0207,0.046,0.0376,1973,2019-08-07 16:14:59:175
4.056,-8.4681,1.6745,-0.4773,-0.5311,0.0715,-0.0207,0.046,0.0376,1977,2019-08-07 16:14:59:179
4.056,-8.4681,1.6745,-0.0662,-0.1608,-0.3096,-0.0303,0.0353,0.0184,1983,2019-08-07 16:14:59:185
3.8647,-8.7545,1.8678,-0.0662,-0.1608,-0.3096,-0.0303,0.0353,0.0184,1988,2019-08-07 16:14:59:190
3.8647,-8.7545,1.8678,-0.0662,-0.1608,-0.3096,-0.0249,-0.0307,-0.0039,1993,2019-08-07 16:14:59:195
3.8647,-8.7545,1.8678,-0.0042,-0.0752,-0.2026,-0.0249,-0.0307,-0.0039,1998,2019-08-07 16:14:59:200
3.946,-8.8309,1.7311,-0.0042,-0.0752,-0.2026,-0.0047,-0.1106,-0.0242,2002,2019-08-07 16:14:59:204
3.946,-8.8309,1.7311,-0.0042,-0.0752,-0.2026,-0.0047,-0.1106,-0.0242,2008,2019-08-07 16:14:59:210
4.2713,-8.7306,1.7641,-0.4119,-0.1492,-0.1866,0.0241,-0.1266,-0.0348,2014,2019-08-07 16:14:59:216
4.2713,-8.7306,1.7641,-0.4119,-0.1492,-0.1866,0.0241,-0.1266,-0.0348,2018,2019-08-07 16:14:59:220
4.2713,-8.7306,1.7641,-0.4119,-0.1492,-0.1866,0.0241,-0.1266,-0.0348,2023,2019-08-07 16:14:59:225
4.3814,-8.5683,1.5001,-0.4119,-0.1492,-0.1866,0.0411,-0.1415,-0.0327,2028,2019-08-07 16:14:59:230
4.3814,-8.5683,1.5001,-0.6607,-0.2822,0.1627,0.0411,-0.1415,-0.0327,2033,2019-08-07 16:14:59:235
4.3814,-8.5683,1.5001,-0.6607,-0.2822,0.1627,0.0209,-0.1117,-0.0103,2038,2019-08-07 16:14:59:240
4.6397,-8.6304,1.5284,-0.6607,-0.2822,0.1627,0.0209,-0.1117,-0.0103,2043,2019-08-07 16:14:59:245
4.6397,-8.6304,1.5284,-0.6607,-0.2822,0.1627,0.0017,-0.101,0.012,2049,2019-08-07 16:14:59:251
4.6397,-8.6304,1.5284,-0.6607,-0.2822,0.1627,0.0017,-0.101,0.012,2053,2019-08-07 16:14:59:255
4.7259,-8.7975,1.5473,-0.8434,-0.0743,0.0191,0.0102,-0.0509,0.0238,2059,2019-08-07 16:14:59:261
4.7259,-8.7975,1.5473,-0.8434,-0.0743,0.0191,0.0102,-0.0509,0.0238,2063,2019-08-07 16:14:59:265
4.5584,-8.8739,1.519,-0.8434,-0.0743,0.0191,0.0102,-0.0509,0.0238,2068,2019-08-07 16:14:59:270
4.5584,-8.8739,1.519,-0.8434,-0.0743,0.0191,0.023,0.0013,0.0312,2073,2019-08-07 16:14:59:275
4.5584,-8.8739,1.519,-0.5605,-0.0119,9.0E-4,0.023,0.0013,0.0312,2079,2019-08-07 16:14:59:281
4.3719,-8.8786,1.6133,-0.5605,-0.0119,9.0E-4,0.023,0.0077,0.0387,2083,2019-08-07 16:14:59:285
4.3719,-8.8786,1.6133,-0.5605,-0.0119,9.0E-4,0.023,0.0077,0.0387,2088,2019-08-07 16:14:59:290
4.2762,-8.8595,1.6698,-0.5605,-0.0119,9.0E-4,0.0283,0.0098,0.028,2093,2019-08-07 16:14:59:295
4.2762,-8.8595,1.6698,-0.2723,-0.0935,-0.1957,0.0283,0.0098,0.028,2098,2019-08-07 16:14:59:300
4.2762,-8.8595,1.6698,-0.2723,-0.0935,-0.1957,0.0294,-0.019,0.011,2102,2019-08-07 16:14:59:304
4.0418,-8.6877,1.75,-0.2723,-0.0935,-0.1957,0.0294,-0.019,0.011,2108,2019-08-07 16:14:59:310
4.0418,-8.6877,1.75,-0.2723,-0.0935,-0.1957,0.0177,-0.0722,-0.005,2113,2019-08-07 16:14:59:315
4.1327,-8.6065,1.8254,-0.2087,-0.2545,-0.2954,0.0177,-0.0722,-0.005,2118,2019-08-07 16:14:59:320
4.1327,-8.6065,1.8254,-0.2087,-0.2545,-0.2954,0.0177,-0.0722,-0.005,2123,2019-08-07 16:14:59:325
4.1327,-8.6065,1.8254,-0.2087,-0.2545,-0.2954,-0.0047,-0.1351,-0.0146,2128,2019-08-07 16:14:59:330
4.4676,-8.6018,1.7547,-0.6773,-0.2947,-0.0635,-0.0047,-0.1351,-0.0146,2133,2019-08-07 16:14:59:335
4.4676,-8.6018,1.7547,-0.6773,-0.2947,-0.0635,-0.0196,-0.1362,-0.0125,2138,2019-08-07 16:14:59:340
4.6111,-8.5731,1.5284,-0.6773,-0.2947,-0.0635,-0.0196,-0.1362,-0.0125,2142,2019-08-07 16:14:59:344
4.6111,-8.5731,1.5284,-0.6773,-0.2947,-0.0635,-0.0324,-0.1031,0.0035,2148,2019-08-07 16:14:59:350
4.6111,-8.5731,1.5284,-0.6773,-0.2947,-0.0635,-0.0324,-0.1031,0.0035,2153,2019-08-07 16:14:59:355
4.8647,-8.6638,1.4813,-0.9635,-0.2019,0.073,-0.0377,-0.0499,0.027,2157,2019-08-07 16:14:59:359
4.8647,-8.6638,1.4813,-0.9635,-0.2019,0.073,-0.0377,-0.0499,0.027,2164,2019-08-07 16:14:59:366
4.7977,-8.7116,1.5143,-0.9635,-0.2019,0.073,-0.0239,0.014,0.0387,2168,2019-08-07 16:14:59:370
4.7977,-8.7116,1.5143,-0.9635,-0.2019,0.073,-0.0239,0.014,0.0387,2173,2019-08-07 16:14:59:375
4.7977,-8.7116,1.5143,-0.7142,-0.0978,0.0145,-0.0239,0.014,0.0387,2178,2019-08-07 16:14:59:380
4.6255,-8.7593,1.5001,-0.7142,-0.0978,0.0145,-0.0068,0.0524,0.0557,2182,2019-08-07 16:14:59:384
4.6255,-8.7593,1.5001,-0.7142,-0.0978,0.0145,-0.0068,0.0524,0.0557,2188,2019-08-07 16:14:59:390
4.3432,-8.8357,1.5567,-0.7142,-0.0978,0.0145,0.0113,0.046,0.0728,2193,2019-08-07 16:14:59:395
4.3432,-8.8357,1.5567,-0.3935,-0.0869,-0.0946,0.0113,0.046,0.0728,2198,2019-08-07 16:14:59:400
4.3432,-8.8357,1.5567,-0.3935,-0.0869,-0.0946,0.0347,0.0077,0.0717,2203,2019-08-07 16:14:59:405
4.0849,-8.8261,1.684,-0.3935,-0.0869,-0.0946,0.0347,0.0077,0.0717,2207,2019-08-07 16:14:59:409
4.0849,-8.8261,1.684,-0.3935,-0.0869,-0.0946,0.0571,-0.0435,0.0653,2213,2019-08-07 16:14:59:415
4.0849,-8.8261,1.684,-0.1935,-0.0997,-0.026,0.0571,-0.0435,0.0653,2218,2019-08-07 16:14:59:420
4.0801,-8.7354,1.6086,-0.1935,-0.0997,-0.026,0.0571,-0.0435,0.0653,2223,2019-08-07 16:14:59:425
4.0801,-8.7354,1.6086,-0.1935,-0.0997,-0.026,0.0656,-0.101,0.0547,2227,2019-08-07 16:14:59:429
4.0801,-8.7354,1.6086,-0.1935,-0.0997,-0.026,0.0656,-0.101,0.0547,2232,2019-08-07 16:14:59:434
4.0562,-8.6161,1.5991,-0.1977,-0.2441,-0.0407,0.0741,-0.1479,0.0387,2238,2019-08-07 16:14:59:440
4.0562,-8.6161,1.5991,-0.1977,-0.2441,-0.0407,0.0741,-0.1479,0.0387,2242,2019-08-07 16:14:59:444
4.2859,-8.6018,1.4483,-0.1977,-0.2441,-0.0407,0.0784,-0.1596,0.0291,2248,2019-08-07 16:14:59:450
4.2859,-8.6018,1.4483,-0.1977,-0.2441,-0.0407,0.0784,-0.1596,0.0291,2253,2019-08-07 16:14:59:455
4.2859,-8.6018,1.4483,-0.5293,-0.3378,0.0692,0.0794,-0.1191,0.0088,2258,2019-08-07 16:14:59:460
4.4151,-8.5588,1.5143,-0.5293,-0.3378,0.0692,0.0794,-0.1191,0.0088,2264,2019-08-07 16:14:59:466
4.4151,-8.5588,1.5143,-0.5293,-0.3378,0.0692,0.0731,-0.0861,0.0014,2268,2019-08-07 16:14:59:470
4.4151,-8.5588,1.5143,-0.5293,-0.3378,0.0692,0.0731,-0.0861,0.0014,2273,2019-08-07 16:14:59:475
4.4199,-8.4681,1.5049,-0.5608,-0.3434,0.0892,0.0613,-0.0531,0.0057,2278,2019-08-07 16:14:59:480
4.4199,-8.4681,1.5049,-0.5608,-0.3434,0.0892,0.0613,-0.0531,0.0057,2283,2019-08-07 16:14:59:485
4.4868,-8.64,1.618,-0.5608,-0.3434,0.0892,0.0518,-9.0E-4,0.0078,2288,2019-08-07 16:14:59:490
4.4868,-8.64,1.618,-0.5608,-0.3434,0.0892,0.0518,-9.0E-4,0.0078,2292,2019-08-07 16:14:59:494
4.4868,-8.64,1.618,-0.5649,-0.2116,0.0085,0.0422,0.0077,0.0163,2298,2019-08-07 16:14:59:500
4.4131,-8.6684,1.5705,-0.5649,-0.2116,0.0085,0.0422,0.0077,0.0163,2303,2019-08-07 16:14:59:505
4.4131,-8.6684,1.5705,-0.5649,-0.2116,0.0085,0.0198,0.013,0.0184,2308,2019-08-07 16:14:59:510
4.4131,-8.6684,1.5705,-0.5649,-0.2116,0.0085,0.0198,0.013,0.0184,2313,2019-08-07 16:14:59:515
4.3844,-8.635,1.7307,-0.4828,-0.2056,-0.1461,0.0123,0.0194,0.011,2318,2019-08-07 16:14:59:520
4.3844,-8.635,1.7307,-0.4828,-0.2056,-0.1461,0.0123,0.0194,0.011,2323,2019-08-07 16:14:59:525
4.193,-8.5873,1.7307,-0.4828,-0.2056,-0.1461,-0.0036,0.0087,0.0099,2328,2019-08-07 16:14:59:530
4.193,-8.5873,1.7307,-0.4828,-0.2056,-0.1461,-0.0036,0.0087,0.0099,2333,2019-08-07 16:14:59:535
4.193,-8.5873,1.7307,-0.2282,-0.3576,-0.0317,-0.0281,-0.0222,0.0088,2338,2019-08-07 16:14:59:540
4.1212,-8.5156,1.6412,-0.2282,-0.3576,-0.0317,-0.0281,-0.0222,0.0088,2343,2019-08-07 16:14:59:545
4.1212,-8.5156,1.6412,-0.2282,-0.3576,-0.0317,-0.0377,-0.0467,0.0046,2347,2019-08-07 16:14:59:549
4.0877,-8.5204,1.7543,-0.2282,-0.3576,-0.0317,-0.0377,-0.0467,0.0046,2353,2019-08-07 16:14:59:555
4.0877,-8.5204,1.7543,-0.2059,-0.2957,-0.0498,-0.0335,-0.0744,-0.0103,2358,2019-08-07 16:14:59:560
4.0877,-8.5204,1.7543,-0.2059,-0.2957,-0.0498,-0.0335,-0.0744,-0.0103,2363,2019-08-07 16:14:59:565
4.2025,-8.6016,1.6553,-0.2059,-0.2957,-0.0498,-0.0207,-0.0957,-0.0295,2368,2019-08-07 16:14:59:570
4.2025,-8.6016,1.6553,-0.2059,-0.2957,-0.0498,-0.0207,-0.0957,-0.0295,2373,2019-08-07 16:14:59:575
4.2025,-8.6016,1.6553,-0.2059,-0.2957,-0.0498,-0.0207,-0.0957,-0.0295,2378,2019-08-07 16:14:59:580
4.2503,-8.5634,1.5516,-0.3433,-0.2976,0.015,-0.0132,-0.0872,-0.0444,2383,2019-08-07 16:14:59:585
4.2503,-8.5634,1.5516,-0.3433,-0.2976,0.015,-0.0132,-0.0872,-0.0444,2388,2019-08-07 16:14:59:590
4.2503,-8.5634,1.5516,-0.3433,-0.2976,0.015,0.0059,-0.069,-0.0561,2393,2019-08-07 16:14:59:595
4.4847,-8.5968,1.5563,-0.5852,-0.296,0.0053,0.0059,-0.069,-0.0561,2399,2019-08-07 16:14:59:601
4.4847,-8.5968,1.5563,-0.5852,-0.296,0.0053,0.0209,-0.0435,-0.0551,2403,2019-08-07 16:14:59:605
4.4943,-8.5538,1.561,-0.5852,-0.296,0.0053,0.0209,-0.0435,-0.0551,2408,2019-08-07 16:14:59:610
4.4943,-8.5538,1.561,-0.5631,-0.2686,0.0528,0.0251,-0.02,-0.0434,2413,2019-08-07 16:14:59:615
4.4943,-8.5538,1.561,-0.5631,-0.2686,0.0528,0.0251,-0.02,-0.0434,2418,2019-08-07 16:14:59:620
4.4512,-8.6541,1.5751,-0.5631,-0.2686,0.0528,0.0251,-0.02,-0.0434,2423,2019-08-07 16:14:59:625
4.4512,-8.6541,1.5751,-0.5631,-0.2686,0.0528,0.0219,-0.02,-0.0274,2428,2019-08-07 16:14:59:630
4.4512,-8.6541,1.5751,-0.4853,-0.1297,0.0223,0.0219,-0.02,-0.0274,2433,2019-08-07 16:14:59:635
4.456,-8.7018,1.5846,-0.4853,-0.1297,0.0223,0.0219,-0.02,-0.0274,2438,2019-08-07 16:14:59:640
4.456,-8.7018,1.5846,-0.4863,-0.0993,0.0183,0.0283,-0.0456,-0.0114,2443,2019-08-07 16:14:59:645
4.4033,-8.7161,1.5374,-0.4863,-0.0993,0.0183,0.0283,-0.0456,-0.0114,2447,2019-08-07 16:14:59:649
4.4033,-8.7161,1.5374,-0.4863,-0.0993,0.0183,0.0379,-0.0456,0.0067,2453,2019-08-07 16:14:59:655
4.4033,-8.7161,1.5374,-0.4863,-0.0993,0.0183,0.0379,-0.0456,0.0067,2458,2019-08-07 16:14:59:660
4.3698,-8.7352,1.5091,-0.4196,-0.1065,0.0581,0.0358,-0.0318,0.0099,2463,2019-08-07 16:14:59:665
4.3698,-8.7352,1.5091,-0.4196,-0.1065,0.0581,0.0358,-0.0318,0.0099,2468,2019-08-07 16:14:59:670
4.2741,-8.7543,1.6081,-0.4196,-0.1065,0.0581,0.0358,-0.0318,0.0099,2472,2019-08-07 16:14:59:674
4.2741,-8.7543,1.6081,-0.4196,-0.1065,0.0581,0.0241,-0.019,0.0014,2478,2019-08-07 16:14:59:680
4.2741,-8.7543,1.6081,-0.293,-0.0715,-0.0657,0.0241,-0.019,0.0014,2483,2019-08-07 16:14:59:685
4.2119,-8.7925,1.594,-0.293,-0.0715,-0.0657,0.0081,-0.0232,-0.0082,2488,2019-08-07 16:14:59:690
4.2119,-8.7925,1.594,-0.293,-0.0715,-0.0657,0.0081,-0.0232,-0.0082,2493,2019-08-07 16:14:59:695
4.2215,-8.8021,1.6835,-0.293,-0.0715,-0.0657,-0.0036,-0.0168,-0.0157,2497,2019-08-07 16:14:59:699
4.2215,-8.8021,1.6835,-0.2744,-0.0601,-0.1932,-0.0036,-0.0168,-0.0157,2502,2019-08-07 16:14:59:704
4.2215,-8.8021,1.6835,-0.2744,-0.0601,-0.1932,-4.0E-4,-0.0126,-0.0135,2509,2019-08-07 16:14:59:711
4.3315,-8.7066,1.5798,-0.2744,-0.0601,-0.1932,-4.0E-4,-0.0126,-0.0135,2513,2019-08-07 16:14:59:715
4.3315,-8.7066,1.5798,-0.2744,-0.0601,-0.1932,-0.0175,-0.0179,-0.0061,2518,2019-08-07 16:14:59:720
4.3315,-8.7066,1.5798,-0.36,-0.1488,-0.0115,-0.0175,-0.0179,-0.0061,2522,2019-08-07 16:14:59:724
4.3698,-8.6732,1.5468,-0.36,-0.1488,-0.0115,-0.0175,-0.0179,-0.0061,2528,2019-08-07 16:14:59:730
4.3698,-8.6732,1.5468,-0.36,-0.1488,-0.0115,-0.0281,-0.0136,0.0131,2532,2019-08-07 16:14:59:734
4.4128,-8.7066,1.6977,-0.36,-0.1488,-0.0115,-0.0281,-0.0136,0.0131,2538,2019-08-07 16:14:59:740
4.4128,-8.7066,1.6977,-0.516,-0.1204,-0.0645,-0.0217,-0.0254,0.028,2543,2019-08-07 16:14:59:745
4.4702,-8.7543,1.5374,-0.516,-0.1204,-0.0645,-0.0217,-0.0254,0.028,2548,2019-08-07 16:14:59:750
4.4702,-8.7543,1.5374,-0.516,-0.1204,-0.0645,-0.0143,-0.0328,0.0451,2553,2019-08-07 16:14:59:755
4.4702,-8.7543,1.5374,-0.516,-0.1204,-0.0645,-0.0143,-0.0328,0.0451,2558,2019-08-07 16:14:59:760
4.5085,-8.7639,1.4525,-0.5475,-0.0749,0.1043,-0.0111,-0.0296,0.0546,2563,2019-08-07 16:14:59:765
4.5085,-8.7639,1.4525,-0.5475,-0.0749,0.1043,-0.0111,-0.0296,0.0546,2568,2019-08-07 16:14:59:770
4.5085,-8.7639,1.4525,-0.5475,-0.0749,0.1043,-0.0036,-0.0168,0.0546,2573,2019-08-07 16:14:59:775
4.4606,-8.8737,1.5657,-0.5475,-0.0749,0.1043,-0.0036,-0.0168,0.0546,2579,2019-08-07 16:14:59:781
4.4606,-8.8737,1.5657,-0.4814,-0.011,-0.0439,0.0123,0.0172,0.0429,2583,2019-08-07 16:14:59:785
4.4271,-8.8546,1.6411,-0.4814,-0.011,-0.0439,0.0123,0.0172,0.0429,2588,2019-08-07 16:14:59:790
4.4271,-8.8546,1.6411,-0.4814,-0.011,-0.0439,0.0241,0.0556,0.0269,2593,2019-08-07 16:14:59:795
4.4271,-8.8546,1.6411,-0.4814,-0.011,-0.0439,0.0241,0.0556,0.0269,2598,2019-08-07 16:14:59:800
4.2261,-8.7161,1.6317,-0.2753,-0.1261,-0.0691,0.0102,0.0748,0.0099,2603,2019-08-07 16:14:59:805
4.2261,-8.7161,1.6317,-0.2753,-0.1261,-0.0691,0.0102,0.0748,0.0099,2608,2019-08-07 16:14:59:810
4.1783,-8.7734,1.5845,-0.2286,-0.0687,-0.018,-4.0E-4,0.095,-0.0039,2614,2019-08-07 16:14:59:816
4.1783,-8.7734,1.5845,-0.2286,-0.0687,-0.018,-4.0E-4,0.095,-0.0039,2617,2019-08-07 16:14:59:819
4.1783,-8.7734,1.5845,-0.2286,-0.0687,-0.018,-4.0E-4,0.095,-0.0039,2623,2019-08-07 16:14:59:825
4.073,-8.7877,1.6364,-0.2286,-0.0687,-0.018,-0.0058,0.0716,-0.0295,2628,2019-08-07 16:14:59:830
4.073,-8.7877,1.6364,-0.0924,-0.0475,-0.1061,-0.0058,0.0716,-0.0295,2633,2019-08-07 16:14:59:835
4.0539,-8.7877,1.7825,-0.0924,-0.0475,-0.1061,0.0155,0.0077,-0.021,2638,2019-08-07 16:14:59:840
4.0539,-8.7877,1.7825,-0.0924,-0.0475,-0.1061,0.0155,0.0077,-0.021,2643,2019-08-07 16:14:59:845
4.0539,-8.7877,1.7825,-0.0924,-0.0475,-0.1061,0.0518,-0.0595,-0.0103,2647,2019-08-07 16:14:59:849
4.2644,-8.697,1.5892,-0.3551,-0.135,-0.0683,0.0518,-0.0595,-0.0103,2653,2019-08-07 16:14:59:855
4.2644,-8.697,1.5892,-0.3551,-0.135,-0.0683,0.0709,-0.1095,-0.0103,2659,2019-08-07 16:14:59:861
4.4318,-8.5681,1.5845,-0.3551,-0.135,-0.0683,0.0709,-0.1095,-0.0103,2663,2019-08-07 16:14:59:865
4.4318,-8.5681,1.5845,-0.3551,-0.135,-0.0683,0.0709,-0.1095,-0.0103,2668,2019-08-07 16:14:59:870
4.4318,-8.5681,1.5845,-0.3551,-0.135,-0.0683,0.0603,-0.1585,0.0078,2673,2019-08-07 16:14:59:875
4.2835,-8.3294,1.3158,-0.3177,-0.5031,0.264,0.0603,-0.1585,0.0078,2678,2019-08-07 16:14:59:880
4.2835,-8.3294,1.3158,-0.3177,-0.5031,0.264,-0.0345,-0.3109,0.0344,2683,2019-08-07 16:14:59:885
4.4031,-8.5872,1.7589,-0.3177,-0.5031,0.264,-0.0345,-0.3109,0.0344,2688,2019-08-07 16:14:59:890
4.4031,-8.5872,1.7589,-0.4929,-0.2177,-0.1309,0.0049,-0.2352,0.0301,2693,2019-08-07 16:14:59:895
4.4031,-8.5872,1.7589,-0.4929,-0.2177,-0.1309,0.0049,-0.2352,0.0301,2698,2019-08-07 16:14:59:900
4.4748,-8.7018,1.4619,-0.4929,-0.2177,-0.1309,0.0464,-0.2011,0.0195,2703,2019-08-07 16:14:59:905
4.4748,-8.7018,1.4619,-0.4929,-0.2177,-0.1309,0.0464,-0.2011,0.0195,2708,2019-08-07 16:14:59:910
4.4891,-8.6397,1.3347,-0.5103,-0.1927,0.2124,0.0603,-0.0872,0.0152,2714,2019-08-07 16:14:59:916
4.4891,-8.6397,1.3347,-0.5103,-0.1927,0.2124,0.0603,-0.0872,0.0152,2718,2019-08-07 16:14:59:920
4.4891,-8.6397,1.3347,-0.5103,-0.1927,0.2124,0.0603,-0.0872,0.0152,2723,2019-08-07 16:14:59:925
4.5657,-8.592,1.5138,-0.5103,-0.1927,0.2124,0.0656,0.0417,-8.0E-4,2729,2019-08-07 16:14:59:931
4.5657,-8.592,1.5138,-0.7124,-0.3176,-0.0382,0.0656,0.0417,-8.0E-4,2733,2019-08-07 16:14:59:935
4.5657,-8.592,1.5138,-0.7124,-0.3176,-0.0382,0.0986,0.2399,-0.0231,2738,2019-08-07 16:14:59:940
4.9484,-8.487,1.6316,-0.7124,-0.3176,-0.0382,0.0986,0.2399,-0.0231,2743,2019-08-07 16:14:59:945
4.9484,-8.487,1.6316,-0.7124,-0.3176,-0.0382,0.0912,0.3496,-0.0572,2748,2019-08-07 16:14:59:950
4.0346,-8.253,1.3535,-0.0489,-0.567,0.2458,0.0912,0.3496,-0.0572,2753,2019-08-07 16:14:59:955
4.0346,-8.253,1.3535,-0.0489,-0.567,0.2458,-0.0271,0.2644,-0.0327,2758,2019-08-07 16:14:59:960
4.0346,-8.253,1.3535,-0.0489,-0.567,0.2458,-0.0271,0.2644,-0.0327,2763,2019-08-07 16:14:59:965
4.0298,-8.4344,2.2774,-0.0489,-0.567,0.2458,-0.0494,0.1728,-0.038,2768,2019-08-07 16:14:59:970
4.0298,-8.4344,2.2774,-0.0489,-0.567,0.2458,-0.0494,0.1728,-0.038,2772,2019-08-07 16:14:59:974
4.0298,-8.4344,2.2774,0.1276,-0.3068,-0.6728,-0.0494,0.1728,-0.038,2779,2019-08-07 16:14:59:981
3.7858,-8.506,2.1878,0.1276,-0.3068,-0.6728,-0.0217,0.0098,-0.0295,2783,2019-08-07 16:14:59:985
3.7858,-8.506,2.1878,0.1276,-0.3068,-0.6728,-0.0217,0.0098,-0.0295,2788,2019-08-07 16:14:59:990