ACCELEROMETER X (m/s²),ACCELEROMETER Y (m/s²),ACCELEROMETER Z (m/s²),LINEAR ACCELERATION X (m/s²),LINEAR ACCELERATION Y (m/s²),LINEAR ACCELERATION Z (m/s²),GYROSCOPE X (rad/s),GYROSCOPE Y (rad/s),GYROSCOPE Z (rad/s),Time since start in ms ,YYYY-MO-DD HH-MI-SS_SSS
4.1137,-8.693,1.8641,-0.1347,-0.0749,0.014,0.0198,0.0076,0.0057,2,2019-08-07 16:14:27:813
4.1137,-8.693,1.8641,-0.1347,-0.0749,0.014,0.0198,0.0044,0.0036,8,2019-08-07 16:14:27:819
4.0898,-8.6643,1.916,-0.1347,-0.0749,0.014,0.0198,0.0044,0.0036,13,2019-08-07 16:14:27:824
4.0898,-8.6643,1.916,-0.0432,-0.1216,-0.1145,0.0145,-0.0051,-0.0039,18,2019-08-07 16:14:27:829
4.1041,-8.6643,1.9113,-0.0432,-0.1216,-0.1145,0.0145,-0.0051,-0.0039,23,2019-08-07 16:14:27:834
4.1041,-8.6643,1.9113,-0.0432,-0.1216,-0.1145,0.0102,2.0E-4,-0.0028,28,2019-08-07 16:14:27:839
4.1041,-8.6643,1.9113,-0.0432,-0.1216,-0.1145,0.0102,2.0E-4,-0.0028,32,2019-08-07 16:14:27:843
4.0946,-8.6452,1.8924,-0.1229,-0.111,0.0147,-5.0E-4,0.0044,4.0E-4,38,2019-08-07 16:14:27:849
4.0946,-8.6452,1.8924,-0.1229,-0.111,0.0147,-5.0E-4,0.0044,4.0E-4,42,2019-08-07 16:14:27:853
4.0946,-8.6452,1.8924,-0.1229,-0.111,0.0147,-5.0E-4,0.0044,4.0E-4,48,2019-08-07 16:14:27:859
4.1615,-8.7025,1.7981,-0.1799,-0.0632,0.0847,-0.0196,0.0151,0.0036,53,2019-08-07 16:14:27:864
4.1615,-8.7025,1.7981,-0.1799,-0.0632,0.0847,-0.0196,0.0151,0.0036,58,2019-08-07 16:14:27:869
4.1376,-8.8027,1.8971,-0.1799,-0.0632,0.0847,-0.0207,0.0396,0.0025,63,2019-08-07 16:14:27:874
4.1376,-8.8027,1.8971,-0.0752,0.0365,0.0176,-0.0207,0.0396,0.0025,68,2019-08-07 16:14:27:879
4.1376,-8.8027,1.8971,-0.0752,0.0365,0.0176,-0.0207,0.0439,0.0068,72,2019-08-07 16:14:27:883
4.0515,-8.798,1.8359,-0.0752,0.0365,0.0176,-0.0207,0.0439,0.0068,78,2019-08-07 16:14:27:889
4.0515,-8.798,1.8359,-0.0621,0.0597,0.1115,-0.0239,0.0471,0.0131,83,2019-08-07 16:14:27:894
4.0132,-8.8266,1.8783,-0.0621,0.0597,0.1115,-0.0239,0.0471,0.0131,88,2019-08-07 16:14:27:899
4.0132,-8.8266,1.8783,-0.0621,0.0597,0.1115,-0.0239,0.0471,0.0131,93,2019-08-07 16:14:27:904
4.0132,-8.8266,1.8783,-0.0621,0.0597,0.1115,-0.01,0.046,0.011,98,2019-08-07 16:14:27:909
3.9749,-8.7789,1.8594,-0.0038,0.0772,0.0741,-0.01,0.046,0.011,102,2019-08-07 16:14:27:913
3.9749,-8.7789,1.8594,-0.0038,0.0772,0.0741,-0.0047,0.0396,0.0057,108,2019-08-07 16:14:27:919
3.9749,-8.7789,1.8594,-0.0038,0.0772,0.0741,-0.0047,0.0396,0.0057,113,2019-08-07 16:14:27:924
3.9031,-8.7073,1.8641,-0.0038,0.0772,0.0741,0.0049,0.0162,0.0078,118,2019-08-07 16:14:27:929
3.9031,-8.7073,1.8641,0.0272,-0.0762,0.0341,0.0049,0.0162,0.0078,122,2019-08-07 16:14:27:933
4.0036,-8.6643,1.9443,0.0272,-0.0762,0.0341,0.0059,0.0066,0.0089,128,2019-08-07 16:14:27:939
4.0036,-8.6643,1.9443,0.0272,-0.0762,0.0341,0.0059,0.0066,0.0089,133,2019-08-07 16:14:27:944
4.0036,-8.6643,1.9443,0.0272,-0.0762,0.0341,0.0017,-0.0051,0.0036,138,2019-08-07 16:14:27:949
4.0753,-8.6166,1.8217,-0.1027,-0.1527,0.0635,0.0017,-0.0051,0.0036,142,2019-08-07 16:14:27:953
4.0753,-8.6166,1.8217,-0.1027,-0.1527,0.0635,-0.009,-0.0094,0.0057,148,2019-08-07 16:14:27:959
4.1327,-8.6404,1.817,-0.1027,-0.1527,0.0635,-0.009,-0.0094,0.0057,152,2019-08-07 16:14:27:963
4.1327,-8.6404,1.817,-0.1027,-0.1527,0.0635,-0.009,-0.0094,0.0057,158,2019-08-07 16:14:27:969
4.1327,-8.6404,1.817,-0.1545,-0.1005,0.0701,-0.009,-0.0083,0.0036,163,2019-08-07 16:14:27:974
4.1519,-8.7407,1.784,-0.1545,-0.1005,0.0701,-0.009,-0.0083,0.0036,168,2019-08-07 16:14:27:979
4.1519,-8.7407,1.784,-0.1545,-0.1005,0.0701,-0.0026,-0.0041,0.0131,173,2019-08-07 16:14:27:984
4.1423,-8.7359,1.7887,-0.1545,-0.1005,0.0701,-0.0026,-0.0041,0.0131,178,2019-08-07 16:14:27:989
4.1423,-8.7359,1.7887,-0.1644,-0.0295,0.0774,0.0038,0.0034,0.0121,182,2019-08-07 16:14:27:993
4.1423,-8.7359,1.7887,-0.1644,-0.0295,0.0774,0.0038,0.0034,0.0121,188,2019-08-07 16:14:27:999
4.0849,-8.7789,1.8453,-0.1644,-0.0295,0.0774,0.0262,0.0215,0.0089,193,2019-08-07 16:14:28:004
4.0849,-8.7789,1.8453,-0.1644,-0.0295,0.0774,0.0262,0.0215,0.0089,198,2019-08-07 16:14:28:009
3.9892,-8.65,1.8311,-0.0561,-0.1057,0.063,0.0304,0.0396,0.0046,203,2019-08-07 16:14:28:014
3.9892,-8.65,1.8311,-0.0561,-0.1057,0.063,0.0304,0.0396,0.0046,208,2019-08-07 16:14:28:019
3.9892,-8.65,1.8311,-0.0561,-0.1057,0.063,0.0177,0.0417,-7.0E-4,213,2019-08-07 16:14:28:024
3.8791,-8.6404,1.9395,-0.0561,-0.1057,0.063,0.0177,0.0417,-7.0E-4,218,2019-08-07 16:14:28:029
3.8791,-8.6404,1.9395,0.1049,-0.1955,-0.0802,0.0027,0.0321,-0.006,223,2019-08-07 16:14:28:034
3.8696,-8.6261,2.0291,0.1049,-0.1955,-0.0802,0.0027,0.0321,-0.006,228,2019-08-07 16:14:28:039
3.8696,-8.6261,2.0291,0.1049,-0.1955,-0.0802,-0.0079,0.013,-0.0156,233,2019-08-07 16:14:28:044
3.8696,-8.6261,2.0291,0.1049,-0.1955,-0.0802,-0.0079,0.013,-0.0156,238,2019-08-07 16:14:28:049
3.8552,-8.6643,2.0008,0.1159,-0.1039,-0.1072,-0.0079,0.013,-0.0156,242,2019-08-07 16:14:28:053
3.8552,-8.6643,2.0008,0.1159,-0.1039,-0.1072,-0.0281,-0.0211,-0.0263,248,2019-08-07 16:14:28:059
3.8552,-8.6643,2.0008,0.1159,-0.1039,-0.1072,-0.0281,-0.0211,-0.0263,253,2019-08-07 16:14:28:064
4.0226,-8.7502,1.9772,0.1159,-0.1039,-0.1072,-0.0271,-0.0456,-0.0263,258,2019-08-07 16:14:28:069
4.0226,-8.7502,1.9772,-0.1219,-0.0215,0.0648,-0.0271,-0.0456,-0.0263,263,2019-08-07 16:14:28:074
4.1518,-8.755,1.7745,-0.1219,-0.0215,0.0648,-0.0196,-0.0254,-0.0231,267,2019-08-07 16:14:28:078
4.1518,-8.755,1.7745,-0.1219,-0.0215,0.0648,-0.0196,-0.0254,-0.0231,273,2019-08-07 16:14:28:084
4.1518,-8.755,1.7745,-0.1219,-0.0215,0.0648,-0.0196,-0.0254,-0.0231,278,2019-08-07 16:14:28:089
4.2092,-8.798,1.784,-0.2016,0.0374,0.1106,-0.0068,0.0044,-0.0209,283,2019-08-07 16:14:28:094
4.2092,-8.798,1.784,-0.2016,0.0374,0.1106,-0.0068,0.0044,-0.0209,288,2019-08-07 16:14:28:099
4.2092,-8.8218,1.7981,-0.1282,0.0574,0.083,0.0091,0.0471,-0.0146,292,2019-08-07 16:14:28:103
4.1135,-8.8218,1.7981,-0.1282,0.0574,0.083,0.0091,0.0471,-0.0146,298,2019-08-07 16:14:28:109
4.1135,-8.8218,1.7981,-0.1282,0.0574,0.083,0.0091,0.0471,-0.0146,302,2019-08-07 16:14:28:113
3.9748,-8.7073,1.85,-0.1282,0.0574,0.083,0.0145,0.0513,-0.0092,308,2019-08-07 16:14:28:119
3.9748,-8.7073,1.85,0.0632,0.0206,-0.0944,0.0145,0.0513,-0.0092,313,2019-08-07 16:14:28:124
3.9748,-8.7073,1.85,0.0632,0.0206,-0.0944,0.0113,0.0385,-0.0092,318,2019-08-07 16:14:28:129
3.8838,-8.755,2.0008,0.0632,0.0206,-0.0944,0.0113,0.0385,-0.0092,322,2019-08-07 16:14:28:133
3.8838,-8.755,2.0008,0.0632,0.0206,-0.0944,0.0027,0.0119,-0.0071,328,2019-08-07 16:14:28:139
3.9604,-8.798,1.9537,0.0252,0.0358,-0.0628,0.0027,0.0119,-0.0071,333,2019-08-07 16:14:28:144
3.9604,-8.798,1.9537,0.0252,0.0358,-0.0628,-0.0079,-0.0169,-0.0082,337,2019-08-07 16:14:28:148
3.9604,-8.798,1.9537,0.0252,0.0358,-0.0628,-0.0079,-0.0169,-0.0082,344,2019-08-07 16:14:28:155
3.9843,-8.8266,1.9442,0.0252,0.0358,-0.0628,-0.0079,-0.0328,-0.005,348,2019-08-07 16:14:28:159
3.9843,-8.8266,1.9442,-0.0589,0.0169,-0.0236,-0.0079,-0.0328,-0.005,353,2019-08-07 16:14:28:164
4.0608,-8.7836,1.8641,-0.0589,0.0169,-0.0236,6.0E-4,-0.0286,-7.0E-4,358,2019-08-07 16:14:28:169
4.0608,-8.7836,1.8641,-0.0589,0.0169,-0.0236,6.0E-4,-0.0286,-7.0E-4,363,2019-08-07 16:14:28:174
4.0608,-8.7836,1.8641,-0.0589,0.0169,-0.0236,0.0102,-0.0254,0.0025,368,2019-08-07 16:14:28:179
4.19,-8.7598,1.7368,-0.1768,0.0793,0.1158,0.0102,-0.0254,0.0025,373,2019-08-07 16:14:28:184
4.19,-8.7598,1.7368,-0.1768,0.0793,0.1158,0.0155,0.0023,0.0057,378,2019-08-07 16:14:28:189
4.2091,-8.7359,1.718,-0.215,-0.0016,0.1219,0.0155,0.0023,0.0057,383,2019-08-07 16:14:28:194
4.2091,-8.7359,1.718,-0.215,-0.0016,0.1219,0.0294,0.046,0.0099,388,2019-08-07 16:14:28:199
4.0225,-8.7502,1.7274,-0.215,-0.0016,0.1219,0.0294,0.046,0.0099,394,2019-08-07 16:14:28:205
4.0225,-8.7502,1.7274,-0.215,-0.0016,0.1219,0.024,0.0577,0.0142,398,2019-08-07 16:14:28:209
4.0225,-8.7502,1.7274,0.0495,-0.0444,0.0401,0.024,0.0577,0.0142,403,2019-08-07 16:14:28:214
3.9221,-8.7072,1.8971,0.0495,-0.0444,0.0401,0.024,0.0577,0.0142,408,2019-08-07 16:14:28:219
3.9221,-8.7072,1.8971,0.0495,-0.0444,0.0401,0.0209,0.0428,0.0153,413,2019-08-07 16:14:28:224
3.9221,-8.7072,1.8971,0.0495,-0.0444,0.0401,0.0209,0.0428,0.0153,417,2019-08-07 16:14:28:228
3.8455,-8.7311,1.9395,0.122,-0.0306,-0.0481,0.0134,-9.0E-4,0.0131,423,2019-08-07 16:14:28:234
3.8455,-8.7311,1.9395,0.122,-0.0306,-0.0481,0.0134,-9.0E-4,0.0131,429,2019-08-07 16:14:28:240
3.8598,-8.7598,1.9819,0.122,-0.0306,-0.0481,0.007,-0.0382,0.0046,433,2019-08-07 16:14:28:244
3.8598,-8.7598,1.9819,0.122,-0.0306,-0.0481,0.007,-0.0382,0.0046,438,2019-08-07 16:14:28:249
3.8598,-8.7598,1.9819,0.122,-0.0306,-0.0481,0.0038,-0.0605,4.0E-4,442,2019-08-07 16:14:28:253
3.9699,-8.7502,1.9301,0.0124,-0.0116,-0.0305,0.0038,-0.0605,4.0E-4,448,2019-08-07 16:14:28:259
3.9699,-8.7502,1.9301,0.0124,-0.0116,-0.0305,0.0038,-0.0605,4.0E-4,452,2019-08-07 16:14:28:263
4.1899,-8.7359,1.9018,0.0124,-0.0116,-0.0305,0.0145,-0.0552,4.0E-4,458,2019-08-07 16:14:28:269
4.1899,-8.7359,1.9018,0.0124,-0.0116,-0.0305,0.0145,-0.0552,4.0E-4,463,2019-08-07 16:14:28:274
4.1899,-8.7359,1.9018,-0.2616,-0.0773,0.1182,0.0272,-0.0211,-0.0028,468,2019-08-07 16:14:28:279
4.1899,-8.7072,1.8499,-0.2616,-0.0773,0.1182,0.0272,-0.0211,-0.0028,472,2019-08-07 16:14:28:283
4.1899,-8.7072,1.8499,-0.2616,-0.0773,0.1182,0.0379,0.0162,0.0025,478,2019-08-07 16:14:28:289
4.1229,-8.6643,1.7886,-0.2616,-0.0773,0.1182,0.0379,0.0162,0.0025,483,2019-08-07 16:14:28:294
4.1229,-8.6643,1.7886,-0.0739,-0.0946,0.1244,0.0326,0.0566,0.0014,488,2019-08-07 16:14:28:299
3.9507,-8.6547,1.8735,-0.0739,-0.0946,0.1244,0.0326,0.0566,0.0014,494,2019-08-07 16:14:28:305
3.9507,-8.6547,1.8735,-0.0739,-0.0946,0.1244,0.0219,0.0673,-7.0E-4,498,2019-08-07 16:14:28:309
3.9507,-8.6547,1.8735,-0.0739,-0.0946,0.1244,0.0219,0.0673,-7.0E-4,503,2019-08-07 16:14:28:314
3.8454,-8.7168,1.9866,0.0866,-0.1031,-0.0832,0.0177,0.0449,-0.0028,507,2019-08-07 16:14:28:318
3.8454,-8.7168,1.9866,0.0866,-0.1031,-0.0832,0.0177,0.0449,-0.0028,513,2019-08-07 16:14:28:324
3.8454,-8.7168,1.9866,0.0866,-0.1031,-0.0832,0.0187,0.014,-0.0103,518,2019-08-07 16:14:28:329
3.8358,-8.7836,1.9866,0.0866,-0.1031,-0.0832,0.0187,0.014,-0.0103,523,2019-08-07 16:14:28:334
3.8358,-8.7836,1.9866,0.1339,-0.0162,-0.0351,0.0219,-0.0233,-0.0124,527,2019-08-07 16:14:28:338
3.8932,-8.7741,2.0243,0.1339,-0.0162,-0.0351,0.0219,-0.0233,-0.0124,534,2019-08-07 16:14:28:345
3.8932,-8.7741,2.0243,0.1339,-0.0162,-0.0351,0.0315,-0.0541,-0.0209,538,2019-08-07 16:14:28:349
3.8932,-8.7741,2.0243,0.1339,-0.0162,-0.0351,0.0315,-0.0541,-0.0209,543,2019-08-07 16:14:28:354
4.0846,-8.7788,1.9348,-0.0959,0.0245,-0.0144,0.0368,-0.0573,-0.0295,548,2019-08-07 16:14:28:359
4.0846,-8.7788,1.9348,-0.0959,0.0245,-0.0144,0.0368,-0.0573,-0.0295,553,2019-08-07 16:14:28:364
4.1899,-8.7406,1.8735,-0.0959,0.0245,-0.0144,0.0368,-0.0573,-0.0295,558,2019-08-07 16:14:28:369
4.1899,-8.7406,1.8735,-0.0959,0.0245,-0.0144,0.0411,-0.0307,-0.0412,563,2019-08-07 16:14:28:374
4.1899,-8.7406,1.8735,-0.2302,0.0293,0.0353,0.0411,-0.0307,-0.0412,567,2019-08-07 16:14:28:378
4.209,-8.7645,1.9159,-0.2302,0.0293,0.0353,0.0475,-9.0E-4,-0.0486,573,2019-08-07 16:14:28:384
4.209,-8.7645,1.9159,-0.2302,0.0293,0.0353,0.0475,-9.0E-4,-0.0486,578,2019-08-07 16:14:28:389
4.209,-8.755,1.9348,-0.2302,0.0293,0.0353,0.0549,0.0236,-0.0508,584,2019-08-07 16:14:28:395
4.209,-8.755,1.9348,-0.2108,0.0692,-0.1109,0.0549,0.0236,-0.0508,587,2019-08-07 16:14:28:398
4.209,-8.755,1.9348,-0.2108,0.0692,-0.1109,0.0699,0.0737,-0.0614,593,2019-08-07 16:14:28:404
4.1372,-8.7597,2.0667,-0.2108,0.0692,-0.1109,0.0699,0.0737,-0.0614,599,2019-08-07 16:14:28:410
4.1372,-8.7597,2.0667,-0.2108,0.0692,-0.1109,0.0762,0.0843,-0.0625,603,2019-08-07 16:14:28:414
4.1372,-8.7597,2.0667,-0.0012,-0.0801,-0.1908,0.0762,0.0843,-0.0625,608,2019-08-07 16:14:28:419
3.9841,-8.6786,2.161,-0.0012,-0.0801,-0.1908,0.0794,0.0875,-0.0636,613,2019-08-07 16:14:28:424
3.9841,-8.6786,2.161,-0.0012,-0.0801,-0.1908,0.0794,0.0875,-0.0636,618,2019-08-07 16:14:28:429
3.9841,-8.6786,2.161,-0.0012,-0.0801,-0.1908,0.0794,0.0875,-0.0636,622,2019-08-07 16:14:28:433
4.0224,-8.7025,2.0573,0.0066,0.0286,-0.103,0.0709,0.0822,-0.0646,628,2019-08-07 16:14:28:439
4.0224,-8.7025,2.0573,0.0066,0.0286,-0.103,0.0709,0.0822,-0.0646,633,2019-08-07 16:14:28:444
4.0463,-8.7597,2.1704,0.0066,0.0286,-0.103,0.0624,0.0705,-0.071,637,2019-08-07 16:14:28:448
4.0463,-8.7597,2.1704,0.0066,0.0286,-0.103,0.0624,0.0705,-0.071,643,2019-08-07 16:14:28:454
4.0463,-8.7597,2.1704,0.0016,0.1758,-0.112,0.0794,0.0907,-0.0763,648,2019-08-07 16:14:28:459
4.0654,-8.9125,2.1563,0.0016,0.1758,-0.112,0.0794,0.0907,-0.0763,653,2019-08-07 16:14:28:464
4.0654,-8.9125,2.1563,0.0016,0.1758,-0.112,0.0858,0.1259,-0.0881,658,2019-08-07 16:14:28:469
4.0462,-8.8457,2.0809,0.0016,0.1758,-0.112,0.0858,0.1259,-0.0881,662,2019-08-07 16:14:28:473
4.0462,-8.8457,2.0809,-0.0694,0.0767,-0.157,0.089,0.1717,-0.1051,668,2019-08-07 16:14:28:479
4.0462,-8.8457,2.0809,-0.0694,0.0767,-0.157,0.089,0.1717,-0.1051,672,2019-08-07 16:14:28:483
4.1228,-8.7884,2.0196,-0.0694,0.0767,-0.157,0.0858,0.2399,-0.1275,678,2019-08-07 16:14:28:489
4.1228,-8.7884,2.0196,-0.0694,0.0767,-0.157,0.0858,0.2399,-0.1275,683,2019-08-07 16:14:28:494
4.1036,-8.7502,1.9017,-0.047,0.0571,0.1502,0.0858,0.2399,-0.1275,687,2019-08-07 16:14:28:498
4.1036,-8.7502,1.9017,-0.047,0.0571,0.1502,0.0667,0.3645,-0.1562,693,2019-08-07 16:14:28:504
3.875,-8.9221,1.8925,0.1873,0.2366,0.1802,0.0667,0.3645,-0.1562,699,2019-08-07 16:14:28:510
3.875,-8.9221,1.8925,0.1873,0.2366,0.1802,0.0624,0.4945,-0.185,702,2019-08-07 16:14:28:513
3.875,-8.9221,1.8925,0.1873,0.2366,0.1802,0.0624,0.4945,-0.185,708,2019-08-07 16:14:28:519
3.4827,-9.3804,1.968,0.1873,0.2366,0.1802,0.0624,0.6191,-0.2319,712,2019-08-07 16:14:28:523
3.4827,-9.3804,1.968,0.9514,1.1184,0.124,0.0624,0.6191,-0.2319,718,2019-08-07 16:14:28:529
2.9182,-10.0726,2.1282,0.9514,1.1184,0.124,0.0784,0.7778,-0.3331,722,2019-08-07 16:14:28:533
2.9182,-10.0726,2.1282,0.9514,1.1184,0.124,0.0784,0.7778,-0.3331,728,2019-08-07 16:14:28:539
2.9182,-10.0726,2.1282,0.9514,1.1184,0.124,0.1103,0.9142,-0.4321,733,2019-08-07 16:14:28:544
2.4015,-10.8317,2.1235,1.7797,2.3348,0.0367,0.1103,0.9142,-0.4321,738,2019-08-07 16:14:28:549
2.4015,-10.8317,2.1235,1.7797,2.3348,0.0367,0.1732,1.0761,-0.5419,744,2019-08-07 16:14:28:555
1.9087,-11.6146,2.2885,2.1901,2.9956,-0.0193,0.1732,1.0761,-0.5419,747,2019-08-07 16:14:28:558
1.9087,-11.6146,2.2885,2.1901,2.9956,-0.0193,0.1732,1.0761,-0.5419,753,2019-08-07 16:14:28:564
1.9087,-11.6146,2.2885,2.1901,2.9956,-0.0193,0.3021,1.3424,-0.6729,758,2019-08-07 16:14:28:569
1.3585,-12.4548,2.2084,2.1901,2.9956,-0.0193,0.3021,1.3424,-0.6729,762,2019-08-07 16:14:28:573
1.3585,-12.4548,2.2084,3.2532,4.588,0.2467,0.464,1.7025,-0.756,768,2019-08-07 16:14:28:579
1.3585,-12.4548,2.2084,3.2532,4.588,0.2467,0.464,1.7025,-0.756,772,2019-08-07 16:14:28:583
0.2438,-14.1495,2.1989,3.2532,4.588,0.2467,0.6536,2.1339,-0.7837,778,2019-08-07 16:14:28:589
0.2438,-14.1495,2.1989,3.2532,4.588,0.2467,0.6536,2.1339,-0.7837,783,2019-08-07 16:14:28:594
-1.2489,-15.9349,2.0387,5.3721,7.4574,0.6757,0.9157,2.6154,-0.7592,788,2019-08-07 16:14:28:599
-1.2489,-15.9349,2.0387,5.3721,7.4574,0.6757,0.9157,2.6154,-0.7592,793,2019-08-07 16:14:28:604
-1.2489,-15.9349,2.0387,5.3721,7.4574,0.6757,1.2182,3.1246,-0.6335,798,2019-08-07 16:14:28:609
-2.9042,-18.4125,1.3033,5.3721,7.4574,0.6757,1.2182,3.1246,-0.6335,803,2019-08-07 16:14:28:614
-2.9042,-18.4125,1.3033,5.3721,7.4574,0.6757,1.2182,3.1246,-0.6335,808,2019-08-07 16:14:28:619
-2.9042,-18.4125,1.3033,6.9473,11.2017,2.5425,1.5665,3.6828,-0.511,813,2019-08-07 16:14:28:624
-3.2487,-20.8567,-0.3182,6.9473,11.2017,2.5425,1.5665,3.6828,-0.511,818,2019-08-07 16:14:28:629
-3.2487,-20.8567,-0.3182,6.9473,11.2017,2.5425,1.9671,4.5734,-0.5184,823,2019-08-07 16:14:28:634
-4.0429,-23.8021,-1.3176,6.9473,11.2017,2.5425,1.9671,4.5734,-0.5184,827,2019-08-07 16:14:28:638
-4.0429,-23.8021,-1.3176,7.8947,16.0337,4.9387,2.373,5.3467,-0.4897,834,2019-08-07 16:14:28:645
-4.0429,-23.8021,-1.3176,7.8947,16.0337,4.9387,2.373,5.3467,-0.4897,837,2019-08-07 16:14:28:648
-4.44,-26.2702,-1.162,7.8947,16.0337,4.9387,2.373,5.3467,-0.4897,844,2019-08-07 16:14:28:655
-4.44,-26.2702,-1.162,8.0689,18.9868,6.886,2.7085,5.7356,-0.3363,848,2019-08-07 16:14:28:659
-4.44,-26.2702,-1.162,8.0689,18.9868,6.886,2.7085,5.7356,-0.3363,853,2019-08-07 16:14:28:664
-4.2964,-28.9865,-3.8489,8.0689,18.9868,6.886,2.7138,6.1904,0.1388,858,2019-08-07 16:14:28:669
-4.2964,-28.9865,-3.8489,8.0689,18.9868,6.886,2.7138,6.1904,0.1388,863,2019-08-07 16:14:28:674
-4.2964,-28.9865,-3.8489,8.0689,18.9868,6.886,2.2228,6.2085,0.4925,868,2019-08-07 16:14:28:679
-2.9473,-30.3661,-5.0038,5.6067,22.5639,10.3225,2.2228,6.2085,0.4925,872,2019-08-07 16:14:28:683
-2.9473,-30.3661,-5.0038,5.6067,22.5639,10.3225,1.8627,5.9827,0.6321,878,2019-08-07 16:14:28:689
-3.6745,-28.9054,-7.8038,5.6067,22.5639,10.3225,1.8627,5.9827,0.6321,883,2019-08-07 16:14:28:694
-3.6745,-28.9054,-7.8038,5.6067,22.5639,10.3225,1.8627,5.9827,0.6321,888,2019-08-07 16:14:28:699
-3.6745,-28.9054,-7.8038,5.9949,19.4317,14.2467,1.8851,6.4791,0.4787,892,2019-08-07 16:14:28:703
-4.9662,-25.7594,-8.0065,5.9949,19.4317,14.2467,1.8851,6.4791,0.4787,898,2019-08-07 16:14:28:709
-4.9662,-25.7594,-8.0065,5.9949,19.4317,14.2467,2.5189,7.1928,0.0462,903,2019-08-07 16:14:28:714
-8.0186,-23.5205,-4.2448,5.9949,19.4317,14.2467,2.5189,7.1928,0.0462,908,2019-08-07 16:14:28:719
-8.0186,-23.5205,-4.2448,9.4637,15.5689,9.0185,3.7535,7.6658,-0.4439,913,2019-08-07 16:14:28:724
-8.0186,-23.5205,-4.2448,9.4637,15.5689,9.0185,3.7535,7.6658,-0.4439,918,2019-08-07 16:14:28:729
-8.0808,-19.2002,6.1397,9.4637,15.5689,9.0185,5.5517,7.1012,-0.9317,923,2019-08-07 16:14:28:734
-8.0808,-19.2002,6.1397,9.4637,15.5689,9.0185,5.5517,7.1012,-0.9317,927,2019-08-07 16:14:28:738
-4.2486,-14.0445,11.9188,5.1802,8.2523,-4.6089,7.6865,5.2125,-1.6156,933,2019-08-07 16:14:28:744
-4.2486,-14.0445,11.9188,5.1802,8.2523,-4.6089,7.6865,5.2125,-1.6156,938,2019-08-07 16:14:28:749
-4.2486,-14.0445,11.9188,5.1802,8.2523,-4.6089,9.4942,3.3558,-2.6074,943,2019-08-07 16:14:28:754
-1.823,-9.1274,-2.892,5.1802,8.2523,-4.6089,9.4942,3.3558,-2.6074,949,2019-08-07 16:14:28:760
-1.823,-9.1274,-2.892,2.4558,-1.8672,17.9773,10.0365,4.4924,-3.613,953,2019-08-07 16:14:28:764
-1.823,-9.1274,-2.892,2.4558,-1.8672,17.9773,10.0365,4.4924,-3.613,958,2019-08-07 16:14:28:769
-2.5789,1.437,-9.826,2.4558,-1.8672,17.9773,9.8852,5.727,-4.1669,962,2019-08-07 16:14:28:773
-2.5789,1.437,-9.826,2.4558,-1.8672,17.9773,9.8852,5.727,-4.1669,968,2019-08-07 16:14:28:779
-15.7834,63.6972,37.7222,8.1331,-54.9478,-19.9586,11.2967,3.4793,-3.4042,972,2019-08-07 16:14:28:783
-15.7834,63.6972,37.7222,8.1331,-54.9478,-19.9586,11.2967,3.4793,-3.4042,978,2019-08-07 16:14:28:789
-15.7834,63.6972,37.7222,18.9245,-86.5624,-3.1925,11.2967,3.4793,-3.4042,983,2019-08-07 16:14:28:794
-10.2241,76.534,-10.1559,18.9245,-86.5624,-3.1925,13.6605,-2.4638,-0.6228,987,2019-08-07 16:14:28:798
-10.2241,76.534,-10.1559,18.9245,-86.5624,-3.1925,13.6605,-2.4638,-0.6228,993,2019-08-07 16:14:28:804
0.0716,39.9379,-41.3519,18.9245,-86.5624,-3.1925,5.9288,-6.7376,-2.5861,998,2019-08-07 16:14:28:809
0.0716,39.9379,-41.3519,-3.4194,-40.0032,47.5571,5.9288,-6.7376,-2.5861,1002,2019-08-07 16:14:28:813
0.0716,39.9379,-41.3519,-3.4194,-40.0032,47.5571,2.0651,-6.8729,-3.9837,1008,2019-08-07 16:14:28:819
-5.3585,64.2748,29.7936,-3.4194,-40.0032,47.5571,2.0651,-6.8729,-3.9837,1013,2019-08-07 16:14:28:824
-5.3585,64.2748,29.7936,-3.4194,-40.0032,47.5571,-2.2822,-10.4032,-1.2886,1018,2019-08-07 16:14:28:829
-5.3585,64.2748,29.7936,-16.7721,-32.8066,14.5487,-2.2822,-10.4032,-1.2886,1023,2019-08-07 16:14:28:834
24.2512,27.2348,-1.7088,-16.7721,-32.8066,14.5487,-3.1451,-4.9341,-0.2734,1028,2019-08-07 16:14:28:839
24.2512,27.2348,-1.7088,-16.7721,-32.8066,14.5487,-3.1451,-4.9341,-0.2734,1033,2019-08-07 16:14:28:844
29.9205,15.5866,24.3114,-16.7721,-32.8066,14.5487,-3.1451,-4.9341,-0.2734,1037,2019-08-07 16:14:28:848
29.9205,15.5866,24.3114,-19.4185,-17.9384,-6.4967,-1.9968,-2.4925,-0.4385,1044,2019-08-07 16:14:28:855
29.9205,15.5866,24.3114,-19.4185,-17.9384,-6.4967,-1.9968,-2.4925,-0.4385,1049,2019-08-07 16:14:28:860
7.913,22.8763,3.5188,-19.4185,-17.9384,-6.4967,-1.4822,-1.3069,1.2638,1052,2019-08-07 16:14:28:863
7.913,22.8763,3.5188,-19.4185,-17.9384,-6.4967,-1.4822,-1.3069,1.2638,1058,2019-08-07 16:14:28:869
0.8467,26.7812,1.0252,1.6822,-27.9215,8.3844,-2.001,1.7067,4.0526,1063,2019-08-07 16:14:28:874
0.8467,26.7812,1.0252,1.6822,-27.9215,8.3844,-2.001,1.7067,4.0526,1068,2019-08-07 16:14:28:879
0.8467,26.7812,1.0252,1.6822,-27.9215,8.3844,-3.5787,1.9773,5.4172,1072,2019-08-07 16:14:28:883
9.0564,22.1936,0.436,1.6822,-27.9215,8.3844,-3.5787,1.9773,5.4172,1078,2019-08-07 16:14:28:889
9.0564,22.1936,0.436,-9.0588,-21.7474,8.1495,-5.2618,0.9568,4.6779,1083,2019-08-07 16:14:28:894
9.0564,22.1936,0.436,-9.0588,-21.7474,8.1495,-5.2618,0.9568,4.6779,1088,2019-08-07 16:14:28:899
10.3912,17.8876,3.6791,-9.0588,-21.7474,8.1495,-5.2618,0.9568,4.6779,1093,2019-08-07 16:14:28:904
10.3912,17.8876,3.6791,-6.2711,-18.8577,1.5816,-6.4261,0.2143,2.7104,1098,2019-08-07 16:14:28:909
3.4349,14.1449,13.234,-6.2711,-18.8577,1.5816,-6.4261,0.2143,2.7104,1103,2019-08-07 16:14:28:914
3.4349,14.1449,13.234,-6.2711,-18.8577,1.5816,-6.0767,-1.3207,1.9551,1108,2019-08-07 16:14:28:919
3.4349,14.1449,13.234,-6.2711,-18.8577,1.5816,-6.0767,-1.3207,1.9551,1113,2019-08-07 16:14:28:924
-1.5981,8.9463,10.2831,3.5492,-12.7334,-1.4465,-5.3055,-1.6329,2.0478,1119,2019-08-07 16:14:28:930
-1.5981,8.9463,10.2831,3.5492,-12.7334,-1.4465,-5.3055,-1.6329,2.0478,1122,2019-08-07 16:14:28:933
-1.5981,8.9463,10.2831,3.5492,-12.7334,-1.4465,-4.9774,-2.0707,2.2012,1128,2019-08-07 16:14:28:939
-1.3684,2.8119,5.0979,2.722,-5.6521,3.464,-4.9774,-2.0707,2.2012,1134,2019-08-07 16:14:28:945
-1.3684,2.8119,5.0979,2.722,-5.6521,3.464,-5.4685,-3.1647,2.0169,1138,2019-08-07 16:14:28:949
-1.3684,2.8119,5.0979,2.722,-5.6521,3.464,-5.4685,-3.1647,2.0169,1143,2019-08-07 16:14:28:954
0.0047,-1.876,5.3336,2.722,-5.6521,3.464,-5.7039,-3.9914,1.8145,1148,2019-08-07 16:14:28:959
0.0047,-1.876,5.3336,2.7822,-0.4688,-2.1648,-5.7039,-3.9914,1.8145,1153,2019-08-07 16:14:28:964
-0.7943,-5.8287,8.8171,2.7822,-0.4688,-2.1648,-5.7039,-3.9914,1.8145,1158,2019-08-07 16:14:28:969
-0.7943,-5.8287,8.8171,2.7822,-0.4688,-2.1648,-5.4226,-5.2942,1.6025,1163,2019-08-07 16:14:28:974
-0.7943,-5.8287,8.8171,2.7822,-0.4688,-2.1648,-5.4226,-5.2942,1.6025,1169,2019-08-07 16:14:28:980
-0.6699,-10.1681,3.6037,2.7822,-0.4688,-2.1648,-4.8996,-5.2388,1.6164,1172,2019-08-07 16:14:28:983
-0.6699,-10.1681,3.6037,3.3431,5.5514,3.4808,-4.8996,-5.2388,1.6164,1178,2019-08-07 16:14:28:989
-2.3253,-19.7396,3.4245,3.3431,5.5514,3.4808,-4.351,-5.4092,1.7027,1183,2019-08-07 16:14:28:994
-2.3253,-19.7396,3.4245,3.3431,5.5514,3.4808,-4.351,-5.4092,1.7027,1188,2019-08-07 16:14:28:999
-2.3253,-19.7396,3.4245,3.3431,5.5514,3.4808,-4.351,-5.4092,1.7027,1193,2019-08-07 16:14:29:004
-2.9855,-26.2845,2.2178,6.8729,17.8994,3.699,-3.8887,-5.8289,2.4824,1198,2019-08-07 16:14:29:009
-2.9855,-26.2845,2.2178,6.8729,17.8994,3.699,-3.8887,-5.8289,2.4824,1203,2019-08-07 16:14:29:014
-2.9855,-26.2845,2.2178,6.8729,17.8994,3.699,-2.7137,-5.8289,3.0545,1208,2019-08-07 16:14:29:019
0.5405,-22.4703,4.8198,6.8729,17.8994,3.699,-2.7137,-5.8289,3.0545,1213,2019-08-07 16:14:29:024
0.5405,-22.4703,4.8198,2.1836,12.5255,-0.3323,-1.3885,-5.8268,2.5186,1218,2019-08-07 16:14:29:029
0.5405,-22.4703,4.8198,2.1836,12.5255,-0.3323,-1.3885,-5.8268,2.5186,1223,2019-08-07 16:14:29:034
-0.689,-18.5557,-3.6839,2.1836,12.5255,-0.3323,-0.7632,-5.6905,1.7016,1228,2019-08-07 16:14:29:039
-0.689,-18.5557,-3.6839,2.1836,12.5255,-0.3323,-0.7632,-5.6905,1.7016,1234,2019-08-07 16:14:29:045
-0.689,-18.5557,-3.6839,6.052,9.2188,6.9322,-2.034,-5.5988,1.3937,1238,2019-08-07 16:14:29:049
-3.6983,-16.46,-2.1943,6.052,9.2188,6.9322,-2.034,-5.5988,1.3937,1243,2019-08-07 16:14:29:054
-3.6983,-16.46,-2.1943,8.3364,7.6092,4.2792,-2.9012,-6.0495,1.6537,1248,2019-08-07 16:14:29:059
-3.4208,-16.4457,2.3828,8.3364,7.6092,4.2792,-2.9012,-6.0495,1.6537,1253,2019-08-07 16:14:29:064
-3.4208,-16.4457,2.3828,8.3364,7.6092,4.2792,-2.9012,-6.0495,1.6537,1258,2019-08-07 16:14:29:069
-3.4208,-16.4457,2.3828,8.3364,7.6092,4.2792,-2.4729,-6.303,1.7762,1263,2019-08-07 16:14:29:074
0.1482,-18.8756,0.5303,3.7438,10.3291,2.3062,-2.4729,-6.303,1.7762,1268,2019-08-07 16:14:29:079
0.1482,-18.8756,0.5303,3.7438,10.3291,2.3062,-1.5877,-5.8247,1.4853,1273,2019-08-07 16:14:29:084
1.55,-18.0497,0.4501,3.7438,10.3291,2.3062,-1.5877,-5.8247,1.4853,1278,2019-08-07 16:14:29:089
1.55,-18.0497,0.4501,3.7438,10.3291,2.3062,-1.5877,-5.8247,1.4853,1283,2019-08-07 16:14:29:094
1.55,-18.0497,0.4501,2.4476,7.9137,2.1635,-0.7845,-4.589,1.4395,1288,2019-08-07 16:14:29:099
1.129,-15.7439,-0.4125,2.4476,7.9137,2.1635,-0.7845,-4.589,1.4395,1293,2019-08-07 16:14:29:104
1.129,-15.7439,-0.4125,2.4476,7.9137,2.1635,-0.7845,-4.589,1.4395,1298,2019-08-07 16:14:29:109
1.1433,-14.2688,-1.6994,2.9261,6.0212,3.0457,-0.4276,-3.251,1.6387,1303,2019-08-07 16:14:29:114
1.1433,-14.2688,-1.6994,2.9261,6.0212,3.0457,-0.4276,-3.251,1.6387,1308,2019-08-07 16:14:29:119
1.1433,-14.2688,-1.6994,2.9261,6.0212,3.0457,-0.3925,-1.26,1.8113,1313,2019-08-07 16:14:29:124
1.3538,-14.2259,0.0777,2.2011,5.233,1.5734,-0.3925,-1.26,1.8113,1319,2019-08-07 16:14:29:130
1.3538,-14.2259,0.0777,2.2011,5.233,1.5734,-0.385,0.5104,1.5237,1322,2019-08-07 16:14:29:133
1.3538,-14.2259,0.0777,2.2011,5.233,1.5734,-0.385,0.5104,1.5237,1328,2019-08-07 16:14:29:139
-1.5167,-14.2879,0.7612,2.2011,5.233,1.5734,-0.2902,1.7728,1.2073,1333,2019-08-07 16:14:29:144
-1.5167,-14.2879,0.7612,6.3775,5.4268,0.8093,-0.2902,1.7728,1.2073,1338,2019-08-07 16:14:29:149
-1.5167,-14.2879,0.7612,6.3775,5.4268,0.8093,-0.2902,1.7728,1.2073,1343,2019-08-07 16:14:29:154
-3.8801,-14.7414,0.7424,7.7401,5.6793,0.6699,-0.3403,2.5291,0.8984,1348,2019-08-07 16:14:29:159
-3.8801,-14.7414,0.7424,7.7401,5.6793,0.6699,-0.3946,2.6516,0.4787,1354,2019-08-07 16:14:29:165
-6.0856,-14.1734,2.1141,7.7401,5.6793,0.6699,-0.3946,2.6516,0.4787,1358,2019-08-07 16:14:29:169
-6.0856,-14.1734,2.1141,7.7401,5.6793,0.6699,-0.3946,2.6516,0.4787,1363,2019-08-07 16:14:29:174
-6.5784,-12.4357,4.0986,9.5713,3.5392,-2.1356,-0.1549,2.1882,0.1676,1368,2019-08-07 16:14:29:179
-6.5784,-12.4357,4.0986,9.5713,3.5392,-2.1356,-0.1549,2.1882,0.1676,1372,2019-08-07 16:14:29:183
-6.5784,-12.4357,4.0986,9.5713,3.5392,-2.1356,0.2978,0.9152,-0.2404,1378,2019-08-07 16:14:29:189
-5.1096,-10.4211,4.1646,9.5713,3.5392,-2.1356,0.2978,0.9152,-0.2404,1383,2019-08-07 16:14:29:194
-5.1096,-10.4211,4.1646,7.204,0.1189,-2.0476,0.2978,0.9152,-0.2404,1388,2019-08-07 16:14:29:199
-5.1096,-10.4211,4.1646,7.204,0.1189,-2.0476,0.3276,-0.5655,-0.5994,1393,2019-08-07 16:14:29:204
-2.7701,-8.2395,3.4528,4.8803,-1.1281,-1.0298,0.3276,-0.5655,-0.5994,1399,2019-08-07 16:14:29:210
-2.7701,-8.2395,3.4528,4.8803,-1.1281,-1.0298,-0.0079,-1.815,-0.6878,1402,2019-08-07 16:14:29:213
-2.7701,-8.2395,3.4528,4.8803,-1.1281,-1.0298,-0.0079,-1.815,-0.6878,1408,2019-08-07 16:14:29:219
1.2295,-8.0724,1.7747,1.7221,-1.0971,0.0812,-0.2625,-2.3732,-0.7613,1413,2019-08-07 16:14:29:224
1.2295,-8.0724,1.7747,1.7221,-1.0971,0.0812,-0.2625,-2.3732,-0.7613,1418,2019-08-07 16:14:29:229
6.119,-9.3232,1.77,1.7221,-1.0971,0.0812,-0.4244,-2.9176,-0.8646,1423,2019-08-07 16:14:29:234
6.119,-9.3232,1.77,-3.695,0.3969,0.5344,-0.4244,-2.9176,-0.8646,1428,2019-08-07 16:14:29:239
6.119,-9.3232,1.77,-3.695,0.3969,0.5344,-0.1379,-2.7003,-0.8316,1434,2019-08-07 16:14:29:245
7.6069,-9.433,-0.3512,-3.695,0.3969,0.5344,-0.1379,-2.7003,-0.8316,1437,2019-08-07 16:14:29:248
7.6069,-9.433,-0.3512,-3.695,0.3969,0.5344,0.2957,-1.4752,-0.4364,1443,2019-08-07 16:14:29:254
8.2241,-8.8458,-1.7983,-4.8017,-0.2293,3.2701,0.2957,-1.4752,-0.4364,1449,2019-08-07 16:14:29:260
8.2241,-8.8458,-1.7983,-4.8017,-0.2293,3.2701,0.2957,-1.4752,-0.4364,1453,2019-08-07 16:14:29:264
8.2241,-8.8458,-1.7983,-4.8017,-0.2293,3.2701,0.3255,-0.117,0.0717,1458,2019-08-07 16:14:29:269
7.3677,-8.0533,-1.4071,-4.8017,-0.2293,3.2701,0.3255,-0.117,0.0717,1464,2019-08-07 16:14:29:275
7.3677,-8.0533,-1.4071,-3.4809,-1.1682,2.1866,0.138,1.0356,0.2528,1468,2019-08-07 16:14:29:279
7.3677,-8.0533,-1.4071,-3.4809,-1.1682,2.1866,0.138,1.0356,0.2528,1472,2019-08-07 16:14:29:283
5.5927,-7.7287,0.5633,-3.4809,-1.1682,2.1866,-0.1347,1.6098,0.1676,1478,2019-08-07 16:14:29:289
5.5927,-7.7287,0.5633,-3.4809,-1.1682,2.1866,-0.1347,1.6098,0.1676,1483,2019-08-07 16:14:29:294
5.5927,-7.7287,0.5633,-3.4809,-1.1682,2.1866,-0.2721,1.5938,0.0728,1487,2019-08-07 16:14:29:298
2.9423,-8.0486,2.5148,0.4306,-1.026,-0.93,-0.2721,1.5938,0.0728,1493,2019-08-07 16:14:29:304
2.9423,-8.0486,2.5148,0.4306,-1.026,-0.93,-0.2401,1.2359,0.0653,1498,2019-08-07 16:14:29:309
2.1864,-8.8792,3.1276,1.1549,-0.202,-1.5137,-0.2401,1.2359,0.0653,1503,2019-08-07 16:14:29:314
2.1864,-8.8792,3.1276,1.1549,-0.202,-1.5137,-0.2401,1.2359,0.0653,1508,2019-08-07 16:14:29:319
2.1337,-9.2468,3.2643,1.1549,-0.202,-1.5137,-0.0804,0.7331,0.0227,1513,2019-08-07 16:14:29:324
2.1337,-9.2468,3.2643,1.1549,-0.202,-1.5137,-0.0804,0.7331,0.0227,1518,2019-08-07 16:14:29:329
2.1337,-9.2468,3.2643,1.0427,-0.1033,-1.5002,0.0209,0.1632,-0.0252,1523,2019-08-07 16:14:29:334
2.5404,-8.7121,2.9485,1.0427,-0.1033,-1.5002,0.0209,0.1632,-0.0252,1528,2019-08-07 16:14:29:339
2.5404,-8.7121,2.9485,1.0427,-0.1033,-1.5002,0.0187,-0.1681,-0.0497,1534,2019-08-07 16:14:29:345
2.5404,-8.7121,2.9485,1.0427,-0.1033,-1.5002,0.0187,-0.1681,-0.0497,1537,2019-08-07 16:14:29:348
3.2389,-8.3827,2.1943,0.0675,-0.7011,-0.5243,-0.0633,-0.3588,-0.0529,1543,2019-08-07 16:14:29:354
3.2389,-8.3827,2.1943,0.0675,-0.7011,-0.5243,-0.0633,-0.3588,-0.0529,1548,2019-08-07 16:14:29:359
4.0905,-8.631,1.7559,0.0675,-0.7011,-0.5243,-0.0633,-0.3588,-0.0529,1553,2019-08-07 16:14:29:364
4.0905,-8.631,1.7559,0.0675,-0.7011,-0.5243,-0.1677,-0.3705,-0.0529,1558,2019-08-07 16:14:29:369
4.0905,-8.631,1.7559,-1.1244,-0.2359,0.048,-0.1677,-0.3705,-0.0529,1563,2019-08-07 16:14:29:374
4.7412,-8.9365,1.5202,-1.1244,-0.2359,0.048,-0.1826,-0.2289,-0.0774,1567,2019-08-07 16:14:29:378
4.7412,-8.9365,1.5202,-1.1244,-0.2359,0.048,-0.1826,-0.2289,-0.0774,1573,2019-08-07 16:14:29:384
4.7412,-8.9365,1.5202,-1.1244,-0.2359,0.048,-0.1357,-0.0392,-0.1094,1578,2019-08-07 16:14:29:389
4.7507,-9.0081,1.4778,-1.3849,-0.0695,0.1051,-0.1357,-0.0392,-0.1094,1583,2019-08-07 16:14:29:394
4.7507,-9.0081,1.4778,-1.3849,-0.0695,0.1051,-0.0431,0.2186,-0.1488,1588,2019-08-07 16:14:29:399
4.2436,-8.7169,1.5579,-1.3849,-0.0695,0.1051,-0.0431,0.2186,-0.1488,1593,2019-08-07 16:14:29:404
4.2436,-8.7169,1.5579,-1.3849,-0.0695,0.1051,-0.0431,0.2186,-0.1488,1598,2019-08-07 16:14:29:409
4.2436,-8.7169,1.5579,-0.4491,-0.526,-7.0E-4,0.0017,0.3262,-0.152,1602,2019-08-07 16:14:29:413
3.7269,-8.5355,1.572,-0.4491,-0.526,-7.0E-4,0.0017,0.3262,-0.152,1608,2019-08-07 16:14:29:419
3.7269,-8.5355,1.572,-0.4491,-0.526,-7.0E-4,0.0091,0.3411,-0.1413,1613,2019-08-07 16:14:29:424
3.7269,-8.5355,1.572,-0.4491,-0.526,-7.0E-4,0.0091,0.3411,-0.1413,1618,2019-08-07 16:14:29:429
3.4877,-8.6692,1.9397,-0.043,-0.3951,-0.3566,0.0208,0.2377,-0.1488,1623,2019-08-07 16:14:29:434
3.4877,-8.6692,1.9397,-0.043,-0.3951,-0.3566,0.0208,0.2377,-0.1488,1628,2019-08-07 16:14:29:439
3.2006,-8.7503,2.0953,-0.043,-0.3951,-0.3566,0.0517,0.1163,-0.1573,1633,2019-08-07 16:14:29:444
3.2006,-8.7503,2.0953,-0.043,-0.3951,-0.3566,0.0517,0.1163,-0.1573,1638,2019-08-07 16:14:29:449
3.2006,-8.7503,2.0953,0.1091,-0.249,-0.1659,0.0517,0.1163,-0.1573,1643,2019-08-07 16:14:29:454
3.3824,-8.8028,1.7087,0.1091,-0.249,-0.1659,0.0368,-0.0275,-0.1221,1649,2019-08-07 16:14:29:460
3.3824,-8.8028,1.7087,0.1091,-0.249,-0.1659,-0.0026,-0.0744,-0.1136,1653,2019-08-07 16:14:29:464
3.8082,-8.841,1.5013,0.1091,-0.249,-0.1659,-0.0026,-0.0744,-0.1136,1658,2019-08-07 16:14:29:469
3.8082,-8.841,1.5013,-0.3823,-0.1632,0.2191,-0.0303,-0.0222,-0.1179,1663,2019-08-07 16:14:29:474
3.9279,-8.8267,1.3034,-0.3823,-0.1632,0.2191,-0.0303,-0.0222,-0.1179,1668,2019-08-07 16:14:29:479
3.9279,-8.8267,1.3034,-0.3823,-0.1632,0.2191,-0.0303,-0.0222,-0.1179,1673,2019-08-07 16:14:29:484
3.9279,-8.8267,1.3034,-0.3823,-0.1632,0.2191,-0.058,0.0641,-0.1232,1678,2019-08-07 16:14:29:489
3.8848,-8.9699,1.1148,-0.4007,-0.0553,0.5107,-0.058,0.0641,-0.1232,1682,2019-08-07 16:14:29:493
3.8848,-8.9699,1.1148,-0.4007,-0.0553,0.5107,-0.0846,0.1696,-0.1285,1688,2019-08-07 16:14:29:499
3.7795,-9.0081,1.4683,-0.2851,-0.0138,0.1539,-0.0846,0.1696,-0.1285,1693,2019-08-07 16:14:29:504
3.7795,-9.0081,1.4683,-0.2851,-0.0138,0.1539,-0.0718,0.1898,-0.136,1699,2019-08-07 16:14:29:510
3.7795,-9.0081,1.4683,-0.2851,-0.0138,0.1539,-0.0718,0.1898,-0.136,1704,2019-08-07 16:14:29:515
3.5738,-9.032,1.7134,-0.2851,-0.0138,0.1539,-0.0335,0.1717,-0.1413,1708,2019-08-07 16:14:29:519
3.5738,-9.032,1.7134,-0.0451,0.0137,-0.2713,-0.0335,0.1717,-0.1413,1713,2019-08-07 16:14:29:524
3.5164,-8.9174,1.8596,-0.0451,0.0137,-0.2713,-0.0026,0.1312,-0.136,1718,2019-08-07 16:14:29:529
3.5164,-8.9174,1.8596,-0.0451,0.0137,-0.2713,-0.0026,0.1312,-0.136,1723,2019-08-07 16:14:29:534
3.5164,-8.9174,1.8596,-0.0451,0.0137,-0.2713,0.0027,0.0843,-0.1147,1728,2019-08-07 16:14:29:539
3.6647,-8.8076,1.671,-0.1309,-0.1967,-0.0369,0.0027,0.0843,-0.1147,1734,2019-08-07 16:14:29:545
3.6647,-8.8076,1.671,-0.1309,-0.1967,-0.0369,-0.0292,0.0066,-0.0742,1738,2019-08-07 16:14:29:549
3.6647,-8.8076,1.671,-0.1309,-0.1967,-0.0369,-0.0292,0.0066,-0.0742,1743,2019-08-07 16:14:29:554
3.923,-8.8219,1.8879,-0.1309,-0.1967,-0.0369,-0.0292,0.0066,-0.0742,1748,2019-08-07 16:14:29:559
3.923,-8.8219,1.8879,-0.5283,-0.0872,-0.1601,-0.0377,-0.0584,-0.0337,1754,2019-08-07 16:14:29:565
3.923,-8.8219,1.8879,-0.5283,-0.0872,-0.1601,-0.0377,-0.0584,-0.0337,1758,2019-08-07 16:14:29:569
4.2771,-8.9794,1.605,-0.5283,-0.0872,-0.1601,-0.026,-0.0541,0.0057,1763,2019-08-07 16:14:29:574
4.2771,-8.9794,1.605,-0.5283,-0.0872,-0.1601,-0.026,-0.0541,0.0057,1768,2019-08-07 16:14:29:579
4.4158,-8.9508,1.3788,-0.8629,-0.0486,0.241,-0.0292,-0.0115,0.027,1773,2019-08-07 16:14:29:584
4.4158,-8.9508,1.3788,-0.8629,-0.0486,0.241,-0.0292,-0.0115,0.027,1779,2019-08-07 16:14:29:590
4.3584,-8.9126,1.0771,-0.8059,-0.0877,0.5383,-0.0409,0.0481,0.0355,1783,2019-08-07 16:14:29:594
4.3584,-8.9126,1.0771,-0.8059,-0.0877,0.5383,-0.0409,0.0481,0.0355,1788,2019-08-07 16:14:29:599
4.3584,-8.9126,1.0771,-0.8059,-0.0877,0.5383,-0.0452,0.1376,0.0249,1793,2019-08-07 16:14:29:604
4.2962,-8.8696,1.3646,-0.8059,-0.0877,0.5383,-0.0452,0.1376,0.0249,1798,2019-08-07 16:14:29:609
4.2962,-8.8696,1.3646,-0.5311,-0.122,0.0115,-0.0058,0.1877,-0.0018,1803,2019-08-07 16:14:29:614
4.2962,-8.8696,1.3646,-0.5311,-0.122,0.0115,-0.0058,0.1877,-0.0018,1808,2019-08-07 16:14:29:619
3.8369,-8.8649,1.638,-0.5311,-0.122,0.0115,-0.0058,0.1877,-0.0018,1812,2019-08-07 16:14:29:623
3.8369,-8.8649,1.638,-0.5311,-0.122,0.0115,0.0624,0.2164,-0.0241,1819,2019-08-07 16:14:29:630
3.3872,-8.6453,1.7512,-0.5311,-0.122,0.0115,0.0624,0.2164,-0.0241,1823,2019-08-07 16:14:29:634
3.3872,-8.6453,1.7512,0.161,-0.3522,-0.1104,0.0762,0.1035,-0.0348,1828,2019-08-07 16:14:29:639
3.3872,-8.6453,1.7512,0.161,-0.3522,-0.1104,0.0762,0.1035,-0.0348,1833,2019-08-07 16:14:29:644
3.3968,-8.6166,1.9868,0.161,-0.3522,-0.1104,0.0741,-0.051,-0.0561,1838,2019-08-07 16:14:29:649
3.3968,-8.6166,1.9868,0.161,-0.3522,-0.1104,0.0741,-0.051,-0.0561,1843,2019-08-07 16:14:29:654
3.7652,-8.5784,1.8737,-0.0364,-0.3888,-0.3434,0.0603,-0.1596,-0.0795,1849,2019-08-07 16:14:29:660
3.7652,-8.5784,1.8737,-0.0364,-0.3888,-0.3434,0.0603,-0.1596,-0.0795,1853,2019-08-07 16:14:29:664
3.7652,-8.5784,1.8737,-0.0364,-0.3888,-0.3434,0.0603,-0.1596,-0.0795,1858,2019-08-07 16:14:29:669
4.2197,-8.4925,1.7606,-0.0364,-0.3888,-0.3434,0.0145,-0.2097,-0.0891,1862,2019-08-07 16:14:29:673
4.2197,-8.4925,1.7606,-0.7088,-0.4033,-0.0659,0.0145,-0.2097,-0.0891,1868,2019-08-07 16:14:29:679
4.2197,-8.4925,1.7606,-0.7088,-0.4033,-0.0659,-0.0164,-0.1458,-0.0699,1873,2019-08-07 16:14:29:684
4.6168,-8.6357,1.572,-0.7088,-0.4033,-0.0659,-0.0164,-0.1458,-0.0699,1878,2019-08-07 16:14:29:689
4.6168,-8.6357,1.572,-1.0821,-0.253,0.1373,-0.0324,-0.0712,-0.0486,1883,2019-08-07 16:14:29:694
4.6168,-8.6357,1.572,-1.0821,-0.253,0.1373,-0.0324,-0.0712,-0.0486,1888,2019-08-07 16:14:29:699
4.6455,-8.7694,1.44,-1.0821,-0.253,0.1373,-0.0505,0.0492,-0.0114,1893,2019-08-07 16:14:29:704
4.6455,-8.7694,1.44,-1.0821,-0.253,0.1373,-0.0505,0.0492,-0.0114,1898,2019-08-07 16:14:29:709
4.6455,-8.7694,1.44,-1.0821,-0.253,0.1373,-0.0505,0.0492,-0.0114,1903,2019-08-07 16:14:29:714
4.4684,-8.8744,1.6003,-0.8548,-0.0985,0.0322,-0.0527,0.1589,0.0078,1908,2019-08-07 16:14:29:719
4.4684,-8.8744,1.6003,-0.8548,-0.0985,0.0322,-0.0527,0.1589,0.0078,1913,2019-08-07 16:14:29:724
4.0092,-8.8506,1.7134,-0.3972,-0.1226,-0.0788,-0.0356,0.1696,0.0163,1919,2019-08-07 16:14:29:730
4.0092,-8.8506,1.7134,-0.3972,-0.1226,-0.0788,-0.0356,0.1696,0.0163,1923,2019-08-07 16:14:29:734
4.0092,-8.8506,1.7134,-0.3972,-0.1226,-0.0788,-0.0282,0.1142,0.0238,1928,2019-08-07 16:14:29:739
3.7221,-8.9413,1.8219,-0.3972,-0.1226,-0.0788,-0.0282,0.1142,0.0238,1934,2019-08-07 16:14:29:745
3.7221,-8.9413,1.8219,-0.0928,-0.1103,-0.3013,-0.0282,0.1142,0.0238,1938,2019-08-07 16:14:29:749
3.7221,-8.9413,1.8219,-0.0928,-0.1103,-0.3013,-0.026,-0.0584,0.0153,1942,2019-08-07 16:14:29:753
3.6456,-8.8315,1.9161,-0.0928,-0.1103,-0.3013,-0.026,-0.0584,0.0153,1948,2019-08-07 16:14:29:759
3.6456,-8.8315,1.9161,-0.0928,-0.1103,-0.3013,-0.0228,-0.1436,0.0142,1953,2019-08-07 16:14:29:764
3.6456,-8.8315,1.9161,-0.326,-0.164,0.0053,-0.0228,-0.1436,0.0142,1958,2019-08-07 16:14:29:769
3.9661,-8.7455,1.5626,-0.326,-0.164,0.0053,-0.0463,-0.1671,-0.0018,1963,2019-08-07 16:14:29:774
3.9661,-8.7455,1.5626,-0.326,-0.164,0.0053,-0.0463,-0.1671,-0.0018,1968,2019-08-07 16:14:29:779
4.3489,-8.736,1.506,-0.326,-0.164,0.0053,-0.0463,-0.1671,-0.0018,1973,2019-08-07 16:14:29:784
4.3489,-8.736,1.506,-0.7654,-0.2113,0.14,-0.0665,-0.1021,-0.0103,1978,2019-08-07 16:14:29:789
4.3728,-8.7742,1.3081,-0.7654,-0.2113,0.14,-0.0665,-0.1021,-0.0103,1983,2019-08-07 16:14:29:794
4.3728,-8.7742,1.3081,-0.7654,-0.2113,0.14,-0.0665,0.0364,4.0E-4,1988,2019-08-07 16:14:29:799
4.3728,-8.7742,1.3081,-0.7654,-0.2113,0.14,-0.0665,0.0364,4.0E-4,1993,2019-08-07 16:14:29:804
4.234,-8.7455,1.4495,-0.6106,-0.2303,0.1447,-0.0665,0.1046,-0.0018,1998,2019-08-07 16:14:29:809
4.234,-8.7455,1.4495,-0.6106,-0.2303,0.1447,-0.0665,0.1046,-0.0018,2003,2019-08-07 16:14:29:814
4.234,-8.7455,1.4495,-0.6106,-0.2303,0.1447,-0.0665,0.1046,-0.0018,2008,2019-08-07 16:14:29:819
3.746,-8.7646,1.6805,-0.6106,-0.2303,0.1447,-0.0612,0.1131,0.0025,2013,2019-08-07 16:14:29:824
3.746,-8.7646,1.6805,-0.0522,-0.1932,-0.1367,-0.0612,0.1131,0.0025,2019,2019-08-07 16:14:29:830
3.746,-8.7646,1.6805,-0.0522,-0.1932,-0.1367,-0.0409,0.0012,0.0163,2023,2019-08-07 16:14:29:834
3.7221,-8.8649,1.7276,-0.0522,-0.1932,-0.1367,-0.0409,0.0012,0.0163,2028,2019-08-07 16:14:29:839
3.7221,-8.8649,1.7276,-0.0522,-0.1932,-0.1367,-0.025,-0.0733,0.0089,2033,2019-08-07 16:14:29:844
3.9183,-8.8362,1.6475,-0.2337,-0.1227,-0.1296,-0.025,-0.0733,0.0089,2039,2019-08-07 16:14:29:850
3.9183,-8.8362,1.6475,-0.2337,-0.1227,-0.1296,0.0102,-0.1436,-0.0039,2043,2019-08-07 16:14:29:854
3.9183,-8.8362,1.6475,-0.2337,-0.1227,-0.1296,0.0102,-0.1436,-0.0039,2047,2019-08-07 16:14:29:858
4.1671,-8.8267,1.4731,-0.2337,-0.1227,-0.1296,0.0208,-0.1074,-0.0103,2054,2019-08-07 16:14:29:865
4.1671,-8.8267,1.4731,-0.6839,-0.149,0.1128,0.0208,-0.1074,-0.0103,2058,2019-08-07 16:14:29:869
4.1671,-8.8267,1.4731,-0.6839,-0.149,0.1128,0.0208,-0.1074,-0.0103,2062,2019-08-07 16:14:29:873
4.3441,-8.736,1.3411,-0.6839,-0.149,0.1128,0.0017,-0.0275,-0.0124,2067,2019-08-07 16:14:29:878
4.3441,-8.736,1.3411,-0.6839,-0.149,0.1128,0.0017,-0.0275,-0.0124,2073,2019-08-07 16:14:29:884
4.3441,-8.736,1.3411,-0.671,-0.1798,0.3163,-0.025,0.0598,-0.0103,2078,2019-08-07 16:14:29:889
4.2819,-8.8219,1.2704,-0.671,-0.1798,0.3163,-0.025,0.0598,-0.0103,2084,2019-08-07 16:14:29:895
4.2819,-8.8219,1.2704,-0.671,-0.1798,0.3163,-0.0441,0.1291,-0.0018,2087,2019-08-07 16:14:29:898
4.0857,-8.9699,1.506,-0.671,-0.1798,0.3163,-0.0441,0.1291,-0.0018,2093,2019-08-07 16:14:29:904
4.0857,-8.9699,1.506,-0.3692,0.0255,0.0379,-0.0356,0.1024,0.0046,2098,2019-08-07 16:14:29:909
4.0857,-8.9699,1.506,-0.3692,0.0255,0.0379,-0.0356,0.1024,0.0046,2103,2019-08-07 16:14:29:914
3.8417,-8.9365,1.6427,-0.3692,0.0255,0.0379,-0.0356,0.1024,0.0046,2108,2019-08-07 16:14:29:919
3.8417,-8.9365,1.6427,-0.3692,0.0255,0.0379,-0.0186,0.0375,0.0089,2113,2019-08-07 16:14:29:924
3.8609,-8.841,1.6993,-0.2223,-0.1326,-0.1275,-0.0186,0.0375,0.0089,2118,2019-08-07 16:14:29:929
3.8609,-8.841,1.6993,-0.2223,-0.1326,-0.1275,-0.0037,-0.1095,0.0259,2123,2019-08-07 16:14:29:934
3.8609,-8.841,1.6993,-0.2223,-0.1326,-0.1275,-0.0037,-0.1095,0.0259,2128,2019-08-07 16:14:29:939
4.1814,-8.8124,1.6192,-0.2223,-0.1326,-0.1275,0.0081,-0.1671,0.0217,2134,2019-08-07 16:14:29:945
4.1814,-8.8124,1.6192,-0.5724,-0.2138,-0.0285,0.0081,-0.1671,0.0217,2137,2019-08-07 16:14:29:948
4.2341,-8.7503,1.5532,-0.5724,-0.2138,-0.0285,0.0251,-0.1617,0.0227,2143,2019-08-07 16:14:29:954
4.2341,-8.7503,1.5532,-0.5724,-0.2138,-0.0285,0.0251,-0.1617,0.0227,2148,2019-08-07 16:14:29:959
4.2341,-8.7503,1.5532,-0.5724,-0.2138,-0.0285,0.0251,-0.1617,0.0227,2153,2019-08-07 16:14:29:964
4.2963,-8.7551,1.4636,-0.5724,-0.2138,-0.0285,0.0347,-0.0488,0.0334,2158,2019-08-07 16:14:29:969
4.2963,-8.7551,1.4636,-0.6499,-0.2367,0.1329,0.0347,-0.0488,0.0334,2162,2019-08-07 16:14:29:973
4.0762,-8.8458,1.5673,-0.6499,-0.2367,0.1329,0.0187,0.0439,0.0334,2169,2019-08-07 16:14:29:980
4.0762,-8.8458,1.5673,-0.6499,-0.2367,0.1329,0.0187,0.0439,0.0334,2172,2019-08-07 16:14:29:983
4.0762,-8.8458,1.5673,-0.6499,-0.2367,0.1329,0.0102,0.0897,0.0376,2178,2019-08-07 16:14:29:989
3.7604,-8.9413,1.7795,-0.1955,-0.0514,-0.2185,0.0102,0.0897,0.0376,2184,2019-08-07 16:14:29:995
3.7604,-8.9413,1.7795,-0.1955,-0.0514,-0.2185,0.0123,0.0769,0.0366,2188,2019-08-07 16:14:29:999
3.7604,-8.9413,1.7795,-0.1955,-0.0514,-0.2185,0.0123,0.0769,0.0366,2193,2019-08-07 16:14:30:004
3.6504,-8.9556,1.803,-0.002,-0.0575,-0.223,0.0187,0.0353,0.0185,2198,2019-08-07 16:14:30:009
3.6504,-8.9556,1.803,-0.002,-0.0575,-0.223,0.0187,0.0353,0.0185,2203,2019-08-07 16:14:30:014
3.6504,-8.9556,1.803,-0.002,-0.0575,-0.223,0.0187,-0.0488,0.0131,2208,2019-08-07 16:14:30:019
3.5691,-8.8697,1.6993,-0.002,-0.0575,-0.223,0.0187,-0.0488,0.0131,2213,2019-08-07 16:14:30:024
3.5691,-8.8697,1.6993,-0.1126,-0.1387,-0.0807,0.0251,-0.1085,0.0142,2218,2019-08-07 16:14:30:029
3.77,-8.8267,1.704,-0.1126,-0.1387,-0.0807,0.0251,-0.1085,0.0142,2223,2019-08-07 16:14:30:034
3.77,-8.8267,1.704,-0.1126,-0.1387,-0.0807,0.0336,-0.1543,0.0046,2228,2019-08-07 16:14:30:039
3.77,-8.8267,1.704,-0.1126,-0.1387,-0.0807,0.0336,-0.1543,0.0046,2233,2019-08-07 16:14:30:044
3.8466,-8.7551,1.6286,-0.2973,-0.1991,0.0455,0.0336,-0.199,4.0E-4,2238,2019-08-07 16:14:30:049
3.8466,-8.7551,1.6286,-0.2973,-0.1991,0.0455,0.0336,-0.199,4.0E-4,2243,2019-08-07 16:14:30:054
4.0762,-8.8267,1.5343,-0.2973,-0.1991,0.0455,0.0283,-0.2193,-7.0E-4,2248,2019-08-07 16:14:30:059
4.0762,-8.8267,1.5343,-0.2973,-0.1991,0.0455,0.0283,-0.2193,-7.0E-4,2253,2019-08-07 16:14:30:064
4.0762,-8.8267,1.5343,-0.2973,-0.1991,0.0455,0.0283,-0.2193,-7.0E-4,2257,2019-08-07 16:14:30:068
4.1767,-8.8935,1.5343,-0.5255,-0.0771,0.0254,0.0379,-0.199,-0.0103,2263,2019-08-07 16:14:30:074
4.1767,-8.8935,1.5343,-0.5255,-0.0771,0.0254,0.0379,-0.199,-0.0103,2268,2019-08-07 16:14:30:079
4.3058,-8.8458,1.4306,-0.5255,-0.0771,0.0254,0.0496,-0.1351,-0.0082,2273,2019-08-07 16:14:30:084
4.3058,-8.8458,1.4306,-0.5255,-0.0771,0.0254,0.0496,-0.1351,-0.0082,2277,2019-08-07 16:14:30:088
4.3058,-8.8458,1.4306,-0.6487,-0.121,0.2156,0.0454,-0.0414,-0.0071,2283,2019-08-07 16:14:30:094
4.2341,-8.8219,1.4683,-0.6487,-0.121,0.2156,0.0454,-0.0414,-0.0071,2287,2019-08-07 16:14:30:098
4.2341,-8.8219,1.4683,-0.6487,-0.121,0.2156,0.0368,0.0343,0.0046,2293,2019-08-07 16:14:30:104
4.0188,-8.7599,1.6286,-0.6487,-0.121,0.2156,0.0368,0.0343,0.0046,2298,2019-08-07 16:14:30:109
4.0188,-8.7599,1.6286,-0.2963,-0.2138,-0.0359,0.0294,0.0364,0.0142,2303,2019-08-07 16:14:30:114
4.0188,-8.7599,1.6286,-0.2963,-0.2138,-0.0359,0.0294,0.0364,0.0142,2308,2019-08-07 16:14:30:119
3.837,-8.7885,1.6946,-0.2963,-0.2138,-0.0359,0.0262,0.0044,0.0121,2313,2019-08-07 16:14:30:124
3.837,-8.7885,1.6946,-0.2963,-0.2138,-0.0359,0.0262,0.0044,0.0121,2318,2019-08-07 16:14:30:129
3.837,-8.7885,1.6946,-0.0869,-0.1557,-0.1887,0.0262,0.0044,0.0121,2323,2019-08-07 16:14:30:134
3.8035,-8.779,1.803,-0.0869,-0.1557,-0.1887,0.04,-0.0733,0.0068,2327,2019-08-07 16:14:30:138
3.8035,-8.779,1.803,-0.0869,-0.1557,-0.1887,0.04,-0.0733,0.0068,2334,2019-08-07 16:14:30:145
3.8035,-8.779,1.803,-0.0869,-0.1557,-0.1887,0.0688,-0.1649,0.0014,2337,2019-08-07 16:14:30:148
3.9375,-8.736,1.7323,-0.2693,-0.2251,-0.1577,0.0688,-0.1649,0.0014,2343,2019-08-07 16:14:30:154
3.9375,-8.736,1.7323,-0.2693,-0.2251,-0.1577,0.0858,-0.1809,-7.0E-4,2348,2019-08-07 16:14:30:159
3.9375,-8.736,1.7323,-0.2693,-0.2251,-0.1577,0.0858,-0.1809,-7.0E-4,2353,2019-08-07 16:14:30:164
4.2293,-8.7551,1.5862,-0.2693,-0.2251,-0.1577,0.0858,-0.1809,-7.0E-4,2358,2019-08-07 16:14:30:169
4.2293,-8.7551,1.5862,-0.6332,-0.2305,0.0189,0.0816,-0.1607,0.0014,2364,2019-08-07 16:14:30:175
4.3394,-8.7503,1.5862,-0.6332,-0.2305,0.0189,0.0816,-0.1607,0.0014,2368,2019-08-07 16:14:30:179
4.3394,-8.7503,1.5862,-0.6332,-0.2305,0.0189,0.0677,-0.0968,-0.0018,2373,2019-08-07 16:14:30:184
4.3394,-8.7503,1.5862,-0.6332,-0.2305,0.0189,0.0677,-0.0968,-0.0018,2377,2019-08-07 16:14:30:188
4.3441,-8.7503,1.5249,-0.6532,-0.1354,-1.0E-4,0.0528,-0.051,-0.0018,2383,2019-08-07 16:14:30:194
4.3441,-8.7503,1.5249,-0.6532,-0.1354,-1.0E-4,0.0528,-0.051,-0.0018,2388,2019-08-07 16:14:30:199
4.3441,-8.7503,1.5249,-0.6532,-0.1354,-1.0E-4,0.0208,0.0012,0.0025,2392,2019-08-07 16:14:30:203
4.2389,-8.8601,1.6333,-0.6532,-0.1354,-1.0E-4,0.0208,0.0012,0.0025,2398,2019-08-07 16:14:30:209
4.2389,-8.8601,1.6333,-0.4058,-0.1475,-0.1181,0.007,0.0226,0.0142,2403,2019-08-07 16:14:30:214
4.0236,-8.8171,1.638,-0.4058,-0.1475,-0.1181,0.007,0.0226,0.0142,2408,2019-08-07 16:14:30:219
4.0236,-8.8171,1.638,-0.4058,-0.1475,-0.1181,-0.0037,-0.002,0.0259,2413,2019-08-07 16:14:30:224
4.0236,-8.8124,1.737,-0.4058,-0.1475,-0.1181,-0.0037,-0.002,0.0259,2418,2019-08-07 16:14:30:229
4.0236,-8.8124,1.737,-0.3164,-0.1383,-0.1923,-0.0037,-0.002,0.0259,2423,2019-08-07 16:14:30:234
4.0236,-8.8124,1.737,-0.3164,-0.1383,-0.1923,0.0017,-0.0307,0.0259,2428,2019-08-07 16:14:30:239
4.0236,-8.7217,1.7465,-0.3359,-0.2197,-0.141,0.0017,-0.0307,0.0259,2432,2019-08-07 16:14:30:243
4.0236,-8.7217,1.7465,-0.3359,-0.2197,-0.141,0.0145,-0.0882,0.0227,2438,2019-08-07 16:14:30:249
4.0236,-8.7217,1.7465,-0.3359,-0.2197,-0.141,0.0145,-0.0882,0.0227,2443,2019-08-07 16:14:30:254
4.1576,-8.7074,1.5626,-0.3359,-0.2197,-0.141,0.0272,-0.0882,0.0174,2448,2019-08-07 16:14:30:259
4.1576,-8.7074,1.5626,-0.5342,-0.2907,-0.0303,0.0272,-0.0882,0.0174,2452,2019-08-07 16:14:30:263
4.1576,-8.7074,1.5626,-0.5342,-0.2907,-0.0303,0.0272,-0.0882,0.0174,2458,2019-08-07 16:14:30:269
4.2341,-8.6835,1.5909,-0.5342,-0.2907,-0.0303,0.0454,-0.0563,0.0046,2464,2019-08-07 16:14:30:275
4.2341,-8.6835,1.5909,-0.5342,-0.2907,-0.0303,0.0454,-0.0563,0.0046,2468,2019-08-07 16:14:30:279
4.1145,-8.6023,1.5956,-0.4186,-0.3446,-0.0055,0.0539,-0.0041,-0.006,2473,2019-08-07 16:14:30:284
4.1145,-8.6023,1.5956,-0.4186,-0.3446,-0.0055,0.0539,-0.0041,-0.006,2478,2019-08-07 16:14:30:289
3.971,-8.6692,1.6003,-0.2733,-0.2761,-0.0048,0.0464,0.0268,-0.0092,2484,2019-08-07 16:14:30:295
3.971,-8.6692,1.6003,-0.2733,-0.2761,-0.0048,0.0464,0.0268,-0.0092,2487,2019-08-07 16:14:30:298
3.971,-8.6692,1.6003,-0.2733,-0.2761,-0.0048,0.0294,0.0247,-0.005,2493,2019-08-07 16:14:30:304
4.0093,-8.7503,1.6286,-0.2733,-0.2761,-0.0048,0.0294,0.0247,-0.005,2498,2019-08-07 16:14:30:309
4.0093,-8.7503,1.6286,-0.2796,-0.1732,-0.1014,0.0177,-0.002,-0.0145,2503,2019-08-07 16:14:30:314
4.0093,-8.7503,1.6286,-0.2796,-0.1732,-0.1014,0.0177,-0.002,-0.0145,2507,2019-08-07 16:14:30:318
4.0093,-8.8744,1.7842,-0.2796,-0.1732,-0.1014,0.0304,-0.0286,-0.0177,2513,2019-08-07 16:14:30:324
4.0093,-8.8744,1.7842,-0.2796,-0.1732,-0.1014,0.0304,-0.0286,-0.0177,2518,2019-08-07 16:14:30:329
4.0762,-8.8124,1.6003,-0.3981,-0.1271,0.0723,0.0304,-0.0286,-0.0177,2522,2019-08-07 16:14:30:333
4.0762,-8.8124,1.6003,-0.3981,-0.1271,0.0723,0.039,-0.0478,-0.0028,2528,2019-08-07 16:14:30:339
4.2054,-8.7551,1.5061,-0.3981,-0.1271,0.0723,0.039,-0.0478,-0.0028,2533,2019-08-07 16:14:30:344
4.2054,-8.7551,1.5061,-0.3981,-0.1271,0.0723,0.0272,-0.0286,0.0025,2537,2019-08-07 16:14:30:348
4.2054,-8.7551,1.5061,-0.3981,-0.1271,0.0723,0.0272,-0.0286,0.0025,2543,2019-08-07 16:14:30:354
4.1767,-8.7074,1.6098,-0.4269,-0.2632,-0.0054,0.0283,-0.0137,0.0089,2548,2019-08-07 16:14:30:359
4.1767,-8.7074,1.6098,-0.4269,-0.2632,-0.0054,0.0283,-0.0137,0.0089,2553,2019-08-07 16:14:30:364
4.0906,-8.6883,1.6333,-0.4269,-0.2632,-0.0054,0.0283,-0.0083,0.0131,2558,2019-08-07 16:14:30:369
4.0906,-8.6883,1.6333,-0.3483,-0.2185,-0.015,0.0283,-0.0083,0.0131,2563,2019-08-07 16:14:30:374
4.0906,-8.6883,1.6333,-0.3483,-0.2185,-0.015,0.0187,0.0023,0.0131,2568,2019-08-07 16:14:30:379
4.0475,-8.6453,1.7512,-0.3483,-0.2185,-0.015,0.0187,0.0023,0.0131,2573,2019-08-07 16:14:30:384
4.0475,-8.6453,1.7512,-0.3527,-0.323,-0.1589,0.0187,0.0023,0.0131,2578,2019-08-07 16:14:30:389
4.0284,-8.6214,1.6616,-0.3527,-0.323,-0.1589,0.0145,0.0055,0.0089,2583,2019-08-07 16:14:30:394
4.0284,-8.6214,1.6616,-0.3527,-0.323,-0.1589,-0.0015,0.0162,-7.0E-4,2588,2019-08-07 16:14:30:399
4.0284,-8.6214,1.6616,-0.3527,-0.323,-0.1589,-0.0015,0.0162,-7.0E-4,2593,2019-08-07 16:14:30:404
3.9997,-8.6835,1.6286,-0.2889,-0.2884,-0.0243,-0.0015,0.0162,-7.0E-4,2598,2019-08-07 16:14:30:409
3.9997,-8.6835,1.6286,-0.2889,-0.2884,-0.0243,-0.0292,0.0183,-0.006,2603,2019-08-07 16:14:30:414
3.9375,-8.7217,1.6616,-0.2889,-0.2884,-0.0243,-0.0292,0.0183,-0.006,2608,2019-08-07 16:14:30:419
3.9375,-8.7217,1.6616,-0.2889,-0.2884,-0.0243,-0.0367,0.0236,-0.0103,2614,2019-08-07 16:14:30:425
3.9375,-8.7217,1.6616,-0.2382,-0.1876,-0.0842,-0.0367,0.0236,-0.0103,2618,2019-08-07 16:14:30:429
3.9088,-8.7599,1.6711,-0.2382,-0.1876,-0.0842,-0.0335,0.014,-0.0103,2623,2019-08-07 16:14:30:434
3.9088,-8.7599,1.6711,-0.2382,-0.1876,-0.0842,-0.0335,0.014,-0.0103,2628,2019-08-07 16:14:30:439
3.9806,-8.7646,1.6663,-0.2589,-0.1679,-0.0554,-0.025,0.0055,-0.006,2634,2019-08-07 16:14:30:445
3.9806,-8.7646,1.6663,-0.2589,-0.1679,-0.0554,-0.025,0.0055,-0.006,2637,2019-08-07 16:14:30:448
3.9806,-8.7646,1.6663,-0.2589,-0.1679,-0.0554,-0.0175,-0.0105,4.0E-4,2643,2019-08-07 16:14:30:454
4.0667,-8.7599,1.5909,-0.2589,-0.1679,-0.0554,-0.0175,-0.0105,4.0E-4,2648,2019-08-07 16:14:30:459
4.0667,-8.7599,1.5909,-0.2589,-0.1679,-0.0554,-0.0122,-0.0094,0.0036,2653,2019-08-07 16:14:30:464
4.0667,-8.7599,1.5909,-0.3087,-0.1722,0.0113,-0.0122,-0.0094,0.0036,2658,2019-08-07 16:14:30:469
4.0476,-8.7885,1.5673,-0.3087,-0.1722,0.0113,-0.0047,-0.0137,0.0078,2663,2019-08-07 16:14:30:474
4.0476,-8.7885,1.5673,-0.3087,-0.1722,0.0113,-0.0047,-0.0137,0.0078,2668,2019-08-07 16:14:30:479
4.0476,-8.7885,1.5673,-0.3087,-0.1722,0.0113,-0.0047,-0.0137,0.0078,2673,2019-08-07 16:14:30:484
4.0476,-8.884,1.6758,-0.3212,-0.0477,-0.0709,-5.0E-4,-0.0233,0.0057,2678,2019-08-07 16:14:30:489
4.0476,-8.884,1.6758,-0.3212,-0.0477,-0.0709,-5.0E-4,-0.0233,0.0057,2683,2019-08-07 16:14:30:494
4.0428,-8.884,1.5485,-0.3212,-0.0477,-0.0709,-0.009,-0.0307,0.0046,2688,2019-08-07 16:14:30:499
4.0428,-8.884,1.5485,-0.3212,-0.0477,-0.0709,-0.009,-0.0307,0.0046,2692,2019-08-07 16:14:30:503
4.0428,-8.884,1.5485,-0.3089,-0.0522,-0.0033,-0.0132,-0.0339,0.0014,2698,2019-08-07 16:14:30:509
4.0564,-8.903,1.6049,-0.3089,-0.0522,-0.0033,-0.0132,-0.0339,0.0014,2703,2019-08-07 16:14:30:514
4.0564,-8.903,1.6049,-0.3089,-0.0522,-0.0033,-0.0132,-0.0339,0.0014,2708,2019-08-07 16:14:30:519
4.0564,-8.903,1.6049,-0.3089,-0.0522,-0.0033,-0.0111,-0.019,0.0046,2714,2019-08-07 16:14:30:525
4.1186,-8.9078,1.5861,-0.4163,-0.0376,0.0537,-0.0111,-0.019,0.0046,2718,2019-08-07 16:14:30:529
4.1186,-8.9078,1.5861,-0.4163,-0.0376,0.0537,-0.0079,0.0119,0.0142,2723,2019-08-07 16:14:30:534
4.1186,-8.86,1.5719,-0.4163,-0.0376,0.0537,-0.0079,0.0119,0.0142,2728,2019-08-07 16:14:30:539
4.1186,-8.86,1.5719,-0.4163,-0.0376,0.0537,-0.0026,0.0279,0.0195,2733,2019-08-07 16:14:30:544
4.1186,-8.86,1.5719,-0.321,-0.0998,-0.0312,-0.0026,0.0279,0.0195,2738,2019-08-07 16:14:30:549
4.0708,-8.7837,1.6662,-0.321,-0.0998,-0.0312,-0.0047,0.03,0.0227,2743,2019-08-07 16:14:30:554
4.0708,-8.7837,1.6662,-0.321,-0.0998,-0.0312,-0.0047,0.03,0.0227,2748,2019-08-07 16:14:30:559
3.9799,-8.7359,1.6803,-0.321,-0.0998,-0.0312,0.0038,0.014,0.0227,2753,2019-08-07 16:14:30:564
3.9799,-8.7359,1.6803,-0.2658,-0.1672,-0.0713,0.0038,0.014,0.0227,2757,2019-08-07 16:14:30:568
3.9799,-8.7359,1.6803,-0.2658,-0.1672,-0.0713,0.0145,-0.003,0.0281,2763,2019-08-07 16:14:30:574
3.9942,-8.7693,1.6662,-0.2658,-0.1672,-0.0713,0.0145,-0.003,0.0281,2769,2019-08-07 16:14:30:580
3.9942,-8.7693,1.6662,-0.2658,-0.1672,-0.0713,0.0145,-0.003,0.0281,2773,2019-08-07 16:14:30:584
3.9942,-8.7693,1.6662,-0.2441,-0.115,0.0121,0.0272,-0.0243,0.0206,2778,2019-08-07 16:14:30:589
3.9464,-8.7598,1.5955,-0.2441,-0.115,0.0121,0.0272,-0.0243,0.0206,2782,2019-08-07 16:14:30:593
3.9464,-8.7598,1.5955,-0.2441,-0.115,0.0121,0.0177,-0.0307,0.0078,2788,2019-08-07 16:14:30:599
3.9655,-8.7168,1.6096,-0.2441,-0.115,0.0121,0.0177,-0.0307,0.0078,2792,2019-08-07 16:14:30:603
3.9655,-8.7168,1.6096,-0.1854,-0.205,-0.0244,0.0166,-0.0254,-0.0039,2798,2019-08-07 16:14:30:609
3.9655,-8.7168,1.6096,-0.1854,-0.205,-0.0244,0.0166,-0.0254,-0.0039,2802,2019-08-07 16:14:30:613
3.9464,-8.755,1.5955,-0.1854,-0.205,-0.0244,0.0166,-0.0254,-0.0039,2808,2019-08-07 16:14:30:619
3.9464,-8.755,1.5955,-0.2409,-0.2136,-4.0E-4,0.0113,-0.0201,-0.0082,2813,2019-08-07 16:14:30:624
3.6402,-8.6595,1.4493,-0.2409,-0.2136,-4.0E-4,0.0113,-0.0201,-0.0082,2818,2019-08-07 16:14:30:629
3.6402,-8.6595,1.4493,-0.2409,-0.2136,-4.0E-4,-0.0835,-0.2182,-7.0E-4,2822,2019-08-07 16:14:30:633
3.6402,-8.6595,1.4493,-0.0295,-0.0994,-0.4631,-0.0835,-0.2182,-7.0E-4,2828,2019-08-07 16:14:30:639
3.8794,-8.8696,2.0763,-0.0295,-0.0994,-0.4631,-0.0196,-0.1671,-0.0135,2832,2019-08-07 16:14:30:643
3.8794,-8.8696,2.0763,-0.0295,-0.0994,-0.4631,-0.0196,-0.1671,-0.0135,2838,2019-08-07 16:14:30:649
4.2764,-8.8696,1.6049,-0.0295,-0.0994,-0.4631,0.0251,-0.1926,-0.0177,2843,2019-08-07 16:14:30:654
4.2764,-8.8696,1.6049,-0.0295,-0.0994,-0.4631,0.0251,-0.1926,-0.0177,2848,2019-08-07 16:14:30:659
4.2764,-8.8696,1.6049,-0.7549,-0.1018,0.0652,0.0251,-0.1926,-0.0177,2853,2019-08-07 16:14:30:664
5.0323,-8.755,1.2844,-0.7549,-0.1018,0.0652,0.0773,0.0524,-0.0188,2858,2019-08-07 16:14:30:669
5.0323,-8.755,1.2844,-0.7549,-0.1018,0.0652,0.0773,0.0524,-0.0188,2863,2019-08-07 16:14:30:674
4.4487,-8.4113,1.1807,-0.6928,-0.5115,0.4044,0.007,0.111,0.0014,2868,2019-08-07 16:14:30:679
4.4487,-8.4113,1.1807,-0.6928,-0.5115,0.4044,0.007,0.111,0.0014,2873,2019-08-07 16:14:30:684
4.4487,-8.4113,1.1807,-0.6928,-0.5115,0.4044,-0.0335,0.2313,0.0345,2878,2019-08-07 16:14:30:689
4.1138,-8.6691,1.7934,-0.6928,-0.5115,0.4044,-0.0335,0.2313,0.0345,2883,2019-08-07 16:14:30:694
4.1138,-8.6691,1.7934,-0.0987,-0.0977,-0.1821,-0.0281,0.2324,0.027,2888,2019-08-07 16:14:30:699