ACCELEROMETER X (m/s²),ACCELEROMETER Y (m/s²),ACCELEROMETER Z (m/s²),LINEAR ACCELERATION X (m/s²),LINEAR ACCELERATION Y (m/s²),LINEAR ACCELERATION Z (m/s²),GYROSCOPE X (rad/s),GYROSCOPE Y (rad/s),GYROSCOPE Z (rad/s),Time since start in ms ,YYYY-MO-DD HH-MI-SS_SSS
4.8564,-8.1809,1.8519,-0.0205,-0.1658,-0.0676,-0.0133,0.0163,-0.004,2,2019-08-07 16:15:34:973
4.8564,-8.1809,1.8519,-0.0205,-0.1658,-0.0676,-0.0133,0.0163,-0.004,8,2019-08-07 16:15:34:979
4.9043,-8.2143,1.9179,-0.0205,-0.1658,-0.0676,-0.0187,-0.0082,3.0E-4,12,2019-08-07 16:15:34:983
4.9043,-8.2143,1.9179,-0.063,-0.1034,-0.0581,-0.0187,-0.0082,3.0E-4,18,2019-08-07 16:15:34:989
5.0765,-8.2763,1.8189,-0.063,-0.1034,-0.0581,-0.0197,-0.0273,-0.0093,23,2019-08-07 16:15:34:994
5.0765,-8.2763,1.8189,-0.063,-0.1034,-0.0581,-0.0197,-0.0273,-0.0093,28,2019-08-07 16:15:34:999
5.0765,-8.2763,1.8189,-0.2457,-0.1356,0.0122,-0.0165,-0.0231,-0.0093,32,2019-08-07 16:15:35:003
5.11,-8.2429,1.6775,-0.2457,-0.1356,0.0122,-0.0165,-0.0231,-0.0093,38,2019-08-07 16:15:35:009
5.11,-8.2429,1.6775,-0.2457,-0.1356,0.0122,-0.0112,-0.0018,-0.005,42,2019-08-07 16:15:35:013
5.1148,-8.2477,1.6728,-0.2869,-0.1302,0.1042,-0.0112,-0.0018,-0.005,48,2019-08-07 16:15:35:019
5.1148,-8.2477,1.6728,-0.2869,-0.1302,0.1042,-0.0112,0.0259,-0.0018,52,2019-08-07 16:15:35:023
5.1148,-8.2477,1.6728,-0.2869,-0.1302,0.1042,-0.0112,0.0259,-0.0018,58,2019-08-07 16:15:35:029
4.9952,-8.2668,1.7153,-0.2869,-0.1302,0.1042,-0.0101,0.0408,0.0035,62,2019-08-07 16:15:35:033
4.9952,-8.2668,1.7153,-0.1621,-0.0201,-0.0275,-0.0101,0.0408,0.0035,68,2019-08-07 16:15:35:039
4.9952,-8.2668,1.7153,-0.1621,-0.0201,-0.0275,-0.007,0.0408,0.0046,73,2019-08-07 16:15:35:044
4.9283,-8.2811,1.7483,-0.1621,-0.0201,-0.0275,-0.007,0.0408,0.0046,78,2019-08-07 16:15:35:049
4.9283,-8.2811,1.7483,-0.0151,-0.0345,-0.0246,-0.0059,0.0334,-0.0029,82,2019-08-07 16:15:35:053
4.8422,-8.3575,1.7765,-0.0151,-0.0345,-0.0246,-0.0059,0.0334,-0.0029,88,2019-08-07 16:15:35:059
4.8422,-8.3575,1.7765,-0.0151,-0.0345,-0.0246,-0.0112,0.0302,-0.0029,93,2019-08-07 16:15:35:064
4.8422,-8.3575,1.7765,-0.0151,-0.0345,-0.0246,-0.0112,0.0302,-0.0029,98,2019-08-07 16:15:35:069
4.8374,-8.3145,1.786,-0.0106,-0.0153,-0.0043,-0.0112,0.0206,-0.0072,103,2019-08-07 16:15:35:074
4.8374,-8.3145,1.786,-0.0106,-0.0153,-0.0043,-0.0112,0.0206,-0.0072,108,2019-08-07 16:15:35:079
4.8374,-8.3145,1.786,-0.0106,-0.0153,-0.0043,-0.0112,0.0206,-0.0072,113,2019-08-07 16:15:35:084
4.8039,-8.2954,1.8048,-0.0106,-0.0153,-0.0043,-0.0059,-7.0E-4,-0.0082,118,2019-08-07 16:15:35:089
4.8039,-8.2954,1.8048,-0.0106,-0.0153,-0.0043,-0.0059,-7.0E-4,-0.0082,123,2019-08-07 16:15:35:094
4.9283,-8.348,1.8284,-0.0855,0.0046,-0.0472,5.0E-4,-0.005,-0.0125,129,2019-08-07 16:15:35:100
4.9283,-8.348,1.8284,-0.0855,0.0046,-0.0472,5.0E-4,-0.005,-0.0125,133,2019-08-07 16:15:35:104
4.9283,-8.348,1.8284,-0.0855,0.0046,-0.0472,5.0E-4,-0.005,-0.0125,138,2019-08-07 16:15:35:109
4.9427,-8.2143,1.753,-0.0855,0.0046,-0.0472,0.009,-0.022,-0.0093,143,2019-08-07 16:15:35:114
4.9427,-8.2143,1.753,-0.1205,-0.089,0.0652,0.009,-0.022,-0.0093,148,2019-08-07 16:15:35:119
5.0384,-8.2286,1.6351,-0.1205,-0.089,0.0652,0.0112,-0.0316,-0.0082,152,2019-08-07 16:15:35:123
5.0384,-8.2286,1.6351,-0.1205,-0.089,0.0652,0.0112,-0.0316,-0.0082,158,2019-08-07 16:15:35:129
5.0384,-8.2286,1.6351,-0.1205,-0.089,0.0652,0.0122,-0.0263,-0.0082,163,2019-08-07 16:15:35:134
5.0384,-8.3145,1.7577,-0.188,-0.0248,0.0213,0.0122,-0.0263,-0.0082,167,2019-08-07 16:15:35:138
5.0384,-8.3145,1.7577,-0.188,-0.0248,0.0213,0.0122,-0.0263,-0.0082,173,2019-08-07 16:15:35:144
5.0384,-8.3145,1.7577,-0.188,-0.0248,0.0213,5.0E-4,-0.0028,-0.0135,178,2019-08-07 16:15:35:149
4.9906,-8.2668,1.7153,-0.188,-0.0248,0.0213,5.0E-4,-0.0028,-0.0135,182,2019-08-07 16:15:35:153
4.9906,-8.2668,1.7153,-0.1412,0.0202,-0.0878,-0.007,-0.006,-0.0157,188,2019-08-07 16:15:35:159
4.9332,-8.3623,1.786,-0.1412,0.0202,-0.0878,-0.007,-0.006,-0.0157,192,2019-08-07 16:15:35:163
4.9332,-8.3623,1.786,-0.1412,0.0202,-0.0878,-0.007,-0.0114,-0.0072,198,2019-08-07 16:15:35:169
4.9332,-8.3623,1.786,-0.1412,0.0202,-0.0878,-0.007,-0.0114,-0.0072,202,2019-08-07 16:15:35:173
4.9332,-8.3623,1.786,-0.0529,0.0545,-0.0474,-0.007,-0.0114,-0.0072,208,2019-08-07 16:15:35:179
4.9571,-8.4243,1.7907,-0.0529,0.0545,-0.0474,-0.0027,-0.0156,-0.0018,212,2019-08-07 16:15:35:183
4.9571,-8.4243,1.7907,-0.0529,0.0545,-0.0474,-0.0027,-0.0156,-0.0018,218,2019-08-07 16:15:35:189
4.9497,-8.3382,1.8373,-0.0529,0.0545,-0.0474,-6.0E-4,-0.0199,0.0046,222,2019-08-07 16:15:35:193
4.9497,-8.3382,1.8373,-0.0974,-0.0125,-0.0203,-6.0E-4,-0.0199,0.0046,228,2019-08-07 16:15:35:199
4.9497,-8.3382,1.8373,-0.0974,-0.0125,-0.0203,0.0048,-0.0188,0.0131,233,2019-08-07 16:15:35:204
5.0502,-8.2761,1.7949,-0.0974,-0.0125,-0.0203,0.0048,-0.0188,0.0131,237,2019-08-07 16:15:35:208
5.0502,-8.2761,1.7949,-0.0974,-0.0125,-0.0203,0.0048,-0.0188,0.0131,243,2019-08-07 16:15:35:214
5.0502,-8.2761,1.7949,-0.0974,-0.0125,-0.0203,5.0E-4,0.0025,0.0163,248,2019-08-07 16:15:35:219
5.0549,-8.2618,1.8939,-0.1986,-0.0751,-0.1196,5.0E-4,0.0025,0.0163,253,2019-08-07 16:15:35:224
5.0549,-8.2618,1.8939,-0.1986,-0.0751,-0.1196,0.0016,0.0195,0.0141,259,2019-08-07 16:15:35:230
5.0023,-8.1854,1.8703,-0.1986,-0.0751,-0.1196,0.0016,0.0195,0.0141,262,2019-08-07 16:15:35:233
5.0023,-8.1854,1.8703,-0.1379,-0.1709,-0.0602,0.0016,0.0217,0.0056,268,2019-08-07 16:15:35:239
5.0262,-8.1854,1.7713,-0.1379,-0.1709,-0.0602,0.0016,0.0217,0.0056,274,2019-08-07 16:15:35:245
5.0262,-8.1854,1.7713,-0.1379,-0.1709,-0.0602,-0.008,0.0259,0.0024,278,2019-08-07 16:15:35:249
5.0262,-8.1854,1.7713,-0.1379,-0.1709,-0.0602,-0.008,0.0259,0.0024,283,2019-08-07 16:15:35:254
4.9736,-8.2379,1.8279,-0.1188,-0.099,-0.049,-0.0133,0.0163,-0.004,287,2019-08-07 16:15:35:258
4.9736,-8.2379,1.8279,-0.1188,-0.099,-0.049,-0.0133,0.0163,-0.004,293,2019-08-07 16:15:35:264
4.9209,-8.2331,1.8326,-0.1188,-0.099,-0.049,-0.0155,0.0025,-0.005,298,2019-08-07 16:15:35:269
4.9209,-8.2331,1.8326,-0.1188,-0.099,-0.049,-0.0155,0.0025,-0.005,302,2019-08-07 16:15:35:273
4.9209,-8.2331,1.8326,-0.079,-0.0316,-0.0791,-0.0091,-0.0337,-8.0E-4,309,2019-08-07 16:15:35:280
4.9974,-8.2761,1.8184,-0.079,-0.0316,-0.0791,-0.0091,-0.0337,-8.0E-4,313,2019-08-07 16:15:35:284
4.9974,-8.2761,1.8184,-0.079,-0.0316,-0.0791,-0.0091,-0.0337,-8.0E-4,317,2019-08-07 16:15:35:288
4.9974,-8.2761,1.8184,-0.079,-0.0316,-0.0791,-0.0112,-0.0401,-0.004,323,2019-08-07 16:15:35:294
5.0596,-8.2904,1.7383,-0.1956,-0.0836,0.0664,-0.0112,-0.0401,-0.004,328,2019-08-07 16:15:35:299
5.0596,-8.2904,1.7383,-0.1956,-0.0836,0.0664,-0.0101,-0.0348,-0.0029,333,2019-08-07 16:15:35:304
5.074,-8.257,1.7053,-0.1956,-0.0836,0.0664,-0.0101,-0.0348,-0.0029,338,2019-08-07 16:15:35:309
5.074,-8.257,1.7053,-0.1956,-0.0836,0.0664,-0.0101,-0.0092,0.0035,342,2019-08-07 16:15:35:313
5.074,-8.257,1.7053,-0.236,-0.0448,0.0382,-0.0101,-0.0092,0.0035,348,2019-08-07 16:15:35:319
5.0644,-8.2904,1.7807,-0.236,-0.0448,0.0382,-0.0112,0.0227,0.0014,352,2019-08-07 16:15:35:323
5.0644,-8.2904,1.7807,-0.236,-0.0448,0.0382,-0.0112,0.0227,0.0014,358,2019-08-07 16:15:35:329
5.0117,-8.2331,1.71,-0.236,-0.0448,0.0382,-0.0037,0.0408,0.0014,363,2019-08-07 16:15:35:334
5.0117,-8.2331,1.71,-0.1162,-0.1112,0.0304,-0.0037,0.0408,0.0014,368,2019-08-07 16:15:35:339
5.0117,-8.2331,1.71,-0.1162,-0.1112,0.0304,-0.0037,0.0408,0.0014,373,2019-08-07 16:15:35:344
4.9112,-8.1615,1.8184,-0.1162,-0.1112,0.0304,-0.0059,0.0408,3.0E-4,378,2019-08-07 16:15:35:349
4.9112,-8.1615,1.8184,-0.1162,-0.1112,0.0304,-0.0059,0.0408,3.0E-4,382,2019-08-07 16:15:35:353
4.9112,-8.1615,1.8184,0.0266,-0.1445,-0.0092,-0.008,0.0163,0.0024,388,2019-08-07 16:15:35:359
4.8155,-8.2283,1.8278,0.0266,-0.1445,-0.0092,-0.008,0.0163,0.0024,393,2019-08-07 16:15:35:364
4.8155,-8.2283,1.8278,0.0266,-0.1445,-0.0092,-0.0112,-0.0071,0.0024,398,2019-08-07 16:15:35:369
4.8155,-8.2283,1.8278,0.0266,-0.1445,-0.0092,-0.0112,-0.0071,0.0024,403,2019-08-07 16:15:35:374
4.8394,-8.319,1.7807,0.0556,-0.0159,-0.0067,-0.0101,-0.0348,-0.0072,408,2019-08-07 16:15:35:379
4.8394,-8.319,1.7807,0.0556,-0.0159,-0.0067,-0.0101,-0.0348,-0.0072,414,2019-08-07 16:15:35:385
4.8825,-8.2761,1.7618,0.0556,-0.0159,-0.0067,-0.008,-0.0295,-0.0178,418,2019-08-07 16:15:35:389
4.8825,-8.2761,1.7618,0.0556,-0.0159,-0.0067,-0.008,-0.0295,-0.0178,423,2019-08-07 16:15:35:394
4.8825,-8.2761,1.7618,-0.0121,0.0332,0.0406,-0.0091,-0.0231,-0.021,428,2019-08-07 16:15:35:399
4.8585,-8.3143,1.7288,-0.0121,0.0332,0.0406,-0.0091,-0.0231,-0.021,433,2019-08-07 16:15:35:404
4.8585,-8.3143,1.7288,-0.0121,0.0332,0.0406,-0.0133,-0.0188,-0.0242,438,2019-08-07 16:15:35:409
4.8585,-8.3143,1.7288,-0.0121,0.0332,0.0406,-0.0133,-0.0188,-0.0242,442,2019-08-07 16:15:35:413
4.9399,-8.4002,1.6958,-0.1123,0.0782,0.0032,-0.0144,-0.0177,-0.0274,448,2019-08-07 16:15:35:419
4.9399,-8.4002,1.6958,-0.1123,0.0782,0.0032,-0.0144,-0.0177,-0.0274,452,2019-08-07 16:15:35:423
5.002,-8.3524,1.7807,-0.1524,0.0603,-0.0177,-0.0101,-0.0188,-0.0263,458,2019-08-07 16:15:35:429
5.002,-8.3524,1.7807,-0.1524,0.0603,-0.0177,-0.0101,-0.0188,-0.0263,463,2019-08-07 16:15:35:434
5.002,-8.3524,1.7807,-0.1524,0.0603,-0.0177,-0.0101,-0.0188,-0.0263,468,2019-08-07 16:15:35:439
5.0355,-8.2856,1.8137,-0.1524,0.0603,-0.0177,-6.0E-4,-0.038,-0.0125,473,2019-08-07 16:15:35:444
5.0355,-8.2856,1.8137,-0.2288,-0.0377,0.0167,-6.0E-4,-0.038,-0.0125,478,2019-08-07 16:15:35:449
5.1647,-8.2904,1.7099,-0.2288,-0.0377,0.0167,-0.0027,-0.0497,0.0024,483,2019-08-07 16:15:35:454
5.1647,-8.2904,1.7099,-0.2288,-0.0377,0.0167,-0.0027,-0.0497,0.0024,487,2019-08-07 16:15:35:458
5.1647,-8.2904,1.7099,-0.2288,-0.0377,0.0167,5.0E-4,-0.0454,0.0131,493,2019-08-07 16:15:35:464
5.2268,-8.3143,1.7052,-0.2288,-0.0377,0.0167,5.0E-4,-0.0454,0.0131,498,2019-08-07 16:15:35:469
5.2268,-8.3143,1.7052,-0.318,-0.0042,0.0407,0.0133,-0.005,0.0227,503,2019-08-07 16:15:35:474
5.2268,-8.3143,1.7052,-0.318,-0.0042,0.0407,0.0133,-0.005,0.0227,508,2019-08-07 16:15:35:479
5.112,-8.2761,1.7052,-0.318,-0.0042,0.0407,0.0165,0.0291,0.0216,513,2019-08-07 16:15:35:484
5.112,-8.2761,1.7052,-0.318,-0.0042,0.0407,0.0165,0.0291,0.0216,518,2019-08-07 16:15:35:489
4.9684,-8.319,1.7618,-0.1533,-3.0E-4,0.002,0.0165,0.0291,0.0216,522,2019-08-07 16:15:35:493
4.9684,-8.319,1.7618,-0.1533,-3.0E-4,0.002,0.009,0.0526,0.0216,528,2019-08-07 16:15:35:499
4.9684,-8.319,1.7618,-0.1533,-3.0E-4,0.002,0.009,0.0526,0.0216,533,2019-08-07 16:15:35:504
4.8058,-8.2761,1.8938,-0.1533,-3.0E-4,0.002,0.0037,0.0483,0.012,538,2019-08-07 16:15:35:509
4.8058,-8.2761,1.8938,0.1292,-0.1065,-0.1277,0.0037,0.0483,0.012,543,2019-08-07 16:15:35:514
4.7531,-8.2665,1.9126,0.1292,-0.1065,-0.1277,-0.0112,0.0249,3.0E-4,548,2019-08-07 16:15:35:519
4.7531,-8.2665,1.9126,0.1292,-0.1065,-0.1277,-0.0112,0.0249,3.0E-4,552,2019-08-07 16:15:35:523
4.7531,-8.2665,1.9126,0.1292,-0.1065,-0.1277,-0.0229,-0.0241,-0.0104,558,2019-08-07 16:15:35:529
4.8057,-8.257,1.8891,0.0664,-0.0735,-0.128,-0.0229,-0.0241,-0.0104,563,2019-08-07 16:15:35:534
4.8057,-8.257,1.8891,0.0664,-0.0735,-0.128,-0.0261,-0.0518,-0.0189,568,2019-08-07 16:15:35:539
5.0162,-8.2951,1.7429,0.0664,-0.0735,-0.128,-0.0261,-0.0518,-0.0189,573,2019-08-07 16:15:35:544
5.0162,-8.2951,1.7429,0.0664,-0.0735,-0.128,-0.0251,-0.0518,-0.0253,578,2019-08-07 16:15:35:549
5.0162,-8.2951,1.7429,-0.2004,-0.0768,0.0514,-0.0251,-0.0518,-0.0253,583,2019-08-07 16:15:35:554
5.1597,-8.2474,1.6534,-0.2004,-0.0768,0.0514,-0.0251,-0.0518,-0.0253,588,2019-08-07 16:15:35:559
5.1597,-8.2474,1.6534,-0.2004,-0.0768,0.0514,-0.0165,-0.0412,-0.0189,593,2019-08-07 16:15:35:564
5.2745,-8.2808,1.6581,-0.2004,-0.0768,0.0514,-0.0165,-0.0412,-0.0189,598,2019-08-07 16:15:35:569
5.2745,-8.2808,1.6581,-0.3989,-0.0551,0.1002,-0.0016,-0.0145,-0.0093,603,2019-08-07 16:15:35:574
5.2745,-8.2808,1.6581,-0.3989,-0.0551,0.1002,-0.0016,-0.0145,-0.0093,608,2019-08-07 16:15:35:579
5.2889,-8.3047,1.6533,-0.3989,-0.0551,0.1002,0.0218,0.0174,0.0035,613,2019-08-07 16:15:35:584
5.2889,-8.3047,1.6533,-0.3989,-0.0551,0.1002,0.0218,0.0174,0.0035,618,2019-08-07 16:15:35:589
5.2889,-8.3047,1.6533,-0.3056,-9.0E-4,0.1113,0.0218,0.0174,0.0035,623,2019-08-07 16:15:35:594
5.1358,-8.3524,1.6958,-0.3056,-9.0E-4,0.1113,0.0335,0.0345,0.0109,628,2019-08-07 16:15:35:599
5.1358,-8.3524,1.6958,-0.3056,-9.0E-4,0.1113,0.0335,0.0345,0.0109,633,2019-08-07 16:15:35:604
4.93,-8.2569,1.8136,-0.3056,-9.0E-4,0.1113,0.0357,0.0281,0.0184,637,2019-08-07 16:15:35:608
4.93,-8.2569,1.8136,0.0029,-0.0434,-0.0492,0.0357,0.0281,0.0184,643,2019-08-07 16:15:35:614
4.93,-8.2569,1.8136,0.0029,-0.0434,-0.0492,0.0261,0.0217,0.0216,647,2019-08-07 16:15:35:618
4.8487,-8.2904,1.8419,0.0029,-0.0434,-0.0492,0.0261,0.0217,0.0216,653,2019-08-07 16:15:35:624
4.8487,-8.2904,1.8419,0.0029,-0.0434,-0.0492,0.0058,0.0089,0.0152,658,2019-08-07 16:15:35:629
4.8199,-8.2378,1.8843,0.0566,-0.073,-0.0719,0.0058,0.0089,0.0152,663,2019-08-07 16:15:35:634
4.8199,-8.2378,1.8843,0.0566,-0.073,-0.0719,-0.0101,-0.005,0.0035,668,2019-08-07 16:15:35:639
4.8199,-8.2378,1.8843,0.0566,-0.073,-0.0719,-0.0101,-0.005,0.0035,673,2019-08-07 16:15:35:644
4.863,-8.2904,1.8089,0.0566,-0.073,-0.0719,-0.0101,-0.005,0.0035,678,2019-08-07 16:15:35:649
4.863,-8.2904,1.8089,-0.0249,-0.0688,-0.0313,-0.0219,-0.0039,-0.0104,683,2019-08-07 16:15:35:654
4.863,-8.2904,1.8089,-0.0249,-0.0688,-0.0313,-0.0219,-0.0039,-0.0104,688,2019-08-07 16:15:35:659
4.9586,-8.2808,1.757,-0.0249,-0.0688,-0.0313,-0.0282,-0.0018,-0.02,692,2019-08-07 16:15:35:663
4.9586,-8.2808,1.757,-0.0249,-0.0688,-0.0313,-0.0282,-0.0018,-0.02,698,2019-08-07 16:15:35:669
4.9586,-8.2808,1.757,-0.1884,-0.0817,-0.0025,-0.0293,0.0014,-0.0263,703,2019-08-07 16:15:35:674
5.0495,-8.2378,1.7806,-0.1884,-0.0817,-0.0025,-0.0293,0.0014,-0.0263,709,2019-08-07 16:15:35:680
5.0495,-8.2378,1.7806,-0.1884,-0.0817,-0.0025,-0.0219,0.0014,-0.0274,713,2019-08-07 16:15:35:684
5.0686,-8.2187,1.658,-0.1884,-0.0817,-0.0025,-0.0219,0.0014,-0.0274,718,2019-08-07 16:15:35:689
5.0686,-8.2187,1.658,-0.2067,-0.0649,0.0547,-0.0219,0.0014,-0.0274,723,2019-08-07 16:15:35:694
5.0686,-8.2187,1.658,-0.2067,-0.0649,0.0547,-0.0176,-0.0039,-0.0125,728,2019-08-07 16:15:35:699
5.1308,-8.2569,1.6439,-0.2067,-0.0649,0.0547,-0.0176,-0.0039,-0.0125,733,2019-08-07 16:15:35:704
5.1308,-8.2569,1.6439,-0.2067,-0.0649,0.0547,-0.0059,-0.0039,-0.0029,737,2019-08-07 16:15:35:708
5.1308,-8.3381,1.7099,-0.2373,0.0174,0.038,-0.0059,-0.0039,-0.0029,743,2019-08-07 16:15:35:714
5.1308,-8.3381,1.7099,-0.2373,0.0174,0.038,0.0037,-0.005,0.0035,748,2019-08-07 16:15:35:719
5.1308,-8.3381,1.7099,-0.2373,0.0174,0.038,0.0037,-0.005,0.0035,752,2019-08-07 16:15:35:723
5.0495,-8.3667,1.7052,-0.2373,0.0174,0.038,0.0144,-0.0018,0.0045,758,2019-08-07 16:15:35:729
5.0495,-8.3667,1.7052,-0.1607,0.0557,0.0339,0.0144,-0.0018,0.0045,763,2019-08-07 16:15:35:734
5.0064,-8.3285,1.6722,-0.1607,0.0557,0.0339,0.0176,-7.0E-4,0.0141,767,2019-08-07 16:15:35:738
5.0064,-8.3285,1.6722,-0.1607,0.0557,0.0339,0.0176,-7.0E-4,0.0141,773,2019-08-07 16:15:35:744
5.0064,-8.3285,1.6722,-0.1607,0.0557,0.0339,0.0165,0.0068,0.0152,778,2019-08-07 16:15:35:749
4.9729,-8.2951,1.757,-0.0813,0.0026,-0.0105,0.0165,0.0068,0.0152,783,2019-08-07 16:15:35:754
4.9729,-8.2951,1.757,-0.0813,0.0026,-0.0105,0.0144,0.0046,0.0152,787,2019-08-07 16:15:35:758
4.9585,-8.2712,1.757,-0.0813,0.0026,-0.0105,0.0144,0.0046,0.0152,793,2019-08-07 16:15:35:764
4.9585,-8.2712,1.757,-0.0813,0.0026,-0.0105,0.008,0.0036,0.0131,798,2019-08-07 16:15:35:769
4.9585,-8.2712,1.757,-0.0927,-0.0744,-0.0508,0.008,0.0036,0.0131,803,2019-08-07 16:15:35:774
5.0015,-8.2331,1.79,-0.0927,-0.0744,-0.0508,5.0E-4,-0.0028,0.0045,808,2019-08-07 16:15:35:779
5.0015,-8.2331,1.79,-0.0927,-0.0744,-0.0508,5.0E-4,-0.0028,0.0045,813,2019-08-07 16:15:35:784
4.9441,-8.214,1.7099,-0.0927,-0.0744,-0.0508,-0.0016,-0.0039,0.0067,818,2019-08-07 16:15:35:789
4.9441,-8.214,1.7099,-0.0878,-0.0744,0.0436,-0.0016,-0.0039,0.0067,824,2019-08-07 16:15:35:795
4.9441,-8.214,1.7099,-0.0878,-0.0744,0.0436,-0.0112,0.01,3.0E-4,828,2019-08-07 16:15:35:799
5.0111,-8.2426,1.7523,-0.0878,-0.0744,0.0436,-0.0112,0.01,3.0E-4,833,2019-08-07 16:15:35:804
5.0111,-8.2426,1.7523,-0.0878,-0.0744,0.0436,-0.0123,0.0195,-0.0082,838,2019-08-07 16:15:35:809
5.0111,-8.2426,1.7523,-0.0878,-0.0744,0.0436,-0.0123,0.0195,-0.0082,843,2019-08-07 16:15:35:814
4.8915,-8.2999,1.8465,-0.001,-0.0216,-0.0936,-0.0123,0.0195,-0.0082,848,2019-08-07 16:15:35:819
4.8915,-8.2999,1.8465,-0.001,-0.0216,-0.0936,-0.0059,0.0217,-0.0072,852,2019-08-07 16:15:35:823
4.8436,-8.3238,1.7523,-0.001,-0.0216,-0.0936,-6.0E-4,0.0174,-0.0104,858,2019-08-07 16:15:35:829
4.8436,-8.3238,1.7523,0.0522,-0.0066,-0.0495,-6.0E-4,0.0174,-0.0104,863,2019-08-07 16:15:35:834
4.8436,-8.3238,1.7523,0.0522,-0.0066,-0.0495,-6.0E-4,0.0174,-0.0104,867,2019-08-07 16:15:35:838
4.8101,-8.3524,1.8418,0.0522,-0.0066,-0.0495,0.0037,0.0046,-0.0072,873,2019-08-07 16:15:35:844
4.8101,-8.3524,1.8418,0.0522,-0.0066,-0.0495,0.0037,0.0046,-0.0072,878,2019-08-07 16:15:35:849
4.8962,-8.3524,1.7475,0.0522,-0.0066,-0.0495,0.008,-0.0103,-0.0093,883,2019-08-07 16:15:35:854
4.8962,-8.3524,1.7475,0.001,0.0421,0.0267,0.008,-0.0103,-0.0093,888,2019-08-07 16:15:35:859
4.8962,-8.3524,1.7475,0.001,0.0421,0.0267,0.0112,-0.0177,-0.0168,892,2019-08-07 16:15:35:863
4.9297,-8.3333,1.724,0.001,0.0421,0.0267,0.0112,-0.0177,-0.0168,898,2019-08-07 16:15:35:869
4.9297,-8.3333,1.724,0.001,0.0421,0.0267,0.008,-0.0177,-0.0189,902,2019-08-07 16:15:35:873
5.0397,-8.3381,1.6721,-0.1436,0.0251,0.0641,0.008,-0.0177,-0.0189,908,2019-08-07 16:15:35:879
5.0397,-8.3381,1.6721,-0.1436,0.0251,0.0641,-0.0048,-0.0241,-0.0242,913,2019-08-07 16:15:35:884
5.0397,-8.3381,1.6721,-0.1436,0.0251,0.0641,-0.0048,-0.0241,-0.0242,917,2019-08-07 16:15:35:888
5.0779,-8.3237,1.7145,-0.1436,0.0251,0.0641,-6.0E-4,-0.0188,-0.02,923,2019-08-07 16:15:35:894
5.0779,-8.3237,1.7145,-0.2099,0.0086,0.0093,-6.0E-4,-0.0188,-0.02,928,2019-08-07 16:15:35:899
5.1305,-8.3619,1.7428,-0.2099,0.0086,0.0093,-0.0016,-0.0209,-0.0114,933,2019-08-07 16:15:35:904
5.1305,-8.3619,1.7428,-0.2099,0.0086,0.0093,-0.0016,-0.0209,-0.0114,937,2019-08-07 16:15:35:908
5.1305,-8.3619,1.7428,-0.2099,0.0086,0.0093,-0.0016,-0.0209,-0.0114,943,2019-08-07 16:15:35:914
5.1688,-8.319,1.7192,-0.2636,0.0056,0.031,0.008,-0.0071,-0.0029,948,2019-08-07 16:15:35:919
5.1688,-8.319,1.7192,-0.2636,0.0056,0.031,0.008,-0.0071,-0.0029,952,2019-08-07 16:15:35:923
5.0635,-8.2187,1.7758,-0.2636,0.0056,0.031,0.009,0.0249,0.0109,958,2019-08-07 16:15:35:929
5.0635,-8.2187,1.7758,-0.2636,0.0056,0.031,0.009,0.0249,0.0109,963,2019-08-07 16:15:35:934
5.0635,-8.2187,1.7758,-0.1252,-0.0226,0.0388,0.0058,0.0409,0.0216,967,2019-08-07 16:15:35:938
4.9343,-8.2426,1.8559,-0.1252,-0.0226,0.0388,0.0058,0.0409,0.0216,973,2019-08-07 16:15:35:944
4.9343,-8.2426,1.8559,-0.1252,-0.0226,0.0388,0.0058,0.0409,0.0216,977,2019-08-07 16:15:35:948
4.8913,-8.3046,1.8842,-0.1252,-0.0226,0.0388,0.008,0.0249,0.0216,983,2019-08-07 16:15:35:954
4.8913,-8.3046,1.8842,0.0235,-2.0E-4,-0.1588,0.008,0.0249,0.0216,987,2019-08-07 16:15:35:958
4.8913,-8.3046,1.8842,0.0235,-2.0E-4,-0.1588,0.0122,0.0068,0.0163,993,2019-08-07 16:15:35:964
4.8434,-8.2617,1.9313,0.0235,-2.0E-4,-0.1588,0.0122,0.0068,0.0163,998,2019-08-07 16:15:35:969
4.8434,-8.2617,1.9313,0.0235,-2.0E-4,-0.1588,0.0112,0.0025,0.0163,1003,2019-08-07 16:15:35:974
4.9056,-8.2855,1.8135,0.0443,-0.0586,-0.075,0.0112,0.0025,0.0163,1008,2019-08-07 16:15:35:979
4.9056,-8.2855,1.8135,0.0443,-0.0586,-0.075,0.0112,0.0025,0.0163,1013,2019-08-07 16:15:35:984
4.9056,-8.2855,1.8135,0.0443,-0.0586,-0.075,5.0E-4,0.0025,0.0099,1018,2019-08-07 16:15:35:989
4.9582,-8.2426,1.8229,0.0443,-0.0586,-0.075,5.0E-4,0.0025,0.0099,1023,2019-08-07 16:15:35:994
4.9582,-8.2426,1.8229,-0.0666,-0.0828,-0.0455,-0.0016,0.0068,3.0E-4,1028,2019-08-07 16:15:35:999
4.9964,-8.2808,1.7569,-0.0666,-0.0828,-0.0455,-0.0016,0.0068,3.0E-4,1033,2019-08-07 16:15:36:004
4.9964,-8.2808,1.7569,-0.0666,-0.0828,-0.0455,-0.0037,0.011,-0.004,1038,2019-08-07 16:15:36:009
4.9964,-8.2808,1.7569,-0.0666,-0.0828,-0.0455,-0.0037,0.011,-0.004,1043,2019-08-07 16:15:36:014
5.0395,-8.2855,1.7286,-0.1424,-0.0299,0.0345,-0.0037,0.0089,-0.0029,1047,2019-08-07 16:15:36:018
5.0395,-8.2855,1.7286,-0.1424,-0.0299,0.0345,-0.0037,0.0089,-0.0029,1053,2019-08-07 16:15:36:024
5.0873,-8.3524,1.6202,-0.1898,0.0371,0.1421,-0.0069,-0.0018,0.0014,1058,2019-08-07 16:15:36:029
5.0873,-8.3524,1.6202,-0.1898,0.0371,0.1421,-0.0069,-0.0018,0.0014,1063,2019-08-07 16:15:36:034
5.0873,-8.3524,1.6202,-0.1898,0.0371,0.1421,0.0101,0.0025,0.0056,1068,2019-08-07 16:15:36:039
5.0921,-8.4622,1.6956,-0.1898,0.0371,0.1421,0.0101,0.0025,0.0056,1073,2019-08-07 16:15:36:044
5.0921,-8.4622,1.6956,-0.18,0.1087,0.095,0.0101,0.0025,0.0056,1078,2019-08-07 16:15:36:049
5.0921,-8.4622,1.6956,-0.18,0.1087,0.095,0.0282,0.0014,0.0067,1082,2019-08-07 16:15:36:053
5.0347,-8.3333,1.6721,-0.18,0.1087,0.095,0.0282,0.0014,0.0067,1088,2019-08-07 16:15:36:059
5.0347,-8.3333,1.6721,-0.18,0.1087,0.095,0.0453,0.0014,0.0077,1093,2019-08-07 16:15:36:064
5.0203,-8.338,1.6673,-0.1616,-0.0576,0.0771,0.0453,0.0014,0.0077,1097,2019-08-07 16:15:36:068
5.0203,-8.338,1.6673,-0.1616,-0.0576,0.0771,0.0421,0.0014,0.0077,1103,2019-08-07 16:15:36:074
5.0203,-8.338,1.6673,-0.1616,-0.0576,0.0771,0.0421,0.0014,0.0077,1108,2019-08-07 16:15:36:079
5.0346,-8.2712,1.7098,-0.1616,-0.0576,0.0771,0.0314,0.0068,-0.0018,1113,2019-08-07 16:15:36:084
5.0346,-8.2712,1.7098,-0.1039,-0.0561,0.0173,0.0314,0.0068,-0.0018,1118,2019-08-07 16:15:36:089
5.0346,-8.2712,1.7098,-0.1039,-0.0561,0.0173,0.0314,0.0068,-0.0018,1123,2019-08-07 16:15:36:094
4.9389,-8.3142,1.7993,-0.1039,-0.0561,0.0173,0.0186,-7.0E-4,-0.0178,1127,2019-08-07 16:15:36:098
4.9389,-8.3142,1.7993,-0.1039,-0.0561,0.0173,0.0186,-7.0E-4,-0.0178,1133,2019-08-07 16:15:36:104
4.7571,-8.4049,1.8229,0.1437,0.0945,-0.0461,0.0112,-0.0124,-0.0338,1138,2019-08-07 16:15:36:109
4.7571,-8.4049,1.8229,0.1437,0.0945,-0.0461,0.0112,-0.0124,-0.0338,1143,2019-08-07 16:15:36:114
4.7571,-8.4049,1.8229,0.1437,0.0945,-0.0461,0.0069,-0.0284,-0.0498,1148,2019-08-07 16:15:36:119
4.7379,-8.5003,1.8512,0.1437,0.0945,-0.0461,0.0069,-0.0284,-0.0498,1153,2019-08-07 16:15:36:124
4.7379,-8.5003,1.8512,0.1803,0.3518,-0.0105,0.0058,-0.0572,-0.0626,1158,2019-08-07 16:15:36:129
4.7379,-8.5003,1.8512,0.1803,0.3518,-0.0105,0.0058,-0.0572,-0.0626,1162,2019-08-07 16:15:36:133
4.848,-8.8059,1.7852,0.1803,0.3518,-0.0105,0.0058,-0.0572,-0.0626,1167,2019-08-07 16:15:36:138
4.848,-8.8059,1.7852,0.1803,0.3518,-0.0105,0.0122,-0.0273,-0.0945,1173,2019-08-07 16:15:36:144
4.8862,-8.9682,1.6956,0.0604,0.6795,0.0679,0.0282,0.0377,-0.1286,1179,2019-08-07 16:15:36:150
4.8862,-8.9682,1.6956,0.0604,0.6795,0.0679,0.0282,0.0377,-0.1286,1184,2019-08-07 16:15:36:155
4.8862,-8.9682,1.6956,0.0604,0.6795,0.0679,0.0282,0.0377,-0.1286,1188,2019-08-07 16:15:36:159
4.714,-9.2641,1.7192,0.0604,0.6795,0.0679,0.0527,0.1207,-0.168,1193,2019-08-07 16:15:36:164
4.714,-9.2641,1.7192,0.0604,0.6795,0.0679,0.0527,0.1207,-0.168,1198,2019-08-07 16:15:36:169
4.2355,-9.6986,2.1858,0.5623,1.2722,-0.2392,0.0836,0.2124,-0.2117,1203,2019-08-07 16:15:36:174
4.2355,-9.6986,2.1858,0.5623,1.2722,-0.2392,0.0836,0.2124,-0.2117,1208,2019-08-07 16:15:36:179
3.6774,-10.3241,2.5491,0.5623,1.2722,-0.2392,0.1411,0.2358,-0.2106,1213,2019-08-07 16:15:36:184
3.6774,-10.3241,2.5491,0.5623,1.2722,-0.2392,0.1411,0.2358,-0.2106,1218,2019-08-07 16:15:36:189
3.6774,-10.3241,2.5491,1.4419,2.3514,-0.8626,0.1411,0.2358,-0.2106,1223,2019-08-07 16:15:36:194
3.4669,-10.7346,2.7565,1.4419,2.3514,-0.8626,0.2434,0.2475,-0.1861,1227,2019-08-07 16:15:36:198
3.4669,-10.7346,2.7565,1.4419,2.3514,-0.8626,0.2434,0.2475,-0.1861,1234,2019-08-07 16:15:36:205
3.4669,-10.7346,2.7565,1.4419,2.3514,-0.8626,0.4341,0.2656,-0.0881,1238,2019-08-07 16:15:36:209
2.7253,-11.6083,2.7188,2.2283,3.3616,-0.7976,0.4341,0.2656,-0.0881,1243,2019-08-07 16:15:36:214
2.7253,-11.6083,2.7188,2.2283,3.3616,-0.7976,0.5544,0.305,-0.0061,1247,2019-08-07 16:15:36:218
2.1129,-12.5917,2.6293,2.2283,3.3616,-0.7976,0.5544,0.305,-0.0061,1253,2019-08-07 16:15:36:224
2.1129,-12.5917,2.6293,2.2283,3.3616,-0.7976,0.6674,0.3157,0.0781,1258,2019-08-07 16:15:36:229
2.1129,-12.5917,2.6293,3.0292,4.7786,-0.5155,0.6674,0.3157,0.0781,1264,2019-08-07 16:15:36:235
1.6249,-13.4366,2.4784,3.0292,4.7786,-0.5155,0.6674,0.3157,0.0781,1268,2019-08-07 16:15:36:239
1.6249,-13.4366,2.4784,3.0292,4.7786,-0.5155,0.8037,0.3881,0.1782,1273,2019-08-07 16:15:36:244
1.6249,-13.4366,2.4784,3.0292,4.7786,-0.5155,0.8037,0.3881,0.1782,1278,2019-08-07 16:15:36:249
0.5868,-14.9929,1.6394,4.6055,7.1265,0.6834,0.8612,0.5298,0.2336,1283,2019-08-07 16:15:36:254
0.5868,-14.9929,1.6394,4.6055,7.1265,0.6834,0.8612,0.5298,0.2336,1288,2019-08-07 16:15:36:259
-2.4082,-17.7044,1.2481,4.6055,7.1265,0.6834,1.0296,1.0837,0.3572,1293,2019-08-07 16:15:36:264
-2.4082,-17.7044,1.2481,4.6055,7.1265,0.6834,1.0296,1.0837,0.3572,1298,2019-08-07 16:15:36:269
-2.4082,-17.7044,1.2481,8.8349,11.4544,1.3451,1.2778,1.8582,0.6011,1303,2019-08-07 16:15:36:274
-5.2835,-21.2323,0.9983,8.8349,11.4544,1.3451,1.2778,1.8582,0.6011,1308,2019-08-07 16:15:36:279
-5.2835,-21.2323,0.9983,8.8349,11.4544,1.3451,1.5835,2.5304,0.8099,1313,2019-08-07 16:15:36:284
-6.7666,-25.0513,1.234,8.8349,11.4544,1.3451,1.5835,2.5304,0.8099,1318,2019-08-07 16:15:36:289
-6.7666,-25.0513,1.234,11.0259,17.1726,1.2772,1.5835,2.5304,0.8099,1323,2019-08-07 16:15:36:294
-6.7666,-25.0513,1.234,11.0259,17.1726,1.2772,2.0884,3.2292,0.7481,1328,2019-08-07 16:15:36:299
-6.6853,-25.6815,2.1155,11.0259,17.1726,1.2772,2.0884,3.2292,0.7481,1334,2019-08-07 16:15:36:305
-6.6853,-25.6815,2.1155,11.0259,17.1726,1.2772,2.8927,3.6606,0.2357,1337,2019-08-07 16:15:36:308
-6.6853,-25.6815,2.1155,10.3112,17.1331,0.5078,2.8927,3.6606,0.2357,1343,2019-08-07 16:15:36:314
-6.1733,-25.5096,2.3936,10.3112,17.1331,0.5078,3.4381,3.6787,-0.2639,1348,2019-08-07 16:15:36:319
-6.1733,-25.5096,2.3936,10.3112,17.1331,0.5078,3.4381,3.6787,-0.2639,1353,2019-08-07 16:15:36:324
-5.9389,-28.1209,-4.5687,10.3112,17.1331,0.5078,3.4381,3.6787,-0.2639,1358,2019-08-07 16:15:36:329
-5.9389,-28.1209,-4.5687,9.0692,21.5309,10.586,2.2951,3.9674,-0.5536,1363,2019-08-07 16:15:36:334
-5.9389,-28.1209,-4.5687,9.0692,21.5309,10.586,2.2951,3.9674,-0.5536,1368,2019-08-07 16:15:36:339
-3.3506,-31.157,-5.8132,9.0692,21.5309,10.586,2.2951,3.9674,-0.5536,1373,2019-08-07 16:15:36:344
-3.3506,-31.157,-5.8132,9.0692,21.5309,10.586,1.217,4.3434,-0.8104,1378,2019-08-07 16:15:36:349
-2.4368,-31.3337,-9.8812,5.9565,23.7649,13.7413,1.1169,4.9815,-1.1459,1384,2019-08-07 16:15:36:355
-2.4368,-31.3337,-9.8812,5.9565,23.7649,13.7413,1.1169,4.9815,-1.1459,1388,2019-08-07 16:15:36:359
-2.4368,-31.3337,-9.8812,5.9565,23.7649,13.7413,1.1169,4.9815,-1.1459,1393,2019-08-07 16:15:36:364
-2.7335,-29.0995,-10.9842,5.9565,23.7649,13.7413,1.4109,6.2524,-1.6146,1399,2019-08-07 16:15:36:370
-2.7335,-29.0995,-10.9842,6.212,19.5103,15.0265,1.4109,6.2524,-1.6146,1402,2019-08-07 16:15:36:373
-2.7335,-29.0995,-10.9842,6.212,19.5103,15.0265,3.0237,8.5086,-2.4083,1408,2019-08-07 16:15:36:379
-3.542,-23.877,-6.3741,6.212,19.5103,15.0265,3.0237,8.5086,-2.4083,1413,2019-08-07 16:15:36:384
-3.542,-23.877,-6.3741,6.026,15.5663,10.8493,3.0237,8.5086,-2.4083,1418,2019-08-07 16:15:36:389
-0.2935,-19.1604,1.3471,6.026,15.5663,10.8493,5.9852,10.4005,-3.1742,1423,2019-08-07 16:15:36:394
-0.2935,-19.1604,1.3471,6.026,15.5663,10.8493,5.9852,10.4005,-3.1742,1428,2019-08-07 16:15:36:399
-0.2935,-19.1604,1.3471,-0.7357,9.0983,7.016,8.6249,11.0141,-3.8219,1433,2019-08-07 16:15:36:404
3.0842,-14.4773,-1.1371,-0.7357,9.0983,7.016,8.6249,11.0141,-3.8219,1438,2019-08-07 16:15:36:409
3.0842,-14.4773,-1.1371,-0.7357,9.0983,7.016,10.6702,11.8759,-4.4866,1443,2019-08-07 16:15:36:414
0.4002,-5.1063,-11.6253,-0.7357,9.0983,7.016,10.6702,11.8759,-4.4866,1448,2019-08-07 16:15:36:419
0.4002,-5.1063,-11.6253,3.0095,-4.8986,20.1448,12.0827,14.3931,-4.7593,1453,2019-08-07 16:15:36:424
0.4002,-5.1063,-11.6253,3.0095,-4.8986,20.1448,12.0827,14.3931,-4.7593,1458,2019-08-07 16:15:36:429
-9.8859,22.3097,-6.2751,3.0095,-4.8986,20.1448,12.9722,14.3825,-3.6845,1463,2019-08-07 16:15:36:434
-9.8859,22.3097,-6.2751,3.0095,-4.8986,20.1448,12.9722,14.3825,-3.6845,1468,2019-08-07 16:15:36:439
-9.8859,22.3097,-6.2751,3.0095,-4.8986,20.1448,12.9722,14.3825,-3.6845,1473,2019-08-07 16:15:36:444
-15.5696,106.94,-6.7701,13.7119,-109.1756,16.1395,11.6279,6.0244,-1.9332,1478,2019-08-07 16:15:36:449
-15.5696,106.94,-6.7701,13.7119,-109.1756,16.1395,11.6279,6.0244,-1.9332,1483,2019-08-07 16:15:36:454
-31.1805,64.1523,-7.7175,13.7119,-109.1756,16.1395,9.8137,2.7115,-3.7612,1488,2019-08-07 16:15:36:459
-31.1805,64.1523,-7.7175,20.4313,-50.4733,10.1887,9.8137,2.7115,-3.7612,1493,2019-08-07 16:15:36:464
-31.1805,64.1523,-7.7175,20.4313,-50.4733,10.1887,4.4586,-9.9843,-1.4804,1498,2019-08-07 16:15:36:469
-19.8275,46.6467,16.865,20.4313,-50.4733,10.1887,4.4586,-9.9843,-1.4804,1503,2019-08-07 16:15:36:474
-19.8275,46.6467,16.865,20.4313,-50.4733,10.1887,0.482,-21.8471,1.0879,1508,2019-08-07 16:15:36:479
2.3092,32.8074,-32.2152,-1.4318,-32.8768,41.9856,0.482,-21.8471,1.0879,1513,2019-08-07 16:15:36:484
2.3092,32.8074,-32.2152,-1.4318,-32.8768,41.9856,0.482,-21.8471,1.0879,1518,2019-08-07 16:15:36:489
2.3092,32.8074,-32.2152,-1.4318,-32.8768,41.9856,-2.8576,-6.6767,2.9308,1523,2019-08-07 16:15:36:494
35.8562,14.6955,-16.9424,-34.0924,-15.0165,26.5872,-2.8576,-6.6767,2.9308,1528,2019-08-07 16:15:36:499
35.8562,14.6955,-16.9424,-34.0924,-15.0165,26.5872,-4.2744,-4.1787,2.7433,1534,2019-08-07 16:15:36:505
35.8562,14.6955,-16.9424,-34.0924,-15.0165,26.5872,-4.2744,-4.1787,2.7433,1538,2019-08-07 16:15:36:509
25.5271,17.8749,1.6252,-34.0924,-15.0165,26.5872,-5.3631,-3.2359,2.9916,1543,2019-08-07 16:15:36:514
25.5271,17.8749,1.6252,-14.0981,-20.414,9.463,-5.3631,-3.2359,2.9916,1548,2019-08-07 16:15:36:519
7.2321,20.2379,3.9209,-14.0981,-20.414,9.463,-5.0808,1.5248,3.5157,1553,2019-08-07 16:15:36:524
7.2321,20.2379,3.9209,-14.0981,-20.414,9.463,-5.0808,1.5248,3.5157,1558,2019-08-07 16:15:36:529
7.2321,20.2379,3.9209,-3.5015,-22.5645,-3.3906,-5.0808,1.5248,3.5157,1563,2019-08-07 16:15:36:534
4.8496,19.7796,8.1539,-3.5015,-22.5645,-3.3906,-4.1615,-0.1509,3.7191,1567,2019-08-07 16:15:36:538
4.8496,19.7796,8.1539,-3.5015,-22.5645,-3.3906,-4.1615,-0.1509,3.7191,1573,2019-08-07 16:15:36:544
1.5437,19.1829,5.5801,-1.0196,-21.7325,3.7236,-3.7918,0.059,3.4198,1579,2019-08-07 16:15:36:550
1.5437,19.1829,5.5801,-1.0196,-21.7325,3.7236,-3.7918,0.059,3.4198,1583,2019-08-07 16:15:36:554
1.5437,19.1829,5.5801,-1.0196,-21.7325,3.7236,-3.7918,0.059,3.4198,1588,2019-08-07 16:15:36:559
-1.6139,17.9178,3.605,-1.0196,-21.7325,3.7236,-4.2211,-1.6423,3.1609,1592,2019-08-07 16:15:36:563
-1.6139,17.9178,3.605,5.3898,-19.7761,7.3361,-4.2211,-1.6423,3.1609,1598,2019-08-07 16:15:36:569
-1.6139,17.9178,3.605,5.3898,-19.7761,7.3361,-5.0978,-3.6439,3.3559,1603,2019-08-07 16:15:36:574
-3.8194,11.1056,0.8569,5.3898,-19.7761,7.3361,-5.0978,-3.6439,3.3559,1609,2019-08-07 16:15:36:580
-3.8194,11.1056,0.8569,5.3898,-19.7761,7.3361,-5.7743,-5.3014,3.554,1613,2019-08-07 16:15:36:584
-0.9967,4.5368,5.2643,3.6838,-9.1238,2.9804,-5.7743,-5.3014,3.554,1618,2019-08-07 16:15:36:589
-0.9967,4.5368,5.2643,3.6838,-9.1238,2.9804,-5.7743,-5.3014,3.554,1623,2019-08-07 16:15:36:594
1.7351,-1.7599,11.3923,3.6838,-9.1238,2.9804,-5.8936,-7.0485,3.2983,1628,2019-08-07 16:15:36:599
1.7351,-1.7599,11.3923,3.6838,-9.1238,2.9804,-5.8936,-7.0485,3.2983,1633,2019-08-07 16:15:36:604
1.7351,-1.7599,11.3923,1.8026,-1.2539,0.8454,-4.856,-8.1148,2.4557,1638,2019-08-07 16:15:36:609
1.3906,-5.894,3.2232,1.8026,-1.2539,0.8454,-4.856,-8.1148,2.4557,1643,2019-08-07 16:15:36:614
1.3906,-5.894,3.2232,1.8026,-1.2539,0.8454,-4.7708,-8.2863,1.9646,1648,2019-08-07 16:15:36:619
1.3906,-5.894,3.2232,1.8026,-1.2539,0.8454,-4.7708,-8.2863,1.9646,1653,2019-08-07 16:15:36:624
4.6487,-12.6108,2.3983,-0.341,6.132,3.5771,-4.8379,-8.0829,1.5162,1658,2019-08-07 16:15:36:629
4.6487,-12.6108,2.3983,-0.341,6.132,3.5771,-4.8379,-8.0829,1.5162,1663,2019-08-07 16:15:36:634
4.6487,-12.6108,2.3983,-0.341,6.132,3.5771,-4.3479,-7.1976,1.0304,1668,2019-08-07 16:15:36:639
4.309,-22.9174,-1.3633,-0.341,6.132,3.5771,-4.3479,-7.1976,1.0304,1673,2019-08-07 16:15:36:644
4.309,-22.9174,-1.3633,0.3126,17.6631,3.5757,-4.3479,-7.1976,1.0304,1678,2019-08-07 16:15:36:649
3.6583,-23.4903,2.0448,0.3126,17.6631,3.5757,-3.9793,-6.7151,1.3755,1683,2019-08-07 16:15:36:654
3.6583,-23.4903,2.0448,0.3126,17.6631,3.5757,-3.9793,-6.7151,1.3755,1688,2019-08-07 16:15:36:659
3.6583,-23.4903,2.0448,0.3126,17.6631,3.5757,-3.0557,-6.2964,1.8539,1692,2019-08-07 16:15:36:663
3.534,-16.4919,2.3559,1.6573,8.9098,1.0789,-3.0557,-6.2964,1.8539,1698,2019-08-07 16:15:36:669
3.534,-16.4919,2.3559,1.6573,8.9098,1.0789,-1.1628,-5.3686,1.8176,1703,2019-08-07 16:15:36:674
3.534,-16.4919,2.3559,1.6573,8.9098,1.0789,-1.1628,-5.3686,1.8176,1707,2019-08-07 16:15:36:678
3.9454,-16.9597,-2.7256,1.6573,8.9098,1.0789,-1.1628,-5.3686,1.8176,1713,2019-08-07 16:15:36:684
3.9454,-16.9597,-2.7256,1.4096,9.58,5.0445,-1.183,-5.4421,1.5684,1718,2019-08-07 16:15:36:689
3.9454,-16.9597,-2.7256,1.4096,9.58,5.0445,-1.183,-5.4421,1.5684,1723,2019-08-07 16:15:36:694
3.8258,-17.8954,-3.0744,1.4096,9.58,5.0445,-1.9404,-4.9275,1.4522,1728,2019-08-07 16:15:36:699
3.8258,-17.8954,-3.0744,1.4096,9.58,5.0445,-2.4741,-3.6737,1.3681,1733,2019-08-07 16:15:36:704
3.8258,-17.8954,-3.0744,0.0766,11.6495,4.9106,-2.4741,-3.6737,1.3681,1738,2019-08-07 16:15:36:709
5.2946,-20.4351,-3.2205,0.0766,11.6495,4.9106,-2.4741,-3.6737,1.3681,1743,2019-08-07 16:15:36:714
5.2946,-20.4351,-3.2205,0.0766,11.6495,4.9106,-2.5029,-2.5222,1.1881,1748,2019-08-07 16:15:36:719
5.2946,-20.4351,-3.2205,0.0766,11.6495,4.9106,-2.5029,-2.5222,1.1881,1753,2019-08-07 16:15:36:724
3.7828,-23.6383,-2.9047,1.8858,15.422,3.6241,-1.9766,-0.887,1.0134,1758,2019-08-07 16:15:36:729
3.7828,-23.6383,-2.9047,1.8858,15.422,3.6241,-1.9766,-0.887,1.0134,1764,2019-08-07 16:15:36:735
-0.1929,-22.8936,-0.232,1.8858,15.422,3.6241,-1.0371,0.6491,1.0453,1769,2019-08-07 16:15:36:740
-0.1929,-22.8936,-0.232,1.8858,15.422,3.6241,-1.0371,0.6491,1.0453,1773,2019-08-07 16:15:36:744
-0.1929,-22.8936,-0.232,8.4162,12.7636,-0.5272,-1.0371,0.6491,1.0453,1777,2019-08-07 16:15:36:748
-4.2261,-20.9172,1.7384,8.4162,12.7636,-0.5272,-0.1625,1.4896,1.2051,1783,2019-08-07 16:15:36:754
-4.2261,-20.9172,1.7384,8.4162,12.7636,-0.5272,-0.1625,1.4896,1.2051,1788,2019-08-07 16:15:36:759
-6.6804,-19.5233,1.4556,8.4162,12.7636,-0.5272,0.4618,1.5876,1.3766,1793,2019-08-07 16:15:36:764
-6.6804,-19.5233,1.4556,11.5868,9.7004,-0.7021,0.4618,1.5876,1.3766,1798,2019-08-07 16:15:36:769
-6.6804,-19.5233,1.4556,11.5868,9.7004,-0.7021,0.7441,1.3064,1.3958,1803,2019-08-07 16:15:36:774
-6.6086,-17.017,4.2838,11.5868,9.7004,-0.7021,0.7441,1.3064,1.3958,1808,2019-08-07 16:15:36:779
-6.6086,-17.017,4.2838,11.5868,9.7004,-0.7021,1.004,1.1029,1.1444,1813,2019-08-07 16:15:36:784
-3.4127,-14.7781,4.4253,7.6364,6.029,-3.0648,1.004,1.1029,1.1444,1819,2019-08-07 16:15:36:790
-3.4127,-14.7781,4.4253,7.6364,6.029,-3.0648,1.004,1.1029,1.1444,1822,2019-08-07 16:15:36:793
-3.4127,-14.7781,4.4253,7.6364,6.029,-3.0648,1.1616,0.5415,0.3188,1828,2019-08-07 16:15:36:799
-3.4079,-11.7467,4.5431,7.6364,6.029,-3.0648,1.1616,0.5415,0.3188,1833,2019-08-07 16:15:36:804
-3.4079,-11.7467,4.5431,6.947,1.6556,-2.8816,1.0125,-0.2723,0.0568,1838,2019-08-07 16:15:36:809
-1.9392,-9.9183,4.3027,6.947,1.6556,-2.8816,1.0125,-0.2723,0.0568,1843,2019-08-07 16:15:36:814
-1.9392,-9.9183,4.3027,6.947,1.6556,-2.8816,0.9571,-0.659,0.1718,1848,2019-08-07 16:15:36:819
-1.9392,-9.9183,4.3027,6.947,1.6556,-2.8816,0.9571,-0.659,0.1718,1853,2019-08-07 16:15:36:824
1.3907,-9.7274,2.6906,2.3325,0.7585,-0.8237,0.7952,-0.9498,0.1494,1859,2019-08-07 16:15:36:830
1.3907,-9.7274,2.6906,2.3325,0.7585,-0.8237,0.7952,-0.9498,0.1494,1863,2019-08-07 16:15:36:834
1.3907,-9.7274,2.6906,2.3325,0.7585,-0.8237,0.7952,-0.9498,0.1494,1868,2019-08-07 16:15:36:839
3.1848,-8.3859,1.9364,2.3325,0.7585,-0.8237,0.3244,-1.3845,-0.0551,1873,2019-08-07 16:15:36:844
3.1848,-8.3859,1.9364,-0.3207,-0.6531,0.362,0.3244,-1.3845,-0.0551,1878,2019-08-07 16:15:36:849
5.2707,-7.7415,1.0549,-0.3207,-0.6531,0.362,0.0048,-1.6167,-0.2053,1883,2019-08-07 16:15:36:854
5.2707,-7.7415,1.0549,-0.3207,-0.6531,0.362,0.0048,-1.6167,-0.2053,1888,2019-08-07 16:15:36:859
5.2707,-7.7415,1.0549,-1.975,-1.0573,1.0829,-0.2264,-1.8095,-0.2948,1894,2019-08-07 16:15:36:865
7.4427,-7.5314,0.2818,-1.975,-1.0573,1.0829,-0.2264,-1.8095,-0.2948,1898,2019-08-07 16:15:36:869
7.4427,-7.5314,0.2818,-1.975,-1.0573,1.0829,-0.3958,-1.7104,-0.3896,1903,2019-08-07 16:15:36:874
8.5288,-7.2736,0.0273,-1.975,-1.0573,1.0829,-0.3958,-1.7104,-0.3896,1908,2019-08-07 16:15:36:879
8.5288,-7.2736,0.0273,-4.2537,-1.5419,1.7709,-0.3468,-1.4186,-0.3523,1913,2019-08-07 16:15:36:884
8.5288,-7.2736,0.0273,-4.2537,-1.5419,1.7709,-0.3468,-1.4186,-0.3523,1917,2019-08-07 16:15:36:888
8.9067,-6.5003,-1.6885,-4.2537,-1.5419,1.7709,-0.2839,-0.496,-0.1105,1923,2019-08-07 16:15:36:894
8.9067,-6.5003,-1.6885,-4.2537,-1.5419,1.7709,-0.2839,-0.496,-0.1105,1928,2019-08-07 16:15:36:899
8.878,-6.3475,-1.9525,-4.487,-2.3602,3.1827,-0.3287,0.3157,0.0876,1934,2019-08-07 16:15:36:905
8.878,-6.3475,-1.9525,-4.487,-2.3602,3.1827,-0.3287,0.3157,0.0876,1938,2019-08-07 16:15:36:909
8.878,-6.3475,-1.9525,-4.487,-2.3602,3.1827,-0.4256,1.0166,0.1313,1943,2019-08-07 16:15:36:914
8.1221,-6.7008,-1.104,-2.6285,-1.5556,1.9253,-0.4256,1.0166,0.1313,1949,2019-08-07 16:15:36:920
8.1221,-6.7008,-1.104,-2.6285,-1.5556,1.9253,-0.4746,1.5184,0.0354,1953,2019-08-07 16:15:36:924
5.4238,-7.3691,1.333,-2.6285,-1.5556,1.9253,-0.4746,1.5184,0.0354,1958,2019-08-07 16:15:36:929
5.4238,-7.3691,1.333,-2.6285,-1.5556,1.9253,-0.3883,1.6164,0.045,1963,2019-08-07 16:15:36:934
5.4238,-7.3691,1.333,-2.6285,-1.5556,1.9253,-0.3883,1.6164,0.045,1968,2019-08-07 16:15:36:939
5.4238,-7.3691,1.333,0.8465,-0.3836,-0.455,-0.3883,1.6164,0.045,1973,2019-08-07 16:15:36:944
3.3187,-8.5196,1.828,0.8465,-0.3836,-0.455,-0.3414,1.4161,0.1004,1979,2019-08-07 16:15:36:950
3.3187,-8.5196,1.828,0.8465,-0.3836,-0.455,-0.3414,1.4161,0.1004,1983,2019-08-07 16:15:36:954
2.6824,-9.3025,2.3182,0.8465,-0.3836,-0.455,-0.2637,0.8877,0.0738,1988,2019-08-07 16:15:36:959
2.6824,-9.3025,2.3182,1.6477,0.6357,-1.1527,-0.2637,0.8877,0.0738,1993,2019-08-07 16:15:36:964
2.6824,-9.3025,2.3182,1.6477,0.6357,-1.1527,-0.1529,0.4957,0.0024,1998,2019-08-07 16:15:36:969
2.6537,-9.4123,2.7377,1.6477,0.6357,-1.1527,-0.1529,0.4957,0.0024,2003,2019-08-07 16:15:36:974
2.6537,-9.4123,2.7377,1.6477,0.6357,-1.1527,-0.0613,0.2592,-0.0487,2008,2019-08-07 16:15:36:979
3.0269,-9.3264,2.3512,1.2545,0.6086,-0.9709,-0.0613,0.2592,-0.0487,2013,2019-08-07 16:15:36:984
3.0269,-9.3264,2.3512,1.2545,0.6086,-0.9709,0.009,-0.0156,-0.1073,2017,2019-08-07 16:15:36:988
3.0269,-9.3264,2.3512,1.2545,0.6086,-0.9709,0.009,-0.0156,-0.1073,2023,2019-08-07 16:15:36:994
3.6489,-8.8204,1.8421,1.2545,0.6086,-0.9709,5.0E-4,-0.1264,-0.118,2028,2019-08-07 16:15:36:999
3.6489,-8.8204,1.8421,0.3581,0.0377,-0.1566,5.0E-4,-0.1264,-0.118,2032,2019-08-07 16:15:37:003
4.4861,-8.8013,1.4461,0.3581,0.0377,-0.1566,-0.0325,-0.0923,-0.1542,2038,2019-08-07 16:15:37:009
4.4861,-8.8013,1.4461,0.3581,0.0377,-0.1566,-0.0325,-0.0923,-0.1542,2043,2019-08-07 16:15:37:014
4.4861,-8.8013,1.4461,0.3581,0.0377,-0.1566,-0.0538,-0.0252,-0.1915,2048,2019-08-07 16:15:37:019
4.821,-8.8633,1.7667,-0.4953,0.1661,-0.3945,-0.0538,-0.0252,-0.1915,2053,2019-08-07 16:15:37:024
4.821,-8.8633,1.7667,-0.4953,0.1661,-0.3945,-0.0559,0.0792,-0.1915,2058,2019-08-07 16:15:37:029
4.821,-8.8633,1.7667,-0.4953,0.1661,-0.3945,-0.0559,0.0792,-0.1915,2063,2019-08-07 16:15:37:034
5.1272,-8.9588,1.5263,-0.4953,0.1661,-0.3945,-0.0559,0.0792,-0.1915,2068,2019-08-07 16:15:37:039
5.1272,-8.9588,1.5263,-0.7091,0.1786,-0.1272,-0.0943,0.2315,-0.1978,2073,2019-08-07 16:15:37:044
4.9741,-8.7631,1.5263,-0.7091,0.1786,-0.1272,-0.0943,0.2315,-0.1978,2078,2019-08-07 16:15:37:049
4.9741,-8.7631,1.5263,-0.7091,0.1786,-0.1272,-0.1337,0.2954,-0.1829,2083,2019-08-07 16:15:37:054
4.9741,-8.7631,1.5263,-0.7091,0.1786,-0.1272,-0.1337,0.2954,-0.1829,2088,2019-08-07 16:15:37:059
4.7445,-8.7344,1.5451,-0.3471,0.1404,-0.1941,-0.1667,0.3253,-0.1648,2093,2019-08-07 16:15:37:064
4.7445,-8.7344,1.5451,-0.3471,0.1404,-0.1941,-0.1667,0.3253,-0.1648,2098,2019-08-07 16:15:37:069
4.6153,-8.7392,1.6488,-0.3471,0.1404,-0.1941,-0.1848,0.2709,-0.1425,2103,2019-08-07 16:15:37:074
4.6153,-8.7392,1.6488,-0.3471,0.1404,-0.1941,-0.1848,0.2709,-0.1425,2108,2019-08-07 16:15:37:079
4.7397,-8.7678,1.5451,-0.3038,0.1209,-0.203,-0.1529,0.239,-0.1211,2114,2019-08-07 16:15:37:085
4.7397,-8.7678,1.5451,-0.3038,0.1209,-0.203,-0.1529,0.239,-0.1211,2118,2019-08-07 16:15:37:089
4.7397,-8.7678,1.5451,-0.3038,0.1209,-0.203,-0.1529,0.239,-0.1211,2123,2019-08-07 16:15:37:094
4.9024,-8.701,1.4839,-0.4295,0.0675,-0.1111,-0.1231,0.2134,-0.1084,2128,2019-08-07 16:15:37:099
4.9024,-8.701,1.4839,-0.4295,0.0675,-0.1111,-0.1231,0.2134,-0.1084,2133,2019-08-07 16:15:37:104
4.9024,-8.701,1.4839,-0.4295,0.0675,-0.1111,-0.0623,0.1932,-0.0817,2138,2019-08-07 16:15:37:109
5.0555,-8.5387,1.3802,-0.6264,-0.1064,-0.0083,-0.0623,0.1932,-0.0817,2143,2019-08-07 16:15:37:114
5.0555,-8.5387,1.3802,-0.6264,-0.1064,-0.0083,-0.0208,0.2337,-0.0402,2147,2019-08-07 16:15:37:118
5.0555,-8.5387,1.3802,-0.6264,-0.1064,-0.0083,-0.0208,0.2337,-0.0402,2153,2019-08-07 16:15:37:124
5.0937,-8.4337,1.5404,-0.6264,-0.1064,-0.0083,-0.0101,0.2603,-0.0136,2159,2019-08-07 16:15:37:130
5.0937,-8.4337,1.5404,-0.5474,-0.1878,-0.2099,-0.0101,0.2603,-0.0136,2163,2019-08-07 16:15:37:134
5.0937,-8.4337,1.5404,-0.5474,-0.1878,-0.2099,-0.0187,0.3178,0.0173,2168,2019-08-07 16:15:37:139
4.8306,-8.3812,1.5876,-0.3408,-0.2736,-0.1542,-0.0187,0.3178,0.0173,2173,2019-08-07 16:15:37:144
4.8306,-8.3812,1.5876,-0.3408,-0.2736,-0.1542,-0.057,0.3519,0.0163,2179,2019-08-07 16:15:37:150
4.3952,-8.2714,1.6488,-0.3408,-0.2736,-0.1542,-0.057,0.3519,0.0163,2183,2019-08-07 16:15:37:154
4.3952,-8.2714,1.6488,-0.3408,-0.2736,-0.1542,-0.1092,0.3114,0.0195,2188,2019-08-07 16:15:37:159
4.3952,-8.2714,1.6488,-0.3408,-0.2736,-0.1542,-0.1092,0.3114,0.0195,2192,2019-08-07 16:15:37:163
4.2134,-8.5005,1.861,0.2309,-0.229,-0.4325,-0.1092,0.3114,0.0195,2198,2019-08-07 16:15:37:169
4.2134,-8.5005,1.861,0.2309,-0.229,-0.4325,-0.1412,0.1868,0.0067,2202,2019-08-07 16:15:37:173
4.3187,-8.6246,1.7667,0.2309,-0.229,-0.4325,-0.1412,0.1868,0.0067,2208,2019-08-07 16:15:37:179
4.3187,-8.6246,1.7667,-0.0472,-0.0657,-0.3143,-0.1305,0.1122,-0.0274,2214,2019-08-07 16:15:37:185
4.3187,-8.6246,1.7667,-0.0472,-0.0657,-0.3143,-0.1305,0.1122,-0.0274,2218,2019-08-07 16:15:37:189
4.5382,-8.5577,1.5827,-0.0472,-0.0657,-0.3143,-0.0975,0.092,-0.0647,2223,2019-08-07 16:15:37:194
4.5382,-8.5577,1.5827,-0.0472,-0.0657,-0.3143,-0.0975,0.092,-0.0647,2228,2019-08-07 16:15:37:199
4.8013,-8.362,1.3989,-0.3814,-0.2812,0.0137,-0.0709,0.1165,-0.0871,2234,2019-08-07 16:15:37:205
4.8013,-8.362,1.3989,-0.3814,-0.2812,0.0137,-0.0709,0.1165,-0.0871,2238,2019-08-07 16:15:37:209
4.8013,-8.362,1.3989,-0.3814,-0.2812,0.0137,-0.0591,0.1783,-0.1084,2243,2019-08-07 16:15:37:214
5.0118,-8.2618,1.2009,-0.3814,-0.2812,0.0137,-0.0591,0.1783,-0.1084,2249,2019-08-07 16:15:37:220
5.0118,-8.2618,1.2009,-0.3814,-0.2812,0.0137,-0.0591,0.1783,-0.1084,2253,2019-08-07 16:15:37:224
5.0118,-8.2618,1.2009,-0.6064,-0.3326,0.0761,-0.0485,0.272,-0.1318,2258,2019-08-07 16:15:37:229
4.9544,-8.3668,1.3989,-0.6064,-0.3326,0.0761,-0.0304,0.3189,-0.1329,2264,2019-08-07 16:15:37:235
4.9544,-8.3668,1.3989,-0.6064,-0.3326,0.0761,-0.0304,0.3189,-0.1329,2268,2019-08-07 16:15:37:239
4.9544,-8.3668,1.3989,-0.6064,-0.3326,0.0761,-0.0304,0.3189,-0.1329,2272,2019-08-07 16:15:37:243
4.72,-8.5005,1.314,-0.2635,-0.1194,0.1259,-0.0251,0.3072,-0.1137,2278,2019-08-07 16:15:37:249
4.72,-8.5005,1.314,-0.2635,-0.1194,0.1259,-0.0187,0.2646,-0.0935,2283,2019-08-07 16:15:37:254
4.3994,-8.5673,1.4177,-0.2635,-0.1194,0.1259,-0.0187,0.2646,-0.0935,2288,2019-08-07 16:15:37:259
4.3994,-8.5673,1.4177,-0.2635,-0.1194,0.1259,-0.0187,0.2646,-0.0935,2292,2019-08-07 16:15:37:263
4.3994,-8.5673,1.4177,0.1715,0.0368,-0.1031,0.0058,0.1729,-0.0775,2298,2019-08-07 16:15:37:269
4.2846,-8.6914,1.5167,0.1715,0.0368,-0.1031,0.0058,0.1729,-0.0775,2302,2019-08-07 16:15:37:273
4.2846,-8.6914,1.5167,0.1715,0.0368,-0.1031,0.0346,-0.0209,-0.0455,2308,2019-08-07 16:15:37:279
4.5669,-8.7391,1.1962,-0.1415,0.1184,0.2346,0.0346,-0.0209,-0.0455,2314,2019-08-07 16:15:37:285
4.5669,-8.7391,1.1962,-0.1415,0.1184,0.2346,0.0548,-0.1104,-0.0455,2318,2019-08-07 16:15:37:289
4.5669,-8.7391,1.1962,-0.1415,0.1184,0.2346,0.0548,-0.1104,-0.0455,2323,2019-08-07 16:15:37:294
4.8204,-8.6914,1.1962,-0.3547,-0.0023,0.2946,0.0751,-0.1285,-0.0594,2328,2019-08-07 16:15:37:299
4.8204,-8.6914,1.1962,-0.3547,-0.0023,0.2946,0.0751,-0.1285,-0.0594,2333,2019-08-07 16:15:37:304
4.9926,-8.3716,1.1208,-0.3547,-0.0023,0.2946,0.0985,-0.1072,-0.0679,2338,2019-08-07 16:15:37:309
4.9926,-8.3716,1.1208,-0.3547,-0.0023,0.2946,0.0985,-0.1072,-0.0679,2342,2019-08-07 16:15:37:313
5.0644,-8.3286,1.1208,-0.5799,-0.2737,0.4105,0.0975,-0.0433,-0.0764,2348,2019-08-07 16:15:37:319
5.0644,-8.3286,1.1208,-0.5799,-0.2737,0.4105,0.0975,-0.0433,-0.0764,2353,2019-08-07 16:15:37:324
5.0644,-8.3286,1.1208,-0.5799,-0.2737,0.4105,0.0889,0.0089,-0.0828,2358,2019-08-07 16:15:37:329
5.0548,-8.2093,1.3659,-0.5799,-0.2737,0.4105,0.0889,0.0089,-0.0828,2363,2019-08-07 16:15:37:334
5.0548,-8.2093,1.3659,-0.5275,-0.3617,0.0327,0.0889,0.0089,-0.0828,2368,2019-08-07 16:15:37:339
5.0548,-8.2093,1.3659,-0.5275,-0.3617,0.0327,0.0676,0.0366,-0.0775,2373,2019-08-07 16:15:37:344
4.8539,-8.1329,1.578,-0.5275,-0.3617,0.0327,0.0676,0.0366,-0.0775,2378,2019-08-07 16:15:37:349
4.8539,-8.1329,1.578,-0.5275,-0.3617,0.0327,0.0218,-0.0167,-0.0572,2383,2019-08-07 16:15:37:354
4.8539,-8.1329,1.578,-0.1917,-0.3993,-0.1342,0.0218,-0.0167,-0.0572,2388,2019-08-07 16:15:37:359
4.763,-8.1806,1.6487,-0.1917,-0.3993,-0.1342,-0.0176,-0.0795,-0.0434,2393,2019-08-07 16:15:37:364
4.763,-8.1806,1.6487,-0.1917,-0.3993,-0.1342,-0.0176,-0.0795,-0.0434,2399,2019-08-07 16:15:37:370
4.763,-8.1806,1.6487,-0.1917,-0.3993,-0.1342,-0.0176,-0.0795,-0.0434,2403,2019-08-07 16:15:37:374
4.873,-8.319,1.6911,-0.3277,-0.2463,-0.2042,-0.0496,-0.1157,-0.0295,2407,2019-08-07 16:15:37:378
4.873,-8.319,1.6911,-0.3277,-0.2463,-0.2042,-0.0496,-0.1157,-0.0295,2413,2019-08-07 16:15:37:384
4.873,-8.319,1.6911,-0.3277,-0.2463,-0.2042,-0.0613,-0.1115,-0.0114,2418,2019-08-07 16:15:37:389
5.2223,-8.4241,1.446,-0.3277,-0.2463,-0.2042,-0.0613,-0.1115,-0.0114,2423,2019-08-07 16:15:37:394
5.2223,-8.4241,1.446,-0.714,-0.1391,0.0724,-0.0485,-0.0529,-0.0157,2428,2019-08-07 16:15:37:399
5.2223,-8.4241,1.446,-0.714,-0.1391,0.0724,-0.0485,-0.0529,-0.0157,2433,2019-08-07 16:15:37:404
5.2366,-8.4145,1.5214,-0.714,-0.1391,0.0724,-0.0485,-0.0529,-0.0157,2438,2019-08-07 16:15:37:409
5.2366,-8.4145,1.5214,-0.714,-0.1391,0.0724,-0.0155,0.0281,-0.0189,2443,2019-08-07 16:15:37:414
5.2366,-8.4145,1.5214,-0.5769,-0.2407,-0.1919,-0.0155,0.0281,-0.0189,2448,2019-08-07 16:15:37:419
5.0596,-8.2713,1.5969,-0.5769,-0.2407,-0.1919,0.0058,0.0707,-0.0114,2453,2019-08-07 16:15:37:424
5.0596,-8.2713,1.5969,-0.5769,-0.2407,-0.1919,0.0058,0.0707,-0.0114,2458,2019-08-07 16:15:37:429
5.0596,-8.2713,1.5969,-0.5769,-0.2407,-0.1919,-0.0112,0.0675,-0.0029,2463,2019-08-07 16:15:37:434
4.8012,-8.1997,1.6723,-0.177,-0.3573,-0.2079,-0.0112,0.0675,-0.0029,2467,2019-08-07 16:15:37:438
4.8012,-8.1997,1.6723,-0.177,-0.3573,-0.2079,-0.04,0.0291,0.0173,2473,2019-08-07 16:15:37:444
4.562,-8.2474,1.7241,-0.177,-0.3573,-0.2079,-0.04,0.0291,0.0173,2479,2019-08-07 16:15:37:450
4.562,-8.2474,1.7241,-0.177,-0.3573,-0.2079,-0.04,0.0291,0.0173,2483,2019-08-07 16:15:37:454
4.562,-8.2474,1.7241,0.0736,-0.1976,-0.2376,-0.0783,-0.0699,0.0333,2488,2019-08-07 16:15:37:459
4.4472,-8.3763,1.7147,0.0736,-0.1976,-0.2376,-0.0783,-0.0699,0.0333,2493,2019-08-07 16:15:37:464
4.4472,-8.3763,1.7147,0.0736,-0.1976,-0.2376,-0.1156,-0.1871,0.0461,2499,2019-08-07 16:15:37:470
4.4472,-8.3763,1.7147,0.0736,-0.1976,-0.2376,-0.1156,-0.1871,0.0461,2503,2019-08-07 16:15:37:474
4.6625,-8.5912,1.5403,-0.1872,0.086,-0.1193,-0.1401,-0.2819,0.0578,2508,2019-08-07 16:15:37:479
4.6625,-8.5912,1.5403,-0.1872,0.086,-0.1193,-0.1401,-0.2819,0.0578,2513,2019-08-07 16:15:37:484
4.6625,-8.5912,1.5403,-0.1872,0.086,-0.1193,-0.1358,-0.3192,0.0599,2518,2019-08-07 16:15:37:489
5.2509,-8.6866,1.2999,-0.1872,0.086,-0.1193,-0.1358,-0.3192,0.0599,2522,2019-08-07 16:15:37:493
5.2509,-8.6866,1.2999,-0.9745,0.1693,0.1159,-0.1103,-0.2329,0.045,2528,2019-08-07 16:15:37:499
5.6002,-8.6198,1.215,-0.9745,0.1693,0.1159,-0.1103,-0.2329,0.045,2533,2019-08-07 16:15:37:504
5.6002,-8.6198,1.215,-0.9745,0.1693,0.1159,-0.1103,-0.2329,0.045,2538,2019-08-07 16:15:37:509
5.6002,-8.6198,1.215,-0.9745,0.1693,0.1159,-0.0645,-0.0444,0.0344,2543,2019-08-07 16:15:37:514
5.6385,-8.4432,1.1679,-1.0099,-0.1244,0.0956,-0.0645,-0.0444,0.0344,2548,2019-08-07 16:15:37:519
5.6385,-8.4432,1.1679,-1.0099,-0.1244,0.0956,-0.0421,0.1325,0.0354,2553,2019-08-07 16:15:37:524
5.6385,-8.4432,1.1679,-1.0099,-0.1244,0.0956,-0.0421,0.1325,0.0354,2558,2019-08-07 16:15:37:529
5.3705,-8.3907,1.4036,-1.0099,-0.1244,0.0956,-0.0325,0.2752,0.0322,2563,2019-08-07 16:15:37:534
5.3705,-8.3907,1.4036,-0.471,-0.1782,-0.2912,-0.0325,0.2752,0.0322,2568,2019-08-07 16:15:37:539
4.9495,-8.405,1.7241,-0.471,-0.1782,-0.2912,-0.0325,0.2752,0.0322,2573,2019-08-07 16:15:37:544
4.9495,-8.405,1.7241,-0.471,-0.1782,-0.2912,-0.0314,0.2976,0.0291,2577,2019-08-07 16:15:37:548
4.4232,-8.405,2.0777,-0.471,-0.1782,-0.2912,-0.0314,0.2976,0.0291,2583,2019-08-07 16:15:37:554
4.4232,-8.405,2.0777,-0.471,-0.1782,-0.2912,-0.0112,0.2326,0.0397,2588,2019-08-07 16:15:37:559
4.4232,-8.405,2.0777,0.3388,-0.2191,-0.8211,-0.0112,0.2326,0.0397,2594,2019-08-07 16:15:37:565
4.117,-8.3811,2.1625,0.3388,-0.2191,-0.8211,-0.0016,0.1122,0.0536,2598,2019-08-07 16:15:37:569
4.117,-8.3811,2.1625,0.3388,-0.2191,-0.8211,-0.0016,0.1122,0.0536,2603,2019-08-07 16:15:37:574
4.117,-8.3811,2.1625,0.2109,-0.1716,-0.7059,0.0026,-0.0774,0.0536,2608,2019-08-07 16:15:37:579
4.4663,-8.4432,2.0117,0.2109,-0.1716,-0.7059,0.0026,-0.0774,0.0536,2613,2019-08-07 16:15:37:584
4.4663,-8.4432,2.0117,0.2109,-0.1716,-0.7059,0.0154,-0.1988,0.0141,2618,2019-08-07 16:15:37:589
4.8442,-8.4002,1.7005,0.2109,-0.1716,-0.7059,0.0154,-0.1988,0.0141,2623,2019-08-07 16:15:37:594
4.8442,-8.4002,1.7005,0.2109,-0.1716,-0.7059,0.0154,-0.1988,0.0141,2628,2019-08-07 16:15:37:599
4.8442,-8.4002,1.7005,-0.5224,-0.248,-0.1796,0.0282,-0.1807,-0.0231,2633,2019-08-07 16:15:37:604
5.27,-8.2856,1.3989,-0.5224,-0.248,-0.1796,0.0282,-0.1807,-0.0231,2638,2019-08-07 16:15:37:609
5.27,-8.2856,1.3989,-0.5224,-0.248,-0.1796,0.0389,-0.0486,-0.0508,2643,2019-08-07 16:15:37:614
5.3418,-8.3143,1.2386,-0.7894,-0.2638,0.1502,0.0293,0.0845,-0.0668,2649,2019-08-07 16:15:37:620
5.3418,-8.3143,1.2386,-0.7894,-0.2638,0.1502,0.0293,0.0845,-0.0668,2653,2019-08-07 16:15:37:624
5.3418,-8.3143,1.2386,-0.7894,-0.2638,0.1502,0.0293,0.0845,-0.0668,2658,2019-08-07 16:15:37:629
5.1791,-8.2999,1.4177,-0.7894,-0.2638,0.1502,0.0239,0.2219,-0.0828,2664,2019-08-07 16:15:37:635
5.1791,-8.2999,1.4177,-0.7894,-0.2638,0.1502,0.0239,0.2219,-0.0828,2668,2019-08-07 16:15:37:639
5.1791,-8.2999,1.4177,-0.3698,-0.3106,-0.2333,0.0303,0.2496,-0.0913,2673,2019-08-07 16:15:37:644
4.7916,-8.3047,1.611,-0.3698,-0.3106,-0.2333,0.0303,0.2496,-0.0913,2678,2019-08-07 16:15:37:649
4.7916,-8.3047,1.611,-0.1062,-0.3054,-0.2325,0.0303,0.2496,-0.0913,2683,2019-08-07 16:15:37:654
4.5332,-8.2474,1.875,-0.1062,-0.3054,-0.2325,0.0314,0.1921,-0.0807,2688,2019-08-07 16:15:37:659
4.5332,-8.2474,1.875,-0.1062,-0.3054,-0.2325,0.0314,0.1921,-0.0807,2693,2019-08-07 16:15:37:664
4.5332,-8.2474,1.875,-0.1062,-0.3054,-0.2325,0.0133,0.06,-0.0615,2698,2019-08-07 16:15:37:669
4.4088,-8.1758,1.8372,0.1707,-0.3782,-0.3909,0.0133,0.06,-0.0615,2703,2019-08-07 16:15:37:674
4.4088,-8.1758,1.8372,0.1707,-0.3782,-0.3909,-0.0091,-0.0966,-0.0253,2708,2019-08-07 16:15:37:679
4.7964,-8.2904,1.7335,0.1707,-0.3782,-0.3909,-0.0091,-0.0966,-0.0253,2712,2019-08-07 16:15:37:683
4.7964,-8.2904,1.7335,0.1707,-0.3782,-0.3909,-0.0208,-0.1871,-0.0093,2718,2019-08-07 16:15:37:689
4.7964,-8.2904,1.7335,-0.3753,-0.2083,-0.1057,-0.0208,-0.1871,-0.0093,2723,2019-08-07 16:15:37:694
5.0451,-8.3381,1.4837,-0.3753,-0.2083,-0.1057,-0.0272,-0.1924,0.0163,2728,2019-08-07 16:15:37:699
5.0451,-8.3381,1.4837,-0.3753,-0.2083,-0.1057,-0.0272,-0.1924,0.0163,2733,2019-08-07 16:15:37:704
5.0451,-8.3381,1.4837,-0.3753,-0.2083,-0.1057,-0.0272,-0.1924,0.0163,2738,2019-08-07 16:15:37:709
5.4662,-8.5004,1.2622,-0.8277,0.0209,0.2027,-0.0219,-0.0998,0.0291,2743,2019-08-07 16:15:37:714
5.4662,-8.5004,1.2622,-0.8277,0.0209,0.2027,-0.0219,-0.0998,0.0291,2748,2019-08-07 16:15:37:719
5.3657,-8.5195,1.2244,-0.8277,0.0209,0.2027,-0.0165,0.0536,0.0472,2753,2019-08-07 16:15:37:724
5.3657,-8.5195,1.2244,-0.8277,0.0209,0.2027,-0.0165,0.0536,0.0472,2758,2019-08-07 16:15:37:729
5.3657,-8.5195,1.2244,-0.5397,-0.0386,0.145,-0.0165,0.1548,0.0546,2763,2019-08-07 16:15:37:734
4.9447,-8.5052,1.3847,-0.5397,-0.0386,0.145,-0.0165,0.1548,0.0546,2767,2019-08-07 16:15:37:738
4.9447,-8.5052,1.3847,-0.5397,-0.0386,0.145,-0.0091,0.1942,0.0621,2773,2019-08-07 16:15:37:744
4.5284,-8.4909,1.5874,-0.5397,-0.0386,0.145,-0.0091,0.1942,0.0621,2778,2019-08-07 16:15:37:749
4.5284,-8.4909,1.5874,0.0631,-0.0055,-0.1599,-0.0112,0.1559,0.0567,2783,2019-08-07 16:15:37:754
4.5284,-8.4909,1.5874,0.0631,-0.0055,-0.1599,-0.0112,0.1559,0.0567,2788,2019-08-07 16:15:37:759
4.2988,-8.4813,1.5874,0.2711,-0.08,-0.1537,-0.024,0.0899,0.0557,2794,2019-08-07 16:15:37:765
4.2988,-8.4813,1.5874,0.2711,-0.08,-0.1537,-0.024,0.0899,0.0557,2798,2019-08-07 16:15:37:769
4.2988,-8.4813,1.5874,0.2711,-0.08,-0.1537,-0.024,0.0899,0.0557,2802,2019-08-07 16:15:37:773
4.3418,-8.4957,1.71,0.2711,-0.08,-0.1537,-0.0251,-0.0348,0.0536,2808,2019-08-07 16:15:37:779
4.3418,-8.4957,1.71,0.1694,-0.0861,-0.2876,-0.0251,-0.0348,0.0536,2813,2019-08-07 16:15:37:784
4.3418,-8.4957,1.71,0.1694,-0.0861,-0.2876,-0.008,-0.1115,0.0514,2818,2019-08-07 16:15:37:789
4.5236,-8.4957,1.5827,0.1694,-0.0861,-0.2876,-0.008,-0.1115,0.0514,2823,2019-08-07 16:15:37:794
4.5236,-8.4957,1.5827,0.1694,-0.0861,-0.2876,-0.0101,-0.1647,0.0461,2828,2019-08-07 16:15:37:799
4.7054,-8.4145,1.5261,-0.1498,-0.1571,-0.1085,-0.0101,-0.1647,0.0461,2834,2019-08-07 16:15:37:805
4.7054,-8.4145,1.5261,-0.1498,-0.1571,-0.1085,-0.0037,-0.1722,0.0386,2838,2019-08-07 16:15:37:809
4.7054,-8.4145,1.5261,-0.1498,-0.1571,-0.1085,-0.0037,-0.1722,0.0386,2843,2019-08-07 16:15:37:814
4.8202,-8.4097,1.4177,-0.1498,-0.1571,-0.1085,0.0026,-0.1541,0.0333,2848,2019-08-07 16:15:37:819
4.8202,-8.4097,1.4177,-0.369,-0.1783,0.0979,0.0026,-0.1541,0.0333,2853,2019-08-07 16:15:37:824
4.9781,-8.467,1.3423,-0.369,-0.1783,0.0979,0.0026,-0.1541,0.0333,2858,2019-08-07 16:15:37:829
4.9781,-8.467,1.3423,-0.369,-0.1783,0.0979,0.0122,-0.0966,0.0109,2863,2019-08-07 16:15:37:834
4.9781,-8.467,1.3423,-0.369,-0.1783,0.0979,0.0122,-0.0966,0.0109,2868,2019-08-07 16:15:37:839
5.0212,-8.4957,1.4413,-0.427,-0.1388,-0.0119,0.0282,-0.0476,-0.005,2873,2019-08-07 16:15:37:844
5.0212,-8.4957,1.4413,-0.427,-0.1388,-0.0119,0.0282,-0.0476,-0.005,2878,2019-08-07 16:15:37:849
4.4662,-8.2713,0.9322,-0.427,-0.1388,-0.0119,0.0282,-0.0476,-0.005,2883,2019-08-07 16:15:37:854
4.4662,-8.2713,0.9322,-0.427,-0.1388,-0.0119,-0.0879,-0.2233,-0.0178,2888,2019-08-07 16:15:37:859
4.9016,-8.6484,2.0635,-0.3331,0.0766,-0.6891,-0.0879,-0.2233,-0.0178,2893,2019-08-07 16:15:37:864
4.9016,-8.6484,2.0635,-0.3331,0.0766,-0.6891,0.0335,-0.1307,-0.0221,2897,2019-08-07 16:15:37:868
4.9016,-8.6484,2.0635,-0.3331,0.0766,-0.6891,0.0335,-0.1307,-0.0221,2903,2019-08-07 16:15:37:874
5.0259,-8.7344,1.5638,-0.3331,0.0766,-0.6891,0.0975,-0.1466,-0.0125,2907,2019-08-07 16:15:37:878
5.0259,-8.7344,1.5638,-0.5872,0.0672,-0.0142,0.0975,-0.1466,-0.0125,2913,2019-08-07 16:15:37:884
5.2317,-8.572,1.2621,-0.5872,0.0672,-0.0142,0.1369,-0.0476,-0.005,2918,2019-08-07 16:15:37:889
5.2317,-8.572,1.2621,-0.5872,0.0672,-0.0142,0.1369,-0.0476,-0.005,2923,2019-08-07 16:15:37:894
5.2317,-8.572,1.2621,-0.5872,0.0672,-0.0142,0.1241,0.0259,0.0099,2928,2019-08-07 16:15:37:899
5.1982,-8.405,1.5025,-0.6027,-0.1564,-0.1197,0.1241,0.0259,0.0099,2933,2019-08-07 16:15:37:904
5.1982,-8.405,1.5025,-0.6027,-0.1564,-0.1197,0.1102,0.0845,0.0152,2937,2019-08-07 16:15:37:908
4.892,-8.3143,1.4413,-0.6027,-0.1564,-0.1197,0.1102,0.0845,0.0152,2943,2019-08-07 16:15:37:914
4.892,-8.3143,1.4413,-0.6027,-0.1564,-0.1197,0.057,0.0717,0.0067,2948,2019-08-07 16:15:37:919
4.892,-8.3143,1.4413,-0.006,-0.2824,-0.4275,0.057,0.0717,0.0067,2953,2019-08-07 16:15:37:924
4.5714,-8.3047,1.9079,-0.006,-0.2824,-0.4275,0.0357,0.0195,0.0109,2958,2019-08-07 16:15:37:929
4.5714,-8.3047,1.9079,-0.006,-0.2824,-0.4275,0.0357,0.0195,0.0109,2963,2019-08-07 16:15:37:934
4.6862,-8.5434,1.9409,-0.006,-0.2824,-0.4275,0.0378,-0.0753,0.0163,2968,2019-08-07 16:15:37:939
4.6862,-8.5434,1.9409,-0.203,0.0095,-0.4396,0.0378,-0.0753,0.0163,2973,2019-08-07 16:15:37:944