ACCELEROMETER X (m/s²),ACCELEROMETER Y (m/s²),ACCELEROMETER Z (m/s²),LINEAR ACCELERATION X (m/s²),LINEAR ACCELERATION Y (m/s²),LINEAR ACCELERATION Z (m/s²),GYROSCOPE X (rad/s),GYROSCOPE Y (rad/s),GYROSCOPE Z (rad/s),Time since start in ms ,YYYY-MO-DD HH-MI-SS_SSS
5.2085,-8.3134,1.5054,-0.2577,-0.1272,0.0308,-0.04,0.0132,0.0045,3,2019-08-07 16:16:27:797
5.2085,-8.3134,1.5054,-0.2505,-0.0558,0.0123,-0.04,0.0132,0.0045,7,2019-08-07 16:16:27:801
5.1224,-8.3277,1.529,-0.2505,-0.0558,0.0123,-0.025,0.0302,0.0088,13,2019-08-07 16:16:27:807
5.1224,-8.3277,1.529,-0.2505,-0.0558,0.0123,-0.025,0.0302,0.0088,17,2019-08-07 16:16:27:811
5.1224,-8.3277,1.529,-0.2505,-0.0558,0.0123,-0.025,0.0302,0.0088,23,2019-08-07 16:16:27:817
4.9741,-8.3993,1.5054,-0.0799,0.0338,0.0112,-0.0144,0.0462,0.0141,27,2019-08-07 16:16:27:821
4.9741,-8.3993,1.5054,-0.0799,0.0338,0.0112,-0.0144,0.0462,0.0141,33,2019-08-07 16:16:27:827
4.9741,-8.3993,1.5054,-0.0799,0.0338,0.0112,-0.0112,0.0387,0.0077,38,2019-08-07 16:16:27:832
5.0172,-8.3611,1.4818,-0.0799,0.0338,0.0112,-0.0112,0.0387,0.0077,43,2019-08-07 16:16:27:837
5.0172,-8.3611,1.4818,-0.1006,-0.024,-0.0197,-0.0027,0.0292,2.0E-4,48,2019-08-07 16:16:27:842
4.9263,-8.342,1.5478,-0.1006,-0.024,-0.0197,-0.0027,0.0292,2.0E-4,53,2019-08-07 16:16:27:847
4.9263,-8.342,1.5478,-0.1006,-0.024,-0.0197,0.0165,0.0249,-0.0115,58,2019-08-07 16:16:27:852
4.9263,-8.342,1.5478,-0.1006,-0.024,-0.0197,0.0165,0.0249,-0.0115,63,2019-08-07 16:16:27:857
4.9215,-8.237,1.4583,-0.0747,-0.0746,0.0507,0.0197,0.0068,-0.02,67,2019-08-07 16:16:27:861
4.9215,-8.237,1.4583,-0.0747,-0.0746,0.0507,0.0197,0.0068,-0.02,73,2019-08-07 16:16:27:867
4.9502,-8.2513,1.6421,-0.0747,-0.0746,0.0507,0.0229,-0.0017,-0.0253,78,2019-08-07 16:16:27:872
4.9502,-8.2513,1.6421,-0.0747,-0.0746,0.0507,0.0229,-0.0017,-0.0253,83,2019-08-07 16:16:27:877
4.9502,-8.2513,1.6421,-0.1174,-0.1045,-0.0357,0.0154,-0.0145,-0.0243,87,2019-08-07 16:16:27:881
5.0411,-8.2657,1.5526,-0.1174,-0.1045,-0.0357,0.0154,-0.0145,-0.0243,93,2019-08-07 16:16:27:887
5.0411,-8.2657,1.5526,-0.1174,-0.1045,-0.0357,0.0101,-0.0326,-0.0285,98,2019-08-07 16:16:27:892
5.0315,-8.28,1.562,-0.1174,-0.1045,-0.0357,0.0101,-0.0326,-0.0285,103,2019-08-07 16:16:27:897
5.0315,-8.28,1.562,-0.1347,-0.053,-0.0224,0.0059,-0.0443,-0.0253,108,2019-08-07 16:16:27:902
5.0315,-8.28,1.562,-0.1347,-0.053,-0.0224,0.0059,-0.0443,-0.0253,113,2019-08-07 16:16:27:907
5.1033,-8.3038,1.5761,-0.1347,-0.053,-0.0224,0.009,-0.0422,-0.0264,118,2019-08-07 16:16:27:912
5.1033,-8.3038,1.5761,-0.1347,-0.053,-0.0224,0.009,-0.0422,-0.0264,123,2019-08-07 16:16:27:917
5.1081,-8.3229,1.5761,-0.1948,-0.0301,-0.0525,0.0144,-0.0284,-0.0264,128,2019-08-07 16:16:27:922
5.1081,-8.3229,1.5761,-0.1948,-0.0301,-0.0525,0.0144,-0.0284,-0.0264,133,2019-08-07 16:16:27:927
5.1081,-8.3229,1.5761,-0.1948,-0.0301,-0.0525,0.0144,-0.0284,-0.0264,137,2019-08-07 16:16:27:931
5.0842,-8.2418,1.562,-0.1948,-0.0301,-0.0525,0.0122,-0.0177,-0.0168,143,2019-08-07 16:16:27:937
5.0842,-8.2418,1.562,-0.2137,-0.0701,-0.0753,0.0059,-0.0081,-0.0104,148,2019-08-07 16:16:27:942
5.0842,-8.2418,1.562,-0.2137,-0.0701,-0.0753,0.0059,-0.0081,-0.0104,153,2019-08-07 16:16:27:947
5.0889,-8.2657,1.562,-0.2137,-0.0701,-0.0753,0.0059,-0.0081,-0.0104,158,2019-08-07 16:16:27:952
5.0889,-8.2657,1.562,-0.2137,-0.0701,-0.0753,-0.0037,-7.0E-4,-0.0051,162,2019-08-07 16:16:27:956
5.0889,-8.2657,1.562,-0.1539,-0.0687,-0.0992,-0.0037,-7.0E-4,-0.0051,168,2019-08-07 16:16:27:962
5.0746,-8.28,1.6233,-0.1539,-0.0687,-0.0992,-0.0144,-0.0028,-0.0019,172,2019-08-07 16:16:27:966
5.0746,-8.28,1.6233,-0.1539,-0.0687,-0.0992,-0.0144,-0.0028,-0.0019,178,2019-08-07 16:16:27:972
5.0459,-8.2609,1.6185,-0.1539,-0.0687,-0.0992,-0.025,-0.0135,-0.004,182,2019-08-07 16:16:27:976
5.0459,-8.2609,1.6185,-0.1539,-0.0687,-0.0992,-0.025,-0.0135,-0.004,188,2019-08-07 16:16:27:982
5.0459,-8.2609,1.6185,-0.1281,-0.0014,-0.0559,-0.025,-0.0135,-0.004,192,2019-08-07 16:16:27:986
5.0411,-8.2991,1.5478,-0.1281,-0.0014,-0.0559,-0.0218,-0.0198,-0.003,199,2019-08-07 16:16:27:993
5.0411,-8.2991,1.5478,-0.1281,-0.0014,-0.0559,-0.024,-0.023,0.0013,203,2019-08-07 16:16:27:997
5.1416,-8.3229,1.4771,-0.1281,-0.0014,-0.0559,-0.024,-0.023,0.0013,208,2019-08-07 16:16:28:002
5.1416,-8.3229,1.4771,-0.2265,0.0225,0.0653,-0.024,-0.023,0.0013,213,2019-08-07 16:16:28:007
5.1416,-8.3229,1.4771,-0.2265,0.0225,0.0653,-0.0165,-0.0135,-0.0051,218,2019-08-07 16:16:28:012
5.1559,-8.3182,1.5667,-0.2265,0.0225,0.0653,-0.0165,-0.0135,-0.0051,223,2019-08-07 16:16:28:017
5.1559,-8.3182,1.5667,-0.2265,0.0225,0.0653,0.0016,0.0036,-0.0083,228,2019-08-07 16:16:28:022
5.1081,-8.3516,1.5243,-0.1381,-0.0052,-0.0456,0.0016,0.0036,-0.0083,232,2019-08-07 16:16:28:026
5.1081,-8.3516,1.5243,-0.1381,-0.0052,-0.0456,0.0101,0.01,-0.0062,238,2019-08-07 16:16:28:032
5.1081,-8.3516,1.5243,-0.1381,-0.0052,-0.0456,0.0101,0.01,-0.0062,243,2019-08-07 16:16:28:037
5.1224,-8.3038,1.5714,-0.1381,-0.0052,-0.0456,0.0101,-0.0071,-0.004,248,2019-08-07 16:16:28:042
5.1224,-8.3038,1.5714,-0.1169,-0.037,-0.0673,0.0101,-0.0071,-0.004,253,2019-08-07 16:16:28:047
5.1224,-8.3516,1.5997,-0.1169,-0.037,-0.0673,0.0154,-0.0167,0.0034,258,2019-08-07 16:16:28:052
5.1224,-8.3516,1.5997,-0.1169,-0.037,-0.0673,0.0154,-0.0167,0.0034,262,2019-08-07 16:16:28:056
5.1224,-8.3516,1.5997,-0.1169,-0.037,-0.0673,0.024,-0.0198,0.0045,268,2019-08-07 16:16:28:062
5.1607,-8.3707,1.6515,-0.2303,0.0262,-0.1358,0.024,-0.0198,0.0045,272,2019-08-07 16:16:28:066
5.1607,-8.3707,1.6515,-0.2303,0.0262,-0.1358,0.0314,-0.022,0.0109,278,2019-08-07 16:16:28:072
5.1894,-8.2991,1.6421,-0.2588,-0.0449,-0.1244,0.0314,-0.022,0.0109,283,2019-08-07 16:16:28:077
5.1894,-8.2991,1.6421,-0.2588,-0.0449,-0.1244,0.0218,-0.0273,0.0162,287,2019-08-07 16:16:28:081
5.1512,-8.2991,1.5148,-0.2588,-0.0449,-0.1244,0.0218,-0.0273,0.0162,294,2019-08-07 16:16:28:088
5.1512,-8.2991,1.5148,-0.2588,-0.0449,-0.1244,0.0144,-0.006,0.0183,298,2019-08-07 16:16:28:092
5.1512,-8.2991,1.5148,-0.2018,-0.0639,-2.0E-4,0.0144,-0.006,0.0183,302,2019-08-07 16:16:28:096
5.132,-8.3898,1.5997,-0.2018,-0.0639,-2.0E-4,0.0144,-0.006,0.0183,308,2019-08-07 16:16:28:102
5.132,-8.3898,1.5997,-0.2018,-0.0639,-2.0E-4,0.0144,0.0089,0.0173,312,2019-08-07 16:16:28:106
5.0459,-8.3373,1.595,-0.2018,-0.0639,-2.0E-4,0.0144,0.0089,0.0173,318,2019-08-07 16:16:28:112
5.0459,-8.3373,1.595,-0.0944,-0.017,-0.0529,0.0208,0.0121,0.0183,322,2019-08-07 16:16:28:116
5.0459,-8.3373,1.595,-0.0944,-0.017,-0.0529,0.0208,0.0121,0.0183,328,2019-08-07 16:16:28:122
5.0268,-8.3277,1.5667,-0.0944,-0.017,-0.0529,0.0186,0.0174,0.013,333,2019-08-07 16:16:28:127
5.0268,-8.3277,1.5667,-0.0944,-0.017,-0.0529,0.0186,0.0174,0.013,338,2019-08-07 16:16:28:132
5.0268,-8.3277,1.5667,-0.0727,-0.0794,0.0092,0.0186,0.0174,0.013,342,2019-08-07 16:16:28:136
5.0507,-8.2466,1.5856,-0.0727,-0.0794,0.0092,0.0197,0.0313,0.0056,348,2019-08-07 16:16:28:142
5.0507,-8.2466,1.5856,-0.0727,-0.0794,0.0092,0.0144,0.0249,-0.0019,353,2019-08-07 16:16:28:147
5.0172,-8.28,1.5526,-0.0727,-0.0794,0.0092,0.0144,0.0249,-0.0019,358,2019-08-07 16:16:28:152
5.0172,-8.28,1.5526,-0.0969,-0.0403,-0.037,0.0144,0.0249,-0.0019,363,2019-08-07 16:16:28:157
5.0459,-8.342,1.5997,-0.0969,-0.0403,-0.037,0.0027,0.0164,-0.0072,368,2019-08-07 16:16:28:162
5.0459,-8.342,1.5997,-0.0969,-0.0403,-0.037,0.0027,0.0164,-0.0072,373,2019-08-07 16:16:28:167
5.0459,-8.342,1.5997,-0.0969,-0.0403,-0.037,-0.0048,0.0196,-0.0062,378,2019-08-07 16:16:28:172
5.0698,-8.2609,1.5903,-0.1432,-0.082,-0.0538,-0.0048,0.0196,-0.0062,382,2019-08-07 16:16:28:176
5.0698,-8.2609,1.5903,-0.1432,-0.082,-0.0538,-0.0197,-0.0049,-0.003,388,2019-08-07 16:16:28:182
5.0698,-8.2609,1.5903,-0.1432,-0.082,-0.0538,-0.0197,-0.0049,-0.003,393,2019-08-07 16:16:28:187
5.0938,-8.2227,1.5573,-0.1432,-0.082,-0.0538,-0.0304,-0.023,0.0088,398,2019-08-07 16:16:28:192
5.0938,-8.2227,1.5573,-0.2041,-0.0867,0.0129,-0.0304,-0.023,0.0088,403,2019-08-07 16:16:28:197
5.1847,-8.28,1.5526,-0.2041,-0.0867,0.0129,-0.0304,-0.023,0.0088,408,2019-08-07 16:16:28:202
5.1847,-8.28,1.5526,-0.2041,-0.0867,0.0129,-0.0314,-0.0252,0.0151,413,2019-08-07 16:16:28:207
5.1847,-8.28,1.5526,-0.2041,-0.0867,0.0129,-0.0314,-0.0252,0.0151,418,2019-08-07 16:16:28:212
5.2038,-8.2609,1.4866,-0.2763,-0.0836,0.0386,-0.0229,-0.0028,0.0226,422,2019-08-07 16:16:28:216
5.2038,-8.2609,1.4866,-0.2763,-0.0836,0.0386,-0.0229,-0.0028,0.0226,428,2019-08-07 16:16:28:222
5.2038,-8.2609,1.4866,-0.2763,-0.0836,0.0386,-0.0069,0.0174,0.029,432,2019-08-07 16:16:28:226
5.1668,-8.3278,1.4444,-0.2763,-0.0836,0.0386,-0.0069,0.0174,0.029,438,2019-08-07 16:16:28:232
5.1668,-8.3278,1.4444,-0.1999,-0.0522,0.0241,0.008,0.059,0.029,443,2019-08-07 16:16:28:237
5.0377,-8.3422,1.5293,-0.1999,-0.0522,0.0241,0.008,0.059,0.029,448,2019-08-07 16:16:28:242
5.0377,-8.3422,1.5293,-0.1999,-0.0522,0.0241,0.0293,0.0835,0.0237,453,2019-08-07 16:16:28:247
5.0377,-8.3422,1.5293,-0.1999,-0.0522,0.0241,0.0293,0.0835,0.0237,458,2019-08-07 16:16:28:252
4.8463,-8.2467,1.5811,0.057,-0.1014,-0.0208,0.0314,0.075,0.0194,463,2019-08-07 16:16:28:257
4.8463,-8.2467,1.5811,0.057,-0.1014,-0.0208,0.0314,0.075,0.0194,468,2019-08-07 16:16:28:262
4.7698,-8.261,1.6707,0.057,-0.1014,-0.0208,0.0293,0.0441,0.0141,473,2019-08-07 16:16:28:267
4.7698,-8.261,1.6707,0.057,-0.1014,-0.0208,0.0293,0.0441,0.0141,477,2019-08-07 16:16:28:271
4.7698,-8.261,1.6707,0.1242,-0.0878,-0.0998,0.025,4.0E-4,0.0024,483,2019-08-07 16:16:28:277
4.8416,-8.2801,1.6848,0.1242,-0.0878,-0.0998,0.025,4.0E-4,0.0024,488,2019-08-07 16:16:28:282
4.8416,-8.2801,1.6848,0.1242,-0.0878,-0.0998,0.025,4.0E-4,0.0024,492,2019-08-07 16:16:28:286
4.9086,-8.2992,1.6236,0.1242,-0.0878,-0.0998,0.0144,-0.0497,-0.0093,498,2019-08-07 16:16:28:292
4.9086,-8.2992,1.6236,-0.0124,-0.1057,-0.0767,0.0144,-0.0497,-0.0093,503,2019-08-07 16:16:28:297
4.9086,-8.2992,1.6236,-0.0124,-0.1057,-0.0767,0.008,-0.0763,-0.0136,508,2019-08-07 16:16:28:302
5.0473,-8.3422,1.5764,-0.0124,-0.1057,-0.0767,0.008,-0.0763,-0.0136,513,2019-08-07 16:16:28:307
5.0473,-8.3422,1.5764,-0.0124,-0.1057,-0.0767,0.0037,-0.0742,-0.0104,518,2019-08-07 16:16:28:312
5.2148,-8.304,1.5434,-0.2937,-0.0414,-0.0032,0.0037,-0.0742,-0.0104,524,2019-08-07 16:16:28:318
5.2148,-8.304,1.5434,-0.2937,-0.0414,-0.0032,-0.0027,-0.0614,-0.0136,528,2019-08-07 16:16:28:322
5.2148,-8.304,1.5434,-0.2937,-0.0414,-0.0032,-0.0027,-0.0614,-0.0136,533,2019-08-07 16:16:28:327
5.2244,-8.2897,1.4822,-0.2937,-0.0414,-0.0032,-0.008,-0.0241,-0.0115,537,2019-08-07 16:16:28:331
5.2244,-8.2897,1.4822,-0.2937,-0.0414,-0.0032,-0.008,-0.0241,-0.0115,543,2019-08-07 16:16:28:337
5.1766,-8.3374,1.468,-0.2886,-0.0202,-0.0033,-0.0144,0.0121,-8.0E-4,548,2019-08-07 16:16:28:342
5.1766,-8.3374,1.468,-0.2886,-0.0202,-0.0033,-0.0144,0.0121,-8.0E-4,553,2019-08-07 16:16:28:347
5.1766,-8.3374,1.468,-0.2886,-0.0202,-0.0033,-0.0144,0.0121,-8.0E-4,557,2019-08-07 16:16:28:351
5.0618,-8.3422,1.5953,-0.2886,-0.0202,-0.0033,-0.0037,0.0334,0.0024,563,2019-08-07 16:16:28:357
5.0618,-8.3422,1.5953,-0.0821,-0.0578,-0.0449,-0.0037,0.0334,0.0024,568,2019-08-07 16:16:28:362
5.0091,-8.261,1.5859,-0.0821,-0.0578,-0.0449,0.009,0.0323,0.0077,573,2019-08-07 16:16:28:367
5.0091,-8.261,1.5859,-0.0821,-0.0578,-0.0449,0.009,0.0323,0.0077,578,2019-08-07 16:16:28:372
5.0091,-8.261,1.5859,-0.0821,-0.0578,-0.0449,0.0144,0.01,0.0141,583,2019-08-07 16:16:28:377
4.9613,-8.2801,1.5576,-0.0503,-0.1391,-0.012,0.0144,0.01,0.0141,587,2019-08-07 16:16:28:381
4.9613,-8.2801,1.5576,-0.0503,-0.1391,-0.012,0.0112,-0.0113,0.012,593,2019-08-07 16:16:28:387
4.9613,-8.2801,1.5576,-0.0503,-0.1391,-0.012,0.0112,-0.0113,0.012,597,2019-08-07 16:16:28:391
4.9183,-8.2849,1.5529,-0.0503,-0.1391,-0.012,0.0112,-0.0113,0.012,603,2019-08-07 16:16:28:397
4.9183,-8.2849,1.5529,-0.0229,-0.0251,-0.0349,0.0122,-0.0316,0.0141,608,2019-08-07 16:16:28:402
4.9183,-8.2849,1.5529,-0.0229,-0.0251,-0.0349,0.0122,-0.0316,0.0141,612,2019-08-07 16:16:28:406
5.0379,-8.3231,1.5293,-0.0229,-0.0251,-0.0349,0.0112,-0.0209,0.0088,618,2019-08-07 16:16:28:412
5.0379,-8.3231,1.5293,-0.0229,-0.0251,-0.0349,0.0112,-0.0209,0.0088,623,2019-08-07 16:16:28:417
4.9614,-8.3326,1.4916,-0.0468,-0.0395,0.0355,0.009,-0.0049,-0.003,628,2019-08-07 16:16:28:422
4.9614,-8.3326,1.4916,-0.0468,-0.0395,0.0355,0.009,-0.0049,-0.003,634,2019-08-07 16:16:28:428
4.9614,-8.3326,1.4916,-0.0468,-0.0395,0.0355,0.009,-0.0049,-0.003,638,2019-08-07 16:16:28:432
4.9518,-8.347,1.5058,-0.0468,-0.0395,0.0355,0.0016,0.0196,-0.003,643,2019-08-07 16:16:28:437
4.9518,-8.347,1.5058,-0.0128,0.047,0.0178,0.0016,0.0196,-0.003,649,2019-08-07 16:16:28:443
4.9088,-8.3756,1.5529,-0.0128,0.047,0.0178,5.0E-4,0.0345,-0.0093,652,2019-08-07 16:16:28:446
4.9088,-8.3756,1.5529,-0.0128,0.047,0.0178,5.0E-4,0.0345,-0.0093,658,2019-08-07 16:16:28:452
4.9088,-8.3756,1.5529,-0.0128,0.047,0.0178,-0.0027,0.01,-0.0136,663,2019-08-07 16:16:28:457
4.8897,-8.2801,1.6142,0.0889,-0.033,-0.0599,-0.0027,0.01,-0.0136,668,2019-08-07 16:16:28:462
4.8897,-8.2801,1.6142,0.0889,-0.033,-0.0599,0.0037,-0.0177,-0.0093,673,2019-08-07 16:16:28:467
4.9232,-8.347,1.6472,0.0889,-0.033,-0.0599,0.0037,-0.0177,-0.0093,678,2019-08-07 16:16:28:472
4.9232,-8.347,1.6472,0.0889,-0.033,-0.0599,0.009,-0.0412,-0.0072,683,2019-08-07 16:16:28:477
4.9232,-8.347,1.6472,-0.1428,-0.0125,0.0518,0.009,-0.0412,-0.0072,687,2019-08-07 16:16:28:481
5.1098,-8.304,1.5293,-0.1428,-0.0125,0.0518,0.009,-0.0294,-0.0168,693,2019-08-07 16:16:28:487
5.1098,-8.304,1.5293,-0.1428,-0.0125,0.0518,0.009,-0.0294,-0.0168,698,2019-08-07 16:16:28:492
5.0859,-8.2706,1.5812,-0.1428,-0.0125,0.0518,0.025,-0.039,-0.0189,703,2019-08-07 16:16:28:497
5.0859,-8.2706,1.5812,-0.1857,-0.0717,-0.0431,0.025,-0.039,-0.0189,708,2019-08-07 16:16:28:502
5.0859,-8.2706,1.5812,-0.1857,-0.0717,-0.0431,0.0325,-0.0262,-0.0179,713,2019-08-07 16:16:28:507
5.1098,-8.2467,1.5152,-0.1857,-0.0717,-0.0431,0.0325,-0.0262,-0.0179,718,2019-08-07 16:16:28:512
5.1098,-8.2467,1.5152,-0.1857,-0.0717,-0.0431,0.0218,4.0E-4,-0.0243,723,2019-08-07 16:16:28:517
5.1003,-8.2324,1.5246,-0.1613,-0.1014,0.0215,0.0218,4.0E-4,-0.0243,728,2019-08-07 16:16:28:522
5.1003,-8.2324,1.5246,-0.1613,-0.1014,0.0215,0.008,0.011,-0.0338,733,2019-08-07 16:16:28:527
5.1003,-8.2324,1.5246,-0.1613,-0.1014,0.0215,0.008,0.011,-0.0338,737,2019-08-07 16:16:28:531
4.9472,-8.2133,1.5954,-0.0056,-0.1187,-0.0477,0.0069,-0.0092,-0.0275,743,2019-08-07 16:16:28:537
4.9472,-8.2133,1.5954,-0.0056,-0.1187,-0.0477,0.0069,-0.0092,-0.0275,748,2019-08-07 16:16:28:542
4.9472,-8.3422,1.6849,-0.0056,-0.1187,-0.0477,0.0069,-0.0092,-0.0275,752,2019-08-07 16:16:28:546
4.9472,-8.3422,1.6849,-0.077,-0.0202,-0.0578,-5.0E-4,-0.0337,-0.0253,758,2019-08-07 16:16:28:552
4.9472,-8.3422,1.6849,-0.077,-0.0202,-0.0578,-5.0E-4,-0.0337,-0.0253,763,2019-08-07 16:16:28:557
4.9951,-8.304,1.5576,-0.077,-0.0202,-0.0578,-0.0048,-0.038,-0.0349,768,2019-08-07 16:16:28:562
4.9951,-8.304,1.5576,-0.077,-0.0202,-0.0578,-0.0048,-0.038,-0.0349,772,2019-08-07 16:16:28:566
5.0716,-8.2658,1.6142,-0.1169,-0.0593,-0.0719,-0.0059,-0.0486,-0.0413,778,2019-08-07 16:16:28:572
5.0716,-8.2658,1.6142,-0.1169,-0.0593,-0.0719,-0.0059,-0.0486,-0.0413,783,2019-08-07 16:16:28:577
5.0716,-8.2658,1.6142,-0.1169,-0.0593,-0.0719,0.0069,-0.0571,-0.0307,787,2019-08-07 16:16:28:581
5.153,-8.2802,1.5482,-0.1169,-0.0593,-0.0719,0.0069,-0.0571,-0.0307,793,2019-08-07 16:16:28:587
5.153,-8.2802,1.5482,-0.2573,0.002,0.0187,0.0176,-0.038,-0.0243,798,2019-08-07 16:16:28:592
5.2152,-8.3088,1.5058,-0.2573,0.002,0.0187,0.0176,-0.038,-0.0243,803,2019-08-07 16:16:28:597
5.2152,-8.3088,1.5058,-0.2573,0.002,0.0187,0.0218,-0.0209,-0.0285,808,2019-08-07 16:16:28:602
5.2152,-8.3088,1.5058,-0.2573,0.002,0.0187,0.0218,-0.0209,-0.0285,813,2019-08-07 16:16:28:607
5.1626,-8.2945,1.5765,-0.2023,-0.0362,-0.1204,0.0314,-0.0071,-0.0381,818,2019-08-07 16:16:28:612
5.1626,-8.2945,1.5765,-0.2023,-0.0362,-0.1204,0.0314,-0.0071,-0.0381,823,2019-08-07 16:16:28:617
5.1243,-8.2181,1.6095,-0.1694,-0.0857,-0.0659,0.0389,-0.0262,-0.037,827,2019-08-07 16:16:28:621
5.1243,-8.2181,1.6095,-0.1694,-0.0857,-0.0659,0.0389,-0.0262,-0.037,834,2019-08-07 16:16:28:628
5.1243,-8.2181,1.6095,-0.1694,-0.0857,-0.0659,0.0357,-0.0337,-0.0328,837,2019-08-07 16:16:28:631
5.1722,-8.2468,1.6142,-0.1694,-0.0857,-0.0659,0.0357,-0.0337,-0.0328,843,2019-08-07 16:16:28:637
5.1722,-8.2468,1.6142,-0.1472,-0.0469,-0.0906,0.0303,-0.0273,-0.0296,848,2019-08-07 16:16:28:642
5.2105,-8.2324,1.6284,-0.1472,-0.0469,-0.0906,0.0303,-0.0273,-0.0296,853,2019-08-07 16:16:28:647
5.2105,-8.2324,1.6284,-0.1472,-0.0469,-0.0906,0.0303,-0.0273,-0.0296,857,2019-08-07 16:16:28:651
5.2105,-8.2324,1.6284,-0.1472,-0.0469,-0.0906,0.0272,-0.0369,-0.0285,863,2019-08-07 16:16:28:657
5.177,-8.2181,1.6614,-0.2645,-0.0852,-0.117,0.0272,-0.0369,-0.0285,868,2019-08-07 16:16:28:662
5.177,-8.2181,1.6614,-0.2645,-0.0852,-0.117,0.025,-0.0337,-0.0264,872,2019-08-07 16:16:28:666
5.2009,-8.2277,1.6378,-0.2645,-0.0852,-0.117,0.025,-0.0337,-0.0264,878,2019-08-07 16:16:28:672
5.2009,-8.2277,1.6378,-0.2645,-0.0852,-0.117,0.0176,-0.0124,-0.0189,883,2019-08-07 16:16:28:677
5.2009,-8.2277,1.6378,-0.3347,-0.0811,-0.0166,0.0176,-0.0124,-0.0189,887,2019-08-07 16:16:28:681
5.3206,-8.2181,1.6048,-0.3347,-0.0811,-0.0166,0.0176,-0.0124,-0.0189,893,2019-08-07 16:16:28:687
5.3206,-8.2181,1.6048,-0.3347,-0.0811,-0.0166,0.0016,0.011,-0.0189,898,2019-08-07 16:16:28:692
5.2153,-8.1608,1.6284,-0.3347,-0.0811,-0.0166,0.0016,0.011,-0.0189,903,2019-08-07 16:16:28:697
5.2153,-8.1608,1.6284,-0.3347,-0.0811,-0.0166,5.0E-4,0.0398,-0.0179,908,2019-08-07 16:16:28:702
5.2153,-8.1608,1.6284,-0.2537,-0.097,-0.0986,5.0E-4,0.0398,-0.0179,913,2019-08-07 16:16:28:707
5.1436,-8.1513,1.6001,-0.2537,-0.097,-0.0986,-0.0091,0.0462,-0.0051,918,2019-08-07 16:16:28:712
5.1436,-8.1513,1.6001,-0.2537,-0.097,-0.0986,-0.0091,0.0462,-0.0051,923,2019-08-07 16:16:28:717
5.1436,-8.1513,1.6001,-0.2537,-0.097,-0.0986,-0.025,0.0526,2.0E-4,928,2019-08-07 16:16:28:722
5.1053,-8.2086,1.6284,-0.1047,-0.0864,-0.0717,-0.025,0.0526,2.0E-4,932,2019-08-07 16:16:28:726
5.1053,-8.2086,1.6284,-0.1047,-0.0864,-0.0717,-0.025,0.0526,2.0E-4,938,2019-08-07 16:16:28:732
5.0001,-8.2277,1.7038,-0.1047,-0.0864,-0.0717,-0.0197,0.0419,-0.0019,943,2019-08-07 16:16:28:737
5.0001,-8.2277,1.7038,-0.1047,-0.0864,-0.0717,-0.0197,0.0419,-0.0019,948,2019-08-07 16:16:28:742
5.0001,-8.2277,1.7038,-0.0337,-0.0053,-0.0699,-0.0133,0.026,-0.004,952,2019-08-07 16:16:28:746
5.0432,-8.2706,1.5813,-0.0337,-0.0053,-0.0699,-0.0133,0.026,-0.004,958,2019-08-07 16:16:28:752
5.0432,-8.2706,1.5813,-0.0337,-0.0053,-0.0699,-0.0112,0.0132,-0.0083,963,2019-08-07 16:16:28:757
5.0097,-8.2659,1.6001,-0.0337,-0.0053,-0.0699,-0.0112,0.0132,-0.0083,967,2019-08-07 16:16:28:761
5.0097,-8.2659,1.6001,-0.052,-0.067,-0.0562,-0.0101,-0.0039,-0.0104,973,2019-08-07 16:16:28:767
5.0097,-8.2659,1.6001,-0.052,-0.067,-0.0562,-0.0101,-0.0039,-0.0104,978,2019-08-07 16:16:28:772
5.1006,-8.2754,1.5483,-0.052,-0.067,-0.0562,-0.0101,-0.0039,-0.0104,983,2019-08-07 16:16:28:777
5.1006,-8.2754,1.5483,-0.052,-0.067,-0.0562,-0.0112,-0.0124,-0.0061,988,2019-08-07 16:16:28:782
5.2537,-8.2706,1.4682,-0.2408,0.0152,0.0871,-0.0112,-0.0124,-0.0061,992,2019-08-07 16:16:28:786
5.2537,-8.2706,1.4682,-0.2408,0.0152,0.0871,-0.0144,-0.0017,-0.0104,998,2019-08-07 16:16:28:792
5.2537,-8.2706,1.4682,-0.2408,0.0152,0.0871,-0.0144,-0.0017,-0.0104,1003,2019-08-07 16:16:28:797
5.2538,-8.2611,1.5436,-0.2408,0.0152,0.0871,-0.0059,0.0206,-0.0061,1008,2019-08-07 16:16:28:802
5.2538,-8.2611,1.5436,-0.2429,-0.0693,0.0099,-0.0059,0.0206,-0.0061,1013,2019-08-07 16:16:28:807
5.1916,-8.2372,1.5389,-0.2429,-0.0693,0.0099,5.0E-4,0.0355,2.0E-4,1018,2019-08-07 16:16:28:812
5.1916,-8.2372,1.5389,-0.2429,-0.0693,0.0099,5.0E-4,0.0355,2.0E-4,1023,2019-08-07 16:16:28:817
5.1916,-8.2372,1.5389,-0.2429,-0.0693,0.0099,0.0027,0.0366,0.0077,1028,2019-08-07 16:16:28:822
5.1629,-8.2802,1.4493,-0.1569,-0.0116,0.107,0.0027,0.0366,0.0077,1033,2019-08-07 16:16:28:827
5.1629,-8.2802,1.4493,-0.1569,-0.0116,0.107,0.0058,0.0462,0.012,1038,2019-08-07 16:16:28:832
5.1629,-8.2802,1.4493,-0.1569,-0.0116,0.107,0.0058,0.0462,0.012,1042,2019-08-07 16:16:28:836
5.0768,-8.3566,1.5577,-0.1569,-0.0116,0.107,0.0058,0.0462,0.012,1047,2019-08-07 16:16:28:841
5.0768,-8.3566,1.5577,-0.0062,0.0166,0.0038,0.0144,0.0419,0.0056,1053,2019-08-07 16:16:28:847
4.9764,-8.3041,1.5672,-0.0062,0.0166,0.0038,0.0144,0.0419,0.0056,1058,2019-08-07 16:16:28:852
4.9764,-8.3041,1.5672,-0.0062,0.0166,0.0038,0.0197,0.0409,0.0066,1063,2019-08-07 16:16:28:857
4.8663,-8.3804,1.586,-0.0062,0.0166,0.0038,0.0197,0.0409,0.0066,1068,2019-08-07 16:16:28:862
4.8663,-8.3804,1.586,0.1011,0.0162,0.0055,0.0048,0.0228,2.0E-4,1073,2019-08-07 16:16:28:867
4.8663,-8.3804,1.586,0.1011,0.0162,0.0055,0.0048,0.0228,2.0E-4,1079,2019-08-07 16:16:28:873
4.8424,-8.3088,1.6237,0.1011,0.0162,0.0055,-0.0048,0.01,-0.0051,1083,2019-08-07 16:16:28:877
4.8424,-8.3088,1.6237,0.1011,0.0162,0.0055,-0.0048,0.01,-0.0051,1087,2019-08-07 16:16:28:881
4.8424,-8.3088,1.6237,0.1011,0.0162,0.0055,-0.0048,0.01,-0.0051,1093,2019-08-07 16:16:28:887
4.8711,-8.2898,1.7086,0.1293,-0.003,-0.1396,-0.0144,-0.0092,-0.0072,1098,2019-08-07 16:16:28:892
4.8711,-8.2898,1.7086,0.1293,-0.003,-0.1396,-0.0144,-0.0092,-0.0072,1102,2019-08-07 16:16:28:896
5.0721,-8.2659,1.6473,0.1293,-0.003,-0.1396,-0.0261,-0.0369,-0.0072,1108,2019-08-07 16:16:28:902
5.0721,-8.2659,1.6473,-0.103,-0.0744,-0.0322,-0.0261,-0.0369,-0.0072,1113,2019-08-07 16:16:28:907
5.0721,-8.2659,1.6473,-0.103,-0.0744,-0.0322,-0.0325,-0.0476,-0.004,1117,2019-08-07 16:16:28:911
5.2539,-8.2038,1.619,-0.103,-0.0744,-0.0322,-0.0325,-0.0476,-0.004,1123,2019-08-07 16:16:28:917
5.2539,-8.2038,1.619,-0.103,-0.0744,-0.0322,-0.0314,-0.0294,0.0013,1127,2019-08-07 16:16:28:921
5.3496,-8.1943,1.5955,-0.3435,-0.0979,-0.0415,-0.0314,-0.0294,0.0013,1133,2019-08-07 16:16:28:927
5.3496,-8.1943,1.5955,-0.3435,-0.0979,-0.0415,-0.0314,-0.0294,0.0013,1138,2019-08-07 16:16:28:932
5.3496,-8.1943,1.5955,-0.3435,-0.0979,-0.0415,-0.0144,0.0089,0.0098,1142,2019-08-07 16:16:28:936
5.3736,-8.2372,1.5625,-0.3435,-0.0979,-0.0415,-0.0144,0.0089,0.0098,1148,2019-08-07 16:16:28:942
5.3736,-8.2372,1.5625,-0.3004,-0.0551,0.0753,-0.0048,0.0377,0.0152,1153,2019-08-07 16:16:28:947
5.3736,-8.2372,1.5625,-0.3004,-0.0551,0.0753,-0.0048,0.0377,0.0152,1158,2019-08-07 16:16:28:952
5.1774,-8.2659,1.4965,-0.3004,-0.0551,0.0753,0.0037,0.0654,0.0098,1163,2019-08-07 16:16:28:957
5.1774,-8.2659,1.4965,-0.3004,-0.0551,0.0753,0.0037,0.0654,0.0098,1168,2019-08-07 16:16:28:962
4.9909,-8.285,1.5908,0.0125,-0.0077,-0.031,0.0112,0.0803,0.0066,1173,2019-08-07 16:16:28:967
4.9909,-8.285,1.5908,0.0125,-0.0077,-0.031,0.0112,0.0803,0.0066,1178,2019-08-07 16:16:28:972
4.9909,-8.285,1.5908,0.0125,-0.0077,-0.031,0.0154,0.0707,0.0013,1183,2019-08-07 16:16:28:977
4.8139,-8.2993,1.6568,0.0125,-0.0077,-0.031,0.0154,0.0707,0.0013,1188,2019-08-07 16:16:28:982
4.8139,-8.2993,1.6568,0.0125,-0.0077,-0.031,0.0154,0.0707,0.0013,1193,2019-08-07 16:16:28:987
4.8139,-8.2993,1.6568,0.1433,-0.0268,-0.1197,0.0069,0.0366,-0.0104,1198,2019-08-07 16:16:28:992
4.8091,-8.2277,1.6662,0.1433,-0.0268,-0.1197,0.0069,0.0366,-0.0104,1203,2019-08-07 16:16:28:997
4.8091,-8.2277,1.6662,0.1433,-0.0268,-0.1197,-0.0133,-0.0316,-0.0157,1208,2019-08-07 16:16:29:002
4.8091,-8.2277,1.6662,0.1433,-0.0268,-0.1197,-0.0133,-0.0316,-0.0157,1212,2019-08-07 16:16:29:006
5.034,-8.2229,1.6756,-0.0314,-0.0686,-0.1067,-0.0261,-0.0614,-0.0211,1219,2019-08-07 16:16:29:013
5.034,-8.2229,1.6756,-0.0314,-0.0686,-0.1067,-0.0261,-0.0614,-0.0211,1223,2019-08-07 16:16:29:017
5.2541,-8.1513,1.5342,-0.0314,-0.0686,-0.1067,-0.0261,-0.0614,-0.0211,1228,2019-08-07 16:16:29:022
5.2541,-8.1513,1.5342,-0.0314,-0.0686,-0.1067,-0.0357,-0.071,-0.0136,1233,2019-08-07 16:16:29:027
5.2924,-8.2038,1.4871,-0.3313,-0.1051,0.0748,-0.0357,-0.071,-0.0136,1239,2019-08-07 16:16:29:033
5.2924,-8.2038,1.4871,-0.3313,-0.1051,0.0748,-0.0432,-0.055,0.0034,1243,2019-08-07 16:16:29:037
5.2924,-8.2038,1.4871,-0.3313,-0.1051,0.0748,-0.0432,-0.055,0.0034,1248,2019-08-07 16:16:29:042
5.4024,-8.2707,1.4918,-0.3526,-0.0247,0.0954,-0.0336,-0.0167,0.0247,1253,2019-08-07 16:16:29:047
5.4024,-8.2707,1.4918,-0.3526,-0.0247,0.0954,-0.0336,-0.0167,0.0247,1258,2019-08-07 16:16:29:052
5.3546,-8.3089,1.4871,-0.3526,-0.0247,0.0954,-0.0144,0.0078,0.0269,1264,2019-08-07 16:16:29:058
5.3546,-8.3089,1.4871,-0.3526,-0.0247,0.0954,-0.0144,0.0078,0.0269,1268,2019-08-07 16:16:29:062
5.3546,-8.3089,1.4871,-0.3526,-0.0247,0.0954,-0.0144,0.0078,0.0269,1272,2019-08-07 16:16:29:066
5.2015,-8.3518,1.5342,-0.1927,0.059,0.0077,0.0037,0.0462,0.0258,1278,2019-08-07 16:16:29:072
5.2015,-8.3518,1.5342,-0.1927,0.059,0.0077,0.0037,0.0462,0.0258,1284,2019-08-07 16:16:29:078
5.2015,-8.3518,1.5342,-0.1927,0.059,0.0077,0.009,0.0867,0.0194,1287,2019-08-07 16:16:29:081
4.9623,-8.2946,1.5625,-0.1927,0.059,0.0077,0.009,0.0867,0.0194,1293,2019-08-07 16:16:29:087
4.9623,-8.2946,1.5625,0.1079,-0.0143,-0.0968,0.009,0.0835,0.0066,1299,2019-08-07 16:16:29:093
4.8093,-8.3137,1.6662,0.1079,-0.0143,-0.0968,0.009,0.0835,0.0066,1302,2019-08-07 16:16:29:096
4.8093,-8.3137,1.6662,0.1079,-0.0143,-0.0968,0.0058,0.0515,-0.0072,1308,2019-08-07 16:16:29:102
4.7614,-8.3327,1.6709,0.1079,-0.0143,-0.0968,0.0058,0.0515,-0.0072,1313,2019-08-07 16:16:29:107
4.7614,-8.3327,1.6709,0.2146,0.0378,-0.1354,-5.0E-4,0.0068,-0.0221,1319,2019-08-07 16:16:29:113
4.7614,-8.3327,1.6709,0.2146,0.0378,-0.1354,-5.0E-4,0.0068,-0.0221,1322,2019-08-07 16:16:29:116
4.8332,-8.3089,1.7322,0.1681,0.0149,-0.1726,-0.0091,-0.0316,-0.0317,1328,2019-08-07 16:16:29:122
4.8332,-8.3089,1.7322,0.1681,0.0149,-0.1726,-0.0091,-0.0316,-0.0317,1333,2019-08-07 16:16:29:127
4.8332,-8.3089,1.7322,0.1681,0.0149,-0.1726,-0.0165,-0.0827,-0.0306,1338,2019-08-07 16:16:29:132
5.0581,-8.1848,1.5437,0.1681,0.0149,-0.1726,-0.0165,-0.0827,-0.0306,1343,2019-08-07 16:16:29:137
5.0581,-8.1848,1.5437,-0.1734,-0.0155,0.0309,-0.024,-0.088,-0.0211,1347,2019-08-07 16:16:29:141
5.2638,-8.2516,1.4353,-0.1734,-0.0155,0.0309,-0.024,-0.088,-0.0211,1353,2019-08-07 16:16:29:147
5.2638,-8.2516,1.4353,-0.1734,-0.0155,0.0309,-0.024,-0.088,-0.0211,1358,2019-08-07 16:16:29:152
5.2638,-8.2516,1.4353,-0.1734,-0.0155,0.0309,-0.0293,-0.0742,-0.003,1363,2019-08-07 16:16:29:157
5.4361,-8.2946,1.4918,-0.4208,0.0049,0.0461,-0.0293,-0.0742,-0.003,1369,2019-08-07 16:16:29:163
5.4361,-8.2946,1.4918,-0.4208,0.0049,0.0461,-0.0091,-0.0231,0.0098,1373,2019-08-07 16:16:29:167
5.4074,-8.3423,1.44,-0.4208,0.0049,0.0461,-0.0091,-0.0231,0.0098,1378,2019-08-07 16:16:29:172
5.4074,-8.3423,1.44,-0.4208,0.0049,0.0461,0.009,0.0291,0.0088,1384,2019-08-07 16:16:29:178
5.4074,-8.3423,1.44,-0.2574,0.0194,0.0491,0.009,0.0291,0.0088,1388,2019-08-07 16:16:29:182
5.1778,-8.3232,1.4871,-0.2574,0.0194,0.0491,0.009,0.0291,0.0088,1393,2019-08-07 16:16:29:187
5.1778,-8.3232,1.4871,-0.2574,0.0194,0.0491,0.0293,0.0835,0.0141,1398,2019-08-07 16:16:29:192
4.9625,-8.3089,1.5861,-0.2574,0.0194,0.0491,0.0293,0.0835,0.0141,1403,2019-08-07 16:16:29:197
4.9625,-8.3089,1.5861,0.0826,0.0192,-0.0461,0.0314,0.0867,0.0088,1408,2019-08-07 16:16:29:202
4.9625,-8.3089,1.5861,0.0826,0.0192,-0.0461,0.0314,0.0867,0.0088,1413,2019-08-07 16:16:29:207
4.7807,-8.2898,1.638,0.0826,0.0192,-0.0461,0.025,0.0771,0.0045,1418,2019-08-07 16:16:29:212
4.7807,-8.2898,1.638,0.0826,0.0192,-0.0461,0.025,0.0771,0.0045,1422,2019-08-07 16:16:29:216
4.7407,-8.3087,1.6518,0.2669,0.0187,-0.091,0.0048,0.0164,-0.004,1428,2019-08-07 16:16:29:222
4.7407,-8.3087,1.6518,0.2669,0.0187,-0.091,0.0048,0.0164,-0.004,1434,2019-08-07 16:16:29:228
4.7407,-8.3087,1.6518,0.2669,0.0187,-0.091,-0.0069,-0.039,-0.0104,1438,2019-08-07 16:16:29:232
4.7024,-8.3183,1.7083,0.2669,0.0187,-0.091,-0.0069,-0.039,-0.0104,1443,2019-08-07 16:16:29:237
4.7024,-8.3183,1.7083,0.167,0.0281,-0.075,-0.0091,-0.0923,-8.0E-4,1448,2019-08-07 16:16:29:242
4.8651,-8.323,1.614,0.167,0.0281,-0.075,-0.0091,-0.0923,-8.0E-4,1453,2019-08-07 16:16:29:247
4.8651,-8.323,1.614,0.167,0.0281,-0.075,-0.0091,-0.0923,-8.0E-4,1458,2019-08-07 16:16:29:252
4.8651,-8.323,1.614,0.167,0.0281,-0.075,-0.008,-0.12,0.0098,1464,2019-08-07 16:16:29:258
5.1282,-8.323,1.5669,-0.1463,0.0749,0.0442,-0.008,-0.12,0.0098,1468,2019-08-07 16:16:29:262
5.1282,-8.323,1.5669,-0.1463,0.0749,0.0442,-0.0059,-0.1242,0.012,1472,2019-08-07 16:16:29:266
5.1282,-8.323,1.5669,-0.1463,0.0749,0.0442,-0.0059,-0.1242,0.012,1478,2019-08-07 16:16:29:272
5.2861,-8.4472,1.3595,-0.1463,0.0749,0.0442,0.0048,-0.0806,0.0173,1483,2019-08-07 16:16:29:277
5.2861,-8.4472,1.3595,-0.2782,0.1455,0.1641,0.0048,-0.0806,0.0173,1488,2019-08-07 16:16:29:282
5.3148,-8.4615,1.3784,-0.2782,0.1455,0.1641,0.0304,-0.0284,0.0183,1493,2019-08-07 16:16:29:287
5.3148,-8.4615,1.3784,-0.2782,0.1455,0.1641,0.0304,-0.0284,0.0183,1498,2019-08-07 16:16:29:292
5.3148,-8.4615,1.3784,-0.2782,0.1455,0.1641,0.0304,-0.0284,0.0183,1503,2019-08-07 16:16:29:297
5.1713,-8.4567,1.4491,-0.1845,0.1259,0.088,0.058,0.0238,0.0226,1508,2019-08-07 16:16:29:302
5.1713,-8.4567,1.4491,-0.1845,0.1259,0.088,0.058,0.0238,0.0226,1513,2019-08-07 16:16:29:307
5.0708,-8.4185,1.5009,-0.1845,0.1259,0.088,0.0698,0.0515,0.0183,1517,2019-08-07 16:16:29:311
5.0708,-8.4185,1.5009,-0.1845,0.1259,0.088,0.0698,0.0515,0.0183,1523,2019-08-07 16:16:29:317
5.0708,-8.4185,1.5009,0.0315,0.179,0.0662,0.0634,0.0707,0.0013,1528,2019-08-07 16:16:29:322
4.9081,-8.471,1.515,0.0315,0.179,0.0662,0.0634,0.0707,0.0013,1533,2019-08-07 16:16:29:327
4.9081,-8.471,1.515,0.0315,0.179,0.0662,0.0442,0.0611,-0.0264,1538,2019-08-07 16:16:29:332
4.6737,-8.6906,1.5339,0.0315,0.179,0.0662,0.0442,0.0611,-0.0264,1543,2019-08-07 16:16:29:337
4.6737,-8.6906,1.5339,0.0315,0.179,0.0662,0.0442,0.0611,-0.0264,1547,2019-08-07 16:16:29:341
4.6737,-8.6906,1.5339,0.3995,0.4438,0.0515,0.0293,0.0526,-0.0541,1553,2019-08-07 16:16:29:347
4.4775,-8.8147,1.5952,0.3995,0.4438,0.0515,0.0293,0.0526,-0.0541,1558,2019-08-07 16:16:29:352
4.4775,-8.8147,1.5952,0.6218,0.5319,-0.095,0.0229,0.0089,-0.0722,1563,2019-08-07 16:16:29:357
4.3053,-8.9198,1.6423,0.6218,0.5319,-0.095,0.0229,0.0089,-0.0722,1568,2019-08-07 16:16:29:362
4.3053,-8.9198,1.6423,0.6218,0.5319,-0.095,0.0463,-0.0678,-0.0797,1573,2019-08-07 16:16:29:367
4.3053,-8.9198,1.6423,0.6218,0.5319,-0.095,0.0463,-0.0678,-0.0797,1578,2019-08-07 16:16:29:372
4.2814,-8.9436,1.5575,0.7352,0.6614,0.0156,0.0719,-0.1253,-0.085,1583,2019-08-07 16:16:29:377
4.2814,-8.9436,1.5575,0.7352,0.6614,0.0156,0.0719,-0.1253,-0.085,1588,2019-08-07 16:16:29:382
4.2814,-8.9436,1.5575,0.7352,0.6614,0.0156,0.0719,-0.1253,-0.085,1593,2019-08-07 16:16:29:387
4.2048,-8.9484,1.5245,0.7352,0.6614,0.0156,0.106,-0.2265,-0.0669,1599,2019-08-07 16:16:29:393
4.2048,-8.9484,1.5245,0.7282,0.7063,0.0782,0.106,-0.2265,-0.0669,1603,2019-08-07 16:16:29:397
4.3148,-9.0725,1.4679,0.7282,0.7063,0.0782,0.1507,-0.2446,-0.0594,1608,2019-08-07 16:16:29:402
4.3148,-9.0725,1.4679,0.7282,0.7063,0.0782,0.1507,-0.2446,-0.0594,1613,2019-08-07 16:16:29:407
4.2,-9.2062,1.3548,0.8391,0.937,0.2148,0.1816,-0.2159,-0.053,1618,2019-08-07 16:16:29:412
4.2,-9.2062,1.3548,0.8391,0.937,0.2148,0.1816,-0.2159,-0.053,1623,2019-08-07 16:16:29:417
4.2,-9.2062,1.3548,0.8391,0.937,0.2148,0.2114,-0.1551,-0.0392,1629,2019-08-07 16:16:29:423
3.9225,-9.4974,1.4255,1.1187,1.2307,0.1507,0.2114,-0.1551,-0.0392,1634,2019-08-07 16:16:29:428
3.9225,-9.4974,1.4255,1.1187,1.2307,0.1507,0.2114,-0.1551,-0.0392,1638,2019-08-07 16:16:29:432
3.9225,-9.4974,1.4255,1.1187,1.2307,0.1507,0.2562,-0.0635,-0.0232,1643,2019-08-07 16:16:29:437
3.4345,-10.1037,1.5622,1.1187,1.2307,0.1507,0.2562,-0.0635,-0.0232,1648,2019-08-07 16:16:29:442
3.4345,-10.1037,1.5622,1.9293,2.3306,-0.0753,0.2977,-0.0156,-0.0157,1653,2019-08-07 16:16:29:447
2.5686,-11.2351,1.8969,1.9293,2.3306,-0.0753,0.2977,-0.0156,-0.0157,1657,2019-08-07 16:16:29:451
2.5686,-11.2351,1.8969,1.9293,2.3306,-0.0753,0.3585,0.0015,0.0077,1663,2019-08-07 16:16:29:457
2.5686,-11.2351,1.8969,1.9293,2.3306,-0.0753,0.3585,0.0015,0.0077,1668,2019-08-07 16:16:29:462
1.7983,-12.4572,2.373,3.2114,4.1896,-0.7039,0.4426,-0.0252,0.0652,1672,2019-08-07 16:16:29:466
1.7983,-12.4572,2.373,3.2114,4.1896,-0.7039,0.4426,-0.0252,0.0652,1678,2019-08-07 16:16:29:472
1.0759,-14.0421,2.7595,3.2114,4.1896,-0.7039,0.5555,-0.087,0.1579,1683,2019-08-07 16:16:29:477
1.0759,-14.0421,2.7595,3.2114,4.1896,-0.7039,0.5555,-0.087,0.1579,1688,2019-08-07 16:16:29:482
1.0759,-14.0421,2.7595,4.3935,6.9591,-0.8627,0.5555,-0.087,0.1579,1692,2019-08-07 16:16:29:486
0.1812,-15.9564,2.4625,4.3935,6.9591,-0.8627,0.7537,-0.1061,0.3209,1698,2019-08-07 16:16:29:492
0.1812,-15.9564,2.4625,4.3935,6.9591,-0.8627,0.7537,-0.1061,0.3209,1703,2019-08-07 16:16:29:497
0.1812,-15.9564,2.4625,4.3935,6.9591,-0.8627,0.9774,0.1538,0.5041,1708,2019-08-07 16:16:29:502
-1.3162,-17.484,1.7979,6.5264,9.5062,0.0649,0.9774,0.1538,0.5041,1713,2019-08-07 16:16:29:507
-1.3162,-17.484,1.7979,6.5264,9.5062,0.0649,1.1851,0.5959,0.6064,1718,2019-08-07 16:16:29:512
-3.8758,-19.5081,0.3272,6.5264,9.5062,0.0649,1.1851,0.5959,0.6064,1723,2019-08-07 16:16:29:517
-3.8758,-19.5081,0.3272,6.5264,9.5062,0.0649,1.4354,1.4364,0.6373,1728,2019-08-07 16:16:29:522
-3.8758,-19.5081,0.3272,9.1726,12.6424,3.0806,1.4354,1.4364,0.6373,1733,2019-08-07 16:16:29:527
-4.5695,-22.2483,-1.2897,9.1726,12.6424,3.0806,1.7103,2.8883,0.3635,1738,2019-08-07 16:16:29:532
-4.5695,-22.2483,-1.2897,9.1151,14.6818,4.3118,1.7103,2.8883,0.3635,1743,2019-08-07 16:16:29:537
-4.4691,-24.5588,-3.0055,9.1151,14.6818,4.3118,1.9446,4.3009,-0.1947,1748,2019-08-07 16:16:29:542
-4.4691,-24.5588,-3.0055,9.1151,14.6818,4.3118,1.9446,4.3009,-0.1947,1753,2019-08-07 16:16:29:547
-4.4691,-24.5588,-3.0055,9.1151,14.6818,4.3118,1.9446,4.3009,-0.1947,1758,2019-08-07 16:16:29:552
-4.7944,-25.9862,-4.0567,9.5199,18.1003,7.6656,2.2099,5.7241,-0.9692,1763,2019-08-07 16:16:29:557
-4.7944,-25.9862,-4.0567,9.5199,18.1003,7.6656,2.2099,5.7241,-0.9692,1768,2019-08-07 16:16:29:562
-8.1338,-28.9459,-7.6816,9.5199,18.1003,7.6656,2.3111,7.0194,-1.652,1773,2019-08-07 16:16:29:567
-8.1338,-28.9459,-7.6816,9.5199,18.1003,7.6656,2.3111,7.0194,-1.652,1777,2019-08-07 16:16:29:571
-8.1338,-28.9459,-7.6816,14.262,22.557,12.9937,2.1172,7.5446,-1.7745,1783,2019-08-07 16:16:29:577
-10.7699,-30.359,-8.5631,14.262,22.557,12.9937,2.1172,7.5446,-1.7745,1788,2019-08-07 16:16:29:582
-10.7699,-30.359,-8.5631,13.7012,21.5491,11.9365,1.9958,7.9057,-1.6957,1793,2019-08-07 16:16:29:587
-10.7699,-30.359,-8.5631,13.7012,21.5491,11.9365,1.9958,7.9057,-1.6957,1798,2019-08-07 16:16:29:592
-6.4832,-27.3324,-5.0513,13.7012,21.5491,11.9365,1.9958,7.9057,-1.6957,1803,2019-08-07 16:16:29:597
-6.4832,-27.3324,-5.0513,13.7012,21.5491,11.9365,2.6402,7.6341,-2.1452,1808,2019-08-07 16:16:29:602
-1.5459,-24.8452,-2.8971,4.8525,17.3617,8.31,2.6402,7.6341,-2.1452,1813,2019-08-07 16:16:29:607
-1.5459,-24.8452,-2.8971,4.8525,17.3617,8.31,3.7854,6.8905,-2.9069,1819,2019-08-07 16:16:29:613
-1.5459,-24.8452,-2.8971,4.8525,17.3617,8.31,3.7854,6.8905,-2.9069,1822,2019-08-07 16:16:29:616
1.6021,-22.6302,-1.3415,4.8525,17.3617,8.31,5.2874,6.4804,-3.6227,1828,2019-08-07 16:16:29:622
1.6021,-22.6302,-1.3415,0.1671,13.1361,10.3605,5.2874,6.4804,-3.6227,1833,2019-08-07 16:16:29:627
1.6021,-22.6302,-1.3415,0.1671,13.1361,10.3605,7.6747,8.4245,-4.297,1837,2019-08-07 16:16:29:631
3.224,-15.5554,-9.9018,0.1671,13.1361,10.3605,7.6747,8.4245,-4.297,1843,2019-08-07 16:16:29:637
3.224,-15.5554,-9.9018,0.1671,13.1361,10.3605,9.5282,11.5319,-4.6624,1848,2019-08-07 16:16:29:642
0.607,-4.4228,-3.821,1.5069,-0.9026,11.7839,9.5282,11.5319,-4.6624,1853,2019-08-07 16:16:29:647
0.607,-4.4228,-3.821,1.5069,-0.9026,11.7839,9.5282,11.5319,-4.6624,1858,2019-08-07 16:16:29:652
0.607,-4.4228,-3.821,1.5069,-0.9026,11.7839,11.8281,13.5228,-4.4185,1863,2019-08-07 16:16:29:657
-7.8611,13.9659,14.3083,1.5069,-0.9026,11.7839,11.8281,13.5228,-4.4185,1868,2019-08-07 16:16:29:662
-7.8611,13.9659,14.3083,7.3568,-60.9572,-24.9352,14.1366,7.9068,-1.8704,1873,2019-08-07 16:16:29:667
-3.8137,72.5359,-16.982,7.3568,-60.9572,-24.9352,14.1366,7.9068,-1.8704,1878,2019-08-07 16:16:29:672
-3.8137,72.5359,-16.982,7.3568,-60.9572,-24.9352,9.6486,3.3368,-3.3447,1883,2019-08-07 16:16:29:677
-3.8137,72.5359,-16.982,7.3568,-60.9572,-24.9352,9.6486,3.3368,-3.3447,1888,2019-08-07 16:16:29:682
-3.8137,72.5359,-16.982,7.3568,-60.9572,-24.9352,9.6486,3.3368,-3.3447,1892,2019-08-07 16:16:29:686
-10.9183,66.5209,6.1251,10.3003,-67.1761,3.6434,11.9538,3.7789,-4.1127,1898,2019-08-07 16:16:29:692
-10.9183,66.5209,6.1251,10.3003,-67.1761,3.6434,11.9538,3.7789,-4.1127,1903,2019-08-07 16:16:29:697
-14.9418,50.0321,-10.2365,10.3003,-67.1761,3.6434,11.9538,3.7789,-4.1127,1908,2019-08-07 16:16:29:702
-14.9418,50.0321,-10.2365,10.3003,-67.1761,3.6434,4.0613,-8.1382,-2.4456,1913,2019-08-07 16:16:29:707
-14.9418,43.2008,-18.0944,15.1605,-47.2718,15.5147,4.0613,-8.1382,-2.4456,1918,2019-08-07 16:16:29:712
-8.617,43.2008,-18.0944,15.1605,-47.2718,15.5147,-1.0679,-5.0021,0.8855,1923,2019-08-07 16:16:29:717
-8.617,43.2008,-18.0944,15.1605,-47.2718,15.5147,-1.0679,-5.0021,0.8855,1928,2019-08-07 16:16:29:722
7.3623,31.0705,-1.5631,-5.5087,-31.0176,5.697,-3.7918,-2.8034,2.5611,1934,2019-08-07 16:16:29:728
7.3623,31.0705,-1.5631,-5.5087,-31.0176,5.697,-3.7918,-2.8034,2.5611,1937,2019-08-07 16:16:29:731
7.3623,31.0705,-1.5631,-5.5087,-31.0176,5.697,-3.7918,-2.8034,2.5611,1943,2019-08-07 16:16:29:737
10.7878,26.5354,3.7258,-5.5087,-31.0176,5.697,-6.5146,-5.7829,3.8192,1948,2019-08-07 16:16:29:742
10.7878,26.5354,3.7258,-13.2335,-22.351,8.5773,-7.7088,-2.4401,3.8853,1953,2019-08-07 16:16:29:747
16.6485,21.7377,7.445,-13.2335,-22.351,8.5773,-7.7088,-2.4401,3.8853,1958,2019-08-07 16:16:29:752
16.6485,21.7377,7.445,-13.2335,-22.351,8.5773,-7.7088,-2.4401,3.8853,1963,2019-08-07 16:16:29:757
16.6485,21.7377,7.445,-14.4872,-24.5223,-17.6749,-6.1269,-2.0747,3.2738,1969,2019-08-07 16:16:29:763
11.3189,23.3513,11.9797,-14.4872,-24.5223,-17.6749,-6.1269,-2.0747,3.2738,1972,2019-08-07 16:16:29:766
11.3189,23.3513,11.9797,-14.4872,-24.5223,-17.6749,-4.2126,-0.9882,3.0788,1978,2019-08-07 16:16:29:772
6.2667,23.4324,5.2531,-2.7925,-25.1214,6.8287,-4.2126,-0.9882,3.0788,1984,2019-08-07 16:16:29:778
6.2667,23.4324,5.2531,-2.7925,-25.1214,6.8287,-4.4086,-1.1139,3.0874,1988,2019-08-07 16:16:29:782
6.2667,23.4324,5.2531,-2.7925,-25.1214,6.8287,-4.4086,-1.1139,3.0874,1992,2019-08-07 16:16:29:786
2.5015,18.2481,-3.0291,-2.7925,-25.1214,6.8287,-5.5367,-1.1469,3.0725,1999,2019-08-07 16:16:29:793
2.5015,18.2481,-3.0291,-2.7925,-25.1214,6.8287,-5.5367,-1.1469,3.0725,2002,2019-08-07 16:16:29:796
1.7743,10.3713,-1.087,0.6112,-15.5843,10.5276,-5.5367,-1.1469,3.0725,2008,2019-08-07 16:16:29:802
1.7743,10.3713,-1.087,0.6112,-15.5843,10.5276,-7.0046,-2.6894,2.9127,2013,2019-08-07 16:16:29:807
1.7743,10.3713,-1.087,0.6112,-15.5843,10.5276,-7.0046,-2.6894,2.9127,2019,2019-08-07 16:16:29:813
2.5541,1.8261,8.6423,0.6112,-15.5843,10.5276,-7.402,-4.234,2.5302,2022,2019-08-07 16:16:29:816
2.5541,1.8261,8.6423,0.6508,-5.1406,-6.7625,-7.402,-4.234,2.5302,2028,2019-08-07 16:16:29:822
0.2912,-2.5467,10.4524,0.6508,-5.1406,-6.7625,-6.1066,-5.572,1.8943,2033,2019-08-07 16:16:29:827
0.2912,-2.5467,10.4524,0.6508,-5.1406,-6.7625,-6.1066,-5.572,1.8943,2038,2019-08-07 16:16:29:832
0.2912,-2.5467,10.4524,0.6508,-5.1406,-6.7625,-5.2672,-6.5947,1.432,2043,2019-08-07 16:16:29:837
-2.2301,-6.8575,0.9729,5.7302,1.1293,6.1806,-5.2672,-6.5947,1.432,2048,2019-08-07 16:16:29:842
-2.2301,-6.8575,0.9729,5.7302,1.1293,6.1806,-5.2672,-6.5947,1.432,2053,2019-08-07 16:16:29:847
-2.2301,-6.8575,0.9729,5.7302,1.1293,6.1806,-5.77,-7.3158,1.432,2058,2019-08-07 16:16:29:852
-2.1392,-11.7984,1.8686,5.7302,1.1293,6.1806,-5.77,-7.3158,1.432,2063,2019-08-07 16:16:29:857
-2.1392,-11.7984,1.8686,4.0204,10.4851,4.5135,-5.6337,-7.2722,1.4138,2068,2019-08-07 16:16:29:862
2.5063,-30.6979,-3.0008,4.0204,10.4851,4.5135,-5.6337,-7.2722,1.4138,2073,2019-08-07 16:16:29:867
2.5063,-30.6979,-3.0008,0.5002,26.3087,10.1245,-5.5751,-6.715,1.2104,2078,2019-08-07 16:16:29:872
2.5063,-30.6979,-3.0008,0.5002,26.3087,10.1245,-5.5751,-6.715,1.2104,2083,2019-08-07 16:16:29:877
9.673,-39.7634,-1.7611,0.5002,26.3087,10.1245,-5.3311,-5.768,0.4221,2088,2019-08-07 16:16:29:882
9.673,-39.7634,-1.7611,0.5002,26.3087,10.1245,-5.3311,-5.768,0.4221,2093,2019-08-07 16:16:29:887
3.8506,-17.3551,3.0187,-0.3569,12.8099,0.5813,-3.6587,-4.5195,-0.0083,2099,2019-08-07 16:16:29:893
3.8506,-17.3551,3.0187,-0.3569,12.8099,0.5813,-3.6587,-4.5195,-0.0083,2103,2019-08-07 16:16:29:897
3.8506,-17.3551,3.0187,-0.3569,12.8099,0.5813,-3.6587,-4.5195,-0.0083,2108,2019-08-07 16:16:29:902
-1.9192,-14.8059,-1.0493,-0.3569,12.8099,0.5813,-1.4908,-2.8364,0.208,2113,2019-08-07 16:16:29:907
-1.9192,-14.8059,-1.0493,7.8777,10.2651,1.3639,-1.4908,-2.8364,0.208,2119,2019-08-07 16:16:29:913
-1.9192,-14.8059,-1.0493,7.8777,10.2651,1.3639,-0.3574,-3.1411,0.8493,2122,2019-08-07 16:16:29:916
-2.3306,-23.5849,-6.951,7.8777,10.2651,1.3639,-0.3574,-3.1411,0.8493,2128,2019-08-07 16:16:29:922
-2.3306,-23.5849,-6.951,7.8777,10.2651,1.3639,-1.4376,-4.086,0.9792,2134,2019-08-07 16:16:29:928
-6.2059,-23.0837,-12.7867,11.3617,15.0972,15.2094,-1.4376,-4.086,0.9792,2138,2019-08-07 16:16:29:932
-6.2059,-23.0837,-12.7867,11.3617,15.0972,15.2094,-3.2549,-4.2287,1.1965,2143,2019-08-07 16:16:29:937
-6.2059,-23.0837,-12.7867,11.0261,14.8831,4.2912,-3.2549,-4.2287,1.1965,2148,2019-08-07 16:16:29:942
-4.3544,-23.6279,-3.2836,11.0261,14.8831,4.2912,-3.2549,-4.2287,1.1965,2153,2019-08-07 16:16:29:947
-4.3544,-23.6279,-3.2836,11.0261,14.8831,4.2912,-2.8096,-4.3896,1.2061,2158,2019-08-07 16:16:29:952
2.0613,-25.1507,-2.388,5.145,16.9842,4.731,-2.8096,-4.3896,1.2061,2163,2019-08-07 16:16:29:957
2.0613,-25.1507,-2.388,5.145,16.9842,4.731,-1.6251,-4.0817,0.5446,2169,2019-08-07 16:16:29:963
2.0613,-25.1507,-2.388,5.145,16.9842,4.731,-1.6251,-4.0817,0.5446,2172,2019-08-07 16:16:29:966
-0.1442,-19.9091,-0.5732,6.0284,10.2514,2.44,0.204,-2.9962,0.1398,2178,2019-08-07 16:16:29:972
-0.1442,-19.9091,-0.5732,6.0284,10.2514,2.44,0.204,-2.9962,0.1398,2183,2019-08-07 16:16:29:977
-2.6512,-14.7486,-4.3961,6.0284,10.2514,2.44,2.4442,0.5522,0.5286,2187,2019-08-07 16:16:29:981
-2.6512,-14.7486,-4.3961,6.0284,10.2514,2.44,2.4442,0.5522,0.5286,2193,2019-08-07 16:16:29:987
-2.6512,-14.7486,-4.3961,6.8281,6.1314,4.1156,2.979,1.3533,0.8034,2198,2019-08-07 16:16:29:992
-2.1441,-12.7197,-4.4574,6.8281,6.1314,4.1156,2.979,1.3533,0.8034,2202,2019-08-07 16:16:29:996
-2.1441,-12.7197,-4.4574,6.8281,6.1314,4.1156,2.979,1.3533,0.8034,2208,2019-08-07 16:16:30:002
-2.1441,-12.7197,-4.4574,7.9652,2.8019,5.7142,1.5611,0.9165,0.6682,2213,2019-08-07 16:16:30:007
-4.0769,-10.0893,-4.6271,7.9652,2.8019,5.7142,1.5611,0.9165,0.6682,2218,2019-08-07 16:16:30:012
-4.0769,-10.0893,-4.6271,7.9652,2.8019,5.7142,-0.269,0.8398,0.1835,2223,2019-08-07 16:16:30:017
-5.5792,-7.5544,5.5595,10.4075,-1.2011,-7.0199,-0.269,0.8398,0.1835,2228,2019-08-07 16:16:30:022
-5.5792,-7.5544,5.5595,10.4075,-1.2011,-7.0199,-0.4788,-1.0819,-0.036,2233,2019-08-07 16:16:30:027
-3.2923,-9.0343,6.2477,10.4075,-1.2011,-7.0199,-0.4788,-1.0819,-0.036,2238,2019-08-07 16:16:30:032
-3.2923,-9.0343,6.2477,10.4075,-1.2011,-7.0199,0.0826,-2.0279,-0.2032,2243,2019-08-07 16:16:30:037
-3.2923,-9.0343,6.2477,3.6684,2.3636,-0.5037,0.0826,-2.0279,-0.2032,2248,2019-08-07 16:16:30:042
1.846,-10.9247,1.0672,3.6684,2.3636,-0.5037,0.0826,-2.0279,-0.2032,2253,2019-08-07 16:16:30:047
1.846,-10.9247,1.0672,3.6684,2.3636,-0.5037,-0.0943,-2.8044,-0.4983,2258,2019-08-07 16:16:30:052
1.846,-10.9247,1.0672,0.4348,2.9611,1.475,-0.0943,-2.8044,-0.4983,2263,2019-08-07 16:16:30:057
4.7883,-10.2373,-0.6816,0.4348,2.9611,1.475,-0.4,-3.0132,-0.7124,2268,2019-08-07 16:16:30:062
4.7883,-10.2373,-0.6816,0.4348,2.9611,1.475,-0.4,-3.0132,-0.7124,2273,2019-08-07 16:16:30:067
6.5872,-8.4901,0.6429,-1.9806,0.0394,0.7751,-0.2147,-3.1581,-0.7273,2277,2019-08-07 16:16:30:071
6.5872,-8.4901,0.6429,-1.9806,0.0394,0.7751,-0.2147,-3.1581,-0.7273,2283,2019-08-07 16:16:30:077
8.8836,-8.4376,-1.1719,-1.9806,0.0394,0.7751,0.1795,-3.0314,-0.5335,2288,2019-08-07 16:16:30:082
8.8836,-8.4376,-1.1719,-1.9806,0.0394,0.7751,0.1795,-3.0314,-0.5335,2293,2019-08-07 16:16:30:087
8.8836,-8.4376,-1.1719,-5.3894,0.3742,2.8622,0.4969,-2.3805,-0.2608,2298,2019-08-07 16:16:30:092
10.7973,-8.7431,-2.3456,-5.3894,0.3742,2.8622,0.4969,-2.3805,-0.2608,2303,2019-08-07 16:16:30:097
10.7973,-8.7431,-2.3456,-5.3894,0.3742,2.8622,0.4969,-2.3805,-0.2608,2308,2019-08-07 16:16:30:102
11.4575,-8.4471,-2.6002,-5.3894,0.3742,2.8622,0.4618,-1.3141,0.062,2313,2019-08-07 16:16:30:107
11.4575,-8.4471,-2.6002,-6.3653,-0.3434,2.912,0.4618,-1.3141,0.062,2318,2019-08-07 16:16:30:112
11.4575,-8.4471,-2.6002,-6.3653,-0.3434,2.912,0.2807,-0.153,0.1984,2322,2019-08-07 16:16:30:116
11.2326,-7.7072,-1.5207,-6.3653,-0.3434,2.912,0.2807,-0.153,0.1984,2328,2019-08-07 16:16:30:122
11.2326,-7.7072,-1.5207,-6.3653,-0.3434,2.912,0.1326,0.7983,0.1654,2333,2019-08-07 16:16:30:127
11.2326,-7.7072,-1.5207,-3.462,-1.0599,-0.1648,0.1326,0.7983,0.1654,2338,2019-08-07 16:16:30:132
8.5869,-7.2823,0.7796,-3.462,-1.0599,-0.1648,0.0943,1.3309,0.1174,2343,2019-08-07 16:16:30:137
8.5869,-7.2823,0.7796,-3.462,-1.0599,-0.1648,0.0943,1.3309,0.1174,2347,2019-08-07 16:16:30:141
8.5869,-7.2823,0.7796,-3.462,-1.0599,-0.1648,0.0698,1.594,0.1046,2353,2019-08-07 16:16:30:147
6.458,-7.6976,2.1042,-3.462,-1.0599,-0.1648,0.0698,1.594,0.1046,2358,2019-08-07 16:16:30:152
6.458,-7.6976,2.1042,-0.695,-0.6223,-1.7453,0.0357,1.5994,0.0791,2363,2019-08-07 16:16:30:157
4.7691,-7.4303,2.8396,-0.695,-0.6223,-1.7453,0.0357,1.5994,0.0791,2368,2019-08-07 16:16:30:162
4.7691,-7.4303,2.8396,-0.695,-0.6223,-1.7453,-0.0431,1.2553,0.0791,2373,2019-08-07 16:16:30:167
4.7691,-7.4303,2.8396,-0.695,-0.6223,-1.7453,-0.0431,1.2553,0.0791,2378,2019-08-07 16:16:30:172
3.8888,-7.2632,3.1695,1.1716,-1.0873,-2.2224,-0.0922,0.8238,0.1089,2383,2019-08-07 16:16:30:177
3.8888,-7.2632,3.1695,1.1716,-1.0873,-2.2224,-0.0922,0.8238,0.1089,2387,2019-08-07 16:16:30:181
3.8888,-7.2632,3.1695,1.1716,-1.0873,-2.2224,-0.1241,0.3146,0.0972,2393,2019-08-07 16:16:30:187
3.9941,-7.5306,3.1695,1.1716,-1.0873,-2.2224,-0.1241,0.3146,0.0972,2398,2019-08-07 16:16:30:192
3.9941,-7.5306,3.1695,0.7472,-0.7185,-1.8009,-0.1529,-0.1509,0.062,2403,2019-08-07 16:16:30:197
3.9941,-7.5306,3.1695,0.7472,-0.7185,-1.8009,-0.1529,-0.1509,0.062,2407,2019-08-07 16:16:30:201
5.0179,-7.8981,2.1702,-0.2745,-0.3927,-1.0539,-0.1497,-0.3682,0.012,2414,2019-08-07 16:16:30:208
5.0179,-7.8981,2.1702,-0.2745,-0.3927,-1.0539,-0.1497,-0.3682,0.012,2418,2019-08-07 16:16:30:212
6.2379,-8.1273,0.9211,-0.2745,-0.3927,-1.0539,-0.1497,-0.3682,0.012,2423,2019-08-07 16:16:30:217
6.2379,-8.1273,0.9211,-0.2745,-0.3927,-1.0539,-0.1039,-0.2382,-0.0317,2427,2019-08-07 16:16:30:221
6.5923,-8.1703,0.4827,-1.5233,-0.1941,0.44,-0.1039,-0.2382,-0.0317,2433,2019-08-07 16:16:30:227
6.5923,-8.1703,0.4827,-1.5233,-0.1941,0.44,-0.0645,0.0505,-0.0552,2438,2019-08-07 16:16:30:232
6.5923,-8.1703,0.4827,-1.5233,-0.1941,0.44,-0.0645,0.0505,-0.0552,2443,2019-08-07 16:16:30:237
6.2717,-8.2085,0.6006,-1.5233,-0.1941,0.44,-0.0091,0.3754,-0.0786,2448,2019-08-07 16:16:30:242
6.2717,-8.2085,0.6006,-0.8571,-0.098,0.2589,-0.0091,0.3754,-0.0786,2453,2019-08-07 16:16:30:247
6.2717,-8.2085,0.6006,-0.8571,-0.098,0.2589,-0.0091,0.3754,-0.0786,2458,2019-08-07 16:16:30:252
5.0757,-8.2228,0.8504,-0.8571,-0.098,0.2589,0.0367,0.5895,-0.1116,2464,2019-08-07 16:16:30:258
5.0757,-8.2228,0.8504,-0.8571,-0.098,0.2589,0.0367,0.5895,-0.1116,2468,2019-08-07 16:16:30:262
5.0757,-8.2228,0.8504,0.6866,-0.0716,-0.1929,0.041,0.451,-0.1244,2473,2019-08-07 16:16:30:267
4.2623,-8.2658,1.303,0.6866,-0.0716,-0.1929,0.041,0.451,-0.1244,2478,2019-08-07 16:16:30:272
4.2623,-8.2658,1.303,0.6866,-0.0716,-0.1929,0.0687,0.173,-0.1201,2483,2019-08-07 16:16:30:277
4.2623,-8.2658,1.303,0.6866,-0.0716,-0.1929,0.0687,0.173,-0.1201,2487,2019-08-07 16:16:30:281
4.1762,-8.5904,1.5669,0.8499,0.2733,-0.5101,0.1092,-0.1498,-0.1223,2493,2019-08-07 16:16:30:287
4.1762,-8.5904,1.5669,0.8499,0.2733,-0.5101,0.1092,-0.1498,-0.1223,2498,2019-08-07 16:16:30:292
4.6929,-8.5713,1.4255,0.8499,0.2733,-0.5101,0.1092,-0.1498,-0.1223,2502,2019-08-07 16:16:30:296
4.6929,-8.5713,1.4255,0.8499,0.2733,-0.5101,0.155,-0.4523,-0.1329,2508,2019-08-07 16:16:30:302
4.6929,-8.5713,1.4255,-0.3814,0.1308,0.1058,0.155,-0.4523,-0.1329,2512,2019-08-07 16:16:30:306
5.6785,-8.4376,0.874,-0.3814,0.1308,0.1058,0.1592,-0.5237,-0.1382,2518,2019-08-07 16:16:30:312
5.6785,-8.4376,0.874,-0.3814,0.1308,0.1058,0.1592,-0.5237,-0.1382,2523,2019-08-07 16:16:30:317
6.4392,-8.2753,0.4592,-0.3814,0.1308,0.1058,0.1326,-0.4225,-0.1233,2527,2019-08-07 16:16:30:321
6.4392,-8.2753,0.4592,-1.4492,-0.0738,0.5508,0.1326,-0.4225,-0.1233,2533,2019-08-07 16:16:30:327
6.4392,-8.2753,0.4592,-1.4492,-0.0738,0.5508,0.1124,-0.0561,-0.101,2538,2019-08-07 16:16:30:332
6.5349,-8.2323,0.478,-1.4492,-0.0738,0.5508,0.1124,-0.0561,-0.101,2544,2019-08-07 16:16:30:338
6.5349,-8.2323,0.478,-1.4492,-0.0738,0.5508,0.0975,0.1879,-0.0807,2548,2019-08-07 16:16:30:342
6.023,-8.261,0.5393,-0.8635,-0.0201,0.4802,0.0975,0.1879,-0.0807,2552,2019-08-07 16:16:30:346
6.023,-8.261,0.5393,-0.8635,-0.0201,0.4802,0.0975,0.1879,-0.0807,2558,2019-08-07 16:16:30:352
6.023,-8.261,0.5393,-0.8635,-0.0201,0.4802,0.0676,0.4446,-0.0477,2563,2019-08-07 16:16:30:357
5.3675,-8.2562,0.9258,-0.2069,-0.0208,0.1206,0.0676,0.4446,-0.0477,2567,2019-08-07 16:16:30:361
5.3675,-8.2562,0.9258,-0.2069,-0.0208,0.1206,0.09,0.467,-0.0115,2573,2019-08-07 16:16:30:367
4.7695,-8.2753,1.5292,-0.2069,-0.0208,0.1206,0.09,0.467,-0.0115,2578,2019-08-07 16:16:30:372
4.7695,-8.2753,1.5292,0.7116,-0.1091,-0.4177,0.1337,0.3445,0.0066,2583,2019-08-07 16:16:30:377
4.7695,-8.2753,1.5292,0.7116,-0.1091,-0.4177,0.1337,0.3445,0.0066,2588,2019-08-07 16:16:30:382
4.3963,-8.0939,1.5481,0.7116,-0.1091,-0.4177,0.1347,0.1378,0.0226,2593,2019-08-07 16:16:30:387
4.3963,-8.0939,1.5481,0.7116,-0.1091,-0.4177,0.1347,0.1378,0.0226,2598,2019-08-07 16:16:30:392
4.3963,-8.0939,1.5481,0.4482,-0.3679,-0.4374,0.123,-0.1711,0.0407,2603,2019-08-07 16:16:30:397
4.8125,-7.9507,1.5528,0.4482,-0.3679,-0.4374,0.123,-0.1711,0.0407,2608,2019-08-07 16:16:30:402
4.8125,-7.9507,1.5528,0.4482,-0.3679,-0.4374,0.1188,-0.2702,0.0397,2613,2019-08-07 16:16:30:407
5.4776,-7.7741,1.3124,-0.1408,-0.4542,-0.2677,0.1188,-0.2702,0.0397,2618,2019-08-07 16:16:30:412
5.4776,-7.7741,1.3124,-0.1408,-0.4542,-0.2677,0.1049,-0.3181,0.0407,2623,2019-08-07 16:16:30:417
5.4776,-7.7741,1.3124,-0.1408,-0.4542,-0.2677,0.1049,-0.3181,0.0407,2628,2019-08-07 16:16:30:422
5.9703,-7.7645,0.841,-0.9056,-0.5053,0.4392,0.0815,-0.2318,0.0546,2633,2019-08-07 16:16:30:427
5.9703,-7.7645,0.841,-0.9056,-0.5053,0.4392,0.0815,-0.2318,0.0546,2639,2019-08-07 16:16:30:433
6.2287,-7.8552,0.61,-0.9056,-0.5053,0.4392,0.0815,-0.2318,0.0546,2643,2019-08-07 16:16:30:437
6.2287,-7.8552,0.61,-0.9056,-0.5053,0.4392,0.0431,-0.0987,0.0737,2648,2019-08-07 16:16:30:442
6.2287,-7.8552,0.61,-0.984,-0.216,0.2963,0.0431,-0.0987,0.0737,2653,2019-08-07 16:16:30:447
6.0612,-8.07,0.8457,-0.984,-0.216,0.2963,0.0751,0.0728,0.094,2658,2019-08-07 16:16:30:452
6.0612,-8.07,0.8457,-0.984,-0.216,0.2963,0.0751,0.0728,0.094,2662,2019-08-07 16:16:30:456
5.6163,-7.9698,1.0343,-0.984,-0.216,0.2963,0.1209,0.1602,0.0972,2668,2019-08-07 16:16:30:462
5.6163,-7.9698,1.0343,-0.984,-0.216,0.2963,0.1209,0.1602,0.0972,2673,2019-08-07 16:16:30:467
5.6163,-7.9698,1.0343,-0.3427,-0.3689,0.042,0.1497,0.1474,0.0833,2678,2019-08-07 16:16:30:472
5.224,-7.7645,1.27,-0.3427,-0.3689,0.042,0.1497,0.1474,0.0833,2683,2019-08-07 16:16:30:477
5.224,-7.7645,1.27,-0.3427,-0.3689,0.042,0.1497,0.1474,0.0833,2688,2019-08-07 16:16:30:482
5.224,-7.7645,1.27,-0.3427,-0.3689,0.042,0.1507,0.043,0.061,2693,2019-08-07 16:16:30:487
5.0231,-7.5879,1.6612,0.0946,-0.6957,-0.4665,0.1486,-0.0444,0.0524,2698,2019-08-07 16:16:30:492
5.0231,-7.5879,1.6612,0.0946,-0.6957,-0.4665,0.1486,-0.0444,0.0524,2703,2019-08-07 16:16:30:497
5.114,-7.5688,1.6423,0.0946,-0.6957,-0.4665,0.122,-0.1402,0.0471,2708,2019-08-07 16:16:30:502
5.114,-7.5688,1.6423,-0.1286,-0.7717,-0.2809,0.122,-0.1402,0.0471,2714,2019-08-07 16:16:30:508
5.114,-7.5688,1.6423,-0.1286,-0.7717,-0.2809,0.122,-0.1402,0.0471,2718,2019-08-07 16:16:30:512
5.3914,-7.6118,1.5434,-0.1286,-0.7717,-0.2809,0.074,-0.1903,0.0333,2723,2019-08-07 16:16:30:517
5.3914,-7.6118,1.5434,-0.3378,-0.6184,-0.3531,0.074,-0.1903,0.0333,2728,2019-08-07 16:16:30:522
5.6211,-7.817,1.4774,-0.3378,-0.6184,-0.3531,0.0431,-0.2052,0.0333,2733,2019-08-07 16:16:30:527
5.6211,-7.817,1.4774,-0.3378,-0.6184,-0.3531,0.0431,-0.2052,0.0333,2737,2019-08-07 16:16:30:531
5.6211,-7.817,1.4774,-0.3378,-0.6184,-0.3531,0.0133,-0.1551,0.029,2743,2019-08-07 16:16:30:537
5.9081,-8.0414,1.2982,-0.7883,-0.2405,-0.1011,0.0133,-0.1551,0.029,2748,2019-08-07 16:16:30:542
5.9081,-8.0414,1.2982,-0.7883,-0.2405,-0.1011,-0.008,-0.1136,0.0279,2753,2019-08-07 16:16:30:547
6.0278,-8.0271,1.204,-0.7883,-0.2405,-0.1011,-0.008,-0.1136,0.0279,2758,2019-08-07 16:16:30:552
6.0278,-8.0271,1.204,-0.7883,-0.2405,-0.1011,-0.0101,-0.0465,0.0365,2764,2019-08-07 16:16:30:558
6.0278,-8.0271,1.204,-0.986,-0.1637,0.0431,-0.0101,-0.0465,0.0365,2767,2019-08-07 16:16:30:561
6.1665,-8.0987,1.1003,-0.986,-0.1637,0.0431,-0.0101,-0.0465,0.0365,2773,2019-08-07 16:16:30:567
6.1665,-8.0987,1.1003,-0.986,-0.1637,0.0431,5.0E-4,0.0867,0.0322,2778,2019-08-07 16:16:30:572
6.1234,-8.0748,1.0767,-0.986,-0.1637,0.0431,5.0E-4,0.0867,0.0322,2783,2019-08-07 16:16:30:577
6.1234,-8.0748,1.0767,-0.8578,-0.2065,0.1103,0.024,0.1943,0.0343,2788,2019-08-07 16:16:30:582
6.1234,-8.0748,1.0767,-0.8578,-0.2065,0.1103,0.024,0.1943,0.0343,2793,2019-08-07 16:16:30:587
5.7263,-8.0032,1.2841,-0.8578,-0.2065,0.1103,0.0431,0.2529,0.0375,2798,2019-08-07 16:16:30:592
5.7263,-8.0032,1.2841,-0.8578,-0.2065,0.1103,0.0431,0.2529,0.0375,2803,2019-08-07 16:16:30:597
5.7263,-8.0032,1.2841,0.0045,-0.403,-0.2034,0.0431,0.2529,0.0375,2808,2019-08-07 16:16:30:602
5.0039,-7.8457,1.4585,0.0045,-0.403,-0.2034,0.0367,0.206,0.0535,2813,2019-08-07 16:16:30:607
5.0039,-7.8457,1.4585,0.0045,-0.403,-0.2034,0.0367,0.206,0.0535,2818,2019-08-07 16:16:30:612
4.6355,-7.8504,1.7932,0.0045,-0.403,-0.2034,0.0133,0.0036,0.0631,2823,2019-08-07 16:16:30:617
4.6355,-7.8504,1.7932,0.4506,-0.3748,-0.5943,0.0133,0.0036,0.0631,2828,2019-08-07 16:16:30:622
4.6355,-7.8504,1.7932,0.4506,-0.3748,-0.5943,0.0059,-0.2041,0.0546,2833,2019-08-07 16:16:30:627
4.9465,-8.0271,1.6895,0.4506,-0.3748,-0.5943,0.0059,-0.2041,0.0546,2837,2019-08-07 16:16:30:631
4.9465,-8.0271,1.6895,0.4506,-0.3748,-0.5943,-0.0016,-0.3682,0.0439,2843,2019-08-07 16:16:30:637
5.5254,-8.1178,1.3878,-0.3166,-0.1932,-0.2453,-0.0016,-0.3682,0.0439,2848,2019-08-07 16:16:30:642
5.5254,-8.1178,1.3878,-0.3166,-0.1932,-0.2453,0.0027,-0.4108,0.0397,2853,2019-08-07 16:16:30:647
5.5254,-8.1178,1.3878,-0.3166,-0.1932,-0.2453,0.0027,-0.4108,0.0397,2858,2019-08-07 16:16:30:652
5.9464,-8.1416,1.0814,-0.3166,-0.1932,-0.2453,0.0048,-0.3256,0.0407,2863,2019-08-07 16:16:30:657
5.9464,-8.1416,1.0814,-1.07,-0.1848,0.2438,0.0048,-0.3256,0.0407,2868,2019-08-07 16:16:30:662
5.9464,-8.1416,1.0814,-1.07,-0.1848,0.2438,0.0048,-0.3256,0.0407,2873,2019-08-07 16:16:30:667
6.31,-8.1512,0.8646,-1.07,-0.1848,0.2438,0.0027,-0.1392,0.0663,2877,2019-08-07 16:16:30:671
6.31,-8.1512,0.8646,-1.07,-0.1848,0.2438,0.0027,-0.1392,0.0663,2883,2019-08-07 16:16:30:677
6.31,-8.1512,0.8646,-0.9516,-0.2446,0.066,0.009,0.0856,0.0727,2888,2019-08-07 16:16:30:682
5.9369,-8.0223,1.0908,-0.9516,-0.2446,0.066,0.009,0.0856,0.0727,2893,2019-08-07 16:16:30:687
5.9369,-8.0223,1.0908,-0.4504,-0.2616,-0.0729,0.0101,0.157,0.0887,2898,2019-08-07 16:16:30:692
5.3484,-7.9937,1.3265,-0.4504,-0.2616,-0.0729,0.0101,0.157,0.0887,2903,2019-08-07 16:16:30:697
5.3484,-7.9937,1.3265,-0.4504,-0.2616,-0.0729,0.0101,0.157,0.0887,2908,2019-08-07 16:16:30:702
5.3484,-7.9937,1.3265,-0.4504,-0.2616,-0.0729,-0.0048,0.1495,0.1142,2913,2019-08-07 16:16:30:707
4.98,-8.1082,1.6141,0.194,-0.1859,-0.4945,-0.0048,0.1495,0.1142,2918,2019-08-07 16:16:30:712
4.98,-8.1082,1.6141,0.194,-0.1859,-0.4945,-0.0059,0.0036,0.1078,2923,2019-08-07 16:16:30:717
4.803,-8.1512,1.8215,0.194,-0.1859,-0.4945,-0.0059,0.0036,0.1078,2928,2019-08-07 16:16:30:722
4.803,-8.1512,1.8215,0.194,-0.1859,-0.4945,0.0037,-0.1392,0.0982,2933,2019-08-07 16:16:30:727
4.803,-8.1512,1.8215,0.0634,-0.2438,-0.4373,0.0037,-0.1392,0.0982,2938,2019-08-07 16:16:30:732
5.0805,-8.0318,1.5716,0.0634,-0.2438,-0.4373,0.0016,-0.2244,0.0759,2943,2019-08-07 16:16:30:737
5.0805,-8.0318,1.5716,0.0634,-0.2438,-0.4373,0.0016,-0.2244,0.0759,2948,2019-08-07 16:16:30:742
5.0805,-8.0318,1.5716,0.0634,-0.2438,-0.4373,-0.025,-0.2542,0.061,2953,2019-08-07 16:16:30:747
5.5493,-7.8504,1.2464,0.0634,-0.2438,-0.4373,-0.025,-0.2542,0.061,2958,2019-08-07 16:16:30:752
5.5493,-7.8504,1.2464,-0.571,-0.4783,-0.0052,-0.0517,-0.1999,0.0471,2963,2019-08-07 16:16:30:757
5.9225,-7.9555,1.1144,-0.571,-0.4783,-0.0052,-0.0517,-0.1999,0.0471,2968,2019-08-07 16:16:30:762
5.9225,-7.9555,1.1144,-0.571,-0.4783,-0.0052,-0.0517,-0.1999,0.0471,2973,2019-08-07 16:16:30:767
5.9225,-7.9555,1.1144,-1.0457,-0.2553,0.1094,-0.0772,-0.0657,0.0205,2977,2019-08-07 16:16:30:771
6.0756,-8.0557,0.9683,-1.0457,-0.2553,0.1094,-0.0772,-0.0657,0.0205,2983,2019-08-07 16:16:30:777
6.0756,-8.0557,0.9683,-1.0457,-0.2553,0.1094,-0.0868,0.043,0.012,2988,2019-08-07 16:16:30:782
6.0756,-8.0557,0.9683,-1.0457,-0.2553,0.1094,-0.0868,0.043,0.012,2992,2019-08-07 16:16:30:786
5.8555,-8.1607,1.2087,-0.742,-0.1549,-0.1215,-0.0698,0.1314,0.0162,2998,2019-08-07 16:16:30:792
5.8555,-8.1607,1.2087,-0.742,-0.1549,-0.1215,-0.0698,0.1314,0.0162,3003,2019-08-07 16:16:30:797
5.8555,-8.1607,1.2087,-0.742,-0.1549,-0.1215,-0.0698,0.1314,0.0162,3008,2019-08-07 16:16:30:802
5.5589,-8.2849,1.3171,-0.742,-0.1549,-0.1215,-0.041,0.1453,0.0247,3013,2019-08-07 16:16:30:807
5.5589,-8.2849,1.3171,-0.742,-0.1549,-0.1215,-0.041,0.1453,0.0247,3018,2019-08-07 16:16:30:812
5.3197,-8.2849,1.3925,-0.2205,-0.0373,-0.3156,-0.0197,0.1027,0.0322,3023,2019-08-07 16:16:30:817
5.3197,-8.2849,1.3925,-0.2205,-0.0373,-0.3156,-0.0197,0.1027,0.0322,3028,2019-08-07 16:16:30:822
5.3197,-8.2849,1.3925,-0.2205,-0.0373,-0.3156,-0.0197,0.1027,0.0322,3032,2019-08-07 16:16:30:826
5.1666,-8.3183,1.4774,-0.1572,-0.0486,-0.3592,0.0197,-0.0444,0.0215,3038,2019-08-07 16:16:30:832
5.1666,-8.3183,1.4774,-0.1572,-0.0486,-0.3592,0.0197,-0.0444,0.0215,3043,2019-08-07 16:16:30:837
5.1666,-8.3183,1.4774,-0.1572,-0.0486,-0.3592,0.0421,-0.1104,-8.0E-4,3048,2019-08-07 16:16:30:842
5.2384,-8.2133,1.3077,-0.1572,-0.0486,-0.3592,0.0421,-0.1104,-8.0E-4,3052,2019-08-07 16:16:30:846
5.2384,-8.2133,1.3077,-0.1572,-0.0486,-0.3592,0.0389,-0.1594,-0.0147,3058,2019-08-07 16:16:30:852
5.3628,-8.0653,1.2558,-0.2381,-0.1989,-0.1284,0.0389,-0.1594,-0.0147,3063,2019-08-07 16:16:30:857
5.3628,-8.0653,1.2558,-0.2381,-0.1989,-0.1284,0.0367,-0.1594,-0.0264,3068,2019-08-07 16:16:30:862
5.3628,-8.0653,1.2558,-0.2381,-0.1989,-0.1284,0.0367,-0.1594,-0.0264,3072,2019-08-07 16:16:30:866
5.468,-8.0223,1.1663,-0.2381,-0.1989,-0.1284,0.0335,-0.1637,-0.0413,3078,2019-08-07 16:16:30:872
5.468,-8.0223,1.1663,-0.4174,-0.2931,0.0317,0.0335,-0.1637,-0.0413,3083,2019-08-07 16:16:30:877
5.5494,-8.0366,1.1191,-0.4174,-0.2931,0.0317,0.0208,-0.1658,-0.052,3088,2019-08-07 16:16:30:882
5.5494,-8.0366,1.1191,-0.4174,-0.2931,0.0317,0.0208,-0.1658,-0.052,3093,2019-08-07 16:16:30:887
5.5494,-8.0366,1.1191,-0.4174,-0.2931,0.0317,0.0293,-0.1466,-0.053,3097,2019-08-07 16:16:30:891
5.712,-8.1178,1.2511,-0.6215,-0.1943,-0.141,0.0293,-0.1466,-0.053,3103,2019-08-07 16:16:30:897
5.712,-8.1178,1.2511,-0.6215,-0.1943,-0.141,0.0463,-0.1189,-0.0392,3109,2019-08-07 16:16:30:903
5.7264,-8.0844,1.1663,-0.6215,-0.1943,-0.141,0.0463,-0.1189,-0.0392,3114,2019-08-07 16:16:30:908
5.7264,-8.0844,1.1663,-0.6215,-0.1943,-0.141,0.0474,-0.1061,-0.0104,3118,2019-08-07 16:16:30:912
5.7264,-8.0844,1.1663,-0.6614,-0.1919,0.0714,0.0474,-0.1061,-0.0104,3123,2019-08-07 16:16:30:917
5.8029,-8.1989,1.1003,-0.6614,-0.1919,0.0714,0.0378,-0.0806,0.0056,3128,2019-08-07 16:16:30:922
5.8029,-8.1989,1.1003,-0.6614,-0.1919,0.0714,0.0378,-0.0806,0.0056,3134,2019-08-07 16:16:30:928
5.8029,-8.1989,1.1003,-0.6614,-0.1919,0.0714,0.0325,-0.0262,0.0162,3138,2019-08-07 16:16:30:932
5.7168,-8.1846,1.2181,-0.6096,-0.1178,-0.1126,0.0325,-0.0262,0.0162,3143,2019-08-07 16:16:30:937
5.7168,-8.1846,1.2181,-0.6096,-0.1178,-0.1126,0.0335,0.0068,0.0226,3148,2019-08-07 16:16:30:942
5.7168,-8.1846,1.2181,-0.6096,-0.1178,-0.1126,0.0335,0.0068,0.0226,3154,2019-08-07 16:16:30:948
5.3867,-8.0557,1.1474,-0.6096,-0.1178,-0.1126,0.0335,0.0068,0.0226,3159,2019-08-07 16:16:30:953
5.3867,-8.0557,1.1474,-0.1899,-0.218,-0.0453,0.0208,0.026,0.0279,3162,2019-08-07 16:16:30:956
5.1905,-8.0509,1.2181,-0.1899,-0.218,-0.0453,0.0208,0.026,0.0279,3168,2019-08-07 16:16:30:962
5.1905,-8.0509,1.2181,-0.1899,-0.218,-0.0453,0.0112,0.0185,0.0258,3173,2019-08-07 16:16:30:967
5.1905,-8.0509,1.2181,-0.1899,-0.218,-0.0453,0.0112,0.0185,0.0258,3178,2019-08-07 16:16:30:972
5.0757,-8.1321,1.27,0.0269,-0.1717,-0.1536,0.0112,-0.023,0.0173,3183,2019-08-07 16:16:30:977
5.0757,-8.1321,1.27,0.0269,-0.1717,-0.1536,0.0112,-0.023,0.0173,3187,2019-08-07 16:16:30:981
5.224,-8.2037,1.2134,0.0269,-0.1717,-0.1536,0.0112,-0.0806,0.0152,3193,2019-08-07 16:16:30:987
5.224,-8.2037,1.2134,0.0269,-0.1717,-0.1536,0.0112,-0.0806,0.0152,3198,2019-08-07 16:16:30:992
5.224,-8.2037,1.2134,-0.3462,-0.0291,-0.0502,0.008,-0.1541,0.0194,3203,2019-08-07 16:16:30:997
5.6307,-8.3422,1.105,-0.3462,-0.0291,-0.0502,0.008,-0.1541,0.0194,3208,2019-08-07 16:16:31:002
5.6307,-8.3422,1.105,-0.3462,-0.0291,-0.0502,0.008,-0.1541,0.0194,3213,2019-08-07 16:16:31:007
5.6307,-8.3422,1.105,-0.3462,-0.0291,-0.0502,0.0186,-0.1605,0.0162,3218,2019-08-07 16:16:31:012
5.8077,-8.1894,0.973,-0.7011,-0.1144,0.1246,0.0186,-0.1605,0.0162,3222,2019-08-07 16:16:31:016
5.8077,-8.1894,0.973,-0.7011,-0.1144,0.1246,0.0474,-0.1232,0.0343,3228,2019-08-07 16:16:31:022
5.8077,-8.1894,0.973,-0.7011,-0.1144,0.1246,0.0474,-0.1232,0.0343,3233,2019-08-07 16:16:31:027
5.8508,-8.0557,0.9683,-0.7011,-0.1144,0.1246,0.0783,-0.0667,0.0631,3237,2019-08-07 16:16:31:031
5.8508,-8.0557,0.9683,-0.7069,-0.2727,0.176,0.0783,-0.0667,0.0631,3243,2019-08-07 16:16:31:037
5.7647,-8.0175,0.9871,-0.7069,-0.2727,0.176,0.09,-0.0135,0.0631,3247,2019-08-07 16:16:31:041
5.7647,-8.0175,0.9871,-0.7069,-0.2727,0.176,0.09,-0.0135,0.0631,3253,2019-08-07 16:16:31:047
5.7647,-8.0175,0.9871,-0.7069,-0.2727,0.176,0.0868,0.0313,0.0503,3258,2019-08-07 16:16:31:052
5.5685,-8.0748,1.0956,-0.3967,-0.2551,0.0867,0.0868,0.0313,0.0503,3263,2019-08-07 16:16:31:057
5.5685,-8.0748,1.0956,-0.3967,-0.2551,0.0867,0.0868,0.0313,0.0503,3268,2019-08-07 16:16:31:062
5.2719,-8.1082,1.2181,-0.3967,-0.2551,0.0867,0.0762,0.0696,0.0386,3273,2019-08-07 16:16:31:067
5.2719,-8.1082,1.2181,-0.3967,-0.2551,0.0867,0.0762,0.0696,0.0386,3278,2019-08-07 16:16:31:072
5.2719,-8.1082,1.2181,-0.0065,-0.1562,-0.1139,0.0644,0.0973,0.0439,3283,2019-08-07 16:16:31:077
5.047,-8.1416,1.3595,-0.0065,-0.1562,-0.1139,0.0644,0.0973,0.0439,3287,2019-08-07 16:16:31:081
5.047,-8.1416,1.3595,-0.0065,-0.1562,-0.1139,0.0453,0.076,0.0428,3293,2019-08-07 16:16:31:087
4.8748,-8.1894,1.4962,-0.0065,-0.1562,-0.1139,0.0453,0.076,0.0428,3297,2019-08-07 16:16:31:091
4.8748,-8.1894,1.4962,0.1807,-0.1213,-0.3759,0.0122,-0.0209,0.0301,3303,2019-08-07 16:16:31:097
5.0087,-8.1894,1.5764,0.1807,-0.1213,-0.3759,0.0122,-0.0209,0.0301,3309,2019-08-07 16:16:31:103
5.0087,-8.1894,1.5764,0.1807,-0.1213,-0.3759,-0.0101,-0.1242,0.012,3313,2019-08-07 16:16:31:107
5.0087,-8.1894,1.5764,0.1807,-0.1213,-0.3759,-0.0101,-0.1242,0.012,3318,2019-08-07 16:16:31:112
5.0087,-8.1894,1.5764,0.1807,-0.1213,-0.3759,-0.0101,-0.1242,0.012,3323,2019-08-07 16:16:31:117
5.3245,-8.1942,1.2794,-0.2402,-0.1178,-0.1405,-0.0389,-0.2009,0.0056,3327,2019-08-07 16:16:31:121
5.3245,-8.1942,1.2794,-0.2402,-0.1178,-0.1405,-0.0389,-0.2009,0.0056,3333,2019-08-07 16:16:31:127
5.8173,-8.2085,1.138,-0.2402,-0.1178,-0.1405,-0.0506,-0.1956,-0.003,3338,2019-08-07 16:16:31:132
5.8173,-8.2085,1.138,-0.8725,-0.1019,0.0012,-0.0506,-0.1956,-0.003,3343,2019-08-07 16:16:31:137
5.8173,-8.2085,1.138,-0.8725,-0.1019,0.0012,-0.041,-0.1221,-0.0072,3348,2019-08-07 16:16:31:142
5.98,-8.261,0.9919,-0.8725,-0.1019,0.0012,-0.041,-0.1221,-0.0072,3353,2019-08-07 16:16:31:147
5.98,-8.261,0.9919,-0.8725,-0.1019,0.0012,-0.024,-0.0145,-0.0083,3358,2019-08-07 16:16:31:152
5.9512,-8.3135,0.8599,-0.826,-0.0604,0.1911,-0.024,-0.0145,-0.0083,3363,2019-08-07 16:16:31:157
5.9512,-8.3135,0.8599,-0.826,-0.0604,0.1911,-0.0208,0.092,-0.0115,3368,2019-08-07 16:16:31:162
5.9512,-8.3135,0.8599,-0.826,-0.0604,0.1911,-0.0208,0.092,-0.0115,3373,2019-08-07 16:16:31:167
5.6546,-8.2705,1.0814,-0.826,-0.0604,0.1911,-0.0112,0.141,-0.0157,3377,2019-08-07 16:16:31:171
5.6546,-8.2705,1.0814,-0.254,-0.0383,-0.195,-0.0112,0.141,-0.0157,3383,2019-08-07 16:16:31:177
5.2767,-8.2801,1.2983,-0.254,-0.0383,-0.195,0.0016,0.1442,-0.0136,3388,2019-08-07 16:16:31:182
5.2767,-8.2801,1.2983,-0.254,-0.0383,-0.195,0.0016,0.1442,-0.0136,3393,2019-08-07 16:16:31:187
5.0518,-8.2562,1.4255,-0.254,-0.0383,-0.195,0.0069,0.0888,-0.0157,3398,2019-08-07 16:16:31:192
5.0518,-8.2562,1.4255,-0.254,-0.0383,-0.195,0.0069,0.0888,-0.0157,3403,2019-08-07 16:16:31:197
5.0518,-8.2562,1.4255,0.1147,-0.0124,-0.2705,0.0154,0.0142,-0.02,3408,2019-08-07 16:16:31:202
5.071,-8.2849,1.3407,0.1147,-0.0124,-0.2705,0.0154,0.0142,-0.02,3413,2019-08-07 16:16:31:207
5.071,-8.2849,1.3407,0.1147,-0.0124,-0.2705,-0.0655,-0.283,-0.0253,3418,2019-08-07 16:16:31:212
5.071,-8.2849,1.3407,0.1147,-0.0124,-0.2705,-0.0655,-0.283,-0.0253,3423,2019-08-07 16:16:31:217
4.6834,-8.1369,1.1144,0.4261,-0.1637,-0.0057,-0.0655,-0.283,-0.0253,3427,2019-08-07 16:16:31:221
4.6834,-8.1369,1.1144,0.4261,-0.1637,-0.0057,-0.1017,-0.3394,-0.0349,3433,2019-08-07 16:16:31:227
5.3204,-8.4281,1.4304,0.4261,-0.1637,-0.0057,-0.1017,-0.3394,-0.0349,3437,2019-08-07 16:16:31:231
5.3204,-8.4281,1.4304,0.4261,-0.1637,-0.0057,-0.0091,-0.3032,-0.0328,3443,2019-08-07 16:16:31:237
5.3204,-8.4281,1.4304,-0.5088,0.1921,0.0411,-0.0091,-0.3032,-0.0328,3448,2019-08-07 16:16:31:242
5.8515,-8.5284,0.8223,-0.5088,0.1921,0.0411,0.0772,-0.2244,-0.0157,3453,2019-08-07 16:16:31:247
5.8515,-8.5284,0.8223,-0.5088,0.1921,0.0411,0.0772,-0.2244,-0.0157,3458,2019-08-07 16:16:31:252
5.9806,-8.2181,0.7516,-0.5088,0.1921,0.0411,0.1028,-0.088,-0.0104,3463,2019-08-07 16:16:31:257
5.9806,-8.2181,0.7516,-0.9097,-0.1555,0.3125,0.1028,-0.088,-0.0104,3468,2019-08-07 16:16:31:262
5.9806,-8.2181,0.7516,-0.9097,-0.1555,0.3125,0.1156,0.1101,0.013,3473,2019-08-07 16:16:31:267
6.0715,-8.0797,0.9401,-0.9097,-0.1555,0.3125,0.1156,0.1101,0.013,3477,2019-08-07 16:16:31:271
6.0715,-8.0797,0.9401,-0.9097,-0.1555,0.3125,0.1635,0.3583,0.0237,3483,2019-08-07 16:16:31:277
6.0333,-7.9651,1.0533,-0.9954,-0.2651,-0.0378,0.1635,0.3583,0.0237,3487,2019-08-07 16:16:31:281
6.0333,-7.9651,1.0533,-0.9954,-0.2651,-0.0378,0.107,0.3487,0.0269,3493,2019-08-07 16:16:31:287
6.0333,-7.9651,1.0533,-0.9954,-0.2651,-0.0378,0.107,0.3487,0.0269,3498,2019-08-07 16:16:31:292
5.1195,-7.8076,1.289,-0.9954,-0.2651,-0.0378,0.0048,0.2901,0.0503,3503,2019-08-07 16:16:31:297
5.1195,-7.8076,1.289,0.1093,-0.4171,-0.4909,0.0048,0.2901,0.0503,3508,2019-08-07 16:16:31:302
5.0477,-7.9651,1.8876,0.1093,-0.4171,-0.4909,-0.0101,0.2273,0.061,3514,2019-08-07 16:16:31:308
5.0477,-7.9651,1.8876,0.1093,-0.4171,-0.4909,-0.0101,0.2273,0.061,3518,2019-08-07 16:16:31:312
5.0477,-7.9651,1.8876,0.1093,-0.4171,-0.4909,-0.0101,0.2273,0.061,3523,2019-08-07 16:16:31:317