ACCELEROMETER X (m/s²),ACCELEROMETER Y (m/s²),ACCELEROMETER Z (m/s²),LINEAR ACCELERATION X (m/s²),LINEAR ACCELERATION Y (m/s²),LINEAR ACCELERATION Z (m/s²),GYROSCOPE X (rad/s),GYROSCOPE Y (rad/s),GYROSCOPE Z (rad/s),Time since start in ms ,YYYY-MO-DD HH-MI-SS_SSS
4.1798,-8.8218,1.5246,-0.2206,-0.0103,0.074,-5.0E-4,0.0204,0.0089,1,2019-08-07 16:14:32:656
4.1319,-8.8504,1.6047,-0.2206,-0.0103,0.074,0.0091,0.0258,0.0131,7,2019-08-07 16:14:32:662
4.1319,-8.8504,1.6047,-0.1405,0.0085,0.0522,0.0091,0.0258,0.0131,11,2019-08-07 16:14:32:666
4.0936,-8.7645,1.5245,-0.1405,0.0085,0.0522,0.0091,0.0258,0.0131,17,2019-08-07 16:14:32:672
4.0936,-8.7645,1.5245,-0.1405,0.0085,0.0522,0.0059,0.0332,0.0142,21,2019-08-07 16:14:32:676
4.0936,-8.7645,1.5245,-0.1405,0.0085,0.0522,0.0059,0.0332,0.0142,27,2019-08-07 16:14:32:682
4.0123,-8.7979,1.6094,-0.0856,-0.1019,0.0645,-5.0E-4,0.0194,0.0153,32,2019-08-07 16:14:32:687
4.0123,-8.7979,1.6094,-0.0856,-0.1019,0.0645,-5.0E-4,0.0194,0.0153,37,2019-08-07 16:14:32:692
4.0123,-8.7692,1.5905,-0.0856,-0.1019,0.0645,-0.0079,0.0087,0.0131,42,2019-08-07 16:14:32:697
4.0123,-8.7692,1.5905,-0.0856,-0.1019,0.0645,-0.0079,0.0087,0.0131,47,2019-08-07 16:14:32:702
4.0123,-8.7692,1.5905,-0.0872,-0.0121,0.0353,-0.01,0.0034,0.0046,51,2019-08-07 16:14:32:706
4.0075,-8.7979,1.6141,-0.0872,-0.0121,0.0353,-0.01,0.0034,0.0046,57,2019-08-07 16:14:32:712
4.0075,-8.7979,1.6141,-0.0872,-0.0121,0.0353,-0.0036,0.0044,-0.005,61,2019-08-07 16:14:32:716
4.0218,-8.7406,1.5575,-0.0872,-0.0121,0.0353,-0.0036,0.0044,-0.005,67,2019-08-07 16:14:32:722
4.0218,-8.7406,1.5575,-0.0664,-0.1116,-0.0215,0.0059,0.0055,-0.0114,72,2019-08-07 16:14:32:727
4.0218,-8.7406,1.5575,-0.0664,-0.1116,-0.0215,0.0059,0.0055,-0.0114,78,2019-08-07 16:14:32:733
4.0409,-8.6642,1.6047,-0.0664,-0.1116,-0.0215,0.0123,0.0013,-0.0071,81,2019-08-07 16:14:32:736
4.0409,-8.6642,1.6047,-0.0664,-0.1116,-0.0215,0.0123,0.0013,-0.0071,87,2019-08-07 16:14:32:742
4.1558,-8.6785,1.5622,-0.1975,-0.1529,0.0423,0.0166,-0.0041,-0.006,91,2019-08-07 16:14:32:746
4.1558,-8.6785,1.5622,-0.1975,-0.1529,0.0423,0.0166,-0.0041,-0.006,97,2019-08-07 16:14:32:752
4.1558,-8.6785,1.5622,-0.1975,-0.1529,0.0423,0.0081,0.0023,-0.0018,102,2019-08-07 16:14:32:757
4.151,-8.731,1.5622,-0.1975,-0.1529,0.0423,0.0081,0.0023,-0.0018,107,2019-08-07 16:14:32:762
4.151,-8.731,1.5622,-0.2,-0.1134,0.0394,0.0059,0.0076,-7.0E-4,112,2019-08-07 16:14:32:767
4.1414,-8.7836,1.5811,-0.2,-0.1134,0.0394,0.0059,0.0076,-7.0E-4,117,2019-08-07 16:14:32:772
4.1414,-8.7836,1.5811,-0.2,-0.1134,0.0394,6.0E-4,0.0119,0.0078,121,2019-08-07 16:14:32:776
4.1414,-8.7836,1.5811,-0.2,-0.1134,0.0394,6.0E-4,0.0119,0.0078,127,2019-08-07 16:14:32:782
4.084,-8.8408,1.6424,-0.1333,-0.013,-0.0016,0.0017,0.0215,0.0067,132,2019-08-07 16:14:32:787
4.084,-8.8408,1.6424,-0.1333,-0.013,-0.0016,0.0017,0.0215,0.0067,137,2019-08-07 16:14:32:792
4.0026,-8.8217,1.6047,-0.1333,-0.013,-0.0016,0.0017,0.0215,0.0067,142,2019-08-07 16:14:32:797
4.0026,-8.8217,1.6047,-0.1333,-0.013,-0.0016,-0.0026,0.0204,0.0046,147,2019-08-07 16:14:32:802
4.0026,-8.8217,1.6047,0.0087,0.0248,-0.0236,-0.0026,0.0204,0.0046,152,2019-08-07 16:14:32:807
4.0026,-8.8361,1.6707,0.0087,0.0248,-0.0236,-0.0026,0.0087,-7.0E-4,157,2019-08-07 16:14:32:812
4.0026,-8.8361,1.6707,0.0087,0.0248,-0.0236,-0.0026,0.0087,-7.0E-4,162,2019-08-07 16:14:32:817
4.0026,-8.8361,1.6707,0.0087,0.0248,-0.0236,-0.0026,0.0087,-7.0E-4,166,2019-08-07 16:14:32:821
3.9691,-8.774,1.5952,-0.0433,-0.0416,-0.0607,-0.0015,-0.0041,-0.0103,171,2019-08-07 16:14:32:826
3.9691,-8.774,1.5952,-0.0433,-0.0416,-0.0607,6.0E-4,-0.0147,-0.0082,177,2019-08-07 16:14:32:832
4.0074,-8.7072,1.6754,-0.0433,-0.0416,-0.0607,6.0E-4,-0.0147,-0.0082,181,2019-08-07 16:14:32:836
4.0074,-8.7072,1.6754,-0.0433,-0.0416,-0.0607,6.0E-4,-0.0147,-0.0082,187,2019-08-07 16:14:32:842
4.0074,-8.7072,1.6754,-0.0433,-0.0416,-0.0607,6.0E-4,-0.0243,-0.0103,192,2019-08-07 16:14:32:847
4.103,-8.7215,1.6754,-0.1409,-0.1074,-0.0666,6.0E-4,-0.0243,-0.0103,197,2019-08-07 16:14:32:852
4.103,-8.7215,1.6754,-0.1409,-0.1074,-0.0666,-0.0068,-0.0243,-0.0103,201,2019-08-07 16:14:32:856
4.1748,-8.7263,1.5339,-0.1409,-0.1074,-0.0666,-0.0068,-0.0243,-0.0103,207,2019-08-07 16:14:32:862
4.1748,-8.7263,1.5339,-0.1409,-0.1074,-0.0666,-0.0154,-0.0147,4.0E-4,211,2019-08-07 16:14:32:866
4.1748,-8.7263,1.5339,-0.2857,-0.0827,0.0425,-0.0154,-0.0147,4.0E-4,217,2019-08-07 16:14:32:872
4.2753,-8.8026,1.5151,-0.2857,-0.0827,0.0425,-0.0122,0.0055,0.0057,221,2019-08-07 16:14:32:876
4.2753,-8.8026,1.5151,-0.2857,-0.0827,0.0425,-0.0122,0.0055,0.0057,227,2019-08-07 16:14:32:882
4.2753,-8.8026,1.5151,-0.2857,-0.0827,0.0425,-0.0068,0.0236,0.0099,232,2019-08-07 16:14:32:887
4.1604,-8.8408,1.5811,-0.1941,0.0127,0.0214,-0.0068,0.0236,0.0099,237,2019-08-07 16:14:32:892
4.1604,-8.8408,1.5811,-0.1941,0.0127,0.0214,-0.0068,0.0236,0.0099,242,2019-08-07 16:14:32:897
4.0743,-8.8122,1.5528,-0.1941,0.0127,0.0214,-0.0058,0.0343,0.0185,247,2019-08-07 16:14:32:902
4.0743,-8.8122,1.5528,-0.1941,0.0127,0.0214,-0.0058,0.0343,0.0185,252,2019-08-07 16:14:32:907
4.0743,-8.8122,1.5528,-0.0393,-0.0171,0.0227,-0.0068,0.0236,0.0153,256,2019-08-07 16:14:32:911
3.9451,-8.7788,1.5716,-0.0393,-0.0171,0.0227,-0.0068,0.0236,0.0153,262,2019-08-07 16:14:32:917
3.9451,-8.7788,1.5716,-0.0393,-0.0171,0.0227,-0.0058,0.0055,0.0078,267,2019-08-07 16:14:32:922
3.9116,-8.774,1.5905,-0.0393,-0.0171,0.0227,-0.0058,0.0055,0.0078,272,2019-08-07 16:14:32:927
3.9116,-8.774,1.5905,-0.0275,0.0151,0.0035,-0.0058,0.0055,0.0078,277,2019-08-07 16:14:32:932
3.9116,-8.774,1.5905,-0.0275,0.0151,0.0035,-5.0E-4,-0.0137,0.0025,282,2019-08-07 16:14:32:937
3.9834,-8.8074,1.5952,-0.0275,0.0151,0.0035,-5.0E-4,-0.0137,0.0025,287,2019-08-07 16:14:32:942
3.9834,-8.8074,1.5952,-0.0275,0.0151,0.0035,0.0177,-0.0179,-0.0092,291,2019-08-07 16:14:32:946
4.0169,-8.7501,1.5528,-0.0693,-0.075,0.0086,0.0177,-0.0179,-0.0092,297,2019-08-07 16:14:32:952
4.0169,-8.7501,1.5528,-0.0693,-0.075,0.0086,0.0187,-0.0147,-0.0188,302,2019-08-07 16:14:32:957
4.0169,-8.7501,1.5528,-0.0693,-0.075,0.0086,0.0187,-0.0147,-0.0188,307,2019-08-07 16:14:32:962
4.0695,-8.7263,1.6659,-0.0693,-0.075,0.0086,0.0209,-0.0062,-0.0316,312,2019-08-07 16:14:32:967
4.0695,-8.7263,1.6659,-0.0973,-0.158,-0.0078,0.0209,-0.0062,-0.0316,318,2019-08-07 16:14:32:973
4.1412,-8.7501,1.5009,-0.0973,-0.158,-0.0078,0.007,-0.0222,-0.022,321,2019-08-07 16:14:32:976
4.1412,-8.7501,1.5009,-0.0973,-0.158,-0.0078,0.007,-0.0222,-0.022,327,2019-08-07 16:14:32:982
4.1412,-8.7501,1.5009,-0.0973,-0.158,-0.0078,-5.0E-4,-0.0126,-0.021,332,2019-08-07 16:14:32:987
4.2178,-8.7406,1.5952,-0.2444,-0.0839,0.0101,-5.0E-4,-0.0126,-0.021,337,2019-08-07 16:14:32:992
4.2178,-8.7406,1.5952,-0.2444,-0.0839,0.0101,-5.0E-4,-0.0126,-0.021,341,2019-08-07 16:14:32:996
4.1316,-8.7597,1.5386,-0.2444,-0.0839,0.0101,0.0155,-0.0073,-0.0092,347,2019-08-07 16:14:33:002
4.1316,-8.7597,1.5386,-0.2444,-0.0839,0.0101,0.0155,-0.0073,-0.0092,351,2019-08-07 16:14:33:006
4.1316,-8.7597,1.5386,-0.1741,-0.0535,0.0259,0.007,-0.0126,0.0099,357,2019-08-07 16:14:33:012
4.2082,-8.7549,1.5433,-0.1741,-0.0535,0.0259,0.007,-0.0126,0.0099,362,2019-08-07 16:14:33:017
4.2082,-8.7549,1.5433,-0.1741,-0.0535,0.0259,-0.0068,-0.0222,0.0121,367,2019-08-07 16:14:33:022
4.1125,-8.7406,1.6329,-0.1741,-0.0535,0.0259,-0.0068,-0.0222,0.0121,372,2019-08-07 16:14:33:027
4.1125,-8.7406,1.6329,-0.1452,-0.0967,-0.0277,-0.0068,-0.0222,0.0121,378,2019-08-07 16:14:33:033
4.1125,-8.7406,1.6329,-0.1452,-0.0967,-0.0277,-0.0132,2.0E-4,0.0185,381,2019-08-07 16:14:33:036
4.0694,-8.7453,1.5952,-0.1452,-0.0967,-0.0277,-0.0132,2.0E-4,0.0185,387,2019-08-07 16:14:33:042
4.0694,-8.7453,1.5952,-0.1452,-0.0967,-0.0277,-0.0164,0.0055,0.011,391,2019-08-07 16:14:33:046
4.0694,-8.7453,1.5952,-0.1135,-0.0454,-0.0018,-0.0164,0.0055,0.011,397,2019-08-07 16:14:33:052
4.0981,-8.7549,1.5999,-0.1135,-0.0454,-0.0018,-0.01,0.0172,0.0046,402,2019-08-07 16:14:33:057
4.0981,-8.7549,1.5999,-0.1135,-0.0454,-0.0018,-0.01,0.0172,0.0046,407,2019-08-07 16:14:33:062
4.0455,-8.7167,1.6046,-0.1135,-0.0454,-0.0018,-0.0015,0.0268,-0.0039,412,2019-08-07 16:14:33:067
4.0455,-8.7167,1.6046,-0.0325,-0.0693,-0.0197,-0.0015,0.0268,-0.0039,417,2019-08-07 16:14:33:072
4.0455,-8.7167,1.6046,-0.0325,-0.0693,-0.0197,-5.0E-4,0.0215,-7.0E-4,422,2019-08-07 16:14:33:077
4.0598,-8.7501,1.6518,-0.0325,-0.0693,-0.0197,-5.0E-4,0.0215,-7.0E-4,426,2019-08-07 16:14:33:081
4.0598,-8.7501,1.6518,-0.0325,-0.0693,-0.0197,0.0059,0.0087,-0.0071,432,2019-08-07 16:14:33:087
4.0311,-8.7931,1.6659,-0.0555,-0.0303,-0.0599,0.0059,0.0087,-0.0071,437,2019-08-07 16:14:33:092
4.0311,-8.7931,1.6659,-0.0555,-0.0303,-0.0599,0.0059,-0.0073,-0.0092,442,2019-08-07 16:14:33:097
4.0311,-8.7931,1.6659,-0.0555,-0.0303,-0.0599,0.0059,-0.0073,-0.0092,447,2019-08-07 16:14:33:102
4.0837,-8.7788,1.5622,-0.0555,-0.0303,-0.0599,0.0027,-0.0105,-0.0039,451,2019-08-07 16:14:33:106
4.0837,-8.7788,1.5622,-0.1347,-0.0436,-0.008,0.0027,-0.0105,-0.0039,457,2019-08-07 16:14:33:112
4.0981,-8.8026,1.5669,-0.1347,-0.0436,-0.008,0.0038,-0.0169,-0.0028,462,2019-08-07 16:14:33:117
4.0981,-8.8026,1.5669,-0.1347,-0.0436,-0.008,0.0038,-0.0169,-0.0028,467,2019-08-07 16:14:33:122
4.0981,-8.8026,1.5669,-0.1347,-0.0436,-0.008,-5.0E-4,-0.0105,-0.0028,471,2019-08-07 16:14:33:126
4.1028,-8.7788,1.5905,-0.1184,-0.0859,0.0523,-5.0E-4,-0.0105,-0.0028,477,2019-08-07 16:14:33:132
4.1028,-8.7788,1.5905,-0.1184,-0.0859,0.0523,-5.0E-4,-0.0019,-7.0E-4,481,2019-08-07 16:14:33:136
4.0741,-8.7978,1.5245,-0.1184,-0.0859,0.0523,-5.0E-4,-0.0019,-7.0E-4,487,2019-08-07 16:14:33:142
4.0741,-8.7978,1.5245,-0.1184,-0.0859,0.0523,0.0027,0.0183,-0.006,492,2019-08-07 16:14:33:147
4.0741,-8.7978,1.5245,-0.0932,-0.0567,0.0335,0.0027,0.0183,-0.006,497,2019-08-07 16:14:33:152
4.031,-8.7501,1.5433,-0.0932,-0.0567,0.0335,0.0049,0.0215,-0.0103,502,2019-08-07 16:14:33:157
4.031,-8.7501,1.5433,-0.0932,-0.0567,0.0335,0.0049,0.0215,-0.0103,507,2019-08-07 16:14:33:162
4.031,-8.7501,1.5433,-0.0932,-0.0567,0.0335,0.0049,0.0215,-0.0103,511,2019-08-07 16:14:33:166
4.0358,-8.7501,1.614,-0.0673,-0.06,0.0461,0.0145,0.0194,-0.0156,517,2019-08-07 16:14:33:172
4.0358,-8.7501,1.614,-0.0673,-0.06,0.0461,0.0145,0.0194,-0.0156,522,2019-08-07 16:14:33:177
4.0358,-8.7501,1.614,-0.0673,-0.06,0.0461,0.0113,0.0098,-0.0199,526,2019-08-07 16:14:33:181
4.031,-8.731,1.6847,-0.0673,-0.06,0.0461,0.0113,0.0098,-0.0199,532,2019-08-07 16:14:33:187
4.031,-8.731,1.6847,-0.0588,-0.0722,0.0348,0.0049,-0.003,-0.0178,537,2019-08-07 16:14:33:192
4.0501,-8.7549,1.5952,-0.0588,-0.0722,0.0348,0.0049,-0.003,-0.0178,542,2019-08-07 16:14:33:197
4.0501,-8.7549,1.5952,-0.0588,-0.0722,0.0348,0.0017,-0.0126,-0.022,547,2019-08-07 16:14:33:202
4.0788,-8.774,1.5905,-0.0588,-0.0722,0.0348,0.0017,-0.0126,-0.022,552,2019-08-07 16:14:33:207
4.0788,-8.774,1.5905,-0.0586,-0.0796,0.0387,0.0027,-0.0115,-0.0231,557,2019-08-07 16:14:33:212
4.0788,-8.774,1.5905,-0.0586,-0.0796,0.0387,0.0027,-0.0115,-0.0231,562,2019-08-07 16:14:33:217
4.0214,-8.7549,1.614,-0.0586,-0.0796,0.0387,0.0027,-0.0115,-0.0231,566,2019-08-07 16:14:33:221
4.0214,-8.7549,1.614,-0.0586,-0.0796,0.0387,0.0081,0.0013,-0.0199,572,2019-08-07 16:14:33:227
4.0214,-8.7549,1.614,-0.0586,-0.0796,0.0387,0.0081,0.0013,-0.0199,576,2019-08-07 16:14:33:231
3.9927,-8.8026,1.548,0.0029,-0.0107,0.0633,0.007,0.0013,-0.0199,582,2019-08-07 16:14:33:237
3.9927,-8.8026,1.548,0.0029,-0.0107,0.0633,0.007,0.0013,-0.0199,586,2019-08-07 16:14:33:241
3.9449,-8.8313,1.6376,0.0029,-0.0107,0.0633,0.0081,0.0172,-0.0231,592,2019-08-07 16:14:33:247
3.9449,-8.8313,1.6376,0.0029,-0.0107,0.0633,0.0081,0.0172,-0.0231,597,2019-08-07 16:14:33:252
3.9449,-8.8313,1.6376,0.0687,-0.0326,-0.0287,0.0134,0.0183,-0.0252,602,2019-08-07 16:14:33:257
3.9257,-8.7549,1.5952,0.0687,-0.0326,-0.0287,0.0134,0.0183,-0.0252,606,2019-08-07 16:14:33:261
3.9257,-8.7549,1.5952,0.0687,-0.0326,-0.0287,0.0241,0.0247,-0.0284,613,2019-08-07 16:14:33:268
3.9448,-8.6594,1.6046,0.0687,-0.0326,-0.0287,0.0241,0.0247,-0.0284,616,2019-08-07 16:14:33:271
3.9448,-8.6594,1.6046,0.0103,-0.1109,-0.0086,0.0326,0.0236,-0.0305,622,2019-08-07 16:14:33:277
3.9448,-8.6594,1.6046,0.0103,-0.1109,-0.0086,0.0326,0.0236,-0.0305,626,2019-08-07 16:14:33:281
4.007,-8.6355,1.5952,0.0103,-0.1109,-0.0086,0.0272,0.0364,-0.0348,632,2019-08-07 16:14:33:287
4.007,-8.6355,1.5952,0.0103,-0.1109,-0.0086,0.0272,0.0364,-0.0348,636,2019-08-07 16:14:33:291
4.0022,-8.6737,1.614,0.0015,-0.1451,-0.0384,0.0166,0.0353,-0.0444,642,2019-08-07 16:14:33:297
4.0022,-8.6737,1.614,0.0015,-0.1451,-0.0384,0.0166,0.0353,-0.0444,646,2019-08-07 16:14:33:301
4.0022,-8.6737,1.614,0.0015,-0.1451,-0.0384,-0.0047,0.0503,-0.0486,652,2019-08-07 16:14:33:307
4.0166,-8.8074,1.6423,0.0015,-0.1451,-0.0384,-0.0047,0.0503,-0.0486,657,2019-08-07 16:14:33:312
4.0166,-8.8074,1.6423,-0.0152,0.0929,-0.0198,-0.0218,0.0407,-0.0604,662,2019-08-07 16:14:33:317
3.9879,-8.9363,1.6753,-0.0152,0.0929,-0.0198,-0.0218,0.0407,-0.0604,668,2019-08-07 16:14:33:323
3.9879,-8.9363,1.6753,-0.0152,0.0929,-0.0198,-0.0164,0.0343,-0.0646,671,2019-08-07 16:14:33:326
3.9879,-8.9363,1.6753,-0.0152,0.0929,-0.0198,-0.0164,0.0343,-0.0646,676,2019-08-07 16:14:33:331
3.9352,-9.0317,1.6611,0.0896,0.2356,-0.0291,-0.0036,0.0364,-0.07,682,2019-08-07 16:14:33:337
3.9352,-9.0317,1.6611,0.0896,0.2356,-0.0291,-0.0036,0.0364,-0.07,687,2019-08-07 16:14:33:342
3.8826,-9.0031,1.6423,0.0896,0.2356,-0.0291,-0.0036,0.0364,-0.07,692,2019-08-07 16:14:33:347
3.8826,-9.0031,1.6423,0.0896,0.2356,-0.0291,0.0102,0.0449,-0.0859,697,2019-08-07 16:14:33:352
3.8826,-9.0031,1.6423,0.3062,0.16,0.0263,0.0102,0.0449,-0.0859,701,2019-08-07 16:14:33:356
3.6816,-8.9363,1.614,0.3062,0.16,0.0263,0.0241,0.0566,-0.0977,707,2019-08-07 16:14:33:362
3.6816,-8.9363,1.614,0.3062,0.16,0.0263,0.0241,0.0566,-0.0977,711,2019-08-07 16:14:33:366
3.5333,-8.9315,1.746,0.3062,0.16,0.0263,0.0454,0.0641,-0.1115,717,2019-08-07 16:14:33:372
3.5333,-8.9315,1.746,0.6013,0.1059,-0.0852,0.0454,0.0641,-0.1115,722,2019-08-07 16:14:33:377
3.5333,-8.9315,1.746,0.6013,0.1059,-0.0852,0.0454,0.0641,-0.1115,726,2019-08-07 16:14:33:381
3.1601,-8.8647,1.7271,0.6013,0.1059,-0.0852,0.0677,0.0758,-0.1381,733,2019-08-07 16:14:33:388
3.1601,-8.8647,1.7271,0.6013,0.1059,-0.0852,0.072,0.0843,-0.1626,737,2019-08-07 16:14:33:392
3.1601,-8.8647,1.7271,1.0625,0.1409,-0.1275,0.072,0.0843,-0.1626,741,2019-08-07 16:14:33:396
2.9831,-8.9219,1.8403,1.0625,0.1409,-0.1275,0.072,0.0843,-0.1626,747,2019-08-07 16:14:33:402
2.9831,-8.9219,1.8403,1.0625,0.1409,-0.1275,0.0762,0.0971,-0.1967,752,2019-08-07 16:14:33:407
2.7104,-9.2895,1.8874,1.0625,0.1409,-0.1275,0.0762,0.0971,-0.1967,757,2019-08-07 16:14:33:412
2.7104,-9.2895,1.8874,1.4487,0.6191,-0.2493,0.0944,0.128,-0.2372,762,2019-08-07 16:14:33:417
2.7104,-9.2895,1.8874,1.4487,0.6191,-0.2493,0.0944,0.128,-0.2372,767,2019-08-07 16:14:33:422
2.5956,-9.9149,2.1938,1.4487,0.6191,-0.2493,0.1274,0.1823,-0.2692,772,2019-08-07 16:14:33:427
2.5956,-9.9149,2.1938,1.4487,0.6191,-0.2493,0.1274,0.1823,-0.2692,776,2019-08-07 16:14:33:431
2.5956,-9.9149,2.1938,1.6106,1.9436,-0.9145,0.2126,0.2974,-0.3128,782,2019-08-07 16:14:33:437
2.4759,-10.8744,2.6604,1.6106,1.9436,-0.9145,0.2126,0.2974,-0.3128,787,2019-08-07 16:14:33:442
2.4759,-10.8744,2.6604,1.6106,1.9436,-0.9145,0.2126,0.2974,-0.3128,792,2019-08-07 16:14:33:447
2.1362,-11.9056,2.4248,1.6106,1.9436,-0.9145,0.3564,0.65,-0.3597,797,2019-08-07 16:14:33:452
2.1362,-11.9056,2.4248,2.1418,3.6041,-0.7822,0.3564,0.65,-0.3597,802,2019-08-07 16:14:33:457
2.1362,-11.9056,2.4248,2.1418,3.6041,-0.7822,0.5077,1.156,-0.4215,807,2019-08-07 16:14:33:462
1.8683,-13.1945,2.0476,2.1418,3.6041,-0.7822,0.5077,1.156,-0.4215,812,2019-08-07 16:14:33:467
1.8683,-13.1945,2.0476,2.1418,3.6041,-0.7822,0.6728,1.9134,-0.5685,817,2019-08-07 16:14:33:472
1.7918,-15.0277,0.8079,2.3524,6.3817,1.2679,0.6728,1.9134,-0.5685,822,2019-08-07 16:14:33:477
1.7918,-15.0277,0.8079,2.3524,6.3817,1.2679,0.8102,3.0213,-0.838,826,2019-08-07 16:14:33:481
1.7918,-15.0277,0.8079,2.3524,6.3817,1.2679,0.8102,3.0213,-0.838,832,2019-08-07 16:14:33:487
0.1842,-16.794,0.7608,2.3524,6.3817,1.2679,1.035,4.4168,-1.1246,837,2019-08-07 16:14:33:492
0.1842,-16.794,0.7608,5.6133,8.9236,2.421,1.035,4.4168,-1.1246,842,2019-08-07 16:14:33:497
0.1842,-16.794,0.7608,5.6133,8.9236,2.421,1.296,5.7984,-1.2279,846,2019-08-07 16:14:33:501
-2.5847,-18.083,-0.8323,5.6133,8.9236,2.421,1.296,5.7984,-1.2279,852,2019-08-07 16:14:33:507
-2.5847,-18.083,-0.8323,5.6133,8.9236,2.421,1.4281,6.9127,-1.1469,856,2019-08-07 16:14:33:511
-5.1969,-19.5056,-1.7043,9.6998,11.2989,4.9663,1.4281,6.9127,-1.1469,862,2019-08-07 16:14:33:517
-5.1969,-19.5056,-1.7043,9.6998,11.2989,4.9663,1.5655,7.4943,-0.9882,867,2019-08-07 16:14:33:522
-5.1969,-19.5056,-1.7043,9.6998,11.2989,4.9663,1.5655,7.4943,-0.9882,871,2019-08-07 16:14:33:526
-8.2157,-21.2242,-1.3555,9.6998,11.2989,4.9663,2.0725,7.8885,-0.7602,877,2019-08-07 16:14:33:532
-8.2157,-21.2242,-1.3555,12.5312,14.5258,6.6106,2.0725,7.8885,-0.7602,882,2019-08-07 16:14:33:537
-9.4214,-23.9309,-3.5474,12.5312,14.5258,6.6106,2.4156,8.0269,-0.6548,887,2019-08-07 16:14:33:542
-9.4214,-23.9309,-3.5474,12.5312,14.5258,6.6106,2.4156,8.0269,-0.6548,891,2019-08-07 16:14:33:546
-9.4214,-23.9309,-3.5474,12.5312,14.5258,6.6106,2.6872,8.1814,-0.7773,897,2019-08-07 16:14:33:552
-9.9524,-27.2249,-4.9663,12.929,20.1408,10.5684,2.6872,8.1814,-0.7773,902,2019-08-07 16:14:33:557
-9.9524,-27.2249,-4.9663,12.929,20.1408,10.5684,2.8406,8.1878,-1.0724,907,2019-08-07 16:14:33:562
-9.9524,-27.2249,-4.9663,12.929,20.1408,10.5684,2.8406,8.1878,-1.0724,912,2019-08-07 16:14:33:567
-11.5982,-31.7791,-7.3986,13.9543,23.9696,12.8481,2.8406,8.1878,-1.0724,917,2019-08-07 16:14:33:572
-11.5982,-31.7791,-7.3986,13.9543,23.9696,12.8481,2.7884,7.9737,-1.4314,922,2019-08-07 16:14:33:577
-12.3397,-32.7148,-4.6363,13.9543,23.9696,12.8481,2.7884,7.9737,-1.4314,927,2019-08-07 16:14:33:582
-12.3397,-32.7148,-4.6363,13.9543,23.9696,12.8481,2.8534,7.2344,-1.7904,932,2019-08-07 16:14:33:587
-9.1247,-27.8121,2.1375,12.3905,22.5896,6.4464,2.8534,7.2344,-1.7904,937,2019-08-07 16:14:33:592
-9.1247,-27.8121,2.1375,12.3905,22.5896,6.4464,3.6587,5.0304,-2.3358,942,2019-08-07 16:14:33:597
-9.1247,-27.8121,2.1375,12.3905,22.5896,6.4464,3.6587,5.0304,-2.3358,947,2019-08-07 16:14:33:602
-5.3356,-23.6111,5.2344,12.3905,22.5896,6.4464,4.7762,3.0074,-2.7949,952,2019-08-07 16:14:33:607
-5.3356,-23.6111,5.2344,6.051,15.9666,2.3034,4.7762,3.0074,-2.7949,956,2019-08-07 16:14:33:611
-5.3356,-23.6111,5.2344,6.051,15.9666,2.3034,6.0002,2.6484,-3.27,962,2019-08-07 16:14:33:617
-1.6996,-19.6106,-2.5339,6.051,15.9666,2.3034,6.0002,2.6484,-3.27,967,2019-08-07 16:14:33:622
-1.6996,-19.6106,-2.5339,6.051,15.9666,2.3034,6.7799,4.2186,-3.7909,971,2019-08-07 16:14:33:626
0.8887,-13.0514,-4.3346,0.789,8.7509,12.4138,6.7799,4.2186,-3.7909,977,2019-08-07 16:14:33:632
0.8887,-13.0514,-4.3346,0.789,8.7509,12.4138,7.2657,4.73,-4.1872,983,2019-08-07 16:14:33:638
0.8887,-13.0514,-4.3346,0.789,8.7509,12.4138,7.2657,4.73,-4.1872,987,2019-08-07 16:14:33:642
-0.7331,-3.6899,1.8923,0.789,8.7509,12.4138,7.2657,4.73,-4.1872,992,2019-08-07 16:14:33:647
-0.7331,-3.6899,1.8923,4.0667,-5.4345,6.8928,8.7336,4.355,-4.2042,997,2019-08-07 16:14:33:652
-8.0961,11.7963,9.9011,4.0667,-5.4345,6.8928,8.7336,4.355,-4.2042,1002,2019-08-07 16:14:33:657
-8.0961,11.7963,9.9011,4.0667,-5.4345,6.8928,10.0333,2.7603,-3.025,1007,2019-08-07 16:14:33:662
-8.0961,11.7963,9.9011,4.0667,-5.4345,6.8928,10.0333,2.7603,-3.025,1011,2019-08-07 16:14:33:666
-13.3635,74.8967,-8.7184,14.1823,-77.6998,18.0837,7.973,-4.2896,-0.8572,1017,2019-08-07 16:14:33:672
-13.3635,74.8967,-8.7184,14.1823,-77.6998,18.0837,7.973,-4.2896,-0.8572,1021,2019-08-07 16:14:33:676
5.6347,72.104,-1.9541,14.1823,-77.6998,18.0837,8.1467,-3.0209,-1.7424,1027,2019-08-07 16:14:33:682
5.6347,72.104,-1.9541,14.1823,-77.6998,18.0837,8.1467,-3.0209,-1.7424,1032,2019-08-07 16:14:33:687
5.6347,72.104,-1.9541,-12.6301,-55.5116,11.779,6.1525,-3.6324,-3.1198,1037,2019-08-07 16:14:33:692
20.0018,43.9862,4.7819,-12.6301,-55.5116,11.779,6.1525,-3.6324,-3.1198,1041,2019-08-07 16:14:33:696
20.0018,43.9862,4.7819,-12.6301,-55.5116,11.779,4.0028,-3.3863,-3.5235,1047,2019-08-07 16:14:33:702
15.4137,29.8605,-11.641,-12.6301,-55.5116,11.779,4.0028,-3.3863,-3.5235,1052,2019-08-07 16:14:33:707
15.4137,29.8605,-11.641,-9.943,-29.1778,23.0652,1.4121,-1.2973,-2.552,1057,2019-08-07 16:14:33:712
15.4137,29.8605,-11.641,-9.943,-29.1778,23.0652,1.4121,-1.2973,-2.552,1062,2019-08-07 16:14:33:717
-0.1494,29.1301,-15.5393,-9.943,-29.1778,23.0652,1.4121,-1.2973,-2.552,1067,2019-08-07 16:14:33:722
-0.1494,29.1301,-15.5393,-9.943,-29.1778,23.0652,-2.4889,-0.2533,0.174,1072,2019-08-07 16:14:33:727
-0.1494,29.1301,-15.5393,3.8847,-28.323,5.5773,-2.4889,-0.2533,0.174,1077,2019-08-07 16:14:33:732
-0.9723,28.2755,10.726,3.8847,-28.323,5.5773,-4.7686,0.7555,2.4302,1082,2019-08-07 16:14:33:737
-0.9723,28.2755,10.726,3.8847,-28.323,5.5773,-4.7686,0.7555,2.4302,1087,2019-08-07 16:14:33:742
1.8121,26.6095,13.889,3.8847,-28.323,5.5773,-5.4013,-2.5714,4.0057,1092,2019-08-07 16:14:33:747
1.8121,26.6095,13.889,-2.4649,-24.7232,-7.4308,-5.4013,-2.5714,4.0057,1097,2019-08-07 16:14:33:752
1.8121,26.6095,13.889,-2.4649,-24.7232,-7.4308,-3.8599,-2.3434,4.4904,1102,2019-08-07 16:14:33:757
6.3619,24.5949,16.4816,-2.4649,-24.7232,-7.4308,-3.8599,-2.3434,4.4904,1107,2019-08-07 16:14:33:762
6.3619,24.5949,16.4816,-2.4649,-24.7232,-7.4308,-3.0077,-4.1128,4.5139,1112,2019-08-07 16:14:33:767
4.8166,23.0291,2.029,-1.7217,-25.1016,7.0463,-3.0077,-4.1128,4.5139,1118,2019-08-07 16:14:33:773
4.8166,23.0291,2.029,-1.7217,-25.1016,7.0463,-3.6671,-4.7743,4.7706,1121,2019-08-07 16:14:33:776
4.8166,23.0291,2.029,-1.7217,-25.1016,7.0463,-3.6671,-4.7743,4.7706,1127,2019-08-07 16:14:33:782
5.3907,18.8425,-2.4491,-1.9565,-21.3874,11.2789,-4.7302,-5.1397,4.957,1131,2019-08-07 16:14:33:786
5.3907,18.8425,-2.4491,-1.9565,-21.3874,11.2789,-4.7302,-5.1397,4.957,1138,2019-08-07 16:14:33:793
7.0222,10.7986,1.6614,-1.9565,-21.3874,11.2789,-6.4432,-5.6244,5.0795,1141,2019-08-07 16:14:33:796
7.0222,10.7986,1.6614,-3.8367,-11.3757,2.2587,-6.4432,-5.6244,5.0795,1147,2019-08-07 16:14:33:802
7.0222,10.7986,1.6614,-3.8367,-11.3757,2.2587,-6.7872,-6.6013,4.7344,1152,2019-08-07 16:14:33:807
8.4909,3.6761,16.5052,-3.8367,-11.3757,2.2587,-6.7872,-6.6013,4.7344,1156,2019-08-07 16:14:33:811
8.4909,3.6761,16.5052,-3.8367,-11.3757,2.2587,-5.0903,-7.6591,4.0356,1162,2019-08-07 16:14:33:817
6.5342,-0.2719,10.3159,-1.2395,-4.635,-1.124,-5.0903,-7.6591,4.0356,1167,2019-08-07 16:14:33:822
6.5342,-0.2719,10.3159,-1.2395,-4.635,-1.124,-5.0903,-7.6591,4.0356,1171,2019-08-07 16:14:33:826
6.5342,-0.2719,10.3159,-1.2395,-4.635,-1.124,-4.1177,-8.4047,3.3165,1177,2019-08-07 16:14:33:832
2.171,-3.6756,0.4782,-1.2395,-4.635,-1.124,-4.1177,-8.4047,3.3165,1182,2019-08-07 16:14:33:837
2.171,-3.6756,0.4782,4.0606,-0.1939,7.0114,-4.4959,-9.1227,3.3123,1186,2019-08-07 16:14:33:841
2.171,-8.0771,-1.6619,4.0606,-0.1939,7.0114,-4.4959,-9.1227,3.3123,1192,2019-08-07 16:14:33:847
2.171,-8.0771,-1.6619,4.0606,-0.1939,7.0114,-4.8666,-9.1078,3.4987,1197,2019-08-07 16:14:33:852
2.171,-8.0771,-1.6619,1.965,5.0763,6.3566,-4.8666,-9.1078,3.4987,1202,2019-08-07 16:14:33:857
2.5393,-18.7943,-2.1898,1.965,5.0763,6.3566,-4.7973,-8.3163,3.5775,1207,2019-08-07 16:14:33:862
2.5393,-18.7943,-2.1898,1.965,5.0763,6.3566,-4.7973,-8.3163,3.5775,1212,2019-08-07 16:14:33:867
4.52,-26.991,-3.6322,1.2538,19.6446,6.6204,-4.1294,-6.9581,4.1219,1217,2019-08-07 16:14:33:872
4.52,-26.991,-3.6322,1.2538,19.6446,6.6204,-4.1294,-6.9581,4.1219,1221,2019-08-07 16:14:33:876
4.52,-26.991,-3.6322,1.2538,19.6446,6.6204,-2.9448,-6.0473,4.2231,1227,2019-08-07 16:14:33:882
4.6205,-23.6541,2.359,1.2538,19.6446,6.6204,-2.9448,-6.0473,4.2231,1232,2019-08-07 16:14:33:887
4.6205,-23.6541,2.359,1.2538,19.6446,6.6204,-2.9448,-6.0473,4.2231,1237,2019-08-07 16:14:33:892
4.6205,-23.6541,2.359,0.155,11.6852,-3.4591,-0.7994,-4.9107,3.7852,1242,2019-08-07 16:14:33:897
5.4769,-18.5127,5.6681,0.155,11.6852,-3.4591,-0.7994,-4.9107,3.7852,1247,2019-08-07 16:14:33:902
5.4769,-18.5127,5.6681,0.3086,9.6649,-3.4153,1.329,-3.6686,2.9895,1253,2019-08-07 16:14:33:908
3.6063,-17.6772,-3.0289,0.3086,9.6649,-3.4153,1.329,-3.6686,2.9895,1257,2019-08-07 16:14:33:912
3.6063,-17.6772,-3.0289,0.3086,9.6649,-3.4153,1.329,-3.6686,2.9895,1261,2019-08-07 16:14:33:916
3.6063,-17.6772,-3.0289,0.3086,9.6649,-3.4153,1.3599,-2.9559,2.4995,1266,2019-08-07 16:14:33:921
1.1854,-15.6102,-0.7002,2.9407,7.6332,1.9129,1.3599,-2.9559,2.4995,1272,2019-08-07 16:14:33:927
1.1854,-15.6102,-0.7002,2.9407,7.6332,1.9129,1.3599,-2.9559,2.4995,1277,2019-08-07 16:14:33:932
1.1854,-15.6102,-0.7002,2.9407,7.6332,1.9129,-0.8836,-2.043,2.5069,1281,2019-08-07 16:14:33:936
0.4247,-16.7559,4.2021,4.3556,8.7322,-4.9182,-0.8836,-2.043,2.5069,1287,2019-08-07 16:14:33:942
0.4247,-16.7559,4.2021,4.3556,8.7322,-4.9182,-1.9009,-0.6305,2.4771,1292,2019-08-07 16:14:33:947
-1.8956,-19.7777,2.8351,4.3556,8.7322,-4.9182,-1.9009,-0.6305,2.4771,1297,2019-08-07 16:14:33:952
-1.8956,-19.7777,2.8351,4.3556,8.7322,-4.9182,-1.4812,-0.0733,2.3642,1302,2019-08-07 16:14:33:957
-1.8956,-19.7777,2.8351,4.3556,8.7322,-4.9182,-1.4812,-0.0733,2.3642,1307,2019-08-07 16:14:33:962
-4.3021,-22.6134,0.7139,8.2377,13.6705,0.1646,-0.9166,0.716,2.312,1311,2019-08-07 16:14:33:966
-4.3021,-22.6134,0.7139,8.2377,13.6705,0.1646,-0.9166,0.716,2.312,1317,2019-08-07 16:14:33:972
-4.3021,-22.6134,0.7139,8.2377,13.6705,0.1646,0.4864,1.6513,1.9775,1321,2019-08-07 16:14:33:976
-4.6322,-21.8114,6.2998,8.2377,13.6705,0.1646,0.4864,1.6513,1.9775,1327,2019-08-07 16:14:33:982
-4.6322,-21.8114,6.2998,7.826,10.9033,-5.6328,1.5325,2.1786,1.5077,1331,2019-08-07 16:14:33:986
-4.3308,-17.3192,4.9516,7.826,10.9033,-5.6328,1.5325,2.1786,1.5077,1337,2019-08-07 16:14:33:992
-4.3308,-17.3192,4.9516,7.826,10.9033,-5.6328,2.4465,3.0948,0.5053,1342,2019-08-07 16:14:33:997
-4.3308,-17.3192,4.9516,7.826,10.9033,-5.6328,2.4465,3.0948,0.5053,1346,2019-08-07 16:14:34:001
-5.0197,-11.0798,0.7328,8.2423,1.9528,0.8636,1.7849,3.7968,-0.3043,1352,2019-08-07 16:14:34:007
-5.0197,-11.0798,0.7328,8.2423,1.9528,0.8636,1.7849,3.7968,-0.3043,1357,2019-08-07 16:14:34:012
-8.1629,-7.0841,3.6695,11.3224,-2.0112,-1.7908,0.9498,3.3526,-0.7389,1362,2019-08-07 16:14:34:017
-8.1629,-7.0841,3.6695,11.3224,-2.0112,-1.7908,0.9498,3.3526,-0.7389,1368,2019-08-07 16:14:34:023
-8.1629,-7.0841,3.6695,11.3224,-2.0112,-1.7908,0.9498,3.3526,-0.7389,1372,2019-08-07 16:14:34:027
-10.2728,-5.9146,6.1866,11.3224,-2.0112,-1.7908,0.2446,1.8772,-0.6601,1377,2019-08-07 16:14:34:032
-10.2728,-5.9146,6.1866,12.0566,-2.2789,-4.9948,0.2446,1.8772,-0.6601,1382,2019-08-07 16:14:34:037
-5.7325,-8.2824,6.4365,12.0566,-2.2789,-4.9948,0.1625,1.025,-0.5674,1387,2019-08-07 16:14:34:042
-5.7325,-8.2824,6.4365,12.0566,-2.2789,-4.9948,0.1625,1.025,-0.5674,1392,2019-08-07 16:14:34:047
-5.7325,-8.2824,6.4365,12.0566,-2.2789,-4.9948,-0.0665,-0.7242,-0.6985,1397,2019-08-07 16:14:34:052
-1.5607,-8.8696,3.184,4.7342,-0.1418,-0.9568,-0.0665,-0.7242,-0.6985,1402,2019-08-07 16:14:34:057
-1.5607,-8.8696,3.184,4.7342,-0.1418,-0.9568,-0.4788,-2.043,-0.8955,1407,2019-08-07 16:14:34:062
1.7117,-8.8505,1.4021,4.7342,-0.1418,-0.9568,-0.4788,-2.043,-0.8955,1412,2019-08-07 16:14:34:067
1.7117,-8.8505,1.4021,4.7342,-0.1418,-0.9568,-0.7674,-2.6662,-1.1022,1417,2019-08-07 16:14:34:072
1.7117,-8.8505,1.4021,-1.071,-0.0887,3.563,-0.7674,-2.6662,-1.1022,1422,2019-08-07 16:14:34:077
1.7117,-8.8505,1.4021,-1.071,-0.0887,3.563,-0.7674,-2.6662,-1.1022,1427,2019-08-07 16:14:34:082
6.1228,-9.0462,0.0351,-1.071,-0.0887,3.563,-0.8761,-2.8238,-1.2545,1432,2019-08-07 16:14:34:087
6.1228,-9.0462,0.0351,-3.184,-0.0404,1.3666,-0.352,-2.8281,-1.0606,1437,2019-08-07 16:14:34:092
7.539,-8.755,-1.7325,-3.184,-0.0404,1.3666,-0.352,-2.8281,-1.0606,1442,2019-08-07 16:14:34:097
7.539,-8.755,-1.7325,-3.184,-0.0404,1.3666,-0.352,-2.8281,-1.0606,1447,2019-08-07 16:14:34:102
8.6059,-9.0701,-4.3157,-4.3898,-0.035,5.785,0.187,-1.814,-0.4801,1452,2019-08-07 16:14:34:107
8.6059,-9.0701,-4.3157,-4.3898,-0.035,5.785,0.187,-1.814,-0.4801,1456,2019-08-07 16:14:34:111
8.6059,-9.0701,-4.3157,-4.3898,-0.035,5.785,0.334,-0.0382,0.2219,1462,2019-08-07 16:14:34:117
9.5771,-9.0557,-3.7689,-4.3898,-0.035,5.785,0.334,-0.0382,0.2219,1467,2019-08-07 16:14:34:122
9.5771,-9.0557,-3.7689,-5.1289,-0.3666,4.5361,0.0826,1.1571,0.3157,1471,2019-08-07 16:14:34:126
7.9265,-7.9482,-1.8315,-5.1289,-0.3666,4.5361,0.0826,1.1571,0.3157,1477,2019-08-07 16:14:34:132
7.9265,-7.9482,-1.8315,-5.1289,-0.3666,4.5361,0.0826,1.1571,0.3157,1482,2019-08-07 16:14:34:137
7.9265,-7.9482,-1.8315,-5.1289,-0.3666,4.5361,-0.2029,2.0338,0.1484,1488,2019-08-07 16:14:34:143
3.8599,-7.0555,1.355,-0.0409,-1.8315,0.2798,-0.2029,2.0338,0.1484,1492,2019-08-07 16:14:34:147
3.8599,-7.0555,1.355,-0.0409,-1.8315,0.2798,-0.2859,1.9731,0.191,1497,2019-08-07 16:14:34:152
3.8599,-7.0555,1.355,-0.0409,-1.8315,0.2798,-0.2859,1.9731,0.191,1502,2019-08-07 16:14:34:157
2.7069,-8.502,2.9577,-0.0409,-1.8315,0.2798,-0.2188,1.6204,0.223,1507,2019-08-07 16:14:34:162
2.7069,-8.502,2.9577,1.5002,0.091,-1.5144,-0.2188,1.6204,0.223,1512,2019-08-07 16:14:34:167
1.9223,-9.1321,3.3914,1.5002,0.091,-1.5144,-0.1496,1.1826,0.2134,1517,2019-08-07 16:14:34:172
1.9223,-9.1321,3.3914,1.5002,0.091,-1.5144,-0.1496,1.1826,0.2134,1522,2019-08-07 16:14:34:177
1.9223,-9.1321,3.3914,1.5002,0.091,-1.5144,-0.1496,1.1826,0.2134,1527,2019-08-07 16:14:34:182
1.9223,-9.1321,3.3914,1.5002,0.091,-1.5144,-0.0974,0.618,0.1921,1534,2019-08-07 16:14:34:189
1.6544,-9.1703,3.9005,1.9737,0.2352,-2.1015,-0.0974,0.618,0.1921,1536,2019-08-07 16:14:34:191
1.6544,-9.1703,3.9005,1.9737,0.2352,-2.1015,-0.0196,0.0066,0.1101,1542,2019-08-07 16:14:34:197
2.4821,-9.008,3.6742,1.9737,0.2352,-2.1015,-0.0196,0.0066,0.1101,1546,2019-08-07 16:14:34:201
2.4821,-9.008,3.6742,0.8608,0.0491,-1.5712,-0.0431,-0.4067,0.027,1552,2019-08-07 16:14:34:207
2.4821,-9.008,3.6742,0.8608,0.0491,-1.5712,-0.0431,-0.4067,0.027,1557,2019-08-07 16:14:34:212
3.4772,-9.0223,2.9766,0.8608,0.0491,-1.5712,-0.1176,-0.5836,-0.0167,1562,2019-08-07 16:14:34:217
3.4772,-9.0223,2.9766,0.8608,0.0491,-1.5712,-0.1176,-0.5836,-0.0167,1568,2019-08-07 16:14:34:223
3.4772,-9.0223,2.9766,0.8608,0.0491,-1.5712,-0.1176,-0.5836,-0.0167,1572,2019-08-07 16:14:34:227
4.9172,-9.2419,2.1658,-1.2915,0.2965,-0.4135,-0.1656,-0.4217,-0.0699,1577,2019-08-07 16:14:34:232
4.9172,-9.2419,2.1658,-1.2915,0.2965,-0.4135,-0.1592,-0.1735,-0.1126,1582,2019-08-07 16:14:34:237
5.7114,-9.3088,1.6425,-1.2915,0.2965,-0.4135,-0.1592,-0.1735,-0.1126,1587,2019-08-07 16:14:34:242
5.7114,-9.3088,1.6425,-1.2915,0.2965,-0.4135,-0.1592,-0.1735,-0.1126,1592,2019-08-07 16:14:34:247
5.7114,-9.3088,1.6425,-2.3272,0.3042,0.2056,-0.1048,0.4274,-0.1626,1596,2019-08-07 16:14:34:251
5.9889,-9.1846,1.4116,-2.3272,0.3042,0.2056,-0.1048,0.4274,-0.1626,1602,2019-08-07 16:14:34:257
5.9889,-9.1846,1.4116,-2.3272,0.3042,0.2056,-0.0431,1.025,-0.2074,1607,2019-08-07 16:14:34:262
5.0177,-8.5354,1.3644,-2.3272,0.3042,0.2056,-0.0431,1.025,-0.2074,1612,2019-08-07 16:14:34:267
5.0177,-8.5354,1.3644,-1.0608,-0.4573,0.3527,-0.025,1.2785,-0.1871,1617,2019-08-07 16:14:34:272
5.0177,-8.5354,1.3644,-1.0608,-0.4573,0.3527,-0.025,1.2785,-0.1871,1622,2019-08-07 16:14:34:277
3.7068,-8.3397,1.6614,-1.0608,-0.4573,0.3527,-0.025,1.2785,-0.1871,1627,2019-08-07 16:14:34:282
3.7068,-8.3397,1.6614,-1.0608,-0.4573,0.3527,-0.0186,1.1965,-0.1275,1632,2019-08-07 16:14:34:287
3.7068,-8.3397,1.6614,0.8367,-0.4934,-0.5658,-0.0186,1.1965,-0.1275,1637,2019-08-07 16:14:34:292
2.5443,-8.5115,2.656,0.8367,-0.4934,-0.5658,-5.0E-4,0.813,-0.0881,1642,2019-08-07 16:14:34:297
2.5443,-8.5115,2.656,1.2935,-0.2998,-0.8365,-5.0E-4,0.813,-0.0881,1646,2019-08-07 16:14:34:301
2.4103,-8.6929,2.7692,1.2935,-0.2998,-0.8365,0.0422,0.3432,-0.0636,1652,2019-08-07 16:14:34:307
2.4103,-8.6929,2.7692,1.2935,-0.2998,-0.8365,0.0422,0.3432,-0.0636,1658,2019-08-07 16:14:34:313
2.4103,-8.6929,2.7692,1.2935,-0.2998,-0.8365,0.0762,-0.0936,-0.0657,1662,2019-08-07 16:14:34:317
2.9127,-8.4686,2.2459,0.7357,-0.4329,-0.3252,0.0762,-0.0936,-0.0657,1667,2019-08-07 16:14:34:322
2.9127,-8.4686,2.2459,0.7357,-0.4329,-0.3252,0.0688,-0.346,-0.0795,1672,2019-08-07 16:14:34:327
3.7738,-8.1917,1.6237,0.7357,-0.4329,-0.3252,0.0688,-0.346,-0.0795,1677,2019-08-07 16:14:34:332
3.7738,-8.1917,1.6237,0.7357,-0.4329,-0.3252,0.0177,-0.3183,-0.0955,1682,2019-08-07 16:14:34:337
3.7738,-8.1917,1.6237,-0.5126,-0.7104,0.4337,0.0177,-0.3183,-0.0955,1687,2019-08-07 16:14:34:342
4.5585,-8.1583,1.3739,-0.5126,-0.7104,0.4337,0.0177,-0.3183,-0.0955,1692,2019-08-07 16:14:34:347
4.5585,-8.1583,1.3739,-1.0686,-0.6476,0.6177,-0.0313,0.0087,-0.1339,1697,2019-08-07 16:14:34:352
4.8503,-8.1869,1.2183,-1.0686,-0.6476,0.6177,-0.0313,0.0087,-0.1339,1702,2019-08-07 16:14:34:357
4.8503,-8.1869,1.2183,-1.0686,-0.6476,0.6177,-0.091,0.4231,-0.1626,1706,2019-08-07 16:14:34:361
4.8503,-8.1869,1.2183,-1.0686,-0.6476,0.6177,-0.091,0.4231,-0.1626,1712,2019-08-07 16:14:34:367
4.5728,-8.206,1.3644,-0.8513,-0.6692,0.5372,-0.1272,0.6596,-0.168,1718,2019-08-07 16:14:34:373
4.5728,-8.206,1.3644,-0.8513,-0.6692,0.5372,-0.1272,0.6596,-0.168,1721,2019-08-07 16:14:34:376
4.5728,-8.206,1.3644,-0.3836,-0.5834,0.1185,-0.1475,0.8098,-0.153,1727,2019-08-07 16:14:34:382
3.8743,-8.2967,1.7133,-0.3836,-0.5834,0.1185,-0.1475,0.8098,-0.153,1732,2019-08-07 16:14:34:387
3.8743,-8.2967,1.7133,-0.3836,-0.5834,0.1185,-0.1475,0.8098,-0.153,1738,2019-08-07 16:14:34:393
3.8743,-8.2967,1.7133,-0.3836,-0.5834,0.1185,-0.1943,0.7608,-0.1115,1742,2019-08-07 16:14:34:397
3.4151,-8.4733,2.0385,0.3748,-0.3366,-0.1452,-0.1943,0.7608,-0.1115,1747,2019-08-07 16:14:34:402
3.4151,-8.4733,2.0385,0.3748,-0.3366,-0.1452,-0.2018,0.5882,-0.087,1753,2019-08-07 16:14:34:408
2.8744,-8.7454,2.2601,0.3748,-0.3366,-0.1452,-0.2018,0.5882,-0.087,1757,2019-08-07 16:14:34:412
2.8744,-8.7454,2.2601,0.3748,-0.3366,-0.1452,-0.1986,0.3347,-0.054,1762,2019-08-07 16:14:34:417
2.8744,-8.7454,2.2601,0.8469,0.0416,-0.3578,-0.1986,0.3347,-0.054,1768,2019-08-07 16:14:34:423
2.8553,-8.9507,2.2318,0.8469,0.0416,-0.3578,-0.1986,0.3347,-0.054,1771,2019-08-07 16:14:34:426
2.8553,-8.9507,2.2318,0.8469,0.0416,-0.3578,-0.1911,-9.0E-4,-0.0348,1777,2019-08-07 16:14:34:432
3.2285,-9.1703,1.9961,0.8469,0.0416,-0.3578,-0.1773,-0.2203,-0.0412,1783,2019-08-07 16:14:34:438
3.2285,-9.1703,1.9961,0.3758,0.312,-0.1329,-0.1773,-0.2203,-0.0412,1787,2019-08-07 16:14:34:442
3.2285,-9.1703,1.9961,0.3758,0.312,-0.1329,-0.1773,-0.2203,-0.0412,1792,2019-08-07 16:14:34:447
3.86,-9.1894,1.949,0.3758,0.312,-0.1329,-0.1347,-0.297,-0.054,1797,2019-08-07 16:14:34:452
3.86,-9.1894,1.949,0.3758,0.312,-0.1329,-0.1347,-0.297,-0.054,1803,2019-08-07 16:14:34:458
3.86,-9.1894,1.949,-0.6122,0.1824,0.3258,-0.0931,-0.2288,-0.0721,1807,2019-08-07 16:14:34:462
4.5011,-9.0176,1.5389,-0.6122,0.1824,0.3258,-0.0931,-0.2288,-0.0721,1812,2019-08-07 16:14:34:467
4.5011,-9.0176,1.5389,-0.6122,0.1824,0.3258,-0.0921,-0.0765,-0.0859,1817,2019-08-07 16:14:34:472
4.5011,-9.0176,1.5389,-0.6122,0.1824,0.3258,-0.0921,-0.0765,-0.0859,1822,2019-08-07 16:14:34:477
4.5729,-8.712,1.5106,-0.6122,0.1824,0.3136,-0.0921,-0.0765,-0.0859,1827,2019-08-07 16:14:34:482
4.5729,-8.712,1.5106,-0.8568,-0.2095,0.3136,-0.0899,0.0726,-0.0625,1832,2019-08-07 16:14:34:487
4.6494,-8.7311,1.6331,-0.8568,-0.2095,0.3136,-0.0899,0.0726,-0.0625,1837,2019-08-07 16:14:34:492
4.6494,-8.7311,1.6331,-0.8568,-0.2095,0.3136,-0.091,0.2122,-0.0401,1842,2019-08-07 16:14:34:497
4.6494,-8.7311,1.6331,-0.5583,-0.1405,0.1058,-0.091,0.2122,-0.0401,1847,2019-08-07 16:14:34:502
4.2781,-8.7738,1.8258,-0.5583,-0.1405,0.1058,-0.0814,0.2111,-0.0146,1851,2019-08-07 16:14:34:506
4.2781,-8.7738,1.8258,-0.5583,-0.1405,0.1058,-0.0814,0.2111,-0.0146,1856,2019-08-07 16:14:34:511
4.2781,-8.7738,1.8258,-0.5583,-0.1405,0.1058,-0.0569,0.1333,0.0121,1862,2019-08-07 16:14:34:517
4.0389,-8.8741,1.9955,-0.179,0.0302,-0.0766,-0.0569,0.1333,0.0121,1868,2019-08-07 16:14:34:523
4.0389,-8.8741,1.9955,-0.179,0.0302,-0.0766,-0.0569,0.1333,0.0121,1872,2019-08-07 16:14:34:527
3.8188,-8.8836,1.8965,-0.179,0.0302,-0.0766,-0.0356,0.0556,0.0376,1877,2019-08-07 16:14:34:532
3.8188,-8.8836,1.8965,-0.179,0.0302,-0.0766,-0.0356,0.0556,0.0376,1882,2019-08-07 16:14:34:537
3.8188,-8.8836,1.8965,0.052,0.031,-0.1305,-0.0218,0.0055,0.0461,1887,2019-08-07 16:14:34:542
3.6082,-8.8931,1.8635,0.052,0.031,-0.1305,-0.0218,0.0055,0.0461,1892,2019-08-07 16:14:34:547
3.6082,-8.8931,1.8635,0.052,0.031,-0.1305,-0.0186,-0.0733,0.0579,1897,2019-08-07 16:14:34:552
3.4695,-8.9075,1.9578,0.1911,0.038,-0.1008,-0.0186,-0.0733,0.0579,1902,2019-08-07 16:14:34:557
3.4695,-8.9075,1.9578,0.1911,0.038,-0.1008,-0.0303,-0.1426,0.06,1906,2019-08-07 16:14:34:561
3.4695,-8.9075,1.9578,0.1911,0.038,-0.1008,-0.0303,-0.1426,0.06,1912,2019-08-07 16:14:34:567
3.589,-8.9218,1.8682,0.065,0.0224,0.0011,-0.042,-0.2139,0.0525,1917,2019-08-07 16:14:34:572
3.589,-8.9218,1.8682,0.065,0.0224,0.0011,-0.042,-0.2139,0.0525,1922,2019-08-07 16:14:34:577
3.589,-8.9218,1.8682,0.065,0.0224,0.0011,-0.0526,-0.2406,0.0259,1927,2019-08-07 16:14:34:582
4.0052,-8.874,1.7032,-0.2638,-0.0132,0.1009,-0.0526,-0.2406,0.0259,1931,2019-08-07 16:14:34:586
4.0052,-8.874,1.7032,-0.2638,-0.0132,0.1009,-0.0473,-0.1788,-0.0029,1937,2019-08-07 16:14:34:592
4.0052,-8.874,1.7032,-0.2638,-0.0132,0.1009,-0.0473,-0.1788,-0.0029,1942,2019-08-07 16:14:34:597
4.4453,-8.7404,1.6089,-0.2638,-0.0132,0.1009,-0.0377,-0.0552,-0.0103,1947,2019-08-07 16:14:34:602
4.4453,-8.7404,1.6089,-0.6745,-0.2376,0.2583,-0.0377,-0.0552,-0.0103,1952,2019-08-07 16:14:34:607
4.4453,-8.7404,1.6089,-0.6745,-0.2376,0.2583,-0.0388,0.0673,0.0046,1957,2019-08-07 16:14:34:612
4.3687,-8.5971,1.3261,-0.6745,-0.2376,0.2583,-0.0388,0.0673,0.0046,1962,2019-08-07 16:14:34:617
4.3687,-8.5971,1.3261,-0.6745,-0.2376,0.2583,-0.0388,0.1184,0.0099,1967,2019-08-07 16:14:34:622
3.9812,-8.8072,1.7362,-0.3473,-0.1375,0.1312,-0.0388,0.1184,0.0099,1972,2019-08-07 16:14:34:627
3.9812,-8.8072,1.7362,-0.3473,-0.1375,0.1312,-0.0388,0.1184,0.0099,1977,2019-08-07 16:14:34:632
3.6989,-8.9265,1.9671,-0.3473,-0.1375,0.1312,-0.0058,0.0843,0.0078,1982,2019-08-07 16:14:34:637
3.6989,-8.9265,1.9671,0.112,0.0764,-0.1743,0.0272,-0.0169,0.0195,1987,2019-08-07 16:14:34:642
3.6989,-8.9265,1.9671,0.112,0.0764,-0.1743,0.0272,-0.0169,0.0195,1992,2019-08-07 16:14:34:647
3.584,-8.8502,1.887,0.112,0.0764,-0.1743,0.0272,-0.0169,0.0195,1998,2019-08-07 16:14:34:653
3.584,-8.8502,1.887,0.112,0.0764,-0.1743,0.0219,-0.1117,0.0291,2002,2019-08-07 16:14:34:657
3.584,-8.8502,1.887,0.112,0.0764,-0.1743,0.0219,-0.1117,0.0291,2006,2019-08-07 16:14:34:661
3.7658,-8.726,1.8399,-0.0191,-0.1637,-0.059,0.007,-0.1841,0.0323,2012,2019-08-07 16:14:34:667
3.7658,-8.726,1.8399,-0.0191,-0.1637,-0.059,0.007,-0.1841,0.0323,2017,2019-08-07 16:14:34:672
3.7658,-8.726,1.8399,-0.0191,-0.1637,-0.059,-0.0164,-0.199,0.0248,2021,2019-08-07 16:14:34:676
4.1007,-8.6783,1.7409,-0.0191,-0.1637,-0.059,-0.0164,-0.199,0.0248,2027,2019-08-07 16:14:34:682
4.1007,-8.6783,1.7409,-0.4739,-0.1985,0.0846,-0.0388,-0.1649,0.0206,2033,2019-08-07 16:14:34:688
4.3351,-8.6687,1.5947,-0.4739,-0.1985,0.0846,-0.0388,-0.1649,0.0206,2036,2019-08-07 16:14:34:691
4.3351,-8.6687,1.5947,-0.4739,-0.1985,0.0846,-0.0388,-0.1649,0.0206,2042,2019-08-07 16:14:34:697
4.3351,-8.6687,1.5947,-0.4739,-0.1985,0.0846,-0.0494,-0.0936,0.0216,2047,2019-08-07 16:14:34:702
4.3685,-8.7021,1.6371,-0.6124,-0.1905,0.1088,-0.0494,-0.0936,0.0216,2052,2019-08-07 16:14:34:707
4.3685,-8.7021,1.6371,-0.6124,-0.1905,0.1088,-0.0441,-0.0158,0.0163,2057,2019-08-07 16:14:34:712
4.2393,-8.6974,1.7408,-0.4822,-0.1958,3.0E-4,-0.0441,-0.0158,0.0163,2062,2019-08-07 16:14:34:717
4.2393,-8.6974,1.7408,-0.4822,-0.1958,3.0E-4,-0.0218,-0.0392,0.0291,2067,2019-08-07 16:14:34:722
4.2393,-8.6974,1.7408,-0.4822,-0.1958,3.0E-4,-0.0218,-0.0392,0.0291,2072,2019-08-07 16:14:34:727
4.2536,-8.8835,1.7503,-0.4822,-0.1958,3.0E-4,0.0027,-0.0627,0.0206,2077,2019-08-07 16:14:34:732
4.2536,-8.8835,1.7503,-0.4532,0.056,-0.0535,0.0027,-0.0627,0.0206,2083,2019-08-07 16:14:34:738
4.1962,-8.8788,1.8162,-0.4532,0.056,-0.0535,0.0336,-0.068,0.011,2087,2019-08-07 16:14:34:742
4.1962,-8.8788,1.8162,-0.4532,0.056,-0.0535,0.0336,-0.068,0.011,2092,2019-08-07 16:14:34:747
4.1962,-8.8788,1.8162,-0.4532,0.056,-0.0535,0.0528,-0.0744,0.0078,2097,2019-08-07 16:14:34:752
4.1627,-8.8167,1.7078,-0.4019,-0.076,0.0276,0.0528,-0.0744,0.0078,2102,2019-08-07 16:14:34:757
4.1627,-8.8167,1.7078,-0.4019,-0.076,0.0276,0.0475,-0.0659,0.0025,2107,2019-08-07 16:14:34:762
4.1722,-8.7021,1.6701,-0.4019,-0.076,0.0276,0.0475,-0.0659,0.0025,2112,2019-08-07 16:14:34:767
4.1722,-8.7021,1.6701,-0.4019,-0.076,0.0276,0.0326,-0.0733,-0.0018,2118,2019-08-07 16:14:34:773
4.1722,-8.7021,1.6701,-0.4871,-0.2498,-0.0028,0.0326,-0.0733,-0.0018,2122,2019-08-07 16:14:34:777
4.1722,-8.7021,1.6701,-0.4871,-0.2498,-0.0028,0.0326,-0.0733,-0.0018,2126,2019-08-07 16:14:34:781
4.2966,-8.683,1.7455,-0.5309,-0.2195,-0.0784,0.0187,-0.0584,-0.022,2132,2019-08-07 16:14:34:787
4.2966,-8.683,1.7455,-0.5309,-0.2195,-0.0784,0.0187,-0.0584,-0.022,2137,2019-08-07 16:14:34:792
4.33,-8.6544,1.6559,-0.5309,-0.2195,-0.0784,0.0187,-0.0584,-0.022,2142,2019-08-07 16:14:34:797
4.33,-8.6544,1.6559,-0.5309,-0.2195,-0.0784,0.0038,-0.0371,-0.0412,2147,2019-08-07 16:14:34:802
4.2534,-8.4969,1.7031,-0.5233,-0.3579,0.0703,0.0038,-0.0371,-0.0412,2153,2019-08-07 16:14:34:808
4.2534,-8.4969,1.7031,-0.5233,-0.3579,0.0703,-0.009,-0.0211,-0.0465,2157,2019-08-07 16:14:34:812
4.2534,-8.4969,1.7031,-0.5233,-0.3579,0.0703,-0.009,-0.0211,-0.0465,2162,2019-08-07 16:14:34:817
4.2534,-8.5112,1.6276,-0.5233,-0.3579,0.0703,-0.0164,-0.0179,-0.038,2168,2019-08-07 16:14:34:823
4.2534,-8.5112,1.6276,-0.5008,-0.3437,0.0943,-0.0164,-0.0179,-0.038,2171,2019-08-07 16:14:34:826
4.2534,-8.5112,1.6276,-0.5008,-0.3437,0.0943,-0.0228,-0.0467,-0.0306,2177,2019-08-07 16:14:34:832
4.239,-8.6544,1.6088,-0.5008,-0.3437,0.0943,-0.0228,-0.0467,-0.0306,2183,2019-08-07 16:14:34:838
4.239,-8.6544,1.6088,-0.5008,-0.3437,0.0943,-0.0175,-0.0659,-0.0274,2187,2019-08-07 16:14:34:842
4.3012,-8.8501,1.5852,-0.4948,-0.0257,0.1374,-0.0175,-0.0659,-0.0274,2192,2019-08-07 16:14:34:847
4.3012,-8.8501,1.5852,-0.4948,-0.0257,0.1374,-0.0175,-0.0659,-0.0274,2197,2019-08-07 16:14:34:852
4.3012,-8.8501,1.5852,-0.4948,-0.0257,0.1374,0.007,-0.0435,-0.0316,2202,2019-08-07 16:14:34:857
4.2772,-8.9456,1.5899,-0.4948,-0.0257,0.1374,0.007,-0.0435,-0.0316,2206,2019-08-07 16:14:34:861
4.2772,-8.9456,1.5899,-0.5036,0.1406,0.1542,0.0379,0.0076,-0.038,2212,2019-08-07 16:14:34:867
4.3537,-9.0029,1.5616,-0.5036,0.1406,0.1542,0.0379,0.0076,-0.038,2218,2019-08-07 16:14:34:873
4.3537,-9.0029,1.5616,-0.5036,0.1406,0.1542,0.0688,0.1142,-0.054,2222,2019-08-07 16:14:34:877
4.4159,-8.8501,1.6653,-0.5036,0.1406,0.1542,0.0688,0.1142,-0.054,2227,2019-08-07 16:14:34:882
4.4159,-8.8501,1.6653,-0.604,-0.076,0.0972,0.0773,0.2058,-0.071,2232,2019-08-07 16:14:34:887
4.4159,-8.8501,1.6653,-0.604,-0.076,0.0972,0.0773,0.2058,-0.071,2237,2019-08-07 16:14:34:892
4.4159,-8.8501,1.6653,-0.604,-0.076,0.0972,0.0773,0.2058,-0.071,2242,2019-08-07 16:14:34:897
4.4828,-8.6162,1.6559,-0.6517,-0.2428,0.0986,0.0645,0.307,-0.087,2247,2019-08-07 16:14:34:902
4.4828,-8.6162,1.6559,-0.6517,-0.2428,0.0986,0.0645,0.307,-0.087,2252,2019-08-07 16:14:34:907
4.0044,-8.3202,1.967,-0.6517,-0.2428,0.0986,0.04,0.3943,-0.1009,2257,2019-08-07 16:14:34:912
4.0044,-8.3202,1.967,-0.6517,-0.2428,0.0986,0.04,0.3943,-0.1009,2262,2019-08-07 16:14:34:917
4.0044,-8.3202,1.967,-0.0561,-0.485,-0.325,0.0187,0.372,-0.087,2268,2019-08-07 16:14:34:923
3.6503,-8.3154,2.1178,-0.0561,-0.485,-0.325,0.0187,0.372,-0.087,2272,2019-08-07 16:14:34:927
3.6503,-8.3154,2.1178,-0.0561,-0.485,-0.325,0.0187,0.372,-0.087,2277,2019-08-07 16:14:34:932
3.6503,-8.3154,2.1178,-0.0561,-0.485,-0.325,-0.0335,0.1238,-0.0316,2282,2019-08-07 16:14:34:937
3.7651,-8.5971,2.1602,0.0742,-0.2461,-0.3454,-0.0335,0.1238,-0.0316,2287,2019-08-07 16:14:34:942
3.7651,-8.5971,2.1602,0.0742,-0.2461,-0.3454,-0.0335,0.1238,-0.0316,2292,2019-08-07 16:14:34:947
3.966,-8.7785,2.132,0.0742,-0.2461,-0.3454,-0.0281,-0.0999,-0.0252,2296,2019-08-07 16:14:34:951
3.966,-8.7785,2.132,-0.2864,-0.0248,-0.1647,-0.0281,-0.0999,-0.0252,2303,2019-08-07 16:14:34:958
3.966,-8.7785,2.132,-0.2864,-0.0248,-0.1647,-0.0036,-0.2267,-0.0071,2307,2019-08-07 16:14:34:962
4.3966,-8.7976,1.7313,-0.2864,-0.0248,-0.1647,-0.0036,-0.2267,-0.0071,2312,2019-08-07 16:14:34:967
4.3966,-8.7976,1.7313,-0.2864,-0.0248,-0.1647,0.0017,-0.2129,0.0099,2318,2019-08-07 16:14:34:973
4.3966,-8.7976,1.7313,-0.2864,-0.0248,-0.1647,0.0017,-0.2129,0.0099,2322,2019-08-07 16:14:34:977
4.631,-8.7164,1.4767,-0.7724,-0.1238,0.3117,-0.0111,-0.1298,0.0195,2327,2019-08-07 16:14:34:982
4.631,-8.7164,1.4767,-0.7724,-0.1238,0.3117,-0.0111,-0.1298,0.0195,2332,2019-08-07 16:14:34:987
4.607,-8.6687,1.5663,-0.7724,-0.1238,0.3117,-0.0111,-0.1298,0.0195,2337,2019-08-07 16:14:34:992
4.607,-8.6687,1.5663,-0.7724,-0.1238,0.3117,-0.0154,0.0108,0.0153,2342,2019-08-07 16:14:34:997
4.607,-8.6687,1.5663,-0.5574,-0.1095,0.1514,-0.0154,0.0108,0.0153,2347,2019-08-07 16:14:35:002
4.3582,-8.683,1.6888,-0.5574,-0.1095,0.1514,-0.0186,0.0918,0.0014,2352,2019-08-07 16:14:35:007
4.3582,-8.683,1.6888,-0.5574,-0.1095,0.1514,-0.0186,0.0918,0.0014,2357,2019-08-07 16:14:35:012
4.0567,-8.7594,1.9151,-0.5574,-0.1095,0.1514,-0.0175,0.1078,-0.0082,2362,2019-08-07 16:14:35:017
4.0567,-8.7594,1.9151,-0.1847,-0.0803,-0.1417,-0.0175,0.1078,-0.0082,2367,2019-08-07 16:14:35:022
4.0567,-8.7594,1.9151,-0.1847,-0.0803,-0.1417,-0.0058,0.0694,-0.021,2372,2019-08-07 16:14:35:027
3.8797,-8.6973,1.9669,-0.1847,-0.0803,-0.1417,-0.0058,0.0694,-0.021,2376,2019-08-07 16:14:35:031
3.8797,-8.6973,1.9669,-0.1847,-0.0803,-0.1417,-4.0E-4,0.0108,-0.0156,2382,2019-08-07 16:14:35:037
3.9419,-8.7068,1.9716,-0.0777,-0.1502,-0.2076,-4.0E-4,0.0108,-0.0156,2387,2019-08-07 16:14:35:042
3.9419,-8.7068,1.9716,-0.0777,-0.1502,-0.2076,0.0028,-0.0999,-0.0071,2392,2019-08-07 16:14:35:047
3.9419,-8.7068,1.9716,-0.0777,-0.1502,-0.2076,0.0028,-0.0999,-0.0071,2398,2019-08-07 16:14:35:053
4.2624,-8.7832,1.8679,-0.0777,-0.1502,-0.2076,0.0113,-0.1319,-0.0061,2402,2019-08-07 16:14:35:057
4.2624,-8.7832,1.8679,-0.4487,-0.0768,-0.1008,0.0113,-0.1319,-0.0061,2406,2019-08-07 16:14:35:061
4.358,-8.7164,1.7359,-0.4487,-0.0768,-0.1008,0.0273,-0.1138,-0.0029,2412,2019-08-07 16:14:35:067
4.358,-8.7164,1.7359,-0.4487,-0.0768,-0.1008,0.0273,-0.1138,-0.0029,2417,2019-08-07 16:14:35:072
4.358,-8.7164,1.7359,-0.4487,-0.0768,-0.1008,0.0273,-0.1138,-0.0029,2422,2019-08-07 16:14:35:077
4.425,-8.6114,1.6558,-0.546,-0.2222,0.1213,0.0379,-0.036,0.0078,2426,2019-08-07 16:14:35:081
4.425,-8.6114,1.6558,-0.546,-0.2222,0.1213,0.0379,-0.036,0.0078,2433,2019-08-07 16:14:35:088
4.3388,-8.6591,1.7029,-0.546,-0.2222,0.1213,0.0358,0.0364,0.0099,2437,2019-08-07 16:14:35:092
4.3388,-8.6591,1.7029,-0.546,-0.2222,0.1213,0.0358,0.0364,0.0099,2442,2019-08-07 16:14:35:097
4.3388,-8.6591,1.7029,-0.3104,-0.2059,0.0485,0.0304,0.0822,0.0057,2447,2019-08-07 16:14:35:102
4.1044,-8.6591,1.7406,-0.3104,-0.2059,0.0485,0.0304,0.0822,0.0057,2452,2019-08-07 16:14:35:107
4.1044,-8.6591,1.7406,-0.3104,-0.2059,0.0485,0.0241,0.1067,-0.0082,2457,2019-08-07 16:14:35:112
4.1044,-8.683,1.8208,-0.3104,-0.2059,0.0485,0.0241,0.1067,-0.0082,2462,2019-08-07 16:14:35:117
3.8555,-8.683,1.8208,0.0902,-0.1514,-0.0285,0.0155,0.0609,-0.0199,2468,2019-08-07 16:14:35:123
3.8555,-8.683,1.8208,0.0902,-0.1514,-0.0285,0.0155,0.0609,-0.0199,2472,2019-08-07 16:14:35:127
3.7742,-8.7164,1.9904,0.0902,-0.1514,-0.0285,0.0134,-0.0115,-0.0274,2477,2019-08-07 16:14:35:132
3.7742,-8.7164,1.9904,0.0902,-0.1514,-0.0285,0.0134,-0.0115,-0.0274,2482,2019-08-07 16:14:35:137
4.0516,-8.7164,1.8019,-0.1297,-0.1343,-0.0675,0.0241,-0.0872,-0.0263,2488,2019-08-07 16:14:35:143
4.0516,-8.7164,1.8019,-0.1297,-0.1343,-0.0675,0.0241,-0.0872,-0.0263,2492,2019-08-07 16:14:35:147
4.0516,-8.7164,1.8019,-0.3827,-0.2183,0.086,0.0209,-0.1127,-0.022,2497,2019-08-07 16:14:35:152
4.3195,-8.6066,1.6652,-0.3827,-0.2183,0.086,0.0209,-0.1127,-0.022,2503,2019-08-07 16:14:35:158
4.3195,-8.6066,1.6652,-0.3827,-0.2183,0.086,0.0123,-0.084,-0.0156,2507,2019-08-07 16:14:35:162
4.5443,-8.6113,1.5756,-0.3827,-0.2183,0.086,0.0123,-0.084,-0.0156,2512,2019-08-07 16:14:35:167
4.5443,-8.6113,1.5756,-0.63,-0.2242,0.226,0.0123,-0.084,-0.0156,2517,2019-08-07 16:14:35:172
4.5443,-8.6113,1.5756,-0.63,-0.2242,0.226,0.007,-0.0169,-0.0156,2522,2019-08-07 16:14:35:177
4.4056,-8.5588,1.6086,-0.5017,-0.2609,0.1829,0.007,-0.0169,-0.0156,2527,2019-08-07 16:14:35:182
4.4056,-8.5588,1.6086,-0.5017,-0.2609,0.1829,-4.0E-4,0.0311,-0.0039,2532,2019-08-07 16:14:35:187
4.4056,-8.5588,1.6086,-0.5017,-0.2609,0.1829,-4.0E-4,0.0311,-0.0039,2537,2019-08-07 16:14:35:192
4.262,-8.5779,1.7311,-0.5017,-0.2609,0.1829,-0.0079,0.0694,0.0089,2542,2019-08-07 16:14:35:197
4.262,-8.5779,1.7311,-0.2567,-0.1645,0.0579,-0.0079,0.0694,0.0089,2548,2019-08-07 16:14:35:203
4.262,-8.5779,1.7311,-0.2567,-0.1645,0.0579,-4.0E-4,0.0652,-7.0E-4,2552,2019-08-07 16:14:35:207
4.0275,-8.6304,1.8443,-0.2567,-0.1645,0.0579,-4.0E-4,0.0652,-7.0E-4,2557,2019-08-07 16:14:35:212
4.0275,-8.6304,1.8443,-0.2567,-0.1645,0.0579,-0.0026,0.0258,-7.0E-4,2563,2019-08-07 16:14:35:218
3.8792,-8.6543,1.9385,0.025,-0.164,-0.1407,-0.0026,0.0258,-7.0E-4,2567,2019-08-07 16:14:35:222
3.8792,-8.6543,1.9385,0.025,-0.164,-0.1407,-0.0026,-0.0328,-0.0103,2572,2019-08-07 16:14:35:227
3.8792,-8.6543,1.9385,0.025,-0.164,-0.1407,-0.0026,-0.0328,-0.0103,2577,2019-08-07 16:14:35:232
3.9844,-8.6209,1.9432,0.025,-0.164,-0.1407,-4.0E-4,-0.0989,-0.0124,2582,2019-08-07 16:14:35:237
3.9844,-8.6209,1.9432,-0.2092,-0.1864,0.0065,-4.0E-4,-0.0989,-0.0124,2587,2019-08-07 16:14:35:242
3.9844,-8.6209,1.9432,-0.2092,-0.1864,0.0065,-4.0E-4,-0.0989,-0.0124,2592,2019-08-07 16:14:35:247
4.1471,-8.5636,1.7076,-0.2092,-0.1864,0.0065,-4.0E-4,-0.1426,-0.0156,2597,2019-08-07 16:14:35:252
4.1471,-8.5636,1.7076,-0.2092,-0.1864,0.0065,-4.0E-4,-0.1426,-0.0156,2602,2019-08-07 16:14:35:257
4.1614,-8.8977,2.8671,-0.2391,0.0783,-1.1152,-0.1283,-0.3865,0.0057,2607,2019-08-07 16:14:35:262
4.1614,-8.8977,2.8671,-0.2391,0.0783,-1.1152,-0.1283,-0.3865,0.0057,2612,2019-08-07 16:14:35:267
4.1614,-8.8977,2.8671,-0.2391,0.0783,-1.1152,0.1242,-0.1734,-0.0167,2616,2019-08-07 16:14:35:271
5.0895,-8.7641,1.156,-0.2391,0.0783,-1.1152,0.1242,-0.1734,-0.0167,2622,2019-08-07 16:14:35:277
5.0895,-8.7641,1.156,-1.1854,-0.1718,0.6661,0.1348,-0.0445,-0.0231,2627,2019-08-07 16:14:35:282
4.9842,-8.4967,0.9627,-1.1854,-0.1718,0.6661,0.1348,-0.0445,-0.0231,2632,2019-08-07 16:14:35:287
4.9842,-8.4967,0.9627,-1.1854,-0.1718,0.6661,0.0273,0.1035,0.0014,2637,2019-08-07 16:14:35:292
4.9842,-8.4967,0.9627,-1.1854,-0.1718,0.6661,0.0273,0.1035,0.0014,2642,2019-08-07 16:14:35:297
4.5919,-8.4776,1.684,-1.1854,-0.1718,0.6661,0.0273,0.1035,0.0014,2647,2019-08-07 16:14:35:302
4.5919,-8.4776,1.684,-0.506,-0.3348,-0.0876,-0.0516,0.1547,0.027,2652,2019-08-07 16:14:35:307
4.2282,-8.7879,2.094,-0.506,-0.3348,-0.0876,-0.0516,0.1547,0.027,2657,2019-08-07 16:14:35:312
4.2282,-8.7879,2.094,-0.506,-0.3348,-0.0876,-0.0015,0.1962,0.0121,2662,2019-08-07 16:14:35:317
4.2282,-8.7879,2.094,0.0786,0.0411,-0.3145,-0.0015,0.1962,0.0121,2667,2019-08-07 16:14:35:322
3.788,-8.8643,2.1129,0.0786,0.0411,-0.3145,0.0028,0.0545,0.0078,2672,2019-08-07 16:14:35:327