ACCELEROMETER X (m/s²),ACCELEROMETER Y (m/s²),ACCELEROMETER Z (m/s²),LINEAR ACCELERATION X (m/s²),LINEAR ACCELERATION Y (m/s²),LINEAR ACCELERATION Z (m/s²),GYROSCOPE X (rad/s),GYROSCOPE Y (rad/s),GYROSCOPE Z (rad/s),Time since start in ms ,YYYY-MO-DD HH-MI-SS_SSS
4.7979,-8.2571,1.9083,-0.0181,-0.0687,0.0288,0.0037,0.0057,-0.004,2,2019-08-07 16:15:29:711
4.7979,-8.2953,1.8611,-0.0181,-0.0687,0.0288,0.0037,0.0057,-0.004,8,2019-08-07 16:15:29:717
4.7979,-8.2953,1.8611,-0.0181,-0.0687,0.0288,5.0E-4,-0.0135,-0.0146,12,2019-08-07 16:15:29:721
4.8122,-8.2953,1.8941,-0.0181,-0.0687,0.0288,5.0E-4,-0.0135,-0.0146,18,2019-08-07 16:15:29:727
4.8122,-8.2953,1.8941,-0.0294,-0.067,-0.028,0.0058,-0.022,-0.0189,22,2019-08-07 16:15:29:731
4.8122,-8.2953,1.8941,-0.0294,-0.067,-0.028,0.0058,-0.022,-0.0189,28,2019-08-07 16:15:29:737
4.8648,-8.3383,1.9083,-0.0294,-0.067,-0.028,0.009,-0.0252,-0.0189,33,2019-08-07 16:15:29:742
4.8648,-8.3383,1.9083,-0.0294,-0.067,-0.028,0.009,-0.0252,-0.0189,38,2019-08-07 16:15:29:747
4.8648,-8.3383,1.9083,-0.0867,-0.0262,0.0326,0.0112,-0.022,-0.0199,42,2019-08-07 16:15:29:751
4.8935,-8.2953,1.8753,-0.0867,-0.0262,0.0326,0.0112,-0.022,-0.0199,48,2019-08-07 16:15:29:757
4.8935,-8.2953,1.8753,-0.0867,-0.0262,0.0326,0.0112,-0.0135,-0.0167,53,2019-08-07 16:15:29:762
4.8935,-8.2953,1.8753,-0.0867,-0.0262,0.0326,0.0112,-0.0135,-0.0167,58,2019-08-07 16:15:29:767
4.8983,-8.3335,1.9035,-0.116,0.005,-0.0659,0.0112,-0.0167,-0.0135,63,2019-08-07 16:15:29:772
4.8983,-8.3335,1.9035,-0.116,0.005,-0.0659,0.0112,-0.0167,-0.0135,67,2019-08-07 16:15:29:776
4.9366,-8.3574,1.8611,-0.116,0.005,-0.0659,0.0048,-0.0273,-0.0072,73,2019-08-07 16:15:29:782
4.9366,-8.3574,1.8611,-0.116,0.005,-0.0659,0.0048,-0.0273,-0.0072,77,2019-08-07 16:15:29:786
4.9366,-8.3574,1.8611,-0.1798,-0.027,-0.0346,0.0026,-0.0359,0.0014,83,2019-08-07 16:15:29:792
4.994,-8.3144,1.8894,-0.1798,-0.027,-0.0346,0.0026,-0.0359,0.0014,88,2019-08-07 16:15:29:797
4.994,-8.3144,1.8894,-0.1798,-0.027,-0.0346,0.0037,-0.0231,0.0035,92,2019-08-07 16:15:29:801
5.0035,-8.3001,1.8988,-0.1798,-0.027,-0.0346,0.0037,-0.0231,0.0035,98,2019-08-07 16:15:29:807
5.0035,-8.3001,1.8988,-0.2974,-0.0598,0.0479,-0.0038,-0.0018,0.0046,103,2019-08-07 16:15:29:812
5.0035,-8.3001,1.8988,-0.2974,-0.0598,0.0479,-0.0038,-0.0018,0.0046,107,2019-08-07 16:15:29:816
5.0609,-8.2953,1.781,-0.2974,-0.0598,0.0479,-0.0038,-0.0018,0.0046,113,2019-08-07 16:15:29:822
5.0609,-8.2953,1.781,-0.2974,-0.0598,0.0479,-0.0133,0.0174,0.0067,118,2019-08-07 16:15:29:827
5.0035,-8.3144,1.8093,-0.1969,-0.0315,0.0559,-0.0133,0.0174,0.0067,123,2019-08-07 16:15:29:832
5.0035,-8.3144,1.8093,-0.1969,-0.0315,0.0559,-0.0101,0.0334,0.0035,127,2019-08-07 16:15:29:836
5.0035,-8.3144,1.8093,-0.1969,-0.0315,0.0559,-0.0101,0.0334,0.0035,133,2019-08-07 16:15:29:842
4.8887,-8.3096,1.8517,-0.1969,-0.0315,0.0559,-0.0016,0.0302,-0.004,137,2019-08-07 16:15:29:846
4.8887,-8.3096,1.8517,0.0132,-0.0408,0.0344,-0.0016,0.0302,-0.004,143,2019-08-07 16:15:29:852
4.8121,-8.2905,1.9318,0.0132,-0.0408,0.0344,0.0026,0.0025,-0.005,148,2019-08-07 16:15:29:857
4.8121,-8.2905,1.9318,0.0132,-0.0408,0.0344,0.0026,0.0025,-0.005,152,2019-08-07 16:15:29:861
4.8121,-8.2905,1.9318,0.0132,-0.0408,0.0344,0.0026,0.0025,-0.005,158,2019-08-07 16:15:29:867
4.8456,-8.2858,1.9318,-0.0668,-0.04,0.0016,0.0069,-0.022,-0.0018,163,2019-08-07 16:15:29:872
4.8456,-8.2858,1.9318,-0.0668,-0.04,0.0016,0.0069,-0.022,-0.0018,167,2019-08-07 16:15:29:876
4.8456,-8.2858,1.9318,-0.0668,-0.04,0.0016,0.0048,-0.0337,-0.0018,173,2019-08-07 16:15:29:882
4.9221,-8.2523,1.8422,-0.1134,-0.0921,0.024,0.0048,-0.0337,-0.0018,179,2019-08-07 16:15:29:888
4.9221,-8.2523,1.8422,-0.1134,-0.0921,0.024,0.0048,-0.0401,-0.0018,182,2019-08-07 16:15:29:891
4.9843,-8.3574,1.7715,-0.1134,-0.0921,0.024,0.0048,-0.0401,-0.0018,188,2019-08-07 16:15:29:897
4.9843,-8.3574,1.7715,-0.1134,-0.0921,0.024,5.0E-4,-0.0252,0.0046,192,2019-08-07 16:15:29:901
4.9843,-8.3574,1.7715,-0.1824,0.0185,0.1336,5.0E-4,-0.0252,0.0046,198,2019-08-07 16:15:29:907
4.9795,-8.3239,1.7668,-0.1824,0.0185,0.1336,5.0E-4,-0.0252,0.0046,203,2019-08-07 16:15:29:912
4.9795,-8.3239,1.7668,-0.1824,0.0185,0.1336,0.009,0.0089,0.0046,208,2019-08-07 16:15:29:917
4.9795,-8.3239,1.7668,-0.1824,0.0185,0.1336,0.009,0.0089,0.0046,212,2019-08-07 16:15:29:921
4.903,-8.3001,1.7527,-0.0913,-0.0434,0.1105,0.0176,0.01,0.0067,218,2019-08-07 16:15:29:927
4.903,-8.3001,1.7527,-0.0913,-0.0434,0.1105,0.0176,0.01,0.0067,222,2019-08-07 16:15:29:931
4.8503,-8.2714,1.8658,-0.0391,-0.0717,-3.0E-4,0.025,0.0259,-8.0E-4,228,2019-08-07 16:15:29:937
4.8503,-8.2714,1.8658,-0.0391,-0.0717,-3.0E-4,0.025,0.0259,-8.0E-4,234,2019-08-07 16:15:29:943
4.8503,-8.2714,1.8658,-0.0391,-0.0717,-3.0E-4,0.0176,-0.0028,-0.004,238,2019-08-07 16:15:29:947
4.8503,-8.2094,1.7527,-0.1335,-0.1799,0.0553,0.0176,-0.0028,-0.004,243,2019-08-07 16:15:29:952
4.8503,-8.2094,1.7527,-0.1335,-0.1799,0.0553,0.0112,-0.0177,-0.0093,248,2019-08-07 16:15:29:957
4.8503,-8.2094,1.7527,-0.1335,-0.1799,0.0553,0.0112,-0.0177,-0.0093,252,2019-08-07 16:15:29:961
4.8503,-8.2094,1.7527,-0.1335,-0.1799,0.0553,0.0112,-0.0177,-0.0093,258,2019-08-07 16:15:29:967
4.946,-8.2762,1.8941,-0.1335,-0.1799,0.0553,0.009,-0.0167,-0.021,262,2019-08-07 16:15:29:971
4.946,-8.2762,1.8941,-0.1815,-0.0867,0.0361,0.009,-0.0167,-0.021,268,2019-08-07 16:15:29:977
5.013,-8.3048,1.8422,-0.1815,-0.0867,0.0361,0.0069,-0.0018,-0.0231,273,2019-08-07 16:15:29:982
5.013,-8.3048,1.8422,-0.1815,-0.0867,0.0361,0.0069,-0.0018,-0.0231,279,2019-08-07 16:15:29:988
5.013,-8.3048,1.8422,-0.1815,-0.0867,0.0361,0.0037,0.0068,-0.0274,283,2019-08-07 16:15:29:992
4.9173,-8.3335,1.9082,-0.0949,-0.0023,-0.0385,0.0037,0.0068,-0.0274,288,2019-08-07 16:15:29:997
4.9173,-8.3335,1.9082,-0.0949,-0.0023,-0.0385,0.008,0.0057,-0.0231,293,2019-08-07 16:15:30:002
4.9507,-8.3764,1.9836,-0.0949,-0.0023,-0.0385,0.008,0.0057,-0.0231,298,2019-08-07 16:15:30:007
4.9507,-8.3764,1.9836,-0.0949,-0.0023,-0.0385,0.008,0.0057,-0.0231,302,2019-08-07 16:15:30:011
4.9507,-8.3764,1.9836,-0.1292,-0.0284,-0.0988,-0.0037,-0.0241,-0.0114,308,2019-08-07 16:15:30:017
5.0081,-8.2619,1.9695,-0.1292,-0.0284,-0.0988,-0.0037,-0.0241,-0.0114,313,2019-08-07 16:15:30:022
5.0081,-8.2619,1.9695,-0.1292,-0.0284,-0.0988,-0.0069,-0.0284,-0.005,318,2019-08-07 16:15:30:027
5.0703,-8.2523,1.9648,-0.1292,-0.0284,-0.0988,-0.0069,-0.0284,-0.005,323,2019-08-07 16:15:30:032
5.0703,-8.2523,1.9648,-0.2026,-0.0655,-0.036,-0.0144,-0.0145,0.0035,328,2019-08-07 16:15:30:037
5.0703,-8.2523,1.9648,-0.2026,-0.0655,-0.036,-0.0144,-0.0145,0.0035,333,2019-08-07 16:15:30:042
5.0703,-8.2189,1.8186,-0.2026,-0.0655,-0.036,-0.0272,0.027,0.0067,337,2019-08-07 16:15:30:046
5.0703,-8.2189,1.8186,-0.2026,-0.0655,-0.036,-0.0272,0.027,0.0067,343,2019-08-07 16:15:30:052
5.0464,-8.2332,1.8752,-0.1833,-0.1185,-0.0197,-0.0304,0.0472,0.0099,348,2019-08-07 16:15:30:057
5.0464,-8.2332,1.8752,-0.1833,-0.1185,-0.0197,-0.0304,0.0472,0.0099,353,2019-08-07 16:15:30:062
5.0464,-8.2332,1.8752,-0.1833,-0.1185,-0.0197,-0.0251,0.0717,0.011,357,2019-08-07 16:15:30:066
4.989,-8.3144,1.9035,-0.1833,-0.1185,-0.0197,-0.0251,0.0717,0.011,363,2019-08-07 16:15:30:072
4.989,-8.3144,1.9035,-0.1575,-0.0531,-0.0137,-0.0251,0.0717,0.011,368,2019-08-07 16:15:30:077
4.989,-8.3144,1.9035,-0.1575,-0.0531,-0.0137,-0.0219,0.076,0.0078,372,2019-08-07 16:15:30:081
4.8598,-8.3096,1.9412,-0.1575,-0.0531,-0.0137,-0.0219,0.076,0.0078,378,2019-08-07 16:15:30:087
4.8598,-8.3096,1.9412,-0.1575,-0.0531,-0.0137,-0.0112,0.0632,0.0046,383,2019-08-07 16:15:30:092
4.8645,-8.3048,1.9082,-0.0126,-0.0064,-0.0095,-0.0112,0.0632,0.0046,388,2019-08-07 16:15:30:097
4.8645,-8.3048,1.9082,-0.0126,-0.0064,-0.0095,-0.0069,0.0206,-0.0029,393,2019-08-07 16:15:30:102
4.8645,-8.3048,1.9082,-0.0126,-0.0064,-0.0095,-0.0069,0.0206,-0.0029,398,2019-08-07 16:15:30:107
4.9028,-8.3048,1.8281,-0.0126,-0.0064,-0.0095,-0.0069,0.0206,-0.0029,403,2019-08-07 16:15:30:112
4.9028,-8.3048,1.8281,-0.0126,-0.0064,-0.0095,0.0026,-0.0188,-0.004,408,2019-08-07 16:15:30:117
4.9028,-8.3048,1.8281,-0.1219,-0.0393,-0.0043,0.009,-0.039,-0.004,413,2019-08-07 16:15:30:122
4.9937,-8.2953,1.8139,-0.1219,-0.0393,-0.0043,0.009,-0.039,-0.004,418,2019-08-07 16:15:30:127
4.9937,-8.2953,1.8139,-0.1219,-0.0393,-0.0043,0.009,-0.039,-0.004,423,2019-08-07 16:15:30:132
5.0846,-8.3239,1.7621,-0.2717,-0.0237,0.1438,0.009,-0.0305,-0.0061,428,2019-08-07 16:15:30:137
5.0846,-8.3239,1.7621,-0.2717,-0.0237,0.1438,0.009,-0.0305,-0.0061,432,2019-08-07 16:15:30:141
5.0846,-8.3239,1.7621,-0.2717,-0.0237,0.1438,0.0069,-0.0018,-0.0029,438,2019-08-07 16:15:30:147
5.0415,-8.2857,1.7668,-0.2717,-0.0237,0.1438,0.0069,-0.0018,-0.0029,443,2019-08-07 16:15:30:152
5.0415,-8.2857,1.7668,-0.1494,-0.0508,0.0447,0.0144,0.0142,3.0E-4,448,2019-08-07 16:15:30:157
4.9889,-8.3096,1.8281,-0.1494,-0.0508,0.0447,0.0144,0.0142,3.0E-4,452,2019-08-07 16:15:30:161
4.9889,-8.3096,1.8281,-0.1494,-0.0508,0.0447,0.0144,0.0142,3.0E-4,458,2019-08-07 16:15:30:167
4.9889,-8.3096,1.8281,-0.1303,-0.0265,0.0606,0.0122,0.0238,0.0056,463,2019-08-07 16:15:30:172
4.8836,-8.281,1.8563,-0.1303,-0.0265,0.0606,0.0122,0.0238,0.0056,467,2019-08-07 16:15:30:176
4.8836,-8.281,1.8563,-0.1303,-0.0265,0.0606,0.009,0.0302,0.0099,473,2019-08-07 16:15:30:182
4.8549,-8.2523,1.9129,-0.0268,-0.0791,-0.0385,0.009,0.0302,0.0099,478,2019-08-07 16:15:30:187
4.8549,-8.2523,1.9129,-0.0268,-0.0791,-0.0385,0.009,0.0227,0.0131,483,2019-08-07 16:15:30:192
4.8549,-8.2523,1.9129,-0.0268,-0.0791,-0.0385,0.009,0.0227,0.0131,487,2019-08-07 16:15:30:196
4.8262,-8.2237,1.8799,-0.0268,-0.0791,-0.0385,0.009,0.0227,0.0131,493,2019-08-07 16:15:30:202
4.8262,-8.2237,1.8799,-0.0102,-0.1371,-0.0212,-0.0027,0.0121,0.0099,498,2019-08-07 16:15:30:207
4.8262,-8.2237,1.8799,-0.0102,-0.1371,-0.0212,-0.0027,0.0121,0.0099,502,2019-08-07 16:15:30:211
4.8454,-8.2189,1.9553,-0.0102,-0.1371,-0.0212,-0.0027,0.0121,0.0099,508,2019-08-07 16:15:30:217
4.8454,-8.2189,1.9553,-0.0102,-0.1371,-0.0212,-0.0091,-0.0018,0.0024,513,2019-08-07 16:15:30:222
4.9315,-8.2523,1.8422,-0.1055,-0.0798,0.0342,-0.0091,-0.0018,0.0024,517,2019-08-07 16:15:30:226
4.9315,-8.2523,1.8422,-0.1055,-0.0798,0.0342,-0.0123,-0.006,-0.004,523,2019-08-07 16:15:30:232
4.9315,-8.2523,1.8422,-0.1055,-0.0798,0.0342,-0.0123,-0.006,-0.004,528,2019-08-07 16:15:30:237
4.9458,-8.3096,1.7903,-0.1055,-0.0798,0.0342,-0.0176,-0.0082,-0.0072,533,2019-08-07 16:15:30:242
4.9458,-8.3096,1.7903,-0.1657,0.0494,0.0494,-0.0176,-0.0082,-0.0072,537,2019-08-07 16:15:30:246
5.0128,-8.3287,1.7903,-0.1657,0.0494,0.0494,-0.0229,-0.0018,-0.0072,543,2019-08-07 16:15:30:252
5.0128,-8.3287,1.7903,-0.1657,0.0494,0.0494,-0.0229,-0.0018,-0.0072,548,2019-08-07 16:15:30:257
5.0128,-8.3287,1.7903,-0.1657,0.0494,0.0494,-0.0144,0.0121,-0.0125,553,2019-08-07 16:15:30:262
5.0223,-8.343,1.7762,-0.1869,-0.0024,0.1214,-0.0144,0.0121,-0.0125,558,2019-08-07 16:15:30:267
5.0223,-8.343,1.7762,-0.1869,-0.0024,0.1214,-0.0144,0.0121,-0.0125,563,2019-08-07 16:15:30:272
5.0223,-8.343,1.7762,-0.1869,-0.0024,0.1214,-0.0059,0.0334,-0.0029,568,2019-08-07 16:15:30:277
5.0223,-8.343,1.7762,-0.1869,-0.0024,0.1214,-0.0059,0.0334,-0.0029,574,2019-08-07 16:15:30:283
4.941,-8.3382,1.8328,-0.0911,0.0505,-0.0095,-0.0059,0.0377,-8.0E-4,578,2019-08-07 16:15:30:287
4.941,-8.3382,1.8328,-0.0911,0.0505,-0.0095,-0.0059,0.0377,-8.0E-4,583,2019-08-07 16:15:30:292
4.941,-8.3382,1.8328,-0.0911,0.0505,-0.0095,0.0016,0.0281,3.0E-4,587,2019-08-07 16:15:30:296
4.9218,-8.3239,1.8186,-0.0911,0.0505,-0.0095,0.0016,0.0281,3.0E-4,593,2019-08-07 16:15:30:302
4.9218,-8.3239,1.8186,-0.0914,-0.0207,0.0264,0.0122,0.011,0.0024,598,2019-08-07 16:15:30:307
4.9075,-8.2714,1.8846,-0.0914,-0.0207,0.0264,0.0122,0.011,0.0024,602,2019-08-07 16:15:30:311
4.9075,-8.2714,1.8846,-0.0914,-0.0207,0.0264,0.0122,0.011,0.0024,608,2019-08-07 16:15:30:317
4.9075,-8.2714,1.8846,-0.0914,-0.0207,0.0264,0.0176,-0.0018,0.0088,613,2019-08-07 16:15:30:322
4.9984,-8.2093,1.8563,-0.0914,-0.0207,0.0264,0.0176,-0.0018,0.0088,617,2019-08-07 16:15:30:326
4.9984,-8.2093,1.8563,-0.1629,-0.144,0.0151,0.0218,-0.0071,0.0067,623,2019-08-07 16:15:30:332
4.9649,-8.2093,1.861,-0.1629,-0.144,0.0151,0.0218,-0.0071,0.0067,628,2019-08-07 16:15:30:337
4.9649,-8.2093,1.861,-0.1629,-0.144,0.0151,0.0133,-0.005,0.0078,632,2019-08-07 16:15:30:341
4.9649,-8.2093,1.861,-0.1629,-0.144,0.0151,0.0133,-0.005,0.0078,638,2019-08-07 16:15:30:347
4.9649,-8.2571,1.8092,-0.1341,-0.0721,0.0682,0.0026,-0.006,0.0099,643,2019-08-07 16:15:30:352
4.9649,-8.2571,1.8092,-0.1341,-0.0721,0.0682,0.0026,-0.006,0.0099,647,2019-08-07 16:15:30:356
4.9649,-8.2571,1.8092,-0.1341,-0.0721,0.0682,-6.0E-4,-0.0135,0.012,653,2019-08-07 16:15:30:362
4.9936,-8.3287,1.9883,-0.1341,-0.0721,0.0682,-6.0E-4,-0.0135,0.012,658,2019-08-07 16:15:30:367
4.9936,-8.3287,1.9883,-0.1536,0.0086,0.0014,0.0026,-0.0156,0.0099,663,2019-08-07 16:15:30:372
4.9983,-8.3096,1.8186,-0.1536,0.0086,0.0014,0.0026,-0.0156,0.0099,668,2019-08-07 16:15:30:377
4.9983,-8.3096,1.8186,-0.1536,0.0086,0.0014,0.0026,-0.0156,0.0099,674,2019-08-07 16:15:30:383
5.0127,-8.3526,1.8045,-0.1536,0.0086,0.0014,5.0E-4,-0.0039,0.0046,677,2019-08-07 16:15:30:386
5.0127,-8.3526,1.8045,-0.1917,-0.0106,0.0522,5.0E-4,-0.0039,0.0046,683,2019-08-07 16:15:30:392
5.0127,-8.3526,1.8045,-0.1917,-0.0106,0.0522,-0.0016,0.0185,0.0056,688,2019-08-07 16:15:30:397
4.9887,-8.3191,1.8327,-0.1584,-0.0106,0.0431,-0.0016,0.0185,0.0056,693,2019-08-07 16:15:30:402
4.9887,-8.3191,1.8327,-0.1584,-0.0106,0.0431,-0.0027,0.0302,0.0046,697,2019-08-07 16:15:30:406
4.9887,-8.3191,1.8327,-0.1584,-0.0106,0.0431,-0.0027,0.0302,0.0046,703,2019-08-07 16:15:30:412
4.917,-8.3382,1.8799,-0.1584,-0.0106,0.0431,-0.0038,0.043,0.0056,708,2019-08-07 16:15:30:417
4.917,-8.3382,1.8799,-0.0065,-0.0108,0.0221,-0.0038,0.043,0.0056,713,2019-08-07 16:15:30:422
4.8883,-8.3478,1.9034,-0.0065,-0.0108,0.0221,-0.0038,0.043,0.0056,717,2019-08-07 16:15:30:426
4.8883,-8.3478,1.9034,-0.0065,-0.0108,0.0221,-6.0E-4,0.0249,0.0109,723,2019-08-07 16:15:30:432
4.8883,-8.3478,1.9034,-0.0065,-0.0108,0.0221,-6.0E-4,0.0249,0.0109,727,2019-08-07 16:15:30:436
4.9169,-8.3191,1.9176,-0.0901,-0.0115,-0.0368,0.0058,0.0025,0.0141,733,2019-08-07 16:15:30:442
4.9169,-8.3191,1.9176,-0.0901,-0.0115,-0.0368,0.0058,0.0025,0.0141,738,2019-08-07 16:15:30:447
4.9935,-8.3525,1.861,-0.167,0.0217,0.0202,0.0112,-0.0167,0.0078,743,2019-08-07 16:15:30:452
4.9935,-8.3525,1.861,-0.167,0.0217,0.0202,0.0112,-0.0167,0.0078,748,2019-08-07 16:15:30:457
4.9935,-8.3525,1.861,-0.167,0.0217,0.0202,0.0229,-0.0103,0.0099,753,2019-08-07 16:15:30:462
4.96,-8.2809,1.8092,-0.167,0.0217,0.0202,0.0229,-0.0103,0.0099,758,2019-08-07 16:15:30:467
4.96,-8.2809,1.8092,-0.1813,-0.0448,0.1111,0.0229,-0.0103,0.0099,762,2019-08-07 16:15:30:471
4.96,-8.2809,1.8092,-0.1813,-0.0448,0.1111,0.0314,0.0089,0.0152,768,2019-08-07 16:15:30:477
4.9743,-8.2714,1.8186,-0.1813,-0.0448,0.1111,0.0314,0.0089,0.0152,773,2019-08-07 16:15:30:482
4.9743,-8.2714,1.8186,-0.1813,-0.0448,0.1111,0.0282,0.0174,0.012,778,2019-08-07 16:15:30:487
4.8691,-8.2571,2.0024,-0.054,-0.1067,-0.0011,0.0314,0.0078,0.0014,784,2019-08-07 16:15:30:493
4.8691,-8.2571,2.0024,-0.054,-0.1067,-0.0011,0.0314,0.0078,0.0014,788,2019-08-07 16:15:30:497
4.8691,-8.2571,2.0024,-0.054,-0.1067,-0.0011,0.0314,0.0078,0.0014,793,2019-08-07 16:15:30:502
4.8786,-8.2714,1.9836,-0.054,-0.1067,-0.0011,0.0303,-0.0252,0.0024,798,2019-08-07 16:15:30:507
4.8786,-8.2714,1.9836,-0.111,-0.0957,-8.0E-4,0.0303,-0.0252,0.0024,803,2019-08-07 16:15:30:512
4.8786,-8.2332,1.8421,-0.111,-0.0957,-8.0E-4,0.025,-0.0263,-8.0E-4,808,2019-08-07 16:15:30:517
4.936,-8.2332,1.8421,-0.111,-0.0957,-8.0E-4,0.025,-0.0263,-8.0E-4,813,2019-08-07 16:15:30:522
4.936,-8.2332,1.8421,-0.111,-0.0957,-8.0E-4,0.025,-0.0263,-8.0E-4,818,2019-08-07 16:15:30:527
5.003,-8.195,1.8799,-0.176,-0.1326,0.014,0.0101,-0.0199,0.0024,823,2019-08-07 16:15:30:532
5.003,-8.195,1.8799,-0.176,-0.1326,0.014,0.0037,-0.0082,0.0014,828,2019-08-07 16:15:30:537
5.003,-8.195,1.8799,-0.176,-0.1326,0.014,0.0037,-0.0082,0.0014,833,2019-08-07 16:15:30:542
4.9982,-8.238,1.8469,-0.176,-0.1326,0.014,0.0037,-0.0082,0.0014,837,2019-08-07 16:15:30:546
4.9982,-8.238,1.8469,-0.0791,-0.0843,0.0935,-0.0016,-0.0028,0.0024,843,2019-08-07 16:15:30:552
4.9121,-8.3191,1.7903,-0.0791,-0.0843,0.0935,-0.0016,-0.0028,0.0024,848,2019-08-07 16:15:30:557
4.9121,-8.3191,1.7903,-0.0791,-0.0843,0.0935,5.0E-4,0.0014,0.0099,853,2019-08-07 16:15:30:562
4.8642,-8.3573,1.8751,-0.0791,-0.0843,0.0935,5.0E-4,0.0014,0.0099,859,2019-08-07 16:15:30:568
4.8642,-8.3573,1.8751,-0.0799,0.0917,0.0834,0.0069,-0.0284,0.012,863,2019-08-07 16:15:30:572
4.8642,-8.3573,1.8751,-0.0799,0.0917,0.0834,0.0069,-0.0284,0.012,868,2019-08-07 16:15:30:577
4.8642,-8.3573,1.8751,-0.0799,0.0917,0.0834,0.0069,-0.0284,0.012,874,2019-08-07 16:15:30:583
4.9264,-8.4289,1.9034,-0.0993,0.1009,-0.0113,0.0293,-0.0369,0.0099,878,2019-08-07 16:15:30:587
4.9264,-8.4289,1.9034,-0.0993,0.1009,-0.0113,0.0293,-0.0369,0.0099,883,2019-08-07 16:15:30:592
4.9934,-8.3573,1.8563,-0.0993,0.1009,-0.0113,0.0399,-0.038,0.0184,888,2019-08-07 16:15:30:597
4.9934,-8.3573,1.8563,-0.1571,-0.0516,0.0756,0.0399,-0.038,0.0184,892,2019-08-07 16:15:30:601
4.9934,-8.3573,1.8563,-0.1571,-0.0516,0.0756,0.041,-0.0337,0.0205,898,2019-08-07 16:15:30:607
4.9503,-8.2093,1.9081,-0.1571,-0.0516,0.0756,0.041,-0.0337,0.0205,903,2019-08-07 16:15:30:612
4.9503,-8.2093,1.9081,-0.1571,-0.0516,0.0756,0.0399,-0.0348,0.0195,908,2019-08-07 16:15:30:617
4.7924,-8.2189,1.9411,0.0329,-0.1088,-0.0432,0.0399,-0.0348,0.0195,913,2019-08-07 16:15:30:622
4.7924,-8.2189,1.9411,0.0329,-0.1088,-0.0432,0.0399,-0.0348,0.0195,918,2019-08-07 16:15:30:627
4.7924,-8.2189,1.9411,0.0329,-0.1088,-0.0432,0.0239,-0.0635,0.0195,923,2019-08-07 16:15:30:632
4.802,-8.238,2.0118,0.0329,-0.1088,-0.0432,0.0239,-0.0635,0.0195,928,2019-08-07 16:15:30:637
4.802,-8.238,2.0118,-0.0202,-0.0382,-0.0746,0.008,-0.1168,0.0184,933,2019-08-07 16:15:30:642
4.802,-8.238,2.0118,-0.0202,-0.0382,-0.0746,0.008,-0.1168,0.0184,938,2019-08-07 16:15:30:647
4.9694,-8.3048,1.8893,-0.0202,-0.0382,-0.0746,0.0069,-0.1253,0.0216,942,2019-08-07 16:15:30:651
4.9694,-8.3048,1.8893,-0.0202,-0.0382,-0.0746,0.0069,-0.1253,0.0216,948,2019-08-07 16:15:30:657
4.9694,-8.3048,1.8893,-0.0202,-0.0382,-0.0746,0.0069,-0.1253,0.0216,953,2019-08-07 16:15:30:662
5.0986,-8.3334,1.7384,-0.2709,0.0042,0.1465,0.025,-0.0774,0.012,958,2019-08-07 16:15:30:667
5.0986,-8.3334,1.7384,-0.2709,0.0042,0.1465,0.025,-0.0774,0.012,963,2019-08-07 16:15:30:672
5.0699,-8.3287,1.7526,-0.2709,0.0042,0.1465,0.0378,-0.0114,0.0109,968,2019-08-07 16:15:30:677
5.0699,-8.3287,1.7526,-0.2709,0.0042,0.1465,0.0378,-0.0114,0.0109,972,2019-08-07 16:15:30:681
5.0699,-8.3287,1.7526,-0.2032,-0.0473,0.1021,0.0463,0.0462,0.0088,978,2019-08-07 16:15:30:687
4.9646,-8.2666,1.7714,-0.2032,-0.0473,0.1021,0.0495,0.0781,0.0035,983,2019-08-07 16:15:30:692
4.9646,-8.2666,1.7714,-0.2032,-0.0473,0.1021,0.0495,0.0781,0.0035,988,2019-08-07 16:15:30:697
4.9646,-8.2666,1.7714,-0.2032,-0.0473,0.1021,0.0495,0.0781,0.0035,993,2019-08-07 16:15:30:702
4.7206,-8.2427,2.0212,0.1048,-0.0838,-0.1184,0.0442,0.0728,-0.0082,998,2019-08-07 16:15:30:707
4.7206,-8.2427,2.0212,0.1048,-0.0838,-0.1184,0.0442,0.0728,-0.0082,1003,2019-08-07 16:15:30:712
4.5818,-8.3143,2.1344,0.1048,-0.0838,-0.1184,0.0282,0.0526,-0.0189,1008,2019-08-07 16:15:30:717
4.5818,-8.3143,2.1344,0.1048,-0.0838,-0.1184,0.0282,0.0526,-0.0189,1013,2019-08-07 16:15:30:722
4.5818,-8.3143,2.1344,0.2432,-0.067,-0.0455,0.0026,0.0121,-0.0295,1017,2019-08-07 16:15:30:726
4.5962,-8.2905,1.9694,0.2432,-0.067,-0.0455,0.0026,0.0121,-0.0295,1023,2019-08-07 16:15:30:732
4.5962,-8.2905,1.9694,0.2432,-0.067,-0.0455,-0.0176,-0.0124,-0.0444,1028,2019-08-07 16:15:30:737
4.6488,-8.3239,2.1391,0.2432,-0.067,-0.0455,-0.0176,-0.0124,-0.0444,1033,2019-08-07 16:15:30:742
4.6488,-8.3239,2.1391,0.2016,-0.0399,-0.1978,-0.0197,-0.0572,-0.0476,1037,2019-08-07 16:15:30:746
4.6488,-8.3239,2.1391,0.2016,-0.0399,-0.1978,-0.0197,-0.0572,-0.0476,1042,2019-08-07 16:15:30:751
4.8593,-8.3859,1.9317,0.2016,-0.0399,-0.1978,-0.0176,-0.0795,-0.0434,1048,2019-08-07 16:15:30:757
4.8593,-8.3859,1.9317,0.2016,-0.0399,-0.1978,-0.0176,-0.0795,-0.0434,1052,2019-08-07 16:15:30:761
4.8593,-8.3859,1.9317,-0.1947,0.0786,-0.0234,-0.008,-0.0721,-0.0455,1058,2019-08-07 16:15:30:767
5.0411,-8.3668,1.9741,-0.1947,0.0786,-0.0234,-0.008,-0.0721,-0.0455,1063,2019-08-07 16:15:30:772
5.0411,-8.3668,1.9741,-0.2608,0.0285,-0.0412,-0.008,-0.0721,-0.0455,1068,2019-08-07 16:15:30:777
5.132,-8.3048,2.0637,-0.2608,0.0285,-0.0412,0.0229,-0.054,-0.0253,1073,2019-08-07 16:15:30:782
5.132,-8.3048,2.0637,-0.2608,0.0285,-0.0412,0.0229,-0.054,-0.0253,1078,2019-08-07 16:15:30:787
5.132,-8.3096,1.8091,-0.2608,0.0285,-0.0412,0.0399,-0.0508,-0.0114,1083,2019-08-07 16:15:30:792
5.1415,-8.3096,1.8091,-0.287,0.0135,0.1186,0.0399,-0.0508,-0.0114,1088,2019-08-07 16:15:30:797
5.1415,-8.3096,1.8091,-0.287,0.0135,0.1186,0.0389,-0.022,0.0056,1092,2019-08-07 16:15:30:801
5.0746,-8.4098,1.8232,-0.287,0.0135,0.1186,0.0389,-0.022,0.0056,1098,2019-08-07 16:15:30:807
5.0746,-8.4098,1.8232,-0.287,0.0135,0.1186,0.0453,-0.0231,0.0248,1103,2019-08-07 16:15:30:812
5.0746,-8.4098,1.8232,-0.287,0.0135,0.1186,0.0453,-0.0231,0.0248,1108,2019-08-07 16:15:30:817
5.0028,-8.5244,1.8704,-0.1484,0.2147,0.0322,0.0655,-0.0082,0.0291,1113,2019-08-07 16:15:30:822
5.0028,-8.5244,1.8704,-0.1484,0.2147,0.0322,0.0655,-0.0082,0.0291,1117,2019-08-07 16:15:30:826
5.0028,-8.5244,1.8704,-0.1484,0.2147,0.0322,0.0655,-0.0082,0.0291,1123,2019-08-07 16:15:30:832
4.864,-8.8872,1.8232,0.0374,0.5907,0.0888,0.0772,0.027,0.0269,1127,2019-08-07 16:15:30:836
4.864,-8.8872,1.8232,0.0374,0.5907,0.0888,0.0772,0.027,0.0269,1134,2019-08-07 16:15:30:843
4.4956,-9.0065,1.9599,0.0374,0.5907,0.0888,0.0964,0.0483,0.0152,1139,2019-08-07 16:15:30:848
4.4956,-9.0065,1.9599,0.0374,0.5907,0.0888,0.0964,0.0483,0.0152,1143,2019-08-07 16:15:30:852
4.4956,-9.0065,1.9599,0.4831,0.7475,-0.175,0.0964,0.0483,0.0152,1148,2019-08-07 16:15:30:857
4.1942,-9.0543,2.0071,0.4831,0.7475,-0.175,0.123,0.0536,-8.0E-4,1152,2019-08-07 16:15:30:861
4.1942,-9.0543,2.0071,0.4831,0.7475,-0.175,0.123,0.0536,-8.0E-4,1158,2019-08-07 16:15:30:867
4.1942,-9.0543,2.0071,0.7518,0.7578,-0.1239,0.1358,0.0579,-0.0125,1163,2019-08-07 16:15:30:872
3.9119,-9.0543,2.1815,0.7518,0.7578,-0.1239,0.1358,0.0579,-0.0125,1168,2019-08-07 16:15:30:877
3.9119,-9.0543,2.1815,0.7518,0.7578,-0.1239,0.1433,0.0345,-0.0327,1173,2019-08-07 16:15:30:882
3.7014,-9.1068,2.1768,1.325,0.8329,-0.1751,0.1433,0.0345,-0.0327,1179,2019-08-07 16:15:30:888
3.7014,-9.1068,2.1768,1.325,0.8329,-0.1751,0.1369,0.0121,-0.0466,1182,2019-08-07 16:15:30:891
3.7014,-9.1068,2.1768,1.325,0.8329,-0.1751,0.1369,0.0121,-0.0466,1188,2019-08-07 16:15:30:897
3.2373,-9.3073,2.2286,1.325,0.8329,-0.1751,0.1166,-0.0593,-0.0508,1193,2019-08-07 16:15:30:902
3.2373,-9.3073,2.2286,1.8572,1.2412,-0.2313,0.1166,-0.0593,-0.0508,1198,2019-08-07 16:15:30:907
3.2373,-9.3073,2.2286,1.8572,1.2412,-0.2313,0.1166,-0.0593,-0.0508,1202,2019-08-07 16:15:30:911
3.2373,-9.3073,2.2286,1.8572,1.2412,-0.2313,0.0985,-0.1988,-0.0231,1208,2019-08-07 16:15:30:917
2.6919,-9.904,2.2616,2.1325,1.5984,-0.2674,0.0985,-0.1988,-0.0231,1213,2019-08-07 16:15:30:922
2.6919,-9.904,2.2616,2.1325,1.5984,-0.2674,0.1145,-0.3256,0.0141,1218,2019-08-07 16:15:30:927
2.6919,-9.904,2.2616,2.1325,1.5984,-0.2674,0.1145,-0.3256,0.0141,1223,2019-08-07 16:15:30:932
2.3283,-10.601,2.2758,2.6205,2.5352,-0.3967,0.1443,-0.4247,0.0504,1228,2019-08-07 16:15:30:937
2.3283,-10.601,2.2758,2.6205,2.5352,-0.3967,0.1443,-0.4247,0.0504,1232,2019-08-07 16:15:30:941
2.3283,-10.601,2.2758,2.6205,2.5352,-0.3967,0.2743,-0.593,0.1164,1238,2019-08-07 16:15:30:947
1.6776,-11.6321,2.733,2.6205,2.5352,-0.3967,0.2743,-0.593,0.1164,1242,2019-08-07 16:15:30:951
1.6776,-11.6321,2.733,3.3608,3.9249,-1.051,0.4021,-0.6793,0.1718,1248,2019-08-07 16:15:30:957
1.6776,-11.6321,2.733,3.3608,3.9249,-1.051,0.4021,-0.6793,0.1718,1253,2019-08-07 16:15:30:962
1.6776,-11.6321,2.733,3.3608,3.9249,-1.051,0.4021,-0.6793,0.1718,1258,2019-08-07 16:15:30:967
1.2231,-12.8638,3.0535,3.6216,4.7715,-0.997,0.5182,-0.7102,0.2251,1263,2019-08-07 16:15:30:972
1.2231,-12.8638,3.0535,3.6216,4.7715,-0.997,0.5182,-0.7102,0.2251,1268,2019-08-07 16:15:30:977
1.2231,-12.8638,3.0535,3.6216,4.7715,-0.997,0.7462,-0.5855,0.338,1273,2019-08-07 16:15:30:982
0.7351,-14.8926,2.139,3.6216,4.7715,-0.997,0.7462,-0.5855,0.338,1278,2019-08-07 16:15:30:987
0.7351,-14.8926,2.139,4.3497,7.1634,0.1708,0.8964,-0.2777,0.3689,1283,2019-08-07 16:15:30:992
0.7351,-14.8926,2.139,4.3497,7.1634,0.1708,0.8964,-0.2777,0.3689,1288,2019-08-07 16:15:30:997
-1.1355,-16.6208,0.904,5.8122,8.2568,1.1955,0.9987,0.0717,0.4062,1293,2019-08-07 16:15:31:002
-1.1355,-16.6208,0.904,5.8122,8.2568,1.1955,0.9987,0.0717,0.4062,1297,2019-08-07 16:15:31:006
-1.1355,-16.6208,0.904,5.8122,8.2568,1.1955,1.1872,1.1434,0.4562,1304,2019-08-07 16:15:31:013
-1.1355,-16.6208,0.904,5.8122,8.2568,1.1955,1.1872,1.1434,0.4562,1308,2019-08-07 16:15:31:017
-4.4128,-19.6283,-0.3451,9.2338,11.3995,2.5194,1.4248,1.9125,0.3923,1313,2019-08-07 16:15:31:022
-4.4128,-19.6283,-0.3451,9.2338,11.3995,2.5194,1.4248,1.9125,0.3923,1318,2019-08-07 16:15:31:027
-4.4128,-19.6283,-0.3451,9.2338,11.3995,2.5194,1.4248,1.9125,0.3923,1322,2019-08-07 16:15:31:031
-6.4939,-23.3375,1.8468,9.2338,11.3995,2.5194,1.7646,2.329,0.1899,1328,2019-08-07 16:15:31:037
-6.4939,-23.3375,1.8468,10.9093,15.8117,-0.556,1.7646,2.329,0.1899,1333,2019-08-07 16:15:31:042
-6.4939,-23.3375,1.8468,10.9093,15.8117,-0.556,1.7646,2.329,0.1899,1338,2019-08-07 16:15:31:047
-6.4939,-23.3375,1.8468,10.9093,15.8117,-0.556,1.7646,2.329,0.1899,1342,2019-08-07 16:15:31:051
-5.1304,-25.3616,4.1283,9.3636,17.066,-1.0462,2.751,2.8851,-0.3789,1348,2019-08-07 16:15:31:057
-5.1304,-25.3616,4.1283,9.3636,17.066,-1.0462,2.751,2.8851,-0.3789,1353,2019-08-07 16:15:31:062
-5.1304,-25.3616,4.1283,9.3636,17.066,-1.0462,2.751,2.8851,-0.3789,1357,2019-08-07 16:15:31:066
-2.9392,-29.4958,-4.9175,6.9893,22.0614,9.6343,2.3697,4.6119,-1.1246,1364,2019-08-07 16:15:31:073
-2.9392,-29.4958,-4.9175,6.9893,22.0614,9.6343,2.3697,4.6119,-1.1246,1368,2019-08-07 16:15:31:077
-2.9392,-29.4958,-4.9175,6.9893,22.0614,9.6343,1.3768,6.3142,-1.5774,1373,2019-08-07 16:15:31:082
-4.6712,-31.2382,-9.0751,6.9893,22.0614,9.6343,1.3768,6.3142,-1.5774,1378,2019-08-07 16:15:31:087
-4.6712,-31.2382,-9.0751,11.2402,24.1889,17.6907,1.0743,7.3805,-1.8501,1383,2019-08-07 16:15:31:092
-4.6712,-31.2382,-9.0751,11.2402,24.1889,17.6907,1.0743,7.3805,-1.8501,1388,2019-08-07 16:15:31:097
-4.6712,-31.2382,-9.0751,11.2402,21.8068,14.6558,1.0743,7.3805,-1.8501,1393,2019-08-07 16:15:31:102
-9.9099,-29.5626,-9.7916,13.4347,21.8068,14.6558,1.2415,8.8687,-2.11,1398,2019-08-07 16:15:31:107
-9.9099,-29.5626,-9.7916,13.4347,21.8068,14.6558,3.3231,9.8498,-2.9803,1403,2019-08-07 16:15:31:112
-9.9099,-29.5626,-9.7916,13.4347,21.8068,14.6558,3.3231,9.8498,-2.9803,1407,2019-08-07 16:15:31:116
-3.2407,-21.3946,3.5579,5.0332,13.2899,0.9989,3.3231,9.8498,-2.9803,1412,2019-08-07 16:15:31:121
-3.2407,-21.3946,3.5579,5.0332,13.2899,0.9989,6.5934,8.645,-4.1095,1419,2019-08-07 16:15:31:128
-3.2407,-21.3946,3.5579,5.0332,13.2899,0.9989,6.5934,8.645,-4.1095,1423,2019-08-07 16:15:31:132
3.3233,-17.2557,5.1464,5.0332,13.2899,0.9989,8.5301,7.9717,-4.7763,1428,2019-08-07 16:15:31:137
3.3233,-17.2557,5.1464,-0.8796,7.5698,16.3324,8.5301,7.9717,-4.7763,1433,2019-08-07 16:15:31:142
3.3233,-17.2557,5.1464,-0.8796,7.5698,16.3324,11.2699,11.9196,-5.9226,1438,2019-08-07 16:15:31:147
1.2182,-5.6887,-15.0428,1.7649,-2.1477,23.8532,11.2699,11.9196,-5.9226,1443,2019-08-07 16:15:31:152
1.2182,-5.6887,-15.0428,1.7649,-2.1477,23.8532,11.2699,11.9196,-5.9226,1448,2019-08-07 16:15:31:157
1.2182,-5.6887,-15.0428,1.7649,-2.1477,23.8532,12.4055,14.1183,-5.5881,1453,2019-08-07 16:15:31:162
1.2182,-5.6887,-15.0428,1.7649,-2.1477,23.8532,12.4055,14.1183,-5.5881,1457,2019-08-07 16:15:31:166
-8.7665,84.6176,56.6683,18.8116,-116.543,-13.901,13.8649,12.8474,-4.0765,1463,2019-08-07 16:15:31:172
-8.7665,84.6176,56.6683,18.8116,-116.543,-13.901,13.8649,12.8474,-4.0765,1468,2019-08-07 16:15:31:177
-8.7665,84.6176,56.6683,18.8116,-116.543,-13.901,11.5437,4.8974,-3.432,1473,2019-08-07 16:15:31:182
-9.1579,76.545,-27.7888,18.8116,-116.543,-13.901,11.5437,4.8974,-3.432,1478,2019-08-07 16:15:31:187
-9.1579,76.545,-27.7888,6.9325,-55.4062,42.9543,5.3375,0.5511,-3.9678,1483,2019-08-07 16:15:31:192
-10.6458,62.8012,2.2523,6.9325,-55.4062,42.9543,5.3375,0.5511,-3.9678,1487,2019-08-07 16:15:31:196
-10.6458,62.8012,2.2523,6.9325,-55.4062,42.9543,-0.6695,-7.8847,-1.5784,1493,2019-08-07 16:15:31:202
-10.6458,62.8012,2.2523,6.9325,-55.4062,42.9543,-0.6695,-7.8847,-1.5784,1497,2019-08-07 16:15:31:206
-6.2778,54.9483,-3.7295,1.2757,-45.8046,27.7593,-0.6695,-7.8847,-1.5784,1502,2019-08-07 16:15:31:211
-6.2778,54.9483,-3.7295,1.2757,-45.8046,27.7593,-5.4686,-5.9225,4.059,1508,2019-08-07 16:15:31:217
22.1884,29.1458,-3.2534,1.2757,-45.8046,27.7593,-5.4686,-5.9225,4.059,1513,2019-08-07 16:15:31:222
22.1884,29.1458,-3.2534,1.2757,-45.8046,27.7593,-6.0108,-3.613,4.8632,1517,2019-08-07 16:15:31:226
22.1884,29.1458,-3.2534,1.2757,-45.8046,27.7593,-6.0108,-3.613,4.8632,1523,2019-08-07 16:15:31:232
23.2792,25.7086,16.9359,-21.7894,-27.3604,-7.3814,-6.667,-4.5696,4.9026,1527,2019-08-07 16:15:31:236
23.2792,25.7086,16.9359,-21.7894,-27.3604,-7.3814,-6.667,-4.5696,4.9026,1534,2019-08-07 16:15:31:243
23.2792,25.7086,16.9359,-21.7894,-27.3604,-7.3814,-6.5104,-2.5083,3.652,1538,2019-08-07 16:15:31:247
16.4713,18.4906,6.5702,-13.8602,-21.3597,-3.4864,-6.5104,-2.5083,3.652,1543,2019-08-07 16:15:31:252
16.4713,18.4906,6.5702,-13.8602,-21.3597,-3.4864,-5.5559,-2.0343,2.9958,1548,2019-08-07 16:15:31:257
16.4713,18.4906,6.5702,-13.8602,-21.3597,-3.4864,-5.5559,-2.0343,2.9958,1552,2019-08-07 16:15:31:261
6.831,13.8361,3.8032,-13.8602,-21.3597,-3.4864,-5.5559,-2.0343,2.9958,1558,2019-08-07 16:15:31:267
6.831,13.8361,3.8032,-1.3919,-14.898,7.3585,-5.0414,-1.867,2.787,1563,2019-08-07 16:15:31:272
2.1425,8.6518,0.5601,-1.3919,-14.898,7.3585,-5.0414,-1.867,2.787,1568,2019-08-07 16:15:31:277
2.1425,8.6518,0.5601,-1.3919,-14.898,7.3585,-5.4313,-1.9128,2.6411,1572,2019-08-07 16:15:31:281
2.1425,8.6518,0.5601,0.8389,-11.0551,7.7045,-5.4313,-1.9128,2.6411,1578,2019-08-07 16:15:31:287
1.0612,3.5485,3.0867,0.8389,-11.0551,7.7045,-6.1908,-3.3275,2.4483,1583,2019-08-07 16:15:31:292
1.0612,3.5485,3.0867,0.8389,-11.0551,7.7045,-6.1908,-3.3275,2.4483,1588,2019-08-07 16:15:31:297
-0.1492,0.479,5.75,3.2352,-5.3879,1.0156,-6.406,-4.4013,2.3087,1593,2019-08-07 16:15:31:302
-0.1492,0.479,5.75,3.2352,-5.3879,1.0156,-6.406,-4.4013,2.3087,1597,2019-08-07 16:15:31:306
-0.1492,0.479,5.75,3.2352,-5.3879,1.0156,-6.1141,-5.8234,2.2118,1603,2019-08-07 16:15:31:312
-0.1492,0.479,5.75,3.2352,-5.3879,1.0156,-6.1141,-5.8234,2.2118,1608,2019-08-07 16:15:31:317
-2.5652,-4.5001,6.5325,6.3761,1.3056,2.5778,-5.8478,-6.4349,2.3119,1612,2019-08-07 16:15:31:321
-2.5652,-4.5001,6.5325,6.3761,1.3056,2.5778,-5.8478,-6.4349,2.3119,1618,2019-08-07 16:15:31:327
-2.5652,-4.5001,6.5325,6.3761,1.3056,2.5778,-5.8478,-6.4349,2.3119,1623,2019-08-07 16:15:31:332
-3.6273,-12.3865,2.3608,6.9526,5.3134,3.5679,-5.6369,-6.5649,2.476,1628,2019-08-07 16:15:31:337
-3.6273,-12.3865,2.3608,6.9526,5.3134,3.5679,-5.6369,-6.5649,2.476,1633,2019-08-07 16:15:31:342
-3.6273,-12.3865,2.3608,6.9526,5.3134,3.5679,-5.6369,-6.5649,2.476,1638,2019-08-07 16:15:31:347
-3.2972,-34.1264,-4.1396,5.7686,30.7183,7.3263,-5.4345,-6.7289,2.4547,1643,2019-08-07 16:15:31:352
-3.2972,-34.1264,-4.1396,5.7686,30.7183,7.3263,-5.4345,-6.7289,2.4547,1648,2019-08-07 16:15:31:357
1.8267,-33.143,-0.4062,5.7686,30.7183,7.3263,-5.3333,-6.0344,1.6472,1653,2019-08-07 16:15:31:362
1.8267,-33.143,-0.4062,5.7686,30.7183,7.3263,-5.3333,-6.0344,1.6472,1657,2019-08-07 16:15:31:366
1.8267,-33.143,-0.4062,2.5994,10.1777,0.0038,-5.3333,-6.0344,1.6472,1663,2019-08-07 16:15:31:372
0.1905,-17.1507,2.5682,2.5994,10.1777,0.0038,-3.8291,-5.5294,0.6789,1668,2019-08-07 16:15:31:377
0.1905,-17.1507,2.5682,2.5994,10.1777,0.0038,-3.8291,-5.5294,0.6789,1673,2019-08-07 16:15:31:382
0.1905,-17.1507,2.5682,7.2606,7.7685,4.1617,-2.1375,-5.1353,0.4807,1678,2019-08-07 16:15:31:387
-5.1296,-18.2248,-3.8945,7.2606,7.7685,4.1617,-2.1375,-5.1353,0.4807,1683,2019-08-07 16:15:31:392
-5.1296,-18.2248,-3.8945,7.2606,7.7685,4.1617,-1.2331,-4.2202,1.3383,1688,2019-08-07 16:15:31:397
-6.2826,-23.5238,-7.3073,7.2606,7.7685,4.1617,-1.2331,-4.2202,1.3383,1693,2019-08-07 16:15:31:402
-6.2826,-23.5238,-7.3073,8.5072,16.1422,9.8879,-1.4269,-3.3478,1.7431,1698,2019-08-07 16:15:31:407
-6.2826,-23.5238,-7.3073,8.5072,16.1422,9.8879,-1.4269,-3.3478,1.7431,1703,2019-08-07 16:15:31:412
-6.4213,-23.7338,-5.4689,8.5072,16.1422,9.8879,-1.4269,-3.3478,1.7431,1708,2019-08-07 16:15:31:417
-6.4213,-23.7338,-5.4689,8.5072,16.1422,9.8879,-1.3172,-2.3943,1.6397,1713,2019-08-07 16:15:31:422
-7.6939,-23.3615,-0.8305,11.2748,14.5845,3.7425,-1.3172,-2.3943,1.6397,1718,2019-08-07 16:15:31:427
-7.6939,-23.3615,-0.8305,11.2748,14.5845,3.7425,-0.2658,-0.6718,1.1082,1723,2019-08-07 16:15:31:432
-7.6939,-23.3615,-0.8305,11.2748,14.5845,3.7425,-0.2658,-0.6718,1.1082,1728,2019-08-07 16:15:31:437
-6.2921,-20.607,4.9345,11.2748,14.5845,3.7425,1.0647,0.1239,0.4733,1733,2019-08-07 16:15:31:442
-6.2921,-20.607,4.9345,9.3666,9.8192,-4.2015,1.0647,0.1239,0.4733,1738,2019-08-07 16:15:31:447
-5.9189,-17.2462,4.9581,9.3666,9.8192,-4.2015,2.327,0.354,-0.1595,1742,2019-08-07 16:15:31:451
-5.9189,-17.2462,4.9581,9.3666,9.8192,-4.2015,2.327,0.354,-0.1595,1748,2019-08-07 16:15:31:457
-5.9189,-17.2462,4.9581,9.3666,9.8192,-4.2015,1.9638,1.7623,-0.6847,1753,2019-08-07 16:15:31:462
-5.9189,-17.2462,4.9581,9.3666,9.8192,-4.2015,1.9638,1.7623,-0.6847,1758,2019-08-07 16:15:31:467
-5.364,-12.6443,-2.6123,8.821,3.7084,4.7184,0.8058,1.8529,-0.9755,1762,2019-08-07 16:15:31:471
-5.364,-12.6443,-2.6123,8.821,3.7084,4.7184,0.8058,1.8529,-0.9755,1768,2019-08-07 16:15:31:477
-5.364,-12.6443,-2.6123,8.821,3.7084,4.7184,0.8058,1.8529,-0.9755,1773,2019-08-07 16:15:31:482
-7.9187,-8.5579,5.4719,11.59,-0.5144,-4.5514,0.0506,0.598,-1.0106,1778,2019-08-07 16:15:31:487
-7.9187,-8.5579,5.4719,11.59,-0.5144,-4.5514,0.0506,0.598,-1.0106,1783,2019-08-07 16:15:31:492
-7.9187,-8.5579,5.4719,11.59,-0.5144,-4.5514,0.2231,-1.3227,-0.7667,1788,2019-08-07 16:15:31:497
-4.4215,-9.0066,6.2449,11.59,-0.5144,-4.5514,0.2231,-1.3227,-0.7667,1793,2019-08-07 16:15:31:502
-4.4215,-9.0066,6.2449,3.9524,1.1965,-1.4895,0.1656,-2.8098,-0.7379,1798,2019-08-07 16:15:31:507
-4.4215,-9.0066,6.2449,3.9524,1.1965,-1.4895,0.1656,-2.8098,-0.7379,1803,2019-08-07 16:15:31:512
-4.4215,-9.0066,6.2449,3.9524,1.1965,-1.4895,0.1656,-2.8098,-0.7379,1808,2019-08-07 16:15:31:517
4.0084,-10.0759,2.0355,-0.216,1.3026,0.1742,-0.1785,-3.8367,-0.9968,1813,2019-08-07 16:15:31:522
4.0084,-10.0759,2.0355,-0.216,1.3026,0.1742,-0.1785,-3.8367,-0.9968,1818,2019-08-07 16:15:31:527
4.0084,-10.0759,2.0355,-0.216,1.3026,0.1742,-0.1231,-4.461,-1.2631,1823,2019-08-07 16:15:31:532
7.8501,-8.0948,1.319,-4.4486,-0.6857,0.9477,-0.1231,-4.461,-1.2631,1828,2019-08-07 16:15:31:537
7.8501,-8.0948,1.319,-4.4486,-0.6857,0.9477,0.2455,-4.4993,-0.9403,1833,2019-08-07 16:15:31:542
7.8501,-8.0948,1.319,-4.4486,-0.6857,0.9477,0.2455,-4.4993,-0.9403,1837,2019-08-07 16:15:31:546
7.8501,-8.0948,1.319,-4.4486,-0.6857,0.9477,0.2455,-4.4993,-0.9403,1843,2019-08-07 16:15:31:552
10.0126,-7.9182,-1.9194,-6.014,-0.4543,5.3029,0.547,-3.8197,-0.4716,1848,2019-08-07 16:15:31:557
10.0126,-7.9182,-1.9194,-6.014,-0.4543,5.3029,0.564,-1.1235,0.55,1853,2019-08-07 16:15:31:562
10.0126,-7.9182,-1.9194,-6.014,-0.4543,5.3029,0.564,-1.1235,0.55,1857,2019-08-07 16:15:31:566
12.1129,-8.2571,-4.1679,-7.6206,-0.3396,5.6348,0.564,-1.1235,0.55,1863,2019-08-07 16:15:31:572
12.1129,-8.2571,-4.1679,-7.6206,-0.3396,5.6348,0.1944,1.0124,0.6096,1868,2019-08-07 16:15:31:577
12.1129,-8.2571,-4.1679,-7.6206,-0.3396,5.6348,0.1944,1.0124,0.6096,1873,2019-08-07 16:15:31:582
10.7685,-6.8059,-3.1261,-4.441,-2.5942,2.6403,-0.2008,2.2033,0.3508,1878,2019-08-07 16:15:31:587
10.7685,-6.8059,-3.1261,-4.441,-2.5942,2.6403,-0.2008,2.2033,0.3508,1882,2019-08-07 16:15:31:591
4.7691,-5.4501,2.4079,-4.441,-2.5942,2.6403,-0.5513,2.8574,0.011,1888,2019-08-07 16:15:31:597
4.7691,-5.4501,2.4079,-4.441,-2.5942,2.6403,-0.5513,2.8574,0.011,1892,2019-08-07 16:15:31:601
4.7691,-5.4501,2.4079,1.4216,-2.0774,-1.3497,-0.4821,2.7242,0.0365,1898,2019-08-07 16:15:31:607
2.7836,-6.9491,3.3507,1.4216,-2.0774,-1.3497,-0.4821,2.7242,0.0365,1903,2019-08-07 16:15:31:612
2.7836,-6.9491,3.3507,1.4216,-2.0774,-1.3497,-0.4821,2.7242,0.0365,1908,2019-08-07 16:15:31:617
1.645,-8.176,4.3783,1.4216,-2.0774,-1.3497,-0.4267,2.0787,-0.0221,1913,2019-08-07 16:15:31:622
1.645,-8.176,4.3783,2.9257,-0.2465,-2.3626,-0.4267,2.0787,-0.0221,1918,2019-08-07 16:15:31:627
1.645,-8.176,4.3783,2.9257,-0.2465,-2.3626,-0.301,1.0358,-0.1488,1923,2019-08-07 16:15:31:632
1.1713,-8.5817,4.4348,2.9257,-0.2465,-2.3626,-0.301,1.0358,-0.1488,1928,2019-08-07 16:15:31:637
1.1713,-8.5817,4.4348,2.9257,-0.2465,-2.3626,-0.171,0.1463,-0.2085,1933,2019-08-07 16:15:31:642
2.0469,-8.9016,4.02,2.173,0.2474,-2.1401,-0.171,0.1463,-0.2085,1938,2019-08-07 16:15:31:647
2.0469,-8.9016,4.02,2.173,0.2474,-2.1401,-0.0741,-0.6612,-0.2213,1944,2019-08-07 16:15:31:653
2.0469,-8.9016,4.02,2.173,0.2474,-2.1401,-0.0741,-0.6612,-0.2213,1948,2019-08-07 16:15:31:657
3.994,-8.8825,2.8133,2.173,0.2474,-2.1401,-0.0741,-0.6612,-0.2213,1952,2019-08-07 16:15:31:661
3.994,-8.8825,2.8133,2.173,0.2474,-2.1401,-0.0741,-0.6612,-0.2213,1958,2019-08-07 16:15:31:667
5.8168,-8.6247,1.5689,-0.9277,0.111,-0.2134,-0.0165,-1.0915,-0.2053,1963,2019-08-07 16:15:31:672
5.8168,-8.6247,1.5689,-0.9277,0.111,-0.2134,-0.0165,-1.0915,-0.2053,1968,2019-08-07 16:15:31:677
5.8168,-8.6247,1.5689,-0.9277,0.111,-0.2134,-0.0219,-0.6494,-0.2032,1972,2019-08-07 16:15:31:681
6.544,-8.3526,0.9278,-2.4064,-0.3487,0.9354,-0.0219,-0.6494,-0.2032,1978,2019-08-07 16:15:31:687
6.544,-8.3526,0.9278,-2.4064,-0.3487,0.9354,-0.0581,-0.1253,-0.2,1983,2019-08-07 16:15:31:692
6.544,-8.3526,0.9278,-2.4064,-0.3487,0.9354,-0.0581,-0.1253,-0.2,1987,2019-08-07 16:15:31:696
6.745,-8.1855,0.8429,-2.3557,-0.4187,0.8712,-0.0986,0.2922,-0.216,1993,2019-08-07 16:15:31:702
6.745,-8.1855,0.8429,-2.3557,-0.4187,0.8712,-0.0986,0.2922,-0.216,1998,2019-08-07 16:15:31:707
5.415,-7.985,1.7386,-2.3557,-0.4187,0.8712,-0.171,0.81,-0.2245,2003,2019-08-07 16:15:31:712
5.415,-7.985,1.7386,-2.3557,-0.4187,0.8712,-0.171,0.81,-0.2245,2007,2019-08-07 16:15:31:716
5.415,-7.985,1.7386,-0.4479,-0.5943,-0.2497,-0.171,0.81,-0.2245,2012,2019-08-07 16:15:31:721
4.3529,-8.1998,2.0025,-0.4479,-0.5943,-0.2497,-0.2115,0.8281,-0.2,2018,2019-08-07 16:15:31:727
4.3529,-8.1998,2.0025,-0.4479,-0.5943,-0.2497,-0.2115,0.8281,-0.2,2022,2019-08-07 16:15:31:731
4.3529,-8.1998,2.0025,-0.4479,-0.5943,-0.2497,-0.2477,0.6917,-0.1829,2028,2019-08-07 16:15:31:737
3.8697,-8.6724,1.8705,0.5536,0.0974,-0.0985,-0.2477,0.6917,-0.1829,2033,2019-08-07 16:15:31:742
3.8697,-8.6724,1.8705,0.5536,0.0974,-0.0985,-0.2637,0.2699,-0.1435,2037,2019-08-07 16:15:31:746
3.8697,-8.6724,1.8705,0.5536,0.0974,-0.0985,-0.2637,0.2699,-0.1435,2043,2019-08-07 16:15:31:752
3.8218,-9.0687,1.6537,0.6059,0.4946,0.1117,-0.2637,0.2699,-0.1435,2048,2019-08-07 16:15:31:757
3.8218,-9.0687,1.6537,0.6059,0.4946,0.1117,-0.2093,-0.0092,-0.1084,2052,2019-08-07 16:15:31:761
4.1519,-9.4219,1.7668,0.6059,0.4946,0.1117,-0.2093,-0.0092,-0.1084,2058,2019-08-07 16:15:31:767
4.1519,-9.4219,1.7668,0.1695,0.795,-0.0135,-0.1369,-0.1679,-0.0647,2062,2019-08-07 16:15:31:771
4.1519,-9.4219,1.7668,0.1695,0.795,-0.0135,-0.1369,-0.1679,-0.0647,2068,2019-08-07 16:15:31:777
4.1519,-9.4219,1.7668,0.1695,0.795,-0.0135,-0.1369,-0.1679,-0.0647,2073,2019-08-07 16:15:31:782
4.9318,-9.1832,1.1258,0.1695,0.795,-0.0135,-0.0645,-0.1062,-0.0476,2078,2019-08-07 16:15:31:787
4.9318,-9.1832,1.1258,-0.7011,0.2856,0.6393,-0.0645,-0.1062,-0.0476,2082,2019-08-07 16:15:31:791
5.1375,-8.6343,1.0126,-0.7011,0.2856,0.6393,-0.0272,0.0941,-0.0668,2088,2019-08-07 16:15:31:797
5.1375,-8.6343,1.0126,-0.642,0.0116,0.7312,-0.0272,0.0941,-0.0668,2093,2019-08-07 16:15:31:802
5.1375,-8.6343,1.0126,-0.642,0.0116,0.7312,-0.0101,0.2688,-0.0849,2097,2019-08-07 16:15:31:806
4.9222,-8.3812,1.253,-0.642,0.0116,0.7312,-0.0101,0.2688,-0.0849,2103,2019-08-07 16:15:31:812
4.9222,-8.3812,1.253,-0.642,0.0116,0.7312,-0.0101,0.2688,-0.0849,2107,2019-08-07 16:15:31:816
4.3194,-8.2619,1.6349,0.017,-0.3034,0.2158,-0.0112,0.4361,-0.1169,2113,2019-08-07 16:15:31:822
4.3194,-8.2619,1.6349,0.017,-0.3034,0.2158,-0.0112,0.4361,-0.1169,2117,2019-08-07 16:15:31:826
4.3194,-8.2619,1.6349,0.017,-0.3034,0.2158,-0.0069,0.3998,-0.1584,2123,2019-08-07 16:15:31:832
3.7166,-8.1664,1.8611,0.017,-0.3034,0.2158,-0.0069,0.3998,-0.1584,2127,2019-08-07 16:15:31:836
3.7166,-8.1664,1.8611,0.9253,-0.3056,-0.2284,0.0037,0.1921,-0.1574,2133,2019-08-07 16:15:31:842
3.6544,-8.3144,2.2194,0.9253,-0.3056,-0.2284,0.0037,0.1921,-0.1574,2138,2019-08-07 16:15:31:847
3.6544,-8.3144,2.2194,0.7915,-0.2179,-0.4667,0.0229,-0.0305,-0.1638,2143,2019-08-07 16:15:31:852
3.6544,-8.3144,2.2194,0.7915,-0.2179,-0.4667,0.0229,-0.0305,-0.1638,2148,2019-08-07 16:15:31:857
4.1854,-8.2905,1.9978,0.7915,-0.2179,-0.4667,0.0719,-0.3948,-0.1744,2152,2019-08-07 16:15:31:861
4.1854,-8.2905,1.9978,0.7915,-0.2179,-0.4667,0.0719,-0.3948,-0.1744,2158,2019-08-07 16:15:31:867
4.9796,-8.1903,1.7433,-0.4504,-0.3336,0.0075,0.0719,-0.3948,-0.1744,2163,2019-08-07 16:15:31:872
4.9796,-8.1903,1.7433,-0.4504,-0.3336,0.0075,0.0751,-0.5088,-0.1787,2168,2019-08-07 16:15:31:877
4.9796,-8.1903,1.7433,-0.4504,-0.3336,0.0075,0.0751,-0.5088,-0.1787,2173,2019-08-07 16:15:31:882
5.8025,-7.985,1.6254,-0.4504,-0.3336,0.0075,0.0708,-0.4737,-0.168,2178,2019-08-07 16:15:31:887
5.8025,-7.985,1.6254,-1.6003,-0.5683,0.1581,0.0708,-0.4737,-0.168,2183,2019-08-07 16:15:31:892
5.8025,-7.985,1.6254,-1.6003,-0.5683,0.1581,0.0463,-0.2585,-0.1393,2187,2019-08-07 16:15:31:896
6.3192,-7.9468,1.3379,-1.7729,-0.5815,0.3835,0.0463,-0.2585,-0.1393,2193,2019-08-07 16:15:31:902
6.3192,-7.9468,1.3379,-1.7729,-0.5815,0.3835,0.0101,-0.0241,-0.1137,2198,2019-08-07 16:15:31:907
6.3192,-7.9468,1.3379,-1.7729,-0.5815,0.3835,0.0101,-0.0241,-0.1137,2203,2019-08-07 16:15:31:912
6.3192,-8.0423,1.5877,-1.7729,-0.5815,0.3835,-0.0314,0.1761,-0.0924,2207,2019-08-07 16:15:31:916
6.0848,-8.0423,1.5877,-1.1613,-0.3751,-0.1286,-0.0314,0.1761,-0.0924,2213,2019-08-07 16:15:31:922
6.0848,-8.0423,1.5877,-1.1613,-0.3751,-0.1286,-0.0314,0.1761,-0.0924,2218,2019-08-07 16:15:31:927
6.0848,-8.0423,1.5877,-1.1613,-0.3751,-0.1286,-0.0421,0.3157,-0.0785,2223,2019-08-07 16:15:31:932
5.2476,-8.1521,2.2429,-0.606,-0.3175,-0.5229,-0.0421,0.3157,-0.0785,2227,2019-08-07 16:15:31:936
5.2476,-8.1521,2.2429,-0.606,-0.3175,-0.5229,-0.0453,0.2859,-0.0604,2234,2019-08-07 16:15:31:943
5.2476,-8.1521,2.2429,-0.606,-0.3175,-0.5229,-0.0453,0.2859,-0.0604,2237,2019-08-07 16:15:31:946
4.5873,-8.2619,2.4692,0.1046,-0.1733,-0.7607,-0.0677,0.1527,-0.053,2243,2019-08-07 16:15:31:952
4.5873,-8.2619,2.4692,0.1046,-0.1733,-0.7607,-0.0677,0.1527,-0.053,2249,2019-08-07 16:15:31:958
4.5873,-8.2619,2.4692,0.1046,-0.1733,-0.7607,-0.0815,-0.0444,-0.0476,2253,2019-08-07 16:15:31:962
4.5873,-8.2619,2.4692,0.1046,-0.1733,-0.7607,-0.0815,-0.0444,-0.0476,2257,2019-08-07 16:15:31:966
4.6495,-8.4433,2.4786,-0.2742,0.0109,-0.4974,-0.073,-0.1477,-0.0434,2263,2019-08-07 16:15:31:972
4.6495,-8.4433,2.4786,-0.2742,0.0109,-0.4974,-0.073,-0.1477,-0.0434,2267,2019-08-07 16:15:31:976
4.6495,-8.4433,2.4786,-0.2742,0.0109,-0.4974,-0.073,-0.1477,-0.0434,2273,2019-08-07 16:15:31:982
5.2667,-8.4338,2.0261,-0.6059,-0.0254,-0.3068,-0.0613,-0.1701,-0.0402,2277,2019-08-07 16:15:31:986
5.2667,-8.4338,2.0261,-0.6059,-0.0254,-0.3068,-0.0613,-0.1701,-0.0402,2284,2019-08-07 16:15:31:993
5.6255,-8.1998,1.748,-0.6059,-0.0254,-0.3068,-0.057,-0.0348,-0.0146,2287,2019-08-07 16:15:31:996
5.6255,-8.1998,1.748,-0.6059,-0.0254,-0.3068,-0.057,-0.0348,-0.0146,2293,2019-08-07 16:15:32:002
5.6255,-8.1998,1.748,-0.9893,-0.3175,0.0423,-0.0751,0.1378,3.0E-4,2297,2019-08-07 16:15:32:006
5.6782,-8.0423,1.6207,-0.9893,-0.3175,0.0423,-0.0751,0.1378,3.0E-4,2303,2019-08-07 16:15:32:012
5.6782,-8.0423,1.6207,-0.9893,-0.3175,0.0423,-0.0975,0.2464,3.0E-4,2307,2019-08-07 16:15:32:016
5.3289,-8.1426,1.8281,-0.6538,-0.3119,-0.125,-0.0975,0.2464,3.0E-4,2313,2019-08-07 16:15:32:022
5.3289,-8.1426,1.8281,-0.6538,-0.3119,-0.125,-0.1209,0.3615,-0.0178,2317,2019-08-07 16:15:32:026
5.3289,-8.1426,1.8281,-0.6538,-0.3119,-0.125,-0.1209,0.3615,-0.0178,2323,2019-08-07 16:15:32:032
4.8792,-8.2142,1.9978,-0.2073,-0.2406,-0.2873,-0.1231,0.3679,-0.0199,2328,2019-08-07 16:15:32:037
4.8792,-8.2142,1.9978,-0.2073,-0.2406,-0.2873,-0.1231,0.3679,-0.0199,2333,2019-08-07 16:15:32:042
4.8792,-8.2142,1.9978,-0.2073,-0.2406,-0.2873,-0.1231,0.3679,-0.0199,2338,2019-08-07 16:15:32:047
4.4821,-8.4385,2.1534,-0.2073,-0.2406,-0.2873,-0.1113,0.2667,-0.0242,2343,2019-08-07 16:15:32:052
4.4821,-8.4385,2.1534,0.2587,-0.013,-0.4199,-0.1113,0.2667,-0.0242,2348,2019-08-07 16:15:32:057
4.4821,-8.4385,2.1534,0.2587,-0.013,-0.4199,-0.0709,0.0643,-0.0317,2353,2019-08-07 16:15:32:062
4.4008,-8.3956,2.1675,0.2587,-0.013,-0.4199,-0.0709,0.0643,-0.0317,2357,2019-08-07 16:15:32:066
4.4008,-8.3956,2.1675,0.0971,-0.1367,-0.4257,-0.0346,-0.071,-0.0306,2364,2019-08-07 16:15:32:073
4.4008,-8.3956,2.1675,0.0971,-0.1367,-0.4257,-0.0346,-0.071,-0.0306,2368,2019-08-07 16:15:32:077
4.4008,-8.3956,2.1675,0.0971,-0.1367,-0.4257,-0.0346,-0.071,-0.0306,2373,2019-08-07 16:15:32:082
4.8218,-8.2237,1.9413,0.0971,-0.1367,-0.4257,-0.0165,-0.1264,-0.0359,2378,2019-08-07 16:15:32:087
4.8218,-8.2237,1.9413,-0.4978,-0.4095,0.0786,-0.0165,-0.1264,-0.0359,2383,2019-08-07 16:15:32:092
4.8218,-8.2237,1.9413,-0.4978,-0.4095,0.0786,-0.0474,-0.136,-0.0317,2388,2019-08-07 16:15:32:097
5.3385,-7.9707,1.5359,-0.4978,-0.4095,0.0786,-0.0474,-0.136,-0.0317,2393,2019-08-07 16:15:32:102
5.3385,-7.9707,1.5359,-0.4978,-0.4095,0.0786,-0.0879,-0.0731,-0.0072,2398,2019-08-07 16:15:32:107
5.3385,-7.9707,1.5359,-0.4978,-0.4095,0.0786,-0.0879,-0.0731,-0.0072,2403,2019-08-07 16:15:32:112
5.726,-8.0805,1.385,-1.035,-0.3687,0.3008,-0.1092,0.0068,0.0056,2408,2019-08-07 16:15:32:117
5.726,-8.0805,1.385,-1.035,-0.3687,0.3008,-0.1092,0.0068,0.0056,2413,2019-08-07 16:15:32:122
5.6973,-8.2428,1.4133,-1.035,-0.3687,0.3008,-0.1092,0.0068,0.0056,2417,2019-08-07 16:15:32:126
5.6973,-8.2428,1.4133,-1.035,-0.3687,0.3008,-0.1316,0.1591,0.0312,2423,2019-08-07 16:15:32:132
5.6973,-8.2428,1.4133,-0.8722,-0.1567,0.3143,-0.1316,0.1591,0.0312,2427,2019-08-07 16:15:32:136
5.4294,-8.3812,1.451,-0.8722,-0.1567,0.3143,-0.1263,0.2187,0.044,2433,2019-08-07 16:15:32:142
5.4294,-8.3812,1.451,-0.8722,-0.1567,0.3143,-0.1263,0.2187,0.044,2437,2019-08-07 16:15:32:146
5.0993,-8.3621,1.6726,-0.8722,-0.1567,0.3143,-0.1103,0.2102,0.0525,2443,2019-08-07 16:15:32:152
5.0993,-8.3621,1.6726,-0.2762,-0.1443,0.0018,-0.1103,0.2102,0.0525,2447,2019-08-07 16:15:32:156
5.0993,-8.3621,1.6726,-0.2762,-0.1443,0.0018,-0.1103,0.2102,0.0525,2453,2019-08-07 16:15:32:162
4.8122,-8.324,1.6726,-0.1403,-0.1389,-0.0028,-0.0783,0.1282,0.0685,2458,2019-08-07 16:15:32:167
4.8122,-8.324,1.6726,-0.1403,-0.1389,-0.0028,-0.0783,0.1282,0.0685,2463,2019-08-07 16:15:32:172
4.6639,-8.3096,1.7197,-0.1403,-0.1389,-0.0028,-0.0549,0.0387,0.0525,2469,2019-08-07 16:15:32:178
4.6639,-8.3096,1.7197,-0.1403,-0.1389,-0.0028,-0.0549,0.0387,0.0525,2473,2019-08-07 16:15:32:182
4.6639,-8.3096,1.7197,0.011,-0.1083,-0.0963,-0.0549,0.0387,0.0525,2478,2019-08-07 16:15:32:187
4.6536,-8.3287,1.7007,0.011,-0.1083,-0.0963,-0.0304,0.0206,0.0163,2483,2019-08-07 16:15:32:192
4.6536,-8.3287,1.7007,0.011,-0.1083,-0.0963,-0.0304,0.0206,0.0163,2487,2019-08-07 16:15:32:196
4.6536,-8.3287,1.7007,0.011,-0.1083,-0.0963,-0.0229,0.0025,-0.0061,2492,2019-08-07 16:15:32:201
4.6919,-8.2761,1.8233,-0.0331,-0.1954,-0.1606,-0.0229,0.0025,-0.0061,2498,2019-08-07 16:15:32:207
4.6919,-8.2761,1.8233,-0.0331,-0.1954,-0.1606,-0.0272,-0.0156,-0.0327,2503,2019-08-07 16:15:32:212
4.8545,-8.2332,1.8704,-0.1926,-0.237,-0.2094,-0.0272,-0.0156,-0.0327,2507,2019-08-07 16:15:32:216
4.8545,-8.2332,1.8704,-0.1926,-0.237,-0.2094,-0.0453,-0.0241,-0.0476,2513,2019-08-07 16:15:32:222
4.8545,-8.2332,1.8704,-0.1926,-0.237,-0.2094,-0.0453,-0.0241,-0.0476,2518,2019-08-07 16:15:32:227
5.1463,-8.1711,1.8374,-0.1926,-0.237,-0.2094,-0.0453,-0.0241,-0.0476,2522,2019-08-07 16:15:32:231
5.1463,-8.1711,1.8374,-0.6587,-0.2751,-0.1485,-0.0719,-0.038,-0.0508,2528,2019-08-07 16:15:32:237
5.5626,-8.1902,1.8044,-0.6587,-0.2751,-0.1485,-0.0719,-0.038,-0.0508,2533,2019-08-07 16:15:32:242
5.5626,-8.1902,1.8044,-0.6587,-0.2751,-0.1485,-0.0879,-0.0337,-0.0498,2538,2019-08-07 16:15:32:247
5.5626,-8.1902,1.8044,-0.6587,-0.2751,-0.1485,-0.0879,-0.0337,-0.0498,2543,2019-08-07 16:15:32:252
5.8066,-8.1759,1.6111,-1.1168,-0.2841,0.0228,-0.089,-0.0177,-0.0157,2548,2019-08-07 16:15:32:257
5.8066,-8.1759,1.6111,-1.1168,-0.2841,0.0228,-0.089,-0.0177,-0.0157,2552,2019-08-07 16:15:32:261
5.8783,-8.2618,1.5027,-1.1849,-0.1978,0.1232,-0.0836,0.0377,0.0323,2558,2019-08-07 16:15:32:267
5.8783,-8.2618,1.5027,-1.1849,-0.1978,0.1232,-0.0836,0.0377,0.0323,2563,2019-08-07 16:15:32:272
5.8783,-8.2618,1.5027,-1.1849,-0.1978,0.1232,-0.0687,0.125,0.0706,2568,2019-08-07 16:15:32:277
5.8783,-8.2618,1.5027,-1.1849,-0.1978,0.1232,-0.0687,0.125,0.0706,2573,2019-08-07 16:15:32:282
5.6247,-8.3668,1.5074,-0.7325,-0.1261,0.0291,-0.0432,0.1665,0.0834,2578,2019-08-07 16:15:32:287
5.6247,-8.3668,1.5074,-0.7325,-0.1261,0.0291,-0.0432,0.1665,0.0834,2584,2019-08-07 16:15:32:293
5.065,-8.3525,1.6724,-0.7325,-0.1261,0.0291,-0.0432,0.1665,0.0834,2587,2019-08-07 16:15:32:296
5.065,-8.3525,1.6724,-0.7325,-0.1261,0.0291,-0.0176,0.1729,0.0887,2593,2019-08-07 16:15:32:302
5.065,-8.3525,1.6724,-0.1145,-0.0576,-0.0867,-0.0176,0.1729,0.0887,2598,2019-08-07 16:15:32:307
4.6774,-8.405,1.7808,-0.1145,-0.0576,-0.0867,-0.0176,0.1729,0.0887,2603,2019-08-07 16:15:32:312
4.6774,-8.405,1.7808,0.1389,-0.1283,-0.1781,-0.0165,0.1751,0.0749,2608,2019-08-07 16:15:32:317
4.4717,-8.3907,1.762,0.1389,-0.1283,-0.1781,-0.0165,0.1751,0.0749,2613,2019-08-07 16:15:32:322
4.4717,-8.3907,1.762,0.1389,-0.1283,-0.1781,-0.0165,0.1751,0.0749,2618,2019-08-07 16:15:32:327
4.4717,-8.3907,1.762,0.1389,-0.1283,-0.1781,-0.0389,0.1431,0.0269,2623,2019-08-07 16:15:32:332
4.4574,-8.3287,1.8845,0.1073,-0.1235,-0.191,-0.0389,0.1431,0.0269,2628,2019-08-07 16:15:32:337
4.4574,-8.3287,1.8845,0.1073,-0.1235,-0.191,-0.0474,0.1175,-0.0146,2632,2019-08-07 16:15:32:341
4.6966,-8.3525,1.8374,0.1073,-0.1235,-0.191,-0.0474,0.1175,-0.0146,2638,2019-08-07 16:15:32:347
4.6966,-8.3525,1.8374,0.1073,-0.1235,-0.191,-0.0506,0.1037,-0.0466,2643,2019-08-07 16:15:32:352
4.6966,-8.3525,1.8374,-0.239,-0.169,-0.0508,-0.0506,0.1037,-0.0466,2648,2019-08-07 16:15:32:357
4.8784,-8.2666,1.6865,-0.239,-0.169,-0.0508,-0.0506,0.1048,-0.07,2653,2019-08-07 16:15:32:362
4.8784,-8.2666,1.6865,-0.239,-0.169,-0.0508,-0.0506,0.1048,-0.07,2658,2019-08-07 16:15:32:367
4.8592,-8.1472,1.8562,-0.239,-0.169,-0.0508,-0.0485,0.0984,-0.0711,2663,2019-08-07 16:15:32:372
4.8592,-8.1472,1.8562,-0.2092,-0.3156,-0.1811,-0.0485,0.0984,-0.0711,2668,2019-08-07 16:15:32:377
4.8592,-8.1472,1.8562,-0.2092,-0.3156,-0.1811,-0.0485,0.0984,-0.0711,2672,2019-08-07 16:15:32:381
4.9501,-8.152,1.7007,-0.2092,-0.3156,-0.1811,-0.057,0.011,-0.0402,2678,2019-08-07 16:15:32:387
4.9501,-8.152,1.7007,-0.2092,-0.3156,-0.1811,-0.057,0.011,-0.0402,2683,2019-08-07 16:15:32:392
4.9501,-8.152,1.7007,-0.2092,-0.3156,-0.1811,-0.0634,-0.0849,-0.0072,2688,2019-08-07 16:15:32:397
5.175,-8.3668,1.663,-0.5064,-0.1028,-0.0181,-0.0634,-0.0849,-0.0072,2692,2019-08-07 16:15:32:401
5.175,-8.3668,1.663,-0.5064,-0.1028,-0.0181,-0.0549,-0.104,0.0152,2698,2019-08-07 16:15:32:407
5.175,-8.3668,1.663,-0.5064,-0.1028,-0.0181,-0.0549,-0.104,0.0152,2702,2019-08-07 16:15:32:411
5.3663,-8.5196,1.4838,-0.6552,0.0487,0.1517,-0.0378,-0.0604,0.028,2708,2019-08-07 16:15:32:417
5.3663,-8.5196,1.4838,-0.6552,0.0487,0.1517,-0.0378,-0.0604,0.028,2713,2019-08-07 16:15:32:422
5.3663,-8.5196,1.4838,-0.6552,0.0487,0.1517,-0.0378,-0.0604,0.028,2718,2019-08-07 16:15:32:427
5.3663,-8.5196,1.4838,-0.6552,0.0487,0.1517,-0.0378,-0.0604,0.028,2722,2019-08-07 16:15:32:431
5.2898,-8.5482,1.4414,-0.4557,0.0495,0.1443,-0.0197,0.0739,0.0557,2728,2019-08-07 16:15:32:437
5.2898,-8.5482,1.4414,-0.4557,0.0495,0.1443,-0.0197,0.0739,0.0557,2733,2019-08-07 16:15:32:442
5.2898,-8.5482,1.4414,-0.4557,0.0495,0.1443,-0.0261,0.2038,0.045,2738,2019-08-07 16:15:32:447
4.8879,-8.4528,1.564,-0.2275,-0.0244,0.0652,-0.0261,0.2038,0.045,2742,2019-08-07 16:15:32:451
4.8879,-8.4528,1.564,-0.2275,-0.0244,0.0652,-0.0304,0.2337,0.0184,2748,2019-08-07 16:15:32:457
4.8879,-8.4528,1.564,-0.2275,-0.0244,0.0652,-0.0304,0.2337,0.0184,2753,2019-08-07 16:15:32:462
4.4429,-8.3907,1.7431,-0.2275,-0.0244,0.0652,-0.0346,0.2081,0.0067,2758,2019-08-07 16:15:32:467
4.4429,-8.3907,1.7431,0.3309,-0.1037,-0.1687,-0.0346,0.2081,0.0067,2762,2019-08-07 16:15:32:471
4.2994,-8.4193,1.7997,0.3309,-0.1037,-0.1687,-0.0314,0.0771,-0.0104,2768,2019-08-07 16:15:32:477
4.2994,-8.4193,1.7997,0.3309,-0.1037,-0.1687,-0.0314,0.0771,-0.0104,2773,2019-08-07 16:15:32:482
4.2994,-8.4193,1.7997,0.3309,-0.1037,-0.1687,-0.0314,0.0771,-0.0104,2778,2019-08-07 16:15:32:487
4.4477,-8.3382,1.9222,0.1988,-0.1425,-0.2719,-0.0187,-0.0092,-0.0189,2782,2019-08-07 16:15:32:491
4.4477,-8.3382,1.9222,0.1988,-0.1425,-0.2719,-0.0187,-0.0092,-0.0189,2788,2019-08-07 16:15:32:497
4.6104,-8.2379,1.8091,0.0385,-0.242,-0.1614,-0.0101,-0.1189,-0.0146,2793,2019-08-07 16:15:32:502
4.6104,-8.2379,1.8091,0.0385,-0.242,-0.1614,-0.0101,-0.1189,-0.0146,2798,2019-08-07 16:15:32:507
4.6104,-8.2379,1.8091,0.0385,-0.242,-0.1614,5.0E-4,-0.1946,-0.004,2802,2019-08-07 16:15:32:511
5.0983,-8.1616,1.7148,0.0385,-0.242,-0.1614,5.0E-4,-0.1946,-0.004,2808,2019-08-07 16:15:32:517
5.0983,-8.1616,1.7148,-0.612,-0.2636,-0.0313,0.0016,-0.1892,0.0078,2812,2019-08-07 16:15:32:521
5.0983,-8.1616,1.7148,-0.612,-0.2636,-0.0313,0.0016,-0.1892,0.0078,2818,2019-08-07 16:15:32:527
5.0983,-8.1616,1.7148,-0.612,-0.2636,-0.0313,0.0016,-0.1892,0.0078,2822,2019-08-07 16:15:32:531
5.4954,-8.2236,1.4791,-0.612,-0.2636,-0.0313,-0.0101,-0.1168,0.0269,2828,2019-08-07 16:15:32:537
5.4954,-8.2236,1.4791,-0.8399,-0.2487,0.1088,-0.0101,-0.1168,0.0269,2832,2019-08-07 16:15:32:541
5.4954,-8.2236,1.4791,-0.8399,-0.2487,0.1088,-0.0208,-0.0209,0.0514,2838,2019-08-07 16:15:32:547
5.3806,-8.3334,1.5592,-0.6927,-0.0495,0.0673,-0.0208,-0.0209,0.0514,2842,2019-08-07 16:15:32:551
5.3806,-8.3334,1.5592,-0.6927,-0.0495,0.0673,-0.0112,0.0611,0.0674,2848,2019-08-07 16:15:32:557
5.3806,-8.3334,1.5592,-0.6927,-0.0495,0.0673,-0.0112,0.0611,0.0674,2852,2019-08-07 16:15:32:561
5.1222,-8.5005,1.6818,-0.6927,-0.0495,0.0673,-0.0069,0.1112,0.0695,2858,2019-08-07 16:15:32:567
5.1222,-8.5005,1.6818,-0.3546,-0.0546,-0.0967,-0.0069,0.1112,0.0695,2863,2019-08-07 16:15:32:572
5.1222,-8.5005,1.6818,-0.3546,-0.0546,-0.0967,-0.0133,0.1026,0.0621,2868,2019-08-07 16:15:32:577
4.7682,-8.3907,1.7666,-0.3546,-0.0546,-0.0967,-0.0133,0.1026,0.0621,2873,2019-08-07 16:15:32:582
4.7682,-8.3907,1.7666,-0.3546,-0.0546,-0.0967,-0.0133,0.1026,0.0621,2877,2019-08-07 16:15:32:586
4.6581,-8.3525,1.7761,-0.061,-0.1507,-0.15,-0.0133,0.0653,0.0536,2884,2019-08-07 16:15:32:593
4.6581,-8.3525,1.7761,-0.061,-0.1507,-0.15,-0.0133,0.0653,0.0536,2887,2019-08-07 16:15:32:596
4.6581,-8.3525,1.7761,-0.061,-0.1507,-0.15,-0.0229,0.0142,0.0408,2893,2019-08-07 16:15:32:602
4.7682,-8.2666,1.7054,-0.061,-0.1507,-0.15,-0.0229,0.0142,0.0408,2898,2019-08-07 16:15:32:607
4.7682,-8.2666,1.7054,-0.2155,-0.1926,-0.1282,-0.0229,0.0142,0.0408,2903,2019-08-07 16:15:32:612
4.8639,-8.2713,1.7289,-0.2155,-0.1926,-0.1282,-0.0229,-0.0444,0.0248,2908,2019-08-07 16:15:32:617
4.8639,-8.2713,1.7289,-0.2155,-0.1926,-0.1282,-0.0229,-0.0444,0.0248,2912,2019-08-07 16:15:32:621
4.8639,-8.2713,1.7289,-0.2155,-0.1926,-0.1282,-0.0165,-0.071,0.0269,2918,2019-08-07 16:15:32:627
4.8639,-8.2713,1.7289,-0.2155,-0.1926,-0.1282,-0.0165,-0.071,0.0269,2923,2019-08-07 16:15:32:632
5.0313,-8.3525,1.6582,-0.3973,-0.1417,-0.0423,-0.0176,-0.0774,0.0301,2928,2019-08-07 16:15:32:637
5.0313,-8.3525,1.6582,-0.3973,-0.1417,-0.0423,-0.0176,-0.0774,0.0301,2933,2019-08-07 16:15:32:642
5.103,-8.3907,1.6771,-0.3973,-0.1417,-0.0423,-0.0197,-0.0689,0.0354,2937,2019-08-07 16:15:32:646
5.103,-8.3907,1.6771,-0.5361,-0.1007,-0.1089,-0.0197,-0.0689,0.0354,2943,2019-08-07 16:15:32:652
5.103,-8.3907,1.6771,-0.5361,-0.1007,-0.1089,-0.0112,-0.0529,0.0376,2948,2019-08-07 16:15:32:657
5.1796,-8.4146,1.6299,-0.5361,-0.1007,-0.1089,-0.0112,-0.0529,0.0376,2953,2019-08-07 16:15:32:662
5.1796,-8.4146,1.6299,-0.5361,-0.1007,-0.1089,-0.0027,-0.0316,0.0354,2958,2019-08-07 16:15:32:667
5.0935,-8.3525,1.6394,-0.4611,-0.1455,-0.0387,-0.0027,-0.0316,0.0354,2963,2019-08-07 16:15:32:672
5.0935,-8.3525,1.6394,-0.4611,-0.1455,-0.0387,-0.0027,-0.0316,0.0354,2967,2019-08-07 16:15:32:676
5.0935,-8.3525,1.6394,-0.4611,-0.1455,-0.0387,-0.0027,0.0057,0.0397,2973,2019-08-07 16:15:32:682
4.9882,-8.4289,1.6676,-0.3579,-0.0702,-0.067,-0.0027,0.0057,0.0397,2978,2019-08-07 16:15:32:687
4.9882,-8.4289,1.6676,-0.3579,-0.0702,-0.067,0.0026,0.0227,0.0344,2983,2019-08-07 16:15:32:692
4.8542,-8.4575,1.7572,-0.3579,-0.0702,-0.067,0.0026,0.0227,0.0344,2987,2019-08-07 16:15:32:696
4.8542,-8.4575,1.7572,-0.1806,-0.0816,-0.1154,0.008,0.0259,0.0195,2993,2019-08-07 16:15:32:702
4.8542,-8.4575,1.7572,-0.1806,-0.0816,-0.1154,0.008,0.0259,0.0195,2998,2019-08-07 16:15:32:707
4.816,-8.4098,1.6676,-0.1806,-0.0816,-0.1154,0.0186,0.0195,0.0131,3003,2019-08-07 16:15:32:712
4.816,-8.4098,1.6676,-0.1806,-0.0816,-0.1154,0.0186,0.0195,0.0131,3007,2019-08-07 16:15:32:716
4.816,-8.4098,1.6676,-0.1806,-0.0816,-0.1154,0.0186,0.0195,0.0131,3013,2019-08-07 16:15:32:722
4.816,-8.4098,1.6676,-0.1806,-0.0816,-0.1154,0.0186,0.0195,0.0131,3018,2019-08-07 16:15:32:727
4.816,-8.4098,1.6676,-0.1806,-0.0816,-0.1154,0.0186,0.0195,0.0131,3022,2019-08-07 16:15:32:731
4.7825,-8.3525,1.6535,-0.1581,-0.1482,-0.0442,0.0229,0.0281,0.0035,3028,2019-08-07 16:15:32:737
4.7825,-8.3525,1.6535,-0.1581,-0.1482,-0.0442,0.0186,0.0174,-0.004,3033,2019-08-07 16:15:32:742
4.792,-8.3286,1.7619,-0.1581,-0.1482,-0.0442,0.0186,0.0174,-0.004,3038,2019-08-07 16:15:32:747
4.792,-8.3286,1.7619,-0.2619,-0.1216,-0.1708,0.0186,0.0174,-0.004,3042,2019-08-07 16:15:32:751
4.9164,-8.3286,1.7902,-0.2619,-0.1216,-0.1708,0.0144,-0.0188,0.0024,3048,2019-08-07 16:15:32:757
4.9164,-8.3286,1.7902,-0.2619,-0.1216,-0.1708,0.0144,-0.0188,0.0024,3052,2019-08-07 16:15:32:761
4.9164,-8.3286,1.7902,-0.2619,-0.1216,-0.1708,0.0154,-0.0327,0.0046,3058,2019-08-07 16:15:32:767
4.9594,-8.2904,1.6676,-0.4217,-0.2249,0.0043,0.0154,-0.0327,0.0046,3063,2019-08-07 16:15:32:772
4.9594,-8.2904,1.6676,-0.4217,-0.2249,0.0043,-0.0091,-0.0508,0.0163,3069,2019-08-07 16:15:32:778
5.1986,-8.2952,1.6205,-0.4217,-0.2249,0.0043,-0.0091,-0.0508,0.0163,3073,2019-08-07 16:15:32:782
5.1986,-8.2952,1.6205,-0.4217,-0.2249,0.0043,-0.0197,-0.0476,0.0312,3078,2019-08-07 16:15:32:787
5.1986,-8.2952,1.6205,-0.6687,-0.1487,-0.0064,-0.0197,-0.0476,0.0312,3083,2019-08-07 16:15:32:792
5.3182,-8.3525,1.5734,-0.6687,-0.1487,-0.0064,-0.0197,-0.0476,0.0312,3087,2019-08-07 16:15:32:796
5.3182,-8.3525,1.5734,-0.6687,-0.1487,-0.0064,-0.0197,0.0132,0.0397,3093,2019-08-07 16:15:32:802
5.3182,-8.3525,1.5734,-0.6687,-0.1487,-0.0064,-0.0197,0.0132,0.0397,3098,2019-08-07 16:15:32:807
5.2034,-8.3095,1.4979,-0.4959,-0.1753,0.0671,-0.0261,0.0632,0.0536,3103,2019-08-07 16:15:32:812
5.2034,-8.3095,1.4979,-0.4959,-0.1753,0.0671,-0.0261,0.0632,0.0536,3108,2019-08-07 16:15:32:817
5.0264,-8.3238,1.5545,-0.4959,-0.1753,0.0671,-0.0272,0.0877,0.0578,3112,2019-08-07 16:15:32:821
5.0264,-8.3238,1.5545,-0.4959,-0.1753,0.0671,-0.0272,0.0877,0.0578,3118,2019-08-07 16:15:32:827
5.0264,-8.3238,1.5545,-0.4959,-0.1753,0.0671,-0.0197,0.1005,0.0589,3122,2019-08-07 16:15:32:831
4.8398,-8.4289,1.5969,-0.2238,-0.0752,0.0185,-0.0197,0.1005,0.0589,3128,2019-08-07 16:15:32:837
4.8398,-8.4289,1.5969,-0.2238,-0.0752,0.0185,-0.0197,0.1005,0.0589,3133,2019-08-07 16:15:32:842
4.6676,-8.3716,1.7006,-0.2238,-0.0752,0.0185,-6.0E-4,0.1016,0.044,3138,2019-08-07 16:15:32:847
4.6676,-8.3716,1.7006,-0.2238,-0.0752,0.0185,-6.0E-4,0.1016,0.044,3144,2019-08-07 16:15:32:853
4.6676,-8.3716,1.7006,0.0819,-0.1362,-0.0759,0.0186,0.0835,0.028,3147,2019-08-07 16:15:32:856
4.4618,-8.3,1.7666,0.0819,-0.1362,-0.0759,0.0186,0.0835,0.028,3153,2019-08-07 16:15:32:862
4.4618,-8.3,1.7666,0.0819,-0.1362,-0.0759,0.0261,0.0377,0.0131,3158,2019-08-07 16:15:32:867
4.4188,-8.2904,1.7572,0.0819,-0.1362,-0.0759,0.0261,0.0377,0.0131,3163,2019-08-07 16:15:32:872
4.4188,-8.2904,1.7572,0.1923,-0.2512,-0.1839,0.0261,0.0377,0.0131,3168,2019-08-07 16:15:32:877
4.4188,-8.2904,1.7572,0.1923,-0.2512,-0.1839,0.0261,-0.0337,-0.0178,3172,2019-08-07 16:15:32:881
4.4666,-8.2188,1.8562,0.1923,-0.2512,-0.1839,0.0261,-0.0337,-0.0178,3179,2019-08-07 16:15:32:888
4.4666,-8.2188,1.8562,0.1923,-0.2512,-0.1839,0.0218,-0.0742,-0.0317,3182,2019-08-07 16:15:32:891
4.4666,-8.2188,1.8562,0.0309,-0.3672,-0.0748,0.0218,-0.0742,-0.0317,3188,2019-08-07 16:15:32:897
4.6771,-8.1329,1.677,0.0309,-0.3672,-0.0748,-0.0069,-0.1328,-0.0455,3193,2019-08-07 16:15:32:902
4.6771,-8.1329,1.677,-0.2734,-0.3217,-0.0755,-0.0069,-0.1328,-0.0455,3197,2019-08-07 16:15:32:906
5.0981,-8.2427,1.7242,-0.2734,-0.3217,-0.0755,-0.0101,-0.1296,-0.0455,3203,2019-08-07 16:15:32:912
5.0981,-8.2427,1.7242,-0.2734,-0.3217,-0.0755,-0.0101,-0.1296,-0.0455,3208,2019-08-07 16:15:32:917
5.0981,-8.2427,1.7242,-0.2734,-0.3217,-0.0755,-0.0325,-0.1584,-0.0413,3213,2019-08-07 16:15:32:922
4.8445,-8.2713,1.3046,-0.2148,-0.2254,0.3099,-0.0325,-0.1584,-0.0413,3218,2019-08-07 16:15:32:927
4.8445,-8.2713,1.3046,-0.2148,-0.2254,0.3099,-0.1113,-0.2841,-0.0167,3223,2019-08-07 16:15:32:932
4.9259,-8.4527,1.9552,-0.2148,-0.2254,0.3099,-0.1113,-0.2841,-0.0167,3227,2019-08-07 16:15:32:936
4.9259,-8.4527,1.9552,-0.2148,-0.2254,0.3099,-0.0464,-0.2777,-0.0082,3233,2019-08-07 16:15:32:942
4.9259,-8.4527,1.9552,-0.4262,0.0229,-0.2472,-0.0464,-0.2777,-0.0082,3237,2019-08-07 16:15:32:946
5.0933,-8.5434,1.6865,-0.4262,0.0229,-0.2472,0.0239,-0.2862,-0.004,3243,2019-08-07 16:15:32:952
5.0933,-8.5434,1.6865,-0.4262,0.0229,-0.2472,0.0239,-0.2862,-0.004,3248,2019-08-07 16:15:32:957
5.476,-8.3764,1.2811,-0.4262,0.0229,-0.2472,0.0239,-0.2862,-0.004,3252,2019-08-07 16:15:32:961
5.476,-8.3764,1.2811,-0.7815,-0.1268,0.2917,0.0708,-0.1669,-0.0072,3258,2019-08-07 16:15:32:967
5.476,-8.3764,1.2811,-0.7815,-0.1268,0.2917,0.0708,-0.1669,-0.0072,3263,2019-08-07 16:15:32:972
5.543,-8.214,1.3942,-0.7815,-0.1268,0.2917,0.0847,0.043,0.0046,3268,2019-08-07 16:15:32:977
5.543,-8.214,1.3942,-0.7815,-0.1268,0.2917,0.0847,0.043,0.0046,3272,2019-08-07 16:15:32:981
5.543,-8.214,1.3942,-0.9754,-0.2308,0.0992,0.0847,0.043,0.0046,3278,2019-08-07 16:15:32:987
5.6195,-8.2236,1.4366,-0.9754,-0.2308,0.0992,0.0815,0.2124,-0.0082,3283,2019-08-07 16:15:32:992
5.6195,-8.2236,1.4366,-0.9754,-0.2308,0.0992,0.0815,0.2124,-0.0082,3287,2019-08-07 16:15:32:996
5.6195,-8.2236,1.4366,-0.9754,-0.2308,0.0992,0.0303,0.3125,-0.021,3293,2019-08-07 16:15:33:002
4.744,-8.1138,1.7902,0.042,-0.3446,-0.2666,0.0303,0.3125,-0.021,3298,2019-08-07 16:15:33:007
4.744,-8.1138,1.7902,0.042,-0.3446,-0.2666,-0.008,0.2528,-0.0082,3303,2019-08-07 16:15:33:012
4.4522,-8.2761,2.2568,0.042,-0.3446,-0.2666,-0.008,0.2528,-0.0082,3308,2019-08-07 16:15:33:017
4.4522,-8.2761,2.2568,0.042,-0.3446,-0.2666,-0.0059,0.1399,-0.0146,3312,2019-08-07 16:15:33:021
4.366,-8.3859,2.3134,0.2893,-0.1,-0.6761,-0.0059,0.1399,-0.0146,3318,2019-08-07 16:15:33:027
4.366,-8.3859,2.3134,0.2893,-0.1,-0.6761,-0.0059,0.1399,-0.0146,3323,2019-08-07 16:15:33:032
4.366,-8.3859,2.3134,0.2893,-0.1,-0.6761,-0.0101,-0.022,-0.0146,3328,2019-08-07 16:15:33:037
4.61,-8.405,1.9646,0.2893,-0.1,-0.6761,-0.0101,-0.022,-0.0146,3333,2019-08-07 16:15:33:042
4.61,-8.405,1.9646,-0.2481,-0.061,-0.2099,-0.0101,-0.022,-0.0146,3337,2019-08-07 16:15:33:046