ACCELEROMETER X (m/s²),ACCELEROMETER Y (m/s²),ACCELEROMETER Z (m/s²),LINEAR ACCELERATION X (m/s²),LINEAR ACCELERATION Y (m/s²),LINEAR ACCELERATION Z (m/s²),GYROSCOPE X (rad/s),GYROSCOPE Y (rad/s),GYROSCOPE Z (rad/s),Time since start in ms ,YYYY-MO-DD HH-MI-SS_SSS
5.4084,-8.2655,1.524,-0.2393,0.019,-0.0375,0.0218,0.0047,-0.0072,3,2019-08-07 16:16:23:135
5.4084,-8.2655,1.524,-0.2393,0.019,-0.0375,0.0218,0.0047,-0.0072,8,2019-08-07 16:16:23:140
5.2601,-8.1844,1.6372,-0.2393,0.019,-0.0375,0.0282,0.026,-0.0126,13,2019-08-07 16:16:23:145
5.2601,-8.1844,1.6372,-0.1042,-0.0846,-0.0949,0.0282,0.026,-0.0126,18,2019-08-07 16:16:23:150
5.2601,-8.1844,1.6372,-0.1042,-0.0846,-0.0949,0.0357,0.0345,-0.0211,22,2019-08-07 16:16:23:154
5.2553,-8.1605,1.7362,-0.1042,-0.0846,-0.0949,0.0357,0.0345,-0.0211,28,2019-08-07 16:16:23:160
5.2553,-8.1605,1.7362,-0.1042,-0.0846,-0.0949,0.0367,0.0228,-0.0179,33,2019-08-07 16:16:23:165
5.2266,-8.0937,1.5665,-0.096,-0.1094,-0.1039,0.0367,0.0228,-0.0179,38,2019-08-07 16:16:23:170
5.2266,-8.0937,1.5665,-0.096,-0.1094,-0.1039,0.0304,0.0281,-0.0115,43,2019-08-07 16:16:23:175
5.2266,-8.0937,1.5665,-0.066,-0.1173,-0.1793,0.0304,0.0281,-0.0115,47,2019-08-07 16:16:23:179
5.217,-8.065,1.7126,-0.066,-0.1173,-0.1793,0.0304,0.0281,-0.0115,53,2019-08-07 16:16:23:185
5.217,-8.065,1.7126,-0.066,-0.1173,-0.1793,0.025,-0.0145,-0.0019,58,2019-08-07 16:16:23:190
5.2409,-8.1557,1.7692,-0.066,-0.1173,-0.1793,0.025,-0.0145,-0.0019,62,2019-08-07 16:16:23:194
5.2409,-8.1557,1.7692,-0.1127,-0.0678,-0.2447,0.024,-0.0518,0.0098,68,2019-08-07 16:16:23:200
5.2409,-8.1557,1.7692,-0.1127,-0.0678,-0.2447,0.024,-0.0518,0.0098,72,2019-08-07 16:16:23:204
5.4227,-8.2512,1.5665,-0.1127,-0.0678,-0.2447,0.0176,-0.0635,0.0183,78,2019-08-07 16:16:23:210
5.4227,-8.2512,1.5665,-0.1127,-0.0678,-0.2447,0.0176,-0.0635,0.0183,82,2019-08-07 16:16:23:214
5.496,-8.2609,1.5338,-0.3324,0.0752,-0.0068,0.0154,-0.0241,0.0173,88,2019-08-07 16:16:23:220
5.496,-8.2609,1.5338,-0.3324,0.0752,-0.0068,0.0154,-0.0241,0.0173,93,2019-08-07 16:16:23:225
5.3477,-8.2991,1.4442,-0.3324,0.0752,-0.0068,0.0272,0.0217,0.0183,99,2019-08-07 16:16:23:231
5.3477,-8.2991,1.4442,-0.3324,0.0752,-0.0068,0.0272,0.0217,0.0183,102,2019-08-07 16:16:23:234
5.3477,-8.2991,1.4442,-0.2117,0.0416,-0.0155,0.0346,0.0654,0.0226,108,2019-08-07 16:16:23:240
5.1755,-8.2991,1.5809,-0.2117,0.0416,-0.0155,0.0346,0.0654,0.0226,113,2019-08-07 16:16:23:245
5.1755,-8.2991,1.5809,-0.2117,0.0416,-0.0155,0.0453,0.0824,0.0194,118,2019-08-07 16:16:23:250
5.1755,-8.2991,1.5809,-0.2117,0.0416,-0.0155,0.0453,0.0824,0.0194,122,2019-08-07 16:16:23:254
5.0272,-8.218,1.5856,0.0887,-0.0116,-0.0565,0.0474,0.0707,0.0162,128,2019-08-07 16:16:23:260
5.0272,-8.218,1.5856,0.0887,-0.0116,-0.0565,0.0474,0.0707,0.0162,133,2019-08-07 16:16:23:265
4.9459,-8.1798,1.6139,0.0887,-0.0116,-0.0565,0.0389,0.0281,0.0098,137,2019-08-07 16:16:23:269
4.9459,-8.1798,1.6139,0.0887,-0.0116,-0.0565,0.0389,0.0281,0.0098,143,2019-08-07 16:16:23:275
4.9459,-8.1798,1.6139,0.1327,-0.1167,-0.0916,0.0314,-0.0209,0.0013,148,2019-08-07 16:16:23:280
5.0798,-8.1129,1.6516,0.1327,-0.1167,-0.0916,0.0314,-0.0209,0.0013,153,2019-08-07 16:16:23:285
5.0798,-8.1129,1.6516,0.1327,-0.1167,-0.0916,0.0314,-0.0209,0.0013,158,2019-08-07 16:16:23:290
5.1181,-8.07,1.6375,0.1327,-0.1167,-0.0916,0.024,-0.0593,0.0013,163,2019-08-07 16:16:23:295
5.1181,-8.07,1.6375,-0.105,-0.1491,-0.0676,0.024,-0.0593,0.0013,168,2019-08-07 16:16:23:300
5.1181,-8.07,1.6375,-0.105,-0.1491,-0.0676,0.0059,-0.0891,0.0077,173,2019-08-07 16:16:23:305
5.4052,-8.0795,1.4867,-0.105,-0.1491,-0.0676,0.0059,-0.0891,0.0077,178,2019-08-07 16:16:23:310
5.4052,-8.0795,1.4867,-0.105,-0.1491,-0.0676,-0.008,-0.071,0.0162,183,2019-08-07 16:16:23:315
5.4435,-8.1082,1.4867,-0.2936,-0.0917,0.0606,-0.008,-0.071,0.0162,188,2019-08-07 16:16:23:320
5.4435,-8.1082,1.4867,-0.2936,-0.0917,0.0606,-0.0112,-0.0348,0.0194,193,2019-08-07 16:16:23:325
5.4435,-8.1082,1.4867,-0.2936,-0.0917,0.0606,-0.0112,-0.0348,0.0194,198,2019-08-07 16:16:23:330
5.3574,-8.2084,1.4772,-0.2936,-0.0917,0.0606,-0.0069,0.0089,0.0301,203,2019-08-07 16:16:23:335
5.3574,-8.2084,1.4772,-0.2711,0.007,0.0424,-0.0069,0.0089,0.0301,208,2019-08-07 16:16:23:340
5.3,-8.2705,1.4961,-0.2711,0.007,0.0424,0.0059,0.0409,0.0311,214,2019-08-07 16:16:23:346
5.3,-8.2705,1.4961,-0.2711,0.007,0.0424,0.0059,0.0409,0.0311,217,2019-08-07 16:16:23:349
5.3,-8.2705,1.4961,-0.2711,0.007,0.0424,0.0059,0.0409,0.0311,223,2019-08-07 16:16:23:355
5.1039,-8.2084,1.5291,0.0055,-0.024,0.0063,0.0197,0.0622,0.0269,228,2019-08-07 16:16:23:360
5.1039,-8.2084,1.5291,0.0055,-0.024,0.0063,0.0197,0.0622,0.0269,233,2019-08-07 16:16:23:365
5.1039,-8.2084,1.5291,0.0055,-0.024,0.0063,0.0218,0.0526,0.0194,238,2019-08-07 16:16:23:370
4.9556,-8.2084,1.5574,0.0055,-0.024,0.0063,0.0218,0.0526,0.0194,243,2019-08-07 16:16:23:375
4.9556,-8.2084,1.5574,0.1676,-0.0352,-0.0745,0.0208,0.0196,0.0141,248,2019-08-07 16:16:23:380
4.946,-8.1846,1.6658,0.1676,-0.0352,-0.0745,0.0208,0.0196,0.0141,252,2019-08-07 16:16:23:384
4.946,-8.1846,1.6658,0.1676,-0.0352,-0.0745,0.0144,-0.038,0.0088,258,2019-08-07 16:16:23:390
5.0609,-8.1464,1.7035,0.1676,-0.0352,-0.0745,0.0154,-0.0816,0.0034,264,2019-08-07 16:16:23:396
5.0609,-8.1464,1.7035,-0.0291,-0.1167,-0.1549,0.0154,-0.0816,0.0034,267,2019-08-07 16:16:23:399
5.0609,-8.1464,1.7035,-0.0291,-0.1167,-0.1549,0.0154,-0.0816,0.0034,273,2019-08-07 16:16:23:405
5.2427,-8.0652,1.5621,-0.0291,-0.1167,-0.1549,0.0069,-0.0976,-0.0072,278,2019-08-07 16:16:23:410
5.2427,-8.0652,1.5621,-0.0291,-0.1167,-0.1549,0.0069,-0.0976,-0.0072,282,2019-08-07 16:16:23:414
5.2427,-8.0652,1.5621,-0.2198,-0.1531,-0.0222,-0.0048,-0.0859,-0.0136,288,2019-08-07 16:16:23:420
5.3719,-8.0891,1.515,-0.2198,-0.1531,-0.0222,-0.0048,-0.0859,-0.0136,293,2019-08-07 16:16:23:425
5.3719,-8.0891,1.515,-0.2198,-0.1531,-0.0222,-0.0069,-0.0561,-0.0062,298,2019-08-07 16:16:23:430
5.415,-8.1655,1.5197,-0.2198,-0.1531,-0.0222,-0.0069,-0.0561,-0.0062,303,2019-08-07 16:16:23:435
5.415,-8.1655,1.5197,-0.3012,-0.0274,0.0037,-0.0027,-0.0113,-8.0E-4,309,2019-08-07 16:16:23:441
5.415,-8.1655,1.5197,-0.3012,-0.0274,0.0037,-0.0027,-0.0113,-8.0E-4,313,2019-08-07 16:16:23:445
5.4341,-8.1989,1.548,-0.3012,-0.0274,0.0037,-0.0027,-0.0113,-8.0E-4,318,2019-08-07 16:16:23:450
5.4341,-8.1989,1.548,-0.3012,-0.0274,0.0037,0.0133,0.0345,-0.0051,322,2019-08-07 16:16:23:454
5.2571,-8.1941,1.4679,-0.1419,-0.0353,0.064,0.0133,0.0345,-0.0051,328,2019-08-07 16:16:23:460
5.2571,-8.1941,1.4679,-0.1419,-0.0353,0.064,0.0186,0.0451,-0.0072,333,2019-08-07 16:16:23:465
5.2571,-8.1941,1.4679,-0.1419,-0.0353,0.064,0.0186,0.0451,-0.0072,338,2019-08-07 16:16:23:470
5.1758,-8.1846,1.6658,-0.1419,-0.0353,0.064,0.0218,0.0387,-0.0094,343,2019-08-07 16:16:23:475
5.1758,-8.1846,1.6658,-0.0123,-0.0764,-0.0971,0.0218,0.0387,-0.0094,348,2019-08-07 16:16:23:480
5.0945,-8.1941,1.6847,-0.0123,-0.0764,-0.0971,0.0176,0.0238,-0.0083,353,2019-08-07 16:16:23:485
5.0945,-8.1941,1.6847,-0.0123,-0.0764,-0.0971,0.0176,0.0238,-0.0083,359,2019-08-07 16:16:23:491
5.0945,-8.1941,1.6847,-0.0123,-0.0764,-0.0971,0.0048,-0.0017,-0.0072,363,2019-08-07 16:16:23:495
5.0754,-8.1559,1.6281,0.008,-0.0655,-0.0747,0.0048,-0.0017,-0.0072,368,2019-08-07 16:16:23:500
5.0754,-8.1559,1.6281,0.008,-0.0655,-0.0747,-0.0037,-0.0337,-0.0115,373,2019-08-07 16:16:23:505
5.0897,-8.2084,1.6423,0.008,-0.0655,-0.0747,-0.0037,-0.0337,-0.0115,378,2019-08-07 16:16:23:510
5.0897,-8.2084,1.6423,0.008,-0.0655,-0.0747,-0.0048,-0.0539,-0.0157,383,2019-08-07 16:16:23:515
5.0897,-8.2084,1.6423,-0.1366,-0.0448,-0.0413,-0.0048,-0.0539,-0.0157,388,2019-08-07 16:16:23:520
5.2716,-8.1703,1.5857,-0.1366,-0.0448,-0.0413,-0.008,-0.0529,-0.0157,393,2019-08-07 16:16:23:525
5.2716,-8.1703,1.5857,-0.1366,-0.0448,-0.0413,-0.008,-0.0529,-0.0157,398,2019-08-07 16:16:23:530
5.2716,-8.1703,1.5857,-0.1366,-0.0448,-0.0413,-0.008,-0.0529,-0.0157,403,2019-08-07 16:16:23:535
5.2955,-8.1416,1.4585,-0.1366,-0.0448,-0.0413,-0.0197,-0.0348,-0.0147,408,2019-08-07 16:16:23:540
5.2955,-8.1416,1.4585,-0.2218,-0.1189,0.1074,-0.0197,-0.0348,-0.0147,413,2019-08-07 16:16:23:545
5.3386,-8.1607,1.4349,-0.2218,-0.1189,0.1074,-0.0293,-0.0145,-0.0147,417,2019-08-07 16:16:23:549
5.3386,-8.1607,1.4349,-0.2218,-0.1189,0.1074,-0.0293,-0.0145,-0.0147,423,2019-08-07 16:16:23:555
5.3386,-8.1607,1.4349,-0.2218,-0.1189,0.1074,-0.0261,0.0025,-0.0072,427,2019-08-07 16:16:23:559
5.3099,-8.218,1.5245,-0.18,-0.0033,0.0023,-0.0261,0.0025,-0.0072,433,2019-08-07 16:16:23:565
5.3099,-8.218,1.5245,-0.18,-0.0033,0.0023,-0.0069,0.0164,-0.0083,438,2019-08-07 16:16:23:570
5.2621,-8.3087,1.5527,-0.18,-0.0033,0.0023,-0.0069,0.0164,-0.0083,443,2019-08-07 16:16:23:575
5.2621,-8.3087,1.5527,-0.18,-0.0033,0.0023,-0.0069,0.0164,-0.0083,447,2019-08-07 16:16:23:579
5.2621,-8.3087,1.5527,-0.126,0.0549,-0.0445,0.009,0.0132,-8.0E-4,453,2019-08-07 16:16:23:585
5.2094,-8.2371,1.5857,-0.126,0.0549,-0.0445,0.009,0.0132,-8.0E-4,457,2019-08-07 16:16:23:589
5.2094,-8.2371,1.5857,-0.126,0.0549,-0.0445,0.0154,0.0089,0.0013,463,2019-08-07 16:16:23:595
5.1281,-8.1941,1.5622,-0.126,0.0549,-0.0445,0.0154,0.0089,0.0013,467,2019-08-07 16:16:23:599
5.1281,-8.1941,1.5622,-0.0689,0.0172,-0.027,0.0144,-0.0028,0.0045,473,2019-08-07 16:16:23:605
5.1281,-8.1941,1.5622,-0.0689,0.0172,-0.027,0.0144,-0.0028,0.0045,477,2019-08-07 16:16:23:609
5.1521,-8.2228,1.6046,-0.0689,0.0172,-0.027,0.0112,-0.0081,0.0013,483,2019-08-07 16:16:23:615
5.1521,-8.2228,1.6046,-0.0689,0.0172,-0.027,0.0112,-0.0081,0.0013,487,2019-08-07 16:16:23:619
5.1999,-8.1703,1.5999,-0.0451,-0.011,-0.0482,0.0101,-0.0092,-0.0062,493,2019-08-07 16:16:23:625
5.1999,-8.1703,1.5999,-0.0451,-0.011,-0.0482,0.0101,-0.0092,-0.0062,498,2019-08-07 16:16:23:630
5.1999,-8.1703,1.5999,-0.0451,-0.011,-0.0482,0.0059,-0.0103,-0.0189,503,2019-08-07 16:16:23:635
5.133,-8.1464,1.5716,-0.0451,-0.011,-0.0482,0.0059,-0.0103,-0.0189,509,2019-08-07 16:16:23:641
5.133,-8.1464,1.5716,-0.023,-0.0807,-0.0523,-0.0048,-0.0092,-0.02,513,2019-08-07 16:16:23:645
5.2669,-8.1655,1.5858,-0.023,-0.0807,-0.0523,-0.0048,-0.0092,-0.02,518,2019-08-07 16:16:23:650
5.2669,-8.1655,1.5858,-0.023,-0.0807,-0.0523,-0.0048,-0.0092,-0.02,522,2019-08-07 16:16:23:654
5.2669,-8.1655,1.5858,-0.023,-0.0807,-0.0523,-0.0027,-0.0113,-0.0253,528,2019-08-07 16:16:23:660
5.2478,-8.2276,1.5622,-0.1088,0.0129,-0.0304,-0.0027,-0.0113,-0.0253,532,2019-08-07 16:16:23:664
5.2478,-8.2276,1.5622,-0.1088,0.0129,-0.0304,5.0E-4,-0.0028,-0.0317,538,2019-08-07 16:16:23:670
5.2622,-8.156,1.5905,-0.1088,0.0129,-0.0304,5.0E-4,-0.0028,-0.0317,543,2019-08-07 16:16:23:675
5.2622,-8.156,1.5905,-0.1088,0.0129,-0.0304,0.0069,-0.0145,-0.0253,548,2019-08-07 16:16:23:680
5.2622,-8.156,1.5905,-0.0792,-0.0169,-0.026,0.0069,-0.0145,-0.0253,553,2019-08-07 16:16:23:685
5.2718,-8.2037,1.5198,-0.0792,-0.0169,-0.026,0.0069,-0.0145,-0.0253,557,2019-08-07 16:16:23:689
5.2718,-8.2037,1.5198,-0.1004,-0.0678,-0.0074,0.008,-0.0177,-0.0243,563,2019-08-07 16:16:23:695
5.2718,-8.2037,1.5198,-0.1004,-0.0678,-0.0074,0.008,-0.0177,-0.0243,568,2019-08-07 16:16:23:700
5.2957,-8.2037,1.5858,-0.1004,-0.0678,-0.0074,0.0069,-0.0273,-0.0168,573,2019-08-07 16:16:23:705
5.2957,-8.2037,1.5858,-0.1004,-0.0678,-0.0074,0.0069,-0.0273,-0.0168,578,2019-08-07 16:16:23:710
5.3866,-8.2419,1.5622,-0.2353,0.0346,-0.0323,0.009,-0.0316,-8.0E-4,582,2019-08-07 16:16:23:714
5.3866,-8.2419,1.5622,-0.2353,0.0346,-0.0323,0.009,-0.0316,-8.0E-4,588,2019-08-07 16:16:23:720
5.3866,-8.2419,1.5622,-0.2353,0.0346,-0.0323,0.0144,-0.0177,0.0077,592,2019-08-07 16:16:23:724
5.4058,-8.2037,1.5339,-0.2353,0.0346,-0.0323,0.0144,-0.0177,0.0077,599,2019-08-07 16:16:23:731
5.4058,-8.2037,1.5339,-0.2581,-0.0171,0.0293,0.0144,-0.0071,0.013,602,2019-08-07 16:16:23:734
5.3484,-8.1607,1.4915,-0.2581,-0.0171,0.0293,0.0144,-0.0071,0.013,608,2019-08-07 16:16:23:740
5.3484,-8.1607,1.4915,-0.2581,-0.0171,0.0293,0.009,0.0025,0.0162,613,2019-08-07 16:16:23:745
5.3484,-8.1607,1.4915,-0.2581,-0.0171,0.0293,0.009,0.0025,0.0162,618,2019-08-07 16:16:23:750
5.3293,-8.1321,1.5481,-0.1639,-0.0607,-0.0634,0.008,0.01,0.0173,623,2019-08-07 16:16:23:755
5.3293,-8.1321,1.5481,-0.1639,-0.0607,-0.0634,0.008,0.01,0.0173,628,2019-08-07 16:16:23:760
5.3149,-8.1512,1.6235,-0.1639,-0.0607,-0.0634,0.0144,0.0121,0.0183,632,2019-08-07 16:16:23:764
5.3149,-8.1512,1.6235,-0.1639,-0.0607,-0.0634,0.0144,0.0121,0.0183,638,2019-08-07 16:16:23:770
5.3149,-8.1512,1.6235,-0.0942,-0.0135,0.0159,0.0165,0.0206,0.0109,643,2019-08-07 16:16:23:775
5.248,-8.1273,1.5622,-0.0942,-0.0135,0.0159,0.0165,0.0206,0.0109,648,2019-08-07 16:16:23:780
5.248,-8.1273,1.5622,-0.0942,-0.0135,0.0159,0.0122,0.0313,0.0056,652,2019-08-07 16:16:23:784
5.248,-8.1273,1.5622,-0.0942,-0.0135,0.0159,0.0122,0.0313,0.0056,658,2019-08-07 16:16:23:790
5.2289,-8.1273,1.5999,0.0053,-0.0751,-0.0681,0.008,0.0323,-0.0072,662,2019-08-07 16:16:23:794
5.2289,-8.1273,1.5999,0.0053,-0.0751,-0.0681,0.008,0.0323,-0.0072,668,2019-08-07 16:16:23:800
5.0806,-8.1226,1.5999,0.0053,-0.0751,-0.0681,0.0048,0.0323,-0.0125,672,2019-08-07 16:16:23:804
5.0806,-8.1226,1.5999,0.0053,-0.0751,-0.0681,0.0048,0.0323,-0.0125,678,2019-08-07 16:16:23:810
5.0806,-8.1226,1.5999,0.1018,-0.0212,-0.0683,-0.0059,0.0196,-0.0136,683,2019-08-07 16:16:23:815
5.0949,-8.1512,1.6141,0.1018,-0.0212,-0.0683,-0.0059,0.0196,-0.0136,688,2019-08-07 16:16:23:820
5.0949,-8.1512,1.6141,0.1018,-0.0212,-0.0683,-0.008,-0.0135,-0.0189,693,2019-08-07 16:16:23:825
5.1141,-8.2276,1.5905,0.1018,-0.0212,-0.0683,-0.008,-0.0135,-0.0189,698,2019-08-07 16:16:23:830
5.1141,-8.2276,1.5905,0.0232,0.0757,0.0057,-0.008,-0.0135,-0.0189,702,2019-08-07 16:16:23:834
5.1141,-8.2276,1.5905,0.0232,0.0757,0.0057,-0.0037,-0.0422,-0.0104,708,2019-08-07 16:16:23:840
5.2289,-8.2753,1.5151,0.0232,0.0757,0.0057,-0.0037,-0.0422,-0.0104,713,2019-08-07 16:16:23:845
5.2289,-8.2753,1.5151,0.0232,0.0757,0.0057,-0.0027,-0.0603,-0.0115,718,2019-08-07 16:16:23:850
5.2289,-8.2753,1.5151,-0.2314,0.1152,0.0187,-0.0027,-0.0603,-0.0115,723,2019-08-07 16:16:23:855
5.3868,-8.3183,1.5198,-0.2314,0.1152,0.0187,-5.0E-4,-0.0625,-0.0072,728,2019-08-07 16:16:23:860
5.3868,-8.3183,1.5198,-0.2314,0.1152,0.0187,-5.0E-4,-0.0625,-0.0072,733,2019-08-07 16:16:23:865
5.449,-8.261,1.4915,-0.2314,0.1152,0.0187,0.0112,-0.0348,-0.0125,738,2019-08-07 16:16:23:870
5.449,-8.261,1.4915,-0.2703,0.0408,0.0808,0.0112,-0.0348,-0.0125,743,2019-08-07 16:16:23:875
5.449,-8.261,1.4915,-0.2703,0.0408,0.0808,0.0154,-0.0039,0.0024,749,2019-08-07 16:16:23:881
5.4156,-8.2276,1.435,-0.2703,0.0408,0.0808,0.0154,-0.0039,0.0024,752,2019-08-07 16:16:23:884
5.4156,-8.2276,1.435,-0.2703,0.0408,0.0808,0.0154,-0.0039,0.0024,758,2019-08-07 16:16:23:890
5.4156,-8.2276,1.435,-0.2703,0.0408,0.0808,0.0165,0.0441,0.0109,763,2019-08-07 16:16:23:895
5.3008,-8.2419,1.4963,-0.1414,0.0413,0.0424,0.0165,0.0441,0.0109,768,2019-08-07 16:16:23:900
5.3008,-8.2419,1.4963,-0.1414,0.0413,0.0424,0.0186,0.0664,0.0183,773,2019-08-07 16:16:23:905
5.1477,-8.2992,1.5717,-0.1414,0.0413,0.0424,0.0186,0.0664,0.0183,778,2019-08-07 16:16:23:910
5.1477,-8.2992,1.5717,-0.1414,0.0413,0.0424,0.0282,0.0835,0.0077,782,2019-08-07 16:16:23:914
5.1477,-8.2992,1.5717,0.0979,0.0883,-0.0875,0.0282,0.0835,0.0077,788,2019-08-07 16:16:23:920
4.9468,-8.1655,1.6518,0.0979,0.0883,-0.0875,0.0357,0.0483,-0.003,793,2019-08-07 16:16:23:925
4.9468,-8.1655,1.6518,0.0979,0.0883,-0.0875,0.0357,0.0483,-0.003,799,2019-08-07 16:16:23:931
4.9898,-8.2037,1.699,0.0979,0.0883,-0.0875,0.0421,0.0132,-0.004,803,2019-08-07 16:16:23:935
4.9898,-8.2037,1.699,0.1675,-0.0111,-0.1653,0.0421,0.0132,-0.004,808,2019-08-07 16:16:23:940
4.9898,-8.2037,1.699,0.1675,-0.0111,-0.1653,0.0421,0.0132,-0.004,813,2019-08-07 16:16:23:945
5.0473,-8.1703,1.6895,0.1675,-0.0111,-0.1653,0.0453,-0.0337,-0.0019,817,2019-08-07 16:16:23:949
5.0473,-8.1703,1.6895,0.1675,-0.0111,-0.1653,0.0453,-0.0337,-0.0019,823,2019-08-07 16:16:23:955
5.2769,-8.1465,1.6047,-0.1229,-0.0522,-0.0381,0.0367,-0.0582,-8.0E-4,827,2019-08-07 16:16:23:959
5.2769,-8.1465,1.6047,-0.1229,-0.0522,-0.0381,0.0367,-0.0582,-8.0E-4,833,2019-08-07 16:16:23:965
5.2769,-8.1465,1.6047,-0.1229,-0.0522,-0.0381,0.0186,-0.0497,0.0013,837,2019-08-07 16:16:23:969
5.4827,-8.1512,1.5434,-0.1229,-0.0522,-0.0381,0.0186,-0.0497,0.0013,843,2019-08-07 16:16:23:975
5.4827,-8.1512,1.5434,-0.3157,-0.0217,0.0312,0.0016,-0.0188,0.013,847,2019-08-07 16:16:23:979
5.5114,-8.199,1.501,-0.3157,-0.0217,0.0312,0.0016,-0.0188,0.013,853,2019-08-07 16:16:23:985
5.5114,-8.199,1.501,-0.3157,-0.0217,0.0312,-0.0091,0.0068,0.0311,859,2019-08-07 16:16:23:991
5.5114,-8.199,1.501,-0.3157,-0.0217,0.0312,-0.0091,0.0068,0.0311,864,2019-08-07 16:16:23:996
5.4971,-8.3279,1.5199,-0.3416,0.1295,0.0437,-0.0091,0.0217,0.0503,868,2019-08-07 16:16:24:000
5.4971,-8.3279,1.5199,-0.3416,0.1295,0.0437,-0.0091,0.0217,0.0503,872,2019-08-07 16:16:24:004
5.411,-8.4759,1.4727,-0.3416,0.1295,0.0437,5.0E-4,0.0462,0.0631,878,2019-08-07 16:16:24:010
5.411,-8.4759,1.4727,-0.3416,0.1295,0.0437,5.0E-4,0.0462,0.0631,883,2019-08-07 16:16:24:015
5.411,-8.4759,1.4727,-0.1319,0.2572,0.1217,5.0E-4,0.0462,0.0631,887,2019-08-07 16:16:24:019
5.1861,-8.4759,1.4397,-0.1319,0.2572,0.1217,0.0122,0.076,0.0642,893,2019-08-07 16:16:24:025
5.1861,-8.4759,1.4397,-0.1319,0.2572,0.1217,0.0122,0.076,0.0642,898,2019-08-07 16:16:24:030
4.8752,-8.4472,1.5057,-0.1319,0.2572,0.1217,0.0282,0.0867,0.0524,903,2019-08-07 16:16:24:035
4.8752,-8.4472,1.5057,0.2798,0.2313,0.0564,0.0282,0.0867,0.0524,907,2019-08-07 16:16:24:039
4.8752,-8.4472,1.5057,0.2798,0.2313,0.0564,0.0389,0.0835,0.0428,913,2019-08-07 16:16:24:045
4.7125,-8.4424,1.5623,0.2798,0.2313,0.0564,0.0389,0.0835,0.0428,917,2019-08-07 16:16:24:049
4.7125,-8.4424,1.5623,0.2798,0.2313,0.0564,0.0527,0.0686,0.0279,923,2019-08-07 16:16:24:055
4.7125,-8.4424,1.5623,0.516,0.2025,-0.0273,0.0527,0.0686,0.0279,928,2019-08-07 16:16:24:060
4.5786,-8.3756,1.5953,0.516,0.2025,-0.0273,0.0527,0.0686,0.0279,933,2019-08-07 16:16:24:065
4.5786,-8.3756,1.5953,0.516,0.2025,-0.0273,0.0676,0.0441,0.0098,937,2019-08-07 16:16:24:069
4.4686,-8.3326,1.5623,0.516,0.2025,-0.0273,0.0676,0.0441,0.0098,943,2019-08-07 16:16:24:075
4.4686,-8.3326,1.5623,0.6431,0.1918,0.0546,0.0772,0.0153,-0.0072,949,2019-08-07 16:16:24:081
4.4781,-8.5141,1.6047,0.6431,0.1918,0.0546,0.0772,0.0153,-0.0072,953,2019-08-07 16:16:24:085
4.4781,-8.5141,1.6047,0.6431,0.1918,0.0546,0.0857,-0.0561,-0.004,957,2019-08-07 16:16:24:089
4.4781,-8.5141,1.6047,0.6431,0.1918,0.0546,0.0857,-0.0561,-0.004,964,2019-08-07 16:16:24:096
4.5547,-8.9628,1.468,0.5546,0.7457,0.1475,0.0911,-0.1157,-0.0072,967,2019-08-07 16:16:24:099
4.5547,-8.9628,1.468,0.5546,0.7457,0.1475,0.0911,-0.1157,-0.0072,973,2019-08-07 16:16:24:105
4.5547,-8.9628,1.468,0.5546,0.7457,0.1475,0.1081,-0.1349,0.0034,977,2019-08-07 16:16:24:109
4.4016,-9.4306,1.468,0.5546,0.7457,0.1475,0.1081,-0.1349,0.0034,983,2019-08-07 16:16:24:115
4.4016,-9.4306,1.468,0.9328,1.6457,0.1173,0.1443,-0.1445,0.0354,987,2019-08-07 16:16:24:119
4.0093,-10.1181,1.5529,0.9328,1.6457,0.1173,0.1443,-0.1445,0.0354,993,2019-08-07 16:16:24:125
4.0093,-10.1181,1.5529,0.9328,1.6457,0.1173,0.1944,-0.1349,0.0652,998,2019-08-07 16:16:24:130
4.0093,-10.1181,1.5529,0.9328,1.6457,0.1173,0.1944,-0.1349,0.0652,1003,2019-08-07 16:16:24:135
3.2439,-11.0919,1.6189,0.9328,1.6457,0.1173,0.1944,-0.1349,0.0652,1008,2019-08-07 16:16:24:140
3.2439,-11.0919,1.6189,2.037,3.0972,-0.0551,0.2541,-0.1306,0.094,1013,2019-08-07 16:16:24:145
2.1627,-12.3283,2.1516,2.037,3.0972,-0.0551,0.2541,-0.1306,0.094,1018,2019-08-07 16:16:24:150
2.1627,-12.3283,2.1516,2.037,3.0972,-0.0551,0.3361,-0.2191,0.1707,1022,2019-08-07 16:16:24:154
2.1627,-12.3283,2.1516,2.037,3.0972,-0.0551,0.3361,-0.2191,0.1707,1028,2019-08-07 16:16:24:160
1.0336,-13.9658,2.0479,3.8114,5.3112,-0.4747,0.4554,-0.3469,0.3113,1033,2019-08-07 16:16:24:165
1.0336,-13.9658,2.0479,3.8114,5.3112,-0.4747,0.4554,-0.3469,0.3113,1038,2019-08-07 16:16:24:170
0.3447,-15.4886,1.8593,3.8114,5.3112,-0.4747,0.4554,-0.3469,0.3113,1043,2019-08-07 16:16:24:175
0.3447,-15.4886,1.8593,5.1511,8.3128,0.2187,0.5928,-0.3618,0.4391,1048,2019-08-07 16:16:24:180
0.3447,-15.4886,1.8593,5.1511,8.3128,0.2187,0.5928,-0.3618,0.4391,1053,2019-08-07 16:16:24:185
-0.7509,-17.5366,0.8081,5.1511,8.3128,0.2187,0.8272,-0.2095,0.6245,1058,2019-08-07 16:16:24:190
-0.7509,-17.5366,0.8081,5.1511,8.3128,0.2187,0.8272,-0.2095,0.6245,1063,2019-08-07 16:16:24:195
-1.6599,-19.217,-0.0781,6.4803,10.8742,1.9211,1.135,0.3029,0.7321,1068,2019-08-07 16:16:24:200
-1.6599,-19.217,-0.0781,6.4803,10.8742,1.9211,1.135,0.3029,0.7321,1072,2019-08-07 16:16:24:204
-1.6599,-19.217,-0.0781,6.4803,10.8742,1.9211,1.5409,1.2776,0.7214,1078,2019-08-07 16:16:24:210
-1.0714,-21.4273,-0.7333,6.4803,10.8742,1.9211,1.5409,1.2776,0.7214,1083,2019-08-07 16:16:24:215
-1.0714,-21.4273,-0.7333,5.1542,14.1354,3.6858,1.9606,2.7179,0.4061,1088,2019-08-07 16:16:24:220
-1.0714,-21.4273,-0.7333,5.1542,14.1354,3.6858,1.9606,2.7179,0.4061,1093,2019-08-07 16:16:24:225
-0.4033,-22.7351,-1.7989,5.1542,14.1354,3.6858,1.9606,2.7179,0.4061,1098,2019-08-07 16:16:24:230
-0.4033,-22.7351,-1.7989,5.1542,14.1354,3.6858,2.1396,4.0697,0.0343,1103,2019-08-07 16:16:24:235
-2.2309,-23.6087,-3.7458,5.1542,14.1354,3.6858,2.1396,4.0697,0.0343,1108,2019-08-07 16:16:24:240
-2.2309,-23.6087,-3.7458,7.1228,15.8797,7.1465,2.2099,5.462,-0.101,1113,2019-08-07 16:16:24:245
-4.1972,-26.43,-5.8623,7.1228,15.8797,7.1465,2.2099,5.462,-0.101,1118,2019-08-07 16:16:24:250
-4.1972,-26.43,-5.8623,7.1228,15.8797,7.1465,2.0533,7.4018,0.0343,1122,2019-08-07 16:16:24:254
-4.1972,-26.43,-5.8623,7.1228,15.8797,7.1465,2.0533,7.4018,0.0343,1128,2019-08-07 16:16:24:260
-6.8477,-31.791,-7.9693,10.7046,23.6094,11.7669,1.7806,8.2445,0.1547,1133,2019-08-07 16:16:24:265
-6.8477,-31.791,-7.9693,10.7046,23.6094,11.7669,1.7806,8.2445,0.1547,1138,2019-08-07 16:16:24:270
-6.8477,-31.791,-7.9693,10.7046,23.6094,11.7669,1.4024,8.7995,0.3124,1143,2019-08-07 16:16:24:275
-8.881,-31.7815,-9.7559,10.7046,23.6094,11.7669,1.4024,8.7995,0.3124,1148,2019-08-07 16:16:24:280
-8.881,-31.7815,-9.7559,11.2051,22.8834,13.0031,1.4024,8.7995,0.3124,1152,2019-08-07 16:16:24:284
-8.881,-31.7815,-9.7559,11.2051,22.8834,13.0031,1.591,9.4599,0.0343,1158,2019-08-07 16:16:24:290
-7.1204,-29.3373,-6.4373,9.3412,20.7091,10.6884,1.591,9.4599,0.0343,1163,2019-08-07 16:16:24:295
-7.1204,-29.3373,-6.4373,9.3412,20.7091,10.6884,2.6999,9.4152,-0.6847,1168,2019-08-07 16:16:24:300
-4.5943,-25.1507,-0.3471,9.3412,20.7091,10.6884,2.6999,9.4152,-0.6847,1173,2019-08-07 16:16:24:305
-4.5943,-25.1507,-0.3471,9.3412,20.7091,10.6884,4.4224,8.5981,-1.4624,1178,2019-08-07 16:16:24:310
-4.5943,-25.1507,-0.3471,4.9841,14.4999,3.2177,4.4224,8.5981,-1.4624,1183,2019-08-07 16:16:24:315
-2.1496,-20.2289,4.2347,4.9841,14.4999,3.2177,4.4224,8.5981,-1.4624,1188,2019-08-07 16:16:24:320
-2.1496,-20.2289,4.2347,4.9841,14.4999,3.2177,7.0888,7.551,-2.2379,1192,2019-08-07 16:16:24:324
-0.0828,-15.1209,-2.2845,4.9841,14.4999,3.2177,7.0888,7.551,-2.2379,1199,2019-08-07 16:16:24:331
-0.0828,-15.1209,-2.2845,1.0446,6.8428,12.8355,9.7647,9.5867,-3.1359,1203,2019-08-07 16:16:24:335
-0.0828,-15.1209,-2.2845,1.0446,6.8428,12.8355,9.7647,9.5867,-3.1359,1208,2019-08-07 16:16:24:340
-1.1736,-5.7355,-0.4461,1.0446,6.8428,12.8355,10.7032,11.419,-3.5641,1213,2019-08-07 16:16:24:345
-1.1736,-5.7355,-0.4461,1.0446,6.8428,12.8355,10.7032,11.419,-3.5641,1219,2019-08-07 16:16:24:351
-9.5221,9.9703,-2.9538,6.8212,-11.2763,11.2319,11.4233,10.5018,-3.5173,1223,2019-08-07 16:16:24:355
-9.5221,9.9703,-2.9538,6.8212,-11.2763,11.2319,11.4233,10.5018,-3.5173,1228,2019-08-07 16:16:24:360
-9.5221,9.9703,-2.9538,6.8212,-11.2763,11.2319,12.1264,8.629,-2.484,1233,2019-08-07 16:16:24:365
-28.4868,73.634,34.4879,6.8212,-11.2763,11.2319,12.1264,8.629,-2.484,1238,2019-08-07 16:16:24:370
-28.4868,73.634,34.4879,33.3203,-93.8724,-13.555,14.2229,1.1701,0.3145,1243,2019-08-07 16:16:24:375
-20.2244,91.1444,-8.667,33.3203,-93.8724,-13.555,14.2229,1.1701,0.3145,1248,2019-08-07 16:16:24:380
-20.2244,91.1444,-8.667,33.3203,-93.8724,-13.555,9.4462,-8.7582,-0.8392,1253,2019-08-07 16:16:24:385
-20.2244,91.1444,-8.667,33.3203,-93.8724,-13.555,9.4462,-8.7582,-0.8392,1258,2019-08-07 16:16:24:390
-2.1209,58.9354,-27.2017,1.4644,-59.3274,36.9818,3.7098,-14.9975,-0.1649,1263,2019-08-07 16:16:24:395
-2.1209,58.9354,-27.2017,1.4644,-59.3274,36.9818,3.7098,-14.9975,-0.1649,1268,2019-08-07 16:16:24:400
-2.1209,58.9354,-27.2017,1.4644,-59.3274,36.9818,3.7098,-14.9975,-0.1649,1273,2019-08-07 16:16:24:405
19.7431,48.6144,-24.5478,1.4644,-59.3274,36.9818,-2.9439,-12.8786,2.3119,1278,2019-08-07 16:16:24:410
19.7431,48.6144,-24.5478,-31.643,-31.0822,35.1046,-2.9439,-12.8786,2.3119,1283,2019-08-07 16:16:24:415
19.7431,48.6144,-24.5478,-31.643,-31.0822,35.1046,-5.7391,-6.5733,2.7305,1287,2019-08-07 16:16:24:419
29.4742,26.3493,-18.401,-31.643,-31.0822,35.1046,-5.7391,-6.5733,2.7305,1293,2019-08-07 16:16:24:425
29.4742,26.3493,-18.401,-31.643,-31.0822,35.1046,-7.6715,-3.3318,3.2418,1299,2019-08-07 16:16:24:431
15.6047,20.678,1.9532,-12.6747,-22.5424,7.2215,-7.6715,-3.3318,3.2418,1303,2019-08-07 16:16:24:435
15.6047,20.678,1.9532,-12.6747,-22.5424,7.2215,-8.5024,-0.6409,4.3572,1307,2019-08-07 16:16:24:439
15.6047,20.678,1.9532,-12.6747,-22.5424,7.2215,-8.5024,-0.6409,4.3572,1313,2019-08-07 16:16:24:445
8.8207,20.2722,31.5607,-12.6747,-22.5424,7.2215,-6.5519,-2.9355,4.6757,1318,2019-08-07 16:16:24:450
8.8207,20.2722,31.5607,-3.4954,-20.0297,-5.9794,-6.5519,-2.9355,4.6757,1322,2019-08-07 16:16:24:454
6.8783,15.3695,10.6549,-3.4954,-20.0297,-5.9794,-3.4733,-1.3866,4.5297,1328,2019-08-07 16:16:24:460
6.8783,15.3695,10.6549,-3.4954,-20.0297,-5.9794,-3.4733,-1.3866,4.5297,1333,2019-08-07 16:16:24:465
6.8783,15.3695,10.6549,-3.4954,-20.0297,-5.9794,-3.4733,-1.3866,4.5297,1338,2019-08-07 16:16:24:470
4.4335,17.4796,1.6421,0.2471,-22.2303,9.5649,-3.4136,-2.6031,3.4261,1343,2019-08-07 16:16:24:475
4.4335,17.4796,1.6421,0.2471,-22.2303,9.5649,-4.5396,-2.9152,3.4251,1349,2019-08-07 16:16:24:481
-0.1929,16.0092,-7.8468,0.2471,-22.2303,9.5649,-4.5396,-2.9152,3.4251,1353,2019-08-07 16:16:24:485
-0.1929,16.0092,-7.8468,0.2471,-22.2303,9.5649,-4.5396,-2.9152,3.4251,1358,2019-08-07 16:16:24:490
-0.1929,16.0092,-7.8468,0.9575,-14.8594,13.7465,-5.5399,-2.9056,3.6445,1363,2019-08-07 16:16:24:495
3.2374,7.7362,-4.4764,0.9575,-14.8594,13.7465,-5.5399,-2.9056,3.6445,1367,2019-08-07 16:16:24:499
3.2374,7.7362,-4.4764,0.9575,-14.8594,13.7465,-6.9823,-3.3903,3.539,1373,2019-08-07 16:16:24:505
7.2466,-0.1167,8.727,0.9575,-14.8594,13.7465,-6.9823,-3.3903,3.539,1378,2019-08-07 16:16:24:510
7.2466,-0.1167,8.727,-2.9823,-5.1335,-8.5983,-7.1921,-4.4535,2.7518,1383,2019-08-07 16:16:24:515
7.2466,-0.1167,8.727,-2.9823,-5.1335,-8.5983,-7.1921,-4.4535,2.7518,1388,2019-08-07 16:16:24:520
3.5006,-3.8117,8.7741,-2.9823,-5.1335,-8.5983,-5.6901,-5.0841,1.841,1393,2019-08-07 16:16:24:525
3.5006,-3.8117,8.7741,-2.9823,-5.1335,-8.5983,-5.6901,-5.0841,1.841,1398,2019-08-07 16:16:24:530
-0.9727,-8.829,-0.4037,4.6782,1.5866,5.8857,-5.2832,-5.0351,1.3275,1404,2019-08-07 16:16:24:536
-0.9727,-8.829,-0.4037,4.6782,1.5866,5.8857,-5.2832,-5.0351,1.3275,1408,2019-08-07 16:16:24:540
-0.9727,-8.829,-0.4037,4.6782,1.5866,5.8857,-5.5133,-5.1065,1.417,1413,2019-08-07 16:16:24:545
-5.2211,-13.6648,0.0677,9.0726,6.0663,4.797,-5.5133,-5.1065,1.417,1418,2019-08-07 16:16:24:550
-5.2211,-13.6648,0.0677,9.0726,6.0663,4.797,-5.1032,-5.1576,2.2192,1423,2019-08-07 16:16:24:555
-8.7375,-34.1111,-0.9411,9.0726,6.0663,4.797,-5.1032,-5.1576,2.2192,1428,2019-08-07 16:16:24:560
-8.7375,-34.1111,-0.9411,8.8284,34.7448,2.6362,-4.8965,-6.062,2.9894,1433,2019-08-07 16:16:24:565
0.6396,-37.8156,5.498,8.8284,34.7448,2.6362,-4.8965,-6.062,2.9894,1438,2019-08-07 16:16:24:570
0.6396,-37.8156,5.498,8.8284,34.7448,2.6362,-3.4211,-6.2495,2.0019,1443,2019-08-07 16:16:24:575
0.6396,-37.8156,5.498,8.8284,34.7448,2.6362,-3.4211,-6.2495,2.0019,1449,2019-08-07 16:16:24:581
5.0698,-19.0975,6.6859,0.4568,9.2384,-3.4115,-0.8613,-5.784,0.0396,1453,2019-08-07 16:16:24:585
5.0698,-19.0975,6.6859,0.4568,9.2384,-3.4115,-0.8613,-5.784,0.0396,1458,2019-08-07 16:16:24:590
-3.2644,-16.9445,2.9384,0.4568,9.2384,-3.4115,-0.8613,-5.784,0.0396,1463,2019-08-07 16:16:24:595
-3.2644,-16.9445,2.9384,0.4568,9.2384,-3.4115,0.9816,-4.9776,-0.6528,1467,2019-08-07 16:16:24:599
-3.2644,-16.9445,2.9384,0.4568,9.2384,-3.4115,0.9816,-4.9776,-0.6528,1473,2019-08-07 16:16:24:605
-6.6421,-23.3939,-8.6764,10.8225,14.7861,10.8363,0.3318,-4.2649,0.1483,1478,2019-08-07 16:16:24:610
-6.6421,-23.3939,-8.6764,10.8225,14.7861,10.8363,0.3318,-4.2649,0.1483,1483,2019-08-07 16:16:24:615
-5.3407,-25.6185,-13.0131,10.8225,14.7861,10.8363,-2.2056,-3.6897,0.9174,1488,2019-08-07 16:16:24:620
-5.3407,-25.6185,-13.0131,10.8225,14.7861,10.8363,-2.2056,-3.6897,0.9174,1493,2019-08-07 16:16:24:625
-5.3407,-25.6185,-13.0131,8.4873,16.3997,-0.0345,-2.7553,-3.0463,0.8823,1499,2019-08-07 16:16:24:631
-1.2167,-25.7617,0.1997,8.4873,16.3997,-0.0345,-2.7553,-3.0463,0.8823,1502,2019-08-07 16:16:24:634
-1.2167,-25.7617,0.1997,8.4873,16.3997,-0.0345,-2.7553,-3.0463,0.8823,1508,2019-08-07 16:16:24:640
-1.2167,-25.7617,0.1997,8.4873,16.3997,-0.0345,-1.5153,-1.9128,0.1068,1513,2019-08-07 16:16:24:645
-0.279,-24.0574,1.6987,4.4133,15.2174,-0.6998,-1.5153,-1.9128,0.1068,1518,2019-08-07 16:16:24:650
-0.279,-24.0574,1.6987,4.4133,15.2174,-0.6998,0.7633,0.2241,-1.0522,1523,2019-08-07 16:16:24:655
-3.4701,-19.317,1.3027,7.6708,10.5137,-0.2582,0.7633,0.2241,-1.0522,1527,2019-08-07 16:16:24:659
-3.4701,-19.317,1.3027,7.6708,10.5137,-0.2582,2.1971,1.7645,-1.0927,1533,2019-08-07 16:16:24:665
-3.4701,-19.317,1.3027,7.6708,10.5137,-0.2582,2.1971,1.7645,-1.0927,1538,2019-08-07 16:16:24:670
-4.0442,-13.4643,-3.7976,7.6708,10.5137,-0.2582,1.7635,1.5482,-0.7263,1543,2019-08-07 16:16:24:675
-4.0442,-13.4643,-3.7976,8.4115,2.8876,4.8488,1.7635,1.5482,-0.7263,1548,2019-08-07 16:16:24:680
-3.7668,-9.0151,0.3788,8.4115,2.8876,4.8488,1.7635,1.5482,-0.7263,1553,2019-08-07 16:16:24:685
-3.7668,-9.0151,0.3788,8.4115,2.8876,4.8488,0.0154,0.7099,-0.3769,1558,2019-08-07 16:16:24:690
-2.6616,-7.8647,8.9249,8.4115,2.8876,4.8488,0.0154,0.7099,-0.3769,1563,2019-08-07 16:16:24:695
-2.6616,-7.8647,8.9249,6.9419,-0.8619,-6.6727,0.1443,-0.4289,-0.2693,1568,2019-08-07 16:16:24:700
-2.6616,-7.8647,8.9249,6.9419,-0.8619,-6.6727,0.1443,-0.4289,-0.2693,1573,2019-08-07 16:16:24:705
-0.5183,-8.9626,5.0926,6.9419,-0.8619,-6.6727,0.5012,-1.4803,-0.0797,1578,2019-08-07 16:16:24:710
-0.5183,-8.9626,5.0926,6.9419,-0.8619,-6.6727,0.5012,-1.4803,-0.0797,1583,2019-08-07 16:16:24:715
3.821,-10.4616,2.5236,1.2371,1.6216,-1.3037,0.4756,-2.1429,-0.0307,1588,2019-08-07 16:16:24:720
3.821,-10.4616,2.5236,1.2371,1.6216,-1.3037,0.4756,-2.1429,-0.0307,1593,2019-08-07 16:16:24:725
3.821,-10.4616,2.5236,1.2371,1.6216,-1.3037,0.2626,-2.2324,-0.1628,1598,2019-08-07 16:16:24:730
5.7826,-9.8935,1.8401,1.2371,1.6216,-1.3037,0.2626,-2.2324,-0.1628,1602,2019-08-07 16:16:24:734
5.7826,-9.8935,1.8401,-2.2376,0.8655,-0.4603,0.2626,-2.2324,-0.1628,1608,2019-08-07 16:16:24:740
5.7826,-9.8935,1.8401,-2.2376,0.8655,-0.4603,0.0655,-1.9906,-0.1777,1613,2019-08-07 16:16:24:745
7.1891,-9.2682,1.2886,-2.2376,0.8655,-0.4603,0.0655,-1.9906,-0.1777,1618,2019-08-07 16:16:24:750
7.1891,-9.2682,1.2886,-2.2376,0.8655,-0.4603,-0.0037,-1.035,0.0098,1622,2019-08-07 16:16:24:754
8.1412,-8.2895,-0.5074,-3.7678,-0.4115,2.1331,-0.0037,-1.035,0.0098,1628,2019-08-07 16:16:24:760
8.1412,-8.2895,-0.5074,-3.7678,-0.4115,2.1331,-0.1135,0.0526,0.144,1633,2019-08-07 16:16:24:765
8.1412,-8.2895,-0.5074,-3.7678,-0.4115,2.1331,-0.1135,0.0526,0.144,1637,2019-08-07 16:16:24:769
8.1986,-7.7453,-0.8939,-3.7678,-0.4115,2.1331,-0.2647,0.9591,0.1377,1643,2019-08-07 16:16:24:775
8.1986,-7.7453,-0.8939,-2.7882,-0.8247,1.8387,-0.2647,0.9591,0.1377,1648,2019-08-07 16:16:24:780
6.4045,-7.8551,0.0394,-2.7882,-0.8247,1.8387,-0.2647,0.9591,0.1377,1653,2019-08-07 16:16:24:785
6.4045,-7.8551,0.0394,-2.7882,-0.8247,1.8387,-0.3947,1.5844,0.0013,1658,2019-08-07 16:16:24:790
6.4045,-7.8551,0.0394,-1.0971,-0.6522,0.7275,-0.3947,1.5844,0.0013,1663,2019-08-07 16:16:24:795
4.8831,-8.2084,1.0293,-1.0971,-0.6522,0.7275,-0.4043,1.5535,-0.0392,1667,2019-08-07 16:16:24:799
4.8831,-8.2084,1.0293,-1.0971,-0.6522,0.7275,-0.4043,1.5535,-0.0392,1673,2019-08-07 16:16:24:805
4.2994,-9.0151,1.8306,0.1335,0.3821,-0.3967,-0.27,1.1008,-0.0413,1678,2019-08-07 16:16:24:810
4.2994,-9.0151,1.8306,0.1335,0.3821,-0.3967,-0.27,1.1008,-0.0413,1683,2019-08-07 16:16:24:815
4.2994,-9.0151,1.8306,0.1335,0.3821,-0.3967,-0.0453,0.6577,-0.0456,1687,2019-08-07 16:16:24:819
4.4334,-9.0008,1.9108,0.1335,0.3821,-0.3967,-0.0453,0.6577,-0.0456,1693,2019-08-07 16:16:24:825
4.4334,-9.0008,1.9108,-0.1253,0.03,-0.2132,0.0399,0.3743,-0.0189,1698,2019-08-07 16:16:24:830
4.6822,-8.4566,1.4488,-0.1253,0.03,-0.2132,0.0399,0.3743,-0.0189,1703,2019-08-07 16:16:24:835
4.6822,-8.4566,1.4488,-0.1253,0.03,-0.2132,0.0399,0.3743,-0.0189,1708,2019-08-07 16:16:24:840
4.6822,-8.4566,1.4488,-0.1253,0.03,-0.2132,0.0538,0.1122,0.0354,1713,2019-08-07 16:16:24:845
5.084,-8.2991,1.4347,-0.7091,-0.3413,0.0384,0.0538,0.1122,0.0354,1718,2019-08-07 16:16:24:850
5.084,-8.2991,1.4347,-0.7091,-0.3413,0.0384,-0.0261,0.0206,0.0301,1723,2019-08-07 16:16:24:855
5.084,-8.2991,1.4347,-0.7091,-0.3413,0.0384,-0.0261,0.0206,0.0301,1728,2019-08-07 16:16:24:860
5.3472,-8.4184,1.3404,-0.9337,-0.2127,0.1633,-0.0804,0.0547,0.0162,1734,2019-08-07 16:16:24:866
5.3472,-8.4184,1.3404,-0.9337,-0.2127,0.1633,-0.0804,0.0547,0.0162,1738,2019-08-07 16:16:24:870
5.5912,-8.6141,1.0576,-0.9337,-0.2127,0.1633,-0.1156,0.1921,-0.0168,1743,2019-08-07 16:16:24:875
5.5912,-8.6141,1.0576,-1.1164,0.0695,0.1505,-0.1156,0.1921,-0.0168,1748,2019-08-07 16:16:24:880
5.5912,-8.6141,1.0576,-1.1164,0.0695,0.1505,-0.0922,0.3807,-0.0754,1753,2019-08-07 16:16:24:885
5.2945,-8.4661,1.4017,-1.1164,0.0695,0.1505,-0.0922,0.3807,-0.0754,1758,2019-08-07 16:16:24:890
5.2945,-8.4661,1.4017,-1.1164,0.0695,0.1505,-0.0922,0.3807,-0.0754,1763,2019-08-07 16:16:24:895
4.8927,-8.1033,1.5902,-0.4663,-0.5184,-0.0705,-0.0645,0.5362,-0.1255,1768,2019-08-07 16:16:24:900
4.8927,-8.1033,1.5902,-0.4663,-0.5184,-0.0705,-0.0645,0.5362,-0.1255,1773,2019-08-07 16:16:24:905
4.8927,-8.1033,1.5902,-0.4663,-0.5184,-0.0705,-0.0708,0.6289,-0.1787,1777,2019-08-07 16:16:24:909
4.5769,-7.7167,1.7081,-0.4663,-0.5184,-0.0705,-0.0708,0.6289,-0.1787,1784,2019-08-07 16:16:24:916
4.5769,-7.7167,1.7081,0.0085,-0.8653,-0.1443,-0.1071,0.6129,-0.1968,1788,2019-08-07 16:16:24:920
4.3999,-7.7023,1.7505,0.0085,-0.8653,-0.1443,-0.1071,0.6129,-0.1968,1793,2019-08-07 16:16:24:925
4.3999,-7.7023,1.7505,0.0085,-0.8653,-0.1443,-0.1294,0.5959,-0.199,1798,2019-08-07 16:16:24:930
4.3999,-7.7023,1.7505,0.1753,-0.8813,-0.362,-0.1294,0.5959,-0.199,1803,2019-08-07 16:16:24:935
4.041,-7.8169,2.0852,0.1753,-0.8813,-0.362,-0.1294,0.5959,-0.199,1808,2019-08-07 16:16:24:940
4.041,-7.8169,2.0852,0.1753,-0.8813,-0.362,-0.1273,0.4755,-0.199,1813,2019-08-07 16:16:24:945
4.041,-7.8169,2.0852,0.1753,-0.8813,-0.362,-0.1273,0.4755,-0.199,1818,2019-08-07 16:16:24:950
4.0889,-8.1845,2.0993,0.38,-0.3998,-0.4948,-0.1465,0.2411,-0.1681,1823,2019-08-07 16:16:24:955
4.0889,-8.1845,2.0993,0.38,-0.3998,-0.4948,-0.1465,0.2411,-0.1681,1828,2019-08-07 16:16:24:960
4.4046,-8.5521,1.4865,0.38,-0.3998,-0.4948,-0.1731,0.1218,-0.1574,1834,2019-08-07 16:16:24:966
4.4046,-8.5521,1.4865,-0.3956,0.2443,0.0923,-0.1731,0.1218,-0.1574,1838,2019-08-07 16:16:24:970
4.9405,-8.8862,1.5242,-0.3956,0.2443,0.0923,-0.1902,0.075,-0.1628,1843,2019-08-07 16:16:24:975
4.9405,-8.8862,1.5242,-0.3956,0.2443,0.0923,-0.1902,0.075,-0.1628,1848,2019-08-07 16:16:24:980
4.9405,-8.8862,1.5242,-0.3956,0.2443,0.0923,-0.1369,0.1549,-0.1585,1852,2019-08-07 16:16:24:984
5.0362,-8.8815,1.4252,-0.3956,0.2443,0.0923,-0.1369,0.1549,-0.1585,1858,2019-08-07 16:16:24:990
5.0362,-8.8815,1.4252,-0.5181,0.1879,0.198,-0.1017,0.2688,-0.1521,1863,2019-08-07 16:16:24:995
5.0505,-8.6523,1.1801,-0.5181,0.1879,0.198,-0.1017,0.2688,-0.1521,1868,2019-08-07 16:16:25:000
5.0505,-8.6523,1.1801,-0.5181,0.1879,0.198,-0.1017,0.2688,-0.1521,1873,2019-08-07 16:16:25:005
5.0505,-8.6523,1.1801,-0.5181,0.1879,0.198,-0.0879,0.4425,-0.1702,1878,2019-08-07 16:16:25:010
5.1558,-8.5759,1.4724,-0.6185,0.0242,0.1144,-0.0879,0.4425,-0.1702,1883,2019-08-07 16:16:25:015
5.1558,-8.5759,1.4724,-0.6185,0.0242,0.1144,-0.0698,0.5032,-0.2139,1888,2019-08-07 16:16:25:020
4.8639,-8.4757,1.496,-0.3153,-0.0672,0.1057,-0.0698,0.5032,-0.2139,1893,2019-08-07 16:16:25:025
4.8639,-8.4757,1.496,-0.3153,-0.0672,0.1057,-0.0208,0.5373,-0.215,1899,2019-08-07 16:16:25:031
4.8639,-8.4757,1.496,-0.3153,-0.0672,0.1057,-0.0208,0.5373,-0.215,1903,2019-08-07 16:16:25:035
4.3424,-8.3038,2.2737,-0.3153,-0.0672,0.1057,-0.0208,0.5373,-0.215,1908,2019-08-07 16:16:25:040
4.3424,-8.3038,2.2737,0.3966,-0.3158,-0.5493,0.0122,0.4435,-0.1734,1914,2019-08-07 16:16:25:046
4.1654,-8.194,2.0333,0.3966,-0.3158,-0.5493,0.0122,0.4435,-0.1734,1918,2019-08-07 16:16:25:050
4.1654,-8.194,2.0333,0.3966,-0.3158,-0.5493,-0.0272,0.206,-0.0946,1923,2019-08-07 16:16:25:055
4.1654,-8.194,2.0333,0.3966,-0.3158,-0.5493,-0.0272,0.206,-0.0946,1927,2019-08-07 16:16:25:059
4.6725,-8.3707,2.0428,-0.0958,-0.144,-0.3724,-0.0549,0.0132,-0.0775,1934,2019-08-07 16:16:25:066
4.6725,-8.3707,2.0428,-0.0958,-0.144,-0.3724,-0.0549,0.0132,-0.0775,1938,2019-08-07 16:16:25:070
4.9309,-8.5616,1.8401,-0.3462,0.0502,-0.175,-0.0613,-0.0518,-0.085,1943,2019-08-07 16:16:25:075
4.9309,-8.5616,1.8401,-0.3462,0.0502,-0.175,-0.0613,-0.0518,-0.085,1947,2019-08-07 16:16:25:079
4.9309,-8.5616,1.8401,-0.3462,0.0502,-0.175,-0.0676,-0.0497,-0.0466,1954,2019-08-07 16:16:25:086
5.2706,-8.638,1.6232,-0.3462,0.0502,-0.175,-0.0676,-0.0497,-0.0466,1958,2019-08-07 16:16:25:090
5.2706,-8.638,1.6232,-0.7855,0.1507,0.1342,-0.0676,-0.0497,-0.0466,1963,2019-08-07 16:16:25:095
5.2706,-8.638,1.6232,-0.7855,0.1507,0.1342,-0.0655,0.0835,2.0E-4,1967,2019-08-07 16:16:25:099
5.3902,-8.5712,1.5525,-0.7855,0.1507,0.1342,-0.0655,0.0835,2.0E-4,1973,2019-08-07 16:16:25:105
5.3902,-8.5712,1.5525,-0.7855,0.1507,0.1342,-0.0623,0.1815,0.0269,1978,2019-08-07 16:16:25:110
5.2801,-8.3802,1.5667,-0.682,-0.127,0.0826,-0.0623,0.1815,0.0269,1983,2019-08-07 16:16:25:115
5.2801,-8.3802,1.5667,-0.682,-0.127,0.0826,-0.074,0.2944,0.0588,1988,2019-08-07 16:16:25:120
5.2801,-8.3802,1.5667,-0.4932,-0.1632,0.0891,-0.074,0.2944,0.0588,1993,2019-08-07 16:16:25:125
5.0074,-8.3134,1.6326,-0.4932,-0.1632,0.0891,-0.0975,0.336,0.0588,1998,2019-08-07 16:16:25:130
5.0074,-8.3134,1.6326,-0.4932,-0.1632,0.0891,-0.0975,0.336,0.0588,2003,2019-08-07 16:16:25:135
5.0074,-8.3134,1.6326,-0.4932,-0.1632,0.0891,-0.0975,0.336,0.0588,2008,2019-08-07 16:16:25:140
4.4476,-8.1749,2.005,-0.4932,-0.1632,0.0891,-0.1209,0.3008,0.0652,2013,2019-08-07 16:16:25:145
4.4476,-8.1749,2.005,0.209,-0.3578,-0.3743,-0.1209,0.3008,0.0652,2018,2019-08-07 16:16:25:150
4.4046,-8.2895,1.906,0.209,-0.3578,-0.3743,-0.1007,0.1346,0.1046,2023,2019-08-07 16:16:25:155
4.4046,-8.2895,1.906,0.209,-0.3578,-0.3743,-0.1007,0.1346,0.1046,2028,2019-08-07 16:16:25:160
4.4046,-8.2895,1.906,-0.0045,-0.1695,-0.0794,-0.089,-7.0E-4,0.0993,2033,2019-08-07 16:16:25:165
4.5481,-8.3707,1.7363,-0.0045,-0.1695,-0.0794,-0.089,-7.0E-4,0.0993,2038,2019-08-07 16:16:25:170
4.5481,-8.3707,1.7363,-0.0045,-0.1695,-0.0794,-0.089,-7.0E-4,0.0993,2043,2019-08-07 16:16:25:175
4.773,-8.4041,1.5667,-0.0045,-0.1695,-0.0794,-0.0666,-0.0752,0.0844,2048,2019-08-07 16:16:25:180
4.773,-8.4041,1.5667,-0.322,-0.0978,0.0913,-0.0666,-0.0752,0.0844,2053,2019-08-07 16:16:25:185
4.773,-8.4041,1.5667,-0.322,-0.0978,0.0913,-0.0304,-0.0625,0.0663,2057,2019-08-07 16:16:25:189
4.9213,-8.4089,1.4865,-0.322,-0.0978,0.0913,-0.0304,-0.0625,0.0663,2063,2019-08-07 16:16:25:195
4.9213,-8.4089,1.4865,-0.322,-0.0978,0.0913,-0.0123,-0.0071,0.0546,2068,2019-08-07 16:16:25:200
4.9213,-8.4089,1.4865,-0.4003,-0.2028,0.16,-0.0123,-0.0071,0.0546,2073,2019-08-07 16:16:25:205
4.926,-8.2847,1.5525,-0.4003,-0.2028,0.16,-0.0091,0.0824,0.0439,2078,2019-08-07 16:16:25:210
4.926,-8.2847,1.5525,-0.4003,-0.2028,0.16,-0.0091,0.0824,0.0439,2083,2019-08-07 16:16:25:215
4.7452,-8.2228,1.6093,-0.4003,-0.2028,0.16,-0.0229,0.1655,0.0151,2088,2019-08-07 16:16:25:220
4.7452,-8.2228,1.6093,-0.4003,-0.2028,0.16,-0.0229,0.1655,0.0151,2092,2019-08-07 16:16:25:224
4.7452,-8.2228,1.6093,-0.0971,-0.3384,-0.0722,-0.024,0.1751,-0.0157,2098,2019-08-07 16:16:25:230
4.3625,-8.113,1.8167,-0.0971,-0.3384,-0.0722,-0.024,0.1751,-0.0157,2103,2019-08-07 16:16:25:235
4.3625,-8.113,1.8167,-0.0971,-0.3384,-0.0722,-0.024,0.1751,-0.0157,2108,2019-08-07 16:16:25:240
4.3625,-8.113,1.8167,-0.0971,-0.3384,-0.0722,-0.025,0.1122,-0.0232,2113,2019-08-07 16:16:25:245
4.2286,-8.1034,1.7931,0.3552,-0.4614,-0.1879,-0.025,0.1122,-0.0232,2118,2019-08-07 16:16:25:250
4.2286,-8.1034,1.7931,0.3552,-0.4614,-0.1879,-0.0304,-0.0284,-0.0232,2123,2019-08-07 16:16:25:255
4.4774,-8.2228,1.812,0.3552,-0.4614,-0.1879,-0.0304,-0.0284,-0.0232,2128,2019-08-07 16:16:25:260
4.4774,-8.2228,1.812,-0.063,-0.2634,-0.084,-0.0133,-0.1701,-0.037,2133,2019-08-07 16:16:25:265
4.4774,-8.2228,1.812,-0.063,-0.2634,-0.084,-0.0133,-0.1701,-0.037,2138,2019-08-07 16:16:25:270
4.7644,-8.3373,1.6281,-0.063,-0.2634,-0.084,0.009,-0.2169,-0.0328,2143,2019-08-07 16:16:25:275
4.7644,-8.3373,1.6281,-0.063,-0.2634,-0.084,0.009,-0.2169,-0.0328,2148,2019-08-07 16:16:25:280
4.7644,-8.3373,1.6281,-0.063,-0.2634,-0.084,0.0144,-0.2063,-0.0317,2152,2019-08-07 16:16:25:284
5.0945,-8.4662,1.5103,-0.5496,-0.0725,0.1237,0.0144,-0.2063,-0.0317,2158,2019-08-07 16:16:25:290
5.0945,-8.4662,1.5103,-0.5496,-0.0725,0.1237,0.0186,-0.1477,-0.0339,2163,2019-08-07 16:16:25:295
5.1615,-8.5378,1.6187,-0.5496,-0.0725,0.1237,0.0186,-0.1477,-0.0339,2168,2019-08-07 16:16:25:300
5.1615,-8.5378,1.6187,-0.5496,-0.0725,0.1237,0.0186,-0.1477,-0.0339,2173,2019-08-07 16:16:25:305
5.1615,-8.5378,1.6187,-0.5359,-0.0194,0.0285,0.0154,-0.0635,-0.0253,2178,2019-08-07 16:16:25:310
5.1328,-8.4662,1.581,-0.5359,-0.0194,0.0285,0.0154,-0.0635,-0.0253,2184,2019-08-07 16:16:25:316
5.1328,-8.4662,1.581,-0.5359,-0.0194,0.0285,-0.0112,0.0089,-0.02,2188,2019-08-07 16:16:25:320
5.1328,-8.4662,1.581,-0.5359,-0.0194,0.0285,-0.0112,0.0089,-0.02,2193,2019-08-07 16:16:25:325
4.908,-8.4042,1.7224,-0.3417,-0.1255,-0.1008,-0.0282,0.026,-0.0094,2198,2019-08-07 16:16:25:330
4.908,-8.4042,1.7224,-0.3417,-0.1255,-0.1008,-0.0282,0.026,-0.0094,2203,2019-08-07 16:16:25:335
4.7597,-8.3421,1.8686,-0.3417,-0.1255,-0.1008,-0.0293,0.0174,0.0024,2208,2019-08-07 16:16:25:340
4.7597,-8.3421,1.8686,-0.3417,-0.1255,-0.1008,-0.0293,0.0174,0.0024,2213,2019-08-07 16:16:25:345
4.7597,-8.3421,1.8686,-0.0389,-0.2204,-0.3705,-0.0293,0.0174,0.0024,2218,2019-08-07 16:16:25:350
4.6592,-8.2848,1.8356,-0.0389,-0.2204,-0.3705,-0.0293,-0.0742,0.0258,2223,2019-08-07 16:16:25:355
4.6592,-8.2848,1.8356,-0.0389,-0.2204,-0.3705,-0.0293,-0.0742,0.0258,2228,2019-08-07 16:16:25:360
4.6592,-8.2848,1.8356,-0.0389,-0.2204,-0.3705,-0.024,-0.1456,0.0407,2233,2019-08-07 16:16:25:365
4.8171,-8.2848,1.779,-0.25,-0.2467,-0.1697,-0.024,-0.1456,0.0407,2238,2019-08-07 16:16:25:370
4.8171,-8.2848,1.779,-0.25,-0.2467,-0.1697,-0.0091,-0.1669,0.0386,2244,2019-08-07 16:16:25:376
4.8697,-8.2801,1.647,-0.3022,-0.2528,-0.0458,-0.0091,-0.1669,0.0386,2249,2019-08-07 16:16:25:381
4.8697,-8.2801,1.647,-0.3022,-0.2528,-0.0458,-0.0091,-0.1669,0.0386,2254,2019-08-07 16:16:25:386
4.8697,-8.2801,1.647,-0.3022,-0.2528,-0.0458,-0.0016,-0.1445,0.0471,2258,2019-08-07 16:16:25:390
4.975,-8.3564,1.5527,-0.3022,-0.2528,-0.0458,-0.0016,-0.1445,0.0471,2263,2019-08-07 16:16:25:395
4.975,-8.3564,1.5527,-0.4363,-0.117,-0.0784,0.008,-0.1274,0.0386,2268,2019-08-07 16:16:25:400
4.975,-8.3564,1.5527,-0.4363,-0.117,-0.0784,0.008,-0.1274,0.0386,2273,2019-08-07 16:16:25:405
5.1616,-8.4758,1.7602,-0.4363,-0.117,-0.0784,0.0304,-0.072,0.0151,2278,2019-08-07 16:16:25:410
5.1616,-8.4758,1.7602,-0.4363,-0.117,-0.0784,0.0304,-0.072,0.0151,2283,2019-08-07 16:16:25:415
5.1138,-8.3612,1.6235,-0.5433,-0.1874,-0.0521,0.0304,0.0398,-0.0147,2288,2019-08-07 16:16:25:420
5.1138,-8.3612,1.6235,-0.5433,-0.1874,-0.0521,0.0304,0.0398,-0.0147,2293,2019-08-07 16:16:25:425
5.1138,-8.3612,1.6235,-0.4211,-0.3521,-0.1274,0.0304,0.0398,-0.0147,2299,2019-08-07 16:16:25:431
4.9033,-8.1034,1.6517,-0.4211,-0.3521,-0.1274,0.0016,0.0696,-0.0232,2303,2019-08-07 16:16:25:435
4.9033,-8.1034,1.6517,-0.4211,-0.3521,-0.1274,0.0016,0.0696,-0.0232,2308,2019-08-07 16:16:25:440
4.9607,-8.2657,1.9393,-0.4211,-0.3521,-0.1274,-0.0272,0.076,-0.0275,2314,2019-08-07 16:16:25:446
4.9607,-8.2657,1.9393,-0.4158,-0.243,-0.3658,-0.0272,0.076,-0.0275,2317,2019-08-07 16:16:25:449
4.9607,-8.2657,1.9393,-0.4158,-0.243,-0.3658,-0.0272,0.076,-0.0275,2323,2019-08-07 16:16:25:455
4.8794,-8.261,1.9251,-0.4158,-0.243,-0.3658,-0.0538,-0.0135,-0.0349,2329,2019-08-07 16:16:25:461
4.8794,-8.261,1.9251,-0.4158,-0.243,-0.3658,-0.0538,-0.0135,-0.0349,2333,2019-08-07 16:16:25:465
5.1616,-8.4376,1.8544,-0.5409,-0.1062,-0.3084,-0.0517,-0.1019,-0.02,2338,2019-08-07 16:16:25:470
5.1616,-8.4376,1.8544,-0.5409,-0.1062,-0.3084,-0.0517,-0.1019,-0.02,2343,2019-08-07 16:16:25:475
5.1616,-8.4376,1.8544,-0.6455,-0.0905,-0.1428,-0.0357,-0.1147,-0.0147,2348,2019-08-07 16:16:25:480
5.3387,-8.4472,1.6282,-0.6455,-0.0905,-0.1428,-0.0357,-0.1147,-0.0147,2353,2019-08-07 16:16:25:485
5.3387,-8.4472,1.6282,-0.6455,-0.0905,-0.1428,-0.0357,-0.1147,-0.0147,2357,2019-08-07 16:16:25:489
5.2478,-8.3278,1.6847,-0.6455,-0.0905,-0.1428,-0.0176,-0.0667,-0.0051,2363,2019-08-07 16:16:25:495
5.2478,-8.3278,1.6847,-0.5946,-0.2266,-0.0917,-0.0176,-0.0667,-0.0051,2368,2019-08-07 16:16:25:500
5.2478,-8.3278,1.6847,-0.5946,-0.2266,-0.0917,-0.0069,-0.023,0.0258,2373,2019-08-07 16:16:25:505
5.1138,-8.2705,1.6235,-0.5946,-0.2266,-0.0917,-0.0069,-0.023,0.0258,2378,2019-08-07 16:16:25:510
5.1138,-8.2705,1.6235,-0.5946,-0.2266,-0.0917,5.0E-4,0.0164,0.0322,2383,2019-08-07 16:16:25:515
5.1138,-8.2705,1.6235,-0.4614,-0.0505,-0.1774,5.0E-4,0.0164,0.0322,2387,2019-08-07 16:16:25:519
5.0229,-8.4949,1.7602,-0.4614,-0.0505,-0.1774,0.0059,0.0526,0.0098,2393,2019-08-07 16:16:25:525
5.0229,-8.4949,1.7602,-0.4614,-0.0505,-0.1774,0.0059,0.0526,0.0098,2399,2019-08-07 16:16:25:531
4.8364,-8.4424,1.7649,-0.4614,-0.0505,-0.1774,0.0059,0.0526,0.0098,2402,2019-08-07 16:16:25:534
4.8364,-8.4424,1.7649,-0.3038,-0.0971,-0.1044,0.0112,0.0387,-0.004,2408,2019-08-07 16:16:25:540
4.8364,-8.4424,1.7649,-0.3038,-0.0971,-0.1044,0.0112,0.0387,-0.004,2413,2019-08-07 16:16:25:545
4.9368,-8.3994,1.7083,-0.3038,-0.0971,-0.1044,0.0058,0.06,-0.0147,2418,2019-08-07 16:16:25:550
4.9368,-8.3994,1.7083,-0.3038,-0.0971,-0.1044,0.0058,0.06,-0.0147,2423,2019-08-07 16:16:25:555
4.9177,-8.3469,1.5999,-0.3144,-0.1702,-0.0175,-0.0059,0.0718,-0.0339,2428,2019-08-07 16:16:25:560
4.9177,-8.3469,1.5999,-0.3144,-0.1702,-0.0175,-0.0059,0.0718,-0.0339,2433,2019-08-07 16:16:25:565
4.9177,-8.3469,1.5999,-0.3144,-0.1702,-0.0175,-0.0155,0.076,-0.0424,2437,2019-08-07 16:16:25:569
4.8555,-8.323,1.5999,-0.3144,-0.1702,-0.0175,-0.0155,0.076,-0.0424,2443,2019-08-07 16:16:25:575
4.8555,-8.323,1.5999,-0.2215,-0.2945,-0.149,-0.025,0.0654,-0.0445,2448,2019-08-07 16:16:25:580
4.8555,-8.323,1.5999,-0.2215,-0.2945,-0.149,-0.025,0.0654,-0.0445,2453,2019-08-07 16:16:25:585
4.8603,-8.218,1.6753,-0.2215,-0.2945,-0.149,-0.025,0.0654,-0.0445,2458,2019-08-07 16:16:25:590
4.8603,-8.218,1.6753,-0.2215,-0.2945,-0.149,-0.0272,0.0355,-0.0402,2464,2019-08-07 16:16:25:596
4.8603,-8.218,1.6753,-0.2215,-0.2945,-0.149,-0.0272,0.0355,-0.0402,2468,2019-08-07 16:16:25:600
5.0134,-8.1989,1.5245,-0.395,-0.3091,0.0631,-0.0218,0.0196,-0.0339,2472,2019-08-07 16:16:25:604
5.0134,-8.1989,1.5245,-0.395,-0.3091,0.0631,-0.0218,0.0196,-0.0339,2478,2019-08-07 16:16:25:610
5.0326,-8.1894,1.6046,-0.395,-0.3091,0.0631,-0.0016,0.0185,-0.037,2483,2019-08-07 16:16:25:615
5.0326,-8.1894,1.6046,-0.4097,-0.3612,-0.0494,-0.0016,0.0185,-0.037,2488,2019-08-07 16:16:25:620
5.0421,-8.1989,1.6376,-0.4097,-0.3612,-0.0494,0.0144,0.0537,-0.0285,2493,2019-08-07 16:16:25:625
5.0421,-8.1989,1.6376,-0.4097,-0.3612,-0.0494,0.0144,0.0537,-0.0285,2499,2019-08-07 16:16:25:631
5.0421,-8.1989,1.6376,-0.4097,-0.3612,-0.0494,0.0016,0.0771,-0.0253,2504,2019-08-07 16:16:25:636
5.0421,-8.1989,1.6376,-0.4097,-0.3612,-0.0494,0.0016,0.0771,-0.0253,2507,2019-08-07 16:16:25:639
5.0422,-8.0891,1.5575,-0.432,-0.3801,0.0196,0.0016,0.0771,-0.0253,2513,2019-08-07 16:16:25:645
5.0422,-8.0891,1.5575,-0.432,-0.3801,0.0196,-0.0176,0.1122,-0.0253,2518,2019-08-07 16:16:25:650
5.0182,-8.1655,1.5858,-0.432,-0.3801,0.0196,-0.0176,0.1122,-0.0253,2523,2019-08-07 16:16:25:655
5.0182,-8.1655,1.5858,-0.432,-0.3801,0.0196,-0.0176,0.1122,-0.0253,2528,2019-08-07 16:16:25:660
5.0182,-8.1655,1.5858,-0.2557,-0.2382,-0.0115,-0.0591,0.1506,-0.0264,2533,2019-08-07 16:16:25:665
4.8412,-8.2467,1.6046,-0.2557,-0.2382,-0.0115,-0.0591,0.1506,-0.0264,2538,2019-08-07 16:16:25:670
4.8412,-8.2467,1.6046,-0.2557,-0.2382,-0.0115,-0.0751,0.1485,-0.0285,2543,2019-08-07 16:16:25:675
4.6929,-8.3565,1.6612,-0.0099,-0.1129,-0.0763,-0.0751,0.1485,-0.0285,2548,2019-08-07 16:16:25:680
4.6929,-8.3565,1.6612,-0.0099,-0.1129,-0.0763,-0.0794,0.1016,-0.037,2553,2019-08-07 16:16:25:685
4.6929,-8.3565,1.6612,-0.0099,-0.1129,-0.0763,-0.0794,0.1016,-0.037,2557,2019-08-07 16:16:25:689
4.5925,-8.3278,1.7555,0.0492,-0.1648,-0.1534,-0.0655,0.0323,-0.0243,2564,2019-08-07 16:16:25:696
4.5925,-8.3278,1.7555,0.0492,-0.1648,-0.1534,-0.0655,0.0323,-0.0243,2567,2019-08-07 16:16:25:699
4.5925,-8.3278,1.7555,0.0492,-0.1648,-0.1534,-0.0655,0.0323,-0.0243,2573,2019-08-07 16:16:25:705
4.9082,-8.3994,1.5056,0.0492,-0.1648,-0.1534,-0.0421,-0.0433,-0.0147,2578,2019-08-07 16:16:25:710
4.9082,-8.3994,1.5056,-0.4194,-0.078,0.1051,-0.0421,-0.0433,-0.0147,2583,2019-08-07 16:16:25:715
4.9082,-8.3994,1.5056,-0.4194,-0.078,0.1051,-0.0165,-0.0497,-0.0243,2588,2019-08-07 16:16:25:720
5.0901,-8.3899,1.5057,-0.4389,-0.1004,0.0813,-0.0165,-0.0497,-0.0243,2593,2019-08-07 16:16:25:725
5.0901,-8.3899,1.5057,-0.4389,-0.1004,0.0813,-5.0E-4,-0.0348,-0.0168,2599,2019-08-07 16:16:25:731
5.0901,-8.3899,1.5057,-0.4389,-0.1004,0.0813,-5.0E-4,-0.0348,-0.0168,2603,2019-08-07 16:16:25:735
5.181,-8.3421,1.4397,-0.4389,-0.1004,0.0813,-0.0027,0.0089,-0.004,2608,2019-08-07 16:16:25:740
5.181,-8.3421,1.4397,-0.4463,-0.1259,0.1386,-0.0027,0.0089,-0.004,2613,2019-08-07 16:16:25:745
5.004,-8.3708,1.5198,-0.4463,-0.1259,0.1386,-0.0027,0.0089,-0.004,2618,2019-08-07 16:16:25:750
5.004,-8.3708,1.5198,-0.4463,-0.1259,0.1386,-0.0133,0.0483,0.0056,2623,2019-08-07 16:16:25:755
5.004,-8.3708,1.5198,-0.4463,-0.1259,0.1386,-0.0133,0.0483,0.0056,2628,2019-08-07 16:16:25:760
4.8509,-8.409,1.5528,-0.1924,-0.0777,0.0314,-0.0218,0.0505,0.0088,2633,2019-08-07 16:16:25:765
4.8509,-8.409,1.5528,-0.1924,-0.0777,0.0314,-0.0218,0.0505,0.0088,2637,2019-08-07 16:16:25:769
4.6691,-8.4854,1.6235,-0.1924,-0.0777,0.0314,-0.0218,0.0366,-0.0094,2643,2019-08-07 16:16:25:775
4.6691,-8.4854,1.6235,-0.1924,-0.0777,0.0314,-0.0218,0.0366,-0.0094,2648,2019-08-07 16:16:25:780
4.6691,-8.4854,1.6235,0.0662,-0.0252,-0.0819,-0.0208,-0.0017,-0.0253,2652,2019-08-07 16:16:25:784
4.6308,-8.4185,1.6801,0.0662,-0.0252,-0.0819,-0.0208,-0.0017,-0.0253,2658,2019-08-07 16:16:25:790
4.6308,-8.4185,1.6801,0.0662,-0.0252,-0.0819,-0.0208,-0.0017,-0.0253,2663,2019-08-07 16:16:25:795
4.6308,-8.4185,1.6801,0.0662,-0.0252,-0.0819,-0.0037,-0.0401,-0.036,2668,2019-08-07 16:16:25:800
4.6452,-8.3183,1.7743,0.0197,-0.1655,-0.1931,-0.0037,-0.0401,-0.036,2673,2019-08-07 16:16:25:805
4.6452,-8.3183,1.7743,0.0197,-0.1655,-0.1931,0.009,-0.0806,-0.0413,2678,2019-08-07 16:16:25:810
4.827,-8.2562,1.7696,0.0197,-0.1655,-0.1931,0.009,-0.0806,-0.0413,2684,2019-08-07 16:16:25:816
4.827,-8.2562,1.7696,0.0197,-0.1655,-0.1931,0.008,-0.1051,-0.0498,2688,2019-08-07 16:16:25:820
4.827,-8.2562,1.7696,-0.231,-0.2695,-0.0668,0.008,-0.1051,-0.0498,2693,2019-08-07 16:16:25:825
5.0471,-8.2133,1.6612,-0.231,-0.2695,-0.0668,0.0069,-0.0934,-0.053,2699,2019-08-07 16:16:25:831
5.0471,-8.2133,1.6612,-0.231,-0.2695,-0.0668,0.0069,-0.0934,-0.053,2703,2019-08-07 16:16:25:835
5.0471,-8.2133,1.6612,-0.231,-0.2695,-0.0668,0.0027,-0.0689,-0.0466,2708,2019-08-07 16:16:25:840
5.2241,-8.2085,1.6235,-0.5318,-0.2624,-0.0544,0.0027,-0.0689,-0.0466,2714,2019-08-07 16:16:25:846
5.2241,-8.2085,1.6235,-0.5318,-0.2624,-0.0544,-0.008,-0.0262,-0.0296,2718,2019-08-07 16:16:25:850
5.2241,-8.2085,1.6235,-0.5318,-0.2624,-0.0544,-0.008,-0.0262,-0.0296,2723,2019-08-07 16:16:25:855
5.2002,-8.3183,1.6141,-0.5318,-0.2624,-0.0544,-0.008,-0.0262,-0.0296,2728,2019-08-07 16:16:25:860
5.2002,-8.3183,1.6141,-0.3986,-0.1531,-0.0576,-0.0176,0.0068,-0.0136,2733,2019-08-07 16:16:25:865
5.071,-8.3469,1.5811,-0.3986,-0.1531,-0.0576,-0.0176,0.0068,-0.0136,2738,2019-08-07 16:16:25:870
5.071,-8.3469,1.5811,-0.3986,-0.1531,-0.0576,-0.0261,0.0132,-0.003,2742,2019-08-07 16:16:25:874
5.071,-8.3469,1.5811,-0.3986,-0.1531,-0.0576,-0.0261,0.0132,-0.003,2747,2019-08-07 16:16:25:879
5.0088,-8.4567,1.6282,-0.2956,-0.0377,-0.0705,-0.0272,0.0025,-0.0051,2753,2019-08-07 16:16:25:885
5.0088,-8.4567,1.6282,-0.2956,-0.0377,-0.0705,-0.0272,0.0025,-0.0051,2757,2019-08-07 16:16:25:889
4.9036,-8.4185,1.6707,-0.2956,-0.0377,-0.0705,-0.0176,-0.006,-0.0051,2763,2019-08-07 16:16:25:895
4.9036,-8.4185,1.6707,-0.2956,-0.0377,-0.0705,-0.0176,-0.006,-0.0051,2768,2019-08-07 16:16:25:900
4.9036,-8.4185,1.6707,-0.2956,-0.0377,-0.0705,-0.0176,-0.006,-0.0051,2773,2019-08-07 16:16:25:905
4.4252,-8.1942,0.9212,0.2808,-0.2717,0.6342,-0.1049,-0.2425,0.0024,2778,2019-08-07 16:16:25:910
4.4252,-8.1942,0.9212,0.2808,-0.2717,0.6342,-0.1049,-0.2425,0.0024,2782,2019-08-07 16:16:25:914
4.851,-8.4806,2.439,0.2808,-0.2717,0.6342,-0.1049,-0.2265,-0.0072,2788,2019-08-07 16:16:25:920
4.851,-8.4806,2.439,-0.3858,0.0545,-0.8789,-0.1049,-0.2265,-0.0072,2793,2019-08-07 16:16:25:925
4.851,-8.4806,2.439,-0.3858,0.0545,-0.8789,0.107,-0.1189,-0.0062,2797,2019-08-07 16:16:25:929
5.9227,-8.7432,1.1569,-0.3858,0.0545,-0.8789,0.107,-0.1189,-0.0062,2803,2019-08-07 16:16:25:935
5.9227,-8.7432,1.1569,-0.3858,0.0545,-0.8789,0.1688,-0.0028,-0.0243,2808,2019-08-07 16:16:25:940
5.2864,-8.113,0.5488,-0.5631,-0.348,0.9806,0.1688,-0.0028,-0.0243,2812,2019-08-07 16:16:25:944
5.2864,-8.113,0.5488,-0.5631,-0.348,0.9806,0.0048,0.0973,-0.0019,2818,2019-08-07 16:16:25:950
5.2864,-8.113,0.5488,-0.5631,-0.348,0.9806,0.0048,0.0973,-0.0019,2823,2019-08-07 16:16:25:955
4.9371,-7.8887,1.8828,-0.5631,-0.348,0.9806,0.0048,0.0973,-0.0019,2828,2019-08-07 16:16:25:960
4.9371,-7.8887,1.8828,-0.16,-0.3737,-0.5067,-0.0133,0.1058,0.0077,2832,2019-08-07 16:16:25:964
4.7601,-8.261,1.9818,-0.16,-0.3737,-0.5067,-0.0133,0.1058,0.0077,2838,2019-08-07 16:16:25:970
4.7601,-8.261,1.9818,-0.16,-0.3737,-0.5067,5.0E-4,0.0494,-0.004,2843,2019-08-07 16:16:25:975
4.7601,-8.261,1.9818,0.0018,-0.1251,-0.2235,5.0E-4,0.0494,-0.004,2847,2019-08-07 16:16:25:979
4.7601,-8.3995,1.6942,0.0018,-0.1251,-0.2235,-0.0218,-0.0784,-0.003,2853,2019-08-07 16:16:25:985