ACCELEROMETER X (m/s²),ACCELEROMETER Y (m/s²),ACCELEROMETER Z (m/s²),LINEAR ACCELERATION X (m/s²),LINEAR ACCELERATION Y (m/s²),LINEAR ACCELERATION Z (m/s²),GYROSCOPE X (rad/s),GYROSCOPE Y (rad/s),GYROSCOPE Z (rad/s),Time since start in ms ,YYYY-MO-DD HH-MI-SS_SSS
5.2252,-8.2229,1.1854,-0.0412,-0.0641,0.0754,-0.0155,-0.0113,0.0141,3,2019-08-07 16:16:33:093
5.2252,-8.2229,1.1854,-0.0412,-0.0641,0.0754,-0.0133,-0.0497,0.0077,7,2019-08-07 16:16:33:097
5.3257,-8.3805,1.1147,-0.2185,0.0829,0.0273,-0.0133,-0.0497,0.0077,13,2019-08-07 16:16:33:103
5.3257,-8.3805,1.1147,-0.2185,0.0829,0.0273,-0.0037,-0.038,2.0E-4,18,2019-08-07 16:16:33:108
5.3257,-8.3805,1.1147,-0.2185,0.0829,0.0273,-0.0037,-0.038,2.0E-4,22,2019-08-07 16:16:33:112
5.3448,-8.3661,1.0534,-0.2185,0.0829,0.0273,0.0037,-0.0017,-0.0072,28,2019-08-07 16:16:33:118
5.3448,-8.3661,1.0534,-0.2185,0.0829,0.0273,0.0037,-0.0017,-0.0072,33,2019-08-07 16:16:33:123
5.2061,-8.3327,1.1099,-0.1637,0.0411,0.1289,0.0112,0.0345,-0.0125,38,2019-08-07 16:16:33:128
5.2061,-8.3327,1.1099,-0.1637,0.0411,0.1289,0.0112,0.0345,-0.0125,43,2019-08-07 16:16:33:133
5.2061,-8.3327,1.1099,-0.1637,0.0411,0.1289,0.0112,0.0526,-0.0157,48,2019-08-07 16:16:33:138
5.1104,-8.2993,1.2655,-0.047,0.067,-0.1189,0.0112,0.0526,-0.0157,53,2019-08-07 16:16:33:143
5.1104,-8.2993,1.2655,-0.047,0.067,-0.1189,0.0112,0.0451,-0.0232,57,2019-08-07 16:16:33:147
5.1104,-8.2993,1.2655,-0.047,0.067,-0.1189,0.0112,0.0451,-0.0232,63,2019-08-07 16:16:33:153
5.12,-8.2659,1.3645,-0.047,0.067,-0.1189,0.0122,0.0313,-0.0306,68,2019-08-07 16:16:33:158
5.12,-8.2659,1.3645,-0.047,0.067,-0.1189,0.0122,0.0313,-0.0306,72,2019-08-07 16:16:33:162
5.12,-8.2659,1.3645,0.0526,-0.0728,-0.2012,0.0122,0.0313,-0.0306,78,2019-08-07 16:16:33:168
5.1248,-8.1609,1.3032,0.0526,-0.0728,-0.2012,0.0122,-0.0039,-0.0296,83,2019-08-07 16:16:33:173
5.1248,-8.1609,1.3032,0.0526,-0.0728,-0.2012,0.0122,-0.0039,-0.0296,88,2019-08-07 16:16:33:178
5.2539,-8.1179,1.2514,0.0526,-0.0728,-0.2012,-5.0E-4,-0.0316,-0.0211,93,2019-08-07 16:16:33:183
5.2539,-8.1179,1.2514,-0.1475,-0.093,-0.1149,-5.0E-4,-0.0316,-0.0211,98,2019-08-07 16:16:33:188
5.2539,-8.1179,1.2514,-0.1475,-0.093,-0.1149,-5.0E-4,-0.0316,-0.0211,102,2019-08-07 16:16:33:192
5.4214,-8.2086,1.1854,-0.1475,-0.093,-0.1149,0.0122,-0.039,-0.0189,108,2019-08-07 16:16:33:198
5.4214,-8.2086,1.1854,-0.1475,-0.093,-0.1149,0.0122,-0.039,-0.0189,113,2019-08-07 16:16:33:203
5.4214,-8.2086,1.1854,-0.2898,-0.0846,-0.0451,0.0325,-0.0188,-0.0211,118,2019-08-07 16:16:33:208
5.431,-8.2229,1.0722,-0.2898,-0.0846,-0.0451,0.0325,-0.0188,-0.0211,122,2019-08-07 16:16:33:212
5.431,-8.2229,1.0722,-0.2898,-0.0846,-0.0451,0.0282,0.0025,-0.0157,128,2019-08-07 16:16:33:218
5.3922,-8.1417,1.1004,-0.2898,-0.0846,-0.0451,0.0282,0.0025,-0.0157,133,2019-08-07 16:16:33:223
5.3922,-8.1417,1.1004,-0.2701,-0.1335,0.0724,0.0176,0.0164,-0.0125,138,2019-08-07 16:16:33:228
5.3922,-8.1417,1.1004,-0.2701,-0.1335,0.0724,0.0176,0.0164,-0.0125,143,2019-08-07 16:16:33:233
5.4209,-8.1608,1.1428,-0.2701,-0.1335,0.0724,0.0048,0.0377,-0.0189,148,2019-08-07 16:16:33:238
5.4209,-8.1608,1.1428,-0.2701,-0.1335,0.0724,0.0048,0.0377,-0.0189,153,2019-08-07 16:16:33:243
5.4209,-8.1608,1.1428,-0.1659,-0.0543,-0.0225,0.0048,0.0377,-0.0189,158,2019-08-07 16:16:33:248
5.3444,-8.2086,1.1853,-0.1659,-0.0543,-0.0225,-0.0069,0.0313,-0.0115,163,2019-08-07 16:16:33:253
5.3444,-8.2086,1.1853,-0.1659,-0.0543,-0.0225,-0.0069,0.0313,-0.0115,168,2019-08-07 16:16:33:258
5.3013,-8.2324,1.2654,-0.1659,-0.0543,-0.0225,-0.0144,0.0206,-0.0093,173,2019-08-07 16:16:33:263
5.3013,-8.2324,1.2654,-0.1494,-0.0098,-0.0775,-0.0144,0.0206,-0.0093,178,2019-08-07 16:16:33:268
5.3013,-8.2324,1.2654,-0.1494,-0.0098,-0.0775,-0.0187,0.0089,-0.0115,182,2019-08-07 16:16:33:272
5.2295,-8.2993,1.2513,-0.1494,-0.0098,-0.0775,-0.0187,0.0089,-0.0115,188,2019-08-07 16:16:33:278
5.2295,-8.2993,1.2513,-0.1494,-0.0098,-0.0775,-0.0187,0.0089,-0.0115,192,2019-08-07 16:16:33:282
5.3348,-8.3088,1.2465,-0.1381,0.0387,-0.0516,-0.0229,-0.0103,-8.0E-4,199,2019-08-07 16:16:33:289
5.3348,-8.3088,1.2465,-0.1381,0.0387,-0.0516,-0.0229,-0.0103,-8.0E-4,203,2019-08-07 16:16:33:293
5.3348,-8.3088,1.2465,-0.1381,0.0387,-0.0516,-0.0197,-0.0199,0.0024,209,2019-08-07 16:16:33:299
5.3348,-8.3088,1.2465,-0.1381,0.0387,-0.0516,-0.0197,-0.0199,0.0024,213,2019-08-07 16:16:33:303
5.3731,-8.347,1.2041,-0.2326,0.0579,-0.0981,-0.0048,-0.0017,-0.003,217,2019-08-07 16:16:33:307
5.3731,-8.347,1.2041,-0.2326,0.0579,-0.0981,-0.0048,-0.0017,-0.003,223,2019-08-07 16:16:33:313
5.3826,-8.2229,1.2795,-0.2326,0.0579,-0.0981,0.008,0.0068,0.0034,228,2019-08-07 16:16:33:318
5.3826,-8.2229,1.2795,-0.2326,0.0579,-0.0981,0.008,0.0068,0.0034,232,2019-08-07 16:16:33:322
5.3826,-8.2229,1.2795,-0.2937,-0.0748,0.0029,0.008,0.0164,0.0109,238,2019-08-07 16:16:33:328
5.4448,-8.2754,1.1994,-0.2937,-0.0748,0.0029,0.008,0.0164,0.0109,243,2019-08-07 16:16:33:333
5.4448,-8.2754,1.1994,-0.2937,-0.0748,0.0029,0.0037,0.0355,0.013,248,2019-08-07 16:16:33:338
5.3635,-8.2086,1.1853,-0.2937,-0.0748,0.0029,0.0037,0.0355,0.013,252,2019-08-07 16:16:33:342
5.3635,-8.2086,1.1853,-0.2471,-0.0271,-0.096,0.0037,0.0355,0.013,258,2019-08-07 16:16:33:348
5.3635,-8.2086,1.1853,-0.2471,-0.0271,-0.096,0.0059,0.0547,0.0141,263,2019-08-07 16:16:33:353
5.3587,-8.2229,1.2088,-0.2471,-0.0271,-0.096,0.0059,0.0547,0.0141,268,2019-08-07 16:16:33:358
5.3587,-8.2229,1.2088,-0.2471,-0.0271,-0.096,-0.0037,0.0654,0.0173,273,2019-08-07 16:16:33:363
5.2678,-8.2515,1.2937,-0.1306,-0.0233,-0.1219,-0.0037,0.0654,0.0173,278,2019-08-07 16:16:33:368
5.2678,-8.2515,1.2937,-0.1306,-0.0233,-0.1219,0.0016,0.0643,0.0247,282,2019-08-07 16:16:33:372
5.2678,-8.2515,1.2937,-0.1306,-0.0233,-0.1219,0.0016,0.0643,0.0247,288,2019-08-07 16:16:33:378
5.2247,-8.2372,1.289,-0.1306,-0.0233,-0.1219,0.0016,0.0505,0.0205,293,2019-08-07 16:16:33:383
5.2247,-8.2372,1.289,-0.0778,-0.0586,-0.0679,0.0016,0.0505,0.0205,298,2019-08-07 16:16:33:388
5.2247,-8.2372,1.289,-0.0778,-0.0586,-0.0679,-0.0069,0.0302,0.0194,302,2019-08-07 16:16:33:392
5.1912,-8.2133,1.2654,-0.0778,-0.0586,-0.0679,-0.0069,0.0302,0.0194,308,2019-08-07 16:16:33:398
5.1912,-8.2133,1.2654,-0.0778,-0.0586,-0.0679,-0.0197,0.0238,0.0173,313,2019-08-07 16:16:33:403
5.2678,-8.2372,1.2748,-0.1384,-0.0412,-0.0946,-0.0197,0.0238,0.0173,318,2019-08-07 16:16:33:408
5.2678,-8.2372,1.2748,-0.1384,-0.0412,-0.0946,-0.0218,0.0196,0.0141,323,2019-08-07 16:16:33:413
5.2678,-8.2372,1.2748,-0.1384,-0.0412,-0.0946,-0.0218,0.0196,0.0141,328,2019-08-07 16:16:33:418
5.3443,-8.2133,1.2654,-0.1384,-0.0412,-0.0946,-0.0144,0.0238,0.0034,333,2019-08-07 16:16:33:423
5.3443,-8.2133,1.2654,-0.2252,-0.0895,-0.0058,-0.0144,0.0238,0.0034,338,2019-08-07 16:16:33:428
5.3108,-8.1847,1.1381,-0.2252,-0.0895,-0.0058,-0.0155,0.0387,-0.0019,344,2019-08-07 16:16:33:434
5.3108,-8.1847,1.1381,-0.2252,-0.0895,-0.0058,-0.0155,0.0387,-0.0019,348,2019-08-07 16:16:33:438
5.3108,-8.1847,1.1381,-0.2252,-0.0895,-0.0058,-0.0155,0.0387,-0.0019,353,2019-08-07 16:16:33:443
5.2917,-8.2133,1.2041,-0.1335,-0.1222,-0.0086,-0.024,0.0675,-0.0072,359,2019-08-07 16:16:33:449
5.2917,-8.2133,1.2041,-0.1335,-0.1222,-0.0086,-0.024,0.0675,-0.0072,363,2019-08-07 16:16:33:453
5.2917,-8.2133,1.2041,-0.1335,-0.1222,-0.0086,-0.0261,0.0675,-0.0083,367,2019-08-07 16:16:33:457
5.2008,-8.2133,1.1994,-0.1335,-0.1222,-0.0086,-0.0261,0.0675,-0.0083,373,2019-08-07 16:16:33:463
5.2008,-8.2133,1.1994,0.0155,-0.0783,-0.0481,-0.0272,0.0632,-0.0125,378,2019-08-07 16:16:33:468
5.0812,-8.2181,1.2277,0.0155,-0.0783,-0.0481,-0.0272,0.0632,-0.0125,384,2019-08-07 16:16:33:474
5.0812,-8.2181,1.2277,0.0155,-0.0783,-0.0481,-0.0229,0.0462,-0.0125,388,2019-08-07 16:16:33:478
5.0812,-8.2181,1.2277,0.0155,-0.0783,-0.0481,-0.0229,0.0462,-0.0125,392,2019-08-07 16:16:33:482
5.0812,-8.2372,1.1758,-0.0312,-0.044,-0.0654,-0.0197,0.0281,-0.0147,398,2019-08-07 16:16:33:488
5.0812,-8.2372,1.1758,-0.0312,-0.044,-0.0654,-0.0197,0.0281,-0.0147,403,2019-08-07 16:16:33:493
5.0908,-8.2133,1.2324,-0.0312,-0.044,-0.0654,-0.0197,0.0281,-0.0147,408,2019-08-07 16:16:33:498
5.0908,-8.2133,1.2324,-0.0312,-0.044,-0.0654,-0.0112,0.0164,-0.0168,413,2019-08-07 16:16:33:503
5.1386,-8.2229,1.157,-0.0046,-0.052,0.0286,-0.0112,0.0164,-0.0168,418,2019-08-07 16:16:33:508
5.1386,-8.2229,1.157,-0.0046,-0.052,0.0286,-0.0091,-7.0E-4,-0.0253,423,2019-08-07 16:16:33:513
5.1386,-8.2229,1.157,-0.0046,-0.052,0.0286,-0.0091,-7.0E-4,-0.0253,428,2019-08-07 16:16:33:518
5.2678,-8.2181,1.1994,-0.0046,-0.052,0.0286,-0.0059,-0.0071,-0.0285,433,2019-08-07 16:16:33:523
5.2678,-8.2181,1.1994,-0.0046,-0.052,0.0286,-0.0059,-0.0071,-0.0285,438,2019-08-07 16:16:33:528
5.2678,-8.2181,1.1994,-0.1377,-0.063,0.0316,5.0E-4,-0.0017,-0.0275,443,2019-08-07 16:16:33:533
5.3491,-8.2181,1.1051,-0.1377,-0.063,0.0316,5.0E-4,-0.0017,-0.0275,449,2019-08-07 16:16:33:539
5.3491,-8.2181,1.1051,-0.1377,-0.063,0.0316,0.0037,0.01,-0.0296,453,2019-08-07 16:16:33:543
5.3539,-8.2754,1.1051,-0.1377,-0.063,0.0316,0.0037,0.01,-0.0296,458,2019-08-07 16:16:33:548
5.3539,-8.2754,1.1051,-0.1746,-0.04,0.0696,-0.0016,0.0217,-0.0264,464,2019-08-07 16:16:33:554
5.3539,-8.2754,1.1051,-0.1746,-0.04,0.0696,-0.0016,0.0217,-0.0264,467,2019-08-07 16:16:33:557
5.2486,-8.2802,1.2607,-0.1746,-0.04,0.0696,-0.0016,0.0217,-0.0264,473,2019-08-07 16:16:33:563
5.2486,-8.2802,1.2607,-0.1746,-0.04,0.0696,0.0016,0.0121,-0.0136,478,2019-08-07 16:16:33:568
5.2486,-8.2993,1.223,-0.0754,0.0054,-0.0979,0.0016,0.0121,-0.0136,483,2019-08-07 16:16:33:573
5.2486,-8.2993,1.223,-0.0754,0.0054,-0.0979,-0.0016,-0.0081,0.0056,488,2019-08-07 16:16:33:578
5.2486,-8.2993,1.223,-0.0754,0.0054,-0.0979,-0.0016,-0.0081,0.0056,493,2019-08-07 16:16:33:583
5.263,-8.3422,1.2135,-0.0754,0.0054,-0.0979,0.0016,-0.0145,0.0098,497,2019-08-07 16:16:33:587
5.263,-8.3422,1.2135,-0.095,0.1101,4.0E-4,0.0016,-0.0145,0.0098,503,2019-08-07 16:16:33:593
5.2008,-8.4281,1.1853,-0.095,0.1101,4.0E-4,-5.0E-4,-0.0135,0.0173,509,2019-08-07 16:16:33:599
5.2008,-8.4281,1.1853,-0.095,0.1101,4.0E-4,-5.0E-4,-0.0135,0.0173,513,2019-08-07 16:16:33:603
5.2008,-8.4281,1.1853,-0.095,0.1101,4.0E-4,-0.0037,-0.0081,0.0226,518,2019-08-07 16:16:33:608
5.1816,-8.5284,1.1617,-0.0456,0.3036,-0.0011,-0.0037,-0.0081,0.0226,522,2019-08-07 16:16:33:612
5.1816,-8.5284,1.1617,-0.0456,0.3036,-0.0011,-0.0048,0.0078,0.0215,528,2019-08-07 16:16:33:618
5.1816,-8.5284,1.1617,-0.0456,0.3036,-0.0011,-0.0048,0.0078,0.0215,532,2019-08-07 16:16:33:622
5.1338,-8.4902,1.2465,-0.0456,0.3036,-0.0011,-0.0037,0.0185,0.0184,538,2019-08-07 16:16:33:628
5.1338,-8.4902,1.2465,0.0983,0.2388,-0.0854,-0.0037,0.0185,0.0184,543,2019-08-07 16:16:33:633
4.9759,-8.4472,1.2701,0.0983,0.2388,-0.0854,0.0048,0.0196,0.0162,547,2019-08-07 16:16:33:637
4.9759,-8.4472,1.2701,0.0983,0.2388,-0.0854,0.0048,0.0196,0.0162,553,2019-08-07 16:16:33:643
4.9759,-8.4472,1.2701,0.0983,0.2388,-0.0854,0.009,0.0153,0.0141,559,2019-08-07 16:16:33:649
4.8946,-8.4377,1.2654,0.2419,0.1647,-0.0775,0.009,0.0153,0.0141,563,2019-08-07 16:16:33:653
4.8946,-8.4377,1.2654,0.2419,0.1647,-0.0775,0.0101,0.0078,2.0E-4,568,2019-08-07 16:16:33:658
4.8946,-8.4377,1.2654,0.2419,0.1647,-0.0775,0.0101,0.0078,2.0E-4,573,2019-08-07 16:16:33:663
4.7367,-8.4616,1.2512,0.2419,0.1647,-0.0775,0.0101,0.0078,2.0E-4,577,2019-08-07 16:16:33:667
4.7367,-8.4616,1.2512,0.4685,0.2349,-0.1305,0.025,-0.0049,-0.0093,583,2019-08-07 16:16:33:673
4.6219,-8.5523,1.3738,0.4685,0.2349,-0.1305,0.025,-0.0049,-0.0093,587,2019-08-07 16:16:33:677
4.6219,-8.5523,1.3738,0.4685,0.2349,-0.1305,0.0495,-0.0337,-0.0168,593,2019-08-07 16:16:33:683
4.7319,-8.452,1.2324,0.4685,0.2349,-0.1305,0.0495,-0.0337,-0.0168,599,2019-08-07 16:16:33:689
4.7319,-8.452,1.2324,0.4111,0.1642,-0.0307,0.0666,-0.0689,-0.0243,603,2019-08-07 16:16:33:693
4.7319,-8.452,1.2324,0.4111,0.1642,-0.0307,0.0666,-0.0689,-0.0243,608,2019-08-07 16:16:33:698
4.7702,-8.3565,1.2088,0.4111,0.1642,-0.0307,0.0666,-0.0689,-0.0243,614,2019-08-07 16:16:33:704
4.7702,-8.3565,1.2088,0.4111,0.1642,-0.0307,0.0708,-0.0859,-0.0189,618,2019-08-07 16:16:33:708
4.7702,-8.3565,1.2088,0.2471,0.0188,0.0388,0.0708,-0.0859,-0.0189,623,2019-08-07 16:16:33:713
4.9376,-8.2849,1.1947,0.2471,0.0188,0.0388,0.0772,-0.1008,-0.0157,627,2019-08-07 16:16:33:717
4.9376,-8.2849,1.1947,0.2471,0.0188,0.0388,0.0772,-0.1008,-0.0157,633,2019-08-07 16:16:33:723
4.9376,-8.2849,1.1947,0.2471,0.0188,0.0388,0.0762,-0.1242,-0.0147,637,2019-08-07 16:16:33:727
5.0811,-8.2611,1.0627,0.0411,-0.0261,0.1759,0.0762,-0.1242,-0.0147,643,2019-08-07 16:16:33:733
5.0811,-8.2611,1.0627,0.0411,-0.0261,0.1759,0.074,-0.1242,-0.02,648,2019-08-07 16:16:33:738
5.1625,-8.2992,1.0108,0.0411,-0.0261,0.1759,0.074,-0.1242,-0.02,652,2019-08-07 16:16:33:742
5.1625,-8.2992,1.0108,0.0411,-0.0261,0.1759,0.074,-0.1242,-0.02,658,2019-08-07 16:16:33:748
5.1625,-8.2992,1.0108,-0.0105,0.0729,0.1984,0.0804,-0.12,-0.0157,663,2019-08-07 16:16:33:753
5.2007,-8.3279,0.9873,-0.0105,0.0729,0.1984,0.0804,-0.12,-0.0157,668,2019-08-07 16:16:33:758
5.2007,-8.3279,0.9873,-0.0105,0.0729,0.1984,0.0964,-0.104,-0.0168,673,2019-08-07 16:16:33:763
5.2007,-8.304,1.1617,-0.0105,0.0729,0.1984,0.0964,-0.104,-0.0168,678,2019-08-07 16:16:33:768
5.2007,-8.304,1.1617,-0.0769,0.0291,0.0664,0.1134,-0.0944,-0.0157,682,2019-08-07 16:16:33:772
5.2007,-8.304,1.1617,-0.0769,0.0291,0.0664,0.1134,-0.0944,-0.0157,688,2019-08-07 16:16:33:778
5.2677,-8.2849,1.091,-0.0769,0.0291,0.0664,0.122,-0.0976,-0.02,692,2019-08-07 16:16:33:782
5.2677,-8.2849,1.091,-0.0769,0.0291,0.0664,0.122,-0.0976,-0.02,698,2019-08-07 16:16:33:788
5.2677,-8.2849,1.091,-0.2237,-0.018,-0.1455,0.1177,-0.1029,-0.0264,703,2019-08-07 16:16:33:793
5.4352,-8.2133,1.3031,-0.2237,-0.018,-0.1455,0.1177,-0.1029,-0.0264,708,2019-08-07 16:16:33:798
5.4352,-8.2133,1.3031,-0.2237,-0.018,-0.1455,0.1081,-0.0838,-0.0317,713,2019-08-07 16:16:33:803
5.5835,-8.0415,1.2937,-0.2237,-0.018,-0.1455,0.1081,-0.0838,-0.0317,718,2019-08-07 16:16:33:808
5.5835,-8.0415,1.2937,-0.5007,-0.273,-0.1084,0.0847,-0.0987,-0.0306,723,2019-08-07 16:16:33:813
5.5835,-8.0415,1.2937,-0.5007,-0.273,-0.1084,0.0847,-0.0987,-0.0306,728,2019-08-07 16:16:33:818
5.6887,-7.9651,1.3832,-0.5007,-0.273,-0.1084,0.0708,-0.1125,-0.0157,733,2019-08-07 16:16:33:823
5.6887,-7.9651,1.3832,-0.5007,-0.273,-0.1084,0.0708,-0.1125,-0.0157,738,2019-08-07 16:16:33:828
5.8944,-7.9173,1.4822,-0.6911,-0.3663,-0.2147,0.0506,-0.0944,-0.0083,743,2019-08-07 16:16:33:833
5.8944,-7.9173,1.4822,-0.6911,-0.3663,-0.2147,0.0506,-0.0944,-0.0083,748,2019-08-07 16:16:33:838
5.8944,-7.9173,1.4822,-0.6911,-0.3663,-0.2147,0.0506,-0.0944,-0.0083,752,2019-08-07 16:16:33:842
5.9614,-7.7932,1.3219,-0.6911,-0.3663,-0.2147,0.0186,-0.087,0.0088,758,2019-08-07 16:16:33:848
5.9614,-7.7932,1.3219,-0.7893,-0.353,0.0166,-0.0112,-0.0561,0.012,763,2019-08-07 16:16:33:853
5.9327,-7.8935,1.2135,-0.7893,-0.353,0.0166,-0.0112,-0.0561,0.012,768,2019-08-07 16:16:33:858
5.9327,-7.8935,1.2135,-0.7893,-0.353,0.0166,-0.0112,-0.0561,0.012,773,2019-08-07 16:16:33:863
5.9327,-7.8935,1.2135,-0.7893,-0.353,0.0166,-0.0378,-0.0135,0.012,778,2019-08-07 16:16:33:868
5.8083,-8.0415,1.1287,-0.7893,-0.353,0.0166,-0.0378,-0.0135,0.012,783,2019-08-07 16:16:33:873
5.8083,-8.0415,1.1287,-0.4992,-0.1565,0.0511,-0.0559,0.0387,0.0034,787,2019-08-07 16:16:33:877
5.5404,-8.2276,1.2135,-0.4992,-0.1565,0.0511,-0.0559,0.0387,0.0034,793,2019-08-07 16:16:33:883
5.5404,-8.2276,1.2135,-0.4992,-0.1565,0.0511,-0.0602,0.0515,-0.0019,798,2019-08-07 16:16:33:888
5.5404,-8.2276,1.2135,-0.4992,-0.1565,0.0511,-0.0602,0.0515,-0.0019,802,2019-08-07 16:16:33:892
5.3347,-8.3661,1.3644,-0.1448,0.1295,-0.1559,-0.0357,0.0313,-0.0093,808,2019-08-07 16:16:33:898
5.3347,-8.3661,1.3644,-0.1448,0.1295,-0.1559,-0.0357,0.0313,-0.0093,813,2019-08-07 16:16:33:903
5.2485,-8.3709,1.3408,-0.1448,0.1295,-0.1559,-0.0357,0.0313,-0.0093,818,2019-08-07 16:16:33:908
5.2485,-8.3709,1.3408,-0.1448,0.1295,-0.1559,-0.0027,0.0121,-0.0147,823,2019-08-07 16:16:33:913
5.2485,-8.3709,1.3408,-0.0862,0.0587,-0.0945,0.0197,-0.0188,-0.0136,828,2019-08-07 16:16:33:918
5.2677,-8.2754,1.2984,-0.0862,0.0587,-0.0945,0.0197,-0.0188,-0.0136,833,2019-08-07 16:16:33:923
5.2677,-8.2754,1.2984,-0.0862,0.0587,-0.0945,0.0197,-0.0188,-0.0136,838,2019-08-07 16:16:33:928
5.4064,-8.2324,1.3125,-0.0862,0.0587,-0.0945,0.0378,-0.0305,-0.0125,842,2019-08-07 16:16:33:932
5.4064,-8.2324,1.3125,-0.2455,0.023,-0.0116,0.0378,-0.0305,-0.0125,848,2019-08-07 16:16:33:938
5.4064,-8.2324,1.3125,-0.2455,0.023,-0.0116,0.0527,-0.0145,-0.0072,852,2019-08-07 16:16:33:942
5.4782,-8.2229,1.2182,-0.2455,0.023,-0.0116,0.0527,-0.0145,-0.0072,859,2019-08-07 16:16:33:949
5.4782,-8.2229,1.2182,-0.2455,0.023,-0.0116,0.0538,0.0036,0.0034,863,2019-08-07 16:16:33:953
5.6217,-8.1799,1.124,-0.4103,-0.041,0.067,0.0538,0.0036,0.0034,868,2019-08-07 16:16:33:958
5.6217,-8.1799,1.124,-0.4103,-0.041,0.067,0.0527,0.0249,0.0141,873,2019-08-07 16:16:33:963
5.6217,-8.1799,1.124,-0.4103,-0.041,0.067,0.0527,0.0249,0.0141,878,2019-08-07 16:16:33:968
5.6313,-8.2133,1.1475,-0.4103,-0.041,0.067,0.0495,0.0568,0.0269,882,2019-08-07 16:16:33:972
5.6313,-8.2133,1.1475,-0.4351,-0.0256,0.1249,0.0495,0.0568,0.0269,888,2019-08-07 16:16:33:978
5.66,-8.1942,1.1004,-0.4351,-0.0256,0.1249,0.0367,0.0707,0.0418,892,2019-08-07 16:16:33:982
5.66,-8.1942,1.1004,-0.4091,0.0022,0.1689,0.0367,0.0707,0.0418,898,2019-08-07 16:16:33:988
5.66,-8.1942,1.1004,-0.4091,0.0022,0.1689,0.0367,0.0707,0.0418,903,2019-08-07 16:16:33:993
5.5404,-8.2849,1.1051,-0.4091,0.0022,0.1689,0.0144,0.0835,0.0482,909,2019-08-07 16:16:33:999
5.5404,-8.2849,1.1051,-0.4091,0.0022,0.1689,0.0144,0.0835,0.0482,913,2019-08-07 16:16:34:003
5.4925,-8.2372,1.2135,-0.2738,0.0369,0.0055,0.009,0.0984,0.0546,918,2019-08-07 16:16:34:008
5.4925,-8.2372,1.2135,-0.2738,0.0369,0.0055,0.009,0.0984,0.0546,923,2019-08-07 16:16:34:013
5.4925,-8.2372,1.2135,-0.2738,0.0369,0.0055,0.0048,0.0963,0.0588,927,2019-08-07 16:16:34:017
5.4351,-8.2515,1.2324,-0.2738,0.0369,0.0055,0.0048,0.0963,0.0588,933,2019-08-07 16:16:34:023
5.4351,-8.2515,1.2324,-0.213,0.0842,0.0873,-5.0E-4,0.1154,0.0578,938,2019-08-07 16:16:34:028
5.2916,-8.3088,1.1852,-0.213,0.0842,0.0873,-5.0E-4,0.1154,0.0578,942,2019-08-07 16:16:34:032
5.2916,-8.3088,1.1852,-0.213,0.0842,0.0873,-0.0123,0.1282,0.0556,948,2019-08-07 16:16:34:038
5.2916,-8.3088,1.1852,-0.213,0.0842,0.0873,-0.0123,0.1282,0.0556,952,2019-08-07 16:16:34:042
5.1098,-8.3183,1.2937,0.0471,0.0971,-0.062,-0.0218,0.1005,0.0524,959,2019-08-07 16:16:34:049
5.1098,-8.3183,1.2937,0.0471,0.0971,-0.062,-0.0218,0.1005,0.0524,963,2019-08-07 16:16:34:053
5.038,-8.4043,1.3502,0.0471,0.0971,-0.062,-0.0218,0.1005,0.0524,968,2019-08-07 16:16:34:058
5.038,-8.4043,1.3502,0.0471,0.0971,-0.062,-0.0091,0.0632,0.0503,973,2019-08-07 16:16:34:063
5.038,-8.4043,1.3502,0.0735,0.272,0.0101,-0.0091,0.0632,0.0503,978,2019-08-07 16:16:34:068
5.0571,-8.5188,1.2371,0.0735,0.272,0.0101,0.0154,0.0398,0.0471,982,2019-08-07 16:16:34:072
5.0571,-8.5188,1.2371,0.0875,0.2502,0.1029,0.0154,0.0398,0.0471,988,2019-08-07 16:16:34:078
5.0332,-8.495,1.1852,0.0875,0.2502,0.1029,0.0485,0.0494,0.0482,992,2019-08-07 16:16:34:082
5.0332,-8.495,1.1852,0.0875,0.2502,0.1029,0.0485,0.0494,0.0482,997,2019-08-07 16:16:34:087
5.0332,-8.495,1.1852,0.0875,0.2502,0.1029,0.0634,0.0835,0.0418,1002,2019-08-07 16:16:34:092
4.9949,-8.495,1.1145,0.1919,0.289,0.1882,0.0634,0.0835,0.0418,1008,2019-08-07 16:16:34:098
4.9949,-8.495,1.1145,0.1919,0.289,0.1882,0.0719,0.1176,0.029,1013,2019-08-07 16:16:34:103
4.8131,-8.6334,1.1617,0.1919,0.289,0.1882,0.0719,0.1176,0.029,1018,2019-08-07 16:16:34:108
4.8131,-8.6334,1.1617,0.1919,0.289,0.1882,0.0719,0.1176,0.029,1023,2019-08-07 16:16:34:113
4.8131,-8.6334,1.1617,0.4445,0.4677,-0.0041,0.073,0.1463,0.012,1028,2019-08-07 16:16:34:118
4.617,-8.7098,1.3172,0.4445,0.4677,-0.0041,0.073,0.1463,0.012,1032,2019-08-07 16:16:34:122
4.617,-8.7098,1.3172,0.4445,0.4677,-0.0041,0.074,0.124,-0.0072,1038,2019-08-07 16:16:34:128
4.617,-8.7098,1.3172,0.4445,0.4677,-0.0041,0.074,0.124,-0.0072,1042,2019-08-07 16:16:34:132
4.44,-8.7814,1.3832,0.7233,0.5765,0.0025,0.0751,0.0792,-0.0179,1049,2019-08-07 16:16:34:139
4.44,-8.7814,1.3832,0.7233,0.5765,0.0025,0.0751,0.0792,-0.0179,1053,2019-08-07 16:16:34:143
4.3443,-8.8291,1.3172,0.7233,0.5765,0.0025,0.0698,0.01,-0.0243,1057,2019-08-07 16:16:34:147
4.3443,-8.8291,1.3172,0.7233,0.5765,0.0025,0.0698,0.01,-0.0243,1063,2019-08-07 16:16:34:153
4.3443,-8.8291,1.3172,0.7488,0.6387,0.1384,0.0719,-0.0646,-0.0147,1068,2019-08-07 16:16:34:158
4.5117,-8.9246,1.2135,0.7488,0.6387,0.1384,0.0719,-0.0646,-0.0147,1073,2019-08-07 16:16:34:163
4.5117,-8.9246,1.2135,0.7488,0.6387,0.1384,0.0719,-0.0646,-0.0147,1078,2019-08-07 16:16:34:168
4.5117,-8.9246,1.2135,0.7488,0.6387,0.1384,0.1028,-0.1328,0.0077,1083,2019-08-07 16:16:34:173
4.6552,-8.8816,1.1711,0.469,0.5996,0.2118,0.1028,-0.1328,0.0077,1088,2019-08-07 16:16:34:178
4.6552,-8.8816,1.1711,0.469,0.5996,0.2118,0.139,-0.1551,0.0343,1092,2019-08-07 16:16:34:182
4.6648,-8.8148,1.0108,0.469,0.5996,0.2118,0.139,-0.1551,0.0343,1098,2019-08-07 16:16:34:188
4.6648,-8.8148,1.0108,0.469,0.5996,0.2118,0.139,-0.1551,0.0343,1102,2019-08-07 16:16:34:192
4.6648,-8.8148,1.0108,0.469,0.5996,0.2118,0.1795,-0.1402,0.0674,1108,2019-08-07 16:16:34:198
4.5883,-8.8435,1.0438,0.5129,0.5765,0.3241,0.1976,-0.0997,0.0759,1113,2019-08-07 16:16:34:203
4.5883,-8.8435,1.0438,0.5129,0.5765,0.3241,0.1976,-0.0997,0.0759,1118,2019-08-07 16:16:34:208
4.1481,-8.9819,1.2324,0.5129,0.5765,0.3241,0.1976,-0.0997,0.0759,1123,2019-08-07 16:16:34:213
4.1481,-8.9819,1.2324,0.5129,0.5765,0.3241,0.2104,-0.0273,0.0737,1128,2019-08-07 16:16:34:218
4.1481,-8.9819,1.2324,1.0839,0.8468,0.0985,0.2104,-0.0273,0.0737,1133,2019-08-07 16:16:34:223
3.6795,-9.3829,1.3455,1.0839,0.8468,0.0985,0.2029,0.0387,0.0546,1138,2019-08-07 16:16:34:228
3.6795,-9.3829,1.3455,1.0839,0.8468,0.0985,0.2029,0.0387,0.0546,1143,2019-08-07 16:16:34:233
3.6795,-9.3829,1.3455,1.0839,0.8468,0.0985,0.1827,0.0739,0.0333,1148,2019-08-07 16:16:34:238
3.0671,-10.2136,1.7556,1.9939,1.9324,-0.3255,0.1827,0.0739,0.0333,1152,2019-08-07 16:16:34:242
3.0671,-10.2136,1.7556,1.9939,1.9324,-0.3255,0.1827,0.0739,0.0333,1158,2019-08-07 16:16:34:248
2.3112,-11.2543,2.1799,1.9939,1.9324,-0.3255,0.1592,0.0792,0.0343,1162,2019-08-07 16:16:34:252
2.3112,-11.2543,2.1799,1.9939,1.9324,-0.3255,0.1592,0.0792,0.0343,1168,2019-08-07 16:16:34:258
2.3112,-11.2543,2.1799,3.1542,3.8298,-0.8857,0.1539,0.0281,0.0844,1173,2019-08-07 16:16:34:263
1.6557,-12.6434,2.6843,3.1542,3.8298,-0.8857,0.1539,0.0281,0.0844,1178,2019-08-07 16:16:34:268
1.6557,-12.6434,2.6843,3.1542,3.8298,-0.8857,0.2019,-0.0593,0.1728,1184,2019-08-07 16:16:34:274
1.6557,-12.6434,2.6843,3.1542,3.8298,-0.8857,0.2019,-0.0593,0.1728,1187,2019-08-07 16:16:34:277
1.0529,-14.9731,2.3684,3.9217,6.653,-0.8629,0.335,0.0686,0.2559,1193,2019-08-07 16:16:34:283
1.0529,-14.9731,2.3684,3.9217,6.653,-0.8629,0.335,0.0686,0.2559,1198,2019-08-07 16:16:34:288
1.0529,-14.9731,2.3684,3.9217,6.653,-0.8629,0.5907,0.484,0.3241,1203,2019-08-07 16:16:34:293
0.5506,-17.0783,1.5624,3.9217,6.653,-0.8629,0.5907,0.484,0.3241,1208,2019-08-07 16:16:34:298
0.5506,-17.0783,1.5624,4.3342,9.3315,0.8518,0.8581,1.2957,0.3156,1213,2019-08-07 16:16:34:303
0.3018,-18.3816,-0.0073,4.3342,9.3315,0.8518,0.8581,1.2957,0.3156,1217,2019-08-07 16:16:34:307
0.3018,-18.3816,-0.0073,4.3342,9.3315,0.8518,1.1808,2.6944,0.2112,1223,2019-08-07 16:16:34:313
0.3018,-18.3816,-0.0073,4.3342,9.3315,0.8518,1.1808,2.6944,0.2112,1228,2019-08-07 16:16:34:318
-0.9804,-20.2672,-1.6383,5.7046,11.907,3.6447,1.5111,4.6897,-0.0328,1233,2019-08-07 16:16:34:323
-0.9804,-20.2672,-1.6383,5.7046,11.907,3.6447,1.5111,4.6897,-0.0328,1238,2019-08-07 16:16:34:328
-0.9804,-20.2672,-1.6383,5.7046,11.907,3.6447,1.6336,6.3206,-0.2469,1242,2019-08-07 16:16:34:332
-4.5734,-23.1888,-4.3723,5.7046,11.907,3.6447,1.6336,6.3206,-0.2469,1249,2019-08-07 16:16:34:339
-4.5734,-23.1888,-4.3723,12.3183,17.4573,8.2302,1.542,8.1912,-0.4653,1253,2019-08-07 16:16:34:343
-9.8886,-27.3563,-6.0127,12.3183,17.4573,8.2302,1.542,8.1912,-0.4653,1257,2019-08-07 16:16:34:347
-9.8886,-27.3563,-6.0127,12.3183,17.4573,8.2302,1.3172,8.8549,-0.4472,1263,2019-08-07 16:16:34:353
-17.3616,-34.2497,-10.5144,12.3183,17.4573,8.2302,1.3172,8.8549,-0.4472,1268,2019-08-07 16:16:34:358
-17.3616,-34.2497,-10.5144,22.0045,26.7349,13.6566,1.3172,8.8549,-0.4472,1273,2019-08-07 16:16:34:363
-17.3616,-34.2497,-10.5144,22.0045,26.7349,13.6566,0.9582,9.4322,-0.2991,1278,2019-08-07 16:16:34:368
-18.1271,-34.751,-7.4881,22.0045,26.7349,13.6566,0.9582,9.4322,-0.2991,1282,2019-08-07 16:16:34:372
-18.1271,-34.751,-7.4881,22.0045,26.7349,13.6566,1.3108,8.9337,-0.6144,1288,2019-08-07 16:16:34:378
-12.8309,-31.4714,-3.6794,15.9584,23.3579,8.2211,1.3108,8.9337,-0.6144,1293,2019-08-07 16:16:34:383
-12.8309,-31.4714,-3.6794,15.9584,23.3579,8.2211,2.3196,6.9789,-1.4538,1298,2019-08-07 16:16:34:388
-12.8309,-31.4714,-3.6794,15.9584,23.3579,8.2211,2.3196,6.9789,-1.4538,1302,2019-08-07 16:16:34:392
-12.8309,-31.4714,-3.6794,15.9584,23.3579,8.2211,2.3196,6.9789,-1.4538,1308,2019-08-07 16:16:34:398
-7.8362,-28.5641,-0.6343,9.5041,19.1029,5.0621,3.5969,3.96,-2.3828,1313,2019-08-07 16:16:34:403
-7.8362,-28.5641,-0.6343,9.5041,19.1029,5.0621,3.5969,3.96,-2.3828,1318,2019-08-07 16:16:34:408
-2.8989,-22.8117,6.7617,9.5041,19.1029,5.0621,5.8371,0.7631,-3.692,1323,2019-08-07 16:16:34:413
-2.8989,-22.8117,6.7617,9.5041,19.1029,5.0621,5.8371,0.7631,-3.692,1328,2019-08-07 16:16:34:418
-2.8989,-22.8117,6.7617,4.9962,11.1047,16.0725,8.3021,3.7203,-4.7977,1333,2019-08-07 16:16:34:423
-1.1574,-15.8323,-13.1824,4.9962,11.1047,16.0725,8.3021,3.7203,-4.7977,1338,2019-08-07 16:16:34:428
-1.1574,-15.8323,-13.1824,4.9962,11.1047,16.0725,9.0851,7.3869,-5.603,1343,2019-08-07 16:16:34:433
4.7272,-6.2131,2.7408,4.9962,11.1047,16.0725,9.0851,7.3869,-5.603,1348,2019-08-07 16:16:34:438
4.7272,-6.2131,2.7408,0.7856,-3.7667,4.8378,9.6699,6.0521,-6.4308,1353,2019-08-07 16:16:34:443
4.7272,-6.2131,2.7408,0.7856,-3.7667,4.8378,9.6699,6.0521,-6.4308,1358,2019-08-07 16:16:34:448
-1.8368,5.941,0.6102,0.7856,-3.7667,4.8378,10.7235,5.0146,-5.9311,1363,2019-08-07 16:16:34:453
-1.8368,5.941,0.6102,0.7856,-3.7667,4.8378,10.7235,5.0146,-5.9311,1367,2019-08-07 16:16:34:457
-14.381,103.3461,24.6789,17.0485,-106.4273,-15.7555,10.7235,5.0146,-5.9311,1373,2019-08-07 16:16:34:463
-14.381,103.3461,24.6789,17.0485,-106.4273,-15.7555,14.3592,0.1069,-1.3782,1378,2019-08-07 16:16:34:468
-14.381,103.3461,24.6789,17.0485,-106.4273,-15.7555,14.3592,0.1069,-1.3782,1383,2019-08-07 16:16:34:473
28.7537,93.8271,-42.0168,17.0485,-106.4273,-15.7555,13.7914,-0.3565,-1.1257,1388,2019-08-07 16:16:34:478
28.7537,93.8271,-42.0168,17.0485,-106.4273,-15.7555,13.7914,-0.3565,-1.1257,1392,2019-08-07 16:16:34:482
33.8824,45.0911,-43.8693,-33.4076,-48.4051,47.3767,6.8555,-2.7831,-4.7625,1399,2019-08-07 16:16:34:489
33.8824,45.0911,-43.8693,-33.4076,-48.4051,47.3767,6.8555,-2.7831,-4.7625,1403,2019-08-07 16:16:34:493
33.8824,45.0911,-43.8693,-33.4076,-48.4051,47.3767,-1.8956,2.4569,-2.5319,1408,2019-08-07 16:16:34:498
15.7549,50.0082,-23.2794,-10.3921,-45.9322,27.1124,-1.8956,2.4569,-2.5319,1413,2019-08-07 16:16:34:503
15.7549,50.0082,-23.2794,-10.3921,-45.9322,27.1124,-4.8283,5.2756,-0.0605,1418,2019-08-07 16:16:34:508
15.7549,50.0082,-23.2794,-10.3921,-45.9322,27.1124,-4.8283,5.2756,-0.0605,1423,2019-08-07 16:16:34:513
-1.1,38.4508,14.5913,3.6192,-38.4848,-5.1104,-7.7695,-0.1232,2.9659,1428,2019-08-07 16:16:34:518
-1.1,38.4508,14.5913,3.6192,-38.4848,-5.1104,-7.7695,-0.1232,2.9659,1433,2019-08-07 16:16:34:523
-6.8172,26.478,11.7112,3.6192,-38.4848,-5.1104,-7.7695,-0.1232,2.9659,1438,2019-08-07 16:16:34:528
-6.8172,26.478,11.7112,-2.491,-23.5858,-37.318,-8.1338,0.2923,5.5769,1443,2019-08-07 16:16:34:533
-6.8172,26.478,11.7112,-2.491,-23.5858,-37.318,-8.1338,0.2923,5.5769,1448,2019-08-07 16:16:34:538
11.4634,20.358,22.9772,-2.491,-23.5858,-37.318,-3.9931,-2.6958,5.2999,1453,2019-08-07 16:16:34:543
11.4634,20.358,22.9772,-2.491,-23.5858,-37.318,-3.9931,-2.6958,5.2999,1458,2019-08-07 16:16:34:548
14.5588,23.9765,11.8432,-12.0302,-26.5791,-2.729,-1.8594,-1.1203,3.9769,1463,2019-08-07 16:16:34:553
14.5588,23.9765,11.8432,-12.0302,-26.5791,-2.729,-1.8594,-1.1203,3.9769,1468,2019-08-07 16:16:34:558
14.5588,23.9765,11.8432,-12.0302,-26.5791,-2.729,-1.8594,-1.1203,3.9769,1473,2019-08-07 16:16:34:563
7.2342,21.9286,-10.6322,-12.0302,-26.5791,-2.729,-3.223,-2.4114,3.1715,1478,2019-08-07 16:16:34:568
7.2342,21.9286,-10.6322,-12.0302,-26.5791,-2.729,-3.223,-2.4114,3.1715,1483,2019-08-07 16:16:34:573
7.2342,21.9286,-10.6322,-1.5515,-20.6525,23.1988,-5.7008,-0.9125,2.9617,1488,2019-08-07 16:16:34:578
3.4211,13.8417,-12.5555,-1.5515,-20.6525,23.1988,-5.7008,-0.9125,2.9617,1494,2019-08-07 16:16:34:584
3.4211,13.8417,-12.5555,-1.5515,-20.6525,23.1988,-7.3892,-0.333,2.738,1498,2019-08-07 16:16:34:588
3.8517,3.5398,6.46,-1.5515,-20.6525,23.1988,-7.3892,-0.333,2.738,1502,2019-08-07 16:16:34:592
3.8517,3.5398,6.46,-1.9002,-6.2003,-5.2519,-7.3892,-0.333,2.738,1508,2019-08-07 16:16:34:598
3.8517,3.5398,6.46,-1.9002,-6.2003,-5.2519,-8.0699,-2.3325,2.1649,1513,2019-08-07 16:16:34:603
1.7705,-2.1697,24.7307,-1.9002,-6.2003,-5.2519,-8.0699,-2.3325,2.1649,1517,2019-08-07 16:16:34:607
1.7705,-2.1697,24.7307,-1.9002,-6.2003,-5.2519,-4.9711,-3.8793,1.0751,1523,2019-08-07 16:16:34:613
-1.5641,-7.6643,6.6297,4.0349,1.0074,-1.5706,-4.9711,-3.8793,1.0751,1527,2019-08-07 16:16:34:617
-1.5641,-7.6643,6.6297,4.0349,1.0074,-1.5706,-4.0805,-3.6684,0.2644,1534,2019-08-07 16:16:34:624
-1.5641,-7.6643,6.6297,4.0349,1.0074,-1.5706,-4.0805,-3.6684,0.2644,1537,2019-08-07 16:16:34:627
-5.5302,-15.2117,7.9637,4.0349,1.0074,-1.5706,-4.644,-4.5057,-0.0562,1543,2019-08-07 16:16:34:633
-5.5302,-15.2117,7.9637,10.2721,12.6523,0.5279,-4.644,-4.5057,-0.0562,1548,2019-08-07 16:16:34:638
-10.922,-39.6442,7.1577,10.2721,12.6523,0.5279,-5.5996,-5.3749,-0.1287,1553,2019-08-07 16:16:34:643
-10.922,-39.6442,7.1577,10.2721,12.6523,0.5279,-5.5996,-5.3749,-0.1287,1557,2019-08-07 16:16:34:647
-10.922,-39.6442,7.1577,10.2721,12.6523,0.5279,-7.3477,-7.1156,0.2591,1563,2019-08-07 16:16:34:653
-6.9655,-50.6001,-0.1582,11.165,43.46,5.4136,-7.3477,-7.1156,0.2591,1568,2019-08-07 16:16:34:658
-6.9655,-50.6001,-0.1582,11.165,43.46,5.4136,-6.7991,-6.8887,-0.0871,1572,2019-08-07 16:16:34:662
2.7657,-24.8501,4.2257,11.165,43.46,5.4136,-6.7991,-6.8887,-0.0871,1578,2019-08-07 16:16:34:668
2.7657,-24.8501,4.2257,11.165,43.46,5.4136,-4.252,-6.323,-1.391,1583,2019-08-07 16:16:34:673
2.7657,-24.8501,4.2257,8.9053,14.9405,4.1421,-4.252,-6.323,-1.391,1588,2019-08-07 16:16:34:678
-13.2376,-27.9913,-1.3413,8.9053,14.9405,4.1421,-1.9425,-5.963,-1.3026,1593,2019-08-07 16:16:34:683
-13.2376,-27.9913,-1.3413,8.9053,14.9405,4.1421,-1.9425,-5.963,-1.3026,1598,2019-08-07 16:16:34:688
-13.2376,-27.9913,-1.3413,8.9053,14.9405,4.1421,-0.2328,-6.6777,0.1142,1603,2019-08-07 16:16:34:693
-17.2564,-32.0824,0.3604,22.5936,24.3165,2.3672,-0.2328,-6.6777,0.1142,1608,2019-08-07 16:16:34:698
-17.2564,-32.0824,0.3604,22.5936,24.3165,2.3672,0.7164,-7.5395,1.1497,1613,2019-08-07 16:16:34:703
-5.8412,-27.1511,-2.911,22.5936,24.3165,2.3672,0.7164,-7.5395,1.1497,1618,2019-08-07 16:16:34:708
-5.8412,-27.1511,-2.911,22.5936,24.3165,2.3672,0.7164,-7.5395,1.1497,1623,2019-08-07 16:16:34:713
-5.8412,-27.1511,-2.911,6.0783,18.314,17.5649,1.3566,-6.6213,0.6266,1628,2019-08-07 16:16:34:718
2.1294,-24.8835,-15.0067,6.0783,18.314,17.5649,1.3566,-6.6213,0.6266,1633,2019-08-07 16:16:34:723
2.1294,-24.8835,-15.0067,6.0783,18.314,17.5649,0.3457,-0.7517,-0.9031,1638,2019-08-07 16:16:34:728
2.1294,-24.8835,-15.0067,6.0783,18.314,17.5649,0.3457,-0.7517,-0.9031,1643,2019-08-07 16:16:34:733
2.8135,-18.4102,-10.8679,4.4367,9.2715,11.2415,-1.0626,0.5905,-1.6637,1648,2019-08-07 16:16:34:738
2.8135,-18.4102,-10.8679,4.4367,9.2715,11.2415,-1.0626,0.5905,-1.6637,1653,2019-08-07 16:16:34:743
-4.5925,-13.5839,-3.1844,10.3455,5.8477,4.9985,-0.8442,1.7794,-1.6765,1658,2019-08-07 16:16:34:748
-4.5925,-13.5839,-3.1844,10.3455,5.8477,4.9985,-0.8442,1.7794,-1.6765,1663,2019-08-07 16:16:34:753
-4.5925,-13.5839,-3.1844,10.3455,5.8477,4.9985,-0.8442,1.7794,-1.6765,1668,2019-08-07 16:16:34:758
-6.4057,-11.3784,5.7388,10.3455,5.8477,4.9985,0.1816,1.9147,-0.6347,1673,2019-08-07 16:16:34:763
-6.4057,-11.3784,5.7388,10.3245,3.4789,-5.2019,0.1816,1.9147,-0.6347,1677,2019-08-07 16:16:34:767
-1.411,-10.5334,6.2856,10.3245,3.4789,-5.2019,1.1084,-0.2468,0.2037,1684,2019-08-07 16:16:34:774
-1.411,-10.5334,6.2856,10.3245,3.4789,-5.2019,1.1084,-0.2468,0.2037,1688,2019-08-07 16:16:34:778
-1.411,-10.5334,6.2856,10.3245,3.4789,-5.2019,1.5121,-3.3371,0.4658,1693,2019-08-07 16:16:34:783
2.249,-9.4354,-4.9851,3.5286,1.7582,6.9641,0.9507,-4.2362,0.4317,1699,2019-08-07 16:16:34:789
2.249,-9.4354,-4.9851,3.5286,1.7582,6.9641,0.9507,-4.2362,0.4317,1703,2019-08-07 16:16:34:793
2.249,-9.4354,-4.9851,3.5286,1.7582,6.9641,0.9507,-4.2362,0.4317,1707,2019-08-07 16:16:34:797
7.9374,-9.2779,-2.4915,-2.1106,1.5892,4.2713,0.4437,-4.1232,0.2389,1713,2019-08-07 16:16:34:803
7.9374,-9.2779,-2.4915,-2.1106,1.5892,4.2713,0.4437,-4.1232,0.2389,1718,2019-08-07 16:16:34:808
11.2146,-7.502,0.1482,-2.1106,1.5892,4.2713,0.2487,-4.8913,0.0567,1723,2019-08-07 16:16:34:813
11.2146,-7.502,0.1482,-5.6351,-0.5158,3.0224,0.2487,-4.8913,0.0567,1728,2019-08-07 16:16:34:818
11.2146,-7.502,0.1482,-5.6351,-0.5158,3.0224,0.7292,-4.2404,0.4509,1733,2019-08-07 16:16:34:823
12.9178,-6.9817,-2.9535,-5.6351,-0.5158,3.0224,0.7292,-4.2404,0.4509,1737,2019-08-07 16:16:34:827
12.9178,-6.9817,-2.9535,-5.6351,-0.5158,3.0224,1.2852,-1.9725,1.0186,1743,2019-08-07 16:16:34:833
13.4776,-6.194,-3.4484,-7.5437,-1.5458,4.5069,1.2852,-1.9725,1.0186,1748,2019-08-07 16:16:34:838
13.4776,-6.194,-3.4484,-7.5437,-1.5458,4.5069,1.2277,0.8004,1.3787,1752,2019-08-07 16:16:34:842
13.4776,-6.194,-3.4484,-7.5437,-1.5458,4.5069,1.2277,0.8004,1.3787,1758,2019-08-07 16:16:34:848
11.9275,-4.3227,-1.3885,-7.5437,-1.5458,4.5069,0.6418,2.1192,1.0623,1763,2019-08-07 16:16:34:853
11.9275,-4.3227,-1.3885,-3.4914,-4.8103,2.2845,0.6418,2.1192,1.0623,1767,2019-08-07 16:16:34:857
11.9275,-4.3227,-1.3885,-3.4914,-4.8103,2.2845,0.6418,2.1192,1.0623,1773,2019-08-07 16:16:34:863
6.4065,-2.3893,1.7085,-3.4914,-4.8103,2.2845,-0.236,2.7296,0.5563,1778,2019-08-07 16:16:34:868
6.4065,-2.3893,1.7085,-3.4914,-4.8103,2.2845,-0.236,2.7296,0.5563,1783,2019-08-07 16:16:34:873
2.957,-3.0862,6.0122,2.6395,-4.8044,-4.3833,-0.4991,2.1171,0.4093,1788,2019-08-07 16:16:34:878
2.957,-3.0862,6.0122,2.6395,-4.8044,-4.3833,-0.4991,2.1171,0.4093,1793,2019-08-07 16:16:34:883
2.957,-3.0862,6.0122,2.6395,-4.8044,-4.3833,-0.3734,1.3107,0.3315,1798,2019-08-07 16:16:34:888
2.3494,-5.7596,5.9839,2.6395,-4.8044,-4.3833,-0.3734,1.3107,0.3315,1803,2019-08-07 16:16:34:893
2.3494,-5.7596,5.9839,2.6395,-4.8044,-4.3833,-0.3734,1.3107,0.3315,1808,2019-08-07 16:16:34:898
2.3494,-5.7596,5.9839,2.8865,-0.8367,-3.9903,-0.3041,0.5426,0.2431,1813,2019-08-07 16:16:34:903
3.1006,-7.65,5.2156,2.8865,-0.8367,-3.9903,-0.3041,0.5426,0.2431,1818,2019-08-07 16:16:34:908
3.1006,-7.65,5.2156,2.8865,-0.8367,-3.9903,-0.285,-1.1171,-0.0083,1823,2019-08-07 16:16:34:913
5.1721,-7.8314,3.8486,2.8865,-0.8367,-3.9903,-0.285,-1.1171,-0.0083,1828,2019-08-07 16:16:34:918
5.1721,-7.8314,3.8486,-0.1991,-0.204,-1.9456,-0.1912,-1.475,-0.0818,1832,2019-08-07 16:16:34:922
5.1721,-7.8314,3.8486,-0.1991,-0.204,-1.9456,-0.1912,-1.475,-0.0818,1838,2019-08-07 16:16:34:928
7.8178,-7.3827,1.388,-0.1991,-0.204,-1.9456,-0.0474,-1.3642,-0.0828,1842,2019-08-07 16:16:34:932
7.8178,-7.3827,1.388,-3.1788,-0.5623,0.9762,-0.0474,-1.3642,-0.0828,1848,2019-08-07 16:16:34:938
7.8178,-7.3827,1.388,-3.1788,-0.5623,0.9762,0.0453,-0.6068,-0.0626,1853,2019-08-07 16:16:34:943
9.0665,-7.3397,0.0492,-3.1788,-0.5623,0.9762,0.0453,-0.6068,-0.0626,1858,2019-08-07 16:16:34:948
9.0665,-7.3397,0.0492,-3.1788,-0.5623,0.9762,0.0453,-0.6068,-0.0626,1863,2019-08-07 16:16:34:953
9.0665,-7.3397,0.0492,-3.1788,-0.5623,0.9762,-0.0059,0.0579,-0.0583,1867,2019-08-07 16:16:34:957
8.0666,-7.2204,0.3038,-2.7239,-0.7347,1.3099,-0.0059,0.0579,-0.0583,1873,2019-08-07 16:16:34:963
8.0666,-7.2204,0.3038,-2.7239,-0.7347,1.3099,-0.0847,0.5607,-0.0477,1878,2019-08-07 16:16:34:968
8.0666,-7.2204,0.3038,-2.7239,-0.7347,1.3099,-0.0847,0.5607,-0.0477,1883,2019-08-07 16:16:34:973
6.6505,-7.502,1.454,-2.7239,-0.7347,1.3099,-0.1039,0.713,-0.0562,1888,2019-08-07 16:16:34:978
6.6505,-7.502,1.454,-0.5091,-0.2148,-0.2275,-0.1039,0.713,-0.0562,1892,2019-08-07 16:16:34:982
5.7941,-7.841,1.8971,-0.5091,-0.2148,-0.2275,-0.089,0.6044,-0.0498,1898,2019-08-07 16:16:34:988
5.7941,-7.841,1.8971,-0.5091,-0.2148,-0.2275,-0.089,0.6044,-0.0498,1903,2019-08-07 16:16:34:993
5.7941,-7.841,1.8971,-0.5091,-0.2148,-0.2275,-0.0549,0.2571,-0.036,1908,2019-08-07 16:16:34:998
5.3587,-7.9842,2.1799,0.2433,0.0749,-0.6646,-0.0549,0.2571,-0.036,1912,2019-08-07 16:16:35:002
5.3587,-7.9842,2.1799,0.2433,0.0749,-0.6646,-0.0559,-0.0305,-0.0168,1918,2019-08-07 16:16:35:008
5.531,-7.7598,1.8358,0.2433,0.0749,-0.6646,-0.0559,-0.0305,-0.0168,1923,2019-08-07 16:16:35:013
5.531,-7.7598,1.8358,0.2433,0.0749,-0.6646,-0.0559,-0.0305,-0.0168,1928,2019-08-07 16:16:35:018
5.531,-7.7598,1.8358,-0.2649,-0.3594,-0.0319,-0.1049,-0.2702,0.0237,1933,2019-08-07 16:16:35:023
6.3204,-7.4829,1.256,-0.2649,-0.3594,-0.0319,-0.1049,-0.2702,0.0237,1938,2019-08-07 16:16:35:028
6.3204,-7.4829,1.256,-0.2649,-0.3594,-0.0319,-0.1593,-0.2649,0.0386,1942,2019-08-07 16:16:35:032
6.3204,-7.4829,1.256,-0.2649,-0.3594,-0.0319,-0.1593,-0.2649,0.0386,1948,2019-08-07 16:16:35:038
6.7175,-7.5832,0.7516,-1.1036,-0.3307,0.6945,-0.236,-0.0603,0.0258,1952,2019-08-07 16:16:35:042
6.7175,-7.5832,0.7516,-1.1036,-0.3307,0.6945,-0.236,-0.0603,0.0258,1958,2019-08-07 16:16:35:048
6.6792,-7.7359,0.7846,-1.1036,-0.3307,0.6945,-0.2828,0.1485,0.0173,1963,2019-08-07 16:16:35:053
6.6792,-7.7359,0.7846,-1.1036,-0.3307,0.6945,-0.2828,0.1485,0.0173,1968,2019-08-07 16:16:35:058
6.6792,-7.7359,0.7846,-0.7574,0.0214,0.4803,-0.2828,0.1485,0.0173,1973,2019-08-07 16:16:35:063
6.2438,-7.9842,0.9779,-0.7574,0.0214,0.4803,-0.2775,0.3296,-8.0E-4,1978,2019-08-07 16:16:35:068
6.2438,-7.9842,0.9779,-0.1533,0.2044,0.3251,-0.2775,0.3296,-8.0E-4,1983,2019-08-07 16:16:35:073
5.3492,-8.2849,1.2136,-0.1533,0.2044,0.3251,-0.2445,0.3754,-0.0157,1988,2019-08-07 16:16:35:078
5.3492,-8.2849,1.2136,-0.1533,0.2044,0.3251,-0.2445,0.3754,-0.0157,1993,2019-08-07 16:16:35:083
5.3492,-8.2849,1.2136,-0.1533,0.2044,0.3251,-0.1934,0.222,-0.0157,1998,2019-08-07 16:16:35:088
4.9425,-8.347,1.9583,0.6597,0.4169,-0.5568,-0.1934,0.222,-0.0157,2003,2019-08-07 16:16:35:093
4.9425,-8.347,1.9583,0.6597,0.4169,-0.5568,-0.1934,0.222,-0.0157,2008,2019-08-07 16:16:35:098
4.9425,-8.347,1.9583,0.6597,0.4169,-0.5568,-0.0879,-0.0294,-0.0093,2013,2019-08-07 16:16:35:103
5.1961,-8.3565,1.9159,0.6597,0.4169,-0.5568,-0.0879,-0.0294,-0.0093,2018,2019-08-07 16:16:35:108
5.1961,-8.3565,1.9159,0.1288,0.1563,-0.3566,0.0559,-0.3522,0.013,2023,2019-08-07 16:16:35:113
5.7223,-7.9603,1.4445,0.1288,0.1563,-0.3566,0.0559,-0.3522,0.013,2029,2019-08-07 16:16:35:119
5.7223,-7.9603,1.4445,0.1288,0.1563,-0.3566,0.0825,-0.4364,0.0439,2032,2019-08-07 16:16:35:122
5.7223,-7.9603,1.4445,0.1288,0.1563,-0.3566,0.0825,-0.4364,0.0439,2038,2019-08-07 16:16:35:128
6.5931,-7.7932,1.0156,-1.0749,-0.1888,0.2772,0.0953,-0.382,0.0897,2042,2019-08-07 16:16:35:132
6.5931,-7.7932,1.0156,-1.0749,-0.1888,0.2772,0.0953,-0.382,0.0897,2048,2019-08-07 16:16:35:138
6.9949,-7.7025,1.0156,-1.0749,-0.1888,0.2772,0.0932,-0.2478,0.1185,2053,2019-08-07 16:16:35:143
6.9949,-7.7025,1.0156,-1.0749,-0.1888,0.2772,0.0932,-0.2478,0.1185,2058,2019-08-07 16:16:35:148
6.9949,-7.7025,1.0156,-1.542,-0.3325,0.4572,0.0804,-0.0529,0.1515,2063,2019-08-07 16:16:35:153
7.1193,-7.6261,0.8789,-1.542,-0.3325,0.4572,0.0804,-0.0529,0.1515,2068,2019-08-07 16:16:35:158
7.1193,-7.6261,0.8789,-1.542,-0.3325,0.4572,0.0804,-0.0529,0.1515,2073,2019-08-07 16:16:35:163
6.7175,-7.4686,1.0957,-1.331,-0.4143,0.3451,0.058,0.1591,0.1749,2078,2019-08-07 16:16:35:168
6.7175,-7.4686,1.0957,-1.331,-0.4143,0.3451,0.058,0.1591,0.1749,2084,2019-08-07 16:16:35:174
6.7175,-7.4686,1.0957,-1.331,-0.4143,0.3451,0.0101,0.3051,0.1963,2087,2019-08-07 16:16:35:177
5.8132,-7.4304,1.3314,-0.2478,-0.531,0.039,0.0101,0.3051,0.1963,2093,2019-08-07 16:16:35:183
5.8132,-7.4304,1.3314,-0.2478,-0.531,0.039,-0.0421,0.2592,0.2037,2099,2019-08-07 16:16:35:189
5.8132,-7.4304,1.3314,-0.2478,-0.531,0.039,-0.0421,0.2592,0.2037,2103,2019-08-07 16:16:35:193
5.2248,-7.545,1.7556,-0.2478,-0.531,0.039,-0.0421,0.2592,0.2037,2107,2019-08-07 16:16:35:197
5.2248,-7.545,1.7556,-0.2478,-0.531,0.039,-0.089,0.1144,0.1973,2113,2019-08-07 16:16:35:203
5.0478,-7.693,1.6519,0.4887,-0.3255,-0.3622,-0.089,0.1144,0.1973,2118,2019-08-07 16:16:35:208
5.0478,-7.693,1.6519,0.4887,-0.3255,-0.3622,-0.1209,-0.0582,0.1728,2123,2019-08-07 16:16:35:213
5.0478,-7.693,1.6519,0.4887,-0.3255,-0.3622,-0.1209,-0.0582,0.1728,2128,2019-08-07 16:16:35:218
5.1748,-7.941,1.4865,0.2575,-0.0623,-0.1255,-0.1209,-0.0582,0.1728,2133,2019-08-07 16:16:35:223
5.1748,-7.941,1.4865,0.2575,-0.0623,-0.1255,-0.1294,-0.1573,0.1579,2138,2019-08-07 16:16:35:228
5.5957,-8.0699,1.4394,0.2575,-0.0623,-0.1255,-0.0943,-0.1946,0.1291,2143,2019-08-07 16:16:35:233
5.5957,-8.0699,1.4394,0.2575,-0.0623,-0.1255,-0.0943,-0.1946,0.1291,2148,2019-08-07 16:16:35:238
5.5957,-8.0699,1.4394,-0.4145,0.0492,-0.0013,-0.0943,-0.1946,0.1291,2153,2019-08-07 16:16:35:243
5.9306,-8.0269,1.4111,-0.4145,0.0492,-0.0013,-0.0304,-0.1434,0.0876,2158,2019-08-07 16:16:35:248
5.9306,-8.0269,1.4111,-0.4145,0.0492,-0.0013,-0.0304,-0.1434,0.0876,2163,2019-08-07 16:16:35:253
6.1411,-7.7405,1.0481,-0.5963,-0.2135,0.0928,-0.0091,-0.0987,0.0609,2168,2019-08-07 16:16:35:258
6.1411,-7.7405,1.0481,-0.5963,-0.2135,0.0928,-0.0091,-0.0987,0.0609,2173,2019-08-07 16:16:35:263
6.1411,-7.7405,1.0481,-0.5963,-0.2135,0.0928,-0.0165,-0.055,0.0407,2178,2019-08-07 16:16:35:268
6.3229,-7.7262,1.1754,-0.8551,-0.3141,0.0835,-0.0165,-0.055,0.0407,2184,2019-08-07 16:16:35:274
6.3229,-7.7262,1.1754,-0.8551,-0.3141,0.0835,-0.0208,-0.0049,0.029,2188,2019-08-07 16:16:35:278
6.3229,-7.7262,1.1754,-0.8551,-0.3141,0.0835,-0.0208,-0.0049,0.029,2193,2019-08-07 16:16:35:283
6.208,-7.8455,1.3121,-0.7376,-0.1917,-0.0025,5.0E-4,0.0217,0.0269,2198,2019-08-07 16:16:35:288
6.208,-7.8455,1.3121,-0.7376,-0.1917,-0.0025,5.0E-4,0.0217,0.0269,2204,2019-08-07 16:16:35:294
6.208,-7.8455,1.3121,-0.7376,-0.1917,-0.0025,5.0E-4,0.0217,0.0269,2208,2019-08-07 16:16:35:298
5.9544,-7.9887,1.2555,-0.7376,-0.1917,-0.0025,0.0122,-0.0017,0.0439,2213,2019-08-07 16:16:35:303
5.9544,-7.9887,1.2555,-0.4091,0.0144,-0.1275,0.0122,-0.0017,0.0439,2218,2019-08-07 16:16:35:308
5.8204,-8.1367,1.5383,-0.4091,0.0144,-0.1275,0.041,-0.072,0.0609,2223,2019-08-07 16:16:35:313
5.8204,-8.1367,1.5383,-0.4091,0.0144,-0.1275,0.041,-0.072,0.0609,2229,2019-08-07 16:16:35:319
5.8204,-8.1367,1.5383,-0.4091,0.0144,-0.1275,0.0719,-0.1104,0.0737,2232,2019-08-07 16:16:35:322
5.9017,-8.151,1.5053,-0.446,0.1041,-0.1945,0.0719,-0.1104,0.0737,2239,2019-08-07 16:16:35:329
5.9017,-8.151,1.5053,-0.446,0.1041,-0.1945,0.0921,-0.1072,0.0716,2243,2019-08-07 16:16:35:333
5.8443,-7.9505,1.4346,-0.4597,-0.0656,-0.1129,0.0921,-0.1072,0.0716,2249,2019-08-07 16:16:35:339
5.8443,-7.9505,1.4346,-0.4597,-0.0656,-0.1129,0.1007,-0.0326,0.0663,2253,2019-08-07 16:16:35:343
5.8443,-7.9505,1.4346,-0.4597,-0.0656,-0.1129,0.1007,-0.0326,0.0663,2258,2019-08-07 16:16:35:348
5.8347,-7.8598,1.5194,-0.4597,-0.0656,-0.1129,0.0921,0.0473,0.045,2264,2019-08-07 16:16:35:354
5.8347,-7.8598,1.5194,-0.3013,-0.2938,-0.1086,0.0921,0.0473,0.045,2267,2019-08-07 16:16:35:357
5.8347,-7.8598,1.5194,-0.3013,-0.2938,-0.1086,0.0921,0.0473,0.045,2273,2019-08-07 16:16:35:363
5.6385,-7.7309,1.5901,-0.3013,-0.2938,-0.1086,0.0581,0.1037,0.0056,2278,2019-08-07 16:16:35:368
5.6385,-7.7309,1.5901,-0.3013,-0.2938,-0.1086,0.0581,0.1037,0.0056,2283,2019-08-07 16:16:35:373
5.6433,-7.6927,1.7315,-0.1857,-0.3789,-0.2756,0.0474,0.1272,-0.0307,2288,2019-08-07 16:16:35:378
5.6433,-7.6927,1.7315,-0.1857,-0.3789,-0.2756,0.0474,0.1272,-0.0307,2293,2019-08-07 16:16:35:383
5.6433,-7.6927,1.7315,-0.1742,-0.3184,-0.4339,0.0463,0.1336,-0.0637,2298,2019-08-07 16:16:35:388
5.538,-7.6927,1.6703,-0.1742,-0.3184,-0.4339,0.0463,0.1336,-0.0637,2303,2019-08-07 16:16:35:393
5.538,-7.6927,1.6703,-0.0937,-0.3761,-0.1925,0.0304,0.1091,-0.0711,2308,2019-08-07 16:16:35:398
5.4662,-7.7261,1.6278,-0.0937,-0.3761,-0.1925,0.0304,0.1091,-0.0711,2313,2019-08-07 16:16:35:403
5.4662,-7.7261,1.6278,-0.0937,-0.3761,-0.1925,0.0122,0.0302,-0.0477,2319,2019-08-07 16:16:35:409
5.4662,-7.7261,1.6278,-0.0937,-0.3761,-0.1925,0.0122,0.0302,-0.0477,2323,2019-08-07 16:16:35:413
5.5379,-7.9171,1.7881,-0.1338,-0.0876,-0.4381,0.0176,-0.0838,-0.0349,2328,2019-08-07 16:16:35:418
5.5379,-7.9171,1.7881,-0.1338,-0.0876,-0.4381,0.0176,-0.0838,-0.0349,2333,2019-08-07 16:16:35:423
5.9159,-8.0937,1.6797,-0.1338,-0.0876,-0.4381,0.0176,-0.0838,-0.0349,2338,2019-08-07 16:16:35:428
5.9159,-8.0937,1.6797,-0.1338,-0.0876,-0.4381,0.0346,-0.1882,-0.0232,2343,2019-08-07 16:16:35:433
5.9159,-8.0937,1.6797,-0.5842,0.0502,-0.1235,0.0346,-0.1882,-0.0232,2348,2019-08-07 16:16:35:438
6.1503,-8.0317,1.4251,-0.5842,0.0502,-0.1235,0.0453,-0.1807,0.0098,2353,2019-08-07 16:16:35:443
6.1503,-8.0317,1.4251,-0.897,0.0223,0.2178,0.0453,-0.1807,0.0098,2358,2019-08-07 16:16:35:448
6.4564,-8.0555,1.1517,-0.897,0.0223,0.2178,0.0453,-0.1807,0.0098,2363,2019-08-07 16:16:35:453
6.4564,-8.0555,1.1517,-0.897,0.0223,0.2178,0.0495,-0.0742,0.0322,2368,2019-08-07 16:16:35:458
6.4564,-8.0555,1.1517,-0.897,0.0223,0.2178,0.0495,-0.0742,0.0322,2373,2019-08-07 16:16:35:463
6.2746,-7.9171,1.1847,-0.7045,-0.147,0.097,0.0527,0.0515,0.0514,2377,2019-08-07 16:16:35:467
6.2746,-7.9171,1.1847,-0.7045,-0.147,0.097,0.0527,0.0515,0.0514,2383,2019-08-07 16:16:35:473
6.2746,-7.9171,1.1847,-0.7045,-0.147,0.097,0.0591,0.1591,0.0673,2388,2019-08-07 16:16:35:478
5.7961,-7.8741,1.3214,-0.7045,-0.147,0.097,0.0591,0.1591,0.0673,2393,2019-08-07 16:16:35:483
5.7961,-7.8741,1.3214,-0.1156,-0.1953,-0.0578,0.041,0.1357,0.0609,2398,2019-08-07 16:16:35:488
5.466,-7.9362,1.4298,-0.1156,-0.1953,-0.0578,0.041,0.1357,0.0609,2403,2019-08-07 16:16:35:493
5.466,-7.9362,1.4298,-0.1156,-0.1953,-0.0578,0.041,0.1357,0.0609,2408,2019-08-07 16:16:35:498
5.466,-7.9362,1.4298,0.0263,-0.1884,-0.1328,0.0389,0.0803,0.0535,2413,2019-08-07 16:16:35:503
5.3751,-7.8884,1.5854,0.0263,-0.1884,-0.1328,0.0389,0.0803,0.0535,2418,2019-08-07 16:16:35:508
5.3751,-7.8884,1.5854,0.0263,-0.1884,-0.1328,0.0485,-0.0198,0.0354,2423,2019-08-07 16:16:35:513
5.4947,-7.8073,1.5099,-0.0616,-0.239,-0.1046,0.0485,-0.0198,0.0354,2428,2019-08-07 16:16:35:518
5.4947,-7.8073,1.5099,-0.0616,-0.239,-0.1046,0.0495,-0.072,0.0173,2432,2019-08-07 16:16:35:522
5.4947,-7.8073,1.5099,-0.0616,-0.239,-0.1046,0.0495,-0.072,0.0173,2438,2019-08-07 16:16:35:528
5.7386,-7.6879,1.3402,-0.0616,-0.239,-0.1046,0.0346,-0.1136,0.0141,2443,2019-08-07 16:16:35:533
5.7386,-7.6879,1.3402,-0.4722,-0.3872,0.0893,0.0346,-0.1136,0.0141,2449,2019-08-07 16:16:35:539
5.7386,-7.6879,1.3402,-0.4722,-0.3872,0.0893,0.0186,-0.1125,-8.0E-4,2453,2019-08-07 16:16:35:543
6.0591,-7.7022,1.2507,-0.4722,-0.3872,0.0893,0.0186,-0.1125,-8.0E-4,2458,2019-08-07 16:16:35:548
6.0591,-7.7022,1.2507,-0.4722,-0.3872,0.0893,-0.0027,-0.0902,-0.0253,2463,2019-08-07 16:16:35:553
6.0591,-7.7022,1.2507,-0.5382,-0.4614,0.0513,-0.0027,-0.0902,-0.0253,2468,2019-08-07 16:16:35:558
5.9778,-7.5829,1.3402,-0.5382,-0.4614,0.0513,-0.0016,-0.0326,-0.0392,2473,2019-08-07 16:16:35:563
5.9778,-7.5829,1.3402,-0.5382,-0.4614,0.0513,-0.0016,-0.0326,-0.0392,2478,2019-08-07 16:16:35:568
5.9395,-7.6641,1.4203,-0.5382,-0.4614,0.0513,5.0E-4,-0.0092,-0.0328,2483,2019-08-07 16:16:35:573
5.9395,-7.6641,1.4203,-0.4545,-0.3569,0.0435,5.0E-4,-0.0092,-0.0328,2488,2019-08-07 16:16:35:578
5.9395,-7.6641,1.4203,-0.4545,-0.3569,0.0435,5.0E-4,-0.0092,-0.0328,2493,2019-08-07 16:16:35:583
5.8677,-7.75,1.3826,-0.4545,-0.3569,0.0435,-0.0123,-0.0017,-0.0349,2498,2019-08-07 16:16:35:588
5.8677,-7.75,1.3826,-0.4545,-0.3569,0.0435,-0.0123,-0.0017,-0.0349,2504,2019-08-07 16:16:35:594
5.8677,-7.75,1.3826,-0.4545,-0.3569,0.0435,-0.0123,-0.0017,-0.0349,2507,2019-08-07 16:16:35:597
5.8437,-7.96,1.491,-0.4058,-0.086,-0.1039,0.0048,0.0281,-0.0285,2513,2019-08-07 16:16:35:603
5.8437,-7.96,1.491,-0.4058,-0.086,-0.1039,0.025,0.0707,-0.0285,2518,2019-08-07 16:16:35:608
5.8437,-7.96,1.491,-0.4058,-0.086,-0.1039,0.025,0.0707,-0.0285,2523,2019-08-07 16:16:35:613
5.7863,-7.9027,1.4015,-0.4058,-0.086,-0.1039,0.025,0.0707,-0.0285,2528,2019-08-07 16:16:35:618
5.7863,-7.9027,1.4015,-0.2779,-0.1296,0.0523,0.0293,0.0792,-0.0243,2534,2019-08-07 16:16:35:624
5.7863,-7.9027,1.4015,-0.2779,-0.1296,0.0523,0.0293,0.0792,-0.0243,2538,2019-08-07 16:16:35:628
5.6284,-7.8789,1.4486,-0.2779,-0.1296,0.0523,0.0272,0.1037,-0.0221,2543,2019-08-07 16:16:35:633
5.6284,-7.8789,1.4486,-0.2779,-0.1296,0.0523,0.0272,0.1037,-0.0221,2548,2019-08-07 16:16:35:638
5.5805,-7.8789,1.4297,-0.1426,-0.2026,-0.0697,0.0144,0.075,-0.0243,2553,2019-08-07 16:16:35:643
5.5805,-7.8789,1.4297,-0.1426,-0.2026,-0.0697,0.0144,0.075,-0.0243,2557,2019-08-07 16:16:35:647
5.5805,-7.8789,1.4297,-0.1426,-0.2026,-0.0697,-0.008,0.0419,-0.0317,2563,2019-08-07 16:16:35:653
5.6235,-7.9027,1.392,-0.1825,-0.2089,-0.0022,-0.008,0.0419,-0.0317,2568,2019-08-07 16:16:35:658
5.6235,-7.9027,1.392,-0.1825,-0.2089,-0.0022,-0.024,0.0196,-0.0339,2573,2019-08-07 16:16:35:663
5.6522,-7.9027,1.3873,-0.1825,-0.2089,-0.0022,-0.024,0.0196,-0.0339,2578,2019-08-07 16:16:35:668
5.6522,-7.9027,1.3873,-0.1825,-0.2089,-0.0022,-0.0208,0.0025,-0.0317,2583,2019-08-07 16:16:35:673
5.6522,-7.9027,1.3873,-0.1825,-0.2089,-0.0022,-0.0208,0.0025,-0.0317,2588,2019-08-07 16:16:35:678
5.6522,-7.8741,1.2789,-0.1295,-0.1151,0.0755,-0.0304,-0.023,-0.0221,2593,2019-08-07 16:16:35:683
5.6522,-7.8741,1.2789,-0.1295,-0.1151,0.0755,-0.0304,-0.023,-0.0221,2599,2019-08-07 16:16:35:689
5.6522,-7.8741,1.2789,-0.1295,-0.1151,0.0755,-0.0399,-0.0688,-0.0104,2603,2019-08-07 16:16:35:693
5.8339,-7.9982,1.293,-0.1295,-0.1151,0.0755,-0.0399,-0.0688,-0.0104,2608,2019-08-07 16:16:35:698
5.8339,-7.9982,1.293,-0.4074,-0.0044,0.1018,-0.0282,-0.0657,-0.0051,2613,2019-08-07 16:16:35:703
5.8387,-8.065,1.3449,-0.4074,-0.0044,0.1018,-0.0282,-0.0657,-0.0051,2618,2019-08-07 16:16:35:708
5.8387,-8.065,1.3449,-0.4074,-0.0044,0.1018,-0.0282,-0.0657,-0.0051,2623,2019-08-07 16:16:35:713
5.8387,-8.065,1.3449,-0.4074,-0.0044,0.1018,-0.0091,-0.0316,0.0087,2628,2019-08-07 16:16:35:718
5.8195,-7.9982,1.1186,-0.3919,-0.0481,0.2351,-0.0091,-0.0316,0.0087,2633,2019-08-07 16:16:35:723
5.8195,-7.9982,1.1186,-0.3919,-0.0481,0.2351,-0.0027,-0.0124,0.013,2637,2019-08-07 16:16:35:727
5.8291,-7.96,1.3213,-0.3589,-0.0629,0.0738,-0.0027,-0.0124,0.013,2643,2019-08-07 16:16:35:733
5.8291,-7.96,1.3213,-0.3589,-0.0629,0.0738,0.008,-0.0135,0.0056,2648,2019-08-07 16:16:35:738
5.8291,-7.96,1.3213,-0.3589,-0.0629,0.0738,0.008,-0.0135,0.0056,2652,2019-08-07 16:16:35:742
5.8912,-7.8693,1.3873,-0.3589,-0.0629,0.0738,0.0261,-0.0124,-8.0E-4,2658,2019-08-07 16:16:35:748
5.8912,-7.8693,1.3873,-0.3733,-0.163,0.0088,0.0261,-0.0124,-8.0E-4,2663,2019-08-07 16:16:35:753
5.8912,-7.8693,1.3873,-0.3733,-0.163,0.0088,0.0186,-0.0124,-0.0062,2668,2019-08-07 16:16:35:758
5.8003,-7.7738,1.4155,-0.3733,-0.163,0.0088,0.0186,-0.0124,-0.0062,2673,2019-08-07 16:16:35:763
5.8003,-7.7738,1.4155,-0.3733,-0.163,0.0088,0.0186,-0.0124,-0.0062,2678,2019-08-07 16:16:35:768
5.7381,-7.7643,1.392,-0.3281,-0.2616,-0.0135,0.0091,-0.0252,-0.0104,2683,2019-08-07 16:16:35:773
5.7381,-7.7643,1.392,-0.3281,-0.2616,-0.0135,0.0091,-0.0252,-0.0104,2688,2019-08-07 16:16:35:778
5.7381,-7.7643,1.392,-0.3281,-0.2616,-0.0135,-0.0059,-0.0284,-0.0381,2693,2019-08-07 16:16:35:783
5.805,-7.7117,1.4862,-0.3281,-0.2616,-0.0135,-0.0059,-0.0284,-0.0381,2698,2019-08-07 16:16:35:788
5.805,-7.7117,1.4862,-0.2112,-0.2863,-0.1069,-0.0059,-0.0284,-0.0381,2703,2019-08-07 16:16:35:793
5.7285,-7.7213,1.425,-0.2112,-0.2863,-0.1069,-0.0069,-0.0582,-0.0488,2708,2019-08-07 16:16:35:798
5.7285,-7.7213,1.425,-0.2112,-0.2863,-0.1069,-0.0069,-0.0859,-0.0403,2714,2019-08-07 16:16:35:804
5.7285,-7.7213,1.425,-0.2112,-0.2863,-0.1069,-0.0069,-0.0859,-0.0403,2718,2019-08-07 16:16:35:808
6.0107,-7.8693,1.4721,-0.5218,-0.1427,-0.0879,-0.0069,-0.0859,-0.0403,2723,2019-08-07 16:16:35:813
6.0107,-7.8693,1.4721,-0.5218,-0.1427,-0.0879,-0.0016,-0.0848,-0.0413,2728,2019-08-07 16:16:35:818
6.0681,-7.7642,1.4155,-0.5218,-0.1427,-0.0879,0.0165,-0.0539,-0.0456,2734,2019-08-07 16:16:35:824
6.0681,-7.7642,1.4155,-0.5218,-0.1427,-0.0879,0.0165,-0.0539,-0.0456,2738,2019-08-07 16:16:35:828
6.0681,-7.7642,1.4155,-0.5599,-0.2946,0.0098,0.0165,-0.0539,-0.0456,2743,2019-08-07 16:16:35:833
6.0681,-7.7356,1.3259,-0.5599,-0.2946,0.0098,0.0133,-0.0262,-0.0328,2748,2019-08-07 16:16:35:838
6.0681,-7.7356,1.3259,-0.5599,-0.2946,0.0098,0.0133,-0.0262,-0.0328,2753,2019-08-07 16:16:35:843
6.135,-7.7404,1.3731,-0.5599,-0.2946,0.0098,0.0069,-0.006,-0.0285,2758,2019-08-07 16:16:35:848
6.135,-7.7404,1.3731,-0.6299,-0.1661,-0.0046,0.0069,-0.006,-0.0285,2764,2019-08-07 16:16:35:854
6.135,-7.7404,1.3731,-0.6299,-0.1661,-0.0046,0.0069,-0.006,-0.0285,2768,2019-08-07 16:16:35:858
6.025,-7.7356,1.4249,-0.6299,-0.1661,-0.0046,0.0037,0.0377,-0.0339,2773,2019-08-07 16:16:35:863
6.025,-7.7356,1.4249,-0.6299,-0.1661,-0.0046,0.0037,0.0377,-0.0339,2778,2019-08-07 16:16:35:868
6.025,-7.7356,1.4249,-0.4288,-0.2098,-0.0949,0.0037,0.027,-0.02,2783,2019-08-07 16:16:35:873
5.8718,-7.7642,1.4296,-0.4288,-0.2098,-0.0949,0.0037,0.027,-0.02,2787,2019-08-07 16:16:35:877
5.8718,-7.7642,1.4296,-0.404,-0.1803,-0.1031,0.0016,0.0185,-0.0051,2793,2019-08-07 16:16:35:883
5.934,-7.874,1.5333,-0.404,-0.1803,-0.1031,0.0016,0.0185,-0.0051,2798,2019-08-07 16:16:35:888
5.934,-7.874,1.5333,-0.404,-0.1803,-0.1031,-0.0037,-0.0049,0.0013,2803,2019-08-07 16:16:35:893
5.934,-7.874,1.5333,-0.404,-0.1803,-0.1031,-0.0037,-0.0049,0.0013,2807,2019-08-07 16:16:35:897
5.8431,-7.7881,1.4815,-0.3746,-0.199,-0.0041,-0.008,-0.0092,0.0087,2813,2019-08-07 16:16:35:903
5.8431,-7.7881,1.4815,-0.3746,-0.199,-0.0041,-0.008,-0.0092,0.0087,2818,2019-08-07 16:16:35:908
5.8478,-7.7786,1.406,-0.3746,-0.199,-0.0041,-0.008,-0.0092,0.0087,2823,2019-08-07 16:16:35:913
5.8478,-7.7786,1.406,-0.3746,-0.199,-0.0041,-0.024,-0.0135,0.0279,2828,2019-08-07 16:16:35:918
5.91,-7.9313,1.4862,-0.401,-0.0678,-0.1076,-0.024,-0.0135,0.0279,2833,2019-08-07 16:16:35:923
5.91,-7.9313,1.4862,-0.401,-0.0678,-0.1076,-0.0346,0.011,0.0311,2837,2019-08-07 16:16:35:927
5.91,-7.9313,1.4862,-0.401,-0.0678,-0.1076,-0.0346,0.011,0.0311,2843,2019-08-07 16:16:35:933
5.8956,-7.8645,1.4155,-0.401,-0.0678,-0.1076,-0.0453,0.0196,0.0311,2849,2019-08-07 16:16:35:939
5.8956,-7.8645,1.4155,-0.4727,-0.1674,-0.0087,-0.0453,0.0196,0.0311,2853,2019-08-07 16:16:35:943
5.9434,-7.8167,1.4107,-0.4727,-0.1674,-0.0087,-0.0453,0.0196,0.0311,2858,2019-08-07 16:16:35:948
5.9434,-7.8167,1.4107,-0.4727,-0.1674,-0.0087,-0.0517,0.0355,0.0247,2864,2019-08-07 16:16:35:954
5.9434,-7.8167,1.4107,-0.4727,-0.1674,-0.0087,-0.0517,0.0355,0.0247,2867,2019-08-07 16:16:35:957
5.886,-7.9074,1.307,-0.4727,-0.1674,-0.0087,-0.0463,0.0664,0.0226,2873,2019-08-07 16:16:35:963
5.886,-7.9074,1.307,-0.4005,-0.0564,0.0874,-0.0463,0.0664,0.0226,2878,2019-08-07 16:16:35:968
5.886,-7.9504,1.2882,-0.4005,-0.0564,0.0874,-0.0506,0.0877,0.0162,2883,2019-08-07 16:16:35:973
5.886,-7.9504,1.2882,-0.4005,-0.0564,0.0874,-0.0506,0.0877,0.0162,2888,2019-08-07 16:16:35:978
5.886,-7.9504,1.2882,-0.4005,-0.0564,0.0874,-0.0474,0.0899,0.0024,2893,2019-08-07 16:16:35:983
5.6611,-8.0172,1.4484,-0.1654,0.0079,-0.0761,-0.0474,0.0899,0.0024,2898,2019-08-07 16:16:35:988
5.6611,-8.0172,1.4484,-0.1654,0.0079,-0.0761,-0.0154,0.0718,0.0013,2903,2019-08-07 16:16:35:993
5.6037,-7.9981,1.5144,-0.1654,0.0079,-0.0761,-0.0154,0.0718,0.0013,2908,2019-08-07 16:16:35:998
5.6037,-7.9981,1.5144,-0.0859,-0.0453,-0.0675,-0.0059,0.0206,0.0024,2913,2019-08-07 16:16:36:003
5.6037,-7.9981,1.5144,-0.0859,-0.0453,-0.0675,-0.0059,0.0206,0.0024,2918,2019-08-07 16:16:36:008
5.6754,-7.8549,1.4626,-0.0859,-0.0453,-0.0675,-0.0059,0.0206,0.0024,2923,2019-08-07 16:16:36:013
5.6754,-7.8549,1.4626,-0.0859,-0.0453,-0.0675,-0.0101,-0.0518,0.0013,2928,2019-08-07 16:16:36:018
5.6754,-7.8549,1.4626,-0.0859,-0.0453,-0.0675,-0.0101,-0.0518,0.0013,2933,2019-08-07 16:16:36:023
5.8715,-7.8072,1.5144,-0.3762,-0.2027,-0.1435,0.0027,-0.0731,0.0034,2937,2019-08-07 16:16:36:027
5.8715,-7.8072,1.5144,-0.3762,-0.2027,-0.1435,0.0027,-0.0731,0.0034,2943,2019-08-07 16:16:36:033
6.0724,-7.7594,1.3117,-0.3762,-0.2027,-0.1435,0.0048,-0.0593,0.0024,2948,2019-08-07 16:16:36:038
6.0724,-7.7594,1.3117,-0.3762,-0.2027,-0.1435,0.0048,-0.0593,0.0024,2952,2019-08-07 16:16:36:042
6.0724,-7.7594,1.3117,-0.6128,-0.2403,6.0E-4,0.0037,-0.0166,0.013,2958,2019-08-07 16:16:36:048
6.1442,-7.7499,1.3353,-0.6128,-0.2403,6.0E-4,0.0037,-0.0166,0.013,2964,2019-08-07 16:16:36:054
6.1442,-7.7499,1.3353,-0.6128,-0.2403,6.0E-4,0.0037,-0.0166,0.013,2968,2019-08-07 16:16:36:058
6.1442,-7.7499,1.3353,-0.6128,-0.2403,6.0E-4,0.008,0.043,0.0205,2973,2019-08-07 16:16:36:063
6.0484,-7.7737,1.3258,-0.571,-0.1788,0.0449,0.008,0.043,0.0205,2978,2019-08-07 16:16:36:068
6.0484,-7.7737,1.3258,-0.571,-0.1788,0.0449,0.0059,0.076,0.0237,2983,2019-08-07 16:16:36:073
5.7709,-7.8072,1.4107,-0.571,-0.1788,0.0449,0.0059,0.076,0.0237,2987,2019-08-07 16:16:36:077
5.7709,-7.8072,1.4107,-0.571,-0.1788,0.0449,-0.0112,0.026,0.03,2993,2019-08-07 16:16:36:083
5.7709,-7.8072,1.4107,0.6968,-0.2484,0.7272,-0.0112,0.026,0.03,2998,2019-08-07 16:16:36:088
4.5605,-7.8788,1.505,0.6968,-0.2484,0.7272,-0.2519,-0.5013,0.0407,3002,2019-08-07 16:16:36:092
4.5605,-7.8788,1.505,0.6968,-0.2484,0.7272,-0.2519,-0.5013,0.0407,3008,2019-08-07 16:16:36:098
4.5605,-7.8788,1.505,0.6968,-0.2484,0.7272,-0.2519,-0.5013,0.0407,3012,2019-08-07 16:16:36:102
4.8954,-8.0172,2.2497,0.3047,0.0612,-0.6471,-0.1507,-0.5045,0.0332,3018,2019-08-07 16:16:36:108
4.8954,-8.0172,2.2497,0.3047,0.0612,-0.6471,-0.1507,-0.5045,0.0332,3023,2019-08-07 16:16:36:113
4.8954,-8.0172,2.2497,0.3047,0.0612,-0.6471,0.0772,-0.4683,-0.003,3028,2019-08-07 16:16:36:118
6.1631,-8.0984,0.7837,0.3047,0.0612,-0.6471,0.0772,-0.4683,-0.003,3033,2019-08-07 16:16:36:123
6.1631,-8.0984,0.7837,-0.8119,-0.1485,0.4419,0.1017,-0.3149,-0.0317,3037,2019-08-07 16:16:36:127
6.5363,-7.6257,0.7884,-0.8119,-0.1485,0.4419,0.1017,-0.3149,-0.0317,3043,2019-08-07 16:16:36:133
6.5363,-7.6257,0.7884,-0.8119,-0.1485,0.4419,0.1017,-0.3149,-0.0317,3047,2019-08-07 16:16:36:137
6.5363,-7.6257,0.7884,-0.8119,-0.1485,0.4419,0.1017,-0.087,-0.02,3053,2019-08-07 16:16:36:143
6.9429,-7.4539,0.9581,-1.4228,-0.5615,0.274,0.1177,0.2731,-0.0126,3058,2019-08-07 16:16:36:148
6.9429,-7.4539,0.9581,-1.4228,-0.5615,0.274,0.1177,0.2731,-0.0126,3062,2019-08-07 16:16:36:152
7.2682,-7.5637,1.2692,-1.4228,-0.5615,0.274,0.187,0.6619,-0.0232,3068,2019-08-07 16:16:36:158
7.2682,-7.5637,1.2692,-1.4228,-0.5615,0.274,0.187,0.6619,-0.0232,3072,2019-08-07 16:16:36:162
7.2682,-7.5637,1.2692,-1.0125,-0.4387,0.8847,0.187,0.6619,-0.0232,3078,2019-08-07 16:16:36:168
5.7946,-7.5589,0.6706,-1.0125,-0.4387,0.8847,0.008,0.5384,-0.0094,3083,2019-08-07 16:16:36:173
5.7946,-7.5589,0.6706,-1.0125,-0.4387,0.8847,0.008,0.5384,-0.0094,3087,2019-08-07 16:16:36:177
5.1966,-7.8167,2.5608,-1.0125,-0.4387,0.8847,-0.1071,0.4936,0.0215,3093,2019-08-07 16:16:36:183
5.1966,-7.8167,2.5608,0.3648,-0.0588,-1.2202,-0.1071,0.4936,0.0215,3097,2019-08-07 16:16:36:187
5.1966,-7.8167,2.5608,0.3648,-0.0588,-1.2202,-0.0474,0.2252,0.0258,3103,2019-08-07 16:16:36:193
4.9908,-8.1508,2.1978,0.3648,-0.0588,-1.2202,-0.0474,0.2252,0.0258,3108,2019-08-07 16:16:36:198
4.9908,-8.1508,2.1978,0.3648,-0.0588,-1.2202,-0.0027,-0.0049,0.0215,3113,2019-08-07 16:16:36:203
4.9908,-8.1508,2.1978,0.375,0.0661,-0.3493,-0.0027,-0.0049,0.0215,3118,2019-08-07 16:16:36:208
5.3448,-7.9885,1.6275,0.375,0.0661,-0.3493,-0.0027,-0.0049,0.0215,3123,2019-08-07 16:16:36:213