ACCELEROMETER X (m/s²),ACCELEROMETER Y (m/s²),ACCELEROMETER Z (m/s²),LINEAR ACCELERATION X (m/s²),LINEAR ACCELERATION Y (m/s²),LINEAR ACCELERATION Z (m/s²),GYROSCOPE X (rad/s),GYROSCOPE Y (rad/s),GYROSCOPE Z (rad/s),Time since start in ms ,YYYY-MO-DD HH-MI-SS_SSS
3.9059,-8.5786,2.6849,-0.0709,-0.2443,-0.151,0.0443,0.0854,-0.0326,2,2019-08-07 16:14:21:919
3.9059,-8.5786,2.6849,-0.0709,-0.2443,-0.151,0.0272,0.0811,-0.0305,8,2019-08-07 16:14:21:925
3.9059,-8.5786,2.6849,-0.0404,0.0185,-0.1411,0.0272,0.0811,-0.0305,12,2019-08-07 16:14:21:929
3.8389,-8.7696,2.6566,-0.0404,0.0185,-0.1411,0.0081,0.0758,-0.0369,18,2019-08-07 16:14:21:935
3.8389,-8.7696,2.6566,-0.0404,0.0185,-0.1411,0.0081,0.0758,-0.0369,22,2019-08-07 16:14:21:939
3.8963,-8.9367,2.6095,-0.0404,0.0185,-0.1411,0.0017,0.0886,-0.0476,28,2019-08-07 16:14:21:945
3.8963,-8.9367,2.6095,-0.024,0.2749,-0.0717,0.0017,0.0886,-0.0476,33,2019-08-07 16:14:21:950
3.8437,-9.0226,2.6378,-0.024,0.2749,-0.0717,0.0113,0.1227,-0.055,38,2019-08-07 16:14:21:955
3.8437,-9.0226,2.6378,-0.024,0.2749,-0.0717,0.0113,0.1227,-0.055,43,2019-08-07 16:14:21:960
3.8437,-9.0226,2.6378,-0.024,0.2749,-0.0717,0.0347,0.1589,-0.0667,48,2019-08-07 16:14:21:965
3.6284,-9.0035,2.6048,0.1167,0.3753,-0.0108,0.0347,0.1589,-0.0667,53,2019-08-07 16:14:21:970
3.6284,-9.0035,2.6048,0.1167,0.3753,-0.0108,0.0581,0.1887,-0.0784,57,2019-08-07 16:14:21:974
3.6284,-9.0035,2.6048,0.1167,0.3753,-0.0108,0.0581,0.1887,-0.0784,63,2019-08-07 16:14:21:980
3.5614,-8.951,2.5718,0.1167,0.3753,-0.0108,0.0848,0.2004,-0.0912,68,2019-08-07 16:14:21:985
3.5614,-8.951,2.5718,0.4294,0.3316,-0.1444,0.0848,0.2004,-0.0912,73,2019-08-07 16:14:21:990
3.2744,-8.994,2.7745,0.4294,0.3316,-0.1444,0.1167,0.1972,-0.0934,78,2019-08-07 16:14:21:995
3.2744,-8.994,2.7745,0.6787,0.3993,-0.2253,0.1167,0.1972,-0.0934,83,2019-08-07 16:14:22:000
3.2744,-8.994,2.7745,0.6787,0.3993,-0.2253,0.1476,0.1685,-0.088,88,2019-08-07 16:14:22:005
2.9921,-9.1229,2.8357,0.6787,0.3993,-0.2253,0.1476,0.1685,-0.088,93,2019-08-07 16:14:22:010
2.9921,-9.1229,2.8357,0.6787,0.3993,-0.2253,0.1817,0.1387,-0.0891,98,2019-08-07 16:14:22:015
2.7098,-9.4045,2.8593,1.1041,0.7413,-0.2023,0.1817,0.1387,-0.0891,102,2019-08-07 16:14:22:019
2.7098,-9.4045,2.8593,1.1041,0.7413,-0.2023,0.2051,0.1206,-0.0998,108,2019-08-07 16:14:22:025
2.7098,-9.4045,2.8593,1.1041,0.7413,-0.2023,0.2051,0.1206,-0.0998,113,2019-08-07 16:14:22:030
2.4802,-9.7673,2.7226,1.1041,0.7413,-0.2023,0.2051,0.1206,-0.0998,118,2019-08-07 16:14:22:035
2.4802,-9.7673,2.7226,1.5437,1.3088,-0.0535,0.2232,0.1067,-0.1093,123,2019-08-07 16:14:22:040
2.0831,-10.2495,2.831,1.5437,1.3088,-0.0535,0.2232,0.1067,-0.1093,128,2019-08-07 16:14:22:045
2.0831,-10.2495,2.831,1.5437,1.3088,-0.0535,0.2627,0.0971,-0.1253,133,2019-08-07 16:14:22:050
2.0831,-10.2495,2.831,1.5437,1.3088,-0.0535,0.2627,0.0971,-0.1253,138,2019-08-07 16:14:22:055
1.6142,-10.9083,3.2081,2.2512,2.323,-0.4533,0.3298,0.079,-0.1349,143,2019-08-07 16:14:22:060
1.6142,-10.9083,3.2081,2.2512,2.323,-0.4533,0.3298,0.079,-0.1349,147,2019-08-07 16:14:22:064
1.6142,-10.9083,3.2081,2.2512,2.323,-0.4533,0.432,0.0705,-0.1179,153,2019-08-07 16:14:22:070
0.7722,-12.2163,3.6512,2.2512,2.323,-0.4533,0.432,0.0705,-0.1179,158,2019-08-07 16:14:22:075
0.7722,-12.2163,3.6512,3.4302,4.251,-0.8856,0.6323,0.2036,-0.071,163,2019-08-07 16:14:22:080
0.7722,-12.2163,3.6512,3.4302,4.251,-0.8856,0.6323,0.2036,-0.071,168,2019-08-07 16:14:22:085
-0.3282,-14.0399,3.7974,3.4302,4.251,-0.8856,0.6323,0.2036,-0.071,173,2019-08-07 16:14:22:090
-0.3282,-14.0399,3.7974,3.4302,4.251,-0.8856,0.8752,0.503,-0.0476,178,2019-08-07 16:14:22:095
-0.3282,-14.0399,3.7974,5.1424,6.5415,-0.8937,0.8752,0.503,-0.0476,182,2019-08-07 16:14:22:099
-1.5865,-15.2429,3.7361,5.1424,6.5415,-0.8937,1.2182,0.9845,-0.0422,188,2019-08-07 16:14:22:105
-1.5865,-15.2429,3.7361,5.1424,6.5415,-0.8937,1.2182,0.9845,-0.0422,194,2019-08-07 16:14:22:111
-2.4763,-16.317,3.6795,5.1424,6.5415,-0.8937,1.5378,1.5384,-0.1008,197,2019-08-07 16:14:22:114
-2.4763,-16.317,3.6795,6.0977,8.3525,-0.2359,1.5378,1.5384,-0.1008,203,2019-08-07 16:14:22:120
-2.4811,-16.9901,2.8782,6.0977,8.3525,-0.2359,1.8904,2.3384,-0.3746,209,2019-08-07 16:14:22:126
-2.4811,-16.9901,2.8782,6.0977,8.3525,-0.2359,1.8904,2.3384,-0.3746,213,2019-08-07 16:14:22:130
-2.4811,-16.9901,2.8782,6.0977,8.3525,-0.2359,1.8904,2.3384,-0.3746,218,2019-08-07 16:14:22:135
-2.2946,-17.7396,1.3792,5.8657,9.4346,2.4301,2.0342,3.3195,-0.7815,223,2019-08-07 16:14:22:140
-2.2946,-17.7396,1.3792,5.8657,9.4346,2.4301,2.0342,3.3195,-0.7815,227,2019-08-07 16:14:22:144
-2.2946,-17.7396,1.3792,5.8657,9.4346,2.4301,2.063,4.127,-1.0702,233,2019-08-07 16:14:22:150
-3.2036,-17.6584,0.9502,5.8657,9.4346,2.4301,2.063,4.127,-1.0702,238,2019-08-07 16:14:22:155
-3.2036,-17.6584,0.9502,7.6384,9.8661,4.2308,2.0853,4.8578,-1.1629,243,2019-08-07 16:14:22:160
-5.2129,-18.4413,-0.6336,7.6384,9.8661,4.2308,2.0853,4.8578,-1.1629,247,2019-08-07 16:14:22:164
-5.2129,-18.4413,-0.6336,7.6384,9.8661,4.2308,2.1237,5.596,-1.0862,253,2019-08-07 16:14:22:170
-5.2129,-18.4413,-0.6336,7.6384,9.8661,4.2308,2.1237,5.596,-1.0862,258,2019-08-07 16:14:22:175
-7.6099,-20.7853,-1.4585,10.9588,13.4343,7.125,2.1237,5.596,-1.0862,263,2019-08-07 16:14:22:180
-7.6099,-20.7853,-1.4585,10.9588,13.4343,7.125,2.2334,6.3705,-0.7815,267,2019-08-07 16:14:22:184
-8.0787,-24.4325,-4.1878,10.9588,13.4343,7.125,2.2334,6.3705,-0.7815,273,2019-08-07 16:14:22:190
-8.0787,-24.4325,-4.1878,10.9588,13.4343,7.125,2.3612,6.8828,-0.6484,277,2019-08-07 16:14:22:194
-8.0787,-24.4325,-4.1878,11.2042,21.7756,12.2787,2.3612,6.8828,-0.6484,283,2019-08-07 16:14:22:200
-9.27,-30.4427,-6.5589,11.2042,21.7756,12.2787,2.5338,7.6616,-0.8135,287,2019-08-07 16:14:22:204
-9.27,-30.4427,-6.5589,12.1235,25.0603,11.2116,2.5338,7.6616,-0.8135,293,2019-08-07 16:14:22:210
-10.9684,-32.2568,-3.1838,12.1235,25.0603,11.2116,2.9833,8.6182,-1.1501,298,2019-08-07 16:14:22:215
-10.9684,-32.2568,-3.1838,12.1235,25.0603,11.2116,2.9833,8.6182,-1.1501,303,2019-08-07 16:14:22:220
-10.9684,-32.2568,-3.1838,12.1235,25.0603,11.2116,4.267,8.8887,-1.54,309,2019-08-07 16:14:22:226
-10.4661,-28.285,2.7415,10.7931,20.639,3.2664,4.267,8.8887,-1.54,312,2019-08-07 16:14:22:229
-10.4661,-28.285,2.7415,10.7931,20.639,3.2664,5.6145,7.8011,-1.8297,318,2019-08-07 16:14:22:235
-10.4661,-28.285,2.7415,10.7931,20.639,3.2664,5.6145,7.8011,-1.8297,323,2019-08-07 16:14:22:240
-6.0406,-25.182,5.1785,6.4781,18.6039,2.0861,5.6145,7.8011,-1.8297,328,2019-08-07 16:14:22:245
-6.0406,-25.182,5.1785,6.4781,18.6039,2.0861,6.7736,6.1233,-2.3315,333,2019-08-07 16:14:22:250
-6.0406,-25.182,5.1785,6.4781,18.6039,2.0861,6.7736,6.1233,-2.3315,337,2019-08-07 16:14:22:254
-0.5866,-20.3031,-0.7703,-0.5731,12.9,13.3156,7.7483,5.6152,-3.3733,343,2019-08-07 16:14:22:260
-0.5866,-20.3031,-0.7703,-0.5731,12.9,13.3156,7.7483,5.6152,-3.3733,348,2019-08-07 16:14:22:265
1.8629,-13.2045,-0.5676,-0.5731,12.9,13.3156,7.7483,5.6152,-3.3733,352,2019-08-07 16:14:22:269
1.8629,-13.2045,-0.5676,-0.5731,12.9,13.3156,8.2511,6.3012,-4.3832,358,2019-08-07 16:14:22:275
-0.3618,-5.8241,-3.5515,-0.4433,1.6245,12.3805,9.2173,5.9752,-4.8594,363,2019-08-07 16:14:22:280
-0.3618,-5.8241,-3.5515,-0.4433,1.6245,12.3805,9.2173,5.9752,-4.8594,368,2019-08-07 16:14:22:285
-0.3618,-5.8241,-3.5515,-0.4433,1.6245,12.3805,9.2173,5.9752,-4.8594,373,2019-08-07 16:14:22:290
-7.9591,5.5614,-10.099,-0.4433,1.6245,12.3805,10.3092,6.2139,-4.6836,378,2019-08-07 16:14:22:295
-7.9591,5.5614,-10.099,-0.4433,1.6245,12.3805,10.3092,6.2139,-4.6836,383,2019-08-07 16:14:22:300
-7.9591,5.5614,-10.099,1.5088,-15.6382,18.6154,12.5036,7.4826,-4.0221,387,2019-08-07 16:14:22:304
-1.931,23.363,-7.0727,1.5088,-15.6382,18.6154,12.5036,7.4826,-4.0221,393,2019-08-07 16:14:22:310
-1.931,23.363,-7.0727,1.5088,-15.6382,18.6154,17.6158,5.9539,-3.613,398,2019-08-07 16:14:22:315
-32.1961,127.8333,54.928,1.5088,-15.6382,18.6154,17.6158,5.9539,-3.613,403,2019-08-07 16:14:22:320
-32.1961,127.8333,54.928,25.7654,-139.2467,49.3506,17.6158,5.9539,-3.613,408,2019-08-07 16:14:22:325
-32.1961,127.8333,54.928,25.7654,-139.2467,49.3506,9.083,-7.6708,-2.4263,414,2019-08-07 16:14:22:331
-9.404,48.7359,-50.9583,25.7654,-139.2467,49.3506,9.083,-7.6708,-2.4263,418,2019-08-07 16:14:22:335
-9.404,48.7359,-50.9583,25.7654,-139.2467,49.3506,5.2822,-5.4795,-2.9547,423,2019-08-07 16:14:22:340
4.0588,32.9059,-43.1475,-2.2795,-32.5571,68.9355,5.2822,-5.4795,-2.9547,428,2019-08-07 16:14:22:345
4.0588,32.9059,-43.1475,-2.2795,-32.5571,68.9355,-5.2032,-1.3932,-0.9754,432,2019-08-07 16:14:22:349
4.0588,32.9059,-43.1475,-2.2795,-32.5571,68.9355,-5.2032,-1.3932,-0.9754,438,2019-08-07 16:14:22:355
18.8996,11.1563,-7.4875,-2.2795,-32.5571,68.9355,-7.2826,0.0939,-1.4303,442,2019-08-07 16:14:22:359
18.8996,11.1563,-7.4875,-8.8908,-16.3056,-3.2012,-7.2826,0.0939,-1.4303,449,2019-08-07 16:14:22:366
18.8996,11.1563,-7.4875,-8.8908,-16.3056,-3.2012,-8.3628,-5.1877,0.1921,452,2019-08-07 16:14:22:369
-2.7013,17.5485,28.0829,-8.8908,-16.3056,-3.2012,-8.3628,-5.1877,0.1921,458,2019-08-07 16:14:22:375
-2.7013,17.5485,28.0829,-8.8908,-16.3056,-3.2012,-5.2064,-5.3783,3.112,463,2019-08-07 16:14:22:380
-2.7013,17.5485,28.0829,5.7368,-13.5602,-7.5094,-5.2064,-5.3783,3.112,468,2019-08-07 16:14:22:385
-4.4284,13.2664,12.4849,5.7368,-13.5602,-7.5094,-5.2064,-5.3783,3.112,473,2019-08-07 16:14:22:390
-4.4284,13.2664,12.4849,5.7368,-13.5602,-7.5094,-1.9094,-3.7101,5.4609,478,2019-08-07 16:14:22:395
8.6373,19.0809,11.6458,5.7368,-13.5602,-7.5094,-1.9094,-3.7101,5.4609,483,2019-08-07 16:14:22:400
8.6373,19.0809,11.6458,-9.9847,-24.763,-3.0305,-1.1158,-2.1005,5.9296,487,2019-08-07 16:14:22:404
8.6373,19.0809,11.6458,-9.9847,-24.763,-3.0305,-1.1158,-2.1005,5.9296,493,2019-08-07 16:14:22:410
12.5269,37.6033,-4.6168,-9.9847,-24.763,-3.0305,-2.1981,-3.5312,5.2138,497,2019-08-07 16:14:22:414
12.5269,37.6033,-4.6168,-9.9847,-24.763,-3.0305,-2.1981,-3.5312,5.2138,504,2019-08-07 16:14:22:421
12.5269,37.6033,-4.6168,-7.6444,-33.6109,32.6578,-2.1981,-3.5312,5.2138,508,2019-08-07 16:14:22:425
6.183,29.4592,-24.8202,-7.6444,-33.6109,32.6578,-4.955,-1.0992,3.0651,513,2019-08-07 16:14:22:430
6.183,29.4592,-24.8202,-7.6444,-33.6109,32.6578,-4.955,-1.0992,3.0651,518,2019-08-07 16:14:22:435
6.183,29.4592,-24.8202,-7.6444,-33.6109,32.6578,-4.955,-1.0992,3.0651,523,2019-08-07 16:14:22:440
-1.7732,14.8799,-3.1555,2.4818,-15.0412,8.0719,-10.0523,0.0577,2.9139,528,2019-08-07 16:14:22:445
-1.7732,14.8799,-3.1555,2.4818,-15.0412,8.0719,-10.0523,0.0577,2.9139,533,2019-08-07 16:14:22:450
-1.7732,14.8799,-3.1555,2.4818,-15.0412,8.0719,-11.1112,-2.7205,3.2558,537,2019-08-07 16:14:22:454
1.4323,7.1177,30.1287,2.4818,-15.0412,8.0719,-11.1112,-2.7205,3.2558,543,2019-08-07 16:14:22:460
1.4323,7.1177,30.1287,-1.1155,-5.462,-19.6956,-7.419,-4.0425,2.6199,547,2019-08-07 16:14:22:464
0.3175,-0.6493,19.1031,-1.1155,-5.462,-19.6956,-7.419,-4.0425,2.6199,553,2019-08-07 16:14:22:470
0.3175,-0.6493,19.1031,-1.1155,-5.462,-19.6956,-4.8826,-5.3474,2.0606,558,2019-08-07 16:14:22:475
-0.8594,-4.4254,0.2714,-1.1155,-5.462,-19.6956,-4.8826,-5.3474,2.0606,564,2019-08-07 16:14:22:481
-0.8594,-4.4254,0.2714,2.3289,-0.0026,9.0562,-5.3907,-5.1813,1.9466,568,2019-08-07 16:14:22:485
-0.8594,-4.4254,0.2714,2.3289,-0.0026,9.0562,-5.3907,-5.1813,1.9466,573,2019-08-07 16:14:22:490
-0.8594,-4.4254,0.2714,2.3289,-0.0026,9.0562,-5.3907,-5.1813,1.9466,578,2019-08-07 16:14:22:495
1.3988,-8.3638,-1.567,2.3289,-0.0026,9.0562,-6.5241,-5.6724,1.986,583,2019-08-07 16:14:22:500
1.3988,-8.3638,-1.567,-0.8814,4.5985,0.4832,-6.5241,-5.6724,1.986,587,2019-08-07 16:14:22:504
2.9875,-11.5957,10.1469,-0.8814,4.5985,0.4832,-6.7542,-5.797,1.8689,593,2019-08-07 16:14:22:510
2.9875,-11.5957,10.1469,-0.8814,4.5985,0.4832,-6.7542,-5.797,1.8689,598,2019-08-07 16:14:22:515
2.9875,-11.5957,10.1469,-0.8814,4.5985,0.4832,-5.6698,-4.7339,2.0862,602,2019-08-07 16:14:22:519
0.5715,-19.7064,0.8843,1.8917,13.9305,4.4411,-5.6698,-4.7339,2.0862,608,2019-08-07 16:14:22:525
0.5715,-19.7064,0.8843,1.8917,13.9305,4.4411,-4.8538,-4.3514,2.4643,614,2019-08-07 16:14:22:531
-0.1079,-23.9504,5.3058,1.8917,13.9305,4.4411,-4.8538,-4.3514,2.4643,618,2019-08-07 16:14:22:535
-0.1079,-23.9504,5.3058,1.8917,13.9305,4.4411,-4.8538,-4.3514,2.4643,623,2019-08-07 16:14:22:540
-0.1079,-23.9504,5.3058,4.0292,12.5075,1.435,-3.405,-4.4516,2.7285,628,2019-08-07 16:14:22:545
-1.0982,-19.2386,3.7078,4.0292,12.5075,1.435,-3.405,-4.4516,2.7285,633,2019-08-07 16:14:22:550
-1.0982,-19.2386,3.7078,4.0292,12.5075,1.435,-2.1534,-4.2332,2.4739,637,2019-08-07 16:14:22:554
-1.2322,-15.9733,3.194,4.0292,12.5075,1.435,-2.1534,-4.2332,2.4739,643,2019-08-07 16:14:22:560
-1.2322,-15.9733,3.194,5.4629,6.0373,5.1592,-1.4876,-4.3717,1.9839,648,2019-08-07 16:14:22:565
-1.2322,-15.9733,3.194,5.4629,6.0373,5.1592,-1.4876,-4.3717,1.9839,652,2019-08-07 16:14:22:569
-3.854,-13.1233,0.2715,5.4629,6.0373,5.1592,-1.854,-4.6284,1.7953,658,2019-08-07 16:14:22:575
-3.854,-13.1233,0.2715,5.4629,6.0373,5.1592,-1.854,-4.6284,1.7953,663,2019-08-07 16:14:22:580
-6.6432,-13.6389,3.1893,9.5882,5.1642,0.7784,-2.3536,-5.4124,1.9274,667,2019-08-07 16:14:22:584
-6.6432,-13.6389,3.1893,9.5882,5.1642,0.7784,-2.3536,-5.4124,1.9274,673,2019-08-07 16:14:22:590
-6.6432,-13.6389,3.1893,9.5882,5.1642,0.7784,-2.3536,-5.4124,1.9274,678,2019-08-07 16:14:22:595
-8.5951,-16.3313,3.8728,11.5593,7.6964,-0.283,-2.2727,-6.336,2.1597,683,2019-08-07 16:14:22:600
-8.5951,-16.3313,3.8728,11.5593,7.6964,-0.283,-2.2727,-6.336,2.1597,688,2019-08-07 16:14:22:605
-8.6621,-19.9642,1.3132,11.5593,7.6964,-0.283,-1.8892,-7.2564,2.1107,693,2019-08-07 16:14:22:610
-8.6621,-19.9642,1.3132,10.7443,11.9086,3.7214,-1.8892,-7.2564,2.1107,698,2019-08-07 16:14:22:615
-6.5666,-20.8712,-2.34,10.7443,11.9086,3.7214,-1.4865,-7.2085,1.6473,703,2019-08-07 16:14:22:620
-6.5666,-20.8712,-2.34,10.7443,11.9086,3.7214,-1.4865,-7.2085,1.6473,708,2019-08-07 16:14:22:625
-6.5666,-20.8712,-2.34,10.7443,11.9086,3.7214,-1.4865,-7.2085,1.6473,713,2019-08-07 16:14:22:630
-4.7103,-19.5584,-2.3777,7.4226,10.1646,4.0066,-1.1637,-6.2625,1.0688,718,2019-08-07 16:14:22:635
-4.7103,-19.5584,-2.3777,7.4226,10.1646,4.0066,-1.1637,-6.2625,1.0688,723,2019-08-07 16:14:22:640
-4.7103,-19.5584,-2.3777,7.4226,10.1646,4.0066,-1.1637,-6.2625,1.0688,727,2019-08-07 16:14:22:644
-3.5956,-17.9688,-0.7844,7.4226,10.1646,4.0066,-0.6993,-4.8414,0.8643,733,2019-08-07 16:14:22:650
-3.5956,-17.9688,-0.7844,7.4226,10.1646,4.0066,-0.6993,-4.8414,0.8643,737,2019-08-07 16:14:22:654
-1.7728,-16.7133,1.9779,5.6344,8.0857,0.5951,-0.1645,-3.3842,0.8196,743,2019-08-07 16:14:22:660
-1.7728,-16.7133,1.9779,5.6344,8.0857,0.5951,-0.1645,-3.3842,0.8196,748,2019-08-07 16:14:22:665
-1.7728,-16.7133,1.9779,5.6344,8.0857,0.5951,0.4885,-1.6765,0.5288,753,2019-08-07 16:14:22:670
-0.6389,-14.1593,3.2836,5.6344,8.0857,0.5951,0.4885,-1.6765,0.5288,758,2019-08-07 16:14:22:675
-0.6389,-14.1593,3.2836,3.5087,4.1818,-1.5798,0.6685,-0.6518,0.1453,763,2019-08-07 16:14:22:680
-0.6389,-14.1593,3.2836,3.5087,4.1818,-1.5798,0.6685,-0.6518,0.1453,767,2019-08-07 16:14:22:684
-0.6581,-10.6314,0.5402,3.5087,4.1818,-1.5798,0.4693,0.3006,-0.2563,773,2019-08-07 16:14:22:690
-0.6581,-10.6314,0.5402,3.5087,4.1818,-1.5798,0.4693,0.3006,-0.2563,778,2019-08-07 16:14:22:695
-0.6581,-10.6314,0.5402,3.2457,0.8067,1.1503,0.1125,0.7203,-0.5919,783,2019-08-07 16:14:22:700
-0.0074,-10.0347,0.9644,3.2457,0.8067,1.1503,0.1125,0.7203,-0.5919,787,2019-08-07 16:14:22:704
-0.0074,-10.0347,0.9644,3.2457,0.8067,1.1503,-0.0601,0.7576,-0.7272,793,2019-08-07 16:14:22:710
0.9111,-10.0442,2.5388,3.2457,0.8067,1.1503,-0.0601,0.7576,-0.7272,798,2019-08-07 16:14:22:715
0.9111,-10.0442,2.5388,1.8895,0.8508,-1.1338,0.1093,0.7235,-0.6303,802,2019-08-07 16:14:22:719
0.9111,-10.0442,2.5388,1.8895,0.8508,-1.1338,0.1093,0.7235,-0.6303,809,2019-08-07 16:14:22:726
1.4374,-9.142,3.0621,1.8895,0.8508,-1.1338,0.4395,0.519,-0.3416,812,2019-08-07 16:14:22:729
1.4374,-9.142,3.0621,1.8895,0.8508,-1.1338,0.4395,0.519,-0.3416,818,2019-08-07 16:14:22:735
1.5618,-8.4164,1.1435,1.632,-0.6987,0.5223,0.5002,0.3602,0.0345,823,2019-08-07 16:14:22:740
1.5618,-8.4164,1.1435,1.632,-0.6987,0.5223,0.5002,0.3602,0.0345,827,2019-08-07 16:14:22:744
1.5618,-8.4164,1.1435,1.632,-0.6987,0.5223,0.1753,-0.0403,0.2688,833,2019-08-07 16:14:22:750
2.5426,-8.5834,0.9738,1.632,-0.6987,0.5223,0.1753,-0.0403,0.2688,837,2019-08-07 16:14:22:754
2.5426,-8.5834,0.9738,-0.1546,-0.348,1.0387,-0.2327,-0.3759,0.3061,843,2019-08-07 16:14:22:760
4.0927,-9.1658,0.9126,-0.1546,-0.348,1.0387,-0.2327,-0.3759,0.3061,847,2019-08-07 16:14:22:764
4.0927,-9.1658,0.9126,-0.1546,-0.348,1.0387,-0.4106,-0.3759,0.2166,853,2019-08-07 16:14:22:770
4.0927,-9.1658,0.9126,-0.1546,-0.348,1.0387,-0.4106,-0.3759,0.2166,857,2019-08-07 16:14:22:774
4.9682,-9.9201,1.3698,-1.9725,0.7482,0.4019,-0.3094,-0.0925,0.124,863,2019-08-07 16:14:22:780
4.9682,-9.9201,1.3698,-1.9725,0.7482,0.4019,-0.3094,-0.0925,0.124,868,2019-08-07 16:14:22:785
5.0639,-9.9774,0.9361,-1.9725,0.7482,0.4019,-0.1592,0.324,0.0856,873,2019-08-07 16:14:22:790
5.0639,-9.9774,0.9361,-1.9725,0.7482,0.4019,-0.1592,0.324,0.0856,878,2019-08-07 16:14:22:795
5.0639,-9.9774,0.9361,-1.7177,0.3835,0.7364,-0.1017,0.699,0.1005,883,2019-08-07 16:14:22:800
4.2649,-9.3377,1.2425,-1.7177,0.3835,0.7364,-0.1017,0.699,0.1005,887,2019-08-07 16:14:22:804
4.2649,-9.3377,1.2425,-1.7177,0.3835,0.7364,-0.1017,0.699,0.1005,893,2019-08-07 16:14:22:810
4.2649,-9.3377,1.2425,-1.7177,0.3835,0.7364,-0.1315,0.9525,0.1293,897,2019-08-07 16:14:22:814
3.021,-8.7983,1.9213,0.1158,-0.3809,-0.4728,-0.2369,0.9131,0.124,903,2019-08-07 16:14:22:820
3.021,-8.7983,1.9213,0.1158,-0.3809,-0.4728,-0.2369,0.9131,0.124,908,2019-08-07 16:14:22:825
2.2842,-8.9988,3.3166,0.1158,-0.3809,-0.4728,-0.3094,0.5658,0.0771,913,2019-08-07 16:14:22:830
2.2842,-8.9988,3.3166,0.1158,-0.3809,-0.4728,-0.3094,0.5658,0.0771,918,2019-08-07 16:14:22:835
2.2842,-8.9988,3.3166,0.5236,0.1058,-2.0362,-0.3094,0.5658,0.0771,923,2019-08-07 16:14:22:840
2.5378,-9.3998,3.7408,0.5236,0.1058,-2.0362,-0.2817,0.1962,-0.0018,927,2019-08-07 16:14:22:844
2.5378,-9.3998,3.7408,0.5236,0.1058,-2.0362,-0.2817,0.1962,-0.0018,933,2019-08-07 16:14:22:850
3.3176,-9.1849,3.0243,0.5236,0.1058,-2.0362,-0.2018,-0.0637,-0.0795,938,2019-08-07 16:14:22:855
3.3176,-9.1849,3.0243,-0.794,-0.1122,-0.7505,-0.2018,-0.0637,-0.0795,943,2019-08-07 16:14:22:860
3.3176,-9.1849,3.0243,-0.794,-0.1122,-0.7505,-0.1208,-0.0989,-0.0934,948,2019-08-07 16:14:22:865
4.0735,-8.951,1.9637,-0.794,-0.1122,-0.7505,-0.1208,-0.0989,-0.0934,952,2019-08-07 16:14:22:869
4.0735,-8.951,1.9637,-0.794,-0.1122,-0.7505,-0.0388,0.0705,-0.0966,958,2019-08-07 16:14:22:875
4.0879,-8.9081,1.8742,-1.1638,-0.2972,-0.157,-0.0388,0.0705,-0.0966,963,2019-08-07 16:14:22:880
4.0879,-8.9081,1.8742,-1.1638,-0.2972,-0.157,0.0219,0.2399,-0.1179,968,2019-08-07 16:14:22:885
4.0879,-8.9081,1.8742,-1.1638,-0.2972,-0.157,0.0219,0.2399,-0.1179,973,2019-08-07 16:14:22:890
3.7243,-9.1515,2.0486,-1.1638,-0.2972,-0.157,0.0667,0.3347,-0.1424,979,2019-08-07 16:14:22:896
3.7243,-9.1515,2.0486,-0.641,0.0674,-0.6308,0.0667,0.3347,-0.1424,983,2019-08-07 16:14:22:900
3.5521,-9.2947,2.4257,-0.641,0.0674,-0.6308,0.0667,0.3347,-0.1424,987,2019-08-07 16:14:22:904
3.5521,-9.2947,2.4257,-0.641,0.0674,-0.6308,0.1284,0.3602,-0.1796,993,2019-08-07 16:14:22:910
3.5521,-9.2947,2.4257,-0.641,0.0674,-0.6308,0.1284,0.3602,-0.1796,998,2019-08-07 16:14:22:915
3.3559,-9.0942,2.4304,-0.3497,-0.1492,-0.5423,0.1636,0.3538,-0.1892,1003,2019-08-07 16:14:22:920
3.3559,-9.0942,2.4304,-0.3497,-0.1492,-0.5423,0.1636,0.3538,-0.1892,1008,2019-08-07 16:14:22:925
3.2507,-8.7839,1.926,-0.3497,-0.1492,-0.5423,0.1434,0.3027,-0.1647,1013,2019-08-07 16:14:22:930
3.2507,-8.7839,1.926,-0.3497,-0.1492,-0.5423,0.1434,0.3027,-0.1647,1017,2019-08-07 16:14:22:934
3.2507,-8.7839,1.926,-0.3497,-0.1492,-0.5423,0.0805,0.209,-0.1349,1023,2019-08-07 16:14:22:940
3.5281,-8.8746,1.8648,-0.447,-0.2862,0.0052,0.0805,0.209,-0.1349,1027,2019-08-07 16:14:22:944
3.5281,-8.8746,1.8648,-0.447,-0.2862,0.0052,0.0432,0.144,-0.1189,1033,2019-08-07 16:14:22:950
3.6573,-8.951,1.6809,-0.447,-0.2862,0.0052,0.0432,0.144,-0.1189,1038,2019-08-07 16:14:22:955
3.6573,-8.951,1.6809,-0.7794,-0.2089,0.2386,0.0358,0.1174,-0.103,1043,2019-08-07 16:14:22:960
3.6573,-8.951,1.6809,-0.7794,-0.2089,0.2386,0.0358,0.1174,-0.103,1048,2019-08-07 16:14:22:965
3.8295,-8.889,1.6338,-0.7794,-0.2089,0.2386,0.0283,0.1067,-0.0816,1053,2019-08-07 16:14:22:970
3.8295,-8.889,1.6338,-0.7794,-0.2089,0.2386,0.0283,0.1067,-0.0816,1058,2019-08-07 16:14:22:975
3.7769,-8.7887,1.7799,-0.7337,-0.3536,5.0E-4,0.0379,0.1078,-0.0646,1063,2019-08-07 16:14:22:980
3.7769,-8.7887,1.7799,-0.7337,-0.3536,5.0E-4,0.0379,0.1078,-0.0646,1068,2019-08-07 16:14:22:985
3.7769,-8.7887,1.7799,-0.7337,-0.3536,5.0E-4,0.0379,0.1078,-0.0646,1072,2019-08-07 16:14:22:989
3.8056,-8.5882,1.7893,-0.7337,-0.3536,5.0E-4,0.024,0.0907,-0.0433,1078,2019-08-07 16:14:22:995
3.8056,-8.5882,1.7893,-0.7337,-0.3536,5.0E-4,0.024,0.0907,-0.0433,1082,2019-08-07 16:14:22:999
3.887,-8.5548,1.8553,-0.7937,-0.6054,0.0014,-0.0015,0.0929,-0.0199,1088,2019-08-07 16:14:23:005
3.887,-8.5548,1.8553,-0.7937,-0.6054,0.0014,-0.0015,0.0929,-0.0199,1093,2019-08-07 16:14:23:010
3.887,-8.5548,1.8553,-0.7937,-0.6054,0.0014,-0.0207,0.1291,0.0068,1099,2019-08-07 16:14:23:016
4.1022,-8.6741,1.7092,-0.7937,-0.6054,0.0014,-0.0207,0.1291,0.0068,1102,2019-08-07 16:14:23:019
4.1022,-8.6741,1.7092,-1.0632,-0.4795,0.2079,-0.042,0.1909,0.0206,1108,2019-08-07 16:14:23:025
4.1022,-8.6741,1.7092,-1.0632,-0.4795,0.2079,-0.042,0.1909,0.0206,1113,2019-08-07 16:14:23:030
4.174,-8.7028,1.7233,-1.0558,-0.4034,0.0308,-0.0495,0.2867,0.0313,1117,2019-08-07 16:14:23:034
4.174,-8.7028,1.7233,-1.0558,-0.4034,0.0308,-0.0495,0.2867,0.0313,1123,2019-08-07 16:14:23:040
3.8965,-8.7123,1.9166,-1.0558,-0.4034,0.0308,-0.0335,0.373,0.0419,1127,2019-08-07 16:14:23:044
3.8965,-8.7123,1.9166,-1.0558,-0.4034,0.0308,-0.0335,0.373,0.0419,1134,2019-08-07 16:14:23:051
3.509,-8.593,1.9826,-0.5332,-0.5051,-0.0305,-0.0314,0.3656,0.0473,1138,2019-08-07 16:14:23:055
3.509,-8.593,1.9826,-0.5332,-0.5051,-0.0305,-0.0314,0.3656,0.0473,1143,2019-08-07 16:14:23:060
3.509,-8.593,1.9826,-0.5332,-0.5051,-0.0305,-0.0345,0.2516,0.0355,1149,2019-08-07 16:14:23:066
3.1789,-8.7601,1.959,-0.5332,-0.5051,-0.0305,-0.0345,0.2516,0.0355,1153,2019-08-07 16:14:23:070
3.1789,-8.7601,1.959,-0.1323,-0.2688,-0.2485,-0.0345,0.2516,0.0355,1158,2019-08-07 16:14:23:075
3.1789,-8.7601,1.959,-0.1323,-0.2688,-0.2485,-0.01,0.096,0.0078,1163,2019-08-07 16:14:23:080
3.1071,-8.951,2.3974,-0.1323,-0.2688,-0.2485,-0.01,0.096,0.0078,1168,2019-08-07 16:14:23:085
3.1071,-8.951,2.3974,-0.1323,-0.2688,-0.2485,0.0485,-0.085,-0.0401,1173,2019-08-07 16:14:23:090
3.1071,-8.951,2.3974,-0.2864,-0.1658,-0.1709,0.0485,-0.085,-0.0401,1177,2019-08-07 16:14:23:094
3.3703,-8.8365,2.0344,-0.2864,-0.1658,-0.1709,0.0432,-0.1756,-0.0784,1183,2019-08-07 16:14:23:100
3.3703,-8.8365,2.0344,-0.2864,-0.1658,-0.1709,0.0432,-0.1756,-0.0784,1188,2019-08-07 16:14:23:105
3.7099,-8.6598,1.8553,-0.2864,-0.1658,-0.1709,0.0272,-0.1809,-0.0976,1193,2019-08-07 16:14:23:110
3.7099,-8.6598,1.8553,-0.8329,-0.5107,0.3344,0.0272,-0.1809,-0.0976,1198,2019-08-07 16:14:23:115
3.7099,-8.6598,1.8553,-0.8329,-0.5107,0.3344,0.0017,-0.0691,-0.1051,1203,2019-08-07 16:14:23:120
3.997,-8.5882,1.6102,-0.8329,-0.5107,0.3344,0.0017,-0.0691,-0.1051,1208,2019-08-07 16:14:23:125
3.997,-8.5882,1.6102,-0.8329,-0.5107,0.3344,-0.0132,0.0897,-0.0976,1213,2019-08-07 16:14:23:130
3.8296,-8.5357,1.794,-0.8342,-0.5833,0.2135,-0.0132,0.0897,-0.0976,1218,2019-08-07 16:14:23:135
3.8296,-8.5357,1.794,-0.8342,-0.5833,0.2135,-0.0132,0.0897,-0.0976,1223,2019-08-07 16:14:23:140
3.576,-8.4259,1.9355,-0.8342,-0.5833,0.2135,-0.009,0.2356,-0.1019,1229,2019-08-07 16:14:23:146
3.576,-8.4259,1.9355,-0.8342,-0.5833,0.2135,-0.009,0.2356,-0.1019,1233,2019-08-07 16:14:23:150
3.576,-8.4259,1.9355,-0.2783,-0.7044,-0.0285,-0.0122,0.1962,-0.0816,1238,2019-08-07 16:14:23:155
3.3081,-8.4641,1.992,-0.2783,-0.7044,-0.0285,-0.0122,0.1962,-0.0816,1243,2019-08-07 16:14:23:160
3.3081,-8.4641,1.992,-0.2783,-0.7044,-0.0285,-0.0122,0.1312,-0.0816,1248,2019-08-07 16:14:23:165
3.3081,-8.4641,1.992,-0.2783,-0.7044,-0.0285,-0.0122,0.1312,-0.0816,1253,2019-08-07 16:14:23:170
3.1741,-8.4832,2.1806,-0.0734,-0.6221,-0.2528,-0.0122,-0.0573,-0.0848,1258,2019-08-07 16:14:23:175
3.1741,-8.4832,2.1806,-0.0734,-0.6221,-0.2528,-0.0122,-0.0573,-0.0848,1263,2019-08-07 16:14:23:180
3.1741,-8.4832,2.1806,-0.0734,-0.6221,-0.2528,-0.0122,-0.0573,-0.0848,1267,2019-08-07 16:14:23:184
3.5473,-8.698,2.0486,-0.0734,-0.6221,-0.2528,0.0027,-0.2693,-0.0912,1273,2019-08-07 16:14:23:190
3.5473,-8.698,2.0486,-0.5718,-0.3475,-0.0378,0.0027,-0.2693,-0.0912,1278,2019-08-07 16:14:23:195
3.5473,-8.698,2.0486,-0.5718,-0.3475,-0.0378,0.0283,-0.329,-0.0944,1283,2019-08-07 16:14:23:200
3.9683,-8.7935,1.7799,-0.5718,-0.3475,-0.0378,0.0283,-0.329,-0.0944,1288,2019-08-07 16:14:23:205
3.9683,-8.7935,1.7799,-0.5718,-0.3475,-0.0378,0.0315,-0.2864,-0.0923,1293,2019-08-07 16:14:23:210
4.3845,-8.8269,1.4735,-1.2192,-0.2617,0.4278,0.0315,-0.2864,-0.0923,1298,2019-08-07 16:14:23:215
4.3845,-8.8269,1.4735,-1.2192,-0.2617,0.4278,0.0283,-0.1287,-0.104,1303,2019-08-07 16:14:23:220
4.3845,-8.8269,1.4735,-1.2192,-0.2617,0.4278,0.0283,-0.1287,-0.104,1307,2019-08-07 16:14:23:224
4.3606,-8.8221,1.6055,-1.2192,-0.2617,0.4278,0.0262,0.0236,-0.0987,1313,2019-08-07 16:14:23:230
4.3606,-8.8221,1.6055,-0.9929,-0.2134,0.1003,0.0262,0.0236,-0.0987,1318,2019-08-07 16:14:23:235
4.3606,-8.8221,1.6055,-0.9929,-0.2134,0.1003,0.0262,0.0236,-0.0987,1323,2019-08-07 16:14:23:240
3.9826,-8.8221,1.8648,-0.9929,-0.2134,0.1003,0.04,0.1653,-0.0795,1328,2019-08-07 16:14:23:245
3.9826,-8.8221,1.8648,-0.9929,-0.2134,0.1003,0.04,0.1653,-0.0795,1334,2019-08-07 16:14:23:251
3.5425,-8.6646,1.959,-0.3332,-0.4057,-0.0441,0.0155,0.1738,-0.071,1338,2019-08-07 16:14:23:255
3.5425,-8.6646,1.959,-0.3332,-0.4057,-0.0441,0.0155,0.1738,-0.071,1343,2019-08-07 16:14:23:260
3.5425,-8.6646,1.959,-0.3332,-0.4057,-0.0441,-0.0132,0.1078,-0.0657,1348,2019-08-07 16:14:23:265
3.3081,-8.6694,2.3738,-0.3332,-0.4057,-0.0441,-0.0132,0.1078,-0.0657,1352,2019-08-07 16:14:23:269
3.3081,-8.6694,2.3738,-0.0304,-0.4147,-0.4476,-0.0218,-0.0616,-0.0614,1358,2019-08-07 16:14:23:275
3.3224,-8.7362,2.3927,-0.0304,-0.4147,-0.4476,-0.0218,-0.0616,-0.0614,1363,2019-08-07 16:14:23:280
3.3224,-8.7362,2.3927,-0.0304,-0.4147,-0.4476,-0.0345,-0.2022,-0.0561,1368,2019-08-07 16:14:23:285
3.3224,-8.7362,2.3927,-0.0304,-0.4147,-0.4476,-0.0345,-0.2022,-0.0561,1373,2019-08-07 16:14:23:290
3.5808,-8.6694,2.2796,-0.0304,-0.4147,-0.4476,-0.0345,-0.2022,-0.0561,1378,2019-08-07 16:14:23:295
3.5808,-8.6694,2.2796,-0.4361,-0.3437,-0.3438,-0.0377,-0.3183,-0.0539,1383,2019-08-07 16:14:23:300
4.0305,-8.7123,2.0674,-0.4361,-0.3437,-0.3438,-0.0377,-0.3183,-0.0539,1388,2019-08-07 16:14:23:305
4.0305,-8.7123,2.0674,-0.4361,-0.3437,-0.3438,-0.0441,-0.3439,-0.0369,1393,2019-08-07 16:14:23:310
4.0305,-8.7123,2.0674,-1.2219,-0.1729,0.3665,-0.0441,-0.3439,-0.0369,1398,2019-08-07 16:14:23:315
4.6046,-8.9224,1.5395,-1.2219,-0.1729,0.3665,-0.0729,-0.2491,-0.0401,1402,2019-08-07 16:14:23:319
4.6046,-8.9224,1.5395,-1.2219,-0.1729,0.3665,-0.0729,-0.2491,-0.0401,1408,2019-08-07 16:14:23:325
4.7338,-9.0799,1.4876,-1.2219,-0.1729,0.3665,-0.0814,-0.0808,-0.0433,1413,2019-08-07 16:14:23:330
4.7338,-9.0799,1.4876,-1.4478,0.0877,0.3354,-0.0814,-0.0808,-0.0433,1418,2019-08-07 16:14:23:335
4.7338,-9.0799,1.4876,-1.4478,0.0877,0.3354,-0.0463,0.1514,-0.0273,1423,2019-08-07 16:14:23:340
4.5376,-9.0847,1.5206,-1.4478,0.0877,0.3354,-0.0463,0.1514,-0.0273,1427,2019-08-07 16:14:23:344
4.5376,-9.0847,1.5206,-1.4478,0.0877,0.3354,-0.0196,0.3134,-0.0124,1433,2019-08-07 16:14:23:350
4.5376,-9.0847,1.5206,-1.4478,0.0877,0.3354,-0.0196,0.3134,-0.0124,1438,2019-08-07 16:14:23:355
3.8726,-8.8985,1.6526,-0.581,-0.1537,0.2071,-0.009,0.389,4.0E-4,1444,2019-08-07 16:14:23:361
3.8726,-8.8985,1.6526,-0.581,-0.1537,0.2071,-0.009,0.389,4.0E-4,1448,2019-08-07 16:14:23:365
3.3607,-8.8365,2.1759,-0.581,-0.1537,0.2071,-0.009,0.389,4.0E-4,1453,2019-08-07 16:14:23:370
3.3607,-8.8365,2.1759,-0.581,-0.1537,0.2071,0.007,0.3134,-0.0049,1458,2019-08-07 16:14:23:375
2.9445,-8.8078,2.4446,0.2586,-0.2291,-0.5684,0.007,0.3134,-0.0049,1463,2019-08-07 16:14:23:380
2.9445,-8.8078,2.4446,0.2586,-0.2291,-0.5684,0.0145,0.1046,-0.0028,1467,2019-08-07 16:14:23:384
2.9445,-8.8078,2.4446,0.2586,-0.2291,-0.5684,0.0145,0.1046,-0.0028,1473,2019-08-07 16:14:23:390
2.9445,-8.8078,2.4446,0.2586,-0.2291,-0.5684,0.0145,0.1046,-0.0028,1478,2019-08-07 16:14:23:395
2.9397,-8.7887,2.6284,0.2737,-0.2326,-0.7581,0.0155,-0.1202,-0.0092,1482,2019-08-07 16:14:23:399
2.9397,-8.7887,2.6284,0.2737,-0.2326,-0.7581,0.0155,-0.1202,-0.0092,1488,2019-08-07 16:14:23:405
3.5616,-8.889,2.3314,0.2737,-0.2326,-0.7581,0.0123,-0.3194,-0.0316,1493,2019-08-07 16:14:23:410
3.5616,-8.889,2.3314,0.2737,-0.2326,-0.7581,0.0123,-0.3194,-0.0316,1498,2019-08-07 16:14:23:415
3.5616,-8.889,2.3314,-0.6074,-0.2336,-0.1168,-0.0132,-0.3578,-0.0444,1503,2019-08-07 16:14:23:420
4.0592,-8.8985,1.7705,-0.6074,-0.2336,-0.1168,-0.0132,-0.3578,-0.0444,1508,2019-08-07 16:14:23:425
4.0592,-8.8985,1.7705,-0.6074,-0.2336,-0.1168,-0.0292,-0.2629,-0.0401,1513,2019-08-07 16:14:23:430
4.3941,-8.9797,1.6762,-0.6074,-0.2336,-0.1168,-0.0292,-0.2629,-0.0401,1518,2019-08-07 16:14:23:435
4.3941,-8.9797,1.6762,-1.0648,-0.0624,0.2489,-0.0292,-0.2629,-0.0401,1523,2019-08-07 16:14:23:440
4.418,-8.9988,1.5584,-1.0648,-0.0624,0.2489,-0.0324,-0.1372,-0.0326,1529,2019-08-07 16:14:23:446
4.418,-8.9988,1.5584,-1.0648,-0.0624,0.2489,-0.0324,-0.1372,-0.0326,1533,2019-08-07 16:14:23:450
4.418,-8.9988,1.5584,-1.0648,-0.0624,0.2489,-0.0111,0.0385,-0.0326,1537,2019-08-07 16:14:23:454
4.2458,-8.9367,1.7422,-0.911,-0.1018,0.1073,-0.0111,0.0385,-0.0326,1543,2019-08-07 16:14:23:460
4.2458,-8.9367,1.7422,-0.911,-0.1018,0.1073,0.0219,0.1142,-0.0358,1548,2019-08-07 16:14:23:465
4.2458,-8.9367,1.7422,-0.911,-0.1018,0.1073,0.0219,0.1142,-0.0358,1552,2019-08-07 16:14:23:469
3.9492,-8.7648,2.2089,-0.911,-0.1018,0.1073,0.0464,0.1355,-0.0348,1558,2019-08-07 16:14:23:475
3.9492,-8.7648,2.2089,-0.4685,-0.4159,-0.3396,0.0464,0.1355,-0.0348,1563,2019-08-07 16:14:23:480
3.6908,-8.55,2.1146,-0.4685,-0.4159,-0.3396,0.039,0.0779,-0.0252,1568,2019-08-07 16:14:23:485
3.6908,-8.55,2.1146,-0.4685,-0.4159,-0.3396,0.039,0.0779,-0.0252,1573,2019-08-07 16:14:23:490
3.6908,-8.55,2.1146,-0.4685,-0.4159,-0.3396,0.039,0.0779,-0.0252,1577,2019-08-07 16:14:23:494
3.8056,-8.593,2.2136,-0.453,-0.3875,-0.3283,0.0038,-0.0211,-0.0145,1583,2019-08-07 16:14:23:500
3.8056,-8.593,2.2136,-0.453,-0.3875,-0.3283,0.0038,-0.0211,-0.0145,1588,2019-08-07 16:14:23:505
3.944,-8.6741,2.1805,-0.453,-0.3875,-0.3283,-0.0068,-0.1095,-0.0145,1594,2019-08-07 16:14:23:511
3.944,-8.6741,2.1805,-0.453,-0.3875,-0.3283,-0.0068,-0.1095,-0.0145,1598,2019-08-07 16:14:23:515
3.944,-8.6741,2.1805,-0.6951,-0.2412,-0.1587,0.0049,-0.1351,-0.0028,1603,2019-08-07 16:14:23:520
4.2024,-8.8173,1.7987,-0.6951,-0.2412,-0.1587,0.0049,-0.1351,-0.0028,1608,2019-08-07 16:14:23:525
4.2024,-8.8173,1.7987,-0.6951,-0.2412,-0.1587,0.0038,-0.1053,0.0121,1613,2019-08-07 16:14:23:530
4.2024,-8.8173,1.7987,-0.6951,-0.2412,-0.1587,0.0038,-0.1053,0.0121,1618,2019-08-07 16:14:23:535
4.4081,-8.8603,1.6856,-1.0634,-0.1915,0.192,0.0038,-0.052,0.0196,1623,2019-08-07 16:14:23:540
4.4081,-8.8603,1.6856,-1.0634,-0.1915,0.192,0.0038,-0.052,0.0196,1628,2019-08-07 16:14:23:545
4.3363,-8.7457,1.7138,-1.0634,-0.1915,0.192,0.0059,0.0194,0.0185,1633,2019-08-07 16:14:23:550
4.3363,-8.7457,1.7138,-1.0634,-0.1915,0.192,0.0059,0.0194,0.0185,1638,2019-08-07 16:14:23:555
4.3363,-8.7457,1.7138,-0.8446,-0.2426,0.0884,0.0081,0.0545,0.0227,1643,2019-08-07 16:14:23:560
4.1976,-8.7935,1.86,-0.8446,-0.2426,0.0884,0.0081,0.0545,0.0227,1649,2019-08-07 16:14:23:566
4.1976,-8.7935,1.86,-0.8446,-0.2426,0.0884,0.0081,0.0545,0.0227,1653,2019-08-07 16:14:23:570
4.0445,-8.8173,2.0344,-0.8446,-0.2426,0.0884,0.0059,0.0715,0.0142,1658,2019-08-07 16:14:23:575
4.0445,-8.8173,2.0344,-0.5765,-0.2508,-0.2304,0.0059,0.0715,0.0142,1663,2019-08-07 16:14:23:580
4.0445,-8.8173,2.0344,-0.5765,-0.2508,-0.2304,0.0208,0.0588,-7.0E-4,1668,2019-08-07 16:14:23:585
3.8244,-8.7648,2.0438,-0.5765,-0.2508,-0.2304,0.0208,0.0588,-7.0E-4,1673,2019-08-07 16:14:23:590
3.8244,-8.7648,2.0438,-0.4414,-0.3354,-0.1646,0.0166,0.0215,-0.0103,1677,2019-08-07 16:14:23:594
3.7574,-8.698,1.9354,-0.4414,-0.3354,-0.1646,0.0166,0.0215,-0.0103,1683,2019-08-07 16:14:23:600
3.7574,-8.698,1.9354,-0.4414,-0.3354,-0.1646,0.0059,-0.0115,-0.0167,1688,2019-08-07 16:14:23:605
3.7574,-8.698,1.9354,-0.3788,-0.2944,-0.137,0.0059,-0.0115,-0.0167,1693,2019-08-07 16:14:23:610
3.7048,-8.7839,1.9967,-0.3788,-0.2944,-0.137,0.0091,-0.0371,-0.0252,1698,2019-08-07 16:14:23:615
3.7048,-8.7839,1.9967,-0.3788,-0.2944,-0.137,0.0091,-0.0371,-0.0252,1703,2019-08-07 16:14:23:620
3.7048,-8.7839,1.9967,-0.3788,-0.2944,-0.137,0.0091,-0.0371,-0.0252,1708,2019-08-07 16:14:23:625
3.834,-8.8173,2.0202,-0.4261,-0.2569,-0.0978,0.023,-0.0392,-0.038,1713,2019-08-07 16:14:23:630
3.834,-8.8173,2.0202,-0.4261,-0.2569,-0.0978,0.023,-0.0392,-0.038,1718,2019-08-07 16:14:23:635
3.834,-8.8173,2.0202,-0.4261,-0.2569,-0.0978,0.023,-0.0392,-0.038,1723,2019-08-07 16:14:23:640
3.8483,-8.7171,1.9589,-0.4261,-0.2569,-0.0978,0.0262,-0.0243,-0.0337,1728,2019-08-07 16:14:23:645
3.8483,-8.7171,1.9589,-0.515,-0.3234,-0.0614,0.0262,-0.0243,-0.0337,1733,2019-08-07 16:14:23:650
3.9536,-8.6646,2.0297,-0.515,-0.3234,-0.0614,0.0123,-0.0105,-0.0326,1737,2019-08-07 16:14:23:654
3.9536,-8.6646,2.0297,-0.515,-0.3234,-0.0614,0.0123,-0.0105,-0.0326,1743,2019-08-07 16:14:23:660
3.9536,-8.6646,2.0297,-0.515,-0.3234,-0.0614,0.0017,0.0012,-0.0358,1748,2019-08-07 16:14:23:665
3.8866,-8.5977,2.1522,-0.5043,-0.3953,-0.1915,0.0017,0.0012,-0.0358,1754,2019-08-07 16:14:23:671
3.8866,-8.5977,2.1522,-0.5043,-0.3953,-0.1915,0.0017,0.0012,-0.0358,1758,2019-08-07 16:14:23:675
3.8866,-8.5977,2.1522,-0.5043,-0.3953,-0.1915,-0.0111,-0.0254,-0.0284,1762,2019-08-07 16:14:23:679
3.9775,-8.55,2.0202,-0.5043,-0.3953,-0.1915,-0.0111,-0.0254,-0.0284,1768,2019-08-07 16:14:23:685
3.9775,-8.55,2.0202,-0.5043,-0.3953,-0.1915,-0.0399,-0.0467,-0.0135,1773,2019-08-07 16:14:23:690
3.9775,-8.55,2.0202,-0.6093,-0.3928,-0.1031,-0.0399,-0.0467,-0.0135,1778,2019-08-07 16:14:23:695
4.1306,-8.6073,1.9778,-0.6093,-0.3928,-0.1031,-0.0622,-0.0733,-7.0E-4,1783,2019-08-07 16:14:23:700
4.1306,-8.6073,1.9778,-0.6093,-0.3928,-0.1031,-0.0622,-0.0733,-7.0E-4,1788,2019-08-07 16:14:23:705
4.2119,-8.6741,1.8505,-0.6093,-0.3928,-0.1031,-0.0697,-0.0765,0.0014,1793,2019-08-07 16:14:23:710
4.2119,-8.6741,1.8505,-0.8106,-0.326,-0.0254,-0.0697,-0.0765,0.0014,1798,2019-08-07 16:14:23:715
4.2119,-8.6741,1.8505,-0.8106,-0.326,-0.0254,-0.0633,-0.0616,0.0078,1803,2019-08-07 16:14:23:720
4.2837,-8.6741,1.8741,-0.8106,-0.326,-0.0254,-0.0633,-0.0616,0.0078,1808,2019-08-07 16:14:23:725
4.2837,-8.6741,1.8741,-0.8106,-0.326,-0.0254,-0.0441,-0.0328,0.0121,1813,2019-08-07 16:14:23:730
4.2837,-8.6741,1.8741,-0.9128,-0.3833,0.0116,-0.0441,-0.0328,0.0121,1818,2019-08-07 16:14:23:735
4.3267,-8.6264,1.8175,-0.9128,-0.3833,0.0116,-0.0441,-0.0328,0.0121,1823,2019-08-07 16:14:23:740
4.3267,-8.6264,1.8175,-0.9128,-0.3833,0.0116,-0.0313,0.014,0.0121,1828,2019-08-07 16:14:23:745
4.2836,-8.6359,1.7327,-0.9128,-0.3833,0.0116,-0.0313,0.014,0.0121,1834,2019-08-07 16:14:23:751
4.2836,-8.6359,1.7327,-0.7698,-0.3206,0.1246,-0.0282,0.0801,0.011,1837,2019-08-07 16:14:23:754
4.2836,-8.6359,1.7327,-0.7698,-0.3206,0.1246,-0.0282,0.0801,0.011,1843,2019-08-07 16:14:23:760
4.0396,-8.7075,1.8317,-0.7698,-0.3206,0.1246,-0.0239,0.1248,0.0036,1848,2019-08-07 16:14:23:765
4.0396,-8.7075,1.8317,-0.7698,-0.3206,0.1246,-0.0239,0.1248,0.0036,1853,2019-08-07 16:14:23:770
3.8148,-8.7839,1.9165,-0.416,-0.2388,-0.1308,-0.0164,0.1323,-0.0028,1858,2019-08-07 16:14:23:775
3.8148,-8.7839,1.9165,-0.416,-0.2388,-0.1308,-0.0164,0.1323,-0.0028,1863,2019-08-07 16:14:23:780
3.8148,-8.7839,1.9165,-0.416,-0.2388,-0.1308,-0.0164,0.1323,-0.0028,1868,2019-08-07 16:14:23:785
3.6617,-8.7409,1.9825,-0.416,-0.2388,-0.1308,-0.009,0.0758,-0.0167,1873,2019-08-07 16:14:23:790
3.6617,-8.7409,1.9825,-0.2385,-0.2661,-0.1344,-0.009,0.0758,-0.0167,1878,2019-08-07 16:14:23:795
3.7143,-8.7839,1.9872,-0.2385,-0.2661,-0.1344,-0.0058,0.0119,-0.0337,1883,2019-08-07 16:14:23:800
3.7143,-8.7839,1.9872,-0.2385,-0.2661,-0.1344,-0.0058,0.0119,-0.0337,1888,2019-08-07 16:14:23:805
3.7143,-8.7839,1.9872,-0.2385,-0.2661,-0.1344,0.0081,-0.0424,-0.0603,1893,2019-08-07 16:14:23:810
3.8435,-8.7696,1.9401,-0.3902,-0.2236,-0.0872,0.0081,-0.0424,-0.0603,1898,2019-08-07 16:14:23:815
3.8435,-8.7696,1.9401,-0.3902,-0.2236,-0.0872,0.0177,-0.0723,-0.0646,1903,2019-08-07 16:14:23:820
3.8435,-8.7696,1.9401,-0.3902,-0.2236,-0.0872,0.0177,-0.0723,-0.0646,1908,2019-08-07 16:14:23:825
4.0827,-8.7123,1.9024,-0.3902,-0.2236,-0.0872,0.0177,-0.0829,-0.0657,1913,2019-08-07 16:14:23:830
4.0827,-8.7123,1.9024,-0.677,-0.2691,-0.0701,0.0177,-0.0829,-0.0657,1918,2019-08-07 16:14:23:835
4.0827,-8.7409,1.8128,-0.677,-0.2691,-0.0701,0.0166,-0.0275,-0.0603,1924,2019-08-07 16:14:23:841
4.2358,-8.7409,1.8128,-0.677,-0.2691,-0.0701,0.0166,-0.0275,-0.0603,1928,2019-08-07 16:14:23:845
4.2358,-8.7409,1.8128,-0.677,-0.2691,-0.0701,0.0166,-0.0275,-0.0603,1933,2019-08-07 16:14:23:850
4.2358,-8.7409,1.8128,-0.6882,-0.3146,-0.1259,-0.01,0.0151,-0.0454,1938,2019-08-07 16:14:23:855
4.2358,-8.6836,2.0014,-0.6882,-0.3146,-0.1259,-0.01,0.0151,-0.0454,1942,2019-08-07 16:14:23:859
4.2358,-8.6836,2.0014,-0.6882,-0.3146,-0.1259,-0.0484,0.0343,-0.0273,1948,2019-08-07 16:14:23:865
4.0827,-8.7934,1.8599,-0.6882,-0.3146,-0.1259,-0.0484,0.0343,-0.0273,1953,2019-08-07 16:14:23:870
4.0827,-8.7934,1.8599,-0.5735,-0.1354,7.0E-4,-0.0782,0.0385,-0.0113,1958,2019-08-07 16:14:23:875
4.0827,-8.7934,1.8599,-0.5735,-0.1354,7.0E-4,-0.0782,0.0385,-0.0113,1963,2019-08-07 16:14:23:880
3.9726,-8.9558,1.9259,-0.5735,-0.1354,7.0E-4,-0.0654,0.0321,0.0046,1968,2019-08-07 16:14:23:885
3.9726,-8.9558,1.9259,-0.5735,-0.1354,7.0E-4,-0.0654,0.0321,0.0046,1973,2019-08-07 16:14:23:890
3.9678,-9.0083,1.8694,-0.5042,0.002,0.0055,-0.0303,0.0311,0.0121,1978,2019-08-07 16:14:23:895
3.9678,-9.0083,1.8694,-0.5042,0.002,0.0055,-0.0303,0.0311,0.0121,1983,2019-08-07 16:14:23:900
3.9678,-9.0083,1.8694,-0.5042,0.002,0.0055,-0.0303,0.0311,0.0121,1988,2019-08-07 16:14:23:905
3.8626,-8.951,1.8647,-0.5042,0.002,0.0055,0.0059,0.0151,0.0121,1993,2019-08-07 16:14:23:910
3.8626,-8.951,1.8647,-0.3703,-0.0983,0.0241,0.0283,2.0E-4,0.0153,1998,2019-08-07 16:14:23:915
3.8626,-8.951,1.8647,-0.3703,-0.0983,0.0241,0.0283,2.0E-4,0.0153,2003,2019-08-07 16:14:23:920
3.8769,-8.76,1.8269,-0.3703,-0.0983,0.0241,0.0283,2.0E-4,0.0153,2008,2019-08-07 16:14:23:925
3.8769,-8.76,1.8269,-0.3703,-0.0983,0.0241,0.04,-0.0115,0.0174,2014,2019-08-07 16:14:23:931
3.8961,-8.7027,1.9118,-0.3935,-0.2735,-0.069,0.04,-0.0115,0.0174,2018,2019-08-07 16:14:23:935
3.8961,-8.7027,1.9118,-0.3935,-0.2735,-0.069,0.039,-0.0446,0.0217,2023,2019-08-07 16:14:23:940
3.9917,-8.6884,1.8694,-0.3935,-0.2735,-0.069,0.039,-0.0446,0.0217,2029,2019-08-07 16:14:23:946
3.9917,-8.6884,1.8694,-0.3935,-0.2735,-0.069,0.039,-0.0446,0.0217,2032,2019-08-07 16:14:23:949
3.9917,-8.6884,1.8694,0.3322,-0.4735,0.6624,-0.0835,-0.3418,0.0046,2038,2019-08-07 16:14:23:955
3.1449,-8.6598,2.5812,0.3322,-0.4735,0.6624,-0.0835,-0.3418,0.0046,2043,2019-08-07 16:14:23:960
3.1449,-8.6598,2.5812,0.3322,-0.4735,0.6624,0.007,-0.0882,0.0206,2048,2019-08-07 16:14:23:965
3.1449,-8.6598,2.5812,0.3322,-0.4735,0.6624,0.007,-0.0882,0.0206,2053,2019-08-07 16:14:23:970
4.4606,-9.0465,2.1098,-0.8929,0.06,0.078,0.0965,-0.2512,0.0153,2058,2019-08-07 16:14:23:975
4.4606,-9.0465,2.1098,-0.8929,0.06,0.078,0.0965,-0.2512,0.0153,2062,2019-08-07 16:14:23:979
4.7476,-8.7314,1.7091,-0.8929,0.06,0.078,0.1444,-0.0137,0.0121,2068,2019-08-07 16:14:23:985
4.7476,-8.7314,1.7091,-0.8929,0.06,0.078,0.1444,-0.0137,0.0121,2073,2019-08-07 16:14:23:990
4.7476,-8.7314,1.7091,-1.1939,-0.5393,0.7956,0.0635,0.0779,-0.0124,2078,2019-08-07 16:14:23:995
4.3123,-8.2397,1.5111,-1.1939,-0.5393,0.7956,0.0635,0.0779,-0.0124,2083,2019-08-07 16:14:24:000
4.3123,-8.2397,1.5111,-1.1939,-0.5393,0.7956,0.0635,0.0779,-0.0124,2087,2019-08-07 16:14:24:004
4.3123,-8.2397,1.5111,-1.1939,-0.5393,0.7956,-0.0452,0.1546,0.0142,2093,2019-08-07 16:14:24:010
4.0491,-8.5118,2.3266,-0.4611,-0.3895,-0.489,-0.0452,0.1546,0.0142,2098,2019-08-07 16:14:24:015
4.0491,-8.5118,2.3266,-0.4611,-0.3895,-0.489,-0.0218,0.2068,0.01,2103,2019-08-07 16:14:24:020