ACCELEROMETER X (m/s²),ACCELEROMETER Y (m/s²),ACCELEROMETER Z (m/s²),LINEAR ACCELERATION X (m/s²),LINEAR ACCELERATION Y (m/s²),LINEAR ACCELERATION Z (m/s²),GYROSCOPE X (rad/s),GYROSCOPE Y (rad/s),GYROSCOPE Z (rad/s),Time since start in ms ,YYYY-MO-DD HH-MI-SS_SSS
4.6645,-8.6109,1.6313,-0.1715,0.0602,0.0819,-6.0E-4,-0.0135,-0.0252,3,2019-08-07 16:15:19:053
4.6501,-8.6587,1.6973,-0.1715,0.0602,0.0819,-6.0E-4,-0.0135,-0.0252,9,2019-08-07 16:15:19:059
4.6501,-8.6587,1.6973,-0.1278,0.0533,0.0761,0.025,-0.0252,-0.0188,14,2019-08-07 16:15:19:064
4.6693,-8.5298,1.6124,-0.1278,0.0533,0.0761,0.025,-0.0252,-0.0188,19,2019-08-07 16:15:19:069
4.6693,-8.5298,1.6124,-0.1278,0.0533,0.0761,0.0357,-0.0146,-0.0167,24,2019-08-07 16:15:19:074
4.6693,-8.5298,1.6124,-0.1278,0.0533,0.0761,0.0357,-0.0146,-0.0167,29,2019-08-07 16:15:19:079
4.6358,-8.4247,1.7255,-0.1334,-0.1204,-0.0092,0.0346,-0.0082,-0.0103,34,2019-08-07 16:15:19:084
4.6358,-8.4247,1.7255,-0.1334,-0.1204,-0.0092,0.0346,-0.0082,-0.0103,38,2019-08-07 16:15:19:088
4.6358,-8.4247,1.7255,-0.1334,-0.1204,-0.0092,0.0346,-0.0082,-0.0103,44,2019-08-07 16:15:19:094
4.6405,-8.42,1.768,-0.1334,-0.1204,-0.0092,0.0218,-0.0071,-0.0114,49,2019-08-07 16:15:19:099
4.6405,-8.42,1.768,-0.0679,-0.1037,-0.0203,0.0218,-0.0071,-0.0114,54,2019-08-07 16:15:19:104
4.6405,-8.42,1.768,-0.0679,-0.1037,-0.0203,0.0016,-0.0252,-0.0071,58,2019-08-07 16:15:19:108
4.6453,-8.5154,1.7067,-0.0679,-0.1037,-0.0203,0.0016,-0.0252,-0.0071,64,2019-08-07 16:15:19:114
4.6453,-8.5154,1.7067,-0.0679,-0.1037,-0.0203,-0.0027,-0.0305,-0.0061,69,2019-08-07 16:15:19:119
4.6453,-8.4438,1.7208,-0.1366,-0.0978,-0.0041,-0.0027,-0.0305,-0.0061,73,2019-08-07 16:15:19:123
4.6453,-8.4438,1.7208,-0.1366,-0.0978,-0.0041,-0.0144,-0.0348,3.0E-4,79,2019-08-07 16:15:19:129
4.6453,-8.4438,1.7208,-0.1366,-0.0978,-0.0041,-0.0144,-0.0348,3.0E-4,84,2019-08-07 16:15:19:134
4.7793,-8.525,1.6878,-0.1366,-0.0978,-0.0041,-0.0187,-0.0295,3.0E-4,88,2019-08-07 16:15:19:138
4.7793,-8.525,1.6878,-0.1366,-0.0978,-0.0041,-0.0187,-0.0295,3.0E-4,94,2019-08-07 16:15:19:144
4.8367,-8.482,1.7397,-0.325,-0.0593,-0.0288,-0.0155,-0.0124,-0.0039,99,2019-08-07 16:15:19:149
4.8367,-8.482,1.7397,-0.325,-0.0593,-0.0288,-0.0155,-0.0124,-0.0039,104,2019-08-07 16:15:19:154
4.8367,-8.4916,1.6737,-0.325,-0.0593,-0.0288,-0.008,0.0355,-7.0E-4,110,2019-08-07 16:15:19:160
4.7506,-8.4916,1.6737,-0.1939,-0.0393,0.0977,-0.008,0.0355,-7.0E-4,114,2019-08-07 16:15:19:164
4.7506,-8.4916,1.6737,-0.1939,-0.0393,0.0977,-0.008,0.0355,-7.0E-4,119,2019-08-07 16:15:19:169
4.5401,-8.525,1.7303,-0.1939,-0.0393,0.0977,-0.0059,0.0557,-0.005,124,2019-08-07 16:15:19:174
4.5401,-8.525,1.7303,-0.1939,-0.0393,0.0977,-0.0059,0.0557,-0.005,129,2019-08-07 16:15:19:179
4.5401,-8.525,1.7303,0.0793,-0.058,-0.0532,-6.0E-4,0.0387,-0.005,133,2019-08-07 16:15:19:183
4.4193,-8.501,1.8243,0.0793,-0.058,-0.0532,-6.0E-4,0.0387,-0.005,139,2019-08-07 16:15:19:189
4.4193,-8.501,1.8243,0.0793,-0.058,-0.0532,0.0016,4.0E-4,-0.0125,145,2019-08-07 16:15:19:195
4.4575,-8.4914,1.7724,0.0793,-0.058,-0.0532,0.0016,4.0E-4,-0.0125,148,2019-08-07 16:15:19:198
4.4575,-8.4914,1.7724,-0.0432,-0.0808,-0.0668,0.0016,4.0E-4,-0.0125,154,2019-08-07 16:15:19:204
4.4575,-8.4914,1.7724,-0.0432,-0.0808,-0.0668,0.0058,-0.0486,-0.0199,158,2019-08-07 16:15:19:208
4.6298,-8.5296,1.7347,-0.0432,-0.0808,-0.0668,0.0058,-0.0486,-0.0199,164,2019-08-07 16:15:19:214
4.6298,-8.5296,1.7347,-0.0432,-0.0808,-0.0668,0.008,-0.0529,-0.022,168,2019-08-07 16:15:19:218
4.6298,-8.5296,1.7347,-0.0432,-0.0808,-0.0668,0.008,-0.0529,-0.022,174,2019-08-07 16:15:19:224
4.7589,-8.4294,1.664,-0.2374,-0.1066,0.0474,0.0069,-0.0455,-0.0231,179,2019-08-07 16:15:19:229
4.7589,-8.4294,1.664,-0.2374,-0.1066,0.0474,0.0069,-0.0455,-0.0231,183,2019-08-07 16:15:19:233
4.912,-8.5249,1.6357,-0.2374,-0.1066,0.0474,0.0112,-0.005,-0.0167,189,2019-08-07 16:15:19:239
4.912,-8.5249,1.6357,-0.3504,-0.07,0.0554,0.0112,-0.005,-0.0167,196,2019-08-07 16:15:19:246
4.912,-8.5249,1.6357,-0.3504,-0.07,0.0554,0.0112,-0.005,-0.0167,199,2019-08-07 16:15:19:249
4.8211,-8.4914,1.7111,-0.3504,-0.07,0.0554,0.0133,0.0163,-0.0103,204,2019-08-07 16:15:19:254
4.8211,-8.4914,1.7111,-0.3504,-0.07,0.0554,0.0133,0.0163,-0.0103,209,2019-08-07 16:15:19:259
4.8211,-8.4914,1.7111,-0.3504,-0.07,0.0554,0.0112,0.0249,0.0014,214,2019-08-07 16:15:19:264
4.7206,-8.4389,1.7253,-0.1908,-0.0922,-0.0115,0.0112,0.0249,0.0014,219,2019-08-07 16:15:19:269
4.7206,-8.4389,1.7253,-0.1908,-0.0922,-0.0115,0.009,0.0163,0.0174,223,2019-08-07 16:15:19:273
4.7493,-8.4532,1.664,-0.2202,-0.0779,0.0514,0.009,0.0163,0.0174,229,2019-08-07 16:15:19:279
4.7493,-8.4532,1.664,-0.2202,-0.0779,0.0514,0.0058,0.0153,0.0174,234,2019-08-07 16:15:19:284
4.7493,-8.4532,1.664,-0.2202,-0.0779,0.0514,0.0058,0.0153,0.0174,239,2019-08-07 16:15:19:289
4.6201,-8.4342,1.73,-0.0216,-0.0691,-0.0025,0.0048,0.0142,0.0152,246,2019-08-07 16:15:19:296
4.6201,-8.4342,1.73,-0.0216,-0.0691,-0.0025,0.0048,0.0142,0.0152,248,2019-08-07 16:15:19:298
4.5483,-8.4246,1.697,-0.0216,-0.0691,-0.0025,0.0048,0.0142,0.0152,254,2019-08-07 16:15:19:304
4.5483,-8.4246,1.697,-0.0216,-0.0691,-0.0025,0.0016,0.0046,0.0067,259,2019-08-07 16:15:19:309
4.5483,-8.4246,1.697,-0.0216,-0.0691,-0.0025,0.0016,0.0046,0.0067,263,2019-08-07 16:15:19:313
4.4861,-8.4532,1.7206,0.0395,-0.0791,-0.0016,-0.0027,-0.005,-0.0039,269,2019-08-07 16:15:19:319
4.4861,-8.4532,1.7206,0.0395,-0.0791,-0.0016,-0.0027,-0.005,-0.0039,273,2019-08-07 16:15:19:323
4.5196,-8.4771,1.73,0.0395,-0.0791,-0.0016,-0.0038,0.0025,-0.0157,279,2019-08-07 16:15:19:329
4.5196,-8.4771,1.73,0.0395,-0.0791,-0.0016,-0.0038,0.0025,-0.0157,284,2019-08-07 16:15:19:334
4.5196,-8.4771,1.73,0.0077,-0.0783,-0.0021,-0.0038,0.0025,-0.0157,289,2019-08-07 16:15:19:339
4.5387,-8.4341,1.7064,0.0077,-0.0783,-0.0021,-0.0091,-0.0092,-0.0327,293,2019-08-07 16:15:19:343
4.5387,-8.4341,1.7064,0.0077,-0.0783,-0.0021,-0.0091,-0.0092,-0.0327,300,2019-08-07 16:15:19:350
4.5387,-8.4341,1.7064,0.0077,-0.0783,-0.0021,-0.0091,-0.0156,-0.0242,303,2019-08-07 16:15:19:353
4.7109,-8.4676,1.6687,-0.1776,-0.0612,0.0472,-0.0091,-0.0156,-0.0242,309,2019-08-07 16:15:19:359
4.7109,-8.4676,1.6687,-0.1776,-0.0612,0.0472,-0.0112,-0.0071,-0.0274,315,2019-08-07 16:15:19:365
4.7731,-8.4819,1.6687,-0.1776,-0.0612,0.0472,-0.0112,-0.0071,-0.0274,319,2019-08-07 16:15:19:369
4.7731,-8.4819,1.6687,-0.1776,-0.0612,0.0472,-0.0112,-0.0071,-0.0274,323,2019-08-07 16:15:19:373
4.7683,-8.4914,1.6923,-0.2475,-0.0488,0.0349,-0.0059,-0.0156,-0.0284,330,2019-08-07 16:15:19:380
4.7683,-8.4914,1.6923,-0.2475,-0.0488,0.0349,-0.0059,-0.0156,-0.0284,334,2019-08-07 16:15:19:384
4.7683,-8.4914,1.6923,-0.2475,-0.0488,0.0349,0.0037,-0.0295,-0.0146,338,2019-08-07 16:15:19:388
4.8305,-8.6012,1.6027,-0.2475,-0.0488,0.0349,0.0037,-0.0295,-0.0146,344,2019-08-07 16:15:19:394
4.8305,-8.6012,1.6027,-0.2567,0.0632,0.0463,0.0016,-0.0103,-0.0061,349,2019-08-07 16:15:19:399
4.8305,-8.6012,1.6027,-0.2567,0.0632,0.0463,0.0016,-0.0103,-0.0061,354,2019-08-07 16:15:19:404
4.7826,-8.5057,1.7347,-0.2567,0.0632,0.0463,0.008,-7.0E-4,-0.0039,358,2019-08-07 16:15:19:408
4.7826,-8.5057,1.7347,-0.2567,0.0632,0.0463,0.008,-7.0E-4,-0.0039,364,2019-08-07 16:15:19:414
4.7013,-8.4532,1.6875,-0.1635,0.0169,0.0284,0.0154,-0.0039,-7.0E-4,369,2019-08-07 16:15:19:419
4.7013,-8.4532,1.6875,-0.1635,0.0169,0.0284,0.0154,-0.0039,-7.0E-4,373,2019-08-07 16:15:19:423
4.7013,-8.4532,1.6875,-0.1635,0.0169,0.0284,0.0154,-0.0039,-7.0E-4,379,2019-08-07 16:15:19:429
4.6534,-8.4246,1.7394,-0.1635,0.0169,0.0284,0.0112,0.0099,0.0014,383,2019-08-07 16:15:19:433
4.6534,-8.4246,1.7394,-0.0433,-0.073,-0.0349,0.0112,0.0099,0.0014,389,2019-08-07 16:15:19:439
4.5865,-8.4055,1.7582,-0.0433,-0.073,-0.0349,5.0E-4,0.0238,0.0046,394,2019-08-07 16:15:19:444
4.5865,-8.4055,1.7582,-0.0433,-0.073,-0.0349,5.0E-4,0.0238,0.0046,400,2019-08-07 16:15:19:450
4.5865,-8.4055,1.7582,-0.0433,-0.073,-0.0349,5.0E-4,0.0238,0.0046,403,2019-08-07 16:15:19:453
4.5865,-8.4055,1.7582,-0.0433,-0.073,-0.0349,-0.0016,0.0121,-0.0135,409,2019-08-07 16:15:19:459
4.5051,-8.4389,1.8714,0.0425,-0.0822,-0.1548,-0.0016,0.0121,-0.0135,414,2019-08-07 16:15:19:464
4.5051,-8.4389,1.8714,0.0425,-0.0822,-0.1548,-0.0038,-0.0188,-0.0146,419,2019-08-07 16:15:19:469
4.6103,-8.4485,1.7299,0.0425,-0.0822,-0.1548,-0.0038,-0.0188,-0.0146,423,2019-08-07 16:15:19:473
4.6103,-8.4485,1.7299,-0.107,-0.1091,-0.0192,-6.0E-4,-0.0209,-0.0135,429,2019-08-07 16:15:19:479
4.6103,-8.4485,1.7299,-0.107,-0.1091,-0.0192,-6.0E-4,-0.0209,-0.0135,434,2019-08-07 16:15:19:484
4.7634,-8.458,1.7299,-0.107,-0.1091,-0.0192,-0.0027,-0.0146,-0.0252,439,2019-08-07 16:15:19:489
4.7634,-8.458,1.7299,-0.107,-0.1091,-0.0192,-0.0027,-0.0146,-0.0252,444,2019-08-07 16:15:19:494
4.7299,-8.3864,1.7252,-0.1346,-0.1159,-0.0114,-0.0016,-0.0135,-0.0295,448,2019-08-07 16:15:19:498
4.7299,-8.3864,1.7252,-0.1346,-0.1159,-0.0114,-0.0016,-0.0135,-0.0295,454,2019-08-07 16:15:19:504
4.7921,-8.4628,1.6875,-0.2314,-0.0521,0.0253,-6.0E-4,-0.0348,-0.0263,459,2019-08-07 16:15:19:509
4.7921,-8.4628,1.6875,-0.2314,-0.0521,0.0253,-6.0E-4,-0.0348,-0.0263,464,2019-08-07 16:15:19:514
4.7921,-8.4628,1.6875,-0.2314,-0.0521,0.0253,-6.0E-4,-0.0348,-0.0263,468,2019-08-07 16:15:19:518
4.9548,-8.5105,1.6498,-0.2314,-0.0521,0.0253,0.0133,-0.0359,-0.0178,474,2019-08-07 16:15:19:524
4.9548,-8.5105,1.6498,-0.3444,0.0846,0.0511,0.0133,-0.0359,-0.0178,479,2019-08-07 16:15:19:529
4.9548,-8.5105,1.6498,-0.3444,0.0846,0.0511,0.0229,-0.0284,-0.0125,484,2019-08-07 16:15:19:534
4.8973,-8.5201,1.7017,-0.3444,0.0846,0.0511,0.0229,-0.0284,-0.0125,489,2019-08-07 16:15:19:539
4.8973,-8.5201,1.7017,-0.3444,0.0846,0.0511,0.0293,-0.0082,-0.0061,494,2019-08-07 16:15:19:544
4.8638,-8.4866,1.6969,-0.2925,-0.0224,0.0163,0.0293,-0.0082,-0.0061,499,2019-08-07 16:15:19:549
4.8638,-8.4866,1.6969,-0.2925,-0.0224,0.0163,0.0303,0.0217,-7.0E-4,504,2019-08-07 16:15:19:554
4.8638,-8.4866,1.6969,-0.2925,-0.0224,0.0163,0.0303,0.0217,-7.0E-4,508,2019-08-07 16:15:19:558
4.682,-8.4055,1.7111,-0.2925,-0.0224,0.0163,0.0165,0.0323,0.0014,514,2019-08-07 16:15:19:564
4.682,-8.4055,1.7111,-0.0481,-0.1021,-0.0952,0.0165,0.0323,0.0014,519,2019-08-07 16:15:19:569
4.682,-8.4055,1.7111,-0.0481,-0.1021,-0.0952,0.0165,0.0323,0.0014,523,2019-08-07 16:15:19:573
4.6868,-8.4771,1.7252,-0.0481,-0.1021,-0.0952,0.0112,0.0312,0.0035,528,2019-08-07 16:15:19:578
4.6868,-8.4771,1.7252,-0.0481,-0.1021,-0.0952,0.0112,0.0312,0.0035,534,2019-08-07 16:15:19:584
4.6868,-8.4771,1.7252,0.0705,-0.1685,-0.0713,0.008,0.0089,0.0057,539,2019-08-07 16:15:19:589
4.4715,-8.4055,1.7959,0.0705,-0.1685,-0.0713,0.008,0.0089,0.0057,544,2019-08-07 16:15:19:594
4.4715,-8.4055,1.7959,0.0705,-0.1685,-0.0713,-0.0016,-0.0209,0.012,549,2019-08-07 16:15:19:599
4.4715,-8.4055,1.7959,0.0705,-0.1685,-0.0713,-0.0016,-0.0209,0.012,554,2019-08-07 16:15:19:604
4.6341,-8.415,1.876,-0.0596,-0.0449,-0.1142,0.0037,-0.0369,0.0035,559,2019-08-07 16:15:19:609
4.6341,-8.415,1.876,-0.0596,-0.0449,-0.1142,0.0037,-0.0369,0.0035,563,2019-08-07 16:15:19:613
4.7011,-8.4007,1.7158,-0.0596,-0.0449,-0.1142,0.0101,-0.0359,3.0E-4,569,2019-08-07 16:15:19:619
4.7011,-8.4007,1.7158,-0.0596,-0.0449,-0.1142,0.0101,-0.0359,3.0E-4,574,2019-08-07 16:15:19:624
4.7011,-8.4007,1.7158,-0.0596,-0.0449,-0.1142,0.0101,-0.0359,3.0E-4,579,2019-08-07 16:15:19:629
4.792,-8.4675,1.6592,-0.2248,-0.0393,0.063,0.0069,-0.0092,-0.0029,583,2019-08-07 16:15:19:633
4.792,-8.4675,1.6592,-0.2248,-0.0393,0.063,0.0069,-0.0092,-0.0029,589,2019-08-07 16:15:19:639
4.792,-8.4675,1.6592,-0.2248,-0.0393,0.063,0.0186,0.0302,-0.0125,594,2019-08-07 16:15:19:644
4.7345,-8.4437,1.7441,-0.0599,-0.0612,-0.0415,0.0186,0.0302,-0.0125,599,2019-08-07 16:15:19:649
4.7345,-8.4437,1.7441,-0.0599,-0.0612,-0.0415,0.0154,0.0302,-0.0146,604,2019-08-07 16:15:19:654
4.7345,-8.4437,1.7441,-0.0599,-0.0612,-0.0415,0.0154,0.0302,-0.0146,609,2019-08-07 16:15:19:659
4.5862,-8.415,1.7393,-0.0599,-0.0612,-0.0415,-6.0E-4,0.0067,-0.0146,615,2019-08-07 16:15:19:665
4.5862,-8.415,1.7393,-0.0599,-0.0612,-0.0415,-6.0E-4,0.0067,-0.0146,619,2019-08-07 16:15:19:669
4.6149,-8.4484,1.7676,-0.0622,-0.0643,0.0268,-6.0E-4,0.0067,-0.0146,624,2019-08-07 16:15:19:674
4.6149,-8.4484,1.7676,-0.0622,-0.0643,0.0268,-0.0165,-0.0337,-0.0178,629,2019-08-07 16:15:19:679
4.6149,-8.4484,1.7676,-0.0622,-0.0643,0.0268,-0.0165,-0.0337,-0.0178,634,2019-08-07 16:15:19:684
4.7728,-8.4389,1.7912,-0.0622,-0.0643,0.0268,-0.0155,-0.0486,-0.0146,638,2019-08-07 16:15:19:688
4.7728,-8.4389,1.7912,-0.2294,-0.1058,0.1382,-0.0155,-0.0486,-0.0146,644,2019-08-07 16:15:19:694
4.8924,-8.458,1.6026,-0.2294,-0.1058,0.1382,-0.0123,-0.0316,-0.0071,648,2019-08-07 16:15:19:698
4.8924,-8.458,1.6026,-0.2294,-0.1058,0.1382,-0.0123,-0.0316,-0.0071,654,2019-08-07 16:15:19:704
4.8924,-8.458,1.6026,-0.2294,-0.1058,0.1382,-0.0123,-0.0316,-0.0071,658,2019-08-07 16:15:19:708
4.8397,-8.4293,1.6498,-0.2539,-0.0712,0.067,-0.0059,-0.0018,-0.0082,665,2019-08-07 16:15:19:715
4.8397,-8.4293,1.6498,-0.2539,-0.0712,0.067,-0.0059,-0.0018,-0.0082,669,2019-08-07 16:15:19:719
4.7632,-8.4198,1.7205,-0.2539,-0.0712,0.067,0.0048,0.0344,3.0E-4,674,2019-08-07 16:15:19:724
4.7632,-8.4198,1.7205,-0.2539,-0.0712,0.067,0.0048,0.0344,3.0E-4,679,2019-08-07 16:15:19:729
4.7632,-8.4198,1.7205,-0.1432,-0.0416,0.0088,0.0112,0.0419,0.0057,683,2019-08-07 16:15:19:733
4.6435,-8.4675,1.7157,-0.1432,-0.0416,0.0088,0.0112,0.0419,0.0057,689,2019-08-07 16:15:19:739
4.6435,-8.4675,1.7157,-0.0101,-0.0462,-0.059,0.0144,0.0376,0.0025,693,2019-08-07 16:15:19:743
4.5526,-8.4866,1.8336,-0.0101,-0.0462,-0.059,0.0144,0.0376,0.0025,700,2019-08-07 16:15:19:750
4.5526,-8.4866,1.8336,-0.0101,-0.0462,-0.059,0.0144,0.0206,0.0025,704,2019-08-07 16:15:19:754
4.5526,-8.4866,1.8336,-0.0101,-0.0462,-0.059,0.0144,0.0206,0.0025,709,2019-08-07 16:15:19:759
4.4952,-8.4771,1.8336,0.0886,-0.0222,-0.1054,0.0048,-0.005,0.0067,714,2019-08-07 16:15:19:764
4.4952,-8.4771,1.8336,0.0886,-0.0222,-0.1054,0.0048,-0.005,0.0067,719,2019-08-07 16:15:19:769
4.4952,-8.4771,1.8336,0.0886,-0.0222,-0.1054,0.0048,-0.005,0.0067,724,2019-08-07 16:15:19:774
4.5861,-8.4723,1.7393,0.0886,-0.0222,-0.1054,-0.0027,-0.0178,0.0057,729,2019-08-07 16:15:19:779
4.5861,-8.4723,1.7393,-0.0313,0.0108,0.0067,-0.0027,-0.0178,0.0057,734,2019-08-07 16:15:19:784
4.6674,-8.5248,1.711,-0.0313,0.0108,0.0067,-0.0101,-0.022,0.0014,738,2019-08-07 16:15:19:788
4.6674,-8.5248,1.711,-0.0313,0.0108,0.0067,-0.0101,-0.022,0.0014,744,2019-08-07 16:15:19:794
4.6674,-8.5248,1.711,-0.0313,0.0108,0.0067,-0.0101,-0.0156,-0.0018,749,2019-08-07 16:15:19:799
4.7535,-8.4866,1.678,-0.1689,-0.0133,0.045,-0.0101,-0.0156,-0.0018,754,2019-08-07 16:15:19:804
4.7535,-8.4866,1.678,-0.1689,-0.0133,0.045,-0.0112,0.0046,-0.0061,759,2019-08-07 16:15:19:809
4.7774,-8.4723,1.6733,-0.1689,-0.0133,0.045,-0.0112,0.0046,-0.0061,765,2019-08-07 16:15:19:815
4.7774,-8.4723,1.6733,-0.1689,-0.0133,0.045,-0.0112,0.0046,-0.0061,769,2019-08-07 16:15:19:819
4.7774,-8.4723,1.6733,-0.1864,-0.0985,0.1149,-0.0048,0.0206,-0.0029,774,2019-08-07 16:15:19:824
4.7439,-8.4436,1.6686,-0.1864,-0.0985,0.1149,-0.0048,0.0206,-0.0029,778,2019-08-07 16:15:19:828
4.7439,-8.4436,1.6686,-0.1864,-0.0985,0.1149,-0.007,0.0249,0.0035,784,2019-08-07 16:15:19:834
4.7439,-8.4436,1.6686,-0.1864,-0.0985,0.1149,-0.007,0.0249,0.0035,788,2019-08-07 16:15:19:838
4.7056,-8.4532,1.6497,-0.0673,0.0015,0.0918,-0.0038,0.0206,0.0099,794,2019-08-07 16:15:19:844
4.7056,-8.4532,1.6497,-0.0673,0.0015,0.0918,-0.0038,0.0206,0.0099,799,2019-08-07 16:15:19:849
4.6721,-8.563,1.7251,-0.0673,0.0015,0.0918,-0.0038,0.0206,0.0099,804,2019-08-07 16:15:19:854
4.6721,-8.563,1.7251,-0.0673,0.0015,0.0918,-6.0E-4,0.0014,0.0174,808,2019-08-07 16:15:19:858
4.6721,-8.563,1.7251,-0.0698,0.1051,-0.0264,-6.0E-4,0.0014,0.0174,814,2019-08-07 16:15:19:864
4.6578,-8.5534,1.744,-0.0698,0.1051,-0.0264,0.0048,-0.0135,0.0216,818,2019-08-07 16:15:19:868
4.6578,-8.5534,1.744,-0.0698,0.1051,-0.0264,0.0048,-0.0135,0.0216,824,2019-08-07 16:15:19:874
4.6865,-8.5773,1.7723,-0.0698,0.1051,-0.0264,0.009,-0.0188,0.0195,829,2019-08-07 16:15:19:879
4.6865,-8.5773,1.7723,-0.106,0.0272,-0.003,0.009,-0.0188,0.0195,833,2019-08-07 16:15:19:883
4.6865,-8.5773,1.7723,-0.106,0.0272,-0.003,0.0122,-0.0028,0.0174,839,2019-08-07 16:15:19:889
4.6434,-8.52,1.7629,-0.106,0.0272,-0.003,0.0122,-0.0028,0.0174,844,2019-08-07 16:15:19:894
4.6434,-8.52,1.7629,-0.106,0.0272,-0.003,0.0048,0.0153,0.0131,849,2019-08-07 16:15:19:899
4.6434,-8.52,1.7629,-0.0125,-0.0308,-7.0E-4,0.0048,0.0153,0.0131,854,2019-08-07 16:15:19:904
4.5668,-8.4723,1.7817,-0.0125,-0.0308,-7.0E-4,-0.0027,0.0163,0.0035,860,2019-08-07 16:15:19:910
4.5668,-8.4723,1.7817,-0.0125,-0.0308,-7.0E-4,-0.0027,0.0163,0.0035,863,2019-08-07 16:15:19:913
4.5237,-8.4627,1.7864,-0.0125,-0.0308,-7.0E-4,-0.0027,0.0163,0.0035,869,2019-08-07 16:15:19:919
4.5237,-8.4627,1.7864,-0.0125,-0.0308,-7.0E-4,-0.0016,-0.0039,0.0025,873,2019-08-07 16:15:19:923
4.5237,-8.4627,1.7864,0.0103,-0.0025,-0.0088,-0.0016,-0.0039,0.0025,879,2019-08-07 16:15:19:929
4.5859,-8.5534,1.7346,0.0103,-0.0025,-0.0088,0.0069,-0.022,3.0E-4,884,2019-08-07 16:15:19:934
4.5859,-8.5534,1.7346,0.0103,-0.0025,-0.0088,0.0069,-0.022,3.0E-4,889,2019-08-07 16:15:19:939
4.5142,-8.5057,1.7628,0.0103,-0.0025,-0.0088,0.0314,-0.0273,-0.0018,893,2019-08-07 16:15:19:943
4.5142,-8.5057,1.7628,0.0061,-0.0212,0.0246,0.0314,-0.0273,-0.0018,899,2019-08-07 16:15:19:949
4.5142,-8.5057,1.7628,0.0061,-0.0212,0.0246,0.0442,-0.0295,0.0035,904,2019-08-07 16:15:19:954
4.5142,-8.5057,1.7628,0.0061,-0.0212,0.0246,0.0442,-0.0295,0.0035,909,2019-08-07 16:15:19:959
4.605,-8.5057,1.6544,-0.0645,-0.0292,0.1141,0.0442,-0.0295,0.0035,914,2019-08-07 16:15:19:964
4.605,-8.5057,1.6544,-0.0645,-0.0292,0.1141,0.0452,-0.0092,0.0057,918,2019-08-07 16:15:19:968
4.605,-8.5057,1.6544,-0.0645,-0.0292,0.1141,0.0452,-0.0092,0.0057,924,2019-08-07 16:15:19:974
4.6098,-8.5296,1.6261,-0.0314,0.0285,0.1077,0.0325,0.0195,0.0088,930,2019-08-07 16:15:19:980
4.6098,-8.5296,1.6261,-0.0314,0.0285,0.1077,0.0325,0.0195,0.0088,934,2019-08-07 16:15:19:984
4.5332,-8.5916,1.7157,-0.0314,0.0285,0.1077,0.0239,0.0323,0.0142,939,2019-08-07 16:15:19:989
4.5332,-8.5916,1.7157,-0.0314,0.0285,0.1077,0.0239,0.0323,0.0142,944,2019-08-07 16:15:19:994
4.5332,-8.5916,1.7157,0.1085,0.1378,-0.0266,0.0239,0.0323,0.0142,949,2019-08-07 16:15:19:999
4.428,-8.7301,1.7958,0.1085,0.1378,-0.0266,0.0165,0.0227,0.0078,954,2019-08-07 16:15:20:004
4.428,-8.7301,1.7958,0.1085,0.1378,-0.0266,0.0165,0.0227,0.0078,958,2019-08-07 16:15:20:008
4.428,-8.7301,1.7958,0.1085,0.1378,-0.0266,0.0037,0.0046,0.0078,964,2019-08-07 16:15:20:014
4.4136,-8.7348,1.7345,0.1578,0.232,0.0093,0.0016,-0.022,0.011,969,2019-08-07 16:15:20:019
4.4136,-8.7348,1.7345,0.1578,0.232,0.0093,0.0016,-0.022,0.011,974,2019-08-07 16:15:20:024
4.5284,-8.7682,1.711,0.1578,0.232,0.0093,0.0016,-0.022,0.011,978,2019-08-07 16:15:20:028
4.5284,-8.7682,1.711,0.1578,0.232,0.0093,0.0122,-0.0241,0.0152,984,2019-08-07 16:15:20:034
4.5284,-8.7682,1.711,0.0213,0.259,0.0313,0.0122,-0.0241,0.0152,988,2019-08-07 16:15:20:038
4.5332,-8.7873,1.6874,0.0213,0.259,0.0313,0.0282,-0.022,0.0259,995,2019-08-07 16:15:20:045
4.5332,-8.7873,1.6874,0.0213,0.259,0.0313,0.0282,-0.022,0.0259,999,2019-08-07 16:15:20:049
4.5332,-8.7873,1.6874,0.0213,0.259,0.0313,0.0346,0.0057,0.0206,1003,2019-08-07 16:15:20:053
4.404,-8.9019,1.6403,0.16,0.3954,0.1047,0.0346,0.0057,0.0206,1009,2019-08-07 16:15:20:059
4.404,-8.9019,1.6403,0.16,0.3954,0.1047,0.0239,0.0344,0.0035,1014,2019-08-07 16:15:20:064
4.1265,-9.1358,1.5648,0.16,0.3954,0.1047,0.0239,0.0344,0.0035,1019,2019-08-07 16:15:20:069
4.1265,-9.1358,1.5648,0.16,0.3954,0.1047,0.0239,0.0344,0.0035,1025,2019-08-07 16:15:20:075
4.1265,-9.1358,1.5648,0.6568,0.8186,0.1773,0.0144,0.076,-0.0252,1029,2019-08-07 16:15:20:079
3.715,-9.4032,1.5884,0.6568,0.8186,0.1773,0.0144,0.076,-0.0252,1034,2019-08-07 16:15:20:084
3.715,-9.4032,1.5884,0.6568,0.8186,0.1773,0.0101,0.1229,-0.0913,1039,2019-08-07 16:15:20:089
3.1983,-9.7182,1.5884,0.6568,0.8186,0.1773,0.0101,0.1229,-0.0913,1044,2019-08-07 16:15:20:094
3.1983,-9.7182,1.5884,1.4885,1.2833,0.1307,0.0144,0.1239,-0.1371,1049,2019-08-07 16:15:20:099
3.1983,-9.7182,1.5884,1.4885,1.2833,0.1307,0.0144,0.1239,-0.1371,1054,2019-08-07 16:15:20:104
3.1983,-9.7182,1.5884,1.4885,1.2833,0.1307,0.0144,0.1239,-0.1371,1059,2019-08-07 16:15:20:109
2.5046,-10.1622,1.6968,2.0556,1.6583,0.0707,0.025,0.1016,-0.1701,1064,2019-08-07 16:15:20:114
2.5046,-10.1622,1.6968,2.0556,1.6583,0.0707,0.0921,0.0217,-0.2021,1069,2019-08-07 16:15:20:119
1.6865,-11.074,2.3426,2.0556,1.6583,0.0707,0.0921,0.0217,-0.2021,1074,2019-08-07 16:15:20:124
1.6865,-11.074,2.3426,3.1465,3.0755,-0.458,0.0921,0.0217,-0.2021,1078,2019-08-07 16:15:20:128
1.275,-12.3772,2.649,3.1465,3.0755,-0.458,0.1763,-0.0348,-0.1904,1085,2019-08-07 16:15:20:135
1.275,-12.3772,2.649,3.1465,3.0755,-0.458,0.1763,-0.0348,-0.1904,1088,2019-08-07 16:15:20:138
1.275,-12.3772,2.649,3.1465,3.0755,-0.458,0.3552,-0.0785,-0.1264,1094,2019-08-07 16:15:20:144
1.0071,-14.1149,3.3372,3.5653,5.6306,-1.5079,0.3552,-0.0785,-0.1264,1099,2019-08-07 16:15:20:149
1.0071,-14.1149,3.3372,3.5653,5.6306,-1.5079,0.3552,-0.0785,-0.1264,1104,2019-08-07 16:15:20:154
1.0071,-14.1149,3.3372,3.5653,5.6306,-1.5079,0.6738,0.0366,0.0025,1109,2019-08-07 16:15:20:159
0.8444,-15.3847,3.1581,3.7174,6.9056,-1.2791,0.8676,0.2273,0.077,1114,2019-08-07 16:15:20:164
0.8444,-15.3847,3.1581,3.7174,6.9056,-1.2791,0.8676,0.2273,0.077,1119,2019-08-07 16:15:20:169
0.8444,-15.3847,3.1581,3.7174,6.9056,-1.2791,0.8676,0.2273,0.077,1123,2019-08-07 16:15:20:173
0.2607,-16.8837,1.4517,4.4001,8.584,1.0924,1.1691,0.8675,0.1377,1129,2019-08-07 16:15:20:179
0.2607,-16.8837,1.4517,4.4001,8.584,1.0924,1.1691,0.8675,0.1377,1134,2019-08-07 16:15:20:184
0.2607,-16.8837,1.4517,4.4001,8.584,1.0924,1.1691,0.8675,0.1377,1139,2019-08-07 16:15:20:189
-0.7437,-18.1297,-0.6601,5.1858,9.6762,2.9056,1.4067,2.0265,0.0483,1144,2019-08-07 16:15:20:194
-0.7437,-18.1297,-0.6601,5.1858,9.6762,2.9056,1.4067,2.0265,0.0483,1149,2019-08-07 16:15:20:199
-0.7437,-18.1297,-0.6601,5.1858,9.6762,2.9056,1.4067,2.0265,0.0483,1154,2019-08-07 16:15:20:204
-0.7437,-18.1297,-0.6601,5.1858,9.6762,2.9056,1.5313,4.1027,-0.0689,1159,2019-08-07 16:15:20:209
-4.021,-21.901,-3.691,8.2769,13.4965,6.4274,1.5313,4.1027,-0.0689,1164,2019-08-07 16:15:20:214
-4.021,-21.901,-3.691,8.2769,13.4965,6.4274,1.6858,5.2436,-0.1073,1169,2019-08-07 16:15:20:219
-4.021,-21.901,-3.691,8.2769,13.4965,6.4274,1.6858,5.2436,-0.1073,1174,2019-08-07 16:15:20:224
-7.4465,-26.904,-3.4648,12.0434,19.1488,6.9334,1.9063,5.871,-0.1147,1180,2019-08-07 16:15:20:230
-7.4465,-26.904,-3.4648,12.0434,19.1488,6.9334,1.9063,5.871,-0.1147,1183,2019-08-07 16:15:20:233
-7.4465,-26.904,-3.4648,12.0434,19.1488,6.9334,2.2109,6.1416,0.0163,1189,2019-08-07 16:15:20:239
-8.81,-29.0999,-1.5463,12.0434,19.1488,6.9334,2.2109,6.1416,0.0163,1194,2019-08-07 16:15:20:244
-8.81,-29.0999,-1.5463,10.7774,21.003,6.2276,2.5369,5.6452,0.0887,1199,2019-08-07 16:15:20:249
-8.81,-29.0999,-1.5463,10.7774,21.003,6.2276,2.5369,5.6452,0.0887,1204,2019-08-07 16:15:20:254
-8.81,-29.0999,-1.5463,10.7774,21.003,6.2276,2.5369,5.6452,0.0887,1209,2019-08-07 16:15:20:259
-5.3319,-29.4007,-5.5342,7.934,21.2844,11.4435,2.7233,5.3022,0.0046,1214,2019-08-07 16:15:20:264
-5.3319,-29.4007,-5.5342,7.934,21.2844,11.4435,2.7233,5.3022,0.0046,1218,2019-08-07 16:15:20:268
-5.3319,-29.4007,-5.5342,7.934,21.2844,11.4435,2.8501,5.8817,-0.4684,1224,2019-08-07 16:15:20:274
-5.0305,-28.9854,-11.7611,7.934,21.2844,11.4435,2.8501,5.8817,-0.4684,1229,2019-08-07 16:15:20:279
-5.0305,-28.9854,-11.7611,9.0148,20.8814,18.0685,2.9289,6.7488,-0.7539,1233,2019-08-07 16:15:20:283
-5.0305,-28.9854,-11.7611,9.0148,20.8814,18.0685,2.9289,6.7488,-0.7539,1239,2019-08-07 16:15:20:289
-9.0254,-25.6819,-4.7375,9.0148,20.8814,18.0685,3.7151,8.4873,-1.3057,1244,2019-08-07 16:15:20:294
-9.0254,-25.6819,-4.7375,9.1314,15.3583,3.0251,3.7151,8.4873,-1.3057,1250,2019-08-07 16:15:20:300
-9.0254,-25.6819,-4.7375,9.1314,15.3583,3.0251,5.9479,8.3382,-2.3582,1254,2019-08-07 16:15:20:304
-9.0254,-25.6819,-4.7375,9.1314,15.3583,3.0251,5.9479,8.3382,-2.3582,1259,2019-08-07 16:15:20:309
-4.2172,-19.7051,6.6746,9.1314,15.3583,3.0251,8.0017,6.8809,-3.5939,1265,2019-08-07 16:15:20:315
-4.2172,-19.7051,6.6746,1.6614,7.5639,2.4794,8.0017,6.8809,-3.5939,1269,2019-08-07 16:15:20:319
-4.2172,-19.7051,6.6746,1.6614,7.5639,2.4794,8.0017,6.8809,-3.5939,1273,2019-08-07 16:15:20:323
-0.3228,-10.4486,1.249,1.6614,7.5639,2.4794,9.8723,6.5571,-4.8956,1279,2019-08-07 16:15:20:329
-0.3228,-10.4486,1.249,1.6614,7.5639,2.4794,9.8723,6.5571,-4.8956,1284,2019-08-07 16:15:20:334
-0.3228,-10.4486,1.249,1.6614,7.5639,2.4794,11.2167,9.3694,-5.4975,1289,2019-08-07 16:15:20:339
-6.1836,10.1456,-1.4426,6.6119,-14.8284,10.0521,11.2167,9.3694,-5.4975,1293,2019-08-07 16:15:20:343
-6.1836,10.1456,-1.4426,6.6119,-14.8284,10.0521,11.6502,7.275,-3.8751,1299,2019-08-07 16:15:20:349
-6.1836,10.1456,-1.4426,6.6119,-14.8284,10.0521,11.6502,7.275,-3.8751,1304,2019-08-07 16:15:20:354
-21.4596,97.707,16.9884,6.6119,-14.8284,10.0521,11.6502,7.275,-3.8751,1309,2019-08-07 16:15:20:359
-21.4596,97.707,16.9884,10.2946,-104.9729,13.7913,13.1405,1.3309,0.1495,1314,2019-08-07 16:15:20:364
-4.5139,71.9046,-32.7564,10.2946,-104.9729,13.7913,13.1405,1.3309,0.1495,1319,2019-08-07 16:15:20:369
-4.5139,71.9046,-32.7564,10.2946,-104.9729,13.7913,6.6914,-2.225,-1.9203,1323,2019-08-07 16:15:20:373
-4.5139,71.9046,-32.7564,10.2946,-104.9729,13.7913,6.6914,-2.225,-1.9203,1329,2019-08-07 16:15:20:379
7.7864,55.812,-15.9423,-7.7419,-56.6187,25.7189,0.2114,-8.298,-1.7712,1334,2019-08-07 16:15:20:384
7.7864,55.812,-15.9423,-7.7419,-56.6187,25.7189,0.2114,-8.298,-1.7712,1338,2019-08-07 16:15:20:388
17.3118,51.3914,7.7729,-16.0808,-52.3786,1.9094,-4.4374,-10.2517,1.1966,1344,2019-08-07 16:15:20:394
17.3118,51.3914,7.7729,-16.0808,-52.3786,1.9094,-4.4374,-10.2517,1.1966,1350,2019-08-07 16:15:20:400
17.3118,51.3914,7.7729,-16.0808,-52.3786,1.9094,-4.4374,-10.2517,1.1966,1354,2019-08-07 16:15:20:404
31.2244,24.2809,12.2652,-16.0808,-52.3786,1.9094,-3.4563,0.4584,1.6227,1359,2019-08-07 16:15:20:409
31.2244,24.2809,12.2652,-24.0576,-29.2387,-24.6643,-3.4563,0.4584,1.6227,1363,2019-08-07 16:15:20:413
8.1021,28.0188,7.919,-24.0576,-29.2387,-24.6643,-2.897,-1.8553,1.856,1369,2019-08-07 16:15:20:419
8.1021,28.0188,7.919,-24.0576,-29.2387,-24.6643,-2.897,-1.8553,1.856,1374,2019-08-07 16:15:20:424
8.1021,28.0188,7.919,-24.0576,-29.2387,-24.6643,-3.2603,0.6076,2.8723,1379,2019-08-07 16:15:20:429
2.4232,26.4291,1.7015,-0.5857,-28.827,7.6318,-3.2603,0.6076,2.8723,1384,2019-08-07 16:15:20:434
2.4232,26.4291,1.7015,-0.5857,-28.827,7.6318,-4.3831,1.0113,3.6542,1389,2019-08-07 16:15:20:439
4.7531,22.3619,4.0443,-3.1028,-25.183,5.2052,-4.3831,1.0113,3.6542,1394,2019-08-07 16:15:20:444
4.7531,22.3619,4.0443,-3.1028,-25.183,5.2052,-5.5016,-1.034,3.586,1399,2019-08-07 16:15:20:449
4.7531,22.3619,4.0443,-3.1028,-25.183,5.2052,-5.5016,-1.034,3.586,1404,2019-08-07 16:15:20:454
4.7531,22.3619,4.0443,-3.1028,-25.183,5.2052,-5.5016,-1.034,3.586,1409,2019-08-07 16:15:20:459
1.2463,17.2109,3.7944,1.7244,-19.3874,2.2864,-6.1088,-2.1216,3.1631,1414,2019-08-07 16:15:20:464
1.2463,17.2109,3.7944,1.7244,-19.3874,2.2864,-6.1088,-2.1216,3.1631,1419,2019-08-07 16:15:20:469
1.2463,17.2109,3.7944,1.7244,-19.3874,2.2864,-6.0236,-4.4535,2.9234,1424,2019-08-07 16:15:20:474
-2.007,10.5276,10.5022,1.7244,-19.3874,2.2864,-6.0236,-4.4535,2.9234,1429,2019-08-07 16:15:20:479
-2.007,10.5276,10.5022,3.9143,-11.8793,-0.8543,-5.4877,-6.0258,2.9735,1434,2019-08-07 16:15:20:484
-0.5191,3.4146,6.8113,3.9143,-11.8793,-0.8543,-5.4877,-6.0258,2.9735,1438,2019-08-07 16:15:20:488
-0.5191,3.4146,6.8113,2.5342,-7.8916,1.8116,-5.1618,-7.0464,2.7807,1444,2019-08-07 16:15:20:494
-0.5191,3.4146,6.8113,2.5342,-7.8916,1.8116,-5.1618,-7.0464,2.7807,1449,2019-08-07 16:15:20:499
0.6626,-1.4834,2.6914,2.5342,-7.8916,1.8116,-5.1618,-7.0464,2.7807,1453,2019-08-07 16:15:20:503
0.6626,-1.4834,2.6914,2.5342,-7.8916,1.8116,-5.4259,-8.3257,2.2864,1459,2019-08-07 16:15:20:509
0.6626,-1.4834,2.6914,2.2514,-1.5646,5.1228,-5.4259,-8.3257,2.2864,1464,2019-08-07 16:15:20:514
1.0836,-5.6939,-0.0238,2.2514,-1.5646,5.1228,-5.9767,-9.2845,1.9998,1469,2019-08-07 16:15:20:519
1.0836,-5.6939,-0.0238,2.2514,-1.5646,5.1228,-5.9767,-9.2845,1.9998,1473,2019-08-07 16:15:20:523
5.1693,-13.9812,-1.2305,2.2514,-1.5646,5.1228,-6.3367,-9.1353,1.8976,1479,2019-08-07 16:15:20:529
5.1693,-13.9812,-1.2305,-2.4809,10.694,6.6416,-6.3367,-9.1353,1.8976,1484,2019-08-07 16:15:20:534
5.1693,-13.9812,-1.2305,-2.4809,10.694,6.6416,-5.8169,-7.0922,1.3287,1489,2019-08-07 16:15:20:539
5.1693,-13.9812,-1.2305,-2.4809,10.694,6.6416,-5.8169,-7.0922,1.3287,1493,2019-08-07 16:15:20:543
5.8152,-30.6848,-4.9167,-1.129,25.3503,10.8528,-5.6177,-6.208,1.2254,1500,2019-08-07 16:15:20:550
5.8152,-30.6848,-4.9167,-1.129,25.3503,10.8528,-5.6177,-6.208,1.2254,1504,2019-08-07 16:15:20:554
5.8152,-30.6848,-4.9167,-1.129,25.3503,10.8528,-5.6177,-6.208,1.2254,1509,2019-08-07 16:15:20:559
-0.8302,-27.2381,0.8059,-1.129,25.3503,10.8528,-4.5684,-4.2234,1.9466,1514,2019-08-07 16:15:20:564
-0.8302,-27.2381,0.8059,4.8006,11.5131,-1.019,-4.5684,-4.2234,1.9466,1519,2019-08-07 16:15:20:569
-0.8302,-27.2381,0.8059,4.8006,11.5131,-1.019,-1.3492,-2.9526,1.9828,1524,2019-08-07 16:15:20:574
1.6002,-15.5232,5.8496,2.7622,7.1523,-3.1787,-1.3492,-2.9526,1.9828,1528,2019-08-07 16:15:20:578
1.6002,-15.5232,5.8496,2.7622,7.1523,-3.1787,0.8634,-2.7768,1.2328,1534,2019-08-07 16:15:20:584
1.6002,-15.5232,5.8496,2.7622,7.1523,-3.1787,0.8634,-2.7768,1.2328,1539,2019-08-07 16:15:20:589
1.6002,-15.5232,5.8496,2.7622,7.1523,-3.1787,0.8634,-2.7768,1.2328,1543,2019-08-07 16:15:20:593
-0.5097,-19.6096,-7.3443,4.9892,11.6498,10.1073,0.7323,-2.7054,0.5702,1549,2019-08-07 16:15:20:599
-0.5097,-19.6096,-7.3443,4.9892,11.6498,10.1073,0.7323,-2.7054,0.5702,1553,2019-08-07 16:15:20:603
-0.5097,-19.6096,-7.3443,4.9892,11.6498,10.1073,-2.4603,-0.4811,0.5106,1559,2019-08-07 16:15:20:609
-4.5523,-18.7073,-6.4204,9.5077,10.2215,1.0025,-2.4603,-0.4811,0.5106,1563,2019-08-07 16:15:20:613
-4.5523,-18.7073,-6.4204,9.5077,10.2215,1.0025,-3.6597,0.092,0.6043,1569,2019-08-07 16:15:20:619
-4.5523,-18.7073,-6.4204,9.5077,10.2215,1.0025,-3.6597,0.092,0.6043,1574,2019-08-07 16:15:20:624
-9.5662,-21.6766,-0.4999,13.7065,12.9675,2.3016,-3.1292,-0.0156,0.8014,1579,2019-08-07 16:15:20:629
-9.5662,-21.6766,-0.4999,13.7065,12.9675,2.3016,-3.1292,-0.0156,0.8014,1583,2019-08-07 16:15:20:633
-8.2458,-25.214,1.6826,13.7065,12.9675,2.3016,-2.1577,0.8078,0.8802,1589,2019-08-07 16:15:20:639
-8.2458,-25.214,1.6826,13.7065,12.9675,2.3016,-2.1577,0.8078,0.8802,1593,2019-08-07 16:15:20:643
-5.3561,-21.71,5.2981,10.3233,14.9387,-2.9888,-0.5076,1.1338,0.1729,1600,2019-08-07 16:15:20:650
-5.3561,-21.71,5.2981,10.3233,14.9387,-2.9888,-0.5076,1.1338,0.1729,1604,2019-08-07 16:15:20:654
-5.3561,-21.71,5.2981,10.3233,14.9387,-2.9888,-0.5076,1.1338,0.1729,1608,2019-08-07 16:15:20:658
-5.7102,-16.5973,3.1015,9.7504,6.91,-0.7753,1.1883,0.8323,-0.7858,1614,2019-08-07 16:15:20:664
-5.7102,-16.5973,3.1015,9.7504,6.91,-0.7753,1.1883,0.8323,-0.7858,1619,2019-08-07 16:15:20:669
-5.7102,-16.5973,3.1015,9.7504,6.91,-0.7753,1.3672,0.1197,-1.3526,1623,2019-08-07 16:15:20:673
-7.7866,-11.6373,-6.4723,11.8056,2.8526,8.1792,1.3672,0.1197,-1.3526,1629,2019-08-07 16:15:20:679
-7.7866,-11.6373,-6.4723,11.8056,2.8526,8.1792,0.0218,0.289,-1.049,1634,2019-08-07 16:15:20:684
-7.7866,-11.6373,-6.4723,11.8056,2.8526,8.1792,0.0218,0.289,-1.049,1639,2019-08-07 16:15:20:689
-3.1793,-8.076,2.6065,11.8056,2.8526,8.1792,-0.7164,-0.9424,-0.7699,1643,2019-08-07 16:15:20:693
-3.1793,-8.076,2.6065,5.5882,-0.6183,-4.1744,-0.7164,-0.9424,-0.7699,1649,2019-08-07 16:15:20:699
-3.1793,-8.076,2.6065,5.5882,-0.6183,-4.1744,-0.7164,-0.9424,-0.7699,1653,2019-08-07 16:15:20:703
-3.1793,-8.076,2.6065,5.5882,-0.6183,-4.1744,-0.2008,-2.0939,-0.7603,1659,2019-08-07 16:15:20:709
2.6048,-10.2385,1.7156,5.5882,-0.6183,-4.1744,-0.2008,-2.0939,-0.7603,1664,2019-08-07 16:15:20:714
2.6048,-10.2385,1.7156,-0.7596,2.4653,0.0545,0.1571,-2.6575,-0.886,1669,2019-08-07 16:15:20:719
6.5661,-11.4797,0.6691,-0.7596,2.4653,0.0545,0.1571,-2.6575,-0.886,1673,2019-08-07 16:15:20:723
6.5661,-11.4797,0.6691,-2.2408,2.5717,1.3002,0.4266,-3.0229,-0.8764,1679,2019-08-07 16:15:20:729
8.1688,-10.3531,-1.1645,-2.2408,2.5717,1.3002,0.4266,-3.0229,-0.8764,1684,2019-08-07 16:15:20:734
8.1688,-10.3531,-1.1645,-2.2408,2.5717,1.3002,0.5299,-2.7896,-0.5238,1689,2019-08-07 16:15:20:739
8.1688,-10.3531,-1.1645,-2.2408,2.5717,1.3002,0.5299,-2.7896,-0.5238,1694,2019-08-07 16:15:20:744
9.5132,-8.8303,-2.7672,-4.7323,0.5333,3.4594,0.5225,-1.8063,-0.1328,1699,2019-08-07 16:15:20:749
9.5132,-8.8303,-2.7672,-4.7323,0.5333,3.4594,0.5225,-1.8063,-0.1328,1704,2019-08-07 16:15:20:754
9.8911,-8.2097,-3.1538,-4.7323,0.5333,3.4594,0.416,-0.7592,0.1313,1709,2019-08-07 16:15:20:759
9.8911,-8.2097,-3.1538,-4.7323,0.5333,3.4594,0.416,-0.7592,0.1313,1714,2019-08-07 16:15:20:764
9.8911,-8.2097,-3.1538,-4.9675,-0.5169,3.3804,0.416,-0.7592,0.1313,1719,2019-08-07 16:15:20:769
9.8911,-8.2097,-3.1538,-4.9675,-0.5169,3.3804,0.025,0.7982,0.2219,1724,2019-08-07 16:15:20:774
8.475,-8.0951,-0.9666,-3.1802,-0.4647,1.4252,0.025,0.7982,0.2219,1728,2019-08-07 16:15:20:778
8.475,-8.0951,-0.9666,-3.1802,-0.4647,1.4252,-0.1263,1.2488,0.1037,1734,2019-08-07 16:15:20:784
8.475,-8.0951,-0.9666,-3.1802,-0.4647,1.4252,-0.1263,1.2488,0.1037,1739,2019-08-07 16:15:20:789
4.8629,-8.6489,1.89,-3.1802,-0.4647,1.4252,-0.138,1.2978,0.1079,1744,2019-08-07 16:15:20:794
4.8629,-8.6489,1.89,0.077,0.3748,-1.0832,-0.138,1.2978,0.1079,1749,2019-08-07 16:15:20:799
4.8629,-8.6489,1.89,0.077,0.3748,-1.0832,-0.138,1.2978,0.1079,1754,2019-08-07 16:15:20:804
4.8629,-8.6489,1.89,0.077,0.3748,-1.0832,-0.1018,0.9793,0.0845,1758,2019-08-07 16:15:20:808
4.0495,-8.7157,2.9742,0.077,0.3748,-1.0832,-0.1018,0.9793,0.0845,1764,2019-08-07 16:15:20:814
4.0495,-8.7157,2.9742,0.8204,-0.3624,-1.6505,-0.0783,0.6385,0.0674,1769,2019-08-07 16:15:20:819
3.6812,-7.8803,3.0684,0.8204,-0.3624,-1.6505,-0.0783,0.6385,0.0674,1773,2019-08-07 16:15:20:823
3.6812,-7.8803,3.0684,0.8204,-0.3624,-1.6505,-0.0837,0.3732,0.0845,1779,2019-08-07 16:15:20:829
3.7864,-7.5509,2.6772,0.8204,-0.3624,-1.6505,-0.0837,0.3732,0.0845,1784,2019-08-07 16:15:20:834
3.7864,-7.5509,2.6772,0.6012,-1.0173,-0.915,-0.0837,0.3732,0.0845,1789,2019-08-07 16:15:20:839
3.7864,-7.5509,2.6772,0.6012,-1.0173,-0.915,-0.1721,-0.0795,0.1175,1793,2019-08-07 16:15:20:843
4.4323,-7.8039,1.9937,0.6012,-1.0173,-0.915,-0.1721,-0.0795,0.1175,1799,2019-08-07 16:15:20:849
4.4323,-7.8039,1.9937,0.6012,-1.0173,-0.915,-0.1721,-0.0795,0.1175,1804,2019-08-07 16:15:20:854
4.4323,-7.8039,1.9937,0.6012,-1.0173,-0.915,-0.1721,-0.0795,0.1175,1809,2019-08-07 16:15:20:859
5.1451,-8.6107,1.5553,-0.6033,0.0133,-0.2539,-0.237,-0.3086,0.1132,1814,2019-08-07 16:15:20:864
5.1451,-8.6107,1.5553,-0.6033,0.0133,-0.2539,-0.1263,-0.152,0.0898,1819,2019-08-07 16:15:20:869
5.6426,-9.2074,1.0556,-0.6033,0.0133,-0.2539,-0.1263,-0.152,0.0898,1824,2019-08-07 16:15:20:874
5.6426,-9.2074,1.0556,-1.0984,0.623,0.2829,-0.0357,-0.0156,0.0749,1829,2019-08-07 16:15:20:879
5.4656,-9.0642,0.9708,-1.0984,0.623,0.2829,-0.0357,-0.0156,0.0749,1834,2019-08-07 16:15:20:884
5.4656,-9.0642,0.9708,-1.0984,0.623,0.2829,-0.0357,-0.0156,0.0749,1839,2019-08-07 16:15:20:889
5.4656,-9.0642,0.9708,-1.0984,0.623,0.2829,0.0921,0.2677,0.0536,1844,2019-08-07 16:15:20:894
5.0685,-8.6298,0.8907,-0.5443,0.0193,0.3852,0.0921,0.2677,0.0536,1850,2019-08-07 16:15:20:900
5.0685,-8.6298,0.8907,-0.5443,0.0193,0.3852,0.0815,0.3615,0.012,1853,2019-08-07 16:15:20:903
5.0685,-8.6298,0.8907,-0.5443,0.0193,0.3852,0.0815,0.3615,0.012,1858,2019-08-07 16:15:20:908
4.6236,-8.2526,0.9237,-0.104,-0.357,0.3745,0.0378,0.3508,-0.0135,1864,2019-08-07 16:15:20:914
4.6236,-8.2526,0.9237,-0.104,-0.357,0.3745,0.0378,0.3508,-0.0135,1869,2019-08-07 16:15:20:919
4.6236,-8.2526,0.9237,-0.104,-0.357,0.3745,0.0378,0.3508,-0.0135,1873,2019-08-07 16:15:20:923
4.0542,-8.2765,1.4045,0.5014,-0.2076,-0.0925,0.0112,0.2177,-0.0157,1880,2019-08-07 16:15:20:930
4.0542,-8.2765,1.4045,0.5014,-0.2076,-0.0925,0.0112,0.2177,-0.0157,1883,2019-08-07 16:15:20:933
4.0877,-8.6011,1.5553,0.5014,-0.2076,-0.0925,0.0431,-0.0273,0.0035,1889,2019-08-07 16:15:20:939
4.0877,-8.6011,1.5553,0.5014,-0.2076,-0.0925,0.0431,-0.0273,0.0035,1894,2019-08-07 16:15:20:944
4.0877,-8.6011,1.5553,0.0442,0.1502,0.0427,0.0857,-0.153,0.0259,1899,2019-08-07 16:15:20:949
4.6092,-8.7204,1.2913,0.0442,0.1502,0.0427,0.0857,-0.153,0.0259,1904,2019-08-07 16:15:20:954
4.6092,-8.7204,1.2913,0.0442,0.1502,0.0427,0.0857,-0.153,0.0259,1908,2019-08-07 16:15:20:958
4.8532,-8.6966,1.1546,-0.2808,0.141,0.1573,0.1283,-0.1594,0.0291,1915,2019-08-07 16:15:20:965
4.8532,-8.6966,1.1546,-0.2808,0.141,0.1573,0.1283,-0.1594,0.0291,1919,2019-08-07 16:15:20:969
4.8532,-8.6966,1.1546,-0.2808,0.141,0.1573,0.1283,-0.1594,0.0291,1924,2019-08-07 16:15:20:974
4.9297,-8.372,1.1358,-0.4488,-0.3287,0.2339,0.1805,-0.0369,0.0397,1930,2019-08-07 16:15:20:980
4.9297,-8.372,1.1358,-0.4488,-0.3287,0.2339,0.1805,-0.0369,0.0397,1934,2019-08-07 16:15:20:984
4.9393,-8.2431,1.3526,-0.4488,-0.3287,0.2339,0.1443,0.0834,0.0397,1939,2019-08-07 16:15:20:989
4.9393,-8.2431,1.3526,-0.4488,-0.3287,0.2339,0.1443,0.0834,0.0397,1944,2019-08-07 16:15:20:994
4.9393,-8.2431,1.3526,-0.4488,-0.3287,0.2339,0.1049,0.1293,0.0259,1949,2019-08-07 16:15:20:999
4.8914,-8.2049,1.5364,-0.3483,-0.35,-0.1065,0.1049,0.1293,0.0259,1953,2019-08-07 16:15:21:003
4.8914,-8.2049,1.5364,-0.3483,-0.35,-0.1065,0.1049,0.1293,0.0259,1959,2019-08-07 16:15:21:009
4.834,-8.2669,1.5977,-0.3483,-0.35,-0.1065,0.0719,0.1633,0.0099,1964,2019-08-07 16:15:21:014
4.834,-8.2669,1.5977,-0.4274,-0.2561,-0.1873,0.0367,0.1601,-0.005,1969,2019-08-07 16:15:21:019
4.834,-8.2669,1.5977,-0.4274,-0.2561,-0.1873,0.0367,0.1601,-0.005,1974,2019-08-07 16:15:21:024
4.9153,-8.3242,1.7721,-0.4274,-0.2561,-0.1873,0.0282,0.1783,-0.0167,1979,2019-08-07 16:15:21:029
4.9153,-8.3242,1.7721,-0.4274,-0.2561,-0.1873,0.0282,0.1783,-0.0167,1984,2019-08-07 16:15:21:034
4.9153,-8.3242,1.7721,-0.4274,-0.2561,-0.1873,0.0282,0.1783,-0.0167,1989,2019-08-07 16:15:21:039
4.657,-8.1953,1.6496,-0.1544,-0.4002,-0.2071,0.0122,0.1399,-7.0E-4,1993,2019-08-07 16:15:21:043
4.657,-8.1953,1.6496,-0.1544,-0.4002,-0.2071,0.0122,0.1399,-7.0E-4,1999,2019-08-07 16:15:21:049
4.657,-8.1953,1.6496,-0.1544,-0.4002,-0.2071,-0.0027,0.044,0.0408,2004,2019-08-07 16:15:21:054
4.657,-8.1953,1.6496,-0.1544,-0.4002,-0.2071,-0.0027,0.044,0.0408,2009,2019-08-07 16:15:21:059
4.4608,-8.4292,1.626,0.0024,-0.0866,-0.2683,-0.0027,0.044,0.0408,2014,2019-08-07 16:15:21:064
4.4608,-8.4292,1.626,0.0024,-0.0866,-0.2683,0.0176,-0.0572,0.0451,2019,2019-08-07 16:15:21:069
4.4608,-8.4292,1.626,0.0024,-0.0866,-0.2683,0.0176,-0.0572,0.0451,2024,2019-08-07 16:15:21:074
4.5373,-8.582,1.791,0.0024,-0.0866,-0.2683,0.0484,-0.1307,0.0429,2028,2019-08-07 16:15:21:078
4.5373,-8.582,1.791,-0.0886,-0.0701,-0.1838,0.0484,-0.1307,0.0429,2034,2019-08-07 16:15:21:084
4.7574,-8.4149,1.4421,-0.0886,-0.0701,-0.1838,0.0815,-0.1999,0.0429,2038,2019-08-07 16:15:21:088
4.7574,-8.4149,1.4421,-0.3468,-0.1849,0.0782,0.0815,-0.1999,0.0429,2044,2019-08-07 16:15:21:094
4.7574,-8.4149,1.4421,-0.3468,-0.1849,0.0782,0.0815,-0.1797,0.0419,2048,2019-08-07 16:15:21:098
5.0109,-8.4197,1.2772,-0.3468,-0.1849,0.0782,0.0815,-0.1797,0.0419,2054,2019-08-07 16:15:21:104
5.0109,-8.4197,1.2772,-0.3468,-0.1849,0.0782,0.0655,-0.1104,0.0323,2058,2019-08-07 16:15:21:108
4.9535,-8.391,1.428,-0.4794,-0.1702,0.0672,0.0655,-0.1104,0.0323,2064,2019-08-07 16:15:21:114
4.9535,-8.391,1.428,-0.4794,-0.1702,0.0672,0.0655,-0.0486,0.0238,2068,2019-08-07 16:15:21:118
4.9535,-8.391,1.428,-0.4794,-0.1702,0.0672,0.0655,-0.0486,0.0238,2074,2019-08-07 16:15:21:124
4.9152,-8.3958,1.4846,-0.4794,-0.1702,0.0672,0.0676,-0.0412,0.027,2078,2019-08-07 16:15:21:128
4.9152,-8.3958,1.4846,-0.3598,-0.1402,-0.2313,0.0676,-0.0412,0.027,2084,2019-08-07 16:15:21:134
4.9152,-8.3958,1.4846,-0.3598,-0.1402,-0.2313,0.0911,-0.0614,0.0152,2089,2019-08-07 16:15:21:139
4.7382,-8.3338,1.8475,-0.2018,-0.3204,-0.3942,0.0911,-0.0614,0.0152,2094,2019-08-07 16:15:21:144
4.7382,-8.3338,1.8475,-0.2018,-0.3204,-0.3942,0.0911,-0.0614,0.0152,2098,2019-08-07 16:15:21:148
4.7382,-8.3338,1.8475,-0.2018,-0.3204,-0.3942,0.0921,-0.1392,0.0291,2104,2019-08-07 16:15:21:154
4.7382,-8.3338,1.8475,-0.2018,-0.3204,-0.3942,0.0921,-0.1392,0.0291,2109,2019-08-07 16:15:21:159
4.8291,-8.1714,1.7108,-0.4342,-0.4092,-0.2807,0.0825,-0.1839,0.0408,2114,2019-08-07 16:15:21:164
4.8291,-8.1714,1.7108,-0.4342,-0.4092,-0.2807,0.0825,-0.1839,0.0408,2119,2019-08-07 16:15:21:169
4.8291,-8.1714,1.7108,-0.4342,-0.4092,-0.2807,0.0889,-0.2191,0.0429,2124,2019-08-07 16:15:21:174
4.9439,-8.1953,1.8145,-0.4342,-0.4092,-0.2807,0.0889,-0.2191,0.0429,2129,2019-08-07 16:15:21:179
4.9439,-8.1953,1.8145,-0.556,-0.3222,-0.1975,0.0868,-0.2042,0.0547,2133,2019-08-07 16:15:21:183
4.9439,-8.1953,1.8145,-0.556,-0.3222,-0.1975,0.0868,-0.2042,0.0547,2139,2019-08-07 16:15:21:189
5.1744,-8.2765,1.5601,-0.7234,-0.3219,-0.0668,0.0868,-0.2042,0.0547,2144,2019-08-07 16:15:21:194
5.1744,-8.2765,1.5601,-0.7234,-0.3219,-0.0668,0.0804,-0.1626,0.0451,2149,2019-08-07 16:15:21:199
5.1409,-8.2288,1.5743,-0.7234,-0.3219,-0.0668,0.0804,-0.1626,0.0451,2154,2019-08-07 16:15:21:204
5.1409,-8.2288,1.5743,-0.7234,-0.3219,-0.0668,0.0804,-0.1626,0.0451,2159,2019-08-07 16:15:21:209
5.1409,-8.2288,1.5743,-0.6355,-0.3633,-0.1387,0.0783,-0.0881,0.0365,2164,2019-08-07 16:15:21:214
5.1457,-8.2813,1.5507,-0.6355,-0.3633,-0.1387,0.0783,-0.0881,0.0365,2169,2019-08-07 16:15:21:219
5.1457,-8.2813,1.5507,-0.6355,-0.3633,-0.1387,0.0495,-0.0454,0.027,2174,2019-08-07 16:15:21:224
5.0787,-8.3768,1.6261,-0.6355,-0.3633,-0.1387,0.0495,-0.0454,0.027,2179,2019-08-07 16:15:21:229
5.0787,-8.3768,1.6261,-0.5052,-0.1756,-0.1803,0.0314,-0.0316,0.0238,2184,2019-08-07 16:15:21:234
5.0787,-8.3768,1.6261,-0.5052,-0.1756,-0.1803,0.0314,-0.0316,0.0238,2189,2019-08-07 16:15:21:239
5.05,-8.4961,1.6214,-0.5052,-0.1756,-0.1803,0.0239,-0.0327,0.0291,2194,2019-08-07 16:15:21:244
5.05,-8.4961,1.6214,-0.5052,-0.1756,-0.1803,0.0239,-0.0327,0.0291,2200,2019-08-07 16:15:21:250
5.05,-8.4961,1.6214,-0.5059,-0.0752,-0.1632,0.041,-0.0316,0.0419,2204,2019-08-07 16:15:21:254
4.9973,-8.5487,1.6591,-0.5059,-0.0752,-0.1632,0.041,-0.0316,0.0419,2209,2019-08-07 16:15:21:259
4.9973,-8.5487,1.6591,-0.5059,-0.0752,-0.1632,0.0729,-0.0124,0.06,2215,2019-08-07 16:15:21:265
4.7294,-8.4914,1.7911,-0.5059,-0.0752,-0.1632,0.0729,-0.0124,0.06,2219,2019-08-07 16:15:21:269
4.7294,-8.4914,1.7911,-0.5059,-0.0752,-0.1632,0.0729,-0.0124,0.06,2224,2019-08-07 16:15:21:274
4.7294,-8.4914,1.7911,-0.1547,-0.0772,-0.3074,0.09,-0.0518,0.0792,2228,2019-08-07 16:15:21:278
4.6624,-8.477,1.8053,-0.1547,-0.0772,-0.3074,0.09,-0.0518,0.0792,2234,2019-08-07 16:15:21:284
4.6624,-8.477,1.8053,-0.1547,-0.0772,-0.3074,0.0857,-0.1413,0.0781,2239,2019-08-07 16:15:21:289
4.7151,-8.372,1.7487,-0.231,-0.2238,-0.2516,0.0857,-0.1413,0.0781,2244,2019-08-07 16:15:21:294
4.7151,-8.372,1.7487,-0.231,-0.2238,-0.2516,0.0857,-0.1413,0.0781,2249,2019-08-07 16:15:21:299
4.7151,-8.372,1.7487,-0.231,-0.2238,-0.2516,0.0783,-0.152,0.0653,2253,2019-08-07 16:15:21:303
4.7151,-8.372,1.7487,-0.231,-0.2238,-0.2516,0.0783,-0.152,0.0653,2259,2019-08-07 16:15:21:309
4.672,-8.372,1.6544,-0.2507,-0.2025,-0.1941,0.0655,-0.1403,0.0653,2263,2019-08-07 16:15:21:313
4.672,-8.372,1.6544,-0.2507,-0.2025,-0.1941,0.0655,-0.1403,0.0653,2269,2019-08-07 16:15:21:319
4.672,-8.372,1.6544,-0.2507,-0.2025,-0.1941,0.0655,-0.1403,0.0653,2273,2019-08-07 16:15:21:323
4.873,-8.4198,1.6403,-0.3971,-0.1801,-0.1421,0.0644,-0.1126,0.0674,2279,2019-08-07 16:15:21:329
4.873,-8.4198,1.6403,-0.3971,-0.1801,-0.1421,0.0644,-0.1126,0.0674,2284,2019-08-07 16:15:21:334
4.873,-8.4198,1.6403,-0.3971,-0.1801,-0.1421,0.058,-0.054,0.0547,2289,2019-08-07 16:15:21:339
5.0452,-8.2622,1.6026,-0.5015,-0.4296,0.0134,0.058,-0.054,0.0547,2294,2019-08-07 16:15:21:344
5.0452,-8.2622,1.6026,-0.5015,-0.4296,0.0134,0.0229,-0.0039,0.0493,2299,2019-08-07 16:15:21:349
5.0452,-8.2622,1.6026,-0.5015,-0.4296,0.0134,0.0229,-0.0039,0.0493,2304,2019-08-07 16:15:21:354
4.8873,-8.1095,1.4093,-0.5015,-0.4296,0.0134,-0.0283,0.0217,0.0504,2309,2019-08-07 16:15:21:359
4.8873,-8.1095,1.4093,-0.3385,-0.4129,-0.011,-0.0283,0.0217,0.0504,2314,2019-08-07 16:15:21:364
4.8873,-8.1095,1.4093,-0.3385,-0.4129,-0.011,-0.0655,0.0249,0.0536,2319,2019-08-07 16:15:21:369
4.7294,-8.3338,1.5743,-0.3385,-0.4129,-0.011,-0.0655,0.0249,0.0536,2323,2019-08-07 16:15:21:373
4.7294,-8.3338,1.5743,-0.3385,-0.4129,-0.011,-0.0655,0.0249,0.0536,2329,2019-08-07 16:15:21:379
4.629,-8.458,1.5601,-0.1683,-0.1505,-0.066,-0.0485,0.0025,0.0461,2334,2019-08-07 16:15:21:384
4.629,-8.458,1.5601,-0.1683,-0.1505,-0.066,-0.0485,0.0025,0.0461,2339,2019-08-07 16:15:21:389
4.629,-8.458,1.5601,-0.1683,-0.1505,-0.066,-0.0197,-0.038,0.0419,2344,2019-08-07 16:15:21:394
4.5381,-8.3768,1.5696,-0.1683,-0.1505,-0.066,-0.0197,-0.038,0.0419,2349,2019-08-07 16:15:21:399
4.5381,-8.3768,1.5696,-0.1683,-0.1505,-0.066,0.0144,-0.119,0.0451,2353,2019-08-07 16:15:21:403
4.5811,-8.4102,1.5884,-0.0958,-0.1872,-0.096,0.0144,-0.119,0.0451,2359,2019-08-07 16:15:21:409
4.5811,-8.4102,1.5884,-0.0958,-0.1872,-0.096,0.0442,-0.1616,0.0387,2364,2019-08-07 16:15:21:414
4.5811,-8.4102,1.5884,-0.0958,-0.1872,-0.096,0.0442,-0.1616,0.0387,2369,2019-08-07 16:15:21:419
4.5811,-8.4102,1.5884,-0.0958,-0.1872,-0.096,0.0442,-0.1616,0.0387,2374,2019-08-07 16:15:21:424
4.7438,-8.2765,1.6167,-0.3296,-0.2881,-0.1349,0.0644,-0.1935,0.027,2379,2019-08-07 16:15:21:429
4.7438,-8.2765,1.6167,-0.3296,-0.2881,-0.1349,0.0644,-0.1935,0.027,2385,2019-08-07 16:15:21:435
4.7438,-8.2765,1.6167,-0.3296,-0.2881,-0.1349,0.0516,-0.2063,0.011,2388,2019-08-07 16:15:21:438
4.9734,-8.2097,1.4612,-0.3296,-0.2881,-0.1349,0.0516,-0.2063,0.011,2394,2019-08-07 16:15:21:444
4.9734,-8.2097,1.4612,-0.6472,-0.4,-0.0063,0.0282,-0.1733,3.0E-4,2399,2019-08-07 16:15:21:449
4.9734,-8.2097,1.4612,-0.6472,-0.4,-0.0063,0.0282,-0.1733,3.0E-4,2404,2019-08-07 16:15:21:454
4.9734,-8.2097,1.4612,-0.6472,-0.4,-0.0063,0.0282,-0.1733,3.0E-4,2408,2019-08-07 16:15:21:458
5.3275,-8.2909,1.4093,-0.8569,-0.317,0.0588,0.0048,-0.1243,-0.0071,2414,2019-08-07 16:15:21:464
5.3275,-8.2909,1.4093,-0.8569,-0.317,0.0588,0.0048,-0.1243,-0.0071,2419,2019-08-07 16:15:21:469
5.3275,-8.2909,1.4093,-0.8569,-0.317,0.0588,-0.0187,0.0089,-0.022,2424,2019-08-07 16:15:21:474
5.3322,-8.3482,1.3103,-0.803,-0.2266,0.0752,-0.0187,0.0089,-0.022,2429,2019-08-07 16:15:21:479
5.3322,-8.3482,1.3103,-0.803,-0.2266,0.0752,-0.024,0.0717,-0.0263,2433,2019-08-07 16:15:21:483
4.9591,-8.3291,1.4329,-0.803,-0.2266,0.0752,-0.024,0.0717,-0.0263,2439,2019-08-07 16:15:21:489
4.9591,-8.3291,1.4329,-0.803,-0.2266,0.0752,-0.0187,0.0717,-0.0189,2444,2019-08-07 16:15:21:494
4.9591,-8.3291,1.4329,-0.3713,-0.2374,-0.1061,-0.0187,0.0717,-0.0189,2448,2019-08-07 16:15:21:498
4.806,-8.4675,1.6638,-0.3713,-0.2374,-0.1061,0.0058,0.0057,-0.0093,2454,2019-08-07 16:15:21:504
4.806,-8.4675,1.6638,-0.2836,-0.0835,-0.2455,0.0058,0.0057,-0.0093,2459,2019-08-07 16:15:21:509
4.7725,-8.4436,1.6968,-0.2836,-0.0835,-0.2455,0.0293,-0.0273,-0.0189,2465,2019-08-07 16:15:21:515
4.7725,-8.4436,1.6968,-0.2836,-0.0835,-0.2455,0.0293,-0.0273,-0.0189,2469,2019-08-07 16:15:21:519
4.7725,-8.4436,1.6968,-0.2836,-0.0835,-0.2455,0.0293,-0.0273,-0.0189,2474,2019-08-07 16:15:21:524
4.6672,-8.3768,1.6214,-0.1626,-0.2467,-0.1474,0.041,-0.0721,-0.0157,2478,2019-08-07 16:15:21:528
4.6672,-8.3768,1.6214,-0.1626,-0.2467,-0.1474,0.041,-0.0721,-0.0157,2484,2019-08-07 16:15:21:534
4.6672,-8.3768,1.6214,-0.1626,-0.2467,-0.1474,0.0314,-0.0923,-0.0167,2489,2019-08-07 16:15:21:539
4.7916,-8.372,1.6308,-0.1626,-0.2467,-0.1474,0.0314,-0.0923,-0.0167,2494,2019-08-07 16:15:21:544
4.7916,-8.372,1.6308,-0.3319,-0.1665,-0.1909,0.0271,-0.0881,-0.0157,2499,2019-08-07 16:15:21:549
4.7916,-8.372,1.6308,-0.3319,-0.1665,-0.1909,0.0271,-0.0881,-0.0157,2504,2019-08-07 16:15:21:554
4.7916,-8.372,1.6308,-0.3319,-0.1665,-0.1909,0.0271,-0.0881,-0.0157,2508,2019-08-07 16:15:21:558
4.9064,-8.4484,1.5554,-0.3998,-0.1406,-0.0876,0.0207,-0.054,-0.0178,2514,2019-08-07 16:15:21:564
4.9064,-8.4484,1.5554,-0.3998,-0.1406,-0.0876,0.0069,-0.0305,-0.0231,2519,2019-08-07 16:15:21:569
4.9064,-8.4484,1.5554,-0.3998,-0.1406,-0.0876,0.0069,-0.0305,-0.0231,2524,2019-08-07 16:15:21:574
4.983,-8.52,1.6167,-0.4685,-0.108,-0.1452,0.0186,-0.0135,-0.0242,2529,2019-08-07 16:15:21:579
4.983,-8.52,1.6167,-0.4685,-0.108,-0.1452,0.0186,-0.0135,-0.0242,2534,2019-08-07 16:15:21:584
4.983,-8.52,1.6167,-0.4685,-0.108,-0.1452,0.0186,-0.0135,-0.0242,2538,2019-08-07 16:15:21:588
5.093,-8.4245,1.5743,-0.4685,-0.108,-0.1452,0.025,-0.0028,-0.0199,2544,2019-08-07 16:15:21:594
5.093,-8.4245,1.5743,-0.6231,-0.1986,-0.1174,0.025,-0.0028,-0.0199,2549,2019-08-07 16:15:21:599
5.0835,-8.267,1.5366,-0.6231,-0.1986,-0.1174,0.0218,0.0067,-0.0082,2554,2019-08-07 16:15:21:604
5.0835,-8.267,1.5366,-0.5913,-0.3206,-0.0346,0.0218,0.0067,-0.0082,2559,2019-08-07 16:15:21:609
5.0835,-8.267,1.5366,-0.5913,-0.3206,-0.0346,0.0144,0.0195,0.0056,2564,2019-08-07 16:15:21:614
5.0691,-8.31,1.612,-0.5913,-0.3206,-0.0346,0.0144,0.0195,0.0056,2568,2019-08-07 16:15:21:618
5.0691,-8.31,1.612,-0.5913,-0.3206,-0.0346,0.0144,0.0195,0.0056,2574,2019-08-07 16:15:21:624
5.0691,-8.31,1.612,-0.4216,-0.333,-0.1103,0.0048,0.027,0.012,2579,2019-08-07 16:15:21:629
4.9017,-8.3338,1.6261,-0.4216,-0.333,-0.1103,0.0048,0.027,0.012,2584,2019-08-07 16:15:21:634
4.9017,-8.3338,1.6261,-0.4216,-0.333,-0.1103,0.0048,0.027,0.012,2588,2019-08-07 16:15:21:638
4.9017,-8.3338,1.6261,-0.4216,-0.333,-0.1103,-0.0101,0.0067,0.0195,2594,2019-08-07 16:15:21:644
4.9543,-8.3625,1.5224,-0.417,-0.1518,-0.0216,-0.0101,0.0067,0.0195,2599,2019-08-07 16:15:21:649
4.9543,-8.3625,1.5224,-0.417,-0.1518,-0.0216,-0.0357,-0.0124,0.0025,2604,2019-08-07 16:15:21:654
4.9304,-8.4723,1.4847,-0.417,-0.1518,-0.0216,-0.0357,-0.0124,0.0025,2609,2019-08-07 16:15:21:659
4.9304,-8.4723,1.4847,-0.417,-0.1518,-0.0216,-0.0283,0.0046,-0.0018,2613,2019-08-07 16:15:21:663
4.9304,-8.4723,1.4847,-0.3524,-0.1039,0.043,-0.0283,0.0046,-0.0018,2619,2019-08-07 16:15:21:669
4.9304,-8.4723,1.4847,-0.3524,-0.1039,0.043,-0.0283,0.0046,-0.0018,2623,2019-08-07 16:15:21:673
4.8586,-8.5487,1.4517,-0.3524,-0.1039,0.043,-0.0197,0.011,0.0025,2629,2019-08-07 16:15:21:679
4.8586,-8.5487,1.4517,-0.3524,-0.1039,0.043,-0.0197,0.011,0.0025,2634,2019-08-07 16:15:21:684
4.8586,-8.5487,1.4517,-0.3524,-0.1039,0.043,-0.008,4.0E-4,0.0035,2639,2019-08-07 16:15:21:689
4.9543,-8.5725,1.4329,-0.4222,-0.003,0.0356,-0.008,4.0E-4,0.0035,2644,2019-08-07 16:15:21:694
4.9543,-8.5725,1.4329,-0.4222,-0.003,0.0356,0.0122,-0.0146,-0.0135,2648,2019-08-07 16:15:21:698
4.9543,-8.5725,1.4329,-0.4222,-0.003,0.0356,0.0122,-0.0146,-0.0135,2654,2019-08-07 16:15:21:704
4.9543,-8.5725,1.4329,-0.4222,-0.003,0.0356,0.0122,-0.0146,-0.0135,2658,2019-08-07 16:15:21:708
4.8586,-8.415,1.5177,-0.3655,-0.1962,-0.0183,0.0389,0.0078,-0.0061,2664,2019-08-07 16:15:21:714
4.8586,-8.415,1.5177,-0.3655,-0.1962,-0.0183,0.0389,0.0078,-0.0061,2668,2019-08-07 16:15:21:718
4.8586,-8.415,1.5177,-0.3655,-0.1962,-0.0183,0.0389,0.0078,-0.0061,2674,2019-08-07 16:15:21:724
4.9064,-8.3004,1.513,-0.2443,-0.2324,-0.0309,0.0218,0.0163,0.0056,2679,2019-08-07 16:15:21:729
4.9064,-8.3004,1.513,-0.2443,-0.2324,-0.0309,0.0218,0.0163,0.0056,2684,2019-08-07 16:15:21:734
4.9064,-8.3004,1.513,-0.2443,-0.2324,-0.0309,0.008,0.0046,0.0152,2688,2019-08-07 16:15:21:738
4.7916,-8.4866,1.5696,-0.2543,-0.0844,-0.0909,0.008,0.0046,0.0152,2694,2019-08-07 16:15:21:744
4.7916,-8.4866,1.5696,-0.2543,-0.0844,-0.0909,0.0112,-0.0135,0.0131,2698,2019-08-07 16:15:21:748
4.7916,-8.4866,1.5696,-0.2543,-0.0844,-0.0909,0.0112,-0.0135,0.0131,2704,2019-08-07 16:15:21:754
4.6624,-8.4389,1.5554,-0.2543,-0.0844,-0.0909,0.0026,-0.0859,0.011,2709,2019-08-07 16:15:21:759
4.6624,-8.4389,1.5554,-0.0675,-0.2274,-0.0057,0.0026,-0.0859,0.011,2714,2019-08-07 16:15:21:764
4.6624,-8.4389,1.5554,-0.0675,-0.2274,-0.0057,-0.0389,-0.1754,0.0099,2720,2019-08-07 16:15:21:770
4.6624,-8.4389,1.5554,-0.0675,-0.2274,-0.0057,-0.0389,-0.1754,0.0099,2724,2019-08-07 16:15:21:774
4.6624,-8.3482,1.6214,-0.0675,-0.2274,-0.0057,-0.0389,-0.1754,0.0099,2729,2019-08-07 16:15:21:779
4.6624,-8.3482,1.6214,-0.1583,-0.1903,-0.05,-0.0528,-0.2276,0.0025,2734,2019-08-07 16:15:21:784
4.7246,-8.458,1.4706,-0.1583,-0.1903,-0.05,-0.0528,-0.2276,0.0025,2739,2019-08-07 16:15:21:789
4.7246,-8.458,1.4706,-0.1583,-0.1903,-0.05,-0.0677,-0.2787,-0.0082,2744,2019-08-07 16:15:21:794
4.7246,-8.458,1.4706,-0.1583,-0.1903,-0.05,-0.0677,-0.2787,-0.0082,2749,2019-08-07 16:15:21:799
5.1791,-8.372,1.5696,-0.6258,-0.1995,-0.1439,0.0026,-0.1669,-0.0284,2754,2019-08-07 16:15:21:804
5.1791,-8.372,1.5696,-0.6258,-0.1995,-0.1439,0.0026,-0.1669,-0.0284,2759,2019-08-07 16:15:21:809
5.3035,-8.267,1.3103,-0.7857,-0.2968,0.0712,0.0346,-0.0763,-0.0327,2764,2019-08-07 16:15:21:814
5.3035,-8.267,1.3103,-0.7857,-0.2968,0.0712,0.0346,-0.0763,-0.0327,2769,2019-08-07 16:15:21:819
5.3992,-8.267,1.3857,-0.7857,-0.2968,0.0712,0.0442,0.0888,-0.0199,2774,2019-08-07 16:15:21:824
5.3992,-8.267,1.3857,-0.7857,-0.2968,0.0712,0.0442,0.0888,-0.0199,2779,2019-08-07 16:15:21:829
5.3992,-8.267,1.3857,-0.7478,-0.2331,-0.1742,0.0442,0.0888,-0.0199,2783,2019-08-07 16:15:21:833
5.2079,-8.3959,1.7346,-0.7478,-0.2331,-0.1742,0.0815,0.2432,0.0035,2789,2019-08-07 16:15:21:839
5.2079,-8.3959,1.7346,-0.7478,-0.2331,-0.1742,0.0815,0.2432,0.0035,2795,2019-08-07 16:15:21:845
5.2079,-8.3959,1.7346,-0.7478,-0.2331,-0.1742,0.0538,0.2028,-0.0082,2798,2019-08-07 16:15:21:848
4.7725,-8.2049,1.6214,-0.2047,-0.3527,-0.1595,0.0538,0.2028,-0.0082,2804,2019-08-07 16:15:21:854
4.7725,-8.2049,1.6214,-0.2047,-0.3527,-0.1595,-0.0048,0.1356,-0.0252,2809,2019-08-07 16:15:21:859
4.5333,-8.057,2.0975,-0.2047,-0.3527,-0.1595,-0.0048,0.1356,-0.0252,2814,2019-08-07 16:15:21:864
4.5333,-8.057,2.0975,-0.2047,-0.3527,-0.1595,-0.0315,-0.0209,-0.0082,2819,2019-08-07 16:15:21:869
4.5333,-8.057,2.0975,-0.1023,-0.326,-0.5776,-0.0315,-0.0209,-0.0082,2824,2019-08-07 16:15:21:874
4.7916,-8.3147,1.909,-0.1023,-0.326,-0.5776,-0.0378,-0.104,-0.0082,2828,2019-08-07 16:15:21:878
4.7916,-8.3147,1.909,-0.1023,-0.326,-0.5776,-0.0378,-0.104,-0.0082,2834,2019-08-07 16:15:21:884
4.7916,-8.3147,1.909,-0.1023,-0.326,-0.5776,-0.0378,-0.104,-0.0082,2838,2019-08-07 16:15:21:888