ACCELEROMETER X (m/s²),ACCELEROMETER Y (m/s²),ACCELEROMETER Z (m/s²),LINEAR ACCELERATION X (m/s²),LINEAR ACCELERATION Y (m/s²),LINEAR ACCELERATION Z (m/s²),GYROSCOPE X (rad/s),GYROSCOPE Y (rad/s),GYROSCOPE Z (rad/s),Time since start in ms ,YYYY-MO-DD HH-MI-SS_SSS
4.6846,-8.4339,1.6635,-0.0642,-0.0359,-0.1333,0.0122,0.0185,0.0195,3,2019-08-07 16:15:24:050
4.6846,-8.4339,1.6635,-0.0642,-0.0359,-0.1333,0.0122,0.0185,0.0195,8,2019-08-07 16:15:24:055
4.6846,-8.4339,1.6635,-0.0642,-0.0359,-0.1333,0.0122,0.0185,0.0195,13,2019-08-07 16:15:24:060
4.6798,-8.41,1.5456,-0.0394,-0.0897,0.022,0.0058,0.0206,0.011,18,2019-08-07 16:15:24:065
4.6798,-8.41,1.5456,-0.0394,-0.0897,0.022,0.0058,0.0206,0.011,22,2019-08-07 16:15:24:069
4.6798,-8.4291,1.6116,-0.0394,-0.0897,0.022,-0.0048,0.0195,0.0024,28,2019-08-07 16:15:24:075
4.6798,-8.4291,1.6116,-0.0394,-0.0897,0.022,-0.0048,0.0195,0.0024,32,2019-08-07 16:15:24:079
4.6798,-8.4291,1.6116,-0.126,-0.104,-0.0424,-0.0123,0.011,-0.0082,38,2019-08-07 16:15:24:085
4.7707,-8.3909,1.5692,-0.126,-0.104,-0.0424,-0.0123,0.011,-0.0082,43,2019-08-07 16:15:24:090
4.7707,-8.3909,1.5692,-0.126,-0.104,-0.0424,-0.0229,-0.006,-0.0135,48,2019-08-07 16:15:24:095
4.8711,-8.4053,1.5362,-0.126,-0.104,-0.0424,-0.0229,-0.006,-0.0135,52,2019-08-07 16:15:24:099
4.8711,-8.4053,1.5362,-0.2473,-0.0743,0.0252,-0.0229,-0.006,-0.0135,58,2019-08-07 16:15:24:105
4.8711,-8.4053,1.5362,-0.2473,-0.0743,0.0252,-0.0208,-0.006,-0.0093,63,2019-08-07 16:15:24:110
4.9286,-8.453,1.5456,-0.2473,-0.0743,0.0252,-0.0208,-0.006,-0.0093,68,2019-08-07 16:15:24:115
4.9286,-8.453,1.5456,-0.2473,-0.0743,0.0252,-0.0133,0.011,-0.0114,73,2019-08-07 16:15:24:120
4.9286,-8.453,1.5456,-0.2533,-0.0347,0.1068,-0.0133,0.011,-0.0114,77,2019-08-07 16:15:24:124
4.8807,-8.4435,1.4938,-0.2533,-0.0347,0.1068,-0.0016,0.0174,3.0E-4,83,2019-08-07 16:15:24:130
4.8807,-8.4435,1.4938,-0.2533,-0.0347,0.1068,-0.0016,0.0174,3.0E-4,87,2019-08-07 16:15:24:134
4.852,-8.5342,1.5645,-0.2533,-0.0347,0.1068,0.0133,0.0376,0.0046,93,2019-08-07 16:15:24:140
4.852,-8.5342,1.5645,-0.2101,0.0183,0.0339,0.0133,0.0376,0.0046,97,2019-08-07 16:15:24:144
4.852,-8.5342,1.5645,-0.2101,0.0183,0.0339,0.0261,0.0472,3.0E-4,103,2019-08-07 16:15:24:150
4.6654,-8.4721,1.6257,-0.2101,0.0183,0.0339,0.0261,0.0472,3.0E-4,108,2019-08-07 16:15:24:155
4.6654,-8.4721,1.6257,-0.2101,0.0183,0.0339,0.0314,0.0302,0.0046,113,2019-08-07 16:15:24:160
4.5936,-8.3814,1.687,0.0799,-0.0908,-0.0796,0.0314,0.0302,0.0046,118,2019-08-07 16:15:24:165
4.5936,-8.3814,1.687,0.0799,-0.0908,-0.0796,0.0314,0.0302,0.0046,123,2019-08-07 16:15:24:170
4.5936,-8.3814,1.687,0.0799,-0.0908,-0.0796,0.0271,0.0089,3.0E-4,129,2019-08-07 16:15:24:176
4.5793,-8.3862,1.6493,0.0799,-0.0908,-0.0796,0.0271,0.0089,3.0E-4,133,2019-08-07 16:15:24:180
4.5793,-8.3862,1.6493,0.0268,-0.1708,-0.0454,0.0058,-0.0146,-0.0114,137,2019-08-07 16:15:24:184
4.685,-8.3337,1.5834,0.0268,-0.1708,-0.0454,0.0058,-0.0146,-0.0114,143,2019-08-07 16:15:24:190
4.685,-8.3337,1.5834,0.0268,-0.1708,-0.0454,-0.0101,-0.0273,-0.0189,148,2019-08-07 16:15:24:195
4.685,-8.3337,1.5834,0.0268,-0.1708,-0.0454,-0.0101,-0.0273,-0.0189,153,2019-08-07 16:15:24:200
4.7902,-8.3528,1.6117,-0.1407,-0.1401,-0.034,-0.0165,-0.0295,-0.0295,158,2019-08-07 16:15:24:205
4.7902,-8.3528,1.6117,-0.1407,-0.1401,-0.034,-0.0165,-0.0295,-0.0295,163,2019-08-07 16:15:24:210
4.7902,-8.3528,1.6117,-0.1407,-0.1401,-0.034,-0.0165,-0.0295,-0.0295,168,2019-08-07 16:15:24:215
4.9098,-8.4578,1.5268,-0.1407,-0.1401,-0.034,-0.0144,-0.0188,-0.0295,173,2019-08-07 16:15:24:220
4.9098,-8.4578,1.5268,-0.2816,-0.0273,0.1774,-0.0197,-0.0028,-0.0306,179,2019-08-07 16:15:24:226
4.9098,-8.4578,1.5268,-0.2816,-0.0273,0.1774,-0.0197,-0.0028,-0.0306,183,2019-08-07 16:15:24:230
4.9337,-8.453,1.4279,-0.2816,-0.0273,0.1774,-0.0197,-0.0028,-0.0306,187,2019-08-07 16:15:24:234
4.9337,-8.453,1.4279,-0.2816,-0.0273,0.1774,-0.0101,0.0036,-0.0189,193,2019-08-07 16:15:24:240
4.9002,-8.5628,1.4891,-0.2374,0.0756,0.0794,-0.0101,0.0036,-0.0189,198,2019-08-07 16:15:24:245
4.9002,-8.5628,1.4891,-0.2374,0.0756,0.0794,5.0E-4,0.0089,-0.0082,203,2019-08-07 16:15:24:250
4.9002,-8.5628,1.4891,-0.2374,0.0756,0.0794,5.0E-4,0.0089,-0.0082,208,2019-08-07 16:15:24:255
4.8954,-8.5963,1.574,-0.2312,0.1097,-0.0055,5.0E-4,0.0089,-0.0082,213,2019-08-07 16:15:24:260
4.8954,-8.5963,1.574,-0.2312,0.1097,-0.0055,0.0218,0.0025,-0.0018,217,2019-08-07 16:15:24:264
4.7567,-8.5008,1.5693,-0.2312,0.1097,-0.0055,0.0218,0.0025,-0.0018,223,2019-08-07 16:15:24:270
4.7567,-8.5008,1.5693,-0.1392,-0.0704,0.0025,0.0207,0.0025,0.0024,228,2019-08-07 16:15:24:275
4.7567,-8.5008,1.5693,-0.1392,-0.0704,0.0025,0.0207,0.0025,0.0024,233,2019-08-07 16:15:24:280
4.7471,-8.4148,1.5976,-0.1392,-0.0704,0.0025,0.0101,0.0206,0.0046,238,2019-08-07 16:15:24:285
4.7471,-8.4148,1.5976,-0.1392,-0.0704,0.0025,0.0101,0.0206,0.0046,243,2019-08-07 16:15:24:290
4.7184,-8.3432,1.6164,-0.0535,-0.1416,-0.041,-0.0048,0.0366,3.0E-4,248,2019-08-07 16:15:24:295
4.7184,-8.3432,1.6164,-0.0535,-0.1416,-0.041,-0.0048,0.0366,3.0E-4,252,2019-08-07 16:15:24:299
4.7184,-8.3432,1.6164,-0.0535,-0.1416,-0.041,-0.0048,0.0366,3.0E-4,258,2019-08-07 16:15:24:305
4.6658,-8.3767,1.6588,-0.0535,-0.1416,-0.041,-0.0155,0.0344,-0.0061,263,2019-08-07 16:15:24:310
4.6658,-8.3767,1.6588,0.0136,-0.084,-0.1148,-0.0155,0.0344,-0.0061,267,2019-08-07 16:15:24:314
4.6658,-8.3767,1.6588,0.0136,-0.084,-0.1148,-0.0197,0.011,-0.0146,273,2019-08-07 16:15:24:320
4.6467,-8.4196,1.6353,0.0136,-0.084,-0.1148,-0.0197,0.011,-0.0146,278,2019-08-07 16:15:24:325
4.6467,-8.4196,1.6353,0.0136,-0.084,-0.1148,-0.0208,-0.0124,-0.0135,283,2019-08-07 16:15:24:330
4.7806,-8.4435,1.5457,-0.1126,-0.04,0.0278,-0.0208,-0.0124,-0.0135,287,2019-08-07 16:15:24:334
4.7806,-8.4435,1.5457,-0.1126,-0.04,0.0278,-0.0187,-0.0177,-0.0189,293,2019-08-07 16:15:24:340
4.8189,-8.4196,1.5693,-0.1126,-0.04,0.0278,-0.0187,-0.0177,-0.0189,298,2019-08-07 16:15:24:345
4.8189,-8.4196,1.5693,-0.1126,-0.04,0.0278,-0.0101,-0.0273,-0.0199,303,2019-08-07 16:15:24:350
4.8189,-8.4196,1.5693,-0.2079,-0.0762,0.0137,-0.0101,-0.0273,-0.0199,308,2019-08-07 16:15:24:355
4.8045,-8.4674,1.5316,-0.2079,-0.0762,0.0137,-0.0048,-0.0082,-0.0135,313,2019-08-07 16:15:24:360
4.8045,-8.4674,1.5316,-0.2079,-0.0762,0.0137,-0.0048,-0.0082,-0.0135,317,2019-08-07 16:15:24:364
4.8045,-8.4674,1.5316,-0.2079,-0.0762,0.0137,-0.0048,-0.0082,-0.0135,323,2019-08-07 16:15:24:370
4.8476,-8.5103,1.4844,-0.2079,-0.0762,0.0137,0.0069,-7.0E-4,-0.0114,327,2019-08-07 16:15:24:374
4.8476,-8.5103,1.4844,-0.1567,0.0543,0.0501,0.0069,-7.0E-4,-0.0114,333,2019-08-07 16:15:24:380
4.8141,-8.5437,1.541,-0.1567,0.0543,0.0501,0.0122,0.0046,-0.0029,338,2019-08-07 16:15:24:385
4.8141,-8.5437,1.541,-0.1567,0.0543,0.0501,0.0122,0.0046,-0.0029,343,2019-08-07 16:15:24:390
4.8141,-8.5437,1.541,-0.1555,0.0794,0.0154,0.0229,0.011,-8.0E-4,348,2019-08-07 16:15:24:395
4.8141,-8.5342,1.6117,-0.1555,0.0794,0.0154,0.0229,0.011,-8.0E-4,353,2019-08-07 16:15:24:400
4.8141,-8.5342,1.6117,-0.1555,0.0794,0.0154,0.0229,0.011,-8.0E-4,357,2019-08-07 16:15:24:404
4.7519,-8.4817,1.5551,-0.1555,0.0794,0.0154,0.0271,0.0153,-0.0018,363,2019-08-07 16:15:24:410
4.7519,-8.4817,1.5551,-0.1072,-0.0674,0.0208,0.0144,0.0121,0.0035,368,2019-08-07 16:15:24:415
4.7519,-8.4817,1.5551,-0.1072,-0.0674,0.0208,0.0144,0.0121,0.0035,373,2019-08-07 16:15:24:420
4.7854,-8.4578,1.5834,-0.1072,-0.0674,0.0208,0.0144,0.0121,0.0035,378,2019-08-07 16:15:24:425
4.7854,-8.4578,1.5834,-0.1072,-0.0674,0.0208,0.0101,0.0078,0.0067,383,2019-08-07 16:15:24:430
4.7854,-8.4578,1.5834,-0.1072,-0.0674,0.0208,0.0101,0.0078,0.0067,388,2019-08-07 16:15:24:435
4.771,-8.4387,1.6541,-0.0932,-0.0384,-0.0754,0.0058,0.0025,0.0046,392,2019-08-07 16:15:24:439
4.771,-8.4387,1.6541,-0.0932,-0.0384,-0.0754,0.0058,0.0025,0.0046,397,2019-08-07 16:15:24:444
4.771,-8.4387,1.6541,-0.0932,-0.0384,-0.0754,-0.0016,-0.0071,0.0024,403,2019-08-07 16:15:24:450
4.7614,-8.3957,1.574,-0.0932,-0.0384,-0.0754,-0.0016,-0.0071,0.0024,408,2019-08-07 16:15:24:455
4.7614,-8.3957,1.574,-0.1214,-0.0811,-0.0046,-0.0059,-0.005,0.0014,413,2019-08-07 16:15:24:460
4.8189,-8.3862,1.6211,-0.1214,-0.0811,-0.0046,-0.0059,-0.005,0.0014,417,2019-08-07 16:15:24:464
4.8189,-8.3862,1.6211,-0.1214,-0.0811,-0.0046,-0.0059,-0.005,0.0014,423,2019-08-07 16:15:24:470
4.8189,-8.3862,1.6211,-0.1214,-0.0811,-0.0046,5.0E-4,0.0099,-0.0018,428,2019-08-07 16:15:24:475
4.7949,-8.4053,1.607,-0.1158,-0.0711,-0.0282,5.0E-4,0.0099,-0.0018,433,2019-08-07 16:15:24:480
4.7949,-8.4053,1.607,-0.1158,-0.0711,-0.0282,-6.0E-4,0.0046,-0.0093,437,2019-08-07 16:15:24:484
4.7327,-8.4148,1.6117,-0.0526,-0.061,-0.0326,-6.0E-4,0.0046,-0.0093,443,2019-08-07 16:15:24:490
4.7327,-8.4148,1.6117,-0.0526,-0.061,-0.0326,0.0048,0.0025,-0.0093,447,2019-08-07 16:15:24:494
4.7327,-8.4148,1.6117,-0.0526,-0.061,-0.0326,0.0048,0.0025,-0.0093,453,2019-08-07 16:15:24:500
4.7662,-8.5055,1.6305,-0.0526,-0.061,-0.0326,0.0112,0.0046,-0.0082,458,2019-08-07 16:15:24:505
4.7662,-8.5055,1.6305,-0.0364,-0.0214,-0.0022,0.0112,0.0046,-0.0082,463,2019-08-07 16:15:24:510
4.7327,-8.4244,1.6305,-0.0364,-0.0214,-0.0022,0.0154,0.0046,-0.0146,468,2019-08-07 16:15:24:515
4.7327,-8.4244,1.6305,-0.0364,-0.0214,-0.0022,0.0154,0.0046,-0.0146,473,2019-08-07 16:15:24:520
4.7327,-8.4244,1.6305,-0.0364,-0.0214,-0.0022,0.0101,-0.0146,-0.0146,478,2019-08-07 16:15:24:525
4.7949,-8.4387,1.6447,-0.1095,-0.0334,-0.0616,0.0101,-0.0146,-0.0146,483,2019-08-07 16:15:24:530
4.7949,-8.4387,1.6447,-0.1095,-0.0334,-0.0616,0.0197,-0.0167,-0.0114,488,2019-08-07 16:15:24:535
4.8475,-8.4339,1.5504,-0.1603,-0.037,0.0333,0.0197,-0.0167,-0.0114,493,2019-08-07 16:15:24:540
4.8475,-8.4339,1.5504,-0.1603,-0.037,0.0333,0.0154,-0.0018,-0.0135,498,2019-08-07 16:15:24:545
4.8475,-8.4339,1.5504,-0.1603,-0.037,0.0333,0.0154,-0.0018,-0.0135,503,2019-08-07 16:15:24:550
4.8475,-8.4339,1.5504,-0.1603,-0.037,0.0333,0.0154,-0.0018,-0.0135,507,2019-08-07 16:15:24:554
4.8428,-8.3576,1.541,-0.1565,-0.0729,0.0157,0.0133,-0.0071,-0.0125,513,2019-08-07 16:15:24:560
4.8428,-8.3576,1.541,-0.1565,-0.0729,0.0157,0.0133,-0.0071,-0.0125,518,2019-08-07 16:15:24:565
4.881,-8.3719,1.5928,-0.1565,-0.0729,0.0157,0.0122,-0.0156,-0.0039,522,2019-08-07 16:15:24:569
4.881,-8.3719,1.5928,-0.1565,-0.0729,0.0157,0.0122,-0.0156,-0.0039,528,2019-08-07 16:15:24:575
4.8906,-8.4196,1.5881,-0.1731,-0.0237,0.0069,0.0112,-0.0039,-0.0061,533,2019-08-07 16:15:24:580
4.8906,-8.4196,1.5881,-0.1731,-0.0237,0.0069,0.0112,-0.0039,-0.0061,538,2019-08-07 16:15:24:585
4.8906,-8.4196,1.5881,-0.1731,-0.0237,0.0069,0.0112,0.0014,-0.0135,543,2019-08-07 16:15:24:590
4.7853,-8.3432,1.5457,-0.1731,-0.0237,0.0069,0.0112,0.0014,-0.0135,548,2019-08-07 16:15:24:595
4.7853,-8.3432,1.5457,-0.1459,-0.1266,0.027,0.0058,-0.0103,-0.0114,553,2019-08-07 16:15:24:600
4.8667,-8.4387,1.6117,-0.1459,-0.1266,0.027,0.0058,-0.0103,-0.0114,558,2019-08-07 16:15:24:605
4.8667,-8.4387,1.6117,-0.1459,-0.1266,0.027,0.0069,0.0014,-0.0135,563,2019-08-07 16:15:24:610
4.8667,-8.4387,1.6117,-0.1459,-0.1266,0.027,0.0069,0.0014,-0.0135,568,2019-08-07 16:15:24:615
4.771,-8.3671,1.5598,-0.0711,-0.0961,0.0284,0.0133,0.0249,-0.0135,572,2019-08-07 16:15:24:619
4.771,-8.3671,1.5598,-0.0711,-0.0961,0.0284,0.0133,0.0249,-0.0135,578,2019-08-07 16:15:24:625
4.771,-8.3671,1.5598,-0.0711,-0.0961,0.0284,0.0058,0.0142,-0.0125,582,2019-08-07 16:15:24:629
4.7136,-8.391,1.6117,-0.0711,-0.0961,0.0284,0.0058,0.0142,-0.0125,588,2019-08-07 16:15:24:635
4.7136,-8.391,1.6117,-0.0499,0.0202,-0.03,0.0016,-0.0018,-0.0103,593,2019-08-07 16:15:24:640
4.7805,-8.4101,1.6588,-0.0499,0.0202,-0.03,0.0016,-0.0018,-0.0103,599,2019-08-07 16:15:24:646
4.7805,-8.4101,1.6588,-0.0499,0.0202,-0.03,0.0016,-0.0018,-0.0103,603,2019-08-07 16:15:24:650
4.7805,-8.4101,1.6588,-0.0499,0.0202,-0.03,0.0037,-0.0039,-0.0114,607,2019-08-07 16:15:24:654
4.8284,-8.4387,1.5693,-0.0998,-0.0881,0.0265,0.0037,-0.0039,-0.0114,613,2019-08-07 16:15:24:660
4.8284,-8.4387,1.5693,-0.0998,-0.0881,0.0265,-0.0027,-0.0028,-8.0E-4,618,2019-08-07 16:15:24:665
4.8284,-8.4387,1.5693,-0.0998,-0.0881,0.0265,-0.0027,-0.0028,-8.0E-4,623,2019-08-07 16:15:24:670
4.8858,-8.4005,1.5645,-0.1804,-0.0591,0.0262,-0.0016,0.0014,3.0E-4,628,2019-08-07 16:15:24:675
4.8858,-8.4005,1.5645,-0.1804,-0.0591,0.0262,-0.0016,0.0014,3.0E-4,632,2019-08-07 16:15:24:679
4.9384,-8.391,1.5504,-0.1804,-0.0591,0.0262,-0.0048,0.011,-0.0039,638,2019-08-07 16:15:24:685
4.9384,-8.391,1.5504,-0.2264,-0.039,0.1013,-0.0048,0.011,-0.0039,643,2019-08-07 16:15:24:690
4.9384,-8.391,1.5504,-0.2264,-0.039,0.1013,-0.0048,0.011,-0.0039,647,2019-08-07 16:15:24:694
4.8954,-8.4005,1.5315,-0.2264,-0.039,0.1013,-0.0101,0.0238,-0.0061,653,2019-08-07 16:15:24:700
4.8954,-8.4005,1.5315,-0.2264,-0.039,0.1013,-0.0144,0.0323,-0.0061,658,2019-08-07 16:15:24:705
4.8045,-8.3719,1.607,-0.096,-0.086,-0.0164,-0.0144,0.0323,-0.0061,664,2019-08-07 16:15:24:711
4.8045,-8.3719,1.607,-0.096,-0.086,-0.0164,-0.0101,0.0163,-0.0093,668,2019-08-07 16:15:24:715
4.8045,-8.3719,1.607,-0.096,-0.086,-0.0164,-0.0101,0.0163,-0.0093,673,2019-08-07 16:15:24:720
4.7375,-8.4292,1.6588,-0.0283,-0.0283,-0.0682,-0.007,0.0014,-0.0103,678,2019-08-07 16:15:24:725
4.7375,-8.4292,1.6588,-0.0283,-0.0283,-0.0682,-0.007,0.0014,-0.0103,683,2019-08-07 16:15:24:730
4.7375,-8.4292,1.6588,-0.0283,-0.0283,-0.0682,-0.0112,-0.0103,-0.0103,688,2019-08-07 16:15:24:735
4.8044,-8.3671,1.64,-0.0283,-0.0283,-0.0682,-0.0112,-0.0103,-0.0103,693,2019-08-07 16:15:24:740
4.8044,-8.3671,1.64,-0.064,-0.0702,-0.0367,-0.0059,-0.0082,-0.0167,698,2019-08-07 16:15:24:745
4.7949,-8.3576,1.6164,-0.064,-0.0702,-0.0367,-0.0059,-0.0082,-0.0167,703,2019-08-07 16:15:24:750
4.7949,-8.3576,1.6164,-0.064,-0.0702,-0.0367,-0.0059,-0.0082,-0.0167,707,2019-08-07 16:15:24:754
4.7949,-8.3576,1.6164,-0.1034,-0.0349,-0.0423,-0.0048,0.0014,-0.0157,714,2019-08-07 16:15:24:761
4.7853,-8.348,1.6635,-0.1034,-0.0349,-0.0423,-0.0048,0.0014,-0.0157,717,2019-08-07 16:15:24:764
4.7853,-8.348,1.6635,-0.1034,-0.0349,-0.0423,-0.0048,0.011,-0.0178,723,2019-08-07 16:15:24:770
4.8666,-8.3862,1.5787,-0.1034,-0.0349,-0.0423,-0.0048,0.011,-0.0178,728,2019-08-07 16:15:24:775
4.8666,-8.3862,1.5787,-0.1034,-0.0349,-0.0423,-0.008,0.0163,-0.0167,732,2019-08-07 16:15:24:779
4.8666,-8.3862,1.5787,-0.1427,-0.0853,0.019,-0.008,0.0163,-0.0167,738,2019-08-07 16:15:24:785
4.8858,-8.3528,1.5504,-0.1427,-0.0853,0.019,-0.0101,0.0227,-0.0157,743,2019-08-07 16:15:24:790
4.8858,-8.3528,1.5504,-0.1427,-0.0853,0.019,-0.0101,0.0227,-0.0157,749,2019-08-07 16:15:24:796
4.8858,-8.3528,1.5504,-0.1427,-0.0853,0.019,-0.0101,0.0227,-0.0157,752,2019-08-07 16:15:24:799
4.8762,-8.4673,1.6164,-0.1542,0.0165,-0.0284,-0.0123,0.0153,-0.0071,758,2019-08-07 16:15:24:805
4.8762,-8.4673,1.6164,-0.1542,0.0165,-0.0284,-0.0123,0.0153,-0.0071,763,2019-08-07 16:15:24:810
4.8762,-8.4721,1.5551,-0.1542,0.0165,-0.0284,-0.0048,0.0057,3.0E-4,767,2019-08-07 16:15:24:814
4.8762,-8.4721,1.5551,-0.1542,0.0165,-0.0284,-0.0048,0.0057,3.0E-4,773,2019-08-07 16:15:24:820
4.948,-8.391,1.6117,-0.2008,-0.0498,-0.0054,-0.0048,-0.0018,0.0024,778,2019-08-07 16:15:24:825
4.948,-8.391,1.6117,-0.2008,-0.0498,-0.0054,-0.0048,-0.0018,0.0024,783,2019-08-07 16:15:24:830
4.948,-8.391,1.6117,-0.2008,-0.0498,-0.0054,0.0048,-0.006,0.0024,788,2019-08-07 16:15:24:835
4.9336,-8.4483,1.5692,-0.2008,-0.0498,-0.0054,0.0048,-0.006,0.0024,793,2019-08-07 16:15:24:840
4.9336,-8.4483,1.5692,-0.2142,-0.0301,0.0087,0.0037,0.011,0.0067,797,2019-08-07 16:15:24:844
4.9336,-8.4483,1.5692,-0.2142,-0.0301,0.0087,0.0037,0.011,0.0067,803,2019-08-07 16:15:24:850
4.814,-8.391,1.6022,-0.2142,-0.0301,0.0087,-6.0E-4,0.0227,0.0088,808,2019-08-07 16:15:24:855
4.814,-8.391,1.6022,-0.2142,-0.0301,0.0087,-6.0E-4,0.0227,0.0088,813,2019-08-07 16:15:24:860
4.7853,-8.4578,1.6258,-0.0619,-0.0064,-0.0086,-0.0133,0.0174,0.0024,818,2019-08-07 16:15:24:865
4.7853,-8.4578,1.6258,-0.0619,-0.0064,-0.0086,-0.0133,0.0174,0.0024,822,2019-08-07 16:15:24:869
4.7853,-8.4578,1.6258,-0.0619,-0.0064,-0.0086,-0.0165,0.0121,3.0E-4,828,2019-08-07 16:15:24:875
4.7231,-8.4721,1.6682,-0.0619,-0.0064,-0.0086,-0.0165,0.0121,3.0E-4,833,2019-08-07 16:15:24:880
4.7231,-8.4721,1.6682,-0.0193,-0.0213,-0.0523,-0.0229,0.0078,-8.0E-4,837,2019-08-07 16:15:24:884
4.7087,-8.3385,1.5692,-0.0193,-0.0213,-0.0523,-0.0229,0.0078,-8.0E-4,843,2019-08-07 16:15:24:890
4.7087,-8.3385,1.5692,-0.0193,-0.0213,-0.0523,-0.0229,-0.0082,-8.0E-4,848,2019-08-07 16:15:24:895
4.7087,-8.3385,1.5692,-0.0193,-0.0213,-0.0523,-0.0229,-0.0082,-8.0E-4,853,2019-08-07 16:15:24:900
4.7566,-8.3671,1.6635,-0.0329,-0.0838,-0.0805,-0.0261,-0.0422,0.0014,858,2019-08-07 16:15:24:905
4.7566,-8.3671,1.6635,-0.0329,-0.0838,-0.0805,-0.0261,-0.0422,0.0014,863,2019-08-07 16:15:24:910
4.9336,-8.3957,1.5174,-0.0329,-0.0838,-0.0805,-0.0144,-0.0391,0.0035,868,2019-08-07 16:15:24:915
4.9336,-8.3957,1.5174,-0.0329,-0.0838,-0.0805,-0.0144,-0.0391,0.0035,873,2019-08-07 16:15:24:920
4.9336,-8.3957,1.5174,-0.2938,-0.0695,0.0678,-0.0027,-0.0167,0.0035,879,2019-08-07 16:15:24:926
5.0101,-8.3814,1.5362,-0.2938,-0.0695,0.0678,-0.0027,-0.0167,0.0035,883,2019-08-07 16:15:24:930
5.0101,-8.3814,1.5362,-0.2938,-0.0695,0.0678,-0.0027,-0.0167,0.0035,887,2019-08-07 16:15:24:934
5.0101,-8.3814,1.5362,-0.2938,-0.0695,0.0678,0.0122,0.0238,0.0046,893,2019-08-07 16:15:24:940
4.9958,-8.4148,1.4938,-0.2068,-0.0784,0.1442,0.0122,0.0238,0.0046,898,2019-08-07 16:15:24:945
4.9958,-8.4148,1.4938,-0.2068,-0.0784,0.1442,0.0197,0.0579,0.0014,902,2019-08-07 16:15:24:949
4.7853,-8.4053,1.5221,-0.059,-0.0446,0.0584,0.0197,0.0579,0.0014,908,2019-08-07 16:15:24:955
4.7853,-8.4053,1.5221,-0.059,-0.0446,0.0584,0.0197,0.0653,-8.0E-4,913,2019-08-07 16:15:24:960
4.7853,-8.4053,1.5221,-0.059,-0.0446,0.0584,0.0197,0.0653,-8.0E-4,918,2019-08-07 16:15:24:965
4.5939,-8.4482,1.6494,-0.059,-0.0446,0.0584,0.0122,0.0376,-0.0061,923,2019-08-07 16:15:24:970
4.5939,-8.4482,1.6494,0.1689,-0.0393,-0.0702,0.0122,0.0376,-0.0061,928,2019-08-07 16:15:24:975
4.5939,-8.4482,1.6494,0.1689,-0.0393,-0.0702,-0.0027,-0.0092,-0.0135,932,2019-08-07 16:15:24:979
4.5939,-8.4148,1.6635,0.1689,-0.0393,-0.0702,-0.0027,-0.0092,-0.0135,938,2019-08-07 16:15:24:985
4.5939,-8.4148,1.6635,0.1689,-0.0393,-0.0702,-0.0133,-0.0497,-0.0146,942,2019-08-07 16:15:24:989
4.7278,-8.4101,1.6352,-6.0E-4,-0.0384,-0.05,-0.0133,-0.0497,-0.0146,948,2019-08-07 16:15:24:995
4.7278,-8.4101,1.6352,-6.0E-4,-0.0384,-0.05,-0.0197,-0.0742,-0.0178,953,2019-08-07 16:15:25:000
4.7278,-8.4101,1.6352,-6.0E-4,-0.0384,-0.05,-0.0197,-0.0742,-0.0178,958,2019-08-07 16:15:25:005
4.8905,-8.4148,1.5928,-6.0E-4,-0.0384,-0.05,-0.0229,-0.0657,-0.0178,963,2019-08-07 16:15:25:010
4.8905,-8.4148,1.5928,-0.257,-0.0986,0.0152,-0.0229,-0.0657,-0.0178,967,2019-08-07 16:15:25:014
4.8905,-8.4148,1.5928,-0.257,-0.0986,0.0152,-0.0229,-0.0657,-0.0178,973,2019-08-07 16:15:25:020
5.0245,-8.3766,1.5221,-0.257,-0.0986,0.0152,-0.0133,-0.0305,-0.0135,979,2019-08-07 16:15:25:026
5.0245,-8.3766,1.5221,-0.257,-0.0986,0.0152,-0.0133,-0.0305,-0.0135,983,2019-08-07 16:15:25:030
5.0388,-8.3385,1.541,-0.2995,-0.1061,0.0292,-0.0155,0.0036,-0.0135,988,2019-08-07 16:15:25:035
5.0388,-8.3385,1.541,-0.2995,-0.1061,0.0292,-0.0155,0.0036,-0.0135,993,2019-08-07 16:15:25:040
5.0388,-8.3385,1.541,-0.2995,-0.1061,0.0292,-0.0155,0.0206,-0.0114,998,2019-08-07 16:15:25:045
4.9144,-8.4196,1.5834,-0.2995,-0.1061,0.0292,-0.0155,0.0206,-0.0114,1002,2019-08-07 16:15:25:049
4.9144,-8.4196,1.5834,-0.1438,-0.033,-0.0556,-0.0059,0.0313,-0.005,1008,2019-08-07 16:15:25:055
4.857,-8.453,1.6635,-0.1438,-0.033,-0.0556,-0.0059,0.0313,-0.005,1012,2019-08-07 16:15:25:059
4.857,-8.453,1.6635,-0.1438,-0.033,-0.0556,-0.0059,0.0313,-0.005,1018,2019-08-07 16:15:25:065
4.857,-8.453,1.6635,-0.1438,-0.033,-0.0556,5.0E-4,0.0376,0.0024,1022,2019-08-07 16:15:25:069
4.7757,-8.453,1.5928,-0.0536,0.0103,0.0047,5.0E-4,0.0376,0.0024,1028,2019-08-07 16:15:25:075
4.7757,-8.453,1.5928,-0.0536,0.0103,0.0047,0.0037,0.0302,-0.005,1033,2019-08-07 16:15:25:080
4.7422,-8.5103,1.6117,-0.0536,0.0103,0.0047,0.0037,0.0302,-0.005,1038,2019-08-07 16:15:25:085
4.7422,-8.5103,1.6117,-0.0536,0.0103,0.0047,0.0016,0.0195,-0.0029,1042,2019-08-07 16:15:25:089
4.7422,-8.5103,1.6117,0.0276,0.0393,-0.0352,0.0016,0.0195,-0.0029,1048,2019-08-07 16:15:25:095
4.7852,-8.5055,1.6305,0.0276,0.0393,-0.0352,-0.0101,-0.0092,-0.0039,1053,2019-08-07 16:15:25:100
4.7852,-8.5055,1.6305,0.0276,0.0393,-0.0352,-0.0101,-0.0092,-0.0039,1058,2019-08-07 16:15:25:105
4.8331,-8.4721,1.6164,0.0276,0.0393,-0.0352,-0.0112,-0.0284,-0.0018,1063,2019-08-07 16:15:25:110
4.8331,-8.4721,1.6164,-0.1767,0.0205,-0.01,-0.0112,-0.0284,-0.0018,1068,2019-08-07 16:15:25:115
4.8331,-8.4721,1.6164,-0.1767,0.0205,-0.01,-0.0112,-0.0284,-0.0018,1072,2019-08-07 16:15:25:119
4.9718,-8.4626,1.5457,-0.1767,0.0205,-0.01,-0.0101,-0.0337,0.0046,1078,2019-08-07 16:15:25:125
4.9718,-8.4626,1.5457,-0.1767,0.0205,-0.01,-0.0101,-0.0337,0.0046,1083,2019-08-07 16:15:25:130
4.9718,-8.4626,1.5457,-0.1767,0.0205,-0.01,-0.0101,-0.0337,0.0046,1088,2019-08-07 16:15:25:135
4.9718,-8.4053,1.5598,-0.3089,-0.0367,0.0092,5.0E-4,0.0036,0.0046,1092,2019-08-07 16:15:25:139
5.0531,-8.4053,1.5598,-0.3089,-0.0367,0.0092,5.0E-4,0.0036,0.0046,1098,2019-08-07 16:15:25:145
5.0531,-8.4053,1.5598,-0.3089,-0.0367,0.0092,-0.0027,0.0366,0.0099,1103,2019-08-07 16:15:25:150
5.0531,-8.4053,1.5598,-0.3089,-0.0367,0.0092,-0.0027,0.0366,0.0099,1108,2019-08-07 16:15:25:155
4.9431,-8.3575,1.5457,-0.1845,-0.0936,0.0675,-0.0027,0.0366,0.0099,1113,2019-08-07 16:15:25:160
4.9431,-8.3575,1.5457,-0.1845,-0.0936,0.0675,-0.0027,0.0558,0.0056,1118,2019-08-07 16:15:25:165
4.9431,-8.3575,1.5457,-0.1845,-0.0936,0.0675,-0.0027,0.0558,0.0056,1122,2019-08-07 16:15:25:169
4.7517,-8.4053,1.5975,0.0911,-0.0221,0.0162,5.0E-4,0.0621,0.0024,1128,2019-08-07 16:15:25:175
4.7517,-8.4053,1.5975,0.0911,-0.0221,0.0162,5.0E-4,0.0621,0.0024,1133,2019-08-07 16:15:25:180
4.7517,-8.4053,1.5975,0.0911,-0.0221,0.0162,0.0016,0.0259,-0.005,1138,2019-08-07 16:15:25:185
4.5977,-8.4577,1.6963,0.144,0.0161,-0.1181,0.0016,0.0259,-0.005,1142,2019-08-07 16:15:25:189
4.5977,-8.4577,1.6963,0.144,0.0161,-0.1181,-0.0016,-0.0114,-0.0082,1147,2019-08-07 16:15:25:194
4.5977,-8.4577,1.6963,0.144,0.0161,-0.1181,-0.0016,-0.0114,-0.0082,1153,2019-08-07 16:15:25:200
4.5977,-8.4577,1.6963,0.144,0.0161,-0.1181,-0.0016,-0.0114,-0.0082,1158,2019-08-07 16:15:25:205
4.7173,-8.4386,1.5737,-0.0314,-0.0453,0.0457,-0.0016,-0.0327,-0.0093,1163,2019-08-07 16:15:25:210
4.7173,-8.4386,1.5737,-0.0314,-0.0453,0.0457,-0.0016,-0.0327,-0.0093,1167,2019-08-07 16:15:25:214
4.7173,-8.4386,1.5737,-0.0314,-0.0453,0.0457,-0.0048,-0.0465,-0.0114,1173,2019-08-07 16:15:25:220
4.8943,-8.4052,1.5502,-0.0314,-0.0453,0.0457,-0.0048,-0.0465,-0.0114,1178,2019-08-07 16:15:25:225
4.8943,-8.4052,1.5502,-0.2044,-0.0345,0.0595,5.0E-4,-0.0348,-0.0072,1183,2019-08-07 16:15:25:230
4.99,-8.3765,1.5596,-0.2044,-0.0345,0.0595,5.0E-4,-0.0348,-0.0072,1187,2019-08-07 16:15:25:234
4.99,-8.3765,1.5596,-0.2597,-0.0622,-0.0221,-0.0038,-0.0167,-0.0061,1193,2019-08-07 16:15:25:240
4.99,-8.3765,1.5596,-0.2597,-0.0622,-0.0221,-0.0038,-0.0167,-0.0061,1198,2019-08-07 16:15:25:245
4.9804,-8.3718,1.5549,-0.2597,-0.0622,-0.0221,-0.0038,-0.0167,-0.0061,1203,2019-08-07 16:15:25:250
4.9804,-8.3718,1.5549,-0.2597,-0.0622,-0.0221,-0.0038,-0.0167,-0.0061,1208,2019-08-07 16:15:25:255
4.9373,-8.3479,1.5455,-0.1859,-0.0899,0.0243,0.0026,0.0078,0.0056,1213,2019-08-07 16:15:25:260
4.9373,-8.3479,1.5455,-0.1859,-0.0899,0.0243,0.0026,0.0078,0.0056,1217,2019-08-07 16:15:25:264
4.9373,-8.3479,1.5455,-0.1859,-0.0899,0.0243,-0.0059,0.0206,0.0056,1223,2019-08-07 16:15:25:270
4.8656,-8.367,1.569,-0.1859,-0.0899,0.0243,-0.0059,0.0206,0.0056,1227,2019-08-07 16:15:25:274
4.8656,-8.367,1.569,-0.0428,0.0199,-0.0358,-0.0048,0.0217,0.0024,1233,2019-08-07 16:15:25:280
4.8656,-8.367,1.569,-0.0428,0.0199,-0.0358,-0.0048,0.0217,0.0024,1238,2019-08-07 16:15:25:285
4.7029,-8.4195,1.602,-0.0428,0.0199,-0.0358,-0.0016,0.0121,-8.0E-4,1243,2019-08-07 16:15:25:290
4.7029,-8.4195,1.602,-0.0428,0.0199,-0.0358,-0.0016,0.0121,-8.0E-4,1248,2019-08-07 16:15:25:295
4.7029,-8.4195,1.602,0.0429,0.0102,-0.0402,0.0016,-0.0295,-0.0072,1252,2019-08-07 16:15:25:299
4.7029,-8.4195,1.602,0.0429,0.0102,-0.0402,0.0016,-0.0295,-0.0072,1258,2019-08-07 16:15:25:305
4.6885,-8.5054,1.635,0.0429,0.0102,-0.0402,0.0016,-0.0295,-0.0072,1262,2019-08-07 16:15:25:309
4.6885,-8.5054,1.635,0.0429,0.0102,-0.0402,0.0058,-0.0433,-0.0135,1268,2019-08-07 16:15:25:315
4.6885,-8.5054,1.635,0.0429,0.0102,-0.0402,0.0058,-0.0433,-0.0135,1273,2019-08-07 16:15:25:320
4.9277,-8.4243,1.5172,-0.1738,-0.0124,0.0511,5.0E-4,-0.0433,-0.0135,1278,2019-08-07 16:15:25:325
4.9277,-8.4243,1.5172,-0.1738,-0.0124,0.0511,5.0E-4,-0.0433,-0.0135,1283,2019-08-07 16:15:25:330
4.9277,-8.4243,1.5172,-0.1738,-0.0124,0.0511,-0.0027,0.0014,-0.0082,1287,2019-08-07 16:15:25:334
4.9994,-8.3479,1.602,-0.2942,-0.0917,-0.022,-0.0027,0.0014,-0.0082,1293,2019-08-07 16:15:25:340
4.9994,-8.3479,1.602,-0.2942,-0.0917,-0.022,-0.0069,0.0366,3.0E-4,1298,2019-08-07 16:15:25:345
4.9994,-8.3479,1.602,-0.2942,-0.0917,-0.022,-0.0069,0.0366,3.0E-4,1303,2019-08-07 16:15:25:350
4.9468,-8.4052,1.5596,-0.2942,-0.0917,-0.022,-0.0165,0.0515,0.0067,1308,2019-08-07 16:15:25:355
4.9468,-8.4052,1.5596,-0.189,-0.0246,-0.0012,-0.0165,0.0515,0.0067,1314,2019-08-07 16:15:25:361
4.9468,-8.4052,1.5596,-0.189,-0.0246,-0.0012,-0.0165,0.0515,0.0067,1318,2019-08-07 16:15:25:365
4.9468,-8.4052,1.5596,-0.189,-0.0246,-0.0012,-0.0176,0.0494,0.0163,1323,2019-08-07 16:15:25:370
4.8463,-8.4577,1.5407,-0.0903,0.0223,0.0279,-0.0176,0.0494,0.0163,1328,2019-08-07 16:15:25:375
4.8463,-8.4577,1.5407,-0.0903,0.0223,0.0279,-0.0069,0.0398,0.0237,1332,2019-08-07 16:15:25:379
4.8463,-8.4577,1.5407,-0.0903,0.0223,0.0279,-0.0069,0.0398,0.0237,1338,2019-08-07 16:15:25:385
4.7506,-8.4863,1.5596,0.0052,7.0E-4,0.0204,-0.0027,0.0195,0.0237,1343,2019-08-07 16:15:25:390
4.7506,-8.4863,1.5596,0.0052,7.0E-4,0.0204,-0.0027,0.0195,0.0237,1348,2019-08-07 16:15:25:395
4.7506,-8.4863,1.5596,0.0052,7.0E-4,0.0204,0.0048,-0.005,0.028,1352,2019-08-07 16:15:25:399
4.7506,-8.4863,1.5596,0.0052,7.0E-4,0.0204,0.0048,-0.005,0.028,1358,2019-08-07 16:15:25:405
4.7745,-8.4768,1.5407,-0.0425,0.0126,0.0823,0.0069,0.0036,0.0152,1363,2019-08-07 16:15:25:410
4.7745,-8.4768,1.5407,-0.0425,0.0126,0.0823,0.0069,0.0036,0.0152,1368,2019-08-07 16:15:25:415
4.7745,-8.4768,1.5407,-0.0425,0.0126,0.0823,0.0069,0.0036,0.0152,1373,2019-08-07 16:15:25:420
4.7266,-8.4529,1.5077,0.0186,0.012,0.0639,0.0058,0.0057,0.0099,1378,2019-08-07 16:15:25:425
4.7266,-8.4529,1.5077,0.0186,0.012,0.0639,0.0058,0.0057,0.0099,1383,2019-08-07 16:15:25:430
4.7075,-8.4911,1.5737,0.0186,0.012,0.0639,0.0026,0.0121,0.0035,1388,2019-08-07 16:15:25:435
4.7075,-8.4911,1.5737,0.0186,0.012,0.0639,0.0026,0.0121,0.0035,1393,2019-08-07 16:15:25:440
4.7075,-8.4911,1.5737,0.0504,0.0495,-0.0337,-0.0016,0.0089,0.0014,1398,2019-08-07 16:15:25:445
4.7171,-8.4434,1.5643,0.0504,0.0495,-0.0337,-0.0016,0.0089,0.0014,1403,2019-08-07 16:15:25:450
4.7171,-8.4434,1.5643,0.0504,0.0495,-0.0337,-0.0016,0.0089,0.0014,1408,2019-08-07 16:15:25:455
4.7171,-8.4672,1.5643,-0.0063,0.0259,0.008,-0.0091,4.0E-4,-0.0114,1412,2019-08-07 16:15:25:459
4.7505,-8.4672,1.5643,-0.0063,0.0259,0.008,-0.0091,4.0E-4,-0.0114,1418,2019-08-07 16:15:25:465
4.7505,-8.4672,1.5643,-0.0063,0.0259,0.008,-0.0133,-0.006,3.0E-4,1423,2019-08-07 16:15:25:470
4.9467,-8.472,1.5737,-0.0063,0.0259,0.008,-0.0133,-0.006,3.0E-4,1427,2019-08-07 16:15:25:474
4.9467,-8.472,1.5737,-0.2544,0.045,0.0155,-0.0038,0.01,0.0067,1433,2019-08-07 16:15:25:480
4.9467,-8.472,1.5737,-0.2544,0.045,0.0155,-0.0038,0.01,0.0067,1437,2019-08-07 16:15:25:484
4.9658,-8.4577,1.5595,-0.2544,0.045,0.0155,0.0133,0.027,0.0163,1443,2019-08-07 16:15:25:490
4.9658,-8.4577,1.5595,-0.2544,0.045,0.0155,0.0133,0.027,0.0163,1448,2019-08-07 16:15:25:495
4.9658,-8.4577,1.5595,-0.2957,-0.0083,0.0301,0.0303,0.044,0.0376,1453,2019-08-07 16:15:25:500
4.9658,-8.4577,1.5595,-0.2957,-0.0083,0.0301,0.0303,0.044,0.0376,1459,2019-08-07 16:15:25:506
5.0662,-8.4004,1.4935,-0.2957,-0.0083,0.0301,0.0303,0.044,0.0376,1463,2019-08-07 16:15:25:510
5.0662,-8.4004,1.4935,-0.2957,-0.0083,0.0301,0.0346,0.0664,0.0323,1468,2019-08-07 16:15:25:515
5.0662,-8.4004,1.4935,-0.2957,-0.0083,0.0301,0.0346,0.0664,0.0323,1473,2019-08-07 16:15:25:520
4.7313,-8.3622,1.6444,-0.001,-0.1293,0.0131,0.0282,0.0526,0.0387,1477,2019-08-07 16:15:25:524
4.7313,-8.3622,1.6444,-0.001,-0.1293,0.0131,0.0282,0.0526,0.0387,1483,2019-08-07 16:15:25:530
4.7313,-8.3622,1.6444,-0.001,-0.1293,0.0131,0.0282,0.0526,0.0387,1487,2019-08-07 16:15:25:534
4.717,-8.4577,1.6585,-0.001,-0.1293,0.0131,0.0058,0.0366,0.0355,1493,2019-08-07 16:15:25:540
4.717,-8.4577,1.6585,-0.0087,0.0062,-0.0598,0.0058,0.0366,0.0355,1497,2019-08-07 16:15:25:544
4.717,-8.4577,1.6585,-0.0087,0.0062,-0.0598,-6.0E-4,0.0153,0.0195,1503,2019-08-07 16:15:25:550
4.693,-8.4481,1.6632,-0.0087,0.0062,-0.0598,-6.0E-4,0.0153,0.0195,1508,2019-08-07 16:15:25:555
4.693,-8.4481,1.6632,-0.0087,0.0062,-0.0598,-0.0069,0.0089,0.0173,1512,2019-08-07 16:15:25:559
4.7121,-8.472,1.6491,0.0107,0.0469,-0.0957,-0.0069,0.0089,0.0173,1518,2019-08-07 16:15:25:565
4.7121,-8.472,1.6491,0.0107,0.0469,-0.0957,-0.008,0.0078,0.012,1523,2019-08-07 16:15:25:570
4.7121,-8.472,1.6491,0.0107,0.0469,-0.0957,-0.008,0.0078,0.012,1527,2019-08-07 16:15:25:574
4.7743,-8.4911,1.5831,0.0107,0.0469,-0.0957,-0.008,0.0078,0.012,1533,2019-08-07 16:15:25:580
4.7743,-8.4911,1.5831,-0.0679,0.0407,0.0066,-0.0112,-0.0135,0.0142,1537,2019-08-07 16:15:25:584
4.7982,-8.4624,1.5689,-0.0679,0.0407,0.0066,-0.0112,-0.0135,0.0142,1543,2019-08-07 16:15:25:590
4.7982,-8.4624,1.5689,-0.0782,0.0113,-0.0233,-0.0038,-0.0167,0.0131,1547,2019-08-07 16:15:25:594
4.7982,-8.4624,1.5689,-0.0782,0.0113,-0.0233,-0.0038,-0.0167,0.0131,1553,2019-08-07 16:15:25:600
4.7982,-8.4624,1.5689,-0.0782,0.0113,-0.0233,-0.0038,-0.0167,0.0131,1557,2019-08-07 16:15:25:604
4.8843,-8.4481,1.5972,-0.1648,-0.0034,-0.0055,0.0037,-0.0252,0.0163,1563,2019-08-07 16:15:25:610
4.8843,-8.4481,1.5972,-0.1648,-0.0034,-0.0055,0.0037,-0.0252,0.0163,1568,2019-08-07 16:15:25:615
4.8747,-8.429,1.5784,-0.1648,-0.0034,-0.0055,0.0186,-0.0177,0.011,1573,2019-08-07 16:15:25:620
4.8747,-8.429,1.5784,-0.1511,-0.0611,-0.0574,0.0186,-0.0177,0.011,1578,2019-08-07 16:15:25:625
4.8412,-8.3383,1.5831,-0.1511,-0.0611,-0.0574,0.0154,-0.0103,0.0088,1583,2019-08-07 16:15:25:630
4.8412,-8.3383,1.5831,-0.1511,-0.0611,-0.0574,0.0154,-0.0103,0.0088,1588,2019-08-07 16:15:25:635
4.8412,-8.3383,1.5831,-0.1511,-0.0611,-0.0574,0.0101,-0.0039,0.0088,1592,2019-08-07 16:15:25:639
4.7264,-8.2953,1.5878,-0.0509,-0.0992,0.0716,0.0101,-0.0039,0.0088,1597,2019-08-07 16:15:25:644
4.7264,-8.2953,1.5878,-0.0509,-0.0992,0.0716,-0.0059,-0.0135,0.0099,1603,2019-08-07 16:15:25:650
4.7264,-8.2953,1.5878,-0.0509,-0.0992,0.0716,-0.0059,-0.0135,0.0099,1607,2019-08-07 16:15:25:654
4.6594,-8.4577,1.5972,0.0586,0.0054,-0.0047,-0.0101,-0.039,0.0099,1613,2019-08-07 16:15:25:660
4.6594,-8.4577,1.5972,0.0586,0.0054,-0.0047,-0.0101,-0.039,0.0099,1618,2019-08-07 16:15:25:665
4.6594,-8.4577,1.5972,0.0586,0.0054,-0.0047,-0.0101,-0.039,0.0099,1622,2019-08-07 16:15:25:669
4.7646,-8.5674,1.5642,-0.0564,0.1092,0.0552,-0.0027,-0.0753,0.011,1629,2019-08-07 16:15:25:676
4.7646,-8.5674,1.5642,-0.0564,0.1092,0.0552,-0.0027,-0.0753,0.011,1633,2019-08-07 16:15:25:680
4.7646,-8.5674,1.5642,-0.0564,0.1092,0.0552,0.0133,-0.0721,0.0067,1638,2019-08-07 16:15:25:685
4.8699,-8.6056,1.5878,-0.0564,0.1092,0.0552,0.0133,-0.0721,0.0067,1642,2019-08-07 16:15:25:689
4.8699,-8.6056,1.5878,-0.1602,0.1568,-0.0485,0.0335,-0.0422,-0.004,1648,2019-08-07 16:15:25:695
4.8699,-8.6056,1.5878,-0.1602,0.1568,-0.0485,0.0335,-0.0422,-0.004,1653,2019-08-07 16:15:25:700
4.8699,-8.5293,1.5501,-0.1602,0.1568,-0.0485,0.0335,-0.0422,-0.004,1657,2019-08-07 16:15:25:704
4.8699,-8.5293,1.5501,-0.1444,0.0721,0.0572,0.0442,0.0036,-0.0114,1662,2019-08-07 16:15:25:709
4.8699,-8.5293,1.5501,-0.1444,0.0721,0.0572,0.0442,0.0036,-0.0114,1668,2019-08-07 16:15:25:715
4.8651,-8.4481,1.6538,-0.1444,0.0721,0.0572,0.0399,0.0419,-0.0253,1673,2019-08-07 16:15:25:720
4.8651,-8.4481,1.6538,-0.1504,0.0187,-0.0645,0.0399,0.0419,-0.0253,1678,2019-08-07 16:15:25:725
4.7742,-8.4051,1.6773,-0.1504,0.0187,-0.0645,0.0378,0.1143,-0.0402,1683,2019-08-07 16:15:25:730
4.7742,-8.4051,1.6773,-0.1504,0.0187,-0.0645,0.0378,0.1143,-0.0402,1688,2019-08-07 16:15:25:735
4.7742,-8.4051,1.6773,0.033,-0.0312,-0.1261,0.0282,0.1335,-0.0455,1692,2019-08-07 16:15:25:739
4.6067,-8.4767,1.7952,0.033,-0.0312,-0.1261,0.0282,0.1335,-0.0455,1697,2019-08-07 16:15:25:744
4.6067,-8.4767,1.7952,0.033,-0.0312,-0.1261,-0.0112,0.1186,-0.0498,1703,2019-08-07 16:15:25:750
4.6067,-8.4767,1.7952,0.033,-0.0312,-0.1261,-0.0112,0.1186,-0.0498,1708,2019-08-07 16:15:25:755
4.5445,-8.6772,1.7386,0.165,0.3311,-0.1355,-0.0272,0.1069,-0.0572,1712,2019-08-07 16:15:25:759
4.5445,-8.6772,1.7386,0.165,0.3311,-0.1355,-0.0272,0.1069,-0.0572,1718,2019-08-07 16:15:25:765
4.5445,-8.6772,1.7386,0.165,0.3311,-0.1355,-0.0272,0.1069,-0.0572,1723,2019-08-07 16:15:25:770
4.3292,-9.1642,1.6773,0.4642,0.8349,-0.0686,-0.0283,0.109,-0.0562,1728,2019-08-07 16:15:25:775
4.3292,-9.1642,1.6773,0.4642,0.8349,-0.0686,-0.0283,0.109,-0.0562,1733,2019-08-07 16:15:25:780
4.3292,-9.1642,1.6773,0.4642,0.8349,-0.0686,-0.0283,0.109,-0.0562,1738,2019-08-07 16:15:25:785
4.0325,-9.7466,1.5783,0.6962,1.3072,0.0503,0.0271,0.1484,-0.0199,1743,2019-08-07 16:15:25:790
4.0325,-9.7466,1.5783,0.6962,1.3072,0.0503,0.0271,0.1484,-0.0199,1748,2019-08-07 16:15:25:795
4.0325,-9.7466,1.5783,0.6962,1.3072,0.0503,0.139,0.2411,0.0205,1753,2019-08-07 16:15:25:800
4.0325,-9.7466,1.5783,0.6962,1.3072,0.0503,0.139,0.2411,0.0205,1758,2019-08-07 16:15:25:805
3.3244,-10.9162,1.847,1.4997,2.6443,-0.2606,0.27,0.2922,0.0344,1763,2019-08-07 16:15:25:810
3.3244,-10.9162,1.847,1.4997,2.6443,-0.2606,0.27,0.2922,0.0344,1768,2019-08-07 16:15:25:815
2.4776,-12.1621,2.0921,1.4997,2.6443,-0.2606,0.27,0.2922,0.0344,1773,2019-08-07 16:15:25:820
2.4776,-12.1621,2.0921,1.4997,2.6443,-0.2606,0.4245,0.3263,0.0504,1778,2019-08-07 16:15:25:825
1.8891,-13.2696,2.2807,2.5484,4.3546,-0.4015,0.4245,0.3263,0.0504,1783,2019-08-07 16:15:25:830
1.8891,-13.2696,2.2807,2.5484,4.3546,-0.4015,0.6461,0.3977,0.0493,1788,2019-08-07 16:15:25:835
1.8891,-13.2696,2.2807,2.5484,4.3546,-0.4015,0.6461,0.3977,0.0493,1793,2019-08-07 16:15:25:840
1.3629,-13.9523,2.2571,2.5484,4.3546,-0.4015,0.8176,0.5181,0.0461,1798,2019-08-07 16:15:25:845
1.3629,-13.9523,2.2571,3.9714,6.2358,-0.098,0.8176,0.5181,0.0461,1802,2019-08-07 16:15:25:849
-0.2255,-15.4704,1.847,3.9714,6.2358,-0.098,0.972,0.7961,0.0291,1808,2019-08-07 16:15:25:855
-0.2255,-15.4704,1.847,3.9714,6.2358,-0.098,0.972,0.7961,0.0291,1813,2019-08-07 16:15:25:860
-0.2255,-15.4704,1.847,3.9714,6.2358,-0.098,0.972,0.7961,0.0291,1818,2019-08-07 16:15:25:865
-0.2255,-15.4704,1.847,7.1039,8.3616,1.5113,1.1233,1.4385,0.0387,1823,2019-08-07 16:15:25:870
-3.0339,-17.2367,0.2726,7.1039,8.3616,1.5113,1.1233,1.4385,0.0387,1828,2019-08-07 16:15:25:875
-3.0339,-17.2367,0.2726,7.1039,8.3616,1.5113,1.2799,2.3269,0.011,1832,2019-08-07 16:15:25:879
-4.6175,-20.3206,-0.623,7.1039,8.3616,1.5113,1.2799,2.3269,0.011,1838,2019-08-07 16:15:25:885
-4.6175,-20.3206,-0.623,9.0986,12.4903,3.1569,1.5185,3.1663,-0.1307,1842,2019-08-07 16:15:25:889
-4.6175,-20.3206,-0.623,9.0986,12.4903,3.1569,1.5185,3.1663,-0.1307,1849,2019-08-07 16:15:25:896
-4.6701,-22.2158,-0.5193,9.0986,12.4903,3.1569,2.0373,4.1187,-0.4908,1852,2019-08-07 16:15:25:899
-4.6701,-22.2158,-0.5193,9.0986,12.4903,3.1569,2.0373,4.1187,-0.4908,1858,2019-08-07 16:15:25:905
-5.0864,-23.3472,-2.1786,9.0514,14.7665,4.8922,2.4432,4.94,-0.7816,1863,2019-08-07 16:15:25:910
-5.0864,-23.3472,-2.1786,9.0514,14.7665,4.8922,2.4432,4.94,-0.7816,1868,2019-08-07 16:15:25:915
-5.0864,-23.3472,-2.1786,9.0514,14.7665,4.8922,2.4432,4.94,-0.7816,1873,2019-08-07 16:15:25:920
-6.1102,-25.4238,-4.4978,9.0514,14.7665,4.8922,2.5103,5.6601,-0.87,1877,2019-08-07 16:15:25:924
-6.1102,-25.4238,-4.4978,10.738,19.7018,10.7698,2.5103,5.6601,-0.87,1883,2019-08-07 16:15:25:930
-7.646,-28.9373,-7.8776,10.738,19.7018,10.7698,1.8349,5.9903,-0.7464,1887,2019-08-07 16:15:25:934
-7.646,-28.9373,-7.8776,11.6639,21.284,12.6352,1.8349,5.9903,-0.7464,1893,2019-08-07 16:15:25:940
-7.646,-28.9373,-7.8776,11.6639,21.284,12.6352,1.5345,6.2705,-0.6751,1898,2019-08-07 16:15:25:945
-7.0575,-28.8943,-9.551,11.6639,21.284,12.6352,1.5345,6.2705,-0.6751,1903,2019-08-07 16:15:25:950
-7.0575,-28.8943,-9.551,11.6639,21.284,12.6352,1.5345,6.2705,-0.6751,1908,2019-08-07 16:15:25:955
-5.5553,-27.5004,-9.1645,8.8026,20.1085,14.5642,1.7955,7.0258,-1.1971,1912,2019-08-07 16:15:25:959
-5.5553,-27.5004,-9.1645,8.8026,20.1085,14.5642,1.7955,7.0258,-1.1971,1918,2019-08-07 16:15:25:965
-5.5553,-27.5004,-9.1645,8.8026,20.1085,14.5642,2.7414,7.5233,-1.9513,1922,2019-08-07 16:15:25:969
-5.3735,-24.4117,-3.8096,8.8026,20.1085,14.5642,2.7414,7.5233,-1.9513,1928,2019-08-07 16:15:25:975
-5.3735,-24.4117,-3.8096,7.3949,15.1521,6.164,4.4011,7.4071,-2.5414,1933,2019-08-07 16:15:25:980
-5.3735,-24.4117,-3.8096,7.3949,15.1521,6.164,4.4011,7.4071,-2.5414,1938,2019-08-07 16:15:25:985
-3.0579,-19.7763,4.1049,4.6008,11.9949,1.6582,6.048,7.0268,-2.8184,1943,2019-08-07 16:15:25:990
-3.0579,-19.7763,4.1049,4.6008,11.9949,1.6582,6.048,7.0268,-2.8184,1948,2019-08-07 16:15:25:995
-3.0579,-19.7763,4.1049,4.6008,11.9949,1.6582,9.5005,8.1954,-3.4661,1953,2019-08-07 16:15:26:000
1.4057,-12.2671,-7.0668,4.6008,11.9949,1.6582,9.5005,8.1954,-3.4661,1957,2019-08-07 16:15:26:004
1.4057,-12.2671,-7.0668,0.2556,1.8389,17.0275,9.5005,8.1954,-3.4661,1963,2019-08-07 16:15:26:010
1.4057,-12.2671,-7.0668,0.2556,1.8389,17.0275,10.7309,10.8927,-3.8283,1968,2019-08-07 16:15:26:015
1.4057,-12.2671,-7.0668,0.2556,1.8389,17.0275,10.7309,10.8927,-3.8283,1973,2019-08-07 16:15:26:020
-0.8333,2.379,-5.2709,1.7913,-7.1827,13.7705,11.0718,11.0972,-3.7143,1978,2019-08-07 16:15:26:025
-0.8333,2.379,-5.2709,1.7913,-7.1827,13.7705,11.0718,11.0972,-3.7143,1983,2019-08-07 16:15:26:030
-14.7602,73.8431,36.3426,1.7913,-7.1827,13.7705,11.7898,5.9318,-1.5294,1988,2019-08-07 16:15:26:035
-14.7602,73.8431,36.3426,18.6723,-100.262,-1.9353,11.7898,5.9318,-1.5294,1992,2019-08-07 16:15:26:039
-14.7602,73.8431,36.3426,18.6723,-100.262,-1.9353,8.676,-0.3831,-0.9307,1998,2019-08-07 16:15:26:045
-6.9141,102.3428,-10.1733,18.6723,-100.262,-1.9353,8.676,-0.3831,-0.9307,2003,2019-08-07 16:15:26:050
-6.9141,102.3428,-10.1733,18.6723,-100.262,-1.9353,8.676,-0.3831,-0.9307,2007,2019-08-07 16:15:26:054
-3.5317,60.8392,-3.0554,3.2689,-61.7559,12.8189,7.0099,-2.1738,-3.074,2013,2019-08-07 16:15:26:060
-3.5317,60.8392,-3.0554,3.2689,-61.7559,12.8189,7.0099,-2.1738,-3.074,2018,2019-08-07 16:15:26:065
-3.5317,60.8392,-3.0554,3.2689,-61.7559,12.8189,-0.5396,-12.5644,-0.4333,2023,2019-08-07 16:15:26:070
2.7787,51.8214,5.0146,-2.0531,-52.5603,4.7406,-0.5396,-12.5644,-0.4333,2028,2019-08-07 16:15:26:075
2.7787,51.8214,5.0146,-2.0531,-52.5603,4.7406,-3.1303,-5.4016,1.7282,2032,2019-08-07 16:15:26:079
25.8866,35.4759,13.919,-2.0531,-52.5603,4.7406,-3.1303,-5.4016,1.7282,2038,2019-08-07 16:15:26:085
25.8866,35.4759,13.919,-20.8153,-35.5563,-1.8548,-4.5684,-5.784,2.9074,2043,2019-08-07 16:15:26:090
25.8866,35.4759,13.919,-20.8153,-35.5563,-1.8548,-4.5684,-5.784,2.9074,2048,2019-08-07 16:15:26:095
18.3562,32.8646,1.5264,-20.8153,-35.5563,-1.8548,-5.2928,-3.646,4.2891,2053,2019-08-07 16:15:26:100
18.3562,32.8646,1.5264,-20.8153,-35.5563,-1.8548,-5.2928,-3.646,4.2891,2058,2019-08-07 16:15:26:105
19.2939,25.9473,9.8038,-16.5843,-28.4231,-0.7063,-5.3226,-0.5823,4.5106,2063,2019-08-07 16:15:26:110
19.2939,25.9473,9.8038,-16.5843,-28.4231,-0.7063,-5.3226,-0.5823,4.5106,2068,2019-08-07 16:15:26:115
19.2939,25.9473,9.8038,-16.5843,-28.4231,-0.7063,-5.3226,-0.5823,4.5106,2072,2019-08-07 16:15:26:119
13.7155,22.1378,7.0793,-11.0578,-25.1951,1.8553,-5.5889,-0.4769,3.9546,2079,2019-08-07 16:15:26:126
13.7155,22.1378,7.0793,-11.0578,-25.1951,1.8553,-5.5889,-0.4769,3.9546,2086,2019-08-07 16:15:26:133
13.7155,22.1378,7.0793,-11.0578,-25.1951,1.8553,-5.5889,-0.4769,3.9546,2088,2019-08-07 16:15:26:135
7.3907,19.8559,6.6974,-4.8292,-23.4801,2.0513,-5.6805,0.206,3.276,2093,2019-08-07 16:15:26:140
7.3907,19.8559,6.6974,-4.8292,-23.4801,2.0513,-5.6805,0.206,3.276,2098,2019-08-07 16:15:26:145
7.3907,19.8559,6.6974,-4.8292,-23.4801,2.0513,-6.2217,-1.2375,2.4461,2103,2019-08-07 16:15:26:150
-1.3645,8.8714,2.0213,-4.8292,-23.4801,2.0513,-6.2217,-1.2375,2.4461,2108,2019-08-07 16:15:26:155
-1.3645,8.8714,2.0213,4.8521,-10.0515,5.1995,-6.6861,-2.5041,2.1585,2112,2019-08-07 16:15:26:159
-1.3645,8.8714,2.0213,4.8521,-10.0515,5.1995,-6.6861,-2.5041,2.1585,2118,2019-08-07 16:15:26:165
-1.3645,8.8714,2.0213,4.8521,-10.0515,5.1995,-6.6861,-2.5041,2.1585,2123,2019-08-07 16:15:26:170
-3.5413,1.3335,4.6234,6.5315,-6.2203,1.6922,-6.9439,-3.6716,1.9487,2128,2019-08-07 16:15:26:175
-3.5413,1.3335,4.6234,6.5315,-6.2203,1.6922,-6.9439,-3.6716,1.9487,2132,2019-08-07 16:15:26:179
-3.5413,1.3335,4.6234,6.5315,-6.2203,1.6922,-6.7682,-6.453,1.8528,2138,2019-08-07 16:15:26:185
-7.7357,-5.307,8.1402,11.637,0.7628,0.1063,-6.7682,-6.453,1.8528,2143,2019-08-07 16:15:26:190
-7.7357,-5.307,8.1402,11.637,0.7628,0.1063,-6.3304,-7.8986,2.1244,2148,2019-08-07 16:15:26:195
-11.3239,-12.9069,2.1112,11.637,0.7628,0.1063,-6.3304,-7.8986,2.1244,2153,2019-08-07 16:15:26:200
-11.3239,-12.9069,2.1112,11.637,0.7628,0.1063,-5.9224,-8.9766,2.7039,2157,2019-08-07 16:15:26:204
-11.3239,-12.9069,2.1112,12.5989,16.997,7.5127,-5.9224,-8.9766,2.7039,2164,2019-08-07 16:15:26:211
-7.2477,-32.1216,-3.6821,12.5989,16.997,7.5127,-5.9224,-8.9766,2.7039,2167,2019-08-07 16:15:26:214
-7.2477,-32.1216,-3.6821,12.5989,16.997,7.5127,-5.3535,-9.7063,2.7636,2173,2019-08-07 16:15:26:220
0.7037,-47.3023,-10.7386,12.5989,16.997,7.5127,-5.3535,-9.7063,2.7636,2178,2019-08-07 16:15:26:225
0.7037,-47.3023,-10.7386,12.5989,16.997,7.5127,-5.6528,-9.2365,1.3063,2183,2019-08-07 16:15:26:230
0.7037,-47.3023,-10.7386,-3.6673,33.2168,11.6641,-5.6528,-9.2365,1.3063,2188,2019-08-07 16:15:26:235
7.6217,-31.4866,-4.9501,-3.6673,33.2168,11.6641,-5.4313,-8.1968,-0.3182,2193,2019-08-07 16:15:26:240
7.6217,-31.4866,-4.9501,-3.6673,33.2168,11.6641,-5.4313,-8.1968,-0.3182,2198,2019-08-07 16:15:26:245
0.565,-20.0056,-7.4531,-3.6673,33.2168,11.6641,-3.6406,-6.0866,-0.8146,2203,2019-08-07 16:15:26:250
0.565,-20.0056,-7.4531,5.2667,11.623,10.2028,-3.6406,-6.0866,-0.8146,2208,2019-08-07 16:15:26:255
0.565,-20.0056,-7.4531,5.2667,11.623,10.2028,-1.3407,-3.0399,0.2613,2213,2019-08-07 16:15:26:260
-6.1904,-25.9968,-13.5999,5.2667,11.623,10.2028,-1.3407,-3.0399,0.2613,2218,2019-08-07 16:15:26:265
-6.1904,-25.9968,-13.5999,5.2667,11.623,10.2028,-1.3407,-3.0399,0.2613,2223,2019-08-07 16:15:26:270
-9.2379,-27.8108,-8.4383,12.7508,19.6194,14.1876,1.0583,2.4814,2.0531,2228,2019-08-07 16:15:26:275
-9.2379,-27.8108,-8.4383,12.7508,19.6194,14.1876,1.0583,2.4814,2.0531,2233,2019-08-07 16:15:26:280
-9.2379,-27.8108,-8.4383,12.7508,19.6194,14.1876,1.0583,2.4814,2.0531,2237,2019-08-07 16:15:26:284
-8.4246,-25.3857,8.9179,12.7508,19.6194,14.1876,3.6256,6.1288,2.0861,2243,2019-08-07 16:15:26:290
-8.4246,-25.3857,8.9179,13.2283,13.326,-1.1909,3.6256,6.1288,2.0861,2248,2019-08-07 16:15:26:295
-8.4246,-25.3857,8.9179,13.2283,13.326,-1.1909,4.3968,3.5956,-0.0135,2252,2019-08-07 16:15:26:299
-11.7544,-18.1009,-0.1184,15.1278,9.3643,3.0388,4.3968,3.5956,-0.0135,2258,2019-08-07 16:15:26:305
-11.7544,-18.1009,-0.1184,15.1278,9.3643,3.0388,4.3968,3.5956,-0.0135,2263,2019-08-07 16:15:26:310
-11.7544,-18.1009,-0.1184,15.1278,9.3643,3.0388,2.6189,2.4686,-1.6402,2268,2019-08-07 16:15:26:315
-15.5148,-7.4791,-2.6073,15.1278,9.3643,3.0388,2.6189,2.4686,-1.6402,2272,2019-08-07 16:15:26:319
-15.5148,-7.4791,-2.6073,19.5571,-3.3189,3.0565,0.7835,2.3429,-1.784,2278,2019-08-07 16:15:26:325
-13.3284,-3.0776,4.6567,19.5571,-3.3189,3.0565,0.7835,2.3429,-1.784,2283,2019-08-07 16:15:26:330
-13.3284,-3.0776,4.6567,19.5571,-3.3189,3.0565,0.7835,2.3429,-1.784,2288,2019-08-07 16:15:26:335
-13.3284,-3.0776,4.6567,19.5571,-3.3189,3.0565,-0.7814,-1.67,-0.9765,2293,2019-08-07 16:15:26:340
-4.0231,-6.3811,7.6075,7.5673,-2.0596,-4.0822,-0.7814,-1.67,-0.9765,2298,2019-08-07 16:15:26:345
-4.0231,-6.3811,7.6075,7.5673,-2.0596,-4.0822,-1.2597,-4.7198,-0.7603,2303,2019-08-07 16:15:26:350
1.2109,-8.8874,4.5765,2.5403,0.4296,-1.3162,-1.2597,-4.7198,-0.7603,2308,2019-08-07 16:15:26:355
1.2109,-8.8874,4.5765,2.5403,0.4296,-1.3162,-1.0168,-4.4865,-1.0362,2313,2019-08-07 16:15:26:360
1.2109,-8.8874,4.5765,2.5403,0.4296,-1.3162,-1.0168,-4.4865,-1.0362,2318,2019-08-07 16:15:26:365
1.2109,-8.8874,4.5765,2.5403,0.4296,-1.3162,-1.0168,-4.4865,-1.0362,2323,2019-08-07 16:15:26:370
8.3011,-11.0308,2.0499,-4.9099,2.0466,-0.2082,-1.2096,-5.0724,-1.4953,2328,2019-08-07 16:15:26:375
8.3011,-11.0308,2.0499,-4.9099,2.0466,-0.2082,-1.2096,-5.0724,-1.4953,2333,2019-08-07 16:15:26:380
8.3011,-11.0308,2.0499,-4.9099,2.0466,-0.2082,-0.4394,-5.5763,-1.1587,2338,2019-08-07 16:15:26:385
9.6312,-8.3145,-0.915,-4.9099,2.0466,-0.2082,-0.4394,-5.5763,-1.1587,2343,2019-08-07 16:15:26:390
9.6312,-8.3145,-0.915,-6.094,-0.6298,4.2875,0.5118,-3.8602,0.1367,2349,2019-08-07 16:15:26:396
9.6312,-8.3145,-0.915,-6.094,-0.6298,4.2875,0.5118,-3.8602,0.1367,2353,2019-08-07 16:15:26:400
12.4874,-7.7226,-5.2235,-8.4608,-0.1043,7.13,0.5118,-3.8602,0.1367,2358,2019-08-07 16:15:26:405
12.4874,-7.7226,-5.2235,-8.4608,-0.1043,7.13,0.8122,-1.5443,0.8983,2364,2019-08-07 16:15:26:411
12.4874,-7.7226,-5.2235,-8.4608,-0.1043,7.13,0.8122,-1.5443,0.8983,2368,2019-08-07 16:15:26:415
15.3149,-7.7274,-4.441,-8.4608,-0.1043,7.13,0.8122,-1.5443,0.8983,2373,2019-08-07 16:15:26:420
15.3149,-7.7274,-4.441,-8.7094,-2.05,6.7305,0.2242,1.3799,0.7289,2378,2019-08-07 16:15:26:425
10.5163,-5.3786,-4.1157,-8.7094,-2.05,6.7305,0.2242,1.3799,0.7289,2384,2019-08-07 16:15:26:431
10.5163,-5.3786,-4.1157,-8.7094,-2.05,6.7305,0.2242,1.3799,0.7289,2387,2019-08-07 16:15:26:434
10.5163,-5.3786,-4.1157,-2.8338,-3.683,4.2886,-0.9167,3.2729,0.0152,2393,2019-08-07 16:15:26:440
5.0192,-4.3714,3.3745,-2.8338,-3.683,4.2886,-0.9167,3.2729,0.0152,2399,2019-08-07 16:15:26:446
5.0192,-4.3714,3.3745,-2.8338,-3.683,4.2886,-0.9167,3.2729,0.0152,2402,2019-08-07 16:15:26:449
5.0192,-4.3714,3.3745,-2.8338,-3.683,4.2886,-0.9167,3.2729,0.0152,2408,2019-08-07 16:15:26:455
2.1199,-6.9683,3.9496,2.5092,-0.8315,-2.0605,-0.7345,2.7892,0.1878,2413,2019-08-07 16:15:26:460
2.1199,-6.9683,3.9496,2.5092,-0.8315,-2.0605,-0.7345,2.7892,0.1878,2419,2019-08-07 16:15:26:466
2.1199,-6.9683,3.9496,2.5092,-0.8315,-2.0605,-0.302,1.4672,0.0717,2422,2019-08-07 16:15:26:469
1.0865,-10.3195,4.8735,3.6212,2.0301,-2.4314,-0.302,1.4672,0.0717,2428,2019-08-07 16:15:26:475
1.0865,-10.3195,4.8735,3.6212,2.0301,-2.4314,-0.1135,0.4616,-0.0977,2432,2019-08-07 16:15:26:479
1.0865,-10.3195,4.8735,3.6212,2.0301,-2.4314,-0.1135,0.4616,-0.0977,2438,2019-08-07 16:15:26:485
0.9717,-9.8994,5.4816,3.3895,1.4272,-3.1499,0.0271,-0.3011,-0.1765,2443,2019-08-07 16:15:26:490
0.9717,-9.8994,5.4816,3.3895,1.4272,-3.1499,0.0271,-0.3011,-0.1765,2448,2019-08-07 16:15:26:495
0.9717,-9.8994,5.4816,3.3895,1.4272,-3.1499,0.2093,-1.5102,-0.184,2453,2019-08-07 16:15:26:500
0.9717,-9.8994,5.4816,3.3895,1.4272,-3.1499,0.2093,-1.5102,-0.184,2458,2019-08-07 16:15:26:505
3.9188,-8.2954,3.4122,-0.001,-0.2656,-0.79,0.2082,-1.6785,-0.1829,2463,2019-08-07 16:15:26:510
3.9188,-8.2954,3.4122,-0.001,-0.2656,-0.79,0.2082,-1.6785,-0.1829,2468,2019-08-07 16:15:26:515
3.9188,-8.2954,3.4122,-0.001,-0.2656,-0.79,0.2082,-1.6785,-0.1829,2473,2019-08-07 16:15:26:520
7.019,-7.8324,1.2297,-3.2687,-0.5371,1.0643,0.0708,-1.3802,-0.184,2478,2019-08-07 16:15:26:525
7.019,-7.8324,1.2297,-3.2687,-0.5371,1.0643,0.0708,-1.3802,-0.184,2483,2019-08-07 16:15:26:530
7.019,-7.8324,1.2297,-3.2687,-0.5371,1.0643,-0.0528,-0.5376,-0.233,2488,2019-08-07 16:15:26:535
8.3682,-7.904,0.8998,-3.7769,-0.5038,1.2136,-0.0528,-0.5376,-0.233,2492,2019-08-07 16:15:26:539
8.3682,-7.904,0.8998,-3.7769,-0.5038,1.2136,-0.1241,0.19,-0.2564,2498,2019-08-07 16:15:26:545
8.3682,-7.904,0.8998,-3.7769,-0.5038,1.2136,-0.1241,0.19,-0.2564,2502,2019-08-07 16:15:26:549
6.8085,-7.8085,1.3759,-1.8085,-0.5686,0.552,-0.1753,0.7801,-0.2309,2508,2019-08-07 16:15:26:555
6.8085,-7.8085,1.3759,-1.8085,-0.5686,0.552,-0.1753,0.7801,-0.2309,2513,2019-08-07 16:15:26:560
6.8085,-7.8085,1.3759,-1.8085,-0.5686,0.552,-0.1753,0.7801,-0.2309,2518,2019-08-07 16:15:26:565
6.8085,-7.8085,1.3759,-1.8085,-0.5686,0.552,-0.2253,1.0273,-0.1893,2522,2019-08-07 16:15:26:569
4.8996,-8.0758,2.4883,-1.8085,-0.5686,0.552,-0.2253,1.0273,-0.1893,2528,2019-08-07 16:15:26:575
4.8996,-8.0758,2.4883,0.4775,-0.1277,-0.7915,-0.2413,0.8749,-0.1616,2532,2019-08-07 16:15:26:579
3.6462,-8.3432,3.1341,0.4775,-0.1277,-0.7915,-0.2413,0.8749,-0.1616,2538,2019-08-07 16:15:26:585
3.6462,-8.3432,3.1341,1.0543,-0.05,-0.951,-0.2339,0.5415,-0.1339,2543,2019-08-07 16:15:26:590
3.6462,-8.3432,3.1341,1.0543,-0.05,-0.951,-0.2339,0.5415,-0.1339,2548,2019-08-07 16:15:26:595
3.4979,-8.453,2.9126,1.0543,-0.05,-0.951,-0.2381,0.0568,-0.0966,2552,2019-08-07 16:15:26:599
3.4979,-8.453,2.9126,1.0543,-0.05,-0.951,-0.2381,0.0568,-0.0966,2558,2019-08-07 16:15:26:605
3.9189,-8.5246,2.4742,0.7115,0.1523,-0.3059,-0.2424,-0.1829,-0.0647,2562,2019-08-07 16:15:26:609
3.9189,-8.5246,2.4742,0.7115,0.1523,-0.3059,-0.2424,-0.1829,-0.0647,2568,2019-08-07 16:15:26:615
3.9189,-8.5246,2.4742,0.7115,0.1523,-0.3059,-0.2424,-0.1829,-0.0647,2572,2019-08-07 16:15:26:619
4.9618,-8.7108,1.7624,-0.1028,0.3064,0.3078,-0.2307,-0.2766,-0.0359,2578,2019-08-07 16:15:26:625
4.9618,-8.7108,1.7624,-0.1028,0.3064,0.3078,-0.2307,-0.2766,-0.0359,2583,2019-08-07 16:15:26:630
4.9618,-8.7108,1.7624,-0.1028,0.3064,0.3078,-0.203,-0.1019,-0.0114,2588,2019-08-07 16:15:26:635
4.9618,-8.7108,1.7624,-0.1028,0.3064,0.3078,-0.203,-0.1019,-0.0114,2592,2019-08-07 16:15:26:639
5.5407,-8.7728,1.2345,-0.9339,0.3664,0.9107,-0.1678,0.1207,0.0024,2599,2019-08-07 16:15:26:646
5.5407,-8.7728,1.2345,-0.9339,0.3664,0.9107,-0.1678,0.1207,0.0024,2602,2019-08-07 16:15:26:649
5.5407,-8.8683,1.2062,-0.9339,0.3664,0.9107,-0.139,0.3114,0.0088,2608,2019-08-07 16:15:26:655
5.2728,-8.8683,1.2062,-0.3938,0.5456,0.5832,-0.139,0.3114,0.0088,2613,2019-08-07 16:15:26:660
5.2728,-8.8683,1.2062,-0.3938,0.5456,0.5832,-0.139,0.3114,0.0088,2618,2019-08-07 16:15:26:665
5.2728,-8.8683,1.2062,-0.3938,0.5456,0.5832,-0.0485,0.3924,0.0216,2623,2019-08-07 16:15:26:670
4.3543,-8.8779,1.8331,-0.3938,0.5456,0.5832,-0.0485,0.3924,0.0216,2627,2019-08-07 16:15:26:674
4.3543,-8.8779,1.8331,0.622,0.3957,0.1015,0.0048,0.3029,0.0493,2634,2019-08-07 16:15:26:681
3.8615,-8.749,2.1631,0.622,0.3957,0.1015,0.0048,0.3029,0.0493,2637,2019-08-07 16:15:26:684
3.8615,-8.749,2.1631,0.622,0.3957,0.1015,0.0399,0.1239,0.0834,2643,2019-08-07 16:15:26:690
3.8615,-8.749,2.1631,0.622,0.3957,0.1015,0.0399,0.1239,0.0834,2648,2019-08-07 16:15:26:695
3.8854,-8.5628,2.2621,0.7167,0.1579,-0.1612,0.0484,-0.1413,0.1068,2653,2019-08-07 16:15:26:700
3.8854,-8.5628,2.2621,0.7167,0.1579,-0.1612,0.0484,-0.1413,0.1068,2657,2019-08-07 16:15:26:704
3.8854,-8.5628,2.2621,0.7167,0.1579,-0.1612,0.0484,-0.1413,0.1068,2662,2019-08-07 16:15:26:709
4.3112,-8.3718,1.9793,0.7167,0.1579,-0.1612,0.0399,-0.2809,0.1228,2668,2019-08-07 16:15:26:715
4.3112,-8.3718,1.9793,0.7167,0.1579,-0.1612,0.0399,-0.2809,0.1228,2673,2019-08-07 16:15:26:720
4.6605,-8.3384,1.819,-0.0706,-0.0766,0.2682,0.0261,-0.3224,0.1292,2678,2019-08-07 16:15:26:725
4.6605,-8.3384,1.819,-0.0706,-0.0766,0.2682,0.0261,-0.3224,0.1292,2683,2019-08-07 16:15:26:730
4.6605,-8.3384,1.819,-0.0706,-0.0766,0.2682,0.0069,-0.1893,0.1239,2688,2019-08-07 16:15:26:735
5.2537,-8.2764,1.621,-0.6039,-0.2346,0.4601,0.0069,-0.1893,0.1239,2693,2019-08-07 16:15:26:740
5.2537,-8.2764,1.621,-0.6039,-0.2346,0.4601,0.0037,-0.0391,0.1079,2699,2019-08-07 16:15:26:746
5.2537,-8.2764,1.621,-0.6039,-0.2346,0.4601,0.0037,-0.0391,0.1079,2702,2019-08-07 16:15:26:749
4.9093,-8.0997,1.6681,-0.6039,-0.2346,0.4601,-0.008,0.0558,0.0877,2708,2019-08-07 16:15:26:755
4.9093,-8.0997,1.6681,-0.143,-0.3808,0.1693,-0.008,0.0558,0.0877,2714,2019-08-07 16:15:26:761
4.9093,-8.0997,1.6681,-0.143,-0.3808,0.1693,-0.008,0.0558,0.0877,2718,2019-08-07 16:15:26:765
4.6509,-8.1379,2.1254,-0.143,-0.3808,0.1693,-0.0528,0.0717,0.0674,2723,2019-08-07 16:15:26:770
4.6509,-8.1379,2.1254,-0.143,-0.3808,0.1693,-0.0528,0.0717,0.0674,2728,2019-08-07 16:15:26:775
4.6509,-8.1379,2.1254,-0.0403,-0.2017,-0.2337,-0.0591,0.0249,0.0578,2733,2019-08-07 16:15:26:780
4.5839,-8.2716,2.3469,-0.0403,-0.2017,-0.2337,-0.0591,0.0249,0.0578,2737,2019-08-07 16:15:26:784
4.5839,-8.2716,2.3469,-0.0403,-0.2017,-0.2337,-0.0474,-0.0923,0.045,2743,2019-08-07 16:15:26:790
4.5839,-8.2716,2.3469,-0.0403,-0.2017,-0.2337,-0.0474,-0.0923,0.045,2748,2019-08-07 16:15:26:795
4.694,-8.305,2.1914,-0.192,-0.1405,-0.0846,-0.0474,-0.0923,0.045,2753,2019-08-07 16:15:26:800
4.694,-8.305,2.1914,-0.192,-0.1405,-0.0846,-0.0474,-0.0923,0.045,2758,2019-08-07 16:15:26:805
4.9667,-8.3002,2.2244,-0.192,-0.1405,-0.0846,-0.0378,-0.2106,0.0664,2763,2019-08-07 16:15:26:810
4.9667,-8.3002,2.2244,-0.192,-0.1405,-0.0846,-0.0378,-0.2106,0.0664,2768,2019-08-07 16:15:26:815
4.9667,-8.3002,2.2244,-0.192,-0.1405,-0.0846,-0.0133,-0.25,0.0845,2773,2019-08-07 16:15:26:820
5.0432,-8.3623,2.0547,-0.4892,-0.0897,-0.0397,-0.0133,-0.25,0.0845,2778,2019-08-07 16:15:26:825
5.0432,-8.3623,2.0547,-0.4892,-0.0897,-0.0397,-0.0112,-0.2457,0.0994,2783,2019-08-07 16:15:26:830
5.0432,-8.3623,2.0547,-0.4892,-0.0897,-0.0397,-0.0112,-0.2457,0.0994,2788,2019-08-07 16:15:26:835
5.2394,-8.4387,1.8708,-0.7752,-0.0165,0.1473,-0.0144,-0.217,0.1079,2792,2019-08-07 16:15:26:839
5.2394,-8.4387,1.8708,-0.7752,-0.0165,0.1473,-0.0144,-0.217,0.1079,2799,2019-08-07 16:15:26:846
5.2394,-8.4387,1.8708,-0.7752,-0.0165,0.1473,0.0112,-0.0763,0.1058,2803,2019-08-07 16:15:26:850
5.2394,-8.4387,1.8708,-0.7752,-0.0165,0.1473,0.0112,-0.0763,0.1058,2808,2019-08-07 16:15:26:855
5.3973,-8.3814,1.8661,-0.7752,-0.0165,0.1473,0.0112,-0.0763,0.1058,2813,2019-08-07 16:15:26:860
5.3973,-8.3814,1.8661,-0.7941,-0.2146,0.2374,0.0293,0.0366,0.1015,2818,2019-08-07 16:15:26:865
5.3973,-8.3814,1.8661,-0.7941,-0.2146,0.2374,0.0293,0.0366,0.1015,2823,2019-08-07 16:15:26:870
5.0433,-8.0759,1.8426,-0.7941,-0.2146,0.2374,0.0197,0.1378,0.0855,2828,2019-08-07 16:15:26:875
5.0433,-8.0759,1.8426,-0.2206,-0.5202,-0.0794,0.0197,0.1378,0.0855,2832,2019-08-07 16:15:26:879
5.0433,-8.0759,1.8426,-0.2206,-0.5202,-0.0794,-0.0016,0.1239,0.0632,2838,2019-08-07 16:15:26:885
4.6462,-7.8849,2.2621,-0.2206,-0.5202,-0.0794,-0.0016,0.1239,0.0632,2843,2019-08-07 16:15:26:890
4.6462,-7.8849,2.2621,-0.2206,-0.5202,-0.0794,-0.0101,0.059,0.0514,2849,2019-08-07 16:15:26:896
4.6462,-7.8849,2.2621,-0.2206,-0.5202,-0.0794,-0.0101,0.059,0.0514,2852,2019-08-07 16:15:26:899
4.4213,-7.9661,2.2102,0.0933,-0.5098,-0.2068,-0.0187,-0.0114,0.045,2858,2019-08-07 16:15:26:905
4.4213,-7.9661,2.2102,0.0933,-0.5098,-0.2068,-0.0187,-0.0114,0.045,2863,2019-08-07 16:15:26:910
4.4213,-7.9661,2.2102,0.0933,-0.5098,-0.2068,-0.0187,-0.0114,0.045,2868,2019-08-07 16:15:26:915
4.4213,-7.9661,2.2102,0.0933,-0.5098,-0.2068,-0.0208,-0.1594,0.0227,2873,2019-08-07 16:15:26:920
4.6223,-8.1857,2.2574,-0.1129,-0.2688,-0.2821,-0.0208,-0.1594,0.0227,2878,2019-08-07 16:15:26:925
4.6223,-8.1857,2.2574,-0.1129,-0.2688,-0.2821,-0.0016,-0.217,0.0152,2883,2019-08-07 16:15:26:930
4.895,-8.2334,1.9463,-0.1129,-0.2688,-0.2821,-0.0016,-0.217,0.0152,2888,2019-08-07 16:15:26:935
4.895,-8.2334,1.9463,-0.1129,-0.2688,-0.2821,-0.0091,-0.2383,0.011,2893,2019-08-07 16:15:26:940
4.895,-8.2334,1.9463,-0.5576,-0.2017,0.0504,-0.0091,-0.2383,0.011,2898,2019-08-07 16:15:26:945
5.1677,-8.2811,1.7719,-0.5576,-0.2017,0.0504,-0.0133,-0.1807,-0.005,2903,2019-08-07 16:15:26:950
5.1677,-8.2811,1.7719,-0.7949,-0.0527,0.1288,-0.0133,-0.1807,-0.005,2908,2019-08-07 16:15:26:955
5.426,-8.4673,1.7389,-0.7949,-0.0527,0.1288,-0.008,-0.0817,-0.0157,2913,2019-08-07 16:15:26:960
5.426,-8.4673,1.7389,-0.7949,-0.0527,0.1288,-0.008,-0.0817,-0.0157,2918,2019-08-07 16:15:26:965
5.4069,-8.5819,1.654,-0.7949,-0.0527,0.1288,0.0016,0.0696,-0.0253,2923,2019-08-07 16:15:26:970
5.4069,-8.5819,1.654,-0.8037,0.1658,0.2242,0.0016,0.0696,-0.0253,2928,2019-08-07 16:15:26:975
5.4069,-8.5819,1.654,-0.8037,0.1658,0.2242,0.0016,0.0696,-0.0253,2933,2019-08-07 16:15:26:980
5.4069,-8.5819,1.654,-0.8037,0.1658,0.2242,0.0101,0.2092,-0.0338,2938,2019-08-07 16:15:26:985
4.7658,-8.5437,1.8284,-0.8037,0.1658,0.2242,0.0101,0.2092,-0.0338,2942,2019-08-07 16:15:26:989
4.7658,-8.5437,1.8284,-0.0336,0.0505,-0.2812,0.0197,0.1996,-0.0295,2947,2019-08-07 16:15:26:994
4.7658,-8.5437,1.8284,-0.0336,0.0505,-0.2812,0.0197,0.1996,-0.0295,2953,2019-08-07 16:15:27:000
4.7658,-8.5437,1.8284,-0.0336,0.0505,-0.2812,0.0197,0.1996,-0.0295,2957,2019-08-07 16:15:27:004
4.3113,-8.5151,2.6816,0.2279,0.0476,-0.6981,0.041,0.1016,-0.0242,2963,2019-08-07 16:15:27:010
4.3113,-8.5151,2.6816,0.2279,0.0476,-0.6981,0.041,0.1016,-0.0242,2968,2019-08-07 16:15:27:015
4.3113,-8.5151,2.6816,0.2279,0.0476,-0.6981,0.0442,-0.0966,0.012,2973,2019-08-07 16:15:27:020
4.3209,-8.3623,2.5402,0.0935,-0.1839,-0.4653,0.0442,-0.0966,0.012,2978,2019-08-07 16:15:27:025
4.3209,-8.3623,2.5402,0.0935,-0.1839,-0.4653,0.0389,-0.2255,0.0397,2984,2019-08-07 16:15:27:031
4.3209,-8.3623,2.5402,0.0935,-0.1839,-0.4653,0.0389,-0.2255,0.0397,2988,2019-08-07 16:15:27:035
4.8567,-8.4005,2.2338,0.0935,-0.1839,-0.4653,0.0346,-0.2777,0.0557,2993,2019-08-07 16:15:27:040
4.8567,-8.4005,2.2338,-0.5633,0.0104,-0.0644,0.0346,-0.2777,0.0557,2999,2019-08-07 16:15:27:046
4.8567,-8.4005,2.2338,-0.5633,0.0104,-0.0644,0.0335,-0.2425,0.0717,3003,2019-08-07 16:15:27:050
5.2921,-8.4912,1.9133,-0.7485,0.0234,0.0586,0.0335,-0.2425,0.0717,3009,2019-08-07 16:15:27:056
5.2921,-8.4912,1.9133,-0.7485,0.0234,0.0586,0.0335,-0.2425,0.0717,3013,2019-08-07 16:15:27:060
5.2921,-8.4912,1.9133,-0.7485,0.0234,0.0586,0.0282,-0.1658,0.0823,3018,2019-08-07 16:15:27:065
5.4978,-8.5628,1.8332,-0.7485,0.0234,0.0586,0.0282,-0.1658,0.0823,3023,2019-08-07 16:15:27:070
5.4978,-8.5628,1.8332,-0.9066,0.0237,0.0888,0.0378,0.0355,0.0919,3028,2019-08-07 16:15:27:075
5.4978,-8.5628,1.8332,-0.9066,0.0237,0.0888,0.0378,0.0355,0.0919,3032,2019-08-07 16:15:27:079
5.2012,-8.4387,1.8709,-0.9066,0.0237,0.0888,0.0378,0.0355,0.0919,3038,2019-08-07 16:15:27:085
5.2012,-8.4387,1.8709,-0.9066,0.0237,0.0888,0.041,0.206,0.0791,3043,2019-08-07 16:15:27:090
5.2012,-8.4387,1.8709,-0.3584,-0.1235,0.0146,0.041,0.206,0.0791,3047,2019-08-07 16:15:27:094
4.7946,-8.3193,2.0264,-0.3584,-0.1235,0.0146,0.0389,0.2741,0.0632,3053,2019-08-07 16:15:27:100
4.7946,-8.3193,2.0264,-0.3584,-0.1235,0.0146,0.0389,0.2741,0.0632,3057,2019-08-07 16:15:27:104
4.4262,-8.2477,2.2338,-0.3584,-0.1235,0.0146,0.0367,0.2528,0.044,3063,2019-08-07 16:15:27:110
4.4262,-8.2477,2.2338,0.201,-0.303,-0.354,0.0367,0.2528,0.044,3067,2019-08-07 16:15:27:114
4.4262,-8.2477,2.2338,0.201,-0.303,-0.354,0.0399,0.1878,0.0227,3073,2019-08-07 16:15:27:120
4.12,-8.1141,2.4035,0.201,-0.303,-0.354,0.0399,0.1878,0.0227,3078,2019-08-07 16:15:27:125
4.12,-8.1141,2.4035,0.201,-0.303,-0.354,0.0399,0.1878,0.0227,3083,2019-08-07 16:15:27:130
3.9908,-8.0377,2.4554,0.5014,-0.4412,-0.4146,0.0389,0.0323,-0.0018,3087,2019-08-07 16:15:27:134
3.9908,-8.0377,2.4554,0.5014,-0.4412,-0.4146,0.0389,0.0323,-0.0018,3093,2019-08-07 16:15:27:140
3.9908,-8.0377,2.4554,0.5014,-0.4412,-0.4146,0.0144,-0.1371,3.0E-4,3097,2019-08-07 16:15:27:144
4.3592,-8.0138,2.3894,0.5014,-0.4412,-0.4146,0.0144,-0.1371,3.0E-4,3103,2019-08-07 16:15:27:150
4.3592,-8.0138,2.3894,-0.1714,-0.387,-0.1675,0.0112,-0.2564,-0.005,3107,2019-08-07 16:15:27:154
4.9046,-8.1857,1.984,-0.1714,-0.387,-0.1675,0.0112,-0.2564,-0.005,3113,2019-08-07 16:15:27:160
4.9046,-8.1857,1.984,-0.1714,-0.387,-0.1675,0.0197,-0.25,-0.0178,3118,2019-08-07 16:15:27:165
4.9046,-8.1857,1.984,-0.1714,-0.387,-0.1675,0.0197,-0.25,-0.0178,3123,2019-08-07 16:15:27:170
5.3352,-8.2239,1.8473,-0.895,-0.2488,0.2215,0.0239,-0.1967,-0.0199,3128,2019-08-07 16:15:27:175
5.3352,-8.2239,1.8473,-0.895,-0.2488,0.2215,0.0239,-0.1967,-0.0199,3132,2019-08-07 16:15:27:179
5.5689,-8.3193,1.6963,-0.895,-0.2488,0.2215,0.0239,-0.1967,-0.0199,3138,2019-08-07 16:15:27:185
5.5689,-8.3193,1.6963,-0.895,-0.2488,0.2215,0.041,-0.0678,-0.0221,3143,2019-08-07 16:15:27:190
5.5689,-8.3193,1.6963,-0.9663,-0.2136,0.2369,0.041,-0.0678,-0.0221,3148,2019-08-07 16:15:27:195
5.4254,-8.176,1.7576,-0.9663,-0.2136,0.2369,0.0548,0.1026,-0.0242,3153,2019-08-07 16:15:27:200
5.4254,-8.176,1.7576,-0.9663,-0.2136,0.2369,0.0548,0.1026,-0.0242,3158,2019-08-07 16:15:27:205
4.9182,-8.1713,1.9037,-0.9663,-0.2136,0.2369,0.0516,0.1879,-0.0285,3163,2019-08-07 16:15:27:210
4.9182,-8.1713,1.9037,-0.1883,-0.2689,-0.0383,0.0516,0.1879,-0.0285,3168,2019-08-07 16:15:27:215
4.9182,-8.1713,1.9037,-0.1883,-0.2689,-0.0383,0.0378,0.1729,-0.0359,3173,2019-08-07 16:15:27:220
4.4542,-8.1713,2.295,-0.1883,-0.2689,-0.0383,0.0378,0.1729,-0.0359,3178,2019-08-07 16:15:27:225
4.4542,-8.1713,2.295,-0.1883,-0.2689,-0.0383,0.0271,0.0728,-0.037,3182,2019-08-07 16:15:27:229
4.4542,-8.1713,2.295,-0.1883,-0.2689,-0.0383,0.0271,0.0728,-0.037,3188,2019-08-07 16:15:27:235
4.2197,-8.2286,2.4269,0.3144,-0.2256,-0.3762,0.0197,-0.0731,-0.037,3193,2019-08-07 16:15:27:240
4.2197,-8.2286,2.4269,0.3144,-0.2256,-0.3762,0.0197,-0.0731,-0.037,3198,2019-08-07 16:15:27:245
4.2197,-8.2286,2.4269,0.3144,-0.2256,-0.3762,0.0197,-0.0731,-0.037,3202,2019-08-07 16:15:27:249
4.4494,-8.1569,2.2855,-0.0338,-0.2593,-0.207,0.0176,-0.2106,-0.0327,3208,2019-08-07 16:15:27:255
4.4494,-8.1569,2.2855,-0.0338,-0.2593,-0.207,0.0176,-0.2106,-0.0327,3212,2019-08-07 16:15:27:259
4.9613,-8.2047,2.1583,-0.0338,-0.2593,-0.207,-0.0048,-0.3118,-0.0146,3218,2019-08-07 16:15:27:265
4.9613,-8.2047,2.1583,-0.0338,-0.2593,-0.207,-0.0048,-0.3118,-0.0146,3222,2019-08-07 16:15:27:269
4.9613,-8.2047,2.1583,-0.7761,-0.2468,0.2354,-0.0155,-0.3309,-0.0072,3228,2019-08-07 16:15:27:275
5.4636,-8.2524,1.7953,-0.7761,-0.2468,0.2354,-0.0155,-0.3309,-0.0072,3233,2019-08-07 16:15:27:280
5.4636,-8.2524,1.7953,-0.7761,-0.2468,0.2354,-0.0549,-0.2585,0.0088,3238,2019-08-07 16:15:27:285
5.4636,-8.2524,1.7953,-0.7761,-0.2468,0.2354,-0.0549,-0.2585,0.0088,3243,2019-08-07 16:15:27:290
5.8416,-8.3574,1.6256,-1.2438,-0.0888,0.3955,-0.0581,-0.0987,0.0099,3248,2019-08-07 16:15:27:295
5.8416,-8.3574,1.6256,-1.2438,-0.0888,0.3955,-0.0581,-0.0987,0.0099,3253,2019-08-07 16:15:27:300
5.7794,-8.3813,1.6303,-1.2438,-0.0888,0.3955,-0.0421,0.0643,0.0131,3257,2019-08-07 16:15:27:304
5.7794,-8.3813,1.6303,-1.2438,-0.0888,0.3955,-0.0421,0.0643,0.0131,3263,2019-08-07 16:15:27:310
5.0952,-8.2095,1.8141,-0.5173,-0.2366,0.1717,-0.0272,0.2614,0.0131,3268,2019-08-07 16:15:27:315
5.0952,-8.2095,1.8141,-0.5173,-0.2366,0.1717,-0.0272,0.2614,0.0131,3273,2019-08-07 16:15:27:320
5.0952,-8.2095,1.8141,-0.5173,-0.2366,0.1717,-0.024,0.2922,0.0291,3278,2019-08-07 16:15:27:325
4.4637,-8.2763,2.1441,-0.5173,-0.2366,0.1717,-0.024,0.2922,0.0291,3282,2019-08-07 16:15:27:329
4.4637,-8.2763,2.1441,-0.5173,-0.2366,0.1717,-0.024,0.2922,0.0291,3288,2019-08-07 16:15:27:335
4.4637,-8.2763,2.1441,0.2574,-0.1201,-0.297,-0.024,0.2219,0.028,3293,2019-08-07 16:15:27:340
4.2293,-8.3765,2.3185,0.2574,-0.1201,-0.297,-0.024,0.2219,0.028,3298,2019-08-07 16:15:27:345
4.2293,-8.3765,2.3185,0.2574,-0.1201,-0.297,-0.0155,0.0259,0.0184,3303,2019-08-07 16:15:27:350
4.191,-8.262,2.3138,0.2574,-0.1201,-0.297,-0.0155,0.0259,0.0184,3308,2019-08-07 16:15:27:355
4.191,-8.262,2.3138,0.2678,-0.2044,-0.2148,-0.024,-0.1179,0.0237,3313,2019-08-07 16:15:27:360
4.191,-8.262,2.3138,0.2678,-0.2044,-0.2148,-0.024,-0.1179,0.0237,3317,2019-08-07 16:15:27:364
4.5546,-8.1808,2.1535,0.2678,-0.2044,-0.2148,-0.0336,-0.2212,0.0333,3323,2019-08-07 16:15:27:370
4.5546,-8.1808,2.1535,0.2678,-0.2044,-0.2148,-0.0336,-0.2212,0.0333,3328,2019-08-07 16:15:27:375
4.9804,-8.2238,1.8283,-0.3033,-0.2363,0.1321,-0.0336,-0.2212,0.0333,3332,2019-08-07 16:15:27:379
4.9804,-8.2238,1.8283,-0.3033,-0.2363,0.1321,-0.0581,-0.2393,0.0323,3338,2019-08-07 16:15:27:385
4.9804,-8.2238,1.8283,-0.3033,-0.2363,0.1321,-0.0581,-0.2393,0.0323,3343,2019-08-07 16:15:27:390
5.277,-8.1999,1.701,-0.3033,-0.2363,0.1321,-0.0751,-0.201,0.0216,3348,2019-08-07 16:15:27:395
5.277,-8.1999,1.701,-0.8589,-0.1582,0.3295,-0.0751,-0.201,0.0216,3354,2019-08-07 16:15:27:401
5.4444,-8.2811,1.5926,-0.8589,-0.1582,0.3295,-0.0709,-0.0881,0.012,3358,2019-08-07 16:15:27:405
5.4444,-8.2811,1.5926,-0.8312,-0.1447,0.3454,-0.0709,-0.0881,0.012,3363,2019-08-07 16:15:27:410
5.4444,-8.2811,1.5926,-0.8312,-0.1447,0.3454,-0.0453,0.0973,-0.0018,3367,2019-08-07 16:15:27:414
5.2291,-8.3383,1.5973,-0.8312,-0.1447,0.3454,-0.0453,0.0973,-0.0018,3373,2019-08-07 16:15:27:420
5.2291,-8.3383,1.5973,-0.8312,-0.1447,0.3454,-0.0453,0.0973,-0.0018,3378,2019-08-07 16:15:27:425
5.2291,-8.3383,1.5973,-0.2518,-0.2114,0.1939,-0.0314,0.1868,-0.004,3383,2019-08-07 16:15:27:430
4.6646,-8.3049,1.8754,-0.2518,-0.2114,0.1939,-0.0187,0.1783,-0.0018,3388,2019-08-07 16:15:27:435
4.6646,-8.3049,1.8754,-0.2518,-0.2114,0.1939,-0.0187,0.1783,-0.0018,3393,2019-08-07 16:15:27:440
4.4206,-8.3765,2.1959,-0.2518,-0.2114,0.1939,-0.0112,0.0994,-0.004,3399,2019-08-07 16:15:27:446
4.4206,-8.3765,2.1959,0.1589,-0.0683,-0.2936,-0.0112,0.0994,-0.004,3403,2019-08-07 16:15:27:450
4.4206,-8.3765,2.1959,0.1589,-0.0683,-0.2936,-0.0112,0.0994,-0.004,3408,2019-08-07 16:15:27:455
4.4206,-8.3288,2.2761,0.1589,-0.0683,-0.2936,0.0037,-0.022,-0.0093,3413,2019-08-07 16:15:27:460
4.4206,-8.3288,2.2761,0.1589,-0.0683,-0.2936,0.0069,-0.1264,-0.0093,3418,2019-08-07 16:15:27:465
4.588,-8.2715,2.0922,-0.0204,-0.1864,-0.1334,0.0069,-0.1264,-0.0093,3423,2019-08-07 16:15:27:470
4.588,-8.2715,2.0922,-0.0204,-0.1864,-0.1334,0.0069,-0.1264,-0.0093,3427,2019-08-07 16:15:27:474
4.588,-8.2715,2.0922,-0.0204,-0.1864,-0.1334,5.0E-4,-0.1935,-0.0061,3433,2019-08-07 16:15:27:480
4.588,-8.2715,2.0922,-0.0204,-0.1864,-0.1334,5.0E-4,-0.1935,-0.0061,3438,2019-08-07 16:15:27:485
4.8129,-8.1856,1.899,-0.321,-0.2423,0.0039,-0.0165,-0.2031,0.0014,3444,2019-08-07 16:15:27:491
4.8129,-8.1856,1.899,-0.321,-0.2423,0.0039,-0.0165,-0.2031,0.0014,3449,2019-08-07 16:15:27:496
4.966,-8.2238,1.8848,-0.321,-0.2423,0.0039,-0.0325,-0.1978,-0.005,3454,2019-08-07 16:15:27:501
4.966,-8.2238,1.8848,-0.321,-0.2423,0.0039,-0.0325,-0.1978,-0.005,3457,2019-08-07 16:15:27:504
4.966,-8.2238,1.8848,-0.563,-0.1507,0.1119,-0.0453,-0.1882,-0.0061,3463,2019-08-07 16:15:27:510
5.1573,-8.2715,1.7623,-0.563,-0.1507,0.1119,-0.0453,-0.1882,-0.0061,3467,2019-08-07 16:15:27:514
5.1573,-8.2715,1.7623,-0.563,-0.1507,0.1119,-0.0442,-0.1456,-0.0146,3473,2019-08-07 16:15:27:520
5.2961,-8.3718,1.7623,-0.563,-0.1507,0.1119,-0.0442,-0.1456,-0.0146,3478,2019-08-07 16:15:27:525
5.2961,-8.3718,1.7623,-0.6559,-0.068,0.179,-0.0442,-0.1456,-0.0146,3483,2019-08-07 16:15:27:530
5.2817,-8.3909,1.7434,-0.6559,-0.068,0.179,-0.0293,-0.0401,-0.0146,3488,2019-08-07 16:15:27:535
5.2817,-8.3909,1.7434,-0.6559,-0.068,0.179,-0.0293,-0.0401,-0.0146,3493,2019-08-07 16:15:27:540
5.2817,-8.3909,1.7434,-0.6559,-0.068,0.179,-0.024,0.0185,-0.004,3498,2019-08-07 16:15:27:545
5.0712,-8.3527,1.7811,-0.4638,-0.0998,0.1065,-0.024,0.0185,-0.004,3502,2019-08-07 16:15:27:549
5.0712,-8.3527,1.7811,-0.4638,-0.0998,0.1065,-0.0197,0.0451,0.0024,3508,2019-08-07 16:15:27:555
5.0712,-8.3527,1.7811,-0.4638,-0.0998,0.1065,-0.0197,0.0451,0.0024,3513,2019-08-07 16:15:27:560
4.8607,-8.3861,2.0262,-0.4638,-0.0998,0.1065,-0.0069,0.0472,0.0056,3518,2019-08-07 16:15:27:565
4.8607,-8.3861,2.0262,-0.1627,-0.128,-0.0792,-0.0069,0.0472,0.0056,3522,2019-08-07 16:15:27:569
4.7411,-8.2763,1.9084,-0.1627,-0.128,-0.0792,-0.008,0.01,0.0067,3528,2019-08-07 16:15:27:575
4.7411,-8.2763,1.9084,-0.1627,-0.128,-0.0792,-0.008,0.01,0.0067,3533,2019-08-07 16:15:27:580
4.7411,-8.2763,1.9084,-0.1627,-0.128,-0.0792,-0.008,-0.022,0.0078,3538,2019-08-07 16:15:27:585
4.7411,-8.2763,1.9084,-0.1627,-0.128,-0.0792,-0.008,-0.022,0.0078,3542,2019-08-07 16:15:27:589
4.7411,-8.3097,2.1441,-0.1339,-0.1425,-0.2544,-0.008,-0.022,0.0078,3549,2019-08-07 16:15:27:596
4.7411,-8.3097,2.1441,-0.1339,-0.1425,-0.2544,-6.0E-4,-0.0497,0.0024,3553,2019-08-07 16:15:27:600
4.7698,-8.2667,2.0498,-0.1339,-0.1425,-0.2544,-6.0E-4,-0.0497,0.0024,3558,2019-08-07 16:15:27:605
4.7698,-8.2667,2.0498,-0.1785,-0.1701,-0.0081,-0.0027,-0.0582,-0.0082,3563,2019-08-07 16:15:27:610
4.8368,-8.2381,1.9084,-0.1785,-0.1701,-0.0081,-0.0027,-0.0582,-0.0082,3568,2019-08-07 16:15:27:615
4.8368,-8.2381,1.9084,-0.1785,-0.1701,-0.0081,-0.0123,-0.0561,-0.0178,3573,2019-08-07 16:15:27:620
4.8368,-8.2381,1.9084,-0.1785,-0.1701,-0.0081,-0.0123,-0.0561,-0.0178,3579,2019-08-07 16:15:27:626
5.0329,-8.2954,1.9037,-0.4249,-0.1534,-0.0101,-0.0165,-0.0135,-0.0178,3583,2019-08-07 16:15:27:630
5.0329,-8.2954,1.9037,-0.4249,-0.1534,-0.0101,-0.0165,-0.0135,-0.0178,3588,2019-08-07 16:15:27:635
5.0329,-8.2954,1.9037,-0.4249,-0.1534,-0.0101,-0.0165,-0.0135,-0.0178,3593,2019-08-07 16:15:27:640
5.0377,-8.2667,1.8424,-0.4249,-0.1534,-0.0101,-0.0176,0.0249,-0.0167,3598,2019-08-07 16:15:27:645
5.0377,-8.2667,1.8424,-0.4249,-0.1534,-0.0101,-0.0176,0.0249,-0.0167,3603,2019-08-07 16:15:27:650
5.0281,-8.3049,1.7811,-0.4054,-0.1415,0.0965,-0.0187,0.0376,-0.0072,3608,2019-08-07 16:15:27:655
5.0281,-8.3049,1.7811,-0.4054,-0.1415,0.0965,-0.0187,0.0376,-0.0072,3612,2019-08-07 16:15:27:659
5.0281,-8.3049,1.7811,-0.4054,-0.1415,0.0965,-0.0197,0.0291,-0.005,3618,2019-08-07 16:15:27:665
4.985,-8.4243,1.8047,-0.4054,-0.1415,0.0965,-0.0197,0.0291,-0.005,3623,2019-08-07 16:15:27:670
4.985,-8.4243,1.8047,-0.3266,-0.0497,0.0109,-0.0155,0.0153,-0.004,3629,2019-08-07 16:15:27:676
4.9372,-8.4052,1.8565,-0.3266,-0.0497,0.0109,-0.0155,0.0153,-0.004,3632,2019-08-07 16:15:27:679
4.9372,-8.4052,1.8565,-0.3266,-0.0497,0.0109,-0.0155,0.0153,-0.004,3638,2019-08-07 16:15:27:685
4.875,-8.4004,1.8188,-0.2715,-0.0678,0.0893,-0.0038,-0.006,-0.0061,3644,2019-08-07 16:15:27:691
4.875,-8.4004,1.8188,-0.2715,-0.0678,0.0893,-0.0038,-0.006,-0.0061,3648,2019-08-07 16:15:27:695
4.875,-8.4004,1.8188,-0.2715,-0.0678,0.0893,-0.0059,-0.0241,-0.0146,3654,2019-08-07 16:15:27:701
4.8559,-8.3431,1.7811,-0.2715,-0.0678,0.0893,-0.0059,-0.0241,-0.0146,3658,2019-08-07 16:15:27:705
4.8559,-8.3431,1.7811,-0.2715,-0.0678,0.0893,-0.0048,-0.0177,-0.0114,3663,2019-08-07 16:15:27:710
4.8559,-8.3431,1.7811,-0.2046,-0.1424,0.0435,-0.0048,-0.0177,-0.0114,3667,2019-08-07 16:15:27:714
4.8606,-8.3192,1.8565,-0.2046,-0.1424,0.0435,0.0037,-0.0145,-0.0167,3673,2019-08-07 16:15:27:720
4.8606,-8.3192,1.8565,-0.2046,-0.1424,0.0435,0.0037,-0.0145,-0.0167,3679,2019-08-07 16:15:27:726
4.8511,-8.2858,1.8471,-0.2046,-0.1424,0.0435,0.0048,-0.0337,-0.0178,3683,2019-08-07 16:15:27:730
4.8511,-8.2858,1.8471,-0.1947,-0.1828,-0.0286,0.0048,-0.0337,-0.0178,3688,2019-08-07 16:15:27:735
4.8511,-8.2858,1.8471,-0.1947,-0.1828,-0.0286,-0.0059,-0.0678,-0.0125,3693,2019-08-07 16:15:27:740
4.8176,-8.1808,1.6586,-0.1947,-0.1828,-0.0286,-0.0059,-0.0678,-0.0125,3698,2019-08-07 16:15:27:745
4.8176,-8.1808,1.6586,-0.1947,-0.1828,-0.0286,-0.0677,-0.1946,-0.0061,3703,2019-08-07 16:15:27:750
4.8558,-8.2476,2.0074,-0.0962,-0.282,-0.0709,-0.0677,-0.1946,-0.0061,3709,2019-08-07 16:15:27:756
4.8558,-8.2476,2.0074,-0.0962,-0.282,-0.0709,-0.0517,-0.2159,0.0056,3712,2019-08-07 16:15:27:759
4.8558,-8.2476,2.0074,-0.0962,-0.282,-0.0709,-0.0517,-0.2159,0.0056,3718,2019-08-07 16:15:27:765
5.162,-8.3383,1.8141,-0.0962,-0.282,-0.0709,-0.0293,-0.2276,0.0088,3723,2019-08-07 16:15:27:770
5.162,-8.3383,1.8141,-0.56,-0.0249,0.1225,-0.0293,-0.2276,0.0088,3728,2019-08-07 16:15:27:775
5.162,-8.3383,1.8141,-0.56,-0.0249,0.1225,0.0122,-0.1413,0.0195,3733,2019-08-07 16:15:27:780
5.3055,-8.3336,1.5548,-0.56,-0.0249,0.1225,0.0122,-0.1413,0.0195,3737,2019-08-07 16:15:27:784
5.3055,-8.3336,1.5548,-0.56,-0.0249,0.1225,0.0357,-0.0273,0.0248,3743,2019-08-07 16:15:27:790
5.4491,-8.3288,1.6774,-0.76,-0.1245,0.1631,0.0357,-0.0273,0.0248,3748,2019-08-07 16:15:27:795
5.4491,-8.3288,1.6774,-0.76,-0.1245,0.1631,0.0357,-0.0273,0.0248,3752,2019-08-07 16:15:27:799
5.4491,-8.3288,1.6774,-0.76,-0.1245,0.1631,0.0857,0.1484,0.0163,3758,2019-08-07 16:15:27:805
5.339,-8.3765,1.602,-0.76,-0.1245,0.1631,0.0857,0.1484,0.0163,3763,2019-08-07 16:15:27:810
5.339,-8.3765,1.602,-0.4204,-0.1309,0.1992,0.0793,0.2731,0.0227,3767,2019-08-07 16:15:27:814
4.8367,-8.219,1.6963,-0.4204,-0.1309,0.1992,0.0793,0.2731,0.0227,3773,2019-08-07 16:15:27:820
4.8367,-8.219,1.6963,-0.4204,-0.1309,0.1992,0.0133,0.239,0.012,3778,2019-08-07 16:15:27:825
4.8367,-8.219,1.6963,-0.4204,-0.1309,0.1992,0.0133,0.239,0.012,3783,2019-08-07 16:15:27:830
4.8367,-8.219,1.6963,-0.4204,-0.1309,0.1992,0.0133,0.239,0.012,3788,2019-08-07 16:15:27:835
4.2913,-8.1378,2.309,0.3534,-0.2976,-0.4365,-0.0112,0.1548,-0.0018,3792,2019-08-07 16:15:27:839
4.2913,-8.1378,2.309,0.3534,-0.2976,-0.4365,-0.0229,-0.0231,-0.0103,3798,2019-08-07 16:15:27:845
4.3869,-8.3192,2.1488,0.3534,-0.2976,-0.4365,-0.0229,-0.0231,-0.0103,3803,2019-08-07 16:15:27:850