ACCELEROMETER X (m/s²),ACCELEROMETER Y (m/s²),ACCELEROMETER Z (m/s²),LINEAR ACCELERATION X (m/s²),LINEAR ACCELERATION Y (m/s²),LINEAR ACCELERATION Z (m/s²),GYROSCOPE X (rad/s),GYROSCOPE Y (rad/s),GYROSCOPE Z (rad/s),Time since start in ms ,YYYY-MO-DD HH-MI-SS_SSS
6.0959,-7.874,1.2739,-0.4099,-0.0863,0.0197,-0.008,-0.0156,0.0183,3,2019-08-07 16:16:38:107
6.0959,-7.874,1.2739,-0.4099,-0.0863,0.0197,-0.008,-0.0156,0.0183,8,2019-08-07 16:16:38:112
6.072,-7.9074,1.0806,-0.468,-0.0395,0.2147,-0.0069,0.026,0.029,12,2019-08-07 16:16:38:116
6.072,-7.9074,1.0806,-0.468,-0.0395,0.2147,-0.0069,0.026,0.029,18,2019-08-07 16:16:38:122
5.895,-7.8596,1.2786,-0.468,-0.0395,0.2147,-0.0069,0.0473,0.0322,23,2019-08-07 16:16:38:127
5.895,-7.8596,1.2786,-0.468,-0.0395,0.2147,-0.0069,0.0473,0.0322,28,2019-08-07 16:16:38:132
5.895,-7.8596,1.2786,-0.2332,-0.0612,0.0535,-0.0059,0.0494,0.0386,33,2019-08-07 16:16:38:137
5.7514,-7.8787,1.2975,-0.2332,-0.0612,0.0535,-0.0059,0.0494,0.0386,38,2019-08-07 16:16:38:142
5.7514,-7.8787,1.2975,-0.2332,-0.0612,0.0535,-0.0059,0.0494,0.0386,42,2019-08-07 16:16:38:146
5.7179,-7.9121,1.3682,-0.2332,-0.0612,0.0535,-0.0016,0.043,0.0364,48,2019-08-07 16:16:38:152
5.7179,-7.9121,1.3682,-0.0724,-0.0699,-0.0173,-0.0016,0.043,0.0364,52,2019-08-07 16:16:38:156
5.7179,-7.9121,1.3682,-0.0724,-0.0699,-0.0173,0.0037,0.0185,0.0322,58,2019-08-07 16:16:38:162
5.6557,-7.831,1.4153,-0.0724,-0.0699,-0.0173,0.0037,0.0185,0.0322,62,2019-08-07 16:16:38:166
5.6557,-7.831,1.4153,-0.0724,-0.0699,-0.0173,0.0101,-0.0039,0.0343,68,2019-08-07 16:16:38:172
5.694,-7.8214,1.3823,-0.106,-0.1349,-0.0761,0.0101,-0.0039,0.0343,73,2019-08-07 16:16:38:177
5.694,-7.8214,1.3823,-0.106,-0.1349,-0.0761,0.0059,-0.0348,0.0322,78,2019-08-07 16:16:38:182
5.7705,-7.8501,1.3022,-0.106,-0.1349,-0.0761,0.0059,-0.0348,0.0322,83,2019-08-07 16:16:38:187
5.7705,-7.8501,1.3022,-0.106,-0.1349,-0.0761,-0.008,-0.0358,0.0268,88,2019-08-07 16:16:38:192
5.7705,-7.8501,1.3022,-0.2569,-0.147,0.0377,-0.008,-0.0358,0.0268,93,2019-08-07 16:16:38:197
5.804,-7.8167,1.288,-0.2569,-0.147,0.0377,-0.0133,-0.0337,0.0237,98,2019-08-07 16:16:38:202
5.804,-7.8167,1.288,-0.2569,-0.147,0.0377,-0.0133,-0.0337,0.0237,102,2019-08-07 16:16:38:206
5.804,-7.8167,1.288,-0.2569,-0.147,0.0377,-0.0197,-0.0241,0.0247,108,2019-08-07 16:16:38:212
5.8949,-7.8787,1.2928,-0.2872,-0.1205,-0.0298,-0.0197,-0.0241,0.0247,113,2019-08-07 16:16:38:217
5.8949,-7.8787,1.2928,-0.2872,-0.1205,-0.0298,-0.0186,-0.006,0.0247,117,2019-08-07 16:16:38:221
5.8581,-7.8311,1.2601,-0.2872,-0.1205,-0.0298,-0.0186,-0.006,0.0247,123,2019-08-07 16:16:38:227
5.8581,-7.8311,1.2601,-0.2872,-0.1205,-0.0298,-0.0176,0.01,0.0237,128,2019-08-07 16:16:38:232
5.8581,-7.8311,1.2601,-0.2719,-0.1273,0.0796,-0.0176,0.01,0.0237,132,2019-08-07 16:16:38:236
5.8103,-7.8025,1.2224,-0.2719,-0.1273,0.0796,-0.0133,0.0206,0.0173,138,2019-08-07 16:16:38:242
5.8103,-7.8025,1.2224,-0.2106,-0.1566,0.0462,-0.0133,0.0206,0.0173,143,2019-08-07 16:16:38:247
5.7672,-7.8884,1.2365,-0.2106,-0.1566,0.0462,-0.0091,0.0366,0.0141,149,2019-08-07 16:16:38:253
5.7672,-7.8884,1.2365,-0.2106,-0.1566,0.0462,-0.0091,0.0366,0.0141,152,2019-08-07 16:16:38:256
5.7672,-7.8884,1.2365,-0.2106,-0.1566,0.0462,-0.0091,0.0366,0.0141,158,2019-08-07 16:16:38:262
5.6859,-7.8932,1.3402,-0.1305,-0.0377,0.0536,-0.0027,0.0324,-0.0019,163,2019-08-07 16:16:38:267
5.6859,-7.8932,1.3402,-0.1305,-0.0377,0.0536,-0.0027,0.0324,-0.0019,167,2019-08-07 16:16:38:271
5.7003,-7.9457,1.3025,-0.1305,-0.0377,0.0536,0.0048,0.0089,-0.0072,173,2019-08-07 16:16:38:277
5.7003,-7.9457,1.3025,-0.1305,-0.0377,0.0536,0.0048,0.0089,-0.0072,178,2019-08-07 16:16:38:282
5.7003,-7.9457,1.3025,-0.0768,-0.0079,-0.0619,0.0059,0.0015,-0.0147,182,2019-08-07 16:16:38:286
5.7051,-7.9171,1.3544,-0.0768,-0.0079,-0.0619,0.0059,0.0015,-0.0147,188,2019-08-07 16:16:38:292
5.7051,-7.9171,1.3544,-0.0768,-0.0079,-0.0619,0.0059,0.0015,-0.0147,192,2019-08-07 16:16:38:296
5.7386,-7.8598,1.3449,-0.0702,0.003,-0.0661,0.0048,-0.0198,-0.019,199,2019-08-07 16:16:38:303
5.7386,-7.8598,1.3449,-0.0702,0.003,-0.0661,0.0048,-0.0198,-0.019,203,2019-08-07 16:16:38:307
5.7386,-7.8598,1.3449,-0.0702,0.003,-0.0661,0.0069,-0.0294,-0.0221,208,2019-08-07 16:16:38:312
5.7769,-7.8741,1.3874,-0.2661,-0.0653,0.0174,0.0069,-0.0294,-0.0221,213,2019-08-07 16:16:38:317
5.7769,-7.8741,1.3874,-0.2661,-0.0653,0.0174,0.0048,-0.0188,-0.0275,218,2019-08-07 16:16:38:322
5.8582,-7.9314,1.2648,-0.2661,-0.0653,0.0174,0.0048,-0.0188,-0.0275,223,2019-08-07 16:16:38:327
5.8582,-7.9314,1.2648,-0.2661,-0.0653,0.0174,0.0016,0.011,-0.0392,228,2019-08-07 16:16:38:332
5.8582,-7.9314,1.2648,-0.1446,-0.0606,0.0362,0.0016,0.011,-0.0392,233,2019-08-07 16:16:38:337
5.7577,-7.9075,1.2459,-0.1446,-0.0606,0.0362,0.0016,0.0313,-0.0403,238,2019-08-07 16:16:38:342
5.7577,-7.9075,1.2459,-0.1446,-0.0606,0.0362,0.0016,0.0313,-0.0403,244,2019-08-07 16:16:38:348
5.7577,-7.9075,1.2459,-0.1446,-0.0606,0.0362,0.009,0.0302,-0.0424,247,2019-08-07 16:16:38:351
5.6669,-8.0412,1.3119,-0.0378,0.0544,0.0546,0.009,0.0302,-0.0424,253,2019-08-07 16:16:38:357
5.6669,-8.0412,1.3119,-0.0378,0.0544,0.0546,0.009,0.0302,-0.0424,257,2019-08-07 16:16:38:361
5.6621,-7.9982,1.3119,-0.0378,0.0544,0.0546,0.0229,0.01,-0.0509,262,2019-08-07 16:16:38:366
5.6621,-7.9982,1.3119,-0.0378,0.0544,0.0546,0.0229,0.01,-0.0509,268,2019-08-07 16:16:38:372
5.6621,-7.9982,1.3119,-0.0378,0.0544,0.0546,0.0378,-0.0145,-0.0584,272,2019-08-07 16:16:38:376
5.643,-7.9362,1.3779,-0.0337,-0.0054,-0.0728,0.0378,-0.0145,-0.0584,278,2019-08-07 16:16:38:382
5.643,-7.9362,1.3779,-0.0337,-0.0054,-0.0728,0.0549,-0.0486,-0.0573,283,2019-08-07 16:16:38:387
5.8248,-7.8121,1.4109,-0.0337,-0.0054,-0.0728,0.0549,-0.0486,-0.0573,288,2019-08-07 16:16:38:392
5.8248,-7.8121,1.4109,-0.0337,-0.0054,-0.0728,0.0655,-0.0688,-0.0488,293,2019-08-07 16:16:38:397
5.8248,-7.8121,1.4109,-0.2804,-0.2353,0.0486,0.0655,-0.0688,-0.0488,298,2019-08-07 16:16:38:402
5.9874,-7.6879,1.2507,-0.2804,-0.2353,0.0486,0.0655,-0.0688,-0.0488,303,2019-08-07 16:16:38:407
5.9874,-7.6879,1.2507,-0.2804,-0.2353,0.0486,0.0474,-0.0603,-0.0456,308,2019-08-07 16:16:38:412
6.0401,-7.6975,1.2884,-0.2804,-0.2353,0.0486,0.0474,-0.0603,-0.0456,313,2019-08-07 16:16:38:417
6.0401,-7.6975,1.2884,-0.4267,-0.2078,-0.0071,0.0261,-0.0337,-0.0435,318,2019-08-07 16:16:38:422
6.0401,-7.6975,1.2884,-0.4267,-0.2078,-0.0071,0.0261,-0.0337,-0.0435,322,2019-08-07 16:16:38:426
5.9827,-7.7977,1.3355,-0.4267,-0.2078,-0.0071,-0.0027,0.0036,-0.0435,328,2019-08-07 16:16:38:432
5.9827,-7.7977,1.3355,-0.4267,-0.2078,-0.0071,-0.0027,0.0036,-0.0435,332,2019-08-07 16:16:38:436
5.9827,-7.7977,1.3355,-0.2214,-0.0675,-0.0677,-0.0176,0.0324,-0.052,338,2019-08-07 16:16:38:442
5.7578,-7.9457,1.4251,-0.2214,-0.0675,-0.0677,-0.0176,0.0324,-0.052,343,2019-08-07 16:16:38:447
5.7578,-7.9457,1.4251,-0.2214,-0.0675,-0.0677,-0.0208,0.0547,-0.0616,348,2019-08-07 16:16:38:452
5.6047,-8.0221,1.3308,-0.2214,-0.0675,-0.0677,-0.0208,0.0547,-0.0616,353,2019-08-07 16:16:38:457
5.6047,-8.0221,1.3308,0.0498,0.1249,-0.0319,-0.0304,0.0643,-0.069,358,2019-08-07 16:16:38:462
5.6047,-8.0221,1.3308,0.0498,0.1249,-0.0319,-0.0304,0.0643,-0.069,362,2019-08-07 16:16:38:466
5.4995,-8.0555,1.4392,0.0498,0.1249,-0.0319,-0.0368,0.06,-0.0903,368,2019-08-07 16:16:38:472
5.4995,-8.0555,1.4392,0.0498,0.1249,-0.0319,-0.0368,0.06,-0.0903,372,2019-08-07 16:16:38:476
5.4134,-8.0603,1.3308,0.2564,0.1375,-0.0537,-0.041,0.0377,-0.0967,378,2019-08-07 16:16:38:482
5.4134,-8.0603,1.3308,0.2564,0.1375,-0.0537,-0.041,0.0377,-0.0967,383,2019-08-07 16:16:38:487
5.4134,-8.0603,1.3308,0.2564,0.1375,-0.0537,-0.0474,0.0281,-0.1074,387,2019-08-07 16:16:38:491
5.423,-8.0603,1.3874,0.2564,0.1375,-0.0537,-0.0474,0.0281,-0.1074,393,2019-08-07 16:16:38:497
5.423,-8.0603,1.3874,0.256,0.1899,-0.0662,-0.0591,0.0164,-0.1052,398,2019-08-07 16:16:38:502
5.423,-8.0603,1.3874,0.256,0.1899,-0.0662,-0.0591,0.0164,-0.1052,403,2019-08-07 16:16:38:507
5.5569,-8.1176,1.246,0.256,0.1899,-0.0662,-0.0655,-7.0E-4,-0.101,408,2019-08-07 16:16:38:512
5.5569,-8.1176,1.246,0.256,0.1899,-0.0662,-0.0655,-7.0E-4,-0.101,413,2019-08-07 16:16:38:517
5.6766,-8.2035,1.2601,0.0363,0.3421,0.0559,-0.0655,-7.0E-4,-0.101,418,2019-08-07 16:16:38:522
5.6766,-8.2035,1.2601,0.0363,0.3421,0.0559,-0.0804,-0.0454,-0.0839,423,2019-08-07 16:16:38:527
5.6766,-8.2035,1.2601,0.0363,0.3421,0.0559,-0.0804,-0.0454,-0.0839,428,2019-08-07 16:16:38:532
5.9493,-8.3133,1.3497,0.0363,0.3421,0.0559,-0.0602,-0.104,-0.0552,432,2019-08-07 16:16:38:536
5.9493,-8.3133,1.3497,-0.3483,0.4386,-0.0304,-0.0602,-0.104,-0.0552,438,2019-08-07 16:16:38:542
6.2076,-8.2465,1.3355,-0.3483,0.4386,-0.0304,-0.0314,-0.1519,-0.0275,442,2019-08-07 16:16:38:546
6.2076,-8.2465,1.3355,-0.3483,0.4386,-0.0304,-0.0314,-0.1519,-0.0275,448,2019-08-07 16:16:38:552
6.2076,-8.2465,1.3355,-0.3483,0.4386,-0.0304,-0.0314,-0.1519,-0.0275,453,2019-08-07 16:16:38:557
6.6095,-8.0078,1.1564,-0.8992,0.1312,0.1038,0.0048,-0.1573,0.0087,458,2019-08-07 16:16:38:562
6.6095,-8.0078,1.1564,-0.8992,0.1312,0.1038,0.0261,-0.1029,0.0258,463,2019-08-07 16:16:38:567
6.6095,-8.0078,1.1564,-0.8992,0.1312,0.1038,0.0261,-0.1029,0.0258,467,2019-08-07 16:16:38:571
6.7722,-7.8455,1.18,-0.8992,0.1312,0.1038,0.0261,-0.1029,0.0258,473,2019-08-07 16:16:38:577
6.7722,-7.8455,1.18,-0.9449,-0.1595,-0.0209,0.0421,-0.0284,0.045,477,2019-08-07 16:16:38:581
6.5713,-7.6689,1.3497,-0.9449,-0.1595,-0.0209,0.0453,0.0569,0.0546,483,2019-08-07 16:16:38:587
6.5713,-7.6689,1.3497,-0.9449,-0.1595,-0.0209,0.0453,0.0569,0.0546,488,2019-08-07 16:16:38:592
6.5713,-7.6689,1.3497,-0.9449,-0.1595,-0.0209,0.0453,0.0569,0.0546,493,2019-08-07 16:16:38:597
6.2794,-7.6689,1.5712,-0.5402,-0.2239,-0.2739,0.0378,0.1272,0.0609,497,2019-08-07 16:16:38:601
6.2794,-7.6689,1.5712,-0.5402,-0.2239,-0.2739,0.0378,0.1272,0.0609,503,2019-08-07 16:16:38:607
5.9637,-7.5972,1.6655,-0.5402,-0.2239,-0.2739,0.0176,0.1698,0.0418,508,2019-08-07 16:16:38:612
5.9637,-7.5972,1.6655,-0.5402,-0.2239,-0.2739,0.0176,0.1698,0.0418,513,2019-08-07 16:16:38:617
5.9637,-7.5972,1.6655,0.0154,-0.2454,-0.4657,0.009,0.1815,0.0173,518,2019-08-07 16:16:38:622
5.6575,-7.7023,1.7928,0.0154,-0.2454,-0.4657,0.009,0.1815,0.0173,523,2019-08-07 16:16:38:627
5.6575,-7.7023,1.7928,0.0154,-0.2454,-0.4657,0.0016,0.1666,-0.0062,528,2019-08-07 16:16:38:632
5.5427,-7.6927,1.5571,0.0154,-0.2454,-0.4657,0.0016,0.1666,-0.0062,533,2019-08-07 16:16:38:637
5.5427,-7.6927,1.5571,0.1939,-0.1678,-0.1944,-0.0186,0.1431,-0.0275,538,2019-08-07 16:16:38:642
5.5427,-7.6927,1.5571,0.1939,-0.1678,-0.1944,-0.0186,0.1431,-0.0275,543,2019-08-07 16:16:38:647
5.5427,-7.7596,1.5005,0.1939,-0.1678,-0.1944,-0.0293,0.1176,-0.0445,548,2019-08-07 16:16:38:652
5.5427,-7.7596,1.5005,0.1939,-0.1678,-0.1944,-0.0293,0.1176,-0.0445,553,2019-08-07 16:16:38:657
5.5427,-7.7596,1.5005,0.1939,-0.1678,-0.1944,-0.0293,0.1176,-0.0445,557,2019-08-07 16:16:38:661
5.5714,-7.7548,1.4628,0.1251,-0.1208,-0.1359,-0.0293,0.0941,-0.0562,563,2019-08-07 16:16:38:667
5.5714,-7.7548,1.4628,0.1251,-0.1208,-0.1359,-0.0336,0.0824,-0.0594,568,2019-08-07 16:16:38:672
5.6145,-7.855,1.2601,0.1251,-0.1208,-0.1359,-0.0336,0.0824,-0.0594,572,2019-08-07 16:16:38:676
5.6145,-7.855,1.2601,-0.0117,0.0662,0.1091,-0.0336,0.0824,-0.0594,578,2019-08-07 16:16:38:682
5.6145,-7.855,1.2601,-0.0117,0.0662,0.1091,-0.0474,0.0739,-0.0541,583,2019-08-07 16:16:38:687
5.8011,-7.9792,1.1517,-0.0117,0.0662,0.1091,-0.0474,0.0739,-0.0541,588,2019-08-07 16:16:38:692
5.8011,-7.9792,1.1517,-0.0117,0.0662,0.1091,-0.0527,0.0718,-0.052,592,2019-08-07 16:16:38:696
5.8107,-8.0364,1.1894,-0.1536,0.1758,0.1787,-0.0527,0.0718,-0.052,598,2019-08-07 16:16:38:702
5.8107,-8.0364,1.1894,-0.1536,0.1758,0.1787,-0.0463,0.0558,-0.0317,603,2019-08-07 16:16:38:707
5.8107,-8.0364,1.1894,-0.1536,0.1758,0.1787,-0.0463,0.0558,-0.0317,607,2019-08-07 16:16:38:711
6.0451,-7.9123,1.18,-0.1536,0.1758,0.1787,-0.0378,0.0355,-0.004,614,2019-08-07 16:16:38:718
6.0451,-7.9123,1.18,-0.4612,-0.037,0.1477,-0.0378,0.0355,-0.004,618,2019-08-07 16:16:38:722
6.0451,-7.9123,1.18,-0.4612,-0.037,0.1477,-0.0378,0.0355,-0.004,623,2019-08-07 16:16:38:727
6.2508,-7.7834,1.114,-0.4612,-0.037,0.1477,-0.025,0.0292,0.029,628,2019-08-07 16:16:38:732
6.2508,-7.7834,1.114,-0.4612,-0.037,0.1477,-0.025,0.0292,0.029,633,2019-08-07 16:16:38:737
6.3274,-7.5973,1.1659,-0.4612,-0.037,0.1477,-0.0272,0.0451,0.0556,637,2019-08-07 16:16:38:741
6.3274,-7.5973,1.1659,-0.5929,-0.3112,0.1697,-0.0272,0.0451,0.0556,643,2019-08-07 16:16:38:747
6.3274,-7.5973,1.1659,-0.5929,-0.3112,0.1697,-0.0336,0.0643,0.0886,647,2019-08-07 16:16:38:751
6.2604,-7.5209,1.1329,-0.5929,-0.3112,0.1697,-0.0336,0.0643,0.0886,653,2019-08-07 16:16:38:757
6.2604,-7.5209,1.1329,-0.5929,-0.3112,0.1697,-0.0389,0.0782,0.1099,658,2019-08-07 16:16:38:762
6.1456,-7.6211,1.2932,-0.4618,-0.258,0.0152,-0.0389,0.0782,0.1099,663,2019-08-07 16:16:38:767
6.1456,-7.6211,1.2932,-0.4618,-0.258,0.0152,-0.0378,0.0845,0.1259,668,2019-08-07 16:16:38:772
6.1456,-7.6211,1.2932,-0.4618,-0.258,0.0152,-0.0378,0.0845,0.1259,673,2019-08-07 16:16:38:777
5.9112,-7.75,1.3686,-0.4618,-0.258,0.0152,-0.0282,0.0845,0.127,678,2019-08-07 16:16:38:782
5.9112,-7.75,1.3686,-0.1327,-0.0571,-0.0752,-0.0282,0.0845,0.127,682,2019-08-07 16:16:38:786
5.9112,-7.75,1.3686,-0.1327,-0.0571,-0.0752,-0.0282,0.0845,0.127,688,2019-08-07 16:16:38:792
5.6672,-7.8407,1.477,-0.1327,-0.0571,-0.0752,-0.0037,0.0643,0.1217,692,2019-08-07 16:16:38:796
5.6672,-7.8407,1.477,-0.1327,-0.0571,-0.0752,-0.0037,0.0643,0.1217,699,2019-08-07 16:16:38:803
5.6002,-7.8598,1.576,0.0377,-0.0468,-0.2084,0.0208,0.0505,0.0993,702,2019-08-07 16:16:38:806
5.6002,-7.8598,1.576,0.0377,-0.0468,-0.2084,0.0208,0.0505,0.0993,708,2019-08-07 16:16:38:812
5.5572,-7.7453,1.5289,0.0377,-0.0468,-0.2084,0.0399,0.0302,0.0652,713,2019-08-07 16:16:38:817
5.5572,-7.7453,1.5289,0.0377,-0.0468,-0.2084,0.0399,0.0302,0.0652,717,2019-08-07 16:16:38:821
5.5572,-7.7453,1.5289,-0.0126,-0.2063,-0.1452,0.0442,0.0185,0.0332,723,2019-08-07 16:16:38:827
5.6385,-7.5973,1.5289,-0.0126,-0.2063,-0.1452,0.0442,0.0185,0.0332,728,2019-08-07 16:16:38:832
5.6385,-7.5973,1.5289,-0.0126,-0.2063,-0.1452,0.0325,0.0174,0.0141,733,2019-08-07 16:16:38:837
5.6864,-7.5257,1.4487,-0.0126,-0.2063,-0.1452,0.0325,0.0174,0.0141,738,2019-08-07 16:16:38:842
5.6864,-7.5257,1.4487,-0.0575,-0.4018,-0.1413,0.0122,0.026,-0.0019,743,2019-08-07 16:16:38:847
5.6864,-7.5257,1.4487,-0.0575,-0.4018,-0.1413,0.0122,0.026,-0.0019,749,2019-08-07 16:16:38:853
5.6912,-7.5734,1.477,-0.0575,-0.4018,-0.1413,-0.0165,0.0068,-0.0126,752,2019-08-07 16:16:38:856
5.6912,-7.5734,1.477,-0.0575,-0.4018,-0.1413,-0.0165,0.0068,-0.0126,758,2019-08-07 16:16:38:862
5.7821,-7.6975,1.4629,-0.1459,-0.2804,-0.0785,-0.0325,-0.0167,-0.0072,763,2019-08-07 16:16:38:867
5.7821,-7.6975,1.4629,-0.1459,-0.2804,-0.0785,-0.0325,-0.0167,-0.0072,768,2019-08-07 16:16:38:872
5.7821,-7.6975,1.4629,-0.1459,-0.2804,-0.0785,-0.0325,-0.0167,-0.0072,773,2019-08-07 16:16:38:877
5.9256,-7.8073,1.378,-0.1459,-0.2804,-0.0785,-0.04,-0.0337,0.0013,778,2019-08-07 16:16:38:882
5.9256,-7.8073,1.378,-0.3014,-0.0845,0.0731,-0.04,-0.0337,0.0013,783,2019-08-07 16:16:38:887
5.9783,-7.9123,1.1423,-0.3014,-0.0845,0.0731,-0.0431,-0.0294,0.0162,788,2019-08-07 16:16:38:892
5.9783,-7.9123,1.1423,-0.3014,-0.0845,0.0731,-0.0431,-0.0294,0.0162,793,2019-08-07 16:16:38:897
5.9783,-7.9123,1.1423,-0.3014,-0.0845,0.0731,-0.0389,-0.0145,0.0301,798,2019-08-07 16:16:38:902
5.9161,-8.0078,1.2083,-0.2694,0.0989,0.1329,-0.0389,-0.0145,0.0301,803,2019-08-07 16:16:38:907
5.9161,-8.0078,1.2083,-0.2694,0.0989,0.1329,-0.0389,-0.0145,0.0301,808,2019-08-07 16:16:38:912
5.897,-7.9887,1.2319,-0.2527,0.0773,0.1052,-0.0282,-0.0177,0.0428,813,2019-08-07 16:16:38:917
5.897,-7.9887,1.2319,-0.2527,0.0773,0.1052,-0.0282,-0.0177,0.0428,818,2019-08-07 16:16:38:922
5.897,-7.9887,1.2319,-0.2527,0.0773,0.1052,-0.0059,-0.0188,0.0535,823,2019-08-07 16:16:38:927
5.8922,-7.8598,1.1895,-0.2527,0.0773,0.1052,-0.0059,-0.0188,0.0535,827,2019-08-07 16:16:38:931
5.8922,-7.8598,1.1895,-0.2879,-0.0522,0.1335,0.008,-0.0167,0.0577,833,2019-08-07 16:16:38:937
5.8922,-7.8598,1.1895,-0.2879,-0.0522,0.1335,0.008,-0.0167,0.0577,837,2019-08-07 16:16:38:941
5.8731,-7.7453,1.2649,-0.2879,-0.0522,0.1335,0.0176,-0.0113,0.0631,843,2019-08-07 16:16:38:947
5.8731,-7.7453,1.2649,-0.2879,-0.0522,0.1335,0.0176,-0.0113,0.0631,848,2019-08-07 16:16:38:952
5.8492,-7.7023,1.2366,-0.2192,-0.2201,0.096,0.0048,-0.0092,0.0631,852,2019-08-07 16:16:38:956
5.8492,-7.7023,1.2366,-0.2192,-0.2201,0.096,0.0048,-0.0092,0.0631,858,2019-08-07 16:16:38:962
5.8492,-7.7023,1.2366,-0.2192,-0.2201,0.096,-0.0101,-0.0028,0.0652,864,2019-08-07 16:16:38:968
5.8205,-7.6832,1.3733,-0.2192,-0.2201,0.096,-0.0101,-0.0028,0.0652,868,2019-08-07 16:16:38:972
5.8205,-7.6832,1.3733,-0.18,-0.174,-0.0663,-0.0101,-0.0028,0.0652,872,2019-08-07 16:16:38:976
5.7726,-7.75,1.3545,-0.18,-0.174,-0.0663,-0.0293,-0.0252,0.062,878,2019-08-07 16:16:38:982
5.7726,-7.75,1.3545,-0.18,-0.174,-0.0663,-0.0293,-0.0252,0.062,883,2019-08-07 16:16:38:987
5.7726,-7.75,1.3545,-0.18,-0.174,-0.0663,-0.0229,-0.0422,0.0556,888,2019-08-07 16:16:38:992
5.8061,-7.9362,1.4252,-0.2017,-0.0086,-0.0788,-0.0229,-0.0422,0.0556,892,2019-08-07 16:16:38:996
5.8061,-7.9362,1.4252,-0.2017,-0.0086,-0.0788,-0.0048,-0.039,0.046,899,2019-08-07 16:16:39:003
5.7822,-7.9696,1.2696,-0.2017,-0.0086,-0.0788,-0.0048,-0.039,0.046,903,2019-08-07 16:16:39:007
5.7822,-7.9696,1.2696,-0.2017,-0.0086,-0.0788,-0.0048,-0.039,0.046,907,2019-08-07 16:16:39:011
5.7822,-7.9696,1.2696,-0.1586,-0.0078,0.0305,0.0186,-0.0294,0.0343,913,2019-08-07 16:16:39:017
5.7487,-7.8933,1.3356,-0.1586,-0.0078,0.0305,0.0186,-0.0294,0.0343,917,2019-08-07 16:16:39:021
5.7487,-7.8933,1.3356,-0.1586,-0.0078,0.0305,0.0367,-0.0145,0.0173,923,2019-08-07 16:16:39:027
5.7487,-7.8933,1.3356,-0.1586,-0.0078,0.0305,0.0367,-0.0145,0.0173,928,2019-08-07 16:16:39:032
5.7392,-7.898,1.3733,-0.1312,-0.0749,-0.0832,0.0453,-0.0167,0.0013,933,2019-08-07 16:16:39:037
5.7392,-7.898,1.3733,-0.1312,-0.0749,-0.0832,0.0453,-0.0167,0.0013,938,2019-08-07 16:16:39:042
5.7344,-7.836,1.4252,-0.1312,-0.0749,-0.0832,0.0453,-0.0294,-0.0168,943,2019-08-07 16:16:39:047
5.7344,-7.836,1.4252,-0.1312,-0.0749,-0.0832,0.0453,-0.0294,-0.0168,948,2019-08-07 16:16:39:052
5.7344,-7.836,1.4252,-0.1644,-0.2425,-0.1498,0.0367,-0.0454,-0.0296,953,2019-08-07 16:16:39:057
5.8301,-7.6784,1.4111,-0.1644,-0.2425,-0.1498,0.0367,-0.0454,-0.0296,959,2019-08-07 16:16:39:063
5.8301,-7.6784,1.4111,-0.1644,-0.2425,-0.1498,0.0165,-0.0571,-0.0296,963,2019-08-07 16:16:39:067
5.8301,-7.6784,1.4111,-0.1644,-0.2425,-0.1498,0.0165,-0.0571,-0.0296,968,2019-08-07 16:16:39:072
5.8492,-7.7262,1.3922,-0.2762,-0.161,-0.0111,-0.0016,-0.071,-0.0179,973,2019-08-07 16:16:39:077
5.8492,-7.7262,1.3922,-0.2762,-0.161,-0.0111,-0.0016,-0.071,-0.0179,978,2019-08-07 16:16:39:082
5.9641,-7.7405,1.3545,-0.2762,-0.161,-0.0111,-0.0165,-0.0731,-0.0211,983,2019-08-07 16:16:39:087
5.9641,-7.7405,1.3545,-0.2762,-0.161,-0.0111,-0.0165,-0.0731,-0.0211,988,2019-08-07 16:16:39:092
5.9641,-7.7405,1.3545,-0.2762,-0.161,-0.0111,-0.0165,-0.0731,-0.0211,993,2019-08-07 16:16:39:097
5.945,-7.7691,1.2649,-0.3169,-0.1577,0.0488,-0.0176,-0.0934,-0.0051,998,2019-08-07 16:16:39:102
5.945,-7.7691,1.2649,-0.3169,-0.1577,0.0488,-0.0176,-0.0934,-0.0051,1003,2019-08-07 16:16:39:107
6.1076,-7.9506,1.2367,-0.3169,-0.1577,0.0488,-0.0101,-0.0859,0.0173,1007,2019-08-07 16:16:39:111
6.1076,-7.9506,1.2367,-0.3169,-0.1577,0.0488,-0.0101,-0.0859,0.0173,1013,2019-08-07 16:16:39:117
6.1076,-7.9506,1.2367,-0.4674,0.0426,0.0269,0.0059,-0.0752,0.0226,1017,2019-08-07 16:16:39:121
6.0789,-7.8885,1.2319,-0.4674,0.0426,0.0269,0.0059,-0.0752,0.0226,1023,2019-08-07 16:16:39:127
6.0789,-7.8885,1.2319,-0.4336,-0.0295,0.1926,0.0059,-0.0752,0.0226,1027,2019-08-07 16:16:39:131
6.1029,-7.8933,1.0151,-0.4336,-0.0295,0.1926,0.0154,-0.0475,0.0269,1033,2019-08-07 16:16:39:137
6.1029,-7.8933,1.0151,-0.4336,-0.0295,0.1926,0.0154,-0.0475,0.0269,1038,2019-08-07 16:16:39:142
6.1029,-7.8933,1.0151,-0.4336,-0.0295,0.1926,0.0272,0.0036,0.0258,1043,2019-08-07 16:16:39:147
6.0407,-7.8837,1.2084,-0.4111,-0.0447,0.0891,0.0272,0.0036,0.0258,1048,2019-08-07 16:16:39:152
6.0407,-7.8837,1.2084,-0.4111,-0.0447,0.0891,0.0378,0.0441,0.0247,1053,2019-08-07 16:16:39:157
5.8302,-7.7357,1.2885,-0.4111,-0.0447,0.0891,0.0378,0.0441,0.0247,1058,2019-08-07 16:16:39:162
5.8302,-7.7357,1.2885,-0.4111,-0.0447,0.0891,0.0346,0.0675,0.0247,1064,2019-08-07 16:16:39:168
5.8302,-7.7357,1.2885,-0.1321,-0.2027,-0.0029,0.0346,0.0675,0.0247,1067,2019-08-07 16:16:39:171
5.7106,-7.7262,1.3027,-0.1321,-0.2027,-0.0029,0.0112,0.0398,0.0173,1073,2019-08-07 16:16:39:177
5.7106,-7.7262,1.3027,-0.1321,-0.2027,-0.0029,0.0112,0.0398,0.0173,1078,2019-08-07 16:16:39:182
5.7058,-7.8026,1.4299,-0.1321,-0.2027,-0.0029,0.0027,4.0E-4,0.0119,1083,2019-08-07 16:16:39:187
5.7058,-7.8026,1.4299,-0.106,-0.1129,-0.0349,0.0027,4.0E-4,0.0119,1088,2019-08-07 16:16:39:192
5.7058,-7.8026,1.4299,-0.106,-0.1129,-0.0349,0.0027,4.0E-4,0.0119,1092,2019-08-07 16:16:39:196
5.8015,-7.9076,1.3592,-0.106,-0.1129,-0.0349,0.0027,-0.039,-8.0E-4,1098,2019-08-07 16:16:39:202
5.8015,-7.9076,1.3592,-0.106,-0.1129,-0.0349,0.0027,-0.039,-8.0E-4,1103,2019-08-07 16:16:39:207
5.8015,-7.9076,1.3592,-0.1951,-0.0596,-0.1656,0.0208,-0.0784,-0.0019,1108,2019-08-07 16:16:39:212
5.8589,-7.8646,1.3922,-0.1951,-0.0596,-0.1656,0.0208,-0.0784,-0.0019,1113,2019-08-07 16:16:39:217
5.8589,-7.8646,1.3922,-0.1951,-0.0596,-0.1656,0.0389,-0.0891,0.0013,1119,2019-08-07 16:16:39:223
5.9877,-7.9028,1.2837,-0.1951,-0.0596,-0.1656,0.0389,-0.0891,0.0013,1122,2019-08-07 16:16:39:226
5.9877,-7.9028,1.2837,-0.363,-0.0622,0.0429,0.0517,-0.0763,-0.004,1128,2019-08-07 16:16:39:232
5.9686,-7.8359,1.246,-0.363,-0.0622,0.0429,0.0517,-0.0763,-0.004,1133,2019-08-07 16:16:39:237
5.9686,-7.8359,1.246,-0.363,-0.0622,0.0429,0.0581,-0.0284,-0.0094,1138,2019-08-07 16:16:39:242
5.9686,-7.8359,1.246,-0.363,-0.0622,0.0429,0.0581,-0.0284,-0.0094,1143,2019-08-07 16:16:39:247
5.8346,-7.8503,1.2979,-0.2011,-0.073,0.0146,0.0538,0.0185,-0.0136,1149,2019-08-07 16:16:39:253
5.8346,-7.8503,1.2979,-0.2011,-0.073,0.0146,0.0538,0.0185,-0.0136,1153,2019-08-07 16:16:39:257
5.8346,-7.8503,1.2979,-0.2011,-0.073,0.0146,0.0538,0.0185,-0.0136,1158,2019-08-07 16:16:39:262
5.6767,-7.9267,1.3874,-0.2011,-0.073,0.0146,0.0389,0.0537,-0.0211,1163,2019-08-07 16:16:39:267
5.6767,-7.9267,1.3874,0.0688,0.0737,-0.0487,0.0389,0.0537,-0.0211,1168,2019-08-07 16:16:39:272
5.6767,-7.9267,1.3874,0.0688,0.0737,-0.0487,0.0229,0.0249,-0.0189,1172,2019-08-07 16:16:39:276
5.5284,-8.0603,1.4581,0.0688,0.0737,-0.0487,0.0229,0.0249,-0.0189,1178,2019-08-07 16:16:39:282
5.5284,-8.0603,1.4581,0.0688,0.0737,-0.0487,0.0133,-0.0145,-0.0232,1184,2019-08-07 16:16:39:288
5.5284,-8.0603,1.4581,0.1038,0.2571,-0.2037,0.0133,-0.0145,-0.0232,1188,2019-08-07 16:16:39:292
5.6098,-8.1176,1.4864,0.1038,0.2571,-0.2037,0.0112,-0.0699,-0.0189,1193,2019-08-07 16:16:39:297
5.6098,-8.1176,1.4864,0.1038,0.2571,-0.2037,0.0112,-0.0699,-0.0189,1199,2019-08-07 16:16:39:303
5.6815,-8.1176,1.4204,0.1038,0.2571,-0.2037,0.0176,-0.1029,-0.0126,1203,2019-08-07 16:16:39:307
5.6815,-8.1176,1.4204,0.1038,0.2571,-0.2037,0.0176,-0.1029,-0.0126,1208,2019-08-07 16:16:39:312
5.6815,-8.1176,1.4204,-0.1744,0.2113,-0.1062,0.025,-0.1093,0.0087,1213,2019-08-07 16:16:39:317
5.9543,-8.1128,1.2177,-0.1744,0.2113,-0.1062,0.025,-0.1093,0.0087,1217,2019-08-07 16:16:39:321
5.9543,-8.1128,1.2177,-0.1744,0.2113,-0.1062,0.025,-0.1093,0.0087,1223,2019-08-07 16:16:39:327
5.9734,-8.1653,1.2036,-0.3692,0.2301,0.1462,0.041,-0.0518,0.0215,1228,2019-08-07 16:16:39:332
5.9734,-8.1653,1.2036,-0.3692,0.2301,0.1462,0.041,-0.0518,0.0215,1233,2019-08-07 16:16:39:337
5.9734,-8.1653,1.2036,-0.3692,0.2301,0.1462,0.0612,0.0047,0.0354,1238,2019-08-07 16:16:39:342
5.8155,-8.089,1.18,-0.3692,0.2301,0.1462,0.0612,0.0047,0.0354,1242,2019-08-07 16:16:39:346
5.8155,-8.089,1.18,-0.025,0.204,-0.0108,0.0708,0.0302,0.0514,1249,2019-08-07 16:16:39:353
5.6337,-8.0842,1.3497,-0.025,0.204,-0.0108,0.0708,0.0302,0.0514,1253,2019-08-07 16:16:39:357
5.6337,-8.0842,1.3497,-0.025,0.204,-0.0108,0.0708,0.0302,0.0514,1258,2019-08-07 16:16:39:362
5.6337,-8.0842,1.3497,-0.025,0.204,-0.0108,0.0804,0.0324,0.0609,1262,2019-08-07 16:16:39:366
5.5285,-8.0365,1.4016,0.1311,0.1128,-0.1171,0.0804,0.0324,0.0609,1268,2019-08-07 16:16:39:372
5.5285,-8.0365,1.4016,0.1311,0.1128,-0.1171,0.0794,0.0153,0.0631,1273,2019-08-07 16:16:39:377
5.4759,-7.9648,1.3922,0.1311,0.1128,-0.1171,0.0794,0.0153,0.0631,1278,2019-08-07 16:16:39:382
5.4759,-7.9648,1.3922,0.1311,0.1128,-0.1171,0.074,-0.0039,0.0609,1284,2019-08-07 16:16:39:388
5.4759,-7.9648,1.3922,0.2013,0.0116,0.0651,0.074,-0.0039,0.0609,1288,2019-08-07 16:16:39:392
5.3993,-7.9601,1.3215,0.2013,0.0116,0.0651,0.0655,-0.0198,0.0556,1293,2019-08-07 16:16:39:397
5.3993,-7.9601,1.3215,0.2013,0.0116,0.0651,0.0655,-0.0198,0.0556,1299,2019-08-07 16:16:39:403
5.3993,-7.9601,1.3215,0.2013,0.0116,0.0651,0.0602,-0.0603,0.0492,1303,2019-08-07 16:16:39:407
5.5572,-7.9696,1.3262,0.2013,0.0116,0.0651,0.0602,-0.0603,0.0492,1308,2019-08-07 16:16:39:412
5.5572,-7.9696,1.3262,0.0163,0.0734,-0.0012,0.0602,-0.0603,0.0492,1313,2019-08-07 16:16:39:417
5.7151,-7.9601,1.3309,0.0163,0.0734,-0.0012,0.0698,-0.12,0.0492,1319,2019-08-07 16:16:39:423
5.7151,-7.9601,1.3309,0.0163,0.0734,-0.0012,0.0698,-0.12,0.0492,1323,2019-08-07 16:16:39:427
5.7151,-7.9601,1.3309,0.0163,0.0734,-0.0012,0.09,-0.1977,0.0684,1329,2019-08-07 16:16:39:433
6.0117,-8.0651,1.246,-0.4095,0.1265,0.1071,0.09,-0.1977,0.0684,1333,2019-08-07 16:16:39:437
6.0117,-8.0651,1.246,-0.4095,0.1265,0.1071,0.1294,-0.2681,0.0897,1338,2019-08-07 16:16:39:442
6.3657,-8.151,1.1612,-0.4095,0.1265,0.1071,0.1294,-0.2681,0.0897,1343,2019-08-07 16:16:39:447
6.3657,-8.151,1.1612,-0.4095,0.1265,0.1071,0.1752,-0.2521,0.1025,1348,2019-08-07 16:16:39:452
6.3657,-8.151,1.1612,-0.7541,0.1646,0.1594,0.1752,-0.2521,0.1025,1353,2019-08-07 16:16:39:457
6.3657,-8.151,1.1612,-0.7541,0.1646,0.1594,0.1752,-0.2521,0.1025,1358,2019-08-07 16:16:39:462
6.3227,-8.151,1.0669,-0.7206,0.1665,0.2144,0.2125,-0.1796,0.1206,1363,2019-08-07 16:16:39:467
6.3227,-8.151,1.0669,-0.7206,0.1665,0.2144,0.2125,-0.1796,0.1206,1368,2019-08-07 16:16:39:472
6.1887,-8.1701,1.1329,-0.7206,0.1665,0.2144,0.22,-0.0571,0.1185,1373,2019-08-07 16:16:39:477
6.1887,-8.1701,1.1329,-0.7206,0.1665,0.2144,0.22,-0.0571,0.1185,1378,2019-08-07 16:16:39:482
6.1887,-8.1701,1.1329,-0.4389,0.2131,0.1278,0.2189,0.075,0.1025,1383,2019-08-07 16:16:39:487
5.8156,-8.2226,1.3167,-0.4389,0.2131,0.1278,0.2189,0.075,0.1025,1388,2019-08-07 16:16:39:492
5.8156,-8.2226,1.3167,-0.4389,0.2131,0.1278,0.2242,0.2092,0.0759,1393,2019-08-07 16:16:39:497
5.3276,-8.1892,1.5194,-0.4389,0.2131,0.1278,0.2242,0.2092,0.0759,1398,2019-08-07 16:16:39:502
5.3276,-8.1892,1.5194,0.4652,0.2951,-0.0629,0.2146,0.2486,0.0439,1403,2019-08-07 16:16:39:507
5.3276,-8.1892,1.5194,0.4652,0.2951,-0.0629,0.2146,0.2486,0.0439,1408,2019-08-07 16:16:39:512
4.854,-8.3181,1.5996,0.4652,0.2951,-0.0629,0.2146,0.2486,0.0439,1413,2019-08-07 16:16:39:517
4.854,-8.3181,1.5996,0.4652,0.2951,-0.0629,0.2019,0.2486,2.0E-4,1418,2019-08-07 16:16:39:522
4.2751,-8.4852,1.8353,1.1618,0.4864,-0.3059,0.2019,0.2486,2.0E-4,1423,2019-08-07 16:16:39:527
4.2751,-8.4852,1.8353,1.1618,0.4864,-0.3059,0.1933,0.222,-0.0605,1428,2019-08-07 16:16:39:532
4.2751,-8.4852,1.8353,1.1618,0.4864,-0.3059,0.1933,0.222,-0.0605,1433,2019-08-07 16:16:39:537
3.8301,-8.8003,1.9861,1.1618,0.4864,-0.3059,0.1784,0.173,-0.1148,1438,2019-08-07 16:16:39:542
3.8301,-8.8003,1.9861,1.8704,1.0623,-0.4378,0.1784,0.173,-0.1148,1443,2019-08-07 16:16:39:547
3.4857,-9.3063,1.8777,1.8704,1.0623,-0.4378,0.1465,0.1186,-0.1638,1449,2019-08-07 16:16:39:553
3.4857,-9.3063,1.8777,1.8704,1.0623,-0.4378,0.1465,0.1186,-0.1638,1453,2019-08-07 16:16:39:557
3.4857,-9.3063,1.8777,1.8704,1.0623,-0.4378,0.1465,0.1186,-0.1638,1458,2019-08-07 16:16:39:562
2.9642,-10.8148,1.5854,2.5822,2.8789,-0.0063,0.0826,-0.0081,-0.1968,1463,2019-08-07 16:16:39:567
2.9642,-10.8148,1.5854,2.5822,2.8789,-0.0063,0.0826,-0.0081,-0.1968,1469,2019-08-07 16:16:39:573
2.9642,-10.8148,1.5854,2.5822,2.8789,-0.0063,0.041,-0.0614,-0.1873,1473,2019-08-07 16:16:39:577
2.5097,-13.302,1.5902,2.5822,2.8789,-0.0063,0.041,-0.0614,-0.1873,1478,2019-08-07 16:16:39:582
2.5097,-13.302,1.5902,3.2074,6.3073,-0.0113,0.0815,-0.1115,-0.1265,1483,2019-08-07 16:16:39:587
2.1605,-15.6746,1.8353,3.2074,6.3073,-0.0113,0.0815,-0.1115,-0.1265,1488,2019-08-07 16:16:39:592
2.1605,-15.6746,1.8353,3.4893,8.147,-0.4182,0.2455,-0.0784,0.0066,1493,2019-08-07 16:16:39:597
2.1605,-15.6746,1.8353,3.4893,8.147,-0.4182,0.2455,-0.0784,0.0066,1498,2019-08-07 16:16:39:602
2.1318,-17.6509,2.679,3.4893,8.147,-0.4182,0.6887,0.1698,0.2633,1503,2019-08-07 16:16:39:607
2.1318,-17.6509,2.679,3.4893,8.147,-0.4182,0.6887,0.1698,0.2633,1508,2019-08-07 16:16:39:612
2.3901,-18.725,2.2265,3.0982,10.7697,-0.5449,1.0477,0.5629,0.4082,1513,2019-08-07 16:16:39:617
2.3901,-18.725,2.2265,3.0982,10.7697,-0.5449,1.0477,0.5629,0.4082,1519,2019-08-07 16:16:39:623
2.3901,-18.725,2.2265,3.0982,10.7697,-0.5449,1.0477,0.5629,0.4082,1522,2019-08-07 16:16:39:626
1.639,-19.5891,0.3646,3.0982,10.7697,-0.5449,1.5824,1.9019,0.5648,1528,2019-08-07 16:16:39:632
1.639,-19.5891,0.3646,4.6885,12.5014,2.8423,1.5824,1.9019,0.5648,1533,2019-08-07 16:16:39:637
1.639,-19.5891,0.3646,4.6885,12.5014,2.8423,1.803,3.5914,0.6341,1537,2019-08-07 16:16:39:641
-1.2315,-23.0692,-3.1236,4.6885,12.5014,2.8423,1.803,3.5914,0.6341,1543,2019-08-07 16:16:39:647
-1.2315,-23.0692,-3.1236,4.6885,12.5014,2.8423,1.624,5.6708,0.6522,1549,2019-08-07 16:16:39:653
-6.298,-28.8265,-6.5412,11.2319,20.8298,9.3603,1.624,5.6708,0.6522,1553,2019-08-07 16:16:39:657
-6.298,-28.8265,-6.5412,11.2319,20.8298,9.3603,1.0328,7.3283,0.698,1558,2019-08-07 16:16:39:662
-6.298,-28.8265,-6.5412,15.7811,23.3136,9.7989,1.0328,7.3283,0.698,1563,2019-08-07 16:16:39:667
-11.9626,-31.7146,-7.9647,15.7811,23.3136,9.7989,0.6493,7.9483,0.7917,1568,2019-08-07 16:16:39:672
-11.9626,-31.7146,-7.9647,15.7811,23.3136,9.7989,0.6493,7.9483,0.7917,1573,2019-08-07 16:16:39:677
-11.9626,-31.7146,-7.9647,15.7811,23.3136,9.7989,0.7143,8.6407,0.6703,1578,2019-08-07 16:16:39:682
-10.7569,-30.9938,-0.6253,13.3035,22.2712,3.3702,0.7143,8.6407,0.6703,1583,2019-08-07 16:16:39:687
-10.7569,-30.9938,-0.6253,13.3035,22.2712,3.3702,2.0224,7.9334,-0.2842,1588,2019-08-07 16:16:39:692
-10.7569,-30.9938,-0.6253,13.3035,22.2712,3.3702,2.0224,7.9334,-0.2842,1592,2019-08-07 16:16:39:696
-4.6235,-27.9624,1.1848,13.3035,22.2712,3.3702,2.0224,7.9334,-0.2842,1597,2019-08-07 16:16:39:701
-4.6235,-27.9624,1.1848,6.0586,19.647,6.7742,3.2123,5.9339,-1.0874,1602,2019-08-07 16:16:39:706
-4.6235,-27.9624,1.1848,6.0586,19.647,6.7742,3.2123,5.9339,-1.0874,1608,2019-08-07 16:16:39:712
-1.6095,-26.3441,-3.9108,6.0586,19.647,6.7742,3.8557,4.1283,-1.5828,1613,2019-08-07 16:16:39:717
-1.6095,-26.3441,-3.9108,6.0586,19.647,6.7742,3.8557,4.1283,-1.5828,1618,2019-08-07 16:16:39:722
1.1223,-21.2265,-13.4092,1.9301,13.9304,19.2131,4.6781,5.1243,-2.2219,1623,2019-08-07 16:16:39:727
1.1223,-21.2265,-13.4092,1.9301,13.9304,19.2131,4.6781,5.1243,-2.2219,1628,2019-08-07 16:16:39:732
1.1223,-21.2265,-13.4092,1.9301,13.9304,19.2131,5.1159,8.0836,-2.8526,1633,2019-08-07 16:16:39:737
5.6626,-16.1997,-1.7755,1.9301,13.9304,19.2131,5.1159,8.0836,-2.8526,1638,2019-08-07 16:16:39:742
5.6626,-16.1997,-1.7755,-2.5711,5.5363,4.9858,6.2962,8.9049,-3.7271,1643,2019-08-07 16:16:39:747
3.2657,-8.3563,2.4622,-2.5711,5.5363,4.9858,6.2962,8.9049,-3.7271,1648,2019-08-07 16:16:39:752
3.2657,-8.3563,2.4622,-2.5711,5.5363,4.9858,6.2962,8.9049,-3.7271,1653,2019-08-07 16:16:39:757
3.2657,-8.3563,2.4622,-2.5711,5.5363,4.9858,9.5133,9.9105,-4.3599,1657,2019-08-07 16:16:39:761
-4.7527,3.8981,5.9787,8.222,-13.7381,-2.8866,9.5133,9.9105,-4.3599,1663,2019-08-07 16:16:39:767
-4.7527,3.8981,5.9787,8.222,-13.7381,-2.8866,11.9794,9.951,-3.4555,1668,2019-08-07 16:16:39:772
-4.7527,3.8981,5.9787,8.222,-13.7381,-2.8866,11.9794,9.951,-3.4555,1673,2019-08-07 16:16:39:777
-4.0303,43.7117,23.7498,8.222,-13.7381,-2.8866,12.038,4.9667,-2.4019,1677,2019-08-07 16:16:39:781
-4.0303,43.7117,23.7498,8.222,-13.7381,-2.8866,12.038,4.9667,-2.4019,1683,2019-08-07 16:16:39:787
-0.0019,72.369,-6.8617,1.0129,-68.7766,20.7148,11.3349,5.0849,-3.5396,1688,2019-08-07 16:16:39:792
-0.0019,72.369,-6.8617,1.0129,-68.7766,20.7148,11.3349,5.0849,-3.5396,1693,2019-08-07 16:16:39:797
-0.0019,72.369,-6.8617,1.0129,-68.7766,20.7148,12.8348,4.4202,-4.5804,1698,2019-08-07 16:16:39:802
-3.193,59.4988,-24.7364,1.0129,-68.7766,20.7148,12.8348,4.4202,-4.5804,1703,2019-08-07 16:16:39:807
-3.193,59.4988,-24.7364,4.6537,-55.9014,37.888,12.8348,4.4202,-4.5804,1708,2019-08-07 16:16:39:812
-3.193,59.4988,-24.7364,4.6537,-55.9014,37.888,6.7926,-1.3695,-4.2896,1713,2019-08-07 16:16:39:817
-10.0488,48.4235,-20.8098,4.6537,-55.9014,37.888,6.7926,-1.3695,-4.2896,1718,2019-08-07 16:16:39:822
-10.0488,48.4235,-20.8098,4.6537,-55.9014,37.888,-0.0677,-5.8191,-1.4911,1723,2019-08-07 16:16:39:827
-5.5851,36.6274,-11.8395,6.9203,-39.1366,20.624,-0.0677,-5.8191,-1.4911,1728,2019-08-07 16:16:39:832
-5.5851,36.6274,-11.8395,6.9203,-39.1366,20.624,-4.1636,-2.4689,0.8439,1733,2019-08-07 16:16:39:837
-5.5851,36.6274,-11.8395,6.9203,-39.1366,20.624,-4.1636,-2.4689,0.8439,1738,2019-08-07 16:16:39:842
0.3665,29.2805,12.3612,6.9203,-39.1366,20.624,-5.868,-5.3653,2.9723,1743,2019-08-07 16:16:39:847
0.3665,29.2805,12.3612,-2.6708,-24.4769,-4.4772,-5.868,-5.3653,2.9723,1748,2019-08-07 16:16:39:852
6.8204,19.6946,5.0925,-2.6708,-24.4769,-4.4772,-6.1769,-5.4751,4.4104,1753,2019-08-07 16:16:39:857
6.8204,19.6946,5.0925,-2.6708,-24.4769,-4.4772,-6.1769,-5.4751,4.4104,1758,2019-08-07 16:16:39:862
6.8204,19.6946,5.0925,-2.6708,-24.4769,-4.4772,-4.1497,-4.9233,4.2059,1763,2019-08-07 16:16:39:867
9.6049,21.0695,14.9585,-7.5612,-22.5821,-5.4837,-4.1497,-4.9233,4.2059,1768,2019-08-07 16:16:39:872
9.6049,21.0695,14.9585,-7.5612,-22.5821,-5.4837,-3.0429,-4.8817,4.2581,1773,2019-08-07 16:16:39:877
3.8255,24.8838,2.8158,-7.5612,-22.5821,-5.4837,-3.0429,-4.8817,4.2581,1777,2019-08-07 16:16:39:881
3.8255,24.8838,2.8158,-7.5612,-22.5821,-5.4837,-3.2528,-4.7645,4.5777,1783,2019-08-07 16:16:39:887
3.8255,24.8838,2.8158,-0.9552,-25.4149,10.596,-3.2528,-4.7645,4.5777,1788,2019-08-07 16:16:39:892
3.9882,21.3464,-3.0671,-0.9552,-25.4149,10.596,-4.317,-4.8252,4.8546,1793,2019-08-07 16:16:39:897
3.9882,21.3464,-3.0671,-1.0207,-22.0075,12.6358,-4.317,-4.8252,4.8546,1798,2019-08-07 16:16:39:902
3.9882,21.3464,-3.0671,-1.0207,-22.0075,12.6358,-5.803,-5.3632,4.681,1803,2019-08-07 16:16:39:907
3.5959,14.5914,-1.4031,-1.0207,-22.0075,12.6358,-5.803,-5.3632,4.681,1808,2019-08-07 16:16:39:912
3.5959,14.5914,-1.4031,-1.0207,-22.0075,12.6358,-5.803,-5.3632,4.681,1812,2019-08-07 16:16:39:916
2.7347,7.2636,5.9269,1.0499,-12.8595,4.2042,-6.3442,-6.1004,4.3348,1818,2019-08-07 16:16:39:922
2.7347,7.2636,5.9269,1.0499,-12.8595,4.2042,-6.3442,-6.1004,4.3348,1823,2019-08-07 16:16:39:927
2.7347,7.2636,5.9269,1.0499,-12.8595,4.2042,-5.9319,-7.8357,3.6733,1828,2019-08-07 16:16:39:932
2.2802,1.0386,10.9754,1.0499,-12.8595,4.2042,-5.9319,-7.8357,3.6733,1833,2019-08-07 16:16:39:937
2.2802,1.0386,10.9754,3.2025,-3.9595,-1.4259,-5.0073,-9.2685,2.886,1838,2019-08-07 16:16:39:942
0.5196,-1.6396,6.502,3.2025,-3.9595,-1.4259,-5.0073,-9.2685,2.886,1843,2019-08-07 16:16:39:947
0.5196,-1.6396,6.502,3.2025,-3.9595,-1.4259,-5.0126,-10.7747,2.364,1848,2019-08-07 16:16:39:952
0.5196,-1.6396,6.502,3.2025,-3.9595,-1.4259,-5.0126,-10.7747,2.364,1853,2019-08-07 16:16:39:957
-0.9013,-8.8385,-5.2024,6.4989,2.7209,10.4444,-5.0126,-10.7747,2.364,1858,2019-08-07 16:16:39:962
-0.9013,-8.8385,-5.2024,6.4989,2.7209,10.4444,-6.2835,-11.5428,2.0125,1862,2019-08-07 16:16:39:966
-0.9013,-8.8385,-5.2024,6.4989,2.7209,10.4444,-6.2835,-11.5428,2.0125,1869,2019-08-07 16:16:39:973
-0.8295,-17.7082,-15.1627,6.4989,2.7209,10.4444,-7.6704,-11.3297,1.8495,1873,2019-08-07 16:16:39:977
-0.8295,-17.7082,-15.1627,4.8005,26.3987,19.7055,-7.6704,-11.3297,1.8495,1878,2019-08-07 16:16:39:982
-0.8295,-17.7082,-15.1627,4.8005,26.3987,19.7055,-7.6704,-11.3297,1.8495,1883,2019-08-07 16:16:39:987
7.8682,-51.7312,-2.2233,4.8005,26.3987,19.7055,-8.6196,-10.73,1.2764,1888,2019-08-07 16:16:39:992
7.8682,-51.7312,-2.2233,4.8005,26.3987,19.7055,-8.6196,-10.73,1.2764,1893,2019-08-07 16:16:39:997
12.1119,-26.1579,1.4865,-5.6261,18.801,-1.2699,-7.7088,-10.6778,-0.5164,1899,2019-08-07 16:16:40:003
12.1119,-26.1579,1.4865,-5.6261,18.801,-1.2699,-7.7088,-10.6778,-0.5164,1902,2019-08-07 16:16:40:006
12.1119,-26.1579,1.4865,-5.6261,18.801,-1.2699,-7.7088,-10.6778,-0.5164,1908,2019-08-07 16:16:40:012
7.0549,-14.2902,-0.0974,-5.6261,18.801,-1.2699,-3.24,-8.9915,-1.2941,1913,2019-08-07 16:16:40:017
7.0549,-14.2902,-0.0974,-0.8439,9.5875,5.0641,-3.24,-8.9915,-1.2941,1918,2019-08-07 16:16:40:022
7.0549,-14.2902,-0.0974,-0.8439,9.5875,5.0641,1.0605,-5.1257,-0.5356,1923,2019-08-07 16:16:40:027
9.8154,-22.568,-12.0563,-0.8439,9.5875,5.0641,1.0605,-5.1257,-0.5356,1928,2019-08-07 16:16:40:032
9.8154,-22.568,-12.0563,-0.8439,9.5875,5.0641,2.1651,-1.1362,0.0663,1933,2019-08-07 16:16:40:037
9.8154,-22.568,-12.0563,-5.2543,20.617,9.7607,2.1651,-1.1362,0.0663,1937,2019-08-07 16:16:40:041
12.8391,-27.3132,-7.3378,-5.2543,20.617,9.7607,0.7419,2.6476,0.2996,1943,2019-08-07 16:16:40:047
12.8391,-27.3132,-7.3378,-5.0243,15.1951,5.2084,0.7419,2.6476,0.2996,1948,2019-08-07 16:16:40:052
12.8391,-27.3132,-7.3378,-5.0243,15.1951,5.2084,-2.3484,2.9309,-0.298,1953,2019-08-07 16:16:40:057
5.9019,-20.5534,-10.8873,-5.0243,15.1951,5.2084,-2.3484,2.9309,-0.298,1958,2019-08-07 16:16:40:062
5.9019,-20.5534,-10.8873,-5.0243,15.1951,5.2084,-2.3484,2.9309,-0.298,1962,2019-08-07 16:16:40:066
-1.0878,-22.716,2.2784,7.6506,15.5473,-3.6109,-3.2485,5.2202,-0.3897,1968,2019-08-07 16:16:40:072
-1.0878,-22.716,2.2784,7.6506,15.5473,-3.6109,-3.2485,5.2202,-0.3897,1973,2019-08-07 16:16:40:077
-1.0878,-22.716,2.2784,7.6506,15.5473,-3.6109,-2.2152,5.1946,0.3688,1978,2019-08-07 16:16:40:082
-5.2214,-26.134,-4.7734,7.6506,15.5473,-3.6109,-2.2152,5.1946,0.3688,1983,2019-08-07 16:16:40:087
-5.2214,-26.134,-4.7734,14.4713,17.6248,1.4776,-1.3619,5.5163,0.9142,1988,2019-08-07 16:16:40:092
-5.2214,-26.134,-4.7734,14.4713,17.6248,1.4776,-1.3619,5.5163,0.9142,1993,2019-08-07 16:16:40:097
-8.69,-22.0858,2.6508,14.4713,17.6248,1.4776,0.1624,5.5675,1.2359,1998,2019-08-07 16:16:40:102
-8.69,-22.0858,2.6508,14.4713,17.6248,1.4776,0.1624,5.5675,1.2359,2002,2019-08-07 16:16:40:106
-8.69,-22.0858,2.6508,14.4713,17.6248,1.4776,0.1624,5.5675,1.2359,2008,2019-08-07 16:16:40:112
-7.092,-17.3407,8.3168,13.5115,9.9245,-8.4805,2.4666,3.2835,1.106,2013,2019-08-07 16:16:40:117
-7.092,-17.3407,8.3168,13.5115,9.9245,-8.4805,2.4666,3.2835,1.106,2018,2019-08-07 16:16:40:122
-7.092,-17.3407,8.3168,13.5115,9.9245,-8.4805,3.6661,-1.6774,0.601,2023,2019-08-07 16:16:40:127
-3.2551,-12.1324,5.7478,13.5115,9.9245,-8.4805,3.6661,-1.6774,0.601,2028,2019-08-07 16:16:40:132
-3.2551,-12.1324,5.7478,9.2731,3.2755,1.8127,2.7585,-4.7187,0.3667,2033,2019-08-07 16:16:40:137
0.6393,-6.1079,-10.9297,9.2731,3.2755,1.8127,2.7585,-4.7187,0.3667,2038,2019-08-07 16:16:40:142
0.6393,-6.1079,-10.9297,9.2731,3.2755,1.8127,1.1393,-2.0172,0.3677,2043,2019-08-07 16:16:40:147
0.6393,-6.1079,-10.9297,-1.2355,-2.4768,3.38,1.1393,-2.0172,0.3677,2048,2019-08-07 16:16:40:152
9.404,-4.7998,-1.6765,-1.2355,-2.4768,3.38,-0.4842,-2.047,0.2825,2053,2019-08-07 16:16:40:157
9.404,-4.7998,-1.6765,-1.2355,-2.4768,3.38,-0.4842,-2.047,0.2825,2058,2019-08-07 16:16:40:162
9.404,-4.7998,-1.6765,-1.2355,-2.4768,3.38,-0.4842,-2.047,0.2825,2063,2019-08-07 16:16:40:167
10.2508,-4.0551,0.5107,-1.2355,-2.4768,3.4856,-0.3521,-2.4817,0.2165,2068,2019-08-07 16:16:40:172
10.2508,-4.0551,0.5107,-2.6894,-3.5051,3.4856,-0.3521,-2.4817,0.2165,2073,2019-08-07 16:16:40:177
9.0165,-4.4513,-4.9856,-2.6894,-3.5051,3.4856,0.3286,-0.6867,0.5755,2078,2019-08-07 16:16:40:182
9.0165,-4.4513,-4.9856,-2.6894,-3.5051,3.4856,0.3286,-0.6867,0.5755,2084,2019-08-07 16:16:40:188
9.0165,-4.4513,-4.9856,-2.6894,-3.5051,3.4856,0.5353,1.3107,0.8737,2088,2019-08-07 16:16:40:192
9.5428,-6.6855,-1.535,-3.4272,-0.9839,1.4112,0.5353,1.3107,0.8737,2092,2019-08-07 16:16:40:196
9.5428,-6.6855,-1.535,-3.4272,-0.9839,1.4112,-0.0645,1.5024,0.4796,2099,2019-08-07 16:16:40:203
6.3326,-5.5111,-2.5249,-3.4272,-0.9839,1.4112,-0.0645,1.5024,0.4796,2103,2019-08-07 16:16:40:207
6.3326,-5.5111,-2.5249,-3.4272,-0.9839,1.4112,-0.0645,1.5024,0.4796,2108,2019-08-07 16:16:40:212
6.3326,-5.5111,-2.5249,1.1425,-3.1366,-1.2388,-0.4181,1.3842,0.2527,2113,2019-08-07 16:16:40:217
4.3136,-4.5564,2.2549,1.1425,-3.1366,-1.2388,-0.4181,1.3842,0.2527,2118,2019-08-07 16:16:40:222
4.3136,-4.5564,2.2549,1.1425,-3.1366,-1.2388,-0.3276,0.6055,0.1163,2123,2019-08-07 16:16:40:227
5.3231,-6.0506,1.5148,1.1425,-3.1366,-1.2388,-0.3276,0.6055,0.1163,2128,2019-08-07 16:16:40:232
5.3231,-6.0506,1.5148,0.4327,-1.3347,-1.3208,-0.1145,0.0739,0.0045,2133,2019-08-07 16:16:40:237
5.3231,-6.0506,1.5148,0.4327,-1.3347,-1.3208,-0.1145,0.0739,0.0045,2138,2019-08-07 16:16:40:242
5.902,-6.9767,0.7134,0.4327,-1.3347,-1.3208,-0.0208,-0.365,-0.0807,2143,2019-08-07 16:16:40:247
5.902,-6.9767,0.7134,0.4327,-1.3347,-1.3208,-0.0208,-0.365,-0.0807,2148,2019-08-07 16:16:40:252
5.902,-6.9767,0.7134,-0.6366,-0.6621,-0.4787,-0.0123,-0.5621,-0.0158,2153,2019-08-07 16:16:40:257
7.2272,-7.096,0.3646,-0.6366,-0.6621,-0.4787,-0.0123,-0.5621,-0.0158,2158,2019-08-07 16:16:40:262
7.2272,-7.096,0.3646,-0.6366,-0.6621,-0.4787,-0.0123,-0.5621,-0.0158,2163,2019-08-07 16:16:40:267
8.098,-7.0913,-0.3849,-0.6366,-0.6621,-0.4787,-0.0016,-0.544,0.0119,2168,2019-08-07 16:16:40:272
8.098,-7.0913,-0.3849,-2.1003,-0.5735,0.3632,-0.0016,-0.544,0.0119,2173,2019-08-07 16:16:40:277
8.098,-7.0913,-0.3849,-2.1003,-0.5735,0.3632,-0.0186,-0.398,-0.0104,2178,2019-08-07 16:16:40:282
7.9353,-7.2488,-0.3236,-2.1003,-0.5735,0.3632,-0.0186,-0.398,-0.0104,2183,2019-08-07 16:16:40:287
7.9353,-7.2488,-0.3236,-2.1003,-0.5735,0.3632,-0.09,-0.2531,-0.0434,2187,2019-08-07 16:16:40:291
7.9353,-7.2488,-0.3236,-1.3359,-0.2477,0.0912,-0.09,-0.2531,-0.0434,2193,2019-08-07 16:16:40:297
7.3899,-7.5591,-0.1303,-1.3359,-0.2477,0.0912,-0.1358,-0.1232,-0.0392,2198,2019-08-07 16:16:40:302
7.3899,-7.5591,-0.1303,-1.3359,-0.2477,0.0912,-0.1358,-0.1232,-0.0392,2203,2019-08-07 16:16:40:307
7.3899,-7.5591,-0.0643,-1.3359,-0.2477,0.0912,-0.1358,-0.1232,-0.0392,2208,2019-08-07 16:16:40:312
7.5,-8.0747,-0.0643,-1.4489,0.4061,0.0359,-0.1209,-7.0E-4,-0.0392,2213,2019-08-07 16:16:40:317
7.5,-8.0747,-0.0643,-1.4489,0.4061,0.0359,-0.1209,-7.0E-4,-0.0392,2218,2019-08-07 16:16:40:322
7.4713,-8.1749,-0.4556,-1.4489,0.4061,0.0359,-0.057,0.1815,-0.0413,2223,2019-08-07 16:16:40:327
7.4713,-8.1749,-0.4556,-1.4489,0.4061,0.0359,-0.057,0.1815,-0.0413,2228,2019-08-07 16:16:40:332
7.4713,-8.1749,-0.4556,-1.0028,0.3714,0.3677,-0.0144,0.418,-0.0328,2233,2019-08-07 16:16:40:337
7.012,-8.0699,-0.4037,-1.0028,0.3714,0.3677,-0.0144,0.418,-0.0328,2237,2019-08-07 16:16:40:341
7.012,-8.0699,-0.4037,-1.0028,0.3714,0.3677,0.0037,0.6332,-0.0136,2243,2019-08-07 16:16:40:347
5.9547,-7.879,-0.234,-1.0028,0.3714,0.3677,0.0037,0.6332,-0.0136,2248,2019-08-07 16:16:40:352
5.9547,-7.879,-0.234,0.5541,0.1864,0.2041,-0.0069,0.7557,0.0141,2253,2019-08-07 16:16:40:357
5.9547,-7.879,-0.234,0.5541,0.1864,0.2041,-0.0069,0.7557,0.0141,2257,2019-08-07 16:16:40:361
4.993,-7.9649,0.0252,0.5541,0.1864,0.2041,-0.0293,0.6992,0.0471,2263,2019-08-07 16:16:40:367
4.993,-7.9649,0.0252,0.5541,0.1864,0.2041,-0.0293,0.6992,0.0471,2268,2019-08-07 16:16:40:372
4.993,-7.9649,0.0252,1.8801,0.7642,-0.6875,-0.0218,0.2411,0.0897,2273,2019-08-07 16:16:40:377
4.1654,-8.5568,0.902,1.8801,0.7642,-0.6875,-0.0218,0.2411,0.0897,2278,2019-08-07 16:16:40:382
4.1654,-8.5568,0.902,1.8801,0.7642,-0.6875,0.0506,-0.1956,0.0865,2284,2019-08-07 16:16:40:388
4.1654,-8.5568,0.902,1.8801,0.7642,-0.6875,0.0506,-0.1956,0.0865,2288,2019-08-07 16:16:40:392
4.6534,-8.681,1.0906,1.2621,0.9214,-0.9071,0.1124,-0.5376,0.0759,2293,2019-08-07 16:16:40:397
4.6534,-8.681,1.0906,1.2621,0.9214,-0.9071,0.1124,-0.5376,0.0759,2299,2019-08-07 16:16:40:403
4.6534,-8.681,1.0906,1.2621,0.9214,-0.9071,0.1955,-0.8465,0.0524,2303,2019-08-07 16:16:40:407
5.8494,-8.1081,0.4212,1.2621,0.9214,-0.9071,0.1955,-0.8465,0.0524,2308,2019-08-07 16:16:40:412
5.8494,-8.1081,0.4212,-0.5289,0.1198,0.1484,0.2104,-0.8593,0.046,2314,2019-08-07 16:16:40:418
6.9977,-7.8074,-0.3283,-0.5289,0.1198,0.1484,0.2104,-0.8593,0.046,2317,2019-08-07 16:16:40:421
6.9977,-7.8074,-0.3283,-0.5289,0.1198,0.1484,0.2104,-0.8593,0.046,2323,2019-08-07 16:16:40:427
6.9977,-7.8074,-0.3283,-0.5289,0.1198,0.1484,0.2061,-0.6079,0.0333,2328,2019-08-07 16:16:40:432
7.5383,-7.7548,-0.0549,-1.5297,0.0477,0.026,0.2061,-0.6079,0.0333,2333,2019-08-07 16:16:40:437
7.5383,-7.7548,-0.0549,-1.5297,0.0477,0.026,0.237,-0.1349,0.0151,2338,2019-08-07 16:16:40:442
7.5383,-7.7548,-0.0549,-1.5297,0.0477,0.026,0.237,-0.1349,0.0151,2342,2019-08-07 16:16:40:446
7.3134,-7.6403,-0.168,-1.5297,0.0477,0.026,0.2146,0.1953,0.0045,2349,2019-08-07 16:16:40:453
7.3134,-7.6403,-0.168,-0.7458,-0.2787,0.2185,0.2146,0.1953,0.0045,2353,2019-08-07 16:16:40:457
6.7011,-7.5162,-0.1067,-0.7458,-0.2787,0.2185,0.2146,0.1953,0.0045,2358,2019-08-07 16:16:40:462
6.7011,-7.5162,-0.1067,-0.7458,-0.2787,0.2185,0.1561,0.3232,0.013,2363,2019-08-07 16:16:40:467
6.103,-7.6832,0.605,-0.7458,-0.2787,0.2185,0.1561,0.3232,0.013,2368,2019-08-07 16:16:40:472
6.103,-7.6832,0.605,-0.7458,-0.2787,0.2185,0.1561,0.2688,0.0226,2373,2019-08-07 16:16:40:477
6.103,-7.6832,0.605,0.0286,0.0169,-0.5888,0.1561,0.2688,0.0226,2378,2019-08-07 16:16:40:482
5.9069,-7.6021,0.8973,0.0286,0.0169,-0.5888,0.1688,0.1218,0.0333,2383,2019-08-07 16:16:40:487
5.9069,-7.6021,0.8973,0.0286,0.0169,-0.5888,0.1688,0.1218,0.0333,2388,2019-08-07 16:16:40:492
5.9069,-7.6021,0.8973,0.0286,0.0169,-0.5888,0.1582,-0.1264,0.0588,2393,2019-08-07 16:16:40:497
5.95,-7.3109,0.8455,0.0799,-0.4267,-0.7587,0.1582,-0.1264,0.0588,2398,2019-08-07 16:16:40:502
5.95,-7.3109,0.8455,0.0799,-0.4267,-0.7587,0.1262,-0.3224,0.0748,2403,2019-08-07 16:16:40:507
6.6389,-7.2536,0.4071,0.0799,-0.4267,-0.7587,0.1262,-0.3224,0.0748,2408,2019-08-07 16:16:40:512
6.6389,-7.2536,0.4071,-0.9598,-0.4031,-0.2184,0.0794,-0.3394,0.0599,2414,2019-08-07 16:16:40:518
6.6389,-7.2536,0.4071,-0.9598,-0.4031,-0.2184,0.0794,-0.3394,0.0599,2418,2019-08-07 16:16:40:522
7.0169,-7.3157,0.1007,-0.9598,-0.4031,-0.2184,0.0794,-0.3394,0.0599,2423,2019-08-07 16:16:40:527
7.0169,-7.3157,0.1007,-0.9598,-0.4031,-0.2184,0.074,-0.202,0.0471,2429,2019-08-07 16:16:40:533
7.0169,-7.3157,0.1007,-0.9598,-0.4031,-0.2184,0.074,-0.202,0.0471,2433,2019-08-07 16:16:40:537
6.7872,-7.478,0.2327,-0.7653,-0.266,-0.1747,0.09,0.0206,0.0311,2437,2019-08-07 16:16:40:541
6.7872,-7.478,0.2327,-0.7653,-0.266,-0.1747,0.09,0.0206,0.0311,2443,2019-08-07 16:16:40:547
6.371,-7.5162,0.3317,-0.7653,-0.266,-0.1747,0.0985,0.1463,0.0226,2449,2019-08-07 16:16:40:553
6.371,-7.5162,0.3317,-0.7653,-0.266,-0.1747,0.0985,0.1463,0.0226,2453,2019-08-07 16:16:40:557
6.371,-7.5162,0.3317,-0.1402,-0.1524,-0.5381,0.0985,0.1463,0.0226,2457,2019-08-07 16:16:40:561
6.1126,-7.5066,0.6805,-0.1402,-0.1524,-0.5381,0.1145,0.1719,0.0045,2463,2019-08-07 16:16:40:567
6.1126,-7.5066,0.6805,-0.1402,-0.1524,-0.5381,0.1145,0.1719,0.0045,2468,2019-08-07 16:16:40:572
5.993,-7.3634,0.3741,-0.1402,-0.1524,-0.5381,0.1124,0.1048,-0.0189,2473,2019-08-07 16:16:40:577
5.993,-7.3634,0.3741,-0.0375,-0.3507,-0.1834,0.1124,0.1048,-0.0189,2477,2019-08-07 16:16:40:581
5.993,-7.3634,0.3741,-0.0375,-0.3507,-0.1834,0.0879,0.0121,-0.0275,2484,2019-08-07 16:16:40:588
6.3375,-7.4875,0.3081,-0.0375,-0.3507,-0.1834,0.0879,0.0121,-0.0275,2488,2019-08-07 16:16:40:592
6.3375,-7.4875,0.3081,-0.0375,-0.3507,-0.1834,0.0804,-0.0486,-0.036,2492,2019-08-07 16:16:40:596
6.7585,-7.4732,0.2704,-0.6421,-0.3062,-0.2637,0.0804,-0.0486,-0.036,2498,2019-08-07 16:16:40:602
6.7585,-7.4732,0.2704,-0.6421,-0.3062,-0.2637,0.0751,-0.087,-0.0115,2502,2019-08-07 16:16:40:606
6.7585,-7.4732,0.2704,-0.6421,-0.3062,-0.2637,0.0751,-0.087,-0.0115,2508,2019-08-07 16:16:40:612
6.9738,-7.5066,0.0205,-0.6421,-0.3062,-0.2637,0.0474,-0.0124,0.0173,2513,2019-08-07 16:16:40:617
6.9738,-7.5066,0.0205,-0.9182,-0.2631,-0.0066,0.0474,-0.0124,0.0173,2518,2019-08-07 16:16:40:622
6.9738,-7.5066,0.0205,-0.9182,-0.2631,-0.0066,0.0474,-0.0124,0.0173,2523,2019-08-07 16:16:40:627
6.8351,-7.478,0.3175,-0.9182,-0.2631,-0.0066,0.0325,0.0515,0.0556,2527,2019-08-07 16:16:40:631
6.8351,-7.478,0.3175,-0.9182,-0.2631,-0.0066,0.0325,0.0515,0.0556,2533,2019-08-07 16:16:40:637
6.5672,-7.7549,0.2657,-0.6178,-0.0335,-0.1401,0.0176,0.1101,0.11,2538,2019-08-07 16:16:40:642
6.5672,-7.7549,0.2657,-0.6178,-0.0335,-0.1401,0.0176,0.1101,0.11,2543,2019-08-07 16:16:40:647
6.5672,-7.7549,0.2657,-0.6178,-0.0335,-0.1401,0.0176,0.1101,0.11,2548,2019-08-07 16:16:40:652
6.3902,-7.9172,0.3269,-0.6178,-0.0335,-0.1401,0.0154,0.1357,0.127,2553,2019-08-07 16:16:40:657
6.3902,-7.9172,0.3269,-0.6178,-0.0335,-0.1401,0.0154,0.1357,0.127,2557,2019-08-07 16:16:40:661
6.2419,-8.0556,0.3741,-0.2912,0.2251,-0.1826,0.0421,0.1538,0.144,2563,2019-08-07 16:16:40:667
6.2419,-8.0556,0.3741,-0.2912,0.2251,-0.1826,0.0421,0.1538,0.144,2568,2019-08-07 16:16:40:672
6.2419,-8.0556,0.3741,-0.2912,0.2251,-0.1826,0.073,0.1644,0.1451,2573,2019-08-07 16:16:40:677
6.127,-7.9267,0.3552,-0.123,0.0838,-0.069,0.073,0.1644,0.1451,2579,2019-08-07 16:16:40:683
6.127,-7.9267,0.3552,-0.123,0.0838,-0.069,0.073,0.1644,0.1451,2583,2019-08-07 16:16:40:687
6.127,-7.9267,0.3552,-0.123,0.0838,-0.069,0.0857,0.1474,0.1621,2587,2019-08-07 16:16:40:691
6.0362,-7.8599,0.1573,-0.123,0.0838,-0.069,0.0857,0.1474,0.1621,2593,2019-08-07 16:16:40:697
6.0362,-7.8599,0.1573,-0.1538,0.1028,0.121,0.074,0.1197,0.1664,2599,2019-08-07 16:16:40:703
6.1701,-7.8599,0.1101,-0.1538,0.1028,0.121,0.074,0.1197,0.1664,2603,2019-08-07 16:16:40:707
6.1701,-7.8599,0.1101,-0.1538,0.1028,0.121,0.074,0.1197,0.1664,2608,2019-08-07 16:16:40:712
6.1988,-7.9601,0.2751,-0.1538,0.1028,0.121,0.0581,0.0739,0.1515,2614,2019-08-07 16:16:40:718
6.1988,-7.9601,0.2751,-0.1826,0.1281,-0.0902,0.0581,0.0739,0.1515,2617,2019-08-07 16:16:40:721
6.1988,-7.9601,0.2751,-0.1826,0.1281,-0.0902,0.0911,0.0664,0.1419,2623,2019-08-07 16:16:40:727
6.0218,-7.9506,0.2468,-0.1826,0.1281,-0.0902,0.0911,0.0664,0.1419,2628,2019-08-07 16:16:40:732
6.0218,-7.9506,0.2468,-0.1826,0.1281,-0.0902,0.1209,0.0643,0.1483,2634,2019-08-07 16:16:40:738
5.8974,-7.9649,0.2374,0.0185,0.1443,0.0383,0.1209,0.0643,0.1483,2637,2019-08-07 16:16:40:741
5.8974,-7.9649,0.2374,0.0185,0.1443,0.0383,0.1433,0.0196,0.1515,2643,2019-08-07 16:16:40:747
5.8974,-7.9649,0.2374,0.0588,0.1498,-0.0951,0.1433,0.0196,0.1515,2648,2019-08-07 16:16:40:752
5.8257,-8.0317,0.3552,0.0588,0.1498,-0.0951,0.1433,0.0196,0.1515,2653,2019-08-07 16:16:40:757
5.8257,-8.0317,0.3552,0.0588,0.1498,-0.0951,0.1816,-0.0369,0.1472,2657,2019-08-07 16:16:40:761
5.7778,-7.9792,0.4071,0.0588,0.1498,-0.0951,0.1816,-0.0369,0.1472,2663,2019-08-07 16:16:40:767
5.7778,-7.9792,0.4071,0.1155,0.0941,-0.1591,0.2125,-0.0806,0.1472,2668,2019-08-07 16:16:40:772
5.7778,-7.9792,0.4071,0.1155,0.0941,-0.1591,0.2125,-0.0806,0.1472,2673,2019-08-07 16:16:40:777
5.7539,-7.9315,0.4637,0.1155,0.0941,-0.1591,0.2242,-0.1179,0.1472,2678,2019-08-07 16:16:40:782
5.7539,-7.9315,0.4637,0.1155,0.0941,-0.1591,0.2242,-0.1179,0.1472,2683,2019-08-07 16:16:40:787
5.9883,-7.8599,0.4825,-0.1323,-0.0034,-0.1469,0.2242,-0.1594,0.1472,2688,2019-08-07 16:16:40:792
5.9883,-7.8599,0.4825,-0.1323,-0.0034,-0.1469,0.2242,-0.1594,0.1472,2693,2019-08-07 16:16:40:797
5.9883,-7.8599,0.4825,-0.1323,-0.0034,-0.1469,0.2114,-0.1701,0.1174,2698,2019-08-07 16:16:40:802
6.1654,-7.6976,0.4967,-0.1323,-0.0034,-0.1469,0.2114,-0.1701,0.1174,2703,2019-08-07 16:16:40:807
6.1654,-7.6976,0.4967,-0.3054,-0.31,-0.0842,0.2008,-0.1328,0.0748,2708,2019-08-07 16:16:40:812
6.1654,-7.6976,0.4967,-0.3054,-0.31,-0.0842,0.2008,-0.1328,0.0748,2713,2019-08-07 16:16:40:817
6.0745,-7.4828,0.426,-0.3054,-0.31,-0.0842,0.1752,-0.0891,0.0482,2718,2019-08-07 16:16:40:822
6.0745,-7.4828,0.426,-0.3054,-0.31,-0.0842,0.1752,-0.0891,0.0482,2723,2019-08-07 16:16:40:827
5.9357,-7.3252,0.5768,-0.3054,-0.31,-0.0842,0.1752,-0.0891,0.0482,2728,2019-08-07 16:16:40:832
5.9357,-7.3252,0.5768,-0.09,-0.5274,-0.2826,0.1422,-0.0475,0.0162,2733,2019-08-07 16:16:40:837
5.8353,-7.287,0.7748,-0.09,-0.5274,-0.2826,0.1081,-0.0433,-0.003,2738,2019-08-07 16:16:40:842
5.8353,-7.287,0.7748,-0.09,-0.5274,-0.2826,0.1081,-0.0433,-0.003,2743,2019-08-07 16:16:40:847
5.8353,-7.287,0.7748,-0.0729,-0.5007,-0.4038,0.0666,-0.055,-0.0221,2749,2019-08-07 16:16:40:853
5.931,-7.3443,0.8031,-0.0729,-0.5007,-0.4038,0.0666,-0.055,-0.0221,2753,2019-08-07 16:16:40:857
5.931,-7.3443,0.8031,-0.0729,-0.5007,-0.4038,0.0666,-0.055,-0.0221,2758,2019-08-07 16:16:40:862
6.1176,-7.435,0.8172,-0.0729,-0.5007,-0.4038,0.0463,-0.0742,-0.053,2763,2019-08-07 16:16:40:867
6.1176,-7.435,0.8172,-0.0729,-0.5007,-0.4038,0.0463,-0.0742,-0.053,2768,2019-08-07 16:16:40:872
6.1176,-7.435,0.8172,-0.3199,-0.4825,-0.3766,0.0325,-0.0593,-0.0839,2773,2019-08-07 16:16:40:877
6.3041,-7.4541,0.6758,-0.3199,-0.4825,-0.3766,0.0325,-0.0593,-0.0839,2778,2019-08-07 16:16:40:882
6.3041,-7.4541,0.6758,-0.5073,-0.4522,-0.1787,0.0133,-0.0539,-0.0839,2784,2019-08-07 16:16:40:888
6.4381,-7.4398,0.5532,-0.5073,-0.4522,-0.1787,0.0133,-0.0539,-0.0839,2787,2019-08-07 16:16:40:891
6.4381,-7.4398,0.5532,-0.5073,-0.4522,-0.1787,0.0037,-0.0348,-0.0669,2793,2019-08-07 16:16:40:897
6.4381,-7.4398,0.5532,-0.5073,-0.4522,-0.1787,0.0037,-0.0348,-0.0669,2798,2019-08-07 16:16:40:902
6.486,-7.5544,0.5532,-0.6107,-0.2922,-0.1667,0.0037,-0.0348,-0.0669,2803,2019-08-07 16:16:40:907
6.486,-7.5544,0.5532,-0.6107,-0.2922,-0.1667,0.009,-0.0284,-0.036,2808,2019-08-07 16:16:40:912
6.6725,-7.7023,0.459,-0.6107,-0.2922,-0.1667,0.009,-0.0284,-0.036,2814,2019-08-07 16:16:40:918
6.6725,-7.7023,0.459,-0.6107,-0.2922,-0.1667,0.0154,-0.038,-0.0094,2818,2019-08-07 16:16:40:922
6.6725,-7.7023,0.459,-0.8697,-0.1233,0.0344,0.0154,-0.038,-0.0094,2823,2019-08-07 16:16:40:927
6.7443,-7.7214,0.3505,-0.8697,-0.1233,0.0344,0.0154,-0.038,-0.0094,2827,2019-08-07 16:16:40:931
6.7443,-7.7214,0.3505,-0.8697,-0.1233,0.0344,0.0218,-0.0252,0.0034,2833,2019-08-07 16:16:40:937
6.6678,-7.6928,0.3553,-0.8697,-0.1233,0.0344,0.0218,-0.0252,0.0034,2838,2019-08-07 16:16:40:942
6.6678,-7.6928,0.3553,-0.7177,-0.1157,0.0296,0.0261,-0.0145,0.0333,2843,2019-08-07 16:16:40:947
6.6678,-7.6928,0.3553,-0.7177,-0.1157,0.0296,0.0261,-0.0145,0.0333,2848,2019-08-07 16:16:40:952
6.5721,-7.6785,0.426,-0.7177,-0.1157,0.0296,0.0229,-0.0028,0.0631,2853,2019-08-07 16:16:40:957
6.5721,-7.6785,0.426,-0.7177,-0.1157,0.0296,0.0229,-0.0028,0.0631,2858,2019-08-07 16:16:40:962
6.5721,-7.6785,0.426,-0.5694,-0.0857,0.0038,0.0229,-0.0028,0.0631,2863,2019-08-07 16:16:40:967
6.3999,-7.7262,0.4731,-0.5694,-0.0857,0.0038,0.0165,0.0142,0.0663,2868,2019-08-07 16:16:40:972
6.3999,-7.7262,0.4731,-0.5694,-0.0857,0.0038,0.0165,0.0142,0.0663,2873,2019-08-07 16:16:40:977
6.3138,-7.8026,0.459,-0.5694,-0.0857,0.0038,0.0176,0.0292,0.0684,2879,2019-08-07 16:16:40:983
6.3138,-7.8026,0.459,-0.3964,-0.0634,-0.1124,0.0176,0.0292,0.0684,2884,2019-08-07 16:16:40:988
6.3138,-7.8026,0.459,-0.3964,-0.0634,-0.1124,0.0122,0.043,0.0737,2887,2019-08-07 16:16:40:991
6.2564,-7.8742,0.5815,-0.3964,-0.0634,-0.1124,0.0122,0.043,0.0737,2893,2019-08-07 16:16:40:997
6.2564,-7.8742,0.5815,-0.3964,-0.0634,-0.1124,0.0186,0.0494,0.0727,2899,2019-08-07 16:16:41:003
6.2564,-7.8742,0.5815,-0.3397,0.0106,-0.1263,0.0186,0.0494,0.0727,2902,2019-08-07 16:16:41:006
6.2133,-7.9029,0.5155,-0.3397,0.0106,-0.1263,0.0208,0.0739,0.0769,2908,2019-08-07 16:16:41:012
6.2133,-7.9029,0.5155,-0.3397,0.0106,-0.1263,0.0208,0.0739,0.0769,2912,2019-08-07 16:16:41:016
6.199,-7.8742,0.6239,-0.3397,0.0106,-0.1263,0.0133,0.0845,0.0759,2918,2019-08-07 16:16:41:022
6.199,-7.8742,0.6239,-0.3701,0.0124,-0.1749,0.0133,0.0845,0.0759,2923,2019-08-07 16:16:41:027
6.199,-7.8742,0.6239,-0.3701,0.0124,-0.1749,0.009,0.0782,0.0727,2928,2019-08-07 16:16:41:032
6.132,-7.8456,0.591,-0.3701,0.0124,-0.1749,0.009,0.0782,0.0727,2933,2019-08-07 16:16:41:037
6.132,-7.8456,0.591,-0.3701,0.0124,-0.1749,0.0112,0.0537,0.0727,2938,2019-08-07 16:16:41:042
6.132,-7.8456,0.591,-0.1753,-0.0763,-0.0087,0.0112,0.0537,0.0727,2942,2019-08-07 16:16:41:046
6.0746,-7.7596,0.393,-0.1753,-0.0763,-0.0087,0.0165,0.0366,0.0769,2948,2019-08-07 16:16:41:052
6.0746,-7.7596,0.393,-0.1753,-0.0763,-0.0087,0.0165,0.0366,0.0769,2953,2019-08-07 16:16:41:057
5.8832,-7.7931,0.5014,-0.1753,-0.0763,-0.0087,0.025,-0.0049,0.0865,2958,2019-08-07 16:16:41:062
5.8832,-7.7931,0.5014,-0.0965,-0.0563,-0.0782,0.025,-0.0049,0.0865,2963,2019-08-07 16:16:41:067
5.8832,-7.7931,0.5014,-0.0965,-0.0563,-0.0782,0.0453,-0.0571,0.0929,2968,2019-08-07 16:16:41:072
5.8689,-7.9076,0.5297,-0.0965,-0.0563,-0.0782,0.0453,-0.0571,0.0929,2973,2019-08-07 16:16:41:077
5.8689,-7.9076,0.5297,-0.0965,-0.0563,-0.0782,0.0634,-0.0635,0.094,2978,2019-08-07 16:16:41:082
5.8689,-7.9076,0.5297,0.019,-0.0853,-0.1559,0.0634,-0.0635,0.094,2983,2019-08-07 16:16:41:087
5.8402,-7.8217,0.5627,0.019,-0.0853,-0.1559,0.0634,-0.0635,0.094,2988,2019-08-07 16:16:41:092
5.8402,-7.8217,0.5627,0.019,-0.0853,-0.1559,0.074,-0.0902,0.0886,2993,2019-08-07 16:16:41:097
5.7636,-7.7596,0.5627,0.019,-0.0853,-0.1559,0.074,-0.0902,0.0886,2998,2019-08-07 16:16:41:102
5.7636,-7.7596,0.5627,0.0492,-0.1425,-0.037,0.0517,-0.1093,0.0801,3002,2019-08-07 16:16:41:106
5.7636,-7.7596,0.5627,0.0492,-0.1425,-0.037,0.0517,-0.1093,0.0801,3008,2019-08-07 16:16:41:112
5.7588,-7.7024,0.5815,0.0492,-0.1425,-0.037,0.0389,-0.1285,0.0695,3013,2019-08-07 16:16:41:117
5.7588,-7.7024,0.5815,0.0492,-0.1425,-0.037,0.0389,-0.1285,0.0695,3018,2019-08-07 16:16:41:122
5.7588,-7.7024,0.5815,0.0492,-0.1425,-0.037,0.0389,-0.1285,0.0695,3023,2019-08-07 16:16:41:127
5.8737,-7.6928,0.459,-0.0801,-0.212,-0.03,0.0314,-0.1434,0.0599,3028,2019-08-07 16:16:41:132
5.8737,-7.6928,0.459,-0.0801,-0.212,-0.03,0.0314,-0.1434,0.0599,3033,2019-08-07 16:16:41:137
6.1607,-7.731,0.3506,-0.0801,-0.212,-0.03,0.0208,-0.1402,0.0482,3037,2019-08-07 16:16:41:141
6.1607,-7.731,0.3506,-0.4249,-0.1353,0.132,0.0208,-0.1402,0.0482,3043,2019-08-07 16:16:41:147
6.1607,-7.731,0.3506,-0.4249,-0.1353,0.132,0.0154,-0.0529,0.045,3048,2019-08-07 16:16:41:152
6.2803,-7.774,0.3128,-0.4249,-0.1353,0.132,0.0154,-0.0529,0.045,3053,2019-08-07 16:16:41:157
6.2803,-7.774,0.3128,-0.4249,-0.1353,0.132,0.0197,0.0334,0.0375,3058,2019-08-07 16:16:41:162
6.1081,-7.7644,0.3836,-0.3234,-0.1476,0.0329,0.0197,0.0334,0.0375,3063,2019-08-07 16:16:41:167
6.1081,-7.7644,0.3836,-0.3234,-0.1476,0.0329,0.0208,0.0686,0.0364,3067,2019-08-07 16:16:41:171
6.1081,-7.7644,0.3836,-0.3234,-0.1476,0.0329,0.0208,0.0686,0.0364,3073,2019-08-07 16:16:41:177
5.912,-7.8217,0.5155,-0.3234,-0.1476,0.0329,0.0059,0.076,0.0279,3077,2019-08-07 16:16:41:181
5.912,-7.8217,0.5155,-0.0888,-0.0883,-0.1773,0.0059,0.076,0.0279,3083,2019-08-07 16:16:41:187
5.912,-7.8217,0.5155,-0.0888,-0.0883,-0.1773,0.0059,0.0387,0.0173,3088,2019-08-07 16:16:41:192
5.8115,-7.774,0.7182,-0.0888,-0.0883,-0.1773,0.0059,0.0387,0.0173,3093,2019-08-07 16:16:41:197
5.8115,-7.774,0.7182,-0.0233,-0.1225,-0.2579,0.0154,-0.0209,0.0077,3098,2019-08-07 16:16:41:202
5.8115,-7.774,0.7182,-0.0233,-0.1225,-0.2579,0.0154,-0.0209,0.0077,3103,2019-08-07 16:16:41:207
5.9502,-7.6403,0.624,-0.0233,-0.1225,-0.2579,0.0154,-0.0209,0.0077,3108,2019-08-07 16:16:41:212
5.9502,-7.6403,0.624,-0.2715,-0.2653,-0.2114,0.0133,-0.0838,0.0066,3113,2019-08-07 16:16:41:217
5.9502,-7.6403,0.624,-0.2715,-0.2653,-0.2114,0.0133,-0.0838,0.0066,3118,2019-08-07 16:16:41:222
6.1792,-7.6164,0.572,-0.2715,-0.2653,-0.2114,0.0027,-0.1253,0.0194,3123,2019-08-07 16:16:41:227
6.1792,-7.6164,0.572,-0.2715,-0.2653,-0.2114,0.0027,-0.1253,0.0194,3128,2019-08-07 16:16:41:232
6.404,-7.6498,0.5201,-0.2715,-0.2653,-0.2114,-5.0E-4,-0.1157,0.0279,3133,2019-08-07 16:16:41:237
6.404,-7.6498,0.5201,-0.7092,-0.2267,0.0024,-5.0E-4,-0.1157,0.0279,3138,2019-08-07 16:16:41:242
6.5619,-7.8025,0.3975,-0.7092,-0.2267,0.0024,0.0027,-0.0614,0.0237,3143,2019-08-07 16:16:41:247
6.5619,-7.8025,0.3975,-0.7092,-0.2267,0.0024,0.0027,-0.0614,0.0237,3148,2019-08-07 16:16:41:252
6.5619,-7.8025,0.3975,-0.5555,-0.0929,0.0672,0.0112,0.0057,0.0205,3153,2019-08-07 16:16:41:257
6.3035,-7.7978,0.3693,-0.5555,-0.0929,0.0672,0.0112,0.0057,0.0205,3158,2019-08-07 16:16:41:262
6.3035,-7.7978,0.3693,-0.5555,-0.0929,0.0672,0.0208,0.059,0.0333,3163,2019-08-07 16:16:41:267
6.3035,-7.7978,0.3693,-0.5555,-0.0929,0.0672,0.0208,0.059,0.0333,3168,2019-08-07 16:16:41:272
5.9447,-7.9171,0.6238,-0.5555,-0.0929,0.0672,0.0261,0.0718,0.0439,3172,2019-08-07 16:16:41:276
5.9447,-7.9171,0.6238,-0.1869,0.0094,-0.2379,0.0261,0.0718,0.0439,3178,2019-08-07 16:16:41:282
5.9447,-7.9171,0.6238,-0.1869,0.0094,-0.2379,0.0304,0.0622,0.029,3182,2019-08-07 16:16:41:286
5.8203,-7.8885,0.638,-0.1869,0.0094,-0.2379,0.0304,0.0622,0.029,3188,2019-08-07 16:16:41:292
5.8203,-7.8885,0.638,-0.1869,0.0094,-0.2379,0.0261,0.0238,0.0056,3193,2019-08-07 16:16:41:297
5.7151,-7.7691,0.7087,0.0243,-0.1648,-0.2725,0.0261,0.0238,0.0056,3197,2019-08-07 16:16:41:301
5.7151,-7.7691,0.7087,0.0243,-0.1648,-0.2725,0.0261,0.0238,0.0056,3203,2019-08-07 16:16:41:307
5.7151,-7.7691,0.7087,0.0243,-0.1648,-0.2725,0.0282,-0.0177,-0.0062,3208,2019-08-07 16:16:41:312
5.7725,-7.7643,0.6662,0.0243,-0.1648,-0.2725,0.0282,-0.0177,-0.0062,3214,2019-08-07 16:16:41:318
5.7725,-7.7643,0.6662,0.002,-0.1156,-0.2162,0.0176,-0.0561,-0.0232,3218,2019-08-07 16:16:41:322
5.7725,-7.7643,0.6662,0.002,-0.1156,-0.2162,0.0176,-0.0561,-0.0232,3222,2019-08-07 16:16:41:326
5.8825,-7.7548,0.605,0.002,-0.1156,-0.2162,0.0016,-0.0891,-0.0339,3228,2019-08-07 16:16:41:332
5.8825,-7.7548,0.605,0.002,-0.1156,-0.2162,0.0016,-0.0891,-0.0339,3232,2019-08-07 16:16:41:336
6.1265,-7.7548,0.6474,-0.3015,-0.1917,-0.2186,-0.0016,-0.088,-0.0424,3238,2019-08-07 16:16:41:342
6.1265,-7.7548,0.6474,-0.3015,-0.1917,-0.2186,-0.0016,-0.088,-0.0424,3243,2019-08-07 16:16:41:347
6.1265,-7.7548,0.6474,-0.3015,-0.1917,-0.2186,-0.0069,-0.0646,-0.0424,3248,2019-08-07 16:16:41:352
6.3418,-7.7596,0.4305,-0.3015,-0.1917,-0.2186,-0.0069,-0.0646,-0.0424,3252,2019-08-07 16:16:41:356
6.3418,-7.7596,0.4305,-0.5398,-0.1273,-0.0107,-0.0069,-0.0646,-0.0424,3258,2019-08-07 16:16:41:362
6.2748,-7.7023,0.5154,-0.5398,-0.1273,-0.0107,-0.0165,-0.0358,-0.0434,3263,2019-08-07 16:16:41:367
6.2748,-7.7023,0.5154,-0.5398,-0.1273,-0.0107,-0.0165,-0.0358,-0.0434,3268,2019-08-07 16:16:41:372
6.2748,-7.7023,0.5154,-0.5398,-0.1273,-0.0107,-0.0112,0.0132,-0.0275,3274,2019-08-07 16:16:41:378
6.1743,-7.8169,0.506,-0.3734,-0.083,-0.0844,-0.0112,0.0132,-0.0275,3278,2019-08-07 16:16:41:382
6.1743,-7.8169,0.506,-0.3734,-0.083,-0.0844,-0.0144,0.0462,-0.0136,3282,2019-08-07 16:16:41:386
6.1074,-7.8598,0.5625,-0.3734,-0.083,-0.0844,-0.0144,0.0462,-0.0136,3288,2019-08-07 16:16:41:392
6.1074,-7.8598,0.5625,-0.3734,-0.083,-0.0844,-0.0144,0.0547,-0.0115,3292,2019-08-07 16:16:41:396
6.1074,-7.8598,0.5625,-0.2026,-0.0469,-0.1884,-0.0144,0.0547,-0.0115,3298,2019-08-07 16:16:41:402
6.1074,-7.8598,0.5625,-0.2026,-0.0469,-0.1884,-0.0144,0.0547,-0.0115,3303,2019-08-07 16:16:41:407
5.9495,-7.8741,0.5908,-0.2026,-0.0469,-0.1884,-0.0091,0.0462,-0.0115,3308,2019-08-07 16:16:41:412
5.9495,-7.8741,0.5908,-0.2026,-0.0469,-0.1884,-0.0069,0.0196,-0.0168,3313,2019-08-07 16:16:41:417
5.9016,-7.8169,0.5625,-0.095,-0.0783,-0.1322,-0.0069,0.0196,-0.0168,3318,2019-08-07 16:16:41:422
5.9016,-7.8169,0.5625,-0.095,-0.0783,-0.1322,-0.0069,0.0196,-0.0168,3323,2019-08-07 16:16:41:427
5.8825,-7.836,0.5908,-0.095,-0.0783,-0.1322,-0.0133,-0.023,-0.0232,3328,2019-08-07 16:16:41:432
5.8825,-7.836,0.5908,-0.095,-0.0783,-0.1322,-0.0133,-0.023,-0.0232,3333,2019-08-07 16:16:41:437
5.8825,-7.836,0.5908,-0.1097,-0.1325,-0.1546,-0.0155,-0.055,-0.0275,3338,2019-08-07 16:16:41:442
5.9734,-7.7691,0.6002,-0.1097,-0.1325,-0.1546,-0.0155,-0.055,-0.0275,3343,2019-08-07 16:16:41:447
5.9734,-7.7691,0.6002,-0.1097,-0.1325,-0.1546,-0.0155,-0.0667,-0.0264,3348,2019-08-07 16:16:41:452
5.9734,-7.7691,0.6002,-0.1097,-0.1325,-0.1546,-0.0155,-0.0667,-0.0264,3353,2019-08-07 16:16:41:457
6.1217,-7.793,0.4447,-0.3043,-0.095,-0.0273,-0.0261,-0.071,-0.0243,3358,2019-08-07 16:16:41:462
6.1217,-7.793,0.4447,-0.3043,-0.095,-0.0273,-0.0261,-0.071,-0.0243,3363,2019-08-07 16:16:41:467
6.1217,-7.793,0.4447,-0.3043,-0.095,-0.0273,-0.0293,-0.0614,-0.0264,3368,2019-08-07 16:16:41:472
6.2604,-7.8216,0.5201,-0.3043,-0.095,-0.0273,-0.0293,-0.0614,-0.0264,3372,2019-08-07 16:16:41:476
6.2604,-7.8216,0.5201,-0.4409,-0.0332,-0.0806,-0.0144,-0.0316,-0.0296,3378,2019-08-07 16:16:41:482
6.2269,-7.8407,0.4447,-0.4409,-0.0332,-0.0806,-0.0144,-0.0316,-0.0296,3382,2019-08-07 16:16:41:486
6.2269,-7.8407,0.4447,-0.4409,-0.0332,-0.0806,-0.0091,0.0153,-0.02,3388,2019-08-07 16:16:41:492
6.2269,-7.8407,0.4447,-0.4409,-0.0332,-0.0806,-0.0091,0.0153,-0.02,3394,2019-08-07 16:16:41:498
6.1743,-7.8646,0.407,-0.3067,-0.0056,0.0125,-0.0176,0.0355,-0.0104,3398,2019-08-07 16:16:41:502
6.1743,-7.8646,0.407,-0.3067,-0.0056,0.0125,-0.0176,0.0355,-0.0104,3402,2019-08-07 16:16:41:506
6.1073,-7.9123,0.5107,-0.3067,-0.0056,0.0125,-0.0176,0.0355,-0.0104,3408,2019-08-07 16:16:41:512
6.1073,-7.9123,0.5107,-0.3067,-0.0056,0.0125,-0.0069,0.0537,-0.0083,3413,2019-08-07 16:16:41:517
6.1073,-7.9123,0.5107,-0.1849,0.0249,-0.208,-0.0069,0.0537,-0.0083,3418,2019-08-07 16:16:41:522
5.9112,-7.8312,0.44,-0.1849,0.0249,-0.208,0.0154,0.0462,-0.0104,3422,2019-08-07 16:16:41:526
5.9112,-7.8312,0.44,-0.1849,0.0249,-0.208,0.0154,0.0462,-0.0104,3428,2019-08-07 16:16:41:532
5.3275,-7.6307,0.5908,-0.1849,0.0249,-0.208,-0.1337,-0.267,-8.0E-4,3433,2019-08-07 16:16:41:537
5.3275,-7.6307,0.5908,0.2323,-0.1237,-0.4749,-0.1337,-0.267,-8.0E-4,3438,2019-08-07 16:16:41:542
5.3275,-7.6307,0.5908,0.2323,-0.1237,-0.4749,-0.09,-0.2425,-0.0211,3443,2019-08-07 16:16:41:547
6.0834,-7.9505,0.9113,0.2323,-0.1237,-0.4749,-0.09,-0.2425,-0.0211,3448,2019-08-07 16:16:41:552
6.0834,-7.9505,0.9113,0.2323,-0.1237,-0.4749,0.0804,-0.137,-0.052,3452,2019-08-07 16:16:41:556
6.0834,-8.0317,0.44,-0.596,0.1589,-0.0752,0.0804,-0.137,-0.052,3458,2019-08-07 16:16:41:562
6.4374,-8.0317,0.44,-0.596,0.1589,-0.0752,0.0804,-0.137,-0.052,3463,2019-08-07 16:16:41:567
6.4374,-8.0317,0.44,-0.596,0.1589,-0.0752,0.1401,-0.0188,-0.0488,3468,2019-08-07 16:16:41:572
6.6623,-7.7978,-0.0031,-0.596,0.1589,-0.0752,0.1401,-0.0188,-0.0488,3473,2019-08-07 16:16:41:577
6.6623,-7.7978,-0.0031,-0.7096,-0.214,0.1771,0.1124,0.1112,-0.0392,3478,2019-08-07 16:16:41:582
6.6623,-7.7978,-0.0031,-0.7096,-0.214,0.1771,0.1124,0.1112,-0.0392,3483,2019-08-07 16:16:41:587
6.447,-7.5686,0.2184,-0.7096,-0.214,0.1771,0.0506,0.2007,-0.0253,3488,2019-08-07 16:16:41:592
6.447,-7.5686,0.2184,-0.7096,-0.214,0.1771,0.0506,0.2007,-0.0253,3492,2019-08-07 16:16:41:596
5.9925,-7.5018,0.6474,-0.1534,-0.3082,-0.2544,-0.0059,0.2198,-0.0317,3498,2019-08-07 16:16:41:602
5.9925,-7.5018,0.6474,-0.1534,-0.3082,-0.2544,-0.0059,0.2198,-0.0317,3503,2019-08-07 16:16:41:607
5.9925,-7.5018,0.6474,-0.1534,-0.3082,-0.2544,-0.04,0.1346,-0.0243,3508,2019-08-07 16:16:41:612
5.8394,-7.7596,0.6898,0.0208,-0.0962,-0.2642,-0.04,0.1346,-0.0243,3513,2019-08-07 16:16:41:617
5.8394,-7.7596,0.6898,0.0208,-0.0962,-0.2642,-0.0442,0.0206,-0.0158,3517,2019-08-07 16:16:41:621
5.8824,-8.0126,0.7605,0.0208,-0.0962,-0.2642,-0.0442,0.0206,-0.0158,3523,2019-08-07 16:16:41:627