ACCELEROMETER X (m/s²),ACCELEROMETER Y (m/s²),ACCELEROMETER Z (m/s²),LINEAR ACCELERATION X (m/s²),LINEAR ACCELERATION Y (m/s²),LINEAR ACCELERATION Z (m/s²),GYROSCOPE X (rad/s),GYROSCOPE Y (rad/s),GYROSCOPE Z (rad/s),Time since start in ms ,YYYY-MO-DD HH-MI-SS_SSS
4.4419,-8.5873,1.6742,-0.1412,-0.1229,0.0147,-0.0015,0.0055,-0.0114,2,2019-08-07 16:15:02:200
4.4036,-8.5634,1.726,-0.0627,-0.0452,-0.0309,-0.0015,0.0055,-0.0114,8,2019-08-07 16:15:02:206
4.4036,-8.5634,1.726,-0.0627,-0.0452,-0.0309,-0.0015,0.0055,-0.0114,12,2019-08-07 16:15:02:210
4.4467,-8.6064,1.6883,-0.0627,-0.0452,-0.0309,-0.0026,-0.0179,-0.0093,18,2019-08-07 16:15:02:216
4.4467,-8.6064,1.6883,-0.0627,-0.0452,-0.0309,-0.0026,-0.0179,-0.0093,23,2019-08-07 16:15:02:221
4.4467,-8.6064,1.6883,-0.0627,-0.0452,-0.0309,-0.0058,-0.0275,-0.005,28,2019-08-07 16:15:02:226
4.4467,-8.6302,1.6647,-0.1651,-0.0347,0.0278,-0.0058,-0.0275,-0.005,33,2019-08-07 16:15:02:231
4.4467,-8.6302,1.6647,-0.1651,-0.0347,0.0278,-0.0068,-0.0296,-0.005,38,2019-08-07 16:15:02:236
4.4467,-8.6302,1.6647,-0.1651,-0.0347,0.0278,-0.0068,-0.0296,-0.005,42,2019-08-07 16:15:02:240
4.4754,-8.5825,1.6695,-0.1651,-0.0347,0.0278,-0.0047,0.0023,-0.0093,48,2019-08-07 16:15:02:246
4.4754,-8.5825,1.6695,-0.1572,-0.1388,0.0107,-0.0047,0.0023,-0.0093,53,2019-08-07 16:15:02:251
4.461,-8.53,1.6883,-0.1572,-0.1388,0.0107,-0.0047,0.0023,-0.0093,58,2019-08-07 16:15:02:256
4.461,-8.53,1.6883,-0.1572,-0.1388,0.0107,-0.0047,0.0236,-0.005,63,2019-08-07 16:15:02:261
4.461,-8.53,1.6883,-0.1572,-0.1388,0.0107,-0.0047,0.0236,-0.005,67,2019-08-07 16:15:02:265
4.4371,-8.4679,1.6553,-0.1361,-0.1854,0.035,-0.0143,0.0354,-0.0082,73,2019-08-07 16:15:02:271
4.4371,-8.4679,1.6553,-0.1361,-0.1854,0.035,-0.0143,0.0354,-0.0082,77,2019-08-07 16:15:02:275
4.4706,-8.5348,1.7685,-0.1361,-0.1854,0.035,-0.0154,0.0407,-0.0039,83,2019-08-07 16:15:02:281
4.4706,-8.5348,1.7685,-0.1361,-0.1854,0.035,-0.0154,0.0407,-0.0039,88,2019-08-07 16:15:02:286
4.4706,-8.5348,1.7685,-0.1211,-0.1323,-0.0202,-0.0122,0.0354,-0.0018,93,2019-08-07 16:15:02:291
4.3892,-8.5968,1.7355,-0.1211,-0.1323,-0.0202,-0.0122,0.0354,-0.0018,98,2019-08-07 16:15:02:296
4.3892,-8.5968,1.7355,-0.1211,-0.1323,-0.0202,-0.0154,0.0066,0.0014,103,2019-08-07 16:15:02:301
4.4275,-8.6207,1.693,-0.1211,-0.1323,-0.0202,-0.0154,0.0066,0.0014,108,2019-08-07 16:15:02:306
4.4275,-8.6207,1.693,-0.1688,0.0107,-0.0637,-0.0228,-0.0094,0.0024,113,2019-08-07 16:15:02:311
4.4275,-8.6207,1.693,-0.1688,0.0107,-0.0637,-0.0228,-0.0094,0.0024,118,2019-08-07 16:15:02:316
4.4419,-8.6971,1.726,-0.1688,0.0107,-0.0637,-0.0164,-0.0083,0.0024,123,2019-08-07 16:15:02:321
4.4419,-8.6971,1.726,-0.1688,0.0107,-0.0637,-0.0164,-0.0083,0.0024,128,2019-08-07 16:15:02:326
4.5328,-8.6875,1.66,-0.168,0.0199,0.0219,-0.0132,-0.0073,-0.0018,133,2019-08-07 16:15:02:331
4.5328,-8.6875,1.66,-0.168,0.0199,0.0219,-0.0132,-0.0073,-0.0018,138,2019-08-07 16:15:02:336
4.5328,-8.6875,1.66,-0.1577,0.0343,0.0298,-0.0111,-0.0019,-0.0061,143,2019-08-07 16:15:02:341
4.4754,-8.6302,1.693,-0.1577,0.0343,0.0298,-0.0111,-0.0019,-0.0061,149,2019-08-07 16:15:02:347
4.4754,-8.6302,1.693,-0.1577,0.0343,0.0298,-0.0068,0.0236,-0.0146,152,2019-08-07 16:15:02:350
4.4132,-8.5729,1.7072,-0.1577,0.0343,0.0298,-0.0068,0.0236,-0.0146,158,2019-08-07 16:15:02:356
4.4132,-8.5729,1.7072,-0.1359,-0.1172,-0.0742,-0.009,0.0364,-0.0157,163,2019-08-07 16:15:02:361
4.4132,-8.5729,1.7072,-0.1359,-0.1172,-0.0742,-0.009,0.0364,-0.0157,168,2019-08-07 16:15:02:366
4.4227,-8.53,1.7072,-0.1359,-0.1172,-0.0742,-0.009,0.0364,-0.0157,173,2019-08-07 16:15:02:371
4.4227,-8.53,1.7072,-0.1359,-0.1172,-0.0742,-0.0058,0.0279,-0.0146,178,2019-08-07 16:15:02:376
4.4562,-8.5873,1.7449,-0.1477,-0.1013,-0.0725,-0.0058,0.0279,-0.0146,183,2019-08-07 16:15:02:381
4.4562,-8.5873,1.7449,-0.1477,-0.1013,-0.0725,-0.0026,0.0172,-0.0135,188,2019-08-07 16:15:02:386
4.4562,-8.5873,1.7449,-0.1477,-0.1013,-0.0725,-0.0026,0.0172,-0.0135,193,2019-08-07 16:15:02:391
4.4467,-8.5491,1.7449,-0.1477,-0.1013,-0.0725,-0.0026,-0.003,-0.0061,198,2019-08-07 16:15:02:396
4.4467,-8.5491,1.7449,-0.1976,-0.0949,-0.0104,-0.0026,-0.003,-0.0061,202,2019-08-07 16:15:02:400
4.5615,-8.4966,1.6836,-0.1976,-0.0949,-0.0104,6.0E-4,-0.0083,-7.0E-4,208,2019-08-07 16:15:02:406
4.5615,-8.4966,1.6836,-0.1976,-0.0949,-0.0104,6.0E-4,-0.0083,-7.0E-4,213,2019-08-07 16:15:02:411
4.5615,-8.4966,1.6836,-0.1976,-0.0949,-0.0104,0.0028,-0.0062,0.0046,218,2019-08-07 16:15:02:416
4.5758,-8.5634,1.6317,-0.2625,-0.0845,0.0549,0.0028,-0.0062,0.0046,223,2019-08-07 16:15:02:421
4.5758,-8.5634,1.6317,-0.2625,-0.0845,0.0549,6.0E-4,0.0194,0.0131,228,2019-08-07 16:15:02:426
4.461,-8.5873,1.6412,-0.2625,-0.0845,0.0549,6.0E-4,0.0194,0.0131,233,2019-08-07 16:15:02:431
4.461,-8.5873,1.6412,-0.2625,-0.0845,0.0549,6.0E-4,0.0194,0.0131,237,2019-08-07 16:15:02:435
4.461,-8.5873,1.6412,-0.1012,-0.061,-0.0281,-0.0047,0.0428,0.0131,243,2019-08-07 16:15:02:441
4.351,-8.5873,1.7072,-0.1012,-0.061,-0.0281,-0.0047,0.0428,0.0131,248,2019-08-07 16:15:02:446
4.351,-8.5873,1.7072,-0.1012,-0.061,-0.0281,-0.0122,0.0556,0.0088,252,2019-08-07 16:15:02:450
4.351,-8.5873,1.7072,-0.1012,-0.061,-0.0281,-0.0122,0.0556,0.0088,258,2019-08-07 16:15:02:456
4.3175,-8.5586,1.627,0.0297,-0.0812,0.1108,-0.0281,0.063,0.0024,264,2019-08-07 16:15:02:462
4.3175,-8.5586,1.627,0.0297,-0.0812,0.1108,-0.0281,0.063,0.0024,267,2019-08-07 16:15:02:465
4.2314,-8.5729,1.759,0.0297,-0.0812,0.1108,-0.0281,0.063,0.0024,273,2019-08-07 16:15:02:471
4.2314,-8.5729,1.759,0.0297,-0.0812,0.1108,-0.0356,0.0322,-0.0103,278,2019-08-07 16:15:02:476
4.2314,-8.5729,1.759,0.0771,-0.0722,0.01,-0.0356,0.0322,-0.0103,283,2019-08-07 16:15:02:481
4.2218,-8.5825,1.7496,0.0771,-0.0722,0.01,-0.0356,0.0151,-0.0135,288,2019-08-07 16:15:02:486
4.2218,-8.5825,1.7496,0.0771,-0.0722,0.01,-0.0356,0.0151,-0.0135,292,2019-08-07 16:15:02:490
4.3557,-8.6064,1.5328,0.0771,-0.0722,0.01,-0.0313,-0.0222,-0.0135,299,2019-08-07 16:15:02:497
4.3557,-8.6064,1.5328,-0.1261,-0.0145,0.0881,-0.0313,-0.0222,-0.0135,302,2019-08-07 16:15:02:500
4.3557,-8.6064,1.5328,-0.1261,-0.0145,0.0881,-0.0186,-0.0467,-0.0231,308,2019-08-07 16:15:02:506
4.5621,-8.6398,1.6083,-0.1261,-0.0145,0.0881,-0.0186,-0.0467,-0.0231,313,2019-08-07 16:15:02:511
4.5621,-8.6398,1.6083,-0.1261,-0.0145,0.0881,-4.0E-4,-0.0445,-0.0199,317,2019-08-07 16:15:02:515
4.5908,-8.721,1.5753,-0.2724,0.0735,0.1002,-4.0E-4,-0.0445,-0.0199,323,2019-08-07 16:15:02:521
4.5908,-8.721,1.5753,-0.2724,0.0735,0.1002,0.0081,-0.02,-0.0157,327,2019-08-07 16:15:02:525
4.5908,-8.721,1.5753,-0.2724,0.0735,0.1002,0.0081,-0.02,-0.0157,333,2019-08-07 16:15:02:531
4.6148,-8.6494,1.5989,-0.2724,0.0735,0.1002,0.0113,0.0045,-0.0071,338,2019-08-07 16:15:02:536
4.6148,-8.6494,1.5989,-0.2823,-8.0E-4,0.0574,0.0113,0.0045,-0.0071,343,2019-08-07 16:15:02:541
4.5334,-8.6733,1.679,-0.2823,-8.0E-4,0.0574,0.0049,0.0268,-0.0029,347,2019-08-07 16:15:02:545
4.5334,-8.6733,1.679,-0.2823,-8.0E-4,0.0574,0.0049,0.0268,-0.0029,353,2019-08-07 16:15:02:551
4.5334,-8.6733,1.679,-0.2823,-8.0E-4,0.0574,0.0049,0.0268,-0.0029,357,2019-08-07 16:15:02:555
4.4043,-8.6112,1.8157,-0.0332,-0.0333,-0.0945,-0.0047,0.0407,-7.0E-4,363,2019-08-07 16:15:02:561
4.4043,-8.6112,1.8157,-0.0332,-0.0333,-0.0945,-0.0047,0.0407,-7.0E-4,368,2019-08-07 16:15:02:566
4.4043,-8.6112,1.8157,-0.0332,-0.0333,-0.0945,-0.0111,0.0279,0.0046,373,2019-08-07 16:15:02:571
4.3708,-8.5635,1.7969,-0.0332,-0.0333,-0.0945,-0.0111,0.0279,0.0046,378,2019-08-07 16:15:02:576
4.3708,-8.5635,1.7969,-0.0332,-0.0333,-0.0945,-0.0175,0.0077,-0.0018,383,2019-08-07 16:15:02:581
4.3995,-8.5921,1.745,-0.0293,-0.0813,-0.207,-0.0175,0.0077,-0.0018,388,2019-08-07 16:15:02:586
4.3995,-8.5921,1.745,-0.0293,-0.0813,-0.207,-0.0143,0.0087,-7.0E-4,392,2019-08-07 16:15:02:590
4.3995,-8.5921,1.745,-0.0293,-0.0813,-0.207,-0.0143,0.0087,-7.0E-4,398,2019-08-07 16:15:02:596
4.5191,-8.5444,1.6979,-0.0293,-0.0813,-0.207,-0.0111,0.0087,-0.0039,402,2019-08-07 16:15:02:600
4.5191,-8.5444,1.6979,-0.1577,-0.0955,-0.0669,-0.0111,0.0087,-0.0039,408,2019-08-07 16:15:02:606
4.5191,-8.5444,1.6979,-0.1577,-0.0955,-0.0669,-0.0122,0.0194,-0.0082,413,2019-08-07 16:15:02:611
4.4617,-8.5491,1.6225,-0.1577,-0.0955,-0.0669,-0.0122,0.0194,-0.0082,418,2019-08-07 16:15:02:616
4.4617,-8.5491,1.6225,-0.1577,-0.0955,-0.0669,-4.0E-4,0.0322,-0.0135,423,2019-08-07 16:15:02:621
4.4569,-8.5396,1.679,-0.0837,-0.1182,0.0089,-4.0E-4,0.0322,-0.0135,428,2019-08-07 16:15:02:626
4.4569,-8.5396,1.679,-0.0837,-0.1182,0.0089,0.0038,0.0162,-0.0146,433,2019-08-07 16:15:02:631
4.4569,-8.6017,1.6932,-0.0837,-0.1182,0.0089,0.0038,0.0162,-0.0146,438,2019-08-07 16:15:02:636
4.457,-8.6017,1.6932,-0.0837,-0.1182,0.0089,0.0049,-0.0041,-0.0135,443,2019-08-07 16:15:02:641
4.457,-8.6017,1.6932,-0.0857,-0.0306,-0.0225,0.0049,-0.0041,-0.0135,448,2019-08-07 16:15:02:646
4.4809,-8.6303,1.6696,-0.0857,-0.0306,-0.0225,0.0049,-0.0041,-0.0135,453,2019-08-07 16:15:02:651
4.4809,-8.6303,1.6696,-0.0857,-0.0306,-0.0225,0.0091,-0.0158,-0.0071,458,2019-08-07 16:15:02:656
4.4809,-8.6303,1.6696,-0.0857,-0.0306,-0.0225,0.0091,-0.0158,-0.0071,463,2019-08-07 16:15:02:661
4.5431,-8.6446,1.5848,-0.2112,0.0046,0.0948,0.0038,-0.0254,-0.0114,468,2019-08-07 16:15:02:666
4.5431,-8.6446,1.5848,-0.2112,0.0046,0.0948,0.0038,-0.0254,-0.0114,473,2019-08-07 16:15:02:671
4.5622,-8.6494,1.6555,-0.2112,0.0046,0.0948,6.0E-4,-0.0264,-0.0029,478,2019-08-07 16:15:02:676
4.5622,-8.6494,1.6555,-0.2112,0.0046,0.0948,6.0E-4,-0.0264,-0.0029,482,2019-08-07 16:15:02:680
4.5622,-8.6494,1.6555,-0.3326,0.0535,0.0648,0.0113,0.014,0.0067,488,2019-08-07 16:15:02:686
4.5622,-8.6589,1.5895,-0.3326,0.0535,0.0648,0.0113,0.014,0.0067,493,2019-08-07 16:15:02:691
4.5622,-8.6589,1.5895,-0.3326,0.0535,0.0648,0.007,0.0343,0.0025,497,2019-08-07 16:15:02:695
4.4809,-8.5396,1.6413,-0.3326,0.0535,0.0648,0.007,0.0343,0.0025,502,2019-08-07 16:15:02:700
4.4809,-8.5396,1.6413,-0.1077,-0.1224,-0.026,0.0102,0.0407,0.0046,508,2019-08-07 16:15:02:706
4.4809,-8.5396,1.6413,-0.1077,-0.1224,-0.026,0.0102,0.0407,0.0046,513,2019-08-07 16:15:02:711
4.3948,-8.573,1.7026,-0.1077,-0.1224,-0.026,0.0102,0.0354,0.0088,518,2019-08-07 16:15:02:716
4.3948,-8.573,1.7026,-0.1077,-0.1224,-0.026,0.0102,0.0354,0.0088,523,2019-08-07 16:15:02:721
4.3948,-8.573,1.7026,-0.0378,-0.065,-0.0773,0.0102,0.0354,0.0088,528,2019-08-07 16:15:02:726
4.3422,-8.5969,1.8016,-0.0378,-0.065,-0.0773,0.0123,0.0226,0.0067,533,2019-08-07 16:15:02:731
4.3422,-8.5969,1.8016,-0.0378,-0.065,-0.0773,0.0123,0.0226,0.0067,539,2019-08-07 16:15:02:737
4.4092,-8.5301,1.6932,-0.0378,-0.065,-0.0773,0.0177,2.0E-4,0.0046,543,2019-08-07 16:15:02:741
4.4092,-8.5301,1.6932,-0.1006,-0.1122,0.0541,0.0177,2.0E-4,0.0046,548,2019-08-07 16:15:02:746
4.4379,-8.511,1.6319,-0.1006,-0.1122,0.0541,0.0113,-0.0073,-0.0018,552,2019-08-07 16:15:02:750
4.4379,-8.511,1.6319,-0.1006,-0.1122,0.0541,0.0113,-0.0073,-0.0018,558,2019-08-07 16:15:02:756
4.4379,-8.511,1.6319,-0.1006,-0.1122,0.0541,0.0028,-0.0041,-0.0029,563,2019-08-07 16:15:02:761
4.414,-8.5873,1.6743,-0.0804,-0.0495,0.0172,0.0028,-0.0041,-0.0029,568,2019-08-07 16:15:02:766
4.414,-8.5873,1.6743,-0.0804,-0.0495,0.0172,0.0028,-0.0041,-0.0029,573,2019-08-07 16:15:02:771
4.414,-8.5873,1.6743,-0.0804,-0.0495,0.0172,-4.0E-4,0.0045,-0.0061,578,2019-08-07 16:15:02:776
4.3614,-8.678,1.6131,-0.0804,-0.0495,0.0172,-4.0E-4,0.0045,-0.0061,583,2019-08-07 16:15:02:781
4.3614,-8.678,1.6131,-0.036,-0.0059,0.012,-0.0068,0.013,-0.0135,588,2019-08-07 16:15:02:786
4.3996,-8.6685,1.6555,-0.036,-0.0059,0.012,-0.0068,0.013,-0.0135,593,2019-08-07 16:15:02:791
4.3996,-8.6685,1.6555,-0.036,-0.0059,0.012,-0.0079,-9.0E-4,-0.0178,598,2019-08-07 16:15:02:796
4.3996,-8.6685,1.6555,-0.036,-0.0059,0.012,-0.0079,-9.0E-4,-0.0178,603,2019-08-07 16:15:02:801
4.3996,-8.6971,1.6649,-0.0807,0.0669,0.0153,-0.0036,-0.0051,-0.021,608,2019-08-07 16:15:02:806
4.3996,-8.6971,1.6649,-0.0807,0.0669,0.0153,-0.0036,-0.0051,-0.021,614,2019-08-07 16:15:02:812
4.4762,-8.6303,1.6791,-0.0807,0.0669,0.0153,-0.0036,-0.0051,-0.021,618,2019-08-07 16:15:02:816
4.4762,-8.6303,1.6791,-0.0807,0.0669,0.0153,0.007,-0.0254,-0.0125,623,2019-08-07 16:15:02:821
4.4762,-8.6303,1.6791,-0.2106,-0.0363,0.0751,0.007,-0.0254,-0.0125,628,2019-08-07 16:15:02:826
4.5719,-8.6064,1.6036,-0.2106,-0.0363,0.0751,0.0155,-0.0211,3.0E-4,632,2019-08-07 16:15:02:830
4.5719,-8.6064,1.6036,-0.2106,-0.0363,0.0751,0.0155,-0.0211,3.0E-4,638,2019-08-07 16:15:02:836
4.6054,-8.5683,1.6319,-0.2106,-0.0363,0.0751,0.0262,0.0023,0.0035,642,2019-08-07 16:15:02:840
4.6054,-8.5683,1.6319,-0.1803,-0.0444,-0.0163,0.0262,0.0023,0.0035,648,2019-08-07 16:15:02:846
4.6054,-8.5683,1.6319,-0.1803,-0.0444,-0.0163,0.0454,0.0236,0.0099,653,2019-08-07 16:15:02:851
4.4284,-8.5826,1.6744,-0.1803,-0.0444,-0.0163,0.0454,0.0236,0.0099,659,2019-08-07 16:15:02:857
4.4284,-8.5826,1.6744,-0.1803,-0.0444,-0.0163,0.0475,0.029,0.0163,662,2019-08-07 16:15:02:860
4.2849,-8.5205,1.6979,0.0564,-0.1105,0.0033,0.0475,0.029,0.0163,668,2019-08-07 16:15:02:866
4.2849,-8.5205,1.6979,0.0564,-0.1105,0.0033,0.0326,0.0247,0.0099,674,2019-08-07 16:15:02:872
4.2849,-8.5205,1.6979,0.0564,-0.1105,0.0033,0.0326,0.0247,0.0099,678,2019-08-07 16:15:02:876
4.237,-8.5396,1.7404,0.0564,-0.1105,0.0033,0.0326,0.0247,0.0099,682,2019-08-07 16:15:02:880
4.237,-8.5396,1.7404,0.1504,-0.0718,-0.0838,0.0145,0.0119,-0.0103,688,2019-08-07 16:15:02:886
4.237,-8.5396,1.7404,0.1504,-0.0718,-0.0838,0.0145,0.0119,-0.0103,692,2019-08-07 16:15:02:890
4.1605,-8.5492,1.8111,0.1504,-0.0718,-0.0838,-4.0E-4,-0.0073,-0.0178,698,2019-08-07 16:15:02:896
4.1605,-8.5492,1.8111,0.1504,-0.0718,-0.0838,-4.0E-4,-0.0073,-0.0178,702,2019-08-07 16:15:02:900
4.2227,-8.5205,1.7922,0.1339,-0.0897,-0.0657,-0.0154,-0.036,-0.0231,708,2019-08-07 16:15:02:906
4.2227,-8.5205,1.7922,0.1339,-0.0897,-0.0657,-0.0154,-0.036,-0.0231,713,2019-08-07 16:15:02:911
4.2227,-8.5205,1.7922,0.1339,-0.0897,-0.0657,-0.0154,-0.036,-0.0231,718,2019-08-07 16:15:02:916
4.3997,-8.5396,1.6508,0.1339,-0.0897,-0.0657,-0.0239,-0.0563,-0.0316,722,2019-08-07 16:15:02:920
4.3997,-8.5396,1.6508,0.1339,-0.0897,-0.0657,-0.0239,-0.0563,-0.0316,728,2019-08-07 16:15:02:926
4.5193,-8.6351,1.5754,-0.1554,-0.0877,0.072,-0.0207,-0.0573,-0.0284,732,2019-08-07 16:15:02:930
4.5193,-8.6351,1.5754,-0.1554,-0.0877,0.072,-0.009,-0.0392,-0.0199,738,2019-08-07 16:15:02:936
4.5193,-8.6351,1.5754,-0.1554,-0.0877,0.072,-0.009,-0.0392,-0.0199,743,2019-08-07 16:15:02:941
4.5863,-8.7115,1.5,-0.2685,0.1101,0.1362,0.0145,-0.0094,-0.0135,748,2019-08-07 16:15:02:946
4.5863,-8.7115,1.5,-0.2685,0.1101,0.1362,0.0145,-0.0094,-0.0135,753,2019-08-07 16:15:02:951
4.5863,-8.7449,1.6272,-0.2685,0.1101,0.1362,0.04,2.0E-4,-0.0061,759,2019-08-07 16:15:02:957
4.5863,-8.7449,1.6272,-0.2685,0.1101,0.1362,0.04,2.0E-4,-0.0061,763,2019-08-07 16:15:02:961
4.5863,-8.7449,1.6272,-0.2685,0.1101,0.1362,0.04,2.0E-4,-0.0061,767,2019-08-07 16:15:02:965
4.5194,-8.8642,1.5188,-0.1372,0.2028,0.1741,0.0443,0.029,-0.0039,773,2019-08-07 16:15:02:971
4.5194,-8.8642,1.5188,-0.1372,0.2028,0.1741,0.0443,0.029,-0.0039,777,2019-08-07 16:15:02:975
4.5194,-8.8642,1.5188,-0.1372,0.2028,0.1741,0.0443,0.0481,-0.0189,783,2019-08-07 16:15:02:981
4.2562,-8.9215,1.6225,-0.1372,0.2028,0.1741,0.0443,0.0481,-0.0189,787,2019-08-07 16:15:02:985
4.2562,-8.9215,1.6225,0.2843,0.2625,-0.0366,0.0379,0.0428,-0.0423,793,2019-08-07 16:15:02:991
3.9548,-8.8833,1.7357,0.2843,0.2625,-0.0366,0.0379,0.0428,-0.0423,797,2019-08-07 16:15:02:995
3.9548,-8.8833,1.7357,0.2843,0.2625,-0.0366,0.0155,-0.0158,-0.0593,803,2019-08-07 16:15:03:001
3.9548,-8.8833,1.7357,0.2843,0.2625,-0.0366,0.0155,-0.0158,-0.0593,808,2019-08-07 16:15:03:006
3.8926,-8.8308,1.8205,0.4718,0.2139,-0.1072,0.0028,-0.0701,-0.0647,813,2019-08-07 16:15:03:011
3.8926,-8.8308,1.8205,0.4718,0.2139,-0.1072,0.0028,-0.0701,-0.0647,818,2019-08-07 16:15:03:016
3.9214,-8.8022,1.8676,0.4718,0.2139,-0.1072,0.0028,-0.0701,-0.0647,823,2019-08-07 16:15:03:021
3.9214,-8.8022,1.8676,0.4718,0.2139,-0.1072,-4.0E-4,-0.1511,-0.0604,828,2019-08-07 16:15:03:026
3.9214,-8.8022,1.8676,0.4065,0.1797,-0.0685,-4.0E-4,-0.1511,-0.0604,833,2019-08-07 16:15:03:031
4.0362,-8.7306,1.7828,0.4065,0.1797,-0.0685,0.0059,-0.2086,-0.0412,837,2019-08-07 16:15:03:035
4.0362,-8.7306,1.7828,0.4065,0.1797,-0.0685,0.0059,-0.2086,-0.0412,843,2019-08-07 16:15:03:041
4.328,-8.7926,1.5565,0.4065,0.1797,-0.0685,0.0241,-0.2086,-0.0146,848,2019-08-07 16:15:03:046
4.328,-8.7926,1.5565,0.0208,0.2253,0.1888,0.0241,-0.2086,-0.0146,852,2019-08-07 16:15:03:050
4.328,-8.7926,1.5565,0.0208,0.2253,0.1888,0.0422,-0.1724,0.0227,858,2019-08-07 16:15:03:056
4.3998,-8.9549,1.3633,0.0208,0.2253,0.1888,0.0422,-0.1724,0.0227,863,2019-08-07 16:15:03:061
4.3998,-8.9549,1.3633,0.0208,0.2253,0.1888,0.0773,-0.1095,0.0547,868,2019-08-07 16:15:03:066
4.3998,-8.9549,1.3633,0.1305,0.4813,0.2275,0.0773,-0.1095,0.0547,873,2019-08-07 16:15:03:071
4.2084,-9.1268,1.4387,0.1305,0.4813,0.2275,0.1178,-0.0445,0.0728,879,2019-08-07 16:15:03:077
4.2084,-9.1268,1.4387,0.1305,0.4813,0.2275,0.1178,-0.0445,0.0728,883,2019-08-07 16:15:03:081
3.687,-9.27,1.4104,0.1305,0.4813,0.2275,0.1178,-0.0445,0.0728,888,2019-08-07 16:15:03:086
3.687,-9.27,1.4104,0.7556,0.7101,0.3464,0.1604,0.0087,0.076,893,2019-08-07 16:15:03:091
3.687,-9.27,1.4104,0.7556,0.7101,0.3464,0.1604,0.0087,0.076,897,2019-08-07 16:15:03:095
3.3042,-9.5851,1.4717,0.7556,0.7101,0.3464,0.1902,0.0503,0.0642,903,2019-08-07 16:15:03:101
3.3042,-9.5851,1.4717,0.7556,0.7101,0.3464,0.1902,0.0503,0.0642,907,2019-08-07 16:15:03:105
2.8258,-10.0816,1.764,1.4362,1.3119,0.0331,0.2499,0.0897,0.0472,914,2019-08-07 16:15:03:112
2.8258,-10.0816,1.764,1.4362,1.3119,0.0331,0.2499,0.0897,0.0472,918,2019-08-07 16:15:03:116
2.8258,-10.0816,1.764,1.4362,1.3119,0.0331,0.3213,0.1131,0.0323,923,2019-08-07 16:15:03:121
2.2374,-10.5733,2.0138,1.4362,1.3119,0.0331,0.3213,0.1131,0.0323,928,2019-08-07 16:15:03:126
2.2374,-10.5733,2.0138,2.2281,2.1042,-0.3037,0.3916,0.0854,0.0227,933,2019-08-07 16:15:03:131
1.8786,-11.0888,2.1976,2.2281,2.1042,-0.3037,0.3916,0.0854,0.0227,938,2019-08-07 16:15:03:136
1.8786,-11.0888,2.1976,2.2281,2.1042,-0.3037,0.4597,0.0215,0.0174,942,2019-08-07 16:15:03:140
1.8786,-11.0888,2.1976,2.2281,2.1042,-0.3037,0.4597,0.0215,0.0174,948,2019-08-07 16:15:03:146
1.5628,-11.8049,2.339,2.7337,3.188,-0.4615,0.4597,0.0215,0.0174,953,2019-08-07 16:15:03:151
1.5628,-11.8049,2.339,2.7337,3.188,-0.4615,0.5364,-0.0584,0.0184,957,2019-08-07 16:15:03:155
1.5628,-11.8049,2.339,2.7337,3.188,-0.4615,0.5364,-0.0584,0.0184,963,2019-08-07 16:15:03:161
1.6346,-13.1034,1.797,2.7337,3.188,-0.4615,0.5918,-0.0115,0.0248,968,2019-08-07 16:15:03:166
1.6346,-13.1034,1.797,2.3866,5.8887,0.5772,0.5918,-0.0115,0.0248,973,2019-08-07 16:15:03:171
2.1178,-15.5237,1.2077,2.3866,5.8887,0.5772,0.7037,0.4817,0.0014,978,2019-08-07 16:15:03:176
2.1178,-15.5237,1.2077,2.3866,5.8887,0.5772,0.7037,0.4817,0.0014,983,2019-08-07 16:15:03:181
2.1178,-15.5237,1.2077,2.3866,5.8887,0.5772,1.0371,1.9251,-0.1754,988,2019-08-07 16:15:03:186
1.8164,-18.3212,0.1236,2.744,10.1626,2.5679,1.0371,1.9251,-0.1754,993,2019-08-07 16:15:03:191
1.8164,-18.3212,0.1236,2.744,10.1626,2.5679,1.378,3.882,-0.3533,997,2019-08-07 16:15:03:195
1.8164,-18.3212,0.1236,2.744,10.1626,2.5679,1.378,3.882,-0.3533,1002,2019-08-07 16:15:03:200
-1.6282,-19.6053,-2.1626,2.744,10.1626,2.5679,1.7008,6.0509,-0.4407,1008,2019-08-07 16:15:03:206
-1.6282,-19.6053,-2.1626,8.2196,10.9356,6.0421,1.7008,6.0509,-0.4407,1013,2019-08-07 16:15:03:211
-6.1015,-18.8606,-3.3788,8.2196,10.9356,6.0421,1.9053,7.6978,-0.4418,1017,2019-08-07 16:15:03:215
-6.1015,-18.8606,-3.3788,8.2196,10.9356,6.0421,1.9053,7.6978,-0.4418,1023,2019-08-07 16:15:03:221
-6.1015,-18.8606,-3.3788,11.5662,10.266,6.7551,2.1642,8.4935,-0.4173,1027,2019-08-07 16:15:03:225
-10.2494,-19.0325,-3.7889,11.5662,10.266,6.7551,2.1642,8.4935,-0.4173,1033,2019-08-07 16:15:03:231
-10.2494,-19.0325,-3.7889,11.5662,10.266,6.7551,2.471,8.86,-0.4599,1037,2019-08-07 16:15:03:235
-12.7085,-21.935,-2.0165,15.8574,13.6747,6.2695,2.471,8.86,-0.4599,1043,2019-08-07 16:15:03:241
-12.7085,-21.935,-2.0165,15.8574,13.6747,6.2695,2.471,8.86,-0.4599,1047,2019-08-07 16:15:03:245
-12.7085,-21.935,-2.0165,15.8574,13.6747,6.2695,2.9887,8.4456,-0.7976,1053,2019-08-07 16:15:03:251
-11.5938,-29.5015,-0.9088,15.8574,13.6747,6.2695,2.9887,8.4456,-0.7976,1058,2019-08-07 16:15:03:256
-11.5938,-29.5015,-0.9088,13.1553,25.4972,9.5896,2.8949,6.8956,-1.3387,1063,2019-08-07 16:15:03:261
-10.5652,-33.86,-6.0515,13.1553,25.4972,9.5896,2.8949,6.8956,-1.3387,1068,2019-08-07 16:15:03:266
-10.5652,-33.86,-6.0515,13.1553,25.4972,9.5896,2.0885,5.2424,-1.8383,1073,2019-08-07 16:15:03:271
-9.0103,-30.7618,-7.8569,12.3738,24.5226,14.3575,2.0885,5.2424,-1.8383,1078,2019-08-07 16:15:03:276
-9.0103,-30.7618,-7.8569,12.3738,24.5226,14.3575,1.4387,4.1004,-2.0588,1083,2019-08-07 16:15:03:281
-9.0103,-30.7618,-7.8569,12.3738,24.5226,14.3575,1.4387,4.1004,-2.0588,1088,2019-08-07 16:15:03:286
-5.8718,-27.7829,-2.6906,12.3738,24.5226,14.3575,1.7104,3.1736,-2.2282,1093,2019-08-07 16:15:03:291
-5.8718,-27.7829,-2.6906,7.5057,20.027,8.0232,1.7104,3.1736,-2.2282,1099,2019-08-07 16:15:03:297
-5.8718,-27.7829,-2.6906,7.5057,20.027,8.0232,1.7104,3.1736,-2.2282,1103,2019-08-07 16:15:03:301
-3.8146,-26.6038,-1.4838,7.5057,20.027,8.0232,3.2433,3.1726,-2.3209,1108,2019-08-07 16:15:03:306
-3.8146,-26.6038,-1.4838,3.4801,16.3207,5.9451,5.051,4.0301,-2.3433,1113,2019-08-07 16:15:03:311
-0.7718,-22.4553,0.6232,3.4801,16.3207,5.9451,5.051,4.0301,-2.3433,1118,2019-08-07 16:15:03:316
-0.7718,-22.4553,0.6232,3.4801,16.3207,5.9451,5.051,4.0301,-2.3433,1123,2019-08-07 16:15:03:321
-0.7718,-22.4553,0.6232,0.6658,12.8656,6.6585,7.0228,5.1891,-2.5265,1128,2019-08-07 16:15:03:326
2.515,-17.8629,-0.2865,0.6658,12.8656,6.6585,7.0228,5.1891,-2.5265,1133,2019-08-07 16:15:03:331
2.515,-17.8629,-0.2865,0.6658,12.8656,6.6585,8.6122,6.0317,-3.0197,1139,2019-08-07 16:15:03:337
2.515,-17.8629,-0.2865,0.6658,12.8656,6.6585,8.6122,6.0317,-3.0197,1142,2019-08-07 16:15:03:340
3.8976,-11.1939,-1.5922,-2.525,5.8223,9.6853,9.8223,6.5889,-3.7462,1149,2019-08-07 16:15:03:347
3.8976,-11.1939,-1.5922,-2.525,5.8223,9.6853,9.8223,6.5889,-3.7462,1153,2019-08-07 16:15:03:351
3.8976,-11.1939,-1.5922,-2.525,5.8223,9.6853,10.7481,7.0437,-4.2788,1158,2019-08-07 16:15:03:356
-1.3507,-1.756,-6.1034,-2.525,5.8223,9.6853,10.7481,7.0437,-4.2788,1163,2019-08-07 16:15:03:361
-1.3507,-1.756,-6.1034,6.172,-12.9413,14.6432,11.7537,7.2387,-3.8708,1168,2019-08-07 16:15:03:366
-5.8335,36.9931,11.7431,6.172,-12.9413,14.6432,11.7537,7.2387,-3.8708,1173,2019-08-07 16:15:03:371
-5.8335,36.9931,11.7431,6.172,-12.9413,14.6432,14.6075,3.9619,-3.269,1178,2019-08-07 16:15:03:376
-5.8335,36.9931,11.7431,6.172,-12.9413,14.6432,14.6075,3.9619,-3.269,1183,2019-08-07 16:15:03:381
-10.6416,120.6113,-30.2192,10.3728,-121.4586,39.9888,14.6075,3.9619,-3.269,1188,2019-08-07 16:15:03:386
-10.6416,120.6113,-30.2192,10.3728,-121.4586,39.9888,9.6072,-1.8118,-4.3108,1193,2019-08-07 16:15:03:391
-14.9666,61.5353,-54.0758,17.9106,-69.9378,54.7774,9.6072,-1.8118,-4.3108,1199,2019-08-07 16:15:03:397
-14.9666,61.5353,-54.0758,17.9106,-69.9378,54.7774,9.6072,-1.8118,-4.3108,1202,2019-08-07 16:15:03:400
-14.9666,61.5353,-54.0758,17.9106,-69.9378,54.7774,0.5854,-5.2995,-1.7883,1208,2019-08-07 16:15:03:406
3.2949,36.1194,3.4327,17.9106,-69.9378,54.7774,0.5854,-5.2995,-1.7883,1213,2019-08-07 16:15:03:411
3.2949,36.1194,3.4327,-2.3275,-32.2892,-5.9936,-4.1198,-13.176,1.1519,1217,2019-08-07 16:15:03:415
3.2949,36.1194,3.4327,-2.3275,-32.2892,-5.9936,-4.1198,-13.176,1.1519,1223,2019-08-07 16:15:03:421
17.9921,9.8061,-3.2656,-2.3275,-32.2892,-5.9936,-5.2671,-7.2202,1.2552,1228,2019-08-07 16:15:03:426
17.9921,9.8061,-3.2656,-2.3275,-32.2892,-5.9936,-5.2671,-7.2202,1.2552,1233,2019-08-07 16:15:03:431
14.9349,6.4788,17.7438,-17.5887,-3.2666,-26.4809,-2.7893,-5.9504,0.5021,1238,2019-08-07 16:15:03:436
14.9349,6.4788,17.7438,-17.5887,-3.2666,-26.4809,-2.7893,-5.9504,0.5021,1243,2019-08-07 16:15:03:441
14.9349,6.4788,17.7438,-17.5887,-3.2666,-26.4809,-1.071,-3.496,2.4259,1248,2019-08-07 16:15:03:446
1.5582,30.6248,1.3209,-17.5887,-3.2666,-26.4809,-1.071,-3.496,2.4259,1252,2019-08-07 16:15:03:450
1.5582,30.6248,1.3209,2.6906,-32.9983,14.8655,-1.7698,-1.3676,5.9828,1258,2019-08-07 16:15:03:456
1.5582,30.6248,1.3209,2.6906,-32.9983,14.8655,-1.7698,-1.3676,5.9828,1263,2019-08-07 16:15:03:461
8.7346,27.8989,-15.9646,2.6906,-32.9983,14.8655,-5.2021,0.1035,7.0257,1268,2019-08-07 16:15:03:466
8.7346,27.8989,-15.9646,2.6906,-32.9983,14.8655,-5.2021,0.1035,7.0257,1273,2019-08-07 16:15:03:471
11.1937,26.7914,-3.7417,-8.0099,-28.5616,12.8503,-5.2021,0.1035,7.0257,1278,2019-08-07 16:15:03:476
11.1937,26.7914,-3.7417,-8.0099,-28.5616,12.8503,-6.5188,1.3829,6.1575,1284,2019-08-07 16:15:03:482
11.1937,26.7914,-3.7417,-8.0099,-28.5616,12.8503,-6.5188,1.3829,6.1575,1287,2019-08-07 16:15:03:485
8.3758,18.5947,13.1243,-8.0099,-28.5616,12.8503,-7.0514,-1.75,4.2252,1293,2019-08-07 16:15:03:491
8.3758,18.5947,13.1243,-0.117,-21.5675,-3.8667,-7.0514,-1.75,4.2252,1298,2019-08-07 16:15:03:496
-0.3267,15.8737,15.2502,-0.117,-21.5675,-3.8667,-5.7092,-2.4243,3.7287,1303,2019-08-07 16:15:03:501
-0.3267,15.8737,15.2502,-0.117,-21.5675,-3.8667,-5.7092,-2.4243,3.7287,1308,2019-08-07 16:15:03:506
-0.3267,15.8737,15.2502,4.0489,-19.1698,-6.059,-4.2338,-3.4608,4.0856,1313,2019-08-07 16:15:03:511
-2.8672,13.5966,8.5755,4.0489,-19.1698,-6.059,-4.2338,-3.4608,4.0856,1318,2019-08-07 16:15:03:516
-2.8672,13.5966,8.5755,4.0489,-19.1698,-6.059,-4.2498,-4.6348,4.63,1323,2019-08-07 16:15:03:521
-2.9102,8.4886,1.5377,6.197,-13.2765,6.3685,-4.2498,-4.6348,4.63,1328,2019-08-07 16:15:03:526
-2.9102,8.4886,1.5377,6.197,-13.2765,6.3685,-4.9315,-5.684,4.9048,1333,2019-08-07 16:15:03:531
-2.9102,8.4886,1.5377,6.197,-13.2765,6.3685,-4.9315,-5.684,4.9048,1337,2019-08-07 16:15:03:535
0.7162,1.2705,2.325,6.197,-13.2765,6.3685,-5.6293,-7.1467,4.6172,1343,2019-08-07 16:15:03:541
0.7162,1.2705,2.325,1.926,-3.7286,3.1055,-5.6293,-7.1467,4.6172,1348,2019-08-07 16:15:03:546
0.7162,1.2705,2.325,1.926,-3.7286,3.1055,-5.6293,-7.1467,4.6172,1353,2019-08-07 16:15:03:551
2.118,-4.7779,6.0064,1.926,-3.7286,3.1055,-5.7316,-8.6892,3.8331,1358,2019-08-07 16:15:03:556
2.118,-4.7779,6.0064,1.926,-3.7286,3.1055,-5.7316,-8.6892,3.8331,1363,2019-08-07 16:15:03:561
1.8453,-9.9909,-1.4932,2.4586,3.0952,6.9852,-5.3268,-8.8372,3.3037,1368,2019-08-07 16:15:03:566
1.8453,-9.9909,-1.4932,2.4586,3.0952,6.9852,-5.3268,-8.8372,3.3037,1373,2019-08-07 16:15:03:571
1.8453,-9.9909,-1.4932,2.4586,3.0952,6.9852,-5.0977,-8.0575,2.9884,1378,2019-08-07 16:15:03:576
4.1083,-16.4928,-2.1956,0.3985,9.1781,6.9305,-5.0977,-8.0575,2.9884,1384,2019-08-07 16:15:03:582
4.1083,-16.4928,-2.1956,0.3985,9.1781,6.9305,-4.057,-5.9227,2.3269,1387,2019-08-07 16:15:03:585
1.5727,-27.7686,-0.8663,0.3985,9.1781,6.9305,-4.057,-5.9227,2.3269,1393,2019-08-07 16:15:03:591
1.5727,-27.7686,-0.8663,3.7027,22.6361,1.0396,-3.2889,-5.0151,2.6049,1398,2019-08-07 16:15:03:596
1.5727,-27.7686,-0.8663,3.7027,22.6361,1.0396,-3.2889,-5.0151,2.6049,1403,2019-08-07 16:15:03:601
-0.0923,-23.8207,7.9155,3.7027,22.6361,1.0396,-1.7549,-4.6923,2.8499,1408,2019-08-07 16:15:03:606
-0.0923,-23.8207,7.9155,3.7027,22.6361,1.0396,-1.7549,-4.6923,2.8499,1413,2019-08-07 16:15:03:611
2.4817,-14.5785,9.6785,1.9527,6.2733,-6.9226,-1.7549,-4.6923,2.8499,1418,2019-08-07 16:15:03:616
2.4817,-14.5785,9.6785,1.9527,6.2733,-6.9226,0.856,-4.0585,2.2342,1423,2019-08-07 16:15:03:621
2.4817,-14.5785,9.6785,1.9527,6.2733,-6.9226,0.856,-4.0585,2.2342,1427,2019-08-07 16:15:03:625
1.9985,-13.0605,-1.7666,2.3523,4.679,4.4231,0.79,-3.4065,1.6238,1433,2019-08-07 16:15:03:631
1.9985,-13.0605,-1.7666,2.3523,4.679,4.4231,0.79,-3.4065,1.6238,1438,2019-08-07 16:15:03:636
-0.4558,-11.0411,1.1465,2.3523,4.679,4.4231,-0.6098,-2.9953,1.2414,1443,2019-08-07 16:15:03:641
-0.4558,-11.0411,1.1465,2.3523,4.679,4.4231,-0.6098,-2.9953,1.2414,1449,2019-08-07 16:15:03:647
-0.4558,-11.0411,1.1465,6.6638,3.0625,4.466,-0.6098,-2.9953,1.2414,1452,2019-08-07 16:15:03:650
-3.4077,-14.2587,-2.073,6.6638,3.0625,4.466,-2.6444,-1.5657,1.3404,1458,2019-08-07 16:15:03:656
-3.4077,-14.2587,-2.073,6.6638,3.0625,4.466,-3.6117,-1.1588,1.3926,1463,2019-08-07 16:15:03:661
-3.4077,-14.2587,-2.073,10.3183,12.0434,-4.4954,-3.6117,-1.1588,1.3926,1468,2019-08-07 16:15:03:666
-7.436,-22.3837,4.6253,10.3183,12.0434,-4.4954,-3.6117,-1.1588,1.3926,1473,2019-08-07 16:15:03:671
-7.436,-22.3837,4.6253,10.3183,12.0434,-4.4954,-3.4135,-1.5253,1.5833,1478,2019-08-07 16:15:03:676
-7.436,-22.3837,4.6253,10.3183,12.0434,-4.4954,-3.4135,-1.5253,1.5833,1483,2019-08-07 16:15:03:681
-8.3259,-30.2796,-0.0696,10.3183,12.0434,-4.4954,-2.3984,-0.8382,1.5162,1488,2019-08-07 16:15:03:686
-8.3259,-30.2796,-0.0696,8.8282,21.3086,-5.2425,-2.3984,-0.8382,1.5162,1493,2019-08-07 16:15:03:691
-2.1686,-27.7447,9.6691,8.8282,21.3086,-5.2425,-0.3051,-0.2597,0.4712,1498,2019-08-07 16:15:03:696
-2.1686,-27.7447,9.6691,8.8282,21.3086,-5.2425,-0.3051,-0.2597,0.4712,1503,2019-08-07 16:15:03:701
-2.6853,-19.2712,7.2509,8.8282,21.3086,-5.2425,1.9575,0.3134,-0.7528,1508,2019-08-07 16:15:03:706
-2.6853,-19.2712,7.2509,7.0462,8.9778,-5.4443,1.9575,0.3134,-0.7528,1513,2019-08-07 16:15:03:711
-2.6853,-19.2712,7.2509,7.0462,8.9778,-5.4443,1.9575,0.3134,-0.7528,1518,2019-08-07 16:15:03:716
-5.6802,-14.0725,-5.6555,7.0462,8.9778,-5.4443,2.7884,1.6141,-0.952,1523,2019-08-07 16:15:03:721
-5.6802,-14.0725,-5.6555,7.0462,8.9778,-5.4443,2.7884,1.6141,-0.952,1528,2019-08-07 16:15:03:726
-4.8668,-10.9075,-2.3134,8.5975,1.9683,3.8653,1.2076,1.7909,-0.7102,1533,2019-08-07 16:15:03:731
-4.8668,-10.9075,-2.3134,8.5975,1.9683,3.8653,1.2076,1.7909,-0.7102,1537,2019-08-07 16:15:03:735
-4.8668,-10.9075,-2.3134,8.5975,1.9683,3.8653,-0.1783,1.1475,-0.4822,1544,2019-08-07 16:15:03:742
-3.9339,-7.4512,7.661,8.5975,1.9683,3.8653,-0.1783,1.1475,-0.4822,1548,2019-08-07 16:15:03:746
-3.9339,-7.4512,7.661,6.3667,-0.9602,-5.6318,-0.1783,1.1475,-0.4822,1553,2019-08-07 16:15:03:751
-0.9055,-8.8643,4.7714,6.3667,-0.9602,-5.6318,0.1327,-0.02,-0.3448,1558,2019-08-07 16:15:03:756
-0.9055,-8.8643,4.7714,6.3667,-0.9602,-5.6318,0.1327,-0.02,-0.3448,1563,2019-08-07 16:15:03:761
-0.9055,-8.8643,4.7714,4.0451,0.386,-2.3529,0.3266,-0.4483,-0.3459,1567,2019-08-07 16:15:03:765
2.166,-10.4062,1.1984,4.0451,0.386,-2.3529,0.3266,-0.4483,-0.3459,1573,2019-08-07 16:15:03:771
2.166,-10.4062,1.1984,4.0451,0.386,-2.3529,0.3117,-1.2803,-0.347,1578,2019-08-07 16:15:03:776
5.0605,-10.2773,-0.5222,-1.0345,1.607,1.8681,0.3117,-1.2803,-0.347,1583,2019-08-07 16:15:03:781
5.0605,-10.2773,-0.5222,-1.0345,1.607,1.8681,-0.0516,-1.6329,-0.4237,1588,2019-08-07 16:15:03:786
5.0605,-10.2773,-0.5222,-1.0345,1.607,1.8681,-0.0516,-1.6329,-0.4237,1592,2019-08-07 16:15:03:790
6.5675,-8.8309,-0.838,-1.0345,1.607,1.8681,-0.2018,-1.603,-0.3757,1599,2019-08-07 16:15:03:797
6.5675,-8.8309,-0.838,-2.9252,-0.4432,2.6614,-0.2018,-1.603,-0.3757,1603,2019-08-07 16:15:03:801
7.0364,-7.8761,-1.7666,-2.9252,-0.4432,2.6614,-0.172,-1.1631,-0.2181,1608,2019-08-07 16:15:03:806
7.0364,-7.8761,-1.7666,-3.1844,-1.3161,3.6907,-0.172,-1.1631,-0.2181,1613,2019-08-07 16:15:03:811
7.0364,-7.8761,-1.7666,-3.1844,-1.3161,3.6907,-0.2359,-0.2608,0.0823,1619,2019-08-07 16:15:03:817
7.6679,-7.4608,-2.9073,-3.1844,-1.3161,3.6907,-0.2359,-0.2608,0.0823,1623,2019-08-07 16:15:03:821
7.6679,-7.4608,-2.9073,-3.1844,-1.3161,3.6907,-0.2359,-0.2608,0.0823,1628,2019-08-07 16:15:03:826
7.6488,-7.5897,-2.6905,-3.6083,-1.2468,4.0427,-0.4095,0.5893,0.2059,1634,2019-08-07 16:15:03:832
7.6488,-7.5897,-2.6905,-3.6083,-1.2468,4.0427,-0.4095,0.5893,0.2059,1638,2019-08-07 16:15:03:836
7.6488,-7.5897,-2.6905,-3.6083,-1.2468,4.0427,-0.5704,1.3115,0.1377,1643,2019-08-07 16:15:03:841
5.6203,-7.9716,-0.6259,-3.6083,-1.2468,4.0427,-0.5704,1.3115,0.1377,1648,2019-08-07 16:15:03:846
5.6203,-7.9716,-0.6259,0.2666,-0.6474,1.2134,-0.6002,1.6759,0.0536,1653,2019-08-07 16:15:03:851
2.8837,-8.6161,0.5809,0.2666,-0.6474,1.2134,-0.6002,1.6759,0.0536,1658,2019-08-07 16:15:03:856
2.8837,-8.6161,0.5809,0.2666,-0.6474,1.2134,-0.5895,1.6375,0.1058,1663,2019-08-07 16:15:03:861
2.8837,-8.6161,0.5809,0.2666,-0.6474,1.2134,-0.5895,1.6375,0.1058,1668,2019-08-07 16:15:03:866
1.9556,-10.1628,2.0375,1.9662,1.2744,-0.6761,-0.5256,1.2029,0.1835,1673,2019-08-07 16:15:03:871
1.9556,-10.1628,2.0375,1.9662,1.2744,-0.6761,-0.5256,1.2029,0.1835,1678,2019-08-07 16:15:03:876
2.19,-10.6974,2.226,1.9662,1.2744,-0.6761,-0.4553,1.0154,0.1825,1683,2019-08-07 16:15:03:881
2.19,-10.6974,2.226,1.9662,1.2744,-0.6761,-0.4553,1.0154,0.1825,1688,2019-08-07 16:15:03:886
2.19,-10.6974,2.226,1.5377,1.3695,-1.0722,-0.2327,0.6884,0.1111,1693,2019-08-07 16:15:03:891
2.3335,-9.8763,2.3439,1.5377,1.3695,-1.0722,-0.2327,0.6884,0.1111,1698,2019-08-07 16:15:03:896
2.3335,-9.8763,2.3439,1.5377,1.3695,-1.0722,-0.0622,0.3571,0.0951,1703,2019-08-07 16:15:03:901
2.3335,-9.8763,2.3439,1.5377,1.3695,-1.0722,-0.0622,0.3571,0.0951,1708,2019-08-07 16:15:03:906
2.9124,-9.1889,1.6226,0.8334,0.1099,-0.2789,-0.0526,0.2218,0.1079,1713,2019-08-07 16:15:03:911
2.9124,-9.1889,1.6226,0.8334,0.1099,-0.2789,-0.0526,0.2218,0.1079,1718,2019-08-07 16:15:03:916
2.9124,-9.1889,1.6226,0.8334,0.1099,-0.2789,-0.0526,0.2218,0.1079,1723,2019-08-07 16:15:03:921
3.2952,-8.7306,1.6462,0.8334,0.1099,-0.2789,-0.1208,0.0961,0.0919,1728,2019-08-07 16:15:03:926
3.2952,-8.7306,1.6462,0.1978,-0.1304,-0.3861,-0.1208,0.0961,0.0919,1733,2019-08-07 16:15:03:931
3.8406,-8.8834,1.6226,0.1978,-0.1304,-0.3861,-0.1847,-0.035,0.0589,1737,2019-08-07 16:15:03:935
3.8406,-8.8834,1.6226,0.1978,-0.1304,-0.3861,-0.1847,-0.035,0.0589,1743,2019-08-07 16:15:03:941
3.8406,-8.8834,1.6226,0.1978,-0.1304,-0.3861,-0.1986,-0.084,0.0344,1748,2019-08-07 16:15:03:946
4.3908,-9.3274,1.2455,-0.6647,0.3863,0.2311,-0.1986,-0.084,0.0344,1753,2019-08-07 16:15:03:951
4.3908,-9.3274,1.2455,-0.6647,0.3863,0.2311,-0.1794,-0.0882,0.012,1758,2019-08-07 16:15:03:956
4.3908,-9.3274,1.2455,-0.6647,0.3863,0.2311,-0.1794,-0.0882,0.012,1763,2019-08-07 16:15:03:961
4.6539,-9.4228,1.0758,-0.6647,0.3863,0.2311,-0.1198,-0.0371,0.0088,1768,2019-08-07 16:15:03:966
4.6539,-9.4228,1.0758,-0.6647,0.3863,0.2311,-0.1198,-0.0371,0.0088,1773,2019-08-07 16:15:03:971
4.9458,-9.3226,1.1418,-1.1433,0.4068,0.1434,-0.0569,0.0215,0.0291,1778,2019-08-07 16:15:03:976
4.9458,-9.3226,1.1418,-1.1433,0.4068,0.1434,-0.0569,0.0215,0.0291,1783,2019-08-07 16:15:03:981
4.9458,-9.3226,1.1418,-1.1433,0.4068,0.1434,-0.0569,0.0215,0.0291,1788,2019-08-07 16:15:03:986
5.0558,-9.0314,0.8779,-1.1433,0.4068,0.1434,-0.0388,0.1429,0.0344,1793,2019-08-07 16:15:03:991
5.0558,-9.0314,0.8779,-1.2625,-0.0762,0.3246,-0.0388,0.1429,0.0344,1799,2019-08-07 16:15:03:997
5.0558,-9.0314,0.8779,-1.2625,-0.0762,0.3246,-0.0388,0.1429,0.0344,1802,2019-08-07 16:15:04:000
4.7688,-8.6017,1.1843,-1.2625,-0.0762,0.3246,-0.0463,0.2899,0.011,1808,2019-08-07 16:15:04:006
4.7688,-8.6017,1.1843,-1.2625,-0.0762,0.3246,-0.0463,0.2899,0.011,1813,2019-08-07 16:15:04:011
4.5152,-8.4203,1.4294,-0.7954,-0.4809,-0.0352,-0.0431,0.389,-0.005,1819,2019-08-07 16:15:04:017
4.5152,-8.4203,1.4294,-0.7954,-0.4809,-0.0352,-0.0431,0.389,-0.005,1823,2019-08-07 16:15:04:021
4.5152,-8.4203,1.4294,-0.7954,-0.4809,-0.0352,-0.0388,0.437,-0.022,1829,2019-08-07 16:15:04:027
3.9363,-8.3583,1.519,-0.7954,-0.4809,-0.0352,-0.0388,0.437,-0.022,1833,2019-08-07 16:15:04:031
3.9363,-8.3583,1.519,0.019,-0.5499,-0.3137,-0.0186,0.4636,-0.0444,1838,2019-08-07 16:15:04:036
3.611,-8.4729,1.8254,0.019,-0.5499,-0.3137,-0.0186,0.4636,-0.0444,1844,2019-08-07 16:15:04:042
3.611,-8.4729,1.8254,0.019,-0.5499,-0.3137,0.0198,0.3901,-0.0796,1848,2019-08-07 16:15:04:046
3.611,-8.4729,1.8254,0.019,-0.5499,-0.3137,0.0198,0.3901,-0.0796,1853,2019-08-07 16:15:04:051
3.2761,-8.4824,2.0375,0.5082,-0.4624,-0.6569,0.0464,0.2804,-0.1158,1857,2019-08-07 16:15:04:055
3.2761,-8.4824,2.0375,0.5082,-0.4624,-0.6569,0.0464,0.2804,-0.1158,1864,2019-08-07 16:15:04:062
3.4627,-8.4729,2.1742,0.5082,-0.4624,-0.6569,0.0592,0.0758,-0.1477,1868,2019-08-07 16:15:04:066
3.4627,-8.4729,2.1742,0.5082,-0.4624,-0.6569,0.0592,0.0758,-0.1477,1873,2019-08-07 16:15:04:071
3.4627,-8.4729,2.1742,0.0636,-0.4402,-0.5253,0.0592,0.0758,-0.1477,1878,2019-08-07 16:15:04:076
3.9794,-8.5588,1.6651,0.0636,-0.4402,-0.5253,0.0422,-9.0E-4,-0.1712,1883,2019-08-07 16:15:04:081
3.9794,-8.5588,1.6651,0.0636,-0.4402,-0.5253,0.0422,-9.0E-4,-0.1712,1888,2019-08-07 16:15:04:086
4.6014,-8.7784,1.7028,0.0636,-0.4402,-0.5253,0.0091,0.0268,-0.1733,1893,2019-08-07 16:15:04:091
4.6014,-8.7784,1.7028,-0.8491,-0.1043,-0.2956,0.0091,0.0268,-0.1733,1898,2019-08-07 16:15:04:096
4.6014,-8.7784,1.7028,-0.8491,-0.1043,-0.2956,6.0E-4,0.1642,-0.1733,1903,2019-08-07 16:15:04:101
4.8789,-8.9216,1.4624,-0.8491,-0.1043,-0.2956,6.0E-4,0.1642,-0.1733,1908,2019-08-07 16:15:04:106
4.8789,-8.9216,1.4624,-0.8491,-0.1043,-0.2956,-0.01,0.3624,-0.1946,1913,2019-08-07 16:15:04:111
4.8789,-8.9216,1.4624,-1.0362,0.0509,-0.0025,-0.01,0.3624,-0.1946,1918,2019-08-07 16:15:04:116
4.721,-8.7832,1.4813,-1.0362,0.0509,-0.0025,-0.01,0.3624,-0.1946,1923,2019-08-07 16:15:04:121
4.721,-8.7832,1.4813,-1.0362,0.0509,-0.0025,-0.0399,0.4519,-0.1967,1928,2019-08-07 16:15:04:126
4.2713,-8.8166,1.6038,-1.0362,0.0509,-0.0025,-0.0399,0.4519,-0.1967,1933,2019-08-07 16:15:04:131
4.2713,-8.8166,1.6038,-0.2695,-0.0288,-0.171,-0.0526,0.4902,-0.1541,1938,2019-08-07 16:15:04:136
4.2713,-8.8166,1.6038,-0.2695,-0.0288,-0.171,-0.0526,0.4902,-0.1541,1943,2019-08-07 16:15:04:141
3.7881,-8.8786,2.0233,-0.2695,-0.0288,-0.171,-0.0356,0.4018,-0.1339,1949,2019-08-07 16:15:04:147
3.7881,-8.8786,2.0233,-0.2695,-0.0288,-0.171,-0.0356,0.4018,-0.1339,1953,2019-08-07 16:15:04:151
3.7881,-8.8786,2.0233,0.3689,-0.0809,-0.7259,-0.0143,0.2058,-0.1179,1958,2019-08-07 16:15:04:156
3.5154,-8.7545,2.1978,0.3689,-0.0809,-0.7259,-0.0143,0.2058,-0.1179,1964,2019-08-07 16:15:04:162
3.5154,-8.7545,2.1978,0.3689,-0.0809,-0.7259,0.0027,-0.1511,-0.0838,1968,2019-08-07 16:15:04:166
3.5154,-8.7545,2.1978,0.3689,-0.0809,-0.7259,0.0027,-0.1511,-0.0838,1973,2019-08-07 16:15:04:171
3.9508,-8.7068,1.9102,-0.1548,-0.1399,-0.3237,0.0027,-0.1511,-0.0838,1978,2019-08-07 16:15:04:176
3.9508,-8.7068,1.9102,-0.1548,-0.1399,-0.3237,0.0294,-0.3151,-0.0497,1983,2019-08-07 16:15:04:181
3.9508,-8.7068,1.9102,-0.1548,-0.1399,-0.3237,0.0294,-0.3151,-0.0497,1988,2019-08-07 16:15:04:186
4.747,-8.7351,1.4383,-0.1548,-0.1399,-0.3237,0.0325,-0.3075,-0.0199,1993,2019-08-07 16:15:04:191
4.747,-8.7351,1.4383,-1.0158,-0.2199,0.223,0.0325,-0.3075,-0.0199,1998,2019-08-07 16:15:04:196
4.747,-8.7351,1.4383,-1.0158,-0.2199,0.223,0.0325,-0.3075,-0.0199,2003,2019-08-07 16:15:04:201
5.101,-8.5919,1.1083,-1.0158,-0.2199,0.223,0.0282,-0.2159,0.028,2009,2019-08-07 16:15:04:207
5.101,-8.5919,1.1083,-1.0158,-0.2199,0.223,0.0271,-0.0998,0.0557,2013,2019-08-07 16:15:04:211
5.2732,-8.6683,1.2356,-1.3178,-0.1895,0.2241,0.0271,-0.0998,0.0557,2018,2019-08-07 16:15:04:216
5.2732,-8.6683,1.2356,-1.3178,-0.1895,0.2241,0.0271,-0.0998,0.0557,2023,2019-08-07 16:15:04:221
5.2732,-8.6683,1.2356,-1.3178,-0.1895,0.2241,0.0303,0.076,0.076,2028,2019-08-07 16:15:04:226
5.0866,-8.6874,1.1271,-1.1344,-0.1713,0.3359,0.0303,0.076,0.076,2033,2019-08-07 16:15:04:231
5.0866,-8.6874,1.1271,-1.1344,-0.1713,0.3359,0.0261,0.2997,0.0781,2037,2019-08-07 16:15:04:235
4.4025,-8.4153,1.5797,-1.1344,-0.1713,0.3359,0.0261,0.2997,0.0781,2043,2019-08-07 16:15:04:241
4.4025,-8.4153,1.5797,-0.2998,-0.4179,-0.1469,0.0175,0.3306,0.0898,2049,2019-08-07 16:15:04:247
4.4025,-8.4153,1.5797,-0.2998,-0.4179,-0.1469,0.0175,0.3306,0.0898,2053,2019-08-07 16:15:04:251
4.0915,-8.4392,1.7399,-0.2998,-0.4179,-0.1469,0.0026,0.3082,0.0813,2058,2019-08-07 16:15:04:256
4.0915,-8.4392,1.7399,-0.2998,-0.4179,-0.1469,0.0026,0.3082,0.0813,2064,2019-08-07 16:15:04:262
3.7135,-8.4344,1.8059,0.1992,-0.4327,-0.2891,0.0026,0.3082,0.0813,2068,2019-08-07 16:15:04:266
3.7135,-8.4344,1.8059,0.1992,-0.4327,-0.2891,-0.0229,0.19,0.0557,2073,2019-08-07 16:15:04:271
3.7135,-8.4344,1.8059,0.1992,-0.4327,-0.2891,-0.0229,0.19,0.0557,2078,2019-08-07 16:15:04:276
3.5078,-8.5251,1.9473,0.1992,-0.4327,-0.2891,-0.0315,0.0536,0.0472,2083,2019-08-07 16:15:04:281
3.5078,-8.5251,1.9473,0.195,-0.2658,-0.3908,-0.0315,0.0536,0.0472,2088,2019-08-07 16:15:04:286
3.7374,-8.6492,1.7823,0.195,-0.2658,-0.3908,-0.0421,-0.0604,0.028,2093,2019-08-07 16:15:04:291
3.7374,-8.6492,1.7823,0.195,-0.2658,-0.3908,-0.0421,-0.0604,0.028,2099,2019-08-07 16:15:04:297
3.7374,-8.6492,1.7823,0.195,-0.2658,-0.3908,-0.0538,-0.1243,0.0035,2102,2019-08-07 16:15:04:300
4.1536,-8.5967,1.5089,-0.3247,-0.2486,0.051,-0.0538,-0.1243,0.0035,2108,2019-08-07 16:15:04:306
4.1536,-8.5967,1.5089,-0.3247,-0.2486,0.051,-0.0581,-0.1243,-0.0135,2113,2019-08-07 16:15:04:311
4.1536,-8.5967,1.5089,-0.3247,-0.2486,0.051,-0.0581,-0.1243,-0.0135,2118,2019-08-07 16:15:04:316
4.4167,-8.5824,1.3628,-0.3247,-0.2486,0.051,-0.0421,-0.055,-0.0188,2123,2019-08-07 16:15:04:321
4.4167,-8.5824,1.3628,-0.3247,-0.2486,0.051,-0.0421,-0.055,-0.0188,2128,2019-08-07 16:15:04:326
4.4215,-8.6015,1.4099,-0.554,-0.2569,0.1553,-0.0421,-0.055,-0.0188,2133,2019-08-07 16:15:04:331
4.4215,-8.6015,1.4099,-0.554,-0.2569,0.1553,-0.0315,3.0E-4,-0.0348,2138,2019-08-07 16:15:04:336
4.4215,-8.6015,1.4099,-0.554,-0.2569,0.1553,-0.0315,3.0E-4,-0.0348,2144,2019-08-07 16:15:04:342
4.2875,-8.4869,1.4995,-0.2564,-0.4294,-0.1544,-0.0176,0.0451,-0.0476,2148,2019-08-07 16:15:04:346
4.2875,-8.4869,1.4995,-0.2564,-0.4294,-0.1544,-0.0176,0.0451,-0.0476,2153,2019-08-07 16:15:04:351
4.1105,-8.315,1.7635,-0.2564,-0.4294,-0.1544,-0.0091,0.0227,-0.0465,2158,2019-08-07 16:15:04:356
4.1105,-8.315,1.7635,-0.2564,-0.4294,-0.1544,-0.0091,0.0227,-0.0465,2164,2019-08-07 16:15:04:362
4.1105,-8.4487,1.6315,-0.2462,-0.4152,-0.144,-0.0261,-0.0433,-0.0274,2168,2019-08-07 16:15:04:366
4.1775,-8.4487,1.6315,-0.2462,-0.4152,-0.144,-0.0261,-0.0433,-0.0274,2174,2019-08-07 16:15:04:372
4.1775,-8.4487,1.6315,-0.2462,-0.4152,-0.144,-0.0261,-0.0433,-0.0274,2177,2019-08-07 16:15:04:375
4.3258,-8.6062,1.6786,-0.3561,-0.2801,-0.1672,-0.0485,-0.0657,-0.0316,2184,2019-08-07 16:15:04:382
4.3258,-8.6062,1.6786,-0.3561,-0.2801,-0.1672,-0.0485,-0.0657,-0.0316,2188,2019-08-07 16:15:04:386
4.3258,-8.6062,1.6786,-0.3561,-0.2801,-0.1672,-0.0538,-0.0614,-0.0348,2193,2019-08-07 16:15:04:391
4.3736,-8.7876,1.5655,-0.4317,-0.0675,-0.1376,-0.0538,-0.0614,-0.0348,2199,2019-08-07 16:15:04:397
4.3736,-8.7876,1.5655,-0.4317,-0.0675,-0.1376,-0.041,-0.0124,-0.0231,2203,2019-08-07 16:15:04:401
4.4071,-8.8354,1.5749,-0.4317,-0.0675,-0.1376,-0.041,-0.0124,-0.0231,2208,2019-08-07 16:15:04:406
4.4071,-8.8354,1.5749,-0.4183,-0.0569,-0.1272,-0.041,0.0121,-0.021,2213,2019-08-07 16:15:04:411
4.4071,-8.8354,1.5749,-0.4183,-0.0569,-0.1272,-0.041,0.0121,-0.021,2218,2019-08-07 16:15:04:416
4.2444,-8.7304,1.622,-0.4183,-0.0569,-0.1272,-0.041,0.0121,-0.021,2223,2019-08-07 16:15:04:421
4.2444,-8.7304,1.622,-0.4183,-0.0569,-0.1272,-0.0517,0.0195,3.0E-4,2227,2019-08-07 16:15:04:425
4.12,-8.7113,1.6315,-0.1905,-0.1519,-0.2032,-0.0517,0.0195,3.0E-4,2233,2019-08-07 16:15:04:431
4.12,-8.7113,1.6315,-0.1905,-0.1519,-0.2032,-0.0709,-0.0337,0.0046,2238,2019-08-07 16:15:04:436
4.12,-8.7113,1.6315,-0.1905,-0.1519,-0.2032,-0.0709,-0.0337,0.0046,2243,2019-08-07 16:15:04:441
4.2252,-8.7829,1.7446,-0.1905,-0.1519,-0.2032,-0.0773,-0.0763,-0.0103,2249,2019-08-07 16:15:04:447
4.2252,-8.7829,1.7446,-0.2833,-0.1099,-0.3632,-0.0773,-0.0763,-0.0103,2253,2019-08-07 16:15:04:451
4.2396,-8.716,1.8483,-0.2833,-0.1099,-0.3632,-0.0634,-0.0998,-0.0167,2258,2019-08-07 16:15:04:456
4.2396,-8.716,1.8483,-0.2833,-0.1099,-0.3632,-0.0634,-0.0998,-0.0167,2263,2019-08-07 16:15:04:461
4.2396,-8.716,1.8483,-0.2833,-0.1099,-0.3632,-0.0517,-0.1243,0.0153,2268,2019-08-07 16:15:04:466
4.4644,-8.7447,1.4759,-0.5014,-0.1146,-0.046,-0.0517,-0.1243,0.0153,2273,2019-08-07 16:15:04:471
4.4644,-8.7447,1.4759,-0.5014,-0.1146,-0.046,-0.0517,-0.1243,0.0153,2277,2019-08-07 16:15:04:475
4.6032,-8.7733,1.6409,-0.5014,-0.1146,-0.046,-0.0421,-0.103,0.0142,2283,2019-08-07 16:15:04:481
4.6032,-8.7733,1.6409,-0.5014,-0.1146,-0.046,-0.0421,-0.103,0.0142,2288,2019-08-07 16:15:04:486
4.6032,-8.7733,1.6409,-0.5397,-0.1384,-0.1818,-0.0133,-0.0732,0.0057,2293,2019-08-07 16:15:04:491
4.4453,-8.8115,1.5419,-0.5397,-0.1384,-0.1818,-0.0133,-0.0732,0.0057,2298,2019-08-07 16:15:04:496
4.4453,-8.8115,1.5419,-0.5397,-0.1384,-0.1818,-0.0038,-0.0529,0.0153,2303,2019-08-07 16:15:04:501
4.4979,-8.864,1.457,-0.5397,-0.1384,-0.1818,-0.0038,-0.0529,0.0153,2308,2019-08-07 16:15:04:506
4.4979,-8.864,1.457,-0.4416,0.0338,-0.1342,-0.0091,-0.022,0.0121,2313,2019-08-07 16:15:04:511
4.4979,-8.864,1.457,-0.4416,0.0338,-0.1342,-0.0091,-0.022,0.0121,2318,2019-08-07 16:15:04:516
4.3304,-8.8115,1.6927,-0.4416,0.0338,-0.1342,0.0026,-0.0391,0.0163,2323,2019-08-07 16:15:04:521
4.3304,-8.8115,1.6927,-0.4416,0.0338,-0.1342,0.0026,-0.0391,0.0163,2328,2019-08-07 16:15:04:526
4.3304,-8.8115,1.6927,-0.3596,0.0197,-0.2621,0.0026,-0.0391,0.0163,2333,2019-08-07 16:15:04:531
4.2586,-8.8831,1.7022,-0.3596,0.0197,-0.2621,0.0207,-0.0337,0.0195,2338,2019-08-07 16:15:04:536
4.2586,-8.8831,1.7022,-0.3596,0.0197,-0.2621,0.0207,-0.0337,0.0195,2343,2019-08-07 16:15:04:541
4.3734,-8.7733,1.5702,-0.3596,0.0197,-0.2621,0.0026,-0.0305,0.0185,2348,2019-08-07 16:15:04:546
4.3734,-8.7733,1.5702,-0.4743,-0.1472,-0.1671,0.0026,-0.0305,0.0185,2353,2019-08-07 16:15:04:551
4.3734,-8.7733,1.5702,-0.4743,-0.1472,-0.1671,-0.0197,-0.0156,0.0099,2358,2019-08-07 16:15:04:556
4.4356,-8.6349,1.7163,-0.4743,-0.1472,-0.1671,-0.0197,-0.0156,0.0099,2363,2019-08-07 16:15:04:561
4.4356,-8.6349,1.7163,-0.4743,-0.1472,-0.1671,-0.0197,-0.0156,0.0099,2368,2019-08-07 16:15:04:566
4.4356,-8.6349,1.7163,-0.4061,-0.2328,-0.1401,-0.007,0.0057,0.0238,2373,2019-08-07 16:15:04:571
4.4021,-8.6396,1.5183,-0.4061,-0.2328,-0.1401,-0.007,0.0057,0.0238,2378,2019-08-07 16:15:04:576
4.4021,-8.6396,1.5183,-0.4061,-0.2328,-0.1401,-0.0091,0.0376,0.0312,2383,2019-08-07 16:15:04:581
4.3782,-8.716,1.6456,-0.4061,-0.2328,-0.1401,-0.0091,0.0376,0.0312,2388,2019-08-07 16:15:04:586
4.3782,-8.716,1.6456,-0.3125,-0.2572,-0.3023,-0.007,0.0334,0.0131,2392,2019-08-07 16:15:04:590
4.3782,-8.716,1.6456,-0.3125,-0.2572,-0.3023,-0.007,0.0334,0.0131,2398,2019-08-07 16:15:04:596
4.1677,-8.5728,1.7823,-0.3125,-0.2572,-0.3023,0.0154,-0.0092,0.0227,2403,2019-08-07 16:15:04:601
4.1677,-8.5728,1.7823,-0.3125,-0.2572,-0.3023,0.0154,-0.0092,0.0227,2408,2019-08-07 16:15:04:606
4.2394,-8.6253,1.6503,-0.2757,-0.2191,-0.1902,0.0218,-0.0529,0.0387,2413,2019-08-07 16:15:04:611
4.2394,-8.6253,1.6503,-0.2757,-0.2191,-0.1902,0.0218,-0.0529,0.0387,2418,2019-08-07 16:15:04:616
4.2394,-8.6253,1.6503,-0.2757,-0.2191,-0.1902,0.0218,-0.0529,0.0387,2422,2019-08-07 16:15:04:620
4.2633,-8.6778,1.5372,-0.2963,-0.1818,-0.1207,-0.0016,-0.0763,0.0451,2428,2019-08-07 16:15:04:626
4.2633,-8.6778,1.5372,-0.2963,-0.1818,-0.1207,-0.0016,-0.0763,0.0451,2433,2019-08-07 16:15:04:631
4.1915,-8.7303,1.5183,-0.2963,-0.1818,-0.1207,-0.0187,-0.0838,0.0611,2438,2019-08-07 16:15:04:636
4.1915,-8.7303,1.5183,-0.2963,-0.1818,-0.1207,-0.0187,-0.0838,0.0611,2442,2019-08-07 16:15:04:640
4.1915,-8.7303,1.5183,-0.3024,-0.014,-0.1103,-0.0208,-0.1019,0.0632,2448,2019-08-07 16:15:04:646
4.3542,-8.864,1.4334,-0.3024,-0.014,-0.1103,-0.0208,-0.1019,0.0632,2453,2019-08-07 16:15:04:651
4.3542,-8.864,1.4334,-0.3024,-0.014,-0.1103,-0.024,-0.0753,0.0611,2458,2019-08-07 16:15:04:656
4.3733,-8.8163,1.3486,-0.4376,-0.0662,0.058,-0.024,-0.0753,0.0611,2463,2019-08-07 16:15:04:661
4.3733,-8.8163,1.3486,-0.4376,-0.0662,0.058,-0.024,0.0046,0.0525,2468,2019-08-07 16:15:04:666
4.3733,-8.8163,1.3486,-0.4376,-0.0662,0.058,-0.024,0.0046,0.0525,2472,2019-08-07 16:15:04:670
4.3637,-8.6874,1.3769,-0.4376,-0.0662,0.058,-0.0219,0.0472,0.0366,2479,2019-08-07 16:15:04:677
4.3637,-8.6874,1.3769,-0.3046,-0.2696,-0.0998,-0.0219,0.0472,0.0366,2482,2019-08-07 16:15:04:680
4.3637,-8.6874,1.3769,-0.3046,-0.2696,-0.0998,-0.0219,0.0472,0.0366,2488,2019-08-07 16:15:04:686
4.1676,-8.6444,1.4334,-0.2792,-0.1753,-0.0511,-0.0112,0.0653,0.0398,2493,2019-08-07 16:15:04:691
4.1676,-8.6444,1.4334,-0.2792,-0.1753,-0.0511,-0.0112,0.0653,0.0398,2498,2019-08-07 16:15:04:696
4.1628,-8.6778,1.556,-0.2792,-0.1753,-0.0511,-0.0133,0.0632,0.0206,2503,2019-08-07 16:15:04:701
4.1628,-8.6778,1.556,-0.2792,-0.1753,-0.0511,-0.0133,0.0632,0.0206,2507,2019-08-07 16:15:04:705
4.0001,-8.6205,1.5843,-0.057,-0.2521,-0.183,0.0048,0.0355,-0.0082,2514,2019-08-07 16:15:04:712
4.0001,-8.6205,1.5843,-0.057,-0.2521,-0.183,0.0048,0.0355,-0.0082,2518,2019-08-07 16:15:04:716
4.0001,-8.6205,1.5843,-0.057,-0.2521,-0.183,0.0048,0.0355,-0.0082,2523,2019-08-07 16:15:04:721
4.0001,-8.6396,1.5277,-0.057,-0.2521,-0.183,0.0165,-0.0252,-0.0199,2529,2019-08-07 16:15:04:727
4.0001,-8.6396,1.5277,-0.0807,-0.24,-0.1758,0.0165,-0.0252,-0.0199,2532,2019-08-07 16:15:04:730
4.0001,-8.6396,1.5277,-0.0807,-0.24,-0.1758,-0.0027,-0.104,-0.0252,2538,2019-08-07 16:15:04:736
4.1101,-8.6253,1.5796,-0.0807,-0.24,-0.1758,-0.0027,-0.104,-0.0252,2543,2019-08-07 16:15:04:741
4.1101,-8.6253,1.5796,-0.1621,-0.2146,-0.1654,-0.007,-0.1488,-0.0316,2548,2019-08-07 16:15:04:746
4.2297,-8.5871,1.5466,-0.1621,-0.2146,-0.1654,-0.007,-0.1488,-0.0316,2553,2019-08-07 16:15:04:751
4.2297,-8.5871,1.5466,-0.1621,-0.2146,-0.1654,-0.0059,-0.1935,-0.0316,2558,2019-08-07 16:15:04:756
4.2297,-8.5871,1.5466,-0.4075,-0.2492,-0.1133,-0.0059,-0.1935,-0.0316,2564,2019-08-07 16:15:04:762
4.4306,-8.6921,1.4098,-0.4075,-0.2492,-0.1133,-0.0102,-0.2212,-0.0178,2569,2019-08-07 16:15:04:767
4.4306,-8.6921,1.4098,-0.4075,-0.2492,-0.1133,-0.0102,-0.2212,-0.0178,2572,2019-08-07 16:15:04:770
4.6698,-8.7255,1.424,-0.6397,-0.1521,-0.071,-0.0102,-0.2063,-0.0156,2579,2019-08-07 16:15:04:777
4.6698,-8.7255,1.424,-0.6397,-0.1521,-0.071,-0.0102,-0.2063,-0.0156,2582,2019-08-07 16:15:04:780
4.6698,-8.7255,1.424,-0.6397,-0.1521,-0.071,0.0048,-0.1019,-0.0178,2588,2019-08-07 16:15:04:786
4.6698,-8.7255,1.424,-0.6397,-0.1521,-0.071,0.0048,-0.1019,-0.0178,2593,2019-08-07 16:15:04:791
4.7416,-8.6205,1.2213,-0.8136,-0.2722,0.1726,5.0E-4,0.0163,-0.0114,2598,2019-08-07 16:15:04:796
4.7416,-8.6205,1.2213,-0.8136,-0.2722,0.1726,5.0E-4,0.0163,-0.0114,2603,2019-08-07 16:15:04:801
4.5645,-8.5441,1.2637,-0.576,-0.3137,0.1023,-0.008,0.0653,-0.005,2608,2019-08-07 16:15:04:806
4.5645,-8.5441,1.2637,-0.576,-0.3137,0.1023,-0.008,0.0653,-0.005,2612,2019-08-07 16:15:04:810
4.5645,-8.5441,1.2637,-0.576,-0.3137,0.1023,-0.0102,0.1101,0.0035,2618,2019-08-07 16:15:04:816
4.1722,-8.6826,1.5842,-0.576,-0.3137,0.1023,-0.0102,0.1101,0.0035,2623,2019-08-07 16:15:04:821
4.1722,-8.6826,1.5842,-0.0736,-0.1312,-0.2863,-0.0027,0.0994,-0.0114,2628,2019-08-07 16:15:04:826
3.9569,-8.7064,1.6879,-0.0736,-0.1312,-0.2863,-0.0027,0.0994,-0.0114,2633,2019-08-07 16:15:04:831
3.9569,-8.7064,1.6879,-0.0736,-0.1312,-0.2863,-0.0027,0.0994,-0.0114,2638,2019-08-07 16:15:04:836
3.9569,-8.7064,1.6879,-0.0736,-0.1312,-0.2863,-0.0027,0.0568,-0.021,2643,2019-08-07 16:15:04:841
3.9904,-8.6682,1.6644,0.0195,-0.2246,-0.3266,-0.0027,0.0568,-0.021,2648,2019-08-07 16:15:04:846
3.9904,-8.6682,1.6644,0.0195,-0.2246,-0.3266,0.0037,-0.0827,-0.0295,2653,2019-08-07 16:15:04:851
4.11,-8.7112,1.5607,0.0195,-0.2246,-0.3266,0.0037,-0.0827,-0.0295,2658,2019-08-07 16:15:04:856
4.11,-8.7112,1.5607,0.0195,-0.2246,-0.3266,0.0069,-0.1126,-0.0295,2664,2019-08-07 16:15:04:862
4.11,-8.7112,1.5607,-0.3012,-0.1305,-0.0676,0.0069,-0.1126,-0.0295,2667,2019-08-07 16:15:04:865
4.3827,-8.7017,1.4381,-0.3012,-0.1305,-0.0676,5.0E-4,-0.1104,-0.0391,2673,2019-08-07 16:15:04:871
4.3827,-8.7017,1.4381,-0.4576,-0.1139,-0.0766,5.0E-4,-0.1104,-0.0391,2678,2019-08-07 16:15:04:876
4.3827,-8.673,1.4758,-0.4576,-0.1139,-0.0766,5.0E-4,-0.1104,-0.0391,2683,2019-08-07 16:15:04:881
4.3827,-8.673,1.4758,-0.4576,-0.1139,-0.0766,-0.0048,-0.1136,-0.0497,2688,2019-08-07 16:15:04:886
4.3827,-8.673,1.4758,-0.4576,-0.1139,-0.0766,-0.0048,-0.1136,-0.0497,2693,2019-08-07 16:15:04:891
4.5692,-8.6491,1.391,-0.5482,-0.1468,-0.038,0.0016,-0.1051,-0.0401,2698,2019-08-07 16:15:04:896
4.5692,-8.6491,1.391,-0.5482,-0.1468,-0.038,0.0016,-0.1051,-0.0401,2703,2019-08-07 16:15:04:901
4.6553,-8.7398,1.4805,-0.5482,-0.1468,-0.038,0.0143,-0.0487,-0.0551,2708,2019-08-07 16:15:04:906
4.6553,-8.7398,1.4805,-0.5482,-0.1468,-0.038,0.0143,-0.0487,-0.0551,2713,2019-08-07 16:15:04:911
4.6553,-8.7398,1.4805,-0.4808,-0.1928,-0.0676,0.0293,0.0046,-0.054,2718,2019-08-07 16:15:04:916
4.5118,-8.6157,1.3768,-0.4808,-0.1928,-0.0676,0.0293,0.0046,-0.054,2723,2019-08-07 16:15:04:921
4.5118,-8.6157,1.3768,-0.4808,-0.1928,-0.0676,0.0261,0.0227,-0.0476,2729,2019-08-07 16:15:04:927
4.5118,-8.6157,1.3768,-0.4808,-0.1928,-0.0676,0.0261,0.0227,-0.0476,2733,2019-08-07 16:15:04:931
4.4018,-8.611,1.5795,-0.354,-0.2197,-0.2111,0.0261,0.0227,-0.0476,2737,2019-08-07 16:15:04:935
4.4018,-8.611,1.5795,-0.354,-0.2197,-0.2111,0.025,0.0185,-0.0497,2743,2019-08-07 16:15:04:941
4.4018,-8.611,1.5795,-0.354,-0.2197,-0.2111,0.025,0.0185,-0.0497,2749,2019-08-07 16:15:04:947
4.3539,-8.5728,1.6125,-0.354,-0.2197,-0.2111,0.008,0.0046,-0.0433,2752,2019-08-07 16:15:04:950
4.3539,-8.5728,1.6125,-0.3103,-0.2333,-0.1828,0.008,0.0046,-0.0433,2758,2019-08-07 16:15:04:956
4.44,-8.6014,1.5984,-0.3103,-0.2333,-0.1828,-0.0112,-0.0188,-0.0252,2763,2019-08-07 16:15:04:961
4.44,-8.6014,1.5984,-0.3103,-0.2333,-0.1828,-0.0112,-0.0188,-0.0252,2768,2019-08-07 16:15:04:966
4.44,-8.6014,1.5984,-0.3103,-0.2333,-0.1828,-0.0144,-0.0497,-0.0167,2773,2019-08-07 16:15:04:971
4.4639,-8.6873,1.5606,-0.3838,-0.1301,-0.2382,-0.0144,-0.0497,-0.0167,2778,2019-08-07 16:15:04:976
4.4639,-8.6873,1.5606,-0.3838,-0.1301,-0.2382,-0.0155,-0.0401,-0.0167,2782,2019-08-07 16:15:04:980
4.4639,-8.6873,1.5606,-0.3838,-0.1301,-0.2382,-0.0155,-0.0401,-0.0167,2788,2019-08-07 16:15:04:986
4.4782,-8.6014,1.5182,-0.3838,-0.1301,-0.2382,-0.0304,-0.0476,-0.0082,2793,2019-08-07 16:15:04:991
4.4782,-8.6014,1.5182,-0.5253,-0.1805,-0.1036,-0.0304,-0.0476,-0.0082,2798,2019-08-07 16:15:04:996
4.4782,-8.6014,1.5182,-0.5253,-0.1805,-0.1036,-0.0304,-0.0476,-0.0082,2802,2019-08-07 16:15:05:000
4.6218,-8.6682,1.4852,-0.5253,-0.1805,-0.1036,-0.0432,-0.0391,-0.0114,2808,2019-08-07 16:15:05:006
4.6218,-8.6682,1.4852,-0.5253,-0.1805,-0.1036,-0.0432,-0.0391,-0.0114,2813,2019-08-07 16:15:05:011
4.6218,-8.6682,1.4852,-0.624,-0.0307,-0.1637,-0.0197,0.0185,-0.0114,2818,2019-08-07 16:15:05:016
4.6839,-8.7446,1.5229,-0.624,-0.0307,-0.1637,-0.0197,0.0185,-0.0114,2823,2019-08-07 16:15:05:021
4.6839,-8.7446,1.5229,-0.624,-0.0307,-0.1637,-0.008,0.0515,-0.0114,2828,2019-08-07 16:15:05:026
4.4686,-8.63,1.4145,-0.624,-0.0307,-0.1637,-0.008,0.0515,-0.0114,2833,2019-08-07 16:15:05:031
4.4686,-8.63,1.4145,-0.624,-0.0307,-0.1637,-0.008,0.0515,-0.0114,2838,2019-08-07 16:15:05:036
4.4686,-8.63,1.4145,-0.3232,-0.1907,-0.1375,-0.0048,0.0387,-0.005,2844,2019-08-07 16:15:05:042
4.4351,-8.6873,1.5559,-0.3232,-0.1907,-0.1375,-0.0048,0.0387,-0.005,2848,2019-08-07 16:15:05:046
4.4351,-8.6873,1.5559,-0.3232,-0.1907,-0.1375,0.0154,0.0185,0.0067,2852,2019-08-07 16:15:05:050
4.4255,-8.7446,1.6172,-0.3411,-0.0701,-0.2553,0.0154,0.0185,0.0067,2858,2019-08-07 16:15:05:056
4.4255,-8.7446,1.6172,-0.3411,-0.0701,-0.2553,0.0261,0.0046,-0.0018,2863,2019-08-07 16:15:05:061
4.4255,-8.7446,1.6172,-0.3411,-0.0701,-0.2553,0.0261,0.0046,-0.0018,2868,2019-08-07 16:15:05:066
4.4064,-8.6253,1.5559,-0.3411,-0.0701,-0.2553,0.0261,0.0046,-0.0018,2873,2019-08-07 16:15:05:071
4.4064,-8.6253,1.5559,-0.3138,-0.2396,-0.1656,0.025,-0.0401,-0.0018,2878,2019-08-07 16:15:05:076
4.4064,-8.6253,1.5559,-0.3138,-0.2396,-0.1656,0.025,-0.0401,-0.0018,2882,2019-08-07 16:15:05:080
4.4255,-8.6062,1.5606,-0.3138,-0.2396,-0.1656,0.0218,-0.0401,3.0E-4,2888,2019-08-07 16:15:05:086
4.4255,-8.6062,1.5606,-0.3138,-0.2396,-0.1656,0.0218,-0.0401,3.0E-4,2894,2019-08-07 16:15:05:092
4.4829,-8.568,1.4993,-0.3908,-0.2421,-0.1307,0.0101,-0.0252,-0.0092,2898,2019-08-07 16:15:05:096
4.4829,-8.568,1.4993,-0.3908,-0.2421,-0.1307,0.0101,-0.0252,-0.0092,2902,2019-08-07 16:15:05:100
4.4829,-8.568,1.4993,-0.3908,-0.2421,-0.1307,-0.0091,-0.0114,-0.0242,2908,2019-08-07 16:15:05:106
4.4638,-8.4964,1.5795,-0.3908,-0.2421,-0.1307,-0.0091,-0.0114,-0.0242,2913,2019-08-07 16:15:05:111
4.4638,-8.4964,1.5795,-0.3908,-0.2421,-0.1307,-0.0187,0.0142,-0.0295,2918,2019-08-07 16:15:05:116
4.4638,-8.4964,1.5795,-0.4355,-0.2242,-0.1596,-0.0187,0.0142,-0.0295,2923,2019-08-07 16:15:05:121
4.5212,-8.6348,1.4852,-0.4355,-0.2242,-0.1596,-0.0144,0.06,-0.038,2929,2019-08-07 16:15:05:127
4.5212,-8.6348,1.4852,-0.4355,-0.2242,-0.1596,-0.0144,0.06,-0.038,2933,2019-08-07 16:15:05:131
4.5212,-8.6348,1.4852,-0.4355,-0.2242,-0.1596,-0.0144,0.06,-0.038,2938,2019-08-07 16:15:05:136
4.392,-8.5966,1.5418,-0.2835,-0.2055,-0.1705,-0.0208,0.0771,-0.0391,2944,2019-08-07 16:15:05:142
4.392,-8.5966,1.5418,-0.2835,-0.2055,-0.1705,-0.0208,0.0771,-0.0391,2948,2019-08-07 16:15:05:146
4.392,-8.5966,1.5418,-0.2835,-0.2055,-0.1705,-0.0155,0.0749,-0.0348,2952,2019-08-07 16:15:05:150
4.3106,-8.6587,1.5936,-0.2835,-0.2055,-0.1705,-0.0155,0.0749,-0.0348,2958,2019-08-07 16:15:05:156
4.3106,-8.6587,1.5936,-0.2627,-0.1205,-0.2034,-0.0112,0.0536,-0.0359,2963,2019-08-07 16:15:05:161
4.3106,-8.6587,1.5936,-0.2627,-0.1205,-0.2034,-0.0112,0.0536,-0.0359,2968,2019-08-07 16:15:05:166
4.3919,-8.6778,1.504,-0.2627,-0.1205,-0.2034,-0.0197,0.0366,-0.0369,2973,2019-08-07 16:15:05:171
4.3919,-8.6778,1.504,-0.2627,-0.1205,-0.2034,-0.0197,0.0366,-0.0369,2978,2019-08-07 16:15:05:176
4.3776,-8.7064,1.4522,-0.2554,-0.1073,-0.0743,-0.0197,0.0366,-0.0369,2983,2019-08-07 16:15:05:181
4.3776,-8.7064,1.4522,-0.2554,-0.1073,-0.0743,-0.0251,0.0217,-0.0284,2988,2019-08-07 16:15:05:186
4.4262,-8.7017,1.4335,-0.3199,-0.0915,-0.0566,-0.0251,0.0217,-0.0284,2993,2019-08-07 16:15:05:191
4.4262,-8.7017,1.4335,-0.3199,-0.0915,-0.0566,-0.0293,0.0078,-0.0178,2998,2019-08-07 16:15:05:196
4.4262,-8.7017,1.4335,-0.3199,-0.0915,-0.0566,-0.0293,0.0078,-0.0178,3002,2019-08-07 16:15:05:200
4.5076,-8.7065,1.4335,-0.3199,-0.0915,-0.0566,-0.0325,4.0E-4,-0.0071,3008,2019-08-07 16:15:05:206
4.5076,-8.7065,1.4335,-0.2868,-0.052,-0.0848,-0.0325,4.0E-4,-0.0071,3012,2019-08-07 16:15:05:210
4.5076,-8.7065,1.4335,-0.2868,-0.052,-0.0848,-0.0304,-0.005,-7.0E-4,3018,2019-08-07 16:15:05:216
4.4932,-8.7113,1.4665,-0.2868,-0.052,-0.0848,-0.0304,-0.005,-7.0E-4,3023,2019-08-07 16:15:05:221
4.4932,-8.7113,1.4665,-0.2868,-0.052,-0.0848,-0.0176,0.0046,0.0035,3028,2019-08-07 16:15:05:226
4.4789,-8.6492,1.3769,-0.2988,-0.147,-0.0417,-0.0176,0.0046,0.0035,3033,2019-08-07 16:15:05:231
4.4789,-8.6492,1.3769,-0.2988,-0.147,-0.0417,-0.0176,0.0046,0.0035,3037,2019-08-07 16:15:05:235
4.4789,-8.6492,1.3769,-0.2791,-0.1516,-0.0284,-0.0155,0.0131,0.0089,3043,2019-08-07 16:15:05:241
4.2301,-8.5919,1.3251,-0.2791,-0.1516,-0.0284,-0.0155,0.0131,0.0089,3047,2019-08-07 16:15:05:245
4.2301,-8.5919,1.3251,-0.2791,-0.1516,-0.0284,-0.0517,-0.0859,0.0216,3053,2019-08-07 16:15:05:251
4.2301,-8.5919,1.3251,-0.2791,-0.1516,-0.0284,-0.0517,-0.0859,0.0216,3057,2019-08-07 16:15:05:255
4.2827,-8.6922,1.6786,-0.2175,-0.0578,-0.2869,-0.0038,-0.0476,0.0153,3063,2019-08-07 16:15:05:261
4.2827,-8.6922,1.6786,-0.2175,-0.0578,-0.2869,-0.0038,-0.0476,0.0153,3068,2019-08-07 16:15:05:266
4.3305,-8.6874,1.4335,-0.2175,-0.0578,-0.2869,0.0207,-0.0689,-7.0E-4,3073,2019-08-07 16:15:05:271
4.3305,-8.6874,1.4335,-0.2175,-0.0578,-0.2869,0.0207,-0.0689,-7.0E-4,3079,2019-08-07 16:15:05:277
4.3305,-8.6874,1.4335,-0.4773,-0.1042,0.1597,0.0271,-0.0092,-0.005,3082,2019-08-07 16:15:05:280
4.7611,-8.6206,1.2402,-0.4773,-0.1042,0.1597,0.0271,-0.0092,-0.005,3088,2019-08-07 16:15:05:286
4.7611,-8.6206,1.2402,-0.4773,-0.1042,0.1597,0.0101,0.0483,-0.0199,3093,2019-08-07 16:15:05:291
4.4645,-8.6396,1.3722,-0.4773,-0.1042,0.1597,0.0101,0.0483,-0.0199,3098,2019-08-07 16:15:05:296
4.4645,-8.6396,1.3722,-0.281,-0.1584,-0.0387,-0.0144,0.0525,-0.0039,3103,2019-08-07 16:15:05:301
4.4645,-8.6396,1.3722,-0.281,-0.1584,-0.0387,-0.0144,0.0525,-0.0039,3108,2019-08-07 16:15:05:306
4.4741,-8.7017,1.5796,-0.281,-0.1584,-0.0387,-0.0155,0.0653,0.0057,3113,2019-08-07 16:15:05:311
4.4741,-8.7017,1.5796,-0.281,-0.1584,-0.0387,-0.0155,0.0653,0.0057,3117,2019-08-07 16:15:05:315
4.4741,-8.7017,1.5796,-0.2521,-0.1148,-0.2657,-0.0038,0.0398,0.0025,3123,2019-08-07 16:15:05:321
4.3688,-8.7065,1.5749,-0.2521,-0.1148,-0.2657,-0.0038,0.0398,0.0025,3128,2019-08-07 16:15:05:326
4.3688,-8.7065,1.5749,-0.2521,-0.1148,-0.2657,0.009,0.0174,0.0067,3132,2019-08-07 16:15:05:330
4.3688,-8.7065,1.5749,-0.2521,-0.1148,-0.2657,0.009,0.0174,0.0067,3137,2019-08-07 16:15:05:335