ACCELEROMETER X (m/s²),ACCELEROMETER Y (m/s²),ACCELEROMETER Z (m/s²),LINEAR ACCELERATION X (m/s²),LINEAR ACCELERATION Y (m/s²),LINEAR ACCELERATION Z (m/s²),GYROSCOPE X (rad/s),GYROSCOPE Y (rad/s),GYROSCOPE Z (rad/s),Time since start in ms ,YYYY-MO-DD HH-MI-SS_SSS
-5.1994,-7.4172,2.8979,-0.1946,-0.2235,0.0736,-0.0047,0.0143,-0.0053,3,2019-08-07 16:52:49:797
-5.1994,-7.4172,2.8979,-0.1946,-0.2235,0.0736,-0.0047,0.0143,-0.0053,7,2019-08-07 16:52:49:801
-5.1994,-7.4172,2.8979,-0.1946,-0.2235,0.0736,-0.0079,-0.0123,-0.0011,13,2019-08-07 16:52:49:807
-5.0798,-7.4124,2.9215,-0.1946,-0.2235,0.0736,-0.0079,-0.0123,-0.0011,18,2019-08-07 16:52:49:812
-5.0798,-7.4124,2.9215,-0.3465,-0.2103,0.1294,-5.0E-4,-0.0262,0.0032,23,2019-08-07 16:52:49:817
-5.0798,-7.4124,2.9215,-0.3465,-0.2103,0.1294,-5.0E-4,-0.0262,0.0032,28,2019-08-07 16:52:49:822
-5.0272,-7.4506,2.9168,-0.3884,-0.1533,0.0978,0.008,-0.024,0.0085,32,2019-08-07 16:52:49:826
-5.0272,-7.4506,2.9168,-0.3884,-0.1533,0.0978,0.008,-0.024,0.0085,38,2019-08-07 16:52:49:832
-5.0272,-7.4506,2.9168,-0.3884,-0.1533,0.0978,0.008,-0.024,0.0085,43,2019-08-07 16:52:49:837
-5.0272,-7.3742,2.9733,-0.3884,-0.1533,0.0978,0.0144,0.0058,0.0117,47,2019-08-07 16:52:49:841
-5.0272,-7.3742,2.9733,-0.3356,-0.2383,0.077,0.0144,0.0058,0.0117,54,2019-08-07 16:52:49:848
-5.0272,-7.3742,2.9733,-0.3356,-0.2383,0.077,0.0123,0.0154,0.0128,57,2019-08-07 16:52:49:851
-5.0702,-7.3456,2.9733,-0.3461,-0.2566,0.0445,0.0123,0.0154,0.0128,63,2019-08-07 16:52:49:857
-5.0702,-7.3456,2.9733,-0.3461,-0.2566,0.0445,0.0198,0.0154,0.0085,68,2019-08-07 16:52:49:862
-5.0702,-7.3456,2.9733,-0.3461,-0.2566,0.0445,0.0198,0.0154,0.0085,72,2019-08-07 16:52:49:866
-5.142,-7.3217,2.978,-0.3461,-0.2566,0.0445,0.0272,0.0154,0.0074,79,2019-08-07 16:52:49:873
-5.142,-7.3217,2.978,-0.2475,-0.3022,0.037,0.0272,0.0154,0.0074,83,2019-08-07 16:52:49:877
-5.1324,-7.2835,2.9498,-0.2475,-0.3022,0.037,0.0219,0.0111,0.0106,88,2019-08-07 16:52:49:882
-5.1324,-7.2835,2.9498,-0.2475,-0.3022,0.037,0.0219,0.0111,0.0106,93,2019-08-07 16:52:49:887
-5.1324,-7.2835,2.9498,-0.2475,-0.3022,0.037,0.0166,0.0026,0.0138,98,2019-08-07 16:52:49:892
-5.1946,-7.2883,2.9545,-0.2258,-0.309,0.0682,0.0166,0.0026,0.0138,103,2019-08-07 16:52:49:897
-5.1946,-7.2883,2.9545,-0.2258,-0.309,0.0682,0.0091,-0.0112,0.0149,107,2019-08-07 16:52:49:901
-5.2376,-7.2835,2.9592,-0.1837,-0.3126,0.0648,0.0091,-0.0112,0.0149,113,2019-08-07 16:52:49:907
-5.2376,-7.2835,2.9592,-0.1837,-0.3126,0.0648,0.0091,-0.0112,0.0149,118,2019-08-07 16:52:49:912
-5.2376,-7.2835,2.9592,-0.1837,-0.3126,0.0648,0.0091,-0.0176,0.0117,123,2019-08-07 16:52:49:917
-5.252,-7.2835,2.8838,-0.1898,-0.282,0.171,0.0038,-0.0176,0.0117,130,2019-08-07 16:52:49:924
-5.252,-7.2835,2.8838,-0.1898,-0.282,0.171,0.0038,-0.0176,0.0117,133,2019-08-07 16:52:49:927
-5.252,-7.2835,2.8838,-0.1898,-0.282,0.171,0.0038,-0.0176,0.0117,138,2019-08-07 16:52:49:932
-5.185,-7.3074,2.8885,-0.1898,-0.282,0.171,6.0E-4,-0.0102,0.0043,143,2019-08-07 16:52:49:937
-5.185,-7.3074,2.8885,-0.1898,-0.282,0.171,6.0E-4,-0.0102,0.0043,148,2019-08-07 16:52:49:942
-5.1467,-7.2788,2.8791,-0.2711,-0.3199,0.2143,0.0017,0.0037,-0.0011,153,2019-08-07 16:52:49:947
-5.1467,-7.2788,2.8791,-0.2711,-0.3199,0.2143,0.0017,0.0037,-0.0011,158,2019-08-07 16:52:49:952
-5.1467,-7.2788,2.8791,-0.2711,-0.3199,0.2143,0.0038,0.0186,0.0011,163,2019-08-07 16:52:49:957
-5.1276,-7.2978,2.8838,-0.2711,-0.3199,0.2143,0.0038,0.0186,0.0011,168,2019-08-07 16:52:49:962
-5.1276,-7.2978,2.8838,-0.2526,-0.2821,0.1226,6.0E-4,0.0335,-0.0021,172,2019-08-07 16:52:49:966
-5.2041,-7.2501,2.9356,-0.2526,-0.2821,0.1226,6.0E-4,0.0335,-0.0021,178,2019-08-07 16:52:49:972
-5.2041,-7.2501,2.9356,-0.2526,-0.2821,0.1226,0.0027,0.0239,-0.0021,183,2019-08-07 16:52:49:977
-5.2041,-7.2501,2.9356,-0.2526,-0.2821,0.1226,0.0027,0.0239,-0.0021,188,2019-08-07 16:52:49:982
-5.1084,-7.3265,2.8744,-0.3159,-0.2679,0.1486,0.0059,0.0154,0.0032,194,2019-08-07 16:52:49:988
-5.1084,-7.3265,2.8744,-0.3159,-0.2679,0.1486,0.0059,0.0154,0.0032,198,2019-08-07 16:52:49:992
-5.1084,-7.3265,2.8744,-0.3159,-0.2679,0.1486,0.0059,0.0154,0.0032,203,2019-08-07 16:52:49:997
-5.1132,-7.2931,2.8744,-0.3159,-0.2679,0.1486,0.0112,0.0165,0.0064,207,2019-08-07 16:52:50:001
-5.1132,-7.2931,2.8744,-0.3364,-0.3293,0.1903,0.0112,0.0165,0.0064,213,2019-08-07 16:52:50:007
-5.0892,-7.2262,2.8838,-0.3364,-0.3293,0.1903,0.0134,0.0346,0.0138,217,2019-08-07 16:52:50:011
-5.0892,-7.2262,2.8838,-0.3364,-0.3293,0.1903,0.0134,0.0346,0.0138,223,2019-08-07 16:52:50:017
-5.0892,-7.2262,2.8838,-0.3364,-0.3293,0.1903,0.0102,0.042,0.0181,227,2019-08-07 16:52:50:021
-5.161,-7.2453,2.9262,-0.2355,-0.3557,0.122,0.0102,0.042,0.0181,233,2019-08-07 16:52:50:027
-5.161,-7.2453,2.9262,-0.2355,-0.3557,0.122,0.0112,0.0356,0.0202,238,2019-08-07 16:52:50:032
-5.161,-7.2453,2.9262,-0.2355,-0.3557,0.122,0.0112,0.0356,0.0202,243,2019-08-07 16:52:50:037
-5.1753,-7.274,2.9309,-0.2355,-0.3557,0.122,0.0134,0.0175,0.0213,249,2019-08-07 16:52:50:043
-5.1753,-7.274,2.9309,-0.2882,-0.367,0.088,0.0134,0.0175,0.0213,253,2019-08-07 16:52:50:047
-5.1562,-7.2119,2.9074,-0.2882,-0.367,0.088,0.0134,0.0175,0.0213,258,2019-08-07 16:52:50:052
-5.1562,-7.2119,2.9074,-0.2882,-0.367,0.088,0.0198,0.009,0.0288,263,2019-08-07 16:52:50:057
-5.1562,-7.2119,2.9074,-0.2882,-0.367,0.088,0.0198,0.009,0.0288,268,2019-08-07 16:52:50:062
-5.1083,-7.2501,2.8791,-0.3215,-0.3771,0.0761,0.024,0.0111,0.0298,272,2019-08-07 16:52:50:066
-5.1083,-7.2501,2.8791,-0.3215,-0.3771,0.0761,0.024,0.0111,0.0298,278,2019-08-07 16:52:50:072
-5.1418,-7.2692,2.9781,-0.3215,-0.3771,0.0761,0.0251,0.0122,0.0405,283,2019-08-07 16:52:50:077
-5.1418,-7.2692,2.9781,-0.3215,-0.3771,0.0761,0.0251,0.0122,0.0405,288,2019-08-07 16:52:50:082
-5.1418,-7.2692,2.9781,-0.3215,-0.3771,0.0761,0.0272,0.0026,0.0437,292,2019-08-07 16:52:50:086
-5.1849,-7.2549,2.9451,-0.2416,-0.2711,0.07,0.0272,0.0026,0.0437,298,2019-08-07 16:52:50:092
-5.1849,-7.2549,2.9451,-0.2416,-0.2711,0.07,0.0293,-6.0E-4,0.0437,303,2019-08-07 16:52:50:097
-5.2183,-7.2644,2.9215,-0.2416,-0.2711,0.07,0.0293,-6.0E-4,0.0437,308,2019-08-07 16:52:50:102
-5.2183,-7.2644,2.9215,-0.2576,-0.3218,0.1268,0.0325,-0.0038,0.0415,313,2019-08-07 16:52:50:107
-5.2183,-7.2644,2.9215,-0.2576,-0.3218,0.1268,0.0325,-0.0038,0.0415,317,2019-08-07 16:52:50:111
-5.1849,-7.231,2.8932,-0.2576,-0.3218,0.1268,0.0325,-0.0027,0.0405,323,2019-08-07 16:52:50:117
-5.1849,-7.231,2.8932,-0.2576,-0.3218,0.1268,0.0325,-0.0027,0.0405,328,2019-08-07 16:52:50:122
-5.1992,-7.2931,2.9262,-0.259,-0.2725,0.108,0.024,0.0058,0.0394,333,2019-08-07 16:52:50:127
-5.1992,-7.2931,2.9262,-0.259,-0.2725,0.108,0.024,0.0058,0.0394,337,2019-08-07 16:52:50:131
-5.1992,-7.2931,2.9262,-0.259,-0.2725,0.108,0.0198,0.0122,0.0362,343,2019-08-07 16:52:50:137
-5.2614,-7.274,2.8979,-0.259,-0.2725,0.108,0.0198,0.0122,0.0362,348,2019-08-07 16:52:50:142
-5.2614,-7.274,2.8979,-0.2986,-0.234,0.1614,0.0134,0.0154,0.0373,353,2019-08-07 16:52:50:147
-5.247,-7.317,2.9734,-0.2986,-0.234,0.1614,0.0134,0.0154,0.0373,358,2019-08-07 16:52:50:152
-5.247,-7.317,2.9734,-0.2986,-0.234,0.1614,0.0038,0.0165,0.0277,363,2019-08-07 16:52:50:157
-5.247,-7.317,2.9734,-0.2986,-0.234,0.1614,0.0038,0.0165,0.0277,368,2019-08-07 16:52:50:162
-5.2614,-7.3456,2.9215,-0.2986,-0.234,0.1614,0.0038,0.0165,0.0277,372,2019-08-07 16:52:50:166
-5.2614,-7.3456,2.9215,-0.1839,-0.1831,0.0757,-0.0037,5.0E-4,0.0256,378,2019-08-07 16:52:50:172
-5.2374,-7.3742,2.9639,-0.1839,-0.1831,0.0757,-0.0079,-0.0048,0.0245,383,2019-08-07 16:52:50:177
-5.2374,-7.3742,2.9639,-0.1839,-0.1831,0.0757,-0.0079,-0.0048,0.0245,388,2019-08-07 16:52:50:182
-5.2374,-7.3742,2.9639,-0.1839,-0.1831,0.0757,-0.0079,-0.0048,0.0245,393,2019-08-07 16:52:50:187
-5.1513,-7.3456,3.0017,-0.3206,-0.2101,0.0324,-0.0133,-0.0016,0.017,398,2019-08-07 16:52:50:192
-5.1513,-7.3456,3.0017,-0.3206,-0.2101,0.0324,-0.0133,-0.0016,0.017,403,2019-08-07 16:52:50:197
-5.1513,-7.3456,3.0017,-0.3206,-0.2101,0.0324,-0.0133,-0.0016,0.017,408,2019-08-07 16:52:50:202
-5.1657,-7.4268,2.9357,-0.3206,-0.2101,0.0324,-0.0218,0.0058,0.0149,413,2019-08-07 16:52:50:207
-5.1657,-7.4268,2.9357,-0.3124,-0.196,0.1095,-0.0218,0.0058,0.0149,417,2019-08-07 16:52:50:211
-5.1657,-7.4268,2.9357,-0.3124,-0.196,0.1095,-0.0207,0.0101,0.0043,423,2019-08-07 16:52:50:217
-5.1752,-7.379,2.9592,-0.3124,-0.196,0.1095,-0.0207,0.0101,0.0043,427,2019-08-07 16:52:50:221
-5.1752,-7.379,2.9592,-0.3124,-0.196,0.1095,-0.0197,0.0026,0.0,434,2019-08-07 16:52:50:228
-5.18,-7.3933,2.9545,-0.2601,-0.2069,0.1057,-0.0197,0.0026,0.0,438,2019-08-07 16:52:50:232
-5.18,-7.3933,2.9545,-0.2601,-0.2069,0.1057,-0.0207,-0.0059,0.0011,443,2019-08-07 16:52:50:237
-5.18,-7.3933,2.9545,-0.2787,-0.1839,0.0714,-0.0207,-0.0059,0.0011,447,2019-08-07 16:52:50:241
-5.1417,-7.3886,2.9074,-0.2787,-0.1839,0.0714,-0.0207,-0.0059,0.0011,453,2019-08-07 16:52:50:247
-5.1417,-7.3886,2.9074,-0.2787,-0.1839,0.0714,-0.0186,-0.0112,-0.0053,458,2019-08-07 16:52:50:252
-5.1656,-7.379,2.8744,-0.2787,-0.1839,0.0714,-0.0186,-0.0112,-0.0053,463,2019-08-07 16:52:50:257
-5.1656,-7.379,2.8744,-0.3103,-0.21,0.14,-0.0143,-0.0134,-0.0064,467,2019-08-07 16:52:50:261
-5.1656,-7.379,2.8744,-0.3103,-0.21,0.14,-0.0143,-0.0134,-0.0064,473,2019-08-07 16:52:50:267
-5.1512,-7.422,2.8697,-0.3103,-0.21,0.14,-0.0101,-0.0091,-0.0021,477,2019-08-07 16:52:50:271
-5.1512,-7.422,2.8697,-0.3103,-0.21,0.14,-0.0101,-0.0091,-0.0021,483,2019-08-07 16:52:50:277
-5.1225,-7.3838,2.8838,-0.3179,-0.145,0.1249,-0.0069,-0.008,0.0032,488,2019-08-07 16:52:50:282
-5.1225,-7.3838,2.8838,-0.3179,-0.145,0.1249,-0.0069,-0.008,0.0032,494,2019-08-07 16:52:50:288
-5.1225,-7.3838,2.8838,-0.3179,-0.145,0.1249,6.0E-4,0.0058,0.0021,498,2019-08-07 16:52:50:292
-5.1656,-7.379,2.9263,-0.3179,-0.145,0.1249,6.0E-4,0.0058,0.0021,503,2019-08-07 16:52:50:297
-5.1656,-7.379,2.9263,-0.236,-0.1885,0.1388,0.0102,0.009,0.0032,508,2019-08-07 16:52:50:302
-5.2373,-7.3361,2.9687,-0.236,-0.1885,0.1388,0.0102,0.009,0.0032,513,2019-08-07 16:52:50:307
-5.2373,-7.3361,2.9687,-0.236,-0.1885,0.1388,0.0134,-0.0016,0.0011,517,2019-08-07 16:52:50:311
-5.2373,-7.3361,2.9687,-0.236,-0.1885,0.1388,0.0134,-0.0016,0.0011,523,2019-08-07 16:52:50:317
-5.3091,-7.2931,2.898,-0.1596,-0.2687,0.1267,0.0134,-0.0016,0.0011,527,2019-08-07 16:52:50:321
-5.3091,-7.2931,2.898,-0.1596,-0.2687,0.1267,0.0155,-0.0176,-0.0032,534,2019-08-07 16:52:50:328
-5.3091,-7.2931,2.898,-0.1596,-0.2687,0.1267,0.0155,-0.0176,-0.0032,538,2019-08-07 16:52:50:332
-5.2899,-7.2836,2.8791,-0.1596,-0.2687,0.1267,0.0112,-0.0347,-0.0032,543,2019-08-07 16:52:50:337
-5.2899,-7.2836,2.8791,-0.2007,-0.2776,0.1413,0.0112,-0.0347,-0.0032,547,2019-08-07 16:52:50:341
-5.2469,-7.274,2.8791,-0.2007,-0.2776,0.1413,0.0134,-0.0315,-0.0075,553,2019-08-07 16:52:50:347
-5.2469,-7.274,2.8791,-0.2007,-0.2776,0.1413,0.0134,-0.0315,-0.0075,558,2019-08-07 16:52:50:352
-5.2469,-7.274,2.8791,-0.2007,-0.2776,0.1413,0.0134,-0.0315,-0.0053,563,2019-08-07 16:52:50:357
-5.1799,-7.2645,2.8367,-0.2836,-0.2969,0.1984,0.0134,-0.0315,-0.0053,568,2019-08-07 16:52:50:362
-5.1799,-7.2645,2.8367,-0.2836,-0.2969,0.1984,0.0123,-0.0134,-0.0064,573,2019-08-07 16:52:50:367
-5.1799,-7.2645,2.8367,-0.2836,-0.2969,0.1984,0.0123,-0.0134,-0.0064,578,2019-08-07 16:52:50:372
-5.1033,-7.2406,2.8744,-0.2836,-0.2969,0.1984,0.0123,-0.0134,-0.0064,582,2019-08-07 16:52:50:376
-5.1033,-7.2406,2.8744,-0.3818,-0.3212,0.1166,0.007,-0.0016,-0.0043,588,2019-08-07 16:52:50:382
-5.1129,-7.2788,2.8744,-0.3818,-0.3212,0.1166,0.007,-0.0016,-0.0043,593,2019-08-07 16:52:50:387
-5.1129,-7.2788,2.8744,-0.3818,-0.3212,0.1166,0.0059,0.0069,-0.0011,598,2019-08-07 16:52:50:392
-5.1129,-7.2788,2.8744,-0.3818,-0.3212,0.1166,0.0059,0.0069,-0.0011,602,2019-08-07 16:52:50:396
-5.1177,-7.2406,2.8933,-0.3335,-0.3313,0.0879,0.0016,0.0186,0.0021,608,2019-08-07 16:52:50:402
-5.1177,-7.2406,2.8933,-0.3335,-0.3313,0.0879,0.0016,0.0186,0.0021,613,2019-08-07 16:52:50:407
-5.1416,-7.2263,2.9828,-0.3335,-0.3313,0.0879,0.0016,0.0165,0.0064,618,2019-08-07 16:52:50:412
-5.1416,-7.2263,2.9828,-0.3335,-0.3313,0.0879,0.0016,0.0165,0.0064,623,2019-08-07 16:52:50:417
-5.1798,-7.2215,2.9357,-0.2872,-0.3257,0.1107,-0.0037,0.0037,0.0106,629,2019-08-07 16:52:50:423
-5.1798,-7.2215,2.9357,-0.2872,-0.3257,0.1107,-0.0037,0.0037,0.0106,633,2019-08-07 16:52:50:427
-5.1798,-7.2215,2.9357,-0.2872,-0.3257,0.1107,-0.0037,0.0037,0.0128,637,2019-08-07 16:52:50:431
-5.1798,-7.2215,2.9357,-0.2872,-0.3257,0.1107,-0.0037,0.0037,0.0128,643,2019-08-07 16:52:50:437
-5.2325,-7.212,2.9781,-0.2172,-0.3388,0.0776,-0.0079,-0.0027,0.0138,648,2019-08-07 16:52:50:442
-5.2325,-7.212,2.9781,-0.2172,-0.3388,0.0776,-0.0079,-0.0027,0.0138,653,2019-08-07 16:52:50:447
-5.2229,-7.1499,2.9263,-0.2172,-0.3388,0.0776,-0.0079,-0.0027,0.0138,657,2019-08-07 16:52:50:451
-5.2229,-7.1499,2.9263,-0.2172,-0.3388,0.0776,-0.0047,-0.007,0.016,663,2019-08-07 16:52:50:457
-5.2229,-7.1499,2.9263,-0.2768,-0.3229,0.0965,-0.0047,-0.007,0.016,667,2019-08-07 16:52:50:461
-5.1894,-7.274,2.8886,-0.2768,-0.3229,0.0965,-0.0047,-0.0017,0.0149,673,2019-08-07 16:52:50:467
-5.1894,-7.274,2.8886,-0.2768,-0.3229,0.0965,-0.0047,-0.0017,0.0149,678,2019-08-07 16:52:50:472
-5.1989,-7.2645,2.9169,-0.2768,-0.3229,0.0965,-0.0015,0.0111,0.0117,683,2019-08-07 16:52:50:477
-5.1989,-7.2645,2.9169,-0.2213,-0.2599,0.1332,-0.0015,0.0111,0.0117,688,2019-08-07 16:52:50:482
-5.1989,-7.2645,2.9169,-0.2213,-0.2599,0.1332,0.0048,0.0186,0.0085,693,2019-08-07 16:52:50:487
-5.2659,-7.2788,2.9357,-0.2213,-0.2599,0.1332,0.0048,0.0186,0.0085,698,2019-08-07 16:52:50:492
-5.2659,-7.2788,2.9357,-0.2213,-0.2599,0.1332,0.008,0.0292,0.0085,702,2019-08-07 16:52:50:496
-5.2659,-7.2788,2.9357,-0.1045,-0.3061,0.0894,0.008,0.0292,0.0085,708,2019-08-07 16:52:50:502
-5.3568,-7.2215,2.9734,-0.1045,-0.3061,0.0894,0.0144,0.0154,0.0074,713,2019-08-07 16:52:50:507
-5.3568,-7.2215,2.9734,-0.1045,-0.3061,0.0894,0.0144,0.0154,0.0074,718,2019-08-07 16:52:50:512
-5.3568,-7.2215,2.9734,-0.1045,-0.3061,0.0894,0.0134,-6.0E-4,0.0085,724,2019-08-07 16:52:50:518
-5.3807,-7.2263,2.9404,-0.1643,-0.3323,0.1053,0.0134,-6.0E-4,0.0085,728,2019-08-07 16:52:50:522
-5.3807,-7.2263,2.9404,-0.1643,-0.3323,0.1053,0.008,-0.0219,0.0128,732,2019-08-07 16:52:50:526
-5.3807,-7.2263,2.9404,-0.1643,-0.3323,0.1053,0.008,-0.0219,0.0128,738,2019-08-07 16:52:50:532
-5.218,-7.2502,3.0111,-0.1643,-0.3323,0.1053,0.008,-0.0219,0.0128,742,2019-08-07 16:52:50:536
-5.218,-7.2502,3.0111,-0.2887,-0.2682,0.068,0.0038,-0.0496,0.0149,748,2019-08-07 16:52:50:542
-5.108,-7.274,2.9404,-0.2887,-0.2682,0.068,0.0038,-0.0496,0.0149,753,2019-08-07 16:52:50:547
-5.108,-7.274,2.9404,-0.2887,-0.2682,0.068,0.0048,-0.0411,0.0181,758,2019-08-07 16:52:50:552
-5.108,-7.274,2.9404,-0.4127,-0.2625,0.0852,0.0048,-0.0411,0.0181,762,2019-08-07 16:52:50:556
-5.0075,-7.2883,2.9216,-0.4127,-0.2625,0.0852,0.008,-0.0272,0.0202,769,2019-08-07 16:52:50:563
-5.0075,-7.2883,2.9216,-0.4127,-0.2625,0.0852,0.008,-0.0272,0.0202,773,2019-08-07 16:52:50:567
-5.0697,-7.2502,2.8886,-0.4127,-0.2625,0.0852,0.0112,0.009,0.0213,778,2019-08-07 16:52:50:572
-5.0697,-7.2502,2.8886,-0.3799,-0.3084,0.0462,0.0112,0.009,0.0213,782,2019-08-07 16:52:50:576
-5.0697,-7.2502,2.8886,-0.3799,-0.3084,0.0462,0.0112,0.009,0.0213,788,2019-08-07 16:52:50:582
-5.151,-7.212,2.9593,-0.3799,-0.3084,0.0462,0.0102,0.0303,0.0224,793,2019-08-07 16:52:50:587
-5.151,-7.212,2.9593,-0.3799,-0.3084,0.0462,0.0102,0.0303,0.0224,798,2019-08-07 16:52:50:592
-5.151,-7.212,2.9593,-0.193,-0.3674,0.0269,0.0091,0.0197,0.0224,804,2019-08-07 16:52:50:598
-5.218,-7.2263,3.0112,-0.193,-0.3674,0.0269,0.0091,0.0197,0.0224,808,2019-08-07 16:52:50:602
-5.218,-7.2263,3.0112,-0.193,-0.3674,0.0269,0.0059,0.0026,0.0234,812,2019-08-07 16:52:50:606
-5.2563,-7.2549,2.9216,-0.193,-0.3674,0.0269,0.0059,0.0026,0.0234,817,2019-08-07 16:52:50:611
-5.2563,-7.2549,2.9216,-0.254,-0.2784,0.108,0.0048,-0.0176,0.0224,823,2019-08-07 16:52:50:617
-5.2563,-7.2549,2.9216,-0.254,-0.2784,0.108,0.0048,-0.0176,0.0224,828,2019-08-07 16:52:50:622
-5.261,-7.2597,2.964,-0.254,-0.2784,0.108,-0.0026,-0.0293,0.0213,833,2019-08-07 16:52:50:627
-5.261,-7.2597,2.964,-0.254,-0.2784,0.108,-0.0026,-0.0293,0.0213,838,2019-08-07 16:52:50:632
-5.261,-7.2597,2.964,-0.2551,-0.3048,0.1486,-0.0026,-0.0293,0.0213,843,2019-08-07 16:52:50:637
-5.2234,-7.2549,2.9309,-0.2551,-0.3048,0.1486,-0.0111,-0.0261,0.0234,848,2019-08-07 16:52:50:642
-5.2234,-7.2549,2.9309,-0.2551,-0.3048,0.1486,-0.0111,-0.0261,0.0234,853,2019-08-07 16:52:50:647
-5.1756,-7.2549,2.8837,-0.2551,-0.3048,0.1486,-0.0079,-0.007,0.0213,857,2019-08-07 16:52:50:651
-5.1756,-7.2549,2.8837,-0.3097,-0.2888,0.1491,-0.0079,-0.007,0.0213,863,2019-08-07 16:52:50:657
-5.1756,-7.2549,2.8837,-0.3097,-0.2888,0.1491,-0.0111,0.0079,0.0202,868,2019-08-07 16:52:50:662
-5.1421,-7.2787,2.8837,-0.3097,-0.2888,0.1491,-0.0111,0.0079,0.0202,872,2019-08-07 16:52:50:666
-5.1421,-7.2787,2.8837,-0.3097,-0.2888,0.1491,-0.0101,0.0218,0.0149,879,2019-08-07 16:52:50:673
-5.233,-7.2214,2.9026,-0.2694,-0.2785,0.0942,-0.0101,0.0218,0.0149,883,2019-08-07 16:52:50:677
-5.233,-7.2214,2.9026,-0.2694,-0.2785,0.0942,-0.0069,0.0218,0.0149,887,2019-08-07 16:52:50:681
-5.233,-7.2214,2.9026,-0.2694,-0.2785,0.0942,-0.0069,0.0218,0.0149,893,2019-08-07 16:52:50:687
-5.2474,-7.2644,2.9639,-0.2694,-0.2785,0.0942,-0.0133,0.0186,0.0138,898,2019-08-07 16:52:50:692
-5.2474,-7.2644,2.9639,-0.215,-0.2729,0.0717,-0.0133,0.0186,0.0138,903,2019-08-07 16:52:50:697
-5.3096,-7.2453,3.0063,-0.215,-0.2729,0.0717,-0.0133,0.0186,0.0138,908,2019-08-07 16:52:50:702
-5.3096,-7.2453,3.0063,-0.215,-0.2729,0.0717,-0.0069,5.0E-4,0.017,913,2019-08-07 16:52:50:707
-5.3096,-7.2453,3.0063,-0.215,-0.2729,0.0717,-0.0069,5.0E-4,0.017,918,2019-08-07 16:52:50:712
-5.2856,-7.2596,2.9733,-0.208,-0.2763,0.0707,-0.0079,-0.0123,0.0202,923,2019-08-07 16:52:50:717
-5.2856,-7.2596,2.9733,-0.208,-0.2763,0.0707,-0.0079,-0.0123,0.0202,928,2019-08-07 16:52:50:722
-5.233,-7.2453,2.912,-0.208,-0.2763,0.0707,-0.0047,-0.0166,0.0181,933,2019-08-07 16:52:50:727
-5.233,-7.2453,2.912,-0.208,-0.2763,0.0707,-0.0047,-0.0166,0.0181,938,2019-08-07 16:52:50:732
-5.233,-7.2453,2.912,-0.3197,-0.2746,0.1097,-0.0015,-0.023,0.0224,943,2019-08-07 16:52:50:737
-5.233,-7.2214,2.8885,-0.3197,-0.2746,0.1097,-0.0015,-0.023,0.0224,949,2019-08-07 16:52:50:743
-5.233,-7.2214,2.8885,-0.3197,-0.2746,0.1097,0.0017,-0.0123,0.0234,953,2019-08-07 16:52:50:747
-5.233,-7.2214,2.8885,-0.3197,-0.2746,0.1097,0.0017,-0.0123,0.0234,958,2019-08-07 16:52:50:752
-5.1995,-7.2549,2.945,-0.2789,-0.277,0.0974,0.0059,-0.0016,0.0224,963,2019-08-07 16:52:50:757
-5.1995,-7.2549,2.945,-0.2789,-0.277,0.0974,0.0059,-0.0016,0.0224,967,2019-08-07 16:52:50:761
-5.1995,-7.2549,2.945,-0.2789,-0.277,0.0974,0.0059,-0.0016,0.0224,973,2019-08-07 16:52:50:767
-5.1995,-7.2596,2.9874,-0.2789,-0.277,0.0974,0.007,0.0037,0.0224,978,2019-08-07 16:52:50:772
-5.1995,-7.2596,2.9874,-0.3156,-0.2885,0.1219,0.007,0.0037,0.0224,983,2019-08-07 16:52:50:777
-5.2378,-7.2644,2.945,-0.3156,-0.2885,0.1219,0.0048,5.0E-4,0.0266,987,2019-08-07 16:52:50:781
-5.2378,-7.2644,2.945,-0.3156,-0.2885,0.1219,0.0048,5.0E-4,0.0266,993,2019-08-07 16:52:50:787
-5.1995,-7.2358,2.945,-0.3459,-0.249,0.1411,0.0027,5.0E-4,0.0245,997,2019-08-07 16:52:50:791
-5.1995,-7.2358,2.945,-0.3459,-0.249,0.1411,0.0027,5.0E-4,0.0245,1003,2019-08-07 16:52:50:797
-5.1995,-7.2358,2.945,-0.3459,-0.249,0.1411,-5.0E-4,0.009,0.0256,1009,2019-08-07 16:52:50:803
-5.1804,-7.2644,2.8743,-0.3459,-0.249,0.1411,-5.0E-4,0.009,0.0256,1012,2019-08-07 16:52:50:806
-5.1804,-7.2644,2.8743,-0.3111,-0.2753,0.1218,0.0038,0.0143,0.0234,1018,2019-08-07 16:52:50:812
-5.2139,-7.2358,2.9403,-0.3111,-0.2753,0.1218,0.0038,0.0143,0.0234,1023,2019-08-07 16:52:50:817
-5.2139,-7.2358,2.9403,-0.3111,-0.2753,0.1218,0.0038,0.0143,0.0234,1027,2019-08-07 16:52:50:821
-5.2139,-7.2358,2.9403,-0.3111,-0.2753,0.1218,0.0048,0.0165,0.0256,1032,2019-08-07 16:52:50:826
-5.2569,-7.274,2.8743,-0.2339,-0.1965,0.0638,0.0048,0.0165,0.0256,1038,2019-08-07 16:52:50:832
-5.2569,-7.274,2.8743,-0.2339,-0.1965,0.0638,6.0E-4,0.0175,0.0192,1043,2019-08-07 16:52:50:837
-5.3383,-7.231,2.912,-0.2339,-0.1965,0.0638,6.0E-4,0.0175,0.0192,1048,2019-08-07 16:52:50:842
-5.3383,-7.231,2.912,-0.214,-0.2707,0.1844,-5.0E-4,0.0079,0.0181,1053,2019-08-07 16:52:50:847
-5.3383,-7.231,2.912,-0.214,-0.2707,0.1844,-5.0E-4,0.0079,0.0181,1057,2019-08-07 16:52:50:851
-5.2952,-7.2787,2.9309,-0.214,-0.2707,0.1844,-0.0037,-0.0048,0.0149,1064,2019-08-07 16:52:50:858
-5.2952,-7.2787,2.9309,-0.214,-0.2707,0.1844,-0.0037,-0.0048,0.0149,1068,2019-08-07 16:52:50:862
-5.2952,-7.2787,2.9309,-0.2637,-0.2651,0.1739,-0.0101,-0.0016,0.0085,1073,2019-08-07 16:52:50:867
-5.2761,-7.2549,2.879,-0.2637,-0.2651,0.1739,-0.0101,-0.0016,0.0085,1077,2019-08-07 16:52:50:871
-5.2761,-7.2549,2.879,-0.2637,-0.2651,0.1739,-0.0101,-0.0016,0.0085,1083,2019-08-07 16:52:50:877
-5.2761,-7.2549,2.879,-0.2637,-0.2651,0.1739,-0.0101,0.0058,0.0085,1088,2019-08-07 16:52:50:882
-5.2282,-7.2214,2.8413,-0.2637,-0.2651,0.1739,-0.0101,0.0058,0.0085,1092,2019-08-07 16:52:50:886
-5.2282,-7.2214,2.8413,-0.322,-0.2843,0.1813,-0.0122,0.0122,0.0096,1098,2019-08-07 16:52:50:892
-5.2282,-7.2214,2.8413,-0.322,-0.2843,0.1813,-0.0122,0.0122,0.0096,1102,2019-08-07 16:52:50:896
-5.1373,-7.2787,2.8555,-0.322,-0.2843,0.1813,-0.0079,0.0239,0.0074,1108,2019-08-07 16:52:50:902
-5.1373,-7.2787,2.8555,-0.3045,-0.2467,0.2193,-0.0079,0.0239,0.0074,1113,2019-08-07 16:52:50:907
-5.1804,-7.3026,2.8743,-0.3045,-0.2467,0.2193,-0.009,0.0335,0.0096,1118,2019-08-07 16:52:50:912
-5.1804,-7.3026,2.8743,-0.3045,-0.2467,0.2193,-0.009,0.0335,0.0096,1123,2019-08-07 16:52:50:917
-5.2091,-7.2931,2.9309,-0.3045,-0.2467,0.2193,-0.0037,0.0367,0.0128,1128,2019-08-07 16:52:50:922
-5.2091,-7.2931,2.9309,-0.3045,-0.2467,0.2193,-0.0037,0.0367,0.0128,1133,2019-08-07 16:52:50:927
-5.2091,-7.2931,2.9309,-0.3123,-0.2703,0.1061,-0.0037,0.0367,0.0128,1138,2019-08-07 16:52:50:932
-5.2091,-7.2931,2.9309,-0.3123,-0.2703,0.1061,6.0E-4,0.026,0.0106,1143,2019-08-07 16:52:50:937
-5.2282,-7.2453,2.9639,-0.3123,-0.2703,0.1061,6.0E-4,0.026,0.0106,1148,2019-08-07 16:52:50:942
-5.2282,-7.2453,2.9639,-0.3123,-0.2703,0.1061,-0.0026,0.0165,0.0149,1154,2019-08-07 16:52:50:948
-5.2282,-7.2453,2.9639,-0.21,-0.2976,0.1321,-0.0026,0.0165,0.0149,1158,2019-08-07 16:52:50:952
-5.3191,-7.1976,2.9026,-0.21,-0.2976,0.1321,-0.0069,0.0079,0.0149,1163,2019-08-07 16:52:50:957
-5.3191,-7.1976,2.9026,-0.21,-0.2976,0.1321,-0.0069,0.0079,0.0149,1168,2019-08-07 16:52:50:962
-5.3191,-7.1976,2.9026,-0.21,-0.2976,0.1321,-0.0133,-6.0E-4,0.016,1172,2019-08-07 16:52:50:966
-5.2856,-7.1785,2.9262,-0.2413,-0.3394,0.1021,-0.0133,-6.0E-4,0.016,1178,2019-08-07 16:52:50:972
-5.2856,-7.1785,2.9262,-0.2413,-0.3394,0.1021,-0.0175,0.0015,0.0128,1182,2019-08-07 16:52:50:976
-5.2282,-7.231,2.8602,-0.2413,-0.3394,0.1021,-0.0175,0.0015,0.0128,1188,2019-08-07 16:52:50:982
-5.2282,-7.231,2.8602,-0.2413,-0.3394,0.1021,-0.0175,0.0015,0.0128,1193,2019-08-07 16:52:50:987
-5.2282,-7.231,2.8602,-0.3387,-0.2822,0.16,-0.0207,0.0143,0.0138,1198,2019-08-07 16:52:50:992
-5.1756,-7.2262,2.8225,-0.3387,-0.2822,0.16,-0.0207,0.0143,0.0138,1202,2019-08-07 16:52:50:996
-5.1756,-7.2262,2.8225,-0.3387,-0.2822,0.16,-0.0229,0.0452,0.0128,1208,2019-08-07 16:52:51:002
-5.2091,-7.2501,2.8413,-0.3387,-0.2822,0.16,-0.0229,0.0452,0.0128,1213,2019-08-07 16:52:51:007
-5.2091,-7.2501,2.8413,-0.2805,-0.2493,0.1705,-0.0218,0.0633,0.0117,1217,2019-08-07 16:52:51:011
-5.2091,-7.2501,2.8413,-0.2805,-0.2493,0.1705,-0.0218,0.0633,0.0117,1223,2019-08-07 16:52:51:017
-5.2282,-7.2453,2.8413,-0.2805,-0.2493,0.1705,-0.0207,0.074,0.017,1228,2019-08-07 16:52:51:022
-5.2282,-7.2453,2.8413,-0.2805,-0.2493,0.1705,-0.0207,0.074,0.017,1233,2019-08-07 16:52:51:027
-5.2282,-7.2453,2.8413,-0.2101,-0.2778,0.1216,-0.0186,0.0719,0.0138,1237,2019-08-07 16:52:51:031
-5.4004,-7.188,2.945,-0.2101,-0.2778,0.1216,-0.0186,0.0719,0.0138,1243,2019-08-07 16:52:51:037
-5.4004,-7.188,2.945,-0.1224,-0.3108,0.0226,-0.0122,0.0548,0.016,1248,2019-08-07 16:52:51:042
-5.4004,-7.188,2.945,-0.1224,-0.3108,0.0226,-0.0122,0.0548,0.016,1252,2019-08-07 16:52:51:046
-5.4531,-7.2167,2.9309,-0.1224,-0.3108,0.0226,-0.0122,0.0548,0.016,1258,2019-08-07 16:52:51:052
-5.4531,-7.2167,2.9309,-0.1224,-0.3108,0.0226,-0.0133,0.0207,0.0202,1263,2019-08-07 16:52:51:057
-5.3861,-7.2453,3.0016,-0.1179,-0.2614,0.0173,-0.0133,0.0207,0.0202,1268,2019-08-07 16:52:51:062
-5.3861,-7.2453,3.0016,-0.1179,-0.2614,0.0173,-0.0165,-0.0059,0.0117,1273,2019-08-07 16:52:51:067
-5.3861,-7.2453,3.0016,-0.1179,-0.2614,0.0173,-0.0165,-0.0059,0.0117,1278,2019-08-07 16:52:51:072
-5.3478,-7.2549,2.9639,-0.1179,-0.2614,0.0173,-0.0143,-0.0155,0.0128,1282,2019-08-07 16:52:51:076
-5.3478,-7.2549,2.9639,-0.3153,-0.2895,0.0681,-0.0143,-0.0155,0.0128,1288,2019-08-07 16:52:51:082
-5.233,-7.3169,2.8979,-0.3153,-0.2895,0.0681,-0.0122,-0.0112,0.0128,1292,2019-08-07 16:52:51:086
-5.233,-7.3169,2.8979,-0.3153,-0.2895,0.0681,-0.0122,-0.0112,0.0128,1298,2019-08-07 16:52:51:092
-5.233,-7.3169,2.8979,-0.3153,-0.2895,0.0681,-0.0101,0.0101,0.0106,1303,2019-08-07 16:52:51:097
-5.166,-7.3122,2.8083,-0.3638,-0.1895,0.1794,-0.0101,0.0101,0.0106,1308,2019-08-07 16:52:51:102
-5.166,-7.3122,2.8083,-0.3638,-0.1895,0.1794,-0.0122,0.0356,0.0149,1313,2019-08-07 16:52:51:107
-5.1995,-7.3456,2.8225,-0.3638,-0.1895,0.1794,-0.0122,0.0356,0.0149,1318,2019-08-07 16:52:51:112
-5.1995,-7.3456,2.8225,-0.3638,-0.1895,0.1794,-0.0122,0.0356,0.0149,1323,2019-08-07 16:52:51:117
-5.1995,-7.3456,2.8225,-0.3192,-0.2132,0.0889,-0.0047,0.0463,0.017,1327,2019-08-07 16:52:51:121
-5.2378,-7.3217,2.9073,-0.3192,-0.2132,0.0889,-0.0047,0.0463,0.017,1334,2019-08-07 16:52:51:128
-5.2378,-7.3217,2.9073,-0.3192,-0.2132,0.0889,6.0E-4,0.0431,0.017,1338,2019-08-07 16:52:51:132
-5.2952,-7.2596,2.9356,-0.3192,-0.2132,0.0889,6.0E-4,0.0431,0.017,1343,2019-08-07 16:52:51:137
-5.2952,-7.2596,2.9356,-0.2523,-0.2781,0.0754,0.0027,0.0282,0.0245,1348,2019-08-07 16:52:51:142
-5.2952,-7.2596,2.9356,-0.2523,-0.2781,0.0754,0.0027,0.0282,0.0245,1353,2019-08-07 16:52:51:147
-5.3287,-7.1785,2.9544,-0.2523,-0.2781,0.0754,0.007,0.0058,0.0266,1358,2019-08-07 16:52:51:152
-5.3287,-7.1785,2.9544,-0.2523,-0.2781,0.0754,0.007,0.0058,0.0266,1363,2019-08-07 16:52:51:157
-5.3669,-7.1976,2.945,-0.1948,-0.3127,0.0381,0.0027,-0.0176,0.0256,1368,2019-08-07 16:52:51:162
-5.3669,-7.1976,2.945,-0.1948,-0.3127,0.0381,0.0027,-0.0176,0.0256,1373,2019-08-07 16:52:51:167
-5.3669,-7.1976,2.945,-0.1948,-0.3127,0.0381,0.0027,-0.0176,0.0256,1377,2019-08-07 16:52:51:171
-5.3335,-7.1785,2.8696,-0.1948,-0.3127,0.0381,-0.0037,-0.024,0.0213,1382,2019-08-07 16:52:51:176
-5.3335,-7.1785,2.8696,-0.2737,-0.3386,0.1536,-0.0037,-0.024,0.0213,1388,2019-08-07 16:52:51:182
-5.3335,-7.1785,2.8696,-0.2737,-0.3386,0.1536,-0.0143,-0.0272,0.0234,1393,2019-08-07 16:52:51:187
-5.2521,-7.2119,2.7565,-0.2737,-0.3386,0.1536,-0.0143,-0.0272,0.0234,1398,2019-08-07 16:52:51:192
-5.2521,-7.2119,2.7565,-0.2737,-0.3386,0.1536,-0.0133,-0.0102,0.017,1403,2019-08-07 16:52:51:197
-5.1804,-7.2358,2.6905,-0.2737,-0.3386,0.1536,-0.0133,-0.0102,0.017,1408,2019-08-07 16:52:51:202
-5.1804,-7.2358,2.6905,-0.4282,-0.2807,0.2845,-0.0133,0.0133,0.0128,1413,2019-08-07 16:52:51:207
-5.2043,-7.2787,2.7753,-0.4282,-0.2807,0.2845,-0.0133,0.0133,0.0128,1418,2019-08-07 16:52:51:212
-5.2043,-7.2787,2.7753,-0.4282,-0.2807,0.2845,-0.0133,0.0505,0.0117,1423,2019-08-07 16:52:51:217
-5.2043,-7.2787,2.7753,-0.4282,-0.2807,0.2845,-0.0133,0.0505,0.0117,1428,2019-08-07 16:52:51:222
-5.3717,-7.2978,2.8837,-0.2644,-0.2666,0.1641,-0.0133,0.0505,0.0117,1434,2019-08-07 16:52:51:228
-5.3717,-7.2978,2.8837,-0.2644,-0.2666,0.1641,-0.0101,0.0665,0.017,1437,2019-08-07 16:52:51:231
-5.3717,-7.2978,2.9403,-0.2644,-0.2666,0.1641,-0.0101,0.0665,0.017,1443,2019-08-07 16:52:51:237
-5.4435,-7.2262,2.9403,-0.2644,-0.2666,0.1641,-0.0069,0.0474,0.0192,1449,2019-08-07 16:52:51:243
-5.4435,-7.2262,2.9403,-0.132,-0.308,0.0193,-0.0069,0.0474,0.0192,1453,2019-08-07 16:52:51:247
-5.41,-7.2119,2.8743,-0.132,-0.308,0.0193,-0.0069,0.0474,0.0192,1458,2019-08-07 16:52:51:252
-5.41,-7.2119,2.8743,-0.132,-0.308,0.0193,-0.0101,0.0026,0.0256,1463,2019-08-07 16:52:51:257
-5.3669,-7.2167,2.8696,-0.2126,-0.2868,0.0973,-0.0101,0.0026,0.0256,1468,2019-08-07 16:52:51:262
-5.3669,-7.2167,2.8696,-0.2126,-0.2868,0.0973,-0.0133,-0.0283,0.0245,1473,2019-08-07 16:52:51:267
-5.3669,-7.2167,2.8696,-0.2126,-0.2868,0.0973,-0.0133,-0.0283,0.0245,1479,2019-08-07 16:52:51:273
-5.2617,-7.2549,2.8649,-0.3184,-0.2479,0.1027,-0.009,-0.0347,0.0277,1484,2019-08-07 16:52:51:278
-5.2617,-7.2549,2.8649,-0.3184,-0.2479,0.1027,-0.009,-0.0347,0.0277,1488,2019-08-07 16:52:51:282
-5.2617,-7.2549,2.8649,-0.3184,-0.2479,0.1027,-0.009,-0.0347,0.0277,1493,2019-08-07 16:52:51:287
-5.1564,-7.3551,2.8177,-0.3184,-0.2479,0.1027,-0.0058,-0.0219,0.0298,1498,2019-08-07 16:52:51:292
-5.1564,-7.3551,2.8177,-0.4582,-0.1367,0.1749,-0.0058,-0.0219,0.0298,1502,2019-08-07 16:52:51:296
-5.1612,-7.3933,2.7706,-0.4582,-0.1367,0.1749,-0.0037,0.0186,0.0288,1508,2019-08-07 16:52:51:302
-5.1612,-7.3933,2.7706,-0.4582,-0.1367,0.1749,-0.0037,0.0186,0.0288,1513,2019-08-07 16:52:51:307
-5.1612,-7.3933,2.7706,-0.4582,-0.1367,0.1749,0.008,0.0495,0.0245,1518,2019-08-07 16:52:51:312
-5.2378,-7.3217,2.8979,-0.3476,-0.1779,0.0679,0.008,0.0495,0.0245,1523,2019-08-07 16:52:51:317
-5.2378,-7.3217,2.8979,-0.3476,-0.1779,0.0679,0.0208,0.0591,0.0224,1528,2019-08-07 16:52:51:322
-5.3,-7.2883,2.9686,-0.2885,-0.2097,-0.0045,0.0208,0.0591,0.0224,1533,2019-08-07 16:52:51:327
-5.3,-7.2883,2.9686,-0.2885,-0.2097,-0.0045,0.0251,0.0442,0.0128,1538,2019-08-07 16:52:51:332
-5.3,-7.2883,2.9686,-0.2885,-0.2097,-0.0045,0.0251,0.0442,0.0128,1542,2019-08-07 16:52:51:336
-5.3669,-7.3312,2.9167,-0.2885,-0.2097,-0.0045,0.0283,0.0292,0.0085,1548,2019-08-07 16:52:51:342
-5.3669,-7.3312,2.9167,-0.1492,-0.1685,0.0044,0.0283,0.0292,0.0085,1553,2019-08-07 16:52:51:347
-5.3669,-7.3312,2.9167,-0.1492,-0.1685,0.0044,0.0283,0.0292,0.0085,1558,2019-08-07 16:52:51:352
-5.3478,-7.4076,2.9922,-0.1492,-0.1685,0.0044,0.0315,0.0026,0.0064,1562,2019-08-07 16:52:51:356
-5.3478,-7.4076,2.9922,-0.1492,-0.1685,0.0044,0.0315,0.0026,0.0064,1568,2019-08-07 16:52:51:362
-5.2713,-7.4506,2.9545,-0.3031,0.0057,0.004,0.0389,-0.0059,0.0053,1573,2019-08-07 16:52:51:367
-5.2713,-7.4506,2.9545,-0.3031,0.0057,0.004,0.0389,-0.0059,0.0053,1578,2019-08-07 16:52:51:372
-5.2186,-7.484,2.7753,-0.3031,0.0057,0.004,0.0507,-0.0038,-0.0011,1584,2019-08-07 16:52:51:378
-5.2186,-7.484,2.7753,-0.3031,0.0057,0.004,0.0507,-0.0038,-0.0011,1588,2019-08-07 16:52:51:382
-5.2186,-7.484,2.7753,-0.4737,-0.0118,0.0208,0.0507,-0.0038,-0.0011,1593,2019-08-07 16:52:51:387
-5.2186,-7.484,2.7753,-0.4737,-0.0118,0.0208,0.0656,0.0197,0.0043,1598,2019-08-07 16:52:51:392
-5.1899,-7.4792,2.8602,-0.4737,-0.0118,0.0208,0.0656,0.0197,0.0043,1603,2019-08-07 16:52:51:397
-5.1899,-7.4792,2.8602,-0.4737,-0.0118,0.0208,0.0826,0.0601,0.0085,1608,2019-08-07 16:52:51:402
-5.1756,-7.5174,2.7895,-0.4173,0.0298,0.1923,0.0826,0.0601,0.0085,1613,2019-08-07 16:52:51:407
-5.1756,-7.5174,2.7895,-0.4173,0.0298,0.1923,0.0965,0.0836,0.0138,1618,2019-08-07 16:52:51:412
-5.1756,-7.5174,2.7895,-0.4173,0.0298,0.1923,0.0965,0.0836,0.0138,1623,2019-08-07 16:52:51:417
-5.233,-7.5508,2.9262,-0.4173,0.0298,0.1923,0.1178,0.0932,0.016,1628,2019-08-07 16:52:51:422
-5.233,-7.5508,2.9262,-0.2647,0.0649,-0.0276,0.1178,0.0932,0.016,1633,2019-08-07 16:52:51:427
-5.3382,-7.5413,2.9969,-0.2647,0.0649,-0.0276,0.1178,0.0932,0.016,1637,2019-08-07 16:52:51:431
-5.3382,-7.5413,2.9969,-0.2647,0.0649,-0.0276,0.1508,0.0996,0.0351,1643,2019-08-07 16:52:51:437
-5.3382,-7.5413,2.9969,-0.2647,0.0649,-0.0276,0.1508,0.0996,0.0351,1648,2019-08-07 16:52:51:442
-5.3287,-7.6177,3.0959,-0.2792,0.1488,-0.0951,0.1891,0.1049,0.0533,1652,2019-08-07 16:52:51:446
-5.3287,-7.6177,3.0959,-0.2792,0.1488,-0.0951,0.1891,0.1049,0.0533,1658,2019-08-07 16:52:51:452
-5.3287,-7.6177,3.0959,-0.2792,0.1488,-0.0951,0.2222,0.1422,0.0724,1663,2019-08-07 16:52:51:457
-5.2521,-7.8134,3.0299,-0.2792,0.1488,-0.0951,0.2222,0.1422,0.0724,1668,2019-08-07 16:52:51:462
-5.2521,-7.8134,3.0299,-0.3814,0.4831,-0.2189,0.2222,0.1422,0.0724,1673,2019-08-07 16:52:51:467
-5.2521,-7.8134,3.0299,-0.3814,0.4831,-0.2189,0.2786,0.2178,0.1108,1679,2019-08-07 16:52:51:473
-5.2043,-8.0187,3.3693,-0.3814,0.4831,-0.2189,0.2786,0.2178,0.1108,1683,2019-08-07 16:52:51:477
-5.2043,-8.0187,3.3693,-0.3814,0.4831,-0.2189,0.334,0.2711,0.1459,1688,2019-08-07 16:52:51:482
-5.2043,-8.0187,3.3693,-0.4501,0.7723,-0.519,0.334,0.2711,0.1459,1693,2019-08-07 16:52:51:487
-5.233,-8.2287,3.6097,-0.4501,0.7723,-0.519,0.383,0.2988,0.1907,1699,2019-08-07 16:52:51:493
-5.233,-8.2287,3.6097,-0.4501,0.7723,-0.519,0.383,0.2988,0.1907,1703,2019-08-07 16:52:51:497
-5.0751,-8.5581,3.8501,-0.4501,0.7723,-0.519,0.4555,0.3254,0.2429,1708,2019-08-07 16:52:51:502
-5.0751,-8.5581,3.8501,-0.7292,1.354,-0.8984,0.4555,0.3254,0.2429,1713,2019-08-07 16:52:51:507
-5.0751,-8.5581,3.8501,-0.7292,1.354,-0.8984,0.5258,0.336,0.2865,1718,2019-08-07 16:52:51:512
-4.8359,-8.983,4.3403,-0.7292,1.354,-0.8984,0.5258,0.336,0.2865,1723,2019-08-07 16:52:51:517
-4.8359,-8.983,4.3403,-0.7292,1.354,-0.8984,0.6365,0.3382,0.3217,1728,2019-08-07 16:52:51:522
-4.6397,-9.5702,4.9814,-1.1132,2.2633,-1.859,0.6365,0.3382,0.3217,1733,2019-08-07 16:52:51:527
-4.6397,-9.5702,4.9814,-1.1132,2.2633,-1.859,0.6365,0.3382,0.3217,1738,2019-08-07 16:52:51:532
-4.6397,-9.5702,4.9814,-1.1132,2.2633,-1.859,0.8336,0.3201,0.3441,1743,2019-08-07 16:52:51:537
-4.6397,-9.5702,4.9814,-1.1132,2.2633,-1.859,0.8336,0.3201,0.3441,1748,2019-08-07 16:52:51:542
-4.2187,-10.3053,5.7497,-1.7842,3.2717,-2.7052,1.0445,0.303,0.3345,1753,2019-08-07 16:52:51:547
-4.2187,-10.3053,5.7497,-1.7842,3.2717,-2.7052,1.0445,0.303,0.3345,1758,2019-08-07 16:52:51:552
-3.7307,-10.7207,6.1127,-1.7842,3.2717,-2.7052,1.28,0.2828,0.2983,1763,2019-08-07 16:52:51:557
-3.7307,-10.7207,6.1127,-1.7842,3.2717,-2.7052,1.28,0.2828,0.2983,1769,2019-08-07 16:52:51:563
-3.7307,-10.7207,6.1127,-1.7842,3.2717,-2.7052,1.5111,0.3062,0.2407,1773,2019-08-07 16:52:51:567
-3.214,-10.84,5.9477,-2.6325,3.73,-2.5561,1.5111,0.3062,0.2407,1778,2019-08-07 16:52:51:572
-3.214,-10.84,5.9477,-2.6325,3.73,-2.5561,1.7029,0.3733,0.164,1783,2019-08-07 16:52:51:577
-2.9078,-10.8925,5.4009,-2.6325,3.73,-2.5561,1.7029,0.3733,0.164,1788,2019-08-07 16:52:51:582
-2.9078,-10.8925,5.4009,-2.6325,3.73,-2.5561,1.7029,0.3733,0.164,1793,2019-08-07 16:52:51:587
-2.9078,-10.8925,5.4009,-3.2131,4.0926,-1.562,1.8989,0.5427,0.0799,1798,2019-08-07 16:52:51:592
-2.439,-11.3365,4.9013,-3.2131,4.0926,-1.562,1.8989,0.5427,0.0799,1803,2019-08-07 16:52:51:597
-2.439,-11.3365,4.9013,-3.2131,4.0926,-1.562,2.1247,0.8037,-0.0171,1808,2019-08-07 16:52:51:602
-1.7453,-12.0526,4.5289,-3.2131,4.0926,-1.562,2.1247,0.8037,-0.0171,1813,2019-08-07 16:52:51:607
-1.7453,-12.0526,4.5289,-4.5844,5.6716,-0.6312,2.1247,0.8037,-0.0171,1818,2019-08-07 16:52:51:612
-0.6975,-13.7616,4.2272,-4.5844,5.6716,-0.6312,2.472,1.1765,-0.1481,1824,2019-08-07 16:52:51:618
-0.6975,-13.7616,4.2272,-4.5844,5.6716,-0.6312,2.472,1.1765,-0.1481,1828,2019-08-07 16:52:51:622
-0.6975,-13.7616,4.2272,-5.7531,8.2697,-0.092,3.0057,1.6836,-0.2876,1833,2019-08-07 16:52:51:627
-0.0891,-15.3227,4.0812,-5.7531,8.2697,-0.092,3.0057,1.6836,-0.2876,1838,2019-08-07 16:52:51:632
-0.0891,-15.3227,4.0812,-5.7531,8.2697,-0.092,3.0057,1.6836,-0.2876,1843,2019-08-07 16:52:51:637
-0.0891,-15.3227,4.0812,-5.8704,9.1272,-0.0743,3.6608,2.2429,-0.3771,1847,2019-08-07 16:52:51:641
-0.2709,-15.8096,4.2556,-5.8704,9.1272,-0.0743,3.6608,2.2429,-0.3771,1853,2019-08-07 16:52:51:647
-0.2709,-15.8096,4.2556,-5.8704,9.1272,-0.0743,4.2734,2.6849,-0.3089,1858,2019-08-07 16:52:51:652
-0.534,-15.8001,4.1236,-5.8704,9.1272,-0.0743,4.2734,2.6849,-0.3089,1863,2019-08-07 16:52:51:657
-0.534,-15.8001,4.1236,-5.6082,9.3469,0.3077,4.5972,2.947,-0.2205,1868,2019-08-07 16:52:51:662
-0.534,-15.8001,4.1236,-5.6082,9.3469,0.3077,4.5972,2.947,-0.2205,1872,2019-08-07 16:52:51:666
-0.8498,-15.2893,3.7135,-5.3745,9.1321,0.7117,4.7208,3.0791,-0.1736,1878,2019-08-07 16:52:51:672
-0.8498,-15.2893,3.7135,-5.3745,9.1321,0.7117,4.7208,3.0791,-0.1736,1883,2019-08-07 16:52:51:677
-0.8498,-15.2893,3.7135,-5.3745,9.1321,0.7117,4.7847,3.1995,-0.0703,1889,2019-08-07 16:52:51:683
-1.8353,-15.5757,3.0206,-5.3745,9.1321,0.7117,4.7847,3.1995,-0.0703,1893,2019-08-07 16:52:51:687
-1.8353,-15.5757,3.0206,-4.308,10.0702,1.6057,4.7847,3.1995,-0.0703,1898,2019-08-07 16:52:51:692
-2.309,-16.1199,2.8415,-4.308,10.0702,1.6057,4.8806,3.2495,0.0405,1903,2019-08-07 16:52:51:697
-2.309,-16.1199,2.8415,-4.308,10.0702,1.6057,4.8806,3.2495,0.0405,1908,2019-08-07 16:52:51:702
-1.998,-16.3348,1.6772,-4.308,10.0702,1.6057,5.1075,3.3028,0.1992,1913,2019-08-07 16:52:51:707
-1.998,-16.3348,1.6772,-4.954,10.8445,3.3847,5.1075,3.3028,0.1992,1918,2019-08-07 16:52:51:712
-1.998,-16.3348,1.6772,-4.954,10.8445,3.3847,5.5016,3.5276,0.4676,1923,2019-08-07 16:52:51:717
-1.3999,-14.9647,-0.6844,-5.532,9.8783,5.4082,5.5016,3.5276,0.4676,1928,2019-08-07 16:52:51:722
-1.3999,-14.9647,-0.6844,-5.532,9.8783,5.4082,5.8467,3.9526,0.8405,1933,2019-08-07 16:52:51:727
-1.3999,-14.9647,-0.6844,-5.532,9.8783,5.4082,5.8467,3.9526,0.8405,1938,2019-08-07 16:52:51:732
-2.4668,-10.6969,-2.3767,-5.532,9.8783,5.4082,5.8467,3.9526,0.8405,1943,2019-08-07 16:52:51:737
-2.4668,-10.6969,-2.3767,-3.8898,4.5127,7.5857,6.1887,4.5694,1.4679,1949,2019-08-07 16:52:51:743
-5.3804,-6.5962,-2.8151,-3.8898,4.5127,7.5857,6.1887,4.5694,1.4679,1953,2019-08-07 16:52:51:747
-5.3804,-6.5962,-2.8151,-3.8898,4.5127,7.5857,6.2995,5.1393,2.481,1958,2019-08-07 16:52:51:752
-5.3804,-6.5962,-2.8151,-3.8898,4.5127,7.5857,6.2995,5.1393,2.481,1964,2019-08-07 16:52:51:758
-9.5188,-3.2688,-1.7309,1.4588,-0.2514,6.0761,6.0268,4.8964,3.2746,1968,2019-08-07 16:52:51:762
-9.5188,-3.2688,-1.7309,1.4588,-0.2514,6.0761,6.0268,4.8964,3.2746,1973,2019-08-07 16:52:51:767
-9.5188,-3.2688,-1.7309,1.4588,-0.2514,6.0761,5.5953,4.024,3.9606,1978,2019-08-07 16:52:51:772
-11.3224,-1.3068,-0.6279,1.4588,-0.2514,6.0761,5.5953,4.024,3.9606,1983,2019-08-07 16:52:51:777
-11.3224,-1.3068,-0.6279,2.8306,-1.6491,4.8488,5.019,2.8053,4.3878,1988,2019-08-07 16:52:51:782
-11.1932,-0.5239,-1.1699,2.8306,-1.6491,4.8488,5.019,2.8053,4.3878,1993,2019-08-07 16:52:51:787
-11.1932,-0.5239,-1.1699,2.8306,-1.6491,4.8488,4.3021,1.51,4.522,1997,2019-08-07 16:52:51:791
-10.5091,0.5884,-2.7443,2.8306,-1.6491,4.8488,4.3021,1.51,4.522,2004,2019-08-07 16:52:51:798
-10.5091,0.5884,-2.7443,1.4181,-2.0564,6.7739,4.3021,1.51,4.522,2008,2019-08-07 16:52:51:802
-10.5091,0.5884,-2.7443,1.4181,-2.0564,6.7739,3.4488,0.3659,4.4166,2012,2019-08-07 16:52:51:806
-10.2938,1.8058,-3.343,1.4181,-2.0564,6.7739,3.4488,0.3659,4.4166,2018,2019-08-07 16:52:51:812
-10.2938,1.8058,-3.343,1.4181,-2.0564,6.7739,2.9759,-0.1337,4.179,2022,2019-08-07 16:52:51:816
-10.2938,1.8058,-3.343,1.3576,-2.8881,6.7318,2.9759,-0.1337,4.179,2028,2019-08-07 16:52:51:822
-10.3512,2.961,-3.3854,1.3576,-2.8881,6.7318,2.9641,-0.3361,3.9106,2034,2019-08-07 16:52:51:828
-10.3512,2.961,-3.3854,1.3576,-2.8881,6.7318,2.9641,-0.3361,3.9106,2037,2019-08-07 16:52:51:831
-10.3512,2.961,-3.3854,1.3576,-2.8881,6.7318,2.9641,-0.3361,3.9106,2043,2019-08-07 16:52:51:837
-9.2029,3.4145,-4.1632,-0.0648,-2.5447,8.1012,3.0462,-0.3468,3.4557,2049,2019-08-07 16:52:51:843
-9.2029,3.4145,-4.1632,-0.0648,-2.5447,8.1012,3.0462,-0.3468,3.4557,2053,2019-08-07 16:52:51:847
-9.2029,3.4145,-4.1632,-0.0648,-2.5447,8.1012,2.8832,-0.6206,2.3936,2057,2019-08-07 16:52:51:851
-9.6861,3.9396,-4.4272,-0.0648,-2.5447,8.1012,2.8832,-0.6206,2.3936,2063,2019-08-07 16:52:51:857
-9.6861,3.9396,-4.4272,-0.0648,-2.5447,8.1012,2.8832,-1.1149,1.7886,2068,2019-08-07 16:52:51:862
-11.0496,4.8944,-4.5544,1.6073,-3.0853,8.1247,2.5359,-1.1149,1.7886,2073,2019-08-07 16:52:51:867
-11.0496,4.8944,-4.5544,1.6073,-3.0853,8.1247,2.5359,-1.1149,1.7886,2078,2019-08-07 16:52:51:872
-11.0496,4.8944,-4.5544,1.6073,-3.0853,8.1247,2.0661,-1.5857,1.4168,2083,2019-08-07 16:52:51:877
-9.8344,4.6032,-4.7571,0.5101,-2.6168,8.3906,2.0661,-1.5857,1.4168,2088,2019-08-07 16:52:51:882
-9.8344,4.6032,-4.7571,0.5101,-2.6168,8.3906,1.5111,-1.6336,0.9673,2093,2019-08-07 16:52:51:887
-7.9925,4.4504,-2.5888,0.5101,-2.6168,8.3906,1.5111,-1.6336,0.9673,2098,2019-08-07 16:52:51:892
-7.9925,4.4504,-2.5888,0.5101,-2.6168,8.3906,1.2725,-1.6219,0.4368,2103,2019-08-07 16:52:51:897
-7.9925,4.4504,-2.5888,-0.9345,-3.3728,5.7023,1.2725,-1.6219,0.4368,2108,2019-08-07 16:52:51:902
-7.7293,5.7632,-1.6602,-0.9345,-3.3728,5.7023,1.2182,-1.4632,-0.049,2113,2019-08-07 16:52:51:907
-7.7293,5.7632,-1.6602,-0.9345,-3.3728,5.7023,1.2182,-1.4632,-0.049,2118,2019-08-07 16:52:51:912
-6.9878,6.4793,-2.5463,-1.266,-4.0439,6.4618,1.069,-1.0339,-0.4613,2123,2019-08-07 16:52:51:917
-6.9878,6.4793,-2.5463,-1.266,-4.0439,6.4618,1.069,-1.0339,-0.4613,2128,2019-08-07 16:52:51:922
-6.9878,6.4793,-2.5463,-1.266,-4.0439,6.4618,0.7516,-0.7995,-0.9257,2133,2019-08-07 16:52:51:927
-6.8012,6.9997,-3.1356,-1.266,-4.0439,6.4618,0.7516,-0.7995,-0.9257,2138,2019-08-07 16:52:51:932
-6.8012,6.9997,-3.1356,-1.6365,-4.9473,7.4395,0.7516,-0.7995,-0.9257,2144,2019-08-07 16:52:51:938
-6.8012,6.9997,-3.1356,-1.6365,-4.9473,7.4395,0.2168,-0.5726,-1.4605,2148,2019-08-07 16:52:51:942
-7.2844,7.3672,-2.5511,-1.3022,-5.2563,6.7996,0.2168,-0.5726,-1.4605,2153,2019-08-07 16:52:51:947
-7.2844,7.3672,-2.5511,-1.3022,-5.2563,6.7996,-0.2221,-0.2989,-1.8514,2158,2019-08-07 16:52:51:952
-7.2844,7.3672,-2.5511,-1.3022,-5.2563,6.7996,-0.2221,-0.2989,-1.8514,2163,2019-08-07 16:52:51:957
-8.179,7.0665,0.7816,-1.3022,-5.2563,6.7996,-0.2828,-0.2541,-2.0805,2167,2019-08-07 16:52:51:961
-8.179,7.0665,0.7816,-0.0959,-5.1589,2.9784,-0.2828,-0.2541,-2.0805,2174,2019-08-07 16:52:51:968
-8.8966,6.7228,1.3661,-0.0959,-5.1589,2.9784,-0.1699,-0.1391,-2.1902,2178,2019-08-07 16:52:51:972
-8.8966,6.7228,1.3661,-0.0959,-5.1589,2.9784,-0.1699,-0.1391,-2.1902,2184,2019-08-07 16:52:51:978
-8.8966,6.7228,1.3661,-0.0959,-5.1589,2.9784,-0.1699,-0.1391,-2.1902,2187,2019-08-07 16:52:51:981
-8.8966,6.7228,1.3661,-0.0959,-5.1589,2.9784,-0.1699,-0.1391,-2.1902,2193,2019-08-07 16:52:51:987
-8.6861,6.527,0.8193,-0.0126,-5.0839,3.4803,-0.2348,-0.2669,-2.2189,2198,2019-08-07 16:52:51:992
-8.6861,6.527,0.8193,-0.0126,-5.0839,3.4803,-0.2348,-0.2669,-2.2189,2203,2019-08-07 16:52:51:997
-8.1216,6.0688,0.8853,-0.0126,-5.0839,3.4803,-0.5736,-0.5588,-2.1018,2208,2019-08-07 16:52:52:002
-8.1216,6.0688,0.8853,-0.7953,-4.8585,3.268,-0.5736,-0.5588,-2.1018,2213,2019-08-07 16:52:52:007
-8.1216,6.0688,0.8853,-0.7953,-4.8585,3.268,-0.6663,-0.6067,-1.9665,2218,2019-08-07 16:52:52:012
-6.9255,5.1617,1.3897,-0.7953,-4.8585,3.268,-0.6663,-0.6067,-1.9665,2223,2019-08-07 16:52:52:017
-6.9255,5.1617,1.3897,-2.5582,-4.1388,3.8627,-0.5555,-0.3447,-1.8195,2228,2019-08-07 16:52:52:022
-6.1313,4.923,0.249,-2.5582,-4.1388,3.8627,-0.5555,-0.3447,-1.8195,2233,2019-08-07 16:52:52:027
-6.1313,4.923,0.249,-2.5582,-4.1388,3.8627,-0.5555,-0.3447,-1.8195,2238,2019-08-07 16:52:52:032
-6.1313,4.923,0.249,-2.5582,-4.1388,3.8627,-0.6066,0.0527,-1.632,2243,2019-08-07 16:52:52:037
-6.1887,4.9421,-0.081,-2.5582,-4.1388,3.8627,-0.6066,0.0527,-1.632,2249,2019-08-07 16:52:52:043
-6.1887,4.9421,-0.081,-2.3779,-4.2439,4.4538,-0.7163,0.3691,-1.4871,2252,2019-08-07 16:52:52:046
-6.9685,4.4313,0.6874,-2.3779,-4.2439,4.4538,-0.7163,0.3691,-1.4871,2258,2019-08-07 16:52:52:052
-6.9685,4.4313,0.6874,-2.3779,-4.2439,4.4538,-0.7004,0.6876,-1.3635,2263,2019-08-07 16:52:52:057
-6.9685,4.4313,0.6874,-2.3779,-4.2439,4.4538,-0.7004,0.6876,-1.3635,2268,2019-08-07 16:52:52:062
-8.6047,4.3597,1.3803,-0.2081,-4.2263,2.9269,-0.7004,0.6876,-1.3635,2273,2019-08-07 16:52:52:067
-8.6047,4.3597,1.3803,-0.2081,-4.2263,2.9269,-0.6215,0.7483,-1.2432,2278,2019-08-07 16:52:52:072
-9.5281,4.3502,1.0173,-0.2081,-4.2263,2.9269,-0.6215,0.7483,-1.2432,2283,2019-08-07 16:52:52:077
-9.5281,4.3502,1.0173,-0.2081,-4.2263,2.9269,-0.6833,0.5587,-1.1516,2288,2019-08-07 16:52:52:082
-9.5281,4.3502,1.0173,1.1146,-4.4709,3.0748,-0.6833,0.5587,-1.1516,2292,2019-08-07 16:52:52:086
-10.2361,4.2929,1.2247,1.1146,-4.4709,3.0748,-0.7877,0.2892,-1.1132,2298,2019-08-07 16:52:52:092
-10.2361,4.2929,1.2247,1.1146,-4.4709,3.0748,-0.7877,0.2892,-1.1132,2303,2019-08-07 16:52:52:097
-10.2409,3.8871,1.4086,1.1146,-4.4709,3.0748,-0.7877,0.2892,-1.1132,2307,2019-08-07 16:52:52:101
-10.2409,3.8871,1.4086,1.2516,-4.0504,2.6908,-0.9102,-0.0815,-1.1452,2313,2019-08-07 16:52:52:107
-10.2409,3.8871,1.4086,1.2516,-4.0504,2.6908,-0.9102,-0.0815,-1.1452,2317,2019-08-07 16:52:52:111
-9.8055,3.2092,0.8901,1.2516,-4.0504,2.6908,-1.0402,-0.382,-1.2762,2323,2019-08-07 16:52:52:117
-9.8055,3.2092,0.8901,1.2516,-4.0504,2.6908,-1.0402,-0.382,-1.2762,2328,2019-08-07 16:52:52:122
-9.8055,3.2092,0.8901,1.0974,-4.1484,3.9661,-1.2234,-0.5588,-1.4019,2332,2019-08-07 16:52:52:126
-9.9969,3.5482,0.1877,1.0974,-4.1484,3.9661,-1.2234,-0.5588,-1.4019,2338,2019-08-07 16:52:52:132
-9.9969,3.5482,0.1877,1.0974,-4.1484,3.9661,-1.3885,-0.7175,-1.453,2343,2019-08-07 16:52:52:137
-9.8581,3.0803,-8.0E-4,1.0974,-4.1484,3.9661,-1.3885,-0.7175,-1.453,2347,2019-08-07 16:52:52:141
-9.8581,3.0803,-8.0E-4,1.1152,-3.8332,4.2659,-1.3885,-0.7175,-1.453,2353,2019-08-07 16:52:52:147
-9.8581,3.0803,-8.0E-4,1.1152,-3.8332,4.2659,-1.543,-0.7644,-1.4626,2358,2019-08-07 16:52:52:152
-9.3271,2.3499,0.0934,1.1152,-3.8332,4.2659,-1.543,-0.7644,-1.4626,2363,2019-08-07 16:52:52:157
-9.3271,2.3499,0.0934,1.1152,-3.8332,4.2659,-1.5962,-0.7686,-1.5137,2368,2019-08-07 16:52:52:162
-8.9108,1.3283,0.5507,0.1801,-2.6777,3.7143,-1.5962,-0.7686,-1.5137,2372,2019-08-07 16:52:52:166
-8.9108,1.3283,0.5507,0.1801,-2.6777,3.7143,-1.608,-0.7005,-1.6224,2378,2019-08-07 16:52:52:172
-8.9108,1.3283,0.5507,0.1801,-2.6777,3.7143,-1.608,-0.7005,-1.6224,2383,2019-08-07 16:52:52:177
-8.7673,0.6743,0.7628,0.1801,-2.6777,3.7143,-1.6698,-0.6238,-1.7204,2388,2019-08-07 16:52:52:182
-8.7673,0.6743,0.7628,0.0929,-2.079,3.7285,-1.7816,-0.6131,-1.8024,2393,2019-08-07 16:52:52:187
-8.662,0.0871,0.4988,0.0929,-2.079,3.7285,-1.7816,-0.6131,-1.8024,2398,2019-08-07 16:52:52:192
-8.662,0.0871,0.4988,0.0929,-2.079,3.7285,-1.7816,-0.6131,-1.8024,2403,2019-08-07 16:52:52:197
-8.662,0.0871,0.4988,0.0929,-2.079,3.7285,-2.0554,-0.6536,-1.9643,2407,2019-08-07 16:52:52:201
-8.6764,-0.3377,0.4187,0.1387,-1.8215,4.029,-2.0554,-0.6536,-1.9643,2413,2019-08-07 16:52:52:207
-8.6764,-0.3377,0.4187,0.1387,-1.8215,4.029,-2.327,-0.7654,-2.0826,2417,2019-08-07 16:52:52:211
-8.6572,-0.9392,-0.0197,0.1387,-1.8215,4.029,-2.327,-0.7654,-2.0826,2423,2019-08-07 16:52:52:217
-8.6572,-0.9392,-0.0197,0.1387,-1.8215,4.029,-2.6093,-0.9125,-2.1561,2427,2019-08-07 16:52:52:221
-8.6572,-0.9392,-0.0197,0.3052,-1.2872,4.0345,-2.6093,-0.9125,-2.1561,2433,2019-08-07 16:52:52:227
-8.6476,-1.6601,0.4753,0.3052,-1.2872,4.0345,-2.8149,-1.1244,-2.1412,2438,2019-08-07 16:52:52:232
-8.6476,-1.6601,0.4753,0.3052,-1.2872,4.0345,-2.8149,-1.1244,-2.1412,2442,2019-08-07 16:52:52:236
-8.5711,-2.5289,1.451,0.3052,-1.2872,4.0345,-2.8628,-1.2736,-2.0645,2449,2019-08-07 16:52:52:243
-8.5711,-2.5289,1.451,0.3626,-0.5298,2.5808,-2.8628,-1.2736,-2.0645,2452,2019-08-07 16:52:52:246
-8.5711,-2.5289,1.451,0.3626,-0.5298,2.5808,-2.8011,-1.3002,-1.9739,2458,2019-08-07 16:52:52:252
-8.4467,-3.1495,2.144,0.3626,-0.5298,2.5808,-2.8011,-1.3002,-1.9739,2463,2019-08-07 16:52:52:257
-8.4467,-3.1495,2.144,0.3626,-0.5298,2.5808,-2.8298,-1.3918,-1.8983,2468,2019-08-07 16:52:52:262
-8.6524,-3.0349,2.7379,0.7793,-0.952,1.5464,-2.8298,-1.3918,-1.8983,2473,2019-08-07 16:52:52:267
-8.6524,-3.0349,2.7379,0.7793,-0.952,1.5464,-2.9907,-1.5633,-1.8014,2478,2019-08-07 16:52:52:272
-8.6524,-3.0349,2.7379,0.7793,-0.952,1.5464,-2.9907,-1.5633,-1.8014,2483,2019-08-07 16:52:52:277
-8.7194,-2.7772,2.9406,0.7793,-0.952,1.5464,-3.2783,-1.9053,-1.6821,2488,2019-08-07 16:52:52:282
-8.7194,-2.7772,2.9406,1.1783,-1.8014,1.1033,-3.2783,-1.9053,-1.6821,2493,2019-08-07 16:52:52:287
-8.8007,-2.7628,3.8268,1.1783,-1.8014,1.1033,-3.5009,-2.391,-1.5872,2498,2019-08-07 16:52:52:292
-8.8007,-2.7628,3.8268,1.1783,-1.8014,1.1033,-3.5009,-2.391,-1.5872,2502,2019-08-07 16:52:52:296
-8.8007,-2.7628,3.8268,1.1783,-1.8014,1.1033,-3.5009,-2.391,-1.5872,2508,2019-08-07 16:52:52:302
-9.1116,-3.3071,2.7709,1.1783,-1.8014,1.1033,-3.7204,-2.8054,-1.4669,2512,2019-08-07 16:52:52:306
-9.1116,-3.3071,2.7709,1.9366,-1.6296,1.4339,-3.7204,-2.8054,-1.4669,2518,2019-08-07 16:52:52:312
-9.0016,-4.2761,2.8039,1.9366,-1.6296,1.4339,-4.024,-3.4851,-1.2623,2523,2019-08-07 16:52:52:317
-9.0016,-4.2761,2.8039,1.9366,-1.6296,1.4339,-4.024,-3.4851,-1.2623,2528,2019-08-07 16:52:52:322
-9.0016,-4.2761,2.8039,1.9366,-1.6296,1.4339,-4.2125,-4.0443,-1.029,2532,2019-08-07 16:52:52:326
-7.6955,-5.6319,2.6201,1.2804,-0.2517,1.6592,-4.2125,-4.0443,-1.029,2538,2019-08-07 16:52:52:332
-7.6955,-5.6319,2.6201,1.2804,-0.2517,1.6592,-4.2125,-4.0443,-1.029,2542,2019-08-07 16:52:52:336
-7.6955,-5.6319,2.6201,1.2804,-0.2517,1.6592,-4.2211,-4.528,-0.7276,2548,2019-08-07 16:52:52:342
-6.1597,-7.2359,1.649,1.2804,-0.2517,1.6592,-4.2211,-4.528,-0.7276,2552,2019-08-07 16:52:52:346
-6.1597,-7.2359,1.649,-1.0282,1.7445,2.9114,-4.0581,-4.4896,-0.4123,2558,2019-08-07 16:52:52:352
-4.313,-8.4628,1.385,-1.0282,1.7445,2.9114,-4.0581,-4.4896,-0.4123,2562,2019-08-07 16:52:52:356
-4.313,-8.4628,1.385,-1.0282,1.7445,2.9114,-3.8866,-4.1956,-0.1736,2568,2019-08-07 16:52:52:362
-4.313,-8.4628,1.385,-1.0282,1.7445,2.9114,-3.8866,-4.1956,-0.1736,2573,2019-08-07 16:52:52:367
-3.1743,-8.9402,1.1541,-2.7121,2.466,3.2811,-3.7151,-3.7173,0.0628,2578,2019-08-07 16:52:52:372
-3.1743,-8.9402,1.1541,-2.7121,2.466,3.2811,-3.7151,-3.7173,0.0628,2582,2019-08-07 16:52:52:376
-2.6911,-9.0022,1.2389,-2.7121,2.466,3.2811,-3.5702,-3.1346,0.2695,2588,2019-08-07 16:52:52:382
-2.6911,-9.0022,1.2389,-2.7121,2.466,3.2811,-3.5702,-3.1346,0.2695,2593,2019-08-07 16:52:52:387
-2.6911,-9.0022,1.2389,-2.567,2.0084,2.6945,-3.4328,-2.6318,0.4559,2598,2019-08-07 16:52:52:392
-3.2604,-8.7253,1.946,-2.567,2.0084,2.6945,-3.4328,-2.6318,0.4559,2603,2019-08-07 16:52:52:397
-3.2604,-8.7253,1.946,-2.567,2.0084,2.6945,-3.4328,-2.6318,0.4559,2609,2019-08-07 16:52:52:403
-4.1455,-8.7588,2.8888,-2.567,2.0084,2.6945,-3.2932,-2.2174,0.6541,2613,2019-08-07 16:52:52:407
-4.1455,-8.7588,2.8888,-1.2495,1.7894,1.0701,-3.2932,-2.2174,0.6541,2618,2019-08-07 16:52:52:412
-4.1455,-8.7588,2.8888,-1.2495,1.7894,1.0701,-3.2304,-2.1332,0.7915,2623,2019-08-07 16:52:52:417
-4.4039,-9.4175,3.1622,-1.0164,2.2756,0.8189,-3.2304,-2.1332,0.7915,2628,2019-08-07 16:52:52:422
-4.4039,-9.4175,3.1622,-1.0164,2.2756,0.8189,-3.159,-2.276,0.8746,2633,2019-08-07 16:52:52:427
-4.4039,-9.4175,3.1622,-1.0164,2.2756,0.8189,-3.159,-2.276,0.8746,2638,2019-08-07 16:52:52:432
-4.0115,-10.5585,3.4214,-1.0164,2.2756,0.8189,-3.0578,-2.4858,0.9108,2643,2019-08-07 16:52:52:437
-4.0115,-10.5585,3.4214,-1.5675,3.6579,0.5147,-3.0578,-2.4858,0.9108,2649,2019-08-07 16:52:52:443
-3.3322,-11.4703,2.7756,-1.5675,3.6579,0.5147,-2.914,-2.6669,0.9481,2652,2019-08-07 16:52:52:446
-3.3322,-11.4703,2.7756,-1.5675,3.6579,0.5147,-2.914,-2.6669,0.9481,2658,2019-08-07 16:52:52:452
-3.3322,-11.4703,2.7756,-1.5675,3.6579,0.5147,-2.7222,-2.7436,0.9886,2663,2019-08-07 16:52:52:457
-2.7389,-11.8904,1.9083,-2.5393,4.4515,1.7028,-2.7222,-2.7436,0.9886,2668,2019-08-07 16:52:52:462
-2.7389,-11.8904,1.9083,-2.5393,4.4515,1.7028,-2.4847,-2.6456,1.0344,2672,2019-08-07 16:52:52:466
-2.4184,-12.005,1.5453,-2.5393,4.4515,1.7028,-2.4847,-2.6456,1.0344,2678,2019-08-07 16:52:52:472
-2.4184,-12.005,1.5453,-2.5393,4.4515,1.7028,-2.2216,-2.4358,1.0727,2683,2019-08-07 16:52:52:477
-2.4184,-12.005,1.5453,-2.9657,4.3724,1.8901,-2.2216,-2.4358,1.0727,2688,2019-08-07 16:52:52:482
-2.3322,-11.8045,1.4463,-2.9657,4.3724,1.8901,-2.2216,-2.4358,1.0727,2693,2019-08-07 16:52:52:487
-2.3322,-11.8045,1.4463,-2.9657,4.3724,1.8901,-1.9947,-2.2206,1.1164,2698,2019-08-07 16:52:52:492
-2.4279,-11.6087,1.4464,-2.9657,4.3724,1.8901,-1.9947,-2.2206,1.1164,2703,2019-08-07 16:52:52:497
-2.4279,-11.6087,1.4464,-2.7162,3.9569,1.9033,-1.7848,-1.9756,1.126,2708,2019-08-07 16:52:52:502
-2.4279,-11.6087,1.4464,-2.7162,3.9569,1.9033,-1.7848,-1.9756,1.126,2713,2019-08-07 16:52:52:507
-2.7867,-11.4273,1.5595,-2.7162,3.9569,1.9033,-1.6346,-1.852,1.1036,2718,2019-08-07 16:52:52:512
-2.7867,-11.4273,1.5595,-2.7162,3.9569,1.9033,-1.6346,-1.852,1.1036,2723,2019-08-07 16:52:52:517
-2.7867,-11.4273,1.5595,-2.255,3.759,1.771,-1.5004,-1.7476,1.0557,2728,2019-08-07 16:52:52:522
-3.0307,-11.3271,1.6019,-2.255,3.759,1.771,-1.5004,-1.7476,1.0557,2733,2019-08-07 16:52:52:527
-3.0307,-11.3271,1.6019,-2.255,3.759,1.771,-1.3811,-1.6922,0.9907,2737,2019-08-07 16:52:52:531
-2.9685,-11.3223,1.5736,-2.255,3.759,1.771,-1.3811,-1.6922,0.9907,2743,2019-08-07 16:52:52:537
-2.9685,-11.3223,1.5736,-2.4573,3.733,1.7558,-1.2607,-1.624,0.9055,2748,2019-08-07 16:52:52:542
-2.9685,-11.3223,1.5736,-2.4573,3.733,1.7558,-1.2607,-1.624,0.9055,2753,2019-08-07 16:52:52:547
-2.4183,-11.308,1.2531,-2.4573,3.733,1.7558,-1.1137,-1.4632,0.7798,2758,2019-08-07 16:52:52:552
-2.4183,-11.308,1.2531,-2.4573,3.733,1.7558,-1.1137,-1.4632,0.7798,2763,2019-08-07 16:52:52:557
-2.4183,-11.308,1.2531,-3.3646,3.8886,2.2331,-1.1137,-1.4632,0.7798,2767,2019-08-07 16:52:52:561
-1.8777,-11.5706,0.942,-3.3646,3.8886,2.2331,-1.0146,-1.2224,0.6477,2773,2019-08-07 16:52:52:567
-1.8777,-11.5706,0.942,-3.3646,3.8886,2.2331,-1.0146,-1.2224,0.6477,2778,2019-08-07 16:52:52:572
-2.4039,-11.5753,0.9514,-3.3646,3.8886,2.2331,-0.907,-0.9295,0.4922,2783,2019-08-07 16:52:52:577
-2.4039,-11.5753,0.9514,-2.3535,4.0005,2.1484,-0.907,-0.9295,0.4922,2788,2019-08-07 16:52:52:582
-3.3416,-11.5658,1.3709,-2.3535,4.0005,2.1484,-0.7994,-0.775,0.3494,2794,2019-08-07 16:52:52:588
-3.3416,-11.5658,1.3709,-2.3535,4.0005,2.1484,-0.7994,-0.775,0.3494,2799,2019-08-07 16:52:52:593
-3.3416,-11.5658,1.3709,-2.3535,4.0005,2.1484,-0.6865,-0.8336,0.2471,2802,2019-08-07 16:52:52:596
-4.3032,-11.3366,1.8093,-0.8569,3.6052,1.2928,-0.6865,-0.8336,0.2471,2808,2019-08-07 16:52:52:602
-4.3032,-11.3366,1.8093,-0.8569,3.6052,1.2928,-0.5779,-1.0531,0.1662,2813,2019-08-07 16:52:52:607
-4.3224,-10.9309,2.045,-0.8569,3.6052,1.2928,-0.5779,-1.0531,0.1662,2818,2019-08-07 16:52:52:612
-4.3224,-10.9309,2.045,-0.8569,3.6052,1.2928,-0.4873,-1.3268,0.0799,2822,2019-08-07 16:52:52:616
-4.3224,-10.9309,2.045,-1.3525,2.7681,1.418,-0.4873,-1.3268,0.0799,2828,2019-08-07 16:52:52:622
-3.5904,-10.3294,1.7622,-1.3525,2.7681,1.418,-0.449,-1.5122,-0.0096,2833,2019-08-07 16:52:52:627
-3.5904,-10.3294,1.7622,-1.3525,2.7681,1.418,-0.449,-1.5122,-0.0096,2838,2019-08-07 16:52:52:632
-2.6492,-9.8662,1.5734,-1.3525,2.7681,1.418,-0.449,-1.4738,-0.0511,2843,2019-08-07 16:52:52:637
-2.6492,-9.8662,1.5734,-2.7921,1.9939,1.7915,-0.449,-1.4738,-0.0511,2849,2019-08-07 16:52:52:643
-2.6492,-9.8662,1.5734,-2.7921,1.9939,1.7915,-0.449,-1.4738,-0.0511,2852,2019-08-07 16:52:52:646
-1.8168,-9.6323,1.4414,-2.7921,1.9939,1.7915,-0.4362,-1.2427,-0.0735,2858,2019-08-07 16:52:52:652
-1.8168,-9.6323,1.4414,-3.2689,1.7654,1.8815,-0.4362,-1.2427,-0.0735,2862,2019-08-07 16:52:52:656
-1.4005,-9.4652,1.4744,-3.2689,1.7654,1.8815,-0.4106,-0.8997,-0.0874,2868,2019-08-07 16:52:52:662
-1.4005,-9.4652,1.4744,-3.2689,1.7654,1.8815,-0.4106,-0.8997,-0.0874,2873,2019-08-07 16:52:52:667
-1.4005,-9.4652,1.4744,-3.3895,1.5032,1.6832,-0.3797,-0.4139,-0.1204,2878,2019-08-07 16:52:52:672
-1.5776,-9.2313,1.5639,-3.3895,1.5032,1.6832,-0.3797,-0.4139,-0.1204,2883,2019-08-07 16:52:52:677
-1.5776,-9.2313,1.5639,-3.3895,1.5032,1.6832,-0.3307,0.0101,-0.1481,2888,2019-08-07 16:52:52:682
-2.0177,-8.9591,1.8656,-3.3895,1.5032,1.6832,-0.3307,0.0101,-0.1481,2894,2019-08-07 16:52:52:688
-2.0177,-8.9591,1.8656,-3.3895,1.5032,1.6832,-0.2934,0.2061,-0.1545,2897,2019-08-07 16:52:52:691
-2.0177,-8.9591,1.8656,-2.5966,1.02,1.2988,-0.2934,0.2061,-0.1545,2903,2019-08-07 16:52:52:697
-2.8023,-8.8064,2.1956,-2.5966,1.02,1.2988,-0.2934,0.2061,-0.1545,2907,2019-08-07 16:52:52:701
-2.8023,-8.8064,2.1956,-2.5966,1.02,1.2988,-0.2444,0.3808,-0.1587,2913,2019-08-07 16:52:52:707
-2.8023,-8.8064,2.1956,-2.5966,1.02,1.2988,-0.2444,0.3808,-0.1587,2917,2019-08-07 16:52:52:711
-3.8262,-8.6297,3.0865,-1.0076,0.702,0.0792,-0.2061,0.351,-0.1385,2923,2019-08-07 16:52:52:717
-3.8262,-8.6297,3.0865,-1.0076,0.702,0.0792,-0.2061,0.351,-0.1385,2927,2019-08-07 16:52:52:721
-4.6204,-8.3338,3.7417,-1.0076,0.702,0.0792,-0.1731,0.1794,-0.1097,2933,2019-08-07 16:52:52:727
-4.6204,-8.3338,3.7417,-1.0076,0.702,0.0792,-0.1731,0.1794,-0.1097,2938,2019-08-07 16:52:52:732
-4.6204,-8.3338,3.7417,0.0259,0.1772,-0.7148,-0.1496,-0.0858,-0.0788,2943,2019-08-07 16:52:52:737
-4.9074,-7.9662,3.7936,0.0259,0.1772,-0.7148,-0.1496,-0.0858,-0.0788,2949,2019-08-07 16:52:52:743
-4.9074,-7.9662,3.7936,0.0259,0.1772,-0.7148,-0.1645,-0.3777,-0.0447,2953,2019-08-07 16:52:52:747
-4.6012,-7.632,3.539,0.0259,0.1772,-0.7148,-0.1645,-0.3777,-0.0447,2958,2019-08-07 16:52:52:752
-4.6012,-7.632,3.539,-0.3701,-0.3379,-0.2753,-0.1944,-0.5982,-0.0096,2963,2019-08-07 16:52:52:757
-4.6012,-7.632,3.539,-0.3701,-0.3379,-0.2753,-0.1944,-0.5982,-0.0096,2968,2019-08-07 16:52:52:762
-3.7449,-7.8325,3.1101,-0.3701,-0.3379,-0.2753,-0.2039,-0.6855,0.0149,2973,2019-08-07 16:52:52:767
-3.7449,-7.8325,3.1101,-0.3701,-0.3379,-0.2753,-0.2039,-0.6855,0.0149,2978,2019-08-07 16:52:52:772
-2.8646,-8.0903,2.6104,-1.6342,0.038,0.482,-0.1944,-0.5971,0.0224,2984,2019-08-07 16:52:52:778
-2.8646,-8.0903,2.6104,-1.6342,0.038,0.482,-0.1944,-0.5971,0.0224,2988,2019-08-07 16:52:52:782
-2.8646,-8.0903,2.6104,-1.6342,0.038,0.482,-0.1549,-0.3489,0.0234,2993,2019-08-07 16:52:52:787
-2.4866,-8.1762,2.3747,-1.6342,0.038,0.482,-0.1549,-0.3489,0.0234,2999,2019-08-07 16:52:52:793
-2.4866,-8.1762,2.3747,-2.2272,0.1399,0.8514,-0.0836,0.1091,0.0075,3003,2019-08-07 16:52:52:797
-2.4866,-8.1762,2.3747,-2.2272,0.1399,0.8514,-0.0836,0.1091,0.0075,3007,2019-08-07 16:52:52:801
-2.3814,-8.1619,2.0353,-2.3304,0.1561,1.1178,-0.0527,0.3989,-0.0085,3013,2019-08-07 16:52:52:807
-2.3814,-8.1619,2.0353,-2.3304,0.1561,1.1178,-0.0527,0.3989,-0.0085,3017,2019-08-07 16:52:52:811
-2.3814,-8.1619,2.0353,-2.3304,0.1561,1.1178,-0.0133,0.8612,-0.0394,3023,2019-08-07 16:52:52:817
-2.7354,-8.181,2.04,-2.3304,0.1561,1.1178,-0.0133,0.8612,-0.0394,3028,2019-08-07 16:52:52:822
-2.7354,-8.181,2.04,-1.621,0.1746,1.0048,0.0187,1.1552,-0.0607,3033,2019-08-07 16:52:52:827
-2.7354,-8.181,2.04,-1.621,0.1746,1.0048,0.0187,1.1552,-0.0607,3038,2019-08-07 16:52:52:832
-3.721,-8.2669,2.3841,-1.621,0.1746,1.0048,0.0538,1.3001,-0.0735,3043,2019-08-07 16:52:52:837
-3.721,-8.2669,2.3841,-1.621,0.1746,1.0048,0.0538,1.3001,-0.0735,3049,2019-08-07 16:52:52:843
-4.7113,-8.3242,3.0111,0.1468,0.3052,-0.1993,0.0954,1.2096,-0.0533,3053,2019-08-07 16:52:52:847
-4.7113,-8.3242,3.0111,0.1468,0.3052,-0.1993,0.0954,1.2096,-0.0533,3058,2019-08-07 16:52:52:852
-4.7113,-8.3242,3.0111,0.1468,0.3052,-0.1993,0.0954,1.2096,-0.0533,3063,2019-08-07 16:52:52:857
-5.6012,-8.2622,3.7228,0.1468,0.3052,-0.1993,0.1359,0.9155,-0.0096,3067,2019-08-07 16:52:52:861
-5.6012,-8.2622,3.7228,0.7917,0.1933,-0.9212,0.1668,0.5374,0.0288,3073,2019-08-07 16:52:52:867
-5.606,-8.1953,3.836,0.7917,0.1933,-0.9212,0.1668,0.5374,0.0288,3077,2019-08-07 16:52:52:871
-5.606,-8.1953,3.836,0.7917,0.1933,-0.9212,0.1753,0.2199,0.0373,3084,2019-08-07 16:52:52:878
-5.606,-8.1953,3.836,0.7917,0.1933,-0.9212,0.1753,0.2199,0.0373,3088,2019-08-07 16:52:52:882
-5.4051,-7.9423,3.7841,0.4002,-0.0809,-0.8271,0.1753,0.2199,0.0373,3092,2019-08-07 16:52:52:886
-5.4051,-7.9423,3.7841,0.4002,-0.0809,-0.8271,0.1455,-0.0656,0.049,3098,2019-08-07 16:52:52:892
-4.7209,-7.8707,3.3599,0.4002,-0.0809,-0.8271,0.1455,-0.0656,0.049,3103,2019-08-07 16:52:52:897
-4.7209,-7.8707,3.3599,0.4002,-0.0809,-0.8271,0.1231,-0.2637,0.0628,3108,2019-08-07 16:52:52:902
-4.7209,-7.8707,3.3599,-0.7926,0.052,-0.0583,0.1231,-0.2637,0.0628,3112,2019-08-07 16:52:52:906
-3.9746,-8.0664,2.8225,-0.7926,0.052,-0.0583,0.1337,-0.3298,0.0671,3118,2019-08-07 16:52:52:912
-3.9746,-8.0664,2.8225,-0.7926,0.052,-0.0583,0.1337,-0.3298,0.0671,3123,2019-08-07 16:52:52:917
-3.5249,-8.2431,2.4454,-0.7926,0.052,-0.0583,0.155,-0.2328,0.0522,3128,2019-08-07 16:52:52:922
-3.5249,-8.2431,2.4454,-1.333,0.2804,0.6307,0.155,-0.2328,0.0522,3133,2019-08-07 16:52:52:927
-3.5249,-8.2431,2.4454,-1.333,0.2804,0.6307,0.1657,-0.0464,0.0277,3138,2019-08-07 16:52:52:932
-3.6301,-8.2383,2.2427,-1.333,0.2804,0.6307,0.1657,-0.0464,0.0277,3143,2019-08-07 16:52:52:937
-3.6301,-8.2383,2.2427,-1.333,0.2804,0.6307,0.1817,0.1486,0.0075,3149,2019-08-07 16:52:52:943
-4.0129,-8.1285,2.2474,-0.8543,0.1527,0.7414,0.1817,0.1486,0.0075,3153,2019-08-07 16:52:52:947
-4.0129,-8.1285,2.2474,-0.8543,0.1527,0.7414,0.1998,0.3275,-0.0277,3158,2019-08-07 16:52:52:952
-4.0129,-8.1285,2.2474,-0.8543,0.1527,0.7414,0.1998,0.3275,-0.0277,3163,2019-08-07 16:52:52:957
-4.6013,-8.0521,2.5302,-0.8543,0.1527,0.7414,0.1998,0.3275,-0.0277,3168,2019-08-07 16:52:52:962
-4.6013,-8.0521,2.5302,0.0088,0.0826,0.3467,0.2158,0.3478,-0.0511,3172,2019-08-07 16:52:52:966
-4.6013,-8.0521,2.5302,0.0088,0.0826,0.3467,0.2158,0.3478,-0.0511,3178,2019-08-07 16:52:52:972
-4.9697,-7.99,2.6811,0.0088,0.0826,0.3467,0.2179,0.2711,-0.0554,3183,2019-08-07 16:52:52:977
-4.9697,-7.99,2.6811,0.0088,0.0826,0.3467,0.2179,0.2711,-0.0554,3187,2019-08-07 16:52:52:981
-4.9697,-7.99,2.6811,0.1853,-0.0233,0.0514,0.2147,0.2498,-0.0533,3193,2019-08-07 16:52:52:987
-5.1516,-7.8134,3.0205,0.1853,-0.0233,0.0514,0.2147,0.2498,-0.0533,3198,2019-08-07 16:52:52:992
-5.1516,-7.8134,3.0205,0.1745,-0.2539,-0.0422,0.1987,0.0378,-0.0575,3203,2019-08-07 16:52:52:997
-5.1516,-7.8134,3.0205,0.1745,-0.2539,-0.0422,0.1987,0.0378,-0.0575,3207,2019-08-07 16:52:53:001
-4.9745,-7.6654,3.0299,0.1745,-0.2539,-0.0422,0.1827,-0.0592,-0.0543,3213,2019-08-07 16:52:53:007
-4.9745,-7.6654,3.0299,0.1745,-0.2539,-0.0422,0.1827,-0.0592,-0.0543,3218,2019-08-07 16:52:53:012
-4.5296,-7.6606,2.9356,-0.343,-0.2909,0.1086,0.1561,-0.1721,-0.0458,3223,2019-08-07 16:52:53:017
-4.5296,-7.6606,2.9356,-0.343,-0.2909,0.1086,0.1561,-0.1721,-0.0458,3228,2019-08-07 16:52:53:022
-4.5296,-7.6606,2.9356,-0.343,-0.2909,0.1086,0.1476,-0.2083,-0.0437,3234,2019-08-07 16:52:53:028
-4.1421,-7.675,2.7093,-0.343,-0.2909,0.1086,0.1476,-0.2083,-0.0437,3238,2019-08-07 16:52:53:032
-4.1421,-7.675,2.7093,-0.343,-0.2909,0.1086,0.1497,-0.1817,-0.032,3243,2019-08-07 16:52:53:037
-4.1421,-7.675,2.7093,-0.8808,-0.2448,0.4531,0.1497,-0.1817,-0.032,3248,2019-08-07 16:52:53:042
-3.8216,-7.6797,2.4689,-0.8808,-0.2448,0.4531,0.1497,-0.0943,-0.0288,3253,2019-08-07 16:52:53:047
-3.8216,-7.6797,2.4689,-0.8808,-0.2448,0.4531,0.1497,-0.0943,-0.0288,3258,2019-08-07 16:52:53:052
-3.8694,-7.6559,2.5019,-0.8522,-0.3568,0.4772,0.154,0.0047,-0.032,3263,2019-08-07 16:52:53:057
-3.8694,-7.6559,2.5019,-0.8522,-0.3568,0.4772,0.154,0.0047,-0.032,3268,2019-08-07 16:52:53:062
-3.8694,-7.6559,2.5019,-0.8522,-0.3568,0.4772,0.1476,0.0814,-0.0288,3273,2019-08-07 16:52:53:067
-4.4914,-7.5031,2.8743,-0.8522,-0.3568,0.4772,0.1476,0.0814,-0.0288,3279,2019-08-07 16:52:53:073
-4.4914,-7.5031,2.8743,-0.8522,-0.3568,0.4772,0.1369,0.0623,-0.0075,3283,2019-08-07 16:52:53:077
-4.9028,-7.4888,3.1666,-0.0251,-0.4076,0.0451,0.1369,0.0623,-0.0075,3288,2019-08-07 16:52:53:082
-4.9028,-7.4888,3.1666,-0.0251,-0.4076,0.0451,0.1369,0.0623,-0.0075,3293,2019-08-07 16:52:53:087
-4.9028,-7.4888,3.1666,-0.0251,-0.4076,0.0451,0.1252,-0.0293,-0.0085,3297,2019-08-07 16:52:53:091
-5.343,-7.3838,3.3834,-0.0251,-0.4076,0.0451,0.1252,-0.0293,-0.0085,3303,2019-08-07 16:52:53:097
-5.343,-7.3838,3.3834,0.5256,-0.5357,-0.244,0.1146,-0.219,0.0,3307,2019-08-07 16:52:53:101
-5.3382,-7.379,3.4258,0.5256,-0.5357,-0.244,0.1146,-0.219,0.0,3314,2019-08-07 16:52:53:108
-5.3382,-7.379,3.4258,0.5256,-0.5357,-0.244,0.0954,-0.3457,-0.0064,3317,2019-08-07 16:52:53:111
-5.3382,-7.379,3.4258,0.5256,-0.5357,-0.244,0.0954,-0.3457,-0.0064,3323,2019-08-07 16:52:53:117
-4.9602,-7.3933,3.341,0.1399,-0.5263,-0.1348,0.0869,-0.4128,-0.0139,3330,2019-08-07 16:52:53:124
-4.9602,-7.3933,3.341,0.1399,-0.5263,-0.1348,0.0869,-0.4128,-0.0139,3333,2019-08-07 16:52:53:127
-4.9602,-7.3933,3.341,0.1399,-0.5263,-0.1348,0.0815,-0.4128,-0.0309,3338,2019-08-07 16:52:53:132
-4.3718,-7.4506,3.1194,0.1399,-0.5263,-0.1348,0.0815,-0.4128,-0.0309,3343,2019-08-07 16:52:53:137
-4.3718,-7.4506,3.1194,-0.6136,-0.4419,0.2401,0.0815,-0.4128,-0.0309,3348,2019-08-07 16:52:53:142
-3.9699,-7.4697,2.9215,-0.6136,-0.4419,0.2401,0.0826,-0.3063,-0.0479,3352,2019-08-07 16:52:53:146
-3.9699,-7.4697,2.9215,-0.6136,-0.4419,0.2401,0.0826,-0.3063,-0.0479,3358,2019-08-07 16:52:53:152
-3.9699,-7.4697,2.9215,-0.6136,-0.4419,0.2401,0.0752,-0.0911,-0.0788,3362,2019-08-07 16:52:53:156
-3.8455,-7.5031,2.7989,-0.9404,-0.4693,0.4879,0.0752,-0.0911,-0.0788,3368,2019-08-07 16:52:53:162
-3.8455,-7.5031,2.7989,-0.9404,-0.4693,0.4879,0.072,0.1209,-0.0916,3373,2019-08-07 16:52:53:167
-3.7977,-7.5174,2.8413,-0.9404,-0.4693,0.4879,0.072,0.1209,-0.0916,3379,2019-08-07 16:52:53:173
-3.7977,-7.5174,2.8413,-0.9404,-0.4693,0.4879,0.0688,0.3275,-0.0991,3383,2019-08-07 16:52:53:177
-3.7977,-7.5174,2.8413,-0.7813,-0.4143,0.3098,0.0688,0.3275,-0.0991,3388,2019-08-07 16:52:53:182
-3.7977,-7.5174,2.8413,-0.7813,-0.4143,0.3098,0.0688,0.3275,-0.0991,3393,2019-08-07 16:52:53:187
-4.3048,-7.4506,3.1383,-0.3281,-0.5468,0.0613,0.0656,0.5278,-0.1214,3398,2019-08-07 16:52:53:192
-4.3048,-7.4506,3.1383,-0.3281,-0.5468,0.0613,0.0656,0.5278,-0.1214,3403,2019-08-07 16:52:53:197
-4.3048,-7.4506,3.1383,-0.3281,-0.5468,0.0613,0.0517,0.5736,-0.1151,3407,2019-08-07 16:52:53:201
-4.8359,-7.4219,3.4777,-0.3281,-0.5468,0.0613,0.0517,0.5736,-0.1151,3413,2019-08-07 16:52:53:207
-4.8359,-7.4219,3.4777,0.2118,-0.4714,-0.2601,0.0432,0.4958,-0.1033,3418,2019-08-07 16:52:53:212
-4.8359,-7.4219,3.4777,0.2118,-0.4714,-0.2601,0.0432,0.4958,-0.1033,3423,2019-08-07 16:52:53:217
-5.1373,-7.4458,3.4965,0.2118,-0.4714,-0.2601,0.023,0.3701,-0.0959,3428,2019-08-07 16:52:53:222
-5.1373,-7.4458,3.4965,0.2118,-0.4714,-0.2601,0.023,0.3701,-0.0959,3433,2019-08-07 16:52:53:227
-5.2761,-7.4697,3.6379,0.4812,-0.4709,-0.4454,0.023,0.3701,-0.0959,3438,2019-08-07 16:52:53:232
-5.2761,-7.4697,3.6379,0.4812,-0.4709,-0.4454,0.0059,0.188,-0.0842,3443,2019-08-07 16:52:53:237
-5.2761,-7.4697,3.6379,0.4812,-0.4709,-0.4454,0.0059,0.188,-0.0842,3448,2019-08-07 16:52:53:242
-5.1038,-7.5222,3.5484,0.4812,-0.4709,-0.4454,-0.0015,0.0229,-0.0692,3453,2019-08-07 16:52:53:247
-5.1038,-7.5222,3.5484,0.1261,-0.3846,-0.149,-0.0015,0.0229,-0.0692,3458,2019-08-07 16:52:53:252
-4.7929,-7.5508,3.308,0.1261,-0.3846,-0.149,-0.0015,-0.0805,-0.0565,3463,2019-08-07 16:52:53:257
-4.7929,-7.5508,3.308,0.1261,-0.3846,-0.149,-0.0015,-0.0805,-0.0565,3469,2019-08-07 16:52:53:263
-4.7929,-7.5508,3.308,0.1261,-0.3846,-0.149,0.0048,-0.0762,-0.049,3472,2019-08-07 16:52:53:266
-4.1996,-7.6559,3.1336,-0.6296,-0.3038,0.1711,0.0048,-0.0762,-0.049,3478,2019-08-07 16:52:53:272
-4.1996,-7.6559,3.1336,-0.6296,-0.3038,0.1711,0.0038,0.0047,-0.0501,3483,2019-08-07 16:52:53:277
-3.9461,-7.6941,2.8649,-0.6296,-0.3038,0.1711,0.0038,0.0047,-0.0501,3488,2019-08-07 16:52:53:282
-3.9461,-7.6941,2.8649,-0.6296,-0.3038,0.1711,0.0027,0.1209,-0.0714,3493,2019-08-07 16:52:53:287
-3.9461,-7.6941,2.8649,-0.7246,-0.2594,0.4303,0.0027,0.1209,-0.0714,3498,2019-08-07 16:52:53:292
-4.1087,-7.6463,2.7565,-0.7246,-0.2594,0.4303,0.0027,0.1209,-0.0714,3503,2019-08-07 16:52:53:297
-4.1087,-7.6463,2.7565,-0.7246,-0.2594,0.4303,0.0155,0.2647,-0.0874,3507,2019-08-07 16:52:53:301
-4.4293,-7.6559,2.8602,-0.7246,-0.2594,0.4303,0.0155,0.2647,-0.0874,3513,2019-08-07 16:52:53:307
-4.4293,-7.6559,2.8602,-0.2285,-0.3062,0.2085,0.023,0.3009,-0.0884,3518,2019-08-07 16:52:53:312
-4.4293,-7.6559,2.8602,-0.2285,-0.3062,0.2085,0.023,0.3009,-0.0884,3522,2019-08-07 16:52:53:316
-4.5585,-7.6941,3.1194,-0.2285,-0.3062,0.2085,0.0336,0.2785,-0.0767,3528,2019-08-07 16:52:53:322
-4.5585,-7.6941,3.1194,-0.2285,-0.3062,0.2085,0.0336,0.2785,-0.0767,3533,2019-08-07 16:52:53:327
-4.5585,-7.6941,3.1194,-0.1238,-0.2826,0.0934,0.04,0.2359,-0.0692,3538,2019-08-07 16:52:53:332
-4.6733,-7.6272,3.1288,-0.1238,-0.2826,0.0934,0.04,0.2359,-0.0692,3543,2019-08-07 16:52:53:337
-4.6733,-7.6272,3.1288,-0.1238,-0.2826,0.0934,0.04,0.2359,-0.0692,3548,2019-08-07 16:52:53:342
-4.7164,-7.4935,3.1666,-0.0829,-0.4081,-0.0879,0.04,0.188,-0.0586,3553,2019-08-07 16:52:53:347
-4.7164,-7.4935,3.1666,-0.0829,-0.4081,-0.0879,0.04,0.188,-0.0586,3558,2019-08-07 16:52:53:352
-4.7164,-7.4935,3.1666,-0.0829,-0.4081,-0.0879,0.0283,0.123,-0.0394,3563,2019-08-07 16:52:53:357
-4.7594,-7.5079,3.176,-0.0379,-0.428,-0.0708,0.0283,0.123,-0.0394,3568,2019-08-07 16:52:53:362
-4.7594,-7.5079,3.176,-0.0379,-0.428,-0.0708,0.0134,0.0346,-0.0266,3573,2019-08-07 16:52:53:367
-4.6398,-7.5365,3.0487,-0.0379,-0.428,-0.0708,0.0134,0.0346,-0.0266,3579,2019-08-07 16:52:53:373
-4.6398,-7.5365,3.0487,-0.0379,-0.428,-0.0708,-0.0015,-0.0144,-0.0171,3583,2019-08-07 16:52:53:377
-4.6398,-7.5365,3.0487,-0.3031,-0.2768,0.2218,-0.0015,-0.0144,-0.0171,3588,2019-08-07 16:52:53:382
-4.415,-7.6797,2.846,-0.3031,-0.2768,0.2218,-0.0101,-0.0187,-0.0139,3593,2019-08-07 16:52:53:387
-4.415,-7.6797,2.846,-0.3031,-0.2768,0.2218,-0.0101,-0.0187,-0.0139,3597,2019-08-07 16:52:53:391
-4.2906,-7.6988,2.8507,-0.3031,-0.2768,0.2218,-0.0069,0.0324,-0.016,3603,2019-08-07 16:52:53:397
-4.2906,-7.6988,2.8507,-0.3031,-0.2768,0.2218,-0.0069,0.0324,-0.016,3608,2019-08-07 16:52:53:402
-4.2906,-7.6988,2.8507,-0.4531,-0.2658,0.3545,-0.0079,0.0878,-0.0192,3612,2019-08-07 16:52:53:406
-4.3432,-7.8182,2.7847,-0.4531,-0.2658,0.3545,-0.0079,0.0878,-0.0192,3618,2019-08-07 16:52:53:412
-4.3432,-7.8182,2.7847,-0.4531,-0.2658,0.3545,-0.0207,0.1699,-0.0288,3623,2019-08-07 16:52:53:417
-4.2667,-7.8038,2.7706,-0.4531,-0.2658,0.3545,-0.0207,0.1699,-0.0288,3628,2019-08-07 16:52:53:422
-4.2667,-7.8038,2.7706,-0.5184,-0.1566,0.3692,-0.0197,0.237,-0.0373,3633,2019-08-07 16:52:53:427
-4.2667,-7.8038,2.7706,-0.5184,-0.1566,0.3692,-0.0197,0.237,-0.0373,3637,2019-08-07 16:52:53:431
-4.3528,-7.7991,2.5915,-0.5184,-0.1566,0.3692,-0.0175,0.3083,-0.0447,3643,2019-08-07 16:52:53:437
-4.3528,-7.7991,2.5915,-0.5184,-0.1566,0.3692,-0.0175,0.3083,-0.0447,3648,2019-08-07 16:52:53:442
-4.3528,-7.7991,2.5915,-0.303,-0.2018,0.3366,-0.0175,0.3083,-0.0447,3653,2019-08-07 16:52:53:447
-4.6781,-7.8086,2.8649,-0.303,-0.2018,0.3366,-0.0175,0.3446,-0.0501,3658,2019-08-07 16:52:53:452
-4.6781,-7.8086,2.8649,-0.303,-0.2018,0.3366,-0.0175,0.3446,-0.0501,3664,2019-08-07 16:52:53:458
-4.8504,-7.7322,3.011,-0.303,-0.2018,0.3366,-0.0133,0.3009,-0.0373,3667,2019-08-07 16:52:53:461
-4.8504,-7.7322,3.011,0.0998,-0.2593,-0.0654,-0.0133,0.3009,-0.0373,3673,2019-08-07 16:52:53:467
-4.8504,-7.7322,3.011,0.0998,-0.2593,-0.0654,-0.0111,0.1794,-0.0213,3678,2019-08-07 16:52:53:472
-4.9317,-7.7466,3.044,0.0998,-0.2593,-0.0654,-0.0111,0.1794,-0.0213,3683,2019-08-07 16:52:53:477
-4.9317,-7.7466,3.044,0.0998,-0.2593,-0.0654,-0.0111,0.1794,-0.0213,3688,2019-08-07 16:52:53:482
-4.9939,-7.6845,3.0723,0.1676,-0.3039,-0.0552,-5.0E-4,0.0729,-0.016,3693,2019-08-07 16:52:53:487
-4.9939,-7.6845,3.0723,0.1676,-0.3039,-0.0552,-5.0E-4,0.0729,-0.016,3699,2019-08-07 16:52:53:493
-4.9939,-7.6845,3.0723,0.1676,-0.3039,-0.0552,0.0027,-0.0176,-0.0117,3702,2019-08-07 16:52:53:496
-4.8935,-7.7179,2.9827,0.1676,-0.3039,-0.0552,0.0027,-0.0176,-0.0117,3708,2019-08-07 16:52:53:502
-4.8935,-7.7179,2.9827,0.0057,-0.2896,0.1487,6.0E-4,-0.1018,-0.0043,3713,2019-08-07 16:52:53:507
-4.6016,-7.7561,2.8601,0.0057,-0.2896,0.1487,6.0E-4,-0.1018,-0.0043,3718,2019-08-07 16:52:53:512
-4.6016,-7.7561,2.8601,0.0057,-0.2896,0.1487,0.0048,-0.1188,0.0,3722,2019-08-07 16:52:53:516
-4.6016,-7.7561,2.8601,0.0057,-0.2896,0.1487,0.0048,-0.1188,0.0,3728,2019-08-07 16:52:53:522
-4.2955,-7.8325,2.6574,-0.503,-0.1663,0.3808,0.0198,-0.0602,-0.0096,3733,2019-08-07 16:52:53:527
-4.2955,-7.8325,2.6574,-0.503,-0.1663,0.3808,0.0198,-0.0602,-0.0096,3738,2019-08-07 16:52:53:532
-4.1806,-7.8182,2.4783,-0.503,-0.1663,0.3808,0.0198,-0.0602,-0.0096,3744,2019-08-07 16:52:53:538
-4.1806,-7.8182,2.4783,-0.503,-0.1663,0.3808,0.0176,0.0527,-0.016,3748,2019-08-07 16:52:53:542
-4.1806,-7.8182,2.4783,-0.5699,-0.1881,0.504,0.0176,0.0527,-0.016,3753,2019-08-07 16:52:53:547
-4.2811,-7.8182,2.6433,-0.5699,-0.1881,0.504,0.0176,0.0527,-0.016,3757,2019-08-07 16:52:53:551
-4.2811,-7.8182,2.6433,-0.5699,-0.1881,0.504,0.0198,0.1496,-0.0181,3763,2019-08-07 16:52:53:557
-4.3959,-7.7513,2.7376,-0.5699,-0.1881,0.504,0.0198,0.1496,-0.0181,3768,2019-08-07 16:52:53:562
-4.3959,-7.7513,2.7376,-0.3544,-0.2381,0.203,0.0219,0.2093,-0.0202,3773,2019-08-07 16:52:53:567
-4.3959,-7.7513,2.7376,-0.3544,-0.2381,0.203,0.0219,0.2093,-0.0202,3778,2019-08-07 16:52:53:572
-4.6399,-7.6988,2.7847,-0.3544,-0.2381,0.203,0.0198,0.2125,-0.0192,3783,2019-08-07 16:52:53:577
-4.6399,-7.6988,2.7847,-0.3544,-0.2381,0.203,0.0198,0.2125,-0.0192,3788,2019-08-07 16:52:53:582
-4.6399,-7.6988,2.7847,-0.168,-0.3152,0.0631,0.0091,0.1731,-0.0107,3793,2019-08-07 16:52:53:587
-4.6399,-7.6893,2.9214,-0.168,-0.3152,0.0631,0.0091,0.1731,-0.0107,3798,2019-08-07 16:52:53:592
-4.6399,-7.6893,2.9214,-0.168,-0.3152,0.0631,0.0091,0.1731,-0.0107,3803,2019-08-07 16:52:53:597
-4.5634,-7.6749,2.9733,-0.168,-0.3152,0.0631,0.0038,0.1059,0.0021,3808,2019-08-07 16:52:53:602
-4.5634,-7.6749,2.9733,-0.2752,-0.3057,0.1229,0.0038,0.1059,0.0021,3813,2019-08-07 16:52:53:607
-4.5634,-7.6749,2.9733,-0.2752,-0.3057,0.1229,0.0091,0.0644,0.0138,3817,2019-08-07 16:52:53:611
-4.5634,-7.7131,2.7659,-0.2752,-0.3057,0.1229,0.0091,0.0644,0.0138,3823,2019-08-07 16:52:53:617
-4.5634,-7.7131,2.7659,-0.2752,-0.3057,0.1229,-5.0E-4,0.0601,0.0288,3827,2019-08-07 16:52:53:621
-4.5634,-7.7131,2.7659,-0.1725,-0.3176,0.1079,-5.0E-4,0.0601,0.0288,3833,2019-08-07 16:52:53:627
-4.6256,-7.7084,2.945,-0.1725,-0.3176,0.1079,-0.0026,0.0399,0.0447,3838,2019-08-07 16:52:53:632
-4.6256,-7.7084,2.945,-0.1687,-0.263,0.0727,-0.0026,0.0399,0.0447,3843,2019-08-07 16:52:53:637
-4.6341,-7.7514,2.9829,-0.1687,-0.263,0.0727,0.0091,-0.0038,0.0543,3848,2019-08-07 16:52:53:642
-4.6341,-7.7514,2.9829,-0.1687,-0.263,0.0727,0.0091,-0.0038,0.0543,3853,2019-08-07 16:52:53:647
-4.6341,-7.7514,2.9829,-0.1687,-0.263,0.0727,0.0091,-0.0038,0.0543,3857,2019-08-07 16:52:53:651
-4.6006,-7.6607,2.8226,-0.253,-0.3383,0.104,0.0219,-0.0112,0.0511,3863,2019-08-07 16:52:53:657
-4.6006,-7.6607,2.8226,-0.253,-0.3383,0.104,0.0219,-0.0112,0.0511,3867,2019-08-07 16:52:53:661
-4.5767,-7.6703,2.7566,-0.253,-0.3383,0.104,0.0262,0.0218,0.0458,3873,2019-08-07 16:52:53:667
-4.5767,-7.6703,2.7566,-0.253,-0.3383,0.104,0.0262,0.0218,0.0458,3878,2019-08-07 16:52:53:672
-4.5767,-7.6703,2.7566,-0.3614,-0.2947,0.2376,0.0251,0.0516,0.0362,3883,2019-08-07 16:52:53:677
-4.5384,-7.7371,2.7142,-0.3614,-0.2947,0.2376,0.0251,0.0516,0.0362,3888,2019-08-07 16:52:53:682
-4.5384,-7.7371,2.7142,-0.3614,-0.2947,0.2376,0.023,0.0793,0.0245,3894,2019-08-07 16:52:53:688
-4.5384,-7.7371,2.7142,-0.3614,-0.2947,0.2376,0.023,0.0793,0.0245,3899,2019-08-07 16:52:53:693
-4.6245,-7.7848,2.7378,-0.212,-0.239,0.1854,0.0208,0.1059,0.0192,3903,2019-08-07 16:52:53:697
-4.6245,-7.7848,2.7378,-0.212,-0.239,0.1854,0.0208,0.1059,0.0192,3909,2019-08-07 16:52:53:703
-4.6628,-7.6989,3.0348,-0.212,-0.239,0.1854,0.0219,0.1049,0.0245,3913,2019-08-07 16:52:53:707
-4.6628,-7.6989,3.0348,-0.212,-0.239,0.1854,0.0219,0.1049,0.0245,3918,2019-08-07 16:52:53:712
-4.6628,-7.6989,3.0348,-0.1883,-0.3067,-0.0088,0.0272,0.0804,0.0277,3923,2019-08-07 16:52:53:717
-4.6341,-7.6321,2.9593,-0.1883,-0.3067,-0.0088,0.0272,0.0804,0.0277,3927,2019-08-07 16:52:53:721
-4.6341,-7.6321,2.9593,-0.1883,-0.3067,-0.0088,0.0262,0.0484,0.0373,3933,2019-08-07 16:52:53:727
-4.6341,-7.6321,2.9593,-0.1883,-0.3067,-0.0088,0.0262,0.0484,0.0373,3937,2019-08-07 16:52:53:731
-4.6293,-7.761,2.8604,-0.1883,-0.3067,-0.0088,0.0262,0.0484,0.0373,3943,2019-08-07 16:52:53:737
-4.6293,-7.761,2.8604,-0.2875,-0.2542,0.0564,0.0198,0.0218,0.0469,3948,2019-08-07 16:52:53:742
-4.6054,-7.7705,2.8651,-0.2875,-0.2542,0.0564,0.0198,0.0218,0.0469,3953,2019-08-07 16:52:53:747
-4.6054,-7.7705,2.8651,-0.2875,-0.2542,0.0564,0.0283,-0.0123,0.0597,3958,2019-08-07 16:52:53:752
-4.6054,-7.7705,2.8651,-0.2875,-0.2542,0.0564,0.0283,-0.0123,0.0597,3963,2019-08-07 16:52:53:757
-4.6197,-7.7371,2.9829,-0.2572,-0.2334,0.0043,0.0272,-0.0357,0.0682,3968,2019-08-07 16:52:53:762
-4.6197,-7.7371,2.9829,-0.2572,-0.2334,0.0043,0.0272,-0.0357,0.0682,3972,2019-08-07 16:52:53:766
-4.5049,-7.7467,2.8745,-0.2572,-0.2334,0.0043,0.0198,-0.0485,0.0767,3978,2019-08-07 16:52:53:772
-4.5049,-7.7467,2.8745,-0.2572,-0.2334,0.0043,0.0198,-0.0485,0.0767,3983,2019-08-07 16:52:53:777
-4.5049,-7.7467,2.8745,-0.461,-0.1923,0.2243,0.0219,-0.023,0.0703,3988,2019-08-07 16:52:53:782
-4.4379,-7.7323,2.7802,-0.461,-0.1923,0.2243,0.0219,-0.023,0.0703,3993,2019-08-07 16:52:53:787
-4.4379,-7.7323,2.7802,-0.461,-0.1923,0.2243,0.024,0.0165,0.0639,3998,2019-08-07 16:52:53:792
-4.4188,-7.7419,2.6435,-0.461,-0.1923,0.2243,0.024,0.0165,0.0639,4002,2019-08-07 16:52:53:796
-4.4188,-7.7419,2.6435,-0.4268,-0.162,0.3022,0.024,0.0165,0.0639,4008,2019-08-07 16:52:53:802
-4.4188,-7.7419,2.6435,-0.4268,-0.162,0.3022,0.0102,0.0527,0.0501,4013,2019-08-07 16:52:53:807
-4.4618,-7.8517,2.8274,-0.4268,-0.162,0.3022,0.0102,0.0527,0.0501,4018,2019-08-07 16:52:53:812
-4.4618,-7.8517,2.8274,-0.4268,-0.162,0.3022,0.0112,0.0772,0.0362,4022,2019-08-07 16:52:53:816
-4.4762,-7.718,2.7755,-0.4262,-0.2347,0.2172,0.0112,0.0772,0.0362,4028,2019-08-07 16:52:53:822
-4.4762,-7.718,2.7755,-0.4262,-0.2347,0.2172,0.0166,0.1027,0.033,4033,2019-08-07 16:52:53:827
-4.5049,-7.7323,2.7991,-0.4262,-0.2347,0.2172,0.0166,0.1027,0.033,4037,2019-08-07 16:52:53:831
-4.5049,-7.7323,2.7991,-0.4262,-0.2347,0.2172,0.0134,0.1038,0.032,4043,2019-08-07 16:52:53:837
-4.5049,-7.7323,2.7991,-0.3451,-0.2173,0.2094,0.0134,0.1038,0.032,4047,2019-08-07 16:52:53:841
-4.5814,-7.7514,2.8839,-0.3451,-0.2173,0.2094,0.0134,0.1038,0.032,4053,2019-08-07 16:52:53:847
-4.5814,-7.7514,2.8839,-0.3451,-0.2173,0.2094,0.0038,0.0814,0.0415,4058,2019-08-07 16:52:53:852
-4.6292,-7.6703,2.9311,-0.3124,-0.2613,0.0561,0.0048,0.0655,0.049,4065,2019-08-07 16:52:53:859
-4.6292,-7.6703,2.9311,-0.3124,-0.2613,0.0561,0.0048,0.0655,0.049,4067,2019-08-07 16:52:53:861
-4.6292,-7.6703,2.9311,-0.3124,-0.2613,0.0561,0.0048,0.0655,0.049,4073,2019-08-07 16:52:53:867
-4.5958,-7.6512,2.9264,-0.3124,-0.2613,0.0561,0.0027,0.0463,0.0554,4077,2019-08-07 16:52:53:871
-4.5958,-7.6512,2.9264,-0.3124,-0.2613,0.0561,0.0027,0.0463,0.0554,4083,2019-08-07 16:52:53:877
-4.5958,-7.6512,2.9264,-0.3184,-0.2562,0.184,6.0E-4,0.0292,0.0597,4088,2019-08-07 16:52:53:882
-4.5862,-7.7037,2.7567,-0.3184,-0.2562,0.184,6.0E-4,0.0292,0.0597,4092,2019-08-07 16:52:53:886
-4.5862,-7.7037,2.7567,-0.3184,-0.2562,0.184,-5.0E-4,0.0367,0.0554,4098,2019-08-07 16:52:53:892
-4.6388,-7.6655,2.7897,-0.3184,-0.2562,0.184,-5.0E-4,0.0367,0.0554,4103,2019-08-07 16:52:53:897
-4.6388,-7.6655,2.7897,-0.3193,-0.2751,0.3024,-5.0E-4,0.0367,0.0554,4108,2019-08-07 16:52:53:902
-4.6388,-7.6655,2.7897,-0.3193,-0.2751,0.3024,-0.0037,0.0569,0.0501,4113,2019-08-07 16:52:53:907
-4.6484,-7.6416,2.7425,-0.3193,-0.2751,0.3024,-0.0037,0.0569,0.0501,4117,2019-08-07 16:52:53:911
-4.6484,-7.6416,2.7425,-0.3193,-0.2751,0.3024,-0.0069,0.0825,0.0458,4123,2019-08-07 16:52:53:917
-4.6484,-7.6416,2.7425,-0.2586,-0.2188,0.2327,-0.0069,0.0825,0.0458,4128,2019-08-07 16:52:53:922
-4.6818,-7.7371,2.6718,-0.2586,-0.2188,0.2327,-0.0101,0.1049,0.0383,4133,2019-08-07 16:52:53:927
-4.6818,-7.7371,2.6718,-0.2586,-0.2188,0.2327,-0.0101,0.1049,0.0383,4138,2019-08-07 16:52:53:932
-4.7871,-7.7419,2.7048,-0.2586,-0.2188,0.2327,-0.0069,0.1155,0.0309,4143,2019-08-07 16:52:53:937
-4.7871,-7.7419,2.7048,-0.1983,-0.1593,0.243,-0.0069,0.1155,0.0309,4148,2019-08-07 16:52:53:942
-4.7871,-7.7419,2.7048,-0.1983,-0.1593,0.243,-0.0058,0.1177,0.033,4153,2019-08-07 16:52:53:947
-4.6818,-7.7753,2.7991,-0.1983,-0.1593,0.243,-0.0058,0.1177,0.033,4158,2019-08-07 16:52:53:952
-4.6818,-7.7753,2.7991,-0.1983,-0.1593,0.243,-0.0058,0.1177,0.033,4163,2019-08-07 16:52:53:957
-4.6818,-7.7753,2.7991,-0.2666,-0.1237,0.1032,0.0027,0.1145,0.0288,4167,2019-08-07 16:52:53:961
-4.7775,-7.7705,2.818,-0.2666,-0.1237,0.1032,0.0027,0.1145,0.0288,4173,2019-08-07 16:52:53:967
-4.7775,-7.7705,2.818,-0.2666,-0.1237,0.1032,0.007,0.1059,0.0277,4178,2019-08-07 16:52:53:972
-4.9115,-7.7705,2.8604,-0.2666,-0.1237,0.1032,0.007,0.1059,0.0277,4182,2019-08-07 16:52:53:976
-4.9115,-7.7705,2.8604,-0.0142,-0.1873,0.0277,0.007,0.1059,0.0277,4188,2019-08-07 16:52:53:982
-4.9115,-7.7705,2.8604,-0.0142,-0.1873,0.0277,0.0134,0.0548,0.0341,4193,2019-08-07 16:52:53:987
-4.988,-7.718,2.884,-0.0142,-0.1873,0.0277,0.0134,0.0548,0.0341,4198,2019-08-07 16:52:53:992
-4.988,-7.718,2.884,-0.0142,-0.1873,0.0277,0.0198,0.0154,0.0362,4203,2019-08-07 16:52:53:997
-4.8971,-7.7514,2.8745,-0.0984,-0.1682,0.0512,0.0198,0.0154,0.0362,4207,2019-08-07 16:52:54:001
-4.8971,-7.7514,2.8745,-0.0984,-0.1682,0.0512,0.024,-0.024,0.0373,4213,2019-08-07 16:52:54:007
-4.8971,-7.7514,2.8745,-0.0984,-0.1682,0.0512,0.024,-0.024,0.0373,4217,2019-08-07 16:52:54:011
-4.8062,-7.761,2.7095,-0.0984,-0.1682,0.0512,0.0347,-0.023,0.0352,4223,2019-08-07 16:52:54:017
-4.8062,-7.761,2.7095,-0.2648,-0.1395,0.2653,0.0347,-0.023,0.0352,4228,2019-08-07 16:52:54:022
-4.744,-7.7276,2.7897,-0.2648,-0.1395,0.2653,0.0379,0.0037,0.0277,4233,2019-08-07 16:52:54:027
-4.744,-7.7276,2.7897,-0.2648,-0.1395,0.2653,0.0379,0.0037,0.0277,4237,2019-08-07 16:52:54:031
-4.744,-7.7276,2.7897,-0.2648,-0.1395,0.2653,0.0379,0.0037,0.0277,4243,2019-08-07 16:52:54:037
-4.6722,-7.7658,2.7614,-0.3738,-0.1405,0.156,0.0411,0.042,0.0181,4248,2019-08-07 16:52:54:042
-4.6722,-7.7658,2.7614,-0.3738,-0.1405,0.156,0.0411,0.042,0.0181,4253,2019-08-07 16:52:54:047
-4.7248,-7.7514,2.8415,-0.3738,-0.1405,0.156,0.0485,0.0729,0.0117,4259,2019-08-07 16:52:54:053
-4.7248,-7.7514,2.8415,-0.2806,-0.158,0.095,0.0485,0.0729,0.0117,4264,2019-08-07 16:52:54:058
-4.7248,-7.7514,2.8415,-0.2806,-0.158,0.095,0.0517,0.091,0.0064,4269,2019-08-07 16:52:54:063
-4.8731,-7.7514,2.9075,-0.2806,-0.158,0.095,0.0517,0.091,0.0064,4273,2019-08-07 16:52:54:067
-4.8731,-7.7514,2.9075,-0.2806,-0.158,0.095,0.0517,0.091,0.0064,4277,2019-08-07 16:52:54:071
-4.921,-7.6798,3.0395,-0.114,-0.1879,-0.0703,0.0517,0.0825,0.0043,4284,2019-08-07 16:52:54:078
-4.921,-7.6798,3.0395,-0.114,-0.1879,-0.0703,0.0485,0.0239,0.0053,4288,2019-08-07 16:52:54:082
-4.921,-7.6798,3.0395,-0.114,-0.1879,-0.0703,0.0485,0.0239,0.0053,4292,2019-08-07 16:52:54:086
-4.8779,-7.656,3.0159,-0.114,-0.1879,-0.0703,0.0485,0.0239,0.0053,4297,2019-08-07 16:52:54:091
-4.8779,-7.656,3.0159,-0.1405,-0.2316,-0.0779,0.0485,-0.0283,0.0117,4303,2019-08-07 16:52:54:097
-4.8779,-7.656,3.0159,-0.1405,-0.2316,-0.0779,0.0485,-0.0283,0.0117,4307,2019-08-07 16:52:54:101
-4.8779,-7.656,3.0159,-0.1405,-0.2316,-0.0779,0.0485,-0.0283,0.0117,4313,2019-08-07 16:52:54:107
-4.6913,-7.6178,2.9358,-0.3219,-0.282,0.0133,0.0464,-0.0549,0.017,4318,2019-08-07 16:52:54:112
-4.6913,-7.6178,2.9358,-0.3219,-0.282,0.0133,0.04,-0.0592,0.0298,4323,2019-08-07 16:52:54:117
-4.5334,-7.613,2.9358,-0.5169,-0.2871,0.0271,0.04,-0.0592,0.0298,4328,2019-08-07 16:52:54:122
-4.5334,-7.613,2.9358,-0.5169,-0.2871,0.0271,0.04,-0.0592,0.0298,4333,2019-08-07 16:52:54:127
-4.3851,-7.6655,2.8321,-0.5169,-0.2871,0.0271,0.0389,-0.0475,0.0405,4338,2019-08-07 16:52:54:132
-4.3851,-7.6655,2.8321,-0.5169,-0.2871,0.0271,0.0389,-0.0475,0.0405,4343,2019-08-07 16:52:54:137
-4.3851,-7.6655,2.8321,-0.5169,-0.2871,0.0271,0.0389,-0.0283,0.0426,4347,2019-08-07 16:52:54:141
-4.4664,-7.6751,2.7284,-0.5763,-0.2534,0.2398,0.0389,-0.0283,0.0426,4353,2019-08-07 16:52:54:147
-4.4664,-7.6751,2.7284,-0.5763,-0.2534,0.2398,0.0379,0.0356,0.0458,4358,2019-08-07 16:52:54:152
-4.4664,-7.6751,2.7284,-0.4603,-0.2268,0.1704,0.0379,0.0356,0.0458,4363,2019-08-07 16:52:54:157
-4.7009,-7.6512,2.7991,-0.4603,-0.2268,0.1704,0.0368,0.0708,0.0415,4368,2019-08-07 16:52:54:162
-4.7009,-7.6512,2.7991,-0.4603,-0.2268,0.1704,0.0368,0.0708,0.0415,4373,2019-08-07 16:52:54:167
-4.8635,-7.6321,2.8274,-0.4603,-0.2268,0.1704,0.0389,0.0793,0.0447,4378,2019-08-07 16:52:54:172
-4.8635,-7.6321,2.8274,-0.1312,-0.2494,0.1592,0.0411,0.0633,0.0383,4384,2019-08-07 16:52:54:178
-4.8635,-7.6321,2.8274,-0.1312,-0.2494,0.1592,0.0411,0.0633,0.0383,4388,2019-08-07 16:52:54:182
-4.9066,-7.6512,2.785,-0.1312,-0.2494,0.1592,0.0411,0.0633,0.0383,4394,2019-08-07 16:52:54:188
-4.9066,-7.6512,2.785,-0.1312,-0.2494,0.1592,0.0411,0.0644,0.0288,4398,2019-08-07 16:52:54:192
-4.9066,-7.6512,2.785,-0.1741,-0.2149,0.1258,0.0411,0.0644,0.0288,4403,2019-08-07 16:52:54:197
-4.9066,-7.6512,2.785,-0.1741,-0.2149,0.1258,0.0411,0.0644,0.0288,4409,2019-08-07 16:52:54:203
-4.9113,-7.6273,2.7991,-0.1741,-0.2149,0.1258,0.0411,0.0495,0.0181,4413,2019-08-07 16:52:54:207
-4.9113,-7.6273,2.7991,-0.1741,-0.2149,0.1258,0.0411,0.0495,0.0181,4419,2019-08-07 16:52:54:213
-4.9113,-7.6273,2.7991,-0.0896,-0.2772,0.0986,0.0443,0.0143,0.0138,4422,2019-08-07 16:52:54:216
-4.9113,-7.6273,2.7991,-0.0896,-0.2772,0.0986,0.0443,0.0143,0.0138,4428,2019-08-07 16:52:54:222
-4.9496,-7.6369,2.8557,-0.0896,-0.2772,0.0986,0.0453,-0.0112,0.0117,4433,2019-08-07 16:52:54:227
-4.9496,-7.6369,2.8557,-0.0896,-0.2772,0.0986,0.0453,-0.0112,0.0117,4437,2019-08-07 16:52:54:231
-5.0214,-7.5987,2.7614,-0.0252,-0.2683,0.2184,0.0453,-0.0112,0.0117,4443,2019-08-07 16:52:54:237
-5.0214,-7.5987,2.7614,-0.0252,-0.2683,0.2184,0.0411,-0.0421,0.0107,4448,2019-08-07 16:52:54:242
-4.9113,-7.6035,2.7756,-0.0252,-0.2683,0.2184,0.0411,-0.0421,0.0107,4453,2019-08-07 16:52:54:247
-4.9113,-7.6035,2.7756,-0.0252,-0.2683,0.2184,0.0357,-0.0688,0.0021,4458,2019-08-07 16:52:54:252
-4.9113,-7.6035,2.7756,-0.1715,-0.2224,0.1774,0.0357,-0.0688,0.0021,4463,2019-08-07 16:52:54:257
-4.8013,-7.6751,2.785,-0.1715,-0.2224,0.1774,0.0336,-0.0752,-0.0096,4468,2019-08-07 16:52:54:262
-4.8013,-7.6751,2.785,-0.1715,-0.2224,0.1774,0.0336,-0.0752,-0.0096,4473,2019-08-07 16:52:54:267
-4.7104,-7.6608,2.7096,-0.1715,-0.2224,0.1774,0.0272,-0.057,-0.0192,4478,2019-08-07 16:52:54:272
-4.7104,-7.6608,2.7096,-0.3656,-0.2469,0.3384,0.0272,-0.057,-0.0192,4483,2019-08-07 16:52:54:277
-4.7104,-7.6608,2.7096,-0.3656,-0.2469,0.3384,0.0272,-0.057,-0.0192,4487,2019-08-07 16:52:54:281
-4.5908,-7.6082,2.7379,-0.4437,-0.2575,0.2655,0.0272,-6.0E-4,-0.0266,4493,2019-08-07 16:52:54:287
-4.5908,-7.6082,2.7379,-0.4437,-0.2575,0.2655,0.0272,0.0303,-0.033,4498,2019-08-07 16:52:54:292
-4.5908,-7.6082,2.7379,-0.4437,-0.2575,0.2655,0.0272,0.0303,-0.033,4503,2019-08-07 16:52:54:297
-4.7056,-7.5987,2.8557,-0.4437,-0.2575,0.2655,0.0272,0.0303,-0.033,4507,2019-08-07 16:52:54:301
-4.7056,-7.5987,2.8557,-0.2721,-0.2748,0.1798,0.0208,0.0591,-0.0362,4513,2019-08-07 16:52:54:307
-4.7056,-7.5987,2.8557,-0.2721,-0.2748,0.1798,0.0208,0.0591,-0.0362,4517,2019-08-07 16:52:54:311
-4.8108,-7.5844,2.9028,-0.2721,-0.2748,0.1798,0.0187,0.0591,-0.0341,4523,2019-08-07 16:52:54:317
-4.8108,-7.5844,2.9028,-0.2721,-0.2748,0.1798,0.0187,0.0591,-0.0341,4527,2019-08-07 16:52:54:321
-4.8395,-7.5653,2.9028,-0.1887,-0.3057,0.0973,0.0155,0.0356,-0.0298,4533,2019-08-07 16:52:54:327
-4.8395,-7.5653,2.9028,-0.1887,-0.3057,0.0973,0.0155,0.0356,-0.0298,4538,2019-08-07 16:52:54:332
-4.8395,-7.5653,2.9028,-0.1887,-0.3057,0.0973,0.0091,-0.007,-0.0213,4542,2019-08-07 16:52:54:336
-4.8682,-7.5557,2.9547,-0.1585,-0.3159,0.0463,0.0091,-0.007,-0.0213,4549,2019-08-07 16:52:54:343
-4.8682,-7.5557,2.9547,-0.1585,-0.3159,0.0463,0.0059,-0.0517,-0.0107,4553,2019-08-07 16:52:54:347
-4.8682,-7.5557,2.9547,-0.1585,-0.3159,0.0463,0.0059,-0.0517,-0.0107,4558,2019-08-07 16:52:54:352
-4.7199,-7.5032,2.917,-0.3494,-0.4025,0.0108,0.007,-0.0656,-0.0075,4563,2019-08-07 16:52:54:357
-4.7199,-7.5032,2.917,-0.3494,-0.4025,0.0108,0.007,-0.0656,-0.0075,4568,2019-08-07 16:52:54:362
-4.6625,-7.4555,2.8463,-0.3494,-0.4025,0.0108,0.0144,-0.0549,0.0032,4573,2019-08-07 16:52:54:367
-4.6625,-7.4555,2.8463,-0.3494,-0.4025,0.0108,0.0144,-0.0549,0.0032,4578,2019-08-07 16:52:54:372
-4.6625,-7.4555,2.8463,-0.3837,-0.3973,0.2213,0.0144,-0.0549,0.0032,4583,2019-08-07 16:52:54:377
-4.629,-7.4603,2.8793,-0.3837,-0.3973,0.2213,0.0059,-0.04,0.0096,4588,2019-08-07 16:52:54:382
-4.629,-7.4603,2.8793,-0.3837,-0.3973,0.2213,0.0059,-0.04,0.0096,4593,2019-08-07 16:52:54:387
-4.6577,-7.4412,2.9264,-0.3837,-0.3973,0.2213,0.0059,-0.0272,0.0096,4598,2019-08-07 16:52:54:392
-4.6577,-7.4412,2.9264,-0.3638,-0.4677,0.0938,0.0059,-0.0272,0.0096,4604,2019-08-07 16:52:54:398
-4.6577,-7.4412,2.9264,-0.3638,-0.4677,0.0938,0.0091,5.0E-4,0.0117,4608,2019-08-07 16:52:54:402
-4.6529,-7.36,2.7803,-0.3638,-0.4677,0.0938,0.0091,5.0E-4,0.0117,4613,2019-08-07 16:52:54:407
-4.6529,-7.36,2.7803,-0.3638,-0.4677,0.0938,0.0048,0.0111,0.0181,4618,2019-08-07 16:52:54:412
-4.6529,-7.36,2.7803,-0.347,-0.4089,0.2777,0.0048,0.0111,0.0181,4623,2019-08-07 16:52:54:417
-4.6816,-7.465,2.7803,-0.347,-0.4089,0.2777,-0.0047,0.0431,0.017,4628,2019-08-07 16:52:54:422
-4.6816,-7.465,2.7803,-0.347,-0.4089,0.2777,-0.0047,0.0431,0.017,4633,2019-08-07 16:52:54:427
-4.6816,-7.465,2.7803,-0.2203,-0.394,0.1195,-0.0047,0.0431,0.017,4638,2019-08-07 16:52:54:432
-4.6816,-7.465,2.7803,-0.2203,-0.394,0.1195,-0.0047,0.0431,0.017,4642,2019-08-07 16:52:54:436
-4.8538,-7.4985,2.818,-0.2203,-0.394,0.1195,-0.0111,0.0537,0.0202,4648,2019-08-07 16:52:54:442
-4.8538,-7.4985,2.818,-0.2167,-0.2737,0.1828,-0.0111,0.0537,0.0202,4653,2019-08-07 16:52:54:447
-4.8538,-7.4985,2.818,-0.2167,-0.2737,0.1828,-0.0133,0.0239,0.0202,4657,2019-08-07 16:52:54:451
-4.8251,-7.6035,2.8321,-0.2167,-0.2737,0.1828,-0.0133,0.0239,0.0202,4663,2019-08-07 16:52:54:457
-4.8251,-7.6035,2.8321,-0.2167,-0.2737,0.1828,-0.041,-0.0762,0.0224,4668,2019-08-07 16:52:54:462
-5.5284,-7.5414,2.6766,0.4971,-0.3254,0.3295,-0.041,-0.0762,0.0224,4673,2019-08-07 16:52:54:467
-5.5284,-7.5414,2.6766,0.4971,-0.3254,0.3295,-0.1283,-0.1806,0.0618,4678,2019-08-07 16:52:54:472
-5.5284,-7.5414,2.6766,0.4971,-0.3254,0.3295,-0.1283,-0.1806,0.0618,4683,2019-08-07 16:52:54:477
-4.7294,-7.7897,3.2045,0.4971,-0.3254,0.3295,-0.1283,-0.1806,0.0618,4687,2019-08-07 16:52:54:481
-4.7294,-7.7897,3.2045,0.4971,-0.3254,0.3295,0.0048,-0.2808,0.0234,4693,2019-08-07 16:52:54:487
-4.7294,-7.7897,3.2045,-0.3981,-0.053,0.3734,0.0048,-0.2808,0.0234,4698,2019-08-07 16:52:54:492
-4.3084,-7.8088,2.6672,-0.3981,-0.053,0.3734,0.0219,-0.1774,0.016,4703,2019-08-07 16:52:54:497
-4.3084,-7.8088,2.6672,-0.3981,-0.053,0.3734,0.0219,-0.1774,0.016,4708,2019-08-07 16:52:54:502
-3.7725,-7.7992,2.2995,-0.3981,-0.053,0.3734,0.0496,0.0122,0.0064,4712,2019-08-07 16:52:54:506
-3.7725,-7.7992,2.2995,-1.1918,-0.0973,0.6883,0.0496,0.0122,0.0064,4718,2019-08-07 16:52:54:512
-3.7725,-7.7992,2.2995,-1.1918,-0.0973,0.6883,0.0762,0.2583,0.0181,4722,2019-08-07 16:52:54:516
-4.3419,-7.7228,2.4786,-0.675,-0.1444,0.5503,0.0762,0.2583,0.0181,4728,2019-08-07 16:52:54:522
-4.3419,-7.7228,2.4786,-0.675,-0.1444,0.5503,0.0762,0.2583,0.0181,4733,2019-08-07 16:52:54:527
-4.3419,-7.7228,2.4786,-0.675,-0.1444,0.5503,0.0411,0.3126,0.0309,4738,2019-08-07 16:52:54:532
-4.8251,-7.5748,2.8557,-0.675,-0.1444,0.5503,0.0411,0.3126,0.0309,4743,2019-08-07 16:52:54:537
-4.8251,-7.5748,2.8557,0.0301,-0.3309,-0.0265,0.0198,0.2956,0.0138,4748,2019-08-07 16:52:54:542
-5.2939,-7.5319,3.2093,0.0301,-0.3309,-0.0265,0.0198,0.2956,0.0138,4753,2019-08-07 16:52:54:547
-5.2939,-7.5319,3.2093,0.0301,-0.3309,-0.0265,0.0176,0.1784,0.0085,4758,2019-08-07 16:52:54:552
-5.2939,-7.5319,3.2093,0.0301,-0.3309,-0.0265,0.0176,0.1784,0.0085,4763,2019-08-07 16:52:54:557
-5.2939,-7.5844,3.2187,0.2399,-0.2742,-0.2294,0.007,0.0548,0.0096,4768,2019-08-07 16:52:54:562
-5.2939,-7.5844,3.2187,0.2399,-0.2742,-0.2294,0.007,0.0548,0.0096,4772,2019-08-07 16:52:54:566