ACCELEROMETER X (m/s²),ACCELEROMETER Y (m/s²),ACCELEROMETER Z (m/s²),LINEAR ACCELERATION X (m/s²),LINEAR ACCELERATION Y (m/s²),LINEAR ACCELERATION Z (m/s²),GYROSCOPE X (rad/s),GYROSCOPE Y (rad/s),GYROSCOPE Z (rad/s),Time since start in ms ,YYYY-MO-DD HH-MI-SS_SSS
-5.0753,-7.3503,2.6763,-0.3237,-0.3616,0.0921,0.0102,-0.0166,-0.0043,3,2019-08-07 16:53:21:073
-5.0657,-7.4124,2.6386,-0.3237,-0.3616,0.0921,0.0038,5.0E-4,-0.0043,8,2019-08-07 16:53:21:078
-5.0657,-7.4124,2.6386,-0.2885,-0.3429,0.0989,0.0038,5.0E-4,-0.0043,13,2019-08-07 16:53:21:083
-5.0657,-7.4124,2.6386,-0.2885,-0.3429,0.0989,0.0038,0.0101,-0.0011,18,2019-08-07 16:53:21:088
-5.1375,-7.3551,2.7234,-0.2885,-0.3429,0.0989,0.0038,0.0101,-0.0011,23,2019-08-07 16:53:21:093
-5.1375,-7.3551,2.7234,-0.2885,-0.3429,0.0989,0.0059,0.0101,0.0011,28,2019-08-07 16:53:21:098
-5.1471,-7.3455,2.6857,-0.2506,-0.3429,0.1407,0.0059,0.0101,0.0011,33,2019-08-07 16:53:21:103
-5.1471,-7.3455,2.6857,-0.2506,-0.3429,0.1407,0.0059,0.0101,0.0011,37,2019-08-07 16:53:21:107
-5.1471,-7.3455,2.6857,-0.2506,-0.3429,0.1407,0.008,-0.0059,0.0043,43,2019-08-07 16:53:21:113
-5.2284,-7.3837,2.714,-0.2506,-0.3429,0.1407,0.008,-0.0059,0.0043,48,2019-08-07 16:53:21:118
-5.2284,-7.3837,2.714,-0.2079,-0.342,0.1001,0.008,-0.0283,0.0064,52,2019-08-07 16:53:21:122
-5.1949,-7.3503,2.6999,-0.2079,-0.342,0.1001,0.008,-0.0283,0.0064,58,2019-08-07 16:53:21:128
-5.1949,-7.3503,2.6999,-0.2079,-0.342,0.1001,0.0198,-0.0475,0.0149,63,2019-08-07 16:53:21:133
-5.1949,-7.3503,2.6999,-0.2079,-0.342,0.1001,0.0198,-0.0475,0.0149,67,2019-08-07 16:53:21:137
-5.1184,-7.3169,2.7329,-0.2555,-0.3818,0.1325,0.0272,-0.0688,0.0256,73,2019-08-07 16:53:21:143
-5.1184,-7.3169,2.7329,-0.2555,-0.3818,0.1325,0.0272,-0.0688,0.0256,78,2019-08-07 16:53:21:148
-5.0993,-7.2548,2.6197,-0.2555,-0.3818,0.1325,0.0272,-0.0688,0.0288,84,2019-08-07 16:53:21:154
-5.0993,-7.2548,2.6197,-0.2555,-0.3818,0.1325,0.0272,-0.0688,0.0288,88,2019-08-07 16:53:21:158
-5.0993,-7.2548,2.6197,-0.3136,-0.3726,0.2611,0.0272,-0.0688,0.0288,93,2019-08-07 16:53:21:163
-5.0753,-7.3408,2.549,-0.3136,-0.3726,0.2611,0.024,-0.0538,0.0341,98,2019-08-07 16:53:21:168
-5.0753,-7.3408,2.549,-0.3136,-0.3726,0.2611,0.024,-0.0538,0.0341,103,2019-08-07 16:53:21:173
-5.0562,-7.4028,2.6244,-0.3136,-0.3726,0.2611,0.024,-0.024,0.0394,107,2019-08-07 16:53:21:177
-5.0562,-7.4028,2.6244,-0.3409,-0.2388,0.3056,0.024,-0.024,0.0394,113,2019-08-07 16:53:21:183
-5.0562,-7.4028,2.6244,-0.3409,-0.2388,0.3056,0.0293,0.0111,0.0373,118,2019-08-07 16:53:21:188
-5.1041,-7.3646,2.5867,-0.3409,-0.2388,0.3056,0.0293,0.0111,0.0373,123,2019-08-07 16:53:21:193
-5.1041,-7.3646,2.5867,-0.3409,-0.2388,0.3056,0.0293,0.0111,0.0373,128,2019-08-07 16:53:21:198
-5.1041,-7.3646,2.5867,-0.2045,-0.3001,0.1232,0.0272,0.0335,0.0426,132,2019-08-07 16:53:21:202
-5.2045,-7.3694,2.7328,-0.2045,-0.3001,0.1232,0.0315,0.0356,0.0458,138,2019-08-07 16:53:21:208
-5.2045,-7.3694,2.7328,-0.2045,-0.3001,0.1232,0.0315,0.0356,0.0458,144,2019-08-07 16:53:21:214
-5.1902,-7.4076,2.7093,-0.2045,-0.3001,0.1232,0.0262,0.025,0.0437,148,2019-08-07 16:53:21:218
-5.1902,-7.4076,2.7093,-0.1224,-0.2747,0.1707,0.0262,0.025,0.0437,153,2019-08-07 16:53:21:223
-5.1902,-7.4076,2.7093,-0.1224,-0.2747,0.1707,0.0262,0.025,0.0437,158,2019-08-07 16:53:21:228
-5.3289,-7.3599,2.648,-0.1224,-0.2747,0.1707,0.0176,0.0197,0.0469,163,2019-08-07 16:53:21:233
-5.3289,-7.3599,2.648,-0.1224,-0.2747,0.1707,0.0176,0.0197,0.0469,168,2019-08-07 16:53:21:238
-5.3242,-7.3169,2.8413,-0.1018,-0.3396,0.0176,0.0144,-0.0198,0.0469,173,2019-08-07 16:53:21:243
-5.3242,-7.3169,2.8413,-0.1018,-0.3396,0.0176,0.0144,-0.0198,0.0469,177,2019-08-07 16:53:21:247
-5.3242,-7.3169,2.8413,-0.1018,-0.3396,0.0176,0.007,-0.056,0.0437,183,2019-08-07 16:53:21:253
-5.2428,-7.379,2.7847,-0.1018,-0.3396,0.0176,0.007,-0.056,0.0437,188,2019-08-07 16:53:21:258
-5.2428,-7.379,2.7847,-0.1018,-0.3396,0.0176,-0.0026,-0.0645,0.0341,193,2019-08-07 16:53:21:263
-5.1902,-7.3455,2.7847,-0.2058,-0.3106,0.0858,-0.0026,-0.0645,0.0341,198,2019-08-07 16:53:21:268
-5.1902,-7.3455,2.7847,-0.2058,-0.3106,0.0858,-0.0026,-0.0645,0.0341,203,2019-08-07 16:53:21:273
-5.1902,-7.3455,2.7847,-0.2058,-0.3106,0.0858,-0.0069,-0.0549,0.0309,208,2019-08-07 16:53:21:278
-5.0658,-7.441,2.6197,-0.2058,-0.3106,0.0858,-0.0069,-0.0549,0.0309,213,2019-08-07 16:53:21:283
-5.0658,-7.441,2.6197,-0.3742,-0.2319,0.2128,-0.0101,-0.0208,0.0202,218,2019-08-07 16:53:21:288
-5.0658,-7.441,2.6197,-0.3742,-0.2319,0.2128,-0.0101,-0.0208,0.0202,222,2019-08-07 16:53:21:292
-5.1615,-7.4028,2.6716,-0.2694,-0.246,0.1983,-0.0058,0.0015,0.0128,228,2019-08-07 16:53:21:298
-5.1615,-7.4028,2.6716,-0.2694,-0.246,0.1983,-0.0058,0.0015,0.0128,233,2019-08-07 16:53:21:303
-5.1615,-7.4028,2.6716,-0.2694,-0.246,0.1983,-0.0079,0.0239,0.0053,238,2019-08-07 16:53:21:308
-5.2381,-7.4983,2.7564,-0.2694,-0.246,0.1983,-0.0079,0.0239,0.0053,243,2019-08-07 16:53:21:313
-5.2381,-7.4983,2.7564,-0.1852,-0.203,0.058,-0.0026,0.0229,-0.0011,248,2019-08-07 16:53:21:318
-5.3051,-7.3837,2.7564,-0.1852,-0.203,0.058,-0.0026,0.0229,-0.0011,253,2019-08-07 16:53:21:323
-5.3051,-7.3837,2.7564,-0.1852,-0.203,0.058,0.0017,0.0111,-0.0043,258,2019-08-07 16:53:21:328
-5.3051,-7.3837,2.7564,-0.1852,-0.203,0.058,0.0017,0.0111,-0.0043,263,2019-08-07 16:53:21:333
-5.2716,-7.4076,2.7423,-0.162,-0.2414,0.1222,6.0E-4,-0.008,-0.0011,268,2019-08-07 16:53:21:338
-5.2716,-7.4076,2.7423,-0.162,-0.2414,0.1222,6.0E-4,-0.008,-0.0011,272,2019-08-07 16:53:21:342
-5.2142,-7.4315,2.7234,-0.162,-0.2414,0.1222,-0.0015,-0.0219,-0.0075,278,2019-08-07 16:53:21:348
-5.2142,-7.4315,2.7234,-0.162,-0.2414,0.1222,-0.0015,-0.0219,-0.0075,283,2019-08-07 16:53:21:353
-5.2142,-7.4315,2.7234,-0.2035,-0.237,0.0534,-0.0015,-0.0219,-0.0075,288,2019-08-07 16:53:21:358
-5.2046,-7.4219,2.7517,-0.2035,-0.237,0.0534,0.0027,-0.0283,-0.0011,292,2019-08-07 16:53:21:362
-5.2046,-7.4219,2.7517,-0.2035,-0.237,0.0534,0.0027,-0.0283,-0.0011,298,2019-08-07 16:53:21:368
-5.1472,-7.3694,2.7187,-0.2035,-0.237,0.0534,0.007,-0.0304,-0.0011,303,2019-08-07 16:53:21:373
-5.1472,-7.3694,2.7187,-0.3207,-0.223,0.1185,0.007,-0.0304,-0.0011,308,2019-08-07 16:53:21:378
-5.1472,-7.3694,2.7187,-0.3207,-0.223,0.1185,0.007,-0.0304,-0.0011,312,2019-08-07 16:53:21:382
-5.1376,-7.3933,2.6998,-0.3207,-0.223,0.1185,0.0027,-0.0176,-0.0064,318,2019-08-07 16:53:21:388
-5.1376,-7.3933,2.6998,-0.3207,-0.223,0.1185,0.0027,-0.0176,-0.0064,322,2019-08-07 16:53:21:392
-5.1376,-7.3933,2.6998,-0.275,-0.2431,0.0453,0.0091,0.0037,-0.0075,328,2019-08-07 16:53:21:398
-5.152,-7.3742,2.8035,-0.275,-0.2431,0.0453,0.0091,0.0037,-0.0075,333,2019-08-07 16:53:21:403
-5.152,-7.3742,2.8035,-0.275,-0.2431,0.0453,0.0123,0.0133,-0.0075,337,2019-08-07 16:53:21:407
-5.1664,-7.379,2.747,-0.275,-0.2431,0.0453,0.0123,0.0133,-0.0075,343,2019-08-07 16:53:21:413
-5.1664,-7.379,2.747,-0.2311,-0.334,0.0981,0.0155,0.0101,-0.0096,348,2019-08-07 16:53:21:418
-5.1664,-7.379,2.747,-0.2311,-0.334,0.0981,0.0155,0.0101,-0.0096,353,2019-08-07 16:53:21:423
-5.2046,-7.3121,2.8412,-0.2311,-0.334,0.0981,0.0208,-0.0027,-0.0107,358,2019-08-07 16:53:21:428
-5.2046,-7.3121,2.8412,-0.2311,-0.334,0.0981,0.0208,-0.0027,-0.0107,362,2019-08-07 16:53:21:432
-5.2046,-7.3121,2.8412,-0.2344,-0.3862,0.0781,0.0251,-0.0102,-0.0096,368,2019-08-07 16:53:21:438
-5.1568,-7.3026,2.8035,-0.2344,-0.3862,0.0781,0.0251,-0.0102,-0.0096,372,2019-08-07 16:53:21:442
-5.1568,-7.3026,2.8035,-0.2813,-0.3762,0.0624,0.0304,-0.0176,-0.0064,378,2019-08-07 16:53:21:448
-5.1233,-7.3026,2.7093,-0.2813,-0.3762,0.0624,0.0304,-0.0176,-0.0064,382,2019-08-07 16:53:21:452
-5.1233,-7.3026,2.7093,-0.2813,-0.3762,0.0624,0.0304,-0.0176,-0.0064,388,2019-08-07 16:53:21:458
-5.1233,-7.3026,2.7093,-0.2813,-0.3762,0.0624,0.0293,-0.0155,0.0053,393,2019-08-07 16:53:21:463
-5.0468,-7.3551,2.813,-0.3469,-0.2936,0.0783,0.0293,-0.0155,0.0053,398,2019-08-07 16:53:21:468
-5.0468,-7.3551,2.813,-0.3469,-0.2936,0.0783,0.0325,-0.0112,0.0138,403,2019-08-07 16:53:21:473
-5.0563,-7.3503,2.7988,-0.3469,-0.2936,0.0783,0.0325,-0.0112,0.0138,408,2019-08-07 16:53:21:478
-5.0563,-7.3503,2.7988,-0.3469,-0.2936,0.0783,0.0379,0.0026,0.0202,413,2019-08-07 16:53:21:483
-5.0563,-7.3503,2.7988,-0.4154,-0.3093,0.1599,0.0379,0.0026,0.0202,418,2019-08-07 16:53:21:488
-5.0085,-7.3933,2.6715,-0.4154,-0.3093,0.1599,0.0336,0.0079,0.0277,422,2019-08-07 16:53:21:492
-5.0085,-7.3933,2.6715,-0.4154,-0.3093,0.1599,0.0336,0.0079,0.0277,428,2019-08-07 16:53:21:498
-5.0564,-7.336,2.7422,-0.4154,-0.3093,0.1599,0.0304,0.0218,0.0277,433,2019-08-07 16:53:21:503
-5.0564,-7.336,2.7422,-0.3287,-0.2908,0.1111,0.0304,0.0218,0.0277,438,2019-08-07 16:53:21:508
-5.0564,-7.336,2.7422,-0.3287,-0.2908,0.1111,0.0325,0.0452,0.0298,443,2019-08-07 16:53:21:513
-5.1233,-7.3121,2.747,-0.3287,-0.2908,0.1111,0.0325,0.0452,0.0298,449,2019-08-07 16:53:21:519
-5.1233,-7.3121,2.747,-0.3287,-0.2908,0.1111,0.0315,0.0548,0.0245,452,2019-08-07 16:53:21:522
-5.2382,-7.293,2.7705,-0.1967,-0.3434,0.1249,0.0315,0.0548,0.0245,458,2019-08-07 16:53:21:528
-5.2382,-7.293,2.7705,-0.1967,-0.3434,0.1249,0.0272,0.0463,0.0181,463,2019-08-07 16:53:21:533
-5.2382,-7.293,2.7705,-0.1967,-0.3434,0.1249,0.0272,0.0463,0.0181,468,2019-08-07 16:53:21:538
-5.2717,-7.2787,2.7941,-0.1967,-0.3434,0.1249,0.0272,0.0463,0.0181,472,2019-08-07 16:53:21:542
-5.2717,-7.2787,2.7941,-0.1732,-0.3782,0.0959,0.0219,0.041,0.0043,478,2019-08-07 16:53:21:548
-5.3291,-7.2644,2.8082,-0.1732,-0.3782,0.0959,0.0219,0.041,0.0043,483,2019-08-07 16:53:21:553
-5.3291,-7.2644,2.8082,-0.1732,-0.3782,0.0959,0.024,0.0346,-0.0032,488,2019-08-07 16:53:21:558
-5.3291,-7.2644,2.8082,-0.1732,-0.3782,0.0959,0.024,0.0346,-0.0032,492,2019-08-07 16:53:21:562
-5.3769,-7.2787,2.8365,-0.0706,-0.3572,0.0533,0.0187,0.0239,-0.0085,498,2019-08-07 16:53:21:568
-5.3769,-7.2787,2.8365,-0.0706,-0.3572,0.0533,0.0187,0.0239,-0.0085,503,2019-08-07 16:53:21:573
-5.3482,-7.3121,2.747,-0.0706,-0.3572,0.0533,0.0187,0.0239,-0.0085,508,2019-08-07 16:53:21:578
-5.3482,-7.3121,2.747,-0.0706,-0.3572,0.0533,0.0091,0.0015,-0.0171,513,2019-08-07 16:53:21:583
-5.3482,-7.3121,2.747,-0.0706,-0.3572,0.0533,0.0091,0.0015,-0.0171,518,2019-08-07 16:53:21:588
-5.2286,-7.3455,2.7988,-0.1792,-0.2813,0.1677,0.0112,-0.0166,-0.0181,523,2019-08-07 16:53:21:593
-5.2286,-7.3455,2.7988,-0.1792,-0.2813,0.1677,0.0112,-0.0166,-0.0181,527,2019-08-07 16:53:21:597
-5.2286,-7.3455,2.7988,-0.1792,-0.2813,0.1677,0.0166,-0.008,-0.0181,533,2019-08-07 16:53:21:603
-5.066,-7.4124,2.7422,-0.1792,-0.2813,0.1677,0.0166,-0.008,-0.0181,538,2019-08-07 16:53:21:608
-5.066,-7.4124,2.7422,-0.3907,-0.2972,0.1755,0.0134,0.0154,-0.016,543,2019-08-07 16:53:21:613
-5.0468,-7.3026,2.7799,-0.3907,-0.2972,0.1755,0.0134,0.0154,-0.016,548,2019-08-07 16:53:21:618
-5.0468,-7.3026,2.7799,-0.3907,-0.2972,0.1755,0.008,0.0388,-0.0043,553,2019-08-07 16:53:21:623
-5.0468,-7.3026,2.7799,-0.3907,-0.2972,0.1755,0.008,0.0388,-0.0043,558,2019-08-07 16:53:21:628
-5.0325,-7.3026,2.8978,-0.404,-0.3318,0.0,0.0059,0.0463,-0.0021,563,2019-08-07 16:53:21:633
-5.0325,-7.3026,2.8978,-0.404,-0.3318,0.0,0.0059,0.0463,-0.0021,568,2019-08-07 16:53:21:638
-5.1274,-7.2979,2.8178,-0.404,-0.3318,0.0,0.0059,0.0463,-0.0021,573,2019-08-07 16:53:21:643
-5.1274,-7.2979,2.8178,-0.404,-0.3318,0.0,0.007,0.0431,0.0074,577,2019-08-07 16:53:21:647
-5.1274,-7.2979,2.8178,-0.2592,-0.3453,0.0533,0.007,0.0431,0.0074,583,2019-08-07 16:53:21:653
-5.1704,-7.3074,2.8603,-0.2592,-0.3453,0.0533,0.008,0.0229,0.0149,588,2019-08-07 16:53:21:658
-5.1704,-7.3074,2.8603,-0.2592,-0.3453,0.0533,0.008,0.0229,0.0149,593,2019-08-07 16:53:21:663
-5.1034,-7.3122,2.8273,-0.3338,-0.3146,0.0722,0.0059,5.0E-4,0.0192,599,2019-08-07 16:53:21:669
-5.1034,-7.3122,2.8273,-0.3338,-0.3146,0.0722,0.0059,5.0E-4,0.0192,602,2019-08-07 16:53:21:672
-5.1034,-7.3122,2.8273,-0.3338,-0.3146,0.0722,0.0112,-0.0059,0.0256,608,2019-08-07 16:53:21:678
-5.1369,-7.3456,2.7471,-0.3338,-0.3146,0.0722,0.0112,-0.0059,0.0256,613,2019-08-07 16:53:21:683
-5.1369,-7.3456,2.7471,-0.3338,-0.3146,0.0722,0.0102,0.0165,0.0245,618,2019-08-07 16:53:21:688
-5.1369,-7.3456,2.7471,-0.237,-0.3688,0.0312,0.0102,0.0165,0.0245,622,2019-08-07 16:53:21:692
-5.2804,-7.2835,2.8461,-0.237,-0.3688,0.0312,0.0123,0.0292,0.0277,628,2019-08-07 16:53:21:698
-5.2804,-7.2835,2.8461,-0.237,-0.3688,0.0312,0.0123,0.0292,0.0277,633,2019-08-07 16:53:21:703
-5.2804,-7.2835,2.8461,-0.237,-0.3688,0.0312,0.0155,0.0335,0.0213,637,2019-08-07 16:53:21:707
-5.3187,-7.2979,2.7094,-0.133,-0.3268,0.1854,0.0155,0.0335,0.0213,643,2019-08-07 16:53:21:713
-5.3187,-7.2979,2.7094,-0.133,-0.3268,0.1854,0.0187,0.026,0.0117,648,2019-08-07 16:53:21:718
-5.2709,-7.3886,2.7471,-0.133,-0.3268,0.1854,0.0187,0.026,0.0117,653,2019-08-07 16:53:21:723
-5.2709,-7.3886,2.7471,-0.133,-0.3268,0.1854,0.0187,0.026,0.0117,658,2019-08-07 16:53:21:728
-5.2709,-7.3886,2.7471,-0.1656,-0.2575,0.1043,0.0166,0.0292,0.0064,663,2019-08-07 16:53:21:733
-5.2422,-7.3838,2.7848,-0.1656,-0.2575,0.1043,0.0166,0.0292,0.0064,667,2019-08-07 16:53:21:737
-5.2422,-7.3838,2.7848,-0.1656,-0.2575,0.1043,0.024,0.0335,0.0032,673,2019-08-07 16:53:21:743
-5.2422,-7.3838,2.7848,-0.1656,-0.2575,0.1043,0.024,0.0335,0.0032,677,2019-08-07 16:53:21:747
-5.3187,-7.3026,2.8225,-0.1249,-0.3082,0.0291,0.0262,0.0324,0.0,684,2019-08-07 16:53:21:754
-5.3187,-7.3026,2.8225,-0.1249,-0.3082,0.0291,0.0262,0.0324,0.0,687,2019-08-07 16:53:21:757
-5.2996,-7.3408,2.7896,-0.1249,-0.3082,0.0291,0.0208,0.0175,0.0053,693,2019-08-07 16:53:21:763
-5.2996,-7.3408,2.7896,-0.1249,-0.3082,0.0291,0.0208,0.0175,0.0053,698,2019-08-07 16:53:21:768
-5.2613,-7.2883,2.8603,-0.199,-0.3108,0.0917,0.0208,0.0175,0.0053,703,2019-08-07 16:53:21:773
-5.2613,-7.2883,2.8603,-0.199,-0.3108,0.0917,0.0155,5.0E-4,0.0011,708,2019-08-07 16:53:21:778
-5.2613,-7.2883,2.8603,-0.199,-0.3108,0.0917,0.0155,5.0E-4,0.0011,712,2019-08-07 16:53:21:782
-5.1847,-7.2549,2.7896,-0.199,-0.3108,0.0917,0.0155,-0.0123,0.0011,718,2019-08-07 16:53:21:788
-5.1847,-7.2549,2.7896,-0.2707,-0.362,0.1001,0.0155,-0.0123,0.0011,722,2019-08-07 16:53:21:792
-5.1847,-7.2549,2.7896,-0.2707,-0.362,0.1001,0.0176,0.0143,0.0,728,2019-08-07 16:53:21:798
-5.1991,-7.2406,2.8508,-0.2707,-0.362,0.1001,0.0176,0.0143,0.0,733,2019-08-07 16:53:21:803
-5.1991,-7.2406,2.8508,-0.2707,-0.362,0.1001,0.0166,0.0314,0.0032,737,2019-08-07 16:53:21:807
-5.2469,-7.231,2.8697,-0.2147,-0.3845,0.0305,0.0166,0.0314,0.0032,743,2019-08-07 16:53:21:813
-5.2469,-7.231,2.8697,-0.2147,-0.3845,0.0305,0.0112,0.0324,0.0074,748,2019-08-07 16:53:21:818
-5.2469,-7.231,2.8697,-0.2147,-0.3845,0.0305,0.0112,0.0324,0.0074,753,2019-08-07 16:53:21:823
-5.29,-7.2263,2.865,-0.2147,-0.3845,0.0305,0.0048,0.0239,0.0032,758,2019-08-07 16:53:21:828
-5.29,-7.2263,2.865,-0.2125,-0.3783,-0.0178,0.0048,0.0239,0.0032,763,2019-08-07 16:53:21:833
-5.3043,-7.2263,2.9357,-0.2125,-0.3783,-0.0178,0.0048,0.0165,0.0043,768,2019-08-07 16:53:21:838
-5.3043,-7.2263,2.9357,-0.2125,-0.3783,-0.0178,0.0048,0.0165,0.0043,773,2019-08-07 16:53:21:843
-5.3043,-7.2263,2.9357,-0.2125,-0.3783,-0.0178,0.0059,0.0133,0.0053,778,2019-08-07 16:53:21:848
-5.2852,-7.2454,2.9168,-0.2096,-0.415,-0.0317,0.0059,0.0133,0.0053,783,2019-08-07 16:53:21:853
-5.2852,-7.2454,2.9168,-0.2096,-0.415,-0.0317,-0.0015,-0.0016,0.0106,787,2019-08-07 16:53:21:857
-5.2373,-7.2788,2.9687,-0.2096,-0.415,-0.0317,-0.0015,-0.0016,0.0106,793,2019-08-07 16:53:21:863
-5.2373,-7.2788,2.9687,-0.2096,-0.415,-0.0317,-0.0069,-0.0102,0.0117,798,2019-08-07 16:53:21:868
-5.2373,-7.2788,2.9687,-0.2633,-0.3376,0.0774,-0.0069,-0.0102,0.0117,803,2019-08-07 16:53:21:873
-5.1416,-7.274,2.7848,-0.2633,-0.3376,0.0774,-0.0069,-0.0102,0.0117,808,2019-08-07 16:53:21:878
-5.1416,-7.274,2.7848,-0.2633,-0.3376,0.0774,-0.0047,-0.0038,0.0224,813,2019-08-07 16:53:21:883
-5.1751,-7.3122,2.832,-0.2633,-0.3376,0.0774,-0.0047,-0.0038,0.0224,818,2019-08-07 16:53:21:888
-5.1751,-7.3122,2.832,-0.2805,-0.3214,-0.0031,-0.0026,0.0079,0.0245,823,2019-08-07 16:53:21:893
-5.1751,-7.3122,2.832,-0.2805,-0.3214,-0.0031,-0.0026,0.0079,0.0245,828,2019-08-07 16:53:21:898
-5.223,-7.274,2.9357,-0.2805,-0.3214,-0.0031,-0.0015,0.0069,0.033,833,2019-08-07 16:53:21:903
-5.223,-7.274,2.9357,-0.2805,-0.3214,-0.0031,-0.0015,0.0069,0.033,838,2019-08-07 16:53:21:908
-5.1703,-7.2549,2.8084,-0.3046,-0.3511,0.0915,-5.0E-4,-0.0091,0.0394,843,2019-08-07 16:53:21:913
-5.1703,-7.2549,2.8084,-0.3046,-0.3511,0.0915,-5.0E-4,-0.0091,0.0394,848,2019-08-07 16:53:21:918
-5.1703,-7.2549,2.8084,-0.3046,-0.3511,0.0915,-5.0E-4,-0.0091,0.0394,852,2019-08-07 16:53:21:922
-5.199,-7.2358,2.7141,-0.3046,-0.3511,0.0915,0.0027,-0.0144,0.0394,858,2019-08-07 16:53:21:928
-5.199,-7.2358,2.7141,-0.3046,-0.3511,0.0915,0.0027,-0.0144,0.0394,863,2019-08-07 16:53:21:933
-5.1368,-7.3074,2.7566,-0.3862,-0.337,0.1458,0.008,-0.0123,0.049,868,2019-08-07 16:53:21:938
-5.1368,-7.3074,2.7566,-0.3862,-0.337,0.1458,0.0091,5.0E-4,0.0565,873,2019-08-07 16:53:21:943
-5.1368,-7.3074,2.7566,-0.3862,-0.337,0.1458,0.0091,5.0E-4,0.0565,878,2019-08-07 16:53:21:948
-5.1799,-7.2215,2.832,-0.2699,-0.3688,0.0813,0.0123,0.0154,0.0522,883,2019-08-07 16:53:21:953
-5.1799,-7.2215,2.832,-0.2699,-0.3688,0.0813,0.0123,0.0154,0.0522,888,2019-08-07 16:53:21:958
-5.1799,-7.2215,2.832,-0.2699,-0.3688,0.0813,0.0123,0.0154,0.0522,893,2019-08-07 16:53:21:963
-5.2947,-7.1881,2.8226,-0.2699,-0.3688,0.0813,0.0091,0.0047,0.0575,898,2019-08-07 16:53:21:968
-5.2947,-7.1881,2.8226,-0.2411,-0.3186,0.1152,0.0048,-0.007,0.0575,903,2019-08-07 16:53:21:973
-5.2469,-7.2263,2.7283,-0.2411,-0.3186,0.1152,0.0048,-0.007,0.0575,908,2019-08-07 16:53:21:978
-5.2469,-7.2263,2.7283,-0.2411,-0.3186,0.1152,0.0048,-0.007,0.0575,912,2019-08-07 16:53:21:982
-5.2469,-7.2263,2.7283,-0.2411,-0.3186,0.1152,0.007,0.0026,0.0511,918,2019-08-07 16:53:21:988
-5.2803,-7.274,2.733,-0.2411,-0.3186,0.1152,0.007,0.0026,0.0511,923,2019-08-07 16:53:21:993
-5.2803,-7.274,2.733,-0.0967,-0.36,0.1296,0.0059,0.0239,0.0469,928,2019-08-07 16:53:21:998
-5.4191,-7.2263,2.7424,-0.0967,-0.36,0.1296,0.0059,0.0239,0.0469,933,2019-08-07 16:53:22:003
-5.4191,-7.2263,2.7424,-0.0967,-0.36,0.1296,6.0E-4,0.0271,0.0415,938,2019-08-07 16:53:22:008
-5.4191,-7.2263,2.7424,-0.0967,-0.36,0.1296,6.0E-4,0.0271,0.0415,944,2019-08-07 16:53:22:014
-5.4717,-7.2549,2.6953,-0.0432,-0.3215,0.2065,-0.0058,0.025,0.0298,948,2019-08-07 16:53:22:018
-5.4717,-7.2549,2.6953,-0.0432,-0.3215,0.2065,-0.0058,0.025,0.0298,952,2019-08-07 16:53:22:022
-5.4908,-7.2979,2.733,-0.0432,-0.3215,0.2065,-0.009,0.0133,0.0181,958,2019-08-07 16:53:22:028
-5.4908,-7.2979,2.733,-0.0432,-0.3215,0.2065,-0.009,0.0133,0.0181,963,2019-08-07 16:53:22:033
-5.4908,-7.2979,2.733,-0.1151,-0.219,0.1465,-0.0133,0.0101,0.0064,968,2019-08-07 16:53:22:038
-5.4238,-7.3647,2.7142,-0.1151,-0.219,0.1465,-0.0133,0.0101,0.0064,973,2019-08-07 16:53:22:043
-5.4238,-7.3647,2.7142,-0.1151,-0.219,0.1465,-0.0175,0.0143,-0.0032,978,2019-08-07 16:53:22:048
-5.4191,-7.3934,2.7,-0.1151,-0.219,0.1465,-0.0175,0.0143,-0.0032,983,2019-08-07 16:53:22:053
-5.4191,-7.3934,2.7,-0.1594,-0.2151,0.1796,-0.0122,0.0186,-0.0064,988,2019-08-07 16:53:22:058
-5.4191,-7.3934,2.7,-0.1594,-0.2151,0.1796,-0.0122,0.0186,-0.0064,993,2019-08-07 16:53:22:063
-5.3999,-7.3838,2.8037,-0.1594,-0.2151,0.1796,-0.0111,0.0037,-0.0117,998,2019-08-07 16:53:22:068
-5.3999,-7.3838,2.8037,-0.1594,-0.2151,0.1796,-0.0111,0.0037,-0.0117,1002,2019-08-07 16:53:22:072
-5.3999,-7.3838,2.8037,-0.192,-0.2311,0.0353,-0.0111,0.0037,-0.0117,1008,2019-08-07 16:53:22:078
-5.2707,-7.3456,2.8414,-0.192,-0.2311,0.0353,-0.0122,-0.0219,-0.0075,1013,2019-08-07 16:53:22:083
-5.2707,-7.3456,2.8414,-0.192,-0.2311,0.0353,-0.0122,-0.0219,-0.0075,1018,2019-08-07 16:53:22:088
-5.1511,-7.2645,2.8509,-0.192,-0.2311,0.0353,-0.0165,-0.0347,-0.0117,1022,2019-08-07 16:53:22:092
-5.1511,-7.2645,2.8509,-0.3125,-0.2763,0.0134,-0.0165,-0.0347,-0.0117,1028,2019-08-07 16:53:22:098
-5.1511,-7.2645,2.8509,-0.3125,-0.2763,0.0134,-0.0207,-0.0251,-0.0085,1033,2019-08-07 16:53:22:103
-5.132,-7.2979,2.8179,-0.3125,-0.2763,0.0134,-0.0207,-0.0251,-0.0085,1037,2019-08-07 16:53:22:107
-5.132,-7.2979,2.8179,-0.3125,-0.2763,0.0134,-0.0197,-0.0112,-0.0021,1043,2019-08-07 16:53:22:113
-5.132,-7.2979,2.8179,-0.4244,-0.2547,0.145,-0.0197,-0.0112,-0.0021,1048,2019-08-07 16:53:22:118
-5.1272,-7.3361,2.766,-0.4244,-0.2547,0.145,-0.0207,0.0037,0.0032,1053,2019-08-07 16:53:22:123
-5.1272,-7.3361,2.766,-0.4244,-0.2547,0.145,-0.0207,0.0037,0.0032,1058,2019-08-07 16:53:22:128
-5.1559,-7.2931,2.8179,-0.4244,-0.2547,0.145,-0.0122,0.0111,0.0,1063,2019-08-07 16:53:22:133
-5.1559,-7.2931,2.8179,-0.357,-0.2895,0.0714,-0.0122,0.0111,0.0,1068,2019-08-07 16:53:22:138
-5.1559,-7.2931,2.8179,-0.357,-0.2895,0.0714,-0.0101,0.0175,0.0032,1072,2019-08-07 16:53:22:142
-5.1655,-7.2358,2.8084,-0.357,-0.2895,0.0714,-0.0101,0.0175,0.0032,1078,2019-08-07 16:53:22:148
-5.1655,-7.2358,2.8084,-0.357,-0.2895,0.0714,-0.0058,0.0186,0.0021,1084,2019-08-07 16:53:22:154
-5.2037,-7.2358,2.7472,-0.3099,-0.3474,0.1392,-0.0058,0.0186,0.0021,1088,2019-08-07 16:53:22:158
-5.2037,-7.2358,2.7472,-0.3099,-0.3474,0.1392,-0.0111,0.0282,0.0043,1093,2019-08-07 16:53:22:163
-5.2037,-7.2358,2.7472,-0.3099,-0.3474,0.1392,-0.0111,0.0282,0.0043,1098,2019-08-07 16:53:22:168
-5.2994,-7.2883,2.7424,-0.3099,-0.3474,0.1392,-0.0111,0.0335,0.0064,1103,2019-08-07 16:53:22:173
-5.2994,-7.2883,2.7424,-0.1927,-0.3189,0.0731,-0.0111,0.0335,0.0064,1108,2019-08-07 16:53:22:178
-5.2898,-7.3552,2.7802,-0.1927,-0.3189,0.0731,-0.0111,0.0335,0.0064,1114,2019-08-07 16:53:22:184
-5.2898,-7.3552,2.7802,-0.1927,-0.3189,0.0731,-0.0101,0.0154,0.0074,1119,2019-08-07 16:53:22:189
-5.2898,-7.3552,2.7802,-0.1927,-0.3189,0.0731,-0.0101,0.0154,0.0074,1122,2019-08-07 16:53:22:192
-5.2946,-7.3361,2.6859,-0.1996,-0.2422,0.2204,-0.0047,0.0037,0.0064,1128,2019-08-07 16:53:22:198
-5.2946,-7.3361,2.6859,-0.1996,-0.2422,0.2204,-0.0047,0.0037,0.0064,1134,2019-08-07 16:53:22:204
-5.2946,-7.3361,2.6859,-0.1996,-0.2422,0.2204,-0.0015,5.0E-4,0.0074,1138,2019-08-07 16:53:22:208
-5.2898,-7.3599,2.6482,-0.1996,-0.2422,0.2204,-0.0015,5.0E-4,0.0074,1143,2019-08-07 16:53:22:213
-5.2898,-7.3599,2.6482,-0.1996,-0.2422,0.2204,-0.0015,5.0E-4,0.0074,1148,2019-08-07 16:53:22:218
-5.309,-7.3456,2.667,-0.21,-0.2375,0.2095,-0.0037,-6.0E-4,0.0074,1153,2019-08-07 16:53:22:223
-5.309,-7.3456,2.667,-0.21,-0.2375,0.2095,-0.0037,-6.0E-4,0.0074,1158,2019-08-07 16:53:22:228
-5.2802,-7.2501,2.6953,-0.21,-0.2375,0.2095,-5.0E-4,0.009,0.0043,1163,2019-08-07 16:53:22:233
-5.2802,-7.2501,2.6953,-0.2445,-0.3279,0.1658,-5.0E-4,0.009,0.0043,1168,2019-08-07 16:53:22:238
-5.2802,-7.2501,2.6953,-0.2445,-0.3279,0.1658,-0.0026,0.0133,0.0074,1173,2019-08-07 16:53:22:243
-5.2755,-7.2549,2.6246,-0.2445,-0.3279,0.1658,-0.0026,0.0133,0.0074,1178,2019-08-07 16:53:22:248
-5.2755,-7.2549,2.6246,-0.2445,-0.3279,0.1658,-0.0058,0.0207,0.0043,1183,2019-08-07 16:53:22:253
-5.2755,-7.2549,2.6246,-0.2035,-0.3514,0.1582,-0.0058,0.0207,0.0043,1188,2019-08-07 16:53:22:258
-5.3042,-7.2358,2.7,-0.2035,-0.3514,0.1582,-0.0069,0.0239,0.0032,1193,2019-08-07 16:53:22:263
-5.3042,-7.2358,2.7,-0.2035,-0.3514,0.1582,-0.0069,0.0239,0.0032,1199,2019-08-07 16:53:22:269
-5.3233,-7.2454,2.6906,-0.2035,-0.3514,0.1582,-0.0058,0.0218,0.0043,1203,2019-08-07 16:53:22:273
-5.3233,-7.2454,2.6906,-0.2035,-0.3514,0.1582,-0.0058,0.0218,0.0043,1209,2019-08-07 16:53:22:279
-5.3233,-7.2454,2.6906,-0.2296,-0.3703,0.1593,-0.0058,0.0218,0.0043,1214,2019-08-07 16:53:22:284
-5.285,-7.2358,2.6717,-0.2296,-0.3703,0.1593,-0.0047,0.0207,0.0021,1218,2019-08-07 16:53:22:288
-5.285,-7.2358,2.6717,-0.2296,-0.3703,0.1593,-0.0047,0.0207,0.0021,1223,2019-08-07 16:53:22:293
-5.285,-7.2358,2.6717,-0.2296,-0.3703,0.1593,-0.0015,0.0346,0.0021,1228,2019-08-07 16:53:22:298
-5.2563,-7.2549,2.7,-0.2699,-0.3272,0.1651,-0.0015,0.0346,0.0021,1234,2019-08-07 16:53:22:304
-5.2563,-7.2549,2.7,-0.2699,-0.3272,0.1651,-0.0026,0.0431,0.0,1238,2019-08-07 16:53:22:308
-5.3089,-7.2645,2.667,-0.2699,-0.3272,0.1651,-0.0026,0.0431,0.0,1243,2019-08-07 16:53:22:313
-5.3089,-7.2645,2.667,-0.2699,-0.3272,0.1651,-0.0037,0.0516,0.0032,1248,2019-08-07 16:53:22:318
-5.3089,-7.2645,2.667,-0.2011,-0.2843,0.1875,-0.0037,0.0516,0.0032,1253,2019-08-07 16:53:22:323
-5.2706,-7.3074,2.733,-0.2011,-0.2843,0.1875,-5.0E-4,0.0495,0.0053,1258,2019-08-07 16:53:22:328
-5.2706,-7.3074,2.733,-0.2011,-0.2843,0.1875,-5.0E-4,0.0495,0.0053,1263,2019-08-07 16:53:22:333
-5.2706,-7.3074,2.733,-0.2011,-0.2843,0.1875,-0.0015,0.0367,0.0043,1268,2019-08-07 16:53:22:338
-5.3041,-7.2788,2.7519,-0.2282,-0.3031,0.1019,-0.0015,0.0367,0.0043,1272,2019-08-07 16:53:22:342
-5.3041,-7.2788,2.7519,-0.2282,-0.3031,0.1019,0.0048,0.0239,0.0085,1278,2019-08-07 16:53:22:348
-5.2706,-7.2358,2.766,-0.2282,-0.3031,0.1019,0.0048,0.0239,0.0085,1284,2019-08-07 16:53:22:354
-5.2706,-7.2358,2.766,-0.2282,-0.3031,0.1019,0.0048,0.0133,0.0117,1288,2019-08-07 16:53:22:358
-5.2706,-7.2358,2.766,-0.2501,-0.3542,0.0107,0.0048,0.0133,0.0117,1293,2019-08-07 16:53:22:363
-5.3041,-7.2358,2.7613,-0.2501,-0.3542,0.0107,0.0048,0.0133,0.0117,1298,2019-08-07 16:53:22:368
-5.3041,-7.2358,2.7613,-0.2501,-0.3542,0.0107,-5.0E-4,-0.0027,0.0202,1304,2019-08-07 16:53:22:374
-5.3041,-7.2358,2.7613,-0.2501,-0.3542,0.0107,-5.0E-4,-0.0027,0.0202,1308,2019-08-07 16:53:22:378
-5.285,-7.2215,2.8415,-0.2385,-0.3518,0.0636,-5.0E-4,-0.0134,0.0202,1313,2019-08-07 16:53:22:383
-5.285,-7.2215,2.8415,-0.2385,-0.3518,0.0636,-5.0E-4,-0.0134,0.0202,1318,2019-08-07 16:53:22:388
-5.2371,-7.2406,2.6576,-0.2385,-0.3518,0.0636,-0.0058,-0.0198,0.0277,1323,2019-08-07 16:53:22:393
-5.2371,-7.2406,2.6576,-0.2385,-0.3518,0.0636,-0.0058,-0.0198,0.0277,1328,2019-08-07 16:53:22:398
-5.2371,-7.2406,2.6576,-0.3083,-0.3206,0.1404,-0.0069,-0.0059,0.0288,1333,2019-08-07 16:53:22:403
-5.2132,-7.2788,2.6529,-0.3083,-0.3206,0.1404,-0.0069,-0.0059,0.0288,1338,2019-08-07 16:53:22:408
-5.2132,-7.2788,2.6529,-0.3083,-0.3206,0.1404,-0.0047,0.0111,0.0298,1343,2019-08-07 16:53:22:413
-5.2563,-7.2931,2.667,-0.3083,-0.3206,0.1404,-0.0047,0.0111,0.0298,1348,2019-08-07 16:53:22:418
-5.2563,-7.2931,2.667,-0.3798,-0.2562,0.1615,-0.0047,0.0346,0.0298,1353,2019-08-07 16:53:22:423
-5.2563,-7.2931,2.667,-0.3798,-0.2562,0.1615,-0.0047,0.0346,0.0298,1358,2019-08-07 16:53:22:428
-5.2228,-7.274,2.6765,-0.3798,-0.2562,0.1615,-0.0037,0.0484,0.032,1363,2019-08-07 16:53:22:433
-5.2228,-7.274,2.6765,-0.3798,-0.2562,0.1615,-0.0037,0.0484,0.032,1368,2019-08-07 16:53:22:438
-5.3854,-7.2406,2.7095,-0.1908,-0.2961,0.0613,-0.0015,0.0463,0.0351,1373,2019-08-07 16:53:22:443
-5.3854,-7.2406,2.7095,-0.1908,-0.2961,0.0613,-0.0015,0.0463,0.0351,1378,2019-08-07 16:53:22:448
-5.3854,-7.2406,2.7095,-0.1908,-0.2961,0.0613,-0.0026,0.0229,0.0383,1383,2019-08-07 16:53:22:453
-5.3854,-7.2358,2.7566,-0.1908,-0.2961,0.0613,-0.0026,0.0229,0.0383,1388,2019-08-07 16:53:22:458
-5.3854,-7.2358,2.7566,-0.1908,-0.2961,0.0613,-0.0026,0.0229,0.0383,1393,2019-08-07 16:53:22:463
-5.3519,-7.2358,2.8132,-0.1555,-0.3635,0.0857,-0.0026,0.0015,0.0394,1399,2019-08-07 16:53:22:469
-5.3519,-7.2358,2.8132,-0.1555,-0.3635,0.0857,-0.0026,0.0015,0.0394,1403,2019-08-07 16:53:22:473
-5.3519,-7.2358,2.8132,-0.1555,-0.3635,0.0857,-0.0015,-0.0304,0.0469,1408,2019-08-07 16:53:22:478
-5.3184,-7.2072,2.7,-0.2472,-0.3539,0.1441,-0.0015,-0.0304,0.0469,1413,2019-08-07 16:53:22:483
-5.3184,-7.2072,2.7,-0.2472,-0.3539,0.1441,-0.0026,-0.0379,0.0511,1418,2019-08-07 16:53:22:488
-5.3184,-7.2072,2.7,-0.2472,-0.3539,0.1441,-0.0026,-0.0379,0.0511,1423,2019-08-07 16:53:22:493
-5.2706,-7.2263,2.6246,-0.2472,-0.3539,0.1441,-0.0047,-0.0368,0.0618,1428,2019-08-07 16:53:22:498
-5.2706,-7.2263,2.6246,-0.3826,-0.286,0.2134,-0.0047,-0.0368,0.0618,1433,2019-08-07 16:53:22:503
-5.1749,-7.2597,2.6011,-0.3826,-0.286,0.2134,-0.0026,-0.0219,0.0714,1437,2019-08-07 16:53:22:507
-5.1749,-7.2597,2.6011,-0.3826,-0.286,0.2134,-0.0026,-0.0219,0.0714,1443,2019-08-07 16:53:22:513
-5.1749,-7.2597,2.6011,-0.3826,-0.286,0.2134,-0.0026,-6.0E-4,0.0756,1448,2019-08-07 16:53:22:518
-5.2658,-7.2884,2.6906,-0.3255,-0.274,0.2511,-0.0026,-6.0E-4,0.0756,1453,2019-08-07 16:53:22:523
-5.2658,-7.2884,2.6906,-0.3255,-0.274,0.2511,-0.0026,-6.0E-4,0.0756,1458,2019-08-07 16:53:22:528
-5.3567,-7.2931,2.5963,-0.3255,-0.274,0.2511,-0.0015,0.025,0.0852,1463,2019-08-07 16:53:22:533
-5.3567,-7.2931,2.5963,-0.3255,-0.274,0.2511,-0.0015,0.025,0.0852,1468,2019-08-07 16:53:22:538
-5.3567,-7.2931,2.5963,-0.2057,-0.2268,0.1813,-0.0015,0.0335,0.0905,1473,2019-08-07 16:53:22:543
-5.3375,-7.3074,2.6293,-0.2057,-0.2268,0.1813,-0.0015,0.0335,0.0905,1478,2019-08-07 16:53:22:548
-5.3375,-7.3074,2.6293,-0.2229,-0.2125,0.2164,-0.0079,0.0292,0.0884,1483,2019-08-07 16:53:22:553
-5.3375,-7.3074,2.6293,-0.2229,-0.2125,0.2164,-0.0079,0.0292,0.0884,1488,2019-08-07 16:53:22:558
-5.3854,-7.3074,2.6293,-0.2229,-0.2125,0.2164,-0.0133,0.0282,0.0863,1493,2019-08-07 16:53:22:563
-5.3854,-7.3074,2.6293,-0.2229,-0.2125,0.2164,-0.0133,0.0282,0.0863,1498,2019-08-07 16:53:22:568
-5.3806,-7.3409,2.6388,-0.2375,-0.1847,0.1965,-0.0133,0.0282,0.0863,1502,2019-08-07 16:53:22:572
-5.3806,-7.3409,2.6388,-0.2375,-0.1847,0.1965,-0.0069,0.0303,0.082,1508,2019-08-07 16:53:22:578
-5.3806,-7.3409,2.6388,-0.2375,-0.1847,0.1965,-0.0069,0.0303,0.082,1513,2019-08-07 16:53:22:583
-5.3375,-7.4125,2.7095,-0.2375,-0.1847,0.1965,-5.0E-4,0.0314,0.081,1518,2019-08-07 16:53:22:588
-5.3375,-7.4125,2.7095,-0.251,-0.0951,0.1402,-5.0E-4,0.0314,0.081,1523,2019-08-07 16:53:22:593
-5.3854,-7.3695,2.7236,-0.251,-0.0951,0.1402,0.0112,0.0335,0.0746,1528,2019-08-07 16:53:22:598
-5.3854,-7.3695,2.7236,-0.251,-0.0951,0.1402,0.0112,0.0335,0.0746,1533,2019-08-07 16:53:22:603
-5.3854,-7.3695,2.7236,-0.251,-0.0951,0.1402,0.0112,0.0335,0.0746,1538,2019-08-07 16:53:22:608
-5.438,-7.2979,2.7378,-0.251,-0.0951,0.1402,0.023,0.0229,0.0692,1543,2019-08-07 16:53:22:613
-5.438,-7.2979,2.7378,-0.1914,-0.282,0.031,0.023,0.0229,0.0692,1549,2019-08-07 16:53:22:619
-5.4762,-7.2836,2.8745,-0.1914,-0.282,0.031,0.0304,0.0037,0.0628,1553,2019-08-07 16:53:22:623
-5.4762,-7.2836,2.8745,-0.1914,-0.282,0.031,0.0304,0.0037,0.0628,1558,2019-08-07 16:53:22:628
-5.4762,-7.2836,2.8745,-0.1914,-0.282,0.031,0.0304,0.0037,0.0628,1563,2019-08-07 16:53:22:633
-5.5586,-7.2644,2.8978,-0.0853,-0.225,-0.1094,0.0262,-0.0315,0.0618,1568,2019-08-07 16:53:22:638
-5.5586,-7.2644,2.8978,-0.0853,-0.225,-0.1094,0.0155,-0.073,0.065,1573,2019-08-07 16:53:22:643
-5.5586,-7.2644,2.8978,-0.0853,-0.225,-0.1094,0.0155,-0.073,0.065,1578,2019-08-07 16:53:22:648
-5.482,-7.2262,2.8978,-0.0853,-0.225,-0.1094,0.0155,-0.073,0.065,1583,2019-08-07 16:53:22:653
-5.482,-7.2262,2.8978,-0.2009,-0.2165,-0.0651,0.0091,-0.1007,0.0628,1587,2019-08-07 16:53:22:657
-5.4246,-7.2739,2.9167,-0.2009,-0.2165,-0.0651,0.0091,-0.1007,0.0628,1593,2019-08-07 16:53:22:663
-5.4246,-7.2739,2.9167,-0.2009,-0.2165,-0.0651,0.0048,-0.1146,0.0607,1598,2019-08-07 16:53:22:668
-5.4246,-7.2739,2.9167,-0.3513,-0.2573,0.0479,0.0048,-0.1146,0.0607,1603,2019-08-07 16:53:22:673
-5.2524,-7.2357,2.813,-0.3513,-0.2573,0.0479,-0.0058,-0.0901,0.0554,1608,2019-08-07 16:53:22:678
-5.2524,-7.2357,2.813,-0.3513,-0.2573,0.0479,-0.0058,-0.0901,0.0554,1612,2019-08-07 16:53:22:682
-5.329,-7.1546,2.7941,-0.3513,-0.2573,0.0479,-0.0186,-0.0645,0.0437,1618,2019-08-07 16:53:22:688
-5.329,-7.1546,2.7941,-0.3513,-0.2573,0.0479,-0.0186,-0.0645,0.0437,1623,2019-08-07 16:53:22:693
-5.329,-7.1546,2.7941,-0.2864,-0.2387,0.0927,-0.0228,-0.0496,0.0383,1628,2019-08-07 16:53:22:698
-5.3481,-7.2501,2.8365,-0.2864,-0.2387,0.0927,-0.0228,-0.0496,0.0383,1634,2019-08-07 16:53:22:704
-5.3481,-7.2501,2.8365,-0.2864,-0.2387,0.0927,-0.0228,-0.0496,0.0383,1638,2019-08-07 16:53:22:708
-5.4199,-7.2357,2.7705,-0.2864,-0.2387,0.0927,-0.0228,-0.0336,0.0298,1643,2019-08-07 16:53:22:713
-5.4199,-7.2357,2.7705,-0.1739,-0.2459,0.08,-0.0228,-0.0336,0.0298,1648,2019-08-07 16:53:22:718
-5.4199,-7.2357,2.7705,-0.1739,-0.2459,0.08,-0.0207,-0.0368,0.0266,1653,2019-08-07 16:53:22:723
-5.439,-7.145,2.8224,-0.1739,-0.2459,0.08,-0.0207,-0.0368,0.0266,1658,2019-08-07 16:53:22:728
-5.439,-7.145,2.8224,-0.1739,-0.2459,0.08,-0.0197,-0.0357,0.0213,1662,2019-08-07 16:53:22:732
-5.439,-7.145,2.8224,-0.2375,-0.3065,0.0528,-0.0197,-0.0357,0.0213,1668,2019-08-07 16:53:22:738
-5.4151,-7.145,2.7753,-0.2375,-0.3065,0.0528,-0.0218,-0.0293,0.0149,1673,2019-08-07 16:53:22:743
-5.4151,-7.145,2.7753,-0.2375,-0.3065,0.0528,-0.0218,-0.0293,0.0149,1678,2019-08-07 16:53:22:748
-5.4678,-7.2262,2.7281,-0.2375,-0.3065,0.0528,-0.026,-0.0325,0.0128,1683,2019-08-07 16:53:22:753
-5.4678,-7.2262,2.7281,-0.171,-0.2918,0.1614,-0.026,-0.0325,0.0128,1687,2019-08-07 16:53:22:757
-5.4678,-7.2262,2.7281,-0.171,-0.2918,0.1614,-0.026,-0.0325,0.0096,1693,2019-08-07 16:53:22:763
-5.4678,-7.2596,2.7705,-0.171,-0.2918,0.1614,-0.026,-0.0325,0.0096,1699,2019-08-07 16:53:22:769
-5.4678,-7.2596,2.7705,-0.171,-0.2918,0.1614,-0.026,-0.0325,0.0096,1703,2019-08-07 16:53:22:773
-5.4678,-7.2596,2.7705,-0.2184,-0.2731,0.1328,-0.0207,-0.0357,0.0096,1708,2019-08-07 16:53:22:778
-5.4391,-7.2023,2.7705,-0.2184,-0.2731,0.1328,-0.0207,-0.0357,0.0096,1713,2019-08-07 16:53:22:783
-5.4391,-7.2023,2.7705,-0.2184,-0.2731,0.1328,-0.0165,-0.0325,0.0128,1719,2019-08-07 16:53:22:789
-5.396,-7.2166,2.714,-0.2184,-0.2731,0.1328,-0.0165,-0.0325,0.0128,1723,2019-08-07 16:53:22:793
-5.396,-7.2166,2.714,-0.2562,-0.2586,0.1718,-0.0143,-0.0347,0.0138,1728,2019-08-07 16:53:22:798
-5.396,-7.2166,2.714,-0.2562,-0.2586,0.1718,-0.0143,-0.0347,0.0138,1734,2019-08-07 16:53:22:804
-5.4056,-7.1689,2.6998,-0.2562,-0.2586,0.1718,-0.0154,-0.0464,0.016,1738,2019-08-07 16:53:22:808
-5.4056,-7.1689,2.6998,-0.2562,-0.2586,0.1718,-0.0154,-0.0464,0.016,1743,2019-08-07 16:53:22:813
-5.3434,-7.2119,2.7281,-0.3134,-0.2769,0.1839,-0.0165,-0.0475,0.0213,1748,2019-08-07 16:53:22:818
-5.3434,-7.2119,2.7281,-0.3134,-0.2769,0.1839,-0.0165,-0.0475,0.0213,1753,2019-08-07 16:53:22:823
-5.3434,-7.2119,2.7281,-0.3134,-0.2769,0.1839,-0.0165,-0.0475,0.0213,1758,2019-08-07 16:53:22:828
-5.2956,-7.188,2.7517,-0.3134,-0.2769,0.1839,-0.0165,-0.0517,0.0234,1763,2019-08-07 16:53:22:833
-5.2956,-7.188,2.7517,-0.3419,-0.3521,0.1402,-0.0165,-0.0517,0.0234,1768,2019-08-07 16:53:22:838
-5.2956,-7.188,2.7517,-0.3419,-0.3521,0.1402,-0.0079,-0.0507,0.0362,1773,2019-08-07 16:53:22:843
-5.2812,-7.1355,2.6904,-0.3419,-0.3521,0.1402,-0.0079,-0.0507,0.0362,1778,2019-08-07 16:53:22:848
-5.2812,-7.1355,2.6904,-0.3419,-0.3521,0.1402,-0.0037,-0.0443,0.0373,1783,2019-08-07 16:53:22:853
-5.2812,-7.1355,2.6904,-0.3869,-0.3584,0.2296,-0.0037,-0.0443,0.0373,1788,2019-08-07 16:53:22:858
-5.2621,-7.1259,2.6527,-0.3869,-0.3584,0.2296,-0.0037,-0.0443,0.0373,1793,2019-08-07 16:53:22:863
-5.2621,-7.1259,2.6527,-0.3869,-0.3584,0.2296,-0.0069,-0.0368,0.0469,1798,2019-08-07 16:53:22:868
-5.3291,-7.083,2.6433,-0.4032,-0.3419,0.2123,-0.0069,-0.0368,0.0469,1803,2019-08-07 16:53:22:873
-5.3291,-7.083,2.6433,-0.4032,-0.3419,0.2123,-0.009,-0.0315,0.0564,1808,2019-08-07 16:53:22:878
-5.3291,-7.083,2.6433,-0.4032,-0.3419,0.2123,-0.009,-0.0315,0.0564,1812,2019-08-07 16:53:22:882
-5.3291,-7.1164,2.6951,-0.3333,-0.3457,0.1578,-0.0069,-0.0315,0.066,1818,2019-08-07 16:53:22:888
-5.3291,-7.1164,2.6951,-0.3333,-0.3457,0.1578,-0.0069,-0.0315,0.066,1823,2019-08-07 16:53:22:893
-5.3291,-7.1164,2.6951,-0.3333,-0.3457,0.1578,-0.0015,-0.0336,0.0778,1828,2019-08-07 16:53:22:898
-5.42,-7.1164,2.6197,-0.3333,-0.3457,0.1578,-0.0015,-0.0336,0.0778,1834,2019-08-07 16:53:22:904
-5.42,-7.1164,2.6197,-0.3049,-0.399,0.1939,0.0027,-0.0293,0.0884,1838,2019-08-07 16:53:22:908
-5.42,-7.1164,2.6197,-0.3049,-0.399,0.1939,0.0027,-0.0293,0.0884,1843,2019-08-07 16:53:22:913
-5.4104,-7.1212,2.714,-0.3049,-0.399,0.1939,0.0038,-0.0261,0.0927,1848,2019-08-07 16:53:22:918
-5.4104,-7.1212,2.714,-0.2298,-0.3745,0.1814,0.0038,-0.0261,0.0927,1853,2019-08-07 16:53:22:923
-5.5253,-7.0639,2.6432,-0.2298,-0.3745,0.1814,0.0091,-0.0187,0.1012,1858,2019-08-07 16:53:22:928
-5.5253,-7.0639,2.6432,-0.2298,-0.3745,0.1814,0.0091,-0.0187,0.1012,1863,2019-08-07 16:53:22:933
-5.5253,-7.0639,2.6432,-0.1201,-0.4051,0.1937,0.0059,-0.0155,0.1076,1868,2019-08-07 16:53:22:938
-5.5875,-7.0161,2.7469,-0.1201,-0.4051,0.1937,0.0059,-0.0155,0.1076,1873,2019-08-07 16:53:22:943
-5.5875,-7.0161,2.7469,-0.1201,-0.4051,0.1937,0.0059,-0.0155,0.1076,1878,2019-08-07 16:53:22:948
-5.6449,-7.0018,2.7752,-0.1201,-0.4051,0.1937,0.0038,-0.0293,0.1076,1883,2019-08-07 16:53:22:953
-5.6449,-7.0018,2.7752,-0.0737,-0.4488,0.0985,6.0E-4,-0.0506,0.1108,1888,2019-08-07 16:53:22:958
-5.6449,-7.0018,2.7752,-0.0737,-0.4488,0.0985,6.0E-4,-0.0506,0.1108,1892,2019-08-07 16:53:22:962
-5.6258,-7.0161,2.8035,-0.0737,-0.4488,0.0985,-5.0E-4,-0.0624,0.1097,1898,2019-08-07 16:53:22:968
-5.6258,-7.0161,2.8035,-0.0737,-0.4488,0.0985,-5.0E-4,-0.0624,0.1097,1903,2019-08-07 16:53:22:973
-5.6258,-7.0161,2.8035,-0.0737,-0.4488,0.0985,-5.0E-4,-0.0624,0.1097,1908,2019-08-07 16:53:22:978
-5.6019,-6.9636,2.7799,-0.1356,-0.4448,0.1241,-0.009,-0.0602,0.1097,1913,2019-08-07 16:53:22:983
-5.6019,-6.9636,2.7799,-0.1356,-0.4448,0.1241,-0.009,-0.0602,0.1097,1918,2019-08-07 16:53:22:988
-5.6019,-6.9636,2.7799,-0.1356,-0.4448,0.1241,-0.0207,-0.057,0.1097,1923,2019-08-07 16:53:22:993
-5.5205,-6.9827,2.8176,-0.1356,-0.4448,0.1241,-0.0207,-0.057,0.1097,1928,2019-08-07 16:53:22:998
-5.5205,-6.9827,2.8176,-0.2068,-0.3989,0.0579,-0.0218,-0.0549,0.114,1933,2019-08-07 16:53:23:003
-5.554,-7.0304,2.7799,-0.2068,-0.3989,0.0579,-0.0218,-0.0549,0.114,1938,2019-08-07 16:53:23:008
-5.554,-7.0304,2.7799,-0.2068,-0.3989,0.0579,-0.0218,-0.0432,0.1108,1943,2019-08-07 16:53:23:013
-5.578,-7.0925,2.8554,-0.2068,-0.3989,0.0579,-0.0218,-0.0432,0.1108,1948,2019-08-07 16:53:23:018
-5.578,-7.0925,2.8554,-0.1637,-0.3391,0.0695,-0.0282,-0.0336,0.114,1954,2019-08-07 16:53:23:024
-5.578,-7.0925,2.8554,-0.1637,-0.3391,0.0695,-0.0282,-0.0336,0.114,1958,2019-08-07 16:53:23:028
-5.6258,-7.0782,2.8836,-0.1637,-0.3391,0.0695,-0.0282,-0.0336,0.114,1962,2019-08-07 16:53:23:032
-5.6258,-7.0782,2.8836,-0.1637,-0.3391,0.0695,-0.0303,-0.0368,0.1118,1968,2019-08-07 16:53:23:038
-5.6258,-7.0782,2.8836,-0.1119,-0.3127,0.0089,-0.0303,-0.0368,0.1118,1973,2019-08-07 16:53:23:043
-5.7406,-7.0973,2.8978,-0.1119,-0.3127,0.0089,-0.0335,-0.0549,0.1161,1978,2019-08-07 16:53:23:048
-5.7406,-7.0973,2.8978,-0.1119,-0.3127,0.0089,-0.0335,-0.0549,0.1161,1983,2019-08-07 16:53:23:053
-5.7024,-7.0639,2.8742,-0.1119,-0.3127,0.0089,-0.0346,-0.0688,0.1129,1988,2019-08-07 16:53:23:058
-5.7024,-7.0639,2.8742,-0.0784,-0.3385,-0.0214,-0.0346,-0.0688,0.1129,1993,2019-08-07 16:53:23:063
-5.7024,-7.0639,2.8742,-0.0784,-0.3385,-0.0214,-0.0367,-0.0954,0.1129,1998,2019-08-07 16:53:23:068
-5.7024,-7.0639,2.8883,-0.0784,-0.3385,-0.0214,-0.0367,-0.0954,0.1129,2003,2019-08-07 16:53:23:073
-5.7024,-7.0639,2.8883,-0.0784,-0.3385,-0.0214,-0.0367,-0.0954,0.1129,2008,2019-08-07 16:53:23:078
-5.6115,-7.0591,2.8601,-0.1802,-0.2796,0.0841,-0.0378,-0.1103,0.1076,2012,2019-08-07 16:53:23:082
-5.6115,-7.0591,2.8601,-0.1802,-0.2796,0.0841,-0.0378,-0.1103,0.1076,2018,2019-08-07 16:53:23:088
-5.6115,-7.0591,2.8601,-0.1802,-0.2796,0.0841,-0.0335,-0.1124,0.0969,2023,2019-08-07 16:53:23:093
-5.5445,-7.0639,2.7469,-0.1802,-0.2796,0.0841,-0.0335,-0.1124,0.0969,2028,2019-08-07 16:53:23:098
-5.5445,-7.0639,2.7469,-0.2891,-0.2412,0.1908,-0.026,-0.0933,0.098,2033,2019-08-07 16:53:23:103
-5.5445,-7.0639,2.7469,-0.2891,-0.2412,0.1908,-0.026,-0.0933,0.098,2038,2019-08-07 16:53:23:108
-5.5015,-7.0543,2.7328,-0.2891,-0.2412,0.1908,-0.0175,-0.0656,0.0884,2044,2019-08-07 16:53:23:114
-5.5015,-7.0543,2.7328,-0.2891,-0.2412,0.1908,-0.0175,-0.0656,0.0884,2047,2019-08-07 16:53:23:117
-5.5063,-7.0639,2.6809,-0.3312,-0.2466,0.2619,-5.0E-4,-0.0485,0.0905,2053,2019-08-07 16:53:23:123
-5.5063,-7.0639,2.6809,-0.3312,-0.2466,0.2619,-5.0E-4,-0.0485,0.0905,2057,2019-08-07 16:53:23:127
-5.5063,-7.0639,2.6809,-0.3312,-0.2466,0.2619,0.024,-0.0368,0.1012,2063,2019-08-07 16:53:23:133
-5.5445,-7.0973,2.7281,-0.3312,-0.2466,0.2619,0.024,-0.0368,0.1012,2068,2019-08-07 16:53:23:138
-5.5445,-7.0973,2.7281,-0.2472,-0.144,0.061,0.024,-0.0368,0.1012,2072,2019-08-07 16:53:23:142
-5.5445,-7.0973,2.7281,-0.2472,-0.144,0.061,0.0741,-0.0357,0.1182,2078,2019-08-07 16:53:23:148
-5.5685,-7.1832,2.9826,-0.2472,-0.144,0.061,0.0741,-0.0357,0.1182,2083,2019-08-07 16:53:23:153
-5.5685,-7.1832,2.9826,-0.2472,-0.144,0.061,0.1178,-0.0443,0.1438,2088,2019-08-07 16:53:23:158
-5.468,-7.2214,2.9685,-0.3826,-0.0762,-0.01,0.1178,-0.0443,0.1438,2092,2019-08-07 16:53:23:162
-5.468,-7.2214,2.9685,-0.3826,-0.0762,-0.01,0.1668,-0.0496,0.1683,2097,2019-08-07 16:53:23:167
-5.3053,-7.3646,2.8742,-0.3826,-0.0762,-0.01,0.1668,-0.0496,0.1683,2103,2019-08-07 16:53:23:173
-5.3053,-7.3646,2.8742,-0.3826,-0.0762,-0.01,0.1668,-0.0496,0.1683,2108,2019-08-07 16:53:23:178
-5.3053,-7.3646,2.8742,-0.7296,0.3265,0.2428,0.2296,0.0069,0.2173,2113,2019-08-07 16:53:23:183
-4.9896,-7.7608,2.5442,-0.7296,0.3265,0.2428,0.2296,0.0069,0.2173,2118,2019-08-07 16:53:23:188
-4.9896,-7.7608,2.5442,-0.7296,0.3265,0.2428,0.285,0.1816,0.3025,2123,2019-08-07 16:53:23:193
-4.9896,-7.7608,2.5442,-0.7296,0.3265,0.2428,0.285,0.1816,0.3025,2128,2019-08-07 16:53:23:198
-4.5303,-8.2764,2.2331,-1.5122,1.1631,0.7782,0.3457,0.4202,0.3824,2133,2019-08-07 16:53:23:203
-4.5303,-8.2764,2.2331,-1.5122,1.1631,0.7782,0.3457,0.4202,0.3824,2138,2019-08-07 16:53:23:208
-4.0758,-8.6679,2.3368,-1.5122,1.1631,0.7782,0.4491,0.7483,0.4602,2143,2019-08-07 16:53:23:213
-4.0758,-8.6679,2.3368,-1.5122,1.1631,0.7782,0.4491,0.7483,0.4602,2148,2019-08-07 16:53:23:218
-4.0758,-8.6679,2.3368,-2.2474,1.6886,0.5302,0.4491,0.7483,0.4602,2153,2019-08-07 16:53:23:223
-3.6165,-8.9543,2.6432,-2.2474,1.6886,0.5302,0.6387,1.2085,0.5198,2158,2019-08-07 16:53:23:228
-3.6165,-8.9543,2.6432,-2.2474,1.6886,0.5302,0.6387,1.2085,0.5198,2162,2019-08-07 16:53:23:232
-3.6165,-8.9543,2.6432,-2.2474,1.6886,0.5302,0.823,1.5728,0.5454,2168,2019-08-07 16:53:23:238
-3.4348,-8.8397,2.8176,-2.6646,1.7501,0.0368,0.823,1.5728,0.5454,2173,2019-08-07 16:53:23:243
-3.4348,-8.8397,2.8176,-2.6646,1.7501,0.0368,0.9892,1.9105,0.5529,2178,2019-08-07 16:53:23:248
-3.5639,-8.9686,3.1099,-2.6509,2.0211,-0.4465,0.9892,1.9105,0.5529,2183,2019-08-07 16:53:23:253
-3.5639,-8.9686,3.1099,-2.6509,2.0211,-0.4465,1.1702,2.2546,0.5603,2188,2019-08-07 16:53:23:258
-3.5639,-8.9686,3.1099,-2.6509,2.0211,-0.4465,1.1702,2.2546,0.5603,2193,2019-08-07 16:53:23:263
-4.0376,-9.403,4.623,-2.6509,2.0211,-0.4465,1.1702,2.2546,0.5603,2198,2019-08-07 16:53:23:268
-4.0376,-9.403,4.623,-2.2056,3.0969,-3.0251,1.3599,2.376,0.5944,2203,2019-08-07 16:53:23:273
-4.0376,-9.403,4.623,-2.2056,3.0969,-3.0251,1.3599,2.376,0.5944,2208,2019-08-07 16:53:23:278
-4.4108,-10.4819,6.5085,-2.2056,3.0969,-3.0251,1.5985,2.3451,0.6253,2213,2019-08-07 16:53:23:283
-4.4108,-10.4819,6.5085,-2.2056,3.0969,-3.0251,1.5985,2.3451,0.6253,2218,2019-08-07 16:53:23:288
-4.9944,-12.1718,8.9644,-1.6285,5.4614,-6.2546,1.983,2.0927,0.6029,2223,2019-08-07 16:53:23:293
-4.9944,-12.1718,8.9644,-1.6285,5.4614,-6.2546,1.983,2.0927,0.6029,2227,2019-08-07 16:53:23:297
-4.9944,-12.1718,8.9644,-1.6285,5.4614,-6.2546,2.3772,1.7134,0.5561,2234,2019-08-07 16:53:23:304
-5.4537,-13.3796,9.9496,-1.6285,5.4614,-6.2546,2.3772,1.7134,0.5561,2238,2019-08-07 16:53:23:308
-5.4537,-13.3796,9.9496,-1.6285,5.4614,-6.2546,2.3772,1.7134,0.5561,2242,2019-08-07 16:53:23:312
-5.2145,-14.363,9.1011,-1.3539,7.4911,-6.7595,2.8512,1.1307,0.4815,2248,2019-08-07 16:53:23:318
-5.2145,-14.363,9.1011,-1.3539,7.4911,-6.7595,3.1346,0.7323,0.3877,2253,2019-08-07 16:53:23:323
-5.2145,-14.363,9.1011,-1.3539,7.4911,-6.7595,3.1346,0.7323,0.3877,2258,2019-08-07 16:53:23:328
-4.1237,-15.6758,7.8378,-1.3539,7.4911,-6.7595,3.1346,0.7323,0.3877,2262,2019-08-07 16:53:23:332
-4.1237,-15.6758,7.8378,-2.9999,9.688,-4.3439,3.4201,0.5075,0.261,2268,2019-08-07 16:53:23:338
-4.1237,-15.6758,7.8378,-2.9999,9.688,-4.3439,3.4201,0.5075,0.261,2273,2019-08-07 16:53:23:343
-2.3344,-17.7811,5.4998,-2.9999,9.688,-4.3439,3.7993,0.5842,0.1108,2278,2019-08-07 16:53:23:348
-2.3344,-17.7811,5.4998,-2.9999,9.688,-4.3439,3.7993,0.5842,0.1108,2283,2019-08-07 16:53:23:353
-1.1862,-19.2371,4.161,-5.3076,12.6815,-1.2254,4.317,0.9976,-0.0096,2288,2019-08-07 16:53:23:358
-1.1862,-19.2371,4.161,-5.3076,12.6815,-1.2254,4.317,0.9976,-0.0096,2293,2019-08-07 16:53:23:363
-1.1862,-19.2371,4.161,-5.3076,12.6815,-1.2254,5.1298,1.7816,-0.0778,2299,2019-08-07 16:53:23:369
-0.88,-19.4996,3.4681,-5.3076,12.6815,-1.2254,5.1298,1.7816,-0.0778,2302,2019-08-07 16:53:23:372
-0.88,-19.4996,3.4681,-5.4553,13.2277,0.7063,5.7914,2.4847,-0.0341,2308,2019-08-07 16:53:23:378
-0.88,-19.4996,3.4681,-5.4553,13.2277,0.7063,5.7914,2.4847,-0.0341,2313,2019-08-07 16:53:23:383
-3.4731,-17.0459,3.3267,-5.4553,13.2277,0.7063,6.2952,3.0439,0.1576,2319,2019-08-07 16:53:23:389
-3.4731,-17.0459,3.3267,-5.4553,13.2277,0.7063,6.2952,3.0439,0.1576,2323,2019-08-07 16:53:23:393
-6.6738,-15.0648,4.3402,-0.4785,9.7988,-0.1748,6.4593,3.0429,0.3952,2328,2019-08-07 16:53:23:398
-6.6738,-15.0648,4.3402,-0.4785,9.7988,-0.1748,6.4593,3.0429,0.3952,2333,2019-08-07 16:53:23:403
-6.6738,-15.0648,4.3402,-0.4785,9.7988,-0.1748,6.2526,2.1598,0.7531,2338,2019-08-07 16:53:23:408
-11.0944,-13.0932,5.3489,-0.4785,9.7988,-0.1748,6.2526,2.1598,0.7531,2343,2019-08-07 16:53:23:413
-11.0944,-13.0932,5.3489,4.3713,8.3361,-0.9347,6.2526,2.1598,0.7531,2348,2019-08-07 16:53:23:418
-12.1374,-13.0502,4.9294,4.3713,8.3361,-0.9347,5.9437,0.8836,0.9683,2353,2019-08-07 16:53:23:423
-12.1374,-13.0502,4.9294,4.3713,8.3361,-0.9347,5.9437,0.8836,0.9683,2358,2019-08-07 16:53:23:428
-12.1374,-13.0502,4.9294,4.3713,8.3361,-0.9347,5.6209,-0.5449,1.1174,2363,2019-08-07 16:53:23:433
-10.2285,-13.1743,2.3179,2.6877,9.1946,2.5334,5.6209,-0.5449,1.1174,2368,2019-08-07 16:53:23:438
-10.2285,-13.1743,2.3179,2.6877,9.1946,2.5334,5.3173,-1.5335,1.2261,2373,2019-08-07 16:53:23:443
-7.2814,-12.2864,0.7341,-0.2321,8.6494,4.4191,5.3173,-1.5335,1.2261,2378,2019-08-07 16:53:23:448
-7.2814,-12.2864,0.7341,-0.2321,8.6494,4.4191,5.1735,-1.6581,1.3816,2383,2019-08-07 16:53:23:453
-7.2814,-12.2864,0.7341,-0.2321,8.6494,4.4191,5.1735,-1.6581,1.3816,2387,2019-08-07 16:53:23:457
-2.9852,-9.6035,-1.5804,-0.2321,8.6494,4.4191,5.0808,-0.8262,1.6448,2393,2019-08-07 16:53:23:463
-2.9852,-9.6035,-1.5804,-5.1473,5.5107,7.5541,5.0808,-0.8262,1.6448,2398,2019-08-07 16:53:23:468
-2.2532,-6.3812,-1.8255,-5.1473,5.5107,7.5541,4.9402,0.1645,1.9697,2403,2019-08-07 16:53:23:473
-2.2532,-6.3812,-1.8255,-5.1473,5.5107,7.5541,4.9402,0.1645,1.9697,2408,2019-08-07 16:53:23:478
-2.2532,-6.3812,-1.8255,-5.1473,5.5107,7.5541,4.9402,0.1645,1.9697,2413,2019-08-07 16:53:23:483
-3.521,-3.1159,-1.8585,-4.0818,1.0337,7.6979,4.7293,1.2884,2.4693,2418,2019-08-07 16:53:23:488
-3.521,-3.1159,-1.8585,-4.0818,1.0337,7.6979,4.7293,1.2884,2.4693,2423,2019-08-07 16:53:23:493
-3.521,-3.1159,-1.8585,-4.0818,1.0337,7.6979,4.4459,1.495,2.8741,2427,2019-08-07 16:53:23:497
-6.2815,-0.6096,-0.8969,-4.0818,1.0337,7.6979,4.4459,1.495,2.8741,2433,2019-08-07 16:53:23:503
-6.2815,-0.6096,-0.8969,-0.4871,-1.3906,5.5245,4.104,1.1989,3.1628,2438,2019-08-07 16:53:23:508
-7.9369,0.8368,0.7105,-0.4871,-1.3906,5.5245,4.104,1.1989,3.1628,2443,2019-08-07 16:53:23:513
-7.9369,0.8368,0.7105,-0.4871,-1.3906,5.5245,3.7439,0.3829,3.3183,2448,2019-08-07 16:53:23:518
-7.9369,0.8368,0.7105,-0.4871,-1.3906,5.5245,3.7439,0.3829,3.3183,2453,2019-08-07 16:53:23:523
-7.1762,2.4313,-0.8026,-0.8402,-2.569,6.4555,3.7439,0.3829,3.3183,2458,2019-08-07 16:53:23:528
-7.1762,2.4313,-0.8026,-0.8402,-2.569,6.4555,3.1506,-0.5929,3.314,2462,2019-08-07 16:53:23:532
-4.7458,3.6725,-2.2168,-0.8402,-2.569,6.4555,3.1506,-0.5929,3.314,2469,2019-08-07 16:53:23:539
-4.7458,3.6725,-2.2168,-0.8402,-2.569,6.4555,2.4731,-0.8709,3.0861,2472,2019-08-07 16:53:23:542
-4.7458,3.6725,-2.2168,-3.8369,-3.9385,8.7993,2.4731,-0.8709,3.0861,2478,2019-08-07 16:53:23:548
-4.3296,5.5438,-2.1602,-3.8369,-3.9385,8.7993,2.0363,-0.415,2.8027,2483,2019-08-07 16:53:23:553
-4.3296,5.5438,-2.1602,-3.8369,-3.9385,8.7993,2.0363,-0.415,2.8027,2488,2019-08-07 16:53:23:558
-4.3296,5.5438,-2.1602,-3.8369,-3.9385,8.7993,2.0363,-0.415,2.8027,2493,2019-08-07 16:53:23:563
-7.358,6.7612,-0.7508,0.1953,-5.3325,6.3816,1.8296,-0.0794,2.5097,2499,2019-08-07 16:53:23:569
-7.358,6.7612,-0.7508,0.1953,-5.3325,6.3816,1.8296,-0.0794,2.5097,2503,2019-08-07 16:53:23:573
-7.358,6.7612,-0.7508,0.1953,-5.3325,6.3816,1.7082,-0.1327,2.1305,2507,2019-08-07 16:53:23:577
-10.6974,7.3531,-2.8154,0.1953,-5.3325,6.3816,1.7082,-0.1327,2.1305,2513,2019-08-07 16:53:23:583
-10.6974,7.3531,-2.8154,3.6173,-6.2586,9.3513,1.5207,-0.48,1.7875,2518,2019-08-07 16:53:23:588
-11.0898,8.7327,-3.9562,3.6173,-6.2586,9.3513,1.5207,-0.48,1.7875,2522,2019-08-07 16:53:23:592
-11.0898,8.7327,-3.9562,3.6173,-6.2586,9.3513,1.1905,-1.0808,1.3657,2528,2019-08-07 16:53:23:598
-11.0898,8.7327,-3.9562,3.6173,-6.2586,9.3513,1.1905,-1.0808,1.3657,2533,2019-08-07 16:53:23:603
-8.2144,8.6993,-5.4787,-0.0266,-6.3001,11.3899,0.5673,-1.9564,0.669,2537,2019-08-07 16:53:23:607
-8.2144,8.6993,-5.4787,-0.0266,-6.3001,11.3899,0.5673,-1.9564,0.669,2543,2019-08-07 16:53:23:613
-6.0424,8.3938,-7.3313,-0.0266,-6.3001,11.3899,0.5673,-1.9564,0.669,2548,2019-08-07 16:53:23:618
-6.0424,8.3938,-7.3313,-1.7625,-5.8945,13.9642,0.0357,-1.5101,-0.0511,2553,2019-08-07 16:53:23:623
-6.0424,8.3938,-7.3313,-1.7625,-5.8945,13.9642,0.0357,-1.5101,-0.0511,2558,2019-08-07 16:53:23:628
-5.7458,7.6968,-2.3723,-1.7625,-5.8945,13.9642,-0.1699,0.7664,-0.947,2563,2019-08-07 16:53:23:633
-5.7458,7.6968,-2.3723,1.7222,-4.8891,6.6877,-0.1699,0.7664,-0.947,2568,2019-08-07 16:53:23:638
-10.572,7.0188,-1.0805,1.7222,-4.8891,6.6877,0.2722,0.7366,-1.3955,2573,2019-08-07 16:53:23:643
-10.572,7.0188,-1.0805,1.7222,-4.8891,6.6877,0.2722,0.7366,-1.3955,2578,2019-08-07 16:53:23:648
-10.572,7.0188,-1.0805,1.7222,-4.8891,6.6877,0.6184,0.9102,-1.6309,2583,2019-08-07 16:53:23:653
-10.371,6.5176,-0.8213,2.6531,-4.2824,6.0541,0.6184,0.9102,-1.6309,2588,2019-08-07 16:53:23:658
-10.371,6.5176,-0.8213,2.6531,-4.2824,6.0541,0.3894,0.3233,-1.9633,2593,2019-08-07 16:53:23:663
-10.371,6.5176,-0.8213,2.6531,-4.2824,6.0541,0.3894,0.3233,-1.9633,2598,2019-08-07 16:53:23:668
-11.3518,6.8088,0.4845,3.5259,-4.6883,5.0378,0.3894,0.3233,-1.9633,2603,2019-08-07 16:53:23:673
-11.3518,6.8088,0.4845,3.5259,-4.6883,5.0378,-0.2135,-1.0105,-2.0038,2608,2019-08-07 16:53:23:678
-8.9549,6.3791,1.7666,3.5259,-4.6883,5.0378,-0.2135,-1.0105,-2.0038,2614,2019-08-07 16:53:23:684
-8.9549,6.3791,1.7666,3.5259,-4.6883,5.0378,-0.5661,-1.7039,-1.8706,2617,2019-08-07 16:53:23:687
-8.9549,6.3791,1.7666,-1.0666,-4.0527,2.9292,-0.5661,-1.7039,-1.8706,2623,2019-08-07 16:53:23:693
-8.9549,6.3791,1.7666,-1.0666,-4.0527,2.9292,-0.27,-1.3716,-1.8738,2628,2019-08-07 16:53:23:698
-2.9746,4.4219,3.1242,-1.0666,-4.0527,2.9292,-0.27,-1.3716,-1.8738,2633,2019-08-07 16:53:23:703
-2.9746,4.4219,3.1242,-5.1446,-3.282,6.8138,0.1859,-0.8081,-1.8504,2638,2019-08-07 16:53:23:708
-2.4483,5.0568,-1.5613,-5.1446,-3.282,6.8138,0.1859,-0.8081,-1.8504,2642,2019-08-07 16:53:23:712
-2.4483,5.0568,-1.5613,-5.1446,-3.282,6.8138,-0.0239,0.1326,-1.6309,2648,2019-08-07 16:53:23:718
-2.4483,5.0568,-1.5613,-5.1446,-3.282,6.8138,-0.0239,0.1326,-1.6309,2653,2019-08-07 16:53:23:723
-1.9651,4.2023,-0.793,-5.1446,-3.282,6.8138,-0.0239,0.1326,-1.6309,2658,2019-08-07 16:53:23:728
-1.9651,4.2023,-0.793,-5.0245,-2.8615,5.6562,-0.3936,1.1797,-1.6235,2662,2019-08-07 16:53:23:732
-1.9651,4.2023,-0.793,-5.0245,-2.8615,5.6562,-0.3936,1.1797,-1.6235,2668,2019-08-07 16:53:23:738
-6.8307,4.7465,4.1,-5.0245,-2.8615,5.6562,-0.2689,1.5952,-1.4839,2672,2019-08-07 16:53:23:742
-6.8307,4.7465,4.1,-5.0245,-2.8615,5.6562,-0.2689,1.5952,-1.4839,2678,2019-08-07 16:53:23:748
-8.1415,4.5699,3.4683,-0.0648,-3.3915,1.712,0.072,1.6495,-1.2315,2682,2019-08-07 16:53:23:752
-8.1415,4.5699,3.4683,-0.0648,-3.3915,1.712,0.0198,1.4183,-1.1377,2688,2019-08-07 16:53:23:758
-9.7729,5.2382,3.902,-0.0648,-3.3915,1.712,0.0198,1.4183,-1.1377,2693,2019-08-07 16:53:23:763
-9.7729,5.2382,3.902,-0.0648,-3.3915,1.712,0.0198,1.4183,-1.1377,2698,2019-08-07 16:53:23:768
-9.7729,5.2382,3.902,1.9948,-4.2407,1.2607,-0.1496,0.8293,-0.9769,2703,2019-08-07 16:53:23:773
-9.5529,4.7895,4.3309,1.9948,-4.2407,1.2607,-0.1496,0.8293,-0.9769,2708,2019-08-07 16:53:23:778
-9.5529,4.7895,4.3309,1.9948,-4.2407,1.2607,-0.2061,0.3733,-0.7521,2713,2019-08-07 16:53:23:783
-9.5529,4.7895,4.3309,1.9948,-4.2407,1.2607,-0.2061,0.3733,-0.7521,2718,2019-08-07 16:53:23:788
-8.2181,4.0686,4.2225,-0.0345,-3.2391,1.0161,-0.0495,0.2806,-0.6583,2723,2019-08-07 16:53:23:793
-8.2181,4.0686,4.2225,-0.0345,-3.2391,1.0161,-0.0495,0.2806,-0.6583,2728,2019-08-07 16:53:23:798
-8.1128,3.9111,2.5114,-0.0345,-3.2391,1.0161,-0.0154,0.2945,-0.5795,2732,2019-08-07 16:53:23:802
-8.1128,3.9111,2.5114,-0.0345,-3.2391,1.0161,-0.0154,0.2945,-0.5795,2738,2019-08-07 16:53:23:808
-8.1128,3.9111,2.5114,-0.5224,-2.7201,3.3184,-0.172,0.336,-0.5763,2743,2019-08-07 16:53:23:813
-7.4382,3.0184,1.5687,-0.5224,-2.7201,3.3184,-0.172,0.336,-0.5763,2748,2019-08-07 16:53:23:818
-7.4382,3.0184,1.5687,-0.5224,-2.7201,3.3184,-0.3467,0.4852,-0.6935,2752,2019-08-07 16:53:23:822
-7.4382,3.0184,1.5687,-0.5224,-2.7201,3.3184,-0.3467,0.4852,-0.6935,2758,2019-08-07 16:53:23:828
-7.8018,2.6794,0.5646,-0.3672,-2.2353,4.6094,-0.4394,0.8165,-0.8597,2763,2019-08-07 16:53:23:833
-7.8018,2.6794,0.5646,-0.3672,-2.2353,4.6094,-0.4394,0.8165,-0.8597,2768,2019-08-07 16:53:23:838
-8.7395,3.2523,0.2111,-0.3672,-2.2353,4.6094,-0.4873,1.1446,-0.9779,2773,2019-08-07 16:53:23:843
-8.7395,3.2523,0.2111,-0.3672,-2.2353,4.6094,-0.4873,1.1446,-0.9779,2778,2019-08-07 16:53:23:848
-9.1701,3.1664,-0.8118,0.5079,-2.7276,5.5716,-0.6194,1.429,-1.1079,2782,2019-08-07 16:53:23:852
-9.1701,3.1664,-0.8118,0.5079,-2.7276,5.5716,-0.6194,1.429,-1.1079,2788,2019-08-07 16:53:23:858
-9.1701,3.1664,-0.8118,0.5079,-2.7276,5.5716,-0.6194,1.429,-1.1079,2793,2019-08-07 16:53:23:863
-10.1556,3.2618,0.1121,0.5079,-2.7276,5.5716,-0.8282,1.755,-1.3476,2799,2019-08-07 16:53:23:869
-10.1556,3.2618,0.1121,1.7319,-3.1721,4.0523,-0.8282,1.755,-1.3476,2802,2019-08-07 16:53:23:872
-10.768,3.3,0.6966,1.7319,-3.1721,4.0523,-0.9571,1.7688,-1.5596,2810,2019-08-07 16:53:23:880
-10.768,3.3,0.6966,1.7319,-3.1721,4.0523,-0.9571,1.7688,-1.5596,2812,2019-08-07 16:53:23:882
-10.768,3.3,0.6966,1.7319,-3.1721,4.0523,-1.0998,1.6282,-1.7897,2818,2019-08-07 16:53:23:888
-11.0598,2.8274,0.9087,2.2026,-3.0408,3.303,-1.0998,1.6282,-1.7897,2822,2019-08-07 16:53:23:892
-11.0598,2.8274,0.9087,2.2026,-3.0408,3.303,-1.3171,1.3715,-2.0687,2828,2019-08-07 16:53:23:898
-11.4761,2.0636,1.6205,2.2026,-3.0408,3.303,-1.6176,0.9858,-2.3745,2833,2019-08-07 16:53:23:903
-11.4761,2.0636,1.6205,2.2026,-3.0408,3.303,-1.6176,0.9858,-2.3745,2838,2019-08-07 16:53:23:908
-11.4761,2.0636,1.6205,2.8233,-2.3668,2.2111,-1.6176,0.9858,-2.3745,2843,2019-08-07 16:53:23:913
-11.921,1.3666,1.8656,2.8233,-2.3668,2.2111,-1.9595,0.5395,-2.6568,2848,2019-08-07 16:53:23:918
-11.921,1.3666,1.8656,2.8233,-2.3668,2.2111,-1.9595,0.5395,-2.6568,2852,2019-08-07 16:53:23:922
-11.921,1.3666,1.8656,2.8233,-2.3668,2.2111,-2.2919,0.0516,-2.8698,2858,2019-08-07 16:53:23:928
-11.7631,0.6505,1.9175,2.7448,-1.9161,1.9534,-2.6093,-0.4459,-3.0275,2864,2019-08-07 16:53:23:934
-11.7631,0.6505,1.9175,2.7448,-1.9161,1.9534,-2.6093,-0.4459,-3.0275,2868,2019-08-07 16:53:23:938
-11.7631,0.6505,1.9175,2.7448,-1.9161,1.9534,-2.6093,-0.4459,-3.0275,2873,2019-08-07 16:53:23:943
-11.0168,-0.0655,1.8609,2.172,-1.6952,2.0,-2.8565,-0.8059,-3.1063,2877,2019-08-07 16:53:23:947
-11.0168,-0.0655,1.8609,2.172,-1.6952,2.0,-2.8565,-0.8059,-3.1063,2883,2019-08-07 16:53:23:953
-11.0168,-0.0655,1.8609,2.172,-1.6952,2.0,-3.3241,-1.3854,-3.1276,2888,2019-08-07 16:53:23:958
-9.4906,-1.2256,1.2151,0.6001,-1.2358,2.7236,-3.3241,-1.3854,-3.1276,2893,2019-08-07 16:53:23:963
-9.4906,-1.2256,1.2151,0.6001,-1.2358,2.7236,-3.5286,-1.5868,-3.1021,2898,2019-08-07 16:53:23:968
-8.7395,-1.8318,1.1774,0.6001,-1.2358,2.7236,-3.5286,-1.5868,-3.1021,2903,2019-08-07 16:53:23:973
-8.7395,-1.8318,1.1774,0.6001,-1.2358,2.7236,-3.5286,-1.5868,-3.1021,2908,2019-08-07 16:53:23:978
-8.7395,-1.8318,1.1774,0.5898,-1.0047,2.8345,-3.6277,-1.77,-3.0616,2913,2019-08-07 16:53:23:983
-9.1078,-2.6338,1.1821,0.5898,-1.0047,2.8345,-3.6277,-1.77,-3.0616,2917,2019-08-07 16:53:23:987
-9.1078,-2.6338,1.1821,0.5898,-1.0047,2.8345,-3.7619,-2.0278,-2.9401,2923,2019-08-07 16:53:23:993
-9.1078,-2.6338,1.1821,0.5898,-1.0047,2.8345,-3.7619,-2.0278,-2.9401,2928,2019-08-07 16:53:23:998
-9.9594,-3.0683,2.6151,2.3313,-1.0308,0.9669,-3.9036,-2.3612,-2.7942,2933,2019-08-07 16:53:24:003
-9.9594,-3.0683,2.6151,2.3313,-1.0308,0.9669,-3.9036,-2.3612,-2.7942,2938,2019-08-07 16:53:24:008
-11.1076,-3.3213,3.8737,2.3313,-1.0308,0.9669,-4.0591,-3.0313,-2.5343,2943,2019-08-07 16:53:24:013
-11.1076,-3.3213,3.8737,2.3313,-1.0308,0.9669,-4.0591,-3.0313,-2.5343,2948,2019-08-07 16:53:24:018
-11.1076,-3.3213,3.8737,4.8038,-1.523,-0.051,-4.0591,-3.0313,-2.5343,2952,2019-08-07 16:53:24:022
-12.4424,-3.264,4.2603,4.8038,-1.523,-0.051,-4.2637,-4.0805,-2.1902,2958,2019-08-07 16:53:24:028
-12.4424,-3.264,4.2603,4.8038,-1.523,-0.051,-4.2637,-4.0805,-2.1902,2962,2019-08-07 16:53:24:032
-12.9352,-2.8916,4.4064,4.8038,-1.523,-0.051,-4.5385,-5.1756,-1.8536,2968,2019-08-07 16:53:24:038
-12.9352,-2.8916,4.4064,5.8913,-2.7452,0.3824,-4.5385,-5.1756,-1.8536,2972,2019-08-07 16:53:24:042
-12.9352,-2.8916,4.4064,5.8913,-2.7452,0.3824,-4.9007,-6.5946,-1.4775,2977,2019-08-07 16:53:24:047
-12.0884,-2.5766,2.4737,5.8913,-2.7452,0.3824,-4.9007,-6.5946,-1.4775,2983,2019-08-07 16:53:24:053
-12.0884,-2.5766,2.4737,5.8913,-2.7452,0.3824,-5.2714,-8.0146,-1.0493,2988,2019-08-07 16:53:24:058
-9.9355,-2.9155,-0.2226,5.8913,-2.7452,0.3824,-5.2714,-8.0146,-1.0493,2992,2019-08-07 16:53:24:062
-9.9355,-2.9155,-0.2226,3.0444,-2.9913,5.642,-5.6229,-9.1107,-0.5316,2999,2019-08-07 16:53:24:069
-9.9355,-2.9155,-0.2226,3.0444,-2.9913,5.642,-5.6229,-9.1107,-0.5316,3003,2019-08-07 16:53:24:073
-5.467,-4.4765,-3.5882,3.0444,-2.9913,5.642,-5.8701,-9.4228,0.0181,3008,2019-08-07 16:53:24:078
-5.467,-4.4765,-3.5882,3.0444,-2.9913,5.642,-5.8701,-9.4228,0.0181,3013,2019-08-07 16:53:24:083
-5.467,-4.4765,-3.5882,-2.4152,-0.9071,8.5038,-5.819,-9.0393,0.2759,3018,2019-08-07 16:53:24:088
-1.1707,-7.126,-3.9418,-2.4152,-0.9071,8.5038,-5.819,-9.0393,0.2759,3022,2019-08-07 16:53:24:092
-1.1707,-7.126,-3.9418,-2.4152,-0.9071,8.5038,-5.819,-9.0393,0.2759,3028,2019-08-07 16:53:24:098
0.8482,-10.2863,-3.7485,-2.4152,-0.9071,8.5038,-5.1936,-7.3605,0.8597,3033,2019-08-07 16:53:24:103
0.8482,-10.2863,-3.7485,-5.6353,3.7228,8.3831,-4.7718,-5.9426,1.1238,3038,2019-08-07 16:53:24:108
0.8482,-10.2863,-3.7485,-5.6353,3.7228,8.3831,-4.7718,-5.9426,1.1238,3043,2019-08-07 16:53:24:113
2.1591,-13.5516,-1.6367,-5.6353,3.7228,8.3831,-4.7718,-5.9426,1.1238,3048,2019-08-07 16:53:24:118
2.1591,-13.5516,-1.6367,-5.6353,3.7228,8.3831,-4.2573,-4.4651,1.2868,3052,2019-08-07 16:53:24:122
2.1591,-13.5516,-1.6367,-6.2957,6.6263,5.1072,-4.2573,-4.4651,1.2868,3058,2019-08-07 16:53:24:128
2.0634,-14.196,0.2253,-6.2957,6.6263,5.1072,-3.6554,-3.1367,1.3678,3063,2019-08-07 16:53:24:133
2.0634,-14.196,0.2253,-6.2957,6.6263,5.1072,-3.6554,-3.1367,1.3678,3068,2019-08-07 16:53:24:138
1.9391,-13.332,1.0407,-6.2957,6.6263,5.1072,-3.0993,-2.0693,1.3944,3073,2019-08-07 16:53:24:143
1.9391,-13.332,1.0407,-5.9409,5.2983,3.2177,-3.0993,-2.0693,1.3944,3078,2019-08-07 16:53:24:148
1.9391,-13.332,1.0407,-5.9409,5.2983,3.2177,-2.7265,-1.3737,1.3273,3083,2019-08-07 16:53:24:153
1.7142,-12.5682,0.7956,-5.9409,5.2983,3.2177,-2.7265,-1.3737,1.3273,3088,2019-08-07 16:53:24:158
1.7142,-12.5682,0.7956,-5.9409,5.2983,3.2177,-2.4655,-0.9551,1.1654,3093,2019-08-07 16:53:24:163
0.7813,-12.2101,0.7391,-5.1259,4.2278,3.1992,-2.4655,-0.9551,1.1654,3098,2019-08-07 16:53:24:168
0.7813,-12.2101,0.7391,-5.1259,4.2278,3.1992,-2.2066,-0.7622,1.0898,3103,2019-08-07 16:53:24:173
-0.41,-12.7209,0.6165,-5.1259,4.2278,3.1992,-2.2066,-0.7622,1.0898,3109,2019-08-07 16:53:24:179
-0.41,-12.7209,0.6165,-5.1259,4.2278,3.1992,-1.853,-0.6089,1.1036,3113,2019-08-07 16:53:24:183
-0.41,-12.7209,0.6165,-3.3838,4.9908,3.1108,-1.853,-0.6089,1.1036,3117,2019-08-07 16:53:24:187
-1.3525,-13.4704,0.6778,-3.3838,4.9908,3.1108,-1.4514,-0.4874,1.142,3123,2019-08-07 16:53:24:193
-1.3525,-13.4704,0.6778,-3.3838,4.9908,3.1108,-1.4514,-0.4874,1.142,3128,2019-08-07 16:53:24:198
-1.3525,-13.4704,0.6778,-3.3838,4.9908,3.1108,-1.0263,-0.5066,1.1537,3133,2019-08-07 16:53:24:203
-2.3428,-13.4322,1.5498,-1.9882,5.3188,1.8635,-1.0263,-0.5066,1.1537,3138,2019-08-07 16:53:24:208
-2.3428,-13.4322,1.5498,-1.9882,5.3188,1.8635,-0.6514,-0.7196,1.1665,3143,2019-08-07 16:53:24:213
-2.8691,-12.5968,2.2381,-1.9882,5.3188,1.8635,-0.6514,-0.7196,1.1665,3148,2019-08-07 16:53:24:218
-2.8691,-12.5968,2.2381,-1.9882,5.3188,1.8635,-0.3701,-1.0701,1.2048,3153,2019-08-07 16:53:24:223
-2.8691,-12.5968,2.2381,-1.9431,4.0291,1.1289,-0.3701,-1.0701,1.2048,3158,2019-08-07 16:53:24:228
-1.917,-11.9858,2.0354,-1.9431,4.0291,1.1289,-0.3701,-1.0701,1.2048,3163,2019-08-07 16:53:24:233
-1.917,-11.9858,2.0354,-1.9431,4.0291,1.1289,-0.1773,-1.3545,1.2218,3168,2019-08-07 16:53:24:238
-0.0942,-11.9667,1.4461,-1.9431,4.0291,1.1289,-0.1773,-1.3545,1.2218,3173,2019-08-07 16:53:24:243
-0.0942,-11.9667,1.4461,-4.7764,3.9623,2.0347,-0.1059,-1.2065,1.1452,3178,2019-08-07 16:53:24:248
-0.0942,-11.9667,1.4461,-4.7764,3.9623,2.0347,-0.1059,-1.2065,1.1452,3183,2019-08-07 16:53:24:253
0.9918,-11.9953,1.3283,-4.7764,3.9623,2.0347,-0.0101,-0.612,0.9939,3188,2019-08-07 16:53:24:258
0.9918,-11.9953,1.3283,-4.7764,3.9623,2.0347,-0.0101,-0.612,0.9939,3193,2019-08-07 16:53:24:263
0.5995,-12.0431,1.1539,-5.4751,4.1155,2.3329,0.0389,-0.0475,0.8842,3199,2019-08-07 16:53:24:269
0.5995,-12.0431,1.1539,-5.4751,4.1155,2.3329,0.0389,-0.0475,0.8842,3203,2019-08-07 16:53:24:273
0.5995,-12.0431,1.1539,-5.4751,4.1155,2.3329,0.0389,-0.0475,0.8842,3207,2019-08-07 16:53:24:277
-1.472,-12.0335,1.5781,-5.4751,4.1155,2.3329,0.0325,0.3382,0.7425,3214,2019-08-07 16:53:24:284
-1.472,-12.0335,1.5781,-2.0903,4.0607,1.2557,0.0325,0.3382,0.7425,3218,2019-08-07 16:53:24:288
-1.472,-12.0335,1.5781,-2.0903,4.0607,1.2557,0.0666,0.156,0.5997,3223,2019-08-07 16:53:24:293
-4.2469,-11.7089,3.2845,-2.0903,4.0607,1.2557,0.0666,0.156,0.5997,3228,2019-08-07 16:53:24:298
-4.2469,-11.7089,3.2845,-2.0903,4.0607,1.2557,0.1614,-0.4331,0.5433,3233,2019-08-07 16:53:24:303
-4.2469,-11.7089,3.2845,0.3496,3.4706,-0.1219,0.1614,-0.4331,0.5433,3238,2019-08-07 16:53:24:308
-5.1415,-11.136,3.5579,0.3496,3.4706,-0.1219,0.2136,-1.2437,0.4527,3245,2019-08-07 16:53:24:315
-5.1415,-11.136,3.5579,-0.0892,2.9062,-0.0117,0.2136,-1.2437,0.4527,3249,2019-08-07 16:53:24:319
-4.0651,-10.334,3.3694,-0.0892,2.9062,-0.0117,0.2136,-1.2437,0.4527,3253,2019-08-07 16:53:24:323
-4.0651,-10.334,3.3694,-0.0892,2.9062,-0.0117,0.2136,-1.2437,0.4527,3258,2019-08-07 16:53:24:328
-4.0651,-10.334,3.3694,-0.0892,2.9062,-0.0117,0.1657,-1.7434,0.3771,3263,2019-08-07 16:53:24:333
-1.9361,-9.8089,2.5822,-3.261,1.9981,1.2851,0.1657,-1.7434,0.3771,3268,2019-08-07 16:53:24:338
-1.9361,-9.8089,2.5822,-3.261,1.9981,1.2851,0.0986,-1.6059,0.3036,3272,2019-08-07 16:53:24:342
-0.3812,-9.5129,1.993,-3.261,1.9981,1.2851,0.0986,-1.6059,0.3036,3278,2019-08-07 16:53:24:348
-0.3812,-9.5129,1.993,-3.261,1.9981,1.2851,0.0602,-1.1298,0.2407,3283,2019-08-07 16:53:24:353
-0.3812,-9.5129,1.993,-4.4745,1.6386,1.99,0.0602,-1.1298,0.2407,3288,2019-08-07 16:53:24:358
-0.2664,-9.3459,1.8233,-4.4745,1.6386,1.99,-0.0079,-0.3766,0.1502,3294,2019-08-07 16:53:24:364
-0.2664,-9.3459,1.8233,-4.4745,1.6386,1.99,-0.0079,-0.3766,0.1502,3297,2019-08-07 16:53:24:367
-1.2758,-9.1167,2.1391,-4.4745,1.6386,1.99,-0.0378,0.1134,0.082,3303,2019-08-07 16:53:24:373
-1.2758,-9.1167,2.1391,-2.7646,1.2848,1.4765,-0.0378,0.1134,0.082,3308,2019-08-07 16:53:24:378
-1.2758,-9.1167,2.1391,-2.7646,1.2848,1.4765,-0.0271,0.401,0.0415,3313,2019-08-07 16:53:24:383
-2.5341,-9.0212,2.6387,-2.7646,1.2848,1.4765,-0.0271,0.401,0.0415,3318,2019-08-07 16:53:24:388
-2.5341,-9.0212,2.6387,-2.7646,1.2848,1.4765,-0.0271,0.401,0.0415,3323,2019-08-07 16:53:24:393
-3.3857,-8.8112,2.9876,-1.2534,1.0498,0.8171,-5.0E-4,0.5214,-0.0064,3328,2019-08-07 16:53:24:398
-3.3857,-8.8112,2.9876,-1.2534,1.0498,0.8171,-5.0E-4,0.5214,-0.0064,3332,2019-08-07 16:53:24:402
-3.3857,-8.8112,2.9876,-1.2534,1.0498,0.8171,-0.0101,0.4223,-0.0192,3338,2019-08-07 16:53:24:408
-4.333,-8.5677,3.2845,-1.2534,1.0498,0.8171,-0.0101,0.4223,-0.0192,3343,2019-08-07 16:53:24:413
-4.333,-8.5677,3.2845,-0.0632,0.737,-0.0204,-0.0111,0.2402,-0.0256,3348,2019-08-07 16:53:24:418
-4.333,-8.5677,3.2845,-0.0632,0.737,-0.0204,-0.0111,0.2402,-0.0256,3353,2019-08-07 16:53:24:423
-4.7492,-8.4197,3.9162,-0.0632,0.737,-0.0204,-0.0111,0.2402,-0.0256,3358,2019-08-07 16:53:24:428
-4.7492,-8.4197,3.9162,-0.0632,0.737,-0.0204,0.0038,-0.0166,-0.032,3363,2019-08-07 16:53:24:433
-4.7492,-8.4197,3.9162,-0.0632,0.737,-0.0204,0.0038,-0.0166,-0.032,3367,2019-08-07 16:53:24:437
-4.3999,-8.4102,3.8031,-0.2592,0.6376,-0.046,0.0368,-0.2882,-0.0266,3373,2019-08-07 16:53:24:443
-4.3999,-8.4102,3.8031,-0.2592,0.6376,-0.046,0.0368,-0.2882,-0.0266,3377,2019-08-07 16:53:24:447
-3.5962,-8.2956,3.3458,-0.2592,0.6376,-0.046,0.0656,-0.3457,-0.0565,3383,2019-08-07 16:53:24:453
-3.5962,-8.2956,3.3458,-0.2592,0.6376,-0.046,0.0656,-0.3457,-0.0565,3388,2019-08-07 16:53:24:458
-3.5962,-8.2956,3.3458,-1.4502,0.3791,0.6689,0.0922,-0.2467,-0.0735,3393,2019-08-07 16:53:24:463
-2.9216,-8.1142,2.9923,-1.4502,0.3791,0.6689,0.0922,-0.2467,-0.0735,3398,2019-08-07 16:53:24:468
-2.9216,-8.1142,2.9923,-1.4502,0.3791,0.6689,0.121,-0.0027,-0.0948,3403,2019-08-07 16:53:24:473
-2.9216,-8.1142,2.9923,-1.4502,0.3791,0.6689,0.121,-0.0027,-0.0948,3407,2019-08-07 16:53:24:477
-2.4958,-8.1381,2.9216,-2.0913,0.3508,0.8933,0.1476,0.3233,-0.1353,3413,2019-08-07 16:53:24:483
-2.4958,-8.1381,2.9216,-2.0913,0.3508,0.8933,0.1476,0.3233,-0.1353,3418,2019-08-07 16:53:24:488
-2.8785,-8.0713,3.1808,-2.0913,0.3508,0.8933,0.17,0.6332,-0.1715,3423,2019-08-07 16:53:24:493
-2.8785,-8.0713,3.1808,-2.0913,0.3508,0.8933,0.17,0.6332,-0.1715,3428,2019-08-07 16:53:24:498
-2.8785,-8.0713,3.1808,-1.4391,0.2447,0.5377,0.203,0.8942,-0.1875,3432,2019-08-07 16:53:24:502
-3.3282,-7.9853,3.393,-1.4391,0.2447,0.5377,0.203,0.8942,-0.1875,3438,2019-08-07 16:53:24:508
-3.3282,-7.9853,3.393,-1.4391,0.2447,0.5377,0.203,0.8942,-0.1875,3443,2019-08-07 16:53:24:513
-3.821,-7.8851,3.5674,-1.4391,0.2447,0.5377,0.2243,1.0956,-0.2131,3447,2019-08-07 16:53:24:517
-3.821,-7.8851,3.5674,-0.5009,-0.0577,0.0632,0.2243,1.0956,-0.2131,3453,2019-08-07 16:53:24:523
-3.821,-7.8851,3.5674,-0.5009,-0.0577,0.0632,0.2243,1.0956,-0.2131,3457,2019-08-07 16:53:24:527
-4.6008,-7.6416,3.9869,-0.5009,-0.0577,0.0632,0.2051,1.1222,-0.2163,3463,2019-08-07 16:53:24:533
-4.6008,-7.6416,3.9869,-0.5009,-0.0577,0.0632,0.2051,1.1222,-0.2163,3467,2019-08-07 16:53:24:537
-5.1988,-7.6082,4.562,0.4744,-0.1988,-0.7909,0.1902,0.9368,-0.1928,3473,2019-08-07 16:53:24:543
-5.1988,-7.6082,4.562,0.4744,-0.1988,-0.7909,0.1902,0.9368,-0.1928,3477,2019-08-07 16:53:24:547
-5.1988,-7.6082,4.562,0.4744,-0.1988,-0.7909,0.1934,0.6759,-0.163,3483,2019-08-07 16:53:24:553
-5.0984,-7.6225,4.4724,0.4744,-0.1988,-0.7909,0.1934,0.6759,-0.163,3488,2019-08-07 16:53:24:558
-5.0984,-7.6225,4.4724,0.1691,-0.1921,-0.7753,0.1945,0.4287,-0.1385,3493,2019-08-07 16:53:24:563
-4.4525,-7.7323,4.1613,0.1691,-0.1921,-0.7753,0.1945,0.4287,-0.1385,3498,2019-08-07 16:53:24:568
-4.4525,-7.7323,4.1613,0.1691,-0.1921,-0.7753,0.1849,0.2636,-0.1278,3502,2019-08-07 16:53:24:572
-4.4525,-7.7323,4.1613,0.1691,-0.1921,-0.7753,0.1849,0.2636,-0.1278,3509,2019-08-07 16:53:24:579
-3.8353,-7.7466,3.8219,-0.8677,-0.0572,-0.1862,0.1923,0.2391,-0.1193,3513,2019-08-07 16:53:24:583
-3.8353,-7.7466,3.8219,-0.8677,-0.0572,-0.1862,0.1923,0.2391,-0.1193,3518,2019-08-07 16:53:24:588
-3.3282,-7.7657,3.393,-0.8677,-0.0572,-0.1862,0.203,0.3211,-0.1151,3523,2019-08-07 16:53:24:593
-3.3282,-7.7657,3.393,-0.8677,-0.0572,-0.1862,0.203,0.3211,-0.1151,3528,2019-08-07 16:53:24:598
-3.3282,-7.7657,3.393,-1.4486,0.047,0.3293,0.2136,0.4873,-0.1151,3532,2019-08-07 16:53:24:602
-3.1942,-7.823,3.2846,-1.4486,0.047,0.3293,0.2136,0.4873,-0.1151,3538,2019-08-07 16:53:24:608
-3.1942,-7.823,3.2846,-1.4486,0.047,0.3293,0.2317,0.7344,-0.1214,3543,2019-08-07 16:53:24:613
-3.486,-7.8469,3.2563,-1.4486,0.047,0.3293,0.2317,0.7344,-0.1214,3548,2019-08-07 16:53:24:618
-3.486,-7.8469,3.2563,-1.1056,0.0657,0.2922,0.2317,0.7344,-0.1214,3553,2019-08-07 16:53:24:623
-3.486,-7.8469,3.2563,-1.1056,0.0657,0.2922,0.2424,0.9134,-0.1459,3557,2019-08-07 16:53:24:627
-4.4053,-7.6702,3.5295,-1.1056,0.0657,0.2922,0.2424,0.939,-0.1428,3564,2019-08-07 16:53:24:634
-4.4053,-7.6702,3.5295,-1.1056,0.0657,0.2922,0.2424,0.939,-0.1428,3568,2019-08-07 16:53:24:638
-4.4053,-7.6702,3.5295,0.4886,-0.2125,-0.3314,0.2424,0.939,-0.1428,3573,2019-08-07 16:53:24:643
-5.4578,-7.5795,3.9538,0.4886,-0.2125,-0.3314,0.2349,0.8197,-0.13,3578,2019-08-07 16:53:24:648
-5.4578,-7.5795,3.9538,0.4886,-0.2125,-0.3314,0.2349,0.8197,-0.13,3583,2019-08-07 16:53:24:653
-6.1324,-7.4554,4.5053,0.4886,-0.2125,-0.3314,0.2275,0.5289,-0.1097,3587,2019-08-07 16:53:24:657
-6.1324,-7.4554,4.5053,1.3595,-0.3876,-0.9648,0.2275,0.5289,-0.1097,3593,2019-08-07 16:53:24:663
-6.1324,-7.4554,4.5053,1.3595,-0.3876,-0.9648,0.2232,0.1379,-0.0874,3598,2019-08-07 16:53:24:668
-5.9028,-7.4029,4.345,1.3595,-0.3876,-0.9648,0.2232,0.1379,-0.0874,3603,2019-08-07 16:53:24:673
-5.9028,-7.4029,4.345,1.3595,-0.3876,-0.9648,0.2179,-0.204,-0.0799,3608,2019-08-07 16:53:24:678
-4.9555,-7.4172,3.8124,0.1717,-0.3608,-0.2271,0.2179,-0.204,-0.0799,3613,2019-08-07 16:53:24:683
-4.9555,-7.4172,3.8124,0.1717,-0.3608,-0.2271,0.1902,-0.4043,-0.0693,3618,2019-08-07 16:53:24:688
-4.9555,-7.4172,3.8124,0.1717,-0.3608,-0.2271,0.1902,-0.4043,-0.0693,3622,2019-08-07 16:53:24:692
-4.0034,-7.4363,3.2656,0.1717,-0.3608,-0.2271,0.1838,-0.3489,-0.0703,3628,2019-08-07 16:53:24:698
-4.0034,-7.4363,3.2656,-1.0642,-0.2649,0.7013,0.1838,-0.3489,-0.0703,3633,2019-08-07 16:53:24:703
-4.0034,-7.4363,3.2656,-1.0642,-0.2649,0.7013,0.1838,-0.3489,-0.0703,3638,2019-08-07 16:53:24:708
-3.5298,-7.6034,2.7282,-1.0642,-0.2649,0.7013,0.2051,-0.0997,-0.0693,3643,2019-08-07 16:53:24:713
-3.5298,-7.6034,2.7282,-1.0642,-0.2649,0.7013,0.2051,-0.0997,-0.0693,3648,2019-08-07 16:53:24:718
-3.6111,-7.5365,2.7895,-1.109,-0.2334,0.8962,0.2136,0.1251,-0.0693,3652,2019-08-07 16:53:24:722
-3.6111,-7.5365,2.7895,-1.109,-0.2334,0.8962,0.2136,0.1251,-0.0693,3658,2019-08-07 16:53:24:728
-3.6111,-7.5365,2.7895,-1.109,-0.2334,0.8962,0.2264,0.3169,-0.082,3663,2019-08-07 16:53:24:733
-4.0465,-7.4029,3.044,-1.109,-0.2334,0.8962,0.2264,0.3169,-0.082,3668,2019-08-07 16:53:24:738
-4.0465,-7.4029,3.044,-0.4437,-0.4038,0.4262,0.2317,0.4639,-0.0724,3673,2019-08-07 16:53:24:743
-4.4053,-7.3408,3.2373,-0.4437,-0.4038,0.4262,0.2317,0.4639,-0.0724,3678,2019-08-07 16:53:24:748
-4.4053,-7.3408,3.2373,-0.4437,-0.4038,0.4262,0.2317,0.4639,-0.0724,3683,2019-08-07 16:53:24:753
-4.4053,-7.3408,3.2373,-0.4437,-0.4038,0.4262,0.2179,0.5161,-0.0618,3687,2019-08-07 16:53:24:757
-4.635,-7.2644,3.6662,-0.0307,-0.5031,0.0597,0.2179,0.5161,-0.0618,3693,2019-08-07 16:53:24:763
-4.635,-7.2644,3.6662,-0.0307,-0.5031,0.0597,0.2009,0.4777,-0.0554,3698,2019-08-07 16:53:24:768
-4.635,-7.2644,3.6662,-0.0307,-0.5031,0.0597,0.2009,0.4777,-0.0554,3703,2019-08-07 16:53:24:773
-4.8598,-7.1976,3.7888,-0.0307,-0.5031,0.0597,0.1721,0.384,-0.0373,3708,2019-08-07 16:53:24:778
-4.8598,-7.1976,3.7888,0.1481,-0.5393,-0.1866,0.1721,0.384,-0.0373,3713,2019-08-07 16:53:24:783
-4.9603,-7.1976,3.8642,0.1481,-0.5393,-0.1866,0.1721,0.384,-0.0373,3717,2019-08-07 16:53:24:787
-4.9603,-7.1976,3.8642,0.1481,-0.5393,-0.1866,0.1369,0.254,-0.0085,3723,2019-08-07 16:53:24:793
-4.9603,-7.1976,3.8642,0.0896,-0.5238,-0.1973,0.1369,0.254,-0.0085,3727,2019-08-07 16:53:24:797
-4.8407,-7.188,3.7558,0.0896,-0.5238,-0.1973,0.1018,0.1443,0.0138,3733,2019-08-07 16:53:24:803
-4.8407,-7.188,3.7558,0.0896,-0.5238,-0.1973,0.1018,0.1443,0.0138,3738,2019-08-07 16:53:24:808
-4.6493,-7.2071,3.5955,0.0896,-0.5238,-0.1973,0.1018,0.1443,0.0138,3742,2019-08-07 16:53:24:812
-4.6493,-7.2071,3.5955,-0.1931,-0.4609,0.1022,0.0762,0.0964,0.0351,3748,2019-08-07 16:53:24:818
-4.6493,-7.2071,3.5955,-0.1931,-0.4609,0.1022,0.0762,0.0964,0.0351,3752,2019-08-07 16:53:24:822
-4.458,-7.2453,3.3787,-0.1931,-0.4609,0.1022,0.0602,0.1059,0.0479,3758,2019-08-07 16:53:24:828
-4.458,-7.2453,3.3787,-0.1931,-0.4609,0.1022,0.0602,0.1059,0.0479,3763,2019-08-07 16:53:24:833
-4.4006,-7.2358,3.3457,-0.4277,-0.4663,0.3374,0.0528,0.1347,0.0607,3768,2019-08-07 16:53:24:838
-4.4006,-7.2358,3.3457,-0.4277,-0.4663,0.3374,0.0528,0.1347,0.0607,3772,2019-08-07 16:53:24:842
-4.4006,-7.2358,3.3457,-0.4277,-0.4663,0.3374,0.0475,0.1784,0.0628,3777,2019-08-07 16:53:24:847
-4.3623,-7.2358,3.176,-0.4277,-0.4663,0.3374,0.0475,0.1784,0.0628,3783,2019-08-07 16:53:24:853
-4.3623,-7.2358,3.176,-0.507,-0.4438,0.5757,0.0421,0.2679,0.0522,3788,2019-08-07 16:53:24:858
-4.4006,-7.2358,3.1289,-0.507,-0.4438,0.5757,0.0421,0.2679,0.0522,3792,2019-08-07 16:53:24:862
-4.4006,-7.2358,3.1289,-0.507,-0.4438,0.5757,0.0475,0.3723,0.0394,3799,2019-08-07 16:53:24:869
-4.4006,-7.2358,3.1289,-0.507,-0.4438,0.5757,0.0475,0.3723,0.0394,3802,2019-08-07 16:53:24:872
-4.568,-7.2644,3.1807,-0.3098,-0.4376,0.4418,0.0581,0.4607,0.0277,3808,2019-08-07 16:53:24:878
-4.568,-7.2644,3.1807,-0.3098,-0.4376,0.4418,0.0581,0.4607,0.0277,3813,2019-08-07 16:53:24:883
-4.8407,-7.2453,3.3457,-0.3098,-0.4376,0.4418,0.0794,0.5225,0.0202,3818,2019-08-07 16:53:24:888
-4.8407,-7.2453,3.3457,-0.3098,-0.4376,0.4418,0.0794,0.5225,0.0202,3823,2019-08-07 16:53:24:893
-4.8407,-7.2453,3.3457,-0.0216,-0.4963,0.1194,0.1018,0.5693,0.0064,3828,2019-08-07 16:53:24:898
-5.0895,-7.2167,3.539,-0.0216,-0.4963,0.1194,0.1018,0.5693,0.0064,3833,2019-08-07 16:53:24:903
-5.0895,-7.2167,3.539,-0.0216,-0.4963,0.1194,0.1071,0.532,0.0032,3837,2019-08-07 16:53:24:907
-5.3,-7.1642,3.7841,-0.0216,-0.4963,0.1194,0.1071,0.532,0.0032,3843,2019-08-07 16:53:24:913
-5.3,-7.1642,3.7841,0.3849,-0.5523,-0.252,0.1082,0.4277,0.0096,3848,2019-08-07 16:53:24:918
-5.3,-7.1642,3.7841,0.3849,-0.5523,-0.252,0.1082,0.4277,0.0096,3853,2019-08-07 16:53:24:923
-5.4435,-7.188,3.8878,0.3849,-0.5523,-0.252,0.1082,0.4277,0.0096,3857,2019-08-07 16:53:24:927
-5.4435,-7.188,3.8878,0.3849,-0.5523,-0.252,0.1135,0.2689,0.017,3863,2019-08-07 16:53:24:933
-5.3383,-7.2692,3.8406,0.4021,-0.3723,-0.3612,0.1135,0.2689,0.017,3868,2019-08-07 16:53:24:938
-5.3383,-7.2692,3.8406,0.4021,-0.3723,-0.3612,0.1082,0.1571,0.0149,3873,2019-08-07 16:53:24:943
-5.3383,-7.2692,3.8406,0.4021,-0.3723,-0.3612,0.1082,0.1571,0.0149,3878,2019-08-07 16:53:24:948
-5.1708,-7.3121,3.7841,0.4021,-0.3723,-0.3612,0.1018,0.0761,0.016,3883,2019-08-07 16:53:24:953
-5.1708,-7.3121,3.7841,0.0296,-0.3417,-0.2284,0.1018,0.0761,0.016,3888,2019-08-07 16:53:24:958
-5.1708,-7.3121,3.7841,0.0296,-0.3417,-0.2284,0.1018,0.0292,0.0138,3893,2019-08-07 16:53:24:963
-4.8694,-7.3121,3.6804,0.0296,-0.3417,-0.2284,0.1018,0.0292,0.0138,3898,2019-08-07 16:53:24:968
-4.8694,-7.3121,3.6804,0.0296,-0.3417,-0.2284,0.0954,0.0324,0.0138,3903,2019-08-07 16:53:24:973
-4.6015,-7.3503,3.6144,-0.4098,-0.2992,-0.0636,0.0954,0.0324,0.0138,3908,2019-08-07 16:53:24:978
-4.6015,-7.3503,3.6144,-0.4098,-0.2992,-0.0636,0.0954,0.0324,0.0138,3912,2019-08-07 16:53:24:982
-4.6015,-7.3503,3.6144,-0.4098,-0.2992,-0.0636,0.0858,0.0655,0.017,3918,2019-08-07 16:53:24:988
-4.4963,-7.2596,3.6144,-0.4098,-0.2992,-0.0636,0.0858,0.0655,0.017,3923,2019-08-07 16:53:24:993
-4.4963,-7.2596,3.6144,-0.4348,-0.3919,-0.0604,0.0752,0.1081,0.0117,3927,2019-08-07 16:53:24:997
-4.6302,-7.2119,3.6285,-0.4348,-0.3919,-0.0604,0.0752,0.1081,0.0117,3932,2019-08-07 16:53:25:002
-4.6302,-7.2119,3.6285,-0.4348,-0.3919,-0.0604,0.057,0.1336,0.0117,3938,2019-08-07 16:53:25:008
-4.6302,-7.2119,3.6285,-0.4348,-0.3919,-0.0604,0.057,0.1336,0.0117,3943,2019-08-07 16:53:25:013
-4.6972,-7.1737,3.6097,-0.3351,-0.3859,-0.0622,0.0357,0.1198,0.0245,3947,2019-08-07 16:53:25:017
-4.6972,-7.1737,3.6097,-0.3351,-0.3859,-0.0622,0.0357,0.1198,0.0245,3953,2019-08-07 16:53:25:023
-4.6063,-7.2119,3.5719,-0.3351,-0.3859,-0.0622,0.0325,0.1187,0.0288,3957,2019-08-07 16:53:25:027
-4.6063,-7.2119,3.5719,-0.3351,-0.3859,-0.0622,0.0325,0.1187,0.0288,3963,2019-08-07 16:53:25:033
-4.6063,-7.2119,3.5719,-0.3322,-0.376,0.1495,0.024,0.1102,0.0351,3968,2019-08-07 16:53:25:038
-4.6829,-7.2644,3.3504,-0.3322,-0.376,0.1495,0.024,0.1102,0.0351,3972,2019-08-07 16:53:25:042
-4.6829,-7.2644,3.3504,-0.3322,-0.376,0.1495,0.0112,0.1017,0.0447,3978,2019-08-07 16:53:25:048
-4.635,-7.2596,3.4541,-0.3322,-0.376,0.1495,0.0112,0.1017,0.0447,3983,2019-08-07 16:53:25:053
-4.635,-7.2596,3.4541,-0.3546,-0.3804,0.1329,0.0059,0.0751,0.0533,3988,2019-08-07 16:53:25:058
-4.635,-7.2596,3.4541,-0.3546,-0.3804,0.1329,0.0059,0.0751,0.0533,3994,2019-08-07 16:53:25:064
-4.6829,-7.2692,3.3692,-0.3546,-0.3804,0.1329,-0.0015,0.0559,0.0628,3999,2019-08-07 16:53:25:069
-4.6829,-7.2692,3.3692,-0.3546,-0.3804,0.1329,-0.0015,0.0559,0.0628,4003,2019-08-07 16:53:25:073
-4.6255,-7.293,3.2655,-0.4394,-0.3268,0.2729,-0.009,0.0314,0.0756,4009,2019-08-07 16:53:25:079
-4.6255,-7.293,3.2655,-0.4394,-0.3268,0.2729,-0.009,0.0314,0.0756,4013,2019-08-07 16:53:25:083
-4.6255,-7.293,3.2655,-0.4394,-0.3268,0.2729,-0.009,0.0314,0.0756,4017,2019-08-07 16:53:25:087
-4.5489,-7.3026,3.2561,-0.4394,-0.3268,0.2729,-0.0143,-0.0038,0.0927,4023,2019-08-07 16:53:25:093
-4.5489,-7.3026,3.2561,-0.6051,-0.2818,0.3213,-0.0143,-0.0038,0.0927,4027,2019-08-07 16:53:25:097
-4.5489,-7.3026,3.2561,-0.6051,-0.2818,0.3213,-0.0122,-0.024,0.1161,4033,2019-08-07 16:53:25:103
-4.3671,-7.3503,3.1383,-0.6051,-0.2818,0.3213,-0.0122,-0.024,0.1161,4038,2019-08-07 16:53:25:108
-4.3671,-7.3503,3.1383,-0.6051,-0.2818,0.3213,-0.0026,-0.023,0.1246,4043,2019-08-07 16:53:25:113
-4.2236,-7.3837,3.1147,-0.8676,-0.22,0.4205,-0.0026,-0.023,0.1246,4048,2019-08-07 16:53:25:118
-4.2236,-7.3837,3.1147,-0.8676,-0.22,0.4205,0.0048,0.0015,0.1502,4052,2019-08-07 16:53:25:122
-4.2236,-7.3837,3.1147,-0.8676,-0.22,0.4205,0.0048,0.0015,0.1502,4059,2019-08-07 16:53:25:129
-4.0657,-7.3981,3.0204,-0.8676,-0.22,0.4205,0.0166,0.0378,0.1811,4063,2019-08-07 16:53:25:133
-4.0657,-7.3981,3.0204,-1.0612,-0.1923,0.6071,0.0166,0.0378,0.1811,4068,2019-08-07 16:53:25:138
-4.1136,-7.4458,3.0204,-1.0612,-0.1923,0.6071,0.0357,0.1241,0.2003,4073,2019-08-07 16:53:25:143
-4.1136,-7.4458,3.0204,-1.0612,-0.1923,0.6071,0.0357,0.1241,0.2003,4077,2019-08-07 16:53:25:147
-4.1136,-7.4458,3.0204,-1.0612,-0.1923,0.6071,0.0453,0.2253,0.213,4083,2019-08-07 16:53:25:153
-4.482,-7.4506,3.0534,-0.6123,-0.067,0.4572,0.0453,0.2253,0.213,4088,2019-08-07 16:53:25:158
-4.482,-7.4506,3.0534,-0.6123,-0.067,0.4572,0.0453,0.2253,0.213,4093,2019-08-07 16:53:25:163
-5.0274,-7.441,3.2655,-0.6123,-0.067,0.4572,0.0464,0.3126,0.2098,4099,2019-08-07 16:53:25:169
-5.0274,-7.441,3.2655,-0.6123,-0.067,0.4572,0.0464,0.3126,0.2098,4102,2019-08-07 16:53:25:172
-5.0274,-7.441,3.2655,-0.6123,-0.067,0.4572,0.0475,0.3414,0.1907,4108,2019-08-07 16:53:25:178
-5.5297,-7.4601,3.4729,0.2331,-0.0715,0.0618,0.0475,0.3414,0.1907,4113,2019-08-07 16:53:25:183
-5.5297,-7.4601,3.4729,0.2331,-0.0715,0.0618,0.0475,0.3105,0.1758,4118,2019-08-07 16:53:25:188
-5.5297,-7.4601,3.4729,0.2331,-0.0715,0.0618,0.0475,0.3105,0.1758,4123,2019-08-07 16:53:25:193
-5.678,-7.5365,3.4588,0.2331,-0.0715,0.0618,0.0421,0.2444,0.1374,4128,2019-08-07 16:53:25:198
-5.678,-7.5365,3.4588,0.4284,0.0415,-0.0433,0.0421,0.2444,0.1374,4132,2019-08-07 16:53:25:202
-5.678,-7.5365,3.4588,0.4284,0.0415,-0.0433,0.0389,0.1667,0.0948,4138,2019-08-07 16:53:25:208
-5.7594,-7.5461,3.5955,0.4284,0.0415,-0.0433,0.0389,0.1667,0.0948,4143,2019-08-07 16:53:25:213
-5.7594,-7.5461,3.5955,0.4284,0.0415,-0.0433,0.0315,0.0772,0.0639,4148,2019-08-07 16:53:25:218
-5.5728,-7.4983,3.7133,0.3532,0.0176,-0.2283,0.0315,0.0772,0.0639,4153,2019-08-07 16:53:25:223
-5.5728,-7.4983,3.7133,0.3532,0.0176,-0.2283,0.0315,0.0772,0.0639,4158,2019-08-07 16:53:25:228
-5.5728,-7.4983,3.7133,0.3532,0.0176,-0.2283,0.0219,-0.0283,0.0383,4163,2019-08-07 16:53:25:233
-5.214,-7.4983,3.6002,0.3532,0.0176,-0.2283,0.0219,-0.0283,0.0383,4168,2019-08-07 16:53:25:238
-5.214,-7.4983,3.6002,-0.15,-0.052,-0.1186,0.0123,-0.0922,0.0256,4173,2019-08-07 16:53:25:243
-4.8982,-7.4601,3.5107,-0.15,-0.052,-0.1186,0.0123,-0.0922,0.0256,4178,2019-08-07 16:53:25:248
-4.8982,-7.4601,3.5107,-0.15,-0.052,-0.1186,0.0027,-0.1156,0.0234,4183,2019-08-07 16:53:25:253
-4.8982,-7.4601,3.5107,-0.15,-0.052,-0.1186,0.0027,-0.1156,0.0234,4187,2019-08-07 16:53:25:257
-4.6159,-7.4649,3.4541,-0.6651,-0.0359,0.0222,-0.0015,-0.1295,0.0288,4193,2019-08-07 16:53:25:263
-4.6159,-7.4649,3.4541,-0.6651,-0.0359,0.0222,-0.0015,-0.1295,0.0288,4198,2019-08-07 16:53:25:268
-4.5059,-7.4076,3.4117,-0.6651,-0.0359,0.0222,-0.0047,-0.1199,0.0309,4202,2019-08-07 16:53:25:272
-4.5059,-7.4076,3.4117,-0.6651,-0.0359,0.0222,-0.0047,-0.1199,0.0309,4209,2019-08-07 16:53:25:279
-4.5059,-7.4076,3.4117,-0.7813,-0.15,0.1769,-0.0079,-0.0911,0.0351,4213,2019-08-07 16:53:25:283
-4.4772,-7.3503,3.2938,-0.7813,-0.15,0.1769,-0.0079,-0.0911,0.0351,4218,2019-08-07 16:53:25:288
-4.4772,-7.3503,3.2938,-0.7813,-0.15,0.1769,-0.0079,-0.0911,0.0351,4222,2019-08-07 16:53:25:292
-4.4724,-7.379,3.2702,-0.7813,-0.15,0.1769,-0.0154,-0.0549,0.0394,4228,2019-08-07 16:53:25:298
-4.4724,-7.379,3.2702,-0.778,-0.0971,0.1924,-0.0154,-0.0549,0.0394,4233,2019-08-07 16:53:25:303
-4.4724,-7.379,3.2702,-0.778,-0.0971,0.1924,-0.025,0.0047,0.0277,4238,2019-08-07 16:53:25:308
-4.5681,-7.4172,3.2655,-0.778,-0.0971,0.1924,-0.025,0.0047,0.0277,4243,2019-08-07 16:53:25:313
-4.5681,-7.4172,3.2655,-0.778,-0.0971,0.1924,-0.0239,0.042,0.016,4248,2019-08-07 16:53:25:318
-4.8121,-7.3456,3.2655,-0.5305,-0.1222,0.2349,-0.0239,0.042,0.016,4253,2019-08-07 16:53:25:323
-4.8121,-7.3456,3.2655,-0.5305,-0.1222,0.2349,-0.0314,0.0655,0.0106,4258,2019-08-07 16:53:25:328
-4.8121,-7.3456,3.2655,-0.5305,-0.1222,0.2349,-0.0314,0.0655,0.0106,4263,2019-08-07 16:53:25:333
-4.9365,-7.336,3.3787,-0.5305,-0.1222,0.2349,-0.0314,0.0655,0.0106,4268,2019-08-07 16:53:25:338
-4.9365,-7.336,3.3787,-0.2622,-0.1145,0.0828,-0.0314,0.0527,0.0064,4272,2019-08-07 16:53:25:342
-4.9365,-7.336,3.3787,-0.2622,-0.1145,0.0828,-0.0314,0.0527,0.0064,4277,2019-08-07 16:53:25:347
-5.1183,-7.3599,3.5059,-0.2622,-0.1145,0.0828,-0.025,0.0186,0.0021,4283,2019-08-07 16:53:25:353
-5.1183,-7.3599,3.5059,-0.2622,-0.1145,0.0828,-0.025,0.0186,0.0021,4287,2019-08-07 16:53:25:357
-5.1709,-7.3026,3.5059,-0.1061,-0.2017,-0.0311,-0.0197,-0.0272,0.0074,4293,2019-08-07 16:53:25:363
-5.1709,-7.3026,3.5059,-0.1061,-0.2017,-0.0311,-0.0197,-0.0272,0.0074,4298,2019-08-07 16:53:25:368
-5.1709,-7.3026,3.5059,-0.1061,-0.2017,-0.0311,-0.0228,-0.0783,0.016,4302,2019-08-07 16:53:25:372
-5.0609,-7.293,3.4069,-0.1061,-0.2017,-0.0311,-0.0228,-0.0783,0.016,4308,2019-08-07 16:53:25:378
-5.0609,-7.293,3.4069,-0.1989,-0.2209,0.124,-0.0197,-0.1082,0.0224,4313,2019-08-07 16:53:25:383
-5.0322,-7.2739,3.2985,-0.1989,-0.2209,0.124,-0.0197,-0.1082,0.0224,4318,2019-08-07 16:53:25:388
-5.0322,-7.2739,3.2985,-0.1989,-0.2209,0.124,-0.0079,-0.1199,0.0309,4323,2019-08-07 16:53:25:393
-5.0322,-7.2739,3.2985,-0.1989,-0.2209,0.124,-0.0079,-0.1199,0.0309,4328,2019-08-07 16:53:25:398
-5.0465,-7.2883,3.3127,-0.2471,-0.2048,0.1767,-0.0111,-0.121,0.0383,4332,2019-08-07 16:53:25:402
-5.0465,-7.2883,3.3127,-0.2471,-0.2048,0.1767,-0.0111,-0.121,0.0383,4338,2019-08-07 16:53:25:408
-5.0609,-7.231,3.2655,-0.2471,-0.2048,0.1767,-0.0069,-0.1092,0.049,4343,2019-08-07 16:53:25:413
-5.0609,-7.231,3.2655,-0.2471,-0.2048,0.1767,-0.0069,-0.1092,0.049,4348,2019-08-07 16:53:25:418
-5.0609,-7.231,3.2655,-0.1692,-0.2584,0.1632,-0.0079,-0.0986,0.0405,4353,2019-08-07 16:53:25:423
-5.1231,-7.2262,3.3787,-0.1692,-0.2584,0.1632,-0.0079,-0.0986,0.0405,4357,2019-08-07 16:53:25:427
-5.1231,-7.2262,3.3787,-0.1735,-0.2471,0.1677,-0.0111,-0.0954,0.033,4364,2019-08-07 16:53:25:434
-5.0513,-7.2692,3.3127,-0.1735,-0.2471,0.1677,-0.0111,-0.0954,0.033,4368,2019-08-07 16:53:25:438
-5.0513,-7.2692,3.3127,-0.1735,-0.2471,0.1677,-0.0111,-0.0954,0.033,4373,2019-08-07 16:53:25:443
-5.0513,-7.2692,3.3127,-0.1735,-0.2471,0.1677,-0.0111,-0.0901,0.0309,4378,2019-08-07 16:53:25:448
-4.8935,-7.2739,3.2608,-0.4248,-0.2024,0.2598,-0.0111,-0.0901,0.0309,4383,2019-08-07 16:53:25:453
-4.8935,-7.2739,3.2608,-0.4248,-0.2024,0.2598,-0.0047,-0.0475,0.017,4387,2019-08-07 16:53:25:457
-4.7547,-7.3074,3.1901,-0.4248,-0.2024,0.2598,-0.0047,-0.0475,0.017,4393,2019-08-07 16:53:25:463
-4.7547,-7.3074,3.1901,-0.4248,-0.2024,0.2598,-0.009,-0.008,0.0128,4398,2019-08-07 16:53:25:468
-4.7547,-7.3074,3.1901,-0.5573,-0.1698,0.213,-0.009,-0.008,0.0128,4403,2019-08-07 16:53:25:473
-4.6543,-7.3599,3.2985,-0.5573,-0.1698,0.213,-0.0111,0.0314,0.0128,4409,2019-08-07 16:53:25:479
-4.6543,-7.3599,3.2985,-0.5573,-0.1698,0.213,-0.0111,0.0314,0.0128,4413,2019-08-07 16:53:25:483
-4.6638,-7.3456,3.2938,-0.5573,-0.1698,0.213,-5.0E-4,0.0633,0.0085,4418,2019-08-07 16:53:25:488
-4.6638,-7.3456,3.2938,-0.5573,-0.1698,0.213,-5.0E-4,0.0633,0.0085,4423,2019-08-07 16:53:25:493
-4.6638,-7.3456,3.2938,-0.5692,-0.1617,0.2582,0.0155,0.0985,0.0053,4428,2019-08-07 16:53:25:498
-4.7978,-7.3074,3.3362,-0.5692,-0.1617,0.2582,0.0155,0.0985,0.0053,4432,2019-08-07 16:53:25:502
-4.7978,-7.3074,3.3362,-0.5692,-0.1617,0.2582,0.0144,0.0868,0.0181,4438,2019-08-07 16:53:25:508
-4.8791,-7.3742,3.4494,-0.3938,-0.1225,0.0481,0.0144,0.0868,0.0181,4443,2019-08-07 16:53:25:513
-4.8791,-7.3742,3.4494,-0.3938,-0.1225,0.0481,0.0144,0.0868,0.0181,4448,2019-08-07 16:53:25:518
-4.8791,-7.3742,3.4494,-0.3938,-0.1225,0.0481,0.0134,0.0452,0.0181,4453,2019-08-07 16:53:25:523
-4.8456,-7.293,3.5625,-0.3938,-0.1225,0.0481,0.0134,0.0452,0.0181,4458,2019-08-07 16:53:25:528
-4.8456,-7.293,3.5625,-0.4635,-0.1723,0.0405,0.0251,-0.0112,0.0202,4464,2019-08-07 16:53:25:534
-4.8456,-7.293,3.5625,-0.4635,-0.1723,0.0405,0.0251,-0.0112,0.0202,4468,2019-08-07 16:53:25:538
-4.7787,-7.3074,3.3834,-0.4635,-0.1723,0.0405,0.04,-0.0485,0.0362,4473,2019-08-07 16:53:25:543
-4.7787,-7.3074,3.3834,-0.4635,-0.1723,0.0405,0.04,-0.0485,0.0362,4478,2019-08-07 16:53:25:548
-4.6782,-7.3312,3.2184,-0.4635,-0.1723,0.0405,0.0411,-0.04,0.0426,4482,2019-08-07 16:53:25:552
-4.6782,-7.3312,3.2184,-0.6357,-0.1912,0.1641,0.0411,-0.04,0.0426,4488,2019-08-07 16:53:25:558
-4.7452,-7.2453,3.3032,-0.6357,-0.1912,0.1641,0.0549,-0.0027,0.0426,4493,2019-08-07 16:53:25:563
-4.7452,-7.2453,3.3032,-0.6357,-0.1912,0.1641,0.0549,-0.0027,0.0426,4498,2019-08-07 16:53:25:568
-4.7452,-7.2453,3.3032,-0.6357,-0.1912,0.1641,0.0549,-0.0027,0.0426,4502,2019-08-07 16:53:25:572
-4.7882,-7.2978,3.2231,-0.4925,-0.1843,0.2938,0.0528,0.0239,0.0533,4508,2019-08-07 16:53:25:578
-4.7882,-7.2978,3.2231,-0.4925,-0.1843,0.2938,0.0528,0.0239,0.0533,4513,2019-08-07 16:53:25:583
-4.7787,-7.2739,3.2184,-0.4925,-0.1843,0.2938,0.0581,0.042,0.0469,4517,2019-08-07 16:53:25:587
-4.7787,-7.2739,3.2184,-0.4925,-0.1843,0.2938,0.0581,0.042,0.0469,4523,2019-08-07 16:53:25:593
-4.7787,-7.2739,3.2184,-0.5293,-0.158,0.344,0.072,0.0889,0.0383,4528,2019-08-07 16:53:25:598
-4.793,-7.3599,3.1288,-0.5293,-0.158,0.344,0.072,0.0889,0.0383,4532,2019-08-07 16:53:25:602
-4.793,-7.3599,3.1288,-0.5293,-0.158,0.344,0.0794,0.1539,0.0298,4538,2019-08-07 16:53:25:608
-5.0466,-7.3217,3.2467,-0.5293,-0.158,0.344,0.0794,0.1539,0.0298,4543,2019-08-07 16:53:25:613
-5.0466,-7.3217,3.2467,-0.1792,-0.1312,0.2409,0.0773,0.1709,0.0277,4548,2019-08-07 16:53:25:618
-5.0466,-7.3217,3.2467,-0.1792,-0.1312,0.2409,0.0773,0.1709,0.0277,4553,2019-08-07 16:53:25:623
-5.2715,-7.3074,3.4399,-0.1792,-0.1312,0.2409,0.072,0.1454,0.0298,4559,2019-08-07 16:53:25:629
-5.2715,-7.3074,3.4399,-0.1792,-0.1312,0.2409,0.072,0.1454,0.0298,4563,2019-08-07 16:53:25:633
-5.3614,-7.2788,3.5203,0.0147,-0.1465,-0.0476,0.072,0.1454,0.0298,4567,2019-08-07 16:53:25:637
-5.3614,-7.2788,3.5203,0.0147,-0.1465,-0.0476,0.0666,0.0814,0.0181,4573,2019-08-07 16:53:25:643
-5.3614,-7.2788,3.5203,0.0147,-0.1465,-0.0476,0.0666,0.0814,0.0181,4578,2019-08-07 16:53:25:648
-5.2944,-7.2597,3.5156,0.0147,-0.1465,-0.0476,0.0613,0.026,0.016,4582,2019-08-07 16:53:25:652
-5.2944,-7.2597,3.5156,-0.1174,-0.249,0.0739,0.0613,0.026,0.016,4588,2019-08-07 16:53:25:658
-5.1556,-7.212,3.525,-0.1174,-0.249,0.0739,0.0549,-0.0112,0.0117,4593,2019-08-07 16:53:25:663
-5.1556,-7.212,3.525,-0.1174,-0.249,0.0739,0.0549,-0.0112,0.0117,4598,2019-08-07 16:53:25:668
-5.1556,-7.212,3.525,-0.1174,-0.249,0.0739,0.0496,-0.0347,0.0075,4603,2019-08-07 16:53:25:673
-5.0169,-7.1261,3.4449,-0.3086,-0.3206,0.0798,0.0496,-0.0347,0.0075,4608,2019-08-07 16:53:25:678
-5.0169,-7.1261,3.4449,-0.3086,-0.3206,0.0798,0.0464,-0.0272,0.0106,4613,2019-08-07 16:53:25:683
-4.8303,-7.2072,3.2799,-0.3086,-0.3206,0.0798,0.0464,-0.0272,0.0106,4618,2019-08-07 16:53:25:688
-4.8303,-7.2072,3.2799,-0.3086,-0.3206,0.0798,0.0464,-0.0272,0.0106,4623,2019-08-07 16:53:25:693
-4.8303,-7.2072,3.2799,-0.4938,-0.2554,0.2487,0.0411,0.0079,0.0117,4627,2019-08-07 16:53:25:697
-4.8159,-7.1977,3.3223,-0.4938,-0.2554,0.2487,0.0411,0.0079,0.0117,4633,2019-08-07 16:53:25:703
-4.8159,-7.1977,3.3223,-0.4938,-0.2554,0.2487,0.0304,0.0548,0.016,4637,2019-08-07 16:53:25:707
-4.902,-7.2024,3.3223,-0.4938,-0.2554,0.2487,0.0304,0.0548,0.016,4644,2019-08-07 16:53:25:714
-4.902,-7.2024,3.3223,-0.431,-0.2192,0.1588,0.0293,0.0782,0.017,4647,2019-08-07 16:53:25:717
-4.902,-7.2024,3.3223,-0.431,-0.2192,0.1588,0.0293,0.0782,0.017,4653,2019-08-07 16:53:25:723
-4.9738,-7.1929,3.3789,-0.431,-0.2192,0.1588,0.0262,0.0825,0.017,4657,2019-08-07 16:53:25:727
-4.9738,-7.1929,3.3789,-0.431,-0.2192,0.1588,0.0262,0.0825,0.017,4663,2019-08-07 16:53:25:733
-4.9738,-7.1929,3.3789,-0.3191,-0.2544,0.1206,0.0208,0.091,0.017,4668,2019-08-07 16:53:25:738
-5.0455,-7.1595,3.3789,-0.3191,-0.2544,0.1206,0.0208,0.091,0.017,4672,2019-08-07 16:53:25:742
-5.0455,-7.1595,3.3789,-0.3191,-0.2544,0.1206,0.0198,0.0857,0.017,4678,2019-08-07 16:53:25:748
-5.0934,-7.1881,3.3977,-0.3191,-0.2544,0.1206,0.0198,0.0857,0.017,4683,2019-08-07 16:53:25:753
-5.0934,-7.1881,3.3977,-0.2699,-0.2134,0.1798,0.0176,0.0825,0.0192,4687,2019-08-07 16:53:25:757
-5.0934,-7.1881,3.3977,-0.2699,-0.2134,0.1798,0.0176,0.0825,0.0192,4693,2019-08-07 16:53:25:763
-5.1316,-7.2311,3.3365,-0.2699,-0.2134,0.1798,0.0176,0.0825,0.0192,4698,2019-08-07 16:53:25:768
-5.1316,-7.2311,3.3365,-0.2699,-0.2134,0.1798,0.0187,0.0825,0.0213,4702,2019-08-07 16:53:25:772
-5.2082,-7.2836,3.36,-0.1447,-0.1483,0.1541,0.0187,0.0825,0.0213,4708,2019-08-07 16:53:25:778
-5.2082,-7.2836,3.36,-0.1447,-0.1483,0.1541,0.0219,0.0708,0.017,4713,2019-08-07 16:53:25:783
-5.2082,-7.2836,3.36,-0.1447,-0.1483,0.1541,0.0219,0.0708,0.017,4718,2019-08-07 16:53:25:788
-5.2417,-7.2597,3.3742,-0.1447,-0.1483,0.1541,0.024,0.0516,0.016,4723,2019-08-07 16:53:25:793
-5.2417,-7.2597,3.3742,-0.1086,-0.1786,0.136,0.024,0.0516,0.016,4728,2019-08-07 16:53:25:798
-5.2273,-7.2168,3.3317,-0.1086,-0.1786,0.136,0.0272,0.0314,0.0128,4733,2019-08-07 16:53:25:803
-5.2273,-7.2168,3.3317,-0.1086,-0.1786,0.136,0.0272,0.0314,0.0128,4738,2019-08-07 16:53:25:808
-5.2273,-7.2168,3.3317,-0.1086,-0.1786,0.136,0.0262,0.026,0.0075,4743,2019-08-07 16:53:25:813
-5.1364,-7.2884,3.2705,-0.2701,-0.1379,0.1971,0.0262,0.026,0.0075,4748,2019-08-07 16:53:25:818
-5.1364,-7.2884,3.2705,-0.2701,-0.1379,0.1971,0.023,0.042,-0.0021,4752,2019-08-07 16:53:25:822
-5.0359,-7.2836,3.2516,-0.2701,-0.1379,0.1971,0.023,0.042,-0.0021,4759,2019-08-07 16:53:25:829
-5.0359,-7.2836,3.2516,-0.2701,-0.1379,0.1971,0.0176,0.0708,-0.0085,4763,2019-08-07 16:53:25:833
-5.0359,-7.2836,3.2516,-0.4583,-0.0716,0.2973,0.0176,0.0708,-0.0085,4768,2019-08-07 16:53:25:838
-4.945,-7.3218,3.228,-0.4583,-0.0716,0.2973,0.0176,0.0708,-0.0085,4772,2019-08-07 16:53:25:842
-4.945,-7.3218,3.228,-0.4583,-0.0716,0.2973,0.0166,0.1123,-0.0245,4778,2019-08-07 16:53:25:848
-4.9641,-7.3027,3.2469,-0.4583,-0.0716,0.2973,0.0166,0.1123,-0.0245,4783,2019-08-07 16:53:25:853
-4.9641,-7.3027,3.2469,-0.3749,-0.1177,0.1921,0.0102,0.139,-0.0309,4788,2019-08-07 16:53:25:858
-4.9641,-7.3027,3.2469,-0.3749,-0.1177,0.1921,0.0102,0.139,-0.0309,4793,2019-08-07 16:53:25:863
-4.9546,-7.2931,3.3648,-0.3749,-0.1177,0.1921,0.0048,0.14,-0.032,4799,2019-08-07 16:53:25:869
-4.9546,-7.2931,3.3648,-0.3749,-0.1177,0.1921,0.0048,0.14,-0.032,4803,2019-08-07 16:53:25:873
-4.9546,-7.2931,3.3648,-0.3749,-0.1177,0.1921,0.0048,0.14,-0.032,4808,2019-08-07 16:53:25:878
-5.0837,-7.2884,3.4355,-0.2873,-0.1458,0.0462,6.0E-4,0.1059,-0.033,4813,2019-08-07 16:53:25:883
-5.0837,-7.2884,3.4355,-0.2873,-0.1458,0.0462,6.0E-4,0.1059,-0.033,4818,2019-08-07 16:53:25:888
-5.0837,-7.2884,3.4355,-0.2873,-0.1458,0.0462,-0.0037,0.0559,-0.0234,4823,2019-08-07 16:53:25:893
-5.189,-7.2406,3.5439,-0.2873,-0.1458,0.0462,-0.0037,0.0559,-0.0234,4828,2019-08-07 16:53:25:898
-5.189,-7.2406,3.5439,-0.2009,-0.2061,-0.04,-0.0026,-0.007,-0.0149,4833,2019-08-07 16:53:25:903
-5.189,-7.2406,3.5439,-0.2009,-0.2061,-0.04,-0.0026,-0.007,-0.0149,4838,2019-08-07 16:53:25:908
-5.1363,-7.1786,3.4826,-0.2009,-0.2061,-0.04,0.0016,-0.0784,-0.0064,4843,2019-08-07 16:53:25:913
-5.1363,-7.1786,3.4826,-0.2009,-0.2061,-0.04,0.0016,-0.0784,-0.0064,4848,2019-08-07 16:53:25:918
-5.0024,-7.1499,3.3742,-0.2954,-0.2644,0.0896,0.0038,-0.0997,0.0011,4852,2019-08-07 16:53:25:922
-5.0024,-7.1499,3.3742,-0.2954,-0.2644,0.0896,0.0038,-0.0997,0.0011,4858,2019-08-07 16:53:25:928
-5.0024,-7.1499,3.3742,-0.4111,-0.2692,0.1568,0.0038,-0.0997,0.0011,4864,2019-08-07 16:53:25:934
-4.9258,-7.1308,3.2469,-0.4111,-0.2692,0.1568,6.0E-4,-0.0975,-0.0032,4867,2019-08-07 16:53:25:937
-4.9258,-7.1308,3.2469,-0.4111,-0.2692,0.1568,6.0E-4,-0.0975,-0.0032,4873,2019-08-07 16:53:25:943
-4.9354,-7.1261,3.2752,-0.4111,-0.2692,0.1568,0.0038,-0.056,-0.0011,4878,2019-08-07 16:53:25:948
-4.9354,-7.1261,3.2752,-0.3996,-0.2798,0.2781,0.0038,-0.056,-0.0011,4883,2019-08-07 16:53:25:953
-4.9354,-7.1261,3.2752,-0.3996,-0.2798,0.2781,0.008,-0.0017,0.0043,4887,2019-08-07 16:53:25:957
-4.921,-7.1834,3.2846,-0.4324,-0.2561,0.2128,0.008,-0.0017,0.0043,4893,2019-08-07 16:53:25:963
-4.921,-7.1834,3.2846,-0.4324,-0.2561,0.2128,0.0123,0.0452,-0.0021,4898,2019-08-07 16:53:25:968
-4.921,-7.1834,3.2846,-0.4324,-0.2561,0.2128,0.0123,0.0452,-0.0021,4903,2019-08-07 16:53:25:973
-5.0693,-7.1643,3.2941,-0.4324,-0.2561,0.2128,0.0123,0.0452,-0.0021,4908,2019-08-07 16:53:25:978
-5.0693,-7.1643,3.2941,-0.1964,-0.3229,0.2361,0.0091,0.0804,-0.0032,4913,2019-08-07 16:53:25:983
-5.165,-7.1738,3.3601,-0.1964,-0.3229,0.2361,0.0091,0.0804,-0.0032,4919,2019-08-07 16:53:25:989
-5.165,-7.1738,3.3601,-0.1964,-0.3229,0.2361,0.0059,0.0601,0.0053,4923,2019-08-07 16:53:25:993
-5.165,-7.1738,3.3601,-0.1964,-0.3229,0.2361,0.0059,0.0601,0.0053,4928,2019-08-07 16:53:25:998
-5.1984,-7.1834,3.4308,-0.163,-0.2552,0.0562,0.0102,0.0186,0.0085,4934,2019-08-07 16:53:26:004
-5.1984,-7.1834,3.4308,-0.163,-0.2552,0.0562,0.0102,0.0186,0.0085,4938,2019-08-07 16:53:26:008
-5.1984,-7.1834,3.4308,-0.1545,-0.34,0.0759,0.0134,-0.0198,0.016,4943,2019-08-07 16:53:26:013
-5.2271,-7.1356,3.4166,-0.1545,-0.34,0.0759,0.0134,-0.0198,0.016,4948,2019-08-07 16:53:26:018
-5.2271,-7.1356,3.4166,-0.1545,-0.34,0.0759,0.0059,-0.0762,0.0288,4954,2019-08-07 16:53:26:024
-5.2271,-7.1356,3.4166,-0.1545,-0.34,0.0759,0.0059,-0.0762,0.0288,4958,2019-08-07 16:53:26:028
-5.031,-7.1547,3.3035,-0.3546,-0.2508,0.2065,0.0059,-0.0762,0.0288,4963,2019-08-07 16:53:26:033
-5.031,-7.1547,3.3035,-0.3546,-0.2508,0.2065,0.0027,-0.0943,0.0362,4968,2019-08-07 16:53:26:038
-5.031,-7.1547,3.3035,-0.3546,-0.2508,0.2065,0.0027,-0.0943,0.0362,4973,2019-08-07 16:53:26:043
-4.8874,-7.1261,3.2658,-0.3546,-0.2508,0.2065,0.0027,-0.0943,0.0362,4978,2019-08-07 16:53:26:048
-4.8874,-7.1261,3.2658,-0.4102,-0.2667,0.2493,0.008,-0.0709,0.0405,4983,2019-08-07 16:53:26:053
-4.8874,-7.1261,3.2658,-0.4102,-0.2667,0.2493,0.008,-0.0709,0.0405,4988,2019-08-07 16:53:26:058
-4.8922,-7.1977,3.1998,-0.4102,-0.2667,0.2493,0.0038,-0.0507,0.0511,4993,2019-08-07 16:53:26:063
-4.8922,-7.1977,3.1998,-0.4102,-0.2667,0.2493,0.0038,-0.0507,0.0511,4999,2019-08-07 16:53:26:069
-4.8826,-7.1786,3.2234,-0.4798,-0.2482,0.287,0.0059,-0.0155,0.0458,5002,2019-08-07 16:53:26:072
-4.8826,-7.1786,3.2234,-0.4798,-0.2482,0.287,0.0059,-0.0155,0.0458,5008,2019-08-07 16:53:26:078
-4.8826,-7.1786,3.2234,-0.4798,-0.2482,0.287,0.0155,0.0378,0.0383,5013,2019-08-07 16:53:26:083
-5.074,-7.1309,3.2658,-0.4798,-0.2482,0.287,0.0155,0.0378,0.0383,5018,2019-08-07 16:53:26:088
-5.074,-7.1309,3.2658,-0.277,-0.3059,0.2373,0.0112,0.0623,0.0405,5022,2019-08-07 16:53:26:092
-5.0836,-7.1356,3.2752,-0.277,-0.3059,0.2373,0.0112,0.0623,0.0405,5028,2019-08-07 16:53:26:098
-5.0836,-7.1356,3.2752,-0.277,-0.3059,0.2373,0.0102,0.0708,0.0362,5033,2019-08-07 16:53:26:103
-5.0836,-7.1356,3.2752,-0.277,-0.3059,0.2373,0.0102,0.0708,0.0362,5038,2019-08-07 16:53:26:108
-5.1744,-7.1977,3.3082,-0.1772,-0.2446,0.1973,0.0102,0.0708,0.0362,5043,2019-08-07 16:53:26:113
-5.1744,-7.1977,3.3082,-0.1772,-0.2446,0.1973,0.0059,0.0889,0.0277,5048,2019-08-07 16:53:26:118
-5.3084,-7.2216,3.4025,-0.1772,-0.2446,0.1973,0.0059,0.0889,0.0277,5053,2019-08-07 16:53:26:123
-5.3084,-7.2216,3.4025,-0.1772,-0.2446,0.1973,0.0038,0.0782,0.0277,5058,2019-08-07 16:53:26:128
-5.3084,-7.2216,3.4025,-0.1772,-0.2446,0.1973,0.0038,0.0782,0.0277,5063,2019-08-07 16:53:26:133
-5.2605,-7.1834,3.4544,-0.13,-0.2315,0.0382,-0.0015,0.0292,0.0298,5068,2019-08-07 16:53:26:138
-5.2605,-7.1834,3.4544,-0.13,-0.2315,0.0382,-0.0015,0.0292,0.0298,5073,2019-08-07 16:53:26:143
-5.1648,-7.2311,3.4261,-0.13,-0.2315,0.0382,-0.0026,-0.0123,0.0277,5078,2019-08-07 16:53:26:148
-5.1648,-7.2311,3.4261,-0.2498,-0.176,0.1453,-0.0026,-0.0123,0.0277,5084,2019-08-07 16:53:26:154
-5.1648,-7.2311,3.4261,-0.2498,-0.176,0.1453,-0.0026,-0.0123,0.0277,5088,2019-08-07 16:53:26:158
-5.1505,-7.1834,3.3601,-0.2498,-0.176,0.1453,0.0027,-0.0166,0.0266,5093,2019-08-07 16:53:26:163
-5.1505,-7.1834,3.3601,-0.2498,-0.176,0.1453,0.0027,-0.0166,0.0266,5098,2019-08-07 16:53:26:168
-5.1505,-7.1834,3.3601,-0.2904,-0.1589,0.0579,-0.0047,-0.0219,0.0288,5103,2019-08-07 16:53:26:173
-5.0691,-7.255,3.4402,-0.2904,-0.1589,0.0579,-0.0047,-0.0219,0.0288,5108,2019-08-07 16:53:26:178
-5.0691,-7.255,3.4402,-0.2904,-0.1589,0.0579,-0.0047,-0.0219,0.0288,5112,2019-08-07 16:53:26:182
-4.9734,-7.2789,3.3318,-0.3391,-0.1387,0.1157,-5.0E-4,-0.0315,0.0288,5118,2019-08-07 16:53:26:188
-4.9734,-7.2789,3.3318,-0.3391,-0.1387,0.1157,-5.0E-4,-0.0315,0.0288,5123,2019-08-07 16:53:26:193
-4.9734,-7.2789,3.3318,-0.3391,-0.1387,0.1157,0.008,-0.0262,0.0277,5128,2019-08-07 16:53:26:198
-5.0165,-7.255,3.2705,-0.3391,-0.1387,0.1157,0.008,-0.0262,0.0277,5133,2019-08-07 16:53:26:203
-5.0165,-7.255,3.2705,-0.4308,-0.1843,0.2039,0.008,-0.0262,0.0277,5137,2019-08-07 16:53:26:207
-5.0165,-7.255,3.2705,-0.4308,-0.1843,0.2039,0.0208,0.0165,0.0213,5143,2019-08-07 16:53:26:213
-5.0787,-7.1738,3.3742,-0.4308,-0.1843,0.2039,0.0208,0.0165,0.0213,5149,2019-08-07 16:53:26:219
-5.0787,-7.1738,3.3742,-0.2668,-0.2005,0.1293,0.0144,0.0186,0.0213,5153,2019-08-07 16:53:26:223
-5.1504,-7.2263,3.3742,-0.2668,-0.2005,0.1293,0.0144,0.0186,0.0213,5158,2019-08-07 16:53:26:228
-5.1504,-7.2263,3.3742,-0.2668,-0.2005,0.1293,0.0059,0.0101,0.0149,5164,2019-08-07 16:53:26:234
-5.1504,-7.2263,3.3742,-0.2668,-0.2005,0.1293,0.0059,0.0101,0.0149,5169,2019-08-07 16:53:26:239
-5.2078,-7.212,3.313,-0.2668,-0.2005,0.1293,0.0038,0.0143,0.0032,5173,2019-08-07 16:53:26:243
-5.2078,-7.212,3.313,-0.2494,-0.1804,0.1663,0.0038,0.0143,0.0032,5179,2019-08-07 16:53:26:249
-5.2078,-7.212,3.313,-0.2494,-0.1804,0.1663,0.0027,0.0175,-0.0053,5183,2019-08-07 16:53:26:253
-5.1552,-7.2263,3.3271,-0.2494,-0.1804,0.1663,0.0027,0.0175,-0.0053,5188,2019-08-07 16:53:26:258
-5.1552,-7.2263,3.3271,-0.2494,-0.1804,0.1663,-0.0058,5.0E-4,-0.0064,5192,2019-08-07 16:53:26:262
-5.093,-7.2168,3.3507,-0.2207,-0.2194,0.1363,-0.0058,5.0E-4,-0.0064,5198,2019-08-07 16:53:26:268
-5.093,-7.2168,3.3507,-0.2207,-0.2194,0.1363,-0.0058,5.0E-4,-0.0064,5203,2019-08-07 16:53:26:273
-5.093,-7.2168,3.3507,-0.2207,-0.2194,0.1363,-0.009,-6.0E-4,-0.0085,5208,2019-08-07 16:53:26:278
-5.0738,-7.2073,3.3412,-0.2207,-0.2194,0.1363,-0.009,-6.0E-4,-0.0085,5213,2019-08-07 16:53:26:283
-5.0738,-7.2073,3.3412,-0.2618,-0.2455,0.2101,-0.009,0.0111,-0.016,5218,2019-08-07 16:53:26:288
-5.0738,-7.2073,3.3412,-0.2618,-0.2455,0.2101,-0.009,0.0111,-0.016,5223,2019-08-07 16:53:26:293
-5.1839,-7.2311,3.3224,-0.2618,-0.2455,0.2101,-0.0101,0.0058,-0.0043,5228,2019-08-07 16:53:26:298
-5.1839,-7.2311,3.3224,-0.2618,-0.2455,0.2101,-0.0101,0.0058,-0.0043,5233,2019-08-07 16:53:26:303
-5.1169,-7.255,3.2187,-0.2937,-0.1571,0.17,-0.0133,-0.0155,-0.0011,5238,2019-08-07 16:53:26:308
-5.1169,-7.255,3.2187,-0.2937,-0.1571,0.17,-0.0133,-0.0155,-0.0011,5242,2019-08-07 16:53:26:312
-5.1169,-7.255,3.2187,-0.3691,-0.177,0.203,-0.0037,-0.0251,-0.0043,5248,2019-08-07 16:53:26:318
-5.0499,-7.298,3.2988,-0.3691,-0.177,0.203,-0.0037,-0.0251,-0.0043,5253,2019-08-07 16:53:26:323
-5.0499,-7.298,3.2988,-0.3691,-0.177,0.203,0.0016,-0.0262,0.0011,5258,2019-08-07 16:53:26:328
-5.0116,-7.1929,3.2941,-0.3691,-0.177,0.203,0.0016,-0.0262,0.0011,5264,2019-08-07 16:53:26:334
-5.0116,-7.1929,3.2941,-0.342,-0.2354,0.2055,0.0016,-0.0262,0.0011,5267,2019-08-07 16:53:26:337
-5.0116,-7.1929,3.2941,-0.342,-0.2354,0.2055,0.0038,-0.023,0.0117,5273,2019-08-07 16:53:26:343
-4.9925,-7.1595,3.2941,-0.342,-0.2354,0.2055,0.0038,-0.023,0.0117,5278,2019-08-07 16:53:26:348
-4.9925,-7.1595,3.2941,-0.342,-0.2354,0.2055,0.008,-0.0091,0.0096,5283,2019-08-07 16:53:26:353
-5.0259,-7.1404,3.2847,-0.3273,-0.2825,0.2312,0.008,-0.0091,0.0096,5289,2019-08-07 16:53:26:359
-5.0259,-7.1404,3.2847,-0.3273,-0.2825,0.2312,0.0091,0.0047,0.0149,5293,2019-08-07 16:53:26:363
-5.0259,-7.1404,3.2847,-0.3273,-0.2825,0.2312,0.0091,0.0047,0.0149,5299,2019-08-07 16:53:26:369
-5.069,-7.2025,3.28,-0.3273,-0.2825,0.2312,-0.0015,0.0133,0.0245,5303,2019-08-07 16:53:26:373
-5.069,-7.2025,3.28,-0.3873,-0.2284,0.1739,-0.0015,0.0133,0.0245,5308,2019-08-07 16:53:26:378
-5.069,-7.2025,3.28,-0.3873,-0.2284,0.1739,-0.0026,0.0111,0.017,5313,2019-08-07 16:53:26:383
-5.0833,-7.212,3.2988,-0.3873,-0.2284,0.1739,-0.0026,0.0111,0.017,5318,2019-08-07 16:53:26:388
-5.0833,-7.212,3.2988,-0.3873,-0.2284,0.1739,0.008,0.0197,0.0245,5323,2019-08-07 16:53:26:393
-5.0833,-7.1547,3.3271,-0.3186,-0.2508,0.1678,0.008,0.0197,0.0245,5329,2019-08-07 16:53:26:399
-5.0833,-7.1547,3.3271,-0.3186,-0.2508,0.1678,0.008,0.0197,0.0245,5332,2019-08-07 16:53:26:402
-5.1312,-7.0688,3.3648,-0.3186,-0.2508,0.1678,0.0091,0.0378,0.0245,5339,2019-08-07 16:53:26:409
-5.1312,-7.0688,3.3648,-0.3186,-0.2508,0.1678,0.0091,0.0378,0.0245,5343,2019-08-07 16:53:26:413
-5.1312,-7.0688,3.3648,-0.2049,-0.3,0.1561,0.0038,0.0282,0.0277,5349,2019-08-07 16:53:26:419
-5.2029,-7.1022,3.4403,-0.2049,-0.3,0.1561,0.0038,0.0282,0.0277,5352,2019-08-07 16:53:26:422
-5.2029,-7.1022,3.4403,-0.2049,-0.3,0.1561,0.0038,0.0282,0.0277,5358,2019-08-07 16:53:26:428
-5.1072,-7.1929,3.3884,-0.2172,-0.2793,0.0469,-0.0079,-0.0038,0.0352,5364,2019-08-07 16:53:26:434
-5.1072,-7.1929,3.3884,-0.2172,-0.2793,0.0469,-0.0079,-0.0038,0.0352,5368,2019-08-07 16:53:26:438
-5.1072,-7.1929,3.3884,-0.2172,-0.2793,0.0469,-0.0037,-0.0123,0.0341,5373,2019-08-07 16:53:26:443
-5.0785,-7.2216,3.3177,-0.3022,-0.1285,0.1038,-0.0037,-0.0123,0.0341,5378,2019-08-07 16:53:26:448
-5.0785,-7.2216,3.3177,-0.3022,-0.1285,0.1038,6.0E-4,5.0E-4,0.033,5383,2019-08-07 16:53:26:453
-5.0785,-7.2216,3.3177,-0.3022,-0.1285,0.1038,6.0E-4,5.0E-4,0.033,5388,2019-08-07 16:53:26:458
-5.2077,-7.2311,3.4308,-0.3022,-0.1285,0.1038,-0.0026,-0.007,0.0341,5393,2019-08-07 16:53:26:463
-5.2077,-7.2311,3.4308,-0.2726,-0.0968,0.1277,-0.0026,-0.007,0.0341,5398,2019-08-07 16:53:26:468
-5.2077,-7.2311,3.4308,-0.2726,-0.0968,0.1277,-0.0015,-0.0219,0.0288,5403,2019-08-07 16:53:26:473
-5.155,-7.2836,3.3366,-0.2726,-0.0968,0.1277,-0.0015,-0.0219,0.0288,5408,2019-08-07 16:53:26:478
-5.155,-7.2836,3.3366,-0.2726,-0.0968,0.1277,6.0E-4,-0.0166,0.0224,5413,2019-08-07 16:53:26:483
-6.729,-6.8683,2.2288,1.3081,-0.5243,1.2638,6.0E-4,-0.0166,0.0224,5418,2019-08-07 16:53:26:488
-6.729,-6.8683,2.2288,1.3081,-0.5243,1.2638,6.0E-4,-0.0166,0.0224,5423,2019-08-07 16:53:26:493
-6.729,-6.8683,2.2288,1.3081,-0.5243,1.2638,-0.1986,-0.2626,0.081,5428,2019-08-07 16:53:26:498
-5.0354,-7.4316,4.8827,1.3081,-0.5243,1.2638,-0.1986,-0.2626,0.081,5432,2019-08-07 16:53:26:502
-5.0354,-7.4316,4.8827,-0.3486,0.062,0.047,0.0634,-0.3915,0.0053,5438,2019-08-07 16:53:26:508
-5.1119,-7.4555,2.9548,-0.3486,0.062,0.047,0.0634,-0.3915,0.0053,5442,2019-08-07 16:53:26:512
-5.1119,-7.4555,2.9548,-0.3486,0.062,0.047,0.0283,-0.3116,-0.0075,5447,2019-08-07 16:53:26:517
-5.1119,-7.4555,2.9548,-0.3486,0.062,0.047,0.0283,-0.3116,-0.0075,5453,2019-08-07 16:53:26:523
-4.3512,-7.1882,2.9878,-1.1505,-0.2014,0.5089,0.0112,-0.1455,-0.0021,5458,2019-08-07 16:53:26:528
-4.3512,-7.1882,2.9878,-1.1505,-0.2014,0.5089,0.0112,-0.1455,-0.0021,5463,2019-08-07 16:53:26:533
-4.1694,-7.1548,3.148,-1.1505,-0.2014,0.5089,0.0112,-0.1455,-0.0021,5467,2019-08-07 16:53:26:537
-4.1694,-7.1548,3.148,-1.1505,-0.2014,0.5089,0.0805,0.156,-0.033,5473,2019-08-07 16:53:26:543
-4.1694,-7.1548,3.148,-1.079,-0.1134,0.2651,0.0805,0.156,-0.033,5478,2019-08-07 16:53:26:548
-4.4038,-7.2789,3.2612,-1.079,-0.1134,0.2651,0.1423,0.3957,-0.0245,5482,2019-08-07 16:53:26:552
-4.4038,-7.2789,3.2612,-1.079,-0.1134,0.2651,0.1423,0.3957,-0.0245,5488,2019-08-07 16:53:26:558
-5.0545,-7.1834,3.0019,-1.079,-0.1134,0.2651,0.073,0.4383,-0.0075,5492,2019-08-07 16:53:26:562
-5.0545,-7.1834,3.0019,0.0051,-0.4206,0.0342,0.073,0.4383,-0.0075,5498,2019-08-07 16:53:26:568
-5.0545,-7.1834,3.0019,0.0051,-0.4206,0.0342,-0.0069,0.368,-0.0107,5502,2019-08-07 16:53:26:572
-5.6716,-6.9113,4.0154,0.0051,-0.4206,0.0342,-0.0069,0.368,-0.0107,5508,2019-08-07 16:53:26:578
-5.6716,-6.9113,4.0154,0.0051,-0.4206,0.0342,0.0155,0.2402,-0.0032,5513,2019-08-07 16:53:26:583
-5.8343,-7.1023,3.9447,0.4085,-0.2885,-0.4557,0.0155,0.2402,-0.0032,5518,2019-08-07 16:53:26:588
-5.8343,-7.1023,3.9447,0.4085,-0.2885,-0.4557,0.0155,0.2402,-0.0032,5523,2019-08-07 16:53:26:593