ACCELEROMETER X (m/s²),ACCELEROMETER Y (m/s²),ACCELEROMETER Z (m/s²),LINEAR ACCELERATION X (m/s²),LINEAR ACCELERATION Y (m/s²),LINEAR ACCELERATION Z (m/s²),GYROSCOPE X (rad/s),GYROSCOPE Y (rad/s),GYROSCOPE Z (rad/s),Time since start in ms ,YYYY-MO-DD HH-MI-SS_SSS
-4.4118,-7.8805,2.7901,-0.1779,-0.3552,0.0867,-0.0016,0.0101,0.0053,3,2019-08-07 16:52:23:889
-4.4118,-7.8805,2.7901,-0.146,-0.2732,0.0393,-0.0058,0.0026,0.0139,8,2019-08-07 16:52:23:894
-4.4261,-7.9044,2.7948,-0.146,-0.2732,0.0393,-0.0058,0.0026,0.0139,13,2019-08-07 16:52:23:899
-4.4261,-7.9044,2.7948,-0.146,-0.2732,0.0393,-0.0111,-0.0144,0.0117,18,2019-08-07 16:52:23:904
-4.4261,-7.9044,2.7948,-0.146,-0.2732,0.0393,-0.0111,-0.0144,0.0117,22,2019-08-07 16:52:23:908
-4.383,-7.8758,2.7901,-0.1862,-0.3296,0.0436,-0.0154,-0.0144,0.0149,28,2019-08-07 16:52:23:914
-4.383,-7.8758,2.7901,-0.1862,-0.3296,0.0436,-0.0154,-0.0144,0.0149,33,2019-08-07 16:52:23:919
-4.3448,-7.8328,2.7807,-0.1862,-0.3296,0.0436,-0.0197,-0.0049,0.0096,38,2019-08-07 16:52:23:924
-4.3448,-7.8328,2.7807,-0.1862,-0.3296,0.0436,-0.0197,-0.0049,0.0096,42,2019-08-07 16:52:23:928
-4.3448,-7.8328,2.7807,-0.1731,-0.3103,0.061,-0.025,0.0026,0.0075,48,2019-08-07 16:52:23:934
-4.4165,-7.8901,2.7901,-0.1731,-0.3103,0.061,-0.025,0.0026,0.0075,52,2019-08-07 16:52:23:938
-4.4165,-7.8901,2.7901,-0.1731,-0.3103,0.061,-0.0261,0.0026,0.0032,58,2019-08-07 16:52:23:944
-4.4165,-7.8901,2.7901,-0.1731,-0.3103,0.061,-0.0261,0.0026,0.0032,63,2019-08-07 16:52:23:949
-4.4596,-7.8996,2.7383,-0.112,-0.3064,0.0899,-0.0261,0.0026,-0.0032,67,2019-08-07 16:52:23:953
-4.4596,-7.8996,2.7383,-0.112,-0.3064,0.0899,-0.0261,0.0026,-0.0032,73,2019-08-07 16:52:23:959
-4.45,-7.914,2.776,-0.112,-0.3064,0.0899,-0.0261,0.0026,-0.0032,78,2019-08-07 16:52:23:964
-4.45,-7.914,2.776,-0.112,-0.3064,0.0899,-0.0271,-0.008,-0.0064,83,2019-08-07 16:52:23:969
-4.45,-7.914,2.776,-0.1448,-0.2889,0.0579,-0.0271,-0.008,-0.0064,88,2019-08-07 16:52:23:974
-4.3591,-7.9426,2.8137,-0.1448,-0.2889,0.0579,-0.0197,-0.0208,-0.0117,93,2019-08-07 16:52:23:979
-4.3591,-7.9426,2.8137,-0.1816,-0.2662,0.0854,-0.0197,-0.0208,-0.0117,98,2019-08-07 16:52:23:984
-4.3639,-7.9092,2.7336,-0.1816,-0.2662,0.0854,-0.0154,-0.0208,-0.0106,103,2019-08-07 16:52:23:989
-4.3639,-7.9092,2.7336,-0.1816,-0.2662,0.0854,-0.0154,-0.0208,-0.0106,108,2019-08-07 16:52:23:994
-4.3639,-7.9092,2.7336,-0.1816,-0.2662,0.0854,-0.0111,-0.0219,-0.0021,113,2019-08-07 16:52:23:999
-4.3256,-7.9378,2.6911,-0.2411,-0.2727,0.1318,-0.0111,-0.0219,-0.0021,117,2019-08-07 16:52:24:003
-4.3256,-7.9378,2.6911,-0.2411,-0.2727,0.1318,-0.0101,-0.0208,0.0043,123,2019-08-07 16:52:24:009
-4.3017,-7.914,2.71,-0.2411,-0.2727,0.1318,-0.0101,-0.0208,0.0043,128,2019-08-07 16:52:24:014
-4.3017,-7.914,2.71,-0.2411,-0.2727,0.1318,-0.0026,-0.0198,0.0064,132,2019-08-07 16:52:24:018
-4.3017,-7.914,2.71,-0.2158,-0.2829,0.2359,-0.0026,-0.0198,0.0064,138,2019-08-07 16:52:24:024
-4.3112,-7.9187,2.5733,-0.2158,-0.2829,0.2359,0.0059,-0.007,0.0139,142,2019-08-07 16:52:24:028
-4.3112,-7.9187,2.5733,-0.2158,-0.2829,0.2359,0.0059,-0.007,0.0139,149,2019-08-07 16:52:24:035
-4.3112,-7.9187,2.5733,-0.2158,-0.2829,0.2359,0.0102,0.0037,0.0181,153,2019-08-07 16:52:24:039
-4.3543,-7.9044,2.6063,-0.2126,-0.3055,0.2181,0.0102,0.0037,0.0181,157,2019-08-07 16:52:24:043
-4.3543,-7.9044,2.6063,-0.2126,-0.3055,0.2181,0.0144,0.0069,0.0192,163,2019-08-07 16:52:24:049
-4.3543,-7.9044,2.6063,-0.2126,-0.3055,0.2181,0.0144,0.0069,0.0192,167,2019-08-07 16:52:24:053
-4.3686,-7.8615,2.644,-0.2126,-0.3055,0.2181,0.0187,0.0143,0.0181,173,2019-08-07 16:52:24:059
-4.3686,-7.8615,2.644,-0.1781,-0.3268,0.1721,0.0187,0.0143,0.0181,178,2019-08-07 16:52:24:064
-4.3878,-7.871,2.677,-0.1781,-0.3268,0.1721,0.0144,0.0218,0.0139,183,2019-08-07 16:52:24:069
-4.3878,-7.871,2.677,-0.1781,-0.3268,0.1721,0.0144,0.0218,0.0139,188,2019-08-07 16:52:24:074
-4.3878,-7.871,2.677,-0.1781,-0.3268,0.1721,0.0144,0.0218,0.0139,193,2019-08-07 16:52:24:079
-4.4117,-7.8806,2.677,-0.1582,-0.3246,0.1958,0.0134,0.0239,0.0171,198,2019-08-07 16:52:24:084
-4.4117,-7.8806,2.677,-0.1582,-0.3246,0.1958,0.0123,0.0239,0.0128,203,2019-08-07 16:52:24:089
-4.4164,-7.9474,2.6629,-0.1582,-0.3246,0.1958,0.0123,0.0239,0.0128,208,2019-08-07 16:52:24:094
-4.4164,-7.9474,2.6629,-0.1582,-0.3246,0.1958,0.0123,0.0239,0.0128,213,2019-08-07 16:52:24:099
-4.4164,-7.9474,2.6629,-0.1809,-0.275,0.1058,0.0123,0.0228,0.0139,218,2019-08-07 16:52:24:104
-4.3782,-7.9522,2.7053,-0.1809,-0.275,0.1058,0.0123,0.0228,0.0139,223,2019-08-07 16:52:24:109
-4.3782,-7.9522,2.7053,-0.1809,-0.275,0.1058,0.0091,0.0218,0.016,228,2019-08-07 16:52:24:114
-4.3399,-7.8996,2.7666,-0.1809,-0.275,0.1058,0.0091,0.0218,0.016,232,2019-08-07 16:52:24:118
-4.3399,-7.8996,2.7666,-0.2273,-0.3064,0.026,0.0112,0.0058,0.0234,238,2019-08-07 16:52:24:124
-4.3399,-7.8996,2.7666,-0.2273,-0.3064,0.026,0.0112,0.0058,0.0234,243,2019-08-07 16:52:24:129
-4.3255,-7.8996,2.7336,-0.2273,-0.3064,0.026,0.0134,0.0037,0.0234,247,2019-08-07 16:52:24:133
-4.3255,-7.8996,2.7336,-0.2273,-0.3064,0.026,0.0134,0.0037,0.0234,253,2019-08-07 16:52:24:139
-4.3255,-7.828,2.7194,-0.2592,-0.3706,0.1088,0.0144,-0.0059,0.0256,259,2019-08-07 16:52:24:145
-4.3255,-7.828,2.7194,-0.2592,-0.3706,0.1088,0.0144,-0.0059,0.0256,263,2019-08-07 16:52:24:149
-4.3255,-7.828,2.7194,-0.2592,-0.3706,0.1088,0.0144,-0.0027,0.0309,268,2019-08-07 16:52:24:154
-4.2872,-7.8853,2.7147,-0.2592,-0.3706,0.1088,0.0144,-0.0027,0.0309,272,2019-08-07 16:52:24:158
-4.2872,-7.8853,2.7147,-0.2444,-0.3293,0.1201,0.0112,0.0143,0.0309,278,2019-08-07 16:52:24:164
-4.2872,-7.8853,2.7147,-0.2444,-0.3293,0.1201,0.0112,0.0143,0.0309,282,2019-08-07 16:52:24:168
-4.3638,-7.8615,2.7242,-0.2444,-0.3293,0.1201,0.0091,0.0271,0.0298,288,2019-08-07 16:52:24:174
-4.3638,-7.8615,2.7242,-0.2444,-0.3293,0.1201,0.0091,0.0271,0.0298,292,2019-08-07 16:52:24:178
-4.3638,-7.8615,2.7242,-0.1932,-0.3503,0.1279,-5.0E-4,0.0399,0.0245,298,2019-08-07 16:52:24:184
-4.4116,-7.8997,2.6676,-0.1932,-0.3503,0.1279,-5.0E-4,0.0399,0.0245,303,2019-08-07 16:52:24:189
-4.4116,-7.8997,2.6676,-0.1725,-0.3302,0.121,-5.0E-4,0.0548,0.0213,309,2019-08-07 16:52:24:195
-4.4547,-7.8901,2.7336,-0.1725,-0.3302,0.121,-5.0E-4,0.0548,0.0213,314,2019-08-07 16:52:24:200
-4.4547,-7.8901,2.7336,-0.1725,-0.3302,0.121,-0.0037,0.0559,0.0171,318,2019-08-07 16:52:24:204
-4.4547,-7.8901,2.7336,-0.1725,-0.3302,0.121,-0.0037,0.0559,0.0171,323,2019-08-07 16:52:24:209
-4.4786,-7.9713,2.6723,-0.1725,-0.3302,0.121,-0.0037,0.0559,0.0171,328,2019-08-07 16:52:24:214
-4.4786,-7.9713,2.6723,-0.1403,-0.2477,0.0866,-0.0069,0.0591,0.0128,333,2019-08-07 16:52:24:219
-4.4786,-7.9713,2.6723,-0.1403,-0.2477,0.0866,-0.0069,0.0591,0.0128,337,2019-08-07 16:52:24:223
-4.5121,-8.0238,2.7854,-0.1403,-0.2477,0.0866,-0.0037,0.0463,0.016,343,2019-08-07 16:52:24:229
-4.5121,-8.0238,2.7854,-0.1551,-0.256,-0.008,-0.0037,0.0463,0.016,348,2019-08-07 16:52:24:234
-4.4738,-7.8806,2.776,-0.1551,-0.256,-0.008,-0.0037,0.0207,0.0213,353,2019-08-07 16:52:24:239
-4.4738,-7.8806,2.776,-0.1551,-0.256,-0.008,-0.0037,0.0207,0.0213,357,2019-08-07 16:52:24:243
-4.4738,-7.8806,2.776,-0.1551,-0.256,-0.008,-0.0133,0.0058,0.0245,363,2019-08-07 16:52:24:249
-4.4164,-7.9187,2.7147,-0.1551,-0.256,-0.008,-0.0133,0.0058,0.0245,368,2019-08-07 16:52:24:254
-4.4164,-7.9187,2.7147,-0.1691,-0.2354,0.1071,-0.0133,0.0058,0.0245,373,2019-08-07 16:52:24:259
-4.4164,-7.9187,2.7147,-0.1691,-0.2354,0.1071,-0.0282,-0.0059,0.0277,378,2019-08-07 16:52:24:264
-4.335,-7.9856,2.6582,-0.1691,-0.2354,0.1071,-0.0282,-0.0059,0.0277,383,2019-08-07 16:52:24:269
-4.335,-7.9856,2.6582,-0.3007,-0.1355,0.1398,-0.042,-0.0091,0.0203,388,2019-08-07 16:52:24:274
-4.3111,-8.0906,2.6865,-0.3007,-0.1355,0.1398,-0.042,-0.0091,0.0203,393,2019-08-07 16:52:24:279
-4.3111,-8.0906,2.6865,-0.3007,-0.1355,0.1398,-0.0431,0.0026,0.0128,398,2019-08-07 16:52:24:284
-4.3111,-8.0906,2.6865,-0.3007,-0.1355,0.1398,-0.0431,0.0026,0.0128,403,2019-08-07 16:52:24:289
-4.2776,-8.062,2.5922,-0.3007,-0.1355,0.1398,-0.041,0.0303,-0.0011,408,2019-08-07 16:52:24:294
-4.2776,-8.062,2.5922,-0.349,-0.1142,0.1315,-0.041,0.0303,-0.0011,413,2019-08-07 16:52:24:299
-4.3494,-8.062,2.6865,-0.349,-0.1142,0.1315,-0.0314,0.0655,-0.0149,418,2019-08-07 16:52:24:304
-4.3494,-8.062,2.6865,-0.349,-0.1142,0.1315,-0.0314,0.0655,-0.0149,423,2019-08-07 16:52:24:309
-4.3494,-8.062,2.6865,-0.349,-0.1142,0.1315,-0.0261,0.0868,-0.0224,428,2019-08-07 16:52:24:314
-4.469,-7.9569,2.7855,-0.1487,-0.2371,0.0022,-0.0261,0.0868,-0.0224,432,2019-08-07 16:52:24:318
-4.469,-7.9569,2.7855,-0.1487,-0.2371,0.0022,-0.0261,0.0868,-0.0224,438,2019-08-07 16:52:24:324
-4.5455,-7.9283,2.7855,-0.1487,-0.2371,0.0022,-0.0186,0.0772,-0.0298,443,2019-08-07 16:52:24:329
-4.5455,-7.9283,2.7855,-0.1487,-0.2371,0.0022,-0.0186,0.0772,-0.0298,448,2019-08-07 16:52:24:334
-4.5455,-7.9283,2.7855,0.0285,-0.2406,-0.036,-0.0111,0.0591,-0.0383,453,2019-08-07 16:52:24:339
-4.6603,-7.8901,2.875,0.0285,-0.2406,-0.036,-0.0111,0.0591,-0.0383,458,2019-08-07 16:52:24:344
-4.6603,-7.8901,2.875,0.0285,-0.2406,-0.036,-0.0101,0.0196,-0.0458,463,2019-08-07 16:52:24:349
-4.6173,-7.9283,2.8467,0.0285,-0.2406,-0.036,-0.0101,0.0196,-0.0458,468,2019-08-07 16:52:24:354
-4.6173,-7.9283,2.8467,-0.0478,-0.273,-0.0247,-0.0026,-0.0176,-0.0426,473,2019-08-07 16:52:24:359
-4.6173,-7.9283,2.8467,-0.0478,-0.273,-0.0247,-0.0026,-0.0176,-0.0426,478,2019-08-07 16:52:24:364
-4.4785,-7.9044,2.776,-0.0478,-0.273,-0.0247,0.0091,-0.0421,-0.0383,483,2019-08-07 16:52:24:369
-4.4785,-7.9044,2.776,-0.0478,-0.273,-0.0247,0.0091,-0.0421,-0.0383,487,2019-08-07 16:52:24:373
-4.3733,-7.9665,2.7336,-0.2063,-0.2429,0.0701,0.0219,-0.0496,-0.0362,493,2019-08-07 16:52:24:379
-4.3733,-7.9665,2.7336,-0.2063,-0.2429,0.0701,0.0219,-0.0496,-0.0362,498,2019-08-07 16:52:24:384
-4.3733,-7.9665,2.7336,-0.2063,-0.2429,0.0701,0.0293,-0.0379,-0.0298,503,2019-08-07 16:52:24:389
-4.2871,-7.8662,2.6818,-0.2063,-0.2429,0.0701,0.0293,-0.0379,-0.0298,508,2019-08-07 16:52:24:394
-4.2871,-7.8662,2.6818,-0.2889,-0.3068,0.1443,0.0315,-0.0208,-0.0202,513,2019-08-07 16:52:24:399
-4.2871,-7.8376,2.6676,-0.2889,-0.3068,0.1443,0.0315,-0.0208,-0.0202,518,2019-08-07 16:52:24:404
-4.2871,-7.8376,2.6676,-0.2889,-0.3068,0.1443,0.0315,-0.0208,-0.0202,523,2019-08-07 16:52:24:409
-4.2871,-7.8376,2.6676,-0.2889,-0.3068,0.1443,0.0368,0.0015,-0.0128,527,2019-08-07 16:52:24:413
-4.311,-7.8853,2.6865,-0.2804,-0.321,0.1083,0.0368,0.0015,-0.0128,533,2019-08-07 16:52:24:419
-4.311,-7.8853,2.6865,-0.2804,-0.321,0.1083,0.0411,0.0207,-0.0011,538,2019-08-07 16:52:24:424
-4.3685,-7.8185,2.7713,-0.2804,-0.321,0.1083,0.0411,0.0207,-0.0011,543,2019-08-07 16:52:24:429
-4.3685,-7.8185,2.7713,-0.2804,-0.321,0.1083,0.0432,0.0239,0.0043,548,2019-08-07 16:52:24:434
-4.3685,-7.8185,2.7713,-0.1765,-0.4187,0.0853,0.0432,0.0239,0.0043,552,2019-08-07 16:52:24:438
-4.3637,-7.766,2.71,-0.1765,-0.4187,0.0853,0.0443,0.0218,0.0139,558,2019-08-07 16:52:24:444
-4.3637,-7.766,2.71,-0.1765,-0.4187,0.0853,0.0443,0.0218,0.0139,563,2019-08-07 16:52:24:449
-4.3637,-7.7755,2.6629,-0.1765,-0.4187,0.0853,0.0421,0.025,0.0203,568,2019-08-07 16:52:24:454
-4.3637,-7.7755,2.6629,-0.2524,-0.4337,0.1236,0.0421,0.025,0.0203,572,2019-08-07 16:52:24:458
-4.3637,-7.7755,2.6629,-0.2524,-0.4337,0.1236,0.0325,0.025,0.0277,578,2019-08-07 16:52:24:464
-4.3254,-7.7946,2.6629,-0.2524,-0.4337,0.1236,0.0325,0.025,0.0277,583,2019-08-07 16:52:24:469
-4.3254,-7.7946,2.6629,-0.2524,-0.4337,0.1236,0.0325,0.025,0.0277,588,2019-08-07 16:52:24:474
-4.3254,-7.7946,2.6629,-0.2201,-0.3578,0.1263,0.0347,0.0388,0.0256,593,2019-08-07 16:52:24:479
-4.4258,-7.7994,2.7383,-0.2201,-0.3578,0.1263,0.0347,0.0388,0.0256,598,2019-08-07 16:52:24:484
-4.4258,-7.7994,2.7383,-0.2201,-0.3578,0.1263,0.0379,0.0463,0.0256,602,2019-08-07 16:52:24:488
-4.4067,-7.8472,2.7053,-0.2201,-0.3578,0.1263,0.0379,0.0463,0.0256,608,2019-08-07 16:52:24:494
-4.4067,-7.8472,2.7053,-0.2222,-0.3771,0.0813,0.0347,0.0378,0.0277,613,2019-08-07 16:52:24:499
-4.4067,-7.8472,2.7053,-0.2222,-0.3771,0.0813,0.0347,0.0378,0.0277,617,2019-08-07 16:52:24:503
-4.3636,-7.8615,2.6676,-0.2222,-0.3771,0.0813,0.0272,0.0314,0.0224,623,2019-08-07 16:52:24:509
-4.3636,-7.8615,2.6676,-0.2222,-0.3771,0.0813,0.0272,0.0314,0.0224,628,2019-08-07 16:52:24:514
-4.3636,-7.8615,2.6676,-0.2561,-0.3019,0.1537,0.0272,0.0228,0.0203,633,2019-08-07 16:52:24:519
-4.3493,-7.8901,2.6723,-0.2561,-0.3019,0.1537,0.0272,0.0228,0.0203,637,2019-08-07 16:52:24:523
-4.3493,-7.8901,2.6723,-0.2561,-0.3019,0.1537,0.0261,0.025,0.0288,643,2019-08-07 16:52:24:529
-4.3062,-7.9235,2.6346,-0.2561,-0.3019,0.1537,0.0261,0.025,0.0288,648,2019-08-07 16:52:24:534
-4.3062,-7.9235,2.6346,-0.3372,-0.2845,0.2166,0.024,0.0356,0.0224,653,2019-08-07 16:52:24:539
-4.3062,-7.9235,2.6346,-0.3372,-0.2845,0.2166,0.024,0.0356,0.0224,658,2019-08-07 16:52:24:544
-4.2919,-7.8853,2.6158,-0.3372,-0.2845,0.2166,0.024,0.0356,0.0224,663,2019-08-07 16:52:24:549
-4.2919,-7.8853,2.6158,-0.3372,-0.2845,0.2166,0.0251,0.0473,0.0288,668,2019-08-07 16:52:24:554
-4.3397,-7.8567,2.6441,-0.2858,-0.3242,0.169,0.0251,0.0473,0.0288,672,2019-08-07 16:52:24:558
-4.3397,-7.8567,2.6441,-0.2858,-0.3242,0.169,0.0261,0.0644,0.0298,678,2019-08-07 16:52:24:564
-4.3397,-7.8567,2.6441,-0.2858,-0.3242,0.169,0.0261,0.0644,0.0298,683,2019-08-07 16:52:24:569
-4.4354,-7.8663,2.5781,-0.2858,-0.3242,0.169,0.0251,0.0687,0.0266,688,2019-08-07 16:52:24:574
-4.4354,-7.8663,2.5781,-0.1741,-0.2776,0.1337,0.0251,0.0687,0.0266,693,2019-08-07 16:52:24:579
-4.4354,-7.8663,2.5781,-0.1741,-0.2776,0.1337,0.0251,0.0687,0.0266,698,2019-08-07 16:52:24:584
-4.4832,-7.8472,2.6629,-0.1741,-0.2776,0.1337,0.0272,0.0676,0.0234,703,2019-08-07 16:52:24:589
-4.4832,-7.8472,2.6629,-0.1741,-0.2776,0.1337,0.0251,0.0569,0.0245,709,2019-08-07 16:52:24:595
-4.4976,-7.9044,2.6676,-0.1626,-0.2405,0.1084,0.0251,0.0569,0.0245,713,2019-08-07 16:52:24:599
-4.4976,-7.9044,2.6676,-0.1626,-0.2405,0.1084,0.0251,0.0569,0.0245,718,2019-08-07 16:52:24:604
-4.4976,-7.9044,2.6676,-0.1626,-0.2405,0.1084,0.0261,0.0548,0.0192,723,2019-08-07 16:52:24:609
-4.4641,-7.9188,2.7006,-0.1802,-0.2531,0.1078,0.0261,0.0548,0.0192,728,2019-08-07 16:52:24:614
-4.4641,-7.9188,2.7006,-0.1802,-0.2531,0.1078,0.0251,0.0601,0.0171,732,2019-08-07 16:52:24:618
-4.5215,-7.9283,2.7289,-0.1802,-0.2531,0.1078,0.0251,0.0601,0.0171,738,2019-08-07 16:52:24:624
-4.5215,-7.9283,2.7289,-0.1802,-0.2531,0.1078,0.0283,0.0623,0.016,743,2019-08-07 16:52:24:629
-4.5215,-7.9283,2.7289,-0.1189,-0.2548,0.0406,0.0283,0.0623,0.016,748,2019-08-07 16:52:24:634
-4.5556,-7.933,2.7665,-0.1189,-0.2548,0.0406,0.0325,0.0655,0.0128,753,2019-08-07 16:52:24:639
-4.5556,-7.933,2.7665,-0.1189,-0.2548,0.0406,0.0325,0.0655,0.0128,758,2019-08-07 16:52:24:644
-4.5747,-7.8662,2.8419,-0.1189,-0.2548,0.0406,0.0325,0.058,0.0064,764,2019-08-07 16:52:24:650
-4.5747,-7.8662,2.8419,-0.0527,-0.328,-0.0442,0.0325,0.058,0.0064,768,2019-08-07 16:52:24:654
-4.5747,-7.8662,2.8419,-0.0527,-0.328,-0.0442,0.0272,0.041,0.0011,773,2019-08-07 16:52:24:659
-4.5891,-7.8137,2.8231,-0.0527,-0.328,-0.0442,0.0272,0.041,0.0011,778,2019-08-07 16:52:24:664
-4.5891,-7.8137,2.8231,-0.0527,-0.328,-0.0442,0.0272,0.0335,-0.0011,783,2019-08-07 16:52:24:669
-4.5604,-7.828,2.856,-0.0988,-0.3399,-0.0706,0.0272,0.0335,-0.0011,787,2019-08-07 16:52:24:673
-4.5604,-7.828,2.856,-0.0988,-0.3399,-0.0706,0.0261,0.0314,-0.0011,793,2019-08-07 16:52:24:679
-4.5604,-7.828,2.856,-0.0988,-0.3399,-0.0706,0.0261,0.0314,-0.0011,798,2019-08-07 16:52:24:684
-4.4934,-7.8137,2.7806,-0.0988,-0.3399,-0.0706,0.0261,0.0314,-0.0011,802,2019-08-07 16:52:24:688
-4.4934,-7.8137,2.7806,-0.2152,-0.3382,-0.0399,0.0251,0.025,-0.0032,809,2019-08-07 16:52:24:695
-4.436,-7.8089,2.7948,-0.2152,-0.3382,-0.0399,0.0251,0.025,-0.0032,813,2019-08-07 16:52:24:699
-4.436,-7.8089,2.7948,-0.2152,-0.3382,-0.0399,0.0272,0.0292,0.0,818,2019-08-07 16:52:24:704
-4.436,-7.8089,2.7948,-0.2152,-0.3382,-0.0399,0.0272,0.0292,0.0,823,2019-08-07 16:52:24:709
-4.4121,-7.828,2.7571,-0.25,-0.3319,0.0567,0.0315,0.0335,0.0011,828,2019-08-07 16:52:24:714
-4.4121,-7.828,2.7571,-0.25,-0.3319,0.0567,0.0315,0.0335,0.0011,833,2019-08-07 16:52:24:719
-4.393,-7.8184,2.6769,-0.25,-0.3319,0.0567,0.0357,0.0442,0.0053,838,2019-08-07 16:52:24:724
-4.393,-7.8184,2.6769,-0.25,-0.3319,0.0567,0.0357,0.0442,0.0053,843,2019-08-07 16:52:24:729
-4.393,-7.8184,2.6769,-0.2483,-0.3868,0.101,0.04,0.0527,0.0181,848,2019-08-07 16:52:24:734
-4.4265,-7.7707,2.7523,-0.2483,-0.3868,0.101,0.04,0.0527,0.0181,853,2019-08-07 16:52:24:739
-4.4265,-7.7707,2.7523,-0.2483,-0.3868,0.101,0.0443,0.0516,0.0266,859,2019-08-07 16:52:24:745
-4.4552,-7.7182,2.7665,-0.2483,-0.3868,0.101,0.0443,0.0516,0.0266,863,2019-08-07 16:52:24:749
-4.4552,-7.7182,2.7665,-0.2077,-0.4054,-0.023,0.0453,0.0431,0.0352,868,2019-08-07 16:52:24:754
-4.4552,-7.7182,2.7665,-0.2077,-0.4054,-0.023,0.0453,0.0431,0.0352,873,2019-08-07 16:52:24:759
-4.4887,-7.6943,2.7382,-0.2077,-0.4054,-0.023,0.0464,0.041,0.0426,878,2019-08-07 16:52:24:764
-4.4887,-7.6943,2.7382,-0.2077,-0.4054,-0.023,0.0464,0.041,0.0426,883,2019-08-07 16:52:24:769
-4.4887,-7.6943,2.7382,-0.1309,-0.4034,0.0753,0.0464,0.041,0.0426,887,2019-08-07 16:52:24:773
-4.5556,-7.7182,2.6863,-0.1309,-0.4034,0.0753,0.04,0.0314,0.0469,893,2019-08-07 16:52:24:779
-4.5556,-7.7182,2.6863,-0.1309,-0.4034,0.0753,0.04,0.0314,0.0469,898,2019-08-07 16:52:24:784
-4.5221,-7.7803,2.6439,-0.1309,-0.4034,0.0753,0.0357,0.0314,0.0479,903,2019-08-07 16:52:24:789
-4.5221,-7.7803,2.6439,-0.2128,-0.3536,0.1726,0.0357,0.0314,0.0479,908,2019-08-07 16:52:24:794
-4.5221,-7.7803,2.6439,-0.2128,-0.3536,0.1726,0.0315,0.0346,0.0469,913,2019-08-07 16:52:24:799
-4.4839,-7.7612,2.6251,-0.2128,-0.3536,0.1726,0.0315,0.0346,0.0469,918,2019-08-07 16:52:24:804
-4.4839,-7.7612,2.6251,-0.2128,-0.3536,0.1726,0.0304,0.0505,0.0426,922,2019-08-07 16:52:24:808
-4.4552,-7.7946,2.5921,-0.2463,-0.3383,0.2344,0.0304,0.0505,0.0426,928,2019-08-07 16:52:24:814
-4.4552,-7.7946,2.5921,-0.2463,-0.3383,0.2344,0.0293,0.0729,0.0426,932,2019-08-07 16:52:24:818
-4.4552,-7.7946,2.5921,-0.2463,-0.3383,0.2344,0.0293,0.0729,0.0426,938,2019-08-07 16:52:24:824
-4.4695,-7.8614,2.5308,-0.2463,-0.3383,0.2344,0.0261,0.0995,0.0373,943,2019-08-07 16:52:24:829
-4.4695,-7.8614,2.5308,-0.2861,-0.3,0.2393,0.0261,0.0995,0.0373,948,2019-08-07 16:52:24:834
-4.4026,-7.8137,2.7806,-0.2861,-0.3,0.2393,0.0283,0.1187,0.0362,952,2019-08-07 16:52:24:838
-4.4026,-7.8137,2.7806,-0.2861,-0.3,0.2393,0.0283,0.1187,0.0362,958,2019-08-07 16:52:24:844
-4.4026,-7.8137,2.7806,-0.2777,-0.3407,0.1887,0.0283,0.1219,0.0416,963,2019-08-07 16:52:24:849
-4.4408,-7.8184,2.5214,-0.2777,-0.3407,0.1887,0.0283,0.1219,0.0416,968,2019-08-07 16:52:24:854
-4.4408,-7.8184,2.5214,-0.2777,-0.3407,0.1887,0.0283,0.1219,0.0416,973,2019-08-07 16:52:24:859
-4.4456,-7.8375,2.6109,-0.2862,-0.2833,0.1995,0.0283,0.1336,0.0416,978,2019-08-07 16:52:24:864
-4.4456,-7.8375,2.6109,-0.2862,-0.2833,0.1995,0.0283,0.1336,0.0416,983,2019-08-07 16:52:24:869
-4.4456,-7.8375,2.6109,-0.2862,-0.2833,0.1995,0.023,0.1443,0.0447,988,2019-08-07 16:52:24:874
-4.5365,-7.8375,2.7288,-0.2862,-0.2833,0.1995,0.023,0.1443,0.0447,992,2019-08-07 16:52:24:878
-4.5365,-7.8375,2.7288,-0.1383,-0.3019,0.0861,0.0155,0.1123,0.049,998,2019-08-07 16:52:24:884
-4.5844,-7.8614,2.6911,-0.1383,-0.3019,0.0861,0.0155,0.1123,0.049,1002,2019-08-07 16:52:24:888
-4.5844,-7.8614,2.6911,-0.1383,-0.3019,0.0861,0.0112,0.0644,0.0565,1009,2019-08-07 16:52:24:895
-4.5844,-7.8614,2.6911,-0.1383,-0.3019,0.0861,0.0112,0.0644,0.0565,1012,2019-08-07 16:52:24:898
-4.5652,-7.8089,2.5874,-0.2473,-0.2529,0.0949,0.0091,0.0356,0.0565,1018,2019-08-07 16:52:24:904
-4.5652,-7.8089,2.5874,-0.2473,-0.2529,0.0949,0.0091,0.0356,0.0565,1022,2019-08-07 16:52:24:908
-4.5126,-7.8566,2.5826,-0.2473,-0.2529,0.0949,0.0091,0.0356,0.0565,1028,2019-08-07 16:52:24:914
-4.5126,-7.8566,2.5826,-0.2473,-0.2529,0.0949,0.008,0.0207,0.0618,1033,2019-08-07 16:52:24:919
-4.5126,-7.8566,2.5826,-0.3628,-0.1188,0.253,0.008,0.0207,0.0618,1038,2019-08-07 16:52:24:924
-4.4074,-7.9855,2.4931,-0.3628,-0.1188,0.253,0.0112,0.0324,0.0618,1043,2019-08-07 16:52:24:929
-4.4074,-7.9855,2.4931,-0.3628,-0.1188,0.253,0.0112,0.0324,0.0618,1048,2019-08-07 16:52:24:934
-4.4074,-7.9855,2.4931,-0.3628,-0.1188,0.253,0.0112,0.0324,0.0618,1053,2019-08-07 16:52:24:939
-4.5126,-7.9617,2.6439,-0.2118,-0.1604,0.2131,0.0283,0.0612,0.0607,1059,2019-08-07 16:52:24:945
-4.5126,-7.9617,2.6439,-0.2118,-0.1604,0.2131,0.0283,0.0612,0.0607,1062,2019-08-07 16:52:24:948
-4.5796,-7.8566,2.5921,-0.2118,-0.1604,0.2131,0.0379,0.0782,0.0629,1067,2019-08-07 16:52:24:953
-4.5796,-7.8566,2.5921,-0.2118,-0.1604,0.2131,0.0379,0.0868,0.0607,1073,2019-08-07 16:52:24:959
-4.5796,-7.8566,2.5921,-0.0783,-0.2385,0.1963,0.0379,0.0868,0.0607,1078,2019-08-07 16:52:24:964
-4.7183,-7.8519,2.5921,-0.0783,-0.2385,0.1963,0.0379,0.0868,0.0607,1082,2019-08-07 16:52:24:968
-4.7183,-7.8519,2.5921,-0.0783,-0.2385,0.1963,0.0293,0.0772,0.0511,1088,2019-08-07 16:52:24:974
-4.6992,-7.9044,2.7052,-0.0783,-0.2385,0.1963,0.0293,0.0772,0.0511,1093,2019-08-07 16:52:24:979
-4.6992,-7.9044,2.7052,-0.0783,-0.2385,0.1963,0.0272,0.0591,0.0447,1098,2019-08-07 16:52:24:984
-4.6992,-7.9044,2.7052,-0.1381,-0.1367,0.0855,0.0272,0.0591,0.0447,1102,2019-08-07 16:52:24:988
-4.6801,-7.976,2.7193,-0.1381,-0.1367,0.0855,0.0272,0.0591,0.0447,1108,2019-08-07 16:52:24:994
-4.6801,-7.976,2.7193,-0.1381,-0.1367,0.0855,0.0304,0.0452,0.0362,1113,2019-08-07 16:52:24:999
-4.6801,-7.976,2.7193,-0.1381,-0.1367,0.0855,0.0304,0.0452,0.0362,1118,2019-08-07 16:52:25:004
-4.5653,-7.933,2.6203,-0.251,-0.1465,0.1654,0.0283,0.0537,0.0234,1123,2019-08-07 16:52:25:009
-4.5653,-7.933,2.6203,-0.251,-0.1465,0.1654,0.0283,0.0537,0.0234,1128,2019-08-07 16:52:25:014
-4.5653,-7.8805,2.5591,-0.251,-0.1465,0.1654,0.0283,0.0676,0.0149,1134,2019-08-07 16:52:25:020
-4.5653,-7.8805,2.5591,-0.251,-0.1465,0.1654,0.0283,0.0676,0.0149,1137,2019-08-07 16:52:25:023
-4.5653,-7.8805,2.5591,-0.2519,-0.2251,0.1869,0.0315,0.0676,0.0053,1143,2019-08-07 16:52:25:029
-4.5509,-7.8519,2.5308,-0.2519,-0.2251,0.1869,0.0315,0.0676,0.0053,1148,2019-08-07 16:52:25:034
-4.5509,-7.8519,2.5308,-0.2519,-0.2251,0.1869,0.0347,0.0868,-0.0053,1153,2019-08-07 16:52:25:039
-4.5509,-7.8519,2.5308,-0.2519,-0.2251,0.1869,0.0347,0.0868,-0.0053,1158,2019-08-07 16:52:25:044
-4.6083,-7.8328,2.5543,-0.184,-0.2286,0.2451,0.0347,0.0868,-0.0053,1162,2019-08-07 16:52:25:048
-4.6083,-7.8328,2.5543,-0.184,-0.2286,0.2451,0.0368,0.0995,-0.0138,1168,2019-08-07 16:52:25:054
-4.6131,-7.8375,2.5402,-0.184,-0.2286,0.2451,0.0368,0.0995,-0.0138,1173,2019-08-07 16:52:25:059
-4.6131,-7.8375,2.5402,-0.184,-0.2286,0.2451,0.0315,0.1006,-0.0181,1178,2019-08-07 16:52:25:064
-4.6131,-7.8375,2.5402,-0.187,-0.2763,0.24,0.0315,0.1006,-0.0181,1183,2019-08-07 16:52:25:069
-4.6131,-7.828,2.4789,-0.187,-0.2763,0.24,0.0357,0.0995,-0.0181,1188,2019-08-07 16:52:25:074
-4.6131,-7.828,2.4789,-0.187,-0.2763,0.24,0.0357,0.0995,-0.0181,1192,2019-08-07 16:52:25:078
-4.6179,-7.7755,2.4318,-0.187,-0.2763,0.24,0.0368,0.0932,-0.0128,1198,2019-08-07 16:52:25:084
-4.6179,-7.7755,2.4318,-0.2089,-0.324,0.301,0.0368,0.0932,-0.0128,1203,2019-08-07 16:52:25:089
-4.6179,-7.7755,2.4318,-0.2089,-0.324,0.301,0.0368,0.0932,-0.0128,1208,2019-08-07 16:52:25:094
-4.661,-7.7564,2.4224,-0.2089,-0.324,0.301,0.0464,0.0963,-0.0074,1214,2019-08-07 16:52:25:100
-4.661,-7.7564,2.4224,-0.2089,-0.324,0.301,0.0464,0.0963,-0.0074,1217,2019-08-07 16:52:25:103
-4.661,-7.7564,2.4224,-0.1085,-0.3554,0.1759,0.0602,0.107,0.0032,1223,2019-08-07 16:52:25:109
-4.7901,-7.6657,2.7099,-0.1085,-0.3554,0.1759,0.0602,0.107,0.0032,1228,2019-08-07 16:52:25:114
-4.7901,-7.6657,2.7099,-0.1085,-0.3554,0.1759,0.0666,0.1081,0.0096,1233,2019-08-07 16:52:25:119
-4.7901,-7.6657,2.7099,-0.1085,-0.3554,0.1759,0.0666,0.1081,0.0096,1238,2019-08-07 16:52:25:124
-4.8619,-7.5225,2.8796,0.0168,-0.5455,-0.1104,0.0634,0.0878,0.0117,1242,2019-08-07 16:52:25:128
-4.8619,-7.5225,2.8796,0.0168,-0.5455,-0.1104,0.0634,0.0878,0.0117,1248,2019-08-07 16:52:25:134
-4.8619,-7.5225,2.8796,0.0168,-0.5455,-0.1104,0.0634,0.0878,0.0117,1253,2019-08-07 16:52:25:139
-4.881,-7.489,2.8937,0.0168,-0.5455,-0.1104,0.0485,0.0463,0.0181,1257,2019-08-07 16:52:25:143
-4.881,-7.489,2.8937,-0.0437,-0.582,-0.1195,0.0485,0.0463,0.0181,1263,2019-08-07 16:52:25:149
-4.7806,-7.532,2.8089,-0.0437,-0.582,-0.1195,0.0325,0.0218,0.0139,1267,2019-08-07 16:52:25:153
-4.7806,-7.532,2.8089,-0.0437,-0.582,-0.1195,0.0325,0.0218,0.0139,1273,2019-08-07 16:52:25:159
-4.7806,-7.532,2.8089,-0.0437,-0.582,-0.1195,0.0251,0.0143,0.0171,1278,2019-08-07 16:52:25:164
-4.6992,-7.6132,2.7618,-0.2346,-0.3918,0.0026,0.0251,0.0143,0.0171,1283,2019-08-07 16:52:25:169
-4.6992,-7.6132,2.7618,-0.2346,-0.3918,0.0026,0.0219,0.0239,0.0224,1288,2019-08-07 16:52:25:174
-4.5701,-7.7516,2.7995,-0.2346,-0.3918,0.0026,0.0219,0.0239,0.0224,1293,2019-08-07 16:52:25:179
-4.5701,-7.7516,2.7995,-0.2346,-0.3918,0.0026,0.0261,0.041,0.0298,1298,2019-08-07 16:52:25:184
-4.5701,-7.7516,2.7995,-0.2638,-0.3784,-0.0566,0.0261,0.041,0.0298,1303,2019-08-07 16:52:25:189
-4.6036,-7.6752,2.8136,-0.2638,-0.3784,-0.0566,0.0283,0.0612,0.0362,1308,2019-08-07 16:52:25:194
-4.6036,-7.6752,2.8136,-0.2638,-0.3784,-0.0566,0.0283,0.0612,0.0362,1312,2019-08-07 16:52:25:198
-4.5988,-7.5941,2.8749,-0.2638,-0.3784,-0.0566,0.0336,0.0633,0.0469,1319,2019-08-07 16:52:25:205
-4.5988,-7.5941,2.8749,-0.2259,-0.4628,-0.1124,0.0336,0.0633,0.0469,1323,2019-08-07 16:52:25:209
-4.5988,-7.5941,2.8749,-0.2259,-0.4628,-0.1124,0.0432,0.0623,0.0629,1328,2019-08-07 16:52:25:214
-4.6801,-7.5607,2.8796,-0.2259,-0.4628,-0.1124,0.0432,0.0623,0.0629,1333,2019-08-07 16:52:25:219
-4.6801,-7.5607,2.8796,-0.2259,-0.4628,-0.1124,0.0443,0.0442,0.0746,1338,2019-08-07 16:52:25:224
-4.6801,-7.5607,2.8796,-0.2259,-0.4628,-0.1124,0.0443,0.0442,0.0746,1343,2019-08-07 16:52:25:229
-4.7806,-7.5081,2.8607,-0.1066,-0.5289,-0.0757,0.0496,0.0324,0.0874,1348,2019-08-07 16:52:25:234
-4.7806,-7.5081,2.8607,-0.1066,-0.5289,-0.0757,0.0496,0.0324,0.0874,1353,2019-08-07 16:52:25:239
-4.7806,-7.532,2.8277,-0.1066,-0.5289,-0.0757,0.0496,0.0324,0.0874,1358,2019-08-07 16:52:25:244
-4.7806,-7.532,2.8277,-0.1066,-0.5289,-0.0757,0.0528,5.0E-4,0.0927,1363,2019-08-07 16:52:25:249
-4.7997,-7.5654,2.8419,-0.0657,-0.4587,-0.0343,0.0528,5.0E-4,0.0927,1368,2019-08-07 16:52:25:254
-4.7997,-7.5654,2.8419,-0.0657,-0.4587,-0.0343,0.0496,-0.0166,0.0991,1373,2019-08-07 16:52:25:259
-4.7997,-7.5272,2.8183,-0.0657,-0.4587,-0.0343,0.0496,-0.0166,0.0991,1379,2019-08-07 16:52:25:265
-4.7997,-7.5272,2.8183,-0.1771,-0.4738,0.0193,0.0517,-0.0251,0.0959,1383,2019-08-07 16:52:25:269
-4.7997,-7.5272,2.8183,-0.1771,-0.4738,0.0193,0.0517,-0.0251,0.0959,1388,2019-08-07 16:52:25:274
-4.7997,-7.5272,2.8183,-0.1771,-0.4738,0.0193,0.0517,-0.0251,0.0959,1392,2019-08-07 16:52:25:278
-4.7423,-7.575,2.6816,-0.1771,-0.4738,0.0193,0.0528,-0.023,0.1012,1398,2019-08-07 16:52:25:284
-4.7423,-7.575,2.6816,-0.1771,-0.4738,0.0193,0.0528,-0.023,0.1012,1403,2019-08-07 16:52:25:289
-4.7423,-7.575,2.6816,-0.2411,-0.4314,0.1338,0.056,0.0047,0.1108,1408,2019-08-07 16:52:25:294
-4.6658,-7.5272,2.6439,-0.2411,-0.4314,0.1338,0.056,0.0047,0.1108,1413,2019-08-07 16:52:25:299
-4.6658,-7.5272,2.6439,-0.2411,-0.4314,0.1338,0.057,0.0175,0.1193,1418,2019-08-07 16:52:25:304
-4.6658,-7.4986,2.6298,-0.2411,-0.4314,0.1338,0.057,0.0175,0.1193,1423,2019-08-07 16:52:25:309
-4.6658,-7.4986,2.6298,-0.2895,-0.4546,0.2032,0.0645,0.0196,0.1321,1428,2019-08-07 16:52:25:314
-4.6658,-7.4986,2.6298,-0.2895,-0.4546,0.2032,0.0645,0.0196,0.1321,1433,2019-08-07 16:52:25:319
-4.6658,-7.4747,2.6156,-0.2895,-0.4546,0.2032,0.0709,0.0271,0.1481,1438,2019-08-07 16:52:25:324
-4.6658,-7.4747,2.6156,-0.2895,-0.4546,0.2032,0.0709,0.0271,0.1481,1443,2019-08-07 16:52:25:329
-4.7328,-7.4747,2.5779,-0.2714,-0.5078,0.2488,0.0794,0.0292,0.1662,1448,2019-08-07 16:52:25:334
-4.7328,-7.4747,2.5779,-0.2714,-0.5078,0.2488,0.0794,0.0292,0.1662,1453,2019-08-07 16:52:25:339
-4.7328,-7.4747,2.5779,-0.2714,-0.5078,0.2488,0.0815,0.025,0.1811,1457,2019-08-07 16:52:25:343
-4.771,-7.384,2.5968,-0.2714,-0.5078,0.2488,0.0815,0.025,0.1811,1463,2019-08-07 16:52:25:349
-4.771,-7.384,2.5968,-0.2348,-0.4996,0.2583,0.0869,0.0196,0.1939,1468,2019-08-07 16:52:25:354
-4.771,-7.384,2.5968,-0.2348,-0.4996,0.2583,0.0869,0.0196,0.1939,1473,2019-08-07 16:52:25:359
-4.7423,-7.4509,2.5072,-0.2848,-0.4776,0.3394,0.089,0.0228,0.2003,1477,2019-08-07 16:52:25:363
-4.7423,-7.4509,2.5072,-0.2848,-0.4776,0.3394,0.089,0.0228,0.2003,1484,2019-08-07 16:52:25:370
-4.7423,-7.4509,2.5072,-0.2848,-0.4776,0.3394,0.0869,0.042,0.212,1487,2019-08-07 16:52:25:373
-4.728,-7.489,2.4553,-0.2848,-0.4776,0.3394,0.0869,0.042,0.212,1493,2019-08-07 16:52:25:379
-4.728,-7.489,2.4553,-0.3298,-0.3708,0.4376,0.0901,0.0676,0.212,1498,2019-08-07 16:52:25:384
-4.7471,-7.6084,2.4789,-0.3298,-0.3708,0.4376,0.0901,0.0676,0.212,1502,2019-08-07 16:52:25:388
-4.7471,-7.6084,2.4789,-0.3298,-0.3708,0.4376,0.0901,0.0676,0.212,1508,2019-08-07 16:52:25:394
-4.7471,-7.6084,2.4789,-0.3298,-0.3708,0.4376,0.0943,0.107,0.2141,1513,2019-08-07 16:52:25:399
-4.8572,-7.6418,2.6109,-0.2447,-0.2343,0.248,0.0943,0.107,0.2141,1518,2019-08-07 16:52:25:404
-4.8572,-7.6418,2.6109,-0.2447,-0.2343,0.248,0.0965,0.1336,0.2067,1523,2019-08-07 16:52:25:409
-4.8572,-7.6418,2.6109,-0.2447,-0.2343,0.248,0.0965,0.1336,0.2067,1528,2019-08-07 16:52:25:414
-4.9098,-7.6227,2.757,-0.2447,-0.2343,0.248,0.0911,0.1272,0.2024,1533,2019-08-07 16:52:25:419
-4.9098,-7.6227,2.757,-0.1839,-0.1841,0.0234,0.0911,0.1272,0.2024,1538,2019-08-07 16:52:25:424
-4.9911,-7.6657,2.8513,-0.1839,-0.1841,0.0234,0.073,0.1027,0.1864,1543,2019-08-07 16:52:25:429
-4.9911,-7.6657,2.8513,-0.1839,-0.1841,0.0234,0.073,0.1027,0.1864,1548,2019-08-07 16:52:25:434
-4.9911,-7.6657,2.8513,-0.1839,-0.1841,0.0234,0.0453,0.0623,0.1673,1553,2019-08-07 16:52:25:439
-4.9911,-7.7611,2.9126,-0.1839,-0.0661,-0.0509,0.0453,0.0623,0.1673,1557,2019-08-07 16:52:25:443
-4.9911,-7.7611,2.9126,-0.1839,-0.0661,-0.0509,0.0272,0.0378,0.1523,1564,2019-08-07 16:52:25:450
-4.9911,-7.7611,2.9126,-0.1839,-0.0661,-0.0509,0.0272,0.0378,0.1523,1567,2019-08-07 16:52:25:453
-4.8811,-7.8614,2.889,-0.1839,-0.0661,-0.0509,0.0272,0.0378,0.1523,1573,2019-08-07 16:52:25:459
-4.8811,-7.8614,2.889,-0.3854,0.0412,-0.0264,0.0208,0.0282,0.1385,1577,2019-08-07 16:52:25:463
-4.8093,-7.8614,2.8607,-0.3854,0.0412,-0.0264,0.0208,0.0282,0.1385,1584,2019-08-07 16:52:25:470
-4.8093,-7.8614,2.8607,-0.3854,0.0412,-0.0264,0.0155,0.0314,0.1161,1589,2019-08-07 16:52:25:475
-4.8093,-7.8614,2.8607,-0.3854,0.0412,-0.0264,0.0155,0.0314,0.1161,1592,2019-08-07 16:52:25:478
-4.8046,-7.7659,2.8984,-0.4178,-0.0137,-0.0738,0.0038,0.0452,0.0969,1598,2019-08-07 16:52:25:484
-4.8046,-7.7659,2.8984,-0.4178,-0.0137,-0.0738,0.0038,0.0452,0.0969,1603,2019-08-07 16:52:25:489
-4.8285,-7.7039,2.9597,-0.4178,-0.0137,-0.0738,0.0038,0.0452,0.0969,1608,2019-08-07 16:52:25:494
-4.8285,-7.7039,2.9597,-0.4178,-0.0137,-0.0738,-0.0154,0.0484,0.0767,1613,2019-08-07 16:52:25:499
-4.8285,-7.7039,2.9597,-0.4173,-0.0588,-0.1449,-0.0154,0.0484,0.0767,1617,2019-08-07 16:52:25:503
-4.8285,-7.7325,2.9361,-0.4173,-0.0588,-0.1449,-0.0324,0.041,0.0565,1623,2019-08-07 16:52:25:509
-4.8285,-7.7325,2.9361,-0.4173,-0.0588,-0.1449,-0.0324,0.041,0.0565,1628,2019-08-07 16:52:25:514
-4.8237,-7.8328,2.9031,-0.4173,-0.0588,-0.1449,-0.0378,0.0367,0.0501,1632,2019-08-07 16:52:25:518
-4.8237,-7.8328,2.9031,-0.3921,0.101,-0.0219,-0.0378,0.0367,0.0501,1638,2019-08-07 16:52:25:524
-4.8668,-7.8757,2.8984,-0.3921,0.101,-0.0219,-0.041,0.041,0.0373,1644,2019-08-07 16:52:25:530
-4.8668,-7.8757,2.8984,-0.3921,0.101,-0.0219,-0.041,0.041,0.0373,1648,2019-08-07 16:52:25:534
-4.8668,-7.8757,2.8984,-0.3759,0.0201,-0.0786,-0.041,0.041,0.0373,1652,2019-08-07 16:52:25:538
-4.9146,-7.8089,2.8513,-0.3759,0.0201,-0.0786,-0.0303,0.0399,0.0277,1658,2019-08-07 16:52:25:544
-4.9146,-7.8089,2.8513,-0.3759,0.0201,-0.0786,-0.0303,0.0399,0.0277,1662,2019-08-07 16:52:25:548
-4.9146,-7.8089,2.8513,-0.2752,0.001,-0.0728,-0.025,0.0335,0.0213,1668,2019-08-07 16:52:25:554
-5.039,-7.7898,2.8654,-0.2752,0.001,-0.0728,-0.025,0.0335,0.0213,1673,2019-08-07 16:52:25:559
-5.039,-7.7898,2.8654,-0.2752,0.001,-0.0728,-0.0154,0.0186,0.0171,1678,2019-08-07 16:52:25:564
-5.1156,-7.7325,2.8843,-0.2752,0.001,-0.0728,-0.0154,0.0186,0.0171,1683,2019-08-07 16:52:25:569
-5.1156,-7.7325,2.8843,-0.1868,-0.0939,-0.0994,-0.0079,-0.0123,0.0107,1688,2019-08-07 16:52:25:574
-5.0151,-7.6704,2.8136,-0.1868,-0.0939,-0.0994,-0.0079,-0.0123,0.0107,1693,2019-08-07 16:52:25:579
-5.0151,-7.6704,2.8136,-0.1868,-0.0939,-0.0994,-0.0047,-0.0325,0.0075,1698,2019-08-07 16:52:25:584
-5.0151,-7.6704,2.8136,-0.1868,-0.0939,-0.0994,-0.0047,-0.0325,0.0075,1703,2019-08-07 16:52:25:589
-4.996,-7.637,2.8277,-0.1868,-0.0939,-0.0994,-0.0047,-0.0325,0.0075,1707,2019-08-07 16:52:25:593
-4.996,-7.637,2.8277,-0.2622,-0.1796,0.0211,6.0E-4,-0.0443,0.0043,1713,2019-08-07 16:52:25:599
-4.996,-7.637,2.8277,-0.2622,-0.1796,0.0211,6.0E-4,-0.0443,0.0043,1718,2019-08-07 16:52:25:604
-4.9194,-7.6275,2.7146,-0.2622,-0.1796,0.0211,0.0112,-0.0421,0.0032,1722,2019-08-07 16:52:25:608
-4.9194,-7.6275,2.7146,-0.3644,-0.1416,0.2243,0.0112,-0.0421,0.0032,1728,2019-08-07 16:52:25:614
-4.8716,-7.5463,2.6015,-0.3644,-0.1416,0.2243,0.0219,-0.0251,0.0032,1732,2019-08-07 16:52:25:618
-4.8716,-7.5463,2.6015,-0.3644,-0.1416,0.2243,0.0219,-0.0251,0.0032,1738,2019-08-07 16:52:25:624
-4.8716,-7.5463,2.6015,-0.3644,-0.1416,0.2243,0.0219,-0.0251,0.0032,1743,2019-08-07 16:52:25:629
-4.8333,-7.6275,2.5638,-0.4205,-0.1794,0.2848,0.0336,0.0037,0.0032,1749,2019-08-07 16:52:25:635
-4.8333,-7.6275,2.5638,-0.4205,-0.1794,0.2848,0.0336,0.0037,0.0032,1753,2019-08-07 16:52:25:639
-4.8331,-7.5607,2.5779,-0.4205,-0.1794,0.2848,0.0453,0.041,0.0107,1758,2019-08-07 16:52:25:644
-4.8331,-7.5607,2.5779,-0.4205,-0.1794,0.2848,0.0453,0.041,0.0107,1764,2019-08-07 16:52:25:650
-4.8331,-7.5607,2.5779,-0.4205,-0.1794,0.2848,0.0602,0.0644,0.0139,1768,2019-08-07 16:52:25:654
-4.8427,-7.7039,2.6439,-0.3944,-0.1244,0.2442,0.0602,0.0644,0.0139,1773,2019-08-07 16:52:25:659
-4.8427,-7.7039,2.6439,-0.3944,-0.1244,0.2442,0.0698,0.0814,0.0192,1778,2019-08-07 16:52:25:664
-4.8427,-7.7039,2.6439,-0.3944,-0.1244,0.2442,0.0698,0.0814,0.0192,1783,2019-08-07 16:52:25:669
-4.9096,-7.8137,2.7948,-0.3944,-0.1244,0.2442,0.0879,0.0825,0.0277,1788,2019-08-07 16:52:25:674
-4.9096,-7.8137,2.7948,-0.2951,0.1671,0.0019,0.0879,0.0825,0.0277,1793,2019-08-07 16:52:25:679
-4.9766,-8.0285,2.9079,-0.2951,0.1671,0.0019,0.1092,0.0601,0.0394,1798,2019-08-07 16:52:25:684
-4.9766,-8.0285,2.9079,-0.2951,0.1671,0.0019,0.1092,0.0601,0.0394,1802,2019-08-07 16:52:25:688
-4.9766,-8.0285,2.9079,-0.2951,0.1671,0.0019,0.1348,0.0218,0.0447,1808,2019-08-07 16:52:25:694
-4.9049,-8.1669,2.9786,-0.3539,0.3954,-0.1177,0.1348,0.0218,0.0447,1813,2019-08-07 16:52:25:699
-4.9049,-8.1669,2.9786,-0.3539,0.3954,-0.1177,0.171,-0.0102,0.0501,1817,2019-08-07 16:52:25:703
-4.7422,-8.2004,3.0587,-0.3539,0.3954,-0.1177,0.171,-0.0102,0.0501,1823,2019-08-07 16:52:25:709
-4.7422,-8.2004,3.0587,-0.3539,0.3954,-0.1177,0.171,-0.0102,0.0501,1828,2019-08-07 16:52:25:714
-4.7422,-8.2004,3.0587,-0.6437,0.4038,-0.1344,0.2243,-0.0411,0.0533,1833,2019-08-07 16:52:25:719
-4.4886,-8.2051,3.054,-0.6437,0.4038,-0.1344,0.2243,-0.0411,0.0533,1838,2019-08-07 16:52:25:724
-4.4886,-8.2051,3.054,-0.6437,0.4038,-0.1344,0.2722,-0.0517,0.0533,1844,2019-08-07 16:52:25:730
-4.2877,-8.3149,3.0305,-0.6437,0.4038,-0.1344,0.2722,-0.0517,0.0533,1848,2019-08-07 16:52:25:734
-4.2877,-8.3149,3.0305,-0.9964,0.6161,-0.116,0.2722,-0.0517,0.0533,1853,2019-08-07 16:52:25:739
-4.2877,-8.3149,3.0305,-0.9964,0.6161,-0.116,0.318,-0.0272,0.0501,1858,2019-08-07 16:52:25:744
-4.2398,-8.4677,3.0493,-0.9964,0.6161,-0.116,0.318,-0.0272,0.0501,1863,2019-08-07 16:52:25:749
-4.2398,-8.4677,3.0493,-0.9964,0.6161,-0.116,0.3479,-0.0102,0.0501,1868,2019-08-07 16:52:25:754
-4.2016,-8.9069,3.12,-1.0663,1.0559,-0.0992,0.3479,-0.0102,0.0501,1873,2019-08-07 16:52:25:759
-4.2016,-8.9069,3.12,-1.0663,1.0559,-0.0992,0.3969,0.0378,0.0682,1878,2019-08-07 16:52:25:764
-4.2016,-8.9069,3.12,-1.0663,1.0559,-0.0992,0.3969,0.0378,0.0682,1883,2019-08-07 16:52:25:769
-3.9767,-9.3604,3.1813,-1.0663,1.0559,-0.0992,0.448,0.0793,0.082,1887,2019-08-07 16:52:25:773
-3.9767,-9.3604,3.1813,-1.4142,1.8071,-0.167,0.448,0.0793,0.082,1893,2019-08-07 16:52:25:779
-3.6418,-9.8569,3.2426,-1.4142,1.8071,-0.167,0.5183,0.1496,0.0948,1898,2019-08-07 16:52:25:784
-3.6418,-9.8569,3.2426,-1.4142,1.8071,-0.167,0.5183,0.1496,0.0948,1903,2019-08-07 16:52:25:789
-3.6418,-9.8569,3.2426,-1.4142,1.8071,-0.167,0.5183,0.1496,0.0948,1908,2019-08-07 16:52:25:794
-3.2686,-10.3915,3.747,-2.0663,2.8111,-0.7495,0.6941,0.2987,0.0969,1913,2019-08-07 16:52:25:799
-3.2686,-10.3915,3.747,-2.0663,2.8111,-0.7495,0.6941,0.2987,0.0969,1918,2019-08-07 16:52:25:804
-2.9433,-10.826,4.3456,-2.0663,2.8111,-0.7495,0.9849,0.4458,0.0831,1923,2019-08-07 16:52:25:809
-2.9433,-10.826,4.3456,-2.0663,2.8111,-0.7495,0.9849,0.4458,0.0831,1928,2019-08-07 16:52:25:814
-2.9433,-10.826,4.3456,-2.4831,3.3411,-1.2899,1.2342,0.5235,0.0693,1933,2019-08-07 16:52:25:819
-2.8094,-11.0026,4.6473,-2.4831,3.3411,-1.2899,1.2342,0.5235,0.0693,1937,2019-08-07 16:52:25:823
-2.8094,-11.0026,4.6473,-2.4831,3.3411,-1.2899,1.4568,0.5299,0.0586,1943,2019-08-07 16:52:25:829
-2.8094,-11.0694,4.883,-2.4831,3.3411,-1.2899,1.4568,0.5299,0.0586,1948,2019-08-07 16:52:25:834
-2.8094,-11.0694,4.883,-2.4766,3.5401,-1.4989,1.6943,0.4415,0.0735,1953,2019-08-07 16:52:25:839
-2.8094,-11.0694,4.883,-2.4766,3.5401,-1.4989,1.6943,0.4415,0.0735,1958,2019-08-07 16:52:25:844
-2.7472,-11.3129,4.7651,-2.4766,3.5401,-1.4989,1.6943,0.4415,0.0735,1963,2019-08-07 16:52:25:849
-2.7472,-11.3129,4.7651,-2.4766,3.5401,-1.4989,1.8605,0.3286,0.0969,1968,2019-08-07 16:52:25:854
-2.7472,-11.3129,4.7651,-2.8467,4.4118,-0.8774,1.8605,0.3286,0.0969,1973,2019-08-07 16:52:25:859
-2.3979,-11.9287,4.4446,-2.8467,4.4118,-0.8774,2.0544,0.2199,0.1204,1978,2019-08-07 16:52:25:864
-2.3979,-11.9287,4.4446,-2.8467,4.4118,-0.8774,2.0544,0.2199,0.1204,1983,2019-08-07 16:52:25:869
-2.3979,-11.9287,4.4446,-2.8467,4.4118,-0.8774,2.3751,0.2199,0.1396,1988,2019-08-07 16:52:25:874
-1.4698,-12.9312,3.4406,-4.1996,5.8721,0.7341,2.3751,0.2199,0.1396,1992,2019-08-07 16:52:25:878
-1.4698,-12.9312,3.4406,-4.1996,5.8721,0.7341,2.3751,0.2199,0.1396,1998,2019-08-07 16:52:25:884
0.1521,-13.8621,2.1018,-4.1996,5.8721,0.7341,2.717,0.4649,0.13,2003,2019-08-07 16:52:25:889
0.1521,-13.8621,2.1018,-4.1996,5.8721,0.7341,2.717,0.4649,0.13,2007,2019-08-07 16:52:25:893
0.1521,-13.8621,2.1018,-6.9785,7.3488,2.9754,3.1335,1.0082,0.0671,2013,2019-08-07 16:52:25:899
1.8457,-14.4875,1.0035,-6.9785,7.3488,2.9754,3.7109,2.0671,-0.0224,2019,2019-08-07 16:52:25:905
1.8457,-14.4875,1.0035,-6.9785,7.3488,2.9754,3.7109,2.0671,-0.0224,2023,2019-08-07 16:52:25:909
2.549,-14.4636,-0.4436,-6.9785,7.3488,2.9754,3.7109,2.0671,-0.0224,2028,2019-08-07 16:52:25:914
2.549,-14.4636,-0.4436,-7.7475,7.5282,5.7319,4.1711,3.1185,-0.0522,2034,2019-08-07 16:52:25:920
2.549,-14.4636,-0.4436,-7.7475,7.5282,5.7319,4.1711,3.1185,-0.0522,2037,2019-08-07 16:52:25:923
1.8409,-14.244,-1.7211,-7.7475,7.5282,5.7319,4.8667,4.7324,0.0075,2043,2019-08-07 16:52:25:929
1.8409,-14.244,-1.7211,-7.7475,7.5282,5.7319,4.8667,4.7324,0.0075,2048,2019-08-07 16:52:25:934
-1.4076,-13.1508,-0.585,-4.517,6.8253,5.1812,5.508,5.7241,0.1971,2053,2019-08-07 16:52:25:939
-1.4076,-13.1508,-0.585,-4.517,6.8253,5.1812,5.508,5.7241,0.1971,2058,2019-08-07 16:52:25:944
-1.4076,-13.1508,-0.585,-4.517,6.8253,5.1812,5.508,5.7241,0.1971,2063,2019-08-07 16:52:25:949
-4.9862,-12.8214,0.8291,-4.517,6.8253,5.1812,6.2878,6.2323,0.7148,2068,2019-08-07 16:52:25:954
-4.9862,-12.8214,0.8291,-0.0054,7.393,4.348,6.2878,6.2323,0.7148,2073,2019-08-07 16:52:25:959
-4.9862,-12.8214,0.8291,-0.0054,7.393,4.348,6.6159,5.7039,1.1739,2077,2019-08-07 16:52:25:963
-7.785,-13.1126,0.2163,1.3343,7.671,4.2558,6.6159,5.7039,1.1739,2083,2019-08-07 16:52:25:969
-7.785,-13.1126,0.2163,1.3343,7.671,4.2558,6.5914,4.7537,1.4339,2088,2019-08-07 16:52:25:974
-9.0671,-12.7498,-0.1796,1.3343,7.671,4.2558,6.5914,4.7537,1.4339,2093,2019-08-07 16:52:25:979
-9.0671,-12.7498,-0.1796,1.3343,7.671,4.2558,6.5221,3.6522,1.6054,2098,2019-08-07 16:52:25:984
-9.0671,-12.7498,-0.1796,1.9564,7.2718,5.9077,6.5221,3.6522,1.6054,2103,2019-08-07 16:52:25:989
-9.292,-11.6136,-1.6739,1.9564,7.2718,5.9077,6.5221,3.6522,1.6054,2108,2019-08-07 16:52:25:994
-9.292,-11.6136,-1.6739,1.9564,7.2718,5.9077,6.5019,2.6604,1.6693,2113,2019-08-07 16:52:25:999
-9.292,-11.6136,-1.6739,1.4943,6.5253,7.0204,6.5019,2.6604,1.6693,2118,2019-08-07 16:52:26:004
-9.0289,-10.0335,-2.6921,1.4943,6.5253,7.0204,6.585,1.6282,1.6054,2123,2019-08-07 16:52:26:009
-9.0289,-10.0335,-2.6921,1.4943,6.5253,7.0204,6.585,1.6282,1.6054,2128,2019-08-07 16:52:26:014
-9.3064,-8.0094,-1.8813,1.5527,4.2627,6.5341,6.7064,0.9315,1.4626,2133,2019-08-07 16:52:26:019
-9.3064,-8.0094,-1.8813,1.5527,4.2627,6.5341,6.7064,0.9315,1.4626,2138,2019-08-07 16:52:26:024
-9.9474,-6.2908,-3.4275,1.5527,4.2627,6.5341,6.7171,0.5832,1.3422,2142,2019-08-07 16:52:26:028
-9.9474,-6.2908,-3.4275,1.5527,4.2627,6.5341,6.7171,0.5832,1.3422,2149,2019-08-07 16:52:26:035
-9.9474,-6.2908,-3.4275,1.5527,4.2627,6.5341,6.7171,0.5832,1.3422,2153,2019-08-07 16:52:26:039
-9.3781,-3.5172,-1.3062,1.1655,1.2451,6.5112,6.2867,1.2554,1.2176,2158,2019-08-07 16:52:26:044
-9.3781,-3.5172,-1.3062,1.1655,1.2451,6.5112,6.2867,1.2554,1.2176,2163,2019-08-07 16:52:26:049
-10.6555,-3.1497,-2.2679,1.8553,1.1341,6.7816,5.9565,0.8143,1.1494,2169,2019-08-07 16:52:26:055
-10.6555,-3.1497,-2.2679,1.8553,1.1341,6.7816,5.9565,0.8143,1.1494,2173,2019-08-07 16:52:26:059
-10.6555,-3.1497,-2.2679,1.8553,1.1341,6.7816,5.9565,0.8143,1.1494,2178,2019-08-07 16:52:26:064
-11.5406,-3.3215,-2.4517,1.8553,1.1341,6.7816,5.6539,0.4788,1.0408,2183,2019-08-07 16:52:26:069
-11.5406,-3.3215,-2.4517,3.3429,1.9463,7.5353,5.6539,0.4788,1.0408,2187,2019-08-07 16:52:26:073
-11.5406,-3.3215,-2.4517,3.3429,1.9463,7.5353,5.5634,0.1975,0.931,2193,2019-08-07 16:52:26:079
-11.6363,-2.7868,-2.4894,3.3019,1.8338,7.5752,5.5634,0.1975,0.931,2198,2019-08-07 16:52:26:084
-11.6363,-2.7868,-2.4894,3.3019,1.8338,7.5752,5.4313,-0.1337,0.7958,2203,2019-08-07 16:52:26:089
-11.6363,-2.7868,-2.4894,3.3019,1.8338,7.5752,5.4313,-0.1337,0.7958,2208,2019-08-07 16:52:26:094
-11.5071,-0.8487,-3.2106,3.3019,1.8338,7.5752,5.1032,-0.578,0.5454,2212,2019-08-07 16:52:26:098
-11.5071,-0.8487,-3.2106,3.2485,-1.0566,8.3777,5.1032,-0.578,0.5454,2218,2019-08-07 16:52:26:104
-11.5837,2.24,-3.0032,3.2485,-1.0566,8.3777,4.4406,-1.0254,0.196,2223,2019-08-07 16:52:26:109
-11.5837,2.24,-3.0032,3.2485,-1.0566,8.3777,4.4406,-1.0254,0.196,2227,2019-08-07 16:52:26:113
-11.5837,2.24,-3.0032,3.2485,-1.0566,8.3777,3.7769,-1.2757,-0.0756,2233,2019-08-07 16:52:26:119
-10.4115,4.0063,-2.4611,2.1693,-3.8326,7.7783,3.7769,-1.2757,-0.0756,2238,2019-08-07 16:52:26:124
-10.4115,4.0063,-2.4611,2.1693,-3.8326,7.7783,3.0813,-1.4781,-0.3931,2243,2019-08-07 16:52:26:129
-8.5792,4.8322,-2.084,2.1693,-3.8326,7.7783,3.0813,-1.4781,-0.3931,2248,2019-08-07 16:52:26:134
-8.5792,4.8322,-2.084,2.1693,-3.8326,7.7783,3.0813,-1.4781,-0.3931,2253,2019-08-07 16:52:26:139
-8.5792,4.8322,-2.084,-1.0355,-5.3467,7.4747,2.1673,-1.3268,-1.0621,2258,2019-08-07 16:52:26:144
-6.7324,6.0447,-1.7635,-1.0355,-5.3467,7.4747,2.1673,-1.3268,-1.0621,2263,2019-08-07 16:52:26:149
-6.7324,6.0447,-1.7635,-1.0355,-5.3467,7.4747,1.8062,-0.9934,-1.4029,2268,2019-08-07 16:52:26:154
-6.0052,6.9995,-0.6793,-1.0355,-5.3467,7.4747,1.8062,-0.9934,-1.4029,2273,2019-08-07 16:52:26:159
-6.0052,6.9995,-0.6793,-1.9741,-6.668,6.181,1.3077,-0.3532,-1.8088,2278,2019-08-07 16:52:26:164
-6.0052,6.9995,-0.6793,-1.9741,-6.668,6.181,1.3077,-0.3532,-1.8088,2283,2019-08-07 16:52:26:169
-6.3975,7.5676,0.1456,-1.9741,-6.668,6.181,0.8251,0.2306,-1.9952,2288,2019-08-07 16:52:26:174
-6.3975,7.5676,0.1456,-1.9741,-6.668,6.181,0.8251,0.2306,-1.9952,2293,2019-08-07 16:52:26:179
-6.3975,7.5676,0.1456,-0.6305,-7.8532,4.2324,0.4203,0.3808,-2.0432,2298,2019-08-07 16:52:26:184
-7.6462,8.2741,1.4796,-0.6305,-7.8532,4.2324,0.4203,0.3808,-2.0432,2303,2019-08-07 16:52:26:189
-7.6462,8.2741,1.4796,-0.6305,-7.8532,4.2324,0.4203,0.3808,-2.0432,2308,2019-08-07 16:52:26:194
-8.3208,8.4841,1.8049,-0.6305,-7.8532,4.2324,0.0283,0.2284,-2.0187,2313,2019-08-07 16:52:26:199
-8.3208,8.4841,1.8049,0.2382,-8.4017,3.9364,0.0283,0.2284,-2.0187,2318,2019-08-07 16:52:26:204
-8.3208,8.4841,1.8049,0.2382,-8.4017,3.9364,-0.3936,-0.0869,-1.8834,2322,2019-08-07 16:52:26:208
-7.9094,8.1118,1.4278,-0.5396,-8.0773,4.0211,-0.3936,-0.0869,-1.8834,2328,2019-08-07 16:52:26:214
-7.9094,8.1118,1.4278,-0.5396,-8.0773,4.0211,-0.6343,-0.2328,-1.779,2333,2019-08-07 16:52:26:219
-6.1009,6.9327,1.0695,-0.5396,-8.0773,4.0211,-0.6343,-0.2328,-1.779,2338,2019-08-07 16:52:26:224
-6.1009,6.9327,1.0695,-0.5396,-8.0773,4.0211,-0.7472,-0.0933,-1.7065,2343,2019-08-07 16:52:26:229
-6.1009,6.9327,1.0695,-2.444,-6.5864,4.6924,-0.7472,-0.0933,-1.7065,2347,2019-08-07 16:52:26:233
-5.6512,5.5053,0.7066,-2.444,-6.5864,4.6924,-0.6972,0.5011,-1.5883,2353,2019-08-07 16:52:26:239
-5.6512,5.5053,0.7066,-2.444,-6.5864,4.6924,-0.6972,0.5011,-1.5883,2358,2019-08-07 16:52:26:244
-6.6415,4.393,0.7301,-2.444,-6.5864,4.6924,-0.6524,0.9198,-1.502,2364,2019-08-07 16:52:26:250
-6.6415,4.393,0.7301,-1.1974,-4.9362,4.3694,-0.6524,0.9198,-1.502,2368,2019-08-07 16:52:26:254
-6.6415,4.393,0.7301,-1.1974,-4.9362,4.3694,-0.6524,0.9198,-1.502,2372,2019-08-07 16:52:26:258
-8.5313,3.7294,2.0453,0.2846,-4.5522,3.2036,-0.6418,1.4322,-1.3593,2378,2019-08-07 16:52:26:264
-8.5313,3.7294,2.0453,0.2846,-4.5522,3.2036,-0.6418,1.4322,-1.3593,2383,2019-08-07 16:52:26:269
-8.5313,3.7294,2.0453,0.2846,-4.5522,3.2036,-0.5917,1.5195,-1.1984,2388,2019-08-07 16:52:26:274
-10.7847,3.2186,3.5961,0.2846,-4.5522,3.2036,-0.5917,1.5195,-1.1984,2393,2019-08-07 16:52:26:279
-10.7847,3.2186,3.5961,3.5148,-4.1109,0.8113,-0.531,1.2426,-1.0408,2398,2019-08-07 16:52:26:284
-10.7847,3.2186,3.5961,3.5148,-4.1109,0.8113,-0.531,1.2426,-1.0408,2404,2019-08-07 16:52:26:290
-12.4496,3.0181,4.4069,3.5148,-4.1109,0.8113,-0.5054,0.6194,-0.8501,2408,2019-08-07 16:52:26:294
-12.4496,3.0181,4.4069,3.5148,-4.1109,0.8113,-0.5054,0.6194,-0.8501,2414,2019-08-07 16:52:26:300
-11.9042,2.7412,4.4587,3.4568,-3.9742,0.3742,-0.5054,0.6194,-0.8501,2417,2019-08-07 16:52:26:303
-11.9042,2.7412,4.4587,3.4568,-3.9742,0.3742,-0.5555,-0.2328,-0.5593,2423,2019-08-07 16:52:26:309
-11.9042,2.7412,4.4587,3.4568,-3.9742,0.3742,-0.5555,-0.2328,-0.5593,2428,2019-08-07 16:52:26:314
-9.8326,1.7387,3.582,1.8466,-3.2089,1.1602,-0.5086,-0.677,-0.3047,2433,2019-08-07 16:52:26:319
-9.8326,1.7387,3.582,1.8466,-3.2089,1.1602,-0.5086,-0.677,-0.3047,2438,2019-08-07 16:52:26:324
-8.029,1.0179,2.5921,1.8466,-3.2089,1.1602,-0.3797,-0.5694,-0.1619,2443,2019-08-07 16:52:26:329
-8.029,1.0179,2.5921,-1.2202,-2.2505,2.8287,-0.3797,-0.5694,-0.1619,2448,2019-08-07 16:52:26:334
-8.029,1.0179,2.5921,-1.2202,-2.2505,2.8287,-0.3797,-0.5694,-0.1619,2453,2019-08-07 16:52:26:339
-6.7564,0.7887,1.9463,-1.2202,-2.2505,2.8287,-0.2775,0.0015,-0.0405,2457,2019-08-07 16:52:26:343
-6.7564,0.7887,1.9463,-1.2202,-2.2505,2.8287,-0.2775,0.0015,-0.0405,2463,2019-08-07 16:52:26:349
-7.6749,0.8604,2.7288,-0.7169,-2.2377,2.1617,-0.2668,0.5672,0.0075,2468,2019-08-07 16:52:26:354
-7.6749,0.8604,2.7288,-0.7169,-2.2377,2.1617,-0.2668,0.5672,0.0075,2473,2019-08-07 16:52:26:359
-7.6749,0.8604,2.7288,-0.7169,-2.2377,2.1617,-0.2657,0.9571,0.0384,2478,2019-08-07 16:52:26:364
-9.5886,1.1659,3.9826,-0.7169,-2.2377,2.1617,-0.2657,0.9571,0.0384,2483,2019-08-07 16:52:26:369
-9.5886,1.1659,3.9826,-0.7169,-2.2377,2.1617,-0.2892,1.053,0.0756,2487,2019-08-07 16:52:26:373
-9.5886,1.1659,3.9826,1.9771,-2.6909,0.0109,-0.2892,1.053,0.0756,2493,2019-08-07 16:52:26:379
-10.8182,1.3186,5.015,1.9771,-2.6909,0.0109,-0.3648,0.8825,0.1023,2497,2019-08-07 16:52:26:383
-10.8182,1.3186,5.015,1.9771,-2.6909,0.0109,-0.3648,0.8825,0.1023,2503,2019-08-07 16:52:26:389
-11.464,1.2709,5.6985,1.9771,-2.6909,0.0109,-0.4447,0.5256,0.1044,2508,2019-08-07 16:52:26:394
-11.464,1.2709,5.6985,3.0081,-2.6756,-1.114,-0.4447,0.5256,0.1044,2513,2019-08-07 16:52:26:399
-11.464,1.2709,5.6985,3.0081,-2.6756,-1.114,-0.5289,0.0655,0.13,2517,2019-08-07 16:52:26:403
-11.3827,1.1945,5.1328,3.0081,-2.6756,-1.114,-0.5289,0.0655,0.13,2523,2019-08-07 16:52:26:409
-11.3827,1.1945,5.1328,3.0081,-2.6756,-1.114,-0.6354,-0.318,0.1705,2527,2019-08-07 16:52:26:413
-10.0766,0.8651,3.8837,1.8247,-2.3306,0.4367,-0.6354,-0.318,0.1705,2533,2019-08-07 16:52:26:419
-10.0766,0.8651,3.8837,1.8247,-2.3306,0.4367,-0.7376,-0.5055,0.1843,2538,2019-08-07 16:52:26:424
-10.0766,0.8651,3.8837,1.8247,-2.3306,0.4367,-0.7376,-0.5055,0.1843,2542,2019-08-07 16:52:26:428
-8.7083,0.5739,2.7759,1.8247,-2.3306,0.4367,-0.7877,-0.4405,0.1609,2548,2019-08-07 16:52:26:434
-8.7083,0.5739,2.7759,-0.1162,-1.8128,2.198,-0.7877,-0.4405,0.1609,2552,2019-08-07 16:52:26:438
-8.7083,0.5739,2.7759,-0.1162,-1.8128,2.198,-0.8335,-0.2009,0.1289,2558,2019-08-07 16:52:26:444
-8.1916,0.3305,1.9369,-0.1162,-1.8128,2.198,-0.8335,-0.2009,0.1289,2563,2019-08-07 16:52:26:449
-8.1916,0.3305,1.9369,-0.1162,-1.8128,2.198,-0.8335,-0.2009,0.1289,2568,2019-08-07 16:52:26:454
-8.4021,0.3734,1.7059,-0.1821,-1.819,2.9074,-0.9166,0.0825,0.0607,2573,2019-08-07 16:52:26:459
-8.4021,0.3734,1.7059,-0.1821,-1.819,2.9074,-0.9166,0.0825,0.0607,2578,2019-08-07 16:52:26:464
-8.4021,0.3734,1.7059,-0.1821,-1.819,2.9074,-0.9699,0.2316,0.0277,2583,2019-08-07 16:52:26:469
-8.6509,0.3018,1.4796,-0.1821,-1.819,2.9074,-0.9699,0.2316,0.0277,2588,2019-08-07 16:52:26:474
-8.6509,0.3018,1.4796,0.1577,-1.8169,3.0807,-1.0157,0.3637,-0.0309,2593,2019-08-07 16:52:26:479
-8.8853,0.3352,1.2298,0.1577,-1.8169,3.0807,-1.0157,0.3637,-0.0309,2598,2019-08-07 16:52:26:484
-8.8853,0.3352,1.2298,0.1577,-1.8169,3.0807,-1.0807,0.4447,-0.1225,2603,2019-08-07 16:52:26:489
-8.8853,0.3352,1.2298,0.1577,-1.8169,3.0807,-1.0807,0.4447,-0.1225,2609,2019-08-07 16:52:26:495
-9.3159,0.297,1.2392,0.6781,-1.9144,3.1206,-1.1265,0.4543,-0.1939,2613,2019-08-07 16:52:26:499
-9.3159,0.297,1.2392,0.6781,-1.9144,3.1206,-1.1265,0.4543,-0.1939,2618,2019-08-07 16:52:26:504
-10.2345,0.0011,2.0123,0.6781,-1.9144,3.1206,-1.1265,0.4543,-0.1939,2623,2019-08-07 16:52:26:509
-10.2345,0.0011,2.0123,0.6781,-1.9144,3.1206,-1.151,0.3978,-0.2812,2627,2019-08-07 16:52:26:513
-10.2345,0.0011,2.0123,2.0724,-1.6364,1.7436,-1.151,0.3978,-0.2812,2633,2019-08-07 16:52:26:519
-11.0191,-0.2185,2.7335,2.0724,-1.6364,1.7436,-1.1787,0.2583,-0.3409,2637,2019-08-07 16:52:26:523
-11.0191,-0.2185,2.7335,2.0724,-1.6364,1.7436,-1.1787,0.2583,-0.3409,2643,2019-08-07 16:52:26:529
-11.2488,-0.2806,3.1106,2.0724,-1.6364,1.7436,-1.2468,0.0015,-0.4208,2648,2019-08-07 16:52:26:534
-11.2488,-0.2806,3.1106,2.4852,-1.6007,1.0885,-1.2468,0.0015,-0.4208,2652,2019-08-07 16:52:26:538
-11.2488,-0.2806,3.1106,2.4852,-1.6007,1.0885,-1.2468,0.0015,-0.4208,2658,2019-08-07 16:52:26:544
-10.8612,-0.3904,2.9268,2.4852,-1.6007,1.0885,-1.4311,-0.4363,-0.5316,2663,2019-08-07 16:52:26:549
-10.8612,-0.3904,2.9268,2.4852,-1.6007,1.0885,-1.4311,-0.4363,-0.5316,2668,2019-08-07 16:52:26:554
-10.8612,-0.3904,2.9268,1.7103,-1.5148,1.5333,-1.6144,-0.7463,-0.6136,2673,2019-08-07 16:52:26:559
-10.134,-0.6673,2.4884,1.7103,-1.5148,1.5333,-1.6144,-0.7463,-0.6136,2678,2019-08-07 16:52:26:564
-10.134,-0.6673,2.4884,1.7103,-1.5148,1.5333,-1.7944,-0.9327,-0.6892,2683,2019-08-07 16:52:26:569
-9.2011,-0.9155,1.8332,1.7103,-1.5148,1.5333,-1.7944,-0.9327,-0.6892,2688,2019-08-07 16:52:26:574
-9.2011,-0.9155,1.8332,0.548,-1.4841,2.4889,-2.0149,-1.0275,-0.7808,2693,2019-08-07 16:52:26:579
-9.2011,-0.9155,1.8332,0.548,-1.4841,2.4889,-2.0149,-1.0275,-0.7808,2698,2019-08-07 16:52:26:584
-8.737,-0.8916,1.2864,0.548,-1.4841,2.4889,-2.2045,-0.9753,-0.8405,2703,2019-08-07 16:52:26:589
-8.737,-0.8916,1.2864,0.548,-1.4841,2.4889,-2.2045,-0.9753,-0.8405,2709,2019-08-07 16:52:26:595
-8.737,-0.8916,1.2864,0.1826,-1.7322,2.9861,-2.3899,-0.8762,-0.8874,2713,2019-08-07 16:52:26:599
-8.5935,-1.0444,1.3005,0.1826,-1.7322,2.9861,-2.3899,-0.8762,-0.8874,2718,2019-08-07 16:52:26:604
-8.5935,-1.0444,1.3005,0.1826,-1.7322,2.9861,-2.3899,-0.8762,-0.8874,2723,2019-08-07 16:52:26:609
-8.8184,-1.4311,1.8002,0.1826,-1.7322,2.9861,-2.5678,-0.7495,-0.9427,2728,2019-08-07 16:52:26:614
-8.8184,-1.4311,1.8002,0.641,-1.4124,2.1778,-2.5678,-0.7495,-0.9427,2733,2019-08-07 16:52:26:619
-9.3733,-1.7939,2.3517,0.641,-1.4124,2.1778,-2.6818,-0.7388,-0.963,2738,2019-08-07 16:52:26:624
-9.3733,-1.7939,2.3517,0.641,-1.4124,2.1778,-2.6818,-0.7388,-0.963,2742,2019-08-07 16:52:26:628
-9.3733,-1.7939,2.3517,0.641,-1.4124,2.1778,-2.8224,-0.8741,-0.9577,2748,2019-08-07 16:52:26:634
-9.6983,-2.0565,2.7194,1.5077,-1.382,1.4433,-2.8224,-0.8741,-0.9577,2753,2019-08-07 16:52:26:639
-9.6983,-2.0565,2.7194,1.5077,-1.382,1.4433,-2.9779,-1.1415,-0.9481,2757,2019-08-07 16:52:26:643
-9.8514,-2.1949,2.9221,1.7361,-1.4407,1.2204,-2.9779,-1.1415,-0.9481,2763,2019-08-07 16:52:26:649
-9.8514,-2.1949,2.9221,1.7361,-1.4407,1.2204,-3.1792,-1.5516,-0.9129,2768,2019-08-07 16:52:26:654
-9.8514,-2.1949,2.9221,1.7361,-1.4407,1.2204,-3.1792,-1.5516,-0.9129,2773,2019-08-07 16:52:26:659
-9.6887,-2.3572,2.3612,1.7361,-1.4407,1.2204,-3.4168,-1.9809,-0.8554,2778,2019-08-07 16:52:26:664
-9.6887,-2.3572,2.3612,1.3718,-1.6531,2.3138,-3.4168,-1.9809,-0.8554,2782,2019-08-07 16:52:26:668
-9.0093,-2.5864,1.4278,1.3718,-1.6531,2.3138,-3.6479,-2.4145,-0.7553,2788,2019-08-07 16:52:26:674
-9.0093,-2.5864,1.4278,1.3718,-1.6531,2.3138,-3.6479,-2.4145,-0.7553,2792,2019-08-07 16:52:26:678
-9.0093,-2.5864,1.4278,1.3718,-1.6531,2.3138,-3.8472,-2.6861,-0.6285,2798,2019-08-07 16:52:26:684
-7.8611,-3.2547,0.1127,0.0495,-1.0672,4.2436,-3.8472,-2.6861,-0.6285,2803,2019-08-07 16:52:26:689
-7.8611,-3.2547,0.1127,0.0495,-1.0672,4.2436,-3.8472,-2.6861,-0.6285,2807,2019-08-07 16:52:26:693
-6.7751,-4.3718,-0.3445,0.0495,-1.0672,4.2436,-3.9867,-2.7554,-0.5081,2814,2019-08-07 16:52:26:700
-6.7751,-4.3718,-0.3445,0.0495,-1.0672,4.2436,-3.9867,-2.7554,-0.5081,2817,2019-08-07 16:52:26:703
-6.7751,-4.3718,-0.3445,-0.8173,0.2883,5.0273,-4.0591,-2.6488,-0.4154,2823,2019-08-07 16:52:26:709
-6.555,-5.4125,-0.8253,-0.8173,0.2883,5.0273,-4.0591,-2.6488,-0.4154,2827,2019-08-07 16:52:26:713
-6.555,-5.4125,-0.8253,-0.8173,0.2883,5.0273,-4.0602,-2.4209,-0.3068,2833,2019-08-07 16:52:26:719
-6.555,-6.4914,-0.3163,-0.8173,0.2883,5.0273,-3.9878,-2.1833,-0.2003,2838,2019-08-07 16:52:26:724
-6.7129,-6.4914,-0.3163,-0.8173,0.2883,5.0273,-3.9878,-2.1833,-0.2003,2842,2019-08-07 16:52:26:728
-6.7129,-6.4914,-0.3163,-0.4234,1.5239,4.3085,-3.8983,-2.0597,-0.1044,2849,2019-08-07 16:52:26:735
-7.0526,-7.0547,-0.1277,-0.4234,1.5239,4.3085,-3.8983,-2.0597,-0.1044,2854,2019-08-07 16:52:26:740
-7.0526,-7.0547,-0.1277,-0.4234,1.5239,4.3085,-3.8983,-2.0597,-0.1044,2858,2019-08-07 16:52:26:744
-7.4401,-7.26,-0.2361,0.4314,1.6309,4.164,-3.8045,-2.0651,0.0053,2864,2019-08-07 16:52:26:750
-7.4401,-7.26,-0.2361,0.4314,1.6309,4.164,-3.8045,-2.0651,0.0053,2868,2019-08-07 16:52:26:754
-7.4401,-7.26,-0.2361,0.4314,1.6309,4.164,-3.8045,-2.0651,0.0053,2873,2019-08-07 16:52:26:759
-7.7606,-7.2456,0.2871,0.4314,1.6309,4.164,-3.7215,-2.1886,0.0991,2877,2019-08-07 16:52:26:763
-7.7606,-7.2456,0.2871,0.829,1.3651,3.2378,-3.7215,-2.1886,0.0991,2883,2019-08-07 16:52:26:769
-7.7606,-7.2456,0.2871,0.829,1.3651,3.2378,-3.6682,-2.4475,0.2216,2888,2019-08-07 16:52:26:774
-7.3252,-7.5273,0.5558,0.829,1.3651,3.2378,-3.6682,-2.4475,0.2216,2893,2019-08-07 16:52:26:779
-7.3252,-7.5273,0.5558,0.829,1.3651,3.2378,-3.6884,-2.5966,0.2674,2897,2019-08-07 16:52:26:783
-6.5502,-8.4868,0.1174,0.829,1.3651,3.2378,-3.6884,-2.5966,0.2674,2903,2019-08-07 16:52:26:789
-6.5502,-8.4868,0.1174,-0.165,2.5492,3.6502,-3.6884,-2.5966,0.2674,2908,2019-08-07 16:52:26:794
-6.5502,-8.4868,0.1174,-0.165,2.5492,3.6502,-3.763,-2.6542,0.2184,2913,2019-08-07 16:52:26:799
-6.3062,-9.5609,0.0326,-0.165,2.5492,3.6502,-3.763,-2.6542,0.2184,2918,2019-08-07 16:52:26:804
-6.3062,-9.5609,0.0326,-0.2094,3.7544,3.0879,-3.7992,-2.7021,0.1289,2923,2019-08-07 16:52:26:809
-6.311,-10.2006,0.4002,-0.2094,3.7544,3.0879,-3.7992,-2.7021,0.1289,2928,2019-08-07 16:52:26:814
-6.311,-10.2006,0.4002,-0.2094,3.7544,3.0879,-3.7385,-2.9045,0.1023,2932,2019-08-07 16:52:26:818
-6.2105,-10.7783,0.5511,-0.2094,3.7544,3.0879,-3.7385,-2.9045,0.1023,2938,2019-08-07 16:52:26:824
-6.2105,-10.7783,0.5511,-0.2094,3.7544,3.0879,-3.5489,-3.2358,0.1364,2942,2019-08-07 16:52:26:828
-6.2105,-10.7783,0.5511,-0.5825,4.3009,2.7434,-3.5489,-3.2358,0.1364,2947,2019-08-07 16:52:26:833
-5.4115,-11.0217,0.5417,-0.5825,4.3009,2.7434,-3.3198,-3.5319,0.2003,2953,2019-08-07 16:52:26:839
-5.4115,-11.0217,0.5417,-0.5825,4.3009,2.7434,-3.3198,-3.5319,0.2003,2957,2019-08-07 16:52:26:843
-4.0911,-11.0313,0.2447,-0.5825,4.3009,2.7434,-3.0674,-3.6726,0.2791,2963,2019-08-07 16:52:26:849
-4.0911,-11.0313,0.2447,-2.3492,4.0961,2.9851,-3.0674,-3.6726,0.2791,2967,2019-08-07 16:52:26:853
-4.0911,-11.0313,0.2447,-2.3492,4.0961,2.9851,-2.8224,-3.696,0.3462,2973,2019-08-07 16:52:26:859
-2.2444,-10.9406,0.471,-2.3492,4.0961,2.9851,-2.8224,-3.696,0.3462,2978,2019-08-07 16:52:26:864
-2.2444,-10.9406,0.471,-2.3492,4.0961,2.9851,-2.67,-3.6001,0.3856,2983,2019-08-07 16:52:26:869
-0.5794,-10.9215,0.4191,-5.0347,3.8365,2.968,-2.67,-3.6001,0.3856,2988,2019-08-07 16:52:26:874
-0.5794,-10.9215,0.4191,-5.0347,3.8365,2.968,-2.4623,-3.109,0.4229,2993,2019-08-07 16:52:26:879
-0.5794,-10.9215,0.4191,-5.0347,3.8365,2.968,-2.4623,-3.109,0.4229,2998,2019-08-07 16:52:26:884
0.2674,-11.1697,0.4285,-5.0347,3.8365,2.968,-2.4623,-3.109,0.4229,3003,2019-08-07 16:52:26:889
0.2674,-11.1697,0.4285,-5.9271,4.0984,2.8497,-2.3185,-2.3942,0.4442,3009,2019-08-07 16:52:26:895
0.2674,-11.1697,0.4285,-5.9271,4.0984,2.8497,-2.3185,-2.3942,0.4442,3013,2019-08-07 16:52:26:899
0.0665,-11.6948,0.5935,-5.9271,4.0984,2.8497,-2.2833,-2.0992,0.4613,3017,2019-08-07 16:52:26:903
0.0665,-11.6948,0.5935,-5.9271,4.0984,2.8497,-2.2833,-2.0992,0.4613,3023,2019-08-07 16:52:26:909
0.0665,-11.6948,0.5935,-4.724,5.2527,1.6357,-2.1374,-1.4057,0.4304,3028,2019-08-07 16:52:26:914
-1.1392,-12.7546,1.772,-4.724,5.2527,1.6357,-2.1374,-1.4057,0.4304,3033,2019-08-07 16:52:26:919
-1.1392,-12.7546,1.772,-4.724,5.2527,1.6357,-2.1374,-1.4057,0.4304,3038,2019-08-07 16:52:26:924
-2.4309,-12.9647,2.5356,-4.724,5.2527,1.6357,-1.9233,-1.3215,0.3697,3043,2019-08-07 16:52:26:929
-2.4309,-12.9647,2.5356,-2.8516,5.5377,0.3908,-1.9233,-1.3215,0.3697,3048,2019-08-07 16:52:26:934
-2.4309,-12.9647,2.5356,-2.8516,5.5377,0.3908,-1.6676,-1.4536,0.326,3053,2019-08-07 16:52:26:939
-2.7275,-12.9981,2.9174,-2.861,5.4332,0.0687,-1.3512,-1.6315,0.2525,3059,2019-08-07 16:52:26:945
-2.7275,-12.9981,2.9174,-2.861,5.4332,0.0687,-1.3512,-1.6315,0.2525,3063,2019-08-07 16:52:26:949
-2.1391,-12.726,2.6629,-2.861,5.4332,0.0687,-1.3512,-1.6315,0.2525,3068,2019-08-07 16:52:26:954
-2.1391,-12.726,2.6629,-2.861,5.4332,0.0687,-0.9677,-1.688,0.1225,3073,2019-08-07 16:52:26:959
-2.1391,-12.726,2.6629,-3.8903,4.6263,0.6163,-0.9677,-1.688,0.1225,3078,2019-08-07 16:52:26:964
-1.3449,-12.1675,2.3706,-3.8903,4.6263,0.6163,-0.6961,-1.5175,0.0032,3083,2019-08-07 16:52:26:969
-1.3449,-12.1675,2.3706,-3.8903,4.6263,0.6163,-0.6961,-1.5175,0.0032,3088,2019-08-07 16:52:26:974
-1.1726,-11.566,1.9747,-3.8903,4.6263,0.6163,-0.4703,-1.1372,-0.147,3093,2019-08-07 16:52:26:979
-1.1726,-11.566,1.9747,-3.9114,3.5564,1.1903,-0.4703,-1.1372,-0.147,3097,2019-08-07 16:52:26:983
-1.1726,-11.566,1.9747,-3.9114,3.5564,1.1903,-0.4703,-1.1372,-0.147,3103,2019-08-07 16:52:26:989
-2.0386,-10.8069,2.003,-3.9114,3.5564,1.1903,-0.2466,-0.5939,-0.3206,3108,2019-08-07 16:52:26:994
-2.0386,-10.8069,2.003,-3.9114,3.5564,1.1903,-0.2466,-0.5939,-0.3206,3113,2019-08-07 16:52:26:999
-3.1581,-10.0765,2.6158,-2.0239,2.3348,0.4582,-0.0825,-0.2584,-0.4016,3118,2019-08-07 16:52:27:004
-3.1581,-10.0765,2.6158,-2.0239,2.3348,0.4582,-0.0825,-0.2584,-0.4016,3123,2019-08-07 16:52:27:009
-3.1581,-10.0765,2.6158,-2.0239,2.3348,0.4582,0.0549,-0.0847,-0.4495,3127,2019-08-07 16:52:27:013
-3.9618,-9.3461,2.8514,-2.0239,2.3348,0.4582,0.0549,-0.0847,-0.4495,3133,2019-08-07 16:52:27:019
-3.9618,-9.3461,2.8514,-0.7057,1.08,-0.0102,0.1742,-0.0624,-0.4836,3137,2019-08-07 16:52:27:023
-3.9618,-9.3461,2.8514,-0.7057,1.08,-0.0102,0.1742,-0.0624,-0.4836,3143,2019-08-07 16:52:27:029
-4.6795,-8.3961,3.1814,-0.7057,0.4057,-0.1269,0.1742,-0.0624,-0.4836,3148,2019-08-07 16:52:27:034
-4.6795,-8.3961,3.1814,-0.3035,0.4057,-0.1269,0.2232,-0.1487,-0.474,3152,2019-08-07 16:52:27:038
-4.8469,-7.6896,3.3605,-0.3035,0.4057,-0.1269,0.2232,-0.1487,-0.474,3159,2019-08-07 16:52:27:045
-4.8469,-7.6896,3.3605,-0.3035,0.4057,-0.1269,0.2264,-0.3191,-0.4261,3164,2019-08-07 16:52:27:050
-4.8469,-7.6896,3.3605,-0.292,-0.4076,0.0602,0.2264,-0.3191,-0.4261,3167,2019-08-07 16:52:27:053
-4.6412,-7.408,3.1013,-0.292,-0.4076,0.0602,0.1966,-0.4352,-0.3782,3173,2019-08-07 16:52:27:059
-4.6412,-7.408,3.1013,-0.292,-0.4076,0.0602,0.1966,-0.4352,-0.3782,3177,2019-08-07 16:52:27:063
-4.1723,-7.2743,2.6299,-0.5922,-0.5778,0.3097,0.1614,-0.4757,-0.3355,3183,2019-08-07 16:52:27:069
-4.1723,-7.2743,2.6299,-0.5922,-0.5778,0.3097,0.1614,-0.4757,-0.3355,3188,2019-08-07 16:52:27:074
-4.1723,-7.2743,2.6299,-0.5922,-0.5778,0.3097,0.0901,-0.3798,-0.2343,3194,2019-08-07 16:52:27:080
-3.8805,-7.1454,2.3094,-1.0287,-0.7485,0.9949,0.0901,-0.3798,-0.2343,3198,2019-08-07 16:52:27:084
-3.8805,-7.1454,2.3094,-1.0287,-0.7485,0.9949,0.0901,-0.3798,-0.2343,3204,2019-08-07 16:52:27:090
-3.8805,-7.1454,2.3094,-1.0287,-0.7485,0.9949,0.0549,-0.1497,-0.1747,3207,2019-08-07 16:52:27:093
-3.6269,-7.0261,2.1538,-1.0287,-0.7485,0.9949,0.0549,-0.1497,-0.1747,3213,2019-08-07 16:52:27:099
-3.6269,-7.0261,2.1538,-1.0287,-0.7485,0.9949,0.0549,-0.1497,-0.1747,3217,2019-08-07 16:52:27:103
-3.8135,-6.9783,1.9228,-1.0036,-0.9056,1.2768,-0.0037,0.1283,-0.1608,3223,2019-08-07 16:52:27:109
-3.8135,-6.9783,1.9228,-1.0036,-0.9056,1.2768,-0.0037,0.1283,-0.1608,3227,2019-08-07 16:52:27:113
-3.8135,-6.9783,1.9228,-1.0036,-0.9056,1.2768,-0.0559,0.3179,-0.1513,3233,2019-08-07 16:52:27:119
-4.4641,-6.9401,2.069,-1.0036,-0.9056,1.2768,-0.0559,0.3179,-0.1513,3237,2019-08-07 16:52:27:123
-4.4641,-6.9401,2.069,0.0095,-0.9494,0.9416,-0.1123,0.4266,-0.1214,3243,2019-08-07 16:52:27:129
-4.4641,-6.9401,2.069,0.0095,-0.9494,0.9416,-0.1123,0.4266,-0.1214,3248,2019-08-07 16:52:27:134
-5.354,-7.0451,2.8609,0.0095,-0.9494,0.9416,-0.1262,0.336,-0.098,3252,2019-08-07 16:52:27:138
-5.354,-7.0451,2.8609,0.0095,-0.9494,0.9416,-0.1262,0.336,-0.098,3258,2019-08-07 16:52:27:144
-5.6267,-7.1931,3.3323,0.8191,-0.8018,-0.0856,-0.1262,0.0963,-0.0735,3263,2019-08-07 16:52:27:149
-5.6267,-7.1931,3.3323,0.8191,-0.8018,-0.0856,-0.1262,0.0963,-0.0735,3268,2019-08-07 16:52:27:154
-5.6267,-7.1931,3.3323,0.8191,-0.8018,-0.0856,-0.1262,0.0963,-0.0735,3273,2019-08-07 16:52:27:159
-5.4162,-7.1072,3.4925,0.8191,-0.8018,-0.0856,-0.1273,-0.2797,-0.049,3278,2019-08-07 16:52:27:164
-5.4162,-7.1072,3.4925,0.2975,-0.8444,-0.2497,-0.1273,-0.2797,-0.049,3282,2019-08-07 16:52:27:168
-5.4162,-7.1072,3.4925,0.2975,-0.8444,-0.2497,-0.1432,-0.5758,-0.0149,3288,2019-08-07 16:52:27:174
-4.5024,-7.1549,3.1437,0.2975,-0.8444,-0.2497,-0.1432,-0.5758,-0.0149,3292,2019-08-07 16:52:27:178
-4.5024,-7.1549,3.1437,0.2975,-0.8444,-0.2497,-0.1528,-0.628,0.0032,3299,2019-08-07 16:52:27:185
-3.823,-7.2027,2.776,-0.9414,-0.7494,0.4334,-0.1528,-0.628,0.0032,3303,2019-08-07 16:52:27:189
-3.823,-7.2027,2.776,-0.9414,-0.7494,0.4334,-0.1454,-0.5545,0.0298,3309,2019-08-07 16:52:27:195
-3.823,-7.2027,2.776,-0.9414,-0.7494,0.4334,-0.1454,-0.5545,0.0298,3313,2019-08-07 16:52:27:199
-3.0719,-7.5273,2.4696,-0.9414,-0.7494,0.4334,-0.1209,-0.3681,0.0554,3318,2019-08-07 16:52:27:204
-3.0719,-7.5273,2.4696,-1.7616,-0.3218,0.8823,-0.1209,-0.3681,0.0554,3323,2019-08-07 16:52:27:209
-2.8566,-7.7135,2.4084,-1.7616,-0.3218,0.8823,-0.09,-0.1316,0.0629,3328,2019-08-07 16:52:27:214
-2.8566,-7.7135,2.4084,-1.7616,-0.3218,0.8823,-0.09,-0.1316,0.0629,3333,2019-08-07 16:52:27:219
-2.8566,-7.7135,2.4084,-1.7616,-0.3218,0.8823,-0.09,-0.1316,0.0629,3338,2019-08-07 16:52:27:224
-2.9906,-7.871,2.5356,-1.73,-0.1,0.6916,-0.0463,0.1485,0.0725,3343,2019-08-07 16:52:27:229
-2.9906,-7.871,2.5356,-1.73,-0.1,0.6916,-0.0463,0.1485,0.0725,3348,2019-08-07 16:52:27:234
-2.9906,-7.871,2.5356,-1.73,-0.1,0.6916,-0.0122,0.3627,0.081,3353,2019-08-07 16:52:27:239
-3.4546,-7.871,3.0117,-1.73,-0.1,0.6916,-0.0122,0.3627,0.081,3358,2019-08-07 16:52:27:244
-3.4546,-7.871,3.0117,-1.0741,-0.1327,0.0554,0.0059,0.4511,0.0906,3363,2019-08-07 16:52:27:249
-4.0144,-7.8137,3.4595,-1.0741,-0.1327,0.0554,0.0059,0.4511,0.0906,3368,2019-08-07 16:52:27:254
-4.0144,-7.8137,3.4595,-1.0741,-0.1327,0.0554,0.0059,0.4511,0.0906,3373,2019-08-07 16:52:27:259
-4.0144,-7.8137,3.4595,-1.0741,-0.1327,0.0554,0.0166,0.4426,0.1097,3378,2019-08-07 16:52:27:264
-4.4737,-7.7946,3.7141,-0.3115,-0.1658,-0.5566,0.0166,0.4426,0.1097,3383,2019-08-07 16:52:27:269
-4.4737,-7.7946,3.7141,-0.3115,-0.1658,-0.5566,0.0027,0.3552,0.1268,3388,2019-08-07 16:52:27:274
-4.4737,-7.7946,3.7141,-0.3115,-0.1658,-0.5566,0.0027,0.3552,0.1268,3393,2019-08-07 16:52:27:279
-4.8564,-7.8949,3.8084,-0.3115,-0.1658,-0.5566,-0.0229,0.188,0.1268,3397,2019-08-07 16:52:27:283
-4.8564,-7.8949,3.8084,0.0682,-0.0812,-0.6597,-0.0229,0.188,0.1268,3403,2019-08-07 16:52:27:289
-4.8564,-7.8949,3.8084,0.0682,-0.0812,-0.6597,-0.0229,0.188,0.1268,3407,2019-08-07 16:52:27:293
-4.7894,-7.9331,3.7188,0.0682,-0.0812,-0.6597,-0.0346,0.0069,0.1257,3414,2019-08-07 16:52:27:300
-4.7894,-7.9331,3.7188,0.0682,-0.0812,-0.6597,-0.0346,0.0069,0.1257,3418,2019-08-07 16:52:27:304
-4.3636,-8.1097,3.2899,-0.4767,0.1725,-0.158,-0.0442,-0.0784,0.1172,3423,2019-08-07 16:52:27:309
-4.3636,-8.1097,3.2899,-0.4767,0.1725,-0.158,-0.0442,-0.0784,0.1172,3427,2019-08-07 16:52:27:313
-4.3636,-8.1097,3.2899,-0.4767,0.1725,-0.158,-0.0516,-0.0315,0.0863,3433,2019-08-07 16:52:27:319
-4.0239,-8.1049,2.9599,-0.4767,0.1725,-0.158,-0.0516,-0.0315,0.0863,3437,2019-08-07 16:52:27:323
-4.0239,-8.1049,2.9599,-0.8861,0.1892,0.3548,-0.0516,-0.0315,0.0863,3443,2019-08-07 16:52:27:329
-3.8947,-8.1002,2.7101,-0.8861,0.1892,0.3548,-0.0463,0.1347,0.0554,3448,2019-08-07 16:52:27:334
-3.8947,-8.1002,2.7101,-0.8861,0.1892,0.3548,-0.0463,0.1347,0.0554,3453,2019-08-07 16:52:27:339
-3.8947,-8.1002,2.7101,-0.8861,0.1892,0.3548,-0.0346,0.2956,0.0384,3458,2019-08-07 16:52:27:344
-3.9474,-8.1527,2.7761,-0.8589,0.182,0.2767,-0.0346,0.2956,0.0384,3464,2019-08-07 16:52:27:350
-3.9474,-8.1527,2.7761,-0.8589,0.182,0.2767,-0.0079,0.4298,0.0203,3467,2019-08-07 16:52:27:353
-3.9474,-8.1527,2.7761,-0.8589,0.182,0.2767,-0.0079,0.4298,0.0203,3473,2019-08-07 16:52:27:359
-4.3492,-8.0524,3.0023,-0.8589,0.182,0.2767,0.0144,0.5011,0.016,3478,2019-08-07 16:52:27:364
-4.3492,-8.0524,3.0023,-0.2508,0.0336,-0.1179,0.0144,0.5011,0.016,3483,2019-08-07 16:52:27:369
-4.8564,-7.8472,3.2851,-0.2508,0.0336,-0.1179,0.0315,0.4756,0.0171,3487,2019-08-07 16:52:27:373
-4.8564,-7.8472,3.2851,-0.2508,0.0336,-0.1179,0.0315,0.4756,0.0171,3493,2019-08-07 16:52:27:379
-4.8564,-7.8472,3.2851,-0.2508,0.0336,-0.1179,0.0251,0.3584,0.0266,3498,2019-08-07 16:52:27:384
-5.3874,-7.6801,3.5633,0.4932,-0.3235,-0.6294,0.0251,0.3584,0.0266,3503,2019-08-07 16:52:27:389
-5.3874,-7.6801,3.5633,0.4932,-0.3235,-0.6294,0.0251,0.3584,0.0266,3508,2019-08-07 16:52:27:394
-5.5548,-7.5703,3.667,0.4932,-0.3235,-0.6294,0.0091,0.1145,0.0245,3513,2019-08-07 16:52:27:399
-5.5548,-7.5703,3.667,0.4932,-0.3235,-0.6294,0.0091,0.1145,0.0245,3517,2019-08-07 16:52:27:403
-5.5548,-7.5703,3.667,0.4932,-0.3235,-0.6294,0.0091,0.1145,0.0245,3523,2019-08-07 16:52:27:409
-5.4304,-7.5082,3.4831,0.495,-0.417,-0.4719,-0.0154,-0.154,0.0149,3527,2019-08-07 16:52:27:413
-5.4304,-7.5082,3.4831,0.495,-0.417,-0.4719,-0.0154,-0.154,0.0149,3533,2019-08-07 16:52:27:419
-4.7798,-7.5082,3.0023,0.495,-0.417,-0.4719,-0.0431,-0.3063,0.0,3538,2019-08-07 16:52:27:424
-4.7798,-7.5082,3.0023,-0.2949,-0.3647,0.1631,-0.0431,-0.3063,0.0,3543,2019-08-07 16:52:27:429
-4.7798,-7.5082,3.0023,-0.2949,-0.3647,0.1631,-0.0591,-0.3095,-0.0117,3549,2019-08-07 16:52:27:435
-4.3109,-7.5846,2.5639,-0.2949,-0.3647,0.1631,-0.0591,-0.3095,-0.0117,3554,2019-08-07 16:52:27:440
-4.3109,-7.5846,2.5639,-0.2949,-0.3647,0.1631,-0.0697,-0.2168,-0.0245,3558,2019-08-07 16:52:27:444
-4.0765,-7.7039,2.3565,-0.8241,-0.23,0.6887,-0.0697,-0.2168,-0.0245,3564,2019-08-07 16:52:27:450
-4.0765,-7.7039,2.3565,-0.8241,-0.23,0.6887,-0.0676,-0.0816,-0.0256,3567,2019-08-07 16:52:27:453
-4.0765,-7.7039,2.3565,-0.8241,-0.23,0.6887,-0.0676,-0.0816,-0.0256,3573,2019-08-07 16:52:27:459
-4.0621,-7.7517,2.4225,-0.8241,-0.23,0.6887,-0.0506,0.0708,-0.0266,3578,2019-08-07 16:52:27:464
-4.0621,-7.7517,2.4225,-0.8241,-0.23,0.6887,-0.0506,0.0708,-0.0266,3582,2019-08-07 16:52:27:468
-4.0621,-7.7517,2.4225,-0.7929,-0.2445,0.5525,-0.025,0.1858,-0.0138,3588,2019-08-07 16:52:27:474
-4.2057,-7.6562,2.4602,-0.7929,-0.2445,0.5525,-0.025,0.1858,-0.0138,3592,2019-08-07 16:52:27:478
-4.2057,-7.6562,2.4602,-0.7929,-0.2445,0.5525,-0.0101,0.2263,0.0096,3599,2019-08-07 16:52:27:485
-4.4209,-7.556,2.7006,-0.7929,-0.2445,0.5525,-0.0101,0.2263,0.0096,3603,2019-08-07 16:52:27:489
-4.4209,-7.556,2.7006,-0.4674,-0.4056,0.3013,-0.0101,0.2263,0.0096,3608,2019-08-07 16:52:27:494
-4.6601,-7.4796,2.7054,-0.4674,-0.4056,0.3013,0.007,0.2242,0.0362,3614,2019-08-07 16:52:27:500
-4.6601,-7.4796,2.7054,-0.4674,-0.4056,0.3013,0.007,0.2242,0.0362,3617,2019-08-07 16:52:27:503
-4.6601,-7.4796,2.7054,-0.4674,-0.4056,0.3013,0.0155,0.1901,0.0597,3623,2019-08-07 16:52:27:509
-4.9041,-7.4748,2.8609,-0.0956,-0.5007,0.1494,0.0155,0.1901,0.0597,3628,2019-08-07 16:52:27:514
-4.9041,-7.4748,2.8609,-0.0956,-0.5007,0.1494,0.0219,0.1177,0.0756,3633,2019-08-07 16:52:27:519
-4.9041,-7.4748,2.8609,-0.0956,-0.5007,0.1494,0.0219,0.1177,0.0756,3638,2019-08-07 16:52:27:524
-4.9615,-7.5034,2.8562,-0.0956,-0.5007,0.1494,0.0229,0.0473,0.0863,3643,2019-08-07 16:52:27:529
-4.9615,-7.5034,2.8562,-9.0E-4,-0.3616,0.2047,0.0229,0.0473,0.0863,3648,2019-08-07 16:52:27:534
-4.9615,-7.5034,2.8562,-9.0E-4,-0.3616,0.2047,0.0144,-0.0144,0.0906,3653,2019-08-07 16:52:27:539
-4.9663,-7.5178,2.6818,-9.0E-4,-0.3616,0.2047,0.0144,-0.0144,0.0906,3658,2019-08-07 16:52:27:544
-4.9663,-7.5178,2.6818,-9.0E-4,-0.3616,0.2047,0.0112,-0.0411,0.0959,3663,2019-08-07 16:52:27:549
-4.8276,-7.5225,2.6724,-0.1119,-0.3559,0.3015,0.0112,-0.0411,0.0959,3668,2019-08-07 16:52:27:554
-4.8276,-7.5225,2.6724,-0.1119,-0.3559,0.3015,0.0112,-0.0411,0.0959,3673,2019-08-07 16:52:27:559
-4.8276,-7.5225,2.6724,-0.1119,-0.3559,0.3015,0.0112,-0.0379,0.1065,3678,2019-08-07 16:52:27:564
-4.4688,-7.6276,2.498,-0.1119,-0.3559,0.3015,0.0112,-0.0379,0.1065,3682,2019-08-07 16:52:27:568
-4.4688,-7.6276,2.498,-0.5181,-0.2603,0.601,0.0038,0.025,0.0927,3688,2019-08-07 16:52:27:574
-4.4353,-7.6896,2.432,-0.5181,-0.2603,0.601,0.0038,0.025,0.0927,3693,2019-08-07 16:52:27:579
-4.4353,-7.6896,2.432,-0.5181,-0.2603,0.601,-0.0016,0.0995,0.0735,3698,2019-08-07 16:52:27:584
-4.4353,-7.6896,2.432,-0.5181,-0.2603,0.601,-0.0016,0.0995,0.0735,3703,2019-08-07 16:52:27:589
-4.5405,-7.6705,2.5357,-0.4489,-0.2349,0.4385,0.0048,0.1496,0.0906,3708,2019-08-07 16:52:27:594
-4.5405,-7.6705,2.5357,-0.4489,-0.2349,0.4385,0.0048,0.1496,0.0906,3713,2019-08-07 16:52:27:599
-4.7032,-7.7183,2.5357,-0.4489,-0.2349,0.4385,0.0048,0.1496,0.0906,3718,2019-08-07 16:52:27:604
-4.7032,-7.7183,2.5357,-0.4489,-0.2349,0.4385,0.0123,0.1528,0.1044,3724,2019-08-07 16:52:27:610
-4.7558,-7.6658,2.6818,-0.2622,-0.2258,0.2811,0.0123,0.1528,0.1044,3729,2019-08-07 16:52:27:615
-4.7558,-7.6658,2.6818,-0.2622,-0.2258,0.2811,0.0187,0.1187,0.1151,3733,2019-08-07 16:52:27:619
-4.7558,-7.6658,2.6818,-0.2622,-0.2258,0.2811,0.0187,0.1187,0.1151,3737,2019-08-07 16:52:27:623
-4.7558,-7.6658,2.6818,-0.2622,-0.2258,0.2811,0.0144,0.0527,0.1321,3743,2019-08-07 16:52:27:629
-4.7419,-7.6705,2.8042,-0.3338,-0.218,0.1654,0.0144,0.0527,0.1321,3747,2019-08-07 16:52:27:633
-4.7419,-7.6705,2.8042,-0.3338,-0.218,0.1654,0.0155,-0.008,0.1523,3753,2019-08-07 16:52:27:639
-4.5984,-7.7707,2.6157,-0.3338,-0.218,0.1654,0.0155,-0.008,0.1523,3757,2019-08-07 16:52:27:643
-4.5984,-7.7707,2.6157,-0.3338,-0.218,0.1654,0.0219,0.0037,0.1534,3763,2019-08-07 16:52:27:649
-4.6558,-7.8376,2.4743,-0.4424,-0.0172,0.4582,0.0219,0.0037,0.1534,3768,2019-08-07 16:52:27:654
-4.6558,-7.8376,2.4743,-0.4424,-0.0172,0.4582,0.0219,0.0037,0.1534,3773,2019-08-07 16:52:27:659
-4.6558,-7.8376,2.4743,-0.4424,-0.0172,0.4582,0.0208,0.0569,0.1449,3778,2019-08-07 16:52:27:664
-4.742,-7.8996,2.4884,-0.4424,-0.0172,0.4582,0.0208,0.0569,0.1449,3782,2019-08-07 16:52:27:668
-4.742,-7.8996,2.4884,-0.3284,0.0825,0.3531,0.0155,0.1059,0.1332,3788,2019-08-07 16:52:27:674
-4.742,-7.8996,2.4884,-0.3284,0.0825,0.3531,0.0155,0.1059,0.1332,3793,2019-08-07 16:52:27:679
-4.8759,-7.8853,2.512,-0.3284,0.0825,0.3531,0.024,0.1219,0.1161,3798,2019-08-07 16:52:27:684
-4.8759,-7.8853,2.512,-0.3284,0.0825,0.3531,0.024,0.1219,0.1161,3803,2019-08-07 16:52:27:689
-4.8329,-7.976,2.5214,-0.2765,0.1322,0.4121,0.0283,0.1294,0.1087,3808,2019-08-07 16:52:27:694
-4.8329,-7.976,2.5214,-0.2765,0.1322,0.4121,0.0283,0.1294,0.1087,3813,2019-08-07 16:52:27:699
-4.8329,-7.976,2.5214,-0.2765,0.1322,0.4121,0.0283,0.1294,0.1087,3818,2019-08-07 16:52:27:704
-4.8185,-7.9569,2.578,-0.2765,0.1322,0.4121,0.0261,0.1762,0.081,3823,2019-08-07 16:52:27:709
-4.8185,-7.9569,2.578,-0.1029,-0.0065,0.2797,0.0261,0.1762,0.081,3827,2019-08-07 16:52:27:713
-5.1725,-7.8185,2.6204,-0.1029,-0.0065,0.2797,0.0315,0.221,0.0522,3833,2019-08-07 16:52:27:719
-5.1725,-7.8185,2.6204,-0.1029,-0.0065,0.2797,0.0315,0.221,0.0522,3837,2019-08-07 16:52:27:723
-5.1725,-7.8185,2.6204,-0.1029,-0.0065,0.2797,0.0261,0.221,0.0352,3843,2019-08-07 16:52:27:729
-5.3352,-7.8232,2.6723,0.13,-0.0196,0.2215,0.0261,0.221,0.0352,3848,2019-08-07 16:52:27:734
-5.3352,-7.8232,2.6723,0.13,-0.0196,0.2215,0.0176,0.1528,0.0139,3852,2019-08-07 16:52:27:738
-5.2634,-7.8328,2.8137,0.13,-0.0196,0.2215,0.0176,0.1528,0.0139,3858,2019-08-07 16:52:27:744
-5.2634,-7.8328,2.8137,0.13,-0.0196,0.2215,0.0134,0.0932,-0.0074,3863,2019-08-07 16:52:27:749
-5.2634,-7.8328,2.8137,-0.0991,-0.0086,0.0444,0.0134,0.0932,-0.0074,3869,2019-08-07 16:52:27:755
-5.0003,-7.7469,2.8137,-0.0991,-0.0086,0.0444,0.0134,0.0932,-0.0074,3873,2019-08-07 16:52:27:759
-5.0003,-7.7469,2.8137,-0.0991,-0.0086,0.0444,0.0176,0.0548,-0.0192,3878,2019-08-07 16:52:27:764
-4.8281,-7.7325,2.7053,-0.0991,-0.0086,0.0444,0.0176,0.0548,-0.0192,3883,2019-08-07 16:52:27:769
-4.8281,-7.7325,2.7053,-0.3756,-0.1299,0.2342,0.0208,0.0601,-0.0202,3887,2019-08-07 16:52:27:773
-4.8281,-7.7325,2.7053,-0.3756,-0.1299,0.2342,0.0208,0.0601,-0.0202,3893,2019-08-07 16:52:27:779
-4.852,-7.6991,2.7005,-0.3756,-0.1299,0.2342,0.0261,0.0868,-0.0138,3898,2019-08-07 16:52:27:784
-4.852,-7.6991,2.7005,-0.3756,-0.1299,0.2342,0.0261,0.0868,-0.0138,3903,2019-08-07 16:52:27:789
-4.852,-7.6991,2.7005,-0.3756,-0.1299,0.2342,0.0368,0.0708,-0.0074,3907,2019-08-07 16:52:27:793
-4.9525,-7.68,2.8655,-0.2096,-0.1495,0.0131,0.0368,0.0708,-0.0074,3914,2019-08-07 16:52:27:800
-4.9525,-7.68,2.8655,-0.2096,-0.1495,0.0131,0.0517,0.0165,0.0085,3918,2019-08-07 16:52:27:804
-4.9094,-7.5941,2.9127,-0.2096,-0.1495,0.0131,0.0517,0.0165,0.0085,3923,2019-08-07 16:52:27:809
-4.9094,-7.5941,2.9127,-0.2096,-0.1495,0.0131,0.0517,0.0165,0.0085,3928,2019-08-07 16:52:27:814
-4.7324,-7.618,2.7241,-0.3407,-0.2695,0.0965,0.0709,-0.0379,0.0288,3933,2019-08-07 16:52:27:819
-4.7324,-7.618,2.7241,-0.3407,-0.2695,0.0965,0.0709,-0.0379,0.0288,3938,2019-08-07 16:52:27:824
-4.7324,-7.618,2.7241,-0.3407,-0.2695,0.0965,0.072,-0.0187,0.0362,3943,2019-08-07 16:52:27:829
-4.6032,-7.5941,2.5591,-0.3407,-0.2695,0.0965,0.072,-0.0187,0.0362,3947,2019-08-07 16:52:27:833
-4.6032,-7.5941,2.5591,-0.5964,-0.2202,0.3641,0.0762,0.0356,0.0384,3953,2019-08-07 16:52:27:839
-4.6128,-7.5941,2.545,-0.5964,-0.2202,0.3641,0.0762,0.0356,0.0384,3959,2019-08-07 16:52:27:845
-4.6128,-7.5941,2.545,-0.5964,-0.2202,0.3641,0.0879,0.09,0.0448,3963,2019-08-07 16:52:27:849
-4.6128,-7.5941,2.545,-0.5964,-0.2202,0.3641,0.0879,0.09,0.0448,3967,2019-08-07 16:52:27:853
-4.742,-7.618,2.5921,-0.4237,-0.1745,0.3779,0.0879,0.09,0.0448,3973,2019-08-07 16:52:27:859
-4.742,-7.618,2.5921,-0.4237,-0.1745,0.3779,0.1018,0.1304,0.0511,3977,2019-08-07 16:52:27:863
-4.742,-7.618,2.5921,-0.4237,-0.1745,0.3779,0.1018,0.1304,0.0511,3983,2019-08-07 16:52:27:869
-4.9286,-7.6514,2.611,-0.4237,-0.1745,0.3779,0.1146,0.1635,0.0469,3987,2019-08-07 16:52:27:873
-4.9286,-7.6514,2.611,-0.1428,-0.2117,0.293,0.1146,0.1635,0.0469,3993,2019-08-07 16:52:27:879
-5.0864,-7.6084,2.7854,-0.1428,-0.2117,0.293,0.1156,0.1709,0.049,3998,2019-08-07 16:52:27:884
-5.0864,-7.6084,2.7854,-0.1428,-0.2117,0.293,0.1156,0.1709,0.049,4003,2019-08-07 16:52:27:889
-5.0864,-7.6084,2.7854,-0.1428,-0.2117,0.293,0.1082,0.1283,0.0469,4009,2019-08-07 16:52:27:895
-5.3065,-7.5129,2.842,0.098,-0.2761,0.0629,0.1082,0.1283,0.0469,4013,2019-08-07 16:52:27:899
-5.3065,-7.5129,2.842,0.098,-0.2761,0.0629,0.1082,0.1283,0.0469,4018,2019-08-07 16:52:27:904
-5.3065,-7.5129,2.842,0.098,-0.2761,0.0629,0.0997,0.0601,0.0384,4023,2019-08-07 16:52:27:909
-5.2395,-7.5464,2.9032,0.098,-0.2761,0.0629,0.0997,0.0601,0.0384,4028,2019-08-07 16:52:27:914
-5.2395,-7.5464,2.9032,-0.0423,-0.2033,0.0338,0.0869,-0.008,0.0298,4033,2019-08-07 16:52:27:919
-5.2395,-7.5464,2.9032,-0.0423,-0.2033,0.0338,0.0869,-0.008,0.0298,4038,2019-08-07 16:52:27:924
-5.0338,-7.6132,2.7005,-0.1873,-0.1612,0.2209,0.0826,-0.0464,0.0224,4043,2019-08-07 16:52:27:929
-5.0338,-7.6132,2.7005,-0.1873,-0.1612,0.2209,0.0826,-0.0464,0.0224,4048,2019-08-07 16:52:27:934
-5.0338,-7.6132,2.7005,-0.1873,-0.1612,0.2209,0.0826,-0.0485,0.0139,4053,2019-08-07 16:52:27:939
-4.7468,-7.6753,2.6628,-0.1873,-0.1612,0.2209,0.0826,-0.0485,0.0139,4059,2019-08-07 16:52:27:945
-4.7468,-7.6753,2.6628,-0.4822,-0.0653,0.2708,0.0741,-0.0144,0.0096,4063,2019-08-07 16:52:27:949
-4.7468,-7.6753,2.6628,-0.4822,-0.0653,0.2708,0.0741,-0.0144,0.0096,4067,2019-08-07 16:52:27:953
-4.675,-7.6991,2.6345,-0.4822,-0.0653,0.2708,0.072,0.0324,0.0096,4073,2019-08-07 16:52:27:959
-4.675,-7.6991,2.6345,-0.4822,-0.0653,0.2708,0.072,0.0324,0.0096,4078,2019-08-07 16:52:27:964
-4.7707,-7.5893,2.6817,-0.4485,-0.1766,0.2655,0.072,0.0324,0.0096,4083,2019-08-07 16:52:27:969
-4.7707,-7.5893,2.6817,-0.4485,-0.1766,0.2655,0.0751,0.074,0.0064,4087,2019-08-07 16:52:27:973
-4.8903,-7.4795,2.8231,-0.4485,-0.1766,0.2655,0.0688,0.074,0.0149,4093,2019-08-07 16:52:27:979
-4.8903,-7.4795,2.8231,-0.4485,-0.1766,0.2655,0.0688,0.074,0.0149,4098,2019-08-07 16:52:27:984
-4.8903,-7.4795,2.8231,-0.2911,-0.2672,0.1228,0.0688,0.074,0.0149,4103,2019-08-07 16:52:27:989
-4.9334,-7.4939,2.8655,-0.2911,-0.2672,0.1228,0.057,0.0559,0.0298,4109,2019-08-07 16:52:27:995
-4.9334,-7.4939,2.8655,-0.2911,-0.2672,0.1228,0.0528,0.0335,0.0288,4113,2019-08-07 16:52:27:999
-4.9334,-7.4939,2.8655,-0.2911,-0.2672,0.1228,0.0528,0.0335,0.0288,4117,2019-08-07 16:52:28:003
-5.053,-7.4031,2.9928,-0.2021,-0.3276,-0.0041,0.0528,0.0335,0.0288,4123,2019-08-07 16:52:28:009
-5.053,-7.4031,2.9928,-0.2021,-0.3276,-0.0041,0.0549,0.0026,0.032,4128,2019-08-07 16:52:28:014
-5.0338,-7.3411,2.9739,-0.2021,-0.3276,-0.0041,0.0549,0.0026,0.032,4132,2019-08-07 16:52:28:018
-5.0338,-7.3411,2.9739,-0.2021,-0.3276,-0.0041,0.0496,-0.0336,0.0416,4138,2019-08-07 16:52:28:024
-5.0338,-7.3411,2.9739,-0.3551,-0.3774,0.0875,0.0496,-0.0336,0.0416,4142,2019-08-07 16:52:28:028
-4.8807,-7.3411,2.8985,-0.3551,-0.3774,0.0875,0.0475,-0.0368,0.0341,4148,2019-08-07 16:52:28:034
-4.8807,-7.3411,2.8985,-0.3551,-0.3774,0.0875,0.0475,-0.0368,0.0341,4152,2019-08-07 16:52:28:038
-4.8377,-7.3554,2.6911,-0.3551,-0.3774,0.0875,0.0464,-0.0144,0.0181,4158,2019-08-07 16:52:28:044
-4.8377,-7.3554,2.6911,-0.3857,-0.3772,0.2575,0.0464,-0.0144,0.0181,4163,2019-08-07 16:52:28:049
-4.8377,-7.3554,2.6911,-0.3857,-0.3772,0.2575,0.04,0.0047,0.0139,4168,2019-08-07 16:52:28:054
-4.8807,-7.4175,2.7854,-0.3857,-0.3772,0.2575,0.04,0.0047,0.0139,4173,2019-08-07 16:52:28:059
-4.8807,-7.4175,2.7854,-0.3857,-0.3772,0.2575,0.0379,0.0292,0.0064,4178,2019-08-07 16:52:28:064
-4.9334,-7.4461,2.7524,-0.3062,-0.2933,0.2282,0.0379,0.0292,0.0064,4183,2019-08-07 16:52:28:069
-4.9334,-7.4461,2.7524,-0.3062,-0.2933,0.2282,0.0443,0.0548,0.0011,4188,2019-08-07 16:52:28:074
-4.9334,-7.4461,2.7524,-0.3062,-0.2933,0.2282,0.0443,0.0548,0.0011,4193,2019-08-07 16:52:28:079
-4.9956,-7.4461,2.8325,-0.3062,-0.2933,0.2282,0.0421,0.0612,-0.0011,4198,2019-08-07 16:52:28:084
-4.9956,-7.4461,2.8325,-0.2326,-0.2721,0.0824,0.0421,0.0612,-0.0011,4203,2019-08-07 16:52:28:089
-4.9764,-7.4748,2.8325,-0.2326,-0.2721,0.0824,0.0379,0.0282,0.0,4207,2019-08-07 16:52:28:093
-4.9764,-7.4748,2.8325,-0.2326,-0.2721,0.0824,0.0379,0.0282,0.0,4213,2019-08-07 16:52:28:099
-4.9764,-7.4748,2.8325,-0.2326,-0.2721,0.0824,0.0357,0.0058,0.0053,4218,2019-08-07 16:52:28:104
-4.9764,-7.4127,2.9032,-0.2482,-0.37,0.124,0.0357,0.0058,0.0053,4223,2019-08-07 16:52:28:109
-4.9764,-7.4127,2.9032,-0.2482,-0.37,0.124,0.0304,0.0037,0.0085,4228,2019-08-07 16:52:28:114
-4.9717,-7.3936,2.9174,-0.2482,-0.37,0.124,0.0304,0.0037,0.0085,4232,2019-08-07 16:52:28:118
-4.9717,-7.3936,2.9174,-0.2482,-0.37,0.124,0.0304,0.0037,0.0085,4238,2019-08-07 16:52:28:124
-4.9717,-7.3936,2.9174,-0.3447,-0.3201,0.1282,0.0123,-0.0102,0.0117,4243,2019-08-07 16:52:28:129
-4.9286,-7.4461,2.8325,-0.3447,-0.3201,0.1282,0.0123,-0.0102,0.0117,4248,2019-08-07 16:52:28:134
-4.9286,-7.4461,2.8325,-0.3447,-0.3201,0.1282,0.0016,-0.0176,0.016,4252,2019-08-07 16:52:28:138
-4.8281,-7.4509,2.8608,-0.3447,-0.3201,0.1282,0.0016,-0.0176,0.016,4258,2019-08-07 16:52:28:144
-4.8281,-7.4509,2.8608,-0.4501,-0.2856,0.1071,0.008,-0.0017,0.0064,4263,2019-08-07 16:52:28:149
-4.8281,-7.4509,2.8608,-0.4501,-0.2856,0.1071,0.008,-0.0017,0.0064,4267,2019-08-07 16:52:28:153
-4.8999,-7.4795,2.8184,-0.3783,-0.2521,0.1828,0.0102,0.0186,0.0032,4273,2019-08-07 16:52:28:159
-4.8999,-7.4795,2.8184,-0.3783,-0.2521,0.1828,0.0102,0.0186,0.0032,4278,2019-08-07 16:52:28:164
-4.8568,-7.4557,2.8467,-0.3783,-0.2521,0.1828,0.0102,0.0186,0.0032,4283,2019-08-07 16:52:28:169
-4.8568,-7.4557,2.8467,-0.3783,-0.2521,0.1828,0.0016,0.0473,0.0,4287,2019-08-07 16:52:28:173
-4.8568,-7.4557,2.8467,-0.2747,-0.3526,0.1463,0.0016,0.0473,0.0,4293,2019-08-07 16:52:28:179
-4.9908,-7.4031,2.8184,-0.2747,-0.3526,0.1463,-0.0026,0.0601,-0.0074,4297,2019-08-07 16:52:28:183
-4.9908,-7.4031,2.8184,-0.2747,-0.3526,0.1463,-0.0026,0.0601,-0.0074,4303,2019-08-07 16:52:28:189
-5.0004,-7.3936,2.8089,-0.2747,-0.3526,0.1463,-0.0047,0.0527,-0.0042,4308,2019-08-07 16:52:28:194
-5.0004,-7.3936,2.8089,-0.2198,-0.3535,0.1394,-0.0047,0.0527,-0.0042,4313,2019-08-07 16:52:28:199
-5.0004,-7.3936,2.8089,-0.2198,-0.3535,0.1394,-0.0111,0.0282,-0.0032,4318,2019-08-07 16:52:28:204
-5.0004,-7.3459,2.8089,-0.2198,-0.3535,0.1394,-0.0111,0.0282,-0.0032,4322,2019-08-07 16:52:28:208
-5.0004,-7.3459,2.8089,-0.2198,-0.3535,0.1394,-0.0101,0.0175,0.0011,4328,2019-08-07 16:52:28:214
-5.0004,-7.3459,2.8089,-0.2198,-0.3535,0.1394,-0.0101,0.0175,0.0011,4333,2019-08-07 16:52:28:219
-4.8999,-7.2933,2.8042,-0.35,-0.4403,0.1732,-0.0101,0.0175,0.0011,4338,2019-08-07 16:52:28:224
-4.8999,-7.2933,2.8042,-0.35,-0.4403,0.1732,-0.009,0.009,0.0085,4343,2019-08-07 16:52:28:229
-4.8569,-7.322,2.7005,-0.35,-0.4403,0.1732,-0.009,0.009,0.0085,4348,2019-08-07 16:52:28:234
-4.8569,-7.322,2.7005,-0.35,-0.4403,0.1732,-0.0165,0.0239,0.0203,4352,2019-08-07 16:52:28:238
-4.8569,-7.322,2.7005,-0.405,-0.3733,0.2591,-0.0165,0.0239,0.0203,4358,2019-08-07 16:52:28:244
-4.8808,-7.3793,2.7147,-0.405,-0.3733,0.2591,-0.0101,0.0495,0.0224,4363,2019-08-07 16:52:28:249
-4.8808,-7.3793,2.7147,-0.405,-0.3733,0.2591,-0.0101,0.0495,0.0224,4368,2019-08-07 16:52:28:254
-4.9382,-7.4175,2.7807,-0.405,-0.3733,0.2591,-0.0101,0.0495,0.0224,4372,2019-08-07 16:52:28:258
-4.9382,-7.4175,2.7807,-0.2915,-0.3243,0.2232,-0.009,0.0708,0.0234,4378,2019-08-07 16:52:28:264
-4.9382,-7.4175,2.7807,-0.2915,-0.3243,0.2232,-0.009,0.0708,0.0234,4383,2019-08-07 16:52:28:269
-4.9621,-7.4938,2.8042,-0.2915,-0.3243,0.2232,-0.0069,0.0804,0.0213,4388,2019-08-07 16:52:28:274
-4.9621,-7.4938,2.8042,-0.2915,-0.3243,0.2232,-0.0069,0.0804,0.0213,4392,2019-08-07 16:52:28:278
-5.0291,-7.4461,2.7005,-0.2134,-0.2558,0.2226,0.0059,0.0878,0.0181,4398,2019-08-07 16:52:28:284
-5.0291,-7.4461,2.7005,-0.2134,-0.2558,0.2226,0.0059,0.0878,0.0181,4403,2019-08-07 16:52:28:289
-5.0291,-7.4461,2.7005,-0.2134,-0.2558,0.2226,0.0059,0.1102,0.0096,4409,2019-08-07 16:52:28:295
-5.0626,-7.5082,2.6015,-0.2134,-0.2558,0.2226,0.0059,0.1102,0.0096,4413,2019-08-07 16:52:28:299
-5.0626,-7.5082,2.6015,-0.2308,-0.1977,0.2485,6.0E-4,0.1219,0.0053,4418,2019-08-07 16:52:28:304
-5.0626,-7.5082,2.6015,-0.2308,-0.1977,0.2485,6.0E-4,0.1219,0.0053,4423,2019-08-07 16:52:28:309
-5.12,-7.4938,2.6157,-0.2308,-0.1977,0.2485,-0.0047,0.1464,0.0021,4427,2019-08-07 16:52:28:313
-5.12,-7.4938,2.6157,-0.2308,-0.1977,0.2485,-0.0047,0.1464,0.0021,4433,2019-08-07 16:52:28:319
-5.1391,-7.5177,2.8514,-0.1441,-0.2122,0.0764,0.0016,0.1635,-0.0011,4437,2019-08-07 16:52:28:323
-5.1391,-7.5177,2.8514,-0.1441,-0.2122,0.0764,0.0016,0.1635,-0.0011,4443,2019-08-07 16:52:28:329
-5.1391,-7.5177,2.8514,-0.1441,-0.2122,0.0764,-0.0015,0.1475,0.0,4448,2019-08-07 16:52:28:334
-5.3018,-7.4461,2.9975,-0.1441,-0.2122,0.0764,-0.0015,0.1475,0.0,4453,2019-08-07 16:52:28:339
-5.3018,-7.4461,2.9975,0.1046,-0.2976,-0.0387,-0.0015,0.1475,0.0,4458,2019-08-07 16:52:28:344
-5.431,-7.3888,3.0211,0.1046,-0.2976,-0.0387,-0.0133,0.0836,0.0053,4463,2019-08-07 16:52:28:349
-5.431,-7.3888,3.0211,0.1046,-0.2976,-0.0387,-0.0175,5.0E-4,0.0128,4468,2019-08-07 16:52:28:354
-5.431,-7.3888,3.0211,0.1046,-0.2976,-0.0387,-0.0175,5.0E-4,0.0128,4473,2019-08-07 16:52:28:359
-5.3449,-7.4031,3.0116,0.0467,-0.3243,-0.1044,-0.0175,5.0E-4,0.0128,4477,2019-08-07 16:52:28:363
-5.3449,-7.4031,3.0116,0.0467,-0.3243,-0.1044,-0.0239,-0.0911,0.0266,4483,2019-08-07 16:52:28:369
-5.3449,-7.4031,3.0116,0.0467,-0.3243,-0.1044,-0.0239,-0.0911,0.0266,4487,2019-08-07 16:52:28:373
-5.1344,-7.4031,2.7712,0.0467,-0.3243,-0.1044,-0.0239,-0.1561,0.0352,4493,2019-08-07 16:52:28:379
-5.1344,-7.4031,2.7712,-0.3337,-0.2267,0.1366,-0.0239,-0.1561,0.0352,4497,2019-08-07 16:52:28:383
-4.9239,-7.4843,2.6487,-0.3337,-0.2267,0.1366,-0.0271,-0.1593,0.0352,4503,2019-08-07 16:52:28:389
-4.9239,-7.4843,2.6487,-0.3337,-0.2267,0.1366,-0.0271,-0.1593,0.0352,4508,2019-08-07 16:52:28:394
-4.9239,-7.4843,2.6487,-0.3337,-0.2267,0.1366,-0.0239,-0.1188,0.0341,4513,2019-08-07 16:52:28:399
-4.7468,-7.5702,2.5827,-0.5636,-0.1306,0.4057,-0.0239,-0.1188,0.0341,4517,2019-08-07 16:52:28:403
-4.7468,-7.5702,2.5827,-0.5636,-0.1306,0.4057,-0.0154,-0.0368,0.0277,4523,2019-08-07 16:52:28:409
-4.7612,-7.5177,2.545,-0.5636,-0.1306,0.4057,-0.0154,-0.0368,0.0277,4528,2019-08-07 16:52:28:414
-4.7612,-7.5177,2.545,-0.5636,-0.1306,0.4057,-0.0133,0.0452,0.0234,4533,2019-08-07 16:52:28:419
-4.7612,-7.5177,2.545,-0.5078,-0.1977,0.3502,-0.0133,0.0452,0.0234,4537,2019-08-07 16:52:28:423
-4.8186,-7.5225,2.6392,-0.5078,-0.1977,0.3502,-0.0154,0.0963,0.0203,4543,2019-08-07 16:52:28:429
-4.8186,-7.5225,2.6392,-0.5078,-0.1977,0.3502,-0.0154,0.0963,0.0203,4548,2019-08-07 16:52:28:434
-4.8186,-7.5225,2.6392,-0.5078,-0.1977,0.3502,-0.0143,0.1517,0.0128,4553,2019-08-07 16:52:28:439
-5.1057,-7.4795,2.6581,-0.5078,-0.1977,0.3502,-0.0143,0.1517,0.0128,4557,2019-08-07 16:52:28:443
-5.1057,-7.4795,2.6581,-0.1629,-0.2312,0.258,-0.0069,0.1496,0.0085,4564,2019-08-07 16:52:28:450
-5.2875,-7.5607,2.7618,-0.1629,-0.2312,0.258,-0.0069,0.1496,0.0085,4567,2019-08-07 16:52:28:453
-5.2875,-7.5607,2.7618,-0.1629,-0.2312,0.258,-0.0111,0.1049,0.0128,4573,2019-08-07 16:52:28:459
-5.2875,-7.5607,2.7618,-0.1629,-0.2312,0.258,-0.0111,0.1049,0.0128,4578,2019-08-07 16:52:28:464
-5.3449,-7.5416,2.7618,0.0326,-0.1825,0.1284,-0.0133,0.0612,0.0171,4583,2019-08-07 16:52:28:469
-5.3449,-7.5416,2.7618,0.0326,-0.1825,0.1284,-0.0133,0.0612,0.0171,4588,2019-08-07 16:52:28:474
-5.2253,-7.5082,2.7382,0.0326,-0.1825,0.1284,-0.0133,0.0612,0.0171,4593,2019-08-07 16:52:28:479
-5.2253,-7.5082,2.7382,-0.1396,-0.2193,0.1422,-0.0069,-0.0038,0.0149,4598,2019-08-07 16:52:28:484
-5.1057,-7.5273,2.7288,-0.1396,-0.2193,0.1422,-0.0058,-0.0304,0.0256,4603,2019-08-07 16:52:28:489
-5.1057,-7.5273,2.7288,-0.1396,-0.2193,0.1422,-0.0058,-0.0304,0.0256,4608,2019-08-07 16:52:28:494
-5.1057,-7.5273,2.7288,-0.1396,-0.2193,0.1422,-0.0037,-0.0304,0.0256,4614,2019-08-07 16:52:28:500
-4.9526,-7.6084,2.5685,-0.1396,-0.2193,0.1422,-0.0037,-0.0304,0.0256,4617,2019-08-07 16:52:28:503
-4.9526,-7.6084,2.5685,-0.38,-0.1464,0.2521,-0.0037,-0.0304,0.0256,4623,2019-08-07 16:52:28:509
-4.9526,-7.6084,2.5685,-0.38,-0.1464,0.2521,6.0E-4,-0.0251,0.0234,4628,2019-08-07 16:52:28:514
-4.9621,-7.5655,2.5827,-0.38,-0.1464,0.2521,6.0E-4,-0.0251,0.0234,4632,2019-08-07 16:52:28:518
-4.9621,-7.5655,2.5827,-0.362,-0.1212,0.277,0.0123,-0.0027,0.0203,4638,2019-08-07 16:52:28:524
-4.9813,-7.5511,2.6298,-0.362,-0.1212,0.277,0.0123,-0.0027,0.0203,4643,2019-08-07 16:52:28:529
-4.9813,-7.5511,2.6298,-0.362,-0.1212,0.277,0.0155,0.0026,0.0192,4648,2019-08-07 16:52:28:534
-4.9813,-7.5511,2.6298,-0.362,-0.1212,0.277,0.0155,0.0026,0.0192,4653,2019-08-07 16:52:28:539
-4.9813,-7.4938,2.6251,-0.362,-0.1212,0.277,0.0155,0.0026,0.0192,4657,2019-08-07 16:52:28:543
-4.9813,-7.4938,2.6251,-0.3022,-0.2579,0.2915,0.0123,0.0218,0.0181,4663,2019-08-07 16:52:28:549
-5.0196,-7.4652,2.6628,-0.3022,-0.2579,0.2915,0.0123,0.0218,0.0181,4667,2019-08-07 16:52:28:553
-5.0196,-7.4652,2.6628,-0.3022,-0.2579,0.2915,0.0038,0.0484,0.0171,4673,2019-08-07 16:52:28:559
-5.0196,-7.4652,2.6628,-0.3022,-0.2579,0.2915,0.0038,0.0484,0.0171,4679,2019-08-07 16:52:28:565
-5.0483,-7.4461,2.6769,-0.2786,-0.2704,0.2067,-0.0069,0.0505,0.0203,4682,2019-08-07 16:52:28:568
-5.0483,-7.4461,2.6769,-0.2786,-0.2704,0.2067,-0.0069,0.0505,0.0203,4688,2019-08-07 16:52:28:574
-5.1105,-7.4795,2.6911,-0.2786,-0.2704,0.2067,-0.0069,0.0303,0.0234,4693,2019-08-07 16:52:28:579
-5.1105,-7.4795,2.6911,-0.2786,-0.2704,0.2067,-0.0069,0.0303,0.0234,4698,2019-08-07 16:52:28:584
-5.1105,-7.4795,2.6911,-0.2458,-0.2638,0.1592,-0.0058,0.0122,0.0298,4702,2019-08-07 16:52:28:588
-5.1535,-7.4747,2.6062,-0.2458,-0.2638,0.1592,-0.0058,0.0122,0.0298,4708,2019-08-07 16:52:28:594
-5.1535,-7.4747,2.6062,-0.196,-0.2433,0.2755,-0.0026,0.0165,0.0362,4713,2019-08-07 16:52:28:599
-5.1535,-7.4747,2.6062,-0.196,-0.2433,0.2755,-0.0026,0.0165,0.0362,4718,2019-08-07 16:52:28:604
-5.1966,-7.47,2.611,-0.196,-0.2433,0.2755,-0.0015,0.0165,0.0373,4723,2019-08-07 16:52:28:609
-5.1966,-7.47,2.611,-0.196,-0.2433,0.2755,-0.0015,0.0165,0.0373,4727,2019-08-07 16:52:28:613
-5.1966,-7.47,2.611,-0.0976,-0.2063,0.1925,-0.0069,-0.0059,0.0394,4733,2019-08-07 16:52:28:619
-5.2014,-7.5129,2.7618,-0.0976,-0.2063,0.1925,-0.0069,-0.0059,0.0394,4738,2019-08-07 16:52:28:624
-5.2014,-7.5129,2.7618,-0.0976,-0.2063,0.1925,-0.0069,-0.0059,0.0394,4743,2019-08-07 16:52:28:629
-5.1922,-7.5415,2.7758,-0.0976,-0.2063,0.1925,-0.0015,-0.0208,0.0362,4748,2019-08-07 16:52:28:634
-5.1922,-7.5415,2.7758,-0.2835,-0.1742,0.1414,0.0112,-0.0144,0.032,4753,2019-08-07 16:52:28:639
-5.1922,-7.5415,2.7758,-0.2835,-0.1742,0.1414,0.0112,-0.0144,0.032,4758,2019-08-07 16:52:28:644
-5.0774,-7.5606,2.7381,-0.3187,-0.1344,0.1428,0.0251,0.0197,0.0288,4763,2019-08-07 16:52:28:649
-5.0774,-7.5606,2.7381,-0.3187,-0.1344,0.1428,0.0251,0.0197,0.0288,4768,2019-08-07 16:52:28:654
-5.1396,-7.6036,2.7146,-0.3187,-0.1344,0.1428,0.0251,0.0197,0.0288,4773,2019-08-07 16:52:28:659
-5.1396,-7.6036,2.7146,-0.3187,-0.1344,0.1428,0.0261,0.0505,0.0139,4778,2019-08-07 16:52:28:664
-5.331,-7.5224,2.8607,-0.0748,-0.1599,0.0854,0.0261,0.0505,0.0139,4783,2019-08-07 16:52:28:669
-5.331,-7.5224,2.8607,-0.0748,-0.1599,0.0854,0.0304,0.041,0.0011,4789,2019-08-07 16:52:28:675
-5.331,-7.5224,2.8607,0.0288,-0.2206,-0.032,0.0304,0.041,0.0011,4792,2019-08-07 16:52:28:678
-5.3358,-7.4365,2.922,0.0288,-0.2206,-0.032,0.0411,-0.0027,-0.0074,4798,2019-08-07 16:52:28:684
-5.3358,-7.4365,2.922,0.0288,-0.2206,-0.032,0.0411,-0.0027,-0.0074,4803,2019-08-07 16:52:28:689
-5.3358,-7.4365,2.922,0.0288,-0.2206,-0.032,0.0411,-0.04,-0.0096,4808,2019-08-07 16:52:28:694
-5.2688,-7.3935,2.7994,-0.0943,-0.2708,0.1699,0.0411,-0.04,-0.0096,4813,2019-08-07 16:52:28:699
-5.2688,-7.3935,2.7994,-0.0943,-0.2708,0.1699,0.0336,-0.0581,-0.0117,4817,2019-08-07 16:52:28:703
-5.1396,-7.3935,2.8136,-0.0943,-0.2708,0.1699,0.0336,-0.0581,-0.0117,4823,2019-08-07 16:52:28:709
-5.1396,-7.3935,2.8136,-0.0943,-0.2708,0.1699,0.0293,-0.0613,-0.0138,4828,2019-08-07 16:52:28:714
-5.1205,-7.3649,2.8088,-0.2421,-0.3274,0.0212,0.0293,-0.0613,-0.0138,4834,2019-08-07 16:52:28:720
-5.1205,-7.3649,2.8088,-0.2421,-0.3274,0.0212,0.0293,-0.0613,-0.0138,4837,2019-08-07 16:52:28:723
-5.1205,-7.3649,2.8088,-0.2421,-0.3274,0.0212,0.023,-0.0443,-0.0043,4843,2019-08-07 16:52:28:729
-5.1205,-7.3649,2.8088,-0.2421,-0.3274,0.0212,0.023,-0.0443,-0.0043,4848,2019-08-07 16:52:28:734
-5.0344,-7.4174,2.7051,-0.2385,-0.2888,0.2081,0.0176,-0.0155,-0.0032,4853,2019-08-07 16:52:28:739
-5.0344,-7.4174,2.7051,-0.2385,-0.2888,0.2081,0.0176,-0.0155,-0.0032,4858,2019-08-07 16:52:28:744
-5.0344,-7.4174,2.7051,-0.2385,-0.2888,0.2081,0.0176,-0.0155,-0.0032,4863,2019-08-07 16:52:28:749
-5.0727,-7.4222,2.7334,-0.2385,-0.2888,0.2081,0.0112,-0.0017,-0.0085,4868,2019-08-07 16:52:28:754
-5.0727,-7.4222,2.7334,-0.2895,-0.2939,0.1536,0.0112,-0.0017,-0.0085,4873,2019-08-07 16:52:28:759
-5.044,-7.3983,2.7711,-0.2895,-0.2939,0.1536,0.007,0.0079,-0.0138,4878,2019-08-07 16:52:28:764
-5.044,-7.3983,2.7711,-0.2895,-0.2939,0.1536,0.007,0.0079,-0.0138,4884,2019-08-07 16:52:28:770
-5.044,-7.3983,2.7711,-0.2895,-0.2939,0.1536,0.007,0.0111,-0.0202,4888,2019-08-07 16:52:28:774
-5.1349,-7.4556,2.757,-0.2441,-0.2479,0.1863,0.007,0.0111,-0.0202,4893,2019-08-07 16:52:28:779
-5.1349,-7.4556,2.757,-0.2441,-0.2479,0.1863,0.007,-0.0049,-0.0234,4898,2019-08-07 16:52:28:784
-5.1349,-7.4556,2.757,-0.2441,-0.2479,0.1863,0.007,-0.0049,-0.0234,4903,2019-08-07 16:52:28:789
-5.0488,-7.4461,2.7523,-0.2441,-0.2479,0.1863,0.007,-0.0049,-0.0234,4908,2019-08-07 16:52:28:794
-5.0488,-7.4461,2.7523,-0.2441,-0.2479,0.1863,0.0048,-0.0272,-0.0213,4913,2019-08-07 16:52:28:799
-4.9866,-7.384,2.7758,-0.3208,-0.3076,0.1978,0.0048,-0.0272,-0.0213,4918,2019-08-07 16:52:28:804
-4.9866,-7.384,2.7758,-0.3208,-0.3076,0.1978,0.0027,-0.0464,-0.0224,4923,2019-08-07 16:52:28:809
-4.9866,-7.384,2.7758,-0.3208,-0.3076,0.1978,0.0027,-0.0464,-0.0224,4928,2019-08-07 16:52:28:814
-4.9531,-7.3744,2.6108,-0.3768,-0.3292,0.3016,-0.0026,-0.0539,-0.0064,4933,2019-08-07 16:52:28:819
-4.9531,-7.3744,2.6108,-0.3768,-0.3292,0.3016,-0.0026,-0.0539,-0.0064,4938,2019-08-07 16:52:28:824
-4.9531,-7.3744,2.6108,-0.3768,-0.3292,0.3016,-0.0367,-0.1007,0.0011,4943,2019-08-07 16:52:28:829
-5.4794,-7.3458,2.2196,-0.3768,-0.3292,0.3016,-0.0367,-0.1007,0.0011,4947,2019-08-07 16:52:28:833
-5.4794,-7.3458,2.2196,-0.3673,-0.2466,-0.3916,-0.058,-0.0634,0.0128,4953,2019-08-07 16:52:28:839
-5.4794,-7.3458,2.2196,-0.3673,-0.2466,-0.3916,-0.058,-0.0634,0.0128,4959,2019-08-07 16:52:28:845
-4.934,-7.532,2.6674,-0.3673,-0.2466,-0.3916,0.007,-0.1337,0.0107,4963,2019-08-07 16:52:28:849
-4.934,-7.532,2.6674,-0.3673,-0.2466,-0.3916,0.007,-0.1337,0.0107,4968,2019-08-07 16:52:28:854
-4.934,-7.532,2.6674,-0.3673,-0.2466,-0.3916,0.007,-0.1337,0.0107,4972,2019-08-07 16:52:28:858
-5.068,-7.4365,2.5071,-0.2516,-0.271,0.4138,-0.0069,-0.0954,0.0107,4978,2019-08-07 16:52:28:864
-5.068,-7.4365,2.5071,-0.2516,-0.271,0.4138,-0.0069,-0.0954,0.0107,4982,2019-08-07 16:52:28:868
-4.9866,-7.3028,2.592,-0.2516,-0.271,0.4138,-0.0122,-0.0645,0.0181,4988,2019-08-07 16:52:28:874
-4.9866,-7.3028,2.592,-0.2516,-0.271,0.4138,-0.0122,-0.0645,0.0181,4993,2019-08-07 16:52:28:879
-5.0201,-7.4031,2.7381,-0.3118,-0.2993,0.2205,0.0123,-0.0262,0.0,4998,2019-08-07 16:52:28:884
-5.0201,-7.4031,2.7381,-0.3118,-0.2993,0.2205,0.0123,-0.0262,0.0,5003,2019-08-07 16:52:28:889
-5.0201,-7.4031,2.7381,-0.3118,-0.2993,0.2205,0.0549,0.0431,-0.0064,5007,2019-08-07 16:52:28:893
-4.6852,-7.4842,2.7522,-0.6982,-0.184,0.2104,0.0549,0.0431,-0.0064,5013,2019-08-07 16:52:28:899
-4.6852,-7.4842,2.7522,-0.6982,-0.184,0.2104,0.0549,0.0431,-0.0064,5017,2019-08-07 16:52:28:903
-4.6852,-7.4842,2.7522,-0.6982,-0.184,0.2104,0.1092,0.1912,-0.0213,5023,2019-08-07 16:52:28:909
-4.9149,-7.341,2.5354,-0.6982,-0.184,0.2104,0.0698,0.2135,-0.0085,5029,2019-08-07 16:52:28:915
-4.9149,-7.341,2.5354,-0.1185,-0.3721,0.4279,0.0698,0.2135,-0.0085,5033,2019-08-07 16:52:28:919
-5.2928,-7.3219,2.625,-0.1185,-0.3721,0.4279,0.0698,0.2135,-0.0085,5037,2019-08-07 16:52:28:923
-5.2928,-7.3219,2.625,-0.1185,-0.3721,0.4279,-0.0037,0.189,-0.0011,5043,2019-08-07 16:52:28:929
-5.2928,-7.3219,2.625,-0.1185,-0.3721,0.4279,-0.0037,0.189,-0.0011,5048,2019-08-07 16:52:28:934
-5.379,-7.3362,3.1058,-0.1185,-0.3721,0.4279,0.008,0.091,-0.0021,5052,2019-08-07 16:52:28:938
-5.379,-7.3362,3.1058,0.0624,-0.323,-0.224,0.008,0.091,-0.0021,5058,2019-08-07 16:52:28:944
-5.3838,-7.4795,3.0115,0.0624,-0.323,-0.224,0.0198,0.0101,0.0011,5063,2019-08-07 16:52:28:949
-5.3838,-7.4795,3.0115,0.0624,-0.323,-0.224,0.0198,0.0101,0.0011,5067,2019-08-07 16:52:28:953
-5.3838,-7.4795,3.0115,0.0624,-0.323,-0.224,0.0048,-0.0453,0.0117,5073,2019-08-07 16:52:28:959