ACCELEROMETER X (m/s²),ACCELEROMETER Y (m/s²),ACCELEROMETER Z (m/s²),LINEAR ACCELERATION X (m/s²),LINEAR ACCELERATION Y (m/s²),LINEAR ACCELERATION Z (m/s²),GYROSCOPE X (rad/s),GYROSCOPE Y (rad/s),GYROSCOPE Z (rad/s),Time since start in ms ,YYYY-MO-DD HH-MI-SS_SSS
-6.2278,-6.1426,3.5107,-0.2207,-0.2914,0.218,0.0134,0.0122,0.0096,4,2019-08-07 16:54:13:741
-6.2087,-6.1903,3.407,-0.2207,-0.2914,0.218,0.0134,0.0122,0.0096,8,2019-08-07 16:54:13:745
-6.2087,-6.1903,3.407,-0.2207,-0.2914,0.218,0.0144,0.0143,0.0032,14,2019-08-07 16:54:13:751
-6.2182,-6.1951,3.4589,-0.2207,-0.2914,0.218,0.0144,0.0143,0.0032,19,2019-08-07 16:54:13:756
-6.2182,-6.1951,3.4589,-0.213,-0.3421,0.1189,0.0144,0.0143,0.0032,23,2019-08-07 16:54:13:760
-6.2182,-6.1951,3.4589,-0.213,-0.3421,0.1189,0.0166,0.0122,0.0011,29,2019-08-07 16:54:13:766
-6.2182,-6.1331,3.4966,-0.213,-0.3421,0.1189,0.0166,0.0122,0.0011,33,2019-08-07 16:54:13:770
-6.1799,-6.1331,3.4966,-0.2566,-0.3269,0.1195,0.0155,0.0015,0.0011,39,2019-08-07 16:54:13:776
-6.1799,-6.1331,3.4966,-0.2566,-0.3269,0.1195,0.0155,0.0015,0.0011,43,2019-08-07 16:54:13:780
-6.0986,-6.176,3.4212,-0.2566,-0.3269,0.1195,0.0176,0.0015,0.0032,49,2019-08-07 16:54:13:786
-6.0986,-6.176,3.4212,-0.3,-0.3065,0.2437,0.0176,0.0015,0.0032,53,2019-08-07 16:54:13:790
-6.1129,-6.1521,3.407,-0.3,-0.3065,0.2437,0.0155,0.0218,0.0117,59,2019-08-07 16:54:13:796
-6.1129,-6.1521,3.407,-0.3,-0.3065,0.2437,0.0155,0.0218,0.0117,64,2019-08-07 16:54:13:801
-6.1129,-6.1521,3.407,-0.3,-0.3065,0.2437,0.0155,0.0218,0.0117,70,2019-08-07 16:54:13:807
-6.2086,-6.0901,3.4589,-0.2696,-0.3326,0.0779,0.0176,0.0292,0.0064,74,2019-08-07 16:54:13:811
-6.2086,-6.0901,3.4589,-0.2696,-0.3326,0.0779,0.0176,0.0292,0.0064,79,2019-08-07 16:54:13:816
-6.2277,-6.1044,3.4966,-0.2696,-0.3326,0.0779,0.0198,0.0133,0.0074,84,2019-08-07 16:54:13:821
-6.2277,-6.1044,3.4966,-0.2696,-0.3326,0.0779,0.0198,0.0133,0.0074,89,2019-08-07 16:54:13:826
-6.2277,-6.1044,3.4966,-0.2818,-0.3487,0.1871,0.0166,-0.007,0.0117,94,2019-08-07 16:54:13:831
-6.1273,-6.114,3.5108,-0.2818,-0.3487,0.1871,0.0166,-0.007,0.0117,99,2019-08-07 16:54:13:836
-6.1273,-6.114,3.5108,-0.2818,-0.3487,0.1871,0.0208,-0.0059,0.0192,104,2019-08-07 16:54:13:841
-6.0507,-6.1235,3.4778,-0.2818,-0.3487,0.1871,0.0208,-0.0059,0.0192,110,2019-08-07 16:54:13:847
-6.0507,-6.1235,3.4778,-0.4078,-0.2975,0.2328,0.023,0.0047,0.0234,114,2019-08-07 16:54:13:851
-6.0507,-6.1235,3.4778,-0.4078,-0.2975,0.2328,0.023,0.0047,0.0234,119,2019-08-07 16:54:13:856
-6.0937,-6.1378,3.4919,-0.4078,-0.2975,0.2328,0.0219,0.0175,0.0224,124,2019-08-07 16:54:13:861
-6.0937,-6.1378,3.4919,-0.4078,-0.2975,0.2328,0.0219,0.0175,0.0224,129,2019-08-07 16:54:13:866
-6.1942,-6.0615,3.5296,-0.2541,-0.3832,0.0929,0.0272,0.0143,0.0288,134,2019-08-07 16:54:13:871
-6.1942,-6.0615,3.5296,-0.2541,-0.3832,0.0929,0.0272,0.0143,0.0288,139,2019-08-07 16:54:13:876
-6.1942,-6.0615,3.5296,-0.2541,-0.3832,0.0929,0.0251,-0.0038,0.0362,144,2019-08-07 16:54:13:881
-6.1703,-6.0567,3.5108,-0.2541,-0.3832,0.0929,0.0251,-0.0038,0.0362,149,2019-08-07 16:54:13:886
-6.1703,-6.0567,3.5108,-0.3495,-0.3527,0.172,0.0251,-0.0038,0.0362,154,2019-08-07 16:54:13:891
-6.1703,-6.0567,3.5108,-0.3495,-0.3527,0.172,0.0198,-0.0166,0.0373,159,2019-08-07 16:54:13:896
-6.0507,-6.0805,3.4825,-0.3495,-0.3527,0.172,0.0198,-0.0166,0.0373,164,2019-08-07 16:54:13:901
-6.0507,-6.0805,3.4825,-0.3495,-0.3527,0.172,0.0208,-0.0187,0.0458,169,2019-08-07 16:54:13:906
-6.0028,-6.1378,3.4919,-0.411,-0.317,0.1726,0.0208,-0.0187,0.0458,174,2019-08-07 16:54:13:911
-6.0028,-6.1378,3.4919,-0.411,-0.317,0.1726,0.023,-0.0134,0.0533,179,2019-08-07 16:54:13:916
-6.0028,-6.1378,3.4919,-0.411,-0.317,0.1726,0.023,-0.0134,0.0533,185,2019-08-07 16:54:13:922
-6.0793,-6.0853,3.4872,-0.411,-0.317,0.1726,0.023,-0.0134,0.0533,189,2019-08-07 16:54:13:926
-6.0793,-6.0853,3.4872,-0.411,-0.317,0.1726,0.0251,0.0133,0.0575,193,2019-08-07 16:54:13:930
-6.2181,-6.0519,3.5485,-0.246,-0.4032,0.1102,0.0251,0.0133,0.0575,199,2019-08-07 16:54:13:936
-6.2181,-6.0519,3.5485,-0.246,-0.4032,0.1102,0.024,0.0047,0.0618,204,2019-08-07 16:54:13:941
-6.2181,-6.0519,3.5485,-0.246,-0.4032,0.1102,0.024,0.0047,0.0618,209,2019-08-07 16:54:13:946
-6.3472,-6.0567,3.4825,-0.246,-0.4032,0.1102,0.0176,-0.0059,0.0586,214,2019-08-07 16:54:13:951
-6.3472,-6.0567,3.4825,-0.1349,-0.3167,0.1694,0.0176,-0.0059,0.0586,219,2019-08-07 16:54:13:956
-6.4046,-6.071,3.4919,-0.1349,-0.3167,0.1694,0.0144,-0.007,0.0437,223,2019-08-07 16:54:13:960
-6.4046,-6.071,3.4919,-0.1349,-0.3167,0.1694,0.0144,-0.007,0.0437,229,2019-08-07 16:54:13:966
-6.4046,-6.071,3.4919,-0.1349,-0.3167,0.1694,0.0155,0.0015,0.033,234,2019-08-07 16:54:13:971
-6.419,-6.1331,3.4778,-0.0596,-0.2713,0.1619,0.0155,0.0015,0.033,239,2019-08-07 16:54:13:976
-6.419,-6.1331,3.4778,-0.0596,-0.2713,0.1619,0.0038,0.0133,0.0224,244,2019-08-07 16:54:13:981
-6.352,-6.1808,3.4307,-0.0596,-0.2713,0.1619,0.0038,0.0133,0.0224,249,2019-08-07 16:54:13:986
-6.352,-6.1808,3.4307,-0.0596,-0.2713,0.1619,6.0E-4,0.0229,0.0011,254,2019-08-07 16:54:13:991
-6.352,-6.1808,3.4307,-0.1735,-0.2211,0.1831,6.0E-4,0.0229,0.0011,259,2019-08-07 16:54:13:996
-6.2802,-6.2381,3.4731,-0.1735,-0.2211,0.1831,6.0E-4,0.0367,-0.0107,264,2019-08-07 16:54:14:001
-6.2802,-6.2381,3.4731,-0.1735,-0.2211,0.1831,6.0E-4,0.0367,-0.0107,268,2019-08-07 16:54:14:005
-6.2706,-6.2858,3.4825,-0.1735,-0.2211,0.1831,0.0027,0.041,-0.0192,274,2019-08-07 16:54:14:011
-6.2706,-6.2858,3.4825,-0.2513,-0.1942,0.2061,0.0027,0.041,-0.0192,278,2019-08-07 16:54:14:015
-6.2706,-6.2858,3.4825,-0.2513,-0.1942,0.2061,0.0027,0.0378,-0.0213,284,2019-08-07 16:54:14:021
-6.2323,-6.2333,3.5061,-0.2513,-0.1942,0.2061,0.0027,0.0378,-0.0213,289,2019-08-07 16:54:14:026
-6.2323,-6.2333,3.5061,-0.2513,-0.1942,0.2061,0.0048,0.0197,-0.016,294,2019-08-07 16:54:14:031
-6.2084,-6.219,3.5532,-0.2366,-0.2111,0.1267,0.0048,0.0197,-0.016,299,2019-08-07 16:54:14:036
-6.2084,-6.219,3.5532,-0.2366,-0.2111,0.1267,0.008,-0.0038,-0.0128,303,2019-08-07 16:54:14:040
-6.2084,-6.219,3.5532,-0.2366,-0.2111,0.1267,0.008,-0.0038,-0.0128,309,2019-08-07 16:54:14:046
-6.1414,-6.1713,3.5344,-0.2366,-0.2111,0.1267,0.0059,-0.0272,-0.0064,314,2019-08-07 16:54:14:051
-6.1414,-6.1713,3.5344,-0.3297,-0.2602,0.143,0.0059,-0.0272,-0.0064,319,2019-08-07 16:54:14:056
-6.1414,-6.1713,3.5344,-0.3297,-0.2602,0.143,0.0059,-0.0272,-0.0064,324,2019-08-07 16:54:14:061
-6.0936,-6.1904,3.5014,-0.371,-0.2414,0.1693,0.0091,-0.0347,0.0,328,2019-08-07 16:54:14:065
-6.0936,-6.1904,3.5014,-0.371,-0.2414,0.1693,0.0091,-0.0347,0.0,334,2019-08-07 16:54:14:071
-6.0409,-6.1569,3.4401,-0.371,-0.2414,0.1693,0.0091,-0.0347,0.0,339,2019-08-07 16:54:14:076
-6.0409,-6.1569,3.4401,-0.371,-0.2414,0.1693,0.0155,-0.0219,0.0053,344,2019-08-07 16:54:14:081
-6.0409,-6.1569,3.4401,-0.388,-0.25,0.1371,0.0155,-0.0219,0.0053,349,2019-08-07 16:54:14:086
-6.0744,-6.1808,3.5297,-0.388,-0.25,0.1371,0.0166,-0.0048,0.0021,353,2019-08-07 16:54:14:090
-6.0744,-6.1808,3.5297,-0.388,-0.25,0.1371,0.0166,-0.0048,0.0021,359,2019-08-07 16:54:14:096
-6.1366,-6.1044,3.492,-0.388,-0.25,0.1371,0.023,0.0111,0.0032,364,2019-08-07 16:54:14:101
-6.1366,-6.1044,3.492,-0.312,-0.296,0.1581,0.023,0.0111,0.0032,369,2019-08-07 16:54:14:106
-6.1366,-6.1044,3.492,-0.312,-0.296,0.1581,0.0219,0.0197,0.0,373,2019-08-07 16:54:14:110
-6.1701,-6.0997,3.4401,-0.312,-0.296,0.1581,0.0219,0.0197,0.0,379,2019-08-07 16:54:14:116
-6.1701,-6.0997,3.4401,-0.312,-0.296,0.1581,0.0198,0.026,-0.0011,384,2019-08-07 16:54:14:121
-6.1701,-6.0997,3.4401,-0.2946,-0.3182,0.1438,0.0198,0.026,-0.0011,388,2019-08-07 16:54:14:125
-6.194,-6.1188,3.4872,-0.2946,-0.3182,0.1438,0.0166,0.025,0.0021,394,2019-08-07 16:54:14:131
-6.194,-6.1188,3.4872,-0.2946,-0.3182,0.1438,0.0166,0.025,0.0021,398,2019-08-07 16:54:14:135
-6.2035,-6.1283,3.5061,-0.2946,-0.3182,0.1438,0.0166,0.025,0.0021,404,2019-08-07 16:54:14:141
-6.2035,-6.1283,3.5061,-0.2393,-0.2591,0.0725,0.0198,0.0186,0.0064,408,2019-08-07 16:54:14:145
-6.2035,-6.1283,3.5061,-0.2393,-0.2591,0.0725,0.0198,0.0186,0.0064,414,2019-08-07 16:54:14:151
-6.2227,-6.1426,3.5721,-0.2393,-0.2591,0.0725,0.0208,0.0133,0.0106,418,2019-08-07 16:54:14:155
-6.2227,-6.1426,3.5721,-0.2393,-0.2591,0.0725,0.0208,0.0133,0.0106,424,2019-08-07 16:54:14:161
-6.2227,-6.1188,3.5108,-0.2608,-0.2797,0.1306,0.0208,0.0037,0.0128,428,2019-08-07 16:54:14:165
-6.2227,-6.1188,3.5108,-0.2608,-0.2797,0.1306,0.0208,0.0037,0.0128,434,2019-08-07 16:54:14:171
-6.2227,-6.1188,3.5108,-0.2608,-0.2797,0.1306,0.023,-0.0038,0.0138,439,2019-08-07 16:54:14:176
-6.2035,-6.0663,3.5202,-0.2608,-0.2797,0.1306,0.023,-0.0038,0.0138,444,2019-08-07 16:54:14:181
-6.2035,-6.0663,3.5202,-0.2433,-0.3141,0.1675,0.0219,-0.0112,0.0106,449,2019-08-07 16:54:14:186
-6.2179,-6.0806,3.4967,-0.2433,-0.3141,0.1675,0.0219,-0.0112,0.0106,454,2019-08-07 16:54:14:191
-6.2179,-6.0806,3.4967,-0.2433,-0.3141,0.1675,0.0219,-0.0112,0.0106,458,2019-08-07 16:54:14:195
-6.2179,-6.0806,3.4967,-0.2433,-0.3141,0.1675,0.0187,-0.0112,0.0096,464,2019-08-07 16:54:14:201
-6.2131,-6.0853,3.4967,-0.249,-0.2967,0.1336,0.0187,-0.0112,0.0096,468,2019-08-07 16:54:14:205
-6.2131,-6.0853,3.4967,-0.249,-0.2967,0.1336,0.0198,-0.007,0.0021,473,2019-08-07 16:54:14:210
-6.1987,-6.0615,3.5155,-0.249,-0.2967,0.1336,0.0198,-0.007,0.0021,479,2019-08-07 16:54:14:216
-6.1987,-6.0615,3.5155,-0.249,-0.2967,0.1336,0.0187,0.0037,-0.0021,483,2019-08-07 16:54:14:220
-6.1987,-6.0615,3.5155,-0.3065,-0.3429,0.1738,0.0187,0.0037,-0.0021,489,2019-08-07 16:54:14:226
-6.2178,-6.0663,3.4071,-0.3065,-0.3429,0.1738,0.0155,0.0154,-0.0075,493,2019-08-07 16:54:14:230
-6.2178,-6.0663,3.4071,-0.3065,-0.3429,0.1738,0.0155,0.0154,-0.0075,499,2019-08-07 16:54:14:236
-6.2178,-6.0663,3.4071,-0.3065,-0.3429,0.1738,0.0123,0.0218,-0.0117,504,2019-08-07 16:54:14:241
-6.2752,-6.0281,3.5108,-0.3065,-0.3429,0.1738,0.0123,0.0218,-0.0117,509,2019-08-07 16:54:14:246
-6.2752,-6.0281,3.5108,-0.2591,-0.3286,0.1917,0.0123,0.0218,-0.0117,514,2019-08-07 16:54:14:251
-6.2082,-6.0949,3.5391,-0.2591,-0.3286,0.1917,0.0102,0.0292,-0.0171,519,2019-08-07 16:54:14:256
-6.2082,-6.0949,3.5391,-0.2591,-0.3286,0.1917,0.0102,0.0292,-0.0171,524,2019-08-07 16:54:14:261
-6.2082,-6.0949,3.5391,-0.1731,-0.3106,0.1049,0.0102,0.0207,-0.0192,529,2019-08-07 16:54:14:266
-6.28,-6.0472,3.5815,-0.1731,-0.3106,0.1049,0.0102,0.0207,-0.0192,534,2019-08-07 16:54:14:271
-6.28,-6.0472,3.5815,-0.1731,-0.3106,0.1049,0.0102,0.0122,-0.0128,539,2019-08-07 16:54:14:276
-6.213,-6.0567,3.6098,-0.1731,-0.3106,0.1049,0.0102,0.0122,-0.0128,544,2019-08-07 16:54:14:281
-6.213,-6.0567,3.6098,-0.1731,-0.3106,0.1049,0.0102,0.0037,-0.0096,549,2019-08-07 16:54:14:286
-6.213,-6.0567,3.6098,-0.2728,-0.3636,0.1102,0.0102,0.0037,-0.0096,553,2019-08-07 16:54:14:290
-6.2034,-6.0137,3.5156,-0.2728,-0.3636,0.1102,0.008,-0.0091,-0.0075,559,2019-08-07 16:54:14:296
-6.2034,-6.0137,3.5156,-0.2728,-0.3636,0.1102,0.008,-0.0091,-0.0075,564,2019-08-07 16:54:14:301
-6.1795,-6.0519,3.4731,-0.2728,-0.3636,0.1102,0.0027,-0.008,-0.0032,569,2019-08-07 16:54:14:306
-6.1795,-6.0519,3.4731,-0.3719,-0.3112,0.2303,0.0027,-0.008,-0.0032,573,2019-08-07 16:54:14:310
-6.1795,-6.0519,3.4731,-0.3719,-0.3112,0.2303,0.0038,-0.0048,-0.0021,579,2019-08-07 16:54:14:316
-6.1651,-6.0137,3.525,-0.3719,-0.3112,0.2303,0.0038,-0.0048,-0.0021,584,2019-08-07 16:54:14:321
-6.1651,-6.0137,3.525,-0.3719,-0.3112,0.2303,0.0048,0.0037,0.0011,588,2019-08-07 16:54:14:325
-6.146,-6.0138,3.4873,-0.3046,-0.3682,0.1702,0.0048,0.0037,0.0011,594,2019-08-07 16:54:14:331
-6.146,-6.0138,3.4873,-0.3046,-0.3682,0.1702,0.0048,0.0186,0.0,599,2019-08-07 16:54:14:336
-6.146,-6.0138,3.4873,-0.3046,-0.3682,0.1702,0.0048,0.0186,0.0,603,2019-08-07 16:54:14:340
-6.1603,-6.0281,3.5156,-0.3046,-0.3682,0.1702,0.0048,0.0186,0.0,609,2019-08-07 16:54:14:346
-6.1603,-6.0281,3.5156,-0.3109,-0.3342,0.1307,0.0027,0.0292,0.0,615,2019-08-07 16:54:14:352
-6.1747,-6.0328,3.492,-0.3109,-0.3342,0.1307,0.0027,0.0292,0.0,618,2019-08-07 16:54:14:355
-6.1747,-6.0328,3.492,-0.3109,-0.3342,0.1307,6.0E-4,0.0346,0.0021,623,2019-08-07 16:54:14:360
-6.1747,-6.0328,3.492,-0.3109,-0.3342,0.1307,6.0E-4,0.0346,0.0021,629,2019-08-07 16:54:14:366
-6.1842,-6.0901,3.5109,-0.3042,-0.3001,0.1362,0.0059,0.0324,0.0032,634,2019-08-07 16:54:14:371
-6.1842,-6.0901,3.5109,-0.3042,-0.3001,0.1362,0.0059,0.0324,0.0032,639,2019-08-07 16:54:14:376
-6.2225,-6.0806,3.4637,-0.3042,-0.3001,0.1362,0.0091,0.0133,0.0096,643,2019-08-07 16:54:14:380
-6.2225,-6.0806,3.4637,-0.3042,-0.3001,0.1362,0.0091,0.0133,0.0096,648,2019-08-07 16:54:14:385
-6.2225,-6.0806,3.4637,-0.2918,-0.2798,0.1349,0.008,-0.0017,0.0106,654,2019-08-07 16:54:14:391
-6.2129,-6.1092,3.5674,-0.2918,-0.2798,0.1349,0.008,-0.0017,0.0106,659,2019-08-07 16:54:14:396
-6.2129,-6.1092,3.5674,-0.2918,-0.2798,0.1349,0.007,-0.0144,0.0106,664,2019-08-07 16:54:14:401
-6.2129,-6.1092,3.5674,-0.2918,-0.2798,0.1349,0.007,-0.0144,0.0106,668,2019-08-07 16:54:14:405
-6.1938,-6.1188,3.5109,-0.3305,-0.2732,0.1138,0.007,-0.0144,0.0106,674,2019-08-07 16:54:14:411
-6.1938,-6.1188,3.5109,-0.3305,-0.2732,0.1138,0.0038,-0.024,0.0138,678,2019-08-07 16:54:14:415
-6.189,-6.1379,3.5014,-0.3305,-0.2732,0.1138,0.0038,-0.024,0.0138,684,2019-08-07 16:54:14:421
-6.189,-6.1379,3.5014,-0.3305,-0.2732,0.1138,0.0027,-0.0144,0.0138,688,2019-08-07 16:54:14:425
-6.0981,-6.1665,3.4684,-0.3926,-0.2192,0.1827,0.0027,-0.0144,0.0138,694,2019-08-07 16:54:14:431
-6.0981,-6.1665,3.4684,-0.3926,-0.2192,0.1827,0.0027,-0.0017,0.0075,699,2019-08-07 16:54:14:436
-6.0981,-6.1665,3.4684,-0.3926,-0.2192,0.1827,0.0027,-0.0017,0.0075,704,2019-08-07 16:54:14:441
-6.1363,-6.1904,3.4543,-0.3926,-0.2192,0.1827,0.0027,-0.0017,0.0075,709,2019-08-07 16:54:14:446
-6.1363,-6.1904,3.4543,-0.2881,-0.2618,0.1442,-5.0E-4,0.025,0.0021,714,2019-08-07 16:54:14:451
-6.232,-6.1617,3.5486,-0.2881,-0.2618,0.1442,-0.0047,0.0324,0.0,719,2019-08-07 16:54:14:456
-6.232,-6.1617,3.5486,-0.2881,-0.2618,0.1442,-0.0047,0.0324,0.0,723,2019-08-07 16:54:14:460
-6.232,-6.1617,3.5486,-0.2881,-0.2618,0.1442,-0.0047,0.0324,0.0,729,2019-08-07 16:54:14:466
-6.2894,-6.0949,3.5769,-0.2043,-0.291,0.0685,-0.0079,0.0303,-0.0053,733,2019-08-07 16:54:14:470
-6.2894,-6.0949,3.5769,-0.2043,-0.291,0.0685,-0.0079,0.0303,-0.0053,739,2019-08-07 16:54:14:476
-6.2894,-6.0949,3.5769,-0.2043,-0.291,0.0685,-0.0175,0.0186,-0.0128,744,2019-08-07 16:54:14:481
-6.3468,-6.0949,3.5344,-0.2043,-0.291,0.0685,-0.0175,0.0186,-0.0128,750,2019-08-07 16:54:14:487
-6.3468,-6.0949,3.5344,-0.1906,-0.3216,0.1015,-0.0175,0.0186,-0.0128,754,2019-08-07 16:54:14:491
-6.2942,-6.1283,3.4166,-0.1906,-0.3216,0.1015,-0.0218,0.0058,-0.0107,759,2019-08-07 16:54:14:496
-6.2942,-6.1283,3.4166,-0.1906,-0.3216,0.1015,-0.0218,0.0058,-0.0107,764,2019-08-07 16:54:14:501
-6.2942,-6.1283,3.4166,-0.1906,-0.3216,0.1015,-0.025,-0.0038,-0.017,769,2019-08-07 16:54:14:506
-6.275,-6.1236,3.4637,-0.2511,-0.2012,0.1924,-0.025,-0.0038,-0.017,773,2019-08-07 16:54:14:510
-6.275,-6.1236,3.4637,-0.2511,-0.2012,0.1924,-0.0218,-6.0E-4,-0.0224,779,2019-08-07 16:54:14:516
-6.165,-6.1808,3.4637,-0.2511,-0.2012,0.1924,-0.0218,-6.0E-4,-0.0224,784,2019-08-07 16:54:14:521
-6.165,-6.1808,3.4637,-0.2511,-0.2012,0.1924,-0.009,0.0101,-0.0224,788,2019-08-07 16:54:14:525
-6.165,-6.1808,3.4637,-0.3345,-0.2437,0.1425,-0.009,0.0101,-0.0224,794,2019-08-07 16:54:14:531
-6.1649,-6.1618,3.426,-0.3345,-0.2437,0.1425,-0.0047,0.0186,-0.0224,799,2019-08-07 16:54:14:536
-6.1649,-6.1618,3.426,-0.3345,-0.2437,0.1425,-0.0047,0.0186,-0.0224,804,2019-08-07 16:54:14:541
-6.1649,-6.1618,3.426,-0.3345,-0.2437,0.1425,-0.0047,0.0186,-0.0224,809,2019-08-07 16:54:14:546
-6.1602,-6.1618,3.4967,-0.3475,-0.2996,0.1483,6.0E-4,0.0303,-0.0224,814,2019-08-07 16:54:14:551
-6.1602,-6.1618,3.4967,-0.3475,-0.2996,0.1483,6.0E-4,0.0303,-0.0224,819,2019-08-07 16:54:14:556
-6.1888,-6.1188,3.4637,-0.3475,-0.2996,0.1483,0.0102,0.0271,-0.0181,824,2019-08-07 16:54:14:561
-6.1888,-6.1188,3.4637,-0.3475,-0.2996,0.1483,0.0102,0.0271,-0.0181,829,2019-08-07 16:54:14:566
-6.1888,-6.1188,3.4637,-0.3475,-0.2996,0.1483,0.0134,0.0228,-0.0192,833,2019-08-07 16:54:14:570
-6.2223,-6.1188,3.4873,-0.2658,-0.282,0.1417,0.0134,0.0228,-0.0192,839,2019-08-07 16:54:14:576
-6.2223,-6.1188,3.4873,-0.2658,-0.282,0.1417,0.0208,0.0101,-0.0202,844,2019-08-07 16:54:14:581
-6.2845,-6.0424,3.5627,-0.2658,-0.282,0.1417,0.0208,0.0101,-0.0202,849,2019-08-07 16:54:14:586
-6.2845,-6.0424,3.5627,-0.1881,-0.354,0.1243,0.0208,5.0E-4,-0.017,854,2019-08-07 16:54:14:591
-6.2845,-6.0424,3.5627,-0.1881,-0.354,0.1243,0.0208,5.0E-4,-0.017,858,2019-08-07 16:54:14:595
-6.2319,-6.0854,3.5816,-0.1881,-0.354,0.1243,0.0166,5.0E-4,-0.0213,864,2019-08-07 16:54:14:601
-6.2319,-6.0854,3.5816,-0.1881,-0.354,0.1243,0.0166,5.0E-4,-0.0213,869,2019-08-07 16:54:14:606
-6.2319,-6.0854,3.5816,-0.1881,-0.354,0.1243,0.0198,5.0E-4,-0.0224,873,2019-08-07 16:54:14:610
-6.2893,-6.0615,3.4732,-0.1955,-0.3402,0.1602,0.0198,5.0E-4,-0.0224,879,2019-08-07 16:54:14:616
-6.2893,-6.0615,3.4732,-0.1955,-0.3402,0.1602,0.0208,0.0122,-0.0224,885,2019-08-07 16:54:14:622
-6.2127,-6.0376,3.4685,-0.1955,-0.3402,0.1602,0.0208,0.0122,-0.0224,889,2019-08-07 16:54:14:626
-6.2127,-6.0376,3.4685,-0.1955,-0.3402,0.1602,0.0176,0.0228,-0.0245,894,2019-08-07 16:54:14:631
-6.2127,-6.0376,3.4685,-0.269,-0.3606,0.2224,0.0176,0.0228,-0.0245,899,2019-08-07 16:54:14:636
-6.2717,-6.0184,3.4493,-0.269,-0.3606,0.2224,0.0176,0.0228,-0.0245,903,2019-08-07 16:54:14:640
-6.2717,-6.0184,3.4493,-0.269,-0.3606,0.2224,0.0155,0.0292,-0.0266,909,2019-08-07 16:54:14:646
-6.2717,-6.0184,3.4493,-0.269,-0.3606,0.2224,0.0155,0.0292,-0.0266,913,2019-08-07 16:54:14:650
-6.243,-6.0661,3.5718,-0.2396,-0.3386,0.0602,0.0112,0.0314,-0.0277,919,2019-08-07 16:54:14:656
-6.243,-6.0661,3.5718,-0.2396,-0.3386,0.0602,0.0112,0.0314,-0.0277,923,2019-08-07 16:54:14:660
-6.2621,-5.9945,3.5718,-0.2396,-0.3386,0.0602,0.0038,0.0229,-0.0234,929,2019-08-07 16:54:14:666
-6.2621,-5.9945,3.5718,-0.2396,-0.3386,0.0602,0.0038,0.0229,-0.0234,933,2019-08-07 16:54:14:670
-6.2621,-5.9945,3.5718,-0.296,-0.4647,0.0868,-0.0026,0.0037,-0.0181,939,2019-08-07 16:54:14:676
-6.2095,-5.9802,3.5106,-0.296,-0.4647,0.0868,-0.0026,0.0037,-0.0181,944,2019-08-07 16:54:14:681
-6.2095,-5.9802,3.5106,-0.296,-0.4647,0.0868,-0.0079,-0.0123,-0.0096,950,2019-08-07 16:54:14:687
-6.0947,-5.9516,3.5106,-0.296,-0.4647,0.0868,-0.0079,-0.0123,-0.0096,954,2019-08-07 16:54:14:691
-6.0947,-5.9516,3.5106,-0.4185,-0.447,0.1725,-0.0079,-0.0123,-0.0096,959,2019-08-07 16:54:14:696
-6.0947,-5.9516,3.5106,-0.4185,-0.447,0.1725,-0.0101,-0.0187,-0.0011,964,2019-08-07 16:54:14:701
-6.0612,-5.9372,3.487,-0.4185,-0.447,0.1725,-0.0101,-0.0187,-0.0011,969,2019-08-07 16:54:14:706
-6.0612,-5.9372,3.487,-0.4185,-0.447,0.1725,-0.0143,-0.0027,0.0106,974,2019-08-07 16:54:14:711
-6.1139,-5.9134,3.4021,-0.3657,-0.5043,0.1634,-0.0143,-0.0027,0.0106,979,2019-08-07 16:54:14:716
-6.1139,-5.9134,3.4021,-0.3657,-0.5043,0.1634,-0.0111,0.0079,0.017,983,2019-08-07 16:54:14:720
-6.1139,-5.9134,3.4021,-0.3657,-0.5043,0.1634,-0.0111,0.0079,0.017,989,2019-08-07 16:54:14:726
-6.1521,-5.9181,3.454,-0.3657,-0.5043,0.1634,-0.0154,0.0122,0.0234,994,2019-08-07 16:54:14:731
-6.1521,-5.9181,3.454,-0.3262,-0.4352,0.1704,-0.0154,0.0122,0.0234,999,2019-08-07 16:54:14:736
-6.1952,-5.9802,3.4304,-0.3262,-0.4352,0.1704,-0.0143,0.0197,0.0287,1004,2019-08-07 16:54:14:741
-6.1952,-5.9802,3.4304,-0.3262,-0.4352,0.1704,-0.0143,0.0197,0.0287,1008,2019-08-07 16:54:14:745
-6.1952,-5.9802,3.4304,-0.3262,-0.4352,0.1704,-0.0143,0.026,0.0373,1014,2019-08-07 16:54:14:751
-6.1904,-5.9945,3.3644,-0.2988,-0.4079,0.2598,-0.0143,0.026,0.0373,1019,2019-08-07 16:54:14:756
-6.1904,-5.9945,3.3644,-0.2988,-0.4079,0.2598,-0.0143,0.026,0.0373,1024,2019-08-07 16:54:14:761
-6.2383,-6.0232,3.3833,-0.2549,-0.3769,0.2381,-0.0069,0.0335,0.0373,1029,2019-08-07 16:54:14:766
-6.2383,-6.0232,3.3833,-0.2549,-0.3769,0.2381,-0.0069,0.0335,0.0373,1034,2019-08-07 16:54:14:771
-6.2383,-6.0232,3.3833,-0.2549,-0.3769,0.2381,-5.0E-4,0.0442,0.0373,1039,2019-08-07 16:54:14:776
-6.3866,-6.0757,3.421,-0.2549,-0.3769,0.2381,-5.0E-4,0.0442,0.0373,1044,2019-08-07 16:54:14:781
-6.3866,-6.0757,3.421,-0.111,-0.352,0.1375,0.0038,0.0442,0.0405,1049,2019-08-07 16:54:14:786
-6.3866,-6.0757,3.421,-0.111,-0.352,0.1375,0.0038,0.0442,0.0405,1053,2019-08-07 16:54:14:790
-6.4105,-6.0757,3.4398,-0.111,-0.352,0.1375,0.0038,0.0442,0.0405,1059,2019-08-07 16:54:14:796
-6.4105,-6.0757,3.4398,-0.111,-0.352,0.1375,0.0102,0.0388,0.0447,1064,2019-08-07 16:54:14:801
-6.4105,-6.0757,3.4398,-0.1728,-0.245,0.1846,0.0102,0.0388,0.0447,1068,2019-08-07 16:54:14:805
-6.3675,-6.1282,3.3833,-0.1728,-0.245,0.1846,0.0134,0.0218,0.0362,1074,2019-08-07 16:54:14:811
-6.3675,-6.1282,3.3833,-0.1728,-0.245,0.1846,0.0134,0.0218,0.0362,1079,2019-08-07 16:54:14:816
-6.3292,-6.1186,3.4304,-0.1728,-0.245,0.1846,0.0144,0.0186,0.0319,1083,2019-08-07 16:54:14:820
-6.3292,-6.1186,3.4304,-0.2464,-0.2871,0.2157,0.0144,0.0186,0.0319,1089,2019-08-07 16:54:14:826
-6.2718,-6.0804,3.454,-0.2464,-0.2871,0.2157,0.0155,0.0239,0.0309,1094,2019-08-07 16:54:14:831
-6.2718,-6.0804,3.454,-0.2494,-0.2558,0.1586,0.0155,0.0239,0.0309,1099,2019-08-07 16:54:14:836
-6.2718,-6.0804,3.454,-0.2494,-0.2558,0.1586,0.0155,0.0239,0.0309,1104,2019-08-07 16:54:14:841
-6.2718,-6.0804,3.454,-0.2494,-0.2558,0.1586,0.0144,0.0335,0.0234,1109,2019-08-07 16:54:14:846
-6.2766,-6.1616,3.4917,-0.2474,-0.2153,0.1151,0.0144,0.0335,0.0234,1114,2019-08-07 16:54:14:851
-6.2766,-6.1616,3.4917,-0.2474,-0.2153,0.1151,0.007,0.025,0.017,1120,2019-08-07 16:54:14:857
-6.3053,-6.2046,3.6755,-0.2474,-0.2153,0.1151,0.007,0.025,0.017,1124,2019-08-07 16:54:14:861
-6.3053,-6.2046,3.6755,-0.155,-0.203,-0.1641,0.0048,0.009,0.0074,1129,2019-08-07 16:54:14:866
-6.3053,-6.2046,3.6755,-0.155,-0.203,-0.1641,0.0048,0.009,0.0074,1134,2019-08-07 16:54:14:871
-6.358,-6.0852,3.7698,-0.155,-0.203,-0.1641,0.0219,-0.0091,-0.0032,1139,2019-08-07 16:54:14:876
-6.358,-6.0852,3.7698,-0.155,-0.203,-0.1641,0.0219,-0.0091,-0.0032,1144,2019-08-07 16:54:14:881
-6.3006,-6.0279,3.5105,-0.226,-0.3442,0.1,0.0059,-0.0325,0.0042,1149,2019-08-07 16:54:14:886
-6.3006,-6.0279,3.5105,-0.226,-0.3442,0.1,0.0059,-0.0325,0.0042,1154,2019-08-07 16:54:14:891
-6.3006,-6.0279,3.5105,-0.226,-0.3442,0.1,0.0059,-0.0325,0.0042,1159,2019-08-07 16:54:14:896
-6.1666,-6.1473,3.3314,-0.359,-0.2248,0.281,-0.0111,-0.0251,-0.0021,1164,2019-08-07 16:54:14:901
-6.1666,-6.1473,3.3314,-0.359,-0.2248,0.281,-0.0111,-0.0251,-0.0021,1170,2019-08-07 16:54:14:907
-6.1666,-6.1473,3.3314,-0.359,-0.2248,0.281,-0.0069,-0.0144,-0.0288,1174,2019-08-07 16:54:14:911
-6.3293,-6.2141,3.5341,-0.178,-0.1711,0.1311,-0.0069,-0.0144,-0.0288,1180,2019-08-07 16:54:14:917
-6.3293,-6.2141,3.5341,-0.178,-0.1711,0.1311,-0.009,-0.0208,-0.0203,1184,2019-08-07 16:54:14:921
-6.181,-6.1186,3.5577,-0.178,-0.1711,0.1311,-0.009,-0.0208,-0.0203,1189,2019-08-07 16:54:14:926
-6.181,-6.1186,3.5577,-0.178,-0.1711,0.1311,-0.009,-0.0208,-0.0203,1193,2019-08-07 16:54:14:930
-6.181,-6.1186,3.5577,-0.178,-0.1711,0.1311,-0.0133,-0.0198,-0.0149,1199,2019-08-07 16:54:14:936
-6.181,-6.0995,3.3644,-0.3366,-0.2794,0.2504,-0.0133,-0.0198,-0.0149,1204,2019-08-07 16:54:14:941
-6.181,-6.0995,3.3644,-0.3366,-0.2794,0.2504,-0.025,0.0069,-0.0341,1208,2019-08-07 16:54:14:945
-6.3628,-6.0422,3.4068,-0.3366,-0.2794,0.2504,-0.041,0.0133,-0.0277,1214,2019-08-07 16:54:14:951
-6.3628,-6.0422,3.4068,-0.2239,-0.3233,0.1696,-0.041,0.0133,-0.0277,1219,2019-08-07 16:54:14:956
-6.3628,-6.0422,3.4068,-0.2239,-0.3233,0.1696,-0.041,0.0133,-0.0277,1224,2019-08-07 16:54:14:961
-6.291,-6.09,3.5058,-0.2239,-0.3233,0.1696,-0.0495,-6.0E-4,-0.0203,1228,2019-08-07 16:54:14:965
-6.291,-6.09,3.5058,-0.2082,-0.2548,0.0722,-0.0495,-6.0E-4,-0.0203,1234,2019-08-07 16:54:14:971
-6.291,-6.09,3.5058,-0.2082,-0.2548,0.0722,-0.0452,-0.024,-0.0277,1238,2019-08-07 16:54:14:975
-6.2336,-6.1329,3.487,-0.2082,-0.2548,0.0722,-0.0452,-0.024,-0.0277,1244,2019-08-07 16:54:14:981
-6.2336,-6.1329,3.487,-0.2082,-0.2548,0.0722,-0.0431,-0.0283,-0.0309,1249,2019-08-07 16:54:14:986
-6.2145,-6.1091,3.4398,-0.3084,-0.3235,0.1449,-0.0431,-0.0283,-0.0309,1253,2019-08-07 16:54:14:990
-6.2145,-6.1091,3.4398,-0.3084,-0.3235,0.1449,-0.0431,-0.0283,-0.0309,1258,2019-08-07 16:54:14:995
-6.2193,-5.985,3.4587,-0.2721,-0.413,0.1484,-0.0484,-0.0155,-0.032,1264,2019-08-07 16:54:15:001
-6.2193,-5.985,3.4587,-0.2721,-0.413,0.1484,-0.0484,-0.0155,-0.032,1269,2019-08-07 16:54:15:006
-6.2193,-5.985,3.4587,-0.2721,-0.413,0.1484,-0.0495,0.0069,-0.032,1273,2019-08-07 16:54:15:010
-6.2624,-6.09,3.3974,-0.2721,-0.413,0.1484,-0.0495,0.0069,-0.032,1279,2019-08-07 16:54:15:016
-6.2624,-6.09,3.3974,-0.2255,-0.2961,0.1939,-0.0463,0.0175,-0.0277,1284,2019-08-07 16:54:15:021
-6.2624,-6.09,3.3974,-0.2255,-0.2961,0.1939,-0.0463,0.0175,-0.0277,1289,2019-08-07 16:54:15:026
-6.3102,-6.0804,3.3644,-0.2255,-0.2961,0.1939,-0.042,0.0143,-0.0224,1294,2019-08-07 16:54:15:031
-6.3102,-6.0804,3.3644,-0.2255,-0.2961,0.1939,-0.042,0.0143,-0.0224,1300,2019-08-07 16:54:15:037
-6.3102,-6.09,3.4351,-0.2192,-0.2924,0.1861,-0.042,0.0143,-0.0224,1303,2019-08-07 16:54:15:040
-6.3102,-6.09,3.4351,-0.2192,-0.2924,0.1861,-0.0314,-0.0059,-0.0213,1309,2019-08-07 16:54:15:046
-6.3102,-6.09,3.4351,-0.2192,-0.2924,0.1861,-0.0314,-0.0059,-0.0213,1314,2019-08-07 16:54:15:051
-6.2672,-6.0613,3.4162,-0.2192,-0.2924,0.1861,-0.0292,-0.0208,-0.0139,1320,2019-08-07 16:54:15:057
-6.2672,-6.0613,3.4162,-0.2693,-0.3108,0.24,-0.0292,-0.0208,-0.0139,1323,2019-08-07 16:54:15:060
-6.2002,-6.0661,3.3832,-0.2693,-0.3108,0.24,-0.0239,-0.0112,-0.0096,1329,2019-08-07 16:54:15:066
-6.2002,-6.0661,3.3832,-0.2693,-0.3108,0.24,-0.0239,-0.0112,-0.0096,1333,2019-08-07 16:54:15:070
-6.2002,-6.0661,3.3832,-0.2693,-0.3108,0.24,-0.0186,0.0037,-0.0011,1339,2019-08-07 16:54:15:076
-6.1763,-6.0709,3.4068,-0.3211,-0.3463,0.1764,-0.0186,0.0037,-0.0011,1343,2019-08-07 16:54:15:080
-6.1763,-6.0709,3.4068,-0.3211,-0.3463,0.1764,-0.0133,-0.0048,0.0,1349,2019-08-07 16:54:15:086
-6.1524,-6.0756,3.4304,-0.3211,-0.3463,0.1764,-0.0133,-0.0048,0.0,1354,2019-08-07 16:54:15:091
-6.1524,-6.0756,3.4304,-0.3211,-0.3463,0.1764,-0.0133,-0.0048,0.0,1358,2019-08-07 16:54:15:095
-6.1524,-6.0756,3.4304,-0.3307,-0.3801,0.1004,-0.0101,-0.0155,0.0074,1364,2019-08-07 16:54:15:101
-6.1428,-6.047,3.4445,-0.3307,-0.3801,0.1004,-0.0101,-0.0155,0.0074,1369,2019-08-07 16:54:15:106
-6.1428,-6.047,3.4445,-0.3307,-0.3801,0.1004,-0.009,-0.0027,0.0128,1374,2019-08-07 16:54:15:111
-6.1189,-6.0375,3.4916,-0.3307,-0.3801,0.1004,-0.009,-0.0027,0.0128,1379,2019-08-07 16:54:15:116
-6.1189,-6.0375,3.4916,-0.3271,-0.3884,0.1286,-0.0122,-0.0038,0.0224,1384,2019-08-07 16:54:15:121
-6.1189,-6.0375,3.4916,-0.3271,-0.3884,0.1286,-0.0122,-0.0038,0.0224,1388,2019-08-07 16:54:15:125
-6.1859,-6.0804,3.4586,-0.3271,-0.3884,0.1286,-0.0122,-0.0176,0.0245,1394,2019-08-07 16:54:15:131
-6.1859,-6.0804,3.4586,-0.3271,-0.3884,0.1286,-0.0122,-0.0176,0.0245,1399,2019-08-07 16:54:15:136
-6.1859,-6.0804,3.4586,-0.3291,-0.3287,0.1576,-0.009,-0.023,0.0319,1404,2019-08-07 16:54:15:141
-6.1333,-6.09,3.3926,-0.3291,-0.3287,0.1576,-0.009,-0.023,0.0319,1409,2019-08-07 16:54:15:146
-6.1333,-6.09,3.3926,-0.3291,-0.3287,0.1576,-0.009,-0.023,0.0319,1415,2019-08-07 16:54:15:152
-6.1333,-6.09,3.3926,-0.3291,-0.3287,0.1576,-0.0058,-0.0123,0.0394,1418,2019-08-07 16:54:15:155
-6.1524,-6.0709,3.3502,-0.3424,-0.3816,0.1917,-0.0058,-0.0123,0.0394,1424,2019-08-07 16:54:15:161
-6.1524,-6.0709,3.3502,-0.3424,-0.3816,0.1917,-0.0037,-0.0048,0.0437,1429,2019-08-07 16:54:15:166
-6.2768,-6.0947,3.3926,-0.3424,-0.3816,0.1917,-0.0037,-0.0048,0.0437,1433,2019-08-07 16:54:15:170
-6.2768,-6.0947,3.3926,-0.3424,-0.3816,0.1917,0.0017,0.0015,0.0373,1439,2019-08-07 16:54:15:176
-6.2768,-6.0947,3.3926,-0.1662,-0.3806,0.1775,0.0017,0.0015,0.0373,1444,2019-08-07 16:54:15:181
-6.339,-6.1043,3.4068,-0.1662,-0.3806,0.1775,0.0017,0.0015,0.0373,1450,2019-08-07 16:54:15:187
-6.339,-6.1043,3.4068,-0.1662,-0.3806,0.1775,0.0048,-0.0016,0.0394,1453,2019-08-07 16:54:15:190
-6.2864,-6.0756,3.3926,-0.1662,-0.3806,0.1775,0.0048,-0.0016,0.0394,1459,2019-08-07 16:54:15:196
-6.2864,-6.0756,3.3926,-0.253,-0.3411,0.1643,0.008,-0.0016,0.0383,1464,2019-08-07 16:54:15:201
-6.2864,-6.0756,3.3926,-0.253,-0.3411,0.1643,0.008,-0.0016,0.0383,1469,2019-08-07 16:54:15:206
-6.2817,-6.0518,3.4633,-0.253,-0.3411,0.1643,0.0048,-0.0123,0.0351,1474,2019-08-07 16:54:15:211
-6.2817,-6.0518,3.4633,-0.253,-0.3411,0.1643,0.0048,-0.0123,0.0351,1479,2019-08-07 16:54:15:216
-6.3391,-6.0995,3.5576,-0.1807,-0.2924,0.0302,0.0027,-0.0283,0.0405,1483,2019-08-07 16:54:15:220
-6.3391,-6.0995,3.5576,-0.1807,-0.2924,0.0302,0.0027,-0.0283,0.0405,1489,2019-08-07 16:54:15:226
-6.3391,-6.0995,3.5576,-0.1807,-0.2924,0.0302,-0.0015,-0.04,0.0479,1494,2019-08-07 16:54:15:231
-6.229,-6.0804,3.5152,-0.1807,-0.2924,0.0302,-0.0015,-0.04,0.0479,1500,2019-08-07 16:54:15:237
-6.229,-6.0804,3.5152,-0.2697,-0.2862,0.0594,-0.0079,-0.0528,0.0501,1504,2019-08-07 16:54:15:241
-6.229,-6.0804,3.5152,-0.2697,-0.2862,0.0594,-0.0079,-0.0528,0.0501,1509,2019-08-07 16:54:15:246
-6.2243,-6.0995,3.4728,-0.2697,-0.2862,0.0594,-0.0079,-0.0528,0.0501,1515,2019-08-07 16:54:15:252
-6.2243,-6.0995,3.4728,-0.4,-0.3214,0.1193,-0.0165,-0.0517,0.0532,1518,2019-08-07 16:54:15:255
-6.2243,-6.0995,3.4728,-0.4,-0.3214,0.1193,-0.0165,-0.0517,0.0532,1524,2019-08-07 16:54:15:261
-6.1334,-6.0852,3.4445,-0.4,-0.3214,0.1193,-0.0239,-0.0432,0.0586,1529,2019-08-07 16:54:15:266
-6.1334,-6.0852,3.4445,-0.4368,-0.3159,0.1465,-0.0239,-0.0432,0.0586,1534,2019-08-07 16:54:15:271
-6.1382,-6.0995,3.3455,-0.4368,-0.3159,0.1465,-0.0271,-0.0293,0.0596,1539,2019-08-07 16:54:15:276
-6.1382,-6.0995,3.3455,-0.4368,-0.3159,0.1465,-0.0271,-0.0293,0.0596,1544,2019-08-07 16:54:15:281
-6.1382,-6.0995,3.3455,-0.4368,-0.3159,0.1465,-0.0282,-0.0155,0.0628,1549,2019-08-07 16:54:15:286
-6.1812,-6.1138,3.4539,-0.3618,-0.3053,0.1926,-0.0282,-0.0155,0.0628,1554,2019-08-07 16:54:15:291
-6.1812,-6.1138,3.4539,-0.3618,-0.3053,0.1926,-0.0282,-0.0155,0.0628,1559,2019-08-07 16:54:15:296
-6.2195,-6.1186,3.4869,-0.3618,-0.3053,0.1926,-0.0292,0.0037,0.066,1564,2019-08-07 16:54:15:301
-6.2195,-6.1186,3.4869,-0.3618,-0.3053,0.1926,-0.0292,0.0037,0.066,1569,2019-08-07 16:54:15:306
-6.2195,-6.1186,3.4869,-0.3618,-0.3053,0.1926,-0.0271,0.0037,0.066,1574,2019-08-07 16:54:15:311
-6.3296,-6.1091,3.3973,-0.2364,-0.2269,0.1324,-0.0271,0.0037,0.066,1579,2019-08-07 16:54:15:316
-6.3296,-6.1091,3.3973,-0.2364,-0.2269,0.1324,-0.0197,-0.0102,0.0735,1584,2019-08-07 16:54:15:321
-6.3296,-6.1091,3.3973,-0.2364,-0.2269,0.1324,-0.0197,-0.0102,0.0735,1589,2019-08-07 16:54:15:326
-6.3344,-6.109,3.4303,-0.2306,-0.2521,0.1454,-0.0154,-0.0219,0.0724,1594,2019-08-07 16:54:15:331
-6.3344,-6.109,3.4303,-0.2306,-0.2521,0.1454,-0.0154,-0.0219,0.0724,1600,2019-08-07 16:54:15:337
-6.3631,-6.1616,3.4633,-0.2306,-0.2521,0.1454,-0.0154,-0.0219,0.0724,1604,2019-08-07 16:54:15:341
-6.3631,-6.1616,3.4633,-0.2306,-0.2521,0.1454,-0.0122,-0.0443,0.0767,1609,2019-08-07 16:54:15:346
-6.3631,-6.1616,3.4633,-0.2306,-0.2521,0.1454,-0.0122,-0.0443,0.0767,1613,2019-08-07 16:54:15:350
-6.3344,-6.1186,3.5152,-0.223,-0.2286,0.0834,-0.0122,-0.0624,0.0777,1619,2019-08-07 16:54:15:356
-6.3344,-6.1186,3.5152,-0.223,-0.2286,0.0834,-0.0122,-0.0624,0.0777,1624,2019-08-07 16:54:15:361
-6.3344,-6.1186,3.5152,-0.223,-0.2286,0.0834,-0.0122,-0.0709,0.0831,1629,2019-08-07 16:54:15:366
-6.2531,-6.0709,3.4869,-0.223,-0.2286,0.0834,-0.0122,-0.0709,0.0831,1635,2019-08-07 16:54:15:372
-6.2531,-6.0709,3.4869,-0.2715,-0.2378,0.1098,-0.0207,-0.0688,0.0809,1639,2019-08-07 16:54:15:376
-6.2435,-6.0995,3.4727,-0.2715,-0.2378,0.1098,-0.0207,-0.0688,0.0809,1644,2019-08-07 16:54:15:381
-6.2435,-6.0995,3.4727,-0.3841,-0.2859,0.1365,-0.0239,-0.0634,0.082,1649,2019-08-07 16:54:15:386
-6.2435,-6.0995,3.4727,-0.3841,-0.2859,0.1365,-0.0239,-0.0634,0.082,1654,2019-08-07 16:54:15:391
-6.21,-6.0661,3.4209,-0.3841,-0.2859,0.1365,-0.0239,-0.0634,0.082,1659,2019-08-07 16:54:15:396
-6.21,-6.0661,3.4209,-0.3841,-0.2859,0.1365,-0.026,-0.0464,0.0809,1663,2019-08-07 16:54:15:400
-6.2148,-6.0565,3.4539,-0.3666,-0.2913,0.0884,-0.026,-0.0464,0.0809,1669,2019-08-07 16:54:15:406
-6.2148,-6.0565,3.4539,-0.3666,-0.2913,0.0884,-0.0271,-0.0357,0.0863,1674,2019-08-07 16:54:15:411
-6.2148,-6.0565,3.4539,-0.3666,-0.2913,0.0884,-0.0271,-0.0357,0.0863,1679,2019-08-07 16:54:15:416
-6.2483,-5.9945,3.4727,-0.3666,-0.2913,0.0884,-0.025,-0.0421,0.0937,1684,2019-08-07 16:54:15:421
-6.2483,-5.9945,3.4727,-0.3456,-0.2725,0.1942,-0.025,-0.0421,0.0937,1688,2019-08-07 16:54:15:425
-6.2244,-6.0613,3.4916,-0.3456,-0.2725,0.1942,-0.0228,-0.0368,0.0959,1694,2019-08-07 16:54:15:431
-6.2244,-6.0613,3.4916,-0.3456,-0.2725,0.1942,-0.0228,-0.0368,0.0959,1700,2019-08-07 16:54:15:437
-6.2244,-6.0613,3.4916,-0.3456,-0.2725,0.1942,-0.0228,-0.0368,0.0959,1703,2019-08-07 16:54:15:440
-6.2483,-6.0422,3.4067,-0.3407,-0.2614,0.2106,-0.0154,-0.0368,0.1033,1709,2019-08-07 16:54:15:446
-6.2483,-6.0422,3.4067,-0.3407,-0.2614,0.2106,-0.0154,-0.0368,0.1033,1714,2019-08-07 16:54:15:451
-6.2675,-6.0183,3.4633,-0.3407,-0.2614,0.2106,-0.0111,-0.0432,0.1065,1719,2019-08-07 16:54:15:456
-6.2675,-6.0183,3.4633,-0.3407,-0.2614,0.2106,-0.0111,-0.0432,0.1065,1723,2019-08-07 16:54:15:460
-6.2675,-6.0183,3.4633,-0.327,-0.2766,0.1729,-0.0058,-0.0506,0.114,1729,2019-08-07 16:54:15:466
-6.2579,-6.0183,3.4963,-0.327,-0.2766,0.1729,-0.0058,-0.0506,0.114,1733,2019-08-07 16:54:15:470
-6.2579,-6.0183,3.4963,-0.327,-0.2766,0.1729,-0.0047,-0.0613,0.114,1739,2019-08-07 16:54:15:476
-6.3201,-6.0279,3.468,-0.327,-0.2766,0.1729,-0.0047,-0.0613,0.114,1744,2019-08-07 16:54:15:481
-6.3201,-6.0279,3.468,-0.3416,-0.1762,0.1425,-0.0058,-0.0688,0.114,1749,2019-08-07 16:54:15:486
-6.3201,-6.0279,3.468,-0.3416,-0.1762,0.1425,-0.0058,-0.0688,0.114,1754,2019-08-07 16:54:15:491
-6.2627,-6.1281,3.4444,-0.3416,-0.1762,0.1425,-0.0058,-0.0688,0.114,1758,2019-08-07 16:54:15:495
-6.2627,-6.1281,3.4444,-0.3416,-0.1762,0.1425,-0.0079,-0.0741,0.1129,1765,2019-08-07 16:54:15:502
-6.1766,-6.1711,3.4209,-0.4407,-0.091,0.2168,-0.0111,-0.0634,0.1054,1769,2019-08-07 16:54:15:506
-6.1766,-6.1711,3.4209,-0.4407,-0.091,0.2168,-0.0111,-0.0634,0.1054,1774,2019-08-07 16:54:15:511
-6.1766,-6.1711,3.4209,-0.4407,-0.091,0.2168,-0.0111,-0.0634,0.1054,1778,2019-08-07 16:54:15:515
-6.1575,-6.2093,3.3596,-0.4407,-0.091,0.2168,-0.0111,-0.0506,0.1033,1784,2019-08-07 16:54:15:521
-6.1575,-6.2093,3.3596,-0.4534,0.0158,0.3162,-0.0111,-0.0506,0.1033,1790,2019-08-07 16:54:15:527
-6.1814,-6.2522,3.3313,-0.4534,0.0158,0.3162,-0.0143,-0.0166,0.0991,1793,2019-08-07 16:54:15:530
-6.1814,-6.2522,3.3313,-0.4534,0.0158,0.3162,-0.0143,-0.0166,0.0991,1799,2019-08-07 16:54:15:536
-6.1814,-6.2522,3.3313,-0.4534,0.0158,0.3162,-0.0143,-0.0166,0.0991,1804,2019-08-07 16:54:15:541
-6.2723,-6.3,3.4256,-0.4534,0.0158,0.3162,-0.0069,0.009,0.0937,1809,2019-08-07 16:54:15:546
-6.2723,-6.3,3.4256,-0.3632,0.0019,0.1966,-0.0069,0.009,0.0937,1813,2019-08-07 16:54:15:550
-6.4398,-6.2618,3.501,-0.3632,0.0019,0.1966,-0.0026,0.0122,0.0873,1819,2019-08-07 16:54:15:556
-6.4398,-6.2618,3.501,-0.3632,0.0019,0.1966,-0.0026,0.0122,0.0873,1824,2019-08-07 16:54:15:561
-6.4398,-6.2618,3.501,-0.168,-0.0309,0.0866,-0.0026,-0.0134,0.082,1829,2019-08-07 16:54:15:566
-6.4494,-6.2427,3.5387,-0.168,-0.0309,0.0866,-0.0026,-0.0134,0.082,1834,2019-08-07 16:54:15:571
-6.4494,-6.2427,3.5387,-0.168,-0.0309,0.0866,-5.0E-4,-0.0592,0.0628,1839,2019-08-07 16:54:15:576
-6.4159,-6.1806,3.468,-0.168,-0.0309,0.0866,-5.0E-4,-0.0592,0.0628,1844,2019-08-07 16:54:15:581
-6.4159,-6.1806,3.468,-0.2486,-0.0371,0.1354,-0.0026,-0.0815,0.0586,1849,2019-08-07 16:54:15:586
-6.4159,-6.1806,3.468,-0.2486,-0.0371,0.1354,-0.0026,-0.0815,0.0586,1854,2019-08-07 16:54:15:591
-6.3202,-6.1806,3.4633,-0.2486,-0.0371,0.1354,-0.0026,-0.0815,0.0586,1859,2019-08-07 16:54:15:596
-6.3202,-6.1806,3.4633,-0.4251,-0.0342,0.1742,-0.0047,-0.0975,0.0522,1864,2019-08-07 16:54:15:601
-6.191,-6.2331,3.4539,-0.4251,-0.0342,0.1742,-0.0047,-0.0975,0.0522,1869,2019-08-07 16:54:15:606
-6.191,-6.2331,3.4539,-0.4251,-0.0342,0.1742,0.0017,-0.0773,0.0458,1874,2019-08-07 16:54:15:611
-6.191,-6.2331,3.4539,-0.528,0.1129,0.2088,0.0017,-0.0773,0.0458,1878,2019-08-07 16:54:15:615
-6.1193,-6.2809,3.4869,-0.528,0.1129,0.2088,0.0176,-0.0421,0.0394,1885,2019-08-07 16:54:15:622
-6.1193,-6.2809,3.4869,-0.528,0.1129,0.2088,0.0176,-0.0421,0.0394,1888,2019-08-07 16:54:15:625
-6.1426,-6.2046,3.5765,-0.528,0.1129,0.2088,0.0315,-0.0059,0.0394,1894,2019-08-07 16:54:15:631
-6.1426,-6.2046,3.5765,-0.4579,-0.0255,0.0263,0.0315,-0.0059,0.0394,1899,2019-08-07 16:54:15:636
-6.1426,-6.2046,3.5765,-0.4579,-0.0255,0.0263,0.0496,0.0079,0.0373,1904,2019-08-07 16:54:15:641
-6.2526,-6.1568,3.751,-0.4579,-0.0255,0.0263,0.0496,0.0079,0.0373,1909,2019-08-07 16:54:15:646
-6.2526,-6.1568,3.751,-0.4579,-0.0255,0.0263,0.0741,-0.0048,0.0415,1914,2019-08-07 16:54:15:651
-6.4249,-6.0375,3.8971,-0.2272,-0.1643,-0.2197,0.0741,-0.0048,0.0415,1919,2019-08-07 16:54:15:656
-6.4249,-6.0375,3.8971,-0.2272,-0.1643,-0.2197,0.1029,-0.0379,0.0543,1924,2019-08-07 16:54:15:661
-6.4249,-6.0375,3.8971,-0.2272,-0.1643,-0.2197,0.1029,-0.0379,0.0543,1929,2019-08-07 16:54:15:666
-6.4344,-6.0804,3.9961,-0.2272,-0.1643,-0.2197,0.1029,-0.0379,0.0543,1934,2019-08-07 16:54:15:671
-6.4344,-6.0804,3.9961,-0.2002,-0.0524,-0.3413,0.122,-0.0879,0.066,1939,2019-08-07 16:54:15:676
-6.4488,-6.1711,4.0432,-0.2002,-0.0524,-0.3413,0.122,-0.0879,0.066,1944,2019-08-07 16:54:15:681
-6.4488,-6.1711,4.0432,-0.2002,-0.0524,-0.3413,0.138,-0.138,0.082,1949,2019-08-07 16:54:15:686
-6.4488,-6.1711,4.0432,-0.2002,-0.0524,-0.3413,0.138,-0.138,0.082,1954,2019-08-07 16:54:15:691
-6.4297,-6.4433,4.1469,-0.2002,-0.0524,-0.3413,0.154,-0.1657,0.1001,1958,2019-08-07 16:54:15:695
-6.4297,-6.4433,4.1469,-0.2124,0.2888,-0.3726,0.154,-0.1657,0.1001,1964,2019-08-07 16:54:15:701
-6.4297,-6.4433,4.1469,-0.2124,0.2888,-0.3726,0.1849,-0.1764,0.1257,1969,2019-08-07 16:54:15:706
-6.3818,-6.6342,4.1941,-0.2124,0.2888,-0.3726,0.1849,-0.1764,0.1257,1974,2019-08-07 16:54:15:711
-6.3818,-6.6342,4.1941,-0.2124,0.2888,-0.3726,0.2264,-0.1668,0.1587,1979,2019-08-07 16:54:15:716
-6.3483,-6.8299,4.4533,-0.3075,0.6576,-0.615,0.2264,-0.1668,0.1587,1984,2019-08-07 16:54:15:721
-6.3483,-6.8299,4.4533,-0.3075,0.6576,-0.615,0.2264,-0.1668,0.1587,1988,2019-08-07 16:54:15:725
-6.3483,-6.8299,4.4533,-0.3075,0.6576,-0.615,0.3127,-0.1337,0.2066,1994,2019-08-07 16:54:15:731
-6.2766,-6.8968,5.0001,-0.3782,0.7871,-1.3871,0.3127,-0.1337,0.2066,1999,2019-08-07 16:54:15:736
-6.2766,-6.8968,5.0001,-0.3782,0.7871,-1.3871,0.4182,-0.121,0.2439,2004,2019-08-07 16:54:15:741
-6.2766,-6.8968,5.0001,-0.3782,0.7871,-1.3871,0.4182,-0.121,0.2439,2009,2019-08-07 16:54:15:746
-6.1761,-6.787,5.4998,-0.3782,0.7871,-1.3871,0.514,-0.1263,0.261,2013,2019-08-07 16:54:15:750
-6.1761,-6.787,5.4998,-0.3782,0.7871,-1.3871,0.514,-0.1263,0.261,2019,2019-08-07 16:54:15:756
-5.9082,-6.9541,5.8203,-0.6738,0.8714,-1.8502,0.6632,-0.17,0.2631,2024,2019-08-07 16:54:15:761
-5.9082,-6.9541,5.8203,-0.6738,0.8714,-1.8502,0.6632,-0.17,0.2631,2028,2019-08-07 16:54:15:765
-5.9082,-6.9541,5.8203,-0.6738,0.8714,-1.8502,0.7814,-0.2094,0.2514,2034,2019-08-07 16:54:15:771
-5.3006,-7.3455,6.023,-0.6738,0.8714,-1.8502,0.7814,-0.2094,0.2514,2040,2019-08-07 16:54:15:777
-5.3006,-7.3455,6.023,-1.6044,1.6117,-1.9262,0.9423,-0.1732,0.2311,2044,2019-08-07 16:54:15:781
-4.9035,-7.737,6.0277,-1.6044,1.6117,-1.9262,0.9423,-0.1732,0.2311,2050,2019-08-07 16:54:15:787
-4.9035,-7.737,6.0277,-1.6044,1.6117,-1.9262,1.1415,-0.0155,0.229,2053,2019-08-07 16:54:15:790
-4.9035,-7.737,6.0277,-1.6044,1.6117,-1.9262,1.1415,-0.0155,0.229,2059,2019-08-07 16:54:15:796
-4.4538,-8.2859,6.4143,-2.2159,2.5766,-2.3281,1.2757,0.1379,0.2375,2064,2019-08-07 16:54:15:801
-4.4538,-8.2859,6.4143,-2.2159,2.5766,-2.3281,1.2757,0.1379,0.2375,2068,2019-08-07 16:54:15:805
-4.4968,-8.9877,7.1967,-2.2159,2.5766,-2.3281,1.4131,0.2625,0.2546,2074,2019-08-07 16:54:15:811
-4.4968,-8.9877,7.1967,-2.2159,2.5766,-2.3281,1.4131,0.2625,0.2546,2079,2019-08-07 16:54:15:816
-4.4968,-8.9877,7.1967,-2.2039,3.6983,-3.358,1.5676,0.3265,0.2759,2084,2019-08-07 16:54:15:821
-4.4873,-9.656,8.0594,-2.2039,3.6983,-3.358,1.5676,0.3265,0.2759,2089,2019-08-07 16:54:15:826
-4.4873,-9.656,8.0594,-2.2039,3.6983,-3.358,1.7061,0.3371,0.277,2094,2019-08-07 16:54:15:831
-4.5208,-10.3817,9.1011,-2.2039,3.6983,-3.358,1.7061,0.3371,0.277,2099,2019-08-07 16:54:15:836
-4.5208,-10.3817,9.1011,-2.1689,5.0084,-4.7793,1.9159,0.2806,0.2631,2104,2019-08-07 16:54:15:841
-4.5208,-10.3817,9.1011,-2.1689,5.0084,-4.7793,1.9159,0.2806,0.2631,2109,2019-08-07 16:54:15:846
-4.559,-10.8781,9.5725,-2.1689,5.0084,-4.7793,2.1162,0.1741,0.2343,2114,2019-08-07 16:54:15:851
-4.559,-10.8781,9.5725,-2.1689,5.0084,-4.7793,2.1162,0.1741,0.2343,2119,2019-08-07 16:54:15:856
-4.559,-10.8781,9.5725,-2.4019,6.374,-4.787,2.1162,0.1741,0.2343,2124,2019-08-07 16:54:15:861
-4.2576,-11.8711,9.4735,-2.4019,6.374,-4.787,2.3303,0.0324,0.1534,2129,2019-08-07 16:54:15:866
-4.2576,-11.8711,9.4735,-2.4019,6.374,-4.787,2.3303,0.0324,0.1534,2135,2019-08-07 16:54:15:872
-3.43,-13.1887,7.9651,-2.4019,6.374,-4.787,2.5455,-0.023,0.0266,2140,2019-08-07 16:54:15:877
-3.43,-13.1887,7.9651,-3.5702,8.472,-2.4572,2.5455,-0.023,0.0266,2145,2019-08-07 16:54:15:882
-3.43,-13.1887,7.9651,-3.5702,8.472,-2.4572,2.7085,0.1549,-0.1342,2149,2019-08-07 16:54:15:886
-2.1286,-15.0839,6.0136,-3.5702,8.472,-2.4572,2.7085,0.1549,-0.1342,2154,2019-08-07 16:54:15:891
-2.1286,-15.0839,6.0136,-3.5702,8.472,-2.4572,2.7085,0.1549,-0.1342,2159,2019-08-07 16:54:15:896
-0.8417,-17.065,4.0102,-5.8812,12.226,1.2455,2.9673,0.5139,-0.3121,2164,2019-08-07 16:54:15:901
-0.8417,-17.065,4.0102,-5.8812,12.226,1.2455,2.9673,0.5139,-0.3121,2169,2019-08-07 16:54:15:906
-0.8417,-17.065,4.0102,-5.8812,12.226,1.2455,3.5415,1.445,-0.5667,2173,2019-08-07 16:54:15:910
1.2299,-20.1441,2.6385,-5.8812,12.226,1.2455,3.5415,1.445,-0.5667,2179,2019-08-07 16:54:15:916
1.2299,-20.1441,2.6385,-8.2206,16.6327,3.2429,4.2542,2.4122,-0.8341,2184,2019-08-07 16:54:15:921
1.2299,-20.1441,2.6385,-8.2206,16.6327,3.2429,4.2542,2.4122,-0.8341,2189,2019-08-07 16:54:15:926
0.4261,-20.8745,2.3462,-8.2206,16.6327,3.2429,5.3503,3.795,-0.8533,2194,2019-08-07 16:54:15:931
0.4261,-20.8745,2.3462,-8.2206,16.6327,3.2429,5.3503,3.795,-0.8533,2199,2019-08-07 16:54:15:936
-2.9515,-17.5233,5.0425,-4.1484,13.3362,0.2767,6.3506,4.8133,-0.4783,2204,2019-08-07 16:54:15:941
-2.9515,-17.5233,5.0425,-4.1484,13.3362,0.2767,6.3506,4.8133,-0.4783,2209,2019-08-07 16:54:15:946
-5.7216,-15.4419,2.9496,-1.6214,11.5618,2.2716,6.3506,4.8133,-0.4783,2214,2019-08-07 16:54:15:951
-5.7216,-15.4419,2.9496,-1.6214,11.5618,2.2716,6.7746,5.0349,-0.0543,2219,2019-08-07 16:54:15:956
-5.7216,-15.4419,2.9496,-1.6214,11.5618,2.2716,6.7746,5.0349,-0.0543,2224,2019-08-07 16:54:15:961
-11.3957,-12.9977,5.9382,-1.6214,11.5618,2.2716,5.8798,3.9963,0.3569,2230,2019-08-07 16:54:15:967
-11.3957,-12.9977,5.9382,-1.6214,11.5618,2.2716,5.8798,3.9963,0.3569,2234,2019-08-07 16:54:15:971
-11.3957,-12.9977,5.9382,4.637,9.6991,-2.7308,5.3514,1.902,0.7499,2239,2019-08-07 16:54:15:976
-12.2952,-13.2698,7.6163,4.637,9.6991,-2.7308,5.3514,1.902,0.7499,2243,2019-08-07 16:54:15:980
-12.2952,-13.2698,7.6163,4.637,9.6991,-2.7308,5.2449,-0.3564,1.143,2249,2019-08-07 16:54:15:986
-7.7597,-14.85,2.0116,-0.1382,12.269,3.2036,5.2449,-0.3564,1.143,2254,2019-08-07 16:54:15:991
-7.7597,-14.85,2.0116,-0.1382,12.269,3.2036,5.2449,-0.3564,1.143,2258,2019-08-07 16:54:15:995
-7.7597,-14.85,2.0116,-0.1382,12.269,3.2036,5.035,-2.1535,1.4509,2264,2019-08-07 16:54:16:001
-2.875,-14.3582,-3.2679,-0.1382,12.269,3.2036,5.035,-2.1535,1.4509,2269,2019-08-07 16:54:16:006
-2.875,-14.3582,-3.2679,-0.1382,12.269,3.2036,4.921,-1.5079,1.7332,2274,2019-08-07 16:54:16:011
-2.875,-14.3582,-3.2679,-7.4203,10.878,9.7282,4.921,-1.5079,1.7332,2278,2019-08-07 16:54:16:015
0.1917,-10.9068,-4.7905,-7.4203,10.878,9.7282,5.002,-0.2754,1.9995,2283,2019-08-07 16:54:16:020
0.1917,-10.9068,-4.7905,-7.4203,10.878,9.7282,5.002,-0.2754,1.9995,2289,2019-08-07 16:54:16:026
-1.9229,-4.7247,-6.4309,-7.4203,10.878,9.7282,4.8465,1.3203,2.4618,2294,2019-08-07 16:54:16:031
-1.9229,-4.7247,-6.4309,-5.1659,2.5567,11.7689,4.8465,1.3203,2.4618,2299,2019-08-07 16:54:16:036
-1.9229,-4.7247,-6.4309,-5.1659,2.5567,11.7689,4.8465,1.3203,2.4618,2304,2019-08-07 16:54:16:041
-6.0757,0.5122,-4.4275,-5.1659,2.5567,11.7689,4.2233,2.441,3.2128,2309,2019-08-07 16:54:16:046
-6.0757,0.5122,-4.4275,-5.1659,2.5567,11.7689,4.2233,2.441,3.2128,2314,2019-08-07 16:54:16:051
-6.0757,0.5122,-4.4275,-0.956,-2.1225,8.6813,3.6502,2.6477,3.6368,2319,2019-08-07 16:54:16:056
-7.8506,2.9564,-2.509,-0.956,-2.1225,8.6813,3.6502,2.6477,3.6368,2323,2019-08-07 16:54:16:060
-7.8506,2.9564,-2.509,-0.0215,-3.5064,8.2722,3.0771,2.2567,3.8775,2330,2019-08-07 16:54:16:067
-9.1615,5.8875,-3.1076,-0.0215,-3.5064,8.2722,3.0771,2.2567,3.8775,2335,2019-08-07 16:54:16:072
-9.1615,5.8875,-3.1076,-0.0215,-3.5064,8.2722,2.3719,1.6442,3.8893,2340,2019-08-07 16:54:16:077
-9.1615,5.8875,-3.1076,-0.0215,-3.5064,8.2722,2.3719,1.6442,3.8893,2345,2019-08-07 16:54:16:082
-11.5728,8.3842,-4.8753,3.1344,-6.9198,9.6593,1.8968,1.2117,3.6751,2349,2019-08-07 16:54:16:086
-11.5728,8.3842,-4.8753,3.1344,-6.9198,9.6593,1.8968,1.2117,3.6751,2353,2019-08-07 16:54:16:090
-11.5728,8.3842,-4.8753,3.1344,-6.9198,9.6593,1.8968,1.2117,3.6751,2359,2019-08-07 16:54:16:096
-16.2135,12.4324,-8.0901,3.1344,-6.9198,9.6593,1.5665,1.1275,3.396,2364,2019-08-07 16:54:16:101
-16.2135,12.4324,-8.0901,10.2175,-11.1296,13.7755,1.5665,1.1275,3.396,2369,2019-08-07 16:54:16:106
-18.9405,12.1412,-8.7501,10.2175,-11.1296,13.7755,1.1841,1.07,2.8773,2374,2019-08-07 16:54:16:111
-18.9405,12.1412,-8.7501,10.2175,-11.1296,13.7755,1.1841,1.07,2.8773,2379,2019-08-07 16:54:16:116
-18.9405,12.1412,-8.7501,10.2175,-11.1296,13.7755,0.7729,-0.3958,2.0336,2384,2019-08-07 16:54:16:121
-12.2186,10.7616,-9.0706,3.8544,-7.9509,13.3572,0.7729,-0.3958,2.0336,2388,2019-08-07 16:54:16:125
-12.2186,10.7616,-9.0706,3.8544,-7.9509,13.3572,0.4352,-3.2134,0.8916,2394,2019-08-07 16:54:16:131
-6.5158,12.7761,-11.7905,3.8544,-7.9509,13.3572,0.4352,-3.2134,0.8916,2399,2019-08-07 16:54:16:136
-6.5158,12.7761,-11.7905,3.8544,-7.9509,13.3572,0.4544,-6.0012,-0.4581,2404,2019-08-07 16:54:16:141
-6.5158,12.7761,-11.7905,-3.9463,-9.4416,14.3063,0.4544,-6.0012,-0.4581,2409,2019-08-07 16:54:16:146
-2.5114,11.8453,-5.9359,-3.9463,-9.4416,14.3063,0.7218,-6.8417,-1.4914,2414,2019-08-07 16:54:16:151
-2.5114,11.8453,-5.9359,-3.9463,-9.4416,14.3063,0.7218,-6.8417,-1.4914,2419,2019-08-07 16:54:16:156
-3.4587,10.733,-17.6639,-3.9463,-9.4416,14.3063,1.1319,-0.0783,-2.3127,2423,2019-08-07 16:54:16:160
-3.4587,10.733,-17.6639,-5.9614,-7.4847,21.7983,1.1319,-0.0783,-2.3127,2429,2019-08-07 16:54:16:166
-3.4587,10.733,-17.6639,-5.9614,-7.4847,21.7983,1.4845,2.033,-2.8773,2434,2019-08-07 16:54:16:171
-5.2863,12.2892,-13.4875,-5.9614,-7.4847,21.7983,1.4845,2.033,-2.8773,2439,2019-08-07 16:54:16:176
-5.2863,12.2892,-13.4875,-5.9614,-7.4847,21.7983,1.4845,2.033,-2.8773,2443,2019-08-07 16:54:16:180
-10.1375,10.5134,-7.3501,0.9645,-8.2494,7.461,0.9742,2.4133,-2.9444,2450,2019-08-07 16:54:16:187
-10.1375,10.5134,-7.3501,0.9645,-8.2494,7.461,0.9742,2.4133,-2.9444,2454,2019-08-07 16:54:16:191
-10.1375,10.5134,-7.3501,0.9645,-8.2494,7.461,0.7569,0.6961,-2.8123,2459,2019-08-07 16:54:16:196
-10.2667,9.6541,6.7678,0.9645,-8.2494,7.461,0.7569,0.6961,-2.8123,2464,2019-08-07 16:54:16:201
-10.2667,9.6541,6.7678,1.7253,-7.5372,1.0175,0.4544,-1.9436,-2.6919,2468,2019-08-07 16:54:16:205
-10.2667,9.6541,6.7678,1.7253,-7.5372,1.0175,0.4544,-1.9436,-2.6919,2474,2019-08-07 16:54:16:211
-5.7121,9.1146,-2.3393,-4.2952,-6.4412,-2.7509,0.2563,-0.04,-2.5013,2478,2019-08-07 16:54:16:215
-5.7121,9.1146,-2.3393,-4.2952,-6.4412,-2.7509,0.2563,-0.04,-2.5013,2485,2019-08-07 16:54:16:222
-5.7121,9.1146,-2.3393,-4.2952,-6.4412,-2.7509,0.5993,-1.0062,-2.1753,2489,2019-08-07 16:54:16:226
-4.7409,7.1096,3.8594,-4.2952,-6.4412,-2.7509,0.5993,-1.0062,-2.1753,2494,2019-08-07 16:54:16:231
-4.7409,7.1096,3.8594,-5.9394,-5.4822,1.201,0.5993,-1.0062,-2.1753,2499,2019-08-07 16:54:16:236
-2.0856,6.8375,1.7806,-5.9394,-5.4822,1.201,0.4736,-0.4906,-1.7108,2505,2019-08-07 16:54:16:242
-2.0856,6.8375,1.7806,-5.9394,-5.4822,1.201,0.4736,-0.4906,-1.7108,2508,2019-08-07 16:54:16:245
-2.0856,6.8375,1.7806,-6.4502,-4.4294,3.9913,0.1103,0.221,-1.4328,2513,2019-08-07 16:54:16:250
-1.7603,5.6202,2.3274,-6.4502,-4.4294,3.9913,0.1103,0.221,-1.4328,2518,2019-08-07 16:54:16:255
-1.7603,5.6202,2.3274,-6.4502,-4.4294,3.9913,-0.1667,0.7941,-1.2261,2524,2019-08-07 16:54:16:261
-1.7603,5.6202,2.3274,-3.1999,-4.1975,0.7998,-0.1667,0.7941,-1.2261,2529,2019-08-07 16:54:16:266
-5.0566,5.7825,4.2553,-3.1999,-4.1975,0.7998,-0.0442,1.1233,-1.0248,2534,2019-08-07 16:54:16:271
-5.0566,5.7825,4.2553,-3.1999,-4.1975,0.7998,-0.0442,1.1233,-1.0248,2539,2019-08-07 16:54:16:276
-5.0566,5.7825,4.2553,-3.1999,-4.1975,0.7998,-0.0442,1.1233,-1.0248,2543,2019-08-07 16:54:16:280
-7.0517,5.4627,2.8742,-0.4167,-4.2836,2.0232,0.0762,1.2745,-0.75,2550,2019-08-07 16:54:16:287
-7.0517,5.4627,2.8742,-0.4167,-4.2836,2.0232,0.0762,1.2745,-0.75,2554,2019-08-07 16:54:16:291
-7.0517,5.4627,2.8742,-0.4167,-4.2836,2.0232,-0.0591,0.9859,-0.6061,2559,2019-08-07 16:54:16:296
-9.8361,6.026,2.8647,-0.4167,-4.2836,2.0232,-0.0591,0.9859,-0.6061,2564,2019-08-07 16:54:16:301
-9.8361,6.026,2.8647,1.8766,-4.5793,1.6603,-0.1177,0.6567,-0.489,2569,2019-08-07 16:54:16:306
-10.5442,5.8637,2.7705,1.8766,-4.5793,1.6603,-0.1177,0.6567,-0.489,2574,2019-08-07 16:54:16:311
-10.5442,5.8637,2.7705,1.8766,-4.5793,1.6603,-0.0814,0.1347,-0.3782,2579,2019-08-07 16:54:16:316
-10.5442,5.8637,2.7705,1.8766,-4.5793,1.6603,-0.0814,0.1347,-0.3782,2585,2019-08-07 16:54:16:322
-10.6973,5.434,2.728,1.9365,-4.0158,2.1496,-0.0069,-0.269,-0.3952,2589,2019-08-07 16:54:16:326
-10.6973,5.434,2.728,1.9365,-4.0158,2.1496,-0.0069,-0.269,-0.3952,2594,2019-08-07 16:54:16:331
-10.6973,5.434,2.728,1.9365,-4.0158,2.1496,-0.0069,-0.269,-0.3952,2599,2019-08-07 16:54:16:336
-9.5443,5.2669,1.1159,1.0167,-3.9389,3.5482,-0.0495,-0.4981,-0.4741,2604,2019-08-07 16:54:16:341
-9.5443,5.2669,1.1159,1.0167,-3.9389,3.5482,-0.0495,-0.4981,-0.4741,2609,2019-08-07 16:54:16:346
-8.2573,4.885,0.5267,1.0167,-3.9389,3.5482,-0.1912,-0.3788,-0.5998,2615,2019-08-07 16:54:16:352
-8.2573,4.885,0.5267,-0.8574,-3.4481,4.5014,-0.1912,-0.3788,-0.5998,2619,2019-08-07 16:54:16:356
-8.2573,4.885,0.5267,-0.8574,-3.4481,4.5014,-0.3659,-0.0666,-0.8064,2624,2019-08-07 16:54:16:361
-7.2765,4.7466,-0.1992,-0.8574,-3.4481,4.5014,-0.3659,-0.0666,-0.8064,2629,2019-08-07 16:54:16:366
-7.2765,4.7466,-0.1992,-0.8574,-3.4481,4.5014,-0.4862,0.3296,-0.9683,2635,2019-08-07 16:54:16:372
-7.2765,4.7466,-0.1992,-0.8574,-3.4481,4.5014,-0.4862,0.3296,-0.9683,2638,2019-08-07 16:54:16:375
-7.3531,4.9853,-0.4208,-1.2154,-3.9068,5.0742,-0.6077,0.7984,-1.0983,2644,2019-08-07 16:54:16:381
-7.3531,4.9853,-0.4208,-1.2154,-3.9068,5.0742,-0.6077,0.7984,-1.0983,2650,2019-08-07 16:54:16:387
-8.5252,4.5795,0.0317,-1.2154,-3.9068,5.0742,-0.6077,0.7984,-1.0983,2654,2019-08-07 16:54:16:391
-8.5252,4.5795,0.0317,-1.2154,-3.9068,5.0742,-0.7557,1.2202,-1.1931,2659,2019-08-07 16:54:16:396
-8.5252,4.5795,0.0317,0.7327,-3.4466,3.8903,-0.7557,1.2202,-1.1931,2664,2019-08-07 16:54:16:401
-9.9844,4.1308,0.8284,0.7327,-3.4466,3.8903,-0.8079,1.3331,-1.2815,2669,2019-08-07 16:54:16:406
-9.9844,4.1308,0.8284,0.7327,-3.4466,3.8903,-0.8079,1.3331,-1.2815,2674,2019-08-07 16:54:16:411
-11.2379,3.9923,0.9745,0.7327,-3.4466,3.8903,-0.8079,1.1872,-1.3976,2680,2019-08-07 16:54:16:417
-11.2379,3.9923,0.9745,2.5869,-3.339,3.2606,-0.8079,1.1872,-1.3976,2684,2019-08-07 16:54:16:421
-11.2379,3.9923,0.9745,2.5869,-3.339,3.2606,-0.891,0.8218,-1.5553,2688,2019-08-07 16:54:16:425
-11.8024,3.4433,0.8519,2.5869,-3.339,3.2606,-0.891,0.8218,-1.5553,2694,2019-08-07 16:54:16:431
-11.8024,3.4433,0.8519,2.5869,-3.339,3.2606,-1.0583,0.4351,-1.714,2699,2019-08-07 16:54:16:436
-11.8024,3.4433,0.8519,2.8154,-2.8648,2.8418,-1.0583,0.4351,-1.714,2704,2019-08-07 16:54:16:441
-11.568,2.7368,1.3987,2.8154,-2.8648,2.8418,-1.0583,0.4351,-1.714,2709,2019-08-07 16:54:16:446
-11.568,2.7368,1.3987,2.8154,-2.8648,2.8418,-1.3022,-0.0272,-1.8898,2714,2019-08-07 16:54:16:451
-10.6686,1.9396,1.0782,2.8154,-2.8648,2.8418,-1.3022,-0.0272,-1.8898,2719,2019-08-07 16:54:16:456
-10.6686,1.9396,1.0782,1.4992,-2.012,3.0001,-1.7006,-0.4778,-2.0996,2723,2019-08-07 16:54:16:460
-9.6974,1.4383,0.9604,1.4992,-2.012,3.0001,-1.7006,-0.4778,-2.0996,2729,2019-08-07 16:54:16:466
-9.6974,1.4383,0.9604,1.4992,-2.012,3.0001,-2.0543,-0.7804,-2.2552,2734,2019-08-07 16:54:16:471
-9.6974,1.4383,0.9604,1.4992,-2.012,3.0001,-2.0543,-0.7804,-2.2552,2739,2019-08-07 16:54:16:476
-8.4248,0.8941,0.1307,-0.2771,-1.8042,3.863,-2.425,-0.9124,-2.3937,2744,2019-08-07 16:54:16:481
-8.4248,0.8941,0.1307,-0.2771,-1.8042,3.863,-2.425,-0.9124,-2.3937,2749,2019-08-07 16:54:16:486
-8.4248,0.8941,0.1307,-0.2771,-1.8042,3.863,-2.8671,-0.9529,-2.481,2754,2019-08-07 16:54:16:491
-7.8554,-0.0511,-0.4821,-0.2771,-1.8042,3.863,-2.8671,-0.9529,-2.481,2759,2019-08-07 16:54:16:496
-7.8554,-0.0511,-0.4821,-1.0493,-0.9183,4.9398,-2.8671,-0.9529,-2.481,2764,2019-08-07 16:54:16:501
-7.5588,-1.4069,-0.5952,-1.0493,-0.9183,4.9398,-3.16,-0.9242,-2.4789,2769,2019-08-07 16:54:16:506
-7.5588,-1.4069,-0.5952,-1.0493,-0.9183,4.9398,-3.16,-0.9242,-2.4789,2774,2019-08-07 16:54:16:511
-7.5588,-1.4069,-0.5952,-1.0493,-0.9183,4.9398,-3.3571,-0.823,-2.4459,2779,2019-08-07 16:54:16:516
-7.7071,-2.7913,0.4513,-0.8857,0.6359,3.7622,-3.3571,-0.823,-2.4459,2784,2019-08-07 16:54:16:521
-7.7071,-2.7913,0.4513,-0.8857,0.6359,3.7622,-3.3859,-0.759,-2.4043,2789,2019-08-07 16:54:16:526
-8.3243,-3.6744,0.5597,-0.1836,1.1592,3.6266,-3.3859,-0.759,-2.4043,2794,2019-08-07 16:54:16:531
-8.3243,-3.6744,0.5597,-0.1836,1.1592,3.6266,-3.4445,-0.8027,-2.3372,2799,2019-08-07 16:54:16:536
-8.3243,-3.6744,0.5597,-0.1836,1.1592,3.6266,-3.4445,-0.8027,-2.3372,2804,2019-08-07 16:54:16:541
-9.4773,-3.8415,0.9698,-0.1836,1.1592,3.6266,-3.4445,-0.8027,-2.3372,2809,2019-08-07 16:54:16:546
-9.4773,-3.8415,0.9698,1.6533,0.4479,3.0808,-3.632,-1.1702,-2.2147,2815,2019-08-07 16:54:16:552
-9.4773,-3.8415,0.9698,1.6533,0.4479,3.0808,-3.632,-1.1702,-2.2147,2818,2019-08-07 16:54:16:555
-10.6494,-3.2591,1.6014,1.6533,0.4479,3.0808,-3.8706,-1.8786,-2.0027,2824,2019-08-07 16:54:16:561
-10.6494,-3.2591,1.6014,1.6533,0.4479,3.0808,-3.8706,-1.8786,-2.0027,2829,2019-08-07 16:54:16:566
-11.6876,-2.7722,3.0391,3.6662,-1.0894,1.0815,-4.0591,-2.7862,-1.7811,2834,2019-08-07 16:54:16:571
-11.6876,-2.7722,3.0391,3.6662,-1.0894,1.0815,-4.0591,-2.7862,-1.7811,2839,2019-08-07 16:54:16:576
-11.6876,-2.7722,3.0391,3.6662,-1.0894,1.0815,-4.3233,-3.6086,-1.5233,2844,2019-08-07 16:54:16:581
-11.8168,-2.6337,2.3698,3.6662,-1.0894,1.0815,-4.3233,-3.6086,-1.5233,2849,2019-08-07 16:54:16:586
-11.8168,-2.6337,2.3698,3.9239,-1.6651,2.7404,-4.7334,-4.6686,-1.2123,2854,2019-08-07 16:54:16:591
-11.8168,-2.6337,2.3698,3.9239,-1.6651,2.7404,-4.7334,-4.6686,-1.2123,2859,2019-08-07 16:54:16:596
-11.1709,-2.8199,0.9462,3.9239,-1.6651,2.7404,-4.7334,-4.6686,-1.2123,2863,2019-08-07 16:54:16:600
-11.1709,-2.8199,0.9462,3.9239,-1.6651,2.7404,-5.3247,-6.0854,-0.685,2869,2019-08-07 16:54:16:606
-9.085,-3.24,-0.1191,2.0462,-1.8011,4.732,-5.3247,-6.0854,-0.685,2874,2019-08-07 16:54:16:611
-9.085,-3.24,-0.1191,2.0462,-1.8011,4.732,-5.641,-6.9333,-0.1715,2878,2019-08-07 16:54:16:615
-9.085,-3.24,-0.1191,2.0462,-1.8011,4.732,-5.641,-6.9333,-0.1715,2884,2019-08-07 16:54:16:621
-6.248,-4.7963,-1.8821,2.0462,-1.8011,4.732,-5.771,-7.0569,0.5422,2889,2019-08-07 16:54:16:626
-6.248,-4.7963,-1.8821,-2.1628,0.5428,8.2298,-5.771,-7.0569,0.5422,2894,2019-08-07 16:54:16:631
-2.9036,-7.3264,-3.9042,-2.1628,0.5428,8.2298,-5.7646,-6.7085,0.9427,2899,2019-08-07 16:54:16:636
-2.9036,-7.3264,-3.9042,-2.1628,0.5428,8.2298,-5.7646,-6.7085,0.9427,2904,2019-08-07 16:54:16:641
-2.9036,-7.3264,-3.9042,-2.1628,0.5428,8.2298,-5.7646,-6.7085,0.9427,2909,2019-08-07 16:54:16:646
-0.875,-10.1907,-4.0645,-2.1628,0.5428,8.2298,-5.6549,-5.6198,1.4605,2914,2019-08-07 16:54:16:651
-0.875,-10.1907,-4.0645,-5.2161,4.732,8.8093,-5.6549,-5.6198,1.4605,2918,2019-08-07 16:54:16:655
-0.875,-10.1907,-4.0645,-5.2161,4.732,8.8093,-5.2853,-4.2137,1.8812,2924,2019-08-07 16:54:16:661
-0.7889,-13.055,-1.7312,-5.2161,4.732,8.8093,-5.2853,-4.2137,1.8812,2929,2019-08-07 16:54:16:666
-0.7889,-13.055,-1.7312,-4.9295,7.6331,4.9661,-4.7388,-3.0771,2.1763,2934,2019-08-07 16:54:16:671
-0.6071,-14.4537,0.8756,-4.9295,7.6331,4.9661,-4.7388,-3.0771,2.1763,2939,2019-08-07 16:54:16:676
-0.6071,-14.4537,0.8756,-4.9295,7.6331,4.9661,-4.0783,-2.1641,2.3723,2945,2019-08-07 16:54:16:682
-0.6071,-14.4537,0.8756,-4.9295,7.6331,4.9661,-4.0783,-2.1641,2.3723,2949,2019-08-07 16:54:16:686
0.6176,-14.9407,2.285,-6.7578,8.408,2.331,-3.5254,-1.5559,2.3713,2954,2019-08-07 16:54:16:691
0.6176,-14.9407,2.285,-6.7578,8.408,2.331,-3.5254,-1.5559,2.3713,2959,2019-08-07 16:54:16:696
1.7563,-14.912,1.8702,-6.7578,8.408,2.331,-3.5254,-1.5559,2.3713,2964,2019-08-07 16:54:16:701
1.7563,-14.912,1.8702,-6.7578,8.408,2.331,-3.4083,-1.2256,2.1028,2969,2019-08-07 16:54:16:706
1.7563,-14.912,1.8702,-7.9282,8.1745,2.2827,-3.4083,-1.2256,2.1028,2974,2019-08-07 16:54:16:711
1.8424,-14.8786,1.658,-7.9282,8.1745,2.2827,-3.175,-0.8198,1.9345,2978,2019-08-07 16:54:16:715
1.8424,-14.8786,1.658,-7.9282,8.1745,2.2827,-3.175,-0.8198,1.9345,2984,2019-08-07 16:54:16:721
0.9478,-15.9384,0.489,-7.9282,8.1745,2.2827,-2.6114,0.2881,1.8717,2989,2019-08-07 16:54:16:726
0.9478,-15.9384,0.489,-6.2196,9.7929,3.3147,-2.6114,0.2881,1.8717,2994,2019-08-07 16:54:16:731
0.9478,-15.9384,0.489,-6.2196,9.7929,3.3147,-2.1267,1.2117,1.7406,2999,2019-08-07 16:54:16:736
-1.6884,-16.8597,1.6298,-6.2196,9.7929,3.3147,-2.1267,1.2117,1.7406,3003,2019-08-07 16:54:16:740
-1.6884,-16.8597,1.6298,-6.2196,9.7929,3.3147,-2.1267,1.2117,1.7406,3009,2019-08-07 16:54:16:746
-4.1618,-16.411,3.6708,-6.2196,9.7929,3.3147,-1.7518,1.4716,1.5872,3014,2019-08-07 16:54:16:751
-4.1618,-16.411,3.6708,-0.4827,9.3988,-1.3807,-1.7518,1.4716,1.5872,3018,2019-08-07 16:54:16:755
-4.1618,-16.411,3.6708,-0.4827,9.3988,-1.3807,-1.2404,1.1563,1.4264,3024,2019-08-07 16:54:16:761
-8.4246,-14.7831,6.0796,-0.4827,9.3988,-1.3807,-1.2404,1.1563,1.4264,3028,2019-08-07 16:54:16:765
-8.4246,-14.7831,6.0796,1.6836,7.5977,-3.0841,-0.7057,-0.1465,1.2133,3034,2019-08-07 16:54:16:771
-7.8074,-13.6947,5.8958,1.6836,7.5977,-3.0841,-0.7057,-0.1465,1.2133,3039,2019-08-07 16:54:16:776
-7.8074,-13.6947,5.8958,1.6836,7.5977,-3.0841,-0.5448,-1.1575,0.9822,3044,2019-08-07 16:54:16:781
-7.8074,-13.6947,5.8958,1.6836,7.5977,-3.0841,-0.5448,-1.1575,0.9822,3049,2019-08-07 16:54:16:786
-5.6928,-12.8688,5.0426,-1.387,6.2158,-1.5669,-0.3573,-1.7082,0.7308,3054,2019-08-07 16:54:16:791
-5.6928,-12.8688,5.0426,-1.387,6.2158,-1.5669,-0.3573,-1.7082,0.7308,3059,2019-08-07 16:54:16:796
-4.2096,-12.3103,4.1281,-1.387,6.2158,-1.5669,-0.1411,-1.8158,0.5347,3064,2019-08-07 16:54:16:801
-4.2096,-12.3103,4.1281,-1.387,6.2158,-1.5669,-0.1411,-1.8158,0.5347,3069,2019-08-07 16:54:16:806
-4.2096,-12.3103,4.1281,-1.387,6.2158,-1.5669,-0.1411,-1.8158,0.5347,3074,2019-08-07 16:54:16:811
-2.5974,-11.6754,3.1995,-4.0004,5.2676,0.2132,0.1029,-1.4664,0.3185,3078,2019-08-07 16:54:16:815
-2.5974,-11.6754,3.1995,-4.0004,5.2676,0.2132,0.1029,-1.4664,0.3185,3084,2019-08-07 16:54:16:821
-2.5974,-11.6754,3.1995,-4.0004,5.2676,0.2132,0.2573,-0.7878,0.0511,3089,2019-08-07 16:54:16:826
-2.0711,-10.544,2.0917,-4.0004,5.2676,0.2132,0.2573,-0.7878,0.0511,3094,2019-08-07 16:54:16:831
-2.0711,-10.544,2.0917,-4.0909,3.6396,1.6063,0.2573,-0.7878,0.0511,3099,2019-08-07 16:54:16:836
-3.0232,-9.5988,1.8466,-4.0909,3.6396,1.6063,0.3447,-0.057,-0.1918,3103,2019-08-07 16:54:16:840
-3.0232,-9.5988,1.8466,-4.0909,3.6396,1.6063,0.3447,-0.057,-0.1918,3109,2019-08-07 16:54:16:846
-4.5637,-8.94,2.4594,-4.0909,3.6396,1.6063,0.3766,0.3648,-0.3153,3114,2019-08-07 16:54:16:851
-4.5637,-8.94,2.4594,-1.5655,2.4559,0.9394,0.3766,0.3648,-0.3153,3119,2019-08-07 16:54:16:856
-4.5637,-8.94,2.4594,-1.5655,2.4559,0.9394,0.3798,0.3552,-0.3803,3124,2019-08-07 16:54:16:861
-6.0085,-8.5294,3.2277,-0.4507,2.0769,0.3611,0.3798,0.3552,-0.3803,3128,2019-08-07 16:54:16:865
-6.0085,-8.5294,3.2277,-0.4507,2.0769,0.3611,0.3649,0.0878,-0.4208,3134,2019-08-07 16:54:16:871
-6.7644,-7.9279,3.5954,-0.4507,2.0769,0.3611,0.3649,0.0878,-0.4208,3139,2019-08-07 16:54:16:876
-6.7644,-7.9279,3.5954,-0.4507,2.0769,0.3611,0.3649,0.0878,-0.4208,3144,2019-08-07 16:54:16:881
-6.7644,-7.9279,3.5954,0.276,0.9207,0.1275,0.3319,-0.2967,-0.4314,3149,2019-08-07 16:54:16:886
-6.4487,-7.1784,3.3032,0.276,0.9207,0.1275,0.3319,-0.2967,-0.4314,3153,2019-08-07 16:54:16:890
-6.4487,-7.1784,3.3032,0.276,0.9207,0.1275,0.2584,-0.6579,-0.3974,3160,2019-08-07 16:54:16:897
-5.3866,-6.7536,2.7328,0.276,0.9207,0.1275,0.2584,-0.6579,-0.3974,3164,2019-08-07 16:54:16:901
-5.3866,-6.7536,2.7328,-1.0971,0.1436,1.126,0.187,-0.725,-0.3782,3169,2019-08-07 16:54:16:906
-5.3866,-6.7536,2.7328,-1.0971,0.1436,1.126,0.187,-0.725,-0.3782,3174,2019-08-07 16:54:16:911
-4.7215,-6.4958,2.2991,-1.0971,0.1436,1.126,0.1231,-0.6728,-0.3579,3179,2019-08-07 16:54:16:916
-4.7215,-6.4958,2.2991,-1.0971,0.1436,1.126,0.1231,-0.6728,-0.3579,3184,2019-08-07 16:54:16:921
-4.1953,-6.2666,1.922,-1.9581,-0.2561,1.919,0.0432,-0.3798,-0.3377,3189,2019-08-07 16:54:16:926
-4.1953,-6.2666,1.922,-1.9581,-0.2561,1.919,0.0432,-0.3798,-0.3377,3194,2019-08-07 16:54:16:931
-4.1953,-6.2666,1.922,-1.9581,-0.2561,1.919,-0.0026,-0.089,-0.3366,3198,2019-08-07 16:54:16:935
-4.3053,-6.3382,1.7523,-1.9581,-0.2561,1.919,-0.0026,-0.089,-0.3366,3204,2019-08-07 16:54:16:941
-4.3053,-6.3382,1.7523,-1.6686,-0.3575,2.0314,-0.042,0.2221,-0.3409,3209,2019-08-07 16:54:16:946
-4.3053,-6.3382,1.7523,-1.6686,-0.3575,2.0314,-0.042,0.2221,-0.3409,3214,2019-08-07 16:54:16:951
-4.8507,-6.3717,1.955,-1.6686,-0.3575,2.0314,-0.042,0.2221,-0.3409,3219,2019-08-07 16:54:16:956
-4.8507,-6.3717,1.955,-1.6686,-0.3575,2.0314,-0.0612,0.548,-0.3526,3224,2019-08-07 16:54:16:961
-5.7597,-6.3287,2.5018,-0.3681,-0.3499,1.2508,-0.0612,0.548,-0.3526,3229,2019-08-07 16:54:16:966
-5.7597,-6.3287,2.5018,-0.3681,-0.3499,1.2508,-0.0868,0.6279,-0.3409,3234,2019-08-07 16:54:16:971
-5.7597,-6.3287,2.5018,-0.3681,-0.3499,1.2508,-0.0868,0.6279,-0.3409,3238,2019-08-07 16:54:16:975
-6.6113,-6.2714,3.1806,-0.3681,-0.3499,1.2508,-0.107,0.5416,-0.3324,3244,2019-08-07 16:54:16:981
-6.6113,-6.2714,3.1806,0.7246,-0.4402,0.0479,-0.107,0.5416,-0.3324,3249,2019-08-07 16:54:16:986
-6.8744,-6.1759,3.7934,0.7246,-0.4402,0.0479,-0.107,0.5416,-0.3324,3254,2019-08-07 16:54:16:991
-6.8744,-6.1759,3.7934,0.7246,-0.4402,0.0479,-0.1198,0.2647,-0.3185,3259,2019-08-07 16:54:16:996
-6.8744,-6.1759,3.7934,0.7246,-0.4402,0.0479,-0.1198,0.2647,-0.3185,3265,2019-08-07 16:54:17:002
-6.5108,-6.1425,3.7698,0.2999,-0.65,-0.0914,-0.1326,0.0463,-0.294,3268,2019-08-07 16:54:17:005
-6.5108,-6.1425,3.7698,0.2999,-0.65,-0.0914,-0.1326,0.0463,-0.294,3274,2019-08-07 16:54:17:011
-5.7454,-6.1664,3.553,0.2999,-0.65,-0.0914,-0.1411,-0.0698,-0.2717,3278,2019-08-07 16:54:17:015
-5.7454,-6.1664,3.553,0.2999,-0.65,-0.0914,-0.1411,-0.0698,-0.2717,3284,2019-08-07 16:54:17:021
-5.7454,-6.1664,3.553,-0.9851,-0.6868,0.148,-0.1475,-0.0698,-0.2322,3288,2019-08-07 16:54:17:025
-4.9799,-6.1568,3.2985,-0.9851,-0.6868,0.148,-0.1475,-0.0698,-0.2322,3294,2019-08-07 16:54:17:031
-4.9799,-6.1568,3.2985,-1.3756,-0.6534,0.3842,-0.1411,0.0495,-0.1886,3299,2019-08-07 16:54:17:036
-4.9799,-6.1568,3.2985,-1.3756,-0.6534,0.3842,-0.1411,0.0495,-0.1886,3303,2019-08-07 16:54:17:040
-4.5349,-6.2284,3.1853,-1.3756,-0.6534,0.3842,-0.1134,0.2945,-0.1481,3310,2019-08-07 16:54:17:047
-4.5349,-6.2284,3.1853,-1.3756,-0.6534,0.3842,-0.1134,0.2945,-0.1481,3314,2019-08-07 16:54:17:051
-4.5062,-6.4576,3.1948,-1.5404,-0.4034,0.355,-0.1134,0.2945,-0.1481,3318,2019-08-07 16:54:17:055
-4.5062,-6.4576,3.1948,-1.5404,-0.4034,0.355,-0.0825,0.5502,-0.1172,3324,2019-08-07 16:54:17:061
-4.5062,-6.4576,3.1948,-1.5404,-0.4034,0.355,-0.0825,0.5502,-0.1172,3328,2019-08-07 16:54:17:065
-4.5302,-6.639,3.3173,-1.5404,-0.4034,0.355,-0.0292,0.7558,-0.0927,3334,2019-08-07 16:54:17:071
-4.5302,-6.639,3.3173,-1.2278,-0.2338,0.1862,-0.0292,0.7558,-0.0927,3339,2019-08-07 16:54:17:076
-4.5302,-6.639,3.3173,-1.2278,-0.2338,0.1862,0.0123,0.9294,-0.0746,3344,2019-08-07 16:54:17:081
-5.133,-6.6724,3.3079,-1.2278,-0.2338,0.1862,0.0123,0.9294,-0.0746,3349,2019-08-07 16:54:17:086
-5.133,-6.6724,3.3079,-1.2278,-0.2338,0.1862,0.056,1.0146,-0.0373,3354,2019-08-07 16:54:17:091
-6.042,-6.6438,3.8594,-1.2278,-0.2338,0.1862,0.056,1.0146,-0.0373,3359,2019-08-07 16:54:17:096
-6.042,-6.6438,3.8594,0.088,-0.2437,-0.7376,0.056,1.0146,-0.0373,3364,2019-08-07 16:54:17:101
-6.817,-6.5865,4.4958,0.088,-0.2437,-0.7376,0.0933,0.89,-0.0032,3369,2019-08-07 16:54:17:106
-6.817,-6.5865,4.4958,0.088,-0.2437,-0.7376,0.0933,0.89,-0.0032,3374,2019-08-07 16:54:17:111
-6.817,-6.5865,4.4958,0.088,-0.2437,-0.7376,0.1284,0.6428,0.0074,3378,2019-08-07 16:54:17:115
-7.2237,-6.5578,4.5806,0.9897,-0.3078,-1.3425,0.1284,0.6428,0.0074,3384,2019-08-07 16:54:17:121
-7.2237,-6.5578,4.5806,0.9897,-0.3078,-1.3425,0.1412,0.2306,0.0202,3389,2019-08-07 16:54:17:126
-7.2237,-6.5578,4.5806,0.9897,-0.3078,-1.3425,0.1412,0.2306,0.0202,3394,2019-08-07 16:54:17:131
-6.9414,-6.5435,4.5241,0.3967,-0.2559,-1.1794,0.1423,-0.0794,0.0373,3399,2019-08-07 16:54:17:136
-6.9414,-6.5435,4.5241,0.3967,-0.2559,-1.1794,0.1423,-0.0794,0.0373,3404,2019-08-07 16:54:17:141
-6.042,-6.6533,4.2412,0.3967,-0.2559,-1.1794,0.1423,-0.0794,0.0373,3409,2019-08-07 16:54:17:146
-6.042,-6.6533,4.2412,0.3967,-0.2559,-1.1794,0.1412,-0.2871,0.0351,3415,2019-08-07 16:54:17:152
-5.3483,-6.7918,3.5907,-0.8421,-0.0507,-0.2595,0.1412,-0.2871,0.0351,3419,2019-08-07 16:54:17:156
-5.3483,-6.7918,3.5907,-0.8421,-0.0507,-0.2595,0.1423,-0.2669,0.0202,3424,2019-08-07 16:54:17:161
-5.3483,-6.7918,3.5907,-0.8421,-0.0507,-0.2595,0.1423,-0.2669,0.0202,3428,2019-08-07 16:54:17:165
-4.9081,-6.935,3.223,-0.8421,-0.0507,-0.2595,0.1401,-0.1273,0.0064,3434,2019-08-07 16:54:17:171
-4.9081,-6.935,3.223,-0.8421,-0.0507,-0.2595,0.1401,-0.1273,0.0064,3438,2019-08-07 16:54:17:175
-4.9081,-6.935,3.223,-1.2961,0.1936,0.095,0.1423,0.058,-0.0107,3444,2019-08-07 16:54:17:181
-4.9416,-6.9732,3.2843,-1.2961,0.1936,0.095,0.1423,0.058,-0.0107,3449,2019-08-07 16:54:17:186
-4.9416,-6.9732,3.2843,-1.2961,0.1936,0.095,0.1636,0.2359,-0.0213,3454,2019-08-07 16:54:17:191
-5.0995,-6.9063,3.2136,-1.2961,0.1936,0.095,0.1636,0.2359,-0.0213,3460,2019-08-07 16:54:17:197
-5.0995,-6.9063,3.2136,-1.0244,0.0254,0.04,0.1859,0.3744,-0.0256,3464,2019-08-07 16:54:17:201
-5.0995,-6.9063,3.2136,-1.0244,0.0254,0.04,0.1859,0.3744,-0.0256,3468,2019-08-07 16:54:17:205
-5.4104,-6.6724,3.2089,-1.0244,0.0254,0.04,0.1859,0.4937,-0.0234,3474,2019-08-07 16:54:17:211
-5.4104,-6.6724,3.2089,-1.0244,0.0254,0.04,0.1859,0.4937,-0.0234,3479,2019-08-07 16:54:17:216
-5.4104,-6.6724,3.2089,-0.6415,-0.1972,0.0471,0.1721,0.5683,-0.0234,3483,2019-08-07 16:54:17:220
-5.7693,-6.534,3.3739,-0.6415,-0.1972,0.0471,0.1721,0.5683,-0.0234,3489,2019-08-07 16:54:17:226
-5.7693,-6.534,3.3739,-0.6415,-0.1972,0.0471,0.1721,0.5683,-0.0234,3493,2019-08-07 16:54:17:230
-6.2668,-6.429,3.4446,-0.6415,-0.1972,0.0471,0.1529,0.5928,-0.0149,3499,2019-08-07 16:54:17:236
-6.2668,-6.429,3.4446,0.1067,-0.3742,-0.1862,0.1529,0.5928,-0.0149,3504,2019-08-07 16:54:17:241
-6.2668,-6.429,3.4446,0.1067,-0.3742,-0.1862,0.1135,0.5342,-0.0064,3510,2019-08-07 16:54:17:247
-6.5874,-6.3239,3.5672,0.1067,-0.3742,-0.1862,0.1135,0.5342,-0.0064,3514,2019-08-07 16:54:17:251
-6.5874,-6.3239,3.5672,0.1067,-0.3742,-0.1862,0.1135,0.5342,-0.0064,3518,2019-08-07 16:54:17:255
-6.5874,-6.3239,3.5672,0.4643,-0.4885,-0.1993,0.0794,0.401,-0.0053,3524,2019-08-07 16:54:17:261
-6.7405,-6.2762,3.4163,0.4643,-0.4885,-0.1993,0.0453,0.253,-0.0021,3529,2019-08-07 16:54:17:266
-6.7405,-6.2762,3.4163,0.4643,-0.4885,-0.1993,0.0453,0.253,-0.0021,3534,2019-08-07 16:54:17:271
-6.4486,-6.3382,3.1948,0.4643,-0.4885,-0.1993,0.0453,0.253,-0.0021,3539,2019-08-07 16:54:17:276
-6.4486,-6.3382,3.1948,0.068,-0.4443,0.0228,0.007,0.0761,0.0117,3544,2019-08-07 16:54:17:281
-6.4486,-6.3382,3.1948,0.068,-0.4443,0.0228,0.007,0.0761,0.0117,3549,2019-08-07 16:54:17:286
-5.9032,-6.6485,2.9591,0.068,-0.4443,0.0228,-0.0207,0.0143,0.0032,3554,2019-08-07 16:54:17:291
-5.9032,-6.6485,2.9591,0.068,-0.4443,0.0228,-0.0207,0.0143,0.0032,3559,2019-08-07 16:54:17:296
-5.6353,-6.7918,2.6338,-0.6512,-0.0454,0.4915,-0.0314,0.0431,-0.0213,3564,2019-08-07 16:54:17:301
-5.6353,-6.7918,2.6338,-0.6512,-0.0454,0.4915,-0.0314,0.0431,-0.0213,3569,2019-08-07 16:54:17:306
-5.6353,-6.7918,2.6338,-0.6512,-0.0454,0.4915,-0.025,0.1486,-0.0437,3573,2019-08-07 16:54:17:310
-5.6353,-6.7965,2.5065,-0.6512,-0.0454,0.4915,-0.025,0.1486,-0.0437,3578,2019-08-07 16:54:17:315
-5.6353,-6.7965,2.5065,-0.6045,-0.0366,0.5238,-0.0133,0.2593,-0.0511,3584,2019-08-07 16:54:17:321
-5.6353,-6.7965,2.5065,-0.6045,-0.0366,0.5238,-0.0133,0.2593,-0.0511,3588,2019-08-07 16:54:17:325
-5.8745,-6.7679,2.5773,-0.6045,-0.0366,0.5238,-0.0058,0.3201,-0.0469,3594,2019-08-07 16:54:17:331
-5.8745,-6.7679,2.5773,-0.6045,-0.0366,0.5238,-0.0058,0.3201,-0.0469,3598,2019-08-07 16:54:17:335
-6.1711,-6.744,2.9921,-0.138,-0.0788,0.1513,-0.0058,0.3201,-0.0469,3604,2019-08-07 16:54:17:341
-6.1711,-6.744,2.9921,-0.138,-0.0788,0.1513,0.008,0.2913,-0.0543,3608,2019-08-07 16:54:17:345
-6.1711,-6.744,2.9921,-0.138,-0.0788,0.1513,0.008,0.2913,-0.0543,3615,2019-08-07 16:54:17:352
-6.439,-6.5865,3.1429,-0.138,-0.0788,0.1513,0.0187,0.1816,-0.0522,3618,2019-08-07 16:54:17:355
-6.439,-6.5865,3.1429,0.098,-0.2505,0.0307,0.0187,0.1816,-0.0522,3624,2019-08-07 16:54:17:361
-6.4056,-6.534,3.0769,0.098,-0.2505,0.0307,0.0144,0.0324,-0.0394,3628,2019-08-07 16:54:17:365
-6.4056,-6.534,3.0769,0.098,-0.2505,0.0307,0.0144,0.0324,-0.0394,3634,2019-08-07 16:54:17:371
-6.4056,-6.534,3.0769,0.098,-0.2505,0.0307,0.0059,-0.0954,-0.0362,3638,2019-08-07 16:54:17:375
-6.2381,-6.4576,3.0628,-0.0579,-0.3921,0.1083,0.0059,-0.0954,-0.0362,3644,2019-08-07 16:54:17:381
-6.2381,-6.4576,3.0628,-0.0579,-0.3921,0.1083,-0.0026,-0.1913,-0.0352,3649,2019-08-07 16:54:17:386
-6.2381,-6.4576,3.0628,-0.0579,-0.3921,0.1083,-0.0026,-0.1913,-0.0352,3653,2019-08-07 16:54:17:390
-5.8601,-6.4576,2.8837,-0.0579,-0.3921,0.1083,-0.0154,-0.2477,-0.0139,3660,2019-08-07 16:54:17:397
-5.8601,-6.4576,2.8837,-0.6769,-0.3004,0.394,-0.0154,-0.2477,-0.0139,3664,2019-08-07 16:54:17:401
-5.5252,-6.5626,2.6668,-0.6769,-0.3004,0.394,-0.026,-0.2275,-0.0021,3668,2019-08-07 16:54:17:405
-5.5252,-6.5626,2.6668,-0.6769,-0.3004,0.394,-0.026,-0.2275,-0.0021,3674,2019-08-07 16:54:17:411
-5.5252,-6.5626,2.6668,-0.6769,-0.3004,0.394,-0.025,-0.1327,-0.0053,3679,2019-08-07 16:54:17:416
-5.4391,-6.6295,2.516,-0.8293,-0.1914,0.61,-0.025,-0.1327,-0.0053,3684,2019-08-07 16:54:17:421
-5.4391,-6.6295,2.516,-0.8293,-0.1914,0.61,-0.0154,-0.0283,-0.0043,3689,2019-08-07 16:54:17:426
-5.5396,-6.7345,2.714,-0.8293,-0.1914,0.61,-0.0154,-0.0283,-0.0043,3694,2019-08-07 16:54:17:431
-5.5396,-6.7345,2.714,-0.8293,-0.1914,0.61,-0.0058,0.0442,0.0064,3699,2019-08-07 16:54:17:436
-5.5396,-6.7345,2.714,-0.5877,-0.1235,0.3191,-0.0058,0.0442,0.0064,3704,2019-08-07 16:54:17:441
-5.7788,-6.7249,2.9261,-0.5877,-0.1235,0.3191,-0.0026,0.0782,0.0117,3709,2019-08-07 16:54:17:446
-5.7788,-6.7249,2.9261,-0.5877,-0.1235,0.3191,-0.0026,0.0782,0.0117,3714,2019-08-07 16:54:17:451
-5.9463,-6.6342,3.1476,-0.5877,-0.1235,0.3191,-0.0026,0.0782,0.0117,3719,2019-08-07 16:54:17:456
-5.9463,-6.6342,3.1476,-0.5877,-0.1235,0.3191,0.0017,0.0495,0.017,3724,2019-08-07 16:54:17:461
-5.9463,-6.6342,3.1476,-0.2101,-0.1418,-0.0195,0.0017,0.0495,0.017,3729,2019-08-07 16:54:17:466
-6.1998,-6.6676,3.2136,-0.2101,-0.1418,-0.0195,-0.0037,-0.0176,0.0277,3733,2019-08-07 16:54:17:470
-6.1998,-6.6676,3.2136,-0.2101,-0.1418,-0.0195,-0.0037,-0.0176,0.0277,3739,2019-08-07 16:54:17:476
-6.1998,-6.6676,3.2136,-0.2101,-0.1418,-0.0195,-0.0101,-0.1103,0.0383,3744,2019-08-07 16:54:17:481
-6.3912,-6.7393,3.2089,0.1083,-0.0998,-0.0484,-0.0101,-0.1103,0.0383,3749,2019-08-07 16:54:17:486
-6.3912,-6.7393,3.2089,0.1083,-0.0998,-0.0484,-0.0122,-0.2094,0.0426,3753,2019-08-07 16:54:17:490
-6.5299,-6.7106,3.3173,0.1083,-0.0998,-0.0484,-0.0122,-0.2094,0.0426,3759,2019-08-07 16:54:17:496
-6.5299,-6.7106,3.3173,0.2352,-0.1078,-0.058,-0.0047,-0.3234,0.0543,3765,2019-08-07 16:54:17:502
-6.5299,-6.7106,3.3173,0.2352,-0.1078,-0.058,-0.0047,-0.3234,0.0543,3768,2019-08-07 16:54:17:505
-6.4008,-6.7011,3.2042,0.2352,-0.1078,-0.058,0.0123,-0.4086,0.0596,3774,2019-08-07 16:54:17:511
-6.4008,-6.7011,3.2042,0.2352,-0.1078,-0.058,0.0123,-0.4086,0.0596,3779,2019-08-07 16:54:17:516
-6.0276,-6.7249,2.8742,0.2352,-0.1078,-0.058,0.0262,-0.4341,0.0554,3784,2019-08-07 16:54:17:521
-6.0276,-6.7249,2.8742,-0.3351,-0.0711,0.3951,0.0262,-0.4341,0.0554,3788,2019-08-07 16:54:17:525
-6.0276,-6.7249,2.8742,-0.3351,-0.0711,0.3951,0.0368,-0.3756,0.0447,3794,2019-08-07 16:54:17:531
-5.4343,-6.7965,2.6527,-0.3351,-0.0711,0.3951,0.0368,-0.3756,0.0447,3799,2019-08-07 16:54:17:536
-5.4343,-6.7965,2.6527,-0.3351,-0.0711,0.3951,0.057,-0.2136,0.0224,3804,2019-08-07 16:54:17:541
-4.9703,-6.9159,2.2897,-1.2288,0.066,0.9216,0.057,-0.2136,0.0224,3809,2019-08-07 16:54:17:546
-4.9703,-6.9159,2.2897,-1.2288,0.066,0.9216,0.0933,0.0591,-0.0181,3814,2019-08-07 16:54:17:551
-4.9703,-6.9159,2.2897,-1.2288,0.066,0.9216,0.0933,0.0591,-0.0181,3819,2019-08-07 16:54:17:556
-5.0372,-6.8443,2.3274,-1.2288,0.066,0.9216,0.0933,0.0591,-0.0181,3823,2019-08-07 16:54:17:560
-5.0372,-6.8443,2.3274,-1.151,-0.0377,0.9452,0.122,0.3978,-0.0394,3829,2019-08-07 16:54:17:566
-5.0372,-6.8443,2.3274,-1.151,-0.0377,0.9452,0.122,0.3978,-0.0394,3833,2019-08-07 16:54:17:570
-5.2908,-6.8156,2.5725,-1.151,-0.0377,0.9452,0.1423,0.5981,-0.0426,3839,2019-08-07 16:54:17:576
-5.2908,-6.8156,2.5725,-1.151,-0.0377,0.9452,0.1423,0.5981,-0.0426,3844,2019-08-07 16:54:17:581
-5.8219,-6.7297,3.0015,-0.5614,-0.0623,0.2919,0.154,0.6727,-0.0405,3849,2019-08-07 16:54:17:586
-5.8219,-6.7297,3.0015,-0.5614,-0.0623,0.2919,0.154,0.6727,-0.0405,3853,2019-08-07 16:54:17:590
-5.8219,-6.7297,3.0015,-0.5614,-0.0623,0.2919,0.1508,0.6343,-0.0203,3859,2019-08-07 16:54:17:596
-6.2094,-6.6724,3.4116,-0.5614,-0.0623,0.2919,0.1508,0.6343,-0.0203,3864,2019-08-07 16:54:17:601
-6.2094,-6.6724,3.4116,0.0331,-0.1937,-0.3832,0.1433,0.4724,0.0117,3869,2019-08-07 16:54:17:606
-6.2094,-6.6724,3.4116,0.0331,-0.1937,-0.3832,0.1433,0.4724,0.0117,3874,2019-08-07 16:54:17:611
-6.4677,-6.6342,3.652,0.0331,-0.1937,-0.3832,0.138,0.2572,0.0522,3879,2019-08-07 16:54:17:616
-6.4677,-6.6342,3.652,0.0331,-0.1937,-0.3832,0.138,0.2572,0.0522,3884,2019-08-07 16:54:17:621
-6.3433,-6.6104,3.6096,0.0415,-0.2053,-0.5003,0.122,-0.0272,0.1023,3889,2019-08-07 16:54:17:626
-6.3433,-6.6104,3.6096,0.0415,-0.2053,-0.5003,0.122,-0.0272,0.1023,3894,2019-08-07 16:54:17:631
-6.3433,-6.6104,3.6096,0.0415,-0.2053,-0.5003,0.1071,-0.1955,0.1353,3899,2019-08-07 16:54:17:636
-5.9749,-6.6867,3.3833,0.0415,-0.2053,-0.5003,0.1071,-0.1955,0.1353,3904,2019-08-07 16:54:17:641
-5.9749,-6.6867,3.3833,-0.5349,-0.0822,-0.0414,0.1071,-0.1955,0.1353,3909,2019-08-07 16:54:17:646
-5.5826,-6.7345,3.0392,-0.5349,-0.0822,-0.0414,0.0933,-0.2829,0.1449,3914,2019-08-07 16:54:17:651
-5.5826,-6.7345,3.0392,-0.5349,-0.0822,-0.0414,0.0933,-0.2829,0.1449,3919,2019-08-07 16:54:17:656
-5.5826,-6.7345,3.0392,-0.5349,-0.0822,-0.0414,0.0933,-0.2829,0.1449,3924,2019-08-07 16:54:17:661
-5.4295,-6.8013,2.7941,-0.9024,0.0441,0.4436,0.0911,-0.2328,0.1459,3929,2019-08-07 16:54:17:666
-5.4295,-6.8013,2.7941,-0.9024,0.0441,0.4436,0.0911,-0.2328,0.1459,3934,2019-08-07 16:54:17:671
-5.5157,-6.8109,2.7988,-0.9024,0.0441,0.4436,0.089,-0.1082,0.1289,3939,2019-08-07 16:54:17:676
-5.5157,-6.8109,2.7988,-0.9024,0.0441,0.4436,0.089,-0.1082,0.1289,3944,2019-08-07 16:54:17:681
-5.5157,-6.8109,2.7988,-0.6602,-0.0089,0.4506,0.089,-0.1082,0.1289,3949,2019-08-07 16:54:17:686
-5.7453,-6.7536,2.9119,-0.6602,-0.0089,0.4506,0.0933,0.0047,0.1023,3954,2019-08-07 16:54:17:691
-5.7453,-6.7536,2.9119,-0.4796,-0.0248,0.3846,0.0933,0.0047,0.1023,3959,2019-08-07 16:54:17:696
-5.7453,-6.7536,2.9119,-0.4796,-0.0248,0.3846,0.0858,0.0697,0.0788,3963,2019-08-07 16:54:17:700
-6.0371,-6.6486,2.9308,-0.4796,-0.0248,0.3846,0.0858,0.0697,0.0788,3969,2019-08-07 16:54:17:706
-6.0371,-6.6486,2.9308,-0.4796,-0.0248,0.3846,0.0688,0.1102,0.0405,3974,2019-08-07 16:54:17:711
-6.1472,-6.5865,3.0675,-0.2112,-0.1323,0.1983,0.0688,0.1102,0.0405,3979,2019-08-07 16:54:17:716
-6.1472,-6.5865,3.0675,-0.2112,-0.1323,0.1983,0.0528,0.1113,0.016,3984,2019-08-07 16:54:17:721
-6.1472,-6.5865,3.0675,-0.2112,-0.1323,0.1983,0.0528,0.1113,0.016,3988,2019-08-07 16:54:17:725
-6.2811,-6.5626,3.1429,-0.2112,-0.1323,0.1983,0.0325,0.1059,-0.0064,3994,2019-08-07 16:54:17:731
-6.2811,-6.5626,3.1429,-0.0955,-0.2286,0.1188,0.0325,0.1059,-0.0064,3999,2019-08-07 16:54:17:736
-6.3242,-6.491,3.1476,-0.0955,-0.2286,0.1188,0.0112,0.0878,-0.0203,4004,2019-08-07 16:54:17:741
-6.3242,-6.491,3.1476,-0.0955,-0.2286,0.1188,0.0112,0.0878,-0.0203,4009,2019-08-07 16:54:17:746
-6.3242,-6.491,3.1476,-0.0955,-0.2286,0.1188,-0.0069,0.0537,-0.032,4014,2019-08-07 16:54:17:751
-6.2094,-6.5149,3.1665,-0.2122,-0.2644,0.0676,-0.0069,0.0537,-0.032,4019,2019-08-07 16:54:17:756
-6.2094,-6.5149,3.1665,-0.2122,-0.2644,0.0676,-0.0069,0.0537,-0.032,4024,2019-08-07 16:54:17:761
-6.0993,-6.4624,3.0911,-0.2122,-0.2644,0.0676,-0.0228,0.0335,-0.0479,4029,2019-08-07 16:54:17:766
-6.0993,-6.4624,3.0911,-0.2122,-0.2644,0.0676,-0.0228,0.0335,-0.0479,4034,2019-08-07 16:54:17:771
-6.0993,-6.4624,3.0911,-0.2319,-0.3535,0.182,-0.0282,0.0442,-0.0618,4038,2019-08-07 16:54:17:775
-6.1232,-6.3955,2.9685,-0.2319,-0.3535,0.182,-0.0282,0.0442,-0.0618,4044,2019-08-07 16:54:17:781
-6.1232,-6.3955,2.9685,-0.2319,-0.3535,0.182,-0.0399,0.0324,-0.0554,4049,2019-08-07 16:54:17:786
-6.1232,-6.3955,2.9685,-0.2319,-0.3535,0.182,-0.0399,0.0324,-0.0554,4054,2019-08-07 16:54:17:791
-6.018,-6.3573,3.1099,-0.3753,-0.3817,0.1492,-0.0431,0.0101,-0.0405,4059,2019-08-07 16:54:17:796
-6.018,-6.3573,3.1099,-0.3753,-0.3817,0.1492,-0.0431,0.0101,-0.0405,4064,2019-08-07 16:54:17:801
-6.018,-6.3573,3.1099,-0.3753,-0.3817,0.1492,-0.0442,-0.0102,-0.0245,4069,2019-08-07 16:54:17:806
-5.8266,-6.4051,2.9968,-0.3753,-0.3817,0.1492,-0.0442,-0.0102,-0.0245,4074,2019-08-07 16:54:17:811
-5.8266,-6.4051,2.9968,-0.3753,-0.3817,0.1492,-0.0442,-0.0102,-0.0245,4079,2019-08-07 16:54:17:816
-5.8553,-6.4099,2.9497,-0.5484,-0.3025,0.2561,-0.0314,0.0442,-0.0117,4083,2019-08-07 16:54:17:820
-5.8553,-6.4099,2.9497,-0.5484,-0.3025,0.2561,-0.0314,0.0442,-0.0117,4089,2019-08-07 16:54:17:826
-6.0228,-6.3383,2.9638,-0.5484,-0.3025,0.2561,-0.0228,0.0665,0.0213,4094,2019-08-07 16:54:17:831
-6.0228,-6.3383,2.9638,-0.5484,-0.3025,0.2561,-0.0228,0.0665,0.0213,4099,2019-08-07 16:54:17:836
-6.0228,-6.3383,2.9638,-0.381,-0.4081,0.1556,-0.0133,0.0442,0.0479,4104,2019-08-07 16:54:17:841
-5.9271,-6.4146,3.0722,-0.381,-0.4081,0.1556,-0.0133,0.0442,0.0479,4109,2019-08-07 16:54:17:846
-5.9271,-6.4146,3.0722,-0.381,-0.4081,0.1556,-0.0026,0.0133,0.0639,4114,2019-08-07 16:54:17:851
-5.9271,-6.4146,3.0722,-0.381,-0.4081,0.1556,-0.0026,0.0133,0.0639,4119,2019-08-07 16:54:17:856
-6.0036,-6.4003,3.0345,-0.3663,-0.3345,0.1753,0.0038,0.026,0.0724,4124,2019-08-07 16:54:17:861
-6.0036,-6.4003,3.0345,-0.3663,-0.3345,0.1753,0.0038,0.026,0.0724,4129,2019-08-07 16:54:17:866
-6.0515,-6.3955,3.0439,-0.3663,-0.3345,0.1753,0.0134,0.0388,0.0863,4133,2019-08-07 16:54:17:870
-6.0515,-6.3955,3.0439,-0.3663,-0.3345,0.1753,0.0134,0.0388,0.0863,4139,2019-08-07 16:54:17:876
-6.0515,-6.3955,3.0439,-0.1786,-0.2185,0.2098,0.0208,0.0367,0.098,4144,2019-08-07 16:54:17:881
-6.1902,-6.5435,3.0345,-0.1786,-0.2185,0.2098,0.0208,0.0367,0.098,4148,2019-08-07 16:54:17:885
-6.1902,-6.5435,3.0345,-0.1786,-0.2185,0.2098,0.0368,0.0292,0.0948,4154,2019-08-07 16:54:17:891
-6.2428,-6.6915,3.1382,-0.1786,-0.2185,0.2098,0.0368,0.0292,0.0948,4158,2019-08-07 16:54:17:895
-6.2428,-6.6915,3.1382,-0.1552,-0.0087,0.0682,0.0496,0.0079,0.0884,4164,2019-08-07 16:54:17:901
-6.2428,-6.6915,3.1382,-0.1552,-0.0087,0.0682,0.0496,0.0079,0.0884,4169,2019-08-07 16:54:17:906
-6.1663,-6.7393,3.1759,-0.1552,-0.0087,0.0682,0.0496,0.0079,0.0884,4174,2019-08-07 16:54:17:911
-6.1663,-6.7393,3.1759,-0.1552,-0.0087,0.0682,0.0709,0.0165,0.0756,4179,2019-08-07 16:54:17:916
-6.0945,-6.7011,3.0439,-0.362,0.0285,0.2018,0.0709,0.0165,0.0756,4184,2019-08-07 16:54:17:921
-6.0945,-6.7011,3.0439,-0.362,0.0285,0.2018,0.0869,0.0559,0.0554,4189,2019-08-07 16:54:17:926
-6.0945,-6.7011,3.0439,-0.362,0.0285,0.2018,0.0869,0.0559,0.0554,4194,2019-08-07 16:54:17:931
-6.1567,-6.682,2.9874,-0.362,0.0285,0.2018,0.0911,0.0932,0.0405,4199,2019-08-07 16:54:17:936
-6.1567,-6.682,2.9874,-0.2527,0.0439,0.2035,0.0911,0.0932,0.0405,4203,2019-08-07 16:54:17:940
-6.1567,-6.682,2.9874,-0.2527,0.0439,0.2035,0.0869,0.1027,0.017,4210,2019-08-07 16:54:17:947
-6.2141,-6.6724,3.1618,-0.2527,0.0439,0.2035,0.0869,0.1027,0.017,4215,2019-08-07 16:54:17:952
-6.2141,-6.6724,3.1618,-0.2527,0.0439,0.2035,0.0869,0.0846,0.0053,4219,2019-08-07 16:54:17:956
-6.2141,-6.6724,3.1618,-0.2319,0.0174,0.0418,0.0869,0.0846,0.0053,4224,2019-08-07 16:54:17:961
-6.1902,-6.7011,3.1806,-0.2319,0.0174,0.0418,0.0869,0.0846,0.0053,4229,2019-08-07 16:54:17:966
-6.1902,-6.7011,3.1806,-0.2319,0.0174,0.0418,0.0933,0.0825,-0.0085,4234,2019-08-07 16:54:17:971
-6.1806,-6.5817,3.2042,-0.2319,0.0174,0.0418,0.0933,0.0825,-0.0085,4238,2019-08-07 16:54:17:975
-6.1806,-6.5817,3.2042,-0.2639,-0.1408,-0.0081,0.0794,0.0644,-0.0096,4244,2019-08-07 16:54:17:981
-6.1806,-6.5817,3.2042,-0.2639,-0.1408,-0.0081,0.0794,0.0644,-0.0096,4249,2019-08-07 16:54:17:986
-6.1424,-6.5483,3.2372,-0.2639,-0.1408,-0.0081,0.0698,0.0484,-0.0096,4254,2019-08-07 16:54:17:991
-6.1424,-6.5483,3.2372,-0.2639,-0.1408,-0.0081,0.0698,0.0484,-0.0096,4260,2019-08-07 16:54:17:997
-6.1424,-6.4719,3.2136,-0.2362,-0.1854,-0.0319,0.0677,0.025,-0.0139,4264,2019-08-07 16:54:18:001
-6.1902,-6.4719,3.2136,-0.2362,-0.1854,-0.0319,0.0677,0.025,-0.0139,4268,2019-08-07 16:54:18:005
-6.1902,-6.4719,3.2136,-0.2362,-0.1854,-0.0319,0.0613,-0.0102,-0.0139,4274,2019-08-07 16:54:18:011
-6.1471,-6.4051,3.3173,-0.2362,-0.1854,-0.0319,0.0613,-0.0102,-0.0139,4279,2019-08-07 16:54:18:016
-6.1471,-6.4051,3.3173,-0.3245,-0.2546,-0.0265,0.0624,-0.0368,-0.0149,4283,2019-08-07 16:54:18:020
-6.0706,-6.343,3.1665,-0.3245,-0.2546,-0.0265,0.0624,-0.0368,-0.0149,4289,2019-08-07 16:54:18:026
-6.0706,-6.343,3.1665,-0.3245,-0.2546,-0.0265,0.056,-0.0272,-0.0245,4294,2019-08-07 16:54:18:031
-6.0706,-6.343,3.1665,-0.3245,-0.2546,-0.0265,0.056,-0.0272,-0.0245,4299,2019-08-07 16:54:18:036
-6.0706,-6.3335,3.1806,-0.3524,-0.3351,0.0614,0.056,-0.0272,-0.0245,4304,2019-08-07 16:54:18:041
-6.0706,-6.3335,3.1806,-0.3524,-0.3351,0.0614,0.0517,-0.0048,-0.032,4309,2019-08-07 16:54:18:046
-6.0658,-6.3574,3.2372,-0.3524,-0.3351,0.0614,0.0507,0.0143,-0.0384,4314,2019-08-07 16:54:18:051
-6.0658,-6.3574,3.2372,-0.3524,-0.3351,0.0614,0.0507,0.0143,-0.0384,4319,2019-08-07 16:54:18:056
-6.0658,-6.3574,3.2372,-0.3381,-0.2744,0.1057,0.0507,0.0143,-0.0384,4323,2019-08-07 16:54:18:060
-5.994,-6.4099,3.1524,-0.3381,-0.2744,0.1057,0.0528,0.041,-0.0405,4329,2019-08-07 16:54:18:066
-5.994,-6.4099,3.1524,-0.3381,-0.2744,0.1057,0.0528,0.041,-0.0405,4334,2019-08-07 16:54:18:071
-5.994,-6.4099,3.1524,-0.3381,-0.2744,0.1057,0.0645,0.0665,-0.0341,4339,2019-08-07 16:54:18:076
-6.0802,-6.3335,3.1571,-0.3745,-0.3378,0.1398,0.0645,0.0665,-0.0341,4344,2019-08-07 16:54:18:081
-6.0802,-6.3335,3.1571,-0.3745,-0.3378,0.1398,0.072,0.091,-0.0277,4349,2019-08-07 16:54:18:086
-6.0802,-6.3335,3.1571,-0.3745,-0.3378,0.1398,0.072,0.091,-0.0277,4353,2019-08-07 16:54:18:090
-6.1136,-6.2905,3.1476,-0.3745,-0.3378,0.1398,0.0847,0.0921,-0.0096,4359,2019-08-07 16:54:18:096
-6.1136,-6.2905,3.1476,-0.3011,-0.4307,0.0917,0.0847,0.0921,-0.0096,4365,2019-08-07 16:54:18:102
-6.0945,-6.281,3.1901,-0.3011,-0.4307,0.0917,0.089,0.0719,0.0064,4368,2019-08-07 16:54:18:105
-6.0945,-6.281,3.1901,-0.3011,-0.4307,0.0917,0.089,0.0719,0.0064,4374,2019-08-07 16:54:18:111
-6.0945,-6.281,3.1901,-0.3011,-0.4307,0.0917,0.0922,0.0516,0.016,4378,2019-08-07 16:54:18:115
-6.1567,-6.2523,3.1901,-0.2159,-0.3752,0.0679,0.0922,0.0516,0.016,4384,2019-08-07 16:54:18:121
-6.1567,-6.2523,3.1901,-0.2159,-0.3752,0.0679,0.0997,0.0143,0.033,4388,2019-08-07 16:54:18:125
-6.171,-6.3335,3.2089,-0.2159,-0.3752,0.0679,0.0997,0.0143,0.033,4394,2019-08-07 16:54:18:131
-6.171,-6.3335,3.2089,-0.2159,-0.3752,0.0679,0.1029,-0.0283,0.0469,4399,2019-08-07 16:54:18:136
-6.171,-6.3335,3.2089,-0.4217,-0.268,0.0683,0.1029,-0.0283,0.0469,4404,2019-08-07 16:54:18:141
-5.994,-6.3717,3.2278,-0.4217,-0.268,0.0683,0.1029,-0.0283,0.0469,4409,2019-08-07 16:54:18:146
-5.994,-6.3717,3.2278,-0.4217,-0.268,0.0683,0.1092,-0.0592,0.0522,4414,2019-08-07 16:54:18:151
-5.9558,-6.3812,3.0298,-0.4217,-0.268,0.0683,0.1199,-0.0538,0.0575,4419,2019-08-07 16:54:18:156
-5.9558,-6.3812,3.0298,-0.4217,-0.268,0.0683,0.1199,-0.0538,0.0575,4423,2019-08-07 16:54:18:160
-5.9558,-6.3812,3.0298,-0.5297,-0.2924,0.2747,0.1199,-0.0538,0.0671,4429,2019-08-07 16:54:18:166
-5.9558,-6.3955,3.0816,-0.5297,-0.2924,0.2747,0.1199,-0.0219,0.0671,4433,2019-08-07 16:54:18:170
-5.9558,-6.3955,3.0816,-0.5297,-0.2924,0.2747,0.1199,-0.0219,0.0671,4439,2019-08-07 16:54:18:176
-5.9988,-6.3955,3.1099,-0.4409,-0.2242,0.1983,0.1167,-6.0E-4,0.0671,4444,2019-08-07 16:54:18:181
-5.9988,-6.3955,3.1099,-0.4409,-0.2242,0.1983,0.1167,-6.0E-4,0.0671,4448,2019-08-07 16:54:18:185
-5.9988,-6.3955,3.1099,-0.4409,-0.2242,0.1983,0.1178,0.0122,0.0564,4454,2019-08-07 16:54:18:191
-6.061,-6.4337,3.1052,-0.4409,-0.2242,0.1983,0.1178,0.0122,0.0564,4459,2019-08-07 16:54:18:196
-6.061,-6.4337,3.1052,-0.4409,-0.2242,0.1983,0.1178,0.0122,0.0564,4464,2019-08-07 16:54:18:201
-6.061,-6.4337,3.1052,-0.3386,-0.2336,0.2028,0.1242,0.0399,0.0458,4469,2019-08-07 16:54:18:206
-6.171,-6.3717,3.2796,-0.3386,-0.2336,0.2028,0.1242,0.0399,0.0458,4474,2019-08-07 16:54:18:211
-6.171,-6.3717,3.2796,-0.3386,-0.2336,0.2028,0.122,0.058,0.0405,4479,2019-08-07 16:54:18:216
-6.171,-6.3717,3.2796,-0.3386,-0.2336,0.2028,0.122,0.058,0.0405,4484,2019-08-07 16:54:18:221
-6.1902,-6.3812,3.2325,-0.2659,-0.2107,0.0994,0.1188,0.0665,0.0266,4488,2019-08-07 16:54:18:225
-6.1902,-6.3812,3.2325,-0.2659,-0.2107,0.0994,0.1188,0.0665,0.0266,4494,2019-08-07 16:54:18:231
-6.2811,-6.3764,3.2608,-0.2659,-0.2107,0.0994,0.1114,0.058,0.0042,4498,2019-08-07 16:54:18:235
-6.2811,-6.3764,3.2608,-0.2659,-0.2107,0.0994,0.1114,0.058,0.0042,4503,2019-08-07 16:54:18:240
-6.2811,-6.3764,3.2608,-0.1706,-0.1828,0.1399,0.0965,0.0442,-0.0096,4510,2019-08-07 16:54:18:247
-6.2859,-6.4099,3.2419,-0.1706,-0.1828,0.1399,0.0965,0.0442,-0.0096,4514,2019-08-07 16:54:18:251
-6.2859,-6.4099,3.2419,-0.1706,-0.1828,0.1399,0.0805,0.0239,-0.0213,4520,2019-08-07 16:54:18:257
-6.1519,-6.3955,3.3645,-0.1706,-0.1828,0.1399,0.0805,0.0239,-0.0213,4524,2019-08-07 16:54:18:261
-6.1519,-6.3955,3.3645,-0.3279,-0.1651,0.011,0.0656,0.0026,-0.0266,4529,2019-08-07 16:54:18:266
-6.1519,-6.3955,3.3645,-0.3279,-0.1651,0.011,0.0656,0.0026,-0.0266,4534,2019-08-07 16:54:18:271
-6.0801,-6.386,3.2608,-0.3279,-0.1651,0.011,0.0656,0.0026,-0.0266,4538,2019-08-07 16:54:18:275
-6.0801,-6.386,3.2608,-0.3279,-0.1651,0.011,0.0507,0.0197,-0.0277,4544,2019-08-07 16:54:18:281
-6.0514,-6.3287,3.2419,-0.4053,-0.2181,0.1402,0.0507,0.0197,-0.0277,4549,2019-08-07 16:54:18:286
-6.0514,-6.3287,3.2419,-0.4053,-0.2181,0.1402,0.0219,0.0197,-0.0245,4554,2019-08-07 16:54:18:291
-6.0514,-6.3287,3.2419,-0.4053,-0.2181,0.1402,0.0219,0.0197,-0.0245,4559,2019-08-07 16:54:18:296
-6.0706,-6.3812,3.2231,-0.4053,-0.2181,0.1402,0.0038,0.0186,-0.0234,4564,2019-08-07 16:54:18:301
-6.0706,-6.3812,3.2231,-0.326,-0.2539,0.0889,0.0038,0.0186,-0.0234,4569,2019-08-07 16:54:18:306
-6.0706,-6.3812,3.2231,-0.326,-0.2539,0.0889,0.0038,0.0186,-0.0234,4574,2019-08-07 16:54:18:311
-6.1615,-6.3144,3.2561,-0.3245,-0.2462,0.1353,-0.0037,0.0047,-0.0245,4580,2019-08-07 16:54:18:317
-6.1615,-6.3144,3.2561,-0.3245,-0.2462,0.1353,-0.0037,0.0047,-0.0245,4584,2019-08-07 16:54:18:321
-6.1615,-6.3144,3.2561,-0.3245,-0.2462,0.1353,-0.0197,-0.0144,-0.0224,4588,2019-08-07 16:54:18:325
-5.9749,-6.3669,3.1146,-0.3245,-0.2462,0.1353,-0.0197,-0.0144,-0.0224,4594,2019-08-07 16:54:18:331
-5.9749,-6.3669,3.1146,-0.4964,-0.2183,0.2049,-0.0197,-0.0144,-0.0224,4599,2019-08-07 16:54:18:336
-5.9557,-6.3335,3.1288,-0.4964,-0.2183,0.2049,-0.026,-0.0048,-0.0394,4603,2019-08-07 16:54:18:340
-5.9557,-6.3335,3.1288,-0.4964,-0.2183,0.2049,-0.026,-0.0048,-0.0394,4609,2019-08-07 16:54:18:346
-5.9557,-6.3335,3.1288,-0.4964,-0.2183,0.2049,-0.0186,0.0442,-0.0405,4614,2019-08-07 16:54:18:351
-5.9844,-6.2667,3.1618,-0.444,-0.2977,0.1984,-0.0186,0.0442,-0.0405,4618,2019-08-07 16:54:18:355
-5.9844,-6.2667,3.1618,-0.444,-0.2977,0.1984,-0.0228,0.0687,-0.0373,4624,2019-08-07 16:54:18:361
-6.0514,-6.2667,3.1476,-0.391,-0.3344,0.1925,-0.0228,0.0687,-0.0373,4629,2019-08-07 16:54:18:366
-6.0514,-6.2667,3.1476,-0.391,-0.3344,0.1925,-0.026,0.074,-0.0394,4634,2019-08-07 16:54:18:371
-6.0514,-6.2667,3.1476,-0.391,-0.3344,0.1925,-0.026,0.074,-0.0394,4639,2019-08-07 16:54:18:376
-6.1758,-6.3144,3.1665,-0.391,-0.3344,0.1925,-0.0228,0.0559,-0.0341,4643,2019-08-07 16:54:18:380
-6.1758,-6.3144,3.1665,-0.2473,-0.3408,0.1662,-0.0228,0.0559,-0.0341,4649,2019-08-07 16:54:18:386
-6.1758,-6.3144,3.1665,-0.2473,-0.3408,0.1662,-0.0228,0.0559,-0.0341,4654,2019-08-07 16:54:18:391
-6.1519,-6.3478,3.1759,-0.2473,-0.3408,0.1662,-0.0271,0.0079,-0.0192,4659,2019-08-07 16:54:18:396
-6.1519,-6.3478,3.1759,-0.2473,-0.3408,0.1662,-0.0271,0.0079,-0.0192,4664,2019-08-07 16:54:18:401
-6.128,-6.3383,3.1052,-0.312,-0.2738,0.218,-0.0282,-0.0134,-0.016,4669,2019-08-07 16:54:18:406
-6.128,-6.3383,3.1052,-0.312,-0.2738,0.218,-0.0282,-0.0134,-0.016,4674,2019-08-07 16:54:18:411
-6.128,-6.3383,3.1052,-0.312,-0.2738,0.218,-0.0239,-0.0389,-0.0064,4679,2019-08-07 16:54:18:416
-6.104,-6.343,3.0157,-0.312,-0.2738,0.218,-0.0239,-0.0389,-0.0064,4685,2019-08-07 16:54:18:422
-6.104,-6.343,3.0157,-0.3234,-0.2955,0.2986,-0.0314,-0.0464,0.0096,4689,2019-08-07 16:54:18:426
-6.104,-6.343,3.0157,-0.3234,-0.2955,0.2986,-0.0314,-0.0464,0.0096,4694,2019-08-07 16:54:18:431
-6.1758,-6.2953,3.0439,-0.3234,-0.2955,0.2986,-0.0303,-0.0421,0.0181,4699,2019-08-07 16:54:18:436
-6.1758,-6.2953,3.0439,-0.3234,-0.2955,0.2986,-0.0303,-0.0421,0.0181,4704,2019-08-07 16:54:18:441
-6.1758,-6.2953,3.0439,-0.3234,-0.2955,0.2986,-0.0303,-0.0421,0.0181,4709,2019-08-07 16:54:18:446
-6.1854,-6.3192,3.0298,-0.2514,-0.2954,0.2946,-0.0239,-0.0517,0.0277,4714,2019-08-07 16:54:18:451
-6.1854,-6.3192,3.0298,-0.2514,-0.2954,0.2946,-0.0239,-0.0517,0.0277,4719,2019-08-07 16:54:18:456
-6.0849,-6.3621,2.9827,-0.2514,-0.2954,0.2946,-0.0218,-0.0464,0.0298,4724,2019-08-07 16:54:18:461
-6.0849,-6.3621,2.9827,-0.3717,-0.2078,0.3484,-0.0218,-0.0464,0.0298,4729,2019-08-07 16:54:18:466
-6.0849,-6.3621,2.9827,-0.3717,-0.2078,0.3484,-0.0239,-0.0198,0.0213,4734,2019-08-07 16:54:18:471
-6.1232,-6.3526,2.912,-0.3717,-0.2078,0.3484,-0.0239,-0.0198,0.0213,4739,2019-08-07 16:54:18:476
-6.1232,-6.3526,2.912,-0.3717,-0.2078,0.3484,-0.0239,-0.0198,0.0213,4744,2019-08-07 16:54:18:481
-6.1423,-6.3144,2.9072,-0.2785,-0.3312,0.411,-0.0228,0.0026,0.0213,4749,2019-08-07 16:54:18:486
-6.1423,-6.3144,2.9072,-0.2785,-0.3312,0.411,-0.0228,0.0026,0.0213,4754,2019-08-07 16:54:18:491
-6.1423,-6.3144,2.9072,-0.2785,-0.3312,0.411,-0.0143,0.0367,0.017,4759,2019-08-07 16:54:18:496
-6.2428,-6.3239,2.9308,-0.2785,-0.3312,0.411,-0.0143,0.0367,0.017,4764,2019-08-07 16:54:18:501
-6.2428,-6.3239,2.9308,-0.159,-0.2018,0.4214,-0.0165,0.0356,0.0074,4768,2019-08-07 16:54:18:505
-6.2428,-6.3239,2.9308,-0.159,-0.2018,0.4214,-0.0165,0.0356,0.0074,4774,2019-08-07 16:54:18:511
-6.2906,-6.4433,3.011,-0.159,-0.2018,0.4214,-0.0271,0.0165,0.0042,4779,2019-08-07 16:54:18:516
-6.2906,-6.4433,3.011,-0.1654,-0.2167,0.2853,-0.0271,0.0165,0.0042,4783,2019-08-07 16:54:18:520
-6.2045,-6.386,3.0581,-0.1654,-0.2167,0.2853,-0.0197,0.0015,-0.0011,4789,2019-08-07 16:54:18:526
-6.2045,-6.386,3.0581,-0.1654,-0.2167,0.2853,-0.0197,0.0015,-0.0011,4794,2019-08-07 16:54:18:531
-6.2045,-6.386,3.0581,-0.1654,-0.2167,0.2853,-0.0154,5.0E-4,-0.0043,4799,2019-08-07 16:54:18:536
-6.1949,-6.3812,2.9308,-0.29,-0.2139,0.408,-0.0154,5.0E-4,-0.0043,4804,2019-08-07 16:54:18:541
-6.1949,-6.3812,2.9308,-0.29,-0.2139,0.408,-0.0154,5.0E-4,-0.0043,4809,2019-08-07 16:54:18:546
-6.1949,-6.3812,2.9308,-0.29,-0.2139,0.408,-0.0228,-0.0038,0.0032,4813,2019-08-07 16:54:18:550
-6.1184,-6.4051,2.9402,-0.29,-0.2139,0.408,-0.0228,-0.0038,0.0032,4819,2019-08-07 16:54:18:556
-6.1184,-6.4051,2.9402,-0.3664,-0.2448,0.3285,-0.0282,-6.0E-4,0.0021,4824,2019-08-07 16:54:18:561
-6.0705,-6.3383,2.9874,-0.3664,-0.2448,0.3285,-0.0282,-6.0E-4,0.0021,4829,2019-08-07 16:54:18:566
-6.0705,-6.3383,2.9874,-0.3664,-0.2448,0.3285,-0.026,-6.0E-4,-0.0011,4835,2019-08-07 16:54:18:572
-6.0705,-6.3383,2.9874,-0.3664,-0.2448,0.3285,-0.026,-6.0E-4,-0.0011,4839,2019-08-07 16:54:18:576
-6.104,-6.3335,2.9402,-0.3473,-0.3,0.3277,-0.0303,0.0079,-0.0011,4844,2019-08-07 16:54:18:581
-6.104,-6.3335,2.9402,-0.3473,-0.3,0.3277,-0.0303,0.0079,-0.0011,4848,2019-08-07 16:54:18:585
-6.104,-6.3335,2.9402,-0.3473,-0.3,0.3277,-0.0399,0.0335,-0.0053,4854,2019-08-07 16:54:18:591
-6.1136,-6.3144,2.9732,-0.3473,-0.3,0.3277,-0.0399,0.0335,-0.0053,4859,2019-08-07 16:54:18:596
-6.1136,-6.3144,2.9732,-0.3436,-0.2462,0.2761,-0.041,0.0537,-0.0043,4864,2019-08-07 16:54:18:601
-6.1471,-6.3812,3.0534,-0.3436,-0.2462,0.2761,-0.041,0.0537,-0.0043,4869,2019-08-07 16:54:18:606
-6.1471,-6.3812,3.0534,-0.3436,-0.2462,0.2761,-0.041,0.0537,-0.0043,4874,2019-08-07 16:54:18:611
-6.1471,-6.3812,3.0534,-0.3436,-0.2462,0.2761,-0.0399,0.0729,0.0,4879,2019-08-07 16:54:18:616
-6.1949,-6.4003,2.9638,-0.2566,-0.2259,0.3084,-0.0399,0.0729,0.0,4884,2019-08-07 16:54:18:621
-6.1949,-6.4003,2.9638,-0.2566,-0.2259,0.3084,-0.0431,0.0942,-0.0085,4888,2019-08-07 16:54:18:625
-6.3094,-6.3765,3.1006,-0.2566,-0.2259,0.3084,-0.0431,0.0942,-0.0085,4894,2019-08-07 16:54:18:631
-6.3094,-6.3765,3.1006,-0.2566,-0.2259,0.3084,-0.0367,0.0761,-0.0064,4899,2019-08-07 16:54:18:636
-6.3094,-6.3765,3.1006,-0.0852,-0.2627,0.1495,-0.0367,0.0761,-0.0064,4904,2019-08-07 16:54:18:641
-6.3572,-6.3383,3.1383,-0.0852,-0.2627,0.1495,-0.0367,0.0761,-0.0064,4909,2019-08-07 16:54:18:646
-6.3572,-6.3383,3.1383,-0.0852,-0.2627,0.1495,-0.0378,0.0442,-0.0011,4914,2019-08-07 16:54:18:651
-6.2663,-6.4004,3.1477,-0.0852,-0.2627,0.1495,-0.0378,0.0442,-0.0011,4918,2019-08-07 16:54:18:655
-6.2663,-6.4004,3.1477,-0.1885,-0.27,0.0587,-0.0399,0.0122,-0.0064,4924,2019-08-07 16:54:18:661
-6.2663,-6.4004,3.1477,-0.1885,-0.27,0.0587,-0.0399,0.0122,-0.0064,4929,2019-08-07 16:54:18:666
-6.2376,-6.2715,3.1195,-0.1885,-0.27,0.0587,-0.0442,0.0069,0.0021,4933,2019-08-07 16:54:18:670
-6.2376,-6.2715,3.1195,-0.1885,-0.27,0.0587,-0.0442,0.0069,0.0021,4939,2019-08-07 16:54:18:676
-6.1228,-6.3335,3.0723,-0.3377,-0.3009,0.1653,-0.0452,0.0069,0.0096,4944,2019-08-07 16:54:18:681
-6.1228,-6.3335,3.0723,-0.3377,-0.3009,0.1653,-0.0452,0.0069,0.0096,4949,2019-08-07 16:54:18:686
-6.1228,-6.3335,3.0723,-0.3377,-0.3009,0.1653,-0.0474,0.0175,0.016,4954,2019-08-07 16:54:18:691
-6.0462,-6.3526,3.0676,-0.3377,-0.3009,0.1653,-0.0474,0.0175,0.016,4958,2019-08-07 16:54:18:695
-6.0462,-6.3526,3.0676,-0.3832,-0.2835,0.1145,-0.0474,0.0303,0.0234,4964,2019-08-07 16:54:18:701
-6.0462,-6.3526,3.0676,-0.3832,-0.2835,0.1145,-0.0474,0.0303,0.0234,4969,2019-08-07 16:54:18:706
-6.051,-6.4051,3.143,-0.3832,-0.2835,0.1145,-0.0474,0.0303,0.0234,4974,2019-08-07 16:54:18:711
-6.051,-6.4051,3.143,-0.3832,-0.2835,0.1145,-0.042,0.0569,0.0309,4979,2019-08-07 16:54:18:716
-6.1658,-6.4004,3.1195,-0.3036,-0.2352,0.098,-0.042,0.0569,0.0309,4984,2019-08-07 16:54:18:721
-6.1658,-6.4004,3.1195,-0.3036,-0.2352,0.098,-0.0378,0.0633,0.0309,4989,2019-08-07 16:54:18:726
-6.1658,-6.4004,3.1195,-0.3036,-0.2352,0.098,-0.0378,0.0633,0.0309,4994,2019-08-07 16:54:18:731
-6.2806,-6.4338,3.1242,-0.3036,-0.2352,0.098,-0.0346,0.0442,0.0362,4999,2019-08-07 16:54:18:736
-6.2806,-6.4338,3.1242,-0.2589,-0.2048,0.1281,-0.0346,0.0442,0.0362,5003,2019-08-07 16:54:18:740
-6.2806,-6.4338,3.1242,-0.2589,-0.2048,0.1281,-0.0346,0.0442,0.0362,5009,2019-08-07 16:54:18:746
-6.2758,-6.4147,3.1383,-0.2589,-0.2048,0.1281,-0.0314,0.0431,0.0351,5014,2019-08-07 16:54:18:751
-6.2758,-6.4147,3.1383,-0.2589,-0.2048,0.1281,-0.0314,0.0431,0.0351,5019,2019-08-07 16:54:18:756
-6.5437,-6.3956,3.0016,0.0596,-0.2356,0.195,-0.0633,-0.0485,0.0383,5023,2019-08-07 16:54:18:760
-6.5437,-6.3956,3.0016,0.0596,-0.2356,0.195,-0.0633,-0.0485,0.0383,5029,2019-08-07 16:54:18:766
-6.5437,-6.3956,3.0016,0.0596,-0.2356,0.195,0.0112,0.0474,0.0224,5033,2019-08-07 16:54:18:770
-6.2232,-6.5722,3.1383,0.0596,-0.2356,0.195,0.0112,0.0474,0.0224,5039,2019-08-07 16:54:18:776
-6.2232,-6.5722,3.1383,-0.0301,-0.066,0.3911,0.0325,0.025,0.0096,5045,2019-08-07 16:54:18:782
-6.4815,-6.4863,2.8791,-0.0301,-0.066,0.3911,0.0325,0.025,0.0096,5049,2019-08-07 16:54:18:786
-6.4815,-6.4863,2.8791,-0.0301,-0.066,0.3911,-0.0026,0.026,0.0192,5054,2019-08-07 16:54:18:791
-6.4002,-6.4242,3.1383,-0.0301,-0.066,0.3911,-0.0026,0.026,0.0192,5060,2019-08-07 16:54:18:797
-6.4002,-6.4242,3.1383,-0.1542,-0.2205,-0.0314,0.0155,0.0079,0.0021,5064,2019-08-07 16:54:18:801
-6.4002,-6.4242,3.1383,-0.1542,-0.2205,-0.0314,0.0155,0.0079,0.0021,5068,2019-08-07 16:54:18:805
-6.4241,-6.4767,3.1148,-0.1542,-0.2205,-0.0314,0.0336,-0.0208,-0.0085,5074,2019-08-07 16:54:18:811