ACCELEROMETER X (m/s²),ACCELEROMETER Y (m/s²),ACCELEROMETER Z (m/s²),LINEAR ACCELERATION X (m/s²),LINEAR ACCELERATION Y (m/s²),LINEAR ACCELERATION Z (m/s²),GYROSCOPE X (rad/s),GYROSCOPE Y (rad/s),GYROSCOPE Z (rad/s),Time since start in ms ,YYYY-MO-DD HH-MI-SS_SSS
-7.0322,-5.5219,2.549,-0.3308,-0.2885,0.3252,0.0389,0.0143,0.0458,2,2019-08-07 16:55:05:225
-7.0322,-5.5219,2.549,-0.3308,-0.2885,0.3252,0.0368,0.0378,0.0469,8,2019-08-07 16:55:05:231
-7.0896,-5.5363,2.6291,-0.3308,-0.2885,0.3252,0.0368,0.0378,0.0469,12,2019-08-07 16:55:05:235
-7.0896,-5.5363,2.6291,-0.2718,-0.2464,0.2562,0.0347,0.0633,0.0405,18,2019-08-07 16:55:05:241
-7.0896,-5.5363,2.6291,-0.2718,-0.2464,0.2562,0.0347,0.0633,0.0405,22,2019-08-07 16:55:05:245
-7.1423,-5.5458,2.615,-0.2718,-0.2464,0.2562,0.0389,0.0793,0.0415,28,2019-08-07 16:55:05:251
-7.1423,-5.5458,2.615,-0.2718,-0.2464,0.2562,0.0389,0.0793,0.0415,33,2019-08-07 16:55:05:256
-7.1758,-5.5744,2.6998,-0.2049,-0.2189,0.1636,0.0485,0.0846,0.0341,38,2019-08-07 16:55:05:261
-7.1758,-5.5744,2.6998,-0.2049,-0.2189,0.1636,0.0485,0.0846,0.0341,43,2019-08-07 16:55:05:266
-7.1758,-5.5744,2.6998,-0.2049,-0.2189,0.1636,0.0581,0.0782,0.0309,47,2019-08-07 16:55:05:270
-7.2093,-5.4599,2.7045,-0.2049,-0.2189,0.1636,0.0581,0.0782,0.0309,53,2019-08-07 16:55:05:276
-7.2093,-5.4599,2.7045,-0.2049,-0.2189,0.1636,0.0581,0.0782,0.0309,57,2019-08-07 16:55:05:280
-7.2332,-5.4312,2.8695,-0.1278,-0.3007,0.0264,0.0624,0.0591,0.0309,63,2019-08-07 16:55:05:286
-7.2332,-5.4312,2.8695,-0.1278,-0.3007,0.0264,0.0624,0.0591,0.0309,67,2019-08-07 16:55:05:290
-7.2332,-5.4312,2.8695,-0.1278,-0.3007,0.0264,0.0645,0.0133,0.0351,73,2019-08-07 16:55:05:296
-7.1901,-5.4121,2.8035,-0.1579,-0.3098,0.0399,0.0645,0.0133,0.0351,78,2019-08-07 16:55:05:301
-7.1901,-5.4121,2.8035,-0.1579,-0.3098,0.0399,0.0613,-0.0176,0.0394,83,2019-08-07 16:55:05:306
-7.1566,-5.4265,2.8318,-0.1579,-0.3098,0.0399,0.0613,-0.0176,0.0394,87,2019-08-07 16:55:05:310
-7.1566,-5.4265,2.8318,-0.1579,-0.3098,0.0399,0.0634,-0.0443,0.0458,93,2019-08-07 16:55:05:316
-7.1566,-5.4265,2.8318,-0.1579,-0.3098,0.0399,0.0634,-0.0443,0.0458,97,2019-08-07 16:55:05:320
-7.0036,-5.4646,2.7187,-0.396,-0.2988,0.1563,0.0656,-0.0475,0.0511,103,2019-08-07 16:55:05:326
-7.0036,-5.4646,2.7187,-0.396,-0.2988,0.1563,0.0656,-0.0475,0.0511,108,2019-08-07 16:55:05:331
-7.0036,-5.4646,2.7187,-0.396,-0.2988,0.1563,0.0592,-0.0304,0.0511,113,2019-08-07 16:55:05:336
-6.927,-5.4551,2.6197,-0.5146,-0.3068,0.2111,0.0592,-0.0304,0.0511,119,2019-08-07 16:55:05:342
-6.927,-5.4551,2.6197,-0.5146,-0.3068,0.2111,0.0517,0.0069,0.0554,123,2019-08-07 16:55:05:346
-6.8983,-5.4933,2.681,-0.5146,-0.3068,0.2111,0.0517,0.0069,0.0554,127,2019-08-07 16:55:05:350
-6.8983,-5.4933,2.681,-0.5146,-0.3068,0.2111,0.0453,0.0356,0.0543,133,2019-08-07 16:55:05:356
-6.8983,-5.4933,2.681,-0.5146,-0.3068,0.2111,0.0453,0.0356,0.0543,137,2019-08-07 16:55:05:360
-7.0323,-5.479,2.7092,-0.3788,-0.2626,0.1797,0.0432,0.058,0.0554,143,2019-08-07 16:55:05:366
-7.0323,-5.479,2.7092,-0.3788,-0.2626,0.1797,0.0432,0.058,0.0554,147,2019-08-07 16:55:05:370
-7.0658,-5.4837,2.7847,-0.3788,-0.2626,0.1797,0.0294,0.0569,0.0522,153,2019-08-07 16:55:05:376
-7.0658,-5.4837,2.7847,-0.3788,-0.2626,0.1797,0.0294,0.0569,0.0522,158,2019-08-07 16:55:05:381
-7.1423,-5.541,2.7658,-0.3071,-0.1952,0.1327,0.0262,0.0527,0.0437,163,2019-08-07 16:55:05:386
-7.1423,-5.541,2.7658,-0.3071,-0.1952,0.1327,0.0262,0.0527,0.0437,168,2019-08-07 16:55:05:391
-7.1423,-5.541,2.7658,-0.3071,-0.1952,0.1327,0.0262,0.0527,0.0437,172,2019-08-07 16:55:05:395
-7.195,-5.5362,2.7564,-0.3071,-0.1952,0.1327,0.0262,0.0356,0.0437,178,2019-08-07 16:55:05:401
-7.195,-5.5362,2.7564,-0.2481,-0.2489,0.1523,0.0262,0.0356,0.0437,182,2019-08-07 16:55:05:405
-7.195,-5.5362,2.7564,-0.2481,-0.2489,0.1523,0.023,0.0218,0.0426,188,2019-08-07 16:55:05:411
-7.1902,-5.5172,2.7234,-0.2481,-0.2489,0.1523,0.023,0.0218,0.0426,193,2019-08-07 16:55:05:416
-7.1902,-5.5172,2.7234,-0.2481,-0.2489,0.1523,0.0219,0.0015,0.0394,198,2019-08-07 16:55:05:421
-7.2189,-5.4981,2.7564,-0.2395,-0.2125,0.1104,0.0219,0.0015,0.0394,203,2019-08-07 16:55:05:426
-7.2189,-5.4981,2.7564,-0.2395,-0.2125,0.1104,0.0219,-0.008,0.0341,208,2019-08-07 16:55:05:431
-7.2189,-5.4981,2.7564,-0.2395,-0.2125,0.1104,0.0219,-0.008,0.0341,212,2019-08-07 16:55:05:435
-7.195,-5.4551,2.7422,-0.2395,-0.2125,0.1104,0.0198,-0.0155,0.0309,218,2019-08-07 16:55:05:441
-7.195,-5.4551,2.7422,-0.2189,-0.2061,0.1334,0.0198,-0.0155,0.0309,222,2019-08-07 16:55:05:445
-7.2333,-5.5219,2.8224,-0.2189,-0.2061,0.1334,0.0198,-0.0166,0.0234,228,2019-08-07 16:55:05:451
-7.2333,-5.5219,2.8224,-0.2189,-0.2061,0.1334,0.0198,-0.0166,0.0234,233,2019-08-07 16:55:05:456
-7.2333,-5.5219,2.8224,-0.2189,-0.2061,0.1334,0.0262,-0.0059,0.0138,238,2019-08-07 16:55:05:461
-7.2285,-5.4503,2.7847,-0.2113,-0.2539,0.1046,0.0262,-0.0059,0.0138,243,2019-08-07 16:55:05:466
-7.2285,-5.4503,2.7847,-0.2113,-0.2539,0.1046,0.023,-0.0059,0.0043,248,2019-08-07 16:55:05:471
-7.1663,-5.4551,2.7422,-0.2113,-0.2539,0.1046,0.023,-0.0059,0.0043,253,2019-08-07 16:55:05:476
-7.1663,-5.4551,2.7422,-0.2113,-0.2539,0.1046,0.0187,-0.0038,-0.0032,258,2019-08-07 16:55:05:481
-7.1663,-5.4551,2.7422,-0.2687,-0.2048,0.1873,0.0187,-0.0038,-0.0032,265,2019-08-07 16:55:05:488
-7.1567,-5.5124,2.6998,-0.2687,-0.2048,0.1873,0.0123,-6.0E-4,-0.0139,269,2019-08-07 16:55:05:492
-7.1567,-5.5124,2.6998,-0.2687,-0.2048,0.1873,0.0123,-6.0E-4,-0.0139,273,2019-08-07 16:55:05:496
-7.1328,-5.4885,2.7894,-0.2687,-0.2048,0.1873,0.0112,0.0015,-0.016,278,2019-08-07 16:55:05:501
-7.1328,-5.4885,2.7894,-0.3532,-0.1969,0.1411,0.0112,0.0015,-0.016,283,2019-08-07 16:55:05:506
-7.1328,-5.4885,2.7894,-0.3532,-0.1969,0.1411,0.0102,-0.0091,-0.016,288,2019-08-07 16:55:05:511
-7.0754,-5.4646,2.7375,-0.3615,-0.241,0.1563,0.0102,-0.0091,-0.016,293,2019-08-07 16:55:05:516
-7.0754,-5.4646,2.7375,-0.3615,-0.241,0.1563,0.0059,-0.0208,-0.016,298,2019-08-07 16:55:05:521
-7.0754,-5.4646,2.7375,-0.3615,-0.241,0.1563,0.0059,-0.0208,-0.016,302,2019-08-07 16:55:05:525
-6.9798,-5.5124,2.7375,-0.3615,-0.241,0.1563,0.0017,-0.0198,-0.0075,308,2019-08-07 16:55:05:531
-6.9798,-5.5124,2.7375,-0.4973,-0.2383,0.141,0.0017,-0.0198,-0.0075,313,2019-08-07 16:55:05:536
-6.9798,-5.5124,2.7375,-0.4973,-0.2383,0.141,0.0027,-0.0166,0.0,318,2019-08-07 16:55:05:541
-6.9367,-5.3883,2.7422,-0.4973,-0.2383,0.141,0.0027,-0.0166,0.0,322,2019-08-07 16:55:05:545
-6.9367,-5.3883,2.7422,-0.4973,-0.2383,0.141,6.0E-4,-0.0155,0.0117,328,2019-08-07 16:55:05:551
-6.8649,-5.4503,2.7941,-0.568,-0.2572,0.1063,6.0E-4,-0.0155,0.0117,333,2019-08-07 16:55:05:556
-6.8649,-5.4503,2.7941,-0.568,-0.2572,0.1063,0.0017,-0.0219,0.0202,338,2019-08-07 16:55:05:561
-6.8458,-5.4026,2.7186,-0.568,-0.2572,0.1063,0.0017,-0.0219,0.0202,343,2019-08-07 16:55:05:566
-6.8458,-5.4026,2.7186,-0.568,-0.2572,0.1063,0.0027,-0.023,0.0277,348,2019-08-07 16:55:05:571
-6.8458,-5.4026,2.7186,-0.4924,-0.3066,0.19,0.0027,-0.023,0.0277,353,2019-08-07 16:55:05:576
-6.9511,-5.3548,2.6621,-0.4924,-0.3066,0.19,0.0027,-0.023,0.0277,357,2019-08-07 16:55:05:580
-6.9511,-5.3548,2.6621,-0.4924,-0.3066,0.19,0.0027,0.0015,0.0426,363,2019-08-07 16:55:05:586
-7.0707,-5.3214,2.7139,-0.4924,-0.3066,0.19,0.0027,0.0015,0.0426,368,2019-08-07 16:55:05:591
-7.0707,-5.3214,2.7139,-0.3062,-0.3856,0.1714,-0.0026,0.0026,0.049,372,2019-08-07 16:55:05:595
-7.0707,-5.3214,2.7139,-0.3062,-0.3856,0.1714,-0.0026,0.0026,0.049,378,2019-08-07 16:55:05:601
-7.2047,-5.3357,2.7281,-0.3062,-0.3856,0.1714,-0.0037,-0.0123,0.0575,382,2019-08-07 16:55:05:605
-7.2047,-5.3357,2.7281,-0.3062,-0.3856,0.1714,-0.0037,-0.0123,0.0575,388,2019-08-07 16:55:05:611
-7.1185,-5.4217,2.6715,-0.3266,-0.2673,0.2338,-0.0079,-0.0219,0.0522,393,2019-08-07 16:55:05:616
-7.1185,-5.4217,2.6715,-0.3266,-0.2673,0.2338,-0.0079,-0.0219,0.0522,397,2019-08-07 16:55:05:620
-7.1185,-5.4217,2.6715,-0.3266,-0.2673,0.2338,-0.0037,-0.0208,0.0564,403,2019-08-07 16:55:05:626
-6.9934,-5.4408,2.6339,-0.3266,-0.2673,0.2338,-0.0037,-0.0208,0.0564,408,2019-08-07 16:55:05:631
-6.9934,-5.4408,2.6339,-0.4812,-0.2593,0.2729,-0.0026,-0.0038,0.065,412,2019-08-07 16:55:05:635
-6.9934,-5.4408,2.6339,-0.4812,-0.2593,0.2729,-0.0026,-0.0038,0.065,418,2019-08-07 16:55:05:641
-6.979,-5.4217,2.6811,-0.4812,-0.2593,0.2729,0.0059,0.0101,0.0682,422,2019-08-07 16:55:05:645
-6.979,-5.4217,2.6811,-0.4812,-0.2593,0.2729,0.0059,0.0101,0.0682,428,2019-08-07 16:55:05:651
-6.979,-5.4217,2.6811,-0.3362,-0.2828,0.177,0.0059,0.0101,0.0682,432,2019-08-07 16:55:05:655
-7.1226,-5.3883,2.7282,-0.3362,-0.2828,0.177,0.0091,0.025,0.0703,438,2019-08-07 16:55:05:661
-7.1226,-5.3883,2.7282,-0.3362,-0.2828,0.177,0.0123,0.0218,0.0703,443,2019-08-07 16:55:05:666
-7.1895,-5.4217,2.7801,-0.3362,-0.2828,0.177,0.0123,0.0218,0.0703,448,2019-08-07 16:55:05:671
-7.1895,-5.4217,2.7801,-0.2168,-0.2566,0.1233,0.0123,0.0218,0.0703,453,2019-08-07 16:55:05:676
-7.1848,-5.3835,2.7282,-0.2168,-0.2566,0.1233,0.0176,-0.008,0.0703,458,2019-08-07 16:55:05:681
-7.1848,-5.3835,2.7282,-0.2168,-0.2566,0.1233,0.0176,-0.008,0.0703,463,2019-08-07 16:55:05:686
-7.1848,-5.3835,2.7282,-0.2168,-0.2566,0.1233,0.0208,-0.0091,0.0618,468,2019-08-07 16:55:05:691
-7.2422,-5.417,2.8036,-0.2337,-0.2548,0.1644,0.0208,-0.0091,0.0618,473,2019-08-07 16:55:05:696
-7.2422,-5.417,2.8036,-0.2337,-0.2548,0.1644,0.0251,-0.0091,0.0565,478,2019-08-07 16:55:05:701
-7.2422,-5.417,2.8036,-0.2337,-0.2548,0.1644,0.0251,-0.0091,0.0565,483,2019-08-07 16:55:05:706
-7.247,-5.4122,2.8838,-0.2337,-0.2548,0.1644,0.023,-0.0123,0.0543,487,2019-08-07 16:55:05:710
-7.247,-5.4122,2.8838,-0.2337,-0.2548,0.1644,0.023,-0.0123,0.0543,493,2019-08-07 16:55:05:716
-7.2039,-5.4122,2.8508,-0.2588,-0.2588,0.1076,0.0134,-0.0166,0.0479,498,2019-08-07 16:55:05:721
-7.2039,-5.4122,2.8508,-0.2588,-0.2588,0.1076,0.0134,-0.0166,0.0479,503,2019-08-07 16:55:05:726
-7.2039,-5.4122,2.8508,-0.2588,-0.2588,0.1076,0.0102,-0.0166,0.0405,507,2019-08-07 16:55:05:730
-7.1991,-5.3979,2.7895,-0.2726,-0.2274,0.0973,0.0102,-0.0166,0.0405,513,2019-08-07 16:55:05:736
-7.1991,-5.3979,2.7895,-0.2726,-0.2274,0.0973,0.0038,-0.0176,0.0426,518,2019-08-07 16:55:05:741
-7.1321,-5.4026,2.8979,-0.2726,-0.2274,0.0973,0.0038,-0.0176,0.0426,522,2019-08-07 16:55:05:745
-7.1321,-5.4026,2.8979,-0.2726,-0.2274,0.0973,0.0017,-0.0198,0.0426,528,2019-08-07 16:55:05:751
-7.1321,-5.4026,2.8979,-0.2726,-0.2274,0.0973,0.0017,-0.0198,0.0426,533,2019-08-07 16:55:05:756
-7.1369,-5.4599,2.9026,-0.3528,-0.1635,0.0159,-0.0047,-0.0134,0.0394,538,2019-08-07 16:55:05:761
-7.1369,-5.4599,2.9026,-0.3528,-0.1635,0.0159,-0.0047,-0.0134,0.0394,542,2019-08-07 16:55:05:765
-7.1704,-5.3549,2.8979,-0.3528,-0.1635,0.0159,-0.0165,-0.0155,0.0437,548,2019-08-07 16:55:05:771
-7.1704,-5.3549,2.8979,-0.3528,-0.1635,0.0159,-0.0165,-0.0155,0.0437,552,2019-08-07 16:55:05:775
-7.1704,-5.3549,2.8979,-0.385,-0.22,0.0741,-0.0207,-0.023,0.0522,558,2019-08-07 16:55:05:781
-7.1225,-5.4313,2.9215,-0.385,-0.22,0.0741,-0.0207,-0.023,0.0522,562,2019-08-07 16:55:05:785
-7.1225,-5.4313,2.9215,-0.385,-0.22,0.0741,-0.0282,-0.0272,0.0479,568,2019-08-07 16:55:05:791
-7.0269,-5.4599,2.8555,-0.385,-0.22,0.0741,-0.0282,-0.0272,0.0479,573,2019-08-07 16:55:05:796
-7.0269,-5.4599,2.8555,-0.4314,-0.205,0.0855,-0.0292,-0.0176,0.049,578,2019-08-07 16:55:05:801
-7.0269,-5.4599,2.8555,-0.4314,-0.205,0.0855,-0.0292,-0.0176,0.049,582,2019-08-07 16:55:05:805
-7.0986,-5.3979,2.8696,-0.4314,-0.205,0.0855,-0.0314,-0.0123,0.0543,588,2019-08-07 16:55:05:811
-7.0986,-5.3979,2.8696,-0.4314,-0.205,0.0855,-0.0314,-0.0123,0.0543,593,2019-08-07 16:55:05:816
-7.113,-5.417,2.8838,-0.3832,-0.1755,0.052,-0.0324,-0.0102,0.0543,598,2019-08-07 16:55:05:821
-7.113,-5.417,2.8838,-0.3832,-0.1755,0.052,-0.0324,-0.0102,0.0543,603,2019-08-07 16:55:05:826
-7.113,-5.417,2.8838,-0.3832,-0.1755,0.052,-0.0324,-0.0102,0.0543,608,2019-08-07 16:55:05:831
-7.1943,-5.4504,2.8178,-0.3832,-0.1755,0.052,-0.0335,-0.0123,0.0501,613,2019-08-07 16:55:05:836
-7.1943,-5.4504,2.8178,-0.3211,-0.1508,0.0832,-0.0335,-0.0123,0.0501,618,2019-08-07 16:55:05:841
-7.2565,-5.3836,2.8555,-0.3211,-0.1508,0.0832,-0.0282,-0.0166,0.0479,623,2019-08-07 16:55:05:846
-7.2565,-5.3836,2.8555,-0.3211,-0.1508,0.0832,-0.0282,-0.0166,0.0479,628,2019-08-07 16:55:05:851
-7.2565,-5.3836,2.8555,-0.3211,-0.1508,0.0832,-0.026,-0.0304,0.0479,632,2019-08-07 16:55:05:855
-7.2613,-5.3406,2.8319,-0.2488,-0.2549,0.088,-0.026,-0.0304,0.0479,638,2019-08-07 16:55:05:861
-7.2613,-5.3406,2.8319,-0.2488,-0.2549,0.088,-0.025,-0.0357,0.0415,643,2019-08-07 16:55:05:866
-7.29,-5.3501,2.7565,-0.2218,-0.2426,0.1644,-0.025,-0.0357,0.0415,648,2019-08-07 16:55:05:871
-7.29,-5.3501,2.7565,-0.2218,-0.2426,0.1644,-0.025,-0.0411,0.0437,653,2019-08-07 16:55:05:876
-7.29,-5.3501,2.7565,-0.2218,-0.2426,0.1644,-0.025,-0.0411,0.0437,658,2019-08-07 16:55:05:881
-7.2804,-5.3406,2.7424,-0.2218,-0.2426,0.1644,-0.0218,-0.0357,0.0437,665,2019-08-07 16:55:05:888
-7.2804,-5.3406,2.7424,-0.2438,-0.2324,0.172,-0.0218,-0.0357,0.0437,668,2019-08-07 16:55:05:891
-7.2804,-5.3406,2.7424,-0.2438,-0.2324,0.172,-0.0218,-0.0357,0.0437,672,2019-08-07 16:55:05:895
-7.2086,-5.3358,2.7518,-0.2438,-0.2324,0.172,-0.0143,-0.0304,0.0415,678,2019-08-07 16:55:05:901
-7.2086,-5.3358,2.7518,-0.2438,-0.2324,0.172,-0.0143,-0.0304,0.0415,683,2019-08-07 16:55:05:906
-7.2182,-5.3788,2.7047,-0.2996,-0.2036,0.2205,-0.0122,-0.0123,0.0383,688,2019-08-07 16:55:05:911
-7.2182,-5.3788,2.7047,-0.2996,-0.2036,0.2205,-0.0122,-0.0123,0.0383,692,2019-08-07 16:55:05:915
-7.2182,-5.3788,2.7047,-0.2996,-0.2036,0.2205,-0.0069,-0.0038,0.0373,698,2019-08-07 16:55:05:921
-7.2804,-5.3549,2.7518,-0.2996,-0.2036,0.2205,-0.0069,-0.0038,0.0373,703,2019-08-07 16:55:05:926
-7.2804,-5.3549,2.7518,-0.2275,-0.2791,0.0453,0.0027,-0.0016,0.0373,708,2019-08-07 16:55:05:931
-7.3043,-5.2881,2.8555,-0.2275,-0.2791,0.0453,0.0027,-0.0016,0.0373,713,2019-08-07 16:55:05:936
-7.3043,-5.2881,2.8555,-0.2275,-0.2791,0.0453,0.0048,-0.023,0.0394,718,2019-08-07 16:55:05:941
-7.3043,-5.2881,2.8555,-0.2275,-0.2791,0.0453,0.0048,-0.023,0.0394,722,2019-08-07 16:55:05:945
-7.3234,-5.2356,2.8178,-0.2359,-0.358,0.1059,0.007,-0.0453,0.0383,728,2019-08-07 16:55:05:951
-7.3234,-5.2356,2.8178,-0.2359,-0.358,0.1059,0.007,-0.0453,0.0383,732,2019-08-07 16:55:05:955
-7.3234,-5.2356,2.8178,-0.2359,-0.358,0.1059,0.007,-0.0453,0.0383,738,2019-08-07 16:55:05:961
-7.223,-5.1783,2.7848,-0.2359,-0.358,0.1059,-0.0026,-0.0762,0.0383,742,2019-08-07 16:55:05:965
-7.223,-5.1783,2.7848,-0.3277,-0.3655,0.1449,-0.0026,-0.0762,0.0383,748,2019-08-07 16:55:05:971
-7.223,-5.1783,2.7848,-0.3277,-0.3655,0.1449,-0.0037,-0.0826,0.0383,753,2019-08-07 16:55:05:976
-7.1225,-5.1735,2.7942,-0.3277,-0.3655,0.1449,-0.0037,-0.0826,0.0383,757,2019-08-07 16:55:05:980
-7.1225,-5.1735,2.7942,-0.3277,-0.3655,0.1449,-0.009,-0.0677,0.0383,763,2019-08-07 16:55:05:986
-7.0699,-5.1353,2.7282,-0.4573,-0.4214,0.2213,-0.009,-0.0677,0.0383,768,2019-08-07 16:55:05:991
-7.0699,-5.1353,2.7282,-0.4573,-0.4214,0.2213,-0.0047,-0.0485,0.0394,773,2019-08-07 16:55:05:996
-7.0699,-5.1353,2.7282,-0.4573,-0.4214,0.2213,-0.0047,-0.0485,0.0394,778,2019-08-07 16:55:06:001
-7.1703,-5.1258,2.8555,-0.4573,-0.4214,0.2213,-0.0058,-0.0293,0.0405,782,2019-08-07 16:55:06:005
-7.1703,-5.1258,2.8555,-0.3261,-0.491,0.029,-0.0058,-0.0293,0.0405,788,2019-08-07 16:55:06:011
-7.1943,-5.0255,2.9121,-0.3261,-0.491,0.029,-0.0111,-0.0283,0.0415,792,2019-08-07 16:55:06:015
-7.1943,-5.0255,2.9121,-0.3261,-0.491,0.029,-0.0111,-0.0283,0.0415,798,2019-08-07 16:55:06:021
-7.1943,-5.0255,2.9121,-0.3261,-0.491,0.029,-0.0239,-0.0411,0.0458,803,2019-08-07 16:55:06:026
-7.2899,-5.0446,2.9074,-0.2488,-0.4931,0.0142,-0.0239,-0.0411,0.0458,808,2019-08-07 16:55:06:031
-7.2899,-5.0446,2.9074,-0.2488,-0.4931,0.0142,-0.0378,-0.0602,0.049,814,2019-08-07 16:55:06:037
-7.2947,-5.1162,2.8838,-0.2488,-0.4931,0.0142,-0.0378,-0.0602,0.049,818,2019-08-07 16:55:06:041
-7.2947,-5.1162,2.8838,-0.2488,-0.4931,0.0142,-0.0484,-0.0783,0.0554,823,2019-08-07 16:55:06:046
-7.2947,-5.1162,2.8838,-0.2488,-0.4931,0.0142,-0.0484,-0.0783,0.0554,828,2019-08-07 16:55:06:051
-7.2995,-5.164,2.8932,-0.2371,-0.4144,0.063,-0.0484,-0.0783,0.0554,833,2019-08-07 16:55:06:056
-7.2995,-5.164,2.8932,-0.2371,-0.4144,0.063,-0.0612,-0.0879,0.0618,838,2019-08-07 16:55:06:061
-7.2325,-5.1687,2.8461,-0.2371,-0.4144,0.063,-0.0612,-0.0879,0.0618,843,2019-08-07 16:55:06:066
-7.2325,-5.1687,2.8461,-0.3304,-0.3218,0.1354,-0.0687,-0.0826,0.0639,848,2019-08-07 16:55:06:071
-7.2325,-5.1687,2.8461,-0.3304,-0.3218,0.1354,-0.0687,-0.0826,0.0639,853,2019-08-07 16:55:06:076
-7.1416,-5.1831,2.799,-0.3304,-0.3218,0.1354,-0.0687,-0.0826,0.0639,857,2019-08-07 16:55:06:080
-7.1416,-5.1831,2.799,-0.3304,-0.3218,0.1354,-0.0772,-0.0677,0.0607,865,2019-08-07 16:55:06:088
-7.1416,-5.1831,2.799,-0.3304,-0.3218,0.1354,-0.0772,-0.0677,0.0607,867,2019-08-07 16:55:06:090
-7.1751,-5.2308,2.799,-0.3668,-0.293,0.1748,-0.0814,-0.0421,0.0554,873,2019-08-07 16:55:06:096
-7.1751,-5.2308,2.799,-0.3668,-0.293,0.1748,-0.0814,-0.0421,0.0554,879,2019-08-07 16:55:06:102
-7.2229,-5.2499,2.7612,-0.3668,-0.293,0.1748,-0.09,-0.0251,0.0522,883,2019-08-07 16:55:06:106
-7.2229,-5.2499,2.7612,-0.3668,-0.293,0.1748,-0.09,-0.0251,0.0522,888,2019-08-07 16:55:06:111
-7.2229,-5.2499,2.7612,-0.2949,-0.2468,0.2068,-0.091,-0.0198,0.0522,893,2019-08-07 16:55:06:116
-7.2899,-5.3024,2.7612,-0.2949,-0.2468,0.2068,-0.091,-0.0198,0.0522,898,2019-08-07 16:55:06:121
-7.2899,-5.3024,2.7612,-0.2949,-0.2468,0.2068,-0.0964,-0.0325,0.0522,903,2019-08-07 16:55:06:126
-7.3617,-5.331,2.8178,-0.2949,-0.2468,0.2068,-0.0964,-0.0325,0.0522,908,2019-08-07 16:55:06:131
-7.3617,-5.331,2.8178,-0.1987,-0.1489,0.1061,-0.1006,-0.0538,0.0479,913,2019-08-07 16:55:06:136
-7.3617,-5.331,2.8178,-0.1987,-0.1489,0.1061,-0.1006,-0.0538,0.0479,918,2019-08-07 16:55:06:141
-7.3569,-5.3597,2.8414,-0.1987,-0.1489,0.1061,-0.0932,-0.0688,0.0415,923,2019-08-07 16:55:06:146
-7.3569,-5.3597,2.8414,-0.1987,-0.1489,0.1061,-0.0932,-0.0688,0.0415,928,2019-08-07 16:55:06:151
-7.2947,-5.3597,2.7612,-0.272,-0.1906,0.1563,-0.0953,-0.0815,0.0383,932,2019-08-07 16:55:06:155
-7.2947,-5.3597,2.7612,-0.272,-0.1906,0.1563,-0.0953,-0.0815,0.0383,938,2019-08-07 16:55:06:161
-7.2756,-5.3549,2.7,-0.272,-0.1906,0.1563,-0.0974,-0.073,0.033,943,2019-08-07 16:55:06:166
-7.2756,-5.3549,2.7,-0.272,-0.1906,0.1563,-0.0974,-0.073,0.033,948,2019-08-07 16:55:06:171
-7.2756,-5.3549,2.7,-0.3002,-0.1296,0.2407,-0.0974,-0.073,0.033,952,2019-08-07 16:55:06:175
-7.2421,-5.3788,2.7848,-0.3002,-0.1296,0.2407,-0.0953,-0.056,0.0213,958,2019-08-07 16:55:06:181
-7.2421,-5.3788,2.7848,-0.3002,-0.1296,0.2407,-0.0953,-0.056,0.0213,963,2019-08-07 16:55:06:186
-7.2421,-5.3788,2.7848,-0.3002,-0.1296,0.2407,-0.091,-0.0538,0.0224,968,2019-08-07 16:55:06:191
-7.1894,-5.374,2.7518,-0.3612,-0.1465,0.2058,-0.091,-0.0538,0.0224,973,2019-08-07 16:55:06:196
-7.1894,-5.374,2.7518,-0.3612,-0.1465,0.2058,-0.0825,-0.0602,0.0149,978,2019-08-07 16:55:06:201
-7.1416,-5.3358,2.7141,-0.3612,-0.1465,0.2058,-0.0825,-0.0602,0.0149,983,2019-08-07 16:55:06:206
-7.1416,-5.3358,2.7141,-0.3612,-0.1465,0.2058,-0.0793,-0.057,0.0106,988,2019-08-07 16:55:06:211
-7.1416,-5.3358,2.7141,-0.4449,-0.1455,0.2239,-0.0793,-0.057,0.0106,993,2019-08-07 16:55:06:216
-7.0985,-5.4599,2.6764,-0.4449,-0.1455,0.2239,-0.0782,-0.0517,0.0117,998,2019-08-07 16:55:06:221
-7.0985,-5.4599,2.6764,-0.4449,-0.1455,0.2239,-0.0782,-0.0517,0.0117,1003,2019-08-07 16:55:06:226
-7.0985,-5.4599,2.6764,-0.4449,-0.1455,0.2239,-0.0782,-0.0517,0.0117,1008,2019-08-07 16:55:06:231
-7.0172,-5.4504,2.7094,-0.5476,-0.069,0.184,-0.075,-0.0432,0.0106,1015,2019-08-07 16:55:06:238
-7.0172,-5.4504,2.7094,-0.5476,-0.069,0.184,-0.075,-0.0432,0.0106,1017,2019-08-07 16:55:06:240
-7.0507,-5.5077,2.7471,-0.5476,-0.069,0.184,-0.0655,-0.0357,0.0117,1022,2019-08-07 16:55:06:245
-7.0507,-5.5077,2.7471,-0.5476,-0.069,0.184,-0.0655,-0.0357,0.0117,1028,2019-08-07 16:55:06:251
-7.0507,-5.5077,2.7471,-0.517,-0.1251,0.0972,-0.058,-0.0315,0.0149,1032,2019-08-07 16:55:06:255
-7.089,-5.3979,2.832,-0.517,-0.1251,0.0972,-0.058,-0.0315,0.0149,1038,2019-08-07 16:55:06:261
-7.089,-5.3979,2.832,-0.517,-0.1251,0.0972,-0.0548,-0.0379,0.0181,1042,2019-08-07 16:55:06:265
-7.1129,-5.3788,2.7895,-0.517,-0.1251,0.0972,-0.0548,-0.0379,0.0181,1048,2019-08-07 16:55:06:271
-7.1129,-5.3788,2.7895,-0.4439,-0.1507,0.0408,-0.0527,-0.0485,0.016,1053,2019-08-07 16:55:06:276
-7.1129,-5.3788,2.7895,-0.4439,-0.1507,0.0408,-0.0527,-0.0485,0.016,1057,2019-08-07 16:55:06:280
-7.0842,-5.3836,2.8367,-0.4439,-0.1507,0.0408,-0.0505,-0.0538,0.0202,1063,2019-08-07 16:55:06:286
-7.0842,-5.3836,2.8367,-0.4439,-0.1507,0.0408,-0.0505,-0.0538,0.0202,1068,2019-08-07 16:55:06:291
-7.132,-5.3263,2.7518,-0.409,-0.2088,0.2034,-0.0516,-0.0549,0.0224,1073,2019-08-07 16:55:06:296
-7.132,-5.3263,2.7518,-0.409,-0.2088,0.2034,-0.0516,-0.0549,0.0224,1078,2019-08-07 16:55:06:301
-7.132,-5.3263,2.7518,-0.409,-0.2088,0.2034,-0.0495,-0.0453,0.0202,1083,2019-08-07 16:55:06:306
-7.0794,-5.3597,2.6811,-0.409,-0.2088,0.2034,-0.0495,-0.0453,0.0202,1088,2019-08-07 16:55:06:311
-7.0794,-5.3597,2.6811,-0.4227,-0.1522,0.2601,-0.0474,-0.0304,0.0202,1092,2019-08-07 16:55:06:315
-7.0794,-5.3454,2.7047,-0.4227,-0.1522,0.2601,-0.0474,-0.0304,0.0202,1098,2019-08-07 16:55:06:321
-7.0794,-5.3454,2.7047,-0.4227,-0.1522,0.2601,-0.0516,-0.0144,0.0149,1102,2019-08-07 16:55:06:325
-7.0794,-5.3454,2.7047,-0.4227,-0.1522,0.2601,-0.0516,-0.0144,0.0149,1108,2019-08-07 16:55:06:331
-7.1511,-5.3454,2.766,-0.3945,-0.1681,0.2277,-0.0505,-0.0038,0.0138,1113,2019-08-07 16:55:06:336
-7.1511,-5.3454,2.766,-0.3945,-0.1681,0.2277,-0.0505,-0.0038,0.0138,1117,2019-08-07 16:55:06:340
-7.1511,-5.3454,2.766,-0.3945,-0.1681,0.2277,-0.0527,0.0058,0.0117,1123,2019-08-07 16:55:06:346
-7.1655,-5.3597,2.7,-0.3945,-0.1681,0.2277,-0.0527,0.0058,0.0117,1128,2019-08-07 16:55:06:351
-7.1655,-5.3597,2.7,-0.3956,-0.156,0.1782,-0.0569,0.009,0.0064,1133,2019-08-07 16:55:06:356
-7.1559,-5.3406,2.7754,-0.3956,-0.156,0.1782,-0.0569,0.009,0.0064,1138,2019-08-07 16:55:06:361
-7.1559,-5.3406,2.7754,-0.3956,-0.156,0.1782,-0.0601,-0.0016,0.0085,1143,2019-08-07 16:55:06:366
-7.1559,-5.3406,2.7754,-0.3956,-0.156,0.1782,-0.0601,-0.0016,0.0085,1147,2019-08-07 16:55:06:370
-7.1559,-5.3406,2.7754,-0.3956,-0.156,0.1782,-0.0601,-0.0016,0.0085,1153,2019-08-07 16:55:06:376
-7.1224,-5.4074,2.7471,-0.4198,-0.1353,0.1903,-0.0601,-0.0134,0.0064,1158,2019-08-07 16:55:06:381
-7.1224,-5.4074,2.7471,-0.4198,-0.1353,0.1903,-0.0601,-0.0134,0.0064,1162,2019-08-07 16:55:06:385
-7.0507,-5.417,2.7801,-0.491,-0.1277,0.1552,-0.0548,-0.0198,0.0043,1168,2019-08-07 16:55:06:391
-7.0507,-5.417,2.7801,-0.491,-0.1277,0.1552,-0.0548,-0.0198,0.0043,1173,2019-08-07 16:55:06:396
-7.0507,-5.417,2.7801,-0.491,-0.1277,0.1552,-0.0505,-0.0102,0.0085,1178,2019-08-07 16:55:06:401
-7.0076,-5.4408,2.7047,-0.491,-0.1277,0.1552,-0.0505,-0.0102,0.0085,1183,2019-08-07 16:55:06:406
-7.0076,-5.4408,2.7047,-0.5188,-0.1313,0.2215,-0.0463,-6.0E-4,0.0117,1188,2019-08-07 16:55:06:411
-7.0076,-5.4408,2.7047,-0.5188,-0.1313,0.2215,-0.0463,-6.0E-4,0.0117,1193,2019-08-07 16:55:06:416
-7.0124,-5.4408,2.6905,-0.5188,-0.1313,0.2215,-0.0378,0.0143,0.0138,1198,2019-08-07 16:55:06:421
-7.0124,-5.4408,2.6905,-0.5188,-0.1313,0.2215,-0.0378,0.0143,0.0138,1203,2019-08-07 16:55:06:426
-7.0124,-5.4408,2.6905,-0.4289,-0.1522,0.14,-0.0378,0.0143,0.0138,1208,2019-08-07 16:55:06:431
-7.175,-5.4218,2.766,-0.4289,-0.1522,0.14,-0.025,0.025,0.016,1213,2019-08-07 16:55:06:436
-7.175,-5.4218,2.766,-0.4289,-0.1522,0.14,-0.025,0.025,0.016,1218,2019-08-07 16:55:06:441
-7.2612,-5.3549,2.832,-0.4289,-0.1522,0.14,-0.0079,0.0154,0.016,1223,2019-08-07 16:55:06:446
-7.2612,-5.3549,2.832,-0.2977,-0.1896,0.0119,-0.0079,0.0154,0.016,1228,2019-08-07 16:55:06:451
-7.2612,-5.3549,2.832,-0.2977,-0.1896,0.0119,6.0E-4,-0.0027,0.0117,1233,2019-08-07 16:55:06:456
-7.3568,-5.3024,2.8838,-0.2977,-0.1896,0.0119,6.0E-4,-0.0027,0.0117,1237,2019-08-07 16:55:06:460
-7.3568,-5.3024,2.8838,-0.2977,-0.1896,0.0119,0.0134,-0.0208,0.016,1243,2019-08-07 16:55:06:466
-7.3568,-5.3024,2.8838,-0.213,-0.1773,0.0181,0.0134,-0.0208,0.016,1248,2019-08-07 16:55:06:471
-7.3138,-5.3549,2.9121,-0.213,-0.1773,0.0181,0.0176,-0.0336,0.0149,1254,2019-08-07 16:55:06:477
-7.3138,-5.3549,2.9121,-0.213,-0.1773,0.0181,0.0176,-0.0336,0.0149,1258,2019-08-07 16:55:06:481
-7.3138,-5.3549,2.9121,-0.213,-0.1773,0.0181,0.0176,-0.0336,0.0149,1262,2019-08-07 16:55:06:485
-7.3664,-5.3167,2.9404,-0.2031,-0.2357,-0.0024,0.024,-0.04,0.0106,1268,2019-08-07 16:55:06:491
-7.3664,-5.3167,2.9404,-0.2031,-0.2357,-0.0024,0.024,-0.04,0.0106,1272,2019-08-07 16:55:06:495
-7.3138,-5.2738,3.0158,-0.2315,-0.2669,-0.0821,0.0283,-0.0475,0.0234,1278,2019-08-07 16:55:06:501
-7.3138,-5.2738,3.0158,-0.2315,-0.2669,-0.0821,0.0283,-0.0475,0.0234,1283,2019-08-07 16:55:06:506
-7.3138,-5.2738,3.0158,-0.2315,-0.2669,-0.0821,0.0421,-0.0645,0.0426,1289,2019-08-07 16:55:06:512
-7.3329,-5.2833,3.1148,-0.2315,-0.2669,-0.0821,0.0421,-0.0645,0.0426,1293,2019-08-07 16:55:06:516
-7.3329,-5.2833,3.1148,-0.184,-0.2629,-0.2411,0.0602,-0.0773,0.0575,1298,2019-08-07 16:55:06:521
-7.3903,-5.2499,3.3411,-0.184,-0.2629,-0.2411,0.0602,-0.0773,0.0575,1303,2019-08-07 16:55:06:526
-7.3903,-5.2499,3.3411,-0.184,-0.2629,-0.2411,0.0602,-0.0773,0.0575,1308,2019-08-07 16:55:06:531
-7.3903,-5.2499,3.3411,-0.184,-0.2629,-0.2411,0.0837,-0.1071,0.0863,1313,2019-08-07 16:55:06:536
-7.4047,-5.164,3.4683,-0.1293,-0.3643,-0.5349,0.0837,-0.1071,0.0863,1318,2019-08-07 16:55:06:541
-7.4047,-5.164,3.4683,-0.1293,-0.3643,-0.5349,0.1167,-0.1508,0.1204,1323,2019-08-07 16:55:06:546
-7.3377,-5.1115,3.539,-0.1293,-0.3643,-0.5349,0.1167,-0.1508,0.1204,1328,2019-08-07 16:55:06:551
-7.3377,-5.1115,3.539,-0.1293,-0.3643,-0.5349,0.1433,-0.1891,0.1417,1333,2019-08-07 16:55:06:556
-7.3377,-5.1115,3.539,-0.3005,-0.3637,-0.5142,0.1433,-0.1891,0.1417,1337,2019-08-07 16:55:06:560
-7.2133,-5.1306,3.4778,-0.3005,-0.3637,-0.5142,0.1668,-0.2115,0.1598,1343,2019-08-07 16:55:06:566
-7.2133,-5.1306,3.4778,-0.3005,-0.3637,-0.5142,0.1668,-0.2115,0.1598,1348,2019-08-07 16:55:06:571
-7.2181,-5.1878,3.3741,-0.3005,-0.3637,-0.5142,0.1668,-0.2115,0.1598,1353,2019-08-07 16:55:06:576
-7.2181,-5.1878,3.3741,-0.3916,-0.1879,-0.2757,0.1987,-0.1923,0.1896,1358,2019-08-07 16:55:06:581
-7.2181,-5.1878,3.3741,-0.3916,-0.1879,-0.2757,0.1987,-0.1923,0.1896,1362,2019-08-07 16:55:06:585
-7.2276,-5.2976,3.4825,-0.3916,-0.1879,-0.2757,0.1987,-0.1923,0.1896,1368,2019-08-07 16:55:06:591
-7.2276,-5.2976,3.4825,-0.3916,-0.1879,-0.2757,0.2232,-0.1614,0.2184,1373,2019-08-07 16:55:06:596
-7.4477,-5.4456,3.5673,-0.1873,-0.0276,-0.3499,0.2232,-0.1614,0.2184,1378,2019-08-07 16:55:06:601
-7.4477,-5.4456,3.5673,-0.1873,-0.0276,-0.3499,0.2435,-0.1348,0.2429,1382,2019-08-07 16:55:06:605
-7.4477,-5.4456,3.5673,-0.1873,-0.0276,-0.3499,0.2435,-0.1348,0.2429,1388,2019-08-07 16:55:06:611
-7.4477,-5.4456,3.5673,-0.1873,-0.0276,-0.3499,0.2435,-0.1348,0.2429,1393,2019-08-07 16:55:06:616
-7.73,-5.5172,3.836,0.1143,0.2208,-0.929,0.2925,-0.1188,0.2812,1398,2019-08-07 16:55:06:621
-7.73,-5.5172,3.836,0.1143,0.2208,-0.929,0.2925,-0.1188,0.2812,1404,2019-08-07 16:55:06:627
-7.3004,-5.5935,4.4297,0.1143,0.2208,-0.929,0.4459,-0.1082,0.3377,1408,2019-08-07 16:55:06:631
-7.3004,-5.5935,4.4297,0.1143,0.2208,-0.929,0.4459,-0.1082,0.3377,1413,2019-08-07 16:55:06:636
-7.3004,-5.5935,4.4297,-0.474,0.1415,-0.9243,0.5588,-0.0453,0.3569,1418,2019-08-07 16:55:06:641
-7.0468,-5.4073,4.1941,-0.474,0.1415,-0.9243,0.5588,-0.0453,0.3569,1423,2019-08-07 16:55:06:646
-7.0468,-5.4073,4.1941,-0.474,0.1415,-0.9243,0.6206,0.0612,0.3728,1427,2019-08-07 16:55:06:650
-6.9272,-5.3787,4.359,-0.474,0.1415,-0.9243,0.6206,0.0612,0.3728,1433,2019-08-07 16:55:06:656
-6.9272,-5.3787,4.359,-0.6092,0.3016,-1.1196,0.709,0.188,0.4037,1438,2019-08-07 16:55:06:661
-6.9272,-5.3787,4.359,-0.6092,0.3016,-1.1196,0.709,0.188,0.4037,1443,2019-08-07 16:55:06:666
-7.1186,-5.6174,4.5193,-0.6092,0.3016,-1.1196,0.709,0.188,0.4037,1448,2019-08-07 16:55:06:671
-7.1186,-5.6174,4.5193,-0.6092,0.3016,-1.1196,0.7708,0.2402,0.4453,1453,2019-08-07 16:55:06:676
-7.1186,-5.6174,4.5193,-0.5444,0.9677,-1.5568,0.7708,0.2402,0.4453,1458,2019-08-07 16:55:06:681
-7.1378,-6.0184,4.9624,-0.5444,0.9677,-1.5568,0.8485,0.2253,0.5081,1463,2019-08-07 16:55:06:686
-7.1378,-6.0184,4.9624,-0.5444,0.9677,-1.5568,0.8485,0.2253,0.5081,1467,2019-08-07 16:55:06:690
-7.0325,-6.3144,5.2122,-0.5444,0.9677,-1.5568,0.9178,0.2135,0.5614,1473,2019-08-07 16:55:06:696
-7.0325,-6.3144,5.2122,-0.763,1.4657,-1.8623,0.9178,0.2135,0.5614,1478,2019-08-07 16:55:06:701
-7.0325,-6.3144,5.2122,-0.763,1.4657,-1.8623,0.9945,0.2018,0.6242,1483,2019-08-07 16:55:06:706
-6.9321,-6.553,5.3866,-0.763,1.4657,-1.8623,0.9945,0.2018,0.6242,1488,2019-08-07 16:55:06:711
-6.9321,-6.553,5.3866,-0.763,1.4657,-1.8623,1.101,0.2029,0.7158,1493,2019-08-07 16:55:06:716
-6.9129,-6.9159,5.8439,-0.922,2.175,-2.3261,1.101,0.2029,0.7158,1498,2019-08-07 16:55:06:721
-6.9129,-6.9159,5.8439,-0.922,2.175,-2.3261,1.2043,0.1773,0.7883,1503,2019-08-07 16:55:06:726
-6.9129,-6.9159,5.8439,-0.922,2.175,-2.3261,1.2043,0.1773,0.7883,1507,2019-08-07 16:55:06:730
-6.7311,-7.3025,6.3577,-1.1404,2.6603,-2.7904,1.33,0.1486,0.8586,1513,2019-08-07 16:55:06:736
-6.7311,-7.3025,6.3577,-1.1404,2.6603,-2.7904,1.33,0.1486,0.8586,1518,2019-08-07 16:55:06:741
-6.7311,-7.3025,6.3577,-1.1404,2.6603,-2.7904,1.33,0.1486,0.8586,1522,2019-08-07 16:55:06:745
-6.2719,-7.947,6.928,-1.1404,2.6603,-2.7904,1.4728,0.1581,0.8884,1528,2019-08-07 16:55:06:751
-6.2719,-7.947,6.928,-1.9408,3.7529,-3.3542,1.6113,0.2551,0.8959,1533,2019-08-07 16:55:06:756
-5.693,-8.6344,7.1496,-1.9408,3.7529,-3.3542,1.6113,0.2551,0.8959,1537,2019-08-07 16:55:06:760
-5.693,-8.6344,7.1496,-1.9408,3.7529,-3.3542,1.6113,0.2551,0.8959,1543,2019-08-07 16:55:06:766
-5.1285,-9.7849,7.588,-2.897,5.6099,-3.7934,1.7327,0.4692,0.8639,1548,2019-08-07 16:55:06:771
-5.1285,-9.7849,7.588,-2.897,5.6099,-3.7934,1.8691,0.776,0.7766,1554,2019-08-07 16:55:06:777
-5.1285,-9.7849,7.588,-2.897,5.6099,-3.7934,1.8691,0.776,0.7766,1558,2019-08-07 16:55:06:781
-5.2768,-11.6563,8.1206,-2.897,5.6099,-3.7934,1.8691,0.776,0.7766,1562,2019-08-07 16:55:06:785
-5.2768,-11.6563,8.1206,-2.3774,9.0721,-5.0243,2.0438,1.1883,0.6487,1568,2019-08-07 16:55:06:791
-5.2768,-11.6563,8.1206,-2.3774,9.0721,-5.0243,2.0438,1.1883,0.6487,1573,2019-08-07 16:55:06:796
-6.3006,-13.9525,9.1671,-2.3774,9.0721,-5.0243,2.2962,1.5568,0.5124,1578,2019-08-07 16:55:06:801
-6.3006,-13.9525,9.1671,-1.2816,11.0799,-5.5854,2.2962,1.5568,0.5124,1583,2019-08-07 16:55:06:806
-6.3006,-13.9525,9.1671,-1.2816,11.0799,-5.5854,2.2962,1.5568,0.5124,1587,2019-08-07 16:55:06:810
-7.7885,-16.9218,9.794,-1.2816,11.0799,-5.5854,2.7607,1.9563,0.3419,1594,2019-08-07 16:55:06:817
-7.7885,-16.9218,9.794,-1.2816,11.0799,-5.5854,2.7607,1.9563,0.3419,1598,2019-08-07 16:55:06:821
-8.8698,-18.8934,9.9496,0.3319,14.939,-6.4638,3.1186,1.9435,0.212,1602,2019-08-07 16:55:06:825
-8.8698,-18.8934,9.9496,0.3319,14.939,-6.4638,3.1186,1.9435,0.212,1608,2019-08-07 16:55:06:831
-8.8698,-18.8934,9.9496,0.3319,14.939,-6.4638,3.4744,1.6932,0.0618,1613,2019-08-07 16:55:06:836
-9.0181,-20.6167,8.6344,0.3319,14.939,-6.4638,3.4744,1.6932,0.0618,1618,2019-08-07 16:55:06:841
-9.0181,-20.6167,8.6344,0.6196,18.0161,-4.5514,3.8643,1.2053,-0.1172,1623,2019-08-07 16:55:06:846
-9.0181,-20.6167,8.6344,0.6196,18.0161,-4.5514,3.8643,1.2053,-0.1172,1628,2019-08-07 16:55:06:851
-8.9703,-22.7983,6.9139,0.6196,18.0161,-4.5514,4.4193,0.6759,-0.2578,1632,2019-08-07 16:55:06:855
-8.9703,-22.7983,6.9139,0.6196,18.0161,-4.5514,4.4193,0.6759,-0.2578,1638,2019-08-07 16:55:06:861
-8.1857,-24.1828,3.1051,-0.1588,20.8902,-0.0655,5.2172,0.384,-0.4219,1643,2019-08-07 16:55:06:866
-8.1857,-24.1828,3.1051,-0.1588,20.8902,-0.0655,5.2172,0.384,-0.4219,1648,2019-08-07 16:55:06:871
-8.1857,-24.1828,3.1051,-0.6639,21.1298,2.6151,5.2172,0.384,-0.4219,1653,2019-08-07 16:55:06:876
-7.9895,-23.3617,0.9321,-0.6639,21.1298,2.6151,5.9341,0.3712,-0.6211,1658,2019-08-07 16:55:06:881
-7.9895,-23.3617,0.9321,-0.6639,21.1298,2.6151,5.9341,0.3712,-0.6211,1663,2019-08-07 16:55:06:886
-8.688,-19.9818,0.1637,-0.6639,21.1298,2.6151,6.5562,0.3147,-0.6722,1668,2019-08-07 16:55:06:891
-8.688,-19.9818,0.1637,0.169,16.7436,3.9674,6.5562,0.3147,-0.6722,1673,2019-08-07 16:55:06:896
-8.688,-19.9818,0.1637,0.169,16.7436,3.9674,7.1645,-0.0634,-0.5657,1677,2019-08-07 16:55:06:900
-8.0182,-17.4708,-0.237,0.169,16.7436,3.9674,7.1645,-0.0634,-0.5657,1683,2019-08-07 16:55:06:906
-8.0182,-17.4708,-0.237,0.169,16.7436,3.9674,7.5512,-1.0882,-0.3622,1687,2019-08-07 16:55:06:910
-8.0182,-17.4708,-0.237,-1.6508,13.4215,6.7804,7.5512,-1.0882,-0.3622,1693,2019-08-07 16:55:06:916
-6.6691,-14.8977,-5.0875,-1.6508,13.4215,6.7804,7.5512,-1.0882,-0.3622,1698,2019-08-07 16:55:06:921
-6.6691,-14.8977,-5.0875,-1.6508,13.4215,6.7804,7.0409,-1.0318,-0.1193,1703,2019-08-07 16:55:06:926
-6.6691,-14.8977,-5.0875,-1.6508,13.4215,6.7804,7.0409,-1.0318,-0.1193,1708,2019-08-07 16:55:06:931
-0.6123,-10.4628,-4.2673,-8.8665,8.6253,8.5877,6.3027,-0.8017,0.2716,1712,2019-08-07 16:55:06:935
-0.6123,-10.4628,-4.2673,-8.8665,8.6253,8.5877,6.3027,-0.8017,0.2716,1718,2019-08-07 16:55:06:941
-0.6123,-10.4628,-4.2673,-8.8665,8.6253,8.5877,6.3027,-0.8017,0.2716,1723,2019-08-07 16:55:06:946
1.311,-7.1116,-5.5447,-8.8665,8.6253,8.5877,6.1919,0.5597,0.8543,1728,2019-08-07 16:55:06:951
1.311,-7.1116,-5.5447,-8.4599,3.2974,10.1663,6.1919,0.5597,0.8543,1732,2019-08-07 16:55:06:955
-0.7415,-2.2518,-5.804,-8.4599,3.2974,10.1663,5.7338,1.6112,1.8013,1738,2019-08-07 16:55:06:961
-0.7415,-2.2518,-5.804,-8.4599,3.2974,10.1663,5.7338,1.6112,1.8013,1743,2019-08-07 16:55:06:966
-0.7415,-2.2518,-5.804,-8.4599,3.2974,10.1663,4.9391,2.4431,2.6962,1748,2019-08-07 16:55:06:971
-3.3106,1.3285,-5.0451,-4.5334,-1.7383,9.2407,4.9391,2.4431,2.6962,1753,2019-08-07 16:55:06:976
-3.3106,1.3285,-5.0451,-4.5334,-1.7383,9.2407,3.6811,2.5869,3.3023,1758,2019-08-07 16:55:06:981
-8.2145,4.274,-3.5037,-4.5334,-1.7383,9.2407,3.6811,2.5869,3.3023,1763,2019-08-07 16:55:06:986
-8.2145,4.274,-3.5037,-4.5334,-1.7383,9.2407,2.6414,1.7795,3.5676,1768,2019-08-07 16:55:06:991
-8.2145,4.274,-3.5037,3.3214,-6.2444,8.4544,2.6414,1.7795,3.5676,1773,2019-08-07 16:55:06:996
-12.8073,8.0883,-4.5313,3.3214,-6.2444,8.4544,1.7519,0.8708,3.6379,1778,2019-08-07 16:55:07:001
-12.8073,8.0883,-4.5313,3.3214,-6.2444,8.4544,1.7519,0.8708,3.6379,1783,2019-08-07 16:55:07:006
-12.8073,8.0883,-4.5313,3.3214,-6.2444,8.4544,1.7519,0.8708,3.6379,1788,2019-08-07 16:55:07:011
-14.3814,11.3774,-6.9919,5.6471,-9.5642,11.5856,0.9125,-0.203,3.3225,1793,2019-08-07 16:55:07:016
-14.3814,11.3774,-6.9919,5.6471,-9.5642,11.5856,0.9125,-0.203,3.3225,1798,2019-08-07 16:55:07:021
-13.4867,11.5875,-9.9474,5.6471,-9.5642,11.5856,0.3511,-0.9614,2.6727,1803,2019-08-07 16:55:07:026
-13.4867,11.5875,-9.9474,5.6471,-9.5642,11.5856,0.3511,-0.9614,2.6727,1808,2019-08-07 16:55:07:031
-13.4867,11.5875,-9.9474,2.5826,-9.7168,17.559,-0.1251,-1.6358,1.8472,1814,2019-08-07 16:55:07:037
-10.4679,11.9933,-13.7185,2.5826,-9.7168,17.559,-0.1251,-1.6358,1.8472,1818,2019-08-07 16:55:07:041
-10.4679,11.9933,-13.7185,2.5826,-9.7168,17.559,-0.4703,-2.2643,0.7073,1822,2019-08-07 16:55:07:045
-7.7887,12.2176,-13.101,2.5826,-9.7168,17.559,-0.4703,-2.2643,0.7073,1828,2019-08-07 16:55:07:051
-7.7887,12.2176,-13.101,-1.0979,-9.4873,16.7918,-0.4703,-2.2643,0.7073,1833,2019-08-07 16:55:07:056
-7.7887,12.2176,-13.101,-1.0979,-9.4873,16.7918,-0.4735,-2.7458,-0.49,1838,2019-08-07 16:55:07:061
-7.3199,11.3345,-10.8289,-1.0979,-9.4873,16.7918,-0.4735,-2.7458,-0.49,1843,2019-08-07 16:55:07:066
-7.3199,11.3345,-10.8289,-0.7584,-8.8382,14.9598,-0.3243,-2.7021,-1.3497,1848,2019-08-07 16:55:07:071
-8.5399,11.3345,-7.0485,-0.7584,-8.8382,14.9598,-0.3243,-2.7021,-1.3497,1853,2019-08-07 16:55:07:076
-8.5399,11.3345,-7.0485,-0.7584,-8.8382,14.9598,-0.3243,-2.7021,-1.3497,1858,2019-08-07 16:55:07:081
-8.5399,11.3345,-7.0485,-0.7584,-8.8382,14.9598,-0.1592,-2.0246,-2.0965,1863,2019-08-07 16:55:07:086
-8.1428,10.9669,-10.2727,0.5036,-9.0519,14.4993,-0.1592,-2.0246,-2.0965,1869,2019-08-07 16:55:07:092
-8.1428,10.9669,-10.2727,0.5036,-9.0519,14.4993,-0.2615,0.645,-2.5396,1873,2019-08-07 16:55:07:096
-8.1428,10.9669,-10.2727,0.5036,-9.0519,14.4993,-0.2615,0.645,-2.5396,1878,2019-08-07 16:55:07:101
-7.6979,10.1649,1.9408,0.382,-8.1201,5.1267,-0.3286,0.0932,-2.7889,1883,2019-08-07 16:55:07:106
-7.6979,10.1649,1.9408,0.382,-8.1201,5.1267,-0.3286,0.0932,-2.7889,1888,2019-08-07 16:55:07:111
-8.2289,9.7544,1.2903,0.382,-8.1201,5.1267,-0.4617,-1.2959,-2.8847,1893,2019-08-07 16:55:07:116
-8.2289,9.7544,1.2903,-0.1766,-8.129,5.215,-0.4617,-1.2959,-2.8847,1898,2019-08-07 16:55:07:121
-8.2289,9.7544,1.2903,-0.1766,-8.129,5.215,-0.7717,-0.2222,-2.595,1903,2019-08-07 16:55:07:126
-2.6457,7.7255,2.0775,-0.1766,-8.129,5.215,-0.7717,-0.2222,-2.595,1908,2019-08-07 16:55:07:131
-2.6457,7.7255,2.0775,-0.1766,-8.129,5.215,-0.7717,-0.2222,-2.595,1913,2019-08-07 16:55:07:136
-2.6457,7.7255,2.0775,-5.3893,-5.1386,2.2768,-0.5779,-0.2009,-2.612,1917,2019-08-07 16:55:07:140
-3.9231,6.3077,1.2196,-5.3893,-5.1386,2.2768,-0.5779,-0.2009,-2.612,1923,2019-08-07 16:55:07:146
-3.9231,6.3077,1.2196,-4.3285,-5.919,3.3313,-0.2412,0.6492,-2.4192,1928,2019-08-07 16:55:07:151
-5.832,7.1478,0.8377,-4.3285,-5.919,3.3313,-0.2412,0.6492,-2.4192,1932,2019-08-07 16:55:07:155
-5.832,7.1478,0.8377,-4.3285,-5.919,3.3313,-0.2732,1.0572,-1.7886,1939,2019-08-07 16:55:07:162
-5.832,7.1478,0.8377,-4.3285,-5.919,3.3313,-0.2732,1.0572,-1.7886,1943,2019-08-07 16:55:07:166
-6.9611,5.73,3.7367,-1.4356,-5.2161,1.3097,-0.3307,1.0839,-1.534,1948,2019-08-07 16:55:07:171
-6.9611,5.73,3.7367,-1.4356,-5.2161,1.3097,-0.3307,1.0839,-1.534,1953,2019-08-07 16:55:07:176
-6.9611,5.73,3.7367,-1.4356,-5.2161,1.3097,-0.3307,1.0839,-1.534,1958,2019-08-07 16:55:07:181
-10.1283,5.7825,5.7118,-1.4356,-5.2161,1.3097,-0.0516,0.7419,-1.1548,1963,2019-08-07 16:55:07:186
-10.1283,5.7825,5.7118,1.7185,-5.5281,-0.4158,-0.0516,0.7419,-1.1548,1967,2019-08-07 16:55:07:190
-9.5638,5.6918,4.1044,1.7185,-5.5281,-0.4158,0.0411,0.3616,-0.8639,1973,2019-08-07 16:55:07:196
-9.5638,5.6918,4.1044,0.8427,-5.3951,1.0301,0.0411,0.3616,-0.8639,1978,2019-08-07 16:55:07:201
-9.5638,5.6918,4.1044,0.8427,-5.3951,1.0301,-0.0857,0.0399,-0.7127,1983,2019-08-07 16:55:07:206
-8.9897,5.4197,3.4162,0.8427,-5.3951,1.0301,-0.0857,0.0399,-0.7127,1987,2019-08-07 16:55:07:210
-8.9897,5.4197,3.4162,0.8427,-5.3951,1.0301,-0.2316,-0.1188,-0.5614,1993,2019-08-07 16:55:07:216
-8.9897,5.4197,3.4162,-0.182,-4.8467,1.1699,-0.2316,-0.1188,-0.5614,1997,2019-08-07 16:55:07:220
-7.7936,4.6893,3.3785,-0.182,-4.8467,1.1699,-0.2082,-0.0379,-0.5156,2003,2019-08-07 16:55:07:226
-7.7936,4.6893,3.3785,-0.182,-4.8467,1.1699,-0.2082,-0.0379,-0.5156,2008,2019-08-07 16:55:07:231
-6.9468,4.2501,1.8512,-0.182,-4.8467,1.1699,-0.2082,-0.0379,-0.5156,2013,2019-08-07 16:55:07:236
-6.9468,4.2501,1.8512,-1.6975,-4.2965,3.7211,-0.287,0.2636,-0.5763,2018,2019-08-07 16:55:07:241
-6.9468,4.2501,1.8512,-1.6975,-4.2965,3.7211,-0.287,0.2636,-0.5763,2023,2019-08-07 16:55:07:246
-7.3392,4.57,0.9226,-1.6975,-4.2965,3.7211,-0.4213,0.5747,-0.5657,2028,2019-08-07 16:55:07:251
-7.3392,4.57,0.9226,-1.6975,-4.2965,3.7211,-0.4213,0.5747,-0.5657,2032,2019-08-07 16:55:07:255
-7.3392,4.57,0.9226,-0.561,-4.2002,3.4791,-0.434,0.9677,-0.4666,2038,2019-08-07 16:55:07:261
-8.5065,4.0544,1.6061,-0.561,-4.2002,3.4791,-0.434,0.9677,-0.4666,2043,2019-08-07 16:55:07:266
-8.5065,4.0544,1.6061,-0.561,-4.2002,3.4791,-0.3019,1.1009,-0.4261,2048,2019-08-07 16:55:07:271
-8.5065,4.0544,1.6061,-0.561,-4.2002,3.4791,-0.3019,1.1009,-0.4261,2053,2019-08-07 16:55:07:276
-9.9131,3.6009,1.8418,1.2075,-3.6984,2.6793,-0.3019,1.1009,-0.4261,2058,2019-08-07 16:55:07:281
-9.9131,3.6009,1.8418,1.2075,-3.6984,2.6793,-0.2455,0.9624,-0.4602,2063,2019-08-07 16:55:07:286
-9.9131,3.6009,1.8418,1.2075,-3.6984,2.6793,-0.2455,0.9624,-0.4602,2068,2019-08-07 16:55:07:291
-10.7216,3.4911,1.2997,1.2075,-3.6984,2.6793,-0.2828,0.6727,-0.571,2072,2019-08-07 16:55:07:295
-10.7216,3.4911,1.2997,2.2798,-3.5951,3.8417,-0.2828,0.6727,-0.571,2078,2019-08-07 16:55:07:301
-11.0613,3.1092,-0.0391,2.2798,-3.5951,3.8417,-0.3446,0.3669,-0.6647,2082,2019-08-07 16:55:07:305
-11.0613,3.1092,-0.0391,2.2798,-3.5951,3.8417,-0.3446,0.3669,-0.6647,2088,2019-08-07 16:55:07:311
-11.0613,3.1092,-0.0391,2.2798,-3.5951,3.8417,-0.3797,0.1592,-0.8011,2092,2019-08-07 16:55:07:315
-10.87,2.2547,-0.7744,2.0354,-2.0572,5.39,-0.3797,0.1592,-0.8011,2098,2019-08-07 16:55:07:321
-10.87,2.2547,-0.7744,2.0354,-2.0572,5.39,-0.4074,0.0058,-1.0589,2103,2019-08-07 16:55:07:326
-11.1283,1.066,-1.5852,2.0354,-2.0572,5.39,-0.4074,0.0058,-1.0589,2108,2019-08-07 16:55:07:331
-11.1283,1.066,-1.5852,2.0354,-2.0572,5.39,-0.4916,-0.155,-1.3806,2113,2019-08-07 16:55:07:336
-11.4393,0.8321,-1.8727,2.524,-1.4146,6.0847,-0.4916,-0.155,-1.3806,2119,2019-08-07 16:55:07:342
-11.4393,0.8321,-1.8727,2.524,-1.4146,6.0847,-0.7025,-0.4501,-1.7769,2123,2019-08-07 16:55:07:346
-11.4393,0.8321,-1.8727,2.524,-1.4146,6.0847,-0.7025,-0.4501,-1.7769,2128,2019-08-07 16:55:07:351
-11.2097,0.7509,-1.7078,2.524,-1.4146,6.0847,-0.9486,-0.742,-2.073,2133,2019-08-07 16:55:07:356
-11.2097,0.7509,-1.7078,2.281,-1.6954,5.8818,-0.9486,-0.742,-2.073,2138,2019-08-07 16:55:07:361
-11.2097,0.7509,-1.7078,2.281,-1.6954,5.8818,-1.2522,-0.9838,-2.3095,2143,2019-08-07 16:55:07:366
-10.7983,0.7414,-1.6559,2.281,-1.6954,5.8818,-1.2522,-0.9838,-2.3095,2148,2019-08-07 16:55:07:371
-10.7983,0.7414,-1.6559,2.281,-1.6954,5.8818,-1.5483,-1.0967,-2.432,2154,2019-08-07 16:55:07:377
-10.7983,0.7414,-1.6559,2.281,-1.6954,5.8818,-1.5483,-1.0967,-2.432,2158,2019-08-07 16:55:07:381
-9.3917,0.307,-0.3266,0.7591,-1.8164,4.7353,-1.5483,-1.0967,-2.432,2163,2019-08-07 16:55:07:386
-9.3917,0.307,-0.3266,0.7591,-1.8164,4.7353,-1.7922,-1.2118,-2.4672,2168,2019-08-07 16:55:07:391
-7.7077,-0.8435,0.6303,0.7591,-1.8164,4.7353,-1.7922,-1.2118,-2.4672,2172,2019-08-07 16:55:07:395
-7.7077,-0.8435,0.6303,-1.1522,-0.7998,3.8159,-1.9009,-1.0978,-2.4629,2178,2019-08-07 16:55:07:401
-7.7077,-0.8435,0.6303,-1.1522,-0.7998,3.8159,-1.9009,-1.0978,-2.4629,2183,2019-08-07 16:55:07:406
-6.9039,-1.8174,0.5501,-1.1522,-0.7998,3.8159,-1.9009,-1.0978,-2.4629,2187,2019-08-07 16:55:07:410
-6.9039,-1.8174,0.5501,-1.1522,-0.7998,3.8159,-2.0447,-0.889,-2.465,2193,2019-08-07 16:55:07:416
-6.9039,-1.8174,0.5501,-1.1522,-0.7998,3.8159,-2.0447,-0.889,-2.465,2198,2019-08-07 16:55:07:421
-6.9135,-2.2518,0.3475,-1.3508,-0.4495,4.1957,-2.262,-0.7377,-2.4544,2203,2019-08-07 16:55:07:426
-6.9135,-2.2518,0.3475,-1.3508,-0.4495,4.1957,-2.262,-0.7377,-2.4544,2208,2019-08-07 16:55:07:431
-7.7651,-2.4905,0.965,-0.4031,-0.5242,3.5549,-2.4985,-0.6451,-2.415,2213,2019-08-07 16:55:07:436
-7.7651,-2.4905,0.965,-0.4031,-0.5242,3.5549,-2.4985,-0.6451,-2.415,2219,2019-08-07 16:55:07:442
-9.4205,-3.2304,3.7414,-0.4031,-0.5242,3.5549,-2.7616,-0.6163,-2.3042,2222,2019-08-07 16:55:07:445
-9.4205,-3.2304,3.7414,2.3252,-0.0885,0.7394,-2.7616,-0.6163,-2.3042,2228,2019-08-07 16:55:07:451
-9.4205,-3.2304,3.7414,2.3252,-0.0885,0.7394,-2.9214,-0.9295,-2.1476,2232,2019-08-07 16:55:07:455
-10.9706,-3.9322,4.3448,2.3252,-0.0885,0.7394,-2.9214,-0.9295,-2.1476,2239,2019-08-07 16:55:07:462
-10.9706,-3.9322,4.3448,2.3252,-0.0885,0.7394,-3.1057,-1.4674,-1.9271,2242,2019-08-07 16:55:07:465
-11.3772,-4.3236,5.3205,3.6743,0.0488,-0.9127,-3.1057,-1.4674,-1.9271,2248,2019-08-07 16:55:07:471
-11.3772,-4.3236,5.3205,3.6743,0.0488,-0.9127,-3.3806,-2.6701,-1.5819,2254,2019-08-07 16:55:07:477
-11.3772,-4.3236,5.3205,3.6743,0.0488,-0.9127,-3.3806,-2.6701,-1.5819,2257,2019-08-07 16:55:07:480
-11.0567,-4.2616,5.1932,3.6743,0.0488,-0.9127,-3.3806,-2.6701,-1.5819,2263,2019-08-07 16:55:07:486
-11.0567,-4.2616,5.1932,3.0167,-0.8033,0.3203,-3.7193,-4.0986,-1.1888,2268,2019-08-07 16:55:07:491
-10.0281,-3.9274,3.8498,3.0167,-0.8033,0.3203,-3.7193,-4.0986,-1.1888,2273,2019-08-07 16:55:07:496
-10.0281,-3.9274,3.8498,3.0167,-0.8033,0.3203,-3.976,-4.9317,-0.8757,2278,2019-08-07 16:55:07:501
-10.0281,-3.9274,3.8498,1.6811,-0.8736,2.338,-3.976,-4.9317,-0.8757,2283,2019-08-07 16:55:07:506
-7.569,-4.2425,1.3656,1.6811,-0.8736,2.338,-4.5204,-6.0108,-0.0916,2289,2019-08-07 16:55:07:512
-7.569,-4.2425,1.3656,1.6811,-0.8736,2.338,-4.5204,-6.0108,-0.0916,2293,2019-08-07 16:55:07:516
-7.569,-4.2425,1.3656,1.6811,-0.8736,2.338,-4.5204,-6.0108,-0.0916,2297,2019-08-07 16:55:07:520
-4.0574,-5.3357,-0.5623,-3.1609,0.1942,5.7284,-4.7228,-5.8531,0.5635,2303,2019-08-07 16:55:07:526
-4.0574,-5.3357,-0.5623,-3.1609,0.1942,5.7284,-4.7228,-5.8531,0.5635,2308,2019-08-07 16:55:07:531
-0.2156,-8.1618,-1.7738,-3.1609,0.1942,5.7284,-4.6088,-5.2033,0.9651,2313,2019-08-07 16:55:07:536
-0.2156,-8.1618,-1.7738,-3.1609,0.1942,5.7284,-4.6088,-5.2033,0.9651,2318,2019-08-07 16:55:07:541
-0.2156,-8.1618,-1.7738,-6.7529,3.9398,6.7618,-4.2999,-4.1594,1.2879,2323,2019-08-07 16:55:07:546
0.9995,-10.8733,-1.2883,-6.7529,3.9398,6.7618,-4.2999,-4.1594,1.2879,2328,2019-08-07 16:55:07:551
0.9995,-10.8733,-1.2883,-6.7529,3.9398,6.7618,-3.7609,-2.8182,1.5712,2334,2019-08-07 16:55:07:557
0.9995,-10.8733,-1.2883,-6.7529,3.9398,6.7618,-3.7609,-2.8182,1.5712,2338,2019-08-07 16:55:07:561
0.8034,-13.3366,1.2572,-6.5798,7.1556,3.7092,-3.1025,-1.4802,1.7907,2343,2019-08-07 16:55:07:566
0.8034,-13.3366,1.2572,-6.5798,7.1556,3.7092,-3.1025,-1.4802,1.7907,2348,2019-08-07 16:55:07:571
0.2675,-13.9572,2.8505,-6.5798,7.1556,3.7092,-3.1025,-1.4802,1.7907,2354,2019-08-07 16:55:07:577
0.2675,-13.9572,2.8505,-6.5798,7.1556,3.7092,-2.4516,-0.1977,1.8578,2358,2019-08-07 16:55:07:581
0.2675,-13.9572,2.8505,-5.5943,7.1379,1.4445,-2.4516,-0.1977,1.8578,2364,2019-08-07 16:55:07:587
-0.9764,-12.821,3.3407,-5.5943,7.1379,1.4445,-2.2162,0.4042,1.7736,2367,2019-08-07 16:55:07:590
-0.9764,-12.821,3.3407,-5.5943,7.1379,1.4445,-2.2162,0.4042,1.7736,2374,2019-08-07 16:55:07:597
-0.9764,-12.821,3.3407,-5.5943,7.1379,1.4445,-2.1672,0.6759,1.7129,2377,2019-08-07 16:55:07:600
-2.7753,-11.3029,3.3548,-3.0696,4.7384,1.0893,-2.1672,0.6759,1.7129,2383,2019-08-07 16:55:07:606
-2.7753,-11.3029,3.3548,-3.0696,4.7384,1.0893,-2.1182,0.8058,1.7481,2388,2019-08-07 16:55:07:611
-3.6986,-10.7396,2.9259,-3.0696,4.7384,1.0893,-2.1182,0.8058,1.7481,2393,2019-08-07 16:55:07:616
-3.6986,-10.7396,2.9259,-3.0696,4.7384,1.0893,-1.9787,0.9283,1.7673,2398,2019-08-07 16:55:07:621
-3.6986,-10.7396,2.9259,-2.4136,4.6331,1.0091,-1.9787,0.9283,1.7673,2403,2019-08-07 16:55:07:626
-4.2967,-11.1167,3.138,-2.4136,4.6331,1.0091,-1.9787,0.9283,1.7673,2408,2019-08-07 16:55:07:631
-4.2967,-11.1167,3.138,-2.4136,4.6331,1.0091,-1.7976,1.0306,1.7364,2413,2019-08-07 16:55:07:636
-5.3003,-11.3174,3.487,-2.4136,4.6331,1.0091,-1.7976,1.0306,1.7364,2418,2019-08-07 16:55:07:641
-5.3003,-11.3174,3.487,-0.8618,5.1168,-0.295,-1.6144,1.0775,1.6405,2423,2019-08-07 16:55:07:646
-5.3003,-11.3174,3.487,-0.8618,5.1168,-0.295,-1.6144,1.0775,1.6405,2428,2019-08-07 16:55:07:651
-6.6447,-11.1503,4.7739,-0.8618,5.1168,-0.295,-1.5409,0.8538,1.5318,2433,2019-08-07 16:55:07:656
-6.6447,-11.1503,4.7739,-0.8618,5.1168,-0.295,-1.5409,0.8538,1.5318,2437,2019-08-07 16:55:07:660
-6.6447,-10.3292,6.4049,-0.8618,5.1168,-0.295,-1.5174,0.2988,1.4381,2443,2019-08-07 16:55:07:666
-7.6111,-10.3292,6.4049,0.6886,4.2061,-3.1149,-1.5174,0.2988,1.4381,2448,2019-08-07 16:55:07:671
-7.6111,-10.3292,6.4049,0.6886,4.2061,-3.1149,-1.5622,-0.6568,1.3529,2453,2019-08-07 16:55:07:676
-7.2618,-9.4126,6.8668,0.6886,4.2061,-3.1149,-1.5622,-0.6568,1.3529,2458,2019-08-07 16:55:07:681
-7.2618,-9.4126,6.8668,-0.4737,3.2671,-3.5086,-1.5622,-0.6568,1.3529,2462,2019-08-07 16:55:07:685
-7.2618,-9.4126,6.8668,-0.4737,3.2671,-3.5086,-1.5888,-1.2757,1.2985,2468,2019-08-07 16:55:07:691
-5.3625,-9.3744,6.2022,-0.4737,3.2671,-3.5086,-1.5888,-1.2757,1.2985,2472,2019-08-07 16:55:07:695
-5.3625,-9.3744,6.2022,-0.4737,3.2671,-3.5086,-1.5717,-1.6123,1.2336,2478,2019-08-07 16:55:07:701
-3.4631,-9.8088,5.0756,-3.6297,3.8344,-1.8765,-1.5717,-1.6123,1.2336,2483,2019-08-07 16:55:07:706
-3.4631,-9.8088,5.0756,-3.6297,3.8344,-1.8765,-1.4897,-1.5868,1.1324,2488,2019-08-07 16:55:07:711
-3.4631,-9.8088,5.0756,-3.6297,3.8344,-1.8765,-1.4897,-1.5868,1.1324,2493,2019-08-07 16:55:07:716
-2.5158,-10.1478,4.3685,-4.5794,4.1921,-1.14,-1.397,-1.3822,1.0716,2498,2019-08-07 16:55:07:721
-2.5158,-10.1478,4.3685,-4.5794,4.1921,-1.14,-1.397,-1.3822,1.0716,2503,2019-08-07 16:55:07:726
-1.98,-10.353,3.7369,-4.5794,4.1921,-1.14,-1.2149,-0.8688,0.9438,2508,2019-08-07 16:55:07:731
-1.98,-10.353,3.7369,-4.9493,4.2554,-0.219,-1.2149,-0.8688,0.9438,2512,2019-08-07 16:55:07:735
-1.98,-10.353,3.7369,-4.9493,4.2554,-0.219,-1.0668,-0.3851,0.8245,2518,2019-08-07 16:55:07:741
-2.5254,-9.9282,3.3032,-4.9493,4.2554,-0.219,-1.0668,-0.3851,0.8245,2523,2019-08-07 16:55:07:746
-2.5254,-9.9282,3.3032,-4.9493,4.2554,-0.219,-0.9283,0.0452,0.7126,2528,2019-08-07 16:55:07:751
-3.4201,-9.4556,3.3551,-3.7423,3.5403,-0.2013,-0.9283,0.0452,0.7126,2532,2019-08-07 16:55:07:755
-3.4201,-9.4556,3.3551,-3.7423,3.5403,-0.2013,-0.8175,0.3382,0.6051,2539,2019-08-07 16:55:07:762
-3.4201,-9.4556,3.3551,-3.7423,3.5403,-0.2013,-0.8175,0.3382,0.6051,2543,2019-08-07 16:55:07:766
-4.1425,-9.2217,3.4352,-2.8496,3.2549,-0.418,-0.7227,0.4841,0.4996,2548,2019-08-07 16:55:07:771
-4.1425,-9.2217,3.4352,-2.8496,3.2549,-0.418,-0.7227,0.4841,0.4996,2553,2019-08-07 16:55:07:776
-4.1425,-9.2217,3.4352,-2.8496,3.2549,-0.418,-0.7227,0.4841,0.4996,2558,2019-08-07 16:55:07:781
-5.8361,-8.9066,3.7746,-0.9426,2.9135,-0.9986,-0.645,0.5129,0.4005,2563,2019-08-07 16:55:07:786
-5.8361,-8.9066,3.7746,-0.9426,2.9135,-0.9986,-0.645,0.5129,0.4005,2568,2019-08-07 16:55:07:791
-7.2044,-8.539,4.0998,-0.9426,2.9135,-0.9986,-0.5534,0.303,0.2706,2573,2019-08-07 16:55:07:796
-7.2044,-8.539,4.0998,-0.9426,2.9135,-0.9986,-0.5534,0.303,0.2706,2578,2019-08-07 16:55:07:801
-7.2044,-8.539,4.0998,-0.9426,2.9135,-0.9986,-0.5534,0.303,0.2706,2583,2019-08-07 16:55:07:806
-7.9124,-8.2382,4.1234,0.5121,2.3451,-1.348,-0.5012,0.0037,0.2248,2587,2019-08-07 16:55:07:810
-7.9124,-8.2382,4.1234,0.5121,2.3451,-1.348,-0.4511,-0.3553,0.1853,2593,2019-08-07 16:55:07:816
-7.9124,-8.2382,4.1234,0.5121,2.3451,-1.348,-0.4511,-0.3553,0.1853,2598,2019-08-07 16:55:07:821
-7.8311,-7.9566,4.0056,0.3411,1.9307,-1.103,-0.4127,-0.7037,0.1385,2603,2019-08-07 16:55:07:826
-7.8311,-7.9566,4.0056,0.3411,1.9307,-1.103,-0.4127,-0.7037,0.1385,2607,2019-08-07 16:55:07:830
-7.2426,-7.7179,3.6473,0.3411,1.9307,-1.103,-0.3776,-0.9657,0.0916,2613,2019-08-07 16:55:07:836
-7.2426,-7.7179,3.6473,0.3411,1.9307,-1.103,-0.3776,-0.9657,0.0916,2619,2019-08-07 16:55:07:842
-7.2426,-7.7179,3.6473,0.3411,1.9307,-1.103,-0.3776,-0.9657,0.0916,2623,2019-08-07 16:55:07:846
-6.4867,-7.5413,2.9968,-0.7727,1.6189,-0.0876,-0.3296,-1.0712,0.0479,2628,2019-08-07 16:55:07:851
-6.4867,-7.5413,2.9968,-0.7727,1.6189,-0.0876,-0.3296,-1.0712,0.0479,2633,2019-08-07 16:55:07:856
-5.9796,-7.3408,2.6103,-0.7727,1.6189,-0.0876,-0.2732,-1.0264,0.0149,2639,2019-08-07 16:55:07:862
-5.9796,-7.3408,2.6103,-0.7727,1.6189,-0.0876,-0.2732,-1.0264,0.0149,2643,2019-08-07 16:55:07:866
-5.9796,-7.3408,2.6103,-1.3701,1.3215,0.5118,-0.2253,-0.9039,0.0064,2648,2019-08-07 16:55:07:871
-5.7021,-7.2119,2.4453,-1.3701,1.3215,0.5118,-0.2253,-0.9039,0.0064,2652,2019-08-07 16:55:07:875
-5.7021,-7.2119,2.4453,-1.3701,1.3215,0.5118,-0.1731,-0.7335,0.0032,2658,2019-08-07 16:55:07:881
-5.5012,-7.04,2.3982,-1.3701,1.3215,0.5118,-0.1731,-0.7335,0.0032,2663,2019-08-07 16:55:07:886
-5.5012,-7.04,2.3982,-1.7066,1.116,0.7133,-0.1134,-0.5343,-0.0117,2668,2019-08-07 16:55:07:891
-5.5012,-7.04,2.3982,-1.7066,1.116,0.7133,-0.1134,-0.5343,-0.0117,2673,2019-08-07 16:55:07:896
-5.3481,-7.0066,2.2662,-1.7066,1.116,0.7133,-0.0612,-0.317,-0.032,2677,2019-08-07 16:55:07:900
-5.3481,-7.0066,2.2662,-1.7066,1.116,0.7133,-0.0612,-0.317,-0.032,2683,2019-08-07 16:55:07:906
-5.3481,-7.0066,2.2662,-1.6477,0.8696,0.8543,-0.0122,-0.0581,-0.0565,2688,2019-08-07 16:55:07:911
-5.616,-6.8491,2.3557,-1.6477,0.8696,0.8543,-0.0122,-0.0581,-0.0565,2693,2019-08-07 16:55:07:916
-5.616,-6.8491,2.3557,-1.6477,0.8696,0.8543,-0.0122,-0.0581,-0.0565,2698,2019-08-07 16:55:07:921
-6.037,-6.7011,2.6009,-1.6477,0.8696,0.8543,0.0219,0.1219,-0.0746,2703,2019-08-07 16:55:07:926
-6.037,-6.7011,2.6009,-1.0046,0.6834,0.4668,0.0219,0.1219,-0.0746,2708,2019-08-07 16:55:07:931
-6.1949,-6.6772,2.7847,-1.0046,0.6834,0.4668,0.0602,0.2519,-0.0884,2713,2019-08-07 16:55:07:936
-6.1949,-6.6772,2.7847,-1.0046,0.6834,0.4668,0.0602,0.2519,-0.0884,2719,2019-08-07 16:55:07:942
-6.1949,-6.6772,2.7847,-1.0046,0.6834,0.4668,0.0997,0.3105,-0.0991,2723,2019-08-07 16:55:07:946
-6.4389,-6.6008,2.9214,-0.6521,0.5727,0.1797,0.0997,0.3105,-0.0991,2727,2019-08-07 16:55:07:950
-6.4389,-6.6008,2.9214,-0.6521,0.5727,0.1797,0.1284,0.3339,-0.1161,2733,2019-08-07 16:55:07:956
-6.4389,-6.6008,2.9214,-0.6521,0.5727,0.1797,0.1284,0.3339,-0.1161,2737,2019-08-07 16:55:07:960
-6.6302,-6.3669,3.0958,-0.6521,0.5727,0.1797,0.1519,0.3318,-0.131,2743,2019-08-07 16:55:07:966
-6.6302,-6.3669,3.0958,-0.4393,0.2877,-0.0965,0.1519,0.3318,-0.131,2748,2019-08-07 16:55:07:971
-6.6302,-6.3669,3.0958,-0.4393,0.2877,-0.0965,0.1625,0.2743,-0.1417,2753,2019-08-07 16:55:07:976
-6.6111,-6.2428,3.3032,-0.4393,0.2877,-0.0965,0.1625,0.2743,-0.1417,2758,2019-08-07 16:55:07:981
-6.6111,-6.2428,3.3032,-0.4393,0.2877,-0.0965,0.1721,0.2093,-0.1502,2764,2019-08-07 16:55:07:987
-6.6111,-6.2428,3.3032,-0.5117,0.1269,-0.2724,0.1721,0.2093,-0.1502,2768,2019-08-07 16:55:07:991
-6.5632,-6.1569,3.3362,-0.5117,0.1269,-0.2724,0.1721,0.2093,-0.1502,2773,2019-08-07 16:55:07:996
-6.5632,-6.1569,3.3362,-0.5117,0.1269,-0.2724,0.1795,0.1379,-0.1577,2778,2019-08-07 16:55:08:001
-6.4628,-6.0996,3.3928,-0.5117,0.1269,-0.2724,0.1795,0.1379,-0.1577,2783,2019-08-07 16:55:08:006
-6.4628,-6.0996,3.3928,-0.6323,0.0943,-0.2729,0.1785,0.0846,-0.1577,2788,2019-08-07 16:55:08:011
-6.4628,-6.0996,3.3928,-0.6323,0.0943,-0.2729,0.1785,0.0846,-0.1577,2793,2019-08-07 16:55:08:016
-6.3814,-6.1616,3.2797,-0.6323,0.0943,-0.2729,0.1753,0.0793,-0.1683,2798,2019-08-07 16:55:08:021
-6.3814,-6.1616,3.2797,-0.6323,0.0943,-0.2729,0.1753,0.0793,-0.1683,2802,2019-08-07 16:55:08:025
-6.4341,-6.0853,3.2419,-0.6229,0.0028,-0.1697,0.1827,0.0719,-0.1768,2808,2019-08-07 16:55:08:031
-6.4341,-6.0853,3.2419,-0.6229,0.0028,-0.1697,0.1827,0.0719,-0.1768,2813,2019-08-07 16:55:08:036
-6.2762,-6.1139,3.1288,-0.6229,0.0028,-0.1697,0.1785,0.0761,-0.1758,2818,2019-08-07 16:55:08:041
-6.2762,-6.1139,3.1288,-0.6229,0.0028,-0.1697,0.1785,0.0761,-0.1758,2823,2019-08-07 16:55:08:046
-6.2762,-6.1139,3.1288,-0.7988,0.1002,0.0217,0.1785,0.0761,-0.1758,2828,2019-08-07 16:55:08:051
-6.281,-6.2332,3.0015,-0.7988,0.1002,0.0217,0.1753,0.1294,-0.1982,2833,2019-08-07 16:55:08:056
-6.281,-6.2332,3.0015,-0.7988,0.1002,0.0217,0.1753,0.1294,-0.1982,2838,2019-08-07 16:55:08:061
-6.281,-6.2332,3.0015,-0.7988,0.1002,0.0217,0.1753,0.1294,-0.1982,2842,2019-08-07 16:55:08:065
-6.5154,-6.176,2.9638,-0.456,0.0647,0.1518,0.1849,0.2114,-0.2195,2848,2019-08-07 16:55:08:071
-6.5154,-6.176,2.9638,-0.456,0.0647,0.1518,0.1849,0.2114,-0.2195,2854,2019-08-07 16:55:08:077
-6.5919,-6.1425,3.0675,-0.456,0.0647,0.1518,0.1785,0.2711,-0.2418,2858,2019-08-07 16:55:08:081
-6.5919,-6.1425,3.0675,-0.456,0.0647,0.1518,0.1785,0.2711,-0.2418,2863,2019-08-07 16:55:08:086
-6.5871,-6.1139,3.1194,-0.4167,-0.0323,-0.0523,0.1689,0.286,-0.261,2868,2019-08-07 16:55:08:091
-6.5871,-6.1139,3.1194,-0.4167,-0.0323,-0.0523,0.1689,0.286,-0.261,2873,2019-08-07 16:55:08:096
-6.5871,-6.1139,3.1194,-0.4167,-0.0323,-0.0523,0.1689,0.303,-0.2695,2877,2019-08-07 16:55:08:100
-6.4388,-6.1187,3.0675,-0.4167,-0.0323,-0.0523,0.1689,0.303,-0.2695,2883,2019-08-07 16:55:08:106
-6.4388,-6.1187,3.0675,-0.5341,-0.0333,-0.0269,0.1646,0.3275,-0.2759,2888,2019-08-07 16:55:08:111
-6.4197,-6.1235,3.0581,-0.5341,-0.0333,-0.0269,0.1646,0.3275,-0.2759,2893,2019-08-07 16:55:08:116
-6.4197,-6.1235,3.0581,-0.5341,-0.0333,-0.0269,0.1604,0.3275,-0.2663,2898,2019-08-07 16:55:08:121
-6.4197,-6.1235,3.0581,-0.5341,-0.0333,-0.0269,0.1604,0.3275,-0.2663,2903,2019-08-07 16:55:08:126
-6.324,-6.0996,3.1288,-0.5341,-0.0333,-0.0269,0.1604,0.3275,-0.2663,2908,2019-08-07 16:55:08:131
-6.324,-6.0996,3.1288,-0.6621,-0.1244,-0.1543,0.1572,0.2966,-0.2408,2913,2019-08-07 16:55:08:136
-6.1709,-6.0471,3.1147,-0.6621,-0.1244,-0.1543,0.1572,0.2966,-0.2408,2918,2019-08-07 16:55:08:141
-6.1709,-6.0471,3.1147,-0.6621,-0.1244,-0.1543,0.1572,0.237,-0.2056,2923,2019-08-07 16:55:08:146
-6.1709,-6.0471,3.1147,-0.8819,-0.1477,0.0483,0.1572,0.237,-0.2056,2928,2019-08-07 16:55:08:151
-6.08,-6.1187,2.9827,-0.8819,-0.1477,0.0483,0.1476,0.2093,-0.1832,2933,2019-08-07 16:55:08:156
-6.08,-6.1187,2.9827,-0.8819,-0.1477,0.0483,0.1476,0.2093,-0.1832,2937,2019-08-07 16:55:08:160
-6.08,-6.1187,2.9827,-0.8819,-0.1477,0.0483,0.1423,0.1805,-0.1502,2943,2019-08-07 16:55:08:166
-6.147,-6.0471,2.9544,-0.8224,-0.2214,0.0176,0.1423,0.1805,-0.1502,2948,2019-08-07 16:55:08:171
-6.147,-6.0471,2.9544,-0.8224,-0.2214,0.0176,0.1423,0.1645,-0.1172,2953,2019-08-07 16:55:08:176
-6.1613,-6.0471,2.9591,-0.8224,-0.2214,0.0176,0.1423,0.1645,-0.1172,2958,2019-08-07 16:55:08:181
-6.1613,-6.0471,2.9591,-0.8224,-0.2214,0.0176,0.1433,0.1496,-0.0948,2962,2019-08-07 16:55:08:185
-6.2331,-6.0709,2.8366,-0.7062,-0.182,0.1607,0.1433,0.1496,-0.0948,2968,2019-08-07 16:55:08:191
-6.2331,-6.0709,2.8366,-0.7062,-0.182,0.1607,0.138,0.1507,-0.0874,2973,2019-08-07 16:55:08:196
-6.2331,-6.0709,2.8366,-0.7062,-0.182,0.1607,0.138,0.1507,-0.0874,2977,2019-08-07 16:55:08:200
-6.2809,-6.0089,2.7847,-0.7062,-0.182,0.1607,0.1465,0.1635,-0.0724,2983,2019-08-07 16:55:08:206
-6.2809,-6.0089,2.7847,-0.7062,-0.182,0.1607,0.1465,0.1635,-0.0724,2988,2019-08-07 16:55:08:211
-6.3718,-5.9707,2.8036,-0.5992,-0.2478,0.1711,0.1572,0.1699,-0.0639,2993,2019-08-07 16:55:08:216
-6.3718,-5.9707,2.8036,-0.5992,-0.2478,0.1711,0.1572,0.1699,-0.0639,2998,2019-08-07 16:55:08:221
-6.3718,-5.9707,2.8036,-0.5992,-0.2478,0.1711,0.1572,0.1699,-0.0639,3003,2019-08-07 16:55:08:226
-6.3718,-5.9707,2.8036,-0.5992,-0.2478,0.1711,0.1614,0.156,-0.0554,3008,2019-08-07 16:55:08:231
-6.3909,-5.942,2.8083,-0.6006,-0.3096,0.206,0.1614,0.156,-0.0554,3013,2019-08-07 16:55:08:236
-6.3909,-5.942,2.8083,-0.6006,-0.3096,0.206,0.1614,0.156,-0.0554,3018,2019-08-07 16:55:08:241
-6.3909,-5.942,2.8083,-0.6006,-0.3096,0.206,0.1614,0.156,-0.0554,3023,2019-08-07 16:55:08:246
-6.3574,-6.0041,2.7423,-0.6058,-0.3093,0.2908,0.1625,0.1464,-0.0554,3029,2019-08-07 16:55:08:252
-6.3574,-6.0041,2.7423,-0.6058,-0.3093,0.2908,0.1625,0.1464,-0.0554,3033,2019-08-07 16:55:08:256
-6.3574,-6.0041,2.7423,-0.6058,-0.3093,0.2908,0.1625,0.1464,-0.0554,3038,2019-08-07 16:55:08:261
-6.3574,-6.0137,2.6669,-0.6058,-0.3093,0.2908,0.1657,0.1922,-0.0629,3043,2019-08-07 16:55:08:266
-6.3574,-6.0137,2.6669,-0.6058,-0.3093,0.2908,0.1657,0.1922,-0.0629,3047,2019-08-07 16:55:08:270
-6.3574,-6.0137,2.6669,-0.5219,-0.234,0.4151,0.1668,0.2274,-0.0607,3053,2019-08-07 16:55:08:276
-6.501,-6.0089,2.5443,-0.5219,-0.234,0.4151,0.1668,0.2274,-0.0607,3057,2019-08-07 16:55:08:280
-6.501,-6.0089,2.5443,-0.5219,-0.234,0.4151,0.1678,0.2455,-0.065,3063,2019-08-07 16:55:08:286
-6.8024,-5.9468,2.6527,-0.5219,-0.234,0.4151,0.1678,0.2455,-0.065,3068,2019-08-07 16:55:08:291
-6.8024,-5.9468,2.6527,-0.0885,-0.367,0.3067,0.1519,0.2071,-0.0661,3072,2019-08-07 16:55:08:295
-6.8024,-5.9468,2.6527,-0.0885,-0.367,0.3067,0.1519,0.2071,-0.0661,3078,2019-08-07 16:55:08:301
-6.8933,-5.9039,2.7847,-0.0885,-0.367,0.3067,0.1348,0.139,-0.0607,3083,2019-08-07 16:55:08:306
-6.8933,-5.9039,2.7847,-0.0885,-0.367,0.3067,0.1348,0.139,-0.0607,3088,2019-08-07 16:55:08:311
-6.9794,-5.775,2.7046,0.0367,-0.4231,0.2292,0.1231,0.1027,-0.0597,3093,2019-08-07 16:55:08:316
-6.9794,-5.775,2.7046,0.0367,-0.4231,0.2292,0.1231,0.1027,-0.0597,3098,2019-08-07 16:55:08:321
-6.9794,-5.775,2.7046,0.0367,-0.4231,0.2292,0.1124,0.0601,-0.0501,3103,2019-08-07 16:55:08:326
-6.9076,-5.775,2.6999,-0.1592,-0.4554,0.2508,0.1124,0.0601,-0.0501,3110,2019-08-07 16:55:08:333
-6.9076,-5.775,2.6999,-0.1592,-0.4554,0.2508,0.1124,0.0601,-0.0501,3112,2019-08-07 16:55:08:335
-6.7115,-5.837,2.6952,-0.1592,-0.4554,0.2508,0.0933,0.0292,-0.0469,3118,2019-08-07 16:55:08:341
-6.7115,-5.837,2.6952,-0.1592,-0.4554,0.2508,0.0933,0.0292,-0.0469,3123,2019-08-07 16:55:08:346
-6.7115,-5.837,2.6952,-0.1592,-0.4554,0.2508,0.0794,0.0218,-0.0448,3128,2019-08-07 16:55:08:351
-6.5823,-5.7893,2.5632,-0.3854,-0.4613,0.4074,0.0794,0.0218,-0.0448,3133,2019-08-07 16:55:08:356
-6.5823,-5.7893,2.5632,-0.3854,-0.4613,0.4074,0.0741,0.058,-0.0288,3138,2019-08-07 16:55:08:361
-6.4914,-5.7893,2.5208,-0.3854,-0.4613,0.4074,0.0741,0.058,-0.0288,3143,2019-08-07 16:55:08:366
-6.4914,-5.7893,2.5208,-0.3854,-0.4613,0.4074,0.0645,0.1091,-0.0192,3148,2019-08-07 16:55:08:371
-6.4914,-5.7893,2.5208,-0.3683,-0.4513,0.4083,0.0645,0.1091,-0.0192,3153,2019-08-07 16:55:08:376
-6.5583,-5.8323,2.5679,-0.3683,-0.4513,0.4083,0.0645,0.1091,-0.0192,3157,2019-08-07 16:55:08:380
-6.5583,-5.8323,2.5679,-0.3683,-0.4513,0.4083,0.0517,0.1336,-0.0011,3163,2019-08-07 16:55:08:386
-6.5583,-5.8323,2.5679,-0.3683,-0.4513,0.4083,0.0517,0.1336,-0.0011,3168,2019-08-07 16:55:08:391
-6.611,-5.8132,2.648,-0.3768,-0.4383,0.3153,0.0443,0.1187,0.016,3172,2019-08-07 16:55:08:395
-6.611,-5.8132,2.648,-0.3768,-0.4383,0.3153,0.0443,0.1187,0.016,3178,2019-08-07 16:55:08:401
-6.5583,-5.8084,2.747,-0.3768,-0.4383,0.3153,0.0357,0.0964,0.0447,3182,2019-08-07 16:55:08:405
-6.5583,-5.8084,2.747,-0.3768,-0.4383,0.3153,0.0357,0.0964,0.0447,3188,2019-08-07 16:55:08:411
-6.5583,-5.8084,2.747,-0.4793,-0.3534,0.2591,0.024,0.0782,0.0778,3193,2019-08-07 16:55:08:416
-6.5105,-5.8466,2.6716,-0.4793,-0.3534,0.2591,0.024,0.0782,0.0778,3198,2019-08-07 16:55:08:421
-6.5105,-5.8466,2.6716,-0.4793,-0.3534,0.2591,0.0208,0.0793,0.1044,3203,2019-08-07 16:55:08:426
-6.6397,-5.8752,2.6669,-0.4793,-0.3534,0.2591,0.0208,0.0793,0.1044,3208,2019-08-07 16:55:08:431
-6.6397,-5.8752,2.6669,-0.2388,-0.3616,0.1838,0.023,0.0761,0.1236,3213,2019-08-07 16:55:08:436
-6.6397,-5.8752,2.6669,-0.2388,-0.3616,0.1838,0.023,0.0761,0.1236,3217,2019-08-07 16:55:08:440
-6.8167,-5.837,2.714,-0.2388,-0.3616,0.1838,0.0219,0.0655,0.1331,3223,2019-08-07 16:55:08:446
-6.8167,-5.837,2.714,-0.2388,-0.3616,0.1838,0.0219,0.0655,0.1331,3228,2019-08-07 16:55:08:451
-6.831,-5.8704,2.7235,-0.179,-0.3362,0.2045,0.0198,0.0719,0.1342,3233,2019-08-07 16:55:08:456
-6.831,-5.8704,2.7235,-0.179,-0.3362,0.2045,0.0198,0.0719,0.1342,3238,2019-08-07 16:55:08:461
-6.831,-5.8704,2.7235,-0.179,-0.3362,0.2045,0.0262,0.0932,0.1246,3243,2019-08-07 16:55:08:466
-6.7832,-5.8561,2.6386,-0.179,-0.3362,0.2045,0.0262,0.0932,0.1246,3248,2019-08-07 16:55:08:471
-6.7832,-5.8561,2.6386,-0.2441,-0.2069,0.2542,0.0283,0.1347,0.1065,3253,2019-08-07 16:55:08:476
-6.7832,-5.8561,2.6386,-0.2441,-0.2069,0.2542,0.0283,0.1347,0.1065,3257,2019-08-07 16:55:08:480
-6.8454,-5.9468,2.5208,-0.2441,-0.2069,0.2542,0.0187,0.172,0.0884,3263,2019-08-07 16:55:08:486
-6.8454,-5.9468,2.5208,-0.2441,-0.2069,0.2542,0.0187,0.172,0.0884,3268,2019-08-07 16:55:08:491
-6.9745,-6.1282,2.7187,-0.079,-0.045,0.1751,0.0187,0.172,0.0884,3273,2019-08-07 16:55:08:496
-6.9745,-6.1282,2.7187,-0.079,-0.045,0.1751,0.024,0.1965,0.0714,3278,2019-08-07 16:55:08:501
-6.9745,-6.1282,2.7187,-0.079,-0.045,0.1751,0.024,0.1965,0.0714,3283,2019-08-07 16:55:08:506
-6.8836,-6.1378,2.7565,-0.079,-0.045,0.1751,0.0368,0.2071,0.0586,3288,2019-08-07 16:55:08:511
-6.8836,-6.1378,2.7565,-0.3043,-0.073,0.1397,0.0368,0.2071,0.0586,3292,2019-08-07 16:55:08:515
-6.7736,-6.1044,2.5915,-0.3043,-0.073,0.1397,0.0464,0.2157,0.0522,3298,2019-08-07 16:55:08:521
-6.7736,-6.1044,2.5915,-0.3043,-0.073,0.1397,0.0464,0.2157,0.0522,3303,2019-08-07 16:55:08:526
-6.7736,-6.1044,2.5915,-0.3043,-0.073,0.1397,0.0411,0.2253,0.0533,3308,2019-08-07 16:55:08:531
-6.8693,-6.0566,2.7423,-0.2276,-0.1259,0.0698,0.0411,0.2253,0.0533,3312,2019-08-07 16:55:08:535
-6.8693,-6.0566,2.7423,-0.2276,-0.1259,0.0698,0.0325,0.237,0.0479,3318,2019-08-07 16:55:08:541
-6.8693,-6.0566,2.7423,-0.2276,-0.1259,0.0698,0.0325,0.237,0.0479,3323,2019-08-07 16:55:08:546
-7.1946,-5.9802,3.0016,0.0928,-0.1688,-0.1749,0.0304,0.172,0.0554,3328,2019-08-07 16:55:08:551
-7.1946,-5.9802,3.0016,0.0928,-0.1688,-0.1749,0.0304,0.172,0.0554,3333,2019-08-07 16:55:08:556
-7.252,-6.0184,3.0534,0.0928,-0.1688,-0.1749,0.0283,0.074,0.0618,3338,2019-08-07 16:55:08:561
-7.252,-6.0184,3.0534,0.1071,-0.1427,-0.2045,0.0283,0.074,0.0618,3343,2019-08-07 16:55:08:566
-7.252,-6.0184,3.0534,0.1071,-0.1427,-0.2045,0.024,-0.0421,0.0618,3348,2019-08-07 16:55:08:571
-7.1324,-5.9946,2.9026,0.1071,-0.1427,-0.2045,0.024,-0.0421,0.0618,3354,2019-08-07 16:55:08:577
-7.1324,-5.9946,2.9026,0.1071,-0.1427,-0.2045,0.0272,-0.1135,0.0607,3358,2019-08-07 16:55:08:581
-6.9171,-5.9993,2.7753,-0.2977,-0.108,0.1181,0.0272,-0.1135,0.0607,3363,2019-08-07 16:55:08:586
-6.9171,-5.9993,2.7753,-0.2977,-0.108,0.1181,0.0262,-0.1359,0.0596,3367,2019-08-07 16:55:08:590
-6.9171,-5.9993,2.7753,-0.2977,-0.108,0.1181,0.0262,-0.1359,0.0596,3373,2019-08-07 16:55:08:596
-6.5726,-5.9707,2.615,-0.2977,-0.108,0.1181,0.0251,-0.1018,0.0533,3378,2019-08-07 16:55:08:601
-6.5726,-5.9707,2.615,-0.2977,-0.108,0.1181,0.0251,-0.1018,0.0533,3383,2019-08-07 16:55:08:606
-6.5726,-5.9707,2.615,-0.5934,-0.1575,0.2504,0.0251,-0.1018,0.0533,3387,2019-08-07 16:55:08:610
-6.5631,-5.9516,2.6622,-0.5934,-0.1575,0.2504,0.0262,-0.0272,0.0501,3393,2019-08-07 16:55:08:616
-6.5631,-5.9516,2.6622,-0.5934,-0.1575,0.2504,0.0262,-0.0272,0.0501,3397,2019-08-07 16:55:08:620
-6.5774,-5.985,2.6386,-0.5066,-0.1457,0.1938,0.0251,0.0143,0.0501,3403,2019-08-07 16:55:08:626
-6.5774,-5.985,2.6386,-0.5066,-0.1457,0.1938,0.0251,0.0143,0.0501,3407,2019-08-07 16:55:08:630
-6.6629,-6.0042,2.6953,-0.5066,-0.1457,0.1938,0.0272,0.0484,0.0501,3413,2019-08-07 16:55:08:636
-6.6629,-6.0042,2.6953,-0.5066,-0.1457,0.1938,0.023,0.0537,0.0479,3420,2019-08-07 16:55:08:643
-6.6629,-6.0042,2.6953,-0.5066,-0.1457,0.1938,0.023,0.0537,0.0479,3423,2019-08-07 16:55:08:646
-6.8638,-5.9517,2.7802,-0.2664,-0.1524,0.0722,0.023,0.0537,0.0479,3428,2019-08-07 16:55:08:651
-6.8638,-5.9517,2.7802,-0.2664,-0.1524,0.0722,0.0166,0.0239,0.0501,3433,2019-08-07 16:55:08:656
-6.8925,-5.9612,2.8132,-0.2664,-0.1524,0.0722,0.0166,0.0239,0.0501,3437,2019-08-07 16:55:08:660
-6.8925,-5.9612,2.8132,-0.2664,-0.1524,0.0722,0.0091,-0.0112,0.0522,3443,2019-08-07 16:55:08:666
-6.8925,-5.9612,2.8132,-0.2204,-0.1969,0.0682,0.0091,-0.0112,0.0522,3447,2019-08-07 16:55:08:670
-6.9069,-5.966,2.7849,-0.2204,-0.1969,0.0682,0.007,-0.0336,0.0437,3453,2019-08-07 16:55:08:676
-6.9069,-5.966,2.7849,-0.2204,-0.1969,0.0682,0.007,-0.0336,0.0437,3457,2019-08-07 16:55:08:680
-6.8782,-5.9183,2.7095,-0.2204,-0.1969,0.0682,-5.0E-4,-0.0528,0.0383,3463,2019-08-07 16:55:08:686
-6.8782,-5.9183,2.7095,-0.2618,-0.1572,0.1303,-5.0E-4,-0.0528,0.0383,3468,2019-08-07 16:55:08:691
-6.8782,-5.9183,2.7095,-0.2618,-0.1572,0.1303,-5.0E-4,-0.0528,0.0383,3473,2019-08-07 16:55:08:696
-6.749,-5.966,2.6623,-0.2618,-0.1572,0.1303,-0.0122,-0.0794,0.0394,3478,2019-08-07 16:55:08:701
-6.749,-5.966,2.6623,-0.2618,-0.1572,0.1303,-0.0122,-0.0794,0.0394,3483,2019-08-07 16:55:08:706
-6.6437,-6.0042,2.6199,-0.4959,-0.0582,0.3368,-0.0133,-0.0656,0.033,3488,2019-08-07 16:55:08:711
-6.6437,-6.0042,2.6199,-0.4959,-0.0582,0.3368,-0.0133,-0.0656,0.033,3493,2019-08-07 16:55:08:716
-6.6437,-6.0042,2.6199,-0.4959,-0.0582,0.3368,-0.0133,-0.0656,0.033,3498,2019-08-07 16:55:08:721
-6.5719,-6.0519,2.5303,-0.5149,-0.1097,0.3015,-0.0079,-0.0272,0.0277,3503,2019-08-07 16:55:08:726
-6.5719,-6.0519,2.5303,-0.5149,-0.1097,0.3015,-0.0079,-0.0272,0.0277,3508,2019-08-07 16:55:08:731
-6.5719,-6.0519,2.5303,-0.5149,-0.1097,0.3015,-0.0079,-0.0272,0.0277,3513,2019-08-07 16:55:08:736
-6.5767,-6.009,2.5445,-0.6075,-0.085,0.3602,-0.009,0.0175,0.0224,3518,2019-08-07 16:55:08:741
-6.5767,-6.009,2.5445,-0.6075,-0.085,0.3602,-0.009,0.0175,0.0224,3523,2019-08-07 16:55:08:746
-6.6772,-5.9851,2.5728,-0.6075,-0.085,0.3602,-0.0015,0.0601,0.0213,3528,2019-08-07 16:55:08:751
-6.6772,-5.9851,2.5728,-0.6075,-0.085,0.3602,-0.0015,0.0601,0.0213,3533,2019-08-07 16:55:08:756
-6.7441,-5.9278,2.5916,-0.4787,-0.1506,0.2229,0.0038,0.0782,0.0181,3538,2019-08-07 16:55:08:761
-6.7441,-5.9278,2.5916,-0.4787,-0.1506,0.2229,0.0038,0.0782,0.0181,3543,2019-08-07 16:55:08:766
-6.7441,-5.9278,2.5916,-0.4787,-0.1506,0.2229,-5.0E-4,0.0665,0.0181,3548,2019-08-07 16:55:08:771
-6.8159,-5.9517,2.6765,-0.4787,-0.1506,0.2229,-5.0E-4,0.0665,0.0181,3554,2019-08-07 16:55:08:777
-6.8159,-5.9517,2.6765,-0.3741,-0.1533,0.1569,6.0E-4,0.0154,0.0288,3558,2019-08-07 16:55:08:781
-6.8159,-5.9517,2.6765,-0.3741,-0.1533,0.1569,6.0E-4,0.0154,0.0288,3562,2019-08-07 16:55:08:785
-6.8159,-5.9421,2.5869,-0.3741,-0.1533,0.1569,6.0E-4,0.0154,0.0288,3568,2019-08-07 16:55:08:791
-6.8159,-5.9421,2.5869,-0.3741,-0.1533,0.1569,0.0048,-0.0304,0.0309,3572,2019-08-07 16:55:08:795
-6.8111,-5.923,2.7189,-0.3429,-0.1544,0.1308,0.0144,-0.0389,0.0288,3578,2019-08-07 16:55:08:801
-6.8111,-5.923,2.7189,-0.3429,-0.1544,0.1308,0.0144,-0.0389,0.0288,3583,2019-08-07 16:55:08:806
-6.8111,-5.923,2.7189,-0.3429,-0.1544,0.1308,0.0144,-0.0389,0.0288,3588,2019-08-07 16:55:08:811
-6.7632,-5.9087,2.5964,-0.3429,-0.1544,0.1308,0.0166,-0.0517,0.0373,3593,2019-08-07 16:55:08:816
-6.7632,-5.9087,2.5964,-0.4634,-0.202,0.29,0.0166,-0.0517,0.0373,3598,2019-08-07 16:55:08:821
-6.6436,-5.9278,2.5916,-0.4634,-0.202,0.29,0.0134,-0.0581,0.0298,3602,2019-08-07 16:55:08:825
-6.6436,-5.9278,2.5916,-0.4634,-0.202,0.29,0.0134,-0.0581,0.0298,3608,2019-08-07 16:55:08:831
-6.6436,-5.9278,2.5916,-0.4634,-0.202,0.29,0.0166,-0.056,0.0234,3613,2019-08-07 16:55:08:836
-6.6723,-5.9421,2.4314,-0.4485,-0.0843,0.4206,0.0166,-0.056,0.0234,3618,2019-08-07 16:55:08:841
-6.6723,-5.9421,2.4314,-0.4485,-0.0843,0.4206,0.023,-0.0187,0.0288,3623,2019-08-07 16:55:08:846
-6.7919,-5.9517,2.5162,-0.4485,-0.0843,0.4206,0.023,-0.0187,0.0288,3627,2019-08-07 16:55:08:850
-6.7919,-5.9517,2.5162,-0.4485,-0.0843,0.4206,0.0262,0.0111,0.016,3633,2019-08-07 16:55:08:856
-6.7919,-5.9517,2.5162,-0.2258,-0.1813,0.2288,0.0262,0.0111,0.016,3637,2019-08-07 16:55:08:860
-6.945,-5.904,2.6671,-0.2258,-0.1813,0.2288,0.0315,0.0069,0.0181,3643,2019-08-07 16:55:08:866
-6.945,-5.904,2.6671,-0.2258,-0.1813,0.2288,0.0315,0.0069,0.0181,3647,2019-08-07 16:55:08:870
-6.945,-5.904,2.6671,-0.2258,-0.1813,0.2288,0.0272,-0.0155,0.0053,3653,2019-08-07 16:55:08:876
-6.8397,-5.8944,2.5304,-0.3182,-0.1447,0.2839,0.0272,-0.0155,0.0053,3657,2019-08-07 16:55:08:880
-6.8397,-5.8944,2.5304,-0.3182,-0.1447,0.2839,0.0283,-0.0272,0.0,3663,2019-08-07 16:55:08:886
-6.7344,-5.9278,2.5257,-0.3182,-0.1447,0.2839,0.0283,-0.0272,0.0,3668,2019-08-07 16:55:08:891
-6.7344,-5.9278,2.5257,-0.3182,-0.1447,0.2839,0.0283,-0.0272,0.0,3673,2019-08-07 16:55:08:896
-6.7344,-5.9278,2.5257,-0.4165,-0.1305,0.3127,0.0293,-0.0187,-0.0053,3678,2019-08-07 16:55:08:901
-6.7249,-5.9278,2.6435,-0.4165,-0.1305,0.3127,0.0293,-0.0187,-0.0053,3683,2019-08-07 16:55:08:906
-6.7249,-5.9278,2.6435,-0.4165,-0.1305,0.3127,0.0421,-0.0048,-0.0021,3688,2019-08-07 16:55:08:911
-6.7536,-5.8658,2.6859,-0.4165,-0.1305,0.3127,0.0421,-0.0048,-0.0021,3693,2019-08-07 16:55:08:916
-6.7536,-5.8658,2.6859,-0.4061,-0.248,0.2053,0.0475,-0.0134,0.0075,3698,2019-08-07 16:55:08:921
-6.7536,-5.8658,2.6859,-0.4061,-0.248,0.2053,0.0475,-0.0134,0.0075,3703,2019-08-07 16:55:08:926
-6.7488,-5.8753,2.6812,-0.4061,-0.248,0.2053,0.0475,-0.0134,0.0075,3708,2019-08-07 16:55:08:931
-6.7488,-5.8753,2.6812,-0.4061,-0.248,0.2053,0.0432,-0.0208,0.0064,3713,2019-08-07 16:55:08:936
-6.7679,-5.818,2.6435,-0.3861,-0.2405,0.2463,0.0432,-0.0208,0.0064,3719,2019-08-07 16:55:08:942
-6.7679,-5.818,2.6435,-0.3861,-0.2405,0.2463,0.0368,-0.0293,0.0053,3723,2019-08-07 16:55:08:946
-6.7679,-5.818,2.6435,-0.3861,-0.2405,0.2463,0.0368,-0.0293,0.0053,3728,2019-08-07 16:55:08:951
-6.7583,-5.8753,2.5964,-0.3861,-0.2405,0.2463,0.0315,-0.0315,0.0053,3733,2019-08-07 16:55:08:956
-6.7583,-5.8753,2.5964,-0.3861,-0.2405,0.2463,0.0315,-0.0315,0.0053,3738,2019-08-07 16:55:08:961
-6.7583,-5.8753,2.5964,-0.461,-0.1815,0.2303,0.0251,-0.023,0.0021,3742,2019-08-07 16:55:08:965
-6.7248,-5.861,2.6105,-0.461,-0.1815,0.2303,0.0251,-0.023,0.0021,3748,2019-08-07 16:55:08:971
-6.7248,-5.861,2.6105,-0.461,-0.1815,0.2303,0.0198,-0.0112,-0.0075,3752,2019-08-07 16:55:08:975
-6.7248,-5.861,2.6105,-0.461,-0.1815,0.2303,0.0198,-0.0112,-0.0075,3758,2019-08-07 16:55:08:981
-6.6961,-5.8849,2.6058,-0.4546,-0.1723,0.2951,0.0102,0.0037,-0.0149,3762,2019-08-07 16:55:08:985
-6.6961,-5.8849,2.6058,-0.4546,-0.1723,0.2951,0.0102,0.0037,-0.0149,3768,2019-08-07 16:55:08:991
-6.6961,-5.8849,2.6058,-0.4546,-0.1723,0.2951,0.0102,0.0037,-0.0149,3773,2019-08-07 16:55:08:996
-6.787,-5.7989,2.7048,-0.4546,-0.1723,0.2951,0.0038,0.026,-0.0256,3778,2019-08-07 16:55:09:001
-6.787,-5.7989,2.7048,-0.3427,-0.2088,0.1189,0.0038,0.026,-0.0256,3782,2019-08-07 16:55:09:005
-6.7774,-5.8467,2.7849,-0.3427,-0.2088,0.1189,-0.0015,0.0356,-0.0298,3788,2019-08-07 16:55:09:011
-6.7774,-5.8467,2.7849,-0.3427,-0.2088,0.1189,-0.0015,0.0356,-0.0298,3793,2019-08-07 16:55:09:016
-6.7774,-5.8467,2.7849,-0.3427,-0.2088,0.1189,-0.0069,0.0292,-0.0309,3797,2019-08-07 16:55:09:020
-6.8013,-5.8419,2.7425,-0.3455,-0.223,0.1516,-0.0069,0.0292,-0.0309,3803,2019-08-07 16:55:09:026
-6.8013,-5.8419,2.7425,-0.3455,-0.223,0.1516,-0.0111,0.0165,-0.0298,3807,2019-08-07 16:55:09:030
-6.8348,-5.8371,2.8038,-0.3455,-0.223,0.1516,-0.0111,0.0165,-0.0298,3813,2019-08-07 16:55:09:036
-6.8348,-5.8371,2.8038,-0.3455,-0.223,0.1516,-0.0143,-0.0102,-0.0213,3818,2019-08-07 16:55:09:041
-6.8348,-5.8371,2.8038,-0.3473,-0.2137,0.092,-0.0143,-0.0102,-0.0213,3823,2019-08-07 16:55:09:046
-6.7534,-5.904,2.7567,-0.3473,-0.2137,0.092,-0.0143,-0.0262,-0.0128,3828,2019-08-07 16:55:09:051
-6.7534,-5.904,2.7567,-0.3473,-0.2137,0.092,-0.0143,-0.0262,-0.0128,3832,2019-08-07 16:55:09:055
-6.6577,-5.8944,2.7237,-0.3473,-0.2137,0.092,-0.0122,-0.0283,-0.0149,3838,2019-08-07 16:55:09:061
-6.6577,-5.8944,2.7237,-0.4771,-0.1319,0.2068,-0.0122,-0.0283,-0.0149,3842,2019-08-07 16:55:09:065
-6.6577,-5.8944,2.7237,-0.4771,-0.1319,0.2068,-0.0069,-0.0134,-0.0117,3848,2019-08-07 16:55:09:071
-6.7056,-5.904,2.6483,-0.4771,-0.1319,0.2068,-0.0069,-0.0134,-0.0117,3853,2019-08-07 16:55:09:076
-6.7056,-5.904,2.6483,-0.4771,-0.1319,0.2068,-0.0069,-0.0134,-0.0117,3858,2019-08-07 16:55:09:081
-6.696,-5.861,2.719,-0.4648,-0.1785,0.2437,-0.0069,0.0228,-0.0139,3863,2019-08-07 16:55:09:086
-6.696,-5.861,2.719,-0.4648,-0.1785,0.2437,-0.0015,0.0505,-0.0181,3868,2019-08-07 16:55:09:091
-6.696,-5.861,2.719,-0.4648,-0.1785,0.2437,-0.0015,0.0505,-0.0181,3873,2019-08-07 16:55:09:096
-6.7677,-5.9135,2.7048,-0.4648,-0.1785,0.2437,-0.0015,0.0505,-0.0181,3878,2019-08-07 16:55:09:101
-6.7677,-5.9135,2.7048,-0.3118,-0.1106,0.2262,0.0027,0.074,-0.0245,3882,2019-08-07 16:55:09:105
-6.7677,-5.9135,2.7048,-0.3118,-0.1106,0.2262,0.0027,0.074,-0.0245,3888,2019-08-07 16:55:09:111
-6.9017,-5.9517,2.7048,-0.3118,-0.1106,0.2262,0.008,0.075,-0.032,3893,2019-08-07 16:55:09:116
-6.9017,-5.9517,2.7048,-0.3118,-0.1106,0.2262,0.008,0.075,-0.032,3898,2019-08-07 16:55:09:121
-6.8491,-5.8801,2.8227,-0.2882,-0.2056,0.0512,0.008,0.0484,-0.0341,3902,2019-08-07 16:55:09:125
-6.8491,-5.8801,2.8227,-0.2882,-0.2056,0.0512,0.008,0.0484,-0.0341,3908,2019-08-07 16:55:09:131
-6.8491,-5.8801,2.8227,-0.2882,-0.2056,0.0512,0.008,0.0484,-0.0341,3912,2019-08-07 16:55:09:135
-6.7773,-5.904,2.8792,-0.2882,-0.2056,0.0512,0.0112,0.0026,-0.0298,3918,2019-08-07 16:55:09:141
-6.7773,-5.904,2.8792,-0.3997,-0.2193,-0.0057,0.0144,-0.0293,-0.0256,3925,2019-08-07 16:55:09:148
-6.7773,-5.904,2.8792,-0.3997,-0.2193,-0.0057,0.0144,-0.0293,-0.0256,3928,2019-08-07 16:55:09:151
-6.7246,-5.8228,2.8368,-0.3997,-0.2193,-0.0057,0.0144,-0.0293,-0.0256,3933,2019-08-07 16:55:09:156
-6.7246,-5.8228,2.8368,-0.3997,-0.2193,-0.0057,0.0102,-0.0517,-0.0181,3938,2019-08-07 16:55:09:161
-6.5907,-5.8133,2.7991,-0.5376,-0.2793,0.0826,0.0102,-0.0517,-0.0181,3943,2019-08-07 16:55:09:166
-6.5907,-5.8133,2.7991,-0.5376,-0.2793,0.0826,0.0102,-0.0528,-0.0032,3947,2019-08-07 16:55:09:170
-6.5907,-5.8133,2.7991,-0.5376,-0.2793,0.0826,0.0102,-0.0528,-0.0032,3953,2019-08-07 16:55:09:176
-6.4711,-5.8371,2.7048,-0.5376,-0.2793,0.0826,0.0112,-0.0368,0.0011,3957,2019-08-07 16:55:09:180
-6.4711,-5.8371,2.7048,-0.6629,-0.1564,0.2547,0.0112,-0.0368,0.0011,3963,2019-08-07 16:55:09:186
-6.5476,-5.8849,2.6671,-0.6629,-0.1564,0.2547,0.0102,-0.0027,0.0021,3967,2019-08-07 16:55:09:190
-6.5476,-5.8849,2.6671,-0.6629,-0.1564,0.2547,0.0102,-0.0027,0.0021,3973,2019-08-07 16:55:09:196
-6.5476,-5.8849,2.6671,-0.6629,-0.1564,0.2547,0.0155,0.0335,0.0117,3978,2019-08-07 16:55:09:201
-6.5906,-5.8849,2.6577,-0.4674,-0.18,0.1688,0.0155,0.0335,0.0117,3982,2019-08-07 16:55:09:205
-6.5906,-5.8849,2.6577,-0.4674,-0.18,0.1688,0.0176,0.058,0.0096,3988,2019-08-07 16:55:09:211
-6.7102,-5.8658,2.7567,-0.4674,-0.18,0.1688,0.0176,0.058,0.0096,3992,2019-08-07 16:55:09:215
-6.7102,-5.8658,2.7567,-0.4674,-0.18,0.1688,0.0123,0.0537,0.0117,3998,2019-08-07 16:55:09:221
-6.7102,-5.8658,2.7567,-0.3282,-0.2257,0.1625,0.0123,0.0537,0.0117,4003,2019-08-07 16:55:09:226
-6.8442,-5.8753,2.7143,-0.3282,-0.2257,0.1625,0.007,0.0399,0.0117,4007,2019-08-07 16:55:09:230
-6.8442,-5.8753,2.7143,-0.3282,-0.2257,0.1625,0.007,0.0399,0.0117,4013,2019-08-07 16:55:09:236
-6.8394,-5.9135,2.6954,-0.3282,-0.2257,0.1625,0.007,0.0282,-0.0021,4018,2019-08-07 16:55:09:241
-6.8394,-5.9135,2.6954,-0.221,-0.1387,0.1246,0.007,0.0282,-0.0021,4023,2019-08-07 16:55:09:246
-6.8394,-5.9135,2.6954,-0.221,-0.1387,0.1246,0.0048,0.0143,-0.0075,4028,2019-08-07 16:55:09:251
-6.9063,-5.8801,2.7096,-0.221,-0.1387,0.1246,0.0048,0.0143,-0.0075,4032,2019-08-07 16:55:09:255
-6.9063,-5.8801,2.7096,-0.221,-0.1387,0.1246,0.0016,-0.0027,-0.0043,4038,2019-08-07 16:55:09:261
-6.7389,-5.8944,2.7379,-0.393,-0.197,0.1373,0.0016,-0.0027,-0.0043,4043,2019-08-07 16:55:09:266
-6.7389,-5.8944,2.7379,-0.393,-0.197,0.1373,0.0016,-0.0027,-0.0043,4048,2019-08-07 16:55:09:271
-6.7389,-5.8944,2.7379,-0.393,-0.197,0.1373,-0.0037,-0.0038,-0.0053,4053,2019-08-07 16:55:09:276
-6.691,-5.8944,2.7096,-0.393,-0.197,0.1373,-0.0037,-0.0038,-0.0053,4058,2019-08-07 16:55:09:281
-6.691,-5.8944,2.7096,-0.393,-0.197,0.1373,-0.0015,0.0047,-0.0053,4062,2019-08-07 16:55:09:285
-6.6432,-5.8944,2.7661,-0.4347,-0.1941,0.1792,-0.0015,0.0026,0.0053,4068,2019-08-07 16:55:09:291
-6.6432,-5.8944,2.7661,-0.4347,-0.1941,0.1792,-0.0015,0.0026,0.0053,4073,2019-08-07 16:55:09:296
-6.6432,-5.8944,2.7661,-0.4347,-0.1941,0.1792,-0.0015,0.0026,0.0053,4077,2019-08-07 16:55:09:300
-6.6097,-5.9756,2.6766,-0.4347,-0.1941,0.1792,-5.0E-4,0.009,0.0138,4083,2019-08-07 16:55:09:306
-6.6097,-5.9756,2.6766,-0.5115,-0.0942,0.1731,-5.0E-4,0.009,0.0138,4087,2019-08-07 16:55:09:310
-6.6097,-5.9756,2.6766,-0.5115,-0.0942,0.1731,6.0E-4,0.0292,0.016,4093,2019-08-07 16:55:09:316
-6.7197,-5.8706,2.6954,-0.5115,-0.0942,0.1731,6.0E-4,0.0292,0.016,4097,2019-08-07 16:55:09:320
-6.7197,-5.8706,2.6954,-0.5115,-0.0942,0.1731,6.0E-4,0.0314,0.0266,4103,2019-08-07 16:55:09:326
-6.7819,-5.9279,2.62,-0.3618,-0.1353,0.2111,6.0E-4,0.0314,0.0266,4108,2019-08-07 16:55:09:331
-6.7819,-5.9279,2.62,-0.3618,-0.1353,0.2111,0.0027,0.0335,0.0309,4112,2019-08-07 16:55:09:335
-6.7819,-5.9279,2.62,-0.3618,-0.1353,0.2111,0.0027,0.0335,0.0309,4118,2019-08-07 16:55:09:341
-6.8536,-5.947,2.7002,-0.3618,-0.1353,0.2111,0.0016,0.0388,0.0234,4123,2019-08-07 16:55:09:346
-6.8536,-5.947,2.7002,-0.2475,-0.17,0.1817,0.0016,0.0388,0.0234,4128,2019-08-07 16:55:09:351
-6.9063,-5.9374,2.6813,-0.2475,-0.17,0.1817,0.0027,0.0388,0.0149,4133,2019-08-07 16:55:09:356
-6.9063,-5.9374,2.6813,-0.2475,-0.17,0.1817,0.0027,0.0388,0.0149,4138,2019-08-07 16:55:09:361
-6.9063,-5.9374,2.6813,-0.2475,-0.17,0.1817,0.0038,0.0442,0.0075,4143,2019-08-07 16:55:09:366
-6.8871,-5.9422,2.653,-0.2564,-0.1443,0.2038,0.0038,0.0442,0.0075,4147,2019-08-07 16:55:09:370
-6.8871,-5.9422,2.653,-0.2564,-0.1443,0.2038,0.0059,0.0399,0.0,4153,2019-08-07 16:55:09:376
-7.0402,-5.8992,2.1157,-0.2564,-0.1443,0.2038,0.0059,0.0399,0.0,4158,2019-08-07 16:55:09:381
-7.0402,-5.8992,2.1157,-0.2564,-0.1443,0.2038,-0.1347,-0.1732,0.0064,4163,2019-08-07 16:55:09:386
-7.0402,-5.8992,2.1157,0.4369,-0.2983,0.1907,-0.1347,-0.1732,0.0064,4168,2019-08-07 16:55:09:391
-6.8823,-5.9183,3.5958,0.4369,-0.2983,0.1907,-0.1347,-0.1732,0.0064,4173,2019-08-07 16:55:09:396
-6.8823,-5.9183,3.5958,0.4369,-0.2983,0.1907,-0.0388,-0.1401,0.0085,4178,2019-08-07 16:55:09:401
-6.5474,-6.0902,2.5163,0.4369,-0.2983,0.1907,-0.0388,-0.1401,0.0085,4182,2019-08-07 16:55:09:405
-6.5474,-6.0902,2.5163,-0.6484,-0.0472,0.4057,0.0411,-0.1827,-0.0224,4188,2019-08-07 16:55:09:411
-6.5474,-6.0902,2.5163,-0.6484,-0.0472,0.4057,0.0411,-0.1827,-0.0224,4193,2019-08-07 16:55:09:416
-6.2555,-6.0138,2.4786,-0.6484,-0.0472,0.4057,0.0347,-0.0698,0.0032,4198,2019-08-07 16:55:09:421
-6.2555,-6.0138,2.4786,-0.6484,-0.0472,0.4057,0.0347,-0.0698,0.0032,4203,2019-08-07 16:55:09:426
-6.2555,-6.0138,2.4786,-1.0954,0.0464,0.2835,0.0347,-0.0698,0.0032,4207,2019-08-07 16:55:09:430
-6.045,-6.1761,2.6766,-1.0954,0.0464,0.2835,0.0762,0.1549,0.0245,4213,2019-08-07 16:55:09:436
-6.045,-6.1761,2.6766,-1.0954,0.0464,0.2835,0.0762,0.1549,0.0245,4218,2019-08-07 16:55:09:441
-6.6048,-5.8181,2.2241,-1.0954,0.0464,0.2835,0.0549,0.2391,0.0138,4222,2019-08-07 16:55:09:445
-6.6048,-5.8181,2.2241,-0.2993,-0.3887,0.5063,0.0549,0.2391,0.0138,4228,2019-08-07 16:55:09:451
-6.6048,-5.8181,2.2241,-0.2993,-0.3887,0.5063,0.0091,0.2476,0.016,4233,2019-08-07 16:55:09:456
-6.9971,-5.7417,2.7002,-0.2993,-0.3887,0.5063,0.0091,0.2476,0.016,4238,2019-08-07 16:55:09:461
-6.9971,-5.7417,2.7002,-0.2993,-0.3887,0.5063,0.008,0.1826,0.0032,4242,2019-08-07 16:55:09:465
-7.2267,-5.9565,2.9359,0.0734,-0.1279,-0.0993,0.008,0.1826,0.0032,4248,2019-08-07 16:55:09:471
-7.2267,-5.9565,2.9359,0.0734,-0.1279,-0.0993,0.0176,0.0964,-0.0064,4252,2019-08-07 16:55:09:475