ACCELEROMETER X (m/s²),ACCELEROMETER Y (m/s²),ACCELEROMETER Z (m/s²),LINEAR ACCELERATION X (m/s²),LINEAR ACCELERATION Y (m/s²),LINEAR ACCELERATION Z (m/s²),GYROSCOPE X (rad/s),GYROSCOPE Y (rad/s),GYROSCOPE Z (rad/s),Time since start in ms ,YYYY-MO-DD HH-MI-SS_SSS
-5.8308,-6.7489,2.7471,-0.2641,-0.2576,0.1296,0.0038,-0.04,0.0288,3,2019-08-07 16:52:36:767
-5.8308,-6.7489,2.7471,-0.3468,-0.1969,0.1534,0.0048,-0.0208,0.0224,8,2019-08-07 16:52:36:772
-5.8308,-6.7489,2.7471,-0.3468,-0.1969,0.1534,0.0048,-0.0208,0.0224,14,2019-08-07 16:52:36:778
-5.8643,-6.7154,2.7659,-0.3468,-0.1969,0.1534,-5.0E-4,-0.0123,0.0202,17,2019-08-07 16:52:36:781
-5.8643,-6.7154,2.7659,-0.3468,-0.1969,0.1534,-5.0E-4,-0.0123,0.0202,23,2019-08-07 16:52:36:787
-5.8643,-6.7154,2.7659,-0.363,-0.2615,0.0889,-0.0047,-0.0155,0.0234,28,2019-08-07 16:52:36:792
-5.8212,-6.7632,2.9074,-0.363,-0.2615,0.0889,-0.0047,-0.0155,0.0234,32,2019-08-07 16:52:36:796
-5.8212,-6.7632,2.9074,-0.363,-0.2615,0.0889,-0.0026,-0.0091,0.0224,38,2019-08-07 16:52:36:802
-5.8212,-6.7632,2.9074,-0.363,-0.2615,0.0889,-0.0026,-0.0091,0.0224,43,2019-08-07 16:52:36:807
-5.9121,-6.7441,2.8885,-0.2839,-0.2401,0.1225,-0.0026,-6.0E-4,0.0277,47,2019-08-07 16:52:36:811
-5.9121,-6.7441,2.8885,-0.2839,-0.2401,0.1225,-0.0026,-6.0E-4,0.0277,53,2019-08-07 16:52:36:817
-5.9121,-6.7441,2.8885,-0.2839,-0.2401,0.1225,-0.0026,-6.0E-4,0.0277,57,2019-08-07 16:52:36:821
-5.9217,-6.7154,2.8178,-0.2839,-0.2401,0.1225,-0.0122,-0.0048,0.0298,63,2019-08-07 16:52:36:827
-5.9217,-6.7154,2.8178,-0.2349,-0.2755,0.1074,-0.0122,-0.0048,0.0298,69,2019-08-07 16:52:36:833
-5.9217,-6.7489,2.8649,-0.2349,-0.2755,0.1074,-0.0101,-0.0123,0.0362,73,2019-08-07 16:52:36:837
-5.9648,-6.7489,2.8649,-0.2349,-0.2755,0.1074,-0.0101,-0.0123,0.0362,78,2019-08-07 16:52:36:842
-5.9648,-6.7489,2.8649,-0.2349,-0.2755,0.1074,-0.0101,-0.0123,0.0362,83,2019-08-07 16:52:36:847
-5.9744,-6.7393,2.9026,-0.2299,-0.238,0.1074,-0.0069,-0.0102,0.0405,87,2019-08-07 16:52:36:851
-5.9744,-6.7393,2.9026,-0.2299,-0.238,0.1074,-0.0069,-0.0102,0.0405,93,2019-08-07 16:52:36:857
-5.9744,-6.7393,2.9026,-0.2299,-0.238,0.1074,-5.0E-4,-0.0123,0.0426,98,2019-08-07 16:52:36:862
-5.9601,-6.7107,2.8178,-0.2299,-0.238,0.1074,-5.0E-4,-0.0123,0.0426,103,2019-08-07 16:52:36:867
-5.9601,-6.7107,2.8178,-0.278,-0.2997,0.09,0.0017,-0.0155,0.0447,108,2019-08-07 16:52:36:872
-5.9553,-6.7011,2.9356,-0.278,-0.2997,0.09,0.0017,-0.0155,0.0447,112,2019-08-07 16:52:36:876
-5.9553,-6.7011,2.9356,-0.278,-0.2997,0.09,0.007,-0.0112,0.0437,118,2019-08-07 16:52:36:882
-5.9553,-6.7011,2.9356,-0.278,-0.2997,0.09,0.007,-0.0112,0.0437,122,2019-08-07 16:52:36:886
-5.9984,-6.7059,2.879,-0.2307,-0.2509,0.0595,0.0091,-0.0123,0.0469,128,2019-08-07 16:52:36:892
-5.9984,-6.7059,2.879,-0.2307,-0.2509,0.0595,0.0091,-0.0123,0.0469,132,2019-08-07 16:52:36:896
-6.0367,-6.7441,2.9168,-0.2307,-0.2509,0.0595,0.0112,-0.0176,0.0405,138,2019-08-07 16:52:36:902
-6.0367,-6.7441,2.9168,-0.2307,-0.2509,0.0595,0.0112,-0.0176,0.0405,142,2019-08-07 16:52:36:906
-6.0367,-6.7441,2.9168,-0.2072,-0.2734,0.0582,0.0112,-0.0166,0.0426,148,2019-08-07 16:52:36:912
-6.0319,-6.6868,2.9875,-0.2072,-0.2734,0.0582,0.0112,-0.0166,0.0426,153,2019-08-07 16:52:36:917
-6.0319,-6.6868,2.9875,-0.2072,-0.2734,0.0582,0.0112,-0.0166,0.0426,157,2019-08-07 16:52:36:921
-6.0415,-6.7059,2.8602,-0.2072,-0.2734,0.0582,0.0144,-0.023,0.0405,163,2019-08-07 16:52:36:927
-6.0415,-6.7059,2.8602,-0.1974,-0.1575,0.1381,0.0144,-0.023,0.0405,168,2019-08-07 16:52:36:932
-6.0415,-6.7059,2.8602,-0.1974,-0.1575,0.1381,0.0091,-0.0262,0.0383,174,2019-08-07 16:52:36:938
-5.9984,-6.83,2.912,-0.1974,-0.1575,0.1381,0.0091,-0.0262,0.0383,178,2019-08-07 16:52:36:942
-5.9984,-6.83,2.912,-0.1974,-0.1575,0.1381,-5.0E-4,-0.0208,0.0298,183,2019-08-07 16:52:36:947
-5.9984,-6.83,2.912,-0.1763,-0.0631,0.1597,-5.0E-4,-0.0208,0.0298,188,2019-08-07 16:52:36:952
-6.0702,-6.8825,2.8696,-0.1763,-0.0631,0.1597,-0.0143,-0.0187,0.0277,193,2019-08-07 16:52:36:957
-6.0702,-6.8825,2.8696,-0.1763,-0.0631,0.1597,-0.0143,-0.0187,0.0277,198,2019-08-07 16:52:36:962
-6.0702,-6.8825,2.8696,-0.1763,-0.0631,0.1597,-0.0143,-0.0187,0.0277,202,2019-08-07 16:52:36:966
-6.0559,-6.8921,2.8932,-0.1399,-0.0328,0.0607,-0.0271,-0.0325,0.0256,208,2019-08-07 16:52:36:972
-6.0559,-6.8921,2.8932,-0.1399,-0.0328,0.0607,-0.0367,-0.0485,0.0192,214,2019-08-07 16:52:36:978
-6.0368,-6.9207,2.8602,-0.1399,-0.0328,0.0607,-0.0367,-0.0485,0.0192,218,2019-08-07 16:52:36:982
-6.0368,-6.9207,2.8602,-0.1399,-0.0328,0.0607,-0.0367,-0.0485,0.0192,222,2019-08-07 16:52:36:986
-6.0368,-6.8968,2.8649,-0.2104,-0.053,0.1596,-0.0442,-0.0485,0.0074,228,2019-08-07 16:52:36:992
-6.0177,-6.8968,2.8649,-0.2104,-0.053,0.1596,-0.0442,-0.0485,0.0074,233,2019-08-07 16:52:36:997
-6.0177,-6.8968,2.8649,-0.2104,-0.053,0.1596,-0.0484,-0.0464,0.0043,237,2019-08-07 16:52:37:001
-6.0559,-6.8825,2.8649,-0.2104,-0.053,0.1596,-0.0484,-0.0464,0.0043,243,2019-08-07 16:52:37:007
-6.0559,-6.8825,2.8649,-0.2104,-0.053,0.1596,-0.0516,-0.0389,0.0,248,2019-08-07 16:52:37:012
-6.0559,-6.8825,2.8649,-0.2125,-0.0801,0.2047,-0.0516,-0.0389,0.0,253,2019-08-07 16:52:37:017
-5.9746,-6.8539,2.7329,-0.2125,-0.0801,0.2047,-0.0527,-0.0272,-0.0053,258,2019-08-07 16:52:37:022
-5.9746,-6.8539,2.7329,-0.2125,-0.0801,0.2047,-0.0527,-0.0272,-0.0053,263,2019-08-07 16:52:37:027
-6.0129,-6.7488,2.813,-0.21,-0.2088,0.2041,-0.0537,-0.0187,-0.0032,269,2019-08-07 16:52:37:033
-6.0129,-6.7488,2.813,-0.21,-0.2088,0.2041,-0.0537,-0.0187,-0.0032,273,2019-08-07 16:52:37:037
-6.0129,-6.7488,2.813,-0.21,-0.2088,0.2041,-0.0527,-0.0166,-0.0075,278,2019-08-07 16:52:37:042
-5.946,-6.7536,2.7517,-0.21,-0.2088,0.2041,-0.0527,-0.0166,-0.0075,283,2019-08-07 16:52:37:047
-5.946,-6.7536,2.7517,-0.21,-0.2088,0.2041,-0.0591,-0.0198,-0.0075,288,2019-08-07 16:52:37:052
-5.946,-6.7536,2.7517,-0.3609,-0.2421,0.245,-0.0591,-0.0198,-0.0075,292,2019-08-07 16:52:37:056
-5.812,-6.6772,2.7989,-0.3609,-0.2421,0.245,-0.0601,-0.0304,-0.0011,298,2019-08-07 16:52:37:062
-5.812,-6.6772,2.7989,-0.3609,-0.2421,0.245,-0.0601,-0.0304,-0.0011,302,2019-08-07 16:52:37:066
-5.6589,-6.6677,2.7517,-0.3609,-0.2421,0.245,-0.0601,-0.0304,-0.0011,308,2019-08-07 16:52:37:072
-5.6589,-6.6677,2.7517,-0.535,-0.2661,0.2066,-0.0591,-0.0272,0.0043,313,2019-08-07 16:52:37:077
-5.6589,-6.6677,2.7517,-0.535,-0.2661,0.2066,-0.0591,-0.0272,0.0043,318,2019-08-07 16:52:37:082
-5.6446,-6.7059,2.8648,-0.535,-0.2661,0.2066,-0.0473,-0.0208,0.0021,323,2019-08-07 16:52:37:087
-5.6446,-6.7059,2.8648,-0.535,-0.2661,0.2066,-0.0473,-0.0208,0.0021,327,2019-08-07 16:52:37:091
-5.6973,-6.577,2.8884,-0.5662,-0.3844,0.1224,-0.0431,-0.0315,0.0064,333,2019-08-07 16:52:37:097
-5.6973,-6.577,2.8884,-0.5662,-0.3844,0.1224,-0.0431,-0.0315,0.0064,338,2019-08-07 16:52:37:102
-5.6973,-6.577,2.8884,-0.5662,-0.3844,0.1224,-0.0431,-0.0315,0.0064,342,2019-08-07 16:52:37:106
-5.5872,-6.5531,2.8318,-0.5662,-0.3844,0.1224,-0.042,-0.0325,0.0138,350,2019-08-07 16:52:37:114
-5.5872,-6.5531,2.8318,-0.6411,-0.3673,0.1871,-0.042,-0.0325,0.0138,352,2019-08-07 16:52:37:116
-5.5586,-6.6295,2.747,-0.6411,-0.3673,0.1871,-0.0399,-0.0272,0.0213,358,2019-08-07 16:52:37:122
-5.5586,-6.6295,2.747,-0.6411,-0.3673,0.1871,-0.0399,-0.0272,0.0213,363,2019-08-07 16:52:37:127
-5.5586,-6.6295,2.747,-0.6411,-0.3673,0.1871,-0.0378,-0.0144,0.0373,368,2019-08-07 16:52:37:132
-5.5921,-6.6868,2.8413,-0.623,-0.2863,0.1563,-0.0378,-0.0144,0.0373,373,2019-08-07 16:52:37:137
-5.5921,-6.6868,2.8413,-0.623,-0.2863,0.1563,-0.0271,0.0037,0.0479,378,2019-08-07 16:52:37:142
-5.5729,-6.6677,2.9073,-0.623,-0.2863,0.1563,-0.0271,0.0037,0.0479,383,2019-08-07 16:52:37:147
-5.5729,-6.6677,2.9073,-0.623,-0.2863,0.1563,-0.0133,0.0197,0.0692,388,2019-08-07 16:52:37:152
-5.5729,-6.6677,2.9073,-0.6489,-0.2961,0.1058,-0.0133,0.0197,0.0692,392,2019-08-07 16:52:37:156
-5.5586,-6.6199,2.8365,-0.6489,-0.2961,0.1058,0.0017,0.0505,0.0948,398,2019-08-07 16:52:37:162
-5.5586,-6.6199,2.8365,-0.6489,-0.2961,0.1058,0.0017,0.0505,0.0948,403,2019-08-07 16:52:37:167
-5.5586,-6.6199,2.8365,-0.6489,-0.2961,0.1058,0.0017,0.0505,0.0948,407,2019-08-07 16:52:37:171
-5.6878,-6.596,2.8743,-0.5213,-0.3605,0.0815,0.0166,0.0708,0.1172,413,2019-08-07 16:52:37:177
-5.6878,-6.596,2.8743,-0.5213,-0.3605,0.0815,0.0166,0.0708,0.1172,418,2019-08-07 16:52:37:182
-5.6878,-6.596,2.8743,-0.5213,-0.3605,0.0815,0.0272,0.0782,0.1395,422,2019-08-07 16:52:37:186
-5.9318,-6.5865,2.9402,-0.5213,-0.3605,0.0815,0.0272,0.0782,0.1395,428,2019-08-07 16:52:37:192
-5.9318,-6.5865,2.9402,-0.2579,-0.3317,-0.0225,0.0443,0.0644,0.1523,432,2019-08-07 16:52:37:196
-6.1232,-6.5435,2.9685,-0.2579,-0.3317,-0.0225,0.0443,0.0644,0.1523,438,2019-08-07 16:52:37:202
-6.1232,-6.5435,2.9685,-0.2579,-0.3317,-0.0225,0.0443,0.0644,0.1523,442,2019-08-07 16:52:37:206
-6.1232,-6.5435,2.9685,-0.1228,-0.4488,0.0056,0.0517,0.0537,0.1587,448,2019-08-07 16:52:37:212
-6.1711,-6.4719,2.9591,-0.1228,-0.4488,0.0056,0.0517,0.0537,0.1587,453,2019-08-07 16:52:37:217
-6.1711,-6.4719,2.9591,-0.1228,-0.4488,0.0056,0.056,0.0314,0.1598,458,2019-08-07 16:52:37:222
-6.2859,-6.4576,2.9119,-0.0147,-0.4428,0.0752,0.056,0.0314,0.1598,463,2019-08-07 16:52:37:227
-6.2859,-6.4576,2.9119,-0.0147,-0.4428,0.0752,0.0581,0.0165,0.1545,468,2019-08-07 16:52:37:232
-6.2859,-6.4576,2.9119,-0.0147,-0.4428,0.0752,0.0581,0.0165,0.1545,473,2019-08-07 16:52:37:237
-6.3242,-6.4862,2.9119,-0.0147,-0.4428,0.0752,0.057,0.0111,0.1395,478,2019-08-07 16:52:37:242
-6.3242,-6.4862,2.9119,0.0579,-0.4001,0.1846,0.057,0.0111,0.1395,483,2019-08-07 16:52:37:247
-6.3625,-6.5769,2.8224,0.0579,-0.4001,0.1846,0.0549,0.0133,0.1289,488,2019-08-07 16:52:37:252
-6.3625,-6.5769,2.8224,0.0579,-0.4001,0.1846,0.0549,0.0133,0.1289,492,2019-08-07 16:52:37:256
-6.3625,-6.5769,2.8224,0.0097,-0.3372,0.1448,0.0539,0.0207,0.114,500,2019-08-07 16:52:37:264
-6.3529,-6.5292,2.8224,0.0097,-0.3372,0.1448,0.0539,0.0207,0.114,503,2019-08-07 16:52:37:267
-6.3529,-6.5292,2.8224,0.0097,-0.3372,0.1448,0.0517,0.0367,0.0905,508,2019-08-07 16:52:37:272
-6.286,-6.6199,2.7988,-0.0646,-0.23,0.1987,0.0517,0.0367,0.0905,513,2019-08-07 16:52:37:277
-6.286,-6.6199,2.7988,-0.0646,-0.23,0.1987,0.0475,0.0559,0.0724,518,2019-08-07 16:52:37:282
-6.286,-6.6199,2.7988,-0.0646,-0.23,0.1987,0.0475,0.0559,0.0724,522,2019-08-07 16:52:37:286
-6.286,-6.6247,2.7658,-0.0646,-0.23,0.1987,0.0432,0.0751,0.0458,528,2019-08-07 16:52:37:292
-6.286,-6.6247,2.7658,-0.0631,-0.2243,0.1624,0.0432,0.0751,0.0458,534,2019-08-07 16:52:37:298
-6.286,-6.6247,2.7658,-0.0631,-0.2243,0.1624,0.04,0.0655,0.0277,538,2019-08-07 16:52:37:302
-6.3004,-6.5578,3.0015,-0.0631,-0.2243,0.1624,0.04,0.0655,0.0277,546,2019-08-07 16:52:37:310
-6.3004,-6.5578,3.0015,-0.0631,-0.2243,0.1624,0.0294,0.0388,0.0138,548,2019-08-07 16:52:37:312
-6.3004,-6.5578,3.0015,-0.0631,-0.2243,0.1624,0.0294,0.0388,0.0138,553,2019-08-07 16:52:37:317
-6.2956,-6.5674,2.9873,-0.075,-0.2662,0.005,0.0294,0.0388,0.0138,558,2019-08-07 16:52:37:322
-6.2956,-6.5674,2.9873,-0.075,-0.2662,0.005,0.0155,-6.0E-4,-0.0011,563,2019-08-07 16:52:37:327
-6.1664,-6.5149,2.8365,-0.075,-0.2662,0.005,0.0155,-6.0E-4,-0.0011,567,2019-08-07 16:52:37:331
-6.1664,-6.5149,2.8365,-0.2417,-0.2798,0.1356,-5.0E-4,-0.0421,-0.0117,574,2019-08-07 16:52:37:338
-6.0803,-6.5483,2.8506,-0.2417,-0.2798,0.1356,-5.0E-4,-0.0421,-0.0117,578,2019-08-07 16:52:37:342
-6.0803,-6.5483,2.8506,-0.2417,-0.2798,0.1356,-0.0143,-0.057,-0.0277,582,2019-08-07 16:52:37:346
-6.0803,-6.5483,2.8506,-0.2417,-0.2798,0.1356,-0.0143,-0.057,-0.0277,588,2019-08-07 16:52:37:352
-5.889,-6.5722,2.7611,-0.2417,-0.2798,0.1356,-0.0303,-0.057,-0.0384,593,2019-08-07 16:52:37:357
-5.889,-6.5722,2.7611,-0.5067,-0.2325,0.2672,-0.0303,-0.057,-0.0384,598,2019-08-07 16:52:37:362
-5.889,-6.5722,2.7611,-0.5067,-0.2325,0.2672,-0.041,-0.0315,-0.0405,603,2019-08-07 16:52:37:367
-5.7598,-6.6247,2.6291,-0.5067,-0.2325,0.2672,-0.041,-0.0315,-0.0405,608,2019-08-07 16:52:37:372
-5.7598,-6.6247,2.6291,-0.5067,-0.2325,0.2672,-0.0463,0.0186,-0.049,613,2019-08-07 16:52:37:377
-5.7216,-6.6724,2.6149,-0.6317,-0.1758,0.3806,-0.0463,0.0186,-0.049,618,2019-08-07 16:52:37:382
-5.7216,-6.6724,2.6149,-0.6317,-0.1758,0.3806,-0.0473,0.0697,-0.0511,623,2019-08-07 16:52:37:387
-5.8125,-6.6819,2.6526,-0.6317,-0.1758,0.3806,-0.0473,0.0697,-0.0511,628,2019-08-07 16:52:37:392
-5.8125,-6.6819,2.6526,-0.6317,-0.1758,0.3806,-0.0473,0.1081,-0.0469,633,2019-08-07 16:52:37:397
-5.8125,-6.6819,2.6526,-0.4699,-0.1632,0.2454,-0.0473,0.1081,-0.0469,638,2019-08-07 16:52:37:402
-5.9369,-6.7392,2.7705,-0.4699,-0.1632,0.2454,-0.0473,0.1081,-0.0469,642,2019-08-07 16:52:37:406
-5.9369,-6.7392,2.7705,-0.4699,-0.1632,0.2454,-0.0442,0.1187,-0.0394,650,2019-08-07 16:52:37:414
-6.0948,-6.6915,2.7705,-0.4699,-0.1632,0.2454,-0.0442,0.1187,-0.0394,653,2019-08-07 16:52:37:417
-6.0948,-6.6915,2.7705,-0.1982,-0.1765,0.1387,-0.0378,0.0996,-0.0352,658,2019-08-07 16:52:37:422
-6.0948,-6.6915,2.7705,-0.1982,-0.1765,0.1387,-0.0378,0.0996,-0.0352,663,2019-08-07 16:52:37:427
-6.1283,-6.6819,2.7422,-0.1982,-0.1765,0.1387,-0.0303,0.0729,-0.0362,668,2019-08-07 16:52:37:432
-6.1283,-6.6819,2.7422,-0.1982,-0.1765,0.1387,-0.0303,0.0729,-0.0362,672,2019-08-07 16:52:37:436
-6.2097,-6.6247,2.728,-0.1405,-0.2497,0.2138,-0.0303,0.0399,-0.0373,678,2019-08-07 16:52:37:442
-6.2097,-6.6247,2.728,-0.1405,-0.2497,0.2138,-0.0303,0.0399,-0.0373,682,2019-08-07 16:52:37:446
-6.2097,-6.6247,2.728,-0.1405,-0.2497,0.2138,-0.0324,0.0133,-0.033,688,2019-08-07 16:52:37:452
-6.1762,-6.6724,2.695,-0.1405,-0.2497,0.2138,-0.0324,0.0133,-0.033,694,2019-08-07 16:52:37:458
-6.1762,-6.6724,2.695,-0.166,-0.2322,0.2718,-0.0292,-0.0027,-0.0341,700,2019-08-07 16:52:37:464
-6.1331,-6.6867,2.6668,-0.166,-0.2322,0.2718,-0.0292,-0.0027,-0.0341,703,2019-08-07 16:52:37:467
-6.1331,-6.6867,2.6668,-0.166,-0.2322,0.2718,-0.0292,-0.0027,-0.0341,708,2019-08-07 16:52:37:472
-6.1331,-6.6867,2.6668,-0.166,-0.2322,0.2718,-0.0218,-0.007,-0.0288,714,2019-08-07 16:52:37:478
-6.0183,-6.7297,2.6102,-0.3241,-0.1572,0.3192,-0.0218,-0.007,-0.0288,717,2019-08-07 16:52:37:481
-6.0183,-6.7297,2.6102,-0.3241,-0.1572,0.3192,-0.0133,0.009,-0.0245,723,2019-08-07 16:52:37:487
-6.0183,-6.7297,2.6102,-0.3241,-0.1572,0.3192,-0.0133,0.009,-0.0245,727,2019-08-07 16:52:37:491
-6.0327,-6.6963,2.6008,-0.3241,-0.1572,0.3192,-0.0133,0.009,-0.0245,733,2019-08-07 16:52:37:497
-6.0327,-6.6963,2.6008,-0.3211,-0.1333,0.2342,-0.0058,0.026,-0.0139,738,2019-08-07 16:52:37:502
-5.9945,-6.701,2.662,-0.3211,-0.1333,0.2342,-0.0058,0.026,-0.0139,742,2019-08-07 16:52:37:506
-5.9945,-6.701,2.662,-0.3211,-0.1333,0.2342,-0.0015,0.0335,-0.0075,748,2019-08-07 16:52:37:512
-5.9945,-6.701,2.662,-0.3211,-0.1333,0.2342,-0.0015,0.0335,-0.0075,753,2019-08-07 16:52:37:517
-6.028,-6.7249,2.7846,-0.3066,-0.2069,0.1496,0.0049,0.0271,-0.0032,758,2019-08-07 16:52:37:522
-6.028,-6.7249,2.7846,-0.3066,-0.2069,0.1496,0.0049,0.0271,-0.0032,763,2019-08-07 16:52:37:527
-6.0376,-6.6628,2.7469,-0.3066,-0.2069,0.1496,0.008,0.009,0.0032,767,2019-08-07 16:52:37:531
-6.0376,-6.6628,2.7469,-0.3066,-0.2069,0.1496,0.008,0.009,0.0032,773,2019-08-07 16:52:37:537
-6.0376,-6.6628,2.7469,-0.3789,-0.2068,0.1535,0.007,-0.0038,0.0096,777,2019-08-07 16:52:37:541
-5.8558,-6.6962,2.6856,-0.3789,-0.2068,0.1535,0.007,-0.0038,0.0096,783,2019-08-07 16:52:37:547
-5.8558,-6.6962,2.6856,-0.3789,-0.2068,0.1535,0.0049,-0.0048,0.017,787,2019-08-07 16:52:37:551
-5.8988,-6.7058,2.8081,-0.3789,-0.2068,0.1535,0.0049,-0.0048,0.017,793,2019-08-07 16:52:37:557
-5.8988,-6.7058,2.8081,-0.3797,-0.2056,0.1543,0.0038,0.0069,0.0192,798,2019-08-07 16:52:37:562
-5.8988,-6.7058,2.8081,-0.3797,-0.2056,0.1543,0.0038,0.0069,0.0192,803,2019-08-07 16:52:37:567
-5.9706,-6.6724,2.8317,-0.3797,-0.2056,0.1543,-0.0015,0.0175,0.016,808,2019-08-07 16:52:37:572
-5.9706,-6.6724,2.8317,-0.3797,-0.2056,0.1543,-0.0015,0.0175,0.016,813,2019-08-07 16:52:37:577
-6.0376,-6.7153,2.8741,-0.3058,-0.1753,0.0441,-0.0058,0.0218,0.017,817,2019-08-07 16:52:37:581
-6.0376,-6.7153,2.8741,-0.3058,-0.1753,0.0441,-0.0058,0.0218,0.017,823,2019-08-07 16:52:37:587
-6.0376,-6.7153,2.8741,-0.3058,-0.1753,0.0441,-0.0101,0.025,0.0128,828,2019-08-07 16:52:37:592
-6.119,-6.6915,2.8223,-0.3058,-0.1753,0.0441,-0.0101,0.025,0.0128,833,2019-08-07 16:52:37:597
-6.119,-6.6915,2.8223,-0.2704,-0.1984,0.0584,-0.0111,0.0239,0.0032,837,2019-08-07 16:52:37:601
-6.1429,-6.701,2.8835,-0.2704,-0.1984,0.0584,-0.0111,0.0239,0.0032,843,2019-08-07 16:52:37:607
-6.1429,-6.701,2.8835,-0.2704,-0.1984,0.0584,-0.0101,0.0207,0.0011,848,2019-08-07 16:52:37:612
-6.1429,-6.701,2.8835,-0.2704,-0.1984,0.0584,-0.0101,0.0207,0.0011,854,2019-08-07 16:52:37:618
-6.0855,-6.6437,2.8694,-0.2621,-0.2467,0.0402,-0.0101,0.0207,0.0011,858,2019-08-07 16:52:37:622
-6.0855,-6.6437,2.8694,-0.2621,-0.2467,0.0402,-0.0111,0.0154,-0.0021,863,2019-08-07 16:52:37:627
-6.0855,-6.6437,2.8694,-0.2621,-0.2467,0.0402,-0.0111,0.0154,-0.0021,868,2019-08-07 16:52:37:632
-6.1378,-6.5387,2.8553,-0.2621,-0.2467,0.0402,-0.0143,5.0E-4,-0.0043,873,2019-08-07 16:52:37:637
-6.1378,-6.5387,2.8553,-0.2289,-0.3191,0.0335,-0.0143,5.0E-4,-0.0043,877,2019-08-07 16:52:37:641
-6.023,-6.5721,2.8459,-0.2289,-0.3191,0.0335,-0.0165,-0.0187,0.0032,883,2019-08-07 16:52:37:647
-6.023,-6.5721,2.8459,-0.2289,-0.3191,0.0335,-0.0165,-0.0187,0.0032,887,2019-08-07 16:52:37:651
-6.023,-6.5721,2.8459,-0.2289,-0.3191,0.0335,-0.0186,-0.0293,0.0085,893,2019-08-07 16:52:37:657
-5.9369,-6.5912,2.7799,-0.4048,-0.3243,0.1668,-0.0186,-0.0293,0.0085,898,2019-08-07 16:52:37:662
-5.9369,-6.5912,2.7799,-0.4048,-0.3243,0.1668,-0.0154,-0.0389,0.0128,902,2019-08-07 16:52:37:666
-5.9369,-6.5912,2.7799,-0.4048,-0.3243,0.1668,-0.0154,-0.0389,0.0128,908,2019-08-07 16:52:37:672
-5.9034,-6.6438,2.7469,-0.4048,-0.3243,0.1668,-0.0165,-0.0219,0.0277,913,2019-08-07 16:52:37:677
-5.9034,-6.6438,2.7469,-0.4484,-0.2422,0.135,-0.0165,-0.0219,0.0277,918,2019-08-07 16:52:37:682
-5.9034,-6.6438,2.7469,-0.4484,-0.2422,0.135,-0.0165,-0.0219,0.0277,922,2019-08-07 16:52:37:686
-5.9417,-6.639,2.794,-0.4484,-0.2422,0.135,-0.0058,0.0015,0.0373,928,2019-08-07 16:52:37:692
-5.9417,-6.639,2.794,-0.4484,-0.2422,0.135,-0.0058,0.0015,0.0373,932,2019-08-07 16:52:37:696
-6.0183,-6.6533,2.8647,-0.291,-0.2045,0.0533,-0.0037,0.0143,0.0437,938,2019-08-07 16:52:37:702
-6.0183,-6.6533,2.8647,-0.291,-0.2045,0.0533,-0.0037,0.0143,0.0437,943,2019-08-07 16:52:37:707
-6.0183,-6.6533,2.8647,-0.291,-0.2045,0.0533,-0.0037,0.0229,0.0479,948,2019-08-07 16:52:37:712
-6.1762,-6.7106,2.9449,-0.291,-0.2045,0.0533,-0.0037,0.0229,0.0479,953,2019-08-07 16:52:37:717
-6.1762,-6.7106,2.9449,-0.291,-0.2045,0.0533,-0.0047,0.009,0.0383,958,2019-08-07 16:52:37:722
-6.2288,-6.6819,3.0439,-0.1211,-0.2036,-0.0619,-0.0047,0.009,0.0383,963,2019-08-07 16:52:37:727
-6.2288,-6.6819,3.0439,-0.1211,-0.2036,-0.0619,-0.0026,-0.0134,0.0373,967,2019-08-07 16:52:37:731
-6.2288,-6.6819,3.0439,-0.1211,-0.2036,-0.0619,-0.0026,-0.0134,0.0373,973,2019-08-07 16:52:37:737
-6.248,-6.6533,2.9826,-0.1211,-0.2036,-0.0619,0.0017,-0.0421,0.0351,977,2019-08-07 16:52:37:741
-6.248,-6.6533,2.9826,-0.1444,-0.1936,-0.1103,0.0017,-0.0421,0.0351,983,2019-08-07 16:52:37:747
-6.1667,-6.6867,2.959,-0.1444,-0.1936,-0.1103,0.0017,-0.0421,0.0351,987,2019-08-07 16:52:37:751
-6.1667,-6.6867,2.959,-0.1444,-0.1936,-0.1103,-0.0037,-0.0688,0.0213,993,2019-08-07 16:52:37:757
-6.1667,-6.6867,2.959,-0.1444,-0.1936,-0.1103,-0.0037,-0.0688,0.0213,998,2019-08-07 16:52:37:762
-6.0901,-6.6676,2.959,-0.2729,-0.2048,-0.0403,-0.0037,-0.0688,0.0192,1003,2019-08-07 16:52:37:767
-6.0901,-6.6676,2.959,-0.2729,-0.2048,-0.0403,-0.0037,-0.0688,0.0192,1007,2019-08-07 16:52:37:771
-6.0566,-6.7344,3.0533,-0.2729,-0.2048,-0.0403,-0.0047,-0.0698,0.0117,1013,2019-08-07 16:52:37:777
-6.0566,-6.7344,3.0533,-0.2729,-0.2048,-0.0403,-0.0047,-0.0698,0.0117,1018,2019-08-07 16:52:37:782
-6.0566,-6.7344,3.0533,-0.365,-0.1514,-0.0637,-0.0154,-0.0762,0.0085,1022,2019-08-07 16:52:37:786
-6.0232,-6.7535,3.0061,-0.365,-0.1514,-0.0637,-0.0154,-0.0762,0.0085,1028,2019-08-07 16:52:37:792
-6.0232,-6.7535,3.0061,-0.365,-0.1514,-0.0637,-0.026,-0.0773,0.0032,1032,2019-08-07 16:52:37:796
-6.0136,-6.7058,3.0816,-0.365,-0.1514,-0.0637,-0.026,-0.0773,0.0032,1038,2019-08-07 16:52:37:802
-6.0136,-6.7058,3.0816,-0.2973,-0.1195,-0.0836,-0.0346,-0.089,0.0,1043,2019-08-07 16:52:37:807
-6.0136,-6.7058,3.0816,-0.2973,-0.1195,-0.0836,-0.0346,-0.089,0.0,1048,2019-08-07 16:52:37:812
-5.9897,-6.6819,2.9637,-0.2973,-0.1195,-0.0836,-0.0388,-0.106,0.0,1053,2019-08-07 16:52:37:817
-5.9897,-6.6819,2.9637,-0.2973,-0.1195,-0.0836,-0.0388,-0.106,0.0,1058,2019-08-07 16:52:37:822
-5.9323,-6.7201,3.0203,-0.4236,-0.1276,0.0242,-0.0431,-0.1039,-0.0064,1062,2019-08-07 16:52:37:826
-5.9323,-6.7201,3.0203,-0.4236,-0.1276,0.0242,-0.0431,-0.1039,-0.0064,1068,2019-08-07 16:52:37:832
-5.9323,-6.7201,3.0203,-0.4236,-0.1276,0.0242,-0.0378,-0.1028,-0.016,1073,2019-08-07 16:52:37:837
-5.9036,-6.6819,2.8741,-0.4236,-0.1276,0.0242,-0.0378,-0.1028,-0.016,1078,2019-08-07 16:52:37:842
-5.9036,-6.6819,2.8741,-0.4571,-0.2425,0.0329,-0.0452,-0.0943,-0.0224,1082,2019-08-07 16:52:37:846
-5.9036,-6.6819,2.8741,-0.4571,-0.2425,0.0329,-0.0452,-0.0943,-0.0224,1087,2019-08-07 16:52:37:851
-5.8606,-6.6819,2.8411,-0.4571,-0.2425,0.0329,-0.0463,-0.0794,-0.0352,1093,2019-08-07 16:52:37:857
-5.8606,-6.6819,2.8411,-0.4571,-0.2425,0.0329,-0.0463,-0.0794,-0.0352,1097,2019-08-07 16:52:37:861
-5.8462,-6.6055,2.7139,-0.4799,-0.2838,0.2446,-0.0452,-0.0592,-0.0405,1103,2019-08-07 16:52:37:867
-5.8462,-6.6055,2.7139,-0.4799,-0.2838,0.2446,-0.0452,-0.0592,-0.0405,1108,2019-08-07 16:52:37:872
-5.8462,-6.6055,2.7139,-0.4799,-0.2838,0.2446,-0.0431,-0.0347,-0.049,1113,2019-08-07 16:52:37:877
-5.7266,-6.6628,2.6997,-0.4799,-0.2838,0.2446,-0.0431,-0.0347,-0.049,1118,2019-08-07 16:52:37:882
-5.7266,-6.6628,2.6997,-0.4793,-0.2269,0.3044,-0.0431,-0.0347,-0.049,1123,2019-08-07 16:52:37:887
-5.7266,-6.6628,2.6997,-0.4793,-0.2269,0.3044,-0.0463,-0.0176,-0.0469,1127,2019-08-07 16:52:37:891
-5.8845,-6.6581,2.7799,-0.4793,-0.2269,0.3044,-0.0463,-0.0176,-0.0469,1133,2019-08-07 16:52:37:897
-5.8845,-6.6581,2.7799,-0.4793,-0.2269,0.3044,-0.025,-0.0059,-0.033,1138,2019-08-07 16:52:37:902
-5.8845,-6.6581,2.7799,-0.4793,-0.2269,0.3044,-0.025,-0.0059,-0.033,1143,2019-08-07 16:52:37:907
-5.9659,-6.5483,2.7186,-0.3435,-0.3589,0.2343,-0.0037,-0.0134,-0.0053,1150,2019-08-07 16:52:37:914
-5.9659,-6.5483,2.7186,-0.3435,-0.3589,0.2343,-0.0037,-0.0134,-0.0053,1153,2019-08-07 16:52:37:917
-5.8893,-6.4623,2.6809,-0.3435,-0.3589,0.2343,-0.0037,-0.0134,-0.0053,1158,2019-08-07 16:52:37:922
-5.8893,-6.4623,2.6809,-0.3952,-0.5173,0.3615,0.007,0.0069,0.0096,1163,2019-08-07 16:52:37:927
-5.8893,-6.4623,2.6809,-0.3952,-0.5173,0.3615,0.007,0.0069,0.0096,1168,2019-08-07 16:52:37:932
-6.0042,-6.3382,2.596,-0.3952,-0.5173,0.3615,0.0123,0.0388,0.0181,1173,2019-08-07 16:52:37:937
-6.0042,-6.3382,2.596,-0.3952,-0.5173,0.3615,0.0123,0.0388,0.0181,1178,2019-08-07 16:52:37:942
-6.0042,-6.3382,2.596,-0.2626,-0.4896,0.3147,0.0123,0.0527,0.0287,1183,2019-08-07 16:52:37:947
-6.052,-6.4146,2.6337,-0.2626,-0.4896,0.3147,0.0123,0.0527,0.0287,1188,2019-08-07 16:52:37:952
-6.052,-6.4146,2.6337,-0.2626,-0.4896,0.3147,0.0123,0.0633,0.0319,1193,2019-08-07 16:52:37:957
-6.052,-6.4146,2.6337,-0.2434,-0.4965,0.4099,0.0123,0.0633,0.0319,1198,2019-08-07 16:52:37:962
-6.0903,-6.4337,2.53,-0.2434,-0.4965,0.4099,0.0038,0.0772,0.0256,1203,2019-08-07 16:52:37:967
-6.0903,-6.4337,2.53,-0.2434,-0.4965,0.4099,0.0038,0.0772,0.0256,1208,2019-08-07 16:52:37:972
-5.9468,-6.4957,2.5677,-0.406,-0.321,0.3744,-5.0E-4,0.1102,0.0245,1213,2019-08-07 16:52:37:977
-5.9468,-6.4957,2.5677,-0.406,-0.321,0.3744,-5.0E-4,0.1102,0.0245,1218,2019-08-07 16:52:37:982
-5.9468,-6.4957,2.5677,-0.406,-0.321,0.3744,0.008,0.1667,0.0192,1222,2019-08-07 16:52:37:986
-5.966,-6.6198,2.5583,-0.406,-0.321,0.3744,0.008,0.1667,0.0192,1228,2019-08-07 16:52:37:992
-5.966,-6.6198,2.5583,-0.2842,-0.2044,0.3621,0.0123,0.2061,0.0181,1233,2019-08-07 16:52:37:997
-5.966,-6.6198,2.5583,-0.2842,-0.2044,0.3621,0.0123,0.2061,0.0181,1238,2019-08-07 16:52:38:002
-6.1956,-6.7201,2.6431,-0.2842,-0.2044,0.3621,0.0123,0.2061,0.0181,1243,2019-08-07 16:52:38:007
-6.1956,-6.7201,2.6431,-0.1682,-0.1931,0.1971,0.0219,0.2434,0.0266,1248,2019-08-07 16:52:38:012
-6.1956,-6.6485,2.8741,-0.1682,-0.1931,0.1971,0.0219,0.2434,0.0266,1253,2019-08-07 16:52:38:017
-6.2818,-6.6485,2.8741,-0.1682,-0.1931,0.1971,0.0443,0.2231,0.0383,1258,2019-08-07 16:52:38:022
-6.2818,-6.6485,2.8741,-0.1682,-0.1931,0.1971,0.0443,0.2231,0.0383,1262,2019-08-07 16:52:38:026
-6.5401,-6.5435,3.0721,0.128,-0.376,-0.1425,0.0507,0.156,0.0458,1268,2019-08-07 16:52:38:032
-6.5401,-6.5435,3.0721,0.128,-0.376,-0.1425,0.0507,0.156,0.0458,1274,2019-08-07 16:52:38:038
-6.5401,-6.5435,3.0721,0.128,-0.376,-0.1425,0.0453,0.0569,0.049,1278,2019-08-07 16:52:38:042
-6.7219,-6.3716,3.1569,0.128,-0.376,-0.1425,0.0453,0.0569,0.049,1283,2019-08-07 16:52:38:047
-6.7219,-6.3716,3.1569,0.3475,-0.5783,-0.2354,0.0294,-0.0933,0.0564,1288,2019-08-07 16:52:38:052
-6.7219,-6.3716,3.1569,0.3475,-0.5783,-0.2354,0.0294,-0.0933,0.0564,1293,2019-08-07 16:52:38:057
-6.6598,-6.2904,3.1004,0.2296,-0.5386,-0.2083,0.0294,-0.0933,0.0564,1297,2019-08-07 16:52:38:061
-6.6598,-6.2904,3.1004,0.2296,-0.5386,-0.2083,0.0123,-0.1955,0.0469,1303,2019-08-07 16:52:38:067
-6.6598,-6.2904,3.1004,0.2296,-0.5386,-0.2083,0.0123,-0.1955,0.0469,1308,2019-08-07 16:52:38:072
-6.2435,-6.4193,2.8552,0.2296,-0.5386,-0.2083,-0.0015,-0.2467,0.0351,1313,2019-08-07 16:52:38:077
-6.2435,-6.4193,2.8552,-0.1964,-0.4348,0.0477,-0.0015,-0.2467,0.0351,1318,2019-08-07 16:52:38:082
-6.2435,-6.4193,2.8552,-0.1964,-0.4348,0.0477,-0.0154,-0.2115,0.0266,1323,2019-08-07 16:52:38:087
-5.8943,-6.4814,2.7091,-0.1964,-0.4348,0.0477,-0.0154,-0.2115,0.0266,1328,2019-08-07 16:52:38:092
-5.8943,-6.4814,2.7091,-0.1964,-0.4348,0.0477,-0.0175,-0.1295,0.0181,1333,2019-08-07 16:52:38:097
-5.7651,-6.5482,2.6384,-0.5657,-0.3183,0.2456,-0.0175,-0.1295,0.0181,1338,2019-08-07 16:52:38:102
-5.7651,-6.5482,2.6384,-0.5657,-0.3183,0.2456,-0.0175,-0.1295,0.0181,1343,2019-08-07 16:52:38:107
-5.7651,-6.5482,2.6384,-0.5657,-0.3183,0.2456,-0.0197,-0.0272,0.0117,1348,2019-08-07 16:52:38:112
-5.8943,-6.5482,2.8552,-0.5657,-0.3183,0.2456,-0.0197,-0.0272,0.0117,1353,2019-08-07 16:52:38:117
-5.8943,-6.5482,2.8552,-0.4173,-0.2989,0.0766,-0.0143,0.0612,0.0213,1358,2019-08-07 16:52:38:122
-5.8943,-6.5482,2.8552,-0.4173,-0.2989,0.0766,-0.0143,0.0612,0.0213,1363,2019-08-07 16:52:38:127
-6.0953,-6.5482,3.0202,-0.4173,-0.2989,0.0766,0.0038,0.0857,0.0277,1368,2019-08-07 16:52:38:132
-6.0953,-6.5482,3.0202,-0.4173,-0.2989,0.0766,0.0038,0.0857,0.0277,1373,2019-08-07 16:52:38:137
-6.2867,-6.4862,3.2323,-0.1386,-0.3327,-0.2659,0.0208,0.0537,0.0383,1378,2019-08-07 16:52:38:142
-6.2867,-6.4862,3.2323,-0.1386,-0.3327,-0.2659,0.0208,0.0537,0.0383,1384,2019-08-07 16:52:38:148
-6.2867,-6.4862,3.2323,-0.1386,-0.3327,-0.2659,0.0208,0.0537,0.0383,1388,2019-08-07 16:52:38:152
-6.4206,-6.5005,3.303,-0.1386,-0.3327,-0.2659,0.0368,-0.0485,0.0618,1393,2019-08-07 16:52:38:157
-6.4206,-6.5005,3.303,0.0068,-0.3415,-0.3719,0.0368,-0.0485,0.0618,1397,2019-08-07 16:52:38:161
-6.2771,-6.4909,3.2983,0.0068,-0.3415,-0.3719,0.0411,-0.138,0.0809,1403,2019-08-07 16:52:38:167
-6.2771,-6.4909,3.2983,0.0068,-0.3415,-0.3719,0.0411,-0.138,0.0809,1408,2019-08-07 16:52:38:172
-6.2771,-6.4909,3.2983,0.0068,-0.3415,-0.3719,0.0411,-0.138,0.0809,1412,2019-08-07 16:52:38:176
-6.0619,-6.6389,3.0815,-0.3304,-0.1879,-0.1201,0.0507,-0.22,0.1054,1418,2019-08-07 16:52:38:182
-6.0619,-6.6389,3.0815,-0.3304,-0.1879,-0.1201,0.0592,-0.2317,0.1204,1423,2019-08-07 16:52:38:187
-5.8705,-6.7058,2.9448,-0.3304,-0.1879,-0.1201,0.0592,-0.2317,0.1204,1428,2019-08-07 16:52:38:192
-5.8705,-6.7058,2.9448,-0.3304,-0.1879,-0.1201,0.0752,-0.2222,0.1342,1433,2019-08-07 16:52:38:197
-5.8705,-6.7058,2.9448,-0.6951,-0.0074,0.1972,0.0752,-0.2222,0.1342,1438,2019-08-07 16:52:38:202
-5.6648,-6.8346,2.8411,-0.6951,-0.0074,0.1972,0.0752,-0.2222,0.1342,1443,2019-08-07 16:52:38:207
-5.6648,-6.8346,2.8411,-0.6951,-0.0074,0.1972,0.0965,-0.1508,0.1576,1448,2019-08-07 16:52:38:212
-5.6648,-6.8346,2.8411,-0.6951,-0.0074,0.1972,0.0965,-0.1508,0.1576,1453,2019-08-07 16:52:38:217
-5.6792,-6.8919,2.8363,-0.6998,0.14,0.1588,0.1242,-0.0773,0.1715,1458,2019-08-07 16:52:38:222
-5.6792,-6.8919,2.8363,-0.6998,0.14,0.1588,0.1242,-0.0773,0.1715,1463,2019-08-07 16:52:38:227
-5.8227,-6.997,3.0909,-0.6998,0.14,0.1588,0.1614,-0.0091,0.2003,1467,2019-08-07 16:52:38:231
-5.8227,-6.997,3.0909,-0.6998,0.14,0.1588,0.1614,-0.0091,0.2003,1473,2019-08-07 16:52:38:237
-6.0093,-7.0399,3.435,-0.4173,0.2886,-0.3764,0.2062,0.0175,0.2237,1478,2019-08-07 16:52:38:242
-6.0093,-7.0399,3.435,-0.4173,0.2886,-0.3764,0.2062,0.0175,0.2237,1482,2019-08-07 16:52:38:246
-6.0093,-7.0399,3.435,-0.4173,0.2886,-0.3764,0.2584,-0.0123,0.2343,1488,2019-08-07 16:52:38:252
-6.0093,-7.0399,3.435,-0.4173,0.2886,-0.3764,0.2584,-0.0123,0.2343,1493,2019-08-07 16:52:38:257
-6.3681,-7.0399,3.8262,-0.0715,0.3299,-0.8232,0.2957,-0.0581,0.2365,1497,2019-08-07 16:52:38:261
-6.3681,-7.0399,3.8262,-0.0715,0.3299,-0.8232,0.2957,-0.0581,0.2365,1503,2019-08-07 16:52:38:267
-6.4399,-6.9683,3.9865,-0.0715,0.3299,-0.8232,0.3511,-0.2243,0.2333,1508,2019-08-07 16:52:38:272
-6.4399,-6.9683,3.9865,-0.0715,0.3299,-0.8232,0.3511,-0.2243,0.2333,1513,2019-08-07 16:52:38:277
-6.4399,-6.9683,3.9865,-0.1776,0.387,-0.7341,0.3734,-0.3479,0.2237,1517,2019-08-07 16:52:38:281
-6.1959,-7.0208,3.8498,-0.1776,0.387,-0.7341,0.3734,-0.3479,0.2237,1524,2019-08-07 16:52:38:288
-6.1959,-7.0208,3.8498,-0.1776,0.387,-0.7341,0.3915,-0.4246,0.2194,1528,2019-08-07 16:52:38:292
-5.8945,-7.2118,3.6377,-0.1776,0.387,-0.7341,0.3915,-0.4246,0.2194,1532,2019-08-07 16:52:38:296
-5.8945,-7.2118,3.6377,-0.7164,0.6437,-0.3471,0.3915,-0.4246,0.2194,1538,2019-08-07 16:52:38:302
-5.8945,-7.2118,3.6377,-0.7164,0.6437,-0.3471,0.4182,-0.4246,0.2152,1543,2019-08-07 16:52:38:307
-5.6075,-7.3263,3.6801,-0.7164,0.6437,-0.3471,0.4182,-0.4246,0.2152,1547,2019-08-07 16:52:38:311
-5.6075,-7.3263,3.6801,-0.7164,0.6437,-0.3471,0.4363,-0.3819,0.2248,1554,2019-08-07 16:52:38:318
-5.6075,-7.3263,3.6801,-0.9138,1.0022,-0.4624,0.4363,-0.3819,0.2248,1558,2019-08-07 16:52:38:322
-5.5501,-7.5507,3.8639,-0.9138,1.0022,-0.4624,0.4672,-0.2946,0.2471,1563,2019-08-07 16:52:38:327
-5.5501,-7.5507,3.8639,-0.9138,1.0022,-0.4624,0.4672,-0.2946,0.2471,1568,2019-08-07 16:52:38:332
-5.5501,-7.5507,3.8639,-0.9138,1.0022,-0.4624,0.4672,-0.2946,0.2471,1573,2019-08-07 16:52:38:337
-5.5071,-7.9708,4.5191,-1.0381,1.6048,-1.3507,0.5364,-0.1859,0.2844,1578,2019-08-07 16:52:38:342
-5.5071,-7.9708,4.5191,-1.0381,1.6048,-1.3507,0.5364,-0.1859,0.2844,1582,2019-08-07 16:52:38:346
-5.3827,-8.2477,5.2356,-1.0381,1.6048,-1.3507,0.6525,-0.1529,0.2855,1588,2019-08-07 16:52:38:352
-5.3827,-8.2477,5.2356,-1.0381,1.6048,-1.3507,0.6525,-0.1529,0.2855,1593,2019-08-07 16:52:38:357
-5.3827,-8.2477,5.2356,-1.0745,2.1311,-2.1853,0.7569,-0.1689,0.277,1598,2019-08-07 16:52:38:362
-5.3683,-8.6105,5.9003,-1.0745,2.1311,-2.1853,0.7569,-0.1689,0.277,1603,2019-08-07 16:52:38:367
-5.3683,-8.6105,5.9003,-1.0745,2.1311,-2.1853,0.8698,-0.2456,0.2482,1608,2019-08-07 16:52:38:372
-5.3683,-8.6105,5.9003,-1.0745,2.1311,-2.1853,0.8698,-0.2456,0.2482,1612,2019-08-07 16:52:38:376
-5.4305,-9.0354,6.268,-1.0454,2.8981,-2.6441,0.9359,-0.3148,0.229,1618,2019-08-07 16:52:38:382
-5.4305,-9.0354,6.268,-1.0454,2.8981,-2.6441,0.9359,-0.3148,0.229,1624,2019-08-07 16:52:38:388
-5.3923,-9.5032,6.4188,-1.0454,2.8981,-2.6441,1.0296,-0.432,0.2013,1628,2019-08-07 16:52:38:392
-5.3923,-9.5032,6.4188,-1.0454,2.8981,-2.6441,1.0296,-0.432,0.2013,1633,2019-08-07 16:52:38:397
-5.3923,-9.5032,6.4188,-1.0454,2.8981,-2.6441,1.0296,-0.432,0.2013,1638,2019-08-07 16:52:38:402
-4.9713,-10.0999,6.2444,-1.382,3.7773,-2.2971,1.1649,-0.5524,0.1608,1642,2019-08-07 16:52:38:406
-4.9713,-10.0999,6.2444,-1.382,3.7773,-2.2971,1.1649,-0.5524,0.1608,1648,2019-08-07 16:52:38:412
-4.2106,-10.7062,6.0605,-1.382,3.7773,-2.2971,1.2938,-0.5822,0.1246,1653,2019-08-07 16:52:38:417
-4.2106,-10.7062,6.0605,-1.382,3.7773,-2.2971,1.2938,-0.5822,0.1246,1658,2019-08-07 16:52:38:422
-4.2106,-10.7062,6.0605,-2.5494,4.8371,-1.5473,1.46,-0.5172,0.0607,1663,2019-08-07 16:52:38:427
-3.3973,-11.2218,5.7117,-2.5494,4.8371,-1.5473,1.46,-0.5172,0.0607,1667,2019-08-07 16:52:38:431
-3.3973,-11.2218,5.7117,-2.5494,4.8371,-1.5473,1.7583,-0.2818,-0.0661,1674,2019-08-07 16:52:38:438
-2.6462,-12.0047,5.4289,-2.5494,4.8371,-1.5473,1.7583,-0.2818,-0.0661,1677,2019-08-07 16:52:38:441
-2.6462,-12.0047,5.4289,-3.8713,6.1479,-0.9313,2.0928,0.0282,-0.163,1683,2019-08-07 16:52:38:447
-2.6462,-12.0047,5.4289,-3.8713,6.1479,-0.9313,2.0928,0.0282,-0.163,1688,2019-08-07 16:52:38:452
-1.9621,-12.525,4.7925,-3.8713,6.1479,-0.9313,2.0928,0.0282,-0.163,1693,2019-08-07 16:52:38:457
-1.9621,-12.525,4.7925,-3.8713,6.1479,-0.9313,2.4699,0.4799,-0.2504,1698,2019-08-07 16:52:38:462
-1.6224,-12.6873,4.2033,-4.6581,6.8615,0.4273,2.4699,0.4799,-0.2504,1703,2019-08-07 16:52:38:467
-1.6224,-12.6873,4.2033,-4.6581,6.8615,0.4273,2.8981,1.1073,-0.3537,1708,2019-08-07 16:52:38:472
-1.6224,-12.6873,4.2033,-4.6581,6.8615,0.4273,2.8981,1.1073,-0.3537,1713,2019-08-07 16:52:38:477
-2.2013,-12.525,4.0902,-4.6581,6.8615,0.4273,3.1911,1.5568,-0.3878,1718,2019-08-07 16:52:38:482
-2.2013,-12.525,4.0902,-3.888,6.8314,0.7107,3.1911,1.5568,-0.3878,1723,2019-08-07 16:52:38:487
-2.2013,-12.525,4.0902,-3.888,6.8314,0.7107,3.4403,1.9041,-0.3803,1728,2019-08-07 16:52:38:492
-3.1964,-12.5202,4.3164,-3.888,6.8314,0.7107,3.4403,1.9041,-0.3803,1733,2019-08-07 16:52:38:497
-3.1964,-12.5202,4.3164,-3.888,6.8314,0.7107,3.6832,2.0639,-0.326,1738,2019-08-07 16:52:38:502
-4.0576,-12.8353,4.0053,-2.4463,7.4688,1.0083,3.6832,2.0639,-0.326,1743,2019-08-07 16:52:38:507
-4.0576,-12.8353,4.0053,-2.4463,7.4688,1.0083,3.6832,2.0639,-0.326,1747,2019-08-07 16:52:38:511
-4.0576,-12.8353,4.0053,-2.4463,7.4688,1.0083,3.8696,2.049,-0.3057,1753,2019-08-07 16:52:38:517
-4.4308,-13.4989,3.5811,-2.4463,7.4688,1.0083,3.8696,2.049,-0.3057,1758,2019-08-07 16:52:38:522
-4.4308,-13.4989,3.5811,-2.2825,8.6498,1.9032,4.1732,1.9584,-0.2951,1762,2019-08-07 16:52:38:526
-4.1916,-13.6039,2.874,-2.2825,8.6498,1.9032,4.1732,1.9584,-0.2951,1768,2019-08-07 16:52:38:532
-4.1916,-13.6039,2.874,-2.2825,8.6498,1.9032,4.5919,1.9702,-0.2376,1773,2019-08-07 16:52:38:537
-4.005,-12.9737,2.1811,-2.2825,8.6498,1.9032,4.5919,1.9702,-0.2376,1777,2019-08-07 16:52:38:541
-4.005,-12.9737,2.1811,-2.8212,7.768,3.4402,4.9264,2.1917,-0.1108,1783,2019-08-07 16:52:38:547
-3.9668,-11.3172,1.342,-2.8212,7.768,3.4402,4.9264,2.1917,-0.1108,1789,2019-08-07 16:52:38:553
-3.9668,-11.3172,1.342,-2.8212,7.768,3.4402,4.9264,2.1917,-0.1108,1793,2019-08-07 16:52:38:557
-3.9668,-11.3172,1.342,-2.8212,7.768,3.4402,5.1362,2.5486,0.0746,1798,2019-08-07 16:52:38:562
-4.5074,-8.916,0.3898,-2.5705,4.7646,4.9866,5.1362,2.5486,0.0746,1803,2019-08-07 16:52:38:567
-4.5074,-8.916,0.3898,-2.5705,4.7646,4.9866,5.1788,2.9459,0.3068,1808,2019-08-07 16:52:38:572
-4.5074,-8.916,0.3898,-2.5705,4.7646,4.9866,5.1788,2.9459,0.3068,1812,2019-08-07 16:52:38:576
-6.3111,-6.8251,0.6821,-2.5705,4.7646,4.9866,5.149,3.2155,0.6082,1818,2019-08-07 16:52:38:582
-6.3111,-6.8251,0.6821,-0.0886,2.3216,4.572,5.149,3.2155,0.6082,1823,2019-08-07 16:52:38:587
-8.1578,-5.3786,0.9225,-0.0886,2.3216,4.572,4.9807,3.224,0.9459,1828,2019-08-07 16:52:38:592
-8.1578,-5.3786,0.9225,-0.0886,2.3216,4.572,4.9807,3.224,0.9459,1833,2019-08-07 16:52:38:597
-8.1578,-5.3786,0.9225,-0.0886,2.3216,4.572,4.6952,2.9214,1.1728,1838,2019-08-07 16:52:38:602
-9.2343,-4.3284,1.309,-0.0886,2.3216,4.572,4.6952,2.9214,1.1728,1843,2019-08-07 16:52:38:607
-9.2343,-4.3284,1.309,1.3991,1.1993,3.8621,4.6952,2.9214,1.1728,1848,2019-08-07 16:52:38:612
-8.4018,-3.3784,0.5878,1.3991,1.1993,3.8621,4.2361,2.3579,1.3635,1853,2019-08-07 16:52:38:617
-8.4018,-3.3784,0.5878,1.3991,1.1993,3.8621,4.2361,2.3579,1.3635,1858,2019-08-07 16:52:38:622
-8.4018,-3.3784,0.5878,-0.7654,0.6281,5.7939,3.8877,1.9531,1.4445,1863,2019-08-07 16:52:38:627
-6.9382,-2.6909,-1.5524,-0.7654,0.6281,5.7939,3.8877,1.9531,1.4445,1868,2019-08-07 16:52:38:632
-6.9382,-2.6909,-1.5524,-0.7654,0.6281,5.7939,3.5596,2.0096,1.4807,1873,2019-08-07 16:52:38:637
-6.9382,-2.6909,-1.5524,-0.7654,0.6281,5.7939,3.5596,2.0096,1.4807,1878,2019-08-07 16:52:38:642
-6.9813,-1.6502,-2.9665,-1.4859,-0.0212,7.6301,3.4116,2.2993,1.5297,1883,2019-08-07 16:52:38:647
-6.9813,-1.6502,-2.9665,-1.4859,-0.0212,7.6301,3.4116,2.2993,1.5297,1888,2019-08-07 16:52:38:652
-6.9813,-1.6502,-2.9665,-1.4859,-0.0212,7.6301,3.4116,2.2993,1.5297,1893,2019-08-07 16:52:38:657
-8.187,-0.5045,-3.8103,-0.4323,-0.8767,8.2865,3.272,2.6658,1.6128,1898,2019-08-07 16:52:38:662
-8.187,-0.5045,-3.8103,-0.4323,-0.8767,8.2865,3.272,2.6658,1.6128,1903,2019-08-07 16:52:38:667
-8.187,-0.5045,-3.8103,-0.4323,-0.8767,8.2865,3.027,2.7957,1.7172,1908,2019-08-07 16:52:38:672
-10.8183,0.9945,-3.042,2.1287,-1.8514,6.971,3.027,2.7957,1.7172,1913,2019-08-07 16:52:38:677
-10.8183,0.9945,-3.042,2.1287,-1.8514,6.971,2.7894,2.3739,1.7406,1918,2019-08-07 16:52:38:682
-11.9044,1.0566,-2.5847,2.1287,-1.8514,6.971,2.7894,2.3739,1.7406,1923,2019-08-07 16:52:38:687
-11.9044,1.0566,-2.5847,2.1287,-1.8514,6.971,2.6424,1.9073,1.6682,1927,2019-08-07 16:52:38:691
-11.9044,1.0566,-2.5847,3.1628,-1.613,6.0433,2.6424,1.9073,1.6682,1933,2019-08-07 16:52:38:697
-12.3254,1.4003,-2.3349,3.1628,-1.613,6.0433,2.4731,1.1382,1.4764,1938,2019-08-07 16:52:38:702
-12.3254,1.4003,-2.3349,3.1628,-1.613,6.0433,2.4731,1.1382,1.4764,1943,2019-08-07 16:52:38:707
-12.3732,1.9493,-1.7928,3.1628,-1.613,6.0433,2.3442,0.2583,1.2304,1948,2019-08-07 16:52:38:712
-12.3732,1.9493,-1.7928,3.1628,-1.613,6.0433,2.3442,0.2583,1.2304,1953,2019-08-07 16:52:38:717
-12.3732,1.9493,-1.7928,3.0279,-1.9788,5.7724,2.3442,0.2583,1.2304,1958,2019-08-07 16:52:38:722
-11.7561,2.4792,-2.5282,3.0279,-1.9788,5.7724,2.2376,-0.8187,0.8692,1962,2019-08-07 16:52:38:726
-11.7561,2.4792,-2.5282,3.0279,-1.9788,5.7724,2.2376,-0.8187,0.8692,1968,2019-08-07 16:52:38:732
-10.1821,3.391,-3.7679,1.0656,-2.9258,7.3608,2.0416,-1.4536,0.4101,1973,2019-08-07 16:52:38:737
-10.1821,3.391,-3.7679,1.0656,-2.9258,7.3608,2.0416,-1.4536,0.4101,1978,2019-08-07 16:52:38:742
-10.1821,3.391,-3.7679,1.0656,-2.9258,7.3608,1.8978,-1.2597,0.1651,1983,2019-08-07 16:52:38:747
-8.2636,3.8779,-2.811,1.0656,-2.9258,7.3608,1.8978,-1.2597,0.1651,1988,2019-08-07 16:52:38:752
-8.2636,3.8779,-2.811,1.0656,-2.9258,7.3608,1.8978,-1.2597,0.1651,1992,2019-08-07 16:52:38:756
-8.2636,3.8779,-2.811,-1.1932,-3.202,5.6384,1.7902,-1.0126,-0.1587,1997,2019-08-07 16:52:38:761
-7.7757,3.9256,-1.8824,-1.1932,-3.202,5.6384,1.7902,-1.0126,-0.1587,2003,2019-08-07 16:52:38:767
-7.7757,3.9256,-1.8824,-1.1932,-3.202,5.6384,1.7114,-0.676,-0.5753,2008,2019-08-07 16:52:38:772
-7.3212,4.403,-1.9484,-1.1932,-3.202,5.6384,1.7114,-0.676,-0.5753,2013,2019-08-07 16:52:38:777
-7.3212,4.403,-1.9484,-1.6801,-3.9946,5.4861,1.5846,-0.3766,-0.7691,2018,2019-08-07 16:52:38:782
-7.3212,4.403,-1.9484,-1.6801,-3.9946,5.4861,1.5846,-0.3766,-0.7691,2023,2019-08-07 16:52:38:787
-7.8762,5.248,-1.1235,-1.6801,-3.9946,5.4861,1.5846,-0.3766,-0.7691,2028,2019-08-07 16:52:38:792
-7.8762,5.248,-1.1235,-1.6801,-3.9946,5.4861,1.3663,-0.1987,-0.9076,2033,2019-08-07 16:52:38:797
-7.8905,5.797,-0.1854,-1.0636,-4.9579,4.1927,1.3663,-0.1987,-0.9076,2038,2019-08-07 16:52:38:802
-7.8905,5.797,-0.1854,-1.0636,-4.9579,4.1927,1.3663,-0.1987,-0.9076,2042,2019-08-07 16:52:38:806
-7.8905,5.797,-0.1854,-1.0636,-4.9579,4.1927,1.183,-0.1486,-0.9918,2048,2019-08-07 16:52:38:812
-8.0724,6.2314,0.6112,-1.0636,-4.9579,4.1927,1.183,-0.1486,-0.9918,2053,2019-08-07 16:52:38:817
-8.0724,6.2314,0.6112,-0.992,-5.5338,2.8725,1.0563,-0.0421,-1.011,2058,2019-08-07 16:52:38:822
-7.9958,6.1264,1.3183,-0.992,-5.5338,2.8725,1.0563,-0.0421,-1.011,2063,2019-08-07 16:52:38:827
-7.9958,6.1264,1.3183,-0.992,-5.5338,2.8725,0.9625,0.009,-1.0205,2068,2019-08-07 16:52:38:832
-7.9958,6.1264,1.3183,-0.992,-5.5338,2.8725,0.9625,0.009,-1.0205,2073,2019-08-07 16:52:38:837
-7.9241,5.8686,1.4078,-1.1046,-5.2443,2.3777,0.839,0.041,-1.0269,2077,2019-08-07 16:52:38:841
-7.9241,5.8686,1.4078,-1.1046,-5.2443,2.3777,0.839,0.041,-1.0269,2084,2019-08-07 16:52:38:848
-7.9241,5.8686,1.4078,-1.1046,-5.2443,2.3777,0.6802,0.0665,-1.011,2088,2019-08-07 16:52:38:852
-8.1585,5.6299,1.3607,-1.1046,-5.2443,2.3777,0.6802,0.0665,-1.011,2093,2019-08-07 16:52:38:857
-8.1585,5.6299,1.3607,-0.7319,-5.0468,2.231,0.5876,0.0814,-0.9481,2098,2019-08-07 16:52:38:862
-8.4791,5.3626,1.6812,-0.7319,-5.0468,2.231,0.5876,0.0814,-0.9481,2104,2019-08-07 16:52:38:868
-8.4791,5.3626,1.6812,-0.7319,-5.0468,2.231,0.5876,0.0814,-0.9481,2108,2019-08-07 16:52:38:872
-8.4791,5.3626,1.6812,-0.7319,-5.0468,2.231,0.4789,0.0271,-0.8341,2112,2019-08-07 16:52:38:876
-8.3787,4.8088,1.8462,-0.6861,-4.4212,1.8773,0.4789,0.0271,-0.8341,2118,2019-08-07 16:52:38:882
-8.3787,4.8088,1.8462,-0.6861,-4.4212,1.8773,0.3777,-0.056,-0.7606,2123,2019-08-07 16:52:38:887
-8.3787,4.8088,1.8462,-0.6701,-4.3308,1.8977,0.3777,-0.056,-0.7606,2128,2019-08-07 16:52:38:892
-8.3595,4.7038,1.8698,-0.6701,-4.3308,1.8977,0.285,-0.1178,-0.6988,2133,2019-08-07 16:52:38:897
-8.3595,4.7038,1.8698,-0.6701,-4.3308,1.8977,0.285,-0.1178,-0.6988,2138,2019-08-07 16:52:38:902
-8.3595,4.7038,1.8698,-0.6701,-4.3308,1.8977,0.2062,-0.1359,-0.6349,2143,2019-08-07 16:52:38:907
-8.3691,4.3553,1.9593,-0.6738,-3.9337,1.634,0.2062,-0.1359,-0.6349,2148,2019-08-07 16:52:38:912
-8.3691,4.3553,1.9593,-0.6738,-3.9337,1.634,0.1327,-0.0965,-0.5838,2153,2019-08-07 16:52:38:917
-8.6036,4.1787,2.0112,-0.6738,-3.9337,1.634,0.1327,-0.0965,-0.5838,2158,2019-08-07 16:52:38:922
-8.6036,4.1787,2.0112,-0.6738,-3.9337,1.634,0.057,-0.057,-0.5369,2163,2019-08-07 16:52:38:927
-8.6036,4.1787,2.0112,-0.3683,-3.8028,1.7223,0.057,-0.057,-0.5369,2168,2019-08-07 16:52:38:932
-8.7663,4.0355,2.0064,-0.3683,-3.8028,1.7223,-0.0218,0.009,-0.4943,2173,2019-08-07 16:52:38:937
-8.7663,4.0355,2.0064,-0.3683,-3.8028,1.7223,-0.0218,0.009,-0.4943,2178,2019-08-07 16:52:38:942
-9.0964,4.0784,2.4307,-0.3683,-3.8028,1.7223,-0.0942,0.0516,-0.4634,2183,2019-08-07 16:52:38:947
-9.0964,4.0784,2.4307,0.2893,-3.9752,1.2889,-0.0942,0.0516,-0.4634,2188,2019-08-07 16:52:38:952
-9.0964,4.0784,2.4307,0.2893,-3.9752,1.2889,-0.0942,0.0516,-0.4634,2193,2019-08-07 16:52:38:957
-9.4839,4.2933,2.5202,0.2893,-3.9752,1.2889,-0.1773,0.0261,-0.4357,2198,2019-08-07 16:52:38:962
-9.4839,4.2933,2.5202,0.2893,-3.9752,1.2889,-0.1773,0.0261,-0.4357,2203,2019-08-07 16:52:38:967
-9.5126,4.446,2.3128,0.4331,-4.2972,1.3987,-0.3424,-0.0677,-0.3952,2208,2019-08-07 16:52:38:972
-9.5126,4.446,2.3128,0.4331,-4.2972,1.3987,-0.3424,-0.0677,-0.3952,2213,2019-08-07 16:52:38:977
-9.5126,4.446,2.3128,0.4331,-4.2972,1.3987,-0.4969,-0.1614,-0.3739,2218,2019-08-07 16:52:38:982
-9.6084,4.4556,2.294,0.4331,-4.2972,1.3987,-0.4969,-0.1614,-0.3739,2223,2019-08-07 16:52:38:987
-9.6084,4.4556,2.294,0.8435,-4.206,1.3417,-0.6247,-0.2669,-0.3686,2228,2019-08-07 16:52:38:992
-9.6084,4.4556,2.294,0.8435,-4.206,1.3417,-0.6247,-0.2669,-0.3686,2233,2019-08-07 16:52:38:997
-10.259,4.1978,2.4354,0.8435,-4.206,1.3417,-0.7728,-0.4448,-0.4144,2238,2019-08-07 16:52:39:002
-10.259,4.1978,2.4354,0.8435,-4.206,1.3417,-0.7728,-0.4448,-0.4144,2243,2019-08-07 16:52:39:007
-11.546,4.0307,2.6616,2.5035,-4.0643,1.1421,-0.9187,-0.66,-0.5092,2249,2019-08-07 16:52:39:013
-11.546,4.0307,2.6616,2.5035,-4.0643,1.1421,-0.9187,-0.66,-0.5092,2253,2019-08-07 16:52:39:017
-11.546,4.0307,2.6616,2.5035,-4.0643,1.1421,-0.9187,-0.66,-0.5092,2258,2019-08-07 16:52:39:022
-11.613,3.9877,1.9923,2.5035,-4.0643,1.1421,-1.0988,-0.8794,-0.6743,2263,2019-08-07 16:52:39:027
-11.613,3.9877,1.9923,2.4067,-4.2094,2.4052,-1.0988,-0.8794,-0.6743,2268,2019-08-07 16:52:39:032
-11.613,3.9877,1.9923,2.4067,-4.2094,2.4052,-1.3736,-1.0786,-0.9279,2273,2019-08-07 16:52:39:037
-10.8236,3.8923,0.7101,2.4067,-4.2094,2.4052,-1.3736,-1.0786,-0.9279,2278,2019-08-07 16:52:39:042
-10.8236,3.8923,0.7101,2.4067,-4.2094,2.4052,-1.625,-1.0712,-1.1249,2283,2019-08-07 16:52:39:047
-10.8236,3.8923,0.7101,0.7818,-3.9665,4.087,-1.625,-1.0712,-1.1249,2287,2019-08-07 16:52:39:051
-9.5032,3.3671,-0.2044,0.7818,-3.9665,4.087,-1.853,-0.9369,-1.3721,2293,2019-08-07 16:52:39:057
-9.5032,3.3671,-0.2044,0.7818,-3.9665,4.087,-1.853,-0.9369,-1.3721,2298,2019-08-07 16:52:39:062
-9.331,3.0234,-0.7417,0.7818,-3.9665,4.087,-2.0362,-0.709,-1.6203,2303,2019-08-07 16:52:39:067
-9.331,3.0234,-0.7417,0.7818,-3.9665,4.087,-2.0362,-0.709,-1.6203,2308,2019-08-07 16:52:39:072
-9.331,3.0234,-0.7417,0.5233,-3.8466,5.1603,-2.1438,-0.5822,-1.7833,2313,2019-08-07 16:52:39:077
-9.3788,2.5699,-1.2556,0.5233,-3.8466,5.1603,-2.1438,-0.5822,-1.7833,2318,2019-08-07 16:52:39:082
-9.3788,2.5699,-1.2556,0.5233,-3.8466,5.1603,-2.3334,-0.4682,-2.0283,2323,2019-08-07 16:52:39:087
-9.3788,2.5699,-1.2556,0.5233,-3.8466,5.1603,-2.3334,-0.4682,-2.0283,2328,2019-08-07 16:52:39:092
-9.8238,1.8013,-1.43,1.065,-3.2266,5.6119,-2.3334,-0.4682,-2.0283,2333,2019-08-07 16:52:39:097
-9.8238,1.8013,-1.43,1.065,-3.2266,5.6119,-2.5038,-0.6131,-2.2563,2337,2019-08-07 16:52:39:101
-10.6228,1.0375,-1.2178,1.065,-3.2266,5.6119,-2.5038,-0.6131,-2.2563,2343,2019-08-07 16:52:39:107
-10.6228,1.0375,-1.2178,1.065,-3.2266,5.6119,-2.6232,-0.9487,-2.4203,2349,2019-08-07 16:52:39:113
-10.6228,1.0375,-1.2178,2.2933,-2.8437,5.4152,-2.6232,-0.9487,-2.4203,2353,2019-08-07 16:52:39:117
-11.0582,0.5745,-1.2367,2.2933,-2.8437,5.4152,-2.7787,-1.4472,-2.5375,2357,2019-08-07 16:52:39:121
-11.0582,0.5745,-1.2367,2.4451,-2.8188,5.2861,-2.7787,-1.4472,-2.5375,2363,2019-08-07 16:52:39:127
-10.7472,0.2642,-0.5579,2.4451,-2.8188,5.2861,-2.9949,-2.1173,-2.5897,2368,2019-08-07 16:52:39:132
-10.7472,0.2642,-0.5579,2.4451,-2.8188,5.2861,-2.9949,-2.1173,-2.5897,2373,2019-08-07 16:52:39:137
-10.7472,0.2642,-0.5579,2.4451,-2.8188,5.2861,-3.3422,-3.0004,-2.5364,2378,2019-08-07 16:52:39:142
-10.0344,0.0637,-0.162,1.8304,-3.1125,4.5931,-3.3422,-3.0004,-2.5364,2382,2019-08-07 16:52:39:146
-10.0344,0.0637,-0.162,1.8304,-3.1125,4.5931,-3.3422,-3.0004,-2.5364,2388,2019-08-07 16:52:39:152
-10.0344,0.0637,-0.162,1.8304,-3.1125,4.5931,-3.6266,-3.5841,-2.3063,2392,2019-08-07 16:52:39:156
-9.0345,-0.0175,0.4037,1.8304,-3.1125,4.5931,-3.6266,-3.5841,-2.3063,2398,2019-08-07 16:52:39:162
-9.0345,-0.0175,0.4037,0.339,-3.4891,4.316,-3.6714,-3.9037,-2.056,2403,2019-08-07 16:52:39:167
-7.1639,-0.5665,0.0879,0.339,-3.4891,4.316,-3.6714,-3.9037,-2.056,2408,2019-08-07 16:52:39:172
-7.1639,-0.5665,0.0879,0.339,-3.4891,4.316,-3.6895,-4.0976,-1.8238,2413,2019-08-07 16:52:39:177
-7.1639,-0.5665,0.0879,0.339,-3.4891,4.316,-3.6895,-4.0976,-1.8238,2417,2019-08-07 16:52:39:181
-6.0635,-1.4592,-1.1377,-1.16,-2.9094,6.1349,-3.8365,-4.0006,-1.566,2423,2019-08-07 16:52:39:187
-6.0635,-1.4592,-1.1377,-1.16,-2.9094,6.1349,-3.8365,-4.0006,-1.566,2428,2019-08-07 16:52:39:192
-5.5038,-2.328,-0.5485,-1.4615,-2.3489,5.6325,-3.9643,-3.908,-1.3721,2433,2019-08-07 16:52:39:197
-5.5038,-2.328,-0.5485,-1.4615,-2.3489,5.6325,-3.9643,-3.908,-1.3721,2437,2019-08-07 16:52:39:201
-5.5038,-2.328,-0.5485,-1.4615,-2.3489,5.6325,-3.9643,-3.908,-1.3721,2443,2019-08-07 16:52:39:207
-5.5373,-3.4689,-0.9822,-1.4615,-2.3489,5.6325,-4.0165,-3.6161,-1.1558,2447,2019-08-07 16:52:39:211
-5.5373,-3.4689,-0.9822,-0.7698,-0.9061,5.9795,-4.0165,-3.6161,-1.1558,2453,2019-08-07 16:52:39:217
-5.5373,-3.4689,-0.9822,-0.7698,-0.9061,5.9795,-4.1135,-3.4584,-0.8586,2458,2019-08-07 16:52:39:222
-5.8291,-5.1732,-0.6569,-0.7698,-0.9061,5.9795,-4.1135,-3.4584,-0.8586,2464,2019-08-07 16:52:39:228
-5.8291,-5.1732,-0.6569,-0.7698,-0.9061,5.9795,-4.1731,-3.4116,-0.5774,2468,2019-08-07 16:52:39:232
-5.8291,-5.1732,-0.6569,-0.0144,0.9892,5.114,-4.1731,-3.4116,-0.5774,2472,2019-08-07 16:52:39:236
-6.1641,-7.3405,0.2245,-0.0144,0.9892,5.114,-4.1412,-3.468,-0.293,2478,2019-08-07 16:52:39:242
-6.1641,-7.3405,0.2245,-0.0144,0.9892,5.114,-4.1412,-3.468,-0.293,2482,2019-08-07 16:52:39:246
-6.1641,-7.3405,0.2245,-0.0144,0.9892,5.114,-3.9941,-3.5394,0.0756,2488,2019-08-07 16:52:39:252
-6.1497,-8.997,0.5262,0.4651,2.7201,4.4257,-3.9941,-3.5394,0.0756,2493,2019-08-07 16:52:39:257
-6.1497,-8.997,0.5262,0.4651,2.7201,4.4257,-3.8333,-3.5777,0.3643,2498,2019-08-07 16:52:39:262
-5.5422,-9.6701,0.5639,0.4651,2.7201,4.4257,-3.8333,-3.5777,0.3643,2503,2019-08-07 16:52:39:267
-5.5422,-9.6701,0.5639,0.4651,2.7201,4.4257,-3.8333,-3.5777,0.3643,2508,2019-08-07 16:52:39:272
-5.5422,-9.6701,0.5639,-0.4647,3.1554,4.3216,-3.665,-3.5586,0.6423,2513,2019-08-07 16:52:39:277
-4.4418,-9.8706,0.3424,-0.4647,3.1554,4.3216,-3.665,-3.5586,0.6423,2518,2019-08-07 16:52:39:282
-4.4418,-9.8706,0.3424,-0.4647,3.1554,4.3216,-3.665,-3.5586,0.6423,2523,2019-08-07 16:52:39:287
-4.4418,-9.8706,0.3424,-0.4647,3.1554,4.3216,-3.453,-3.3562,1.0248,2527,2019-08-07 16:52:39:291
-3.3893,-10.0329,0.003,-2.2898,3.3417,4.5162,-3.3284,-3.0621,1.2218,2533,2019-08-07 16:52:39:297
-3.3893,-10.0329,0.003,-2.2898,3.3417,4.5162,-3.3284,-3.0621,1.2218,2538,2019-08-07 16:52:39:302
-3.3893,-10.0329,0.003,-2.2898,3.3417,4.5162,-3.3284,-3.0621,1.2218,2543,2019-08-07 16:52:39:307
-2.1598,-11.1452,0.7289,-2.9542,4.1374,3.8508,-3.2197,-2.8299,1.323,2548,2019-08-07 16:52:39:312
-2.1598,-11.1452,0.7289,-2.9542,4.1374,3.8508,-3.2197,-2.8299,1.323,2553,2019-08-07 16:52:39:317
-2.155,-13.0357,1.7329,-2.9542,4.1374,3.8508,-2.947,-2.4262,1.4317,2558,2019-08-07 16:52:39:322
-2.155,-13.0357,1.7329,-2.8358,6.4166,2.3053,-2.947,-2.4262,1.4317,2563,2019-08-07 16:52:39:327
-2.155,-13.0357,1.7329,-2.8358,6.4166,2.3053,-2.6871,-2.2589,1.4434,2568,2019-08-07 16:52:39:332
-2.2172,-14.2148,2.4117,-2.8358,6.4166,2.3053,-2.6871,-2.2589,1.4434,2573,2019-08-07 16:52:39:337
-2.2172,-14.2148,2.4117,-2.8358,6.4166,2.3053,-2.4144,-2.1886,1.4306,2577,2019-08-07 16:52:39:341
-2.3081,-14.1814,2.4824,-2.7428,6.9042,1.7326,-2.4144,-2.1886,1.4306,2583,2019-08-07 16:52:39:347
-2.3081,-14.1814,2.4824,-2.7428,6.9042,1.7326,-2.1587,-2.1695,1.4455,2588,2019-08-07 16:52:39:352
-2.3081,-14.1814,2.4824,-2.7428,6.9042,1.7326,-2.1587,-2.1695,1.4455,2593,2019-08-07 16:52:39:357
-2.0019,-13.5512,2.2279,-3.0519,6.2421,1.9279,-1.9595,-2.1407,1.4892,2598,2019-08-07 16:52:39:362
-2.0019,-13.5512,2.2279,-3.0519,6.2421,1.9279,-1.9595,-2.1407,1.4892,2603,2019-08-07 16:52:39:367
-0.8538,-12.8686,1.5067,-3.0519,6.2421,1.9279,-1.8349,-1.9479,1.5244,2608,2019-08-07 16:52:39:372
-0.8538,-12.8686,1.5067,-4.7604,5.401,2.737,-1.8349,-1.9479,1.5244,2613,2019-08-07 16:52:39:377
-0.8538,-12.8686,1.5067,-4.7604,5.401,2.737,-1.8349,-1.9479,1.5244,2618,2019-08-07 16:52:39:382
0.2083,-12.6776,1.1013,-4.7604,5.401,2.737,-1.7901,-1.4259,1.4434,2622,2019-08-07 16:52:39:386
0.2083,-12.6776,1.1013,-4.7604,5.401,2.737,-1.7901,-1.4259,1.4434,2628,2019-08-07 16:52:39:392
-0.1218,-12.4914,1.1295,-5.0244,5.1155,2.7881,-1.8167,-0.9156,1.2794,2633,2019-08-07 16:52:39:397
-0.1218,-12.4914,1.1295,-5.0244,5.1155,2.7881,-1.8167,-0.9156,1.2794,2638,2019-08-07 16:52:39:402
-0.1218,-12.4914,1.1295,-5.0244,5.1155,2.7881,-1.8167,-0.9156,1.2794,2643,2019-08-07 16:52:39:407
-1.3753,-12.205,1.8225,-3.819,4.8038,1.9825,-1.8285,-0.4086,1.0461,2647,2019-08-07 16:52:39:411
-1.3753,-12.205,1.8225,-3.819,4.8038,1.9825,-1.8285,-0.4086,1.0461,2653,2019-08-07 16:52:39:417
-1.3753,-12.205,1.8225,-3.819,4.8038,1.9825,-1.7944,-0.3958,0.9044,2657,2019-08-07 16:52:39:421
-3.3847,-11.7515,2.7181,-1.4477,4.1718,0.7371,-1.7944,-0.3958,0.9044,2663,2019-08-07 16:52:39:427
-3.3847,-11.7515,2.7181,-1.4477,4.1718,0.7371,-1.7369,-0.6291,0.8213,2667,2019-08-07 16:52:39:431
-3.8536,-11.6178,2.9349,-1.4477,4.1718,0.7371,-1.7369,-0.6291,0.8213,2673,2019-08-07 16:52:39:437
-3.8536,-11.6178,2.9349,-1.4477,4.1718,0.7371,-1.6665,-0.9465,0.7275,2678,2019-08-07 16:52:39:442
-3.8536,-11.6178,2.9349,-2.3156,4.1282,0.5565,-1.6665,-0.9465,0.7275,2683,2019-08-07 16:52:39:447
-2.7819,-11.5796,2.7841,-2.3156,4.1282,0.5565,-1.5866,-1.2895,0.5912,2688,2019-08-07 16:52:39:452
-2.7819,-11.5796,2.7841,-2.3156,4.1282,0.5565,-1.5866,-1.2895,0.5912,2692,2019-08-07 16:52:39:456
-2.7819,-11.5796,2.7841,-2.3156,4.1282,0.5565,-1.5866,-1.2895,0.5912,2698,2019-08-07 16:52:39:462
-1.2558,-11.6369,2.3787,-4.5695,4.1088,1.0059,-1.4823,-1.2821,0.49,2703,2019-08-07 16:52:39:467
-1.2558,-11.6369,2.3787,-4.5695,4.1088,1.0059,-1.4823,-1.2821,0.49,2708,2019-08-07 16:52:39:472
-0.3085,-11.804,2.2373,-4.5695,4.1088,1.0059,-1.3448,-1.0147,0.3717,2712,2019-08-07 16:52:39:476
-0.3085,-11.804,2.2373,-5.1984,4.2194,0.9962,-1.3448,-1.0147,0.3717,2718,2019-08-07 16:52:39:482
-0.3085,-11.804,2.2373,-5.1984,4.2194,0.9962,-1.1637,-0.4437,0.197,2722,2019-08-07 16:52:39:486
-0.0693,-11.8947,2.3362,-5.1984,4.2194,0.9962,-1.1637,-0.4437,0.197,2728,2019-08-07 16:52:39:492
-0.0693,-11.8947,2.3362,-5.1984,4.2194,0.9962,-1.1637,-0.4437,0.197,2733,2019-08-07 16:52:39:497
-1.4807,-11.656,2.4164,-4.22,4.0288,0.7484,-1.0295,0.0857,0.0117,2738,2019-08-07 16:52:39:502
-1.4807,-11.656,2.4164,-4.22,4.0288,0.7484,-1.0295,0.0857,0.0117,2743,2019-08-07 16:52:39:507
-1.4807,-11.656,2.4164,-4.22,4.0288,0.7484,-0.9613,0.1912,-0.0959,2748,2019-08-07 16:52:39:512
-3.5905,-11.5462,3.4958,-4.22,4.0288,0.7484,-0.9613,0.1912,-0.0959,2753,2019-08-07 16:52:39:517
-3.5905,-11.5462,3.4958,-0.798,3.7033,-0.8473,-0.8058,-0.2509,-0.1737,2757,2019-08-07 16:52:39:521
-4.9062,-11.36,4.0803,-0.798,3.7033,-0.8473,-0.8058,-0.2509,-0.1737,2763,2019-08-07 16:52:39:527
-4.9062,-11.36,4.0803,-0.798,3.7033,-0.8473,-0.63,-0.8219,-0.2205,2768,2019-08-07 16:52:39:532
-4.9062,-11.36,4.0803,-0.798,3.7033,-0.8473,-0.63,-0.8219,-0.2205,2773,2019-08-07 16:52:39:537
-5.2172,-10.6821,4.1039,0.0737,2.8383,-1.2307,-0.5161,-1.2437,-0.2536,2778,2019-08-07 16:52:39:542
-5.2172,-10.6821,4.1039,0.0737,2.8383,-1.2307,-0.5161,-1.2437,-0.2536,2783,2019-08-07 16:52:39:547
-5.2172,-10.6821,4.1039,0.0737,2.8383,-1.2307,-0.3967,-1.7583,-0.2802,2788,2019-08-07 16:52:39:552
-3.7389,-9.5889,3.4204,0.0737,2.8383,-1.2307,-0.3967,-1.7583,-0.2802,2793,2019-08-07 16:52:39:557
-3.7389,-9.5889,3.4204,-1.9439,1.4656,-0.1477,-0.3967,-1.7583,-0.2802,2797,2019-08-07 16:52:39:561
-2.0357,-9.0781,2.6898,-1.9439,1.4656,-0.1477,-0.3147,-1.8041,-0.2823,2803,2019-08-07 16:52:39:567
-2.0357,-9.0781,2.6898,-1.9439,1.4656,-0.1477,-0.3147,-1.8041,-0.2823,2808,2019-08-07 16:52:39:572
-2.0357,-9.0781,2.6898,-1.9439,1.4656,-0.1477,-0.2338,-1.4973,-0.2845,2813,2019-08-07 16:52:39:577
-1.0502,-8.7392,2.1571,-3.7768,0.7761,0.9291,-0.2338,-1.4973,-0.2845,2818,2019-08-07 16:52:39:582
-1.0502,-8.7392,2.1571,-3.7768,0.7761,0.9291,-0.1219,-0.7985,-0.31,2823,2019-08-07 16:52:39:587
-1.2129,-8.405,2.2042,-3.549,0.4143,0.9116,-0.1219,-0.7985,-0.31,2828,2019-08-07 16:52:39:592
-1.2129,-8.405,2.2042,-3.549,0.4143,0.9116,-0.0495,-0.2467,-0.3132,2833,2019-08-07 16:52:39:597
-1.2129,-8.405,2.2042,-3.549,0.4143,0.9116,-0.0495,-0.2467,-0.3132,2838,2019-08-07 16:52:39:602
-2.3276,-8.0279,2.7605,-3.549,0.4143,0.9116,-0.0495,-0.2467,-0.3132,2842,2019-08-07 16:52:39:606
-2.3276,-8.0279,2.7605,-2.0925,-0.0334,0.1617,0.0357,0.2476,-0.2876,2848,2019-08-07 16:52:39:612
-2.8635,-7.9754,3.2224,-2.0925,-0.0334,0.1617,0.0357,0.2476,-0.2876,2853,2019-08-07 16:52:39:617
-2.8635,-7.9754,3.2224,-2.0925,-0.0334,0.1617,0.1242,0.5278,-0.2504,2858,2019-08-07 16:52:39:622
-2.8635,-7.9754,3.2224,-2.0925,-0.0334,0.1617,0.1242,0.5278,-0.2504,2862,2019-08-07 16:52:39:626
-2.8635,-7.9754,3.2224,-2.0925,-0.0334,0.1617,0.1242,0.5278,-0.2504,2868,2019-08-07 16:52:39:632
-3.4976,-7.8849,3.2417,-1.1689,-0.17,-0.1469,0.154,0.6237,-0.2056,2873,2019-08-07 16:52:39:637
-3.4976,-7.8849,3.2417,-1.1689,-0.17,-0.1469,0.154,0.6237,-0.2056,2878,2019-08-07 16:52:39:642
-4.9855,-7.6987,3.8828,-1.1689,-0.17,-0.1469,0.1252,0.5672,-0.1396,2883,2019-08-07 16:52:39:647
-4.9855,-7.6987,3.8828,0.696,-0.3839,-1.1298,0.1252,0.5672,-0.1396,2888,2019-08-07 16:52:39:652
-4.9855,-7.6987,3.8828,0.696,-0.3839,-1.1298,0.1252,0.5672,-0.1396,2893,2019-08-07 16:52:39:657
-5.4592,-7.6366,4.3353,0.696,-0.3839,-1.1298,0.121,0.1166,-0.0298,2899,2019-08-07 16:52:39:663
-5.4592,-7.6366,4.3353,0.696,-0.3839,-1.1298,0.121,0.1166,-0.0298,2904,2019-08-07 16:52:39:668
-5.4592,-7.6366,4.3353,0.0786,-0.4386,-0.6317,0.1433,-0.4363,0.0564,2907,2019-08-07 16:52:39:671
-4.5023,-7.5794,3.5481,0.0786,-0.4386,-0.6317,0.1433,-0.4363,0.0564,2917,2019-08-07 16:52:39:681
-4.5023,-7.5794,3.5481,0.0786,-0.4386,-0.6317,0.1242,-0.6046,0.098,2918,2019-08-07 16:52:39:682
-3.0048,-7.7512,2.6666,0.0786,-0.4386,-0.6317,0.1242,-0.6046,0.098,2922,2019-08-07 16:52:39:686
-3.0048,-7.7512,2.6666,-2.142,-0.1728,0.8756,0.1242,-0.6046,0.098,2928,2019-08-07 16:52:39:692
-3.0048,-7.7512,2.6666,-2.142,-0.1728,0.8756,0.1295,-0.4235,0.0927,2933,2019-08-07 16:52:39:697
-2.0193,-8.0281,1.9784,-2.142,-0.1728,0.8756,0.1295,-0.4235,0.0927,2938,2019-08-07 16:52:39:702
-2.0193,-8.0281,1.9784,-2.142,-0.1728,0.8756,0.1295,-0.4235,0.0927,2943,2019-08-07 16:52:39:707
-1.9283,-8.2286,1.5872,-2.7031,0.1975,1.62,0.1444,0.0484,0.0532,2947,2019-08-07 16:52:39:711
-1.9283,-8.2286,1.5872,-2.7031,0.1975,1.62,0.1444,0.0484,0.0532,2953,2019-08-07 16:52:39:717
-1.9283,-8.2286,1.5872,-2.7031,0.1975,1.62,0.1796,0.6056,0.0117,2958,2019-08-07 16:52:39:722
-2.2728,-8.2811,1.6909,-2.7031,0.1975,1.62,0.1796,0.6056,0.0117,2963,2019-08-07 16:52:39:727
-2.2728,-8.2811,1.6909,-2.0464,0.2069,1.4242,0.2222,0.9805,-0.0235,2968,2019-08-07 16:52:39:732
-2.9569,-8.157,1.8606,-2.0464,0.2069,1.4242,0.2222,0.9805,-0.0235,2972,2019-08-07 16:52:39:736
-2.9569,-8.157,1.8606,-2.0464,0.2069,1.4242,0.2541,1.2341,-0.049,2978,2019-08-07 16:52:39:742
-2.9569,-8.157,1.8606,-2.0464,0.2069,1.4242,0.2541,1.2341,-0.049,2983,2019-08-07 16:52:39:747
-3.9951,-8.0663,2.2565,-0.5019,0.0397,0.5921,0.2541,1.2341,-0.049,2987,2019-08-07 16:52:39:751
-3.9951,-8.0663,2.2565,-0.5019,0.0397,0.5921,0.2626,1.2905,-0.0469,2993,2019-08-07 16:52:39:757
-5.2629,-7.9899,3.1757,-0.5019,0.0397,0.5921,0.2626,1.2905,-0.0469,2998,2019-08-07 16:52:39:762
-5.2629,-7.9899,3.1757,-0.5019,0.0397,0.5921,0.2509,1.0711,-0.0288,3003,2019-08-07 16:52:39:767
-5.2629,-7.9899,3.1757,-0.5019,0.0397,0.5921,0.2509,1.0711,-0.0288,3007,2019-08-07 16:52:39:771
-5.9949,-7.8849,3.8875,1.2049,-0.1271,-0.8709,0.2307,0.6599,0.0042,3013,2019-08-07 16:52:39:777
-5.9949,-7.8849,3.8875,1.2049,-0.1271,-0.8709,0.2307,0.6599,0.0042,3018,2019-08-07 16:52:39:782
-5.9949,-7.8849,3.8875,1.2049,-0.1271,-0.8709,0.2307,0.6599,0.0042,3023,2019-08-07 16:52:39:787
-5.9949,-7.8849,3.8875,1.2049,-0.1271,-0.8709,0.2307,0.6599,0.0042,3028,2019-08-07 16:52:39:792
-6.0906,-7.8467,4.0148,1.2594,-0.1121,-0.9449,0.2136,0.4159,0.017,3032,2019-08-07 16:52:39:796
-6.0906,-7.8467,4.0148,1.2594,-0.1121,-0.9449,0.1455,-0.4448,0.0245,3038,2019-08-07 16:52:39:802
-4.6122,-8.0615,3.0249,1.2594,-0.1121,-0.9449,0.1455,-0.4448,0.0245,3043,2019-08-07 16:52:39:807
-4.6122,-8.0615,3.0249,1.2594,-0.1121,-0.9449,0.1455,-0.4448,0.0245,3047,2019-08-07 16:52:39:811
-4.6122,-8.0615,3.0249,-0.795,0.1189,0.4213,0.1337,-0.5172,0.0213,3053,2019-08-07 16:52:39:817
-3.5788,-8.157,2.4734,-0.795,0.1189,0.4213,0.1337,-0.5172,0.0213,3057,2019-08-07 16:52:39:821
-3.5788,-8.157,2.4734,-1.4851,0.1875,0.7835,0.1337,-0.3958,-0.0021,3063,2019-08-07 16:52:39:827
-3.0573,-8.1284,2.1858,-1.4851,0.1875,0.7835,0.1337,-0.3958,-0.0021,3068,2019-08-07 16:52:39:832
-3.0573,-8.1284,2.1858,-1.4851,0.1875,0.7835,0.1561,-0.0592,-0.0394,3072,2019-08-07 16:52:39:836
-3.0573,-8.1284,2.1858,-1.4851,0.1875,0.7835,0.1561,-0.0592,-0.0394,3078,2019-08-07 16:52:39:842
-2.8564,-8.0281,2.2094,-1.8989,0.0471,0.9413,0.1785,0.2466,-0.0554,3085,2019-08-07 16:52:39:849
-2.8564,-8.0281,2.2094,-1.8989,0.0471,0.9413,0.1785,0.2466,-0.0554,3087,2019-08-07 16:52:39:851
-2.8564,-8.0281,2.2094,-1.8989,0.0471,0.9413,0.1785,0.2466,-0.0554,3093,2019-08-07 16:52:39:857
-3.1387,-7.8753,2.4404,-1.8989,0.0471,0.9413,0.1987,0.531,-0.0661,3098,2019-08-07 16:52:39:862
-3.1387,-7.8753,2.4404,-1.3174,-0.1831,0.4141,0.1987,0.531,-0.0661,3102,2019-08-07 16:52:39:866
-3.1387,-7.8753,2.4404,-1.3174,-0.1831,0.4141,0.2168,0.808,-0.0746,3108,2019-08-07 16:52:39:872
-4.0094,-7.6987,3.1663,-1.3174,-0.1831,0.4141,0.2168,0.808,-0.0746,3113,2019-08-07 16:52:39:877
-4.0094,-7.6987,3.1663,-1.3174,-0.1831,0.4141,0.2158,0.8314,-0.0661,3118,2019-08-07 16:52:39:882
-4.6935,-7.5555,3.5906,-0.2899,-0.3547,-0.3709,0.2158,0.8314,-0.0661,3124,2019-08-07 16:52:39:888
-4.6935,-7.5555,3.5906,-0.2899,-0.3547,-0.3709,0.2041,0.7717,-0.049,3128,2019-08-07 16:52:39:892
-4.6935,-7.5555,3.5906,-0.2899,-0.3547,-0.3709,0.2041,0.7717,-0.049,3133,2019-08-07 16:52:39:897
-5.0093,-7.6223,3.7084,-0.2899,-0.3547,-0.3709,0.1827,0.6471,-0.0298,3138,2019-08-07 16:52:39:902
-5.0093,-7.6223,3.7084,0.2538,-0.3779,-0.614,0.1827,0.6471,-0.0298,3142,2019-08-07 16:52:39:906
-5.0093,-7.6223,3.7084,0.2538,-0.3779,-0.614,0.1551,0.4916,-0.0128,3148,2019-08-07 16:52:39:912
-5.2389,-7.6271,3.6896,0.2538,-0.3779,-0.614,0.1551,0.4916,-0.0128,3153,2019-08-07 16:52:39:917
-5.2389,-7.6271,3.6896,0.2538,-0.3779,-0.614,0.1551,0.4916,-0.0128,3158,2019-08-07 16:52:39:922
-5.3202,-7.6176,3.6943,0.4387,-0.3848,-0.6682,0.1316,0.2679,0.0117,3163,2019-08-07 16:52:39:927
-5.3202,-7.6176,3.6943,0.4387,-0.3848,-0.6682,0.1316,0.2679,0.0117,3167,2019-08-07 16:52:39:931
-5.3202,-7.6176,3.6943,0.4387,-0.3848,-0.6682,0.1242,0.0964,0.0266,3173,2019-08-07 16:52:39:937
-4.9136,-7.5269,3.4303,0.4387,-0.3848,-0.6682,0.1242,0.0964,0.0266,3177,2019-08-07 16:52:39:941
-4.9136,-7.5269,3.4303,-0.1912,-0.3533,-0.2322,0.1124,-0.007,0.0224,3183,2019-08-07 16:52:39:947
-4.9136,-7.5269,3.4303,-0.1912,-0.3533,-0.2322,0.1124,-0.007,0.0224,3188,2019-08-07 16:52:39:952
-4.3251,-7.4934,3.0155,-0.1912,-0.3533,-0.2322,0.1018,-0.0198,0.0117,3192,2019-08-07 16:52:39:956
-4.3251,-7.4934,3.0155,-0.1912,-0.3533,-0.2322,0.1018,-0.0198,0.0117,3198,2019-08-07 16:52:39:962
-4.3251,-7.4934,3.0155,-0.7887,-0.4895,0.1687,0.0933,0.0388,0.0096,3202,2019-08-07 16:52:39:966
-4.0763,-7.4887,2.8269,-0.7887,-0.4895,0.1687,0.0933,0.0388,0.0096,3208,2019-08-07 16:52:39:972
-4.0763,-7.4887,2.8269,-0.7887,-0.4895,0.1687,0.0922,0.1155,0.0149,3213,2019-08-07 16:52:39:977
-3.8514,-7.4982,2.827,-0.7887,-0.4895,0.1687,0.0922,0.1155,0.0149,3218,2019-08-07 16:52:39:982
-3.8514,-7.4982,2.827,-0.977,-0.4182,0.2641,0.0911,0.2721,0.017,3223,2019-08-07 16:52:39:987
-3.8514,-7.4982,2.827,-0.977,-0.4182,0.2641,0.0911,0.2721,0.017,3228,2019-08-07 16:52:39:992
-4.0093,-7.5221,2.8552,-0.8861,-0.4062,0.213,0.0943,0.4063,0.0213,3233,2019-08-07 16:52:39:997
-4.0093,-7.5221,2.8552,-0.8861,-0.4062,0.213,0.0943,0.4063,0.0213,3238,2019-08-07 16:52:40:002
-4.0093,-7.5221,2.8552,-0.8861,-0.4062,0.213,0.0954,0.4852,0.0266,3243,2019-08-07 16:52:40:007
-4.2533,-7.46,2.8505,-0.8861,-0.4062,0.213,0.0954,0.4852,0.0266,3248,2019-08-07 16:52:40:012
-4.2533,-7.46,2.8505,-0.5934,-0.4325,0.1834,0.0954,0.4852,0.0266,3252,2019-08-07 16:52:40:016
-4.2533,-7.46,2.8505,-0.5934,-0.4325,0.1834,0.0805,0.6151,0.0341,3258,2019-08-07 16:52:40:022
-4.4973,-7.4744,2.7374,-0.5934,-0.4325,0.1834,0.0805,0.6151,0.0341,3262,2019-08-07 16:52:40:026
-4.4973,-7.4744,2.7374,-0.5934,-0.4325,0.1834,0.0688,0.6673,0.033,3268,2019-08-07 16:52:40:032
-4.6503,-7.5603,2.7044,-0.3214,-0.354,0.2758,0.0688,0.6673,0.033,3272,2019-08-07 16:52:40:036
-4.6503,-7.5603,2.7044,-0.3214,-0.354,0.2758,0.056,0.6972,0.0319,3278,2019-08-07 16:52:40:042
-4.6503,-7.5603,2.7044,-0.3214,-0.354,0.2758,0.056,0.6972,0.0319,3282,2019-08-07 16:52:40:046
-4.8561,-7.5412,2.7704,-0.3214,-0.354,0.2758,0.0517,0.6695,0.0351,3288,2019-08-07 16:52:40:052
-4.8561,-7.5412,2.7704,0.0193,-0.3423,0.017,0.0517,0.6695,0.0351,3293,2019-08-07 16:52:40:057
-4.9757,-7.5507,2.8647,0.0193,-0.3423,0.017,0.0528,0.613,0.0479,3298,2019-08-07 16:52:40:062
-4.9757,-7.5507,2.8647,0.0193,-0.3423,0.017,0.0528,0.613,0.0479,3303,2019-08-07 16:52:40:067
-4.9757,-7.5507,2.8647,0.0193,-0.3423,0.017,0.0528,0.613,0.0479,3308,2019-08-07 16:52:40:072
-5.0331,-7.5316,2.9448,-0.077,-0.3373,-0.0559,0.0613,0.5033,0.0682,3313,2019-08-07 16:52:40:077
-5.0331,-7.5316,2.9448,-0.077,-0.3373,-0.0559,0.0613,0.5033,0.0682,3317,2019-08-07 16:52:40:081
-5.0235,-7.5173,2.9024,-0.077,-0.3373,-0.0559,0.0602,0.4213,0.0873,3323,2019-08-07 16:52:40:087
-5.0235,-7.5173,2.9024,-0.077,-0.3373,-0.0559,0.0602,0.4213,0.0873,3328,2019-08-07 16:52:40:092
-5.0235,-7.5173,2.9024,-0.0636,-0.3474,-0.0546,0.0613,0.3552,0.1065,3333,2019-08-07 16:52:40:097
-5.057,-7.5269,2.9401,-0.0636,-0.3474,-0.0546,0.0613,0.3552,0.1065,3338,2019-08-07 16:52:40:102
-5.057,-7.5269,2.9401,-0.0636,-0.3474,-0.0546,0.0517,0.2838,0.1225,3343,2019-08-07 16:52:40:107
-5.0809,-7.5651,2.9401,-0.0636,-0.3474,-0.0546,0.0517,0.2838,0.1225,3349,2019-08-07 16:52:40:113
-5.0809,-7.5651,2.9401,-0.0141,-0.2975,-0.1456,0.0475,0.2306,0.1289,3353,2019-08-07 16:52:40:117
-5.0809,-7.5651,2.9401,-0.0141,-0.2975,-0.1456,0.0475,0.2306,0.1289,3358,2019-08-07 16:52:40:122
-5.0761,-7.6033,2.8741,-0.0141,-0.2975,-0.1456,0.0432,0.1954,0.1342,3363,2019-08-07 16:52:40:127
-5.0761,-7.6033,2.8741,-0.0141,-0.2975,-0.1456,0.0432,0.1954,0.1342,3368,2019-08-07 16:52:40:132
-5.0856,-7.6415,2.7845,-0.0857,-0.2088,0.0201,0.0389,0.1816,0.1331,3372,2019-08-07 16:52:40:136
-5.0856,-7.6415,2.7845,-0.0857,-0.2088,0.0201,0.0389,0.1816,0.1331,3378,2019-08-07 16:52:40:142
-5.0856,-7.6415,2.7845,-0.0857,-0.2088,0.0201,0.0389,0.1816,0.1331,3382,2019-08-07 16:52:40:146
-5.0139,-7.7465,2.6007,-0.0857,-0.2088,0.0201,0.0336,0.1869,0.1257,3388,2019-08-07 16:52:40:152
-5.0139,-7.7465,2.6007,-0.0857,-0.2088,0.0201,0.0336,0.1869,0.1257,3393,2019-08-07 16:52:40:157
-5.0139,-7.7465,2.6007,-0.226,-0.0508,0.2506,0.0389,0.1944,0.1076,3398,2019-08-07 16:52:40:162
-5.0665,-7.799,2.5536,-0.226,-0.0508,0.2506,0.0389,0.1944,0.1076,3402,2019-08-07 16:52:40:166
-5.0665,-7.799,2.5536,-0.226,-0.0508,0.2506,0.0464,0.1912,0.098,3408,2019-08-07 16:52:40:172
-5.0378,-7.7942,2.6243,-0.226,-0.0508,0.2506,0.0464,0.1912,0.098,3412,2019-08-07 16:52:40:176
-5.0378,-7.7942,2.6243,-0.199,-0.015,0.2647,0.0517,0.1688,0.0831,3418,2019-08-07 16:52:40:182
-5.0378,-7.7942,2.6243,-0.199,-0.015,0.2647,0.0517,0.1688,0.0831,3422,2019-08-07 16:52:40:186
-4.9899,-7.7799,2.5583,-0.199,-0.015,0.2647,0.0677,0.1422,0.0714,3428,2019-08-07 16:52:40:192
-4.9899,-7.7799,2.5583,-0.199,-0.015,0.2647,0.0677,0.1422,0.0714,3433,2019-08-07 16:52:40:197
-4.9756,-7.6892,2.5347,-0.2852,-0.0762,0.2623,0.0677,0.1422,0.0714,3438,2019-08-07 16:52:40:202
-4.9756,-7.6892,2.5347,-0.2852,-0.0762,0.2623,0.0709,0.1262,0.0618,3443,2019-08-07 16:52:40:207
-4.9755,-7.6796,2.629,-0.2852,-0.0762,0.2623,0.0666,0.1081,0.0628,3448,2019-08-07 16:52:40:212
-4.9755,-7.6796,2.629,-0.2852,-0.0762,0.2623,0.0666,0.1081,0.0628,3452,2019-08-07 16:52:40:216
-4.9755,-7.6796,2.629,-0.2293,-0.1477,0.1182,0.0666,0.1081,0.0628,3458,2019-08-07 16:52:40:222
-5.033,-7.5985,2.662,-0.2293,-0.1477,0.1182,0.056,0.0974,0.0586,3463,2019-08-07 16:52:40:227
-5.033,-7.5985,2.662,-0.2293,-0.1477,0.1182,0.056,0.0974,0.0586,3468,2019-08-07 16:52:40:232
-5.0664,-7.6415,2.6526,-0.2293,-0.1477,0.1182,0.0464,0.0761,0.049,3473,2019-08-07 16:52:40:237
-5.0664,-7.6415,2.6526,-0.2088,-0.2157,0.1171,0.0464,0.0761,0.049,3478,2019-08-07 16:52:40:242
-5.0664,-7.6415,2.6526,-0.2088,-0.2157,0.1171,0.0315,0.0516,0.0373,3483,2019-08-07 16:52:40:247
-5.119,-7.5889,2.6479,-0.2088,-0.2157,0.1171,0.0315,0.0516,0.0373,3488,2019-08-07 16:52:40:252
-5.119,-7.5889,2.6479,-0.2088,-0.2157,0.1171,0.0155,0.0165,0.0213,3493,2019-08-07 16:52:40:257
-4.9707,-7.4887,2.4593,-0.2496,-0.2968,0.2203,0.0155,0.0165,0.0213,3497,2019-08-07 16:52:40:261
-4.9707,-7.4887,2.4593,-0.2496,-0.2968,0.2203,0.0027,0.0111,0.0202,3502,2019-08-07 16:52:40:266
-4.9707,-7.4887,2.4593,-0.2496,-0.2968,0.2203,0.0027,0.0111,0.0202,3508,2019-08-07 16:52:40:272
-4.7219,-7.4553,2.3556,-0.2496,-0.2968,0.2203,-0.0069,0.0442,0.016,3513,2019-08-07 16:52:40:277
-4.7219,-7.4553,2.3556,-0.6637,-0.3345,0.476,-0.0069,0.0442,0.016,3518,2019-08-07 16:52:40:282
-4.4397,-7.4648,2.1953,-0.6637,-0.3345,0.476,-0.0069,0.0442,0.016,3523,2019-08-07 16:52:40:287
-4.4397,-7.4648,2.1953,-0.6637,-0.3345,0.476,-0.0111,0.1336,0.0149,3528,2019-08-07 16:52:40:292
-4.4397,-7.4648,2.1953,-0.6637,-0.3345,0.476,-0.0111,0.1336,0.0149,3533,2019-08-07 16:52:40:297
-4.3153,-7.4123,2.1482,-1.0238,-0.3701,0.6136,-0.0037,0.2572,0.033,3538,2019-08-07 16:52:40:302
-4.3153,-7.4123,2.1482,-1.0238,-0.3701,0.6136,-0.0037,0.2572,0.033,3542,2019-08-07 16:52:40:306
-4.2818,-7.4553,2.1529,-1.0238,-0.3701,0.6136,0.0102,0.368,0.0532,3548,2019-08-07 16:52:40:312
-4.2818,-7.4553,2.1529,-1.0238,-0.3701,0.6136,0.0102,0.368,0.0532,3553,2019-08-07 16:52:40:317
-4.2818,-7.4553,2.1529,-0.9203,-0.4212,0.3932,0.0102,0.368,0.0532,3558,2019-08-07 16:52:40:322
-4.5305,-7.4075,2.3462,-0.9203,-0.4212,0.3932,0.0262,0.4564,0.0692,3565,2019-08-07 16:52:40:329
-4.5305,-7.4075,2.3462,-0.9203,-0.4212,0.3932,0.0262,0.4564,0.0692,3568,2019-08-07 16:52:40:332
-4.8941,-7.4123,2.4876,-0.9203,-0.4212,0.3932,0.0389,0.4852,0.1033,3573,2019-08-07 16:52:40:337
-4.8941,-7.4123,2.4876,-0.3502,-0.4162,0.0831,0.0389,0.4852,0.1033,3578,2019-08-07 16:52:40:342
-4.8941,-7.4123,2.4876,-0.3502,-0.4162,0.0831,0.0496,0.4415,0.1268,3582,2019-08-07 16:52:40:346
-5.296,-7.3932,2.6479,-0.3502,-0.4162,0.0831,0.0496,0.4415,0.1268,3588,2019-08-07 16:52:40:352
-5.296,-7.3932,2.6479,-0.3502,-0.4162,0.0831,0.056,0.3403,0.1555,3592,2019-08-07 16:52:40:356
-5.5495,-7.3694,2.728,0.06,-0.4307,-0.055,0.056,0.3403,0.1555,3598,2019-08-07 16:52:40:362
-5.5495,-7.3694,2.728,0.06,-0.4307,-0.055,0.0581,0.2093,0.1789,3603,2019-08-07 16:52:40:367
-5.5495,-7.3694,2.728,0.06,-0.4307,-0.055,0.0581,0.2093,0.1789,3608,2019-08-07 16:52:40:372
-5.5065,-7.3741,2.6196,0.06,-0.4307,-0.055,0.0538,0.091,0.1885,3613,2019-08-07 16:52:40:377
-5.5065,-7.3741,2.6196,0.1642,-0.3345,0.0591,0.0538,0.091,0.1885,3619,2019-08-07 16:52:40:383
-5.5065,-7.3741,2.6196,0.1642,-0.3345,0.0591,0.0517,0.0079,0.1896,3623,2019-08-07 16:52:40:387
-5.5065,-7.3741,2.5678,0.1642,-0.3345,0.0591,0.0517,0.0079,0.1896,3628,2019-08-07 16:52:40:392
-5.5065,-7.3741,2.5678,0.1642,-0.3345,0.0591,0.0475,-0.0421,0.1971,3633,2019-08-07 16:52:40:397
-5.3199,-7.4362,2.3698,-0.1445,-0.2762,0.2561,0.0475,-0.0421,0.1971,3638,2019-08-07 16:52:40:402
-5.3199,-7.4362,2.3698,-0.1445,-0.2762,0.2561,0.0432,-0.0347,0.1875,3643,2019-08-07 16:52:40:407
-5.3199,-7.4362,2.3698,-0.1445,-0.2762,0.2561,0.0432,-0.0347,0.1875,3648,2019-08-07 16:52:40:412
-5.205,-7.4983,2.3085,-0.1445,-0.2762,0.2561,0.0538,0.0207,0.1715,3652,2019-08-07 16:52:40:416
-5.205,-7.4983,2.3085,-0.306,-0.1683,0.3339,0.0538,0.0207,0.1715,3658,2019-08-07 16:52:40:422
-5.2146,-7.546,2.2802,-0.306,-0.1683,0.3339,0.0517,0.0825,0.163,3663,2019-08-07 16:52:40:427
-5.2146,-7.546,2.2802,-0.306,-0.1683,0.3339,0.0517,0.0825,0.163,3667,2019-08-07 16:52:40:431
-5.2146,-7.546,2.2802,-0.306,-0.1683,0.3339,0.0517,0.0825,0.163,3673,2019-08-07 16:52:40:437
-5.2146,-7.5842,2.3839,-0.306,-0.1683,0.2397,0.0517,0.123,0.1566,3677,2019-08-07 16:52:40:441
-5.2146,-7.5842,2.3839,-0.3256,-0.063,0.2397,0.0517,0.123,0.1566,3683,2019-08-07 16:52:40:447
-5.2146,-7.5842,2.3839,-0.3256,-0.063,0.2397,0.0677,0.1699,0.1427,3688,2019-08-07 16:52:40:452
-5.2146,-7.5508,2.4876,-0.3256,-0.063,0.2397,0.0677,0.1699,0.1427,3693,2019-08-07 16:52:40:457
-5.2146,-7.5508,2.4876,-0.2649,-0.1255,0.0845,0.0698,0.1826,0.1385,3697,2019-08-07 16:52:40:461
-5.3438,-7.5221,2.5819,-0.2649,-0.1255,0.0845,0.0698,0.1826,0.1385,3703,2019-08-07 16:52:40:467
-5.3438,-7.5221,2.5819,-0.2649,-0.1255,0.0845,0.0698,0.1826,0.1385,3707,2019-08-07 16:52:40:471
-5.3438,-7.5221,2.5819,-0.2559,-0.1354,0.0231,0.0634,0.1773,0.1331,3713,2019-08-07 16:52:40:477
-5.3677,-7.5364,2.6432,-0.2559,-0.1354,0.0231,0.0634,0.1773,0.1331,3718,2019-08-07 16:52:40:482
-5.3677,-7.5364,2.6432,-0.2559,-0.1354,0.0231,0.0613,0.1667,0.1172,3722,2019-08-07 16:52:40:486
-5.5303,-7.4648,2.7987,-0.063,-0.1614,-0.1926,0.0613,0.1667,0.1172,3728,2019-08-07 16:52:40:492
-5.5303,-7.4648,2.7987,-0.063,-0.1614,-0.1926,0.0613,0.1283,0.1086,3732,2019-08-07 16:52:40:496
-5.5303,-7.4648,2.7987,-0.063,-0.1614,-0.1926,0.0613,0.1283,0.1086,3738,2019-08-07 16:52:40:502
-5.516,-7.4362,2.794,-0.063,-0.1614,-0.1926,0.0517,0.0687,0.1086,3742,2019-08-07 16:52:40:506
-5.516,-7.4362,2.794,-0.2323,-0.1079,-0.094,0.0517,0.0687,0.1086,3748,2019-08-07 16:52:40:512
-5.3533,-7.4648,2.6573,-0.2323,-0.1079,-0.094,0.0517,0.0303,0.0969,3753,2019-08-07 16:52:40:517
-5.3533,-7.4648,2.6573,-0.2323,-0.1079,-0.094,0.0517,0.0303,0.0969,3758,2019-08-07 16:52:40:522
-5.3533,-7.4648,2.6573,-0.2323,-0.1079,-0.094,0.056,0.026,0.0916,3763,2019-08-07 16:52:40:527
-5.2767,-7.4362,2.6903,-0.357,-0.1475,-0.0171,0.056,0.026,0.0916,3768,2019-08-07 16:52:40:532
-5.2767,-7.4362,2.6903,-0.357,-0.1475,-0.0171,0.057,0.026,0.0969,3773,2019-08-07 16:52:40:537
-5.2767,-7.4362,2.6903,-0.357,-0.1475,-0.0171,0.057,0.026,0.0969,3777,2019-08-07 16:52:40:541
-5.1667,-7.4458,2.5631,-0.357,-0.1475,-0.0171,0.057,0.026,0.0969,3783,2019-08-07 16:52:40:547
-5.1667,-7.4458,2.5631,-0.5337,-0.1543,0.1154,0.0538,0.0474,0.0873,3788,2019-08-07 16:52:40:552
-5.1762,-7.4648,2.4688,-0.5337,-0.1543,0.1154,0.0538,0.0474,0.0873,3793,2019-08-07 16:52:40:557
-5.1762,-7.4648,2.4688,-0.5337,-0.1543,0.1154,0.0602,0.0964,0.0746,3797,2019-08-07 16:52:40:561
-5.1762,-7.4648,2.4688,-0.5337,-0.1543,0.1154,0.0602,0.0964,0.0746,3803,2019-08-07 16:52:40:567
-5.3341,-7.3503,2.5395,-0.5337,-0.1543,0.1154,0.073,0.14,0.0714,3808,2019-08-07 16:52:40:572
-5.3341,-7.3503,2.5395,-0.2819,-0.2195,-0.0049,0.073,0.14,0.0714,3813,2019-08-07 16:52:40:577
-5.3341,-7.3503,2.5395,-0.2819,-0.2195,-0.0049,0.072,0.1315,0.0724,3818,2019-08-07 16:52:40:582
-5.492,-7.2978,2.6432,-0.2819,-0.2195,-0.0049,0.072,0.1315,0.0724,3822,2019-08-07 16:52:40:586
-5.492,-7.2978,2.6432,-0.2819,-0.2195,-0.0049,0.0666,0.1027,0.0724,3828,2019-08-07 16:52:40:592
-5.5877,-7.2739,2.6668,-0.1034,-0.25,-0.0872,0.0666,0.1027,0.0724,3832,2019-08-07 16:52:40:596
-5.5877,-7.2739,2.6668,-0.1034,-0.25,-0.0872,0.0592,0.0516,0.0639,3838,2019-08-07 16:52:40:602
-5.5877,-7.2739,2.6668,-0.1034,-0.25,-0.0872,0.0592,0.0516,0.0639,3842,2019-08-07 16:52:40:606
-5.5876,-7.2739,2.6951,-0.1034,-0.25,-0.0872,0.0592,0.0516,0.0639,3848,2019-08-07 16:52:40:612
-5.5876,-7.2739,2.6951,-0.0687,-0.3388,-0.0022,0.0634,0.0133,0.0639,3852,2019-08-07 16:52:40:616
-5.5876,-7.2739,2.6951,-0.0687,-0.3388,-0.0022,0.0634,0.0133,0.0639,3858,2019-08-07 16:52:40:622
-5.4824,-7.293,2.5159,-0.0687,-0.3388,-0.0022,0.0475,-0.0208,0.0628,3862,2019-08-07 16:52:40:626
-5.4824,-7.293,2.5159,-0.0687,-0.3388,-0.0022,0.0475,-0.0208,0.0628,3868,2019-08-07 16:52:40:632
-5.3733,-7.2643,2.3649,-0.3009,-0.2102,0.2566,0.0347,-0.0315,0.0607,3872,2019-08-07 16:52:40:636
-5.3733,-7.2643,2.3649,-0.3009,-0.2102,0.2566,0.0347,-0.0315,0.0607,3877,2019-08-07 16:52:40:641
-5.3733,-7.2643,2.3649,-0.3009,-0.2102,0.2566,0.0347,-0.0315,0.0607,3883,2019-08-07 16:52:40:647
-5.3063,-7.2547,2.3225,-0.3009,-0.2102,0.2566,0.0347,-0.0102,0.0745,3887,2019-08-07 16:52:40:651
-5.3063,-7.2547,2.3225,-0.4821,-0.268,0.3005,0.0347,-0.0102,0.0745,3893,2019-08-07 16:52:40:657
-5.1963,-7.2165,2.3649,-0.4821,-0.268,0.3005,0.04,0.0346,0.0916,3898,2019-08-07 16:52:40:662
-5.1963,-7.2165,2.3649,-0.4821,-0.268,0.3005,0.04,0.0346,0.0916,3903,2019-08-07 16:52:40:667
-5.1963,-7.2165,2.3649,-0.4821,-0.268,0.3005,0.04,0.0346,0.0916,3908,2019-08-07 16:52:40:672
-5.2154,-7.1831,2.3319,-0.507,-0.3375,0.3007,0.0379,0.0591,0.1108,3913,2019-08-07 16:52:40:677
-5.2154,-7.1831,2.3319,-0.507,-0.3375,0.3007,0.0379,0.0591,0.1108,3918,2019-08-07 16:52:40:682
-5.2776,-7.1115,2.3366,-0.507,-0.3375,0.3007,0.0389,0.0804,0.1385,3923,2019-08-07 16:52:40:687
-5.2776,-7.1115,2.3366,-0.507,-0.3375,0.3007,0.0389,0.0804,0.1385,3928,2019-08-07 16:52:40:692
-5.2776,-7.1115,2.3366,-0.3587,-0.4447,0.2119,0.04,0.0793,0.1587,3933,2019-08-07 16:52:40:697
-5.469,-7.0829,2.3508,-0.3587,-0.4447,0.2119,0.04,0.0793,0.1587,3938,2019-08-07 16:52:40:702
-5.469,-7.0829,2.3508,-0.2921,-0.3529,0.2338,0.0336,0.0537,0.1789,3942,2019-08-07 16:52:40:706
-5.4977,-7.1497,2.4167,-0.2921,-0.3529,0.2338,0.0336,0.0537,0.1789,3948,2019-08-07 16:52:40:712
-5.4977,-7.1497,2.4167,-0.2921,-0.3529,0.2338,0.0315,0.0261,0.1832,3953,2019-08-07 16:52:40:717
-5.4977,-7.1497,2.4167,-0.2921,-0.3529,0.2338,0.0315,0.0261,0.1832,3958,2019-08-07 16:52:40:722
-5.5599,-7.1115,2.3413,-0.2312,-0.3583,0.2856,0.0294,-0.0038,0.1843,3963,2019-08-07 16:52:40:727
-5.5599,-7.1115,2.3413,-0.2312,-0.3583,0.2856,0.0294,-0.0038,0.1843,3968,2019-08-07 16:52:40:732
-5.5599,-7.1115,2.3413,-0.2312,-0.3583,0.2856,0.0294,-0.0038,0.1843,3973,2019-08-07 16:52:40:737
-5.4833,-7.164,2.2848,-0.2312,-0.3583,0.2856,0.023,-0.0134,0.1896,3977,2019-08-07 16:52:40:741
-5.4833,-7.164,2.2848,-0.3549,-0.2686,0.3595,0.023,-0.0134,0.1896,3983,2019-08-07 16:52:40:747
-5.4307,-7.2022,2.2659,-0.3549,-0.2686,0.3595,0.0294,0.0016,0.1811,3988,2019-08-07 16:52:40:752
-5.4307,-7.2022,2.2659,-0.3549,-0.2686,0.3595,0.0294,0.0016,0.1811,3992,2019-08-07 16:52:40:756
-5.4307,-7.2022,2.2659,-0.3549,-0.2686,0.3595,0.0368,0.0303,0.1736,3998,2019-08-07 16:52:40:762
-5.4211,-7.2165,2.3178,-0.4245,-0.1757,0.3843,0.0368,0.0303,0.1736,4004,2019-08-07 16:52:40:768
-5.4211,-7.2165,2.3178,-0.4245,-0.1757,0.3843,0.0357,0.042,0.1694,4008,2019-08-07 16:52:40:772
-5.3589,-7.3168,2.2942,-0.4245,-0.1757,0.3843,0.0357,0.042,0.1694,4014,2019-08-07 16:52:40:778
-5.3589,-7.3168,2.2942,-0.4245,-0.1757,0.3843,0.04,0.0751,0.1523,4018,2019-08-07 16:52:40:782
-5.3589,-7.3168,2.2942,-0.4695,-0.185,0.2684,0.04,0.0751,0.1523,4023,2019-08-07 16:52:40:787
-5.4116,-7.2261,2.3366,-0.4695,-0.185,0.2684,0.0464,0.1134,0.1406,4028,2019-08-07 16:52:40:792
-5.4116,-7.2261,2.3366,-0.4695,-0.185,0.2684,0.0464,0.1134,0.1406,4032,2019-08-07 16:52:40:796
-5.4116,-7.2261,2.3366,-0.4695,-0.185,0.2684,0.0464,0.1134,0.1406,4038,2019-08-07 16:52:40:802
-5.5408,-7.207,2.4356,-0.3856,-0.2435,0.147,0.0507,0.1368,0.1342,4043,2019-08-07 16:52:40:807
-5.5408,-7.207,2.4356,-0.3856,-0.2435,0.147,0.0507,0.1368,0.1342,4048,2019-08-07 16:52:40:812
-5.6412,-7.0733,2.5487,-0.3856,-0.2435,0.147,0.057,0.1336,0.1299,4053,2019-08-07 16:52:40:817
-5.6412,-7.0733,2.5487,-0.3856,-0.2435,0.147,0.057,0.1336,0.1299,4058,2019-08-07 16:52:40:822
-5.646,-7.0733,2.5817,-0.2586,-0.2965,0.0368,0.0581,0.1059,0.1299,4065,2019-08-07 16:52:40:829
-5.646,-7.0733,2.5817,-0.2586,-0.2965,0.0368,0.0581,0.1059,0.1299,4067,2019-08-07 16:52:40:831
-5.646,-7.0733,2.5817,-0.2586,-0.2965,0.0368,0.0517,0.0708,0.1225,4073,2019-08-07 16:52:40:837
-5.6412,-7.0733,2.5157,-0.2586,-0.2965,0.0368,0.0517,0.0708,0.1225,4078,2019-08-07 16:52:40:842
-5.6412,-7.0733,2.5157,-0.2586,-0.2965,0.0368,0.0517,0.0708,0.1225,4082,2019-08-07 16:52:40:846
-5.6412,-7.0733,2.5157,-0.3285,-0.2168,0.0881,0.0496,0.0527,0.1204,4088,2019-08-07 16:52:40:852
-5.5599,-7.1306,2.4592,-0.3285,-0.2168,0.0881,0.0496,0.0527,0.1204,4092,2019-08-07 16:52:40:856
-5.5599,-7.1306,2.4592,-0.3285,-0.2168,0.0881,0.0485,0.0495,0.1193,4098,2019-08-07 16:52:40:862
-5.5168,-7.1783,2.445,-0.4484,-0.1578,0.1689,0.0475,0.0633,0.1193,4103,2019-08-07 16:52:40:867
-5.5168,-7.1783,2.445,-0.4484,-0.1578,0.1689,0.0475,0.0633,0.1193,4108,2019-08-07 16:52:40:872
-5.5168,-7.1783,2.445,-0.4484,-0.1578,0.1689,0.0549,0.0836,0.1172,4113,2019-08-07 16:52:40:877
-5.536,-7.2165,2.4545,-0.4484,-0.1578,0.1689,0.0549,0.0836,0.1172,4117,2019-08-07 16:52:40:881
-5.536,-7.2165,2.4545,-0.4638,-0.1231,0.1855,0.0517,0.1049,0.1193,4123,2019-08-07 16:52:40:887
-5.536,-7.2165,2.4545,-0.4638,-0.1231,0.1855,0.0517,0.1049,0.1193,4128,2019-08-07 16:52:40:892
-5.536,-7.1545,2.4026,-0.4638,-0.1231,0.1855,0.0517,0.1049,0.1193,4132,2019-08-07 16:52:40:896
-5.536,-7.1545,2.4026,-0.4638,-0.1231,0.1855,0.0549,0.1219,0.1236,4138,2019-08-07 16:52:40:902
-5.4355,-7.2022,2.3225,-0.4638,-0.1231,0.1855,0.0549,0.1219,0.1236,4142,2019-08-07 16:52:40:906
-5.4355,-7.2022,2.3225,-0.5008,-0.0595,0.2909,0.056,0.1624,0.1236,4148,2019-08-07 16:52:40:912
-5.4355,-7.2022,2.3225,-0.5008,-0.0595,0.2909,0.056,0.1624,0.1236,4153,2019-08-07 16:52:40:917
-5.5982,-7.1783,2.3225,-0.5008,-0.0595,0.2909,0.0645,0.2008,0.1204,4158,2019-08-07 16:52:40:922
-5.5982,-7.1783,2.3225,-0.5008,-0.0595,0.2909,0.0645,0.2008,0.1204,4163,2019-08-07 16:52:40:927
-5.5982,-7.1783,2.3225,-0.3166,-0.129,0.1866,0.0698,0.2221,0.1246,4167,2019-08-07 16:52:40:931
-5.8278,-7.164,2.445,-0.3166,-0.129,0.1866,0.0698,0.2221,0.1246,4173,2019-08-07 16:52:40:937
-5.8278,-7.164,2.445,-0.1256,-0.1915,0.1024,0.0698,0.2221,0.1246,4177,2019-08-07 16:52:40:941
-6.1053,-7.0303,2.5864,-0.1256,-0.1915,0.1024,0.0698,0.2071,0.114,4183,2019-08-07 16:52:40:947
-6.1053,-7.0303,2.5864,-0.1256,-0.1915,0.1024,0.0698,0.2071,0.114,4188,2019-08-07 16:52:40:952
-6.1053,-7.0303,2.5864,-0.1256,-0.1915,0.1024,0.057,0.1528,0.114,4193,2019-08-07 16:52:40:957
-6.2201,-7.059,2.6053,0.1432,-0.2015,-0.0378,0.057,0.1528,0.114,4197,2019-08-07 16:52:40:961
-6.2201,-7.059,2.6053,0.1432,-0.2015,-0.0378,0.0528,0.1038,0.1044,4203,2019-08-07 16:52:40:967
-6.2201,-7.059,2.6053,0.1432,-0.2015,-0.0378,0.0528,0.1038,0.1044,4208,2019-08-07 16:52:40:972
-6.1388,-7.0828,2.5063,0.1432,-0.2015,-0.0378,0.0357,0.0261,0.0799,4214,2019-08-07 16:52:40:978
-6.1388,-7.0828,2.5063,-0.0471,-0.1726,0.0597,0.0357,0.0261,0.0799,4219,2019-08-07 16:52:40:983
-5.9953,-7.1258,2.412,-0.0471,-0.1726,0.0597,0.0208,-0.007,0.0607,4222,2019-08-07 16:52:40:986
-5.9953,-7.1258,2.412,-0.0471,-0.1726,0.0597,0.0208,-0.007,0.0607,4228,2019-08-07 16:52:40:992
-5.9953,-7.1258,2.412,-0.0471,-0.1726,0.0597,0.007,-0.0091,0.0351,4233,2019-08-07 16:52:40:997
-5.7848,-7.1926,2.3413,-0.3173,-0.0465,0.2269,0.007,-0.0091,0.0351,4238,2019-08-07 16:52:41:002
-5.7848,-7.1926,2.3413,-0.3173,-0.0465,0.2269,0.0038,0.0197,0.0192,4243,2019-08-07 16:52:41:007
-5.6939,-7.269,2.3272,-0.3173,-0.0465,0.2269,0.0038,0.0197,0.0192,4248,2019-08-07 16:52:41:012
-5.6939,-7.269,2.3272,-0.3173,-0.0465,0.2269,0.0038,0.0197,0.0192,4253,2019-08-07 16:52:41:017
-5.6939,-7.269,2.3272,-0.4874,-0.0408,0.2232,0.0059,0.0601,0.0096,4258,2019-08-07 16:52:41:022
-5.6365,-7.207,2.2989,-0.4874,-0.0408,0.2232,0.0059,0.0601,0.0096,4263,2019-08-07 16:52:41:027
-5.6365,-7.207,2.2989,-0.4874,-0.0408,0.2232,0.0038,0.0878,0.0117,4268,2019-08-07 16:52:41:032
-5.6365,-7.207,2.2989,-0.4874,-0.0408,0.2232,0.0038,0.0878,0.0117,4272,2019-08-07 16:52:41:036
-5.6652,-7.1401,2.3036,-0.4438,-0.0985,0.2494,0.0059,0.1113,0.0085,4278,2019-08-07 16:52:41:042
-5.6652,-7.1401,2.3036,-0.4438,-0.0985,0.2494,0.0059,0.1113,0.0085,4282,2019-08-07 16:52:41:046
-5.8374,-7.1354,2.2847,-0.4438,-0.0985,0.2494,0.0134,0.1187,0.0149,4288,2019-08-07 16:52:41:052
-5.8374,-7.1354,2.2847,-0.4438,-0.0985,0.2494,0.0134,0.1187,0.0149,4292,2019-08-07 16:52:41:056
-5.8374,-7.1354,2.2847,-0.1925,-0.1594,0.1042,0.0134,0.1187,0.0149,4298,2019-08-07 16:52:41:062
-5.981,-7.1067,2.4403,-0.1925,-0.1594,0.1042,0.0294,0.0846,0.0181,4303,2019-08-07 16:52:41:067
-5.981,-7.1067,2.4403,-0.1925,-0.1594,0.1042,0.0294,0.0846,0.0181,4307,2019-08-07 16:52:41:071
-5.981,-7.1067,2.4403,-0.1925,-0.1594,0.1042,0.0336,0.0506,0.0255,4313,2019-08-07 16:52:41:077
-5.9857,-6.9969,2.4073,-0.1085,-0.2172,0.1841,0.0336,0.0506,0.0255,4318,2019-08-07 16:52:41:082
-5.9857,-6.9969,2.4073,-0.1085,-0.2172,0.1841,0.0283,0.0175,0.0224,4322,2019-08-07 16:52:41:086
-5.8853,-7.0017,2.2706,-0.1085,-0.2172,0.1841,0.0283,0.0175,0.0224,4328,2019-08-07 16:52:41:092
-5.8853,-7.0017,2.2706,-0.1085,-0.2172,0.1841,0.0283,-0.0016,0.0202,4333,2019-08-07 16:52:41:097
-5.8327,-7.0542,2.2706,-0.2941,-0.1801,0.3034,0.0283,-0.0016,0.0202,4338,2019-08-07 16:52:41:102
-5.8327,-7.0542,2.2706,-0.2941,-0.1801,0.3034,0.0347,0.009,0.0181,4342,2019-08-07 16:52:41:106
-5.8327,-7.0542,2.2706,-0.2941,-0.1801,0.3034,0.0347,0.009,0.0181,4347,2019-08-07 16:52:41:111
-5.8327,-7.0542,2.2706,-0.2941,-0.1801,0.3034,0.0347,0.009,0.0181,4353,2019-08-07 16:52:41:117
-5.7896,-7.1019,2.2376,-0.3062,-0.0916,0.3236,0.0432,0.0324,0.0138,4358,2019-08-07 16:52:41:122
-5.7896,-7.1019,2.2376,-0.3062,-0.0916,0.3236,0.0432,0.0324,0.0138,4362,2019-08-07 16:52:41:126
-5.8374,-7.0638,2.2753,-0.3062,-0.0916,0.3236,0.0539,0.0782,0.0064,4368,2019-08-07 16:52:41:132
-5.8374,-7.0638,2.2753,-0.3062,-0.0916,0.3236,0.0539,0.0782,0.0064,4372,2019-08-07 16:52:41:136
-5.8374,-7.0638,2.2753,-0.2055,-0.165,0.2738,0.0634,0.0942,0.0053,4378,2019-08-07 16:52:41:142
-5.8614,-7.0828,2.2565,-0.2055,-0.165,0.2738,0.0634,0.0942,0.0053,4383,2019-08-07 16:52:41:147
-5.8614,-7.0828,2.2565,-0.2055,-0.165,0.2738,0.072,0.1017,0.0021,4388,2019-08-07 16:52:41:152
-5.9858,-6.9826,2.3649,-0.2055,-0.165,0.2738,0.072,0.1017,0.0021,4393,2019-08-07 16:52:41:157
-5.9858,-6.9826,2.3649,-0.2061,-0.2187,0.1908,0.0794,0.09,-0.0021,4397,2019-08-07 16:52:41:161
-5.9858,-6.9826,2.3649,-0.2061,-0.2187,0.1908,0.0794,0.09,-0.0021,4403,2019-08-07 16:52:41:167
-5.981,-6.9826,2.4356,-0.2061,-0.2187,0.1908,0.0794,0.09,-0.0021,4408,2019-08-07 16:52:41:172
-5.981,-6.9826,2.4356,-0.2061,-0.2187,0.1908,0.0826,0.0697,0.0053,4413,2019-08-07 16:52:41:177
-5.8853,-7.0065,2.5063,-0.2585,-0.2092,0.0285,0.0826,0.0697,0.0053,4418,2019-08-07 16:52:41:182
-5.8853,-7.0065,2.5063,-0.2585,-0.2092,0.0285,0.0879,0.0548,0.0096,4422,2019-08-07 16:52:41:186
-5.8853,-7.0065,2.5063,-0.2585,-0.2092,0.0285,0.0879,0.0548,0.0096,4428,2019-08-07 16:52:41:192
-5.9379,-6.9062,2.5299,-0.2585,-0.2092,0.0285,0.0847,0.0271,0.0202,4433,2019-08-07 16:52:41:197
-5.9379,-6.9062,2.5299,-0.2865,-0.2456,0.07,0.0847,0.0271,0.0202,4438,2019-08-07 16:52:41:202
-5.9379,-6.9062,2.5299,-0.2865,-0.2456,0.07,0.0826,0.0101,0.0266,4442,2019-08-07 16:52:41:206
-5.8231,-6.9635,2.4497,-0.2865,-0.2456,0.07,0.0826,0.0101,0.0266,4448,2019-08-07 16:52:41:212
-5.8231,-6.9635,2.4497,-0.2865,-0.2456,0.07,0.0762,0.0165,0.0255,4453,2019-08-07 16:52:41:217
-5.6796,-6.9635,2.3884,-0.4719,-0.1723,0.174,0.0762,0.0165,0.0255,4458,2019-08-07 16:52:41:222
-5.6796,-6.9635,2.3884,-0.4719,-0.1723,0.174,0.0773,0.0356,0.0287,4463,2019-08-07 16:52:41:227
-5.6796,-6.9635,2.3884,-0.4719,-0.1723,0.174,0.0773,0.0356,0.0287,4467,2019-08-07 16:52:41:231
-5.627,-7.0017,2.3649,-0.4719,-0.1723,0.174,0.0794,0.0676,0.0298,4473,2019-08-07 16:52:41:237
-5.627,-7.0017,2.3649,-0.4719,-0.1723,0.174,0.0794,0.0676,0.0298,4478,2019-08-07 16:52:41:242
-5.6844,-6.9587,2.4356,-0.5016,-0.2471,0.1968,0.0837,0.1059,0.0277,4483,2019-08-07 16:52:41:247
-5.6844,-6.9587,2.4356,-0.5016,-0.2471,0.1968,0.0837,0.1059,0.0277,4487,2019-08-07 16:52:41:251
-5.6844,-6.9587,2.4356,-0.5016,-0.2471,0.1968,0.089,0.1262,0.0255,4493,2019-08-07 16:52:41:257
-5.8518,-6.8823,2.5204,-0.5016,-0.2471,0.1968,0.089,0.1262,0.0255,4498,2019-08-07 16:52:41:262
-5.8518,-6.8823,2.5204,-0.2669,-0.3114,0.0533,0.0911,0.1177,0.0309,4503,2019-08-07 16:52:41:267
-5.8518,-6.8823,2.5204,-0.2669,-0.3114,0.0533,0.0911,0.1177,0.0309,4508,2019-08-07 16:52:41:272
-5.9714,-6.8632,2.6194,-0.2669,-0.3114,0.0533,0.0858,0.0921,0.0341,4513,2019-08-07 16:52:41:277
-5.9714,-6.8632,2.6194,-0.2669,-0.3114,0.0533,0.0858,0.0921,0.0341,4518,2019-08-07 16:52:41:282
-6.0097,-6.7869,2.6383,-0.177,-0.345,-0.0307,0.0858,0.0921,0.0341,4522,2019-08-07 16:52:41:286
-6.0097,-6.7869,2.6383,-0.177,-0.345,-0.0307,0.0805,0.0378,0.0469,4528,2019-08-07 16:52:41:292
-6.0097,-6.7869,2.6383,-0.177,-0.345,-0.0307,0.0805,0.0378,0.0469,4533,2019-08-07 16:52:41:297
-6.0049,-6.8298,2.7231,-0.177,-0.345,-0.0307,0.0741,-0.0155,0.0607,4539,2019-08-07 16:52:41:303
-6.0049,-6.8298,2.7231,-0.2479,-0.3289,0.0131,0.0741,-0.0155,0.0607,4542,2019-08-07 16:52:41:306
-5.8901,-6.8776,2.5157,-0.2479,-0.3289,0.0131,0.0698,-0.0432,0.0735,4548,2019-08-07 16:52:41:312
-5.8901,-6.8776,2.5157,-0.2479,-0.3289,0.0131,0.0698,-0.0432,0.0735,4553,2019-08-07 16:52:41:317
-5.8901,-6.8776,2.5157,-0.2479,-0.3289,0.0131,0.0666,-0.0475,0.0714,4558,2019-08-07 16:52:41:322
-5.871,-6.8394,2.4921,-0.3227,-0.3165,0.0901,0.0666,-0.0475,0.0714,4563,2019-08-07 16:52:41:327
-5.871,-6.8394,2.4921,-0.3227,-0.3165,0.0901,0.0485,-0.04,0.0767,4568,2019-08-07 16:52:41:332
-5.871,-6.8394,2.4921,-0.3227,-0.3165,0.0901,0.0485,-0.04,0.0767,4573,2019-08-07 16:52:41:337
-5.8231,-6.8967,2.3649,-0.3227,-0.3165,0.0901,0.0485,-0.04,0.0767,4578,2019-08-07 16:52:41:342
-5.8231,-6.8967,2.3649,-0.3791,-0.224,0.2047,0.0379,-0.0112,0.0682,4583,2019-08-07 16:52:41:347
-5.8231,-6.8967,2.3649,-0.3791,-0.224,0.2047,0.0379,-0.0112,0.0682,4588,2019-08-07 16:52:41:352
-5.8949,-6.8776,2.4026,-0.3118,-0.2626,0.1918,0.0272,0.0282,0.0554,4592,2019-08-07 16:52:41:356
-5.8949,-6.8776,2.4026,-0.3118,-0.2626,0.1918,0.0272,0.0282,0.0554,4598,2019-08-07 16:52:41:362
-5.8949,-6.8776,2.4026,-0.3118,-0.2626,0.1918,0.0187,0.0484,0.05,4602,2019-08-07 16:52:41:366
-5.914,-6.9921,2.3696,-0.3118,-0.2626,0.1918,0.0187,0.0484,0.05,4608,2019-08-07 16:52:41:372
-5.914,-6.9921,2.3696,-0.2965,-0.1657,0.1692,0.008,0.058,0.0351,4613,2019-08-07 16:52:41:377
-6.0528,-6.9492,2.4639,-0.2965,-0.1657,0.1692,0.008,0.058,0.0351,4618,2019-08-07 16:52:41:382
-6.0528,-6.9492,2.4639,-0.2965,-0.1657,0.1692,0.008,0.058,0.0351,4623,2019-08-07 16:52:41:387
-6.0528,-6.9492,2.4639,-0.2965,-0.1657,0.1692,-0.0037,0.0655,0.0202,4628,2019-08-07 16:52:41:392
-6.1054,-6.911,2.5251,-0.1168,-0.2202,0.0569,-0.009,0.0314,0.0138,4633,2019-08-07 16:52:41:397
-6.1054,-6.911,2.5251,-0.1168,-0.2202,0.0569,-0.009,0.0314,0.0138,4638,2019-08-07 16:52:41:402
-6.1054,-6.911,2.5251,-0.1168,-0.2202,0.0569,-0.0165,-0.0016,0.0096,4643,2019-08-07 16:52:41:407
-6.1198,-6.9253,2.4639,-0.1168,-0.2202,0.0569,-0.0165,-0.0016,0.0096,4648,2019-08-07 16:52:41:412
-6.1198,-6.9253,2.4639,-0.1475,-0.2385,0.1485,-0.0165,-0.0325,-0.0021,4653,2019-08-07 16:52:41:417
-6.1198,-6.9253,2.4639,-0.1475,-0.2385,0.1485,-0.0165,-0.0325,-0.0021,4658,2019-08-07 16:52:41:422
-6.0815,-6.8632,2.4874,-0.1475,-0.2385,0.1485,-0.0143,-0.04,-0.0107,4663,2019-08-07 16:52:41:427
-6.0815,-6.8632,2.4874,-0.1475,-0.2385,0.1485,-0.0143,-0.04,-0.0107,4668,2019-08-07 16:52:41:432
-6.0815,-6.8632,2.4874,-0.1546,-0.2782,0.2446,-0.0143,-0.04,-0.0107,4673,2019-08-07 16:52:41:437
-6.0241,-6.8823,2.3743,-0.1546,-0.2782,0.2446,-0.0228,-0.056,-0.0096,4677,2019-08-07 16:52:41:441
-6.0241,-6.8823,2.3743,-0.1546,-0.2782,0.2446,-0.0228,-0.056,-0.0096,4683,2019-08-07 16:52:41:447
-5.9093,-6.8298,2.3979,-0.1546,-0.2782,0.2446,-0.0282,-0.0645,-0.0256,4688,2019-08-07 16:52:41:452
-5.9093,-6.8298,2.3979,-0.2732,-0.2488,0.2004,-0.0282,-0.0645,-0.0256,4693,2019-08-07 16:52:41:457
-5.9093,-6.8298,2.3979,-0.2732,-0.2488,0.2004,-0.0271,-0.0517,-0.0298,4698,2019-08-07 16:52:41:462
-5.8901,-6.8489,2.3837,-0.2732,-0.2488,0.2004,-0.0271,-0.0517,-0.0298,4703,2019-08-07 16:52:41:467
-5.8901,-6.8489,2.3837,-0.2732,-0.2488,0.2004,-0.0271,-0.0517,-0.0298,4708,2019-08-07 16:52:41:472
-5.8901,-6.8489,2.3837,-0.3906,-0.2542,0.2021,-0.0239,-0.0325,-0.0288,4713,2019-08-07 16:52:41:477
-5.8327,-6.8537,2.379,-0.3906,-0.2542,0.2021,-0.0239,-0.0325,-0.0288,4718,2019-08-07 16:52:41:482
-5.8327,-6.8537,2.379,-0.3906,-0.2542,0.2021,-0.0292,-0.0229,-0.0267,4723,2019-08-07 16:52:41:487
-5.7897,-6.8632,2.5016,-0.3906,-0.2542,0.2021,-0.0292,-0.0229,-0.0267,4728,2019-08-07 16:52:41:492
-5.7897,-6.8632,2.5016,-0.347,-0.3262,0.1674,-0.0303,-0.024,-0.0149,4733,2019-08-07 16:52:41:497
-5.7897,-6.8632,2.5016,-0.347,-0.3262,0.1674,-0.0303,-0.024,-0.0149,4738,2019-08-07 16:52:41:502
-5.7945,-6.8919,2.3979,-0.347,-0.3262,0.1674,-0.0186,-0.0134,-0.0139,4742,2019-08-07 16:52:41:506
-5.7945,-6.8919,2.3979,-0.347,-0.3262,0.1674,-0.0186,-0.0134,-0.0139,4748,2019-08-07 16:52:41:512
-5.871,-6.8251,2.4733,-0.3295,-0.3246,0.1098,-0.0111,-0.0166,-0.0032,4753,2019-08-07 16:52:41:517
-5.871,-6.8251,2.4733,-0.3295,-0.3246,0.1098,-0.0111,-0.0166,-0.0032,4758,2019-08-07 16:52:41:522
-5.871,-6.8251,2.4733,-0.3295,-0.3246,0.1098,-0.0111,-0.0166,-0.0032,4763,2019-08-07 16:52:41:527
-5.8136,-6.8441,2.5251,-0.3295,-0.3246,0.1098,-0.0122,-0.0325,0.0117,4768,2019-08-07 16:52:41:532
-5.8136,-6.8441,2.5251,-0.4099,-0.3151,0.0082,-0.0122,-0.0325,0.0117,4773,2019-08-07 16:52:41:537
-5.8136,-6.8871,2.511,-0.4099,-0.3151,0.0082,-0.0079,-0.0389,0.0202,4778,2019-08-07 16:52:41:542
-5.8136,-6.8871,2.511,-0.4099,-0.3151,0.0082,-0.0079,-0.0389,0.0202,4782,2019-08-07 16:52:41:546
-5.8136,-6.8871,2.511,-0.4099,-0.3151,0.0082,-0.0037,-0.0315,0.0287,4787,2019-08-07 16:52:41:551
-5.8949,-6.8823,2.4827,-0.4099,-0.3151,0.0082,-0.0037,-0.0315,0.0287,4793,2019-08-07 16:52:41:557
-5.8949,-6.8823,2.4827,-0.3776,-0.2794,0.0681,-0.0069,-0.0304,0.0362,4798,2019-08-07 16:52:41:562
-5.8471,-6.9062,2.478,-0.3776,-0.2794,0.0681,-0.0069,-0.0304,0.0362,4803,2019-08-07 16:52:41:567
-5.8471,-6.9062,2.478,-0.3776,-0.2794,0.0681,-0.0069,-0.0304,0.0362,4808,2019-08-07 16:52:41:572
-5.8471,-6.9062,2.478,-0.3776,-0.2794,0.0681,-0.0079,-0.0389,0.0405,4812,2019-08-07 16:52:41:576
-5.9141,-6.9301,2.4309,-0.3186,-0.2086,0.1186,-0.0079,-0.0389,0.0405,4818,2019-08-07 16:52:41:582
-5.9141,-6.9301,2.4309,-0.3186,-0.2086,0.1186,-0.0047,-0.0315,0.0373,4823,2019-08-07 16:52:41:587
-5.9284,-6.8823,2.445,-0.3186,-0.2086,0.1186,-0.0047,-0.0315,0.0373,4828,2019-08-07 16:52:41:592
-5.9284,-6.8823,2.445,-0.3186,-0.2086,0.1186,-0.0079,-0.0293,0.0405,4832,2019-08-07 16:52:41:596
-5.9284,-6.8823,2.445,-0.346,-0.2141,0.1544,-0.0079,-0.0293,0.0405,4839,2019-08-07 16:52:41:603
-5.7849,-7.0112,2.445,-0.346,-0.2141,0.1544,-0.0133,-0.0229,0.0383,4843,2019-08-07 16:52:41:607
-5.7849,-7.0112,2.445,-0.346,-0.2141,0.1544,-0.0133,-0.0229,0.0383,4848,2019-08-07 16:52:41:612
-5.7849,-7.0112,2.445,-0.346,-0.2141,0.1544,-0.0133,-0.0229,0.0383,4853,2019-08-07 16:52:41:617
-5.8136,-6.9921,2.4073,-0.3638,-0.1491,0.1873,-0.0197,-0.007,0.0319,4858,2019-08-07 16:52:41:622
-5.8136,-6.9921,2.4073,-0.3638,-0.1491,0.1873,-0.0197,-0.007,0.0319,4863,2019-08-07 16:52:41:627
-5.8512,-6.9779,2.5111,-0.3638,-0.1491,0.1873,-0.0133,0.0026,0.0298,4868,2019-08-07 16:52:41:632
-5.8512,-6.9779,2.5111,-0.3638,-0.1491,0.1873,-0.0133,0.0026,0.0298,4872,2019-08-07 16:52:41:636
-5.8512,-6.9779,2.5111,-0.3727,-0.1565,0.114,-0.0122,-0.0038,0.0309,4878,2019-08-07 16:52:41:642
-5.789,-7.0352,2.4781,-0.3727,-0.1565,0.114,-0.0122,-0.0038,0.0309,4883,2019-08-07 16:52:41:647
-5.789,-7.0352,2.4781,-0.3727,-0.1565,0.114,-0.0122,-0.0187,0.0298,4888,2019-08-07 16:52:41:652
-5.789,-7.0352,2.4781,-0.3727,-0.1565,0.114,-0.0122,-0.0187,0.0298,4893,2019-08-07 16:52:41:657
-5.8368,-6.9683,2.3414,-0.38,-0.1449,0.1938,-0.0122,-0.0187,0.0298,4898,2019-08-07 16:52:41:662
-5.8368,-6.9683,2.3414,-0.38,-0.1449,0.1938,-0.009,-0.008,0.0234,4902,2019-08-07 16:52:41:666
-5.8703,-6.9158,2.3933,-0.38,-0.1449,0.1938,-0.009,-0.008,0.0234,4908,2019-08-07 16:52:41:672
-5.8703,-6.9158,2.3933,-0.3536,-0.1814,0.2307,-0.0058,-0.0091,0.0245,4914,2019-08-07 16:52:41:678
-5.8703,-6.9158,2.3933,-0.3536,-0.1814,0.2307,-0.0058,-0.0091,0.0245,4918,2019-08-07 16:52:41:682
-5.8511,-6.9636,2.4404,-0.3536,-0.1814,0.2307,-0.0058,-0.0038,0.0266,4923,2019-08-07 16:52:41:687
-5.8511,-6.9636,2.4404,-0.3536,-0.1814,0.2307,-0.0058,-0.0038,0.0266,4927,2019-08-07 16:52:41:691
-5.8559,-6.9301,2.398,-0.3536,-0.1814,0.2307,-0.0058,0.0058,0.0245,4933,2019-08-07 16:52:41:697
-5.8559,-6.9301,2.398,-0.3518,-0.1508,0.2572,-0.0058,0.0058,0.0245,4938,2019-08-07 16:52:41:702
-5.8559,-6.9301,2.398,-0.3518,-0.1508,0.2572,-0.0058,0.0058,0.0245,4942,2019-08-07 16:52:41:706
-5.8798,-6.9301,2.3933,-0.3518,-0.1508,0.2572,-0.0058,0.0143,0.0213,4948,2019-08-07 16:52:41:712
-5.8798,-6.9301,2.3933,-0.3518,-0.1508,0.2572,-0.0037,0.0261,0.016,4954,2019-08-07 16:52:41:718
-5.8798,-6.9301,2.3933,-0.3976,-0.1355,0.2157,-0.0037,0.0261,0.016,4957,2019-08-07 16:52:41:721
-5.8559,-6.9874,2.3839,-0.3976,-0.1355,0.2157,-0.0015,0.0431,0.0117,4963,2019-08-07 16:52:41:727
-5.8559,-6.9874,2.3839,-0.3976,-0.1355,0.2157,-0.0015,0.0431,0.0117,4968,2019-08-07 16:52:41:732
-6.8462,-6.7344,2.1152,-0.3976,-0.1355,0.2157,-0.1304,-0.1604,0.0383,4973,2019-08-07 16:52:41:737
-6.8462,-6.7344,2.1152,0.1976,-0.2396,-0.1703,-0.1304,-0.1604,0.0383,4978,2019-08-07 16:52:41:742
-6.8462,-6.7344,2.1152,0.1976,-0.2396,-0.1703,-0.1304,-0.1604,0.0383,4983,2019-08-07 16:52:41:747
-5.7602,-7.0686,2.9637,0.1976,-0.2396,-0.1703,0.0123,-0.1465,0.0074,4987,2019-08-07 16:52:41:751
-5.7602,-7.0686,2.9637,0.1976,-0.2396,-0.1703,0.0123,-0.1465,0.0074,4993,2019-08-07 16:52:41:757
-5.6741,-7.0686,2.3085,-0.5135,-0.0531,0.3456,0.0453,-0.1231,-0.0149,4998,2019-08-07 16:52:41:762
-5.6741,-7.0686,2.3085,-0.5135,-0.0531,0.3456,0.0453,-0.1231,-0.0149,5003,2019-08-07 16:52:41:767
-5.6741,-7.0686,2.3085,-0.5135,-0.0531,0.3456,0.0443,0.0037,-0.0053,5008,2019-08-07 16:52:41:772
-5.3488,-7.0734,2.1623,-0.5135,-0.0531,0.3456,0.0443,0.0037,-0.0053,5012,2019-08-07 16:52:41:776
-5.3488,-7.0734,2.1623,-0.8484,-0.0838,0.3752,0.0453,0.1454,0.0,5018,2019-08-07 16:52:41:782
-5.3488,-7.0734,2.1623,-0.8484,-0.0838,0.3752,0.0453,0.1454,0.0,5022,2019-08-07 16:52:41:786
-5.6214,-6.9922,2.2802,-0.8484,-0.0838,0.3752,0.0464,0.2231,-0.0064,5028,2019-08-07 16:52:41:792
-5.6214,-6.9922,2.2802,-0.8484,-0.0838,0.3752,0.0464,0.2231,-0.0064,5032,2019-08-07 16:52:41:796
-6.0999,-6.9015,2.4499,-0.1253,-0.227,0.1323,0.0336,0.2402,-0.016,5038,2019-08-07 16:52:41:802
-6.0999,-6.9015,2.4499,-0.1253,-0.227,0.1323,0.0336,0.2402,-0.016,5043,2019-08-07 16:52:41:807
-6.0999,-6.9015,2.4499,-0.1253,-0.227,0.1323,0.0336,0.2402,-0.016,5048,2019-08-07 16:52:41:812
-6.2864,-6.9636,2.6761,-0.1253,-0.227,0.1323,0.0304,0.1677,-0.0224,5053,2019-08-07 16:52:41:817
-6.2864,-6.9636,2.6761,0.1346,-0.1456,-0.2212,0.0304,0.1677,-0.0224,5058,2019-08-07 16:52:41:822