ACCELEROMETER X (m/s²),ACCELEROMETER Y (m/s²),ACCELEROMETER Z (m/s²),LINEAR ACCELERATION X (m/s²),LINEAR ACCELERATION Y (m/s²),LINEAR ACCELERATION Z (m/s²),GYROSCOPE X (rad/s),GYROSCOPE Y (rad/s),GYROSCOPE Z (rad/s),Time since start in ms ,YYYY-MO-DD HH-MI-SS_SSS
-5.1335,-7.4982,2.3744,-0.238,-0.3142,0.1119,-0.0314,0.0218,0.0138,3,2019-08-07 16:53:15:040
-5.1335,-7.4982,2.3744,-0.238,-0.3142,0.1119,-0.0314,0.0218,0.0138,8,2019-08-07 16:53:15:045
-5.1335,-7.4982,2.3744,-0.238,-0.3142,0.1119,-0.0324,0.0186,0.0149,12,2019-08-07 16:53:15:049
-5.1765,-7.4744,2.4404,-0.238,-0.3142,0.1119,-0.0324,0.0186,0.0149,18,2019-08-07 16:53:15:055
-5.1765,-7.4744,2.4404,-0.2412,-0.2904,0.1189,-0.0282,0.009,0.016,23,2019-08-07 16:53:15:060
-5.1765,-7.4744,2.4404,-0.2412,-0.2904,0.1189,-0.0282,0.009,0.016,28,2019-08-07 16:53:15:065
-5.2005,-7.4887,2.3509,-0.2412,-0.2904,0.1189,-0.026,5.0E-4,0.0245,32,2019-08-07 16:53:15:069
-5.2005,-7.4887,2.3509,-0.2412,-0.2904,0.1189,-0.026,5.0E-4,0.0245,38,2019-08-07 16:53:15:075
-5.2005,-7.4887,2.3509,-0.2302,-0.2609,0.1523,-0.025,-0.0112,0.0266,42,2019-08-07 16:53:15:079
-5.1335,-7.503,2.3462,-0.2302,-0.2609,0.1523,-0.025,-0.0112,0.0266,48,2019-08-07 16:53:15:085
-5.1335,-7.503,2.3462,-0.2892,-0.3175,0.2168,-0.0207,-0.0059,0.0234,53,2019-08-07 16:53:15:090
-5.1383,-7.5269,2.3132,-0.2892,-0.3175,0.2168,-0.0207,-0.0059,0.0234,58,2019-08-07 16:53:15:095
-5.1383,-7.5269,2.3132,-0.2892,-0.3175,0.2168,-0.0143,0.0143,0.0202,63,2019-08-07 16:53:15:100
-5.1383,-7.5269,2.3132,-0.2892,-0.3175,0.2168,-0.0143,0.0143,0.0202,68,2019-08-07 16:53:15:105
-5.1478,-7.5412,2.3037,-0.2497,-0.2544,0.2126,-0.0143,0.0143,0.0202,73,2019-08-07 16:53:15:110
-5.1478,-7.5412,2.3037,-0.2497,-0.2544,0.2126,-0.0037,0.0442,0.0117,78,2019-08-07 16:53:15:115
-5.1478,-7.5412,2.3037,-0.2497,-0.2544,0.2126,-0.0037,0.0442,0.0117,82,2019-08-07 16:53:15:119
-5.2053,-7.5364,2.3462,-0.2497,-0.2544,0.2126,-5.0E-4,0.0506,0.0042,88,2019-08-07 16:53:15:125
-5.2053,-7.5364,2.3462,-0.1672,-0.23,0.1215,6.0E-4,0.0569,0.0011,92,2019-08-07 16:53:15:129
-5.2962,-7.5507,2.3792,-0.1672,-0.23,0.1215,6.0E-4,0.0569,0.0011,98,2019-08-07 16:53:15:135
-5.2962,-7.5507,2.3792,-0.1672,-0.23,0.1215,6.0E-4,0.0569,0.0011,103,2019-08-07 16:53:15:140
-5.344,-7.546,2.3792,-0.1672,-0.23,0.1215,0.0059,0.041,-0.0032,107,2019-08-07 16:53:15:144
-5.344,-7.546,2.3792,-0.1077,-0.268,0.0455,0.0059,0.041,-0.0032,113,2019-08-07 16:53:15:150
-5.344,-7.546,2.3792,-0.1077,-0.268,0.0455,0.0048,0.0058,-0.0075,118,2019-08-07 16:53:15:155
-5.2435,-7.5317,2.5866,-0.1077,-0.268,0.0455,0.0048,0.0058,-0.0075,123,2019-08-07 16:53:15:160
-5.2435,-7.5317,2.5866,-0.1077,-0.268,0.0455,0.0048,-0.024,-0.0053,128,2019-08-07 16:53:15:165
-5.0809,-7.5173,2.4593,-0.2932,-0.3158,0.0196,0.0048,-0.024,-0.0053,133,2019-08-07 16:53:15:170
-5.0809,-7.5173,2.4593,-0.2932,-0.3158,0.0196,0.0059,-0.0347,-0.0011,138,2019-08-07 16:53:15:175
-5.0809,-7.5173,2.4593,-0.2932,-0.3158,0.0196,0.0059,-0.0347,-0.0011,143,2019-08-07 16:53:15:180
-5.0665,-7.4648,2.4499,-0.2932,-0.3158,0.0196,0.0017,-0.0304,0.0021,149,2019-08-07 16:53:15:186
-5.0665,-7.4648,2.4499,-0.329,-0.2873,0.1233,0.0017,-0.0304,0.0021,152,2019-08-07 16:53:15:189
-5.0665,-7.4648,2.4499,-0.329,-0.2873,0.1233,0.0017,-0.0304,0.0021,157,2019-08-07 16:53:15:194
-5.0187,-7.503,2.431,-0.329,-0.2873,0.1233,-0.0015,-0.0251,0.016,163,2019-08-07 16:53:15:200
-5.0187,-7.503,2.431,-0.329,-0.2873,0.1233,-0.0015,-0.0251,0.016,167,2019-08-07 16:53:15:204
-5.0187,-7.503,2.431,-0.4294,-0.2676,0.0924,-0.0069,0.0047,0.017,173,2019-08-07 16:53:15:210
-4.9995,-7.5364,2.4546,-0.4294,-0.2676,0.0924,-0.0069,0.0047,0.017,178,2019-08-07 16:53:15:215
-4.9995,-7.5364,2.4546,-0.4294,-0.2676,0.0924,-0.0058,0.0292,0.0213,183,2019-08-07 16:53:15:220
-5.1191,-7.4982,2.3509,-0.4294,-0.2676,0.0924,-0.0058,0.0292,0.0213,188,2019-08-07 16:53:15:225
-5.1191,-7.4982,2.3509,-0.2177,-0.2233,0.1688,-0.0101,0.0474,0.0234,193,2019-08-07 16:53:15:230
-5.1191,-7.5746,2.3414,-0.2177,-0.2233,0.1688,-0.0101,0.0474,0.0234,198,2019-08-07 16:53:15:235
-5.21,-7.5746,2.3414,-0.2177,-0.2233,0.1688,-0.0111,0.058,0.016,203,2019-08-07 16:53:15:240
-5.21,-7.5746,2.3414,-0.2177,-0.2233,0.1688,-0.0111,0.058,0.016,207,2019-08-07 16:53:15:244
-5.3392,-7.608,2.4074,-0.0698,-0.1841,0.0948,-0.0047,0.0527,0.0042,213,2019-08-07 16:53:15:250
-5.3392,-7.608,2.4074,-0.0698,-0.1841,0.0948,-0.0047,0.0527,0.0042,218,2019-08-07 16:53:15:255
-5.3392,-7.608,2.4074,-0.0698,-0.1841,0.0948,6.0E-4,0.0335,0.0021,223,2019-08-07 16:53:15:260
-5.344,-7.5555,2.464,-0.0698,-0.1841,0.0948,6.0E-4,0.0335,0.0021,228,2019-08-07 16:53:15:265
-5.344,-7.5555,2.464,-0.0915,-0.2122,0.0675,6.0E-4,0.0026,-0.0043,233,2019-08-07 16:53:15:270
-5.3057,-7.503,2.4546,-0.0915,-0.2122,0.0675,6.0E-4,0.0026,-0.0043,237,2019-08-07 16:53:15:274
-5.3057,-7.503,2.4546,-0.0915,-0.2122,0.0675,-0.0026,-0.0176,-0.0128,243,2019-08-07 16:53:15:280
-5.3057,-7.503,2.4546,-0.0915,-0.2122,0.0675,-0.0026,-0.0176,-0.0128,249,2019-08-07 16:53:15:286
-5.2101,-7.4696,2.3933,-0.2091,-0.3181,0.1491,-0.0026,-0.0176,-0.0128,252,2019-08-07 16:53:15:289
-5.2101,-7.4696,2.3933,-0.2091,-0.3181,0.1491,-0.0026,-0.0261,-0.0139,258,2019-08-07 16:53:15:295
-5.2101,-7.4696,2.3933,-0.2091,-0.3181,0.1491,-0.0026,-0.0261,-0.0139,262,2019-08-07 16:53:15:299
-5.1287,-7.4839,2.3744,-0.2091,-0.3181,0.1491,0.0038,-0.0475,-0.0128,268,2019-08-07 16:53:15:305
-5.1287,-7.4839,2.3744,-0.3864,-0.2435,0.1344,0.0038,-0.0475,-0.0128,273,2019-08-07 16:53:15:310
-4.9852,-7.5126,2.332,-0.3864,-0.2435,0.1344,0.0048,-0.0549,-0.0053,278,2019-08-07 16:53:15:315
-4.9852,-7.5126,2.332,-0.3864,-0.2435,0.1344,0.0048,-0.0549,-0.0053,284,2019-08-07 16:53:15:321
-4.9852,-7.5126,2.332,-0.3864,-0.2435,0.1344,0.008,-0.0283,0.0,288,2019-08-07 16:53:15:325
-4.923,-7.4839,2.3933,-0.4592,-0.3447,0.1254,0.008,-0.0283,0.0,293,2019-08-07 16:53:15:330
-4.923,-7.4839,2.3933,-0.4592,-0.3447,0.1254,0.0102,-0.0102,0.0096,298,2019-08-07 16:53:15:335
-4.9517,-7.5173,2.3509,-0.4592,-0.3447,0.1254,0.0102,-0.0102,0.0096,303,2019-08-07 16:53:15:340
-4.9517,-7.5173,2.3509,-0.4592,-0.3447,0.1254,0.0102,-0.0102,0.0096,307,2019-08-07 16:53:15:344
-4.9517,-7.5173,2.3509,-0.4592,-0.3447,0.1254,0.0091,0.0186,0.0192,313,2019-08-07 16:53:15:350
-5.0713,-7.4982,2.332,-0.3689,-0.32,0.1125,0.0091,0.0186,0.0192,318,2019-08-07 16:53:15:355
-5.0713,-7.4982,2.332,-0.3689,-0.32,0.1125,0.0123,0.0346,0.0128,323,2019-08-07 16:53:15:360
-5.234,-7.4409,2.3839,-0.3689,-0.32,0.1125,0.0123,0.0346,0.0128,328,2019-08-07 16:53:15:365
-5.234,-7.4409,2.3839,-0.3689,-0.32,0.1125,0.008,0.0388,0.0149,332,2019-08-07 16:53:15:369
-5.234,-7.4409,2.3839,-0.1482,-0.2703,0.1428,0.008,0.0388,0.0149,338,2019-08-07 16:53:15:375
-5.2483,-7.5078,2.4169,-0.1482,-0.2703,0.1428,6.0E-4,0.0324,0.0064,343,2019-08-07 16:53:15:380
-5.2483,-7.5078,2.4169,-0.1693,-0.2551,0.0844,6.0E-4,0.0324,0.0064,348,2019-08-07 16:53:15:385
-5.2483,-7.5078,2.4169,-0.1693,-0.2551,0.0844,6.0E-4,0.0292,-0.0043,353,2019-08-07 16:53:15:390
-5.3105,-7.546,2.3933,-0.1693,-0.2551,0.0844,6.0E-4,0.0292,-0.0043,357,2019-08-07 16:53:15:394
-5.3105,-7.546,2.3933,-0.1693,-0.2551,0.0844,0.0059,0.025,-0.0032,362,2019-08-07 16:53:15:399
-5.234,-7.5173,2.398,-0.152,-0.2645,0.1141,0.0059,0.025,-0.0032,368,2019-08-07 16:53:15:405
-5.234,-7.5173,2.398,-0.152,-0.2645,0.1141,0.008,0.0079,-0.0053,373,2019-08-07 16:53:15:410
-5.234,-7.5173,2.398,-0.152,-0.2645,0.1141,0.008,0.0079,-0.0053,377,2019-08-07 16:53:15:414
-5.1718,-7.5412,2.4546,-0.152,-0.2645,0.1141,0.0048,-0.0134,-0.0021,383,2019-08-07 16:53:15:420
-5.1718,-7.5412,2.4546,-0.2284,-0.274,0.1711,0.0048,-0.0134,-0.0021,388,2019-08-07 16:53:15:425
-5.0952,-7.4744,2.299,-0.2284,-0.274,0.1711,0.0102,-0.0198,0.0053,393,2019-08-07 16:53:15:430
-5.0952,-7.4744,2.299,-0.2284,-0.274,0.1711,0.0102,-0.0198,0.0053,398,2019-08-07 16:53:15:435
-5.0952,-7.4744,2.299,-0.2284,-0.274,0.1711,0.0091,-0.0293,0.016,403,2019-08-07 16:53:15:440
-5.0331,-7.5412,2.332,-0.3759,-0.2496,0.1746,0.0091,-0.0293,0.016,408,2019-08-07 16:53:15:445
-5.0331,-7.5412,2.332,-0.3759,-0.2496,0.1746,0.0134,-0.0325,0.0256,413,2019-08-07 16:53:15:450
-4.9948,-7.5364,2.3414,-0.3759,-0.2496,0.1746,0.0134,-0.0325,0.0256,417,2019-08-07 16:53:15:454
-4.9948,-7.5364,2.3414,-0.3759,-0.2496,0.1746,0.0187,-0.0219,0.0309,423,2019-08-07 16:53:15:460
-4.9948,-7.5364,2.3414,-0.4202,-0.2709,0.1846,0.0187,-0.0219,0.0309,428,2019-08-07 16:53:15:465
-5.0618,-7.5173,2.3414,-0.4202,-0.2709,0.1846,0.0219,-0.007,0.033,433,2019-08-07 16:53:15:470
-5.0618,-7.5173,2.3414,-0.4202,-0.2709,0.1846,0.0219,-0.007,0.033,438,2019-08-07 16:53:15:475
-5.1192,-7.4744,2.3839,-0.4202,-0.2709,0.1846,0.0144,0.009,0.0351,444,2019-08-07 16:53:15:481
-5.1192,-7.4744,2.3839,-0.2857,-0.3194,0.1405,0.0144,0.009,0.0351,449,2019-08-07 16:53:15:486
-5.1192,-7.4744,2.3839,-0.2857,-0.3194,0.1405,0.008,0.0186,0.0277,452,2019-08-07 16:53:15:489
-5.1814,-7.503,2.4169,-0.2857,-0.3194,0.1405,0.008,0.0186,0.0277,458,2019-08-07 16:53:15:495
-5.1814,-7.503,2.4169,-0.2857,-0.3194,0.1405,0.0017,0.0292,0.0213,462,2019-08-07 16:53:15:499
-5.2723,-7.4744,2.3603,-0.1427,-0.3448,0.1488,0.0017,0.0292,0.0213,468,2019-08-07 16:53:15:505
-5.2723,-7.4744,2.3603,-0.1427,-0.3448,0.1488,0.0017,0.0292,0.0213,472,2019-08-07 16:53:15:509
-5.2723,-7.4744,2.3603,-0.1427,-0.3448,0.1488,-0.0037,0.0261,0.0106,478,2019-08-07 16:53:15:515
-5.2675,-7.4171,2.365,-0.1427,-0.3448,0.1488,-0.0037,0.0261,0.0106,483,2019-08-07 16:53:15:520
-5.2675,-7.4171,2.365,-0.1511,-0.3244,0.1496,-0.0111,0.0229,-0.0011,488,2019-08-07 16:53:15:525
-5.2866,-7.3932,2.2754,-0.1511,-0.3244,0.1496,-0.0111,0.0229,-0.0011,493,2019-08-07 16:53:15:530
-5.2866,-7.3932,2.2754,-0.1511,-0.3244,0.1496,-0.0111,0.0101,0.0032,498,2019-08-07 16:53:15:535
-5.2866,-7.3932,2.2754,-0.1511,-0.3244,0.1496,-0.0111,0.0101,0.0032,503,2019-08-07 16:53:15:540
-5.1766,-7.4648,2.398,-0.2479,-0.3153,0.1081,-0.0154,0.0015,0.0085,508,2019-08-07 16:53:15:545
-5.1766,-7.4648,2.398,-0.2479,-0.3153,0.1081,-0.0154,0.0015,0.0085,513,2019-08-07 16:53:15:550
-5.1766,-7.4648,2.398,-0.2479,-0.3153,0.1081,-0.0154,0.0015,0.0085,517,2019-08-07 16:53:15:554
-5.1622,-7.4791,2.398,-0.2479,-0.3153,0.1081,-0.0058,-0.0059,0.0096,523,2019-08-07 16:53:15:560
-5.1622,-7.4791,2.398,-0.2969,-0.3053,0.0269,0.0038,-0.0166,0.016,528,2019-08-07 16:53:15:565
-5.1575,-7.4696,2.4121,-0.2969,-0.3053,0.0269,0.0038,-0.0166,0.016,533,2019-08-07 16:53:15:570
-5.1575,-7.4696,2.4121,-0.2969,-0.3053,0.0269,0.0038,-0.0166,0.016,537,2019-08-07 16:53:15:574
-5.1575,-7.4696,2.4121,-0.2969,-0.3053,0.0269,0.0038,-0.0261,0.0319,543,2019-08-07 16:53:15:580
-5.057,-7.4982,2.4121,-0.3519,-0.3074,0.1479,0.0038,-0.0261,0.0319,548,2019-08-07 16:53:15:585
-5.057,-7.4982,2.4121,-0.3519,-0.3074,0.1479,0.0038,-0.0347,0.0351,552,2019-08-07 16:53:15:589
-5.0522,-7.4171,2.365,-0.3519,-0.3074,0.1479,0.0038,-0.0347,0.0351,558,2019-08-07 16:53:15:595
-5.0522,-7.4171,2.365,-0.3519,-0.3074,0.1479,0.007,-0.0219,0.0426,563,2019-08-07 16:53:15:600
-5.0522,-7.4171,2.365,-0.3324,-0.3175,0.1844,0.007,-0.0219,0.0426,568,2019-08-07 16:53:15:605
-5.057,-7.4744,2.3697,-0.3324,-0.3175,0.1844,0.0144,-0.0091,0.049,572,2019-08-07 16:53:15:609
-5.057,-7.4744,2.3697,-0.3324,-0.3175,0.1844,0.0134,0.0111,0.0458,579,2019-08-07 16:53:15:616
-5.1479,-7.4648,2.3603,-0.3324,-0.3175,0.1844,0.0134,0.0111,0.0458,583,2019-08-07 16:53:15:620
-5.1479,-7.4648,2.3603,-0.3296,-0.3363,0.162,0.0134,0.0111,0.0458,587,2019-08-07 16:53:15:624
-5.1952,-7.3885,2.3981,-0.3296,-0.3363,0.162,0.0176,0.0452,0.0426,593,2019-08-07 16:53:15:630
-5.1952,-7.3885,2.3981,-0.2484,-0.3382,0.062,0.0176,0.0452,0.0426,599,2019-08-07 16:53:15:636
-5.1952,-7.3885,2.3981,-0.2484,-0.3382,0.062,0.0176,0.0452,0.0426,602,2019-08-07 16:53:15:639
-5.2765,-7.4076,2.4123,-0.2484,-0.3382,0.062,0.0251,0.0559,0.0405,608,2019-08-07 16:53:15:645
-5.2765,-7.4076,2.4123,-0.2484,-0.3382,0.062,0.0251,0.0559,0.0405,613,2019-08-07 16:53:15:650
-5.2765,-7.4076,2.4123,-0.1385,-0.3321,0.0881,0.0208,0.0442,0.0405,618,2019-08-07 16:53:15:655
-5.3722,-7.3646,2.4311,-0.1385,-0.3321,0.0881,0.0208,0.0442,0.0405,622,2019-08-07 16:53:15:659
-5.3722,-7.3646,2.4311,-0.1385,-0.3321,0.0881,0.024,0.0282,0.0383,628,2019-08-07 16:53:15:665
-5.31,-7.3837,2.4877,-0.1385,-0.3321,0.0881,0.024,0.0282,0.0383,633,2019-08-07 16:53:15:670
-5.31,-7.3837,2.4877,-0.1134,-0.402,-0.0093,0.0304,0.0047,0.0469,637,2019-08-07 16:53:15:674
-5.31,-7.3837,2.4877,-0.1134,-0.402,-0.0093,0.0304,0.0047,0.0469,643,2019-08-07 16:53:15:680
-5.2813,-7.4171,2.4641,-0.1134,-0.402,-0.0093,0.0208,-0.0155,0.0543,648,2019-08-07 16:53:15:685
-5.2813,-7.4171,2.4641,-0.1134,-0.402,-0.0093,0.0208,-0.0155,0.0543,653,2019-08-07 16:53:15:690
-5.2382,-7.441,2.417,-0.2313,-0.3042,0.0995,0.0134,-0.0251,0.0607,658,2019-08-07 16:53:15:695
-5.2382,-7.441,2.417,-0.2313,-0.3042,0.0995,0.0134,-0.0251,0.0607,663,2019-08-07 16:53:15:700
-5.2382,-7.441,2.417,-0.2313,-0.3042,0.0995,0.0102,-0.024,0.0639,668,2019-08-07 16:53:15:705
-5.2143,-7.4935,2.4453,-0.2313,-0.3042,0.0995,0.0102,-0.024,0.0639,674,2019-08-07 16:53:15:711
-5.2143,-7.4935,2.4453,-0.2313,-0.3042,0.0995,0.0102,-0.024,0.0639,678,2019-08-07 16:53:15:715
-5.2143,-7.4935,2.4453,-0.2973,-0.3062,0.1133,0.0017,-0.0166,0.0692,682,2019-08-07 16:53:15:719
-5.1617,-7.4983,2.2614,-0.2973,-0.3062,0.1133,0.0017,-0.0166,0.0692,688,2019-08-07 16:53:15:725
-5.1617,-7.4983,2.2614,-0.2973,-0.3062,0.1133,-0.0122,0.0079,0.0607,693,2019-08-07 16:53:15:730
-5.0947,-7.5126,2.3557,-0.335,-0.1859,0.2104,-0.0122,0.0079,0.0607,698,2019-08-07 16:53:15:735
-5.0947,-7.5126,2.3557,-0.335,-0.1859,0.2104,-0.0111,0.0356,0.0469,704,2019-08-07 16:53:15:741
-5.0947,-7.5126,2.3557,-0.335,-0.1859,0.2104,-0.0111,0.0356,0.0469,707,2019-08-07 16:53:15:744
-5.243,-7.5222,2.3227,-0.2484,-0.2079,0.1927,-0.0122,0.0569,0.0415,713,2019-08-07 16:53:15:750
-5.243,-7.5222,2.3227,-0.2484,-0.2079,0.1927,-0.0122,0.0569,0.0415,717,2019-08-07 16:53:15:754
-5.243,-7.5222,2.3227,-0.2484,-0.2079,0.1927,-0.0197,0.0676,0.033,723,2019-08-07 16:53:15:760
-5.3004,-7.5365,2.4264,-0.2484,-0.2079,0.1927,-0.0197,0.0676,0.033,728,2019-08-07 16:53:15:765
-5.3004,-7.5365,2.4264,-0.1517,-0.1955,0.1166,-0.0143,0.0644,0.0256,733,2019-08-07 16:53:15:770
-5.4726,-7.5317,2.3416,-0.1517,-0.1955,0.1166,-0.0143,0.0644,0.0256,738,2019-08-07 16:53:15:775
-5.4726,-7.5317,2.3416,-0.1517,-0.1955,0.1166,-0.0111,0.0452,0.0224,743,2019-08-07 16:53:15:780
-5.4439,-7.484,2.45,-0.1517,-0.1955,0.1166,-0.0111,0.0452,0.0224,748,2019-08-07 16:53:15:785
-5.4439,-7.484,2.45,-0.0868,-0.241,0.0756,-0.0111,0.0452,0.0224,753,2019-08-07 16:53:15:790
-5.4439,-7.484,2.45,-0.0868,-0.241,0.0756,-0.009,-0.0059,0.0213,758,2019-08-07 16:53:15:795
-5.4152,-7.4458,2.4406,-0.0868,-0.241,0.0756,-0.009,-0.0059,0.0213,763,2019-08-07 16:53:15:800
-5.4152,-7.4458,2.4406,-0.0868,-0.241,0.0756,-0.0037,-0.0283,0.0181,767,2019-08-07 16:53:15:804
-5.4152,-7.4458,2.4406,-0.1569,-0.3103,0.0053,-0.0037,-0.0283,0.0181,773,2019-08-07 16:53:15:810
-5.3387,-7.4076,2.4028,-0.1569,-0.3103,0.0053,0.0027,-0.0506,0.0181,777,2019-08-07 16:53:15:814
-5.3387,-7.4076,2.4028,-0.1953,-0.3474,0.1589,0.0027,-0.0506,0.0181,783,2019-08-07 16:53:15:820
-5.2191,-7.441,2.318,-0.1953,-0.3474,0.1589,-0.0015,-0.0624,0.0181,788,2019-08-07 16:53:15:825
-5.2191,-7.441,2.318,-0.1953,-0.3474,0.1589,-0.0015,-0.0624,0.0181,792,2019-08-07 16:53:15:829
-5.1329,-7.4458,2.3274,-0.1953,-0.3474,0.1589,-0.0047,-0.0485,0.016,798,2019-08-07 16:53:15:835
-5.1329,-7.4458,2.3274,-0.3478,-0.2651,0.1735,-0.0047,-0.0485,0.016,803,2019-08-07 16:53:15:840
-5.1329,-7.4458,2.3274,-0.3478,-0.2651,0.1735,0.0027,-6.0E-4,0.017,808,2019-08-07 16:53:15:845
-5.1712,-7.4267,2.3369,-0.3478,-0.2651,0.1735,0.0027,-6.0E-4,0.017,813,2019-08-07 16:53:15:850
-5.1712,-7.4267,2.3369,-0.3478,-0.2651,0.1735,0.0059,0.0197,0.0181,818,2019-08-07 16:53:15:855
-5.1999,-7.4649,2.4028,-0.2729,-0.259,0.1833,0.0059,0.0197,0.0181,823,2019-08-07 16:53:15:860
-5.1999,-7.4649,2.4028,-0.2729,-0.259,0.1833,0.0048,0.0229,0.016,828,2019-08-07 16:53:15:865
-5.1999,-7.4649,2.4028,-0.2729,-0.259,0.1833,0.0048,0.0229,0.016,833,2019-08-07 16:53:15:870
-5.2812,-7.4458,2.3981,-0.2729,-0.259,0.1833,0.007,0.0015,0.0128,838,2019-08-07 16:53:15:875
-5.2812,-7.4458,2.3981,-0.2278,-0.3146,0.041,0.007,0.0015,0.0128,843,2019-08-07 16:53:15:880
-5.3051,-7.3789,2.4547,-0.2278,-0.3146,0.041,0.0059,-0.0198,0.0202,848,2019-08-07 16:53:15:885
-5.3051,-7.3789,2.4547,-0.2278,-0.3146,0.041,0.0059,-0.0198,0.0202,853,2019-08-07 16:53:15:890
-5.3051,-7.3789,2.4547,-0.2278,-0.3146,0.041,0.0059,-0.0198,0.0202,858,2019-08-07 16:53:15:895
-5.2669,-7.4076,2.3887,-0.2493,-0.3075,0.1184,0.0059,-0.0091,0.0213,863,2019-08-07 16:53:15:900
-5.2669,-7.4076,2.3887,-0.2493,-0.3075,0.1184,0.0059,-0.0091,0.0213,868,2019-08-07 16:53:15:905
-5.2669,-7.4076,2.3887,-0.2493,-0.3075,0.1184,-0.0026,-0.0134,0.0213,873,2019-08-07 16:53:15:910
-5.3386,-7.398,2.4453,-0.2493,-0.3075,0.1184,-0.0026,-0.0134,0.0213,878,2019-08-07 16:53:15:915
-5.3386,-7.398,2.4453,-0.1947,-0.2573,0.1009,-0.0058,-0.0251,0.0224,882,2019-08-07 16:53:15:919
-5.2094,-7.4601,2.3887,-0.1947,-0.2573,0.1009,-0.0058,-0.0251,0.0224,888,2019-08-07 16:53:15:925
-5.2094,-7.4601,2.3887,-0.1947,-0.2573,0.1009,-0.0037,-0.0272,0.0213,893,2019-08-07 16:53:15:930
-5.2094,-7.4601,2.3887,-0.1947,-0.2573,0.1009,-0.0037,-0.0272,0.0213,898,2019-08-07 16:53:15:935
-5.1951,-7.4219,2.3557,-0.3588,-0.2651,0.1736,0.0027,-0.0166,0.0213,903,2019-08-07 16:53:15:940
-5.1951,-7.4219,2.3557,-0.3588,-0.2651,0.1736,0.0027,-0.0166,0.0213,908,2019-08-07 16:53:15:945
-5.1855,-7.3933,2.3086,-0.3588,-0.2651,0.1736,0.0059,0.0037,0.0277,913,2019-08-07 16:53:15:950
-5.1855,-7.3933,2.3086,-0.3588,-0.2651,0.1736,0.0059,0.0037,0.0277,917,2019-08-07 16:53:15:954
-5.1855,-7.3933,2.3086,-0.2621,-0.2625,0.1453,0.0112,0.0282,0.0277,923,2019-08-07 16:53:15:960
-5.286,-7.4219,2.4217,-0.2621,-0.2625,0.1453,0.0112,0.0282,0.0277,928,2019-08-07 16:53:15:965
-5.286,-7.4219,2.4217,-0.2621,-0.2625,0.1453,0.0176,0.0197,0.0319,934,2019-08-07 16:53:15:971
-5.3769,-7.4219,2.4783,-0.2621,-0.2625,0.1453,0.0176,0.0197,0.0319,938,2019-08-07 16:53:15:975
-5.3769,-7.4219,2.4783,-0.1389,-0.2532,0.0845,0.0166,-0.0059,0.0351,943,2019-08-07 16:53:15:980
-5.3769,-7.4219,2.4783,-0.1389,-0.2532,0.0845,0.0166,-0.0059,0.0351,948,2019-08-07 16:53:15:985
-5.2908,-7.4553,2.3934,-0.1389,-0.2532,0.0845,0.0166,-0.0059,0.0351,953,2019-08-07 16:53:15:990
-5.2908,-7.4553,2.3934,-0.1389,-0.2532,0.0845,0.0166,-0.0134,0.0266,958,2019-08-07 16:53:15:995
-5.329,-7.4458,2.3981,-0.2051,-0.2539,0.1165,0.0166,-0.0134,0.0266,963,2019-08-07 16:53:16:000
-5.329,-7.4458,2.3981,-0.2051,-0.2539,0.1165,0.0187,-6.0E-4,0.0202,967,2019-08-07 16:53:16:004
-5.329,-7.4458,2.3981,-0.2051,-0.2539,0.1165,0.0187,-6.0E-4,0.0202,973,2019-08-07 16:53:16:010
-5.3194,-7.4553,2.384,-0.2051,-0.2539,0.1165,0.0134,0.0026,0.0181,977,2019-08-07 16:53:16:014
-5.3194,-7.4553,2.384,-0.151,-0.2081,0.0947,0.0134,0.0026,0.0181,984,2019-08-07 16:53:16:021
-5.3194,-7.4553,2.384,-0.151,-0.2081,0.0947,0.0048,5.0E-4,0.0074,988,2019-08-07 16:53:16:025
-5.3721,-7.4362,2.417,-0.151,-0.2081,0.0947,0.0048,5.0E-4,0.0074,993,2019-08-07 16:53:16:030
-5.3721,-7.4362,2.417,-0.151,-0.2081,0.0947,0.0017,0.0058,0.0032,999,2019-08-07 16:53:16:036
-5.3721,-7.4362,2.417,-0.2286,-0.2453,0.1001,0.0017,0.0058,0.0032,1003,2019-08-07 16:53:16:040
-5.3099,-7.4506,2.417,-0.2286,-0.2453,0.1001,0.0017,0.0058,0.0032,1008,2019-08-07 16:53:16:045
-5.3099,-7.4506,2.417,-0.2286,-0.2453,0.1001,-0.0037,0.0026,-0.0021,1013,2019-08-07 16:53:16:050
-5.2812,-7.3933,2.483,-0.2286,-0.2453,0.1001,-0.0037,0.0026,-0.0021,1018,2019-08-07 16:53:16:055
-5.2812,-7.3933,2.483,-0.2757,-0.2889,0.0385,-0.0079,-6.0E-4,-0.0064,1022,2019-08-07 16:53:16:059
-5.2812,-7.3933,2.483,-0.2757,-0.2889,0.0385,-0.0079,-6.0E-4,-0.0064,1028,2019-08-07 16:53:16:065
-5.2668,-7.3933,2.4641,-0.2757,-0.2889,0.0385,-0.0143,-0.0112,-0.0064,1033,2019-08-07 16:53:16:070
-5.2668,-7.3933,2.4641,-0.2757,-0.2889,0.0385,-0.0143,-0.0112,-0.0064,1037,2019-08-07 16:53:16:074
-5.2668,-7.3933,2.4641,-0.2757,-0.2889,0.0385,-0.0186,-0.0219,0.0021,1043,2019-08-07 16:53:16:080
-5.2237,-7.379,2.4783,-0.3123,-0.3188,0.0382,-0.0186,-0.0219,0.0021,1048,2019-08-07 16:53:16:085
-5.2237,-7.379,2.4783,-0.3123,-0.3188,0.0382,-0.0207,-0.0272,0.0128,1052,2019-08-07 16:53:16:089
-5.2237,-7.379,2.4783,-0.3123,-0.3188,0.0382,-0.0207,-0.0272,0.0128,1058,2019-08-07 16:53:16:095
-5.1615,-7.3121,2.4877,-0.3123,-0.3188,0.0382,-0.0186,-0.0198,0.0192,1063,2019-08-07 16:53:16:100
-5.1615,-7.3121,2.4877,-0.4317,-0.3522,0.0292,-0.0186,-0.0198,0.0192,1069,2019-08-07 16:53:16:106
-5.1137,-7.3264,2.3699,-0.4317,-0.3522,0.0292,-0.0143,-0.007,0.0309,1073,2019-08-07 16:53:16:110
-5.1137,-7.3264,2.3699,-0.4317,-0.3522,0.0292,-0.0143,-0.007,0.0309,1078,2019-08-07 16:53:16:115
-5.1137,-7.3264,2.3699,-0.4317,-0.3522,0.0292,-0.0165,0.0111,0.0415,1083,2019-08-07 16:53:16:120
-5.1711,-7.3599,2.351,-0.3685,-0.3358,0.1642,-0.0165,0.0111,0.0415,1088,2019-08-07 16:53:16:125
-5.1711,-7.3599,2.351,-0.3685,-0.3358,0.1642,-0.0165,0.0111,0.0415,1093,2019-08-07 16:53:16:130
-5.2094,-7.4076,2.2615,-0.3685,-0.3358,0.1642,-0.0122,0.0367,0.0437,1097,2019-08-07 16:53:16:134
-5.2094,-7.4076,2.2615,-0.3685,-0.3358,0.1642,-0.0122,0.0367,0.0437,1103,2019-08-07 16:53:16:140
-5.2094,-7.4076,2.2615,-0.2191,-0.3222,0.1438,-0.0037,0.0505,0.049,1108,2019-08-07 16:53:16:145
-5.3433,-7.3837,2.3557,-0.2191,-0.3222,0.1438,-0.0037,0.0505,0.049,1113,2019-08-07 16:53:16:150
-5.3433,-7.3837,2.3557,-0.1573,-0.3004,0.131,-0.0015,0.0516,0.0469,1118,2019-08-07 16:53:16:155
-5.3433,-7.3837,2.3557,-0.1573,-0.3004,0.131,-0.0015,0.0516,0.0469,1123,2019-08-07 16:53:16:160
-5.5203,-7.3885,2.2662,-0.1573,-0.3004,0.131,-0.0015,0.0303,0.0415,1128,2019-08-07 16:53:16:165
-5.5203,-7.3885,2.2662,-0.1573,-0.3004,0.131,-0.0015,0.0303,0.0415,1133,2019-08-07 16:53:16:170
-5.5203,-7.3885,2.2662,0.0104,-0.3239,0.1593,-0.0015,0.0303,0.0415,1138,2019-08-07 16:53:16:175
-5.5538,-7.379,2.3557,0.0104,-0.3239,0.1593,0.008,0.0047,0.0298,1143,2019-08-07 16:53:16:180
-5.5538,-7.379,2.3557,0.0104,-0.3239,0.1593,0.008,0.0047,0.0298,1148,2019-08-07 16:53:16:185
-5.5538,-7.3981,2.351,0.0104,-0.3239,0.1593,0.0102,-0.0155,0.016,1153,2019-08-07 16:53:16:190
-5.5538,-7.3981,2.351,4.0E-4,-0.2912,0.1508,0.0102,-0.0155,0.016,1158,2019-08-07 16:53:16:195
-5.5538,-7.3981,2.351,4.0E-4,-0.2912,0.1508,0.0102,-0.0155,0.016,1163,2019-08-07 16:53:16:200
-5.5107,-7.3455,2.4359,4.0E-4,-0.2912,0.1508,0.0048,-0.0198,0.0042,1168,2019-08-07 16:53:16:205
-5.5107,-7.3455,2.4359,4.0E-4,-0.2912,0.1508,0.0048,-0.0198,0.0042,1173,2019-08-07 16:53:16:210
-5.4677,-7.3599,2.3699,-0.1009,-0.3183,0.1346,0.0048,-0.0198,-0.0021,1178,2019-08-07 16:53:16:215
-5.4677,-7.3599,2.3699,-0.1009,-0.3183,0.1346,0.0048,-0.0198,-0.0021,1183,2019-08-07 16:53:16:220
-5.4677,-7.3599,2.3699,-0.1009,-0.3183,0.1346,0.0048,-0.0198,-0.0021,1187,2019-08-07 16:53:16:224
-5.4294,-7.3169,2.3887,-0.1009,-0.3183,0.1346,-0.0079,-0.0325,-0.0117,1193,2019-08-07 16:53:16:230
-5.4294,-7.3169,2.3887,-0.1992,-0.3239,0.0852,-0.0079,-0.0325,-0.0117,1198,2019-08-07 16:53:16:235
-5.4294,-7.3169,2.3887,-0.1992,-0.3239,0.0852,-0.0122,-0.04,-0.0139,1203,2019-08-07 16:53:16:240
-5.3337,-7.3837,2.3652,-0.1992,-0.3239,0.0852,-0.0122,-0.04,-0.0139,1208,2019-08-07 16:53:16:245
-5.3337,-7.3837,2.3652,-0.1992,-0.3239,0.0852,-0.0154,-0.0325,-0.0107,1213,2019-08-07 16:53:16:250
-5.2811,-7.3455,2.5113,-0.2815,-0.3356,-0.0024,-0.0154,-0.0325,-0.0107,1218,2019-08-07 16:53:16:255
-5.2811,-7.3455,2.5113,-0.2815,-0.3356,-0.0024,-0.0186,-0.0187,-0.0085,1222,2019-08-07 16:53:16:259
-5.2811,-7.3455,2.5113,-0.2815,-0.3356,-0.0024,-0.0186,-0.0187,-0.0085,1229,2019-08-07 16:53:16:266
-5.2859,-7.3074,2.45,-0.2815,-0.3356,-0.0024,-0.0111,-0.0038,-0.0011,1233,2019-08-07 16:53:16:270
-5.2859,-7.3074,2.45,-0.2702,-0.3751,0.0209,-0.0111,-0.0038,-0.0011,1238,2019-08-07 16:53:16:275
-5.2859,-7.3074,2.45,-0.2702,-0.3751,0.0209,-0.0111,-0.0038,-0.0011,1243,2019-08-07 16:53:16:280
-5.3576,-7.3264,2.4547,-0.1843,-0.4659,0.0391,-0.0133,-0.0027,0.0021,1248,2019-08-07 16:53:16:285
-5.3576,-7.3264,2.4547,-0.1843,-0.4659,0.0391,-0.0133,-0.0027,0.0021,1253,2019-08-07 16:53:16:290
-5.3528,-7.2883,2.4453,-0.1843,-0.4659,0.0391,-0.0079,-0.0059,0.0106,1258,2019-08-07 16:53:16:295
-5.3528,-7.2883,2.4453,-0.1843,-0.4659,0.0391,-0.0079,-0.0059,0.0106,1263,2019-08-07 16:53:16:300
-5.415,-7.2023,2.4783,-0.1476,-0.479,0.0299,-0.0037,-0.0112,0.0085,1268,2019-08-07 16:53:16:305
-5.415,-7.2023,2.4783,-0.1476,-0.479,0.0299,-0.0037,-0.0112,0.0085,1273,2019-08-07 16:53:16:310
-5.415,-7.2023,2.4783,-0.1476,-0.479,0.0299,-0.0037,-0.0112,0.0085,1278,2019-08-07 16:53:16:315
-5.4054,-7.2453,2.582,-0.1476,-0.479,0.0299,-0.0026,-0.0272,0.0202,1283,2019-08-07 16:53:16:320
-5.4054,-7.2453,2.582,-0.1351,-0.4048,-0.0796,-0.0026,-0.0272,0.0202,1288,2019-08-07 16:53:16:325
-5.4341,-7.293,2.5679,-0.1351,-0.4048,-0.0796,-0.0026,-0.0453,0.0256,1293,2019-08-07 16:53:16:330
-5.4341,-7.293,2.5679,-0.1553,-0.4031,-0.0531,-0.0026,-0.0453,0.0256,1298,2019-08-07 16:53:16:335
-5.4341,-7.293,2.5679,-0.1553,-0.4031,-0.0531,-0.0026,-0.0453,0.0256,1303,2019-08-07 16:53:16:340
-5.4628,-7.2262,2.6103,-0.1553,-0.4031,-0.0531,-0.009,-0.0656,0.0288,1308,2019-08-07 16:53:16:345
-5.4628,-7.2262,2.6103,-0.1553,-0.4031,-0.0531,-0.009,-0.0656,0.0288,1313,2019-08-07 16:53:16:350
-5.4628,-7.2262,2.6103,-0.1856,-0.4472,0.016,-0.0154,-0.0954,0.033,1318,2019-08-07 16:53:16:355
-5.3959,-7.2119,2.4877,-0.1856,-0.4472,0.016,-0.0154,-0.0954,0.033,1324,2019-08-07 16:53:16:361
-5.3959,-7.2119,2.4877,-0.1856,-0.4472,0.016,-0.0197,-0.1146,0.0362,1328,2019-08-07 16:53:16:365
-5.2619,-7.231,2.4312,-0.1856,-0.4472,0.016,-0.0197,-0.1146,0.0362,1334,2019-08-07 16:53:16:371
-5.2619,-7.231,2.4312,-0.3195,-0.4057,0.153,-0.0197,-0.1146,0.0362,1338,2019-08-07 16:53:16:375
-5.2619,-7.231,2.4312,-0.3195,-0.4057,0.153,-0.0314,-0.106,0.0405,1343,2019-08-07 16:53:16:380
-5.2523,-7.2835,2.3652,-0.3195,-0.4057,0.153,-0.0314,-0.106,0.0405,1348,2019-08-07 16:53:16:385
-5.2523,-7.2835,2.3652,-0.3195,-0.4057,0.153,-0.0367,-0.0815,0.0469,1353,2019-08-07 16:53:16:390
-5.2523,-7.2835,2.3652,-0.2787,-0.4266,0.1716,-0.0367,-0.0815,0.0469,1358,2019-08-07 16:53:16:395
-5.2906,-7.2405,2.3652,-0.2787,-0.4266,0.1716,-0.0367,-0.0815,0.0469,1363,2019-08-07 16:53:16:400
-5.2906,-7.2405,2.3652,-0.2787,-0.4266,0.1716,-0.0388,-0.0507,0.0543,1368,2019-08-07 16:53:16:405
-5.4054,-7.2453,2.351,-0.2787,-0.4266,0.1716,-0.0388,-0.0475,0.0533,1372,2019-08-07 16:53:16:409
-5.4054,-7.2453,2.351,-0.1461,-0.3937,0.1756,-0.0388,-0.0475,0.0533,1378,2019-08-07 16:53:16:415
-5.4054,-7.2453,2.351,-0.1461,-0.3937,0.1756,-0.041,-0.0464,0.0501,1383,2019-08-07 16:53:16:420
-5.4437,-7.2692,2.3888,-0.1461,-0.3937,0.1756,-0.041,-0.0464,0.0501,1388,2019-08-07 16:53:16:425
-5.4437,-7.2692,2.3888,-0.1461,-0.3937,0.1756,-0.041,-0.0464,0.0501,1393,2019-08-07 16:53:16:430
-5.4437,-7.2692,2.3888,-0.1461,-0.3937,0.1756,-0.042,-0.0613,0.0501,1398,2019-08-07 16:53:16:435
-5.5489,-7.2501,2.3699,-0.0329,-0.4084,0.1652,-0.042,-0.0613,0.0501,1403,2019-08-07 16:53:16:440
-5.5489,-7.2501,2.3699,-0.0329,-0.4084,0.1652,-0.0442,-0.0762,0.0479,1408,2019-08-07 16:53:16:445
-5.5106,-7.2214,2.3605,-0.0739,-0.435,0.1751,-0.0442,-0.0762,0.0479,1413,2019-08-07 16:53:16:450
-5.5106,-7.2214,2.3605,-0.0739,-0.435,0.1751,-0.0516,-0.0922,0.0437,1418,2019-08-07 16:53:16:455
-5.5106,-7.2214,2.3605,-0.0739,-0.435,0.1751,-0.0516,-0.0922,0.0437,1423,2019-08-07 16:53:16:460
-5.5298,-7.2214,2.3652,-0.0739,-0.435,0.1751,-0.0516,-0.0922,0.0437,1428,2019-08-07 16:53:16:465
-5.5298,-7.2214,2.3652,-0.0253,-0.3932,0.2054,-0.0537,-0.105,0.0437,1433,2019-08-07 16:53:16:470
-5.5011,-7.3026,2.3652,-0.0253,-0.3932,0.2054,-0.0537,-0.105,0.0437,1438,2019-08-07 16:53:16:475
-5.5011,-7.3026,2.3652,-0.0253,-0.3932,0.2054,-0.0612,-0.1124,0.0341,1443,2019-08-07 16:53:16:480
-5.5011,-7.3026,2.3652,-0.1075,-0.3918,0.2263,-0.0612,-0.1124,0.0341,1448,2019-08-07 16:53:16:485
-5.4819,-7.2596,2.3133,-0.1075,-0.3918,0.2263,-0.0772,-0.1178,0.0266,1453,2019-08-07 16:53:16:490
-5.4819,-7.2596,2.3133,-0.1075,-0.3918,0.2263,-0.0772,-0.1178,0.0266,1458,2019-08-07 16:53:16:495
-5.4293,-7.2739,2.3039,-0.1931,-0.3922,0.2594,-0.0889,-0.1103,0.0245,1463,2019-08-07 16:53:16:500
-5.4293,-7.2739,2.3039,-0.1931,-0.3922,0.2594,-0.0889,-0.1103,0.0245,1469,2019-08-07 16:53:16:506
-5.4293,-7.2739,2.3039,-0.1931,-0.3922,0.2594,-0.0964,-0.1039,0.0181,1473,2019-08-07 16:53:16:510
-5.3862,-7.2262,2.2803,-0.1931,-0.3922,0.2594,-0.0964,-0.1039,0.0181,1478,2019-08-07 16:53:16:515
-5.3862,-7.2262,2.2803,-0.2489,-0.4231,0.1712,-0.1017,-0.0847,0.0181,1483,2019-08-07 16:53:16:520
-5.3384,-7.2071,2.2945,-0.2489,-0.4231,0.1712,-0.1017,-0.0847,0.0181,1488,2019-08-07 16:53:16:525
-5.3384,-7.2071,2.2945,-0.2489,-0.4231,0.1712,-0.1091,-0.0815,0.0096,1493,2019-08-07 16:53:16:530
-5.3384,-7.2071,2.2945,-0.2489,-0.4231,0.1712,-0.1091,-0.0815,0.0096,1498,2019-08-07 16:53:16:535
-5.3958,-7.2167,2.4076,-0.1897,-0.4411,0.1217,-0.1091,-0.0815,0.0096,1503,2019-08-07 16:53:16:540
-5.3958,-7.2167,2.4076,-0.1897,-0.4411,0.1217,-0.1187,-0.0847,0.0021,1508,2019-08-07 16:53:16:545
-5.3958,-7.2167,2.4076,-0.1897,-0.4411,0.1217,-0.1187,-0.0847,0.0021,1513,2019-08-07 16:53:16:550
-5.4101,-7.2549,2.4312,-0.1897,-0.4411,0.1217,-0.1272,-0.0975,-0.0032,1517,2019-08-07 16:53:16:554
-5.4101,-7.2549,2.4312,-0.1666,-0.3656,-0.0234,-0.1272,-0.0975,-0.0032,1523,2019-08-07 16:53:16:560
-5.3718,-7.2644,2.5349,-0.1666,-0.3656,-0.0234,-0.1272,-0.1156,-0.0032,1528,2019-08-07 16:53:16:565
-5.3718,-7.2644,2.5349,-0.1666,-0.3656,-0.0234,-0.1272,-0.1156,-0.0032,1533,2019-08-07 16:53:16:570
-5.3718,-7.2644,2.5349,-0.1666,-0.3656,-0.0234,-0.1209,-0.1391,-0.0021,1538,2019-08-07 16:53:16:575
-5.3001,-7.2453,2.45,-0.2748,-0.4243,0.0666,-0.1209,-0.1391,-0.0021,1543,2019-08-07 16:53:16:580
-5.3001,-7.2453,2.45,-0.2748,-0.4243,0.0666,-0.1187,-0.1572,-0.0021,1548,2019-08-07 16:53:16:585
-5.147,-7.3074,2.4972,-0.2748,-0.4243,0.0666,-0.1187,-0.1572,-0.0021,1554,2019-08-07 16:53:16:591
-5.147,-7.3074,2.4972,-0.2748,-0.4243,0.0666,-0.1187,-0.1572,-0.0021,1558,2019-08-07 16:53:16:595
-5.147,-7.3074,2.4972,-0.5007,-0.3777,0.0392,-0.1102,-0.1689,0.0138,1563,2019-08-07 16:53:16:600
-4.9413,-7.379,2.4642,-0.5007,-0.3777,0.0392,-0.1102,-0.1689,0.0138,1568,2019-08-07 16:53:16:605
-4.9413,-7.379,2.4642,-0.5007,-0.3777,0.0392,-0.09,-0.1753,0.0405,1573,2019-08-07 16:53:16:610
-4.9413,-7.379,2.4642,-0.5007,-0.3777,0.0392,-0.09,-0.1753,0.0405,1578,2019-08-07 16:53:16:615
-4.7881,-7.3551,2.4406,-0.8251,-0.2987,0.1395,-0.0719,-0.1614,0.0639,1583,2019-08-07 16:53:16:620
-4.7881,-7.3551,2.4406,-0.8251,-0.2987,0.1395,-0.0719,-0.1614,0.0639,1588,2019-08-07 16:53:16:625
-4.7881,-7.3551,2.4406,-0.8251,-0.2987,0.1395,-0.0719,-0.1614,0.0639,1593,2019-08-07 16:53:16:630
-4.6542,-7.484,2.3086,-0.8251,-0.2987,0.1395,-0.0495,-0.1295,0.0895,1598,2019-08-07 16:53:16:635
-4.6542,-7.484,2.3086,-0.9041,-0.08,0.2683,-0.0495,-0.1295,0.0895,1603,2019-08-07 16:53:16:640
-4.7452,-7.6558,2.2662,-0.9041,-0.08,0.2683,-0.0186,-0.0538,0.1268,1608,2019-08-07 16:53:16:645
-4.7452,-7.6558,2.2662,-0.9041,-0.08,0.2683,-0.0186,-0.0538,0.1268,1613,2019-08-07 16:53:16:650
-4.7452,-7.6558,2.2662,-0.9041,-0.08,0.2683,0.0017,-0.0134,0.1545,1618,2019-08-07 16:53:16:655
-4.8839,-7.7656,2.3275,-0.704,0.1273,0.2277,0.0017,-0.0134,0.1545,1622,2019-08-07 16:53:16:659
-4.8839,-7.7656,2.3275,-0.704,0.1273,0.2277,0.0379,0.0143,0.1821,1628,2019-08-07 16:53:16:665
-5.037,-7.9089,2.2992,-0.5487,0.2941,0.1488,0.0379,0.0143,0.1821,1633,2019-08-07 16:53:16:670
-5.037,-7.9089,2.2992,-0.5487,0.2941,0.1488,0.0677,0.0292,0.1928,1638,2019-08-07 16:53:16:675
-5.037,-7.9089,2.2992,-0.5487,0.2941,0.1488,0.0677,0.0292,0.1928,1643,2019-08-07 16:53:16:680
-5.2284,-8.0425,2.5726,-0.5487,0.2941,0.1488,0.0677,0.0292,0.1928,1648,2019-08-07 16:53:16:685
-5.2284,-8.0425,2.5726,-0.2705,0.4468,-0.1525,0.1252,0.0335,0.1992,1653,2019-08-07 16:53:16:690
-5.415,-8.1857,2.6763,-0.2705,0.4468,-0.1525,0.1252,0.0335,0.1992,1658,2019-08-07 16:53:16:695
-5.415,-8.1857,2.6763,-0.2705,0.4468,-0.1525,0.1753,0.0143,0.1917,1663,2019-08-07 16:53:16:700
-5.415,-8.1857,2.6763,-0.2705,0.4468,-0.1525,0.1753,0.0143,0.1917,1669,2019-08-07 16:53:16:706
-5.5202,-8.3576,2.8743,-0.1537,0.8149,-0.3461,0.2339,-0.0347,0.1843,1672,2019-08-07 16:53:16:709
-5.5202,-8.3576,2.8743,-0.1537,0.8149,-0.3461,0.2339,-0.0347,0.1843,1678,2019-08-07 16:53:16:715
-5.4484,-8.6249,2.978,-0.1537,0.8149,-0.3461,0.2797,-0.0698,0.1779,1683,2019-08-07 16:53:16:720
-5.4484,-8.6249,2.978,-0.1537,0.8149,-0.3461,0.2797,-0.0698,0.1779,1688,2019-08-07 16:53:16:725
-5.4484,-8.6249,2.978,-0.1537,0.8149,-0.3461,0.2797,-0.0698,0.1779,1693,2019-08-07 16:53:16:730
-5.1805,-9.236,3.275,-0.4099,1.5147,-0.5881,0.3649,-0.1263,0.1608,1698,2019-08-07 16:53:16:735
-5.1805,-9.236,3.275,-0.4099,1.5147,-0.5881,0.3649,-0.1263,0.1608,1703,2019-08-07 16:53:16:740
-4.8265,-9.7325,3.5201,-0.4099,1.5147,-0.5881,0.4448,-0.1433,0.1427,1708,2019-08-07 16:53:16:745
-4.8265,-9.7325,3.5201,-0.4099,1.5147,-0.5881,0.4448,-0.1433,0.1427,1713,2019-08-07 16:53:16:750
-4.8265,-9.7325,3.5201,-0.9453,2.3646,-0.9172,0.5332,-0.1273,0.1193,1718,2019-08-07 16:53:16:755
-4.6495,-10.2242,3.7699,-0.9453,2.3646,-0.9172,0.5332,-0.1273,0.1193,1724,2019-08-07 16:53:16:761
-4.6495,-10.2242,3.7699,-0.9453,2.3646,-0.9172,0.6621,-0.0933,0.0852,1728,2019-08-07 16:53:16:765
-4.549,-10.544,4.0197,-1.1553,3.17,-1.3578,0.6621,-0.0933,0.0852,1733,2019-08-07 16:53:16:770
-4.549,-10.544,4.0197,-1.1553,3.17,-1.3578,0.6621,-0.0933,0.0852,1737,2019-08-07 16:53:16:774
-4.549,-10.544,4.0197,-1.1553,3.17,-1.3578,0.8166,-0.0666,0.0373,1743,2019-08-07 16:53:16:780
-4.4916,-10.8925,4.4864,-1.1553,3.17,-1.3578,0.8166,-0.0666,0.0373,1748,2019-08-07 16:53:16:785
-4.4916,-10.8925,4.4864,-1.3574,3.7771,-2.1146,0.9742,-0.089,-0.0064,1754,2019-08-07 16:53:16:791
-4.4916,-10.8925,4.4864,-1.3574,3.7771,-2.1146,0.9742,-0.089,-0.0064,1758,2019-08-07 16:53:16:795
-4.1184,-11.4176,5.1605,-1.3574,3.7771,-2.1146,1.1489,-0.1167,-0.0565,1763,2019-08-07 16:53:16:800
-4.1184,-11.4176,5.1605,-1.3574,3.7771,-2.1146,1.1489,-0.1167,-0.0565,1768,2019-08-07 16:53:16:805
-4.1184,-11.4176,5.1605,-1.3574,3.7771,-2.1146,1.3844,-0.1295,-0.1193,1773,2019-08-07 16:53:16:810
-3.7979,-11.9523,5.6601,-1.8068,4.5538,-2.4843,1.3844,-0.1295,-0.1193,1778,2019-08-07 16:53:16:815
-3.7979,-11.9523,5.6601,-1.8068,4.5538,-2.4843,1.5473,-0.1242,-0.1566,1783,2019-08-07 16:53:16:820
-3.4821,-12.4488,6.1457,-1.8068,4.5538,-2.4843,1.5473,-0.1242,-0.1566,1787,2019-08-07 16:53:16:824
-3.4821,-12.4488,6.1457,-1.8068,4.5538,-2.4843,1.5473,-0.1242,-0.1566,1793,2019-08-07 16:53:16:830
-3.4821,-12.4488,6.1457,-2.2099,5.5714,-2.7222,1.8552,-0.0943,-0.2131,1798,2019-08-07 16:53:16:835
-3.2429,-12.9834,6.174,-2.2099,5.5714,-2.7222,1.8552,-0.0943,-0.2131,1802,2019-08-07 16:53:16:839
-3.2429,-12.9834,6.174,-2.2099,5.5714,-2.7222,2.1705,-0.0677,-0.2748,1808,2019-08-07 16:53:16:845
-2.8506,-13.7854,5.8676,-2.2099,5.5714,-2.7222,2.1705,-0.0677,-0.2748,1813,2019-08-07 16:53:16:850
-2.8506,-13.7854,5.8676,-2.8002,6.9223,-1.8429,2.4411,-0.0272,-0.3345,1818,2019-08-07 16:53:16:855
-2.8506,-13.7854,5.8676,-2.8002,6.9223,-1.8429,2.4411,-0.0272,-0.3345,1823,2019-08-07 16:53:16:860
-2.0325,-15.0123,5.3113,-2.8002,6.9223,-1.8429,2.7394,0.0197,-0.3867,1827,2019-08-07 16:53:16:864
-2.0325,-15.0123,5.3113,-2.8002,6.9223,-1.8429,2.7394,0.0197,-0.3867,1833,2019-08-07 16:53:16:870
-0.9082,-16.0673,5.3208,-4.4877,9.0088,-1.1617,3.1133,0.0463,-0.3963,1837,2019-08-07 16:53:16:874
-0.9082,-16.0673,5.3208,-4.4877,9.0088,-1.1617,3.1133,0.0463,-0.3963,1843,2019-08-07 16:53:16:880
-0.9082,-16.0673,5.3208,-4.4877,9.0088,-1.1617,3.5756,0.0729,-0.3505,1848,2019-08-07 16:53:16:885
1.5031,-17.8145,5.4056,-4.4877,9.0088,-1.1617,3.5756,0.0729,-0.3505,1853,2019-08-07 16:53:16:890
1.5031,-17.8145,5.4056,-9.0266,12.2301,-0.528,4.1572,0.188,-0.3686,1858,2019-08-07 16:53:16:895
5.8424,-20.3972,4.8965,-9.0266,12.2301,-0.528,4.1572,0.188,-0.3686,1863,2019-08-07 16:53:16:900
5.8424,-20.3972,4.8965,-9.0266,12.2301,-0.528,4.6132,0.6162,-0.4794,1868,2019-08-07 16:53:16:905
5.8424,-20.3972,4.8965,-9.0266,12.2301,-0.528,4.6132,0.6162,-0.4794,1873,2019-08-07 16:53:16:910
8.4977,-21.4522,1.8373,-13.7541,14.9884,3.3421,4.6132,0.6162,-0.4794,1878,2019-08-07 16:53:16:915
8.4977,-21.4522,1.8373,-13.7541,14.9884,3.3421,4.9626,1.641,-0.6125,1883,2019-08-07 16:53:16:920
8.4977,-21.4522,1.8373,-13.7541,14.9884,3.3421,5.23,3.2261,-0.6626,1888,2019-08-07 16:53:16:925
10.5071,-20.908,-1.9479,-13.7541,14.9884,3.3421,5.23,3.2261,-0.6626,1893,2019-08-07 16:53:16:930
10.5071,-20.908,-1.9479,-15.3098,14.1407,8.982,5.23,3.2261,-0.6626,1898,2019-08-07 16:53:16:935
7.5121,-18.3922,-5.323,-15.3098,14.1407,8.982,5.5751,5.0445,-0.49,1903,2019-08-07 16:53:16:940
7.5121,-18.3922,-5.323,-15.3098,14.1407,8.982,5.5751,5.0445,-0.49,1908,2019-08-07 16:53:16:945
7.5121,-18.3922,-5.323,-15.3098,14.1407,8.982,6.1013,7.2315,0.4314,1913,2019-08-07 16:53:16:950
-0.8507,-13.7377,-6.4968,-5.2229,8.2981,11.9518,6.1013,7.2315,0.4314,1918,2019-08-07 16:53:16:955
-0.8507,-13.7377,-6.4968,-5.2229,8.2981,11.9518,6.7512,8.9881,1.747,1924,2019-08-07 16:53:16:961
-5.9411,-11.0691,-2.1082,-0.6903,6.0675,7.3277,6.7512,8.9881,1.747,1928,2019-08-07 16:53:16:965
-5.9411,-11.0691,-2.1082,-0.6903,6.0675,7.3277,7.5885,9.867,3.0115,1933,2019-08-07 16:53:16:970
-5.9411,-11.0691,-2.1082,-0.6903,6.0675,7.3277,7.5885,9.867,3.0115,1937,2019-08-07 16:53:16:974
-10.2183,-7.4458,3.8359,-0.6903,6.0675,7.3277,7.5885,9.867,3.0115,1943,2019-08-07 16:53:16:980
-10.2183,-7.4458,3.8359,3.8095,1.5804,3.3144,8.104,7.8685,3.9212,1948,2019-08-07 16:53:16:985
-13.1797,-2.9584,-1.4436,3.8095,1.5804,3.3144,8.104,7.8685,3.9212,1953,2019-08-07 16:53:16:990
-13.1797,-2.9584,-1.4436,3.8095,1.5804,3.3144,6.7789,4.8986,4.1151,1958,2019-08-07 16:53:16:995
-13.1797,-2.9584,-1.4436,3.8095,1.5804,3.3144,6.7789,4.8986,4.1151,1963,2019-08-07 16:53:17:000
-15.8302,1.7868,-7.2274,7.242,-4.4777,11.7025,5.0201,2.7936,4.473,1968,2019-08-07 16:53:17:005
-15.8302,1.7868,-7.2274,7.242,-4.4777,11.7025,5.0201,2.7936,4.473,1972,2019-08-07 16:53:17:009
-14.0983,0.5121,-6.6664,7.242,-4.4777,11.7025,3.3934,0.9294,4.9258,1978,2019-08-07 16:53:17:015
-14.0983,0.5121,-6.6664,7.242,-4.4777,11.7025,3.3934,0.9294,4.9258,1984,2019-08-07 16:53:17:021
-14.0983,0.5121,-6.6664,3.0921,0.0325,4.1003,2.6158,-0.5982,4.914,1988,2019-08-07 16:53:17:025
-14.0983,0.5121,-6.6664,3.0921,0.0325,4.1003,2.6158,-0.5982,4.914,1993,2019-08-07 16:53:17:030
-12.0937,-1.2828,1.7807,3.0921,0.0325,4.1003,3.1847,-1.444,4.5401,1998,2019-08-07 16:53:17:035
-12.0937,-1.2828,1.7807,3.0921,0.0325,4.1003,3.1847,-1.444,4.5401,2003,2019-08-07 16:53:17:040
-11.1464,-0.5906,-3.0321,2.2704,0.3819,7.2046,4.1839,-0.9785,4.129,2008,2019-08-07 16:53:17:045
-11.1464,-0.5906,-3.0321,2.2704,0.3819,7.2046,4.1839,-0.9785,4.129,2013,2019-08-07 16:53:17:050
-11.1464,-0.5906,-3.0321,2.2704,0.3819,7.2046,4.48,-1.0168,3.7881,2018,2019-08-07 16:53:17:055
-11.0172,0.2639,-9.919,2.2704,0.3819,7.2046,4.48,-1.0168,3.7881,2023,2019-08-07 16:53:17:060
-11.0172,0.2639,-9.919,1.0571,0.0018,17.7159,3.9772,-0.9881,3.3396,2028,2019-08-07 16:53:17:065
-8.6825,1.3332,-13.7466,1.0571,0.0018,17.7159,3.9772,-0.9881,3.3396,2034,2019-08-07 16:53:17:071
-8.6825,1.3332,-13.7466,1.0571,0.0018,17.7159,3.9772,-0.9881,3.3396,2037,2019-08-07 16:53:17:074
-8.6825,1.3332,-13.7466,1.0571,0.0018,17.7159,3.0611,-1.5122,2.5066,2043,2019-08-07 16:53:17:080
-7.1085,2.6699,-10.1264,1.0571,0.0018,17.7159,3.0611,-1.5122,2.5066,2048,2019-08-07 16:53:17:085
-7.1085,2.6699,-10.1264,-1.4737,-1.2901,13.3862,2.6989,-2.2728,1.9675,2054,2019-08-07 16:53:17:091
-7.1085,2.6699,-10.1264,-1.4737,-1.2901,13.3862,2.6989,-2.2728,1.9675,2058,2019-08-07 16:53:17:095
-8.3237,3.3001,-3.8052,-1.4737,-1.2901,13.3862,2.7937,-3.3391,1.2378,2063,2019-08-07 16:53:17:100
-8.3237,3.3001,-3.8052,0.123,-1.3285,5.869,2.7937,-3.3391,1.2378,2069,2019-08-07 16:53:17:106
-8.204,4.4744,-8.5614,0.123,-1.3285,5.869,3.4648,-2.1961,0.6136,2073,2019-08-07 16:53:17:110
-8.204,4.4744,-8.5614,0.123,-1.3285,5.869,3.4648,-2.1961,0.6136,2078,2019-08-07 16:53:17:115
-8.204,4.4744,-8.5614,0.123,-1.3285,5.869,3.353,-0.0869,0.18,2084,2019-08-07 16:53:17:121
-5.898,6.6274,0.9181,0.123,-1.3285,5.869,3.353,-0.0869,0.18,2087,2019-08-07 16:53:17:124
-5.898,6.6274,0.9181,-1.3909,-4.521,6.0837,3.353,-0.0869,0.18,2093,2019-08-07 16:53:17:130
-7.1659,8.2601,-3.5695,-1.3909,-4.521,6.0837,2.8661,-1.1681,-0.2631,2098,2019-08-07 16:53:17:135
-7.1659,8.2601,-3.5695,-1.3193,-5.7756,8.2838,2.0459,-1.6773,-0.6338,2103,2019-08-07 16:53:17:140
-7.1659,8.2601,-3.5695,-1.3193,-5.7756,8.2838,2.0459,-1.6773,-0.6338,2108,2019-08-07 16:53:17:145
-5.8645,9.1098,-6.3412,-1.3193,-5.7756,8.2838,2.0459,-1.6773,-0.6338,2113,2019-08-07 16:53:17:150
-5.8645,9.1098,-6.3412,-1.3193,-5.7756,8.2838,1.2001,-0.7537,-1.0067,2118,2019-08-07 16:53:17:155
-5.8645,9.1098,-6.3412,-2.8452,-6.4551,5.2408,1.2001,-0.7537,-1.0067,2122,2019-08-07 16:53:17:159
-6.032,9.1909,2.5491,-2.8452,-6.4551,5.2408,0.7559,-0.8155,-1.4307,2128,2019-08-07 16:53:17:165
-6.032,9.1909,2.5491,-2.8452,-6.4551,5.2408,0.7559,-0.8155,-1.4307,2134,2019-08-07 16:53:17:171
-6.4004,8.9093,0.8568,-2.8452,-6.4551,5.2408,1.0062,-0.6014,-1.6075,2138,2019-08-07 16:53:17:175
-6.4004,8.9093,0.8568,-2.2431,-6.0512,4.2894,1.0062,-0.6014,-1.6075,2142,2019-08-07 16:53:17:179
-6.4004,8.9093,0.8568,-2.2431,-6.0512,4.2894,1.0062,-0.6014,-1.6075,2148,2019-08-07 16:53:17:185
-6.1133,9.1671,0.8002,-2.2431,-6.0512,4.2894,1.0552,-0.0198,-1.8472,2153,2019-08-07 16:53:17:190
-6.1133,9.1671,0.8002,-2.2431,-6.0512,4.2894,1.0552,-0.0198,-1.8472,2158,2019-08-07 16:53:17:195
-7.3955,9.4965,-0.4961,-0.9617,-6.882,5.0837,0.6419,-0.0826,-2.0357,2163,2019-08-07 16:53:17:200
-7.3955,9.4965,-0.4961,-0.9617,-6.882,5.0837,0.6419,-0.0826,-2.0357,2167,2019-08-07 16:53:17:204
-7.3955,9.4965,-0.4961,-0.9617,-6.882,5.0837,-0.1134,-0.2307,-2.0901,2173,2019-08-07 16:53:17:210
-7.2902,9.0955,0.1686,-0.9617,-6.882,5.0837,-0.1134,-0.2307,-2.0901,2178,2019-08-07 16:53:17:215
-7.2902,9.0955,0.1686,-1.6743,-6.2333,3.9545,-0.1134,-0.2307,-2.0901,2182,2019-08-07 16:53:17:219
-5.8932,7.7588,1.8986,-1.6743,-6.2333,3.9545,-0.6066,-0.4672,-2.0837,2188,2019-08-07 16:53:17:225
-5.8932,7.7588,1.8986,-1.6743,-6.2333,3.9545,-0.6066,-0.4672,-2.0837,2192,2019-08-07 16:53:17:229
-5.8932,7.7588,1.8986,-1.6743,-6.2333,3.9545,-0.4926,-0.2744,-1.9963,2198,2019-08-07 16:53:17:235
-5.2091,7.0045,2.4831,-3.1171,-5.0738,2.3318,-0.4926,-0.2744,-1.9963,2203,2019-08-07 16:53:17:240
-5.2091,7.0045,2.4831,-3.1171,-5.0738,2.3318,-0.1667,0.0729,-1.8152,2207,2019-08-07 16:53:17:244
-5.7066,7.0427,-0.053,-3.1171,-5.0738,2.3318,-0.1667,0.0729,-1.8152,2213,2019-08-07 16:53:17:250
-5.7066,7.0427,-0.053,-3.1171,-5.0738,2.3318,-0.368,0.2189,-1.501,2217,2019-08-07 16:53:17:254
-5.7066,7.0427,-0.053,-2.9868,-5.1071,5.3581,-0.368,0.2189,-1.501,2223,2019-08-07 16:53:17:260
-5.3861,6.3887,-0.5149,-2.9868,-5.1071,5.3581,-0.368,0.2189,-1.501,2227,2019-08-07 16:53:17:264
-5.3861,6.3887,-0.5149,-2.7173,-4.51,4.8857,-0.6418,0.2167,-1.3273,2233,2019-08-07 16:53:17:270
-5.3861,6.3887,-0.5149,-2.7173,-4.51,4.8857,-0.6418,0.2167,-1.3273,2238,2019-08-07 16:53:17:275
-6.7687,5.7395,1.5827,-2.7173,-4.51,4.8857,-0.7227,0.3488,-1.1398,2243,2019-08-07 16:53:17:280
-6.7687,5.7395,1.5827,-2.7173,-4.51,4.8857,-0.7227,0.3488,-1.1398,2248,2019-08-07 16:53:17:285
-7.6538,5.095,1.5874,-1.0422,-3.7937,2.8417,-0.4436,0.5747,-1.012,2253,2019-08-07 16:53:17:290
-7.6538,5.095,1.5874,-1.0422,-3.7937,2.8417,-0.4436,0.5747,-1.012,2258,2019-08-07 16:53:17:295
-7.6538,5.095,1.5874,-1.0422,-3.7937,2.8417,-0.4159,0.6823,-1.0046,2263,2019-08-07 16:53:17:300
-8.5532,5.5103,0.7248,-1.0422,-3.7937,2.8417,-0.4159,0.6823,-1.0046,2268,2019-08-07 16:53:17:305
-8.5532,5.5103,0.7248,0.5947,-4.6217,3.9313,-0.7036,0.6119,-1.093,2273,2019-08-07 16:53:17:310
-9.6727,5.7824,0.5787,0.5947,-4.6217,3.9313,-0.7036,0.6119,-1.093,2278,2019-08-07 16:53:17:315
-9.6727,5.7824,0.5787,0.5947,-4.6217,3.9313,-0.9837,0.5534,-1.1686,2283,2019-08-07 16:53:17:320
-9.6727,5.7824,0.5787,0.5947,-4.6217,3.9313,-0.9837,0.5534,-1.1686,2287,2019-08-07 16:53:17:324
-10.2899,5.9686,1.2009,1.5995,-5.0734,3.2612,-1.1467,0.547,-1.273,2293,2019-08-07 16:53:17:330
-10.2899,5.9686,1.2009,1.5995,-5.0734,3.2612,-1.1467,0.547,-1.273,2298,2019-08-07 16:53:17:335
-11.108,5.8111,1.6959,1.5995,-5.0734,3.2612,-1.2,0.4873,-1.3806,2303,2019-08-07 16:53:17:340
-11.108,5.8111,1.6959,1.5995,-5.0734,3.2612,-1.2,0.4873,-1.3806,2308,2019-08-07 16:53:17:345
-11.108,5.8111,1.6959,2.5309,-5.0023,2.7585,-1.2,0.4873,-1.3806,2313,2019-08-07 16:53:17:350
-11.2611,5.4339,1.4649,2.5309,-5.0023,2.7585,-1.282,0.3648,-1.469,2317,2019-08-07 16:53:17:354
-11.2611,5.4339,1.4649,2.5309,-5.0023,2.7585,-1.282,0.3648,-1.469,2323,2019-08-07 16:53:17:360
-11.2611,5.4339,1.4649,2.5309,-5.0023,2.7585,-1.4908,0.09,-1.6139,2328,2019-08-07 16:53:17:365
-10.9693,4.7226,1.3376,2.087,-4.3852,2.9335,-1.4908,0.09,-1.6139,2333,2019-08-07 16:53:17:370
-10.9693,4.7226,1.3376,2.087,-4.3852,2.9335,-1.6964,-0.106,-1.7609,2337,2019-08-07 16:53:17:374
-10.9262,3.7965,1.5639,2.1171,-3.7937,2.7531,-1.6964,-0.106,-1.7609,2343,2019-08-07 16:53:17:380
-10.9262,3.7965,1.5639,2.1171,-3.7937,2.7531,-1.8785,-0.2094,-1.9345,2348,2019-08-07 16:53:17:385
-10.9262,3.7965,1.5639,2.1171,-3.7937,2.7531,-1.8785,-0.2094,-1.9345,2352,2019-08-07 16:53:17:389
-11.0841,2.732,1.4649,2.1171,-3.7937,2.7531,-1.8785,-0.2094,-1.9345,2357,2019-08-07 16:53:17:394
-11.0841,2.732,1.4649,2.4974,-3.1243,3.3139,-2.1246,-0.3681,-2.2285,2363,2019-08-07 16:53:17:400
-11.0841,2.732,1.4649,2.4974,-3.1243,3.3139,-2.1246,-0.3681,-2.2285,2367,2019-08-07 16:53:17:404
-11.4764,2.4503,0.2676,2.4974,-3.1243,3.3139,-2.4282,-0.5343,-2.4533,2373,2019-08-07 16:53:17:410
-11.4764,2.4503,0.2676,2.4974,-3.1243,3.3139,-2.4282,-0.5343,-2.4533,2378,2019-08-07 16:53:17:415
-11.462,2.2021,-0.7223,2.7472,-3.3463,5.0788,-2.7979,-0.7069,-2.6589,2383,2019-08-07 16:53:17:420
-11.462,2.2021,-0.7223,2.7472,-3.3463,5.0788,-2.7979,-0.7069,-2.6589,2388,2019-08-07 16:53:17:425
-11.462,2.2021,-0.7223,2.7472,-3.3463,5.0788,-3.2293,-1.0147,-2.8112,2393,2019-08-07 16:53:17:430
-11.3328,2.0589,-0.1991,2.7472,-3.3463,5.0788,-3.2293,-1.0147,-2.8112,2398,2019-08-07 16:53:17:435
-11.3328,2.0589,-0.1991,2.4114,-3.5814,4.2109,-3.4253,-1.2555,-2.7889,2403,2019-08-07 16:53:17:440
-11.3328,2.0589,-0.1991,2.4114,-3.5814,4.2109,-3.4253,-1.2555,-2.7889,2408,2019-08-07 16:53:17:445
-10.6104,1.3476,0.8568,2.4114,-3.5814,4.2109,-3.4445,-1.4163,-2.7175,2413,2019-08-07 16:53:17:450
-10.6104,1.3476,0.8568,2.4114,-3.5814,4.2109,-3.4445,-1.4163,-2.7175,2417,2019-08-07 16:53:17:454
-9.6057,0.1111,1.4366,1.2748,-2.7549,3.0179,-3.4445,-1.4163,-2.7175,2423,2019-08-07 16:53:17:460
-9.6057,0.1111,1.4366,1.2748,-2.7549,3.0179,-3.3614,-1.444,-2.6472,2427,2019-08-07 16:53:17:464
-9.6057,0.1111,1.4366,1.2748,-2.7549,3.0179,-3.3614,-1.444,-2.6472,2433,2019-08-07 16:53:17:470
-9.2373,-0.2183,0.8285,1.2748,-2.7549,3.0179,-3.5031,-1.5239,-2.5918,2438,2019-08-07 16:53:17:475
-9.2373,-0.2183,0.8285,1.1032,-3.2995,3.5302,-3.5031,-1.5239,-2.5918,2443,2019-08-07 16:53:17:480
-9.1608,-0.0941,0.9841,1.1032,-3.2995,3.5302,-3.7374,-1.7668,-2.5492,2448,2019-08-07 16:53:17:485
-9.1608,-0.0941,0.9841,1.1032,-3.2995,3.5302,-3.7374,-1.7668,-2.5492,2453,2019-08-07 16:53:17:490
-9.1608,-0.0941,0.9841,1.1032,-3.2995,3.5302,-3.7374,-1.7668,-2.5492,2458,2019-08-07 16:53:17:495
-9.1751,-0.2755,0.9558,1.1032,-3.2995,3.5302,-4.0091,-2.1109,-2.4565,2462,2019-08-07 16:53:17:499
-9.1751,-0.2755,0.9558,1.3878,-3.6343,3.4858,-4.3148,-2.5636,-2.268,2468,2019-08-07 16:53:17:505
-8.6201,-1.469,0.8238,1.3878,-3.6343,3.4858,-4.3148,-2.5636,-2.268,2473,2019-08-07 16:53:17:510
-8.6201,-1.469,0.8238,1.3878,-3.6343,3.4858,-4.3148,-2.5636,-2.268,2477,2019-08-07 16:53:17:514
-8.6201,-1.469,0.8238,0.8154,-1.8293,2.8561,-4.5928,-3.0792,-2.0315,2483,2019-08-07 16:53:17:520
-8.2518,-3.3356,1.2198,0.8154,-1.8293,2.8561,-4.5928,-3.0792,-2.0315,2488,2019-08-07 16:53:17:525
-8.2518,-3.3356,1.2198,0.8154,-1.8293,2.8561,-4.6887,-3.6651,-1.7737,2493,2019-08-07 16:53:17:530
-8.2518,-3.3356,1.2198,0.8154,-1.8293,2.8561,-4.6887,-3.6651,-1.7737,2497,2019-08-07 16:53:17:534
-7.8451,-4.8727,1.1397,0.8154,-1.8293,2.8561,-4.6077,-3.8856,-1.4754,2502,2019-08-07 16:53:17:539
-7.8451,-4.8727,1.1397,0.8071,-0.0636,3.2918,-4.6077,-3.8856,-1.4754,2508,2019-08-07 16:53:17:545
-7.448,-6.1664,0.8144,0.8071,-0.0636,3.2918,-4.5428,-4.3373,-1.1324,2513,2019-08-07 16:53:17:550
-7.448,-6.1664,0.8144,0.8071,-0.0636,3.2918,-4.5428,-4.3373,-1.1324,2518,2019-08-07 16:53:17:555
-7.448,-6.1664,0.8144,0.8071,-0.0636,3.2918,-4.4874,-4.6526,-0.7457,2522,2019-08-07 16:53:17:559
-6.7686,-7.2501,0.7673,0.4734,1.2244,3.738,-4.4874,-4.6526,-0.7457,2528,2019-08-07 16:53:17:565
-6.7686,-7.2501,0.7673,0.4734,1.2244,3.738,-4.384,-4.8379,-0.2695,2533,2019-08-07 16:53:17:570
-5.6778,-7.8182,0.145,0.4734,1.2244,3.738,-4.384,-4.8379,-0.2695,2537,2019-08-07 16:53:17:574
-5.6778,-7.8182,0.145,0.4734,1.2244,3.738,-4.351,-4.8795,0.049,2543,2019-08-07 16:53:17:580
-5.6778,-7.8182,0.145,-0.8685,1.556,4.8756,-4.351,-4.8795,0.049,2548,2019-08-07 16:53:17:585
-4.5966,-8.224,-0.2509,-0.8685,1.556,4.8756,-4.3489,-4.872,0.3036,2553,2019-08-07 16:53:17:590
-4.5966,-8.224,-0.2509,-0.8685,1.556,4.8756,-4.3489,-4.872,0.3036,2557,2019-08-07 16:53:17:594
-4.2378,-9.0021,0.0319,-0.8685,1.556,4.8756,-4.3489,-4.872,0.3036,2563,2019-08-07 16:53:17:600
-4.2378,-9.0021,0.0319,-1.1831,2.4017,4.3561,-4.2381,-4.8071,0.5742,2567,2019-08-07 16:53:17:604
-4.2378,-9.0021,0.0319,-1.1831,2.4017,4.3561,-4.2381,-4.8071,0.5742,2573,2019-08-07 16:53:17:610
-3.9316,-10.5202,0.0932,-1.1831,2.4017,4.3561,-4.0613,-4.692,0.7553,2577,2019-08-07 16:53:17:614
-3.9316,-10.5202,0.0932,-1.1831,2.4017,4.3561,-4.0613,-4.692,0.7553,2584,2019-08-07 16:53:17:621
-3.9316,-10.5202,0.0932,-1.6294,4.6963,4.006,-3.7587,-4.578,0.9172,2588,2019-08-07 16:53:17:625
-3.1422,-12.2722,0.4137,-1.6294,4.6963,4.006,-3.7587,-4.578,0.9172,2593,2019-08-07 16:53:17:630
-3.1422,-12.2722,0.4137,-1.6294,4.6963,4.006,-3.4711,-4.431,1.0056,2598,2019-08-07 16:53:17:635
-1.9224,-12.7782,0.5645,-1.6294,4.6963,4.006,-3.4711,-4.431,1.0056,2602,2019-08-07 16:53:17:639
-1.9224,-12.7782,0.5645,-3.1989,5.3816,3.7691,-3.4711,-4.431,1.0056,2608,2019-08-07 16:53:17:645
-1.9224,-12.7782,0.5645,-3.1989,5.3816,3.7691,-3.1728,-4.2552,1.0684,2612,2019-08-07 16:53:17:649
-0.3436,-12.7113,-0.4631,-3.1989,5.3816,3.7691,-3.1728,-4.2552,1.0684,2618,2019-08-07 16:53:17:655
-0.3436,-12.7113,-0.4631,-3.1989,5.3816,3.7691,-2.8565,-3.8078,1.0951,2622,2019-08-07 16:53:17:659
0.2305,-12.6731,-1.2126,-4.9477,5.1068,5.2481,-2.8565,-3.8078,1.0951,2628,2019-08-07 16:53:17:665
0.2305,-12.6731,-1.2126,-4.9477,5.1068,5.2481,-2.6466,-3.3349,1.0898,2633,2019-08-07 16:53:17:670
0.2305,-12.6731,-1.2126,-4.9477,5.1068,5.2481,-2.6466,-3.3349,1.0898,2638,2019-08-07 16:53:17:675
-0.3005,-12.8593,-1.255,-4.9477,5.1068,5.2481,-2.3334,-2.5583,1.1398,2644,2019-08-07 16:53:17:681
-0.3005,-12.8593,-1.255,-4.1262,5.4484,5.0063,-2.3334,-2.5583,1.1398,2648,2019-08-07 16:53:17:685
-0.3005,-12.8593,-1.255,-4.1262,5.4484,5.0063,-2.3334,-2.5583,1.1398,2652,2019-08-07 16:53:17:689
-0.5302,-13.3701,-0.8967,-4.1262,5.4484,5.0063,-2.098,-2.0715,1.192,2658,2019-08-07 16:53:17:695
-0.5302,-13.3701,-0.8967,-4.1262,5.4484,5.0063,-2.098,-2.0715,1.192,2663,2019-08-07 16:53:17:700
-0.1713,-13.3224,0.0554,-4.3605,5.5025,3.7588,-1.8785,-1.7359,1.2048,2668,2019-08-07 16:53:17:705
-0.1713,-13.3224,0.0554,-4.3605,5.5025,3.7588,-1.8785,-1.7359,1.2048,2673,2019-08-07 16:53:17:710
-0.1713,-13.3224,0.0554,-4.3605,5.5025,3.7588,-1.641,-1.5005,1.1728,2678,2019-08-07 16:53:17:715
0.2353,-12.9548,0.2016,-4.3605,5.5025,3.7588,-1.641,-1.5005,1.1728,2683,2019-08-07 16:53:17:720
0.2353,-12.9548,0.2016,-4.3605,5.5025,3.7588,-1.4397,-1.2374,1.1228,2688,2019-08-07 16:53:17:725
0.7185,-12.6254,0.2534,-5.0596,4.8761,3.4814,-1.4397,-1.2374,1.1228,2693,2019-08-07 16:53:17:730
0.7185,-12.6254,0.2534,-5.0596,4.8761,3.4814,-1.2948,-0.9391,1.0695,2698,2019-08-07 16:53:17:735
0.7185,-12.6254,0.2534,-5.0596,4.8761,3.4814,-1.2948,-0.9391,1.0695,2703,2019-08-07 16:53:17:740
1.2304,-12.549,0.1026,-6.0038,4.6123,3.3998,-1.1733,-0.5758,0.9864,2707,2019-08-07 16:53:17:744
1.2304,-12.549,0.1026,-6.0038,4.6123,3.3998,-1.1733,-0.5758,0.9864,2713,2019-08-07 16:53:17:750
1.3883,-12.549,0.2864,-6.0038,4.6123,3.3998,-1.0274,-0.0954,0.882,2718,2019-08-07 16:53:17:755
1.3883,-12.549,0.2864,-6.0038,4.6123,3.3998,-1.0274,-0.0954,0.882,2723,2019-08-07 16:53:17:760
1.3883,-12.549,0.2864,-5.2432,4.8001,2.8544,-0.8538,0.434,0.7638,2728,2019-08-07 16:53:17:765
0.1588,-12.7448,0.6211,-5.2432,4.8001,2.8544,-0.8538,0.434,0.7638,2733,2019-08-07 16:53:17:770
0.1588,-12.7448,0.6211,-5.2432,4.8001,2.8544,-0.6396,0.8548,0.6381,2737,2019-08-07 16:53:17:774
-2.2238,-12.7113,1.9975,-5.2432,4.8001,2.8544,-0.6396,0.8548,0.6381,2743,2019-08-07 16:53:17:780
-2.2238,-12.7113,1.9975,-1.7811,4.6419,0.4201,-0.4362,0.792,0.5763,2748,2019-08-07 16:53:17:785
-2.2238,-12.7113,1.9975,-1.7811,4.6419,0.4201,-0.4362,0.792,0.5763,2753,2019-08-07 16:53:17:790
-4.037,-12.1576,3.4164,-1.7811,4.6419,0.4201,-0.2466,0.3829,0.5316,2758,2019-08-07 16:53:17:795
-4.037,-12.1576,3.4164,-1.7811,4.6419,0.4201,-0.2466,0.3829,0.5316,2763,2019-08-07 16:53:17:800
-4.7786,-11.2267,3.7322,-0.196,3.3464,-0.6679,-0.1272,-0.1945,0.4815,2768,2019-08-07 16:53:17:805
-4.7786,-11.2267,3.7322,-0.196,3.3464,-0.6679,-0.1272,-0.1945,0.4815,2773,2019-08-07 16:53:17:810
-4.7786,-11.2267,3.7322,-0.196,3.3464,-0.6679,-0.0836,-0.6941,0.4165,2778,2019-08-07 16:53:17:815
-4.1423,-10.4247,3.11,-0.196,3.3464,-0.6679,-0.0836,-0.6941,0.4165,2783,2019-08-07 16:53:17:820
-4.1423,-10.4247,3.11,-1.5582,2.2864,0.5401,-0.0836,-0.6941,0.4165,2788,2019-08-07 16:53:17:825
-2.9892,-9.9807,2.2851,-1.5582,2.2864,0.5401,-0.0708,-0.9998,0.2993,2794,2019-08-07 16:53:17:831
-2.9892,-9.9807,2.2851,-1.5582,2.2864,0.5401,-0.0708,-0.9998,0.2993,2799,2019-08-07 16:53:17:836
-2.9892,-9.9807,2.2851,-1.5582,2.2864,0.5401,-0.0229,-0.8997,0.1939,2802,2019-08-07 16:53:17:839
-2.2812,-9.89,1.8655,-1.5582,2.2864,0.5401,-0.0229,-0.8997,0.1939,2808,2019-08-07 16:53:17:845
-2.2812,-9.89,1.8655,-2.7666,2.116,1.4018,0.0336,-0.5886,0.0916,2813,2019-08-07 16:53:17:850
-2.2812,-9.89,1.8655,-2.7666,2.116,1.4018,0.0336,-0.5886,0.0916,2817,2019-08-07 16:53:17:854
-2.085,-9.68,1.6629,-2.7666,2.116,1.4018,0.0858,-0.1572,-0.0234,2823,2019-08-07 16:53:17:860
-2.085,-9.68,1.6629,-2.5713,1.4607,1.5462,0.0858,-0.1572,-0.0234,2828,2019-08-07 16:53:17:865
-2.4534,-9.2026,1.6911,-2.5713,1.4607,1.5462,0.1178,0.2828,-0.1076,2833,2019-08-07 16:53:17:870
-2.4534,-9.2026,1.6911,-2.5713,1.4607,1.5462,0.1178,0.2828,-0.1076,2838,2019-08-07 16:53:17:875
-2.4534,-9.2026,1.6911,-2.5713,1.4607,1.5462,0.1252,0.6215,-0.1662,2843,2019-08-07 16:53:17:880
-2.8649,-8.8445,2.04,-1.8187,0.9019,1.0274,0.1252,0.6215,-0.1662,2848,2019-08-07 16:53:17:885
-2.8649,-8.8445,2.04,-1.8187,0.9019,1.0274,0.1071,0.8665,-0.2024,2853,2019-08-07 16:53:17:890
-2.8649,-8.8445,2.04,-1.8187,0.9019,1.0274,0.1071,0.8665,-0.2024,2858,2019-08-07 16:53:17:895
-3.7164,-8.6202,2.6575,-1.8187,0.9019,1.0274,0.1071,0.8665,-0.2024,2863,2019-08-07 16:53:17:900
-3.7164,-8.6202,2.6575,-1.8187,0.9019,1.0274,0.0869,0.9454,-0.2077,2868,2019-08-07 16:53:17:905
-4.8934,-8.3003,3.3881,-0.2659,0.4426,-0.1188,0.0869,0.9454,-0.2077,2872,2019-08-07 16:53:17:909
-4.8934,-8.3003,3.3881,-0.2659,0.4426,-0.1188,0.0549,0.8271,-0.1854,2878,2019-08-07 16:53:17:915
-4.8934,-8.3003,3.3881,-0.2659,0.4426,-0.1188,0.0549,0.8271,-0.1854,2883,2019-08-07 16:53:17:920
-5.5105,-7.9375,3.9726,-0.2659,0.4426,-0.1188,0.0176,0.5352,-0.1428,2888,2019-08-07 16:53:17:925
-5.5105,-7.9375,3.9726,0.6007,-0.0373,-0.8537,0.0176,0.5352,-0.1428,2893,2019-08-07 16:53:17:930
-5.3335,-7.7466,3.7746,0.6007,-0.0373,-0.8537,-0.025,0.1709,-0.0959,2899,2019-08-07 16:53:17:936
-5.3335,-7.7466,3.7746,0.6007,-0.0373,-0.8537,-0.025,0.1709,-0.0959,2902,2019-08-07 16:53:17:939
-5.3335,-7.7466,3.7746,0.6007,-0.0373,-0.8537,-0.0846,-0.1817,-0.0511,2908,2019-08-07 16:53:17:945
-4.458,-7.7657,3.3033,-0.4766,-0.1513,-0.2689,-0.0846,-0.1817,-0.0511,2915,2019-08-07 16:53:17:952
-4.458,-7.7657,3.3033,-0.4766,-0.1513,-0.2689,-0.123,-0.3042,-0.0277,2917,2019-08-07 16:53:17:954
-3.6112,-7.8659,2.8554,-0.4766,-0.1513,-0.2689,-0.123,-0.3042,-0.0277,2923,2019-08-07 16:53:17:960
-3.6112,-7.8659,2.8554,-0.4766,-0.1513,-0.2689,-0.1209,-0.2339,-0.0043,2928,2019-08-07 16:53:17:965
-3.6112,-7.8659,2.8554,-1.6921,0.0256,0.3958,-0.1209,-0.2339,-0.0043,2932,2019-08-07 16:53:17:969
-3.128,-7.9709,2.5868,-1.6921,0.0256,0.3958,-0.0825,-0.0261,0.0106,2938,2019-08-07 16:53:17:975
-3.128,-7.9709,2.5868,-1.6921,0.0256,0.3958,-0.0825,-0.0261,0.0106,2943,2019-08-07 16:53:17:980
-3.2954,-7.9375,2.6103,-1.6921,0.0256,0.3958,-0.0431,0.1763,0.0437,2948,2019-08-07 16:53:17:985
-3.2954,-7.9375,2.6103,-1.5791,0.0348,0.4248,-0.0431,0.1763,0.0437,2953,2019-08-07 16:53:17:990
-3.2954,-7.9375,2.6103,-1.5791,0.0348,0.4248,-0.0431,0.1763,0.0437,2958,2019-08-07 16:53:17:995
-3.3098,-7.9948,2.7046,-1.5791,0.0348,0.4248,-0.0271,0.3382,0.0564,2963,2019-08-07 16:53:18:000
-3.3098,-7.9948,2.7046,-1.5791,0.0348,0.4248,-0.0271,0.3382,0.0564,2968,2019-08-07 16:53:18:005
-3.7834,-7.8707,2.7895,-1.2501,-0.0865,0.1791,0.0134,0.4862,0.0426,2973,2019-08-07 16:53:18:010
-3.7834,-7.8707,2.7895,-1.2501,-0.0865,0.1791,0.0134,0.4862,0.0426,2978,2019-08-07 16:53:18:015
-3.7834,-7.8707,2.7895,-1.2501,-0.0865,0.1791,0.0624,0.5821,0.0564,2983,2019-08-07 16:53:18:020
-4.3001,-7.8229,3.0723,-1.2501,-0.0865,0.1791,0.0624,0.5821,0.0564,2989,2019-08-07 16:53:18:026
-4.3001,-7.8229,3.0723,-0.3842,-0.166,-0.1736,0.1082,0.6162,0.0778,2993,2019-08-07 16:53:18:030
-4.7977,-7.7848,3.341,-0.3842,-0.166,-0.1736,0.1082,0.6162,0.0778,2998,2019-08-07 16:53:18:035
-4.7977,-7.7848,3.341,-0.3842,-0.166,-0.1736,0.1412,0.5225,0.1086,3003,2019-08-07 16:53:18:040
-4.7977,-7.7848,3.341,-0.3842,-0.166,-0.1736,0.1412,0.5225,0.1086,3008,2019-08-07 16:53:18:045
-4.7977,-7.7848,3.341,-0.3842,-0.166,-0.1736,0.1412,0.5225,0.1086,3013,2019-08-07 16:53:18:050
-4.9843,-7.7657,3.4117,-0.0205,-0.1521,-0.4965,0.1508,0.4085,0.1161,3017,2019-08-07 16:53:18:054
-4.9843,-7.7657,3.4117,-0.0205,-0.1521,-0.4965,0.1508,0.4085,0.1161,3023,2019-08-07 16:53:18:060
-4.9843,-7.7657,3.4117,-0.0205,-0.1521,-0.4965,0.1508,0.4085,0.1161,3028,2019-08-07 16:53:18:065
-5.0464,-7.8707,3.1854,0.0052,-0.0238,-0.2701,0.1817,0.1826,0.1257,3032,2019-08-07 16:53:18:069
-5.0464,-7.8707,3.1854,0.0052,-0.0238,-0.2701,0.1817,0.1826,0.1257,3038,2019-08-07 16:53:18:075
-5.0464,-7.8707,3.1854,0.0052,-0.0238,-0.2701,0.2083,0.0825,0.1214,3043,2019-08-07 16:53:18:080
-4.9699,-7.9853,3.0959,0.0052,-0.0238,-0.2701,0.2211,-0.0155,0.1182,3048,2019-08-07 16:53:18:085
-4.9699,-7.9853,3.0959,-0.2517,0.1345,-0.106,0.2211,-0.0155,0.1182,3053,2019-08-07 16:53:18:090
-4.6781,-7.9471,2.9356,-0.2517,0.1345,-0.106,0.2211,-0.0155,0.1182,3058,2019-08-07 16:53:18:095
-4.6781,-7.9471,2.9356,-0.5442,0.0981,0.0329,0.2222,-0.0858,0.1044,3064,2019-08-07 16:53:18:101
-4.6781,-7.9471,2.9356,-0.5442,0.0981,0.0329,0.2254,-0.0805,0.0991,3069,2019-08-07 16:53:18:106
-4.2953,-7.9089,2.8366,-0.5442,0.0981,0.0329,0.2254,-0.0805,0.0991,3073,2019-08-07 16:53:18:110
-4.2953,-7.9089,2.8366,-0.5442,0.0981,0.0329,0.2254,-0.0805,0.0991,3078,2019-08-07 16:53:18:115
-4.1374,-7.9041,2.6386,-0.9387,0.0651,0.3647,0.22,0.0399,0.0778,3082,2019-08-07 16:53:18:119
-4.1374,-7.9041,2.6386,-0.9387,0.0651,0.3647,0.22,0.0399,0.0778,3088,2019-08-07 16:53:18:125
-4.1374,-7.9041,2.6386,-0.9387,0.0651,0.3647,0.2126,0.1763,0.0586,3093,2019-08-07 16:53:18:130
-4.3862,-7.8659,2.681,-0.9387,0.0651,0.3647,0.2126,0.1763,0.0586,3099,2019-08-07 16:53:18:136
-4.3862,-7.8659,2.681,-0.6294,0.1189,0.2179,0.1966,0.2636,0.0458,3103,2019-08-07 16:53:18:140
-4.568,-7.8946,2.8272,-0.6294,0.1189,0.2179,0.1966,0.2636,0.0458,3108,2019-08-07 16:53:18:145
-4.568,-7.8946,2.8272,-0.6294,0.1189,0.2179,0.1891,0.2945,0.017,3113,2019-08-07 16:53:18:150
-4.568,-7.8946,2.8272,-0.6294,0.1189,0.2179,0.1891,0.2945,0.017,3117,2019-08-07 16:53:18:154
-4.8407,-7.8802,2.8649,-0.2159,0.0387,0.1172,0.1838,0.3041,-0.0213,3123,2019-08-07 16:53:18:160
-4.8407,-7.8802,2.8649,-0.2159,0.0387,0.1172,0.1838,0.3041,-0.0213,3128,2019-08-07 16:53:18:165
-4.922,-7.7418,2.8743,-0.2159,0.0387,0.1172,0.1742,0.2902,-0.0384,3133,2019-08-07 16:53:18:170
-4.922,-7.7418,2.8743,-0.2159,0.0387,0.1172,0.1742,0.2902,-0.0384,3138,2019-08-07 16:53:18:175
-4.922,-7.7418,2.8743,-0.2311,-0.0702,0.0341,0.1636,0.2838,-0.0522,3144,2019-08-07 16:53:18:181
-4.922,-7.6941,2.9969,-0.2311,-0.0702,0.0341,0.1636,0.2838,-0.0522,3147,2019-08-07 16:53:18:184
-4.922,-7.6941,2.9969,-0.2311,-0.0702,0.0341,0.1455,0.2796,-0.0735,3153,2019-08-07 16:53:18:190
-4.989,-7.675,3.0299,-0.2311,-0.0702,0.0341,0.1455,0.2796,-0.0735,3158,2019-08-07 16:53:18:195
-4.989,-7.675,3.0299,-0.1539,-0.1506,-0.0699,0.1242,0.2551,-0.0927,3163,2019-08-07 16:53:18:200
-4.989,-7.675,3.0299,-0.1539,-0.1506,-0.0699,0.1242,0.2551,-0.0927,3168,2019-08-07 16:53:18:205
-4.8742,-7.6606,3.0911,-0.1539,-0.1506,-0.0699,0.1029,0.205,-0.1097,3172,2019-08-07 16:53:18:209
-4.8742,-7.6606,3.0911,-0.1539,-0.1506,-0.0699,0.1029,0.205,-0.1097,3178,2019-08-07 16:53:18:215
-4.8742,-7.6606,3.0911,-0.1539,-0.1506,-0.0699,0.1029,0.205,-0.1097,3182,2019-08-07 16:53:18:219
-4.745,-7.6702,3.011,-0.3723,-0.1423,-0.0086,0.0794,0.1837,-0.1332,3188,2019-08-07 16:53:18:225
-4.745,-7.6702,3.011,-0.3723,-0.1423,-0.0086,0.0794,0.1837,-0.1332,3193,2019-08-07 16:53:18:230
-4.6733,-7.5938,2.9544,-0.3723,-0.1423,-0.0086,0.0688,0.2018,-0.1438,3198,2019-08-07 16:53:18:235
-4.6733,-7.5938,2.9544,-0.4937,-0.2588,0.1147,0.0688,0.2018,-0.1438,3203,2019-08-07 16:53:18:240
-4.6733,-7.5938,2.9544,-0.4937,-0.2588,0.1147,0.0549,0.2082,-0.1481,3207,2019-08-07 16:53:18:244
-4.6158,-7.6511,2.9639,-0.4937,-0.2588,0.1147,0.0549,0.2082,-0.1481,3213,2019-08-07 16:53:18:250
-4.6158,-7.6511,2.9639,-0.4937,-0.2588,0.1147,0.0389,0.205,-0.147,3217,2019-08-07 16:53:18:254
-4.4771,-7.5317,2.9827,-0.6291,-0.3395,0.0488,0.0389,0.205,-0.147,3223,2019-08-07 16:53:18:260
-4.4771,-7.5317,2.9827,-0.6291,-0.3395,0.0488,0.0304,0.2348,-0.1396,3227,2019-08-07 16:53:18:264
-4.4771,-7.5317,2.9827,-0.6291,-0.3395,0.0488,0.0304,0.2348,-0.1396,3233,2019-08-07 16:53:18:270
-4.4867,-7.4363,2.9639,-0.6002,-0.4082,0.0066,0.0251,0.2689,-0.1289,3237,2019-08-07 16:53:18:274
-4.4867,-7.4363,2.9639,-0.6002,-0.4082,0.0066,0.0251,0.2689,-0.1289,3243,2019-08-07 16:53:18:280
-4.7498,-7.336,3.0959,-0.6002,-0.4082,0.0066,0.0144,0.2625,-0.1033,3248,2019-08-07 16:53:18:285
-4.7498,-7.336,3.0959,-0.6002,-0.4082,0.0066,0.0144,0.2625,-0.1033,3253,2019-08-07 16:53:18:290
-4.7498,-7.336,3.0959,-0.2433,-0.5378,-0.1664,0.0144,0.2625,-0.1033,3257,2019-08-07 16:53:18:294
-4.879,-7.3599,3.2184,-0.2433,-0.5378,-0.1664,-0.0122,0.1741,-0.0661,3263,2019-08-07 16:53:18:300
-4.879,-7.3599,3.2184,-0.2433,-0.5378,-0.1664,-0.0122,0.1741,-0.0661,3268,2019-08-07 16:53:18:305
-4.9651,-7.2549,3.242,-0.2433,-0.5378,-0.1664,-0.0346,0.0601,-0.0256,3272,2019-08-07 16:53:18:309
-4.9651,-7.2549,3.242,-0.1527,-0.5381,-0.2512,-0.0346,0.0601,-0.0256,3278,2019-08-07 16:53:18:315
-4.9651,-7.2549,3.242,-0.1527,-0.5381,-0.2512,-0.0527,-0.0166,0.0064,3283,2019-08-07 16:53:18:320
-4.8551,-7.3694,2.9592,-0.1527,-0.5381,-0.2512,-0.0527,-0.0166,0.0064,3287,2019-08-07 16:53:18:324
-4.8551,-7.3694,2.9592,-0.1527,-0.5381,-0.2512,-0.0612,-0.0507,0.0288,3293,2019-08-07 16:53:18:330
-4.7737,-7.4554,2.7093,-0.2681,-0.4109,0.1817,-0.0612,-0.0507,0.0288,3298,2019-08-07 16:53:18:335
-4.7737,-7.4554,2.7093,-0.2681,-0.4109,0.1817,-0.0537,-0.0549,0.0383,3303,2019-08-07 16:53:18:340
-4.7737,-7.4554,2.7093,-0.2681,-0.4109,0.1817,-0.0537,-0.0549,0.0383,3308,2019-08-07 16:53:18:345
-4.6972,-7.5604,2.6716,-0.2681,-0.4109,0.1817,-0.041,-0.0315,0.0458,3313,2019-08-07 16:53:18:350
-4.6972,-7.5604,2.6716,-0.4285,-0.2866,0.3004,-0.041,-0.0315,0.0458,3317,2019-08-07 16:53:18:354
-4.6541,-7.6081,2.5255,-0.4285,-0.2866,0.3004,-0.041,-0.0315,0.0458,3323,2019-08-07 16:53:18:360
-4.6541,-7.6081,2.5255,-0.4285,-0.2866,0.3004,-0.0186,0.0399,0.0405,3327,2019-08-07 16:53:18:364
-4.6541,-7.6081,2.5255,-0.4285,-0.2866,0.3004,-0.0186,0.0399,0.0405,3333,2019-08-07 16:53:18:370
-4.7498,-7.4936,2.6151,-0.3452,-0.366,0.3013,-0.0079,0.1006,0.0415,3338,2019-08-07 16:53:18:375
-4.7498,-7.4936,2.6151,-0.3452,-0.366,0.3013,-0.0079,0.1006,0.0415,3344,2019-08-07 16:53:18:381
-4.7498,-7.4936,2.6151,-0.3452,-0.366,0.3013,-5.0E-4,0.1432,0.0437,3348,2019-08-07 16:53:18:385
-4.8168,-7.5986,2.6245,-0.3452,-0.366,0.3013,-5.0E-4,0.1432,0.0437,3352,2019-08-07 16:53:18:389
-4.8168,-7.5986,2.6245,-0.1966,-0.2385,0.1584,0.0123,0.1699,0.0319,3358,2019-08-07 16:53:18:395
-5.2139,-7.5031,2.7659,-0.1966,-0.2385,0.1584,0.0123,0.1699,0.0319,3363,2019-08-07 16:53:18:400
-5.2139,-7.5031,2.7659,-0.1966,-0.2385,0.1584,0.024,0.1752,0.0256,3368,2019-08-07 16:53:18:405
-5.2139,-7.5031,2.7659,-0.1966,-0.2385,0.1584,0.024,0.1752,0.0256,3373,2019-08-07 16:53:18:410
-5.5105,-7.5031,2.8696,0.3849,-0.3477,0.0164,0.0304,0.1422,0.0181,3378,2019-08-07 16:53:18:415
-5.5105,-7.5031,2.8696,0.3849,-0.3477,0.0164,0.0304,0.1422,0.0181,3384,2019-08-07 16:53:18:421
-5.5296,-7.4792,2.945,0.3849,-0.3477,0.0164,0.0219,0.0175,0.017,3388,2019-08-07 16:53:18:425
-5.5296,-7.4792,2.945,0.3849,-0.3477,0.0164,0.0219,0.0175,0.017,3392,2019-08-07 16:53:18:429
-5.5296,-7.4792,2.945,0.237,-0.4377,-0.0132,0.0219,0.0175,0.017,3399,2019-08-07 16:53:18:436
-5.1947,-7.3885,2.8272,0.237,-0.4377,-0.0132,0.0102,-0.089,0.0064,3402,2019-08-07 16:53:18:439
-5.1947,-7.3885,2.8272,0.237,-0.4377,-0.0132,0.0102,-0.089,0.0064,3408,2019-08-07 16:53:18:445
-5.1947,-7.3885,2.8272,0.237,-0.4377,-0.0132,-0.0015,-0.1487,0.0128,3413,2019-08-07 16:53:18:450
-4.8263,-7.3551,2.8036,-0.3425,-0.4593,0.0899,-0.0015,-0.1487,0.0128,3418,2019-08-07 16:53:18:455
-4.8263,-7.3551,2.8036,-0.3425,-0.4593,0.0899,-0.0218,-0.1295,0.0383,3423,2019-08-07 16:53:18:460
-4.6637,-7.3694,2.7235,-0.3425,-0.4593,0.0899,-0.0218,-0.1295,0.0383,3428,2019-08-07 16:53:18:465
-4.6637,-7.3694,2.7235,-0.3425,-0.4593,0.0899,-0.0388,-0.0602,0.0522,3433,2019-08-07 16:53:18:470
-4.6637,-7.3694,2.7235,-0.4284,-0.4573,0.2278,-0.0388,-0.0602,0.0522,3437,2019-08-07 16:53:18:474
-4.7019,-7.3981,2.6528,-0.4284,-0.4573,0.2278,-0.0463,-0.0112,0.0543,3443,2019-08-07 16:53:18:480
-4.7019,-7.3981,2.6528,-0.3171,-0.3654,0.3144,-0.0463,-0.0112,0.0543,3448,2019-08-07 16:53:18:485
-4.8455,-7.4315,2.6575,-0.3171,-0.3654,0.3144,-0.0601,-0.0198,0.0618,3452,2019-08-07 16:53:18:489
-4.8455,-7.4315,2.6575,-0.3171,-0.3654,0.3144,-0.0601,-0.0198,0.0618,3458,2019-08-07 16:53:18:495
-4.8455,-7.4315,2.6575,-0.3171,-0.3654,0.3144,-0.0601,-0.0198,0.0618,3462,2019-08-07 16:53:18:499
-4.6924,-7.4936,2.6669,-0.4737,-0.3627,0.2127,-0.0633,-0.0389,0.0703,3468,2019-08-07 16:53:18:505
-4.6924,-7.4936,2.6669,-0.4737,-0.3627,0.2127,-0.0548,-0.0315,0.0905,3472,2019-08-07 16:53:18:509
-4.4914,-7.527,2.6528,-0.4737,-0.3627,0.2127,-0.0548,-0.0315,0.0905,3478,2019-08-07 16:53:18:515
-4.4914,-7.527,2.6528,-0.4737,-0.3627,0.2127,-0.0474,-6.0E-4,0.1118,3483,2019-08-07 16:53:18:520
-4.4914,-7.527,2.6528,-0.7488,-0.3716,0.2013,-0.0474,-6.0E-4,0.1118,3487,2019-08-07 16:53:18:524
-4.4484,-7.4792,2.6952,-0.7488,-0.3716,0.2013,-0.0431,0.0378,0.1385,3493,2019-08-07 16:53:18:530
-4.4484,-7.4792,2.6952,-0.7488,-0.3716,0.2013,-0.0431,0.0378,0.1385,3498,2019-08-07 16:53:18:535
-4.4484,-7.4792,2.6952,-0.7488,-0.3716,0.2013,-0.0431,0.0378,0.1385,3503,2019-08-07 16:53:18:540
-4.4484,-7.4792,2.6952,-0.7488,-0.3716,0.2013,-0.0324,0.0814,0.1736,3508,2019-08-07 16:53:18:545
-4.7115,-7.4029,2.6103,-0.467,-0.4171,0.265,-0.0324,0.0814,0.1736,3513,2019-08-07 16:53:18:550
-4.7115,-7.4029,2.6103,-0.467,-0.4171,0.265,-0.0218,0.1145,0.1939,3518,2019-08-07 16:53:18:555
-5.2091,-7.3503,2.78,-0.467,-0.4171,0.265,-0.0218,0.1145,0.1939,3523,2019-08-07 16:53:18:560
-5.2091,-7.3503,2.78,-0.467,-0.4171,0.265,-0.0218,0.1145,0.1939,3528,2019-08-07 16:53:18:565
-5.2091,-7.3503,2.78,0.155,-0.4302,0.119,-0.0047,0.0921,0.2088,3533,2019-08-07 16:53:18:570
-5.5296,-7.379,2.7046,0.155,-0.4302,0.119,-5.0E-4,0.0442,0.2077,3538,2019-08-07 16:53:18:575
-5.5296,-7.379,2.7046,0.155,-0.4302,0.119,-5.0E-4,0.0442,0.2077,3543,2019-08-07 16:53:18:580
-5.5296,-7.379,2.7046,0.155,-0.4302,0.119,-5.0E-4,0.0442,0.2077,3547,2019-08-07 16:53:18:584
-5.5727,-7.4697,2.6198,0.317,-0.3062,0.2351,0.0017,-0.0134,0.1939,3553,2019-08-07 16:53:18:590
-5.5727,-7.4697,2.6198,0.317,-0.3062,0.2351,0.0017,-0.0134,0.1939,3558,2019-08-07 16:53:18:595
-5.5105,-7.6081,2.5396,0.317,-0.3062,0.2351,0.0059,-0.0538,0.1747,3562,2019-08-07 16:53:18:599
-5.5105,-7.6081,2.5396,0.098,-0.1093,0.272,0.0144,-0.057,0.1513,3568,2019-08-07 16:53:18:605
-5.5105,-7.6081,2.5396,0.098,-0.1093,0.272,0.0144,-0.057,0.1513,3573,2019-08-07 16:53:18:610
-5.3478,-7.6511,2.5679,0.098,-0.1093,0.272,0.0144,-0.057,0.1513,3577,2019-08-07 16:53:18:614
-5.3478,-7.6511,2.5679,0.098,-0.1093,0.272,0.008,-0.0336,0.1321,3583,2019-08-07 16:53:18:620
-5.1947,-7.7943,2.5491,-0.1555,0.1148,0.2704,0.007,0.0047,0.1086,3588,2019-08-07 16:53:18:625
-5.1947,-7.7943,2.5491,-0.1555,0.1148,0.2704,0.007,0.0047,0.1086,3593,2019-08-07 16:53:18:630
-5.1947,-7.7943,2.5491,-0.1555,0.1148,0.2704,0.007,0.0047,0.1086,3598,2019-08-07 16:53:18:635
-5.0512,-7.8946,2.5302,-0.1555,0.1148,0.2704,0.0038,0.0378,0.0863,3603,2019-08-07 16:53:18:640
-5.0512,-7.8946,2.5302,-0.1555,0.1148,0.2704,0.0038,0.0378,0.0863,3607,2019-08-07 16:53:18:644
-4.9842,-7.9566,2.5161,-0.3132,0.2278,0.3457,0.007,0.0601,0.0596,3613,2019-08-07 16:53:18:650
-4.9842,-7.9566,2.5161,-0.3132,0.2278,0.3457,0.007,0.0601,0.0596,3618,2019-08-07 16:53:18:655
-4.9842,-7.9566,2.5161,-0.3132,0.2278,0.3457,0.0166,0.0782,0.0394,3623,2019-08-07 16:53:18:660
-4.9459,-7.9614,2.5019,-0.3132,0.2278,0.3457,0.0166,0.0782,0.0394,3627,2019-08-07 16:53:18:664
-4.9459,-7.9614,2.5019,-0.4703,0.2261,0.1962,0.024,0.0942,0.0181,3633,2019-08-07 16:53:18:670
-4.8694,-7.8086,2.6858,-0.4703,0.2261,0.1962,0.024,0.0942,0.0181,3637,2019-08-07 16:53:18:674
-4.8694,-7.8086,2.6858,-0.4703,0.2261,0.1962,0.0293,0.09,-0.0064,3643,2019-08-07 16:53:18:680
-4.8694,-7.8086,2.6858,-0.4703,0.2261,0.1962,0.0293,0.09,-0.0064,3648,2019-08-07 16:53:18:685
-4.9603,-7.7227,2.7753,-0.3685,-0.0078,0.0673,0.024,0.0676,-0.0256,3653,2019-08-07 16:53:18:690
-4.9603,-7.7227,2.7753,-0.3685,-0.0078,0.0673,0.024,0.0676,-0.0256,3657,2019-08-07 16:53:18:694
-4.965,-7.589,2.9073,-0.3685,-0.0078,0.0673,0.0059,0.0165,-0.0437,3663,2019-08-07 16:53:18:700
-4.965,-7.589,2.9073,-0.3685,-0.0078,0.0673,0.0059,0.0165,-0.0437,3667,2019-08-07 16:53:18:704
-4.965,-7.589,2.9073,-0.3438,-0.2075,0.0055,0.0059,0.0165,-0.0437,3673,2019-08-07 16:53:18:710
-4.9029,-7.5317,2.8225,-0.3438,-0.2075,0.0055,-0.0101,-0.0443,-0.0671,3677,2019-08-07 16:53:18:714
-4.9029,-7.5317,2.8225,-0.3438,-0.2075,0.0055,-0.0101,-0.0443,-0.0671,3683,2019-08-07 16:53:18:720
-4.8359,-7.5031,2.6056,-0.3438,-0.2075,0.0055,-0.026,-0.057,-0.0831,3688,2019-08-07 16:53:18:725
-4.8359,-7.5031,2.6056,-0.5195,-0.2649,0.1168,-0.026,-0.057,-0.0831,3693,2019-08-07 16:53:18:730
-4.8359,-7.5031,2.6056,-0.5195,-0.2649,0.1168,-0.0356,-0.0325,-0.0938,3698,2019-08-07 16:53:18:735
-4.745,-7.4888,2.6575,-0.5195,-0.2649,0.1168,-0.0356,-0.0325,-0.0938,3703,2019-08-07 16:53:18:740
-4.745,-7.4888,2.6575,-0.5195,-0.2649,0.1168,-0.0442,0.0154,-0.1033,3708,2019-08-07 16:53:18:745
-4.745,-7.4888,2.6575,-0.573,-0.1981,0.1779,-0.0442,0.0154,-0.1033,3712,2019-08-07 16:53:18:749
-4.7019,-7.5365,2.6481,-0.573,-0.1981,0.1779,-0.0452,0.0761,-0.1108,3718,2019-08-07 16:53:18:755
-4.7019,-7.5365,2.6481,-0.573,-0.1981,0.1779,-0.0452,0.0761,-0.1108,3722,2019-08-07 16:53:18:759
-4.7402,-7.5079,2.7518,-0.573,-0.1981,0.1779,-0.0495,0.1219,-0.1183,3728,2019-08-07 16:53:18:765
-4.7402,-7.5079,2.7518,-0.4627,-0.2524,0.0571,-0.0495,0.1219,-0.1183,3732,2019-08-07 16:53:18:769
-4.7402,-7.5079,2.7518,-0.4627,-0.2524,0.0571,-0.0495,0.1219,-0.1183,3738,2019-08-07 16:53:18:775
-4.8837,-7.5174,2.7659,-0.4627,-0.2524,0.0571,-0.0655,0.1443,-0.1076,3743,2019-08-07 16:53:18:780
-4.8837,-7.5174,2.7659,-0.4627,-0.2524,0.0571,-0.0708,0.1283,-0.0969,3749,2019-08-07 16:53:18:786
-4.9603,-7.5174,2.7753,-0.3043,-0.2729,0.0232,-0.0708,0.1283,-0.0969,3752,2019-08-07 16:53:18:789
-4.9603,-7.5174,2.7753,-0.3043,-0.2729,0.0232,-0.0708,0.1283,-0.0969,3758,2019-08-07 16:53:18:795
-4.9603,-7.5174,2.7753,-0.3043,-0.2729,0.0232,-0.075,0.09,-0.0767,3763,2019-08-07 16:53:18:800
-4.9842,-7.6177,2.7848,-0.3043,-0.2729,0.0232,-0.075,0.09,-0.0767,3767,2019-08-07 16:53:18:804
-4.9842,-7.6177,2.7848,-0.3438,-0.1326,-0.0055,-0.0697,0.0324,-0.0565,3773,2019-08-07 16:53:18:810
-4.9315,-7.6654,2.7046,-0.3438,-0.1326,-0.0055,-0.0697,0.0324,-0.0565,3777,2019-08-07 16:53:18:814
-4.9315,-7.6654,2.7046,-0.3438,-0.1326,-0.0055,-0.0601,-0.007,-0.0277,3783,2019-08-07 16:53:18:820
-4.9315,-7.6654,2.7046,-0.3438,-0.1326,-0.0055,-0.0601,-0.007,-0.0277,3788,2019-08-07 16:53:18:825
-4.8072,-7.6845,2.6198,-0.414,-0.1495,0.1839,-0.041,-0.0198,-0.0053,3793,2019-08-07 16:53:18:830
-4.8072,-7.6845,2.6198,-0.414,-0.1495,0.1839,-0.041,-0.0198,-0.0053,3798,2019-08-07 16:53:18:835
-4.7545,-7.6941,2.5066,-0.414,-0.1495,0.1839,-0.0324,-0.0166,0.0213,3803,2019-08-07 16:53:18:840
-4.7545,-7.6941,2.5066,-0.414,-0.1495,0.1839,-0.0324,-0.0166,0.0213,3808,2019-08-07 16:53:18:845
-4.7545,-7.6941,2.5066,-0.4805,-0.1084,0.1372,-0.0197,0.0058,0.0373,3813,2019-08-07 16:53:18:850
-4.788,-7.6559,2.5821,-0.4805,-0.1084,0.1372,-0.0197,0.0058,0.0373,3818,2019-08-07 16:53:18:855
-4.788,-7.6559,2.5821,-0.4805,-0.1084,0.1372,-0.0079,0.0495,0.0458,3822,2019-08-07 16:53:18:859
-4.922,-7.6797,2.6386,-0.4805,-0.1084,0.1372,-0.0079,0.0495,0.0458,3828,2019-08-07 16:53:18:865
-4.922,-7.6797,2.6386,-0.1917,-0.1293,0.1306,0.0059,0.0868,0.0447,3832,2019-08-07 16:53:18:869
-4.922,-7.6797,2.6386,-0.1917,-0.1293,0.1306,0.0059,0.0868,0.0447,3838,2019-08-07 16:53:18:875
-5.1468,-7.6081,2.7046,-0.1917,-0.1293,0.1306,0.0059,0.0868,0.0447,3842,2019-08-07 16:53:18:879
-5.1468,-7.6081,2.7046,-0.1917,-0.1293,0.1306,0.0166,0.0974,0.0405,3848,2019-08-07 16:53:18:885
-5.343,-7.5699,2.7518,0.0737,-0.2337,3.0E-4,0.0166,0.0974,0.0405,3853,2019-08-07 16:53:18:890
-5.343,-7.5699,2.7518,0.0737,-0.2337,3.0E-4,0.0176,0.0708,0.0277,3858,2019-08-07 16:53:18:895
-5.343,-7.5699,2.7518,0.0737,-0.2337,3.0E-4,0.0176,0.0708,0.0277,3863,2019-08-07 16:53:18:900
-5.4387,-7.5652,2.5585,0.0737,-0.2337,3.0E-4,0.0102,0.0516,0.0117,3868,2019-08-07 16:53:18:905
-5.4387,-7.5652,2.5585,0.1616,-0.2349,0.085,0.0102,0.0516,0.0117,3872,2019-08-07 16:53:18:909
-5.4195,-7.5938,2.6433,0.1616,-0.2349,0.085,0.0048,0.025,-0.0096,3878,2019-08-07 16:53:18:915
-5.4195,-7.5938,2.6433,0.1616,-0.2349,0.085,0.0048,0.025,-0.0096,3883,2019-08-07 16:53:18:920
-5.4195,-7.5938,2.6433,0.1616,-0.2349,0.085,-0.0015,-0.0262,-0.0213,3887,2019-08-07 16:53:18:924
-5.2951,-7.632,2.5349,-0.0374,-0.2218,0.2314,-0.0015,-0.0262,-0.0213,3893,2019-08-07 16:53:18:930
-5.2951,-7.632,2.5349,-0.0374,-0.2218,0.2314,0.0027,-0.0581,-0.0309,3898,2019-08-07 16:53:18:935
-5.2951,-7.632,2.5349,-0.0374,-0.2218,0.2314,0.0027,-0.0581,-0.0309,3903,2019-08-07 16:53:18:940
-5.0751,-7.5986,2.4454,-0.0374,-0.2218,0.2314,0.0027,-0.0581,-0.0309,3907,2019-08-07 16:53:18:944
-5.0751,-7.5986,2.4454,-0.0374,-0.2218,0.2314,0.0048,-0.0602,-0.0373,3913,2019-08-07 16:53:18:950
-5.0751,-7.5986,2.4454,-0.215,-0.2403,0.3076,0.0048,-0.0602,-0.0373,3917,2019-08-07 16:53:18:954
-4.9507,-7.5604,2.4312,-0.215,-0.2403,0.3076,-0.0015,-0.073,-0.0298,3923,2019-08-07 16:53:18:960
-4.9507,-7.5604,2.4312,-0.215,-0.2403,0.3076,-0.0015,-0.073,-0.0298,3928,2019-08-07 16:53:18:965
-4.7928,-7.5031,2.4171,-0.215,-0.2403,0.3076,-0.009,-0.0815,-0.0213,3933,2019-08-07 16:53:18:970
-4.7928,-7.5031,2.4171,-0.5307,-0.2876,0.3371,-0.009,-0.0815,-0.0213,3937,2019-08-07 16:53:18:974
-4.611,-7.4936,2.4029,-0.5307,-0.2876,0.3371,-0.0111,-0.0805,-0.0011,3943,2019-08-07 16:53:18:980
-4.611,-7.4936,2.4029,-0.5307,-0.2876,0.3371,-0.0111,-0.0805,-0.0011,3948,2019-08-07 16:53:18:985
-4.611,-7.4936,2.4029,-0.5307,-0.2876,0.3371,-0.0111,-0.0805,-0.0011,3952,2019-08-07 16:53:18:989
-4.6062,-7.4888,2.5066,-0.6731,-0.3235,0.299,-0.0122,-0.0315,0.0256,3958,2019-08-07 16:53:18:995
-4.6062,-7.4888,2.5066,-0.6731,-0.3235,0.299,-0.0122,-0.0315,0.0256,3963,2019-08-07 16:53:19:000
-4.6062,-7.4888,2.5066,-0.6731,-0.3235,0.299,-0.0143,-0.0091,0.0415,3968,2019-08-07 16:53:19:005
-4.721,-7.4315,2.4595,-0.6731,-0.3235,0.299,-0.0143,-0.0091,0.0415,3972,2019-08-07 16:53:19:009
-4.721,-7.4315,2.4595,-0.4904,-0.3978,0.2503,-0.0229,-0.0155,0.0607,3978,2019-08-07 16:53:19:015
-4.7449,-7.4029,2.4831,-0.4904,-0.3978,0.2503,-0.0229,-0.0155,0.0607,3983,2019-08-07 16:53:19:020
-4.7449,-7.4029,2.4831,-0.4904,-0.3978,0.2503,-0.0218,-0.0325,0.0831,3987,2019-08-07 16:53:19:024
-4.7449,-7.4029,2.4831,-0.4904,-0.3978,0.2503,-0.0218,-0.0325,0.0831,3993,2019-08-07 16:53:19:030
-4.7162,-7.3933,2.4925,-0.5477,-0.4111,0.2677,-0.0175,-0.0134,0.1012,3997,2019-08-07 16:53:19:034
-4.7162,-7.3933,2.4925,-0.5477,-0.4111,0.2677,-0.0175,-0.0134,0.1012,4002,2019-08-07 16:53:19:039
-4.7162,-7.3933,2.4925,-0.5477,-0.4111,0.2677,-0.0175,-0.0134,0.1012,4008,2019-08-07 16:53:19:045
-4.8023,-7.3742,2.5396,-0.5477,-0.4111,0.2677,-0.0143,0.026,0.1118,4013,2019-08-07 16:53:19:050
-4.8023,-7.3742,2.5396,-0.4159,-0.4012,0.2216,-0.0143,0.026,0.1118,4018,2019-08-07 16:53:19:055
-5.0129,-7.4076,2.6292,-0.4159,-0.4012,0.2216,-0.0122,0.0516,0.1172,4023,2019-08-07 16:53:19:060
-5.0129,-7.4076,2.6292,-0.4159,-0.4012,0.2216,-0.0122,0.0516,0.1172,4028,2019-08-07 16:53:19:065
-5.1325,-7.5222,2.5774,-0.4159,-0.4012,0.2216,-0.0143,0.0399,0.1118,4033,2019-08-07 16:53:19:070
-5.1325,-7.5222,2.5774,-0.1541,-0.2562,0.1906,-0.0143,0.0399,0.1118,4039,2019-08-07 16:53:19:076
-5.1325,-7.5222,2.5774,-0.1541,-0.2562,0.1906,-0.0122,0.0229,0.1033,4043,2019-08-07 16:53:19:080
-5.1277,-7.5318,2.5632,-0.1541,-0.2562,0.1906,-0.0122,0.0229,0.1033,4048,2019-08-07 16:53:19:085
-5.1277,-7.5318,2.5632,-0.1541,-0.2562,0.1906,-0.0026,0.009,0.0916,4052,2019-08-07 16:53:19:089
-5.1612,-7.5556,2.5538,-0.1136,-0.1983,0.2245,-0.0026,0.009,0.0916,4059,2019-08-07 16:53:19:096
-5.1612,-7.5556,2.5538,-0.1136,-0.1983,0.2245,0.0112,0.0015,0.0841,4063,2019-08-07 16:53:19:100
-5.1612,-7.5556,2.5538,-0.1136,-0.1983,0.2245,0.0112,0.0015,0.0841,4068,2019-08-07 16:53:19:105
-5.1803,-7.6225,2.5585,-0.1136,-0.1983,0.2245,0.0102,-0.0016,0.0724,4072,2019-08-07 16:53:19:109
-5.1803,-7.6225,2.5585,-0.1981,-0.1943,0.2247,0.0102,-0.0016,0.0724,4078,2019-08-07 16:53:19:115
-5.1803,-7.6225,2.5585,-0.1981,-0.1943,0.2247,0.0102,-0.0016,0.0724,4082,2019-08-07 16:53:19:119
-5.1325,-7.589,2.6386,-0.1981,-0.1943,0.2247,0.0134,5.0E-4,0.0671,4088,2019-08-07 16:53:19:125
-5.1325,-7.589,2.6386,-0.1981,-0.1943,0.2247,0.0134,5.0E-4,0.0671,4093,2019-08-07 16:53:19:130
-5.0846,-7.5843,2.5774,-0.2223,-0.1822,0.1792,0.0091,0.0058,0.0575,4098,2019-08-07 16:53:19:135
-5.0846,-7.5843,2.5774,-0.2223,-0.1822,0.1792,0.0091,0.0058,0.0575,4103,2019-08-07 16:53:19:140
-5.0846,-7.5843,2.5774,-0.2223,-0.1822,0.1792,-0.0015,0.0197,0.0479,4108,2019-08-07 16:53:19:145
-5.1277,-7.5652,2.6811,-0.2223,-0.1822,0.1792,-0.0015,0.0197,0.0479,4113,2019-08-07 16:53:19:150
-5.1277,-7.5652,2.6811,-0.259,-0.1153,0.0074,-0.0047,0.025,0.0426,4117,2019-08-07 16:53:19:154
-5.1277,-7.5652,2.6811,-0.259,-0.1153,0.0074,-0.0047,0.025,0.0426,4123,2019-08-07 16:53:19:160
-5.0942,-7.6081,2.7376,-0.259,-0.1153,0.0074,-0.0111,0.0175,0.0351,4128,2019-08-07 16:53:19:165
-5.0942,-7.6081,2.7376,-0.259,-0.1153,0.0074,-0.0111,0.0175,0.0351,4133,2019-08-07 16:53:19:170
-5.0942,-7.6081,2.7376,-0.3269,-0.1029,0.0188,-0.0111,0.0026,0.0319,4138,2019-08-07 16:53:19:175
-5.0463,-7.6463,2.6905,-0.3269,-0.1029,0.0188,-0.0111,0.0026,0.0319,4143,2019-08-07 16:53:19:180
-5.0463,-7.6463,2.6905,-0.3269,-0.1029,0.0188,-0.0122,0.0047,0.0277,4148,2019-08-07 16:53:19:185
-5.0846,-7.6845,2.7471,-0.3269,-0.1029,0.0188,-0.0122,0.0047,0.0277,4153,2019-08-07 16:53:19:190
-5.0846,-7.6845,2.7471,-0.2342,-0.068,-0.0254,-0.0079,-0.0027,0.0213,4159,2019-08-07 16:53:19:196
-5.1372,-7.6034,2.7282,-0.2342,-0.068,-0.0254,-0.0079,-0.0027,0.0213,4163,2019-08-07 16:53:19:200
-5.1372,-7.6034,2.7282,-0.2342,-0.068,-0.0254,-0.0047,-0.0155,0.0202,4168,2019-08-07 16:53:19:205
-5.1372,-7.6034,2.7282,-0.2342,-0.068,-0.0254,-0.0047,-0.0155,0.0202,4172,2019-08-07 16:53:19:209
-5.0942,-7.6893,2.7235,-0.2452,-0.0859,0.0835,-0.0079,-0.023,0.0138,4178,2019-08-07 16:53:19:215
-5.0942,-7.6893,2.7235,-0.2452,-0.0859,0.0835,-0.0079,-0.023,0.0138,4182,2019-08-07 16:53:19:219
-5.1085,-7.6034,2.7801,-0.2452,-0.0859,0.0835,-0.0026,-0.0304,0.0106,4188,2019-08-07 16:53:19:225
-5.1085,-7.6034,2.7801,-0.2452,-0.0859,0.0835,-0.0026,-0.0304,0.0106,4193,2019-08-07 16:53:19:230
-5.1085,-7.6034,2.7801,-0.2872,-0.1287,0.1238,-5.0E-4,-0.0315,0.0021,4198,2019-08-07 16:53:19:235
-5.075,-7.6177,2.6339,-0.2872,-0.1287,0.1238,-5.0E-4,-0.0315,0.0021,4203,2019-08-07 16:53:19:240
-5.075,-7.6177,2.6339,-0.2872,-0.1287,0.1238,-5.0E-4,-0.0315,0.0021,4208,2019-08-07 16:53:19:245
-5.075,-7.6177,2.6339,-0.3575,-0.1149,0.1959,0.0017,-0.024,-0.0064,4212,2019-08-07 16:53:19:249
-5.0272,-7.6129,2.5774,-0.3575,-0.1149,0.1959,0.0017,-0.024,-0.0064,4218,2019-08-07 16:53:19:255
-5.0272,-7.6129,2.5774,-0.3575,-0.1149,0.1959,0.0038,0.0069,-0.0234,4223,2019-08-07 16:53:19:260
-5.0607,-7.5699,2.6858,-0.2816,-0.151,0.102,0.0038,0.0069,-0.0234,4228,2019-08-07 16:53:19:265
-5.0607,-7.5699,2.6858,-0.2816,-0.151,0.102,-0.0026,0.0143,-0.0277,4232,2019-08-07 16:53:19:269
-5.0272,-7.5509,2.6292,-0.2816,-0.151,0.102,-0.0026,0.0143,-0.0277,4238,2019-08-07 16:53:19:275
-5.0272,-7.5509,2.6292,-0.2816,-0.151,0.102,-0.0037,0.0197,-0.0416,4243,2019-08-07 16:53:19:280
-5.0272,-7.5509,2.6292,-0.2998,-0.2133,0.1794,-0.0037,0.0197,-0.0416,4248,2019-08-07 16:53:19:285
-5.032,-7.5699,2.5302,-0.2998,-0.2133,0.1794,-0.009,0.0218,-0.0479,4253,2019-08-07 16:53:19:290
-5.032,-7.5699,2.5302,-0.2998,-0.2133,0.1794,-0.009,0.0218,-0.0479,4258,2019-08-07 16:53:19:295
-5.0128,-7.5795,2.5585,-0.2998,-0.2133,0.1794,-0.0218,0.0165,-0.0501,4264,2019-08-07 16:53:19:301
-5.0128,-7.5795,2.5585,-0.3495,-0.1155,0.2163,-0.0218,0.0165,-0.0501,4268,2019-08-07 16:53:19:305
-5.0128,-7.5795,2.5585,-0.3495,-0.1155,0.2163,-0.0218,0.0165,-0.0501,4273,2019-08-07 16:53:19:310
-4.9458,-7.6034,2.6009,-0.3495,-0.1155,0.2163,-0.0292,-0.0059,-0.0522,4278,2019-08-07 16:53:19:315
-4.9458,-7.6034,2.6009,-0.4117,-0.1579,0.1665,-0.0292,-0.0059,-0.0522,4283,2019-08-07 16:53:19:320
-4.9458,-7.6034,2.6009,-0.4117,-0.1579,0.1665,-0.0197,-0.0219,-0.049,4288,2019-08-07 16:53:19:325
-4.9124,-7.5652,2.5774,-0.4117,-0.1579,0.1665,-0.0197,-0.0219,-0.049,4293,2019-08-07 16:53:19:330
-4.9124,-7.5652,2.5774,-0.4117,-0.1579,0.1665,-0.0229,-0.0325,-0.0373,4298,2019-08-07 16:53:19:335
-4.8693,-7.5079,2.5538,-0.4878,-0.2893,0.1795,-0.0229,-0.0325,-0.0373,4303,2019-08-07 16:53:19:340
-4.8693,-7.5079,2.5538,-0.4878,-0.2893,0.1795,-0.0239,-0.0432,-0.0224,4308,2019-08-07 16:53:19:345
-4.8693,-7.5079,2.5538,-0.4878,-0.2893,0.1795,-0.0239,-0.0432,-0.0224,4313,2019-08-07 16:53:19:350
-4.7736,-7.5938,2.4501,-0.4878,-0.2893,0.1795,-0.0186,-0.0283,-0.0149,4318,2019-08-07 16:53:19:355
-4.7736,-7.5938,2.4501,-0.6093,-0.1754,0.3865,-0.0186,-0.0283,-0.0149,4323,2019-08-07 16:53:19:360
-4.8023,-7.5795,2.3747,-0.6093,-0.1754,0.3865,-0.009,-0.0091,-0.0171,4328,2019-08-07 16:53:19:365
-4.8023,-7.5795,2.3747,-0.6093,-0.1754,0.3865,-0.009,-0.0091,-0.0171,4332,2019-08-07 16:53:19:369
-4.8023,-7.5795,2.3747,-0.6093,-0.1754,0.3865,-0.009,-0.0091,-0.0171,4338,2019-08-07 16:53:19:375
-4.8789,-7.5699,2.4265,-0.4324,-0.2128,0.3041,-0.009,0.0079,-0.0096,4342,2019-08-07 16:53:19:379
-4.8789,-7.5699,2.4265,-0.4324,-0.2128,0.3041,-0.009,0.0079,-0.0096,4349,2019-08-07 16:53:19:386
-4.9076,-7.5413,2.4878,-0.4324,-0.2128,0.3041,-0.0026,0.0122,-0.0117,4352,2019-08-07 16:53:19:389
-4.9076,-7.5413,2.4878,-0.4324,-0.2128,0.3041,-0.0026,0.0122,-0.0117,4358,2019-08-07 16:53:19:395
-4.9076,-7.5413,2.4878,-0.3914,-0.2633,0.3486,0.0027,0.0154,-0.0128,4363,2019-08-07 16:53:19:400
-6.0175,-7.2071,1.644,-0.3914,-0.2633,0.3486,0.0027,0.0154,-0.0128,4368,2019-08-07 16:53:19:405
-6.0175,-7.2071,1.644,-0.3914,-0.2633,0.3486,-0.1667,-0.1934,0.0383,4373,2019-08-07 16:53:19:410
-5.1229,-7.6559,3.6003,-0.3914,-0.2633,0.3486,-0.1667,-0.1934,0.0383,4378,2019-08-07 16:53:19:415
-5.1229,-7.6559,3.6003,-0.2402,-0.17,-0.7128,-0.0111,-0.2616,-0.0107,4382,2019-08-07 16:53:19:419
-5.1229,-7.6559,3.6003,-0.2402,-0.17,-0.7128,-0.0111,-0.2616,-0.0107,4388,2019-08-07 16:53:19:425
-5.0511,-7.7036,2.3888,-0.2402,-0.17,-0.7128,-0.0111,-0.2616,-0.0107,4392,2019-08-07 16:53:19:429
-5.0511,-7.7036,2.3888,-0.2402,-0.17,-0.7128,0.024,-0.2914,-0.0341,4398,2019-08-07 16:53:19:435
-4.3478,-7.5604,2.2097,-0.6984,-0.2211,0.4763,0.0102,-0.187,-0.0256,4403,2019-08-07 16:53:19:440
-4.3478,-7.5604,2.2097,-0.6984,-0.2211,0.4763,0.0102,-0.187,-0.0256,4407,2019-08-07 16:53:19:444
-4.3478,-7.5604,2.2097,-0.6984,-0.2211,0.4763,0.0102,-0.187,-0.0256,4412,2019-08-07 16:53:19:449
-3.855,-7.5461,2.2521,-0.6984,-0.2211,0.4763,0.0517,0.0335,-0.0469,4418,2019-08-07 16:53:19:455
-3.855,-7.5461,2.2521,-1.2146,-0.209,0.5228,0.0517,0.0335,-0.0469,4422,2019-08-07 16:53:19:459
-3.855,-7.5461,2.2521,-1.2146,-0.209,0.5228,0.1124,0.3254,-0.0107,4428,2019-08-07 16:53:19:465
-4.3478,-7.6893,1.9693,-1.2146,-0.209,0.5228,0.1124,0.3254,-0.0107,4432,2019-08-07 16:53:19:469
-4.3478,-7.6893,1.9693,-1.2146,-0.209,0.5228,0.0517,0.4063,0.0224,4438,2019-08-07 16:53:19:475
-4.764,-7.379,2.5067,-0.5224,-0.4179,0.2316,0.0517,0.4063,0.0224,4443,2019-08-07 16:53:19:480
-4.764,-7.379,2.5067,-0.5224,-0.4179,0.2316,0.0123,0.3861,0.0192,4448,2019-08-07 16:53:19:485
-4.764,-7.379,2.5067,-0.5224,-0.4179,0.2316,0.0123,0.3861,0.0192,4452,2019-08-07 16:53:19:489
-5.429,-7.3122,2.9922,-0.5224,-0.4179,0.2316,0.023,0.2391,0.0373,4458,2019-08-07 16:53:19:495