ACCELEROMETER X (m/s²),ACCELEROMETER Y (m/s²),ACCELEROMETER Z (m/s²),LINEAR ACCELERATION X (m/s²),LINEAR ACCELERATION Y (m/s²),LINEAR ACCELERATION Z (m/s²),GYROSCOPE X (rad/s),GYROSCOPE Y (rad/s),GYROSCOPE Z (rad/s),Time since start in ms ,YYYY-MO-DD HH-MI-SS_SSS
-4.7365,-7.6849,2.9364,-0.2361,-0.3396,0.0921,0.0048,0.0015,0.0213,3,2019-08-07 16:52:11:259
-4.7365,-7.6849,2.9364,-0.192,-0.2369,0.0783,0.0038,0.0069,0.0139,8,2019-08-07 16:52:11:264
-4.8083,-7.6371,3.0118,-0.192,-0.2369,0.0783,0.0038,0.0069,0.0139,13,2019-08-07 16:52:11:269
-4.8083,-7.6371,3.0118,-0.192,-0.2369,0.0783,0.0048,0.0015,0.0043,17,2019-08-07 16:52:11:273
-4.8083,-7.6371,3.0118,-0.192,-0.2369,0.0783,0.0048,0.0015,0.0043,23,2019-08-07 16:52:11:279
-4.77,-7.6419,3.0495,-0.192,-0.2369,0.0783,0.0048,0.0015,0.0043,27,2019-08-07 16:52:11:283
-4.77,-7.6419,3.0495,-0.1265,-0.2977,0.051,0.0102,0.0015,0.0021,33,2019-08-07 16:52:11:289
-4.7173,-7.6371,2.9788,-0.1265,-0.2977,0.051,0.007,0.0047,-0.0064,38,2019-08-07 16:52:11:294
-4.7173,-7.6371,2.9788,-0.1265,-0.2977,0.051,0.007,0.0047,-0.0064,42,2019-08-07 16:52:11:298
-4.7173,-7.6371,2.9788,-0.1265,-0.2977,0.051,0.007,0.0047,-0.0064,48,2019-08-07 16:52:11:304
-4.746,-7.5703,3.0165,-0.1644,-0.3693,0.0847,-0.0016,0.0047,-0.0085,53,2019-08-07 16:52:11:309
-4.746,-7.5703,3.0165,-0.1644,-0.3693,0.0847,-0.0016,0.0047,-0.0085,58,2019-08-07 16:52:11:314
-4.7652,-7.5751,3.0212,-0.1644,-0.3693,0.0847,-0.0026,-0.008,-0.0064,63,2019-08-07 16:52:11:319
-4.7652,-7.5751,3.0212,-0.1644,-0.3693,0.0847,-0.0026,-0.008,-0.0064,68,2019-08-07 16:52:11:324
-4.7652,-7.5751,3.0212,-0.2015,-0.2983,0.0897,-0.0069,-0.024,0.0,73,2019-08-07 16:52:11:329
-4.6695,-7.6085,2.9882,-0.2015,-0.2983,0.0897,-0.0069,-0.024,0.0,78,2019-08-07 16:52:11:334
-4.6695,-7.6085,2.9882,-0.2015,-0.2983,0.0897,-0.0016,-0.0294,0.0011,84,2019-08-07 16:52:11:340
-4.6647,-7.6228,3.0118,-0.2331,-0.2938,0.0826,-0.0016,-0.0294,0.0011,88,2019-08-07 16:52:11:344
-4.6647,-7.6228,3.0118,-0.2331,-0.2938,0.0826,-0.0047,-0.0272,0.0043,93,2019-08-07 16:52:11:349
-4.6647,-7.6228,3.0118,-0.2331,-0.2938,0.0826,-0.0047,-0.0272,0.0043,98,2019-08-07 16:52:11:354
-4.612,-7.6801,2.96,-0.2331,-0.2938,0.0826,-0.0079,-0.024,0.0053,103,2019-08-07 16:52:11:359
-4.612,-7.6801,2.96,-0.2331,-0.2938,0.0826,-0.0079,-0.024,0.0053,108,2019-08-07 16:52:11:364
-4.612,-7.6801,2.96,-0.2797,-0.2606,0.1171,-0.0026,-0.0091,0.0053,113,2019-08-07 16:52:11:369
-4.5929,-7.6467,2.927,-0.2797,-0.2606,0.1171,-0.0026,-0.0091,0.0053,117,2019-08-07 16:52:11:373
-4.5929,-7.6467,2.927,-0.2797,-0.2606,0.1171,-5.0E-4,0.0101,0.0021,123,2019-08-07 16:52:11:379
-4.6647,-7.6419,2.9694,-0.2797,-0.2606,0.1171,-5.0E-4,0.0101,0.0021,128,2019-08-07 16:52:11:384
-4.6647,-7.6419,2.9694,-0.2175,-0.2799,0.1447,-0.0026,0.0122,-0.0011,132,2019-08-07 16:52:11:388
-4.6647,-7.6419,2.9694,-0.2175,-0.2799,0.1447,-0.0026,0.0122,-0.0011,138,2019-08-07 16:52:11:394
-4.7268,-7.6849,3.0071,-0.2175,-0.2799,0.1447,0.0059,0.0058,-0.0032,144,2019-08-07 16:52:11:400
-4.7268,-7.6849,3.0071,-0.2175,-0.2799,0.1447,0.0059,0.0058,-0.0032,149,2019-08-07 16:52:11:405
-4.7268,-7.5369,2.9223,-0.1175,-0.3562,0.0876,0.0059,-0.0038,0.0053,152,2019-08-07 16:52:11:408
-4.7268,-7.5369,2.9223,-0.1175,-0.3562,0.0876,0.0059,-0.0038,0.0053,158,2019-08-07 16:52:11:414
-4.7268,-7.5369,2.9223,-0.1175,-0.3562,0.0876,-0.0016,-0.0166,0.0075,163,2019-08-07 16:52:11:419
-4.6024,-7.599,2.9882,-0.1175,-0.3562,0.0876,-0.0016,-0.0166,0.0075,168,2019-08-07 16:52:11:424
-4.6024,-7.599,2.9882,-0.3089,-0.3172,0.0707,0.0016,-0.0283,0.0107,172,2019-08-07 16:52:11:428
-4.5355,-7.6181,2.9364,-0.3089,-0.3172,0.0707,0.0016,-0.0283,0.0107,178,2019-08-07 16:52:11:434
-4.5355,-7.6181,2.9364,-0.3089,-0.3172,0.0707,0.0048,-0.0198,0.0203,184,2019-08-07 16:52:11:440
-4.5355,-7.6181,2.9364,-0.3089,-0.3172,0.0707,0.0048,-0.0198,0.0203,188,2019-08-07 16:52:11:444
-4.5259,-7.6371,2.96,-0.3715,-0.2778,0.1392,0.0112,0.0069,0.0235,194,2019-08-07 16:52:11:450
-4.5259,-7.6371,2.96,-0.3715,-0.2778,0.1392,0.0112,0.0069,0.0235,198,2019-08-07 16:52:11:454
-4.5689,-7.6085,3.0825,-0.3715,-0.2778,0.1392,0.0144,0.0047,0.0341,203,2019-08-07 16:52:11:459
-4.5689,-7.6085,3.0825,-0.3715,-0.2778,0.1392,0.0144,0.0047,0.0341,207,2019-08-07 16:52:11:463
-4.5689,-7.6085,3.0825,-0.2754,-0.3841,0.1081,0.0251,-0.0027,0.0416,213,2019-08-07 16:52:11:469
-4.6311,-7.5274,2.9694,-0.2754,-0.3841,0.1081,0.0251,-0.0027,0.0416,217,2019-08-07 16:52:11:473
-4.6311,-7.5274,2.9694,-0.2754,-0.3841,0.1081,0.0251,-0.0027,0.0416,223,2019-08-07 16:52:11:479
-4.6311,-7.5274,2.9694,-0.2754,-0.3841,0.1081,0.0336,-6.0E-4,0.0405,227,2019-08-07 16:52:11:483
-4.6837,-7.513,2.9694,-0.2292,-0.3877,0.1321,0.0336,-6.0E-4,0.0405,233,2019-08-07 16:52:11:489
-4.6837,-7.513,2.9694,-0.2292,-0.3877,0.1321,0.0336,-6.0E-4,0.0405,237,2019-08-07 16:52:11:493
-4.7555,-7.5703,3.0637,-0.2292,-0.3877,0.1321,0.0261,0.0026,0.0437,244,2019-08-07 16:52:11:500
-4.7555,-7.5703,3.0637,-0.2292,-0.3877,0.1321,0.0176,-0.007,0.0394,248,2019-08-07 16:52:11:504
-4.7555,-7.5703,3.0637,-0.1647,-0.3101,0.0606,0.0176,-0.007,0.0394,253,2019-08-07 16:52:11:509
-4.8129,-7.6658,3.0024,-0.1647,-0.3101,0.0606,0.0176,-0.007,0.0394,258,2019-08-07 16:52:11:514
-4.8129,-7.6658,3.0024,-0.1647,-0.3101,0.0606,0.0208,-0.0123,0.0309,263,2019-08-07 16:52:11:519
-4.7937,-7.6324,2.9977,-0.1647,-0.3101,0.0606,0.0208,-0.0123,0.0309,267,2019-08-07 16:52:11:523
-4.7937,-7.6324,2.9977,-0.1498,-0.2151,0.159,0.0144,-0.0123,0.0181,273,2019-08-07 16:52:11:529
-4.7555,-7.6562,2.9553,-0.1498,-0.2151,0.159,0.0144,-0.0123,0.0181,278,2019-08-07 16:52:11:534
-4.7555,-7.6562,2.9553,-0.1498,-0.2151,0.159,0.007,-0.0059,0.0117,284,2019-08-07 16:52:11:540
-4.7555,-7.6562,2.9553,-0.1498,-0.2151,0.159,0.007,-0.0059,0.0117,288,2019-08-07 16:52:11:544
-4.7315,-7.5942,2.9364,-0.1896,-0.2994,0.1797,0.0038,0.0026,0.0,293,2019-08-07 16:52:11:549
-4.7315,-7.5942,2.9364,-0.1896,-0.2994,0.1797,0.0038,0.0026,0.0,298,2019-08-07 16:52:11:554
-4.7315,-7.5942,2.9364,-0.1896,-0.2994,0.1797,0.0038,0.0026,0.0,303,2019-08-07 16:52:11:559
-4.6789,-7.5608,2.9694,-0.1896,-0.2994,0.1797,-0.0016,0.0165,0.0,307,2019-08-07 16:52:11:563
-4.6789,-7.5608,2.9694,-0.2093,-0.2901,0.1639,-0.0016,0.0165,0.0,313,2019-08-07 16:52:11:569
-4.6693,-7.5894,2.9553,-0.2093,-0.2901,0.1639,-0.0069,0.0175,0.0,317,2019-08-07 16:52:11:573
-4.6693,-7.5894,2.9553,-0.2093,-0.2901,0.1639,-0.0069,0.0175,0.0,323,2019-08-07 16:52:11:579
-4.6693,-7.5894,2.9553,-0.2093,-0.2901,0.1639,-0.0079,0.0111,0.0043,328,2019-08-07 16:52:11:584
-4.698,-7.6419,3.0637,-0.22,-0.2904,0.1049,-0.0079,0.0111,0.0043,333,2019-08-07 16:52:11:589
-4.698,-7.6419,3.0637,-0.22,-0.2904,0.1049,-0.0079,0.0015,0.0064,337,2019-08-07 16:52:11:593
-4.7076,-7.5799,3.0307,-0.2159,-0.314,0.0809,-0.0079,0.0015,0.0064,344,2019-08-07 16:52:11:600
-4.7076,-7.5799,3.0307,-0.2159,-0.314,0.0809,-0.0058,-0.007,0.0192,348,2019-08-07 16:52:11:604
-4.7076,-7.5799,3.0307,-0.2159,-0.314,0.0809,-0.0058,-0.007,0.0192,353,2019-08-07 16:52:11:609
-4.765,-7.5942,2.993,-0.2159,-0.314,0.0809,-0.0026,-0.0049,0.0149,358,2019-08-07 16:52:11:614
-4.765,-7.5942,2.993,-0.2159,-0.314,0.0809,-0.0026,-0.0049,0.0149,363,2019-08-07 16:52:11:619
-4.765,-7.5942,2.993,-0.1844,-0.2888,0.0955,-0.0026,-0.0049,0.0149,368,2019-08-07 16:52:11:624
-4.7602,-7.5799,2.9883,-0.1844,-0.2888,0.0955,0.0016,-0.0091,0.0181,373,2019-08-07 16:52:11:629
-4.7602,-7.5799,2.9883,-0.1844,-0.2888,0.0955,0.0016,-0.0091,0.0181,378,2019-08-07 16:52:11:634
-4.7031,-7.5798,2.9411,-0.224,-0.3112,0.172,0.0059,-0.0059,0.0096,383,2019-08-07 16:52:11:639
-4.7031,-7.5798,2.9411,-0.224,-0.3112,0.172,0.0059,-0.0059,0.0096,388,2019-08-07 16:52:11:644
-4.7031,-7.5798,2.9411,-0.224,-0.3112,0.172,0.0112,0.0047,0.0,394,2019-08-07 16:52:11:650
-4.727,-7.5416,3.0165,-0.224,-0.3112,0.172,0.0112,0.0047,0.0,399,2019-08-07 16:52:11:655
-4.727,-7.5416,3.0165,-0.224,-0.3112,0.172,0.0112,0.0047,0.0,403,2019-08-07 16:52:11:659
-4.727,-7.5416,3.0165,-0.2098,-0.3249,0.1309,0.0134,0.0111,-0.0021,408,2019-08-07 16:52:11:664
-4.6888,-7.5464,3.0165,-0.2098,-0.3249,0.1309,0.0102,0.0239,-0.0032,413,2019-08-07 16:52:11:669
-4.6888,-7.5464,3.0165,-0.2098,-0.3249,0.1309,0.0102,0.0239,-0.0032,417,2019-08-07 16:52:11:673
-4.6313,-7.5416,3.0306,-0.2966,-0.3485,0.0835,0.0102,0.0239,-0.0032,423,2019-08-07 16:52:11:679
-4.6313,-7.5416,3.0306,-0.2966,-0.3485,0.0835,0.0112,0.0303,0.0011,427,2019-08-07 16:52:11:683
-4.6313,-7.5416,3.0306,-0.2966,-0.3485,0.0835,0.0112,0.0303,0.0011,433,2019-08-07 16:52:11:689
-4.6935,-7.6037,3.0825,-0.2966,-0.3485,0.0835,0.0112,0.0175,0.0107,438,2019-08-07 16:52:11:694
-4.6935,-7.6037,3.0825,-0.2966,-0.3485,0.0835,0.0112,0.0175,0.0107,443,2019-08-07 16:52:11:699
-4.617,-7.5607,3.0306,-0.2743,-0.3234,0.0509,0.0144,-0.007,0.0171,448,2019-08-07 16:52:11:704
-4.617,-7.5607,3.0306,-0.2743,-0.3234,0.0509,0.0144,-0.007,0.0171,453,2019-08-07 16:52:11:709
-4.617,-7.5607,3.0306,-0.2743,-0.3234,0.0509,0.0187,-0.0198,0.0234,458,2019-08-07 16:52:11:714
-4.6122,-7.556,3.0401,-0.2743,-0.3234,0.0509,0.0187,-0.0198,0.0234,463,2019-08-07 16:52:11:719
-4.6122,-7.556,3.0401,-0.3573,-0.3541,0.1212,0.0155,-0.0294,0.0341,467,2019-08-07 16:52:11:723
-4.6122,-7.556,3.0401,-0.3573,-0.3541,0.1212,0.0155,-0.0294,0.0341,473,2019-08-07 16:52:11:729
-4.5931,-7.5369,2.9316,-0.3573,-0.3541,0.1212,0.0155,-0.0294,0.0341,477,2019-08-07 16:52:11:733
-4.5931,-7.5369,2.9316,-0.3514,-0.3069,0.1873,0.0144,-0.0219,0.0394,484,2019-08-07 16:52:11:740
-4.5787,-7.5655,2.9316,-0.3514,-0.3069,0.1873,0.0144,-0.0219,0.0394,489,2019-08-07 16:52:11:745
-4.5787,-7.5655,2.9316,-0.3514,-0.3069,0.1873,0.0155,0.0037,0.0394,494,2019-08-07 16:52:11:750
-4.6409,-7.5703,2.8892,-0.3514,-0.3069,0.1873,0.0155,0.0037,0.0394,498,2019-08-07 16:52:11:754
-4.6409,-7.5703,2.8892,-0.3514,-0.3069,0.1873,0.0144,0.026,0.0416,503,2019-08-07 16:52:11:759
-4.6409,-7.5703,2.8892,-0.2336,-0.2978,0.2492,0.0144,0.026,0.0416,508,2019-08-07 16:52:11:764
-4.7366,-7.618,2.9128,-0.2336,-0.2978,0.2492,0.0144,0.0431,0.033,513,2019-08-07 16:52:11:769
-4.7366,-7.618,2.9128,-0.2336,-0.2978,0.2492,0.0144,0.0431,0.033,518,2019-08-07 16:52:11:774
-4.837,-7.5703,3.0165,-0.2336,-0.2978,0.2492,0.0187,0.0548,0.0235,522,2019-08-07 16:52:11:778
-4.837,-7.5703,3.0165,-0.1124,-0.2652,0.1522,0.0187,0.0548,0.0235,528,2019-08-07 16:52:11:784
-4.837,-7.5703,3.0165,-0.1124,-0.2652,0.1522,0.0187,0.0548,0.0235,533,2019-08-07 16:52:11:789
-4.8227,-7.6085,2.9694,-0.1303,-0.2636,0.1507,0.0166,0.0473,0.0203,537,2019-08-07 16:52:11:793
-4.8227,-7.6085,2.9694,-0.1303,-0.2636,0.1507,0.0166,0.0473,0.0203,544,2019-08-07 16:52:11:800
-4.8179,-7.5512,3.0212,-0.1303,-0.2636,0.1507,0.0187,0.0324,0.0139,548,2019-08-07 16:52:11:804
-4.8179,-7.5512,3.0212,-0.1303,-0.2636,0.1507,0.0187,0.0324,0.0139,553,2019-08-07 16:52:11:809
-4.8179,-7.5512,3.0212,-0.1497,-0.3083,0.0701,0.0198,0.0239,0.0139,558,2019-08-07 16:52:11:814
-4.7748,-7.5798,3.0731,-0.1497,-0.3083,0.0701,0.0198,0.0239,0.0139,562,2019-08-07 16:52:11:818
-4.7748,-7.5798,3.0731,-0.1497,-0.3083,0.0701,0.0176,0.0101,0.0171,568,2019-08-07 16:52:11:824
-4.7509,-7.5369,3.0024,-0.1497,-0.3083,0.0701,0.0176,0.0101,0.0171,573,2019-08-07 16:52:11:829
-4.7509,-7.5369,3.0024,-0.2054,-0.3007,0.0534,0.0144,-0.0038,0.016,578,2019-08-07 16:52:11:834
-4.7509,-7.5369,3.0024,-0.2054,-0.3007,0.0534,0.0144,-0.0038,0.016,584,2019-08-07 16:52:11:840
-4.7557,-7.5942,3.0495,-0.2054,-0.3007,0.0534,0.0112,-0.0112,0.0171,588,2019-08-07 16:52:11:844
-4.7557,-7.5942,3.0495,-0.2054,-0.3007,0.0534,0.0112,-0.0112,0.0171,592,2019-08-07 16:52:11:848
-4.6839,-7.5846,3.0259,-0.255,-0.3079,0.1414,0.0059,-0.0123,0.0171,598,2019-08-07 16:52:11:854
-4.6839,-7.5846,3.0259,-0.255,-0.3079,0.1414,0.0059,-0.0123,0.0171,603,2019-08-07 16:52:11:859
-4.6839,-7.5846,3.0259,-0.255,-0.3079,0.1414,0.0059,-0.0123,0.0171,607,2019-08-07 16:52:11:863
-4.6456,-7.5751,2.9552,-0.255,-0.3079,0.1414,0.0048,0.009,0.016,613,2019-08-07 16:52:11:869
-4.6456,-7.5751,2.9552,-0.3814,-0.3113,0.1795,0.0048,0.009,0.016,618,2019-08-07 16:52:11:874
-4.6456,-7.5751,2.9552,-0.3814,-0.3113,0.1795,0.0048,0.0378,0.0107,623,2019-08-07 16:52:11:879
-4.6409,-7.618,2.9835,-0.3814,-0.3113,0.1795,0.0048,0.0378,0.0107,627,2019-08-07 16:52:11:883
-4.6409,-7.618,2.9835,-0.3814,-0.3113,0.1795,0.0048,0.0378,0.0107,633,2019-08-07 16:52:11:889
-4.727,-7.6371,2.9694,-0.2411,-0.2249,0.152,0.008,0.0644,-0.0011,638,2019-08-07 16:52:11:894
-4.727,-7.6371,2.9694,-0.2411,-0.2249,0.152,0.008,0.0644,-0.0011,642,2019-08-07 16:52:11:898
-4.8179,-7.5894,3.0165,-0.2411,-0.2249,0.152,0.0123,0.0633,0.0,649,2019-08-07 16:52:11:905
-4.8179,-7.5894,3.0165,-0.2411,-0.2249,0.152,0.0123,0.0633,0.0,652,2019-08-07 16:52:11:908
-4.8179,-7.5894,3.0165,-0.1542,-0.3243,0.0912,0.0102,0.0378,0.0032,658,2019-08-07 16:52:11:914
-4.8083,-7.5655,3.0401,-0.1542,-0.3243,0.0912,0.0102,0.0378,0.0032,663,2019-08-07 16:52:11:919
-4.8083,-7.5655,3.0401,-0.1542,-0.3243,0.0912,0.0144,0.0133,0.0117,667,2019-08-07 16:52:11:923
-4.8083,-7.5655,3.0401,-0.1542,-0.3243,0.0912,0.0144,0.0133,0.0117,673,2019-08-07 16:52:11:929
-4.7892,-7.5798,3.0401,-0.2189,-0.2936,0.0451,0.0208,-0.0091,0.0171,678,2019-08-07 16:52:11:934
-4.7892,-7.5798,3.0401,-0.2189,-0.2936,0.0451,0.0208,-0.0091,0.0171,683,2019-08-07 16:52:11:939
-4.7413,-7.5321,3.0071,-0.2189,-0.2936,0.0451,0.0261,-0.0176,0.0224,688,2019-08-07 16:52:11:944
-4.7413,-7.5321,3.0071,-0.2189,-0.2936,0.0451,0.0261,-0.0176,0.0224,693,2019-08-07 16:52:11:949
-4.7413,-7.5321,3.0071,-0.3169,-0.3329,0.1451,0.0272,-0.0155,0.0298,698,2019-08-07 16:52:11:954
-4.6839,-7.4987,2.9552,-0.3169,-0.3329,0.1451,0.0272,-0.0155,0.0298,703,2019-08-07 16:52:11:959
-4.6839,-7.4987,2.9552,-0.3169,-0.3329,0.1451,0.0272,-0.0155,0.0298,708,2019-08-07 16:52:11:964
-4.6982,-7.513,2.9977,-0.3169,-0.3329,0.1451,0.0272,0.009,0.033,713,2019-08-07 16:52:11:969
-4.6982,-7.513,2.9977,-0.2547,-0.3378,0.1351,0.0272,0.009,0.033,718,2019-08-07 16:52:11:974
-4.6982,-7.513,2.9977,-0.2547,-0.3378,0.1351,0.0283,0.0292,0.0352,722,2019-08-07 16:52:11:978
-4.7939,-7.5703,2.9694,-0.2547,-0.3378,0.1351,0.0283,0.0292,0.0352,728,2019-08-07 16:52:11:984
-4.7939,-7.5703,2.9694,-0.2547,-0.3378,0.1351,0.0315,0.042,0.032,733,2019-08-07 16:52:11:989
-4.7939,-7.5703,2.9694,-0.1758,-0.3041,0.1927,0.0315,0.042,0.032,738,2019-08-07 16:52:11:994
-4.837,-7.5226,2.9505,-0.1758,-0.3041,0.1927,0.0251,0.0431,0.0266,744,2019-08-07 16:52:12:000
-4.837,-7.5226,2.9505,-0.1758,-0.3041,0.1927,0.0251,0.0431,0.0266,748,2019-08-07 16:52:12:004
-4.9662,-7.5321,2.9929,-0.1758,-0.3041,0.1927,0.0304,0.0495,0.0245,753,2019-08-07 16:52:12:009
-4.9662,-7.5321,2.9929,-0.1758,-0.3041,0.1927,0.0304,0.0495,0.0245,758,2019-08-07 16:52:12:014
-4.9662,-7.5321,2.9929,-0.1261,-0.309,0.1921,0.0304,0.0495,0.0245,763,2019-08-07 16:52:12:019
-4.8513,-7.5082,3.0024,-0.1261,-0.309,0.1921,0.0283,0.0431,0.0171,768,2019-08-07 16:52:12:024
-4.8513,-7.5082,3.0024,-0.1261,-0.309,0.1921,0.0283,0.0431,0.0171,773,2019-08-07 16:52:12:029
-4.8418,-7.5082,3.0118,-0.1609,-0.3289,0.117,0.0251,0.0303,0.0203,778,2019-08-07 16:52:12:034
-4.8418,-7.5082,3.0118,-0.1609,-0.3289,0.117,0.0251,0.0303,0.0203,782,2019-08-07 16:52:12:038
-4.8418,-7.5082,3.0118,-0.1609,-0.3289,0.117,0.0261,0.0228,0.0181,788,2019-08-07 16:52:12:044
-4.7939,-7.5464,3.0354,-0.1609,-0.3289,0.117,0.0261,0.0228,0.0181,792,2019-08-07 16:52:12:048
-4.7939,-7.5464,3.0354,-0.1747,-0.3061,0.0721,0.0304,0.0207,0.0171,798,2019-08-07 16:52:12:054
-4.7939,-7.5464,3.0354,-0.1747,-0.3061,0.0721,0.0304,0.0207,0.0171,803,2019-08-07 16:52:12:059
-4.8083,-7.4987,3.0778,-0.1747,-0.3061,0.0721,0.0293,0.0239,0.0139,808,2019-08-07 16:52:12:064
-4.8083,-7.4987,3.0778,-0.1576,-0.3139,0.1017,0.0293,0.0239,0.0139,813,2019-08-07 16:52:12:069
-4.8704,-7.5035,3.0165,-0.1576,-0.3139,0.1017,0.0229,0.0143,0.0171,817,2019-08-07 16:52:12:073
-4.8704,-7.5035,3.0165,-0.1576,-0.3139,0.1017,0.0229,0.0143,0.0171,823,2019-08-07 16:52:12:079
-4.8704,-7.5035,3.0165,-0.1576,-0.3139,0.1017,0.0208,0.0058,0.0139,827,2019-08-07 16:52:12:083
-4.7748,-7.4891,3.0684,-0.2373,-0.3392,0.0672,0.0208,0.0058,0.0139,833,2019-08-07 16:52:12:089
-4.7748,-7.4891,3.0684,-0.2373,-0.3392,0.0672,0.0198,0.0026,0.0117,838,2019-08-07 16:52:12:094
-4.7604,-7.5464,3.0448,-0.2373,-0.3392,0.0672,0.0198,0.0026,0.0117,843,2019-08-07 16:52:12:099
-4.7604,-7.5464,3.0448,-0.2373,-0.3392,0.0672,0.0166,0.0122,0.0117,848,2019-08-07 16:52:12:104
-4.7604,-7.5464,3.0448,-0.2964,-0.3322,0.1455,0.0166,0.0122,0.0117,852,2019-08-07 16:52:12:108
-4.6791,-7.5273,2.9599,-0.2964,-0.3322,0.1455,0.0155,0.0239,0.0096,858,2019-08-07 16:52:12:114
-4.6791,-7.5273,2.9599,-0.2964,-0.3322,0.1455,0.0155,0.0239,0.0096,863,2019-08-07 16:52:12:119
-4.6791,-7.5273,2.9599,-0.2964,-0.3322,0.1455,0.0219,0.0452,0.0139,867,2019-08-07 16:52:12:123
-4.7317,-7.5894,2.9505,-0.285,-0.2349,0.1877,0.0219,0.0452,0.0139,873,2019-08-07 16:52:12:129
-4.7317,-7.5894,2.9505,-0.285,-0.2349,0.1877,0.0219,0.0718,0.0117,878,2019-08-07 16:52:12:134
-4.8465,-7.5464,3.0731,-0.285,-0.2349,0.1877,0.0219,0.0718,0.0117,883,2019-08-07 16:52:12:139
-4.8465,-7.5464,3.0731,-0.285,-0.2349,0.1877,0.0219,0.0718,0.0117,888,2019-08-07 16:52:12:144
-4.8465,-7.5464,3.0731,-0.0811,-0.2752,0.0331,0.0229,0.0772,0.0128,894,2019-08-07 16:52:12:150
-5.0283,-7.4605,3.1579,-0.0811,-0.2752,0.0331,0.0229,0.0772,0.0128,898,2019-08-07 16:52:12:154
-5.0283,-7.4605,3.1579,-0.0811,-0.2752,0.0331,0.024,0.0505,0.0149,903,2019-08-07 16:52:12:159
-5.0714,-7.4939,3.2286,-0.0811,-0.2752,0.0331,0.024,0.0505,0.0149,907,2019-08-07 16:52:12:163
-5.0714,-7.4939,3.2286,0.0318,-0.3093,-0.0806,0.0155,0.0101,0.0117,913,2019-08-07 16:52:12:169
-5.0714,-7.4939,3.2286,0.0318,-0.3093,-0.0806,0.0155,0.0101,0.0117,918,2019-08-07 16:52:12:174
-5.0379,-7.451,3.1485,0.0318,-0.3093,-0.0806,0.0123,-0.0294,0.0096,923,2019-08-07 16:52:12:179
-5.0379,-7.451,3.1485,0.0318,-0.3093,-0.0806,0.0123,-0.0294,0.0096,927,2019-08-07 16:52:12:183
-5.0379,-7.451,3.1485,-0.1458,-0.259,0.0616,0.0091,-0.0581,0.0032,933,2019-08-07 16:52:12:189
-4.8034,-7.5417,3.0542,-0.1458,-0.259,0.0616,0.0091,-0.0581,0.0032,938,2019-08-07 16:52:12:194
-4.8034,-7.5417,3.0542,-0.1458,-0.259,0.0616,0.0091,-0.0581,0.0032,943,2019-08-07 16:52:12:199
-4.8034,-7.5417,3.0542,-0.1458,-0.259,0.0616,0.0091,-0.0443,-0.0021,947,2019-08-07 16:52:12:203
-4.6216,-7.5703,3.0071,-0.4049,-0.2447,0.1388,0.0091,-0.0443,-0.0021,953,2019-08-07 16:52:12:209
-4.6216,-7.5703,3.0071,-0.4049,-0.2447,0.1388,0.0155,-0.0091,-0.0106,957,2019-08-07 16:52:12:213
-4.6216,-7.5703,3.0071,-0.4049,-0.2447,0.1388,0.0155,-0.0091,-0.0106,963,2019-08-07 16:52:12:219
-4.6838,-7.5464,3.0165,-0.3409,-0.2688,0.1314,0.0155,-0.0091,-0.0106,967,2019-08-07 16:52:12:223
-4.6838,-7.5464,3.0165,-0.3409,-0.2688,0.1314,0.0229,0.0207,-0.0117,973,2019-08-07 16:52:12:229
-4.7412,-7.4319,3.0872,-0.3409,-0.2688,0.1314,0.0251,0.0271,-0.0085,978,2019-08-07 16:52:12:234
-4.7412,-7.4319,3.0872,-0.2778,-0.4071,0.1004,0.0251,0.0271,-0.0085,984,2019-08-07 16:52:12:240
-4.7412,-7.4319,3.0872,-0.2778,-0.4071,0.1004,0.0251,0.0271,-0.0085,988,2019-08-07 16:52:12:244
-4.8178,-7.408,3.1202,-0.2778,-0.4071,0.1004,0.024,0.0282,-0.0021,992,2019-08-07 16:52:12:248
-4.8178,-7.408,3.1202,-0.2778,-0.4071,0.1004,0.024,0.0282,-0.0021,998,2019-08-07 16:52:12:254
-4.8513,-7.3889,3.0778,-0.1742,-0.4241,0.0745,0.0229,0.0058,0.0075,1003,2019-08-07 16:52:12:259
-4.8513,-7.3889,3.0778,-0.1742,-0.4241,0.0745,0.0229,0.0058,0.0075,1008,2019-08-07 16:52:12:264
-4.8513,-7.3889,3.0778,-0.1742,-0.4241,0.0745,0.0261,-0.0134,0.0128,1013,2019-08-07 16:52:12:269
-4.8656,-7.4223,3.0448,-0.1742,-0.4241,0.0745,0.0261,-0.0134,0.0128,1018,2019-08-07 16:52:12:274
-4.8656,-7.4223,3.0448,-0.1759,-0.4303,0.0944,0.0272,-0.0219,0.0181,1023,2019-08-07 16:52:12:279
-4.8656,-7.4223,3.0448,-0.1759,-0.4303,0.0944,0.0272,-0.0219,0.0181,1028,2019-08-07 16:52:12:284
-4.813,-7.3794,2.9977,-0.1759,-0.4303,0.0944,0.0315,-0.0208,0.0203,1032,2019-08-07 16:52:12:288
-4.813,-7.3794,2.9977,-0.1759,-0.4303,0.0944,0.0315,-0.0208,0.0203,1038,2019-08-07 16:52:12:294
-4.813,-7.3794,2.9977,-0.3029,-0.45,0.2372,0.0251,-0.0059,0.0266,1044,2019-08-07 16:52:12:300
-4.7125,-7.4128,2.9317,-0.3029,-0.45,0.2372,0.0251,-0.0059,0.0266,1048,2019-08-07 16:52:12:304
-4.7125,-7.4128,2.9317,-0.3029,-0.45,0.2372,0.0283,0.0133,0.0288,1053,2019-08-07 16:52:12:309
-4.7364,-7.365,2.9222,-0.3029,-0.45,0.2372,0.0283,0.0133,0.0288,1058,2019-08-07 16:52:12:314
-4.7364,-7.365,2.9222,-0.3271,-0.393,0.1838,0.0293,0.0324,0.033,1063,2019-08-07 16:52:12:319
-4.7364,-7.365,2.9222,-0.3271,-0.393,0.1838,0.0293,0.0324,0.033,1068,2019-08-07 16:52:12:324
-4.7938,-7.408,2.9694,-0.3271,-0.393,0.1838,0.0315,0.0495,0.0384,1073,2019-08-07 16:52:12:329
-4.7938,-7.408,2.9694,-0.3271,-0.393,0.1838,0.0315,0.0495,0.0384,1077,2019-08-07 16:52:12:333
-4.9134,-7.408,3.0448,-0.1307,-0.3867,0.1231,0.0357,0.0548,0.0426,1084,2019-08-07 16:52:12:340
-4.9134,-7.408,3.0448,-0.1307,-0.3867,0.1231,0.0357,0.0548,0.0426,1087,2019-08-07 16:52:12:343
-4.9134,-7.408,3.0448,-0.1307,-0.3867,0.1231,0.0368,0.0441,0.048,1093,2019-08-07 16:52:12:349
-5.0139,-7.3459,3.1532,-0.1307,-0.3867,0.1231,0.0368,0.0441,0.048,1098,2019-08-07 16:52:12:354
-5.0139,-7.3459,3.1532,-0.0278,-0.4069,0.0871,0.04,0.0314,0.0533,1103,2019-08-07 16:52:12:359
-5.0139,-7.3459,3.1532,-0.0278,-0.4069,0.0871,0.04,0.0314,0.0533,1108,2019-08-07 16:52:12:364
-5.057,-7.3841,3.1391,-0.0278,-0.4069,0.0871,0.04,0.0314,0.0533,1113,2019-08-07 16:52:12:369
-5.057,-7.3841,3.1391,-0.0192,-0.4214,0.0375,0.0411,0.0207,0.0501,1118,2019-08-07 16:52:12:374
-5.0378,-7.4319,3.1438,-0.0192,-0.4214,0.0375,0.0411,0.0207,0.0501,1123,2019-08-07 16:52:12:379
-5.0378,-7.4319,3.1438,-0.0192,-0.4214,0.0375,0.0347,0.0026,0.0469,1128,2019-08-07 16:52:12:384
-5.0378,-7.4319,3.1438,-0.138,-0.3085,0.0569,0.0347,0.0026,0.0469,1133,2019-08-07 16:52:12:389
-4.9278,-7.4701,3.1579,-0.138,-0.3085,0.0569,0.0347,0.0026,0.0469,1138,2019-08-07 16:52:12:394
-4.9278,-7.4701,3.1579,-0.138,-0.3085,0.0569,0.0315,-0.0059,0.0373,1143,2019-08-07 16:52:12:399
-4.9278,-7.4701,3.1579,-0.138,-0.3085,0.0569,0.0315,-0.0059,0.0373,1148,2019-08-07 16:52:12:404
-4.8082,-7.4462,3.0448,-0.3256,-0.2974,0.0631,0.0315,-0.008,0.0416,1153,2019-08-07 16:52:12:409
-4.8082,-7.4462,3.0448,-0.3256,-0.2974,0.0631,0.0315,-0.008,0.0416,1158,2019-08-07 16:52:12:414
-4.722,-7.4796,3.0731,-0.3256,-0.2974,0.0631,0.0272,-0.007,0.0458,1163,2019-08-07 16:52:12:419
-4.722,-7.4796,3.0731,-0.3619,-0.2944,0.0848,0.0272,-0.007,0.0458,1167,2019-08-07 16:52:12:423
-4.722,-7.4796,3.0731,-0.3619,-0.2944,0.0848,0.0293,-0.0038,0.0597,1173,2019-08-07 16:52:12:429
-4.679,-7.408,3.1344,-0.3619,-0.2944,0.0848,0.0293,-0.0038,0.0597,1177,2019-08-07 16:52:12:433
-4.679,-7.408,3.1344,-0.3619,-0.2944,0.0848,0.0283,-0.007,0.0746,1182,2019-08-07 16:52:12:438
-4.6072,-7.4128,3.1579,-0.4369,-0.3535,0.0153,0.0283,-0.007,0.0746,1188,2019-08-07 16:52:12:444
-4.6072,-7.4128,3.1579,-0.4369,-0.3535,0.0153,0.0293,-0.0091,0.0948,1193,2019-08-07 16:52:12:449
-4.6072,-7.4128,3.1579,-0.4369,-0.3535,0.0153,0.0293,-0.0091,0.0948,1198,2019-08-07 16:52:12:454
-4.6503,-7.3268,3.1532,-0.4369,-0.3535,0.0153,0.0293,-0.0091,0.0948,1203,2019-08-07 16:52:12:459
-4.6503,-7.3268,3.1532,-0.4687,-0.3614,0.0789,0.0251,-0.0187,0.1161,1208,2019-08-07 16:52:12:464
-4.6503,-7.3268,3.1532,-0.4687,-0.3614,0.0789,0.0251,-0.0187,0.1161,1213,2019-08-07 16:52:12:469
-4.679,-7.3937,3.0872,-0.4687,-0.3614,0.0789,0.0219,-0.0176,0.1236,1217,2019-08-07 16:52:12:473
-4.679,-7.3937,3.0872,-0.3711,-0.3239,0.1456,0.0219,-0.0176,0.1236,1223,2019-08-07 16:52:12:479
-4.679,-7.3937,3.0872,-0.3711,-0.3239,0.1456,0.0219,-0.0176,0.1236,1228,2019-08-07 16:52:12:484
-4.7651,-7.4223,2.9835,-0.3711,-0.3239,0.1456,0.0176,-0.0027,0.1321,1233,2019-08-07 16:52:12:489
-4.7651,-7.4223,2.9835,-0.3523,-0.2833,0.2131,0.0176,-0.0027,0.1321,1237,2019-08-07 16:52:12:493
-4.8273,-7.4939,2.993,-0.3523,-0.2833,0.2131,0.0155,0.0111,0.131,1243,2019-08-07 16:52:12:499
-4.8273,-7.4939,2.993,-0.3523,-0.2833,0.2131,0.0155,0.0111,0.131,1249,2019-08-07 16:52:12:505
-4.8273,-7.4939,2.993,-0.3523,-0.2833,0.2131,0.0123,0.025,0.1278,1252,2019-08-07 16:52:12:508
-4.9277,-7.4557,3.0354,-0.1725,-0.2311,0.199,0.0123,0.025,0.1278,1258,2019-08-07 16:52:12:514
-4.9277,-7.4557,3.0354,-0.1725,-0.2311,0.199,0.0155,0.0388,0.1236,1263,2019-08-07 16:52:12:519
-5.0521,-7.4796,2.9883,-0.1725,-0.2311,0.199,0.0155,0.0388,0.1236,1268,2019-08-07 16:52:12:524
-5.0521,-7.4796,2.9883,-0.1725,-0.2311,0.199,0.0187,0.0484,0.1151,1273,2019-08-07 16:52:12:529
-5.143,-7.4605,3.0495,-0.0271,-0.2365,0.1541,0.0187,0.0484,0.1151,1278,2019-08-07 16:52:12:534
-5.143,-7.4605,3.0495,-0.0271,-0.2365,0.1541,0.0198,0.0452,0.1087,1283,2019-08-07 16:52:12:539
-5.143,-7.4605,3.0495,-0.0271,-0.2365,0.1541,0.0198,0.0452,0.1087,1289,2019-08-07 16:52:12:545
-5.2626,-7.408,3.0825,-0.0271,-0.2365,0.1541,0.0229,0.0303,0.1033,1294,2019-08-07 16:52:12:550
-5.2626,-7.408,3.0825,0.0386,-0.2472,0.1195,0.0229,0.0303,0.1033,1297,2019-08-07 16:52:12:553
-5.2435,-7.4557,3.0825,0.0386,-0.2472,0.1195,0.0293,0.0133,0.0895,1303,2019-08-07 16:52:12:559
-5.2435,-7.4557,3.0825,0.0386,-0.2472,0.1195,0.0293,0.0133,0.0895,1308,2019-08-07 16:52:12:564
-5.2435,-7.4557,3.0825,0.0386,-0.2472,0.1195,0.0293,0.0133,0.0895,1313,2019-08-07 16:52:12:569
-5.2483,-7.4939,3.1344,0.0427,-0.1785,0.0707,0.0251,-0.0081,0.0735,1318,2019-08-07 16:52:12:574
-5.2483,-7.4939,3.1344,0.0427,-0.1785,0.0707,0.0251,-0.0081,0.0735,1322,2019-08-07 16:52:12:578
-5.2483,-7.4939,3.1344,0.0427,-0.1785,0.0707,0.024,-0.0208,0.0575,1328,2019-08-07 16:52:12:584
-5.1813,-7.4844,3.0684,0.0427,-0.1785,0.0707,0.024,-0.023,0.0437,1333,2019-08-07 16:52:12:589
-5.1813,-7.4844,3.0684,-0.0995,-0.2134,0.1376,0.024,-0.023,0.0437,1338,2019-08-07 16:52:12:594
-5.1813,-7.4844,3.0684,-0.0995,-0.2134,0.1376,0.024,-0.023,0.0437,1343,2019-08-07 16:52:12:599
-5.0473,-7.4892,3.0118,-0.0995,-0.2134,0.1376,0.0219,-0.0176,0.0298,1348,2019-08-07 16:52:12:604
-5.0473,-7.4892,3.0118,-0.1588,-0.1682,0.0976,0.0219,-0.0176,0.0298,1353,2019-08-07 16:52:12:609
-4.9851,-7.4796,3.1108,-0.1588,-0.1682,0.0976,0.0166,-0.0049,0.0171,1357,2019-08-07 16:52:12:613
-4.9851,-7.4796,3.1108,-0.1588,-0.1682,0.0976,0.0166,-0.0049,0.0171,1363,2019-08-07 16:52:12:619
-4.9851,-7.4796,3.1108,-0.3038,-0.1803,0.1099,0.0144,0.0058,0.0085,1368,2019-08-07 16:52:12:624
-4.8942,-7.4223,3.1627,-0.3038,-0.1803,0.1099,0.0144,0.0058,0.0085,1372,2019-08-07 16:52:12:628
-4.8942,-7.4223,3.1627,-0.3038,-0.1803,0.1099,0.0059,0.0122,0.0064,1378,2019-08-07 16:52:12:634
-4.8276,-7.4223,3.1485,-0.3038,-0.1803,0.1099,0.0059,0.0122,0.0064,1384,2019-08-07 16:52:12:640
-4.8276,-7.4223,3.1485,-0.3373,-0.2514,0.054,0.008,0.0069,0.0043,1388,2019-08-07 16:52:12:644
-4.8276,-7.4223,3.1485,-0.3373,-0.2514,0.054,0.008,0.0069,0.0043,1393,2019-08-07 16:52:12:649
-4.9233,-7.4127,3.1579,-0.3373,-0.2514,0.054,0.007,-0.0038,0.0085,1398,2019-08-07 16:52:12:654
-4.9233,-7.4127,3.1579,-0.3373,-0.2514,0.054,0.007,-0.0038,0.0085,1403,2019-08-07 16:52:12:659
-4.9233,-7.4127,3.1579,-0.3278,-0.3126,0.0466,0.007,-0.0038,0.0085,1408,2019-08-07 16:52:12:664
-4.8659,-7.3984,3.2003,-0.3278,-0.3126,0.0466,0.0038,-0.0262,0.0171,1413,2019-08-07 16:52:12:669
-4.8659,-7.3984,3.2003,-0.3278,-0.3126,0.0466,0.0038,-0.0262,0.0171,1418,2019-08-07 16:52:12:674
-4.8276,-7.3746,3.1249,-0.3278,-0.3126,0.0466,0.0038,-0.0411,0.0234,1423,2019-08-07 16:52:12:679
-4.8276,-7.3746,3.1249,-0.3854,-0.3105,0.1033,0.0038,-0.0411,0.0234,1427,2019-08-07 16:52:12:683
-4.8276,-7.3746,3.1249,-0.3854,-0.3105,0.1033,0.0038,-0.0336,0.0266,1433,2019-08-07 16:52:12:689
-4.8181,-7.2982,3.139,-0.3854,-0.3105,0.1033,0.0038,-0.0336,0.0266,1438,2019-08-07 16:52:12:694
-4.8181,-7.2982,3.139,-0.3854,-0.3105,0.1033,0.0038,-0.0336,0.0266,1443,2019-08-07 16:52:12:699
-4.8181,-7.2982,3.139,-0.3854,-0.3105,0.1033,0.0048,-0.0262,0.033,1447,2019-08-07 16:52:12:703
-4.8707,-7.2934,3.0447,-0.3488,-0.36,0.1831,0.0027,-0.0123,0.0373,1453,2019-08-07 16:52:12:709
-4.8707,-7.2934,3.0447,-0.3488,-0.36,0.1831,0.0027,-0.0123,0.0373,1458,2019-08-07 16:52:12:714
-4.9568,-7.3268,3.0447,-0.3488,-0.36,0.1831,0.0027,-0.0123,0.0373,1463,2019-08-07 16:52:12:719
-4.9568,-7.3268,3.0447,-0.3488,-0.36,0.1831,0.0038,0.0015,0.0394,1468,2019-08-07 16:52:12:724
-4.9616,-7.2839,3.073,-0.301,-0.2845,0.2173,6.0E-4,0.0186,0.0384,1473,2019-08-07 16:52:12:729
-4.9616,-7.2839,3.073,-0.301,-0.2845,0.2173,6.0E-4,0.0186,0.0384,1477,2019-08-07 16:52:12:733
-4.9616,-7.2839,3.073,-0.301,-0.2845,0.2173,6.0E-4,0.0186,0.0384,1484,2019-08-07 16:52:12:740
-5.0812,-7.3077,3.0636,-0.301,-0.2845,0.2173,0.0038,0.0218,0.0394,1488,2019-08-07 16:52:12:744
-5.0812,-7.3077,3.0636,-0.1553,-0.3423,0.1591,0.0038,0.0218,0.0394,1493,2019-08-07 16:52:12:749
-5.0812,-7.3077,3.0636,-0.1553,-0.3423,0.1591,0.0048,0.0175,0.0362,1498,2019-08-07 16:52:12:754
-5.129,-7.3125,3.1296,-0.1553,-0.3423,0.1591,0.0048,0.0175,0.0362,1503,2019-08-07 16:52:12:759
-5.129,-7.3125,3.1296,-0.1553,-0.3423,0.1591,0.0048,0.0058,0.0394,1508,2019-08-07 16:52:12:764
-5.0573,-7.3889,3.0636,-0.1482,-0.3044,0.1485,0.0048,0.0058,0.0394,1513,2019-08-07 16:52:12:769
-5.0573,-7.3889,3.0636,-0.1482,-0.3044,0.1485,0.0027,-0.0059,0.0362,1518,2019-08-07 16:52:12:774
-5.0573,-7.3889,3.0636,-0.1482,-0.3044,0.1485,0.0027,-0.0059,0.0362,1523,2019-08-07 16:52:12:779
-5.0334,-7.365,3.0777,-0.1482,-0.3044,0.1485,0.0091,-0.0144,0.0373,1528,2019-08-07 16:52:12:784
-5.0334,-7.365,3.0777,-0.2299,-0.2573,0.1357,0.0091,-0.0144,0.0373,1533,2019-08-07 16:52:12:789
-5.0334,-7.365,3.0777,-0.2299,-0.2573,0.1357,0.0134,-0.0176,0.0384,1538,2019-08-07 16:52:12:794
-4.9999,-7.3459,3.0966,-0.2299,-0.2573,0.1357,0.0134,-0.0176,0.0384,1543,2019-08-07 16:52:12:799
-4.9999,-7.3459,3.0966,-0.2299,-0.2573,0.1357,0.0176,-0.0187,0.0394,1548,2019-08-07 16:52:12:804
-4.9138,-7.365,3.1013,-0.3299,-0.3003,0.1541,0.0176,-0.0187,0.0394,1553,2019-08-07 16:52:12:809
-4.9138,-7.365,3.1013,-0.3299,-0.3003,0.1541,0.0176,-0.0187,0.0394,1558,2019-08-07 16:52:12:814
-4.9138,-7.365,3.1013,-0.3299,-0.3003,0.1541,0.0219,-0.0102,0.0394,1564,2019-08-07 16:52:12:820
-4.9138,-7.3125,3.0919,-0.3299,-0.3003,0.1541,0.0219,-0.0102,0.0394,1567,2019-08-07 16:52:12:823
-4.9138,-7.3125,3.0919,-0.2769,-0.3193,0.1582,0.0176,0.0047,0.0298,1573,2019-08-07 16:52:12:829
-4.9664,-7.3316,3.0306,-0.2769,-0.3193,0.1582,0.0176,0.0047,0.0298,1578,2019-08-07 16:52:12:834
-4.9664,-7.3316,3.0306,-0.2769,-0.3193,0.1582,0.0144,0.0165,0.0277,1583,2019-08-07 16:52:12:839
-4.9664,-7.3316,3.0306,-0.2769,-0.3193,0.1582,0.0144,0.0165,0.0277,1588,2019-08-07 16:52:12:844
-4.9664,-7.3507,3.106,-0.2913,-0.2726,0.1311,0.0144,0.0165,0.0277,1593,2019-08-07 16:52:12:849
-4.9664,-7.3507,3.106,-0.2913,-0.2726,0.1311,0.0176,0.025,0.0224,1597,2019-08-07 16:52:12:853
-5.0286,-7.3889,3.0966,-0.2913,-0.2726,0.1311,0.0219,0.0346,0.0213,1603,2019-08-07 16:52:12:859
-5.0286,-7.3889,3.0966,-0.2913,-0.2726,0.1311,0.0219,0.0346,0.0213,1608,2019-08-07 16:52:12:864
-5.0286,-7.3889,3.0966,-0.2482,-0.2645,0.0274,0.0219,0.0346,0.0213,1613,2019-08-07 16:52:12:869
-5.0334,-7.3316,3.1956,-0.2482,-0.2645,0.0274,0.0251,0.0314,0.0245,1619,2019-08-07 16:52:12:875
-5.0334,-7.3316,3.1956,-0.2482,-0.2645,0.0274,0.0251,0.0314,0.0245,1623,2019-08-07 16:52:12:879
-5.0334,-7.3316,3.1956,-0.2482,-0.2645,0.0274,0.0304,0.0186,0.0256,1628,2019-08-07 16:52:12:884
-5.0525,-7.3077,3.2003,-0.2008,-0.3363,0.0392,0.0304,0.0186,0.0256,1633,2019-08-07 16:52:12:889
-5.0525,-7.3077,3.2003,-0.2008,-0.3363,0.0392,0.0283,-0.0123,0.0384,1638,2019-08-07 16:52:12:894
-5.0669,-7.2886,3.2239,-0.2008,-0.3363,0.0392,0.0283,-0.0123,0.0384,1643,2019-08-07 16:52:12:899
-5.0669,-7.2886,3.2239,-0.2008,-0.3363,0.0392,0.0283,-0.0123,0.0384,1648,2019-08-07 16:52:12:904
-5.0669,-7.2886,3.2239,-0.2918,-0.3677,0.0661,0.0315,-0.0528,0.0543,1653,2019-08-07 16:52:12:909
-4.9377,-7.2791,3.1814,-0.2918,-0.3677,0.0661,0.0315,-0.0528,0.0543,1658,2019-08-07 16:52:12:914
-4.9377,-7.2791,3.1814,-0.2918,-0.3677,0.0661,0.0336,-0.0592,0.0597,1663,2019-08-07 16:52:12:919
-4.909,-7.2504,3.1626,-0.2918,-0.3677,0.0661,0.0336,-0.0592,0.0597,1669,2019-08-07 16:52:12:925
-4.909,-7.2504,3.1626,-0.407,-0.3256,0.1912,0.0357,-0.0581,0.0767,1673,2019-08-07 16:52:12:929
-4.909,-7.2504,3.1626,-0.407,-0.3256,0.1912,0.0357,-0.0581,0.0767,1678,2019-08-07 16:52:12:934
-4.8181,-7.4271,3.0777,-0.407,-0.3256,0.1912,0.0496,-0.0272,0.0906,1684,2019-08-07 16:52:12:940
-4.8181,-7.4271,3.0777,-0.407,-0.3256,0.1912,0.0496,-0.0272,0.0906,1688,2019-08-07 16:52:12:944
-4.8181,-7.4271,3.0777,-0.407,-0.3256,0.1912,0.0496,-0.0272,0.0906,1693,2019-08-07 16:52:12:949
-4.8803,-7.556,3.1484,-0.4071,-0.0329,0.1211,0.0645,0.0207,0.0948,1698,2019-08-07 16:52:12:954
-4.8803,-7.556,3.1484,-0.4071,-0.0329,0.1211,0.0645,0.0207,0.0948,1703,2019-08-07 16:52:12:959
-5.0573,-7.6323,3.4171,-0.4071,-0.0329,0.1211,0.1039,0.0591,0.1033,1708,2019-08-07 16:52:12:964
-5.0573,-7.6323,3.4171,-0.2132,0.1502,-0.2694,0.1039,0.0591,0.1033,1713,2019-08-07 16:52:12:969
-5.0573,-7.6323,3.4171,-0.2132,0.1502,-0.2694,0.1561,0.0665,0.1108,1718,2019-08-07 16:52:12:974
-5.1434,-7.8042,3.6481,-0.2132,0.1502,-0.2694,0.1561,0.0665,0.1108,1723,2019-08-07 16:52:12:979
-5.1434,-7.8042,3.6481,-0.2132,0.1502,-0.2694,0.2083,0.0399,0.1172,1727,2019-08-07 16:52:12:983
-5.1434,-7.8042,3.6481,-0.2132,0.1502,-0.2694,0.2083,0.0399,0.1172,1733,2019-08-07 16:52:12:989
-5.1482,-7.8424,3.6811,-0.1746,0.2941,-0.3754,0.2829,0.0218,0.1364,1738,2019-08-07 16:52:12:994
-5.1482,-7.8424,3.6811,-0.1746,0.2941,-0.3754,0.2829,0.0218,0.1364,1743,2019-08-07 16:52:12:999
-5.1004,-7.8185,3.9498,-0.1746,0.2941,-0.3754,0.3436,-0.0144,0.1641,1748,2019-08-07 16:52:13:004
-5.1004,-7.8185,3.9498,-0.4192,0.3156,-0.5241,0.3436,-0.0144,0.1641,1753,2019-08-07 16:52:13:009
-5.1004,-7.8185,3.9498,-0.4192,0.3156,-0.5241,0.4075,-0.0112,0.1886,1758,2019-08-07 16:52:13:014
-4.8611,-7.7469,3.8602,-0.4192,0.3156,-0.5241,0.4075,-0.0112,0.1886,1762,2019-08-07 16:52:13:018
-4.8611,-7.7469,3.8602,-0.4192,0.3156,-0.5241,0.4672,0.0324,0.2173,1768,2019-08-07 16:52:13:024
-4.6793,-7.7326,3.8932,-0.6893,0.2697,-0.47,0.4672,0.0324,0.2173,1773,2019-08-07 16:52:13:029
-4.6793,-7.7326,3.8932,-0.6893,0.2697,-0.47,0.5055,0.0793,0.2322,1777,2019-08-07 16:52:13:033
-4.6793,-7.7326,3.8932,-0.6893,0.2697,-0.47,0.5055,0.0793,0.2322,1783,2019-08-07 16:52:13:039
-4.6459,-7.7899,4.1525,-0.6893,0.2697,-0.47,0.5694,0.1422,0.2749,1788,2019-08-07 16:52:13:044
-4.6459,-7.7899,4.1525,-0.6893,0.2697,-0.47,0.5694,0.1422,0.2749,1793,2019-08-07 16:52:13:049
-4.6459,-7.7899,4.1525,-0.8631,0.4332,-0.6978,0.5694,0.1422,0.2749,1797,2019-08-07 16:52:13:053
-4.3588,-7.9951,4.3505,-0.8631,0.4332,-0.6978,0.6515,0.2125,0.3111,1804,2019-08-07 16:52:13:060
-4.3588,-7.9951,4.3505,-0.8631,0.4332,-0.6978,0.6515,0.2125,0.3111,1808,2019-08-07 16:52:13:064
-4.0191,-8.2147,4.737,-1.445,0.8964,-1.1563,0.775,0.3126,0.3334,1814,2019-08-07 16:52:13:070
-4.0191,-8.2147,4.737,-1.445,0.8964,-1.1563,0.775,0.3126,0.3334,1818,2019-08-07 16:52:13:074
-4.0191,-8.2147,4.737,-1.445,0.8964,-1.1563,1.0371,0.5203,0.3686,1823,2019-08-07 16:52:13:079
-3.6842,-8.4821,4.9821,-1.445,0.8964,-1.1563,1.0371,0.5203,0.3686,1828,2019-08-07 16:52:13:084
-3.6842,-8.4821,4.9821,-1.445,0.8964,-1.1563,1.0371,0.5203,0.3686,1833,2019-08-07 16:52:13:089
-3.6842,-8.4821,4.9821,-2.0193,1.3873,-1.5732,1.2544,0.7419,0.3835,1838,2019-08-07 16:52:13:094
-3.6842,-8.4821,4.9821,-2.0193,1.3873,-1.5732,1.2544,0.7419,0.3835,1843,2019-08-07 16:52:13:099
-3.445,-8.7781,5.2697,-2.1462,1.7222,-1.6593,1.4142,0.9198,0.3867,1847,2019-08-07 16:52:13:103
-3.445,-8.7781,5.2697,-2.1462,1.7222,-1.6593,1.4142,0.9198,0.3867,1854,2019-08-07 16:52:13:110
-3.445,-8.7781,5.2697,-2.1462,1.7222,-1.6593,1.738,1.2767,0.4336,1858,2019-08-07 16:52:13:114
-3.5407,-9.6039,5.9107,-2.1462,1.7222,-1.6593,1.738,1.2767,0.4336,1863,2019-08-07 16:52:13:119
-3.5407,-9.6039,5.9107,-2.2163,2.9432,-2.2267,1.95,1.5078,0.4645,1868,2019-08-07 16:52:13:124
-3.5407,-9.6039,5.9107,-2.2163,2.9432,-2.2267,1.95,1.5078,0.4645,1873,2019-08-07 16:52:13:129
-3.4546,-10.6924,6.3963,-2.2163,2.9432,-2.2267,2.1748,1.706,0.4773,1878,2019-08-07 16:52:13:134
-3.4546,-10.6924,6.3963,-2.5657,4.8595,-2.6085,2.1748,1.706,0.4773,1884,2019-08-07 16:52:13:140
-3.3637,-11.9001,6.6885,-2.5657,4.8595,-2.6085,2.1748,1.706,0.4773,1888,2019-08-07 16:52:13:144
-3.3637,-11.9001,6.6885,-2.5657,4.8595,-2.6085,2.5018,1.9148,0.4698,1893,2019-08-07 16:52:13:149
-3.3637,-11.9001,6.6885,-2.7238,5.9142,-2.7585,2.5018,1.9148,0.4698,1898,2019-08-07 16:52:13:154
-3.2919,-12.8501,6.8723,-2.7238,5.9142,-2.7585,2.8342,2.0554,0.4517,1903,2019-08-07 16:52:13:159
-3.2919,-12.8501,6.8723,-2.7238,5.9142,-2.7585,2.8342,2.0554,0.4517,1908,2019-08-07 16:52:13:164
-3.4833,-13.0745,6.9761,-2.7238,5.9142,-2.7585,3.2049,2.1587,0.4517,1913,2019-08-07 16:52:13:169
-3.4833,-13.0745,6.9761,-2.6286,6.6489,-2.868,3.2049,2.1587,0.4517,1918,2019-08-07 16:52:13:174
-3.4833,-13.0745,6.9761,-2.6286,6.6489,-2.868,3.599,2.2205,0.4986,1923,2019-08-07 16:52:13:179
-3.7512,-12.3775,6.9478,-2.6286,6.6489,-2.868,3.599,2.2205,0.4986,1928,2019-08-07 16:52:13:184
-3.7512,-12.3775,6.9478,-2.6286,6.6489,-2.868,3.7769,2.1523,0.5454,1934,2019-08-07 16:52:13:190
-3.7512,-12.3775,6.9478,-2.3623,5.8134,-2.6943,3.7769,2.1523,0.5454,1938,2019-08-07 16:52:13:194
-4.2631,-11.5373,7.0609,-2.3623,5.8134,-2.6943,3.7769,2.1523,0.5454,1943,2019-08-07 16:52:13:199
-4.2631,-11.5373,7.0609,-2.3623,5.8134,-2.6943,3.8302,1.951,0.6232,1948,2019-08-07 16:52:13:204
-3.8995,-11.4896,7.0609,-2.3623,5.8134,-2.6943,3.8302,1.951,0.6232,1953,2019-08-07 16:52:13:209
-3.8995,-11.4896,7.0609,-2.8411,5.936,-2.6307,3.7919,1.5558,0.7084,1958,2019-08-07 16:52:13:214
-3.8995,-11.4896,7.0609,-2.8411,5.936,-2.6307,3.7919,1.5558,0.7084,1963,2019-08-07 16:52:13:219
-3.0192,-11.8667,7.3579,-2.8411,5.936,-2.6307,3.8153,1.25,0.7681,1968,2019-08-07 16:52:13:224
-3.0192,-11.8667,7.3579,-2.8411,5.936,-2.6307,3.8153,1.25,0.7681,1973,2019-08-07 16:52:13:229
-1.6844,-12.4109,7.1976,-5.1369,7.2342,-2.4115,3.86,1.0966,0.8149,1978,2019-08-07 16:52:13:234
-1.6844,-12.4109,7.1976,-5.1369,7.2342,-2.4115,3.86,1.0966,0.8149,1983,2019-08-07 16:52:13:239
-1.6844,-12.4109,7.1976,-5.1369,7.2342,-2.4115,3.9431,1.1126,0.8469,1988,2019-08-07 16:52:13:244
-0.4884,-12.9599,8.5269,-5.1369,7.2342,-2.4115,3.9431,1.1126,0.8469,1993,2019-08-07 16:52:13:249
-0.4884,-12.9599,8.5269,-6.467,8.3868,-4.1168,3.9431,1.1126,0.8469,1998,2019-08-07 16:52:13:254
-0.8903,-12.9647,10.3417,-6.467,8.3868,-4.1168,4.1114,1.396,0.8735,2003,2019-08-07 16:52:13:259
-0.8903,-12.9647,10.3417,-6.467,8.3868,-4.1168,4.1114,1.396,0.8735,2008,2019-08-07 16:52:13:264
-0.8903,-12.9647,10.3417,-6.467,8.3868,-4.1168,4.1327,1.5568,0.8959,2013,2019-08-07 16:52:13:269
-2.737,-11.9192,11.8124,-4.4389,7.734,-6.5944,4.1327,1.5568,0.8959,2018,2019-08-07 16:52:13:274
-2.737,-11.9192,11.8124,-4.4389,7.734,-6.5944,3.8536,1.4524,1.0056,2022,2019-08-07 16:52:13:278
-3.4642,-11.6614,12.2649,-3.8149,7.742,-6.9839,3.8536,1.4524,1.0056,2028,2019-08-07 16:52:13:284
-3.4642,-11.6614,12.2649,-3.8149,7.742,-6.9839,3.5287,1.0604,1.0994,2033,2019-08-07 16:52:13:289
-3.4642,-11.6614,12.2649,-3.8149,7.742,-6.9839,3.5287,1.0604,1.0994,2038,2019-08-07 16:52:13:294
-3.4642,-11.6614,12.2649,-3.8149,7.742,-6.9839,3.5287,1.0604,1.0994,2043,2019-08-07 16:52:13:299
-3.0097,-12.4682,9.0784,-4.9022,9.3176,-1.9647,3.3018,0.8878,1.1995,2048,2019-08-07 16:52:13:304
-3.0097,-12.4682,9.0784,-4.9022,9.3176,-1.9647,3.3018,0.8878,1.1995,2053,2019-08-07 16:52:13:309
-3.0097,-12.4682,9.0784,-4.9022,9.3176,-1.9647,3.0994,1.4844,1.4711,2058,2019-08-07 16:52:13:314
-1.2921,-12.2009,3.4548,-4.9022,9.3176,-1.9647,3.0994,1.4844,1.4711,2063,2019-08-07 16:52:13:319
-1.2921,-12.2009,3.4548,-6.3881,7.7474,3.1113,3.1399,2.6572,1.7897,2069,2019-08-07 16:52:13:325
-2.072,-8.9642,2.2528,-6.3881,7.7474,3.1113,3.1399,2.6572,1.7897,2072,2019-08-07 16:52:13:328
-2.072,-8.9642,2.2528,-6.3881,7.7474,3.1113,3.1325,3.5286,2.0965,2078,2019-08-07 16:52:13:334
-2.072,-8.9642,2.2528,-6.3881,7.7474,3.1113,3.1325,3.5286,2.0965,2083,2019-08-07 16:52:13:339
-6.7031,-3.5889,1.5127,-0.4613,0.4033,3.2897,3.1325,3.5286,2.0965,2089,2019-08-07 16:52:13:345
-6.7031,-3.5889,1.5127,-0.4613,0.4033,3.2897,2.5508,4.3798,3.0115,2093,2019-08-07 16:52:13:349
-11.9466,-0.4,3.4831,-0.4613,0.4033,3.2897,2.5508,4.3798,3.0115,2098,2019-08-07 16:52:13:354
-11.9466,-0.4,3.4831,-0.4613,0.4033,3.2897,1.982,3.9419,3.5431,2103,2019-08-07 16:52:13:359
-11.9466,-0.4,3.4831,6.1335,-0.7047,-0.0965,1.982,3.9419,3.5431,2108,2019-08-07 16:52:13:364
-14.8124,-0.7819,4.4212,6.1335,-0.7047,-0.0965,1.5782,3.0578,3.7913,2113,2019-08-07 16:52:13:369
-14.8124,-0.7819,4.4212,6.1335,-0.7047,-0.0965,1.5782,3.0578,3.7913,2118,2019-08-07 16:52:13:374
-14.8124,-0.7819,4.4212,6.1335,-0.7047,-0.0965,0.7239,0.2029,3.933,2123,2019-08-07 16:52:13:379
-16.1472,0.3638,3.0494,7.0661,-1.5996,1.4216,0.7239,0.2029,3.933,2128,2019-08-07 16:52:13:384
-16.1472,0.3638,3.0494,7.0661,-1.5996,1.4216,0.1859,-1.8691,3.8573,2133,2019-08-07 16:52:13:389
-16.1472,0.3638,3.0494,7.0661,-1.5996,1.4216,0.1859,-1.8691,3.8573,2138,2019-08-07 16:52:13:394
-13.4154,2.8939,-2.4657,7.0661,-1.5996,1.4216,0.1859,-1.8691,3.8573,2143,2019-08-07 16:52:13:399
-13.4154,2.8939,-2.4657,7.0661,-1.5996,1.4216,-0.303,-3.5543,3.77,2148,2019-08-07 16:52:13:404
-8.2389,3.2568,-7.6368,1.7491,-3.1844,10.8599,-0.303,-3.5543,3.77,2153,2019-08-07 16:52:13:409
-8.2389,3.2568,-7.6368,1.7491,-3.1844,10.8599,-0.743,-4.3724,3.6826,2158,2019-08-07 16:52:13:414
-8.2389,3.2568,-7.6368,1.7491,-3.1844,10.8599,-0.743,-4.3724,3.6826,2163,2019-08-07 16:52:13:419
-4.0144,3.9155,-9.9795,-4.9085,-3.9019,15.4254,-0.7877,-4.0923,3.509,2168,2019-08-07 16:52:13:424
-4.0144,3.9155,-9.9795,-4.9085,-3.9019,15.4254,-0.7877,-4.0923,3.509,2173,2019-08-07 16:52:13:429
-4.0144,3.9155,-9.9795,-4.9085,-3.9019,15.4254,-0.7877,-4.0923,3.509,2178,2019-08-07 16:52:13:434
-3.2441,5.3906,-11.9782,-4.8911,-4.5392,17.3938,-0.3957,-2.3857,2.9998,2183,2019-08-07 16:52:13:439
-3.2441,5.3906,-11.9782,-4.8911,-4.5392,17.3938,-0.3957,-2.3857,2.9998,2188,2019-08-07 16:52:13:444
-3.2441,5.3906,-11.9782,-4.8911,-4.5392,17.3938,0.1987,-0.1263,2.4437,2193,2019-08-07 16:52:13:449
-7.7844,7.4243,-13.1425,-4.8911,-4.5392,17.3938,0.1987,-0.1263,2.4437,2198,2019-08-07 16:52:13:454
-7.7844,7.4243,-13.1425,3.3081,-6.3734,7.93,0.5215,0.8591,1.8834,2203,2019-08-07 16:52:13:459
-11.1238,7.8539,-8.5654,3.3081,-6.3734,7.93,0.5215,0.8591,1.8834,2208,2019-08-07 16:52:13:464
-11.1238,7.8539,-8.5654,3.3081,-6.3734,7.93,0.5535,0.8612,0.979,2212,2019-08-07 16:52:13:468
-10.8415,8.527,-5.7512,2.7415,-6.9059,11.0425,0.5535,0.8612,0.979,2218,2019-08-07 16:52:13:474
-10.8415,8.527,-5.7512,2.7415,-6.9059,11.0425,0.3255,-0.4203,-0.0117,2223,2019-08-07 16:52:13:479
-10.8415,8.527,-5.7512,2.7415,-6.9059,11.0425,0.3255,-0.4203,-0.0117,2228,2019-08-07 16:52:13:484
-10.4731,9.3338,-6.0246,2.3949,-7.6867,11.3411,-0.0548,-2.407,-0.7563,2233,2019-08-07 16:52:13:489
-10.4731,9.3338,-6.0246,2.3949,-7.6867,11.3411,-0.0548,-2.407,-0.7563,2237,2019-08-07 16:52:13:493
-8.0092,9.2622,-4.2522,2.3949,-7.6867,11.3411,-0.3755,-4.0784,-1.208,2243,2019-08-07 16:52:13:499
-8.0092,9.2622,-4.2522,-2.6783,-6.7804,9.9013,-0.3755,-4.0784,-1.208,2249,2019-08-07 16:52:13:505
-8.0092,9.2622,-4.2522,-2.6783,-6.7804,9.9013,-0.3755,-4.0784,-1.208,2253,2019-08-07 16:52:13:509
-2.8614,7.5484,-13.3923,-2.6783,-6.7804,9.9013,-0.564,-1.5506,-1.665,2258,2019-08-07 16:52:13:514
-2.8614,7.5484,-13.3923,-6.7143,-5.5562,17.7798,-0.564,-1.5506,-1.665,2263,2019-08-07 16:52:13:519
-2.8614,7.5484,-13.3923,-6.7143,-5.5562,17.7798,-0.0782,1.2181,-2.1902,2268,2019-08-07 16:52:13:524
-1.6845,7.1045,12.2744,-6.7143,-5.5562,17.7798,-0.0782,1.2181,-2.1902,2273,2019-08-07 16:52:13:529
-1.6845,7.1045,12.2744,-6.7143,-5.5562,17.7798,0.6855,0.9336,-2.073,2278,2019-08-07 16:52:13:534
-5.7941,6.8992,-2.7014,-1.688,-5.7629,9.0459,0.6855,0.9336,-2.073,2283,2019-08-07 16:52:13:539
-5.7941,6.8992,-2.7014,-1.688,-5.7629,9.0459,0.7324,1.7603,-1.9292,2288,2019-08-07 16:52:13:544
-5.7941,6.8992,-2.7014,-1.688,-5.7629,9.0459,0.7324,1.7603,-1.9292,2293,2019-08-07 16:52:13:549
-6.4113,5.6007,0.5181,-1.688,-5.7629,9.0459,0.5982,1.4151,-2.122,2298,2019-08-07 16:52:13:554
-6.4113,5.6007,0.5181,0.1213,-4.7735,4.3563,0.5982,1.4151,-2.122,2303,2019-08-07 16:52:13:559
-9.2196,6.417,2.6016,0.1213,-4.7735,4.3563,0.5982,1.4151,-2.122,2307,2019-08-07 16:52:13:563
-9.2196,6.417,2.6016,0.1213,-4.7735,4.3563,0.5023,0.7632,-1.9835,2313,2019-08-07 16:52:13:569
-9.2196,6.417,2.6016,0.1213,-4.7735,4.3563,0.5023,0.7632,-1.9835,2317,2019-08-07 16:52:13:573
-7.1194,6.1401,3.0494,-1.0842,-5.4492,2.2853,0.6195,0.5363,-1.7918,2323,2019-08-07 16:52:13:579
-7.1194,6.1401,3.0494,-1.0842,-5.4492,2.2853,0.6195,0.5363,-1.7918,2328,2019-08-07 16:52:13:584
-6.3443,6.3311,2.2717,-1.0842,-5.4492,2.2853,0.6919,0.4756,-1.7332,2333,2019-08-07 16:52:13:589
-6.3443,6.3311,2.2717,-1.0842,-5.4492,2.2853,0.6919,0.4756,-1.7332,2338,2019-08-07 16:52:13:594
-6.3443,6.3311,2.2717,-2.0851,-6.0999,3.6875,0.5513,0.483,-1.5404,2343,2019-08-07 16:52:13:599
-5.9233,6.5555,1.277,-2.0851,-6.0999,3.6875,0.5513,0.483,-1.5404,2348,2019-08-07 16:52:13:604
-5.9233,6.5555,1.277,-2.0851,-6.0999,3.6875,0.5513,0.483,-1.5404,2353,2019-08-07 16:52:13:609
-5.9233,6.5555,1.277,-2.0851,-6.0999,3.6875,0.4927,0.7259,-1.3465,2358,2019-08-07 16:52:13:614
-5.9185,5.6819,1.2111,-2.332,-5.1945,4.0917,0.4927,0.7259,-1.3465,2363,2019-08-07 16:52:13:619
-5.9185,5.6819,1.2111,-2.332,-5.1945,4.0917,0.6291,0.9581,-1.2559,2367,2019-08-07 16:52:13:623
-6.7223,5.2236,0.0515,-2.332,-5.1945,4.0917,0.6291,0.9581,-1.2559,2373,2019-08-07 16:52:13:629
-6.7223,5.2236,0.0515,-2.332,-5.1945,4.0917,0.7612,1.102,-1.1856,2378,2019-08-07 16:52:13:634
-6.7223,5.2236,0.0515,-1.4041,-4.5828,6.1359,0.7612,1.102,-1.1856,2383,2019-08-07 16:52:13:639
-7.4597,4.6746,-1.6834,-1.4041,-4.5828,6.1359,0.8144,1.298,-1.142,2388,2019-08-07 16:52:13:644
-7.4597,4.6746,-1.6834,-0.6385,-4.2121,6.621,0.8144,1.298,-1.142,2393,2019-08-07 16:52:13:649
-7.4597,4.6746,-1.6834,-0.6385,-4.2121,6.621,0.9274,1.5025,-1.159,2398,2019-08-07 16:52:13:654
-9.1198,4.0349,-1.1413,-0.6385,-4.2121,6.621,0.9274,1.5025,-1.159,2403,2019-08-07 16:52:13:659
-9.1198,4.0349,-1.1413,-0.6385,-4.2121,6.621,0.9274,1.5025,-1.159,2407,2019-08-07 16:52:13:663
-9.1198,4.0349,-1.1413,1.2777,-3.3017,5.6139,1.1468,1.6697,-1.2953,2413,2019-08-07 16:52:13:669
-10.1389,3.3571,-1.3487,1.2777,-3.3017,5.6139,1.1468,1.6697,-1.2953,2418,2019-08-07 16:52:13:674
-10.1389,3.3571,-1.3487,1.2777,-3.3017,5.6139,1.1638,1.674,-1.616,2422,2019-08-07 16:52:13:678
-10.1389,3.3571,-1.3487,1.2777,-3.3017,5.6139,1.1638,1.674,-1.616,2428,2019-08-07 16:52:13:684
-11.5455,3.8058,-1.2921,2.9075,-3.9623,5.1473,1.0627,1.4002,-1.8823,2434,2019-08-07 16:52:13:690
-11.5455,3.8058,-1.2921,2.9075,-3.9623,5.1473,1.0627,1.4002,-1.8823,2437,2019-08-07 16:52:13:693
-12.2822,4.455,0.1739,2.9075,-3.9623,5.1473,0.905,0.89,-2.0165,2443,2019-08-07 16:52:13:699
-12.2822,4.455,0.1739,2.9075,-3.9623,5.1473,0.905,0.89,-2.0165,2449,2019-08-07 16:52:13:705
-12.2822,4.455,0.1739,2.8485,-4.4114,3.9121,0.905,0.89,-2.0165,2453,2019-08-07 16:52:13:709
-11.5885,4.0015,-0.0335,2.8485,-4.4114,3.9121,0.6973,0.5853,-2.0272,2458,2019-08-07 16:52:13:714
-11.5885,4.0015,-0.0335,2.8485,-4.4114,3.9121,0.6973,0.5853,-2.0272,2463,2019-08-07 16:52:13:719
-9.9858,2.8033,1.39,2.8485,-4.4114,3.9121,0.6855,0.596,-2.0677,2467,2019-08-07 16:52:13:723
-9.9858,2.8033,1.39,0.5881,-2.9642,3.0137,0.6855,0.596,-2.0677,2473,2019-08-07 16:52:13:729
-9.9858,2.8033,1.39,0.5881,-2.9642,3.0137,0.8049,0.7962,-2.1742,2478,2019-08-07 16:52:13:734
-9.2108,1.9488,-0.4672,0.5881,-2.9642,3.0137,0.8049,0.7962,-2.1742,2482,2019-08-07 16:52:13:738
-9.2108,1.9488,-0.4672,0.5881,-2.9642,3.0137,0.759,0.9645,-2.2903,2488,2019-08-07 16:52:13:744
-9.45,1.3664,-0.2834,0.375,-2.2428,3.9044,0.759,0.9645,-2.2903,2493,2019-08-07 16:52:13:749
-9.45,1.3664,-0.2834,0.375,-2.2428,3.9044,0.5812,1.0817,-2.4607,2498,2019-08-07 16:52:13:754
-9.45,1.3664,-0.2834,0.375,-2.2428,3.9044,0.5812,1.0817,-2.4607,2503,2019-08-07 16:52:13:759
-10.5839,0.5119,0.3059,0.375,-2.2428,3.9044,0.5812,1.0817,-2.4607,2508,2019-08-07 16:52:13:764
-10.5839,0.5119,0.3059,2.3066,-1.2268,2.6188,0.3351,1.1861,-2.6685,2513,2019-08-07 16:52:13:769
-12.0048,-0.4429,1.1968,2.3066,-1.2268,2.6188,0.3351,1.1861,-2.6685,2518,2019-08-07 16:52:13:774
-12.0048,-0.4429,1.1968,2.3066,-1.2268,2.6188,0.0283,0.9411,-2.905,2523,2019-08-07 16:52:13:779
-12.0048,-0.4429,1.1968,2.3066,-1.2268,2.6188,0.0283,0.9411,-2.905,2528,2019-08-07 16:52:13:784
-12.4115,-1.2974,2.6675,2.3066,-1.2268,2.6188,-0.2487,0.45,-3.0786,2532,2019-08-07 16:52:13:788
-12.4115,-1.2974,2.6675,3.3213,-0.3764,0.3915,-0.2487,0.45,-3.0786,2538,2019-08-07 16:52:13:794
-11.8565,-1.9132,2.7759,3.3213,-0.3764,0.3915,-0.6151,-0.1636,-3.2107,2543,2019-08-07 16:52:13:799
-11.8565,-1.9132,2.7759,3.3213,-0.3764,0.3915,-0.6151,-0.1636,-3.2107,2548,2019-08-07 16:52:13:804
-11.8565,-1.9132,2.7759,1.9931,-0.2036,-0.1228,-1.0317,-0.7186,-3.2384,2553,2019-08-07 16:52:13:809
-10.6078,-2.3954,3.7941,1.9931,-0.2036,-0.1228,-1.0317,-0.7186,-3.2384,2558,2019-08-07 16:52:13:814
-10.6078,-2.3954,3.7941,1.9931,-0.2036,-0.1228,-1.3385,-1.0818,-3.1734,2563,2019-08-07 16:52:13:819
-8.8329,-3.1735,4.9207,0.7038,0.0036,-1.4103,-1.3385,-1.0818,-3.1734,2568,2019-08-07 16:52:13:824
-8.8329,-3.1735,4.9207,0.7038,0.0036,-1.4103,-1.3385,-1.0818,-3.1734,2573,2019-08-07 16:52:13:829
-8.8329,-3.1735,4.9207,0.7038,0.0036,-1.4103,-1.4684,-1.1468,-3.0679,2578,2019-08-07 16:52:13:834
-7.9,-3.9373,4.1099,-0.6387,0.5276,-0.8214,-1.6591,-0.9945,-3.0232,2583,2019-08-07 16:52:13:839
-7.9,-3.9373,4.1099,-0.6387,0.5276,-0.8214,-1.6591,-0.9945,-3.0232,2587,2019-08-07 16:52:13:843
-7.9,-3.9373,4.1099,-0.6387,0.5276,-0.8214,-1.6591,-0.9945,-3.0232,2593,2019-08-07 16:52:13:849
-8.9956,-3.8418,5.1846,-0.6387,0.5276,-0.8214,-1.9595,-0.9998,-2.9476,2598,2019-08-07 16:52:13:854
-8.9956,-3.8418,5.1846,-0.6387,0.5276,-0.8214,-1.9595,-0.9998,-2.9476,2602,2019-08-07 16:52:13:858
-8.9956,-3.8418,5.1846,1.0647,-0.0583,-2.041,-2.2663,-1.1351,-2.8144,2609,2019-08-07 16:52:13:865
-9.5745,-4.0853,5.7597,1.0647,-0.0583,-2.041,-2.2663,-1.1351,-2.8144,2613,2019-08-07 16:52:13:869
-9.5745,-4.0853,5.7597,1.0647,-0.0583,-2.041,-2.5923,-1.5388,-2.694,2618,2019-08-07 16:52:13:874
-9.7324,-4.5436,5.3638,1.0647,-0.0583,-2.041,-2.5923,-1.5388,-2.694,2622,2019-08-07 16:52:13:878
-9.7324,-4.5436,5.3638,1.8069,0.0275,-1.7831,-2.9491,-2.0406,-2.5705,2628,2019-08-07 16:52:13:884
-9.7324,-4.5436,5.3638,1.8069,0.0275,-1.7831,-2.9491,-2.0406,-2.5705,2633,2019-08-07 16:52:13:889
-9.6176,-5.274,5.4392,1.8069,0.0275,-1.7831,-3.3486,-2.9833,-2.3819,2637,2019-08-07 16:52:13:893
-9.6176,-5.274,5.4392,1.8069,0.0275,-1.7831,-3.3486,-2.9833,-2.3819,2644,2019-08-07 16:52:13:900
-9.053,-6.2574,4.7085,1.8117,0.7973,-1.2746,-3.5649,-3.5522,-2.1859,2648,2019-08-07 16:52:13:904
-9.053,-6.2574,4.7085,1.8117,0.7973,-1.2746,-3.5649,-3.5522,-2.1859,2653,2019-08-07 16:52:13:909
-9.053,-6.2574,4.7085,1.8117,0.7973,-1.2746,-3.5649,-3.5522,-2.1859,2658,2019-08-07 16:52:13:914
-7.656,-7.341,4.7745,1.8117,0.7973,-1.2746,-3.7694,-4.3927,-1.8685,2663,2019-08-07 16:52:13:919
-7.656,-7.341,4.7745,-0.027,1.9509,-0.8492,-3.7694,-4.3927,-1.8685,2668,2019-08-07 16:52:13:924
-5.3787,-8.5584,4.1052,-0.027,1.9509,-0.8492,-3.8333,-4.9807,-1.5499,2673,2019-08-07 16:52:13:929
-5.3787,-8.5584,4.1052,-0.027,1.9509,-0.8492,-3.8333,-4.9807,-1.5499,2678,2019-08-07 16:52:13:934
-5.3787,-8.5584,4.1052,-0.027,1.9509,-0.8492,-3.8141,-5.1437,-1.2708,2683,2019-08-07 16:52:13:939
-2.3121,-9.5322,3.2425,-4.038,3.1672,0.6818,-3.8141,-5.1437,-1.2708,2687,2019-08-07 16:52:13:943
-2.3121,-9.5322,3.2425,-4.038,3.1672,0.6818,-3.7609,-4.6941,-0.9875,2693,2019-08-07 16:52:13:949
0.3193,-10.0239,2.5496,-4.038,3.1672,0.6818,-3.7609,-4.6941,-0.9875,2698,2019-08-07 16:52:13:954
0.3193,-10.0239,2.5496,-4.038,3.1672,0.6818,-3.7246,-3.8973,-0.7851,2703,2019-08-07 16:52:13:959
0.3193,-10.0239,2.5496,-7.2948,3.449,1.6984,-3.7246,-3.8973,-0.7851,2708,2019-08-07 16:52:13:964
1.6876,-10.339,1.8897,-7.2948,3.449,1.6984,-3.7246,-3.8973,-0.7851,2713,2019-08-07 16:52:13:969
1.6876,-10.339,1.8897,-7.2948,3.449,1.6984,-3.6874,-2.8949,-0.6306,2718,2019-08-07 16:52:13:974
1.6876,-10.339,1.8897,-7.2948,3.449,1.6984,-3.6874,-2.8949,-0.6306,2722,2019-08-07 16:52:13:978
1.4196,-10.6684,2.1678,-6.8891,3.4468,1.5964,-3.5606,-1.5474,-0.4857,2728,2019-08-07 16:52:13:984
1.4196,-10.6684,2.1678,-6.8891,3.4468,1.5964,-3.5606,-1.5474,-0.4857,2733,2019-08-07 16:52:13:989
1.4196,-10.6684,2.1678,-6.8891,3.4468,1.5964,-3.4551,-0.8294,-0.4005,2738,2019-08-07 16:52:13:994
-0.2931,-10.7686,3.8977,-6.8891,3.4468,1.5964,-3.4551,-0.8294,-0.4005,2743,2019-08-07 16:52:13:999
-0.2931,-10.7686,3.8977,-4.4761,3.2816,-1.3107,-3.2794,-0.4427,-0.3494,2748,2019-08-07 16:52:14:004
-0.2931,-10.7686,3.8977,-4.4761,3.2816,-1.3107,-3.2794,-0.4427,-0.3494,2753,2019-08-07 16:52:14:009
-1.6806,-11.036,5.7173,-4.4761,3.2816,-1.3107,-3.0642,-0.4384,-0.2961,2758,2019-08-07 16:52:14:014
-1.6806,-11.036,5.7173,-4.4761,3.2816,-1.3107,-3.0642,-0.4384,-0.2961,2763,2019-08-07 16:52:14:019
-2.3313,-11.1792,5.9247,-2.912,3.4249,-2.9739,-2.881,-0.6802,-0.2823,2768,2019-08-07 16:52:14:024
-2.3313,-11.1792,5.9247,-2.912,3.4249,-2.9739,-2.881,-0.6802,-0.2823,2773,2019-08-07 16:52:14:029
-2.3313,-11.1792,5.9247,-2.912,3.4249,-2.9739,-2.7457,-1.0243,-0.2684,2778,2019-08-07 16:52:14:034
-2.6853,-11.0551,5.8021,-2.912,3.4249,-2.9739,-2.7457,-1.0243,-0.2684,2783,2019-08-07 16:52:14:039
-2.6853,-11.0551,5.8021,-2.3947,3.0467,-2.9914,-2.6157,-1.411,-0.2141,2787,2019-08-07 16:52:14:043
-2.6853,-11.0551,5.8021,-2.3947,3.0467,-2.9914,-2.6157,-1.411,-0.2141,2793,2019-08-07 16:52:14:049
-2.1064,-11.2794,5.0479,-2.3947,3.0467,-2.9914,-2.4463,-1.6251,-0.1491,2797,2019-08-07 16:52:14:053
-2.1064,-11.2794,5.0479,-2.3947,3.0467,-2.9914,-2.4463,-1.6251,-0.1491,2802,2019-08-07 16:52:14:058
-1.2166,-11.7664,4.1004,-3.7267,3.6333,-1.7228,-2.4463,-1.6251,-0.1491,2808,2019-08-07 16:52:14:064
-1.2166,-11.7664,4.1004,-3.7267,3.6333,-1.7228,-2.1555,-1.5729,-0.1534,2813,2019-08-07 16:52:14:069
-1.2166,-11.7664,4.1004,-3.7267,3.6333,-1.7228,-2.1555,-1.5729,-0.1534,2818,2019-08-07 16:52:14:074
-1.4749,-11.8571,3.7893,-3.7267,3.6333,-1.7228,-1.7848,-1.394,-0.1832,2822,2019-08-07 16:52:14:078
-1.4749,-11.8571,3.7893,-2.9233,3.468,-1.5898,-1.7848,-1.394,-0.1832,2828,2019-08-07 16:52:14:084
-2.2739,-11.5086,3.7516,-2.9233,3.468,-1.5898,-1.4759,-1.3215,-0.1662,2832,2019-08-07 16:52:14:088
-2.2739,-11.5086,3.7516,-2.9233,3.468,-1.5898,-1.4759,-1.3215,-0.1662,2838,2019-08-07 16:52:14:094
-2.2739,-11.5086,3.7516,-2.9233,3.468,-1.5898,-1.1936,-1.362,-0.1545,2843,2019-08-07 16:52:14:099
-2.8958,-10.8307,3.8129,-1.7747,2.3664,-1.6966,-1.1936,-1.362,-0.1545,2848,2019-08-07 16:52:14:104
-2.8958,-10.8307,3.8129,-1.7747,2.3664,-1.6966,-0.9624,-1.5037,-0.1257,2853,2019-08-07 16:52:14:109
-2.8958,-10.8307,3.8129,-1.7747,2.3664,-1.6966,-0.9624,-1.5037,-0.1257,2858,2019-08-07 16:52:14:114
-2.8959,-10.1624,3.5583,-1.7747,2.3664,-1.6966,-0.7824,-1.6272,-0.1097,2864,2019-08-07 16:52:14:120
-2.8959,-10.1624,3.5583,-2.0404,1.3979,-0.9354,-0.7824,-1.6272,-0.1097,2867,2019-08-07 16:52:14:123
-2.3552,-9.7709,2.691,-2.0404,1.3979,-0.9354,-0.7824,-1.6272,-0.1097,2873,2019-08-07 16:52:14:129
-2.3552,-9.7709,2.691,-2.0404,1.3979,-0.9354,-0.5928,-1.6635,-0.0756,2877,2019-08-07 16:52:14:133
-2.3552,-9.7709,2.691,-2.0404,1.3979,-0.9354,-0.5928,-1.6635,-0.0756,2883,2019-08-07 16:52:14:139
-1.8768,-9.9571,1.7624,-2.6424,1.557,0.5694,-0.4692,-1.5633,-0.0192,2888,2019-08-07 16:52:14:144
-1.8768,-9.9571,1.7624,-2.6424,1.557,0.5694,-0.4692,-1.5633,-0.0192,2892,2019-08-07 16:52:14:148
-1.8577,-10.2626,1.3004,-2.6424,1.557,0.5694,-0.3435,-1.3055,0.033,2898,2019-08-07 16:52:14:154
-1.8577,-10.2626,1.3004,-2.6424,1.557,0.5694,-0.3435,-1.3055,0.033,2903,2019-08-07 16:52:14:159
-1.8577,-10.2626,1.3004,-2.6424,1.557,0.5694,-0.1986,-1.02,0.0788,2908,2019-08-07 16:52:14:164
-2.6615,-9.7614,1.4182,-1.8895,1.4198,0.8626,-0.1986,-1.02,0.0788,2913,2019-08-07 16:52:14:169
-2.6615,-9.7614,1.4182,-1.8895,1.4198,0.8626,-0.0495,-0.8315,0.1662,2918,2019-08-07 16:52:14:174
-2.6615,-9.7614,1.4182,-1.8895,1.4198,0.8626,-0.0495,-0.8315,0.1662,2922,2019-08-07 16:52:14:178
-3.3169,-9.1217,1.3711,-0.9754,0.5382,0.9295,0.0656,-0.7825,0.245,2928,2019-08-07 16:52:14:184
-3.3169,-9.1217,1.3711,-0.9754,0.5382,0.9295,0.0656,-0.7825,0.245,2932,2019-08-07 16:52:14:188
-3.3169,-9.1217,1.3711,-0.9754,0.5382,0.9295,0.0656,-0.7825,0.245,2938,2019-08-07 16:52:14:194
-3.8575,-8.5727,1.4512,-0.9754,0.5382,0.9295,0.0943,-0.8038,0.2791,2943,2019-08-07 16:52:14:199
-3.8575,-8.5727,1.4512,-0.9754,0.5382,0.9295,0.0943,-0.8038,0.2791,2948,2019-08-07 16:52:14:204
-3.9628,-8.3674,1.4984,-0.3925,-0.0287,0.8733,0.1028,-0.84,0.3089,2953,2019-08-07 16:52:14:209
-3.9628,-8.3674,1.4984,-0.3925,-0.0287,0.8733,0.1028,-0.84,0.3089,2957,2019-08-07 16:52:14:213
-3.9628,-8.3674,1.4984,-0.3925,-0.0287,0.8733,0.1007,-0.8773,0.3228,2963,2019-08-07 16:52:14:219
-3.6853,-8.3388,1.4182,-0.3925,-0.0287,0.8733,0.1007,-0.8773,0.3228,2968,2019-08-07 16:52:14:224
-3.6853,-8.3388,1.4182,-0.9082,-0.0421,1.0837,0.0847,-0.8155,0.2983,2973,2019-08-07 16:52:14:229
-3.2021,-8.5297,1.3051,-0.9082,-0.0421,1.0837,0.0847,-0.8155,0.2983,2978,2019-08-07 16:52:14:234
-3.2021,-8.5297,1.3051,-0.9082,-0.0421,1.0837,0.0709,-0.6547,0.2535,2983,2019-08-07 16:52:14:239
-3.2021,-8.5297,1.3051,-0.9082,-0.0421,1.0837,0.0709,-0.6547,0.2535,2988,2019-08-07 16:52:14:244
-2.9821,-8.6586,1.2203,-1.4554,0.2799,1.298,0.0592,-0.4352,0.1992,2993,2019-08-07 16:52:14:249
-2.9821,-8.6586,1.2203,-1.4554,0.2799,1.298,0.0592,-0.4352,0.1992,2997,2019-08-07 16:52:14:253
-2.8864,-8.6109,1.3428,-1.4554,0.2799,1.298,0.0592,-0.4352,0.1992,3002,2019-08-07 16:52:14:258
-2.8864,-8.6109,1.3428,-1.4554,0.2799,1.298,0.0645,-0.1359,0.1332,3008,2019-08-07 16:52:14:264
-2.8864,-8.6109,1.3428,-1.4924,0.2039,1.2212,0.0645,-0.1359,0.1332,3013,2019-08-07 16:52:14:269
-2.9917,-8.5392,1.3334,-1.4924,0.2039,1.2212,0.0624,0.0165,0.0991,3018,2019-08-07 16:52:14:274
-2.9917,-8.5392,1.3334,-1.4924,0.2039,1.2212,0.0624,0.0165,0.0991,3023,2019-08-07 16:52:14:279
-2.9917,-8.5392,1.3334,-1.4924,0.2039,1.2212,0.0528,0.2157,0.0426,3028,2019-08-07 16:52:14:284
-3.4892,-8.334,1.8708,-0.9625,-0.0311,0.6678,0.0528,0.2157,0.0426,3033,2019-08-07 16:52:14:289
-3.4892,-8.334,1.8708,-0.9625,-0.0311,0.6678,0.0411,0.2114,0.0405,3038,2019-08-07 16:52:14:294
-3.7619,-8.2337,2.295,-0.9625,-0.0311,0.6678,0.0411,0.2114,0.0405,3043,2019-08-07 16:52:14:299
-3.7619,-8.2337,2.295,-0.9625,-0.0311,0.6678,0.0411,0.2114,0.0405,3048,2019-08-07 16:52:14:304
-3.7619,-8.2337,2.295,-0.6457,-0.2189,-0.01,0.0198,0.1688,0.0394,3053,2019-08-07 16:52:14:309
-3.7907,-8.1001,2.6061,-0.6457,-0.2189,-0.01,-0.0197,0.1049,0.0266,3058,2019-08-07 16:52:14:314
-3.7907,-8.1001,2.6061,-0.6457,-0.2189,-0.01,-0.0197,0.1049,0.0266,3063,2019-08-07 16:52:14:319
-3.939,-8.0141,2.691,-0.6457,-0.2189,-0.01,-0.0846,0.0378,0.0298,3068,2019-08-07 16:52:14:324
-3.939,-8.0141,2.691,-0.4803,-0.3382,-0.2576,-0.0846,0.0378,0.0298,3072,2019-08-07 16:52:14:328
-3.939,-8.0141,2.691,-0.4803,-0.3382,-0.2576,-0.0846,0.0378,0.0298,3078,2019-08-07 16:52:14:334
-3.8194,-8.1096,2.7098,-0.6536,-0.254,-0.2041,-0.1315,-0.0389,0.0384,3083,2019-08-07 16:52:14:339
-3.8194,-8.1096,2.7098,-0.6536,-0.254,-0.2041,-0.1422,-0.1082,0.0384,3088,2019-08-07 16:52:14:344
-3.8194,-8.1096,2.7098,-0.6536,-0.254,-0.2041,-0.1422,-0.1082,0.0384,3093,2019-08-07 16:52:14:349
-3.3553,-8.396,2.4081,-0.6536,-0.254,-0.2041,-0.1422,-0.1082,0.0384,3097,2019-08-07 16:52:14:353
-3.3553,-8.396,2.4081,-1.2412,0.1303,0.3052,-0.1486,-0.1039,0.0202,3103,2019-08-07 16:52:14:359
-3.3553,-8.5583,2.0122,-1.2412,0.1303,0.3052,-0.1475,-0.0027,-0.0138,3108,2019-08-07 16:52:14:364
-3.0731,-8.5583,2.0122,-1.2412,0.1303,0.3052,-0.1475,-0.0027,-0.0138,3113,2019-08-07 16:52:14:369
-3.0731,-8.5583,2.0122,-1.2412,0.1303,0.3052,-0.1475,-0.0027,-0.0138,3118,2019-08-07 16:52:14:374
-3.0683,-8.5392,2.0499,-1.3884,0.1542,0.413,-0.1155,0.2061,-0.0351,3123,2019-08-07 16:52:14:379
-3.0683,-8.5392,2.0499,-1.3884,0.1542,0.413,-0.1155,0.2061,-0.0351,3128,2019-08-07 16:52:14:384
-3.1592,-8.5201,2.0074,-1.2484,0.0851,0.4006,-0.0836,0.3264,-0.0458,3133,2019-08-07 16:52:14:389
-3.1592,-8.5201,2.0074,-1.2484,0.0851,0.4006,-0.0836,0.3264,-0.0458,3138,2019-08-07 16:52:14:394
-3.1592,-8.5201,2.0074,-1.2484,0.0851,0.4006,-0.0314,0.4969,-0.0575,3143,2019-08-07 16:52:14:399
-3.6137,-8.3865,2.3138,-1.2484,0.0851,0.4006,-0.0314,0.4969,-0.0575,3148,2019-08-07 16:52:14:404
-3.6137,-8.3865,2.3138,-0.4196,-0.0964,-0.0492,-0.0314,0.4969,-0.0575,3153,2019-08-07 16:52:14:409
-4.3074,-8.291,2.6768,-0.4196,-0.0964,-0.0492,0.0038,0.4958,-0.0415,3158,2019-08-07 16:52:14:414
-4.3074,-8.291,2.6768,-0.4196,-0.0964,-0.0492,0.0038,0.4958,-0.0415,3163,2019-08-07 16:52:14:419
-4.3074,-8.291,2.6768,-0.4196,-0.0964,-0.0492,0.024,0.3882,-0.0192,3168,2019-08-07 16:52:14:424
-4.6519,-8.2528,3.0445,0.2152,-0.159,-0.7079,0.024,0.3882,-0.0192,3172,2019-08-07 16:52:14:428
-4.6519,-8.2528,3.0445,0.2152,-0.159,-0.7079,0.0347,0.1709,-0.0011,3178,2019-08-07 16:52:14:434
-4.6902,-8.2242,3.0822,0.2152,-0.159,-0.7079,0.0347,0.1709,-0.0011,3183,2019-08-07 16:52:14:439
-4.6902,-8.2242,3.0822,0.2152,-0.159,-0.7079,0.0219,-0.0102,-0.0096,3187,2019-08-07 16:52:14:443
-4.6902,-8.2242,3.0822,0.1384,-0.1609,-0.4904,0.0219,-0.0102,-0.0096,3193,2019-08-07 16:52:14:449
-4.6136,-8.2146,2.8418,0.1384,-0.1609,-0.4904,-5.0E-4,-0.1614,-0.017,3199,2019-08-07 16:52:14:455
-4.6136,-8.2146,2.8418,0.1384,-0.1609,-0.4904,-5.0E-4,-0.1614,-0.017,3203,2019-08-07 16:52:14:459
-4.6136,-8.2146,2.8418,0.1384,-0.1609,-0.4904,-5.0E-4,-0.1614,-0.017,3208,2019-08-07 16:52:14:464
-4.2835,-8.2433,2.7711,-0.4374,-0.1185,-0.2095,-0.0037,-0.2935,-0.0128,3213,2019-08-07 16:52:14:469
-4.2835,-8.2433,2.7711,-0.4374,-0.1185,-0.2095,-0.0037,-0.2935,-0.0128,3218,2019-08-07 16:52:14:474
-3.6903,-8.334,2.4128,-0.4374,-0.1185,-0.2095,-0.009,-0.2839,-0.0319,3222,2019-08-07 16:52:14:478
-3.6903,-8.334,2.4128,-0.4374,-0.1185,-0.2095,-0.009,-0.2839,-0.0319,3228,2019-08-07 16:52:14:484
-3.4846,-8.2098,2.0593,-0.9634,-0.1966,0.3456,-0.0101,-0.1827,-0.0596,3232,2019-08-07 16:52:14:488
-3.4846,-8.2098,2.0593,-0.9634,-0.1966,0.3456,-0.0101,-0.1827,-0.0596,3238,2019-08-07 16:52:14:494
-3.4846,-8.2098,2.0593,-0.9634,-0.1966,0.3456,-0.0175,-0.0357,-0.0575,3242,2019-08-07 16:52:14:498
-3.5181,-8.1048,1.9933,-0.9634,-0.1966,0.3456,-0.0175,-0.0357,-0.0575,3249,2019-08-07 16:52:14:505
-3.5181,-8.1048,1.9933,-0.8431,-0.3296,0.2527,-0.0303,0.1177,-0.0383,3253,2019-08-07 16:52:14:509
-3.7573,-8.0953,2.1724,-0.8431,-0.3296,0.2527,-0.0303,0.1177,-0.0383,3258,2019-08-07 16:52:14:514
-3.7573,-8.0953,2.1724,-0.8431,-0.3296,0.2527,-0.0292,0.1741,-0.0181,3263,2019-08-07 16:52:14:519
-3.7573,-8.0953,2.1724,-0.8431,-0.3296,0.2527,-0.0292,0.1741,-0.0181,3268,2019-08-07 16:52:14:524
-3.963,-8.0809,2.295,-0.3806,-0.3438,0.0354,-0.0292,0.1741,-0.0181,3273,2019-08-07 16:52:14:529
-3.963,-8.0809,2.295,-0.3806,-0.3438,0.0354,-0.025,0.1773,-0.0011,3278,2019-08-07 16:52:14:534
-4.2166,-8.0953,2.3374,-0.3806,-0.3438,0.0354,-0.025,0.1773,-0.0011,3282,2019-08-07 16:52:14:538
-4.2166,-8.0953,2.3374,-0.3806,-0.3438,0.0354,-0.0197,0.1379,0.016,3288,2019-08-07 16:52:14:544
-4.2166,-8.0953,2.3374,-0.2218,-0.2769,0.1325,-0.0154,0.1049,0.0181,3293,2019-08-07 16:52:14:549
-4.231,-8.1287,2.2431,-0.2218,-0.2769,0.1325,-0.0154,0.1049,0.0181,3298,2019-08-07 16:52:14:554
-4.231,-8.1287,2.2431,-0.2218,-0.2769,0.1325,-0.0154,0.1049,0.0181,3303,2019-08-07 16:52:14:559
-4.231,-8.1287,2.2431,-0.2218,-0.2769,0.1325,-0.0197,0.0761,0.0117,3307,2019-08-07 16:52:14:563
-4.3171,-8.1764,2.1535,-0.2218,-0.2769,0.1325,-0.0197,0.0761,0.0117,3313,2019-08-07 16:52:14:569
-4.3171,-8.1764,2.1535,-0.1372,-0.253,0.2527,-0.0271,0.0516,0.0064,3317,2019-08-07 16:52:14:573
-4.1832,-8.1669,2.163,-0.1372,-0.253,0.2527,-0.0271,0.0516,0.0064,3323,2019-08-07 16:52:14:579
-4.1832,-8.1669,2.163,-0.1372,-0.253,0.2527,-0.0282,0.0303,0.0053,3327,2019-08-07 16:52:14:583
-4.1832,-8.1669,2.163,-0.1372,-0.253,0.2527,-0.0282,0.0303,0.0053,3333,2019-08-07 16:52:14:589
-3.9822,-8.2337,2.0263,-0.4683,-0.1882,0.3191,-0.0229,0.0473,-0.0181,3338,2019-08-07 16:52:14:594
-3.9822,-8.2337,2.0263,-0.4683,-0.1882,0.3191,-0.0229,0.0473,-0.0181,3343,2019-08-07 16:52:14:599
-3.9057,-8.2194,1.8519,-0.4683,-0.1882,0.3191,-0.025,0.0995,-0.0394,3348,2019-08-07 16:52:14:604
-3.9057,-8.2194,1.8519,-0.4683,-0.1882,0.3191,-0.025,0.0995,-0.0394,3353,2019-08-07 16:52:14:609
-3.9057,-8.2194,1.8519,-0.4692,-0.2847,0.4327,-0.0218,0.1422,-0.033,3358,2019-08-07 16:52:14:614
-3.9727,-8.1096,2.0121,-0.4692,-0.2847,0.4327,-0.0218,0.1422,-0.033,3364,2019-08-07 16:52:14:620
-3.9727,-8.1096,2.0121,-0.4692,-0.2847,0.4327,-0.0111,0.1304,-0.0117,3367,2019-08-07 16:52:14:623
-4.1449,-8.0953,2.1488,-0.4692,-0.2847,0.4327,-0.0111,0.1304,-0.0117,3373,2019-08-07 16:52:14:629
-4.1449,-8.0953,2.1488,-0.299,-0.3359,0.1953,0.0038,0.0836,0.0128,3378,2019-08-07 16:52:14:634
-4.1449,-8.0953,2.1488,-0.299,-0.3359,0.1953,0.0038,0.0836,0.0128,3382,2019-08-07 16:52:14:638
-4.2115,-8.0285,2.3186,-0.299,-0.3359,0.1953,0.008,0.0218,0.0298,3388,2019-08-07 16:52:14:644
-4.2115,-8.0285,2.3186,-0.299,-0.3359,0.1953,0.008,0.0218,0.0298,3393,2019-08-07 16:52:14:649
-4.2306,-7.9521,2.4883,-0.2523,-0.4574,-0.2072,0.0027,-0.0517,0.0565,3397,2019-08-07 16:52:14:653
-4.2306,-7.9521,2.4883,-0.2523,-0.4574,-0.2072,0.0027,-0.0517,0.0565,3403,2019-08-07 16:52:14:659
-4.2306,-7.9521,2.4883,-0.2523,-0.4574,-0.2072,-0.0165,-0.1029,0.0735,3408,2019-08-07 16:52:14:664
-4.0823,-8.0332,2.2385,-0.2523,-0.4574,-0.2072,-0.0165,-0.1029,0.0735,3413,2019-08-07 16:52:14:669
-4.0823,-8.0332,2.2385,-0.4454,-0.3375,0.1297,-0.0388,-0.0986,0.0682,3418,2019-08-07 16:52:14:674
-4.0297,-8.1574,2.1489,-0.4454,-0.3375,0.1297,-0.0388,-0.0986,0.0682,3422,2019-08-07 16:52:14:678
-4.0297,-8.1574,2.1489,-0.4454,-0.3375,0.1297,-0.0463,-0.0539,0.0554,3428,2019-08-07 16:52:14:684
-4.0297,-8.1574,2.1489,-0.4454,-0.3375,0.1297,-0.0463,-0.0539,0.0554,3432,2019-08-07 16:52:14:688
-4.1493,-8.229,2.13,-0.3168,-0.1918,0.1897,-0.0474,-0.0315,0.0522,3438,2019-08-07 16:52:14:694
-4.1493,-8.229,2.13,-0.3168,-0.1918,0.1897,-0.0474,-0.0315,0.0522,3443,2019-08-07 16:52:14:699
-4.1828,-8.2576,2.0593,-0.3168,-0.1918,0.1897,-0.0431,-0.0166,0.0479,3448,2019-08-07 16:52:14:704
-4.1828,-8.2576,2.0593,-0.3168,-0.1918,0.1897,-0.0431,-0.0166,0.0479,3453,2019-08-07 16:52:14:709
-4.1828,-8.2576,2.0593,-0.2894,-0.1092,0.2068,-0.041,0.0047,0.033,3458,2019-08-07 16:52:14:714
-4.2211,-8.2433,2.0876,-0.2894,-0.1092,0.2068,-0.041,0.0047,0.033,3463,2019-08-07 16:52:14:719
-4.2211,-8.2433,2.0876,-0.2894,-0.1092,0.2068,-0.0399,0.0101,0.0234,3468,2019-08-07 16:52:14:724
-4.2211,-8.2433,2.0876,-0.2894,-0.1092,0.2068,-0.0399,0.0101,0.0234,3472,2019-08-07 16:52:14:728
-4.3072,-8.1192,2.1866,-0.1407,-0.2524,0.1653,-0.0399,0.0101,0.0234,3478,2019-08-07 16:52:14:734
-4.3072,-8.1192,2.1866,-0.1407,-0.2524,0.1653,-0.0442,-6.0E-4,0.0224,3484,2019-08-07 16:52:14:740
-4.3072,-8.1192,2.1866,-0.1407,-0.2524,0.1653,-0.0442,-6.0E-4,0.0224,3488,2019-08-07 16:52:14:744
-4.3168,-8.2051,2.196,-0.1407,-0.2524,0.1653,-0.0527,-0.0294,0.0405,3493,2019-08-07 16:52:14:749
-4.3168,-8.2051,2.196,-0.1884,-0.1945,0.0497,-0.0527,-0.0294,0.0405,3499,2019-08-07 16:52:14:755
-4.202,-8.2433,2.1536,-0.1884,-0.1945,0.0497,-0.0506,-0.0443,0.0511,3503,2019-08-07 16:52:14:759
-4.202,-8.2433,2.1536,-0.1884,-0.1945,0.0497,-0.0506,-0.0443,0.0511,3507,2019-08-07 16:52:14:763
-4.202,-8.2433,2.1536,-0.1884,-0.1945,0.0497,-0.0431,-0.0421,0.0575,3513,2019-08-07 16:52:14:769
-4.2259,-8.2481,2.0546,-0.2375,-0.1831,0.1863,-0.0431,-0.0421,0.0575,3518,2019-08-07 16:52:14:774
-4.2259,-8.2481,2.0546,-0.2375,-0.1831,0.1863,-0.0431,-0.0421,0.0575,3522,2019-08-07 16:52:14:778
-4.2115,-8.3053,2.13,-0.2375,-0.1831,0.1863,-0.0367,-0.0315,0.0661,3528,2019-08-07 16:52:14:784
-4.2115,-8.3053,2.13,-0.2375,-0.1831,0.1863,-0.0367,-0.0315,0.0661,3532,2019-08-07 16:52:14:788
-4.2115,-8.3053,2.13,-0.2653,-0.1081,0.3092,-0.0239,-0.0134,0.0618,3538,2019-08-07 16:52:14:794
-4.2642,-8.334,2.0122,-0.2653,-0.1081,0.3092,-0.0239,-0.0134,0.0618,3543,2019-08-07 16:52:14:799
-4.2642,-8.334,2.0122,-0.2653,-0.1081,0.3092,-0.0079,0.0165,0.0511,3548,2019-08-07 16:52:14:804
-4.4077,-8.2481,2.064,-0.2653,-0.1081,0.3092,-0.0079,0.0165,0.0511,3552,2019-08-07 16:52:14:808
-4.4077,-8.2481,2.064,-0.064,-0.1902,0.2814,0.0059,0.0186,0.0447,3558,2019-08-07 16:52:14:814
-4.4077,-8.2481,2.064,-0.064,-0.1902,0.2814,0.0059,0.0186,0.0447,3564,2019-08-07 16:52:14:820
-4.3551,-8.2194,1.9698,-0.064,-0.1902,0.2814,0.0059,0.0186,0.0447,3568,2019-08-07 16:52:14:824
-4.3551,-8.2194,1.9698,-0.064,-0.1902,0.2814,0.0112,0.0101,0.0384,3572,2019-08-07 16:52:14:828
-4.3551,-8.2146,1.9981,-0.1574,-0.1915,0.2847,0.0112,0.0101,0.0384,3578,2019-08-07 16:52:14:834
-4.3551,-8.2146,1.9981,-0.1574,-0.1915,0.2847,0.0166,0.0186,0.0202,3583,2019-08-07 16:52:14:839
-4.3551,-8.2146,1.9981,-0.1574,-0.1915,0.2847,0.0166,0.0186,0.0202,3588,2019-08-07 16:52:14:844
-4.4938,-8.1764,2.0263,-0.1574,-0.1915,0.2847,0.0251,0.025,0.0149,3593,2019-08-07 16:52:14:849
-4.4938,-8.1764,2.0263,-0.1137,-0.256,0.2048,0.0251,0.025,0.0149,3598,2019-08-07 16:52:14:854
-4.4938,-8.1764,2.0263,-0.1137,-0.256,0.2048,0.0325,-6.0E-4,0.0213,3602,2019-08-07 16:52:14:858
-4.3981,-8.1812,2.1018,-0.1137,-0.256,0.2048,0.0325,-6.0E-4,0.0213,3608,2019-08-07 16:52:14:864
-4.3981,-8.1812,2.1018,-0.1137,-0.256,0.2048,0.0325,-0.0059,0.0234,3614,2019-08-07 16:52:14:870
-4.2403,-8.2146,2.0688,-0.2796,-0.1863,0.2185,0.0325,-0.0059,0.0234,3618,2019-08-07 16:52:14:874
-4.2403,-8.2146,2.0688,-0.2796,-0.1863,0.2185,0.0368,0.0165,0.0117,3623,2019-08-07 16:52:14:879
-4.2403,-8.2146,2.0688,-0.2796,-0.1863,0.2185,0.0368,0.0165,0.0117,3628,2019-08-07 16:52:14:884
-4.2498,-8.2337,2.0876,-0.2796,-0.1863,0.2185,0.0325,0.025,0.0107,3633,2019-08-07 16:52:14:889
-4.2498,-8.2337,2.0876,-0.2796,-0.1863,0.2185,0.0325,0.025,0.0107,3637,2019-08-07 16:52:14:893
-4.2498,-8.2337,2.0876,-0.2623,-0.1892,0.2027,0.0325,0.025,0.0107,3643,2019-08-07 16:52:14:899
-4.1733,-8.2624,2.0688,-0.2623,-0.1892,0.2027,0.0315,0.0207,0.0085,3648,2019-08-07 16:52:14:904
-4.1733,-8.2624,2.0688,-0.2623,-0.1892,0.2027,0.0283,0.026,0.0085,3653,2019-08-07 16:52:14:909
-4.1302,-8.2433,2.031,-0.2623,-0.1892,0.2027,0.0283,0.026,0.0085,3657,2019-08-07 16:52:14:913
-4.1302,-8.2433,2.031,-0.3971,-0.1262,0.2139,0.0261,0.0378,0.0085,3663,2019-08-07 16:52:14:919
-4.1302,-8.2433,2.031,-0.3971,-0.1262,0.2139,0.0261,0.0378,0.0085,3668,2019-08-07 16:52:14:924
-4.2068,-8.1908,2.1112,-0.3971,-0.1262,0.2139,0.0261,0.0378,0.0085,3673,2019-08-07 16:52:14:929
-4.2068,-8.1908,2.1112,-0.3971,-0.1262,0.2139,0.0283,0.0473,0.0192,3678,2019-08-07 16:52:14:934
-4.0968,-8.1335,2.064,-0.4095,-0.2535,0.172,0.0283,0.0473,0.0192,3683,2019-08-07 16:52:14:939
-4.0968,-8.1335,2.064,-0.4095,-0.2535,0.172,0.0251,0.0505,0.0256,3688,2019-08-07 16:52:14:944
-4.0968,-8.1335,2.064,-0.4095,-0.2535,0.172,0.0251,0.0505,0.0256,3693,2019-08-07 16:52:14:949
-4.159,-8.0762,2.163,-0.4095,-0.2535,0.172,0.0166,0.0399,0.0309,3698,2019-08-07 16:52:14:954
-4.159,-8.0762,2.163,-0.3097,-0.3176,0.1803,0.0166,0.0399,0.0309,3702,2019-08-07 16:52:14:958
-4.2881,-8.0857,2.13,-0.3097,-0.3176,0.1803,0.0091,0.0292,0.0437,3708,2019-08-07 16:52:14:964
-4.2881,-8.0857,2.13,-0.3097,-0.3176,0.1803,0.0059,0.0143,0.0543,3714,2019-08-07 16:52:14:970
-4.2881,-8.0857,2.13,-0.3097,-0.3176,0.1803,0.0059,0.0143,0.0543,3718,2019-08-07 16:52:14:974
-4.2881,-8.0953,2.229,-0.2513,-0.2942,0.0615,0.0059,0.0143,0.0543,3723,2019-08-07 16:52:14:979
-4.2881,-8.0953,2.229,-0.2513,-0.2942,0.0615,0.0038,0.0015,0.0671,3728,2019-08-07 16:52:14:984
-4.2977,-8.1478,2.064,-0.2513,-0.2942,0.0615,0.0038,0.0015,0.0671,3733,2019-08-07 16:52:14:989
-4.2977,-8.1478,2.064,-0.2513,-0.2942,0.0615,0.0038,0.0015,0.0671,3737,2019-08-07 16:52:14:993
-4.2977,-8.1478,2.064,-0.243,-0.1693,0.244,0.0016,0.0388,0.065,3743,2019-08-07 16:52:14:999
-4.3934,-8.2003,2.031,-0.243,-0.1693,0.244,0.0016,0.0388,0.065,3748,2019-08-07 16:52:15:004
-4.3934,-8.2003,2.031,-0.243,-0.1693,0.244,6.0E-4,0.0687,0.0575,3753,2019-08-07 16:52:15:009
-4.5704,-8.2146,2.196,-0.243,-0.1693,0.244,6.0E-4,0.0687,0.0575,3757,2019-08-07 16:52:15:013
-4.5704,-8.2146,2.196,0.0071,-0.1879,0.0914,0.007,0.075,0.0533,3763,2019-08-07 16:52:15:019
-4.5704,-8.2146,2.196,0.0071,-0.1879,0.0914,0.007,0.075,0.0533,3768,2019-08-07 16:52:15:024
-4.58,-8.2624,2.1065,0.0071,-0.1879,0.0914,0.0091,0.0655,0.0437,3773,2019-08-07 16:52:15:029
-4.58,-8.2624,2.1065,0.0071,-0.1879,0.0914,0.0091,0.0655,0.0437,3778,2019-08-07 16:52:15:034
-4.5609,-8.2051,2.0593,0.0053,-0.1833,0.1845,0.008,0.0548,0.0298,3783,2019-08-07 16:52:15:039
-4.5609,-8.2051,2.0593,0.0053,-0.1833,0.1845,0.008,0.0548,0.0298,3788,2019-08-07 16:52:15:044
-4.5609,-8.2051,2.0593,0.0053,-0.1833,0.1845,0.0112,0.0495,0.0192,3793,2019-08-07 16:52:15:049
-4.5178,-8.1955,2.0876,0.0053,-0.1833,0.1845,0.0112,0.0495,0.0192,3799,2019-08-07 16:52:15:055
-4.5178,-8.1955,2.0876,-0.0825,-0.2524,0.1241,0.024,0.0346,0.0139,3802,2019-08-07 16:52:15:058
-4.47,-8.2003,2.2196,-0.0825,-0.2524,0.1241,0.024,0.0346,0.0139,3808,2019-08-07 16:52:15:064
-4.47,-8.2003,2.2196,-0.0825,-0.2524,0.1241,0.0261,0.0122,0.0149,3813,2019-08-07 16:52:15:069
-4.47,-8.2003,2.2196,-0.0825,-0.2524,0.1241,0.0261,0.0122,0.0149,3818,2019-08-07 16:52:15:074
-4.4126,-8.1335,2.1866,-0.1722,-0.2355,0.0887,0.0261,0.0122,0.0149,3823,2019-08-07 16:52:15:079
-4.4126,-8.1335,2.1866,-0.1722,-0.2355,0.0887,0.0315,0.0079,0.0171,3827,2019-08-07 16:52:15:083
-4.4413,-7.9903,2.229,-0.1722,-0.2355,0.0887,0.0315,0.0079,0.0171,3833,2019-08-07 16:52:15:089
-4.4413,-7.9903,2.229,-0.1722,-0.2355,0.0887,0.0336,-0.0049,0.0277,3837,2019-08-07 16:52:15:093
-4.4413,-7.9903,2.229,-0.157,-0.4276,0.1176,0.0336,-0.0049,0.0277,3843,2019-08-07 16:52:15:099
-4.4365,-7.9759,2.196,-0.157,-0.4276,0.1176,0.0336,-0.0166,0.0416,3848,2019-08-07 16:52:15:104
-4.4365,-7.9759,2.196,-0.157,-0.4276,0.1176,0.0336,-0.0166,0.0416,3853,2019-08-07 16:52:15:109
-4.4365,-7.9759,2.196,-0.157,-0.4276,0.1176,0.0315,-0.0049,0.0394,3857,2019-08-07 16:52:15:113
-4.3552,-8.0475,2.1724,-0.197,-0.2982,0.1569,0.0315,-0.0049,0.0394,3863,2019-08-07 16:52:15:119
-4.3552,-8.0475,2.1724,-0.197,-0.2982,0.1569,0.0283,0.009,0.0447,3867,2019-08-07 16:52:15:123
-4.4269,-8.0523,2.097,-0.197,-0.2982,0.1569,0.0283,0.009,0.0447,3873,2019-08-07 16:52:15:129
-4.4269,-8.0523,2.097,-0.197,-0.2982,0.1569,0.0304,0.0239,0.0437,3878,2019-08-07 16:52:15:134
-4.4269,-8.0523,2.097,-0.1191,-0.2737,0.2165,0.0304,0.0239,0.0437,3883,2019-08-07 16:52:15:139
-4.4652,-8.0905,2.0876,-0.1191,-0.2737,0.2165,0.0304,0.0239,0.0437,3887,2019-08-07 16:52:15:143
-4.4652,-8.0905,2.0876,-0.1191,-0.2737,0.2165,0.0325,0.0548,0.033,3893,2019-08-07 16:52:15:149
-4.5752,-8.0666,2.1159,-0.1191,-0.2737,0.2165,0.0325,0.0548,0.033,3898,2019-08-07 16:52:15:154
-4.5752,-8.0666,2.1159,-0.0367,-0.2595,0.1786,0.0368,0.0559,0.0234,3902,2019-08-07 16:52:15:158
-4.5752,-8.0475,2.1772,-0.0367,-0.2595,0.1786,0.0368,0.0559,0.0234,3908,2019-08-07 16:52:15:164
-4.5035,-8.0475,2.1772,-0.0367,-0.2595,0.1786,0.0357,0.041,0.0171,3913,2019-08-07 16:52:15:169
-4.5035,-8.0475,2.1772,-0.0367,-0.2595,0.1786,0.0357,0.041,0.0171,3918,2019-08-07 16:52:15:174
-4.4413,-8.0332,2.0452,-0.176,-0.3134,0.2461,0.0368,0.0303,0.0139,3923,2019-08-07 16:52:15:179
-4.4413,-8.0332,2.0452,-0.176,-0.3134,0.2461,0.0368,0.0303,0.0139,3928,2019-08-07 16:52:15:184
-4.4413,-8.0332,2.0452,-0.176,-0.3134,0.2461,0.0357,0.0228,0.016,3932,2019-08-07 16:52:15:188
-4.3791,-8.0237,2.1442,-0.176,-0.3134,0.2461,0.0357,0.0228,0.016,3938,2019-08-07 16:52:15:194
-4.3791,-8.0237,2.1442,-0.2414,-0.2868,0.1648,0.0368,0.0079,0.0181,3943,2019-08-07 16:52:15:199
-4.3791,-8.0857,2.1772,-0.2414,-0.2868,0.1648,0.0368,0.0079,0.0181,3948,2019-08-07 16:52:15:204
-4.3791,-8.0857,2.1772,-0.2414,-0.2868,0.1648,0.0347,-0.0176,0.032,3953,2019-08-07 16:52:15:209
-4.3791,-8.0857,2.1772,-0.2414,-0.2868,0.1648,0.0347,-0.0176,0.032,3958,2019-08-07 16:52:15:214
-4.2643,-8.0523,2.1253,-0.3312,-0.2875,0.2239,0.0411,-0.0368,0.049,3963,2019-08-07 16:52:15:219
-4.2643,-8.0523,2.1253,-0.3312,-0.2875,0.2239,0.0411,-0.0368,0.049,3968,2019-08-07 16:52:15:224
-4.2643,-8.0523,2.1253,-0.3312,-0.2875,0.2239,0.0411,-0.0368,0.049,3973,2019-08-07 16:52:15:229
-4.2595,-8.0571,2.0876,-0.3312,-0.2875,0.2239,0.0379,-0.0144,0.0522,3978,2019-08-07 16:52:15:234
-4.2595,-8.0571,2.0876,-0.3146,-0.3864,0.0806,0.0379,-0.0144,0.0522,3983,2019-08-07 16:52:15:239
-4.2595,-8.0571,2.0876,-0.3146,-0.3864,0.0806,0.0368,0.0069,0.0703,3987,2019-08-07 16:52:15:243
-4.3839,-7.9043,2.229,-0.3146,-0.3864,0.0806,0.0368,0.0069,0.0703,3993,2019-08-07 16:52:15:249
-4.3839,-7.9043,2.229,-0.3146,-0.3864,0.0806,0.0336,0.0154,0.0671,3997,2019-08-07 16:52:15:253
-4.3217,-8.0046,2.0829,-0.3146,-0.3864,0.0806,0.0336,0.0154,0.0671,4002,2019-08-07 16:52:15:258
-4.3217,-8.0046,2.0829,-0.2444,-0.3314,0.2637,0.0155,0.0442,0.0394,4008,2019-08-07 16:52:15:264
-4.5274,-8.0237,1.9509,-0.2444,-0.3314,0.2637,0.0155,0.0442,0.0394,4013,2019-08-07 16:52:15:269
-4.5274,-8.0237,1.9509,-0.2444,-0.3314,0.2637,0.0155,0.0442,0.0394,4018,2019-08-07 16:52:15:274
-4.5274,-8.0237,1.9509,-0.2444,-0.3314,0.2637,0.0059,0.0559,0.0352,4023,2019-08-07 16:52:15:279
-4.5466,-8.0237,2.0782,-0.1056,-0.2986,0.2314,0.0059,0.0559,0.0352,4028,2019-08-07 16:52:15:284
-4.5466,-8.0237,2.0782,-0.1056,-0.2986,0.2314,0.0027,0.0548,0.033,4033,2019-08-07 16:52:15:289
-4.4653,-8.0953,2.1489,-0.1056,-0.2986,0.2314,0.0027,0.0548,0.033,4039,2019-08-07 16:52:15:295
-4.4653,-8.0953,2.1489,-0.1056,-0.2986,0.2314,0.0038,0.0484,0.0298,4043,2019-08-07 16:52:15:299
-4.4653,-8.0953,2.1489,-0.2473,-0.224,0.2452,0.0038,0.0484,0.0298,4048,2019-08-07 16:52:15:304
-4.3791,-8.0666,2.0404,-0.2473,-0.224,0.2452,0.0038,0.0591,0.0288,4053,2019-08-07 16:52:15:309
-4.3791,-8.0666,2.0404,-0.2473,-0.224,0.2452,0.0038,0.0591,0.0288,4058,2019-08-07 16:52:15:314
-4.3791,-8.0666,2.0404,-0.2473,-0.224,0.2452,0.0038,0.0591,0.0288,4063,2019-08-07 16:52:15:319
-4.3552,-8.0666,2.1819,-0.3113,-0.2505,0.1168,0.0112,0.0665,0.0288,4067,2019-08-07 16:52:15:323
-4.3552,-8.0666,2.1819,-0.3113,-0.2505,0.1168,0.0112,0.0665,0.0288,4073,2019-08-07 16:52:15:329
-4.4031,-8.0475,2.1536,-0.3113,-0.2505,0.1168,0.008,0.0495,0.0416,4078,2019-08-07 16:52:15:334
-4.4031,-8.0475,2.1536,-0.3113,-0.2505,0.1168,0.008,0.0495,0.0416,4083,2019-08-07 16:52:15:339
-4.4031,-8.0475,2.1536,-0.3198,-0.2849,0.0992,0.0123,0.0484,0.049,4087,2019-08-07 16:52:15:343
-4.3552,-8.0619,2.196,-0.3198,-0.2849,0.0992,0.0123,0.0484,0.049,4093,2019-08-07 16:52:15:349
-4.3552,-8.0619,2.196,-0.2768,-0.3017,0.1166,0.0198,0.0644,0.0469,4099,2019-08-07 16:52:15:355
-4.5131,-7.9807,2.1866,-0.2768,-0.3017,0.1166,0.0198,0.0644,0.0469,4103,2019-08-07 16:52:15:359
-4.5131,-7.9807,2.1866,-0.2768,-0.3017,0.1166,0.0198,0.0644,0.0469,4107,2019-08-07 16:52:15:363
-4.5131,-7.9807,2.1866,-0.2768,-0.3017,0.1166,0.0134,0.0612,0.0501,4113,2019-08-07 16:52:15:369
-4.5466,-8.0284,2.2149,-0.1442,-0.2774,0.0755,0.0134,0.0612,0.0501,4118,2019-08-07 16:52:15:374
-4.5466,-8.0284,2.2149,-0.1442,-0.2774,0.0755,0.0048,0.0452,0.0426,4122,2019-08-07 16:52:15:378
-4.5849,-8.0237,2.1536,-0.1442,-0.2774,0.0755,0.0048,0.0452,0.0426,4128,2019-08-07 16:52:15:384
-4.5849,-8.0237,2.1536,-0.1442,-0.2774,0.0755,0.0112,0.0548,0.0213,4133,2019-08-07 16:52:15:389
-4.5849,-8.0237,2.1536,-0.0568,-0.2307,0.0955,0.0112,0.0548,0.0213,4138,2019-08-07 16:52:15:394
-4.6758,-8.0428,2.163,-0.0568,-0.2307,0.0955,0.0144,0.0548,0.0171,4143,2019-08-07 16:52:15:399
-4.6758,-8.0428,2.163,-0.0568,-0.2307,0.0955,0.0144,0.0548,0.0171,4148,2019-08-07 16:52:15:404
-4.5945,-8.0762,2.2148,-0.0568,-0.2307,0.0955,0.008,0.0537,0.0043,4152,2019-08-07 16:52:15:408
-4.5945,-8.0762,2.2148,-0.1579,-0.1809,0.0591,0.008,0.0537,0.0043,4158,2019-08-07 16:52:15:414
-4.5945,-8.0762,2.2148,-0.1579,-0.1809,0.0591,0.008,0.0537,0.0043,4164,2019-08-07 16:52:15:420
-4.5897,-8.1,2.1677,-0.1579,-0.1809,0.0591,0.008,0.058,-0.0128,4168,2019-08-07 16:52:15:424
-4.5897,-8.1,2.1677,-0.1579,-0.1809,0.0591,0.008,0.058,-0.0128,4173,2019-08-07 16:52:15:429
-4.5897,-8.1,2.1677,-0.1159,-0.2007,0.0966,0.0102,0.0601,-0.0181,4177,2019-08-07 16:52:15:433
-4.6375,-8.1239,2.1771,-0.1159,-0.2007,0.0966,0.0102,0.0601,-0.0181,4183,2019-08-07 16:52:15:439
-4.6375,-8.1239,2.1771,-0.1159,-0.2007,0.0966,0.0155,0.0378,-0.0128,4188,2019-08-07 16:52:15:444
-4.4414,-8.081,2.1913,-0.1159,-0.2007,0.0966,0.0155,0.0378,-0.0128,4193,2019-08-07 16:52:15:449
-4.4414,-8.081,2.1913,-0.2826,-0.1968,0.1089,0.0166,0.0207,-0.0043,4198,2019-08-07 16:52:15:454
-4.4414,-8.081,2.1913,-0.2826,-0.1968,0.1089,0.0166,0.0207,-0.0043,4202,2019-08-07 16:52:15:458
-4.3935,-8.0762,2.1866,-0.2826,-0.1968,0.1089,0.0208,0.025,-0.0043,4208,2019-08-07 16:52:15:464
-4.3935,-8.0762,2.1866,-0.2826,-0.1968,0.1089,0.0208,0.025,-0.0043,4213,2019-08-07 16:52:15:469
-4.3888,-7.9664,2.1913,-0.3155,-0.3353,0.0866,0.0208,0.0324,0.0075,4218,2019-08-07 16:52:15:474
-4.3888,-7.9664,2.1913,-0.3155,-0.3353,0.0866,0.0208,0.0324,0.0075,4223,2019-08-07 16:52:15:479
-4.3888,-7.9664,2.1913,-0.3155,-0.3353,0.0866,0.0166,0.0282,0.0139,4228,2019-08-07 16:52:15:484
-4.4749,-7.9855,2.163,-0.3155,-0.3353,0.0866,0.0166,0.0282,0.0139,4233,2019-08-07 16:52:15:489
-4.4749,-7.9855,2.163,-0.2518,-0.3524,0.1387,0.0166,0.0239,0.0256,4238,2019-08-07 16:52:15:494
-4.4462,-7.9234,2.1818,-0.2518,-0.3524,0.1387,0.0166,0.0239,0.0256,4243,2019-08-07 16:52:15:499
-4.4462,-7.9234,2.1818,-0.2518,-0.3524,0.1387,0.023,0.0207,0.0298,4248,2019-08-07 16:52:15:504
-4.4462,-7.9234,2.1818,-0.2518,-0.3524,0.1387,0.023,0.0207,0.0298,4253,2019-08-07 16:52:15:509
-4.4797,-7.9377,2.1536,-0.2097,-0.3775,0.1495,0.0208,0.0154,0.0352,4259,2019-08-07 16:52:15:515
-4.4797,-7.9377,2.1536,-0.2097,-0.3775,0.1495,0.0208,0.0154,0.0352,4264,2019-08-07 16:52:15:520
-4.4558,-7.9139,2.0923,-0.2097,-0.3775,0.1495,0.007,0.0143,0.0384,4268,2019-08-07 16:52:15:524
-4.4558,-7.9139,2.0923,-0.2097,-0.3775,0.1495,0.007,0.0143,0.0384,4273,2019-08-07 16:52:15:529
-4.4558,-7.9139,2.0923,-0.2162,-0.3595,0.2197,0.008,0.0399,0.0224,4278,2019-08-07 16:52:15:534
-4.5467,-7.9043,2.1206,-0.2162,-0.3595,0.2197,0.008,0.0399,0.0224,4283,2019-08-07 16:52:15:539
-4.5467,-7.9043,2.1206,-0.2162,-0.3595,0.2197,0.0112,0.0452,0.0256,4288,2019-08-07 16:52:15:544
-4.5371,-7.9568,2.1064,-0.2162,-0.3595,0.2197,0.0112,0.0452,0.0256,4293,2019-08-07 16:52:15:549
-4.5371,-7.9568,2.1064,-0.2036,-0.3281,0.1835,0.007,0.0463,0.0245,4298,2019-08-07 16:52:15:554
-4.5371,-7.9568,2.1064,-0.2036,-0.3281,0.1835,0.007,0.0463,0.0245,4302,2019-08-07 16:52:15:558
-4.5084,-7.995,2.1017,-0.2036,-0.3281,0.1835,0.0027,0.0495,0.0171,4308,2019-08-07 16:52:15:564
-4.5084,-7.995,2.1017,-0.2036,-0.3281,0.1835,0.0027,0.0495,0.0171,4313,2019-08-07 16:52:15:569
-4.5084,-8.0093,2.0687,-0.2231,-0.2788,0.202,0.0059,0.0687,0.0128,4318,2019-08-07 16:52:15:574
-4.5084,-8.0093,2.0687,-0.2231,-0.2788,0.202,0.0059,0.0687,0.0128,4323,2019-08-07 16:52:15:579
-4.5084,-8.0093,2.0687,-0.2231,-0.2788,0.202,0.0059,0.0687,0.0128,4328,2019-08-07 16:52:15:584
-4.6041,-8.0093,2.163,-0.2231,-0.2788,0.202,0.0059,0.0697,0.0117,4332,2019-08-07 16:52:15:588
-4.6041,-8.0093,2.163,-0.1184,-0.2917,0.0735,0.0059,0.0697,0.0117,4338,2019-08-07 16:52:15:594
-4.6041,-8.0093,2.163,-0.1184,-0.2917,0.0735,6.0E-4,0.0452,0.0202,4342,2019-08-07 16:52:15:598
-4.6519,-8.0237,2.196,-0.1184,-0.2917,0.0735,6.0E-4,0.0452,0.0202,4348,2019-08-07 16:52:15:604
-4.6519,-8.0237,2.196,-0.1184,-0.2917,0.0735,-0.0037,0.0228,0.0224,4353,2019-08-07 16:52:15:609
-4.5706,-7.9902,2.1441,-0.1184,-0.2917,0.0735,-0.0037,0.0228,0.0224,4357,2019-08-07 16:52:15:613
-4.5706,-7.9902,2.1441,-0.1764,-0.3229,0.0278,-0.0037,0.0228,0.0224,4363,2019-08-07 16:52:15:619
-4.5658,-7.933,2.163,-0.1764,-0.3229,0.0278,-0.0047,0.0122,0.0245,4367,2019-08-07 16:52:15:623
-4.5658,-7.933,2.163,-0.1764,-0.3229,0.0278,-0.0047,0.0122,0.0245,4373,2019-08-07 16:52:15:629
-4.5658,-7.933,2.163,-0.1764,-0.3229,0.0278,-0.0175,-0.007,0.0288,4378,2019-08-07 16:52:15:634
-4.4502,-8.0142,2.1443,-0.2583,-0.2635,0.1198,-0.0175,-0.007,0.0288,4383,2019-08-07 16:52:15:639
-4.4502,-8.0142,2.1443,-0.2583,-0.2635,0.1198,-0.0207,-0.0059,0.033,4387,2019-08-07 16:52:15:643
-4.4502,-8.0142,2.1443,-0.2583,-0.2635,0.1198,-0.0207,-0.0059,0.033,4393,2019-08-07 16:52:15:649
-4.4885,-7.9474,2.0547,-0.2583,-0.2635,0.1198,-0.0218,0.0079,0.032,4398,2019-08-07 16:52:15:654
-4.4885,-7.9474,2.0547,-0.263,-0.343,0.2104,-0.0218,0.0079,0.032,4403,2019-08-07 16:52:15:659
-4.4598,-7.9665,2.0453,-0.263,-0.343,0.2104,-0.0197,0.0239,0.032,4408,2019-08-07 16:52:15:664
-4.4598,-7.9665,2.0453,-0.263,-0.343,0.2104,-0.0197,0.0239,0.032,4413,2019-08-07 16:52:15:669
-4.4598,-7.9665,2.0453,-0.263,-0.343,0.2104,-0.0239,0.0346,0.0362,4418,2019-08-07 16:52:15:674
-4.4359,-7.9712,2.0312,-0.3216,-0.308,0.2175,-0.0239,0.0346,0.0362,4422,2019-08-07 16:52:15:678
-4.4359,-7.9712,2.0312,-0.3216,-0.308,0.2175,-0.0271,0.0314,0.0384,4428,2019-08-07 16:52:15:684
-4.4598,-8.0237,1.9699,-0.3216,-0.308,0.2175,-0.0271,0.0314,0.0384,4433,2019-08-07 16:52:15:689
-4.4598,-8.0237,1.9699,-0.3216,-0.308,0.2175,-0.0207,0.0452,0.0405,4438,2019-08-07 16:52:15:694
-4.4598,-8.0237,1.9699,-0.2094,-0.2679,0.105,-0.0207,0.0452,0.0405,4443,2019-08-07 16:52:15:699
-4.6129,-7.9855,2.1113,-0.2094,-0.2679,0.105,-0.0218,0.0314,0.0426,4448,2019-08-07 16:52:15:704
-4.6129,-7.9855,2.1113,-0.2094,-0.2679,0.105,-0.0218,0.0314,0.0426,4453,2019-08-07 16:52:15:709
-4.6129,-7.9855,2.1113,-0.2094,-0.2679,0.105,-0.0218,0.0314,0.0426,4457,2019-08-07 16:52:15:713
-4.6942,-7.9187,2.0736,-0.109,-0.3646,0.112,-0.0282,0.0122,0.0565,4463,2019-08-07 16:52:15:719
-4.6942,-7.9187,2.0736,-0.109,-0.3646,0.112,-0.0282,0.0122,0.0565,4468,2019-08-07 16:52:15:724
-4.6607,-7.8996,2.0972,-0.109,-0.3646,0.112,-0.0356,-0.0208,0.0554,4473,2019-08-07 16:52:15:729
-4.6607,-7.8996,2.0972,-0.109,-0.3646,0.112,-0.0356,-0.0208,0.0554,4478,2019-08-07 16:52:15:734
-4.6129,-7.8805,2.1019,-0.1468,-0.4179,0.1827,-0.0495,-0.0464,0.0575,4483,2019-08-07 16:52:15:739
-4.6129,-7.8805,2.1019,-0.1468,-0.4179,0.1827,-0.0495,-0.0464,0.0575,4489,2019-08-07 16:52:15:745
-4.6129,-7.8805,2.1019,-0.1468,-0.4179,0.1827,-0.0591,-0.0539,0.0575,4493,2019-08-07 16:52:15:749
-4.4645,-7.8996,1.951,-0.1468,-0.4179,0.1827,-0.0591,-0.0539,0.0575,4498,2019-08-07 16:52:15:754
-4.4645,-7.8996,1.951,-0.3783,-0.344,0.3042,-0.0591,-0.0539,0.0575,4503,2019-08-07 16:52:15:759
-4.3736,-8.0142,1.9605,-0.3783,-0.344,0.3042,-0.0804,-0.0315,0.0501,4508,2019-08-07 16:52:15:764
-4.3736,-8.0142,1.9605,-0.3783,-0.344,0.3042,-0.0804,-0.0315,0.0501,4513,2019-08-07 16:52:15:769
-4.3736,-8.0142,1.9605,-0.3783,-0.344,0.3042,-0.09,0.0133,0.0469,4518,2019-08-07 16:52:15:774
-4.2923,-8.0953,1.8898,-0.5037,-0.1727,0.3179,-0.09,0.0133,0.0469,4523,2019-08-07 16:52:15:779
-4.2923,-8.0953,1.8898,-0.5037,-0.1727,0.3179,-0.0942,0.0559,0.0394,4528,2019-08-07 16:52:15:784
-4.2971,-8.1335,1.8096,-0.5037,-0.1727,0.3179,-0.0942,0.0559,0.0394,4533,2019-08-07 16:52:15:789
-4.2971,-8.1335,1.8096,-0.5037,-0.1727,0.3179,-0.0921,0.1038,0.0245,4538,2019-08-07 16:52:15:794
-4.2971,-8.1335,1.8096,-0.3481,-0.1322,0.312,-0.0921,0.1038,0.0245,4543,2019-08-07 16:52:15:799
-4.5028,-8.1288,1.8379,-0.3481,-0.1322,0.312,-0.0868,0.1134,0.0213,4549,2019-08-07 16:52:15:805
-4.5028,-8.1288,1.8379,-0.3481,-0.1322,0.312,-0.0868,0.1134,0.0213,4552,2019-08-07 16:52:15:808
-4.5028,-8.1288,1.8379,-0.3481,-0.1322,0.312,-0.0868,0.1134,0.0213,4558,2019-08-07 16:52:15:814
-4.5889,-8.2099,1.9558,-0.1833,-0.0536,0.2481,-0.0708,0.0995,0.0192,4564,2019-08-07 16:52:15:820
-4.5889,-8.2099,1.9558,-0.1833,-0.0536,0.2481,-0.0708,0.0995,0.0192,4568,2019-08-07 16:52:15:824
-4.5889,-8.2099,1.9558,-0.1833,-0.0536,0.2481,-0.0516,0.0708,0.0085,4573,2019-08-07 16:52:15:829
-4.6415,-8.2433,1.8992,-0.1833,-0.0536,0.2481,-0.0516,0.0708,0.0085,4578,2019-08-07 16:52:15:834
-4.6415,-8.2433,1.8992,-0.154,-0.094,0.2303,-0.0324,0.0591,0.0053,4583,2019-08-07 16:52:15:839
-4.6415,-8.2433,1.8992,-0.154,-0.094,0.2303,-0.0324,0.0591,0.0053,4588,2019-08-07 16:52:15:844
-4.7324,-8.1526,1.9086,-0.154,-0.094,0.2303,-0.0186,0.0356,-0.0011,4594,2019-08-07 16:52:15:850
-4.7324,-8.1526,1.9086,-0.154,-0.094,0.2303,-0.0186,0.0356,-0.0011,4598,2019-08-07 16:52:15:854
-4.7372,-8.1335,1.951,-0.0794,-0.143,0.1784,-0.0186,0.0356,-0.0011,4603,2019-08-07 16:52:15:859
-4.7372,-8.1335,1.951,-0.0794,-0.143,0.1784,-0.0143,0.0058,-0.0064,4608,2019-08-07 16:52:15:864
-4.7372,-8.1335,1.951,-0.0794,-0.143,0.1784,-0.0143,0.0058,-0.0064,4613,2019-08-07 16:52:15:869
-4.7372,-8.0619,1.9558,-0.0791,-0.2153,0.1718,-0.0079,-0.0208,-0.0085,4618,2019-08-07 16:52:15:874
-4.7372,-8.0619,1.9558,-0.0791,-0.2153,0.1718,-0.0079,-0.0208,-0.0085,4622,2019-08-07 16:52:15:878
-4.675,-8.0906,1.8379,-0.0791,-0.2153,0.1718,-0.0026,-0.0283,-0.0085,4628,2019-08-07 16:52:15:884
-4.675,-8.0906,1.8379,-0.2582,-0.1739,0.3747,-0.0026,-0.0283,-0.0085,4633,2019-08-07 16:52:15:889
-4.675,-8.0906,1.8379,-0.2582,-0.1739,0.3747,0.008,0.0122,-0.0106,4638,2019-08-07 16:52:15:894
-4.541,-8.0715,1.8285,-0.2582,-0.1739,0.3747,0.008,0.0122,-0.0106,4643,2019-08-07 16:52:15:899
-4.541,-8.0715,1.8285,-0.2582,-0.1739,0.3747,0.0166,0.0559,-0.0106,4648,2019-08-07 16:52:15:904
-4.5315,-8.0763,1.9746,-0.2808,-0.204,0.1506,0.0166,0.0559,-0.0106,4653,2019-08-07 16:52:15:909
-4.5315,-8.0763,1.9746,-0.2808,-0.204,0.1506,0.0166,0.0559,-0.0106,4658,2019-08-07 16:52:15:914
-4.5315,-8.0763,1.9746,-0.2808,-0.204,0.1506,0.0251,0.0974,-0.0138,4662,2019-08-07 16:52:15:918
-4.5697,-8.081,1.951,-0.2808,-0.204,0.1506,0.0251,0.1177,-0.0128,4668,2019-08-07 16:52:15:924
-4.5697,-8.081,1.951,-0.1724,-0.1475,0.1295,0.0251,0.1177,-0.0128,4673,2019-08-07 16:52:15:929
-4.6941,-8.167,2.0736,-0.1724,-0.1475,0.1295,0.024,0.1113,-0.0043,4678,2019-08-07 16:52:15:934
-4.6941,-8.167,2.0736,-0.1724,-0.1475,0.1295,0.024,0.1113,-0.0043,4683,2019-08-07 16:52:15:939
-4.6941,-8.167,2.0736,-0.1724,-0.1475,0.1295,0.024,0.1113,-0.0043,4687,2019-08-07 16:52:15:943
-4.7611,-8.1288,2.2292,-0.1724,-0.1475,0.1295,0.0411,0.0921,0.0085,4693,2019-08-07 16:52:15:949
-4.7611,-8.1288,2.2292,-0.0668,-0.1701,-0.1112,0.0411,0.0921,0.0085,4698,2019-08-07 16:52:15:954
-4.7611,-8.1288,2.2292,-0.0668,-0.1701,-0.1112,0.0411,0.0921,0.0085,4703,2019-08-07 16:52:15:959
-4.9668,-7.9808,3.0635,-0.0668,-0.1701,-0.1112,-0.09,-0.1519,0.0458,4710,2019-08-07 16:52:15:966
-4.9668,-7.9808,3.0635,-0.0668,-0.1701,-0.1112,-0.09,-0.1519,0.0458,4713,2019-08-07 16:52:15:969
-4.2061,-8.2099,1.9652,-0.7114,-0.1042,-0.7078,0.1007,-0.0677,0.0202,4718,2019-08-07 16:52:15:974
-4.2061,-8.2099,1.9652,-0.7114,-0.1042,-0.7078,0.1242,-0.0698,-0.0138,4723,2019-08-07 16:52:15:979
-4.2061,-8.2099,1.9652,-0.7114,-0.1042,-0.7078,0.1242,-0.0698,-0.0138,4727,2019-08-07 16:52:15:983
-4.5649,-8.0047,1.7012,-0.7114,-0.1042,-0.7078,0.1242,-0.0698,-0.0138,4733,2019-08-07 16:52:15:989
-4.5649,-8.0047,1.7012,-0.3148,-0.33,0.3663,0.0613,0.0367,0.0234,4738,2019-08-07 16:52:15:994
-4.5649,-8.0047,1.7012,-0.3148,-0.33,0.3663,0.0613,0.0367,0.0234,4743,2019-08-07 16:52:15:999
-4.3113,-7.9044,1.9511,-0.3148,-0.33,0.3663,0.0219,0.0718,0.0288,4749,2019-08-07 16:52:16:005
-4.3113,-7.9044,1.9511,-0.2768,-0.4277,0.0442,0.0219,0.0718,0.0288,4753,2019-08-07 16:52:16:009
-4.6654,-7.8519,2.0783,-0.2768,-0.4277,0.0442,0.0389,0.1049,-0.0117,4758,2019-08-07 16:52:16:014
-4.6654,-7.8519,2.0783,-0.2768,-0.4277,0.0442,0.0389,0.1049,-0.0117,4764,2019-08-07 16:52:16:020
-4.6654,-7.8519,2.0783,-0.2768,-0.4277,0.0442,0.0219,0.1017,-0.0011,4768,2019-08-07 16:52:16:024
-4.6367,-8.0619,1.9181,-0.2768,-0.4277,0.0442,0.0219,0.1017,-0.0011,4772,2019-08-07 16:52:16:028