ACCELEROMETER X (m/s²),ACCELEROMETER Y (m/s²),ACCELEROMETER Z (m/s²),LINEAR ACCELERATION X (m/s²),LINEAR ACCELERATION Y (m/s²),LINEAR ACCELERATION Z (m/s²),GYROSCOPE X (rad/s),GYROSCOPE Y (rad/s),GYROSCOPE Z (rad/s),Time since start in ms ,YYYY-MO-DD HH-MI-SS_SSS
-5.3753,-7.0354,3.4591,-0.2436,-0.177,0.1702,-0.0143,-0.008,-0.0213,2,2019-08-07 16:53:27:935
-5.3753,-7.0354,3.4591,-0.2436,-0.177,0.1702,-0.0143,-0.008,-0.0213,8,2019-08-07 16:53:27:941
-5.3992,-6.9972,3.4544,-0.2436,-0.177,0.1702,-0.0111,-0.0176,-0.0245,13,2019-08-07 16:53:27:946
-5.3992,-6.9972,3.4544,-0.1966,-0.214,0.155,-0.0111,-0.0176,-0.0245,18,2019-08-07 16:53:27:951
-5.3992,-6.9972,3.4544,-0.1966,-0.214,0.155,-0.0079,-0.0272,-0.0256,23,2019-08-07 16:53:27:956
-5.3178,-6.9686,3.4214,-0.1966,-0.214,0.155,-0.0079,-0.0272,-0.0256,28,2019-08-07 16:53:27:961
-5.3178,-6.9686,3.4214,-0.1966,-0.214,0.155,-0.0037,-0.0368,-0.0224,33,2019-08-07 16:53:27:966
-5.2461,-6.959,3.3931,-0.2722,-0.2892,0.2181,-0.0037,-0.0368,-0.0224,38,2019-08-07 16:53:27:971
-5.2461,-6.959,3.3931,-0.2722,-0.2892,0.2181,-0.0015,-0.0411,-0.016,42,2019-08-07 16:53:27:975
-5.1504,-6.959,3.346,-0.2722,-0.2892,0.2181,-0.0015,-0.0411,-0.016,48,2019-08-07 16:53:27:981
-5.1504,-6.959,3.346,-0.2722,-0.2892,0.2181,-0.0015,-0.0411,-0.016,52,2019-08-07 16:53:27:985
-5.1504,-6.959,3.346,-0.4816,-0.3109,0.236,-0.0015,-0.0315,-0.0085,58,2019-08-07 16:53:27:991
-5.1599,-6.8922,3.3743,-0.4816,-0.3109,0.236,-0.0015,-0.0315,-0.0085,63,2019-08-07 16:53:27:996
-5.1599,-6.8922,3.3743,-0.4816,-0.3109,0.236,-0.0026,-0.008,-0.0043,67,2019-08-07 16:53:28:000
-5.1599,-6.8922,3.3743,-0.4816,-0.3109,0.236,-0.0026,-0.008,-0.0043,73,2019-08-07 16:53:28:006
-5.1599,-6.9017,3.3978,-0.4125,-0.322,0.2081,-0.009,0.0069,0.0064,78,2019-08-07 16:53:28:011
-5.1599,-6.9017,3.3978,-0.4125,-0.322,0.2081,-0.009,0.0069,0.0064,83,2019-08-07 16:53:28:016
-5.2125,-6.9399,3.3884,-0.4125,-0.322,0.2081,-0.0122,0.0186,0.0128,88,2019-08-07 16:53:28:021
-5.2125,-6.9399,3.3884,-0.4125,-0.322,0.2081,-0.0122,0.0186,0.0128,93,2019-08-07 16:53:28:026
-5.2747,-6.8826,3.4402,-0.2949,-0.3127,0.1242,-0.0122,0.0282,0.0096,99,2019-08-07 16:53:28:032
-5.2747,-6.8826,3.4402,-0.2949,-0.3127,0.1242,-0.0122,0.0282,0.0096,103,2019-08-07 16:53:28:036
-5.2747,-6.8826,3.4402,-0.2949,-0.3127,0.1242,-0.0111,0.0175,0.016,108,2019-08-07 16:53:28:041
-5.2939,-6.9686,3.4544,-0.2949,-0.3127,0.1242,-0.0111,0.0175,0.016,113,2019-08-07 16:53:28:046
-5.2939,-6.9686,3.4544,-0.2791,-0.2597,0.1814,-0.0186,0.0165,0.0128,117,2019-08-07 16:53:28:050
-5.2939,-6.9686,3.4544,-0.2791,-0.2597,0.1814,-0.0186,0.0165,0.0128,123,2019-08-07 16:53:28:056
-5.3465,-6.9113,3.4497,-0.2791,-0.2597,0.1814,-0.0197,0.0197,0.0053,128,2019-08-07 16:53:28:061
-5.3465,-6.9113,3.4497,-0.2791,-0.2597,0.1814,-0.0197,0.0197,0.0053,133,2019-08-07 16:53:28:066
-5.3943,-6.9447,3.4025,-0.2146,-0.2936,0.1671,-0.0186,0.0165,0.0021,138,2019-08-07 16:53:28:071
-5.3943,-6.9447,3.4025,-0.2146,-0.2936,0.1671,-0.0186,0.0165,0.0021,143,2019-08-07 16:53:28:076
-5.3943,-6.9447,3.4025,-0.2146,-0.2936,0.1671,-0.0207,0.0154,-0.0053,148,2019-08-07 16:53:28:081
-5.313,-6.9877,3.4214,-0.2146,-0.2936,0.1671,-0.0207,0.0154,-0.0053,153,2019-08-07 16:53:28:086
-5.313,-6.9877,3.4214,-0.2439,-0.2431,0.2187,-0.0165,0.0165,-0.0096,157,2019-08-07 16:53:28:090
-5.3273,-6.9686,3.3931,-0.2439,-0.2431,0.2187,-0.0165,0.0165,-0.0096,163,2019-08-07 16:53:28:096
-5.3273,-6.9686,3.3931,-0.2439,-0.2431,0.2187,-0.0111,0.0292,-0.0085,168,2019-08-07 16:53:28:101
-5.3273,-6.9686,3.3931,-0.2439,-0.2431,0.2187,-0.0111,0.0292,-0.0085,173,2019-08-07 16:53:28:106
-5.3082,-6.9733,3.4638,-0.273,-0.2547,0.1197,-0.0122,0.0207,-0.0075,177,2019-08-07 16:53:28:110
-5.3082,-6.9733,3.4638,-0.273,-0.2547,0.1197,-0.0122,0.0207,-0.0075,183,2019-08-07 16:53:28:116
-5.3082,-6.9733,3.4638,-0.273,-0.2547,0.1197,-0.0122,0.0058,-0.0032,187,2019-08-07 16:53:28:120
-5.2556,-6.959,3.478,-0.273,-0.2547,0.1197,-0.0122,0.0058,-0.0032,193,2019-08-07 16:53:28:126
-5.2556,-6.959,3.478,-0.325,-0.2947,0.1312,-0.0079,-6.0E-4,0.0032,198,2019-08-07 16:53:28:131
-5.2077,-7.002,3.4025,-0.325,-0.2947,0.1312,-0.0079,-6.0E-4,0.0032,203,2019-08-07 16:53:28:136
-5.2077,-7.002,3.4025,-0.325,-0.2947,0.1312,-0.0069,0.0197,0.0075,207,2019-08-07 16:53:28:140
-5.2077,-7.002,3.4025,-0.325,-0.2947,0.1312,-0.0069,0.0197,0.0075,213,2019-08-07 16:53:28:146
-5.2699,-6.9638,3.5251,-0.3503,-0.2185,0.0674,-0.009,0.0111,0.0117,218,2019-08-07 16:53:28:151
-5.2699,-6.9638,3.5251,-0.3503,-0.2185,0.0674,-0.009,0.0111,0.0117,222,2019-08-07 16:53:28:155
-5.1933,-7.0306,3.4261,-0.3503,-0.2185,0.0674,-0.0058,0.0058,0.0192,228,2019-08-07 16:53:28:161
-5.1933,-7.0306,3.4261,-0.3503,-0.2185,0.0674,-0.0058,0.0058,0.0192,233,2019-08-07 16:53:28:166
-5.1933,-7.0306,3.4261,-0.3618,-0.1988,0.1977,-5.0E-4,0.0058,0.016,238,2019-08-07 16:53:28:171
-5.2316,-7.0068,3.3743,-0.3618,-0.1988,0.1977,-5.0E-4,0.0058,0.016,242,2019-08-07 16:53:28:175
-5.2316,-7.0068,3.3743,-0.3618,-0.1988,0.1977,0.0048,0.0335,0.0202,248,2019-08-07 16:53:28:181
-5.3416,-6.9972,3.4638,-0.3618,-0.1988,0.1977,0.0048,0.0335,0.0202,253,2019-08-07 16:53:28:186
-5.3416,-6.9972,3.4638,-0.2802,-0.2681,0.1387,0.0027,0.0378,0.0245,258,2019-08-07 16:53:28:191
-5.3416,-6.9972,3.4638,-0.2802,-0.2681,0.1387,0.0027,0.0378,0.0245,263,2019-08-07 16:53:28:196
-5.423,-6.9781,3.4874,-0.2802,-0.2681,0.1387,6.0E-4,0.0271,0.0213,268,2019-08-07 16:53:28:201
-5.423,-6.9781,3.4874,-0.2802,-0.2681,0.1387,6.0E-4,0.0271,0.0213,272,2019-08-07 16:53:28:205
-5.4038,-6.9924,3.445,-0.1897,-0.232,0.1266,0.0016,0.009,0.016,278,2019-08-07 16:53:28:211
-5.4038,-6.9924,3.445,-0.1897,-0.232,0.1266,0.0016,0.009,0.016,283,2019-08-07 16:53:28:216
-5.4038,-6.9924,3.445,-0.1897,-0.232,0.1266,0.0059,0.0015,0.017,288,2019-08-07 16:53:28:221
-5.2986,-6.9543,3.3978,-0.1897,-0.232,0.1266,0.0059,0.0015,0.017,294,2019-08-07 16:53:28:227
-5.2986,-6.9543,3.3978,-0.3072,-0.2682,0.1263,0.007,0.0186,0.016,298,2019-08-07 16:53:28:231
-5.3129,-6.9399,3.4827,-0.3072,-0.2682,0.1263,0.007,0.0186,0.016,303,2019-08-07 16:53:28:236
-5.3129,-6.9399,3.4827,-0.3072,-0.2682,0.1263,0.007,0.0186,0.016,308,2019-08-07 16:53:28:241
-5.3129,-6.9399,3.4827,-0.3072,-0.2682,0.1263,0.0048,0.0207,0.0117,312,2019-08-07 16:53:28:245
-5.3512,-6.959,3.5157,-0.2816,-0.2665,0.0496,0.0048,0.0207,0.0117,318,2019-08-07 16:53:28:251
-5.3512,-6.959,3.5157,-0.2816,-0.2665,0.0496,0.0016,0.0218,0.0085,323,2019-08-07 16:53:28:256
-5.3464,-6.9829,3.4591,-0.2816,-0.2665,0.0496,0.0016,0.0218,0.0085,328,2019-08-07 16:53:28:261
-5.3464,-6.9829,3.4591,-0.2816,-0.2665,0.0496,0.0112,0.0143,0.0053,333,2019-08-07 16:53:28:266
-5.3464,-6.9829,3.4591,-0.2982,-0.289,0.1195,0.0112,0.0143,0.0053,338,2019-08-07 16:53:28:271
-5.3368,-6.9113,3.379,-0.2982,-0.289,0.1195,0.0123,0.0165,0.0107,344,2019-08-07 16:53:28:277
-5.3368,-6.9113,3.379,-0.2982,-0.289,0.1195,0.0123,0.0165,0.0107,347,2019-08-07 16:53:28:280
-5.332,-6.8683,3.412,-0.2982,-0.289,0.1195,0.0059,0.0165,0.0107,353,2019-08-07 16:53:28:286
-5.332,-6.8683,3.412,-0.1908,-0.2775,0.1052,0.0059,0.0165,0.0107,357,2019-08-07 16:53:28:290
-5.332,-6.8683,3.412,-0.1908,-0.2775,0.1052,0.0059,0.0165,0.0107,363,2019-08-07 16:53:28:296
-5.4612,-6.9781,3.4308,-0.1908,-0.2775,0.1052,0.0016,0.0197,0.0085,367,2019-08-07 16:53:28:300
-5.4612,-6.9781,3.4308,-0.1908,-0.2775,0.1052,0.0016,0.0197,0.0085,373,2019-08-07 16:53:28:306
-5.4325,-6.9972,3.379,-0.1738,-0.2197,0.1876,-0.0037,0.0207,-0.0011,378,2019-08-07 16:53:28:311
-5.4325,-6.9972,3.379,-0.1738,-0.2197,0.1876,-0.0037,0.0207,-0.0011,383,2019-08-07 16:53:28:316
-5.4325,-6.9972,3.379,-0.1738,-0.2197,0.1876,-0.0101,0.0228,-0.0053,388,2019-08-07 16:53:28:321
-5.4229,-7.0402,3.3884,-0.1738,-0.2197,0.1876,-0.0101,0.0228,-0.0053,393,2019-08-07 16:53:28:326
-5.4229,-7.0402,3.3884,-0.1738,-0.2197,0.1876,-0.0111,0.0324,-0.0181,398,2019-08-07 16:53:28:331
-5.4229,-7.0402,3.3884,-0.1934,-0.1882,0.2068,-0.0111,0.0324,-0.0181,403,2019-08-07 16:53:28:336
-5.4085,-6.9972,3.412,-0.1934,-0.1882,0.2068,-0.0111,0.0303,-0.0298,408,2019-08-07 16:53:28:341
-5.4085,-6.9972,3.412,-0.1934,-0.1882,0.2068,-0.0111,0.0303,-0.0298,412,2019-08-07 16:53:28:345
-5.4085,-6.9972,3.412,-0.1934,-0.1882,0.2068,-0.0165,0.0335,-0.0298,418,2019-08-07 16:53:28:351
-5.4468,-7.0306,3.4309,-0.1584,-0.1923,0.1256,-0.0165,0.0335,-0.0298,423,2019-08-07 16:53:28:356
-5.4468,-7.0306,3.4309,-0.1584,-0.1923,0.1256,-0.0175,0.0271,-0.0352,427,2019-08-07 16:53:28:360
-5.3368,-7.0211,3.4073,-0.1584,-0.1923,0.1256,-0.0175,0.0271,-0.0352,434,2019-08-07 16:53:28:367
-5.3368,-7.0211,3.4073,-0.1584,-0.1923,0.1256,-0.0175,0.0271,-0.0352,437,2019-08-07 16:53:28:370
-5.3368,-7.0211,3.4073,-0.2409,-0.2217,0.1057,-0.0079,0.0239,-0.0362,442,2019-08-07 16:53:28:375
-5.3559,-6.9686,3.3979,-0.2409,-0.2217,0.1057,-0.0079,0.0239,-0.0362,448,2019-08-07 16:53:28:381
-5.3559,-6.9686,3.3979,-0.2409,-0.2217,0.1057,-0.009,0.0154,-0.0298,453,2019-08-07 16:53:28:386
-5.2889,-6.959,3.4167,-0.2409,-0.2217,0.1057,-0.009,0.0154,-0.0298,457,2019-08-07 16:53:28:390
-5.2889,-6.959,3.4167,-0.3516,-0.25,0.0749,-0.0026,-0.0027,-0.0234,463,2019-08-07 16:53:28:396
-5.2889,-6.959,3.4167,-0.3516,-0.25,0.0749,-0.0026,-0.0027,-0.0234,468,2019-08-07 16:53:28:401
-5.2028,-6.9734,3.3743,-0.3516,-0.25,0.0749,0.0016,-0.007,-0.0117,473,2019-08-07 16:53:28:406
-5.2028,-6.9734,3.3743,-0.3516,-0.25,0.0749,0.0016,-0.007,-0.0117,478,2019-08-07 16:53:28:411
-5.2028,-6.9352,3.4073,-0.3722,-0.2998,0.2079,0.008,0.0069,-0.0043,483,2019-08-07 16:53:28:416
-5.2028,-6.9352,3.4073,-0.3722,-0.2998,0.2079,0.008,0.0069,-0.0043,488,2019-08-07 16:53:28:421
-5.2028,-6.9352,3.4073,-0.3722,-0.2998,0.2079,0.008,0.0069,-0.0043,492,2019-08-07 16:53:28:425
-5.3654,-6.897,3.4403,-0.3722,-0.2998,0.2079,0.0102,0.0186,0.0075,498,2019-08-07 16:53:28:431
-5.3654,-6.897,3.4403,-0.2634,-0.3514,0.0759,0.0102,0.0186,0.0075,503,2019-08-07 16:53:28:436
-5.3176,-6.9925,3.4356,-0.2634,-0.3514,0.0759,0.0123,0.0079,0.0128,508,2019-08-07 16:53:28:441
-5.3176,-6.9925,3.4356,-0.2634,-0.3514,0.0759,0.0123,0.0079,0.0128,513,2019-08-07 16:53:28:446
-5.3176,-6.9925,3.4356,-0.2634,-0.3514,0.0759,0.0134,0.0122,0.0075,518,2019-08-07 16:53:28:451
-5.4181,-6.9686,3.2942,-0.1791,-0.2637,0.2558,0.0134,0.0122,0.0075,523,2019-08-07 16:53:28:456
-5.4181,-6.9686,3.2942,-0.1791,-0.2637,0.2558,0.0187,0.0335,-0.0011,527,2019-08-07 16:53:28:460
-5.4515,-6.9543,3.4261,-0.1473,-0.2772,0.1229,0.0187,0.0335,-0.0011,533,2019-08-07 16:53:28:466
-5.4515,-6.9543,3.4261,-0.1473,-0.2772,0.1229,0.0112,0.0442,-0.0032,538,2019-08-07 16:53:28:471
-5.4515,-6.9543,3.4261,-0.1473,-0.2772,0.1229,0.0112,0.0442,-0.0032,542,2019-08-07 16:53:28:475
-5.485,-6.9877,3.4639,-0.1473,-0.2772,0.1229,0.0102,0.042,-0.0192,549,2019-08-07 16:53:28:482
-5.485,-6.9877,3.4639,-0.1639,-0.2053,0.068,0.0102,0.042,-0.0192,553,2019-08-07 16:53:28:486
-5.4372,-6.959,3.4544,-0.1639,-0.2053,0.068,0.0102,0.042,-0.0192,558,2019-08-07 16:53:28:491
-5.4372,-6.959,3.4544,-0.1639,-0.2053,0.068,0.0144,0.042,-0.0256,562,2019-08-07 16:53:28:495
-5.4372,-6.959,3.4544,-0.1639,-0.2053,0.068,0.0144,0.042,-0.0256,568,2019-08-07 16:53:28:501
-5.4228,-6.9543,3.3507,-0.2068,-0.3165,0.1832,0.0102,0.0388,-0.0224,573,2019-08-07 16:53:28:506
-5.4228,-6.9543,3.3507,-0.2068,-0.3165,0.1832,0.0102,0.0388,-0.0224,578,2019-08-07 16:53:28:511
-5.375,-6.9447,3.4309,-0.2068,-0.3165,0.1832,0.0102,0.0197,-0.0213,583,2019-08-07 16:53:28:516
-5.375,-6.9447,3.4309,-0.2068,-0.3165,0.1832,0.0102,0.0197,-0.0213,588,2019-08-07 16:53:28:521
-5.308,-6.959,3.412,-0.2911,-0.2755,0.1304,0.0048,-0.0038,-0.017,593,2019-08-07 16:53:28:526
-5.308,-6.959,3.412,-0.2911,-0.2755,0.1304,0.0048,-0.0038,-0.017,598,2019-08-07 16:53:28:531
-5.308,-6.959,3.412,-0.2911,-0.2755,0.1304,0.0048,-0.0038,-0.017,602,2019-08-07 16:53:28:535
-5.1645,-6.897,3.3555,-0.2911,-0.2755,0.1304,0.008,-0.0198,0.0011,608,2019-08-07 16:53:28:541
-5.1645,-6.897,3.3555,-0.4272,-0.3141,0.1478,0.008,-0.0198,0.0011,613,2019-08-07 16:53:28:546
-5.1645,-6.897,3.3555,-0.4272,-0.3141,0.1478,0.0048,-0.0134,0.0128,618,2019-08-07 16:53:28:551
-5.1166,-6.9018,3.379,-0.4272,-0.3141,0.1478,0.0048,-0.0134,0.0128,622,2019-08-07 16:53:28:555
-5.1166,-6.9018,3.379,-0.4272,-0.3141,0.1478,0.0016,5.0E-4,0.0245,628,2019-08-07 16:53:28:561
-5.1405,-6.897,3.3743,-0.4574,-0.3362,0.1725,0.0016,5.0E-4,0.0245,633,2019-08-07 16:53:28:566
-5.1405,-6.897,3.3743,-0.4574,-0.3362,0.1725,-0.0015,0.0239,0.0266,638,2019-08-07 16:53:28:571
-5.1405,-6.897,3.3743,-0.4574,-0.3362,0.1725,-0.0015,0.0239,0.0266,642,2019-08-07 16:53:28:575
-5.3032,-6.8636,3.3507,-0.4574,-0.3362,0.1725,6.0E-4,0.0324,0.0309,648,2019-08-07 16:53:28:581
-5.3032,-6.8636,3.3507,-0.2673,-0.3189,0.2444,6.0E-4,0.0324,0.0309,653,2019-08-07 16:53:28:586
-5.3414,-6.9638,3.412,-0.2673,-0.3189,0.2444,-0.0026,0.0452,0.032,657,2019-08-07 16:53:28:590
-5.3414,-6.9638,3.412,-0.2673,-0.3189,0.2444,-0.0026,0.0452,0.032,662,2019-08-07 16:53:28:595
-5.3414,-6.9638,3.412,-0.2673,-0.3189,0.2444,-5.0E-4,0.0431,0.0245,668,2019-08-07 16:53:28:601
-5.3989,-6.9543,3.4309,-0.1885,-0.2727,0.1499,-5.0E-4,0.0431,0.0245,672,2019-08-07 16:53:28:605
-5.3989,-6.9543,3.4309,-0.1885,-0.2727,0.1499,0.0016,0.0537,0.0277,678,2019-08-07 16:53:28:611
-5.528,-6.8827,3.445,-0.1885,-0.2727,0.1499,0.0016,0.0537,0.0277,683,2019-08-07 16:53:28:616
-5.528,-6.8827,3.445,-0.1885,-0.2727,0.1499,0.0016,0.0537,0.0277,688,2019-08-07 16:53:28:621
-5.528,-6.8827,3.445,-0.0057,-0.3786,0.0547,-5.0E-4,0.0559,0.0224,694,2019-08-07 16:53:28:627
-5.6476,-6.8636,3.4969,-0.0057,-0.3786,0.0547,-0.0037,0.0303,0.0224,698,2019-08-07 16:53:28:631
-5.6476,-6.8636,3.4969,-0.0057,-0.3786,0.0547,-0.0037,0.0303,0.0224,703,2019-08-07 16:53:28:636
-5.5861,-6.9399,3.4543,-0.0057,-0.3786,0.0547,-0.0026,0.0111,0.0149,708,2019-08-07 16:53:28:641
-5.5861,-6.9399,3.4543,-0.0964,-0.2328,0.1228,-0.0026,0.0111,0.0149,713,2019-08-07 16:53:28:646
-5.5861,-6.9399,3.4543,-0.0964,-0.2328,0.1228,-0.0026,0.0111,0.0149,717,2019-08-07 16:53:28:650
-5.4856,-6.9685,3.4213,-0.0964,-0.2328,0.1228,0.007,-0.0038,0.0085,723,2019-08-07 16:53:28:656
-5.4856,-6.9685,3.4213,-0.0964,-0.2328,0.1228,0.007,-0.0038,0.0085,728,2019-08-07 16:53:28:661
-5.4856,-6.9685,3.4213,-0.0964,-0.2328,0.1228,0.007,-0.008,0.0138,732,2019-08-07 16:53:28:665
-5.323,-6.9256,3.459,-0.3032,-0.2932,0.0725,0.008,-0.0144,0.017,738,2019-08-07 16:53:28:671
-5.323,-6.9256,3.459,-0.3032,-0.2932,0.0725,0.008,-0.0144,0.017,743,2019-08-07 16:53:28:676
-5.2799,-6.8492,3.4826,-0.3032,-0.2932,0.0725,0.007,-0.0166,0.0245,748,2019-08-07 16:53:28:681
-5.2799,-6.8492,3.4826,-0.3032,-0.2932,0.0725,0.007,-0.0166,0.0245,753,2019-08-07 16:53:28:686
-5.2799,-6.8492,3.4826,-0.3809,-0.3431,0.095,0.007,-0.0166,0.0245,757,2019-08-07 16:53:28:690
-5.1938,-6.8683,3.4637,-0.3809,-0.3431,0.095,0.0091,-0.0134,0.0309,763,2019-08-07 16:53:28:696
-5.1938,-6.8683,3.4637,-0.3809,-0.3431,0.095,0.0091,-0.0134,0.0309,768,2019-08-07 16:53:28:701
-5.1938,-6.8683,3.4637,-0.3809,-0.3431,0.095,0.0102,5.0E-4,0.0447,773,2019-08-07 16:53:28:706
-5.3038,-6.8778,3.4355,-0.3274,-0.3338,0.1025,0.0102,5.0E-4,0.0447,778,2019-08-07 16:53:28:711
-5.3038,-6.8778,3.4355,-0.3274,-0.3338,0.1025,0.007,0.0079,0.0469,783,2019-08-07 16:53:28:716
-5.3277,-6.8921,3.3742,-0.3274,-0.3338,0.1025,0.007,0.0079,0.0469,788,2019-08-07 16:53:28:721
-5.3277,-6.8921,3.3742,-0.3274,-0.3338,0.1025,0.007,0.0079,0.0469,793,2019-08-07 16:53:28:726
-5.3277,-6.8921,3.3742,-0.2676,-0.3329,0.1217,0.008,0.0218,0.049,798,2019-08-07 16:53:28:731
-5.433,-6.8731,3.4732,-0.2676,-0.3329,0.1217,0.008,0.0218,0.049,803,2019-08-07 16:53:28:736
-5.433,-6.8731,3.4732,-0.2676,-0.3329,0.1217,0.0027,0.0324,0.0458,807,2019-08-07 16:53:28:740
-5.5095,-6.8635,3.4826,-0.2676,-0.3329,0.1217,0.0027,0.0324,0.0458,813,2019-08-07 16:53:28:746
-5.5095,-6.8635,3.4826,-0.1239,-0.346,0.1,-0.0069,0.0356,0.0405,817,2019-08-07 16:53:28:750
-5.5095,-6.8635,3.4826,-0.1239,-0.346,0.1,-0.0069,0.0356,0.0405,823,2019-08-07 16:53:28:756
-5.5622,-6.8874,3.4166,-0.1239,-0.346,0.1,-0.0143,0.0303,0.0288,828,2019-08-07 16:53:28:761
-5.5622,-6.8874,3.4166,-0.1239,-0.346,0.1,-0.0143,0.0303,0.0288,833,2019-08-07 16:53:28:766
-5.5622,-6.8874,3.4166,-0.0694,-0.2473,0.1084,-0.0165,0.0292,0.0138,838,2019-08-07 16:53:28:771
-5.5861,-6.8826,3.4025,-0.0694,-0.2473,0.1084,-0.0165,0.0292,0.0138,842,2019-08-07 16:53:28:775
-5.5861,-6.8826,3.4025,-0.0694,-0.2473,0.1084,-0.0186,0.0197,0.0032,848,2019-08-07 16:53:28:781
-5.5861,-6.9017,3.4355,-0.0694,-0.2473,0.1084,-0.0186,0.0197,0.0032,853,2019-08-07 16:53:28:786
-5.5861,-6.9017,3.4355,-0.0968,-0.3044,0.0559,-0.0186,0.0197,0.0032,858,2019-08-07 16:53:28:791
-5.5861,-6.9017,3.4355,-0.0968,-0.3044,0.0559,-0.0229,0.0069,-0.0064,864,2019-08-07 16:53:28:797
-5.5,-6.9542,3.4213,-0.0968,-0.3044,0.0559,-0.0229,0.0069,-0.0064,868,2019-08-07 16:53:28:801
-5.5,-6.9542,3.4213,-0.0968,-0.3044,0.0559,-0.0175,0.0058,-0.0107,873,2019-08-07 16:53:28:806
-5.4139,-6.9447,3.3695,-0.2446,-0.2542,0.1509,-0.0175,0.0058,-0.0107,878,2019-08-07 16:53:28:811
-5.4139,-6.9447,3.3695,-0.2446,-0.2542,0.1509,-0.009,0.0165,-0.0149,883,2019-08-07 16:53:28:816
-5.4713,-6.9542,3.4307,-0.2446,-0.2542,0.1509,-0.009,0.0165,-0.0149,888,2019-08-07 16:53:28:821
-5.4713,-6.9542,3.4307,-0.2446,-0.2542,0.1509,-0.0101,0.0058,-0.0128,894,2019-08-07 16:53:28:827
-5.4713,-6.9542,3.4307,-0.2053,-0.2994,0.101,-0.0101,0.0058,-0.0128,898,2019-08-07 16:53:28:831
-5.4234,-6.9017,3.5203,-0.2053,-0.2994,0.101,-0.0101,0.0058,-0.0128,903,2019-08-07 16:53:28:836
-5.4234,-6.9017,3.5203,-0.2053,-0.2994,0.101,-0.0122,-0.0187,-0.0096,908,2019-08-07 16:53:28:841
-5.4234,-6.9017,3.5203,-0.2053,-0.2994,0.101,-0.0122,-0.0187,-0.0096,912,2019-08-07 16:53:28:845
-5.3947,-6.8969,3.3789,-0.3124,-0.2776,0.1391,-0.0122,-0.0187,-0.0096,918,2019-08-07 16:53:28:851
-5.3947,-6.8969,3.3789,-0.3124,-0.2776,0.1391,-0.0101,-0.0208,-0.0043,923,2019-08-07 16:53:28:856
-5.3947,-6.8969,3.3789,-0.3124,-0.2776,0.1391,-0.0101,-0.0208,-0.0043,928,2019-08-07 16:53:28:861
-5.3517,-6.8635,3.3506,-0.3124,-0.2776,0.1391,-0.0122,-6.0E-4,-0.0021,933,2019-08-07 16:53:28:866
-5.3517,-6.8635,3.3506,-0.3158,-0.3652,0.1993,-0.0122,-6.0E-4,-0.0021,937,2019-08-07 16:53:28:870
-5.3517,-6.8635,3.3506,-0.3158,-0.3652,0.1993,-0.0197,0.0292,-0.0043,943,2019-08-07 16:53:28:876
-5.3804,-6.8969,3.3789,-0.2876,-0.304,0.1213,-0.0197,0.0292,-0.0043,948,2019-08-07 16:53:28:881
-5.3804,-6.8969,3.3789,-0.2876,-0.304,0.1213,-0.0207,0.042,-0.0075,953,2019-08-07 16:53:28:886
-5.4809,-6.8969,3.4449,-0.2876,-0.304,0.1213,-0.0207,0.042,-0.0075,958,2019-08-07 16:53:28:891
-5.4809,-6.8969,3.4449,-0.2876,-0.304,0.1213,-0.0197,0.0484,-0.0107,963,2019-08-07 16:53:28:896
-5.4809,-6.8969,3.4449,-0.0985,-0.3632,0.0853,-0.0197,0.0484,-0.0107,967,2019-08-07 16:53:28:900
-5.5718,-6.7919,3.4684,-0.0985,-0.3632,0.0853,-0.0197,0.0484,-0.0107,973,2019-08-07 16:53:28:906
-5.5718,-6.7919,3.4684,-0.0985,-0.3632,0.0853,-0.0229,0.0388,-0.0085,977,2019-08-07 16:53:28:910
-5.5813,-6.8683,3.3883,-0.1142,-0.3545,0.1099,-0.0229,0.0388,-0.0085,983,2019-08-07 16:53:28:916
-5.5813,-6.8683,3.3883,-0.1142,-0.3545,0.1099,-0.0292,0.0122,-0.0085,988,2019-08-07 16:53:28:921
-5.5813,-6.8683,3.3883,-0.1142,-0.3545,0.1099,-0.0292,0.0122,-0.0085,992,2019-08-07 16:53:28:925
-5.4139,-6.9065,3.3459,-0.2341,-0.3234,0.1659,-0.0186,0.0058,-0.0085,998,2019-08-07 16:53:28:931
-5.4139,-6.9065,3.3459,-0.2341,-0.3234,0.1659,-0.0186,0.0058,-0.0085,1003,2019-08-07 16:53:28:936
-5.3086,-6.8874,3.327,-0.2341,-0.3234,0.1659,-0.0186,0.0058,-0.0085,1008,2019-08-07 16:53:28:941
-5.3086,-6.8874,3.327,-0.2341,-0.3234,0.1659,-0.0165,0.0239,-0.0021,1013,2019-08-07 16:53:28:946
-5.3086,-6.8874,3.327,-0.3872,-0.2875,0.1987,-0.0165,0.0239,-0.0021,1018,2019-08-07 16:53:28:951
-5.2273,-6.9256,3.2752,-0.3872,-0.2875,0.1987,-0.0058,0.0591,-0.0032,1022,2019-08-07 16:53:28:955
-5.2273,-6.9256,3.2752,-0.3872,-0.2875,0.1987,-0.0058,0.0591,-0.0032,1028,2019-08-07 16:53:28:961
-5.4378,-6.7823,3.2705,-0.3872,-0.2875,0.1987,0.0016,0.0974,-0.0011,1033,2019-08-07 16:53:28:966
-5.4378,-6.7823,3.2705,-0.1725,-0.398,0.1605,0.0016,0.0974,-0.0011,1039,2019-08-07 16:53:28:972
-5.4378,-6.7823,3.2705,-0.1725,-0.398,0.1605,-0.0026,0.107,0.0085,1043,2019-08-07 16:53:28:976
-5.5526,-6.7967,3.4166,-0.1725,-0.398,0.1605,-0.0026,0.107,0.0085,1048,2019-08-07 16:53:28:981
-5.5526,-6.7967,3.4166,-0.1725,-0.398,0.1605,0.0027,0.0804,0.0053,1053,2019-08-07 16:53:28:986
-5.5526,-6.7967,3.4166,-0.1725,-0.398,0.1605,0.0027,0.0804,0.0053,1058,2019-08-07 16:53:28:991
-5.6148,-6.7632,3.4402,-0.057,-0.4485,0.0321,0.0027,0.0804,0.0053,1063,2019-08-07 16:53:28:996
-5.6148,-6.7632,3.4402,-0.057,-0.4485,0.0321,0.0016,0.0474,0.017,1067,2019-08-07 16:53:29:000
-5.5909,-6.7251,3.4119,-0.057,-0.4485,0.0321,0.0016,0.0474,0.017,1073,2019-08-07 16:53:29:006
-5.5909,-6.7251,3.4119,-0.057,-0.4485,0.0321,-0.0026,0.0282,0.0245,1078,2019-08-07 16:53:29:011
-5.5909,-6.7251,3.4119,-0.0591,-0.5119,0.0846,-0.0026,0.0282,0.0245,1083,2019-08-07 16:53:29:016
-5.5957,-6.7346,3.5297,-0.0591,-0.5119,0.0846,-0.0026,0.0282,0.0245,1087,2019-08-07 16:53:29:020
-5.5957,-6.7346,3.5297,-0.0591,-0.5119,0.0846,-5.0E-4,0.0026,0.032,1093,2019-08-07 16:53:29:026
-5.5957,-6.7346,3.5297,-0.0591,-0.5119,0.0846,-5.0E-4,0.0026,0.032,1099,2019-08-07 16:53:29:032
-5.6483,-6.7585,3.558,-0.0466,-0.53,-0.117,0.0059,-0.0208,0.0469,1102,2019-08-07 16:53:29:035
-5.6483,-6.7585,3.558,-0.0466,-0.53,-0.117,0.0059,-0.0208,0.0469,1108,2019-08-07 16:53:29:041
-5.5814,-6.7012,3.5156,-0.0466,-0.53,-0.117,0.0283,-0.0634,0.066,1113,2019-08-07 16:53:29:046
-5.5814,-6.7012,3.5156,-0.0466,-0.53,-0.117,0.0283,-0.0634,0.066,1118,2019-08-07 16:53:29:051
-5.5814,-6.7012,3.5156,-0.1678,-0.5331,-0.1374,0.0496,-0.0901,0.0895,1123,2019-08-07 16:53:29:056
-5.4618,-6.6153,3.492,-0.1678,-0.5331,-0.1374,0.0496,-0.0901,0.0895,1127,2019-08-07 16:53:29:060
-5.4618,-6.6153,3.492,-0.2053,-0.5063,0.0466,0.0613,-0.0784,0.0991,1133,2019-08-07 16:53:29:066
-5.4618,-6.6153,3.492,-0.2053,-0.5063,0.0466,0.0613,-0.0784,0.0991,1138,2019-08-07 16:53:29:071
-5.5048,-6.62,3.3836,-0.2053,-0.5063,0.0466,0.0613,-0.0784,0.0991,1142,2019-08-07 16:53:29:075
-5.5048,-6.62,3.3836,-0.2053,-0.5063,0.0466,0.0666,-0.0773,0.1172,1148,2019-08-07 16:53:29:081
-5.6053,-6.6487,3.3883,-0.1166,-0.497,0.0283,0.0666,-0.0773,0.1172,1153,2019-08-07 16:53:29:086
-5.6053,-6.6487,3.3883,-0.1166,-0.497,0.0283,0.073,-0.073,0.1332,1158,2019-08-07 16:53:29:091
-5.6053,-6.6487,3.3883,-0.1166,-0.497,0.0283,0.073,-0.073,0.1332,1163,2019-08-07 16:53:29:096
-5.6196,-6.6964,3.4072,-0.1166,-0.497,0.0283,0.0709,-0.072,0.1449,1168,2019-08-07 16:53:29:101
-5.6196,-6.6964,3.4072,-0.0362,-0.4278,0.0565,0.0709,-0.072,0.1449,1173,2019-08-07 16:53:29:106
-5.6196,-6.6964,3.4072,-0.0362,-0.4278,0.0565,0.0709,-0.072,0.1449,1178,2019-08-07 16:53:29:111
-5.7153,-6.706,3.4496,-0.0362,-0.4278,0.0565,0.0709,-0.0858,0.1523,1182,2019-08-07 16:53:29:115
-5.7153,-6.706,3.4496,-0.0362,-0.4278,0.0565,0.0709,-0.0858,0.1523,1189,2019-08-07 16:53:29:122
-5.7153,-6.706,3.4496,-0.1238,-0.4386,0.1377,0.0656,-0.0954,0.1598,1193,2019-08-07 16:53:29:126
-5.6484,-6.6773,3.3883,-0.1238,-0.4386,0.1377,0.0656,-0.0954,0.1598,1198,2019-08-07 16:53:29:131
-5.6484,-6.6773,3.3883,-0.1238,-0.4386,0.1377,0.0613,-0.1007,0.1566,1202,2019-08-07 16:53:29:135
-5.6244,-6.6773,3.3317,-0.1238,-0.4386,0.1377,0.0613,-0.1007,0.1566,1208,2019-08-07 16:53:29:141
-5.6244,-6.6773,3.3317,-0.1253,-0.4062,0.2284,0.0475,-0.1092,0.1651,1213,2019-08-07 16:53:29:146
-5.6244,-6.6773,3.3317,-0.1253,-0.4062,0.2284,0.0475,-0.1092,0.1651,1218,2019-08-07 16:53:29:151
-5.5814,-6.7155,3.393,-0.1253,-0.4062,0.2284,0.0389,-0.1156,0.1672,1223,2019-08-07 16:53:29:156
-5.5814,-6.7155,3.393,-0.1253,-0.4062,0.2284,0.0389,-0.1156,0.1672,1228,2019-08-07 16:53:29:161
-5.6005,-6.6916,3.393,-0.1698,-0.3836,0.1959,0.0336,-0.1231,0.1736,1233,2019-08-07 16:53:29:166
-5.6005,-6.6916,3.393,-0.1698,-0.3836,0.1959,0.0336,-0.1231,0.1736,1238,2019-08-07 16:53:29:171
-5.6005,-6.6916,3.393,-0.1698,-0.3836,0.1959,0.0336,-0.1231,0.1736,1243,2019-08-07 16:53:29:176
-5.5001,-6.7107,3.2657,-0.1698,-0.3836,0.1959,0.0251,-0.1242,0.1843,1247,2019-08-07 16:53:29:180
-5.5001,-6.7107,3.2657,-0.2965,-0.3415,0.2944,0.0166,-0.1188,0.1811,1254,2019-08-07 16:53:29:187
-5.5001,-6.7107,3.2657,-0.2965,-0.3415,0.2944,0.0166,-0.1188,0.1811,1258,2019-08-07 16:53:29:191
-5.5096,-6.7394,3.294,-0.2965,-0.3415,0.2944,0.0166,-0.1188,0.1811,1263,2019-08-07 16:53:29:196
-5.5096,-6.7394,3.294,-0.2965,-0.3415,0.2944,-0.0026,-0.1071,0.1843,1268,2019-08-07 16:53:29:201
-5.5096,-6.7394,3.294,-0.3239,-0.2766,0.3746,-0.0026,-0.1071,0.1843,1273,2019-08-07 16:53:29:206
-5.5383,-6.7537,3.3742,-0.3239,-0.2766,0.3746,-0.0186,-0.0869,0.1768,1278,2019-08-07 16:53:29:211
-5.5383,-6.7537,3.3742,-0.3239,-0.2766,0.3746,-0.0186,-0.0869,0.1768,1284,2019-08-07 16:53:29:217
-5.5383,-6.7537,3.3742,-0.3239,-0.2766,0.3746,-0.0186,-0.0869,0.1768,1288,2019-08-07 16:53:29:221
-5.5862,-6.7537,3.3506,-0.228,-0.2433,0.2537,-0.0314,-0.0634,0.1715,1293,2019-08-07 16:53:29:226
-5.5862,-6.7537,3.3506,-0.228,-0.2433,0.2537,-0.0314,-0.0634,0.1715,1297,2019-08-07 16:53:29:230
-5.5575,-6.8014,3.3129,-0.276,-0.2016,0.3154,-0.0452,-0.0485,0.1609,1304,2019-08-07 16:53:29:237
-5.5575,-6.8014,3.3129,-0.276,-0.2016,0.3154,-0.0452,-0.0485,0.1609,1308,2019-08-07 16:53:29:241
-5.5575,-6.8014,3.3129,-0.276,-0.2016,0.3154,-0.058,-0.0293,0.1459,1313,2019-08-07 16:53:29:246
-5.5718,-6.8778,3.3223,-0.276,-0.2016,0.3154,-0.058,-0.0293,0.1459,1319,2019-08-07 16:53:29:252
-5.5718,-6.8778,3.3223,-0.2082,-0.1031,0.315,-0.0708,-0.0166,0.1289,1322,2019-08-07 16:53:29:255
-5.5718,-6.8778,3.3223,-0.2082,-0.1031,0.315,-0.0708,-0.0166,0.1289,1328,2019-08-07 16:53:29:261
-5.6819,-6.8778,3.3742,-0.2082,-0.1031,0.315,-0.0814,-0.023,0.1193,1333,2019-08-07 16:53:29:266
-5.6819,-6.8778,3.3742,-0.2082,-0.1031,0.315,-0.0814,-0.023,0.1193,1338,2019-08-07 16:53:29:271
-5.6819,-6.8778,3.3742,-0.2082,-0.1031,0.315,-0.0814,-0.023,0.1193,1343,2019-08-07 16:53:29:276
-5.7632,-6.916,3.4684,-0.1041,-0.0659,0.146,-0.091,-0.0432,0.1097,1347,2019-08-07 16:53:29:280
-5.7632,-6.916,3.4684,-0.1041,-0.0659,0.146,-0.091,-0.0432,0.1097,1353,2019-08-07 16:53:29:286
-5.7776,-6.9256,3.5203,-0.1041,-0.0659,0.146,-0.1027,-0.089,0.1023,1358,2019-08-07 16:53:29:291
-5.7776,-6.9256,3.5203,-0.1041,-0.0659,0.146,-0.1027,-0.089,0.1023,1363,2019-08-07 16:53:29:296
-5.7776,-6.9256,3.5203,-0.2043,-0.0799,0.1643,-0.1123,-0.1178,0.0937,1368,2019-08-07 16:53:29:301
-5.6101,-6.9303,3.4401,-0.2043,-0.0799,0.1643,-0.1123,-0.1178,0.0937,1373,2019-08-07 16:53:29:306
-5.6101,-6.9303,3.4401,-0.2043,-0.0799,0.1643,-0.123,-0.1305,0.0842,1378,2019-08-07 16:53:29:311
-5.5192,-6.9208,3.4307,-0.3602,-0.0545,0.1768,-0.123,-0.1305,0.0842,1384,2019-08-07 16:53:29:317
-5.5192,-6.9208,3.4307,-0.3602,-0.0545,0.1768,-0.123,-0.1305,0.0842,1388,2019-08-07 16:53:29:321
-5.5192,-6.9208,3.4307,-0.3602,-0.0545,0.1768,-0.1251,-0.1327,0.0756,1393,2019-08-07 16:53:29:326
-5.4379,-6.9303,3.4024,-0.3602,-0.0545,0.1768,-0.1251,-0.1327,0.0756,1398,2019-08-07 16:53:29:331
-5.4379,-6.9303,3.4024,-0.4231,-0.0692,0.2315,-0.1219,-0.1305,0.0682,1403,2019-08-07 16:53:29:336
-5.4379,-6.9303,3.4024,-0.4231,-0.0692,0.2315,-0.1219,-0.1305,0.0682,1408,2019-08-07 16:53:29:341
-5.3613,-6.8921,3.4166,-0.4231,-0.0692,0.2315,-0.1166,-0.1114,0.0682,1413,2019-08-07 16:53:29:346
-5.3613,-6.8921,3.4166,-0.4231,-0.0692,0.2315,-0.1166,-0.1114,0.0682,1418,2019-08-07 16:53:29:351
-5.3613,-6.8921,3.4166,-0.5537,-0.0798,0.265,-0.1091,-0.0752,0.0586,1423,2019-08-07 16:53:29:356
-5.3279,-6.8969,3.3364,-0.5537,-0.0798,0.265,-0.1091,-0.0752,0.0586,1428,2019-08-07 16:53:29:361
-5.3279,-6.8969,3.3364,-0.5537,-0.0798,0.265,-0.1038,-0.0389,0.0511,1433,2019-08-07 16:53:29:366
-5.3231,-6.9637,3.3883,-0.5537,-0.0798,0.265,-0.1038,-0.0389,0.0511,1439,2019-08-07 16:53:29:372
-5.3231,-6.9637,3.3883,-0.5537,-0.0798,0.265,-0.1038,-0.0389,0.0511,1443,2019-08-07 16:53:29:376
-5.3231,-6.9637,3.3883,-0.4289,-0.0765,0.1651,-0.0953,-0.007,0.0479,1449,2019-08-07 16:53:29:382
-5.4666,-6.8921,3.459,-0.4289,-0.0765,0.1651,-0.0953,-0.007,0.0479,1453,2019-08-07 16:53:29:386
-5.4666,-6.8921,3.459,-0.4289,-0.0765,0.1651,-0.0761,-0.0091,0.0469,1457,2019-08-07 16:53:29:390
-5.6197,-6.873,3.5438,-0.4289,-0.0765,0.1651,-0.0761,-0.0091,0.0469,1463,2019-08-07 16:53:29:396
-5.6197,-6.873,3.5438,-0.2626,-0.1438,0.0603,-0.0729,-0.0453,0.0426,1468,2019-08-07 16:53:29:401
-5.6197,-6.873,3.5438,-0.2626,-0.1438,0.0603,-0.0729,-0.0453,0.0426,1472,2019-08-07 16:53:29:405
-5.5192,-6.8826,3.5344,-0.2626,-0.1438,0.0603,-0.0697,-0.0847,0.0426,1478,2019-08-07 16:53:29:411
-5.5192,-6.8826,3.5344,-0.2626,-0.1438,0.0603,-0.0697,-0.0847,0.0426,1483,2019-08-07 16:53:29:416
-5.5192,-6.8826,3.5344,-0.4212,-0.0819,0.1438,-0.0697,-0.0847,0.0426,1488,2019-08-07 16:53:29:421
-5.3948,-6.8969,3.4166,-0.4212,-0.0819,0.1438,-0.0569,-0.0975,0.0447,1493,2019-08-07 16:53:29:426
-5.3948,-6.8969,3.4166,-0.4212,-0.0819,0.1438,-0.0569,-0.0975,0.0447,1499,2019-08-07 16:53:29:432
-5.4331,-6.9112,3.459,-0.4212,-0.0819,0.1438,-0.0474,-0.0752,0.0383,1503,2019-08-07 16:53:29:436
-5.4331,-6.9112,3.459,-0.4683,-0.038,0.2128,-0.0474,-0.0752,0.0383,1508,2019-08-07 16:53:29:441
-5.4331,-6.9112,3.459,-0.4683,-0.038,0.2128,-0.042,-0.0645,0.0437,1513,2019-08-07 16:53:29:446
-5.3853,-6.8921,3.4637,-0.4683,-0.038,0.2128,-0.042,-0.0645,0.0437,1519,2019-08-07 16:53:29:452
-5.3853,-6.8921,3.4637,-0.4683,-0.038,0.2128,-0.0346,-0.0581,0.0426,1522,2019-08-07 16:53:29:455
-5.347,-6.8444,3.3694,-0.5126,-0.1074,0.0734,-0.0346,-0.0581,0.0426,1528,2019-08-07 16:53:29:461
-5.347,-6.8444,3.3694,-0.5126,-0.1074,0.0734,-0.026,-0.0464,0.0415,1533,2019-08-07 16:53:29:466
-5.347,-6.8444,3.3694,-0.5126,-0.1074,0.0734,-0.026,-0.0464,0.0415,1539,2019-08-07 16:53:29:472
-5.347,-6.8444,3.3694,-0.5126,-0.1074,0.0734,-0.026,-0.0464,0.0415,1543,2019-08-07 16:53:29:476
-5.457,-6.8444,3.2893,-0.425,-0.1332,0.2103,-0.025,-0.0134,0.0405,1548,2019-08-07 16:53:29:481
-5.457,-6.8444,3.2893,-0.425,-0.1332,0.2103,-0.025,-0.0134,0.0405,1553,2019-08-07 16:53:29:486
-5.457,-6.8444,3.2893,-0.425,-0.1332,0.2103,-0.0292,-0.0208,0.0341,1558,2019-08-07 16:53:29:491
-5.5814,-6.8396,3.4637,-0.425,-0.1332,0.2103,-0.0292,-0.0208,0.0341,1563,2019-08-07 16:53:29:496
-5.5814,-6.8396,3.4637,-0.4094,-0.1166,0.2371,-0.0271,-0.0357,0.032,1568,2019-08-07 16:53:29:501
-5.5097,-6.8253,3.2704,-0.4094,-0.1166,0.2371,-0.0271,-0.0357,0.032,1573,2019-08-07 16:53:29:506
-5.5097,-6.8253,3.2704,-0.4094,-0.1166,0.2371,-0.0271,-0.0357,0.032,1577,2019-08-07 16:53:29:510
-5.5097,-6.8253,3.2704,-0.4094,-0.1166,0.2371,-0.0229,-0.0304,0.0298,1584,2019-08-07 16:53:29:517
-5.481,-6.8444,3.2186,-0.421,-0.1246,0.3642,-0.0229,-0.0304,0.0298,1588,2019-08-07 16:53:29:521
-5.481,-6.8444,3.2186,-0.421,-0.1246,0.3642,-0.026,-0.008,0.0266,1594,2019-08-07 16:53:29:527
-5.5432,-6.8921,3.2469,-0.3602,-0.0763,0.3346,-0.026,-0.008,0.0266,1598,2019-08-07 16:53:29:531
-5.5432,-6.8921,3.2469,-0.3602,-0.0763,0.3346,-0.026,-0.008,0.0266,1603,2019-08-07 16:53:29:536
-5.5432,-6.8921,3.2469,-0.3602,-0.0763,0.3346,-0.026,-0.008,0.0266,1608,2019-08-07 16:53:29:541
-5.5193,-6.9065,3.2657,-0.3602,-0.0763,0.3346,-0.025,-0.0017,0.0224,1613,2019-08-07 16:53:29:546
-5.5193,-6.9065,3.2657,-0.4299,-0.0615,0.4491,-0.025,-0.0017,0.0224,1617,2019-08-07 16:53:29:550
-5.5193,-6.9065,3.2657,-0.4299,-0.0615,0.4491,-0.0165,0.0186,0.0245,1623,2019-08-07 16:53:29:556
-5.4953,-6.8492,3.1479,-0.4299,-0.0615,0.4491,-0.0165,0.0186,0.0245,1627,2019-08-07 16:53:29:560
-5.4953,-6.8492,3.1479,-0.4299,-0.0615,0.4491,-0.009,0.0335,0.0256,1633,2019-08-07 16:53:29:566
-5.5288,-6.9017,3.1714,-0.3821,-0.0647,0.4016,-0.009,0.0335,0.0256,1638,2019-08-07 16:53:29:571
-5.5288,-6.9017,3.1714,-0.3821,-0.0647,0.4016,-0.009,0.0335,0.0256,1643,2019-08-07 16:53:29:576
-5.5288,-6.9017,3.1714,-0.3821,-0.0647,0.4016,-5.0E-4,0.0442,0.0234,1648,2019-08-07 16:53:29:581
-5.5862,-6.959,3.2092,-0.3821,-0.0647,0.4016,-5.0E-4,0.0442,0.0234,1653,2019-08-07 16:53:29:586
-5.5862,-6.959,3.2092,-0.3263,-0.0526,0.3253,0.0102,0.0474,0.0213,1658,2019-08-07 16:53:29:591
-5.5862,-6.9065,3.2044,-0.3263,-0.0526,0.3253,0.0102,0.0474,0.0213,1663,2019-08-07 16:53:29:596
-5.5862,-6.9065,3.2044,-0.3263,-0.0526,0.3253,0.0144,0.0516,0.0192,1669,2019-08-07 16:53:29:602
-5.5862,-6.9065,3.2044,-0.3263,-0.0526,0.3253,0.0144,0.0516,0.0192,1673,2019-08-07 16:53:29:606
-5.5719,-6.9446,3.2327,-0.3423,-0.0447,0.3066,0.0166,0.0601,0.0181,1678,2019-08-07 16:53:29:611
-5.5719,-6.9446,3.2327,-0.3423,-0.0447,0.3066,0.0166,0.0601,0.0181,1683,2019-08-07 16:53:29:616
-5.5432,-6.9303,3.3647,-0.3423,-0.0447,0.3066,0.0283,0.0612,0.0202,1688,2019-08-07 16:53:29:621
-5.5432,-6.9303,3.3647,-0.3423,-0.0447,0.3066,0.0283,0.0612,0.0202,1693,2019-08-07 16:53:29:626
-5.5432,-6.9303,3.3647,-0.3533,-0.0359,0.1102,0.0283,0.0612,0.0202,1699,2019-08-07 16:53:29:632
-5.5435,-6.9494,3.4259,-0.3533,-0.0359,0.1102,0.0368,0.042,0.0266,1702,2019-08-07 16:53:29:635
-5.5435,-6.9494,3.4259,-0.3533,-0.0359,0.1102,0.0368,0.042,0.0266,1708,2019-08-07 16:53:29:641
-5.4717,-6.8778,3.3929,-0.3533,-0.0359,0.1102,0.0432,0.026,0.0309,1713,2019-08-07 16:53:29:646
-5.4717,-6.8778,3.3929,-0.3533,-0.0359,0.1102,0.0432,0.026,0.0309,1718,2019-08-07 16:53:29:651
-5.4717,-6.8778,3.3929,-0.5078,-0.044,0.0791,0.0528,0.0186,0.0405,1722,2019-08-07 16:53:29:655
-5.4718,-6.9064,3.4354,-0.5078,-0.044,0.0791,0.0528,0.0186,0.0405,1728,2019-08-07 16:53:29:661
-5.4718,-6.9064,3.4354,-0.5078,-0.044,0.0791,0.0645,0.0122,0.0437,1733,2019-08-07 16:53:29:666
-5.4718,-6.9064,3.4354,-0.5096,-0.0448,0.0617,0.0645,0.0122,0.0437,1738,2019-08-07 16:53:29:671
-5.4526,-6.9112,3.5296,-0.5096,-0.0448,0.0617,0.0645,0.0122,0.0437,1743,2019-08-07 16:53:29:676
-5.4526,-6.9112,3.5296,-0.5096,-0.0448,0.0617,0.0688,0.0175,0.0479,1747,2019-08-07 16:53:29:680
-5.4287,-6.8635,3.5391,-0.5096,-0.0448,0.0617,0.0752,0.0186,0.0533,1754,2019-08-07 16:53:29:687
-5.4287,-6.8635,3.5391,-0.5096,-0.0448,0.0617,0.0752,0.0186,0.0533,1758,2019-08-07 16:53:29:691
-5.4287,-6.8635,3.5391,-0.5031,-0.0244,0.0415,0.0815,0.025,0.0533,1764,2019-08-07 16:53:29:697
-5.3665,-6.9064,3.5438,-0.5031,-0.0244,0.0415,0.0815,0.025,0.0533,1768,2019-08-07 16:53:29:701
-5.3665,-6.9064,3.5438,-0.5031,-0.0244,0.0415,0.0815,0.025,0.0533,1773,2019-08-07 16:53:29:706
-5.3665,-6.9064,3.5438,-0.5031,-0.0244,0.0415,0.089,0.0442,0.0533,1778,2019-08-07 16:53:29:711
-5.5196,-6.9207,3.5485,-0.4408,0.0022,0.0354,0.089,0.0442,0.0533,1784,2019-08-07 16:53:29:717
-5.5196,-6.9207,3.5485,-0.4408,0.0022,0.0354,0.089,0.0442,0.0533,1788,2019-08-07 16:53:29:721
-5.6105,-6.9494,3.6239,-0.4408,0.0022,0.0354,0.1007,0.0559,0.0533,1793,2019-08-07 16:53:29:726
-5.6105,-6.9494,3.6239,-0.4408,0.0022,0.0354,0.1007,0.0559,0.0533,1798,2019-08-07 16:53:29:731
-5.7445,-6.9542,3.6145,-0.2888,0.0776,-0.004,0.1114,0.0516,0.0511,1804,2019-08-07 16:53:29:737
-5.7445,-6.9542,3.6145,-0.2888,0.0776,-0.004,0.1114,0.0516,0.0511,1807,2019-08-07 16:53:29:740
-5.7445,-6.9542,3.6145,-0.2888,0.0776,-0.004,0.1263,0.042,0.049,1813,2019-08-07 16:53:29:746
-5.7971,-6.9494,3.6852,-0.2888,0.0776,-0.004,0.1263,0.042,0.049,1818,2019-08-07 16:53:29:751
-5.7971,-6.9494,3.6852,-0.2028,0.0542,-0.0858,0.1561,0.0271,0.0437,1823,2019-08-07 16:53:29:756
-5.7971,-6.9494,3.6852,-0.2028,0.0542,-0.0858,0.1561,0.0271,0.0437,1827,2019-08-07 16:53:29:760
-5.845,-6.8969,3.7276,-0.2028,0.0542,-0.0858,0.1795,0.0143,0.0426,1833,2019-08-07 16:53:29:766
-5.845,-6.8969,3.7276,-0.2028,0.0542,-0.0858,0.1795,0.0143,0.0426,1838,2019-08-07 16:53:29:771
-5.845,-6.8969,3.7276,-0.2145,0.1004,-0.1442,0.1795,0.0143,0.0426,1843,2019-08-07 16:53:29:776
-5.8019,-6.9732,3.8219,-0.2145,0.1004,-0.1442,0.2115,0.0015,0.0458,1848,2019-08-07 16:53:29:781
-5.8019,-6.9732,3.8219,-0.2145,0.1004,-0.1442,0.2115,0.0015,0.0458,1853,2019-08-07 16:53:29:786
-5.8258,-7.1308,4.1047,-0.2145,0.1004,-0.1442,0.2648,-0.0219,0.0596,1858,2019-08-07 16:53:29:791
-5.8258,-7.1308,4.1047,-0.1345,0.2578,-0.4724,0.2648,-0.0219,0.0596,1863,2019-08-07 16:53:29:796
-5.8258,-7.1308,4.1047,-0.1345,0.2578,-0.4724,0.3383,-0.0485,0.0799,1868,2019-08-07 16:53:29:801
-5.7732,-7.1928,4.4535,-0.1345,0.2578,-0.4724,0.3383,-0.0485,0.0799,1873,2019-08-07 16:53:29:806
-5.7732,-7.1928,4.4535,-0.1345,0.2578,-0.4724,0.4363,-0.0922,0.1076,1878,2019-08-07 16:53:29:811
-5.7732,-7.1976,4.8542,-0.3514,0.3827,-1.0047,0.4363,-0.0922,0.1076,1884,2019-08-07 16:53:29:817
-5.6201,-7.1976,4.8542,-0.3514,0.3827,-1.0047,0.5886,-0.1423,0.1353,1887,2019-08-07 16:53:29:820
-5.6201,-7.1976,4.8542,-0.3514,0.3827,-1.0047,0.5886,-0.1423,0.1353,1893,2019-08-07 16:53:29:826
-5.3331,-7.126,5.1653,-0.3514,0.3827,-1.0047,0.7218,-0.1668,0.1513,1898,2019-08-07 16:53:29:831
-5.3331,-7.126,5.1653,-0.7739,0.4124,-1.4669,0.7218,-0.1668,0.1513,1903,2019-08-07 16:53:29:836
-5.1656,-7.2358,5.5801,-0.7739,0.4124,-1.4669,0.8507,-0.187,0.1619,1908,2019-08-07 16:53:29:841
-5.1656,-7.2358,5.5801,-0.7739,0.4124,-1.4669,0.8507,-0.187,0.1619,1913,2019-08-07 16:53:29:846
-5.1656,-7.2358,5.5801,-0.7739,0.4124,-1.4669,0.9817,-0.1913,0.1683,1919,2019-08-07 16:53:29:852
-5.18,-7.6129,6.0892,-0.8313,0.9538,-2.1198,0.9817,-0.1913,0.1683,1924,2019-08-07 16:53:29:857
-5.18,-7.6129,6.0892,-0.8313,0.9538,-2.1198,0.9817,-0.1913,0.1683,1928,2019-08-07 16:53:29:861
-5.0748,-7.9614,6.6172,-0.9388,1.3561,-2.5621,1.117,-0.203,0.1822,1933,2019-08-07 16:53:29:866
-5.0748,-7.9614,6.6172,-0.9388,1.3561,-2.5621,1.2448,-0.2083,0.1949,1938,2019-08-07 16:53:29:871
-5.0748,-7.9614,6.6172,-0.9388,1.3561,-2.5621,1.2448,-0.2083,0.1949,1943,2019-08-07 16:53:29:876
-5.18,-8.3958,7.1215,-0.8022,1.756,-2.8164,1.3567,-0.1817,0.2056,1948,2019-08-07 16:53:29:881
-5.18,-8.3958,7.1215,-0.8022,1.756,-2.8164,1.3567,-0.1817,0.2056,1953,2019-08-07 16:53:29:886
-5.18,-8.3958,7.1215,-0.8022,1.756,-2.8164,1.3567,-0.1817,0.2056,1958,2019-08-07 16:53:29:891
-5.2279,-8.8446,7.4703,-0.8478,2.5038,-3.1675,1.4547,-0.1444,0.2088,1962,2019-08-07 16:53:29:895
-5.2279,-8.8446,7.4703,-0.8478,2.5038,-3.1675,1.4547,-0.1444,0.2088,1968,2019-08-07 16:53:29:901
-5.2279,-8.8446,7.6589,-0.8478,2.5038,-3.1675,1.5718,-0.072,0.196,1974,2019-08-07 16:53:29:907
-4.7877,-9.3697,7.6589,-0.8478,2.5038,-3.1675,1.5718,-0.072,0.196,1977,2019-08-07 16:53:29:910
-4.7877,-9.3697,7.6589,-1.7694,3.4344,-3.2709,1.6805,0.0708,0.1395,1982,2019-08-07 16:53:29:915
-3.8117,-9.9378,7.9794,-1.7694,3.4344,-3.2709,1.6805,0.0708,0.1395,1988,2019-08-07 16:53:29:921
-3.8117,-9.9378,7.9794,-1.7694,3.4344,-3.2709,1.6805,0.0708,0.1395,1993,2019-08-07 16:53:29:926
-3.8117,-9.9378,7.9794,-2.5734,4.1257,-3.4994,1.7988,0.2774,0.033,1998,2019-08-07 16:53:29:931
-2.9936,-10.926,8.4932,-2.5734,4.1257,-3.4994,1.7988,0.2774,0.033,2003,2019-08-07 16:53:29:936
-2.9936,-10.926,8.4932,-2.5734,4.1257,-3.4994,2.0235,0.6673,-0.2013,2008,2019-08-07 16:53:29:941
-2.5296,-12.2626,9.106,-3.543,6.2746,-4.258,2.0235,0.6673,-0.2013,2013,2019-08-07 16:53:29:946
-2.5296,-12.2626,9.106,-3.543,6.2746,-4.258,2.2089,0.9102,-0.3697,2018,2019-08-07 16:53:29:951
-2.5296,-12.2626,9.106,-3.543,6.2746,-4.258,2.2089,0.9102,-0.3697,2023,2019-08-07 16:53:29:956
-2.587,-14.5732,8.9033,-3.543,6.2746,-4.258,2.4038,1.0657,-0.5262,2028,2019-08-07 16:53:29:961
-2.587,-14.5732,8.9033,-3.3821,9.7121,-3.9926,2.4038,1.0657,-0.5262,2032,2019-08-07 16:53:29:965
-2.587,-14.5732,8.9033,-3.3821,9.7121,-3.9926,2.4038,1.0657,-0.5262,2038,2019-08-07 16:53:29:971
-2.7497,-17.003,9.172,-3.3821,9.7121,-3.9926,2.6989,1.1041,-0.6637,2043,2019-08-07 16:53:29:976
-2.7497,-17.003,9.172,-3.3827,11.7823,-4.1633,2.6989,1.1041,-0.6637,2048,2019-08-07 16:53:29:981
-2.4291,-19.1513,9.4407,-3.3827,11.7823,-4.1633,3.0323,0.9518,-0.6956,2053,2019-08-07 16:53:29:986
-2.4291,-19.1513,9.4407,-3.3827,11.7823,-4.1633,3.0323,0.9518,-0.6956,2058,2019-08-07 16:53:29:991
-2.4291,-19.1513,9.4407,-3.3827,11.7823,-4.1633,3.4233,0.7408,-0.6722,2063,2019-08-07 16:53:29:996
-1.4197,-20.698,8.9646,-4.5623,14.9278,-3.765,3.4233,0.7408,-0.6722,2068,2019-08-07 16:53:30:001
-1.4197,-20.698,8.9646,-4.5623,14.9278,-3.765,3.7887,0.6609,-0.7116,2072,2019-08-07 16:53:30:005
-0.7594,-21.2995,8.102,-4.5623,14.9278,-3.765,3.7887,0.6609,-0.7116,2078,2019-08-07 16:53:30:011
-0.7594,-21.2995,8.102,-5.6895,16.1733,-1.8666,4.0635,0.6609,-0.8107,2083,2019-08-07 16:53:30:016
-0.7594,-21.2995,8.102,-5.6895,16.1733,-1.8666,4.0635,0.6609,-0.8107,2087,2019-08-07 16:53:30:020
0.0874,-21.8866,6.504,-5.6895,16.1733,-1.8666,4.0635,0.6609,-0.8107,2093,2019-08-07 16:53:30:026
0.0874,-21.8866,6.504,-5.6895,16.1733,-1.8666,4.3714,0.4607,-0.9151,2098,2019-08-07 16:53:30:031
1.2834,-23.166,3.5909,-7.3532,18.3688,2.4407,4.3714,0.4607,-0.9151,2104,2019-08-07 16:53:30:037
1.2834,-23.166,3.5909,-7.3532,18.3688,2.4407,4.8838,0.4681,-0.9737,2107,2019-08-07 16:53:30:040
1.2834,-23.166,3.5909,-7.3532,18.3688,2.4407,4.8838,0.4681,-0.9737,2113,2019-08-07 16:53:30:046
2.0919,-23.1804,0.9794,-8.1434,18.6204,5.2513,5.2694,0.8165,-0.9449,2118,2019-08-07 16:53:30:051
2.0919,-23.1804,0.9794,-8.1434,18.6204,5.2513,5.2694,0.8165,-0.9449,2123,2019-08-07 16:53:30:056
2.3312,-19.7289,-1.731,-8.1434,18.6204,5.2513,5.9064,1.8977,-0.6274,2128,2019-08-07 16:53:30:061
2.3312,-19.7289,-1.731,-8.1474,12.6843,9.5956,5.9064,1.8977,-0.6274,2134,2019-08-07 16:53:30:067
2.3312,-19.7289,-1.731,-8.1474,12.6843,9.5956,5.9064,1.8977,-0.6274,2137,2019-08-07 16:53:30:070
1.6183,-13.5277,-4.2199,-8.1474,12.6843,9.5956,6.308,3.5734,0.1246,2143,2019-08-07 16:53:30:076
1.6183,-13.5277,-4.2199,-7.8974,9.0223,11.2895,6.308,3.5734,0.1246,2148,2019-08-07 16:53:30:081
1.6183,-13.5277,-4.2199,-7.8974,9.0223,11.2895,5.9511,4.7462,0.8234,2153,2019-08-07 16:53:30:086
-0.2332,-8.7061,-4.6866,-7.8974,9.0223,11.2895,5.9511,4.7462,0.8234,2158,2019-08-07 16:53:30:091
-0.2332,-8.7061,-4.6866,-7.8974,9.0223,11.2895,5.393,5.6869,1.4796,2163,2019-08-07 16:53:30:096
-4.9457,-4.72,-3.0368,-3.2428,2.721,9.4146,5.393,5.6869,1.4796,2168,2019-08-07 16:53:30:101
-4.9457,-4.72,-3.0368,-3.2428,2.721,9.4146,4.8369,6.1407,2.4267,2173,2019-08-07 16:53:30:106
-4.9457,-4.72,-3.0368,-3.2428,2.721,9.4146,4.8369,6.1407,2.4267,2178,2019-08-07 16:53:30:111
-9.3711,-1.469,-1.4812,-3.2428,2.721,9.4146,4.3905,5.7614,3.2171,2182,2019-08-07 16:53:30:115
-9.3711,-1.469,-1.4812,2.644,-1.5638,6.3075,4.3905,5.7614,3.2171,2188,2019-08-07 16:53:30:121
-9.3711,-1.469,-1.4812,2.644,-1.5638,6.3075,4.3905,5.7614,3.2171,2193,2019-08-07 16:53:30:126
-12.39,1.4287,-0.4819,2.644,-1.5638,6.3075,3.9378,4.7089,3.819,2199,2019-08-07 16:53:30:132
-12.39,1.4287,-0.4819,2.644,-1.5638,6.3075,3.9378,4.7089,3.819,2203,2019-08-07 16:53:30:136
-14.6051,2.8943,-2.8859,5.8791,-3.3437,6.5669,3.2507,2.9033,4.1449,2207,2019-08-07 16:53:30:140
-14.6051,2.8943,-2.8859,5.8791,-3.3437,6.5669,3.2507,2.9033,4.1449,2213,2019-08-07 16:53:30:146
-14.4233,3.5483,-6.195,5.8791,-3.3437,6.5669,2.5348,1.2948,4.146,2218,2019-08-07 16:53:30:151
-14.4233,3.5483,-6.195,5.8791,-3.3437,6.5669,2.5348,1.2948,4.146,2223,2019-08-07 16:53:30:156
-14.4233,3.5483,-6.195,4.7661,-3.7254,11.734,1.8616,-0.2456,4.0128,2227,2019-08-07 16:53:30:160
-12.4426,4.2071,-7.3782,4.7661,-3.7254,11.734,1.8616,-0.2456,4.0128,2233,2019-08-07 16:53:30:166
-12.4426,4.2071,-7.3782,4.7661,-3.7254,11.734,1.8616,-0.2456,4.0128,2238,2019-08-07 16:53:30:171
-12.4426,4.2071,-7.3782,4.7661,-3.7254,11.734,1.4717,-2.4134,3.5793,2243,2019-08-07 16:53:30:176
-9.7922,4.6988,-7.6374,1.151,-3.7187,12.4642,1.4717,-2.4134,3.5793,2249,2019-08-07 16:53:30:182
-9.7922,4.6988,-7.6374,1.151,-3.7187,12.4642,1.7529,-3.044,3.0754,2253,2019-08-07 16:53:30:186
-10.2562,5.6297,-8.0947,1.151,-3.7187,12.4642,1.7529,-3.044,3.0754,2258,2019-08-07 16:53:30:191
-10.2562,5.6297,-8.0947,1.151,-3.7187,12.4642,2.2131,-2.7021,2.4096,2262,2019-08-07 16:53:30:195
-10.2562,5.6297,-8.0947,2.6821,-4.6024,13.3276,2.2131,-2.7021,2.4096,2269,2019-08-07 16:53:30:202
-10.883,7.1477,-8.5425,2.6821,-4.6024,13.3276,2.4038,-1.7572,1.4072,2273,2019-08-07 16:53:30:206
-10.883,7.1477,-8.5425,2.7461,-5.7506,14.8827,2.4038,-1.7572,1.4072,2278,2019-08-07 16:53:30:211
-10.1989,9.0047,-9.8812,2.7461,-5.7506,14.8827,2.0427,-1.0552,0.5326,2283,2019-08-07 16:53:30:216
-10.1989,9.0047,-9.8812,2.7461,-5.7506,14.8827,2.0427,-1.0552,0.5326,2288,2019-08-07 16:53:30:221
-10.1989,9.0047,-9.8812,2.7461,-5.7506,14.8827,2.0427,-1.0552,0.5326,2293,2019-08-07 16:53:30:226
-9.3329,9.7351,-8.3964,0.5825,-7.6509,13.4508,1.5761,-1.0733,-0.1417,2297,2019-08-07 16:53:30:230
-9.3329,9.7351,-8.3964,0.5825,-7.6509,13.4508,1.5761,-1.0733,-0.1417,2303,2019-08-07 16:53:30:236
-9.3329,9.7351,-8.3964,0.5825,-7.6509,13.4508,0.644,-1.8222,-1.5105,2308,2019-08-07 16:53:30:241
-6.3763,10.1266,-5.7896,0.5825,-7.6509,13.4508,0.644,-1.8222,-1.5105,2313,2019-08-07 16:53:30:246
-6.3763,10.1266,-5.7896,-1.621,-7.8482,11.0746,0.2658,-1.6667,-2.2956,2319,2019-08-07 16:53:30:252
-6.3763,10.1266,-5.7896,-1.621,-7.8482,11.0746,0.2658,-1.6667,-2.2956,2323,2019-08-07 16:53:30:256
-5.6634,10.1982,-6.0913,-1.621,-7.8482,11.0746,0.2541,0.3733,-2.8016,2328,2019-08-07 16:53:30:261
-5.6634,10.1982,-6.0913,-1.621,-7.8482,11.0746,0.2541,0.3733,-2.8016,2333,2019-08-07 16:53:30:266
-7.0365,8.9475,1.3895,-0.8255,-7.0396,4.1589,0.2541,0.3733,-2.8016,2338,2019-08-07 16:53:30:271
-7.0365,8.9475,1.3895,-0.8255,-7.0396,4.1589,1.036,0.1102,-3.0648,2343,2019-08-07 16:53:30:276
-7.0365,8.9475,1.3895,-0.8255,-7.0396,4.1589,1.036,0.1102,-3.0648,2347,2019-08-07 16:53:30:280
-6.759,9.8927,-1.1701,-0.8255,-7.0396,4.1589,1.0222,0.4532,-2.8581,2353,2019-08-07 16:53:30:286
-6.759,9.8927,-1.1701,-1.4251,-7.6274,4.1992,1.0222,0.4532,-2.8581,2358,2019-08-07 16:53:30:291
-6.759,9.8927,-1.1701,-1.4251,-7.6274,4.1992,1.0222,0.4532,-2.8581,2363,2019-08-07 16:53:30:296
-7.07,8.4462,2.6999,-1.4251,-7.6274,4.1992,0.5769,0.1475,-2.6834,2368,2019-08-07 16:53:30:301
-7.07,8.4462,2.6999,-1.4251,-7.6274,4.1992,0.5769,0.1475,-2.6834,2373,2019-08-07 16:53:30:306
-6.4385,8.2887,4.3451,-2.0982,-6.8737,0.6024,0.073,-0.5151,-2.4533,2378,2019-08-07 16:53:30:311
-6.4385,8.2887,4.3451,-2.0982,-6.8737,0.6024,0.073,-0.5151,-2.4533,2384,2019-08-07 16:53:30:317
-6.4385,8.2887,4.3451,-2.0982,-6.8737,0.6024,0.073,-0.5151,-2.4533,2387,2019-08-07 16:53:30:320
-3.3048,6.7992,4.7834,-2.0982,-6.8737,0.6024,0.122,-0.5854,-2.1199,2393,2019-08-07 16:53:30:326
-3.3048,6.7992,4.7834,-5.1359,-6.3168,2.6093,0.122,-0.5854,-2.1199,2398,2019-08-07 16:53:30:331
-3.3048,6.7992,4.7834,-5.1359,-6.3168,2.6093,0.0688,-0.2083,-1.7257,2404,2019-08-07 16:53:30:337
-2.7738,7.692,1.776,-5.1359,-6.3168,2.6093,0.0688,-0.2083,-1.7257,2408,2019-08-07 16:53:30:341
-2.7738,7.692,1.776,-5.1359,-6.3168,2.6093,-0.1997,0.1773,-1.2964,2413,2019-08-07 16:53:30:346
-2.7738,7.692,1.776,-5.1359,-6.3168,2.6093,-0.1997,0.1773,-1.2964,2418,2019-08-07 16:53:30:351
-2.6159,6.9234,1.8326,-5.4437,-6.2624,3.721,-0.1997,0.1773,-1.2964,2423,2019-08-07 16:53:30:356
-2.6159,6.9234,1.8326,-5.4437,-6.2624,3.721,-0.3552,0.6833,-0.9854,2428,2019-08-07 16:53:30:361
-2.6159,6.9234,1.8326,-5.4437,-6.2624,3.721,-0.3552,0.6833,-0.9854,2433,2019-08-07 16:53:30:366
-5.874,6.9234,3.671,-1.5215,-6.3597,2.1912,-0.1581,0.9241,-0.7127,2438,2019-08-07 16:53:30:371
-5.874,6.9234,3.671,-1.5215,-6.3597,2.1912,-0.1581,0.9241,-0.7127,2443,2019-08-07 16:53:30:376
-7.6011,6.7658,2.6386,-1.5215,-6.3597,2.1912,-0.1581,0.9241,-0.7127,2448,2019-08-07 16:53:30:381
-7.6011,6.7658,2.6386,-1.5215,-6.3597,2.1912,-0.1965,0.8804,-0.539,2453,2019-08-07 16:53:30:386
-7.6011,6.7658,2.6386,-1.5215,-6.3597,2.1912,-0.1965,0.8804,-0.539,2458,2019-08-07 16:53:30:391
-9.156,6.6513,2.7612,0.9066,-6.2483,2.5323,-0.3137,0.6652,-0.4133,2463,2019-08-07 16:53:30:396
-9.156,6.6513,2.7612,0.9066,-6.2483,2.5323,-0.3137,0.6652,-0.4133,2468,2019-08-07 16:53:30:401
-9.156,6.6513,2.7612,0.9066,-6.2483,2.5323,-0.3414,0.3456,-0.3015,2474,2019-08-07 16:53:30:407
-9.8258,5.6249,2.7706,0.9066,-6.2483,2.5323,-0.3414,0.3456,-0.3015,2478,2019-08-07 16:53:30:411
-9.8258,5.6249,2.7706,1.5481,-5.0821,2.4901,-0.3414,0.3456,-0.3015,2483,2019-08-07 16:53:30:416
-9.8258,5.6249,2.7706,1.5481,-5.0821,2.4901,-0.352,0.107,-0.4144,2487,2019-08-07 16:53:30:420
-9.7349,4.5651,1.578,1.5481,-5.0821,2.4901,-0.352,0.107,-0.4144,2493,2019-08-07 16:53:30:426
-9.7349,4.5651,1.578,1.1512,-4.2481,4.5927,-0.482,-0.171,-0.6285,2498,2019-08-07 16:53:30:431
-9.3617,4.6415,0.2393,1.1512,-4.2481,4.5927,-0.482,-0.171,-0.6285,2503,2019-08-07 16:53:30:436
-9.3617,4.6415,0.2393,1.1512,-4.2481,4.5927,-0.7558,-0.3393,-0.898,2508,2019-08-07 16:53:30:441
-9.3617,4.6415,0.2393,0.827,-4.5598,5.2729,-0.7558,-0.3393,-0.898,2513,2019-08-07 16:53:30:446
-8.7493,4.5699,-0.1896,0.827,-4.5598,5.2729,-0.9081,-0.2424,-1.0131,2519,2019-08-07 16:53:30:452
-8.7493,4.5699,-0.1896,0.827,-4.5598,5.2729,-0.9081,-0.2424,-1.0131,2522,2019-08-07 16:53:30:455
-8.7493,4.5699,-0.1896,0.827,-4.5598,5.2729,-0.9305,0.058,-1.0972,2528,2019-08-07 16:53:30:461
-8.1465,3.8204,0.2487,-0.1491,-3.9497,4.986,-0.9305,0.058,-1.0972,2533,2019-08-07 16:53:30:466
-8.1465,3.8204,0.2487,-0.1491,-3.9497,4.986,-0.857,0.4788,-1.2038,2538,2019-08-07 16:53:30:471
-8.1465,3.8204,0.2487,-0.1491,-3.9497,4.986,-0.857,0.4788,-1.2038,2542,2019-08-07 16:53:30:475
-8.247,3.2141,0.4939,-0.1491,-3.9497,4.986,-0.8314,0.8037,-1.3529,2548,2019-08-07 16:53:30:481
-8.247,3.2141,0.4939,0.5076,-3.4588,4.5745,-0.8314,0.8037,-1.3529,2553,2019-08-07 16:53:30:486
-9.5962,2.7797,0.7248,0.5076,-3.4588,4.5745,-0.8314,0.8037,-1.3529,2558,2019-08-07 16:53:30:491
-9.5962,2.7797,0.7248,0.5076,-3.4588,4.5745,-0.9592,0.9848,-1.5585,2562,2019-08-07 16:53:30:495
-9.5962,2.7797,0.7248,0.5076,-3.4588,4.5745,-0.9592,0.9848,-1.5585,2568,2019-08-07 16:53:30:501
-10.5243,1.9872,1.0642,2.0848,-2.747,3.8788,-1.201,0.841,-1.812,2574,2019-08-07 16:53:30:507
-10.5243,1.9872,1.0642,2.0848,-2.747,3.8788,-1.201,0.841,-1.812,2577,2019-08-07 16:53:30:510
-11.2085,1.4335,1.3423,2.7409,-2.4079,3.5144,-1.3757,0.6269,-1.9995,2584,2019-08-07 16:53:30:517
-11.2085,1.4335,1.3423,2.7409,-2.4079,3.5144,-1.3757,0.6269,-1.9995,2588,2019-08-07 16:53:30:521
-11.2085,1.4335,1.3423,2.7409,-2.4079,3.5144,-1.6953,0.1304,-2.3191,2593,2019-08-07 16:53:30:526
-12.1558,0.8177,1.0925,2.7409,-2.4079,3.5144,-1.6953,0.1304,-2.3191,2598,2019-08-07 16:53:30:531
-12.1558,0.8177,1.0925,3.789,-2.2308,3.8458,-1.6953,0.1304,-2.3191,2603,2019-08-07 16:53:30:536
-12.1558,0.8177,1.0925,3.789,-2.2308,3.8458,-2.0532,-0.6057,-2.6088,2608,2019-08-07 16:53:30:541
-12.2275,0.3307,0.9369,3.789,-2.2308,3.8458,-2.0532,-0.6057,-2.6088,2613,2019-08-07 16:53:30:546
-12.2275,0.3307,0.9369,3.789,-2.2308,3.8458,-2.3132,-1.101,-2.7495,2618,2019-08-07 16:53:30:551
-11.3903,-0.476,1.1491,3.3486,-1.8198,3.7338,-2.3132,-1.101,-2.7495,2623,2019-08-07 16:53:30:556
-11.3903,-0.476,1.1491,3.3486,-1.8198,3.7338,-2.8064,-1.8392,-2.8805,2628,2019-08-07 16:53:30:561
-11.3903,-0.476,1.1491,3.3486,-1.8198,3.7338,-2.8064,-1.8392,-2.8805,2634,2019-08-07 16:53:30:567
-10.132,-0.9391,1.7619,3.3486,-1.8198,3.7338,-3.2176,-2.3751,-2.906,2638,2019-08-07 16:53:30:571
-10.132,-0.9391,1.7619,1.4898,-1.7817,3.0122,-3.2176,-2.3751,-2.906,2643,2019-08-07 16:53:30:576
-8.4815,-1.4022,1.8137,1.4898,-1.7817,3.0122,-3.4498,-2.6467,-2.8805,2648,2019-08-07 16:53:30:581
-8.4815,-1.4022,1.8137,1.4898,-1.7817,3.0122,-3.4498,-2.6467,-2.8805,2653,2019-08-07 16:53:30:586
-8.4815,-1.4022,1.8137,1.4898,-1.7817,3.0122,-3.4498,-2.6467,-2.8805,2658,2019-08-07 16:53:30:591
-7.405,-2.2328,1.3895,-0.0773,-1.4897,3.748,-3.6874,-2.8587,-2.8091,2663,2019-08-07 16:53:30:596
-7.405,-2.2328,1.3895,-0.0773,-1.4897,3.748,-3.6874,-2.8587,-2.8091,2668,2019-08-07 16:53:30:601
-7.405,-2.2328,1.3895,-0.0773,-1.4897,3.748,-4.0091,-3.1101,-2.6291,2672,2019-08-07 16:53:30:605
-6.5726,-3.4263,1.7147,-0.0773,-1.4897,3.748,-4.0091,-3.1101,-2.6291,2678,2019-08-07 16:53:30:611
-6.5726,-3.4263,1.7147,-0.4958,-0.2628,2.7566,-4.1507,-3.2997,-2.4469,2683,2019-08-07 16:53:30:616
-6.6252,-4.7534,2.9686,-0.4958,-0.2628,2.7566,-4.1507,-3.2997,-2.4469,2688,2019-08-07 16:53:30:621
-6.6252,-4.7534,2.9686,-0.4958,-0.2628,2.7566,-4.1507,-3.2997,-2.4469,2692,2019-08-07 16:53:30:625
-7.3952,-5.9564,2.6717,-0.4958,-0.2628,2.7566,-4.139,-3.7247,-2.1337,2698,2019-08-07 16:53:30:631
-7.3952,-5.9564,2.6717,0.9825,0.8938,2.7581,-4.1369,-3.8473,-1.8014,2703,2019-08-07 16:53:30:636
-7.3952,-5.9564,2.6717,0.9825,0.8938,2.7581,-4.1369,-3.8473,-1.8014,2708,2019-08-07 16:53:30:641
-7.1129,-6.8014,2.1202,0.9825,0.8938,2.7581,-4.1369,-3.8473,-1.8014,2713,2019-08-07 16:53:30:646
-7.1129,-6.8014,2.1202,0.9825,0.8938,2.7581,-4.3116,-4.2094,-1.4424,2718,2019-08-07 16:53:30:651
-7.1129,-6.8014,2.1202,0.758,1.1909,3.5903,-4.3116,-4.2094,-1.4424,2722,2019-08-07 16:53:30:655
-5.9743,-7.2549,1.842,0.758,1.1909,3.5903,-4.5119,-4.643,-1.0791,2728,2019-08-07 16:53:30:661
-5.9743,-7.2549,1.842,0.758,1.1909,3.5903,-4.5119,-4.643,-1.0791,2733,2019-08-07 16:53:30:666
-5.9743,-7.2549,1.842,0.758,1.1909,3.5903,-4.6088,-5.0041,-0.7617,2738,2019-08-07 16:53:30:671
-4.4242,-7.5365,1.3989,-1.0525,1.043,4.0362,-4.6088,-5.0041,-0.7617,2744,2019-08-07 16:53:30:677
-4.4242,-7.5365,1.3989,-1.0525,1.043,4.0362,-4.6344,-5.2342,-0.474,2748,2019-08-07 16:53:30:681
-2.721,-8.2478,0.9511,-1.0525,1.043,4.0362,-4.6344,-5.2342,-0.474,2752,2019-08-07 16:53:30:685
-2.721,-8.2478,0.9511,-1.0525,1.043,4.0362,-4.6067,-5.3386,-0.1768,2758,2019-08-07 16:53:30:691
-1.6015,-9.4413,0.0696,-2.9004,2.3796,5.0393,-4.6067,-5.3386,-0.1768,2763,2019-08-07 16:53:30:696
-1.6015,-9.4413,0.0696,-2.9004,2.3796,5.0393,-4.4405,-5.1991,0.1832,2768,2019-08-07 16:53:30:701
-1.6015,-9.4413,0.0696,-2.9004,2.3796,5.0393,-4.4405,-5.1991,0.1832,2772,2019-08-07 16:53:30:705
-0.1949,-11.642,-0.1142,-2.9004,2.3796,5.0393,-4.1657,-4.8007,0.3718,2778,2019-08-07 16:53:30:711
-0.1949,-11.642,-0.1142,-4.3457,5.4357,4.5851,-4.1657,-4.8007,0.3718,2783,2019-08-07 16:53:30:716
-0.1949,-11.642,-0.1142,-4.3457,5.4357,4.5851,-4.1657,-4.8007,0.3718,2787,2019-08-07 16:53:30:720
0.5466,-14.0385,0.7956,-4.3457,5.4357,4.5851,-3.7662,-4.2872,0.5113,2794,2019-08-07 16:53:30:727
0.5466,-14.0385,0.7956,-4.3457,5.4357,4.5851,-3.7662,-4.2872,0.5113,2798,2019-08-07 16:53:30:731
0.9341,-15.0267,1.2717,-4.6057,7.1905,3.349,-3.4573,-3.8877,0.6221,2803,2019-08-07 16:53:30:736
0.9341,-15.0267,1.2717,-4.6057,7.1905,3.349,-3.4573,-3.8877,0.6221,2808,2019-08-07 16:53:30:741
0.9341,-15.0267,1.2717,-4.6057,7.1905,3.349,-3.1835,-3.565,0.7521,2813,2019-08-07 16:53:30:746
1.7474,-14.7498,1.5356,-4.6057,7.1905,3.349,-3.1835,-3.565,0.7521,2817,2019-08-07 16:53:30:750
1.7474,-14.7498,1.5356,-5.8751,5.9506,2.7837,-2.9193,-3.1772,0.8863,2823,2019-08-07 16:53:30:756
2.7282,-13.7759,1.5545,-5.8751,5.9506,2.7837,-2.9193,-3.1772,0.8863,2828,2019-08-07 16:53:30:761
2.7282,-13.7759,1.5545,-5.8751,5.9506,2.7837,-2.7382,-2.8139,0.9854,2833,2019-08-07 16:53:30:766
2.7282,-13.7759,1.5545,-5.8751,5.9506,2.7837,-2.7382,-2.8139,0.9854,2838,2019-08-07 16:53:30:771
4.5032,-13.1792,0.3195,-5.8751,5.9506,2.7837,-2.7382,-2.8139,0.9854,2843,2019-08-07 16:53:30:776
4.5032,-13.1792,0.3195,-8.0786,4.873,3.9365,-2.5273,-1.738,1.0919,2848,2019-08-07 16:53:30:781
4.7998,-13.3367,0.0791,-8.0786,4.873,3.9365,-2.5273,-1.738,1.0919,2853,2019-08-07 16:53:30:786
4.7998,-13.3367,0.0791,-8.0786,4.873,3.9365,-2.3547,-0.6717,0.9907,2858,2019-08-07 16:53:30:791
4.7998,-13.3367,0.0791,-6.8205,5.41,2.7854,-2.3547,-0.6717,0.9907,2863,2019-08-07 16:53:30:796
2.9626,-13.9573,1.3754,-6.8205,5.41,2.7854,-2.1204,-0.0549,0.882,2868,2019-08-07 16:53:30:801
2.9626,-13.9573,1.3754,-6.8205,5.41,2.7854,-2.1204,-0.0549,0.882,2873,2019-08-07 16:53:30:806
2.9626,-13.9573,1.3754,-6.8205,5.41,2.7854,-1.7944,0.1422,0.8075,2878,2019-08-07 16:53:30:811
0.5227,-14.3965,3.605,-6.8205,5.41,2.7854,-1.7944,0.1422,0.8075,2883,2019-08-07 16:53:30:816
0.5227,-14.3965,3.605,-3.1542,5.7031,-0.9078,-1.4354,-0.1071,0.7808,2888,2019-08-07 16:53:30:821
-1.6015,-13.7521,5.335,-3.1542,5.7031,-0.9078,-1.4354,-0.1071,0.7808,2894,2019-08-07 16:53:30:827
-1.6015,-13.7521,5.335,-3.1542,5.7031,-0.9078,-1.0625,-0.6216,0.7862,2898,2019-08-07 16:53:30:831
-1.6015,-13.7521,5.335,-3.1542,5.7031,-0.9078,-1.0625,-0.6216,0.7862,2903,2019-08-07 16:53:30:836
-2.4101,-12.3438,5.9525,-1.2645,3.8343,-2.7396,-0.7558,-1.216,0.8053,2908,2019-08-07 16:53:30:841
-2.4101,-12.3438,5.9525,-1.2645,3.8343,-2.7396,-0.7558,-1.216,0.8053,2913,2019-08-07 16:53:30:846
-1.6159,-11.0835,4.774,-1.2645,3.8343,-2.7396,-0.5587,-1.6699,0.7936,2917,2019-08-07 16:53:30:850
-1.6159,-11.0835,4.774,-1.2645,3.8343,-2.7396,-0.5587,-1.6699,0.7936,2923,2019-08-07 16:53:30:856
-1.6159,-11.0835,4.774,-2.7489,1.9828,-0.9335,-0.4479,-1.7551,0.7521,2928,2019-08-07 16:53:30:861
-0.5586,-10.2719,3.7276,-2.7489,1.9828,-0.9335,-0.4479,-1.7551,0.7521,2933,2019-08-07 16:53:30:866
-0.5586,-10.2719,3.7276,-2.7489,1.9828,-0.9335,-0.2668,-1.5101,0.7201,2938,2019-08-07 16:53:30:871
0.6375,-10.3245,2.7047,-2.7489,1.9828,-0.9335,-0.2668,-1.5101,0.7201,2943,2019-08-07 16:53:30:876
0.6375,-10.3245,2.7047,-4.4796,1.9517,0.6909,-0.1038,-1.0136,0.6402,2947,2019-08-07 16:53:30:880
0.6375,-10.3245,2.7047,-4.4796,1.9517,0.6909,-0.1038,-1.0136,0.6402,2953,2019-08-07 16:53:30:886
0.8384,-10.5297,2.172,-4.4796,1.9517,0.6909,0.0847,-0.3734,0.5092,2957,2019-08-07 16:53:30:890
0.8384,-10.5297,2.172,-4.4796,1.9517,0.6909,0.0847,-0.3734,0.5092,2963,2019-08-07 16:53:30:896
-0.0945,-10.1096,1.8137,-3.812,1.7651,1.4327,0.2712,0.2444,0.4133,2968,2019-08-07 16:53:30:901
-0.0945,-10.1096,1.8137,-3.812,1.7651,1.4327,0.2712,0.2444,0.4133,2972,2019-08-07 16:53:30:905
-0.0945,-10.1096,1.8137,-3.812,1.7651,1.4327,0.2712,0.2444,0.4133,2978,2019-08-07 16:53:30:911
-0.9892,-9.8805,1.8467,-3.812,1.7651,1.4327,0.4033,0.7036,0.376,2983,2019-08-07 16:53:30:916
-0.9892,-9.8805,1.8467,-1.7145,1.395,1.3846,0.4033,0.7036,0.376,2987,2019-08-07 16:53:30:920
-3.1995,-9.6561,2.7659,-1.7145,1.395,1.3846,0.4682,0.9123,0.3909,2993,2019-08-07 16:53:30:926
-3.1995,-9.6561,2.7659,-1.7145,1.395,1.3846,0.4682,0.9123,0.3909,2998,2019-08-07 16:53:30:931
-3.1995,-9.6561,2.7659,-1.7145,1.395,1.3846,0.5151,0.7813,0.4154,3003,2019-08-07 16:53:30:936
-4.7209,-9.4652,4.1565,0.7654,1.1377,-0.8034,0.5151,0.7813,0.4154,3007,2019-08-07 16:53:30:940
-4.7209,-9.4652,4.1565,0.7654,1.1377,-0.8034,0.5151,0.7813,0.4154,3013,2019-08-07 16:53:30:946
-5.3572,-9.1071,4.543,1.5062,0.6737,-1.1468,0.5417,0.2615,0.4517,3017,2019-08-07 16:53:30:950
-5.3572,-9.1071,4.543,1.5062,0.6737,-1.1468,0.5417,0.2615,0.4517,3023,2019-08-07 16:53:30:956
-5.3572,-9.1071,4.543,1.5062,0.6737,-1.1468,0.4416,-0.5108,0.4953,3028,2019-08-07 16:53:30:961
-5.2089,-8.3815,4.2178,1.5062,0.6737,-1.1468,0.4416,-0.5108,0.4953,3033,2019-08-07 16:53:30:966
-5.2089,-8.3815,4.2178,0.7213,0.052,-0.4552,0.3266,-0.8975,0.4943,3038,2019-08-07 16:53:30:971
-5.2089,-8.3815,4.2178,0.7213,0.052,-0.4552,0.3266,-0.8975,0.4943,3043,2019-08-07 16:53:30:976
-4.0128,-8.3099,3.6286,0.7213,0.052,-0.4552,0.3266,-0.8975,0.4943,3047,2019-08-07 16:53:30:980
-4.0128,-8.3099,3.6286,0.7213,0.052,-0.4552,0.2349,-1.0627,0.4666,3053,2019-08-07 16:53:30:986
-2.745,-8.582,2.8649,-1.3317,0.4243,0.7501,0.2349,-1.0627,0.4666,3058,2019-08-07 16:53:30:991
-2.745,-8.582,2.8649,-1.3317,0.4243,0.7501,0.1785,-0.986,0.4176,3063,2019-08-07 16:53:30:996
-1.8647,-8.7348,2.0919,-1.3317,0.4243,0.7501,0.1785,-0.986,0.4176,3068,2019-08-07 16:53:31:001
-1.8647,-8.7348,2.0919,-1.3317,0.4243,0.7501,0.1487,-0.627,0.3579,3073,2019-08-07 16:53:31:006
-1.8647,-8.7348,2.0919,-2.5889,0.6948,1.8892,0.1487,-0.627,0.3579,3078,2019-08-07 16:53:31:011
-1.4389,-8.7395,1.6723,-2.5889,0.6948,1.8892,0.1465,-0.1934,0.3036,3083,2019-08-07 16:53:31:016
-1.4389,-8.7395,1.6723,-2.5889,0.6948,1.8892,0.1465,-0.1934,0.3036,3087,2019-08-07 16:53:31:020
-1.4389,-8.7395,1.6723,-2.5889,0.6948,1.8892,0.1519,0.2934,0.245,3093,2019-08-07 16:53:31:026
-1.5777,-8.6584,1.5592,-2.4029,0.4904,2.0989,0.1519,0.2934,0.245,3097,2019-08-07 16:53:31:030
-1.5777,-8.6584,1.5592,-2.4029,0.4904,2.0989,0.1519,0.2934,0.245,3103,2019-08-07 16:53:31:036
-1.5777,-8.6584,1.5592,-2.4029,0.4904,2.0989,0.1572,0.842,0.1768,3108,2019-08-07 16:53:31:041
-2.5967,-8.4674,2.1484,-2.4029,0.4904,2.0989,0.1572,0.842,0.1768,3113,2019-08-07 16:53:31:046
-2.5967,-8.4674,2.1484,-0.9769,0.4236,1.0546,0.1465,1.1233,0.1353,3117,2019-08-07 16:53:31:050
-3.7688,-8.477,2.9969,-0.9769,0.4236,1.0546,0.1465,1.1233,0.1353,3123,2019-08-07 16:53:31:056
-3.7688,-8.477,2.9969,-0.9769,0.4236,1.0546,0.121,1.1978,0.1076,3129,2019-08-07 16:53:31:062
-3.7688,-8.477,2.9969,-0.9769,0.4236,1.0546,0.121,1.1978,0.1076,3133,2019-08-07 16:53:31:066
-4.7448,-8.3147,3.803,0.6622,0.2163,-0.3755,0.0954,1.004,0.0852,3138,2019-08-07 16:53:31:071
-4.7448,-8.3147,3.803,0.6622,0.2163,-0.3755,0.0954,1.004,0.0852,3143,2019-08-07 16:53:31:076
-5.4003,-8.0855,4.2319,0.6622,0.2163,-0.3755,0.0666,0.6791,0.0788,3148,2019-08-07 16:53:31:081
-5.4003,-8.0855,4.2319,0.6622,0.2163,-0.3755,0.0666,0.6791,0.0788,3153,2019-08-07 16:53:31:086
-5.4003,-8.0855,4.2319,0.6622,0.2163,-0.3755,0.0666,0.6791,0.0788,3157,2019-08-07 16:53:31:090
-5.3955,-7.9853,4.3356,1.0349,-0.0604,-0.8018,0.0219,0.2636,0.0756,3163,2019-08-07 16:53:31:096
-5.3955,-7.9853,4.3356,1.0349,-0.0604,-0.8018,0.0219,0.2636,0.0756,3168,2019-08-07 16:53:31:101
-4.4817,-8.0378,3.8784,1.0349,-0.0604,-0.8018,-0.0367,-0.2179,0.0735,3173,2019-08-07 16:53:31:106
-4.4817,-8.0378,3.8784,-0.313,0.0275,-0.2121,-0.0367,-0.2179,0.0735,3178,2019-08-07 16:53:31:111
-4.4817,-8.0378,3.8784,-0.313,0.0275,-0.2121,-0.0644,-0.4001,0.049,3182,2019-08-07 16:53:31:115
-3.5679,-8.1285,3.3316,-0.313,0.0275,-0.2121,-0.0644,-0.4001,0.049,3188,2019-08-07 16:53:31:121
-3.5679,-8.1285,3.3316,-0.313,0.0275,-0.2121,-0.0665,-0.3958,0.0266,3192,2019-08-07 16:53:31:125
-3.0129,-8.1524,2.8461,-1.3298,0.1093,0.7157,-0.0665,-0.3958,0.0266,3199,2019-08-07 16:53:31:132
-3.0129,-8.1524,2.8461,-1.3298,0.1093,0.7157,-0.058,-0.2733,0.0426,3204,2019-08-07 16:53:31:137
-3.0129,-8.1524,2.8461,-1.3298,0.1093,0.7157,-0.058,-0.2733,0.0426,3208,2019-08-07 16:53:31:141
-3.0129,-8.1524,2.8461,-1.3298,0.1093,0.7157,-0.0516,-0.0773,0.0533,3213,2019-08-07 16:53:31:146
-2.501,-8.3051,2.6434,-1.8312,0.3237,1.0373,-0.0516,-0.0773,0.0533,3217,2019-08-07 16:53:31:150
-2.501,-8.3051,2.6434,-1.8312,0.3237,1.0373,-0.009,0.2551,0.0277,3223,2019-08-07 16:53:31:156
-2.8838,-8.3815,2.6009,-1.8312,0.3237,1.0373,-0.009,0.2551,0.0277,3228,2019-08-07 16:53:31:161
-2.8838,-8.3815,2.6009,-1.8312,0.3237,1.0373,-0.009,0.2551,0.0277,3233,2019-08-07 16:53:31:166
-2.8838,-8.3815,2.6009,-0.4469,0.1591,0.5665,0.0262,0.4788,0.0032,3238,2019-08-07 16:53:31:171
-3.9076,-8.2096,2.9639,-0.4469,0.1591,0.5665,0.0262,0.4788,0.0032,3243,2019-08-07 16:53:31:176
-3.9076,-8.2096,2.9639,-0.4469,0.1591,0.5665,0.0432,0.5225,0.017,3247,2019-08-07 16:53:31:180
-3.9076,-8.2096,2.9639,-0.4469,0.1591,0.5665,0.0432,0.5225,0.017,3253,2019-08-07 16:53:31:186
-4.7114,-8.0903,3.539,-0.4469,0.1591,0.5665,0.0528,0.4692,0.0224,3257,2019-08-07 16:53:31:190
-4.7114,-8.0903,3.539,0.6054,-0.0314,-0.2098,0.0528,0.4692,0.0224,3263,2019-08-07 16:53:31:196
-5.0415,-7.9519,3.77,0.6054,-0.0314,-0.2098,0.0911,0.2008,-0.0032,3268,2019-08-07 16:53:31:201
-5.0415,-7.9519,3.77,0.6054,-0.0314,-0.2098,0.0911,0.2008,-0.0032,3272,2019-08-07 16:53:31:205
-5.0415,-7.9519,3.77,0.6054,-0.0314,-0.2098,0.1018,0.025,-0.0171,3278,2019-08-07 16:53:31:211
-4.8071,-7.8707,3.7087,0.3992,-0.1667,-0.2149,0.1018,0.025,-0.0171,3283,2019-08-07 16:53:31:216
-4.8071,-7.8707,3.7087,0.3992,-0.1667,-0.2149,0.1071,-0.1082,-0.0245,3288,2019-08-07 16:53:31:221
-4.3717,-7.9137,3.6945,0.3992,-0.1667,-0.2149,0.1071,-0.1082,-0.0245,3293,2019-08-07 16:53:31:226
-4.3717,-7.9137,3.6945,0.3992,-0.1667,-0.2149,0.1114,-0.1572,-0.0405,3298,2019-08-07 16:53:31:231
-4.3717,-7.9137,3.6945,-0.2541,-0.1514,-0.0926,0.1114,-0.1572,-0.0405,3303,2019-08-07 16:53:31:236
-4.0559,-7.8325,3.6898,-0.2541,-0.1514,-0.0926,0.1103,-0.155,-0.0437,3308,2019-08-07 16:53:31:241
-4.0559,-7.8325,3.6898,-0.2541,-0.1514,-0.0926,0.1103,-0.155,-0.0437,3312,2019-08-07 16:53:31:245
-3.5823,-7.8325,3.572,-0.2541,-0.1514,-0.0926,0.0965,-0.121,-0.0458,3318,2019-08-07 16:53:31:251
-3.5823,-7.8325,3.572,-0.8704,-0.1435,0.0854,0.0965,-0.121,-0.0458,3322,2019-08-07 16:53:31:255
-3.5823,-7.8325,3.572,-0.8704,-0.1435,0.0854,0.0784,-0.0134,-0.0714,3328,2019-08-07 16:53:31:261
-3.2043,-7.9757,3.2656,-0.8704,-0.1435,0.0854,0.0784,-0.0134,-0.0714,3333,2019-08-07 16:53:31:266
-3.2043,-7.9757,3.2656,-0.8704,-0.1435,0.0854,0.072,0.1358,-0.1023,3338,2019-08-07 16:53:31:271
-3.2043,-7.9757,3.2656,-0.9497,-0.1614,0.3802,0.072,0.1358,-0.1023,3344,2019-08-07 16:53:31:277
-3.5058,-7.8468,3.1807,-0.9497,-0.1614,0.3802,0.0688,0.2604,-0.0916,3348,2019-08-07 16:53:31:281
-3.5058,-7.8468,3.1807,-0.9497,-0.1614,0.3802,0.0688,0.2604,-0.0916,3353,2019-08-07 16:53:31:286
-3.7354,-7.8468,3.3222,-0.9497,-0.1614,0.3802,0.0741,0.2998,-0.0597,3358,2019-08-07 16:53:31:291
-3.7354,-7.8468,3.3222,-0.6069,-0.2038,0.1847,0.0741,0.2998,-0.0597,3363,2019-08-07 16:53:31:296
-3.7354,-7.8468,3.3222,-0.6069,-0.2038,0.1847,0.0741,0.2998,-0.0597,3368,2019-08-07 16:53:31:301
-3.9411,-7.7466,3.5296,-0.6069,-0.2038,0.1847,0.0911,0.2785,-0.0373,3372,2019-08-07 16:53:31:305
-3.9411,-7.7466,3.5296,-0.6069,-0.2038,0.1847,0.0911,0.2785,-0.0373,3378,2019-08-07 16:53:31:311
-3.9411,-7.7466,3.5296,-0.2699,-0.3781,-0.0512,0.0922,0.2423,-0.0213,3382,2019-08-07 16:53:31:315
-4.1421,-7.5938,3.6097,-0.2699,-0.3781,-0.0512,0.0922,0.2423,-0.0213,3388,2019-08-07 16:53:31:321
-4.1421,-7.5938,3.6097,-0.2699,-0.3781,-0.0512,0.073,0.1731,-0.0021,3393,2019-08-07 16:53:31:326
-4.1325,-7.632,3.6097,-0.2699,-0.3781,-0.0512,0.073,0.1731,-0.0021,3399,2019-08-07 16:53:31:332
-4.1325,-7.632,3.6097,-0.3062,-0.3677,-0.0631,0.0538,0.0836,0.0288,3403,2019-08-07 16:53:31:336
-4.1325,-7.632,3.6097,-0.3062,-0.3677,-0.0631,0.0538,0.0836,0.0288,3408,2019-08-07 16:53:31:341
-3.9842,-7.6941,3.5578,-0.3062,-0.3677,-0.0631,0.0538,0.0836,0.0288,3413,2019-08-07 16:53:31:346
-3.9842,-7.6941,3.5578,-0.3062,-0.3677,-0.0631,0.056,0.0495,0.0447,3418,2019-08-07 16:53:31:351
-3.9842,-7.6941,3.5578,-0.4166,-0.2745,0.1199,0.056,0.0495,0.0447,3422,2019-08-07 16:53:31:355
-3.9029,-7.8516,3.4211,-0.4166,-0.2745,0.1199,0.0624,0.0889,0.049,3428,2019-08-07 16:53:31:361
-3.9029,-7.8516,3.4211,-0.4166,-0.2745,0.1199,0.0624,0.0889,0.049,3433,2019-08-07 16:53:31:366
-3.9029,-7.8516,3.4211,-0.4166,-0.2745,0.1199,0.0453,0.1134,0.032,3438,2019-08-07 16:53:31:371
-4.1756,-7.8373,3.4211,-0.2331,-0.1769,0.1248,0.0453,0.1134,0.032,3443,2019-08-07 16:53:31:376
-4.1756,-7.8373,3.4211,-0.2331,-0.1769,0.1248,0.0315,0.0996,0.0149,3448,2019-08-07 16:53:31:381
-4.1756,-7.8373,3.4211,-0.2331,-0.1769,0.1248,0.0315,0.0996,0.0149,3453,2019-08-07 16:53:31:386
-4.1756,-7.8516,3.4306,-0.2331,-0.1769,0.1248,0.0315,0.0996,0.0149,3458,2019-08-07 16:53:31:391
-4.1756,-7.8516,3.4306,-0.288,-0.1268,0.1825,0.0251,0.074,-0.0107,3463,2019-08-07 16:53:31:396
-4.1708,-7.8182,3.2562,-0.288,-0.1268,0.1825,0.0251,0.074,-0.0107,3468,2019-08-07 16:53:31:401
-4.1708,-7.8182,3.2562,-0.288,-0.1268,0.1825,0.0219,0.0836,-0.0288,3472,2019-08-07 16:53:31:405
-4.1708,-7.8182,3.2562,-0.288,-0.1268,0.1825,0.0219,0.0836,-0.0288,3478,2019-08-07 16:53:31:411
-4.2569,-7.7609,3.3504,-0.1168,-0.2812,0.135,0.0123,0.0964,-0.0384,3483,2019-08-07 16:53:31:416
-4.2569,-7.7609,3.3504,-0.1168,-0.2812,0.135,0.0123,0.0964,-0.0384,3488,2019-08-07 16:53:31:421
-4.2569,-7.7609,3.3504,-0.1168,-0.2812,0.135,0.0048,0.0527,-0.0288,3493,2019-08-07 16:53:31:426
-4.3861,-7.6606,3.5248,-0.1168,-0.2812,0.135,0.0048,0.0527,-0.0288,3498,2019-08-07 16:53:31:431
-4.3861,-7.6606,3.5248,-0.0497,-0.3402,-0.0053,0.0038,0.0015,-0.0149,3502,2019-08-07 16:53:31:435
-4.3861,-7.6606,3.5248,-0.0497,-0.3402,-0.0053,0.0038,0.0015,-0.0149,3508,2019-08-07 16:53:31:441
-4.3957,-7.6511,3.5673,-0.0497,-0.3402,-0.0053,-0.0015,-0.0262,-0.0149,3512,2019-08-07 16:53:31:445
-4.3957,-7.6511,3.5673,-0.0497,-0.3402,-0.0053,-0.0015,-0.0262,-0.0149,3518,2019-08-07 16:53:31:451
-4.6014,-7.5652,3.6003,0.1876,-0.4504,-0.0639,-0.0015,-0.0262,-0.0149,3523,2019-08-07 16:53:31:456
-4.6014,-7.5652,3.6003,0.1876,-0.4504,-0.0639,-0.0143,-0.0997,-0.0053,3528,2019-08-07 16:53:31:461
-4.6014,-7.5652,3.6003,0.1876,-0.4504,-0.0639,-0.0143,-0.0997,-0.0053,3533,2019-08-07 16:53:31:466
-4.5583,-7.5461,3.6333,0.1876,-0.4504,-0.0639,-0.0133,-0.2147,0.0192,3538,2019-08-07 16:53:31:471
-4.5583,-7.5461,3.6333,0.0714,-0.4588,-0.1266,-0.0133,-0.2147,0.0192,3544,2019-08-07 16:53:31:477
-4.5583,-7.5461,3.6333,0.0714,-0.4588,-0.1266,-0.0133,-0.2147,0.0192,3548,2019-08-07 16:53:31:481
-4.3335,-7.5795,3.6521,0.0714,-0.4588,-0.1266,-0.0058,-0.2861,0.0426,3553,2019-08-07 16:53:31:486
-4.3335,-7.5795,3.6521,0.0714,-0.4588,-0.1266,-0.0058,-0.2861,0.0426,3558,2019-08-07 16:53:31:491
-4.0369,-7.4936,3.4541,-0.4223,-0.5357,0.22,0.0059,-0.2893,0.0469,3564,2019-08-07 16:53:31:497
-4.0369,-7.4936,3.4541,-0.4223,-0.5357,0.22,0.0059,-0.2893,0.0469,3567,2019-08-07 16:53:31:500
-3.8455,-7.4029,3.275,-0.4223,-0.5357,0.22,0.0038,-0.2562,0.0415,3573,2019-08-07 16:53:31:506
-3.8455,-7.4029,3.275,-0.4223,-0.5357,0.22,0.0038,-0.1913,0.0522,3578,2019-08-07 16:53:31:511
-3.8455,-7.4029,3.275,-0.4223,-0.5357,0.22,0.0038,-0.1913,0.0522,3583,2019-08-07 16:53:31:516
-3.702,-7.4888,3.2514,-0.6178,-0.5367,0.3541,0.0134,-0.105,0.0714,3588,2019-08-07 16:53:31:521
-3.702,-7.4888,3.2514,-0.6178,-0.5367,0.3541,0.0134,-0.105,0.0714,3593,2019-08-07 16:53:31:526
-3.702,-7.6081,3.1807,-0.6178,-0.5367,0.3541,0.0272,0.0165,0.0778,3598,2019-08-07 16:53:31:531
-3.5871,-7.6081,3.1807,-0.6178,-0.5367,0.3541,0.0272,0.0165,0.0778,3602,2019-08-07 16:53:31:535
-3.5871,-7.6081,3.1807,-0.7041,-0.3825,0.442,0.0272,0.0165,0.0778,3608,2019-08-07 16:53:31:541
-3.8455,-7.5795,3.3033,-0.7041,-0.3825,0.442,0.0368,0.1379,0.0767,3613,2019-08-07 16:53:31:546
-3.8455,-7.5795,3.3033,-0.7041,-0.3825,0.442,0.0368,0.1379,0.0767,3618,2019-08-07 16:53:31:551
-3.8455,-7.5795,3.3033,-0.7041,-0.3825,0.442,0.0453,0.1912,0.0895,3622,2019-08-07 16:53:31:555
-4.1038,-7.5413,3.5343,-0.3067,-0.4492,0.0622,0.0453,0.1912,0.0895,3628,2019-08-07 16:53:31:561
-4.1038,-7.5413,3.5343,-0.3067,-0.4492,0.0622,0.0475,0.1826,0.0991,3633,2019-08-07 16:53:31:566
-4.2522,-7.5365,3.6333,-0.3067,-0.4492,0.0622,0.0475,0.1826,0.0991,3638,2019-08-07 16:53:31:571
-4.2522,-7.5365,3.6333,-0.3067,-0.4492,0.0622,0.0496,0.1432,0.114,3644,2019-08-07 16:53:31:577
-4.2522,-7.5365,3.6333,-0.2351,-0.4358,-0.0191,0.0496,0.1432,0.114,3648,2019-08-07 16:53:31:581
-4.2091,-7.5556,3.6474,-0.2351,-0.4358,-0.0191,0.0453,0.107,0.1289,3653,2019-08-07 16:53:31:586
-4.2091,-7.5556,3.6474,-0.2351,-0.4358,-0.0191,0.0453,0.107,0.1289,3658,2019-08-07 16:53:31:591
-4.2713,-7.5174,3.4777,-0.2351,-0.4358,-0.0191,0.0336,0.0612,0.1459,3663,2019-08-07 16:53:31:596
-4.2713,-7.5174,3.4777,-0.2205,-0.4584,0.1124,0.0336,0.0612,0.1459,3668,2019-08-07 16:53:31:601
-4.2713,-7.5174,3.4777,-0.2205,-0.4584,0.1124,0.024,0.0442,0.164,3672,2019-08-07 16:53:31:605
-4.3335,-7.5795,3.5531,-0.2205,-0.4584,0.1124,0.024,0.0442,0.164,3678,2019-08-07 16:53:31:611
-4.3335,-7.5795,3.5531,-0.2205,-0.4584,0.1124,0.0155,0.0218,0.1651,3683,2019-08-07 16:53:31:616
-4.4962,-7.6559,3.539,-0.03,-0.3316,0.0188,0.0155,0.0218,0.1651,3687,2019-08-07 16:53:31:620
-4.4962,-7.6559,3.539,-0.03,-0.3316,0.0188,0.0017,0.0069,0.1683,3693,2019-08-07 16:53:31:626
-4.4962,-7.6559,3.539,-0.03,-0.3316,0.0188,0.0017,0.0069,0.1683,3698,2019-08-07 16:53:31:631
-4.3523,-7.7323,3.4353,-0.03,-0.3316,0.0188,-0.0143,-0.0091,0.1577,3703,2019-08-07 16:53:31:636
-4.3523,-7.7323,3.4353,-0.1961,-0.1734,0.1594,-0.0143,-0.0091,0.1577,3708,2019-08-07 16:53:31:641
-4.3523,-7.7323,3.4353,-0.1961,-0.1734,0.1594,-0.0143,-0.0091,0.1577,3712,2019-08-07 16:53:31:645
-4.2948,-7.78,3.3081,-0.1961,-0.1734,0.1594,-0.0207,0.0154,0.1385,3718,2019-08-07 16:53:31:651
-4.2948,-7.78,3.3081,-0.1961,-0.1734,0.1594,-0.0207,0.0154,0.1385,3723,2019-08-07 16:53:31:656
-4.3283,-7.7848,3.3175,-0.2198,-0.1343,0.2656,-0.0292,0.0761,0.1268,3727,2019-08-07 16:53:31:660
-4.3283,-7.7848,3.3175,-0.2198,-0.1343,0.2656,-0.0292,0.0761,0.1268,3734,2019-08-07 16:53:31:667
-4.3283,-7.7848,3.3175,-0.2198,-0.1343,0.2656,-0.0378,0.0889,0.1182,3737,2019-08-07 16:53:31:670
-4.4384,-7.7848,3.4589,-0.2198,-0.1343,0.2656,-0.0378,0.0889,0.1182,3743,2019-08-07 16:53:31:676
-4.4384,-7.7848,3.4589,-0.2209,-0.1122,0.1378,-0.042,0.0793,0.1108,3748,2019-08-07 16:53:31:681
-4.3523,-7.8087,3.4589,-0.2209,-0.1122,0.1378,-0.042,0.0793,0.1108,3753,2019-08-07 16:53:31:686
-4.3523,-7.8087,3.4589,-0.2209,-0.1122,0.1378,-0.0399,0.0708,0.1012,3758,2019-08-07 16:53:31:691
-4.3283,-7.78,3.3599,-0.2209,-0.1122,0.1378,-0.0399,0.0708,0.1012,3764,2019-08-07 16:53:31:697
-4.3283,-7.78,3.3599,-0.2468,-0.111,0.1946,-0.0388,0.0804,0.0991,3767,2019-08-07 16:53:31:700
-4.3283,-7.78,3.3599,-0.2468,-0.111,0.1946,-0.0388,0.0804,0.0991,3773,2019-08-07 16:53:31:706
-4.424,-7.7514,3.4118,-0.2468,-0.111,0.1946,-0.0388,0.0772,0.1023,3778,2019-08-07 16:53:31:711
-4.424,-7.7514,3.4118,-0.2468,-0.111,0.1946,-0.0388,0.0772,0.1023,3783,2019-08-07 16:53:31:716
-4.424,-7.7514,3.4118,-0.0432,-0.119,0.0631,-0.0388,0.0772,0.1023,3788,2019-08-07 16:53:31:721
-4.5723,-7.7514,3.5391,-0.0432,-0.119,0.0631,-0.0378,0.0292,0.1044,3793,2019-08-07 16:53:31:726
-4.5723,-7.7514,3.5391,-0.0432,-0.119,0.0631,-0.0378,0.0292,0.1044,3799,2019-08-07 16:53:31:732
-4.5723,-7.7514,3.5391,-0.0432,-0.119,0.0631,-0.0314,-0.0208,0.098,3804,2019-08-07 16:53:31:737
-4.491,-7.7705,3.3694,-0.1407,-0.1214,0.1664,-0.0314,-0.0208,0.098,3808,2019-08-07 16:53:31:741
-4.491,-7.7705,3.3694,-0.1407,-0.1214,0.1664,-0.0207,-0.0592,0.0959,3813,2019-08-07 16:53:31:746
-4.491,-7.7705,3.3694,-0.1407,-0.1214,0.1664,-0.0207,-0.0592,0.0959,3817,2019-08-07 16:53:31:750
-4.2805,-7.7657,3.2091,-0.1407,-0.1214,0.1664,-0.0154,-0.0602,0.0937,3823,2019-08-07 16:53:31:756
-4.2805,-7.7657,3.2091,-0.395,-0.0526,0.3754,-0.0154,-0.0602,0.0937,3828,2019-08-07 16:53:31:761
-4.2805,-7.7657,3.2091,-0.395,-0.0526,0.3754,-0.0058,-0.0336,0.0895,3833,2019-08-07 16:53:31:766
-4.2087,-7.7657,3.1572,-0.395,-0.0526,0.3754,-0.0058,-0.0336,0.0895,3838,2019-08-07 16:53:31:771
-4.2087,-7.7657,3.1572,-0.395,-0.0526,0.3754,0.0102,0.0378,0.0788,3843,2019-08-07 16:53:31:776
-4.2374,-7.718,3.3882,-0.4168,-0.1604,0.1482,0.0102,0.0378,0.0788,3849,2019-08-07 16:53:31:782
-4.2374,-7.718,3.3882,-0.4168,-0.1604,0.1482,0.023,0.0729,0.0692,3852,2019-08-07 16:53:31:785
-4.2374,-7.718,3.3882,-0.4168,-0.1604,0.1482,0.023,0.0729,0.0692,3858,2019-08-07 16:53:31:791
-4.2374,-7.718,3.3882,-0.4168,-0.1604,0.1482,0.023,0.0729,0.0692,3863,2019-08-07 16:53:31:796
-4.4049,-7.6702,3.3269,-0.3125,-0.2105,0.1769,0.0219,0.0814,0.0628,3868,2019-08-07 16:53:31:801
-4.4049,-7.6702,3.3269,-0.3125,-0.2105,0.1769,0.0219,0.0814,0.0628,3873,2019-08-07 16:53:31:806
-4.3474,-7.6702,3.4118,-0.3125,-0.2105,0.1769,0.023,0.058,0.0501,3878,2019-08-07 16:53:31:811
-4.3474,-7.6702,3.4118,-0.3125,-0.2105,0.1769,0.023,0.058,0.0501,3883,2019-08-07 16:53:31:816
-4.4383,-7.7323,3.3364,-0.2427,-0.1331,0.1935,0.0198,0.0474,0.0522,3888,2019-08-07 16:53:31:821
-4.4383,-7.7323,3.3364,-0.2427,-0.1331,0.1935,0.0198,0.0474,0.0522,3893,2019-08-07 16:53:31:826
-4.4383,-7.7323,3.3364,-0.2427,-0.1331,0.1935,0.0187,0.0495,0.049,3899,2019-08-07 16:53:31:832
-4.5101,-7.6655,3.4825,-0.2427,-0.1331,0.1935,0.0187,0.0495,0.049,3902,2019-08-07 16:53:31:835
-4.5101,-7.6655,3.4825,-0.2427,-0.1331,0.1935,0.0187,0.0495,0.049,3908,2019-08-07 16:53:31:841
-4.4527,-7.6655,3.4401,-0.2151,-0.2704,0.0038,0.0059,0.0111,0.0554,3913,2019-08-07 16:53:31:846
-4.4527,-7.6655,3.4401,-0.2151,-0.2704,0.0038,0.0059,0.0111,0.0554,3918,2019-08-07 16:53:31:851
-4.4527,-7.6655,3.4401,-0.2151,-0.2704,0.0038,0.007,-0.0272,0.0543,3923,2019-08-07 16:53:31:856
-4.3522,-7.6702,3.3929,-0.3652,-0.1651,0.1666,0.007,-0.0272,0.0543,3928,2019-08-07 16:53:31:861
-4.3522,-7.6702,3.3929,-0.3652,-0.1651,0.1666,0.0123,-0.023,0.0543,3933,2019-08-07 16:53:31:866
-4.29,-7.7705,3.3505,-0.3652,-0.1651,0.1666,0.0123,-0.023,0.0543,3938,2019-08-07 16:53:31:871
-4.29,-7.7705,3.3505,-0.3652,-0.1651,0.1666,0.0112,0.0069,0.0458,3943,2019-08-07 16:53:31:876
-4.29,-7.7705,3.3505,-0.3666,-0.1559,0.286,0.0112,0.0069,0.0458,3948,2019-08-07 16:53:31:881
-4.3618,-7.6893,3.2751,-0.3666,-0.1559,0.286,0.0112,0.0069,0.0458,3953,2019-08-07 16:53:31:886
-4.3618,-7.6893,3.2751,-0.3666,-0.1559,0.286,0.0144,0.0495,0.0447,3958,2019-08-07 16:53:31:891
-4.3618,-7.6893,3.2751,-0.3666,-0.1559,0.286,0.0144,0.0495,0.0447,3963,2019-08-07 16:53:31:896
-4.4766,-7.6511,3.3741,-0.3666,-0.1559,0.286,0.0112,0.0782,0.0405,3967,2019-08-07 16:53:31:900
-4.4766,-7.6511,3.3741,-0.2384,-0.1945,0.1168,0.0112,0.0782,0.0405,3973,2019-08-07 16:53:31:906
-4.4479,-7.6511,3.4024,-0.2384,-0.1945,0.1168,0.0123,0.0836,0.033,3978,2019-08-07 16:53:31:911
-4.4479,-7.6511,3.4024,-0.2384,-0.1945,0.1168,0.0123,0.0836,0.033,3982,2019-08-07 16:53:31:915
-4.4479,-7.6511,3.4024,-0.2384,-0.1945,0.1168,0.0166,0.09,0.0288,3988,2019-08-07 16:53:31:921
-4.4957,-7.6655,3.3222,-0.2298,-0.1765,0.2003,0.0166,0.09,0.0288,3993,2019-08-07 16:53:31:926
-4.4957,-7.6655,3.3222,-0.2298,-0.1765,0.2003,0.0166,0.0857,0.0298,3998,2019-08-07 16:53:31:931
-4.5388,-7.6798,3.3175,-0.2298,-0.1765,0.2003,0.0166,0.0857,0.0298,4003,2019-08-07 16:53:31:936
-4.5388,-7.6798,3.3175,-0.2298,-0.1765,0.2003,0.0251,0.0761,0.0309,4008,2019-08-07 16:53:31:941
-4.5388,-7.6798,3.3175,-0.1493,-0.1918,-0.0314,0.0251,0.0761,0.0309,4013,2019-08-07 16:53:31:946
-4.5914,-7.6607,3.4825,-0.1493,-0.1918,-0.0314,0.0325,0.042,0.0351,4018,2019-08-07 16:53:31:951
-4.5914,-7.6607,3.4825,-0.1493,-0.1918,-0.0314,0.0325,0.042,0.0351,4023,2019-08-07 16:53:31:956
-4.4288,-7.5652,3.5485,-0.1493,-0.1918,-0.0314,0.0315,0.0026,0.0362,4028,2019-08-07 16:53:31:961
-4.4288,-7.5652,3.5485,-0.2954,-0.2867,0.0555,0.0315,0.0026,0.0362,4032,2019-08-07 16:53:31:965
-4.4288,-7.5652,3.5485,-0.2954,-0.2867,0.0555,0.0293,-0.0251,0.0394,4038,2019-08-07 16:53:31:971
-4.29,-7.5318,3.3552,-0.2954,-0.2867,0.0555,0.0293,-0.0251,0.0394,4044,2019-08-07 16:53:31:977
-4.29,-7.5318,3.3552,-0.2954,-0.2867,0.0555,0.0293,-0.0251,0.0394,4048,2019-08-07 16:53:31:981
-4.2517,-7.5557,3.3505,-0.5566,-0.3206,0.1933,0.0304,-0.0208,0.0522,4053,2019-08-07 16:53:31:986
-4.2517,-7.5557,3.3505,-0.5566,-0.3206,0.1933,0.0304,-0.0208,0.0522,4059,2019-08-07 16:53:31:992
-4.2517,-7.5557,3.3505,-0.5566,-0.3206,0.1933,0.0368,0.025,0.0618,4063,2019-08-07 16:53:31:996
-4.2661,-7.5222,3.3269,-0.5566,-0.3206,0.1933,0.0368,0.025,0.0618,4068,2019-08-07 16:53:32:001
-4.2661,-7.5222,3.3269,-0.4323,-0.3886,0.1894,0.0379,0.042,0.065,4072,2019-08-07 16:53:32:005
-4.3522,-7.527,3.3317,-0.4323,-0.3886,0.1894,0.0379,0.042,0.065,4078,2019-08-07 16:53:32:011
-4.3522,-7.527,3.3317,-0.4323,-0.3886,0.1894,0.0293,0.0378,0.0714,4083,2019-08-07 16:53:32:016
-4.3522,-7.527,3.3317,-0.4323,-0.3886,0.1894,0.0293,0.0378,0.0714,4088,2019-08-07 16:53:32:021
-4.2996,-7.5795,3.2138,-0.4688,-0.2325,0.3177,0.0304,0.0388,0.0767,4093,2019-08-07 16:53:32:026
-4.2996,-7.5795,3.2138,-0.4688,-0.2325,0.3177,0.0304,0.0388,0.0767,4097,2019-08-07 16:53:32:030
-4.2852,-7.5795,3.1855,-0.4688,-0.2325,0.3177,0.0443,0.0719,0.082,4103,2019-08-07 16:53:32:036
-4.2852,-7.5795,3.1855,-0.4688,-0.2325,0.3177,0.0443,0.0719,0.082,4108,2019-08-07 16:53:32:041
-4.2852,-7.5795,3.1855,-0.4935,-0.2187,0.4255,0.0507,0.1187,0.0788,4113,2019-08-07 16:53:32:046
-4.3139,-7.5461,3.1195,-0.4935,-0.2187,0.4255,0.0507,0.1187,0.0788,4118,2019-08-07 16:53:32:051
-4.3139,-7.5461,3.1195,-0.4935,-0.2187,0.4255,0.0507,0.1187,0.0788,4123,2019-08-07 16:53:32:056
-4.3139,-7.5461,3.1195,-0.4935,-0.2187,0.4255,0.0549,0.1752,0.0682,4127,2019-08-07 16:53:32:060
-4.4479,-7.5939,3.1761,-0.3187,-0.1186,0.4926,0.0549,0.1752,0.0682,4133,2019-08-07 16:53:32:066
-4.4479,-7.5939,3.1761,-0.3187,-0.1186,0.4926,0.0538,0.2178,0.0522,4137,2019-08-07 16:53:32:070
-4.5914,-7.6368,3.2044,-0.3187,-0.1186,0.4926,0.0538,0.2178,0.0522,4143,2019-08-07 16:53:32:076
-4.5914,-7.6368,3.2044,-0.3187,-0.1186,0.4926,0.0592,0.2455,0.0415,4148,2019-08-07 16:53:32:081
-4.5914,-7.6368,3.2044,-0.1894,-0.1684,0.2976,0.0592,0.2455,0.0415,4153,2019-08-07 16:53:32:086
-4.6536,-7.6177,3.2232,-0.1894,-0.1684,0.2976,0.0677,0.2743,0.0351,4158,2019-08-07 16:53:32:091
-4.6536,-7.6177,3.2232,-0.1894,-0.1684,0.2976,0.0698,0.2657,0.0266,4163,2019-08-07 16:53:32:096
-4.8258,-7.6846,3.261,-0.1894,-0.1684,0.2976,0.0698,0.2657,0.0266,4168,2019-08-07 16:53:32:101
-4.8258,-7.6846,3.261,0.0641,-0.1181,0.1441,0.0698,0.2657,0.0266,4172,2019-08-07 16:53:32:105
-4.8258,-7.6846,3.261,0.0641,-0.1181,0.1441,0.0656,0.2103,0.016,4178,2019-08-07 16:53:32:111
-4.9741,-7.57,3.4731,0.0641,-0.1181,0.1441,0.0656,0.2103,0.016,4183,2019-08-07 16:53:32:116
-4.9741,-7.57,3.4731,0.0641,-0.1181,0.1441,0.0602,0.1294,0.017,4187,2019-08-07 16:53:32:120
-4.9502,-7.5366,3.5155,0.081,-0.2353,-0.0333,0.0602,0.1294,0.017,4193,2019-08-07 16:53:32:126
-4.9502,-7.5366,3.5155,0.081,-0.2353,-0.0333,0.0592,0.0527,0.0192,4199,2019-08-07 16:53:32:132
-4.9502,-7.5366,3.5155,0.081,-0.2353,-0.0333,0.0592,0.0527,0.0192,4203,2019-08-07 16:53:32:136
-4.6536,-7.5843,3.3694,0.081,-0.2353,-0.0333,0.057,0.0218,0.0181,4207,2019-08-07 16:53:32:140
-4.6536,-7.5843,3.3694,-0.3648,-0.1483,0.1367,0.057,0.0218,0.0181,4213,2019-08-07 16:53:32:146
-4.5101,-7.5748,3.1997,-0.3648,-0.1483,0.1367,0.0592,0.0303,0.0138,4218,2019-08-07 16:53:32:151
-4.5101,-7.5748,3.1997,-0.3648,-0.1483,0.1367,0.0592,0.0303,0.0138,4223,2019-08-07 16:53:32:156
-4.5101,-7.5748,3.1997,-0.3648,-0.1483,0.1367,0.0602,0.0687,0.0149,4228,2019-08-07 16:53:32:161
-4.4096,-7.6416,3.2044,-0.5028,-0.1297,0.2963,0.0602,0.0687,0.0149,4232,2019-08-07 16:53:32:165
-4.4096,-7.6416,3.2044,-0.5028,-0.1297,0.2963,0.0688,0.1198,0.0106,4238,2019-08-07 16:53:32:171
-4.4766,-7.5939,3.162,-0.5028,-0.1297,0.2963,0.0688,0.1198,0.0106,4244,2019-08-07 16:53:32:177
-4.4766,-7.5939,3.162,-0.5028,-0.1297,0.2963,0.073,0.1688,0.0021,4247,2019-08-07 16:53:32:180
-4.4766,-7.5939,3.162,-0.3497,-0.2397,0.1799,0.073,0.1688,0.0021,4253,2019-08-07 16:53:32:186
-4.5914,-7.5318,3.3222,-0.3497,-0.2397,0.1799,0.0762,0.1848,0.0011,4258,2019-08-07 16:53:32:191
-4.5914,-7.5318,3.3222,-0.3497,-0.2397,0.1799,0.0762,0.1848,0.0011,4263,2019-08-07 16:53:32:196
-4.7301,-7.5032,3.4589,-0.3497,-0.2397,0.1799,0.0752,0.1794,-0.0032,4268,2019-08-07 16:53:32:201
-4.7301,-7.5032,3.4589,-0.1898,-0.2679,-0.024,0.0752,0.1794,-0.0032,4273,2019-08-07 16:53:32:206
-4.7301,-7.5032,3.4589,-0.1898,-0.2679,-0.024,0.0752,0.1794,-0.0032,4277,2019-08-07 16:53:32:210
-4.7875,-7.4745,3.5438,-0.1898,-0.2679,-0.024,0.0741,0.1581,-0.0075,4283,2019-08-07 16:53:32:216
-4.7875,-7.4745,3.5438,-0.1898,-0.2679,-0.024,0.0741,0.1581,-0.0075,4288,2019-08-07 16:53:32:221
-4.7827,-7.4602,3.4919,-0.1898,-0.2679,-0.024,0.0656,0.1102,-0.0053,4292,2019-08-07 16:53:32:225
-4.7827,-7.4602,3.4919,-0.1372,-0.2772,-0.0358,0.0656,0.1102,-0.0053,4298,2019-08-07 16:53:32:231
-4.7827,-7.4602,3.4919,-0.1372,-0.2772,-0.0358,0.0656,0.1102,-0.0053,4303,2019-08-07 16:53:32:236
-4.7349,-7.4936,3.4307,-0.1372,-0.2772,-0.0358,0.057,0.0825,-0.0011,4309,2019-08-07 16:53:32:242
-4.7349,-7.4936,3.4307,-0.2007,-0.2015,0.0592,0.056,0.0846,-0.0021,4314,2019-08-07 16:53:32:247
-4.7492,-7.4602,3.4589,-0.2007,-0.2015,0.0592,0.056,0.0846,-0.0021,4319,2019-08-07 16:53:32:252
-4.7492,-7.4602,3.4589,-0.2007,-0.2015,0.0592,0.056,0.0846,-0.0021,4323,2019-08-07 16:53:32:256
-4.7492,-7.4602,3.4589,-0.2007,-0.2015,0.0592,0.0507,0.0825,0.0,4328,2019-08-07 16:53:32:261
-4.6727,-7.5079,3.4401,-0.2007,-0.2015,0.0592,0.0507,0.0825,0.0,4333,2019-08-07 16:53:32:266
-4.6727,-7.5079,3.4401,-0.2777,-0.2983,0.0547,0.0496,0.0868,0.0011,4338,2019-08-07 16:53:32:271
-4.6057,-7.4697,3.294,-0.2777,-0.2983,0.0547,0.0496,0.0868,0.0011,4344,2019-08-07 16:53:32:277
-4.6057,-7.4697,3.294,-0.2777,-0.2983,0.0547,0.0496,0.1059,-0.0032,4348,2019-08-07 16:53:32:281
-4.6057,-7.4697,3.294,-0.2777,-0.2983,0.0547,0.0496,0.1059,-0.0032,4352,2019-08-07 16:53:32:285
-4.577,-7.5079,3.2657,-0.3503,-0.2291,0.2124,0.0496,0.14,-0.0043,4358,2019-08-07 16:53:32:291
-4.577,-7.5079,3.2657,-0.3503,-0.2291,0.2124,0.0496,0.14,-0.0043,4362,2019-08-07 16:53:32:295
-4.6392,-7.527,3.3128,-0.3503,-0.2291,0.2124,0.0432,0.1571,-0.0053,4368,2019-08-07 16:53:32:301
-4.6392,-7.527,3.3128,-0.3503,-0.2291,0.2124,0.0432,0.1571,-0.0053,4373,2019-08-07 16:53:32:306
-4.6392,-7.527,3.3128,-0.2063,-0.2555,0.0629,0.0517,0.1624,-0.0043,4378,2019-08-07 16:53:32:311
-4.7971,-7.4841,3.4259,-0.2063,-0.2555,0.0629,0.0517,0.1624,-0.0043,4382,2019-08-07 16:53:32:315
-4.7971,-7.4841,3.4259,-0.2063,-0.2555,0.0629,0.0517,0.1624,-0.0043,4388,2019-08-07 16:53:32:321
-4.888,-7.4841,3.4259,-0.2063,-0.2555,0.0629,0.0528,0.1145,0.0064,4392,2019-08-07 16:53:32:325
-4.888,-7.4841,3.4259,-0.0206,-0.2467,0.0382,0.0528,0.1145,0.0064,4399,2019-08-07 16:53:32:332
-4.888,-7.4841,3.4259,-0.0206,-0.2467,0.0382,0.0507,0.0559,0.0117,4402,2019-08-07 16:53:32:335
-4.8641,-7.4316,3.5014,-0.0206,-0.2467,0.0382,0.0507,0.0559,0.0117,4408,2019-08-07 16:53:32:341
-4.8641,-7.4316,3.5014,-0.0206,-0.2467,0.0382,0.0549,0.009,0.0138,4414,2019-08-07 16:53:32:347
-4.7205,-7.4459,3.3882,-0.217,-0.2557,0.057,0.0549,0.009,0.0138,4418,2019-08-07 16:53:32:351
-4.7205,-7.4459,3.3882,-0.217,-0.2557,0.057,0.0613,-0.008,0.0128,4422,2019-08-07 16:53:32:355
-4.7205,-7.4459,3.3882,-0.217,-0.2557,0.057,0.0613,-0.008,0.0128,4428,2019-08-07 16:53:32:361
-4.5483,-7.4841,3.1903,-0.217,-0.2557,0.057,0.0613,0.0154,0.0138,4432,2019-08-07 16:53:32:365
-4.5483,-7.4841,3.1903,-0.4288,-0.1888,0.3017,0.0613,0.0154,0.0138,4438,2019-08-07 16:53:32:371
-4.5339,-7.5079,3.1667,-0.4288,-0.1888,0.3017,0.0634,0.0431,0.0075,4443,2019-08-07 16:53:32:376
-4.5339,-7.5079,3.1667,-0.4288,-0.1888,0.3017,0.0634,0.0431,0.0075,4448,2019-08-07 16:53:32:381
-4.5339,-7.5079,3.1667,-0.4288,-0.1888,0.3017,0.0688,0.0942,0.0096,4453,2019-08-07 16:53:32:386
-4.577,-7.4936,3.2987,-0.3803,-0.2227,0.1827,0.0688,0.0942,0.0096,4458,2019-08-07 16:53:32:391
-4.577,-7.4936,3.2987,-0.3803,-0.2227,0.1827,0.0688,0.0942,0.0096,4464,2019-08-07 16:53:32:397
-4.5961,-7.4125,3.2421,-0.3803,-0.2227,0.1827,0.072,0.1113,0.0117,4468,2019-08-07 16:53:32:401
-4.5961,-7.4125,3.2421,-0.3803,-0.2227,0.1827,0.072,0.1113,0.0117,4473,2019-08-07 16:53:32:406
-4.5961,-7.4125,3.2421,-0.2599,-0.3413,0.206,0.0688,0.1198,0.0075,4477,2019-08-07 16:53:32:410
-4.7731,-7.3886,3.2892,-0.2599,-0.3413,0.206,0.0688,0.1198,0.0075,4483,2019-08-07 16:53:32:416
-4.7731,-7.3886,3.2892,-0.2599,-0.3413,0.206,0.0645,0.1049,0.0106,4487,2019-08-07 16:53:32:420
-4.7731,-7.3886,3.2892,-0.2599,-0.3413,0.206,0.0645,0.1049,0.0106,4493,2019-08-07 16:53:32:426
-4.9023,-7.422,3.3882,-0.0682,-0.2974,0.116,0.0602,0.0655,0.0192,4498,2019-08-07 16:53:32:431
-4.9023,-7.422,3.3882,-0.0682,-0.2974,0.116,0.0602,0.0655,0.0192,4503,2019-08-07 16:53:32:436
-4.8449,-7.3408,3.3552,-0.0682,-0.2974,0.116,0.0602,0.0655,0.0192,4508,2019-08-07 16:53:32:441
-4.8449,-7.3408,3.3552,-0.0682,-0.2974,0.116,0.0602,0.026,0.0256,4513,2019-08-07 16:53:32:446
-4.8449,-7.3408,3.3552,-0.1802,-0.3574,0.1732,0.0602,0.026,0.0256,4518,2019-08-07 16:53:32:451
-4.7731,-7.2358,3.2987,-0.1802,-0.3574,0.1732,0.0581,0.0047,0.033,4523,2019-08-07 16:53:32:456
-4.7731,-7.2358,3.2987,-0.1802,-0.3574,0.1732,0.0581,0.0047,0.033,4527,2019-08-07 16:53:32:460
-4.6631,-7.2883,3.2798,-0.2306,-0.392,0.1492,0.0464,0.0047,0.0362,4534,2019-08-07 16:53:32:467
-4.6631,-7.2883,3.2798,-0.2306,-0.392,0.1492,0.0464,0.0047,0.0362,4538,2019-08-07 16:53:32:471
-4.6631,-7.2883,3.2798,-0.2306,-0.392,0.1492,0.0336,0.0239,0.0298,4542,2019-08-07 16:53:32:475
-4.7109,-7.2788,3.2798,-0.2306,-0.392,0.1492,0.0336,0.0239,0.0298,4547,2019-08-07 16:53:32:480
-4.7109,-7.2788,3.2798,-0.2608,-0.3908,0.2429,0.0283,0.041,0.0277,4553,2019-08-07 16:53:32:486
-4.7109,-7.2788,3.2798,-0.2608,-0.3908,0.2429,0.0283,0.041,0.0277,4558,2019-08-07 16:53:32:491
-4.7683,-7.3122,3.3175,-0.2263,-0.3742,0.1766,0.0187,0.0537,0.0277,4563,2019-08-07 16:53:32:496
-4.7683,-7.3122,3.3175,-0.2263,-0.3742,0.1766,0.0187,0.0537,0.0277,4568,2019-08-07 16:53:32:501
-4.6822,-7.3743,3.294,-0.2263,-0.3742,0.1766,0.0059,0.0623,0.0277,4572,2019-08-07 16:53:32:505
-4.6822,-7.3743,3.294,-0.2263,-0.3742,0.1766,0.0059,0.0623,0.0277,4578,2019-08-07 16:53:32:511
-4.6822,-7.3743,3.294,-0.3107,-0.3281,0.2288,0.0038,0.074,0.0309,4583,2019-08-07 16:53:32:516
-4.6679,-7.3265,3.3128,-0.3107,-0.3281,0.2288,0.0038,0.074,0.0309,4588,2019-08-07 16:53:32:521
-4.6679,-7.3265,3.3128,-0.3107,-0.3281,0.2288,0.0038,0.074,0.0309,4593,2019-08-07 16:53:32:526
-4.6679,-7.3265,3.3128,-0.3107,-0.3281,0.2288,0.0027,0.0804,0.0383,4598,2019-08-07 16:53:32:531
-4.7492,-7.3934,3.426,-0.2636,-0.2864,0.0566,0.0027,0.0804,0.0383,4603,2019-08-07 16:53:32:536
-4.7492,-7.3934,3.426,-0.2636,-0.2864,0.0566,-5.0E-4,0.075,0.0522,4608,2019-08-07 16:53:32:541
-4.7301,-7.3695,3.4071,-0.2636,-0.2864,0.0566,-5.0E-4,0.075,0.0522,4613,2019-08-07 16:53:32:546
-4.7301,-7.3695,3.4071,-0.195,-0.2952,0.0882,0.0102,0.0623,0.0575,4618,2019-08-07 16:53:32:551
-4.7301,-7.3695,3.4071,-0.195,-0.2952,0.0882,0.0102,0.0623,0.0575,4623,2019-08-07 16:53:32:556
-4.821,-7.4077,3.4495,-0.195,-0.2952,0.0882,0.0144,0.0484,0.0586,4628,2019-08-07 16:53:32:561
-4.821,-7.4077,3.4495,-0.195,-0.2952,0.0882,0.0144,0.0484,0.0586,4633,2019-08-07 16:53:32:566
-4.8688,-7.4363,3.3694,-0.1695,-0.2306,0.1047,0.0166,0.0303,0.0692,4639,2019-08-07 16:53:32:572
-4.8688,-7.4363,3.3694,-0.1695,-0.2306,0.1047,0.0166,0.0303,0.0692,4642,2019-08-07 16:53:32:575
-4.8688,-7.4363,3.3694,-0.1695,-0.2306,0.1047,0.023,0.0122,0.0682,4648,2019-08-07 16:53:32:581
-4.8736,-7.3886,3.2987,-0.1695,-0.2306,0.1047,0.023,0.0122,0.0682,4653,2019-08-07 16:53:32:586
-4.8736,-7.3886,3.2987,-0.1695,-0.2306,0.1047,0.023,0.0122,0.0682,4658,2019-08-07 16:53:32:591
-4.8736,-7.3886,3.2987,-0.1664,-0.2364,0.1922,0.0272,0.0015,0.0639,4663,2019-08-07 16:53:32:596
-4.8831,-7.4077,3.3128,-0.1664,-0.2364,0.1922,0.0272,0.0015,0.0639,4669,2019-08-07 16:53:32:602
-4.8831,-7.4077,3.3128,-0.1664,-0.2364,0.1922,0.0251,0.009,0.0586,4672,2019-08-07 16:53:32:605
-4.8305,-7.4888,3.2233,-0.1664,-0.2364,0.1922,0.0251,0.009,0.0586,4678,2019-08-07 16:53:32:611
-4.8305,-7.4888,3.2233,-0.2572,-0.1906,0.294,0.023,0.0282,0.0469,4684,2019-08-07 16:53:32:617
-4.8305,-7.4888,3.2233,-0.2572,-0.1906,0.294,0.023,0.0282,0.0469,4687,2019-08-07 16:53:32:620
-4.864,-7.4554,3.3081,-0.2572,-0.1906,0.294,0.023,0.0282,0.0469,4693,2019-08-07 16:53:32:626
-4.864,-7.4554,3.3081,-0.1709,-0.2471,0.1471,0.0272,0.0505,0.0298,4698,2019-08-07 16:53:32:631
-4.8633,-7.4125,3.3271,-0.1709,-0.2471,0.1471,0.0272,0.0505,0.0298,4703,2019-08-07 16:53:32:636
-4.8633,-7.4125,3.3271,-0.1709,-0.2471,0.1471,0.0283,0.0601,0.0288,4708,2019-08-07 16:53:32:641
-4.8633,-7.4125,3.3271,-0.1709,-0.2471,0.1471,0.0283,0.0601,0.0288,4713,2019-08-07 16:53:32:646
-4.8442,-7.3696,3.3365,-0.1709,-0.2471,0.1471,0.0347,0.0687,0.0224,4718,2019-08-07 16:53:32:651
-4.8442,-7.3696,3.3365,-0.1841,-0.2424,0.0746,0.0347,0.0687,0.0224,4722,2019-08-07 16:53:32:655
-4.9016,-7.3839,3.3695,-0.1841,-0.2424,0.0746,0.0325,0.0591,0.0213,4728,2019-08-07 16:53:32:661
-4.9016,-7.3839,3.3695,-0.1841,-0.2424,0.0746,0.0325,0.0591,0.0213,4732,2019-08-07 16:53:32:665
-4.9016,-7.3839,3.3695,-0.1841,-0.2424,0.0746,0.0272,0.025,0.0288,4738,2019-08-07 16:53:32:671
-4.9542,-7.3552,3.3884,-0.1293,-0.2807,0.0882,0.0272,0.025,0.0288,4744,2019-08-07 16:53:32:677
-4.9542,-7.3552,3.3884,-0.1293,-0.2807,0.0882,0.0283,0.0047,0.033,4748,2019-08-07 16:53:32:681
-4.9494,-7.3696,3.478,-0.1293,-0.2807,0.0882,0.0283,0.0047,0.033,4752,2019-08-07 16:53:32:685
-4.9494,-7.3696,3.478,-0.1293,-0.2807,0.0882,0.0283,0.0047,0.033,4758,2019-08-07 16:53:32:691
-4.9494,-7.3696,3.478,-0.1488,-0.342,0.1163,0.0315,-0.0176,0.032,4763,2019-08-07 16:53:32:696
-4.8824,-7.3218,3.3884,-0.1488,-0.342,0.1163,0.0315,-0.0176,0.032,4767,2019-08-07 16:53:32:700
-4.8824,-7.3218,3.3884,-0.1488,-0.342,0.1163,0.0187,-0.0453,0.0394,4773,2019-08-07 16:53:32:706
-4.8824,-7.3218,3.3884,-0.1488,-0.342,0.1163,0.0187,-0.0453,0.0394,4778,2019-08-07 16:53:32:711
-4.7198,-7.3648,3.3224,-0.4095,-0.2226,0.1707,0.0155,-0.0464,0.0405,4783,2019-08-07 16:53:32:716
-4.7198,-7.3648,3.3224,-0.4095,-0.2226,0.1707,0.0155,-0.0464,0.0405,4788,2019-08-07 16:53:32:721
-4.6623,-7.3743,3.2281,-0.4095,-0.2226,0.1707,0.0187,-0.0155,0.0405,4792,2019-08-07 16:53:32:725
-4.6623,-7.3743,3.2281,-0.4095,-0.2226,0.1707,0.0187,-0.0155,0.0405,4799,2019-08-07 16:53:32:732
-4.6623,-7.3743,3.2281,-0.432,-0.2376,0.2831,0.0208,0.0101,0.0383,4802,2019-08-07 16:53:32:735
-4.7676,-7.3552,3.2281,-0.432,-0.2376,0.2831,0.0208,0.0101,0.0383,4808,2019-08-07 16:53:32:741
-4.7676,-7.3552,3.2281,-0.432,-0.2376,0.2831,0.0208,0.0101,0.0383,4813,2019-08-07 16:53:32:746
-4.7676,-7.3552,3.2281,-0.432,-0.2376,0.2831,0.0134,0.0623,0.032,4818,2019-08-07 16:53:32:751
-4.8632,-7.3791,3.2988,-0.2396,-0.2385,0.1896,0.0134,0.0623,0.032,4823,2019-08-07 16:53:32:756
-4.8632,-7.3791,3.2988,-0.2396,-0.2385,0.1896,0.0102,0.0591,0.0234,4828,2019-08-07 16:53:32:761
-4.8632,-7.3791,3.2988,-0.2396,-0.2385,0.1896,0.0102,0.0591,0.0234,4832,2019-08-07 16:53:32:765
-4.9111,-7.3505,3.2753,-0.2396,-0.2385,0.1896,0.0123,0.041,0.0245,4838,2019-08-07 16:53:32:771
-4.9111,-7.3505,3.2753,-0.299,-0.2642,0.1436,0.0123,0.041,0.0245,4843,2019-08-07 16:53:32:776
-4.8154,-7.3696,3.2659,-0.299,-0.2642,0.1436,0.0134,0.0452,0.0277,4848,2019-08-07 16:53:32:781
-4.8154,-7.3696,3.2659,-0.299,-0.2642,0.1436,0.0134,0.0452,0.0277,4852,2019-08-07 16:53:32:785
-4.9254,-7.3505,3.3318,-0.299,-0.2642,0.1436,0.008,0.058,0.0224,4858,2019-08-07 16:53:32:791
-4.9254,-7.3505,3.3318,-0.1244,-0.304,0.0836,0.008,0.058,0.0224,4862,2019-08-07 16:53:32:795
-4.9254,-7.3505,3.3318,-0.1244,-0.304,0.0836,0.008,0.058,0.0224,4868,2019-08-07 16:53:32:801
-5.1168,-7.3409,3.4214,-0.1244,-0.304,0.0836,0.0102,0.0292,0.0192,4873,2019-08-07 16:53:32:806
-5.1168,-7.3409,3.4214,-0.1244,-0.304,0.0836,0.0102,0.0292,0.0192,4878,2019-08-07 16:53:32:811
-5.1168,-7.3409,3.4214,-0.0246,-0.2527,0.0362,0.0155,-0.0102,0.017,4882,2019-08-07 16:53:32:815
-5.0785,-7.3409,3.4403,-0.0246,-0.2527,0.0362,0.0155,-0.0102,0.017,4888,2019-08-07 16:53:32:821
-5.0785,-7.3409,3.4403,-0.0246,-0.2527,0.0362,0.023,-0.04,0.0128,4893,2019-08-07 16:53:32:826
-4.9397,-7.3791,3.3413,-0.0246,-0.2527,0.0362,0.023,-0.04,0.0128,4898,2019-08-07 16:53:32:831
-4.9397,-7.3791,3.3413,-0.2154,-0.2498,0.1659,0.0272,-0.04,0.0053,4902,2019-08-07 16:53:32:835
-4.8919,-7.36,3.2847,-0.2154,-0.2498,0.1659,0.0272,-0.04,0.0053,4908,2019-08-07 16:53:32:841
-4.8919,-7.36,3.2847,-0.2154,-0.2498,0.1659,0.023,-0.0293,0.0085,4913,2019-08-07 16:53:32:846
-4.8919,-7.36,3.2847,-0.2154,-0.2498,0.1659,0.023,-0.0293,0.0085,4918,2019-08-07 16:53:32:851
-4.8584,-7.3553,3.3413,-0.2617,-0.248,0.1532,0.0208,-0.0176,0.0032,4923,2019-08-07 16:53:32:856
-4.8584,-7.3553,3.3413,-0.2617,-0.248,0.1532,0.0208,-0.0176,0.0032,4927,2019-08-07 16:53:32:860
-4.8584,-7.3553,3.3413,-0.2617,-0.248,0.1532,0.024,-0.0112,0.0075,4933,2019-08-07 16:53:32:866
-4.8057,-7.3266,3.28,-0.2617,-0.248,0.1532,0.024,-0.0112,0.0075,4938,2019-08-07 16:53:32:871
-4.8057,-7.3266,3.28,-0.3757,-0.2511,0.2192,0.0219,-0.0123,0.0075,4942,2019-08-07 16:53:32:875
-4.6861,-7.3648,3.247,-0.3757,-0.2511,0.2192,0.0219,-0.0123,0.0075,4948,2019-08-07 16:53:32:881
-4.6861,-7.3648,3.247,-0.3757,-0.2511,0.2192,0.023,0.0047,0.0075,4952,2019-08-07 16:53:32:885
-4.6861,-7.3648,3.247,-0.3757,-0.2511,0.2192,0.023,0.0047,0.0075,4958,2019-08-07 16:53:32:891
-4.7005,-7.3314,3.346,-0.3757,-0.2511,0.2192,0.0198,0.0324,0.0011,4962,2019-08-07 16:53:32:895
-4.7005,-7.3314,3.346,-0.4047,-0.2691,0.1695,0.0198,0.0324,0.0011,4968,2019-08-07 16:53:32:901
-4.7005,-7.3314,3.346,-0.4047,-0.2691,0.1695,0.0166,0.0505,0.0085,4972,2019-08-07 16:53:32:905
-4.7818,-7.3123,3.3743,-0.4047,-0.2691,0.1695,0.0166,0.0505,0.0085,4978,2019-08-07 16:53:32:911
-4.7818,-7.3123,3.3743,0.1459,-0.4011,0.3788,0.0048,0.0388,0.0117,4983,2019-08-07 16:53:32:916
-5.619,-7.1309,3.0632,0.1459,-0.4011,0.3788,0.0048,0.0388,0.0117,4988,2019-08-07 16:53:32:921
-5.619,-7.1309,3.0632,0.1459,-0.4011,0.3788,-0.0729,-0.0645,0.033,4993,2019-08-07 16:53:32:926
-4.4564,-7.4316,4.1851,0.1459,-0.4011,0.3788,-0.0729,-0.0645,0.033,4998,2019-08-07 16:53:32:931
-4.4564,-7.4316,4.1851,-0.6852,-0.0469,-0.0697,0.072,-0.0379,-0.0011,5003,2019-08-07 16:53:32:936
-4.4564,-7.4316,4.1851,-0.6852,-0.0469,-0.0697,0.072,-0.0379,-0.0011,5008,2019-08-07 16:53:32:941
-4.7435,-7.3982,2.8841,-0.6852,-0.0469,-0.0697,0.0421,-0.0059,0.0043,5013,2019-08-07 16:53:32:946
-4.7435,-7.3982,2.8841,-0.6852,-0.0469,-0.0697,0.0421,-0.0059,0.0043,5018,2019-08-07 16:53:32:951
-4.7435,-7.3982,2.8841,-0.6852,-0.0469,-0.0697,0.0421,-0.0059,0.0043,5023,2019-08-07 16:53:32:956
-4.7243,-7.2502,3.2093,-0.3975,-0.3452,0.2995,-0.0218,0.0303,0.0277,5028,2019-08-07 16:53:32:961
-4.7243,-7.2502,3.2093,-0.3975,-0.3452,0.2995,-0.0218,0.0303,0.0277,5033,2019-08-07 16:53:32:966
-4.7243,-7.2502,3.2093,-0.3975,-0.3452,0.2995,0.023,0.0495,0.0064,5037,2019-08-07 16:53:32:970
-4.8631,-7.3887,3.3884,-0.3975,-0.3452,0.2995,0.023,0.0495,0.0064,5043,2019-08-07 16:53:32:976
-4.8631,-7.3887,3.3884,-0.1863,-0.115,0.2205,0.0357,0.0591,0.0075,5048,2019-08-07 16:53:32:981
-4.9444,-7.5367,3.247,-0.1863,-0.115,0.2205,0.0357,0.0591,0.0075,5053,2019-08-07 16:53:32:986
-4.9444,-7.5367,3.247,-0.1863,-0.115,0.2205,0.0357,0.0591,0.0075,5057,2019-08-07 16:53:32:990