ACCELEROMETER X (m/s²),ACCELEROMETER Y (m/s²),ACCELEROMETER Z (m/s²),LINEAR ACCELERATION X (m/s²),LINEAR ACCELERATION Y (m/s²),LINEAR ACCELERATION Z (m/s²),GYROSCOPE X (rad/s),GYROSCOPE Y (rad/s),GYROSCOPE Z (rad/s),Time since start in ms ,YYYY-MO-DD HH-MI-SS_SSS
-6.0516,-6.8013,2.5065,-0.3871,-0.1567,0.222,0.007,0.0633,-0.0021,3,2019-08-07 16:52:43:331
-6.0516,-6.8013,2.5065,-0.1979,-0.1908,0.1629,0.0144,0.058,-0.0011,7,2019-08-07 16:52:43:335
-6.1521,-6.7727,2.6621,-0.1979,-0.1908,0.1629,0.0144,0.058,-0.0011,13,2019-08-07 16:52:43:341
-6.1521,-6.7727,2.6621,-0.1979,-0.1908,0.1629,0.0219,0.0399,0.0011,17,2019-08-07 16:52:43:345
-6.1521,-6.7727,2.6621,-0.1979,-0.1908,0.1629,0.0219,0.0399,0.0011,23,2019-08-07 16:52:43:351
-6.2574,-6.6581,2.6432,-0.1003,-0.3183,-0.0143,0.0219,0.0101,0.0021,29,2019-08-07 16:52:43:357
-6.2574,-6.6581,2.6432,-0.1003,-0.3183,-0.0143,0.0219,0.0101,0.0021,33,2019-08-07 16:52:43:361
-6.2574,-6.6581,2.6432,-0.1003,-0.3183,-0.0143,0.0219,0.0101,0.0021,37,2019-08-07 16:52:43:365
-6.2574,-6.6581,2.6432,-0.1003,-0.3183,-0.0143,0.0176,-0.0347,0.0011,43,2019-08-07 16:52:43:371
-6.0899,-6.5769,2.6338,-0.206,-0.3926,-0.0101,0.0176,-0.0347,0.0011,48,2019-08-07 16:52:43:376
-6.0899,-6.5769,2.6338,-0.206,-0.3926,-0.0101,0.0112,-0.0464,0.0011,53,2019-08-07 16:52:43:381
-6.0899,-6.5769,2.6338,-0.206,-0.3926,-0.0101,0.0112,-0.0464,0.0011,58,2019-08-07 16:52:43:386
-6.0134,-6.639,2.6102,-0.206,-0.3926,-0.0101,0.0166,-0.0389,-0.0043,64,2019-08-07 16:52:43:392
-6.0134,-6.639,2.6102,-0.3852,-0.3392,0.1069,0.0166,-0.0389,-0.0043,67,2019-08-07 16:52:43:395
-5.9081,-6.682,2.5207,-0.3852,-0.3392,0.1069,0.0155,-0.0102,0.0011,73,2019-08-07 16:52:43:401
-5.9081,-6.682,2.5207,-0.3852,-0.3392,0.1069,0.0155,-0.0102,0.0011,78,2019-08-07 16:52:43:406
-5.9081,-6.682,2.5207,-0.3852,-0.3392,0.1069,0.0155,0.026,0.0042,83,2019-08-07 16:52:43:411
-5.9129,-6.6676,2.5867,-0.4139,-0.3336,0.0948,0.0155,0.026,0.0042,88,2019-08-07 16:52:43:416
-5.9129,-6.6676,2.5867,-0.4139,-0.3336,0.0948,0.023,0.0569,0.0032,94,2019-08-07 16:52:43:422
-6.133,-6.6629,2.6668,-0.4139,-0.3336,0.0948,0.023,0.0569,0.0032,98,2019-08-07 16:52:43:426
-6.133,-6.6629,2.6668,-0.4139,-0.3336,0.0948,0.024,0.0527,0.0106,102,2019-08-07 16:52:43:430
-6.133,-6.6629,2.6668,-0.1737,-0.3075,-0.0496,0.024,0.0527,0.0106,108,2019-08-07 16:52:43:436
-6.176,-6.682,2.7328,-0.1737,-0.3075,-0.0496,0.024,0.0324,0.0128,112,2019-08-07 16:52:43:440
-6.176,-6.682,2.7328,-0.1737,-0.3075,-0.0496,0.024,0.0324,0.0128,118,2019-08-07 16:52:43:446
-6.176,-6.682,2.7328,-0.1737,-0.3075,-0.0496,0.0187,-0.0038,0.0096,123,2019-08-07 16:52:43:451
-6.1999,-6.7011,2.7516,-0.1341,-0.2942,-0.0716,0.0187,-0.0038,0.0096,127,2019-08-07 16:52:43:455
-6.1999,-6.7011,2.7516,-0.1341,-0.2942,-0.0716,0.0123,-0.0283,0.0149,133,2019-08-07 16:52:43:461
-6.1377,-6.6294,2.6197,-0.1341,-0.2942,-0.0716,0.0123,-0.0283,0.0149,138,2019-08-07 16:52:43:466
-6.1377,-6.6294,2.6197,-0.1341,-0.2942,-0.0716,0.0123,-0.0283,0.0149,142,2019-08-07 16:52:43:470
-6.042,-6.682,2.5772,-0.226,-0.2909,0.0571,0.007,-0.0464,0.017,150,2019-08-07 16:52:43:478
-6.042,-6.682,2.5772,-0.226,-0.2909,0.0571,0.007,-0.0464,0.017,153,2019-08-07 16:52:43:481
-6.042,-6.682,2.5772,-0.226,-0.2909,0.0571,-0.0037,-0.0336,0.0149,157,2019-08-07 16:52:43:485
-6.0229,-6.6963,2.5772,-0.226,-0.2909,0.0571,-0.0037,-0.0336,0.0149,163,2019-08-07 16:52:43:491
-6.0229,-6.6963,2.5772,-0.2883,-0.2508,0.0809,-0.0079,-0.0123,0.0128,168,2019-08-07 16:52:43:496
-6.0229,-6.6963,2.5772,-0.2883,-0.2508,0.0809,-0.0079,-0.0123,0.0128,173,2019-08-07 16:52:43:501
-6.0038,-6.6485,2.5772,-0.2883,-0.2508,0.0809,-0.009,0.0037,0.0106,178,2019-08-07 16:52:43:506
-6.0038,-6.6485,2.5772,-0.2883,-0.2508,0.0809,-0.009,0.0037,0.0106,182,2019-08-07 16:52:43:510
-6.0038,-6.6485,2.5772,-0.2512,-0.25,0.0519,-0.0101,0.0079,0.0085,188,2019-08-07 16:52:43:516
-6.042,-6.7488,2.5537,-0.2512,-0.25,0.0519,-0.0101,0.0079,0.0085,192,2019-08-07 16:52:43:520
-6.042,-6.7488,2.5537,-0.2512,-0.25,0.0519,-0.0101,0.0079,0.0085,198,2019-08-07 16:52:43:526
-6.109,-6.7297,2.5631,-0.2512,-0.25,0.0519,-0.0101,0.009,0.0042,203,2019-08-07 16:52:43:531
-6.109,-6.7297,2.5631,-0.2139,-0.3026,0.1104,-0.0101,0.009,0.0042,208,2019-08-07 16:52:43:536
-6.109,-6.7297,2.5631,-0.2139,-0.3026,0.1104,-0.0079,0.009,0.0,213,2019-08-07 16:52:43:541
-6.0851,-6.7201,2.5961,-0.2139,-0.3026,0.1104,-0.0079,0.009,0.0,218,2019-08-07 16:52:43:546
-6.0851,-6.7201,2.5961,-0.2139,-0.3026,0.1104,-0.0079,0.009,0.0,222,2019-08-07 16:52:43:550
-6.0899,-6.7727,2.6291,-0.2477,-0.217,0.0572,-0.0037,-0.007,-0.0011,228,2019-08-07 16:52:43:556
-6.0899,-6.7727,2.6291,-0.2477,-0.217,0.0572,-0.0037,-0.007,-0.0011,233,2019-08-07 16:52:43:561
-6.0899,-6.7727,2.6291,-0.2477,-0.217,0.0572,-0.0058,-0.0155,-0.0032,238,2019-08-07 16:52:43:566
-6.0994,-6.8252,2.5631,-0.2477,-0.217,0.0572,-0.0058,-0.0155,-0.0032,242,2019-08-07 16:52:43:570
-6.0994,-6.8252,2.5631,-0.2608,-0.213,0.1196,-0.0026,-0.0176,-0.0011,248,2019-08-07 16:52:43:576
-6.0994,-6.8252,2.5631,-0.2608,-0.213,0.1196,-0.0026,-0.0176,-0.0011,253,2019-08-07 16:52:43:581
-6.0755,-6.8013,2.5065,-0.2608,-0.213,0.1196,0.0017,-0.0219,0.0064,258,2019-08-07 16:52:43:586
-6.0755,-6.8013,2.5065,-0.2608,-0.213,0.1196,0.0017,-0.0219,0.0064,263,2019-08-07 16:52:43:591
-6.0851,-6.7918,2.5584,-0.2506,-0.1982,0.1315,0.0038,-0.024,0.0106,268,2019-08-07 16:52:43:596
-6.0851,-6.7918,2.5584,-0.2506,-0.1982,0.1315,0.0038,-0.024,0.0106,273,2019-08-07 16:52:43:601
-6.0851,-6.7918,2.5584,-0.2506,-0.1982,0.1315,0.007,-0.023,0.0106,278,2019-08-07 16:52:43:606
-6.0994,-6.7011,2.6102,-0.2506,-0.1982,0.1315,0.007,-0.023,0.0106,282,2019-08-07 16:52:43:610
-6.0994,-6.7011,2.6102,-0.2556,-0.2873,0.135,0.0091,-0.0166,0.0117,288,2019-08-07 16:52:43:616
-6.0994,-6.7011,2.6102,-0.2556,-0.2873,0.135,0.0091,-0.0166,0.0117,292,2019-08-07 16:52:43:620
-6.0851,-6.639,2.549,-0.2556,-0.2873,0.135,0.0091,-0.0166,0.0117,298,2019-08-07 16:52:43:626
-6.0851,-6.639,2.549,-0.2556,-0.2873,0.135,0.0112,0.0015,0.0128,304,2019-08-07 16:52:43:632
-6.0851,-6.639,2.549,-0.272,-0.3708,0.1181,0.0112,0.0015,0.0128,308,2019-08-07 16:52:43:636
-6.0801,-6.6438,2.615,-0.272,-0.3708,0.1181,0.0134,0.0037,0.0149,313,2019-08-07 16:52:43:641
-6.0801,-6.6438,2.615,-0.272,-0.3708,0.1181,0.0134,0.0037,0.0149,317,2019-08-07 16:52:43:645
-6.0801,-6.6438,2.615,-0.272,-0.3708,0.1181,0.0198,0.0037,0.0138,323,2019-08-07 16:52:43:651
-6.061,-6.5913,2.6574,-0.272,-0.3708,0.1181,0.0198,0.0037,0.0138,327,2019-08-07 16:52:43:655
-6.061,-6.5913,2.6574,-0.2504,-0.3868,-0.0537,0.0198,0.0037,0.0138,333,2019-08-07 16:52:43:661
-6.0753,-6.639,2.6668,-0.2504,-0.3868,-0.0537,0.0208,-0.0176,0.017,338,2019-08-07 16:52:43:666
-6.0753,-6.639,2.6668,-0.2504,-0.3868,-0.0537,0.0208,-0.0176,0.017,342,2019-08-07 16:52:43:670
-6.0753,-6.639,2.6668,-0.2504,-0.3868,-0.0537,0.0187,-0.0304,0.0202,348,2019-08-07 16:52:43:676
-6.0371,-6.6199,2.6904,-0.2998,-0.3447,0.0233,0.0187,-0.0304,0.0202,353,2019-08-07 16:52:43:681
-6.0371,-6.6199,2.6904,-0.2998,-0.3447,0.0233,0.0176,-0.0528,0.0256,358,2019-08-07 16:52:43:686
-6.0371,-6.6199,2.6904,-0.2998,-0.3447,0.0233,0.0176,-0.0528,0.0256,363,2019-08-07 16:52:43:691
-5.9605,-6.6629,2.5867,-0.2998,-0.3447,0.0233,0.0176,-0.057,0.0298,368,2019-08-07 16:52:43:696
-5.9605,-6.6629,2.5867,-0.396,-0.2975,0.1415,0.0176,-0.057,0.0298,373,2019-08-07 16:52:43:701
-5.8983,-6.7154,2.5301,-0.396,-0.2975,0.1415,0.0176,-0.0475,0.0319,377,2019-08-07 16:52:43:705
-5.8983,-6.7154,2.5301,-0.396,-0.2975,0.1415,0.0176,-0.0475,0.0319,384,2019-08-07 16:52:43:712
-5.8983,-6.7154,2.5301,-0.396,-0.2975,0.1415,0.0176,-0.0475,0.0319,387,2019-08-07 16:52:43:715
-5.8983,-6.6963,2.4594,-0.4691,-0.2648,0.2292,0.0123,-0.0176,0.0287,393,2019-08-07 16:52:43:721
-5.8983,-6.6963,2.4594,-0.4691,-0.2648,0.2292,0.0123,-0.0176,0.0287,398,2019-08-07 16:52:43:726
-5.8983,-6.6963,2.4594,-0.4691,-0.2648,0.2292,0.0059,0.0069,0.0277,403,2019-08-07 16:52:43:731
-5.97,-6.7011,2.483,-0.4691,-0.2648,0.2292,0.0059,0.0069,0.0277,407,2019-08-07 16:52:43:735
-5.97,-6.7011,2.483,-0.3482,-0.2761,0.1864,-5.0E-4,0.0282,0.0224,413,2019-08-07 16:52:43:741
-6.0849,-6.7058,2.4924,-0.3482,-0.2761,0.1864,-5.0E-4,0.0282,0.0224,418,2019-08-07 16:52:43:746
-6.0849,-6.7058,2.4924,-0.3482,-0.2761,0.1864,-0.0058,0.025,0.0224,422,2019-08-07 16:52:43:750
-6.0849,-6.7058,2.4924,-0.3482,-0.2761,0.1864,-0.0058,0.025,0.0224,428,2019-08-07 16:52:43:756
-6.104,-6.744,2.6056,-0.2473,-0.2213,0.1114,-0.0069,0.0175,0.0202,434,2019-08-07 16:52:43:762
-6.104,-6.744,2.6056,-0.2473,-0.2213,0.1114,-0.0069,0.0175,0.0202,437,2019-08-07 16:52:43:765
-6.0896,-6.682,2.582,-0.2473,-0.2213,0.1114,-0.0133,0.0026,0.0224,443,2019-08-07 16:52:43:771
-6.0896,-6.682,2.582,-0.2473,-0.2213,0.1114,-0.0133,0.0026,0.0224,449,2019-08-07 16:52:43:777
-6.0896,-6.682,2.582,-0.2603,-0.2336,0.1745,-0.0165,-0.0048,0.0202,452,2019-08-07 16:52:43:780
-6.0849,-6.7345,2.5773,-0.2603,-0.2336,0.1745,-0.0165,-0.0048,0.0202,458,2019-08-07 16:52:43:786
-6.0849,-6.7345,2.5773,-0.2758,-0.2329,0.1737,-0.0122,-0.0134,0.0202,463,2019-08-07 16:52:43:791
-6.0514,-6.7488,2.5019,-0.2758,-0.2329,0.1737,-0.0122,-0.0134,0.0202,468,2019-08-07 16:52:43:796
-6.0514,-6.7488,2.5019,-0.2758,-0.2329,0.1737,-0.0122,-0.0134,0.0202,472,2019-08-07 16:52:43:800
-6.0514,-6.7488,2.5019,-0.2758,-0.2329,0.1737,-0.0101,-0.0027,0.016,478,2019-08-07 16:52:43:806
-6.0226,-6.744,2.5349,-0.3349,-0.2175,0.1772,-0.0101,-0.0027,0.016,483,2019-08-07 16:52:43:811
-6.0226,-6.744,2.5349,-0.3349,-0.2175,0.1772,-0.0069,0.0143,0.017,488,2019-08-07 16:52:43:816
-6.0226,-6.744,2.5349,-0.3349,-0.2175,0.1772,-0.0069,0.0143,0.017,493,2019-08-07 16:52:43:821
-6.0466,-6.7393,2.5302,-0.3349,-0.2175,0.1772,6.0E-4,0.0282,0.017,498,2019-08-07 16:52:43:826
-6.0466,-6.7393,2.5302,-0.2998,-0.173,0.1689,6.0E-4,0.0282,0.017,503,2019-08-07 16:52:43:831
-6.1231,-6.7488,2.5443,-0.2998,-0.173,0.1689,0.0091,0.0399,0.0149,507,2019-08-07 16:52:43:835
-6.1231,-6.7488,2.5443,-0.2998,-0.173,0.1689,0.0091,0.0399,0.0149,512,2019-08-07 16:52:43:840
-6.1135,-6.7154,2.6103,-0.2998,-0.173,0.1689,0.0134,0.041,0.0096,518,2019-08-07 16:52:43:846
-6.1135,-6.7154,2.6103,-0.2079,-0.2474,0.118,0.0134,0.041,0.0096,522,2019-08-07 16:52:43:850
-6.1135,-6.7154,2.6103,-0.2079,-0.2474,0.118,0.0155,0.0271,0.0117,528,2019-08-07 16:52:43:856
-6.1709,-6.7488,2.6244,-0.2079,-0.2474,0.118,0.0155,0.0271,0.0117,533,2019-08-07 16:52:43:861
-6.1709,-6.7488,2.6244,-0.2079,-0.2474,0.118,0.0155,0.0271,0.0117,538,2019-08-07 16:52:43:866
-6.1709,-6.7488,2.6244,-0.2009,-0.2073,0.0604,0.0166,0.0165,0.0032,543,2019-08-07 16:52:43:871
-6.1709,-6.7536,2.6716,-0.2009,-0.2073,0.0604,0.0166,0.0165,0.0032,547,2019-08-07 16:52:43:875
-6.1709,-6.7536,2.6716,-0.2009,-0.2073,0.0604,0.0176,5.0E-4,0.0011,553,2019-08-07 16:52:43:881
-6.147,-6.6963,2.6857,-0.2009,-0.2073,0.0604,0.0176,-0.0112,0.0042,559,2019-08-07 16:52:43:887
-6.147,-6.6963,2.6857,-0.2538,-0.1964,0.0351,0.0176,-0.0112,0.0042,563,2019-08-07 16:52:43:891
-6.147,-6.6963,2.6857,-0.2538,-0.1964,0.0351,0.0176,-0.0112,0.0042,567,2019-08-07 16:52:43:895
-6.08,-6.7393,2.6574,-0.2538,-0.1964,0.0351,0.0144,-0.0134,-0.0011,573,2019-08-07 16:52:43:901
-6.08,-6.7393,2.6574,-0.2538,-0.1964,0.0351,0.0123,-0.008,-0.0011,578,2019-08-07 16:52:43:906
-6.0848,-6.7488,2.6292,-0.2812,-0.2054,0.0817,0.0123,-0.008,-0.0011,583,2019-08-07 16:52:43:911
-6.0848,-6.7488,2.6292,-0.2812,-0.2054,0.0817,0.0123,-0.008,-0.0011,588,2019-08-07 16:52:43:916
-6.0848,-6.7488,2.6292,-0.2812,-0.2054,0.0817,0.0091,-0.007,0.0021,593,2019-08-07 16:52:43:921
-6.1374,-6.7631,2.6527,-0.2812,-0.2054,0.0817,0.0091,-0.007,0.0021,597,2019-08-07 16:52:43:925
-6.1374,-6.7631,2.6527,-0.2521,-0.1762,-0.0245,0.0017,-0.0016,0.0042,603,2019-08-07 16:52:43:931
-6.147,-6.8204,2.6904,-0.2521,-0.1762,-0.0245,0.0017,-0.0016,0.0042,607,2019-08-07 16:52:43:935
-6.147,-6.8204,2.6904,-0.2521,-0.1762,-0.0245,0.0017,-0.0027,0.0064,613,2019-08-07 16:52:43:941
-6.147,-6.8204,2.6904,-0.2521,-0.1762,-0.0245,0.0017,-0.0027,0.0064,617,2019-08-07 16:52:43:945
-6.1518,-6.7393,2.7046,-0.2335,-0.2374,0.0333,-0.0026,0.0015,0.0074,623,2019-08-07 16:52:43:951
-6.1518,-6.7393,2.7046,-0.2335,-0.2374,0.0333,-0.0026,0.0015,0.0074,629,2019-08-07 16:52:43:957
-6.1326,-6.725,2.7093,-0.2335,-0.2374,0.0333,-0.0058,-0.0027,0.0074,633,2019-08-07 16:52:43:961
-6.1326,-6.725,2.7093,-0.2335,-0.2374,0.0333,-0.0058,-0.0027,0.0074,638,2019-08-07 16:52:43:966
-6.1326,-6.725,2.7093,-0.2335,-0.2374,0.0333,-0.0058,-0.0027,0.0074,643,2019-08-07 16:52:43:971
-6.1374,-6.7488,2.6669,-0.215,-0.2322,0.0377,-0.0058,0.0037,0.0042,648,2019-08-07 16:52:43:976
-6.1374,-6.7488,2.6669,-0.215,-0.2322,0.0377,-0.0058,0.0037,0.0042,652,2019-08-07 16:52:43:980
-6.1757,-6.7297,2.7234,-0.215,-0.2322,0.0377,-0.0111,0.0101,0.0,658,2019-08-07 16:52:43:986
-6.1757,-6.7297,2.7234,-0.1674,-0.1945,-0.0208,-0.0111,0.0101,0.0,662,2019-08-07 16:52:43:990
-6.1757,-6.7297,2.7234,-0.1674,-0.1945,-0.0208,-0.0079,0.0015,-0.0064,668,2019-08-07 16:52:43:996
-6.1757,-6.682,2.7234,-0.1674,-0.1945,-0.0208,-0.0079,0.0015,-0.0064,673,2019-08-07 16:52:44:001
-6.1757,-6.682,2.7234,-0.1674,-0.1945,-0.0208,-0.0101,-0.0102,-0.0085,678,2019-08-07 16:52:44:006
-6.1757,-6.682,2.7234,-0.1663,-0.2624,0.0121,-0.0101,-0.0102,-0.0085,683,2019-08-07 16:52:44:011
-6.1852,-6.6772,2.6716,-0.1663,-0.2624,0.0121,-0.0101,-0.0251,-0.0053,688,2019-08-07 16:52:44:016
-6.1852,-6.6772,2.6716,-0.1663,-0.2624,0.0121,-0.0101,-0.0251,-0.0053,692,2019-08-07 16:52:44:020
-6.0656,-6.639,2.6244,-0.1663,-0.2624,0.0121,-0.0079,-0.0325,-0.0117,698,2019-08-07 16:52:44:026
-6.0656,-6.639,2.6244,-0.2973,-0.3022,0.1797,-0.0079,-0.0325,-0.0117,703,2019-08-07 16:52:44:031
-6.0656,-6.639,2.6244,-0.2973,-0.3022,0.1797,-0.0079,-0.0379,-0.0171,708,2019-08-07 16:52:44:036
-6.0225,-6.6724,2.4877,-0.2973,-0.3022,0.1797,-0.0079,-0.0379,-0.0171,713,2019-08-07 16:52:44:041
-6.0225,-6.6724,2.4877,-0.2973,-0.3022,0.1797,-0.0111,-0.0347,-0.0171,718,2019-08-07 16:52:44:046
-5.9938,-6.6915,2.4877,-0.3643,-0.2676,0.2291,-0.0111,-0.0347,-0.0171,723,2019-08-07 16:52:44:051
-5.9938,-6.6915,2.4877,-0.3643,-0.2676,0.2291,-0.0111,-0.0208,-0.0203,728,2019-08-07 16:52:44:056
-5.9938,-6.6915,2.4877,-0.3643,-0.2676,0.2291,-0.0111,-0.0208,-0.0203,733,2019-08-07 16:52:44:061
-6.013,-6.725,2.4689,-0.3643,-0.2676,0.2291,-0.0111,-0.0208,-0.0203,738,2019-08-07 16:52:44:066
-6.013,-6.725,2.4689,-0.3643,-0.2676,0.2291,-0.0058,-0.0261,-0.0117,743,2019-08-07 16:52:44:071
-6.013,-6.725,2.4689,-0.3554,-0.209,0.2249,-0.0058,-0.0261,-0.0117,748,2019-08-07 16:52:44:076
-6.0225,-6.7679,2.4453,-0.3554,-0.209,0.2249,-5.0E-4,-0.0325,-0.0064,752,2019-08-07 16:52:44:080
-6.0225,-6.7679,2.4453,-0.3554,-0.209,0.2249,-5.0E-4,-0.0325,-0.0064,758,2019-08-07 16:52:44:086
-6.0177,-6.7106,2.4783,-0.3554,-0.209,0.2249,0.008,-0.0453,0.0032,763,2019-08-07 16:52:44:091
-6.0177,-6.7106,2.4783,-0.4147,-0.2625,0.2151,0.008,-0.0453,0.0032,767,2019-08-07 16:52:44:095
-6.0177,-6.7106,2.4783,-0.4147,-0.2625,0.2151,0.008,-0.0592,0.0138,773,2019-08-07 16:52:44:101
-5.9221,-6.6343,2.4406,-0.4147,-0.2625,0.2151,0.008,-0.0592,0.0138,777,2019-08-07 16:52:44:105
-5.9221,-6.6343,2.4406,-0.4147,-0.2625,0.2151,0.0102,-0.0613,0.0234,783,2019-08-07 16:52:44:111
-5.8599,-6.6056,2.3369,-0.5427,-0.3273,0.2749,0.0102,-0.0613,0.0234,788,2019-08-07 16:52:44:116
-5.8599,-6.6056,2.3369,-0.5427,-0.3273,0.2749,0.0123,-0.0507,0.0245,793,2019-08-07 16:52:44:121
-5.8407,-6.6438,2.3416,-0.5427,-0.3273,0.2749,0.0123,-0.0507,0.0245,798,2019-08-07 16:52:44:126
-5.8407,-6.6438,2.3416,-0.5427,-0.3273,0.2749,0.0198,-0.0155,0.0309,803,2019-08-07 16:52:44:131
-5.8407,-6.6438,2.3416,-0.5008,-0.2813,0.2707,0.0198,-0.0155,0.0309,807,2019-08-07 16:52:44:135
-5.8981,-6.6724,2.3935,-0.5008,-0.2813,0.2707,0.0262,0.0175,0.0319,813,2019-08-07 16:52:44:141
-5.8981,-6.6724,2.3935,-0.5008,-0.2813,0.2707,0.0262,0.0175,0.0319,818,2019-08-07 16:52:44:146
-5.9986,-6.6438,2.4689,-0.5008,-0.2813,0.2707,0.0368,0.0484,0.0319,822,2019-08-07 16:52:44:150
-5.9986,-6.6438,2.4689,-0.3057,-0.3095,0.2797,0.0368,0.0484,0.0319,828,2019-08-07 16:52:44:156
-5.9986,-6.6438,2.4689,-0.3057,-0.3095,0.2797,0.0411,0.0569,0.0266,833,2019-08-07 16:52:44:161
-6.1325,-6.6056,2.5443,-0.3057,-0.3095,0.2797,0.0411,0.0569,0.0266,838,2019-08-07 16:52:44:166
-6.1325,-6.6056,2.5443,-0.3057,-0.3095,0.2797,0.0411,0.0569,0.0266,842,2019-08-07 16:52:44:170
-6.233,-6.5817,2.6009,-0.117,-0.3466,0.1169,0.0453,0.0633,0.017,848,2019-08-07 16:52:44:176
-6.233,-6.5817,2.6009,-0.117,-0.3466,0.1169,0.0453,0.0633,0.017,852,2019-08-07 16:52:44:180
-6.233,-6.5817,2.6009,-0.117,-0.3466,0.1169,0.0368,0.0516,0.0096,858,2019-08-07 16:52:44:186
-6.2234,-6.5722,2.6386,-0.117,-0.3466,0.1169,0.0368,0.0516,0.0096,863,2019-08-07 16:52:44:191
-6.2234,-6.5722,2.6386,-0.1226,-0.342,0.0779,0.0262,0.0378,0.0042,867,2019-08-07 16:52:44:195
-6.2282,-6.6056,2.6857,-0.1226,-0.342,0.0779,0.0262,0.0378,0.0042,873,2019-08-07 16:52:44:201
-6.2282,-6.6056,2.6857,-0.1766,-0.3599,0.0542,0.0208,0.0229,-0.0011,878,2019-08-07 16:52:44:206
-6.2282,-6.6056,2.6857,-0.1766,-0.3599,0.0542,0.0208,0.0229,-0.0011,883,2019-08-07 16:52:44:211
-6.1517,-6.6008,2.7612,-0.1766,-0.3599,0.0542,0.0123,0.0026,-0.0117,888,2019-08-07 16:52:44:216
-6.1517,-6.6008,2.7612,-0.1766,-0.3599,0.0542,0.0123,0.0026,-0.0117,893,2019-08-07 16:52:44:221
-6.1517,-6.6008,2.7612,-0.2956,-0.3262,-0.0095,0.0123,0.0026,-0.0117,898,2019-08-07 16:52:44:226
-6.0512,-6.5961,2.78,-0.2956,-0.3262,-0.0095,0.0059,-0.0123,-0.0053,903,2019-08-07 16:52:44:231
-6.0512,-6.5961,2.78,-0.2956,-0.3262,-0.0095,0.0059,-0.0123,-0.0053,908,2019-08-07 16:52:44:236
-5.9698,-6.6104,2.7753,-0.2956,-0.3262,-0.0095,-0.0037,-0.0134,-0.0085,913,2019-08-07 16:52:44:241
-5.9698,-6.6104,2.7753,-0.427,-0.3512,-0.0206,-0.0037,-0.0134,-0.0085,917,2019-08-07 16:52:44:245
-5.9698,-6.6104,2.7753,-0.427,-0.3512,-0.0206,-0.0122,-0.0102,-0.0064,923,2019-08-07 16:52:44:251
-5.9411,-6.577,2.7235,-0.427,-0.3512,-0.0206,-0.0122,-0.0102,-0.0064,928,2019-08-07 16:52:44:256
-5.9411,-6.577,2.7235,-0.427,-0.3512,-0.0206,-0.0207,-0.0048,0.0032,933,2019-08-07 16:52:44:261
-5.9411,-6.6104,2.7659,-0.4259,-0.3331,-0.0302,-0.0207,-0.0048,0.0032,938,2019-08-07 16:52:44:266
-5.9411,-6.6104,2.7659,-0.4259,-0.3331,-0.0302,-0.0282,-0.0027,0.0138,943,2019-08-07 16:52:44:271
-5.9411,-6.6104,2.7659,-0.4259,-0.3331,-0.0302,-0.0282,-0.0027,0.0138,949,2019-08-07 16:52:44:277
-5.8837,-6.6295,2.6999,-0.4259,-0.3331,-0.0302,-0.026,0.009,0.0224,953,2019-08-07 16:52:44:281
-5.8837,-6.6295,2.6999,-0.4465,-0.2711,0.056,-0.026,0.009,0.0224,957,2019-08-07 16:52:44:285
-5.922,-6.6486,2.7376,-0.4465,-0.2711,0.056,-0.0335,0.0207,0.0309,963,2019-08-07 16:52:44:291
-5.922,-6.6486,2.7376,-0.4465,-0.2711,0.056,-0.0335,0.0207,0.0309,968,2019-08-07 16:52:44:296
-5.922,-6.6486,2.7376,-0.4465,-0.2711,0.056,-0.0335,0.0207,0.0309,972,2019-08-07 16:52:44:300
-5.9507,-6.6868,2.6858,-0.3943,-0.255,0.0296,-0.0335,0.041,0.0362,978,2019-08-07 16:52:44:306
-5.9507,-6.6868,2.6858,-0.3943,-0.255,0.0296,-0.0335,0.041,0.0362,984,2019-08-07 16:52:44:312
-6.1086,-6.6677,2.7187,-0.3943,-0.255,0.0296,-0.0378,0.0612,0.0394,988,2019-08-07 16:52:44:316
-6.1086,-6.6677,2.7187,-0.3943,-0.255,0.0296,-0.0378,0.0612,0.0394,993,2019-08-07 16:52:44:321
-6.1086,-6.6677,2.7187,-0.1591,-0.2755,-0.039,-0.0367,0.0655,0.0437,998,2019-08-07 16:52:44:326
-6.2329,-6.6725,2.7282,-0.1591,-0.2755,-0.039,-0.0367,0.0655,0.0437,1003,2019-08-07 16:52:44:331
-6.2329,-6.6725,2.7282,-0.1591,-0.2755,-0.039,-0.0324,0.0505,0.0458,1007,2019-08-07 16:52:44:335
-6.319,-6.6868,2.714,-0.1591,-0.2755,-0.039,-0.0324,0.0505,0.0458,1013,2019-08-07 16:52:44:341
-6.319,-6.6868,2.714,-0.0778,-0.3277,-0.0579,-0.0292,0.0229,0.0437,1018,2019-08-07 16:52:44:346
-6.319,-6.6868,2.714,-0.0778,-0.3277,-0.0579,-0.0292,0.0229,0.0437,1024,2019-08-07 16:52:44:352
-6.343,-6.6581,2.6245,-0.0778,-0.3277,-0.0579,-0.0292,-0.0038,0.0437,1028,2019-08-07 16:52:44:356
-6.343,-6.6581,2.6245,-0.0778,-0.3277,-0.0579,-0.0292,-0.0038,0.0437,1033,2019-08-07 16:52:44:361
-6.2712,-6.6629,2.6622,-0.1269,-0.2661,0.0375,-0.0314,-0.0187,0.0351,1038,2019-08-07 16:52:44:366
-6.2712,-6.6629,2.6622,-0.1269,-0.2661,0.0375,-0.0314,-0.0187,0.0351,1042,2019-08-07 16:52:44:370
-6.2712,-6.6629,2.6622,-0.1269,-0.2661,0.0375,-0.025,-0.0283,0.0245,1048,2019-08-07 16:52:44:376
-6.2616,-6.6772,2.6905,-0.1269,-0.2661,0.0375,-0.025,-0.0283,0.0245,1053,2019-08-07 16:52:44:381
-6.2616,-6.6772,2.6905,-0.1269,-0.2661,0.0375,-0.0197,-0.0347,0.017,1058,2019-08-07 16:52:44:386
-6.2616,-6.6772,2.6905,-0.1198,-0.2351,0.0146,-0.0197,-0.0347,0.017,1063,2019-08-07 16:52:44:391
-6.2186,-6.6916,2.6622,-0.1198,-0.2351,0.0146,-0.0197,-0.0347,0.017,1068,2019-08-07 16:52:44:396
-6.2186,-6.6916,2.6622,-0.1198,-0.2351,0.0146,-0.0154,-0.0379,0.0042,1072,2019-08-07 16:52:44:400
-6.1229,-6.6772,2.5443,-0.1198,-0.2351,0.0146,-0.0133,-0.0368,-0.0032,1078,2019-08-07 16:52:44:406
-6.1229,-6.6772,2.5443,-0.2718,-0.2541,0.1257,-0.0133,-0.0368,-0.0032,1084,2019-08-07 16:52:44:412
-6.1229,-6.6772,2.5443,-0.2718,-0.2541,0.1257,-0.0133,-0.0368,-0.0032,1087,2019-08-07 16:52:44:415
-6.1276,-6.7011,2.6103,-0.2718,-0.2541,0.1257,-0.0154,-0.0272,-0.0064,1093,2019-08-07 16:52:44:421
-6.1276,-6.7011,2.6103,-0.2718,-0.2541,0.1257,-0.0154,-0.0272,-0.0064,1098,2019-08-07 16:52:44:426
-6.1276,-6.7011,2.6103,-0.3121,-0.2654,0.0991,-0.0165,-0.0357,-0.0032,1103,2019-08-07 16:52:44:431
-6.0607,-6.6486,2.5962,-0.3121,-0.2654,0.0991,-0.0165,-0.0357,-0.0032,1108,2019-08-07 16:52:44:436
-6.0607,-6.6486,2.5962,-0.3121,-0.2654,0.0991,-0.0143,-0.0421,0.0021,1113,2019-08-07 16:52:44:441
-6.0224,-6.6152,2.5538,-0.3121,-0.2654,0.0991,-0.0143,-0.0421,0.0021,1119,2019-08-07 16:52:44:447
-6.0224,-6.6152,2.5538,-0.4099,-0.2666,0.0979,-0.0186,-0.0538,0.0074,1122,2019-08-07 16:52:44:450
-6.0224,-6.6152,2.5538,-0.4099,-0.2666,0.0979,-0.0186,-0.0538,0.0074,1128,2019-08-07 16:52:44:456
-5.941,-6.6104,2.5349,-0.4099,-0.2666,0.0979,-0.025,-0.0528,0.016,1134,2019-08-07 16:52:44:462
-5.941,-6.6104,2.5349,-0.4099,-0.2666,0.0979,-0.025,-0.0528,0.016,1138,2019-08-07 16:52:44:466
-5.941,-6.6104,2.5349,-0.4369,-0.3671,0.1484,-0.025,-0.0528,0.016,1143,2019-08-07 16:52:44:471
-5.9984,-6.577,2.5161,-0.4369,-0.3671,0.1484,-0.025,-0.0411,0.0213,1148,2019-08-07 16:52:44:476
-5.9984,-6.577,2.5161,-0.4369,-0.3671,0.1484,-0.025,-0.0411,0.0213,1153,2019-08-07 16:52:44:481
-6.0271,-6.4958,2.5208,-0.4369,-0.3671,0.1484,-0.0324,-0.0208,0.0341,1158,2019-08-07 16:52:44:486
-6.0271,-6.4958,2.5208,-0.3526,-0.4037,0.2424,-0.0324,-0.0208,0.0341,1162,2019-08-07 16:52:44:490
-6.0271,-6.4958,2.5208,-0.3526,-0.4037,0.2424,-0.041,-0.0198,0.0415,1169,2019-08-07 16:52:44:497
-6.1372,-6.534,2.5161,-0.3526,-0.4037,0.2424,-0.041,-0.0198,0.0415,1173,2019-08-07 16:52:44:501
-6.1372,-6.534,2.5161,-0.3526,-0.4037,0.2424,-0.041,-0.0198,0.0415,1177,2019-08-07 16:52:44:505
-6.185,-6.5006,2.6198,-0.2147,-0.4237,0.0881,-0.0431,-0.024,0.0501,1184,2019-08-07 16:52:44:512
-6.185,-6.5006,2.6198,-0.2147,-0.4237,0.0881,-0.0431,-0.024,0.0501,1187,2019-08-07 16:52:44:515
-6.185,-6.5006,2.6198,-0.2147,-0.4237,0.0881,-0.0442,-0.0357,0.0586,1193,2019-08-07 16:52:44:521
-6.2472,-6.4433,2.6009,-0.2147,-0.4237,0.0881,-0.0442,-0.0357,0.0586,1198,2019-08-07 16:52:44:526
-6.2472,-6.4433,2.6009,-0.1788,-0.456,0.1243,-0.0484,-0.0517,0.065,1204,2019-08-07 16:52:44:532
-6.2041,-6.429,2.6198,-0.1788,-0.456,0.1243,-0.0484,-0.0517,0.065,1208,2019-08-07 16:52:44:536
-6.2041,-6.429,2.6198,-0.1968,-0.4525,0.1198,-0.0505,-0.0592,0.0682,1213,2019-08-07 16:52:44:541
-6.2041,-6.429,2.6198,-0.1968,-0.4525,0.1198,-0.0505,-0.0592,0.0682,1218,2019-08-07 16:52:44:546
-6.2137,-6.4481,2.5962,-0.1968,-0.4525,0.1198,-0.0505,-0.0592,0.0682,1223,2019-08-07 16:52:44:551
-6.2137,-6.4481,2.5962,-0.1968,-0.4525,0.1198,-0.0505,-0.0709,0.0767,1228,2019-08-07 16:52:44:556
-6.1994,-6.4576,2.5538,-0.2188,-0.4494,0.1548,-0.0474,-0.0773,0.0809,1234,2019-08-07 16:52:44:562
-6.1994,-6.4576,2.5538,-0.2188,-0.4494,0.1548,-0.0474,-0.0773,0.0809,1237,2019-08-07 16:52:44:565
-6.1994,-6.4576,2.5538,-0.2188,-0.4494,0.1548,-0.0474,-0.0773,0.0809,1243,2019-08-07 16:52:44:571
-6.0702,-6.5054,2.5585,-0.2188,-0.4494,0.1548,-0.0484,-0.0826,0.0884,1248,2019-08-07 16:52:44:576
-6.0702,-6.5054,2.5585,-0.3274,-0.45,0.2148,-0.0484,-0.073,0.0927,1253,2019-08-07 16:52:44:581
-6.0749,-6.5054,2.5632,-0.3274,-0.45,0.2148,-0.0484,-0.073,0.0927,1258,2019-08-07 16:52:44:586
-6.0749,-6.5054,2.5632,-0.3274,-0.45,0.2148,-0.0484,-0.073,0.0927,1262,2019-08-07 16:52:44:590
-6.0749,-6.5054,2.5632,-0.3369,-0.4213,0.1077,-0.0463,-0.0634,0.1001,1268,2019-08-07 16:52:44:596
-6.1563,-6.4529,2.6386,-0.3369,-0.4213,0.1077,-0.0463,-0.0634,0.1001,1273,2019-08-07 16:52:44:601
-6.1563,-6.4529,2.6386,-0.3369,-0.4213,0.1077,-0.0505,-0.0602,0.1076,1278,2019-08-07 16:52:44:606
-6.1563,-6.4529,2.6386,-0.2959,-0.4576,0.0667,-0.0505,-0.0602,0.1076,1283,2019-08-07 16:52:44:611
-6.1945,-6.4004,2.6669,-0.2959,-0.4576,0.0667,-0.0527,-0.0666,0.1172,1287,2019-08-07 16:52:44:615
-6.1945,-6.4004,2.6669,-0.2959,-0.4576,0.0667,-0.0527,-0.0666,0.1172,1293,2019-08-07 16:52:44:621
-6.2232,-6.429,2.6386,-0.2959,-0.4576,0.0667,-0.0591,-0.0805,0.1204,1298,2019-08-07 16:52:44:626
-6.2232,-6.429,2.6386,-0.2714,-0.4301,0.1442,-0.0591,-0.0805,0.1204,1303,2019-08-07 16:52:44:631
-6.2232,-6.429,2.6386,-0.2714,-0.4301,0.1442,-0.075,-0.0869,0.1236,1307,2019-08-07 16:52:44:635
-6.189,-6.4673,2.5492,-0.2714,-0.4301,0.1442,-0.075,-0.0869,0.1236,1313,2019-08-07 16:52:44:641
-6.189,-6.4673,2.5492,-0.2714,-0.4301,0.1442,-0.0878,-0.0911,0.1204,1318,2019-08-07 16:52:44:646
-6.189,-6.4673,2.5492,-0.2936,-0.3654,0.1495,-0.0878,-0.0911,0.1204,1322,2019-08-07 16:52:44:650
-6.189,-6.4816,2.5775,-0.2936,-0.3654,0.1495,-0.0942,-0.089,0.1204,1328,2019-08-07 16:52:44:656
-6.189,-6.4816,2.5775,-0.2936,-0.3654,0.1495,-0.0942,-0.089,0.1204,1333,2019-08-07 16:52:44:661
-6.189,-6.4816,2.5775,-0.2936,-0.3654,0.1495,-0.0942,-0.089,0.1204,1338,2019-08-07 16:52:44:666
-6.1937,-6.5437,2.5162,-0.2936,-0.3654,0.1495,-0.0964,-0.0815,0.115,1343,2019-08-07 16:52:44:671
-6.1937,-6.5437,2.5162,-0.2437,-0.2358,0.236,-0.0964,-0.0815,0.115,1347,2019-08-07 16:52:44:675
-6.1937,-6.5437,2.5162,-0.2437,-0.2358,0.236,-0.1049,-0.0517,0.1129,1353,2019-08-07 16:52:44:681
-6.2703,-6.5866,2.5398,-0.2437,-0.2358,0.236,-0.1049,-0.0517,0.1129,1357,2019-08-07 16:52:44:685
-6.2703,-6.5866,2.5398,-0.2085,-0.2362,0.0778,-0.1038,-0.0528,0.1076,1364,2019-08-07 16:52:44:692
-6.3229,-6.5723,2.5964,-0.2085,-0.2362,0.0778,-0.1038,-0.0528,0.1076,1367,2019-08-07 16:52:44:695
-6.3229,-6.5723,2.5964,-0.2085,-0.2362,0.0778,-0.1038,-0.0528,0.1076,1372,2019-08-07 16:52:44:700
-6.3229,-6.5723,2.5964,-0.2085,-0.2362,0.0778,-0.1038,-0.0677,0.1055,1378,2019-08-07 16:52:44:706
-6.3085,-6.6582,2.6341,-0.2085,-0.2362,0.0778,-0.0974,-0.0741,0.1001,1384,2019-08-07 16:52:44:712
-6.3085,-6.6582,2.6341,-0.1381,-0.1852,0.1287,-0.0974,-0.0741,0.1001,1387,2019-08-07 16:52:44:715
-6.3085,-6.6582,2.6341,-0.1381,-0.1852,0.1287,-0.0974,-0.0741,0.1001,1393,2019-08-07 16:52:44:721
-6.4185,-6.558,2.7001,-0.1381,-0.1852,0.1287,-0.0942,-0.1071,0.1001,1397,2019-08-07 16:52:44:725
-6.4185,-6.558,2.7001,-0.1272,-0.2342,0.0069,-0.0942,-0.1071,0.1001,1403,2019-08-07 16:52:44:731
-6.4185,-6.558,2.7001,-0.1272,-0.2342,0.0069,-0.0964,-0.1444,0.098,1408,2019-08-07 16:52:44:736
-6.3755,-6.5293,2.6765,-0.1272,-0.2342,0.0069,-0.0964,-0.1444,0.098,1413,2019-08-07 16:52:44:741
-6.3755,-6.5293,2.6765,-0.1272,-0.2342,0.0069,-0.0964,-0.1764,0.0969,1418,2019-08-07 16:52:44:746
-6.3659,-6.5723,2.6577,-0.1511,-0.2406,0.0534,-0.0964,-0.1764,0.0969,1423,2019-08-07 16:52:44:751
-6.3659,-6.5723,2.6577,-0.1511,-0.2406,0.0534,-0.1017,-0.1987,0.0959,1428,2019-08-07 16:52:44:756
-6.3659,-6.5723,2.6577,-0.1511,-0.2406,0.0534,-0.1017,-0.1987,0.0959,1434,2019-08-07 16:52:44:762
-6.4472,-6.5723,2.686,-0.1511,-0.2406,0.0534,-0.1017,-0.1987,0.0959,1438,2019-08-07 16:52:44:766
-6.4472,-6.5723,2.686,-0.1511,-0.2406,0.0534,-0.107,-0.2467,0.1076,1443,2019-08-07 16:52:44:771
-6.4472,-6.5723,2.686,-0.1962,-0.1751,-0.0206,-0.107,-0.2467,0.1076,1448,2019-08-07 16:52:44:776
-6.3036,-6.6105,2.8085,-0.1962,-0.1751,-0.0206,-0.0996,-0.2903,0.1076,1453,2019-08-07 16:52:44:781
-6.3036,-6.6105,2.8085,-0.1962,-0.1751,-0.0206,-0.0996,-0.2903,0.1076,1458,2019-08-07 16:52:44:786
-6.1745,-6.6487,2.6247,-0.1962,-0.1751,-0.0206,-0.0921,-0.2989,0.1076,1463,2019-08-07 16:52:44:791
-6.1745,-6.6487,2.6247,-0.4048,-0.1476,0.0898,-0.0921,-0.2989,0.1076,1468,2019-08-07 16:52:44:796
-6.1745,-6.6487,2.6247,-0.4048,-0.1476,0.0898,-0.0804,-0.2701,0.1055,1473,2019-08-07 16:52:44:801
-6.0118,-6.62,2.5163,-0.4048,-0.1476,0.0898,-0.0804,-0.2701,0.1055,1478,2019-08-07 16:52:44:806
-6.0118,-6.62,2.5163,-0.4048,-0.1476,0.0898,-0.0804,-0.2701,0.1055,1483,2019-08-07 16:52:44:811
-6.0022,-6.6248,2.7143,-0.5228,-0.1398,0.1126,-0.074,-0.2158,0.1044,1487,2019-08-07 16:52:44:815
-6.0022,-6.6248,2.7143,-0.5228,-0.1398,0.1126,-0.074,-0.2158,0.1044,1493,2019-08-07 16:52:44:821
-6.0022,-6.6248,2.7143,-0.5228,-0.1398,0.1126,-0.0623,-0.1657,0.1065,1498,2019-08-07 16:52:44:826
-6.05,-6.6057,2.7755,-0.5228,-0.1398,0.1126,-0.0623,-0.1657,0.1065,1503,2019-08-07 16:52:44:831
-6.05,-6.6057,2.7755,-0.4785,-0.178,-0.0937,-0.0516,-0.1508,0.1065,1508,2019-08-07 16:52:44:836
-6.05,-6.6391,2.9453,-0.4785,-0.178,-0.0937,-0.0516,-0.1508,0.1065,1513,2019-08-07 16:52:44:841
-6.05,-6.6391,2.9453,-0.4785,-0.178,-0.0937,-0.0463,-0.1689,0.1055,1518,2019-08-07 16:52:44:846
-6.05,-6.6391,2.9453,-0.4785,-0.178,-0.0937,-0.0463,-0.1689,0.1055,1523,2019-08-07 16:52:44:851
-6.05,-6.6391,2.9453,-0.4785,-0.178,-0.0937,-0.0463,-0.1689,0.1055,1527,2019-08-07 16:52:44:855
-5.9974,-6.6296,2.884,-0.5246,-0.1393,-0.0763,-0.0442,-0.1945,0.1055,1533,2019-08-07 16:52:44:861
-5.9974,-6.6296,2.884,-0.5246,-0.1393,-0.0763,-0.0442,-0.1945,0.1055,1538,2019-08-07 16:52:44:866
-5.8395,-6.8397,2.8133,-0.5246,-0.1393,-0.0763,-0.0346,-0.2009,0.1182,1543,2019-08-07 16:52:44:871
-5.8395,-6.8397,2.8133,-0.7741,0.1334,-0.002,-0.0346,-0.2009,0.1182,1548,2019-08-07 16:52:44:876
-5.7533,-6.9351,2.983,-0.7741,0.1334,-0.002,-0.0154,-0.1774,0.1353,1554,2019-08-07 16:52:44:882
-5.7533,-6.9351,2.983,-0.7741,0.1334,-0.002,-0.0154,-0.1774,0.1353,1557,2019-08-07 16:52:44:885
-5.7533,-6.9351,2.983,-0.7741,0.1334,-0.002,0.0368,-0.1423,0.1609,1563,2019-08-07 16:52:44:891
-5.7581,-7.0497,3.1762,-0.7175,0.3928,-0.4341,0.0368,-0.1423,0.1609,1568,2019-08-07 16:52:44:896
-5.7581,-7.0497,3.1762,-0.7175,0.3928,-0.4341,0.1188,-0.1188,0.1907,1573,2019-08-07 16:52:44:901
-5.9542,-7.3982,3.5251,-0.7175,0.3928,-0.4341,0.1188,-0.1188,0.1907,1578,2019-08-07 16:52:44:906
-5.9542,-7.3982,3.5251,-0.7175,0.3928,-0.4341,0.1188,-0.1188,0.1907,1584,2019-08-07 16:52:44:912
-5.9542,-7.3982,3.5251,-0.4321,0.884,-0.9685,0.219,-0.0911,0.228,1588,2019-08-07 16:52:44:916
-6.1025,-7.5844,3.9022,-0.4321,0.884,-0.9685,0.219,-0.0911,0.228,1593,2019-08-07 16:52:44:921
-6.1025,-7.5844,3.9022,-0.4321,0.884,-0.9685,0.3905,-0.0741,0.2674,1597,2019-08-07 16:52:44:925
-6.1025,-7.8469,4.2463,-0.4321,0.884,-0.9685,0.3905,-0.0741,0.2674,1604,2019-08-07 16:52:44:932
-6.1025,-7.8469,4.2463,-0.5434,1.3132,-1.362,0.5961,-0.0602,0.2972,1608,2019-08-07 16:52:44:936
-6.1025,-7.8469,4.2463,-0.5434,1.3132,-1.362,0.5961,-0.0602,0.2972,1613,2019-08-07 16:52:44:941
-5.7198,-8.3482,4.581,-0.5434,1.3132,-1.362,0.5961,-0.0602,0.2972,1618,2019-08-07 16:52:44:946
-5.7198,-8.3482,4.581,-0.5434,1.3132,-1.362,0.8347,0.025,0.2897,1623,2019-08-07 16:52:44:951
-5.7198,-8.3482,4.581,-0.5434,1.3132,-1.362,0.9891,0.1592,0.2834,1628,2019-08-07 16:52:44:956
-5.3514,-8.9354,4.5763,-1.246,2.3607,-1.4966,0.9891,0.1592,0.2834,1633,2019-08-07 16:52:44:961
-5.3514,-8.9354,4.5763,-1.246,2.3607,-1.4966,1.2555,0.5257,0.2461,1639,2019-08-07 16:52:44:967
-4.739,-9.8615,4.8827,-1.246,2.3607,-1.4966,1.2555,0.5257,0.2461,1643,2019-08-07 16:52:44:971
-4.739,-9.8615,4.8827,-2.083,3.7018,-1.7894,1.2555,0.5257,0.2461,1647,2019-08-07 16:52:44:975
-4.739,-9.8615,4.8827,-2.083,3.7018,-1.7894,1.4866,0.8751,0.2162,1653,2019-08-07 16:52:44:981
-4.2175,-10.7303,4.9628,-2.083,3.7018,-1.7894,1.4866,0.8751,0.2162,1657,2019-08-07 16:52:44:985
-4.2175,-10.7303,4.9628,-2.083,3.7018,-1.7894,1.7252,1.2735,0.1758,1663,2019-08-07 16:52:44:991
-3.9208,-11.4941,4.9958,-2.7946,5.1269,-1.7405,1.7252,1.2735,0.1758,1668,2019-08-07 16:52:44:996
-3.9208,-11.4941,4.9958,-2.7946,5.1269,-1.7405,1.9564,1.6932,0.1385,1672,2019-08-07 16:52:45:000
-3.9208,-11.4941,4.9958,-2.7946,5.1269,-1.7405,1.9564,1.6932,0.1385,1678,2019-08-07 16:52:45:006
-3.9256,-12.2054,5.2692,-2.7946,5.1269,-1.7405,2.1876,2.1033,0.1108,1682,2019-08-07 16:52:45:010
-3.9256,-12.2054,5.2692,-2.7793,6.3752,-2.0869,2.1876,2.1033,0.1108,1688,2019-08-07 16:52:45:016
-3.9256,-12.2054,5.2692,-2.7793,6.3752,-2.0869,2.4773,2.5134,0.0884,1693,2019-08-07 16:52:45:021
-4.3035,-13.0886,5.3965,-2.7793,6.3752,-2.0869,2.4773,2.5134,0.0884,1698,2019-08-07 16:52:45:026
-4.3035,-13.0886,5.3965,-2.7793,6.3752,-2.0869,2.4773,2.5134,0.0884,1703,2019-08-07 16:52:45:031
-4.3035,-13.0886,5.3965,-2.0728,7.633,-2.518,2.7149,2.7009,0.081,1709,2019-08-07 16:52:45:037
-5.0929,-13.7092,5.7642,-2.0728,7.633,-2.518,2.9908,2.751,0.0884,1713,2019-08-07 16:52:45:041
-5.0929,-13.7092,5.7642,-2.0728,7.633,-2.518,2.9908,2.751,0.0884,1719,2019-08-07 16:52:45:047
-5.3847,-13.9909,6.1978,-2.0728,7.633,-2.518,3.2869,2.6445,0.1076,1723,2019-08-07 16:52:45:051
-5.3847,-13.9909,6.1978,-2.0728,7.633,-2.518,3.2869,2.6445,0.1076,1728,2019-08-07 16:52:45:056
-5.3847,-13.9909,6.1978,-1.6624,8.0866,-3.2529,3.2869,2.6445,0.1076,1732,2019-08-07 16:52:45:060
-5.4565,-13.9718,6.4524,-1.6624,8.0866,-3.2529,3.6054,2.4357,0.1395,1738,2019-08-07 16:52:45:066
-5.4565,-13.9718,6.4524,-1.6624,8.0866,-3.2529,3.6054,2.4357,0.1395,1744,2019-08-07 16:52:45:072
-4.758,-14.0386,6.3722,-2.542,8.3884,-3.0525,3.9016,2.2354,0.1609,1749,2019-08-07 16:52:45:077
-4.758,-14.0386,6.3722,-2.542,8.3884,-3.0525,3.9016,2.2354,0.1609,1753,2019-08-07 16:52:45:081
-4.758,-14.0386,6.3722,-2.542,8.3884,-3.0525,4.1892,1.9904,0.1353,1758,2019-08-07 16:52:45:086
-3.8059,-14.1866,5.552,-2.542,8.3884,-3.0525,4.1892,1.9904,0.1353,1763,2019-08-07 16:52:45:091
-3.8059,-14.1866,5.552,-4.2386,8.8766,-1.4559,4.3799,1.9403,0.0639,1768,2019-08-07 16:52:45:096
-3.1648,-14.1675,5.0948,-4.2386,8.8766,-1.4559,4.3799,1.9403,0.0639,1773,2019-08-07 16:52:45:101
-3.1648,-14.1675,5.0948,-4.2386,8.8766,-1.4559,4.3799,1.9403,0.0639,1778,2019-08-07 16:52:45:106
-3.1648,-14.1675,5.0948,-4.3718,9.0002,-1.6442,4.6238,1.9904,0.0075,1784,2019-08-07 16:52:45:112
-2.8395,-14.4587,5.2079,-4.3718,9.0002,-1.6442,4.6238,1.9904,0.0075,1787,2019-08-07 16:52:45:115
-2.8395,-14.4587,5.2079,-4.3718,9.0002,-1.6442,4.9083,2.0703,0.0394,1793,2019-08-07 16:52:45:121
-2.8395,-14.4587,5.2079,-4.3718,9.0002,-1.6442,4.9083,2.0703,0.0394,1798,2019-08-07 16:52:45:126
-3.0117,-14.3203,4.7319,-4.5961,9.4128,-0.9537,5.1948,2.2919,0.0703,1803,2019-08-07 16:52:45:131
-3.0117,-14.3203,4.7319,-4.5961,9.4128,-0.9537,5.1948,2.2919,0.0703,1808,2019-08-07 16:52:45:136
-4.9349,-13.0457,5.6746,-4.5961,9.4128,-0.9537,5.3993,2.4325,0.2099,1812,2019-08-07 16:52:45:140
-4.9349,-13.0457,5.6746,-4.5961,9.4128,-0.9537,5.3993,2.4325,0.2099,1819,2019-08-07 16:52:45:147
-4.9349,-13.0457,5.6746,-1.9108,7.805,-2.0657,5.4547,2.2919,0.4794,1823,2019-08-07 16:52:45:151
-6.4659,-11.8283,5.8773,-1.9108,7.805,-2.0657,5.4547,2.2919,0.4794,1828,2019-08-07 16:52:45:156
-6.4659,-11.8283,5.8773,-1.9108,7.805,-2.0657,5.3173,2.0543,0.5912,1834,2019-08-07 16:52:45:162
-7.8676,-10.2482,5.0477,-1.9108,7.805,-2.0657,5.3173,2.0543,0.5912,1838,2019-08-07 16:52:45:166
-7.8676,-10.2482,5.0477,-0.0282,5.9362,-0.626,4.9818,1.5483,0.7201,1843,2019-08-07 16:52:45:171
-7.8676,-10.2482,5.0477,-0.0282,5.9362,-0.626,4.9818,1.5483,0.7201,1847,2019-08-07 16:52:45:175
-8.169,-8.9831,3.0208,-0.0282,5.9362,-0.626,4.6164,1.0093,0.8948,1852,2019-08-07 16:52:45:180
-8.169,-8.9831,3.0208,-0.0282,5.9362,-0.626,4.6164,1.0093,0.8948,1858,2019-08-07 16:52:45:186
-7.0878,-8.9258,0.744,-0.8199,5.3982,3.0819,4.2925,0.6599,1.1164,1863,2019-08-07 16:52:45:191
-7.0878,-8.9258,0.744,-0.8199,5.3982,3.0819,4.2925,0.6599,1.1164,1869,2019-08-07 16:52:45:197
-7.0878,-8.9258,0.744,-0.8199,5.3982,3.0819,4.0262,0.4713,1.355,1873,2019-08-07 16:52:45:201
-7.0878,-8.9258,0.744,-0.8199,5.3982,3.0819,4.0262,0.4713,1.355,1878,2019-08-07 16:52:45:206
-6.3749,-8.5821,-1.4574,-1.8526,5.3468,6.0385,3.8867,0.4213,1.5638,1883,2019-08-07 16:52:45:211
-6.3749,-8.5821,-1.4574,-1.8526,5.3468,6.0385,3.8867,0.4213,1.5638,1888,2019-08-07 16:52:45:216
-6.3749,-8.5821,-1.4574,-1.8526,5.3468,6.0385,3.8867,0.4213,1.5638,1893,2019-08-07 16:52:45:221
-6.6476,-6.5771,-2.4237,-1.8526,5.3468,6.0385,3.7077,0.3637,1.8078,1899,2019-08-07 16:52:45:227
-6.6476,-6.5771,-2.4237,-1.9367,3.0257,6.3349,3.7077,0.3637,1.8078,1903,2019-08-07 16:52:45:231
-6.1404,-4.787,-2.1456,-1.9367,3.0257,6.3349,3.3689,0.1912,2.0368,1907,2019-08-07 16:52:45:235
-6.1404,-4.787,-2.1456,-1.9367,3.0257,6.3349,3.3689,0.1912,2.0368,1913,2019-08-07 16:52:45:241
-6.1404,-4.787,-2.1456,-1.9367,3.0257,6.3349,2.9897,0.1752,2.1273,1918,2019-08-07 16:52:45:246
-5.6046,-2.9443,-2.8102,-3.0084,0.8366,7.4993,2.9897,0.1752,2.1273,1923,2019-08-07 16:52:45:251
-5.6046,-2.9443,-2.8102,-3.0084,0.8366,7.4993,2.9897,0.1752,2.1273,1927,2019-08-07 16:52:45:255
-5.6859,-1.2925,-2.8856,-3.0084,0.8366,7.4993,2.6073,0.2998,2.1955,1933,2019-08-07 16:52:45:261
-5.6859,-1.2925,-2.8856,-3.0084,0.8366,7.4993,2.6073,0.2998,2.1955,1937,2019-08-07 16:52:45:265
-5.6859,-1.2925,-2.8856,-1.7112,-1.1523,7.5517,2.3207,0.547,2.2509,1943,2019-08-07 16:52:45:271
-7.3891,0.2542,-3.1967,-1.7112,-1.1523,7.5517,2.1492,0.6332,2.2797,1948,2019-08-07 16:52:45:276
-7.3891,0.2542,-3.1967,-0.0685,-1.6784,7.7055,2.1492,0.6332,2.2797,1953,2019-08-07 16:52:45:281
-9.6185,1.0944,-3.555,1.0155,-1.6761,7.9417,1.9809,0.4873,2.2584,1968,2019-08-07 16:52:45:296
-9.6185,1.0944,-3.555,1.0155,-1.6761,7.9417,1.9809,0.4873,2.2584,1968,2019-08-07 16:52:45:296
-9.6185,1.0944,-3.555,1.0155,-1.6761,7.9417,1.9809,0.4873,2.2584,1968,2019-08-07 16:52:45:296
-9.6185,1.0944,-3.555,1.0155,-1.6761,7.9417,1.9809,0.4873,2.2584,1973,2019-08-07 16:52:45:301
-9.6185,1.0944,-3.555,1.0155,-1.6761,7.9417,1.9809,0.4873,2.2584,1978,2019-08-07 16:52:45:306
-11.116,1.6768,-3.5503,2.4009,-1.818,7.6937,1.6922,-0.4437,1.8994,1983,2019-08-07 16:52:45:311
-11.116,1.6768,-3.5503,2.4009,-1.818,7.6937,1.6922,-0.4437,1.8994,1988,2019-08-07 16:52:45:316
-10.7619,2.3022,-3.8849,2.4009,-1.818,7.6937,1.5537,-1.3758,1.6394,1992,2019-08-07 16:52:45:320
-10.7619,2.3022,-3.8849,2.4009,-1.818,7.6937,1.5537,-1.3758,1.6394,1998,2019-08-07 16:52:45:326
-10.7619,2.3022,-3.8849,1.2528,-2.3513,8.7693,1.4387,-2.0661,1.4285,2003,2019-08-07 16:52:45:331
-9.8194,2.8989,-4.6109,1.2528,-2.3513,8.7693,1.4387,-2.0661,1.4285,2007,2019-08-07 16:52:45:335
-9.8194,2.8989,-4.6109,1.2528,-2.3513,8.7693,1.264,-2.1492,1.1462,2013,2019-08-07 16:52:45:341
-7.9009,3.8346,-6.9301,1.2528,-2.3513,8.7693,1.264,-2.1492,1.1462,2018,2019-08-07 16:52:45:346
-7.9009,3.8346,-6.9301,-1.444,-3.54,10.9911,1.0733,-1.379,0.7713,2023,2019-08-07 16:52:45:351
-7.9009,3.8346,-6.9301,-1.444,-3.54,10.9911,1.0733,-1.379,0.7713,2028,2019-08-07 16:52:45:356
-6.9919,4.8036,-4.6486,-1.444,-3.54,10.9911,1.052,-0.9742,0.3888,2033,2019-08-07 16:52:45:361
-6.9919,4.8036,-4.6486,-1.444,-3.54,10.9911,1.052,-0.9742,0.3888,2038,2019-08-07 16:52:45:366
-6.9919,4.8036,-4.6486,-1.444,-3.54,10.9911,1.052,-0.9742,0.3888,2043,2019-08-07 16:52:45:371
-7.0397,5.6295,-5.0964,-1.4272,-4.6361,9.9502,1.0669,-0.5407,0.0373,2048,2019-08-07 16:52:45:376
-7.0397,5.6295,-5.0964,-1.4272,-4.6361,9.9502,1.0669,-0.5407,0.0373,2053,2019-08-07 16:52:45:381
-7.7717,6.484,-3.5738,-1.4272,-4.6361,9.9502,0.9614,0.1912,-0.4229,2058,2019-08-07 16:52:45:386
-7.7717,6.484,-3.5738,0.1075,-5.6376,7.3977,0.9614,0.1912,-0.4229,2063,2019-08-07 16:52:45:391
-7.7717,6.484,-3.5738,0.1075,-5.6376,7.3977,0.8155,0.3648,-0.7297,2068,2019-08-07 16:52:45:396
-9.7763,6.8086,-1.1368,0.1075,-5.6376,7.3977,0.8155,0.3648,-0.7297,2073,2019-08-07 16:52:45:401
-9.7763,6.8086,-1.1368,0.1075,-5.6376,7.3977,0.8155,0.3648,-0.7297,2078,2019-08-07 16:52:45:406
-9.7763,6.8086,-1.1368,0.1075,-5.6376,7.3977,0.6323,0.0921,-0.9864,2083,2019-08-07 16:52:45:411
-10.2738,7.0951,0.3575,1.7269,-6.0502,4.3429,0.6323,0.0921,-0.9864,2088,2019-08-07 16:52:45:416
-10.2738,7.0951,0.3575,1.7269,-6.0502,4.3429,0.481,-0.2893,-1.1452,2093,2019-08-07 16:52:45:421
-9.848,7.0521,0.7959,1.7269,-6.0502,4.3429,0.481,-0.2893,-1.1452,2098,2019-08-07 16:52:45:426
-9.848,7.0521,0.7959,0.5423,-6.0067,3.9045,0.3809,-0.5204,-1.2123,2103,2019-08-07 16:52:45:431
-9.848,7.0521,0.7959,0.5423,-6.0067,3.9045,0.3809,-0.5204,-1.2123,2108,2019-08-07 16:52:45:436
-7.8673,6.6893,0.5602,0.5423,-6.0067,3.9045,0.2861,-0.6142,-1.2613,2113,2019-08-07 16:52:45:441
-7.8673,6.6893,0.5602,-1.0519,-5.7703,4.2714,0.2861,-0.6142,-1.2613,2118,2019-08-07 16:52:45:446
-6.5612,6.3408,0.3481,-1.0519,-5.7703,4.2714,0.2009,-0.4065,-1.3465,2123,2019-08-07 16:52:45:451
-6.5612,6.3408,0.3481,-1.0519,-5.7703,4.2714,0.2009,-0.4065,-1.3465,2128,2019-08-07 16:52:45:456
-6.5612,6.3408,0.3481,-2.3321,-5.471,4.4433,0.138,0.123,-1.4338,2133,2019-08-07 16:52:45:461
-6.2741,6.126,0.3622,-2.3321,-5.471,4.4433,0.138,0.123,-1.4338,2138,2019-08-07 16:52:45:466
-6.2741,6.126,0.3622,-2.3321,-5.471,4.4433,0.138,0.123,-1.4338,2143,2019-08-07 16:52:45:471
-6.2741,6.126,0.3622,-2.3321,-5.471,4.4433,0.1114,0.5629,-1.436,2147,2019-08-07 16:52:45:475
-7.762,6.2835,1.239,-2.3321,-5.471,4.4433,0.1114,0.5629,-1.436,2153,2019-08-07 16:52:45:481
-7.762,6.2835,1.239,-0.1366,-5.7405,2.9742,0.0943,0.8239,-1.3678,2158,2019-08-07 16:52:45:486
-9.3934,5.9493,2.6107,-0.1366,-5.7405,2.9742,0.0943,0.8239,-1.3678,2163,2019-08-07 16:52:45:491
-9.3934,5.9493,2.6107,1.0108,-5.4603,1.6957,0.0826,0.8175,-1.2527,2167,2019-08-07 16:52:45:495
-9.3934,5.9493,2.6107,1.0108,-5.4603,1.6957,0.0826,0.8175,-1.2527,2173,2019-08-07 16:52:45:501
-10.2354,5.4338,3.841,1.0108,-5.4603,1.6957,0.0826,0.5203,-1.0855,2178,2019-08-07 16:52:45:506
-10.2354,5.4338,3.841,1.5654,-4.8701,0.419,0.0826,0.5203,-1.0855,2184,2019-08-07 16:52:45:512
-10.2115,5.1091,4.0155,1.5654,-4.8701,0.419,0.0762,0.1848,-0.9481,2187,2019-08-07 16:52:45:515
-10.2115,5.1091,4.0155,1.5654,-4.8701,0.419,0.0762,0.1848,-0.9481,2193,2019-08-07 16:52:45:521
-10.2115,5.1091,4.0155,1.5654,-4.8701,0.419,0.0762,0.1848,-0.9481,2198,2019-08-07 16:52:45:526
-9.1398,4.627,3.101,1.5654,-4.8701,0.419,0.0251,-0.1274,-0.7649,2203,2019-08-07 16:52:45:531
-9.1398,4.627,3.101,-0.0276,-4.1636,1.6267,0.0251,-0.1274,-0.7649,2208,2019-08-07 16:52:45:536
-8.1734,3.93,2.6767,-0.0276,-4.1636,1.6267,0.007,-0.1689,-0.6487,2213,2019-08-07 16:52:45:541
-8.1734,3.93,2.6767,-0.0276,-4.1636,1.6267,0.007,-0.1689,-0.6487,2218,2019-08-07 16:52:45:546
-8.1734,3.93,2.6767,-0.0276,-4.1636,1.6267,0.024,-0.0155,-0.5529,2223,2019-08-07 16:52:45:551
-7.9342,3.5911,2.2336,-0.7935,-3.5244,2.2452,0.024,-0.0155,-0.5529,2228,2019-08-07 16:52:45:556
-7.9342,3.5911,2.2336,-0.7935,-3.5244,2.2452,0.0176,0.1581,-0.4879,2233,2019-08-07 16:52:45:561
-8.4843,3.7629,2.0215,-0.7935,-3.5244,2.2452,0.0176,0.1581,-0.4879,2237,2019-08-07 16:52:45:565
-8.4843,3.7629,2.0215,-0.7935,-3.5244,2.2452,0.0176,0.1581,-0.4879,2243,2019-08-07 16:52:45:571
-8.4843,3.7629,2.0215,0.2543,-3.9827,2.2035,-0.0165,0.3179,-0.424,2248,2019-08-07 16:52:45:576
-9.3024,4.0923,2.4316,0.2543,-3.9827,2.2035,-0.0165,0.3179,-0.424,2253,2019-08-07 16:52:45:581
-9.3024,4.0923,2.4316,0.2543,-3.9827,2.2035,-0.0537,0.4149,-0.3324,2258,2019-08-07 16:52:45:586
-9.8143,4.1066,2.6438,0.2543,-3.9827,2.2035,-0.0537,0.4149,-0.3324,2263,2019-08-07 16:52:45:591
-9.8143,4.1066,2.6438,1.1024,-4.1185,1.7242,-0.0974,0.3925,-0.3057,2268,2019-08-07 16:52:45:596
-9.8143,4.1066,2.6438,1.1024,-4.1185,1.7242,-0.0974,0.3925,-0.3057,2273,2019-08-07 16:52:45:601
-10.1205,4.226,2.6485,1.3086,-4.265,1.6626,-0.1656,0.2774,-0.3174,2278,2019-08-07 16:52:45:606
-10.1205,4.226,2.6485,1.3086,-4.265,1.6626,-0.1656,0.2774,-0.3174,2283,2019-08-07 16:52:45:611
-10.0248,4.3119,2.13,1.3086,-4.265,1.6626,-0.2956,0.0932,-0.3611,2288,2019-08-07 16:52:45:616
-10.0248,4.3119,2.13,1.1498,-4.3659,2.4077,-0.2956,0.0932,-0.3611,2294,2019-08-07 16:52:45:622
-10.0248,4.3119,2.13,1.1498,-4.3659,2.4077,-0.4234,-0.0507,-0.4176,2298,2019-08-07 16:52:45:626
-9.886,4.2164,1.8094,1.1498,-4.3659,2.4077,-0.4234,-0.0507,-0.4176,2303,2019-08-07 16:52:45:631
-9.886,4.2164,1.8094,1.1498,-4.3659,2.4077,-0.5555,-0.1561,-0.5028,2309,2019-08-07 16:52:45:637
-9.886,3.8586,1.7195,1.1498,-4.3659,2.4077,-0.5555,-0.1561,-0.5028,2313,2019-08-07 16:52:45:641
-9.8494,3.8586,1.7195,1.0294,-3.9249,2.5793,-0.5555,-0.1561,-0.5028,2318,2019-08-07 16:52:45:646
-9.8494,3.8586,1.7195,1.0294,-3.9249,2.5793,-0.7589,-0.2861,-0.7254,2322,2019-08-07 16:52:45:650
-9.8494,3.3478,1.5121,1.0283,-3.6187,2.7716,-0.7589,-0.2861,-0.7254,2328,2019-08-07 16:52:45:656
-9.8494,3.3478,1.5121,1.0283,-3.6187,2.7716,-0.9773,-0.4373,-0.9896,2333,2019-08-07 16:52:45:661
-9.8494,3.3478,1.5121,1.0283,-3.6187,2.7716,-0.9773,-0.4373,-0.9896,2337,2019-08-07 16:52:45:665
-8.9404,2.5935,1.201,1.0283,-3.6187,2.7716,-1.2468,-0.6131,-1.305,2343,2019-08-07 16:52:45:671
-8.9404,2.5935,1.201,-0.5279,-2.6976,3.8168,-1.2468,-0.6131,-1.305,2348,2019-08-07 16:52:45:676
-8.9404,2.5935,1.201,-0.5279,-2.6976,3.8168,-1.2468,-0.6131,-1.305,2352,2019-08-07 16:52:45:680
-8.2037,2.0922,0.3384,-0.5279,-2.6976,3.8168,-1.6112,-0.5332,-1.6181,2358,2019-08-07 16:52:45:686
-8.2037,2.0922,0.3384,-0.5279,-2.6976,3.8168,-1.6112,-0.5332,-1.6181,2363,2019-08-07 16:52:45:691
-8.0984,1.7533,1.1586,-0.6282,-2.6952,3.2228,-1.7614,-0.2989,-1.6629,2368,2019-08-07 16:52:45:696
-8.0984,1.7533,1.1586,-0.6282,-2.6952,3.2228,-1.7614,-0.2989,-1.6629,2373,2019-08-07 16:52:45:701
-8.0984,1.7533,1.1586,-0.6282,-2.6952,3.2228,-1.7326,5.0E-4,-1.681,2378,2019-08-07 16:52:45:706
-8.0267,0.6887,0.9229,-0.6282,-2.6952,3.2228,-1.7326,5.0E-4,-1.681,2383,2019-08-07 16:52:45:711
-8.0267,0.6887,0.9229,-0.0881,-1.6523,3.332,-1.7656,0.2796,-1.7385,2388,2019-08-07 16:52:45:716
-9.0744,0.0681,1.4555,-0.0881,-1.6523,3.332,-1.7656,0.2796,-1.7385,2393,2019-08-07 16:52:45:721
-9.0744,0.0681,1.4555,-0.0881,-1.6523,3.332,-1.8956,0.3179,-1.7673,2398,2019-08-07 16:52:45:726
-9.0744,0.0681,1.4555,-0.0881,-1.6523,3.332,-1.8956,0.3179,-1.7673,2403,2019-08-07 16:52:45:731
-9.816,-0.4808,2.4313,1.1809,-1.212,1.7024,-2.0085,0.091,-1.812,2408,2019-08-07 16:52:45:736
-9.816,-0.4808,2.4313,1.1809,-1.212,1.7024,-2.0085,0.091,-1.812,2413,2019-08-07 16:52:45:741
-9.8686,-1.2256,2.1814,1.1809,-1.212,1.7024,-2.1449,-0.2935,-1.8983,2418,2019-08-07 16:52:45:746
-9.8686,-1.2256,2.1814,1.1809,-1.212,1.7024,-2.1449,-0.2935,-1.8983,2423,2019-08-07 16:52:45:751
-9.8686,-1.2256,2.1814,1.1809,-1.212,1.7024,-2.3505,-0.7772,-1.9974,2427,2019-08-07 16:52:45:755
-10.2657,-1.5836,2.0165,1.6902,-0.7734,2.1238,-2.3505,-0.7772,-1.9974,2434,2019-08-07 16:52:45:762
-10.2657,-1.5836,2.0165,1.6902,-0.7734,2.1238,-2.6764,-1.3705,-2.1284,2438,2019-08-07 16:52:45:766
-10.0935,-1.8939,1.9269,1.6902,-0.7734,2.1238,-2.6764,-1.3705,-2.1284,2443,2019-08-07 16:52:45:771
-10.0935,-1.8939,1.9269,1.4498,-0.8767,2.6376,-2.9992,-1.9042,-2.2136,2448,2019-08-07 16:52:45:776
-9.5864,-2.1278,1.2952,1.4498,-0.8767,2.6376,-2.9992,-1.9042,-2.2136,2453,2019-08-07 16:52:45:781
-9.5864,-2.1278,1.2952,1.4498,-0.8767,2.6376,-3.339,-2.4251,-2.2179,2458,2019-08-07 16:52:45:786
-9.5864,-2.1278,1.2952,1.4498,-0.8767,2.6376,-3.339,-2.4251,-2.2179,2463,2019-08-07 16:52:45:791
-8.5195,-2.6959,1.2481,0.2697,-0.6998,3.0605,-3.5904,-2.831,-2.1646,2468,2019-08-07 16:52:45:796
-8.5195,-2.6959,1.2481,0.2697,-0.6998,3.0605,-3.5904,-2.831,-2.1646,2473,2019-08-07 16:52:45:801
-7.5483,-3.4549,1.333,0.2697,-0.6998,3.0605,-3.5904,-2.831,-2.1646,2477,2019-08-07 16:52:45:805
-7.5483,-3.4549,1.333,0.2697,-0.6998,3.0605,-3.7097,-3.0749,-2.0837,2483,2019-08-07 16:52:45:811
-7.5483,-3.4549,1.333,-1.095,-0.0718,3.6574,-3.7949,-3.2379,-1.9718,2488,2019-08-07 16:52:45:816
-6.3092,-4.2808,0.7814,-1.095,-0.0718,3.6574,-3.7949,-3.2379,-1.9718,2492,2019-08-07 16:52:45:820
-6.3092,-4.2808,0.7814,-1.095,-0.0718,3.6574,-3.7949,-3.2379,-1.9718,2498,2019-08-07 16:52:45:826
-6.3092,-4.2808,0.7814,-1.095,-0.0718,3.6574,-3.8951,-3.3604,-1.8269,2502,2019-08-07 16:52:45:830
-5.7159,-4.6436,0.8616,-1.095,-0.0718,3.6574,-3.8951,-3.3604,-1.8269,2508,2019-08-07 16:52:45:836
-5.7159,-4.6436,0.8616,-1.6076,-0.0911,3.6028,-3.975,-3.4808,-1.5755,2513,2019-08-07 16:52:45:841
-5.405,-5.0207,0.8804,-1.6076,-0.0911,3.6028,-3.975,-3.4808,-1.5755,2518,2019-08-07 16:52:45:846
-5.405,-5.0207,0.8804,-1.6076,-0.0911,3.6028,-3.975,-3.4808,-1.5755,2522,2019-08-07 16:52:45:850
-5.405,-5.0207,0.8804,-1.6076,-0.0911,3.6028,-4.0155,-3.5607,-1.2666,2528,2019-08-07 16:52:45:856
-5.3667,-5.2403,0.937,-1.2797,-0.2582,3.735,-4.0155,-3.5607,-1.2666,2533,2019-08-07 16:52:45:861
-5.3667,-5.2403,0.937,-1.2797,-0.2582,3.735,-4.0836,-3.6502,-0.9982,2538,2019-08-07 16:52:45:866
-5.2327,-5.3167,0.8521,-1.2797,-0.2582,3.735,-4.0836,-3.6502,-0.9982,2542,2019-08-07 16:52:45:870
-5.2327,-5.3167,0.8521,-1.2797,-0.2582,3.735,-4.1912,-3.8153,-0.7105,2548,2019-08-07 16:52:45:876
-5.2327,-5.3167,0.8521,-1.1447,-0.3647,5.0717,-4.1912,-3.8153,-0.7105,2553,2019-08-07 16:52:45:881
-4.8213,-6.0089,-0.4017,-1.1447,-0.3647,5.0717,-4.2924,-3.8132,-0.4549,2558,2019-08-07 16:52:45:886
-4.8213,-6.0089,-0.4017,-1.1447,-0.3647,5.0717,-4.2924,-3.8132,-0.4549,2563,2019-08-07 16:52:45:891
-4.2041,-7.2167,-0.6469,-1.1447,-0.3647,5.0717,-4.3105,-3.8504,-0.2408,2568,2019-08-07 16:52:45:896
-4.2041,-7.2167,-0.6469,-1.7883,0.9939,5.3588,-4.3105,-3.8504,-0.2408,2573,2019-08-07 16:52:45:901
-4.2041,-7.2167,-0.6469,-1.7883,0.9939,5.3588,-4.2221,-3.745,-0.0075,2578,2019-08-07 16:52:45:906
-3.453,-8.878,-0.8967,-1.7883,0.9939,5.3588,-4.2221,-3.745,-0.0075,2583,2019-08-07 16:52:45:911
-3.453,-8.878,-0.8967,-1.7883,0.9939,5.3588,-4.2221,-3.745,-0.0075,2587,2019-08-07 16:52:45:915
-3.453,-8.878,-0.8967,-2.5868,3.3216,5.1705,-4.0165,-3.5213,0.2216,2593,2019-08-07 16:52:45:921
-2.6971,-10.5011,-0.8684,-2.5868,3.3216,5.1705,-4.0165,-3.5213,0.2216,2598,2019-08-07 16:52:45:926
-2.6971,-10.5011,-0.8684,-2.5868,3.3216,5.1705,-3.7768,-3.2251,0.3973,2603,2019-08-07 16:52:45:931
-2.0321,-12.2483,-0.5526,-2.5868,3.3216,5.1705,-3.7768,-3.2251,0.3973,2607,2019-08-07 16:52:45:935
-2.0321,-12.2483,-0.5526,-3.2138,5.1976,4.4775,-3.4786,-2.8342,0.5252,2613,2019-08-07 16:52:45:941
-2.0321,-12.2483,-0.5526,-3.2138,5.1976,4.4775,-3.4786,-2.8342,0.5252,2618,2019-08-07 16:52:45:946
-2.3,-12.5825,0.5269,-3.2138,5.1976,4.4775,-3.1483,-2.4613,0.6115,2623,2019-08-07 16:52:45:951
-2.3,-12.5825,0.5269,-3.2138,5.1976,4.4775,-3.1483,-2.4613,0.6115,2627,2019-08-07 16:52:45:955
-3.0607,-12.0287,1.776,-2.0206,4.5872,2.1021,-2.8522,-2.2653,0.7084,2633,2019-08-07 16:52:45:961
-3.0607,-12.0287,1.776,-2.0206,4.5872,2.1021,-2.8522,-2.2653,0.7084,2638,2019-08-07 16:52:45:966
-4.0894,-10.8925,2.5821,-2.0206,4.5872,2.1021,-2.6541,-2.26,0.8756,2644,2019-08-07 16:52:45:972
-4.0894,-10.8925,2.5821,-2.0206,4.5872,2.1021,-2.6541,-2.26,0.8756,2648,2019-08-07 16:52:45:976
-4.0894,-10.8925,2.5821,-0.7639,2.8535,1.0675,-2.6541,-2.26,0.8756,2653,2019-08-07 16:52:45:981
-4.0894,-10.8925,2.5821,-0.7639,2.8535,1.0675,-2.6647,-2.4581,1.0056,2657,2019-08-07 16:52:45:985
-4.2329,-10.1144,2.403,-0.7639,2.8535,1.0675,-2.6647,-2.4581,1.0056,2663,2019-08-07 16:52:45:991
-4.2329,-10.1144,2.403,-0.7639,2.8535,1.0675,-2.7361,-2.7159,1.0514,2668,2019-08-07 16:52:45:996
-3.5009,-10.1765,2.139,-1.4809,2.4905,1.3744,-2.7361,-2.7159,1.0514,2673,2019-08-07 16:52:46:001
-3.5009,-10.1765,2.139,-1.4809,2.4905,1.3744,-2.7723,-2.9886,1.0866,2677,2019-08-07 16:52:46:005
-1.8934,-11.1408,0.7861,-1.4809,2.4905,1.3744,-2.7723,-2.9886,1.0866,2683,2019-08-07 16:52:46:011
-1.8934,-11.1408,0.7861,-1.4809,2.4905,1.3744,-2.7542,-3.0867,1.1196,2688,2019-08-07 16:52:46:016
-1.8934,-11.1408,0.7861,-3.7718,4.225,3.2854,-2.7542,-3.0867,1.1196,2693,2019-08-07 16:52:46:021
-0.9461,-12.5777,-0.4819,-3.7718,4.225,3.2854,-2.637,-2.9386,1.1334,2698,2019-08-07 16:52:46:026
-0.9461,-12.5777,-0.4819,-3.7718,4.225,3.2854,-2.637,-2.9386,1.1334,2703,2019-08-07 16:52:46:031
-0.9461,-12.5777,-0.4819,-3.7718,4.225,3.2854,-2.637,-2.9386,1.1334,2707,2019-08-07 16:52:46:035
-0.7356,-14.0433,-0.2933,-4.0759,6.3854,3.2412,-2.2908,-2.3857,1.1366,2714,2019-08-07 16:52:46:042
-0.7356,-14.0433,-0.2933,-4.0759,6.3854,3.2412,-2.2908,-2.3857,1.1366,2718,2019-08-07 16:52:46:046
-0.7356,-14.0433,-0.2933,-4.0759,6.3854,3.2412,-2.2908,-2.3857,1.1366,2722,2019-08-07 16:52:46:050
-1.1136,-14.5302,0.607,-3.024,6.5677,2.1249,-2.0,-2.1364,1.1079,2728,2019-08-07 16:52:46:056
-1.1136,-14.5302,0.607,-3.024,6.5677,2.1249,-2.0,-2.1364,1.1079,2733,2019-08-07 16:52:46:061
-3.2235,-13.4322,2.9026,-3.024,6.5677,2.1249,-1.3214,-2.1631,1.1111,2739,2019-08-07 16:52:46:067
-3.2235,-13.4322,2.9026,-3.024,6.5677,2.1249,-1.3214,-2.1631,1.1111,2743,2019-08-07 16:52:46:071
-3.2235,-13.4322,2.9026,-1.6726,5.1358,-0.3313,-1.0924,-2.3559,1.127,2749,2019-08-07 16:52:46:077
-3.1613,-12.234,3.902,-1.6726,5.1358,-0.3313,-1.0924,-2.3559,1.127,2753,2019-08-07 16:52:46:081
-3.1613,-12.234,3.902,-1.6726,5.1358,-0.3313,-0.9177,-2.8491,1.077,2757,2019-08-07 16:52:46:085
-2.3767,-11.2792,3.6757,-2.8552,3.1754,-0.3319,-0.9177,-2.8491,1.077,2764,2019-08-07 16:52:46:092
-2.3767,-11.2792,3.6757,-2.8552,3.1754,-0.3319,-0.9635,-2.9418,0.9726,2768,2019-08-07 16:52:46:096
-2.3767,-11.2792,3.6757,-2.8552,3.1754,-0.3319,-0.9635,-2.9418,0.9726,2773,2019-08-07 16:52:46:101
-0.5299,-10.5345,2.6481,-2.8552,3.1754,-0.3319,-0.9827,-2.7138,0.8586,2779,2019-08-07 16:52:46:107
-0.5299,-10.5345,2.6481,-5.2384,2.9343,1.417,-0.9827,-2.7138,0.8586,2783,2019-08-07 16:52:46:111
0.9723,-11.2028,1.4838,-5.2384,2.9343,1.417,-0.9827,-2.7138,0.8586,2787,2019-08-07 16:52:46:115
0.9723,-11.2028,1.4838,-5.2384,2.9343,1.417,-0.9368,-1.9298,0.7329,2793,2019-08-07 16:52:46:121
0.9723,-11.2028,1.4838,-6.1868,3.8087,2.2114,-0.9368,-1.9298,0.7329,2798,2019-08-07 16:52:46:126
1.5608,-12.2196,0.8945,-6.1868,3.8087,2.2114,-0.8644,-1.0136,0.5944,2803,2019-08-07 16:52:46:131
1.5608,-12.2196,0.8945,-6.1868,3.8087,2.2114,-0.8644,-1.0136,0.5944,2808,2019-08-07 16:52:46:136
0.4317,-12.4679,1.2905,-5.226,4.5746,2.018,-0.7366,-0.1028,0.4133,2813,2019-08-07 16:52:46:141
0.4317,-12.4679,1.2905,-5.226,4.5746,2.018,-0.7366,-0.1028,0.4133,2817,2019-08-07 16:52:46:145
0.4317,-12.4679,1.2905,-5.226,4.5746,2.018,-0.5576,0.6098,0.2301,2823,2019-08-07 16:52:46:151
-1.9174,-11.8664,2.2427,-5.226,4.5746,2.018,-0.5576,0.6098,0.2301,2830,2019-08-07 16:52:46:158
-1.9174,-11.8664,2.2427,-1.8449,3.5737,0.1651,-0.434,0.7355,0.1704,2833,2019-08-07 16:52:46:161
-1.9174,-11.8664,2.2427,-1.8449,3.5737,0.1651,-0.434,0.7355,0.1704,2837,2019-08-07 16:52:46:165
-3.8407,-11.1312,3.5437,-1.8449,3.5737,0.1651,-0.434,0.7355,0.1704,2843,2019-08-07 16:52:46:171
-3.8407,-11.1312,3.5437,-0.8282,3.0386,-0.4478,-0.3233,0.5544,0.1172,2848,2019-08-07 16:52:46:176
-4.587,-10.4915,3.8831,-0.8282,3.0386,-0.4478,-0.3233,0.5544,0.1172,2853,2019-08-07 16:52:46:181
-4.587,-10.4915,3.8831,-0.8282,3.0386,-0.4478,-0.3233,0.5544,0.1172,2858,2019-08-07 16:52:46:186
-4.587,-10.4915,3.8831,-0.8282,3.0386,-0.4478,-0.2071,0.1187,0.0298,2862,2019-08-07 16:52:46:190
-4.587,-9.7993,3.9868,-0.27,1.9549,-0.9518,-0.2071,0.1187,0.0298,2869,2019-08-07 16:52:46:197
-4.587,-9.7993,3.9868,-0.27,1.9549,-0.9518,-0.1486,-0.2637,-0.0011,2872,2019-08-07 16:52:46:200
-4.587,-9.7993,3.9868,-0.27,1.9549,-0.9518,-0.1486,-0.2637,-0.0011,2878,2019-08-07 16:52:46:206
-3.7929,-9.4652,3.6003,-0.27,1.9549,-0.9518,-0.0985,-0.4107,-0.0234,2883,2019-08-07 16:52:46:211
-3.7929,-9.4652,3.6003,-1.4821,1.4156,-0.3517,-0.0985,-0.4107,-0.0234,2887,2019-08-07 16:52:46:215
-3.7929,-9.4652,3.6003,-1.4821,1.4156,-0.3517,-0.0985,-0.4107,-0.0234,2893,2019-08-07 16:52:46:221
-2.9365,-9.3028,2.9686,-1.4821,1.4156,-0.3517,-0.0505,-0.3511,-0.0554,2898,2019-08-07 16:52:46:226
-2.9365,-9.3028,2.9686,-1.4821,1.4156,-0.3517,-0.0505,-0.3511,-0.0554,2903,2019-08-07 16:52:46:231
-2.9365,-9.3028,2.9686,-2.2696,1.1724,0.5709,0.0347,-0.0443,-0.1065,2908,2019-08-07 16:52:46:236
-2.6159,-9.1596,2.4737,-2.2696,1.1724,0.5709,0.0347,-0.0443,-0.1065,2914,2019-08-07 16:52:46:242
-2.6159,-9.1596,2.4737,-2.2696,1.1724,0.5709,0.0965,0.1304,-0.1246,2917,2019-08-07 16:52:46:245
-2.6159,-9.1596,2.4737,-2.2696,1.1724,0.5709,0.0965,0.1304,-0.1246,2924,2019-08-07 16:52:46:252
-3.3097,-8.9114,2.8319,-1.4794,0.9122,0.22,0.1614,0.2008,-0.1214,2928,2019-08-07 16:52:46:256
-3.3097,-8.9114,2.8319,-1.4794,0.9122,0.22,0.1614,0.2008,-0.1214,2934,2019-08-07 16:52:46:262
-4.0177,-8.6822,3.2609,-1.4794,0.9122,0.22,0.1614,0.2008,-0.1214,2938,2019-08-07 16:52:46:266
-4.0177,-8.6822,3.2609,-1.4794,0.9122,0.22,0.2275,0.0761,-0.0991,2943,2019-08-07 16:52:46:271
-4.0177,-8.6822,3.2609,-0.5823,0.4606,-0.4213,0.2275,0.0761,-0.0991,2948,2019-08-07 16:52:46:276
-4.2761,-8.3051,3.6003,-0.5823,0.4606,-0.4213,0.2594,-0.1316,-0.0692,2953,2019-08-07 16:52:46:281
-4.2761,-8.3051,3.6003,-0.5823,0.4606,-0.4213,0.2594,-0.1316,-0.0692,2958,2019-08-07 16:52:46:286
-4.0034,-8.0951,3.4541,-0.5823,0.4606,-0.4213,0.2754,-0.3553,-0.0298,2963,2019-08-07 16:52:46:291
-4.0034,-8.0951,3.4541,-0.8708,0.1078,-0.2971,0.2754,-0.3553,-0.0298,2967,2019-08-07 16:52:46:295
-4.0034,-8.0951,3.4541,-0.8708,0.1078,-0.2971,0.2808,-0.5226,0.0053,2973,2019-08-07 16:52:46:301
-3.4006,-8.0378,3.0582,-0.8708,0.1078,-0.2971,0.2808,-0.5226,0.0053,2977,2019-08-07 16:52:46:305
-3.4006,-8.0378,3.0582,-0.8708,0.1078,-0.2971,0.2957,-0.53,0.0149,2983,2019-08-07 16:52:46:311
-2.6973,-8.0998,2.6198,-1.8625,0.126,0.529,0.2957,-0.53,0.0149,2988,2019-08-07 16:52:46:316
-2.6973,-8.0998,2.6198,-1.8625,0.126,0.529,0.3234,-0.4043,0.0181,2995,2019-08-07 16:52:46:323
-2.6973,-8.0998,2.6198,-2.282,0.1276,0.9044,0.3234,-0.4043,0.0181,2998,2019-08-07 16:52:46:326
-2.2859,-8.0569,2.3747,-2.282,0.1276,0.9044,0.3234,-0.4043,0.0181,3003,2019-08-07 16:52:46:331
-2.2859,-8.0569,2.3747,-2.282,0.1276,0.9044,0.3638,-0.0794,-0.0032,3007,2019-08-07 16:52:46:335
-2.3337,-7.9041,2.3511,-2.282,0.1276,0.9044,0.3638,-0.0794,-0.0032,3013,2019-08-07 16:52:46:341
-2.3337,-7.9041,2.3511,-2.282,0.1276,0.9044,0.3638,-0.0794,-0.0032,3018,2019-08-07 16:52:46:346
-2.3337,-7.9041,2.3511,-2.2684,-0.0839,0.9916,0.3766,0.2199,-0.032,3022,2019-08-07 16:52:46:350
-2.7452,-7.7275,2.4501,-2.2684,-0.0839,0.9916,0.3766,0.2199,-0.032,3028,2019-08-07 16:52:46:356
-2.7452,-7.7275,2.4501,-2.2684,-0.0839,0.9916,0.3766,0.2199,-0.032,3033,2019-08-07 16:52:46:361
-2.7452,-7.7275,2.4501,-1.4261,-0.2634,0.5251,0.3479,0.613,-0.0767,3037,2019-08-07 16:52:46:365
-3.5681,-7.7227,2.9309,-1.4261,-0.2634,0.5251,0.3479,0.613,-0.0767,3043,2019-08-07 16:52:46:371
-3.5681,-7.7227,2.9309,-1.4261,-0.2634,0.5251,0.318,0.6993,-0.082,3047,2019-08-07 16:52:46:375
-4.0896,-7.7084,3.4447,-1.4261,-0.2634,0.5251,0.318,0.6993,-0.082,3053,2019-08-07 16:52:46:381
-4.0896,-7.7084,3.4447,-0.5125,-0.2092,-0.177,0.318,0.6993,-0.082,3057,2019-08-07 16:52:46:385
-4.0896,-7.7084,3.4447,-0.5125,-0.2092,-0.177,0.2594,0.6024,-0.0607,3063,2019-08-07 16:52:46:391
-4.6158,-7.78,3.6379,-0.0951,-0.1505,-0.2988,0.2594,0.6024,-0.0607,3068,2019-08-07 16:52:46:396
-4.6158,-7.78,3.6379,-0.0951,-0.1505,-0.2988,0.1913,0.2519,-0.0075,3072,2019-08-07 16:52:46:400
-4.6158,-7.78,3.6379,-0.0951,-0.1505,-0.2988,0.1913,0.2519,-0.0075,3078,2019-08-07 16:52:46:406
-4.4962,-7.7991,3.9161,-0.0951,-0.1505,-0.2988,0.1614,-0.0187,0.0266,3084,2019-08-07 16:52:46:412
-4.4962,-7.7991,3.9161,-0.5587,-0.1084,-0.4069,0.1614,-0.0187,0.0266,3088,2019-08-07 16:52:46:416
-4.4962,-7.7991,3.9161,-0.5587,-0.1084,-0.4069,0.1614,-0.0187,0.0266,3093,2019-08-07 16:52:46:421
-3.8839,-7.7609,3.5248,-0.5587,-0.1084,-0.4069,0.1305,-0.2275,0.065,3098,2019-08-07 16:52:46:426
-3.8839,-7.7609,3.5248,-0.5587,-0.1084,-0.4069,0.1305,-0.2275,0.065,3103,2019-08-07 16:52:46:431
-3.8839,-7.7609,3.5248,-1.5467,0.0463,0.5415,0.0975,-0.2499,0.0905,3108,2019-08-07 16:52:46:436
-3.0418,-7.9566,2.8036,-1.5467,0.0463,0.5415,0.0975,-0.2499,0.0905,3113,2019-08-07 16:52:46:441
-3.0418,-7.9566,2.8036,-1.5467,0.0463,0.5415,0.0901,-0.0986,0.0778,3117,2019-08-07 16:52:46:445
-2.9031,-7.9948,2.5821,-1.5467,0.0463,0.5415,0.0901,-0.0986,0.0778,3123,2019-08-07 16:52:46:451
-2.9031,-7.9948,2.5821,-1.7701,0.1142,0.9174,0.1007,0.1027,0.0596,3128,2019-08-07 16:52:46:456
-2.9031,-7.9948,2.5821,-1.7701,0.1142,0.9174,0.1007,0.1027,0.0596,3133,2019-08-07 16:52:46:461
-3.0562,-8.0378,2.5538,-1.7701,0.1142,0.9174,0.1199,0.3478,0.0341,3138,2019-08-07 16:52:46:466
-3.0562,-8.0378,2.5538,-1.7701,0.1142,0.9174,0.1199,0.3478,0.0341,3143,2019-08-07 16:52:46:471
-3.4342,-8.0139,2.5773,-1.1377,0.0895,0.8257,0.1327,0.532,0.0064,3149,2019-08-07 16:52:46:477
-3.4342,-8.0139,2.5773,-1.1377,0.0895,0.8257,0.1327,0.532,0.0064,3152,2019-08-07 16:52:46:480
-3.4342,-8.0139,2.5773,-1.1377,0.0895,0.8257,0.1497,0.7781,-0.0384,3158,2019-08-07 16:52:46:486
-4.0513,-7.8802,2.9733,-1.1377,0.0895,0.8257,0.1497,0.7781,-0.0384,3163,2019-08-07 16:52:46:491
-4.0513,-7.8802,2.9733,-0.3467,-0.0791,0.3746,0.1593,0.8559,-0.0692,3168,2019-08-07 16:52:46:496
-4.6015,-7.7752,3.143,-0.3467,-0.0791,0.3746,0.1593,0.8559,-0.0692,3173,2019-08-07 16:52:46:501
-4.6015,-7.7752,3.143,-0.3467,-0.0791,0.3746,0.1593,0.8559,-0.0692,3178,2019-08-07 16:52:46:506
-4.6015,-7.7752,3.143,0.0417,-0.0966,0.0155,0.1614,0.857,-0.0906,3183,2019-08-07 16:52:46:511
-5.0847,-7.7848,3.5767,0.0417,-0.0966,0.0155,0.1614,0.857,-0.0906,3187,2019-08-07 16:52:46:515
-5.0847,-7.7848,3.5767,0.0417,-0.0966,0.0155,0.1593,0.7376,-0.1012,3194,2019-08-07 16:52:46:522
-5.0847,-7.7848,3.5767,0.0417,-0.0966,0.0155,0.1593,0.7376,-0.1012,3199,2019-08-07 16:52:46:527
-5.3287,-7.7179,3.8689,0.5062,-0.1696,-0.5876,0.1465,0.6034,-0.1065,3202,2019-08-07 16:52:46:530
-5.3287,-7.7179,3.8689,0.5062,-0.1696,-0.5876,0.1465,0.6034,-0.1065,3208,2019-08-07 16:52:46:536
-5.3287,-7.7179,3.8689,0.5062,-0.1696,-0.5876,0.122,0.3265,-0.0959,3213,2019-08-07 16:52:46:541
-5.19,-7.6224,3.7793,0.5062,-0.1696,-0.5876,0.122,0.3265,-0.0959,3218,2019-08-07 16:52:46:546
-5.19,-7.6224,3.7793,0.2962,-0.3251,-0.556,0.1103,0.1507,-0.0884,3222,2019-08-07 16:52:46:550
-4.9125,-7.5174,3.6992,0.2962,-0.3251,-0.556,0.1103,0.1507,-0.0884,3228,2019-08-07 16:52:46:556
-4.9125,-7.5174,3.6992,0.2962,-0.3251,-0.556,0.0954,0.0303,-0.081,3233,2019-08-07 16:52:46:561
-4.9125,-7.5174,3.6992,0.2962,-0.3251,-0.556,0.0954,0.0303,-0.081,3238,2019-08-07 16:52:46:566
-4.592,-7.4745,3.5767,-0.2367,-0.4105,-0.2984,0.072,-0.0379,-0.0714,3243,2019-08-07 16:52:46:571
-4.592,-7.4745,3.5767,-0.2367,-0.4105,-0.2984,0.072,-0.0379,-0.0714,3248,2019-08-07 16:52:46:576
-4.2762,-7.4983,3.3504,-0.5445,-0.3879,-0.0633,0.056,-0.0336,-0.0682,3253,2019-08-07 16:52:46:581
-4.2762,-7.4983,3.3504,-0.5445,-0.3879,-0.0633,0.056,-0.0336,-0.0682,3257,2019-08-07 16:52:46:585
-3.9461,-7.4888,3.0817,-0.5445,-0.3879,-0.0633,0.056,0.0442,-0.0554,3263,2019-08-07 16:52:46:591
-3.9461,-7.4888,3.0817,-0.5445,-0.3879,-0.0633,0.056,0.0442,-0.0554,3268,2019-08-07 16:52:46:596
-3.9461,-7.4888,3.0817,-0.9484,-0.3632,0.1713,0.056,0.0442,-0.0554,3273,2019-08-07 16:52:46:601
-3.9318,-7.5079,3.143,-0.9484,-0.3632,0.1713,0.0507,0.2093,-0.0447,3278,2019-08-07 16:52:46:606
-3.9318,-7.5079,3.143,-0.9484,-0.3632,0.1713,0.0507,0.2093,-0.0447,3284,2019-08-07 16:52:46:612
-4.1997,-7.3885,3.3362,-0.9484,-0.3632,0.1713,0.0379,0.3009,-0.0277,3287,2019-08-07 16:52:46:615
-4.1997,-7.3885,3.3362,-0.4627,-0.5463,-0.1023,0.0379,0.3009,-0.0277,3293,2019-08-07 16:52:46:621
-4.1997,-7.3885,3.3362,-0.4627,-0.5463,-0.1023,0.0293,0.3265,0.0,3298,2019-08-07 16:52:46:626
-4.4198,-7.3551,3.4682,-0.4627,-0.5463,-0.1023,0.0293,0.3265,0.0,3303,2019-08-07 16:52:46:631
-4.4198,-7.3551,3.4682,-0.4627,-0.5463,-0.1023,0.0293,0.3265,0.0,3307,2019-08-07 16:52:46:635
-4.5629,-7.3313,3.4495,-0.3421,-0.5771,-0.2354,0.0304,0.3254,-0.0011,3313,2019-08-07 16:52:46:641
-4.5629,-7.3313,3.4495,-0.3421,-0.5771,-0.2354,0.0304,0.3254,-0.0011,3318,2019-08-07 16:52:46:646
-4.5629,-7.3313,3.4495,-0.3421,-0.5771,-0.2354,0.0112,0.2806,-0.0043,3323,2019-08-07 16:52:46:651
-4.5629,-7.3313,3.4495,-0.3421,-0.5771,-0.2354,0.0112,0.2806,-0.0043,3328,2019-08-07 16:52:46:656
-4.7687,-7.3504,3.5484,-0.0104,-0.5406,-0.2472,-5.0E-4,0.2284,0.0043,3333,2019-08-07 16:52:46:661
-4.7687,-7.3504,3.5484,-0.0104,-0.5406,-0.2472,-5.0E-4,0.2284,0.0043,3337,2019-08-07 16:52:46:665
-4.9983,-7.4172,3.5154,-0.0104,-0.5406,-0.2472,-5.0E-4,0.2284,0.0043,3344,2019-08-07 16:52:46:672
-4.9983,-7.4172,3.5154,-0.0104,-0.5406,-0.2472,-0.0015,0.1613,0.0074,3347,2019-08-07 16:52:46:675
-4.9983,-7.4172,3.5154,0.0991,-0.4137,-0.244,-0.0015,0.1613,0.0074,3353,2019-08-07 16:52:46:681
-4.9361,-7.5222,3.4306,0.0991,-0.4137,-0.244,-0.0079,0.0591,0.0085,3357,2019-08-07 16:52:46:685
-4.9361,-7.5222,3.4306,0.0991,-0.4137,-0.244,-0.0079,0.0591,0.0085,3363,2019-08-07 16:52:46:691
-4.8165,-7.5891,3.2138,0.0991,-0.4137,-0.244,-0.0229,-0.0016,0.0138,3368,2019-08-07 16:52:46:696
-4.8165,-7.5891,3.2138,-0.0837,-0.2788,0.0425,-0.0229,-0.0016,0.0138,3372,2019-08-07 16:52:46:700
-4.8165,-7.5891,3.2138,-0.0837,-0.2788,0.0425,-0.0218,-0.0144,0.0192,3378,2019-08-07 16:52:46:706
-4.6873,-7.6129,3.1855,-0.0837,-0.2788,0.0425,-0.0218,-0.0144,0.0192,3383,2019-08-07 16:52:46:711
-4.6873,-7.6129,3.1855,-0.0837,-0.2788,0.0425,-0.0218,-0.0144,0.0192,3388,2019-08-07 16:52:46:716
-4.6873,-7.6129,3.1855,-0.3965,-0.2779,0.1457,-0.0079,-0.0123,0.0277,3394,2019-08-07 16:52:46:722
-4.4386,-7.5747,3.0771,-0.3965,-0.2779,0.1457,-5.0E-4,0.0292,0.0309,3398,2019-08-07 16:52:46:726
-4.4386,-7.5747,3.0771,-0.3965,-0.2779,0.1457,-5.0E-4,0.0292,0.0309,3403,2019-08-07 16:52:46:731
-4.4386,-7.5747,3.0771,-0.3965,-0.2779,0.1457,-5.0E-4,0.0292,0.0309,3408,2019-08-07 16:52:46:736
-4.4386,-7.5747,3.0771,-0.3965,-0.2779,0.1457,-5.0E-4,0.0292,0.0309,3412,2019-08-07 16:52:46:740
-4.2998,-7.527,2.8791,-0.5498,-0.3579,0.339,0.0059,0.1017,0.0213,3418,2019-08-07 16:52:46:746
-4.2998,-7.527,2.8791,-0.5498,-0.3579,0.339,0.0059,0.1017,0.0213,3423,2019-08-07 16:52:46:751
-4.539,-7.4506,3.0488,-0.5498,-0.3579,0.339,0.0176,0.1997,0.017,3428,2019-08-07 16:52:46:756
-4.539,-7.4506,3.0488,-0.2613,-0.4037,0.093,0.0176,0.1997,0.017,3433,2019-08-07 16:52:46:761
-4.539,-7.4506,3.0488,-0.2613,-0.4037,0.093,0.0176,0.1997,0.017,3437,2019-08-07 16:52:46:765
-4.539,-7.4506,3.0488,-0.2613,-0.4037,0.093,0.0272,0.1869,0.0256,3443,2019-08-07 16:52:46:771
-4.7017,-7.4554,3.176,-0.2613,-0.4037,0.093,0.0272,0.1869,0.0256,3448,2019-08-07 16:52:46:776
-4.7017,-7.4554,3.176,-0.1871,-0.4318,-0.075,0.04,0.1667,0.0362,3453,2019-08-07 16:52:46:781
-4.7878,-7.422,3.2232,-0.1871,-0.4318,-0.075,0.04,0.1667,0.0362,3457,2019-08-07 16:52:46:785
-4.7878,-7.422,3.2232,-0.1871,-0.4318,-0.075,0.0475,0.139,0.0394,3463,2019-08-07 16:52:46:791
-4.7878,-7.422,3.2232,-0.1871,-0.4318,-0.075,0.0475,0.139,0.0394,3468,2019-08-07 16:52:46:796
-4.7017,-7.4793,3.1996,-0.2069,-0.3811,-0.0275,0.04,0.0836,0.0437,3473,2019-08-07 16:52:46:801
-4.7017,-7.4793,3.1996,-0.2069,-0.3811,-0.0275,0.04,0.0836,0.0437,3478,2019-08-07 16:52:46:806
-4.5964,-7.5079,3.1855,-0.2069,-0.3811,-0.0275,0.0379,0.0537,0.0522,3483,2019-08-07 16:52:46:811
-4.5964,-7.5079,3.1855,-0.2069,-0.3811,-0.0275,0.0379,0.0537,0.0522,3488,2019-08-07 16:52:46:816
-4.5964,-7.5079,3.1855,-0.2069,-0.3811,-0.0275,0.0379,0.0537,0.0522,3493,2019-08-07 16:52:46:821
-4.4864,-7.6034,3.1006,-0.4382,-0.2686,0.0114,0.0389,0.0548,0.0618,3498,2019-08-07 16:52:46:826
-4.4864,-7.6034,3.1006,-0.4382,-0.2686,0.0114,0.0389,0.0548,0.0618,3503,2019-08-07 16:52:46:831
-4.5965,-7.5938,3.0535,-0.4382,-0.2686,0.0114,0.0379,0.0846,0.0639,3508,2019-08-07 16:52:46:836
-4.5965,-7.5938,3.0535,-0.3752,-0.2653,0.0906,0.0379,0.0846,0.0639,3514,2019-08-07 16:52:46:842
-4.5965,-7.5938,3.0535,-0.3752,-0.2653,0.0906,0.0272,0.1017,0.065,3518,2019-08-07 16:52:46:846
-4.5869,-7.5079,3.0771,-0.3752,-0.2653,0.0906,0.0272,0.1017,0.065,3523,2019-08-07 16:52:46:851
-4.5869,-7.5079,3.0771,-0.3752,-0.2653,0.0906,0.0112,0.1027,0.065,3530,2019-08-07 16:52:46:858
-4.5582,-7.4506,3.0818,-0.3752,-0.2653,0.0906,0.0112,0.1027,0.065,3532,2019-08-07 16:52:46:860
-4.5582,-7.4506,3.0818,-0.343,-0.3059,0.0648,6.0E-4,0.1198,0.0565,3538,2019-08-07 16:52:46:866
-4.5582,-7.4506,3.0818,-0.343,-0.3059,0.0648,6.0E-4,0.1198,0.0565,3542,2019-08-07 16:52:46:870
-4.7543,-7.4267,3.0818,-0.343,-0.3059,0.0648,6.0E-4,0.1198,0.0565,3548,2019-08-07 16:52:46:876
-4.7543,-7.4267,3.0818,-0.2445,-0.396,0.1278,-0.0069,0.1294,0.0543,3553,2019-08-07 16:52:46:881
-4.7543,-7.4267,3.0818,-0.2445,-0.396,0.1278,-0.0069,0.1294,0.0543,3558,2019-08-07 16:52:46:886
-4.7543,-7.5031,2.9828,-0.2445,-0.396,0.1278,-0.0303,0.1049,0.0543,3564,2019-08-07 16:52:46:892
-4.7543,-7.5031,2.9828,-0.2445,-0.396,0.1278,-0.0303,0.1049,0.0543,3568,2019-08-07 16:52:46:896
-4.7543,-7.5031,2.9828,-0.2445,-0.396,0.1278,-0.0388,0.0857,0.0511,3572,2019-08-07 16:52:46:900
-4.7017,-7.5413,3.1053,-0.2976,-0.2924,0.0374,-0.0388,0.0857,0.0511,3578,2019-08-07 16:52:46:906
-4.7017,-7.5413,3.1053,-0.2976,-0.2924,0.0374,-0.0431,0.0857,0.0543,3583,2019-08-07 16:52:46:911
-4.6682,-7.5986,3.0441,-0.2976,-0.2924,0.0374,-0.0431,0.0857,0.0543,3587,2019-08-07 16:52:46:915
-4.6682,-7.5986,3.0441,-0.2976,-0.2924,0.0374,-0.042,0.107,0.0533,3593,2019-08-07 16:52:46:921
-4.6682,-7.5986,3.0441,-0.2346,-0.185,0.1818,-0.042,0.107,0.0533,3597,2019-08-07 16:52:46:925
-4.7735,-7.6177,2.8932,-0.2346,-0.185,0.1818,-0.0527,0.1177,0.0575,3604,2019-08-07 16:52:46:932
-4.7735,-7.6177,2.8932,-0.2346,-0.185,0.1818,-0.0527,0.1177,0.0575,3608,2019-08-07 16:52:46:936
-4.8261,-7.7227,2.8932,-0.2346,-0.185,0.1818,-0.0505,0.1166,0.0586,3612,2019-08-07 16:52:46:940
-4.8261,-7.7227,2.8932,-0.3031,-0.1496,0.2319,-0.0505,0.1166,0.0586,3618,2019-08-07 16:52:46:946
-4.8261,-7.7227,2.8932,-0.3031,-0.1496,0.2319,-0.0505,0.1166,0.0586,3622,2019-08-07 16:52:46:950
-4.7304,-7.7514,2.7754,-0.3031,-0.1496,0.2319,-0.0388,0.1155,0.0501,3629,2019-08-07 16:52:46:957
-4.7304,-7.7514,2.7754,-0.3031,-0.1496,0.2319,-0.0388,0.1155,0.0501,3633,2019-08-07 16:52:46:961
-4.6969,-7.7275,2.7235,-0.3077,-0.1004,0.3021,-0.0239,0.1336,0.0415,3638,2019-08-07 16:52:46:966
-4.6969,-7.7275,2.7235,-0.3077,-0.1004,0.3021,-0.0239,0.1336,0.0415,3643,2019-08-07 16:52:46:971
-4.6969,-7.7275,2.7235,-0.3528,-0.1477,0.3393,-0.0207,0.1539,0.0362,3648,2019-08-07 16:52:46:976
-4.6587,-7.6893,2.7235,-0.3528,-0.1477,0.3393,-0.0207,0.1539,0.0362,3653,2019-08-07 16:52:46:981
-4.6587,-7.6893,2.7235,-0.3528,-0.1477,0.3393,-0.0165,0.1794,0.0341,3657,2019-08-07 16:52:46:985
-4.6347,-7.6845,2.8225,-0.3528,-0.1477,0.3393,-0.0165,0.1794,0.0341,3663,2019-08-07 16:52:46:991
-4.6347,-7.6845,2.8225,-0.4057,-0.1325,0.2607,-0.0122,0.2008,0.0351,3668,2019-08-07 16:52:46:996
-4.6347,-7.6845,2.8225,-0.4057,-0.1325,0.2607,-0.0122,0.2008,0.0351,3673,2019-08-07 16:52:47:001
-4.7543,-7.7179,2.9121,-0.3185,-0.1077,0.1312,-0.0015,0.2167,0.032,3678,2019-08-07 16:52:47:006
-4.7543,-7.7179,2.9121,-0.3185,-0.1077,0.1312,-0.0015,0.2167,0.032,3683,2019-08-07 16:52:47:011
-4.7543,-7.7179,2.9121,-0.3185,-0.1077,0.1312,0.0017,0.1645,0.0426,3688,2019-08-07 16:52:47:016
-5.0031,-7.6702,3.0299,-0.3185,-0.1077,0.1312,0.0017,0.1645,0.0426,3693,2019-08-07 16:52:47:021
-5.0031,-7.6702,3.0299,-0.1297,-0.2135,-0.0471,0.0102,0.0878,0.0575,3698,2019-08-07 16:52:47:026
-4.8692,-7.5652,3.0629,-0.1297,-0.2135,-0.0471,0.0102,0.0878,0.0575,3703,2019-08-07 16:52:47:031
-4.8692,-7.5652,3.0629,-0.1297,-0.2135,-0.0471,0.0262,0.026,0.0628,3708,2019-08-07 16:52:47:036
-4.8692,-7.5652,3.0629,-0.1297,-0.2135,-0.0471,0.0262,0.026,0.0628,3713,2019-08-07 16:52:47:041
-4.7352,-7.5747,2.9074,-0.3668,-0.2395,0.1164,0.0347,0.0026,0.0628,3718,2019-08-07 16:52:47:046
-4.7352,-7.5747,2.9074,-0.3668,-0.2395,0.1164,0.0347,0.0026,0.0628,3723,2019-08-07 16:52:47:051
-4.6635,-7.5843,2.8131,-0.4429,-0.2263,0.213,0.0347,0.0026,0.0628,3728,2019-08-07 16:52:47:056
-4.6635,-7.5843,2.8131,-0.4429,-0.2263,0.213,0.0293,0.0101,0.0671,3732,2019-08-07 16:52:47:060
-4.6635,-7.5843,2.8131,-0.4429,-0.2263,0.213,0.0293,0.0101,0.0671,3738,2019-08-07 16:52:47:066
-4.5965,-7.6511,2.7612,-0.4429,-0.2263,0.213,0.024,0.0463,0.0692,3743,2019-08-07 16:52:47:071
-4.5965,-7.6511,2.7612,-0.4629,-0.162,0.2699,0.024,0.0463,0.0692,3748,2019-08-07 16:52:47:076
-4.6969,-7.6941,2.8461,-0.4629,-0.162,0.2699,0.04,0.09,0.0735,3753,2019-08-07 16:52:47:081
-4.6969,-7.6941,2.8461,-0.4629,-0.162,0.2699,0.04,0.09,0.0735,3757,2019-08-07 16:52:47:085
-4.6969,-7.6941,2.8461,-0.4629,-0.162,0.2699,0.0432,0.1304,0.0714,3764,2019-08-07 16:52:47:092
-4.7974,-7.6463,2.8461,-0.3045,-0.15,0.2038,0.0432,0.1304,0.0714,3768,2019-08-07 16:52:47:096
-4.7974,-7.6463,2.8461,-0.3045,-0.15,0.2038,0.0336,0.1667,0.066,3773,2019-08-07 16:52:47:101
-4.9888,-7.5652,2.9451,-0.3045,-0.15,0.2038,0.0336,0.1667,0.066,3780,2019-08-07 16:52:47:108
-4.9888,-7.5652,2.9451,-0.3045,-0.15,0.2038,0.0272,0.1613,0.0639,3783,2019-08-07 16:52:47:111
-4.9888,-7.5652,2.9451,-0.0882,-0.1495,0.0447,0.0272,0.1613,0.0639,3787,2019-08-07 16:52:47:115
-4.9888,-7.5652,2.9451,-0.0882,-0.1495,0.0447,0.0272,0.1613,0.0639,3793,2019-08-07 16:52:47:121
-5.1084,-7.6177,2.9686,-0.0882,-0.1495,0.0447,0.0208,0.1443,0.0575,3798,2019-08-07 16:52:47:126
-5.1084,-7.6177,2.9686,-0.0882,-0.1495,0.0447,0.0208,0.1443,0.0575,3803,2019-08-07 16:52:47:131
-5.1084,-7.6081,3.0393,-0.0622,-0.1706,-0.0406,0.023,0.107,0.0479,3808,2019-08-07 16:52:47:136
-5.1084,-7.6081,3.0393,-0.0622,-0.1706,-0.0406,0.023,0.107,0.0479,3813,2019-08-07 16:52:47:141
-5.1084,-7.6081,3.0393,-0.0622,-0.1706,-0.0406,0.0272,0.0687,0.0341,3818,2019-08-07 16:52:47:146
-4.9936,-7.5891,2.9828,-0.0622,-0.1706,-0.0406,0.0272,0.0687,0.0341,3823,2019-08-07 16:52:47:151
-4.9936,-7.5891,2.9828,-0.2722,-0.1035,0.0793,0.0251,0.0505,0.0256,3830,2019-08-07 16:52:47:158
-4.9027,-7.6607,2.9545,-0.2722,-0.1035,0.0793,0.0251,0.0505,0.0256,3833,2019-08-07 16:52:47:161
-4.9027,-7.6607,2.9545,-0.2722,-0.1035,0.0793,0.0283,0.0655,0.016,3838,2019-08-07 16:52:47:166
-4.9027,-7.6607,2.9545,-0.2722,-0.1035,0.0793,0.0283,0.0655,0.016,3842,2019-08-07 16:52:47:170
-4.8118,-7.737,2.8225,-0.2974,-0.0152,0.1457,0.0155,0.0932,0.016,3848,2019-08-07 16:52:47:176
-4.8118,-7.737,2.8225,-0.2974,-0.0152,0.1457,0.0155,0.0932,0.016,3852,2019-08-07 16:52:47:180
-4.7926,-7.8039,2.7471,-0.2974,-0.0152,0.1457,0.0155,0.0932,0.016,3858,2019-08-07 16:52:47:186
-4.7926,-7.8039,2.7471,-0.2974,-0.0152,0.1457,0.0155,0.1134,0.0053,3863,2019-08-07 16:52:47:191
-4.7926,-7.8039,2.7471,-0.3749,0.147,0.239,0.0155,0.1134,0.0053,3868,2019-08-07 16:52:47:196
-4.7879,-7.9089,2.7094,-0.3749,0.147,0.239,0.0325,0.1422,-0.0096,3873,2019-08-07 16:52:47:201
-4.7879,-7.9089,2.7094,-0.3749,0.147,0.239,0.0325,0.1422,-0.0096,3879,2019-08-07 16:52:47:207
-4.8788,-7.8564,2.8225,-0.3749,0.147,0.239,0.0411,0.1507,-0.0266,3882,2019-08-07 16:52:47:210
-4.8788,-7.8564,2.8225,-0.326,0.0165,0.0869,0.0411,0.1507,-0.0266,3888,2019-08-07 16:52:47:216
-4.8788,-7.8564,2.8225,-0.326,0.0165,0.0869,0.0411,0.1507,-0.0266,3893,2019-08-07 16:52:47:221
-4.9266,-7.7227,2.9309,-0.326,0.0165,0.0869,0.0453,0.1454,-0.0352,3898,2019-08-07 16:52:47:226
-4.9266,-7.7227,2.9309,-0.326,0.0165,0.0869,0.0453,0.1454,-0.0352,3903,2019-08-07 16:52:47:231
-4.9266,-7.7227,2.9309,-0.326,0.0165,0.0869,0.0453,0.1294,-0.0447,3908,2019-08-07 16:52:47:236
-4.8644,-7.6034,3.0299,-0.3315,-0.172,-0.0664,0.0453,0.1294,-0.0447,3913,2019-08-07 16:52:47:241
-4.8644,-7.6034,3.0299,-0.3315,-0.172,-0.0664,0.0464,0.107,-0.0469,3918,2019-08-07 16:52:47:246
-4.8644,-7.6034,3.0299,-0.3315,-0.172,-0.0664,0.0464,0.107,-0.0469,3923,2019-08-07 16:52:47:251
-4.9218,-7.5652,3.1053,-0.3315,-0.172,-0.0664,0.0464,0.074,-0.0416,3929,2019-08-07 16:52:47:257
-4.9218,-7.5652,3.1053,-0.3003,-0.1745,-0.1299,0.0464,0.074,-0.0416,3933,2019-08-07 16:52:47:261
-4.8548,-7.57,3.143,-0.3003,-0.1745,-0.1299,0.0464,0.074,-0.0416,3937,2019-08-07 16:52:47:265
-4.8548,-7.57,3.143,-0.3003,-0.1745,-0.1299,0.0517,0.0399,-0.0362,3943,2019-08-07 16:52:47:271
-4.8548,-7.57,3.143,-0.3003,-0.1745,-0.1299,0.0517,0.0399,-0.0362,3947,2019-08-07 16:52:47:275
-4.8931,-7.5509,3.0959,-0.2955,-0.228,-0.129,0.056,0.0111,-0.0309,3953,2019-08-07 16:52:47:281
-4.8931,-7.5509,3.0959,-0.2955,-0.228,-0.129,0.056,0.0111,-0.0309,3958,2019-08-07 16:52:47:286
-4.8931,-7.5509,3.0959,-0.2955,-0.228,-0.129,0.057,-0.0155,-0.0128,3963,2019-08-07 16:52:47:291
-4.7496,-7.484,3.0393,-0.2955,-0.228,-0.129,0.057,-0.0155,-0.0128,3968,2019-08-07 16:52:47:296
-4.7496,-7.484,3.0393,-0.5011,-0.284,-0.0321,0.0613,-0.0038,0.0,3973,2019-08-07 16:52:47:301
-4.7496,-7.484,3.0393,-0.5011,-0.284,-0.0321,0.0613,-0.0038,0.0,3977,2019-08-07 16:52:47:305
-4.6778,-7.4602,2.9451,-0.5011,-0.284,-0.0321,0.0666,0.0463,-0.0075,3984,2019-08-07 16:52:47:312
-4.6778,-7.4602,2.9451,-0.5011,-0.284,-0.0321,0.0666,0.0463,-0.0075,3988,2019-08-07 16:52:47:316
-4.6778,-7.4602,2.9451,-0.376,-0.2861,0.0281,0.0666,0.0463,-0.0075,3993,2019-08-07 16:52:47:321
-4.8692,-7.5031,2.9592,-0.376,-0.2861,0.0281,0.0688,0.0687,-0.0021,3998,2019-08-07 16:52:47:326
-4.8692,-7.5031,2.9592,-0.376,-0.2861,0.0281,0.0688,0.0687,-0.0021,4003,2019-08-07 16:52:47:331
-4.8357,-7.4745,2.9686,-0.376,-0.2861,0.0281,0.0677,0.0687,-0.0011,4008,2019-08-07 16:52:47:336
-4.8357,-7.4745,2.9686,-0.3215,-0.335,0.0135,0.0677,0.0687,-0.0011,4013,2019-08-07 16:52:47:341
-4.8357,-7.4745,2.9686,-0.3215,-0.335,0.0135,0.0773,0.0719,-0.0085,4018,2019-08-07 16:52:47:346
-4.917,-7.422,2.9686,-0.3215,-0.335,0.0135,0.0773,0.0719,-0.0085,4023,2019-08-07 16:52:47:351
-4.917,-7.422,2.9686,-0.3215,-0.335,0.0135,0.0783,0.0676,-0.0043,4028,2019-08-07 16:52:47:356
-4.9218,-7.4745,2.9639,-0.2667,-0.2929,0.0331,0.0783,0.0676,-0.0043,4033,2019-08-07 16:52:47:361
-4.9218,-7.4745,2.9639,-0.2667,-0.2929,0.0331,0.0783,0.0505,0.0032,4038,2019-08-07 16:52:47:366
-4.9888,-7.3933,3.0393,-0.2667,-0.2929,0.0331,0.0783,0.0505,0.0032,4043,2019-08-07 16:52:47:371
-4.9888,-7.3933,3.0393,-0.2667,-0.2929,0.0331,0.0741,0.0175,0.0128,4048,2019-08-07 16:52:47:376
-4.9888,-7.3933,3.0393,-0.2031,-0.3732,0.028,0.0741,0.0175,0.0128,4053,2019-08-07 16:52:47:381
-4.9123,-7.4267,2.9781,-0.2031,-0.3732,0.028,0.073,-0.0016,0.017,4058,2019-08-07 16:52:47:386
-4.9123,-7.4267,2.9781,-0.2031,-0.3732,0.028,0.073,-0.0016,0.017,4063,2019-08-07 16:52:47:391
-4.941,-7.3981,3.0205,-0.2031,-0.3732,0.028,0.0688,-0.0166,0.0192,4067,2019-08-07 16:52:47:395
-4.941,-7.3981,3.0205,-0.2578,-0.3286,0.0361,0.0688,-0.0166,0.0192,4073,2019-08-07 16:52:47:401
-4.941,-7.3981,3.0205,-0.2578,-0.3286,0.0361,0.0624,-0.0208,0.0277,4078,2019-08-07 16:52:47:406
-4.8644,-7.5079,2.8744,-0.2578,-0.3286,0.0361,0.0624,-0.0208,0.0277,4083,2019-08-07 16:52:47:411
-4.8644,-7.5079,2.8744,-0.2578,-0.3286,0.0361,0.0677,-0.007,0.0192,4088,2019-08-07 16:52:47:416
-4.8644,-7.5079,2.8744,-0.3318,-0.2175,0.1138,0.0677,-0.007,0.0192,4092,2019-08-07 16:52:47:420
-4.8836,-7.4793,2.8744,-0.3318,-0.2175,0.1138,0.0752,0.0058,0.0117,4099,2019-08-07 16:52:47:427
-4.8836,-7.4793,2.8744,-0.3318,-0.2175,0.1138,0.0752,0.0058,0.0117,4102,2019-08-07 16:52:47:430
-4.8118,-7.5318,2.8036,-0.3318,-0.2175,0.1138,0.0752,0.0058,0.0117,4108,2019-08-07 16:52:47:436
-4.8118,-7.5318,2.8036,-0.4237,-0.1938,0.2039,0.0677,0.0292,0.0085,4113,2019-08-07 16:52:47:441
-4.8118,-7.5318,2.8036,-0.4237,-0.1938,0.2039,0.0677,0.0292,0.0085,4118,2019-08-07 16:52:47:446
-4.7592,-7.5127,2.8555,-0.4237,-0.1938,0.2039,0.0592,0.0655,-0.0021,4122,2019-08-07 16:52:47:450
-4.7592,-7.5127,2.8555,-0.4237,-0.1938,0.2039,0.0592,0.0655,-0.0021,4128,2019-08-07 16:52:47:456
-4.7257,-7.4936,2.8932,-0.4738,-0.2488,0.1495,0.0496,0.1049,-0.0107,4132,2019-08-07 16:52:47:460
-4.7257,-7.4936,2.8932,-0.4738,-0.2488,0.1495,0.0496,0.1049,-0.0107,4138,2019-08-07 16:52:47:466
-4.7257,-7.4936,2.8932,-0.4738,-0.2488,0.1495,0.0496,0.1049,-0.0107,4143,2019-08-07 16:52:47:471
-4.5869,-7.5174,2.8602,-0.4738,-0.2488,0.1495,0.0485,0.1422,-0.0224,4148,2019-08-07 16:52:47:476
-4.5869,-7.5174,2.8602,-0.6103,-0.2257,0.3693,0.0485,0.1422,-0.0224,4153,2019-08-07 16:52:47:481
-4.5822,-7.5174,2.7659,-0.6103,-0.2257,0.3693,0.0475,0.1922,-0.0277,4158,2019-08-07 16:52:47:486
-4.5822,-7.5174,2.7659,-0.6103,-0.2257,0.3693,0.0475,0.1922,-0.0277,4163,2019-08-07 16:52:47:491
-4.5822,-7.5174,2.7659,-0.6103,-0.2257,0.3693,0.0389,0.2135,-0.0256,4168,2019-08-07 16:52:47:496
-4.8357,-7.5652,2.8131,-0.3775,-0.2131,0.0946,0.0389,0.2135,-0.0256,4173,2019-08-07 16:52:47:501
-4.8357,-7.5652,2.8131,-0.3775,-0.2131,0.0946,0.0357,0.2061,-0.0192,4178,2019-08-07 16:52:47:506
-5.0127,-7.4793,2.9969,-0.2002,-0.2656,0.0162,0.0357,0.2061,-0.0192,4183,2019-08-07 16:52:47:511
-5.0127,-7.4793,2.9969,-0.2002,-0.2656,0.0162,0.0347,0.1592,-0.0117,4188,2019-08-07 16:52:47:516
-5.0127,-7.4793,2.9969,-0.2002,-0.2656,0.0162,0.0347,0.1592,-0.0117,4194,2019-08-07 16:52:47:522
-5.0702,-7.484,2.9686,-0.2002,-0.2656,0.0162,0.0293,0.0996,-0.0085,4199,2019-08-07 16:52:47:527
-5.0702,-7.484,2.9686,-0.187,-0.2597,0.0605,0.0293,0.0996,-0.0085,4202,2019-08-07 16:52:47:530
-5.0702,-7.484,2.9686,-0.187,-0.2597,0.0605,0.0262,0.0569,-0.0075,4208,2019-08-07 16:52:47:536
-4.9601,-7.4697,2.8649,-0.187,-0.2597,0.0605,0.0262,0.0569,-0.0075,4212,2019-08-07 16:52:47:540
-4.9601,-7.4697,2.8649,-0.187,-0.2597,0.0605,0.0176,0.0218,-0.0096,4218,2019-08-07 16:52:47:546
-4.8357,-7.5127,2.8885,-0.3833,-0.2311,0.1169,0.0176,0.0218,-0.0096,4222,2019-08-07 16:52:47:550
-4.8357,-7.5127,2.8885,-0.3833,-0.2311,0.1169,0.0187,0.0133,-0.0128,4228,2019-08-07 16:52:47:556
-4.8357,-7.5127,2.8885,-0.3833,-0.2311,0.1169,0.0187,0.0133,-0.0128,4233,2019-08-07 16:52:47:561
-4.7448,-7.4793,2.8885,-0.3833,-0.2311,0.1169,0.0208,0.0324,-0.0139,4237,2019-08-07 16:52:47:565
-4.7448,-7.4793,2.8885,-0.5053,-0.2658,0.2024,0.0208,0.0324,-0.0139,4243,2019-08-07 16:52:47:571
-4.6635,-7.4697,2.7706,-0.5053,-0.2658,0.2024,0.0208,0.0505,-0.016,4248,2019-08-07 16:52:47:576
-4.6635,-7.4697,2.7706,-0.5053,-0.2658,0.2024,0.0208,0.0505,-0.016,4253,2019-08-07 16:52:47:581
-4.6635,-7.4697,2.7706,-0.5053,-0.2658,0.2024,0.0208,0.0505,-0.016,4258,2019-08-07 16:52:47:586
-4.7257,-7.4124,2.7848,-0.4814,-0.2768,0.2177,0.023,0.0814,-0.0096,4263,2019-08-07 16:52:47:591
-4.7257,-7.4124,2.7848,-0.4814,-0.2768,0.2177,0.023,0.0814,-0.0096,4268,2019-08-07 16:52:47:596
-4.8023,-7.3981,2.8885,-0.4814,-0.2768,0.2177,0.0293,0.0921,-0.0064,4273,2019-08-07 16:52:47:601
-4.8023,-7.3981,2.8885,-0.4814,-0.2768,0.2177,0.0293,0.0921,-0.0064,4278,2019-08-07 16:52:47:606
-4.8023,-7.3981,2.8885,-0.4814,-0.2768,0.2177,0.0357,0.074,0.0064,4283,2019-08-07 16:52:47:611
-4.8597,-7.4172,2.9168,-0.3465,-0.2997,0.1143,0.0357,0.074,0.0064,4287,2019-08-07 16:52:47:615
-4.8597,-7.4172,2.9168,-0.3465,-0.2997,0.1143,0.0304,0.0559,0.016,4293,2019-08-07 16:52:47:621
-4.8549,-7.4172,2.8743,-0.3465,-0.2997,0.1143,0.0304,0.0559,0.016,4298,2019-08-07 16:52:47:626
-4.8549,-7.4172,2.8743,-0.38,-0.3252,0.1326,0.0315,0.0399,0.0224,4303,2019-08-07 16:52:47:631
-4.8549,-7.4172,2.8743,-0.38,-0.3252,0.1326,0.0315,0.0399,0.0224,4308,2019-08-07 16:52:47:636
-4.8887,-7.4458,2.8978,-0.38,-0.3252,0.1326,0.0272,0.0292,0.0341,4312,2019-08-07 16:52:47:640
-4.8887,-7.4458,2.8978,-0.38,-0.3252,0.1326,0.0272,0.0292,0.0341,4318,2019-08-07 16:52:47:646
-4.8887,-7.4458,2.8978,-0.38,-0.3252,0.1326,0.0219,0.0175,0.0373,4323,2019-08-07 16:52:47:651
-4.8696,-7.5126,2.8978,-0.3621,-0.2251,0.1011,0.0219,0.0175,0.0373,4328,2019-08-07 16:52:47:656
-4.8696,-7.5126,2.8978,-0.3621,-0.2251,0.1011,0.0219,0.025,0.0341,4333,2019-08-07 16:52:47:661
-4.9174,-7.4363,2.9167,-0.3621,-0.2251,0.1011,0.0219,0.025,0.0341,4338,2019-08-07 16:52:47:666
-4.9174,-7.4363,2.9167,-0.3621,-0.2251,0.1011,0.0272,0.0324,0.0362,4342,2019-08-07 16:52:47:670
-4.9078,-7.4601,2.912,-0.3109,-0.3111,0.1118,0.0272,0.0324,0.0362,4348,2019-08-07 16:52:47:676
-4.9078,-7.4601,2.912,-0.3109,-0.3111,0.1118,0.0272,0.0324,0.0362,4353,2019-08-07 16:52:47:681
-4.9078,-7.4601,2.912,-0.3109,-0.3111,0.1118,0.0166,0.041,0.0319,4357,2019-08-07 16:52:47:685
-4.9796,-7.4649,2.8696,-0.3109,-0.3111,0.1118,0.0166,0.041,0.0319,4363,2019-08-07 16:52:47:691
-4.9796,-7.4649,2.8696,-0.27,-0.2545,0.1619,0.0102,0.0474,0.0256,4367,2019-08-07 16:52:47:695
-4.9892,-7.4744,2.912,-0.27,-0.2545,0.1619,0.0102,0.0474,0.0256,4373,2019-08-07 16:52:47:701
-4.9892,-7.4744,2.912,-0.27,-0.2545,0.1619,0.0091,0.0495,0.0192,4377,2019-08-07 16:52:47:705
-4.9892,-7.4744,2.912,-0.27,-0.2545,0.1619,0.0091,0.0495,0.0192,4384,2019-08-07 16:52:47:712
-4.9653,-7.5126,2.8884,-0.2849,-0.2142,0.1063,0.0017,0.0452,0.0096,4388,2019-08-07 16:52:47:716
-4.9653,-7.5126,2.8884,-0.2849,-0.2142,0.1063,0.0017,0.0452,0.0096,4393,2019-08-07 16:52:47:721
-4.9366,-7.527,3.011,-0.2849,-0.2142,0.1063,-5.0E-4,0.0463,0.0064,4398,2019-08-07 16:52:47:726
-4.9366,-7.527,3.011,-0.2849,-0.2142,0.1063,-5.0E-4,0.0463,0.0064,4403,2019-08-07 16:52:47:731
-4.9366,-7.527,3.011,-0.3117,-0.1422,0.055,-5.0E-4,0.0378,0.0074,4408,2019-08-07 16:52:47:736
-4.9318,-7.5222,2.9308,-0.3117,-0.1422,0.055,-5.0E-4,0.0378,0.0074,4413,2019-08-07 16:52:47:741
-4.9318,-7.5222,2.9308,-0.3117,-0.1422,0.055,-5.0E-4,0.0378,0.0074,4417,2019-08-07 16:52:47:745
-4.9366,-7.527,2.9261,-0.3117,-0.1422,0.055,-0.0037,0.0239,0.0053,4423,2019-08-07 16:52:47:751
-4.9366,-7.527,2.9261,-0.2701,-0.1901,0.0803,-0.0058,0.0122,0.0021,4427,2019-08-07 16:52:47:755
-4.9366,-7.527,2.9261,-0.2701,-0.1901,0.0803,-0.0058,0.0122,0.0021,4433,2019-08-07 16:52:47:761
-4.9701,-7.527,2.9733,-0.2701,-0.1901,0.0803,-0.0058,0.0122,0.0021,4438,2019-08-07 16:52:47:766
-4.9701,-7.527,2.9733,-0.2701,-0.1901,0.0803,-0.0101,-0.008,0.0053,4443,2019-08-07 16:52:47:771
-4.7787,-7.6129,2.8648,-0.427,-0.1578,0.1028,-0.0101,-0.008,0.0053,4448,2019-08-07 16:52:47:776
-4.7787,-7.6129,2.8648,-0.427,-0.1578,0.1028,-0.0101,-0.0091,0.0053,4453,2019-08-07 16:52:47:781
-4.7787,-7.6129,2.8648,-0.427,-0.1578,0.1028,-0.0101,-0.0091,0.0053,4458,2019-08-07 16:52:47:786
-4.7691,-7.6129,2.9073,-0.427,-0.1578,0.1028,-0.0122,0.0079,0.0,4463,2019-08-07 16:52:47:791
-4.7691,-7.6129,2.9073,-0.4396,-0.1072,0.1669,-0.0122,0.0079,0.0,4468,2019-08-07 16:52:47:796
-4.7883,-7.589,2.8224,-0.4396,-0.1072,0.1669,-0.0111,0.0292,0.0021,4473,2019-08-07 16:52:47:801
-4.7883,-7.589,2.8224,-0.4396,-0.1072,0.1669,-0.0111,0.0292,0.0021,4478,2019-08-07 16:52:47:806
-4.7883,-7.589,2.8224,-0.4396,-0.1072,0.1669,-0.0143,0.0335,-0.0021,4482,2019-08-07 16:52:47:810
-4.8601,-7.5604,2.8083,-0.3918,-0.1714,0.1706,-0.0143,0.0335,-0.0021,4488,2019-08-07 16:52:47:816
-4.8601,-7.5604,2.8083,-0.3918,-0.1714,0.1706,-0.0154,0.026,-0.0053,4493,2019-08-07 16:52:47:821
-4.8792,-7.4983,2.8036,-0.3918,-0.1714,0.1706,-0.0154,0.026,-0.0053,4499,2019-08-07 16:52:47:827
-4.8792,-7.4983,2.8036,-0.3918,-0.1714,0.1706,-0.0154,0.026,-0.0053,4503,2019-08-07 16:52:47:831
-4.8792,-7.4983,2.8036,-0.3484,-0.2309,0.1844,-0.0111,0.025,-0.0021,4508,2019-08-07 16:52:47:836
-4.927,-7.4649,2.8743,-0.3484,-0.2309,0.1844,-0.0111,0.025,-0.0021,4513,2019-08-07 16:52:47:841
-4.927,-7.4649,2.8743,-0.3484,-0.2309,0.1844,-0.0154,0.0229,-0.0011,4517,2019-08-07 16:52:47:845
-4.927,-7.4649,2.8743,-0.3484,-0.2309,0.1844,-0.0154,0.0229,-0.0011,4523,2019-08-07 16:52:47:851
-4.8553,-7.4697,2.8601,-0.3964,-0.2325,0.1326,-0.0207,0.0143,0.0064,4527,2019-08-07 16:52:47:855
-4.8553,-7.4697,2.8601,-0.3964,-0.2325,0.1326,-0.0207,0.0143,0.0064,4534,2019-08-07 16:52:47:862
-4.9127,-7.5556,2.7894,-0.3964,-0.2325,0.1326,-0.0175,0.0165,0.0085,4538,2019-08-07 16:52:47:866
-4.9127,-7.5556,2.7894,-0.3964,-0.2325,0.1326,-0.0175,0.0165,0.0085,4543,2019-08-07 16:52:47:871
-4.9127,-7.5556,2.7894,-0.3964,-0.2325,0.1326,-0.0143,0.026,0.0085,4548,2019-08-07 16:52:47:876
-4.8984,-7.5126,2.7093,-0.3545,-0.2243,0.2544,-0.0143,0.026,0.0085,4553,2019-08-07 16:52:47:881
-4.8984,-7.5126,2.7093,-0.3545,-0.2243,0.2544,-0.0111,0.0271,0.0181,4557,2019-08-07 16:52:47:885
-4.8601,-7.5651,2.7658,-0.3545,-0.2243,0.2544,-0.0111,0.0271,0.0181,4563,2019-08-07 16:52:47:891
-4.8601,-7.5651,2.7658,-0.4052,-0.1242,0.15,-0.0069,0.0282,0.0234,4568,2019-08-07 16:52:47:896
-4.8601,-7.5651,2.7658,-0.4052,-0.1242,0.15,-0.0069,0.0282,0.0234,4573,2019-08-07 16:52:47:901
-4.8601,-7.5651,2.7658,-0.4052,-0.1242,0.15,-0.0069,0.0282,0.0234,4578,2019-08-07 16:52:47:906
-4.8601,-7.5842,2.7611,-0.4052,-0.1242,0.15,-5.0E-4,0.0346,0.0181,4583,2019-08-07 16:52:47:911
-4.8601,-7.5842,2.7611,-0.3134,-0.2235,0.2114,0.0112,0.0548,0.0234,4588,2019-08-07 16:52:47:916
-4.9653,-7.4506,2.7093,-0.3134,-0.2235,0.2114,0.0112,0.0548,0.0234,4593,2019-08-07 16:52:47:921
-4.9653,-7.4506,2.7093,-0.3134,-0.2235,0.2114,0.0112,0.0548,0.0234,4598,2019-08-07 16:52:47:926
-4.9653,-7.4506,2.7093,-0.3134,-0.2235,0.2114,0.0144,0.0623,0.0224,4602,2019-08-07 16:52:47:930
-5.0563,-7.4553,2.9167,-0.3134,-0.2235,0.2114,0.0144,0.0623,0.0224,4608,2019-08-07 16:52:47:936
-5.0563,-7.4553,2.9167,-0.1956,-0.2494,0.1268,0.0123,0.041,0.0256,4613,2019-08-07 16:52:47:941
-5.0658,-7.484,2.8978,-0.1956,-0.2494,0.1268,0.0123,0.041,0.0256,4618,2019-08-07 16:52:47:946
-5.0658,-7.484,2.8978,-0.1956,-0.2494,0.1268,0.0134,0.0165,0.0224,4623,2019-08-07 16:52:47:951
-5.0658,-7.484,2.8978,-0.1956,-0.2494,0.1268,0.0134,0.0165,0.0224,4627,2019-08-07 16:52:47:955
-5.0754,-7.5365,2.8035,-0.1953,-0.194,0.1453,0.0176,0.0058,0.0128,4633,2019-08-07 16:52:47:961
-5.0754,-7.5365,2.8035,-0.1953,-0.194,0.1453,0.0176,0.0058,0.0128,4638,2019-08-07 16:52:47:966
-4.9749,-7.4362,2.8648,-0.1953,-0.194,0.1453,0.0123,0.0015,0.0138,4643,2019-08-07 16:52:47:971
-4.9749,-7.4362,2.8648,-0.1953,-0.194,0.1453,0.0123,0.0015,0.0138,4648,2019-08-07 16:52:47:976
-4.8506,-7.5078,2.7423,-0.3689,-0.2638,0.1381,0.0144,0.0058,0.017,4653,2019-08-07 16:52:47:981
-4.8506,-7.5078,2.7423,-0.3689,-0.2638,0.1381,0.0144,0.0058,0.017,4658,2019-08-07 16:52:47:986
-4.8506,-7.5078,2.7423,-0.3689,-0.2638,0.1381,0.0219,0.0314,0.0149,4663,2019-08-07 16:52:47:991
-4.8123,-7.5078,2.7517,-0.4568,-0.2148,0.1287,0.0219,0.0314,0.0149,4668,2019-08-07 16:52:47:996
-4.8123,-7.5078,2.7517,-0.4568,-0.2148,0.1287,0.0208,0.0527,0.0138,4673,2019-08-07 16:52:48:001
-4.8123,-7.5078,2.7517,-0.4568,-0.2148,0.1287,0.0208,0.0527,0.0138,4677,2019-08-07 16:52:48:005
-4.8888,-7.5413,2.7941,-0.4568,-0.2148,0.1287,0.0144,0.0537,0.0256,4683,2019-08-07 16:52:48:011
-4.8888,-7.5413,2.7941,-0.4568,-0.2148,0.1287,0.0144,0.0537,0.0256,4688,2019-08-07 16:52:48:016
-4.8888,-7.5413,2.7941,-0.366,-0.1791,0.0599,0.0144,0.0537,0.0256,4693,2019-08-07 16:52:48:021
-4.9128,-7.5269,2.9072,-0.366,-0.1791,0.0599,0.0208,0.0431,0.0298,4698,2019-08-07 16:52:48:026
-4.9128,-7.5269,2.9072,-0.366,-0.1791,0.0599,0.0208,0.0431,0.0298,4703,2019-08-07 16:52:48:031
-4.9367,-7.4744,2.8648,-0.366,-0.1791,0.0599,0.024,0.0303,0.0309,4707,2019-08-07 16:52:48:035
-4.9367,-7.4744,2.8648,-0.3526,-0.223,0.0929,0.024,0.0303,0.0309,4713,2019-08-07 16:52:48:041
-4.9367,-7.4744,2.8648,-0.3526,-0.223,0.0929,0.023,0.0197,0.0373,4718,2019-08-07 16:52:48:046
-4.9367,-7.5651,2.8742,-0.3526,-0.223,0.0929,0.023,0.0197,0.0373,4722,2019-08-07 16:52:48:050
-4.9367,-7.5651,2.8742,-0.3526,-0.223,0.0929,0.0176,0.0154,0.0373,4728,2019-08-07 16:52:48:056
-4.9606,-7.5556,2.8035,-0.3299,-0.1612,0.1458,0.0176,0.0154,0.0373,4733,2019-08-07 16:52:48:061
-4.9606,-7.5556,2.8035,-0.3299,-0.1612,0.1458,0.0176,0.0154,0.0373,4738,2019-08-07 16:52:48:066
-4.9606,-7.5556,2.8035,-0.3299,-0.1612,0.1458,0.024,0.0197,0.0298,4743,2019-08-07 16:52:48:071
-4.9989,-7.5604,2.7988,-0.3299,-0.1612,0.1458,0.024,0.0197,0.0298,4748,2019-08-07 16:52:48:076
-4.9989,-7.5604,2.7988,-0.3296,-0.1765,0.0957,0.0219,0.0218,0.0277,4752,2019-08-07 16:52:48:080
-4.9558,-7.5317,2.7753,-0.3296,-0.1765,0.0957,0.0219,0.0218,0.0277,4758,2019-08-07 16:52:48:086
-4.9558,-7.5317,2.7753,-0.3296,-0.1765,0.0957,0.023,0.0229,0.0256,4763,2019-08-07 16:52:48:091
-4.9558,-7.5317,2.7753,-0.3296,-0.1765,0.0957,0.023,0.0229,0.0256,4768,2019-08-07 16:52:48:096
-4.975,-7.4935,2.8177,-0.3241,-0.2164,0.1339,0.0262,0.0356,0.0202,4773,2019-08-07 16:52:48:101
-4.975,-7.4935,2.8177,-0.3241,-0.2164,0.1339,0.0262,0.0356,0.0202,4779,2019-08-07 16:52:48:107
-4.975,-7.4935,2.8177,-0.3241,-0.2164,0.1339,0.0283,0.042,0.0149,4783,2019-08-07 16:52:48:111
-5.0228,-7.484,2.8177,-0.3241,-0.2164,0.1339,0.0283,0.042,0.0149,4788,2019-08-07 16:52:48:116
-5.0228,-7.484,2.8177,-0.3378,-0.1709,0.1756,0.0283,0.042,0.0149,4792,2019-08-07 16:52:48:120
-4.9894,-7.4935,2.8884,-0.3378,-0.1709,0.1756,0.024,0.0335,0.0149,4798,2019-08-07 16:52:48:126
-4.9894,-7.4935,2.8884,-0.3378,-0.1709,0.1756,0.024,0.0335,0.0149,4802,2019-08-07 16:52:48:130
-4.9894,-7.4935,2.8884,-0.3378,-0.1709,0.1756,0.0219,0.0271,0.0181,4808,2019-08-07 16:52:48:136
-4.975,-7.5413,2.8601,-0.3378,-0.1709,0.1756,0.0219,0.0271,0.0181,4813,2019-08-07 16:52:48:141
-4.975,-7.5413,2.8601,-0.3458,-0.1447,0.0723,0.0283,0.0229,0.016,4818,2019-08-07 16:52:48:146
-4.975,-7.5413,2.8601,-0.3458,-0.1447,0.0723,0.0283,0.0229,0.016,4822,2019-08-07 16:52:48:150
-4.9463,-7.5651,2.8507,-0.3458,-0.1447,0.0723,0.0283,0.0175,0.0181,4828,2019-08-07 16:52:48:156
-4.9463,-7.5651,2.8507,-0.3197,-0.166,0.1638,0.0283,0.0175,0.0181,4833,2019-08-07 16:52:48:161
-4.9655,-7.5699,2.7988,-0.3197,-0.166,0.1638,0.0304,0.0303,0.0074,4838,2019-08-07 16:52:48:166
-4.9655,-7.5699,2.7988,-0.3197,-0.166,0.1638,0.0304,0.0303,0.0074,4843,2019-08-07 16:52:48:171
-4.9655,-7.5699,2.7988,-0.3197,-0.166,0.1638,0.0315,0.0335,0.0096,4848,2019-08-07 16:52:48:176
-4.9798,-7.589,2.7705,-0.3267,-0.1353,0.1179,0.0315,0.0335,0.0096,4853,2019-08-07 16:52:48:181
-4.9798,-7.589,2.7705,-0.3267,-0.1353,0.1179,0.0315,0.0335,0.0096,4858,2019-08-07 16:52:48:186
-4.9798,-7.589,2.7705,-0.3267,-0.1353,0.1179,0.0347,0.0442,-0.0011,4863,2019-08-07 16:52:48:191
-5.042,-7.5031,2.8318,-0.3267,-0.1353,0.1179,0.0347,0.0442,-0.0011,4868,2019-08-07 16:52:48:196
-5.042,-7.5031,2.8318,-0.2568,-0.2008,0.1277,0.0357,0.058,-0.0096,4873,2019-08-07 16:52:48:201
-5.042,-7.5031,2.8318,-0.2568,-0.2008,0.1277,0.0357,0.058,-0.0096,4877,2019-08-07 16:52:48:205
-5.1042,-7.4649,2.813,-0.2568,-0.2008,0.1277,0.0357,0.058,-0.0096,4883,2019-08-07 16:52:48:211
-5.1042,-7.4649,2.813,-0.2568,-0.2008,0.1277,0.0283,0.0591,-0.0139,4888,2019-08-07 16:52:48:216
-5.0755,-7.5222,2.8742,-0.2568,-0.2008,0.1277,0.0283,0.0591,-0.0139,4893,2019-08-07 16:52:48:221
-5.0755,-7.5222,2.8742,-0.2337,-0.2008,0.0979,0.0272,0.0569,-0.0213,4898,2019-08-07 16:52:48:226
-5.1329,-7.5222,2.8554,-0.2337,-0.2008,0.0979,0.0272,0.0569,-0.0213,4902,2019-08-07 16:52:48:230
-5.1329,-7.5222,2.8554,-0.2337,-0.2008,0.0979,0.0293,0.0474,-0.0309,4908,2019-08-07 16:52:48:236
-5.1329,-7.5222,2.8554,-0.2224,-0.1689,0.0923,0.0293,0.0474,-0.0309,4913,2019-08-07 16:52:48:241
-5.0899,-7.5317,2.8601,-0.2224,-0.1689,0.0923,0.0336,0.0314,-0.0277,4918,2019-08-07 16:52:48:246
-5.0899,-7.5317,2.8601,-0.2224,-0.1689,0.0923,0.0336,0.0314,-0.0277,4924,2019-08-07 16:52:48:252
-4.9942,-7.5365,2.8837,-0.2224,-0.1689,0.0923,0.0357,0.0207,-0.0277,4928,2019-08-07 16:52:48:256
-4.9942,-7.5365,2.8837,-0.3527,-0.2085,-0.0038,0.0357,0.0207,-0.0277,4933,2019-08-07 16:52:48:261
-4.9942,-7.5365,2.8837,-0.3527,-0.2085,-0.0038,0.0379,0.0186,-0.0266,4938,2019-08-07 16:52:48:266
-4.9655,-7.4696,2.9214,-0.3527,-0.2085,-0.0038,0.0379,0.0186,-0.0266,4943,2019-08-07 16:52:48:271
-4.9655,-7.4696,2.9214,-0.3552,-0.2282,0.0645,0.0379,0.0186,-0.0266,4948,2019-08-07 16:52:48:276
-4.9607,-7.4649,2.8695,-0.3552,-0.2282,0.0645,0.0379,0.0122,-0.0234,4953,2019-08-07 16:52:48:281
-4.9607,-7.4649,2.8695,-0.3552,-0.2282,0.0645,0.0379,0.0122,-0.0234,4958,2019-08-07 16:52:48:286
-4.9607,-7.4649,2.8695,-0.3275,-0.2384,0.0557,0.0389,0.0133,-0.0192,4963,2019-08-07 16:52:48:291
-4.9416,-7.4028,2.8789,-0.3275,-0.2384,0.0557,0.0389,0.0133,-0.0192,4968,2019-08-07 16:52:48:296
-4.9416,-7.4028,2.8789,-0.3275,-0.2384,0.0557,0.0368,0.0122,-0.0181,4973,2019-08-07 16:52:48:301
-4.9416,-7.4028,2.8789,-0.3275,-0.2384,0.0557,0.0368,0.0122,-0.0181,4977,2019-08-07 16:52:48:305
-4.9129,-7.3933,2.8884,-0.3631,-0.3197,0.0977,0.0262,0.0079,-0.0117,4984,2019-08-07 16:52:48:312
-4.9129,-7.3933,2.8884,-0.3631,-0.3197,0.0977,0.0262,0.0079,-0.0117,4987,2019-08-07 16:52:48:315
-4.932,-7.4362,2.9166,-0.3631,-0.3197,0.0977,0.0262,0.0079,-0.0117,4993,2019-08-07 16:52:48:321
-4.932,-7.4362,2.9166,-0.3631,-0.3197,0.0977,0.0123,0.0058,-0.0075,4998,2019-08-07 16:52:48:326
-4.9464,-7.4505,2.8129,-0.3515,-0.2533,0.1568,0.0155,0.0165,-0.0053,5004,2019-08-07 16:52:48:332
-4.9464,-7.4505,2.8129,-0.3515,-0.2533,0.1568,0.0155,0.0165,-0.0053,5008,2019-08-07 16:52:48:336
-4.9464,-7.4505,2.8129,-0.3515,-0.2533,0.1568,0.0155,0.0165,-0.0053,5013,2019-08-07 16:52:48:341
-4.932,-7.4362,2.8554,-0.3654,-0.2678,0.1146,0.0123,0.0218,-0.0032,5018,2019-08-07 16:52:48:346
-4.932,-7.4362,2.8554,-0.3654,-0.2678,0.1146,0.0123,0.0218,-0.0032,5022,2019-08-07 16:52:48:350
-4.932,-7.4362,2.8554,-0.3654,-0.2678,0.1146,0.0048,0.0303,-0.0075,5028,2019-08-07 16:52:48:356
-5.0421,-7.3933,2.9025,-0.3654,-0.2678,0.1146,0.0048,0.0303,-0.0075,5033,2019-08-07 16:52:48:361
-5.0421,-7.3933,2.9025,-0.2317,-0.297,0.0845,0.0048,0.0303,-0.0075,5038,2019-08-07 16:52:48:366
-5.0421,-7.3933,2.9025,-0.2317,-0.297,0.0845,0.008,0.0282,-0.0096,5043,2019-08-07 16:52:48:371
-5.1473,-7.398,2.8224,-0.1603,-0.3401,0.107,0.0027,0.0165,-0.0075,5048,2019-08-07 16:52:48:376
-5.1473,-7.398,2.8224,-0.1603,-0.3401,0.107,0.0027,0.0165,-0.0075,5053,2019-08-07 16:52:48:381
-5.0469,-7.4315,2.8035,-0.1603,-0.3401,0.107,0.0027,0.0165,-0.0075,5058,2019-08-07 16:52:48:386
-5.0469,-7.4315,2.8035,-0.1603,-0.3401,0.107,-0.0015,0.0069,-0.0096,5063,2019-08-07 16:52:48:391
-5.0469,-7.4315,2.8035,-0.2647,-0.303,0.1528,-0.0015,0.0069,-0.0096,5068,2019-08-07 16:52:48:396
-4.9943,-7.4314,2.8365,-0.2647,-0.303,0.1528,0.0059,0.0047,-0.0192,5073,2019-08-07 16:52:48:401
-4.9943,-7.4314,2.8365,-0.2647,-0.303,0.1528,0.0059,0.0047,-0.0192,5078,2019-08-07 16:52:48:406
-5.023,-7.398,2.7799,-0.2647,-0.303,0.1528,0.0123,0.0058,-0.0171,5084,2019-08-07 16:52:48:412
-5.023,-7.398,2.7799,-0.2715,-0.2331,0.2053,0.0123,0.0058,-0.0171,5088,2019-08-07 16:52:48:416
-5.023,-7.398,2.7799,-0.2715,-0.2331,0.2053,0.0123,0.0058,-0.0171,5092,2019-08-07 16:52:48:420
-4.9656,-7.4696,2.7658,-0.3083,-0.2291,0.2153,0.0155,0.0047,-0.016,5098,2019-08-07 16:52:48:426
-4.9656,-7.4696,2.7658,-0.3083,-0.2291,0.2153,0.0155,0.0047,-0.016,5103,2019-08-07 16:52:48:431
-4.9656,-7.4696,2.7658,-0.3083,-0.2291,0.2153,0.0208,0.0133,-0.0107,5108,2019-08-07 16:52:48:436
-4.9943,-7.4171,2.8176,-0.3083,-0.2291,0.2153,0.0208,0.0133,-0.0107,5113,2019-08-07 16:52:48:441
-4.9943,-7.4171,2.8176,-0.3682,-0.2729,0.1889,0.0304,0.0207,-0.0064,5118,2019-08-07 16:52:48:446
-4.9369,-7.3933,2.8318,-0.3682,-0.2729,0.1889,0.0304,0.0207,-0.0064,5122,2019-08-07 16:52:48:450
-4.9369,-7.3933,2.8318,-0.3682,-0.2729,0.1889,0.0325,0.0143,0.0021,5128,2019-08-07 16:52:48:456
-4.9369,-7.3933,2.8318,-0.3682,-0.2729,0.1889,0.0325,0.0143,0.0021,5133,2019-08-07 16:52:48:461
-4.9369,-7.441,2.7941,-0.3538,-0.267,0.1779,0.0325,0.0143,0.0021,5138,2019-08-07 16:52:48:466
-4.9369,-7.441,2.7941,-0.3538,-0.267,0.1779,0.0357,0.0133,0.0085,5143,2019-08-07 16:52:48:471
-4.9369,-7.4458,2.9213,-0.3538,-0.267,0.1779,0.0357,0.0207,0.0074,5148,2019-08-07 16:52:48:476
-4.9225,-7.4458,2.9213,-0.3538,-0.267,0.1779,0.0357,0.0207,0.0074,5153,2019-08-07 16:52:48:481
-4.9225,-7.4458,2.9213,-0.2784,-0.274,0.0502,0.0357,0.0207,0.0074,5158,2019-08-07 16:52:48:486
-5.0039,-7.3598,2.8931,-0.2784,-0.274,0.0502,0.0368,0.0197,0.0096,5163,2019-08-07 16:52:48:491
-5.0039,-7.3598,2.8931,-0.2784,-0.274,0.0502,0.0368,0.0197,0.0096,5168,2019-08-07 16:52:48:496
-5.0421,-7.4267,2.8883,-0.2784,-0.274,0.0502,0.0315,5.0E-4,0.0085,5173,2019-08-07 16:52:48:501
-5.0421,-7.4267,2.8883,-0.2612,-0.2567,0.1394,0.0315,5.0E-4,0.0085,5178,2019-08-07 16:52:48:506
-5.0421,-7.4267,2.8883,-0.2612,-0.2567,0.1394,0.0262,-6.0E-4,0.0032,5183,2019-08-07 16:52:48:511
-5.023,-7.4458,2.8318,-0.2612,-0.2567,0.1394,0.0262,-6.0E-4,0.0032,5188,2019-08-07 16:52:48:516
-5.023,-7.4458,2.8318,-0.2612,-0.2567,0.1394,0.0262,-6.0E-4,0.0032,5193,2019-08-07 16:52:48:521
-5.023,-7.4458,2.8318,-0.2654,-0.2843,0.1618,0.0176,0.0079,-0.0043,5198,2019-08-07 16:52:48:526
-4.98,-7.4219,2.8224,-0.2654,-0.2843,0.1618,0.0176,0.0079,-0.0043,5203,2019-08-07 16:52:48:531
-4.98,-7.4219,2.8224,-0.2654,-0.2843,0.1618,0.008,0.0239,-0.016,5208,2019-08-07 16:52:48:536
-4.98,-7.4219,2.8224,-0.2654,-0.2843,0.1618,0.008,0.0239,-0.016,5212,2019-08-07 16:52:48:540
-5.1426,-7.3503,2.7045,0.4911,-0.5144,0.6227,-0.042,-0.0901,-0.0171,5219,2019-08-07 16:52:48:547
-5.1426,-7.3503,2.7045,0.4911,-0.5144,0.6227,-0.042,-0.0901,-0.0171,5222,2019-08-07 16:52:48:550
-5.1426,-7.3503,2.7045,0.4911,-0.5144,0.6227,-0.042,-0.0901,-0.0171,5228,2019-08-07 16:52:48:556
-5.0278,-7.5317,3.9018,0.4911,-0.5144,0.6227,-0.0868,-0.1827,0.0181,5234,2019-08-07 16:52:48:562
-5.0278,-7.5317,3.9018,-0.7145,0.0175,-0.3386,-0.0868,-0.1827,0.0181,5238,2019-08-07 16:52:48:566
-5.0278,-7.5317,3.9018,-0.7145,0.0175,-0.3386,-0.0868,-0.1827,0.0181,5243,2019-08-07 16:52:48:571
-4.4202,-7.7704,2.6856,-0.7145,0.0175,-0.3386,0.089,-0.2019,-0.0426,5248,2019-08-07 16:52:48:576
-4.4202,-7.7704,2.6856,-0.7145,0.0175,-0.3386,0.089,-0.2019,-0.0426,5252,2019-08-07 16:52:48:580
-4.4537,-7.4505,2.4264,-0.8117,-0.2577,0.5892,0.0837,0.0719,-0.0277,5258,2019-08-07 16:52:48:586
-4.4537,-7.4505,2.4264,-0.8117,-0.2577,0.5892,0.0837,0.0719,-0.0277,5263,2019-08-07 16:52:48:591
-4.4537,-7.4505,2.4264,-0.8117,-0.2577,0.5892,0.0411,0.2103,0.0245,5267,2019-08-07 16:52:48:595
-4.5063,-7.3551,2.5914,-0.8117,-0.2577,0.5892,0.0411,0.2103,0.0245,5273,2019-08-07 16:52:48:601
-4.5063,-7.3551,2.5914,-0.3836,-0.4377,0.1712,0.0166,0.2572,0.0053,5278,2019-08-07 16:52:48:606
-5.2001,-7.293,2.9213,-0.3836,-0.4377,0.1712,0.0166,0.2572,0.0053,5282,2019-08-07 16:52:48:610
-5.2001,-7.293,2.9213,-0.3836,-0.4377,0.1712,0.0166,0.2178,0.0074,5288,2019-08-07 16:52:48:616
-5.2001,-7.293,2.9213,-0.3836,-0.4377,0.1712,0.0166,0.2178,0.0074,5293,2019-08-07 16:52:48:621
-5.4441,-7.4887,3.157,0.0841,-0.2628,-0.2066,0.0038,0.1113,0.0266,5298,2019-08-07 16:52:48:626
-5.4441,-7.4887,3.157,0.0841,-0.2628,-0.2066,0.0038,0.1113,0.0266,5303,2019-08-07 16:52:48:631
-5.2577,-7.4219,3.2513,0.0841,-0.2628,-0.2066,0.0027,0.0058,0.017,5308,2019-08-07 16:52:48:636