ACCELEROMETER X (m/s²),ACCELEROMETER Y (m/s²),ACCELEROMETER Z (m/s²),LINEAR ACCELERATION X (m/s²),LINEAR ACCELERATION Y (m/s²),LINEAR ACCELERATION Z (m/s²),GYROSCOPE X (rad/s),GYROSCOPE Y (rad/s),GYROSCOPE Z (rad/s),Time since start in ms ,YYYY-MO-DD HH-MI-SS_SSS
-4.8639,-7.4125,3.0017,-0.2499,-0.3253,0.0869,0.0059,-0.0038,-0.0085,4,2019-08-07 16:52:56:081
-4.8639,-7.4125,3.0017,-0.2499,-0.3253,0.0869,0.0059,-0.0038,-0.0085,8,2019-08-07 16:52:56:085
-4.8448,-7.4698,2.9452,-0.3392,-0.297,0.1264,0.0016,-0.0112,0.0032,14,2019-08-07 16:52:56:091
-4.8448,-7.4698,2.9452,-0.3392,-0.297,0.1264,0.0016,-0.0112,0.0032,18,2019-08-07 16:52:56:095
-4.8448,-7.4698,2.9452,-0.3392,-0.297,0.1264,0.0027,-0.0102,0.0128,24,2019-08-07 16:52:56:101
-4.8735,-7.4602,2.9735,-0.3392,-0.297,0.1264,0.0027,-0.0102,0.0128,28,2019-08-07 16:52:56:105
-4.8735,-7.4602,2.9735,-0.3013,-0.2961,0.1374,0.0016,-0.0123,0.0224,35,2019-08-07 16:52:56:112
-4.8735,-7.4602,2.9735,-0.3013,-0.2961,0.1374,0.0016,-0.0123,0.0224,38,2019-08-07 16:52:56:115
-4.8974,-7.4984,2.9452,-0.3013,-0.2961,0.1374,0.0016,-0.0123,0.0224,44,2019-08-07 16:52:56:121
-4.8974,-7.4984,2.9452,-0.3013,-0.2961,0.1374,0.0027,-0.0155,0.0256,48,2019-08-07 16:52:56:125
-4.9548,-7.4316,2.9546,-0.3013,-0.2961,0.1374,0.0027,-0.0155,0.0256,54,2019-08-07 16:52:56:131
-4.9548,-7.4316,2.9546,-0.2224,-0.2984,0.1443,0.0123,-0.0059,0.0256,59,2019-08-07 16:52:56:136
-4.9548,-7.4316,2.9546,-0.2224,-0.2984,0.1443,0.0123,-0.0059,0.0256,64,2019-08-07 16:52:56:141
-4.9883,-7.4363,2.9169,-0.2224,-0.2984,0.1443,0.0091,-0.0048,0.0309,69,2019-08-07 16:52:56:146
-4.9883,-7.4363,2.9169,-0.2224,-0.2984,0.1443,0.0091,-0.0048,0.0309,74,2019-08-07 16:52:56:151
-4.95,-7.4459,2.898,-0.2456,-0.2663,0.2074,0.0091,0.0047,0.0224,79,2019-08-07 16:52:56:156
-4.95,-7.4459,2.898,-0.2456,-0.2663,0.2074,0.0091,0.0047,0.0224,83,2019-08-07 16:52:56:160
-4.95,-7.4459,2.898,-0.2456,-0.2663,0.2074,0.0166,0.0197,0.016,89,2019-08-07 16:52:56:166
-4.9692,-7.3934,2.8933,-0.2456,-0.2663,0.2074,0.0166,0.0197,0.016,93,2019-08-07 16:52:56:170
-4.9692,-7.3934,2.8933,-0.1823,-0.2732,0.1326,0.0187,0.0197,0.0138,98,2019-08-07 16:52:56:175
-4.9787,-7.4363,2.9169,-0.1823,-0.2732,0.1326,0.0187,0.0197,0.0138,104,2019-08-07 16:52:56:181
-4.9787,-7.4363,2.9169,-0.1823,-0.2732,0.1326,0.0187,0.0197,0.0138,109,2019-08-07 16:52:56:186
-4.9787,-7.4363,2.9169,-0.1823,-0.2732,0.1326,0.0219,0.0186,0.0106,113,2019-08-07 16:52:56:190
-4.9787,-7.4363,2.9546,-0.2237,-0.2898,0.1241,0.0219,0.0186,0.0106,119,2019-08-07 16:52:56:196
-4.9787,-7.4363,2.9546,-0.2237,-0.2898,0.1241,0.0325,0.0058,0.0053,124,2019-08-07 16:52:56:201
-4.9835,-7.4698,3.0347,-0.2237,-0.2898,0.1241,0.0325,0.0058,0.0053,129,2019-08-07 16:52:56:206
-4.9835,-7.4698,3.0347,-0.2237,-0.2898,0.1241,0.0357,-0.0027,0.0085,133,2019-08-07 16:52:56:210
-4.9835,-7.4698,3.0347,-0.2538,-0.287,0.0389,0.0357,-0.0027,0.0085,139,2019-08-07 16:52:56:216
-4.9452,-7.4125,2.9452,-0.2538,-0.287,0.0389,0.0357,-0.0027,0.0085,143,2019-08-07 16:52:56:220
-4.9452,-7.4125,2.9452,-0.2538,-0.287,0.0389,0.0379,-0.0187,0.0138,149,2019-08-07 16:52:56:226
-4.8543,-7.4172,2.8886,-0.2538,-0.287,0.0389,0.0379,-0.0187,0.0138,154,2019-08-07 16:52:56:231
-4.8543,-7.4172,2.8886,-0.3694,-0.3647,0.1549,0.0379,-0.0155,0.0192,159,2019-08-07 16:52:56:236
-4.8543,-7.4172,2.8886,-0.3694,-0.3647,0.1549,0.0379,-0.0155,0.0192,164,2019-08-07 16:52:56:241
-4.9118,-7.3838,2.9546,-0.3694,-0.3647,0.1549,0.0368,-0.0027,0.0224,169,2019-08-07 16:52:56:246
-4.9118,-7.3838,2.9546,-0.3694,-0.3647,0.1549,0.0368,-0.0027,0.0224,174,2019-08-07 16:52:56:251
-4.8878,-7.4363,2.9122,-0.2955,-0.308,0.175,0.0368,0.0047,0.0309,179,2019-08-07 16:52:56:256
-4.8878,-7.4363,2.9122,-0.2955,-0.308,0.175,0.0368,0.0047,0.0309,183,2019-08-07 16:52:56:260
-4.8878,-7.4363,2.9122,-0.2955,-0.308,0.175,0.0357,0.0069,0.0277,189,2019-08-07 16:52:56:266
-4.9931,-7.4507,2.9923,-0.2955,-0.308,0.175,0.0357,0.0069,0.0277,193,2019-08-07 16:52:56:270
-4.9931,-7.4507,2.9923,-0.1901,-0.3362,0.1378,0.0368,0.0111,0.0309,199,2019-08-07 16:52:56:276
-4.9931,-7.4507,2.9923,-0.1901,-0.3362,0.1378,0.0368,0.0111,0.0309,204,2019-08-07 16:52:56:281
-5.0027,-7.3934,2.9169,-0.1901,-0.3362,0.1378,0.0379,0.0015,0.0362,209,2019-08-07 16:52:56:286
-5.0027,-7.3934,2.9169,-0.1901,-0.3362,0.1378,0.0379,0.0015,0.0362,213,2019-08-07 16:52:56:290
-4.974,-7.4077,2.9169,-0.277,-0.2491,0.1573,0.0379,0.0015,0.0341,219,2019-08-07 16:52:56:296
-4.974,-7.4077,2.9169,-0.277,-0.2491,0.1573,0.0379,0.0015,0.0341,224,2019-08-07 16:52:56:301
-4.974,-7.4077,2.9169,-0.2891,-0.3179,0.1976,0.0379,0.0015,0.0341,228,2019-08-07 16:52:56:305
-4.9596,-7.4268,2.9075,-0.2891,-0.3179,0.1976,0.0379,0.0207,0.0298,234,2019-08-07 16:52:56:311
-4.9596,-7.4268,2.9075,-0.2891,-0.3179,0.1976,0.0379,0.0207,0.0298,238,2019-08-07 16:52:56:315
-4.9644,-7.4459,2.9782,-0.2891,-0.3179,0.1976,0.0421,0.0431,0.0309,244,2019-08-07 16:52:56:321
-4.9644,-7.4459,2.9782,-0.2475,-0.26,0.1438,0.0421,0.0431,0.0309,249,2019-08-07 16:52:56:326
-4.9644,-7.4459,2.9782,-0.2475,-0.26,0.1438,0.0421,0.0431,0.0309,254,2019-08-07 16:52:56:331
-5.0218,-7.4268,2.9687,-0.2475,-0.26,0.1438,0.0549,0.0591,0.0266,259,2019-08-07 16:52:56:336
-5.0218,-7.4268,2.9687,-0.2475,-0.26,0.1438,0.0549,0.0591,0.0266,265,2019-08-07 16:52:56:342
-5.1079,-7.3981,3.063,-0.1259,-0.292,0.0522,0.0592,0.0527,0.0213,269,2019-08-07 16:52:56:346
-5.1079,-7.3981,3.063,-0.1259,-0.292,0.0522,0.0592,0.0527,0.0213,273,2019-08-07 16:52:56:350
-5.1079,-7.3981,3.063,-0.1259,-0.292,0.0522,0.0624,0.0282,0.0234,279,2019-08-07 16:52:56:356
-5.1797,-7.4125,3.1714,-0.1259,-0.292,0.0522,0.0624,0.0282,0.0234,284,2019-08-07 16:52:56:361
-5.1797,-7.4125,3.1714,-0.0929,-0.2567,0.0032,0.0592,-0.0123,0.0213,288,2019-08-07 16:52:56:365
-5.1701,-7.4077,3.03,-0.0929,-0.2567,0.0032,0.0592,-0.0123,0.0213,294,2019-08-07 16:52:56:371
-5.1701,-7.4077,3.03,-0.0929,-0.2567,0.0032,0.0592,-0.0453,0.0256,299,2019-08-07 16:52:56:376
-5.1701,-7.4077,3.03,-0.0929,-0.2567,0.0032,0.0592,-0.0453,0.0256,304,2019-08-07 16:52:56:381
-5.0601,-7.3647,3.0819,-0.0929,-0.2567,0.0032,0.0592,-0.0453,0.0256,309,2019-08-07 16:52:56:386
-5.0601,-7.3647,3.0819,-0.1803,-0.2885,0.0592,0.057,-0.0613,0.0245,314,2019-08-07 16:52:56:391
-5.0601,-7.3647,3.0819,-0.1803,-0.2885,0.0592,0.057,-0.0613,0.0245,318,2019-08-07 16:52:56:395
-4.9644,-7.4029,2.964,-0.1803,-0.2885,0.0592,0.0528,-0.0602,0.0213,324,2019-08-07 16:52:56:401
-4.9644,-7.4029,2.964,-0.4093,-0.2832,0.1863,0.0443,-0.0357,0.0213,329,2019-08-07 16:52:56:406
-4.84,-7.3981,2.9075,-0.4093,-0.2832,0.1863,0.0443,-0.0357,0.0213,334,2019-08-07 16:52:56:411
-4.84,-7.3981,2.9075,-0.4093,-0.2832,0.1863,0.0443,-0.0357,0.0213,339,2019-08-07 16:52:56:416
-4.8687,-7.36,2.931,-0.4093,-0.2832,0.1863,0.0389,0.0111,0.0181,344,2019-08-07 16:52:56:421
-4.8687,-7.36,2.931,-0.3773,-0.2845,0.1783,0.0389,0.0111,0.0181,349,2019-08-07 16:52:56:426
-4.8687,-7.36,2.931,-0.3773,-0.2845,0.1783,0.0347,0.0431,0.016,354,2019-08-07 16:52:56:431
-4.907,-7.3647,2.9782,-0.3773,-0.2845,0.1783,0.0347,0.0431,0.016,359,2019-08-07 16:52:56:436
-4.907,-7.3647,2.9782,-0.3773,-0.2845,0.1783,0.0347,0.0431,0.016,364,2019-08-07 16:52:56:441
-4.907,-7.3647,2.9782,-0.3773,-0.2845,0.1783,0.0347,0.0431,0.016,368,2019-08-07 16:52:56:445
-4.9692,-7.379,3.0347,-0.2743,-0.2876,0.1219,0.0347,0.0527,0.0138,374,2019-08-07 16:52:56:451
-4.9692,-7.379,3.0347,-0.2743,-0.2876,0.1219,0.0347,0.0527,0.0138,379,2019-08-07 16:52:56:456
-4.9692,-7.379,3.0347,-0.2743,-0.2876,0.1219,0.0347,0.0527,0.0138,384,2019-08-07 16:52:56:461
-5.0649,-7.3265,3.1479,-0.2743,-0.2876,0.1219,0.0251,0.0388,0.0096,388,2019-08-07 16:52:56:465
-5.0649,-7.3265,3.1479,-0.1958,-0.3356,0.0825,0.0251,0.0388,0.0096,394,2019-08-07 16:52:56:471
-5.041,-7.3647,3.0536,-0.1958,-0.3356,0.0825,0.0219,0.0175,0.017,399,2019-08-07 16:52:56:476
-5.041,-7.3647,3.0536,-0.1958,-0.3356,0.0825,0.023,-0.0017,0.0181,404,2019-08-07 16:52:56:481
-5.041,-7.3647,3.0536,-0.1958,-0.3356,0.0825,0.023,-0.0017,0.0181,408,2019-08-07 16:52:56:485
-5.084,-7.36,3.0394,-0.1703,-0.2989,0.1182,0.023,-0.0017,0.0181,414,2019-08-07 16:52:56:491
-5.084,-7.36,3.0394,-0.1703,-0.2989,0.1182,0.0219,-0.0134,0.0192,419,2019-08-07 16:52:56:496
-5.0123,-7.3504,3.0677,-0.1703,-0.2989,0.1182,0.0219,-0.0134,0.0192,424,2019-08-07 16:52:56:501
-5.0123,-7.3504,3.0677,-0.1703,-0.2989,0.1182,0.023,-0.0272,0.0213,428,2019-08-07 16:52:56:505
-5.0123,-7.3504,3.0677,-0.2151,-0.2762,0.1851,0.023,-0.0272,0.0213,434,2019-08-07 16:52:56:511
-4.9979,-7.3504,2.9404,-0.2151,-0.2762,0.1851,0.023,-0.0272,0.0213,438,2019-08-07 16:52:56:515
-4.9979,-7.3504,2.9404,-0.2151,-0.2762,0.1851,0.0219,-0.0134,0.0192,444,2019-08-07 16:52:56:521
-5.0266,-7.3552,2.9499,-0.2151,-0.2762,0.1851,0.0219,-0.0134,0.0192,448,2019-08-07 16:52:56:525
-5.0266,-7.3552,2.9499,-0.217,-0.2636,0.2223,0.0208,0.0037,0.0181,454,2019-08-07 16:52:56:531
-5.0266,-7.3552,2.9499,-0.217,-0.2636,0.2223,0.0208,0.0037,0.0181,459,2019-08-07 16:52:56:536
-4.9836,-7.4411,2.9546,-0.217,-0.2636,0.2223,0.0219,0.0175,0.016,464,2019-08-07 16:52:56:541
-4.9836,-7.4411,2.9546,-0.217,-0.2636,0.2223,0.0219,0.0175,0.016,469,2019-08-07 16:52:56:546
-5.0075,-7.422,2.9923,-0.2345,-0.2516,0.1949,0.024,0.0431,0.0085,473,2019-08-07 16:52:56:550
-5.0075,-7.422,2.9923,-0.2345,-0.2516,0.1949,0.024,0.0431,0.0085,479,2019-08-07 16:52:56:556
-5.0075,-7.422,2.9923,-0.2345,-0.2516,0.1949,0.0208,0.0559,0.0011,484,2019-08-07 16:52:56:561
-5.1271,-7.3122,3.0347,-0.2345,-0.2516,0.1949,0.0208,0.0559,0.0011,489,2019-08-07 16:52:56:566
-5.1271,-7.3122,3.0347,-0.1378,-0.2402,0.0469,0.0208,0.0559,0.0011,493,2019-08-07 16:52:56:570
-5.1606,-7.3361,3.1007,-0.1378,-0.2402,0.0469,0.0198,0.0495,-0.0011,500,2019-08-07 16:52:56:577
-5.1606,-7.3361,3.1007,-0.1378,-0.2402,0.0469,0.0198,0.0495,-0.0011,504,2019-08-07 16:52:56:581
-5.1606,-7.3361,3.1007,-0.1378,-0.2402,0.0469,0.0187,0.0292,-0.0117,508,2019-08-07 16:52:56:585
-5.218,-7.3265,3.1101,-0.0587,-0.3203,0.0223,0.0187,0.0292,-0.0117,514,2019-08-07 16:52:56:591
-5.218,-7.3265,3.1101,-0.0587,-0.3203,0.0223,0.0176,0.0122,-0.0096,519,2019-08-07 16:52:56:596
-5.1749,-7.317,3.1478,-0.0587,-0.3203,0.0223,0.0176,0.0122,-0.0096,524,2019-08-07 16:52:56:601
-5.1749,-7.317,3.1478,-0.0587,-0.3203,0.0223,0.0187,-0.0293,-0.0117,529,2019-08-07 16:52:56:606
-5.1749,-7.317,3.1478,-0.191,-0.2863,0.0642,0.0187,-0.0293,-0.0117,534,2019-08-07 16:52:56:611
-5.0362,-7.3074,3.1431,-0.191,-0.2863,0.0642,0.0187,-0.0293,-0.0117,539,2019-08-07 16:52:56:616
-5.0362,-7.3074,3.1431,-0.191,-0.2863,0.0642,0.0176,-0.0421,-0.0085,544,2019-08-07 16:52:56:621
-4.9644,-7.2836,3.0253,-0.2988,-0.3292,0.101,0.0176,-0.0421,-0.0085,549,2019-08-07 16:52:56:626
-4.9644,-7.2836,3.0253,-0.2988,-0.3292,0.101,0.0208,-0.023,-0.0064,554,2019-08-07 16:52:56:631
-4.9644,-7.2836,3.0253,-0.2988,-0.3292,0.101,0.0208,-0.023,-0.0064,559,2019-08-07 16:52:56:636
-4.9801,-7.2978,3.091,-0.3184,-0.3242,0.1118,0.0144,-0.0155,-0.0032,564,2019-08-07 16:52:56:641
-4.9801,-7.2978,3.091,-0.3184,-0.3242,0.1118,0.0144,-0.0155,-0.0032,568,2019-08-07 16:52:56:645
-4.9801,-7.2978,3.091,-0.3184,-0.3242,0.1118,0.0091,-0.0048,0.0085,574,2019-08-07 16:52:56:651
-4.9275,-7.2787,3.0533,-0.299,-0.3232,0.1334,0.0134,0.0047,0.0085,581,2019-08-07 16:52:56:658
-4.9275,-7.2787,3.0533,-0.299,-0.3232,0.1334,0.0134,0.0047,0.0085,583,2019-08-07 16:52:56:660
-4.9849,-7.2978,3.0344,-0.299,-0.3232,0.1334,0.0134,0.0047,0.0085,588,2019-08-07 16:52:56:665
-4.9849,-7.2978,3.0344,-0.299,-0.3232,0.1334,0.0134,0.0047,0.0085,594,2019-08-07 16:52:56:671
-4.9849,-7.2978,3.0344,-0.257,-0.3224,0.1006,0.0112,0.026,0.0138,599,2019-08-07 16:52:56:676
-5.0041,-7.2643,3.1051,-0.257,-0.3224,0.1006,0.0112,0.026,0.0138,604,2019-08-07 16:52:56:681
-5.0041,-7.2643,3.1051,-0.257,-0.3224,0.1006,0.0059,0.0165,0.0213,609,2019-08-07 16:52:56:686
-5.0041,-7.3216,3.157,-0.261,-0.3197,0.0249,0.0059,0.0165,0.0213,614,2019-08-07 16:52:56:691
-5.0041,-7.3216,3.157,-0.261,-0.3197,0.0249,0.0134,0.009,0.0202,618,2019-08-07 16:52:56:695
-5.0041,-7.3216,3.157,-0.261,-0.3197,0.0249,0.0134,0.009,0.0202,624,2019-08-07 16:52:56:701
-5.0855,-7.293,3.025,-0.261,-0.3197,0.0249,0.0155,0.0111,0.0181,630,2019-08-07 16:52:56:707
-5.0855,-7.293,3.025,-0.217,-0.3787,0.1485,0.0155,0.0111,0.0181,634,2019-08-07 16:52:56:711
-5.0855,-7.293,3.025,-0.217,-0.3787,0.1485,0.0155,0.0037,0.0213,639,2019-08-07 16:52:56:716
-5.052,-7.3121,3.157,-0.217,-0.3787,0.1485,0.0155,0.0037,0.0213,644,2019-08-07 16:52:56:721
-5.052,-7.3121,3.157,-0.1759,-0.3672,0.0697,0.0166,-0.0112,0.0213,649,2019-08-07 16:52:56:726
-5.119,-7.2691,3.091,-0.1759,-0.3672,0.0697,0.0166,-0.0112,0.0213,653,2019-08-07 16:52:56:730
-5.119,-7.2691,3.091,-0.1759,-0.3672,0.0697,0.0176,-0.0134,0.0224,659,2019-08-07 16:52:56:736
-5.119,-7.2691,3.091,-0.1838,-0.4157,0.06,0.0176,-0.0134,0.0224,663,2019-08-07 16:52:56:740
-5.1047,-7.2882,3.0344,-0.1838,-0.4157,0.06,0.0176,-0.0219,0.0224,669,2019-08-07 16:52:56:746
-5.1047,-7.2882,3.0344,-0.1838,-0.4157,0.06,0.0176,-0.0219,0.0224,673,2019-08-07 16:52:56:750
-5.0712,-7.2787,3.124,-0.1838,-0.4157,0.06,0.0176,-0.0219,0.0224,679,2019-08-07 16:52:56:756
-5.0712,-7.2787,3.124,-0.2676,-0.364,0.0277,0.0166,-0.0293,0.0287,684,2019-08-07 16:52:56:761
-5.0712,-7.2787,3.124,-0.2676,-0.364,0.0277,0.0166,-0.0293,0.0287,689,2019-08-07 16:52:56:766
-4.9947,-7.3407,3.1145,-0.2676,-0.364,0.0277,0.0144,-0.0325,0.0298,695,2019-08-07 16:52:56:772
-4.9947,-7.3407,3.1145,-0.2676,-0.364,0.0277,0.0144,-0.0325,0.0298,699,2019-08-07 16:52:56:776
-4.9851,-7.3073,2.9684,-0.2936,-0.3174,0.2309,0.0155,-0.0208,0.0298,704,2019-08-07 16:52:56:781
-4.9851,-7.3073,2.9684,-0.2936,-0.3174,0.2309,0.0155,-0.0208,0.0298,708,2019-08-07 16:52:56:785
-4.9851,-7.3073,2.9684,-0.2936,-0.3174,0.2309,0.0102,-0.0112,0.0309,714,2019-08-07 16:52:56:791
-4.9851,-7.3455,2.9448,-0.2936,-0.3174,0.2309,0.0102,-0.0112,0.0309,719,2019-08-07 16:52:56:796
-4.9851,-7.3455,2.9448,-0.3025,-0.2709,0.2183,0.0102,0.0015,0.0373,724,2019-08-07 16:52:56:801
-4.9851,-7.3455,2.9448,-0.3025,-0.2709,0.2183,0.0102,0.0015,0.0373,729,2019-08-07 16:52:56:806
-5.0234,-7.3884,3.0014,-0.3025,-0.2709,0.2183,0.0112,0.0186,0.0383,733,2019-08-07 16:52:56:810
-5.0234,-7.3884,3.0014,-0.3025,-0.2709,0.2183,0.0112,0.0186,0.0383,739,2019-08-07 16:52:56:816
-5.1335,-7.3121,3.0532,-0.3025,-0.2709,0.2183,0.0176,0.0303,0.0458,743,2019-08-07 16:52:56:820
-5.1335,-7.3121,3.0532,-0.1472,-0.3281,0.1752,0.0176,0.0303,0.0458,749,2019-08-07 16:52:56:826
-5.1335,-7.3121,3.0532,-0.1472,-0.3281,0.1752,0.0176,0.0303,0.0458,753,2019-08-07 16:52:56:830
-5.1335,-7.3121,3.0532,-0.1472,-0.3281,0.1752,0.0166,0.0154,0.0501,759,2019-08-07 16:52:56:836
-5.167,-7.2834,3.0627,-0.1472,-0.3281,0.1752,0.0166,0.0154,0.0501,764,2019-08-07 16:52:56:841
-5.167,-7.2834,3.0627,-0.1422,-0.3071,0.1286,0.0166,-0.0091,0.0511,769,2019-08-07 16:52:56:846
-5.167,-7.2834,3.0627,-0.1422,-0.3071,0.1286,0.0166,-0.0091,0.0511,774,2019-08-07 16:52:56:851
-5.0761,-7.3121,3.0579,-0.1422,-0.3071,0.1286,0.0187,-0.0219,0.049,780,2019-08-07 16:52:56:857
-5.0761,-7.3121,3.0579,-0.1422,-0.3071,0.1286,0.0187,-0.0219,0.049,784,2019-08-07 16:52:56:861
-4.9804,-7.3168,3.1004,-0.3064,-0.2863,0.1853,0.024,-0.024,0.0522,788,2019-08-07 16:52:56:865
-4.9804,-7.3168,3.1004,-0.3064,-0.2863,0.1853,0.024,-0.024,0.0522,794,2019-08-07 16:52:56:871
-4.9804,-7.3168,3.1004,-0.3064,-0.2863,0.1853,0.0187,-0.0166,0.0458,799,2019-08-07 16:52:56:876
-5.0187,-7.3741,3.0721,-0.3064,-0.2863,0.1853,0.0187,-0.0166,0.0458,803,2019-08-07 16:52:56:880
-5.0187,-7.3741,3.0721,-0.2976,-0.2803,0.1572,0.0219,-0.0048,0.0426,809,2019-08-07 16:52:56:886
-5.0618,-7.3359,3.0344,-0.2976,-0.2803,0.1572,0.0219,-0.0048,0.0426,813,2019-08-07 16:52:56:890
-5.0618,-7.3359,3.0344,-0.2976,-0.2803,0.1572,0.0176,-0.0027,0.0469,819,2019-08-07 16:52:56:896
-5.0618,-7.3359,3.0344,-0.2976,-0.2803,0.1572,0.0176,-0.0027,0.0469,823,2019-08-07 16:52:56:900
-5.0857,-7.3455,3.1004,-0.2323,-0.2458,0.1134,0.0166,-0.0059,0.0522,829,2019-08-07 16:52:56:906
-5.0857,-7.3455,3.1004,-0.2323,-0.2458,0.1134,0.0166,-0.0059,0.0522,834,2019-08-07 16:52:56:911
-5.0475,-7.2977,3.1003,-0.2323,-0.2458,0.1134,0.0176,-0.008,0.0469,838,2019-08-07 16:52:56:915
-5.0475,-7.2977,3.1003,-0.2323,-0.2458,0.1134,0.0176,-0.008,0.0469,844,2019-08-07 16:52:56:921
-5.0475,-7.2977,3.1003,-0.2674,-0.2827,0.131,0.0059,-0.0123,0.049,849,2019-08-07 16:52:56:926
-5.0714,-7.2929,3.0108,-0.2674,-0.2827,0.131,0.0059,-0.0123,0.049,853,2019-08-07 16:52:56:930
-5.0714,-7.2929,3.0108,-0.2674,-0.2827,0.131,6.0E-4,-0.008,0.049,859,2019-08-07 16:52:56:936
-5.0236,-7.3407,2.9401,-0.2674,-0.2827,0.131,6.0E-4,-0.008,0.049,865,2019-08-07 16:52:56:942
-5.0236,-7.3407,2.9401,-0.298,-0.2443,0.212,6.0E-4,-0.008,0.049,869,2019-08-07 16:52:56:946
-5.0236,-7.3407,2.9401,-0.298,-0.2443,0.212,-0.0111,0.0026,0.0437,873,2019-08-07 16:52:56:950
-5.0523,-7.3693,3.0438,-0.298,-0.2443,0.212,-0.0111,0.0026,0.0437,879,2019-08-07 16:52:56:956
-5.0523,-7.3693,3.0438,-0.298,-0.2443,0.212,-0.0175,0.0122,0.0383,883,2019-08-07 16:52:56:960
-5.0523,-7.3693,3.0438,-0.2518,-0.1886,0.1899,-0.0175,0.0122,0.0383,889,2019-08-07 16:52:56:966
-5.0667,-7.3311,3.0061,-0.2518,-0.1886,0.1899,-0.0271,0.0133,0.0362,894,2019-08-07 16:52:56:971
-5.0667,-7.3311,3.0061,-0.2518,-0.1886,0.1899,-0.0271,0.0133,0.0362,899,2019-08-07 16:52:56:976
-5.1146,-7.3693,3.0343,-0.2518,-0.1886,0.1899,-0.0324,0.0165,0.0309,904,2019-08-07 16:52:56:981
-5.1146,-7.3693,3.0343,-0.2577,-0.2397,0.1786,-0.0324,0.0165,0.0309,909,2019-08-07 16:52:56:986
-5.1146,-7.3693,3.0343,-0.2577,-0.2397,0.1786,-0.0303,0.0175,0.0309,915,2019-08-07 16:52:56:992
-5.172,-7.3264,3.0673,-0.2577,-0.2397,0.1786,-0.0303,0.0175,0.0309,919,2019-08-07 16:52:56:996
-5.172,-7.3264,3.0673,-0.2577,-0.2397,0.1786,-0.0292,0.0079,0.0181,924,2019-08-07 16:52:57:001
-5.172,-7.3264,3.0673,-0.1717,-0.2582,0.0918,-0.0292,0.0079,0.0181,929,2019-08-07 16:52:57:006
-5.1912,-7.3741,3.1286,-0.1717,-0.2582,0.0918,-0.0292,0.0079,0.0181,933,2019-08-07 16:52:57:010
-5.1912,-7.3741,3.1286,-0.1717,-0.2582,0.0918,-0.0228,-0.0048,0.0181,939,2019-08-07 16:52:57:016
-5.196,-7.3264,3.1145,-0.1717,-0.2582,0.0918,-0.0228,-0.0048,0.0181,944,2019-08-07 16:52:57:021
-5.196,-7.3264,3.1145,-0.155,-0.2147,0.0794,-0.0154,-0.0102,0.0149,949,2019-08-07 16:52:57:026
-5.196,-7.3264,3.1145,-0.155,-0.2147,0.0794,-0.0154,-0.0102,0.0149,954,2019-08-07 16:52:57:031
-5.1481,-7.3168,3.1003,-0.155,-0.2147,0.0794,-0.0047,-0.0144,0.0138,959,2019-08-07 16:52:57:036
-5.1481,-7.3168,3.1003,-0.155,-0.2147,0.0794,-0.0047,-0.0144,0.0138,965,2019-08-07 16:52:57:042
-5.1481,-7.3168,3.1003,-0.2183,-0.2375,0.0896,6.0E-4,-0.0123,0.0128,969,2019-08-07 16:52:57:046
-5.1242,-7.2547,3.1144,-0.2183,-0.2375,0.0896,6.0E-4,-0.0123,0.0128,973,2019-08-07 16:52:57:050
-5.1242,-7.2547,3.1144,-0.2183,-0.2375,0.0896,0.0102,-0.0027,0.0149,979,2019-08-07 16:52:57:056
-5.1195,-7.2404,3.1097,-0.2183,-0.2375,0.0896,0.0102,-0.0027,0.0149,983,2019-08-07 16:52:57:060
-5.1195,-7.2404,3.1097,-0.263,-0.3309,0.0823,0.0102,-0.0027,0.0149,989,2019-08-07 16:52:57:066
-5.1195,-7.2404,3.1097,-0.263,-0.3309,0.0823,0.0176,5.0E-4,0.0181,995,2019-08-07 16:52:57:072
-5.1099,-7.2118,3.0956,-0.263,-0.3309,0.0823,0.0176,5.0E-4,0.0181,998,2019-08-07 16:52:57:075
-5.1099,-7.2118,3.0956,-0.263,-0.3309,0.0823,0.024,-0.0048,0.0245,1004,2019-08-07 16:52:57:081
-5.1099,-7.2118,3.0956,-0.263,-0.3309,0.0823,0.024,-0.0048,0.0245,1009,2019-08-07 16:52:57:086
-5.086,-7.2356,3.138,-0.2705,-0.332,0.0675,0.0336,-0.007,0.0266,1014,2019-08-07 16:52:57:091
-5.086,-7.2356,3.138,-0.2705,-0.332,0.0675,0.0336,-0.007,0.0266,1019,2019-08-07 16:52:57:096
-5.1147,-7.1879,3.1521,-0.2705,-0.332,0.0675,0.0379,-0.0187,0.0373,1023,2019-08-07 16:52:57:100
-5.1147,-7.1879,3.1521,-0.2362,-0.3451,0.0702,0.0379,-0.0187,0.0373,1029,2019-08-07 16:52:57:106
-5.1147,-7.1879,3.1521,-0.2362,-0.3451,0.0702,0.0368,-0.0261,0.0405,1034,2019-08-07 16:52:57:111
-5.0956,-7.1879,3.1097,-0.2362,-0.3451,0.0702,0.0368,-0.0261,0.0405,1039,2019-08-07 16:52:57:116
-5.0956,-7.1879,3.1097,-0.2362,-0.3451,0.0702,0.04,-0.0315,0.0426,1044,2019-08-07 16:52:57:121
-5.0956,-7.1402,3.1286,-0.2694,-0.4142,0.0938,0.04,-0.0315,0.0426,1049,2019-08-07 16:52:57:126
-5.0956,-7.1402,3.1286,-0.2694,-0.4142,0.0938,0.04,-0.0315,0.0426,1053,2019-08-07 16:52:57:130
-5.0956,-7.1402,3.1286,-0.2694,-0.4142,0.0938,0.0357,-0.0325,0.0511,1059,2019-08-07 16:52:57:136
-5.0239,-7.1736,3.1474,-0.2694,-0.4142,0.0938,0.0357,-0.0325,0.0511,1064,2019-08-07 16:52:57:141
-5.0239,-7.1736,3.1474,-0.2694,-0.4142,0.0938,0.0357,-0.024,0.0532,1068,2019-08-07 16:52:57:145
-5.0383,-7.1592,3.0343,-0.313,-0.3587,0.1361,0.0357,-0.024,0.0532,1074,2019-08-07 16:52:57:151
-5.0383,-7.1592,3.0343,-0.313,-0.3587,0.1361,0.0315,-0.0091,0.0554,1079,2019-08-07 16:52:57:156
-5.0383,-7.1592,3.0343,-0.313,-0.3587,0.1361,0.0315,-0.0091,0.0554,1084,2019-08-07 16:52:57:161
-5.1244,-7.1927,3.0956,-0.313,-0.3587,0.1361,0.0262,0.0143,0.0596,1089,2019-08-07 16:52:57:166
-5.1244,-7.1927,3.0956,-0.2115,-0.322,0.235,0.0262,0.0143,0.0596,1094,2019-08-07 16:52:57:171
-5.1244,-7.1927,3.0956,-0.2115,-0.322,0.235,0.023,0.0271,0.0618,1099,2019-08-07 16:52:57:176
-5.1962,-7.2022,3.039,-0.2115,-0.322,0.235,0.023,0.0271,0.0618,1104,2019-08-07 16:52:57:181
-5.1962,-7.2022,3.039,-0.2115,-0.322,0.235,0.023,0.0271,0.0618,1109,2019-08-07 16:52:57:186
-5.3254,-7.2118,3.0531,-0.075,-0.3134,0.1458,0.024,0.0271,0.0671,1114,2019-08-07 16:52:57:191
-5.3254,-7.2118,3.0531,-0.075,-0.3134,0.1458,0.024,0.0271,0.0671,1120,2019-08-07 16:52:57:197
-5.3254,-7.2118,3.0531,-0.075,-0.3134,0.1458,0.0176,0.009,0.0607,1123,2019-08-07 16:52:57:200
-5.3302,-7.2308,3.171,-0.075,-0.3134,0.1458,0.0176,0.009,0.0607,1129,2019-08-07 16:52:57:206
-5.3302,-7.2308,3.171,-0.1006,-0.2856,0.0767,0.0176,0.009,0.0607,1134,2019-08-07 16:52:57:211
-5.3206,-7.2022,3.1003,-0.1006,-0.2856,0.0767,0.0198,-0.024,0.0586,1139,2019-08-07 16:52:57:216
-5.3206,-7.2022,3.1003,-0.1006,-0.2856,0.0767,0.0198,-0.024,0.0586,1143,2019-08-07 16:52:57:220
-5.3206,-7.2022,3.1003,-0.1006,-0.2856,0.0767,0.0176,-0.0475,0.0607,1148,2019-08-07 16:52:57:225
-5.2297,-7.2261,3.1097,-0.1796,-0.287,0.135,0.0176,-0.0475,0.0607,1154,2019-08-07 16:52:57:231
-5.2297,-7.2261,3.1097,-0.1796,-0.287,0.135,0.0198,-0.0549,0.0554,1159,2019-08-07 16:52:57:236
-5.2297,-7.2261,3.1097,-0.1796,-0.287,0.135,0.0198,-0.0549,0.0554,1164,2019-08-07 16:52:57:241
-5.1532,-7.2499,3.1427,-0.1796,-0.287,0.135,0.0187,-0.056,0.0575,1170,2019-08-07 16:52:57:247
-5.1532,-7.2499,3.1427,-0.2703,-0.2703,0.1392,0.0187,-0.056,0.0575,1173,2019-08-07 16:52:57:250
-5.158,-7.2738,3.1285,-0.2703,-0.2703,0.1392,0.0166,-0.0496,0.0586,1179,2019-08-07 16:52:57:256
-5.158,-7.2738,3.1285,-0.2703,-0.2703,0.1392,0.0166,-0.0496,0.0586,1184,2019-08-07 16:52:57:261
-5.158,-7.2738,3.1285,-0.2703,-0.2703,0.1392,0.0198,-0.0315,0.0586,1189,2019-08-07 16:52:57:266
-5.1389,-7.2308,3.1709,-0.2806,-0.2678,0.0902,0.0198,-0.0315,0.0586,1195,2019-08-07 16:52:57:272
-5.1389,-7.2308,3.1709,-0.2806,-0.2678,0.0902,0.0198,-0.0315,0.0586,1200,2019-08-07 16:52:57:277
-5.2011,-7.1879,3.1851,-0.2806,-0.2678,0.0902,0.0166,-0.0219,0.0564,1204,2019-08-07 16:52:57:281
-5.2011,-7.1879,3.1851,-0.2806,-0.2678,0.0902,0.0166,-0.0219,0.0564,1208,2019-08-07 16:52:57:285
-5.2011,-7.1879,3.1851,-0.2205,-0.2369,0.1091,0.0091,-0.0187,0.0575,1214,2019-08-07 16:52:57:291
-5.1629,-7.2452,3.1568,-0.2205,-0.2369,0.1091,0.0091,-0.0187,0.0575,1219,2019-08-07 16:52:57:296
-5.1629,-7.2452,3.1568,-0.2205,-0.2369,0.1091,0.008,-0.0198,0.0543,1224,2019-08-07 16:52:57:301
-5.2586,-7.1974,3.1992,-0.2205,-0.2369,0.1091,0.008,-0.0198,0.0543,1229,2019-08-07 16:52:57:306
-5.2586,-7.1974,3.1992,-0.1797,-0.2301,0.0092,0.008,-0.0208,0.0522,1234,2019-08-07 16:52:57:311
-5.2586,-7.1974,3.1992,-0.1797,-0.2301,0.0092,0.008,-0.0208,0.0522,1240,2019-08-07 16:52:57:317
-5.2586,-7.1974,3.1992,-0.1797,-0.2301,0.0092,0.008,-0.0208,0.0522,1244,2019-08-07 16:52:57:321
-5.2682,-7.1879,3.2322,-0.1684,-0.2936,0.0401,0.008,-0.0432,0.0564,1250,2019-08-07 16:52:57:327
-5.2682,-7.1879,3.2322,-0.1684,-0.2936,0.0401,0.008,-0.0432,0.0564,1253,2019-08-07 16:52:57:330
-5.2682,-7.1879,3.2322,-0.1684,-0.2936,0.0401,0.0091,-0.0656,0.0554,1259,2019-08-07 16:52:57:336
-5.2395,-7.1831,3.1851,-0.1301,-0.315,0.0817,0.0091,-0.0656,0.0554,1264,2019-08-07 16:52:57:341
-5.2395,-7.1831,3.1851,-0.1301,-0.315,0.0817,0.0091,-0.0837,0.0564,1269,2019-08-07 16:52:57:346
-5.2873,-7.1974,3.2275,-0.1301,-0.315,0.0817,0.0091,-0.0837,0.0564,1274,2019-08-07 16:52:57:351
-5.2873,-7.1974,3.2275,-0.1301,-0.315,0.0817,0.0155,-0.0922,0.0596,1278,2019-08-07 16:52:57:355
-5.2873,-7.1974,3.2275,-0.1713,-0.3077,0.117,0.0155,-0.0922,0.0596,1285,2019-08-07 16:52:57:362
-5.1965,-7.1783,3.2322,-0.1713,-0.3077,0.117,0.0144,-0.0943,0.0618,1289,2019-08-07 16:52:57:366
-5.1965,-7.1783,3.2322,-0.1713,-0.3077,0.117,0.0144,-0.0943,0.0618,1294,2019-08-07 16:52:57:371
-5.2013,-7.1449,3.1662,-0.1713,-0.3077,0.117,0.0112,-0.0826,0.0639,1300,2019-08-07 16:52:57:377
-5.2013,-7.1449,3.1662,-0.2128,-0.3093,0.1201,0.0112,-0.0826,0.0639,1303,2019-08-07 16:52:57:380
-5.2013,-7.1449,3.1662,-0.2128,-0.3093,0.1201,0.0112,-0.0826,0.0639,1309,2019-08-07 16:52:57:386
-5.1821,-7.1592,3.1898,-0.2128,-0.3093,0.1201,0.0091,-0.0709,0.0628,1314,2019-08-07 16:52:57:391
-5.1821,-7.1592,3.1898,-0.2128,-0.3093,0.1201,0.0091,-0.0709,0.0628,1320,2019-08-07 16:52:57:397
-5.1917,-7.1544,3.0955,-0.2606,-0.2972,0.2183,0.0027,-0.0528,0.0618,1324,2019-08-07 16:52:57:401
-5.1917,-7.1544,3.0955,-0.2606,-0.2972,0.2183,0.0027,-0.0528,0.0618,1329,2019-08-07 16:52:57:406
-5.1917,-7.1544,3.0955,-0.2606,-0.2972,0.2183,-0.0058,-0.04,0.0532,1334,2019-08-07 16:52:57:411
-5.187,-7.1974,3.185,-0.2606,-0.2972,0.2183,-0.0058,-0.04,0.0532,1339,2019-08-07 16:52:57:416
-5.187,-7.1974,3.185,-0.175,-0.2484,0.1049,-0.0079,-0.0475,0.0543,1345,2019-08-07 16:52:57:422
-5.3114,-7.1879,3.2463,-0.175,-0.2484,0.1049,-0.0079,-0.0475,0.0543,1348,2019-08-07 16:52:57:425
-5.3114,-7.1879,3.2463,-0.175,-0.2484,0.1049,-0.0079,-0.0475,0.0543,1355,2019-08-07 16:52:57:432
-5.3114,-7.1879,3.2463,-0.175,-0.2484,0.1049,-0.0101,-0.0634,0.05,1359,2019-08-07 16:52:57:436
-5.2683,-7.2308,3.2793,-0.175,-0.2484,0.1049,-0.0101,-0.0634,0.05,1364,2019-08-07 16:52:57:441
-5.2683,-7.2308,3.2793,-0.1977,-0.2433,0.068,-0.0143,-0.0954,0.049,1369,2019-08-07 16:52:57:446
-5.2588,-7.2069,3.2605,-0.1977,-0.2433,0.068,-0.0143,-0.0954,0.049,1374,2019-08-07 16:52:57:451
-5.2588,-7.2069,3.2605,-0.1977,-0.2433,0.068,-0.0165,-0.1124,0.049,1379,2019-08-07 16:52:57:456
-5.2588,-7.2069,3.2605,-0.2311,-0.258,0.1202,-0.0165,-0.1124,0.049,1385,2019-08-07 16:52:57:462
-5.187,-7.2165,3.2463,-0.2311,-0.258,0.1202,-0.0186,-0.1337,0.0575,1389,2019-08-07 16:52:57:466
-5.187,-7.2165,3.2463,-0.2311,-0.258,0.1202,-0.0186,-0.1337,0.0575,1394,2019-08-07 16:52:57:471
-5.1344,-7.1353,3.2086,-0.2311,-0.258,0.1202,-0.0186,-0.1337,0.0575,1399,2019-08-07 16:52:57:476
-5.1344,-7.1353,3.2086,-0.4018,-0.1914,0.1092,-0.0154,-0.1423,0.0628,1404,2019-08-07 16:52:57:481
-5.1344,-7.1353,3.2086,-0.4018,-0.1914,0.1092,-0.0154,-0.1423,0.0628,1409,2019-08-07 16:52:57:486
-5.0483,-7.2451,3.2416,-0.4018,-0.1914,0.1092,-0.0069,-0.138,0.0692,1414,2019-08-07 16:52:57:491
-5.0483,-7.2451,3.2416,-0.4681,-0.1171,0.14,-0.0069,-0.138,0.0692,1419,2019-08-07 16:52:57:496
-5.0148,-7.3597,3.2463,-0.4681,-0.1171,0.14,0.0059,-0.121,0.0788,1424,2019-08-07 16:52:57:501
-5.0148,-7.3597,3.2463,-0.4681,-0.1171,0.14,0.0059,-0.121,0.0788,1429,2019-08-07 16:52:57:506
-5.0148,-7.3597,3.2463,-0.4073,-0.0808,0.0885,0.024,-0.1018,0.0884,1435,2019-08-07 16:52:57:512
-5.0292,-7.312,3.2651,-0.4073,-0.0808,0.0885,0.024,-0.1018,0.0884,1439,2019-08-07 16:52:57:516
-5.0292,-7.312,3.2651,-0.4073,-0.0808,0.0885,0.024,-0.1018,0.0884,1444,2019-08-07 16:52:57:521
-5.1441,-7.3263,3.35,-0.4073,-0.0808,0.0885,0.0464,-0.089,0.0991,1449,2019-08-07 16:52:57:526
-5.1441,-7.3263,3.35,-0.4073,-0.0808,0.0885,0.0464,-0.089,0.0991,1454,2019-08-07 16:52:57:531
-5.1441,-7.3263,3.35,-0.2513,-0.0445,-0.0362,0.0464,-0.089,0.0991,1459,2019-08-07 16:52:57:536
-5.2685,-7.3883,3.4207,-0.2513,-0.0445,-0.0362,0.0741,-0.0965,0.1097,1463,2019-08-07 16:52:57:540
-5.2685,-7.3883,3.4207,-0.2174,-0.0744,-0.0488,0.0741,-0.0965,0.1097,1470,2019-08-07 16:52:57:547
-5.2685,-7.3883,3.4207,-0.2174,-0.0744,-0.0488,0.1092,-0.1231,0.1214,1475,2019-08-07 16:52:57:552
-5.2254,-7.3836,3.5008,-0.2174,-0.0744,-0.0488,0.1092,-0.1231,0.1214,1479,2019-08-07 16:52:57:556
-5.2254,-7.3836,3.5008,-0.2174,-0.0744,-0.0488,0.1423,-0.1518,0.1278,1485,2019-08-07 16:52:57:562
-5.2254,-7.3836,3.5008,-0.297,0.0324,-0.2003,0.1423,-0.1518,0.1278,1489,2019-08-07 16:52:57:566
-5.1728,-7.4217,3.6422,-0.297,0.0324,-0.2003,0.187,-0.171,0.1417,1494,2019-08-07 16:52:57:571
-5.1728,-7.4217,3.6422,-0.297,0.0324,-0.2003,0.187,-0.171,0.1417,1500,2019-08-07 16:52:57:577
-5.0724,-7.4934,3.7082,-0.297,0.0324,-0.2003,0.187,-0.171,0.1417,1504,2019-08-07 16:52:57:581
-5.0724,-7.4934,3.7082,-0.4662,0.1801,-0.2962,0.2392,-0.187,0.163,1509,2019-08-07 16:52:57:586
-5.0724,-7.4934,3.7082,-0.4662,0.1801,-0.2962,0.2392,-0.187,0.163,1513,2019-08-07 16:52:57:590
-4.8954,-7.5984,3.8685,-0.4662,0.1801,-0.2962,0.2669,-0.1881,0.1757,1519,2019-08-07 16:52:57:596
-4.8954,-7.5984,3.8685,-0.4662,0.1801,-0.2962,0.2669,-0.1881,0.1757,1524,2019-08-07 16:52:57:601
-4.905,-7.6413,3.9863,-0.5892,0.3269,-0.4438,0.3116,-0.1987,0.1917,1529,2019-08-07 16:52:57:606
-4.905,-7.6413,3.9863,-0.5892,0.3269,-0.4438,0.3116,-0.1987,0.1917,1535,2019-08-07 16:52:57:612
-4.905,-7.6413,3.9863,-0.5892,0.3269,-0.4438,0.3575,-0.2179,0.2194,1540,2019-08-07 16:52:57:617
-4.5797,-7.9898,4.0853,-0.5892,0.3269,-0.4438,0.3575,-0.2179,0.2194,1544,2019-08-07 16:52:57:621
-4.5797,-7.9898,4.0853,-1.1815,0.9109,-0.4418,0.3575,-0.2179,0.2194,1549,2019-08-07 16:52:57:626
-4.0086,-8.391,4.0055,-1.1815,0.9109,-0.4418,0.432,-0.1678,0.2493,1555,2019-08-07 16:52:57:632
-4.0086,-8.391,4.0055,-1.1815,0.9109,-0.4418,0.432,-0.1678,0.2493,1559,2019-08-07 16:52:57:636
-4.0086,-8.391,4.0055,-1.1815,0.9109,-0.4418,0.4874,-0.0762,0.2748,1565,2019-08-07 16:52:57:642
-3.5398,-8.9734,4.2837,-1.9792,1.7581,-0.5802,0.4874,-0.0762,0.2748,1569,2019-08-07 16:52:57:646
-3.5398,-8.9734,4.2837,-1.9792,1.7581,-0.5802,0.644,0.1752,0.3047,1574,2019-08-07 16:52:57:651
-3.2527,-9.6083,4.92,-1.9792,1.7581,-0.5802,0.644,0.1752,0.3047,1579,2019-08-07 16:52:57:656
-3.2527,-9.6083,4.92,-1.9792,1.7581,-0.5802,0.8049,0.3275,0.3164,1584,2019-08-07 16:52:57:661
-3.2527,-9.6083,4.92,-2.4307,2.7956,-1.6302,0.8049,0.3275,0.3164,1589,2019-08-07 16:52:57:666
-3.2527,-9.6083,4.92,-2.4307,2.7956,-1.6302,0.8049,0.3275,0.3164,1593,2019-08-07 16:52:57:670
-2.98,-10.0905,5.6082,-2.4307,2.7956,-1.6302,0.9572,0.4138,0.311,1599,2019-08-07 16:52:57:676
-2.98,-10.0905,5.6082,-2.4307,2.7956,-1.6302,0.9572,0.4138,0.311,1605,2019-08-07 16:52:57:682
-2.98,-10.0905,5.6082,-3.1222,3.5614,-2.342,0.9572,0.4138,0.311,1609,2019-08-07 16:52:57:686
-2.4824,-10.6729,6.3389,-3.1222,3.5614,-2.342,1.3386,0.5395,0.2865,1614,2019-08-07 16:52:57:691
-2.4824,-10.6729,6.3389,-3.3661,3.9204,-2.5298,1.3386,0.5395,0.2865,1619,2019-08-07 16:52:57:696
-2.4824,-10.6729,6.3389,-3.3661,3.9204,-2.5298,1.3386,0.5395,0.2865,1624,2019-08-07 16:52:57:701
-2.0566,-11.3269,6.881,-3.3661,3.9204,-2.5298,1.64,0.532,0.2908,1629,2019-08-07 16:52:57:706
-2.0566,-11.3269,6.881,-3.3661,3.9204,-2.5298,1.64,0.532,0.2908,1634,2019-08-07 16:52:57:711
-2.0566,-11.3269,6.881,-4.037,5.4199,-3.518,1.64,0.532,0.2908,1638,2019-08-07 16:52:57:715
-2.0566,-11.3269,6.881,-4.037,5.4199,-3.518,1.9383,0.3936,0.2983,1644,2019-08-07 16:52:57:721
-1.4825,-12.7113,7.8992,-4.037,5.4199,-3.518,1.9383,0.3936,0.2983,1648,2019-08-07 16:52:57:725
-1.4825,-12.7113,7.8992,-4.037,5.4199,-3.518,2.1844,0.2892,0.2663,1654,2019-08-07 16:52:57:731
-0.8271,-14.5826,8.0783,-4.9023,7.9514,-3.6696,2.1844,0.2892,0.2663,1659,2019-08-07 16:52:57:736
-0.8271,-14.5826,8.0783,-4.9023,7.9514,-3.6696,2.4901,0.2402,0.1949,1664,2019-08-07 16:52:57:741
-0.1238,-15.6949,7.852,-4.9023,7.9514,-3.6696,2.4901,0.2402,0.1949,1668,2019-08-07 16:52:57:745
-0.1238,-15.6949,7.852,-4.9023,7.9514,-3.6696,2.9652,0.3701,0.0895,1674,2019-08-07 16:52:57:751
-0.1238,-15.6949,7.852,-6.864,10.3305,-2.2601,2.9652,0.3701,0.0895,1679,2019-08-07 16:52:57:756
1.5316,-16.9123,6.5887,-6.864,10.3305,-2.2601,2.9652,0.3701,0.0895,1684,2019-08-07 16:52:57:761
1.5316,-16.9123,6.5887,-6.864,10.3305,-2.2601,3.4893,0.9155,-0.0575,1688,2019-08-07 16:52:57:765
1.5316,-16.9123,6.5887,-6.864,10.3305,-2.2601,3.4893,0.9155,-0.0575,1694,2019-08-07 16:52:57:771
4.249,-17.6474,4.7126,-11.126,11.7915,1.3478,3.7961,1.4865,-0.1651,1699,2019-08-07 16:52:57:776
4.249,-17.6474,4.7126,-11.126,11.7915,1.3478,3.7961,1.4865,-0.1651,1704,2019-08-07 16:52:57:781
6.7081,-17.9577,0.984,-11.126,11.7915,1.3478,4.3128,2.9619,-0.3899,1709,2019-08-07 16:52:57:786
6.7081,-17.9577,0.984,-11.126,11.7915,1.3478,4.3128,2.9619,-0.3899,1714,2019-08-07 16:52:57:791
6.7081,-17.9577,0.984,-12.5979,11.5294,7.1698,4.6366,4.2029,-0.4623,1719,2019-08-07 16:52:57:796
6.2393,-16.8454,-2.5749,-12.5979,11.5294,7.1698,4.6366,4.2029,-0.4623,1723,2019-08-07 16:52:57:800
6.2393,-16.8454,-2.5749,-12.5979,11.5294,7.1698,5.23,6.4986,-0.2685,1729,2019-08-07 16:52:57:806
1.7373,-13.16,-4.3615,-10.3744,9.3514,8.9622,5.23,6.4986,-0.2685,1733,2019-08-07 16:52:57:810
1.7373,-13.16,-4.3615,-10.3744,9.3514,8.9622,5.23,6.4986,-0.2685,1739,2019-08-07 16:52:57:816
1.7373,-13.16,-4.3615,-10.3744,9.3514,8.9622,5.9426,8.6462,0.9076,1743,2019-08-07 16:52:57:820
-4.731,-9.8613,-3.8806,-1.3381,4.7374,7.9624,5.9426,8.6462,0.9076,1749,2019-08-07 16:52:57:826
-4.731,-9.8613,-3.8806,-1.3381,4.7374,7.9624,6.3719,9.2321,1.959,1754,2019-08-07 16:52:57:831
-4.731,-9.8613,-3.8806,-1.3381,4.7374,7.9624,6.3719,9.2321,1.959,1758,2019-08-07 16:52:57:835
-9.1229,-8.8254,0.3288,-1.3381,4.7374,7.9624,6.5892,8.9764,2.596,1765,2019-08-07 16:52:57:842
-9.1229,-8.8254,0.3288,4.3405,3.309,3.1751,6.5892,8.9764,2.596,1769,2019-08-07 16:52:57:846
-14.3138,-6.1807,0.7577,4.3405,3.309,3.1751,6.3932,6.9343,3.1777,1774,2019-08-07 16:52:57:851
-14.3138,-6.1807,0.7577,4.3405,3.309,3.1751,6.3932,6.9343,3.1777,1779,2019-08-07 16:52:57:856
-14.3138,-6.1807,0.7577,4.3405,3.309,3.1751,5.7828,4.3851,3.5207,1783,2019-08-07 16:52:57:860
-16.2419,-4.4478,0.5032,7.3065,1.4299,3.0997,5.7828,4.3851,3.5207,1789,2019-08-07 16:52:57:866
-16.2419,-4.4478,0.5032,7.3065,1.4299,3.0997,4.9754,1.3246,3.7977,1794,2019-08-07 16:52:57:871
-14.3425,-5.1591,-0.548,7.3065,1.4299,3.0997,4.9754,1.3246,3.7977,1800,2019-08-07 16:52:57:877
-14.3425,-5.1591,-0.548,7.3065,1.4299,3.0997,4.2638,-1.4909,3.7881,1804,2019-08-07 16:52:57:881
-14.3425,-5.1591,-0.548,7.3065,1.4299,3.0997,4.2638,-1.4909,3.7881,1810,2019-08-07 16:52:57:887
-9.9267,-6.6772,-0.3076,1.0065,4.6245,3.8365,3.9453,-3.2709,3.3843,1814,2019-08-07 16:52:57:891
-9.9267,-6.6772,-0.3076,1.0065,4.6245,3.8365,3.9453,-3.2709,3.3843,1819,2019-08-07 16:52:57:896
-4.1425,-5.8466,-1.684,1.0065,4.6245,3.8365,4.1327,-0.1572,2.8144,1824,2019-08-07 16:52:57:901
-4.1425,-5.8466,-1.684,1.0065,4.6245,3.8365,4.1327,-0.1572,2.8144,1829,2019-08-07 16:52:57:906
-4.1425,-5.8466,-1.684,-4.3894,3.7759,4.5358,4.1327,-0.1572,2.8144,1834,2019-08-07 16:52:57:911
-7.2092,-2.9584,-5.3184,-4.3894,3.7759,4.5358,4.2393,-0.0219,2.514,1838,2019-08-07 16:52:57:915
-7.2092,-2.9584,-5.3184,-4.3894,3.7759,4.5358,4.2393,-0.0219,2.514,1844,2019-08-07 16:52:57:921
-7.2092,-2.9584,-5.3184,-4.3894,3.7759,4.5358,3.8664,1.1893,2.4107,1849,2019-08-07 16:52:57:926
-9.3717,-0.7529,-4.0786,0.3704,0.2867,7.9512,3.8664,1.1893,2.4107,1854,2019-08-07 16:52:57:931
-9.3717,-0.7529,-4.0786,0.3704,0.2867,7.9512,3.5032,1.4333,2.269,1859,2019-08-07 16:52:57:936
-12.0413,-0.7242,-2.886,0.3704,0.2867,7.9512,3.5032,1.4333,2.269,1864,2019-08-07 16:52:57:941
-12.0413,-0.7242,-2.886,0.3704,0.2867,7.9512,3.2134,1.0487,2.0559,1868,2019-08-07 16:52:57:945
-12.0413,-0.7242,-2.886,3.7233,0.7986,5.2981,3.2134,1.0487,2.0559,1874,2019-08-07 16:52:57:951
-12.9359,-0.4569,-1.1089,3.7233,0.7986,5.2981,2.9428,0.107,1.8791,1879,2019-08-07 16:52:57:956
-12.9359,-0.4569,-1.1089,3.7233,0.7986,5.2981,2.9428,0.107,1.8791,1884,2019-08-07 16:52:57:961
-12.9359,-0.4569,-1.1089,3.7233,0.7986,5.2981,2.9428,0.107,1.8791,1888,2019-08-07 16:52:57:965
-10.2089,0.2735,-2.9709,1.6579,0.56,6.0628,2.5412,-1.5527,1.5414,1894,2019-08-07 16:52:57:971
-10.2089,0.2735,-2.9709,1.6579,0.56,6.0628,2.5412,-1.5527,1.5414,1899,2019-08-07 16:52:57:976
-10.2089,0.2735,-2.9709,1.6579,0.56,6.0628,2.2494,-2.0427,1.2336,1904,2019-08-07 16:52:57:981
-10.2089,0.2735,-2.9709,1.6579,0.56,6.0628,2.2494,-2.0427,1.2336,1909,2019-08-07 16:52:57:986
-6.9413,1.529,-6.2234,-2.5137,-0.6351,9.8101,2.0225,-1.6251,1.012,1914,2019-08-07 16:52:57:991
-6.9413,1.529,-6.2234,-2.5137,-0.6351,9.8101,2.0225,-1.6251,1.012,1919,2019-08-07 16:52:57:996
-6.9413,1.529,-6.2234,-2.5137,-0.6351,9.8101,1.9511,-0.7399,0.6051,1924,2019-08-07 16:52:58:001
-7.1422,3.7249,-3.8571,-2.5137,-0.6351,9.8101,1.9511,-0.7399,0.6051,1929,2019-08-07 16:52:58:006
-7.1422,3.7249,-3.8571,-1.1394,-3.1189,8.0421,1.9671,-0.3095,0.3867,1934,2019-08-07 16:52:58:011
-7.1422,3.7249,-3.8571,-1.1394,-3.1189,8.0421,1.9671,-0.3095,0.3867,1939,2019-08-07 16:52:58:016
-7.1422,3.7249,-3.8571,-1.1394,-3.1189,8.0421,1.9671,-0.3095,0.3867,1943,2019-08-07 16:52:58:020
-8.8215,5.9591,-4.2247,-0.0599,-4.3973,8.0872,1.8424,-0.1263,0.228,1949,2019-08-07 16:52:58:026
-8.8215,5.9591,-4.2247,-0.0599,-4.3973,8.0872,1.4419,-0.3713,-0.0831,1954,2019-08-07 16:52:58:031
-9.9888,7.4772,-3.48,-0.0599,-4.3973,8.0872,1.4419,-0.3713,-0.0831,1958,2019-08-07 16:52:58:035
-9.9888,7.4772,-3.48,1.1658,-6.0807,6.9592,1.4419,-0.3713,-0.0831,1963,2019-08-07 16:52:58:040
-10.1036,8.3078,-2.655,1.1658,-6.0807,6.9592,1.0286,-0.9306,-0.3569,1969,2019-08-07 16:52:58:046
-10.1036,8.3078,-2.655,1.1658,-6.0807,6.9592,0.6291,-1.4802,-0.5838,1974,2019-08-07 16:52:58:051
-10.1036,8.3078,-2.655,1.1658,-6.0807,6.9592,0.6291,-1.4802,-0.5838,1979,2019-08-07 16:52:58:056
-9.3956,9.3199,-2.1601,0.5983,-7.5849,6.1394,0.6291,-1.4802,-0.5838,1983,2019-08-07 16:52:58:060
-9.3956,9.3199,-2.1601,0.5983,-7.5849,6.1394,0.3351,-1.6336,-0.7372,1989,2019-08-07 16:52:58:066
-9.3956,9.3199,-2.1601,-1.1699,-8.0482,6.1609,0.2158,-1.5015,-0.8373,1993,2019-08-07 16:52:58:070
-7.1039,9.7925,-2.0234,-1.1699,-8.0482,6.1609,0.2158,-1.5015,-0.8373,1999,2019-08-07 16:52:58:076
-7.1039,9.7925,-2.0234,-1.1699,-8.0482,6.1609,0.1178,-1.0371,-1.0109,2004,2019-08-07 16:52:58:081
-7.1039,9.7925,-2.0234,-1.1699,-8.0482,6.1609,0.1178,-1.0371,-1.0109,2009,2019-08-07 16:52:58:086
-4.8984,9.7447,-3.2961,-1.1699,-8.0482,6.1609,0.1178,-1.0371,-1.0109,2013,2019-08-07 16:52:58:090
-4.8984,9.7447,-3.2961,-3.9403,-8.0642,7.6387,0.0368,-0.4853,-1.1175,2019,2019-08-07 16:52:58:096
-4.8984,9.7447,-3.2961,-3.9403,-8.0642,7.6387,0.0368,-0.4853,-1.1175,2024,2019-08-07 16:52:58:101
-4.9127,8.8854,-3.6544,-3.9403,-8.0642,7.6387,-0.1688,0.4703,-1.2911,2028,2019-08-07 16:52:58:105
-4.9127,8.8854,-3.6544,-3.1559,-6.8613,7.6789,-0.1688,0.4703,-1.2911,2034,2019-08-07 16:52:58:111
-4.9127,8.8854,-3.6544,-3.1559,-6.8613,7.6789,-0.3978,1.1435,-1.4573,2039,2019-08-07 16:52:58:116
-6.6159,7.902,-2.7823,-1.7673,-6.5443,6.4747,-0.3978,1.1435,-1.4573,2044,2019-08-07 16:52:58:121
-6.6159,7.902,-2.7823,-1.7673,-6.5443,6.4747,-0.5043,1.3875,-1.5329,2049,2019-08-07 16:52:58:126
-8.7257,7.5822,-0.5338,-1.7673,-6.5443,6.4747,-0.5043,1.3875,-1.5329,2053,2019-08-07 16:52:58:130
-8.7257,7.5822,-0.5338,-1.7673,-6.5443,6.4747,-0.5043,1.3875,-1.5329,2059,2019-08-07 16:52:58:136
-9.9027,7.291,0.6918,0.9313,-6.2358,3.1342,-0.4575,1.3416,-1.5063,2064,2019-08-07 16:52:58:141
-9.9027,7.291,0.6918,0.9313,-6.2358,3.1342,-0.4575,1.3416,-1.5063,2069,2019-08-07 16:52:58:146
-9.9027,7.291,0.6918,0.9313,-6.2358,3.1342,-0.3882,1.0221,-1.4679,2074,2019-08-07 16:52:58:151
-10.4002,6.9186,1.3753,0.9313,-6.2358,3.1342,-0.3882,1.0221,-1.4679,2079,2019-08-07 16:52:58:156
-10.4002,6.9186,1.3753,1.2905,-5.8963,2.3254,-0.4181,0.7227,-1.452,2084,2019-08-07 16:52:58:161
-10.4002,6.9186,1.3753,1.2905,-5.8963,2.3254,-0.4181,0.7227,-1.452,2089,2019-08-07 16:52:58:166
-10.0845,6.4412,1.182,0.7678,-5.6166,2.5071,-0.564,0.2689,-1.4051,2094,2019-08-07 16:52:58:171
-10.0845,6.4412,1.182,0.7678,-5.6166,2.5071,-0.564,0.2689,-1.4051,2099,2019-08-07 16:52:58:176
-9.0176,6.0021,0.6635,0.7678,-5.6166,2.5071,-0.564,0.2689,-1.4051,2103,2019-08-07 16:52:58:180
-9.0176,6.0021,0.6635,0.7678,-5.6166,2.5071,-0.6524,0.1155,-1.3699,2109,2019-08-07 16:52:58:186
-8.5774,5.7681,0.3995,-0.6224,-5.2848,3.2478,-0.6524,0.1155,-1.3699,2114,2019-08-07 16:52:58:191
-8.5774,5.7681,0.3995,-0.6224,-5.2848,3.2478,-0.646,0.2593,-1.3593,2119,2019-08-07 16:52:58:196
-8.5774,5.7681,0.3995,-0.6224,-5.2848,3.2478,-0.646,0.2593,-1.3593,2123,2019-08-07 16:52:58:200
-8.2808,5.4197,-0.5857,-0.6224,-5.2848,3.2478,-0.6556,0.4735,-1.3561,2129,2019-08-07 16:52:58:206
-8.2808,5.4197,-0.5857,-0.7621,-5.2648,4.4486,-0.6556,0.4735,-1.3561,2134,2019-08-07 16:52:58:211
-8.2808,5.4197,-0.5857,-0.7621,-5.2648,4.4486,-0.7589,0.7675,-1.3817,2139,2019-08-07 16:52:58:216
-8.9362,5.4244,-1.1042,-0.7621,-5.2648,4.4486,-0.7589,0.7675,-1.3817,2144,2019-08-07 16:52:58:221
-8.9362,5.4244,-1.1042,-0.7621,-5.2648,4.4486,-0.8623,0.9432,-1.4328,2149,2019-08-07 16:52:58:226
-8.9362,5.4244,-1.1042,-0.7621,-5.2648,4.4486,-0.8623,0.9432,-1.4328,2153,2019-08-07 16:52:58:230
-10.3858,5.2001,-0.6799,0.8505,-5.3792,3.9261,-0.8623,0.9432,-1.4328,2159,2019-08-07 16:52:58:236
-10.3858,5.2001,-0.6799,0.8505,-5.3792,3.9261,-0.9624,1.0082,-1.5233,2163,2019-08-07 16:52:58:240
-11.8307,4.842,-0.3877,0.8505,-5.3792,3.9261,-0.9624,1.0082,-1.5233,2169,2019-08-07 16:52:58:246
-11.8307,4.842,-0.3877,0.8505,-5.3792,3.9261,-1.1126,0.907,-1.7225,2174,2019-08-07 16:52:58:251
-11.8307,4.842,-0.3877,3.0988,-5.1824,3.4612,-1.1126,0.907,-1.7225,2180,2019-08-07 16:52:58:257
-13.0028,4.4506,-0.383,3.0988,-5.1824,3.4612,-1.2756,0.6077,-1.9622,2184,2019-08-07 16:52:58:261
-13.0028,4.4506,-0.383,3.0988,-5.1824,3.4612,-1.2756,0.6077,-1.9622,2189,2019-08-07 16:52:58:266
-13.0028,4.4506,-0.383,3.0988,-5.1824,3.4612,-1.2756,0.6077,-1.9622,2193,2019-08-07 16:52:58:270
-13.3138,4.0925,-0.2227,3.9518,-4.9169,3.0883,-1.5206,0.0623,-2.219,2199,2019-08-07 16:52:58:276
-13.3138,4.0925,-0.2227,3.9518,-4.9169,3.0883,-1.5206,0.0623,-2.219,2203,2019-08-07 16:52:58:280
-12.5579,3.6438,-0.581,3.9518,-4.9169,3.0883,-1.9787,-0.7697,-2.5151,2209,2019-08-07 16:52:58:286
-12.5579,3.6438,-0.581,3.9518,-4.9169,3.0883,-1.9787,-0.7697,-2.5151,2213,2019-08-07 16:52:58:290
-12.5579,3.6438,-0.581,2.5551,-4.9149,3.6618,-2.4186,-1.2331,-2.6994,2219,2019-08-07 16:52:58:296
-11.1561,3.4051,-0.5008,2.5551,-4.9149,3.6618,-2.4186,-1.2331,-2.6994,2223,2019-08-07 16:52:58:300
-11.1561,3.4051,-0.5008,1.3618,-4.8463,3.4106,-2.8181,-1.5868,-2.824,2229,2019-08-07 16:52:58:306
-9.7304,2.6699,-0.9062,1.3618,-4.8463,3.4106,-2.8181,-1.5868,-2.824,2235,2019-08-07 16:52:58:312
-9.7304,2.6699,-0.9062,1.3618,-4.8463,3.4106,-2.8181,-1.5868,-2.824,2238,2019-08-07 16:52:58:315
-9.7304,2.6699,-0.9062,1.3618,-4.8463,3.4106,-3.2975,-1.8328,-2.8933,2244,2019-08-07 16:52:58:321
-8.2951,1.3524,-1.9102,-0.6519,-3.8009,5.1027,-3.2975,-1.8328,-2.8933,2249,2019-08-07 16:52:58:326
-8.2951,1.3524,-1.9102,-0.6519,-3.8009,5.1027,-3.5563,-1.7774,-2.9327,2253,2019-08-07 16:52:58:330
-8.2951,1.3524,-1.9102,-0.6519,-3.8009,5.1027,-3.5563,-1.7774,-2.9327,2259,2019-08-07 16:52:58:336
-7.6588,-0.2898,-2.0187,-0.6519,-3.8009,5.1027,-3.7598,-1.7274,-2.9593,2265,2019-08-07 16:52:58:342
-7.6588,-0.2898,-2.0187,-1.0631,-2.0765,5.0544,-3.7598,-1.7274,-2.9593,2269,2019-08-07 16:52:58:346
-7.7736,-1.9129,-1.2503,-1.0631,-2.0765,5.0544,-3.8983,-1.6155,-2.9167,2274,2019-08-07 16:52:58:351
-7.7736,-1.9129,-1.2503,-1.0631,-2.0765,5.0544,-3.8983,-1.6155,-2.9167,2279,2019-08-07 16:52:58:356
-7.7736,-1.9129,-1.2503,-1.0631,-2.0765,5.0544,-3.9515,-1.5388,-2.8102,2283,2019-08-07 16:52:58:360
-8.0989,-2.968,-0.9298,-0.2868,-0.981,4.1424,-3.9515,-1.5388,-2.8102,2289,2019-08-07 16:52:58:366
-8.0989,-2.968,-0.9298,-0.2868,-0.981,4.1424,-3.9899,-1.558,-2.677,2293,2019-08-07 16:52:58:370
-8.8118,-3.622,-0.7695,-0.2868,-0.981,4.1424,-3.9899,-1.558,-2.677,2299,2019-08-07 16:52:58:376
-8.8118,-3.622,-0.7695,-0.2868,-0.981,4.1424,-4.0762,-1.7125,-2.5194,2303,2019-08-07 16:52:58:380
-8.8118,-3.622,-0.7695,1.1185,-0.7867,3.3754,-4.0762,-1.7125,-2.5194,2309,2019-08-07 16:52:58:386
-9.3381,-4.0134,-0.3547,1.1185,-0.7867,3.3754,-4.2051,-2.0011,-2.3468,2314,2019-08-07 16:52:58:391
-9.3381,-4.0134,-0.3547,1.1185,-0.7867,3.3754,-4.2051,-2.0011,-2.3468,2319,2019-08-07 16:52:58:396
-9.3381,-4.0134,-0.3547,1.1185,-0.7867,3.3754,-4.3713,-2.5008,-2.1614,2323,2019-08-07 16:52:58:400
-9.429,-4.424,-0.2557,1.6566,-0.6853,3.214,-4.3713,-2.5008,-2.1614,2329,2019-08-07 16:52:58:406
-9.429,-4.424,-0.2557,1.6566,-0.6853,3.214,-4.5566,-3.1474,-1.9441,2333,2019-08-07 16:52:58:410
-8.7352,-5.3262,0.178,1.6566,-0.6853,3.214,-4.5566,-3.1474,-1.9441,2339,2019-08-07 16:52:58:416
-8.7352,-5.3262,0.178,1.6566,-0.6853,3.214,-4.7196,-3.8835,-1.665,2344,2019-08-07 16:52:58:421
-7.2856,-7.1641,0.3712,0.3104,0.9411,2.6267,-4.7196,-3.8835,-1.665,2349,2019-08-07 16:52:58:426
-7.2856,-7.1641,0.3712,0.3104,0.9411,2.6267,-4.7558,-4.4896,-1.3667,2354,2019-08-07 16:52:58:431
-7.2856,-7.1641,0.3712,0.3104,0.9411,2.6267,-4.7558,-4.4896,-1.3667,2359,2019-08-07 16:52:58:436
-5.5633,-9.4365,-0.2981,0.3104,0.9411,2.6267,-4.6227,-4.7282,-1.0951,2364,2019-08-07 16:52:58:441
-5.5633,-9.4365,-0.2981,-1.8759,3.9469,3.6116,-4.6227,-4.7282,-1.0951,2369,2019-08-07 16:52:58:446
-5.5633,-9.4365,-0.2981,-1.8759,3.9469,3.6116,-4.4064,-4.7272,-0.8448,2374,2019-08-07 16:52:58:451
-4.2907,-11.3269,-0.9769,-1.8759,3.9469,3.6116,-4.4064,-4.7272,-0.8448,2379,2019-08-07 16:52:58:456
-4.2907,-11.3269,-0.9769,-1.8759,3.9469,3.6116,-4.1486,-4.4992,-0.6232,2384,2019-08-07 16:52:58:461
-4.2907,-11.3269,-0.9769,-3.1167,5.6839,4.1574,-4.1486,-4.4992,-0.6232,2389,2019-08-07 16:52:58:466
-3.2573,-12.4344,-1.0806,-3.1167,5.6839,4.1574,-3.8663,-4.1775,-0.441,2394,2019-08-07 16:52:58:471
-3.2573,-12.4344,-1.0806,-3.1167,5.6839,4.1574,-3.8663,-4.1775,-0.441,2399,2019-08-07 16:52:58:476
-3.396,-12.1098,-1.2032,-3.1167,5.6839,4.1574,-3.5915,-3.8654,-0.2567,2404,2019-08-07 16:52:58:481
-3.396,-12.1098,-1.2032,-3.1167,5.6839,4.1574,-3.5915,-3.8654,-0.2567,2409,2019-08-07 16:52:58:486
-3.396,-12.1098,-1.2032,-2.5792,4.9096,4.2113,-3.5915,-3.8654,-0.2567,2413,2019-08-07 16:52:58:490
-3.5491,-11.7327,-0.9156,-2.5792,4.9096,4.2113,-3.3316,-3.5905,-0.0522,2419,2019-08-07 16:52:58:496
-3.5491,-11.7327,-0.9156,-2.5792,4.9096,4.2113,-3.3316,-3.5905,-0.0522,2424,2019-08-07 16:52:58:501
-3.4391,-12.0,-1.0335,-2.4739,4.7498,3.9843,-3.0908,-3.4467,0.1981,2429,2019-08-07 16:52:58:506
-3.4391,-12.0,-1.0335,-2.4739,4.7498,3.9843,-3.0908,-3.4467,0.1981,2433,2019-08-07 16:52:58:510
-3.4391,-12.0,-1.0335,-2.4739,4.7498,3.9843,-2.881,-3.3913,0.3419,2439,2019-08-07 16:52:58:516
-2.3626,-12.7686,-0.1756,-2.4739,4.7498,3.9843,-2.881,-3.3913,0.3419,2444,2019-08-07 16:52:58:521
-2.3626,-12.7686,-0.1756,-3.7566,5.5196,3.0364,-2.6487,-3.4105,0.3984,2449,2019-08-07 16:52:58:526
-2.3626,-12.7686,-0.1756,-3.7566,5.5196,3.0364,-2.6487,-3.4105,0.3984,2453,2019-08-07 16:52:58:530
-1.2766,-13.1123,-0.0011,-3.7566,5.5196,3.0364,-2.6487,-3.4105,0.3984,2459,2019-08-07 16:52:58:536
-1.2766,-13.1123,-0.0011,-3.7566,5.5196,3.0364,-2.3643,-3.354,0.4527,2463,2019-08-07 16:52:58:540
-0.5207,-13.2412,0.0271,-5.0572,5.7102,2.8724,-2.3643,-3.354,0.4527,2469,2019-08-07 16:52:58:546
-0.5207,-13.2412,0.0271,-5.0572,5.7102,2.8724,-1.9893,-3.1357,0.5518,2473,2019-08-07 16:52:58:550
-0.5207,-13.2412,0.0271,-5.0572,5.7102,2.8724,-1.9893,-3.1357,0.5518,2479,2019-08-07 16:52:58:556
-0.1188,-13.3224,0.3948,-5.0572,5.7102,2.8724,-1.6868,-2.7905,0.6104,2484,2019-08-07 16:52:58:561
-0.1188,-13.3224,0.3948,-5.4002,5.6287,2.0666,-1.6868,-2.7905,0.6104,2489,2019-08-07 16:52:58:566
-0.1475,-13.2078,1.017,-5.4002,5.6287,2.0666,-1.4088,-2.4336,0.5912,2494,2019-08-07 16:52:58:571
-0.1475,-13.2078,1.017,-5.4002,5.6287,2.0666,-1.4088,-2.4336,0.5912,2499,2019-08-07 16:52:58:576
-0.1475,-13.2078,1.017,-5.4002,5.6287,2.0666,-1.4088,-2.4336,0.5912,2503,2019-08-07 16:52:58:580
-0.7599,-12.2721,2.1861,-4.5868,4.4224,0.6524,-1.1403,-2.0896,0.5305,2509,2019-08-07 16:52:58:586
-0.7599,-12.2721,2.1861,-4.5868,4.4224,0.6524,-1.0082,-1.8701,0.4676,2514,2019-08-07 16:52:58:591
-0.9847,-11.4845,2.4406,-4.5868,4.4224,0.6524,-1.0082,-1.8701,0.4676,2519,2019-08-07 16:52:58:596
-0.9847,-11.4845,2.4406,-4.5868,4.4224,0.6524,-1.0082,-1.8701,0.4676,2523,2019-08-07 16:52:58:600
-0.9847,-11.4845,2.4406,-4.5868,4.4224,0.6524,-0.9603,-1.689,0.376,2529,2019-08-07 16:52:58:606
-0.9943,-10.9593,2.1484,-4.2601,3.2827,0.7969,-0.9603,-1.689,0.376,2533,2019-08-07 16:52:58:610
-0.9943,-10.9593,2.1484,-4.2601,3.2827,0.7969,-0.9656,-1.4845,0.2716,2539,2019-08-07 16:52:58:616
-0.9943,-10.9593,2.1484,-4.1256,3.0707,1.0726,-0.9656,-1.4845,0.2716,2544,2019-08-07 16:52:58:621
-1.3531,-10.8448,1.7383,-4.1256,3.0707,1.0726,-0.9656,-1.2512,0.1587,2549,2019-08-07 16:52:58:626
-1.3531,-10.8448,1.7383,-4.1256,3.0707,1.0726,-0.9123,-0.986,0.0639,2554,2019-08-07 16:52:58:631
-2.0859,-10.9831,1.7004,-4.1256,3.0707,1.0726,-0.9123,-0.986,0.0639,2559,2019-08-07 16:52:58:636
-2.0859,-10.9831,1.7004,-2.9718,3.2486,1.2869,-0.9123,-0.986,0.0639,2564,2019-08-07 16:52:58:641
-2.0859,-10.9831,1.7004,-2.9718,3.2486,1.2869,-0.8324,-0.7505,-0.0298,2568,2019-08-07 16:52:58:645
-2.837,-10.8304,2.0068,-2.9718,3.2486,1.2869,-0.8324,-0.7505,-0.0298,2574,2019-08-07 16:52:58:651
-2.837,-10.8304,2.0068,-2.9718,3.2486,1.2869,-0.7526,-0.6738,-0.1033,2578,2019-08-07 16:52:58:655
-3.5356,-10.3959,2.2472,-1.628,2.5968,0.7325,-0.7526,-0.6738,-0.1033,2584,2019-08-07 16:52:58:661
-3.5356,-10.3959,2.2472,-1.628,2.5968,0.7325,-0.6822,-0.8038,-0.1353,2588,2019-08-07 16:52:58:665
-3.5356,-10.3959,2.2472,-1.628,2.5968,0.7325,-0.6822,-0.8038,-0.1353,2594,2019-08-07 16:52:58:671
-3.7652,-9.9615,2.2425,-1.628,2.5968,0.7325,-0.6375,-0.9732,-0.1438,2599,2019-08-07 16:52:58:676
-3.7652,-9.9615,2.2425,-1.3147,1.9018,0.5571,-0.6375,-0.9732,-0.1438,2604,2019-08-07 16:52:58:681
-3.7652,-9.9615,2.2425,-1.3147,1.9018,0.5571,-0.6375,-0.9732,-0.1438,2608,2019-08-07 16:52:58:685
-3.5403,-9.4937,2.4027,-1.3147,1.9018,0.5571,-0.5885,-1.1713,-0.1385,2615,2019-08-07 16:52:58:692
-3.5403,-9.4937,2.4027,-1.3147,1.9018,0.5571,-0.5885,-1.1713,-0.1385,2619,2019-08-07 16:52:58:696
-2.8849,-9.3075,2.0586,-1.8778,1.3085,0.7131,-0.5565,-1.2267,-0.1065,2623,2019-08-07 16:52:58:700
-2.8849,-9.3075,2.0586,-1.8778,1.3085,0.7131,-0.5565,-1.2267,-0.1065,2629,2019-08-07 16:52:58:706
-2.8849,-9.3075,2.0586,-1.8778,1.3085,0.7131,-0.5129,-1.1202,-0.0852,2634,2019-08-07 16:52:58:711
-2.3969,-9.1213,1.5731,-1.8778,1.3085,0.7131,-0.5129,-1.1202,-0.0852,2640,2019-08-07 16:52:58:717
-2.3969,-9.1213,1.5731,-2.6177,0.9979,1.4998,-0.4671,-0.8698,-0.0661,2644,2019-08-07 16:52:58:721
-2.0764,-9.0449,1.394,-2.6177,0.9979,1.4998,-0.4671,-0.8698,-0.0661,2649,2019-08-07 16:52:58:726
-2.0764,-9.0449,1.394,-2.6177,0.9979,1.4998,-0.3755,-0.4384,-0.0714,2653,2019-08-07 16:52:58:730
-2.0764,-9.0449,1.394,-2.6177,0.9979,1.4998,-0.3755,-0.4384,-0.0714,2659,2019-08-07 16:52:58:736
-2.3156,-8.9304,1.4788,-2.4586,0.8664,1.4221,-0.3083,-0.1103,-0.1012,2664,2019-08-07 16:52:58:741
-2.3156,-8.9304,1.4788,-2.4586,0.8664,1.4221,-0.3083,-0.1103,-0.1012,2669,2019-08-07 16:52:58:746
-2.3156,-8.9304,1.4788,-2.4586,0.8664,1.4221,-0.3083,-0.1103,-0.1012,2673,2019-08-07 16:52:58:750
-2.9232,-8.8254,1.6391,-2.4586,0.8664,1.4221,-0.2487,0.1273,-0.1247,2679,2019-08-07 16:52:58:756
-2.9232,-8.8254,1.6391,-1.1797,0.6569,0.8006,-0.1837,0.2455,-0.1438,2684,2019-08-07 16:52:58:761
-3.9375,-8.6487,2.2424,-1.1797,0.6569,0.8006,-0.1837,0.2455,-0.1438,2689,2019-08-07 16:52:58:766
-3.9375,-8.6487,2.2424,-1.1797,0.6569,0.8006,-0.1837,0.2455,-0.1438,2693,2019-08-07 16:52:58:770
-4.6551,-8.4673,3.0532,-1.1797,0.6569,0.8006,-0.1187,0.1731,-0.131,2699,2019-08-07 16:52:58:776
-4.6551,-8.4673,3.0532,0.0026,0.3038,-0.3927,-0.1187,0.1731,-0.131,2704,2019-08-07 16:52:58:781
-4.6551,-8.4673,3.0532,0.0026,0.3038,-0.3927,-0.0367,-0.1412,-0.0682,2708,2019-08-07 16:52:58:785
-4.5594,-8.3527,3.3455,0.0026,0.3038,-0.3927,-0.0367,-0.1412,-0.0682,2714,2019-08-07 16:52:58:791
-4.5594,-8.3527,3.3455,0.0026,0.3038,-0.3927,0.0048,-0.399,-0.0373,2719,2019-08-07 16:52:58:796
-4.5594,-8.3527,3.3455,-0.5744,0.1914,-0.2387,0.0048,-0.399,-0.0373,2723,2019-08-07 16:52:58:800
-4.0236,-8.3002,2.9778,-0.5744,0.1914,-0.2387,0.0102,-0.5694,-0.0245,2729,2019-08-07 16:52:58:806
-4.0236,-8.3002,2.9778,-0.5744,0.1914,-0.2387,0.0102,-0.5694,-0.0245,2733,2019-08-07 16:52:58:810
-3.3203,-8.3575,2.4923,-0.5744,0.1914,-0.2387,0.0144,-0.5982,-0.0064,2739,2019-08-07 16:52:58:816
-3.3203,-8.3575,2.4923,-1.6357,0.3098,0.5805,0.0144,-0.5982,-0.0064,2744,2019-08-07 16:52:58:821
-3.3203,-8.3575,2.4923,-1.6357,0.3098,0.5805,0.0325,-0.4586,0.0053,2749,2019-08-07 16:52:58:826
-2.5979,-8.6058,2.0822,-1.6357,0.3098,0.5805,0.0325,-0.4586,0.0053,2753,2019-08-07 16:52:58:830
-2.5979,-8.6058,2.0822,-1.6357,0.3098,0.5805,0.0325,-0.4586,0.0053,2759,2019-08-07 16:52:58:836
-2.3779,-8.6248,2.0303,-2.2454,0.4787,0.8854,0.0656,-0.138,-0.0192,2764,2019-08-07 16:52:58:841
-2.3779,-8.6248,2.0303,-2.2454,0.4787,0.8854,0.0656,-0.138,-0.0192,2769,2019-08-07 16:52:58:846
-2.3779,-8.6248,2.0303,-2.2454,0.4787,0.8854,0.089,0.1379,-0.0448,2774,2019-08-07 16:52:58:851
-2.751,-8.4148,2.1764,-2.2454,0.4787,0.8854,0.089,0.1379,-0.0448,2779,2019-08-07 16:52:58:856
-2.751,-8.4148,2.1764,-1.6122,0.1603,0.6355,0.0943,0.3478,-0.0575,2783,2019-08-07 16:52:58:860
-2.751,-8.4148,2.1764,-1.6122,0.1603,0.6355,0.0943,0.3478,-0.0575,2789,2019-08-07 16:52:58:866
-3.3443,-8.2859,2.5771,-1.6122,0.1603,0.6355,0.0975,0.4628,-0.065,2794,2019-08-07 16:52:58:871
-3.3443,-8.2859,2.5771,-1.6122,0.1603,0.6355,0.0975,0.4628,-0.065,2799,2019-08-07 16:52:58:876
-3.971,-8.1857,3.0721,-0.6502,0.0271,-0.1877,0.089,0.4575,-0.0543,2804,2019-08-07 16:52:58:881
-3.971,-8.1857,3.0721,-0.6502,0.0271,-0.1877,0.089,0.4575,-0.0543,2810,2019-08-07 16:52:58:887
-3.971,-8.1857,3.0721,-0.6502,0.0271,-0.1877,0.0656,0.3083,-0.032,2814,2019-08-07 16:52:58:891
-4.3107,-8.1713,3.5576,-0.6502,0.0271,-0.1877,0.0656,0.3083,-0.032,2818,2019-08-07 16:52:58:895
-4.3107,-8.1713,3.5576,-0.2711,0.0044,-0.778,0.0485,0.0964,-0.0021,2824,2019-08-07 16:52:58:901
-4.3107,-8.1713,3.5576,-0.2711,0.0044,-0.778,0.0485,0.0964,-0.0021,2828,2019-08-07 16:52:58:905
-4.2916,-8.1475,3.6094,-0.2711,0.0044,-0.778,0.023,-0.1465,0.0341,2834,2019-08-07 16:52:58:911
-4.2916,-8.1475,3.6094,-0.2711,0.0044,-0.778,0.023,-0.1465,0.0341,2839,2019-08-07 16:52:58:916
-3.7175,-8.1379,3.1192,-1.0721,0.0275,-0.0947,0.0027,-0.334,0.0703,2844,2019-08-07 16:52:58:921
-3.7175,-8.1379,3.1192,-1.0721,0.0275,-0.0947,0.0027,-0.334,0.0703,2849,2019-08-07 16:52:58:926
-3.7175,-8.1379,3.1192,-1.0721,0.0275,-0.0947,-5.0E-4,-0.3532,0.0873,2854,2019-08-07 16:52:58:931
-2.9377,-8.2477,2.5253,-1.0721,0.0275,-0.0947,-5.0E-4,-0.3532,0.0873,2860,2019-08-07 16:52:58:937
-2.9377,-8.2477,2.5253,-1.9359,0.2248,0.7468,0.0027,-0.2168,0.098,2863,2019-08-07 16:52:58:940
-2.5693,-8.4482,2.0727,-1.9359,0.2248,0.7468,0.0027,-0.2168,0.098,2869,2019-08-07 16:52:58:946
-2.5693,-8.4482,2.0727,-1.9359,0.2248,0.7468,0.0027,-0.2168,0.098,2874,2019-08-07 16:52:58:951
-2.5693,-8.4482,2.0727,-2.0667,0.2819,0.9112,0.0112,0.0186,0.0873,2879,2019-08-07 16:52:58:956
-2.7272,-8.4387,1.9266,-2.0667,0.2819,0.9112,0.0112,0.0186,0.0873,2884,2019-08-07 16:52:58:961
-2.7272,-8.4387,1.9266,-2.0667,0.2819,0.9112,0.0485,0.3435,0.0628,2889,2019-08-07 16:52:58:966
-2.7272,-8.4387,1.9266,-2.0667,0.2819,0.9112,0.0485,0.3435,0.0628,2894,2019-08-07 16:52:58:971
-3.1243,-8.4578,2.1953,-1.4927,0.3059,0.7144,0.0954,0.5715,0.0373,2899,2019-08-07 16:52:58:976
-3.1243,-8.4578,2.1953,-1.4927,0.3059,0.7144,0.0954,0.5715,0.0373,2903,2019-08-07 16:52:58:980
-3.751,-8.2764,2.2896,-1.4927,0.3059,0.7144,0.0954,0.5715,0.0373,2909,2019-08-07 16:52:58:986
-3.751,-8.2764,2.2896,-1.4927,0.3059,0.7144,0.1295,0.7036,0.0202,2913,2019-08-07 16:52:58:990
-4.0189,-8.2525,2.5111,-0.6721,0.1623,0.4432,0.1295,0.7036,0.0202,2919,2019-08-07 16:52:58:996
-4.0189,-8.2525,2.5111,-0.6721,0.1623,0.4432,0.1593,0.7057,0.0032,2924,2019-08-07 16:52:59:001
-4.0189,-8.2525,2.5111,-0.6721,0.1623,0.4432,0.1593,0.7057,0.0032,2929,2019-08-07 16:52:59:006
-4.0046,-8.2191,2.5488,-0.6721,0.1623,0.4432,0.187,0.6588,0.0032,2933,2019-08-07 16:52:59:010
-4.0046,-8.2191,2.5488,-0.6802,0.0595,0.2566,0.187,0.6588,0.0032,2939,2019-08-07 16:52:59:016
-4.0046,-8.2191,2.5488,-0.6802,0.0595,0.2566,0.2126,0.5949,0.0181,2944,2019-08-07 16:52:59:021
-4.0812,-8.1618,2.6195,-0.6802,0.0595,0.2566,0.2126,0.5949,0.0181,2949,2019-08-07 16:52:59:026
-4.0812,-8.1618,2.6195,-0.6802,0.0595,0.2566,0.2254,0.5352,0.0383,2953,2019-08-07 16:52:59:030
-4.5261,-8.0711,3.0343,-0.3262,0.0046,-0.1043,0.2254,0.5352,0.0383,2959,2019-08-07 16:52:59:036
-4.5261,-8.0711,3.0343,-0.3262,0.0046,-0.1043,0.2435,0.4085,0.0703,2965,2019-08-07 16:52:59:042
-4.5261,-8.0711,3.0343,-0.3262,0.0046,-0.1043,0.2435,0.4085,0.0703,2969,2019-08-07 16:52:59:046
-4.7988,-7.9422,3.303,-0.3262,0.0046,-0.1043,0.2435,0.4085,0.0703,2974,2019-08-07 16:52:59:051
-4.7988,-7.9422,3.303,-0.0152,-0.1973,-0.5155,0.2584,0.1155,0.1182,2979,2019-08-07 16:52:59:056
-4.7988,-7.9422,3.303,-0.0152,-0.1973,-0.5155,0.2584,0.1155,0.1182,2983,2019-08-07 16:52:59:060
-4.4639,-7.8419,3.0579,-0.0152,-0.1973,-0.5155,0.2722,-0.1071,0.1438,2989,2019-08-07 16:52:59:066
-4.4639,-7.8419,3.0579,-0.0152,-0.1973,-0.5155,0.2722,-0.1071,0.1438,2994,2019-08-07 16:52:59:071
-4.0908,-7.8419,2.6525,-0.6543,-0.2737,0.1832,0.2754,-0.2158,0.1587,2999,2019-08-07 16:52:59:076
-4.0908,-7.8419,2.6525,-0.6543,-0.2737,0.1832,0.2754,-0.2158,0.1587,3004,2019-08-07 16:52:59:081
-4.0908,-7.8419,2.6525,-0.6543,-0.2737,0.1832,0.2829,-0.1689,0.1651,3009,2019-08-07 16:52:59:086
-3.8707,-7.8181,2.4781,-0.6543,-0.2737,0.1832,0.2829,-0.1689,0.1651,3014,2019-08-07 16:52:59:091
-3.8707,-7.8181,2.4781,-0.6543,-0.2737,0.1832,0.2829,-0.1689,0.1651,3019,2019-08-07 16:52:59:096
-3.8707,-7.8181,2.4781,-0.9291,-0.2588,0.4999,0.2893,-0.0954,0.1694,3024,2019-08-07 16:52:59:101
-3.909,-7.8085,2.4121,-0.9291,-0.2588,0.4999,0.2893,-0.0954,0.1694,3029,2019-08-07 16:52:59:106
-3.909,-7.8085,2.4121,-0.9291,-0.2588,0.4999,0.2903,0.1038,0.1406,3033,2019-08-07 16:52:59:110
-4.0525,-7.8133,2.4262,-0.7553,-0.206,0.5424,0.2903,0.1038,0.1406,3039,2019-08-07 16:52:59:116
-4.0525,-7.8133,2.4262,-0.7553,-0.206,0.5424,0.301,0.286,0.1001,3044,2019-08-07 16:52:59:121
-4.3826,-7.756,2.4687,-0.7553,-0.206,0.5424,0.301,0.286,0.1001,3049,2019-08-07 16:52:59:126
-4.3826,-7.756,2.4687,-0.7553,-0.206,0.5424,0.301,0.286,0.1001,3054,2019-08-07 16:52:59:131
-4.3826,-7.756,2.4687,-0.3617,-0.2282,0.4691,0.2925,0.4362,0.0703,3058,2019-08-07 16:52:59:135
-4.574,-7.7178,2.6572,-0.3617,-0.2282,0.4691,0.2925,0.4362,0.0703,3064,2019-08-07 16:52:59:141
-4.574,-7.7178,2.6572,-0.3617,-0.2282,0.4691,0.2776,0.5086,0.0426,3069,2019-08-07 16:52:59:146
-4.574,-7.7178,2.6572,-0.3617,-0.2282,0.4691,0.2776,0.5086,0.0426,3074,2019-08-07 16:52:59:151
-4.8371,-7.6892,2.9118,0.0409,-0.2786,0.0171,0.2584,0.5299,0.016,3079,2019-08-07 16:52:59:156
-4.8371,-7.6892,2.9118,0.0409,-0.2786,0.0171,0.2584,0.5299,0.016,3084,2019-08-07 16:52:59:161
-5.0668,-7.6796,3.105,0.0409,-0.2786,0.0171,0.2371,0.4948,-0.0021,3088,2019-08-07 16:52:59:165
-5.0668,-7.6796,3.105,0.0409,-0.2786,0.0171,0.2371,0.4948,-0.0021,3094,2019-08-07 16:52:59:171
-5.0668,-7.6796,3.105,0.1575,-0.2814,-0.2555,0.2158,0.4117,-0.0075,3099,2019-08-07 16:52:59:176
-5.0955,-7.6796,3.2653,0.1575,-0.2814,-0.2555,0.2158,0.4117,-0.0075,3104,2019-08-07 16:52:59:181
-5.0955,-7.6796,3.2653,0.1575,-0.2814,-0.2555,0.2158,0.4117,-0.0075,3109,2019-08-07 16:52:59:186
-5.0046,-7.6557,3.3124,0.1575,-0.2814,-0.2555,0.1913,0.3179,-0.0064,3114,2019-08-07 16:52:59:191
-5.0046,-7.6557,3.3124,0.0177,-0.3163,-0.3491,0.1913,0.3179,-0.0064,3119,2019-08-07 16:52:59:196
-5.0046,-7.6557,3.3124,0.0177,-0.3163,-0.3491,0.1625,0.2253,-0.0075,3123,2019-08-07 16:52:59:200
-4.8563,-7.5698,3.2983,0.0177,-0.3163,-0.3491,0.1625,0.2253,-0.0075,3129,2019-08-07 16:52:59:206
-4.8563,-7.5698,3.2983,0.0177,-0.3163,-0.3491,0.138,0.1667,0.0021,3134,2019-08-07 16:52:59:211
-4.6075,-7.6319,3.2653,-0.3329,-0.3019,-0.2848,0.138,0.1667,0.0021,3138,2019-08-07 16:52:59:215
-4.6075,-7.6319,3.2653,-0.3329,-0.3019,-0.2848,0.1156,0.14,0.0042,3144,2019-08-07 16:52:59:221
-4.6075,-7.6319,3.2653,-0.3329,-0.3019,-0.2848,0.1156,0.14,0.0042,3149,2019-08-07 16:52:59:226
-4.5501,-7.608,3.1616,-0.3329,-0.3019,-0.2848,0.105,0.1358,0.001,3154,2019-08-07 16:52:59:231
-4.5501,-7.608,3.1616,-0.4978,-0.3096,-0.0997,0.105,0.1358,0.001,3159,2019-08-07 16:52:59:236
-4.4257,-7.6701,3.0296,-0.4978,-0.3096,-0.0997,0.0986,0.1752,0.001,3164,2019-08-07 16:52:59:241
-4.4257,-7.6701,3.0296,-0.4978,-0.3096,-0.0997,0.0986,0.1752,0.001,3168,2019-08-07 16:52:59:245
-4.4257,-7.6701,3.0296,-0.4978,-0.3096,-0.0997,0.1007,0.2316,0.0,3174,2019-08-07 16:52:59:251
-4.5597,-7.6271,3.0249,-0.365,-0.314,-0.0848,0.1007,0.2316,0.0,3179,2019-08-07 16:52:59:256
-4.5597,-7.6271,3.0249,-0.365,-0.314,-0.0848,0.1092,0.287,0.0,3183,2019-08-07 16:52:59:260
-4.8085,-7.608,3.1286,-0.365,-0.314,-0.0848,0.1092,0.287,0.0,3189,2019-08-07 16:52:59:266
-4.8085,-7.608,3.1286,-0.365,-0.314,-0.0848,0.1092,0.287,0.0,3193,2019-08-07 16:52:59:270
-4.8085,-7.608,3.1286,0.0107,-0.393,-0.2356,0.1082,0.286,-0.0075,3199,2019-08-07 16:52:59:276
-5.0047,-7.5603,3.2323,0.0107,-0.393,-0.2356,0.1082,0.286,-0.0075,3204,2019-08-07 16:52:59:281
-5.0047,-7.5603,3.2323,0.0107,-0.393,-0.2356,0.1092,0.2487,-0.0149,3210,2019-08-07 16:52:59:287
-5.1386,-7.4696,3.3407,0.0107,-0.393,-0.2356,0.1092,0.2487,-0.0149,3214,2019-08-07 16:52:59:291
-5.1386,-7.4696,3.3407,0.0688,-0.3714,-0.3146,0.1092,0.1976,-0.016,3219,2019-08-07 16:52:59:296
-5.1386,-7.4696,3.3407,0.0688,-0.3714,-0.3146,0.1092,0.1976,-0.016,3223,2019-08-07 16:52:59:300
-5.0047,-7.503,3.3218,0.0688,-0.3714,-0.3146,0.1071,0.156,-0.0203,3229,2019-08-07 16:52:59:306
-5.0047,-7.503,3.3218,0.0688,-0.3714,-0.3146,0.1071,0.156,-0.0203,3234,2019-08-07 16:52:59:311
-5.0047,-7.503,3.3218,0.0688,-0.3714,-0.3146,0.0986,0.107,-0.0256,3238,2019-08-07 16:52:59:315
-4.8899,-7.5412,3.1804,-0.1049,-0.3609,-0.2062,0.0986,0.107,-0.0256,3244,2019-08-07 16:52:59:321
-4.8899,-7.5412,3.1804,-0.1049,-0.3609,-0.2062,0.0826,0.0814,-0.0203,3249,2019-08-07 16:52:59:326
-4.7703,-7.5507,3.1521,-0.1049,-0.3609,-0.2062,0.0826,0.0814,-0.0203,3254,2019-08-07 16:52:59:331
-4.7703,-7.5507,3.1521,-0.1049,-0.3609,-0.2062,0.0805,0.0612,-0.0235,3259,2019-08-07 16:52:59:336
-4.7703,-7.5507,3.1521,-0.2782,-0.3524,-0.137,0.0805,0.0612,-0.0235,3264,2019-08-07 16:52:59:341
-4.7081,-7.5221,2.9447,-0.2782,-0.3524,-0.137,0.0741,0.0559,-0.0181,3269,2019-08-07 16:52:59:346
-4.7081,-7.5221,2.9447,-0.2782,-0.3524,-0.137,0.0741,0.0559,-0.0181,3273,2019-08-07 16:52:59:350
-4.7081,-7.5221,2.9447,-0.2782,-0.3524,-0.137,0.0656,0.058,-0.0085,3279,2019-08-07 16:52:59:356
-4.598,-7.46,2.8316,-0.3976,-0.4359,0.1574,0.0656,0.058,-0.0085,3284,2019-08-07 16:52:59:361
-4.598,-7.46,2.8316,-0.3976,-0.4359,0.1574,0.0549,0.0751,0.0074,3288,2019-08-07 16:52:59:365
-4.4784,-7.4552,2.7845,-0.3976,-0.4359,0.1574,0.0549,0.0751,0.0074,3294,2019-08-07 16:52:59:371
-4.4784,-7.4552,2.7845,-0.4882,-0.3802,0.1444,0.0485,0.0868,0.0192,3300,2019-08-07 16:52:59:377
-4.4784,-7.4552,2.7845,-0.4882,-0.3802,0.1444,0.0485,0.0868,0.0192,3304,2019-08-07 16:52:59:381
-4.5215,-7.5077,2.7845,-0.4882,-0.3802,0.1444,0.0485,0.0868,0.0192,3308,2019-08-07 16:52:59:385
-4.5215,-7.5077,2.7845,-0.4882,-0.3802,0.1444,0.0485,0.1049,0.0319,3314,2019-08-07 16:52:59:391
-4.6459,-7.4457,2.8457,-0.4882,-0.3802,0.1444,0.0485,0.1049,0.0319,3319,2019-08-07 16:52:59:396
-4.6459,-7.4457,2.8457,-0.3315,-0.4172,0.2078,0.0602,0.123,0.0479,3323,2019-08-07 16:52:59:400
-4.6459,-7.4457,2.8457,-0.3315,-0.4172,0.2078,0.0602,0.123,0.0479,3329,2019-08-07 16:52:59:406
-4.7033,-7.3979,2.8033,-0.3315,-0.4172,0.2078,0.0688,0.1304,0.0628,3334,2019-08-07 16:52:59:411
-4.7033,-7.3979,2.8033,-0.3315,-0.4172,0.2078,0.0688,0.1304,0.0628,3339,2019-08-07 16:52:59:416
-4.7799,-7.4314,2.8033,-0.2387,-0.493,0.1537,0.0773,0.1198,0.0777,3343,2019-08-07 16:52:59:420
-4.7799,-7.4314,2.8033,-0.2387,-0.493,0.1537,0.0773,0.1198,0.0777,3350,2019-08-07 16:52:59:427
-4.7799,-7.4314,2.8033,-0.2387,-0.493,0.1537,0.0784,0.1177,0.0841,3354,2019-08-07 16:52:59:431
-4.8277,-7.4266,2.8316,-0.2387,-0.493,0.1537,0.0784,0.1177,0.0841,3359,2019-08-07 16:52:59:436
-4.8277,-7.4266,2.8316,-0.2737,-0.4608,0.2385,0.0762,0.1241,0.0948,3364,2019-08-07 16:52:59:441
-4.7799,-7.4409,2.7373,-0.2737,-0.4608,0.2385,0.0762,0.1241,0.0948,3368,2019-08-07 16:52:59:445
-4.7799,-7.4409,2.7373,-0.2737,-0.4608,0.2385,0.073,0.1422,0.1044,3374,2019-08-07 16:52:59:451
-4.7799,-7.4409,2.7373,-0.2737,-0.4608,0.2385,0.073,0.1422,0.1044,3379,2019-08-07 16:52:59:456
-4.7081,-7.4695,2.6053,-0.3648,-0.3797,0.3766,0.0688,0.1645,0.1097,3384,2019-08-07 16:52:59:461
-4.7081,-7.4695,2.6053,-0.3648,-0.3797,0.3766,0.0688,0.1645,0.1097,3389,2019-08-07 16:52:59:466
-4.7081,-7.4695,2.6053,-0.3648,-0.3797,0.3766,0.0688,0.1645,0.1097,3393,2019-08-07 16:52:59:470
-4.7608,-7.4982,2.6666,-0.3648,-0.3797,0.3766,0.073,0.1933,0.1118,3399,2019-08-07 16:52:59:476
-4.7608,-7.4982,2.6666,-0.245,-0.2738,0.3158,0.073,0.1933,0.1118,3403,2019-08-07 16:52:59:480
-4.7608,-7.4982,2.6666,-0.245,-0.2738,0.3158,0.073,0.2114,0.1161,3409,2019-08-07 16:52:59:486
-4.9091,-7.6032,2.7137,-0.245,-0.2738,0.3158,0.073,0.2114,0.1161,3414,2019-08-07 16:52:59:491
-4.9091,-7.6032,2.7137,-0.245,-0.2738,0.3158,0.0677,0.204,0.1214,3419,2019-08-07 16:52:59:496
-5.0143,-7.6414,2.7515,-0.1186,-0.1765,0.2099,0.0677,0.204,0.1214,3423,2019-08-07 16:52:59:500
-5.0143,-7.6414,2.7515,-0.1186,-0.1765,0.2099,0.0624,0.1901,0.1214,3429,2019-08-07 16:52:59:506
-5.0143,-7.6414,2.7515,-0.1186,-0.1765,0.2099,0.0624,0.1901,0.1214,3434,2019-08-07 16:52:59:511
-4.9569,-7.7512,2.8222,-0.1186,-0.1765,0.2099,0.0624,0.1901,0.1214,3438,2019-08-07 16:52:59:515
-4.9569,-7.7512,2.8222,-0.1148,-0.0081,0.1476,0.0613,0.1805,0.115,3444,2019-08-07 16:52:59:521
-5.0526,-7.8753,2.7609,-0.1148,-0.0081,0.1476,0.0613,0.1805,0.115,3449,2019-08-07 16:52:59:526
-5.0526,-7.8753,2.7609,-0.1148,-0.0081,0.1476,0.0549,0.1805,0.1001,3453,2019-08-07 16:52:59:530
-5.0526,-7.8753,2.7609,-0.1148,-0.0081,0.1476,0.0549,0.1805,0.1001,3459,2019-08-07 16:52:59:536
-5.2009,-7.8228,2.9023,0.046,0.0765,0.0046,0.0453,0.1571,0.0841,3464,2019-08-07 16:52:59:541
-5.2009,-7.8228,2.9023,0.046,0.0765,0.0046,0.0453,0.1571,0.0841,3469,2019-08-07 16:52:59:546
-5.2536,-7.9231,2.907,0.046,0.0765,0.0046,0.0411,0.1017,0.0575,3474,2019-08-07 16:52:59:551
-5.2536,-7.9231,2.907,0.046,0.0765,0.0046,0.0411,0.1017,0.0575,3479,2019-08-07 16:52:59:556
-5.2536,-7.9231,2.907,0.0304,0.1042,0.028,0.0421,0.0452,0.0319,3483,2019-08-07 16:52:59:560
-5.2057,-7.904,2.9683,0.0304,0.1042,0.028,0.0421,0.0452,0.0319,3489,2019-08-07 16:52:59:566
-5.2057,-7.904,2.9683,0.0304,0.1042,0.028,0.0421,0.0452,0.0319,3494,2019-08-07 16:52:59:571
-4.9713,-7.8753,2.94,0.0304,0.1042,0.028,0.0432,-0.0134,0.0074,3499,2019-08-07 16:52:59:576
-4.9713,-7.8753,2.94,-0.3629,0.0977,0.0532,0.0432,-0.0134,0.0074,3503,2019-08-07 16:52:59:580
-4.9713,-7.8753,2.94,-0.3629,0.0977,0.0532,0.0453,-0.0368,-0.0203,3509,2019-08-07 16:52:59:586
-4.7847,-7.8705,2.8222,-0.3629,0.0977,0.0532,0.0453,-0.0368,-0.0203,3514,2019-08-07 16:52:59:591
-4.7847,-7.8705,2.8222,-0.3629,0.0977,0.0532,0.056,-0.0091,-0.0448,3519,2019-08-07 16:52:59:596
-4.6412,-7.7607,2.8929,-0.5542,-0.0195,0.0586,0.056,-0.0091,-0.0448,3523,2019-08-07 16:52:59:600
-4.6412,-7.7607,2.8929,-0.5542,-0.0195,0.0586,0.0645,0.0218,-0.0543,3530,2019-08-07 16:52:59:607
-4.6412,-7.7607,2.8929,-0.5542,-0.0195,0.0586,0.0645,0.0218,-0.0543,3533,2019-08-07 16:52:59:610
-4.6604,-7.6987,2.9588,-0.5542,-0.0195,0.0586,0.0741,0.0335,-0.0607,3539,2019-08-07 16:52:59:616
-4.6604,-7.6987,2.9588,-0.5542,-0.0195,0.0586,0.0741,0.0335,-0.0607,3543,2019-08-07 16:52:59:620
-4.6891,-7.5602,2.9494,-0.4961,-0.1422,-0.0125,0.072,0.0239,-0.0671,3550,2019-08-07 16:52:59:627
-4.6891,-7.5602,2.9494,-0.4961,-0.1422,-0.0125,0.072,0.0239,-0.0671,3553,2019-08-07 16:52:59:630
-4.6891,-7.5602,2.9494,-0.4961,-0.1422,-0.0125,0.0666,0.0229,-0.0671,3560,2019-08-07 16:52:59:637
-4.7546,-7.5031,2.9026,-0.4292,-0.3271,0.0442,0.0666,0.0229,-0.0671,3564,2019-08-07 16:52:59:641
-4.7546,-7.5031,2.9026,-0.4292,-0.3271,0.0442,0.0666,0.0229,-0.0671,3569,2019-08-07 16:52:59:646
-4.7546,-7.5031,2.9026,-0.4292,-0.3271,0.0442,0.0602,0.0229,-0.0607,3574,2019-08-07 16:52:59:651
-4.812,-7.4172,3.0299,-0.4292,-0.3271,0.0442,0.0602,0.0229,-0.0607,3579,2019-08-07 16:52:59:656
-4.812,-7.4172,3.0299,-0.3059,-0.3673,-0.0456,0.0496,-6.0E-4,-0.0437,3584,2019-08-07 16:52:59:661
-4.8312,-7.4219,3.0016,-0.3059,-0.3673,-0.0456,0.0304,-0.0315,-0.0277,3589,2019-08-07 16:52:59:666
-4.8312,-7.4219,3.0016,-0.3059,-0.3673,-0.0456,0.0304,-0.0315,-0.0277,3594,2019-08-07 16:52:59:671
-4.8312,-7.4219,3.0016,-0.3059,-0.3673,-0.0456,0.0144,-0.0602,-0.0213,3599,2019-08-07 16:52:59:676
-4.8455,-7.3647,2.8884,-0.3323,-0.421,0.1098,0.0144,-0.0602,-0.0213,3604,2019-08-07 16:52:59:681
-4.8455,-7.3647,2.8884,-0.3323,-0.421,0.1098,0.0144,-0.0602,-0.0213,3608,2019-08-07 16:52:59:685
-4.8168,-7.3503,2.8555,-0.3323,-0.421,0.1098,0.0059,-0.0549,-0.0053,3614,2019-08-07 16:52:59:691
-4.8168,-7.3503,2.8555,-0.3323,-0.421,0.1098,0.0059,-0.0549,-0.0053,3619,2019-08-07 16:52:59:696
-4.8168,-7.3503,2.8555,-0.3323,-0.421,0.1098,-0.0069,-0.0198,0.0085,3624,2019-08-07 16:52:59:701
-4.8933,-7.3169,2.7518,-0.2481,-0.4736,0.1948,-0.0069,-0.0198,0.0085,3629,2019-08-07 16:52:59:706
-4.8933,-7.3169,2.7518,-0.2481,-0.4736,0.1948,-0.0197,0.0015,0.0064,3634,2019-08-07 16:52:59:711
-4.8933,-7.3169,2.7518,-0.2481,-0.4736,0.1948,-0.0197,0.0015,0.0064,3638,2019-08-07 16:52:59:715
-4.989,-7.3933,2.714,-0.2481,-0.4736,0.1948,-0.0197,0.0015,0.0064,3644,2019-08-07 16:52:59:721
-4.989,-7.3933,2.714,-0.1354,-0.3449,0.285,-0.0303,0.0133,0.0117,3650,2019-08-07 16:52:59:727
-5.0416,-7.4792,2.6905,-0.1354,-0.3449,0.285,-0.0303,0.0133,0.0117,3654,2019-08-07 16:52:59:731
-5.0416,-7.4792,2.6905,-0.1354,-0.3449,0.285,-0.025,0.0378,0.0053,3658,2019-08-07 16:52:59:735
-4.9364,-7.4936,2.8225,-0.1354,-0.3449,0.285,-0.025,0.0378,0.0053,3664,2019-08-07 16:52:59:741
-4.9364,-7.4936,2.8225,-0.249,-0.3029,0.2008,-0.0154,0.0601,0.0011,3669,2019-08-07 16:52:59:746
-4.9364,-7.4936,2.8225,-0.249,-0.3029,0.2008,-0.0154,0.0601,0.0011,3673,2019-08-07 16:52:59:750
-4.7258,-7.5413,2.6009,-0.249,-0.3029,0.2008,-0.0069,0.0921,0.0,3679,2019-08-07 16:52:59:756
-4.7258,-7.5413,2.6009,-0.249,-0.3029,0.2008,-0.0069,0.0921,0.0,3683,2019-08-07 16:52:59:760
-4.7258,-7.5413,2.6009,-0.4827,-0.2427,0.4436,6.0E-4,0.1315,-0.0096,3689,2019-08-07 16:52:59:766
-4.7641,-7.4983,2.5915,-0.4827,-0.2427,0.4436,6.0E-4,0.1315,-0.0096,3694,2019-08-07 16:52:59:771
-4.7641,-7.4983,2.5915,-0.4827,-0.2427,0.4436,0.007,0.1709,-0.0043,3700,2019-08-07 16:52:59:777
-4.9507,-7.4792,2.8225,-0.4827,-0.2427,0.4436,0.007,0.1709,-0.0043,3703,2019-08-07 16:52:59:780
-4.9507,-7.4792,2.8225,-0.1944,-0.3535,0.0822,0.007,0.1709,-0.0043,3708,2019-08-07 16:52:59:785
-4.9507,-7.4792,2.8225,-0.1944,-0.3535,0.0822,0.0187,0.1826,-0.0064,3714,2019-08-07 16:52:59:791
-5.1994,-7.4792,2.945,-0.1944,-0.3535,0.0822,0.0187,0.1826,-0.0064,3719,2019-08-07 16:52:59:796
-5.1994,-7.4792,2.945,-0.1944,-0.3535,0.0822,0.0187,0.0889,0.0117,3723,2019-08-07 16:52:59:800
-5.1994,-7.4792,2.945,0.0207,-0.3558,-0.1121,0.0187,0.0889,0.0117,3729,2019-08-07 16:52:59:806
-5.1755,-7.4076,3.0487,0.0207,-0.3558,-0.1121,0.0208,-0.0187,0.0234,3734,2019-08-07 16:52:59:811
-5.1755,-7.4076,3.0487,0.0207,-0.3558,-0.1121,0.0208,-0.0187,0.0234,3739,2019-08-07 16:52:59:816
-5.0272,-7.4506,2.9545,0.0207,-0.3558,-0.1121,0.023,-0.0922,0.0298,3744,2019-08-07 16:52:59:821
-5.0272,-7.4506,2.9545,-0.2727,-0.2989,0.0663,0.023,-0.0922,0.0298,3749,2019-08-07 16:52:59:826
-5.0272,-7.4506,2.9545,-0.2727,-0.2989,0.0663,0.023,-0.105,0.0277,3754,2019-08-07 16:52:59:831
-4.7593,-7.4458,2.6905,-0.2727,-0.2989,0.0663,0.023,-0.105,0.0277,3759,2019-08-07 16:52:59:836
-4.7593,-7.4458,2.6905,-0.2727,-0.2989,0.0663,0.0166,-0.0815,0.0298,3764,2019-08-07 16:52:59:841
-4.7353,-7.4601,2.6292,-0.4186,-0.2908,0.315,0.0166,-0.0815,0.0298,3769,2019-08-07 16:52:59:846
-4.7353,-7.4601,2.6292,-0.4186,-0.2908,0.315,0.0166,-0.0815,0.0298,3773,2019-08-07 16:52:59:850
-4.7353,-7.4601,2.6292,-0.4186,-0.2908,0.315,0.0166,-0.0432,0.0341,3779,2019-08-07 16:52:59:856
-4.6636,-7.5318,2.7235,-0.4186,-0.2908,0.315,0.0166,-0.0432,0.0341,3784,2019-08-07 16:52:59:861
-4.6636,-7.5318,2.7235,-0.5442,-0.2688,0.3395,0.0336,0.0314,0.0234,3789,2019-08-07 16:52:59:866
-4.6636,-7.5318,2.7235,-0.5442,-0.2688,0.3395,0.0336,0.0314,0.0234,3794,2019-08-07 16:52:59:871
-4.7449,-7.5079,2.6292,-0.5442,-0.2688,0.3395,0.0357,0.0996,0.0096,3799,2019-08-07 16:52:59:876
-4.7449,-7.5079,2.6292,-0.5442,-0.2688,0.3395,0.0357,0.0996,0.0096,3804,2019-08-07 16:52:59:881
-4.9649,-7.5222,2.7895,-0.225,-0.2568,0.1747,0.0315,0.1262,0.0043,3809,2019-08-07 16:52:59:886
-4.9649,-7.5222,2.7895,-0.225,-0.2568,0.1747,0.0315,0.1262,0.0043,3814,2019-08-07 16:52:59:891
-4.9649,-7.5222,2.7895,-0.225,-0.2568,0.1747,0.0315,0.1262,0.0043,3819,2019-08-07 16:52:59:896
-5.0654,-7.527,2.8743,-0.225,-0.2568,0.1747,0.0198,0.1059,0.0043,3823,2019-08-07 16:52:59:900
-5.0654,-7.527,2.8743,-0.1559,-0.2167,0.0913,0.0198,0.1059,0.0043,3829,2019-08-07 16:52:59:906
-5.0654,-7.527,2.8743,-0.1559,-0.2167,0.0913,0.023,0.0814,0.0053,3834,2019-08-07 16:52:59:911
-5.0558,-7.5843,2.9451,-0.1559,-0.2167,0.0913,0.023,0.0814,0.0053,3839,2019-08-07 16:52:59:916
-5.0558,-7.5843,2.9451,-0.1559,-0.2167,0.0913,0.0219,0.0378,0.0074,3844,2019-08-07 16:52:59:921
-5.0127,-7.5079,2.9639,-0.189,-0.2671,-0.0097,0.0219,0.0378,0.0074,3849,2019-08-07 16:52:59:926
-5.0127,-7.5079,2.9639,-0.189,-0.2671,-0.0097,0.0166,0.0037,0.016,3854,2019-08-07 16:52:59:931
-5.0127,-7.5079,2.9639,-0.189,-0.2671,-0.0097,0.0166,0.0037,0.016,3858,2019-08-07 16:52:59:935
-4.9458,-7.5318,2.9781,-0.2573,-0.2419,-0.0226,0.007,-0.0272,0.0202,3865,2019-08-07 16:52:59:942
-4.9458,-7.5318,2.9781,-0.2573,-0.2419,-0.0226,0.007,-0.0272,0.0202,3868,2019-08-07 16:52:59:945
-4.8501,-7.5365,2.8414,-0.2573,-0.2419,-0.0226,0.0038,-0.0293,0.017,3874,2019-08-07 16:52:59:951
-4.8501,-7.5365,2.8414,-0.3915,-0.1638,0.1794,0.0038,-0.0293,0.017,3879,2019-08-07 16:52:59:956
-4.8501,-7.5365,2.8414,-0.3915,-0.1638,0.1794,0.0059,-0.0112,0.0138,3884,2019-08-07 16:52:59:961
-4.8022,-7.5986,2.7565,-0.3915,-0.1638,0.1794,0.0059,-0.0112,0.0138,3888,2019-08-07 16:52:59:965
-4.8022,-7.5986,2.7565,-0.3915,-0.1638,0.1794,0.0059,-0.0112,0.0138,3894,2019-08-07 16:52:59:971
-4.874,-7.5795,2.7141,-0.3298,-0.1919,0.2461,0.0102,0.0165,0.0085,3899,2019-08-07 16:52:59:976
-4.874,-7.5795,2.7141,-0.3298,-0.1919,0.2461,0.0123,0.0505,0.0,3904,2019-08-07 16:52:59:981
-4.874,-7.5795,2.7141,-0.3298,-0.1919,0.2461,0.0123,0.0505,0.0,3909,2019-08-07 16:52:59:986
-4.9457,-7.57,2.667,-0.3298,-0.1919,0.2461,0.007,0.0708,0.0,3914,2019-08-07 16:52:59:991
-4.9457,-7.57,2.667,-0.2468,-0.1919,0.2216,0.007,0.0708,0.0,3919,2019-08-07 16:52:59:996
-4.9935,-7.5986,2.7895,-0.2468,-0.1919,0.2216,0.007,0.0708,0.0,3924,2019-08-07 16:53:00:001
-4.9935,-7.5986,2.7895,-0.2468,-0.1919,0.2216,0.0112,0.091,-0.0096,3929,2019-08-07 16:53:00:006
-4.9935,-7.5986,2.7895,-0.2468,-0.1919,0.2216,0.0112,0.091,-0.0096,3934,2019-08-07 16:53:00:011
-5.0988,-7.5747,2.8272,-0.121,-0.2068,0.0964,0.0155,0.0761,-0.0128,3939,2019-08-07 16:53:00:016
-5.0988,-7.5747,2.8272,-0.121,-0.2068,0.0964,0.0155,0.0761,-0.0128,3944,2019-08-07 16:53:00:021
-5.0988,-7.5747,2.8272,-0.121,-0.2068,0.0964,0.0123,0.0591,-0.0181,3949,2019-08-07 16:53:00:026
-5.1083,-7.5079,2.9404,-0.1027,-0.2644,0.0046,0.0123,0.0591,-0.0181,3954,2019-08-07 16:53:00:031
-5.1083,-7.5079,2.9404,-0.1027,-0.2644,0.0046,0.0123,0.0591,-0.0181,3959,2019-08-07 16:53:00:036
-5.1036,-7.5079,3.0064,-0.1027,-0.2644,0.0046,0.0102,0.0239,-0.0181,3964,2019-08-07 16:53:00:041
-5.1036,-7.5079,3.0064,-0.1027,-0.2644,0.0046,0.0102,0.0239,-0.0181,3968,2019-08-07 16:53:00:045
-5.1036,-7.5079,3.0064,-0.1448,-0.3367,-0.0097,0.0112,-0.024,-0.0181,3974,2019-08-07 16:53:00:051
-5.0461,-7.5127,3.0394,-0.1448,-0.3367,-0.0097,0.0112,-0.024,-0.0181,3979,2019-08-07 16:53:00:056
-5.0461,-7.5127,3.0394,-0.1448,-0.3367,-0.0097,0.007,-0.0528,-0.016,3985,2019-08-07 16:53:00:062
-5.0461,-7.5127,3.0394,-0.1448,-0.3367,-0.0097,0.007,-0.0528,-0.016,3989,2019-08-07 16:53:00:066
-4.8117,-7.4793,2.8885,-0.3932,-0.2948,0.0626,0.007,-0.056,-0.0085,3994,2019-08-07 16:53:00:071
-4.8117,-7.4793,2.8885,-0.3932,-0.2948,0.0626,0.007,-0.056,-0.0085,3999,2019-08-07 16:53:00:076
-4.7016,-7.4984,2.832,-0.3932,-0.2948,0.0626,0.007,-0.056,-0.0085,4004,2019-08-07 16:53:00:081
-4.7016,-7.4984,2.832,-0.3932,-0.2948,0.0626,0.008,-0.0272,-0.0096,4009,2019-08-07 16:53:00:086
-4.7016,-7.4984,2.832,-0.598,-0.2727,0.2801,0.008,-0.0272,-0.0096,4014,2019-08-07 16:53:00:091
-4.7112,-7.5222,2.6858,-0.598,-0.2727,0.2801,0.0123,0.0143,-0.0032,4019,2019-08-07 16:53:00:096
-4.7112,-7.5222,2.6858,-0.598,-0.2727,0.2801,0.0123,0.0143,-0.0032,4023,2019-08-07 16:53:00:100
-4.7638,-7.5079,2.7424,-0.598,-0.2727,0.2801,0.0198,0.0687,0.0011,4029,2019-08-07 16:53:00:106
-4.7638,-7.5079,2.7424,-0.4069,-0.2399,0.1839,0.0198,0.0687,0.0011,4034,2019-08-07 16:53:00:111
-4.7638,-7.5079,2.7424,-0.4069,-0.2399,0.1839,0.0251,0.1006,0.0043,4038,2019-08-07 16:53:00:115
-4.9169,-7.4649,2.8932,-0.4069,-0.2399,0.1839,0.0251,0.1006,0.0043,4044,2019-08-07 16:53:00:121
-4.9169,-7.4649,2.8932,-0.4069,-0.2399,0.1839,0.023,0.0868,0.0,4048,2019-08-07 16:53:00:125
-5.0317,-7.4936,2.9027,-0.2017,-0.3053,0.0276,0.023,0.0868,0.0,4054,2019-08-07 16:53:00:131
-5.0317,-7.4936,2.9027,-0.2017,-0.3053,0.0276,0.023,0.0868,0.0,4059,2019-08-07 16:53:00:136
-5.0317,-7.4936,2.9027,-0.1608,-0.3043,0.078,0.024,0.0495,0.0043,4064,2019-08-07 16:53:00:141
-5.0508,-7.484,2.7943,-0.1608,-0.3043,0.078,0.024,0.0495,0.0043,4068,2019-08-07 16:53:00:145
-5.0508,-7.484,2.7943,-0.1608,-0.3043,0.078,0.0251,0.009,0.0106,4074,2019-08-07 16:53:00:151
-5.0508,-7.4602,2.931,-0.1608,-0.3043,0.078,0.0251,0.009,0.0106,4079,2019-08-07 16:53:00:156
-5.0508,-7.4602,2.931,-0.1249,-0.2825,0.0339,0.0283,-0.0187,0.0085,4083,2019-08-07 16:53:00:160
-5.0508,-7.4602,2.931,-0.1249,-0.2825,0.0339,0.0283,-0.0187,0.0085,4089,2019-08-07 16:53:00:166
-4.9982,-7.4459,2.832,-0.2111,-0.3239,0.1227,0.0219,-0.0517,0.0096,4094,2019-08-07 16:53:00:171
-4.9982,-7.4459,2.832,-0.2111,-0.3239,0.1227,0.0219,-0.0517,0.0096,4099,2019-08-07 16:53:00:176
-4.9982,-7.4459,2.832,-0.2111,-0.3239,0.1227,0.0219,-0.0517,0.0096,4104,2019-08-07 16:53:00:181
-4.7398,-7.4554,2.6387,-0.2111,-0.3239,0.1227,0.0155,-0.057,0.0106,4109,2019-08-07 16:53:00:186
-4.7398,-7.4554,2.6387,-0.4809,-0.2558,0.2679,0.0155,-0.057,0.0106,4114,2019-08-07 16:53:00:191
-4.6872,-7.5031,2.6246,-0.4809,-0.2558,0.2679,0.0134,-0.0251,0.0117,4119,2019-08-07 16:53:00:196
-4.6872,-7.5031,2.6246,-0.4809,-0.2558,0.2679,0.0134,-0.0251,0.0117,4124,2019-08-07 16:53:00:201
-4.6872,-7.5031,2.6246,-0.4809,-0.2558,0.2679,0.0187,0.0292,0.0202,4129,2019-08-07 16:53:00:206
-4.7159,-7.5127,2.667,-0.4765,-0.293,0.2981,0.0187,0.0292,0.0202,4133,2019-08-07 16:53:00:210
-4.7159,-7.5127,2.667,-0.4765,-0.293,0.2981,0.0283,0.0708,0.0192,4139,2019-08-07 16:53:00:216
-4.9647,-7.422,2.7094,-0.2454,-0.3439,0.254,0.0283,0.0708,0.0192,4144,2019-08-07 16:53:00:221
-4.9647,-7.422,2.7094,-0.2454,-0.3439,0.254,0.0272,0.074,0.0288,4149,2019-08-07 16:53:00:226
-4.9647,-7.422,2.7094,-0.2454,-0.3439,0.254,0.0272,0.074,0.0288,4154,2019-08-07 16:53:00:231
-4.9742,-7.4315,2.6859,-0.2454,-0.3439,0.254,0.0272,0.074,0.0288,4159,2019-08-07 16:53:00:236
-4.9742,-7.4315,2.6859,-0.2826,-0.2922,0.2637,0.0134,0.0484,0.0309,4164,2019-08-07 16:53:00:241
-4.912,-7.4602,2.8414,-0.2826,-0.2922,0.2637,0.0134,0.0484,0.0309,4169,2019-08-07 16:53:00:246
-4.912,-7.4602,2.8414,-0.2826,-0.2922,0.2637,0.0166,0.0271,0.0373,4174,2019-08-07 16:53:00:251
-4.912,-7.4602,2.8414,-0.2826,-0.2922,0.2637,0.0166,0.0271,0.0373,4179,2019-08-07 16:53:00:256
-4.8307,-7.5127,2.8226,-0.4043,-0.2544,0.2349,0.0251,0.026,0.0522,4183,2019-08-07 16:53:00:260
-4.8307,-7.5127,2.8226,-0.4043,-0.2544,0.2349,0.0251,0.026,0.0522,4189,2019-08-07 16:53:00:266
-4.8307,-7.5127,2.8226,-0.4043,-0.2544,0.2349,0.0272,0.0431,0.049,4194,2019-08-07 16:53:00:271
-4.8689,-7.4172,2.8037,-0.4043,-0.2544,0.2349,0.0272,0.0431,0.049,4199,2019-08-07 16:53:00:276
-4.8689,-7.4172,2.8037,-0.2417,-0.3675,0.2011,0.0293,0.0569,0.0469,4204,2019-08-07 16:53:00:281
-4.8689,-7.4172,2.8037,-0.2417,-0.3675,0.2011,0.0293,0.0569,0.0469,4208,2019-08-07 16:53:00:285
-5.0507,-7.3934,2.8226,-0.2417,-0.3675,0.2011,0.0166,0.0516,0.0426,4214,2019-08-07 16:53:00:291
-5.0507,-7.3934,2.8226,-0.2417,-0.3675,0.2011,0.0166,0.0516,0.0426,4219,2019-08-07 16:53:00:296
-5.1225,-7.4554,2.8226,-0.1228,-0.2899,0.1326,0.007,0.042,0.0288,4223,2019-08-07 16:53:00:300
-5.1225,-7.4554,2.8226,-0.1228,-0.2899,0.1326,0.007,0.042,0.0288,4229,2019-08-07 16:53:00:306
-5.1225,-7.4554,2.8226,-0.1228,-0.2899,0.1326,0.0038,0.0495,0.017,4234,2019-08-07 16:53:00:311
-5.1512,-7.5127,2.865,-0.1228,-0.2899,0.1326,0.0038,0.0495,0.017,4239,2019-08-07 16:53:00:316
-5.1512,-7.5127,2.865,-0.0954,-0.2208,0.142,-5.0E-4,0.0527,0.0085,4244,2019-08-07 16:53:00:321
-5.1799,-7.5127,2.799,-0.0954,-0.2208,0.142,-5.0E-4,0.0527,0.0085,4249,2019-08-07 16:53:00:326
-5.1799,-7.5127,2.799,-0.0954,-0.2208,0.142,-0.0111,0.0537,0.0,4253,2019-08-07 16:53:00:330
-5.1799,-7.5127,2.799,-0.0954,-0.2208,0.142,-0.0111,0.0537,0.0,4259,2019-08-07 16:53:00:336
-5.1464,-7.6082,2.8556,-0.1418,-0.1927,0.0498,-0.0133,0.0559,-0.0117,4264,2019-08-07 16:53:00:341
-5.1464,-7.6082,2.8556,-0.1418,-0.1927,0.0498,-0.0133,0.0559,-0.0117,4269,2019-08-07 16:53:00:346
-5.1129,-7.5318,2.8886,-0.1418,-0.1927,0.0498,-0.0218,0.0484,-0.016,4274,2019-08-07 16:53:00:351
-5.1129,-7.5318,2.8886,-0.1418,-0.1927,0.0498,-0.0218,0.0484,-0.016,4280,2019-08-07 16:53:00:357
-5.1129,-7.5318,2.8886,-0.1418,-0.1927,0.0498,-0.0218,0.0484,-0.016,4283,2019-08-07 16:53:00:360
-5.0889,-7.4793,2.799,-0.2229,-0.2102,0.0888,-0.0239,0.0356,-0.0234,4289,2019-08-07 16:53:00:366
-5.0889,-7.4793,2.799,-0.2229,-0.2102,0.0888,-0.0239,0.0356,-0.0234,4293,2019-08-07 16:53:00:370
-4.9262,-7.5652,2.832,-0.2229,-0.2102,0.0888,-0.0324,0.0229,-0.0266,4299,2019-08-07 16:53:00:376
-4.9262,-7.5652,2.832,-0.3107,-0.1675,0.0861,-0.0324,0.0229,-0.0266,4304,2019-08-07 16:53:00:381
-4.9262,-7.5652,2.832,-0.3107,-0.1675,0.0861,-0.0356,0.0143,-0.0266,4308,2019-08-07 16:53:00:385
-4.9167,-7.5366,2.8462,-0.3107,-0.1675,0.0861,-0.0356,0.0143,-0.0266,4313,2019-08-07 16:53:00:390
-4.9167,-7.5366,2.8462,-0.3107,-0.1675,0.0861,-0.0271,0.0239,-0.0213,4319,2019-08-07 16:53:00:396
-4.9167,-7.5366,2.8462,-0.3107,-0.1675,0.0861,-0.0271,0.0239,-0.0213,4324,2019-08-07 16:53:00:401
-4.9023,-7.5127,2.9169,-0.3503,-0.3104,0.0898,-0.0133,0.0229,-0.0139,4328,2019-08-07 16:53:00:405
-4.9023,-7.5127,2.9169,-0.3503,-0.3104,0.0898,-0.0133,0.0229,-0.0139,4334,2019-08-07 16:53:00:411
-4.9214,-7.4602,2.7896,-0.3503,-0.3104,0.0898,-0.0143,0.0197,-0.0096,4338,2019-08-07 16:53:00:415
-4.9214,-7.4602,2.7896,-0.3503,-0.3104,0.0898,-0.0143,0.0197,-0.0096,4344,2019-08-07 16:53:00:421
-4.9214,-7.4602,2.7896,-0.3346,-0.2604,0.095,-0.0143,0.0165,-0.0117,4349,2019-08-07 16:53:00:426
-4.9023,-7.4745,2.7519,-0.3346,-0.2604,0.095,-0.0143,0.0165,-0.0117,4354,2019-08-07 16:53:00:431
-4.9023,-7.4745,2.7519,-0.3346,-0.2604,0.095,-0.0101,0.025,-0.0075,4359,2019-08-07 16:53:00:436
-4.9597,-7.4459,2.7377,-0.3346,-0.2604,0.095,-0.0101,0.025,-0.0075,4364,2019-08-07 16:53:00:441
-4.9597,-7.4459,2.7377,-0.3241,-0.2865,0.1708,-0.0069,0.0324,-0.0032,4368,2019-08-07 16:53:00:445
-4.9597,-7.4459,2.7377,-0.3241,-0.2865,0.1708,-0.0069,0.0324,-0.0032,4374,2019-08-07 16:53:00:451
-4.9836,-7.4888,2.7142,-0.3241,-0.2865,0.1708,-0.0058,0.0335,-0.0064,4378,2019-08-07 16:53:00:455
-4.9836,-7.4888,2.7142,-0.3241,-0.2865,0.1708,-0.0058,0.0335,-0.0064,4384,2019-08-07 16:53:00:461
-5.0314,-7.4268,2.7095,-0.2531,-0.3022,0.161,-0.0058,0.0335,-0.0064,4388,2019-08-07 16:53:00:465
-5.0314,-7.4268,2.7095,-0.2531,-0.3022,0.161,-0.0015,0.0442,-0.0053,4394,2019-08-07 16:53:00:471
-5.0505,-7.4316,2.7566,-0.2531,-0.3022,0.161,-0.0015,0.0442,-0.0053,4399,2019-08-07 16:53:00:476
-5.0505,-7.4316,2.7566,-0.2531,-0.3022,0.161,-0.0015,0.0367,-0.0053,4404,2019-08-07 16:53:00:481
-5.0505,-7.4316,2.7566,-0.1926,-0.3363,0.0998,-0.0015,0.0367,-0.0053,4408,2019-08-07 16:53:00:485
-5.0075,-7.4077,2.7707,-0.1926,-0.3363,0.0998,-0.0069,0.0346,-0.0053,4414,2019-08-07 16:53:00:491
-5.0075,-7.4077,2.7707,-0.1926,-0.3363,0.0998,-0.0069,0.0346,-0.0053,4418,2019-08-07 16:53:00:495
-5.0075,-7.4077,2.7707,-0.1926,-0.3363,0.0998,-0.0111,0.026,-0.0053,4424,2019-08-07 16:53:00:501
-5.0888,-7.3456,2.7802,-0.1605,-0.4182,0.1188,-0.0111,0.026,-0.0053,4429,2019-08-07 16:53:00:506
-5.0888,-7.3456,2.7802,-0.1605,-0.4182,0.1188,-0.0175,0.0101,-0.0043,4434,2019-08-07 16:53:00:511
-5.017,-7.422,2.7613,-0.1605,-0.4182,0.1188,-0.0175,0.0101,-0.0043,4439,2019-08-07 16:53:00:516
-5.017,-7.422,2.7613,-0.1605,-0.4182,0.1188,-0.0175,0.0101,0.0021,4443,2019-08-07 16:53:00:520
-5.017,-7.422,2.7613,-0.2566,-0.3858,0.1106,-0.0218,-0.007,0.0021,4449,2019-08-07 16:53:00:526
-4.9452,-7.4316,2.7943,-0.2566,-0.3858,0.1106,-0.0218,-0.007,0.0021,4454,2019-08-07 16:53:00:531
-4.9452,-7.4316,2.7943,-0.2566,-0.3858,0.1106,-0.0229,-0.0059,0.0011,4458,2019-08-07 16:53:00:535
-4.8783,-7.4268,2.733,-0.2566,-0.3858,0.1106,-0.0229,-0.0059,0.0011,4464,2019-08-07 16:53:00:541
-4.8783,-7.4268,2.733,-0.4284,-0.3252,0.1405,-0.0292,0.0069,0.0053,4468,2019-08-07 16:53:00:545
-4.8783,-7.4268,2.733,-0.4284,-0.3252,0.1405,-0.0292,0.0069,0.0053,4474,2019-08-07 16:53:00:551
-4.8352,-7.4172,2.766,-0.4284,-0.3252,0.1405,-0.0314,0.0239,0.0128,4479,2019-08-07 16:53:00:556
-4.8352,-7.4172,2.766,-0.4284,-0.3252,0.1405,-0.0314,0.0239,0.0128,4483,2019-08-07 16:53:00:560
-4.8352,-7.4172,2.766,-0.4066,-0.3026,0.105,-0.0314,0.0239,0.0128,4489,2019-08-07 16:53:00:566
-4.8352,-7.4841,2.7425,-0.4066,-0.3026,0.105,-0.0378,0.0495,0.0202,4493,2019-08-07 16:53:00:570
-4.8352,-7.4841,2.7425,-0.4066,-0.3026,0.105,-0.0378,0.0495,0.0202,4499,2019-08-07 16:53:00:576
-4.9787,-7.5605,2.8226,-0.4066,-0.3026,0.105,-0.0346,0.0644,0.016,4504,2019-08-07 16:53:00:581
-4.9787,-7.5605,2.8226,0.8547,-0.5896,1.1948,-0.1166,-0.1188,0.017,4509,2019-08-07 16:53:00:586
-5.8829,-7.5127,3.2987,0.8547,-0.5896,1.1948,-0.1166,-0.1188,0.017,4515,2019-08-07 16:53:00:592
-5.8829,-7.5127,3.2987,0.8547,-0.5896,1.1948,-0.1251,-0.1604,0.0469,4519,2019-08-07 16:53:00:596
-5.8829,-7.5127,3.2987,0.8547,-0.5896,1.1948,-0.1251,-0.1604,0.0469,4524,2019-08-07 16:53:00:601
-4.6007,-7.8994,3.096,-0.6509,0.1288,-0.2195,-0.1251,-0.1604,0.0469,4529,2019-08-07 16:53:00:606
-4.6007,-7.8994,3.096,-0.6509,0.1288,-0.2195,0.0922,-0.2957,-0.0288,4534,2019-08-07 16:53:00:611
-4.6007,-7.8994,3.096,-0.6509,0.1288,-0.2195,0.0922,-0.2957,-0.0288,4538,2019-08-07 16:53:00:615
-4.4811,-7.6798,2.2428,-0.6509,0.1288,-0.2195,0.0411,-0.0997,-0.0192,4544,2019-08-07 16:53:00:621
-4.4811,-7.6798,2.2428,-1.2887,-0.2182,0.6899,0.0411,-0.0997,-0.0192,4550,2019-08-07 16:53:00:627
-4.0505,-7.5509,2.4455,-1.2887,-0.2182,0.6899,0.0123,0.2178,-0.0139,4554,2019-08-07 16:53:00:631
-4.0505,-7.5509,2.4455,-1.2887,-0.2182,0.6899,0.0123,0.2178,-0.0139,4558,2019-08-07 16:53:00:635
-4.0505,-7.5509,2.4455,-0.9114,-0.1635,0.393,0.0198,0.3488,-0.0266,4564,2019-08-07 16:53:00:641
-4.8075,-7.4983,2.4594,-0.9114,-0.1635,0.393,0.0198,0.3488,-0.0266,4569,2019-08-07 16:53:00:646
-4.8075,-7.4983,2.4594,-0.9114,-0.1635,0.393,-0.0122,0.368,-0.0192,4573,2019-08-07 16:53:00:650
-5.3003,-7.5556,2.9261,0.0479,-0.2234,-0.0738,-0.0122,0.368,-0.0192,4579,2019-08-07 16:53:00:656
-5.3003,-7.5556,2.9261,0.0479,-0.2234,-0.0738,-0.0303,0.2849,-0.0171,4584,2019-08-07 16:53:00:661
-5.3003,-7.5556,2.9261,0.0479,-0.2234,-0.0738,-0.0303,0.2849,-0.0171,4589,2019-08-07 16:53:00:666
-5.4725,-7.6129,3.2089,0.0479,-0.2234,-0.0738,-0.0197,0.1496,-0.032,4594,2019-08-07 16:53:00:671
-5.4725,-7.6129,3.2089,0.2713,-0.2161,-0.3971,-0.0197,0.1496,-0.032,4599,2019-08-07 16:53:00:676
-5.4725,-7.6129,3.2089,0.2713,-0.2161,-0.3971,-0.0197,0.1496,-0.032,4604,2019-08-07 16:53:00:681