ACCELEROMETER X (m/s²),ACCELEROMETER Y (m/s²),ACCELEROMETER Z (m/s²),LINEAR ACCELERATION X (m/s²),LINEAR ACCELERATION Y (m/s²),LINEAR ACCELERATION Z (m/s²),GYROSCOPE X (rad/s),GYROSCOPE Y (rad/s),GYROSCOPE Z (rad/s),Time since start in ms ,YYYY-MO-DD HH-MI-SS_SSS
-0.5688,9.8307,0.9887,0.0342,-0.0131,-0.6743,0.0219,-6.0E-4,-0.0501,3,2019-08-07 17:01:43:417
-0.5688,9.8307,0.9887,0.0342,-0.0131,-0.6743,0.0219,-6.0E-4,-0.0501,8,2019-08-07 17:01:43:422
-0.5688,9.8307,0.9887,-0.0423,-0.0563,-0.5185,0.0453,-0.0336,-0.0501,12,2019-08-07 17:01:43:426
-0.5545,9.9262,0.7294,-0.0423,-0.0563,-0.5185,0.0453,-0.0336,-0.0501,18,2019-08-07 17:01:43:432
-0.5545,9.9262,0.7294,-0.0423,-0.0563,-0.5185,0.0549,-0.0102,-0.0522,23,2019-08-07 17:01:43:437
-0.3535,9.8164,0.7294,-0.2811,-0.0042,-0.4169,0.0549,-0.0102,-0.0522,28,2019-08-07 17:01:43:442
-0.3535,9.8164,0.7294,-0.2811,-0.0042,-0.4169,0.0634,0.0229,-0.065,32,2019-08-07 17:01:43:446
-0.2818,9.8116,0.5503,-0.2811,-0.0042,-0.4169,0.0634,0.0229,-0.065,38,2019-08-07 17:01:43:452
-0.2818,9.8116,0.5503,-0.2811,-0.0042,-0.4169,0.0656,0.041,-0.0682,43,2019-08-07 17:01:43:457
-0.2818,9.8116,0.5503,-0.2811,-0.0042,-0.4169,0.0656,0.041,-0.0682,48,2019-08-07 17:01:43:462
-0.4014,9.9071,0.1779,-0.2966,-0.1,0.0805,0.0485,0.0814,-0.0746,53,2019-08-07 17:01:43:467
-0.4014,9.9071,0.1779,-0.2966,-0.1,0.0805,0.0485,0.0814,-0.0746,58,2019-08-07 17:01:43:472
-0.4014,9.9071,0.1779,-0.2966,-0.1,0.0805,0.0368,0.1113,-0.081,63,2019-08-07 17:01:43:477
-0.6885,9.9262,0.5362,-0.2966,-0.1,0.0805,0.0368,0.1113,-0.081,67,2019-08-07 17:01:43:481
-0.6885,9.9262,0.5362,0.1566,-0.1294,-0.2999,0.0389,0.0772,-0.0682,73,2019-08-07 17:01:43:487
-0.6885,9.9262,0.5362,0.1566,-0.1294,-0.2999,0.0389,0.0772,-0.0682,77,2019-08-07 17:01:43:491
-0.8224,9.8832,0.5833,0.1566,-0.1294,-0.2999,0.0453,0.042,-0.0575,83,2019-08-07 17:01:43:497
-0.8224,9.8832,0.5833,0.1566,-0.1294,-0.2999,0.0453,0.042,-0.0575,87,2019-08-07 17:01:43:501
-0.9373,9.9357,0.7294,0.3239,-0.1492,-0.4616,0.0496,0.009,-0.0437,93,2019-08-07 17:01:43:507
-0.9373,9.9357,0.7294,0.3239,-0.1492,-0.4616,0.0496,0.009,-0.0437,98,2019-08-07 17:01:43:512
-0.9373,9.9357,0.7294,0.3239,-0.1492,-0.4616,0.0496,0.009,-0.0437,103,2019-08-07 17:01:43:517
-0.7698,9.9453,0.5644,0.3239,-0.1492,-0.4616,0.0602,-0.0485,-0.0298,107,2019-08-07 17:01:43:521
-0.7698,9.9453,0.5644,0.1193,-0.183,-0.177,0.0602,-0.0485,-0.0298,113,2019-08-07 17:01:43:527
-0.6885,9.8975,0.3523,0.1193,-0.183,-0.177,0.0517,-0.0315,-0.0234,117,2019-08-07 17:01:43:531
-0.6885,9.8975,0.3523,0.1193,-0.183,-0.177,0.0517,-0.0315,-0.0234,123,2019-08-07 17:01:43:537
-0.6885,9.8975,0.3523,0.1193,-0.183,-0.177,0.0379,-0.007,-0.0266,128,2019-08-07 17:01:43:542
-0.6646,9.9214,0.6069,0.0231,-0.1354,-0.3636,0.0379,-0.007,-0.0266,133,2019-08-07 17:01:43:547
-0.6646,9.9214,0.6069,0.0231,-0.1354,-0.3636,0.0475,-0.0389,-0.0171,137,2019-08-07 17:01:43:551
-0.6646,9.9214,0.6069,0.0231,-0.1354,-0.3636,0.0475,-0.0389,-0.0171,143,2019-08-07 17:01:43:557
-0.6646,9.8832,0.4654,0.0231,-0.1354,-0.3636,0.0453,-0.0336,-0.0213,147,2019-08-07 17:01:43:561
-0.6646,9.8832,0.4654,0.0096,-0.0544,-0.2145,0.0453,-0.0336,-0.0213,153,2019-08-07 17:01:43:567
-0.5593,9.8355,0.5361,0.0096,-0.0544,-0.2145,0.04,-0.0208,-0.0224,158,2019-08-07 17:01:43:572
-0.5593,9.8355,0.5361,0.0096,-0.0544,-0.2145,0.04,-0.0208,-0.0224,163,2019-08-07 17:01:43:577
-0.6311,9.9118,0.5833,0.0096,-0.0544,-0.2145,0.0432,-0.0283,-0.0224,168,2019-08-07 17:01:43:582
-0.6311,9.9118,0.5833,-0.0564,-0.1213,-0.3706,0.0432,-0.0283,-0.0224,173,2019-08-07 17:01:43:587
-0.6311,9.9118,0.5833,-0.0564,-0.1213,-0.3706,0.0432,-0.0283,-0.0224,178,2019-08-07 17:01:43:592
-0.6024,9.9023,0.5173,-0.0564,-0.1213,-0.3706,0.0496,-0.0357,-0.0213,183,2019-08-07 17:01:43:597
-0.6024,9.9023,0.5173,-0.0564,-0.1213,-0.3706,0.0496,-0.0357,-0.0213,188,2019-08-07 17:01:43:602
-0.5737,9.9835,0.4654,-0.0789,-0.1978,-0.2409,0.0496,-0.0304,-0.0245,193,2019-08-07 17:01:43:607
-0.5737,9.9835,0.4654,-0.0789,-0.1978,-0.2409,0.0496,-0.0304,-0.0245,198,2019-08-07 17:01:43:612
-0.5737,9.9835,0.4654,-0.0789,-0.1978,-0.2409,0.0528,-0.0389,-0.0277,202,2019-08-07 17:01:43:616
-0.5115,9.9166,0.5833,-0.0789,-0.1978,-0.2409,0.0528,-0.0389,-0.0277,208,2019-08-07 17:01:43:622
-0.5115,9.9166,0.5833,-0.0789,-0.1978,-0.2409,0.0528,-0.0389,-0.0277,213,2019-08-07 17:01:43:627
-0.5115,9.9166,0.5833,-0.1457,-0.112,-0.3942,0.0624,-0.0443,-0.0298,217,2019-08-07 17:01:43:631
-0.4733,9.9214,0.5691,-0.1457,-0.112,-0.3942,0.0624,-0.0443,-0.0298,223,2019-08-07 17:01:43:637
-0.4733,9.9214,0.5691,-0.1457,-0.112,-0.3942,0.0613,-0.0347,-0.0362,228,2019-08-07 17:01:43:642
-0.4494,9.9882,0.5361,-0.2124,-0.2028,-0.3282,0.0613,-0.0347,-0.0362,233,2019-08-07 17:01:43:647
-0.4494,9.9882,0.5361,-0.2124,-0.2028,-0.3282,0.0602,-0.0016,-0.0426,238,2019-08-07 17:01:43:652
-0.4494,9.9882,0.5361,-0.2124,-0.2028,-0.3282,0.0602,-0.0016,-0.0426,243,2019-08-07 17:01:43:657
-0.5211,9.8784,0.6163,-0.2124,-0.2028,-0.3282,0.0645,0.0186,-0.0437,248,2019-08-07 17:01:43:662
-0.5211,9.8784,0.6163,-0.1241,-0.079,-0.2671,0.0645,0.0186,-0.0437,253,2019-08-07 17:01:43:667
-0.5929,9.8832,0.3004,-0.1241,-0.079,-0.2671,0.0645,0.0186,-0.0437,257,2019-08-07 17:01:43:671
-0.5929,9.8832,0.3004,-0.1241,-0.079,-0.2671,0.0624,0.0474,-0.0511,263,2019-08-07 17:01:43:677
-0.5929,9.8832,0.3004,-0.1241,-0.079,-0.2671,0.0624,0.0474,-0.0511,268,2019-08-07 17:01:43:682
-0.7508,9.8212,0.5078,0.1005,-0.046,-0.3396,0.0539,0.0644,-0.0426,272,2019-08-07 17:01:43:686
-0.7508,9.8212,0.5078,0.1005,-0.046,-0.3396,0.0539,0.0644,-0.0426,278,2019-08-07 17:01:43:692
-0.8369,9.9548,0.6257,0.1005,-0.046,-0.3396,0.0539,0.0644,-0.0426,284,2019-08-07 17:01:43:698
-0.8369,9.9548,0.6257,0.1005,-0.046,-0.3396,0.0634,0.0324,-0.0416,288,2019-08-07 17:01:43:702
-0.8369,9.9548,0.6257,0.0962,-0.2279,-0.4243,0.0634,0.0324,-0.0416,293,2019-08-07 17:01:43:707
-0.6982,10.0407,0.522,0.0962,-0.2279,-0.4243,0.0741,-0.007,-0.033,297,2019-08-07 17:01:43:711
-0.6982,10.0407,0.522,0.0962,-0.2279,-0.4243,0.0741,-0.007,-0.033,303,2019-08-07 17:01:43:717
-0.6982,10.0407,0.522,0.0962,-0.2279,-0.4243,0.0773,-0.024,-0.0352,307,2019-08-07 17:01:43:721
-0.5403,9.9691,0.3429,-0.1872,-0.2615,-0.0789,0.0773,-0.024,-0.0352,313,2019-08-07 17:01:43:727
-0.5403,9.9691,0.3429,-0.1872,-0.2615,-0.0789,0.0592,0.0015,-0.0416,318,2019-08-07 17:01:43:732
-0.569,9.931,0.39,-0.1872,-0.2615,-0.0789,0.0592,0.0015,-0.0416,323,2019-08-07 17:01:43:737
-0.569,9.931,0.39,-0.1872,-0.2615,-0.0789,0.0507,0.0154,-0.0426,327,2019-08-07 17:01:43:741
-0.569,9.931,0.39,-0.0321,-0.0614,-0.3334,0.0507,0.0154,-0.0426,333,2019-08-07 17:01:43:747
-0.6934,9.8212,0.4654,-0.0321,-0.0614,-0.3334,0.056,-0.0016,-0.0426,338,2019-08-07 17:01:43:752
-0.6934,9.8212,0.4654,-0.0321,-0.0614,-0.3334,0.056,-0.0016,-0.0426,343,2019-08-07 17:01:43:757
-0.6934,9.8212,0.4654,-0.0321,-0.0614,-0.3334,0.0539,-0.0134,-0.0394,347,2019-08-07 17:01:43:761
-0.8322,9.931,0.3429,0.1268,-0.1955,-0.3187,0.0539,-0.0134,-0.0394,353,2019-08-07 17:01:43:767
-0.8322,9.931,0.3429,0.1268,-0.1955,-0.3187,0.0528,-0.0112,-0.0405,358,2019-08-07 17:01:43:772
-0.8178,9.9787,0.5738,0.1268,-0.1955,-0.3187,0.0528,-0.0112,-0.0405,362,2019-08-07 17:01:43:776
-0.8178,9.9787,0.5738,0.1268,-0.1955,-0.3187,0.0666,-0.0368,-0.0362,368,2019-08-07 17:01:43:782
-0.8178,9.9787,0.5738,0.1268,-0.1955,-0.3187,0.0666,-0.0368,-0.0362,372,2019-08-07 17:01:43:786
-0.7317,9.8307,0.5455,0.0136,-0.048,-0.4066,0.0741,-0.0624,-0.032,378,2019-08-07 17:01:43:792
-0.7317,9.8307,0.5455,0.0136,-0.048,-0.4066,0.0741,-0.0624,-0.032,383,2019-08-07 17:01:43:797
-0.7461,9.8403,0.2674,0.0136,-0.048,-0.4066,0.0688,-0.0293,-0.0352,388,2019-08-07 17:01:43:802
-0.7461,9.8403,0.2674,-0.0168,-0.1104,-0.324,0.0688,-0.0293,-0.0352,393,2019-08-07 17:01:43:807
-0.7796,9.8975,0.588,-0.0168,-0.1104,-0.324,0.0645,-0.0102,-0.0309,398,2019-08-07 17:01:43:812
-0.7796,9.8975,0.588,-0.0168,-0.1104,-0.324,0.0645,-0.0102,-0.0309,403,2019-08-07 17:01:43:817
-0.7796,9.8975,0.588,-0.0168,-0.1104,-0.324,0.0794,-0.0411,-0.0266,407,2019-08-07 17:01:43:821
-0.7509,9.8737,0.4418,-0.0168,-0.1104,-0.324,0.0794,-0.0411,-0.0266,413,2019-08-07 17:01:43:827
-0.7509,9.8737,0.4418,0.0112,-0.0963,-0.2927,0.0869,-0.057,-0.0277,418,2019-08-07 17:01:43:832
-0.7509,9.8737,0.4418,0.0112,-0.0963,-0.2927,0.0869,-0.057,-0.0277,423,2019-08-07 17:01:43:837
-0.7461,9.9262,0.4843,0.0112,-0.0963,-0.2927,0.0901,-0.0538,-0.0224,427,2019-08-07 17:01:43:841
-0.7461,9.9262,0.4843,0.0112,-0.0963,-0.2927,0.0901,-0.0538,-0.0224,433,2019-08-07 17:01:43:847
-0.66,9.9978,0.4654,-0.046,-0.2302,-0.4104,0.0933,-0.0506,-0.0245,437,2019-08-07 17:01:43:851
-0.66,9.9978,0.4654,-0.046,-0.2302,-0.4104,0.0933,-0.0506,-0.0245,443,2019-08-07 17:01:43:857
-0.66,9.9978,0.4654,-0.046,-0.2302,-0.4104,0.1029,-0.0421,-0.0224,448,2019-08-07 17:01:43:862
-0.6313,9.9023,0.4607,-0.046,-0.2302,-0.4104,0.1029,-0.0421,-0.0224,453,2019-08-07 17:01:43:867
-0.6313,9.9023,0.4607,-0.1696,-0.0871,-0.3937,0.1146,-0.0368,-0.0256,458,2019-08-07 17:01:43:872
-0.6935,9.8832,0.456,-0.1696,-0.0871,-0.3937,0.1146,-0.0368,-0.0256,463,2019-08-07 17:01:43:877
-0.6935,9.8832,0.456,-0.1696,-0.0871,-0.3937,0.1156,-0.0272,-0.0224,468,2019-08-07 17:01:43:882
-0.6935,9.8832,0.456,-0.1696,-0.0871,-0.3937,0.1156,-0.0272,-0.0224,472,2019-08-07 17:01:43:886
-0.7701,9.8498,0.5502,0.0268,-0.0682,-0.4835,0.1199,-0.0347,-0.0234,478,2019-08-07 17:01:43:892
-0.7701,9.8498,0.5502,0.0268,-0.0682,-0.4835,0.1199,-0.0347,-0.0234,483,2019-08-07 17:01:43:897
-0.7223,9.8737,0.5078,0.0268,-0.0682,-0.4835,0.1359,-0.072,-0.0213,487,2019-08-07 17:01:43:901
-0.7223,9.8737,0.5078,0.0268,-0.0682,-0.4835,0.1359,-0.072,-0.0213,493,2019-08-07 17:01:43:907
-0.7223,9.8737,0.5078,-0.0539,-0.078,-0.3397,0.1476,-0.0879,-0.0224,498,2019-08-07 17:01:43:912
-0.6505,9.8498,0.3617,-0.0539,-0.078,-0.3397,0.1476,-0.0879,-0.0224,502,2019-08-07 17:01:43:916
-0.6505,9.8498,0.3617,-0.0539,-0.078,-0.3397,0.1476,-0.0879,-0.0224,508,2019-08-07 17:01:43:922
-0.6505,9.8498,0.3617,-0.0539,-0.078,-0.3397,0.1444,-0.0773,-0.0192,513,2019-08-07 17:01:43:927
-0.4974,9.888,0.5031,-0.2526,-0.1163,-0.3451,0.1444,-0.0773,-0.0192,518,2019-08-07 17:01:43:932
-0.4974,9.888,0.5031,-0.2526,-0.1163,-0.3451,0.1561,-0.0538,-0.0181,522,2019-08-07 17:01:43:936
-0.4592,10.0121,0.0883,-0.2526,-0.1163,-0.3451,0.1561,-0.0538,-0.0181,528,2019-08-07 17:01:43:942
-0.4592,10.0121,0.0883,-0.2526,-0.1163,-0.3451,0.1401,-0.0208,-0.0213,533,2019-08-07 17:01:43:947
-0.4592,10.0121,0.0883,-0.1437,-0.2166,-0.0526,0.1401,-0.0208,-0.0213,538,2019-08-07 17:01:43:952
-0.7079,9.9883,0.1071,-0.1437,-0.2166,-0.0526,0.1263,0.025,-0.0256,543,2019-08-07 17:01:43:957
-0.7079,9.9883,0.1071,-0.1437,-0.2166,-0.0526,0.1263,0.025,-0.0256,548,2019-08-07 17:01:43:962
-0.7079,9.9883,0.1071,-0.1437,-0.2166,-0.0526,0.1263,0.025,-0.0256,552,2019-08-07 17:01:43:966
-0.8898,9.8164,0.5219,0.1333,-0.0356,-0.5518,0.1306,0.0079,-0.0224,558,2019-08-07 17:01:43:972
-0.8898,9.8164,0.5219,0.1333,-0.0356,-0.5518,0.1306,0.0079,-0.0224,562,2019-08-07 17:01:43:976
-0.8611,9.7925,0.3334,0.1333,-0.0356,-0.5518,0.1455,-0.0592,-0.0128,568,2019-08-07 17:01:43:982
-0.8611,9.7925,0.3334,0.1333,-0.0356,-0.5518,0.1455,-0.0592,-0.0128,573,2019-08-07 17:01:43:987
-0.8611,9.7925,0.3334,0.0677,-0.0933,-0.2092,0.1487,-0.0933,-0.0043,577,2019-08-07 17:01:43:991
-0.8467,9.9023,0.0836,0.0677,-0.0933,-0.2092,0.1487,-0.0933,-0.0043,583,2019-08-07 17:01:43:997
-0.8467,9.9023,0.0836,0.0677,-0.0933,-0.2092,0.1487,-0.0933,-0.0043,587,2019-08-07 17:01:44:001
-0.8467,9.9023,0.0836,0.0677,-0.0933,-0.2092,0.1348,-0.0741,0.0074,593,2019-08-07 17:01:44:007
-0.9089,9.8212,0.1213,0.1921,-0.0505,-0.2199,0.1348,-0.0741,0.0074,597,2019-08-07 17:01:44:011
-0.9089,9.8212,0.1213,0.1921,-0.0505,-0.2199,0.1252,-0.0645,0.0138,603,2019-08-07 17:01:44:017
-1.0572,9.9739,0.2438,0.1921,-0.0505,-0.2199,0.1252,-0.0645,0.0138,608,2019-08-07 17:01:44:022
-1.0572,9.9739,0.2438,0.1921,-0.0505,-0.2199,0.1306,-0.0879,0.0192,612,2019-08-07 17:01:44:026
-1.0572,9.9739,0.2438,0.2743,-0.213,-0.505,0.1306,-0.0879,0.0192,618,2019-08-07 17:01:44:032
-1.0525,10.0026,0.3098,0.2743,-0.213,-0.505,0.1444,-0.1444,0.0181,622,2019-08-07 17:01:44:036
-1.0525,10.0026,0.3098,0.2743,-0.213,-0.505,0.1444,-0.1444,0.0181,628,2019-08-07 17:01:44:042
-0.708,9.8785,0.0317,0.2743,-0.213,-0.505,0.1593,-0.1593,0.0266,633,2019-08-07 17:01:44:047
-0.708,9.8785,0.0317,-0.1716,-0.0125,-0.1305,0.1593,-0.1593,0.0266,638,2019-08-07 17:01:44:052
-0.708,9.8785,0.0317,-0.1716,-0.0125,-0.1305,0.154,-0.1582,0.016,643,2019-08-07 17:01:44:057
-0.5071,9.6875,0.126,-0.1716,-0.0125,-0.1305,0.154,-0.1582,0.016,648,2019-08-07 17:01:44:062
-0.5071,9.6875,0.126,-0.1716,-0.0125,-0.1305,0.1646,-0.1657,0.0117,653,2019-08-07 17:01:44:067
-0.5071,9.6875,0.126,-0.454,0.1069,-0.4911,0.1646,-0.1657,0.0117,657,2019-08-07 17:01:44:071
-0.2966,9.6732,0.3381,-0.454,0.1069,-0.4911,0.1646,-0.1657,0.0117,663,2019-08-07 17:01:44:077
-0.2966,9.6732,0.3381,-0.454,0.1069,-0.4911,0.1764,-0.1582,0.0181,668,2019-08-07 17:01:44:082
-0.22,9.6875,-0.0013,-0.454,0.1069,-0.4911,0.1764,-0.1582,0.0181,673,2019-08-07 17:01:44:087
-0.22,9.6875,-0.0013,-0.4285,-0.0077,-0.0497,0.1646,-0.0901,0.0064,677,2019-08-07 17:01:44:091
-0.22,9.6875,-0.0013,-0.4285,-0.0077,-0.0497,0.1646,-0.0901,0.0064,683,2019-08-07 17:01:44:097
-0.4975,9.7925,-0.2841,-0.4285,-0.0077,-0.0497,0.1401,-0.0102,-0.0021,687,2019-08-07 17:01:44:101
-0.4975,9.7925,-0.2841,-0.4285,-0.0077,-0.0497,0.1401,-0.0102,-0.0021,693,2019-08-07 17:01:44:107
-0.8611,9.8594,-0.1144,0.1173,-0.0799,-0.0963,0.1263,0.0442,-0.0171,698,2019-08-07 17:01:44:112
-0.8611,9.8594,-0.1144,0.1173,-0.0799,-0.0963,0.1263,0.0442,-0.0171,703,2019-08-07 17:01:44:117
-0.8611,9.8594,-0.1144,0.1173,-0.0799,-0.0963,0.1263,0.0442,-0.0171,708,2019-08-07 17:01:44:122
-0.9281,9.8021,-0.0202,0.1173,-0.0799,-0.0963,0.1327,0.0026,-0.0117,713,2019-08-07 17:01:44:127
-0.9281,9.8021,-0.0202,0.0508,-0.0951,0.0252,0.1327,0.0026,-0.0117,718,2019-08-07 17:01:44:132
-0.7846,9.9358,-0.3596,0.0508,-0.0951,0.0252,0.1242,-0.0751,-0.0181,723,2019-08-07 17:01:44:137
-0.7846,9.9358,-0.3596,0.0508,-0.0951,0.0252,0.1242,-0.0751,-0.0181,728,2019-08-07 17:01:44:142
-0.7846,9.9358,-0.3596,0.0508,-0.0951,0.0252,0.1199,-0.0858,-0.0234,732,2019-08-07 17:01:44:146
-0.6315,10.036,-0.0296,-0.1496,-0.244,-0.2612,0.1199,-0.0858,-0.0234,738,2019-08-07 17:01:44:152
-0.6315,10.036,-0.0296,-0.1496,-0.244,-0.2612,0.1188,-0.0783,-0.0288,743,2019-08-07 17:01:44:157
-0.4115,9.8451,-0.0626,-0.1496,-0.244,-0.2612,0.1188,-0.0783,-0.0288,748,2019-08-07 17:01:44:162
-0.4115,9.8451,-0.0626,-0.1496,-0.244,-0.2612,0.1188,-0.0783,-0.0288,752,2019-08-07 17:01:44:166
-0.4115,9.8451,-0.0626,-0.1496,-0.244,-0.2612,0.1135,-0.057,-0.0341,758,2019-08-07 17:01:44:172
-0.5072,9.8451,-0.4067,-0.3114,-0.0109,0.0431,0.1135,-0.057,-0.0341,762,2019-08-07 17:01:44:176
-0.5072,9.8451,-0.4067,-0.3114,-0.0109,0.0431,0.0901,-0.0102,-0.0426,768,2019-08-07 17:01:44:182
-0.5072,9.8451,-0.4067,-0.3114,-0.0109,0.0431,0.0901,-0.0102,-0.0426,772,2019-08-07 17:01:44:186
-0.6603,9.9596,-0.3124,-0.3114,-0.0109,0.0431,0.0645,0.0495,-0.0533,778,2019-08-07 17:01:44:192
-0.6603,9.9596,-0.3124,-0.0319,-0.2794,-0.1619,0.0645,0.0495,-0.0533,783,2019-08-07 17:01:44:197
-0.8038,10.141,0.2108,-0.0319,-0.2794,-0.1619,0.056,0.0442,-0.0629,787,2019-08-07 17:01:44:201
-0.8038,10.141,0.2108,-0.0319,-0.2794,-0.1619,0.056,0.0442,-0.0629,793,2019-08-07 17:01:44:207
-0.8038,10.141,0.2108,-0.0319,-0.2794,-0.1619,0.0837,-0.0048,-0.0586,797,2019-08-07 17:01:44:211
-0.6124,10.1458,0.0317,-0.1631,-0.3713,-0.3376,0.0986,-0.0315,-0.0671,803,2019-08-07 17:01:44:217
-0.6124,10.1458,0.0317,-0.1631,-0.3713,-0.3376,0.0986,-0.0315,-0.0671,808,2019-08-07 17:01:44:222
-0.4737,10.0503,-0.1192,-0.1631,-0.3713,-0.3376,0.0986,-0.0315,-0.0671,812,2019-08-07 17:01:44:226
-0.4737,10.0503,-0.1192,-0.1631,-0.3713,-0.3376,0.0954,0.0015,-0.0725,818,2019-08-07 17:01:44:232
-0.4737,10.0503,-0.1192,-0.337,-0.1436,-0.2178,0.0954,0.0015,-0.0725,822,2019-08-07 17:01:44:236
-0.4402,9.9405,-0.2135,-0.337,-0.1436,-0.2178,0.0858,0.0484,-0.0714,828,2019-08-07 17:01:44:242
-0.4402,9.9405,-0.2135,-0.337,-0.1436,-0.2178,0.0858,0.0484,-0.0714,833,2019-08-07 17:01:44:247
-0.5771,9.8401,-0.2696,-0.337,-0.1436,-0.2178,0.072,0.1091,-0.0788,838,2019-08-07 17:01:44:252
-0.5771,9.8401,-0.2696,-0.1117,-0.102,-0.1258,0.072,0.1091,-0.0788,843,2019-08-07 17:01:44:257
-0.5771,9.8401,-0.2696,-0.1117,-0.102,-0.1258,0.0581,0.1368,-0.0724,848,2019-08-07 17:01:44:262
-0.9263,9.8687,-0.1942,-0.1117,-0.102,-0.1258,0.0581,0.1368,-0.0724,853,2019-08-07 17:01:44:267
-0.9263,9.8687,-0.1942,-0.1117,-0.102,-0.1258,0.0581,0.1368,-0.0724,857,2019-08-07 17:01:44:271
-1.0268,9.8735,-0.1942,0.2088,-0.1084,-0.1479,0.0517,0.1368,-0.0671,863,2019-08-07 17:01:44:277
-1.0268,9.8735,-0.1942,0.2088,-0.1084,-0.1479,0.0517,0.1368,-0.0671,868,2019-08-07 17:01:44:282
-1.0268,9.8735,-0.1942,0.2088,-0.1084,-0.1479,0.0538,0.0964,-0.0607,873,2019-08-07 17:01:44:287
-1.0603,9.8449,-0.0622,0.2088,-0.1084,-0.1479,0.0538,0.0964,-0.0607,878,2019-08-07 17:01:44:292
-1.0603,9.8449,-0.0622,0.2097,-0.0526,-0.2293,0.0624,0.0559,-0.049,883,2019-08-07 17:01:44:297
-1.0603,9.8449,-0.0622,0.2097,-0.0526,-0.2293,0.0624,0.0559,-0.049,887,2019-08-07 17:01:44:301
-0.9072,9.8162,-0.1235,0.1089,-0.0485,-0.268,0.0666,0.0346,-0.0479,893,2019-08-07 17:01:44:307
-0.9072,9.8162,-0.1235,0.1089,-0.0485,-0.268,0.0666,0.0346,-0.0479,898,2019-08-07 17:01:44:312
-0.845,9.9022,-0.0669,0.1089,-0.0485,-0.268,0.0656,0.0324,-0.0426,903,2019-08-07 17:01:44:317
-0.845,9.9022,-0.0669,0.1089,-0.0485,-0.268,0.0656,0.0324,-0.0426,908,2019-08-07 17:01:44:322
-0.7206,9.926,-0.0292,-0.1192,-0.1594,-0.3497,0.0645,0.0388,-0.0437,912,2019-08-07 17:01:44:326
-0.7206,9.926,-0.0292,-0.1192,-0.1594,-0.3497,0.0645,0.0388,-0.0437,918,2019-08-07 17:01:44:332
-0.7206,9.926,-0.0292,-0.1192,-0.1594,-0.3497,0.0698,0.0505,-0.0447,923,2019-08-07 17:01:44:337
-0.7779,9.9403,-0.0999,-0.1192,-0.1594,-0.3497,0.0698,0.0505,-0.0447,928,2019-08-07 17:01:44:342
-0.7779,9.9403,-0.0999,-0.0265,-0.1892,-0.225,0.0698,0.0505,-0.0447,933,2019-08-07 17:01:44:347
-0.8545,10.0119,-0.1848,-0.0265,-0.1892,-0.225,0.0709,0.0591,-0.0458,939,2019-08-07 17:01:44:353
-0.8545,10.0119,-0.1848,-0.0265,-0.1892,-0.225,0.0677,0.0452,-0.0437,943,2019-08-07 17:01:44:357
-0.8545,10.0119,-0.1848,-0.0265,-0.1892,-0.225,0.0677,0.0452,-0.0437,948,2019-08-07 17:01:44:362
-0.8975,9.9451,-0.0858,0.0414,-0.1809,-0.3177,0.0677,0.0452,-0.0437,952,2019-08-07 17:01:44:366
-0.8975,9.9451,-0.0858,0.0414,-0.1809,-0.3177,0.0805,0.0143,-0.0458,958,2019-08-07 17:01:44:372
-0.8975,9.9451,-0.0858,0.0414,-0.1809,-0.3177,0.0805,0.0143,-0.0458,963,2019-08-07 17:01:44:377
-0.9023,9.8305,-0.1329,0.0414,-0.1809,-0.3177,0.0911,-0.0187,-0.0384,967,2019-08-07 17:01:44:381
-0.9023,9.8305,-0.1329,0.038,-0.0247,-0.1815,0.0911,-0.0187,-0.0384,973,2019-08-07 17:01:44:387
-0.8736,9.7971,-0.1565,0.038,-0.0247,-0.1815,0.089,-0.0325,-0.0266,977,2019-08-07 17:01:44:391
-0.8736,9.7971,-0.1565,0.038,-0.0247,-0.1815,0.089,-0.0325,-0.0266,983,2019-08-07 17:01:44:397
-0.8736,9.7971,-0.1565,0.038,-0.0247,-0.1815,0.089,-0.0102,-0.0224,988,2019-08-07 17:01:44:402
-0.8544,9.8305,-0.1895,-0.0055,-0.0688,-0.2486,0.089,-0.0102,-0.0224,993,2019-08-07 17:01:44:407
-0.8544,9.8305,-0.1895,-0.0055,-0.0688,-0.2486,0.089,0.0079,-0.0266,998,2019-08-07 17:01:44:412
-0.8544,9.7637,-0.1706,-0.0055,-0.0688,-0.2486,0.089,0.0079,-0.0266,1002,2019-08-07 17:01:44:416
-0.8544,9.7637,-0.1706,-0.0055,-0.0688,-0.2486,0.089,0.0079,-0.0266,1008,2019-08-07 17:01:44:422
-0.8544,9.7637,-0.1706,-0.0628,-0.0174,-0.1466,0.089,0.0218,-0.0256,1013,2019-08-07 17:01:44:427
-0.7922,9.8019,-0.3544,-0.0628,-0.0174,-0.1466,0.089,0.0218,-0.0256,1018,2019-08-07 17:01:44:432
-0.7922,9.8019,-0.3544,-0.0628,-0.0174,-0.1466,0.0805,0.0495,-0.0277,1023,2019-08-07 17:01:44:437
-0.7874,9.883,-0.4063,-0.0628,-0.0174,-0.1466,0.0805,0.0495,-0.0277,1028,2019-08-07 17:01:44:442
-0.7874,9.883,-0.4063,-0.0579,-0.2859,0.0255,0.0688,0.0825,-0.0341,1032,2019-08-07 17:01:44:446
-0.7874,9.883,-0.4063,-0.0579,-0.2859,0.0255,0.0688,0.0825,-0.0341,1038,2019-08-07 17:01:44:452
-0.8209,10.0645,-0.444,-0.0579,-0.2859,0.0255,0.057,0.0889,-0.0352,1042,2019-08-07 17:01:44:456
-0.8209,10.0645,-0.444,-0.0579,-0.2859,0.0255,0.057,0.0889,-0.0352,1048,2019-08-07 17:01:44:462
-0.8687,10.0358,-0.3921,-0.016,-0.2775,-0.0862,0.0528,0.0516,-0.0373,1053,2019-08-07 17:01:44:467
-0.8687,10.0358,-0.3921,-0.016,-0.2775,-0.0862,0.0528,0.0516,-0.0373,1058,2019-08-07 17:01:44:472
-0.8687,10.0358,-0.3921,-0.016,-0.2775,-0.0862,0.0485,0.0047,-0.0352,1063,2019-08-07 17:01:44:477
-0.9213,9.9785,-0.3827,-0.016,-0.2775,-0.0862,0.0485,0.0047,-0.0352,1067,2019-08-07 17:01:44:481
-0.9213,9.9785,-0.3827,-0.0415,-0.2069,-0.1328,0.0443,-0.0347,-0.0341,1073,2019-08-07 17:01:44:487
-0.8065,9.9117,-0.3167,-0.0415,-0.2069,-0.1328,0.0443,-0.0347,-0.0341,1078,2019-08-07 17:01:44:492
-0.8065,9.9117,-0.3167,-0.0415,-0.2069,-0.1328,0.0389,-0.0592,-0.0277,1083,2019-08-07 17:01:44:497
-0.8065,9.9117,-0.3167,-0.0415,-0.2069,-0.1328,0.0389,-0.0592,-0.0277,1088,2019-08-07 17:01:44:502
-0.7491,9.9785,-0.3733,-0.0415,-0.2069,-0.1328,0.0347,-0.0613,-0.0341,1093,2019-08-07 17:01:44:507
-0.7491,9.9785,-0.3733,-0.1428,-0.1695,-0.0772,0.0347,-0.0613,-0.0341,1098,2019-08-07 17:01:44:512
-0.7491,9.9785,-0.3733,-0.1428,-0.1695,-0.0772,0.0347,-0.0613,-0.0341,1103,2019-08-07 17:01:44:517
-0.749,9.9021,-0.378,-0.1428,-0.1695,-0.0772,0.023,-0.023,-0.0373,1108,2019-08-07 17:01:44:522
-0.749,9.9021,-0.378,-0.1428,-0.1695,-0.0772,0.023,-0.023,-0.0373,1113,2019-08-07 17:01:44:527
-0.8447,9.9308,-0.3874,-0.0441,-0.2323,-0.0847,0.0059,0.0101,-0.0437,1117,2019-08-07 17:01:44:531
-0.8447,9.9308,-0.3874,-0.0441,-0.2323,-0.0847,0.0059,0.0101,-0.0437,1123,2019-08-07 17:01:44:537
-0.8447,9.9308,-0.3874,-0.0441,-0.2323,-0.0847,0.0059,0.0218,-0.0426,1128,2019-08-07 17:01:44:542
-0.9882,9.883,-0.3827,-0.0441,-0.2323,-0.0847,0.0059,0.0218,-0.0426,1133,2019-08-07 17:01:44:547
-0.9882,9.883,-0.3827,0.1147,-0.1186,-0.1467,0.0016,0.026,-0.0394,1138,2019-08-07 17:01:44:552
-1.0504,9.8305,-0.3214,0.1147,-0.1186,-0.1467,0.0016,0.026,-0.0394,1143,2019-08-07 17:01:44:557
-1.0504,9.8305,-0.3214,0.1147,-0.1186,-0.1467,-5.0E-4,0.0101,-0.0373,1148,2019-08-07 17:01:44:562
-1.0504,9.8305,-0.3214,0.1147,-0.1186,-0.1467,-5.0E-4,0.0101,-0.0373,1153,2019-08-07 17:01:44:567
-1.0169,9.8639,-0.2884,0.0967,-0.1098,-0.207,-5.0E-4,0.0101,-0.0373,1158,2019-08-07 17:01:44:572
-1.0169,9.8639,-0.2884,0.0967,-0.1098,-0.207,-0.0015,-0.0176,-0.0298,1163,2019-08-07 17:01:44:577
-0.8925,9.8974,-0.3497,0.0967,-0.1098,-0.207,-0.0015,-0.0176,-0.0298,1168,2019-08-07 17:01:44:582
-0.8925,9.8974,-0.3497,0.0967,-0.1098,-0.207,-0.0015,-0.0432,-0.032,1173,2019-08-07 17:01:44:587
-0.8925,9.8974,-0.3497,-0.0961,-0.1627,-0.1154,-0.0015,-0.0432,-0.032,1178,2019-08-07 17:01:44:592
-0.8303,9.9117,-0.3214,-0.0961,-0.1627,-0.1154,-0.0047,-0.0464,-0.033,1183,2019-08-07 17:01:44:597
-0.8303,9.9117,-0.3214,-0.0961,-0.1627,-0.1154,-0.0047,-0.0464,-0.033,1188,2019-08-07 17:01:44:602
-0.8303,9.9117,-0.3214,-0.0961,-0.1627,-0.1154,-0.0047,-0.0464,-0.033,1192,2019-08-07 17:01:44:606
-0.7633,9.8639,-0.4392,-0.1687,-0.1106,-0.051,-0.0069,-0.0507,-0.0309,1199,2019-08-07 17:01:44:613
-0.7633,9.8639,-0.4392,-0.1687,-0.1106,-0.051,-0.0069,-0.0507,-0.0309,1203,2019-08-07 17:01:44:617
-0.7633,9.8639,-0.4392,-0.1687,-0.1106,-0.051,-0.0154,-0.0304,-0.0373,1208,2019-08-07 17:01:44:622
-0.8685,9.9117,-0.4864,-0.1687,-0.1106,-0.051,-0.0154,-0.0304,-0.0373,1213,2019-08-07 17:01:44:627
-0.8685,9.9117,-0.4864,-0.1034,-0.1206,-0.1081,-0.026,-0.007,-0.0447,1219,2019-08-07 17:01:44:633
-0.8494,9.8401,-0.2837,-0.1034,-0.1206,-0.1081,-0.026,-0.007,-0.0447,1223,2019-08-07 17:01:44:637
-0.8494,9.8401,-0.2837,-0.1034,-0.1206,-0.1081,-0.026,-0.0208,-0.0426,1228,2019-08-07 17:01:44:642
-0.8494,9.8401,-0.2837,-0.1034,-0.1206,-0.1081,-0.026,-0.0208,-0.0426,1233,2019-08-07 17:01:44:647
-0.9355,9.8782,-0.3402,-0.0112,-0.1258,-0.1389,-0.0303,-0.0336,-0.0394,1238,2019-08-07 17:01:44:652
-0.9355,9.8782,-0.3402,-0.0112,-0.1258,-0.1389,-0.0303,-0.0336,-0.0394,1243,2019-08-07 17:01:44:657
-0.9355,9.8782,-0.3402,-0.0112,-0.1258,-0.1389,-0.0314,-0.0304,-0.0394,1248,2019-08-07 17:01:44:662
-0.9785,9.8592,-0.3449,-0.0112,-0.1258,-0.1389,-0.0314,-0.0304,-0.0394,1253,2019-08-07 17:01:44:667
-0.9785,9.8592,-0.3449,0.019,-0.0785,-0.1499,-0.0314,-0.0304,-0.0394,1258,2019-08-07 17:01:44:672
-0.9833,9.7637,-0.3261,0.019,-0.0785,-0.1499,-0.0356,-0.0325,-0.0352,1263,2019-08-07 17:01:44:677
-0.9833,9.7637,-0.3261,0.019,-0.0785,-0.1499,-0.0356,-0.0325,-0.0352,1268,2019-08-07 17:01:44:682
-0.9833,9.8019,-0.2931,0.019,-0.0785,-0.1499,-0.0463,-0.0368,-0.0341,1273,2019-08-07 17:01:44:687
-1.0168,9.8019,-0.2931,0.0112,-0.0262,-0.1353,-0.0463,-0.0368,-0.0341,1278,2019-08-07 17:01:44:692
-1.0168,9.8019,-0.2931,0.0112,-0.0262,-0.1353,-0.0463,-0.024,-0.0341,1283,2019-08-07 17:01:44:697
-1.0598,9.8401,-0.2742,0.0112,-0.0262,-0.1353,-0.0463,-0.024,-0.0341,1288,2019-08-07 17:01:44:702
-1.0598,9.8401,-0.2742,0.0112,-0.0262,-0.1353,-0.0484,-0.0262,-0.032,1293,2019-08-07 17:01:44:707
-0.945,9.821,-0.1375,-0.0247,-0.0694,-0.3122,-0.0484,-0.0262,-0.032,1299,2019-08-07 17:01:44:713
-0.945,9.821,-0.1375,-0.0247,-0.0694,-0.3122,-0.0484,-0.0262,-0.032,1303,2019-08-07 17:01:44:717
-0.945,9.821,-0.1375,-0.0247,-0.0694,-0.3122,-0.0378,-0.0357,-0.0352,1308,2019-08-07 17:01:44:722
-0.945,9.821,-0.1375,-0.0247,-0.0694,-0.3122,-0.0378,-0.0357,-0.0352,1313,2019-08-07 17:01:44:727
-0.8923,9.8544,-0.0621,-0.1312,-0.1411,-0.3157,-0.0346,-0.0325,-0.033,1318,2019-08-07 17:01:44:732
-0.8923,9.8544,-0.0621,-0.1312,-0.1411,-0.3157,-0.0346,-0.0325,-0.033,1323,2019-08-07 17:01:44:737
-0.8397,9.9021,-0.2601,-0.1312,-0.1411,-0.3157,-0.0367,-0.008,-0.0256,1328,2019-08-07 17:01:44:742
-0.8397,9.9021,-0.2601,-0.1312,-0.1411,-0.3157,-0.0367,-0.008,-0.0256,1334,2019-08-07 17:01:44:748
-0.8397,9.9021,-0.2601,0.0219,-0.165,-0.2739,-0.0378,0.0165,-0.0309,1338,2019-08-07 17:01:44:752
-1.0119,9.9117,-0.0904,0.0219,-0.165,-0.2739,-0.0378,0.0165,-0.0309,1343,2019-08-07 17:01:44:757
-1.0119,9.9117,-0.0904,0.0219,-0.165,-0.2739,-0.0378,0.0165,-0.0309,1348,2019-08-07 17:01:44:762
-0.9497,9.8591,0.0039,0.0219,-0.165,-0.2739,-0.026,-0.007,-0.0298,1353,2019-08-07 17:01:44:767
-0.9497,9.8591,0.0039,-0.0077,-0.1509,-0.2606,-0.026,-0.007,-0.0298,1358,2019-08-07 17:01:44:772
-0.9497,9.8591,0.0039,-0.0077,-0.1509,-0.2606,-0.0154,-0.0411,-0.0256,1363,2019-08-07 17:01:44:777
-0.9018,9.9212,-0.2836,-0.0077,-0.1509,-0.2606,-0.0154,-0.0411,-0.0256,1368,2019-08-07 17:01:44:782
-0.9018,9.9212,-0.2836,-0.0077,-0.1509,-0.2606,-0.0122,-0.0166,-0.0266,1373,2019-08-07 17:01:44:787
-0.9257,9.7923,-0.2365,-0.0649,-0.0414,-0.1809,-0.0122,-0.0166,-0.0266,1378,2019-08-07 17:01:44:792
-0.9257,9.7923,-0.2365,-0.0649,-0.0414,-0.1809,-0.0111,-0.0038,-0.0245,1382,2019-08-07 17:01:44:796
-0.9257,9.7923,-0.2365,-0.0649,-0.0414,-0.1809,-0.0111,-0.0038,-0.0245,1388,2019-08-07 17:01:44:802
-0.9066,9.7255,-0.0527,-0.0649,-0.0414,-0.1809,-0.0069,-0.0134,-0.0266,1393,2019-08-07 17:01:44:807
-0.9066,9.7255,-0.0527,-0.0266,0.0108,-0.3745,-0.0069,-0.0134,-0.0266,1398,2019-08-07 17:01:44:812
-0.9066,9.7255,-0.0527,-0.0266,0.0108,-0.3745,0.0048,-0.0112,-0.0234,1403,2019-08-07 17:01:44:817
-0.9161,9.7637,-0.1658,-0.0266,0.0108,-0.3745,0.0048,-0.0112,-0.0234,1408,2019-08-07 17:01:44:822
-0.9161,9.7637,-0.1658,-0.1005,-0.0323,-0.1664,0.0048,-0.0112,-0.0234,1413,2019-08-07 17:01:44:827
-0.9161,9.7637,-0.1658,-0.1005,-0.0323,-0.1664,0.0059,0.0218,-0.0309,1417,2019-08-07 17:01:44:831
-0.9688,9.778,-0.1846,-0.1005,-0.0323,-0.1664,0.0059,0.0218,-0.0309,1423,2019-08-07 17:01:44:837
-0.9688,9.778,-0.1846,-0.1005,-0.0323,-0.1664,0.008,0.0356,-0.0288,1428,2019-08-07 17:01:44:842
-0.9735,9.8544,-0.0668,-0.029,-0.1044,-0.3448,0.008,0.0356,-0.0288,1433,2019-08-07 17:01:44:847
-0.9735,9.8544,-0.0668,-0.029,-0.1044,-0.3448,0.0198,0.0218,-0.0277,1439,2019-08-07 17:01:44:853
-0.9113,9.8735,-0.1281,-0.029,-0.1044,-0.3448,0.0198,0.0218,-0.0277,1443,2019-08-07 17:01:44:857
-0.9113,9.8735,-0.1281,-0.029,-0.1044,-0.3448,0.0198,0.0218,-0.0277,1448,2019-08-07 17:01:44:862
-0.9113,9.8735,-0.1281,-0.0956,-0.167,-0.2758,0.0272,0.0165,-0.0277,1453,2019-08-07 17:01:44:867
-0.9209,9.883,-0.2035,-0.0956,-0.167,-0.2758,0.0272,0.0165,-0.0277,1458,2019-08-07 17:01:44:872
-0.9209,9.883,-0.2035,-0.0956,-0.167,-0.2758,0.0293,0.0228,-0.0224,1463,2019-08-07 17:01:44:877
-0.9161,9.8639,-0.1422,-0.0515,-0.1914,-0.1481,0.0293,0.0228,-0.0224,1469,2019-08-07 17:01:44:883
-0.9161,9.8639,-0.1422,-0.0515,-0.1914,-0.1481,0.0283,0.0207,-0.0245,1472,2019-08-07 17:01:44:886
-0.9161,9.8639,-0.1422,-0.0515,-0.1914,-0.1481,0.0283,0.0207,-0.0245,1478,2019-08-07 17:01:44:892
-0.9783,9.8782,-0.1893,-0.0515,-0.1914,-0.1481,0.0325,0.0175,-0.0234,1483,2019-08-07 17:01:44:897
-0.9783,9.8782,-0.1893,-0.0515,-0.1914,-0.1481,0.0325,0.0175,-0.0234,1488,2019-08-07 17:01:44:902
-0.983,9.8687,-0.0762,0.0013,-0.0775,-0.3838,0.0368,0.0069,-0.0213,1494,2019-08-07 17:01:44:908
-0.983,9.8687,-0.0762,0.0013,-0.0775,-0.3838,0.0368,0.0069,-0.0213,1498,2019-08-07 17:01:44:912
-0.983,9.8687,-0.0762,0.0013,-0.0775,-0.3838,0.0453,-0.008,-0.0213,1504,2019-08-07 17:01:44:918
-0.9352,9.8496,-0.2082,0.0013,-0.0775,-0.3838,0.0453,-0.008,-0.0213,1508,2019-08-07 17:01:44:922
-0.9352,9.8496,-0.2082,-0.0553,-0.0734,-0.0835,0.0453,-0.008,-0.0213,1514,2019-08-07 17:01:44:928
-0.983,9.8162,-0.4203,-0.0553,-0.0734,-0.0835,0.0432,0.0037,-0.0266,1518,2019-08-07 17:01:44:932
-0.983,9.8162,-0.4203,-0.0553,-0.0734,-0.0835,0.0432,0.0037,-0.0266,1523,2019-08-07 17:01:44:937
-0.983,9.8162,-0.4203,-0.0553,-0.0734,-0.0835,0.0368,0.0324,-0.0277,1528,2019-08-07 17:01:44:942
-1.0117,9.8305,-0.3213,-0.0123,-0.0838,-0.1147,0.0368,0.0324,-0.0277,1533,2019-08-07 17:01:44:947
-1.0117,9.8305,-0.3213,-0.0123,-0.0838,-0.1147,0.0325,0.0271,-0.0256,1539,2019-08-07 17:01:44:953
-1.0117,9.8305,-0.3213,-0.0123,-0.0838,-0.1147,0.0325,0.0271,-0.0256,1543,2019-08-07 17:01:44:957
-1.0021,9.926,-0.2789,-0.0123,-0.0838,-0.1147,0.0325,-0.0038,-0.0288,1548,2019-08-07 17:01:44:962
-1.0021,9.926,-0.2789,-0.0941,-0.2087,-0.1719,0.0325,-0.0038,-0.0288,1553,2019-08-07 17:01:44:967
-1.0021,9.926,-0.2789,-0.0941,-0.2087,-0.1719,0.0325,-0.0038,-0.0288,1558,2019-08-07 17:01:44:972
-0.9255,9.9976,-0.3967,-0.0917,-0.233,0.0466,0.0325,-0.0038,-0.0288,1563,2019-08-07 17:01:44:977
-0.9255,9.9976,-0.3967,-0.0917,-0.233,0.0466,0.0261,0.0101,-0.032,1568,2019-08-07 17:01:44:982
-1.0116,9.8925,-0.359,-0.0917,-0.233,0.0466,0.0261,0.0101,-0.032,1573,2019-08-07 17:01:44:987
-1.0116,9.8925,-0.359,-0.0917,-0.233,0.0466,0.0166,0.0228,-0.033,1578,2019-08-07 17:01:44:992
-1.0116,9.8925,-0.359,0.008,-0.186,-0.2355,0.0166,0.0228,-0.033,1583,2019-08-07 17:01:44:997
-1.0499,9.8639,-0.2317,0.008,-0.186,-0.2355,0.0198,0.0079,-0.032,1588,2019-08-07 17:01:45:002
-1.0499,9.8639,-0.2317,0.008,-0.186,-0.2355,0.0198,0.0079,-0.032,1593,2019-08-07 17:01:45:007
-1.0929,9.8734,-0.2836,0.008,-0.186,-0.2355,0.0198,-0.0038,-0.0288,1598,2019-08-07 17:01:45:012
-1.0929,9.8734,-0.2836,0.0497,-0.139,-0.2047,0.0198,-0.0038,-0.0288,1603,2019-08-07 17:01:45:017
-1.0929,9.8734,-0.2836,0.0497,-0.139,-0.2047,0.0198,-0.0038,-0.0288,1608,2019-08-07 17:01:45:022
-1.0116,9.8878,-0.2506,-0.0488,-0.1203,-0.1636,0.0208,0.0047,-0.0298,1613,2019-08-07 17:01:45:027
-1.0116,9.8878,-0.2506,-0.0488,-0.1203,-0.1636,0.0208,0.0047,-0.0298,1619,2019-08-07 17:01:45:033
-1.0116,9.8878,-0.2506,-0.0488,-0.1203,-0.1636,0.023,0.0079,-0.032,1623,2019-08-07 17:01:45:037
-1.002,9.8209,-0.2553,-0.0488,-0.1203,-0.1636,0.023,0.0079,-0.032,1627,2019-08-07 17:01:45:041
-1.002,9.8209,-0.2553,0.0272,-0.0876,-0.3175,0.024,0.0186,-0.033,1633,2019-08-07 17:01:45:047
-1.0259,9.8257,-0.1893,0.0272,-0.0876,-0.3175,0.024,0.0186,-0.033,1638,2019-08-07 17:01:45:052
-1.0259,9.8257,-0.1893,0.0272,-0.0876,-0.3175,0.024,0.0186,-0.033,1643,2019-08-07 17:01:45:057
-1.0068,9.9259,-0.2459,-0.0426,-0.0927,-0.3147,0.0336,0.0303,-0.0288,1648,2019-08-07 17:01:45:062
-1.0068,9.9259,-0.2459,-0.0426,-0.0927,-0.3147,0.0411,0.0431,-0.032,1653,2019-08-07 17:01:45:067
-1.0068,9.9259,-0.2459,-0.0426,-0.0927,-0.3147,0.0411,0.0431,-0.032,1657,2019-08-07 17:01:45:071
-1.002,9.9403,-0.26,-0.0572,-0.1986,-0.2039,0.0411,0.0431,-0.032,1663,2019-08-07 17:01:45:077
-1.002,9.9403,-0.26,-0.0572,-0.1986,-0.2039,0.0538,0.0473,-0.0288,1668,2019-08-07 17:01:45:082
-1.002,9.9403,-0.26,-0.0572,-0.1986,-0.2039,0.0538,0.0473,-0.0288,1672,2019-08-07 17:01:45:086
-1.1407,10.0644,-0.3448,-0.0572,-0.1986,-0.2039,0.057,0.0442,-0.0245,1678,2019-08-07 17:01:45:092
-1.1407,10.0644,-0.3448,0.1767,-0.1663,-0.2101,0.057,0.0442,-0.0245,1684,2019-08-07 17:01:45:098
-1.1407,10.0644,-0.3448,0.1767,-0.1663,-0.2101,0.0698,0.0378,-0.0234,1688,2019-08-07 17:01:45:102
-1.1168,9.7684,-0.128,0.1767,-0.1663,-0.2101,0.0698,0.0378,-0.0234,1693,2019-08-07 17:01:45:107
-1.1168,9.7684,-0.128,0.1767,-0.1663,-0.2101,0.0751,-0.0166,-0.0288,1698,2019-08-07 17:01:45:112
-0.9828,9.7254,-0.0243,-0.0868,0.014,-0.4615,0.0751,-0.0166,-0.0288,1703,2019-08-07 17:01:45:117
-0.9828,9.7254,-0.0243,-0.0868,0.014,-0.4615,0.0751,-0.0166,-0.0288,1708,2019-08-07 17:01:45:122
-0.9828,9.7254,-0.0243,-0.0868,0.014,-0.4615,0.0943,-0.0421,-0.033,1713,2019-08-07 17:01:45:127
-0.7005,9.8925,-0.128,-0.0868,0.014,-0.4615,0.0943,-0.0421,-0.033,1718,2019-08-07 17:01:45:132
-0.7005,9.8925,-0.128,-0.4411,-0.3215,-0.4813,0.1199,-0.0091,-0.0522,1723,2019-08-07 17:01:45:137
-0.6,10.2028,0.1077,-0.4411,-0.3215,-0.4813,0.1199,-0.0091,-0.0522,1728,2019-08-07 17:01:45:142
-0.6,10.2028,0.1077,-0.4411,-0.3215,-0.4813,0.1199,-0.0091,-0.0522,1732,2019-08-07 17:01:45:146
-0.6,10.2028,0.1077,-0.4411,-0.3215,-0.4813,0.1582,0.0197,-0.066,1739,2019-08-07 17:01:45:153
-0.7531,10.2267,0.5696,-0.4411,-0.3215,-0.4813,0.1582,0.0197,-0.066,1743,2019-08-07 17:01:45:157
-0.7531,10.2267,0.5696,-0.3109,-0.4813,-1.1606,0.2296,0.0324,-0.0756,1748,2019-08-07 17:01:45:162
-0.7722,9.988,0.909,-0.3109,-0.4813,-1.1606,0.2296,0.0324,-0.0756,1753,2019-08-07 17:01:45:167
-0.7722,9.988,0.909,-0.3109,-0.4813,-1.1606,0.2296,0.0324,-0.0756,1757,2019-08-07 17:01:45:171
-0.7722,9.988,0.909,-0.2858,-0.0651,-1.6995,0.3202,0.0665,-0.0874,1763,2019-08-07 17:01:45:177
-0.777,9.8257,1.2484,-0.2858,-0.0651,-1.6995,0.3202,0.0665,-0.0874,1768,2019-08-07 17:01:45:182
-0.777,9.8257,1.2484,-0.2858,-0.0651,-1.6995,0.4171,0.1145,-0.1001,1773,2019-08-07 17:01:45:187
-0.4851,10.3985,1.8094,-0.2858,-0.0651,-1.6995,0.4171,0.1145,-0.1001,1778,2019-08-07 17:01:45:192
-0.4851,10.3985,1.8094,-0.7458,-0.8542,-2.7421,0.5396,0.1358,-0.1236,1782,2019-08-07 17:01:45:196
-0.4851,10.3985,1.8094,-0.7458,-0.8542,-2.7421,0.5396,0.1358,-0.1236,1788,2019-08-07 17:01:45:202
-0.0928,10.9141,2.441,-0.7458,-0.8542,-2.7421,0.6845,0.172,-0.1587,1793,2019-08-07 17:01:45:207
-0.0928,10.9141,2.441,-1.1619,-1.3172,-3.2664,0.6845,0.172,-0.1587,1798,2019-08-07 17:01:45:212
0.1512,11.8689,3.0727,-1.1619,-1.3172,-3.2664,0.6845,0.172,-0.1587,1803,2019-08-07 17:01:45:217
0.1512,11.8689,3.0727,-1.1619,-1.3172,-3.2664,0.8901,0.2753,-0.2205,1808,2019-08-07 17:01:45:222
0.1512,11.8689,3.0727,-1.1619,-1.3172,-3.2664,0.8901,0.2753,-0.2205,1812,2019-08-07 17:01:45:226
0.5292,13.4108,4.0909,-1.5631,-3.3661,-4.6343,1.069,0.3648,-0.2674,1818,2019-08-07 17:01:45:232
0.5292,13.4108,4.0909,-1.5631,-3.3661,-4.6343,1.069,0.3648,-0.2674,1822,2019-08-07 17:01:45:236
0.2134,16.9005,6.0943,-1.5631,-3.3661,-4.6343,1.3066,0.4404,-0.3579,1828,2019-08-07 17:01:45:242
0.2134,16.9005,6.0943,-1.5631,-3.3661,-4.6343,1.3066,0.4404,-0.3579,1833,2019-08-07 17:01:45:247
0.2134,16.9005,6.0943,-0.8724,-8.374,-7.566,1.7306,0.4319,-0.3132,1837,2019-08-07 17:01:45:251
-0.8981,19.1348,6.7916,-0.8724,-8.374,-7.566,1.7306,0.4319,-0.3132,1843,2019-08-07 17:01:45:257
-0.8981,19.1348,6.7916,-0.8724,-8.374,-7.566,2.0161,0.4809,-0.2386,1849,2019-08-07 17:01:45:263
-0.8981,19.1348,6.7916,-0.8724,-8.374,-7.566,2.0161,0.4809,-0.2386,1852,2019-08-07 17:01:45:266
-2.7639,21.7699,7.7579,1.5298,-12.1428,-9.1831,2.0161,0.4809,-0.2386,1858,2019-08-07 17:01:45:272
-2.7639,21.7699,7.7579,1.5298,-12.1428,-9.1831,2.3122,0.2774,-0.1012,1863,2019-08-07 17:01:45:277
-4.2997,23.3978,9.6481,1.5298,-12.1428,-9.1831,2.3122,0.2774,-0.1012,1867,2019-08-07 17:01:45:281
-4.2997,23.3978,9.6481,1.5298,-12.1428,-9.1831,2.7223,-0.4341,0.1012,1873,2019-08-07 17:01:45:287
-4.2997,23.3978,9.6481,3.6492,-14.5151,-11.3641,2.7223,-0.4341,0.1012,1877,2019-08-07 17:01:45:291
-5.0987,24.3573,9.2098,3.6492,-14.5151,-11.3641,2.8129,-1.33,0.0746,1883,2019-08-07 17:01:45:297
-5.0987,24.3573,9.2098,3.6492,-14.5151,-11.3641,2.8129,-1.33,0.0746,1888,2019-08-07 17:01:45:302
-5.0987,24.3573,9.2098,3.6492,-14.5151,-11.3641,2.8129,-1.33,0.0746,1892,2019-08-07 17:01:45:306
-3.6108,24.5292,3.7182,1.7181,-15.173,-5.527,2.6446,-2.0054,-0.0352,1898,2019-08-07 17:01:45:312
-3.6108,24.5292,3.7182,1.7181,-15.173,-5.527,2.6446,-2.0054,-0.0352,1902,2019-08-07 17:01:45:316
-3.6108,24.5292,3.7182,1.7181,-15.173,-5.527,2.5008,-2.2089,-0.0352,1908,2019-08-07 17:01:45:322
-0.3479,25.2405,-0.5054,1.7181,-15.173,-5.527,2.5008,-2.2089,-0.0352,1913,2019-08-07 17:01:45:327
-0.3479,25.2405,-0.5054,-2.3828,-16.4858,1.281,2.5498,-1.9053,0.0607,1917,2019-08-07 17:01:45:331
1.2117,26.7395,-6.5862,-2.3828,-16.4858,1.281,2.5498,-1.9053,0.0607,1923,2019-08-07 17:01:45:337
1.2117,26.7395,-6.5862,-2.3828,-16.4858,1.281,2.652,-1.5154,0.1321,1928,2019-08-07 17:01:45:342
1.2117,26.7395,-6.5862,-2.3828,-16.4858,1.281,2.652,-1.5154,0.1321,1933,2019-08-07 17:01:45:347
-0.9173,27.2789,-11.7856,-0.5461,-18.1105,8.6178,2.4454,-1.0424,0.2642,1938,2019-08-07 17:01:45:352
-0.9173,27.2789,-11.7856,-0.5461,-18.1105,8.6178,2.4454,-1.0424,0.2642,1943,2019-08-07 17:01:45:357
-4.5724,29.3794,-15.566,-0.5461,-18.1105,8.6178,2.0246,0.1059,0.5625,1948,2019-08-07 17:01:45:362
-4.5724,29.3794,-15.566,-0.5461,-18.1105,8.6178,2.0246,0.1059,0.5625,1953,2019-08-07 17:01:45:367
-4.5724,29.3794,-15.566,2.861,-19.797,8.3605,2.0246,0.1059,0.5625,1958,2019-08-07 17:01:45:372
-2.2569,26.0091,-8.5613,2.861,-19.797,8.3605,1.0041,1.478,0.9736,1963,2019-08-07 17:01:45:377
-2.2569,26.0091,-8.5613,2.861,-19.797,8.3605,1.0041,1.478,0.9736,1968,2019-08-07 17:01:45:382
-2.2569,26.0091,-8.5613,2.861,-19.797,8.3605,1.0467,2.2141,0.7297,1972,2019-08-07 17:01:45:386
-1.4962,16.7145,-2.6973,0.4029,-7.7224,-1.0689,1.0467,2.2141,0.7297,1978,2019-08-07 17:01:45:392
-1.4962,16.7145,-2.6973,0.4029,-7.7224,-1.0689,1.3151,1.347,0.3111,1983,2019-08-07 17:01:45:397
-6.6249,18.8674,-9.6738,0.4029,-7.7224,-1.0689,1.3151,1.347,0.3111,1988,2019-08-07 17:01:45:402
-6.6249,18.8674,-9.6738,0.4029,-7.7224,-1.0689,1.4696,0.7494,0.392,1993,2019-08-07 17:01:45:407
-6.6249,18.8674,-9.6738,4.8015,-9.5299,7.8107,1.4696,0.7494,0.392,1999,2019-08-07 17:01:45:413
-4.7877,17.2539,-13.0724,4.8015,-9.5299,7.8107,1.4696,0.7494,0.392,2003,2019-08-07 17:01:45:417
-4.7877,17.2539,-13.0724,4.8015,-9.5299,7.8107,0.9007,-0.4224,0.5273,2008,2019-08-07 17:01:45:422
-4.7877,17.2539,-13.0724,4.8015,-9.5299,7.8107,0.9007,-0.4224,0.5273,2013,2019-08-07 17:01:45:427
-2.4626,12.5039,-14.7977,1.4022,-3.062,10.6368,0.4576,-0.9359,0.3888,2018,2019-08-07 17:01:45:432
-2.4626,12.5039,-14.7977,1.4022,-3.062,10.6368,0.4576,-0.9359,0.3888,2023,2019-08-07 17:01:45:437
-2.5726,10.3939,-14.397,1.4022,-3.062,10.6368,0.0272,-0.7154,0.1534,2028,2019-08-07 17:01:45:442
-2.5726,10.3939,-14.397,1.4022,-3.062,10.6368,0.0272,-0.7154,0.1534,2034,2019-08-07 17:01:45:448
-2.5726,10.3939,-14.397,2.1463,0.3163,8.7088,-0.2487,0.5129,0.0746,2038,2019-08-07 17:01:45:452
-2.9697,8.2171,-12.634,2.1463,0.3163,8.7088,-0.2487,0.5129,0.0746,2043,2019-08-07 17:01:45:457
-2.9697,8.2171,-12.634,1.2551,1.4097,7.5079,-0.4415,1.4748,0.0479,2048,2019-08-07 17:01:45:462
-1.5727,6.6131,-11.3708,1.2551,1.4097,7.5079,-0.4415,1.4748,0.0479,2052,2019-08-07 17:01:45:466
-1.5727,6.6131,-11.3708,1.2551,1.4097,7.5079,-0.4415,1.4748,0.0479,2058,2019-08-07 17:01:45:472
-1.5727,6.6131,-11.3708,1.2551,1.4097,7.5079,-0.6918,1.7891,-0.0341,2062,2019-08-07 17:01:45:476
-0.8551,4.6224,-11.0455,0.1155,5.1296,6.7281,-0.6918,1.7891,-0.0341,2068,2019-08-07 17:01:45:482
-0.8551,4.6224,-11.0455,0.1155,5.1296,6.7281,-1.0412,1.5323,-0.2333,2073,2019-08-07 17:01:45:487
-1.3479,2.3023,-10.3526,0.1155,5.1296,6.7281,-1.0412,1.5323,-0.2333,2077,2019-08-07 17:01:45:491
-1.3479,2.3023,-10.3526,0.1155,5.1296,6.7281,-1.4024,1.0902,-0.3345,2084,2019-08-07 17:01:45:498
-1.3479,2.3023,-10.3526,0.8538,8.9259,-4.3111,-1.4024,1.0902,-0.3345,2087,2019-08-07 17:01:45:501
-1.5775,-0.013,0.2771,0.8538,8.9259,-4.3111,-1.3299,0.6567,-0.3132,2093,2019-08-07 17:01:45:507
-1.5775,-0.013,0.2771,0.8538,8.9259,-4.3111,-1.3299,0.6567,-0.3132,2098,2019-08-07 17:01:45:512
-0.9508,-2.7627,-10.1546,0.8538,8.9259,-4.3111,-1.5068,1.1968,-0.2631,2102,2019-08-07 17:01:45:516
-0.9508,-2.7627,-10.1546,0.8538,8.9259,-4.3111,-1.5068,1.1968,-0.2631,2108,2019-08-07 17:01:45:522
-0.9508,-2.7627,-10.1546,-0.44,12.7437,3.8646,-1.5068,1.1968,-0.2631,2113,2019-08-07 17:01:45:527
0.3361,-4.7916,-4.2906,-0.44,12.7437,3.8646,-1.9318,1.4716,-0.2812,2117,2019-08-07 17:01:45:531
0.3361,-4.7916,-4.2906,-0.44,12.7437,3.8646,-1.9318,1.4716,-0.2812,2123,2019-08-07 17:01:45:537
0.1065,-7.2262,-3.9371,-0.44,12.7437,3.8646,-2.0106,1.2532,-0.3388,2128,2019-08-07 17:01:45:542
0.1065,-7.2262,-3.9371,-0.613,16.7094,0.2543,-2.0106,1.2532,-0.3388,2133,2019-08-07 17:01:45:547
0.1065,-7.2262,-3.9371,-0.613,16.7094,0.2543,-2.0927,1.2703,-0.2898,2138,2019-08-07 17:01:45:552
0.1639,-9.1883,-2.3014,-0.613,16.7094,0.2543,-2.0927,1.2703,-0.2898,2143,2019-08-07 17:01:45:557
0.1639,-9.1883,-2.3014,-0.9786,19.0053,-1.0817,-2.2279,1.0966,-0.3015,2149,2019-08-07 17:01:45:563
0.1639,-9.1883,-2.3014,-0.9786,19.0053,-1.0817,-2.2279,1.0966,-0.3015,2153,2019-08-07 17:01:45:567
0.4605,-10.1956,-0.958,-0.9786,19.0053,-1.0817,-2.2279,1.0966,-0.3015,2158,2019-08-07 17:01:45:572
0.4605,-10.1956,-0.958,-0.9786,19.0053,-1.0817,-2.2546,0.9326,-0.3313,2163,2019-08-07 17:01:45:577
-0.1375,-10.4008,0.0319,-0.5156,19.7613,-2.8942,-2.2546,0.9326,-0.3313,2168,2019-08-07 17:01:45:582
-0.1375,-10.4008,0.0319,-0.5156,19.7613,-2.8942,-2.1172,0.597,-0.3025,2173,2019-08-07 17:01:45:587
-0.1375,-10.4008,0.0319,-0.5156,19.7613,-2.8942,-2.1172,0.597,-0.3025,2178,2019-08-07 17:01:45:592
-0.0514,-11.0739,0.1828,-0.5156,19.7613,-2.8942,-2.0021,0.4255,-0.2695,2182,2019-08-07 17:01:45:596
-0.0514,-11.0739,0.1828,-0.5254,21.0176,-3.0635,-2.0021,0.4255,-0.2695,2188,2019-08-07 17:01:45:602
-0.0514,-11.0739,0.1828,-0.5254,21.0176,-3.0635,-1.7837,0.2423,-0.2557,2193,2019-08-07 17:01:45:607
-0.4389,-11.8521,0.4279,-0.5254,21.0176,-3.0635,-1.7837,0.2423,-0.2557,2198,2019-08-07 17:01:45:612
-0.4389,-11.8521,0.4279,-0.5254,21.0176,-3.0635,-1.7837,0.2423,-0.2557,2202,2019-08-07 17:01:45:616
-0.7403,-11.9332,0.5835,-0.5254,21.0176,-3.0635,-1.4343,0.0889,-0.1619,2208,2019-08-07 17:01:45:622
-0.7403,-11.9332,0.5835,0.0401,21.4115,-2.8512,-1.4343,0.0889,-0.1619,2212,2019-08-07 17:01:45:626
-0.7403,-11.9332,0.5835,0.0401,21.4115,-2.8512,-1.1329,-0.1178,-0.0756,2218,2019-08-07 17:01:45:632
-1.0465,-11.6993,0.7437,0.0401,21.4115,-2.8512,-1.1329,-0.1178,-0.0756,2223,2019-08-07 17:01:45:637
-1.0465,-11.6993,0.7437,0.0401,21.4115,-2.8512,-0.7611,-0.35,0.0458,2228,2019-08-07 17:01:45:642
-1.0226,-11.5513,0.6353,0.2909,21.1588,-2.6446,-0.7611,-0.35,0.0458,2233,2019-08-07 17:01:45:647
-1.0226,-11.5513,0.6353,0.2909,21.1588,-2.6446,-0.2689,-0.6387,0.1992,2238,2019-08-07 17:01:45:652
-1.0226,-11.5513,0.6353,0.2909,21.1588,-2.6446,-0.2689,-0.6387,0.1992,2243,2019-08-07 17:01:45:657
-1.0466,-10.9403,0.2205,0.2909,21.1588,-2.6446,0.1167,-0.7985,0.2961,2248,2019-08-07 17:01:45:662
-1.0466,-10.9403,0.2205,0.3449,20.2172,-1.7092,0.1167,-0.7985,0.2961,2253,2019-08-07 17:01:45:667
-1.0466,-10.9403,0.2205,0.3449,20.2172,-1.7092,0.1167,-0.7985,0.2961,2258,2019-08-07 17:01:45:672
-0.8935,-10.1526,-0.826,0.3449,20.2172,-1.7092,0.448,-0.8336,0.3601,2263,2019-08-07 17:01:45:677
-0.8935,-10.1526,-0.826,0.3449,20.2172,-1.7092,0.448,-0.8336,0.3601,2269,2019-08-07 17:01:45:683
-1.0848,-8.7921,-1.0711,0.2431,18.6071,-1.0875,0.9519,-0.8677,0.4186,2273,2019-08-07 17:01:45:687
-1.0848,-8.7921,-1.0711,0.2431,18.6071,-1.0875,0.9519,-0.8677,0.4186,2278,2019-08-07 17:01:45:692
-1.0848,-8.7921,-1.0711,0.2431,18.6071,-1.0875,0.9519,-0.8677,0.4186,2283,2019-08-07 17:01:45:697
-1.171,-7.5986,-1.2926,0.2431,18.6071,-1.0875,1.2959,-0.8475,0.4804,2288,2019-08-07 17:01:45:702
-1.171,-7.5986,-1.2926,0.368,16.5678,-0.7586,1.5974,-0.8421,0.5124,2293,2019-08-07 17:01:45:707
-1.0561,-6.2906,-1.995,0.368,16.5678,-0.7586,1.5974,-0.8421,0.5124,2298,2019-08-07 17:01:45:712
-1.0561,-6.2906,-1.995,0.368,16.5678,-0.7586,1.8137,-0.8283,0.5156,2303,2019-08-07 17:01:45:717
-1.0561,-6.2906,-1.995,0.368,16.5678,-0.7586,1.8137,-0.8283,0.5156,2308,2019-08-07 17:01:45:722
-0.9461,-5.0923,-2.3297,0.2883,14.5028,-0.3623,1.9703,-0.8272,0.523,2313,2019-08-07 17:01:45:727
-0.9461,-5.0923,-2.3297,0.2883,14.5028,-0.3623,1.9703,-0.8272,0.523,2318,2019-08-07 17:01:45:732
-0.9461,-5.0923,-2.3297,0.2883,14.5028,-0.3623,1.9703,-0.8272,0.523,2323,2019-08-07 17:01:45:737
-0.7882,-4.0946,-2.8294,0.2883,14.5028,-0.3623,2.0789,-0.8656,0.5401,2328,2019-08-07 17:01:45:742
-0.7882,-4.0946,-2.8294,0.0839,12.7333,-0.0731,2.0789,-0.8656,0.5401,2333,2019-08-07 17:01:45:747
-0.549,-2.7866,-3.2489,0.0839,12.7333,-0.0731,2.1396,-0.9476,0.5316,2338,2019-08-07 17:01:45:752
-0.549,-2.7866,-3.2489,0.0839,12.7333,-0.0731,2.1396,-0.9476,0.5316,2343,2019-08-07 17:01:45:757
-0.549,-2.7866,-3.2489,0.0839,12.7333,-0.0731,2.1258,-1.0563,0.5103,2348,2019-08-07 17:01:45:762
-0.6112,-1.7268,-3.758,0.0066,10.8405,0.1788,2.1258,-1.0563,0.5103,2353,2019-08-07 17:01:45:767
-0.6112,-1.7268,-3.758,0.0066,10.8405,0.1788,2.1258,-1.0563,0.5103,2358,2019-08-07 17:01:45:772
-0.6112,-1.7268,-3.758,0.0066,10.8405,0.1788,2.047,-1.1447,0.4804,2363,2019-08-07 17:01:45:777
-0.6017,-0.8102,-4.696,0.0066,10.8405,0.1788,2.047,-1.1447,0.4804,2368,2019-08-07 17:01:45:782
-0.6017,-0.8102,-4.696,-0.072,9.1669,1.3893,1.8499,-1.2555,0.4048,2373,2019-08-07 17:01:45:787
-0.3433,0.1732,-5.7943,-0.072,9.1669,1.3893,1.8499,-1.2555,0.4048,2377,2019-08-07 17:01:45:791
-0.3433,0.1732,-5.7943,-0.072,9.1669,1.3893,1.6933,-1.3119,0.3313,2383,2019-08-07 17:01:45:797
-0.3433,0.1732,-5.7943,-0.072,9.1669,1.3893,1.6933,-1.3119,0.3313,2388,2019-08-07 17:01:45:802
-0.3051,1.7915,-6.7088,-0.361,6.9737,2.354,1.5356,-1.3556,0.2887,2393,2019-08-07 17:01:45:807
-0.3051,1.7915,-6.7088,-0.361,6.9737,2.354,1.5356,-1.3556,0.2887,2398,2019-08-07 17:01:45:812
-0.3051,1.7915,-6.7088,-0.361,6.9737,2.354,1.5356,-1.3556,0.2887,2403,2019-08-07 17:01:45:817
0.0777,3.2762,-7.9627,-0.361,6.9737,2.354,1.199,-1.2587,0.2067,2408,2019-08-07 17:01:45:822
0.0777,3.2762,-7.9627,-1.2401,4.5243,3.5665,1.199,-1.2587,0.2067,2413,2019-08-07 17:01:45:827
0.6996,4.5985,-8.3398,-1.2401,4.5243,3.5665,0.8656,-1.1308,0.1108,2418,2019-08-07 17:01:45:832
0.6996,4.5985,-8.3398,-1.2401,4.5243,3.5665,0.8656,-1.1308,0.1108,2423,2019-08-07 17:01:45:837
0.6996,4.5985,-8.3398,-1.2401,4.5243,3.5665,0.5758,-0.9039,0.0426,2428,2019-08-07 17:01:45:842
0.4461,6.0211,-9.028,-1.138,2.1648,4.53,0.5758,-0.9039,0.0426,2433,2019-08-07 17:01:45:847
0.4461,6.0211,-9.028,-1.138,2.1648,4.53,0.1764,-0.5396,-0.0075,2437,2019-08-07 17:01:45:851
-0.219,7.9068,-9.8954,-1.138,2.1648,4.53,0.1764,-0.5396,-0.0075,2443,2019-08-07 17:01:45:857
-0.219,7.9068,-9.8954,-1.138,2.1648,4.53,-0.2199,-0.187,-0.1076,2448,2019-08-07 17:01:45:862
-0.219,7.9068,-9.8954,0.4025,-1.2986,4.9131,-0.2199,-0.187,-0.1076,2453,2019-08-07 17:01:45:867
-1.5107,10.308,-9.4146,0.4025,-1.2986,4.9131,-0.2199,-0.187,-0.1076,2457,2019-08-07 17:01:45:871
-1.5107,10.308,-9.4146,0.4025,-1.2986,4.9131,-0.6013,0.1241,-0.1854,2463,2019-08-07 17:01:45:877
-2.4436,12.8047,-7.9109,1.3177,-3.2294,3.8749,-0.6013,0.1241,-0.1854,2468,2019-08-07 17:01:45:882
-2.4436,12.8047,-7.9109,1.3177,-3.2294,3.8749,-0.9635,0.1592,-0.245,2472,2019-08-07 17:01:45:886
-2.4436,12.8047,-7.9109,1.3177,-3.2294,3.8749,-0.9635,0.1592,-0.245,2478,2019-08-07 17:01:45:892
-2.9316,14.824,-7.4913,2.1544,-6.6225,3.0069,-1.1606,-0.0624,-0.3515,2484,2019-08-07 17:01:45:898
-2.9316,14.824,-7.4913,2.1544,-6.6225,3.0069,-1.1606,-0.0624,-0.3515,2488,2019-08-07 17:01:45:902
-2.9316,14.824,-7.4913,2.1544,-6.6225,3.0069,-1.2245,-0.2051,-0.5241,2493,2019-08-07 17:01:45:907
-3.3335,17.1489,-7.6422,2.1544,-6.6225,3.0069,-1.2245,-0.2051,-0.5241,2499,2019-08-07 17:01:45:913
-3.3335,17.1489,-7.6422,1.6803,-9.2903,3.6495,-1.2277,-0.4917,-0.6317,2503,2019-08-07 17:01:45:917
-3.3335,17.1489,-7.6422,1.6803,-9.2903,3.6495,-1.2277,-0.4917,-0.6317,2508,2019-08-07 17:01:45:922
-1.8983,18.2755,-8.4624,1.6803,-9.2903,3.6495,-1.2277,-0.4917,-0.6317,2513,2019-08-07 17:01:45:927
-1.8983,18.2755,-8.4624,1.6803,-9.2903,3.6495,-1.249,-0.6855,-0.7286,2518,2019-08-07 17:01:45:932
-1.8983,18.2755,-8.4624,1.6803,-9.2903,3.6495,-1.249,-0.6855,-0.7286,2523,2019-08-07 17:01:45:937
-0.3243,18.8197,-10.8004,-0.8802,-9.9917,6.6953,-1.3843,-0.5396,-0.9055,2527,2019-08-07 17:01:45:941
-0.3243,18.8197,-10.8004,-0.8802,-9.9917,6.6953,-1.3843,-0.5396,-0.9055,2534,2019-08-07 17:01:45:948
-0.2908,20.0323,-11.9412,-0.8802,-9.9917,6.6953,-1.6452,1.3118,-1.0504,2539,2019-08-07 17:01:45:953
-0.2908,20.0323,-11.9412,-0.8802,-9.9917,6.6953,-1.6452,1.3118,-1.0504,2542,2019-08-07 17:01:45:956
-0.2908,20.0323,-11.9412,-1.4419,-11.6545,7.4588,-1.6452,1.3118,-1.0504,2548,2019-08-07 17:01:45:962
-0.5013,19.6313,-9.9378,-1.4419,-11.6545,7.4588,-1.9552,1.8839,-0.9992,2553,2019-08-07 17:01:45:967
-0.5013,19.6313,-9.9378,-1.4419,-11.6545,7.4588,-1.9552,1.8839,-0.9992,2557,2019-08-07 17:01:45:971
-0.5013,19.6313,-9.9378,-1.4419,-11.6545,7.4588,-2.2109,3.0929,-0.995,2563,2019-08-07 17:01:45:977
-0.6496,18.5333,-4.7243,-0.6613,-9.4766,1.1897,-2.2109,3.0929,-0.995,2568,2019-08-07 17:01:45:982
-0.6496,18.5333,-4.7243,-0.6613,-9.4766,1.1897,-2.0692,2.6455,-0.93,2573,2019-08-07 17:01:45:987
-0.9606,17.5594,-2.8294,-0.6613,-9.4766,1.1897,-2.0692,2.6455,-0.93,2578,2019-08-07 17:01:45:992
-0.9606,17.5594,-2.8294,-0.6613,-9.4766,1.1897,-1.723,2.3675,-0.9076,2583,2019-08-07 17:01:45:997
-0.9606,17.5594,-2.8294,0.6166,-8.8548,1.1702,-1.723,2.3675,-0.9076,2587,2019-08-07 17:01:46:001
-1.9892,18.371,-3.3102,0.6166,-8.8548,1.1702,-2.0245,2.4272,-0.7915,2593,2019-08-07 17:01:46:007
-1.9892,18.371,-3.3102,0.6166,-8.8548,1.1702,-2.0245,2.4272,-0.7915,2598,2019-08-07 17:01:46:012
-0.5731,16.724,-3.9654,0.6166,-8.8548,1.1702,-1.8817,2.5092,-0.6072,2604,2019-08-07 17:01:46:018
-0.5731,16.724,-3.9654,-0.8751,-8.0575,2.612,-1.8817,2.5092,-0.6072,2607,2019-08-07 17:01:46:021
-0.5731,16.724,-3.9654,-0.8751,-8.0575,2.612,-1.8817,2.5092,-0.6072,2613,2019-08-07 17:01:46:027
-1.994,20.0991,0.8427,-0.8751,-8.0575,2.612,-1.4567,2.311,-0.3888,2618,2019-08-07 17:01:46:032
-1.994,20.0991,0.8427,-0.8751,-8.0575,2.612,-1.4567,2.311,-0.3888,2623,2019-08-07 17:01:46:037
-4.6588,16.4233,-1.7028,3.3498,-7.9748,-0.1198,-2.0064,2.2056,-0.2141,2627,2019-08-07 17:01:46:041
-4.6588,16.4233,-1.7028,3.3498,-7.9748,-0.1198,-2.0064,2.2056,-0.2141,2633,2019-08-07 17:01:46:047
-4.6588,16.4233,-1.7028,3.3498,-7.9748,-0.1198,-2.0788,1.6857,-0.2163,2638,2019-08-07 17:01:46:052
-6.2759,17.1966,7.9841,3.3498,-7.9748,-0.1198,-2.0788,1.6857,-0.2163,2642,2019-08-07 17:01:46:056
-6.2759,17.1966,7.9841,5.3596,-8.7413,-8.8213,-1.5728,-0.0219,0.1545,2649,2019-08-07 17:01:46:063
-6.2759,17.1966,7.9841,5.3596,-8.7413,-8.8213,-1.5728,-0.0219,0.1545,2653,2019-08-07 17:01:46:067
-5.2282,23.6508,16.6858,5.3596,-8.7413,-8.8213,-1.5728,-0.0219,0.1545,2658,2019-08-07 17:01:46:072
-5.2282,23.6508,16.6858,5.3596,-8.7413,-8.8213,-2.2429,-1.1117,0.8586,2664,2019-08-07 17:01:46:078
-5.2282,23.6508,16.6858,-1.8653,-9.1638,-12.8168,-2.2429,-1.1117,0.8586,2667,2019-08-07 17:01:46:081
-0.0516,19.321,10.2986,-1.8653,-9.1638,-12.8168,-2.5635,-1.0541,0.6072,2673,2019-08-07 17:01:46:087
-0.0516,19.321,10.2986,-1.8653,-9.1638,-12.8168,-2.0064,-1.1489,0.6178,2678,2019-08-07 17:01:46:092
-5.7927,22.1996,8.8279,-1.8653,-9.1638,-12.8168,-2.0064,-1.1489,0.6178,2683,2019-08-07 17:01:46:097
-5.7927,22.1996,8.8279,4.0509,-10.7307,-5.1245,-2.0064,-1.1489,0.6178,2688,2019-08-07 17:01:46:102
-5.7927,22.1996,8.8279,4.0509,-10.7307,-5.1245,-1.6207,-1.4653,1.0653,2693,2019-08-07 17:01:46:107
-4.7258,17.0248,1.875,3.7741,-7.3256,-2.9958,-1.6207,-1.4653,1.0653,2698,2019-08-07 17:01:46:112
-4.7258,17.0248,1.875,3.7741,-7.3256,-2.9958,-1.2724,-0.9668,0.7073,2703,2019-08-07 17:01:46:117
-4.7258,17.0248,1.875,3.7741,-7.3256,-2.9958,-1.2724,-0.9668,0.7073,2708,2019-08-07 17:01:46:122
-5.4961,13.7213,3.8454,3.7741,-7.3256,-2.9958,-1.1243,-0.9359,0.6668,2713,2019-08-07 17:01:46:127
-5.4961,13.7213,3.8454,3.8257,-2.781,-3.1045,-1.1243,-0.9359,0.6668,2717,2019-08-07 17:01:46:131
-5.4961,13.7213,3.8454,3.8257,-2.781,-3.1045,-0.776,-0.7612,0.5965,2723,2019-08-07 17:01:46:137
-2.9796,11.0098,6.1976,3.8257,-2.781,-3.1045,-0.776,-0.7612,0.5965,2727,2019-08-07 17:01:46:141
-2.9796,11.0098,6.1976,3.8257,-2.781,-3.1045,-0.5885,-0.9391,0.5305,2733,2019-08-07 17:01:46:147
-2.9796,11.0098,6.1976,-2.025,-1.1787,-2.8228,-0.5885,-0.9391,0.5305,2738,2019-08-07 17:01:46:152
2.1156,10.752,1.9221,-2.025,-1.1787,-2.8228,-0.4138,-1.1777,0.4921,2744,2019-08-07 17:01:46:158
2.1156,10.752,1.9221,-2.025,-1.1787,-2.8228,-0.4138,-1.1777,0.4921,2748,2019-08-07 17:01:46:162
3.9623,9.7352,-1.0947,-2.025,-1.1787,-2.8228,-0.286,-0.5993,0.4687,2753,2019-08-07 17:01:46:167
3.9623,9.7352,-1.0947,-2.025,-1.1787,-2.8228,-0.286,-0.5993,0.4687,2758,2019-08-07 17:01:46:172
3.9623,9.7352,-1.0947,-4.8945,0.6015,1.2697,-0.4841,0.0782,0.4165,2763,2019-08-07 17:01:46:177
3.6848,8.5799,-0.892,-4.8945,0.6015,1.2697,-0.4841,0.0782,0.4165,2767,2019-08-07 17:01:46:181
3.6848,8.5799,-0.892,-4.8945,0.6015,1.2697,-0.4841,0.0782,0.4165,2773,2019-08-07 17:01:46:187
1.1827,9.3103,3.7558,-1.7185,0.4747,-4.2067,-0.4873,0.352,0.3079,2777,2019-08-07 17:01:46:191
1.1827,9.3103,3.7558,-1.7185,0.4747,-4.2067,-0.4873,0.352,0.3079,2783,2019-08-07 17:01:46:197
1.1827,9.3103,3.7558,-1.7185,0.4747,-4.2067,-0.1475,-0.2744,0.277,2788,2019-08-07 17:01:46:202
0.6421,9.5538,1.8184,-1.7185,0.4747,-4.2067,-0.1475,-0.2744,0.277,2793,2019-08-07 17:01:46:207
0.6421,9.5538,1.8184,-1.3166,0.1656,-0.7573,0.0048,-0.3404,0.18,2798,2019-08-07 17:01:46:212
0.6421,9.5538,1.8184,-1.3166,0.1656,-0.7573,0.0048,-0.3404,0.18,2803,2019-08-07 17:01:46:217
1.0344,9.6492,-1.2314,-1.3166,0.1656,-0.7573,0.0048,-0.3404,0.18,2808,2019-08-07 17:01:46:222
1.0344,9.6492,-1.2314,-1.5553,0.1713,1.1225,-0.0548,0.1656,0.0969,2813,2019-08-07 17:01:46:227
1.0344,9.6492,-1.2314,-1.5553,0.1713,1.1225,-0.0548,0.1656,0.0969,2818,2019-08-07 17:01:46:232
0.5607,9.5776,-0.9863,-1.5553,0.1713,1.1225,-0.1677,0.7547,0.0415,2823,2019-08-07 17:01:46:237
0.5607,9.5776,-0.9863,0.5097,0.111,-1.3983,-0.1677,0.7547,0.0415,2828,2019-08-07 17:01:46:242
-1.2142,9.6588,1.4885,0.5097,0.111,-1.3983,-0.1677,0.8293,0.0799,2832,2019-08-07 17:01:46:246
-1.2142,9.6588,1.4885,0.5097,0.111,-1.3983,-0.1677,0.8293,0.0799,2838,2019-08-07 17:01:46:252
-1.8731,10.179,2.3561,0.5097,0.111,-1.3983,-0.0857,0.532,0.1395,2843,2019-08-07 17:01:46:257
-1.8731,10.179,2.3561,1.6652,-1.0564,-2.4949,-0.0857,0.532,0.1395,2848,2019-08-07 17:01:46:262
-1.8731,10.179,2.3561,1.6652,-1.0564,-2.4949,0.0677,0.0346,0.2109,2853,2019-08-07 17:01:46:267
-1.6243,11.1003,1.7999,1.6652,-1.0564,-2.4949,0.0677,0.0346,0.2109,2858,2019-08-07 17:01:46:272
-1.6243,11.1003,1.7999,1.6652,-1.0564,-2.4949,0.0677,0.0346,0.2109,2863,2019-08-07 17:01:46:277
-0.1077,10.8616,-0.0904,-0.2684,-1.0647,-0.2495,0.1508,-0.1955,0.2248,2868,2019-08-07 17:01:46:282
-0.1077,10.8616,-0.0904,-0.2684,-1.0647,-0.2495,0.1508,-0.1955,0.2248,2873,2019-08-07 17:01:46:287
-0.1077,10.8616,-0.0904,-0.2684,-1.0647,-0.2495,0.1412,-0.1849,0.1949,2878,2019-08-07 17:01:46:292
0.653,10.0883,-1.5705,-0.2684,-1.0647,-0.2495,0.1412,-0.1849,0.1949,2883,2019-08-07 17:01:46:297
0.653,10.0883,-1.5705,-0.2684,-1.0647,-0.2495,0.0155,0.1581,0.1385,2888,2019-08-07 17:01:46:302
0.7344,9.8353,-1.1321,-1.1499,-0.0092,0.9492,0.0155,0.1581,0.1385,2893,2019-08-07 17:01:46:307
0.7344,9.8353,-1.1321,-1.1499,-0.0092,0.9492,-0.0814,0.3414,0.0852,2898,2019-08-07 17:01:46:312
0.7344,9.8353,-1.1321,-1.1499,-0.0092,0.9492,-0.0814,0.3414,0.0852,2903,2019-08-07 17:01:46:317
0.7344,9.8353,-1.1321,-1.1499,-0.0092,0.9492,-0.0814,0.3414,0.0852,2908,2019-08-07 17:01:46:322
0.1842,9.778,0.1123,-0.4117,-0.0699,-0.4945,-0.0964,0.3318,0.0639,2913,2019-08-07 17:01:46:327
0.1842,9.778,0.1123,-0.4117,-0.0699,-0.4945,-0.0964,0.3318,0.0639,2918,2019-08-07 17:01:46:332
-0.3181,10.0214,0.1359,-0.4117,-0.0699,-0.4945,-0.0985,0.1794,0.0543,2923,2019-08-07 17:01:46:337
-0.3181,10.0214,0.1359,-0.4117,-0.0699,-0.4945,-0.0985,0.1794,0.0543,2928,2019-08-07 17:01:46:342
-0.3181,10.0214,0.1359,0.1996,-0.1785,-0.7835,-0.0921,0.1347,0.0586,2933,2019-08-07 17:01:46:347
-0.7248,10.0119,0.5319,0.1996,-0.1785,-0.7835,-0.0921,0.1347,0.0586,2938,2019-08-07 17:01:46:352
-0.7248,10.0119,0.5319,0.1996,-0.1785,-0.7835,-0.0825,0.0793,0.1119,2943,2019-08-07 17:01:46:357
-1.2367,10.0835,0.2443,1.089,-0.354,-0.6011,-0.0825,0.0793,0.1119,2949,2019-08-07 17:01:46:363
-1.2367,10.0835,0.2443,1.089,-0.354,-0.6011,-0.0921,0.0665,0.1364,2952,2019-08-07 17:01:46:366
-1.2367,10.0835,0.2443,1.089,-0.354,-0.6011,-0.0921,0.0665,0.1364,2958,2019-08-07 17:01:46:372
-1.3993,10.3938,1.1494,1.1272,-0.5921,-1.4462,-0.0537,-0.0187,0.1683,2963,2019-08-07 17:01:46:377
-1.3993,10.3938,1.1494,1.1272,-0.5921,-1.4462,-0.0537,-0.0187,0.1683,2968,2019-08-07 17:01:46:382
-1.3993,10.3938,1.1494,1.1272,-0.5921,-1.4462,-0.0537,-0.0187,0.1683,2973,2019-08-07 17:01:46:387
-0.4377,10.0835,0.8383,1.1272,-0.5921,-1.4462,0.0379,-0.1849,0.1832,2977,2019-08-07 17:01:46:391
-0.4377,10.0835,0.8383,-0.1761,-0.271,-0.5098,0.0379,-0.1849,0.1832,2984,2019-08-07 17:01:46:398
0.3852,10.0453,-0.2978,-0.1761,-0.271,-0.5098,0.04,-0.1849,0.1822,2988,2019-08-07 17:01:46:402
0.3852,10.0453,-0.2978,-0.1761,-0.271,-0.5098,0.04,-0.1849,0.1822,2993,2019-08-07 17:01:46:407
0.3852,10.0453,-0.2978,-0.1761,-0.271,-0.5098,0.0091,-0.073,0.1491,2998,2019-08-07 17:01:46:412
0.6962,9.7732,0.2066,-0.8984,0.0305,-0.4942,0.0091,-0.073,0.1491,3003,2019-08-07 17:01:46:417
0.6962,9.7732,0.2066,-0.8984,0.0305,-0.4942,0.0091,-0.073,0.1491,3008,2019-08-07 17:01:46:422
0.6962,9.7732,0.2066,-0.8984,0.0305,-0.4942,0.0059,-0.0379,0.1119,3012,2019-08-07 17:01:46:426
0.6962,9.7732,0.2066,-0.8984,0.0305,-0.4942,0.0059,-0.0379,0.1119,3018,2019-08-07 17:01:46:432
0.6245,9.3865,0.4612,-0.8072,0.2985,-0.5746,0.0144,-0.073,0.1065,3023,2019-08-07 17:01:46:437
0.6245,9.3865,0.4612,-0.8072,0.2985,-0.5746,0.0144,-0.073,0.1065,3028,2019-08-07 17:01:46:442
0.5527,9.7255,0.1831,-0.8072,0.2985,-0.5746,0.008,-0.1263,0.0511,3033,2019-08-07 17:01:46:447
0.5527,9.7255,0.1831,-0.8072,0.2985,-0.5746,0.008,-0.1263,0.0511,3038,2019-08-07 17:01:46:452
0.5527,9.7255,0.1831,-0.7338,-0.317,-0.8125,0.008,-0.106,0.0245,3043,2019-08-07 17:01:46:457
0.5384,10.1981,0.4847,-0.7338,-0.317,-0.8125,0.008,-0.106,0.0245,3047,2019-08-07 17:01:46:461
0.5384,10.1981,0.4847,-0.7338,-0.317,-0.8125,0.0315,-0.0123,-0.0021,3053,2019-08-07 17:01:46:467
0.5384,10.1981,0.4847,-0.7338,-0.317,-0.8125,0.0315,-0.0123,-0.0021,3058,2019-08-07 17:01:46:472
0.5479,10.3317,0.7817,-0.82,-0.608,-1.1398,0.0315,-0.0123,-0.0021,3063,2019-08-07 17:01:46:477
0.5479,10.3317,0.7817,-0.82,-0.608,-1.1398,0.0709,0.0495,-0.0565,3067,2019-08-07 17:01:46:481
-0.0883,10.1885,-0.2318,-0.82,-0.608,-1.1398,0.0709,0.0495,-0.0565,3073,2019-08-07 17:01:46:487
-0.0883,10.1885,-0.2318,-0.82,-0.608,-1.1398,0.0922,0.2583,-0.0863,3077,2019-08-07 17:01:46:491
-0.0883,10.1885,-0.2318,0.5157,-0.0931,0.1505,0.0922,0.2583,-0.0863,3083,2019-08-07 17:01:46:497
-0.7773,9.8782,0.0888,0.5157,-0.0931,0.1505,0.0261,0.3083,-0.0831,3088,2019-08-07 17:01:46:502
-0.7773,9.8782,0.0888,0.5157,-0.0931,0.1505,0.0261,0.3083,-0.0831,3093,2019-08-07 17:01:46:507
-0.5285,9.6348,1.0834,0.5157,-0.0931,0.1505,0.0783,0.1986,-0.0586,3098,2019-08-07 17:01:46:512
-0.5285,9.6348,1.0834,0.3708,-0.041,-0.866,0.0783,0.1986,-0.0586,3103,2019-08-07 17:01:46:517
-0.4854,10.0692,0.0275,0.3708,-0.041,-0.866,0.1252,-0.1071,-0.0256,3107,2019-08-07 17:01:46:521
-0.4854,10.0692,0.0275,0.3708,-0.041,-0.866,0.1252,-0.1071,-0.0256,3113,2019-08-07 17:01:46:527
-0.4854,10.0692,0.0275,0.3708,-0.041,-0.866,0.1252,-0.1071,-0.0256,3118,2019-08-07 17:01:46:532
-0.1792,10.0501,-0.4344,-0.0088,-0.247,0.1168,0.0751,-0.023,-0.0213,3123,2019-08-07 17:01:46:537
-0.1792,10.0501,-0.4344,-0.0088,-0.247,0.1168,0.0751,-0.023,-0.0213,3128,2019-08-07 17:01:46:542
-0.1792,10.0501,-0.4344,-0.0088,-0.247,0.1168,0.0443,0.0324,-0.0192,3132,2019-08-07 17:01:46:546
-0.2318,9.8496,0.4235,-0.0088,-0.247,0.1168,0.0443,0.0324,-0.0192,3138,2019-08-07 17:01:46:552
-0.2318,9.8496,0.4235,0.0638,-0.0897,-0.4406,0.057,-0.056,-0.0085,3143,2019-08-07 17:01:46:557
-0.184,9.8782,-0.0997,0.0638,-0.0897,-0.4406,0.057,-0.056,-0.0085,3147,2019-08-07 17:01:46:561
-0.184,9.8782,-0.0997,0.0638,-0.0897,-0.4406,0.0538,-0.1359,-0.0138,3153,2019-08-07 17:01:46:567
-0.184,9.8782,-0.0997,0.0638,-0.0897,-0.4406,0.0538,-0.1359,-0.0138,3158,2019-08-07 17:01:46:572
-0.0691,9.9307,-0.5758,-0.1637,-0.0519,0.196,0.0293,-0.0794,-0.0085,3163,2019-08-07 17:01:46:577
-0.0691,9.9307,-0.5758,-0.1637,-0.0519,0.196,0.0293,-0.0794,-0.0085,3167,2019-08-07 17:01:46:581
-0.1504,10.0119,-0.326,-0.1637,-0.0519,0.196,-0.0069,0.0154,-0.0256,3173,2019-08-07 17:01:46:587
-0.1504,10.0119,-0.326,-0.1637,-0.0519,0.196,-0.0069,0.0154,-0.0256,3177,2019-08-07 17:01:46:591
-0.1504,10.0119,-0.326,0.2383,-0.2333,-0.3104,-0.0367,0.0665,-0.0298,3183,2019-08-07 17:01:46:597
-0.4853,10.0119,0.0558,0.2383,-0.2333,-0.3104,-0.0367,0.0665,-0.0298,3188,2019-08-07 17:01:46:602
-0.4853,10.0119,0.0558,0.2383,-0.2333,-0.3104,-0.0378,0.0303,-0.0213,3193,2019-08-07 17:01:46:607
-0.404,9.9928,0.6262,0.2383,-0.2333,-0.3104,-0.0378,0.0303,-0.0213,3198,2019-08-07 17:01:46:612
-0.404,9.9928,0.6262,0.1128,-0.233,-1.0099,-0.0378,0.0303,-0.0213,3202,2019-08-07 17:01:46:616
-0.404,9.9928,0.6262,0.1128,-0.233,-1.0099,-0.0015,-0.0666,-0.017,3209,2019-08-07 17:01:46:623
-0.1791,10.1121,0.5979,0.1128,-0.233,-1.0099,0.0176,-0.0805,-0.0117,3213,2019-08-07 17:01:46:627
-0.1791,10.1121,0.5979,0.1128,-0.233,-1.0099,0.0176,-0.0805,-0.0117,3218,2019-08-07 17:01:46:632
-0.1791,10.1121,0.5979,0.1128,-0.233,-1.0099,0.0176,-0.0805,-0.0117,3222,2019-08-07 17:01:46:636
0.2276,9.9737,0.0558,-0.4339,-0.1709,-0.3701,0.0155,-0.072,-0.017,3228,2019-08-07 17:01:46:642
0.2276,9.9737,0.0558,-0.4339,-0.1709,-0.3701,0.0155,-0.072,-0.017,3232,2019-08-07 17:01:46:646
0.2084,9.8543,-0.0479,-0.4339,-0.1709,-0.3701,0.0102,-0.04,-0.0383,3238,2019-08-07 17:01:46:652
0.2084,9.8543,-0.0479,-0.4339,-0.1709,-0.3701,0.0102,-0.04,-0.0383,3243,2019-08-07 17:01:46:657
0.0793,9.7493,0.3528,-0.2796,0.0343,-0.5346,0.0112,-0.0123,-0.0533,3249,2019-08-07 17:01:46:663
0.0793,9.7493,0.3528,-0.2796,0.0343,-0.5346,0.0112,-0.0123,-0.0533,3253,2019-08-07 17:01:46:667
0.0793,9.7493,0.3528,-0.2796,0.0343,-0.5346,0.0112,-0.0123,-0.0533,3258,2019-08-07 17:01:46:672
-0.0499,9.883,0.0794,-0.2796,0.0343,-0.5346,0.023,-0.0219,-0.0607,3263,2019-08-07 17:01:46:677
-0.0499,9.883,0.0794,-0.15,-0.1186,-0.3961,0.023,-0.0219,-0.0607,3268,2019-08-07 17:01:46:682
-0.0499,9.883,0.0794,-0.15,-0.1186,-0.3961,0.0102,0.0047,-0.0618,3273,2019-08-07 17:01:46:687
-0.2508,10.0405,0.0983,-0.15,-0.1186,-0.3961,0.0102,0.0047,-0.0618,3278,2019-08-07 17:01:46:692
-0.2508,10.0405,0.0983,-0.15,-0.1186,-0.3961,0.007,0.0228,-0.0533,3282,2019-08-07 17:01:46:696
-0.4948,9.9975,0.5602,0.2153,-0.1713,-0.7765,0.007,0.0228,-0.0533,3288,2019-08-07 17:01:46:702
-0.4948,9.9975,0.5602,0.2153,-0.1713,-0.7765,0.0315,-0.0187,-0.0394,3293,2019-08-07 17:01:46:707
-0.4948,9.9975,0.5602,0.2153,-0.1713,-0.7765,0.0315,-0.0187,-0.0394,3298,2019-08-07 17:01:46:712
-0.4517,9.9737,0.3952,0.2153,-0.1713,-0.7765,0.0315,-0.0187,-0.0394,3303,2019-08-07 17:01:46:717
-0.4517,9.9737,0.3952,0.3392,-0.1048,-0.4991,0.0581,-0.0198,-0.033,3307,2019-08-07 17:01:46:721
-0.3847,9.7398,0.1313,0.3392,-0.1048,-0.4991,0.0581,-0.0198,-0.033,3313,2019-08-07 17:01:46:727
-0.3847,9.7398,0.1313,0.3392,-0.1048,-0.4991,0.056,0.0037,-0.0192,3318,2019-08-07 17:01:46:732
-0.3847,9.7398,0.1313,0.3392,-0.1048,-0.4991,0.056,0.0037,-0.0192,3323,2019-08-07 17:01:46:737
-0.313,9.8018,0.0323,0.0657,-1.0E-4,-0.3513,0.0538,-0.0059,-0.0213,3328,2019-08-07 17:01:46:742
-0.313,9.8018,0.0323,0.0657,-1.0E-4,-0.3513,0.0538,-0.0059,-0.0213,3333,2019-08-07 17:01:46:747
-0.2173,9.7827,-0.128,0.0657,-1.0E-4,-0.3513,0.0517,0.0079,-0.0192,3337,2019-08-07 17:01:46:751
-0.2173,9.7827,-0.128,0.0657,-1.0E-4,-0.3513,0.0517,0.0079,-0.0192,3343,2019-08-07 17:01:46:757
-0.2173,9.7827,-0.128,-0.1299,-0.0482,-0.2181,0.04,0.0218,-0.0298,3348,2019-08-07 17:01:46:762
-0.1742,9.883,-0.1893,-0.1299,-0.0482,-0.2181,0.04,0.0218,-0.0298,3353,2019-08-07 17:01:46:767
-0.1742,9.883,-0.1893,-0.1299,-0.0482,-0.2181,0.04,0.0218,-0.0298,3359,2019-08-07 17:01:46:773
0.6822,8.5272,0.975,-0.1299,-0.0482,-0.2181,-0.0868,-1.1298,-0.0224,3363,2019-08-07 17:01:46:777
0.6822,8.5272,0.975,0.1037,-0.1196,2.4192,-0.0868,-1.1298,-0.0224,3368,2019-08-07 17:01:46:782
0.6822,8.5272,0.975,0.1037,-0.1196,2.4192,-0.0079,-0.3425,0.0479,3373,2019-08-07 17:01:46:787
0.6487,10.3031,-1.8344,0.1037,-0.1196,2.4192,-0.0079,-0.3425,0.0479,3378,2019-08-07 17:01:46:792
0.6487,10.3031,-1.8344,0.1037,-0.1196,2.4192,-0.0708,0.188,-0.0767,3383,2019-08-07 17:01:46:797
-0.3607,10.6277,0.0653,-0.5272,-0.3016,-0.1507,-0.0708,0.188,-0.0767,3387,2019-08-07 17:01:46:801
-0.3607,10.6277,0.0653,-0.5272,-0.3016,-0.1507,-0.0708,0.188,-0.0767,3393,2019-08-07 17:01:46:807
-0.3607,10.6277,0.0653,-0.5272,-0.3016,-0.1507,-0.0846,0.221,-0.0266,3398,2019-08-07 17:01:46:812
-0.3703,9.7875,0.3905,-0.5272,-0.3016,-0.1507,-0.0846,0.221,-0.0266,3402,2019-08-07 17:01:46:816
-0.3703,9.7875,0.3905,0.4867,-0.2393,-0.7322,-0.0292,0.1347,-0.0543,3408,2019-08-07 17:01:46:822
-0.5904,10.0644,0.1501,0.4867,-0.2393,-0.7322,-0.0292,0.1347,-0.0543,3413,2019-08-07 17:01:46:827
-0.5904,10.0644,0.1501,0.4867,-0.2393,-0.7322,-0.0346,0.09,-0.0202,3418,2019-08-07 17:01:46:832
-0.5904,10.0644,0.1501,0.4867,-0.2393,-0.7322,-0.0346,0.09,-0.0202,3422,2019-08-07 17:01:46:836
-0.2746,9.84,-0.0243,-0.0034,-0.0387,-0.2809,-0.0197,0.1603,-0.0181,3428,2019-08-07 17:01:46:842
-0.2746,9.84,-0.0243,-0.0034,-0.0387,-0.2809,-0.0197,0.1603,-0.0181,3433,2019-08-07 17:01:46:847
-0.2746,9.84,-0.0243,-0.0034,-0.0387,-0.2809,-0.0282,0.2529,-0.0053,3438,2019-08-07 17:01:46:852
-0.2076,9.883,0.1596,-0.0034,-0.0387,-0.2809,-0.0282,0.2529,-0.0053,3442,2019-08-07 17:01:46:856
-0.2076,9.883,0.1596,-0.1089,-0.1626,-0.6833,-0.0367,0.2125,-0.0128,3449,2019-08-07 17:01:46:863
-0.2076,9.883,0.1596,-0.1089,-0.1626,-0.6833,-0.0367,0.2125,-0.0128,3452,2019-08-07 17:01:46:866
-0.4994,10.0357,0.6451,-0.1089,-0.1626,-0.6833,-0.0367,0.2125,-0.0128,3458,2019-08-07 17:01:46:872
-0.4994,10.0357,0.6451,-0.1089,-0.1626,-0.6833,-0.0207,0.0463,-0.0053,3463,2019-08-07 17:01:46:877
-0.4994,9.8782,0.6592,0.2187,-0.0763,-0.9445,-0.0207,0.0463,-0.0053,3468,2019-08-07 17:01:46:882
-0.4994,9.8782,0.6592,0.2187,-0.0763,-0.9445,0.0347,-0.0475,0.0032,3473,2019-08-07 17:01:46:887
-0.4994,9.8782,0.6592,0.2187,-0.0763,-0.9445,0.0347,-0.0475,0.0032,3477,2019-08-07 17:01:46:891
-0.1645,9.8973,0.1077,0.2187,-0.0763,-0.9445,0.0315,-0.0304,0.0064,3483,2019-08-07 17:01:46:897
-0.1645,9.8973,0.1077,-0.3156,-0.1193,-0.4189,0.0315,-0.0304,0.0064,3488,2019-08-07 17:01:46:902