ACCELEROMETER X (m/s²),ACCELEROMETER Y (m/s²),ACCELEROMETER Z (m/s²),LINEAR ACCELERATION X (m/s²),LINEAR ACCELERATION Y (m/s²),LINEAR ACCELERATION Z (m/s²),GYROSCOPE X (rad/s),GYROSCOPE Y (rad/s),GYROSCOPE Z (rad/s),Time since start in ms ,YYYY-MO-DD HH-MI-SS_SSS
-0.6521,9.8977,1.0024,0.1223,-0.0829,-0.4028,-0.0101,-0.0965,-0.0362,1,2019-08-07 17:01:02:432
-0.5803,9.8356,0.6677,0.1223,-0.0829,-0.4028,-0.0122,-0.0943,-0.0362,8,2019-08-07 17:01:02:439
-0.5803,9.8356,0.6677,0.1223,-0.0829,-0.4028,-0.0122,-0.0943,-0.0362,12,2019-08-07 17:01:02:443
-0.5803,9.8356,0.6677,0.0204,-0.0644,-0.2606,-0.0122,-0.0943,-0.0362,16,2019-08-07 17:01:02:447
-0.5612,9.912,0.7479,0.0204,-0.0644,-0.2606,-0.0218,-0.056,-0.032,22,2019-08-07 17:01:02:453
-0.5612,9.912,0.7479,0.0204,-0.0644,-0.2606,-0.0218,-0.056,-0.032,27,2019-08-07 17:01:02:458
-0.6617,9.9645,0.7337,0.0204,-0.0644,-0.2606,-0.0175,-0.0538,-0.0267,32,2019-08-07 17:01:02:463
-0.6617,9.9645,0.7337,0.0815,-0.0794,-0.3669,-0.0175,-0.0538,-0.0267,37,2019-08-07 17:01:02:468
-0.6617,9.9645,0.7337,0.0815,-0.0794,-0.3669,-0.0111,-0.072,-0.0267,42,2019-08-07 17:01:02:473
-0.5516,9.7879,0.9176,0.0815,-0.0794,-0.3669,-0.0111,-0.072,-0.0267,47,2019-08-07 17:01:02:478
-0.5516,9.7879,0.9176,0.0815,-0.0794,-0.3669,-0.0026,-0.1007,-0.0256,52,2019-08-07 17:01:02:483
-0.5516,9.7879,0.9176,0.0815,-0.0794,-0.3669,-0.0026,-0.1007,-0.0256,57,2019-08-07 17:01:02:488
-0.5421,9.8595,1.2004,0.0054,-0.0752,-0.7372,0.0112,-0.0826,-0.0203,61,2019-08-07 17:01:02:492
-0.5421,9.8595,1.2004,0.0054,-0.0752,-0.7372,0.0112,-0.0826,-0.0203,67,2019-08-07 17:01:02:498
-0.2885,9.8404,0.8327,0.0054,-0.0752,-0.7372,0.0112,-0.0826,-0.0203,72,2019-08-07 17:01:02:503
-0.2885,9.8404,0.8327,0.0054,-0.0752,-0.7372,0.0091,-0.024,-0.0277,77,2019-08-07 17:01:02:508
-0.2885,9.8404,0.8327,-0.1888,-0.0802,-0.7486,0.0091,-0.024,-0.0277,82,2019-08-07 17:01:02:513
-0.4368,9.8356,1.2994,-0.1888,-0.0802,-0.7486,0.0294,-0.0155,-0.0213,86,2019-08-07 17:01:02:517
-0.4368,9.8356,1.2994,-0.1888,-0.0802,-0.7486,0.0294,-0.0155,-0.0213,92,2019-08-07 17:01:02:523
-0.7095,9.7975,0.6819,-0.1888,-0.0802,-0.7486,0.0411,-0.0016,-0.0171,96,2019-08-07 17:01:02:527
-0.7095,9.7975,0.6819,0.1995,-0.0278,-0.1898,0.0411,-0.0016,-0.0171,102,2019-08-07 17:01:02:533
-0.7095,9.7975,0.6819,0.1995,-0.0278,-0.1898,0.0368,0.0324,-0.0181,107,2019-08-07 17:01:02:538
-0.7717,9.8834,0.9741,0.2253,-0.0995,-0.5128,0.0368,0.0324,-0.0181,112,2019-08-07 17:01:02:543
-0.7717,9.8834,0.9741,0.2253,-0.0995,-0.5128,0.0517,0.0058,-0.016,117,2019-08-07 17:01:02:548
-0.7717,9.8834,0.9741,0.2253,-0.0995,-0.5128,0.0517,0.0058,-0.016,122,2019-08-07 17:01:02:553
-0.5182,9.8022,0.9694,0.2253,-0.0995,-0.5128,0.0741,-0.0464,-0.0149,127,2019-08-07 17:01:02:558
-0.5182,9.8022,0.9694,-0.2229,-0.0468,-0.2896,0.0741,-0.0464,-0.0149,132,2019-08-07 17:01:02:563
-0.2933,9.912,0.5358,-0.2229,-0.0468,-0.2896,0.0741,-0.0464,-0.0181,137,2019-08-07 17:01:02:568
-0.2933,9.912,0.5358,-0.2229,-0.0468,-0.2896,0.0741,-0.0464,-0.0181,142,2019-08-07 17:01:02:573
-0.2933,9.912,0.5358,-0.2229,-0.0468,-0.2896,0.0475,0.025,-0.0203,146,2019-08-07 17:01:02:577
-0.3986,9.8213,0.729,-0.1531,-0.0368,-0.2868,0.0475,0.025,-0.0203,152,2019-08-07 17:01:02:583
-0.3986,9.8213,0.729,-0.1531,-0.0368,-0.2868,0.04,0.0783,-0.0192,157,2019-08-07 17:01:02:588
-0.6234,9.764,1.3607,-0.1531,-0.0368,-0.2868,0.04,0.0783,-0.0192,163,2019-08-07 17:01:02:594
-0.6234,9.764,1.3607,-0.1531,-0.0368,-0.2868,0.0858,0.0133,-0.0235,167,2019-08-07 17:01:02:598
-0.6234,9.764,1.3607,0.0621,-0.0083,-1.0031,0.0858,0.0133,-0.0235,172,2019-08-07 17:01:02:603
-0.5995,9.7784,1.4785,0.0621,-0.0083,-1.0031,0.138,-0.0485,-0.033,177,2019-08-07 17:01:02:608
-0.5995,9.7784,1.4785,0.0621,-0.0083,-1.0031,0.138,-0.0485,-0.033,182,2019-08-07 17:01:02:613
-0.1833,9.6829,0.894,0.0621,-0.0083,-1.0031,0.138,-0.0485,-0.033,187,2019-08-07 17:01:02:618
-0.1833,9.6829,0.894,-0.4885,0.0735,-0.3456,0.171,-0.0549,-0.049,191,2019-08-07 17:01:02:622
-0.1833,9.6829,0.894,-0.4885,0.0735,-0.3456,0.171,-0.0549,-0.049,197,2019-08-07 17:01:02:628
0.1468,9.9025,0.6866,-0.4885,0.0735,-0.3456,0.1764,0.0207,-0.0757,202,2019-08-07 17:01:02:633
0.1468,9.9025,0.6866,-0.4885,0.0735,-0.3456,0.1764,0.0207,-0.0757,206,2019-08-07 17:01:02:637
0.0416,9.9359,0.3566,-0.6363,-0.0832,-0.0814,0.1604,0.1251,-0.0948,212,2019-08-07 17:01:02:643
0.0416,9.9359,0.3566,-0.6363,-0.0832,-0.0814,0.1604,0.1251,-0.0948,217,2019-08-07 17:01:02:648
0.0416,9.9359,0.3566,-0.6363,-0.0832,-0.0814,0.1604,0.1251,-0.0948,222,2019-08-07 17:01:02:653
-0.4943,9.912,0.564,-0.6363,-0.0832,-0.0814,0.1327,0.237,-0.1161,227,2019-08-07 17:01:02:658
-0.4943,9.912,0.564,0.1179,-0.1406,-0.3894,0.1327,0.237,-0.1161,232,2019-08-07 17:01:02:663
-0.4943,9.912,0.564,0.1179,-0.1406,-0.3894,0.1306,0.2167,-0.1119,236,2019-08-07 17:01:02:667
-0.9631,9.9025,0.96,0.1179,-0.1406,-0.3894,0.1306,0.2167,-0.1119,242,2019-08-07 17:01:02:673
-0.9631,9.9025,0.96,0.1179,-0.1406,-0.3894,0.1487,0.1091,-0.098,247,2019-08-07 17:01:02:678
-1.0397,9.9884,0.6866,0.4231,-0.2033,-0.358,0.1487,0.1091,-0.098,251,2019-08-07 17:01:02:682
-1.0397,9.9884,0.6866,0.4231,-0.2033,-0.358,0.1529,0.0367,-0.0906,257,2019-08-07 17:01:02:688
-1.0397,10.0027,0.5405,0.4125,-0.2178,-0.2265,0.1529,0.0367,-0.0906,262,2019-08-07 17:01:02:693
-1.0397,10.0027,0.5405,0.4125,-0.2178,-0.2265,0.1529,0.0367,-0.0906,267,2019-08-07 17:01:02:698
-1.0397,10.0027,0.5405,0.4125,-0.2178,-0.2265,0.1433,0.0207,-0.0789,272,2019-08-07 17:01:02:703
-0.81,10.0075,0.564,0.4125,-0.2178,-0.2265,0.1433,0.0207,-0.0789,277,2019-08-07 17:01:02:708
-0.81,10.0075,0.564,0.1177,-0.3136,-0.2205,0.1391,-0.0038,-0.0746,281,2019-08-07 17:01:02:712
-0.7431,10.0791,0.399,0.1177,-0.3136,-0.2205,0.1391,-0.0038,-0.0746,287,2019-08-07 17:01:02:718
-0.7431,10.0791,0.399,0.1177,-0.3136,-0.2205,0.1274,-0.0038,-0.0671,292,2019-08-07 17:01:02:723
-0.7431,10.0791,0.399,0.1177,-0.3136,-0.2205,0.1274,-0.0038,-0.0671,297,2019-08-07 17:01:02:728
-0.7479,10.0027,0.2011,0.1277,-0.1897,0.0139,0.1029,0.0335,-0.0671,302,2019-08-07 17:01:02:733
-0.7479,10.0027,0.2011,0.1277,-0.1897,0.0139,0.1029,0.0335,-0.0671,307,2019-08-07 17:01:02:738
-0.8866,9.85,0.498,0.1277,-0.1897,0.0139,0.0784,0.0378,-0.0554,313,2019-08-07 17:01:02:744
-0.8866,9.85,0.498,0.1277,-0.1897,0.0139,0.0784,0.0378,-0.0554,317,2019-08-07 17:01:02:748
-0.8866,9.85,0.498,0.3019,-0.109,-0.307,0.0784,0.0378,-0.0554,322,2019-08-07 17:01:02:753
-0.9727,9.8929,0.5546,0.3019,-0.109,-0.307,0.0784,-0.0368,-0.0373,327,2019-08-07 17:01:02:758
-0.9727,9.8929,0.5546,0.3019,-0.109,-0.307,0.0784,-0.0368,-0.0373,332,2019-08-07 17:01:02:763
-0.9105,10.1125,0.399,0.3019,-0.109,-0.307,0.072,-0.0986,-0.0277,337,2019-08-07 17:01:02:768
-0.9105,10.1125,0.399,0.1131,-0.3479,-0.2575,0.072,-0.0986,-0.0277,341,2019-08-07 17:01:02:772
-0.9105,10.1125,0.399,0.1131,-0.3479,-0.2575,0.0613,-0.1103,-0.0288,347,2019-08-07 17:01:02:778
-0.6905,10.0934,0.5829,0.1131,-0.3479,-0.2575,0.0613,-0.1103,-0.0288,351,2019-08-07 17:01:02:782
-0.6905,10.0934,0.5829,0.1131,-0.3479,-0.2575,0.0613,-0.1124,-0.0235,357,2019-08-07 17:01:02:788
-0.5326,9.955,0.4132,-0.1493,-0.1714,-0.1855,0.0613,-0.1124,-0.0235,362,2019-08-07 17:01:02:793
-0.5326,9.955,0.4132,-0.1493,-0.1714,-0.1855,0.0507,-0.1082,-0.0277,366,2019-08-07 17:01:02:797
-0.5326,9.955,0.4132,-0.1493,-0.1714,-0.1855,0.0507,-0.1082,-0.0277,372,2019-08-07 17:01:02:803
-0.4943,9.9693,0.5923,-0.1493,-0.1714,-0.1855,0.04,-0.0794,-0.033,377,2019-08-07 17:01:02:808
-0.4943,9.9693,0.5923,-0.1493,-0.1714,-0.1855,0.04,-0.0794,-0.033,381,2019-08-07 17:01:02:812
-0.5469,10.0409,0.6206,-0.1727,-0.205,-0.4404,0.0432,-0.0773,-0.032,387,2019-08-07 17:01:02:818
-0.5469,10.0409,0.6206,-0.1727,-0.205,-0.4404,0.0432,-0.0773,-0.032,391,2019-08-07 17:01:02:822
-0.5469,10.0409,0.6206,-0.1727,-0.205,-0.4404,0.0485,-0.1018,-0.0203,397,2019-08-07 17:01:02:828
-0.6091,9.8213,0.3472,-0.1727,-0.205,-0.4404,0.0485,-0.1018,-0.0203,401,2019-08-07 17:01:02:832
-0.6091,9.8213,0.3472,-0.0137,-0.0094,-0.0496,0.0485,-0.1018,-0.0203,407,2019-08-07 17:01:02:838
-0.6091,9.8213,0.3472,-0.0137,-0.0094,-0.0496,0.0272,-0.0858,-0.0245,412,2019-08-07 17:01:02:843
-0.7622,9.807,0.2906,-0.0137,-0.0094,-0.0496,0.0112,-0.0528,-0.0256,417,2019-08-07 17:01:02:848
-0.7622,9.807,0.2906,-0.0137,-0.0094,-0.0496,0.0112,-0.0528,-0.0256,422,2019-08-07 17:01:02:853
-0.8531,9.7879,0.6159,0.1152,0.0189,-0.3395,0.0112,-0.0528,-0.0256,427,2019-08-07 17:01:02:858
-0.8531,9.7879,0.6159,0.1152,0.0189,-0.3395,0.0155,-0.0666,-0.0235,432,2019-08-07 17:01:02:863
-0.8531,9.7879,0.6159,0.1152,0.0189,-0.3395,0.0155,-0.0666,-0.0235,437,2019-08-07 17:01:02:868
-0.8053,9.7115,0.6347,0.1152,0.0189,-0.3395,0.0251,-0.0837,-0.0203,442,2019-08-07 17:01:02:873
-0.8053,9.7115,0.6347,0.1007,-0.0196,-0.4707,0.0251,-0.0837,-0.0203,447,2019-08-07 17:01:02:878
-0.7048,9.9502,0.6536,0.1007,-0.0196,-0.4707,0.0336,-0.0783,-0.0192,451,2019-08-07 17:01:02:882
-0.7048,9.9502,0.6536,0.1007,-0.0196,-0.4707,0.0336,-0.0783,-0.0192,457,2019-08-07 17:01:02:888
-0.6426,9.9932,0.696,0.1007,-0.0196,-0.4707,0.0368,-0.0698,-0.0235,461,2019-08-07 17:01:02:892
-0.6426,9.9932,0.696,-0.1086,-0.2108,-0.4023,0.0368,-0.0698,-0.0235,468,2019-08-07 17:01:02:899
-0.6426,9.9932,0.696,-0.1086,-0.2108,-0.4023,0.0432,-0.0485,-0.0235,471,2019-08-07 17:01:02:902
-0.6187,10.0505,0.4367,-0.0862,-0.2681,-0.2259,0.0432,-0.0485,-0.0235,477,2019-08-07 17:01:02:908
-0.6187,10.0505,0.4367,-0.0862,-0.2681,-0.2259,0.0294,-0.0443,-0.0245,482,2019-08-07 17:01:02:913
-0.6187,10.0505,0.4367,-0.0862,-0.2681,-0.2259,0.0294,-0.0443,-0.0245,487,2019-08-07 17:01:02:918
-0.6857,9.7831,0.3802,-0.0862,-0.2681,-0.2259,0.0251,-0.0389,-0.0288,492,2019-08-07 17:01:02:923
-0.6857,9.7831,0.3802,0.0716,-0.0249,-0.2013,0.0251,-0.0389,-0.0288,497,2019-08-07 17:01:02:928
-0.6857,9.7831,0.3802,0.0716,-0.0249,-0.2013,0.0187,-0.0549,-0.0288,501,2019-08-07 17:01:02:932
-0.8149,9.85,0.4415,0.0716,-0.0249,-0.2013,0.0187,-0.0549,-0.0288,508,2019-08-07 17:01:02:939
-0.8149,9.85,0.4415,0.0716,-0.0249,-0.2013,0.0155,-0.0911,-0.0213,512,2019-08-07 17:01:02:943
-0.791,9.9646,0.5216,0.0562,-0.1399,-0.3342,0.0155,-0.0911,-0.0213,516,2019-08-07 17:01:02:947
-0.791,9.9646,0.5216,0.0562,-0.1399,-0.3342,0.0155,-0.0911,-0.0213,522,2019-08-07 17:01:02:953
-0.791,9.9646,0.5216,0.0562,-0.1399,-0.3342,0.0155,-0.1156,-0.0224,526,2019-08-07 17:01:02:957
-0.7049,9.8452,0.4744,0.0562,-0.1399,-0.3342,0.0155,-0.1156,-0.0224,532,2019-08-07 17:01:02:963
-0.7049,9.8452,0.4744,-0.0865,-0.0304,-0.2153,0.0091,-0.1241,-0.0149,537,2019-08-07 17:01:02:968
-0.5661,9.7497,0.4509,-0.0865,-0.0304,-0.2153,0.0091,-0.1241,-0.0149,542,2019-08-07 17:01:02:973
-0.5661,9.7497,0.4509,-0.0865,-0.0304,-0.2153,0.0049,-0.089,-0.0203,547,2019-08-07 17:01:02:978
-0.5661,9.7497,0.4509,-0.0865,-0.0304,-0.2153,0.0049,-0.089,-0.0203,552,2019-08-07 17:01:02:983
-0.6379,9.8213,0.63,-0.084,-0.0402,-0.4197,-0.0122,-0.0379,-0.0139,558,2019-08-07 17:01:02:989
-0.6379,9.8213,0.63,-0.084,-0.0402,-0.4197,-0.0122,-0.0379,-0.0139,562,2019-08-07 17:01:02:993
-0.6379,9.8213,0.63,-0.084,-0.0402,-0.4197,-0.0122,-0.0379,-0.0139,567,2019-08-07 17:01:02:998
-0.5901,9.7832,0.3943,-0.084,-0.0402,-0.4197,-0.0143,0.0282,-0.0171,572,2019-08-07 17:01:03:003
-0.5901,9.7832,0.3943,0.0375,-0.1408,-0.2361,-0.0143,0.0282,-0.0171,577,2019-08-07 17:01:03:008
-0.8723,9.9168,0.6206,0.0375,-0.1408,-0.2361,-0.0175,0.0548,-0.033,582,2019-08-07 17:01:03:013
-0.8723,9.9168,0.6206,0.0375,-0.1408,-0.2361,-0.0175,0.0548,-0.033,587,2019-08-07 17:01:03:018
-0.9202,9.7832,0.7903,0.0375,-0.1408,-0.2361,0.0059,0.0058,-0.0256,591,2019-08-07 17:01:03:022
-0.9202,9.7832,0.7903,0.1404,0.0114,-0.4292,0.0059,0.0058,-0.0256,598,2019-08-07 17:01:03:029
-0.9202,9.7832,0.7903,0.1404,0.0114,-0.4292,0.0059,0.0058,-0.0256,601,2019-08-07 17:01:03:032
-0.7767,9.7927,0.6441,0.0233,-0.0365,-0.4293,0.0262,-0.0634,-0.0213,607,2019-08-07 17:01:03:038
-0.7767,9.7927,0.6441,0.0233,-0.0365,-0.4293,0.0357,-0.0751,-0.0224,612,2019-08-07 17:01:03:043
-0.5757,9.8548,0.5499,0.0233,-0.0365,-0.4293,0.0357,-0.0751,-0.0224,617,2019-08-07 17:01:03:048
-0.5757,9.8548,0.5499,0.0233,-0.0365,-0.4293,0.0357,-0.0751,-0.0224,622,2019-08-07 17:01:03:053
-0.5757,9.8548,0.5499,-0.2621,-0.0797,-0.2763,0.0315,-0.0613,-0.0277,627,2019-08-07 17:01:03:058
-0.5135,9.8166,0.5357,-0.2621,-0.0797,-0.2763,0.0315,-0.0613,-0.0277,631,2019-08-07 17:01:03:062
-0.5135,9.8166,0.5357,-0.2621,-0.0797,-0.2763,0.0315,-0.0283,-0.0416,637,2019-08-07 17:01:03:068
-0.5614,9.7306,0.6771,-0.2621,-0.0797,-0.2763,0.0315,-0.0283,-0.0416,642,2019-08-07 17:01:03:073
-0.5614,9.7306,0.6771,-0.1682,0.0488,-0.5575,0.0389,-0.024,-0.0448,646,2019-08-07 17:01:03:077
-0.5614,9.7306,0.6771,-0.1682,0.0488,-0.5575,0.0389,-0.024,-0.0448,652,2019-08-07 17:01:03:083
-0.6571,9.9407,0.993,-0.1682,0.0488,-0.5575,0.0581,-0.0517,-0.0501,657,2019-08-07 17:01:03:088
-0.6571,9.9407,0.993,-0.1682,0.0488,-0.5575,0.0581,-0.0517,-0.0501,662,2019-08-07 17:01:03:093
-0.6188,9.9073,0.729,-0.1337,-0.1284,-0.5212,0.0805,-0.0922,-0.0448,667,2019-08-07 17:01:03:098
-0.6188,9.9073,0.729,-0.1337,-0.1284,-0.5212,0.0805,-0.0922,-0.0448,672,2019-08-07 17:01:03:103
-0.6188,9.9073,0.729,-0.1337,-0.1284,-0.5212,0.0933,-0.1018,-0.0469,677,2019-08-07 17:01:03:108
-0.4753,9.85,0.4886,-0.1337,-0.1284,-0.5212,0.0933,-0.1018,-0.0469,682,2019-08-07 17:01:03:113
-0.4753,9.85,0.4886,-0.1652,-0.1144,-0.4175,0.1071,-0.0922,-0.0554,687,2019-08-07 17:01:03:118
-0.7145,9.7879,0.63,-0.1652,-0.1144,-0.4175,0.1071,-0.0922,-0.0554,692,2019-08-07 17:01:03:123
-0.7145,9.7879,0.63,-0.1652,-0.1144,-0.4175,0.1124,-0.0666,-0.0554,697,2019-08-07 17:01:03:128
-0.7145,9.7879,0.63,-0.1652,-0.1144,-0.4175,0.1124,-0.0666,-0.0554,702,2019-08-07 17:01:03:133
-0.7958,9.6352,0.6488,0.0769,0.1572,-0.4823,0.1156,-0.0432,-0.0693,707,2019-08-07 17:01:03:138
-0.7958,9.6352,0.6488,0.0769,0.1572,-0.4823,0.1156,-0.0432,-0.0693,712,2019-08-07 17:01:03:143
-0.8102,9.807,0.7196,0.0769,0.1572,-0.4823,0.1391,-0.056,-0.0767,717,2019-08-07 17:01:03:148
-0.8102,9.807,0.7196,0.0769,0.1572,-0.4823,0.1391,-0.056,-0.0767,721,2019-08-07 17:01:03:152
-0.8102,9.807,0.7196,-0.0525,-0.1205,-0.3254,0.1582,-0.0666,-0.0757,727,2019-08-07 17:01:03:158
-0.6667,9.8548,0.4084,-0.0525,-0.1205,-0.3254,0.1582,-0.0666,-0.0757,732,2019-08-07 17:01:03:163
-0.6667,9.8548,0.4084,-0.0525,-0.1205,-0.3254,0.154,-0.0272,-0.0863,737,2019-08-07 17:01:03:168
-0.7145,9.9216,0.2435,-0.0525,-0.1205,-0.3254,0.154,-0.0272,-0.0863,741,2019-08-07 17:01:03:172
-0.7145,9.9216,0.2435,-0.1064,-0.1404,-0.2547,0.154,-0.0272,-0.0863,747,2019-08-07 17:01:03:178
-0.7145,9.9216,0.2435,-0.1064,-0.1404,-0.2547,0.1412,0.0197,-0.0938,752,2019-08-07 17:01:03:183
-0.6714,9.955,0.696,-0.1064,-0.1404,-0.2547,0.1412,0.0197,-0.0938,756,2019-08-07 17:01:03:187
-0.6714,9.955,0.696,-0.1064,-0.1404,-0.2547,0.1636,-0.0027,-0.1034,762,2019-08-07 17:01:03:193
-0.5758,9.8834,0.6017,-0.2443,-0.1082,-0.5026,0.1636,-0.0027,-0.1034,767,2019-08-07 17:01:03:198
-0.5758,9.8834,0.6017,-0.2443,-0.1082,-0.5026,0.1859,-0.0283,-0.1055,772,2019-08-07 17:01:03:203
-0.5758,9.8834,0.6017,-0.2443,-0.1082,-0.5026,0.1859,-0.0283,-0.1055,777,2019-08-07 17:01:03:208
-0.4562,9.8882,0.3519,-0.2443,-0.1082,-0.5026,0.1849,0.0111,-0.1215,782,2019-08-07 17:01:03:213
-0.4562,9.8882,0.3519,-0.2443,-0.1082,-0.5026,0.1849,0.0111,-0.1215,787,2019-08-07 17:01:03:218
-0.571,9.8548,0.3943,-0.3313,-0.1001,-0.1695,0.1764,0.0676,-0.1332,793,2019-08-07 17:01:03:224
-0.571,9.8548,0.3943,-0.3313,-0.1001,-0.1695,0.1764,0.0676,-0.1332,797,2019-08-07 17:01:03:228
-0.571,9.8548,0.3943,-0.3313,-0.1001,-0.1695,0.1764,0.0676,-0.1332,801,2019-08-07 17:01:03:232
-0.882,9.8786,0.2717,-0.3313,-0.1001,-0.1695,0.1668,0.09,-0.1332,807,2019-08-07 17:01:03:238
-0.882,9.8786,0.2717,0.0641,-0.1499,-0.1551,0.1668,0.09,-0.1332,812,2019-08-07 17:01:03:243
-0.882,9.8786,0.2717,0.0641,-0.1499,-0.1551,0.1465,0.0751,-0.1279,817,2019-08-07 17:01:03:248
-1.1541,10.0075,0.1776,0.0641,-0.1499,-0.1551,0.1465,0.0751,-0.1279,822,2019-08-07 17:01:03:253
-1.1541,10.0075,0.1776,0.0641,-0.1499,-0.1551,0.1306,0.0303,-0.1129,827,2019-08-07 17:01:03:258
-1.2498,10.0457,0.1964,0.3913,-0.2954,-0.2164,0.1306,0.0303,-0.1129,832,2019-08-07 17:01:03:263
-1.2498,10.0457,0.1964,0.3913,-0.2954,-0.2164,0.1306,0.0303,-0.1129,836,2019-08-07 17:01:03:267
-1.2498,10.0457,0.1964,0.3032,-0.2678,-0.0351,0.1252,-0.0464,-0.097,842,2019-08-07 17:01:03:273
-1.1398,9.9932,-0.011,0.3032,-0.2678,-0.0351,0.1252,-0.0464,-0.097,847,2019-08-07 17:01:03:278
-1.1398,9.9932,-0.011,0.3032,-0.2678,-0.0351,0.106,-0.0922,-0.0991,851,2019-08-07 17:01:03:282
-0.9053,10.1555,-0.0298,0.3032,-0.2678,-0.0351,0.106,-0.0922,-0.0991,857,2019-08-07 17:01:03:288
-0.9053,10.1555,-0.0298,-0.0946,-0.3938,0.0,0.0965,-0.0847,-0.097,863,2019-08-07 17:01:03:294
-0.9053,10.1555,-0.0298,-0.0946,-0.3938,0.0,0.0965,-0.0847,-0.097,866,2019-08-07 17:01:03:297
-0.7857,10.1364,-0.1194,-0.0946,-0.3938,0.0,0.0752,-0.0453,-0.1055,872,2019-08-07 17:01:03:303
-0.7857,10.1364,-0.1194,-0.0946,-0.3938,0.0,0.0752,-0.0453,-0.1055,877,2019-08-07 17:01:03:308
-0.9197,9.9788,-0.1524,-0.0751,-0.2334,0.1537,0.0752,-0.0453,-0.1055,882,2019-08-07 17:01:03:313
-0.9197,9.9788,-0.1524,-0.0751,-0.2334,0.1537,0.0347,0.0186,-0.114,887,2019-08-07 17:01:03:318
-0.9197,9.9788,-0.1524,-0.0751,-0.2334,0.1537,0.0347,0.0186,-0.114,892,2019-08-07 17:01:03:323
-1.1589,9.9454,0.1399,-0.0751,-0.2334,0.1537,0.0134,0.0239,-0.1151,897,2019-08-07 17:01:03:328
-1.1589,9.9454,0.1399,0.3036,-0.3025,-0.3887,0.0134,0.0239,-0.1151,902,2019-08-07 17:01:03:333
-1.1589,9.9454,0.1399,0.3036,-0.3025,-0.3887,0.0144,-0.0538,-0.0948,907,2019-08-07 17:01:03:338
-1.2881,10.1077,0.3897,0.3036,-0.3025,-0.3887,0.0144,-0.0538,-0.0948,912,2019-08-07 17:01:03:343
-1.2881,10.1077,0.3897,0.3036,-0.3025,-0.3887,0.0155,-0.0996,-0.0895,917,2019-08-07 17:01:03:348
-1.0728,10.0313,0.2247,0.0867,-0.2711,-0.2744,0.0155,-0.0996,-0.0895,922,2019-08-07 17:01:03:353
-1.0728,10.0313,0.2247,0.0867,-0.2711,-0.2744,0.0091,-0.1146,-0.0874,927,2019-08-07 17:01:03:358
-0.7953,10.0982,0.1682,0.0867,-0.2711,-0.2744,0.0091,-0.1146,-0.0874,932,2019-08-07 17:01:03:363
-0.7953,10.0982,0.1682,0.0867,-0.2711,-0.2744,0.0091,-0.1146,-0.0874,936,2019-08-07 17:01:03:367
-0.7953,10.0982,0.1682,-0.2124,-0.4447,-0.098,6.0E-4,-0.1028,-0.097,942,2019-08-07 17:01:03:373
-0.7139,10.1841,0.0362,-0.2124,-0.4447,-0.098,6.0E-4,-0.1028,-0.097,946,2019-08-07 17:01:03:377
-0.7139,10.1841,0.0362,-0.2124,-0.4447,-0.098,-0.0047,-0.0517,-0.1023,952,2019-08-07 17:01:03:383
-0.7139,10.1841,0.0362,-0.2124,-0.4447,-0.098,-0.0047,-0.0517,-0.1023,956,2019-08-07 17:01:03:387
-0.7713,10.0791,0.0927,-0.1831,-0.3129,-0.1697,-0.0218,-0.0038,-0.1108,962,2019-08-07 17:01:03:393
-0.7713,10.0791,0.0927,-0.1831,-0.3129,-0.1697,-0.0218,-0.0038,-0.1108,967,2019-08-07 17:01:03:398
-0.7713,10.0791,0.0927,-0.1831,-0.3129,-0.1697,-0.0356,0.0548,-0.1161,971,2019-08-07 17:01:03:402
-1.044,10.1268,0.3426,-0.1831,-0.3129,-0.1697,-0.0356,0.0548,-0.1161,976,2019-08-07 17:01:03:407
-1.044,10.1268,0.3426,0.2012,-0.2771,-0.3872,-0.0399,0.0399,-0.1065,982,2019-08-07 17:01:03:413
-1.044,10.1268,0.3426,0.2012,-0.2771,-0.3872,-0.0399,0.0399,-0.1065,987,2019-08-07 17:01:03:418
-1.312,9.8165,0.4038,0.2012,-0.2771,-0.3872,-0.0356,0.0292,-0.1034,992,2019-08-07 17:01:03:423
-1.312,9.8165,0.4038,0.2012,-0.2771,-0.3872,-0.0356,0.0292,-0.1034,997,2019-08-07 17:01:03:428
-1.312,9.8165,0.4038,0.2603,0.1741,-0.4245,-0.0239,0.009,-0.0959,1002,2019-08-07 17:01:03:433
-1.2354,9.511,0.2671,0.2603,0.1741,-0.4245,-0.0239,0.009,-0.0959,1007,2019-08-07 17:01:03:438
-1.2354,9.511,0.2671,0.2069,0.3591,-0.1627,-0.0047,0.0133,-0.0959,1013,2019-08-07 17:01:03:444
-1.1828,9.4394,0.121,0.2069,0.3591,-0.1627,-0.0047,0.0133,-0.0959,1017,2019-08-07 17:01:03:448
-1.1828,9.4394,0.121,0.2069,0.3591,-0.1627,-0.0047,0.0133,-0.0959,1022,2019-08-07 17:01:03:453
-1.1828,9.4394,0.121,0.2069,0.3591,-0.1627,0.0102,0.0324,-0.1002,1027,2019-08-07 17:01:03:458
-1.0105,9.5635,0.2624,-0.0664,0.1134,-0.422,0.0102,0.0324,-0.1002,1031,2019-08-07 17:01:03:462
-1.0105,9.5635,0.2624,-0.0664,0.1134,-0.422,0.0325,0.0367,-0.0959,1037,2019-08-07 17:01:03:468
-0.934,9.8738,0.6113,-0.0664,0.1134,-0.422,0.0325,0.0367,-0.0959,1042,2019-08-07 17:01:03:473
-0.934,9.8738,0.6113,-0.0664,0.1134,-0.422,0.0645,0.042,-0.0916,1047,2019-08-07 17:01:03:478
-0.934,9.8738,0.6113,-0.2033,-0.1415,-0.3578,0.0645,0.042,-0.0916,1052,2019-08-07 17:01:03:483
-0.8718,9.8499,0.319,-0.2033,-0.1415,-0.3578,0.0517,0.1059,-0.0948,1057,2019-08-07 17:01:03:488
-0.8718,9.8499,0.319,-0.2033,-0.1415,-0.3578,0.0517,0.1059,-0.0948,1062,2019-08-07 17:01:03:493
-0.9866,9.8786,0.5971,-0.2033,-0.1415,-0.3578,0.0517,0.1059,-0.0948,1067,2019-08-07 17:01:03:498
-0.9866,9.8786,0.5971,-0.2033,-0.1415,-0.3578,0.0539,0.1411,-0.0948,1072,2019-08-07 17:01:03:503
-0.9866,9.8786,0.5971,-0.0916,-0.134,-0.6262,0.0539,0.1411,-0.0948,1077,2019-08-07 17:01:03:508
-1.1445,9.8738,0.4887,-0.0916,-0.134,-0.6262,0.0645,0.1294,-0.0938,1082,2019-08-07 17:01:03:513
-1.1445,9.8738,0.4887,-0.0916,-0.134,-0.6262,0.0645,0.1294,-0.0938,1087,2019-08-07 17:01:03:518
-1.2784,9.9836,0.781,-0.0916,-0.134,-0.6262,0.089,0.0985,-0.0959,1092,2019-08-07 17:01:03:523
-1.2784,9.9836,0.781,0.1429,-0.313,-0.8872,0.089,0.0985,-0.0959,1097,2019-08-07 17:01:03:528
-1.2784,9.9884,0.7291,0.1429,-0.313,-0.8872,0.1284,0.058,-0.0927,1102,2019-08-07 17:01:03:533
-1.2784,9.9884,0.7291,0.1429,-0.313,-0.8872,0.1284,0.058,-0.0927,1107,2019-08-07 17:01:03:538
-1.2784,9.9884,0.7291,0.1429,-0.313,-0.8872,0.1284,0.058,-0.0927,1112,2019-08-07 17:01:03:543
-1.0344,9.9836,0.7055,-0.1102,-0.2389,-0.7139,0.1582,0.0719,-0.1119,1117,2019-08-07 17:01:03:548
-1.0344,9.9836,0.7055,-0.1102,-0.2389,-0.7139,0.1582,0.0719,-0.1119,1122,2019-08-07 17:01:03:553
-0.8957,10.2127,1.0402,-0.2406,-0.4361,-1.0155,0.1902,0.0996,-0.1342,1127,2019-08-07 17:01:03:558
-0.8957,10.2127,1.0402,-0.2406,-0.4361,-1.0155,0.1902,0.0996,-0.1342,1132,2019-08-07 17:01:03:563
-0.8957,10.2127,1.0402,-0.2406,-0.4361,-1.0155,0.2467,0.1411,-0.1662,1137,2019-08-07 17:01:03:568
-0.6134,10.3178,1.0308,-0.2406,-0.4361,-1.0155,0.2467,0.1411,-0.1662,1142,2019-08-07 17:01:03:573
-0.6134,10.3178,1.0308,-0.5972,-0.6593,-1.1306,0.2754,0.2029,-0.1928,1148,2019-08-07 17:01:03:579
-0.6134,10.3178,1.0308,-0.5972,-0.6593,-1.1306,0.2754,0.2029,-0.1928,1151,2019-08-07 17:01:03:582
-0.3599,10.6949,1.2618,-0.5972,-0.6593,-1.1306,0.2754,0.2029,-0.1928,1157,2019-08-07 17:01:03:588
-0.3599,10.6949,1.2618,-0.5972,-0.6593,-1.1306,0.333,0.3297,-0.2386,1163,2019-08-07 17:01:03:594
-0.3599,10.6949,1.2618,-0.9306,-1.5623,-2.2024,0.333,0.3297,-0.2386,1167,2019-08-07 17:01:03:598
-0.489,11.6401,2.2894,-0.9306,-1.5623,-2.2024,0.4395,0.4394,-0.3111,1172,2019-08-07 17:01:03:603
-0.489,11.6401,2.2894,-0.9306,-1.5623,-2.2024,0.4395,0.4394,-0.3111,1177,2019-08-07 17:01:03:608
-0.9866,12.0888,2.1715,-0.9306,-1.5623,-2.2024,0.5279,0.5139,-0.3292,1182,2019-08-07 17:01:03:613
-0.9866,12.0888,2.1715,-0.0626,-2.6648,-2.8852,0.5279,0.5139,-0.3292,1187,2019-08-07 17:01:03:618
-0.9866,12.0888,2.1715,-0.0626,-2.6648,-2.8852,0.6142,0.5193,-0.3068,1192,2019-08-07 17:01:03:623
-1.5607,12.9147,4.1231,0.2343,-3.2003,-4.4485,0.6142,0.5193,-0.3068,1197,2019-08-07 17:01:03:628
-1.5607,12.9147,4.1231,0.2343,-3.2003,-4.4485,0.8666,0.2093,-0.2738,1202,2019-08-07 17:01:03:633
-1.5607,12.9147,4.1231,0.2343,-3.2003,-4.4485,0.8666,0.2093,-0.2738,1207,2019-08-07 17:01:03:638
-2.1683,14.0079,5.5278,0.2343,-3.2003,-4.4485,0.8666,0.2093,-0.2738,1212,2019-08-07 17:01:03:643
-2.1683,14.0079,5.5278,1.1385,-5.1568,-5.6506,1.1149,-0.1806,-0.2354,1217,2019-08-07 17:01:03:648
-2.5032,15.3016,5.0187,1.1385,-5.1568,-5.6506,1.1149,-0.1806,-0.2354,1222,2019-08-07 17:01:03:653
-2.5032,15.3016,5.0187,1.1385,-5.1568,-5.6506,1.4014,-0.5545,-0.1779,1227,2019-08-07 17:01:03:658
-1.8047,16.223,5.1507,1.1385,-5.1568,-5.6506,1.4014,-0.5545,-0.1779,1231,2019-08-07 17:01:03:662
-1.8047,16.223,5.1507,0.1773,-6.7473,-5.6659,1.6997,-0.9689,-0.1524,1237,2019-08-07 17:01:03:668
-1.8047,16.223,5.1507,0.1773,-6.7473,-5.6659,1.6997,-0.9689,-0.1524,1242,2019-08-07 17:01:03:673
-1.0344,17.0823,3.7035,-0.4989,-7.6837,-4.0747,1.9277,-1.2661,-0.1566,1247,2019-08-07 17:01:03:678
-1.0344,17.0823,3.7035,-0.4989,-7.6837,-4.0747,1.9277,-1.2661,-0.1566,1252,2019-08-07 17:01:03:683
-1.0344,17.0823,3.7035,-0.4989,-7.6837,-4.0747,1.9277,-1.2661,-0.1566,1257,2019-08-07 17:01:03:688
-0.6804,18.7245,1.9547,-0.7861,-9.0782,-2.9718,2.0352,-1.2714,-0.1651,1262,2019-08-07 17:01:03:693
-0.6804,18.7245,1.9547,-0.7861,-9.0782,-2.9718,2.0352,-1.2714,-0.1651,1267,2019-08-07 17:01:03:698
-1.0679,21.1543,2.6853,-0.7861,-9.0782,-2.9718,2.2004,-1.2043,-0.13,1272,2019-08-07 17:01:03:703
-1.0679,21.1543,2.6853,-0.5295,-12.0571,-3.988,2.2004,-1.2043,-0.13,1277,2019-08-07 17:01:03:708
-1.0679,21.1543,2.6853,-0.5295,-12.0571,-3.988,2.2004,-1.2043,-0.13,1281,2019-08-07 17:01:03:712
-0.8287,22.3144,1.8604,-0.5295,-12.0571,-3.988,2.3069,-1.0499,-0.0863,1287,2019-08-07 17:01:03:718
-0.8287,22.3144,1.8604,-0.5295,-12.0571,-3.988,2.3069,-1.0499,-0.0863,1292,2019-08-07 17:01:03:723
-1.154,23.5794,0.385,-0.3971,-14.0574,-2.1628,2.3644,-0.774,0.0319,1297,2019-08-07 17:01:03:728
-1.154,23.5794,0.385,-0.3971,-14.0574,-2.1628,2.3644,-0.774,0.0319,1302,2019-08-07 17:01:03:733
-1.154,23.5794,0.385,-0.3971,-14.0574,-2.1628,2.3783,-0.5215,0.2354,1306,2019-08-07 17:01:03:737
-1.5702,23.484,-0.7652,-0.3971,-14.0574,-2.1628,2.3516,-0.2935,0.3867,1313,2019-08-07 17:01:03:744
-1.5702,23.484,-0.7652,0.057,-14.3125,-2.1829,2.3516,-0.2935,0.3867,1316,2019-08-07 17:01:03:747
-1.5702,23.484,-0.7652,0.057,-14.3125,-2.1829,2.3516,-0.2935,0.3867,1322,2019-08-07 17:01:03:753
-1.6994,24.391,1.0874,0.057,-14.3125,-2.1829,2.2472,-0.1071,0.5497,1327,2019-08-07 17:01:03:758
-1.6994,24.391,1.0874,0.057,-14.3125,-2.1829,2.2472,-0.1071,0.5497,1333,2019-08-07 17:01:03:764
-1.6994,24.391,1.0874,1.9893,-15.731,-2.4579,2.1279,-0.2488,0.6871,1336,2019-08-07 17:01:03:767
-3.6944,25.1452,-0.4446,1.9893,-15.731,-2.4579,2.1279,-0.2488,0.6871,1342,2019-08-07 17:01:03:773
-3.6944,25.1452,-0.4446,1.9893,-15.731,-2.4579,2.1279,-0.2488,0.6871,1347,2019-08-07 17:01:03:778
-4.0485,24.2239,-0.2419,2.6684,-15.5164,-2.4246,1.8989,-0.4586,0.7297,1352,2019-08-07 17:01:03:783
-4.0485,24.2239,-0.2419,2.6684,-15.5164,-2.4246,1.8989,-0.4586,0.7297,1356,2019-08-07 17:01:03:787
-4.0485,24.2239,-0.2419,2.6684,-15.5164,-2.4246,1.6794,-0.8752,0.784,1362,2019-08-07 17:01:03:793
-4.2542,22.1998,-1.6843,2.9699,-11.9516,-0.5258,1.6794,-0.8752,0.784,1366,2019-08-07 17:01:03:797
-4.2542,22.1998,-1.6843,2.9699,-11.9516,-0.5258,1.3556,-1.2043,0.7968,1372,2019-08-07 17:01:03:803
-3.8427,19.3641,-3.5133,2.9699,-11.9516,-0.5258,1.3556,-1.2043,0.7968,1377,2019-08-07 17:01:03:808
-3.8427,19.3641,-3.5133,2.9699,-11.9516,-0.5258,1.068,-1.2938,0.7819,1383,2019-08-07 17:01:03:814
-3.8427,19.3641,-3.5133,1.861,-8.9442,0.9331,1.068,-1.2938,0.7819,1387,2019-08-07 17:01:03:818
-2.8476,17.7601,-4.4466,1.861,-8.9442,0.9331,0.8666,-1.2778,0.7776,1392,2019-08-07 17:01:03:823
-2.8476,17.7601,-4.4466,1.861,-8.9442,0.9331,0.8666,-1.2778,0.7776,1397,2019-08-07 17:01:03:828
-2.8476,17.7601,-4.4466,1.861,-8.9442,0.9331,0.48,-0.9231,0.7339,1402,2019-08-07 17:01:03:833
-2.4027,15.674,-6.9402,1.2218,-6.1408,4.0493,0.48,-0.9231,0.7339,1407,2019-08-07 17:01:03:838
-2.4027,15.674,-6.9402,1.2218,-6.1408,4.0493,0.0869,-0.4331,0.6999,1413,2019-08-07 17:01:03:844
-1.9721,14.1941,-8.4581,1.2218,-6.1408,4.0493,0.0869,-0.4331,0.6999,1417,2019-08-07 17:01:03:848
-1.9721,14.1941,-8.4581,1.2218,-6.1408,4.0493,0.0869,-0.4331,0.6999,1422,2019-08-07 17:01:03:853
-1.9721,14.1941,-8.4581,1.2218,-6.1408,4.0493,-0.3339,0.1102,0.6764,1427,2019-08-07 17:01:03:858
-1.1635,12.4898,-9.3961,0.1482,-3.3292,6.0365,-0.3339,0.1102,0.6764,1432,2019-08-07 17:01:03:863
-1.1635,12.4898,-9.3961,0.1482,-3.3292,6.0365,-0.8559,0.8271,0.5635,1437,2019-08-07 17:01:03:868
-1.2879,10.5374,-9.6742,0.1482,-3.3292,6.0365,-0.8559,0.8271,0.5635,1441,2019-08-07 17:01:03:872
-1.2879,10.5374,-9.6742,1.0501,-0.2935,6.224,-1.2841,1.2468,0.4687,1448,2019-08-07 17:01:03:879
-1.2879,10.5374,-9.6742,1.0501,-0.2935,6.224,-1.2841,1.2468,0.4687,1451,2019-08-07 17:01:03:882
-2.1395,8.37,-9.0285,1.0501,-0.2935,6.224,-1.625,1.5014,0.3728,1457,2019-08-07 17:01:03:888
-2.1395,8.37,-9.0285,1.437,1.3181,5.7472,-1.625,1.5014,0.3728,1462,2019-08-07 17:01:03:893
-2.5127,6.2934,-8.0527,1.437,1.3181,5.7472,-1.8402,1.4919,0.2322,1467,2019-08-07 17:01:03:898
-2.5127,6.2934,-8.0527,1.437,1.3181,5.7472,-1.8402,1.4919,0.2322,1472,2019-08-07 17:01:03:903
-2.5127,6.2934,-8.0527,1.437,1.3181,5.7472,-1.903,1.3864,0.1395,1477,2019-08-07 17:01:03:908
-2.5079,4.5939,-6.9072,1.9481,4.4066,3.5206,-1.903,1.3864,0.1395,1482,2019-08-07 17:01:03:913
-2.5079,4.5939,-6.9072,1.9481,4.4066,3.5206,-1.903,1.3864,0.1395,1487,2019-08-07 17:01:03:918
-2.5079,4.5939,-6.9072,1.9481,4.4066,3.5206,-1.8604,0.891,0.033,1492,2019-08-07 17:01:03:923
-1.9577,2.7226,-7.1288,1.9481,4.4066,3.5206,-1.8604,0.891,0.033,1497,2019-08-07 17:01:03:928
-1.9577,2.7226,-7.1288,1.023,7.4614,4.1678,-1.8604,0.891,0.033,1502,2019-08-07 17:01:03:933
-1.3884,0.7128,-6.5914,1.023,7.4614,4.1678,-1.8679,0.3094,-0.0448,1507,2019-08-07 17:01:03:938
-1.3884,0.7128,-6.5914,1.023,7.4614,4.1678,-1.8679,0.3094,-0.0448,1512,2019-08-07 17:01:03:943
-1.3884,0.7128,-6.5914,1.023,7.4614,4.1678,-1.7869,0.6492,-0.048,1516,2019-08-07 17:01:03:947
-0.7473,-0.9437,-8.6985,0.1297,10.4675,6.4285,-1.7869,0.6492,-0.048,1522,2019-08-07 17:01:03:953
-0.7473,-0.9437,-8.6985,0.1297,10.4675,6.4285,-1.9648,1.0434,-0.0586,1527,2019-08-07 17:01:03:958
-0.0536,-3.2733,-6.4406,0.1297,10.4675,6.4285,-1.9648,1.0434,-0.0586,1532,2019-08-07 17:01:03:963
-0.0536,-3.2733,-6.4406,0.1297,10.4675,6.4285,-2.0767,1.2149,-0.1406,1537,2019-08-07 17:01:03:968
-0.0536,-3.2733,-6.4406,-0.2258,14.0682,4.7435,-2.0767,1.2149,-0.1406,1541,2019-08-07 17:01:03:972
-0.5176,-5.1972,-6.3981,-0.2258,14.0682,4.7435,-2.0149,1.4471,-0.1875,1548,2019-08-07 17:01:03:979
-0.5176,-5.1972,-6.3981,-0.2258,14.0682,4.7435,-2.0149,1.4471,-0.1875,1551,2019-08-07 17:01:03:982
-0.5176,-5.1972,-6.3981,-0.2258,14.0682,4.7435,-2.0149,1.4471,-0.1875,1557,2019-08-07 17:01:03:988
-0.8956,-6.6007,-5.4412,0.4076,16.4279,3.6335,-1.8903,1.4737,-0.195,1563,2019-08-07 17:01:03:994
-0.8956,-6.6007,-5.4412,0.4076,16.4279,3.6335,-1.8903,1.4737,-0.195,1567,2019-08-07 17:01:03:998
-1.441,-7.6127,-4.7813,0.4076,16.4279,3.6335,-1.7198,1.2958,-0.1907,1572,2019-08-07 17:01:04:003
-1.441,-7.6127,-4.7813,0.4076,16.4279,3.6335,-1.7198,1.2958,-0.1907,1577,2019-08-07 17:01:04:008
-1.441,-7.6127,-4.7813,1.0221,17.8311,2.4901,-1.593,1.1595,-0.1864,1582,2019-08-07 17:01:04:013
-1.6515,-8.4911,-3.1975,1.0221,17.8311,2.4901,-1.593,1.1595,-0.1864,1587,2019-08-07 17:01:04:018
-1.6515,-8.4911,-3.1975,1.0221,17.8311,2.4901,-1.2799,0.7675,-0.1854,1592,2019-08-07 17:01:04:023
-1.4984,-9.1976,-2.2736,1.0221,17.8311,2.4901,-1.2799,0.7675,-0.1854,1598,2019-08-07 17:01:04:029
-1.4984,-9.1976,-2.2736,0.7544,18.9505,0.942,-1.2799,0.7675,-0.1854,1601,2019-08-07 17:01:04:032
-1.4984,-9.1976,-2.2736,0.7544,18.9505,0.942,-0.8516,0.3435,-0.1854,1607,2019-08-07 17:01:04:038
-0.9626,-9.3074,-1.9059,0.1968,18.9615,0.7953,-0.8516,0.3435,-0.1854,1611,2019-08-07 17:01:04:042
-0.9626,-9.3074,-1.9059,0.1968,18.9615,0.7953,-0.4969,0.0569,-0.2003,1618,2019-08-07 17:01:04:049
-0.5272,-9.0831,-2.4574,0.1968,18.9615,0.7953,-0.4969,0.0569,-0.2003,1622,2019-08-07 17:01:04:053
-0.5272,-9.0831,-2.4574,0.1968,18.9615,0.7953,-0.2007,0.0324,-0.196,1627,2019-08-07 17:01:04:058
-0.5272,-9.0831,-2.4574,-0.5965,18.4418,1.1178,-0.2007,0.0324,-0.196,1631,2019-08-07 17:01:04:062
-0.0153,-8.5818,-2.25,-0.5965,18.4418,1.1178,0.0208,0.0324,-0.1918,1637,2019-08-07 17:01:04:068
-0.0153,-8.5818,-2.25,-0.5965,18.4418,1.1178,0.0208,0.0324,-0.1918,1641,2019-08-07 17:01:04:072
-0.2545,-7.7225,-1.1564,-0.5965,18.4418,1.1178,0.1934,0.0996,-0.1982,1647,2019-08-07 17:01:04:078
-0.2545,-7.7225,-1.1564,-0.2243,17.1301,-0.1114,0.1934,0.0996,-0.1982,1652,2019-08-07 17:01:04:083
-0.2545,-7.7225,-1.1564,-0.2243,17.1301,-0.1114,0.1934,0.0996,-0.1982,1657,2019-08-07 17:01:04:088
-0.7377,-6.8441,-0.7557,-0.2243,17.1301,-0.1114,0.5055,0.1123,-0.1641,1661,2019-08-07 17:01:04:092
-0.7377,-6.8441,-0.7557,0.012,16.3866,-0.432,0.5055,0.1123,-0.1641,1667,2019-08-07 17:01:04:098
-0.7377,-6.8441,-0.7557,0.012,16.3866,-0.432,0.7868,0.025,-0.1204,1672,2019-08-07 17:01:04:103
-1.0056,-5.7796,-0.454,0.012,16.3866,-0.432,0.7868,0.025,-0.1204,1678,2019-08-07 17:01:04:109
-1.0056,-5.7796,-0.454,0.3064,15.0333,-1.0558,1.003,-0.1135,-0.0607,1682,2019-08-07 17:01:04:113
-1.0056,-5.7796,-0.454,0.3064,15.0333,-1.0558,1.003,-0.1135,-0.0607,1687,2019-08-07 17:01:04:118
-0.9673,-5.0062,-0.4823,0.3064,15.0333,-1.0558,1.2363,-0.2648,0.0117,1692,2019-08-07 17:01:04:123
-0.9673,-5.0062,-0.4823,0.3064,15.0333,-1.0558,1.2363,-0.2648,0.0117,1697,2019-08-07 17:01:04:128
-0.9673,-5.0062,-0.4823,-0.1549,13.8068,-0.6215,1.4707,-0.4182,0.065,1702,2019-08-07 17:01:04:133
-0.6516,-3.8891,-1.0621,-0.1549,13.8068,-0.6215,1.4707,-0.4182,0.065,1706,2019-08-07 17:01:04:137
-0.6516,-3.8891,-1.0621,-0.1549,13.8068,-0.6215,1.6187,-0.4682,0.1022,1712,2019-08-07 17:01:04:143
-0.3884,-2.9487,-1.1611,-0.1549,13.8068,-0.6215,1.6187,-0.4682,0.1022,1717,2019-08-07 17:01:04:148
-0.3884,-2.9487,-1.1611,-0.4841,12.2193,-0.8457,1.7487,-0.4799,0.1523,1722,2019-08-07 17:01:04:153
-0.3884,-2.9487,-1.1611,-0.4841,12.2193,-0.8457,1.7487,-0.4799,0.1523,1727,2019-08-07 17:01:04:158
-0.3501,-2.1801,-1.1847,-0.4841,12.2193,-0.8457,1.8424,-0.4523,0.1992,1732,2019-08-07 17:01:04:163
-0.3501,-2.1801,-1.1847,-0.4841,12.2193,-0.8457,1.8424,-0.4523,0.1992,1737,2019-08-07 17:01:04:168
-0.2784,-1.7075,-1.4439,-0.5773,11.079,-0.8868,1.884,-0.4224,0.2184,1742,2019-08-07 17:01:04:173
-0.2784,-1.7075,-1.4439,-0.5773,11.079,-0.8868,1.884,-0.4224,0.2184,1747,2019-08-07 17:01:04:178
-0.2784,-1.7075,-1.4439,-0.5773,11.079,-0.8868,1.9234,-0.3457,0.2311,1751,2019-08-07 17:01:04:182
-0.2497,-1.2397,-1.7786,-0.5773,11.079,-0.8868,1.9234,-0.3457,0.2311,1757,2019-08-07 17:01:04:188
-0.2497,-1.2397,-1.7786,-0.5763,10.538,-0.8231,1.9287,-0.334,0.2546,1762,2019-08-07 17:01:04:193
-0.1827,-1.1633,-2.0567,-0.5763,10.538,-0.8231,1.9287,-0.334,0.2546,1766,2019-08-07 17:01:04:197
-0.1827,-1.1633,-2.0567,-0.5763,10.538,-0.8231,1.9287,-0.334,0.2546,1772,2019-08-07 17:01:04:203
-0.1827,-1.1633,-2.0567,-0.7264,10.2667,-0.6105,1.8968,-0.3436,0.2652,1777,2019-08-07 17:01:04:208
-0.0439,-0.6048,-2.6224,-0.7264,10.2667,-0.6105,1.8968,-0.3436,0.2652,1782,2019-08-07 17:01:04:213
-0.0439,-0.6048,-2.6224,-0.7264,10.2667,-0.6105,1.8222,-0.3511,0.2546,1787,2019-08-07 17:01:04:218
0.0996,0.4455,-3.7961,-0.7264,10.2667,-0.6105,1.8222,-0.3511,0.2546,1792,2019-08-07 17:01:04:223
0.0996,0.4455,-3.7961,-0.9023,8.4552,0.6976,1.7529,-0.3234,0.2322,1797,2019-08-07 17:01:04:228
0.0996,0.4455,-3.7961,-0.9023,8.4552,0.6976,1.7529,-0.3234,0.2322,1802,2019-08-07 17:01:04:233
-0.1827,1.553,-5.2762,-0.9023,8.4552,0.6976,1.5942,-0.2669,0.2088,1807,2019-08-07 17:01:04:238
-0.1827,1.553,-5.2762,-0.4117,7.1266,1.6872,1.5942,-0.2669,0.2088,1812,2019-08-07 17:01:04:243
-0.1827,1.553,-5.2762,-0.4117,7.1266,1.6872,1.5942,-0.2669,0.2088,1817,2019-08-07 17:01:04:248
-0.5461,2.1688,-5.5967,-0.4117,7.1266,1.6872,1.3641,-0.2477,0.2002,1821,2019-08-07 17:01:04:252
-0.5461,2.1688,-5.5967,-0.4117,7.1266,1.6872,1.3641,-0.2477,0.2002,1827,2019-08-07 17:01:04:258
-1.235,2.5221,-5.7759,-0.4117,7.1266,1.6872,1.1585,-0.3372,0.1619,1831,2019-08-07 17:01:04:262
-1.235,2.5221,-5.7759,0.7134,6.3021,1.7772,1.1585,-0.3372,0.1619,1837,2019-08-07 17:01:04:268
-1.235,2.5221,-5.7759,0.7134,6.3021,1.7772,1.0456,-0.4416,0.1385,1842,2019-08-07 17:01:04:273
-2.321,3.0615,-6.1247,0.7134,6.3021,1.7772,1.0456,-0.4416,0.1385,1847,2019-08-07 17:01:04:278
-2.321,3.0615,-6.1247,0.7134,6.3021,1.7772,0.9178,-0.6365,0.1278,1851,2019-08-07 17:01:04:282
-2.6846,4.2788,-6.8506,1.9409,4.6885,2.2016,0.9178,-0.6365,0.1278,1856,2019-08-07 17:01:04:287
-2.6846,4.2788,-6.8506,1.9409,4.6885,2.2016,0.8081,-0.7846,0.0809,1862,2019-08-07 17:01:04:293
-2.6846,4.2788,-6.8506,1.9409,4.6885,2.2016,0.8081,-0.7846,0.0809,1866,2019-08-07 17:01:04:297
-2.1057,5.8065,-7.7604,1.9409,4.6885,2.2016,0.709,-0.8539,-0.0043,1872,2019-08-07 17:01:04:303
-2.1057,5.8065,-7.7604,0.8407,2.1433,3.818,0.709,-0.8539,-0.0043,1877,2019-08-07 17:01:04:308
-1.1249,7.9547,-9.1132,0.8407,2.1433,3.818,0.5758,-0.9114,-0.0682,1882,2019-08-07 17:01:04:313
-1.1249,7.9547,-9.1132,0.8407,2.1433,3.818,0.5758,-0.9114,-0.0682,1887,2019-08-07 17:01:04:318
-1.1249,7.9547,-9.1132,0.8407,2.1433,3.818,0.3979,-0.9881,-0.1374,1892,2019-08-07 17:01:04:323
-0.1824,10.3702,-10.1644,-0.7786,-1.7235,5.6315,0.3979,-0.9881,-0.1374,1897,2019-08-07 17:01:04:328
-0.1824,10.3702,-10.1644,-0.7786,-1.7235,5.6315,-0.0463,-0.8517,-0.2983,1902,2019-08-07 17:01:04:333
-0.1824,10.3702,-10.1644,-0.7786,-1.7235,5.6315,-0.0463,-0.8517,-0.2983,1907,2019-08-07 17:01:04:338
-0.1442,12.886,-12.5779,-0.7786,-1.7235,5.6315,-0.0463,-0.8517,-0.2983,1912,2019-08-07 17:01:04:343
-0.1442,12.886,-12.5779,-0.8004,-5.4654,8.0432,-0.3978,-0.0432,-0.4378,1917,2019-08-07 17:01:04:348
-0.1442,12.886,-12.5779,-0.8004,-5.4654,8.0432,-0.3978,-0.0432,-0.4378,1922,2019-08-07 17:01:04:353
-0.6752,15.0343,-11.9792,-0.8004,-5.4654,8.0432,-0.8378,0.5374,-0.5476,1927,2019-08-07 17:01:04:358
-0.6752,15.0343,-11.9792,-0.8004,-5.4654,8.0432,-0.8378,0.5374,-0.5476,1932,2019-08-07 17:01:04:363
-1.943,16.8817,-8.1705,0.5052,-7.804,4.6731,-1.3118,1.0626,-0.7532,1936,2019-08-07 17:01:04:367
-1.943,16.8817,-8.1705,0.5052,-7.804,4.6731,-1.3118,1.0626,-0.7532,1942,2019-08-07 17:01:04:373
-1.943,16.8817,-8.1705,1.4461,-8.9497,1.2017,-1.4151,1.201,-0.8693,1947,2019-08-07 17:01:04:378
-2.7037,18.3186,-4.7718,1.4461,-8.9497,1.2017,-1.4151,1.201,-0.8693,1952,2019-08-07 17:01:04:383
-2.7037,18.3186,-4.7718,1.4461,-8.9497,1.2017,-1.4151,1.201,-0.8693,1956,2019-08-07 17:01:04:387
-2.7037,18.3186,-4.7718,1.4461,-8.9497,1.2017,-1.2213,0.7867,-0.9375,1961,2019-08-07 17:01:04:392
-2.4501,20.5146,-5.3988,1.1292,-12.1262,1.4756,-1.2213,0.7867,-0.9375,1968,2019-08-07 17:01:04:399
-2.4501,20.5146,-5.3988,1.1292,-12.1262,1.4756,-1.201,0.2146,-0.9332,1972,2019-08-07 17:01:04:403
-1.943,21.7367,-6.3321,1.1292,-12.1262,1.4756,-1.201,0.2146,-0.9332,1977,2019-08-07 17:01:04:408
-1.943,21.7367,-6.3321,1.1292,-12.1262,1.4756,-1.347,0.7195,-0.8341,1982,2019-08-07 17:01:04:413
-1.943,21.7367,-6.3321,-0.7763,-11.9299,4.4327,-1.347,0.7195,-0.8341,1986,2019-08-07 17:01:04:417
-0.4264,20.7056,-8.0762,-0.7763,-11.9299,4.4327,-1.6655,1.2799,-0.7042,1992,2019-08-07 17:01:04:423
-0.4264,20.7056,-8.0762,-0.7763,-11.9299,4.4327,-1.6655,1.2799,-0.7042,1997,2019-08-07 17:01:04:428
-0.3833,19.5073,-5.1348,-0.7763,-11.9299,4.4327,-1.6655,1.2799,-0.7042,2001,2019-08-07 17:01:04:432
-0.3833,19.5073,-5.1348,-0.4146,-10.1427,-0.8995,-2.1267,1.9829,-0.6296,2007,2019-08-07 17:01:04:438
-0.3833,19.5073,-5.1348,-0.4146,-10.1427,-0.8995,-2.1267,1.9829,-0.6296,2012,2019-08-07 17:01:04:443
-1.7133,18.9917,3.3407,-0.4146,-10.1427,-0.8995,-2.0959,1.7582,-0.538,2016,2019-08-07 17:01:04:447
-1.7133,18.9917,3.3407,-0.4146,-10.1427,-0.8995,-2.0959,1.7582,-0.538,2022,2019-08-07 17:01:04:453
-3.3256,18.8247,1.1393,2.0036,-9.64,-4.3222,-1.7923,1.3747,-0.4283,2026,2019-08-07 17:01:04:457
-3.3256,18.8247,1.1393,2.0036,-9.64,-4.3222,-1.7923,1.3747,-0.4283,2032,2019-08-07 17:01:04:463
-3.3256,18.8247,1.1393,2.0036,-9.64,-4.3222,-1.9158,0.9944,-0.2866,2037,2019-08-07 17:01:04:468
-2.5697,19.4644,1.4127,2.0036,-9.64,-4.3222,-1.9158,0.9944,-0.2866,2042,2019-08-07 17:01:04:473
-2.5697,19.4644,1.4127,0.576,-10.1156,-3.9487,-1.8849,0.7206,-0.1321,2048,2019-08-07 17:01:04:479
-2.5697,19.4644,1.4127,0.576,-10.1156,-3.9487,-1.8849,0.7206,-0.1321,2051,2019-08-07 17:01:04:482
-0.2541,19.0061,-5.2385,0.576,-10.1156,-3.9487,-1.6527,0.6631,0.0064,2057,2019-08-07 17:01:04:488
-0.2541,19.0061,-5.2385,0.576,-10.1156,-3.9487,-1.6527,0.6631,0.0064,2062,2019-08-07 17:01:04:493
-0.2541,19.0061,-5.2385,-0.7076,-14.6683,-4.0149,-1.3193,0.5725,0.1779,2067,2019-08-07 17:01:04:498
-1.1727,22.9111,0.6774,-0.7076,-14.6683,-4.0149,-1.3193,0.5725,0.1779,2072,2019-08-07 17:01:04:503
-1.1727,22.9111,0.6774,-0.7076,-14.6683,-4.0149,-1.6974,0.3222,0.3941,2076,2019-08-07 17:01:04:507
-1.1727,22.9111,0.6774,-0.4854,-9.6774,-0.958,-1.6974,0.3222,0.3941,2082,2019-08-07 17:01:04:513
-0.0627,15.6119,0.6774,-0.4854,-9.6774,-0.958,-1.8295,1.2927,0.3078,2087,2019-08-07 17:01:04:518
-0.0627,15.6119,0.6774,-0.4854,-9.6774,-0.958,-1.8295,1.2927,0.3078,2092,2019-08-07 17:01:04:523
-3.8949,17.7649,11.4484,2.7766,-8.2332,-13.4812,-1.4109,0.09,0.3366,2097,2019-08-07 17:01:04:528
-3.8949,17.7649,11.4484,2.7766,-8.2332,-13.4812,-1.4109,0.09,0.3366,2102,2019-08-07 17:01:04:533
-3.8949,17.7649,11.4484,2.7766,-8.2332,-13.4812,-1.4109,0.09,0.3366,2106,2019-08-07 17:01:04:537
-3.5648,13.9649,8.3797,2.7766,-8.2332,-13.4812,-1.7635,-0.0134,0.5252,2112,2019-08-07 17:01:04:543
-3.5648,13.9649,8.3797,1.3759,-3.2192,-12.1826,-2.0117,-0.1806,0.4112,2117,2019-08-07 17:01:04:548
-3.5648,13.9649,8.3797,1.3759,-3.2192,-12.1826,-2.0117,-0.1806,0.4112,2122,2019-08-07 17:01:04:553
-3.3782,12.9147,9.4828,1.3759,-3.2192,-12.1826,-2.0117,-0.1806,0.4112,2127,2019-08-07 17:01:04:558
-3.3782,12.9147,9.4828,1.3759,-3.2192,-12.1826,-1.6389,-0.4725,0.3611,2132,2019-08-07 17:01:04:563
-5.2393,14.1893,1.4693,4.2466,-4.5117,-2.7319,-1.6389,-0.4725,0.3611,2136,2019-08-07 17:01:04:567
-5.2393,14.1893,1.4693,4.2466,-4.5117,-2.7319,-1.5973,-0.579,0.4943,2142,2019-08-07 17:01:04:573
-5.2393,14.1893,1.4693,4.2466,-4.5117,-2.7319,-1.5973,-0.579,0.4943,2147,2019-08-07 17:01:04:578
-3.9714,12.5184,-0.0061,4.2466,-4.5117,-2.7319,-1.4162,-0.4523,0.3856,2152,2019-08-07 17:01:04:583
-3.9714,12.5184,-0.0061,4.2466,-4.5117,-2.7319,-1.4162,-0.4523,0.3856,2156,2019-08-07 17:01:04:587
-3.7801,11.6353,-1.1846,2.8564,-1.9742,0.1412,-1.1094,-0.4927,0.3121,2161,2019-08-07 17:01:04:592
-3.7801,11.6353,-1.1846,2.8564,-1.9742,0.1412,-1.1094,-0.4927,0.3121,2167,2019-08-07 17:01:04:598
-3.7801,11.6353,-1.1846,2.8564,-1.9742,0.1412,-1.1094,-0.4927,0.3121,2172,2019-08-07 17:01:04:603
-2.3974,11.3966,2.3272,2.8564,-1.9742,0.1412,-0.9443,-0.4118,0.3153,2178,2019-08-07 17:01:04:609
-2.3974,11.3966,2.3272,0.7129,-1.1011,-4.3684,-0.9443,-0.4118,0.3153,2181,2019-08-07 17:01:04:612
-0.345,10.3798,3.4679,0.7129,-1.1011,-4.3684,-0.9763,-0.3606,0.2855,2187,2019-08-07 17:01:04:618
-0.345,10.3798,3.4679,0.7129,-1.1011,-4.3684,-0.9763,-0.3606,0.2855,2192,2019-08-07 17:01:04:623
-0.345,10.3798,3.4679,0.7129,-1.1011,-4.3684,-0.8633,-0.3468,0.3281,2197,2019-08-07 17:01:04:628
1.0951,11.1913,2.4168,-1.928,-1.4301,-2.9279,-0.8633,-0.3468,0.3281,2202,2019-08-07 17:01:04:633
1.0951,11.1913,2.4168,-1.928,-1.4301,-2.9279,-0.7781,-0.1753,0.3515,2207,2019-08-07 17:01:04:638
1.0951,11.1913,2.4168,-1.928,-1.4301,-2.9279,-0.7781,-0.1753,0.3515,2212,2019-08-07 17:01:04:643
1.4778,11.2534,1.837,-1.928,-1.4301,-2.9279,-0.7781,-0.1753,0.3515,2217,2019-08-07 17:01:04:648
1.4778,11.2534,1.837,-2.252,-1.1914,-4.0386,-0.6886,-0.1433,0.3281,2222,2019-08-07 17:01:04:653
1.2195,10.8667,4.3023,-2.252,-1.1914,-4.0386,-0.6886,-0.1433,0.3281,2226,2019-08-07 17:01:04:657
1.2195,10.8667,4.3023,-1.7257,-1.1241,-4.4033,-0.499,-0.3617,0.3196,2232,2019-08-07 17:01:04:663
1.2195,10.8667,4.3023,-1.7257,-1.1241,-4.4033,-0.499,-0.3617,0.3196,2236,2019-08-07 17:01:04:667
0.0139,10.7092,2.7939,-1.7257,-1.1241,-4.4033,-0.3648,-0.4469,0.3206,2242,2019-08-07 17:01:04:673
0.0139,10.7092,2.7939,-1.7257,-1.1241,-4.4033,-0.3648,-0.4469,0.3206,2247,2019-08-07 17:01:04:678
0.0139,10.7092,2.7939,-0.3767,-0.3344,-2.5303,-0.3648,-0.4469,0.3206,2251,2019-08-07 17:01:04:682
-0.2732,9.9072,2.1481,-0.3767,-0.3344,-2.5303,-0.2444,-0.3809,0.2684,2257,2019-08-07 17:01:04:688
-0.2732,9.9072,2.1481,-0.3767,-0.3344,-2.5303,-0.2444,-0.3809,0.2684,2262,2019-08-07 17:01:04:693
-0.675,9.5778,0.8518,-0.3767,-0.3344,-2.5303,-0.1304,-0.2946,0.2045,2267,2019-08-07 17:01:04:698
-0.675,9.5778,0.8518,0.0596,0.3091,-0.7239,-0.1304,-0.2946,0.2045,2272,2019-08-07 17:01:04:703
-0.675,9.5778,0.8518,0.0596,0.3091,-0.7239,-0.0889,-0.1103,0.1907,2276,2019-08-07 17:01:04:707
-0.3306,9.0431,0.2767,0.0596,0.3091,-0.7239,-0.0889,-0.1103,0.1907,2283,2019-08-07 17:01:04:714
-0.3306,9.0431,0.2767,0.0596,0.3091,-0.7239,-0.0964,0.2615,0.147,2286,2019-08-07 17:01:04:717
-0.5937,9.53,0.9319,-0.1157,0.4594,-0.8481,-0.0964,0.2615,0.147,2292,2019-08-07 17:01:04:723
-0.5937,9.53,0.9319,-0.1157,0.4594,-0.8481,-0.0697,0.4522,0.1331,2297,2019-08-07 17:01:04:728
-0.5937,9.53,0.9319,-0.1157,0.4594,-0.8481,-0.0697,0.4522,0.1331,2302,2019-08-07 17:01:04:733
-1.2539,9.8928,1.6908,-0.1157,0.4594,-0.8481,-0.0239,0.4564,0.1662,2306,2019-08-07 17:01:04:737
-1.2539,9.8928,1.6908,0.6758,0.0695,-2.0281,-0.0239,0.4564,0.1662,2312,2019-08-07 17:01:04:743
-1.0817,9.6398,2.1669,0.6758,0.0695,-2.0281,0.0613,0.2721,0.196,2316,2019-08-07 17:01:04:747
-1.0817,9.6398,2.1669,0.6758,0.0695,-2.0281,0.0613,0.2721,0.196,2322,2019-08-07 17:01:04:753
-1.0817,9.6398,2.1669,0.6758,0.0695,-2.0281,0.1529,-0.0549,0.2194,2327,2019-08-07 17:01:04:758
-0.5746,9.6971,1.8511,-0.1043,0.0381,-1.7067,0.1529,-0.0549,0.2194,2331,2019-08-07 17:01:04:762
-0.5746,9.6971,1.8511,-0.1043,0.0381,-1.7067,0.2264,-0.3159,0.2524,2337,2019-08-07 17:01:04:768
0.5306,9.9597,0.5737,-0.1043,0.0381,-1.7067,0.2264,-0.3159,0.2524,2342,2019-08-07 17:01:04:773
0.5306,9.9597,0.5737,-0.1043,0.0381,-1.7067,0.2264,-0.3159,0.2524,2347,2019-08-07 17:01:04:778
0.5306,9.9597,0.5737,-1.68,-0.3128,0.3274,0.203,-0.2946,0.212,2351,2019-08-07 17:01:04:782
1.3152,10.2461,-0.6613,-1.68,-0.3128,0.3274,0.203,-0.2946,0.212,2357,2019-08-07 17:01:04:788
1.3152,10.2461,-0.6613,-1.637,-0.4981,0.5736,0.1369,-0.057,0.1555,2362,2019-08-07 17:01:04:793
1.3152,10.2461,-0.6613,-1.637,-0.4981,0.5736,0.1369,-0.057,0.1555,2367,2019-08-07 17:01:04:798
0.9277,10.1411,-0.5435,-1.637,-0.4981,0.5736,0.0528,0.2125,0.1118,2372,2019-08-07 17:01:04:803
0.9277,10.1411,-0.5435,-1.637,-0.4981,0.5736,0.0528,0.2125,0.1118,2377,2019-08-07 17:01:04:808
-0.2827,10.1315,0.0693,-0.1054,-0.33,-0.1936,-0.0154,0.3925,0.0714,2383,2019-08-07 17:01:04:814
-0.2827,10.1315,0.0693,-0.1054,-0.33,-0.1936,-0.0154,0.3925,0.0714,2387,2019-08-07 17:01:04:818
-0.2827,10.1315,0.0693,-0.1054,-0.33,-0.1936,-0.0452,0.4106,0.0714,2392,2019-08-07 17:01:04:823
-1.4596,10.4323,0.9272,-0.1054,-0.33,-0.1936,-0.0452,0.4106,0.0714,2398,2019-08-07 17:01:04:829
-1.4596,10.4323,0.9272,1.5456,-0.4774,-1.2901,-0.0133,0.2689,0.1204,2401,2019-08-07 17:01:04:832
-1.9524,10.2795,1.2478,1.5456,-0.4774,-1.2901,-0.0133,0.2689,0.1204,2407,2019-08-07 17:01:04:838
-1.9524,10.2795,1.2478,1.4146,-0.4103,-1.4086,0.0325,0.09,0.1544,2412,2019-08-07 17:01:04:843
-1.9524,10.2795,1.2478,1.4146,-0.4103,-1.4086,0.0325,0.09,0.1544,2417,2019-08-07 17:01:04:848
-1.34,10.0647,1.342,1.4146,-0.4103,-1.4086,0.0869,-0.0911,0.1971,2422,2019-08-07 17:01:04:853
-1.34,10.0647,1.342,1.4146,-0.4103,-1.4086,0.0869,-0.0911,0.1971,2427,2019-08-07 17:01:04:858
-0.2109,9.826,0.338,-0.1272,-0.0225,-0.453,0.105,-0.1646,0.2077,2432,2019-08-07 17:01:04:863
-0.2109,9.826,0.338,-0.1272,-0.0225,-0.453,0.105,-0.1646,0.2077,2437,2019-08-07 17:01:04:868
-0.2109,9.826,0.338,-0.1272,-0.0225,-0.453,0.072,-0.1508,0.1832,2442,2019-08-07 17:01:04:873
0.4302,10.0551,-0.1617,-0.7463,-0.251,0.0385,0.072,-0.1508,0.1832,2447,2019-08-07 17:01:04:878
0.4302,10.0551,-0.1617,-0.7463,-0.251,0.0385,0.0315,0.041,0.1747,2452,2019-08-07 17:01:04:883
0.4302,10.0551,-0.1617,-0.7463,-0.251,0.0385,0.0315,0.041,0.1747,2457,2019-08-07 17:01:04:888
0.4733,10.1888,0.635,-0.7013,-0.2642,-1.1432,0.0315,0.041,0.1747,2462,2019-08-07 17:01:04:893
0.4733,10.1888,0.635,-0.7013,-0.2642,-1.1432,0.0048,0.1241,0.1491,2468,2019-08-07 17:01:04:899
0.4733,10.1888,0.635,-0.7013,-0.2642,-1.1432,0.0048,0.1241,0.1491,2471,2019-08-07 17:01:04:902
-0.1104,10.0074,1.309,-0.1497,-0.2016,-1.4323,0.0443,0.0474,0.1459,2477,2019-08-07 17:01:04:908
-0.1104,10.0074,1.309,-0.1497,-0.2016,-1.4323,0.0443,0.0474,0.1459,2482,2019-08-07 17:01:04:913
-0.0243,10.0265,0.9414,-0.1497,-0.2016,-1.4323,0.0986,-0.0677,0.1331,2487,2019-08-07 17:01:04:918
-0.0243,10.0265,0.9414,-0.1497,-0.2016,-1.4323,0.0986,-0.0677,0.1331,2491,2019-08-07 17:01:04:922
-0.0243,10.0265,0.9414,-0.3592,-0.1962,-0.8209,0.0986,-0.0677,0.1331,2497,2019-08-07 17:01:04:928
0.1671,9.974,0.602,-0.3592,-0.1962,-0.8209,0.1146,-0.0698,0.1054,2501,2019-08-07 17:01:04:932
0.1671,9.974,0.602,-0.3592,-0.1962,-0.8209,0.1146,-0.0698,0.1054,2507,2019-08-07 17:01:04:938
0.1671,9.974,0.602,-0.3592,-0.1962,-0.8209,0.1199,0.0165,0.0756,2512,2019-08-07 17:01:04:943
0.3824,9.826,0.5077,-0.5895,-0.0193,-0.6547,0.1199,0.0165,0.0756,2517,2019-08-07 17:01:04:948
0.3824,9.826,0.5077,-0.5895,-0.0193,-0.6547,0.1199,0.0165,0.0756,2522,2019-08-07 17:01:04:953
0.3632,9.7878,0.6161,-0.5895,-0.0193,-0.6547,0.1178,0.1347,0.033,2527,2019-08-07 17:01:04:958
0.3632,9.7878,0.6161,-0.4763,-0.0527,-0.6121,0.1231,0.1656,0.0128,2533,2019-08-07 17:01:04:964
0.3632,9.7878,0.6161,-0.4763,-0.0527,-0.6121,0.1231,0.1656,0.0128,2536,2019-08-07 17:01:04:967
0.1575,9.9119,0.2626,-0.4763,-0.0527,-0.6121,0.1231,0.1656,0.0128,2542,2019-08-07 17:01:04:973
0.1575,9.9119,0.2626,-0.4763,-0.0527,-0.6121,0.1039,0.1944,-0.0043,2547,2019-08-07 17:01:04:978
0.1575,9.9119,0.2626,-0.4763,-0.0527,-0.6121,0.1039,0.1944,-0.0043,2552,2019-08-07 17:01:04:983
-0.1965,9.8594,0.4417,0.0039,-0.053,-0.6256,0.0847,0.1837,-0.0117,2557,2019-08-07 17:01:04:988
-0.1965,9.8594,0.4417,0.0039,-0.053,-0.6256,0.0847,0.1837,-0.0117,2562,2019-08-07 17:01:04:993
-0.1965,9.783,0.0128,0.0039,-0.053,-0.6256,0.0847,0.1837,-0.0117,2567,2019-08-07 17:01:04:998
-0.1965,9.783,0.0128,0.0039,-0.053,-0.6256,0.0656,0.0751,-0.0139,2572,2019-08-07 17:01:05:003
-0.2682,9.888,-0.3031,0.0211,-0.0581,-0.0121,0.0656,0.0751,-0.0139,2577,2019-08-07 17:01:05:008
-0.2682,9.888,-0.3031,0.0211,-0.0581,-0.0121,0.0304,-0.0261,-0.0075,2582,2019-08-07 17:01:05:013
-0.2682,9.888,-0.3031,0.0211,-0.0581,-0.0121,0.0304,-0.0261,-0.0075,2587,2019-08-07 17:01:05:018
-0.4548,10.3798,0.602,0.0211,-0.0581,-0.0121,0.0059,-0.0762,0.0085,2592,2019-08-07 17:01:05:023
-0.4548,10.3798,0.602,-0.0664,-0.8076,-1.2151,0.0059,-0.0762,0.0085,2597,2019-08-07 17:01:05:028
-0.4548,10.3798,0.602,-0.0664,-0.8076,-1.2151,0.0421,-0.0698,-0.0149,2602,2019-08-07 17:01:05:033
-0.1726,10.523,0.3239,-0.0664,-0.8076,-1.2151,0.0421,-0.0698,-0.0149,2607,2019-08-07 17:01:05:038
-0.1726,10.523,0.3239,-0.0664,-0.8076,-1.2151,0.0357,0.0239,-0.0224,2613,2019-08-07 17:01:05:044
-0.206,10.0885,-0.1852,0.0071,-0.2826,-0.0163,0.0357,0.0239,-0.0224,2617,2019-08-07 17:01:05:048
-0.206,10.0885,-0.1852,0.0071,-0.2826,-0.0163,0.0357,0.0239,-0.0224,2622,2019-08-07 17:01:05:053
-0.206,10.0885,-0.1852,0.0071,-0.2826,-0.0163,-0.0143,0.1038,-0.0362,2627,2019-08-07 17:01:05:058
-0.0386,9.9215,0.503,0.0071,-0.2826,-0.0163,-0.0143,0.1038,-0.0362,2632,2019-08-07 17:01:05:063
-0.0386,9.9215,0.503,-0.2957,-0.0965,-0.4029,-0.009,0.0218,-0.0575,2636,2019-08-07 17:01:05:067
0.0284,9.8976,-0.1664,-0.2957,-0.0965,-0.4029,-0.009,0.0218,-0.0575,2642,2019-08-07 17:01:05:073
0.0284,9.8976,-0.1664,-0.2957,-0.0965,-0.4029,-0.009,0.0218,-0.0575,2648,2019-08-07 17:01:05:079
0.0284,9.8976,-0.1664,-0.2957,-0.0965,-0.4029,-0.0495,0.0527,-0.0618,2652,2019-08-07 17:01:05:083
-0.0768,9.7782,0.4841,-0.1385,0.0276,-0.6737,-0.0495,0.0527,-0.0618,2657,2019-08-07 17:01:05:088
-0.0768,9.7782,0.4841,-0.1385,0.0276,-0.6737,-0.0601,0.0484,-0.0639,2662,2019-08-07 17:01:05:093
-0.0768,9.7782,0.4841,-0.1385,0.0276,-0.6737,-0.0601,0.0484,-0.0639,2666,2019-08-07 17:01:05:097
-0.2634,9.8451,0.9838,-0.1385,0.0276,-0.6737,-0.0601,0.0484,-0.0639,2672,2019-08-07 17:01:05:103
-0.2634,9.8451,0.9838,0.0316,-0.1108,-0.8495,-0.0186,-0.0741,-0.0533,2677,2019-08-07 17:01:05:108
-0.2395,9.9215,0.569,0.0316,-0.1108,-0.8495,-0.0186,-0.0741,-0.0533,2682,2019-08-07 17:01:05:113
-0.2395,9.9215,0.569,0.0316,-0.1108,-0.8495,-0.0079,-0.0815,-0.0682,2686,2019-08-07 17:01:05:117
-0.2395,9.9215,0.569,0.0316,-0.1108,-0.8495,-0.0079,-0.0815,-0.0682,2692,2019-08-07 17:01:05:123
0.0906,9.9119,0.5831,-0.3438,-0.1205,-0.6814,0.0027,-0.0304,-0.0799,2697,2019-08-07 17:01:05:128
0.0906,9.9119,0.5831,-0.3438,-0.1205,-0.6814,0.0027,-0.0304,-0.0799,2702,2019-08-07 17:01:05:133
0.1528,9.8594,0.3569,-0.3438,-0.1205,-0.6814,-0.0037,0.0186,-0.0927,2707,2019-08-07 17:01:05:138
0.1528,9.8594,0.3569,-0.3438,-0.1205,-0.6814,-0.0037,0.0186,-0.0927,2713,2019-08-07 17:01:05:144
0.1528,9.8594,0.3569,-0.2494,-0.011,-0.5302,-0.0111,0.0655,-0.1108,2717,2019-08-07 17:01:05:148
-0.0385,9.7639,0.4559,-0.2494,-0.011,-0.5302,-0.0111,0.0655,-0.1108,2722,2019-08-07 17:01:05:153
-0.0385,9.7639,0.4559,-0.2494,-0.011,-0.5302,-0.0111,0.0655,-0.1108,2727,2019-08-07 17:01:05:158
-0.0385,9.7639,0.4559,-0.2494,-0.011,-0.5302,-0.0047,0.0537,-0.1151,2733,2019-08-07 17:01:05:164
-0.1007,9.6828,0.7953,-0.184,0.1461,-1.0415,-0.0047,0.0537,-0.1151,2736,2019-08-07 17:01:05:167
-0.1007,9.6828,0.7953,-0.184,0.1461,-1.0415,0.0208,0.025,-0.1183,2742,2019-08-07 17:01:05:173
-0.0672,9.7401,0.6586,-0.184,0.1461,-1.0415,0.0208,0.025,-0.1183,2747,2019-08-07 17:01:05:178
-0.0672,9.7401,0.6586,-0.184,0.1461,-1.0415,0.0357,0.0346,-0.1129,2752,2019-08-07 17:01:05:183
-0.0672,9.7401,0.6586,-0.184,0.1461,-1.0415,0.0357,0.0346,-0.1129,2756,2019-08-07 17:01:05:187
-0.1677,9.8689,0.1306,-0.1623,-0.1123,-0.3534,0.0357,0.0346,-0.1129,2762,2019-08-07 17:01:05:193
-0.1677,9.8689,0.1306,-0.1623,-0.1123,-0.3534,0.0251,0.0751,-0.1129,2767,2019-08-07 17:01:05:198
-0.1677,9.8689,0.1306,-0.1623,-0.1123,-0.3534,0.0251,0.0751,-0.1129,2772,2019-08-07 17:01:05:203
-0.6318,10.0694,0.0505,0.4607,-0.2563,-0.5055,-0.0037,0.1379,-0.1044,2777,2019-08-07 17:01:05:208
-0.6318,10.0694,0.0505,0.4607,-0.2563,-0.5055,-0.0037,0.1379,-0.1044,2782,2019-08-07 17:01:05:213
-0.9332,10.0885,0.6491,0.4607,-0.2563,-0.5055,-0.0069,0.0921,-0.0895,2787,2019-08-07 17:01:05:218
-0.9332,10.0885,0.6491,0.4607,-0.2563,-0.5055,-0.0069,0.0921,-0.0895,2792,2019-08-07 17:01:05:223
-0.9332,10.0885,0.6491,0.5196,-0.2092,-0.7721,0.0091,-0.0166,-0.0671,2797,2019-08-07 17:01:05:228
-0.7801,9.9883,0.6303,0.5196,-0.2092,-0.7721,0.0091,-0.0166,-0.0671,2803,2019-08-07 17:01:05:234
-0.7801,9.9883,0.6303,0.5196,-0.2092,-0.7721,0.0091,-0.0166,-0.0671,2807,2019-08-07 17:01:05:238
-0.4117,9.931,0.3616,0.5196,-0.2092,-0.7721,0.0187,-0.0624,-0.0586,2812,2019-08-07 17:01:05:243
-0.4117,9.931,0.3616,0.0435,-0.2336,-0.2095,-0.0058,-0.0379,-0.048,2817,2019-08-07 17:01:05:248
-0.4117,9.931,0.3616,0.0435,-0.2336,-0.2095,-0.0058,-0.0379,-0.048,2822,2019-08-07 17:01:05:253
-0.3267,10.0075,0.1021,0.0435,-0.2336,-0.2095,-0.0058,-0.0379,-0.048,2827,2019-08-07 17:01:05:258
-0.3267,10.0075,0.1021,0.0435,-0.2336,-0.2095,-0.0282,0.0111,-0.0522,2832,2019-08-07 17:01:05:263
-0.5755,9.9979,0.729,0.2104,-0.1957,-0.8655,-0.0303,-0.0166,-0.0448,2837,2019-08-07 17:01:05:268
-0.5755,9.9979,0.729,0.2104,-0.1957,-0.8655,-0.0303,-0.0166,-0.0448,2842,2019-08-07 17:01:05:273
-0.5755,9.9979,0.729,0.2104,-0.1957,-0.8655,-0.0069,-0.0751,-0.032,2847,2019-08-07 17:01:05:278
-0.5085,9.8929,0.6065,0.2104,-0.1957,-0.8655,-0.0069,-0.0751,-0.032,2852,2019-08-07 17:01:05:283
-0.5085,9.8929,0.6065,0.2104,-0.1957,-0.8655,-0.0069,-0.0751,-0.032,2856,2019-08-07 17:01:05:287
-0.5085,9.8929,0.6065,0.0923,-0.1147,-0.5456,6.0E-4,-0.1039,-0.0309,2862,2019-08-07 17:01:05:293
-0.4463,9.8738,0.4226,0.0923,-0.1147,-0.5456,6.0E-4,-0.1039,-0.0309,2867,2019-08-07 17:01:05:298
-0.4463,9.8738,0.4226,0.0923,-0.1147,-0.5456,-0.0037,-0.0847,-0.0267,2872,2019-08-07 17:01:05:303
-0.4463,9.8738,0.4226,0.0923,-0.1147,-0.5456,-0.0037,-0.0847,-0.0267,2877,2019-08-07 17:01:05:308
-0.1928,9.8691,0.4792,-0.1859,-0.0671,-0.6014,0.0027,-0.0837,-0.033,2882,2019-08-07 17:01:05:313
-0.1928,9.8691,0.4792,-0.1859,-0.0671,-0.6014,0.0027,-0.0837,-0.033,2887,2019-08-07 17:01:05:318
-0.1928,9.8691,0.4792,-0.1859,-0.0671,-0.6014,0.0017,-0.057,-0.0426,2892,2019-08-07 17:01:05:323
-0.1593,9.8882,0.3802,-0.1859,-0.0671,-0.6014,0.0017,-0.057,-0.0426,2897,2019-08-07 17:01:05:328
-0.1593,9.8882,0.3802,-0.2928,-0.0817,-0.6347,0.0017,-0.057,-0.0426,2902,2019-08-07 17:01:05:333
-0.0588,9.9502,0.4981,-0.2928,-0.0817,-0.6347,6.0E-4,-0.0208,-0.0565,2907,2019-08-07 17:01:05:338
-0.0588,9.9502,0.4981,-0.2928,-0.0817,-0.6347,6.0E-4,-0.0208,-0.0565,2912,2019-08-07 17:01:05:343
-0.0588,9.9502,0.4981,-0.2928,-0.0817,-0.6347,0.007,-0.0016,-0.0682,2917,2019-08-07 17:01:05:348
-0.2072,9.8786,0.6442,-0.2452,-0.0677,-0.7382,0.007,-0.0016,-0.0682,2922,2019-08-07 17:01:05:353
-0.2072,9.8786,0.6442,-0.2452,-0.0677,-0.7382,0.008,0.0314,-0.0725,2927,2019-08-07 17:01:05:358
-0.2072,9.8786,0.6442,-0.2452,-0.0677,-0.7382,0.008,0.0314,-0.0725,2932,2019-08-07 17:01:05:363
-0.2024,9.8404,0.6112,-0.2452,-0.0677,-0.7382,0.023,0.0335,-0.0821,2937,2019-08-07 17:01:05:368
-0.2024,9.8404,0.6112,-0.1295,-0.0348,-0.6649,0.023,0.0335,-0.0821,2942,2019-08-07 17:01:05:373
-0.2598,9.7927,0.5075,-0.1295,-0.0348,-0.6649,0.0325,0.0356,-0.0852,2947,2019-08-07 17:01:05:378
-0.2598,9.7927,0.5075,-0.1295,-0.0348,-0.6649,0.0325,0.0356,-0.0852,2951,2019-08-07 17:01:05:382
-0.2598,9.7927,0.5075,-0.1295,-0.0348,-0.6649,0.0325,0.0356,-0.0852,2957,2019-08-07 17:01:05:388
-0.3698,9.8547,0.4085,-0.0354,-0.0259,-0.5304,0.0379,0.042,-0.0863,2962,2019-08-07 17:01:05:393
-0.3698,9.8547,0.4085,-0.0354,-0.0259,-0.5304,0.0379,0.042,-0.0863,2967,2019-08-07 17:01:05:398
-0.3698,9.8547,0.4085,-0.0354,-0.0259,-0.5304,0.0379,0.042,-0.0863,2972,2019-08-07 17:01:05:403
-0.5038,9.9884,0.3943,-0.0354,-0.0259,-0.5304,0.0304,0.0399,-0.081,2977,2019-08-07 17:01:05:408
-0.5038,9.9884,0.3943,-0.0354,-0.0259,-0.5304,0.0304,0.0399,-0.081,2982,2019-08-07 17:01:05:413
-0.5038,9.9884,0.3943,0.077,-0.1795,-0.5662,0.0357,0.0133,-0.0735,2987,2019-08-07 17:01:05:418
-0.6043,9.9216,0.4368,0.077,-0.1795,-0.5662,0.0357,0.0133,-0.0735,2991,2019-08-07 17:01:05:422
-0.6043,9.9216,0.4368,0.077,-0.1795,-0.5662,0.0315,0.0186,-0.065,2997,2019-08-07 17:01:05:428
-0.6043,9.9216,0.4368,0.0904,-0.1802,-0.5874,0.0315,0.0186,-0.065,3001,2019-08-07 17:01:05:432
-0.4751,10.0171,0.5357,0.0904,-0.1802,-0.5874,0.0315,0.0261,-0.065,3007,2019-08-07 17:01:05:438
-0.4751,10.0171,0.5357,0.0904,-0.1802,-0.5874,0.0315,0.0261,-0.065,3012,2019-08-07 17:01:05:443
-0.4751,10.0171,0.5357,0.0904,-0.1802,-0.5874,0.0315,0.0261,-0.065,3017,2019-08-07 17:01:05:448
-0.4273,10.0505,0.4933,-0.0356,-0.2521,-0.6118,0.0294,0.0303,-0.0597,3022,2019-08-07 17:01:05:453
-0.4273,10.0505,0.4933,-0.0356,-0.2521,-0.6118,0.0294,0.0303,-0.0597,3026,2019-08-07 17:01:05:457
-0.6378,9.9168,0.2671,-0.0356,-0.2521,-0.6118,0.0017,0.1028,-0.0533,3032,2019-08-07 17:01:05:463
-0.6378,9.9168,0.2671,-0.0356,-0.2521,-0.6118,0.0017,0.1028,-0.0533,3036,2019-08-07 17:01:05:467
-0.6378,9.9168,0.2671,0.2204,-0.1145,-0.5742,-0.0047,0.0793,-0.0416,3042,2019-08-07 17:01:05:473
-0.7479,9.9216,0.4462,0.2204,-0.1145,-0.5742,-0.0047,0.0793,-0.0416,3047,2019-08-07 17:01:05:478
-0.7479,9.9216,0.4462,0.2204,-0.1145,-0.5742,-5.0E-4,0.0154,-0.032,3051,2019-08-07 17:01:05:482
-0.7239,9.9359,0.432,0.2204,-0.1145,-0.5742,-5.0E-4,0.0154,-0.032,3057,2019-08-07 17:01:05:488
-0.7239,9.9359,0.432,0.2553,-0.2103,-0.4331,-0.0037,-0.0176,-0.0192,3062,2019-08-07 17:01:05:493
-0.7239,9.9359,0.432,0.2553,-0.2103,-0.4331,-0.0037,-0.0176,-0.0192,3067,2019-08-07 17:01:05:498
-0.6331,10.0075,0.2482,0.2553,-0.2103,-0.4331,-0.0154,-0.0283,-0.0107,3072,2019-08-07 17:01:05:503
-0.6331,10.0075,0.2482,0.2553,-0.2103,-0.4331,-0.0154,-0.0283,-0.0107,3077,2019-08-07 17:01:05:508
-0.5182,9.9741,0.3472,0.0698,-0.177,-0.3898,-0.0196,-0.0379,-0.0064,3083,2019-08-07 17:01:05:514
-0.5182,9.9741,0.3472,0.0698,-0.177,-0.3898,-0.0196,-0.0379,-0.0064,3087,2019-08-07 17:01:05:518
-0.5182,9.9741,0.3472,0.0698,-0.177,-0.3898,-0.0196,-0.0379,-0.0064,3092,2019-08-07 17:01:05:523
-0.3843,9.9789,0.432,0.0698,-0.177,-0.3898,-0.0165,-0.0506,-0.0075,3096,2019-08-07 17:01:05:527
-0.3843,9.9789,0.432,-0.0797,-0.1579,-0.4427,-0.0165,-0.0506,-0.0075,3102,2019-08-07 17:01:05:533
-0.3843,9.9789,0.432,-0.0797,-0.1579,-0.4427,-0.0207,-0.0485,-0.0107,3107,2019-08-07 17:01:05:538
-0.3939,9.8834,0.4697,-0.0797,-0.1579,-0.4427,-0.0207,-0.0485,-0.0107,3112,2019-08-07 17:01:05:543
-0.3939,9.8834,0.4697,-0.0797,-0.1579,-0.4427,-0.025,-0.0272,-0.0107,3117,2019-08-07 17:01:05:548
-0.3939,9.8834,0.4697,-0.0764,-0.0481,-0.6501,-0.025,-0.0272,-0.0107,3122,2019-08-07 17:01:05:553
-0.4609,9.85,0.5876,-0.0764,-0.0481,-0.6501,-0.0165,-0.0325,-0.0107,3127,2019-08-07 17:01:05:558
-0.4609,9.85,0.5876,-0.0764,-0.0481,-0.6501,-0.0165,-0.0325,-0.0107,3132,2019-08-07 17:01:05:563
-0.547,9.9598,0.4462,-0.0764,-0.0481,-0.6501,-0.0122,-0.0453,0.0,3136,2019-08-07 17:01:05:567
-0.547,9.9598,0.4462,0.0607,-0.1102,-0.6094,-0.0122,-0.0453,0.0,3142,2019-08-07 17:01:05:573
-0.547,9.9598,0.4462,0.0607,-0.1102,-0.6094,-0.0037,-0.0581,-0.0075,3146,2019-08-07 17:01:05:577
-0.5901,9.955,0.5923,0.0607,-0.1102,-0.6094,-0.0037,-0.0581,-0.0075,3152,2019-08-07 17:01:05:583
-0.5901,9.955,0.5923,0.0607,-0.1102,-0.6094,0.0049,-0.0773,0.0032,3157,2019-08-07 17:01:05:588
-0.4992,9.9884,0.5687,0.0023,-0.1913,-0.6462,0.0049,-0.0773,0.0032,3162,2019-08-07 17:01:05:593
-0.4992,9.9884,0.5687,0.0023,-0.1913,-0.6462,-0.254,-0.9337,0.0149,3167,2019-08-07 17:01:05:598
-0.4992,9.9884,0.5687,0.0023,-0.1913,-0.6462,-0.254,-0.9337,0.0149,3172,2019-08-07 17:01:05:603
-0.0447,8.9955,-0.0959,0.0023,-0.1913,-0.6462,-0.254,-0.9337,0.0149,3177,2019-08-07 17:01:05:608
-0.0447,8.9955,-0.0959,0.3849,-1.4137,2.0482,0.219,-0.2232,-0.0224,3182,2019-08-07 17:01:05:613
0.2567,9.8452,-0.2232,0.3849,-1.4137,2.0482,0.219,-0.2232,-0.0224,3186,2019-08-07 17:01:05:617
0.2567,9.8452,-0.2232,0.3849,-1.4137,2.0482,-0.0995,-0.1348,0.0319,3192,2019-08-07 17:01:05:623
0.2567,9.8452,-0.2232,0.3849,-1.4137,2.0482,-0.0995,-0.1348,0.0319,3198,2019-08-07 17:01:05:629
-0.0495,10.1364,0.6017,-0.258,-0.363,-0.745,0.023,0.237,-0.0235,3202,2019-08-07 17:01:05:633
-0.0495,10.1364,0.6017,-0.258,-0.363,-0.745,0.023,0.237,-0.0235,3207,2019-08-07 17:01:05:638
-0.4896,9.7545,0.1963,-0.258,-0.363,-0.745,-0.0101,0.2018,-0.0139,3213,2019-08-07 17:01:05:644
-0.4896,9.7545,0.1963,-0.258,-0.363,-0.745,-0.0101,0.2018,-0.0139,3217,2019-08-07 17:01:05:648
-0.4896,9.7545,0.1963,0.0176,-0.1864,-0.4625,0.0304,0.3456,-0.0107,3223,2019-08-07 17:01:05:654
-0.4514,9.9932,0.3519,0.0176,-0.1864,-0.4625,0.0304,0.3456,-0.0107,3227,2019-08-07 17:01:05:658
-0.4514,9.9932,0.3519,0.0176,-0.1864,-0.4625,-0.0143,0.3286,-0.0256,3232,2019-08-07 17:01:05:663
-0.4514,9.9932,0.3519,0.0176,-0.1864,-0.4625,-0.0143,0.3286,-0.0256,3236,2019-08-07 17:01:05:667
-0.7911,9.912,1.2098,0.0176,-0.1864,-0.4625,-0.0143,0.3286,-0.0256,3242,2019-08-07 17:01:05:673
-0.7911,9.912,1.2098,0.4112,-0.0577,-1.4864,-0.0271,0.0751,-0.0032,3246,2019-08-07 17:01:05:677
-0.9346,9.8595,0.6253,0.4112,-0.0577,-1.4864,-0.0271,0.0751,-0.0032,3252,2019-08-07 17:01:05:683
-0.9346,9.8595,0.6253,0.4112,-0.0577,-1.4864,0.04,-0.121,0.0138,3257,2019-08-07 17:01:05:688
-0.9346,9.8595,0.6253,0.4112,-0.0577,-1.4864,0.04,-0.121,0.0138,3262,2019-08-07 17:01:05:693
-0.3605,10.0409,0.3283,-0.1394,-0.2439,-0.3913,0.04,-0.121,0.0138,3267,2019-08-07 17:01:05:698
-0.3605,10.0409,0.3283,-0.1394,-0.2439,-0.3913,0.0315,-0.0773,0.0138,3272,2019-08-07 17:01:05:703