ACCELEROMETER X (m/s²),ACCELEROMETER Y (m/s²),ACCELEROMETER Z (m/s²),LINEAR ACCELERATION X (m/s²),LINEAR ACCELERATION Y (m/s²),LINEAR ACCELERATION Z (m/s²),GYROSCOPE X (rad/s),GYROSCOPE Y (rad/s),GYROSCOPE Z (rad/s),Time since start in ms ,YYYY-MO-DD HH-MI-SS_SSS
-0.446,9.9831,0.122,-0.0906,-0.0476,-0.3907,-0.0282,-0.0059,-0.0383,3,2019-08-07 17:01:35:336
-0.446,9.9831,0.122,-0.2962,-0.2195,-0.217,-0.0282,-0.0059,-0.0383,8,2019-08-07 17:01:35:341
-0.3838,9.9736,-0.1561,-0.2962,-0.2195,-0.217,-0.0282,-0.0059,-0.0383,12,2019-08-07 17:01:35:345
-0.3838,9.9736,-0.1561,-0.2962,-0.2195,-0.217,-0.041,0.0367,-0.0511,18,2019-08-07 17:01:35:351
-0.3838,9.9736,-0.1561,-0.2962,-0.2195,-0.217,-0.041,0.0367,-0.0511,22,2019-08-07 17:01:35:355
-0.6278,9.8542,0.0796,-0.0222,-0.0575,-0.4669,-0.0548,0.058,-0.0543,28,2019-08-07 17:01:35:361
-0.6278,9.8542,0.0796,-0.0222,-0.0575,-0.4669,-0.0548,0.058,-0.0543,33,2019-08-07 17:01:35:366
-0.8048,9.8781,0.3577,-0.0222,-0.0575,-0.4669,-0.0442,0.025,-0.0479,38,2019-08-07 17:01:35:371
-0.8048,9.8781,0.3577,-0.0222,-0.0575,-0.4669,-0.0442,0.025,-0.0479,42,2019-08-07 17:01:35:375
-0.8048,9.8781,0.3577,0.1063,-0.0484,-0.421,-0.0292,-0.0134,-0.0383,48,2019-08-07 17:01:35:381
-0.8526,9.8399,0.1645,0.1063,-0.0484,-0.421,-0.0292,-0.0134,-0.0383,52,2019-08-07 17:01:35:385
-0.8526,9.8399,0.1645,0.1063,-0.0484,-0.421,-0.0282,-0.0166,-0.0266,58,2019-08-07 17:01:35:391
-0.8287,9.8829,0.353,0.1063,-0.0484,-0.421,-0.0282,-0.0166,-0.0266,62,2019-08-07 17:01:35:395
-0.8287,9.8829,0.353,0.1473,-0.1441,-0.6799,-0.0165,-0.0187,-0.0234,68,2019-08-07 17:01:35:401
-0.7617,9.9354,0.4426,0.1473,-0.1441,-0.6799,-0.0165,-0.0187,-0.0234,73,2019-08-07 17:01:35:406
-0.7617,9.9354,0.4426,0.1473,-0.1441,-0.6799,0.0059,-0.04,-0.0192,78,2019-08-07 17:01:35:411
-0.7617,9.9354,0.4426,0.1473,-0.1441,-0.6799,0.0059,-0.04,-0.0192,84,2019-08-07 17:01:35:417
-0.6373,9.9067,0.4002,-0.0723,-0.1252,-0.6324,0.0059,-0.04,-0.0192,88,2019-08-07 17:01:35:421
-0.6373,9.9067,0.4002,-0.0723,-0.1252,-0.6324,0.0261,-0.0485,-0.0192,92,2019-08-07 17:01:35:425
-0.6373,9.9067,0.4002,-0.0723,-0.1252,-0.6324,0.0261,-0.0485,-0.0192,99,2019-08-07 17:01:35:432
-0.4076,9.9879,0.2305,-0.0723,-0.1252,-0.6324,0.0389,-0.0421,-0.033,102,2019-08-07 17:01:35:435
-0.4076,9.9879,0.2305,-0.3861,-0.1636,-0.4933,0.0389,-0.0421,-0.033,108,2019-08-07 17:01:35:441
-0.3358,9.9163,0.2163,-0.3861,-0.1636,-0.4933,0.0443,-0.008,-0.0426,112,2019-08-07 17:01:35:445
-0.3358,9.9163,0.2163,-0.3861,-0.1636,-0.4933,0.0443,-0.008,-0.0426,118,2019-08-07 17:01:35:451
-0.3358,9.9163,0.2163,-0.3861,-0.1636,-0.4933,0.0464,0.0282,-0.0522,122,2019-08-07 17:01:35:455
-0.4076,9.8065,0.1032,-0.2682,-0.0688,-0.3153,0.0464,0.0282,-0.0522,128,2019-08-07 17:01:35:461
-0.4076,9.8065,0.1032,-0.2682,-0.0688,-0.3153,0.0496,0.0335,-0.0596,133,2019-08-07 17:01:35:466
-0.642,9.7922,0.0561,-0.2682,-0.0688,-0.3153,0.0496,0.0335,-0.0596,138,2019-08-07 17:01:35:471
-0.642,9.7922,0.0561,-0.2682,-0.0688,-0.3153,0.0496,0.0356,-0.0639,144,2019-08-07 17:01:35:477
-0.642,9.7922,0.0561,-0.2682,-0.0688,-0.3153,0.0496,0.0356,-0.0639,148,2019-08-07 17:01:35:481
-0.7185,9.8256,0.1079,0.0121,-0.0603,-0.2762,0.0496,0.0356,-0.0639,153,2019-08-07 17:01:35:486
-0.7185,9.8256,0.1079,0.0121,-0.0603,-0.2762,0.0517,-0.0027,-0.065,158,2019-08-07 17:01:35:491
-0.7185,9.8256,0.1079,0.0121,-0.0603,-0.2762,0.0517,-0.0027,-0.065,163,2019-08-07 17:01:35:496
-0.6898,9.8399,-0.0146,-0.0535,-0.0662,-0.072,0.0528,-0.0272,-0.0682,168,2019-08-07 17:01:35:501
-0.6898,9.8399,-0.0146,-0.0535,-0.0662,-0.072,0.0528,-0.0272,-0.0682,172,2019-08-07 17:01:35:505
-0.6898,9.9688,-0.2032,-0.0535,-0.0662,-0.072,0.0411,-0.0208,-0.066,178,2019-08-07 17:01:35:511
-0.6898,9.9688,-0.2032,-0.0535,-0.0662,-0.072,0.0357,0.0069,-0.065,183,2019-08-07 17:01:35:516
-0.7615,10.1025,0.5463,0.0052,-0.3252,-0.808,0.0357,0.0069,-0.065,188,2019-08-07 17:01:35:521
-0.7615,10.1025,0.5463,0.0052,-0.3252,-0.808,0.0357,0.0069,-0.065,192,2019-08-07 17:01:35:525
-0.7615,10.1025,0.5463,0.0052,-0.3252,-0.808,0.0453,0.0047,-0.0522,198,2019-08-07 17:01:35:531
-0.8189,10.1072,0.2352,0.0052,-0.3252,-0.808,0.0453,0.0047,-0.0522,202,2019-08-07 17:01:35:535
-0.8189,10.1072,0.2352,0.0052,-0.3252,-0.808,0.0549,-0.0112,-0.0394,208,2019-08-07 17:01:35:541
-0.8189,10.1072,0.2352,0.1674,-0.3165,0.0347,0.0549,-0.0112,-0.0394,212,2019-08-07 17:01:35:545
-1.0916,9.9974,-0.2409,0.1674,-0.3165,0.0347,0.0453,0.0154,-0.0405,218,2019-08-07 17:01:35:551
-1.0916,9.9974,-0.2409,0.1674,-0.3165,0.0347,0.0453,0.0154,-0.0405,222,2019-08-07 17:01:35:555
-1.0916,9.9974,-0.2409,0.1674,-0.3165,0.0347,0.0464,0.0037,-0.0202,228,2019-08-07 17:01:35:561
-1.0342,9.9115,0.584,0.2591,-0.136,-0.857,0.0464,0.0037,-0.0202,234,2019-08-07 17:01:35:567
-1.0342,9.9115,0.584,0.2591,-0.136,-0.857,0.0751,-0.0922,-0.0064,237,2019-08-07 17:01:35:570
-0.8237,9.8399,0.2446,0.2591,-0.136,-0.857,0.0751,-0.0922,-0.0064,243,2019-08-07 17:01:35:576
-0.8237,9.8399,0.2446,0.2591,-0.136,-0.857,0.0911,-0.1306,-0.0021,248,2019-08-07 17:01:35:581
-0.8237,9.8399,0.2446,-0.107,-0.1699,-0.2489,0.0911,-0.1306,-0.0021,252,2019-08-07 17:01:35:585
-0.5366,10.0117,-0.1466,-0.107,-0.1699,-0.2489,0.0837,-0.0869,-0.0064,258,2019-08-07 17:01:35:591
-0.5366,10.0117,-0.1466,-0.107,-0.1699,-0.2489,0.0837,-0.0869,-0.0064,263,2019-08-07 17:01:35:596
-0.4887,10.0404,0.0043,-0.107,-0.1699,-0.2489,0.0837,-0.0869,-0.0064,268,2019-08-07 17:01:35:601
-0.4887,10.0404,0.0043,-0.2646,-0.2323,-0.3138,0.0762,-0.0262,-0.016,272,2019-08-07 17:01:35:605
-0.4887,10.0404,0.0043,-0.2646,-0.2323,-0.3138,0.0762,-0.0262,-0.016,278,2019-08-07 17:01:35:611
-0.6466,9.8733,0.1032,-0.2646,-0.2323,-0.3138,0.0794,-0.0208,-0.0181,283,2019-08-07 17:01:35:616
-0.6466,9.8733,0.1032,-0.2646,-0.2323,-0.3138,0.0794,-0.0208,-0.0181,288,2019-08-07 17:01:35:621
-0.7183,9.8017,0.2447,-0.0854,-0.0323,-0.552,0.0901,-0.0485,-0.017,294,2019-08-07 17:01:35:627
-0.7183,9.8017,0.2447,-0.0854,-0.0323,-0.552,0.0901,-0.0485,-0.017,298,2019-08-07 17:01:35:631
-0.7183,9.8017,0.2447,-0.0854,-0.0323,-0.552,0.0901,-0.0485,-0.017,303,2019-08-07 17:01:35:636
-0.704,9.7396,-0.0712,-0.0854,-0.0323,-0.552,0.106,-0.0773,-0.0192,308,2019-08-07 17:01:35:641
-0.704,9.7396,-0.0712,-0.1367,-0.0188,-0.2088,0.106,-0.0773,-0.0192,313,2019-08-07 17:01:35:646
-0.704,9.7396,-0.0712,-0.1367,-0.0188,-0.2088,0.0975,-0.056,-0.0256,317,2019-08-07 17:01:35:650
-0.7518,9.9354,-0.1136,-0.1367,-0.0188,-0.2088,0.0975,-0.056,-0.0256,323,2019-08-07 17:01:35:656
-0.7518,9.9354,-0.1136,-0.1367,-0.0188,-0.2088,0.0965,-0.0155,-0.0277,327,2019-08-07 17:01:35:660
-0.7996,10.0404,0.3814,0.0114,-0.268,-0.7199,0.0965,-0.0155,-0.0277,333,2019-08-07 17:01:35:666
-0.7996,10.0404,0.3814,0.0114,-0.268,-0.7199,0.1114,-0.0421,-0.0224,338,2019-08-07 17:01:35:671
-0.7996,10.0404,0.3814,0.0114,-0.268,-0.7199,0.1114,-0.0421,-0.0224,342,2019-08-07 17:01:35:675
-0.8905,10.1024,0.5086,0.0114,-0.268,-0.7199,0.1412,-0.0922,-0.0149,348,2019-08-07 17:01:35:681
-0.8905,10.1024,0.5086,-0.0263,-0.2784,-0.6983,0.1412,-0.0922,-0.0149,353,2019-08-07 17:01:35:686
-0.8905,10.1024,0.5086,-0.0263,-0.2784,-0.6983,0.1412,-0.0922,-0.0149,358,2019-08-07 17:01:35:691
-0.6609,10.0022,0.0561,-0.0263,-0.2784,-0.6983,0.1582,-0.1039,-0.017,363,2019-08-07 17:01:35:696
-0.6609,10.0022,0.0561,-0.0263,-0.2784,-0.6983,0.1582,-0.1039,-0.017,370,2019-08-07 17:01:35:703
-0.6273,9.9497,-0.1183,-0.1685,-0.1794,-0.2628,0.1593,-0.072,-0.0256,373,2019-08-07 17:01:35:706
-0.6273,9.9497,-0.1183,-0.1685,-0.1794,-0.2628,0.1593,-0.072,-0.0256,378,2019-08-07 17:01:35:711
-0.6273,9.9497,-0.1183,-0.1685,-0.1794,-0.2628,0.1604,-0.0645,-0.0234,383,2019-08-07 17:01:35:716
-0.5699,9.6776,-0.2314,-0.1685,-0.1794,-0.2628,0.1604,-0.0645,-0.0234,387,2019-08-07 17:01:35:720
-0.5699,9.6776,-0.2314,-0.1577,0.1342,-0.1364,0.1572,-0.0805,-0.0202,393,2019-08-07 17:01:35:726
-0.7374,9.6012,-0.387,-0.1577,0.1342,-0.1364,0.1572,-0.0805,-0.0202,397,2019-08-07 17:01:35:730
-0.7374,9.6012,-0.387,-0.1577,0.1342,-0.1364,0.1572,-0.0805,-0.0202,403,2019-08-07 17:01:35:736
-0.7374,9.6012,-0.387,-0.1577,0.1342,-0.1364,0.1444,-0.0741,-0.0277,407,2019-08-07 17:01:35:740
-0.6799,9.6776,-0.189,-0.1339,0.0562,-0.3095,0.1444,-0.0741,-0.0277,413,2019-08-07 17:01:35:746
-0.6799,9.6776,-0.189,-0.1339,0.0562,-0.3095,0.1433,-0.0986,-0.0362,418,2019-08-07 17:01:35:751
-0.5364,9.8446,-0.3162,-0.1339,0.0562,-0.3095,0.1433,-0.0986,-0.0362,422,2019-08-07 17:01:35:755
-0.5364,9.8446,-0.3162,-0.1339,0.0562,-0.3095,0.1455,-0.1146,-0.0447,428,2019-08-07 17:01:35:761
-0.5364,9.8446,-0.3162,-0.2414,-0.1031,0.1027,0.1455,-0.1146,-0.0447,433,2019-08-07 17:01:35:766
-0.5507,9.859,-0.5237,-0.2414,-0.1031,0.1027,0.1359,-0.0752,-0.0533,438,2019-08-07 17:01:35:771
-0.5507,9.859,-0.5237,-0.2414,-0.1031,0.1027,0.1359,-0.0752,-0.0533,442,2019-08-07 17:01:35:775
-0.6607,9.8112,-0.1654,-0.1982,-0.0134,-0.2159,0.1231,-0.023,-0.0543,448,2019-08-07 17:01:35:781
-0.6607,9.8112,-0.1654,-0.1982,-0.0134,-0.2159,0.1231,-0.023,-0.0543,452,2019-08-07 17:01:35:785
-0.6607,9.8112,-0.1654,-0.1982,-0.0134,-0.2159,0.122,-0.0283,-0.0564,458,2019-08-07 17:01:35:791
-0.8712,9.9974,-0.0853,-0.1982,-0.0134,-0.2159,0.122,-0.0283,-0.0564,462,2019-08-07 17:01:35:795
-0.8712,9.9974,-0.0853,0.0732,-0.2015,-0.3922,0.1305,-0.0443,-0.0522,468,2019-08-07 17:01:35:801
-0.8904,9.9449,-0.1371,0.0732,-0.2015,-0.3922,0.1305,-0.0443,-0.0522,473,2019-08-07 17:01:35:806
-0.8904,9.9449,-0.1371,0.0732,-0.2015,-0.3922,0.1401,-0.0634,-0.0533,478,2019-08-07 17:01:35:811
-0.8904,9.9449,-0.1371,-0.0672,-0.0031,-0.4426,0.1401,-0.0634,-0.0533,484,2019-08-07 17:01:35:817
-0.7277,9.7062,-0.0853,-0.0672,-0.0031,-0.4426,0.1529,-0.0805,-0.0564,487,2019-08-07 17:01:35:820
-0.7277,9.7062,-0.0853,-0.0672,-0.0031,-0.4426,0.1529,-0.0805,-0.0564,492,2019-08-07 17:01:35:825
-0.6655,9.7062,-0.3681,-0.0672,-0.0031,-0.4426,0.1508,-0.0645,-0.0543,498,2019-08-07 17:01:35:831
-0.6655,9.7062,-0.3681,-0.1878,-7.0E-4,-0.0544,0.1508,-0.0645,-0.0543,503,2019-08-07 17:01:35:836
-0.6655,9.7062,-0.3681,-0.1878,-7.0E-4,-0.0544,0.1327,-0.0272,-0.0522,508,2019-08-07 17:01:35:841
-0.7994,9.8637,-0.632,-0.1878,-7.0E-4,-0.0544,0.1327,-0.0272,-0.0522,513,2019-08-07 17:01:35:846
-0.7994,9.8637,-0.632,-0.1878,-7.0E-4,-0.0544,0.1082,0.0218,-0.0522,518,2019-08-07 17:01:35:851
-1.0051,9.8971,-0.6509,0.1464,-0.1414,0.0813,0.1082,0.0218,-0.0522,523,2019-08-07 17:01:35:856
-1.0051,9.8971,-0.6509,0.1464,-0.1414,0.0813,0.1082,0.0218,-0.0522,528,2019-08-07 17:01:35:861
-1.0051,9.8971,-0.6509,0.1464,-0.1414,0.0813,0.0901,0.0292,-0.0447,532,2019-08-07 17:01:35:865
-1.1965,10.0165,-0.2691,0.1464,-0.1414,0.0813,0.0901,0.0292,-0.0447,538,2019-08-07 17:01:35:871
-1.1965,10.0165,-0.2691,0.3367,-0.2244,-0.2741,0.0879,-0.0464,-0.0351,544,2019-08-07 17:01:35:877
-1.1821,9.9783,-0.4293,0.3367,-0.2244,-0.2741,0.0879,-0.0464,-0.0351,549,2019-08-07 17:01:35:882
-1.1821,9.9783,-0.4293,0.3367,-0.2244,-0.2741,0.0858,-0.1146,-0.0256,553,2019-08-07 17:01:35:886
-1.1821,9.9783,-0.4293,0.3367,-0.2244,-0.2741,0.0858,-0.1146,-0.0256,558,2019-08-07 17:01:35:891
-0.895,10.0356,-0.4671,0.3367,-0.2244,-0.2741,0.0794,-0.1476,-0.0277,563,2019-08-07 17:01:35:896
-0.895,10.0356,-0.4671,-0.0347,-0.2689,-0.0614,0.0794,-0.1476,-0.0277,567,2019-08-07 17:01:35:900
-0.895,10.0356,-0.4671,-0.0347,-0.2689,-0.0614,0.0698,-0.1231,-0.0256,573,2019-08-07 17:01:35:906
-0.6367,9.9974,-0.6839,-0.0347,-0.2689,-0.0614,0.0698,-0.1231,-0.0256,578,2019-08-07 17:01:35:911
-0.6367,9.9974,-0.6839,-0.0347,-0.2689,-0.0614,0.0475,-0.0826,-0.033,583,2019-08-07 17:01:35:916
-0.5792,9.8494,-0.6226,-0.3075,-0.1173,0.0033,0.0475,-0.0826,-0.033,587,2019-08-07 17:01:35:920
-0.5792,9.8494,-0.6226,-0.3075,-0.1173,0.0033,0.0347,-0.0496,-0.0362,593,2019-08-07 17:01:35:926
-0.5792,9.8494,-0.6226,-0.3075,-0.1173,0.0033,0.0347,-0.0496,-0.0362,598,2019-08-07 17:01:35:931
-0.6271,9.7635,-0.5707,-0.3075,-0.1173,0.0033,0.0272,-0.0368,-0.0383,603,2019-08-07 17:01:35:936
-0.6271,9.7635,-0.5707,-0.1556,-0.0561,-0.1389,0.0272,-0.0368,-0.0383,608,2019-08-07 17:01:35:941
-0.8328,9.8207,-0.3115,-0.1556,-0.0561,-0.1389,0.0251,-0.0315,-0.0298,613,2019-08-07 17:01:35:946
-0.8328,9.8207,-0.3115,-0.1556,-0.0561,-0.1389,0.0251,-0.0315,-0.0298,617,2019-08-07 17:01:35:950
-0.8328,9.8207,-0.3115,-0.1556,-0.0561,-0.1389,0.0251,-0.0315,-0.0298,623,2019-08-07 17:01:35:956
-0.9571,9.9019,-0.2738,0.0633,-0.1522,-0.3427,0.0187,-0.0336,-0.0149,628,2019-08-07 17:01:35:961
-0.9571,9.9019,-0.2738,0.0633,-0.1522,-0.3427,0.0187,-0.0336,-0.0149,633,2019-08-07 17:01:35:966
-1.0863,9.8207,-0.302,0.0633,-0.1522,-0.3427,0.0176,-0.0208,-0.0106,638,2019-08-07 17:01:35:971
-1.0863,9.8207,-0.302,0.0633,-0.1522,-0.3427,0.0176,-0.0208,-0.0106,644,2019-08-07 17:01:35:977
-1.0672,9.7396,-0.3162,0.1501,0.005,-0.3052,0.0155,-0.0123,-0.0085,648,2019-08-07 17:01:35:981
-1.0672,9.7396,-0.3162,0.1501,0.005,-0.3052,0.0155,-0.0123,-0.0085,652,2019-08-07 17:01:35:985
-1.0672,9.7396,-0.3162,0.1501,0.005,-0.3052,0.0155,-0.0123,-0.0085,658,2019-08-07 17:01:35:991
-0.9667,9.6441,-0.4482,0.1501,0.005,-0.3052,0.0059,-0.0123,-0.0106,663,2019-08-07 17:01:35:996
-0.9667,9.6441,-0.4482,0.0374,0.0238,-0.0887,0.0059,-0.0123,-0.0106,667,2019-08-07 17:01:36:000
-0.7657,9.9067,-0.6226,0.0374,0.0238,-0.0887,-0.009,-0.0251,-0.0106,673,2019-08-07 17:01:36:006
-0.7657,9.9067,-0.6226,0.0374,0.0238,-0.0887,-0.009,-0.0251,-0.0106,678,2019-08-07 17:01:36:011
-0.7657,9.9067,-0.6226,0.0374,0.0238,-0.0887,-0.0122,-0.0379,-0.0128,683,2019-08-07 17:01:36:016
-0.5313,10.0928,-0.4906,-0.3701,-0.3437,-0.1237,-0.0122,-0.0379,-0.0128,688,2019-08-07 17:01:36:021
-0.5313,10.0928,-0.4906,-0.3701,-0.3437,-0.1237,-0.0133,-0.0251,-0.0181,694,2019-08-07 17:01:36:027
-0.5982,10.1072,-0.5566,-0.3701,-0.3437,-0.1237,-0.0133,-0.0251,-0.0181,698,2019-08-07 17:01:36:031
-0.5982,10.1072,-0.5566,-0.3701,-0.3437,-0.1237,-0.0207,-0.0134,-0.0202,703,2019-08-07 17:01:36:036
-0.5982,10.1072,-0.5566,-0.1757,-0.2433,-0.2789,-0.0207,-0.0134,-0.0202,708,2019-08-07 17:01:36:041
-0.7609,9.9544,-0.2737,-0.1757,-0.2433,-0.2789,-0.0207,-0.0134,-0.0202,712,2019-08-07 17:01:36:045
-0.7609,9.9544,-0.2737,-0.1757,-0.2433,-0.2789,-0.0186,-0.0091,-0.0192,718,2019-08-07 17:01:36:051
-1.1006,9.773,0.0327,-0.1757,-0.2433,-0.2789,-0.0186,-0.0091,-0.0192,723,2019-08-07 17:01:36:056
-1.1006,9.773,0.0327,0.2223,-0.0378,-0.5818,-0.0069,-0.0507,0.0,727,2019-08-07 17:01:36:060
-1.1006,9.773,0.0327,0.2223,-0.0378,-0.5818,-0.0069,-0.0507,0.0,733,2019-08-07 17:01:36:066
-1.0862,9.8876,-0.2172,0.2223,-0.0378,-0.5818,-0.0047,-0.089,0.0107,738,2019-08-07 17:01:36:071
-1.0862,9.8876,-0.2172,0.2223,-0.0378,-0.5818,-0.0047,-0.089,0.0107,742,2019-08-07 17:01:36:075
-1.0431,10.0117,-0.1795,0.1117,-0.2571,-0.378,0.0038,-0.1061,0.0117,749,2019-08-07 17:01:36:082
-1.0431,10.0117,-0.1795,0.1117,-0.2571,-0.378,0.0038,-0.1061,0.0117,752,2019-08-07 17:01:36:085
-1.0431,10.0117,-0.1795,0.1117,-0.2571,-0.378,0.0166,-0.0933,0.0107,758,2019-08-07 17:01:36:091
-0.8422,9.8685,-0.2973,0.1117,-0.2571,-0.378,0.0166,-0.0933,0.0107,763,2019-08-07 17:01:36:096
-0.8422,9.8685,-0.2973,-0.136,-0.0755,-0.1876,0.0198,-0.0507,0.0011,768,2019-08-07 17:01:36:101
-0.8422,9.8685,-0.2973,-0.136,-0.0755,-0.1876,0.0198,-0.0507,0.0011,772,2019-08-07 17:01:36:105
-0.6986,9.7825,-0.4057,-0.136,-0.0755,-0.1876,0.0155,-0.0102,-0.0074,778,2019-08-07 17:01:36:111
-0.6986,9.7825,-0.4057,-0.136,-0.0755,-0.1876,0.0155,-0.0102,-0.0074,783,2019-08-07 17:01:36:116
-0.7225,9.7062,-0.3256,-0.1842,0.0437,-0.269,0.0155,-0.0102,-0.0074,788,2019-08-07 17:01:36:121
-0.7225,9.7062,-0.3256,-0.1842,0.0437,-0.269,0.0176,0.0399,-0.0202,792,2019-08-07 17:01:36:125
-0.7177,9.6536,-0.2737,-0.1903,0.0961,-0.3216,0.0187,0.0431,-0.0277,798,2019-08-07 17:01:36:131
-0.7177,9.6536,-0.2737,-0.1903,0.0961,-0.3216,0.0187,0.0431,-0.0277,803,2019-08-07 17:01:36:136
-0.7177,9.6536,-0.2737,-0.1903,0.0961,-0.3216,0.0187,0.0431,-0.0277,808,2019-08-07 17:01:36:141
-0.7512,9.6536,-0.1983,-0.1903,0.0961,-0.3216,0.0229,0.025,-0.0298,813,2019-08-07 17:01:36:146
-0.7512,9.6536,-0.1983,-0.2421,0.1004,-0.4745,0.0229,0.025,-0.0298,818,2019-08-07 17:01:36:151
-0.7512,9.6536,-0.1983,-0.2421,0.1004,-0.4745,0.0315,-0.0038,-0.0351,823,2019-08-07 17:01:36:156
-0.689,9.8637,-0.1653,-0.2421,0.1004,-0.4745,0.0315,-0.0038,-0.0351,828,2019-08-07 17:01:36:161
-0.689,9.8637,-0.1653,-0.2421,0.1004,-0.4745,0.0379,-0.0112,-0.0298,833,2019-08-07 17:01:36:166
-0.6555,9.9878,-0.269,-0.2612,-0.2392,-0.332,0.0379,-0.0112,-0.0298,838,2019-08-07 17:01:36:171
-0.6555,9.9878,-0.269,-0.2612,-0.2392,-0.332,0.0379,-0.0112,-0.0298,842,2019-08-07 17:01:36:175
-0.6555,9.9878,-0.269,-0.2612,-0.2392,-0.332,0.0464,-0.0038,-0.033,848,2019-08-07 17:01:36:181
-0.665,10.0021,-3.0E-4,-0.2612,-0.2392,-0.332,0.0464,-0.0038,-0.033,853,2019-08-07 17:01:36:186
-0.665,10.0021,-3.0E-4,-0.2612,-0.2392,-0.332,0.0719,-0.0262,-0.0351,858,2019-08-07 17:01:36:191
-0.7033,9.9783,-0.0569,-0.2135,-0.3117,-0.6444,0.0719,-0.0262,-0.0351,863,2019-08-07 17:01:36:196
-0.7033,9.9783,-0.0569,-0.2135,-0.3117,-0.6444,0.0922,-0.0379,-0.0426,868,2019-08-07 17:01:36:201
-0.7033,9.9783,-0.0569,-0.2135,-0.3117,-0.6444,0.0922,-0.0379,-0.0426,872,2019-08-07 17:01:36:205
-0.6602,9.8446,-0.5707,-0.3017,-0.1175,0.0338,0.0911,-0.0112,-0.0543,878,2019-08-07 17:01:36:211
-0.6602,9.8446,-0.5707,-0.3017,-0.1175,0.0338,0.0911,-0.0112,-0.0543,882,2019-08-07 17:01:36:215
-0.665,9.878,-0.6697,-0.3017,-0.1175,0.0338,0.0709,0.0676,-0.0618,888,2019-08-07 17:01:36:221
-0.665,9.878,-0.6697,-0.3017,-0.1175,0.0338,0.0709,0.0676,-0.0618,892,2019-08-07 17:01:36:225
-0.665,9.878,-0.6697,-0.1105,-0.1672,-0.1093,0.0581,0.107,-0.0714,898,2019-08-07 17:01:36:231
-0.8037,9.8494,-0.5707,-0.1105,-0.1672,-0.1093,0.0581,0.107,-0.0714,903,2019-08-07 17:01:36:236
-0.8037,9.8494,-0.5707,-0.1105,-0.1672,-0.1093,0.0581,0.107,-0.0714,908,2019-08-07 17:01:36:241
-0.9726,9.9163,-0.5992,-0.1105,-0.1672,-0.1093,0.0506,0.1177,-0.0778,913,2019-08-07 17:01:36:246
-0.9726,9.9163,-0.5992,-0.1105,-0.1672,-0.1093,0.0506,0.1177,-0.0778,918,2019-08-07 17:01:36:251
-0.9726,9.9163,-0.5992,0.0788,-0.241,-0.1164,0.0506,0.1113,-0.0767,922,2019-08-07 17:01:36:255
-1.1831,9.9545,-0.3966,0.0788,-0.241,-0.1164,0.0506,0.1113,-0.0767,928,2019-08-07 17:01:36:261
-1.1831,9.9545,-0.3966,0.0788,-0.241,-0.1164,0.0485,0.0846,-0.0714,933,2019-08-07 17:01:36:266
-1.1831,9.9545,-0.3966,0.0788,-0.241,-0.1164,0.0485,0.0846,-0.0714,938,2019-08-07 17:01:36:271
-1.1783,9.9688,-0.1939,0.2124,-0.2288,-0.4649,0.0602,0.0303,-0.066,942,2019-08-07 17:01:36:275
-1.1783,9.9688,-0.1939,0.2124,-0.2288,-0.4649,0.0602,0.0303,-0.066,948,2019-08-07 17:01:36:281
-0.9869,9.9736,-0.4107,0.2124,-0.2288,-0.4649,0.0709,-0.0038,-0.0628,952,2019-08-07 17:01:36:285
-0.9869,9.9736,-0.4107,0.2124,-0.2288,-0.4649,0.0709,-0.0038,-0.0628,958,2019-08-07 17:01:36:291
-0.9869,9.9736,-0.4107,-0.0155,-0.2212,-0.0702,0.0656,0.0122,-0.0596,963,2019-08-07 17:01:36:296
-0.8864,9.9497,-0.5474,-0.0155,-0.2212,-0.0702,0.0656,0.0122,-0.0596,968,2019-08-07 17:01:36:301
-0.8864,9.9497,-0.5474,-0.0155,-0.2212,-0.0702,0.0624,0.0388,-0.0682,972,2019-08-07 17:01:36:305
-0.786,9.9545,-0.2033,-0.0155,-0.2212,-0.0702,0.0624,0.0388,-0.0682,978,2019-08-07 17:01:36:311
-0.786,9.9545,-0.2033,-0.2278,-0.2947,-0.5479,0.0762,0.0303,-0.082,983,2019-08-07 17:01:36:316
-0.786,9.9545,-0.2033,-0.2278,-0.2947,-0.5479,0.0762,0.0303,-0.082,988,2019-08-07 17:01:36:321
-0.6664,10.155,-0.076,-0.2278,-0.2947,-0.5479,0.1188,0.009,-0.0916,994,2019-08-07 17:01:36:327
-0.6664,10.155,-0.076,-0.2278,-0.2947,-0.5479,0.1188,0.009,-0.0916,998,2019-08-07 17:01:36:331
-0.829,9.9497,-0.1986,-0.1763,-0.2879,-0.423,0.1401,0.0591,-0.1108,1003,2019-08-07 17:01:36:336
-0.829,9.9497,-0.1986,-0.1763,-0.2879,-0.423,0.1401,0.0591,-0.1108,1008,2019-08-07 17:01:36:341
-0.829,9.9497,-0.1986,-0.1763,-0.2879,-0.423,0.1401,0.0591,-0.1108,1012,2019-08-07 17:01:36:345
-0.9534,9.8686,0.2964,-0.1763,-0.2879,-0.423,0.1614,0.0974,-0.1214,1018,2019-08-07 17:01:36:351
-0.9534,9.8686,0.2964,-0.0678,-0.1248,-1.3623,0.1614,0.0974,-0.1214,1022,2019-08-07 17:01:36:355
-1.0013,9.8734,0.73,-0.0678,-0.1248,-1.3623,0.2339,0.0473,-0.1268,1028,2019-08-07 17:01:36:361
-1.0013,9.8734,0.73,-0.0653,-0.1846,-1.4783,0.2339,0.0473,-0.1268,1033,2019-08-07 17:01:36:366
-0.9008,10.0166,0.6358,-0.0653,-0.1846,-1.4783,0.3234,-0.024,-0.13,1038,2019-08-07 17:01:36:371
-0.9008,10.0166,0.6358,-0.0653,-0.1846,-1.4783,0.3234,-0.024,-0.13,1044,2019-08-07 17:01:36:377
-0.9008,10.0166,0.6358,-0.0653,-0.1846,-1.4783,0.3777,0.0037,-0.1449,1048,2019-08-07 17:01:36:381
-0.7669,10.05,0.3388,-0.2957,-0.33,-1.1321,0.3777,0.0037,-0.1449,1053,2019-08-07 17:01:36:386
-0.7669,10.05,0.3388,-0.2957,-0.33,-1.1321,0.3777,0.0037,-0.1449,1057,2019-08-07 17:01:36:390
-0.8865,9.9402,0.5933,-0.2957,-0.33,-1.1321,0.4214,0.0836,-0.1555,1063,2019-08-07 17:01:36:396
-0.8865,9.9402,0.5933,-0.2957,-0.33,-1.1321,0.4214,0.0836,-0.1555,1067,2019-08-07 17:01:36:400
-0.8865,9.9402,0.5933,-0.0996,-0.7024,-2.2717,0.4885,0.1347,-0.1885,1073,2019-08-07 17:01:36:406
-0.9056,10.957,1.8425,-0.0996,-0.7024,-2.2717,0.4885,0.1347,-0.1885,1077,2019-08-07 17:01:36:410
-0.9056,10.957,1.8425,-0.0996,-0.7024,-2.2717,0.6163,0.0218,-0.2248,1083,2019-08-07 17:01:36:416
-0.9056,10.957,1.8425,-0.0996,-0.7024,-2.2717,0.6163,0.0218,-0.2248,1089,2019-08-07 17:01:36:422
-0.2645,12.1171,3.2189,-0.8653,-2.4202,-4.1835,0.8059,-0.0911,-0.2589,1092,2019-08-07 17:01:36:425
-0.2645,12.1171,3.2189,-0.8653,-2.4202,-4.1835,0.8059,-0.0911,-0.2589,1098,2019-08-07 17:01:36:431
-0.2645,12.1171,3.2189,-0.8653,-2.4202,-4.1835,0.9817,-0.0368,-0.2684,1103,2019-08-07 17:01:36:436
0.013,13.9072,3.5583,-0.8653,-2.4202,-4.1835,0.9817,-0.0368,-0.2684,1108,2019-08-07 17:01:36:441
0.013,13.9072,3.5583,-1.2027,-5.6126,-6.1343,1.1724,0.124,-0.2993,1112,2019-08-07 17:01:36:445
-0.0205,16.4565,5.5711,-1.2027,-5.6126,-6.1343,1.1724,0.124,-0.2993,1118,2019-08-07 17:01:36:451
-0.0205,16.4565,5.5711,-1.2027,-5.6126,-6.1343,1.1724,0.124,-0.2993,1124,2019-08-07 17:01:36:457
-0.0205,16.4565,5.5711,-1.2027,-5.6126,-6.1343,1.4898,0.2987,-0.3132,1129,2019-08-07 17:01:36:462
-0.475,18.9198,5.8398,-0.7469,-9.2829,-7.2088,1.4898,0.2987,-0.3132,1133,2019-08-07 17:01:36:466
-0.475,18.9198,5.8398,-0.7469,-9.2829,-7.2088,1.737,0.4404,-0.3718,1138,2019-08-07 17:01:36:471
-0.475,18.9198,5.8398,-0.7469,-9.2829,-7.2088,1.737,0.4404,-0.3718,1143,2019-08-07 17:01:36:476
-1.4223,20.118,5.5853,0.1734,-10.509,-7.1161,1.9042,0.5672,-0.3718,1148,2019-08-07 17:01:36:481
-1.4223,20.118,5.5853,0.1734,-10.509,-7.1161,1.9042,0.5672,-0.3718,1154,2019-08-07 17:01:36:487
-3.1207,20.4187,5.0856,0.1734,-10.509,-7.1161,2.0491,0.7962,-0.2834,1158,2019-08-07 17:01:36:491
-3.1207,20.4187,5.0856,2.658,-11.1686,-7.959,2.0491,0.7962,-0.2834,1163,2019-08-07 17:01:36:496
-3.1207,20.4187,5.0856,2.658,-11.1686,-7.959,2.0523,0.6556,-0.2269,1168,2019-08-07 17:01:36:501
-5.1014,21.5644,8.1119,2.658,-11.1686,-7.959,2.0523,0.6556,-0.2269,1173,2019-08-07 17:01:36:506
-5.1014,21.5644,8.1119,2.658,-11.1686,-7.959,2.0523,0.6556,-0.2269,1177,2019-08-07 17:01:36:510
-5.3071,21.0202,8.6304,3.9856,-11.5667,-10.8931,2.1151,-1.1117,0.0096,1184,2019-08-07 17:01:36:517
-5.3071,21.0202,8.6304,3.9856,-11.5667,-10.8931,2.1151,-1.1117,0.0096,1188,2019-08-07 17:01:36:521
-5.3071,21.0202,8.6304,3.9856,-11.5667,-10.8931,2.1151,-1.1117,0.0096,1193,2019-08-07 17:01:36:526
-0.6999,18.7383,-5.676,3.9856,-11.5667,-10.8931,2.1716,-2.3122,0.0352,1198,2019-08-07 17:01:36:531
-0.6999,18.7383,-5.676,-1.9471,-12.3102,2.6138,2.1716,-2.3122,0.0352,1203,2019-08-07 17:01:36:536
-0.6999,18.7383,-5.676,-1.9471,-12.3102,2.6138,2.2909,-1.5271,-0.1822,1208,2019-08-07 17:01:36:541
0.9411,24.7629,-4.3137,-1.9471,-12.3102,2.6138,2.2909,-1.5271,-0.1822,1212,2019-08-07 17:01:36:545
0.9411,24.7629,-4.3137,-1.9471,-12.3102,2.6138,2.3804,-1.3375,-0.0575,1217,2019-08-07 17:01:36:550
0.19,25.7702,-8.9333,-1.6928,-16.5532,5.929,2.3804,-1.3375,-0.0575,1223,2019-08-07 17:01:36:556
0.19,25.7702,-8.9333,-1.6928,-16.5532,5.929,2.4283,-1.183,0.082,1228,2019-08-07 17:01:36:561
0.19,25.7702,-8.9333,-1.6928,-16.5532,5.929,2.4283,-1.183,0.082,1233,2019-08-07 17:01:36:566
-2.7571,24.5624,-13.8356,-1.6928,-16.5532,5.929,2.4283,-1.183,0.082,1238,2019-08-07 17:01:36:571
-2.7571,24.5624,-13.8356,-1.6928,-16.5532,5.929,2.4688,0.0963,0.1001,1243,2019-08-07 17:01:36:576
-2.7571,24.5624,-13.8356,3.5108,-17.4347,9.595,2.4688,0.0963,0.1001,1248,2019-08-07 17:01:36:581
-4.3742,26.4433,-11.7286,3.5108,-17.4347,9.595,2.0054,0.5715,0.5017,1253,2019-08-07 17:01:36:586
-4.3742,26.4433,-11.7286,3.5108,-17.4347,9.595,2.0054,0.5715,0.5017,1258,2019-08-07 17:01:36:591
-4.3742,26.4433,-11.7286,3.5108,-17.4347,9.595,1.4696,0.4138,0.4219,1263,2019-08-07 17:01:36:596
-4.7474,20.0798,-3.2248,3.3494,-11.1427,-0.5712,1.4696,0.4138,0.4219,1268,2019-08-07 17:01:36:601
-4.7474,20.0798,-3.2248,3.3494,-11.1427,-0.5712,1.7785,0.2966,0.2866,1273,2019-08-07 17:01:36:606
-3.8097,18.4997,-6.4915,3.3494,-11.1427,-0.5712,1.7785,0.2966,0.2866,1278,2019-08-07 17:01:36:611
-3.8097,18.4997,-6.4915,3.3494,-11.1427,-0.5712,2.2398,-0.1114,0.4762,1283,2019-08-07 17:01:36:616
-3.8097,18.4997,-6.4915,1.6186,-9.2817,4.2996,2.2398,-0.1114,0.4762,1288,2019-08-07 17:01:36:621
-3.0107,17.5497,-10.14,1.6186,-9.2817,4.2996,2.2398,-0.1114,0.4762,1293,2019-08-07 17:01:36:626
-3.0107,17.5497,-10.14,1.6186,-9.2817,4.2996,1.9213,-1.0531,0.3292,1298,2019-08-07 17:01:36:631
-4.5847,16.8527,-13.27,1.6186,-9.2817,4.2996,1.9213,-1.0531,0.3292,1303,2019-08-07 17:01:36:636
-4.5847,16.8527,-13.27,3.1143,-7.4882,8.7653,1.183,-1.3588,0.294,1308,2019-08-07 17:01:36:641
-3.4461,14.0791,-11.1393,3.1143,-7.4882,8.7653,1.183,-1.3588,0.294,1313,2019-08-07 17:01:36:646
-3.4461,14.0791,-11.1393,3.1143,-7.4882,8.7653,0.7111,-0.0997,0.4634,1318,2019-08-07 17:01:36:651
-3.4461,14.0791,-11.1393,3.1143,-7.4882,8.7653,0.7111,-0.0997,0.4634,1323,2019-08-07 17:01:36:656
-0.3363,11.4201,-8.9616,-1.1045,-3.4534,4.4527,0.1604,0.7163,0.3313,1327,2019-08-07 17:01:36:660
-0.3363,11.4201,-8.9616,-1.1045,-3.4534,4.4527,0.1604,0.7163,0.3313,1334,2019-08-07 17:01:36:667
-0.3363,11.4201,-8.9616,-1.1045,-3.4534,4.4527,0.1604,0.7163,0.3313,1338,2019-08-07 17:01:36:671
-3.6327,9.6585,-7.5427,-1.1045,-3.4534,4.4527,-0.2008,0.9752,0.2205,1343,2019-08-07 17:01:36:676
-3.6327,9.6585,-7.5427,1.6303,-0.5962,3.2577,-0.2008,0.9752,0.2205,1348,2019-08-07 17:01:36:681
-2.3457,7.4339,-8.0471,1.6303,-0.5962,3.2577,-0.6482,0.8335,0.2716,1352,2019-08-07 17:01:36:685
-2.3457,7.4339,-8.0471,1.6303,-0.5962,3.2577,-0.6482,0.8335,0.2716,1358,2019-08-07 17:01:36:691
-2.3457,7.4339,-8.0471,1.6303,-0.5962,3.2577,-0.89,0.9688,0.2503,1363,2019-08-07 17:01:36:696
-1.4319,5.3287,-7.9057,0.3687,3.314,3.388,-0.89,0.9688,0.2503,1367,2019-08-07 17:01:36:700
-1.4319,5.3287,-7.9057,0.3687,3.314,3.388,-1.2554,1.0221,0.2067,1373,2019-08-07 17:01:36:706
-1.0635,3.6101,-8.0471,0.0642,5.0751,3.5968,-1.2554,1.0221,0.2067,1378,2019-08-07 17:01:36:711
-1.0635,3.6101,-8.0471,0.0642,5.0751,3.5968,-1.6165,1.1744,0.1768,1383,2019-08-07 17:01:36:716
-1.0635,3.6101,-8.0471,0.0642,5.0751,3.5968,-1.6165,1.1744,0.1768,1388,2019-08-07 17:01:36:721
-1.0013,0.5787,-6.5009,0.0642,5.0751,3.5968,-1.6165,1.1744,0.1768,1393,2019-08-07 17:01:36:726
-1.0013,0.5787,-6.5009,0.3635,9.1617,1.8963,-1.8956,1.2181,0.1459,1397,2019-08-07 17:01:36:730
-1.0013,0.5787,-6.5009,0.3635,9.1617,1.8963,-1.8956,1.2181,0.1459,1403,2019-08-07 17:01:36:736
-1.7046,-1.4788,-5.8316,0.3635,9.1617,1.8963,-2.1438,1.004,0.1428,1408,2019-08-07 17:01:36:741
-1.7046,-1.4788,-5.8316,0.3635,9.1617,1.8963,-2.1438,1.004,0.1428,1413,2019-08-07 17:01:36:746
-1.6185,-2.8584,-4.8323,0.803,12.1324,0.8062,-2.2397,0.8623,0.1513,1418,2019-08-07 17:01:36:751
-1.6185,-2.8584,-4.8323,0.803,12.1324,0.8062,-2.2397,0.8623,0.1513,1423,2019-08-07 17:01:36:756
-1.0683,-4.3049,-4.7898,0.3208,13.3299,1.0182,-2.3419,0.6737,0.1609,1427,2019-08-07 17:01:36:760
-1.0683,-4.3049,-4.7898,0.3208,13.3299,1.0182,-2.3419,0.6737,0.1609,1434,2019-08-07 17:01:36:767
-1.0683,-4.3049,-4.7898,0.3208,13.3299,1.0182,-2.3419,0.6737,0.1609,1438,2019-08-07 17:01:36:771
-1.0683,-4.3049,-4.7898,0.3208,13.3299,1.0182,-2.3686,0.6854,0.1428,1443,2019-08-07 17:01:36:776
-0.1928,-6.1667,-4.2619,-0.5576,15.8516,0.5809,-2.3686,0.6854,0.1428,1448,2019-08-07 17:01:36:781
-0.1928,-6.1667,-4.2619,-0.5576,15.8516,0.5809,-2.3675,0.8111,0.0916,1453,2019-08-07 17:01:36:786
-0.2502,-7.594,-3.5548,-0.5576,15.8516,0.5809,-2.3675,0.8111,0.0916,1458,2019-08-07 17:01:36:791
-0.2502,-7.594,-3.5548,-0.5576,15.8516,0.5809,-2.3483,0.8846,0.0224,1464,2019-08-07 17:01:36:797
-0.2502,-7.594,-3.5548,0.0269,17.8544,-0.3452,-2.3483,0.8846,0.0224,1467,2019-08-07 17:01:36:800
-0.7526,-8.8209,-2.4235,0.0269,17.8544,-0.3452,-2.2109,0.8197,-0.0394,1473,2019-08-07 17:01:36:806
-0.7526,-8.8209,-2.4235,0.0269,17.8544,-0.3452,-2.2109,0.8197,-0.0394,1477,2019-08-07 17:01:36:810
-1.1975,-9.7423,-1.5043,0.4728,18.7161,-1.0963,-2.0138,0.6375,-0.0596,1483,2019-08-07 17:01:36:816
-1.1975,-9.7423,-1.5043,0.4728,18.7161,-1.0963,-2.0138,0.6375,-0.0596,1488,2019-08-07 17:01:36:821
-1.1975,-9.7423,-1.5043,0.4728,18.7161,-1.0963,-2.0138,0.6375,-0.0596,1493,2019-08-07 17:01:36:826
-1.2741,-10.4392,-1.0518,0.5877,20.3051,-1.65,-1.7827,0.3861,-0.0511,1498,2019-08-07 17:01:36:831
-1.2741,-10.4392,-1.0518,0.5877,20.3051,-1.65,-1.7827,0.3861,-0.0511,1504,2019-08-07 17:01:36:837
-0.853,-11.2985,-0.4861,0.5877,20.3051,-1.65,-1.3363,-0.0134,-0.0458,1508,2019-08-07 17:01:36:841
-0.853,-11.2985,-0.4861,0.5877,20.3051,-1.65,-1.3363,-0.0134,-0.0458,1513,2019-08-07 17:01:36:846
-0.853,-11.2985,-0.4861,-0.0941,21.052,-1.4,-0.9773,-0.1785,-0.0202,1518,2019-08-07 17:01:36:851
-0.3842,-11.5802,-0.8585,-0.0941,21.052,-1.4,-0.9773,-0.1785,-0.0202,1522,2019-08-07 17:01:36:855
-0.3842,-11.5802,-0.8585,-0.0941,21.052,-1.4,-0.6993,-0.2413,0.0053,1528,2019-08-07 17:01:36:861
-0.1785,-11.4561,-0.9339,-0.0941,21.052,-1.4,-0.6993,-0.2413,0.0053,1534,2019-08-07 17:01:36:867
-0.1785,-11.4561,-0.9339,-0.4445,20.7513,-1.3585,-0.2508,-0.2744,0.0458,1538,2019-08-07 17:01:36:871
-0.1785,-11.4561,-0.9339,-0.4445,20.7513,-1.3585,-0.2508,-0.2744,0.0458,1543,2019-08-07 17:01:36:876
-0.1785,-11.4561,-0.9339,-0.4445,20.7513,-1.3585,-0.2508,-0.2744,0.0458,1548,2019-08-07 17:01:36:881
-0.3698,-10.635,-0.5003,-0.4445,20.7513,-1.3585,0.121,-0.3244,0.081,1554,2019-08-07 17:01:36:887
-0.3698,-10.635,-0.5003,0.0218,19.4118,-2.059,0.121,-0.3244,0.081,1557,2019-08-07 17:01:36:890
-0.3698,-10.635,-0.5003,0.0218,19.4118,-2.059,0.6152,-0.4736,0.1353,1563,2019-08-07 17:01:36:896
-0.7909,-9.4129,-0.1043,0.0218,19.4118,-2.059,0.6152,-0.4736,0.1353,1568,2019-08-07 17:01:36:901
-0.7909,-9.4129,-0.1043,0.0218,19.4118,-2.059,0.9945,-0.5918,0.1694,1573,2019-08-07 17:01:36:906
-0.6617,-8.1717,-0.7454,-0.0133,17.4304,-1.4551,0.9945,-0.5918,0.1694,1578,2019-08-07 17:01:36:911
-0.6617,-8.1717,-0.7454,-0.0133,17.4304,-1.4551,1.3023,-0.6557,0.1886,1583,2019-08-07 17:01:36:916
-0.6617,-8.1717,-0.7454,-0.0133,17.4304,-1.4551,1.3023,-0.6557,0.1886,1589,2019-08-07 17:01:36:922
-0.5899,-6.5438,-1.4855,-0.0133,17.4304,-1.4551,1.3023,-0.6557,0.1886,1593,2019-08-07 17:01:36:926
-0.5899,-6.5438,-1.4855,-0.0133,17.4304,-1.4551,1.6017,-0.6887,0.2312,1598,2019-08-07 17:01:36:931
-0.5899,-6.5438,-1.4855,-0.0141,15.2675,-1.057,1.6017,-0.6887,0.2312,1603,2019-08-07 17:01:36:936
-0.5756,-5.4315,-1.6269,-0.0141,15.2675,-1.057,1.868,-0.7314,0.2962,1608,2019-08-07 17:01:36:941
-0.5756,-5.4315,-1.6269,-0.0141,15.2675,-1.057,1.868,-0.7314,0.2962,1613,2019-08-07 17:01:36:946
-0.5804,-4.6152,-1.6976,-0.0141,15.2675,-1.057,2.0256,-0.7921,0.3281,1618,2019-08-07 17:01:36:951
-0.5804,-4.6152,-1.6976,-0.1375,13.5005,-1.0336,2.0256,-0.7921,0.3281,1622,2019-08-07 17:01:36:955
-0.3986,-3.5172,-2.3151,-0.1375,13.5005,-1.0336,2.1066,-0.8485,0.3526,1628,2019-08-07 17:01:36:961
-0.3986,-3.5172,-2.3151,-0.1375,13.5005,-1.0336,2.1066,-0.8485,0.3526,1634,2019-08-07 17:01:36:967
-0.3986,-3.5172,-2.3151,-0.1375,13.5005,-1.0336,2.1503,-0.9093,0.3654,1639,2019-08-07 17:01:36:972
-0.212,-2.5958,-2.5131,-0.4397,11.7335,-0.9961,2.1503,-0.9093,0.3654,1642,2019-08-07 17:01:36:975
-0.212,-2.5958,-2.5131,-0.4397,11.7335,-0.9961,2.1503,-0.9093,0.3654,1648,2019-08-07 17:01:36:981
-0.212,-2.5958,-2.5131,-0.4397,11.7335,-0.9961,2.1663,-0.9306,0.3697,1653,2019-08-07 17:01:36:986
0.0464,-2.0182,-3.2814,-0.4397,11.7335,-0.9961,2.1663,-0.9306,0.3697,1658,2019-08-07 17:01:36:991
0.0464,-2.0182,-3.2814,-0.7864,10.8813,-0.3021,2.1322,-0.9114,0.3814,1662,2019-08-07 17:01:36:995
0.099,-1.7413,-3.8659,-0.7864,10.8813,-0.3021,2.1322,-0.9114,0.3814,1668,2019-08-07 17:01:37:001
0.099,-1.7413,-3.8659,-0.7864,10.8813,-0.3021,1.9777,-0.9103,0.376,1673,2019-08-07 17:01:37:006
0.099,-1.7413,-3.8659,-0.7864,10.8813,-0.3021,1.9777,-0.9103,0.376,1678,2019-08-07 17:01:37:011
-0.2933,-1.3451,-3.9225,-0.3695,10.0939,-0.4655,1.835,-1.003,0.3633,1684,2019-08-07 17:01:37:017
-0.2933,-1.3451,-3.9225,-0.3695,10.0939,-0.4655,1.835,-1.003,0.3633,1688,2019-08-07 17:01:37:021
-0.2933,-1.3451,-3.9225,-0.3695,10.0939,-0.4655,1.835,-1.003,0.3633,1693,2019-08-07 17:01:37:026
-0.4512,-0.3856,-4.9595,-0.3695,10.0939,-0.4655,1.705,-1.0627,0.3292,1698,2019-08-07 17:01:37:031
-0.4512,-0.3856,-4.9595,-0.1804,8.1073,1.1713,1.705,-1.0627,0.3292,1703,2019-08-07 17:01:37:036
-0.6187,1.2662,-7.1845,-0.1804,8.1073,1.1713,1.4568,-1.0595,0.2706,1708,2019-08-07 17:01:37:041
-0.6187,1.2662,-7.1845,-0.1804,8.1073,1.1713,1.4568,-1.0595,0.2706,1712,2019-08-07 17:01:37:045
-0.6187,1.2662,-7.1845,-0.1804,8.1073,1.1713,1.1947,-0.9583,0.229,1718,2019-08-07 17:01:37:051
-0.7718,2.7986,-8.0329,0.0098,5.5992,3.0196,1.1947,-0.9583,0.229,1723,2019-08-07 17:01:37:056
-0.7718,2.7986,-8.0329,0.0098,5.5992,3.0196,0.9401,-0.8603,0.1875,1728,2019-08-07 17:01:37:061
-1.3841,4.0636,-8.6976,0.592,4.2737,3.5891,0.9401,-0.8603,0.1875,1734,2019-08-07 17:01:37:067
-1.3841,4.0636,-8.6976,0.592,4.2737,3.5891,0.5673,-0.9231,0.1364,1738,2019-08-07 17:01:37:071
-1.3841,4.0636,-8.6976,0.592,4.2737,3.5891,0.5673,-0.9231,0.1364,1743,2019-08-07 17:01:37:076
-2.0587,5.7679,-8.806,0.592,4.2737,3.5891,0.3202,-0.9668,0.0479,1748,2019-08-07 17:01:37:081
-2.0587,5.7679,-8.806,1.5116,1.5795,3.7252,0.3202,-0.9668,0.0479,1753,2019-08-07 17:01:37:086
-2.518,7.8636,-9.1454,1.5116,1.5795,3.7252,0.3202,-0.9668,0.0479,1758,2019-08-07 17:01:37:091
-2.518,7.8636,-9.1454,1.5116,1.5795,3.7252,0.1263,-0.9508,-0.0213,1762,2019-08-07 17:01:37:095
-2.518,7.8636,-9.1454,1.5116,1.5795,3.7252,0.1263,-0.9508,-0.0213,1768,2019-08-07 17:01:37:101
-1.9248,9.4724,-9.5555,0.9358,-1.2356,4.3198,-0.0186,-0.9998,-0.0565,1773,2019-08-07 17:01:37:106
-1.9248,9.4724,-9.5555,0.9358,-1.2356,4.3198,-0.0186,-0.9998,-0.0565,1778,2019-08-07 17:01:37:111
-1.8769,11.0048,-10.3663,0.8255,-2.7681,5.1424,-0.2625,-1.0701,-0.1534,1783,2019-08-07 17:01:37:116
-1.8769,11.0048,-10.3663,0.8255,-2.7681,5.1424,-0.2625,-1.0701,-0.1534,1789,2019-08-07 17:01:37:122
-1.8769,11.0048,-10.3663,0.8255,-2.7681,5.1424,-0.2625,-1.0701,-0.1534,1793,2019-08-07 17:01:37:126
-2.9725,14.3464,-10.1023,0.8255,-2.7681,5.1424,-0.89,-0.9529,-0.2972,1799,2019-08-07 17:01:37:132
-2.9725,14.3464,-10.1023,1.1761,-7.0361,5.1699,-0.89,-0.9529,-0.2972,1803,2019-08-07 17:01:37:136
-2.9725,14.3464,-10.1023,1.1761,-7.0361,5.1699,-1.478,-0.317,-0.4751,1808,2019-08-07 17:01:37:141
-1.7047,17.2728,-7.9057,1.1761,-7.0361,5.1699,-1.478,-0.317,-0.4751,1812,2019-08-07 17:01:37:145
-1.7047,17.2728,-7.9057,1.1761,-7.0361,5.1699,-1.7262,-0.1913,-0.685,1819,2019-08-07 17:01:37:152
-1.7047,17.2728,-7.9057,-0.3255,-9.9621,1.6846,-1.7262,-0.1913,-0.685,1822,2019-08-07 17:01:37:155
-0.9631,18.5188,-6.7602,-0.3255,-9.9621,1.6846,-1.7219,0.0591,-0.9704,1828,2019-08-07 17:01:37:161
-0.9631,18.5188,-6.7602,-0.3255,-9.9621,1.6846,-1.7219,0.0591,-0.9704,1833,2019-08-07 17:01:37:166
-1.0971,19.4258,-7.9151,-0.3255,-9.9621,1.6846,-1.7411,0.4245,-1.1292,1838,2019-08-07 17:01:37:171
-1.0971,19.4258,-7.9151,-0.3761,-10.763,4.8083,-1.7411,0.4245,-1.1292,1843,2019-08-07 17:01:37:176
-1.0971,19.4258,-7.9151,-0.3761,-10.763,4.8083,-1.7411,0.4245,-1.1292,1848,2019-08-07 17:01:37:181
-0.9057,19.0057,-10.1636,-0.3761,-10.763,4.8083,-1.9755,1.0018,-1.1622,1852,2019-08-07 17:01:37:185
-0.9057,19.0057,-10.1636,-0.3761,-10.763,4.8083,-1.9755,1.0018,-1.1622,1858,2019-08-07 17:01:37:191
-0.3555,18.7813,-10.1117,-0.3761,-10.763,4.8083,-2.4847,2.0767,-1.1164,1863,2019-08-07 17:01:37:196
-0.3555,18.7813,-10.1117,-1.0723,-9.9131,5.6337,-2.4847,2.0767,-1.1164,1868,2019-08-07 17:01:37:201
-1.2741,17.9984,-7.1798,-1.0723,-9.9131,5.6337,-2.9502,3.1238,-1.0514,1873,2019-08-07 17:01:37:206
-1.2741,17.9984,-7.1798,-1.0723,-9.9131,5.6337,-2.9502,3.1238,-1.0514,1877,2019-08-07 17:01:37:210
-1.2741,17.9984,-7.1798,1.1826,-8.6254,-2.8975,-3.1878,3.3252,-0.9704,1883,2019-08-07 17:01:37:216
-2.9582,17.7215,2.3327,1.1826,-8.6254,-2.8975,-3.1878,3.3252,-0.9704,1887,2019-08-07 17:01:37:220
-2.9582,17.7215,2.3327,1.1826,-8.6254,-2.8975,-2.8714,2.6615,-0.8362,1893,2019-08-07 17:01:37:226
-3.6328,16.6665,-3.0787,1.1826,-8.6254,-2.8975,-2.8714,2.6615,-0.8362,1898,2019-08-07 17:01:37:231
-3.6328,16.6665,-3.0787,1.0897,-8.3394,4.1896,-2.4932,2.4772,-0.6242,1903,2019-08-07 17:01:37:236
-3.6328,16.6665,-3.0787,1.0897,-8.3394,4.1896,-2.4932,2.4772,-0.6242,1908,2019-08-07 17:01:37:241
-0.9966,22.2949,-7.2646,1.0897,-8.3394,4.1896,-2.4932,2.4772,-0.6242,1913,2019-08-07 17:01:37:246
-0.9966,22.2949,-7.2646,1.0897,-8.3394,4.1896,-1.9851,2.3579,-0.2525,1918,2019-08-07 17:01:37:251
-0.5956,24.3143,-7.3826,-0.7554,-15.0548,4.4375,-1.9627,1.4173,0.1342,1923,2019-08-07 17:01:37:256
-0.5956,24.3143,-7.3826,-0.7554,-15.0548,4.4375,-1.9627,1.4173,0.1342,1928,2019-08-07 17:01:37:261
-0.5956,24.3143,-7.3826,-0.7554,-15.0548,4.4375,-1.9627,1.4173,0.1342,1933,2019-08-07 17:01:37:266
0.8061,19.5452,-7.3308,-0.7554,-15.0548,4.4375,-2.2631,4.1646,-0.1822,1938,2019-08-07 17:01:37:271
0.8061,19.5452,-7.3308,-0.7554,-15.0548,4.4375,-2.2631,4.1646,-0.1822,1942,2019-08-07 17:01:37:275
-4.624,27.6798,1.6113,1.8217,-15.0063,-0.0533,-2.6583,2.9971,-0.5763,1948,2019-08-07 17:01:37:281
-4.624,27.6798,1.6113,1.8217,-15.0063,-0.0533,-2.4751,0.3126,0.4634,1953,2019-08-07 17:01:37:286
-4.624,27.6798,1.6113,1.8217,-15.0063,-0.0533,-2.4751,0.3126,0.4634,1958,2019-08-07 17:01:37:291
-3.7916,20.0799,19.9056,1.8217,-15.0063,-0.0533,-2.4751,0.3126,0.4634,1962,2019-08-07 17:01:37:295
-3.7916,20.0799,19.9056,1.2587,-7.3685,-13.5393,-3.0088,0.9667,0.7617,1969,2019-08-07 17:01:37:302
-3.7916,20.0799,19.9056,1.2587,-7.3685,-13.5393,-3.0088,0.9667,0.7617,1972,2019-08-07 17:01:37:305
-8.5615,18.4854,16.4975,1.2587,-7.3685,-13.5393,-2.8682,0.3904,0.31,1978,2019-08-07 17:01:37:311
-8.5615,18.4854,16.4975,1.2587,-7.3685,-13.5393,-2.8682,0.3904,0.31,1983,2019-08-07 17:01:37:316
-8.4562,21.7173,6.952,8.517,-12.1141,-9.4539,-1.9116,-1.6006,0.783,1988,2019-08-07 17:01:37:321
-8.4562,21.7173,6.952,8.517,-12.1141,-9.4539,-1.9116,-1.6006,0.783,1993,2019-08-07 17:01:37:326
-8.4562,21.7173,6.952,8.517,-12.1141,-9.4539,-1.1701,-3.2134,1.1302,1998,2019-08-07 17:01:37:331
-4.7054,18.9867,13.2544,4.438,-5.4592,-0.8568,-1.1701,-3.2134,1.1302,2003,2019-08-07 17:01:37:336
-4.7054,18.9867,13.2544,4.438,-5.4592,-0.8568,-0.254,-3.3349,1.028,2008,2019-08-07 17:01:37:341
-4.2318,13.831,-7.5146,4.438,-5.4592,-0.8568,-0.254,-3.3349,1.028,2013,2019-08-07 17:01:37:346
-4.2318,13.831,-7.5146,4.438,-5.4592,-0.8568,-0.792,-0.9071,0.7606,2018,2019-08-07 17:01:37:351
-4.2318,13.831,-7.5146,4.438,-5.4592,-0.8568,-0.792,-0.9071,0.7606,2023,2019-08-07 17:01:37:356
-0.4092,10.7805,5.5332,-0.3837,-1.054,-6.5349,-0.9709,0.5683,0.5337,2028,2019-08-07 17:01:37:361
-0.4092,10.7805,5.5332,-0.3837,-1.054,-6.5349,-0.9709,0.5683,0.5337,2034,2019-08-07 17:01:37:367
1.1935,10.5466,2.917,-0.3837,-1.054,-6.5349,-0.5033,-0.464,0.4293,2038,2019-08-07 17:01:37:371
1.1935,10.5466,2.917,-0.3837,-1.054,-6.5349,-0.5033,-0.464,0.4293,2043,2019-08-07 17:01:37:376
1.1935,10.5466,2.917,-3.0733,0.4856,0.5124,-0.1986,-0.8954,0.408,2049,2019-08-07 17:01:37:382
3.9588,8.4079,-3.1497,-3.0733,0.4856,0.5124,-0.1986,-0.8954,0.408,2053,2019-08-07 17:01:37:386
3.9588,8.4079,-3.1497,-3.0733,0.4856,0.5124,-0.4884,0.0655,0.3558,2058,2019-08-07 17:01:37:391
4.6669,7.4293,-3.1214,-3.0733,0.4856,0.5124,-0.4884,0.0655,0.3558,2063,2019-08-07 17:01:37:396
4.6669,7.4293,-3.1214,-4.6083,2.2784,1.6737,-0.8069,0.5885,0.3249,2068,2019-08-07 17:01:37:401
4.6669,7.4293,-3.1214,-4.6083,2.2784,1.6737,-0.8069,0.5885,0.3249,2073,2019-08-07 17:01:37:406
0.7247,8.7182,3.5958,-1.258,1.0512,-4.3098,-0.7771,0.5118,0.3899,2078,2019-08-07 17:01:37:411
0.7247,8.7182,3.5958,-1.258,1.0512,-4.3098,-0.7771,0.5118,0.3899,2083,2019-08-07 17:01:37:416
0.7247,8.7182,3.5958,-1.258,1.0512,-4.3098,-0.3296,-0.8997,0.4634,2088,2019-08-07 17:01:37:421
-1.1604,9.0428,4.4584,-1.258,1.0512,-4.3098,-0.3296,-0.8997,0.4634,2093,2019-08-07 17:01:37:426
-1.1604,9.0428,4.4584,0.5153,0.2051,-2.7672,-0.058,-1.4802,0.3707,2098,2019-08-07 17:01:37:431
-1.1604,9.0428,4.4584,0.5153,0.2051,-2.7672,-0.058,-1.4802,0.3707,2103,2019-08-07 17:01:37:436
-0.2753,10.7041,-1.1416,0.5153,0.2051,-2.7672,-0.058,-1.4802,0.3707,2107,2019-08-07 17:01:37:440
-0.2753,10.7041,-1.1416,0.5153,0.2051,-2.7672,-0.1496,-0.8027,0.2354,2113,2019-08-07 17:01:37:446
1.3083,12.0408,-2.1409,-1.7119,-2.2544,1.5936,-0.1496,-0.8027,0.2354,2117,2019-08-07 17:01:37:450
1.3083,12.0408,-2.1409,-1.7119,-2.2544,1.5936,-0.4053,0.4181,0.1406,2123,2019-08-07 17:01:37:456
1.1073,10.9476,-0.3308,-1.4883,-1.1584,-0.1809,-0.4053,0.4181,0.1406,2128,2019-08-07 17:01:37:461
1.1073,10.9476,-0.3308,-1.4883,-1.1584,-0.1809,-0.45,0.9858,0.1044,2133,2019-08-07 17:01:37:466
1.1073,10.9476,-0.3308,-1.4883,-1.1584,-0.1809,-0.45,0.9858,0.1044,2138,2019-08-07 17:01:37:471
1.1073,10.9476,-0.3308,-1.4883,-1.1584,-0.1809,-0.45,0.9858,0.1044,2143,2019-08-07 17:01:37:476
-1.5001,9.5154,1.5217,1.5562,0.5515,-2.4493,-0.434,0.9688,0.1545,2148,2019-08-07 17:01:37:481
-1.5001,9.5154,1.5217,1.5562,0.5515,-2.4493,-0.434,0.9688,0.1545,2152,2019-08-07 17:01:37:485
-2.2512,9.5727,3.2564,1.5562,0.5515,-2.4493,-0.2806,0.4053,0.2141,2158,2019-08-07 17:01:37:491
-2.2512,9.5727,3.2564,1.5562,0.5515,-2.4493,-0.2806,0.4053,0.2141,2163,2019-08-07 17:01:37:496
-2.2512,9.5727,3.2564,0.6433,0.1163,-2.9456,-0.1027,-0.3308,0.2748,2168,2019-08-07 17:01:37:501
-0.3471,9.6205,2.0072,0.6433,0.1163,-2.9456,-0.1027,-0.3308,0.2748,2172,2019-08-07 17:01:37:505
-0.3471,9.6205,2.0072,0.6433,0.1163,-2.9456,0.0602,-0.6983,0.2407,2178,2019-08-07 17:01:37:511
2.0211,9.8926,-1.2076,0.6433,0.1163,-2.9456,0.0602,-0.6983,0.2407,2183,2019-08-07 17:01:37:516
2.0211,9.8926,-1.2076,-2.807,-0.2161,1.4165,-0.0378,-0.3479,0.1459,2188,2019-08-07 17:01:37:521
2.9588,10.117,-1.7167,-2.807,-0.2161,1.4165,-0.0378,-0.3479,0.1459,2193,2019-08-07 17:01:37:526
2.9588,10.117,-1.7167,-2.807,-0.2161,1.4165,-0.1752,0.2263,0.0618,2198,2019-08-07 17:01:37:531
2.9588,10.117,-1.7167,-2.807,-0.2161,1.4165,-0.1752,0.2263,0.0618,2203,2019-08-07 17:01:37:536
1.1934,10.2268,0.0981,-1.4175,-0.4245,-0.4161,-0.1752,0.2263,0.0618,2208,2019-08-07 17:01:37:541
1.1934,10.2268,0.0981,-1.4175,-0.4245,-0.4161,-0.2732,0.6492,-0.016,2213,2019-08-07 17:01:37:546
1.1934,10.2268,0.0981,-1.4175,-0.4245,-0.4161,-0.2732,0.6492,-0.016,2218,2019-08-07 17:01:37:551
-0.9787,9.8878,1.6631,-1.4175,-0.4245,-0.4161,-0.2178,0.531,-0.0117,2223,2019-08-07 17:01:37:556
-0.9787,9.8878,1.6631,-1.4175,-0.4245,-0.4161,-0.2178,0.531,-0.0117,2227,2019-08-07 17:01:37:560
-1.3279,9.8496,2.3277,1.0724,-0.0456,-2.6044,-0.1251,0.2338,-0.0085,2233,2019-08-07 17:01:37:566
-1.3279,9.8496,2.3277,1.0724,-0.0456,-2.6044,-0.1251,0.2338,-0.0085,2238,2019-08-07 17:01:37:571
-1.3279,9.8496,2.3277,1.0724,-0.0456,-2.6044,-0.0015,-0.171,0.017,2243,2019-08-07 17:01:37:576
-0.4381,9.9117,0.4281,-0.0277,-0.0642,-0.3082,-0.0015,-0.171,0.017,2248,2019-08-07 17:01:37:581
-0.4381,9.9117,0.4281,-0.0277,-0.0642,-0.3082,-0.0015,-0.171,0.017,2252,2019-08-07 17:01:37:585
0.313,9.8305,-0.0952,-0.0277,-0.0642,-0.3082,-0.0122,-0.0922,0.0181,2258,2019-08-07 17:01:37:591
0.313,9.8305,-0.0952,-0.0277,-0.0642,-0.3082,-0.0122,-0.0922,0.0181,2263,2019-08-07 17:01:37:596
0.313,9.8305,-0.0952,-0.3858,-0.0066,-1.1331,-0.0601,0.1677,-0.0064,2268,2019-08-07 17:01:37:601
0.1121,9.778,1.0691,-0.3858,-0.0066,-1.1331,-0.0601,0.1677,-0.0064,2273,2019-08-07 17:01:37:606
0.1121,9.778,1.0691,-0.3858,-0.0066,-1.1331,-0.025,0.205,-0.0117,2278,2019-08-07 17:01:37:611
-0.1511,9.821,0.9089,-0.3858,-0.0066,-1.1331,-0.025,0.205,-0.0117,2283,2019-08-07 17:01:37:616
-0.1511,9.821,0.9089,-0.3858,-0.0066,-1.1331,0.0198,0.1432,-0.016,2288,2019-08-07 17:01:37:621
-0.1511,9.821,0.9089,-0.0128,-0.1257,-0.9462,0.0198,0.1432,-0.016,2293,2019-08-07 17:01:37:626
-0.1894,9.9547,0.6496,-0.0128,-0.1257,-0.9462,0.04,0.1145,-0.0245,2297,2019-08-07 17:01:37:630
-0.1894,9.9547,0.6496,-0.1578,0.0271,-1.0828,0.04,0.1145,-0.0245,2303,2019-08-07 17:01:37:636
-0.1894,9.9547,0.6496,-0.1578,0.0271,-1.0828,0.04,0.1145,-0.0245,2308,2019-08-07 17:01:37:641
-0.3233,10.3891,1.418,-0.1578,0.0271,-1.0828,0.0688,0.0942,-0.0224,2313,2019-08-07 17:01:37:646
-0.3233,10.3891,1.418,-0.1578,0.0271,-1.0828,0.0688,0.0942,-0.0224,2318,2019-08-07 17:01:37:651
0.2508,10.1408,0.8005,-0.7296,-0.2738,-1.7869,0.1327,0.0548,-0.0479,2323,2019-08-07 17:01:37:656
0.2508,10.1408,0.8005,-0.7296,-0.2738,-1.7869,0.1327,0.0548,-0.0479,2328,2019-08-07 17:01:37:661
0.2508,10.1408,0.8005,-0.7296,-0.2738,-1.7869,0.1284,0.0793,-0.0384,2333,2019-08-07 17:01:37:666
0.112,9.5966,-0.2554,-0.7296,-0.2738,-1.7869,0.1284,0.0793,-0.0384,2338,2019-08-07 17:01:37:671
0.112,9.5966,-0.2554,-0.381,0.265,-0.0415,0.0911,0.1848,-0.065,2343,2019-08-07 17:01:37:676
0.112,9.5966,-0.2554,-0.381,0.265,-0.0415,0.0911,0.1848,-0.065,2348,2019-08-07 17:01:37:681
-0.1846,9.5728,0.461,-0.381,0.265,-0.0415,0.0911,0.1848,-0.065,2353,2019-08-07 17:01:37:686
-0.1846,9.5728,0.461,-0.381,0.265,-0.0415,0.0698,0.1432,-0.0756,2358,2019-08-07 17:01:37:691
-0.1846,9.5728,0.461,-0.1161,-0.0602,-1.0472,0.0698,0.1432,-0.0756,2363,2019-08-07 17:01:37:696
-0.0172,10.3509,0.6449,-0.1161,-0.0602,-1.0472,0.0943,0.0505,-0.0692,2368,2019-08-07 17:01:37:701
-0.0172,10.3509,0.6449,-0.1161,-0.0602,-1.0472,0.0943,0.0505,-0.0692,2373,2019-08-07 17:01:37:706
-0.0172,10.3509,0.6449,-0.1161,-0.0602,-1.0472,0.0911,0.0719,-0.1087,2377,2019-08-07 17:01:37:710
-0.199,10.4607,-0.675,0.055,-0.4095,0.506,0.0911,0.0719,-0.1087,2383,2019-08-07 17:01:37:716
-0.199,10.4607,-0.675,0.055,-0.4095,0.506,0.0357,0.2412,-0.1204,2388,2019-08-07 17:01:37:721
-0.199,10.4607,-0.675,0.055,-0.4095,0.506,0.0357,0.2412,-0.1204,2392,2019-08-07 17:01:37:725
-0.6153,9.7494,-0.1895,0.055,-0.4095,0.506,-0.0229,0.2892,-0.1108,2398,2019-08-07 17:01:37:731
-0.6153,9.7494,-0.1895,0.4807,-0.038,-0.8178,-0.0229,0.2892,-0.1108,2403,2019-08-07 17:01:37:736
-0.998,10.0263,0.7439,0.4807,-0.038,-0.8178,-0.0069,0.1432,-0.081,2408,2019-08-07 17:01:37:741
-0.998,10.0263,0.7439,0.4807,-0.038,-0.8178,-0.0069,0.1432,-0.081,2413,2019-08-07 17:01:37:746
-0.998,10.0263,0.7439,0.4807,-0.038,-0.8178,6.0E-4,0.0335,-0.0426,2418,2019-08-07 17:01:37:751
-1.2372,10.0645,0.4139,0.9293,-0.2627,-0.6732,6.0E-4,0.0335,-0.0426,2422,2019-08-07 17:01:37:755
-1.2372,10.0645,0.4139,0.9293,-0.2627,-0.6732,0.0017,-0.0198,-0.0128,2428,2019-08-07 17:01:37:761
-1.0602,9.8401,0.7014,0.9293,-0.2627,-0.6732,0.0017,-0.0198,-0.0128,2433,2019-08-07 17:01:37:766
-1.0602,9.8401,0.7014,0.9293,-0.2627,-0.6732,0.0017,-0.0198,-0.0128,2437,2019-08-07 17:01:37:770
-1.0602,9.8401,0.7014,0.5865,-3.0E-4,-0.9404,0.0187,-0.138,0.0298,2443,2019-08-07 17:01:37:776
-0.711,9.8735,0.5742,0.5865,-3.0E-4,-0.9404,0.0187,-0.138,0.0298,2448,2019-08-07 17:01:37:781
-0.711,9.8735,0.5742,0.5865,-3.0E-4,-0.9404,0.0293,-0.2232,0.0511,2453,2019-08-07 17:01:37:786
-0.711,9.8735,0.5742,0.5865,-3.0E-4,-0.9404,0.0293,-0.2232,0.0511,2458,2019-08-07 17:01:37:791
-0.4,10.0836,-0.0339,-0.0297,-0.2579,-0.2992,0.0293,-0.2232,0.0511,2463,2019-08-07 17:01:37:796
-0.4,10.0836,-0.0339,-0.0297,-0.2579,-0.2992,0.0134,-0.1998,0.0415,2468,2019-08-07 17:01:37:801
-0.0986,9.8878,0.692,-0.0297,-0.2579,-0.2992,0.0134,-0.1998,0.0415,2473,2019-08-07 17:01:37:806
-0.0986,9.8878,0.692,-0.0297,-0.2579,-0.2992,0.023,-0.2083,0.0277,2478,2019-08-07 17:01:37:811
-0.0986,9.8878,0.692,-0.3614,0.0433,-1.0583,0.023,-0.2083,0.0277,2483,2019-08-07 17:01:37:816
0.2697,9.6539,0.6731,-0.3614,0.0433,-1.0583,0.0464,-0.2243,0.0277,2488,2019-08-07 17:01:37:821
0.2697,9.6539,0.6731,-0.3614,0.0433,-1.0583,0.0464,-0.2243,0.0277,2493,2019-08-07 17:01:37:826
0.2697,9.6539,0.6731,-0.3614,0.0433,-1.0583,0.0389,-0.1859,0.0032,2497,2019-08-07 17:01:37:830
0.3128,9.9022,-0.0622,-0.5502,-0.1141,-0.0855,0.0389,-0.1859,0.0032,2503,2019-08-07 17:01:37:836
0.3128,9.9022,-0.0622,-0.5502,-0.1141,-0.0855,0.0389,-0.1859,0.0032,2508,2019-08-07 17:01:37:841
-0.0652,10.074,0.0085,-0.5502,-0.1141,-0.0855,0.0048,-0.056,-0.0202,2513,2019-08-07 17:01:37:846
-0.0652,10.074,0.0085,-0.5502,-0.1141,-0.0855,0.0048,-0.056,-0.0202,2519,2019-08-07 17:01:37:852
-0.0652,10.074,0.0085,0.084,-0.0616,-0.8563,6.0E-4,0.0175,-0.033,2523,2019-08-07 17:01:37:856
-0.4575,9.8067,0.6637,0.084,-0.0616,-0.8563,6.0E-4,0.0175,-0.033,2528,2019-08-07 17:01:37:861
-0.4575,9.8067,0.6637,0.084,-0.0616,-0.8563,6.0E-4,0.0175,-0.033,2533,2019-08-07 17:01:37:866
-0.5149,9.9022,0.9701,0.084,-0.0616,-0.8563,0.0262,-0.0517,-0.0298,2538,2019-08-07 17:01:37:871
-0.5149,9.9022,0.9701,0.1,-0.1429,-1.1573,0.0464,-0.106,-0.0245,2543,2019-08-07 17:01:37:876
-0.5149,9.9022,0.9701,0.1,-0.1429,-1.1573,0.0464,-0.106,-0.0245,2548,2019-08-07 17:01:37:881
-0.1992,10.012,0.8004,0.1,-0.1429,-1.1573,0.0464,-0.106,-0.0245,2553,2019-08-07 17:01:37:886
-0.1992,10.012,0.8004,0.1,-0.1429,-1.1573,0.0666,-0.1114,-0.0266,2558,2019-08-07 17:01:37:891
0.1261,9.9833,0.4233,-0.4676,-0.1145,-0.6153,0.0666,-0.1114,-0.0266,2563,2019-08-07 17:01:37:896
0.1261,9.9833,0.4233,-0.4676,-0.1145,-0.6153,0.0677,-0.0293,-0.0309,2568,2019-08-07 17:01:37:901
0.1261,9.9833,0.4233,-0.4676,-0.1145,-0.6153,0.0677,-0.0293,-0.0309,2573,2019-08-07 17:01:37:906
0.0209,9.7064,0.2677,-0.4676,-0.1145,-0.6153,0.0602,0.0559,-0.0437,2577,2019-08-07 17:01:37:910
0.0209,9.7064,0.2677,-0.1276,0.0093,-0.4347,0.0602,0.0559,-0.0437,2583,2019-08-07 17:01:37:916
-0.3906,9.8735,0.1546,-0.1276,0.0093,-0.4347,0.0453,0.0889,-0.0469,2588,2019-08-07 17:01:37:921
-0.3906,9.8735,0.1546,-0.1276,0.0093,-0.4347,0.0453,0.0889,-0.0469,2593,2019-08-07 17:01:37:926
-0.3906,9.8735,0.1546,0.2168,-0.1007,-0.3248,0.0389,0.0932,-0.0384,2598,2019-08-07 17:01:37:931
-0.7255,10.0549,0.0886,0.2168,-0.1007,-0.3248,0.0389,0.0932,-0.0384,2603,2019-08-07 17:01:37:936
-0.7255,10.0549,0.0886,0.2168,-0.1007,-0.3248,0.0198,0.0676,-0.0266,2608,2019-08-07 17:01:37:941
-0.7255,10.0549,0.0886,0.2168,-0.1007,-0.3248,0.0198,0.0676,-0.0266,2613,2019-08-07 17:01:37:946
-0.7973,10.1647,0.4563,0.4706,-0.3637,-0.7178,0.0272,0.0154,-0.0213,2617,2019-08-07 17:01:37:950
-0.7973,10.1647,0.4563,0.4706,-0.3637,-0.7178,0.0272,0.0154,-0.0213,2623,2019-08-07 17:01:37:956
-0.7303,10.0788,0.2064,0.4706,-0.3637,-0.7178,0.0293,-0.0357,0.0021,2628,2019-08-07 17:01:37:961
-0.7303,10.0788,0.2064,0.3367,-0.2254,-0.3468,0.0293,-0.0357,0.0021,2634,2019-08-07 17:01:37:967
-0.7303,10.0788,0.2064,0.3367,-0.2254,-0.3468,0.0187,-0.0443,0.0128,2637,2019-08-07 17:01:37:970
-0.649,9.9499,0.2347,0.3367,-0.2254,-0.3468,0.0187,-0.0443,0.0128,2643,2019-08-07 17:01:37:976
-0.649,9.9499,0.2347,0.3367,-0.2254,-0.3468,0.0134,-0.04,0.0234,2648,2019-08-07 17:01:37:981
-0.3668,9.9451,0.4798,0.0088,-0.1537,-0.783,0.0134,-0.04,0.0234,2653,2019-08-07 17:01:37:986
-0.3668,9.9451,0.4798,0.0088,-0.1537,-0.783,0.0134,-0.04,0.0234,2658,2019-08-07 17:01:37:991
-0.1276,10.0549,0.4846,0.0088,-0.1537,-0.783,0.0283,-0.0698,0.0213,2663,2019-08-07 17:01:37:996
-0.1276,10.0549,0.4846,0.0088,-0.1537,-0.783,0.0283,-0.0698,0.0213,2668,2019-08-07 17:01:38:001
-0.1276,10.0549,0.4846,0.0088,-0.1537,-0.783,0.04,-0.056,0.0202,2673,2019-08-07 17:01:38:006
-0.0032,9.8879,0.2064,-0.2726,-0.1678,-0.4489,0.04,-0.056,0.0202,2678,2019-08-07 17:01:38:011
-0.0032,9.8879,0.2064,-0.2726,-0.1678,-0.4489,0.024,0.0058,0.0096,2683,2019-08-07 17:01:38:016
-0.0893,9.8067,0.3997,-0.2726,-0.1678,-0.4489,0.024,0.0058,0.0096,2688,2019-08-07 17:01:38:021
-0.0893,9.8067,0.3997,-0.2726,-0.1678,-0.4489,0.0219,0.0346,0.0011,2693,2019-08-07 17:01:38:026
-0.0893,9.8067,0.3997,-0.1539,-0.0245,-0.845,0.0219,0.0346,0.0011,2698,2019-08-07 17:01:38:031
-0.1659,9.7972,0.6165,-0.1539,-0.0245,-0.845,0.0368,-0.0017,-0.0021,2702,2019-08-07 17:01:38:035
-0.1659,9.7972,0.6165,-0.1539,-0.0245,-0.845,0.0368,-0.0017,-0.0021,2708,2019-08-07 17:01:38:041
-0.1659,9.7972,0.6165,-0.1539,-0.0245,-0.845,0.0475,-0.024,-0.0032,2712,2019-08-07 17:01:38:045
-0.2711,9.8354,0.1404,-0.048,-0.0341,-0.4035,0.0475,-0.024,-0.0032,2718,2019-08-07 17:01:38:051
-0.2711,9.8354,0.1404,-0.048,-0.0341,-0.4035,0.0475,-0.024,-0.0032,2723,2019-08-07 17:01:38:056
-0.3764,9.9261,0.2866,-0.048,-0.0341,-0.4035,0.024,0.0154,-0.0096,2728,2019-08-07 17:01:38:061
-0.3764,9.9261,0.2866,-0.048,-0.0341,-0.4035,0.024,0.0154,-0.0096,2733,2019-08-07 17:01:38:066
-0.3764,9.9261,0.2866,0.0124,-0.0294,-0.9663,0.0315,0.0026,-0.0117,2738,2019-08-07 17:01:38:071
-0.2616,9.8449,0.7391,0.0124,-0.0294,-0.9663,0.0315,0.0026,-0.0117,2742,2019-08-07 17:01:38:075
-0.2616,9.8449,0.7391,0.0124,-0.0294,-0.9663,0.0581,-0.057,-0.0075,2748,2019-08-07 17:01:38:081
-0.1037,9.8783,0.1451,0.0124,-0.0294,-0.9663,0.0581,-0.057,-0.0075,2753,2019-08-07 17:01:38:086
-0.1037,9.8783,0.1451,-0.2663,-0.1441,-0.3288,0.0485,-0.0325,-0.017,2758,2019-08-07 17:01:38:091
-0.1037,9.8783,0.1451,-0.2663,-0.1441,-0.3288,0.0485,-0.0325,-0.017,2763,2019-08-07 17:01:38:096
-0.1707,9.9356,-0.1613,-0.2663,-0.1441,-0.3288,0.0262,0.0601,-0.0245,2768,2019-08-07 17:01:38:101
-0.1707,9.9356,-0.1613,-0.2663,-0.1441,-0.3288,0.0262,0.0601,-0.0245,2772,2019-08-07 17:01:38:105
-0.2234,9.9547,0.3761,-0.0732,-0.2016,-0.5645,0.0059,0.0836,-0.0245,2778,2019-08-07 17:01:38:111
-0.2234,9.9547,0.3761,-0.0732,-0.2016,-0.5645,0.0059,0.0836,-0.0245,2784,2019-08-07 17:01:38:117
-0.2234,9.9547,0.3761,-0.0732,-0.2016,-0.5645,0.0059,0.0836,-0.0245,2787,2019-08-07 17:01:38:120
-0.4434,9.9022,0.461,-0.0732,-0.2016,-0.5645,0.0208,0.0122,-0.0266,2793,2019-08-07 17:01:38:126
-0.4434,9.9022,0.461,0.0791,-0.1397,-0.6893,0.0208,0.0122,-0.0266,2798,2019-08-07 17:01:38:131
-0.4434,9.9022,0.461,0.0791,-0.1397,-0.6893,0.0208,-0.024,-0.0192,2803,2019-08-07 17:01:38:136
-0.4435,10.0263,0.2724,0.0791,-0.1397,-0.6893,0.0208,-0.024,-0.0192,2808,2019-08-07 17:01:38:141
-0.4435,10.0263,0.2724,0.0791,-0.1397,-0.6893,0.0176,-0.0123,-0.0096,2813,2019-08-07 17:01:38:146
-0.3765,10.0884,0.0933,0.0705,-0.2449,-0.4204,0.0176,-0.0123,-0.0096,2818,2019-08-07 17:01:38:151
-0.3765,10.0884,0.0933,0.0705,-0.2449,-0.4204,0.0017,0.0271,-0.0128,2823,2019-08-07 17:01:38:156
-0.3765,10.0884,0.0933,0.0705,-0.2449,-0.4204,0.0017,0.0271,-0.0128,2828,2019-08-07 17:01:38:161
-0.4339,10.0884,0.3997,0.0705,-0.2449,-0.4204,0.0017,0.0271,-0.0128,2833,2019-08-07 17:01:38:166
-0.4339,10.0884,0.3997,0.1064,-0.2019,-0.6905,0.0048,0.0186,-0.0053,2838,2019-08-07 17:01:38:171
-0.2904,9.9738,0.5175,0.1064,-0.2019,-0.6905,0.0091,-6.0E-4,-0.0032,2843,2019-08-07 17:01:38:176
-0.2904,9.9738,0.5175,0.1064,-0.2019,-0.6905,0.0091,-6.0E-4,-0.0032,2848,2019-08-07 17:01:38:181
-0.2904,9.9738,0.5175,0.1064,-0.2019,-0.6905,0.0091,-0.0017,-0.0043,2853,2019-08-07 17:01:38:186
-0.3765,9.7876,0.1498,0.0386,0.013,-0.4144,0.007,-0.0017,-0.0043,2858,2019-08-07 17:01:38:191
-0.3765,9.7876,0.1498,0.0386,0.013,-0.4144,0.007,-0.0017,-0.0043,2863,2019-08-07 17:01:38:196
-0.3765,9.7876,0.1498,0.0386,0.013,-0.4144,0.0017,0.0026,0.0011,2868,2019-08-07 17:01:38:201
-0.3383,9.864,0.2771,0.0386,0.013,-0.4144,0.0017,0.0026,0.0011,2872,2019-08-07 17:01:38:205
-0.3383,9.864,0.2771,-0.1231,-0.2208,-0.5846,-5.0E-4,-0.0187,0.0053,2878,2019-08-07 17:01:38:211
-0.4531,10.0168,0.1074,-0.1231,-0.2208,-0.5846,-5.0E-4,-0.0187,0.0053,2883,2019-08-07 17:01:38:216
-0.4531,10.0168,0.1074,-0.1231,-0.2208,-0.5846,-0.009,-0.0176,0.0043,2888,2019-08-07 17:01:38:221
-0.4531,10.0168,0.1074,-0.1231,-0.2208,-0.5846,-0.009,-0.0176,0.0043,2893,2019-08-07 17:01:38:226
-0.3526,9.9452,0.5175,0.0492,-0.1634,-0.6311,0.0038,-0.008,0.0021,2898,2019-08-07 17:01:38:231
-0.3526,9.9452,0.5175,0.0492,-0.1634,-0.6311,0.0038,-0.008,0.0021,2903,2019-08-07 17:01:38:236
-0.3526,9.9452,0.5175,0.0492,-0.1634,-0.6311,0.0038,-0.008,0.0021,2908,2019-08-07 17:01:38:241
0.8243,8.513,4.1377,0.0492,-0.1634,-0.6311,0.0528,-0.4778,-0.0234,2913,2019-08-07 17:01:38:246
0.8243,8.513,4.1377,0.5066,-1.3708,2.2459,0.0528,-0.4778,-0.0234,2918,2019-08-07 17:01:38:251
0.8243,8.513,4.1377,0.5066,-1.3708,2.2459,-0.0719,-0.2264,0.0778,2923,2019-08-07 17:01:38:256
0.7021,9.8733,-0.4672,0.5066,-1.3708,2.2459,-0.0719,-0.2264,0.0778,2927,2019-08-07 17:01:38:260
0.7021,9.8733,-0.4672,0.5066,-1.3708,2.2459,-0.009,0.1741,-0.0394,2933,2019-08-07 17:01:38:266
0.7021,9.8733,-0.4672,0.0832,-0.4491,-1.1285,-0.009,0.1741,-0.0394,2937,2019-08-07 17:01:38:270
-0.4222,10.2648,0.7678,0.0832,-0.4491,-1.1285,-5.0E-4,0.0932,0.0096,2943,2019-08-07 17:01:38:276
-0.4222,10.2648,0.7678,0.0832,-0.4491,-1.1285,-5.0E-4,0.0932,0.0096,2948,2019-08-07 17:01:38:281
-0.3313,9.8113,0.3011,-0.232,0.0379,-0.6231,0.04,0.0484,-0.0234,2952,2019-08-07 17:01:38:285
-0.3313,9.8113,0.3011,-0.232,0.0379,-0.6231,0.04,0.0484,-0.0234,2958,2019-08-07 17:01:38:291
-0.3313,9.8113,0.3011,-0.232,0.0379,-0.6231,0.0198,0.1208,-0.016,2963,2019-08-07 17:01:38:296
-0.1351,9.9497,-0.076,-0.2441,-0.1341,-0.2493,0.0198,0.1208,-0.016,2968,2019-08-07 17:01:38:301
-0.1351,9.9497,-0.076,-0.2441,-0.1341,-0.2493,0.0038,0.189,-0.033,2972,2019-08-07 17:01:38:305
-0.2499,9.9593,0.4567,-0.2441,-0.1341,-0.2493,0.0038,0.189,-0.033,2978,2019-08-07 17:01:38:311
-0.2499,9.9593,0.4567,-0.2441,-0.1341,-0.2493,-0.0229,0.0772,-0.0224,2983,2019-08-07 17:01:38:316
-0.2499,9.9593,0.4567,0.0245,-0.0482,-1.0063,-0.0229,0.0772,-0.0224,2988,2019-08-07 17:01:38:321
-0.3504,9.8017,0.683,0.0245,-0.0482,-1.0063,-0.0229,0.0772,-0.0224,2993,2019-08-07 17:01:38:326
-0.3504,9.8017,0.683,0.0245,-0.0482,-1.0063,0.0219,-0.008,-0.0234,2998,2019-08-07 17:01:38:331
-0.3504,9.8017,0.683,0.0245,-0.0482,-1.0063,0.0219,-0.008,-0.0234,3003,2019-08-07 17:01:38:336
-0.2977,10.007,-0.0948,0.0245,-0.0482,-1.0063,0.0112,-0.0198,-0.0277,3008,2019-08-07 17:01:38:341
-0.2977,10.007,-0.0948,0.0196,-0.1295,-0.1574,0.0112,-0.0198,-0.0277,3013,2019-08-07 17:01:38:346
-0.3264,9.964,0.0419,0.0196,-0.1295,-0.1574,-0.0037,0.041,-0.0224,3018,2019-08-07 17:01:38:351
-0.3264,9.964,0.0419,0.0196,-0.1295,-0.1574,-0.0037,0.041,-0.0224,3023,2019-08-07 17:01:38:356
-0.3264,9.964,0.0419,0.3312,-0.1915,-0.6229,-0.0122,0.0442,-0.0106,3028,2019-08-07 17:01:38:361
-0.7666,10.0213,0.4426,0.3312,-0.1915,-0.6229,-0.0122,0.0442,-0.0106,3032,2019-08-07 17:01:38:365
-0.7666,10.0213,0.4426,0.3312,-0.1915,-0.6229,-0.0026,-0.0272,0.0,3038,2019-08-07 17:01:38:371
-0.6374,9.9593,0.4944,0.3312,-0.1915,-0.6229,-0.0026,-0.0272,0.0,3043,2019-08-07 17:01:38:376
-0.6374,9.9593,0.4944,0.1801,-0.1056,-0.5742,0.0091,-0.0805,0.0107,3049,2019-08-07 17:01:38:382
-0.6374,9.9593,0.4944,0.1801,-0.1056,-0.5742,0.0091,-0.0805,0.0107,3053,2019-08-07 17:01:38:386
-0.4029,9.8781,0.1503,0.1801,-0.1056,-0.5742,0.0091,-0.0805,0.0107,3058,2019-08-07 17:01:38:391
-0.4029,9.8781,0.1503,0.1801,-0.1056,-0.5742,-0.0037,-0.0784,0.0181,3063,2019-08-07 17:01:38:396
-0.4029,9.8781,0.1503,0.1801,-0.1056,-0.5742,-0.0037,-0.0784,0.0181,3068,2019-08-07 17:01:38:401
-0.202,9.9545,-0.0335,-0.1472,-0.1531,-0.1849,-0.0292,-0.0379,0.0053,3073,2019-08-07 17:01:38:406
-0.202,9.9545,-0.0335,-0.1472,-0.1531,-0.1849,-0.0292,-0.0379,0.0053,3078,2019-08-07 17:01:38:411
-0.178,9.9545,0.1692,-0.1472,-0.1531,-0.1849,-0.0292,-0.0379,0.0053,3083,2019-08-07 17:01:38:416
-0.178,9.9545,0.1692,-0.1472,-0.1531,-0.1849,-0.041,-0.0251,0.0011,3087,2019-08-07 17:01:38:420
-0.178,9.9545,0.1692,-0.069,-0.0956,-0.4911,-0.041,-0.0251,0.0011,3093,2019-08-07 17:01:38:426
-0.2546,9.902,0.3153,-0.069,-0.0956,-0.4911,-0.0378,-0.0432,0.0011,3098,2019-08-07 17:01:38:431
-0.2546,9.902,0.3153,-0.069,-0.0956,-0.4911,-0.0378,-0.0432,0.0011,3103,2019-08-07 17:01:38:436
-0.2689,9.9306,0.1315,-0.069,-0.0956,-0.4911,-0.0431,-0.0613,-0.0043,3108,2019-08-07 17:01:38:441
-0.2689,9.9306,0.1315,-0.0639,-0.1574,-0.404,-0.0431,-0.0613,-0.0043,3113,2019-08-07 17:01:38:446
-0.2689,9.9306,0.1315,-0.0639,-0.1574,-0.404,-0.0474,-0.0389,-0.0064,3118,2019-08-07 17:01:38:451
-0.3407,9.8972,0.3672,-0.0639,-0.1574,-0.404,-0.0474,-0.0389,-0.0064,3123,2019-08-07 17:01:38:456
-0.3407,9.8972,0.3672,-0.0639,-0.1574,-0.404,-0.0484,-0.0315,-0.0021,3128,2019-08-07 17:01:38:461
-0.4268,9.9974,0.6029,0.0452,-0.1619,-0.7714,-0.0484,-0.0315,-0.0021,3133,2019-08-07 17:01:38:466
-0.4268,9.9974,0.6029,0.0452,-0.1619,-0.7714,-0.0346,-0.0475,0.0011,3138,2019-08-07 17:01:38:471
-0.4268,9.9974,0.6029,0.0452,-0.1619,-0.7714,-0.0346,-0.0475,0.0011,3143,2019-08-07 17:01:38:476
-0.4602,9.9927,0.5086,0.0452,-0.1619,-0.7714,-0.0186,-0.0464,0.0021,3148,2019-08-07 17:01:38:481
-0.4602,9.9927,0.5086,0.1259,-0.1569,-0.6885,-0.0186,-0.0464,0.0021,3153,2019-08-07 17:01:38:486
-0.4602,9.9927,0.5086,0.1259,-0.1569,-0.6885,-0.0186,-0.0464,0.0021,3158,2019-08-07 17:01:38:491
-0.4315,9.8829,0.5227,0.1259,-0.1569,-0.6885,-0.0133,-0.04,0.0075,3163,2019-08-07 17:01:38:496
-0.4315,9.8829,0.5227,0.1259,-0.1569,-0.6885,-0.0133,-0.04,0.0075,3168,2019-08-07 17:01:38:501
-0.2449,9.902,0.3295,-0.1026,-0.0278,-0.5625,-5.0E-4,-0.0613,0.0064,3173,2019-08-07 17:01:38:506
-0.2449,9.902,0.3295,-0.1026,-0.0278,-0.5625,-5.0E-4,-0.0613,0.0064,3178,2019-08-07 17:01:38:511
-0.2449,9.902,0.3295,-0.1026,-0.0278,-0.5625,-0.0026,-0.0507,0.0,3182,2019-08-07 17:01:38:515
-0.0918,9.8829,0.287,-0.1026,-0.0278,-0.5625,-0.0026,-0.0507,0.0,3188,2019-08-07 17:01:38:521
-0.0918,9.8829,0.287,-0.2066,-0.0564,-0.4311,-0.0016,-0.0112,-0.0085,3192,2019-08-07 17:01:38:525
-0.0392,9.816,0.4709,-0.2066,-0.0564,-0.4311,-0.0016,-0.0112,-0.0085,3198,2019-08-07 17:01:38:531
-0.0392,9.816,0.4709,-0.2066,-0.0564,-0.4311,-0.0037,0.0037,-0.0181,3203,2019-08-07 17:01:38:536
-0.0392,9.816,0.4709,-0.2066,-0.0564,-0.4311,-0.0037,0.0037,-0.0181,3207,2019-08-07 17:01:38:540
-0.2449,9.902,0.3248,-0.1027,-0.0993,-0.4782,-0.0037,0.0037,-0.0181,3213,2019-08-07 17:01:38:546
-0.2449,9.902,0.3248,-0.1027,-0.0993,-0.4782,-0.0133,0.0111,-0.0181,3218,2019-08-07 17:01:38:551
-0.2449,9.902,0.3248,-0.1027,-0.0993,-0.4782,-0.0133,0.0111,-0.0181,3223,2019-08-07 17:01:38:556
-0.441,9.9497,0.4709,-0.1027,-0.0993,-0.4782,-0.0101,-0.0059,-0.017,3228,2019-08-07 17:01:38:561
-0.441,9.9497,0.4709,-0.0746,0.402,-4.3387,-0.0101,-0.0059,-0.017,3232,2019-08-07 17:01:38:565
0.0279,9.4628,-0.0995,-0.0746,0.402,-4.3387,0.1316,-0.367,-0.0032,3238,2019-08-07 17:01:38:571
0.0279,9.4628,-0.0995,-0.0746,0.402,-4.3387,0.1316,-0.367,-0.0032,3243,2019-08-07 17:01:38:576
0.0279,9.4628,-0.0995,-0.0746,0.402,-4.3387,0.0166,-0.2296,0.0202,3248,2019-08-07 17:01:38:581
0.2719,9.9354,-0.4341,-0.5936,0.0534,-0.0058,0.0166,-0.2296,0.0202,3252,2019-08-07 17:01:38:585
0.2719,9.9354,-0.4341,-0.5936,0.0534,-0.0058,-0.0452,-0.0017,-0.0192,3258,2019-08-07 17:01:38:591
-0.3979,10.1359,0.6642,-0.5936,0.0534,-0.0058,-0.0452,-0.0017,-0.0192,3262,2019-08-07 17:01:38:595
-0.3979,10.1359,0.6642,-0.5936,0.0534,-0.0058,0.0038,0.0655,-0.0021,3268,2019-08-07 17:01:38:601
-0.3979,10.1359,0.6642,0.1508,-0.1088,-0.0833,0.0038,0.0655,-0.0021,3272,2019-08-07 17:01:38:605
-0.6419,9.8829,-0.1042,0.1508,-0.1088,-0.0833,-0.0111,0.0143,-0.0224,3278,2019-08-07 17:01:38:611
-0.6419,9.8829,-0.1042,0.1508,-0.1088,-0.0833,-0.0111,0.0143,-0.0224,3283,2019-08-07 17:01:38:616
-0.6419,9.8829,-0.1042,0.1508,-0.1088,-0.0833,-0.0314,0.0889,-0.0202,3288,2019-08-07 17:01:38:621
-0.2974,9.9926,0.1739,0.0555,-0.2187,-0.3277,-0.0314,0.0889,-0.0202,3293,2019-08-07 17:01:38:626
-0.2974,9.9926,0.1739,0.0555,-0.2187,-0.3277,-0.0314,0.0889,-0.0202,3298,2019-08-07 17:01:38:631
-0.4266,9.816,0.2682,0.0555,-0.2187,-0.3277,-0.0292,0.123,-0.0096,3303,2019-08-07 17:01:38:636
-0.4266,9.816,0.2682,0.0555,-0.2187,-0.3277,-0.0292,0.123,-0.0096,3308,2019-08-07 17:01:38:641
-0.4266,9.816,0.2682,0.2982,-0.0516,-0.4332,-0.0292,0.1496,0.0064,3313,2019-08-07 17:01:38:646
-0.7088,9.8685,0.3531,0.2982,-0.0516,-0.4332,-0.0292,0.1496,0.0064,3318,2019-08-07 17:01:38:651
-0.7088,9.8685,0.3531,0.2982,-0.0516,-0.4332,-0.0218,0.1411,0.0245,3322,2019-08-07 17:01:38:655
-0.2734,9.9545,0.5416,0.2982,-0.0516,-0.4332,-0.0218,0.1411,0.0245,3328,2019-08-07 17:01:38:661
-0.2734,9.9545,0.5416,-0.2435,-0.2852,-0.4996,-0.0261,0.0484,0.0139,3333,2019-08-07 17:01:38:666
-0.2734,9.9545,0.5416,-0.2435,-0.2852,-0.4996,-0.0261,0.0484,0.0139,3338,2019-08-07 17:01:38:671
-0.3547,10.069,0.5228,-0.2435,-0.2852,-0.4996,-0.0378,-0.073,0.0117,3343,2019-08-07 17:01:38:676
-0.3547,10.069,0.5228,-0.2435,-0.2852,-0.4996,-0.0378,-0.073,0.0117,3348,2019-08-07 17:01:38:681
-0.0485,9.9115,0.3625,-0.303,-0.1084,-0.4693,-0.0133,-0.0677,0.0021,3353,2019-08-07 17:01:38:686
-0.0485,9.9115,0.3625,-0.303,-0.1084,-0.4693,-0.0133,-0.0677,0.0021,3358,2019-08-07 17:01:38:691
-0.0485,9.9115,0.3625,-0.303,-0.1084,-0.4693,-0.0133,-0.0677,0.0021,3362,2019-08-07 17:01:38:695
0.162,9.9354,-0.1042,-0.303,-0.1084,-0.4693,-0.0324,-0.0208,-0.0181,3368,2019-08-07 17:01:38:701
0.162,9.9354,-0.1042,-0.2737,-0.1083,-0.2077,-0.0559,0.0974,-0.0341,3373,2019-08-07 17:01:38:706