ACCELEROMETER X (m/s²),ACCELEROMETER Y (m/s²),ACCELEROMETER Z (m/s²),LINEAR ACCELERATION X (m/s²),LINEAR ACCELERATION Y (m/s²),LINEAR ACCELERATION Z (m/s²),GYROSCOPE X (rad/s),GYROSCOPE Y (rad/s),GYROSCOPE Z (rad/s),Time since start in ms ,YYYY-MO-DD HH-MI-SS_SSS
-0.751,9.9109,0.7502,0.2399,-0.0404,-0.7095,0.1433,0.0889,-0.1033,4,2019-08-07 17:02:30:148
-0.8563,9.8059,1.2357,0.2399,-0.0404,-0.7095,0.1668,0.0196,-0.0873,8,2019-08-07 17:02:30:152
-0.8563,9.8059,1.2357,0.2399,-0.0404,-0.7095,0.1668,0.0196,-0.0873,14,2019-08-07 17:02:30:158
-0.708,9.7582,0.7078,0.2399,-0.0404,-0.7095,0.1817,-0.0677,-0.0777,19,2019-08-07 17:02:30:163
-0.708,9.7582,0.7078,0.0458,0.0267,-0.1605,0.1817,-0.0677,-0.0777,24,2019-08-07 17:02:30:168
-0.708,9.7582,0.7078,0.0458,0.0267,-0.1605,0.1817,-0.0613,-0.0703,28,2019-08-07 17:02:30:172
-0.617,9.7152,0.4627,0.0458,0.0267,-0.1605,0.1817,-0.0613,-0.0703,34,2019-08-07 17:02:30:178
-0.617,9.7152,0.4627,0.0458,0.0267,-0.1605,0.1604,-6.0E-4,-0.066,38,2019-08-07 17:02:30:182
-0.7606,9.8823,0.5287,0.1045,-0.1017,-0.147,0.1604,-6.0E-4,-0.066,44,2019-08-07 17:02:30:188
-0.7606,9.8823,0.5287,0.1045,-0.1017,-0.147,0.1486,0.0143,-0.0553,48,2019-08-07 17:02:30:192
-0.7606,9.8823,0.5287,0.1045,-0.1017,-0.147,0.1486,0.0143,-0.0553,54,2019-08-07 17:02:30:198
-0.9232,9.9443,0.7267,0.1045,-0.1017,-0.147,0.1486,0.0143,-0.0553,59,2019-08-07 17:02:30:203
-0.9232,9.9443,0.7267,0.3083,-0.2017,-0.3731,0.1561,-0.023,-0.0362,64,2019-08-07 17:02:30:208
-0.9232,9.9443,0.7267,0.3083,-0.2017,-0.3731,0.1614,-0.0549,-0.033,69,2019-08-07 17:02:30:213
-0.9997,9.9491,0.6795,0.3083,-0.2017,-0.3731,0.1614,-0.0549,-0.033,73,2019-08-07 17:02:30:217
-0.9997,9.9491,0.6795,0.2515,-0.1489,-0.4014,0.1614,-0.0549,-0.033,79,2019-08-07 17:02:30:223
-0.8275,9.8918,0.7408,0.2515,-0.1489,-0.4014,0.1646,-0.0975,-0.0149,84,2019-08-07 17:02:30:228
-0.8275,9.8918,0.7408,0.2515,-0.1489,-0.4014,0.1699,-0.1316,-0.0074,89,2019-08-07 17:02:30:233
-0.8275,9.8918,0.7408,0.2515,-0.1489,-0.4014,0.1699,-0.1316,-0.0074,93,2019-08-07 17:02:30:237
-0.7796,9.8727,0.6842,0.1052,-0.0909,-0.3734,0.1699,-0.1316,-0.0074,99,2019-08-07 17:02:30:243
-0.7796,9.8727,0.6842,0.1052,-0.0909,-0.3734,0.1731,-0.122,0.0011,104,2019-08-07 17:02:30:248
-0.5076,9.8919,0.7784,0.1052,-0.0909,-0.3734,0.1731,-0.122,0.0011,109,2019-08-07 17:02:30:253
-0.5076,9.8919,0.7784,0.1052,-0.0909,-0.3734,0.1806,-0.1167,0.0022,114,2019-08-07 17:02:30:258
-0.5076,9.8919,0.7784,-0.1935,-0.1424,-0.4172,0.1806,-0.1167,0.0022,119,2019-08-07 17:02:30:263
-0.4359,9.9253,0.6134,-0.1935,-0.1424,-0.4172,0.1881,-0.1263,-0.001,125,2019-08-07 17:02:30:269
-0.4359,9.9253,0.6134,-0.1935,-0.1424,-0.4172,0.1881,-0.1263,-0.001,129,2019-08-07 17:02:30:273
-0.4024,9.8633,0.4531,-0.1935,-0.1424,-0.4172,0.1849,-0.1167,-0.0095,134,2019-08-07 17:02:30:278
-0.4024,9.8633,0.4531,-0.2683,-0.0794,-0.2378,0.1849,-0.1167,-0.0095,139,2019-08-07 17:02:30:283
-0.4024,9.8633,0.4531,-0.2683,-0.0794,-0.2378,0.1785,-0.0837,-0.0202,144,2019-08-07 17:02:30:288
-0.4837,9.8728,0.571,-0.2683,-0.0794,-0.2378,0.1785,-0.0837,-0.0202,149,2019-08-07 17:02:30:293
-0.4837,9.8728,0.571,-0.2683,-0.0794,-0.2378,0.1763,-0.0773,-0.0287,153,2019-08-07 17:02:30:297
-0.4646,9.7917,0.5568,-0.1605,0.0215,-0.3493,0.1763,-0.0773,-0.0287,159,2019-08-07 17:02:30:303
-0.4646,9.7917,0.5568,-0.1605,0.0215,-0.3493,0.1753,-0.0698,-0.0319,164,2019-08-07 17:02:30:308
-0.4646,9.7917,0.5568,-0.1605,0.0215,-0.3493,0.1753,-0.0698,-0.0319,169,2019-08-07 17:02:30:313
-0.4598,9.9635,0.505,-0.1605,0.0215,-0.3493,0.1625,-0.0656,-0.0468,174,2019-08-07 17:02:30:318
-0.4598,9.9635,0.505,-0.2043,-0.1263,-0.243,0.1625,-0.0656,-0.0468,179,2019-08-07 17:02:30:323
-0.5794,9.9874,0.2929,-0.2043,-0.1263,-0.243,0.1508,-0.0262,-0.0585,183,2019-08-07 17:02:30:327
-0.5794,9.9874,0.2929,-0.2043,-0.1263,-0.243,0.1508,-0.0262,-0.0585,189,2019-08-07 17:02:30:333
-0.5794,9.9874,0.2929,-0.2043,-0.1263,-0.243,0.1337,-0.0134,-0.0585,193,2019-08-07 17:02:30:337
-0.7229,9.8489,0.5333,0.0337,-0.0645,-0.3743,0.1337,-0.0134,-0.0585,199,2019-08-07 17:02:30:343
-0.7229,9.8489,0.5333,0.0337,-0.0645,-0.3743,0.1359,-0.0528,-0.0607,203,2019-08-07 17:02:30:347
-0.6846,9.7726,0.7407,0.0337,-0.0645,-0.3743,0.1359,-0.0528,-0.0607,209,2019-08-07 17:02:30:353
-0.6846,9.7726,0.7407,0.0337,-0.0645,-0.3743,0.1508,-0.0997,-0.0575,214,2019-08-07 17:02:30:358
-0.6846,9.7726,0.7407,0.0125,0.0114,-0.3973,0.1508,-0.0997,-0.0575,219,2019-08-07 17:02:30:363
-0.6511,9.8871,0.4437,0.0125,0.0114,-0.3973,0.1444,-0.0975,-0.0585,223,2019-08-07 17:02:30:367
-0.6511,9.8871,0.4437,0.0125,0.0114,-0.3973,0.1444,-0.0975,-0.0585,229,2019-08-07 17:02:30:373
-0.5985,9.911,0.4484,0.0125,0.0114,-0.3973,0.1305,-0.072,-0.0649,234,2019-08-07 17:02:30:378
-0.5985,9.911,0.4484,-0.1086,-0.1514,-0.4074,0.1305,-0.072,-0.0649,239,2019-08-07 17:02:30:383
-0.5985,9.911,0.4484,-0.1086,-0.1514,-0.4074,0.106,-0.0603,-0.066,244,2019-08-07 17:02:30:388
-0.5794,10.0303,0.5615,-0.1086,-0.1514,-0.4074,0.106,-0.0603,-0.066,249,2019-08-07 17:02:30:393
-0.5794,10.0303,0.5615,-0.1086,-0.1514,-0.4074,0.106,-0.0603,-0.066,253,2019-08-07 17:02:30:397
-0.5794,10.0303,0.5615,-0.1632,-0.386,-0.5273,0.0847,-0.0496,-0.0713,259,2019-08-07 17:02:30:403
-0.4932,10.1401,0.604,-0.1632,-0.386,-0.5273,0.0847,-0.0496,-0.0713,264,2019-08-07 17:02:30:408
-0.4932,10.1401,0.604,-0.1632,-0.386,-0.5273,0.0506,-0.0603,-0.0681,269,2019-08-07 17:02:30:413
-0.455,10.016,0.4861,-0.1632,-0.386,-0.5273,0.0506,-0.0603,-0.0681,274,2019-08-07 17:02:30:418
-0.455,10.016,0.4861,-0.2424,-0.0861,-0.3998,0.0091,-0.0571,-0.082,279,2019-08-07 17:02:30:423
-0.5746,9.7773,0.5238,-0.2424,-0.0861,-0.3998,0.0091,-0.0571,-0.082,284,2019-08-07 17:02:30:428
-0.5746,9.7773,0.5238,-0.2424,-0.0861,-0.3998,0.0208,-0.007,-0.0841,288,2019-08-07 17:02:30:432
-0.5746,9.7773,0.5238,-0.2424,-0.0861,-0.3998,0.0208,-0.007,-0.0841,294,2019-08-07 17:02:30:438
-0.8233,9.8346,0.5568,0.072,-0.0538,-0.4659,0.0496,0.0015,-0.0724,300,2019-08-07 17:02:30:444
-0.8233,9.8346,0.5568,0.072,-0.0538,-0.4659,0.0496,0.0015,-0.0724,303,2019-08-07 17:02:30:447
-0.8233,9.8346,0.5568,0.072,-0.0538,-0.4659,0.0549,-0.0176,-0.0681,309,2019-08-07 17:02:30:453
-0.9908,10.0781,0.3919,0.072,-0.0538,-0.4659,0.0549,-0.0176,-0.0681,315,2019-08-07 17:02:30:459
-0.9908,10.0781,0.3919,0.2197,-0.3032,-0.3843,0.0549,-0.0176,-0.0681,320,2019-08-07 17:02:30:464
-0.9956,10.0208,0.4343,0.2197,-0.3032,-0.3843,0.0773,-0.0752,-0.0596,324,2019-08-07 17:02:30:468
-0.9956,10.0208,0.4343,0.2197,-0.3032,-0.3843,0.0773,-0.0752,-0.0596,329,2019-08-07 17:02:30:473
-0.9956,10.0208,0.4343,0.2037,-0.17,-0.4418,0.0922,-0.1338,-0.0426,334,2019-08-07 17:02:30:478
-0.9525,9.8728,0.4437,0.2037,-0.17,-0.4418,0.0922,-0.1338,-0.0426,339,2019-08-07 17:02:30:483
-0.9525,9.8728,0.4437,0.2037,-0.17,-0.4418,0.0901,-0.1806,-0.0362,344,2019-08-07 17:02:30:488
-0.8233,9.9874,0.5003,0.0419,-0.2517,-0.4258,0.0901,-0.1806,-0.0362,349,2019-08-07 17:02:30:493
-0.8233,9.9874,0.5003,0.0419,-0.2517,-0.4258,0.0592,-0.2254,-0.0319,354,2019-08-07 17:02:30:498
-0.8233,9.9874,0.5003,0.0419,-0.2517,-0.4258,0.0592,-0.2254,-0.0319,360,2019-08-07 17:02:30:504
-0.5554,9.9826,0.1892,0.0419,-0.2517,-0.4258,0.0347,-0.2126,-0.0447,364,2019-08-07 17:02:30:508
-0.5554,9.9826,0.1892,-0.218,-0.1615,0.07,0.0347,-0.2126,-0.0447,369,2019-08-07 17:02:30:513
-0.5554,9.9826,0.1892,-0.218,-0.1615,0.07,-5.0E-4,-0.1487,-0.0553,374,2019-08-07 17:02:30:518
-0.5458,9.9158,0.0713,-0.218,-0.1615,0.07,-5.0E-4,-0.1487,-0.0553,379,2019-08-07 17:02:30:523
-0.5458,9.9158,0.0713,-0.218,-0.1615,0.07,-0.0506,-0.0709,-0.0692,384,2019-08-07 17:02:30:528
-0.6176,9.8203,0.076,-0.181,-0.0431,-0.0073,-0.0506,-0.0709,-0.0692,389,2019-08-07 17:02:30:533
-0.6176,9.8203,0.076,-0.181,-0.0431,-0.0073,-0.0825,-0.0176,-0.0756,394,2019-08-07 17:02:30:538
-0.6176,9.8203,0.076,-0.181,-0.0431,-0.0073,-0.0825,-0.0176,-0.0756,399,2019-08-07 17:02:30:543
-0.8472,9.7678,0.3259,-0.181,-0.0431,-0.0073,-0.0761,0.0228,-0.0724,403,2019-08-07 17:02:30:547
-0.8472,9.7678,0.3259,0.0197,-0.0205,-0.1458,-0.0761,0.0228,-0.0724,409,2019-08-07 17:02:30:553
-0.8664,9.8537,0.1373,0.0197,-0.0205,-0.1458,-0.0697,-0.0049,-0.0681,414,2019-08-07 17:02:30:558
-0.8664,9.8537,0.1373,0.0197,-0.0205,-0.1458,-0.0697,-0.0049,-0.0681,419,2019-08-07 17:02:30:563
-0.8664,9.8537,0.1373,0.0197,-0.0205,-0.1458,-0.0697,-0.0049,-0.0681,423,2019-08-07 17:02:30:567
-0.8951,10.1783,0.472,0.107,-0.461,-0.4428,-0.0506,-0.0347,-0.0628,429,2019-08-07 17:02:30:573
-0.8951,10.1783,0.472,0.107,-0.461,-0.4428,-0.0506,-0.0347,-0.0628,434,2019-08-07 17:02:30:578
-0.7611,9.7439,0.3966,0.107,-0.461,-0.4428,-0.0857,-0.1295,-0.0564,439,2019-08-07 17:02:30:583
-0.7611,9.7439,0.3966,0.107,-0.461,-0.4428,-0.0857,-0.1295,-0.0564,444,2019-08-07 17:02:30:588
-0.7611,9.7439,0.3966,0.107,-0.461,-0.4428,-0.0548,-0.1295,-0.0617,449,2019-08-07 17:02:30:593
-0.8663,9.8489,0.4861,0.0909,-0.0946,-0.3154,-0.0548,-0.1295,-0.0617,453,2019-08-07 17:02:30:597
-0.8663,9.8489,0.4861,0.0909,-0.0946,-0.3154,-0.0665,-0.1391,-0.05,459,2019-08-07 17:02:30:603
-0.7946,9.7821,0.307,0.0909,-0.0946,-0.3154,-0.0665,-0.1391,-0.05,464,2019-08-07 17:02:30:608
-0.7946,9.7821,0.307,-0.0239,-0.0049,-0.195,-0.058,-0.1167,-0.0458,469,2019-08-07 17:02:30:613
-0.7946,9.7821,0.307,-0.0239,-0.0049,-0.195,-0.058,-0.1167,-0.0458,474,2019-08-07 17:02:30:618
-0.8711,9.7248,0.4201,-0.0239,-0.0049,-0.195,-0.0431,-0.0848,-0.0436,480,2019-08-07 17:02:30:624
-0.8711,9.7248,0.4201,-0.0239,-0.0049,-0.195,-0.0431,-0.0848,-0.0436,484,2019-08-07 17:02:30:628
-0.8711,9.7248,0.4201,-0.0239,-0.0049,-0.195,-0.0431,-0.0848,-0.0436,489,2019-08-07 17:02:30:633
-0.8615,9.615,0.802,0.0066,0.1565,-0.6538,-0.0143,-0.073,-0.0298,493,2019-08-07 17:02:30:637
-0.8615,9.615,0.802,0.0066,0.1565,-0.6538,-0.0143,-0.073,-0.0298,499,2019-08-07 17:02:30:643
-0.8137,9.6675,0.604,0.0066,0.1565,-0.6538,0.0112,-0.0794,-0.0181,503,2019-08-07 17:02:30:647
-0.8137,9.6675,0.604,0.0066,0.1565,-0.6538,0.0112,-0.0794,-0.0181,509,2019-08-07 17:02:30:653
-0.7659,9.7439,0.4673,-0.0694,0.0415,-0.3384,0.0208,-0.0443,-0.0202,514,2019-08-07 17:02:30:658
-0.7659,9.7439,0.4673,-0.0694,0.0415,-0.3384,0.0208,-0.0443,-0.0202,519,2019-08-07 17:02:30:663
-0.7659,9.7439,0.4673,-0.0694,0.0415,-0.3384,0.0251,0.0335,-0.0255,524,2019-08-07 17:02:30:668
-0.6606,9.8537,0.5616,-0.0694,0.0415,-0.3384,0.0251,0.0335,-0.0255,529,2019-08-07 17:02:30:673
-0.6606,9.8537,0.5616,-0.1494,-0.0447,-0.4257,0.0389,0.0836,-0.0223,534,2019-08-07 17:02:30:678
-0.6606,9.8537,0.5616,-0.1494,-0.0447,-0.4257,0.0389,0.0836,-0.0223,538,2019-08-07 17:02:30:682
-0.7993,9.8441,0.6276,-0.1494,-0.0447,-0.4257,0.0538,0.0867,-0.0255,544,2019-08-07 17:02:30:688
-0.7993,9.8441,0.6276,-0.1494,-0.0447,-0.4257,0.0538,0.0867,-0.0255,549,2019-08-07 17:02:30:693
-0.8663,9.7725,0.6841,-0.0243,0.0028,-0.5322,0.0538,0.0867,-0.0255,554,2019-08-07 17:02:30:698
-0.8663,9.7725,0.6841,-0.0243,0.0028,-0.5322,0.0805,0.0601,-0.0202,559,2019-08-07 17:02:30:703
-0.8663,9.7725,0.6841,-0.0243,0.0028,-0.5322,0.0805,0.0601,-0.0202,564,2019-08-07 17:02:30:708
-0.7993,9.7869,0.571,-0.0243,0.0028,-0.5322,0.1007,0.0196,-0.0191,569,2019-08-07 17:02:30:713
-0.7993,9.7869,0.571,-0.0327,0.0505,-0.4476,0.1007,0.0196,-0.0191,574,2019-08-07 17:02:30:718
-0.7993,9.7869,0.571,-0.0327,0.0505,-0.4476,0.122,-0.0123,-0.0191,579,2019-08-07 17:02:30:723
-0.785,9.7678,0.5804,-0.0327,0.0505,-0.4476,0.122,-0.0123,-0.0191,584,2019-08-07 17:02:30:728
-0.785,9.7678,0.5804,-0.0327,0.0505,-0.4476,0.1359,-0.024,-0.0234,588,2019-08-07 17:02:30:732
-0.6749,9.7725,0.5663,-0.1985,-0.0021,-0.4595,0.1359,-0.024,-0.0234,594,2019-08-07 17:02:30:738
-0.6749,9.7725,0.5663,-0.1985,-0.0021,-0.4595,0.1561,-0.0155,-0.0308,599,2019-08-07 17:02:30:743
-0.761,9.8776,0.4956,-0.1985,-0.0021,-0.4595,0.1561,-0.0155,-0.0308,604,2019-08-07 17:02:30:748
-0.761,9.8776,0.4956,-0.1985,-0.0021,-0.4595,0.1561,0.0271,-0.0383,609,2019-08-07 17:02:30:753
-0.761,9.8776,0.4956,-0.0985,-0.1598,-0.3595,0.1561,0.0271,-0.0383,614,2019-08-07 17:02:30:758
-0.8567,9.9301,0.3447,-0.0985,-0.1598,-0.3595,0.1561,0.0271,-0.0383,619,2019-08-07 17:02:30:763
-0.8567,9.9301,0.3447,-0.0985,-0.1598,-0.3595,0.1572,0.0633,-0.0383,624,2019-08-07 17:02:30:768
-0.8567,9.9301,0.3447,-0.0985,-0.1598,-0.3595,0.1572,0.0633,-0.0383,629,2019-08-07 17:02:30:773
-0.9572,9.9587,0.4862,0.0945,-0.146,-0.4643,0.155,0.0974,-0.0415,634,2019-08-07 17:02:30:778
-0.9572,9.9587,0.4862,0.0945,-0.146,-0.4643,0.155,0.0974,-0.0415,638,2019-08-07 17:02:30:782
-0.9859,9.9826,0.6181,0.0945,-0.146,-0.4643,0.1668,0.0857,-0.0372,644,2019-08-07 17:02:30:788
-0.9859,9.9826,0.6181,0.0945,-0.146,-0.4643,0.1668,0.0857,-0.0372,649,2019-08-07 17:02:30:793
-0.9859,9.9826,0.6181,-0.0279,-0.1943,-0.753,0.1817,0.0441,-0.0255,654,2019-08-07 17:02:30:798
-0.8136,9.9874,0.6983,-0.0279,-0.1943,-0.753,0.1817,0.0441,-0.0255,659,2019-08-07 17:02:30:803
-0.8136,9.9874,0.6983,-0.1971,-0.1467,-0.2893,0.1944,0.0409,-0.0213,664,2019-08-07 17:02:30:808
-0.6893,9.9683,-0.0229,-0.1971,-0.1467,-0.2893,0.1944,0.0409,-0.0213,668,2019-08-07 17:02:30:812
-0.6893,9.9683,-0.0229,-0.1971,-0.1467,-0.2893,0.1944,0.0409,-0.0213,674,2019-08-07 17:02:30:818
-0.6893,9.9683,-0.0229,-0.1971,-0.1467,-0.2893,0.1678,0.1283,-0.0351,679,2019-08-07 17:02:30:823
-0.6079,9.9205,0.0713,-0.268,-0.1854,-0.1139,0.1678,0.1283,-0.0351,684,2019-08-07 17:02:30:828
-0.6079,9.9205,0.0713,-0.268,-0.1854,-0.1139,0.154,0.1677,-0.0426,689,2019-08-07 17:02:30:833
-0.7562,9.9396,0.2033,-0.268,-0.1854,-0.1139,0.154,0.1677,-0.0426,693,2019-08-07 17:02:30:837
-0.7562,9.9396,0.2033,-0.268,-0.1854,-0.1139,0.1369,0.1485,-0.0383,699,2019-08-07 17:02:30:843
-0.7562,9.9396,0.2033,0.0073,-0.148,-0.2091,0.1369,0.1485,-0.0383,703,2019-08-07 17:02:30:847
-0.8997,9.8632,0.1043,0.0073,-0.148,-0.2091,0.122,0.0963,-0.0362,709,2019-08-07 17:02:30:853
-0.8997,9.8632,0.1043,0.0073,-0.148,-0.2091,0.122,0.0963,-0.0362,714,2019-08-07 17:02:30:858
-0.9237,9.7296,0.1373,0.0073,-0.148,-0.2091,0.122,0.0963,-0.0362,718,2019-08-07 17:02:30:862
-0.9237,9.7296,0.1373,-0.0286,0.0135,-0.2229,0.1071,0.0612,-0.0362,724,2019-08-07 17:02:30:868
-0.9237,9.7296,0.1373,-0.0286,0.0135,-0.2229,0.1071,0.0612,-0.0362,729,2019-08-07 17:02:30:873
-0.8567,9.825,0.0761,-0.0286,0.0135,-0.2229,0.1071,0.0612,-0.0362,733,2019-08-07 17:02:30:877
-0.8567,9.825,0.0761,-0.0286,0.0135,-0.2229,0.0879,0.0431,-0.033,739,2019-08-07 17:02:30:883
-0.8758,9.8203,-0.0182,0.0079,-0.1162,-0.1419,0.0783,0.0527,-0.0372,744,2019-08-07 17:02:30:888
-0.8758,9.8203,-0.0182,0.0079,-0.1162,-0.1419,0.0783,0.0527,-0.0372,749,2019-08-07 17:02:30:893
-0.9045,9.9348,0.1609,0.0079,-0.1162,-0.1419,0.073,0.0676,-0.0415,754,2019-08-07 17:02:30:898
-0.9045,9.9348,0.1609,0.0079,-0.1162,-0.1419,0.073,0.0676,-0.0415,760,2019-08-07 17:02:30:904
-0.9045,9.9348,0.1609,0.0079,-0.1162,-0.1419,0.073,0.0676,-0.0415,763,2019-08-07 17:02:30:907
-0.8902,9.8489,0.0383,-0.0567,-0.1075,-0.1275,0.0687,0.0633,-0.0394,769,2019-08-07 17:02:30:913
-0.8902,9.8489,0.0383,-0.0567,-0.1075,-0.1275,0.0687,0.0633,-0.0394,774,2019-08-07 17:02:30:918
-0.8902,9.8489,0.0383,-0.0567,-0.1075,-0.1275,0.0549,0.0718,-0.0372,778,2019-08-07 17:02:30:922
-1.005,9.8967,-0.0465,0.0793,-0.0606,-0.1113,0.0453,0.0772,-0.034,784,2019-08-07 17:02:30:928
-1.005,9.8967,-0.0465,0.0793,-0.0606,-0.1113,0.0453,0.0772,-0.034,788,2019-08-07 17:02:30:932
-1.048,9.8394,0.1656,0.0793,-0.0606,-0.1113,0.0453,0.0772,-0.034,794,2019-08-07 17:02:30:938
-1.048,9.8394,0.1656,0.0793,-0.0606,-0.1113,0.0421,0.0452,-0.0287,799,2019-08-07 17:02:30:943
-1.048,9.8394,0.1656,0.0793,-0.0606,-0.1113,0.0421,0.0452,-0.0287,804,2019-08-07 17:02:30:948
-1.0193,9.8871,0.2929,0.0774,-0.1234,-0.4291,0.0421,0.0026,-0.0255,810,2019-08-07 17:02:30:954
-1.0193,9.8871,0.2929,0.0774,-0.1234,-0.4291,0.0421,0.0026,-0.0255,814,2019-08-07 17:02:30:958
-0.8997,9.8967,0.1751,0.0774,-0.1234,-0.4291,0.0453,-0.023,-0.0159,818,2019-08-07 17:02:30:962
-0.8997,9.8967,0.1751,0.0774,-0.1234,-0.4291,0.0453,-0.023,-0.0159,824,2019-08-07 17:02:30:968
-0.8997,9.8967,0.1751,-0.1268,-0.162,-0.2605,0.0453,-0.0198,-0.0149,829,2019-08-07 17:02:30:973
-0.7945,9.9348,0.1468,-0.1268,-0.162,-0.2605,0.0453,-0.0198,-0.0149,833,2019-08-07 17:02:30:977
-0.7945,9.9348,0.1468,-0.1268,-0.162,-0.2605,0.0421,-0.0017,-0.0127,839,2019-08-07 17:02:30:983
-0.804,9.8919,0.2316,-0.1268,-0.162,-0.2605,0.0421,-0.0017,-0.0127,844,2019-08-07 17:02:30:988
-0.804,9.8919,0.2316,-0.0949,-0.2052,-0.3417,0.0411,0.0164,-0.0127,848,2019-08-07 17:02:30:992
-0.804,9.8919,0.2316,-0.0949,-0.2052,-0.3417,0.0411,0.0164,-0.0127,854,2019-08-07 17:02:30:998
-0.8806,9.973,0.1798,-0.0949,-0.2052,-0.3417,0.0432,0.0218,-0.0191,859,2019-08-07 17:02:31:003
-0.8806,9.973,0.1798,-0.0949,-0.2052,-0.3417,0.0432,0.0218,-0.0191,864,2019-08-07 17:02:31:008
-0.938,9.8298,0.1185,-0.0494,-0.1196,-0.2539,0.0474,0.0132,-0.0127,868,2019-08-07 17:02:31:012
-0.938,9.8298,0.1185,-0.0494,-0.1196,-0.2539,0.0474,0.0132,-0.0127,874,2019-08-07 17:02:31:018
-0.938,9.8298,0.1185,-0.0494,-0.1196,-0.2539,0.0453,0.0111,-0.0138,878,2019-08-07 17:02:31:022
-0.9858,9.8871,0.0336,-0.0494,-0.1196,-0.2539,0.0453,0.0111,-0.0138,884,2019-08-07 17:02:31:028
-0.9858,9.8871,0.0336,-0.028,-0.1152,-0.2656,0.0368,0.0079,-0.0095,888,2019-08-07 17:02:31:032
-0.9236,9.8776,0.1751,-0.028,-0.1152,-0.2656,0.0368,0.0079,-0.0095,894,2019-08-07 17:02:31:038
-0.9236,9.8776,0.1751,-0.0289,-0.101,-0.3672,0.0442,-0.0113,-0.0106,899,2019-08-07 17:02:31:043
-0.9236,9.8776,0.1751,-0.0289,-0.101,-0.3672,0.0442,-0.0113,-0.0106,904,2019-08-07 17:02:31:048
-0.8518,9.8728,0.1468,-0.0289,-0.101,-0.3672,0.0432,-0.0283,-0.0085,909,2019-08-07 17:02:31:053
-0.8518,9.8728,0.1468,-0.0289,-0.101,-0.3672,0.0432,-0.0283,-0.0085,914,2019-08-07 17:02:31:058
-0.804,9.8966,0.1468,-0.1928,-0.1298,-0.2548,0.0432,-0.0283,-0.0085,919,2019-08-07 17:02:31:063
-0.804,9.8966,0.1468,-0.1928,-0.1298,-0.2548,0.0379,-0.023,-0.0074,923,2019-08-07 17:02:31:067
-0.804,9.8966,0.1468,-0.1928,-0.1298,-0.2548,0.0379,-0.023,-0.0074,929,2019-08-07 17:02:31:073
-0.8327,9.9539,-0.0276,-0.1928,-0.1298,-0.2548,0.0336,-6.0E-4,-0.0106,934,2019-08-07 17:02:31:078
-0.8327,9.9539,-0.0276,-0.1263,-0.2016,-0.1139,0.0336,-6.0E-4,-0.0106,939,2019-08-07 17:02:31:083
-0.8327,9.9539,-0.0276,-0.1263,-0.2016,-0.1139,0.0219,0.0186,-0.0159,944,2019-08-07 17:02:31:088
-0.8949,9.9348,0.0054,-0.1263,-0.2016,-0.1139,0.0219,0.0186,-0.0159,949,2019-08-07 17:02:31:093
-0.8949,9.9348,0.0054,-0.1263,-0.2016,-0.1139,0.0208,0.0164,-0.0106,954,2019-08-07 17:02:31:098
-1.0862,9.8728,0.0336,0.1295,-0.1112,-0.211,0.0208,0.0164,-0.0106,959,2019-08-07 17:02:31:103
-1.0862,9.8728,0.0336,0.1295,-0.1112,-0.211,0.0102,-0.0081,-0.0074,964,2019-08-07 17:02:31:108
-1.0336,9.8823,0.1751,0.1295,-0.1112,-0.211,0.0102,-0.0081,-0.0074,969,2019-08-07 17:02:31:113
-1.0336,9.8823,0.1751,0.1295,-0.1112,-0.211,0.0102,-0.0081,-0.0074,973,2019-08-07 17:02:31:117
-1.0336,9.8823,0.1751,-0.0115,-0.1209,-0.3428,0.0134,-0.0294,-0.0085,979,2019-08-07 17:02:31:123
-0.9236,9.8776,0.1279,-0.0115,-0.1209,-0.3428,0.0134,-0.0294,-0.0085,983,2019-08-07 17:02:31:127
-0.9236,9.8776,0.1279,-0.0115,-0.1209,-0.3428,0.0112,-0.0453,-0.0042,989,2019-08-07 17:02:31:133
-0.9236,9.8776,0.1279,-0.0115,-0.1209,-0.3428,0.0112,-0.0453,-0.0042,994,2019-08-07 17:02:31:138
-0.804,9.8585,-0.0323,-0.1268,-0.078,-0.173,0.0059,-0.023,-0.0095,998,2019-08-07 17:02:31:142
-0.804,9.8585,-0.0323,-0.1268,-0.078,-0.173,0.0059,-0.023,-0.0095,1003,2019-08-07 17:02:31:147
-0.7992,9.9444,0.0525,-0.1268,-0.078,-0.173,-0.0037,0.0015,-0.0149,1009,2019-08-07 17:02:31:153
-0.7992,9.9444,0.0525,-0.1268,-0.078,-0.173,-0.0037,0.0015,-0.0149,1014,2019-08-07 17:02:31:158
-0.7992,9.9444,0.0525,-0.09,-0.1354,-0.2273,-0.0037,0.0015,-0.0149,1018,2019-08-07 17:02:31:162
-0.9236,9.9301,0.0148,-0.09,-0.1354,-0.2273,-0.0069,0.0175,-0.0181,1024,2019-08-07 17:02:31:168
-0.9236,9.9301,0.0148,-0.09,-0.1354,-0.2273,-0.0069,0.0175,-0.0181,1029,2019-08-07 17:02:31:173
-0.9236,9.9301,0.0148,-0.09,-0.1354,-0.2273,-0.0101,0.0186,-0.0191,1034,2019-08-07 17:02:31:178
-0.9618,9.8489,0.0949,-0.0266,-0.107,-0.2712,-0.0101,0.0186,-0.0191,1039,2019-08-07 17:02:31:183
-0.9618,9.8489,0.0949,-0.0266,-0.107,-0.2712,-0.0101,0.0015,-0.0202,1044,2019-08-07 17:02:31:188
-0.9666,9.868,0.1845,-0.0266,-0.107,-0.2712,-0.0101,0.0015,-0.0202,1050,2019-08-07 17:02:31:194
-0.9666,9.868,0.1845,-0.0266,-0.107,-0.2712,-0.0101,0.0015,-0.0202,1054,2019-08-07 17:02:31:198
-0.9666,9.868,0.1845,-0.0636,-0.155,-0.3418,-0.0048,-0.0219,-0.0202,1059,2019-08-07 17:02:31:203
-0.8757,9.868,0.2316,-0.0636,-0.155,-0.3418,-0.0048,-0.0219,-0.0202,1064,2019-08-07 17:02:31:208
-0.8757,9.868,0.2316,-0.0636,-0.155,-0.3418,-0.0026,-0.023,-0.017,1068,2019-08-07 17:02:31:212
-0.8279,9.8489,0.1515,-0.0636,-0.155,-0.3418,-0.0026,-0.023,-0.017,1074,2019-08-07 17:02:31:218
-0.8279,9.8489,0.1515,-0.0997,-0.0598,-0.244,-5.0E-4,-0.0134,-0.0223,1079,2019-08-07 17:02:31:223
-0.8279,9.8489,0.1515,-0.0997,-0.0598,-0.244,-5.0E-4,-0.0134,-0.0223,1083,2019-08-07 17:02:31:227
-0.8996,9.8775,0.1232,-0.0997,-0.0598,-0.244,-0.0058,-0.0017,-0.0213,1089,2019-08-07 17:02:31:233
-0.8996,9.8775,0.1232,-0.0997,-0.0598,-0.244,-0.0058,-0.0017,-0.0213,1094,2019-08-07 17:02:31:238
-0.957,9.8441,0.1279,-0.0169,-0.0839,-0.2877,-0.0048,0.0026,-0.0202,1099,2019-08-07 17:02:31:243
-0.957,9.8441,0.1279,-0.0169,-0.0839,-0.2877,-0.0048,0.0026,-0.0202,1104,2019-08-07 17:02:31:248
-0.957,9.8441,0.1279,-0.0169,-0.0839,-0.2877,-5.0E-4,-0.0027,-0.0213,1109,2019-08-07 17:02:31:253
-0.901,9.7965,0.1041,-0.0169,-0.0839,-0.2877,-5.0E-4,-0.0027,-0.0213,1114,2019-08-07 17:02:31:258
-0.901,9.7965,0.1041,-0.0474,-0.0413,-0.2427,0.0016,-0.0113,-0.0181,1119,2019-08-07 17:02:31:263
-0.901,9.7965,0.1041,-0.0474,-0.0413,-0.2427,0.0016,-0.0113,-0.0181,1124,2019-08-07 17:02:31:268
-0.9297,9.7679,0.1606,-0.0474,-0.0413,-0.2427,0.0059,-0.0134,-0.017,1129,2019-08-07 17:02:31:273
-0.9297,9.7679,0.1606,-0.0474,-0.0413,-0.2427,0.0059,-0.0134,-0.017,1135,2019-08-07 17:02:31:279
-0.9297,9.7679,0.1606,-0.0474,-0.0413,-0.2427,0.0123,-0.0113,-0.0117,1138,2019-08-07 17:02:31:282
-0.9297,9.744,0.1889,-0.05,0.0157,-0.345,0.0123,-0.0113,-0.0117,1144,2019-08-07 17:02:31:288
-0.9297,9.744,0.1889,-0.05,0.0157,-0.345,0.0208,-0.0059,-0.0095,1149,2019-08-07 17:02:31:293
-0.9584,9.7154,0.1889,-0.05,0.0157,-0.345,0.0208,-0.0059,-0.0095,1154,2019-08-07 17:02:31:298
-0.9584,9.7154,0.1889,-0.05,0.0157,-0.345,0.0208,-0.0059,-0.0095,1159,2019-08-07 17:02:31:303
-0.9584,9.7154,0.1889,0.0437,0.0584,-0.4406,0.0304,0.0101,-0.0095,1164,2019-08-07 17:02:31:308
-0.9967,9.7822,0.2691,0.0437,0.0584,-0.4406,0.0304,0.0101,-0.0095,1169,2019-08-07 17:02:31:313
-0.9967,9.7822,0.2691,0.0437,0.0584,-0.4406,0.0357,0.0282,-0.0053,1173,2019-08-07 17:02:31:317
-0.9776,9.8729,0.2313,0.0437,0.0584,-0.4406,0.0357,0.0282,-0.0053,1179,2019-08-07 17:02:31:323
-0.9776,9.8729,0.2313,-0.0483,-0.1518,-0.3553,0.0443,0.0239,0.0,1184,2019-08-07 17:02:31:328
-0.9776,9.8729,0.2313,-0.0483,-0.1518,-0.3553,0.0443,0.0239,0.0,1188,2019-08-07 17:02:31:332
-1.0302,9.8443,-0.0232,-0.0483,-0.1518,-0.3553,0.0496,0.0303,0.0011,1194,2019-08-07 17:02:31:338
-1.0302,9.8443,-0.0232,-0.0483,-0.1518,-0.3553,0.0496,0.0303,0.0011,1199,2019-08-07 17:02:31:343
-1.0302,9.8443,-0.0232,0.0665,-0.0087,-0.1517,0.0496,0.0303,0.0011,1204,2019-08-07 17:02:31:348
-1.0637,9.682,0.0239,0.0665,-0.0087,-0.1517,0.0464,0.0399,0.0054,1209,2019-08-07 17:02:31:353
-1.0637,9.682,0.0239,0.0665,-0.0087,-0.1517,0.0464,0.0399,0.0054,1214,2019-08-07 17:02:31:358
-1.1451,9.6533,-0.0232,0.0665,-0.0087,-0.1517,0.0485,0.0239,0.0118,1218,2019-08-07 17:02:31:362
-1.1451,9.6533,-0.0232,0.2058,0.1201,-0.1699,0.0485,0.0239,0.0118,1224,2019-08-07 17:02:31:368
-1.1451,9.6533,-0.0232,0.2058,0.1201,-0.1699,0.056,0.009,0.0192,1229,2019-08-07 17:02:31:373
-1.0877,9.7202,0.1088,0.2058,0.1201,-0.1699,0.056,0.009,0.0192,1234,2019-08-07 17:02:31:378
-1.0877,9.7202,0.1088,0.2058,0.1201,-0.1699,0.0762,-0.023,0.0245,1238,2019-08-07 17:02:31:382
-0.9681,9.7297,0.3775,-0.0105,0.0295,-0.5658,0.0762,-0.023,0.0245,1244,2019-08-07 17:02:31:388
-0.9681,9.7297,0.3775,-0.0105,0.0295,-0.5658,0.0901,-0.0315,0.0192,1250,2019-08-07 17:02:31:394
-0.9681,9.7297,0.3775,-0.0105,0.0295,-0.5658,0.0901,-0.0315,0.0192,1254,2019-08-07 17:02:31:398
-0.4801,9.9254,0.5236,-0.0105,0.0295,-0.5658,0.0901,-0.0315,0.0192,1258,2019-08-07 17:02:31:402
-0.4801,9.9254,0.5236,-0.679,-0.2231,-0.6649,0.1284,-0.0091,0.0032,1264,2019-08-07 17:02:31:408
-0.2505,9.9541,0.4293,-0.679,-0.2231,-0.6649,0.1284,-0.0091,0.0032,1270,2019-08-07 17:02:31:414
-0.2505,9.9541,0.4293,-0.679,-0.2231,-0.6649,0.1614,0.1208,-0.0234,1274,2019-08-07 17:02:31:418
-0.2505,9.9541,0.4293,-0.679,-0.2231,-0.6649,0.1614,0.1208,-0.0234,1279,2019-08-07 17:02:31:423
-0.1835,9.9636,0.6367,-0.7341,-0.1997,-0.9047,0.1976,0.2284,-0.0458,1284,2019-08-07 17:02:31:428
-0.1835,9.9636,0.6367,-0.7341,-0.1997,-0.9047,0.1976,0.2284,-0.0458,1289,2019-08-07 17:02:31:433
-0.2888,9.8156,1.2306,-0.7341,-0.1997,-0.9047,0.2445,0.32,-0.0692,1294,2019-08-07 17:02:31:438
-0.2888,9.8156,1.2306,-0.7341,-0.1997,-0.9047,0.2445,0.32,-0.0692,1299,2019-08-07 17:02:31:443
-0.2888,9.8156,1.2306,-0.8595,-0.2968,-2.0822,0.3393,0.3286,-0.1033,1304,2019-08-07 17:02:31:448
0.0748,10.1784,2.0226,-0.8595,-0.2968,-2.0822,0.3393,0.3286,-0.1033,1309,2019-08-07 17:02:31:453
0.0748,10.1784,2.0226,-0.8595,-0.2968,-2.0822,0.3393,0.3286,-0.1033,1314,2019-08-07 17:02:31:458
0.4193,10.1975,1.7727,-0.8595,-0.2968,-2.0822,0.4778,0.2561,-0.1289,1320,2019-08-07 17:02:31:464
0.4193,10.1975,1.7727,-1.4319,-0.3911,-1.9997,0.4778,0.2561,-0.1289,1324,2019-08-07 17:02:31:468
0.4193,10.1975,1.7727,-1.4319,-0.3911,-1.9997,0.6003,0.2572,-0.1811,1329,2019-08-07 17:02:31:473
0.3714,9.9398,1.669,-1.4319,-0.3911,-1.9997,0.6003,0.2572,-0.1811,1333,2019-08-07 17:02:31:477
0.3714,9.9398,1.669,-1.4319,-0.3911,-1.9997,0.7218,0.4319,-0.2322,1339,2019-08-07 17:02:31:483
0.3714,9.9398,1.669,-1.2441,-0.3846,-2.6063,0.7218,0.4319,-0.2322,1344,2019-08-07 17:02:31:488
0.2996,10.1689,2.3148,-1.2441,-0.3846,-2.6063,0.7974,0.5118,-0.2535,1349,2019-08-07 17:02:31:493
0.2996,10.1689,2.3148,-1.2441,-0.3846,-2.6063,0.7974,0.5118,-0.2535,1354,2019-08-07 17:02:31:498
0.2996,10.1689,2.3148,-1.2441,-0.3846,-2.6063,0.7974,0.5118,-0.2535,1359,2019-08-07 17:02:31:503
0.5676,11.095,3.3613,-1.5891,-1.935,-3.9835,0.9881,0.4788,-0.3089,1364,2019-08-07 17:02:31:508
0.5676,11.095,3.3613,-1.5891,-1.935,-3.9835,0.9881,0.4788,-0.3089,1369,2019-08-07 17:02:31:513
0.1992,12.6608,2.6589,-1.5891,-1.935,-3.9835,1.1926,0.4425,-0.3366,1373,2019-08-07 17:02:31:517
0.1992,12.6608,2.6589,-1.5891,-1.935,-3.9835,1.1926,0.4425,-0.3366,1380,2019-08-07 17:02:31:524
0.1992,12.6608,2.6589,-1.1274,-4.3541,-3.7091,1.314,0.6066,-0.3707,1383,2019-08-07 17:02:31:527
0.0221,14.599,3.1586,-1.1274,-4.3541,-3.7091,1.314,0.6066,-0.3707,1389,2019-08-07 17:02:31:533
0.0221,14.599,3.1586,-1.1274,-4.3541,-3.7091,1.4291,0.8729,-0.4612,1393,2019-08-07 17:02:31:537
-0.0736,17.153,4.9734,-1.1274,-4.3541,-3.7091,1.4291,0.8729,-0.4612,1399,2019-08-07 17:02:31:543
-0.0736,17.153,4.9734,-0.3833,-9.227,-6.5222,1.4291,0.8729,-0.4612,1405,2019-08-07 17:02:31:549
-0.2745,19.5733,5.5108,-0.3833,-9.227,-6.5222,1.8147,1.1723,-0.605,1409,2019-08-07 17:02:31:553
-0.2745,19.5733,5.5108,-0.3833,-9.227,-6.5222,1.8147,1.1723,-0.605,1414,2019-08-07 17:02:31:558
-0.2745,19.5733,5.5108,-1.4757,-11.2074,-6.9247,2.0704,1.2042,-0.5816,1419,2019-08-07 17:02:31:563
-0.2793,24.118,5.671,-1.4757,-11.2074,-6.9247,2.0704,1.2042,-0.5816,1424,2019-08-07 17:02:31:568
-0.2793,24.118,5.671,-1.4757,-11.2074,-6.9247,2.4432,1.7049,-0.6615,1429,2019-08-07 17:02:31:573
-0.2793,24.118,5.671,0.8746,-16.1645,-7.8869,2.4432,1.7049,-0.6615,1434,2019-08-07 17:02:31:578
-2.5758,25.9941,6.6421,0.8746,-16.1645,-7.8869,2.5114,2.2407,-0.5614,1438,2019-08-07 17:02:31:582
-2.5758,25.9941,6.6421,0.8746,-16.1645,-7.8869,2.5114,2.2407,-0.5614,1444,2019-08-07 17:02:31:588
-4.5325,26.3426,11.832,0.8746,-16.1645,-7.8869,2.4145,2.1811,-0.3366,1449,2019-08-07 17:02:31:593
-4.5325,26.3426,11.832,4.6003,-16.9118,-16.6316,2.4145,2.1811,-0.3366,1454,2019-08-07 17:02:31:598
-4.5325,26.3426,11.832,4.6003,-16.9118,-16.6316,2.3612,0.5161,-0.0617,1459,2019-08-07 17:02:31:603
-6.9103,25.6934,14.7545,4.6003,-16.9118,-16.6316,2.3612,0.5161,-0.0617,1464,2019-08-07 17:02:31:608
-6.9103,25.6934,14.7545,5.8041,-15.9997,-17.3409,2.3612,0.5161,-0.0617,1469,2019-08-07 17:02:31:613
-6.9103,25.6934,14.7545,5.8041,-15.9997,-17.3409,2.3953,-1.6251,0.0522,1474,2019-08-07 17:02:31:618
-5.9009,20.8241,0.1606,5.8041,-15.9997,-17.3409,2.3953,-1.6251,0.0522,1479,2019-08-07 17:02:31:623
-5.9009,20.8241,0.1606,2.3721,-12.0666,4.7166,2.2089,-2.7618,0.0256,1484,2019-08-07 17:02:31:628
-2.327,22.2276,-7.9,2.3721,-12.0666,4.7166,2.2089,-2.7618,0.0256,1489,2019-08-07 17:02:31:633
-2.327,22.2276,-7.9,2.3721,-12.0666,4.7166,2.3985,-2.1418,0.0309,1494,2019-08-07 17:02:31:638
-2.327,22.2276,-7.9,2.3721,-12.0666,4.7166,2.3985,-2.1418,0.0309,1499,2019-08-07 17:02:31:643
-0.0258,24.7864,-10.0071,2.3721,-12.0666,4.7166,2.8225,-2.0214,0.3281,1504,2019-08-07 17:02:31:648
-0.0258,24.7864,-10.0071,-0.7052,-15.5907,10.1829,2.8225,-2.0214,0.3281,1508,2019-08-07 17:02:31:652
-1.6668,23.001,-18.5627,-0.7052,-15.5907,10.1829,2.897,-1.7817,0.6126,1514,2019-08-07 17:02:31:658
-1.6668,23.001,-18.5627,-0.7052,-15.5907,10.1829,2.897,-1.7817,0.6126,1520,2019-08-07 17:02:31:664
-1.6668,23.001,-18.5627,-0.7052,-15.5907,10.1829,2.0533,-0.1998,0.8821,1524,2019-08-07 17:02:31:668
0.8592,23.2062,-19.6186,-2.2771,-14.2373,15.9058,2.0533,-0.1998,0.8821,1529,2019-08-07 17:02:31:673
0.8592,23.2062,-19.6186,-2.2771,-14.2373,15.9058,1.5889,1.2756,0.6648,1534,2019-08-07 17:02:31:678
0.8592,23.2062,-19.6186,-2.2771,-14.2373,15.9058,1.5889,1.2756,0.6648,1539,2019-08-07 17:02:31:683
-4.0733,19.1389,-13.9149,-2.2771,-14.2373,15.9058,0.2435,1.6538,0.3644,1544,2019-08-07 17:02:31:688
-4.0733,19.1389,-13.9149,4.4138,-9.8796,3.2021,0.2435,1.6538,0.3644,1549,2019-08-07 17:02:31:693
-7.2884,18.9002,12.8548,4.4138,-9.8796,3.2021,0.5971,0.335,0.4805,1554,2019-08-07 17:02:31:698
-7.2884,18.9002,12.8548,4.4138,-9.8796,3.2021,0.5971,0.335,0.4805,1558,2019-08-07 17:02:31:702
-6.2358,14.3317,-9.5593,4.4138,-9.8796,3.2021,1.6816,0.9283,0.6999,1564,2019-08-07 17:02:31:708
-6.2358,14.3317,-9.5593,4.1162,-5.0859,6.0203,1.6816,0.9283,0.6999,1569,2019-08-07 17:02:31:713
-6.2358,14.3317,-9.5593,4.1162,-5.0859,6.0203,1.6816,0.9283,0.6999,1573,2019-08-07 17:02:31:717
-2.1597,12.4986,-11.0206,4.1162,-5.0859,6.0203,2.1812,0.4713,0.7521,1579,2019-08-07 17:02:31:723
-2.1597,12.4986,-11.0206,4.1162,-5.0859,6.0203,2.1812,0.4713,0.7521,1584,2019-08-07 17:02:31:728
-3.8581,10.8611,-17.422,2.6197,-2.7893,11.9001,0.6536,-1.8765,0.5753,1590,2019-08-07 17:02:31:734
-3.8581,10.8611,-17.422,2.6197,-2.7893,11.9001,0.6536,-1.8765,0.5753,1593,2019-08-07 17:02:31:737
-3.8581,10.8611,-17.422,2.6197,-2.7893,11.9001,0.1039,-1.2725,0.4134,1599,2019-08-07 17:02:31:743
-3.2075,8.6938,-15.3997,2.6197,-2.7893,11.9001,0.1039,-1.2725,0.4134,1604,2019-08-07 17:02:31:748
-3.2075,8.6938,-15.3997,1.6902,1.5681,6.0922,0.1039,-1.2725,0.4134,1608,2019-08-07 17:02:31:752
-3.2075,8.6938,-15.3997,1.6902,1.5681,6.0922,-0.0964,1.495,0.4964,1614,2019-08-07 17:02:31:758
0.175,6.9371,-6.2125,1.6902,1.5681,6.0922,-0.0964,1.495,0.4964,1619,2019-08-07 17:02:31:763
0.175,6.9371,-6.2125,1.6902,1.5681,6.0922,-0.4617,1.6687,0.3665,1624,2019-08-07 17:02:31:768
0.175,6.9371,-6.2125,0.0342,4.5951,5.0147,-0.4617,1.6687,0.3665,1629,2019-08-07 17:02:31:773
-1.6861,3.9248,-9.8657,0.0342,4.5951,5.0147,-0.6109,1.3608,0.081,1634,2019-08-07 17:02:31:778
-1.6861,3.9248,-9.8657,0.0342,4.5951,5.0147,-0.6109,1.3608,0.081,1639,2019-08-07 17:02:31:783
-4.7289,3.9582,-6.5095,0.0342,4.5951,5.0147,-0.9869,0.7621,0.0256,1644,2019-08-07 17:02:31:788
-4.7289,3.9582,-6.5095,3.8806,5.6845,3.5486,-0.9869,0.7621,0.0256,1650,2019-08-07 17:02:31:794
-4.7289,3.9582,-6.5095,3.8806,5.6845,3.5486,-1.2575,0.2998,0.1481,1654,2019-08-07 17:02:31:798
-2.3607,1.5808,-4.4496,3.8806,5.6845,3.5486,-1.2575,0.2998,0.1481,1659,2019-08-07 17:02:31:803
-2.3607,1.5808,-4.4496,3.8806,5.6845,3.5486,-1.2117,0.7185,0.0842,1664,2019-08-07 17:02:31:808
-0.2987,0.2394,-7.754,0.2416,8.3695,3.997,-1.2117,0.7185,0.0842,1669,2019-08-07 17:02:31:813
-0.2987,0.2394,-7.754,0.2416,8.3695,3.997,-1.2117,0.7185,0.0842,1674,2019-08-07 17:02:31:818
-0.2987,0.2394,-7.754,-0.4587,9.4819,3.4362,-1.6474,0.5736,-0.0266,1679,2019-08-07 17:02:31:823
-0.1313,-1.4171,-7.1459,-0.4587,9.4819,3.4362,-1.6474,0.5736,-0.0266,1684,2019-08-07 17:02:31:828
-0.1313,-1.4171,-7.1459,-0.4587,9.4819,3.4362,-1.8796,0.9464,-0.1693,1689,2019-08-07 17:02:31:833
-0.1313,-1.4171,-7.1459,-0.4587,9.4819,3.4362,-1.8796,0.9464,-0.1693,1694,2019-08-07 17:02:31:838
-0.7532,-2.5246,-5.2415,0.4141,11.7611,1.3012,-1.9957,0.89,-0.278,1700,2019-08-07 17:02:31:844
-0.7532,-2.5246,-5.2415,0.4141,11.7611,1.3012,-1.9957,0.89,-0.278,1703,2019-08-07 17:02:31:847
-0.9159,-3.9234,-4.7654,0.3831,12.9456,0.9506,-2.0586,0.9027,-0.2961,1709,2019-08-07 17:02:31:853
-0.9159,-3.9234,-4.7654,0.3831,12.9456,0.9506,-2.0586,0.9027,-0.2961,1715,2019-08-07 17:02:31:859
-0.9159,-3.9234,-4.7654,0.3831,12.9456,0.9506,-2.098,0.8463,-0.3238,1719,2019-08-07 17:02:31:863
-0.4662,-5.5608,-3.7755,0.3831,12.9456,0.9506,-2.098,0.8463,-0.3238,1724,2019-08-07 17:02:31:868
-0.4662,-5.5608,-3.7755,-0.186,15.401,-0.042,-2.082,0.8207,-0.3707,1729,2019-08-07 17:02:31:873
-0.4662,-5.5608,-3.7755,-0.186,15.401,-0.042,-2.082,0.8207,-0.3707,1734,2019-08-07 17:02:31:878
-0.2701,-7.2841,-2.5405,-0.186,15.401,-0.042,-2.082,0.8207,-0.3707,1739,2019-08-07 17:02:31:883
-0.2701,-7.2841,-2.5405,-0.186,15.401,-0.042,-1.9776,0.7461,-0.4165,1744,2019-08-07 17:02:31:888
-0.2605,-8.8786,-1.4092,-0.3061,18.1423,-1.7688,-1.9776,0.7461,-0.4165,1750,2019-08-07 17:02:31:894
-0.2605,-8.8786,-1.4092,-0.3061,18.1423,-1.7688,-1.7805,0.6503,-0.4378,1754,2019-08-07 17:02:31:898
-0.2605,-8.8786,-1.4092,-0.3061,18.1423,-1.7688,-1.7805,0.6503,-0.4378,1759,2019-08-07 17:02:31:903
-0.1026,-9.9145,-0.8812,-0.3061,18.1423,-1.7688,-1.6666,0.5555,-0.4442,1764,2019-08-07 17:02:31:908
-0.1026,-9.9145,-0.8812,-0.5393,19.8659,-2.7616,-1.6666,0.5555,-0.4442,1769,2019-08-07 17:02:31:913
-0.1026,-9.9145,-0.8812,-0.5393,19.8659,-2.7616,-1.6666,0.5555,-0.4442,1774,2019-08-07 17:02:31:918
-0.0165,-10.8979,0.712,-0.5393,19.8659,-2.7616,-1.4279,0.3488,-0.3994,1779,2019-08-07 17:02:31:923
-0.0165,-10.8979,0.712,-0.5393,19.8659,-2.7616,-1.4279,0.3488,-0.3994,1784,2019-08-07 17:02:31:928
0.1413,-11.4039,1.3531,-0.8168,20.8231,-4.0101,-1.0551,0.1326,-0.2673,1789,2019-08-07 17:02:31:933
0.1413,-11.4039,1.3531,-0.8168,20.8231,-4.0101,-1.0551,0.1326,-0.2673,1794,2019-08-07 17:02:31:938
0.1413,-11.4039,1.3531,-0.8168,20.8231,-4.0101,-0.7377,-0.0443,-0.1321,1799,2019-08-07 17:02:31:943
0.4475,-11.5233,1.5605,-0.8168,20.8231,-4.0101,-0.7377,-0.0443,-0.1321,1804,2019-08-07 17:02:31:948
0.4475,-11.5233,1.5605,-0.8168,20.8231,-4.0101,-0.7377,-0.0443,-0.1321,1809,2019-08-07 17:02:31:953
0.4475,-11.5233,1.5605,-1.2094,20.9554,-4.046,-0.4223,-0.1806,-0.0223,1813,2019-08-07 17:02:31:957
0.3566,-11.4517,1.5275,-1.2094,20.9554,-4.046,-0.4223,-0.1806,-0.0223,1819,2019-08-07 17:02:31:963
0.3566,-11.4517,1.5275,-1.2094,20.9554,-4.046,0.0741,-0.2978,0.1343,1824,2019-08-07 17:02:31:968
0.3566,-11.4517,1.5275,-1.2094,20.9554,-4.046,0.0741,-0.2978,0.1343,1829,2019-08-07 17:02:31:973
-0.1745,-10.8263,1.5322,-0.5305,20.2788,-4.0601,0.4299,-0.399,0.2227,1834,2019-08-07 17:02:31:978
-0.1745,-10.8263,1.5322,-0.5305,20.2788,-4.0601,0.4299,-0.399,0.2227,1838,2019-08-07 17:02:31:982
-0.7582,-9.8429,1.0891,-0.5305,20.2788,-4.0601,0.7878,-0.5162,0.3015,1844,2019-08-07 17:02:31:988
-0.7582,-9.8429,1.0891,0.1657,18.6929,-3.4543,0.7878,-0.5162,0.3015,1850,2019-08-07 17:02:31:994
-0.7582,-9.8429,1.0891,0.1657,18.6929,-3.4543,0.7878,-0.5162,0.3015,1854,2019-08-07 17:02:31:998
-0.7582,-9.8429,1.0891,0.1657,18.6929,-3.4543,1.2118,-0.6206,0.4006,1859,2019-08-07 17:02:32:003
-0.7247,-8.6542,0.1134,0.1657,18.6929,-3.4543,1.5047,-0.6749,0.4549,1865,2019-08-07 17:02:32:009
-0.7247,-8.6542,0.1134,0.1657,18.6929,-3.4543,1.5047,-0.6749,0.4549,1869,2019-08-07 17:02:32:013
-0.586,-7.3892,-1.0085,-0.0462,16.912,-2.0414,1.5047,-0.6749,0.4549,1874,2019-08-07 17:02:32:018
-0.586,-7.3892,-1.0085,-0.0462,16.912,-2.0414,1.7561,-0.7239,0.5082,1879,2019-08-07 17:02:32:023
-0.586,-7.3892,-1.0085,-0.0462,16.912,-2.0414,1.7561,-0.7239,0.5082,1884,2019-08-07 17:02:32:028
-0.4616,-6.3055,-1.1877,-0.1465,15.1051,-2.0837,2.0331,-0.7761,0.5881,1890,2019-08-07 17:02:32:034
-0.4616,-6.3055,-1.1877,-0.1465,15.1051,-2.0837,2.0331,-0.7761,0.5881,1894,2019-08-07 17:02:32:038
-0.5142,-5.1216,-1.5931,-0.1465,15.1051,-2.0837,2.1865,-0.8315,0.6275,1899,2019-08-07 17:02:32:043
-0.5142,-5.1216,-1.5931,-0.1465,15.1051,-2.0837,2.1865,-0.8315,0.6275,1904,2019-08-07 17:02:32:048
-0.5142,-5.1216,-1.5931,-0.1465,15.1051,-2.0837,2.1865,-0.8315,0.6275,1908,2019-08-07 17:02:32:052
-0.6243,-4.2193,-2.1116,0.0564,13.2718,-1.6255,2.2376,-0.8752,0.6435,1914,2019-08-07 17:02:32:058
-0.6243,-4.2193,-2.1116,0.0564,13.2718,-1.6255,2.2632,-0.9551,0.6392,1919,2019-08-07 17:02:32:063
-0.6243,-4.2193,-2.1116,0.0564,13.2718,-1.6255,2.2632,-0.9551,0.6392,1924,2019-08-07 17:02:32:068
-0.8826,-3.3887,-2.3567,0.0564,13.2718,-1.6255,2.2632,-0.9551,0.6392,1928,2019-08-07 17:02:32:072
-0.8826,-3.3887,-2.3567,0.3603,12.024,-1.3262,2.2792,-1.0659,0.6392,1935,2019-08-07 17:02:32:079
-0.6865,-2.9209,-3.5022,0.3603,12.024,-1.3262,2.2792,-1.0659,0.6392,1939,2019-08-07 17:02:32:083
-0.6865,-2.9209,-3.5022,0.0738,11.4539,-0.6683,2.2035,-1.1735,0.62,1944,2019-08-07 17:02:32:088
-0.6865,-2.9209,-3.5022,0.0738,11.4539,-0.6683,2.2035,-1.1735,0.62,1949,2019-08-07 17:02:32:093
-0.342,-2.095,-4.8173,0.0738,11.4539,-0.6683,2.0406,-1.2086,0.57,1954,2019-08-07 17:02:32:098
-0.342,-2.095,-4.8173,0.0738,11.4539,-0.6683,2.0406,-1.2086,0.57,1959,2019-08-07 17:02:32:103
-0.0741,-1.293,-5.5951,-0.4847,9.8042,0.7492,1.8797,-1.166,0.5146,1964,2019-08-07 17:02:32:108
-0.0741,-1.293,-5.5951,-0.4847,9.8042,0.7492,1.8797,-1.166,0.5146,1969,2019-08-07 17:02:32:113
-0.0741,-1.293,-5.5951,-0.4847,9.8042,0.7492,1.8797,-1.166,0.5146,1974,2019-08-07 17:02:32:118
-0.4378,0.9841,-7.0564,-0.4847,9.8042,0.7492,1.575,-1.0509,0.4304,1979,2019-08-07 17:02:32:123
-0.4378,0.9841,-7.0564,-0.1047,6.9471,2.1173,1.575,-1.0509,0.4304,1984,2019-08-07 17:02:32:128
-0.4378,0.9841,-7.0564,-0.1047,6.9471,2.1173,1.1809,-0.8134,0.3335,1989,2019-08-07 17:02:32:133
-0.8157,2.8793,-7.9096,-0.1047,6.9471,2.1173,1.1809,-0.8134,0.3335,1994,2019-08-07 17:02:32:138
-0.8157,2.8793,-7.9096,-0.1047,6.9471,2.1173,0.8219,-0.6067,0.244,1999,2019-08-07 17:02:32:143
-0.8157,2.8793,-7.9096,0.9635,3.4628,2.8038,0.8219,-0.6067,0.244,2004,2019-08-07 17:02:32:148
-1.9113,5.567,-8.2678,0.9635,3.4628,2.8038,0.8219,-0.6067,0.244,2009,2019-08-07 17:02:32:153
-1.9113,5.567,-8.2678,0.9635,3.4628,2.8038,0.3276,-0.3905,0.1385,2014,2019-08-07 17:02:32:158
-2.2702,7.2999,-8.1358,0.9635,3.4628,2.8038,0.3276,-0.3905,0.1385,2018,2019-08-07 17:02:32:162
-2.2702,7.2999,-8.1358,1.6263,0.5267,2.6717,-0.155,-0.2115,0.016,2024,2019-08-07 17:02:32:168
-2.2702,7.2999,-8.1358,1.6263,0.5267,2.6717,-0.155,-0.2115,0.016,2029,2019-08-07 17:02:32:173
-2.1601,8.8323,-7.7917,1.6263,0.5267,2.6717,-0.5214,-0.171,-0.1214,2034,2019-08-07 17:02:32:178
-2.1601,8.8323,-7.7917,1.6263,0.5267,2.6717,-0.5214,-0.171,-0.1214,2039,2019-08-07 17:02:32:183
-1.9449,10.9137,-7.9379,1.2446,-2.7311,2.5721,-0.8847,-0.1551,-0.3313,2044,2019-08-07 17:02:32:188
-1.9449,10.9137,-7.9379,1.2446,-2.7311,2.5721,-0.8847,-0.1551,-0.3313,2049,2019-08-07 17:02:32:193
-1.9449,10.9137,-7.9379,1.2446,-2.7311,2.5721,-1.2394,-0.1156,-0.556,2054,2019-08-07 17:02:32:198
-1.8205,13.3054,-8.3715,1.2446,-2.7311,2.5721,-1.2394,-0.1156,-0.556,2059,2019-08-07 17:02:32:203
-1.8205,13.3054,-8.3715,1.3834,-6.693,3.0197,-1.6176,-0.0741,-0.7595,2065,2019-08-07 17:02:32:209
-2.4281,15.9262,-8.0557,1.3834,-6.693,3.0197,-1.6176,-0.0741,-0.7595,2069,2019-08-07 17:02:32:213
-2.4281,15.9262,-8.0557,1.3834,-6.693,3.0197,-1.6176,-0.0741,-0.7595,2074,2019-08-07 17:02:32:218
-2.4281,15.9262,-8.0557,1.3834,-6.693,3.0197,-2.164,0.0143,-1.0152,2078,2019-08-07 17:02:32:222
-2.653,18.2224,-6.9621,1.7115,-10.2176,1.6756,-2.164,0.0143,-1.0152,2085,2019-08-07 17:02:32:229
-2.653,18.2224,-6.9621,1.7115,-10.2176,1.6756,-2.572,0.0846,-1.2516,2089,2019-08-07 17:02:32:233
-2.8443,20.1272,-5.1709,1.7115,-10.2176,1.6756,-2.572,0.0846,-1.2516,2094,2019-08-07 17:02:32:238
-2.8443,20.1272,-5.1709,1.7115,-10.2176,1.6756,-2.7435,0.0079,-1.3486,2099,2019-08-07 17:02:32:243
-2.8443,20.1272,-5.1709,1.6805,-12.9288,0.8212,-2.7435,0.0079,-1.3486,2104,2019-08-07 17:02:32:248
-2.8333,21.8074,-5.2319,1.6805,-12.9288,0.8212,-2.8032,0.1113,-1.3773,2109,2019-08-07 17:02:32:253
-2.8333,21.8074,-5.2319,1.6805,-12.9288,0.8212,-2.8032,0.1113,-1.3773,2114,2019-08-07 17:02:32:258
-2.2592,22.3946,-6.0191,1.6805,-12.9288,0.8212,-2.9481,0.4117,-1.3614,2119,2019-08-07 17:02:32:263
-2.2592,22.3946,-6.0191,0.3644,-13.7484,2.6636,-2.9481,0.4117,-1.3614,2124,2019-08-07 17:02:32:268
-2.2592,22.3946,-6.0191,0.3644,-13.7484,2.6636,-2.9481,0.4117,-1.3614,2128,2019-08-07 17:02:32:272
-1.3311,22.8195,-6.4999,0.3644,-13.7484,2.6636,-3.1984,0.9113,-1.3102,2134,2019-08-07 17:02:32:278
-1.3311,22.8195,-6.4999,0.3644,-13.7484,2.6636,-3.1984,0.9113,-1.3102,2139,2019-08-07 17:02:32:283
-0.3264,23.0629,-5.4817,-1.4126,-13.9427,2.0103,-3.5105,1.6197,-1.225,2144,2019-08-07 17:02:32:288
-0.3264,23.0629,-5.4817,-1.4126,-13.9427,2.0103,-3.5105,1.6197,-1.225,2149,2019-08-07 17:02:32:293
-0.379,22.1893,-6.6083,-1.4126,-13.9427,2.0103,-3.5063,2.2535,-1.0705,2154,2019-08-07 17:02:32:298
-0.379,22.1893,-6.6083,-1.4126,-13.9427,2.0103,-3.5063,2.2535,-1.0705,2159,2019-08-07 17:02:32:303
-0.379,22.1893,-6.6083,-1.4126,-13.9427,2.0103,-3.5063,2.2535,-1.0705,2164,2019-08-07 17:02:32:308
3.5489,25.7219,-10.0305,-4.7939,-14.9094,6.439,-2.8447,2.4942,-0.817,2169,2019-08-07 17:02:32:313
3.5489,25.7219,-10.0305,-4.7939,-14.9094,6.439,-2.8447,2.4942,-0.817,2174,2019-08-07 17:02:32:318
3.5489,25.7219,-10.0305,-4.7939,-14.9094,6.439,-1.853,2.6274,-0.376,2179,2019-08-07 17:02:32:323
1.9366,28.6149,-15.984,-4.7939,-14.9094,6.439,-1.853,2.6274,-0.376,2184,2019-08-07 17:02:32:328
1.9366,28.6149,-15.984,-3.2168,-15.8711,14.3064,-1.7252,2.7584,-0.1235,2189,2019-08-07 17:02:32:333
-0.9005,21.0102,-14.9281,-3.2168,-15.8711,14.3064,-1.7252,2.7584,-0.1235,2194,2019-08-07 17:02:32:338
-0.9005,21.0102,-14.9281,-3.2168,-15.8711,14.3064,-3.0131,4.5161,-0.3078,2199,2019-08-07 17:02:32:343
-2.1204,22.3803,31.6678,0.702,-12.8883,-33.6995,-3.0131,4.5161,-0.3078,2204,2019-08-07 17:02:32:348
-2.1204,22.3803,31.6678,0.702,-12.8883,-33.6995,-3.0131,4.5161,-0.3078,2208,2019-08-07 17:02:32:352
-2.1204,22.3803,31.6678,0.702,-12.8883,-33.6995,-2.849,4.5055,-0.1502,2214,2019-08-07 17:02:32:358
-15.0905,16.7281,23.8382,0.702,-12.8883,-33.6995,-2.849,4.5055,-0.1502,2219,2019-08-07 17:02:32:363
-15.0905,16.7281,23.8382,0.702,-12.8883,-33.6995,-1.5228,0.0516,0.506,2224,2019-08-07 17:02:32:368
-15.0905,16.7281,23.8382,15.925,-4.3205,-31.2046,-1.5228,0.0516,0.506,2229,2019-08-07 17:02:32:373
-13.7653,12.7085,26.9682,15.925,-4.3205,-31.2046,-2.1587,-2.0608,0.6797,2234,2019-08-07 17:02:32:378
-13.7653,12.7085,26.9682,15.925,-4.3205,-31.2046,-2.1587,-2.0608,0.6797,2239,2019-08-07 17:02:32:383
-5.0484,15.9499,10.8045,15.925,-4.3205,-31.2046,-1.4652,-4.7368,1.109,2244,2019-08-07 17:02:32:388
-5.0484,15.9499,10.8045,1.6366,-6.3097,-9.8692,-1.4652,-4.7368,1.109,2249,2019-08-07 17:02:32:393
-5.0484,15.9499,10.8045,1.6366,-6.3097,-9.8692,-0.074,-6.6255,1.648,2254,2019-08-07 17:02:32:398
1.5491,15.0811,-2.2763,1.6366,-6.3097,-9.8692,-0.074,-6.6255,1.648,2259,2019-08-07 17:02:32:403
1.5491,15.0811,-2.2763,1.6366,-6.3097,-9.8692,0.1817,-4.4918,1.4222,2264,2019-08-07 17:02:32:408
1.9605,11.9256,-15.3524,-3.6585,-2.894,13.1549,0.1817,-4.4918,1.4222,2269,2019-08-07 17:02:32:413
1.9605,11.9256,-15.3524,-3.6585,-2.894,13.1549,0.1817,-4.4918,1.4222,2274,2019-08-07 17:02:32:418
1.9605,11.9256,-15.3524,-3.6585,-2.894,13.1549,-1.0998,-0.0762,0.7351,2278,2019-08-07 17:02:32:422
-2.1539,8.9801,-9.545,-3.6585,-2.894,13.1549,-1.0998,-0.0762,0.7351,2285,2019-08-07 17:02:32:429
-2.1539,8.9801,-9.545,1.8483,1.6364,1.618,-2.0138,3.4924,0.1439,2289,2019-08-07 17:02:32:433
-3.3165,8.1495,10.1258,1.8483,1.6364,1.618,-2.0138,3.4924,0.1439,2294,2019-08-07 17:02:32:438
-3.3165,8.1495,10.1258,4.0365,0.9456,-14.7819,-1.5121,2.7414,-0.262,2300,2019-08-07 17:02:32:444
-3.3165,8.1495,10.1258,4.0365,0.9456,-14.7819,-1.5121,2.7414,-0.262,2303,2019-08-07 17:02:32:447
-5.766,12.8469,6.581,4.0365,0.9456,-14.7819,-0.6897,-0.3692,0.1609,2309,2019-08-07 17:02:32:453
-5.766,12.8469,6.581,4.0365,0.9456,-14.7819,-0.6897,-0.3692,0.1609,2314,2019-08-07 17:02:32:458
1.0994,13.6585,2.1547,-1.0965,-3.4646,-5.2596,-0.2349,-1.1117,0.3814,2319,2019-08-07 17:02:32:463
1.0994,13.6585,2.1547,-1.0965,-3.4646,-5.2596,-0.2349,-1.1117,0.3814,2324,2019-08-07 17:02:32:468
1.0994,13.6585,2.1547,-1.0965,-3.4646,-5.2596,-0.5193,-0.4352,0.4208,2329,2019-08-07 17:02:32:473
3.4867,13.7731,-1.9934,-1.0965,-3.4646,-5.2596,-0.5193,-0.4352,0.4208,2335,2019-08-07 17:02:32:479
3.4867,13.7731,-1.9934,-3.739,-2.617,0.7911,-0.5193,-0.4352,0.4208,2339,2019-08-07 17:02:32:483
3.4867,13.7731,-1.9934,-3.739,-2.617,0.7911,-0.9124,0.5576,0.4794,2344,2019-08-07 17:02:32:488
0.8363,11.3384,3.0315,-0.8606,-1.3211,-4.7975,-0.9124,0.5576,0.4794,2349,2019-08-07 17:02:32:493
0.8363,11.3384,3.0315,-0.8606,-1.3211,-4.7975,-0.6748,-0.1476,0.44,2354,2019-08-07 17:02:32:498
-1.8381,9.9636,6.3453,-0.8606,-1.3211,-4.7975,-0.6748,-0.1476,0.44,2359,2019-08-07 17:02:32:503
-1.8381,9.9636,6.3453,-0.8606,-1.3211,-4.7975,-0.6748,-0.1476,0.44,2364,2019-08-07 17:02:32:508
-1.8381,9.9636,6.3453,0.2859,0.9069,-3.8701,-0.254,-1.4089,0.3803,2369,2019-08-07 17:02:32:513
0.1617,8.8226,1.4429,0.2859,0.9069,-3.8701,-0.254,-1.4089,0.3803,2374,2019-08-07 17:02:32:518
0.1617,8.8226,1.4429,0.2859,0.9069,-3.8701,-0.0964,-1.966,0.2909,2379,2019-08-07 17:02:32:523
2.5921,9.7153,-3.7705,0.2859,0.9069,-3.8701,-0.0964,-1.966,0.2909,2384,2019-08-07 17:02:32:528
2.5921,9.7153,-3.7705,-3.3269,-0.1338,4.102,-0.2221,-0.7719,0.2024,2389,2019-08-07 17:02:32:533
2.5921,9.7153,-3.7705,-3.3269,-0.1338,4.102,-0.2221,-0.7719,0.2024,2394,2019-08-07 17:02:32:538
2.6256,10.2834,-3.3274,-3.3269,-0.1338,4.102,-0.4202,0.4915,0.1747,2400,2019-08-07 17:02:32:544
2.6256,10.2834,-3.3274,-3.3269,-0.1338,4.102,-0.4202,0.4915,0.1747,2404,2019-08-07 17:02:32:548
-0.0775,10.0638,1.9143,-0.4721,-0.2693,-1.876,-0.4362,0.9901,0.0991,2409,2019-08-07 17:02:32:553
-0.0775,10.0638,1.9143,-0.4721,-0.2693,-1.876,-0.4362,0.9901,0.0991,2414,2019-08-07 17:02:32:558
-0.0775,10.0638,1.9143,-0.4721,-0.2693,-1.876,-0.4362,0.9901,0.0991,2419,2019-08-07 17:02:32:563
-0.0775,10.0638,1.9143,-0.4721,-0.2693,-1.876,-0.2285,0.2657,0.1343,2424,2019-08-07 17:02:32:568
-1.5558,9.4814,5.1338,0.5979,0.2227,-4.4641,-0.2285,0.2657,0.1343,2430,2019-08-07 17:02:32:574
-1.5558,9.4814,5.1338,0.5979,0.2227,-4.4641,-0.025,-0.5535,0.1907,2434,2019-08-07 17:02:32:578
0.3675,9.849,1.3439,0.5979,0.2227,-4.4641,-0.025,-0.5535,0.1907,2439,2019-08-07 17:02:32:583
0.3675,9.849,1.3439,0.5979,0.2227,-4.4641,0.0229,-0.7793,0.1854,2445,2019-08-07 17:02:32:589
1.4726,10.2643,-0.2635,-1.958,-0.4673,0.4027,0.0229,-0.7793,0.1854,2449,2019-08-07 17:02:32:593
1.4726,10.2643,-0.2635,-1.958,-0.4673,0.4027,-0.0463,-0.2712,0.1407,2455,2019-08-07 17:02:32:599
1.4726,10.2643,-0.2635,-1.958,-0.4673,0.4027,-0.0463,-0.2712,0.1407,2459,2019-08-07 17:02:32:603
0.9655,9.8585,-0.4897,-1.958,-0.4673,0.4027,-0.1006,0.1155,0.1119,2464,2019-08-07 17:02:32:608
0.9655,9.8585,-0.4897,-0.5364,-0.1601,0.2576,-0.1006,0.1155,0.1119,2469,2019-08-07 17:02:32:613
0.9655,9.8585,-0.4897,-0.5364,-0.1601,0.2576,-0.1006,0.1155,0.1119,2474,2019-08-07 17:02:32:618
-0.7425,10.0208,0.552,-0.5364,-0.1601,0.2576,-0.156,0.2242,0.0714,2478,2019-08-07 17:02:32:622
-0.7425,10.0208,0.552,-0.5364,-0.1601,0.2576,-0.156,0.2242,0.0714,2484,2019-08-07 17:02:32:628
-1.6993,9.6962,1.8907,1.2601,0.1022,-1.7032,-0.1677,0.1592,0.0714,2489,2019-08-07 17:02:32:633
-1.6993,9.6962,1.8907,1.2601,0.1022,-1.7032,-0.1677,0.1592,0.0714,2493,2019-08-07 17:02:32:637
-1.6993,9.6962,1.8907,1.2601,0.1022,-1.7032,-0.1283,-0.0411,0.0948,2499,2019-08-07 17:02:32:643
-0.6946,10.0113,1.4665,1.2601,0.1022,-1.7032,-0.1283,-0.0411,0.0948,2503,2019-08-07 17:02:32:647
-0.6946,10.0113,1.4665,-0.1416,-0.1987,-0.8109,-0.0804,-0.1444,0.1023,2509,2019-08-07 17:02:32:653
-0.6946,10.0113,1.4665,-0.1416,-0.1987,-0.8109,-0.0804,-0.1444,0.1023,2514,2019-08-07 17:02:32:658
-0.0057,9.9301,0.4672,-0.1416,-0.1987,-0.8109,-0.0804,-0.1444,0.1023,2519,2019-08-07 17:02:32:663
-0.0057,9.9301,0.4672,-0.1416,-0.1987,-0.8109,-0.0932,0.0367,0.1002,2524,2019-08-07 17:02:32:668
-0.0057,9.9301,0.4672,-0.739,-0.0597,-0.4521,-0.0932,0.0367,0.1002,2529,2019-08-07 17:02:32:673
0.3388,9.8585,0.6934,-0.739,-0.0597,-0.4521,-0.1134,0.1837,0.0917,2535,2019-08-07 17:02:32:679
0.3388,9.8585,0.6934,-0.739,-0.0597,-0.4521,-0.1134,0.1837,0.0917,2538,2019-08-07 17:02:32:682
0.1618,9.9397,1.6362,-0.739,-0.0597,-0.4521,-0.0953,0.2199,0.0789,2544,2019-08-07 17:02:32:688
0.1618,9.9397,1.6362,-0.3646,-0.1598,-1.3392,-0.0953,0.2199,0.0789,2549,2019-08-07 17:02:32:693
0.1618,9.9397,1.6362,-0.3646,-0.1598,-1.3392,-0.0442,0.1816,0.0661,2554,2019-08-07 17:02:32:698
0.1857,9.6771,1.5231,-0.3646,-0.1598,-1.3392,-0.0442,0.1816,0.0661,2559,2019-08-07 17:02:32:703
0.1857,9.6771,1.5231,-0.3646,-0.1598,-1.3392,-0.0016,0.1347,0.0288,2564,2019-08-07 17:02:32:708
0.9129,9.701,1.6079,-1.3296,0.1316,-1.0382,-0.0016,0.1347,0.0288,2569,2019-08-07 17:02:32:713
0.9129,9.701,1.6079,-1.3296,0.1316,-1.0382,-0.0016,0.1347,0.0288,2574,2019-08-07 17:02:32:718
0.9129,9.701,1.6079,-1.3296,0.1316,-1.0382,0.024,0.1038,0.0171,2579,2019-08-07 17:02:32:723
0.8747,9.7058,-0.3059,-1.3296,0.1316,-1.0382,-0.025,0.3477,-0.0351,2584,2019-08-07 17:02:32:728
0.8747,9.7058,-0.3059,-1.3296,0.1316,-1.0382,-0.025,0.3477,-0.0351,2589,2019-08-07 17:02:32:733
0.8747,9.7058,-0.3059,-1.3296,0.1316,-1.0382,-0.025,0.3477,-0.0351,2594,2019-08-07 17:02:32:738
-0.2066,10.0208,-0.2163,-0.1513,-0.2213,0.4939,-0.0729,0.4841,-0.0447,2599,2019-08-07 17:02:32:743
-0.2066,10.0208,-0.2163,-0.1513,-0.2213,0.4939,-0.0729,0.4841,-0.0447,2604,2019-08-07 17:02:32:748
-1.2256,9.7917,1.9992,-0.1513,-0.2213,0.4939,-0.0452,0.32,0.0,2609,2019-08-07 17:02:32:753
-1.2256,9.7917,1.9992,0.98,-0.0553,-1.6258,-0.0452,0.32,0.0,2613,2019-08-07 17:02:32:757
-1.2256,9.7917,1.9992,0.98,-0.0553,-1.6258,-0.0452,0.32,0.0,2620,2019-08-07 17:02:32:764
-1.3117,10.0304,0.8867,0.98,-0.0553,-1.6258,0.0229,-0.0613,0.0256,2624,2019-08-07 17:02:32:768
-1.3117,10.0304,0.8867,0.98,-0.0553,-1.6258,0.0229,-0.0613,0.0256,2629,2019-08-07 17:02:32:773
-0.8811,10.0399,0.4578,0.3658,-0.2082,-0.0112,0.0283,-0.1082,0.0427,2634,2019-08-07 17:02:32:778
-0.8811,10.0399,0.4578,0.3658,-0.2082,-0.0112,0.0283,-0.1082,0.0427,2638,2019-08-07 17:02:32:782
-0.8811,10.0399,0.4578,0.3658,-0.2082,-0.0112,-0.0069,0.0218,0.0458,2644,2019-08-07 17:02:32:788
-0.3118,10.059,0.6369,0.3658,-0.2082,-0.0112,-0.0069,0.0218,0.0458,2649,2019-08-07 17:02:32:793
-0.3118,10.059,0.6369,-0.0888,-0.0981,-0.6784,0.0016,0.0665,0.0544,2654,2019-08-07 17:02:32:798
-0.3022,9.4575,0.9669,-0.0888,-0.0981,-0.6784,0.0016,0.0665,0.0544,2658,2019-08-07 17:02:32:802
-0.3022,9.4575,0.9669,-0.0888,-0.0981,-0.6784,-0.0026,-0.04,0.0554,2664,2019-08-07 17:02:32:808
-0.3022,9.4575,0.9669,-0.0888,-0.0981,-0.6784,-0.0026,-0.04,0.0554,2670,2019-08-07 17:02:32:814
-0.2974,9.5673,1.014,-0.053,0.2316,-0.7055,-0.0026,-0.04,0.0554,2674,2019-08-07 17:02:32:818
-0.2974,9.5673,1.014,-0.053,0.2316,-0.7055,0.0016,-0.1849,0.0672,2679,2019-08-07 17:02:32:823
-0.2161,10.0351,1.311,-0.053,0.2316,-0.7055,0.0016,-0.1849,0.0672,2684,2019-08-07 17:02:32:828
-0.2161,10.0351,1.311,-0.053,0.2316,-0.7055,0.0357,-0.236,0.0608,2689,2019-08-07 17:02:32:833
-0.2161,10.0351,1.311,-0.3528,-0.7371,-1.5672,0.0357,-0.236,0.0608,2694,2019-08-07 17:02:32:838
0.3771,10.6939,1.6692,-0.3528,-0.7371,-1.5672,0.1124,-0.2073,0.0245,2699,2019-08-07 17:02:32:843
0.3771,10.6939,1.6692,-0.3528,-0.7371,-1.5672,0.1124,-0.2073,0.0245,2704,2019-08-07 17:02:32:848
0.3771,10.6939,1.6692,-0.3528,-0.7371,-1.5672,0.1337,-0.1391,-0.0298,2709,2019-08-07 17:02:32:853
0.4728,9.6055,0.0382,-0.7992,0.1946,0.2582,0.1337,-0.1391,-0.0298,2714,2019-08-07 17:02:32:858
0.4728,9.6055,0.0382,-0.7992,0.1946,0.2582,0.0624,0.1166,-0.0468,2720,2019-08-07 17:02:32:864
0.4728,9.6055,0.0382,-0.7992,0.1946,0.2582,0.0624,0.1166,-0.0468,2724,2019-08-07 17:02:32:868
-0.1874,10.1593,0.618,-0.7992,0.1946,0.2582,0.0624,0.1166,-0.0468,2728,2019-08-07 17:02:32:872
-0.1874,10.1593,0.618,0.5314,-0.6218,-1.1135,-0.009,0.189,-0.0596,2735,2019-08-07 17:02:32:879
-0.1874,10.3741,1.476,0.5314,-0.6218,-1.1135,-0.009,0.189,-0.0596,2739,2019-08-07 17:02:32:883
-1.3882,10.3741,1.476,0.5314,-0.6218,-1.1135,-0.0037,0.0804,-0.0788,2744,2019-08-07 17:02:32:888
-1.3882,10.3741,1.476,0.5314,-0.6218,-1.1135,-0.0037,0.0804,-0.0788,2749,2019-08-07 17:02:32:893
-1.1586,9.9397,1.6127,0.8015,-0.1406,-1.3166,0.0506,-0.1231,-0.0479,2755,2019-08-07 17:02:32:899
-1.1586,9.9397,1.6127,0.8015,-0.1406,-1.3166,0.0506,-0.1231,-0.0479,2759,2019-08-07 17:02:32:903
-1.1586,9.9397,1.6127,0.8015,-0.1406,-1.3166,0.0751,-0.3383,-0.0383,2764,2019-08-07 17:02:32:908
-0.3165,9.5243,0.7595,0.8015,-0.1406,-1.3166,0.0751,-0.3383,-0.0383,2769,2019-08-07 17:02:32:913
-0.3165,9.5243,0.7595,-0.1915,0.1791,-0.0791,0.0709,-0.3053,-0.0447,2774,2019-08-07 17:02:32:918
-0.0869,9.6389,0.3022,-0.1915,0.1791,-0.0791,0.0709,-0.3053,-0.0447,2779,2019-08-07 17:02:32:923
-0.0869,9.6389,0.3022,-0.1915,0.1791,-0.0791,0.0251,-0.1529,-0.0266,2784,2019-08-07 17:02:32:928
-0.0869,9.6389,0.3022,-0.1915,0.1791,-0.0791,0.0251,-0.1529,-0.0266,2789,2019-08-07 17:02:32:933
-0.1108,9.5339,1.179,-0.2471,0.2698,-0.9866,0.0368,-0.1316,-0.0266,2794,2019-08-07 17:02:32:938
-0.1108,9.5339,1.179,-0.2471,0.2698,-0.9866,0.0368,-0.1316,-0.0266,2800,2019-08-07 17:02:32:944
-0.1108,9.5339,1.179,-0.2471,0.2698,-0.9866,0.0368,-0.1316,-0.0266,2804,2019-08-07 17:02:32:948
-0.1156,9.6294,0.9763,-0.2471,0.2698,-0.9866,0.0826,-0.2616,-0.0351,2808,2019-08-07 17:02:32:952
-0.1156,9.6294,0.9763,-0.4652,0.0932,-0.3841,0.0879,-0.2456,-0.0522,2815,2019-08-07 17:02:32:959
0.205,9.7439,0.4201,-0.4652,0.0932,-0.3841,0.0879,-0.2456,-0.0522,2819,2019-08-07 17:02:32:963
0.205,9.7439,0.4201,-0.4652,0.0932,-0.3841,0.0879,-0.2456,-0.0522,2824,2019-08-07 17:02:32:968
0.205,9.7439,0.4201,-0.5585,-0.0355,-0.0424,0.0698,-0.138,-0.0628,2829,2019-08-07 17:02:32:973
0.1284,9.9158,0.5191,-0.5585,-0.0355,-0.0424,0.0698,-0.138,-0.0628,2835,2019-08-07 17:02:32:979
0.1284,9.9158,0.5191,-0.5585,-0.0355,-0.0424,0.0347,0.0484,-0.0756,2838,2019-08-07 17:02:32:982
0.1284,9.9158,0.5191,-0.5585,-0.0355,-0.0424,0.0347,0.0484,-0.0756,2844,2019-08-07 17:02:32:988
-0.1825,9.9874,1.0894,-0.2011,-0.1886,-0.8213,0.0389,0.0772,-0.0852,2850,2019-08-07 17:02:32:994
-0.1825,9.9874,1.0894,-0.2011,-0.1886,-0.8213,0.0389,0.0772,-0.0852,2853,2019-08-07 17:02:32:997
-0.2352,9.9779,1.0376,-0.2011,-0.1886,-0.8213,0.0389,0.0772,-0.0852,2859,2019-08-07 17:02:33:003
-0.2352,9.9779,1.0376,-0.1935,-0.1557,-0.6223,0.0538,0.0388,-0.0873,2865,2019-08-07 17:02:33:009
-0.1347,9.9492,0.6746,-0.1935,-0.1557,-0.6223,0.0538,0.0388,-0.0873,2869,2019-08-07 17:02:33:013
-0.1347,9.9492,0.6746,-0.1935,-0.1557,-0.6223,0.0506,0.0729,-0.0884,2874,2019-08-07 17:02:33:018
-0.1347,9.9492,0.6746,-0.1935,-0.1557,-0.6223,0.0506,0.0729,-0.0884,2879,2019-08-07 17:02:33:023
-0.149,9.8967,0.816,-0.243,-0.075,-0.6248,0.0464,0.1112,-0.0926,2884,2019-08-07 17:02:33:028
-0.149,9.8967,0.816,-0.243,-0.075,-0.6248,0.0464,0.1112,-0.0926,2888,2019-08-07 17:02:33:032
-0.149,9.8967,0.816,-0.243,-0.075,-0.6248,0.0464,0.1112,-0.0926,2894,2019-08-07 17:02:33:038
-0.3691,9.8394,0.9103,-0.243,-0.075,-0.6248,0.0645,0.14,-0.0916,2899,2019-08-07 17:02:33:043
-0.3691,9.8394,0.9103,0.1691,0.0533,-0.6706,0.0645,0.14,-0.0916,2904,2019-08-07 17:02:33:048
-0.6514,9.7487,0.9197,0.1691,0.0533,-0.6706,0.0794,0.1134,-0.0639,2909,2019-08-07 17:02:33:053
-0.6514,9.7487,0.9197,0.1691,0.0533,-0.6706,0.0794,0.1134,-0.0639,2914,2019-08-07 17:02:33:058
-0.6514,9.7487,0.9197,0.1691,0.0533,-0.6706,0.1135,0.0804,-0.0468,2919,2019-08-07 17:02:33:063
-0.8475,10.0065,1.2686,0.1691,0.0533,-0.6706,0.1135,0.0804,-0.0468,2924,2019-08-07 17:02:33:068
-0.8475,10.0065,1.2686,0.3895,-0.1714,-1.0608,0.1337,0.0505,-0.0298,2929,2019-08-07 17:02:33:073
-0.637,9.7964,0.9056,0.3895,-0.1714,-1.0608,0.1337,0.0505,-0.0298,2934,2019-08-07 17:02:33:078
-0.637,9.7964,0.9056,0.3895,-0.1714,-1.0608,0.1337,0.0505,-0.0298,2939,2019-08-07 17:02:33:083
-0.637,9.7964,0.9056,0.3895,-0.1714,-1.0608,0.1454,0.0718,-0.0255,2944,2019-08-07 17:02:33:088
-0.4791,9.9635,0.4814,0.0239,-0.1664,-0.269,0.1454,0.0718,-0.0255,2948,2019-08-07 17:02:33:092
-0.4791,9.9635,0.4814,0.0239,-0.1664,-0.269,0.1135,0.1304,-0.0181,2954,2019-08-07 17:02:33:098
-0.4743,9.9683,0.274,0.0239,-0.1664,-0.269,0.1135,0.1304,-0.0181,2959,2019-08-07 17:02:33:103
-0.4743,9.9683,0.274,0.0239,-0.1664,-0.269,0.0901,0.1709,-0.0181,2964,2019-08-07 17:02:33:108
-0.4743,9.9683,0.274,0.1007,-0.1852,-0.2584,0.0901,0.1709,-0.0181,2969,2019-08-07 17:02:33:113
-0.68,9.9826,0.4437,0.1007,-0.1852,-0.2584,0.0901,0.1709,-0.0181,2975,2019-08-07 17:02:33:119
-0.68,9.9826,0.4437,0.1007,-0.1852,-0.2584,0.0741,0.1666,-0.0117,2978,2019-08-07 17:02:33:122
-0.8379,9.8871,0.6558,0.1007,-0.1852,-0.2584,0.0741,0.1666,-0.0117,2984,2019-08-07 17:02:33:128
-0.8379,9.8871,0.6558,0.3489,-0.085,-0.5259,0.0634,0.1038,-0.0032,2989,2019-08-07 17:02:33:133
-0.8379,9.8871,0.6558,0.3489,-0.085,-0.5259,0.0634,0.1038,-0.0032,2994,2019-08-07 17:02:33:138
-0.704,9.8824,0.9103,0.2372,-0.085,-0.7376,0.073,0.0132,-0.001,2999,2019-08-07 17:02:33:143
-0.704,9.8824,0.9103,0.2372,-0.085,-0.7376,0.073,0.0132,-0.001,3003,2019-08-07 17:02:33:147
-0.704,9.8824,0.9103,0.2372,-0.085,-0.7376,0.0815,-0.0688,0.0075,3009,2019-08-07 17:02:33:153
-0.2973,9.911,0.6605,0.2372,-0.085,-0.7376,0.0815,-0.0688,0.0075,3014,2019-08-07 17:02:33:158
-0.2973,9.911,0.6605,0.2372,-0.085,-0.7376,0.0815,-0.0688,0.0075,3019,2019-08-07 17:02:33:163
-0.2303,10.0876,0.5426,-0.2448,-0.1468,-0.3756,0.0762,-0.0794,0.0075,3023,2019-08-07 17:02:33:167
-0.2303,10.0876,0.5426,-0.2448,-0.1468,-0.3756,0.0762,-0.0794,0.0075,3029,2019-08-07 17:02:33:173
-0.2303,10.0876,0.5426,-0.2448,-0.1468,-0.3756,0.0549,-0.0208,-0.0064,3033,2019-08-07 17:02:33:177
-0.2781,9.9349,0.7548,-0.2526,-0.1418,-0.6099,0.0549,-0.0208,-0.0064,3039,2019-08-07 17:02:33:183
-0.2781,9.9349,0.7548,-0.2526,-0.1418,-0.6099,0.0474,-0.0091,-0.0127,3044,2019-08-07 17:02:33:188
-0.2781,9.9349,0.7548,-0.2526,-0.1418,-0.6099,0.0474,-0.0091,-0.0127,3049,2019-08-07 17:02:33:193
-0.369,9.954,0.7029,-0.2526,-0.1418,-0.6099,0.0421,-0.0304,-0.0127,3054,2019-08-07 17:02:33:198
-0.369,9.954,0.7029,-0.1484,-0.075,-0.5577,0.0421,-0.0304,-0.0127,3059,2019-08-07 17:02:33:203
-0.3355,9.8537,0.6369,-0.1484,-0.075,-0.5577,0.0432,-0.024,-0.0223,3064,2019-08-07 17:02:33:208
-0.3355,9.8537,0.6369,-0.1484,-0.075,-0.5577,0.0432,-0.024,-0.0223,3069,2019-08-07 17:02:33:213
-0.3355,9.8537,0.6369,-0.1484,-0.075,-0.5577,0.0432,-0.024,-0.0223,3073,2019-08-07 17:02:33:217
-0.3642,9.9349,0.5709,-0.1037,-0.1371,-0.4256,0.0347,-0.007,-0.0223,3079,2019-08-07 17:02:33:223
-0.3642,9.9349,0.5709,-0.1037,-0.1371,-0.4256,0.0347,-0.007,-0.0223,3084,2019-08-07 17:02:33:228
-0.3642,9.9349,0.5709,-0.1037,-0.1371,-0.4256,0.024,0.0292,-0.0298,3089,2019-08-07 17:02:33:233
-0.4503,9.9062,0.5851,-0.1037,-0.1371,-0.4256,0.024,0.0292,-0.0298,3094,2019-08-07 17:02:33:238
-0.4503,9.9062,0.5851,0.0541,-0.1516,-0.4322,0.0187,0.0196,-0.0266,3099,2019-08-07 17:02:33:243
-0.5321,9.8394,0.5991,0.0541,-0.1516,-0.4322,0.0187,0.0196,-0.0266,3104,2019-08-07 17:02:33:248
-0.5321,9.8394,0.5991,0.0708,-0.1184,-0.4416,0.0112,0.0058,-0.0266,3109,2019-08-07 17:02:33:253
-0.5321,9.8394,0.5991,0.0708,-0.1184,-0.4416,0.0112,0.0058,-0.0266,3114,2019-08-07 17:02:33:258
-0.5369,9.9349,0.585,0.0708,-0.1184,-0.4416,0.0112,0.0058,-0.0266,3118,2019-08-07 17:02:33:262
-0.5369,9.9349,0.585,0.0708,-0.1184,-0.4416,0.0048,-0.023,-0.0245,3124,2019-08-07 17:02:33:268
-0.5369,9.9349,0.585,0.0986,-0.1999,-0.4537,0.0048,-0.023,-0.0245,3129,2019-08-07 17:02:33:273
-0.556,9.9588,0.5756,0.0986,-0.1999,-0.4537,0.0038,-0.0304,-0.0223,3134,2019-08-07 17:02:33:278
-0.556,9.9588,0.5756,0.0986,-0.1999,-0.4537,0.0038,-0.0304,-0.0223,3139,2019-08-07 17:02:33:283
-1.0727,10.1975,0.0193,0.0986,-0.1999,-0.4537,6.0E-4,-0.0443,-0.0245,3144,2019-08-07 17:02:33:288
-1.0727,10.1975,0.0193,2.2523,-0.511,-10.727,6.0E-4,-0.0443,-0.0245,3149,2019-08-07 17:02:33:293
-1.0727,10.1975,0.0193,2.2523,-0.511,-10.727,0.4224,-0.285,-0.0522,3154,2019-08-07 17:02:33:298
-0.092,9.5435,-4.0723,2.2523,-0.511,-10.727,0.4224,-0.285,-0.0522,3159,2019-08-07 17:02:33:303
-0.092,9.5435,-4.0723,2.2523,-0.511,-10.727,0.0975,-0.2243,0.0267,3163,2019-08-07 17:02:33:307
0.6257,9.744,0.3446,-1.1127,0.0529,-0.2008,0.0975,-0.2243,0.0267,3169,2019-08-07 17:02:33:313
0.6257,9.744,0.3446,-1.1127,0.0529,-0.2008,0.0975,-0.2243,0.0267,3173,2019-08-07 17:02:33:317
0.6257,9.744,0.3446,-1.1127,0.0529,-0.2008,-0.1986,-0.0837,0.0118,3179,2019-08-07 17:02:33:323
0.0468,9.9492,0.7971,-1.1127,0.0529,-0.2008,-0.1986,-0.0837,0.0118,3184,2019-08-07 17:02:33:328
0.0468,9.9492,0.7971,-0.0897,-0.2859,-0.0283,0.0506,0.2774,-0.0074,3189,2019-08-07 17:02:33:333
-0.5178,9.6962,-0.3861,-0.0897,-0.2859,-0.0283,0.0506,0.2774,-0.0074,3194,2019-08-07 17:02:33:338
-0.5178,9.6962,-0.3861,-0.0897,-0.2859,-0.0283,-0.0964,0.287,-0.0127,3199,2019-08-07 17:02:33:343
-0.5178,9.6962,-0.3861,-0.0897,-0.2859,-0.0283,-0.0964,0.287,-0.0127,3203,2019-08-07 17:02:33:347
-0.757,9.8108,1.2166,0.1263,-0.0285,-1.1539,-0.0165,0.4298,0.0043,3209,2019-08-07 17:02:33:353
-0.757,9.8108,1.2166,0.1263,-0.0285,-1.1539,-0.0165,0.4298,0.0043,3214,2019-08-07 17:02:33:358
-1.1302,10.0447,1.0658,0.1263,-0.0285,-1.1539,-0.0591,0.173,-0.001,3218,2019-08-07 17:02:33:362
-1.1302,10.0447,1.0658,0.1263,-0.0285,-1.1539,-0.0591,0.173,-0.001,3224,2019-08-07 17:02:33:368
-1.1302,10.0447,1.0658,0.3961,0.2146,-1.5907,-0.0058,-0.1433,0.032,3229,2019-08-07 17:02:33:373
-0.7187,9.6437,1.5655,0.3961,0.2146,-1.5907,-0.0058,-0.1433,0.032,3234,2019-08-07 17:02:33:378
-0.7187,9.6437,1.5655,0.3961,0.2146,-1.5907,-0.0058,-0.1433,0.032,3239,2019-08-07 17:02:33:383
-0.7187,9.6437,1.5655,0.3961,0.2146,-1.5907,0.0506,-0.2456,0.0256,3244,2019-08-07 17:02:33:388
-0.1111,10.0877,0.222,-0.5098,-0.2481,0.0386,0.0506,-0.2456,0.0256,3249,2019-08-07 17:02:33:393
-0.1111,10.0877,0.222,-0.5098,-0.2481,0.0386,0.0016,-0.056,0.0203,3254,2019-08-07 17:02:33:398