ACCELEROMETER X (m/s²),ACCELEROMETER Y (m/s²),ACCELEROMETER Z (m/s²),LINEAR ACCELERATION X (m/s²),LINEAR ACCELERATION Y (m/s²),LINEAR ACCELERATION Z (m/s²),GYROSCOPE X (rad/s),GYROSCOPE Y (rad/s),GYROSCOPE Z (rad/s),Time since start in ms ,YYYY-MO-DD HH-MI-SS_SSS
-0.325,10.0742,0.2062,-0.0131,-0.2707,-0.0919,0.0858,0.0442,-0.0714,2,2019-08-07 17:01:10:828
-0.325,10.0742,0.2062,-0.0131,-0.2707,-0.0919,0.072,0.0687,-0.0714,8,2019-08-07 17:01:10:834
-0.612,10.0933,0.3806,-0.0131,-0.2707,-0.0919,0.072,0.0687,-0.0714,13,2019-08-07 17:01:10:839
-0.612,10.0933,0.3806,-0.0131,-0.2707,-0.0919,0.0656,0.0676,-0.0703,17,2019-08-07 17:01:10:843
-0.612,10.0933,0.3806,0.3299,-0.2042,-0.5379,0.0656,0.0676,-0.0703,23,2019-08-07 17:01:10:849
-0.6168,9.9405,0.6917,0.3299,-0.2042,-0.5379,0.073,0.0047,-0.0597,28,2019-08-07 17:01:10:854
-0.6168,9.9405,0.6917,0.3299,-0.2042,-0.5379,0.073,0.0047,-0.0597,32,2019-08-07 17:01:10:858
-0.6168,9.9405,0.6917,0.3299,-0.2042,-0.5379,0.089,-0.0634,-0.0533,38,2019-08-07 17:01:10:864
-0.478,9.9357,0.5173,0.1109,-0.133,-0.427,0.089,-0.0634,-0.0533,43,2019-08-07 17:01:10:869
-0.478,9.9357,0.5173,0.1109,-0.133,-0.427,0.089,-0.0634,-0.0533,48,2019-08-07 17:01:10:874
-0.478,9.9357,0.5173,0.1109,-0.133,-0.427,0.0943,-0.0602,-0.0511,53,2019-08-07 17:01:10:879
-0.1718,9.8928,0.4277,0.1109,-0.133,-0.427,0.0943,-0.0602,-0.0511,57,2019-08-07 17:01:10:883
-0.1718,9.8928,0.4277,-0.2236,-0.1046,-0.2395,0.0901,-0.0261,-0.0607,63,2019-08-07 17:01:10:889
-0.1766,9.9405,0.2816,-0.2236,-0.1046,-0.2395,0.0901,-0.0261,-0.0607,68,2019-08-07 17:01:10:894
-0.1766,9.9405,0.2816,-0.2236,-0.1046,-0.2395,0.0815,0.0111,-0.0629,73,2019-08-07 17:01:10:899
-0.1766,9.9405,0.2816,-0.2236,-0.1046,-0.2395,0.0815,0.0111,-0.0629,78,2019-08-07 17:01:10:904
-0.2962,9.9357,0.324,-0.0105,-0.1813,-0.2638,0.0741,0.025,-0.0682,82,2019-08-07 17:01:10:908
-0.2962,9.9357,0.324,-0.0105,-0.1813,-0.2638,0.0741,0.025,-0.0682,88,2019-08-07 17:01:10:914
-0.5115,9.9978,0.5456,-0.0105,-0.1813,-0.2638,0.0794,0.0026,-0.0746,93,2019-08-07 17:01:10:919
-0.5115,9.9978,0.5456,-0.0105,-0.1813,-0.2638,0.0794,0.0026,-0.0746,98,2019-08-07 17:01:10:924
-0.5115,9.9978,0.5456,0.0465,-0.158,-0.4648,0.089,-0.0261,-0.0714,103,2019-08-07 17:01:10:929
-0.4923,9.9596,0.4513,0.0465,-0.158,-0.4648,0.089,-0.0261,-0.0714,108,2019-08-07 17:01:10:934
-0.4923,9.9596,0.4513,0.0465,-0.158,-0.4648,0.0847,-0.0251,-0.0661,113,2019-08-07 17:01:10:939
-0.4588,9.9023,0.1261,0.0465,-0.158,-0.4648,0.0847,-0.0251,-0.0661,117,2019-08-07 17:01:10:943
-0.4588,9.9023,0.1261,0.047,-0.063,-0.2583,0.0847,-0.0251,-0.0661,123,2019-08-07 17:01:10:949
-0.4588,9.9023,0.1261,0.047,-0.063,-0.2583,0.0773,-6.0E-4,-0.0693,128,2019-08-07 17:01:10:954
-0.4971,9.8927,0.5173,0.047,-0.063,-0.2583,0.0773,-6.0E-4,-0.0693,132,2019-08-07 17:01:10:958
-0.4971,9.8927,0.5173,0.0877,-0.0967,-0.4624,0.0783,-0.0027,-0.065,138,2019-08-07 17:01:10:964
-0.4971,9.8927,0.5173,0.0877,-0.0967,-0.4624,0.0783,-0.0027,-0.065,143,2019-08-07 17:01:10:969
-0.5162,9.9118,0.4183,0.0877,-0.0967,-0.4624,0.0879,-0.0283,-0.0618,148,2019-08-07 17:01:10:974
-0.5162,9.9118,0.4183,0.0462,-0.1545,-0.3583,0.0879,-0.0283,-0.0618,153,2019-08-07 17:01:10:979
-0.4971,9.9405,0.324,0.0462,-0.1545,-0.3583,0.0943,-0.04,-0.0597,158,2019-08-07 17:01:10:984
-0.4971,9.9405,0.324,0.0462,-0.1545,-0.3583,0.0943,-0.04,-0.0597,163,2019-08-07 17:01:10:989
-0.4971,9.9405,0.324,0.0462,-0.1545,-0.3583,0.0997,-0.0475,-0.0575,168,2019-08-07 17:01:10:994
-0.4014,9.8975,0.5267,-0.0178,-0.093,-0.5577,0.0997,-0.0475,-0.0575,172,2019-08-07 17:01:10:998
-0.4014,9.8975,0.5267,-0.0178,-0.093,-0.5577,0.1082,-0.0528,-0.0533,178,2019-08-07 17:01:11:004
-0.4253,9.8832,0.4372,-0.0178,-0.093,-0.5577,0.1082,-0.0528,-0.0533,182,2019-08-07 17:01:11:008
-0.4253,9.8832,0.4372,-0.0178,-0.093,-0.5577,0.1135,-0.0645,-0.0416,188,2019-08-07 17:01:11:014
-0.4253,9.8832,0.4372,-0.0178,-0.093,-0.5577,0.1135,-0.0645,-0.0416,192,2019-08-07 17:01:11:018
-0.4013,9.9405,0.1591,-0.1178,-0.1173,-0.2179,0.0997,-0.0357,-0.0511,198,2019-08-07 17:01:11:024
-0.4013,9.9405,0.1591,-0.1178,-0.1173,-0.2179,0.0997,-0.0357,-0.0511,203,2019-08-07 17:01:11:029
-0.387,10.055,0.1779,-0.1178,-0.1173,-0.2179,0.0858,-0.0251,-0.049,208,2019-08-07 17:01:11:034
-0.387,10.055,0.1779,-0.1178,-0.1173,-0.2179,0.0858,-0.0251,-0.049,212,2019-08-07 17:01:11:038
-0.387,10.055,0.1779,-0.0363,-0.2228,-0.1929,0.0858,-0.0251,-0.049,218,2019-08-07 17:01:11:044
-0.5592,10.0216,-0.0059,-0.0363,-0.2228,-0.1929,0.0773,-0.04,-0.0458,222,2019-08-07 17:01:11:048
-0.5592,10.0216,-0.0059,-0.0363,-0.2228,-0.1929,0.0528,-0.0528,-0.0373,228,2019-08-07 17:01:11:054
-0.5592,10.0216,-0.0059,-0.0363,-0.2228,-0.1929,0.0528,-0.0528,-0.0373,233,2019-08-07 17:01:11:059
-0.741,9.888,-0.1473,0.2652,-0.0896,0.0958,0.0283,-0.0581,-0.0288,238,2019-08-07 17:01:11:064
-0.741,9.888,-0.1473,0.2652,-0.0896,0.0958,0.0283,-0.0581,-0.0288,242,2019-08-07 17:01:11:068
-0.9276,10.0694,0.0365,0.2652,-0.0896,0.0958,0.0283,-0.0581,-0.0288,248,2019-08-07 17:01:11:074
-0.9276,10.0694,0.0365,0.2652,-0.0896,0.0958,0.0123,-0.0837,-0.0224,253,2019-08-07 17:01:11:079
-0.9276,10.0694,0.0365,0.4577,-0.2524,-0.3031,0.0123,-0.0837,-0.0224,258,2019-08-07 17:01:11:084
-0.8654,9.95,0.3099,0.4577,-0.2524,-0.3031,0.0112,-0.1369,-0.0085,263,2019-08-07 17:01:11:089
-0.8654,9.95,0.3099,0.4577,-0.2524,-0.3031,0.0112,-0.1369,-0.0085,268,2019-08-07 17:01:11:094
-0.8654,9.95,0.3099,0.4577,-0.2524,-0.3031,0.0144,-0.1795,-0.0011,273,2019-08-07 17:01:11:099
-0.5639,9.9978,0.2251,0.0767,-0.2,-0.2779,0.0144,-0.1795,-0.0011,278,2019-08-07 17:01:11:104
-0.5639,9.9978,0.2251,0.0767,-0.2,-0.2779,0.0155,-0.2072,0.0149,282,2019-08-07 17:01:11:108
-0.5304,9.9834,0.2722,0.0767,-0.2,-0.2779,0.0155,-0.2072,0.0149,288,2019-08-07 17:01:11:114
-0.5304,9.9834,0.2722,0.0767,-0.2,-0.2779,0.0155,-0.2072,0.0149,293,2019-08-07 17:01:11:119
-0.3917,9.7973,-0.152,-0.0309,-0.0567,-0.1212,0.0187,-0.2328,0.0234,299,2019-08-07 17:01:11:125
-0.3917,9.7973,-0.152,-0.0309,-0.0567,-0.1212,0.0187,-0.2328,0.0234,303,2019-08-07 17:01:11:129
-0.3917,9.7973,-0.152,-0.0309,-0.0567,-0.1212,-0.0101,-0.2254,0.0021,308,2019-08-07 17:01:11:134
-0.2673,9.9405,0.1968,-0.0309,-0.0567,-0.1212,-0.0101,-0.2254,0.0021,313,2019-08-07 17:01:11:139
-0.2673,9.9405,0.1968,-0.1868,-0.1377,-0.2634,-0.0207,-0.2222,-0.0053,318,2019-08-07 17:01:11:144
-0.2673,9.9405,0.1968,-0.1868,-0.1377,-0.2634,-0.0207,-0.2222,-0.0053,323,2019-08-07 17:01:11:149
-0.2768,9.9118,0.1827,-0.1868,-0.1377,-0.2634,-0.026,-0.2328,-0.0181,328,2019-08-07 17:01:11:154
-0.2768,9.9118,0.1827,-0.1868,-0.1377,-0.2634,-0.026,-0.2328,-0.0181,333,2019-08-07 17:01:11:159
-0.2433,9.8832,0.2581,-0.265,-0.0566,-0.2827,-0.0282,-0.2413,-0.0352,338,2019-08-07 17:01:11:164
-0.2433,9.8832,0.2581,-0.265,-0.0566,-0.2827,-0.0282,-0.2413,-0.0352,342,2019-08-07 17:01:11:168
-0.2433,9.8832,0.2581,-0.265,-0.0566,-0.2827,-0.0239,-0.2701,-0.0426,348,2019-08-07 17:01:11:174
-0.0902,10.0121,0.2628,-0.265,-0.0566,-0.2827,-0.0239,-0.2701,-0.0426,352,2019-08-07 17:01:11:178
-0.0902,10.0121,0.2628,-0.5337,-0.2096,-0.183,-0.0207,-0.2648,-0.0575,358,2019-08-07 17:01:11:184
0.0581,10.0216,0.1214,-0.5337,-0.2096,-0.183,-0.0207,-0.2648,-0.0575,363,2019-08-07 17:01:11:189
0.0581,10.0216,0.1214,-0.5337,-0.2096,-0.183,-0.0207,-0.2648,-0.0575,367,2019-08-07 17:01:11:193
0.0581,10.0216,0.1214,-0.5337,-0.2096,-0.183,-0.0271,-0.187,-0.0842,373,2019-08-07 17:01:11:199
-0.0184,9.7591,0.013,-0.4821,0.0381,-0.0336,-0.0271,-0.187,-0.0842,377,2019-08-07 17:01:11:203
-0.0184,9.7591,0.013,-0.4821,0.0381,-0.0336,-0.042,-0.1082,-0.1012,383,2019-08-07 17:01:11:209
-0.0184,9.7591,0.013,-0.4821,0.0381,-0.0336,-0.042,-0.1082,-0.1012,388,2019-08-07 17:01:11:214
-0.2624,9.8498,0.2675,-0.4821,0.0381,-0.0336,-0.0474,-0.0283,-0.1151,393,2019-08-07 17:01:11:219
-0.2624,9.8498,0.2675,-0.1187,-0.044,-0.3616,-0.0474,-0.0283,-0.1151,398,2019-08-07 17:01:11:224
-0.5925,9.8545,0.6022,-0.1187,-0.044,-0.3616,-0.0452,0.0111,-0.1183,403,2019-08-07 17:01:11:229
-0.5925,9.8545,0.6022,-0.1187,-0.044,-0.3616,-0.0452,0.0111,-0.1183,407,2019-08-07 17:01:11:233
-0.5925,9.8545,0.6022,-0.1187,-0.044,-0.3616,-0.0314,0.0069,-0.1151,413,2019-08-07 17:01:11:239
-0.6978,9.9166,0.6446,0.1541,-0.1217,-0.6414,-0.0314,0.0069,-0.1151,417,2019-08-07 17:01:11:243
-0.6978,9.9166,0.6446,0.1541,-0.1217,-0.6414,-0.0111,-0.0379,-0.1033,423,2019-08-07 17:01:11:249
-0.6978,9.9166,0.6446,0.1541,-0.1217,-0.6414,-0.0111,-0.0379,-0.1033,428,2019-08-07 17:01:11:254
-0.6407,9.9691,0.5267,0.1541,-0.1217,-0.6414,0.008,-0.0506,-0.0959,433,2019-08-07 17:01:11:259
-0.6407,9.9691,0.5267,-0.005,-0.0465,-0.5227,0.008,-0.0506,-0.0959,438,2019-08-07 17:01:11:264
-0.5641,9.7925,0.489,-0.005,-0.0465,-0.5227,0.0144,-0.0421,-0.0938,443,2019-08-07 17:01:11:269
-0.5641,9.7925,0.489,-0.005,-0.0465,-0.5227,0.0144,-0.0421,-0.0938,448,2019-08-07 17:01:11:274
-0.5641,9.7925,0.489,-0.005,-0.0465,-0.5227,0.0176,-0.024,-0.0874,453,2019-08-07 17:01:11:279
-0.545,9.888,0.3052,-0.0658,-0.1287,-0.3007,0.0176,-0.024,-0.0874,458,2019-08-07 17:01:11:284
-0.545,9.888,0.3052,-0.0658,-0.1287,-0.3007,0.0176,-0.0134,-0.0863,463,2019-08-07 17:01:11:289
-0.6598,9.845,0.4984,-0.0658,-0.1287,-0.3007,0.0176,-0.0134,-0.0863,468,2019-08-07 17:01:11:294
-0.6598,9.845,0.4984,-0.0658,-0.1287,-0.3007,0.0176,-0.0134,-0.0863,473,2019-08-07 17:01:11:299
-0.6598,9.845,0.4984,0.0888,-0.0152,-0.424,0.0304,-0.008,-0.082,478,2019-08-07 17:01:11:304
-0.6933,9.7877,0.3523,0.0888,-0.0152,-0.424,0.0304,-0.008,-0.082,483,2019-08-07 17:01:11:309
-0.6933,9.7877,0.3523,0.0888,-0.0152,-0.424,0.0389,-0.0123,-0.0778,487,2019-08-07 17:01:11:313
-0.7028,9.8116,0.4843,0.0888,-0.0152,-0.424,0.0389,-0.0123,-0.0778,493,2019-08-07 17:01:11:319
-0.7028,9.8116,0.4843,0.087,-0.04,-0.5648,0.0443,-0.0102,-0.0756,498,2019-08-07 17:01:11:324
-0.7028,9.8116,0.4843,0.087,-0.04,-0.5648,0.0443,-0.0102,-0.0756,504,2019-08-07 17:01:11:330
-0.6981,9.8737,0.5267,0.087,-0.04,-0.5648,0.0624,-0.0016,-0.0682,507,2019-08-07 17:01:11:333
-0.6981,9.8737,0.5267,0.087,-0.04,-0.5648,0.0624,-0.0016,-0.0682,512,2019-08-07 17:01:11:338
-0.5593,9.8355,0.5173,-0.0704,-0.0457,-0.5211,0.0805,0.0175,-0.0703,518,2019-08-07 17:01:11:344
-0.5593,9.8355,0.5173,-0.0704,-0.0457,-0.5211,0.0805,0.0175,-0.0703,522,2019-08-07 17:01:11:348
-0.5593,9.8355,0.5173,-0.0704,-0.0457,-0.5211,0.0805,0.0175,-0.0703,528,2019-08-07 17:01:11:354
-0.6071,9.8641,0.4325,-0.0704,-0.0457,-0.5211,0.0879,0.0356,-0.0735,532,2019-08-07 17:01:11:358
-0.6071,9.8641,0.4325,0.0114,-0.1134,-0.4831,0.0879,0.0356,-0.0735,538,2019-08-07 17:01:11:364
-0.6071,9.8641,0.4325,0.0114,-0.1134,-0.4831,0.0879,0.0356,-0.0735,543,2019-08-07 17:01:11:369
-0.7267,9.9166,0.4277,0.0114,-0.1134,-0.4831,0.1007,0.0335,-0.0682,548,2019-08-07 17:01:11:374
-0.7267,9.9166,0.4277,0.0474,-0.0853,-0.369,0.106,0.0239,-0.0671,553,2019-08-07 17:01:11:379
-0.698,9.8593,0.423,0.0474,-0.0853,-0.369,0.106,0.0239,-0.0671,558,2019-08-07 17:01:11:384
-0.698,9.8593,0.423,0.0474,-0.0853,-0.369,0.106,0.0239,-0.0671,562,2019-08-07 17:01:11:388
-0.698,9.8593,0.423,0.0474,-0.0853,-0.369,0.1188,-0.008,-0.0661,568,2019-08-07 17:01:11:394
-0.5736,9.9548,0.6587,-0.0904,-0.1674,-0.7029,0.1337,-0.0517,-0.0586,573,2019-08-07 17:01:11:399
-0.5736,9.9548,0.6587,-0.0904,-0.1674,-0.7029,0.1337,-0.0517,-0.0586,578,2019-08-07 17:01:11:404
-0.4301,10.0025,0.2062,-0.0904,-0.1674,-0.7029,0.1337,-0.0517,-0.0586,582,2019-08-07 17:01:11:408
-0.4301,10.0025,0.2062,-0.1913,-0.1396,-0.0814,0.1391,-0.0166,-0.0597,588,2019-08-07 17:01:11:414
-0.5258,9.8784,0.0695,-0.1913,-0.1396,-0.0814,0.1231,0.0782,-0.0735,593,2019-08-07 17:01:11:419
-0.5258,9.8784,0.0695,-0.1913,-0.1396,-0.0814,0.1231,0.0782,-0.0735,597,2019-08-07 17:01:11:423
-0.5258,9.8784,0.0695,-0.1913,-0.1396,-0.0814,0.1231,0.0782,-0.0735,602,2019-08-07 17:01:11:428
-0.6932,9.8641,0.2863,-0.1913,-0.1396,-0.0814,0.1178,0.1283,-0.0735,608,2019-08-07 17:01:11:434
-0.6932,9.8641,0.2863,0.1108,-0.0309,-0.3783,0.1178,0.1283,-0.0735,613,2019-08-07 17:01:11:439
-0.6932,9.8641,0.2863,0.1108,-0.0309,-0.3783,0.1263,0.1102,-0.0725,617,2019-08-07 17:01:11:443
-0.8224,9.7734,0.2109,0.1108,-0.0309,-0.3783,0.1263,0.1102,-0.0725,623,2019-08-07 17:01:11:449
-0.8224,9.7734,0.2109,0.1108,-0.0309,-0.3783,0.1401,0.0964,-0.0725,628,2019-08-07 17:01:11:454
-0.7697,9.8259,0.1685,0.0717,0.0393,-0.3231,0.1401,0.0964,-0.0725,633,2019-08-07 17:01:11:459
-0.7697,9.8259,0.1685,0.0717,0.0393,-0.3231,0.138,0.0942,-0.0714,637,2019-08-07 17:01:11:463
-0.7697,9.8259,0.1685,0.0717,0.0393,-0.3231,0.138,0.0942,-0.0714,643,2019-08-07 17:01:11:469
-0.6597,10.0455,0.2439,0.0717,0.0393,-0.3231,0.1412,0.09,-0.0682,648,2019-08-07 17:01:11:474
-0.6597,10.0455,0.2439,-0.0712,-0.3009,-0.2646,0.1412,0.09,-0.0682,652,2019-08-07 17:01:11:478
-0.698,10.0455,0.0789,-0.0712,-0.3009,-0.2646,0.1423,0.0836,-0.0629,658,2019-08-07 17:01:11:484
-0.698,10.0455,0.0789,-0.0712,-0.3009,-0.2646,0.1423,0.0836,-0.0629,663,2019-08-07 17:01:11:489
-0.698,10.0455,0.0789,-0.0712,-0.3009,-0.2646,0.1284,0.0878,-0.0607,667,2019-08-07 17:01:11:493
-0.7936,9.9548,-0.185,0.0653,-0.1734,0.0141,0.1284,0.0878,-0.0607,673,2019-08-07 17:01:11:499
-0.7936,9.9548,-0.185,0.0653,-0.1734,0.0141,0.1124,0.0782,-0.0533,678,2019-08-07 17:01:11:504
-1.0711,9.8307,-0.2793,0.0653,-0.1734,0.0141,0.1124,0.0782,-0.0533,683,2019-08-07 17:01:11:509
-1.0711,9.8307,-0.2793,0.0653,-0.1734,0.0141,0.089,0.0537,-0.0469,688,2019-08-07 17:01:11:514
-1.0711,9.8307,-0.2793,0.4307,-0.0649,0.0098,0.089,0.0537,-0.0469,693,2019-08-07 17:01:11:519
-1.1764,9.8784,-0.2133,0.4307,-0.0649,0.0098,0.0794,-0.0059,-0.0384,698,2019-08-07 17:01:11:524
-1.1764,9.8784,-0.2133,0.4307,-0.0649,0.0098,0.0794,-0.0059,-0.0384,702,2019-08-07 17:01:11:528
-0.9132,9.845,-0.119,0.4307,-0.0649,0.0098,0.0784,-0.0677,-0.033,708,2019-08-07 17:01:11:534
-0.9132,9.845,-0.119,0.1238,-0.1233,-0.0197,0.0784,-0.0677,-0.033,713,2019-08-07 17:01:11:539
-0.9132,9.845,-0.119,0.1238,-0.1233,-0.0197,0.0634,-0.0741,-0.0394,718,2019-08-07 17:01:11:544
-0.6214,9.9691,-0.3123,0.1238,-0.1233,-0.0197,0.0634,-0.0741,-0.0394,723,2019-08-07 17:01:11:549
-0.6214,9.9691,-0.3123,0.1238,-0.1233,-0.0197,0.04,-0.0155,-0.0458,728,2019-08-07 17:01:11:554
-0.3822,9.9548,-0.3642,-0.3996,-0.1957,0.1242,0.04,-0.0155,-0.0458,733,2019-08-07 17:01:11:559
-0.3822,9.9548,-0.3642,-0.3996,-0.1957,0.1242,0.0166,0.0569,-0.0629,738,2019-08-07 17:01:11:564
-0.3822,9.9548,-0.3642,-0.3996,-0.1957,0.1242,0.0166,0.0569,-0.0629,742,2019-08-07 17:01:11:568
-0.564,10.0025,-0.0295,-0.3996,-0.1957,0.1242,0.0017,0.0836,-0.0671,748,2019-08-07 17:01:11:574
-0.564,10.0025,-0.0295,-0.0889,-0.2109,-0.3224,0.0017,0.0836,-0.0671,753,2019-08-07 17:01:11:579
-0.564,10.0025,-0.0295,-0.0889,-0.2109,-0.3224,0.0017,0.0836,-0.0671,757,2019-08-07 17:01:11:583
-0.8271,9.9309,0.1072,-0.0889,-0.2109,-0.3224,0.007,0.0591,-0.0629,763,2019-08-07 17:01:11:589
-0.8271,9.9309,0.1072,-0.0889,-0.2109,-0.3224,0.007,0.0591,-0.0629,767,2019-08-07 17:01:11:593
-0.9036,9.845,0.0554,0.1234,-0.0686,-0.2795,0.0102,0.026,-0.0597,773,2019-08-07 17:01:11:599
-0.9036,9.845,0.0554,0.1234,-0.0686,-0.2795,0.0102,0.026,-0.0597,778,2019-08-07 17:01:11:604
-0.9036,9.845,0.0554,0.1234,-0.0686,-0.2795,0.007,-0.0059,-0.0533,783,2019-08-07 17:01:11:609
-0.9849,10.0837,0.2157,0.1234,-0.0686,-0.2795,0.007,-0.0059,-0.0533,787,2019-08-07 17:01:11:613
-0.9849,10.0837,0.2157,0.2313,-0.4037,-0.5371,0.0155,-0.0634,-0.0448,793,2019-08-07 17:01:11:619
-0.9849,10.0837,0.2157,0.2313,-0.4037,-0.5371,0.0155,-0.0634,-0.0448,798,2019-08-07 17:01:11:624
-0.9802,10.098,0.1261,0.2313,-0.4037,-0.5371,0.0219,-0.1178,-0.033,803,2019-08-07 17:01:11:629
-0.9802,10.098,0.1261,0.2313,-0.4037,-0.5371,0.0219,-0.1178,-0.033,807,2019-08-07 17:01:11:633
-0.8127,9.8927,-0.2227,0.0132,-0.1179,-9.0E-4,0.0219,-0.1519,-0.0309,812,2019-08-07 17:01:11:638
-0.8127,9.8927,-0.2227,0.0132,-0.1179,-9.0E-4,0.0219,-0.1519,-0.0309,818,2019-08-07 17:01:11:644
-0.8127,9.8927,-0.2227,0.0132,-0.1179,-9.0E-4,-0.0037,-0.1316,-0.0341,822,2019-08-07 17:01:11:648
-0.6979,9.8784,-0.1426,0.0132,-0.1179,-9.0E-4,-0.0037,-0.1316,-0.0341,828,2019-08-07 17:01:11:654
-0.6979,9.8784,-0.1426,-0.0652,-0.1089,-0.1396,-0.0122,-0.1273,-0.0416,832,2019-08-07 17:01:11:658
-0.6979,9.8163,-0.0483,-0.0652,-0.1089,-0.1396,-0.0122,-0.1273,-0.0416,838,2019-08-07 17:01:11:664
-0.6979,9.8163,-0.0483,-0.0652,-0.1089,-0.1396,-0.0122,-0.1273,-0.0416,843,2019-08-07 17:01:11:669
-0.6979,9.8163,-0.0483,-0.0652,-0.1089,-0.1396,-0.0207,-0.1316,-0.0458,848,2019-08-07 17:01:11:674
-0.6117,9.888,-0.1379,-0.2313,-0.1189,-0.0576,-0.0207,-0.1316,-0.0458,852,2019-08-07 17:01:11:678
-0.6117,9.888,-0.1379,-0.2313,-0.1189,-0.0576,-0.0303,-0.0965,-0.0597,858,2019-08-07 17:01:11:684
-0.6787,9.9691,-0.152,-0.2313,-0.1189,-0.0576,-0.0442,-0.0624,-0.0629,863,2019-08-07 17:01:11:689
-0.6787,9.9691,-0.152,-0.2313,-0.1189,-0.0576,-0.0442,-0.0624,-0.0629,868,2019-08-07 17:01:11:694
-0.6787,9.9691,-0.152,-0.0277,-0.2581,-0.1751,-0.0442,-0.0624,-0.0629,873,2019-08-07 17:01:11:699
-0.8605,9.9691,0.0035,-0.0277,-0.2581,-0.1751,-0.0537,-0.0325,-0.0703,877,2019-08-07 17:01:11:703
-0.8605,9.9691,0.0035,-0.0277,-0.2581,-0.1751,-0.0537,-0.0325,-0.0703,883,2019-08-07 17:01:11:709
-0.8605,9.9691,0.0035,-0.0277,-0.2581,-0.1751,-0.0495,-0.0464,-0.0661,888,2019-08-07 17:01:11:714
-1.0806,9.802,0.1308,-0.0277,-0.2581,-0.1751,-0.0495,-0.0464,-0.0661,893,2019-08-07 17:01:11:719
-1.0806,9.802,0.1308,0.2777,-0.0348,-0.3882,-0.0452,-0.0837,-0.0586,900,2019-08-07 17:01:11:726
-1.0231,9.8116,-0.0577,0.2777,-0.0348,-0.3882,-0.0452,-0.0837,-0.0586,903,2019-08-07 17:01:11:729
-1.0231,9.8116,-0.0577,0.2777,-0.0348,-0.3882,-0.0505,-0.0986,-0.0565,908,2019-08-07 17:01:11:734
-1.0231,9.8116,-0.0577,0.2777,-0.0348,-0.3882,-0.0505,-0.0986,-0.0565,913,2019-08-07 17:01:11:739
-0.8509,9.8689,-0.0719,0.0445,-0.0978,-0.0976,-0.0505,-0.0986,-0.0565,918,2019-08-07 17:01:11:744
-0.8509,9.8689,-0.0719,0.0445,-0.0978,-0.0976,-0.0612,-0.1018,-0.0575,923,2019-08-07 17:01:11:749
-0.8509,9.8689,-0.0719,0.0445,-0.0978,-0.0976,-0.0612,-0.1018,-0.0575,927,2019-08-07 17:01:11:753
-0.7217,9.8498,-0.1709,-0.2586,-0.1701,0.0584,-0.0687,-0.0933,-0.0629,933,2019-08-07 17:01:11:759
-0.7217,9.8498,-0.1709,-0.2586,-0.1701,0.0584,-0.0687,-0.0933,-0.0629,938,2019-08-07 17:01:11:764
-0.516,9.9166,-0.0247,-0.2586,-0.1701,0.0584,-0.0814,-0.0496,-0.0767,943,2019-08-07 17:01:11:769
-0.516,9.9166,-0.0247,-0.2586,-0.1701,0.0584,-0.0814,-0.0496,-0.0767,948,2019-08-07 17:01:11:774
-0.516,9.9166,-0.0247,-0.2586,-0.1701,0.0584,-0.09,-0.007,-0.0916,952,2019-08-07 17:01:11:778
-0.5495,9.8354,0.1167,-0.3297,-0.066,-0.2626,-0.09,-0.007,-0.0916,958,2019-08-07 17:01:11:784
-0.5495,9.8354,0.1167,-0.3297,-0.066,-0.2626,-0.0889,0.0207,-0.098,963,2019-08-07 17:01:11:789
-0.5543,9.9166,0.3052,-0.3331,-0.1477,-0.4411,-0.0889,0.0207,-0.098,968,2019-08-07 17:01:11:794
-0.5543,9.9166,0.3052,-0.3331,-0.1477,-0.4411,-0.0676,0.0303,-0.1076,973,2019-08-07 17:01:11:799
-0.5543,9.9166,0.3052,-0.3331,-0.1477,-0.4411,-0.0676,0.0303,-0.1076,977,2019-08-07 17:01:11:803
-0.8078,10.0264,0.4419,-0.3331,-0.1477,-0.4411,-0.0516,0.0314,-0.1097,983,2019-08-07 17:01:11:809
-0.8078,10.0264,0.4419,-0.0178,-0.3307,-0.5747,-0.0516,0.0314,-0.1097,987,2019-08-07 17:01:11:813
-0.8078,10.0264,0.4419,-0.0178,-0.3307,-0.5747,-0.0516,0.0314,-0.1097,993,2019-08-07 17:01:11:819
-1.0087,10.1982,0.5174,-0.0178,-0.3307,-0.5747,-0.026,0.0165,-0.0991,998,2019-08-07 17:01:11:824
-1.0087,10.1982,0.5174,-0.0178,-0.3307,-0.5747,-0.026,0.0165,-0.0991,1003,2019-08-07 17:01:11:829
-1.3771,10.0693,0.6258,0.4016,-0.3278,-0.6599,0.0166,-0.0261,-0.0863,1007,2019-08-07 17:01:11:833
-1.3771,10.0693,0.6258,0.4016,-0.3278,-0.6599,0.0166,-0.0261,-0.0863,1013,2019-08-07 17:01:11:839
-1.3771,10.0693,0.6258,0.4016,-0.3278,-0.6599,0.0496,-0.0709,-0.0735,1017,2019-08-07 17:01:11:843
-1.2719,9.7161,0.7153,0.4016,-0.3278,-0.6599,0.0496,-0.0709,-0.0735,1023,2019-08-07 17:01:11:849
-1.2719,9.7161,0.7153,0.0921,0.1479,-0.793,0.0954,-0.1327,-0.0629,1028,2019-08-07 17:01:11:854
-0.8078,9.6636,0.5645,0.0921,0.1479,-0.793,0.0954,-0.1327,-0.0629,1033,2019-08-07 17:01:11:859
-0.8078,9.6636,0.5645,0.0921,0.1479,-0.793,0.1242,-0.1071,-0.0756,1038,2019-08-07 17:01:11:864
-0.8078,9.6636,0.5645,0.0921,0.1479,-0.793,0.1242,-0.1071,-0.0756,1043,2019-08-07 17:01:11:869
-0.3915,9.802,0.6541,-0.5662,-0.0397,-0.7792,0.1529,-0.024,-0.0906,1048,2019-08-07 17:01:11:874
-0.3915,9.802,0.6541,-0.5662,-0.0397,-0.7792,0.1529,-0.024,-0.0906,1053,2019-08-07 17:01:11:879
-0.1906,9.8307,0.8803,-0.5662,-0.0397,-0.7792,0.1891,0.0921,-0.1076,1058,2019-08-07 17:01:11:884
-0.1906,9.8307,0.8803,-0.5662,-0.0397,-0.7792,0.1891,0.0921,-0.1076,1063,2019-08-07 17:01:11:889
-0.1906,9.8307,0.8803,-0.561,0.0158,-1.0005,0.2243,0.2093,-0.1151,1067,2019-08-07 17:01:11:893
-0.6116,9.6588,0.918,-0.561,0.0158,-1.0005,0.2243,0.2093,-0.1151,1073,2019-08-07 17:01:11:899
-0.6116,9.6588,0.918,-0.561,0.0158,-1.0005,0.2829,0.2796,-0.1193,1077,2019-08-07 17:01:11:903
-0.9848,9.7638,1.5403,-0.561,0.0158,-1.0005,0.2829,0.2796,-0.1193,1083,2019-08-07 17:01:11:909
-0.9848,9.7638,1.5403,-0.0081,-0.0349,-1.8714,0.2829,0.2796,-0.1193,1088,2019-08-07 17:01:11:914
-0.9848,9.7638,1.5403,-0.0081,-0.0349,-1.8714,0.3809,0.2487,-0.1332,1093,2019-08-07 17:01:11:919
-0.8077,9.9691,1.8891,-0.0081,-0.0349,-1.8714,0.3809,0.2487,-0.1332,1099,2019-08-07 17:01:11:925
-0.8077,9.9691,1.8891,-0.0081,-0.0349,-1.8714,0.497,0.1645,-0.1523,1103,2019-08-07 17:01:11:929
-0.8077,9.9691,1.8891,-0.8747,-0.975,-2.2603,0.497,0.1645,-0.1523,1108,2019-08-07 17:01:11:934
0.0152,10.9,1.8655,-0.8747,-0.975,-2.2603,0.6174,0.123,-0.163,1112,2019-08-07 17:01:11:938
0.0152,10.9,1.8655,-0.8747,-0.975,-2.2603,0.6174,0.123,-0.163,1118,2019-08-07 17:01:11:944
0.0104,11.6447,1.7665,-0.8747,-0.975,-2.2603,0.7335,0.2593,-0.195,1123,2019-08-07 17:01:11:949
0.0104,11.6447,1.7665,-0.833,-2.2088,-2.2982,0.7335,0.2593,-0.195,1128,2019-08-07 17:01:11:954
0.0104,11.6447,1.7665,-0.833,-2.2088,-2.2982,0.7335,0.2593,-0.195,1133,2019-08-07 17:01:11:959
-0.7551,11.363,2.7894,-0.833,-2.2088,-2.2982,0.8496,0.4255,-0.2109,1138,2019-08-07 17:01:11:964
-0.7551,11.363,2.7894,-0.833,-2.2088,-2.2982,0.8496,0.4255,-0.2109,1143,2019-08-07 17:01:11:969
-0.7551,11.363,2.7894,0.1889,-2.9316,-4.2694,0.922,0.385,-0.2131,1148,2019-08-07 17:01:11:974
-1.4153,13.0243,3.8312,0.1889,-2.9316,-4.2694,0.922,0.385,-0.2131,1153,2019-08-07 17:01:11:979
-1.4153,13.0243,3.8312,0.1889,-2.9316,-4.2694,1.1628,0.1262,-0.2429,1157,2019-08-07 17:01:11:983
-1.4153,13.0243,3.8312,0.1889,-2.9316,-4.2694,1.1628,0.1262,-0.2429,1163,2019-08-07 17:01:11:989
-2.0995,14.0077,3.9632,0.8838,-4.101,-3.9009,1.3364,-0.008,-0.212,1168,2019-08-07 17:01:11:994
-2.0995,14.0077,3.9632,0.8838,-4.101,-3.9009,1.3364,-0.008,-0.212,1173,2019-08-07 17:01:11:999
-1.6832,13.7356,2.615,0.8838,-4.101,-3.9009,1.4163,0.0101,-0.2567,1178,2019-08-07 17:01:12:004
-1.6832,13.7356,2.615,0.8838,-4.101,-3.9009,1.4163,0.0101,-0.2567,1183,2019-08-07 17:01:12:009
-1.6832,13.7356,2.615,0.3134,-4.531,-4.1597,1.4163,0.0101,-0.2567,1188,2019-08-07 17:01:12:014
-1.4249,14.3658,3.1713,0.3134,-4.531,-4.1597,1.526,0.0154,-0.277,1193,2019-08-07 17:01:12:019
-1.4249,14.3658,3.1713,0.3134,-4.531,-4.1597,1.526,0.0154,-0.277,1198,2019-08-07 17:01:12:024
-1.1043,14.9816,2.7564,0.3134,-4.531,-4.1597,1.673,-0.0581,-0.3036,1202,2019-08-07 17:01:12:028
-1.1043,14.9816,2.7564,-0.1442,-5.8379,-3.5178,1.673,-0.0581,-0.3036,1208,2019-08-07 17:01:12:034
-1.1043,14.9816,2.7564,-0.1442,-5.8379,-3.5178,1.7061,-0.121,-0.3665,1213,2019-08-07 17:01:12:039
-1.0182,15.9411,1.6581,-0.1442,-5.8379,-3.5178,1.7061,-0.121,-0.3665,1218,2019-08-07 17:01:12:044
-1.0182,15.9411,1.6581,-0.1442,-5.8379,-3.5178,1.7061,-0.1678,-0.4016,1223,2019-08-07 17:01:12:049
-1.0182,15.9411,1.6581,-0.1442,-5.8379,-3.5178,1.7061,-0.1678,-0.4016,1228,2019-08-07 17:01:12:054
-0.3627,16.5999,1.5026,-0.8546,-6.8252,-3.2883,1.835,-0.2765,-0.4037,1233,2019-08-07 17:01:12:059
-0.3627,16.5999,1.5026,-0.8546,-6.8252,-3.2883,1.835,-0.2765,-0.4037,1237,2019-08-07 17:01:12:063
-0.3627,16.5999,1.5026,-0.8546,-6.8252,-3.2883,1.835,-0.2765,-0.4037,1243,2019-08-07 17:01:12:069
-0.6546,18.4092,0.3053,-0.4483,-9.6335,-1.1898,1.917,-0.465,-0.3313,1248,2019-08-07 17:01:12:074
-0.6546,18.4092,0.3053,-0.4483,-9.6335,-1.1898,1.917,-0.465,-0.3313,1253,2019-08-07 17:01:12:079
-0.6546,18.4092,0.3053,-0.4483,-9.6335,-1.1898,1.9255,-0.5204,-0.0874,1258,2019-08-07 17:01:12:084
-1.4152,19.8079,-1.4106,0.0114,-10.3329,-0.7083,1.9255,-0.5204,-0.0874,1263,2019-08-07 17:01:12:089
-1.4152,19.8079,-1.4106,0.0114,-10.3329,-0.7083,1.9255,-0.5204,-0.0874,1268,2019-08-07 17:01:12:094
-1.4152,19.8079,-1.4106,0.0114,-10.3329,-0.7083,1.8797,-0.481,0.0511,1272,2019-08-07 17:01:12:098
-2.3003,20.0657,0.0837,1.2951,-11.0596,-2.9394,1.8797,-0.481,0.0511,1278,2019-08-07 17:01:12:104
-2.3003,20.0657,0.0837,1.2951,-11.0596,-2.9394,1.9681,-0.8368,0.2226,1283,2019-08-07 17:01:12:109
-2.6161,20.5574,-0.4301,1.2951,-11.0596,-2.9394,1.9681,-0.8368,0.2226,1287,2019-08-07 17:01:12:113
-2.6161,20.5574,-0.4301,1.2951,-11.0596,-2.9394,1.9681,-0.8368,0.2226,1293,2019-08-07 17:01:12:119
-2.6161,20.5574,-0.4301,1.2951,-11.0596,-2.9394,1.9777,-0.9316,0.408,1297,2019-08-07 17:01:12:123
-1.3148,21.2448,-2.2449,-0.0867,-11.9426,-0.5374,1.9777,-0.9316,0.408,1302,2019-08-07 17:01:12:128
-1.3148,21.2448,-2.2449,-0.0867,-11.9426,-0.5374,1.8754,-0.8006,0.4719,1308,2019-08-07 17:01:12:134
-0.865,22.6483,-2.9614,-0.5122,-13.3918,0.0194,1.8754,-0.8006,0.4719,1313,2019-08-07 17:01:12:139
-0.865,22.6483,-2.9614,-0.5122,-13.3918,0.0194,1.7295,-0.628,0.4985,1317,2019-08-07 17:01:12:143
-0.865,22.6483,-2.9614,-0.5122,-13.3918,0.0194,1.7295,-0.628,0.4985,1323,2019-08-07 17:01:12:149
-2.0419,23.7463,-4.4604,-0.5122,-13.3918,0.0194,1.4547,-0.3692,0.4889,1328,2019-08-07 17:01:12:154
-2.0419,23.7463,-4.4604,1.1637,-14.6699,1.4778,1.4547,-0.3692,0.4889,1333,2019-08-07 17:01:12:159
-3.238,23.5458,-4.9035,1.1637,-14.6699,1.4778,1.4547,-0.3692,0.4889,1338,2019-08-07 17:01:12:164
-3.238,23.5458,-4.9035,1.1637,-14.6699,1.4778,1.2139,-0.3361,0.5028,1343,2019-08-07 17:01:12:169
-3.238,23.5458,-4.9035,1.1637,-14.6699,1.4778,1.2139,-0.3361,0.5028,1347,2019-08-07 17:01:12:173
-4.1996,21.875,-5.3654,2.953,-12.7708,1.9309,1.1063,-0.5013,0.522,1353,2019-08-07 17:01:12:179
-4.1996,21.875,-5.3654,2.953,-12.7708,1.9309,1.1063,-0.5013,0.522,1358,2019-08-07 17:01:12:184
-3.6446,20.7245,-5.7944,2.953,-12.7708,1.9309,1.0957,-0.823,0.5348,1363,2019-08-07 17:01:12:189
-3.6446,20.7245,-5.7944,2.953,-12.7708,1.9309,1.0957,-0.823,0.5348,1368,2019-08-07 17:01:12:194
-3.6446,20.7245,-5.7944,2.2109,-10.7666,3.1636,1.0733,-0.9977,0.5092,1373,2019-08-07 17:01:12:199
-3.3671,18.8532,-7.76,2.2109,-10.7666,3.1636,1.0733,-0.9977,0.5092,1378,2019-08-07 17:01:12:204
-3.3671,18.8532,-7.76,2.2109,-10.7666,3.1636,0.905,-0.8698,0.5113,1384,2019-08-07 17:01:12:210
-3.3671,18.8532,-7.76,2.2109,-10.7666,3.1636,0.905,-0.8698,0.5113,1388,2019-08-07 17:01:12:214
-2.5395,16.7574,-10.0274,1.1727,-7.42,6.4695,0.905,-0.8698,0.5113,1393,2019-08-07 17:01:12:219
-2.5395,16.7574,-10.0274,1.1727,-7.42,6.4695,0.5481,-0.3969,0.5166,1397,2019-08-07 17:01:12:223
-2.4055,15.2823,-11.154,1.1727,-7.42,6.4695,0.5481,-0.3969,0.5166,1403,2019-08-07 17:01:12:229
-2.4055,15.2823,-11.154,1.1727,-7.42,6.4695,-0.0942,0.3669,0.4485,1408,2019-08-07 17:01:12:234
-2.3289,14.0507,-10.3196,1.2347,-5.0844,6.4928,-0.0942,0.3669,0.4485,1413,2019-08-07 17:01:12:239
-2.3289,14.0507,-10.3196,1.2347,-5.0844,6.4928,-0.5427,0.9358,0.3952,1418,2019-08-07 17:01:12:244
-2.4301,12.442,-7.8309,1.2347,-5.0844,6.4928,-0.5427,0.9358,0.3952,1424,2019-08-07 17:01:12:250
-2.4301,12.442,-7.8309,1.2347,-5.0844,6.4928,-0.5427,0.9358,0.3952,1427,2019-08-07 17:01:12:253
-2.4301,12.442,-7.8309,1.592,-2.1478,2.8152,-0.8825,1.1755,0.3451,1433,2019-08-07 17:01:12:259
-2.5593,10.3176,-5.7992,1.592,-2.1478,2.8152,-0.8825,1.1755,0.3451,1438,2019-08-07 17:01:12:264
-2.5593,10.3176,-5.7992,1.592,-2.1478,2.8152,-1.1275,0.9986,0.2695,1443,2019-08-07 17:01:12:269
-2.5593,10.3176,-5.7992,1.592,-2.1478,2.8152,-1.1275,0.9986,0.2695,1448,2019-08-07 17:01:12:274
-2.4588,8.5227,-6.6006,1.6862,0.8362,3.3337,-1.3022,0.6908,0.1875,1453,2019-08-07 17:01:12:279
-2.4588,8.5227,-6.6006,1.6862,0.8362,3.3337,-1.3022,0.6908,0.1875,1458,2019-08-07 17:01:12:284
-2.3536,7.3149,-7.2181,1.6862,0.8362,3.3337,-1.5174,0.6588,0.1502,1463,2019-08-07 17:01:12:289
-2.3536,7.3149,-7.2181,1.6862,0.8362,3.3337,-1.5174,0.6588,0.1502,1468,2019-08-07 17:01:12:294
-2.3536,7.3149,-7.2181,0.4397,3.7896,3.4432,-1.8945,0.8293,0.1672,1473,2019-08-07 17:01:12:299
-0.9327,4.7705,-6.6242,0.4397,3.7896,3.4432,-1.8945,0.8293,0.1672,1477,2019-08-07 17:01:12:303
-0.9327,4.7705,-6.6242,0.4397,3.7896,3.4432,-2.1001,0.9507,0.1395,1483,2019-08-07 17:01:12:309
-0.4303,1.7677,-6.0868,-0.3212,6.259,2.9308,-2.1001,0.9507,0.1395,1488,2019-08-07 17:01:12:314
-0.4303,1.7677,-6.0868,-0.3212,6.259,2.9308,-2.3728,1.152,0.0405,1493,2019-08-07 17:01:12:319
-0.4303,1.7677,-6.0868,-0.3212,6.259,2.9308,-2.3728,1.152,0.0405,1498,2019-08-07 17:01:12:324
-0.6456,-1.4928,-5.6107,-0.0129,11.5301,2.5164,-2.5539,1.3406,-0.0032,1503,2019-08-07 17:01:12:329
-0.6456,-1.4928,-5.6107,-0.0129,11.5301,2.5164,-2.5539,1.3406,-0.0032,1508,2019-08-07 17:01:12:334
-0.6456,-1.4928,-5.6107,-0.0129,11.5301,2.5164,-2.5539,1.3406,-0.0032,1513,2019-08-07 17:01:12:339
-0.6026,-4.6578,-4.6632,-0.0195,14.0975,2.0667,-2.6903,1.364,-0.0256,1518,2019-08-07 17:01:12:344
-0.6026,-4.6578,-4.6632,-0.0195,14.0975,2.0667,-2.6903,1.364,-0.0256,1523,2019-08-07 17:01:12:349
-0.6026,-4.6578,-4.6632,-0.0195,14.0975,2.0667,-2.7734,1.3097,-0.0352,1527,2019-08-07 17:01:12:353
-0.9279,-7.8754,-4.0598,0.342,18.4589,1.6969,-2.7734,1.3097,-0.0352,1533,2019-08-07 17:01:12:359
-0.9279,-7.8754,-4.0598,0.342,18.4589,1.6969,-2.7755,1.1531,-0.0597,1538,2019-08-07 17:01:12:364
-0.9279,-7.8754,-4.0598,0.342,18.4589,1.6969,-2.7755,1.1531,-0.0597,1543,2019-08-07 17:01:12:369
-0.8131,-10.5249,-3.1642,0.342,18.4589,1.6969,-2.605,0.8431,-0.1151,1548,2019-08-07 17:01:12:374
-0.8131,-10.5249,-3.1642,0.4444,20.7212,1.392,-2.605,0.8431,-0.1151,1553,2019-08-07 17:01:12:379
-1.0762,-11.1598,-2.9851,0.4444,20.7212,1.392,-2.3398,0.5342,-0.1183,1558,2019-08-07 17:01:12:384
-1.0762,-11.1598,-2.9851,0.4444,20.7212,1.392,-2.3398,0.5342,-0.1183,1563,2019-08-07 17:01:12:389
-1.0762,-11.1598,-2.9851,0.4444,20.7212,1.392,-2.1097,0.2881,-0.1236,1568,2019-08-07 17:01:12:394
-0.8083,-10.5392,-3.7723,0.1734,20.1833,2.8371,-2.1097,0.2881,-0.1236,1573,2019-08-07 17:01:12:399
-0.8083,-10.5392,-3.7723,0.1734,20.1833,2.8371,-2.1097,0.2881,-0.1236,1578,2019-08-07 17:01:12:404
-0.5882,-10.9115,-4.7669,0.1734,20.1833,2.8371,-1.7401,0.0207,-0.1758,1583,2019-08-07 17:01:12:409
-0.5882,-10.9115,-4.7669,0.1734,20.1833,2.8371,-1.7401,0.0207,-0.1758,1587,2019-08-07 17:01:12:413
-0.5882,-10.9115,-4.7669,0.1734,20.1833,2.8371,-1.446,-0.0837,-0.2205,1593,2019-08-07 17:01:12:419
-0.3921,-12.1623,-4.5972,-0.1074,21.6738,3.6342,-1.446,-0.0837,-0.2205,1598,2019-08-07 17:01:12:424
-0.3921,-12.1623,-4.5972,-0.1074,21.6738,3.6342,-1.0775,-0.1902,-0.2237,1603,2019-08-07 17:01:12:429
-0.3921,-12.1623,-4.5972,-0.1074,21.6738,3.6342,-1.0775,-0.1902,-0.2237,1607,2019-08-07 17:01:12:433
-0.483,-12.6015,-4.4888,-0.1074,21.6738,3.6342,-0.4735,-0.2445,-0.1406,1613,2019-08-07 17:01:12:439
-0.483,-12.6015,-4.4888,-0.1672,22.3619,3.6166,-0.4735,-0.2445,-0.1406,1618,2019-08-07 17:01:12:444
-0.483,-12.6015,-4.4888,-0.1672,22.3619,3.6166,-0.4735,-0.2445,-0.1406,1623,2019-08-07 17:01:12:449
-0.3729,-11.9952,-3.909,-0.1672,22.3619,3.6166,0.2286,-0.1795,-0.0309,1628,2019-08-07 17:01:12:454
-0.3729,-11.9952,-3.909,-0.1672,22.3619,3.6166,0.2286,-0.1795,-0.0309,1633,2019-08-07 17:01:12:459
-0.3729,-11.9952,-3.909,-0.2741,20.8896,2.972,0.7782,-0.2072,-0.0053,1638,2019-08-07 17:01:12:464
-0.5978,-10.1,-3.81,-0.2741,20.8896,2.972,0.7782,-0.2072,-0.0053,1643,2019-08-07 17:01:12:469
-0.5978,-10.1,-3.81,-0.2741,20.8896,2.972,1.2011,-0.3649,0.0085,1648,2019-08-07 17:01:12:474
-0.5978,-10.1,-3.81,-0.2741,20.8896,2.972,1.2011,-0.3649,0.0085,1653,2019-08-07 17:01:12:479
-0.349,-8.7967,-3.9467,-0.3694,18.513,2.8004,1.6272,-0.5226,0.0575,1658,2019-08-07 17:01:12:484
-0.349,-8.7967,-3.9467,-0.3694,18.513,2.8004,1.6272,-0.5226,0.0575,1663,2019-08-07 17:01:12:489
0.2586,-7.7035,-4.1494,-0.3694,18.513,2.8004,1.9873,-0.3638,0.0831,1668,2019-08-07 17:01:12:494
0.2586,-7.7035,-4.1494,-0.3694,18.513,2.8004,1.9873,-0.3638,0.0831,1673,2019-08-07 17:01:12:499
0.2586,-7.7035,-4.1494,-0.9676,16.4663,2.1151,1.9873,-0.3638,0.0831,1678,2019-08-07 17:01:12:504
0.2155,-6.491,-3.4423,-0.9676,16.4663,2.1151,2.292,-0.2158,0.1097,1682,2019-08-07 17:01:12:508
0.2155,-6.491,-3.4423,-0.9676,16.4663,2.1151,2.292,-0.2158,0.1097,1688,2019-08-07 17:01:12:514
0.2155,-6.491,-3.4423,-0.9676,16.4663,2.1151,2.57,-0.1593,0.1779,1692,2019-08-07 17:01:12:518
-0.0811,-5.0588,-3.4376,-0.6493,14.4116,1.1573,2.57,-0.1593,0.1779,1698,2019-08-07 17:01:12:524
-0.0811,-5.0588,-3.4376,-0.6493,14.4116,1.1573,2.7681,-0.171,0.2343,1703,2019-08-07 17:01:12:529
0.0289,-3.9179,-2.575,-0.6493,14.4116,1.1573,2.7681,-0.171,0.2343,1708,2019-08-07 17:01:12:534
0.0289,-3.9179,-2.575,-0.6493,14.4116,1.1573,2.7681,-0.171,0.2343,1713,2019-08-07 17:01:12:539
0.0289,-3.9179,-2.575,-0.754,12.5238,0.3486,2.9546,-0.2552,0.278,1717,2019-08-07 17:01:12:543
0.2107,-2.5812,-3.0652,-0.754,12.5238,0.3486,2.9546,-0.2552,0.278,1724,2019-08-07 17:01:12:550
0.2107,-2.5812,-3.0652,-0.754,12.5238,0.3486,2.9514,-0.3926,0.3089,1728,2019-08-07 17:01:12:554
0.4786,-1.5787,-4.0693,-0.754,12.5238,0.3486,2.9514,-0.3926,0.3089,1733,2019-08-07 17:01:12:559
0.4786,-1.5787,-4.0693,-1.2154,10.6266,0.7958,2.9514,-0.3926,0.3089,1737,2019-08-07 17:01:12:563
0.4786,-1.5787,-4.0693,-1.2154,10.6266,0.7958,2.8853,-0.383,0.3121,1743,2019-08-07 17:01:12:569
0.7322,-0.7242,-3.9986,-1.2154,10.6266,0.7958,2.8853,-0.383,0.3121,1748,2019-08-07 17:01:12:574
0.7322,-0.7242,-3.9986,-1.2154,10.6266,0.7958,2.8853,-0.383,0.3121,1753,2019-08-07 17:01:12:579
0.7322,-0.7242,-3.9986,-1.6013,8.42,1.5098,2.7841,-0.4139,0.3185,1757,2019-08-07 17:01:12:583
1.048,0.8703,-5.6013,-1.6013,8.42,1.5098,2.6286,-0.3383,0.3132,1763,2019-08-07 17:01:12:589
1.048,0.8703,-5.6013,-1.6013,8.42,1.5098,2.6286,-0.3383,0.3132,1767,2019-08-07 17:01:12:593
1.048,2.226,-6.3838,-1.6013,8.42,1.5098,2.6286,-0.3383,0.3132,1773,2019-08-07 17:01:12:599
1.048,2.226,-6.3838,-1.4738,6.162,2.1238,2.4209,-0.2147,0.3068,1778,2019-08-07 17:01:12:604
0.3399,3.1235,-6.7797,-1.4738,6.162,2.1238,2.4209,-0.2147,0.3068,1783,2019-08-07 17:01:12:609
0.3399,3.1235,-6.7797,-1.4738,6.162,2.1238,2.1098,-0.0315,0.2876,1788,2019-08-07 17:01:12:614
0.3399,3.1235,-6.7797,-1.4738,6.162,2.1238,2.1098,-0.0315,0.2876,1793,2019-08-07 17:01:12:619
-0.7079,4.4888,-6.4639,0.2202,4.0452,1.6504,1.7998,-0.0975,0.2684,1797,2019-08-07 17:01:12:623
-0.7079,4.4888,-6.4639,0.2202,4.0452,1.6504,1.7998,-0.0975,0.2684,1803,2019-08-07 17:01:12:629
-0.7079,4.4888,-6.4639,0.2202,4.0452,1.6504,1.5047,-0.2935,0.2365,1808,2019-08-07 17:01:12:634
-1.3824,5.8589,-6.2188,0.2202,4.0452,1.6504,1.5047,-0.2935,0.2365,1813,2019-08-07 17:01:12:639
-1.3824,5.8589,-6.2188,1.0008,1.5502,0.7881,1.2981,-0.5439,0.2184,1818,2019-08-07 17:01:12:644
-1.3824,5.8589,-6.2188,1.0008,1.5502,0.7881,1.2981,-0.5439,0.2184,1822,2019-08-07 17:01:12:648
-1.2054,7.7398,-6.3743,0.5645,0.2,1.3807,1.1042,-0.7921,0.1523,1828,2019-08-07 17:01:12:654
-1.2054,7.7398,-6.3743,0.5645,0.2,1.3807,1.1042,-0.7921,0.1523,1833,2019-08-07 17:01:12:659
-0.7796,9.5156,-8.0336,0.5645,0.2,1.3807,1.1042,-0.7921,0.1523,1838,2019-08-07 17:01:12:664
-0.7796,9.5156,-8.0336,0.5645,0.2,1.3807,0.6866,-0.8496,-0.0341,1843,2019-08-07 17:01:12:669
-0.7796,9.5156,-8.0336,0.1397,-2.7612,4.408,0.6866,-0.8496,-0.0341,1847,2019-08-07 17:01:12:673
-0.7988,11.3822,-10.0511,0.1397,-2.7612,4.408,0.1838,-0.6291,-0.1854,1853,2019-08-07 17:01:12:679
-0.7988,11.3822,-10.0511,0.1397,-2.7612,4.408,0.1838,-0.6291,-0.1854,1858,2019-08-07 17:01:12:684
-0.9088,13.454,-9.674,0.1397,-2.7612,4.408,-0.4085,-0.2126,-0.2951,1864,2019-08-07 17:01:12:690
-0.9088,13.454,-9.674,0.3645,-6.0893,3.4864,-0.4085,-0.2126,-0.2951,1868,2019-08-07 17:01:12:694
-0.9088,13.454,-9.674,0.3645,-6.0893,3.4864,-1.1403,0.2284,-0.4165,1873,2019-08-07 17:01:12:699
-1.3633,15.2776,-7.1804,0.3645,-6.0893,3.4864,-1.1403,0.2284,-0.4165,1878,2019-08-07 17:01:12:704
-1.3633,15.2776,-7.1804,0.3645,-6.0893,3.4864,-1.1403,0.2284,-0.4165,1883,2019-08-07 17:01:12:709
-1.8274,15.9317,-3.103,1.1059,-7.5737,-1.9823,-1.4556,0.3041,-0.588,1888,2019-08-07 17:01:12:714
-1.8274,15.9317,-3.103,1.1059,-7.5737,-1.9823,-1.4556,0.3041,-0.588,1893,2019-08-07 17:01:12:719
-1.8274,15.9317,-3.103,1.1059,-7.5737,-1.9823,-1.396,-0.0166,-0.7233,1897,2019-08-07 17:01:12:723
-2.7794,16.6048,-6.8269,1.1059,-7.5737,-1.9823,-1.396,-0.0166,-0.7233,1902,2019-08-07 17:01:12:728
-2.7794,16.6048,-6.8269,1.6995,-9.4405,2.2365,-1.56,0.0527,-0.8,1909,2019-08-07 17:01:12:735
-2.2101,18.7721,-7.2511,1.6995,-9.4405,2.2365,-1.56,0.0527,-0.8,1913,2019-08-07 17:01:12:739
-2.2101,18.7721,-7.2511,1.6995,-9.4405,2.2365,-1.8061,0.0452,-0.7958,1918,2019-08-07 17:01:12:744
-2.2101,18.7721,-7.2511,1.6995,-9.4405,2.2365,-1.8061,0.0452,-0.7958,1923,2019-08-07 17:01:12:749
-1.9661,20.0658,-7.8498,1.0112,-11.4694,3.4745,-1.935,0.2956,-0.7595,1928,2019-08-07 17:01:12:754
-1.9661,20.0658,-7.8498,1.0112,-11.4694,3.4745,-1.935,0.2956,-0.7595,1933,2019-08-07 17:01:12:759
-1.9661,20.0658,-7.8498,1.0112,-11.4694,3.4745,-2.2695,0.809,-0.571,1938,2019-08-07 17:01:12:764
-1.9135,20.0515,-7.4962,1.0112,-11.4694,3.4745,-2.2695,0.809,-0.571,1943,2019-08-07 17:01:12:769
-1.9135,20.0515,-7.4962,1.0112,-11.4694,3.4745,-2.5539,1.1946,-0.4059,1948,2019-08-07 17:01:12:774
-1.7413,19.8271,-4.074,0.5852,-11.0191,1.742,-2.5539,1.1946,-0.4059,1953,2019-08-07 17:01:12:779
-1.7413,19.8271,-4.074,0.5852,-11.0191,1.742,-2.6786,1.3875,-0.2855,1958,2019-08-07 17:01:12:784
-1.7413,19.8271,-4.074,0.5852,-11.0191,1.742,-2.6786,1.3875,-0.2855,1963,2019-08-07 17:01:12:789
-2.0379,18.9296,0.9839,0.5852,-11.0191,1.742,-2.6786,1.3875,-0.2855,1968,2019-08-07 17:01:12:794
-2.0379,18.9296,0.9839,1.2895,-9.6422,-4.4136,-2.5401,0.8303,-0.2141,1973,2019-08-07 17:01:12:799
-2.2436,18.2947,-1.2222,1.2895,-9.6422,-4.4136,-2.4165,0.5629,-0.1587,1978,2019-08-07 17:01:12:804
-2.2436,18.2947,-1.2222,1.2895,-9.6422,-4.4136,-2.4165,0.5629,-0.1587,1983,2019-08-07 17:01:12:809
-2.2436,18.2947,-1.2222,-0.2696,-9.6342,-1.4359,-2.4847,0.6492,-0.1768,1988,2019-08-07 17:01:12:814
-0.3251,19.0394,-1.9386,-0.2696,-9.6342,-1.4359,-2.4847,0.6492,-0.1768,1993,2019-08-07 17:01:12:819
-0.3251,19.0394,-1.9386,-0.2696,-9.6342,-1.4359,-2.4847,0.6492,-0.1768,1997,2019-08-07 17:01:12:823
-0.3251,19.0394,-1.9386,-1.3188,-10.3763,-0.6529,-2.5252,0.842,-0.2227,2003,2019-08-07 17:01:12:829
0.5264,19.9846,-2.7824,-1.3188,-10.3763,-0.6529,-2.5252,0.842,-0.2227,2008,2019-08-07 17:01:12:834
0.5264,19.9846,-2.7824,-1.3188,-10.3763,-0.6529,-2.4708,1.2181,-0.2717,2013,2019-08-07 17:01:12:839
0.7035,20.8391,-6.9353,-1.3188,-10.3763,-0.6529,-2.4708,1.2181,-0.2717,2017,2019-08-07 17:01:12:843
0.7035,20.8391,-6.9353,-2.2004,-12.5487,4.9617,-1.5675,1.495,0.0426,2023,2019-08-07 17:01:12:849
0.7035,20.8391,-6.9353,-2.2004,-12.5487,4.9617,-1.5675,1.495,0.0426,2028,2019-08-07 17:01:12:854
0.8948,23.2356,-10.9137,-2.2004,-12.5487,4.9617,-1.9893,0.7973,0.115,2033,2019-08-07 17:01:12:859
0.8948,23.2356,-10.9137,-2.2004,-12.5487,4.9617,-1.9893,0.7973,0.115,2038,2019-08-07 17:01:12:864
0.8948,23.2356,-10.9137,1.2276,-7.0213,9.7807,-1.9893,0.7973,0.115,2043,2019-08-07 17:01:12:869
-1.88,16.7862,-11.1164,1.2276,-7.0213,9.7807,-2.409,3.4828,-0.2067,2049,2019-08-07 17:01:12:875
-1.88,16.7862,-11.1164,1.2276,-7.0213,9.7807,-2.409,3.4828,-0.2067,2053,2019-08-07 17:01:12:879
-5.1716,16.6286,27.895,1.2276,-7.0213,9.7807,-2.3558,1.9137,-0.0458,2058,2019-08-07 17:01:12:884
-5.1716,16.6286,27.895,4.5722,-5.2226,-25.0333,-2.3558,1.9137,-0.0458,2063,2019-08-07 17:01:12:889
-5.1716,16.6286,27.895,4.5722,-5.2226,-25.0333,-1.5707,-0.3766,0.1758,2068,2019-08-07 17:01:12:894
-7.779,13.5066,12.2311,4.5722,-5.2226,-25.0333,-1.5707,-0.3766,0.1758,2073,2019-08-07 17:01:12:899
-7.779,13.5066,12.2311,4.5722,-5.2226,-25.0333,-1.8828,-0.9572,0.3419,2078,2019-08-07 17:01:12:904
-4.5162,14.6523,13.3765,4.6044,-5.353,-16.0832,-1.8828,-0.9572,0.3419,2083,2019-08-07 17:01:12:909
-4.5162,14.6523,13.3765,4.6044,-5.353,-16.0832,-1.9403,-1.6379,0.5561,2089,2019-08-07 17:01:12:915
-4.5162,14.6523,13.3765,4.6044,-5.353,-16.0832,-1.9403,-1.6379,0.5561,2093,2019-08-07 17:01:12:919
-1.8035,15.101,2.8364,4.6044,-5.353,-16.0832,-1.9403,-1.6379,0.5561,2097,2019-08-07 17:01:12:923
-1.8035,15.101,2.8364,1.1347,-5.9486,-1.3228,-1.6175,-1.688,0.6317,2103,2019-08-07 17:01:12:929
-1.8035,15.101,2.8364,1.1347,-5.9486,-1.3228,-1.6175,-1.688,0.6317,2108,2019-08-07 17:01:12:934
-2.612,14.6427,-4.2767,1.1347,-5.9486,-1.3228,-1.4514,-1.0903,0.474,2112,2019-08-07 17:01:12:938
-2.612,14.6427,-4.2767,1.1347,-5.9486,-1.3228,-1.4514,-1.0903,0.474,2119,2019-08-07 17:01:12:945
-1.8083,12.2415,-2.8814,1.5994,-2.9187,3.986,-1.2916,-0.5875,0.3355,2123,2019-08-07 17:01:12:949
-1.8083,12.2415,-2.8814,1.5994,-2.9187,3.986,-1.2916,-0.5875,0.3355,2128,2019-08-07 17:01:12:954
-1.8083,12.2415,-2.8814,1.5994,-2.9187,3.986,-1.0359,-0.3649,0.1172,2133,2019-08-07 17:01:12:959
-0.4304,10.1888,8.361,1.5994,-2.9187,3.986,-1.0359,-0.3649,0.1172,2138,2019-08-07 17:01:12:964
-0.4304,10.1888,8.361,-1.0991,-0.3553,-6.197,-1.0359,-0.3649,0.1172,2143,2019-08-07 17:01:12:969
-0.4304,10.1888,8.361,-1.0991,-0.3553,-6.197,-0.8346,-0.5684,0.0991,2148,2019-08-07 17:01:12:974
2.3205,10.3463,1.6203,-1.0991,-0.3553,-6.197,-0.8346,-0.5684,0.0991,2152,2019-08-07 17:01:12:978
2.3205,10.3463,1.6203,-1.0991,-0.3553,-6.197,-0.9763,0.0985,0.1598,2158,2019-08-07 17:01:12:984
3.44,9.5634,-0.5198,-3.8678,0.302,0.5468,-0.9763,0.0985,0.1598,2163,2019-08-07 17:01:12:989
3.44,9.5634,-0.5198,-3.8678,0.302,0.5468,-1.0519,0.8037,0.0863,2168,2019-08-07 17:01:12:994
3.44,9.5634,-0.5198,-3.8678,0.302,0.5468,-1.0519,0.8037,0.0863,2174,2019-08-07 17:01:13:000
3.44,9.5634,-0.5198,-3.8678,0.302,0.5468,-1.0519,0.8037,0.0863,2178,2019-08-07 17:01:13:004
0.5456,9.7448,3.4587,0.025,0.0184,-4.552,-0.9326,1.037,0.0085,2183,2019-08-07 17:01:13:009
0.5456,9.7448,3.4587,0.025,0.0184,-4.552,-0.6609,0.4319,0.0437,2188,2019-08-07 17:01:13:014
0.5456,9.7448,3.4587,0.025,0.0184,-4.552,-0.6609,0.4319,0.0437,2193,2019-08-07 17:01:13:019
-1.8944,9.3486,4.689,0.025,0.0184,-4.552,-0.6609,0.4319,0.0437,2198,2019-08-07 17:01:13:024
-1.8944,9.3486,4.689,1.1946,1.3391,-3.4015,-0.45,-0.1966,0.1374,2202,2019-08-07 17:01:13:028
-1.2677,8.2363,3.0627,1.1946,1.3391,-3.4015,-0.45,-0.1966,0.1374,2208,2019-08-07 17:01:13:034
-1.2677,8.2363,3.0627,0.3806,1.3579,-2.2837,-0.2732,-0.5929,0.1598,2213,2019-08-07 17:01:13:039
-1.2677,8.2363,3.0627,0.3806,1.3579,-2.2837,-0.2732,-0.5929,0.1598,2218,2019-08-07 17:01:13:044
-0.5165,9.2817,2.2001,0.3806,1.3579,-2.2837,-0.1336,-0.7644,0.1534,2223,2019-08-07 17:01:13:049
-0.5165,9.2817,2.2001,0.3806,1.3579,-2.2837,-0.1336,-0.7644,0.1534,2228,2019-08-07 17:01:13:054
0.4977,10.4943,1.3092,-0.9563,-0.6992,-1.0216,-0.074,-0.5961,0.147,2233,2019-08-07 17:01:13:059
0.4977,10.4943,1.3092,-0.9563,-0.6992,-1.0216,-0.074,-0.5961,0.147,2238,2019-08-07 17:01:13:064
0.4977,10.4943,1.3092,-0.9563,-0.6992,-1.0216,-0.074,-0.5961,0.147,2243,2019-08-07 17:01:13:069
0.8996,10.5229,0.1307,-0.9563,-0.6992,-1.0216,-0.0814,-0.1604,0.1065,2248,2019-08-07 17:01:13:074
0.8996,10.5229,0.1307,-0.871,-0.4787,0.03,-0.0814,-0.1604,0.1065,2253,2019-08-07 17:01:13:079
-0.0764,10.184,0.6539,-0.871,-0.4787,0.03,-0.1539,0.4767,0.0426,2258,2019-08-07 17:01:13:084
-0.0764,10.184,0.6539,-0.871,-0.4787,0.03,-0.1539,0.4767,0.0426,2263,2019-08-07 17:01:13:089
-0.0764,10.184,0.6539,-0.871,-0.4787,0.03,-0.1613,0.6812,0.0128,2268,2019-08-07 17:01:13:094
-1.2868,9.7687,1.8748,0.9366,0.1216,-1.7286,-0.1613,0.6812,0.0128,2273,2019-08-07 17:01:13:099
-1.2868,9.7687,1.8748,0.9366,0.1216,-1.7286,-0.0697,0.5416,0.0245,2277,2019-08-07 17:01:13:103
-1.526,9.3342,2.1294,0.9366,0.1216,-1.7286,-0.0697,0.5416,0.0245,2283,2019-08-07 17:01:13:109
-1.526,9.3342,2.1294,0.9366,0.1216,-1.7286,0.0325,0.1976,0.0383,2289,2019-08-07 17:01:13:115
-1.526,9.3342,2.1294,0.9366,0.1216,-1.7286,0.0325,0.1976,0.0383,2293,2019-08-07 17:01:13:119
-1.0046,9.3963,1.2196,0.5744,0.398,-0.8686,0.0965,-0.1071,0.0767,2299,2019-08-07 17:01:13:125
-1.0046,9.3963,1.2196,0.5744,0.398,-0.8686,0.0965,-0.1071,0.0767,2303,2019-08-07 17:01:13:129
-0.0764,9.7639,0.3428,0.5744,0.398,-0.8686,0.0922,-0.219,0.0937,2308,2019-08-07 17:01:13:134
-0.0764,9.7639,0.3428,-0.3915,-0.0637,-0.0314,0.0922,-0.219,0.0937,2313,2019-08-07 17:01:13:139
-0.0764,9.7639,0.3428,-0.3915,-0.0637,-0.0314,0.0602,-0.1945,0.0863,2318,2019-08-07 17:01:13:144
0.0432,9.9835,0.6209,-0.3915,-0.0637,-0.0314,0.0602,-0.1945,0.0863,2323,2019-08-07 17:01:13:149
0.0432,9.9835,0.6209,-0.3915,-0.0637,-0.0314,0.0389,-0.1572,0.0788,2328,2019-08-07 17:01:13:154
0.0432,9.9835,0.6209,-0.3518,-0.7024,-0.8562,0.0389,-0.1572,0.0788,2333,2019-08-07 17:01:13:159
-0.0381,10.4991,1.1866,-0.3518,-0.7024,-0.8562,0.0549,-0.1337,0.0596,2338,2019-08-07 17:01:13:164
-0.0381,10.4991,1.1866,-0.3518,-0.7024,-0.8562,0.0549,-0.1337,0.0596,2343,2019-08-07 17:01:13:169
-0.0334,10.7807,0.6539,-0.3518,-0.7024,-0.8562,0.0549,-0.1337,0.0596,2348,2019-08-07 17:01:13:174
-0.0334,10.7807,0.6539,-0.3518,-0.7024,-0.8562,0.0411,-0.0272,0.0224,2353,2019-08-07 17:01:13:179
-0.0334,10.7807,0.6539,-0.2964,-0.8592,-0.0039,0.0411,-0.0272,0.0224,2358,2019-08-07 17:01:13:184
-0.0956,10.1028,0.4277,-0.2964,-0.8592,-0.0039,-5.0E-4,0.1645,-0.0171,2363,2019-08-07 17:01:13:189
-0.0956,10.1028,0.4277,-0.2964,-0.8592,-0.0039,-5.0E-4,0.1645,-0.0171,2368,2019-08-07 17:01:13:194
-0.0956,10.1028,0.4277,0.0353,0.1813,-0.4318,-0.0197,0.2285,-0.033,2373,2019-08-07 17:01:13:199
-0.4161,9.6159,0.7576,0.0353,0.1813,-0.4318,-0.0197,0.2285,-0.033,2378,2019-08-07 17:01:13:204
-0.4161,9.6159,0.7576,0.0353,0.1813,-0.4318,-0.0154,0.1997,-0.0234,2383,2019-08-07 17:01:13:209
-0.5548,9.6063,0.8519,0.0353,0.1813,-0.4318,-0.0154,0.1997,-0.0234,2387,2019-08-07 17:01:13:213
-0.5548,9.6063,0.8519,0.0353,0.1813,-0.4318,-0.0154,0.1997,-0.0234,2393,2019-08-07 17:01:13:219
-0.5548,9.6063,0.8519,0.1804,-0.0245,-0.6007,-0.0111,0.1624,-0.0266,2398,2019-08-07 17:01:13:224
-0.507,9.9978,1.1112,0.1804,-0.0245,-0.6007,-0.0111,0.1624,-0.0266,2404,2019-08-07 17:01:13:230
-0.507,9.9978,1.1112,0.1804,-0.0245,-0.6007,0.0155,0.0836,-0.0192,2408,2019-08-07 17:01:13:234
-0.2056,9.8116,0.8142,0.1804,-0.0245,-0.6007,0.0155,0.0836,-0.0192,2413,2019-08-07 17:01:13:239
-0.2056,9.8116,0.8142,-0.3218,0.1805,-0.3853,0.0262,0.0697,-0.0171,2418,2019-08-07 17:01:13:244
-0.2056,9.8116,0.8142,-0.3218,0.1805,-0.3853,0.0262,0.0697,-0.0171,2423,2019-08-07 17:01:13:249
-0.4119,9.5253,0.6255,0.0175,0.2711,-0.292,0.008,0.1006,0.0,2428,2019-08-07 17:01:13:254
-0.4119,9.5253,0.6255,0.0175,0.2711,-0.292,0.008,0.1006,0.0,2433,2019-08-07 17:01:13:259
-0.4119,9.5253,0.6255,0.0175,0.2711,-0.292,0.008,0.1006,0.0,2438,2019-08-07 17:01:13:264
-0.8186,9.4107,1.0262,0.0175,0.2711,-0.292,-0.0335,0.1645,0.0362,2443,2019-08-07 17:01:13:269
-0.8186,9.4107,1.0262,0.5483,0.1325,-1.1728,-0.0335,0.1645,0.0362,2447,2019-08-07 17:01:13:273
-1.5076,10.4227,0.9272,0.5483,0.1325,-1.1728,0.0176,0.0836,0.0298,2453,2019-08-07 17:01:13:279
-1.5076,10.4227,0.9272,0.5483,0.1325,-1.1728,0.0176,0.0836,0.0298,2458,2019-08-07 17:01:13:284
-1.5076,10.4227,0.9272,0.5483,0.1325,-1.1728,0.023,-0.1529,0.0831,2463,2019-08-07 17:01:13:289
-0.9861,10.2222,0.8612,0.5959,-0.4259,-0.5206,0.023,-0.1529,0.0831,2468,2019-08-07 17:01:13:294
-0.9861,10.2222,0.8612,0.5959,-0.4259,-0.5206,0.0368,-0.1401,0.0618,2472,2019-08-07 17:01:13:298
-0.9861,10.2222,0.8612,0.5959,-0.4259,-0.5206,0.0368,-0.1401,0.0618,2478,2019-08-07 17:01:13:304
-0.3163,9.9167,1.0827,0.5959,-0.4259,-0.5206,0.0347,-0.1902,0.0788,2483,2019-08-07 17:01:13:309
-0.3163,9.9167,1.0827,-0.2903,-0.0673,-0.5928,0.0347,-0.1902,0.0788,2488,2019-08-07 17:01:13:314
-0.3163,9.9167,1.0827,-0.2903,-0.0673,-0.5928,0.0347,-0.1902,0.0788,2493,2019-08-07 17:01:13:319
0.2052,9.931,0.5501,-0.6159,-0.0573,-0.077,0.0464,-0.1977,0.0554,2498,2019-08-07 17:01:13:324
0.2052,9.931,0.5501,-0.6159,-0.0573,-0.077,0.0464,-0.1977,0.0554,2503,2019-08-07 17:01:13:329
0.0664,9.869,0.1918,-0.6159,-0.0573,-0.077,-0.0026,-0.0347,0.0298,2508,2019-08-07 17:01:13:334
0.0664,9.869,0.1918,-0.6159,-0.0573,-0.077,-0.0026,-0.0347,0.0298,2513,2019-08-07 17:01:13:339
0.0664,9.869,0.1918,-0.3421,-0.1333,-0.3178,-0.0378,0.0495,0.0234,2518,2019-08-07 17:01:13:344
-0.0341,9.8785,0.8518,-0.3421,-0.1333,-0.3178,-0.0378,0.0495,0.0234,2523,2019-08-07 17:01:13:349
-0.0341,9.8785,0.8518,-0.3421,-0.1333,-0.3178,-0.0239,0.0207,-0.0032,2528,2019-08-07 17:01:13:354
-0.3546,10.0217,1.1534,-0.3421,-0.1333,-0.3178,-0.0239,0.0207,-0.0032,2533,2019-08-07 17:01:13:359
-0.3546,10.0217,1.1534,-0.0529,-0.1145,-0.5667,-0.0239,0.0207,-0.0032,2538,2019-08-07 17:01:13:364
-0.3546,10.0217,1.1534,-0.0529,-0.1145,-0.5667,0.0038,-0.0411,0.0053,2543,2019-08-07 17:01:13:369
-0.2207,9.8165,0.7245,-0.0529,-0.1145,-0.5667,0.0038,-0.0411,0.0053,2547,2019-08-07 17:01:13:373
-0.2207,9.8165,0.7245,-0.0529,-0.1145,-0.5667,-0.0026,0.0271,-0.0096,2553,2019-08-07 17:01:13:379
-0.4982,9.8928,1.1817,0.1429,-0.0955,-0.8313,-0.0026,0.0271,-0.0096,2558,2019-08-07 17:01:13:384
-0.4982,9.8928,1.1817,0.1429,-0.0955,-0.8313,0.0027,0.0495,0.0,2563,2019-08-07 17:01:13:389
-0.4982,9.8928,1.1817,0.1429,-0.0955,-0.8313,0.0027,0.0495,0.0,2567,2019-08-07 17:01:13:393
-0.4121,9.9836,1.2006,0.1429,-0.0955,-0.8313,0.0485,-0.0198,-0.0032,2573,2019-08-07 17:01:13:399
-0.4121,9.9836,1.2006,0.1231,-0.0479,-0.7496,0.0485,-0.0198,-0.0032,2578,2019-08-07 17:01:13:404
-0.4168,9.7162,1.012,0.1231,-0.0479,-0.7496,0.0602,0.0016,0.001,2583,2019-08-07 17:01:13:409
-0.4168,9.7162,1.012,0.1231,-0.0479,-0.7496,0.0602,0.0016,0.001,2588,2019-08-07 17:01:13:414
-0.4168,9.7162,1.012,0.1231,-0.0479,-0.7496,0.0602,0.0016,0.001,2594,2019-08-07 17:01:13:420
-0.2685,9.7162,0.6114,-0.1351,-0.0524,-0.2488,0.0602,0.0111,0.0032,2599,2019-08-07 17:01:13:425
-0.2685,9.7162,0.6114,-0.1351,-0.0524,-0.2488,0.0602,0.0111,0.0032,2603,2019-08-07 17:01:13:429
-0.3595,10.1315,0.5925,-0.1351,-0.0524,-0.2488,0.057,0.0111,-0.0171,2608,2019-08-07 17:01:13:434
-0.3595,10.1315,0.5925,-0.1351,-0.0524,-0.2488,0.057,0.0111,-0.0171,2613,2019-08-07 17:01:13:439
-0.3595,10.1315,0.5925,0.1204,-0.2193,-0.3229,0.04,0.0218,-0.0171,2618,2019-08-07 17:01:13:444
-0.4934,9.9501,0.7245,0.1204,-0.2193,-0.3229,0.04,0.0218,-0.0171,2623,2019-08-07 17:01:13:449
-0.4934,9.9501,0.7245,0.1204,-0.2193,-0.3229,0.0411,0.0229,-0.0181,2628,2019-08-07 17:01:13:454
-0.57,9.9501,0.8612,0.1204,-0.2193,-0.3229,0.0411,0.0229,-0.0181,2633,2019-08-07 17:01:13:459
-0.57,9.9501,0.8612,0.1916,-0.1,-0.4835,0.0528,-0.0283,-0.0181,2638,2019-08-07 17:01:13:464
-0.57,9.9501,0.8612,0.1916,-0.1,-0.4835,0.0528,-0.0283,-0.0181,2643,2019-08-07 17:01:13:469
-0.4408,9.8976,0.6868,0.1916,-0.1,-0.4835,0.0528,-0.0283,-0.0181,2648,2019-08-07 17:01:13:474
-0.4408,9.8976,0.6868,0.1916,-0.1,-0.4835,0.057,-0.0315,-0.0192,2653,2019-08-07 17:01:13:479
-0.2829,9.9597,0.6679,-0.0854,-0.1619,-0.3451,0.057,-0.0315,-0.0192,2658,2019-08-07 17:01:13:484
-0.2829,9.9597,0.6679,-0.0854,-0.1619,-0.3451,0.0443,0.0069,-0.0256,2663,2019-08-07 17:01:13:489
-0.2829,9.9597,0.6679,-0.0854,-0.1619,-0.3451,0.0443,0.0069,-0.0256,2668,2019-08-07 17:01:13:494
-0.1299,9.9263,0.6585,-0.0854,-0.1619,-0.3451,0.0379,0.0186,-0.0384,2673,2019-08-07 17:01:13:499
-0.1299,9.9263,0.6585,-0.0854,-0.1619,-0.3451,0.0379,0.0186,-0.0384,2678,2019-08-07 17:01:13:504
-0.3499,9.9501,0.4935,-0.0951,-0.2049,-0.1339,0.0187,0.0506,-0.0394,2683,2019-08-07 17:01:13:509
-0.3499,9.9501,0.4935,-0.0951,-0.2049,-0.1339,0.0187,0.0506,-0.0394,2688,2019-08-07 17:01:13:514
-0.3499,9.9501,0.4935,-0.0951,-0.2049,-0.1339,0.0091,0.0697,-0.0352,2693,2019-08-07 17:01:13:519
-0.3499,9.9501,0.4935,-0.0951,-0.2049,-0.1339,0.0091,0.0697,-0.0352,2698,2019-08-07 17:01:13:524
-0.6514,9.9788,0.8093,0.3076,-0.1002,-0.4834,0.0091,0.0697,-0.0352,2702,2019-08-07 17:01:13:528
-0.6514,9.9788,0.8093,0.3076,-0.1002,-0.4834,0.0059,0.0186,-0.0245,2708,2019-08-07 17:01:13:534
-0.8236,9.8785,0.9743,0.4375,-0.0813,-0.6561,0.0059,0.0186,-0.0245,2712,2019-08-07 17:01:13:538
-0.8236,9.8785,0.9743,0.4375,-0.0813,-0.6561,0.0219,-0.0613,-0.0022,2718,2019-08-07 17:01:13:544
-0.6897,9.8547,0.7716,0.4375,-0.0813,-0.6561,0.0357,-0.0933,0.0149,2723,2019-08-07 17:01:13:549
-0.6897,9.8547,0.7716,0.4375,-0.0813,-0.6561,0.0357,-0.0933,0.0149,2728,2019-08-07 17:01:13:554
-0.6897,9.8547,0.7716,0.2111,-0.1625,-0.3738,0.0325,-0.0666,0.0074,2733,2019-08-07 17:01:13:559
-0.5557,10.0027,0.649,0.2111,-0.1625,-0.3738,0.0325,-0.0666,0.0074,2738,2019-08-07 17:01:13:564
-0.5557,10.0027,0.649,0.2111,-0.1625,-0.3738,0.0325,-0.0666,0.0074,2743,2019-08-07 17:01:13:569
-0.5557,10.0027,0.649,0.2111,-0.1625,-0.3738,0.0198,-0.0016,0.0096,2749,2019-08-07 17:01:13:575
-0.4457,10.0218,0.6679,0.0593,-0.2244,-0.3527,0.0198,-0.0016,0.0096,2753,2019-08-07 17:01:13:579
-0.4457,10.0218,0.6679,0.0593,-0.2244,-0.3527,0.0155,0.0229,0.0042,2758,2019-08-07 17:01:13:584
-0.4218,9.869,0.7669,0.0354,-0.0717,-0.4517,0.0155,0.0229,0.0042,2763,2019-08-07 17:01:13:589
-0.4218,9.869,0.7669,0.0354,-0.0717,-0.4517,0.0219,0.0133,0.0,2768,2019-08-07 17:01:13:594
-0.4218,9.869,0.7669,0.0354,-0.0717,-0.4517,0.0219,0.0133,0.0,2773,2019-08-07 17:01:13:599
-0.3117,9.8404,0.7763,0.0354,-0.0717,-0.4517,0.0251,-0.0091,0.0021,2778,2019-08-07 17:01:13:604
-0.3117,9.8404,0.7763,-0.0406,-0.0812,-0.4009,0.0251,-0.0091,0.0021,2783,2019-08-07 17:01:13:609
-0.3883,9.8976,0.7999,-0.0406,-0.0812,-0.4009,0.0283,-0.0229,-0.0011,2788,2019-08-07 17:01:13:614
-0.3883,9.8976,0.7999,-0.0406,-0.0812,-0.4009,0.0283,-0.0229,-0.0011,2793,2019-08-07 17:01:13:619
-0.3883,9.8976,0.7999,-0.0406,-0.0812,-0.4009,0.0283,-0.0229,-0.0011,2798,2019-08-07 17:01:13:624
-0.3213,9.8881,1.0261,-0.0642,-0.0907,-0.7131,0.0389,-0.0475,0.001,2803,2019-08-07 17:01:13:629
-0.3213,9.8881,1.0261,-0.0642,-0.0907,-0.7131,0.0389,-0.0475,0.001,2808,2019-08-07 17:01:13:634
-0.3213,9.8881,1.0261,-0.0642,-0.0907,-0.7131,0.0528,-0.0996,0.0042,2813,2019-08-07 17:01:13:639
-0.2831,9.9788,0.6679,-0.0642,-0.0907,-0.7131,0.0528,-0.0996,0.0042,2817,2019-08-07 17:01:13:643
-0.2831,9.9788,0.6679,-0.1055,-0.3291,-0.1766,0.0475,-0.073,-0.0075,2822,2019-08-07 17:01:13:648
-0.2687,10.0838,0.5312,-0.1055,-0.3291,-0.1766,0.0475,-0.073,-0.0075,2828,2019-08-07 17:01:13:654
-0.2687,10.0838,0.5312,-0.1055,-0.3291,-0.1766,0.0475,-0.073,-0.0075,2833,2019-08-07 17:01:13:659
-0.2687,10.0838,0.5312,-0.1055,-0.3291,-0.1766,0.0272,-0.0059,-0.0235,2838,2019-08-07 17:01:13:664
-0.3309,10.0265,0.5736,-0.0552,-0.2288,-0.2708,0.0272,-0.0059,-0.0235,2843,2019-08-07 17:01:13:669
-0.3309,10.0265,0.5736,-0.0552,-0.2288,-0.2708,0.0155,0.0239,-0.0224,2848,2019-08-07 17:01:13:674
-0.374,10.0361,0.6867,-0.0552,-0.2288,-0.2708,0.0155,0.0239,-0.0224,2853,2019-08-07 17:01:13:679
-0.374,10.0361,0.6867,-0.0552,-0.2288,-0.2708,0.0134,0.042,-0.0373,2858,2019-08-07 17:01:13:684
-0.374,10.0361,0.6867,0.1444,-0.2195,-0.4833,0.0134,0.042,-0.0373,2862,2019-08-07 17:01:13:688
-0.5175,9.8833,0.7621,0.1444,-0.2195,-0.4833,0.0198,0.0474,-0.0256,2868,2019-08-07 17:01:13:694
-0.5175,9.8833,0.7621,0.1444,-0.2195,-0.4833,0.0198,0.0474,-0.0256,2873,2019-08-07 17:01:13:699
-0.5175,9.8833,0.7621,0.1444,-0.2195,-0.4833,0.0208,0.0346,-0.0213,2878,2019-08-07 17:01:13:704
-0.7041,9.8356,0.7009,0.3103,-0.0861,-0.3804,0.0208,0.0346,-0.0213,2882,2019-08-07 17:01:13:708
-0.7041,9.8356,0.7009,0.3103,-0.0861,-0.3804,0.0198,0.0271,-0.0096,2888,2019-08-07 17:01:13:714
-0.7041,9.764,0.7527,0.3103,-0.0861,-0.3804,0.0198,0.0271,-0.0096,2893,2019-08-07 17:01:13:719
-0.7041,9.764,0.7527,0.3103,-0.0861,-0.3804,0.0198,0.0271,-0.0096,2898,2019-08-07 17:01:13:724
-0.6563,9.7879,0.5453,0.2684,0.0666,-0.2921,0.0251,-6.0E-4,0.001,2903,2019-08-07 17:01:13:729
-0.6563,9.7879,0.5453,0.2684,0.0666,-0.2921,0.0251,-6.0E-4,0.001,2908,2019-08-07 17:01:13:734
-0.6563,9.7879,0.5453,0.2684,0.0666,-0.2921,0.0219,-0.0027,0.0021,2913,2019-08-07 17:01:13:739
-0.4649,9.8213,0.7621,0.2684,0.0666,-0.2921,0.0219,-0.0027,0.0021,2918,2019-08-07 17:01:13:744
-0.4649,9.8213,0.7621,-0.0239,-0.0432,-0.5014,0.0262,0.0047,0.0053,2923,2019-08-07 17:01:13:749
-0.4649,9.8213,0.7621,-0.0239,-0.0432,-0.5014,0.0262,0.0047,0.0053,2928,2019-08-07 17:01:13:754
-0.4267,9.9167,0.7998,-0.0239,-0.0432,-0.5014,0.0304,0.0229,0.0053,2933,2019-08-07 17:01:13:759
-0.4267,9.9167,0.7998,0.0053,-0.1291,-0.6247,0.0304,0.0229,0.0053,2938,2019-08-07 17:01:13:764
-0.4267,9.9167,0.7998,0.0053,-0.1291,-0.6247,0.0304,0.0229,0.0053,2943,2019-08-07 17:01:13:769
-0.3454,9.8881,0.913,-0.0561,-0.0908,-0.6162,0.04,0.0506,0.0074,2948,2019-08-07 17:01:13:774
-0.3454,9.8881,0.913,-0.0561,-0.0908,-0.6162,0.04,0.0506,0.0074,2953,2019-08-07 17:01:13:779
-0.398,9.7926,0.9318,-0.0561,-0.0908,-0.6162,0.0539,0.0612,0.0096,2958,2019-08-07 17:01:13:784
-0.398,9.7926,0.9318,-0.0561,-0.0908,-0.6162,0.0539,0.0612,0.0096,2963,2019-08-07 17:01:13:789
-0.398,9.7926,0.9318,0.0507,1.0E-4,-0.6544,0.0698,0.0495,0.0202,2968,2019-08-07 17:01:13:794
-0.4554,9.8213,0.7763,0.0507,1.0E-4,-0.6544,0.0698,0.0495,0.0202,2972,2019-08-07 17:01:13:798
-0.4554,9.8213,0.7763,0.0507,1.0E-4,-0.6544,0.0762,0.0399,0.0245,2978,2019-08-07 17:01:13:804
-0.5942,9.826,0.6773,0.1976,-0.0281,-0.3967,0.0762,0.0399,0.0245,2983,2019-08-07 17:01:13:809
-0.5942,9.826,0.6773,0.1976,-0.0281,-0.3967,0.0752,0.0303,0.0287,2988,2019-08-07 17:01:13:814
-0.5942,9.826,0.6773,0.1976,-0.0281,-0.3967,0.0752,0.0303,0.0287,2993,2019-08-07 17:01:13:819
-0.5894,9.8499,0.8423,0.1976,-0.0281,-0.3967,0.0752,0.0303,0.0287,2997,2019-08-07 17:01:13:823
-0.5894,9.8499,0.8423,0.1976,-0.0281,-0.3967,0.0752,0.0303,0.0287,3002,2019-08-07 17:01:13:828
-0.5894,9.8499,0.8423,0.0913,-0.1375,-0.656,0.0975,-0.0315,0.0383,3008,2019-08-07 17:01:13:834
-0.4411,9.9788,0.814,0.0913,-0.1375,-0.656,0.0975,-0.0315,0.0383,3013,2019-08-07 17:01:13:839
-0.4411,9.9788,0.814,0.0913,-0.1375,-0.656,0.1071,-0.0432,0.0373,3018,2019-08-07 17:01:13:844
-0.4411,9.9788,0.814,0.0913,-0.1375,-0.656,0.1071,-0.0432,0.0373,3022,2019-08-07 17:01:13:848
-0.3119,9.9979,0.5406,-0.1534,-0.127,-0.3552,0.1039,-0.0325,0.0383,3028,2019-08-07 17:01:13:854
-0.3119,9.9979,0.5406,-0.1534,-0.127,-0.3552,0.1039,-0.0325,0.0383,3034,2019-08-07 17:01:13:860
-0.3119,9.9979,0.5406,-0.1534,-0.127,-0.3552,0.1039,-0.0325,0.0383,3038,2019-08-07 17:01:13:864
-0.3119,9.9979,0.5406,-0.1534,-0.127,-0.3552,0.0986,0.0463,0.0223,3042,2019-08-07 17:01:13:868
-0.245,9.8738,0.5076,-0.1323,-0.0739,-0.2727,0.0986,0.0463,0.0223,3048,2019-08-07 17:01:13:874
-0.245,9.8738,0.5076,-0.1323,-0.0739,-0.2727,0.0901,0.0644,0.0138,3053,2019-08-07 17:01:13:879
-0.3072,9.912,0.2483,-0.1323,-0.0739,-0.2727,0.0901,0.0644,0.0138,3058,2019-08-07 17:01:13:884
-0.3072,9.912,0.2483,0.0237,-0.1354,-0.2324,0.0688,0.1028,0.0096,3063,2019-08-07 17:01:13:889
-0.3072,9.912,0.2483,0.0237,-0.1354,-0.2324,0.0688,0.1028,0.0096,3068,2019-08-07 17:01:13:894
-0.3933,9.9024,0.5311,0.0237,-0.1354,-0.2324,0.0645,0.0857,0.0042,3073,2019-08-07 17:01:13:899
-0.3933,9.9024,0.5311,0.0237,-0.1354,-0.2324,0.0645,0.0857,0.0042,3078,2019-08-07 17:01:13:904
-0.4986,9.8308,0.583,0.0237,-0.1354,-0.2324,0.0698,0.0431,0.0128,3083,2019-08-07 17:01:13:909
-0.4986,9.8308,0.583,0.0577,-0.0302,-0.3613,0.0698,0.0431,0.0128,3088,2019-08-07 17:01:13:914
-0.4986,9.8308,0.583,0.0577,-0.0302,-0.3613,0.0677,0.0133,0.0096,3093,2019-08-07 17:01:13:919
-0.4268,9.9168,0.4463,0.0577,-0.0302,-0.3613,0.0677,0.0133,0.0096,3098,2019-08-07 17:01:13:924
-0.4268,9.9168,0.4463,0.0577,-0.0302,-0.3613,0.056,0.0165,0.0064,3103,2019-08-07 17:01:13:929
-0.4125,9.9693,0.3049,0.0257,-0.1397,-0.1794,0.056,0.0165,0.0064,3108,2019-08-07 17:01:13:934
-0.4125,9.9693,0.3049,0.0257,-0.1397,-0.1794,0.0432,0.0452,0.0042,3113,2019-08-07 17:01:13:939
-0.4125,9.9693,0.3049,0.0257,-0.1397,-0.1794,0.0432,0.0452,0.0042,3118,2019-08-07 17:01:13:944
-0.422,9.9072,0.4934,0.0257,-0.1397,-0.1794,0.0336,0.0399,0.0,3123,2019-08-07 17:01:13:949
-0.422,9.9072,0.4934,0.0879,-0.1538,-0.3467,0.0336,0.0399,0.0,3128,2019-08-07 17:01:13:954
-0.4603,9.9359,0.5311,0.0879,-0.1538,-0.3467,0.0325,0.0133,0.0032,3135,2019-08-07 17:01:13:961
-0.4603,9.9359,0.5311,0.0879,-0.1538,-0.3467,0.0325,0.0133,0.0032,3139,2019-08-07 17:01:13:965
-0.4603,9.9359,0.5311,0.0879,-0.1538,-0.3467,0.0272,0.0016,0.0,3143,2019-08-07 17:01:13:969
-0.4699,9.9168,0.4039,0.0926,-0.1251,-0.2279,0.0272,0.0016,0.0,3147,2019-08-07 17:01:13:973
-0.4699,9.9168,0.4039,0.0926,-0.1251,-0.2279,0.0272,0.0016,0.0,3153,2019-08-07 17:01:13:979
-0.4699,9.9168,0.4039,0.0926,-0.1251,-0.2279,0.0123,0.0207,0.001,3158,2019-08-07 17:01:13:984
-0.5082,9.9359,0.4746,0.0926,-0.1251,-0.2279,0.0123,0.0207,0.001,3163,2019-08-07 17:01:13:989
-0.5082,9.9359,0.4746,0.1783,-0.1633,-0.3793,0.0027,0.0218,0.0085,3168,2019-08-07 17:01:13:994
-0.6326,9.9884,0.517,0.1783,-0.1633,-0.3793,0.0027,0.0218,0.0085,3173,2019-08-07 17:01:13:999
-0.6326,9.9884,0.517,0.1783,-0.1633,-0.3793,6.0E-4,0.0058,0.016,3178,2019-08-07 17:01:14:004
-0.6326,9.9884,0.517,0.1783,-0.1633,-0.3793,6.0E-4,0.0058,0.016,3183,2019-08-07 17:01:14:009
-0.623,9.955,0.5735,0.2509,-0.1538,-0.3863,-5.0E-4,-0.0091,0.0213,3188,2019-08-07 17:01:14:014
-0.623,9.955,0.5735,0.2509,-0.1538,-0.3863,-5.0E-4,-0.0091,0.0213,3192,2019-08-07 17:01:14:018
-0.5895,10.0027,0.5311,0.2509,-0.1538,-0.3863,-0.0015,-0.0283,0.0266,3198,2019-08-07 17:01:14:024
-0.5895,10.0027,0.5311,0.2509,-0.1538,-0.3863,-0.0015,-0.0283,0.0266,3203,2019-08-07 17:01:14:029
-0.5895,10.0027,0.5311,0.1587,-0.1967,-0.5241,6.0E-4,-0.0538,0.0341,3208,2019-08-07 17:01:14:034
-0.4556,9.9979,0.682,0.1587,-0.1967,-0.5241,6.0E-4,-0.0538,0.0341,3213,2019-08-07 17:01:14:039
-0.4556,9.9979,0.682,0.1587,-0.1967,-0.5241,6.0E-4,-0.072,0.0362,3218,2019-08-07 17:01:14:044
-0.2882,9.869,0.517,0.1587,-0.1967,-0.5241,6.0E-4,-0.072,0.0362,3223,2019-08-07 17:01:14:049
-0.2882,9.869,0.517,-0.0161,-0.0628,-0.2852,-0.0015,-0.0709,0.0298,3228,2019-08-07 17:01:14:054
-0.2882,9.869,0.517,-0.0161,-0.0628,-0.2852,-0.0015,-0.0709,0.0298,3232,2019-08-07 17:01:14:058
-0.1925,9.8834,0.5123,-0.0161,-0.0628,-0.2852,-0.0058,-0.0666,0.0341,3238,2019-08-07 17:01:14:064
-0.1925,9.8834,0.5123,-0.0161,-0.0628,-0.2852,-0.0058,-0.0666,0.0341,3243,2019-08-07 17:01:14:069
-0.3839,9.9311,0.3708,0.029,-0.1295,-0.1734,-0.0101,-0.0464,0.0223,3248,2019-08-07 17:01:14:074
-0.3839,9.9311,0.3708,0.029,-0.1295,-0.1734,-0.0101,-0.0464,0.0223,3253,2019-08-07 17:01:14:079
-0.3839,9.9311,0.3708,0.029,-0.1295,-0.1734,-0.0186,-0.0421,0.0287,3258,2019-08-07 17:01:14:084
-0.3408,9.8213,0.7668,0.029,-0.1295,-0.1734,-0.0186,-0.0421,0.0287,3263,2019-08-07 17:01:14:089
-0.3408,9.8213,0.7668,-0.0759,-0.0578,-0.5958,0.0038,-0.0847,0.0149,3267,2019-08-07 17:01:14:093
-0.4126,9.8595,0.5877,-0.0759,-0.0578,-0.5958,0.0038,-0.0847,0.0149,3273,2019-08-07 17:01:14:099
-0.4126,9.8595,0.5877,-0.0759,-0.0578,-0.5958,0.0027,-0.1028,0.0213,3278,2019-08-07 17:01:14:104
-0.4126,9.8595,0.5877,-0.0759,-0.0578,-0.5958,0.0027,-0.1028,0.0213,3283,2019-08-07 17:01:14:109
-0.0729,9.8404,0.5028,-0.1766,-0.1484,-0.2732,0.0038,-0.0506,0.0042,3288,2019-08-07 17:01:14:114
-0.0729,9.8404,0.5028,-0.1766,-0.1484,-0.2732,0.0038,-0.0506,0.0042,3292,2019-08-07 17:01:14:118
-0.0729,9.8404,0.5028,-0.1766,-0.1484,-0.2732,-0.0825,-0.6333,0.0085,3298,2019-08-07 17:01:14:124
0.2763,9.0814,1.6294,-0.1766,-0.1484,-0.2732,-0.0825,-0.6333,0.0085,3302,2019-08-07 17:01:14:128
0.2763,9.0814,1.6294,0.2391,-1.1511,1.7779,0.089,-0.154,0.0032,3308,2019-08-07 17:01:14:134
-0.116,10.1746,-0.11,0.2391,-1.1511,1.7779,0.089,-0.154,0.0032,3314,2019-08-07 17:01:14:140
-0.116,10.1746,-0.11,0.2391,-1.1511,1.7779,-0.1038,-0.0709,0.0042,3318,2019-08-07 17:01:14:144
-0.116,10.1746,-0.11,0.2391,-1.1511,1.7779,-0.1038,-0.0709,0.0042,3323,2019-08-07 17:01:14:149
-0.3696,10.1364,0.8186,0.1993,-0.4065,-0.8139,0.0049,0.0601,-0.0064,3328,2019-08-07 17:01:14:154
-0.3696,10.1364,0.8186,0.1993,-0.4065,-0.8139,0.0049,0.0601,-0.0064,3333,2019-08-07 17:01:14:159
-0.4031,9.8643,0.6678,0.1993,-0.4065,-0.8139,0.0049,0.0601,-0.0064,3338,2019-08-07 17:01:14:164
-0.4031,9.8643,0.6678,0.1993,-0.4065,-0.8139,0.0038,-0.0538,-0.0085,3342,2019-08-07 17:01:14:168
-0.4031,9.8643,0.6678,0.0782,-0.1536,-0.1463,0.0038,-0.0538,-0.0085,3347,2019-08-07 17:01:14:173
-0.3265,9.9359,0.4274,0.0782,-0.1536,-0.1463,0.0059,0.0399,0.001,3352,2019-08-07 17:01:14:178
-0.3265,9.9359,0.4274,0.0782,-0.1536,-0.1463,0.0059,0.0399,0.001,3358,2019-08-07 17:01:14:184
-0.2261,9.9884,0.5924,0.0782,-0.1536,-0.1463,-5.0E-4,0.0751,-0.0117,3363,2019-08-07 17:01:14:189
-0.2261,9.9884,0.5924,-0.0996,-0.1155,-0.3141,-5.0E-4,0.0751,-0.0117,3368,2019-08-07 17:01:14:194
-0.2261,9.9884,0.5924,-0.0996,-0.1155,-0.3141,-5.0E-4,0.0751,-0.0117,3373,2019-08-07 17:01:14:199
-0.3218,9.8834,0.3661,-0.0996,-0.1155,-0.3141,0.0027,0.1145,-0.0128,3378,2019-08-07 17:01:14:204
-0.3218,9.8834,0.3661,-0.0996,-0.1155,-0.3141,0.0027,0.1145,-0.0128,3383,2019-08-07 17:01:14:209
-0.2165,9.8499,0.4557,-0.1313,-0.0487,-0.2285,-0.0015,0.1912,-0.0213,3388,2019-08-07 17:01:14:214
-0.2165,9.8499,0.4557,-0.1313,-0.0487,-0.2285,-0.0015,0.1912,-0.0213,3393,2019-08-07 17:01:14:219
-0.2165,9.8499,0.4557,-0.1313,-0.0487,-0.2285,-0.0346,0.1603,-0.0256,3398,2019-08-07 17:01:14:224
-0.6041,10.0409,0.6489,-0.1313,-0.0487,-0.2285,-0.0346,0.1603,-0.0256,3402,2019-08-07 17:01:14:228
-0.6041,10.0409,0.6489,0.3077,-0.1016,-0.8103,-0.0271,0.0282,-0.0149,3408,2019-08-07 17:01:14:234
-0.5658,9.9168,0.8516,0.3077,-0.1016,-0.8103,-0.0271,0.0282,-0.0149,3413,2019-08-07 17:01:14:239
-0.5658,9.9168,0.8516,0.3077,-0.1016,-0.8103,-0.0271,0.0282,-0.0149,3418,2019-08-07 17:01:14:244
-0.5658,9.9168,0.8516,0.3077,-0.1016,-0.8103,-0.0026,-0.0794,-0.016,3423,2019-08-07 17:01:14:249
-0.3301,9.9978,0.2627,-0.0326,-0.1686,0.0842,-0.0026,-0.0794,-0.016,3428,2019-08-07 17:01:14:254
-0.3301,9.9978,0.2627,-0.0326,-0.1686,0.0842,-0.0026,-0.0794,-0.016,3433,2019-08-07 17:01:14:259
-0.3301,9.9978,0.2627,-0.0326,-0.1686,0.0842,-0.0218,-0.0219,-0.0192,3438,2019-08-07 17:01:14:264