ACCELEROMETER X (m/s²),ACCELEROMETER Y (m/s²),ACCELEROMETER Z (m/s²),LINEAR ACCELERATION X (m/s²),LINEAR ACCELERATION Y (m/s²),LINEAR ACCELERATION Z (m/s²),GYROSCOPE X (rad/s),GYROSCOPE Y (rad/s),GYROSCOPE Z (rad/s),Time since start in ms ,YYYY-MO-DD HH-MI-SS_SSS
-0.6079,9.869,0.6397,0.0659,-0.0673,-0.3639,-0.0324,-0.0826,0.0,3,2019-08-07 17:01:06:614
-0.4357,9.888,0.3946,0.0659,-0.0673,-0.3639,-0.0324,-0.0826,0.0,8,2019-08-07 17:01:06:619
-0.4357,9.888,0.3946,0.0659,-0.0673,-0.3639,-0.0367,-0.0805,0.0,12,2019-08-07 17:01:06:623
-0.4357,9.888,0.3946,-0.0863,-0.0722,-0.2512,-0.0367,-0.0805,0.0,18,2019-08-07 17:01:06:629
-0.3543,9.8164,0.536,-0.0863,-0.0722,-0.2512,-0.042,-0.0783,0.0042,22,2019-08-07 17:01:06:633
-0.3543,9.8164,0.536,-0.0863,-0.0722,-0.2512,-0.042,-0.0783,0.0042,28,2019-08-07 17:01:06:639
-0.4261,9.8642,0.8471,-0.0863,-0.0722,-0.2512,-0.0314,-0.0943,0.0042,32,2019-08-07 17:01:06:643
-0.4261,9.8642,0.8471,-0.0704,-0.0915,-0.8328,-0.0314,-0.0943,0.0042,38,2019-08-07 17:01:06:649
-0.4261,9.8642,0.8471,-0.0704,-0.0915,-0.8328,-0.0314,-0.0943,0.0042,42,2019-08-07 17:01:06:653
-0.4165,9.9883,1.0592,-0.0704,-0.0915,-0.8328,-0.0058,-0.1071,0.0096,48,2019-08-07 17:01:06:659
-0.4165,9.9883,1.0592,-0.0704,-0.0915,-0.8328,-0.0058,-0.1071,0.0096,53,2019-08-07 17:01:06:664
-0.2251,10.0647,0.3616,-0.2299,-0.2681,-0.1248,-0.0058,-0.0698,0.0053,57,2019-08-07 17:01:06:668
-0.2251,10.0647,0.3616,-0.2299,-0.2681,-0.1248,-0.0058,-0.0698,0.0053,63,2019-08-07 17:01:06:674
-0.2251,10.0647,0.3616,-0.2299,-0.2681,-0.1248,-0.0186,0.0079,-0.0043,67,2019-08-07 17:01:06:678
-0.2921,9.9406,0.6444,-0.2299,-0.2681,-0.1248,-0.0186,0.0079,-0.0043,73,2019-08-07 17:01:06:684
-0.2921,9.9406,0.6444,-0.2299,-0.2681,-0.1248,-0.0186,0.0079,-0.0043,77,2019-08-07 17:01:06:688
-0.5409,9.9071,0.5172,-0.005,-0.0677,-0.3644,-0.0175,0.0282,-0.0053,83,2019-08-07 17:01:06:694
-0.5409,9.9071,0.5172,-0.005,-0.0677,-0.3644,-0.0175,0.0282,-0.0053,87,2019-08-07 17:01:06:698
-0.5409,9.9071,0.5172,-0.005,-0.0677,-0.3644,-0.0154,-0.0134,-0.0096,93,2019-08-07 17:01:06:704
-0.5361,10.0122,0.701,0.0792,-0.2589,-0.4572,-0.0154,-0.0134,-0.0096,99,2019-08-07 17:01:06:710
-0.5361,10.0122,0.701,0.0792,-0.2589,-0.4572,-0.0133,-0.0496,-0.0032,103,2019-08-07 17:01:06:714
-0.4308,9.974,0.6633,0.0792,-0.2589,-0.4572,-0.0133,-0.0496,-0.0032,108,2019-08-07 17:01:06:719
-0.4308,9.974,0.6633,0.0792,-0.2589,-0.4572,-0.0069,-0.0773,0.0064,112,2019-08-07 17:01:06:723
-0.4308,9.974,0.6633,-0.0301,-0.2017,-0.2397,-0.0069,-0.0773,0.0064,118,2019-08-07 17:01:06:729
-0.4452,9.9883,0.4747,-0.0301,-0.2017,-0.2397,-0.009,-0.0464,0.001,123,2019-08-07 17:01:06:734
-0.4452,9.9883,0.4747,-0.0301,-0.2017,-0.2397,-0.009,-0.0464,0.001,127,2019-08-07 17:01:06:738
-0.4452,9.9883,0.4747,-0.0301,-0.2017,-0.2397,-0.009,-0.0464,0.001,132,2019-08-07 17:01:06:743
-0.4021,9.9215,0.7528,-0.0922,-0.1112,-0.6024,-0.0037,-0.0261,-0.0085,138,2019-08-07 17:01:06:749
-0.4021,9.9215,0.7528,-0.0922,-0.1112,-0.6024,-0.0037,-0.0261,-0.0085,142,2019-08-07 17:01:06:753
-0.2729,9.8355,0.6633,-0.0922,-0.1112,-0.6024,0.0166,-0.057,-0.0085,149,2019-08-07 17:01:06:760
-0.2729,9.8355,0.6633,-0.0922,-0.1112,-0.6024,0.0166,-0.057,-0.0085,153,2019-08-07 17:01:06:764
-0.2729,9.8355,0.6633,-0.0922,-0.1112,-0.6024,0.0187,-0.0166,-0.0149,157,2019-08-07 17:01:06:768
-0.2873,9.9549,0.4983,-0.1689,-0.1589,-0.2393,0.0187,-0.0166,-0.0149,163,2019-08-07 17:01:06:774
-0.2873,9.9549,0.4983,-0.1689,-0.1589,-0.2393,0.0187,-0.0166,-0.0149,168,2019-08-07 17:01:06:779
-0.2873,9.9549,0.4983,-0.1689,-0.1589,-0.2393,0.0123,0.0516,-0.016,173,2019-08-07 17:01:06:784
-0.2585,9.7782,0.8424,-0.1689,-0.1589,-0.2393,0.0123,0.0516,-0.016,178,2019-08-07 17:01:06:789
-0.2585,9.7782,0.8424,-0.152,-0.0349,-0.5638,0.0304,0.0399,-0.0256,183,2019-08-07 17:01:06:794
-0.3351,9.888,0.6822,-0.152,-0.0349,-0.5638,0.0304,0.0399,-0.0256,187,2019-08-07 17:01:06:798
-0.3351,9.888,0.6822,-0.152,-0.0349,-0.5638,0.0411,0.0335,-0.0256,193,2019-08-07 17:01:06:804
-0.3351,9.888,0.6822,-0.152,-0.0349,-0.5638,0.0411,0.0335,-0.0256,198,2019-08-07 17:01:06:809
-0.3733,9.9453,0.7529,-0.0896,-0.1496,-0.4978,0.0517,0.0506,-0.0288,203,2019-08-07 17:01:06:814
-0.3733,9.9453,0.7529,-0.0896,-0.1496,-0.4978,0.0517,0.0506,-0.0288,208,2019-08-07 17:01:06:819
-0.469,9.8833,0.6963,-0.0896,-0.1496,-0.4978,0.0666,0.0506,-0.0256,213,2019-08-07 17:01:06:824
-0.469,9.8833,0.6963,-0.0896,-0.1496,-0.4978,0.0666,0.0506,-0.0256,218,2019-08-07 17:01:06:829
-0.469,9.8833,0.6963,0.0673,-0.078,-0.4175,0.0762,0.058,-0.0256,222,2019-08-07 17:01:06:833
-0.5982,9.8737,0.7199,0.0673,-0.078,-0.4175,0.0762,0.058,-0.0256,228,2019-08-07 17:01:06:839
-0.5982,9.8737,0.7199,0.0673,-0.078,-0.4175,0.0901,0.0548,-0.0235,233,2019-08-07 17:01:06:844
-0.4116,9.7591,0.7293,0.0673,-0.078,-0.4175,0.0901,0.0548,-0.0235,237,2019-08-07 17:01:06:848
-0.4116,9.7591,0.7293,-0.0815,0.0128,-0.4459,0.1135,0.0239,-0.0245,243,2019-08-07 17:01:06:854
-0.4116,9.7591,0.7293,-0.0815,0.0128,-0.4459,0.1135,0.0239,-0.0245,249,2019-08-07 17:01:06:860
-0.3207,9.8212,0.5407,-0.0815,0.0128,-0.4459,0.1135,0.0239,-0.0245,253,2019-08-07 17:01:06:864
-0.3207,9.8212,0.5407,-0.0815,0.0128,-0.4459,0.1156,0.042,-0.0266,258,2019-08-07 17:01:06:869
-0.2489,9.8116,0.5549,-0.229,-0.0156,-0.3438,0.1156,0.042,-0.0266,263,2019-08-07 17:01:06:874
-0.2489,9.8116,0.5549,-0.229,-0.0156,-0.3438,0.1135,0.0719,-0.0384,268,2019-08-07 17:01:06:879
-0.2489,9.8116,0.5549,-0.229,-0.0156,-0.3438,0.1135,0.0719,-0.0384,273,2019-08-07 17:01:06:884
-0.2489,9.8116,0.5549,-0.229,-0.0156,-0.3438,0.1135,0.0719,-0.0384,278,2019-08-07 17:01:06:889
-0.2202,10.0408,0.4041,-0.1872,-0.2732,-0.1717,0.1146,0.0761,-0.0437,282,2019-08-07 17:01:06:893
-0.2202,10.0408,0.4041,-0.1872,-0.2732,-0.1717,0.1146,0.0761,-0.0437,288,2019-08-07 17:01:06:899
-0.2202,10.0408,0.4041,-0.1872,-0.2732,-0.1717,0.1018,0.1209,-0.0554,292,2019-08-07 17:01:06:903
-0.5024,10.0456,0.4653,-0.1872,-0.2732,-0.1717,0.1018,0.1209,-0.0554,298,2019-08-07 17:01:06:909
-0.5024,10.0456,0.4653,0.1036,-0.1111,-0.4786,0.0997,0.1145,-0.0501,303,2019-08-07 17:01:06:914
-0.6507,9.931,0.5926,0.1036,-0.1111,-0.4786,0.0997,0.1145,-0.0501,308,2019-08-07 17:01:06:919
-0.6507,9.931,0.5926,0.1036,-0.1111,-0.4786,0.1103,0.0719,-0.0405,312,2019-08-07 17:01:06:923
-0.6507,9.931,0.5926,0.1036,-0.1111,-0.4786,0.1103,0.0719,-0.0405,318,2019-08-07 17:01:06:929
-0.7751,9.8498,0.6869,0.2706,-0.054,-0.5353,0.1199,0.0484,-0.033,323,2019-08-07 17:01:06:934
-0.7751,9.8498,0.6869,0.2706,-0.054,-0.5353,0.1199,0.0484,-0.033,328,2019-08-07 17:01:06:939
-0.622,9.9023,0.6398,0.2706,-0.054,-0.5353,0.1305,0.0271,-0.0203,334,2019-08-07 17:01:06:945
-0.622,9.9023,0.6398,0.2706,-0.054,-0.5353,0.1305,0.0271,-0.0203,338,2019-08-07 17:01:06:949
-0.622,9.9023,0.6398,0.011,-0.1829,-0.2275,0.1348,0.0154,-0.0171,343,2019-08-07 17:01:06:954
-0.5503,10.0408,0.2155,0.011,-0.1829,-0.2275,0.1348,0.0154,-0.0171,348,2019-08-07 17:01:06:959
-0.5503,10.0408,0.2155,0.011,-0.1829,-0.2275,0.1348,0.0154,-0.0171,353,2019-08-07 17:01:06:964
-0.5503,10.0408,0.2155,0.011,-0.1829,-0.2275,0.1252,0.0612,-0.0139,358,2019-08-07 17:01:06:969
-0.6986,9.8737,0.3993,0.2413,-0.0205,-0.3038,0.1252,0.0612,-0.0139,363,2019-08-07 17:01:06:974
-0.6986,9.8737,0.3993,0.2413,-0.0205,-0.3038,0.1178,0.0644,-0.0075,367,2019-08-07 17:01:06:978
-0.756,9.8403,0.569,0.2413,-0.0205,-0.3038,0.1178,0.0644,-0.0075,373,2019-08-07 17:01:06:984
-0.756,9.8403,0.569,0.2413,-0.0205,-0.3038,0.1369,-0.0134,0.0032,377,2019-08-07 17:01:06:988
-0.756,9.8403,0.569,0.1627,-0.049,-0.3778,0.1369,-0.0134,0.0032,383,2019-08-07 17:01:06:994
-0.6411,9.8546,0.3758,0.1627,-0.049,-0.3778,0.1412,-0.0666,0.0074,387,2019-08-07 17:01:06:998
-0.6411,9.8546,0.3758,0.1627,-0.049,-0.3778,0.1412,-0.0666,0.0074,393,2019-08-07 17:01:07:004
-0.445,9.8976,0.1071,0.1627,-0.049,-0.3778,0.1369,-0.0709,0.0085,398,2019-08-07 17:01:07:009
-0.445,9.8976,0.1071,-0.1323,-0.0535,-0.0972,0.1369,-0.0709,0.0085,403,2019-08-07 17:01:07:014
-0.445,9.8976,0.1071,-0.1323,-0.0535,-0.0972,0.1369,-0.0709,0.0085,408,2019-08-07 17:01:07:019
-0.354,9.8641,0.4276,-0.1323,-0.0535,-0.0972,0.121,-0.0325,-0.0011,413,2019-08-07 17:01:07:024
-0.354,9.8641,0.4276,-0.1323,-0.0535,-0.0972,0.121,-0.0325,-0.0011,418,2019-08-07 17:01:07:029
-0.354,9.8641,0.4276,-0.1651,-0.1107,-0.4486,0.1252,-0.0389,-0.0053,423,2019-08-07 17:01:07:034
-0.3588,9.9023,0.3899,-0.1651,-0.1107,-0.4486,0.1252,-0.0389,-0.0053,428,2019-08-07 17:01:07:039
-0.3588,9.9023,0.3899,-0.1651,-0.1107,-0.4486,0.122,-0.0293,-0.0053,433,2019-08-07 17:01:07:044
-0.4784,9.9835,0.0741,-0.1651,-0.1107,-0.4486,0.122,-0.0293,-0.0053,437,2019-08-07 17:01:07:048
-0.4784,9.9835,0.0741,0.0493,-0.2061,-0.113,0.1071,0.0154,-0.0107,443,2019-08-07 17:01:07:054
-0.4784,9.9835,0.0741,0.0493,-0.2061,-0.113,0.1071,0.0154,-0.0107,449,2019-08-07 17:01:07:060
-0.7128,9.9405,0.2862,0.0493,-0.2061,-0.113,0.106,0.0122,-0.0032,453,2019-08-07 17:01:07:064
-0.7128,9.9405,0.2862,0.0493,-0.2061,-0.113,0.106,0.0122,-0.0032,458,2019-08-07 17:01:07:069
-0.775,9.888,0.4182,0.2574,-0.0917,-0.4236,0.1092,-0.0528,0.001,463,2019-08-07 17:01:07:074
-0.775,9.888,0.4182,0.2574,-0.0917,-0.4236,0.1092,-0.0528,0.001,468,2019-08-07 17:01:07:079
-0.775,9.888,0.4182,0.2574,-0.0917,-0.4236,0.1135,-0.1103,0.0042,473,2019-08-07 17:01:07:084
-0.665,10.0503,0.3239,0.2574,-0.0917,-0.4236,0.1135,-0.1103,0.0042,477,2019-08-07 17:01:07:088
-0.665,10.0503,0.3239,-0.0487,-0.2922,-0.1501,0.106,-0.138,0.0128,483,2019-08-07 17:01:07:094
-0.3923,10.1076,-0.0909,-0.0487,-0.2922,-0.1501,0.106,-0.138,0.0128,488,2019-08-07 17:01:07:099
-0.3923,10.1076,-0.0909,-0.0487,-0.2922,-0.1501,0.106,-0.138,0.0128,492,2019-08-07 17:01:07:103
-0.3923,10.1076,-0.0909,-0.0487,-0.2922,-0.1501,0.0847,-0.1135,0.0064,499,2019-08-07 17:01:07:110
-0.3683,9.9453,0.1024,-0.0487,-0.2922,-0.1501,0.0847,-0.1135,0.0064,502,2019-08-07 17:01:07:113
-0.3683,9.9453,0.1024,-0.1135,-0.1203,-0.2183,0.0677,-0.0837,-0.0064,508,2019-08-07 17:01:07:119
-0.3683,9.9453,0.1024,-0.1135,-0.1203,-0.2183,0.0677,-0.0837,-0.0064,512,2019-08-07 17:01:07:123
-0.2487,9.9214,0.1448,-0.1135,-0.1203,-0.2183,0.0613,-0.1018,-0.0043,518,2019-08-07 17:01:07:129
-0.2487,9.9214,0.1448,-0.1135,-0.1203,-0.2183,0.0613,-0.1018,-0.0043,522,2019-08-07 17:01:07:133
-0.4592,10.2079,-0.1427,-0.1229,-0.316,0.059,0.0475,-0.1018,-0.0096,528,2019-08-07 17:01:07:139
-0.4592,10.2079,-0.1427,-0.1229,-0.316,0.059,0.0475,-0.1018,-0.0096,533,2019-08-07 17:01:07:144
-0.4592,10.2079,-0.1427,-0.1229,-0.316,0.059,0.023,-0.0826,-0.0075,538,2019-08-07 17:01:07:149
-0.5597,10.0026,-0.0437,-0.1229,-0.316,0.059,0.023,-0.0826,-0.0075,543,2019-08-07 17:01:07:154
-0.5597,10.0026,-0.0437,0.0668,-0.2111,-0.173,0.0134,-0.1018,-0.0117,548,2019-08-07 17:01:07:159
-0.6458,9.9644,0.2155,0.0668,-0.2111,-0.173,0.0134,-0.1018,-0.0117,553,2019-08-07 17:01:07:164
-0.6458,9.9644,0.2155,0.0668,-0.2111,-0.173,0.0134,-0.1018,-0.0117,558,2019-08-07 17:01:07:169
-0.6458,9.9644,0.2155,0.0668,-0.2111,-0.173,0.0038,-0.1359,-0.0053,563,2019-08-07 17:01:07:174
-0.4831,10.0646,-0.105,-0.0361,-0.2685,0.0494,0.0038,-0.1359,-0.0053,568,2019-08-07 17:01:07:179
-0.4831,10.0646,-0.105,-0.0361,-0.2685,0.0494,-0.0218,-0.1082,-0.0181,572,2019-08-07 17:01:07:183
-0.5357,10.079,-0.072,-0.0361,-0.2685,0.0494,-0.0218,-0.1082,-0.0181,578,2019-08-07 17:01:07:189
-0.5357,10.079,-0.072,-0.0361,-0.2685,0.0494,-0.0218,-0.1082,-0.0181,583,2019-08-07 17:01:07:194
-0.5357,10.079,-0.072,0.0899,-0.24,-0.2615,-0.0399,-0.0901,-0.0203,587,2019-08-07 17:01:07:198
-0.6314,10.0169,0.3758,0.0899,-0.24,-0.2615,-0.0399,-0.0901,-0.0203,593,2019-08-07 17:01:07:204
-0.6314,10.0169,0.3758,0.0899,-0.24,-0.2615,-0.0314,-0.1465,-0.0117,599,2019-08-07 17:01:07:210
-0.5979,9.8832,0.2768,0.0899,-0.24,-0.2615,-0.0314,-0.1465,-0.0117,602,2019-08-07 17:01:07:213
-0.5979,9.8832,0.2768,0.0094,-0.0492,-0.2582,-0.0324,-0.1891,-0.0139,608,2019-08-07 17:01:07:219
-0.5979,9.8832,0.2768,0.0094,-0.0492,-0.2582,-0.0324,-0.1891,-0.0139,613,2019-08-07 17:01:07:224
-0.4209,9.8355,0.126,0.0094,-0.0492,-0.2582,-0.0324,-0.1891,-0.0128,618,2019-08-07 17:01:07:229
-0.4209,9.8355,0.126,0.0094,-0.0492,-0.2582,-0.0324,-0.1891,-0.0128,622,2019-08-07 17:01:07:233
-0.33,9.7878,0.0411,-0.2076,-0.0302,-0.0551,-0.0431,-0.1636,-0.0203,628,2019-08-07 17:01:07:239
-0.33,9.7878,0.0411,-0.2076,-0.0302,-0.0551,-0.0431,-0.1636,-0.0203,633,2019-08-07 17:01:07:244
-0.33,9.7878,0.0411,-0.2076,-0.0302,-0.0551,-0.0431,-0.1636,-0.0203,638,2019-08-07 17:01:07:249
-0.4021,9.8069,0.1259,-0.2076,-0.0302,-0.0551,-0.0505,-0.1273,-0.0203,643,2019-08-07 17:01:07:254
-0.4021,9.8069,0.1259,-0.0524,0.0078,-0.1943,-0.0505,-0.1273,-0.0203,648,2019-08-07 17:01:07:259
-0.5695,9.8355,0.4417,-0.0524,0.0078,-0.1943,-0.0527,-0.1071,-0.0235,653,2019-08-07 17:01:07:264
-0.5695,9.8355,0.4417,-0.0524,0.0078,-0.1943,-0.0527,-0.1071,-0.0235,657,2019-08-07 17:01:07:268
-0.5695,9.8355,0.4417,-0.0524,0.0078,-0.1943,-0.0399,-0.1178,-0.0245,663,2019-08-07 17:01:07:274
-0.7178,10.1983,0.8236,0.1817,-0.403,-0.825,-0.0399,-0.1178,-0.0245,668,2019-08-07 17:01:07:279
-0.7178,10.1983,0.8236,0.1817,-0.403,-0.825,-0.0111,-0.1763,-0.0085,673,2019-08-07 17:01:07:284
-0.7178,10.1983,0.8236,0.1817,-0.403,-0.825,-0.0111,-0.1763,-0.0085,678,2019-08-07 17:01:07:289
-0.7944,10.1124,0.8613,0.1817,-0.403,-0.825,0.0272,-0.2467,0.0128,683,2019-08-07 17:01:07:294
-0.7944,10.1124,0.8613,0.2517,0.0504,-0.7602,0.0272,-0.2467,0.0128,688,2019-08-07 17:01:07:299
-0.7465,9.5873,0.5407,0.2517,0.0504,-0.7602,0.0538,-0.2967,0.0202,693,2019-08-07 17:01:07:304
-0.7465,9.5873,0.5407,0.2517,0.0504,-0.7602,0.0538,-0.2967,0.0202,698,2019-08-07 17:01:07:309
-0.7465,9.5873,0.5407,0.2517,0.0504,-0.7602,0.0602,-0.2775,0.0213,702,2019-08-07 17:01:07:313
-0.4451,9.6064,0.2391,-0.1084,0.1461,-0.1992,0.0602,-0.2775,0.0213,708,2019-08-07 17:01:07:319
-0.4451,9.6064,0.2391,-0.1084,0.1461,-0.1992,0.0666,-0.2349,0.0106,713,2019-08-07 17:01:07:324
-0.3877,9.6016,0.1731,-0.1084,0.1461,-0.1992,0.0666,-0.2349,0.0106,718,2019-08-07 17:01:07:329
-0.3877,9.6016,0.1731,-0.1084,0.1461,-0.1992,0.073,-0.2009,0.0053,722,2019-08-07 17:01:07:333
-0.3877,9.6016,0.1731,-0.1151,0.1367,-0.1617,0.073,-0.2009,0.0053,728,2019-08-07 17:01:07:339
-0.3877,9.6828,0.1731,-0.1151,0.1367,-0.1617,0.0773,-0.17,0.0085,733,2019-08-07 17:01:07:344
-0.3877,9.6828,0.1731,-0.1151,0.1367,-0.1617,0.0773,-0.17,0.0085,738,2019-08-07 17:01:07:349
-0.4977,9.7687,0.3051,-0.1151,0.1367,-0.1617,0.0805,-0.1412,0.0021,743,2019-08-07 17:01:07:354
-0.4977,9.7687,0.3051,0.0014,0.0222,-0.5885,0.0805,-0.1412,0.0021,749,2019-08-07 17:01:07:360
-0.4977,9.7687,0.3051,0.0014,0.0222,-0.5885,0.0805,-0.1412,0.0021,752,2019-08-07 17:01:07:363
-0.5695,9.931,0.7434,0.0014,0.0222,-0.5885,0.1082,-0.1412,-0.0032,758,2019-08-07 17:01:07:369
-0.5695,9.931,0.7434,0.0014,0.0222,-0.5885,0.1082,-0.1412,-0.0032,763,2019-08-07 17:01:07:374
-0.5695,9.931,0.7434,-0.0708,-0.102,-0.6642,0.1284,-0.1508,0.0021,768,2019-08-07 17:01:07:379
-0.3637,9.8069,0.5125,-0.0708,-0.102,-0.6642,0.1284,-0.1508,0.0021,773,2019-08-07 17:01:07:384
-0.3637,9.8069,0.5125,-0.0708,-0.102,-0.6642,0.1284,-0.1508,0.0021,778,2019-08-07 17:01:07:389
-0.3446,9.9262,0.5313,-0.0708,-0.102,-0.6642,0.1497,-0.1103,-0.0203,783,2019-08-07 17:01:07:394
-0.3446,9.9262,0.5313,-0.325,-0.0114,-0.6875,0.1497,-0.1103,-0.0203,787,2019-08-07 17:01:07:398
-0.3446,9.9262,0.5313,-0.325,-0.0114,-0.6875,0.171,-0.0336,-0.0096,793,2019-08-07 17:01:07:404
-0.158,9.7496,0.5832,-0.325,-0.0114,-0.6875,0.171,-0.0336,-0.0096,798,2019-08-07 17:01:07:409
-0.158,9.7496,0.5832,-0.325,-0.0114,-0.6875,0.187,-0.0038,-0.0203,803,2019-08-07 17:01:07:414
-0.2058,9.6732,0.3946,-0.3253,0.122,-0.4834,0.187,-0.0038,-0.0203,808,2019-08-07 17:01:07:419
-0.2058,9.6732,0.3946,-0.3253,0.122,-0.4834,0.2041,0.0261,-0.0256,813,2019-08-07 17:01:07:424
-0.2058,9.6732,0.3946,-0.3253,0.122,-0.4834,0.2041,0.0261,-0.0256,818,2019-08-07 17:01:07:429
-0.469,9.6923,0.4559,-0.3253,0.122,-0.4834,0.2168,0.0559,-0.0384,823,2019-08-07 17:01:07:434
-0.469,9.6923,0.4559,-0.0148,-0.084,-0.606,0.2168,0.0559,-0.0384,829,2019-08-07 17:01:07:440
-0.4163,9.9071,0.3475,-0.0148,-0.084,-0.606,0.2275,0.0559,-0.0266,833,2019-08-07 17:01:07:444
-0.4163,9.9071,0.3475,-0.0148,-0.084,-0.606,0.2275,0.0559,-0.0266,838,2019-08-07 17:01:07:449
-0.4163,9.9071,0.3475,-0.0148,-0.084,-0.606,0.2275,0.0559,-0.0266,843,2019-08-07 17:01:07:454
-0.5455,9.9214,-0.0532,-0.011,-0.1757,-0.1453,0.2328,0.042,-0.0384,848,2019-08-07 17:01:07:459
-0.5455,9.9214,-0.0532,-0.011,-0.1757,-0.1453,0.2328,0.042,-0.0384,853,2019-08-07 17:01:07:464
-0.4307,9.9405,0.1919,-0.011,-0.1757,-0.1453,0.2286,0.058,-0.0384,858,2019-08-07 17:01:07:469
-0.4307,9.9405,0.1919,-0.011,-0.1757,-0.1453,0.2286,0.058,-0.0384,863,2019-08-07 17:01:07:474
-0.4594,9.974,-0.072,-0.0899,-0.1817,-0.1427,0.236,0.0442,-0.0448,868,2019-08-07 17:01:07:479
-0.4594,9.974,-0.072,-0.0899,-0.1817,-0.1427,0.236,0.0442,-0.0448,873,2019-08-07 17:01:07:484
-0.4594,9.974,-0.072,-0.0899,-0.1817,-0.1427,0.219,0.0292,-0.0437,878,2019-08-07 17:01:07:489
-0.445,10.036,-0.4963,-0.0899,-0.1817,-0.1427,0.219,0.0292,-0.0437,883,2019-08-07 17:01:07:494
-0.445,10.036,-0.4963,-0.0899,-0.1817,-0.1427,0.2041,0.0633,-0.0458,887,2019-08-07 17:01:07:498
-0.445,10.036,-0.4963,-0.0493,-0.2644,0.0951,0.2041,0.0633,-0.0458,893,2019-08-07 17:01:07:504
-0.5551,9.9978,-0.171,-0.0493,-0.2644,0.0951,0.1785,0.0591,-0.0394,898,2019-08-07 17:01:07:509
-0.5551,9.9978,-0.171,-0.0493,-0.2644,0.0951,0.1785,0.0591,-0.0394,903,2019-08-07 17:01:07:514
-0.7464,10.0169,-0.1946,-0.0493,-0.2644,0.0951,0.1785,0.0591,-0.0394,908,2019-08-07 17:01:07:519
-0.7464,10.0169,-0.1946,0.1723,-0.1608,-0.0295,0.1604,0.0133,-0.033,913,2019-08-07 17:01:07:524
-0.7464,10.0169,-0.1946,0.1723,-0.1608,-0.0295,0.1604,0.0133,-0.033,917,2019-08-07 17:01:07:528
-0.6459,9.9023,-0.336,0.1723,-0.1608,-0.0295,0.1444,-0.0155,-0.0288,923,2019-08-07 17:01:07:534
-0.6459,9.9023,-0.336,0.1723,-0.1608,-0.0295,0.1444,-0.0155,-0.0288,927,2019-08-07 17:01:07:538
-0.5311,10.0217,-0.0438,-0.0208,-0.2528,-0.2561,0.1337,-0.0176,-0.0288,933,2019-08-07 17:01:07:544
-0.5311,10.0217,-0.0438,-0.0208,-0.2528,-0.2561,0.1337,-0.0176,-0.0288,937,2019-08-07 17:01:07:548
-0.5311,10.0217,-0.0438,-0.0208,-0.2528,-0.2561,0.121,0.0143,-0.0266,944,2019-08-07 17:01:07:555
-0.378,9.9358,-0.5057,-0.0208,-0.2528,-0.2561,0.121,0.0143,-0.0266,949,2019-08-07 17:01:07:560
-0.378,9.9358,-0.5057,-0.2548,-0.1632,0.2419,0.0986,0.0537,-0.0362,952,2019-08-07 17:01:07:563
-0.378,9.9358,-0.5057,-0.2548,-0.1632,0.2419,0.0986,0.0537,-0.0362,958,2019-08-07 17:01:07:569
-0.512,9.9787,-0.4916,-0.2548,-0.1632,0.2419,0.0677,0.0793,-0.0501,963,2019-08-07 17:01:07:574
-0.512,9.9787,-0.4916,-0.2548,-0.1632,0.2419,0.0677,0.0793,-0.0501,968,2019-08-07 17:01:07:579
-0.6172,10.1219,-0.1899,0.1109,-0.3314,-0.0822,0.0656,0.091,-0.0405,972,2019-08-07 17:01:07:583
-0.6172,10.1219,-0.1899,0.1109,-0.3314,-0.0822,0.0656,0.091,-0.0405,978,2019-08-07 17:01:07:589
-0.6172,10.1219,-0.1899,0.1109,-0.3314,-0.0822,0.0709,0.0431,-0.0469,983,2019-08-07 17:01:07:594
-0.7129,9.9978,-0.1145,0.1109,-0.3314,-0.0822,0.0709,0.0431,-0.0469,988,2019-08-07 17:01:07:599
-0.7129,9.9978,-0.1145,0.1739,-0.1891,-0.1889,0.0709,0.0431,-0.0469,993,2019-08-07 17:01:07:604
-0.7177,9.9835,-0.1474,0.1739,-0.1891,-0.1889,0.0794,-0.0091,-0.0416,998,2019-08-07 17:01:07:609
-0.7177,9.9835,-0.1474,0.1739,-0.1891,-0.1889,0.0773,-0.0336,-0.0352,1003,2019-08-07 17:01:07:614
-0.7177,9.9835,-0.1474,0.1739,-0.1891,-0.1889,0.0773,-0.0336,-0.0352,1008,2019-08-07 17:01:07:619
-0.6028,9.8451,-0.2936,0.0032,-0.0613,-0.0987,0.0773,-0.0336,-0.0373,1013,2019-08-07 17:01:07:624
-0.6028,9.8451,-0.2936,0.0032,-0.0613,-0.0987,0.0773,-0.0347,-0.0373,1018,2019-08-07 17:01:07:629
-0.5263,9.8928,-0.4491,0.0032,-0.0613,-0.0987,0.0624,-0.0059,-0.0426,1023,2019-08-07 17:01:07:634
-0.5263,9.8928,-0.4491,0.0032,-0.0613,-0.0987,0.0624,-0.0059,-0.0426,1028,2019-08-07 17:01:07:639
-0.5263,9.8928,-0.4491,-0.0668,-0.258,-0.2674,0.0624,-0.0059,-0.0426,1033,2019-08-07 17:01:07:644
-0.622,10.0694,0.0364,-0.0668,-0.258,-0.2674,0.056,0.0143,-0.0416,1037,2019-08-07 17:01:07:648
-0.622,10.0694,0.0364,-0.0668,-0.258,-0.2674,0.056,0.0143,-0.0416,1043,2019-08-07 17:01:07:654
-0.6937,10.0837,-0.2464,-0.0668,-0.258,-0.2674,0.0581,0.0111,-0.0448,1048,2019-08-07 17:01:07:659
-0.6937,10.0837,-0.2464,0.1257,-0.321,-0.0599,0.0581,0.0111,-0.0448,1053,2019-08-07 17:01:07:664
-0.6937,10.0837,-0.2464,0.1257,-0.321,-0.0599,0.0709,0.0452,-0.0341,1058,2019-08-07 17:01:07:669
-0.5741,9.8832,-0.2747,0.1257,-0.321,-0.0599,0.0709,0.0452,-0.0341,1063,2019-08-07 17:01:07:674
-0.5741,9.8832,-0.2747,0.1257,-0.321,-0.0599,0.0443,0.0655,-0.0352,1068,2019-08-07 17:01:07:679
-0.5741,9.8832,-0.2747,-0.0048,-0.1977,-0.0283,0.0443,0.0655,-0.0352,1072,2019-08-07 17:01:07:683
-0.6746,10.0074,-0.4633,-0.0048,-0.1977,-0.0283,0.0357,0.0665,-0.0405,1078,2019-08-07 17:01:07:689
-0.6746,10.0074,-0.4633,-0.0048,-0.1977,-0.0283,0.0357,0.0665,-0.0405,1084,2019-08-07 17:01:07:695
-0.6794,10.0121,-0.4821,-0.0048,-0.1977,-0.0283,0.0208,0.0537,-0.0416,1088,2019-08-07 17:01:07:699
-0.6794,10.0121,-0.4821,-0.0048,-0.1977,-0.0283,0.0208,0.0537,-0.0416,1092,2019-08-07 17:01:07:703
-0.6411,10.0169,-0.2841,0.0449,-0.2081,-0.0259,0.0208,0.0537,-0.0416,1098,2019-08-07 17:01:07:709
-0.6411,10.0169,-0.2841,0.0449,-0.2081,-0.0259,0.0123,0.0197,-0.0501,1102,2019-08-07 17:01:07:713
-0.6411,10.0169,-0.2841,0.0449,-0.2081,-0.0259,0.0123,0.0197,-0.0501,1108,2019-08-07 17:01:07:719
-0.6028,9.931,-0.3218,-0.0257,-0.1275,-0.1495,0.0048,-0.0102,-0.0384,1113,2019-08-07 17:01:07:724
-0.6028,9.931,-0.3218,-0.0257,-0.1275,-0.1495,0.0048,-0.0102,-0.0384,1119,2019-08-07 17:01:07:730
-0.6028,9.931,-0.3218,-0.0257,-0.1275,-0.1495,-0.0069,-0.0304,-0.0512,1122,2019-08-07 17:01:07:733
-0.5645,9.888,-0.369,-0.0257,-0.1275,-0.1495,-0.0069,-0.0304,-0.0512,1128,2019-08-07 17:01:07:739
-0.5645,9.888,-0.369,-0.068,-0.1328,-0.0019,-0.009,0.0037,-0.0448,1133,2019-08-07 17:01:07:744
-0.5645,9.888,-0.369,-0.068,-0.1328,-0.0019,-0.009,0.0037,-0.0448,1138,2019-08-07 17:01:07:749
-0.5645,9.826,-0.3407,-0.068,-0.1328,-0.0019,-0.009,0.0037,-0.0448,1143,2019-08-07 17:01:07:754
-0.5645,9.826,-0.3407,-0.0243,-0.133,-0.0521,-0.0239,0.0111,-0.0533,1148,2019-08-07 17:01:07:759
-0.775,9.8785,-0.171,-0.0243,-0.133,-0.0521,-0.0239,0.0111,-0.0533,1153,2019-08-07 17:01:07:764
-0.775,9.8785,-0.171,-0.0243,-0.133,-0.0521,-0.025,-0.0048,-0.049,1158,2019-08-07 17:01:07:769
-0.775,9.8785,-0.171,0.0272,-0.162,-0.1914,-0.025,-0.0048,-0.049,1163,2019-08-07 17:01:07:774
-0.7607,9.9501,-0.2087,0.0272,-0.162,-0.1914,-0.0207,-0.0368,-0.0426,1168,2019-08-07 17:01:07:779
-0.7607,9.9501,-0.2087,0.0272,-0.162,-0.1914,-0.0207,-0.0368,-0.0426,1174,2019-08-07 17:01:07:785
-0.7607,9.9501,-0.2087,0.0272,-0.162,-0.1914,-0.0207,-0.0368,-0.0426,1178,2019-08-07 17:01:07:789
-0.6841,9.9405,-0.303,0.0087,-0.148,-0.0765,-0.0271,-0.0475,-0.0394,1183,2019-08-07 17:01:07:794
-0.6841,9.9405,-0.303,0.0087,-0.148,-0.0765,-0.0271,-0.0475,-0.0394,1188,2019-08-07 17:01:07:799
-0.6841,9.9405,-0.303,0.0087,-0.148,-0.0765,-0.0442,-0.0336,-0.0426,1192,2019-08-07 17:01:07:803
-0.6554,9.8498,-0.2794,0.0087,-0.148,-0.0765,-0.0442,-0.0336,-0.0426,1198,2019-08-07 17:01:07:809
-0.6554,9.8498,-0.2794,0.1046,-0.2437,-0.1129,-0.0569,-0.0251,-0.048,1203,2019-08-07 17:01:07:814
-0.7511,10.0265,-0.2841,0.1046,-0.2437,-0.1129,-0.0569,-0.0251,-0.048,1208,2019-08-07 17:01:07:819
-0.7511,10.0265,-0.2841,0.1046,-0.2437,-0.1129,-0.0516,0.009,-0.0341,1213,2019-08-07 17:01:07:824
-0.6554,9.9692,-0.1663,-0.0237,-0.1721,-0.1684,-0.0516,0.009,-0.0341,1218,2019-08-07 17:01:07:829
-0.6554,9.9692,-0.1663,-0.0237,-0.1721,-0.1684,-0.0516,0.009,-0.0341,1222,2019-08-07 17:01:07:833
-0.6554,9.9692,-0.1663,-0.0237,-0.1721,-0.1684,-0.0623,0.0133,-0.0469,1228,2019-08-07 17:01:07:839
-0.7367,10.0455,-0.2417,-0.0237,-0.1721,-0.1684,-0.0623,0.0133,-0.0469,1233,2019-08-07 17:01:07:844
-0.7367,10.0455,-0.2417,-0.0033,-0.239,-0.1264,-0.0612,-6.0E-4,-0.0416,1238,2019-08-07 17:01:07:849
-0.7367,10.0455,-0.2417,-0.0033,-0.239,-0.1264,-0.0612,-6.0E-4,-0.0416,1243,2019-08-07 17:01:07:854
-0.6937,9.8737,-0.2936,-0.0033,-0.239,-0.1264,-0.0633,-0.0112,-0.0426,1248,2019-08-07 17:01:07:859
-0.6937,9.8737,-0.2936,-0.0033,-0.239,-0.1264,-0.0633,-0.0112,-0.0426,1253,2019-08-07 17:01:07:864
-0.7032,9.8069,-0.3266,0.036,0.0139,-0.0416,-0.0846,-0.0112,-0.0437,1258,2019-08-07 17:01:07:869
-0.7032,9.8069,-0.3266,0.036,0.0139,-0.0416,-0.0846,-0.0112,-0.0437,1262,2019-08-07 17:01:07:873
-0.7032,9.8069,-0.3266,0.036,0.0139,-0.0416,-0.0974,-0.0091,-0.0437,1268,2019-08-07 17:01:07:879
-0.7271,9.9357,-0.2653,0.036,0.0139,-0.0416,-0.0974,-0.0091,-0.0437,1273,2019-08-07 17:01:07:884
-0.7271,9.9357,-0.2653,-0.0158,-0.091,-0.2064,-0.0974,-0.0091,-0.0437,1278,2019-08-07 17:01:07:889
-0.7606,9.9501,-0.072,-0.0158,-0.091,-0.2064,-0.1102,-0.0379,-0.0543,1283,2019-08-07 17:01:07:894
-0.7606,9.9501,-0.072,0.0937,-0.2867,-0.2795,-0.1102,-0.0379,-0.0543,1288,2019-08-07 17:01:07:899
-0.7606,9.9501,-0.072,0.0937,-0.2867,-0.2795,-0.1102,-0.0379,-0.0543,1293,2019-08-07 17:01:07:904
-0.7989,9.9883,-0.0107,0.0937,-0.2867,-0.2795,-0.0942,-0.04,-0.0341,1298,2019-08-07 17:01:07:909
-0.7989,9.9883,-0.0107,0.0937,-0.2867,-0.2795,-0.0942,-0.04,-0.0341,1303,2019-08-07 17:01:07:914
-0.7989,9.9883,-0.0107,0.0717,-0.2149,-0.2863,-0.0825,-0.0634,-0.0373,1308,2019-08-07 17:01:07:919
-0.751,9.9453,-0.039,0.0717,-0.2149,-0.2863,-0.0825,-0.0634,-0.0373,1313,2019-08-07 17:01:07:924
-0.751,9.9453,-0.039,0.0717,-0.2149,-0.2863,-0.0825,-0.0634,-0.0373,1317,2019-08-07 17:01:07:928
-0.751,9.9453,-0.039,0.0717,-0.2149,-0.2863,-0.0761,-0.0624,-0.0394,1323,2019-08-07 17:01:07:934
-0.7175,9.8546,0.1401,-0.0124,-0.0764,-0.4414,-0.0761,-0.0624,-0.0394,1328,2019-08-07 17:01:07:939
-0.7175,9.8546,0.1401,-0.0124,-0.0764,-0.4414,-0.0655,-0.0592,-0.0394,1332,2019-08-07 17:01:07:943
-0.7175,9.8546,0.1401,-0.0124,-0.0764,-0.4414,-0.0655,-0.0592,-0.0394,1338,2019-08-07 17:01:07:949
-0.6266,9.8403,0.0081,-0.0124,-0.0764,-0.4414,-0.0612,-0.0421,-0.0394,1343,2019-08-07 17:01:07:954
-0.6266,9.8403,0.0081,-0.1535,-0.0096,-0.3405,-0.0612,-0.0421,-0.0394,1348,2019-08-07 17:01:07:959
-0.6218,9.8259,-0.0107,-0.1535,-0.0096,-0.3405,-0.0559,-0.0134,-0.0405,1353,2019-08-07 17:01:07:964
-0.6218,9.8259,-0.0107,-0.1535,-0.0096,-0.3405,-0.0559,-0.0134,-0.0405,1357,2019-08-07 17:01:07:968
-0.6218,9.8259,-0.0107,-0.1535,-0.0096,-0.3405,-0.0569,0.0037,-0.0416,1363,2019-08-07 17:01:07:974
-0.684,9.9071,0.06,-0.0601,-0.1291,-0.3313,-0.0569,0.0037,-0.0416,1367,2019-08-07 17:01:07:978
-0.684,9.9071,0.06,-0.0601,-0.1291,-0.3313,-0.0474,-0.0027,-0.0373,1373,2019-08-07 17:01:07:984
-0.684,9.9071,0.06,-0.0601,-0.1291,-0.3313,-0.0474,-0.0027,-0.0373,1378,2019-08-07 17:01:07:989
-0.7462,9.8689,-0.0343,-0.0601,-0.1291,-0.3313,-0.0474,-0.0166,-0.0426,1383,2019-08-07 17:01:07:994
-0.7462,9.8689,-0.0343,-0.0391,-0.0673,-0.1877,-0.0474,-0.0166,-0.0426,1388,2019-08-07 17:01:07:999
-0.7462,9.8689,-0.0343,-0.0391,-0.0673,-0.1877,-0.0474,-0.0166,-0.0426,1392,2019-08-07 17:01:08:003
-0.7797,9.8641,-0.039,-0.0391,-0.0673,-0.1877,-0.0516,-0.0187,-0.0405,1398,2019-08-07 17:01:08:009
-0.7797,9.8641,-0.039,-0.0391,-0.0673,-0.1877,-0.0388,-0.0176,-0.0416,1403,2019-08-07 17:01:08:014
-0.7462,9.9023,0.0364,-0.0138,-0.125,-0.2853,-0.0388,-0.0176,-0.0416,1408,2019-08-07 17:01:08:019
-0.7462,9.9023,0.0364,-0.0138,-0.125,-0.2853,-0.0388,-0.0176,-0.0416,1412,2019-08-07 17:01:08:023
-0.7462,9.9023,0.0364,-0.0138,-0.125,-0.2853,-0.0282,-0.0112,-0.0448,1418,2019-08-07 17:01:08:029
-0.6649,9.6684,0.1024,-0.0138,-0.125,-0.2853,-0.0282,-0.0112,-0.0448,1422,2019-08-07 17:01:08:033
-0.6649,9.6684,0.1024,-0.1468,0.118,-0.2585,-0.0197,0.0303,-0.0522,1428,2019-08-07 17:01:08:039
-0.5788,9.7209,-0.0154,-0.1468,0.118,-0.2585,-0.0197,0.0303,-0.0522,1433,2019-08-07 17:01:08:044
-0.5788,9.7209,-0.0154,-0.1468,0.118,-0.2585,-0.0186,0.0687,-0.0597,1438,2019-08-07 17:01:08:049
-0.5788,9.7209,-0.0154,-0.1468,0.118,-0.2585,-0.0186,0.0687,-0.0597,1443,2019-08-07 17:01:08:054
-0.7271,9.8116,0.0317,-0.0514,-0.0354,-0.2686,-0.0133,0.1198,-0.0607,1448,2019-08-07 17:01:08:059
-0.7271,9.8116,0.0317,-0.0514,-0.0354,-0.2686,-0.0133,0.1198,-0.0607,1453,2019-08-07 17:01:08:064
-0.7271,9.8116,0.0317,-0.0514,-0.0354,-0.2686,0.0027,0.1166,-0.065,1458,2019-08-07 17:01:08:069
-0.9041,9.9883,0.3664,-0.0514,-0.0354,-0.2686,0.0027,0.1166,-0.065,1463,2019-08-07 17:01:08:074
-0.9041,9.9883,0.3664,0.147,-0.3084,-0.8646,0.0368,0.0623,-0.0554,1468,2019-08-07 17:01:08:079
-0.8419,10.0455,0.6822,0.147,-0.3084,-0.8646,0.0368,0.0623,-0.0554,1473,2019-08-07 17:01:08:084
-0.8419,10.0455,0.6822,0.147,-0.3084,-0.8646,0.0858,-6.0E-4,-0.0575,1478,2019-08-07 17:01:08:089
-0.8419,10.0455,0.6822,0.147,-0.3084,-0.8646,0.0858,-6.0E-4,-0.0575,1483,2019-08-07 17:01:08:094
-0.5787,10.1649,0.8378,-0.309,-0.3573,-1.1374,0.138,-0.0304,-0.0703,1488,2019-08-07 17:01:08:099
-0.5787,10.1649,0.8378,-0.309,-0.3573,-1.1374,0.138,-0.0304,-0.0703,1493,2019-08-07 17:01:08:104
-0.5787,10.1649,0.8378,-0.309,-0.3573,-1.1374,0.138,-0.0304,-0.0703,1498,2019-08-07 17:01:08:109
0.0241,10.0551,1.262,-0.309,-0.3573,-1.1374,0.2147,-0.0251,-0.0884,1503,2019-08-07 17:01:08:114
0.0241,10.0551,1.262,-1.0087,-0.1823,-1.4064,0.2147,-0.0251,-0.0884,1508,2019-08-07 17:01:08:119
0.182,9.9739,1.1819,-1.0087,-0.1823,-1.4064,0.2946,0.0953,-0.1204,1512,2019-08-07 17:01:08:123
0.182,9.9739,1.1819,-1.0087,-0.1823,-1.4064,0.2946,0.0953,-0.1204,1518,2019-08-07 17:01:08:129
0.182,9.9739,1.1819,-1.0087,-0.1823,-1.4064,0.3777,0.2838,-0.1651,1523,2019-08-07 17:01:08:134
0.0959,10.3749,2.1011,-1.0087,-0.1823,-1.4064,0.3777,0.2838,-0.1651,1528,2019-08-07 17:01:08:139
0.0959,10.3749,2.1011,-0.775,-0.7395,-2.6001,0.5172,0.4181,-0.1854,1533,2019-08-07 17:01:08:144
0.0959,10.3749,2.1011,-0.775,-0.7395,-2.6001,0.5172,0.4181,-0.1854,1538,2019-08-07 17:01:08:149
-0.6026,11.0719,3.1711,-0.775,-0.7395,-2.6001,0.5172,0.4181,-0.1854,1542,2019-08-07 17:01:08:153
-0.6026,11.0719,3.1711,-0.775,-0.7395,-2.6001,0.7122,0.4873,-0.1726,1548,2019-08-07 17:01:08:159
-0.6026,11.0719,3.1711,-0.1005,-2.0876,-4.4164,0.7122,0.4873,-0.1726,1553,2019-08-07 17:01:08:164
-0.8083,12.3322,4.4344,-0.1005,-2.0876,-4.4164,0.9252,0.4607,-0.1832,1557,2019-08-07 17:01:08:168
-0.8083,12.3322,4.4344,-0.1005,-2.0876,-4.4164,0.9252,0.4607,-0.1832,1563,2019-08-07 17:01:08:174
-1.3298,14.1272,4.5098,0.4966,-4.7541,-4.9207,1.167,0.3723,-0.1619,1568,2019-08-07 17:01:08:179
-1.3298,14.1272,4.5098,0.4966,-4.7541,-4.9207,1.167,0.3723,-0.1619,1572,2019-08-07 17:01:08:183
-1.3298,14.1272,4.5098,0.4966,-4.7541,-4.9207,1.3908,0.4266,-0.1406,1578,2019-08-07 17:01:08:189
-1.4207,15.8028,3.8546,0.5191,-6.062,-4.5905,1.3908,0.4266,-0.1406,1583,2019-08-07 17:01:08:194
-1.4207,15.8028,3.8546,0.5191,-6.062,-4.5905,1.575,0.5981,-0.2259,1588,2019-08-07 17:01:08:199
-1.4207,15.8028,3.8546,0.5191,-6.062,-4.5905,1.575,0.5981,-0.2259,1593,2019-08-07 17:01:08:204
-2.655,18.2804,5.5893,0.5191,-6.062,-4.5905,1.8829,0.5608,-0.2834,1598,2019-08-07 17:01:08:209
-2.655,18.2804,5.5893,2.7576,-10.3372,-9.4651,1.8829,0.5608,-0.2834,1603,2019-08-07 17:01:08:214
-4.296,21.4884,10.52,2.7576,-10.3372,-9.4651,1.8829,0.5608,-0.2834,1608,2019-08-07 17:01:08:219
-4.296,21.4884,10.52,2.7576,-10.3372,-9.4651,2.4006,-0.2072,-0.1694,1613,2019-08-07 17:01:08:224
-4.296,21.4884,10.52,2.7576,-10.3372,-9.4651,2.4006,-0.2072,-0.1694,1618,2019-08-07 17:01:08:229
-4.1094,22.257,9.9826,3.1215,-12.6051,-11.4324,2.5775,-1.2736,-0.0288,1622,2019-08-07 17:01:08:233
-4.1094,22.257,9.9826,3.1215,-12.6051,-11.4324,2.5775,-1.2736,-0.0288,1628,2019-08-07 17:01:08:239
-1.7891,20.7246,3.4398,3.1215,-12.6051,-11.4324,2.2771,-1.3343,-0.0341,1634,2019-08-07 17:01:08:245
-1.7891,20.7246,3.4398,3.1215,-12.6051,-11.4324,2.2771,-1.3343,-0.0341,1639,2019-08-07 17:01:08:250
-1.7891,20.7246,3.4398,-1.2684,-10.1848,-4.9044,2.2771,-1.3343,-0.0341,1643,2019-08-07 17:01:08:254
0.9414,19.6267,0.7102,-1.2684,-10.1848,-4.9044,2.2131,-1.428,-0.1822,1648,2019-08-07 17:01:08:259
0.9414,19.6267,0.7102,-1.2684,-10.1848,-4.9044,2.2131,-1.428,-0.1822,1653,2019-08-07 17:01:08:264
0.9414,19.6267,0.7102,-1.2684,-10.1848,-4.9044,2.6829,-1.5431,-0.2227,1658,2019-08-07 17:01:08:269
0.3194,25.9998,-3.7537,-1.4528,-16.5287,1.4625,2.6829,-1.5431,-0.2227,1662,2019-08-07 17:01:08:273
0.3194,25.9998,-3.7537,-1.4528,-16.5287,1.4625,2.8203,-1.9745,0.2631,1668,2019-08-07 17:01:08:279
0.8313,27.5608,-7.6851,-1.4528,-16.5287,1.4625,2.8203,-1.9745,0.2631,1673,2019-08-07 17:01:08:284
0.8313,27.5608,-7.6851,-1.4528,-16.5287,1.4625,2.7138,-1.1979,0.5465,1678,2019-08-07 17:01:08:289
0.8313,27.5608,-7.6851,-1.8532,-15.5777,8.2972,2.7138,-1.1979,0.5465,1683,2019-08-07 17:01:08:294
-0.2499,24.3098,-11.7248,-1.8532,-15.5777,8.2972,2.1982,0.4852,0.4857,1688,2019-08-07 17:01:08:299
-0.2499,24.3098,-11.7248,-1.8532,-15.5777,8.2972,2.1982,0.4852,0.4857,1693,2019-08-07 17:01:08:304
-2.8669,24.033,-6.5867,-1.8532,-15.5777,8.2972,1.4398,1.0956,0.4666,1698,2019-08-07 17:01:08:309
-2.8669,24.033,-6.5867,2.0049,-14.518,1.4089,1.4398,1.0956,0.4666,1703,2019-08-07 17:01:08:314
-2.8669,24.033,-6.5867,2.0049,-14.518,1.4089,1.4398,1.0956,0.4666,1708,2019-08-07 17:01:08:319
-2.8813,21.985,1.1627,2.0049,-14.518,1.4089,1.7689,0.2551,0.5028,1714,2019-08-07 17:01:08:325
-2.8813,21.985,1.1627,2.0049,-14.518,1.4089,1.7689,0.2551,0.5028,1719,2019-08-07 17:01:08:330
-2.8813,22.1759,-6.0682,3.5148,-12.5872,2.3878,2.2185,-0.399,0.3888,1722,2019-08-07 17:01:08:333
-4.5558,22.1759,-6.0682,3.5148,-12.5872,2.3878,2.2185,-0.399,0.3888,1728,2019-08-07 17:01:08:339
-4.5558,22.1759,-6.0682,3.5781,-12.6029,3.9839,1.8744,-1.6656,0.4463,1734,2019-08-07 17:01:08:345
-3.9291,20.0516,-9.1605,3.5781,-12.6029,3.9839,1.8744,-1.6656,0.4463,1738,2019-08-07 17:01:08:349
-3.9291,20.0516,-9.1605,3.5781,-12.6029,3.9839,1.8744,-1.6656,0.4463,1743,2019-08-07 17:01:08:354
-2.0202,16.8484,-9.8629,2.0689,-9.5977,6.0709,1.6667,-1.9969,0.4825,1748,2019-08-07 17:01:08:359
-2.0202,16.8484,-9.8629,2.0689,-9.5977,6.0709,1.6667,-1.9969,0.4825,1753,2019-08-07 17:01:08:364
-2.0202,16.8484,-9.8629,2.0689,-9.5977,6.0709,1.1255,-0.4981,0.3728,1758,2019-08-07 17:01:08:369
-0.4892,15.3494,-11.5268,-0.5623,-5.7375,7.7834,1.1255,-0.4981,0.3728,1763,2019-08-07 17:01:08:374
-0.4892,15.3494,-11.5268,-0.5623,-5.7375,7.7834,0.79,-0.4096,0.343,1768,2019-08-07 17:01:08:379
-0.4892,15.3494,-11.5268,-0.5623,-5.7375,7.7834,0.79,-0.4096,0.343,1773,2019-08-07 17:01:08:384
-1.9006,12.4326,-12.0548,-0.5623,-5.7375,7.7834,0.79,-0.4096,0.343,1778,2019-08-07 17:01:08:389
-1.9006,12.4326,-12.0548,1.1249,-2.7824,6.5581,0.2371,0.0953,0.3142,1782,2019-08-07 17:01:08:393
-0.762,10.5899,-10.2541,1.1249,-2.7824,6.5581,0.2371,0.0953,0.3142,1788,2019-08-07 17:01:08:399
-0.762,10.5899,-10.2541,1.1249,-2.7824,6.5581,0.2371,0.0953,0.3142,1792,2019-08-07 17:01:08:403
-0.0874,7.8688,-9.9901,-0.8442,-0.1807,5.8888,-0.173,0.7877,0.4261,1798,2019-08-07 17:01:08:409
-0.0874,7.8688,-9.9901,-0.8442,-0.1807,5.8888,-0.173,0.7877,0.4261,1804,2019-08-07 17:01:08:415
-0.0874,7.8688,-9.9901,-0.8442,-0.1807,5.8888,-0.6023,1.0604,0.1885,1807,2019-08-07 17:01:08:418
-1.7188,6.5274,-9.943,0.7535,2.3631,6.0144,-0.6023,1.0604,0.1885,1813,2019-08-07 17:01:08:424
-1.7188,6.5274,-9.943,0.7535,2.3631,6.0144,-0.8463,1.2958,0.1608,1818,2019-08-07 17:01:08:429
-1.7188,6.5274,-9.943,0.7535,2.3631,6.0144,-0.8463,1.2958,0.1608,1823,2019-08-07 17:01:08:434
-1.5083,4.551,-10.3861,0.7535,2.3631,6.0144,-1.1233,1.3832,0.1118,1828,2019-08-07 17:01:08:439
-1.5083,4.551,-10.3861,0.8254,5.8124,5.7434,-1.1233,1.3832,0.1118,1833,2019-08-07 17:01:08:444
-1.5083,4.551,-10.3861,0.8254,5.8124,5.7434,-1.446,1.3885,0.082,1838,2019-08-07 17:01:08:449
-1.8911,1.1712,-7.9208,0.8254,5.8124,5.7434,-1.446,1.3885,0.082,1842,2019-08-07 17:01:08:453
-1.8911,1.1712,-7.9208,0.8254,5.8124,5.7434,-1.446,1.3885,0.082,1848,2019-08-07 17:01:08:459
-1.14,-1.3542,-6.1013,0.6869,10.3666,2.2532,-1.5366,1.4514,0.0852,1853,2019-08-07 17:01:08:464
-1.14,-1.3542,-6.1013,0.6869,10.3666,2.2532,-1.5366,1.4514,0.0852,1858,2019-08-07 17:01:08:469
-1.14,-1.3542,-6.1013,0.6869,10.3666,2.2532,-1.5142,0.9827,-0.0448,1864,2019-08-07 17:01:08:475
-1.7859,-3.7841,-3.9753,0.6869,10.3666,2.2532,-1.5142,0.9827,-0.0448,1868,2019-08-07 17:01:08:479
-1.7859,-3.7841,-3.9753,1.4489,14.1137,0.8104,-1.4716,0.6663,-0.1129,1873,2019-08-07 17:01:08:484
-1.6567,-5.369,-4.8568,1.4489,14.1137,0.8104,-1.4716,0.6663,-0.1129,1877,2019-08-07 17:01:08:488
-1.6567,-5.369,-4.8568,1.4489,14.1137,0.8104,-1.5121,0.7046,-0.0938,1883,2019-08-07 17:01:08:494
-1.6567,-5.369,-4.8568,0.2467,15.8688,0.5041,-1.5121,0.7046,-0.0938,1888,2019-08-07 17:01:08:499
0.1804,-8.0041,-2.8676,0.2467,15.8688,0.5041,-1.5121,0.7046,-0.0938,1893,2019-08-07 17:01:08:504
0.1804,-8.0041,-2.8676,0.2467,15.8688,0.5041,-1.5877,0.7739,-0.1087,1898,2019-08-07 17:01:08:509
0.1804,-8.0041,-2.8676,-0.5816,19.1018,-0.9973,-1.5877,0.7739,-0.1087,1903,2019-08-07 17:01:08:514
0.2091,-9.8707,-2.3019,-0.5816,19.1018,-0.9973,-1.6974,1.0732,-0.1886,1908,2019-08-07 17:01:08:519
0.2091,-9.8707,-2.3019,-0.5816,19.1018,-0.9973,-1.6974,1.0732,-0.1886,1913,2019-08-07 17:01:08:524
0.1565,-11.1405,-0.1854,-0.5816,19.1018,-0.9973,-1.7539,1.2053,-0.2738,1918,2019-08-07 17:01:08:529
0.1565,-11.1405,-0.1854,-0.5816,19.1018,-0.9973,-1.7539,1.2053,-0.2738,1923,2019-08-07 17:01:08:534
0.1565,-11.1405,-0.1854,0.0037,21.0248,-3.9319,-1.6559,1.1318,-0.3494,1928,2019-08-07 17:01:08:539
-0.676,-11.9568,1.2947,0.0037,21.0248,-3.9319,-1.6559,1.1318,-0.3494,1934,2019-08-07 17:01:08:545
-0.676,-11.9568,1.2947,0.0037,21.0248,-3.9319,-1.4652,0.8868,-0.3835,1938,2019-08-07 17:01:08:549
-0.676,-11.9568,1.2947,0.0037,21.0248,-3.9319,-1.4652,0.8868,-0.3835,1943,2019-08-07 17:01:08:554
-0.9535,-12.587,2.0112,0.5633,22.083,-4.9314,-1.4652,0.8868,-0.3835,1948,2019-08-07 17:01:08:559
-0.9535,-12.587,2.0112,0.5633,22.083,-4.9314,-1.3118,0.7078,-0.4112,1952,2019-08-07 17:01:08:563
-1.3362,-12.5392,2.6758,0.5633,22.083,-4.9314,-1.3118,0.7078,-0.4112,1958,2019-08-07 17:01:08:569
-1.3362,-12.5392,2.6758,0.5633,22.083,-4.9314,-0.9486,0.3041,-0.3793,1962,2019-08-07 17:01:08:573
-1.5276,-12.4676,2.228,1.1012,22.0333,-4.9639,-0.6226,0.0143,-0.2749,1969,2019-08-07 17:01:08:580
-1.5276,-12.4676,2.228,1.1012,22.0333,-4.9639,-0.6226,0.0143,-0.2749,1973,2019-08-07 17:01:08:584
-1.5276,-12.4676,2.228,1.0108,21.7469,-4.385,-0.6226,0.0143,-0.2749,1978,2019-08-07 17:01:08:589
-1.652,-11.8089,1.8886,1.0108,21.7469,-4.385,-0.3126,-0.253,-0.1747,1983,2019-08-07 17:01:08:594
-1.652,-11.8089,1.8886,1.0108,21.7469,-4.385,-0.3126,-0.253,-0.1747,1988,2019-08-07 17:01:08:599
-1.652,-11.8089,1.8886,1.0108,21.7469,-4.385,-0.3126,-0.253,-0.1747,1993,2019-08-07 17:01:08:604
-1.8147,-10.8254,1.8839,1.2967,20.3158,-4.3133,0.0954,-0.661,-0.0213,1998,2019-08-07 17:01:08:609
-1.8147,-10.8254,1.8839,1.2967,20.3158,-4.3133,0.0954,-0.661,-0.0213,2002,2019-08-07 17:01:08:613
-1.1401,-9.3551,0.7856,1.2967,20.3158,-4.3133,0.5471,-1.0073,0.1161,2008,2019-08-07 17:01:08:619
-1.1401,-9.3551,0.7856,1.2967,20.3158,-4.3133,0.5471,-1.0073,0.1161,2012,2019-08-07 17:01:08:623
-1.1401,-9.3551,0.7856,0.1872,18.0063,-2.3732,0.8326,-1.0776,0.1757,2018,2019-08-07 17:01:08:629
-0.5325,-8.3001,-0.4636,0.1872,18.0063,-2.3732,0.8326,-1.0776,0.1757,2023,2019-08-07 17:01:08:634
-0.5325,-8.3001,-0.4636,0.1872,18.0063,-2.3732,1.0339,-0.9455,0.2109,2028,2019-08-07 17:01:08:639
0.0177,-7.1114,-1.4016,0.1872,18.0063,-2.3732,1.0339,-0.9455,0.2109,2033,2019-08-07 17:01:08:644
0.0177,-7.1114,-1.4016,-0.5474,16.2512,-1.1765,1.248,-0.644,0.2311,2038,2019-08-07 17:01:08:649
0.0177,-7.1114,-1.4016,-0.5474,16.2512,-1.1765,1.248,-0.644,0.2311,2043,2019-08-07 17:01:08:654
-0.3412,-6.0898,-2.3302,-0.2343,15.451,-0.5461,1.3524,-0.3894,0.2674,2048,2019-08-07 17:01:08:659
-0.3412,-6.0898,-2.3302,-0.2343,15.451,-0.5461,1.3524,-0.3894,0.2674,2053,2019-08-07 17:01:08:664
-0.3412,-6.0898,-2.3302,-0.2343,15.451,-0.5461,1.3524,-0.3894,0.2674,2058,2019-08-07 17:01:08:669
-0.7096,-5.3117,-2.2077,-0.2343,15.451,-0.5461,1.4153,-0.2765,0.3025,2063,2019-08-07 17:01:08:674
-0.7096,-5.3117,-2.2077,0.4481,14.1873,-0.9906,1.4153,-0.2765,0.3025,2068,2019-08-07 17:01:08:679
-1.0971,-4.4285,-2.3727,0.4481,14.1873,-0.9906,1.5165,-0.4831,0.3536,2073,2019-08-07 17:01:08:684
-1.0971,-4.4285,-2.3727,0.4481,14.1873,-0.9906,1.5165,-0.4831,0.3536,2078,2019-08-07 17:01:08:689
-1.0971,-4.4285,-2.3727,0.4481,14.1873,-0.9906,1.5569,-0.7335,0.36,2083,2019-08-07 17:01:08:694
-0.6665,-3.4021,-3.7633,0.126,12.5429,0.2433,1.5569,-0.7335,0.36,2087,2019-08-07 17:01:08:698
-0.6665,-3.4021,-3.7633,0.126,12.5429,0.2433,1.5569,-0.7335,0.36,2093,2019-08-07 17:01:08:704
-0.6665,-3.4021,-3.7633,0.126,12.5429,0.2433,1.5676,-0.9295,0.3515,2099,2019-08-07 17:01:08:710
-0.5948,-2.3185,-5.4178,0.126,12.5429,0.2433,1.5676,-0.9295,0.3515,2102,2019-08-07 17:01:08:713
-0.5948,-2.3185,-5.4178,0.2841,10.8105,2.1386,1.5314,-1.0073,0.3387,2108,2019-08-07 17:01:08:719
-0.8579,-1.4353,-6.1579,0.2841,10.8105,2.1386,1.5314,-1.0073,0.3387,2113,2019-08-07 17:01:08:724
-0.8579,-1.4353,-6.1579,0.2841,10.8105,2.1386,1.4664,-1.0499,0.3142,2117,2019-08-07 17:01:08:728
-0.8579,-1.4353,-6.1579,0.2841,10.8105,2.1386,1.4664,-1.0499,0.3142,2123,2019-08-07 17:01:08:734
-1.0972,-0.323,-6.9545,0.5199,8.9398,3.0911,1.3972,-1.1138,0.2429,2128,2019-08-07 17:01:08:739
-1.0972,-0.323,-6.9545,0.5199,8.9398,3.0911,1.3972,-1.1138,0.2429,2133,2019-08-07 17:01:08:744
-0.7671,0.9659,-8.2885,0.5199,8.9398,3.0911,1.2864,-1.101,0.1683,2138,2019-08-07 17:01:08:749
-0.7671,0.9659,-8.2885,0.5199,8.9398,3.0911,1.2864,-1.101,0.1683,2143,2019-08-07 17:01:08:754
-0.7671,0.9659,-8.2885,-0.5139,6.0212,4.334,1.1457,-0.9561,0.0863,2147,2019-08-07 17:01:08:758
-0.0064,3.2335,-8.8118,-0.5139,6.0212,4.334,1.1457,-0.9561,0.0863,2153,2019-08-07 17:01:08:764
-0.0064,3.2335,-8.8118,-0.5139,6.0212,4.334,1.1457,-0.9561,0.0863,2158,2019-08-07 17:01:08:769
0.0127,5.5297,-9.7027,-0.5139,6.0212,4.334,0.9529,-0.6248,0.0128,2163,2019-08-07 17:01:08:774
0.0127,5.5297,-9.7027,-0.6367,2.222,5.7908,0.9529,-0.6248,0.0128,2168,2019-08-07 17:01:08:779
0.0127,5.5297,-9.7027,-0.6367,2.222,5.7908,0.5279,-0.0975,-0.1449,2172,2019-08-07 17:01:08:783
-0.2552,7.802,-11.3336,-0.6367,2.222,5.7908,0.5279,-0.0975,-0.1449,2178,2019-08-07 17:01:08:789
-0.2552,7.802,-11.3336,-0.6367,2.222,5.7908,0.0677,0.3872,-0.2738,2184,2019-08-07 17:01:08:795
-0.2552,7.802,-11.3336,-0.0508,-1.6345,6.2139,0.0677,0.3872,-0.2738,2187,2019-08-07 17:01:08:798
-0.7097,10.5947,-10.6501,-0.0508,-1.6345,6.2139,-0.3946,0.7984,-0.3803,2193,2019-08-07 17:01:08:804
-0.7097,10.5947,-10.6501,-0.0508,-1.6345,6.2139,-0.3946,0.7984,-0.3803,2199,2019-08-07 17:01:08:810
-1.3556,12.3276,-8.9155,0.332,-3.0957,4.9333,-0.7579,1.054,-0.4932,2203,2019-08-07 17:01:08:814
-1.3556,12.3276,-8.9155,0.332,-3.0957,4.9333,-0.7579,1.054,-0.4932,2208,2019-08-07 17:01:08:819
-1.3556,12.3276,-8.9155,0.332,-3.0957,4.9333,-0.9986,1.0466,-0.6157,2213,2019-08-07 17:01:08:824
-2.011,14.2037,-7.2892,1.3723,-5.9854,2.5444,-0.9986,1.0466,-0.6157,2218,2019-08-07 17:01:08:829
-2.011,14.2037,-7.2892,1.3723,-5.9854,2.5444,-0.9986,1.0466,-0.6157,2223,2019-08-07 17:01:08:834
-2.011,14.2037,-7.2892,1.3723,-5.9854,2.5444,-1.2692,0.7579,-0.7468,2228,2019-08-07 17:01:08:839
-2.1546,15.8602,-7.6239,1.3723,-5.9854,2.5444,-1.2692,0.7579,-0.7468,2233,2019-08-07 17:01:08:844
-2.1546,15.8602,-7.6239,1.1679,-8.1521,3.7637,-1.7187,0.4639,-0.8874,2238,2019-08-07 17:01:08:849
-2.1546,15.8602,-7.6239,1.1679,-8.1521,3.7637,-1.7187,0.4639,-0.8874,2243,2019-08-07 17:01:08:854
-1.9297,17.111,-8.1613,1.1679,-8.1521,3.7637,-1.7187,0.4639,-0.8874,2248,2019-08-07 17:01:08:859
-1.9297,17.111,-8.1613,1.1679,-8.1521,3.7637,-2.1683,0.401,-0.9758,2253,2019-08-07 17:01:08:864
-1.3413,20.3047,-4.4421,1.1679,-8.1521,3.7637,-2.1683,0.401,-0.9758,2258,2019-08-07 17:01:08:869
-1.3413,20.3047,-4.4421,0.3506,-11.6477,-0.3671,-2.4346,0.8825,-1.0845,2263,2019-08-07 17:01:08:874
-1.3413,20.3047,-4.4421,0.3506,-11.6477,-0.3671,-2.4346,0.8825,-1.0845,2269,2019-08-07 17:01:08:880
-1.8915,20.6102,-2.0805,0.3506,-11.6477,-0.3671,-2.4346,0.8825,-1.0845,2273,2019-08-07 17:01:08:884
-1.8915,20.6102,-2.0805,0.3506,-11.6477,-0.3671,-2.3717,1.1957,-1.2506,2277,2019-08-07 17:01:08:888
-1.6523,20.7343,-5.1633,0.7799,-11.278,1.3213,-2.4548,1.2809,-1.2773,2283,2019-08-07 17:01:08:894
-1.6523,20.7343,-5.1633,0.7799,-11.278,1.3213,-2.4548,1.2809,-1.2773,2288,2019-08-07 17:01:08:899
-1.6523,20.7343,-5.1633,0.7799,-11.278,1.3213,-2.4548,1.2809,-1.2773,2293,2019-08-07 17:01:08:904
-0.528,23.0926,-5.6535,0.7799,-11.278,1.3213,-2.5326,1.3619,-1.2134,2298,2019-08-07 17:01:08:909
-0.528,23.0926,-5.6535,-1.6376,-14.5891,2.646,-2.5326,1.3619,-1.2134,2303,2019-08-07 17:01:08:914
-0.528,23.0926,-5.6535,-1.6376,-14.5891,2.646,-2.6583,1.8754,-0.9247,2308,2019-08-07 17:01:08:919
1.7541,21.9087,-6.7613,-1.6376,-14.5891,2.646,-2.6583,1.8754,-0.9247,2312,2019-08-07 17:01:08:923
1.7541,21.9087,-6.7613,-1.6376,-14.5891,2.646,-2.3004,2.2045,-0.6189,2318,2019-08-07 17:01:08:929
1.7541,21.9087,-6.7613,-5.3464,-12.3764,7.8892,-2.3004,2.2045,-0.6189,2323,2019-08-07 17:01:08:934
3.0171,25.4031,-14.2468,-5.3464,-12.3764,7.8892,-1.5568,2.4559,-0.1172,2328,2019-08-07 17:01:08:939
3.0171,25.4031,-14.2468,-5.3464,-12.3764,7.8892,-1.5568,2.4559,-0.1172,2334,2019-08-07 17:01:08:945
-0.5424,25.1835,-21.0064,-5.3464,-12.3764,7.8892,-1.0966,3.567,0.1821,2337,2019-08-07 17:01:08:948
-0.5424,25.1835,-21.0064,0.421,-14.6242,17.5626,-1.0966,3.567,0.1821,2343,2019-08-07 17:01:08:954
-0.5424,22.2476,-8.265,0.421,-14.6242,17.5626,-3.9888,2.2919,-0.4187,2348,2019-08-07 17:01:08:959
-10.9098,22.2476,-8.265,0.421,-14.6242,17.5626,-3.9888,2.2919,-0.4187,2353,2019-08-07 17:01:08:964
-10.9098,22.2476,-8.265,0.421,-14.6242,17.5626,-3.9888,2.2919,-0.4187,2358,2019-08-07 17:01:08:969
-10.8572,18.7198,34.9088,4.5042,-8.5942,-55.5649,-2.8245,2.18,0.1459,2363,2019-08-07 17:01:08:974
-10.8572,18.7198,34.9088,4.5042,-8.5942,-55.5649,-2.8245,2.18,0.1459,2367,2019-08-07 17:01:08:978
-10.8572,18.7198,34.9088,4.5042,-8.5942,-55.5649,-2.0287,-1.4813,0.5742,2373,2019-08-07 17:01:08:984
-17.493,18.7389,16.3222,4.5042,-8.5942,-55.5649,-2.0287,-1.4813,0.5742,2378,2019-08-07 17:01:08:989
-17.493,18.7389,16.3222,10.1482,-11.8988,-14.5875,-2.1235,-2.8075,0.9971,2383,2019-08-07 17:01:08:994
-6.5419,22.6343,8.6764,10.1482,-11.8988,-14.5875,-2.1235,-2.8075,0.9971,2388,2019-08-07 17:01:08:999
-6.5419,22.6343,8.6764,10.1482,-11.8988,-14.5875,-2.1235,-2.8075,0.9971,2392,2019-08-07 17:01:09:003
-6.5419,22.6343,8.6764,10.1482,-11.8988,-14.5875,-0.7685,-5.0648,1.3784,2398,2019-08-07 17:01:09:009
-0.8582,15.6454,-4.1169,0.0667,-5.9251,3.0567,-0.1965,-4.6313,1.3262,2403,2019-08-07 17:01:09:014
-0.8582,15.6454,-4.1169,0.0667,-5.9251,3.0567,-0.1965,-4.6313,1.3262,2408,2019-08-07 17:01:09:019
-0.8582,15.6454,-4.1169,0.0667,-5.9251,3.0567,-0.1965,-4.6313,1.3262,2412,2019-08-07 17:01:09:023
1.3282,8.6756,-10.3674,0.0667,-5.9251,3.0567,-0.5938,-1.1841,0.7776,2418,2019-08-07 17:01:09:029
1.3282,8.6756,-10.3674,-0.8577,2.1873,1.5123,-0.5938,-1.1841,0.7776,2423,2019-08-07 17:01:09:034
1.9788,6.8139,10.9249,-0.8577,2.1873,1.5123,-1.4844,1.249,0.3856,2428,2019-08-07 17:01:09:039
1.9788,6.8139,10.9249,-0.8577,2.1873,1.5123,-1.4844,1.249,0.3856,2433,2019-08-07 17:01:09:044
1.9788,6.8139,10.9249,-0.8577,2.1873,1.5123,-0.5768,-0.2296,0.3899,2438,2019-08-07 17:01:09:049
1.2229,10.1317,1.4501,-1.7628,-0.3621,-2.157,-0.5768,-0.2296,0.3899,2443,2019-08-07 17:01:09:054
1.2229,10.1317,1.4501,-1.7628,-0.3621,-2.157,-0.3286,-0.3542,0.4591,2448,2019-08-07 17:01:09:059
3.328,10.8095,-2.3303,-1.7628,-0.3621,-2.157,-0.3286,-0.3542,0.4591,2453,2019-08-07 17:01:09:064
3.328,10.8095,-2.3303,-1.7628,-0.3621,-2.157,-0.3286,-0.3542,0.4591,2458,2019-08-07 17:01:09:069
3.328,10.8095,-2.3303,-3.0998,-1.4151,-0.7983,-0.6109,0.1645,0.4261,2463,2019-08-07 17:01:09:074
2.2467,11.2201,1.1909,-3.0998,-1.4151,-0.7983,-0.6109,0.1645,0.4261,2468,2019-08-07 17:01:09:079
2.2467,11.2201,1.1909,-3.0998,-1.4151,-0.7983,-0.6439,0.5235,0.4772,2474,2019-08-07 17:01:09:085
2.2467,11.2201,1.1909,-3.0998,-1.4151,-0.7983,-0.6439,0.5235,0.4772,2477,2019-08-07 17:01:09:088
-1.9156,12.0937,4.3209,2.9594,-2.5775,-5.9398,-0.4671,-0.0389,0.507,2483,2019-08-07 17:01:09:094
-1.9156,12.0937,4.3209,2.9594,-2.5775,-5.9398,-0.4671,-0.0389,0.507,2488,2019-08-07 17:01:09:099
-1.9156,12.0937,4.3209,2.9594,-2.5775,-5.9398,-0.4671,-0.0389,0.507,2493,2019-08-07 17:01:09:104
-2.7911,11.2487,5.1976,2.9594,-2.5775,-5.9398,-0.1145,-0.971,0.5859,2498,2019-08-07 17:01:09:109
-2.7911,11.2487,5.1976,-0.2304,-0.2564,-2.4114,-0.1145,-0.971,0.5859,2502,2019-08-07 17:01:09:113
1.4429,9.745,-0.3883,-0.2304,-0.2564,-2.4114,0.2509,-1.3492,0.4431,2508,2019-08-07 17:01:09:119
1.4429,9.745,-0.3883,-0.2304,-0.2564,-2.4114,0.2509,-1.3492,0.4431,2513,2019-08-07 17:01:09:124
1.4429,9.745,-0.3883,-0.2304,-0.2564,-2.4114,0.0741,-0.4192,0.31,2517,2019-08-07 17:01:09:128
4.1173,9.9741,-3.0516,-4.3383,-0.3136,2.5268,0.0741,-0.4192,0.31,2523,2019-08-07 17:01:09:134
4.1173,9.9741,-3.0516,-4.3383,-0.3136,2.5268,-0.1027,0.3584,0.2556,2528,2019-08-07 17:01:09:139
2.2658,9.9741,-0.9445,-4.3383,-0.3136,2.5268,-0.1027,0.3584,0.2556,2533,2019-08-07 17:01:09:144
2.2658,9.9741,-0.9445,-4.3383,-0.3136,2.5268,-0.2583,1.2053,0.1811,2538,2019-08-07 17:01:09:149
2.2658,9.9741,-0.9445,-4.3383,-0.3136,2.5268,-0.2583,1.2053,0.1811,2542,2019-08-07 17:01:09:153
-1.7386,9.6925,3.7222,1.0164,-0.0582,-3.4696,-0.1219,0.8932,0.2301,2549,2019-08-07 17:01:09:160
-1.7386,9.6925,3.7222,1.0164,-0.0582,-3.4696,-0.1219,0.8932,0.2301,2552,2019-08-07 17:01:09:163
-1.7386,9.6925,3.7222,1.0164,-0.0582,-3.4696,-0.1219,0.8932,0.2301,2558,2019-08-07 17:01:09:169
-2.1979,9.3822,3.6326,1.2977,0.2489,-2.9185,0.2179,-0.1998,0.2812,2563,2019-08-07 17:01:09:174
-2.1979,9.3822,3.6326,1.2977,0.2489,-2.9185,0.2179,-0.1998,0.2812,2567,2019-08-07 17:01:09:178
-2.1979,9.3822,3.6326,1.2977,0.2489,-2.9185,0.3692,-0.7942,0.2737,2573,2019-08-07 17:01:09:184
1.9643,9.6877,-1.3405,1.2977,0.2489,-2.9185,0.3692,-0.7942,0.2737,2578,2019-08-07 17:01:09:189
1.9643,9.6877,-1.3405,-3.1645,-0.2121,2.2938,0.2818,-0.5247,0.1885,2583,2019-08-07 17:01:09:194
3.6484,10.2224,-2.9054,-3.1645,-0.2121,2.2938,0.2818,-0.5247,0.1885,2588,2019-08-07 17:01:09:199
3.6484,10.2224,-2.9054,-3.1645,-0.2121,2.2938,0.2818,-0.5247,0.1885,2592,2019-08-07 17:01:09:203
3.6484,10.2224,-2.9054,-3.1645,-0.2121,2.2938,0.0134,0.2338,0.0543,2598,2019-08-07 17:01:09:209
2.1892,10.5327,-2.09,-1.4247,-0.7718,1.266,0.0134,0.2338,0.0543,2603,2019-08-07 17:01:09:214
2.1892,10.5327,-2.09,-1.4247,-0.7718,1.266,-0.1922,0.7888,-0.0352,2608,2019-08-07 17:01:09:219
-0.5618,10.5088,-0.2421,-1.4247,-0.7718,1.266,-0.1922,0.7888,-0.0352,2613,2019-08-07 17:01:09:224
-0.5618,10.5088,-0.2421,-1.4247,-0.7718,1.266,-0.2359,0.825,-0.0235,2618,2019-08-07 17:01:09:229
-0.5618,10.5088,-0.2421,2.4109,-0.0917,-2.0499,-0.2359,0.825,-0.0235,2623,2019-08-07 17:01:09:234
-2.5138,9.8787,1.6575,2.4109,-0.0917,-2.0499,-0.1475,0.4394,0.0447,2628,2019-08-07 17:01:09:239
-2.5138,9.8787,1.6575,2.4109,-0.0917,-2.0499,-0.1475,0.4394,0.0447,2633,2019-08-07 17:01:09:244
-2.288,10.0934,0.8092,2.4109,-0.0917,-2.0499,-0.0537,-0.04,0.131,2638,2019-08-07 17:01:09:249
-2.288,10.0934,0.8092,2.4109,-0.0917,-2.0499,-0.0537,-0.04,0.131,2643,2019-08-07 17:01:09:254
-2.288,10.0934,0.8092,1.6903,-0.4103,-0.9691,-0.0154,-0.2094,0.2077,2649,2019-08-07 17:01:09:260
-0.6374,10.4992,0.1587,1.6903,-0.4103,-0.9691,-0.0154,-0.2094,0.2077,2652,2019-08-07 17:01:09:263
-0.6374,10.4992,0.1587,1.6903,-0.4103,-0.9691,-0.0154,-0.2094,0.2077,2658,2019-08-07 17:01:09:269
-0.6374,10.4992,0.1587,1.6903,-0.4103,-0.9691,-0.0431,-0.1412,0.2439,2663,2019-08-07 17:01:09:274
0.0802,10.5326,-0.3032,0.0032,-0.73,-0.0695,-0.0431,-0.1412,0.2439,2668,2019-08-07 17:01:09:279
0.0802,10.5326,-0.3032,0.0032,-0.73,-0.0695,-0.09,0.0133,0.2247,2673,2019-08-07 17:01:09:284
0.2764,9.7831,0.6725,0.0032,-0.73,-0.0695,-0.09,0.0133,0.2247,2678,2019-08-07 17:01:09:289
0.2764,9.7831,0.6725,0.0032,-0.73,-0.0695,-0.0729,-0.0304,0.2194,2683,2019-08-07 17:01:09:294
0.2764,9.7831,0.6725,-0.4622,0.1248,-1.2589,-0.0729,-0.0304,0.2194,2688,2019-08-07 17:01:09:299
0.2764,9.7831,0.6725,-0.4622,0.1248,-1.2589,-0.0729,-0.0304,0.2194,2692,2019-08-07 17:01:09:303
0.9175,9.6399,0.0739,-0.8884,0.1486,-0.1109,-0.041,-0.1721,0.2002,2698,2019-08-07 17:01:09:309
0.9175,9.6399,0.0739,-0.8884,0.1486,-0.1109,-0.041,-0.1721,0.2002,2703,2019-08-07 17:01:09:314
1.2332,9.8834,-0.7463,-0.8884,0.1486,-0.1109,-0.0846,-0.0901,0.1438,2709,2019-08-07 17:01:09:320
1.2332,9.8834,-0.7463,-0.8884,0.1486,-0.1109,-0.0846,-0.0901,0.1438,2713,2019-08-07 17:01:09:324
0.9988,9.8117,0.2483,-0.8609,-0.0807,-0.3039,-0.1347,0.0442,0.099,2718,2019-08-07 17:01:09:329
0.9988,9.8117,0.2483,-0.8609,-0.0807,-0.3039,-0.1347,0.0442,0.099,2722,2019-08-07 17:01:09:333
0.9988,9.8117,0.2483,-0.8609,-0.0807,-0.3039,-0.1283,0.0783,0.0682,2728,2019-08-07 17:01:09:339
0.4964,9.7545,0.6961,-0.8609,-0.0807,-0.3039,-0.1283,0.0783,0.0682,2733,2019-08-07 17:01:09:344
0.4964,9.7545,0.6961,-0.1627,-0.061,-0.747,-0.1091,0.0591,0.0458,2737,2019-08-07 17:01:09:348
0.4964,9.7545,0.6961,-0.1627,-0.061,-0.747,-0.1091,0.0591,0.0458,2743,2019-08-07 17:01:09:354
0.3433,10.0791,0.1917,-0.1627,-0.061,-0.747,-0.1177,0.0974,0.0181,2747,2019-08-07 17:01:09:358
0.3433,10.0791,0.1917,-0.1627,-0.061,-0.747,-0.1177,0.0974,0.0181,2753,2019-08-07 17:01:09:364
0.3146,10.1555,0.6301,-0.0983,-0.3515,-0.8981,-0.1177,0.0974,0.0181,2758,2019-08-07 17:01:09:369
0.3146,10.1555,0.6301,-0.0983,-0.3515,-0.8981,-0.1091,0.139,0.0,2763,2019-08-07 17:01:09:374
0.2955,9.955,0.7574,-0.0983,-0.3515,-0.8981,-0.1091,0.139,0.0,2768,2019-08-07 17:01:09:379
0.2955,9.955,0.7574,-0.0983,-0.3515,-0.8981,-0.0772,0.1294,-0.0043,2773,2019-08-07 17:01:09:384
0.2955,9.955,0.7574,-0.0983,-0.3515,-0.8981,-0.0772,0.1294,-0.0043,2777,2019-08-07 17:01:09:388
0.1998,9.8165,0.4274,-0.0065,-0.1026,-0.6454,-0.0676,0.1177,-0.0139,2783,2019-08-07 17:01:09:394
0.1998,9.8165,0.4274,-0.0065,-0.1026,-0.6454,-0.0676,0.1177,-0.0139,2788,2019-08-07 17:01:09:399
0.1998,9.8165,0.4274,-0.0065,-0.1026,-0.6454,-0.0676,0.1177,-0.0139,2792,2019-08-07 17:01:09:403
0.1568,9.6638,0.7951,0.0347,0.2273,-1.1348,-0.0495,0.0804,-0.0107,2798,2019-08-07 17:01:09:409
0.1568,9.6638,0.7951,0.0347,0.2273,-1.1348,-0.0495,0.0804,-0.0107,2803,2019-08-07 17:01:09:414
0.1568,9.6638,0.7951,0.0347,0.2273,-1.1348,-0.0495,0.0804,-0.0107,2808,2019-08-07 17:01:09:419
0.0706,9.6351,0.5405,0.0347,0.2273,-1.1348,-0.0111,-0.0634,0.0106,2812,2019-08-07 17:01:09:423
0.0706,9.6351,0.5405,-0.2517,0.0175,-0.7952,-0.0111,-0.0634,0.0106,2818,2019-08-07 17:01:09:429
0.0706,9.6351,0.5405,-0.2517,0.0175,-0.7952,-0.0111,-0.0634,0.0106,2822,2019-08-07 17:01:09:433
0.6352,9.9979,0.3237,-0.2517,0.0175,-0.7952,0.007,-0.0858,-0.0107,2828,2019-08-07 17:01:09:439
0.6352,9.9979,0.3237,-0.2517,0.0175,-0.7952,0.0123,-0.0485,-0.0235,2834,2019-08-07 17:01:09:445
0.5826,10.461,0.7574,-0.3664,-0.6556,-0.9662,0.0123,-0.0485,-0.0235,2838,2019-08-07 17:01:09:449
0.5826,10.461,0.7574,-0.3664,-0.6556,-0.9662,0.0123,-0.0485,-0.0235,2843,2019-08-07 17:01:09:454
0.5826,10.461,0.7574,-0.3664,-0.6556,-0.9662,0.0262,0.0367,-0.0522,2848,2019-08-07 17:01:09:459
0.3816,10.5612,0.8988,-0.1688,-0.7557,-1.1059,0.0262,0.0367,-0.0522,2853,2019-08-07 17:01:09:464
0.3816,10.5612,0.8988,-0.1688,-0.7557,-1.1059,0.0507,0.0655,-0.0565,2858,2019-08-07 17:01:09:469
-0.0633,10.2175,0.9271,-0.1688,-0.7557,-1.1059,0.0507,0.0655,-0.0565,2863,2019-08-07 17:01:09:474
-0.0633,10.2175,0.9271,0.5265,-0.765,-1.6355,0.0656,0.0346,-0.0512,2868,2019-08-07 17:01:09:479
-0.0633,10.2175,0.9271,0.5265,-0.765,-1.6355,0.0656,0.0346,-0.0512,2873,2019-08-07 17:01:09:484
-0.5609,10.4419,1.5304,0.5265,-0.765,-1.6355,0.0645,-0.1444,-0.0149,2878,2019-08-07 17:01:09:489
-0.5609,10.4419,1.5304,0.5265,-0.765,-1.6355,0.0645,-0.1444,-0.0149,2883,2019-08-07 17:01:09:494
-0.5609,10.4419,1.5304,-0.0931,0.5144,0.4207,-0.009,-0.2349,-0.0117,2888,2019-08-07 17:01:09:499
0.4773,9.258,-0.8689,-0.0931,0.5144,0.4207,-0.009,-0.2349,-0.0117,2892,2019-08-07 17:01:09:503
0.4773,9.258,-0.8689,-0.0931,0.5144,0.4207,-0.009,-0.2349,-0.0117,2898,2019-08-07 17:01:09:509
0.5921,9.5062,-0.1948,-0.0931,0.5144,0.4207,-0.0303,-0.1273,-0.0693,2903,2019-08-07 17:01:09:514
0.5921,9.5062,-0.1948,-0.0931,0.5144,0.4207,-0.0303,-0.1273,-0.0693,2908,2019-08-07 17:01:09:519
0.5921,9.5062,-0.1948,-0.3078,0.2568,-0.0496,-0.0069,-0.1455,-0.0884,2913,2019-08-07 17:01:09:524
0.4582,9.5587,-0.3692,-0.3078,0.2568,-0.0496,-0.0069,-0.1455,-0.0884,2918,2019-08-07 17:01:09:529
0.4582,9.5587,-0.3692,-0.3078,0.2568,-0.0496,-0.0111,-0.1028,-0.1044,2922,2019-08-07 17:01:09:533
0.3577,9.8977,0.3661,-0.1912,-0.0913,-0.5767,-0.0111,-0.1028,-0.1044,2928,2019-08-07 17:01:09:539
0.3577,9.8977,0.3661,-0.1912,-0.0913,-0.5767,-0.0165,-0.0645,-0.1076,2933,2019-08-07 17:01:09:544
0.3577,9.8977,0.3661,-0.1912,-0.0913,-0.5767,-0.0165,-0.0645,-0.1076,2938,2019-08-07 17:01:09:549
-0.0155,10.1937,0.5783,-0.1912,-0.0913,-0.5767,-0.0165,-0.0645,-0.1076,2943,2019-08-07 17:01:09:554
-0.0155,10.1937,0.5783,-0.1912,-0.0913,-0.5767,0.0049,-0.0229,-0.0959,2948,2019-08-07 17:01:09:559
0.0467,9.9693,0.6914,0.1607,-0.215,-0.6305,0.0049,-0.0229,-0.0959,2953,2019-08-07 17:01:09:564
0.0467,9.9693,0.6914,0.1607,-0.215,-0.6305,0.0049,-0.0229,-0.0959,2958,2019-08-07 17:01:09:569
0.0467,9.9693,0.6914,0.0166,-0.1718,-1.2029,0.0294,-0.0528,-0.0959,2962,2019-08-07 17:01:09:573
0.1376,9.8977,0.8799,0.0166,-0.1718,-1.2029,0.0294,-0.0528,-0.0959,2968,2019-08-07 17:01:09:579
0.1376,9.8977,0.8799,0.0166,-0.1718,-1.2029,0.0666,-0.1146,-0.0682,2973,2019-08-07 17:01:09:584
0.1233,9.8499,-0.2844,0.0166,-0.1718,-1.2029,0.0666,-0.1146,-0.0682,2978,2019-08-07 17:01:09:589
0.1233,9.8499,-0.2844,-0.1136,-0.1001,0.0114,0.0336,-0.0176,-0.0789,2983,2019-08-07 17:01:09:594
0.1233,9.8499,-0.2844,-0.1136,-0.1001,0.0114,0.0336,-0.0176,-0.0789,2987,2019-08-07 17:01:09:598
-0.0872,9.8404,0.6018,-0.1136,-0.1001,0.0114,0.0166,0.041,-0.0735,2993,2019-08-07 17:01:09:604
-0.0872,9.8404,0.6018,-0.1136,-0.1001,0.0114,0.0166,0.041,-0.0735,2998,2019-08-07 17:01:09:609
-0.0872,9.8404,0.6018,0.1288,-0.0188,-0.8091,0.0379,-0.0421,-0.0597,3004,2019-08-07 17:01:09:615
0.1089,9.9359,0.0974,0.1288,-0.0188,-0.8091,0.0379,-0.0421,-0.0597,3008,2019-08-07 17:01:09:619
0.1089,9.9359,0.0974,0.1288,-0.0188,-0.8091,0.0379,-0.0421,-0.0597,3012,2019-08-07 17:01:09:623
0.1089,9.9359,0.0974,0.1288,-0.0188,-0.8091,0.0379,-0.0421,-0.0597,3018,2019-08-07 17:01:09:629
-0.1159,10.0075,-0.5861,0.1487,-0.2479,0.2557,0.0187,-0.0176,-0.065,3023,2019-08-07 17:01:09:634
-0.1159,10.0075,-0.5861,0.1487,-0.2479,0.2557,0.0187,-0.0176,-0.065,3028,2019-08-07 17:01:09:639
-0.1159,10.0075,-0.5861,0.1487,-0.2479,0.2557,-0.0346,0.1081,-0.0703,3032,2019-08-07 17:01:09:643
-0.3312,10.0695,0.0456,0.1487,-0.2479,0.2557,-0.0346,0.1081,-0.0703,3038,2019-08-07 17:01:09:649
-0.3312,10.0695,0.0456,0.4589,-0.2715,-0.4683,-0.0378,0.0708,-0.0554,3043,2019-08-07 17:01:09:654
-0.3552,9.9932,0.4604,0.4589,-0.2715,-0.4683,-0.0378,0.0708,-0.0554,3048,2019-08-07 17:01:09:659
-0.3552,9.9932,0.4604,0.4589,-0.2715,-0.4683,-0.0378,0.0708,-0.0554,3053,2019-08-07 17:01:09:664
-0.3552,9.9932,0.4604,0.4589,-0.2715,-0.4683,-0.0207,-0.0016,-0.049,3058,2019-08-07 17:01:09:669
-0.2355,9.9168,0.5358,0.2971,-0.1089,-0.7306,-0.0207,-0.0016,-0.049,3063,2019-08-07 17:01:09:674
-0.2355,9.9168,0.5358,0.2971,-0.1089,-0.7306,-5.0E-4,-0.0432,-0.0373,3067,2019-08-07 17:01:09:678
-0.2355,9.9168,0.5358,0.2971,-0.1089,-0.7306,-5.0E-4,-0.0432,-0.0373,3073,2019-08-07 17:01:09:684
0.2764,9.9406,0.8517,0.2971,-0.1089,-0.7306,0.0357,-0.0965,-0.0373,3078,2019-08-07 17:01:09:689
0.2764,9.9406,0.8517,-0.3364,-0.0706,-1.0832,0.0357,-0.0965,-0.0373,3083,2019-08-07 17:01:09:694
0.6113,9.8595,0.6867,-0.3364,-0.0706,-1.0832,0.0357,-0.0965,-0.0373,3088,2019-08-07 17:01:09:699
0.6113,9.8595,0.6867,-0.3364,-0.0706,-1.0832,0.0581,-0.0581,-0.0543,3093,2019-08-07 17:01:09:704
0.7978,10.0934,0.5358,-0.3364,-0.0706,-1.0832,0.0581,-0.0581,-0.0543,3099,2019-08-07 17:01:09:710
0.7978,10.0934,0.5358,-0.7966,-0.3523,-0.5785,0.0602,0.0655,-0.0799,3102,2019-08-07 17:01:09:713
0.7978,10.0934,0.5358,-0.7966,-0.3523,-0.5785,0.0602,0.0655,-0.0799,3108,2019-08-07 17:01:09:719
0.6639,9.912,0.3237,-0.7966,-0.3523,-0.5785,0.0464,0.1677,-0.0916,3113,2019-08-07 17:01:09:724
0.6639,9.912,0.3237,-0.7966,-0.3523,-0.5785,0.0464,0.1677,-0.0916,3118,2019-08-07 17:01:09:729
0.6639,9.912,0.3237,0.084,-0.0086,-0.4571,0.0357,0.2274,-0.0991,3123,2019-08-07 17:01:09:734
-0.0011,9.9072,0.583,0.084,-0.0086,-0.4571,0.0357,0.2274,-0.0991,3128,2019-08-07 17:01:09:739
-0.0011,9.9072,0.583,0.084,-0.0086,-0.4571,0.0357,0.2274,-0.0991,3133,2019-08-07 17:01:09:744
-0.0011,9.9072,0.583,0.084,-0.0086,-0.4571,0.0464,0.1858,-0.1119,3137,2019-08-07 17:01:09:748
-0.2021,10.06,0.2954,0.2153,-0.2521,-0.4974,0.0496,0.123,-0.1023,3144,2019-08-07 17:01:09:755
-0.2021,10.06,0.2954,0.2153,-0.2521,-0.4974,0.0496,0.123,-0.1023,3148,2019-08-07 17:01:09:759
-0.0968,9.912,0.4086,0.2153,-0.2521,-0.4974,0.0496,0.123,-0.1023,3153,2019-08-07 17:01:09:764
-0.0968,9.912,0.4086,0.2153,-0.2521,-0.4974,0.0347,0.0942,-0.0874,3158,2019-08-07 17:01:09:769
-0.3839,10.0552,0.0597,0.4005,-0.2665,-0.342,0.0347,0.0942,-0.0874,3164,2019-08-07 17:01:09:775
-0.3839,10.0552,0.0597,0.4005,-0.2665,-0.342,0.0262,0.0687,-0.0746,3167,2019-08-07 17:01:09:778
-0.3839,10.0552,0.0597,0.4005,-0.2665,-0.342,0.0262,0.0687,-0.0746,3173,2019-08-07 17:01:09:784
-0.3839,10.0552,0.0597,0.4005,-0.2665,-0.342,0.0336,0.0261,-0.0607,3177,2019-08-07 17:01:09:788
-0.1973,9.8834,0.5123,0.1503,-0.0756,-0.5275,0.0336,0.0261,-0.0607,3183,2019-08-07 17:01:09:794
-0.1973,9.8834,0.5123,0.1503,-0.0756,-0.5275,0.0325,0.0058,-0.0554,3188,2019-08-07 17:01:09:799
-0.1542,10.0313,0.0267,0.1503,-0.0756,-0.5275,0.0325,0.0058,-0.0554,3193,2019-08-07 17:01:09:804
-0.1542,10.0313,0.0267,0.1503,-0.0756,-0.5275,0.0155,0.0197,-0.048,3198,2019-08-07 17:01:09:809
-0.1542,10.0313,0.0267,0.0531,-0.2428,-0.2144,0.0155,0.0197,-0.048,3203,2019-08-07 17:01:09:814
-0.2451,10.0886,0.0079,0.0531,-0.2428,-0.2144,0.0155,0.0197,-0.048,3208,2019-08-07 17:01:09:819
-0.2451,10.0886,0.0079,0.0531,-0.2428,-0.2144,-0.0015,0.0548,-0.0416,3213,2019-08-07 17:01:09:824
-0.2451,10.0886,0.0079,0.0531,-0.2428,-0.2144,-0.0015,0.0548,-0.0416,3217,2019-08-07 17:01:09:828
-0.3121,9.869,0.451,0.3013,-0.047,-0.7246,-0.009,0.0388,-0.0341,3223,2019-08-07 17:01:09:834
-0.3121,9.869,0.451,0.3013,-0.047,-0.7246,-0.009,0.0388,-0.0341,3228,2019-08-07 17:01:09:839
-0.5848,9.0288,8.1581,0.3013,-0.047,-0.7246,-0.4095,-1.2906,-0.0203,3233,2019-08-07 17:01:09:844
-0.5848,9.0288,8.1581,0.3013,-0.047,-0.7246,-0.4095,-1.2906,-0.0203,3237,2019-08-07 17:01:09:848
-0.5848,9.0288,8.1581,0.5592,-1.7225,3.5891,0.4054,-0.0698,-0.0863,3244,2019-08-07 17:01:09:855
-0.3264,11.6401,-3.3766,0.5592,-1.7225,3.5891,0.4054,-0.0698,-0.0863,3248,2019-08-07 17:01:09:859
-0.3264,11.6401,-3.3766,0.5592,-1.7225,3.5891,-0.156,-0.3042,0.0415,3253,2019-08-07 17:01:09:864
0.8266,9.4442,0.3944,0.5592,-1.7225,3.5891,-0.156,-0.3042,0.0415,3258,2019-08-07 17:01:09:869
0.8266,9.4442,0.3944,-0.1257,-0.3094,-1.2724,-0.0378,0.2924,-0.0416,3263,2019-08-07 17:01:09:874
0.8266,9.4442,0.3944,-0.1257,-0.3094,-1.2724,-0.0378,0.2924,-0.0416,3268,2019-08-07 17:01:09:879
-0.1112,10.0457,0.8799,-0.1257,-0.3094,-1.2724,-0.041,0.0569,-0.033,3273,2019-08-07 17:01:09:884
-0.1112,10.0457,0.8799,-0.1257,-0.3094,-1.2724,-0.041,0.0569,-0.033,3278,2019-08-07 17:01:09:889
-0.0729,10.0361,-0.1995,0.0107,-0.2281,0.0134,0.0176,0.0793,-0.0448,3283,2019-08-07 17:01:09:894
-0.0729,10.0361,-0.1995,0.0107,-0.2281,0.0134,0.0176,0.0793,-0.0448,3288,2019-08-07 17:01:09:899
-0.0729,10.0361,-0.1995,0.0107,-0.2281,0.0134,0.0176,0.0793,-0.0448,3293,2019-08-07 17:01:09:904
0.3003,9.9693,0.0362,-0.3649,-0.1612,-0.2219,-0.0367,0.2498,-0.0426,3298,2019-08-07 17:01:09:909
0.3003,9.9693,0.0362,-0.3649,-0.1612,-0.2219,-0.0367,0.2498,-0.0426,3303,2019-08-07 17:01:09:914
0.3003,9.9693,0.0362,-0.3649,-0.1612,-0.2219,-0.0239,0.3648,-0.0522,3308,2019-08-07 17:01:09:919
-0.1446,9.9263,0.3143,-0.3649,-0.1612,-0.2219,-0.0239,0.3648,-0.0522,3312,2019-08-07 17:01:09:923
-0.1446,9.9263,0.3143,0.3067,-0.1277,-0.7306,-0.0697,0.1731,-0.0362,3318,2019-08-07 17:01:09:929
-0.5082,9.8213,1.3277,0.3067,-0.1277,-0.7306,-0.0697,0.1731,-0.0362,3322,2019-08-07 17:01:09:933
-0.5082,9.8213,1.3277,0.3067,-0.1277,-0.7306,0.0059,-0.0134,-0.033,3328,2019-08-07 17:01:09:939
-0.5082,9.8213,1.3277,0.5022,-0.2469,-0.5279,0.0059,-0.0134,-0.033,3333,2019-08-07 17:01:09:944
-0.4748,10.0648,0.121,0.5022,-0.2469,-0.5279,0.0166,-0.1124,-0.0032,3338,2019-08-07 17:01:09:949