ACCELEROMETER X (m/s²),ACCELEROMETER Y (m/s²),ACCELEROMETER Z (m/s²),LINEAR ACCELERATION X (m/s²),LINEAR ACCELERATION Y (m/s²),LINEAR ACCELERATION Z (m/s²),GYROSCOPE X (rad/s),GYROSCOPE Y (rad/s),GYROSCOPE Z (rad/s),Time since start in ms ,YYYY-MO-DD HH-MI-SS_SSS
-1.4453,9.9735,0.2541,0.301,-0.0587,-0.2189,-0.3339,0.1773,-0.2461,2,2019-08-07 17:02:52:602
-1.9189,9.6107,1.1922,0.301,-0.0587,-0.2189,-0.3339,0.1773,-0.2461,8,2019-08-07 17:02:52:608
-1.9189,9.6107,1.1922,0.301,-0.0587,-0.2189,-0.3009,0.1432,-0.2226,13,2019-08-07 17:02:52:613
-2.0194,9.2431,1.0791,0.301,-0.0587,-0.2189,-0.3009,0.1432,-0.2226,17,2019-08-07 17:02:52:617
-2.0194,9.2431,1.0791,0.3523,0.4779,-0.3545,-0.3009,0.1432,-0.2226,23,2019-08-07 17:02:52:623
-2.0194,9.2431,1.0791,0.3523,0.4779,-0.3545,-0.2796,0.1294,-0.1971,28,2019-08-07 17:02:52:628
-2.005,9.3147,1.1686,0.3523,0.4779,-0.3545,-0.2796,0.1294,-0.1971,32,2019-08-07 17:02:52:632
-2.005,9.3147,1.1686,0.3523,0.4779,-0.3545,-0.2998,0.1379,-0.1715,38,2019-08-07 17:02:52:638
-2.005,9.3147,1.1686,0.3523,0.4779,-0.3545,-0.2998,0.1379,-0.1715,42,2019-08-07 17:02:52:642
-2.139,9.3672,1.3242,0.5117,0.2706,-0.4869,-0.3094,0.1368,-0.1523,48,2019-08-07 17:02:52:648
-2.139,9.3672,1.3242,0.5117,0.2706,-0.4869,-0.2689,0.041,-0.1108,53,2019-08-07 17:02:52:653
-2.4548,9.31,1.7343,0.5117,0.2706,-0.4869,-0.2689,0.041,-0.1108,58,2019-08-07 17:02:52:658
-2.4548,9.31,1.7343,0.5117,0.2706,-0.4869,-0.2689,0.041,-0.1108,63,2019-08-07 17:02:52:663
-2.4548,9.31,1.7343,0.786,0.3839,-0.8096,-0.2316,-0.0325,-0.0852,67,2019-08-07 17:02:52:667
-2.2777,9.2049,1.6164,0.786,0.3839,-0.8096,-0.2316,-0.0325,-0.0852,73,2019-08-07 17:02:52:673
-2.2777,9.2049,1.6164,0.786,0.3839,-0.8096,-0.2071,-0.0762,-0.0596,77,2019-08-07 17:02:52:677
-2.1438,9.2813,1.64,0.4677,0.338,-0.6937,-0.2071,-0.0762,-0.0596,83,2019-08-07 17:02:52:683
-2.1438,9.2813,1.64,0.4677,0.338,-0.6937,-0.2008,-0.0634,-0.0543,87,2019-08-07 17:02:52:687
-2.1438,9.2813,1.64,0.4677,0.338,-0.6937,-0.2008,-0.0634,-0.0543,93,2019-08-07 17:02:52:693
-2.0672,9.3243,1.6919,0.4677,0.338,-0.6937,-0.1922,-0.0453,-0.0383,98,2019-08-07 17:02:52:698
-2.0672,9.3243,1.6919,0.2082,0.2933,-0.6855,-0.1922,-0.0453,-0.0383,103,2019-08-07 17:02:52:703
-1.8519,9.4532,1.6541,0.2082,0.2933,-0.6855,-0.1709,-0.0453,-0.0266,108,2019-08-07 17:02:52:708
-1.8519,9.4532,1.6541,0.2082,0.2933,-0.6855,-0.1709,-0.0453,-0.0266,113,2019-08-07 17:02:52:713
-1.8519,9.4532,1.6541,0.1288,0.1141,-0.5288,-0.1443,-0.0304,-0.0149,117,2019-08-07 17:02:52:717
-1.6749,9.563,1.8238,0.1288,0.1141,-0.5288,-0.1443,-0.0304,-0.0149,123,2019-08-07 17:02:52:723
-1.6749,9.563,1.8238,0.1288,0.1141,-0.5288,-0.1134,-0.04,-0.016,128,2019-08-07 17:02:52:728
-1.5362,9.6012,1.772,-0.1551,0.0052,-0.7266,-0.1134,-0.04,-0.016,133,2019-08-07 17:02:52:733
-1.5362,9.6012,1.772,-0.1551,0.0052,-0.7266,-0.1134,-0.04,-0.016,137,2019-08-07 17:02:52:737
-1.5362,9.6012,1.772,-0.1551,0.0052,-0.7266,-0.0942,-0.0283,0.0011,143,2019-08-07 17:02:52:743
-1.3018,9.5248,1.706,-0.1551,0.0052,-0.7266,-0.0942,-0.0283,0.0011,147,2019-08-07 17:02:52:747
-1.3018,9.5248,1.706,-0.4675,-0.0446,-0.7631,-0.0814,-0.0262,0.0011,153,2019-08-07 17:02:52:753
-1.3018,9.5248,1.706,-0.4675,-0.0446,-0.7631,-0.0814,-0.0262,0.0011,157,2019-08-07 17:02:52:757
-1.2156,9.6823,1.8898,-0.4675,-0.0446,-0.7631,-0.0495,-0.0198,-0.0021,163,2019-08-07 17:02:52:763
-1.2156,9.6823,1.8898,-0.4675,-0.0446,-0.7631,-0.0495,-0.0198,-0.0021,168,2019-08-07 17:02:52:768
-1.2156,9.6823,1.8898,-0.1665,-0.2603,-0.367,-0.0452,0.0015,0.0234,173,2019-08-07 17:02:52:773
-1.517,9.8637,1.4515,-0.1665,-0.2603,-0.367,-0.0452,0.0015,0.0234,178,2019-08-07 17:02:52:778
-1.517,9.8637,1.4515,-0.1665,-0.2603,-0.367,-0.0452,0.0154,0.0245,183,2019-08-07 17:02:52:783
-1.8567,9.8017,1.475,-0.1665,-0.2603,-0.367,-0.0452,0.0154,0.0245,187,2019-08-07 17:02:52:787
-1.8567,9.8017,1.475,-0.1665,-0.2603,-0.367,-0.0239,-0.024,0.0224,193,2019-08-07 17:02:52:793
-1.8567,9.8017,1.475,0.497,-0.0842,-0.2253,-0.0239,-0.024,0.0224,197,2019-08-07 17:02:52:797
-2.206,9.5296,1.1922,0.497,-0.0842,-0.2253,-0.0133,-0.056,0.0448,203,2019-08-07 17:02:52:803
-2.206,9.5296,1.1922,0.497,-0.0842,-0.2253,-0.0133,-0.056,0.0448,207,2019-08-07 17:02:52:807
-1.8998,9.3577,0.9989,0.497,-0.0842,-0.2253,-0.0356,-0.1092,0.0309,213,2019-08-07 17:02:52:813
-1.8998,9.3577,0.9989,0.3633,0.0877,0.1873,-0.0356,-0.1092,0.0309,218,2019-08-07 17:02:52:818
-1.8998,9.3577,0.9989,0.3633,0.0877,0.1873,-0.0463,-0.1444,0.0192,222,2019-08-07 17:02:52:822
-1.6223,9.5964,1.1121,0.3633,0.0877,0.1873,-0.0463,-0.1444,0.0192,228,2019-08-07 17:02:52:828
-1.6223,9.5964,1.1121,0.3633,0.0877,0.1873,-0.0463,-0.1444,0.0192,233,2019-08-07 17:02:52:833
-1.2491,9.9306,1.1828,-0.3006,-0.2229,-0.0322,-0.0452,-0.1614,0.0107,238,2019-08-07 17:02:52:838
-1.2491,9.9306,1.1828,-0.3006,-0.2229,-0.0322,-0.0452,-0.1614,0.0107,242,2019-08-07 17:02:52:842
-1.2491,9.9306,1.1828,-0.3006,-0.2229,-0.0322,-0.0527,-0.1369,0.0021,248,2019-08-07 17:02:52:848
-0.9908,10.1836,1.1639,-0.3006,-0.2229,-0.0322,-0.0527,-0.1369,0.0021,252,2019-08-07 17:02:52:852
-0.9908,10.1836,1.1639,-0.7079,-0.6005,-0.043,-0.0793,-0.0698,-0.0085,258,2019-08-07 17:02:52:858
-0.8999,10.1645,1.4185,-0.7079,-0.6005,-0.043,-0.0793,-0.0698,-0.0085,263,2019-08-07 17:02:52:863
-0.8999,10.1645,1.4185,-0.7079,-0.6005,-0.043,-0.074,0.0058,-0.0149,268,2019-08-07 17:02:52:868
-0.8999,10.1645,1.4185,-0.7079,-0.6005,-0.043,-0.074,0.0058,-0.0149,272,2019-08-07 17:02:52:872
-1.2013,9.8494,1.6023,-0.4564,-0.2488,-0.4549,-0.0644,0.0505,-0.0234,278,2019-08-07 17:02:52:878
-1.2013,9.8494,1.6023,-0.4564,-0.2488,-0.4549,-0.0644,0.0505,-0.0234,282,2019-08-07 17:02:52:882
-1.2013,9.8494,1.6023,-0.4564,-0.2488,-0.4549,-0.0782,0.0612,-0.0128,288,2019-08-07 17:02:52:888
-1.5027,9.6203,1.5504,-0.4564,-0.2488,-0.4549,-0.0782,0.0612,-0.0128,292,2019-08-07 17:02:52:892
-1.5027,9.6203,1.5504,-0.1004,-0.0028,-0.3931,-0.0612,0.0655,-0.0085,298,2019-08-07 17:02:52:898
-1.7658,9.5868,1.442,-0.1004,-0.0028,-0.3931,-0.0612,0.0655,-0.0085,302,2019-08-07 17:02:52:902
-1.7658,9.5868,1.442,-0.1004,-0.0028,-0.3931,-0.0633,0.0665,-0.0053,308,2019-08-07 17:02:52:908
-1.7658,9.5868,1.442,-0.1004,-0.0028,-0.3931,-0.0633,0.0665,-0.0053,312,2019-08-07 17:02:52:912
-1.9572,9.5725,1.3478,0.293,0.0238,-0.1738,-0.0601,0.0857,0.0096,318,2019-08-07 17:02:52:918
-1.9572,9.5725,1.3478,0.293,0.0238,-0.1738,-0.0601,0.0857,0.0096,322,2019-08-07 17:02:52:922
-2.1294,9.5391,1.739,0.4637,0.0562,-0.5592,-0.0495,0.0697,0.016,328,2019-08-07 17:02:52:928
-2.1294,9.5391,1.739,0.4637,0.0562,-0.5592,-0.0495,0.0697,0.016,332,2019-08-07 17:02:52:932
-2.1294,9.5391,1.739,0.4637,0.0562,-0.5592,-0.0261,-0.0038,0.0266,338,2019-08-07 17:02:52:938
-2.0864,9.6394,1.8898,0.4637,0.0562,-0.5592,-0.0261,-0.0038,0.0266,343,2019-08-07 17:02:52:943
-2.0864,9.6394,1.8898,0.2394,-0.05,-0.7707,0.024,-0.0645,0.0373,348,2019-08-07 17:02:52:948
-2.0864,9.6394,1.8898,0.2394,-0.05,-0.7707,0.024,-0.0645,0.0373,352,2019-08-07 17:02:52:952
-1.5457,9.625,1.7154,0.2394,-0.05,-0.7707,0.024,-0.0645,0.0373,358,2019-08-07 17:02:52:958
-1.5457,9.625,1.7154,0.2394,-0.05,-0.7707,0.0506,-0.0485,0.0352,363,2019-08-07 17:02:52:963
-1.0817,9.4818,1.6023,-0.5731,0.1143,-0.4141,0.0506,-0.0485,0.0352,367,2019-08-07 17:02:52:967
-1.0817,9.4818,1.6023,-0.5731,0.1143,-0.4141,0.056,0.0165,0.0245,373,2019-08-07 17:02:52:973
-1.0817,9.4818,1.6023,-0.5731,0.1143,-0.4141,0.056,0.0165,0.0245,378,2019-08-07 17:02:52:978
-0.9525,9.2479,1.3713,-0.5731,0.1143,-0.4141,0.057,0.0761,0.0373,383,2019-08-07 17:02:52:983
-0.9525,9.2479,1.3713,-0.5681,0.4227,-0.2915,0.057,0.0761,0.0373,388,2019-08-07 17:02:52:988
-0.9525,9.2479,1.3713,-0.5681,0.4227,-0.2915,0.057,0.0761,0.0373,392,2019-08-07 17:02:52:992
-1.0769,9.2384,1.6023,-0.3441,0.1997,-0.4387,0.0634,0.1102,0.032,398,2019-08-07 17:02:52:998
-1.0769,9.2384,1.6023,-0.3441,0.1997,-0.4387,0.0634,0.1102,0.032,402,2019-08-07 17:02:53:002
-1.6845,9.5248,1.6589,-0.3441,0.1997,-0.4387,0.0954,0.0974,0.0139,408,2019-08-07 17:02:53:008
-1.6845,9.5248,1.6589,-0.3441,0.1997,-0.4387,0.0954,0.0974,0.0139,413,2019-08-07 17:02:53:013
-1.6845,9.5248,1.6589,0.0733,0.1018,-0.6163,0.1039,0.0772,0.0224,417,2019-08-07 17:02:53:017
-1.6606,9.4675,1.7909,0.0733,0.1018,-0.6163,0.1039,0.0772,0.0224,423,2019-08-07 17:02:53:023
-1.6606,9.4675,1.7909,-0.1115,0.0508,-0.6312,0.1337,0.0452,0.0224,428,2019-08-07 17:02:53:028
-1.4548,9.6632,1.706,-0.1115,0.0508,-0.6312,0.1337,0.0452,0.0224,433,2019-08-07 17:02:53:033
-1.4548,9.6632,1.706,-0.1115,0.0508,-0.6312,0.1337,0.0452,0.0224,438,2019-08-07 17:02:53:038
-1.4548,9.6632,1.706,-0.1115,0.0508,-0.6312,0.1774,0.0452,0.0149,442,2019-08-07 17:02:53:042
-1.1917,9.5916,1.4703,-0.5658,-0.0164,-0.2372,0.1774,0.0452,0.0149,448,2019-08-07 17:02:53:048
-1.1917,9.5916,1.4703,-0.5658,-0.0164,-0.2372,0.1763,0.107,0.0075,453,2019-08-07 17:02:53:053
-0.8712,9.5343,1.1875,-0.5658,-0.0164,-0.2372,0.1763,0.107,0.0075,457,2019-08-07 17:02:53:057
-0.8712,9.5343,1.1875,-0.5658,-0.0164,-0.2372,0.1625,0.1944,-0.017,462,2019-08-07 17:02:53:062
-0.8712,9.5343,1.1875,-0.7613,-0.0549,0.2057,0.1625,0.1944,-0.017,468,2019-08-07 17:02:53:068
-0.852,9.6537,0.8151,-0.7613,-0.0549,0.2057,0.1401,0.2956,-0.0405,473,2019-08-07 17:02:53:073
-0.852,9.6537,0.8151,-0.7613,-0.0549,0.2057,0.1401,0.2956,-0.0405,478,2019-08-07 17:02:53:078
-1.1056,9.7921,0.6595,-0.7613,-0.0549,0.2057,0.106,0.401,-0.0575,483,2019-08-07 17:02:53:083
-1.1056,9.7921,0.6595,-0.3483,-0.2296,0.1117,0.106,0.401,-0.0575,487,2019-08-07 17:02:53:087
-1.1056,9.7921,0.6595,-0.3483,-0.2296,0.1117,0.106,0.401,-0.0575,493,2019-08-07 17:02:53:093
-1.584,9.8351,1.1073,-0.3483,-0.2296,0.1117,0.0943,0.4447,-0.0724,497,2019-08-07 17:02:53:097
-1.584,9.8351,1.1073,-0.3483,-0.2296,0.1117,0.0943,0.4447,-0.0724,503,2019-08-07 17:02:53:103
-2.0624,9.8924,1.6542,-0.3483,-0.2296,0.1117,0.121,0.3797,-0.0532,508,2019-08-07 17:02:53:108
-2.0624,9.8924,1.6542,0.4952,-0.2301,-0.6364,0.121,0.3797,-0.0532,513,2019-08-07 17:02:53:113
-2.1677,9.6966,1.5882,0.4952,-0.2301,-0.6364,0.1497,0.2998,-0.033,518,2019-08-07 17:02:53:118
-2.1677,9.6966,1.5882,0.4952,-0.2301,-0.6364,0.1497,0.2998,-0.033,522,2019-08-07 17:02:53:122
-2.1677,9.6966,1.5882,0.4952,-0.2301,-0.6364,0.1795,0.2199,-0.0277,528,2019-08-07 17:02:53:128
-2.0146,9.6632,1.7013,0.3692,-0.1004,-0.6808,0.1795,0.2199,-0.0277,532,2019-08-07 17:02:53:132
-2.0146,9.6632,1.7013,0.3692,-0.1004,-0.6808,0.2254,0.1219,-0.0256,538,2019-08-07 17:02:53:138
-2.0146,9.6632,1.7013,0.3692,-0.1004,-0.6808,0.2254,0.1219,-0.0256,542,2019-08-07 17:02:53:142
-1.5027,9.7348,1.31,0.3692,-0.1004,-0.6808,0.2254,0.1219,-0.0256,548,2019-08-07 17:02:53:148
-1.5027,9.7348,1.31,-0.3416,-0.0879,-0.1114,0.2392,0.1145,-0.0341,552,2019-08-07 17:02:53:152
-1.0912,9.8494,0.6643,-0.3416,-0.0879,-0.1114,0.2392,0.1145,-0.0341,558,2019-08-07 17:02:53:158
-1.0912,9.8494,0.6643,-0.5883,-0.2101,0.3061,0.2211,0.1677,-0.049,562,2019-08-07 17:02:53:162
-1.0912,9.8494,0.6643,-0.5883,-0.2101,0.3061,0.2211,0.1677,-0.049,568,2019-08-07 17:02:53:168
-1.1295,9.9449,0.471,-0.5883,-0.2101,0.3061,0.1849,0.2998,-0.065,573,2019-08-07 17:02:53:173
-1.1295,9.9449,0.471,-0.5883,-0.2101,0.3061,0.1849,0.2998,-0.065,578,2019-08-07 17:02:53:178
-1.5457,9.7587,0.9565,-0.2424,-0.1648,0.0583,0.1668,0.3424,-0.082,582,2019-08-07 17:02:53:182
-1.5457,9.7587,0.9565,-0.2424,-0.1648,0.0583,0.1668,0.3424,-0.082,588,2019-08-07 17:02:53:188
-1.5457,9.7587,0.9565,-0.2424,-0.1648,0.0583,0.1668,0.3424,-0.082,592,2019-08-07 17:02:53:192
-1.9572,9.563,1.2723,-0.2424,-0.1648,0.0583,0.1774,0.2551,-0.0767,598,2019-08-07 17:02:53:198
-1.9572,9.563,1.2723,0.3633,0.045,-0.3884,0.1774,0.2551,-0.0767,603,2019-08-07 17:02:53:203
-2.1151,9.668,1.1922,0.3633,0.045,-0.3884,0.2019,0.1549,-0.0543,607,2019-08-07 17:02:53:207
-2.1151,9.668,1.1922,0.3741,-0.0168,-0.4045,0.2019,0.1549,-0.0543,613,2019-08-07 17:02:53:213
-2.1151,9.668,1.1922,0.3741,-0.0168,-0.4045,0.2168,0.074,-0.0458,617,2019-08-07 17:02:53:217
-2.0385,9.4388,1.2252,0.3741,-0.0168,-0.4045,0.2168,0.074,-0.0458,623,2019-08-07 17:02:53:223
-2.0385,9.4388,1.2252,0.3741,-0.0168,-0.4045,0.2264,0.0101,-0.0373,628,2019-08-07 17:02:53:228
-2.0481,9.7062,0.8575,0.3005,-0.0489,-0.1348,0.2264,0.0101,-0.0373,633,2019-08-07 17:02:53:233
-2.0481,9.7062,0.8575,0.3005,-0.0489,-0.1348,0.2211,0.009,-0.017,637,2019-08-07 17:02:53:237
-2.0481,9.7062,0.8575,0.3005,-0.0489,-0.1348,0.2211,0.009,-0.017,643,2019-08-07 17:02:53:243
-1.9907,9.8446,0.9801,0.3005,-0.0489,-0.1348,0.2264,0.0228,-0.0138,647,2019-08-07 17:02:53:247
-1.9907,9.8446,0.9801,0.2187,-0.2758,-0.5068,0.2264,0.0228,-0.0138,653,2019-08-07 17:02:53:253
-1.9189,9.7635,1.2818,0.2187,-0.2758,-0.5068,0.2509,0.0015,-0.0074,658,2019-08-07 17:02:53:258
-1.9189,9.7635,1.2818,0.2187,-0.2758,-0.5068,0.2509,0.0015,-0.0074,663,2019-08-07 17:02:53:263
-1.9189,9.7635,1.2818,0.2187,-0.2758,-0.5068,0.2744,0.0079,0.0043,667,2019-08-07 17:02:53:267
-1.804,9.625,1.0555,0.0495,0.004,-0.3923,0.2744,0.0079,0.0043,673,2019-08-07 17:02:53:273
-1.804,9.625,1.0555,0.0495,0.004,-0.3923,0.2754,0.0271,0.0032,677,2019-08-07 17:02:53:277
-1.7466,9.5486,1.1026,0.0495,0.004,-0.3923,0.2754,0.0271,0.0032,683,2019-08-07 17:02:53:283
-1.7466,9.5486,1.1026,0.0495,0.004,-0.3923,0.2754,0.0271,0.0032,687,2019-08-07 17:02:53:287
-1.7466,9.5486,1.1026,0.0837,0.0552,-0.5049,0.2861,0.0473,0.0149,693,2019-08-07 17:02:53:293
-1.7993,9.6012,1.1545,0.0837,0.0552,-0.5049,0.2861,0.0473,0.0149,698,2019-08-07 17:02:53:298
-1.7993,9.6012,1.1545,0.0837,0.0552,-0.5049,0.2999,0.0218,0.0171,703,2019-08-07 17:02:53:303
-1.7993,9.6012,1.1545,0.0837,0.0552,-0.5049,0.2999,0.0218,0.0171,707,2019-08-07 17:02:53:307
-1.7706,9.711,0.7915,-0.0037,-0.1508,-0.1461,0.3106,5.0E-4,0.0224,713,2019-08-07 17:02:53:313
-1.7706,9.711,0.7915,-0.0037,-0.1508,-0.1461,0.3106,5.0E-4,0.0224,717,2019-08-07 17:02:53:317
-1.6844,9.711,0.5464,-0.0037,-0.1508,-0.1461,0.3042,5.0E-4,0.0309,723,2019-08-07 17:02:53:323
-1.6844,9.711,0.5464,-0.0037,-0.1508,-0.1461,0.3042,5.0E-4,0.0309,728,2019-08-07 17:02:53:328
-1.6844,9.711,0.5464,0.0642,0.0874,0.0394,0.301,0.0218,0.0277,733,2019-08-07 17:02:53:333
-1.8806,9.4723,0.537,0.0642,0.0874,0.0394,0.301,0.0218,0.0277,738,2019-08-07 17:02:53:338
-1.8806,9.4723,0.537,0.0642,0.0874,0.0394,0.301,0.0218,0.0277,742,2019-08-07 17:02:53:342
-2.1294,9.5009,0.7208,0.2577,0.1561,-0.1782,0.2946,0.0154,0.0362,748,2019-08-07 17:02:53:348
-2.1294,9.5009,0.7208,0.2577,0.1561,-0.1782,0.2946,0.0154,0.0362,752,2019-08-07 17:02:53:352
-2.1294,9.5009,0.7208,0.2577,0.1561,-0.1782,0.2935,-0.0368,0.0416,758,2019-08-07 17:02:53:358
-2.1916,9.711,1.0508,0.4157,-0.1318,-0.6319,0.2935,-0.0368,0.0416,763,2019-08-07 17:02:53:363
-2.1916,9.711,1.0508,0.4157,-0.1318,-0.6319,0.3084,-0.1135,0.0565,768,2019-08-07 17:02:53:368
-1.8471,9.8303,0.8811,0.4157,-0.1318,-0.6319,0.3084,-0.1135,0.0565,772,2019-08-07 17:02:53:372
-1.8471,9.8303,0.8811,0.4157,-0.1318,-0.6319,0.3361,-0.1614,0.0693,778,2019-08-07 17:02:53:378
-1.8471,9.8303,0.8811,-0.3175,-0.089,-0.2349,0.3361,-0.1614,0.0693,783,2019-08-07 17:02:53:383
-1.3352,9.7348,0.5888,-0.3175,-0.089,-0.2349,0.3372,-0.1359,0.0661,787,2019-08-07 17:02:53:387
-1.3352,9.7348,0.5888,-0.3175,-0.089,-0.2349,0.3372,-0.1359,0.0661,793,2019-08-07 17:02:53:393
-1.2156,9.7682,0.174,-0.4335,-0.0864,-0.0058,0.318,-0.0805,0.0607,798,2019-08-07 17:02:53:398
-1.2156,9.7682,0.174,-0.4335,-0.0864,-0.0058,0.318,-0.0805,0.0607,803,2019-08-07 17:02:53:403
-1.2156,9.7682,0.174,-0.4335,-0.0864,-0.0058,0.2765,0.0527,0.0575,808,2019-08-07 17:02:53:408
-1.3352,9.9019,0.1552,-0.3086,-0.2777,0.0208,0.2765,0.0527,0.0575,813,2019-08-07 17:02:53:413
-1.3352,9.9019,0.1552,-0.3086,-0.2777,0.0208,0.2488,0.1155,0.0543,817,2019-08-07 17:02:53:417
-1.5744,9.8685,0.2353,-0.3086,-0.2777,0.0208,0.2488,0.1155,0.0543,823,2019-08-07 17:02:53:423
-1.5744,9.8685,0.2353,-0.3086,-0.2777,0.0208,0.2371,0.1187,0.0618,828,2019-08-07 17:02:53:428
-1.5744,9.8685,0.2353,0.1053,-0.0977,0.0072,0.2371,0.1187,0.0618,833,2019-08-07 17:02:53:433
-1.7897,9.7348,0.207,0.1053,-0.0977,0.0072,0.2222,0.0623,0.0575,837,2019-08-07 17:02:53:437
-1.7897,9.7348,0.207,0.1053,-0.0977,0.0072,0.2222,0.0623,0.0575,843,2019-08-07 17:02:53:443
-2.0289,9.816,0.1269,0.1053,-0.0977,0.0072,0.2115,-0.0017,0.0682,847,2019-08-07 17:02:53:447
-2.0289,9.816,0.1269,0.3213,-0.1809,0.0481,0.2115,-0.0017,0.0682,853,2019-08-07 17:02:53:453
-2.0289,9.816,0.1269,0.3213,-0.1809,0.0481,0.2115,-0.0017,0.0682,858,2019-08-07 17:02:53:458
-1.8901,9.8255,0.0185,0.3213,-0.1809,0.0481,0.2019,-0.0634,0.0831,862,2019-08-07 17:02:53:462
-1.8901,9.8255,0.0185,0.3213,-0.1809,0.0481,0.2019,-0.0634,0.0831,868,2019-08-07 17:02:53:468
-1.8184,9.773,-0.0334,0.1542,-0.1062,0.1713,0.1817,-0.1082,0.0778,873,2019-08-07 17:02:53:473
-1.8184,9.773,-0.0334,0.1542,-0.1062,0.1713,0.1817,-0.1082,0.0778,878,2019-08-07 17:02:53:478
-1.8184,9.773,-0.0334,0.1542,-0.1062,0.1713,0.1561,-0.1242,0.0842,882,2019-08-07 17:02:53:482
-1.6127,9.73,-0.057,0.1542,-0.1062,0.1713,0.1561,-0.1242,0.0842,888,2019-08-07 17:02:53:488
-1.6127,9.73,-0.057,-0.0018,-0.1412,0.29,0.1359,-0.1252,0.0746,894,2019-08-07 17:02:53:494
-1.6127,9.7969,-0.1795,-0.0018,-0.1412,0.29,0.1359,-0.1252,0.0746,898,2019-08-07 17:02:53:498
-1.6414,9.7969,-0.1795,-0.0018,-0.1412,0.29,0.1156,-0.0965,0.0788,903,2019-08-07 17:02:53:503
-1.6414,9.7969,-0.1795,-0.0018,-0.1412,0.29,0.1156,-0.0965,0.0788,908,2019-08-07 17:02:53:508
-1.6079,9.8398,0.042,-0.0018,-0.1412,0.29,0.1018,-0.0933,0.0756,912,2019-08-07 17:02:53:512
-1.6079,9.8398,0.042,0.0139,-0.21,-0.0085,0.1018,-0.0933,0.0756,918,2019-08-07 17:02:53:518
-1.6079,9.8398,0.042,0.0139,-0.21,-0.0085,0.0996,-0.0816,0.0682,922,2019-08-07 17:02:53:522
-1.6318,9.6871,0.5747,0.0139,-0.21,-0.0085,0.0996,-0.0816,0.0682,928,2019-08-07 17:02:53:528
-1.6318,9.6871,0.5747,-0.1063,0.0932,-0.6065,0.1167,-0.1018,0.0703,933,2019-08-07 17:02:53:533
-1.3926,9.668,0.7067,-0.1063,0.0932,-0.6065,0.1167,-0.1018,0.0703,938,2019-08-07 17:02:53:538
-1.3926,9.668,0.7067,-0.1063,0.0932,-0.6065,0.1167,-0.1018,0.0703,943,2019-08-07 17:02:53:543
-1.3926,9.668,0.7067,-0.1063,0.0932,-0.6065,0.1273,-0.1465,0.0671,948,2019-08-07 17:02:53:548
-1.1582,9.9067,0.2966,-0.1063,0.0932,-0.6065,0.1273,-0.1465,0.0671,952,2019-08-07 17:02:53:552
-1.1582,9.9067,0.2966,-0.43,-0.2573,0.0736,0.1284,-0.1061,0.0554,958,2019-08-07 17:02:53:558
-1.0673,9.8733,-0.2879,-0.43,-0.2573,0.0736,0.1284,-0.1061,0.0554,962,2019-08-07 17:02:53:562
-1.0673,9.8733,-0.2879,-0.43,-0.2573,0.0736,0.1071,-0.0049,0.0554,968,2019-08-07 17:02:53:568
-1.0673,9.8733,-0.2879,-0.43,-0.2573,0.0736,0.1071,-0.0049,0.0554,972,2019-08-07 17:02:53:572
-1.3543,9.7587,-0.1984,-0.2342,-0.0782,0.2343,0.0783,0.0708,0.0394,978,2019-08-07 17:02:53:578
-1.3543,9.7587,-0.1984,-0.2342,-0.0782,0.2343,0.0783,0.0708,0.0394,982,2019-08-07 17:02:53:582
-1.3543,9.7587,-0.1984,-0.2342,-0.0782,0.2343,0.0709,0.0505,0.033,988,2019-08-07 17:02:53:588
-1.8519,9.816,0.4427,0.3028,-0.0581,-0.581,0.0709,0.0505,0.033,994,2019-08-07 17:02:53:594
-1.8519,9.816,0.4427,0.3028,-0.0581,-0.581,0.0943,-0.0539,0.0384,998,2019-08-07 17:02:53:598
-1.7945,9.6584,0.702,0.3028,-0.0581,-0.581,0.0943,-0.0539,0.0384,1002,2019-08-07 17:02:53:602
-1.7945,9.6584,0.702,0.3028,-0.0581,-0.581,0.1231,-0.1444,0.0352,1008,2019-08-07 17:02:53:608
-1.7945,9.6584,0.702,0.3028,-0.0581,-0.581,0.1231,-0.1444,0.0352,1013,2019-08-07 17:02:53:613
-1.4021,9.7635,0.438,-0.2167,-0.1143,-0.3829,0.1284,-0.1785,0.0352,1017,2019-08-07 17:02:53:617
-1.4021,9.7635,0.438,-0.2167,-0.1143,-0.3829,0.1284,-0.1785,0.0352,1023,2019-08-07 17:02:53:623
-0.9907,9.8303,0.042,-0.2167,-0.1143,-0.3829,0.1178,-0.1156,0.0224,1028,2019-08-07 17:02:53:628
-0.9907,9.8303,0.042,-0.2167,-0.1143,-0.3829,0.1178,-0.1156,0.0224,1032,2019-08-07 17:02:53:632
-0.9907,9.8303,0.042,-0.5902,-0.2273,0.0323,0.1178,-0.1156,0.0224,1038,2019-08-07 17:02:53:638
-1.0625,9.9592,-0.0475,-0.5902,-0.2273,0.0323,0.0986,5.0E-4,0.0085,1044,2019-08-07 17:02:53:644
-1.0625,9.9592,-0.0475,-0.5902,-0.2273,0.0323,0.0986,5.0E-4,0.0085,1048,2019-08-07 17:02:53:648
-1.1534,9.8542,-0.0617,-0.5902,-0.2273,0.0323,0.0783,0.0612,-0.0085,1053,2019-08-07 17:02:53:653
-1.1534,9.8542,-0.0617,-0.2608,-0.136,0.0468,0.0783,0.0612,-0.0085,1058,2019-08-07 17:02:53:658
-1.1534,9.8542,-0.0617,-0.2608,-0.136,0.0468,0.0762,0.0686,-0.0202,1063,2019-08-07 17:02:53:663
-1.4978,9.7826,-0.0758,-0.2608,-0.136,0.0468,0.0762,0.0686,-0.0202,1068,2019-08-07 17:02:53:668
-1.4978,9.7826,-0.0758,-0.2608,-0.136,0.0468,0.0709,0.0431,-0.0192,1072,2019-08-07 17:02:53:672
-1.7275,9.878,0.3154,0.1611,-0.194,-0.36,0.0709,0.0431,-0.0192,1078,2019-08-07 17:02:53:678
-1.7275,9.878,0.3154,0.1611,-0.194,-0.36,0.0773,-0.0123,-0.0256,1082,2019-08-07 17:02:53:682
-1.7275,9.878,0.3154,0.1611,-0.194,-0.36,0.0773,-0.0123,-0.0256,1088,2019-08-07 17:02:53:688
-1.7275,9.878,0.3154,0.1611,-0.194,-0.36,0.0773,-0.0123,-0.0256,1092,2019-08-07 17:02:53:692
-1.5457,9.8637,0.3296,-0.1397,-0.0754,-0.2311,0.1007,-0.0741,-0.016,1098,2019-08-07 17:02:53:698
-1.5457,9.8637,0.3296,-0.1397,-0.0754,-0.2311,0.1007,-0.0741,-0.016,1102,2019-08-07 17:02:53:702
-1.249,9.7921,-0.0852,-0.1397,-0.0754,-0.2311,0.0826,-0.0613,-0.0224,1108,2019-08-07 17:02:53:708
-1.249,9.7921,-0.0852,-0.1397,-0.0754,-0.2311,0.0826,-0.0613,-0.0224,1113,2019-08-07 17:02:53:713
-1.249,9.7921,-0.0852,-0.4427,-0.2619,-0.0713,0.056,0.0047,-0.0341,1118,2019-08-07 17:02:53:718
-1.1629,9.9687,0.0138,-0.4427,-0.2619,-0.0713,0.056,0.0047,-0.0341,1123,2019-08-07 17:02:53:723
-1.1629,9.9687,0.0138,-0.4427,-0.2619,-0.0713,0.0517,0.0186,-0.0458,1128,2019-08-07 17:02:53:728
-1.0768,10.0403,-0.1512,-0.4427,-0.2619,-0.0713,0.0517,0.0186,-0.0458,1134,2019-08-07 17:02:53:734
-1.0768,10.0403,-0.1512,-0.4531,-0.3298,0.2478,0.0517,0.0186,-0.0458,1138,2019-08-07 17:02:53:738
-1.0768,10.0403,-0.1512,-0.4531,-0.3298,0.2478,0.0389,0.0452,-0.0809,1142,2019-08-07 17:02:53:742
-1.1677,9.8828,-0.3209,-0.4531,-0.3298,0.2478,0.0389,0.0452,-0.0809,1148,2019-08-07 17:02:53:748
-1.1677,9.8828,-0.3209,-0.383,-0.1781,0.191,0.0059,0.0836,-0.1001,1152,2019-08-07 17:02:53:752
-1.2682,9.8446,0.0043,-0.383,-0.1781,0.191,0.0059,0.0836,-0.1001,1158,2019-08-07 17:02:53:758
-1.2682,9.8446,0.0043,-0.383,-0.1781,0.191,-0.0058,0.0697,-0.1012,1162,2019-08-07 17:02:53:762
-1.2682,9.8446,0.0043,-0.1899,-0.1714,-0.1408,-0.0058,0.0697,-0.1012,1168,2019-08-07 17:02:53:768
-1.4356,9.8637,0.0138,-0.1899,-0.1714,-0.1408,-0.0186,0.0537,-0.1129,1173,2019-08-07 17:02:53:773
-1.4356,9.8637,0.0138,-0.1899,-0.1714,-0.1408,-0.0186,0.0537,-0.1129,1177,2019-08-07 17:02:53:777
-1.4213,9.9592,-0.3728,-0.1899,-0.1714,-0.1408,-0.0463,0.0729,-0.1193,1183,2019-08-07 17:02:53:783
-1.4213,9.9592,-0.3728,-0.1629,-0.256,0.5071,-0.0463,0.0729,-0.1193,1187,2019-08-07 17:02:53:787
-1.4213,9.9592,-0.3728,-0.1629,-0.256,0.5071,-0.0814,0.1038,-0.1342,1193,2019-08-07 17:02:53:793
-1.6079,9.9162,-0.5896,-0.1629,-0.256,0.5071,-0.0814,0.1038,-0.1342,1198,2019-08-07 17:02:53:798
-1.6079,9.9162,-0.5896,-0.1629,-0.256,0.5071,-0.0814,0.1038,-0.1342,1203,2019-08-07 17:02:53:803
-1.6079,9.9162,-0.5896,-0.1629,-0.256,0.5071,-0.1177,0.0921,-0.1353,1208,2019-08-07 17:02:53:808
-1.7849,9.7348,-0.1748,0.1362,-0.0646,0.0995,-0.1177,0.0921,-0.1353,1212,2019-08-07 17:02:53:812
-1.7849,9.7348,-0.1748,0.1362,-0.0646,0.0995,-0.1283,0.0154,-0.1395,1218,2019-08-07 17:02:53:818
-1.8614,9.9783,0.2117,0.1362,-0.0646,0.0995,-0.1283,0.0154,-0.1395,1222,2019-08-07 17:02:53:822
-1.8614,9.9783,0.2117,0.1362,-0.0646,0.0995,-0.1123,-0.0581,-0.1385,1228,2019-08-07 17:02:53:828
-1.8614,9.9783,0.2117,0.1752,-0.1743,-0.2242,-0.1123,-0.0581,-0.1385,1233,2019-08-07 17:02:53:833
-1.7753,9.6155,0.1552,0.1752,-0.1743,-0.2242,-0.1059,-0.0816,-0.1395,1238,2019-08-07 17:02:53:838
-1.7753,9.6155,0.1552,0.1752,-0.1743,-0.2242,-0.1059,-0.0816,-0.1395,1242,2019-08-07 17:02:53:842
-1.5935,9.6871,0.3202,-0.1104,-0.0262,-0.3445,-0.1166,-0.0507,-0.1449,1248,2019-08-07 17:02:53:848
-1.5935,9.6871,0.3202,-0.1104,-0.0262,-0.3445,-0.1166,-0.0507,-0.1449,1253,2019-08-07 17:02:53:853
-1.5935,9.6871,0.3202,-0.1104,-0.0262,-0.3445,-0.1166,-0.0507,-0.1449,1258,2019-08-07 17:02:53:858
-1.4213,9.8924,0.4663,-0.2957,-0.2338,-0.4768,-0.1155,-0.007,-0.1438,1263,2019-08-07 17:02:53:863
-1.4213,9.8924,0.4663,-0.2957,-0.2338,-0.4768,-0.1155,-0.007,-0.1438,1267,2019-08-07 17:02:53:867
-1.3304,10.2122,0.4757,-0.2957,-0.2338,-0.4768,-0.0921,0.0569,-0.1491,1273,2019-08-07 17:02:53:873
-1.3304,10.2122,0.4757,-0.2957,-0.2338,-0.4768,-0.0921,0.0569,-0.1491,1278,2019-08-07 17:02:53:878
-1.3304,10.2122,0.4757,-0.3642,-0.5773,-0.5542,-0.0623,0.1081,-0.1523,1282,2019-08-07 17:02:53:882
-1.3112,10.0165,1.1121,-0.3642,-0.5773,-0.5542,-0.0623,0.1081,-0.1523,1288,2019-08-07 17:02:53:888
-1.3112,10.0165,1.1121,-0.3642,-0.5773,-0.5542,-0.0623,0.1081,-0.1523,1292,2019-08-07 17:02:53:892
-1.3112,10.0165,1.1121,-0.3642,-0.5773,-0.5542,-0.0026,0.1549,-0.1513,1298,2019-08-07 17:02:53:898
-1.1677,9.9974,1.6872,-0.6007,-0.3481,-1.6672,-0.0026,0.1549,-0.1513,1302,2019-08-07 17:02:53:902
-1.1677,9.9974,1.6872,-0.6007,-0.3481,-1.6672,0.1252,0.1794,-0.1513,1308,2019-08-07 17:02:53:908
-1.1677,10.3172,1.5882,-0.6131,-0.6702,-1.5738,0.1252,0.1794,-0.1513,1312,2019-08-07 17:02:53:912
-1.1677,10.3172,1.5882,-0.6131,-0.6702,-1.5738,0.2126,0.2167,-0.163,1318,2019-08-07 17:02:53:918
-1.1677,10.3172,1.5882,-0.6131,-0.6702,-1.5738,0.2126,0.2167,-0.163,1323,2019-08-07 17:02:53:923
-0.7706,10.4652,2.5309,-0.6131,-0.6702,-1.5738,0.3063,0.2583,-0.179,1328,2019-08-07 17:02:53:928
-0.7706,10.4652,2.5309,-1.0015,-1.1809,-2.9363,0.3063,0.2583,-0.179,1332,2019-08-07 17:02:53:932
-0.7706,10.4652,2.5309,-1.0015,-1.1809,-2.9363,0.3063,0.2583,-0.179,1338,2019-08-07 17:02:53:938
-0.6462,10.9999,3.1814,-1.0015,-1.1809,-2.9363,0.5321,0.2679,-0.1726,1343,2019-08-07 17:02:53:943
-0.6462,10.9999,3.1814,-1.0015,-1.1809,-2.9363,0.5321,0.2679,-0.1726,1348,2019-08-07 17:02:53:948
-0.5649,11.8592,3.7282,-1.3853,-1.9118,-3.6092,0.6813,0.4308,-0.1981,1352,2019-08-07 17:02:53:952
-0.5649,11.8592,3.7282,-1.3853,-1.9118,-3.6092,0.6813,0.4308,-0.1981,1358,2019-08-07 17:02:53:958
-0.5649,11.8592,3.7282,-0.7929,-3.1474,-4.639,0.7942,0.5523,-0.212,1362,2019-08-07 17:02:53:962
-1.2251,13.0574,4.9161,-0.7929,-3.1474,-4.639,0.7942,0.5523,-0.212,1368,2019-08-07 17:02:53:968
-1.2251,13.0574,4.9161,-0.7929,-3.1474,-4.639,1.166,0.5672,-0.2035,1373,2019-08-07 17:02:53:973
-1.2251,13.0574,4.9161,-0.7929,-3.1474,-4.639,1.166,0.5672,-0.2035,1377,2019-08-07 17:02:53:977
-1.1629,13.9071,6.6791,-0.3929,-4.9921,-7.0312,1.4674,0.5203,-0.2514,1383,2019-08-07 17:02:53:983
-1.1629,13.9071,6.6791,-0.3929,-4.9921,-7.0312,1.4674,0.5203,-0.2514,1388,2019-08-07 17:02:53:988
-2.5695,16.738,7.372,-0.3929,-4.9921,-7.0312,1.7402,0.5778,-0.2269,1393,2019-08-07 17:02:53:993
-2.5695,16.738,7.372,-0.3929,-4.9921,-7.0312,1.7402,0.5778,-0.2269,1398,2019-08-07 17:02:53:998
-3.9856,20.0224,8.3808,1.6036,-9.7136,-8.9255,1.7402,0.5778,-0.2269,1403,2019-08-07 17:02:54:003
-3.9856,20.0224,8.3808,1.6036,-9.7136,-8.9255,2.0928,0.7014,-0.1246,1408,2019-08-07 17:02:54:008
-3.9856,20.0224,8.3808,1.6036,-9.7136,-8.9255,2.0928,0.7014,-0.1246,1413,2019-08-07 17:02:54:013
-6.0141,23.0824,10.0872,1.6036,-9.7136,-8.9255,2.2611,0.6055,0.0277,1418,2019-08-07 17:02:54:018
-6.0141,23.0824,10.0872,4.7082,-15.4521,-13.5223,2.2611,0.6055,0.0277,1422,2019-08-07 17:02:54:022
-7.081,26.2618,14.2825,4.7082,-15.4521,-13.5223,2.4496,0.2082,0.1044,1428,2019-08-07 17:02:54:028
-7.081,26.2618,14.2825,4.7082,-15.4521,-13.5223,2.4496,0.2082,0.1044,1433,2019-08-07 17:02:54:033
-7.081,26.2618,14.2825,4.7082,-15.4521,-13.5223,2.9578,-2.8491,0.4389,1438,2019-08-07 17:02:54:038
-7.081,26.2618,14.2825,4.7082,-15.4521,-13.5223,2.9578,-2.8491,0.4389,1442,2019-08-07 17:02:54:042
-7.5212,24.5384,7.3343,5.6138,-15.0375,-8.8607,2.9578,-2.8491,0.4389,1448,2019-08-07 17:02:54:048
-7.5212,24.5384,7.3343,5.6138,-15.0375,-8.8607,2.5924,-2.8406,0.1406,1452,2019-08-07 17:02:54:052
-0.0625,22.7196,-4.3559,5.6138,-15.0375,-8.8607,2.5924,-2.8406,0.1406,1458,2019-08-07 17:02:54:058
-0.0625,22.7196,-4.3559,-3.0874,-15.8928,-3.0116,2.6424,-2.0917,-0.1821,1463,2019-08-07 17:02:54:063
-0.0625,22.7196,-4.3559,-3.0874,-15.8928,-3.0116,2.6424,-2.0917,-0.1821,1467,2019-08-07 17:02:54:067
-0.7228,27.016,-4.4172,-3.0874,-15.8928,-3.0116,3.4712,-2.2472,0.1438,1473,2019-08-07 17:02:54:073
-0.7228,27.016,-4.4172,-3.0874,-15.8928,-3.0116,3.4712,-2.2472,0.1438,1478,2019-08-07 17:02:54:078
-0.584,29.1643,-10.3802,-0.7841,-20.2074,10.0286,3.7311,-2.3527,0.4453,1483,2019-08-07 17:02:54:083
-0.584,29.1643,-10.3802,-0.7841,-20.2074,10.0286,3.7311,-2.3527,0.4453,1488,2019-08-07 17:02:54:088
-0.584,29.1643,-10.3802,-0.7841,-20.2074,10.0286,3.7311,-2.3527,0.4453,1492,2019-08-07 17:02:54:092
-4.7846,31.0595,-19.0394,2.7403,-21.8782,16.2534,3.3785,-1.3364,0.3899,1498,2019-08-07 17:02:54:098
-4.7846,31.0595,-19.0394,2.7403,-21.8782,16.2534,3.3785,-1.3364,0.3899,1503,2019-08-07 17:02:54:103
-4.5836,25.4407,-15.6691,2.7403,-21.8782,16.2534,1.9607,-0.1796,0.8533,1507,2019-08-07 17:02:54:107
-4.5836,25.4407,-15.6691,2.8651,-12.626,5.4615,1.9607,-0.1796,0.8533,1513,2019-08-07 17:02:54:113
-4.5836,25.4407,-15.6691,2.8651,-12.626,5.4615,1.2352,1.7507,0.6147,1517,2019-08-07 17:02:54:117
-0.4022,21.9988,16.7525,2.8651,-12.626,5.4615,1.2352,1.7507,0.6147,1523,2019-08-07 17:02:54:123
-0.4022,21.9988,16.7525,2.8651,-12.626,5.4615,2.194,0.7174,0.6296,1527,2019-08-07 17:02:54:127
-2.1772,19.5593,-5.7229,1.2336,-11.0268,3.6051,2.194,0.7174,0.6296,1533,2019-08-07 17:02:54:133
-2.1772,19.5593,-5.7229,1.2336,-11.0268,3.6051,2.3559,-0.9572,0.5944,1538,2019-08-07 17:02:54:138
-2.1772,19.5593,-5.7229,1.2336,-11.0268,3.6051,2.3559,-0.9572,0.5944,1543,2019-08-07 17:02:54:143
-6.1816,18.7382,-12.5627,4.4592,-9.8511,8.7826,2.3559,-0.9572,0.5944,1548,2019-08-07 17:02:54:148
-6.1816,18.7382,-12.5627,4.4592,-9.8511,8.7826,1.6027,-1.9468,0.4687,1552,2019-08-07 17:02:54:152
-6.1816,18.7382,-12.5627,4.4592,-9.8511,8.7826,1.6027,-1.9468,0.4687,1558,2019-08-07 17:02:54:158
-4.6889,14.4752,-11.4974,0.9059,-4.2988,5.3989,0.8698,-1.3002,0.7116,1563,2019-08-07 17:02:54:163
-4.6889,14.4752,-11.4974,0.9059,-4.2988,5.3989,0.8698,-1.3002,0.7116,1568,2019-08-07 17:02:54:168
1.478,10.3697,-9.9088,0.9059,-4.2988,5.3989,0.481,1.2032,0.6807,1572,2019-08-07 17:02:54:172
1.478,10.3697,-9.9088,0.9059,-4.2988,5.3989,0.481,1.2032,0.6807,1578,2019-08-07 17:02:54:178
1.478,10.3697,-9.9088,0.5451,-7.0E-4,7.7862,0.122,0.9379,0.392,1583,2019-08-07 17:02:54:183
-3.0479,8.7275,-12.0442,0.5451,-7.0E-4,7.7862,0.122,0.9379,0.392,1587,2019-08-07 17:02:54:187
-3.0479,8.7275,-12.0442,0.5451,-7.0E-4,7.7862,0.122,0.9379,0.392,1593,2019-08-07 17:02:54:193
-4.7319,7.3145,-11.4691,0.5451,-7.0E-4,7.7862,-0.3499,1.0998,0.2397,1598,2019-08-07 17:02:54:198
-4.7319,7.3145,-11.4691,0.5451,-7.0E-4,7.7862,-0.3499,1.0998,0.2397,1602,2019-08-07 17:02:54:202
-4.7319,7.3145,-11.4691,2.4981,2.7916,5.582,-0.8708,1.8871,0.2855,1608,2019-08-07 17:02:54:208
-2.5216,5.0422,-8.9849,2.4981,2.7916,5.582,-1.1584,1.8189,0.1481,1613,2019-08-07 17:02:54:213
-2.5216,5.0422,-8.9849,2.4981,2.7916,5.582,-1.1584,1.8189,0.1481,1618,2019-08-07 17:02:54:218
-1.9236,2.154,-8.3438,0.6868,6.7163,4.3408,-1.2895,1.5046,-0.0628,1623,2019-08-07 17:02:54:223
-1.9236,2.154,-8.3438,0.6868,6.7163,4.3408,-1.2895,1.5046,-0.0628,1627,2019-08-07 17:02:54:227
-1.9236,2.154,-8.3438,0.6868,6.7163,4.3408,-1.4514,1.1637,-0.179,1633,2019-08-07 17:02:54:233
-2.713,0.4879,-8.8058,0.6868,6.7163,4.3408,-1.4514,1.1637,-0.179,1638,2019-08-07 17:02:54:238
-2.713,0.4879,-8.8058,0.6868,6.7163,4.3408,-1.6197,0.94,-0.2109,1643,2019-08-07 17:02:54:243
-2.713,0.4879,-8.8058,0.958,9.9534,3.0164,-1.6197,0.94,-0.2109,1648,2019-08-07 17:02:54:248
-1.7757,-2.0422,-5.0207,0.958,9.9534,3.0164,-1.6197,0.94,-0.2109,1652,2019-08-07 17:02:54:252
-1.7757,-2.0422,-5.0207,0.958,9.9534,3.0164,-1.6943,0.9315,-0.2759,1658,2019-08-07 17:02:54:258
-0.7997,-3.4982,-7.7971,0.958,9.9534,3.0164,-1.6943,0.9315,-0.2759,1663,2019-08-07 17:02:54:263
-0.7997,-3.4982,-7.7971,-0.6991,13.5652,3.2464,-1.9616,0.8719,-0.3654,1668,2019-08-07 17:02:54:268
-0.7997,-3.4982,-7.7971,-0.6991,13.5652,3.2464,-1.9616,0.8719,-0.3654,1672,2019-08-07 17:02:54:272
-0.0342,-6.3481,-4.884,-1.1534,15.4479,1.417,-2.1033,1.0242,-0.4325,1678,2019-08-07 17:02:54:278
-0.0342,-6.3481,-4.884,-1.1534,15.4479,1.417,-2.1033,1.0242,-0.4325,1683,2019-08-07 17:02:54:283
-0.0342,-6.3481,-4.884,-1.1534,15.4479,1.417,-2.1768,0.9592,-0.4847,1688,2019-08-07 17:02:54:288
-0.0055,-8.9451,-3.2483,-1.1534,15.4479,1.417,-2.1768,0.9592,-0.4847,1693,2019-08-07 17:02:54:293
-0.0055,-8.9451,-3.2483,-1.2441,18.9419,-0.3964,-2.1662,0.9262,-0.5017,1697,2019-08-07 17:02:54:297
0.4155,-10.8642,-2.216,-1.2441,18.9419,-0.3964,-2.1662,0.9262,-0.5017,1703,2019-08-07 17:02:54:303
0.4155,-10.8642,-2.216,-1.2441,18.9419,-0.3964,-2.1662,0.9262,-0.5017,1708,2019-08-07 17:02:54:308
0.4155,-10.8642,-2.216,-1.2441,18.9419,-0.3964,-2.1161,0.9454,-0.5071,1713,2019-08-07 17:02:54:313
0.736,-12.3202,-1.6927,-1.9958,21.6379,-1.1055,-2.1161,0.9454,-0.5071,1717,2019-08-07 17:02:54:317
0.736,-12.3202,-1.6927,-1.9958,21.6379,-1.1055,-2.0074,1.0423,-0.4868,1723,2019-08-07 17:02:54:323
0.6355,-13.4325,-0.7264,-1.9162,22.7951,-1.9077,-2.0074,1.0423,-0.4868,1727,2019-08-07 17:02:54:327
0.6355,-13.4325,-0.7264,-1.9162,22.7951,-1.9077,-1.8722,1.038,-0.4389,1733,2019-08-07 17:02:54:333
0.6355,-13.4325,-0.7264,-1.9162,22.7951,-1.9077,-1.8722,1.038,-0.4389,1738,2019-08-07 17:02:54:338
-0.1491,-14.1772,1.442,-1.9162,22.7951,-1.9077,-1.56,0.7472,-0.31,1743,2019-08-07 17:02:54:343
-0.1491,-14.1772,1.442,-0.8204,23.7475,-4.4265,-1.56,0.7472,-0.31,1748,2019-08-07 17:02:54:348
-1.0007,-14.182,2.9692,-0.8204,23.7475,-4.4265,-1.56,0.7472,-0.31,1752,2019-08-07 17:02:54:352
-1.0007,-14.182,2.9692,-0.8204,23.7475,-4.4265,-1.1488,0.2892,-0.1193,1758,2019-08-07 17:02:54:358
-1.0007,-14.182,2.9692,-0.8204,23.7475,-4.4265,-1.1488,0.2892,-0.1193,1762,2019-08-07 17:02:54:362
-0.8332,-14.1724,2.9032,-0.5128,23.6562,-5.0204,-0.7579,-0.0624,0.0011,1768,2019-08-07 17:02:54:368
-0.8332,-14.1724,2.9032,-0.5128,23.6562,-5.0204,-0.7579,-0.0624,0.0011,1773,2019-08-07 17:02:54:373
-0.6801,-13.8765,2.116,-0.6733,23.3721,-4.1745,-0.3456,-0.2744,0.0874,1778,2019-08-07 17:02:54:378
-0.6801,-13.8765,2.116,-0.6733,23.3721,-4.1745,-0.3456,-0.2744,0.0874,1783,2019-08-07 17:02:54:383
-0.6801,-13.8765,2.116,-0.6733,23.3721,-4.1745,-0.0506,-0.3276,0.1641,1788,2019-08-07 17:02:54:388
-0.6801,-13.8765,2.116,-0.6733,23.3721,-4.1745,-0.0506,-0.3276,0.1641,1793,2019-08-07 17:02:54:393
-0.972,-13.2081,1.475,-0.2697,22.2231,-3.3467,0.514,-0.2733,0.343,1798,2019-08-07 17:02:54:398
-0.972,-13.2081,1.475,-0.2697,22.2231,-3.3467,0.514,-0.2733,0.343,1803,2019-08-07 17:02:54:403
-1.4121,-11.69,1.178,-0.2697,22.2231,-3.3467,0.514,-0.2733,0.343,1808,2019-08-07 17:02:54:408
-1.4121,-11.69,1.178,-0.2697,22.2231,-3.3467,0.8677,-0.2349,0.4165,1812,2019-08-07 17:02:54:412
-1.7997,-10.0192,0.6406,0.4628,19.834,-3.0092,0.8677,-0.2349,0.4165,1818,2019-08-07 17:02:54:418
-1.7997,-10.0192,0.6406,0.4628,19.834,-3.0092,1.2789,-0.2019,0.4602,1822,2019-08-07 17:02:54:422
-1.7997,-10.0192,0.6406,0.4628,19.834,-3.0092,1.2789,-0.2019,0.4602,1828,2019-08-07 17:02:54:428
-1.8332,-8.2768,0.3201,0.4628,19.834,-3.0092,1.5495,-0.2456,0.4773,1832,2019-08-07 17:02:54:432
-1.8332,-8.2768,0.3201,0.6022,17.263,-2.244,1.5495,-0.2456,0.4773,1838,2019-08-07 17:02:54:438
-1.8332,-8.2768,0.3201,0.6022,17.263,-2.244,1.5495,-0.2456,0.4773,1843,2019-08-07 17:02:54:443
-1.8092,-7.4079,-0.6133,0.6022,17.263,-2.244,1.7572,-0.2935,0.506,1847,2019-08-07 17:02:54:447
-1.8092,-7.4079,-0.6133,0.509,16.4458,-1.9037,1.7572,-0.2935,0.506,1853,2019-08-07 17:02:54:453
-1.5796,-6.1429,-0.7688,0.509,16.4458,-1.9037,1.9958,-0.4043,0.5326,1857,2019-08-07 17:02:54:457
-1.5796,-6.1429,-0.7688,0.509,16.4458,-1.9037,1.9958,-0.4043,0.5326,1863,2019-08-07 17:02:54:463
-1.5796,-6.1429,-0.7688,0.298,14.5012,-1.4134,2.1279,-0.5822,0.5348,1868,2019-08-07 17:02:54:468
-1.4122,-5.0162,-1.8294,0.298,14.5012,-1.4134,2.1279,-0.5822,0.5348,1872,2019-08-07 17:02:54:472
-1.4122,-5.0162,-1.8294,0.298,14.5012,-1.4134,2.179,-0.6611,0.5167,1878,2019-08-07 17:02:54:478
-0.972,-3.923,-2.3668,0.298,14.5012,-1.4134,2.179,-0.6611,0.5167,1883,2019-08-07 17:02:54:483
-0.972,-3.923,-2.3668,-0.3267,12.6814,-0.8458,2.179,-0.6611,0.5167,1888,2019-08-07 17:02:54:488
-0.972,-3.923,-2.3668,-0.3267,12.6814,-0.8458,2.1908,-0.8635,0.473,1893,2019-08-07 17:02:54:493
-0.5845,-2.9301,-3.385,-0.3267,12.6814,-0.8458,2.1908,-0.8635,0.473,1898,2019-08-07 17:02:54:498
-0.5845,-2.9301,-3.385,-0.3267,12.6814,-0.8458,2.1482,-0.9583,0.441,1902,2019-08-07 17:02:54:502
-0.5845,-2.9301,-3.385,-0.3267,12.6814,-0.8458,2.1482,-0.9583,0.441,1908,2019-08-07 17:02:54:508
-0.2496,-1.9562,-4.5163,-0.8992,10.8728,0.5907,2.0129,-1.0637,0.4059,1913,2019-08-07 17:02:54:513
-0.2496,-1.9562,-4.5163,-0.8992,10.8728,0.5907,2.0129,-1.0637,0.4059,1918,2019-08-07 17:02:54:518
-0.3692,-0.8678,-5.2752,-0.8992,10.8728,0.5907,1.7721,-1.0925,0.3356,1923,2019-08-07 17:02:54:523
-0.3692,-0.8678,-5.2752,-0.8992,10.8728,0.5907,1.7721,-1.0925,0.3356,1928,2019-08-07 17:02:54:528
-0.3692,-0.8678,-5.2752,-0.5163,9.1049,1.1118,1.5537,-1.1063,0.2631,1933,2019-08-07 17:02:54:533
-0.9242,0.4641,-5.6571,-0.5163,9.1049,1.1118,1.5537,-1.1063,0.2631,1937,2019-08-07 17:02:54:537
-0.9242,0.4641,-5.6571,-0.5163,9.1049,1.1118,1.3236,-1.1415,0.1779,1943,2019-08-07 17:02:54:543
-0.9242,0.4641,-5.6571,-0.5163,9.1049,1.1118,1.3236,-1.1415,0.1779,1948,2019-08-07 17:02:54:548
-1.1778,1.9392,-6.9298,-0.0703,6.6479,2.3537,1.0403,-1.1085,0.033,1953,2019-08-07 17:02:54:553
-1.1778,1.9392,-6.9298,-0.0703,6.6479,2.3537,1.0403,-1.1085,0.033,1958,2019-08-07 17:02:54:558
-1.2113,3.3809,-7.9244,-0.086,5.1442,3.2472,0.8741,-1.02,-0.0533,1963,2019-08-07 17:02:54:563
-1.2113,3.3809,-7.9244,-0.086,5.1442,3.2472,0.8741,-1.02,-0.0533,1968,2019-08-07 17:02:54:568
-1.2113,3.3809,-7.9244,-0.086,5.1442,3.2472,0.8741,-1.02,-0.0533,1972,2019-08-07 17:02:54:572
-1.1299,6.3693,-8.8012,-0.086,5.1442,3.2472,0.5268,-0.9146,-0.1832,1978,2019-08-07 17:02:54:578
-1.1299,6.3693,-8.8012,-0.2785,0.9305,4.5101,0.2413,-0.8134,-0.1928,1983,2019-08-07 17:02:54:583
-1.24,8.952,-10.3991,-0.2785,0.9305,4.5101,0.2413,-0.8134,-0.1928,1988,2019-08-07 17:02:54:588
-1.24,8.952,-10.3991,-0.2785,0.9305,4.5101,0.2413,-0.8134,-0.1928,1992,2019-08-07 17:02:54:592
-1.24,8.952,-10.3991,-0.2785,0.9305,4.5101,-0.0047,-0.6057,-0.1981,1997,2019-08-07 17:02:54:597
-2.1585,11.0429,-11.983,0.6528,-2.6351,7.1582,-0.0047,-0.6057,-0.1981,2003,2019-08-07 17:02:54:603
-2.1585,11.0429,-11.983,0.6528,-2.6351,7.1582,-0.7057,-0.1465,-0.2599,2008,2019-08-07 17:02:54:608
-3.0245,12.9858,-11.0968,0.6528,-2.6351,7.1582,-0.7057,-0.1465,-0.2599,2013,2019-08-07 17:02:54:613
-3.0245,12.9858,-11.0968,0.6528,-2.6351,7.1582,-1.2884,0.2402,-0.3643,2018,2019-08-07 17:02:54:618
-3.0245,12.9858,-11.0968,1.887,-5.6042,4.0315,-1.2884,0.2402,-0.3643,2022,2019-08-07 17:02:54:622
-3.7326,14.9097,-6.647,1.887,-5.6042,4.0315,-1.609,0.3541,-0.4421,2028,2019-08-07 17:02:54:628
-3.7326,14.9097,-6.647,2.3407,-7.1386,-3.3642,-1.609,0.3541,-0.4421,2033,2019-08-07 17:02:54:633
-3.7326,14.9097,-6.647,2.3407,-7.1386,-3.3642,-1.396,-0.3031,-0.4889,2037,2019-08-07 17:02:54:637
-3.2637,15.6114,-6.2416,2.3407,-7.1386,-3.3642,-1.396,-0.3031,-0.4889,2043,2019-08-07 17:02:54:643
-3.2637,15.6114,-6.2416,2.3407,-7.1386,-3.3642,-1.3779,-0.7005,-0.5923,2047,2019-08-07 17:02:54:647
-2.9575,18.9913,-6.6658,1.8992,-9.6725,2.483,-1.3779,-0.7005,-0.5923,2053,2019-08-07 17:02:54:653
-2.9575,18.9913,-6.6658,1.8992,-9.6725,2.483,-1.3779,-0.7005,-0.5923,2058,2019-08-07 17:02:54:658
-2.9575,18.9913,-6.6658,1.8992,-9.6725,2.483,-1.5025,-0.5407,-0.6178,2063,2019-08-07 17:02:54:663
-2.3499,20.3948,-10.2577,1.8992,-9.6725,2.483,-1.5025,-0.5407,-0.6178,2067,2019-08-07 17:02:54:667
-2.3499,20.3948,-10.2577,-0.1179,-12.2929,7.3398,-1.9574,0.107,-0.5198,2073,2019-08-07 17:02:54:673
-1.5366,21.0822,-12.1103,-0.1179,-12.2929,7.3398,-1.9574,0.107,-0.5198,2078,2019-08-07 17:02:54:678
-1.5366,21.0822,-12.1103,-0.1179,-12.2929,7.3398,-2.4559,1.0221,-0.4857,2083,2019-08-07 17:02:54:683
-1.5366,21.0822,-12.1103,-0.1179,-12.2929,7.3398,-2.4559,1.0221,-0.4857,2088,2019-08-07 17:02:54:688
-1.5366,21.0822,-12.1103,-0.1179,-12.2929,7.3398,-2.4559,1.0221,-0.4857,2092,2019-08-07 17:02:54:692
-2.9097,21.9033,-10.4416,1.0358,-12.9741,6.837,-2.8628,1.5973,-0.376,2098,2019-08-07 17:02:54:698
-2.9097,21.9033,-10.4416,1.0358,-12.9741,6.837,-2.8628,1.5973,-0.376,2102,2019-08-07 17:02:54:702
-2.8092,22.8677,2.1301,1.0358,-12.9741,6.837,-3.2932,1.9265,-0.2152,2108,2019-08-07 17:02:54:708
-2.8092,22.8677,2.1301,1.3116,-13.6231,-9.4712,-3.2932,1.9265,-0.2152,2113,2019-08-07 17:02:54:713
-4.0101,22.0227,0.1079,1.3116,-13.6231,-9.4712,-2.7286,0.4777,-0.1896,2117,2019-08-07 17:02:54:717
-4.0101,22.0227,0.1079,1.3116,-13.6231,-9.4712,-2.7286,0.4777,-0.1896,2123,2019-08-07 17:02:54:723
-4.0101,22.0227,0.1079,1.3116,-13.6231,-9.4712,-2.4282,-0.0187,-0.0714,2128,2019-08-07 17:02:54:728
-3.8379,22.3473,-2.249,2.0369,-13.055,-0.3291,-2.4282,-0.0187,-0.0714,2132,2019-08-07 17:02:54:732
-3.8379,22.3473,-2.249,2.0369,-13.055,-0.3291,-2.5624,5.0E-4,0.1129,2138,2019-08-07 17:02:54:738
-3.8379,22.3473,-2.249,2.0369,-13.055,-0.3291,-2.5624,5.0E-4,0.1129,2142,2019-08-07 17:02:54:742
-1.0295,21.4832,-1.0281,-0.759,-12.1238,-1.3037,-2.3813,0.0239,0.147,2148,2019-08-07 17:02:54:748
-1.0295,21.4832,-1.0281,-0.759,-12.1238,-1.3037,-2.3813,0.0239,0.147,2152,2019-08-07 17:02:54:752
-0.8334,19.4878,-2.6779,-0.759,-12.1238,-1.3037,-2.3813,0.0239,0.147,2158,2019-08-07 17:02:54:758
-0.8334,19.4878,-2.6779,-0.7105,-9.3178,1.0454,-1.9808,0.3893,0.2173,2163,2019-08-07 17:02:54:763
-0.8334,19.4878,-2.6779,-0.7105,-9.3178,1.0454,-1.9808,0.3893,0.2173,2168,2019-08-07 17:02:54:768
-0.819,17.6069,-2.3385,-0.7105,-9.3178,1.0454,-1.7315,1.0583,0.3686,2173,2019-08-07 17:02:54:773
-0.819,17.6069,-2.3385,-0.7105,-9.3178,1.0454,-1.7315,1.0583,0.3686,2178,2019-08-07 17:02:54:778
-0.2736,18.3278,-3.5689,-0.7467,-10.2159,-1.4905,-1.266,1.1819,0.473,2183,2019-08-07 17:02:54:783
-0.2736,18.3278,-3.5689,-0.7467,-10.2159,-1.4905,-1.266,1.1819,0.473,2188,2019-08-07 17:02:54:788
-0.2736,18.3278,-3.5689,-0.7467,-10.2159,-1.4905,-1.266,1.1819,0.473,2193,2019-08-07 17:02:54:793
-3.5413,18.0747,4.8877,1.9796,-8.5064,-6.3859,-1.2586,0.5384,0.5007,2198,2019-08-07 17:02:54:798
-3.5413,18.0747,4.8877,1.9796,-8.5064,-6.3859,-1.2586,0.5384,0.5007,2202,2019-08-07 17:02:54:802
-4.0006,14.0647,9.1301,1.9796,-8.5064,-6.3859,-1.5164,0.7504,0.2301,2208,2019-08-07 17:02:54:808
-4.0006,14.0647,9.1301,1.9639,-5.0822,-8.019,-1.5164,0.7504,0.2301,2213,2019-08-07 17:02:54:813
-4.0006,14.0647,9.1301,1.9639,-5.0822,-8.019,-1.2799,-0.6749,0.228,2217,2019-08-07 17:02:54:817
-5.1583,19.3064,23.4695,1.9639,-5.0822,-8.019,-1.2799,-0.6749,0.228,2223,2019-08-07 17:02:54:823
-5.1583,19.3064,23.4695,1.9639,-5.0822,-8.019,-1.4599,-1.8105,0.6488,2227,2019-08-07 17:02:54:827
0.8459,14.2652,8.0601,-4.1148,-3.6628,-6.4685,-1.4599,-1.8105,0.6488,2233,2019-08-07 17:02:54:833
0.8459,14.2652,8.0601,-4.1148,-3.6628,-6.4685,-1.4599,-1.8105,0.6488,2238,2019-08-07 17:02:54:838
0.8459,14.2652,8.0601,-4.1148,-3.6628,-6.4685,-2.0756,-0.84,0.6413,2243,2019-08-07 17:02:54:843
2.7739,11.4678,1.7106,-4.1148,-3.6628,-6.4685,-2.0756,-0.84,0.6413,2248,2019-08-07 17:02:54:848
2.7739,11.4678,1.7106,-4.1148,-3.6628,-6.4685,-1.8711,0.0399,0.212,2252,2019-08-07 17:02:54:852
2.7739,11.4678,1.7106,-0.2381,-3.7044,-0.1143,-1.8711,0.0399,0.212,2258,2019-08-07 17:02:54:858
-2.8141,14.1698,-1.014,-0.2381,-3.7044,-0.1143,-1.8221,0.0708,0.2802,2263,2019-08-07 17:02:54:863
-2.8141,14.1698,-1.014,-0.2381,-3.7044,-0.1143,-1.8221,0.0708,0.2802,2267,2019-08-07 17:02:54:867
-2.9433,10.6658,-1.5278,1.7102,-0.9339,1.4514,-1.2767,0.5778,0.3974,2273,2019-08-07 17:02:54:873
-2.9433,10.6658,-1.5278,1.7102,-0.9339,1.4514,-1.2767,0.5778,0.3974,2278,2019-08-07 17:02:54:878
-2.9433,10.6658,-1.5278,1.7102,-0.9339,1.4514,-0.9347,0.6396,0.016,2282,2019-08-07 17:02:54:882
-6.6176,11.5394,14.0844,1.7102,-0.9339,1.4514,-0.9347,0.6396,0.016,2288,2019-08-07 17:02:54:888
-6.6176,11.5394,14.0844,1.7102,-0.9339,1.4514,-0.9347,0.6396,0.016,2292,2019-08-07 17:02:54:892
-4.412,11.6969,6.679,5.379,-2.2943,-7.4921,-0.9283,-0.3085,0.1374,2298,2019-08-07 17:02:54:898
-4.412,11.6969,6.679,5.379,-2.2943,-7.4921,-0.9283,-0.3085,0.1374,2302,2019-08-07 17:02:54:902
-4.412,11.6969,6.679,5.379,-2.2943,-7.4921,-0.5832,-0.7878,0.4144,2308,2019-08-07 17:02:54:908
-0.2115,12.1218,5.0386,5.379,-2.2943,-7.4921,-0.5832,-0.7878,0.4144,2312,2019-08-07 17:02:54:912
-0.2115,12.1218,5.0386,-1.3907,-2.877,-2.9403,-0.2103,-0.9892,0.3388,2318,2019-08-07 17:02:54:918
-0.2115,12.1218,5.0386,-1.3907,-2.877,-2.9403,-0.2103,-0.9892,0.3388,2323,2019-08-07 17:02:54:923
1.0564,11.4344,1.3288,-2.1675,-1.6942,-0.9673,-0.1411,-0.5641,0.3025,2328,2019-08-07 17:02:54:928
1.0564,11.4344,1.3288,-2.1675,-1.6942,-0.9673,-0.1411,-0.5641,0.3025,2332,2019-08-07 17:02:54:932
1.0564,11.4344,1.3288,-2.1675,-1.6942,-0.9673,-0.1411,-0.5641,0.3025,2337,2019-08-07 17:02:54:937
1.7883,8.6369,2.0311,-2.1675,-1.6942,-0.9673,-0.1613,0.1198,0.2141,2343,2019-08-07 17:02:54:943
1.7883,8.6369,2.0311,-1.826,1.057,-1.6508,-0.1613,0.1198,0.2141,2348,2019-08-07 17:02:54:948
-0.4507,8.8231,1.8284,-1.826,1.057,-1.6508,-0.0676,0.238,0.229,2352,2019-08-07 17:02:54:952
-0.4507,8.8231,1.8284,-1.826,1.057,-1.6508,-0.0676,0.238,0.229,2358,2019-08-07 17:02:54:958
-0.4507,8.8231,1.8284,-1.826,1.057,-1.6508,-0.025,0.1411,0.2493,2362,2019-08-07 17:02:54:962
-0.6899,8.9042,2.413,-0.2991,0.8463,-1.9834,-0.025,0.1411,0.2493,2368,2019-08-07 17:02:54:968
-0.6899,8.9042,2.413,-0.2991,0.8463,-1.9834,0.1572,-0.1401,0.2045,2373,2019-08-07 17:02:54:973
-0.6851,9.5917,2.4695,-0.2817,0.1611,-2.0403,0.1572,-0.1401,0.2045,2378,2019-08-07 17:02:54:978
-0.6851,9.5917,2.4695,-0.2817,0.1611,-2.0403,0.2499,-0.1742,0.212,2383,2019-08-07 17:02:54:983
-0.6851,9.5917,2.4695,-0.2817,0.1611,-2.0403,0.2499,-0.1742,0.212,2388,2019-08-07 17:02:54:988
-0.1541,10.1263,1.1167,-0.2817,0.1611,-2.0403,0.22,0.0079,0.196,2393,2019-08-07 17:02:54:993
-0.1541,10.1263,1.1167,-0.8278,-0.377,-0.5813,0.22,0.0079,0.196,2398,2019-08-07 17:02:54:998
-0.3598,10.0643,1.3806,-0.8278,-0.377,-0.5813,0.22,0.0079,0.196,2402,2019-08-07 17:02:55:002
-0.3598,10.0643,1.3806,-0.8278,-0.377,-0.5813,0.2083,0.2007,0.1587,2408,2019-08-07 17:02:55:008
-0.3598,10.0643,1.3806,-0.8278,-0.377,-0.5813,0.2083,0.2007,0.1587,2412,2019-08-07 17:02:55:012
-0.8287,9.9974,1.522,-0.0796,-0.1384,-1.0949,0.2264,0.2189,0.1651,2418,2019-08-07 17:02:55:018
-0.8287,9.9974,1.522,-0.0796,-0.1384,-1.0949,0.2264,0.2189,0.1651,2422,2019-08-07 17:02:55:022
-0.4938,9.6871,1.489,-0.0796,-0.1384,-1.0949,0.2722,0.0591,0.1566,2428,2019-08-07 17:02:55:028
-0.4938,9.6871,1.489,-0.0796,-0.1384,-1.0949,0.2722,0.0591,0.1566,2433,2019-08-07 17:02:55:033
-0.4938,9.6871,1.489,-0.9349,-0.2818,-0.8158,0.2957,-0.1135,0.1438,2437,2019-08-07 17:02:55:037
-0.4938,9.6871,1.489,-0.9349,-0.2818,-0.8158,0.2957,-0.1135,0.1438,2443,2019-08-07 17:02:55:043
0.2191,10.3746,0.4002,-0.9349,-0.2818,-0.8158,0.2957,-0.1135,0.1438,2447,2019-08-07 17:02:55:047
0.2191,10.3746,0.4002,-1.0784,-0.8521,0.787,0.253,-0.1114,0.1534,2453,2019-08-07 17:02:55:053
0.2191,10.3746,0.4002,-1.0784,-0.8521,0.787,0.253,-0.1114,0.1534,2457,2019-08-07 17:02:55:057
-0.5751,10.4891,-1.3628,-1.0784,-0.8521,0.787,0.1007,0.1997,0.1491,2463,2019-08-07 17:02:55:063
-0.5751,10.4891,-1.3628,0.7719,-0.6192,0.6188,0.1007,0.1997,0.1491,2468,2019-08-07 17:02:55:068
-2.3549,10.4414,0.6453,0.7719,-0.6192,0.6188,-0.0452,0.3339,0.163,2472,2019-08-07 17:02:55:072
-2.3549,10.4414,0.6453,0.7719,-0.6192,0.6188,-0.0452,0.3339,0.163,2478,2019-08-07 17:02:55:078
-2.3549,10.4414,0.6453,0.7719,-0.6192,0.6188,-0.0335,0.1219,0.1864,2483,2019-08-07 17:02:55:083
-2.7185,10.4414,1.3618,1.9413,-0.6654,-1.114,-0.0335,0.1219,0.1864,2488,2019-08-07 17:02:55:088
-2.7185,10.4414,1.3618,1.9413,-0.6654,-1.114,0.0166,-0.1593,0.229,2493,2019-08-07 17:02:55:093
-2.7185,10.4414,1.3618,1.9413,-0.6654,-1.114,0.0166,-0.1593,0.229,2498,2019-08-07 17:02:55:098
-1.2593,9.8495,0.5604,1.9413,-0.6654,-1.114,0.0091,-0.2861,0.2514,2503,2019-08-07 17:02:55:103
-1.2593,9.8495,0.5604,-0.4412,0.0444,0.0968,0.0091,-0.2861,0.2514,2507,2019-08-07 17:02:55:107
-0.0202,9.6967,0.0938,-0.4412,0.0444,0.0968,0.0091,-0.2861,0.2514,2513,2019-08-07 17:02:55:113
-0.0202,9.6967,0.0938,-1.2418,-0.1494,0.0712,-0.0399,-0.1742,0.2152,2518,2019-08-07 17:02:55:118
-0.0202,9.6967,0.0938,-1.2418,-0.1494,0.0712,-0.0399,-0.1742,0.2152,2522,2019-08-07 17:02:55:122
0.7979,10.0404,0.2964,-1.2418,-0.1494,0.0712,-0.09,-0.0517,0.1843,2528,2019-08-07 17:02:55:128
0.7979,10.0404,0.2964,-1.2418,-0.1494,0.0712,-0.09,-0.0517,0.1843,2532,2019-08-07 17:02:55:132
0.7979,10.0404,0.2964,-1.2474,-0.1562,-0.286,-0.1283,0.0527,0.1481,2538,2019-08-07 17:02:55:138
0.5204,9.8876,0.5981,-1.2474,-0.1562,-0.286,-0.1283,0.0527,0.1481,2542,2019-08-07 17:02:55:142
0.5204,9.8876,0.5981,-1.2474,-0.1562,-0.286,-0.1507,0.0346,0.1215,2548,2019-08-07 17:02:55:148
-0.2355,9.8924,0.5981,-1.2474,-0.1562,-0.286,-0.1507,0.0346,0.1215,2552,2019-08-07 17:02:55:152
-0.2355,9.8924,0.5981,-0.1454,0.0597,-0.2688,-0.1507,0.0346,0.1215,2558,2019-08-07 17:02:55:158
-0.2355,9.8924,0.5981,-0.1454,0.0597,-0.2688,-0.1741,-0.0368,0.1193,2563,2019-08-07 17:02:55:163
-0.867,9.7969,0.4991,-0.1454,0.0597,-0.2688,-0.1741,-0.0368,0.1193,2567,2019-08-07 17:02:55:167
-0.867,9.7969,0.4991,-0.1454,0.0597,-0.2688,-0.2231,-0.1955,0.1364,2573,2019-08-07 17:02:55:173
-0.4603,9.1334,0.5038,-0.2153,0.3463,-0.227,-0.2231,-0.1955,0.1364,2578,2019-08-07 17:02:55:178
-0.4603,9.1334,0.5038,-0.2153,0.3463,-0.227,-0.2359,-0.3937,0.131,2582,2019-08-07 17:02:55:182
-0.4603,9.1334,0.5038,-0.2153,0.3463,-0.227,-0.2359,-0.3937,0.131,2588,2019-08-07 17:02:55:188
-1.3454,10.3221,1.4749,-0.2153,0.3463,-0.227,-0.2359,-0.3937,0.131,2592,2019-08-07 17:02:55:192
-1.3454,10.3221,1.4749,-0.7804,-2.4324,-2.5433,-0.237,-0.5162,0.195,2598,2019-08-07 17:02:55:198
0.1712,12.0454,1.0601,-0.7804,-2.4324,-2.5433,-0.237,-0.5162,0.195,2602,2019-08-07 17:02:55:202
0.1712,12.0454,1.0601,-0.7804,-2.4324,-2.5433,-0.0932,-0.1881,-0.0011,2608,2019-08-07 17:02:55:208
0.1712,12.0454,1.0601,-0.7804,-2.4324,-2.5433,-0.0932,-0.1881,-0.0011,2612,2019-08-07 17:02:55:212
-1.2067,9.6012,-0.3399,0.2593,0.5793,0.1544,-0.2679,0.1496,0.1023,2618,2019-08-07 17:02:55:218
-1.2067,9.6012,-0.3399,0.2593,0.5793,0.1544,-0.2679,0.1496,0.1023,2623,2019-08-07 17:02:55:223
-0.0537,8.952,2.1207,0.2593,0.5793,0.1544,-0.2402,0.0793,0.0969,2627,2019-08-07 17:02:55:227
-0.0537,8.952,2.1207,0.2593,0.5793,0.1544,-0.2402,0.0793,0.0969,2633,2019-08-07 17:02:55:233
-0.0537,8.952,2.1207,-0.2678,0.0716,-1.4257,-0.0697,-0.3447,0.0213,2637,2019-08-07 17:02:55:237
-0.1255,9.7301,1.357,-0.2678,0.0716,-1.4257,-0.0697,-0.3447,0.0213,2643,2019-08-07 17:02:55:243
-0.1255,9.7301,1.357,-0.2678,0.0716,-1.4257,-0.0985,-0.2381,0.0437,2648,2019-08-07 17:02:55:248
-0.1255,9.7301,1.357,-0.2678,0.0716,-1.4257,-0.0985,-0.2381,0.0437,2653,2019-08-07 17:02:55:253
1.272,9.4055,-2.2678,-0.2678,0.0716,-1.4257,-0.0985,-0.2381,0.0437,2657,2019-08-07 17:02:55:257
1.272,9.4055,-2.2678,-1.4278,-0.1049,1.5049,-0.2977,0.188,-0.0415,2663,2019-08-07 17:02:55:263
1.272,9.4055,-2.2678,-1.4278,-0.1049,1.5049,-0.2977,0.188,-0.0415,2667,2019-08-07 17:02:55:267
-0.3594,9.8303,3.3982,-1.4278,-0.1049,1.5049,-0.1358,0.0101,0.0341,2673,2019-08-07 17:02:55:273
-0.3594,9.8303,3.3982,-1.4278,-0.1049,1.5049,-0.1358,0.0101,0.0341,2678,2019-08-07 17:02:55:278
-0.503,9.2479,0.848,0.064,0.6607,-0.892,-0.0655,-0.3148,0.0021,2683,2019-08-07 17:02:55:283
-0.503,9.2479,0.848,0.064,0.6607,-0.892,-0.0655,-0.3148,0.0021,2687,2019-08-07 17:02:55:287
-0.5078,9.8446,-0.6651,0.064,0.6607,-0.892,-0.1241,-0.2776,-0.0756,2693,2019-08-07 17:02:55:293
-0.5078,9.8446,-0.6651,0.064,0.6607,-0.892,-0.1241,-0.2776,-0.0756,2697,2019-08-07 17:02:55:297
-0.5078,9.8446,-0.6651,-0.1543,0.0146,-1.3863,-0.0772,0.0111,-0.0213,2703,2019-08-07 17:02:55:303
0.229,10.1358,1.0932,-0.1543,0.0146,-1.3863,-0.0772,0.0111,-0.0213,2708,2019-08-07 17:02:55:308
0.229,10.1358,1.0932,-0.6038,-0.3538,-0.3032,-0.0772,0.0111,-0.0213,2712,2019-08-07 17:02:55:312
0.229,10.1358,1.0932,-0.6038,-0.3538,-0.3032,-0.1262,-0.0517,-0.0575,2718,2019-08-07 17:02:55:318
-0.3307,9.6728,0.8528,-0.6038,-0.3538,-0.3032,-0.1262,-0.0517,-0.0575,2723,2019-08-07 17:02:55:323
-0.3307,9.6728,0.8528,-0.6038,-0.3538,-0.3032,-0.1145,0.1986,-0.049,2728,2019-08-07 17:02:55:328
-0.8474,9.7348,1.376,0.309,0.0403,-0.7493,-0.1145,0.1986,-0.049,2733,2019-08-07 17:02:55:333
-0.8474,9.7348,1.376,0.309,0.0403,-0.7493,-0.1145,0.1986,-0.049,2738,2019-08-07 17:02:55:338
-0.7996,9.6298,2.2433,0.309,0.0403,-0.7493,-0.0964,0.091,-0.0202,2743,2019-08-07 17:02:55:343
-0.7996,9.6298,2.2433,0.309,0.0403,-0.7493,-0.0964,0.091,-0.0202,2748,2019-08-07 17:02:55:348
-0.7996,9.6298,2.2433,0.2439,0.0237,-0.9853,-0.009,-0.1178,-0.0064,2753,2019-08-07 17:02:55:353
-0.7996,9.6298,2.2433,0.2439,0.0237,-0.9853,-0.009,-0.1178,-0.0064,2758,2019-08-07 17:02:55:358
-0.3068,9.7539,1.1403,0.2439,0.0237,-0.9853,0.0144,-0.1231,-0.0032,2763,2019-08-07 17:02:55:363
-0.3068,9.7539,1.1403,0.2439,0.0237,-0.9853,0.0144,-0.1231,-0.0032,2768,2019-08-07 17:02:55:368
0.2195,9.7635,0.6265,-0.7533,0.0093,0.0319,-0.0388,0.0271,-0.0287,2773,2019-08-07 17:02:55:373
0.2195,9.7635,0.6265,-0.7533,0.0093,0.0319,-0.0388,0.0271,-0.0287,2778,2019-08-07 17:02:55:378
0.2195,9.7635,0.6265,-0.7533,0.0093,0.0319,-0.0612,0.1507,-0.0394,2782,2019-08-07 17:02:55:382
-0.125,9.8685,1.1167,-0.7533,0.0093,0.0319,-0.0612,0.1507,-0.0394,2788,2019-08-07 17:02:55:388
-0.125,9.8685,1.1167,-0.2031,-0.1398,-0.5688,-0.0633,0.1805,-0.049,2792,2019-08-07 17:02:55:392
-0.5795,9.9449,1.3949,-0.2031,-0.1398,-0.5688,-0.0633,0.1805,-0.049,2798,2019-08-07 17:02:55:398
-0.5795,9.9449,1.3949,-0.2031,-0.1398,-0.5688,-0.0452,0.1411,-0.0469,2802,2019-08-07 17:02:55:402
-0.5795,9.9449,1.3949,-0.2031,-0.1398,-0.5688,-0.0452,0.1411,-0.0469,2808,2019-08-07 17:02:55:408
-0.7039,9.921,1.6305,0.1388,-0.1128,-0.9313,-0.0154,0.0687,-0.0373,2813,2019-08-07 17:02:55:413
-0.7039,9.921,1.6305,0.1388,-0.1128,-0.9313,-0.0154,0.0687,-0.0373,2818,2019-08-07 17:02:55:418
-0.5604,9.8065,1.4137,0.1388,-0.1128,-0.9313,0.0166,0.026,-0.0373,2823,2019-08-07 17:02:55:423
-0.5604,9.8065,1.4137,0.1388,-0.1128,-0.9313,0.0166,0.026,-0.0373,2828,2019-08-07 17:02:55:428
-0.5604,9.8065,1.4137,-0.1083,-0.0563,-0.5211,0.0176,0.0335,-0.0298,2832,2019-08-07 17:02:55:432
-0.4503,9.773,1.1733,-0.1083,-0.0563,-0.5211,0.0176,0.0335,-0.0298,2838,2019-08-07 17:02:55:438
-0.4503,9.773,1.1733,-0.1083,-0.0563,-0.5211,0.0176,0.0335,-0.0298,2842,2019-08-07 17:02:55:442
-0.4503,9.773,1.1733,-0.1968,0.0151,-0.4648,0.0219,0.0441,-0.0256,2848,2019-08-07 17:02:55:448
-0.4408,9.7826,1.1497,-0.1968,0.0151,-0.4648,0.0368,0.0559,-0.0319,2853,2019-08-07 17:02:55:453
-0.4408,9.7826,1.1497,-0.1968,0.0151,-0.4648,0.0368,0.0559,-0.0319,2858,2019-08-07 17:02:55:458
-0.4742,9.6489,1.4467,-0.0682,0.1248,-0.778,0.0475,0.0292,-0.0266,2863,2019-08-07 17:02:55:463
-0.4742,9.6489,1.4467,-0.0682,0.1248,-0.778,0.0475,0.0292,-0.0266,2868,2019-08-07 17:02:55:468
-0.4742,9.6489,1.4467,-0.0682,0.1248,-0.778,0.0475,0.0292,-0.0266,2873,2019-08-07 17:02:55:473
-0.3546,9.8446,1.2063,-0.0682,0.1248,-0.778,0.0602,-0.008,-0.0213,2878,2019-08-07 17:02:55:478
-0.3546,9.8446,1.2063,-0.1678,-0.2426,-0.3318,0.0602,-0.008,-0.0213,2883,2019-08-07 17:02:55:483
-0.3546,9.8446,1.2063,-0.1678,-0.2426,-0.3318,0.0602,-0.008,-0.0213,2887,2019-08-07 17:02:55:487
-0.4647,10.0499,1.0602,-0.1678,-0.2426,-0.3318,0.0506,0.0473,-0.0287,2893,2019-08-07 17:02:55:493
-0.4647,10.0499,1.0602,-0.1678,-0.2426,-0.3318,0.0506,0.0473,-0.0287,2897,2019-08-07 17:02:55:497
-0.7326,10.007,1.1262,0.1475,-0.2376,-0.4523,0.0357,0.0836,-0.0224,2903,2019-08-07 17:02:55:503
-0.7326,10.007,1.1262,0.1475,-0.2376,-0.4523,0.0357,0.0836,-0.0224,2907,2019-08-07 17:02:55:507
-0.7326,10.007,1.1262,0.1475,-0.2376,-0.4523,0.0389,0.0687,-0.0192,2913,2019-08-07 17:02:55:513
-0.5891,9.9449,1.3194,0.1475,-0.2376,-0.4523,0.0389,0.0687,-0.0192,2918,2019-08-07 17:02:55:518
-0.5891,9.9449,1.3194,0.0366,-0.1087,-0.4485,0.0709,5.0E-4,-0.0266,2923,2019-08-07 17:02:55:523
-0.6226,9.8494,0.9942,0.0366,-0.1087,-0.4485,0.0709,5.0E-4,-0.0266,2928,2019-08-07 17:02:55:528
-0.6226,9.8494,0.9942,0.0366,-0.1087,-0.4485,0.0645,-0.0017,-0.0202,2932,2019-08-07 17:02:55:532
-0.6226,9.8494,0.9942,0.0366,-0.1087,-0.4485,0.0645,-0.0017,-0.0202,2938,2019-08-07 17:02:55:538
-0.3594,9.8781,0.9235,0.0366,-0.1087,-0.4485,0.0645,-0.0017,-0.0202,2943,2019-08-07 17:02:55:543
-0.3594,9.8781,0.9235,-0.173,-0.113,-0.2938,0.056,0.0282,-0.0309,2948,2019-08-07 17:02:55:548
-0.5891,9.8685,0.9376,-0.173,-0.113,-0.2938,0.056,0.0282,-0.0309,2952,2019-08-07 17:02:55:552
-0.5891,9.8685,0.9376,-0.173,-0.113,-0.2938,0.0538,0.0335,-0.0245,2958,2019-08-07 17:02:55:558
-0.5891,9.8685,0.9376,-0.0584,-0.0793,-0.3921,0.0538,0.0335,-0.0245,2962,2019-08-07 17:02:55:562
-0.5173,9.8637,1.0507,-0.0584,-0.0793,-0.3921,0.0475,0.0271,-0.0234,2968,2019-08-07 17:02:55:568
-0.5173,9.8637,1.0507,-0.0584,-0.0793,-0.3921,0.0475,0.0271,-0.0234,2972,2019-08-07 17:02:55:572
-0.6321,9.8637,1.0036,-0.0584,-0.0793,-0.3921,0.0506,0.009,-0.0234,2978,2019-08-07 17:02:55:578
-0.6321,9.8637,1.0036,-0.1201,0.0212,-0.2202,0.0506,0.009,-0.0234,2982,2019-08-07 17:02:55:582
-0.6321,9.8637,1.0036,-0.1201,0.0212,-0.2202,0.0432,0.0101,-0.0192,2988,2019-08-07 17:02:55:588
-0.5795,9.7778,0.7066,-0.1201,0.0212,-0.2202,0.0432,0.0101,-0.0192,2992,2019-08-07 17:02:55:592
-0.5795,9.7778,0.7066,0.036,-0.0217,-0.1251,0.024,0.0101,-0.0149,2998,2019-08-07 17:02:55:598
-0.5795,9.7778,0.7066,0.036,-0.0217,-0.1251,0.024,0.0101,-0.0149,3003,2019-08-07 17:02:55:603
-0.6752,9.9544,0.8716,0.036,-0.0217,-0.1251,0.024,0.0101,-0.0149,3007,2019-08-07 17:02:55:607
-0.6752,9.9544,0.8716,0.036,-0.0217,-0.1251,0.0134,0.0047,-0.0117,3013,2019-08-07 17:02:55:613
-0.6752,9.9544,0.8716,0.2527,-0.0981,-0.2221,0.0134,0.0047,-0.0117,3017,2019-08-07 17:02:55:617
-0.9048,9.8303,0.8669,0.2527,-0.0981,-0.2221,-5.0E-4,-0.0475,0.0107,3024,2019-08-07 17:02:55:624
-0.9048,9.8303,0.8669,0.2527,-0.0981,-0.2221,-5.0E-4,-0.0475,0.0107,3027,2019-08-07 17:02:55:627
-0.7565,9.9115,0.9235,0.148,-0.1412,-0.2853,0.0059,-0.0943,0.0075,3033,2019-08-07 17:02:55:633
-0.7565,9.9115,0.9235,0.148,-0.1412,-0.2853,0.0059,-0.0943,0.0075,3037,2019-08-07 17:02:55:637
-0.7565,9.9115,0.9235,0.148,-0.1412,-0.2853,-5.0E-4,-0.1018,0.0128,3043,2019-08-07 17:02:55:643
-0.6273,9.8112,0.8433,0.148,-0.1412,-0.2853,-5.0E-4,-0.1018,0.0128,3048,2019-08-07 17:02:55:648
-0.6273,9.8112,0.8433,0.148,-0.1412,-0.2853,-5.0E-4,-0.1018,0.0128,3052,2019-08-07 17:02:55:652
-0.6273,9.8112,0.8433,-0.1015,-0.041,-0.3755,-0.0175,-0.0954,0.0139,3058,2019-08-07 17:02:55:658
-0.0724,9.9067,1.3194,-0.1015,-0.041,-0.3755,-0.0175,-0.0954,0.0139,3062,2019-08-07 17:02:55:662
-0.0724,9.9067,1.3194,-0.1015,-0.041,-0.3755,-5.0E-4,-0.0677,-0.0032,3068,2019-08-07 17:02:55:668
-1.7038,10.2361,0.8952,-0.1015,-0.041,-0.3755,-5.0E-4,-0.0677,-0.0032,3073,2019-08-07 17:02:55:673
-1.7038,10.2361,0.8952,1.6229,-0.2279,-4.2365,-0.3563,-1.0882,0.0192,3078,2019-08-07 17:02:55:678
-1.7038,10.2361,0.8952,1.6229,-0.2279,-4.2365,-0.3563,-1.0882,0.0192,3082,2019-08-07 17:02:55:682
-0.3211,9.859,-1.0987,1.6229,-0.2279,-4.2365,0.1082,-0.2722,-0.0351,3088,2019-08-07 17:02:55:688
-0.3211,9.859,-1.0987,1.6229,-0.2279,-4.2365,0.1082,-0.2722,-0.0351,3093,2019-08-07 17:02:55:693
0.2673,9.8733,0.3578,-0.7462,-0.3236,-0.2993,-0.0719,-0.2989,0.0203,3098,2019-08-07 17:02:55:698
0.2673,9.8733,0.3578,-0.7462,-0.3236,-0.2993,-0.0719,-0.2989,0.0203,3103,2019-08-07 17:02:55:703
0.2673,9.8733,0.3578,-0.7462,-0.3236,-0.2993,-0.0719,-0.2989,0.0203,3108,2019-08-07 17:02:55:708
-0.2015,9.859,0.6784,-0.7462,-0.3236,-0.2993,-0.0527,0.0101,0.0053,3113,2019-08-07 17:02:55:713
-0.2015,9.859,0.6784,-0.4227,-0.133,-0.7106,-0.0527,0.0101,0.0053,3118,2019-08-07 17:02:55:718
-0.5077,10.007,1.145,-0.4227,-0.133,-0.7106,-0.0186,0.0665,-0.017,3122,2019-08-07 17:02:55:722
-0.5077,10.007,1.145,-0.4227,-0.133,-0.7106,-0.0186,0.0665,-0.017,3128,2019-08-07 17:02:55:728
-0.5077,10.007,1.145,-0.4227,-0.133,-0.7106,-0.0165,0.075,-0.0053,3132,2019-08-07 17:02:55:732
-0.4455,10.0117,0.7868,-0.1424,-0.2434,-0.1016,-0.0165,0.075,-0.0053,3138,2019-08-07 17:02:55:738
-0.4455,10.0117,0.7868,-0.1424,-0.2434,-0.1016,-0.0175,0.1603,-0.0117,3143,2019-08-07 17:02:55:743
-0.3977,9.964,0.7868,-0.1424,-0.2434,-0.1016,-0.0175,0.1603,-0.0117,3148,2019-08-07 17:02:55:748
-0.3977,9.964,0.7868,-0.1424,-0.2434,-0.1016,-0.025,0.2966,-0.0192,3153,2019-08-07 17:02:55:753
-0.3977,9.964,0.7868,-0.1609,-0.2819,-0.0765,-0.025,0.2966,-0.0192,3157,2019-08-07 17:02:55:757
-0.3785,9.9879,0.7821,-0.1609,-0.2819,-0.0765,-0.041,0.3936,-0.0266,3163,2019-08-07 17:02:55:763
-0.3785,9.9879,0.7821,-0.1609,-0.2819,-0.0765,-0.041,0.3936,-0.0266,3167,2019-08-07 17:02:55:767
-1.1584,9.9735,1.6306,-0.1609,-0.2819,-0.0765,-0.0964,0.2412,-0.017,3173,2019-08-07 17:02:55:773
-1.1584,9.9735,1.6306,0.6373,-0.1734,-1.1884,-0.0964,0.2412,-0.017,3177,2019-08-07 17:02:55:777
-1.1584,9.9735,1.6306,0.6373,-0.1734,-1.1884,-0.0261,0.0026,0.0043,3183,2019-08-07 17:02:55:783
-0.9957,9.7205,1.673,0.6373,-0.1734,-1.1884,-0.0261,0.0026,0.0043,3187,2019-08-07 17:02:55:787
-0.9957,9.7205,1.673,0.6373,-0.1734,-1.1884,0.0198,-0.1103,0.0064,3193,2019-08-07 17:02:55:793
-0.6321,9.9162,0.5699,0.1425,-0.1172,-0.0403,0.0198,-0.1103,0.0064,3198,2019-08-07 17:02:55:798
-0.6321,9.9162,0.5699,0.1425,-0.1172,-0.0403,-0.0335,-0.0816,0.0192,3203,2019-08-07 17:02:55:803
-0.6321,9.9162,0.5699,0.1425,-0.1172,-0.0403,-0.0335,-0.0816,0.0192,3208,2019-08-07 17:02:55:808