ACCELEROMETER X (m/s²),ACCELEROMETER Y (m/s²),ACCELEROMETER Z (m/s²),LINEAR ACCELERATION X (m/s²),LINEAR ACCELERATION Y (m/s²),LINEAR ACCELERATION Z (m/s²),GYROSCOPE X (rad/s),GYROSCOPE Y (rad/s),GYROSCOPE Z (rad/s),Time since start in ms ,YYYY-MO-DD HH-MI-SS_SSS
-0.3893,9.8882,0.7619,0.1934,-0.0437,-0.6185,0.0954,-0.0123,-0.016,2,2019-08-07 17:00:58:348
-0.1453,9.8405,0.6158,-0.193,-0.0913,-0.3876,0.1092,-0.0187,-0.0267,8,2019-08-07 17:00:58:354
-0.1453,9.8405,0.6158,-0.193,-0.0913,-0.3876,0.1092,-0.0187,-0.0267,12,2019-08-07 17:00:58:358
-0.1453,9.8405,0.6158,-0.193,-0.0913,-0.3876,0.1114,0.0143,-0.033,18,2019-08-07 17:00:58:364
-0.0544,9.8309,0.4933,-0.193,-0.0913,-0.3876,0.1114,0.0143,-0.033,23,2019-08-07 17:00:58:369
-0.0544,9.8309,0.4933,-0.2879,-0.0052,-0.2136,0.1114,0.0143,-0.033,27,2019-08-07 17:00:58:373
-0.0544,9.8309,0.4933,-0.2879,-0.0052,-0.2136,0.105,0.0474,-0.0458,33,2019-08-07 17:00:58:379
-0.1836,9.8405,0.4744,-0.2879,-0.0052,-0.2136,0.105,0.0474,-0.0458,37,2019-08-07 17:00:58:383
-0.1836,9.8405,0.4744,-0.2879,-0.0052,-0.2136,0.1029,0.074,-0.0512,43,2019-08-07 17:00:58:389
-0.2123,9.9646,0.6064,-0.1192,-0.1866,-0.4154,0.1029,0.074,-0.0512,47,2019-08-07 17:00:58:393
-0.2123,9.9646,0.6064,-0.1192,-0.1866,-0.4154,0.1071,0.0601,-0.0565,53,2019-08-07 17:00:58:399
-0.2123,9.9646,0.6064,-0.1192,-0.1866,-0.4154,0.1071,0.0601,-0.0565,59,2019-08-07 17:00:58:405
-0.3032,10.0935,0.2481,-0.1192,-0.1866,-0.4154,0.1082,0.0548,-0.0661,63,2019-08-07 17:00:58:409
-0.3032,10.0935,0.2481,-0.0019,-0.1629,-0.3078,0.1082,0.0548,-0.0661,67,2019-08-07 17:00:58:413
-0.3032,10.0935,0.2481,-0.0019,-0.1629,-0.3078,0.1082,0.0548,-0.0661,73,2019-08-07 17:00:58:419
-0.3941,9.9073,0.5263,-0.0019,-0.1629,-0.3078,0.0943,0.0793,-0.0639,78,2019-08-07 17:00:58:424
-0.3941,9.9073,0.5263,0.0536,-0.0676,-0.4104,0.0943,0.0793,-0.0639,83,2019-08-07 17:00:58:429
-0.4802,9.998,0.5592,0.0536,-0.0676,-0.4104,0.0975,0.0633,-0.0618,88,2019-08-07 17:00:58:434
-0.4802,9.998,0.5592,0.0536,-0.0676,-0.4104,0.0975,0.0633,-0.0618,93,2019-08-07 17:00:58:439
-0.4802,9.998,0.5592,0.0308,-0.087,-0.3991,0.1071,0.0431,-0.0618,98,2019-08-07 17:00:58:444
-0.3894,9.8882,0.4603,0.0308,-0.087,-0.3991,0.1071,0.0431,-0.0618,102,2019-08-07 17:00:58:448
-0.3894,9.8882,0.4603,0.0308,-0.087,-0.3991,0.1007,0.041,-0.0576,108,2019-08-07 17:00:58:454
-0.3654,10.0744,0.1869,0.0308,-0.087,-0.3991,0.1007,0.041,-0.0576,113,2019-08-07 17:00:58:459
-0.3654,10.0744,0.1869,-0.0478,-0.3356,-0.0027,0.0869,0.0399,-0.0607,118,2019-08-07 17:00:58:464
-0.3654,10.0744,0.1869,-0.0478,-0.3356,-0.0027,0.0869,0.0399,-0.0607,122,2019-08-07 17:00:58:468
-0.4946,10.0982,0.0831,0.0559,-0.2212,-0.0855,0.0592,0.0783,-0.0629,128,2019-08-07 17:00:58:474
-0.4946,10.0982,0.0831,0.0559,-0.2212,-0.0855,0.0592,0.0783,-0.0629,133,2019-08-07 17:00:58:479
-0.4994,9.9264,0.5592,0.0559,-0.2212,-0.0855,0.0592,0.0783,-0.0629,137,2019-08-07 17:00:58:483
-0.4994,9.9264,0.5592,0.0559,-0.2212,-0.0855,0.0496,0.0463,-0.0661,143,2019-08-07 17:00:58:489
-0.4994,9.9264,0.5592,0.0474,-0.2074,-0.5832,0.0496,0.0463,-0.0661,148,2019-08-07 17:00:58:494
-0.442,10.1221,0.6252,0.0474,-0.2074,-0.5832,0.0656,-0.0187,-0.0586,153,2019-08-07 17:00:58:499
-0.442,10.1221,0.6252,0.0474,-0.2074,-0.5832,0.0656,-0.0187,-0.0586,158,2019-08-07 17:00:58:504
-0.3176,10.0457,0.267,0.0474,-0.2074,-0.5832,0.0645,-0.0123,-0.0586,162,2019-08-07 17:00:58:508
-0.3176,10.0457,0.267,-0.0403,-0.1983,-0.2964,0.0645,-0.0123,-0.0586,168,2019-08-07 17:00:58:514
-0.3176,10.0457,0.267,-0.0403,-0.1983,-0.2964,0.0528,0.0569,-0.0597,172,2019-08-07 17:00:58:518
-0.4324,9.9359,0.4885,-0.0403,-0.1983,-0.2964,0.0528,0.0569,-0.0597,178,2019-08-07 17:00:58:524
-0.4324,9.9359,0.4885,-0.0403,-0.1983,-0.2964,0.0496,0.0836,-0.0576,183,2019-08-07 17:00:58:529
-0.686,9.8882,0.564,0.2302,-0.089,-0.5064,0.0496,0.0836,-0.0576,188,2019-08-07 17:00:58:534
-0.686,9.8882,0.564,0.2302,-0.089,-0.5064,0.0496,0.0836,-0.0576,193,2019-08-07 17:00:58:539
-0.686,9.8882,0.564,0.2302,-0.089,-0.5064,0.0602,0.0697,-0.0448,198,2019-08-07 17:00:58:544
-0.6621,9.8691,0.6488,0.2302,-0.089,-0.5064,0.0602,0.0697,-0.0448,203,2019-08-07 17:00:58:549
-0.6621,9.8691,0.6488,0.1389,-0.0273,-0.5252,0.0805,0.0229,-0.032,208,2019-08-07 17:00:58:554
-0.6621,9.8691,0.6488,0.1389,-0.0273,-0.5252,0.0805,0.0229,-0.032,213,2019-08-07 17:00:58:559
-0.5042,9.8309,0.5262,0.1389,-0.0273,-0.5252,0.0922,-0.0166,-0.0181,217,2019-08-07 17:00:58:563
-0.5042,9.8309,0.5262,0.1389,-0.0273,-0.5252,0.0922,-0.0166,-0.0181,223,2019-08-07 17:00:58:569
-0.4899,9.8405,0.4037,0.1389,-0.0273,-0.5252,0.0911,-0.0251,-0.0149,228,2019-08-07 17:00:58:574
-0.4899,9.8405,0.4037,0.0055,-0.0036,-0.4546,0.0911,-0.0251,-0.0149,233,2019-08-07 17:00:58:579
-0.4899,9.8405,0.4037,0.0055,-0.0036,-0.4546,0.0901,-0.0357,-0.0139,237,2019-08-07 17:00:58:583
-0.2937,9.7927,0.3707,0.0055,-0.0036,-0.4546,0.0901,-0.0357,-0.0139,243,2019-08-07 17:00:58:589
-0.2937,9.7927,0.3707,0.0055,-0.0036,-0.4546,0.0943,-0.0549,-0.0192,248,2019-08-07 17:00:58:594
-0.1885,9.8739,0.036,-0.2404,-0.1134,-0.1027,0.0943,-0.0549,-0.0192,253,2019-08-07 17:00:58:599
-0.1885,9.8739,0.036,-0.2404,-0.1134,-0.1027,0.0943,-0.0549,-0.0192,258,2019-08-07 17:00:58:604
-0.1885,9.8739,0.036,-0.2404,-0.1134,-0.1027,0.0794,-0.024,-0.033,262,2019-08-07 17:00:58:608
-0.1885,9.8834,-0.1007,-0.2404,-0.1134,-0.1027,0.0794,-0.024,-0.033,268,2019-08-07 17:00:58:614
-0.1885,9.8834,-0.1007,-0.2441,-0.1088,0.1689,0.0411,0.0293,-0.0373,273,2019-08-07 17:00:58:619
-0.4086,9.9312,-0.195,-0.2441,-0.1088,0.1689,0.0411,0.0293,-0.0373,278,2019-08-07 17:00:58:624
-0.4086,9.9312,-0.195,-0.2441,-0.1088,0.1689,0.0176,0.0569,-0.0384,283,2019-08-07 17:00:58:629
-0.4086,9.9312,-0.195,-0.2441,-0.1088,0.1689,0.0176,0.0569,-0.0384,287,2019-08-07 17:00:58:633
-0.7483,9.8787,0.0407,0.2647,-0.0806,-0.045,0.0176,0.0569,-0.0384,293,2019-08-07 17:00:58:639
-0.7483,9.8787,0.0407,0.2647,-0.0806,-0.045,-0.0015,0.0335,-0.0288,297,2019-08-07 17:00:58:643
-0.8726,9.8882,0.4602,0.2647,-0.0806,-0.045,-0.0015,0.0335,-0.0288,303,2019-08-07 17:00:58:649
-0.8726,9.8882,0.4602,0.2647,-0.0806,-0.045,0.007,-0.0773,-0.0117,308,2019-08-07 17:00:58:654
-0.8726,9.8882,0.4602,0.2765,-0.1955,-0.4897,0.007,-0.0773,-0.0117,313,2019-08-07 17:00:58:659
-0.6334,10.0696,0.366,0.2765,-0.1955,-0.4897,0.0144,-0.1518,-0.0064,318,2019-08-07 17:00:58:664
-0.6334,10.0696,0.366,0.2765,-0.1955,-0.4897,0.0144,-0.1518,-0.0064,323,2019-08-07 17:00:58:669
-0.4277,10.1937,0.1915,0.2765,-0.1955,-0.4897,0.0027,-0.138,-0.0054,328,2019-08-07 17:00:58:674
-0.4277,10.1937,0.1915,-0.0743,-0.3627,-0.1912,0.0027,-0.138,-0.0054,334,2019-08-07 17:00:58:680
-0.4277,10.1937,0.1915,-0.0743,-0.3627,-0.1912,0.0027,-0.138,-0.0054,337,2019-08-07 17:00:58:683
-0.1981,10.1364,0.2198,-0.0743,-0.3627,-0.1912,-0.0143,-0.0837,-0.0107,343,2019-08-07 17:00:58:689
-0.1981,10.1364,0.2198,-0.0743,-0.3627,-0.1912,-0.0143,-0.0837,-0.0107,347,2019-08-07 17:00:58:693
-0.4899,10.0362,0.3801,-0.0744,-0.334,-0.3321,-0.0239,-0.0719,-0.0149,353,2019-08-07 17:00:58:699
-0.4899,10.0362,0.3801,-0.0744,-0.334,-0.3321,-0.0239,-0.0719,-0.0149,358,2019-08-07 17:00:58:704
-0.4899,10.0362,0.3801,-0.0744,-0.334,-0.3321,-0.025,-0.0581,-0.0032,362,2019-08-07 17:00:58:708
-0.6383,9.8166,0.4979,-0.0744,-0.334,-0.3321,-0.025,-0.0581,-0.0032,368,2019-08-07 17:00:58:714
-0.6383,9.8166,0.4979,0.1675,-0.0907,-0.5302,-0.025,-0.0581,-0.0032,372,2019-08-07 17:00:58:718
-0.7292,9.9312,0.6346,0.1675,-0.0907,-0.5302,-0.0154,-0.0762,0.0,378,2019-08-07 17:00:58:724
-0.7292,9.9312,0.6346,0.2337,-0.1433,-0.6677,0.0112,-0.1348,0.0064,383,2019-08-07 17:00:58:729
-0.7292,9.9312,0.6346,0.2337,-0.1433,-0.6677,0.0112,-0.1348,0.0064,388,2019-08-07 17:00:58:734
-0.5809,9.7927,0.4838,0.2337,-0.1433,-0.6677,0.0112,-0.1348,0.0064,393,2019-08-07 17:00:58:739
-0.5809,9.7927,0.4838,0.2337,-0.1433,-0.6677,0.0272,-0.1646,0.0106,397,2019-08-07 17:00:58:743
-0.5809,9.7927,0.4838,0.0722,-0.0573,-0.313,0.0272,-0.1646,0.0106,403,2019-08-07 17:00:58:749
-0.533,9.9025,0.3942,0.0722,-0.0573,-0.313,0.0294,-0.1636,0.0149,407,2019-08-07 17:00:58:753
-0.533,9.9025,0.3942,0.0722,-0.0573,-0.313,0.0294,-0.1636,0.0149,413,2019-08-07 17:00:58:759
-0.4134,9.788,0.5404,0.0722,-0.0573,-0.313,0.0379,-0.1604,0.017,418,2019-08-07 17:00:58:764
-0.4134,9.788,0.5404,-0.1253,0.0336,-0.5456,0.0379,-0.1604,0.017,423,2019-08-07 17:00:58:769
-0.4134,9.788,0.5404,-0.1253,0.0336,-0.5456,0.056,-0.1721,0.0106,428,2019-08-07 17:00:58:774
-0.2316,9.6782,0.6016,-0.1253,0.0336,-0.5456,0.056,-0.1721,0.0106,433,2019-08-07 17:00:58:779
-0.2316,9.6782,0.6016,-0.1253,0.0336,-0.5456,0.0741,-0.1955,0.0053,438,2019-08-07 17:00:58:784
-0.1072,9.745,0.5451,-0.3795,0.0529,-0.5338,0.0741,-0.1955,0.0053,442,2019-08-07 17:00:58:788
-0.1072,9.745,0.5451,-0.3795,0.0529,-0.5338,0.0879,-0.1625,0.0,448,2019-08-07 17:00:58:794
-0.1072,9.745,0.5451,-0.3795,0.0529,-0.5338,0.0879,-0.1625,0.0,453,2019-08-07 17:00:58:799
-0.1838,9.8452,0.3754,-0.3795,0.0529,-0.5338,0.0794,-0.105,-0.0032,458,2019-08-07 17:00:58:804
-0.1838,9.8452,0.3754,-0.176,-0.2095,-0.4796,0.0794,-0.105,-0.0032,463,2019-08-07 17:00:58:809
-0.423,10.0267,0.6158,-0.176,-0.2095,-0.4796,0.0805,-0.0869,-0.0064,468,2019-08-07 17:00:58:814
-0.423,10.0267,0.6158,-0.176,-0.2095,-0.4796,0.0805,-0.0869,-0.0064,473,2019-08-07 17:00:58:819
-0.6096,10.0601,0.5356,-0.176,-0.2095,-0.4796,0.0879,-0.1231,-0.0043,478,2019-08-07 17:00:58:824
-0.6096,10.0601,0.5356,0.1434,-0.1475,-0.3163,0.0879,-0.1231,-0.0043,483,2019-08-07 17:00:58:829
-0.6096,10.0601,0.5356,0.1434,-0.1475,-0.3163,0.0879,-0.1231,-0.0043,488,2019-08-07 17:00:58:834
-0.6096,10.0601,0.5356,0.1434,-0.1475,-0.3163,0.0421,-0.1337,-0.0149,493,2019-08-07 17:00:58:839
-0.3991,9.9312,-0.1102,0.1434,-0.1475,-0.3163,0.0421,-0.1337,-0.0149,498,2019-08-07 17:00:58:844
-0.3991,9.9312,-0.1102,-0.2417,-0.0856,-0.1299,0.0134,-0.0996,-0.0245,502,2019-08-07 17:00:58:848
-0.2029,9.8643,0.1821,-0.2417,-0.0856,-0.1299,0.0134,-0.0996,-0.0245,508,2019-08-07 17:00:58:854
-0.2029,9.8643,0.1821,-0.2417,-0.0856,-0.1299,0.0187,-0.0719,-0.032,512,2019-08-07 17:00:58:858
-0.2939,9.8309,0.1727,-0.2417,-0.0856,-0.1299,0.0187,-0.0719,-0.032,519,2019-08-07 17:00:58:865
-0.2939,9.8309,0.1727,-0.2036,-0.0381,-0.1828,0.0198,-0.0485,-0.0437,523,2019-08-07 17:00:58:869
-0.2939,9.8309,0.1727,-0.2036,-0.0381,-0.1828,0.0198,-0.0485,-0.0437,528,2019-08-07 17:00:58:874
-0.1982,9.8548,0.2528,-0.2036,-0.0381,-0.1828,0.0198,0.0069,-0.0426,533,2019-08-07 17:00:58:879
-0.1982,9.8548,0.2528,-0.2036,-0.0381,-0.1828,0.0198,0.0069,-0.0426,538,2019-08-07 17:00:58:884
-0.1982,9.8548,0.2528,-0.2036,-0.0381,-0.1828,0.0198,0.0069,-0.0426,542,2019-08-07 17:00:58:888
-0.3465,9.9264,0.1585,-0.1535,-0.1292,-0.1804,0.0144,0.0484,-0.0565,548,2019-08-07 17:00:58:894
-0.3465,9.9264,0.1585,-0.1535,-0.1292,-0.1804,0.0144,0.0484,-0.0565,553,2019-08-07 17:00:58:899
-0.3465,9.9264,0.1585,-0.1535,-0.1292,-0.1804,0.0144,0.0484,-0.0565,558,2019-08-07 17:00:58:904
-0.4183,10.041,-0.0489,-0.0539,-0.3111,0.0534,0.0134,0.0271,-0.0565,563,2019-08-07 17:00:58:909
-0.4183,10.041,-0.0489,-0.0539,-0.3111,0.0534,0.0038,0.0058,-0.0533,568,2019-08-07 17:00:58:914
-0.4183,10.041,-0.0489,-0.0539,-0.3111,0.0534,0.0038,0.0058,-0.0533,572,2019-08-07 17:00:58:918
-0.5857,10.0505,-0.0347,-0.0539,-0.3111,0.0534,0.0038,0.0058,-0.0533,578,2019-08-07 17:00:58:924
-0.5857,10.0505,-0.0347,-0.0539,-0.3111,0.0534,-0.0143,-0.0261,-0.0512,583,2019-08-07 17:00:58:929
-0.6192,9.9741,-0.1667,0.0884,-0.1589,0.1576,-0.0143,-0.0261,-0.0512,587,2019-08-07 17:00:58:933
-0.6192,9.9741,-0.1667,0.0884,-0.1589,0.1576,-0.0324,-0.04,-0.049,593,2019-08-07 17:00:58:939
-0.624,10.1078,-0.1997,0.0884,-0.1589,0.1576,-0.0324,-0.04,-0.049,598,2019-08-07 17:00:58:944
-0.624,10.1078,-0.1997,0.0884,-0.1589,0.1576,-0.0633,-0.04,-0.049,603,2019-08-07 17:00:58:949
-0.624,10.1078,-0.1997,0.0876,-0.2645,0.1839,-0.0633,-0.04,-0.049,608,2019-08-07 17:00:58:954
-0.734,10.0076,-0.162,0.0876,-0.2645,0.1839,-0.09,-0.0112,-0.0458,613,2019-08-07 17:00:58:959
-0.734,10.0076,-0.162,0.0876,-0.2645,0.1839,-0.09,-0.0112,-0.0458,618,2019-08-07 17:00:58:964
-0.734,10.0076,-0.162,0.0876,-0.2645,0.1839,-0.1017,-0.0038,-0.0394,623,2019-08-07 17:00:58:969
-0.8154,9.893,0.2622,0.2731,-0.098,-0.2602,-0.1017,-0.0038,-0.0394,628,2019-08-07 17:00:58:974
-0.8154,9.893,0.2622,0.2731,-0.098,-0.2602,-0.0985,-0.0432,-0.0309,633,2019-08-07 17:00:58:979
-0.6049,9.9025,0.5828,0.2731,-0.098,-0.2602,-0.0985,-0.0432,-0.0309,638,2019-08-07 17:00:58:984
-0.6049,9.9025,0.5828,0.2731,-0.098,-0.2602,-0.0985,-0.0432,-0.0309,642,2019-08-07 17:00:58:988
-0.6049,9.9025,0.5828,-0.0494,-0.2321,-0.2463,-0.0932,-0.0794,-0.0224,649,2019-08-07 17:00:58:995
-0.4327,10.146,0.0595,-0.0494,-0.2321,-0.2463,-0.0932,-0.0794,-0.0224,653,2019-08-07 17:00:58:999
-0.4327,10.146,0.0595,-0.0494,-0.2321,-0.2463,-0.107,-0.056,-0.0256,657,2019-08-07 17:00:59:003
-0.2939,10.1078,0.3282,-0.0494,-0.2321,-0.2463,-0.107,-0.056,-0.0256,663,2019-08-07 17:00:59:009
-0.2939,10.1078,0.3282,-0.1822,-0.304,-0.3088,-0.1123,-0.0634,-0.0267,668,2019-08-07 17:00:59:014
-0.2939,10.1078,0.3282,-0.1822,-0.304,-0.3088,-0.1123,-0.0634,-0.0267,673,2019-08-07 17:00:59:019
-0.4614,9.9312,0.5168,-0.1822,-0.304,-0.3088,-0.0974,-0.0954,-0.0299,678,2019-08-07 17:00:59:024
-0.4614,9.9312,0.5168,-0.1822,-0.304,-0.3088,-0.0974,-0.0954,-0.0299,683,2019-08-07 17:00:59:029
-0.5331,9.702,0.4885,-0.0292,0.13,-0.4208,-0.0921,-0.1167,-0.0245,688,2019-08-07 17:00:59:034
-0.5331,9.702,0.4885,-0.0292,0.13,-0.4208,-0.0921,-0.1167,-0.0245,693,2019-08-07 17:00:59:039
-0.5331,9.702,0.4885,-0.0292,0.13,-0.4208,-0.0868,-0.1231,-0.0224,698,2019-08-07 17:00:59:044
-0.5571,9.7832,0.5073,-0.0292,0.13,-0.4208,-0.0868,-0.1231,-0.0224,703,2019-08-07 17:00:59:049
-0.5571,9.7832,0.5073,0.0765,-0.0327,-0.3283,-0.0793,-0.1135,-0.016,708,2019-08-07 17:00:59:054
-0.5571,9.7832,0.5073,0.0765,-0.0327,-0.3283,-0.0793,-0.1135,-0.016,712,2019-08-07 17:00:59:058
-0.7102,9.8118,0.3565,0.0765,-0.0327,-0.3283,-0.0814,-0.0709,-0.0096,718,2019-08-07 17:00:59:064
-0.7102,9.8118,0.3565,0.0765,-0.0327,-0.3283,-0.0814,-0.0709,-0.0096,723,2019-08-07 17:00:59:069
-0.8537,9.9216,0.5639,0.2877,-0.1286,-0.4506,-0.0782,-0.0336,-0.0107,728,2019-08-07 17:00:59:074
-0.8537,9.9216,0.5639,0.2877,-0.1286,-0.4506,-0.0782,-0.0336,-0.0107,733,2019-08-07 17:00:59:079
-0.8537,9.9216,0.5639,0.2877,-0.1286,-0.4506,-0.0644,-0.0783,0.0,738,2019-08-07 17:00:59:084
-0.6145,9.9503,0.512,0.2877,-0.1286,-0.4506,-0.0644,-0.0783,0.0,742,2019-08-07 17:00:59:088
-0.6145,9.9503,0.512,-0.0484,-0.234,-0.3763,-0.0452,-0.0996,-0.0043,748,2019-08-07 17:00:59:094
-0.3466,10.084,0.644,-0.0484,-0.234,-0.3763,-0.0452,-0.0996,-0.0043,753,2019-08-07 17:00:59:099
-0.3466,10.084,0.644,-0.0484,-0.234,-0.3763,-0.0452,-0.0996,-0.0043,758,2019-08-07 17:00:59:104
-0.3466,10.084,0.644,-0.0484,-0.234,-0.3763,-0.026,-0.0943,-0.0117,762,2019-08-07 17:00:59:108
-0.1265,9.9216,0.7147,-0.4398,-0.129,-0.5716,-0.026,-0.0943,-0.0117,768,2019-08-07 17:00:59:114
-0.1265,9.9216,0.7147,-0.4398,-0.129,-0.5716,-0.0165,-0.0719,-0.0181,772,2019-08-07 17:00:59:118
-0.1265,9.9216,0.7147,-0.4398,-0.129,-0.5716,-0.0165,-0.0719,-0.0181,778,2019-08-07 17:00:59:124
-0.2557,9.8262,0.677,-0.4398,-0.129,-0.5716,-0.0047,-0.0411,-0.0277,783,2019-08-07 17:00:59:129
-0.2557,9.8262,0.677,-0.2839,0.0283,-0.5413,-0.0047,-0.0411,-0.0277,788,2019-08-07 17:00:59:134
-0.3992,9.8405,0.6252,-0.2839,0.0283,-0.5413,0.0049,-0.0112,-0.0362,793,2019-08-07 17:00:59:139
-0.3992,9.8405,0.6252,-0.2839,0.0283,-0.5413,0.0049,-0.0112,-0.0362,798,2019-08-07 17:00:59:144
-0.3992,9.8405,0.6252,-0.2839,0.0283,-0.5413,0.0187,-0.0134,-0.0362,802,2019-08-07 17:00:59:148
-0.6384,9.9169,0.6582,0.0587,-0.0724,-0.4503,0.0187,-0.0134,-0.0362,808,2019-08-07 17:00:59:154
-0.6384,9.9169,0.6582,0.0587,-0.0724,-0.4503,0.0304,-0.0357,-0.0341,813,2019-08-07 17:00:59:159
-0.7006,9.8357,0.5592,0.0587,-0.0724,-0.4503,0.0304,-0.0357,-0.0341,818,2019-08-07 17:00:59:164
-0.7006,9.8357,0.5592,0.0587,-0.0724,-0.4503,0.0411,-0.0464,-0.0352,822,2019-08-07 17:00:59:168
-0.7006,9.8357,0.5592,-0.0632,-0.0011,-0.2466,0.0411,-0.0464,-0.0352,828,2019-08-07 17:00:59:174
-0.4758,9.8166,0.3989,-0.0632,-0.0011,-0.2466,0.0443,-0.0336,-0.0362,833,2019-08-07 17:00:59:179
-0.4758,9.8166,0.3989,-0.0632,-0.0011,-0.2466,0.0443,-0.0336,-0.0362,838,2019-08-07 17:00:59:184
-0.4758,9.8166,0.3989,-0.0632,-0.0011,-0.2466,0.0443,-0.0336,-0.0362,843,2019-08-07 17:00:59:189
-0.3323,9.9312,0.3282,-0.2318,-0.1637,-0.2061,0.0389,0.0207,-0.0469,848,2019-08-07 17:00:59:194
-0.3323,9.9312,0.3282,-0.2318,-0.1637,-0.2061,0.0389,0.0207,-0.0469,853,2019-08-07 17:00:59:199
-0.4519,9.9073,0.4225,-0.2318,-0.1637,-0.2061,0.0294,0.0889,-0.0544,857,2019-08-07 17:00:59:203
-0.4519,9.9073,0.4225,-0.2318,-0.1637,-0.2061,0.0294,0.0889,-0.0544,863,2019-08-07 17:00:59:209
-0.4519,9.9073,0.4225,-0.0213,-0.0974,-0.3902,0.0283,0.1177,-0.0576,867,2019-08-07 17:00:59:213
-0.6289,9.8405,0.545,-0.0213,-0.0974,-0.3902,0.0283,0.1177,-0.0576,873,2019-08-07 17:00:59:219
-0.6289,9.8405,0.545,-0.0213,-0.0974,-0.3902,0.0336,0.0974,-0.0565,878,2019-08-07 17:00:59:224
-0.715,9.8787,0.4272,-0.0213,-0.0974,-0.3902,0.0336,0.0974,-0.0565,883,2019-08-07 17:00:59:229
-0.715,9.8787,0.4272,-0.0045,-0.0408,-0.2633,0.0379,0.0506,-0.0554,888,2019-08-07 17:00:59:234
-0.715,9.8787,0.4272,-0.0045,-0.0408,-0.2633,0.0379,0.0506,-0.0554,892,2019-08-07 17:00:59:238
-0.5859,9.8739,0.5026,-0.0045,-0.0408,-0.2633,0.0379,0.0218,-0.0565,898,2019-08-07 17:00:59:244
-0.5859,9.8739,0.5026,-0.0045,-0.0408,-0.2633,0.0379,0.0218,-0.0565,903,2019-08-07 17:00:59:249
-0.5859,9.8739,0.5026,-0.0045,-0.0408,-0.2633,0.0379,0.0218,-0.0565,907,2019-08-07 17:00:59:253
-0.5088,9.9359,0.4697,-0.1112,-0.1463,-0.3437,0.0421,-0.0166,-0.0522,913,2019-08-07 17:00:59:259
-0.5088,9.9359,0.4697,-0.1112,-0.1463,-0.3437,0.04,-0.0166,-0.0512,918,2019-08-07 17:00:59:264
-0.4657,9.9455,0.3,-0.1112,-0.1463,-0.3437,0.04,-0.0166,-0.0512,923,2019-08-07 17:00:59:269
-0.4657,9.9455,0.3,-0.0294,-0.185,-0.2222,0.0283,-0.0091,-0.0544,928,2019-08-07 17:00:59:274
-0.6284,9.8834,0.3377,-0.0294,-0.185,-0.2222,0.0283,-0.0091,-0.0544,934,2019-08-07 17:00:59:280
-0.6284,9.8834,0.3377,-0.0294,-0.185,-0.2222,0.0283,-0.0091,-0.0544,938,2019-08-07 17:00:59:284
-0.6284,9.8834,0.3377,-0.0294,-0.185,-0.2222,0.023,-0.0016,-0.0554,943,2019-08-07 17:00:59:289
-0.7336,9.955,0.4556,-0.0294,-0.185,-0.2222,0.023,-0.0016,-0.0554,947,2019-08-07 17:00:59:293
-0.7336,9.955,0.4556,0.1033,-0.1332,-0.3192,0.0272,-0.0144,-0.0522,953,2019-08-07 17:00:59:299
-0.7336,9.955,0.4556,0.1033,-0.1332,-0.3192,0.0272,-0.0144,-0.0522,957,2019-08-07 17:00:59:303
-0.8676,9.9837,0.3754,0.1033,-0.1332,-0.3192,0.0272,-0.0251,-0.0448,963,2019-08-07 17:00:59:309
-0.8676,9.9837,0.3754,0.1033,-0.1332,-0.3192,0.0272,-0.0251,-0.0448,968,2019-08-07 17:00:59:314
-0.8676,9.9837,0.3754,0.1407,-0.1434,-0.2232,0.0219,-0.0368,-0.0384,972,2019-08-07 17:00:59:318
-0.7719,9.9407,0.4179,0.1407,-0.1434,-0.2232,0.0219,-0.0368,-0.0384,978,2019-08-07 17:00:59:324
-0.7719,9.9407,0.4179,0.1407,-0.1434,-0.2232,0.0187,-0.0464,-0.033,984,2019-08-07 17:00:59:330
-0.8006,9.893,0.3283,0.1407,-0.1434,-0.2232,0.0187,-0.0464,-0.033,987,2019-08-07 17:00:59:333
-0.8006,9.893,0.3283,0.0992,-0.1296,-0.1776,0.0187,-0.0464,-0.033,993,2019-08-07 17:00:59:339
-0.8006,9.893,0.3283,0.0992,-0.1296,-0.1776,0.0166,-0.0602,-0.033,997,2019-08-07 17:00:59:343
-0.5853,9.9073,0.399,0.0992,-0.1296,-0.1776,0.0166,-0.0602,-0.033,1002,2019-08-07 17:00:59:348
-0.5853,9.9073,0.399,0.0992,-0.1296,-0.1776,0.0208,-0.0656,-0.0341,1008,2019-08-07 17:00:59:354
-0.4513,9.8691,0.366,-0.2176,-0.087,-0.3009,0.0208,-0.0656,-0.0341,1012,2019-08-07 17:00:59:358
-0.4513,9.8691,0.366,-0.2176,-0.087,-0.3009,0.024,-0.0528,-0.0426,1018,2019-08-07 17:00:59:364
-0.4513,9.8691,0.366,-0.2176,-0.087,-0.3009,0.024,-0.0528,-0.0426,1023,2019-08-07 17:00:59:369
-0.4561,9.7497,0.3943,-0.2176,-0.087,-0.3009,0.0144,0.0016,-0.049,1028,2019-08-07 17:00:59:374
-0.4561,9.7497,0.3943,-0.2053,0.0128,-0.3822,0.0144,0.0016,-0.049,1033,2019-08-07 17:00:59:379
-0.4561,9.7497,0.3943,-0.2053,0.0128,-0.3822,0.0144,0.0016,-0.049,1038,2019-08-07 17:00:59:384
-0.5422,9.7497,0.6064,-0.2053,0.0128,-0.3822,0.023,0.0111,-0.0512,1043,2019-08-07 17:00:59:389
-0.5422,9.7497,0.6064,-0.2053,0.0128,-0.3822,0.023,0.0111,-0.0512,1047,2019-08-07 17:00:59:393
-0.6188,9.8213,0.5357,-0.0373,-0.0212,-0.4118,0.0368,0.0058,-0.048,1053,2019-08-07 17:00:59:399
-0.6188,9.8213,0.5357,-0.0373,-0.0212,-0.4118,0.0368,0.0058,-0.048,1058,2019-08-07 17:00:59:404
-0.6188,9.8213,0.5357,-0.0373,-0.0212,-0.4118,0.0485,0.0111,-0.049,1062,2019-08-07 17:00:59:408
-0.7097,9.7641,0.432,-0.0373,-0.0212,-0.4118,0.0485,0.0111,-0.049,1068,2019-08-07 17:00:59:414
-0.7097,9.7641,0.432,0.0297,-0.0409,-0.2155,0.0496,0.0399,-0.049,1073,2019-08-07 17:00:59:419
-0.7097,9.7641,0.432,0.0297,-0.0409,-0.2155,0.0496,0.0399,-0.049,1078,2019-08-07 17:00:59:424
-0.7193,9.8452,0.2812,0.0297,-0.0409,-0.2155,0.0496,0.0399,-0.049,1083,2019-08-07 17:00:59:429
-0.7193,9.8452,0.2812,0.0297,-0.0409,-0.2155,0.0411,0.0527,-0.0469,1088,2019-08-07 17:00:59:434
-0.7193,9.8452,0.2812,0.02,-0.1943,-0.1722,0.0411,0.0527,-0.0469,1093,2019-08-07 17:00:59:439
-0.6427,9.9693,0.3283,0.02,-0.1943,-0.1722,0.0411,0.0378,-0.0501,1099,2019-08-07 17:00:59:445
-0.6427,9.9693,0.3283,0.02,-0.1943,-0.1722,0.0411,0.0378,-0.0501,1103,2019-08-07 17:00:59:449
-0.6858,9.8213,0.3849,0.02,-0.1943,-0.1722,0.0539,-0.0176,-0.0501,1108,2019-08-07 17:00:59:454
-0.6858,9.8213,0.3849,-0.095,0.0342,-0.2032,0.0539,-0.0176,-0.0501,1113,2019-08-07 17:00:59:459
-0.6858,9.8213,0.3849,-0.095,0.0342,-0.2032,0.0549,-0.0304,-0.049,1119,2019-08-07 17:00:59:465
-0.5183,9.7545,0.2953,-0.095,0.0342,-0.2032,0.0549,-0.0304,-0.049,1123,2019-08-07 17:00:59:469
-0.5183,9.7545,0.2953,-0.095,0.0342,-0.2032,0.0453,-0.0219,-0.0586,1128,2019-08-07 17:00:59:474
-0.5327,9.8261,0.3,-0.1855,-0.0428,-0.2209,0.0453,-0.0219,-0.0586,1133,2019-08-07 17:00:59:479
-0.5327,9.8261,0.3,-0.1855,-0.0428,-0.2209,0.0453,-0.0219,-0.0586,1137,2019-08-07 17:00:59:483
-0.5327,9.8261,0.3,-0.1855,-0.0428,-0.2209,0.0464,0.0079,-0.0618,1143,2019-08-07 17:00:59:489
-0.6188,9.9884,0.267,-0.1855,-0.0428,-0.2209,0.0464,0.0079,-0.0618,1148,2019-08-07 17:00:59:494
-0.6188,9.9884,0.267,-0.0252,-0.1629,-0.1484,0.0411,0.0442,-0.0703,1153,2019-08-07 17:00:59:499
-0.7384,10.0075,0.2576,-0.0252,-0.1629,-0.1484,0.0411,0.0442,-0.0703,1158,2019-08-07 17:00:59:504
-0.7384,10.0075,0.2576,-0.0252,-0.1629,-0.1484,0.0357,0.0687,-0.0746,1163,2019-08-07 17:00:59:509
-0.7384,10.0075,0.2576,-0.0252,-0.1629,-0.1484,0.0357,0.0687,-0.0746,1169,2019-08-07 17:00:59:515
-0.8006,10.2319,0.5734,0.0795,-0.4982,-0.5836,0.0624,0.042,-0.0725,1173,2019-08-07 17:00:59:519
-0.8006,10.2319,0.5734,0.0795,-0.4982,-0.5836,0.0624,0.042,-0.0725,1178,2019-08-07 17:00:59:524
-0.8006,10.2319,0.5734,0.0795,-0.4982,-0.5836,0.0624,0.042,-0.0725,1183,2019-08-07 17:00:59:529
-1.0972,10.3369,0.8044,0.3445,-0.556,-0.7443,0.0965,0.0207,-0.065,1188,2019-08-07 17:00:59:534
-1.0972,10.3369,0.8044,0.3445,-0.556,-0.7443,0.0965,0.0207,-0.065,1193,2019-08-07 17:00:59:539
-1.145,9.9359,1.5916,0.3445,-0.556,-0.7443,0.1796,-0.0645,-0.0512,1198,2019-08-07 17:00:59:544
-1.145,9.9359,1.5916,0.1252,-0.2324,-1.8884,0.1796,-0.0645,-0.0512,1203,2019-08-07 17:00:59:549
-1.145,9.9359,1.5916,0.1252,-0.2324,-1.8884,0.2935,-0.2136,-0.0565,1208,2019-08-07 17:00:59:554
-0.3126,9.9646,2.2327,0.1252,-0.2324,-1.8884,0.2935,-0.2136,-0.0565,1213,2019-08-07 17:00:59:559
-0.3126,9.9646,2.2327,0.1252,-0.2324,-1.8884,0.4384,-0.3106,-0.0927,1219,2019-08-07 17:00:59:565
-0.3126,9.9646,2.2327,0.1252,-0.2324,-1.8884,0.4384,-0.3106,-0.0927,1223,2019-08-07 17:00:59:569
0.3668,9.9407,2.3977,-1.1418,-0.1613,-2.4031,0.4384,-0.3106,-0.0927,1228,2019-08-07 17:00:59:574
0.3668,9.9407,2.3977,-1.1418,-0.1613,-2.4031,0.578,-0.1007,-0.1279,1234,2019-08-07 17:00:59:580
0.7352,10.4419,2.8455,-1.1418,-0.1613,-2.4031,0.578,-0.1007,-0.1279,1238,2019-08-07 17:00:59:584
0.7352,10.4419,2.8455,-1.1418,-0.1613,-2.4031,0.578,-0.1007,-0.1279,1243,2019-08-07 17:00:59:589
0.7352,10.4419,2.8455,-1.2265,-0.7027,-3.4189,0.7484,0.1603,-0.2014,1247,2019-08-07 17:00:59:593
1.2232,9.8739,4.5142,-1.2265,-0.7027,-3.4189,0.7484,0.1603,-0.2014,1253,2019-08-07 17:00:59:599
1.2232,9.8739,4.5142,-1.2265,-0.7027,-3.4189,0.9668,0.0751,-0.2536,1258,2019-08-07 17:00:59:604
1.4241,12.3085,4.2408,-1.2265,-0.7027,-3.4189,0.9668,0.0751,-0.2536,1263,2019-08-07 17:00:59:609
1.4241,12.3085,4.2408,-2.142,-2.8234,-4.0581,1.2331,0.1528,-0.342,1268,2019-08-07 17:00:59:614
1.4241,12.3085,4.2408,-2.142,-2.8234,-4.0581,1.2331,0.1528,-0.342,1273,2019-08-07 17:00:59:619
0.0175,13.8457,4.4388,-2.142,-2.8234,-4.0581,1.4121,0.6269,-0.3601,1278,2019-08-07 17:00:59:624
0.0175,13.8457,4.4388,-2.142,-2.8234,-4.0581,1.4121,0.6269,-0.3601,1283,2019-08-07 17:00:59:629
0.0175,13.8457,4.4388,0.3199,-5.3448,-6.3368,1.4121,0.6269,-0.3601,1288,2019-08-07 17:00:59:634
-2.7573,16.2135,5.8953,0.3199,-5.3448,-6.3368,1.6677,0.6578,-0.2706,1293,2019-08-07 17:00:59:639
-2.7573,16.2135,5.8953,0.3199,-5.3448,-6.3368,1.6677,0.6578,-0.2706,1297,2019-08-07 17:00:59:643
-2.7573,16.2135,5.8953,0.3199,-5.3448,-6.3368,1.8904,0.5395,-0.2035,1303,2019-08-07 17:00:59:649
-4.2213,18.2996,5.6314,3.2858,-8.5705,-6.4713,1.8904,0.5395,-0.2035,1307,2019-08-07 17:00:59:653
-4.2213,18.2996,5.6314,3.2858,-8.5705,-6.4713,2.1066,0.3936,-0.1918,1313,2019-08-07 17:00:59:659
-5.0633,20.2617,7.7808,4.064,-10.2619,-8.5964,2.1066,0.3936,-0.1918,1318,2019-08-07 17:00:59:664
-5.0633,20.2617,7.7808,4.064,-10.2619,-8.5964,2.4081,-0.1476,-0.1151,1323,2019-08-07 17:00:59:669
-5.0633,20.2617,7.7808,4.064,-10.2619,-8.5964,2.4081,-0.1476,-0.1151,1328,2019-08-07 17:00:59:674
-5.0155,21.9087,8.0401,3.6423,-12.8046,-9.3813,2.5924,-0.6259,-0.0842,1334,2019-08-07 17:00:59:680
-5.0155,21.9087,8.0401,3.6423,-12.8046,-9.3813,2.5924,-0.6259,-0.0842,1337,2019-08-07 17:00:59:683
-5.0155,21.9087,8.0401,3.6423,-12.8046,-9.3813,2.5924,-0.6259,-0.0842,1343,2019-08-07 17:00:59:689
-2.9152,22.6868,6.7344,1.163,-13.1509,-8.0201,2.6968,-1.1756,-0.0789,1348,2019-08-07 17:00:59:694
-2.9152,22.6868,6.7344,1.163,-13.1509,-8.0201,2.6968,-1.1756,-0.0789,1352,2019-08-07 17:00:59:698
-2.9152,22.6868,6.7344,1.163,-13.1509,-8.0201,2.8502,-1.6965,-0.2291,1358,2019-08-07 17:00:59:704
1.0031,23.7275,-0.8171,1.163,-13.1509,-8.0201,2.8502,-1.6965,-0.2291,1363,2019-08-07 17:00:59:709
1.0031,23.7275,-0.8171,-2.3212,-15.2382,0.8009,2.8693,-1.6741,-0.2397,1368,2019-08-07 17:00:59:714
1.9217,25.9712,-4.607,-2.3212,-15.2382,0.8009,2.8693,-1.6741,-0.2397,1373,2019-08-07 17:00:59:719
1.9217,25.9712,-4.607,-3.2917,-16.7387,2.737,2.9418,-1.6294,-0.0192,1378,2019-08-07 17:00:59:724
1.9217,25.9712,-4.607,-3.2917,-16.7387,2.737,2.9418,-1.6294,-0.0192,1383,2019-08-07 17:00:59:729
2.668,26.84,-8.1848,-3.2917,-16.7387,2.737,2.9418,-1.6294,-0.0192,1389,2019-08-07 17:00:59:735
2.668,26.84,-8.1848,-3.2917,-16.7387,2.737,3.2198,-1.2182,0.2194,1393,2019-08-07 17:00:59:739
2.668,26.84,-8.1848,-1.3164,-15.4932,9.6893,3.2198,-1.2182,0.2194,1397,2019-08-07 17:00:59:743
-0.4848,24.2908,-13.7707,-1.3164,-15.4932,9.6893,3.2156,-0.6067,0.3057,1403,2019-08-07 17:00:59:749
-0.4848,24.2908,-13.7707,-1.3164,-15.4932,9.6893,3.2156,-0.6067,0.3057,1408,2019-08-07 17:00:59:754
-0.4848,24.2908,-13.7707,-1.3164,-15.4932,9.6893,2.504,0.5608,0.4133,1413,2019-08-07 17:00:59:759
-3.7381,24.9639,-14.3599,2.9708,-15.5718,9.5194,2.504,0.5608,0.4133,1418,2019-08-07 17:00:59:764
-3.7381,24.9639,-14.3599,2.9708,-15.5718,9.5194,2.504,0.5608,0.4133,1423,2019-08-07 17:00:59:769
-3.2836,22.0996,-5.6959,2.9708,-15.5718,9.5194,1.6858,0.9251,0.5337,1428,2019-08-07 17:00:59:774
-3.2836,22.0996,-5.6959,2.9708,-15.5718,9.5194,1.6858,0.9251,0.5337,1433,2019-08-07 17:00:59:779
-3.2836,22.0996,-5.6959,1.8736,-8.9994,-0.354,2.2281,-0.7708,0.5486,1438,2019-08-07 17:00:59:784
-2.9295,16.9868,-6.9969,1.8736,-8.9994,-0.354,2.2281,-0.7708,0.5486,1443,2019-08-07 17:00:59:789
-2.9295,16.9868,-6.9969,1.8736,-8.9994,-0.354,2.537,-0.7441,0.5848,1448,2019-08-07 17:00:59:794
-1.6187,17.8843,-9.3256,1.8736,-8.9994,-0.354,2.537,-0.7441,0.5848,1453,2019-08-07 17:00:59:799
-1.6187,17.8843,-9.3256,0.5314,-8.7039,6.408,1.9362,-1.297,0.4975,1458,2019-08-07 17:00:59:804
-1.6187,17.8843,-9.3256,0.5314,-8.7039,6.408,1.9362,-1.297,0.4975,1462,2019-08-07 17:00:59:808
-1.7622,16.371,-12.3707,0.5314,-8.7039,6.408,1.9362,-1.297,0.4975,1467,2019-08-07 17:00:59:813
-1.7622,16.371,-12.3707,0.5314,-8.7039,6.408,1.2565,-0.8581,0.3302,1473,2019-08-07 17:00:59:819
-2.1019,15.1155,-11.5976,1.1242,-6.4745,7.0574,1.2565,-0.8581,0.3302,1478,2019-08-07 17:00:59:824
-2.1019,15.1155,-11.5976,1.1242,-6.4745,7.0574,0.774,0.5896,0.4346,1483,2019-08-07 17:00:59:829
-2.1019,15.1155,-11.5976,1.1242,-6.4745,7.0574,0.774,0.5896,0.4346,1488,2019-08-07 17:00:59:834
-1.4368,10.6472,-9.8346,1.1242,-6.4745,7.0574,0.1582,0.7078,0.3888,1492,2019-08-07 17:00:59:838
-1.4368,10.6472,-9.8346,0.9312,-0.9654,4.8768,0.1582,0.7078,0.3888,1498,2019-08-07 17:00:59:844
-1.4368,10.6472,-9.8346,0.9312,-0.9654,4.8768,-0.1251,1.167,0.3164,1503,2019-08-07 17:00:59:849
-1.7383,8.0741,-9.1276,0.9312,-0.9654,4.8768,-0.1251,1.167,0.3164,1507,2019-08-07 17:00:59:853
-1.7383,8.0741,-9.1276,0.9312,-0.9654,4.8768,-0.1251,1.167,0.3164,1513,2019-08-07 17:00:59:859
-1.6474,5.902,-8.4912,0.9547,2.711,3.8466,-0.5491,1.1052,0.2801,1518,2019-08-07 17:00:59:864
-1.6474,5.902,-8.4912,0.9547,2.711,3.8466,-0.5491,1.1052,0.2801,1523,2019-08-07 17:00:59:869
-1.6474,5.902,-8.4912,0.9547,2.711,3.8466,-0.5491,1.1052,0.2801,1527,2019-08-07 17:00:59:873
-0.9249,3.5342,-8.84,0.3072,5.1039,4.2316,-0.8506,1.25,0.3153,1533,2019-08-07 17:00:59:879
-0.9249,3.5342,-8.84,0.3072,5.1039,4.2316,-0.8506,1.25,0.3153,1538,2019-08-07 17:00:59:884
-0.9249,3.5342,-8.84,0.3072,5.1039,4.2316,-0.8506,1.25,0.3153,1543,2019-08-07 17:00:59:889
-0.3412,-0.3469,-9.0239,0.3019,10.1698,4.1885,-1.2841,1.6069,0.2002,1548,2019-08-07 17:00:59:894
-0.3412,-0.3469,-9.0239,0.3019,10.1698,4.1885,-1.2841,1.6069,0.2002,1552,2019-08-07 17:00:59:898
-0.3412,-0.3469,-9.0239,0.3019,10.1698,4.1885,-1.6879,1.7965,0.1544,1558,2019-08-07 17:00:59:904
-0.3412,-0.3469,-9.0239,0.3019,10.1698,4.1885,-1.6879,1.7965,0.1544,1563,2019-08-07 17:00:59:909
-1.5995,-3.9511,-4.2016,1.908,14.0143,-0.1464,-1.6016,1.5174,0.213,1568,2019-08-07 17:00:59:914
-1.5995,-3.9511,-4.2016,1.908,14.0143,-0.1464,-1.6016,1.5174,0.213,1573,2019-08-07 17:00:59:919
-1.5995,-3.9511,-4.2016,1.908,14.0143,-0.1464,-1.6016,1.5174,0.213,1577,2019-08-07 17:00:59:923
-2.7047,-6.0182,-3.3296,1.908,14.0143,-0.1464,-1.5579,1.2713,0.2695,1583,2019-08-07 17:00:59:929
-2.7047,-6.0182,-3.3296,2.1245,15.7613,-1.2721,-1.5579,1.2713,0.2695,1588,2019-08-07 17:00:59:934
-2.7047,-6.0182,-3.3296,2.1245,15.7613,-1.2721,-1.6857,0.8516,0.2961,1593,2019-08-07 17:00:59:939
-1.7765,-7.0589,-2.1511,2.1245,15.7613,-1.2721,-1.6857,0.8516,0.2961,1598,2019-08-07 17:00:59:944
-1.7765,-7.0589,-2.1511,2.1245,15.7613,-1.2721,-1.6687,0.6886,0.2439,1603,2019-08-07 17:00:59:949
-0.9871,-7.7463,-1.6043,0.922,16.7832,-2.2088,-1.6687,0.6886,0.2439,1608,2019-08-07 17:00:59:954
-0.9871,-7.7463,-1.6043,0.922,16.7832,-2.2088,-1.6687,0.6886,0.2439,1613,2019-08-07 17:00:59:959
-0.9871,-7.7463,-1.6043,0.922,16.7832,-2.2088,-1.6783,0.6961,0.1491,1617,2019-08-07 17:00:59:963
-1.0493,-7.9325,-1.1377,0.922,16.7832,-2.2088,-1.6783,0.6961,0.1491,1623,2019-08-07 17:00:59:969
-1.0493,-7.9325,-1.1377,0.922,16.7832,-2.2088,-1.7294,0.7046,0.0287,1628,2019-08-07 17:00:59:974
-1.4895,-8.3144,0.4132,1.5002,17.4735,-3.9269,-1.7294,0.7046,0.0287,1633,2019-08-07 17:00:59:979
-1.4895,-8.3144,0.4132,1.5002,17.4735,-3.9269,-1.7294,0.7046,0.0287,1637,2019-08-07 17:00:59:983
-1.4895,-8.3144,0.4132,1.5002,17.4735,-3.9269,-1.5973,0.5107,-0.065,1643,2019-08-07 17:00:59:989
-2.0157,-8.7918,1.1815,1.5002,17.4735,-3.9269,-1.5973,0.5107,-0.065,1648,2019-08-07 17:00:59:994
-2.0157,-8.7918,1.1815,2.0931,18.1172,-4.5282,-1.4567,0.3009,-0.1066,1653,2019-08-07 17:00:59:999
-1.9583,-9.0973,1.4974,2.0931,18.1172,-4.5282,-1.4567,0.3009,-0.1066,1658,2019-08-07 17:01:00:004
-1.9583,-9.0973,1.4974,2.0931,18.1172,-4.5282,-1.3107,0.0687,-0.1257,1663,2019-08-07 17:01:00:009
-1.9583,-9.0973,1.4974,2.0931,18.1172,-4.5282,-1.3107,0.0687,-0.1257,1668,2019-08-07 17:01:00:014
-2.2262,-9.1164,1.7943,2.2134,18.4598,-4.7839,-1.0391,-0.1497,-0.0916,1672,2019-08-07 17:01:00:018
-2.2262,-9.1164,1.7943,2.2134,18.4598,-4.7839,-1.0391,-0.1497,-0.0916,1678,2019-08-07 17:01:00:024
-2.054,-9.1021,1.5162,2.1336,18.4551,-4.4898,-0.8569,-0.2467,-0.0544,1684,2019-08-07 17:01:00:030
-2.054,-9.1021,1.5162,2.1336,18.4551,-4.4898,-0.8569,-0.2467,-0.0544,1688,2019-08-07 17:01:00:034
-2.054,-9.1021,1.5162,2.1336,18.4551,-4.4898,-0.8569,-0.2467,-0.0544,1693,2019-08-07 17:01:00:039
-1.7095,-8.8252,0.9694,2.1336,18.4551,-4.4898,-0.4862,-0.35,-0.0181,1698,2019-08-07 17:01:00:044
-1.7095,-8.8252,0.9694,1.4143,18.2543,-3.6347,-0.4862,-0.35,-0.0181,1703,2019-08-07 17:01:00:049
-1.7095,-8.8252,0.9694,1.4143,18.2543,-3.6347,-0.1709,-0.3713,-0.0054,1708,2019-08-07 17:01:00:054
-1.1115,-8.682,0.6724,1.0196,18.0925,-3.442,-0.1709,-0.3713,-0.0054,1713,2019-08-07 17:01:00:059
-1.1115,-8.682,0.6724,1.0196,18.0925,-3.442,0.0208,-0.3883,-0.0149,1718,2019-08-07 17:01:00:064
-1.1115,-8.682,0.6724,1.0196,18.0925,-3.442,0.0208,-0.3883,-0.0149,1723,2019-08-07 17:01:00:069
-0.9297,-7.9373,0.0926,1.0196,18.0925,-3.442,0.3191,-0.4246,-0.0192,1728,2019-08-07 17:01:00:074
-0.9297,-7.9373,0.0926,0.7112,17.0875,-2.6468,0.3191,-0.4246,-0.0192,1733,2019-08-07 17:01:00:079
-0.9297,-7.9373,0.0926,0.7112,17.0875,-2.6468,0.5481,-0.4522,-0.0203,1738,2019-08-07 17:01:00:084
-0.8531,-7.374,-0.5909,0.7112,17.0875,-2.6468,0.5481,-0.4522,-0.0203,1743,2019-08-07 17:01:00:089
-0.8531,-7.374,-0.5909,0.7112,17.0875,-2.6468,0.5481,-0.4522,-0.0203,1748,2019-08-07 17:01:00:094
-1.0254,-6.6006,-0.8878,0.7992,16.1096,-2.1225,0.7686,-0.5258,-0.0139,1753,2019-08-07 17:01:00:099
-1.0254,-6.6006,-0.8878,0.7992,16.1096,-2.1225,0.7686,-0.5258,-0.0139,1758,2019-08-07 17:01:00:104
-1.0254,-6.6006,-0.8878,0.7992,16.1096,-2.1225,1.0254,-0.7452,0.0053,1762,2019-08-07 17:01:00:108
-1.212,-5.8654,-1.5713,0.7992,16.1096,-2.1225,1.0254,-0.7452,0.0053,1768,2019-08-07 17:01:00:114
-1.212,-5.8654,-1.5713,0.9644,14.9088,-1.4444,1.231,-1.0136,0.0341,1773,2019-08-07 17:01:00:119
-1.212,-5.8654,-1.5713,0.9644,14.9088,-1.4444,1.231,-1.0136,0.0341,1777,2019-08-07 17:01:00:123
-1.1689,-5.1446,-2.5895,0.901,14.3769,-0.7164,1.3418,-1.1532,0.0351,1783,2019-08-07 17:01:00:129
-1.1689,-5.1446,-2.5895,0.901,14.3769,-0.7164,1.3418,-1.1532,0.0351,1788,2019-08-07 17:01:00:134
-1.1689,-5.1446,-2.5895,0.901,14.3769,-0.7164,1.3418,-1.1532,0.0351,1793,2019-08-07 17:01:00:139
-0.9967,-4.4142,-3.7444,0.901,14.3769,-0.7164,1.5079,-1.3694,0.033,1798,2019-08-07 17:01:00:144
-0.9967,-4.4142,-3.7444,0.1797,13.0189,0.8347,1.5079,-1.3694,0.033,1803,2019-08-07 17:01:00:149
-0.4465,-3.4117,-4.9747,0.1797,13.0189,0.8347,1.6187,-1.4419,-0.0064,1808,2019-08-07 17:01:00:154
-0.4465,-3.4117,-4.9747,0.1797,13.0189,0.8347,1.6187,-1.4419,-0.0064,1813,2019-08-07 17:01:00:159
-0.4465,-3.4117,-4.9747,0.1797,13.0189,0.8347,1.6187,-1.4419,-0.0064,1818,2019-08-07 17:01:00:164
-0.1929,-2.2946,-6.3511,-0.3631,10.9869,2.5006,1.6198,-1.3311,-0.0671,1823,2019-08-07 17:01:00:169
-0.1929,-2.2946,-6.3511,-0.3631,10.9869,2.5006,1.6198,-1.3311,-0.0671,1828,2019-08-07 17:01:00:174
-0.1929,-1.168,-6.8461,-0.5285,10.0363,2.6876,1.5207,-1.1606,-0.1342,1834,2019-08-07 17:01:00:180
-0.0159,-1.168,-6.8461,-0.5285,10.0363,2.6876,1.5207,-1.1606,-0.1342,1838,2019-08-07 17:01:00:184
-0.0159,-1.168,-6.8461,-0.5285,10.0363,2.6876,1.5207,-1.1606,-0.1342,1843,2019-08-07 17:01:00:189
0.5869,-0.4806,-7.4212,-0.5285,10.0363,2.6876,1.4483,-0.9742,-0.2088,1848,2019-08-07 17:01:00:194
0.5869,-0.4806,-7.4212,-1.2514,8.7478,3.3216,1.4483,-0.9742,-0.2088,1853,2019-08-07 17:01:00:199
0.5869,-0.4806,-7.4212,-1.2514,8.7478,3.3216,1.2864,-0.5471,-0.2983,1858,2019-08-07 17:01:00:204
0.7257,0.9945,-8.3592,-1.2514,8.7478,3.3216,1.2864,-0.5471,-0.2983,1863,2019-08-07 17:01:00:209
0.7257,0.9945,-8.3592,-1.2514,8.7478,3.3216,1.0744,-0.2264,-0.3047,1868,2019-08-07 17:01:00:214
0.7257,0.9945,-8.3592,-1.5922,5.6765,4.0144,1.0744,-0.2264,-0.3047,1872,2019-08-07 17:01:00:218
0.8453,3.1714,-9.0569,-1.5922,5.6765,4.0144,0.8613,0.0292,-0.3569,1878,2019-08-07 17:01:00:224
0.8453,3.1714,-9.0569,-1.5922,5.6765,4.0144,0.8613,0.0292,-0.3569,1883,2019-08-07 17:01:00:229
0.0033,4.8088,-9.9525,-1.5922,5.6765,4.0144,0.8613,0.0292,-0.3569,1888,2019-08-07 17:01:00:234
0.0033,4.8088,-9.9525,-1.5922,5.6765,4.0144,0.4672,0.3712,-0.4378,1893,2019-08-07 17:01:00:239
0.0033,4.8088,-9.9525,0.3174,2.3533,5.6207,0.4672,0.3712,-0.4378,1898,2019-08-07 17:01:00:244
-1.7669,7.5156,-10.5747,0.3174,2.3533,5.6207,0.0634,0.6375,-0.4645,1904,2019-08-07 17:01:00:250
-1.7669,7.5156,-10.5747,0.3174,2.3533,5.6207,0.0634,0.6375,-0.4645,1907,2019-08-07 17:01:00:253
-2.1974,9.7306,-9.1935,0.3174,2.3533,5.6207,-0.3073,0.7973,-0.5689,1913,2019-08-07 17:01:00:259
-2.1974,9.7306,-9.1935,1.3984,-1.957,3.7648,-0.3073,0.7973,-0.5689,1919,2019-08-07 17:01:00:265
-2.1974,9.7306,-9.1935,1.3984,-1.957,3.7648,-0.3073,0.7973,-0.5689,1922,2019-08-07 17:01:00:268
-1.9247,12.466,-7.8831,1.3984,-1.957,3.7648,-0.5022,0.58,-0.6552,1928,2019-08-07 17:01:00:274
-1.9247,12.466,-7.8831,0.7828,-5.0588,2.7734,-0.5736,0.2412,-0.7383,1934,2019-08-07 17:01:00:280
-1.9247,12.466,-7.8831,0.7828,-5.0588,2.7734,-0.5736,0.2412,-0.7383,1937,2019-08-07 17:01:00:283
-1.6424,14.5426,-7.9774,0.7828,-5.0588,2.7734,-0.5736,0.2412,-0.7383,1943,2019-08-07 17:01:00:289
-1.6424,14.5426,-7.9774,0.7828,-5.0588,2.7734,-0.8463,-0.1742,-0.898,1948,2019-08-07 17:01:00:294
-1.8959,15.7934,-8.5666,0.8699,-7.2574,3.8421,-0.8463,-0.1742,-0.898,1954,2019-08-07 17:01:00:300
-1.8959,15.7934,-8.5666,0.8699,-7.2574,3.8421,-1.2831,0.1123,-0.9897,1958,2019-08-07 17:01:00:304
-1.8959,15.7934,-8.5666,0.8699,-7.2574,3.8421,-1.2831,0.1123,-0.9897,1962,2019-08-07 17:01:00:308
-0.5516,17.1109,-7.6238,0.8699,-7.2574,3.8421,-1.5334,0.7163,-0.9556,1968,2019-08-07 17:01:00:314
-0.5516,17.1109,-7.6238,0.8699,-7.2574,3.8421,-1.5334,0.7163,-0.9556,1972,2019-08-07 17:01:00:318
-0.5516,17.1109,-7.6238,-1.7038,-9.2128,1.58,-1.9627,0.6247,-0.9257,1978,2019-08-07 17:01:00:324
1.1851,17.8031,-6.2427,-1.7038,-9.2128,1.58,-1.9627,0.6247,-0.9257,1983,2019-08-07 17:01:00:329
1.1851,17.8031,-6.2427,-1.7038,-9.2128,1.58,-2.1875,1.1073,-0.9769,1988,2019-08-07 17:01:00:334
-0.3171,18.8677,-5.3942,-1.7038,-9.2128,1.58,-2.1875,1.1073,-0.9769,1993,2019-08-07 17:01:00:339
-0.3171,18.8677,-5.3942,-0.4372,-10.1816,1.0083,-2.588,1.2937,-0.8629,1998,2019-08-07 17:01:00:344
-0.3171,19.0252,-3.1363,-0.4372,-10.1816,1.0083,-2.588,1.2937,-0.8629,2004,2019-08-07 17:01:00:350
-1.4701,19.0252,-3.1363,-0.4372,-10.1816,1.0083,-2.588,1.2937,-0.8629,2007,2019-08-07 17:01:00:353
-1.4701,19.0252,-3.1363,-0.4372,-10.1816,1.0083,-2.8458,1.3811,-0.6765,2013,2019-08-07 17:01:00:359
-0.8338,19.2687,-1.3215,-0.4182,-10.2439,-2.3148,-2.8458,1.3811,-0.6765,2018,2019-08-07 17:01:00:364
-0.8338,19.2687,-1.3215,-0.4182,-10.2439,-2.3148,-2.686,1.0785,-0.5252,2023,2019-08-07 17:01:00:369
-0.8338,19.2687,-1.3215,-0.4182,-10.2439,-2.3148,-2.686,1.0785,-0.5252,2027,2019-08-07 17:01:00:373
1.7353,20.7677,-4.9652,-0.4182,-10.2439,-2.3148,-2.8937,1.3278,-0.4251,2033,2019-08-07 17:01:00:379
1.7353,20.7677,-4.9652,-2.0688,-10.3325,4.4464,-2.8937,1.3278,-0.4251,2038,2019-08-07 17:01:00:384
1.7353,20.7677,-4.9652,-2.0688,-10.3325,4.4464,-2.8937,1.3278,-0.4251,2043,2019-08-07 17:01:00:389
3.9313,22.6342,-11.1168,-4.7123,-15.1375,10.757,-2.1821,1.7678,-0.0501,2048,2019-08-07 17:01:00:394
3.9313,22.6342,-11.1168,-4.7123,-15.1375,10.757,-2.1821,1.7678,-0.0501,2053,2019-08-07 17:01:00:399
3.9313,22.6342,-11.1168,-4.7123,-15.1375,10.757,-1.0199,3.8482,0.343,2058,2019-08-07 17:01:00:404
3.9313,22.6342,-11.1168,-4.7123,-15.1375,10.757,-1.0199,3.8482,0.343,2062,2019-08-07 17:01:00:408
-0.6664,23.3503,-30.5141,1.1947,-17.933,27.1378,-1.495,5.3481,-0.3335,2068,2019-08-07 17:01:00:414
-0.6664,23.3503,-30.5141,1.1947,-17.933,27.1378,-1.495,5.3481,-0.3335,2073,2019-08-07 17:01:00:419
-0.6664,23.3503,-30.5141,1.1947,-17.933,27.1378,-1.495,5.3481,-0.3335,2077,2019-08-07 17:01:00:423
-15.2487,34.0485,-11.277,1.1947,-17.933,27.1378,-6.5433,0.7643,-1.1324,2083,2019-08-07 17:01:00:429
-15.2487,34.0485,-11.277,12.7582,-0.5301,-96.0491,-6.5433,0.7643,-1.1324,2088,2019-08-07 17:01:00:434
-15.4018,23.9661,6.2112,12.7582,-0.5301,-96.0491,-1.0135,1.7678,0.4261,2092,2019-08-07 17:01:00:438
-15.4018,23.9661,6.2112,12.7582,-0.5301,-96.0491,-1.0135,1.7678,0.4261,2098,2019-08-07 17:01:00:444
-5.0248,19.7891,40.2402,12.7582,-0.5301,-96.0491,-3.4839,-4.3618,0.9118,2103,2019-08-07 17:01:00:449
-5.0248,19.7891,40.2402,3.8691,-11.3512,-35.3276,-3.4839,-4.3618,0.9118,2108,2019-08-07 17:01:00:454
-5.0248,19.7891,40.2402,3.8691,-11.3512,-35.3276,-0.581,-4.92,0.7979,2113,2019-08-07 17:01:00:459
-10.919,32.0864,-11.2016,3.8691,-11.3512,-35.3276,-0.581,-4.92,0.7979,2118,2019-08-07 17:01:00:464
-10.919,32.0864,-11.2016,3.8691,-11.3512,-35.3276,-0.3691,-3.6598,1.567,2122,2019-08-07 17:01:00:468
-10.919,32.0864,-11.2016,2.3052,-5.8017,8.9805,-0.3691,-3.6598,1.567,2128,2019-08-07 17:01:00:474
-0.518,10.8572,-7.2797,2.3052,-5.8017,8.9805,-1.0838,1.8626,0.67,2133,2019-08-07 17:01:00:479
-0.518,10.8572,-7.2797,2.3052,-5.8017,8.9805,-1.0838,1.8626,0.67,2138,2019-08-07 17:01:00:484
-0.518,10.8572,-7.2797,2.3052,-5.8017,8.9805,-1.5941,2.4996,0.1267,2143,2019-08-07 17:01:00:489
-3.1541,7.4201,17.053,2.4618,2.924,-15.686,-1.5941,2.4996,0.1267,2147,2019-08-07 17:01:00:493
-3.1541,7.4201,17.053,2.4618,2.924,-15.686,-0.5395,-0.2477,0.5305,2153,2019-08-07 17:01:00:499
-0.1257,8.0264,3.4913,2.4618,2.924,-15.686,-0.5395,-0.2477,0.5305,2158,2019-08-07 17:01:00:504
-0.1257,8.0264,3.4913,2.4618,2.924,-15.686,-0.172,-1.7977,0.6498,2163,2019-08-07 17:01:00:509
4.3284,6.8377,-3.3625,-4.2581,2.8086,0.0724,-0.172,-1.7977,0.6498,2168,2019-08-07 17:01:00:514
4.3284,6.8377,-3.3625,-4.2581,2.8086,0.0724,-0.1315,-1.3982,0.294,2173,2019-08-07 17:01:00:519
4.3284,6.8377,-3.3625,-4.2581,2.8086,0.0724,-0.1315,-1.3982,0.294,2178,2019-08-07 17:01:00:524
5.8211,7.7972,-6.0447,-4.2581,2.8086,0.0724,-0.6386,-0.644,0.4591,2183,2019-08-07 17:01:00:529
5.8211,7.7972,-6.0447,-6.9715,2.2734,2.9606,-0.6386,-0.644,0.4591,2188,2019-08-07 17:01:00:534
5.8211,7.7972,-6.0447,-6.9715,2.2734,2.9606,-0.8644,-0.1103,0.6253,2193,2019-08-07 17:01:00:539
6.1464,8.1027,0.8799,-6.9715,2.2734,2.9606,-0.8644,-0.1103,0.6253,2198,2019-08-07 17:01:00:544
6.1464,8.1027,0.8799,-6.9715,2.2734,2.9606,-0.8197,-0.318,0.4399,2203,2019-08-07 17:01:00:549
1.7449,11.2153,2.5863,-2.0879,-1.4271,-3.1437,-0.8197,-0.318,0.4399,2208,2019-08-07 17:01:00:554
1.7449,11.2153,2.5863,-2.0879,-1.4271,-3.1437,-0.6737,-0.9359,0.3142,2213,2019-08-07 17:01:00:559
1.7449,11.2153,2.5863,-2.0879,-1.4271,-3.1437,-0.6737,-0.9359,0.3142,2219,2019-08-07 17:01:00:565
-0.9199,11.7786,-1.2555,-2.0879,-1.4271,-3.1437,-0.6737,-0.9359,0.3142,2222,2019-08-07 17:01:00:568
-0.9199,11.7786,-1.2555,-2.0879,-1.4271,-3.1437,-0.6769,-0.4224,0.1949,2228,2019-08-07 17:01:00:574
-1.8385,11.4396,-1.7457,1.3318,-1.6718,1.7113,-0.6769,-0.4224,0.1949,2233,2019-08-07 17:01:00:579
-1.8385,11.4396,-1.7457,1.3318,-1.6718,1.7113,-0.8303,0.1901,0.1033,2238,2019-08-07 17:01:00:584
-1.8385,11.4396,-1.7457,1.3318,-1.6718,1.7113,-0.8303,0.1901,0.1033,2243,2019-08-07 17:01:00:589
-2.4604,11.3919,2.6051,2.2293,-1.4175,-3.5623,-0.8303,0.1901,0.1033,2248,2019-08-07 17:01:00:594
-2.4604,11.3919,2.6051,2.2293,-1.4175,-3.5623,-0.7067,0.2487,0.1725,2254,2019-08-07 17:01:00:600
-2.3025,10.2319,2.327,2.2293,-1.4175,-3.5623,-0.7067,0.2487,0.1725,2258,2019-08-07 17:01:00:604
-2.3025,10.2319,2.327,2.2293,-1.4175,-3.5623,-0.5342,0.0111,0.2599,2263,2019-08-07 17:01:00:609
-2.3025,10.2319,2.327,2.1654,-0.063,-2.1875,-0.5342,0.0111,0.2599,2268,2019-08-07 17:01:00:614
-2.3982,9.8691,2.4496,2.1654,-0.063,-2.1875,-0.4724,-0.0198,0.3313,2273,2019-08-07 17:01:00:619
-2.3982,9.8691,2.4496,2.1654,-0.063,-2.1875,-0.4724,-0.0198,0.3313,2278,2019-08-07 17:01:00:624
-1.1017,9.7974,4.9479,2.1654,-0.063,-2.1875,-0.2977,-0.5321,0.3675,2284,2019-08-07 17:01:00:630
-1.1017,9.7974,4.9479,0.1046,0.2016,-4.7964,-0.2977,-0.5321,0.3675,2288,2019-08-07 17:01:00:634
-1.1017,9.7974,4.9479,0.1046,0.2016,-4.7964,-0.2977,-0.5321,0.3675,2293,2019-08-07 17:01:00:639
1.1804,9.1959,2.9775,0.1046,0.2016,-4.7964,-0.0079,-1.3013,0.3068,2299,2019-08-07 17:01:00:645
1.1804,9.1959,2.9775,-1.7734,0.7369,-2.0708,-0.0079,-1.3013,0.3068,2303,2019-08-07 17:01:00:649
1.1804,9.1959,2.9775,-1.7734,0.7369,-2.0708,0.1455,-1.329,0.1502,2308,2019-08-07 17:01:00:654
3.8452,9.4203,-2.0709,-1.7734,0.7369,-2.0708,0.1455,-1.329,0.1502,2313,2019-08-07 17:01:00:659
3.8452,9.4203,-2.0709,-4.4389,0.3987,2.3117,-0.0271,-0.6014,0.0596,2319,2019-08-07 17:01:00:665
3.8022,9.2819,-1.7975,-4.4389,0.3987,2.3117,-0.0271,-0.6014,0.0596,2323,2019-08-07 17:01:00:669
3.8022,9.2819,-1.7975,-4.4389,0.3987,2.3117,-0.2135,0.1997,0.0117,2328,2019-08-07 17:01:00:674
3.8022,9.2819,-1.7975,-4.4389,0.3987,2.3117,-0.2135,0.1997,0.0117,2334,2019-08-07 17:01:00:680
3.8022,9.2819,-1.7975,-4.4389,0.3987,2.3117,-0.2135,0.1997,0.0117,2338,2019-08-07 17:01:00:684
0.5441,8.8952,1.62,-0.6202,0.9145,-1.594,-0.2966,0.6897,0.0223,2342,2019-08-07 17:01:00:688
0.5441,8.8952,1.62,-0.6202,0.9145,-1.594,-0.2966,0.6897,0.0223,2348,2019-08-07 17:01:00:694
-1.2787,9.2341,3.053,-0.6202,0.9145,-1.594,-0.1688,0.4223,-0.0096,2353,2019-08-07 17:01:00:699
-1.2787,9.2341,3.053,-0.6202,0.9145,-1.594,-0.1688,0.4223,-0.0096,2358,2019-08-07 17:01:00:704
-1.2787,9.2341,3.053,1.157,0.031,-2.4939,0.0155,-0.0187,-0.0032,2363,2019-08-07 17:01:00:709
-0.8146,10.0027,1.9876,1.157,0.031,-2.4939,0.0155,-0.0187,-0.0032,2368,2019-08-07 17:01:00:714
-0.8146,10.0027,1.9876,1.157,0.031,-2.4939,0.1071,-0.154,-0.0022,2373,2019-08-07 17:01:00:719
-0.8146,10.0027,1.9876,1.157,0.031,-2.4939,0.1071,-0.154,-0.0022,2377,2019-08-07 17:01:00:723
0.2523,10.3846,0.6772,-0.3321,-0.6182,-0.5021,0.0698,0.0942,0.0042,2383,2019-08-07 17:01:00:729
0.2523,10.3846,0.6772,-0.3321,-0.6182,-0.5021,0.0698,0.0942,0.0042,2388,2019-08-07 17:01:00:734
0.2523,10.3846,0.6772,-0.3321,-0.6182,-0.5021,0.0698,0.0942,0.0042,2393,2019-08-07 17:01:00:739
0.1423,10.2366,0.1634,-0.3321,-0.6182,-0.5021,0.0123,0.3382,0.0032,2398,2019-08-07 17:01:00:744
0.1423,10.2366,0.1634,0.1531,-0.432,-0.8092,0.0123,0.3382,0.0032,2403,2019-08-07 17:01:00:749
0.1423,10.2366,0.1634,0.1531,-0.432,-0.8092,0.0155,0.2934,-0.0011,2408,2019-08-07 17:01:00:754
-0.5849,10.2605,1.4267,0.1531,-0.432,-0.8092,0.0155,0.2934,-0.0011,2413,2019-08-07 17:01:00:759
-0.5849,10.2605,1.4267,0.1531,-0.432,-0.8092,0.0379,0.1177,0.017,2418,2019-08-07 17:01:00:764
-0.5849,10.2605,1.4267,0.1938,-0.3652,-0.7627,0.0379,0.1177,0.017,2423,2019-08-07 17:01:00:769
-0.1352,10.1507,0.5641,0.1938,-0.3652,-0.7627,0.0496,-0.0283,0.0255,2428,2019-08-07 17:01:00:774
-0.1352,10.1507,0.5641,0.1938,-0.3652,-0.7627,0.0496,-0.0283,0.0255,2434,2019-08-07 17:01:00:780
-0.1352,10.1507,0.5641,0.1938,-0.3652,-0.7627,0.0496,-0.0283,0.0255,2438,2019-08-07 17:01:00:784
0.214,9.9216,0.2812,-0.2934,-0.1121,-0.2113,0.0038,-0.0251,0.0117,2443,2019-08-07 17:01:00:789
0.214,9.9216,0.2812,-0.2934,-0.1121,-0.2113,0.0038,-0.0251,0.0117,2448,2019-08-07 17:01:00:794
0.214,9.9216,0.2812,-0.2934,-0.1121,-0.2113,-0.0165,0.0165,0.0,2452,2019-08-07 17:01:00:798
-0.0922,9.9884,0.3802,-0.2934,-0.1121,-0.2113,-0.0165,0.0165,0.0,2458,2019-08-07 17:01:00:804
-0.0922,9.9884,0.3802,0.2098,-0.2172,-0.5158,-0.0537,0.0601,-0.0054,2463,2019-08-07 17:01:00:809
-0.4749,10.06,0.7621,0.2098,-0.2172,-0.5158,-0.0537,0.0601,-0.0054,2468,2019-08-07 17:01:00:814
-0.4749,10.06,0.7621,0.2098,-0.2172,-0.5158,-0.0527,0.0442,-0.0096,2473,2019-08-07 17:01:00:819
-0.5706,9.9979,0.8139,0.2098,-0.2172,-0.5158,-0.0527,0.0442,-0.0096,2478,2019-08-07 17:01:00:824
-0.5706,9.9979,0.8139,0.3203,-0.3272,-0.6884,-0.0463,-0.0048,0.0064,2484,2019-08-07 17:01:00:830
-0.5706,9.9979,0.8139,0.3203,-0.3272,-0.6884,-0.0463,-0.0048,0.0064,2488,2019-08-07 17:01:00:834
-0.1113,10.2032,0.9695,0.3203,-0.3272,-0.6884,-0.0431,-0.0815,0.0106,2493,2019-08-07 17:01:00:839
-0.1113,10.2032,0.9695,0.3203,-0.3272,-0.6884,-0.0431,-0.0815,0.0106,2498,2019-08-07 17:01:00:844
-0.1113,10.2032,0.9695,-0.2567,-0.1363,-0.4052,-0.0431,-0.0996,0.0053,2503,2019-08-07 17:01:00:849
0.2045,9.8547,0.451,-0.2567,-0.1363,-0.4052,-0.0431,-0.0996,0.0053,2507,2019-08-07 17:01:00:853
0.2045,9.8547,0.451,-0.2567,-0.1363,-0.4052,-0.0548,-0.0198,-0.016,2513,2019-08-07 17:01:00:859
0.037,9.8404,0.9223,-0.2567,-0.1363,-0.4052,-0.0548,-0.0198,-0.016,2519,2019-08-07 17:01:00:865
0.037,9.8404,0.9223,-0.0516,0.0162,-1.0687,-0.0548,-0.0198,-0.016,2523,2019-08-07 17:01:00:869
0.037,9.8404,0.9223,-0.0516,0.0162,-1.0687,-0.0388,-0.0038,-0.0192,2528,2019-08-07 17:01:00:874
-0.1113,9.6399,1.4786,0.0086,0.1307,-1.2631,-0.0047,-0.0474,-0.0203,2533,2019-08-07 17:01:00:879
-0.1113,9.6399,1.4786,0.0086,0.1307,-1.2631,-0.0047,-0.0474,-0.0203,2538,2019-08-07 17:01:00:884
-0.1113,9.6399,1.4786,0.0086,0.1307,-1.2631,-0.0047,-0.0474,-0.0203,2543,2019-08-07 17:01:00:889
0.2093,9.764,0.9883,0.0086,0.1307,-1.2631,0.0411,-0.0975,-0.0352,2548,2019-08-07 17:01:00:894
0.2093,9.764,0.9883,-0.7176,0.0161,-0.6876,0.0411,-0.0975,-0.0352,2553,2019-08-07 17:01:00:899
0.2093,9.764,0.9883,-0.7176,0.0161,-0.6876,0.0624,-0.0656,-0.0693,2558,2019-08-07 17:01:00:904
0.769,9.8213,0.7149,-0.7176,0.0161,-0.6876,0.0624,-0.0656,-0.0693,2563,2019-08-07 17:01:00:909
0.769,9.8213,0.7149,-0.7176,0.0161,-0.6876,0.0517,0.0356,-0.0948,2568,2019-08-07 17:01:00:914
0.769,9.8213,0.7149,-0.698,-0.1653,-0.1863,0.0517,0.0356,-0.0948,2573,2019-08-07 17:01:00:919
0.4294,10.0982,0.3095,-0.698,-0.1653,-0.1863,0.0176,0.1518,-0.1268,2578,2019-08-07 17:01:00:924
0.4294,10.0982,0.3095,-0.698,-0.1653,-0.1863,0.0176,0.1518,-0.1268,2583,2019-08-07 17:01:00:929
0.4294,10.0982,0.3095,-0.698,-0.1653,-0.1863,0.0176,0.1518,-0.1268,2588,2019-08-07 17:01:00:934
0.4294,10.0982,0.3095,-0.698,-0.1653,-0.1863,-0.009,0.2167,-0.1321,2593,2019-08-07 17:01:00:939
-0.2261,9.9884,0.7385,0.1053,-0.1799,-0.6138,-0.009,0.2167,-0.1321,2599,2019-08-07 17:01:00:945
-0.2261,9.9884,0.7385,0.1053,-0.1799,-0.6138,-0.0143,0.2231,-0.1279,2602,2019-08-07 17:01:00:948
-0.7763,9.912,0.5547,0.1053,-0.1799,-0.6138,-0.0143,0.2231,-0.1279,2608,2019-08-07 17:01:00:954
-0.7763,9.912,0.5547,0.6885,-0.1088,-0.499,-0.0239,0.1752,-0.1097,2613,2019-08-07 17:01:00:959
-0.7763,9.912,0.5547,0.6885,-0.1088,-0.499,-0.0239,0.1752,-0.1097,2618,2019-08-07 17:01:00:964
-0.872,9.9216,0.8092,0.6885,-0.1088,-0.499,-0.0292,0.0868,-0.0789,2623,2019-08-07 17:01:00:969
-0.872,9.9216,0.8092,0.6885,-0.1088,-0.499,-0.0292,0.0868,-0.0789,2628,2019-08-07 17:01:00:974
-0.872,9.9216,0.8092,0.4565,-0.0854,-0.4605,-0.0292,0.0868,-0.0789,2633,2019-08-07 17:01:00:979
-0.628,9.8929,0.6018,0.4565,-0.0854,-0.4605,-0.0335,-0.0102,-0.0586,2638,2019-08-07 17:01:00:984
-0.628,9.8929,0.6018,0.4565,-0.0854,-0.4605,-0.0335,-0.0102,-0.0586,2643,2019-08-07 17:01:00:989
-0.2691,9.9788,0.4368,0.4565,-0.0854,-0.4605,-0.0442,-0.089,-0.0426,2648,2019-08-07 17:01:00:994
-0.2691,9.9788,0.4368,-0.1751,-0.3054,-0.3359,-0.0442,-0.089,-0.0426,2653,2019-08-07 17:01:00:999
-0.2691,9.9788,0.4368,-0.1751,-0.3054,-0.3359,-0.0612,-0.0368,-0.048,2658,2019-08-07 17:01:01:004
0.0227,10.2032,0.6159,-0.1751,-0.3054,-0.3359,-0.0612,-0.0368,-0.048,2662,2019-08-07 17:01:01:008
0.0227,10.2032,0.6159,-0.1751,-0.3054,-0.3359,-0.0825,0.0282,-0.0693,2668,2019-08-07 17:01:01:014
0.0227,10.2032,0.6159,0.1823,-0.2152,-0.7086,-0.0825,0.0282,-0.0693,2673,2019-08-07 17:01:01:019
-0.4366,9.9263,0.9223,0.1823,-0.2152,-0.7086,-0.0793,0.0633,-0.0746,2678,2019-08-07 17:01:01:024
-0.4366,9.9263,0.9223,0.1823,-0.2152,-0.7086,-0.0793,0.0633,-0.0746,2683,2019-08-07 17:01:01:029
-0.4366,9.9263,0.9223,0.1823,-0.2152,-0.7086,-0.0697,0.0527,-0.0565,2688,2019-08-07 17:01:01:034
-0.36,9.6685,1.2005,0.1823,-0.2152,-0.7086,-0.0697,0.0527,-0.0565,2693,2019-08-07 17:01:01:039
-0.36,9.6685,1.2005,0.1244,0.0753,-1.0077,-0.0697,0.0527,-0.0565,2698,2019-08-07 17:01:01:044
-0.36,9.6685,1.2005,0.1244,0.0753,-1.0077,-0.0218,-0.0474,-0.0629,2703,2019-08-07 17:01:01:049
-0.3074,9.8786,1.1486,0.1244,0.0753,-1.0077,-0.0218,-0.0474,-0.0629,2708,2019-08-07 17:01:01:054
-0.3074,9.8786,1.1486,0.1244,0.0753,-1.0077,6.0E-4,-0.0741,-0.0554,2713,2019-08-07 17:01:01:059
-0.0969,9.8261,1.224,-0.1029,-0.0397,-1.0111,6.0E-4,-0.0741,-0.0554,2717,2019-08-07 17:01:01:063
-0.0969,9.8261,1.224,-0.1029,-0.0397,-1.0111,6.0E-4,-0.0741,-0.0554,2723,2019-08-07 17:01:01:069
-0.0969,9.8261,1.224,-0.1029,-0.0397,-1.0111,0.0325,-0.0922,-0.0533,2727,2019-08-07 17:01:01:073
0.0754,9.7927,1.0025,-0.1029,-0.0397,-1.0111,0.0325,-0.0922,-0.0533,2733,2019-08-07 17:01:01:079
0.0754,9.7927,1.0025,-0.2883,0.0364,-0.7598,0.0496,-0.0517,-0.0629,2738,2019-08-07 17:01:01:084
0.0754,9.7927,1.0025,-0.2883,0.0364,-0.7598,0.0496,-0.0517,-0.0629,2743,2019-08-07 17:01:01:089
0.0036,9.8834,0.8705,-0.2883,0.0364,-0.7598,0.0453,-0.008,-0.0703,2748,2019-08-07 17:01:01:094
0.0036,9.8834,0.8705,-0.2883,0.0364,-0.7598,0.0453,-0.008,-0.0703,2753,2019-08-07 17:01:01:099
0.0036,9.8834,0.8705,-0.2092,-0.0783,-0.7726,0.0443,0.0079,-0.0767,2758,2019-08-07 17:01:01:104
-0.1734,9.955,0.7856,-0.2092,-0.0783,-0.7726,0.0443,0.0079,-0.0767,2762,2019-08-07 17:01:01:108
-0.1734,9.955,0.7856,-0.2092,-0.0783,-0.7726,-0.0015,0.0016,-0.0757,2768,2019-08-07 17:01:01:114
-0.5562,10.3321,0.6678,-0.2092,-0.0783,-0.7726,-0.0015,0.0016,-0.0757,2773,2019-08-07 17:01:01:119
-0.5562,10.3321,0.6678,0.2767,-0.4846,-0.555,-0.0921,-0.0155,-0.098,2778,2019-08-07 17:01:01:124
-0.5562,10.3321,0.6678,0.2767,-0.4846,-0.555,-0.0921,-0.0155,-0.098,2784,2019-08-07 17:01:01:130
-0.5944,9.8022,0.7102,0.2767,-0.4846,-0.555,-0.0921,-0.0155,-0.098,2788,2019-08-07 17:01:01:134
-0.5944,9.8022,0.7102,0.2767,-0.4846,-0.555,-0.1272,-0.0709,-0.1268,2793,2019-08-07 17:01:01:139
-0.4461,9.807,0.8752,0.1662,-0.0037,-0.6457,-0.1272,-0.0709,-0.1268,2798,2019-08-07 17:01:01:144
-0.4461,9.807,0.8752,0.1662,-0.0037,-0.6457,-0.0473,-0.0933,-0.0991,2803,2019-08-07 17:01:01:149
-0.4461,9.807,0.8752,0.1662,-0.0037,-0.6457,-0.0473,-0.0933,-0.0991,2807,2019-08-07 17:01:01:153
-0.3696,9.9025,0.3567,0.1662,-0.0037,-0.6457,-0.0452,-0.1028,-0.0746,2813,2019-08-07 17:01:01:159
-0.3696,9.9025,0.3567,0.0665,-0.0188,-0.0574,-0.0452,-0.1028,-0.0746,2818,2019-08-07 17:01:01:164
-0.3504,9.9454,0.6867,0.0665,-0.0188,-0.0574,-0.0623,-0.007,-0.0746,2823,2019-08-07 17:01:01:169
-0.3504,9.9454,0.6867,0.0665,-0.0188,-0.0574,-0.0623,-0.007,-0.0746,2827,2019-08-07 17:01:01:173
-0.5035,9.8643,0.9553,0.0665,-0.0188,-0.0574,-0.041,-0.0208,-0.0661,2834,2019-08-07 17:01:01:180
-0.5035,9.8643,0.9553,0.2338,-0.0531,-0.6368,-0.041,-0.0208,-0.0661,2837,2019-08-07 17:01:01:183
-0.5035,9.8643,0.9553,0.2338,-0.0531,-0.6368,-0.041,-0.0208,-0.0661,2843,2019-08-07 17:01:01:189
-0.4652,9.8929,0.7149,0.1464,-0.0916,-0.4524,-0.026,-0.0943,-0.0522,2848,2019-08-07 17:01:01:194
-0.4652,9.8929,0.7149,0.1464,-0.0916,-0.4524,-0.026,-0.0943,-0.0522,2853,2019-08-07 17:01:01:199
-0.4652,9.8929,0.7149,0.1464,-0.0916,-0.4524,-0.0218,-0.0986,-0.032,2858,2019-08-07 17:01:01:204
-0.4317,10.017,0.5735,0.1464,-0.0916,-0.4524,-0.0218,-0.0986,-0.032,2863,2019-08-07 17:01:01:209
-0.4317,10.017,0.5735,0.1534,-0.2496,-0.3174,-0.0228,-0.0741,-0.0299,2868,2019-08-07 17:01:01:214
-0.4317,10.017,0.5735,0.1534,-0.2496,-0.3174,-0.0228,-0.0741,-0.0299,2873,2019-08-07 17:01:01:219
-0.4892,10.0266,0.8658,0.1534,-0.2496,-0.3174,-0.0228,-0.0741,-0.0299,2878,2019-08-07 17:01:01:224
-0.4892,10.0266,0.8658,0.1534,-0.2496,-0.3174,-0.0207,-0.0677,-0.0171,2883,2019-08-07 17:01:01:229
-0.5035,9.8404,1.1722,0.1724,-0.04,-0.8916,-0.0207,-0.0677,-0.0171,2888,2019-08-07 17:01:01:234
-0.5035,9.8404,1.1722,0.1724,-0.04,-0.8916,-0.0047,-0.0847,-0.0032,2893,2019-08-07 17:01:01:239
-0.5035,9.8404,1.1722,0.1724,-0.04,-0.8916,-0.0047,-0.0847,-0.0032,2897,2019-08-07 17:01:01:243
-0.403,9.7879,0.7008,0.1724,-0.04,-0.8916,-0.0047,-0.0624,0.0042,2903,2019-08-07 17:01:01:249
-0.403,9.7879,0.7008,0.072,-0.0067,-0.4667,-0.0047,-0.0624,0.0042,2908,2019-08-07 17:01:01:254
-0.3886,9.8165,0.8375,0.072,-0.0067,-0.4667,-0.0069,-0.0219,0.0096,2912,2019-08-07 17:01:01:258
-0.3886,9.8165,0.8375,0.072,-0.0067,-0.4667,-0.0069,-0.0219,0.0096,2918,2019-08-07 17:01:01:264
-0.3886,9.8165,0.8375,0.072,-0.0067,-0.4667,0.0123,-0.0421,0.016,2923,2019-08-07 17:01:01:269
-0.3312,9.8547,1.0355,-0.0591,-0.0688,-0.6733,0.0123,-0.0421,0.016,2927,2019-08-07 17:01:01:273
-0.3312,9.8547,1.0355,-0.0591,-0.0688,-0.6733,0.0304,-0.0464,0.0192,2933,2019-08-07 17:01:01:279
-0.2115,9.8595,0.7291,-0.0591,-0.0688,-0.6733,0.0304,-0.0464,0.0192,2938,2019-08-07 17:01:01:284
-0.2115,9.8595,0.7291,-0.0591,-0.0688,-0.6733,0.0304,-0.0464,0.0192,2943,2019-08-07 17:01:01:289
-0.2115,9.8595,0.7291,-0.1119,0.0125,-0.7266,0.0325,-0.0198,0.017,2948,2019-08-07 17:01:01:294
-0.135,9.7926,1.0355,-0.1119,0.0125,-0.7266,0.0325,-0.0198,0.017,2953,2019-08-07 17:01:01:299
-0.135,9.7926,1.0355,-0.1119,0.0125,-0.7266,0.0613,-0.0144,0.0138,2958,2019-08-07 17:01:01:304
-0.1015,9.764,1.0167,-0.1119,0.0125,-0.7266,0.0613,-0.0144,0.0138,2963,2019-08-07 17:01:01:309
-0.1015,9.764,1.0167,-0.2464,0.0176,-0.5387,0.0773,-0.008,0.0053,2969,2019-08-07 17:01:01:315
-0.1015,9.764,1.0167,-0.2464,0.0176,-0.5387,0.0773,-0.008,0.0053,2973,2019-08-07 17:01:01:319
-0.0106,9.7592,0.7668,-0.2464,0.0176,-0.5387,0.0773,-0.008,0.0053,2978,2019-08-07 17:01:01:324
-0.0106,9.7592,0.7668,-0.2464,0.0176,-0.5387,0.0815,0.042,-0.0053,2984,2019-08-07 17:01:01:330
-0.0536,9.8642,0.7008,-0.2639,-0.0632,-0.4284,0.0815,0.042,-0.0053,2988,2019-08-07 17:01:01:334
-0.0536,9.8642,0.7008,-0.2639,-0.0632,-0.4284,0.0773,0.091,-0.0181,2993,2019-08-07 17:01:01:339
-0.0536,9.8642,0.7008,-0.2639,-0.0632,-0.4284,0.0773,0.091,-0.0181,2998,2019-08-07 17:01:01:344
-0.2307,10.0838,0.7008,-0.0884,-0.2826,-0.4346,0.0741,0.0804,-0.0277,3003,2019-08-07 17:01:01:349
-0.2307,10.0838,0.7008,-0.0884,-0.2826,-0.4346,0.0741,0.0804,-0.0277,3008,2019-08-07 17:01:01:354
-0.5081,10.0886,0.7008,0.1858,-0.2874,-0.4401,0.0677,0.0559,-0.0299,3014,2019-08-07 17:01:01:360
-0.5081,10.0886,0.7008,0.1858,-0.2874,-0.4401,0.0677,0.0559,-0.0299,3018,2019-08-07 17:01:01:364
-0.5751,9.9836,0.7857,0.1858,-0.2874,-0.4401,0.056,0.0165,-0.0224,3022,2019-08-07 17:01:01:368
-0.5751,9.9836,0.7857,0.2031,-0.2301,-0.5189,0.056,0.0165,-0.0224,3029,2019-08-07 17:01:01:375
-0.5751,9.9836,0.7857,0.2031,-0.2301,-0.5189,0.056,0.0165,-0.0224,3032,2019-08-07 17:01:01:378
-0.3455,9.9454,0.7197,0.2031,-0.2301,-0.5189,0.0624,-0.0389,-0.016,3038,2019-08-07 17:01:01:384
-0.3455,9.9454,0.7197,0.2031,-0.2301,-0.5189,0.0624,-0.0389,-0.016,3042,2019-08-07 17:01:01:388
-0.3981,9.9311,0.8093,0.0647,-0.1298,-0.5645,0.0549,-0.0198,-0.0213,3048,2019-08-07 17:01:01:394
-0.3981,9.9311,0.8093,0.0647,-0.1298,-0.5645,0.0549,-0.0198,-0.0213,3053,2019-08-07 17:01:01:399
-0.3981,9.9311,0.8093,0.0647,-0.1298,-0.5645,0.056,-0.0176,-0.0181,3058,2019-08-07 17:01:01:404
-0.3694,9.9645,0.748,0.0345,-0.1632,-0.5058,0.056,-0.0176,-0.0181,3064,2019-08-07 17:01:01:410
-0.3694,9.9645,0.748,0.0345,-0.1632,-0.5058,0.0528,-6.0E-4,-0.0181,3068,2019-08-07 17:01:01:414
-0.3694,9.9645,0.748,0.0345,-0.1632,-0.5058,0.0528,-6.0E-4,-0.0181,3072,2019-08-07 17:01:01:418
-0.3598,9.8881,0.6396,0.0345,-0.1632,-0.5058,0.0528,-6.0E-4,-0.0181,3078,2019-08-07 17:01:01:424
-0.3598,9.8881,0.6396,-0.0366,-0.1154,-0.352,0.0368,0.0324,-0.0245,3083,2019-08-07 17:01:01:429
-0.3598,9.8881,0.6396,-0.0366,-0.1154,-0.352,0.0368,0.0324,-0.0245,3088,2019-08-07 17:01:01:434
-0.3359,9.9549,0.6301,-0.0366,-0.1154,-0.352,0.0294,0.0282,-0.0224,3093,2019-08-07 17:01:01:439
-0.3359,9.9549,0.6301,-0.0366,-0.1154,-0.352,0.0294,0.0282,-0.0224,3098,2019-08-07 17:01:01:444
0.2047,9.0479,-0.8547,-0.6256,1.3108,-5.7005,-0.1645,-1.085,-0.0288,3103,2019-08-07 17:01:01:449
0.2047,9.0479,-0.8547,-0.6256,1.3108,-5.7005,-0.1645,-1.085,-0.0288,3108,2019-08-07 17:01:01:454
0.2047,9.0479,-0.8547,-0.6256,1.3108,-5.7005,0.2531,0.0932,-0.049,3113,2019-08-07 17:01:01:459
0.1234,10.0361,0.9082,-0.6256,1.3108,-5.7005,0.2531,0.0932,-0.049,3118,2019-08-07 17:01:01:464
0.1234,10.0361,0.9082,-0.8263,0.2374,-0.2858,-0.172,-0.0357,-0.0362,3123,2019-08-07 17:01:01:469
0.2287,9.7688,0.9837,-0.8263,0.2374,-0.2858,-0.172,-0.0357,-0.0362,3128,2019-08-07 17:01:01:474
0.2287,9.7688,0.9837,-0.8263,0.2374,-0.2858,0.0933,0.3115,-0.0437,3133,2019-08-07 17:01:01:479
0.2287,9.7688,0.9837,-0.8263,0.2374,-0.2858,0.0933,0.3115,-0.0437,3138,2019-08-07 17:01:01:484
-0.3119,9.8977,0.5689,-0.0431,-0.0972,-0.3199,-0.0218,0.2253,-0.0639,3143,2019-08-07 17:01:01:489
-0.3119,9.8977,0.5689,-0.0431,-0.0972,-0.3199,-0.0218,0.2253,-0.0639,3148,2019-08-07 17:01:01:494
-0.245,9.9454,0.7056,-0.0431,-0.0972,-0.3199,-0.0218,0.2253,-0.0639,3153,2019-08-07 17:01:01:499
-0.245,9.9454,0.7056,-0.0431,-0.0972,-0.3199,0.0336,0.4617,-0.0448,3157,2019-08-07 17:01:01:503
-0.245,9.9454,0.7056,-0.0837,-0.1502,-0.5752,0.0336,0.4617,-0.0448,3163,2019-08-07 17:01:01:509
-0.4602,9.9263,0.6207,-0.0837,-0.1502,-0.5752,0.0272,0.4106,-0.0373,3168,2019-08-07 17:01:01:514
-0.4602,9.9263,0.6207,-0.0837,-0.1502,-0.5752,0.0272,0.4106,-0.0373,3173,2019-08-07 17:01:01:519
-0.4602,9.9263,0.6207,-0.0837,-0.1502,-0.5752,-0.0378,0.2466,-0.0661,3178,2019-08-07 17:01:01:524
-0.9243,10.0218,1.0968,0.544,-0.2223,-0.8476,-0.0378,0.2466,-0.0661,3183,2019-08-07 17:01:01:529
-0.9243,10.0218,1.0968,0.544,-0.2223,-0.8476,-0.0058,0.1209,-0.0341,3188,2019-08-07 17:01:01:534
-0.8047,9.9502,1.0591,0.544,-0.2223,-0.8476,-0.0058,0.1209,-0.0341,3193,2019-08-07 17:01:01:539
-0.8047,9.9502,1.0591,0.544,-0.2223,-0.8476,0.0123,0.0143,-0.0203,3198,2019-08-07 17:01:01:544
-0.8047,9.9502,1.0591,0.2652,-0.137,-0.7181,0.0123,0.0143,-0.0203,3203,2019-08-07 17:01:01:549
-0.6707,9.9979,0.7763,0.2652,-0.137,-0.7181,0.0123,0.0143,-0.0203,3208,2019-08-07 17:01:01:554