ACCELEROMETER X (m/s²),ACCELEROMETER Y (m/s²),ACCELEROMETER Z (m/s²),LINEAR ACCELERATION X (m/s²),LINEAR ACCELERATION Y (m/s²),LINEAR ACCELERATION Z (m/s²),GYROSCOPE X (rad/s),GYROSCOPE Y (rad/s),GYROSCOPE Z (rad/s),Time since start in ms ,YYYY-MO-DD HH-MI-SS_SSS
-0.47,9.8256,0.6452,-0.0298,0.0246,-0.3863,0.2019,0.0527,-0.066,3,2019-08-07 17:01:56:894
-0.47,9.8256,0.6452,-0.0298,0.0246,-0.3863,0.2019,0.0527,-0.066,8,2019-08-07 17:01:56:899
-0.5035,10.0022,0.4096,0.0322,-0.1606,-0.0717,0.1934,0.0516,-0.0639,12,2019-08-07 17:01:56:903
-0.5035,10.0022,0.4096,0.0322,-0.1606,-0.0717,0.1934,0.0516,-0.0639,18,2019-08-07 17:01:56:909
-0.5035,10.0022,0.4096,0.0322,-0.1606,-0.0717,0.1902,0.0537,-0.0628,23,2019-08-07 17:01:56:914
-0.6757,10.0929,0.5415,0.0322,-0.1606,-0.0717,0.1902,0.0537,-0.0628,28,2019-08-07 17:01:56:919
-0.6757,10.0929,0.5415,0.2955,-0.241,-0.2693,0.187,0.0367,-0.0554,33,2019-08-07 17:01:56:924
-0.6757,10.0929,0.5415,0.2955,-0.241,-0.2693,0.187,0.0367,-0.0554,38,2019-08-07 17:01:56:929
-0.757,10.0261,0.5793,0.2955,-0.241,-0.2693,0.187,0.0367,-0.0554,42,2019-08-07 17:01:56:933
-0.757,10.0261,0.5793,0.2955,-0.241,-0.2693,0.1891,-0.0123,-0.0458,48,2019-08-07 17:01:56:939
-0.6135,9.9497,0.386,0.2116,-0.1927,-0.1119,0.1891,-0.0123,-0.0458,53,2019-08-07 17:01:56:944
-0.6135,9.9497,0.386,0.2116,-0.1927,-0.1119,0.1806,-0.057,-0.0426,58,2019-08-07 17:01:56:949
-0.6135,9.9497,0.386,0.2116,-0.1927,-0.1119,0.1806,-0.057,-0.0426,62,2019-08-07 17:01:56:953
-0.5418,9.9402,0.2399,0.2116,-0.1927,-0.1119,0.17,-0.0613,-0.0373,68,2019-08-07 17:01:56:959
-0.5418,9.9402,0.2399,0.0071,-0.0679,0.0282,0.17,-0.0613,-0.0373,73,2019-08-07 17:01:56:964
-0.3743,9.859,0.2823,0.0071,-0.0679,0.0282,0.1561,-0.0549,-0.0383,78,2019-08-07 17:01:56:969
-0.3743,9.859,0.2823,0.0071,-0.0679,0.0282,0.1561,-0.0549,-0.0383,83,2019-08-07 17:01:56:974
-0.3743,9.859,0.2823,0.0071,-0.0679,0.0282,0.138,-0.0688,-0.0394,88,2019-08-07 17:01:56:979
-0.3887,9.9736,0.2587,-0.0714,-0.1773,-0.0198,0.138,-0.0688,-0.0394,92,2019-08-07 17:01:56:983
-0.3887,9.9736,0.2587,-0.0714,-0.1773,-0.0198,0.1273,-0.0634,-0.0383,98,2019-08-07 17:01:56:989
-0.3887,9.9736,0.2587,-0.0714,-0.1773,-0.0198,0.1273,-0.0634,-0.0383,103,2019-08-07 17:01:56:994
-0.5226,9.9593,0.4284,-0.0714,-0.1773,-0.0198,0.1231,-0.0485,-0.0415,108,2019-08-07 17:01:56:999
-0.5226,9.9593,0.4284,0.0262,-0.096,-0.3115,0.1231,-0.0485,-0.0415,113,2019-08-07 17:01:57:004
-0.5322,9.8399,0.6217,0.0262,-0.096,-0.3115,0.122,-0.0592,-0.033,118,2019-08-07 17:01:57:009
-0.5322,9.8399,0.6217,0.0262,-0.096,-0.3115,0.122,-0.0592,-0.033,122,2019-08-07 17:01:57:013
-0.5322,9.8399,0.6217,0.0262,-0.096,-0.3115,0.1231,-0.0752,-0.0224,128,2019-08-07 17:01:57:019
-0.5944,9.9354,0.386,0.1111,-0.1483,-0.1677,0.1231,-0.0752,-0.0224,133,2019-08-07 17:01:57:024
-0.5944,9.9354,0.386,0.1111,-0.1483,-0.1677,0.1135,-0.056,-0.0181,137,2019-08-07 17:01:57:028
-0.5274,9.8638,0.452,0.0515,-0.0671,-0.2675,0.1135,-0.056,-0.0181,143,2019-08-07 17:01:57:034
-0.5274,9.8638,0.452,0.0515,-0.0671,-0.2675,0.1082,-0.0847,-0.0245,148,2019-08-07 17:01:57:039
-0.5274,9.8638,0.452,0.0515,-0.0671,-0.2675,0.1082,-0.0847,-0.0245,153,2019-08-07 17:01:57:044
-0.4844,10.0166,0.4143,0.0515,-0.0671,-0.2675,0.1082,-0.0847,-0.0245,158,2019-08-07 17:01:57:049
-0.4844,10.0166,0.4143,-0.1291,-0.1719,-0.122,0.122,-0.1199,-0.0106,163,2019-08-07 17:01:57:054
-0.4844,10.0166,0.4143,-0.1291,-0.1719,-0.122,0.122,-0.1199,-0.0106,168,2019-08-07 17:01:57:059
-0.2834,9.9211,0.1974,-0.1291,-0.1719,-0.122,0.1156,-0.1231,-0.0181,173,2019-08-07 17:01:57:064
-0.2834,9.9211,0.1974,-0.1291,-0.1719,-0.122,0.1156,-0.1231,-0.0181,178,2019-08-07 17:01:57:069
-0.3504,9.9449,0.2163,-0.1311,-0.1478,-0.0722,0.0997,-0.0709,-0.0266,182,2019-08-07 17:01:57:073
-0.3504,9.9449,0.2163,-0.1311,-0.1478,-0.0722,0.0997,-0.0709,-0.0266,188,2019-08-07 17:01:57:079
-0.3504,9.9449,0.2163,-0.1311,-0.1478,-0.0722,0.0826,-0.0325,-0.0256,193,2019-08-07 17:01:57:084
-0.4365,9.9497,0.3624,-0.1311,-0.1478,-0.0722,0.0826,-0.0325,-0.0256,199,2019-08-07 17:01:57:090
-0.4365,9.9497,0.3624,-0.0111,-0.1765,-0.2143,0.0752,-0.024,-0.0266,203,2019-08-07 17:01:57:094
-0.4365,9.9497,0.3624,-0.0111,-0.1765,-0.2143,0.0752,-0.024,-0.0266,208,2019-08-07 17:01:57:099
-0.5466,9.9831,0.3483,-0.0111,-0.1765,-0.2143,0.0666,-0.023,-0.0224,213,2019-08-07 17:01:57:104
-0.5466,9.9831,0.3483,-0.0111,-0.1765,-0.2143,0.0666,-0.023,-0.0224,218,2019-08-07 17:01:57:109
-0.5705,9.9879,0.5792,0.0792,-0.1909,-0.4608,0.0666,-0.023,-0.0224,223,2019-08-07 17:01:57:114
-0.5705,9.9879,0.5792,0.0792,-0.1909,-0.4608,0.0773,-0.0581,-0.0096,228,2019-08-07 17:01:57:119
-0.5705,9.9879,0.5792,0.0792,-0.1909,-0.4608,0.0773,-0.0581,-0.0096,233,2019-08-07 17:01:57:124
-0.4461,9.8781,0.485,0.0792,-0.1909,-0.4608,0.0879,-0.0997,-0.0138,238,2019-08-07 17:01:57:129
-0.4461,9.8781,0.485,-0.1429,-0.0716,-0.3741,0.0879,-0.0997,-0.0138,244,2019-08-07 17:01:57:135
-0.2595,9.8495,0.4425,-0.1429,-0.0716,-0.3741,0.0943,-0.1124,-0.017,248,2019-08-07 17:01:57:139
-0.2595,9.8495,0.4425,-0.1429,-0.0716,-0.3741,0.0943,-0.1124,-0.017,253,2019-08-07 17:01:57:144
-0.2595,9.8495,0.4425,-0.1429,-0.0716,-0.3741,0.0943,-0.1124,-0.017,257,2019-08-07 17:01:57:148
-0.2835,10.1311,0.1974,-0.1429,-0.0716,-0.3741,0.0933,-0.1039,-0.0256,263,2019-08-07 17:01:57:154
-0.2835,10.1311,0.1974,-0.2547,-0.3579,-0.069,0.0933,-0.1039,-0.0256,268,2019-08-07 17:01:57:159
-0.2835,10.0643,0.3624,-0.2547,-0.3579,-0.069,0.0869,-0.0219,-0.0288,273,2019-08-07 17:01:57:164
-0.1543,10.0643,0.3624,-0.2547,-0.3579,-0.069,0.0869,-0.0219,-0.0288,278,2019-08-07 17:01:57:169
-0.1543,10.0643,0.3624,-0.2547,-0.3579,-0.069,0.0858,0.0058,-0.0437,283,2019-08-07 17:01:57:174
-0.3744,9.9115,0.5132,-0.1819,-0.1861,-0.4001,0.0858,0.0058,-0.0437,288,2019-08-07 17:01:57:179
-0.3744,9.9115,0.5132,-0.1819,-0.1861,-0.4001,0.0858,0.0058,-0.0437,292,2019-08-07 17:01:57:183
-0.4701,9.711,0.2634,-0.1819,-0.1861,-0.4001,0.0975,-0.0027,-0.033,299,2019-08-07 17:01:57:190
-0.4701,9.711,0.2634,-0.1819,-0.1861,-0.4001,0.0975,-0.0027,-0.033,303,2019-08-07 17:01:57:194
-0.4701,9.711,0.2634,0.0271,0.0619,-0.2418,0.0911,-0.0144,-0.0277,308,2019-08-07 17:01:57:199
-0.6088,9.6681,0.485,0.0271,0.0619,-0.2418,0.0911,-0.0144,-0.0277,313,2019-08-07 17:01:57:204
-0.6088,9.6681,0.485,0.0271,0.0619,-0.2418,0.0933,-0.0283,-0.0192,317,2019-08-07 17:01:57:208
-0.6088,9.6681,0.485,0.0271,0.0619,-0.2418,0.0933,-0.0283,-0.0192,323,2019-08-07 17:01:57:214
-0.8002,9.8113,0.5132,0.2902,-0.0146,-0.4689,0.0975,-0.057,-0.0011,328,2019-08-07 17:01:57:219
-0.8002,9.8113,0.5132,0.2902,-0.0146,-0.4689,0.0975,-0.057,-0.0011,333,2019-08-07 17:01:57:224
-0.8002,9.8113,0.5132,0.2902,-0.0146,-0.4689,0.1156,-0.0762,-0.0011,338,2019-08-07 17:01:57:229
-0.6232,9.9975,0.6641,0.2902,-0.0146,-0.4689,0.1156,-0.0762,-0.0011,343,2019-08-07 17:01:57:234
-0.6232,9.9975,0.6641,0.0161,-0.1865,-0.6599,0.1423,-0.1156,0.0064,348,2019-08-07 17:01:57:239
-0.2596,9.9927,0.5274,0.0161,-0.1865,-0.6599,0.1423,-0.1156,0.0064,353,2019-08-07 17:01:57:244
-0.2596,9.9927,0.5274,0.0161,-0.1865,-0.6599,0.155,-0.1061,-0.0011,357,2019-08-07 17:01:57:248
-0.2596,9.9927,0.5274,0.0161,-0.1865,-0.6599,0.155,-0.1061,-0.0011,363,2019-08-07 17:01:57:254
0.0187,9.8971,0.0656,-0.4985,-0.1194,-0.0591,0.155,-0.1061,-0.0011,368,2019-08-07 17:01:57:259
0.0187,9.8971,0.0656,-0.4985,-0.1194,-0.0591,0.1401,0.0015,-0.0202,372,2019-08-07 17:01:57:263
-0.1966,10.0117,0.0892,-0.4985,-0.1194,-0.0591,0.1401,0.0015,-0.0202,378,2019-08-07 17:01:57:269
-0.1966,10.0117,0.0892,-0.4985,-0.1194,-0.0591,0.1369,0.0942,-0.0128,383,2019-08-07 17:01:57:274
-0.1966,10.0117,0.0892,-0.2596,0.0142,-0.5336,0.1369,0.0942,-0.0128,388,2019-08-07 17:01:57:279
-0.4023,9.8351,0.6313,-0.2596,0.0142,-0.5336,0.1455,0.0846,-0.0202,392,2019-08-07 17:01:57:283
-0.4023,9.8351,0.6313,0.0543,-0.0146,-0.5882,0.1455,0.0846,-0.0202,399,2019-08-07 17:01:57:290
-0.4023,9.8351,0.6313,0.0543,-0.0146,-0.5882,0.1455,0.0846,-0.0202,402,2019-08-07 17:01:57:293
-0.7563,9.7969,0.3579,0.0543,-0.0146,-0.5882,0.1657,0.0239,-0.0074,408,2019-08-07 17:01:57:299
-0.7563,9.7969,0.3579,0.0543,-0.0146,-0.5882,0.1657,0.0239,-0.0074,413,2019-08-07 17:01:57:304
-0.7276,9.878,0.1457,0.2136,-0.0817,-0.2126,0.1625,-0.007,-0.0032,418,2019-08-07 17:01:57:309
-0.7276,9.878,0.1457,0.2136,-0.0817,-0.2126,0.1625,-0.007,-0.0032,422,2019-08-07 17:01:57:313
-0.7276,9.878,0.1457,0.2136,-0.0817,-0.2126,0.1753,-0.0571,0.0043,428,2019-08-07 17:01:57:319
-0.6223,9.9592,0.3107,0.2136,-0.0817,-0.2126,0.1753,-0.0571,0.0043,432,2019-08-07 17:01:57:323
-0.6223,9.9592,0.3107,0.06,0.0278,-0.3144,0.1923,-0.0954,0.0075,438,2019-08-07 17:01:57:329
-0.5362,9.7014,0.0562,0.06,0.0278,-0.3144,0.1923,-0.0954,0.0075,443,2019-08-07 17:01:57:334
-0.5362,9.7014,0.0562,0.06,0.0278,-0.3144,0.1817,-0.1135,0.0,449,2019-08-07 17:01:57:340
-0.4979,9.8733,-0.3304,0.06,0.0278,-0.3144,0.1817,-0.1135,0.0,453,2019-08-07 17:01:57:344
-0.4979,9.8733,-0.3304,0.0127,-0.0681,0.2067,0.1646,-0.0645,0.0043,458,2019-08-07 17:01:57:349
-0.4979,9.8733,-0.3304,0.0127,-0.0681,0.2067,0.1646,-0.0645,0.0043,463,2019-08-07 17:01:57:354
-0.4166,9.9067,-0.1984,0.0127,-0.0681,0.2067,0.138,0.0058,0.0,468,2019-08-07 17:01:57:359
-0.4166,9.9067,-0.1984,0.0127,-0.0681,0.2067,0.138,0.0058,0.0,473,2019-08-07 17:01:57:364
-0.4166,9.9067,-0.1984,-0.0584,-0.0924,-0.1756,0.1316,0.0282,-0.0085,478,2019-08-07 17:01:57:369
-0.4309,9.9067,0.009,-0.0584,-0.0924,-0.1756,0.1316,0.0282,-0.0085,483,2019-08-07 17:01:57:374
-0.4309,9.9067,0.009,-0.0584,-0.0924,-0.1756,0.1316,0.0282,-0.0085,488,2019-08-07 17:01:57:379
-0.4309,9.7778,0.1316,-0.0584,-0.0924,-0.1756,0.1476,0.0175,-0.0117,493,2019-08-07 17:01:57:384
-0.4309,9.7778,0.1316,-0.0691,-0.0786,-0.1548,0.1476,0.0175,-0.0117,498,2019-08-07 17:01:57:389
-0.4309,9.7778,0.1316,-0.0691,-0.0786,-0.1548,0.1487,0.0196,-0.0096,502,2019-08-07 17:01:57:393
-0.2587,9.8542,-0.2031,-0.0691,-0.0786,-0.1548,0.1487,0.0196,-0.0096,508,2019-08-07 17:01:57:399
-0.2587,9.8542,-0.2031,-0.0691,-0.0786,-0.1548,0.1337,0.0644,-0.0053,513,2019-08-07 17:01:57:404
-0.3783,9.9878,-0.3963,-0.1358,-0.1937,0.1799,0.1337,0.0644,-0.0053,518,2019-08-07 17:01:57:409
-0.3783,9.9878,-0.3963,-0.1358,-0.1937,0.1799,0.0954,0.1251,-0.0128,522,2019-08-07 17:01:57:413
-0.3783,9.9878,-0.3963,-0.1358,-0.1937,0.1799,0.0954,0.1251,-0.0128,528,2019-08-07 17:01:57:419
-0.6606,9.964,-0.1324,-0.1358,-0.1937,0.1799,0.0858,0.1336,-0.0074,533,2019-08-07 17:01:57:424
-0.6606,9.964,-0.1324,0.2735,-0.1943,-0.287,0.0858,0.1336,-0.0074,538,2019-08-07 17:01:57:429
-0.6606,9.964,-0.1324,0.2735,-0.1943,-0.287,0.0943,0.0601,0.0011,543,2019-08-07 17:01:57:434
-0.8041,9.9449,0.0326,0.2533,-0.1659,-0.3049,0.0943,0.0601,0.0011,548,2019-08-07 17:01:57:439
-0.8041,9.9449,0.0326,0.2533,-0.1659,-0.3049,0.1039,-0.0198,0.0021,553,2019-08-07 17:01:57:444
-0.627,9.8924,-0.0287,0.2533,-0.1659,-0.3049,0.1039,-0.0198,0.0021,558,2019-08-07 17:01:57:449
-0.627,9.8924,-0.0287,0.2533,-0.1659,-0.3049,0.1082,-0.0709,0.0,563,2019-08-07 17:01:57:454
-0.627,9.8924,-0.0287,-0.0395,-0.2667,0.0343,0.1082,-0.0709,0.0,567,2019-08-07 17:01:57:458
-0.4644,9.9974,-0.4105,-0.0395,-0.2667,0.0343,0.0933,-0.0656,0.0064,573,2019-08-07 17:01:57:464
-0.4644,9.9974,-0.4105,-0.0395,-0.2667,0.0343,0.0933,-0.0656,0.0064,578,2019-08-07 17:01:57:469
-0.3448,10.026,-0.5189,-0.0395,-0.2667,0.0343,0.0624,-0.0123,-0.0021,583,2019-08-07 17:01:57:474
-0.3448,10.026,-0.5189,-0.1243,-0.2384,0.1771,0.0624,-0.0123,-0.0021,588,2019-08-07 17:01:57:479
-0.3448,10.026,-0.5189,-0.1243,-0.2384,0.1771,0.0624,-0.0123,-0.0021,593,2019-08-07 17:01:57:484
-0.4787,9.9831,-0.2643,-0.1243,-0.2384,0.1771,0.0432,0.025,-0.0096,598,2019-08-07 17:01:57:489
-0.4787,9.9831,-0.2643,-0.1243,-0.2384,0.1771,0.0432,0.025,-0.0096,603,2019-08-07 17:01:57:494
-0.4787,9.9831,-0.2643,-0.1243,-0.2384,0.1771,0.0283,-0.0049,-0.0128,607,2019-08-07 17:01:57:498
-0.4835,9.8828,-0.2596,-0.0352,-0.0908,-0.0285,0.0283,-0.0049,-0.0128,613,2019-08-07 17:01:57:504
-0.4835,9.8828,-0.2596,-0.0352,-0.0908,-0.0285,0.0187,-0.0176,-0.0213,618,2019-08-07 17:01:57:509
-0.4883,9.9544,-0.1041,-0.0352,-0.0908,-0.0285,0.0187,-0.0176,-0.0213,623,2019-08-07 17:01:57:514
-0.4883,9.9544,-0.1041,-0.0352,-0.0908,-0.0285,0.0144,-0.0038,-0.0213,628,2019-08-07 17:01:57:519
-0.4883,9.9544,-0.1041,-0.0487,-0.1818,-0.1494,0.0144,-0.0038,-0.0213,632,2019-08-07 17:01:57:523
-0.4596,9.9449,-0.1323,-0.0487,-0.1818,-0.1494,0.007,5.0E-4,-0.0213,638,2019-08-07 17:01:57:529
-0.4596,9.9449,-0.1323,-0.0487,-0.1818,-0.1494,0.007,5.0E-4,-0.0213,643,2019-08-07 17:01:57:534
-0.5457,10.1024,-0.2973,0.0526,-0.3395,-0.0037,-0.0058,0.0196,-0.0213,648,2019-08-07 17:01:57:539
-0.5457,10.1024,-0.2973,0.0526,-0.3395,-0.0037,-0.0058,0.0196,-0.0213,653,2019-08-07 17:01:57:544
-0.5457,10.1024,-0.2973,0.0526,-0.3395,-0.0037,-0.0058,0.0196,-0.0213,658,2019-08-07 17:01:57:549
-0.5887,10.0738,-0.1701,0.0526,-0.3395,-0.0037,-0.0143,0.0463,-0.0181,663,2019-08-07 17:01:57:554
-0.5887,10.0738,-0.1701,0.0526,-0.3395,-0.0037,-0.0143,0.0463,-0.0181,668,2019-08-07 17:01:57:559
-0.5887,10.0738,-0.1701,0.0872,-0.3062,-0.1608,-0.0186,0.0303,-0.0202,672,2019-08-07 17:01:57:563
-0.6318,10.0547,-0.0616,0.0872,-0.3062,-0.1608,-0.0186,0.0303,-0.0202,678,2019-08-07 17:01:57:569
-0.6318,10.0547,-0.0616,0.0872,-0.3062,-0.1608,-0.0101,-0.0027,-0.0202,683,2019-08-07 17:01:57:574
-0.5361,9.8542,0.0044,0.0872,-0.3062,-0.1608,-0.0101,-0.0027,-0.0202,688,2019-08-07 17:01:57:579
-0.5361,9.8542,0.0044,-0.0027,-0.0819,-0.2792,-0.0069,-0.0208,-0.0128,692,2019-08-07 17:01:57:583
-0.5074,9.8876,0.0751,-0.0027,-0.0819,-0.2792,-0.0016,-0.0294,-0.0096,699,2019-08-07 17:01:57:590
-0.5074,9.8876,0.0751,-0.0027,-0.0819,-0.2792,-0.0016,-0.0294,-0.0096,702,2019-08-07 17:01:57:593
-0.5074,9.8876,0.0751,-0.0027,-0.0819,-0.2792,-0.0016,-0.0294,-0.0096,708,2019-08-07 17:01:57:599
-0.4069,9.8876,0.0656,-0.1287,-0.0962,-0.3466,0.0048,-0.023,-0.0053,713,2019-08-07 17:01:57:604
-0.4069,9.8876,0.0656,-0.1287,-0.0962,-0.3466,0.0048,-0.023,-0.0053,718,2019-08-07 17:01:57:609
-0.383,9.9067,0.0939,-0.1287,-0.0962,-0.3466,0.0123,0.0069,-0.0085,723,2019-08-07 17:01:57:614
-0.383,9.9067,0.0939,-0.1287,-0.0962,-0.3466,0.0123,0.0069,-0.0085,728,2019-08-07 17:01:57:619
-0.383,9.9067,0.0939,-0.0621,-0.1058,-0.3502,0.0123,0.0069,-0.0085,732,2019-08-07 17:01:57:623
-0.4978,9.8923,0.0892,-0.0621,-0.1058,-0.3502,0.0166,0.041,-0.0042,738,2019-08-07 17:01:57:629
-0.4978,9.8923,0.0892,-0.0621,-0.1058,-0.3502,0.0166,0.041,-0.0042,743,2019-08-07 17:01:57:634
-0.5791,9.8732,-0.0145,-0.0621,-0.1058,-0.3502,0.0208,0.0559,-0.0032,748,2019-08-07 17:01:57:639
-0.5791,9.8732,-0.0145,0.1,-0.0915,-0.2812,0.0208,0.0559,-0.0032,753,2019-08-07 17:01:57:644
-0.5791,9.8732,-0.0145,0.1,-0.0915,-0.2812,0.0208,0.0559,-0.0032,759,2019-08-07 17:01:57:650
-0.6796,9.8876,0.0751,0.1,-0.0915,-0.2812,0.0304,0.0612,0.0107,764,2019-08-07 17:01:57:655
-0.6796,9.8876,0.0751,0.1,-0.0915,-0.2812,0.0304,0.0612,0.0107,768,2019-08-07 17:01:57:659
-0.5695,9.8828,0.0326,0.0817,-0.0868,-0.3137,0.0411,0.0367,0.0096,772,2019-08-07 17:01:57:663
-0.5695,9.8828,0.0326,0.0817,-0.0868,-0.3137,0.0411,0.0367,0.0096,778,2019-08-07 17:01:57:669
-0.5695,9.8828,0.0326,0.0817,-0.0868,-0.3137,0.0528,0.0218,0.0139,783,2019-08-07 17:01:57:674
-0.5647,9.8828,-0.0239,0.0817,-0.0868,-0.3137,0.0528,0.0218,0.0139,788,2019-08-07 17:01:57:679
-0.5647,9.8828,-0.0239,-0.064,-0.0821,-0.1754,0.0549,0.0175,0.0171,794,2019-08-07 17:01:57:685
-0.5647,9.8828,-0.0239,-0.064,-0.0821,-0.1754,0.0549,0.0175,0.0171,798,2019-08-07 17:01:57:689
-0.5073,9.9019,-0.2596,-0.064,-0.0821,-0.1754,0.0485,0.026,0.016,803,2019-08-07 17:01:57:694
-0.5073,9.9019,-0.2596,-0.064,-0.0821,-0.1754,0.0485,0.026,0.016,808,2019-08-07 17:01:57:699
-0.4929,9.8971,-0.1135,-0.0364,-0.1061,-0.1892,0.0421,0.0346,0.016,813,2019-08-07 17:01:57:704
-0.4929,9.8971,-0.1135,-0.0364,-0.1061,-0.1892,0.0421,0.0346,0.016,818,2019-08-07 17:01:57:709
-0.4929,9.8971,-0.1135,-0.0364,-0.1061,-0.1892,0.0496,0.0186,0.016,822,2019-08-07 17:01:57:713
-0.5264,9.9687,0.0562,-0.0364,-0.1061,-0.1892,0.0496,0.0186,0.016,828,2019-08-07 17:01:57:719
-0.5264,9.9687,0.0562,-0.0092,-0.0775,-0.338,0.0613,-0.0027,0.0181,833,2019-08-07 17:01:57:724
-0.5264,9.9687,0.0562,-0.0092,-0.0775,-0.338,0.0613,-0.0027,0.0181,838,2019-08-07 17:01:57:729
-0.4547,9.9114,-0.0192,-0.0092,-0.0775,-0.338,0.0688,-0.0123,0.0139,843,2019-08-07 17:01:57:734
-0.4547,9.9114,-0.0192,-0.0092,-0.0775,-0.338,0.0688,-0.0123,0.0139,848,2019-08-07 17:01:57:739
-0.4307,9.921,-0.1795,-0.0917,-0.1302,-0.1416,0.0688,-0.0123,0.0139,853,2019-08-07 17:01:57:744
-0.4307,9.921,-0.1795,-0.0917,-0.1302,-0.1416,0.0634,0.0037,0.0117,859,2019-08-07 17:01:57:750
-0.4307,9.921,-0.1795,-0.0917,-0.1302,-0.1416,0.0634,0.0037,0.0117,864,2019-08-07 17:01:57:755
-0.4929,9.9353,-0.203,-0.0917,-0.1302,-0.1416,0.0592,0.026,0.0107,867,2019-08-07 17:01:57:758
-0.4929,9.9353,-0.203,0.0355,-0.1352,-0.1623,0.0592,0.026,0.0107,873,2019-08-07 17:01:57:764
-0.5647,9.9401,-0.1276,0.0355,-0.1352,-0.1623,0.0549,0.0282,0.0085,878,2019-08-07 17:01:57:769
-0.5647,9.9401,-0.1276,0.0355,-0.1352,-0.1623,0.0549,0.0282,0.0085,883,2019-08-07 17:01:57:774
-0.5647,9.9401,-0.1276,0.0355,-0.1352,-0.1623,0.0602,-0.0027,0.0117,888,2019-08-07 17:01:57:779
-0.5264,9.8923,-0.0616,0.0231,-0.0972,-0.2332,0.0602,-0.0027,0.0117,893,2019-08-07 17:01:57:784
-0.5264,9.8923,-0.0616,0.0231,-0.0972,-0.2332,0.0592,-0.0219,0.0139,898,2019-08-07 17:01:57:789
-0.5264,9.8637,-0.2077,0.0231,-0.0972,-0.2332,0.0592,-0.0219,0.0139,903,2019-08-07 17:01:57:794
-0.5264,9.8637,-0.2077,0.0231,-0.0972,-0.2332,0.0592,-0.0219,0.0139,908,2019-08-07 17:01:57:799
-0.5264,9.8637,-0.2077,-0.0034,-0.1452,-0.1634,0.0592,-0.0187,0.0107,913,2019-08-07 17:01:57:804
-0.4929,9.9305,-0.2973,-0.0034,-0.1452,-0.1634,0.0592,-0.0187,0.0107,917,2019-08-07 17:01:57:808
-0.4929,9.9305,-0.2973,-0.0034,-0.1452,-0.1634,0.0475,-0.0134,0.0107,923,2019-08-07 17:01:57:814
-0.4929,9.9305,-0.2973,-0.0034,-0.1452,-0.1634,0.0475,-0.0134,0.0107,927,2019-08-07 17:01:57:818
-0.4977,10.0069,-0.302,-0.0874,-0.1597,-0.0638,0.0443,-0.0187,0.0021,933,2019-08-07 17:01:57:824
-0.4977,10.0069,-0.302,-0.0874,-0.1597,-0.0638,0.0443,-0.0187,0.0021,938,2019-08-07 17:01:57:829
-0.4977,10.0069,-0.302,-0.0874,-0.1597,-0.0638,0.0443,-0.0187,0.0021,942,2019-08-07 17:01:57:833
-0.469,9.9639,-0.3067,-0.0874,-0.1597,-0.0638,0.0389,-0.0315,0.0021,948,2019-08-07 17:01:57:839
-0.469,9.9639,-0.3067,-0.0821,-0.1122,-0.1932,0.0357,-0.0283,0.0,953,2019-08-07 17:01:57:844
-0.4259,9.9401,-0.2172,-0.0821,-0.1122,-0.1932,0.0357,-0.0283,0.0,958,2019-08-07 17:01:57:849
-0.4259,9.9401,-0.2172,-0.0821,-0.1122,-0.1932,0.0325,-0.0272,-0.0064,963,2019-08-07 17:01:57:854
-0.4259,9.9401,-0.2172,-0.0821,-0.1122,-0.1932,0.0325,-0.0272,-0.0064,968,2019-08-07 17:01:57:859
-0.3493,9.8828,-0.1936,-0.1159,-0.0838,-0.1182,0.0325,-0.0304,-0.0117,973,2019-08-07 17:01:57:864
-0.3493,9.8828,-0.1936,-0.1159,-0.0838,-0.1182,0.0325,-0.0304,-0.0117,977,2019-08-07 17:01:57:868
-0.3302,9.9066,-0.2454,-0.1159,-0.0838,-0.1182,0.0261,-0.0219,-0.017,983,2019-08-07 17:01:57:874
-0.3302,9.9066,-0.2454,-0.1159,-0.0838,-0.1182,0.0261,-0.0219,-0.017,988,2019-08-07 17:01:57:879
-0.3302,9.9066,-0.2454,-0.1159,-0.0838,-0.1182,0.0261,-0.0219,-0.017,993,2019-08-07 17:01:57:884
-0.3924,9.9687,-0.1936,-0.1415,-0.146,-0.2114,0.0219,-6.0E-4,-0.0192,998,2019-08-07 17:01:57:889
-0.3924,9.9687,-0.1936,-0.1415,-0.146,-0.2114,0.0219,-6.0E-4,-0.0192,1002,2019-08-07 17:01:57:893
-0.4163,9.9544,-0.1842,-0.1415,-0.146,-0.2114,0.0219,0.0143,-0.0224,1008,2019-08-07 17:01:57:899
-0.4163,9.9544,-0.1842,-0.0689,-0.1941,-0.1817,0.0219,0.0143,-0.0224,1013,2019-08-07 17:01:57:904
-0.4163,9.9544,-0.1842,-0.0689,-0.1941,-0.1817,0.0219,0.0175,-0.0256,1018,2019-08-07 17:01:57:909
-0.4928,9.9019,-0.236,-0.0689,-0.1941,-0.1817,0.0219,0.0175,-0.0256,1023,2019-08-07 17:01:57:914
-0.4928,9.9019,-0.236,-0.0689,-0.1941,-0.1817,0.0208,0.026,-0.0266,1028,2019-08-07 17:01:57:919
-0.5215,9.878,-0.236,0.0028,-0.1229,-0.1142,0.0208,0.026,-0.0266,1033,2019-08-07 17:01:57:924
-0.5215,9.878,-0.236,0.0028,-0.1229,-0.1142,0.0176,0.0346,-0.0256,1038,2019-08-07 17:01:57:929
-0.5215,9.878,-0.236,0.0028,-0.1229,-0.1142,0.0176,0.0346,-0.0256,1043,2019-08-07 17:01:57:934
-0.5454,9.9019,-0.0946,0.0028,-0.1229,-0.1142,0.0229,0.0228,-0.0277,1049,2019-08-07 17:01:57:940
-0.5454,9.9019,-0.0946,0.0028,-0.1229,-0.1142,0.0229,0.0228,-0.0277,1053,2019-08-07 17:01:57:944
-0.5072,9.921,0.028,-0.0069,-0.1137,-0.4838,0.0229,0.0228,-0.0277,1058,2019-08-07 17:01:57:949
-0.5072,9.921,0.028,-0.0069,-0.1137,-0.4838,0.0357,0.0037,-0.0202,1063,2019-08-07 17:01:57:954
-0.5072,9.921,0.028,-0.0069,-0.1137,-0.4838,0.0357,0.0037,-0.0202,1067,2019-08-07 17:01:57:958
-0.4402,9.9401,-0.2313,-0.0069,-0.1137,-0.4838,0.0389,0.0101,-0.0234,1073,2019-08-07 17:01:57:964
-0.4402,9.9401,-0.2313,-0.0392,-0.0711,-0.1781,0.0389,0.0101,-0.0234,1077,2019-08-07 17:01:57:968
-0.5406,9.9162,-0.1134,-0.0392,-0.0711,-0.1781,0.0347,0.0367,-0.0245,1083,2019-08-07 17:01:57:974
-0.5406,9.9162,-0.1134,-0.0392,-0.0711,-0.1781,0.0347,0.0367,-0.0245,1088,2019-08-07 17:01:57:979
-0.5406,9.9162,-0.1134,-0.0392,-0.0711,-0.1781,0.0443,0.0282,-0.0202,1093,2019-08-07 17:01:57:984
-0.4976,9.9496,-0.0899,-0.0383,-0.1623,-0.3066,0.0443,0.0282,-0.0202,1098,2019-08-07 17:01:57:989
-0.4976,9.9496,-0.0899,-0.0383,-0.1623,-0.3066,0.0443,0.0282,-0.0202,1103,2019-08-07 17:01:57:994
-0.4976,9.9496,-0.0899,-0.0383,-0.1623,-0.3066,0.057,0.0026,-0.0234,1108,2019-08-07 17:01:57:999
-0.5406,9.9066,-0.2171,-0.0383,-0.1623,-0.3066,0.057,0.0026,-0.0234,1113,2019-08-07 17:01:58:004
-0.5406,9.9066,-0.2171,0.0244,-0.1008,-0.273,0.0581,0.0196,-0.0224,1118,2019-08-07 17:01:58:009
-0.5406,9.9066,-0.2171,0.0244,-0.1008,-0.273,0.0581,0.0196,-0.0224,1122,2019-08-07 17:01:58:013
-0.5023,9.8255,-0.0192,0.0244,-0.1008,-0.273,0.0677,0.0271,-0.0245,1128,2019-08-07 17:01:58:019
-0.5023,9.8255,-0.0192,0.0244,-0.1008,-0.273,0.0677,0.0271,-0.0245,1134,2019-08-07 17:01:58:025
-0.4306,9.8303,-0.071,-0.1137,-0.0442,-0.3448,0.0805,0.0133,-0.0266,1138,2019-08-07 17:01:58:029
-0.4306,9.8303,-0.071,-0.1137,-0.0442,-0.3448,0.0805,0.0133,-0.0266,1143,2019-08-07 17:01:58:034
-0.4306,9.8303,-0.071,-0.1137,-0.0442,-0.3448,0.0805,0.0133,-0.0266,1148,2019-08-07 17:01:58:039
-0.4306,9.8875,-0.3114,-0.1137,-0.0442,-0.3448,0.0794,0.0335,-0.0319,1153,2019-08-07 17:01:58:044
-0.4306,9.8875,-0.3114,-0.0514,-0.0929,0.05,0.0794,0.0335,-0.0319,1158,2019-08-07 17:01:58:049
-0.5645,9.9973,-0.5754,-0.0514,-0.0929,0.05,0.0666,0.0644,-0.0341,1162,2019-08-07 17:01:58:053
-0.5645,9.9973,-0.5754,-0.0514,-0.0929,0.05,0.0666,0.0644,-0.0341,1169,2019-08-07 17:01:58:060
-0.5645,9.9973,-0.5754,-0.0514,-0.0929,0.05,0.0453,0.0836,-0.0266,1173,2019-08-07 17:01:58:064
-0.7224,9.9353,-0.6979,0.2204,-0.1654,0.1873,0.0453,0.0836,-0.0266,1178,2019-08-07 17:01:58:069
-0.7224,9.9353,-0.6979,0.2204,-0.1654,0.1873,0.0357,0.0665,-0.0224,1184,2019-08-07 17:01:58:075
-0.7702,9.9735,-0.2596,0.2204,-0.1654,0.1873,0.0357,0.0665,-0.0224,1188,2019-08-07 17:01:58:079
-0.7702,9.9735,-0.2596,0.2204,-0.1654,0.1873,0.0357,0.0665,-0.0224,1193,2019-08-07 17:01:58:084
-0.7702,9.9735,-0.2596,0.2204,-0.1654,0.1873,0.0357,0.0015,-0.0138,1197,2019-08-07 17:01:58:088
-0.6458,9.9496,-0.4811,0.0864,-0.166,0.0296,0.0357,0.0015,-0.0138,1203,2019-08-07 17:01:58:094
-0.6458,9.9496,-0.4811,0.0864,-0.166,0.0296,0.0315,-0.0464,-0.0085,1208,2019-08-07 17:01:58:099
-0.5167,9.9448,-0.5989,0.0864,-0.166,0.0296,0.0315,-0.0464,-0.0085,1213,2019-08-07 17:01:58:104
-0.5167,9.9448,-0.5989,0.0864,-0.166,0.0296,0.007,-0.008,-0.0106,1217,2019-08-07 17:01:58:108
-0.4736,9.9735,-0.3963,-0.1071,-0.1759,0.0758,0.007,-0.008,-0.0106,1223,2019-08-07 17:01:58:114
-0.4736,9.9735,-0.3963,-0.1071,-0.1759,0.0758,-0.0026,0.0058,-0.0181,1227,2019-08-07 17:01:58:118
-0.4736,9.9735,-0.3963,-0.1071,-0.1759,0.0758,-0.0026,0.0058,-0.0181,1234,2019-08-07 17:01:58:125
-0.531,9.8875,-0.0663,-0.0664,-0.133,-0.4175,0.0059,-0.0176,-0.016,1238,2019-08-07 17:01:58:129
-0.531,9.8875,-0.0663,-0.0664,-0.133,-0.4175,0.0059,-0.0176,-0.016,1243,2019-08-07 17:01:58:134
-0.4592,9.8303,-0.3255,-0.0664,-0.133,-0.4175,0.007,-0.0198,-0.0202,1248,2019-08-07 17:01:58:139
-0.4592,9.8303,-0.3255,-0.0664,-0.133,-0.4175,0.007,-0.0198,-0.0202,1253,2019-08-07 17:01:58:144
-0.4592,9.8303,-0.3255,-0.0982,-0.1093,-0.1442,0.007,-0.0198,-0.0202,1258,2019-08-07 17:01:58:149
-0.5118,9.8875,-0.2784,-0.0982,-0.1093,-0.1442,0.0038,0.0079,-0.0224,1262,2019-08-07 17:01:58:153
-0.5118,9.8875,-0.2784,-0.0571,-0.1189,-0.2804,0.0038,0.0079,-0.0224,1269,2019-08-07 17:01:58:160
-0.6171,9.9544,-0.1747,-0.0571,-0.1189,-0.2804,0.0048,0.0122,-0.0224,1273,2019-08-07 17:01:58:164
-0.6171,9.9544,-0.1747,-0.0571,-0.1189,-0.2804,0.0048,0.0122,-0.0224,1278,2019-08-07 17:01:58:169
-0.5979,9.9305,-0.236,-0.0571,-0.1189,-0.2804,0.008,0.0026,-0.0192,1283,2019-08-07 17:01:58:174
-0.5979,9.9305,-0.236,0.0295,-0.1192,-0.1433,0.008,0.0026,-0.0192,1288,2019-08-07 17:01:58:179
-0.5979,9.9305,-0.236,0.0295,-0.1192,-0.1433,0.0123,5.0E-4,-0.0149,1293,2019-08-07 17:01:58:184
-0.6075,9.8971,-0.1323,0.0137,-0.1622,-0.2845,0.0123,5.0E-4,-0.0149,1298,2019-08-07 17:01:58:189
-0.6075,9.8971,-0.1323,0.0137,-0.1622,-0.2845,0.0187,-0.0059,-0.0096,1303,2019-08-07 17:01:58:194
-0.6075,9.8971,-0.1323,0.0137,-0.1622,-0.2845,0.0187,-0.0059,-0.0096,1308,2019-08-07 17:01:58:199
-0.4688,9.9353,-0.137,0.0137,-0.1622,-0.2845,0.0261,-0.0112,-0.0106,1314,2019-08-07 17:01:58:205
-0.4688,9.9353,-0.137,-0.0596,-0.1576,-0.1683,0.0261,-0.0112,-0.0106,1318,2019-08-07 17:01:58:209
-0.4496,9.9448,-0.2784,-0.0596,-0.1576,-0.1683,0.0261,-0.0112,-0.0106,1323,2019-08-07 17:01:58:214
-0.4496,9.9448,-0.2784,-0.0596,-0.1576,-0.1683,0.0304,0.0111,-0.0106,1328,2019-08-07 17:01:58:219
-0.4496,9.9448,-0.2784,-0.1032,-0.1577,-0.194,0.0304,0.0111,-0.0106,1334,2019-08-07 17:01:58:225
-0.4448,9.9305,-0.17,-0.1032,-0.1577,-0.194,0.0325,0.0228,-0.016,1338,2019-08-07 17:01:58:229
-0.4448,9.9305,-0.17,-0.1032,-0.1577,-0.194,0.0325,0.0228,-0.016,1343,2019-08-07 17:01:58:234
-0.4352,9.9305,-0.2972,-0.1431,-0.1485,-0.1654,0.0357,0.0282,-0.0192,1348,2019-08-07 17:01:58:239
-0.4352,9.9305,-0.2972,-0.1431,-0.1485,-0.1654,0.0357,0.0282,-0.0192,1353,2019-08-07 17:01:58:244
-0.4352,9.9305,-0.2972,-0.1431,-0.1485,-0.1654,0.0325,0.026,-0.0245,1358,2019-08-07 17:01:58:249
-0.5168,9.9544,-0.3963,-0.0633,-0.1727,-0.0696,0.0325,0.026,-0.0245,1363,2019-08-07 17:01:58:254
-0.5168,9.9544,-0.3963,-0.0633,-0.1727,-0.0696,0.0325,0.042,-0.0256,1368,2019-08-07 17:01:58:259
-0.5168,9.9544,-0.3963,-0.0633,-0.1727,-0.0696,0.0325,0.042,-0.0256,1372,2019-08-07 17:01:58:263
-0.5934,9.9162,-0.3256,-0.0633,-0.1727,-0.0696,0.0325,0.042,-0.0256,1378,2019-08-07 17:01:58:269
-0.5934,9.9162,-0.3256,0.08,-0.1255,-0.1506,0.0315,0.0324,-0.0277,1383,2019-08-07 17:01:58:274
-0.5934,9.9162,-0.3256,0.08,-0.1255,-0.1506,0.0315,0.0324,-0.0277,1387,2019-08-07 17:01:58:278
-0.6651,9.8637,-0.401,0.08,-0.1255,-0.1506,0.0293,0.0143,-0.0309,1393,2019-08-07 17:01:58:284
-0.6651,9.8637,-0.401,0.0833,-0.0975,-0.1652,0.0293,0.0143,-0.0309,1399,2019-08-07 17:01:58:290
-0.6364,9.878,-0.3209,0.0833,-0.0975,-0.1652,0.0293,0.0143,-0.0309,1403,2019-08-07 17:01:58:294
-0.6364,9.878,-0.3209,0.0833,-0.0975,-0.1652,0.0261,-0.0049,-0.0287,1408,2019-08-07 17:01:58:299
-0.6364,9.878,-0.3209,0.0833,-0.0975,-0.1652,0.0261,-0.0049,-0.0287,1413,2019-08-07 17:01:58:304
-0.5407,9.8828,-0.5707,0.0833,-0.0975,-0.1652,0.0219,-0.0144,-0.0298,1418,2019-08-07 17:01:58:309
-0.5407,9.8828,-0.5707,-0.0036,-0.1315,0.1456,0.0219,-0.0144,-0.0298,1423,2019-08-07 17:01:58:314
-0.5407,9.8828,-0.5707,-0.0036,-0.1315,0.1456,0.008,0.009,-0.033,1427,2019-08-07 17:01:58:318
-0.5598,9.9401,-0.5141,-0.0402,-0.1604,0.0312,0.008,0.009,-0.033,1433,2019-08-07 17:01:58:324
-0.5598,9.9401,-0.5141,-0.0402,-0.1604,0.0312,-0.0069,0.0239,-0.0309,1438,2019-08-07 17:01:58:329
-0.5598,9.9401,-0.5141,-0.0402,-0.1604,0.0312,-0.0069,0.0239,-0.0309,1443,2019-08-07 17:01:58:334
-0.6603,9.9353,-0.4717,-0.0402,-0.1604,0.0312,-0.0069,0.0239,-0.0309,1448,2019-08-07 17:01:58:339
-0.6603,9.9353,-0.4717,0.0251,-0.1034,-0.0666,-0.0111,0.0101,-0.0373,1452,2019-08-07 17:01:58:343
-0.6603,9.9353,-0.4717,0.0251,-0.1034,-0.0666,-0.0111,0.0101,-0.0373,1458,2019-08-07 17:01:58:349
-0.6794,9.9353,-0.4151,0.0251,-0.1034,-0.0666,-0.0111,0.0101,-0.0373,1463,2019-08-07 17:01:58:354
-0.6794,9.9353,-0.4151,0.0251,-0.1034,-0.0666,-0.0186,-0.0017,-0.0341,1468,2019-08-07 17:01:58:359
-0.6125,9.9401,-0.5047,0.023,-0.1944,0.0173,-0.0186,-0.0017,-0.0341,1473,2019-08-07 17:01:58:364
-0.6125,9.9401,-0.5047,0.023,-0.1944,0.0173,-0.0314,-0.0102,-0.0341,1478,2019-08-07 17:01:58:369
-0.6077,9.9353,-0.5754,0.023,-0.1944,0.0173,-0.0314,-0.0102,-0.0341,1484,2019-08-07 17:01:58:375
-0.6077,9.9353,-0.5754,0.023,-0.1944,0.0173,-0.0452,-0.0017,-0.0362,1488,2019-08-07 17:01:58:379
-0.6077,9.9353,-0.5754,0.0592,-0.1324,0.01,-0.0452,-0.0017,-0.0362,1492,2019-08-07 17:01:58:383
-0.689,9.9353,-0.4953,0.0592,-0.1324,0.01,-0.0452,-0.0017,-0.0362,1497,2019-08-07 17:01:58:388
-0.689,9.9353,-0.4953,0.0592,-0.1324,0.01,-0.0516,5.0E-4,-0.0362,1503,2019-08-07 17:01:58:394
-0.689,9.9353,-0.4953,0.0592,-0.1324,0.01,-0.0516,5.0E-4,-0.0362,1508,2019-08-07 17:01:58:399
-0.5981,9.8494,-0.3209,-0.0151,-0.1085,-0.0973,-0.0527,-0.0198,-0.0383,1513,2019-08-07 17:01:58:404
-0.5981,9.8494,-0.3209,-0.0151,-0.1085,-0.0973,-0.0527,-0.0198,-0.0383,1518,2019-08-07 17:01:58:409
-0.5933,9.8828,-0.3727,-0.0151,-0.1085,-0.0973,-0.058,-0.0294,-0.0405,1523,2019-08-07 17:01:58:414
-0.5933,9.8828,-0.3727,-0.0151,-0.1085,-0.0973,-0.058,-0.0294,-0.0405,1527,2019-08-07 17:01:58:418
-0.5933,9.8828,-0.3727,-0.0278,-0.118,-0.08,-0.0633,-0.0294,-0.0415,1533,2019-08-07 17:01:58:424
-0.5933,9.9544,-0.335,-0.0278,-0.118,-0.08,-0.0633,-0.0294,-0.0415,1538,2019-08-07 17:01:58:429
-0.5933,9.9544,-0.335,-0.0278,-0.118,-0.08,-0.0708,-0.0315,-0.0447,1543,2019-08-07 17:01:58:434
-0.5359,9.9162,-0.3209,-0.0278,-0.118,-0.08,-0.0708,-0.0315,-0.0447,1548,2019-08-07 17:01:58:439
-0.5359,9.9162,-0.3209,-0.103,-0.1083,-0.197,-0.0708,-0.0315,-0.0447,1553,2019-08-07 17:01:58:444
-0.5359,9.9162,-0.3209,-0.103,-0.1083,-0.197,-0.0687,-0.0347,-0.049,1558,2019-08-07 17:01:58:449
-0.5646,9.9066,-0.2596,-0.103,-0.1083,-0.197,-0.0687,-0.0347,-0.049,1563,2019-08-07 17:01:58:454
-0.5646,9.9066,-0.2596,-0.0836,-0.1178,-0.2127,-0.0719,-0.0421,-0.0479,1568,2019-08-07 17:01:58:459
-0.5646,9.9066,-0.2596,-0.0836,-0.1178,-0.2127,-0.0719,-0.0421,-0.0479,1573,2019-08-07 17:01:58:464
-0.6316,9.9401,-0.1653,-0.0836,-0.1178,-0.2127,-0.0655,-0.0421,-0.049,1578,2019-08-07 17:01:58:469
-0.6316,9.9401,-0.1653,0.017,-0.1702,-0.1403,-0.0655,-0.0421,-0.049,1583,2019-08-07 17:01:58:474
-0.6316,9.9401,-0.1653,0.017,-0.1702,-0.1403,-0.0751,-0.0262,-0.0437,1587,2019-08-07 17:01:58:478
-0.6985,9.921,-0.2737,0.017,-0.1702,-0.1403,-0.0751,-0.0262,-0.0437,1593,2019-08-07 17:01:58:484
-0.6985,9.921,-0.2737,0.017,-0.1702,-0.1403,-0.0751,-0.023,-0.0437,1598,2019-08-07 17:01:58:489
-0.7416,9.9162,-0.1794,0.0745,-0.1368,-0.2139,-0.0751,-0.023,-0.0437,1603,2019-08-07 17:01:58:494
-0.7416,9.9162,-0.1794,0.0745,-0.1368,-0.2139,-0.0751,-0.023,-0.0437,1608,2019-08-07 17:01:58:499
-0.7416,9.9162,-0.1794,0.0745,-0.1368,-0.2139,-0.0687,-0.0379,-0.0373,1613,2019-08-07 17:01:58:504
-0.8181,9.8446,-0.1747,0.0745,-0.1368,-0.2139,-0.0687,-0.0379,-0.0373,1618,2019-08-07 17:01:58:509
-0.8181,9.8446,-0.1747,0.0996,-0.0938,-0.2123,-0.0687,-0.0379,-0.0373,1622,2019-08-07 17:01:58:513
-0.799,9.8732,-0.2407,0.0996,-0.0938,-0.2123,-0.0644,-0.0688,-0.033,1628,2019-08-07 17:01:58:519
-0.799,9.8732,-0.2407,0.0996,-0.0938,-0.2123,-0.0633,-0.0741,-0.0277,1633,2019-08-07 17:01:58:524
-0.799,9.8732,-0.2407,0.0996,-0.0938,-0.2123,-0.0633,-0.0741,-0.0277,1637,2019-08-07 17:01:58:528
-0.6746,9.8923,-0.2313,0.0071,-0.0937,-0.221,-0.058,-0.0602,-0.0277,1643,2019-08-07 17:01:58:534
-0.6746,9.8923,-0.2313,0.0071,-0.0937,-0.221,-0.058,-0.0602,-0.0277,1648,2019-08-07 17:01:58:539
-0.6937,9.8923,-0.0522,0.0071,-0.0937,-0.221,-0.058,-0.0602,-0.0277,1652,2019-08-07 17:01:58:543
-0.6937,9.8923,-0.0522,0.0071,-0.0937,-0.221,-0.0537,-0.0645,-0.0245,1658,2019-08-07 17:01:58:549
-0.6363,9.921,-0.0239,-0.0512,-0.1413,-0.3247,-0.0474,-0.0645,-0.0277,1663,2019-08-07 17:01:58:554
-0.6363,9.921,-0.0239,-0.0512,-0.1413,-0.3247,-0.0474,-0.0645,-0.0277,1668,2019-08-07 17:01:58:559
-0.6363,9.921,-0.0239,-0.0512,-0.1413,-0.3247,-0.0474,-0.0645,-0.0277,1672,2019-08-07 17:01:58:563
-0.6028,9.8875,-0.0852,-0.0512,-0.1413,-0.3247,-0.0356,-0.0602,-0.033,1678,2019-08-07 17:01:58:569
-0.6028,9.8875,-0.0852,-0.0512,-0.1413,-0.3247,-0.0356,-0.0602,-0.033,1682,2019-08-07 17:01:58:573
-0.5215,9.8875,-0.0192,-0.1241,-0.1413,-0.295,-0.0303,-0.0464,-0.033,1688,2019-08-07 17:01:58:579
-0.5215,9.8875,-0.0192,-0.1241,-0.1413,-0.295,-0.0303,-0.0464,-0.033,1693,2019-08-07 17:01:58:584
-0.5215,9.8875,-0.0192,-0.1241,-0.1413,-0.295,-0.0165,-0.0315,-0.0405,1698,2019-08-07 17:01:58:589
-0.5693,9.8541,0.0468,-0.126,-0.0795,-0.4293,-0.0165,-0.0315,-0.0405,1703,2019-08-07 17:01:58:594
-0.5693,9.8541,0.0468,-0.126,-0.0795,-0.4293,-0.0165,-0.0315,-0.0405,1708,2019-08-07 17:01:58:599
-0.5885,9.7968,0.0563,-0.126,-0.0795,-0.4293,-5.0E-4,-0.0272,-0.0426,1713,2019-08-07 17:01:58:604
-0.5885,9.7968,0.0563,-0.126,-0.0795,-0.4293,-5.0E-4,-0.0272,-0.0426,1718,2019-08-07 17:01:58:609
-0.5885,9.7968,0.0563,-0.126,-0.0795,-0.4293,0.0123,-0.0272,-0.0447,1723,2019-08-07 17:01:58:614
-0.6889,9.8064,-0.071,-0.0189,-0.0275,-0.2571,0.0123,-0.0272,-0.0447,1728,2019-08-07 17:01:58:619
-0.6889,9.8064,-0.071,-0.0189,-0.0275,-0.2571,0.0155,-0.0112,-0.0426,1734,2019-08-07 17:01:58:625
-0.6889,9.8064,-0.071,-0.0189,-0.0275,-0.2571,0.0155,-0.0112,-0.0426,1737,2019-08-07 17:01:58:628
-0.7033,9.8541,-0.0144,-0.0189,-0.0275,-0.2571,0.0272,0.0175,-0.049,1743,2019-08-07 17:01:58:634
-0.7033,9.8541,-0.0144,0.0204,-0.0615,-0.3244,0.0272,0.0175,-0.049,1749,2019-08-07 17:01:58:640
-0.7655,9.9687,0.1128,0.0204,-0.0615,-0.3244,0.0464,0.0122,-0.0426,1752,2019-08-07 17:01:58:643
-0.7655,9.9687,0.1128,0.0204,-0.0615,-0.3244,0.0464,0.0122,-0.0426,1758,2019-08-07 17:01:58:649
-0.7655,9.9687,0.1128,0.0204,-0.0615,-0.3244,0.0464,0.0122,-0.0426,1763,2019-08-07 17:01:58:654
-0.7176,10.0021,0.1553,-0.0083,-0.2248,-0.4916,0.0773,0.0079,-0.0501,1767,2019-08-07 17:01:58:658
-0.7176,10.0021,0.1553,-0.0083,-0.2248,-0.4916,0.0773,0.0079,-0.0501,1773,2019-08-07 17:01:58:664
-0.5789,9.9401,0.4475,-0.0083,-0.2248,-0.4916,0.1327,-0.0091,-0.0692,1778,2019-08-07 17:01:58:669
-0.5789,9.9401,0.4475,-0.0083,-0.2248,-0.4916,0.1327,-0.0091,-0.0692,1783,2019-08-07 17:01:58:674
-0.5789,9.9401,0.4475,-0.2595,-0.0832,-0.9114,0.1934,-0.0208,-0.0788,1788,2019-08-07 17:01:58:679
-0.4975,9.7443,0.6125,-0.2595,-0.0832,-0.9114,0.1934,-0.0208,-0.0788,1793,2019-08-07 17:01:58:684
-0.4975,9.7443,0.6125,-0.2595,-0.0832,-0.9114,0.2296,0.025,-0.082,1798,2019-08-07 17:01:58:689
-0.4975,9.7443,0.6125,-0.2595,-0.0832,-0.9114,0.2296,0.025,-0.082,1803,2019-08-07 17:01:58:694
-0.5167,9.7443,0.5889,-0.2355,0.029,-0.9797,0.2296,0.025,-0.082,1808,2019-08-07 17:01:58:699
-0.5167,9.7443,0.5889,-0.2355,0.029,-0.9797,0.2605,0.0878,-0.0873,1813,2019-08-07 17:01:58:704
-0.464,9.8637,0.9472,-0.2956,-0.0919,-1.3605,0.2605,0.0878,-0.0873,1819,2019-08-07 17:01:58:710
-0.464,9.8637,0.9472,-0.2956,-0.0919,-1.3605,0.3542,0.0857,-0.0991,1822,2019-08-07 17:01:58:713
-0.464,9.8637,0.9472,-0.2956,-0.0919,-1.3605,0.3542,0.0857,-0.0991,1828,2019-08-07 17:01:58:719
-0.287,10.9807,2.0031,-0.2956,-0.0919,-1.3605,0.4672,0.0037,-0.1012,1834,2019-08-07 17:01:58:725
-0.287,10.9807,2.0031,-0.5602,-1.6618,-3.1023,0.4672,0.0037,-0.1012,1838,2019-08-07 17:01:58:729
-0.287,10.9807,2.0031,-0.5602,-1.6618,-3.1023,0.4672,0.0037,-0.1012,1843,2019-08-07 17:01:58:734
-0.2057,11.8687,3.3088,-0.5602,-1.6618,-3.1023,0.6355,-0.1167,-0.1321,1848,2019-08-07 17:01:58:739
-0.2057,11.8687,3.3088,-0.5602,-1.6618,-3.1023,0.6355,-0.1167,-0.1321,1853,2019-08-07 17:01:58:744
-0.5597,12.7471,5.7835,-0.2427,-2.9875,-6.3697,0.9061,-0.3585,-0.1768,1857,2019-08-07 17:01:58:748
-0.5597,12.7471,5.7835,-0.2427,-2.9875,-6.3697,1.1841,-0.627,-0.1896,1863,2019-08-07 17:01:58:754
-0.5597,12.7471,5.7835,-0.2427,-2.9875,-6.3697,1.1841,-0.627,-0.1896,1868,2019-08-07 17:01:58:759
0.2536,13.3772,7.1223,-0.2427,-2.9875,-6.3697,1.1841,-0.627,-0.1896,1873,2019-08-07 17:01:58:764
0.2536,13.3772,7.1223,-2.1451,-4.3885,-7.6937,1.4302,-0.8805,-0.228,1878,2019-08-07 17:01:58:769
1.5836,15.2963,6.6415,-2.1451,-4.3885,-7.6937,1.4302,-0.8805,-0.228,1883,2019-08-07 17:01:58:774
1.5836,15.2963,6.6415,-2.1451,-4.3885,-7.6937,1.6422,-0.8581,-0.2514,1887,2019-08-07 17:01:58:778
1.4066,18.1749,5.3923,-2.1451,-4.3885,-7.6937,1.6422,-0.8581,-0.2514,1893,2019-08-07 17:01:58:784
1.4066,18.1749,5.3923,-2.1164,-9.345,-5.6575,1.8446,-0.7101,-0.1246,1899,2019-08-07 17:01:58:790
1.4066,18.1749,5.3923,-2.1164,-9.345,-5.6575,1.8446,-0.7101,-0.1246,1902,2019-08-07 17:01:58:793
1.4066,18.1749,5.3923,-2.1164,-9.345,-5.6575,1.8446,-0.7101,-0.1246,1908,2019-08-07 17:01:58:799
-0.5262,19.755,3.3465,-0.3792,-10.0635,-4.5675,2.0842,-0.3223,-0.131,1913,2019-08-07 17:01:58:804
-0.5262,19.755,3.3465,-0.3792,-10.0635,-4.5675,2.0842,-0.3223,-0.131,1919,2019-08-07 17:01:58:810
-3.6982,21.0487,4.9115,-0.3792,-10.0635,-4.5675,2.2035,0.0889,-0.2226,1922,2019-08-07 17:01:58:813
-3.6982,21.0487,4.9115,3.4474,-11.7828,-7.5399,2.2035,0.0889,-0.2226,1928,2019-08-07 17:01:58:819
-4.9995,22.2517,6.9903,3.4474,-11.7828,-7.5399,2.2952,-0.1508,-0.2748,1934,2019-08-07 17:01:58:825
-4.9995,22.2517,6.9903,3.4474,-11.7828,-7.5399,2.2952,-0.1508,-0.2748,1937,2019-08-07 17:01:58:828
-4.9995,22.2517,6.9903,3.4474,-11.7828,-7.5399,2.2952,-0.1508,-0.2748,1943,2019-08-07 17:01:58:834
-5.2148,26.066,11.6145,4.1816,-16.5245,-13.6462,2.4656,-1.052,-0.2588,1948,2019-08-07 17:01:58:839
-5.2148,26.066,11.6145,4.1816,-16.5245,-13.6462,2.4656,-1.052,-0.2588,1953,2019-08-07 17:01:58:844
-5.2148,26.066,11.6145,4.1816,-16.5245,-13.6462,2.6286,-2.5626,-0.0021,1958,2019-08-07 17:01:58:849
-4.0617,22.3472,2.1445,4.1816,-16.5245,-13.6462,2.6286,-2.5626,-0.0021,1963,2019-08-07 17:01:58:854
-4.0617,22.3472,2.1445,-0.1824,-9.4027,4.9375,2.194,-3.5373,0.1683,1968,2019-08-07 17:01:58:859
0.8708,19.2872,-8.2023,-0.1824,-9.4027,4.9375,2.194,-3.5373,0.1683,1972,2019-08-07 17:01:58:863
0.8708,19.2872,-8.2023,-0.1824,-9.4027,4.9375,2.3047,-2.0171,-0.1662,1978,2019-08-07 17:01:58:869
0.8469,23.4834,-7.0333,-2.9913,-11.4623,5.0031,2.3047,-2.0171,-0.1662,1983,2019-08-07 17:01:58:874
0.8469,23.4834,-7.0333,-2.9913,-11.4623,5.0031,2.3047,-2.0171,-0.1662,1988,2019-08-07 17:01:58:879
0.8469,23.4834,-7.0333,-1.2625,-16.6718,4.217,2.5625,-1.2938,-0.229,1993,2019-08-07 17:01:58:884
-0.4831,26.4479,-8.4474,-1.2625,-16.6718,4.217,2.5625,-1.2938,-0.229,1998,2019-08-07 17:01:58:889
-0.4831,26.4479,-8.4474,-1.2625,-16.6718,4.217,2.1236,-0.7431,0.3537,2003,2019-08-07 17:01:58:894
-0.4831,26.4479,-8.4474,-1.2625,-16.6718,4.217,2.1236,-0.7431,0.3537,2008,2019-08-07 17:01:58:899
-1.3108,25.5218,-12.3787,-0.0074,-16.3408,9.1837,2.1236,-0.7431,0.3537,2013,2019-08-07 17:01:58:904
-1.3108,25.5218,-12.3787,-0.0074,-16.3408,9.1837,1.8584,0.2316,0.6349,2018,2019-08-07 17:01:58:909
-1.3108,25.5218,-12.3787,-0.0074,-16.3408,9.1837,1.8584,0.2316,0.6349,2023,2019-08-07 17:01:58:914
-3.4206,19.6214,-10.6629,-0.0074,-16.3408,9.1837,0.4736,2.4367,0.2866,2027,2019-08-07 17:01:58:918
-3.4206,19.6214,-10.6629,1.3576,-10.0507,3.9387,0.4736,2.4367,0.2866,2033,2019-08-07 17:01:58:924
-3.4206,19.6214,-10.6629,1.3576,-10.0507,3.9387,0.6365,2.2865,0.3952,2038,2019-08-07 17:01:58:929
-2.947,17.54,2.2341,1.3576,-10.0507,3.9387,0.6365,2.2865,0.3952,2043,2019-08-07 17:01:58:934
-2.947,17.54,2.2341,2.8073,-7.5589,3.6772,1.1852,1.2884,0.3963,2048,2019-08-07 17:01:58:939
-4.0521,16.9003,-8.0043,2.8073,-7.5589,3.6772,1.1852,1.2884,0.3963,2053,2019-08-07 17:01:58:944
-4.0521,16.9003,-8.0043,2.8073,-7.5589,3.6772,1.1852,1.2884,0.3963,2058,2019-08-07 17:01:58:949
-5.1717,16.6091,-10.2811,2.8073,-7.5589,3.6772,0.7814,0.1848,0.1758,2063,2019-08-07 17:01:58:954
-5.1717,16.6091,-10.2811,2.8073,-7.5589,3.6772,0.7814,0.1848,0.1758,2068,2019-08-07 17:01:58:959
-5.1717,16.6091,-10.2811,3.5556,-5.4574,7.2371,0.3617,-0.089,0.2408,2073,2019-08-07 17:01:58:964
-3.923,13.382,-10.8609,3.5556,-5.4574,7.2371,0.3617,-0.089,0.2408,2078,2019-08-07 17:01:58:969
-3.923,13.382,-10.8609,3.5556,-5.4574,7.2371,0.0368,0.1219,0.1321,2083,2019-08-07 17:01:58:974
-3.923,13.382,-10.8609,3.5556,-5.4574,7.2371,0.0368,0.1219,0.1321,2088,2019-08-07 17:01:58:979
-4.0186,11.4056,-9.4609,3.1547,-2.4356,5.5842,-0.1038,0.6364,0.1023,2093,2019-08-07 17:01:58:984
-4.0186,11.4056,-9.4609,3.1547,-2.4356,5.5842,-0.1038,0.6364,0.1023,2099,2019-08-07 17:01:58:990
-4.0186,11.4056,-9.4609,3.1547,-2.4356,5.5842,-0.3573,0.629,0.1236,2103,2019-08-07 17:01:58:994
-2.6025,9.4531,-9.2771,3.1547,-2.4356,5.5842,-0.3573,0.629,0.1236,2108,2019-08-07 17:01:58:999
-2.6025,9.4531,-9.2771,1.3308,0.1741,5.464,-0.5395,0.3754,0.032,2113,2019-08-07 17:01:59:004
-1.8083,7.725,-9.3713,1.3308,0.1741,5.464,-0.5395,0.3754,0.032,2118,2019-08-07 17:01:59:009
-1.8083,7.725,-9.3713,1.3308,0.1741,5.464,-0.7909,0.1081,-0.1267,2123,2019-08-07 17:01:59:014
-1.8083,7.725,-9.3713,1.3308,0.1741,5.464,-0.7909,0.1081,-0.1267,2128,2019-08-07 17:01:59:019
-1.4782,5.6723,-8.7067,0.6749,3.348,4.935,-0.9752,0.4617,-0.1758,2133,2019-08-07 17:01:59:024
-1.4782,5.6723,-8.7067,0.6749,3.348,4.935,-0.9752,0.4617,-0.1758,2137,2019-08-07 17:01:59:028
0.0097,4.1208,-9.9276,0.6749,3.348,4.935,-1.1467,0.7387,-0.1864,2143,2019-08-07 17:01:59:034
0.0097,4.1208,-9.9276,0.6749,3.348,4.935,-1.1467,0.7387,-0.1864,2148,2019-08-07 17:01:59:039
0.0097,4.1208,-9.9276,-0.8209,6.7084,6.0735,-1.1467,0.7387,-0.1864,2153,2019-08-07 17:01:59:044
0.0097,4.1208,-9.9276,-0.8209,6.7084,6.0735,-1.5664,1.0466,-0.2951,2158,2019-08-07 17:01:59:049
-0.0046,1.2183,-9.0414,-0.8209,6.7084,6.0735,-1.5664,1.0466,-0.2951,2163,2019-08-07 17:01:59:054
-0.0046,1.2183,-9.0414,-0.8209,6.7084,6.0735,-1.7837,1.3182,-0.3526,2168,2019-08-07 17:01:59:059
-0.0908,-1.6651,-5.7228,-0.6823,10.2753,2.862,-1.7837,1.3182,-0.3526,2173,2019-08-07 17:01:59:064
-0.0908,-1.6651,-5.7228,-0.6823,10.2753,2.862,-1.8232,1.2767,-0.3707,2178,2019-08-07 17:01:59:069
-0.6744,-3.6606,-6.0811,-0.6823,10.2753,2.862,-1.8232,1.2767,-0.3707,2184,2019-08-07 17:01:59:075
-0.6744,-3.6606,-6.0811,-0.6823,10.2753,2.862,-1.7528,1.2458,-0.3377,2189,2019-08-07 17:01:59:080
-0.6744,-3.6606,-6.0811,-0.6823,10.2753,2.862,-1.7528,1.2458,-0.3377,2192,2019-08-07 17:01:59:083
-0.6744,-5.5796,-5.9915,0.013,14.373,3.0583,-1.7614,1.3512,-0.2791,2198,2019-08-07 17:01:59:089
-0.6744,-5.5796,-5.9915,0.013,14.373,3.0583,-1.7614,1.3512,-0.2791,2203,2019-08-07 17:01:59:094
-0.6744,-5.5796,-5.9915,0.013,14.373,3.0583,-1.7614,1.3512,-0.2791,2207,2019-08-07 17:01:59:098
0.0336,-7.9713,-3.8986,-0.7327,17.6303,0.7332,-1.8477,1.2042,-0.2567,2213,2019-08-07 17:01:59:104
0.0336,-7.9713,-3.8986,-0.7327,17.6303,0.7332,-1.8477,1.2042,-0.2567,2218,2019-08-07 17:01:59:109
-0.1338,-8.9452,-2.244,-0.7327,17.6303,0.7332,-1.7369,0.9858,-0.2237,2223,2019-08-07 17:01:59:114
-0.1338,-8.9452,-2.244,-0.7327,17.6303,0.7332,-1.7369,0.9858,-0.2237,2228,2019-08-07 17:01:59:119
0.1198,-9.5037,-1.9235,-0.693,18.8299,-0.6468,-1.6144,0.6695,-0.1821,2234,2019-08-07 17:01:59:125
0.1198,-9.5037,-1.9235,-0.693,18.8299,-0.6468,-1.6144,0.6695,-0.1821,2237,2019-08-07 17:01:59:128
0.1198,-9.5037,-1.9235,-0.693,18.8299,-0.6468,-1.4365,0.3605,-0.1992,2243,2019-08-07 17:01:59:134
-0.0285,-9.7329,-1.2919,-0.693,18.8299,-0.6468,-1.4365,0.3605,-0.1992,2248,2019-08-07 17:01:59:139
-0.0285,-9.7329,-1.2919,-0.6238,19.3409,-1.1825,-1.1829,0.042,-0.1875,2253,2019-08-07 17:01:59:144
-0.0285,-9.7329,-1.2919,-0.6238,19.3409,-1.1825,-1.1829,0.042,-0.1875,2258,2019-08-07 17:01:59:149
-0.0238,-10.0527,-1.1316,-0.6238,19.3409,-1.1825,-0.8772,-0.2168,-0.1715,2263,2019-08-07 17:01:59:154
-0.0238,-10.0527,-1.1316,-0.6238,19.3409,-1.1825,-0.8772,-0.2168,-0.1715,2267,2019-08-07 17:01:59:158
0.225,-10.4871,-0.9006,-1.0199,20.0092,-1.3206,-0.8772,-0.2168,-0.1715,2273,2019-08-07 17:01:59:164
0.225,-10.4871,-0.9006,-1.0199,20.0092,-1.3206,-0.4852,-0.464,-0.1555,2278,2019-08-07 17:01:59:169
0.225,-10.4871,-0.9006,-1.0199,20.0092,-1.3206,-0.4852,-0.464,-0.1555,2283,2019-08-07 17:01:59:174
0.1963,-10.3487,-0.6649,-1.0199,20.0092,-1.3206,-0.1901,-0.5386,-0.1289,2287,2019-08-07 17:01:59:178
0.1963,-10.3487,-0.6649,-1.2315,19.5994,-1.2391,-0.1901,-0.5386,-0.1289,2293,2019-08-07 17:01:59:184
0.6078,-9.7806,-0.7592,-1.2315,19.5994,-1.2391,0.0965,-0.5002,-0.0937,2298,2019-08-07 17:01:59:189
0.6078,-9.7806,-0.7592,-1.2315,19.5994,-1.2391,0.0965,-0.5002,-0.0937,2302,2019-08-07 17:01:59:193
0.6078,-9.7806,-0.7592,-1.2315,19.5994,-1.2391,0.0965,-0.5002,-0.0937,2308,2019-08-07 17:01:59:199
0.5743,-9.0311,-0.811,-1.3693,18.0136,-1.3671,0.4757,-0.3532,-0.0799,2313,2019-08-07 17:01:59:204
0.5743,-9.0311,-0.811,-1.3693,18.0136,-1.3671,0.4757,-0.3532,-0.0799,2318,2019-08-07 17:01:59:209
0.072,-7.4796,-0.5989,-1.3693,18.0136,-1.3671,0.8166,-0.0847,-0.0383,2323,2019-08-07 17:01:59:214
0.072,-7.4796,-0.5989,-1.3693,18.0136,-1.3671,0.8166,-0.0847,-0.0383,2328,2019-08-07 17:01:59:219
0.072,-7.4796,-0.5989,-0.7914,16.0454,-2.4632,1.0232,-0.0411,-0.0053,2333,2019-08-07 17:01:59:224
-0.1768,-6.3864,0.1789,-0.7914,16.0454,-2.4632,1.0232,-0.0411,-0.0053,2337,2019-08-07 17:01:59:228
-0.1768,-6.3864,0.1789,-0.7914,16.0454,-2.4632,1.2011,-0.0571,0.0075,2343,2019-08-07 17:01:59:234
-0.4974,-5.2646,0.2119,-0.7914,16.0454,-2.4632,1.2011,-0.0571,0.0075,2348,2019-08-07 17:01:59:239
-0.4974,-5.2646,0.2119,-0.4364,14.2866,-2.8361,1.4706,-0.1444,0.0607,2353,2019-08-07 17:01:59:244
-0.4974,-5.2646,0.2119,-0.4364,14.2866,-2.8361,1.4706,-0.1444,0.0607,2358,2019-08-07 17:01:59:249
-0.3492,-4.4864,-0.0144,-0.4364,14.2866,-2.8361,1.4706,-0.1444,0.0607,2363,2019-08-07 17:01:59:254
-0.3492,-4.4864,-0.0144,-0.5891,13.6966,-2.736,1.6315,-0.235,0.1002,2368,2019-08-07 17:01:59:259
-0.3492,-4.4864,-0.0144,-0.5891,13.6966,-2.736,1.6315,-0.235,0.1002,2373,2019-08-07 17:01:59:264
-0.2822,-3.5651,-0.368,-0.5891,13.6966,-2.736,1.7998,-0.3159,0.1438,2378,2019-08-07 17:01:59:269
-0.2822,-3.5651,-0.368,-0.6428,12.2211,-2.5103,1.7998,-0.3159,0.1438,2383,2019-08-07 17:01:59:274
-0.2822,-3.5651,-0.368,-0.6428,12.2211,-2.5103,1.8904,-0.399,0.1982,2388,2019-08-07 17:01:59:279
-0.2535,-2.6485,-0.6979,-0.6428,12.2211,-2.5103,1.8904,-0.399,0.1982,2392,2019-08-07 17:01:59:283
-0.2535,-2.6485,-0.6979,-0.6428,12.2211,-2.5103,1.9511,-0.5194,0.2493,2399,2019-08-07 17:01:59:290
-0.2774,-1.9563,-1.636,-0.6428,12.2211,-2.5103,1.9511,-0.5194,0.2493,2402,2019-08-07 17:01:59:293
-0.2774,-1.9563,-1.636,-0.6411,10.9123,-1.6914,1.9511,-0.5194,0.2493,2408,2019-08-07 17:01:59:299
-0.2774,-1.9563,-1.636,-0.6411,10.9123,-1.6914,1.9958,-0.5812,0.3175,2412,2019-08-07 17:01:59:303
0.0432,-1.4646,-2.6447,-0.6411,10.9123,-1.6914,1.9958,-0.5812,0.3175,2418,2019-08-07 17:01:59:309
0.0432,-1.4646,-2.6447,-0.6411,10.9123,-1.6914,1.9745,-0.5876,0.3974,2423,2019-08-07 17:01:59:314
-0.0142,-1.1257,-3.5451,-0.9529,10.1003,-0.4989,1.9745,-0.5876,0.3974,2428,2019-08-07 17:01:59:319
-0.0142,-1.1257,-3.5451,-0.9529,10.1003,-0.4989,1.8978,-0.5588,0.4453,2433,2019-08-07 17:01:59:324
-0.0142,-1.1257,-3.5451,-0.9529,10.1003,-0.4989,1.8978,-0.5588,0.4453,2437,2019-08-07 17:01:59:328
-0.3683,-0.4191,-3.9929,-0.9529,10.1003,-0.4989,1.7913,-0.5876,0.4911,2443,2019-08-07 17:01:59:334
-0.3683,-0.4191,-3.9929,-0.1618,8.7889,-0.1011,1.7913,-0.5876,0.4911,2449,2019-08-07 17:01:59:340
-1.0285,0.2206,-4.5538,-0.1618,8.7889,-0.1011,1.6592,-0.676,0.5348,2452,2019-08-07 17:01:59:343
-1.0285,0.2206,-4.5538,-0.1618,8.7889,-0.1011,1.6592,-0.676,0.5348,2458,2019-08-07 17:01:59:349
-1.0285,0.2206,-4.5538,-0.1618,8.7889,-0.1011,1.6592,-0.676,0.5348,2463,2019-08-07 17:01:59:354
-1.7413,0.6836,-5.341,0.8702,7.8651,0.6085,1.5314,-0.8102,0.571,2467,2019-08-07 17:01:59:358
-1.7413,0.6836,-5.341,0.8702,7.8651,0.6085,1.5314,-0.8102,0.571,2473,2019-08-07 17:01:59:364
-1.9949,1.5906,-6.5148,0.8702,7.8651,0.6085,1.3939,-0.9497,0.5689,2478,2019-08-07 17:01:59:369
-1.9949,1.5906,-6.5148,0.8702,7.8651,0.6085,1.3939,-0.9497,0.5689,2483,2019-08-07 17:01:59:374
-1.9949,1.5906,-6.5148,1.0339,6.0178,2.5526,1.2054,-0.9774,0.4943,2488,2019-08-07 17:01:59:379
-1.6744,2.9846,-8.1127,1.0339,6.0178,2.5526,1.2054,-0.9774,0.4943,2492,2019-08-07 17:01:59:383
-1.6744,2.9846,-8.1127,0.614,4.531,3.5015,1.069,-0.8869,0.4112,2499,2019-08-07 17:01:59:390
-1.6744,2.9846,-8.1127,0.614,4.531,3.5015,1.069,-0.8869,0.4112,2503,2019-08-07 17:01:59:394
-1.2773,5.2522,-9.1781,0.614,4.531,3.5015,1.069,-0.8869,0.4112,2507,2019-08-07 17:01:59:398
-1.2773,5.2522,-9.1781,0.614,4.531,3.5015,0.8368,-0.5748,0.3047,2513,2019-08-07 17:01:59:404
-1.0955,6.7607,-10.3141,0.1861,1.7724,4.8252,0.8368,-0.5748,0.3047,2518,2019-08-07 17:01:59:409
-1.0955,6.7607,-10.3141,0.1861,1.7724,4.8252,0.4991,-0.0475,0.2077,2523,2019-08-07 17:01:59:414
-1.0955,6.7607,-10.3141,0.1861,1.7724,4.8252,0.4991,-0.0475,0.2077,2528,2019-08-07 17:01:59:419
-1.0715,8.0257,-10.9222,0.1861,1.7724,4.8252,-5.0E-4,0.4596,0.0874,2533,2019-08-07 17:01:59:424
-1.0715,8.0257,-10.9222,0.3827,-0.7599,5.6489,-5.0E-4,0.4596,0.0874,2538,2019-08-07 17:01:59:429
-1.483,9.3338,-10.6441,0.3827,-0.7599,5.6489,-0.547,0.9613,-0.0458,2543,2019-08-07 17:01:59:434
-1.483,9.3338,-10.6441,0.3827,-0.7599,5.6489,-0.547,0.9613,-0.0458,2548,2019-08-07 17:01:59:439
-1.483,9.3338,-10.6441,0.3827,-0.7599,5.6489,-1.1638,1.2234,-0.2322,2553,2019-08-07 17:01:59:444
-2.5834,11.2242,-6.5902,1.8037,-2.9864,1.3208,-1.1638,1.2234,-0.2322,2558,2019-08-07 17:01:59:449
-2.5834,11.2242,-6.5902,1.8037,-2.9864,1.3208,-1.4258,0.8676,-0.3558,2563,2019-08-07 17:01:59:454
-2.5834,11.2242,-6.5902,1.8037,-2.9864,1.3208,-1.4258,0.8676,-0.3558,2567,2019-08-07 17:01:59:458
-3.5402,12.6086,-4.9639,1.8037,-2.9864,1.3208,-1.4258,0.8676,-0.3558,2573,2019-08-07 17:01:59:464
-3.5402,12.6086,-4.9639,3.3584,-6.0582,0.2477,-1.38,0.2668,-0.5497,2577,2019-08-07 17:01:59:468
-4.2435,15.0576,-5.4023,3.3584,-6.0582,0.2477,-1.38,0.2668,-0.5497,2583,2019-08-07 17:01:59:474
-4.2435,15.0576,-5.4023,3.3584,-6.0582,0.2477,-1.7358,-0.3212,-0.7851,2588,2019-08-07 17:01:59:479
-4.2435,15.0576,-5.4023,3.3584,-6.0582,0.2477,-1.7358,-0.3212,-0.7851,2594,2019-08-07 17:01:59:485
-3.1862,17.096,-7.2925,2.0559,-9.1476,2.6362,-1.8828,-0.2413,-0.9278,2598,2019-08-07 17:01:59:489
-3.1862,17.096,-7.2925,2.0559,-9.1476,2.6362,-1.8828,-0.2413,-0.9278,2602,2019-08-07 17:01:59:493
-3.1862,17.096,-7.2925,2.0559,-9.1476,2.6362,-1.8828,-0.2413,-0.9278,2608,2019-08-07 17:01:59:499
-0.9615,20.3517,-7.5471,2.0559,-9.1476,2.6362,-1.9616,-0.3777,-0.9427,2613,2019-08-07 17:01:59:504
-0.9615,20.3517,-7.5471,-0.549,-12.0565,4.5591,-1.9616,-0.3777,-0.9427,2618,2019-08-07 17:01:59:509
-0.7366,20.6143,-10.1774,-0.549,-12.0565,4.5591,-2.131,-0.3532,-0.9321,2623,2019-08-07 17:01:59:514
-0.7366,20.6143,-10.1774,-0.549,-12.0565,4.5591,-2.131,-0.3532,-0.9321,2627,2019-08-07 17:01:59:518
-0.7366,20.6143,-10.1774,-0.549,-12.0565,4.5591,-2.4868,0.3541,-0.8256,2632,2019-08-07 17:01:59:523
-0.3922,19.903,-11.2993,-1.0682,-10.8481,6.8868,-2.4868,0.3541,-0.8256,2638,2019-08-07 17:01:59:529
-0.3922,19.903,-11.2993,-1.0682,-10.8481,6.8868,-2.9736,1.4641,-0.7052,2643,2019-08-07 17:01:59:534
0.7274,18.1462,-6.6609,-2.006,-9.1546,2.9526,-2.9736,1.4641,-0.7052,2649,2019-08-07 17:01:59:540
0.7274,18.1462,-6.6609,-2.006,-9.1546,2.9526,-3.3316,2.6285,-0.7361,2653,2019-08-07 17:01:59:544
0.7274,18.1462,-6.6609,-2.006,-9.1546,2.9526,-3.3316,2.6285,-0.7361,2658,2019-08-07 17:01:59:549
0.9666,16.0314,-2.8238,-2.7114,-7.6494,-8.2139,-2.8128,2.1353,-0.8138,2663,2019-08-07 17:01:59:554
0.9666,16.0314,-2.8238,-2.7114,-7.6494,-8.2139,-2.8128,2.1353,-0.8138,2669,2019-08-07 17:01:59:560
0.9666,16.0314,-2.8238,-2.7114,-7.6494,-8.2139,-1.8551,1.8029,-0.5156,2672,2019-08-07 17:01:59:563
1.4067,23.6409,-8.6784,-2.7114,-7.6494,-8.2139,-1.8551,1.8029,-0.5156,2678,2019-08-07 17:01:59:569
1.4067,23.6409,-8.6784,-2.7419,-17.1982,6.9364,-1.1872,1.2074,0.1982,2683,2019-08-07 17:01:59:574
1.5598,27.5841,-17.2245,-2.7419,-17.1982,6.9364,-1.1872,1.2074,0.1982,2687,2019-08-07 17:01:59:578
1.5598,27.5841,-17.2245,-2.7419,-17.1982,6.9364,-2.2418,0.5853,0.3771,2693,2019-08-07 17:01:59:584
1.5598,27.5841,-17.2245,-0.8931,-7.791,12.3489,-2.2418,0.5853,0.3771,2698,2019-08-07 17:01:59:589
-0.0716,18.2322,-11.1013,-0.8931,-7.791,12.3489,-2.2418,0.5853,0.3771,2703,2019-08-07 17:01:59:594
-0.0716,18.2322,-11.1013,-0.8931,-7.791,12.3489,-3.1238,7.42,-0.3238,2707,2019-08-07 17:01:59:598
-0.0716,18.2322,-11.1013,-0.8931,-7.791,12.3489,-3.1238,7.42,-0.3238,2714,2019-08-07 17:01:59:605
-5.5591,26.3429,39.8785,7.5793,-8.9844,-58.2955,-4.0794,3.9047,-0.1086,2717,2019-08-07 17:01:59:608
-5.5591,26.3429,39.8785,7.5793,-8.9844,-58.2955,-4.0794,3.9047,-0.1086,2723,2019-08-07 17:01:59:614
-13.6732,17.9075,25.8691,7.5793,-8.9844,-58.2955,-2.3611,0.2284,0.0117,2728,2019-08-07 17:01:59:619
-13.6732,17.9075,25.8691,14.1853,-10.2896,-18.4011,-2.3611,0.2284,0.0117,2733,2019-08-07 17:01:59:624
-10.2333,20.8625,12.8731,14.1853,-10.2896,-18.4011,-2.4346,-2.3719,0.7617,2738,2019-08-07 17:01:59:629
-10.2333,20.8625,12.8731,14.1853,-10.2896,-18.4011,-2.4346,-2.3719,0.7617,2743,2019-08-07 17:01:59:634
-10.2333,20.8625,12.8731,0.313,-12.206,-7.738,-1.1371,-4.0486,1.0205,2748,2019-08-07 17:01:59:639
-0.4543,21.402,3.8745,0.313,-12.206,-7.738,-1.1371,-4.0486,1.0205,2752,2019-08-07 17:01:59:643
-0.4543,21.402,3.8745,0.313,-12.206,-7.738,-1.1371,-4.0486,1.0205,2758,2019-08-07 17:01:59:649
-0.9615,15.5206,-1.537,0.313,-12.206,-7.738,-0.5076,-4.3724,0.914,2763,2019-08-07 17:01:59:654
-0.9615,15.5206,-1.537,0.313,-12.206,-7.738,-0.5076,-4.3724,0.914,2768,2019-08-07 17:01:59:659
-0.9615,15.5206,-1.537,1.7328,-3.6615,7.5791,-0.792,-1.1415,0.8416,2772,2019-08-07 17:01:59:663
-2.3632,12.5179,-9.4515,1.7328,-3.6615,7.5791,-0.792,-1.1415,0.8416,2778,2019-08-07 17:01:59:669
-2.3632,12.5179,-9.4515,1.7328,-3.6615,7.5791,-1.5568,1.6069,0.2333,2783,2019-08-07 17:01:59:674
-2.3632,12.5179,-9.4515,2.0889,-2.5306,-12.1775,-1.5568,1.6069,0.2333,2788,2019-08-07 17:01:59:679
-2.7364,12.2792,11.294,2.0889,-2.5306,-12.1775,-1.0317,1.1573,0.3729,2793,2019-08-07 17:01:59:684
-2.7364,12.2792,11.294,2.0889,-2.5306,-12.1775,-1.0317,1.1573,0.3729,2798,2019-08-07 17:01:59:689
-1.0428,9.5868,5.4018,2.0889,-2.5306,-12.1775,-0.4468,-1.1106,0.4442,2803,2019-08-07 17:01:59:694
-1.0428,9.5868,5.4018,2.0889,-2.5306,-12.1775,-0.4468,-1.1106,0.4442,2808,2019-08-07 17:01:59:699
1.756,8.0066,-0.0993,-1.8365,1.7519,-2.1429,-0.1709,-1.672,0.4314,2813,2019-08-07 17:01:59:704
1.756,8.0066,-0.0993,-1.8365,1.7519,-2.1429,-0.1709,-1.672,0.4314,2817,2019-08-07 17:01:59:708
1.756,8.0066,-0.0993,-1.8365,1.7519,-2.1429,-0.5299,-0.8848,0.4751,2823,2019-08-07 17:01:59:714
3.019,9.1142,-4.1201,-1.8365,1.7519,-2.1429,-0.5299,-0.8848,0.4751,2828,2019-08-07 17:01:59:719
3.019,9.1142,-4.1201,-2.9691,-0.0662,1.592,-0.7345,0.0655,0.5199,2833,2019-08-07 17:01:59:724
3.019,9.1142,-4.1201,-2.9691,-0.0662,1.592,-0.7345,0.0655,0.5199,2838,2019-08-07 17:01:59:729
2.0191,10.3745,4.1149,-2.4238,-0.5884,-4.6683,-0.6759,0.1549,0.5231,2842,2019-08-07 17:01:59:733
2.0191,10.3745,4.1149,-2.4238,-0.5884,-4.6683,-0.6759,0.1549,0.5231,2849,2019-08-07 17:01:59:740
2.0191,10.3745,4.1149,-2.4238,-0.5884,-4.6683,-0.2434,-0.7655,0.3739,2852,2019-08-07 17:01:59:743
0.2155,9.6011,2.8374,-2.4238,-0.5884,-4.6683,-0.2434,-0.7655,0.3739,2858,2019-08-07 17:01:59:749
0.2155,9.6011,2.8374,-0.3078,0.3657,-0.8283,-0.2434,-0.7655,0.3739,2863,2019-08-07 17:01:59:754
0.0672,9.5343,-2.6541,-0.3078,0.3657,-0.8283,-0.189,-0.8528,0.1875,2868,2019-08-07 17:01:59:759
0.0672,9.5343,-2.6541,-0.3078,0.3657,-0.8283,-0.189,-0.8528,0.1875,2873,2019-08-07 17:01:59:764
0.0672,9.5343,-2.6541,-0.3078,0.3657,-0.8283,-0.4479,0.2721,0.0256,2877,2019-08-07 17:01:59:768
0.4643,10.2885,-2.9323,-0.7607,-0.4909,2.5378,-0.4479,0.2721,0.0256,2883,2019-08-07 17:01:59:774
0.4643,10.2885,-2.9323,-0.7607,-0.4909,2.5378,-0.6013,1.1744,0.049,2888,2019-08-07 17:01:59:779
0.4643,10.2885,-2.9323,-0.7607,-0.4909,2.5378,-0.6013,1.1744,0.049,2893,2019-08-07 17:01:59:784
-0.1768,10.1214,1.7203,-0.7607,-0.4909,2.5378,-0.6045,1.2543,0.0703,2898,2019-08-07 17:01:59:789
-0.1768,10.1214,1.7203,0.2515,-0.3049,-3.1921,-0.6045,1.2543,0.0703,2903,2019-08-07 17:01:59:794
-0.1768,10.1214,1.7203,0.2515,-0.3049,-3.1921,-0.3776,0.6354,0.1864,2908,2019-08-07 17:01:59:799
-1.5164,9.8875,2.3944,0.2515,-0.3049,-3.1921,-0.3776,0.6354,0.1864,2913,2019-08-07 17:01:59:804
-1.5164,9.8875,2.3944,0.2515,-0.3049,-3.1921,-0.3776,0.6354,0.1864,2918,2019-08-07 17:01:59:809
-1.5164,9.8875,2.3944,1.4567,0.1754,-1.7797,-0.2743,0.0282,0.196,2923,2019-08-07 17:01:59:814
-1.3776,9.7539,1.2112,1.4567,0.1754,-1.7797,-0.2743,0.0282,0.196,2928,2019-08-07 17:01:59:819
-1.3776,9.7539,1.2112,1.4567,0.1754,-1.7797,-0.2008,-0.333,0.2205,2934,2019-08-07 17:01:59:825
1.3542,10.3219,0.0657,1.4567,0.1754,-1.7797,-0.2008,-0.333,0.2205,2938,2019-08-07 17:01:59:829
1.3542,10.3219,0.0657,-1.8152,-0.5246,0.2855,-0.1805,-0.4661,0.1587,2943,2019-08-07 17:01:59:834
1.3542,10.3219,0.0657,-1.8152,-0.5246,0.2855,-0.1805,-0.4661,0.1587,2948,2019-08-07 17:01:59:839
2.0766,10.3076,-1.636,-1.8152,-0.5246,0.2855,-0.1805,-0.4661,0.1587,2953,2019-08-07 17:01:59:844
2.0766,10.3076,-1.636,-1.8152,-0.5246,0.2855,-0.2924,0.1528,0.065,2958,2019-08-07 17:01:59:849
1.2011,9.8207,-0.3915,-1.6137,-0.0699,0.7091,-0.3925,0.7536,0.0117,2963,2019-08-07 17:01:59:854
1.2011,9.8207,-0.3915,-1.6137,-0.0699,0.7091,-0.3925,0.7536,0.0117,2968,2019-08-07 17:01:59:859
1.2011,9.8207,-0.3915,-1.6137,-0.0699,0.7091,-0.3925,0.7536,0.0117,2973,2019-08-07 17:01:59:864
-0.4973,9.6202,2.2388,-0.2878,-0.0981,-1.2923,-0.4,0.874,0.0149,2977,2019-08-07 17:01:59:868
-0.4973,9.6202,2.2388,-0.2878,-0.0981,-1.2923,-0.4,0.874,0.0149,2984,2019-08-07 17:01:59:875
-0.4973,9.6202,2.2388,-0.2878,-0.0981,-1.2923,-0.2753,0.4213,0.048,2988,2019-08-07 17:01:59:879
-1.0762,9.5772,2.0785,0.8677,0.2028,-1.9522,-0.2753,0.4213,0.048,2993,2019-08-07 17:01:59:884
-1.0762,9.5772,2.0785,0.8677,0.2028,-1.9522,-0.189,-0.0485,0.0725,2998,2019-08-07 17:01:59:889
-0.3251,9.7013,0.7964,0.8677,0.2028,-1.9522,-0.189,-0.0485,0.0725,3003,2019-08-07 17:01:59:894
-0.3251,9.7013,0.7964,0.8677,0.2028,-1.9522,-0.1411,-0.1199,0.1087,3008,2019-08-07 17:01:59:899
-0.3251,9.7013,0.7964,0.8677,0.2028,-1.9522,-0.1411,-0.1199,0.1087,3013,2019-08-07 17:01:59:904
-0.3251,9.7013,0.7964,0.8677,0.2028,-1.9522,-0.1411,-0.1199,0.1087,3018,2019-08-07 17:01:59:909
-0.2103,10.1453,0.0752,0.0655,-0.3366,-0.0143,-0.1795,-0.0304,0.114,3022,2019-08-07 17:01:59:913
-0.2103,10.1453,0.0752,0.0655,-0.3366,-0.0143,-0.1795,-0.0304,0.114,3028,2019-08-07 17:01:59:919
-0.6456,10.1023,2.5358,0.5255,-0.2936,-2.4308,-0.1688,0.1667,0.1673,3033,2019-08-07 17:01:59:924
-0.6456,10.1023,2.5358,0.5255,-0.2936,-2.4308,-0.1688,0.1667,0.1673,3037,2019-08-07 17:01:59:928
-0.6456,10.1023,2.5358,0.5255,-0.2936,-2.4308,-0.0559,-0.0187,0.1822,3043,2019-08-07 17:01:59:934
-0.6552,9.9209,1.8523,0.5255,-0.2936,-2.4308,-0.0559,-0.0187,0.1822,3048,2019-08-07 17:01:59:939
-0.6552,9.9209,1.8523,0.2711,0.074,-1.2308,0.0208,-0.2232,0.1928,3053,2019-08-07 17:01:59:944
-0.0237,9.6679,1.0839,0.2711,0.074,-1.2308,0.0208,-0.2232,0.1928,3059,2019-08-07 17:01:59:950
-0.0237,9.6679,1.0839,0.2711,0.074,-1.2308,0.0581,-0.2115,0.1896,3063,2019-08-07 17:01:59:954
-0.0237,9.6679,1.0839,0.2711,0.074,-1.2308,0.0581,-0.2115,0.1896,3067,2019-08-07 17:01:59:958
0.4547,9.8159,1.2913,0.2711,0.074,-1.2308,0.0581,-0.2115,0.1896,3073,2019-08-07 17:01:59:964
0.4547,9.8159,1.2913,-0.5343,-0.0833,-1.1083,0.0538,-0.2115,0.195,3078,2019-08-07 17:01:59:969
0.4547,9.8159,1.2913,-0.5343,-0.0833,-1.1083,0.0538,-0.2115,0.195,3082,2019-08-07 17:01:59:973
0.56,9.7061,1.0651,-0.5343,-0.0833,-1.1083,0.0815,-0.1082,0.1832,3088,2019-08-07 17:01:59:979
0.56,9.7061,1.0651,-0.5343,-0.0833,-1.1083,0.0815,-0.1082,0.1832,3093,2019-08-07 17:01:59:984
0.3686,9.5295,1.527,-0.3727,0.2797,-1.4025,0.1018,-0.1039,0.1939,3098,2019-08-07 17:01:59:989
0.3686,9.5295,1.527,-0.3727,0.2797,-1.4025,0.1018,-0.1039,0.1939,3103,2019-08-07 17:01:59:994
0.3399,9.3529,1.527,-0.3727,0.2797,-1.4025,0.1636,-0.1604,0.195,3107,2019-08-07 17:01:59:998
0.3399,9.3529,1.527,-0.3933,0.2321,-0.586,0.1636,-0.1604,0.195,3113,2019-08-07 17:02:00:004
0.3399,9.3529,1.527,-0.3933,0.2321,-0.586,0.1902,-0.2083,0.1619,3118,2019-08-07 17:02:00:009
0.6126,10.2503,0.5748,-0.3933,0.2321,-0.586,0.1902,-0.2083,0.1619,3123,2019-08-07 17:02:00:014
0.6126,10.2503,0.5748,-0.3933,0.2321,-0.586,0.2126,-0.1359,0.1119,3129,2019-08-07 17:02:00:020
0.8184,10.3267,0.3957,-0.7476,-0.5172,-0.3254,0.2126,-0.1359,0.1119,3133,2019-08-07 17:02:00:024
0.8184,10.3267,0.3957,-0.7476,-0.5172,-0.3254,0.2126,-0.1359,0.1119,3138,2019-08-07 17:02:00:029
0.8184,10.3267,0.3957,-0.7476,-0.5172,-0.3254,0.2232,0.0239,0.0618,3143,2019-08-07 17:02:00:034
0.6222,9.6727,-0.0615,-0.7476,-0.5172,-0.3254,0.2232,0.0239,0.0618,3148,2019-08-07 17:02:00:039
0.6222,9.6727,-0.0615,-0.7476,-0.5172,-0.3254,0.1774,0.0889,0.0362,3153,2019-08-07 17:02:00:044
0.6222,9.6727,-0.0615,-0.2386,0.1798,0.1276,0.1774,0.0889,0.0362,3158,2019-08-07 17:02:00:049
0.0959,9.8159,0.1412,-0.2386,0.1798,0.1276,0.1476,0.09,0.0245,3163,2019-08-07 17:02:00:054
0.0959,9.8159,0.1412,-0.2386,0.1798,0.1276,0.1476,0.09,0.0245,3168,2019-08-07 17:02:00:059
-0.2964,10.0689,0.4476,-0.2386,0.1798,0.1276,0.1508,0.025,0.032,3173,2019-08-07 17:02:00:064
-0.2964,10.0689,0.4476,0.5025,-0.2737,-0.4377,0.1508,0.025,0.032,3178,2019-08-07 17:02:00:069
-0.2964,10.0689,0.4476,0.5025,-0.2737,-0.4377,0.1433,-0.0581,0.0448,3184,2019-08-07 17:02:00:075
-0.4973,10.0689,0.4051,0.5025,-0.2737,-0.4377,0.1433,-0.0581,0.0448,3188,2019-08-07 17:02:00:079
-0.4973,10.0689,0.4051,0.5025,-0.2737,-0.4377,0.1284,-0.1114,0.0458,3192,2019-08-07 17:02:00:083
-0.459,9.9687,0.6644,0.5541,-0.1592,-0.6884,0.1284,-0.1114,0.0458,3198,2019-08-07 17:02:00:089
-0.459,9.9687,0.6644,0.5541,-0.1592,-0.6884,0.1284,-0.1114,0.0458,3203,2019-08-07 17:02:00:094
-0.459,9.9687,0.6644,0.5541,-0.1592,-0.6884,0.1337,-0.2179,0.0629,3208,2019-08-07 17:02:00:099
-0.0045,9.9018,0.5418,0.5541,-0.1592,-0.6884,0.1337,-0.2179,0.0629,3213,2019-08-07 17:02:00:104
-0.0045,9.9018,0.5418,-0.0395,-0.1737,-0.4601,0.1316,-0.2893,0.0554,3217,2019-08-07 17:02:00:108
-0.0045,9.9018,0.5418,-0.0395,-0.1737,-0.4601,0.1316,-0.2893,0.0554,3223,2019-08-07 17:02:00:114
0.2682,9.9973,0.0092,-0.0395,-0.1737,-0.4601,0.1178,-0.2797,0.0437,3228,2019-08-07 17:02:00:119
0.2682,9.9973,0.0092,-0.0395,-0.1737,-0.4601,0.1178,-0.2797,0.0437,3233,2019-08-07 17:02:00:124
0.3113,9.7729,-0.2265,-0.2304,0.06,0.134,0.0858,-0.1902,0.0309,3238,2019-08-07 17:02:00:129
0.3113,9.7729,-0.2265,-0.2304,0.06,0.134,0.0858,-0.1902,0.0309,3243,2019-08-07 17:02:00:134
0.3113,9.7729,-0.2265,-0.2304,0.06,0.134,0.0634,-0.0943,0.0096,3248,2019-08-07 17:02:00:139
0.2347,9.5915,0.4004,-0.2304,0.06,0.134,0.0634,-0.0943,0.0096,3253,2019-08-07 17:02:00:144
0.2347,9.5915,0.4004,-0.2501,0.0503,-0.7823,0.0528,-0.089,0.0032,3259,2019-08-07 17:02:00:150
0.4883,9.983,0.8482,-0.2501,0.0503,-0.7823,0.0528,-0.089,0.0032,3263,2019-08-07 17:02:00:154
0.4883,9.983,0.8482,-0.2501,0.0503,-0.7823,0.0794,-0.1423,-0.0277,3267,2019-08-07 17:02:00:158
0.4883,9.983,0.8482,-0.2501,0.0503,-0.7823,0.0794,-0.1423,-0.0277,3273,2019-08-07 17:02:00:164
0.5409,10.2599,0.7681,-0.4236,-0.451,-0.8564,0.0815,-0.1295,-0.0309,3278,2019-08-07 17:02:00:169
0.5409,10.2599,0.7681,-0.4236,-0.451,-0.8564,0.0815,-0.1295,-0.0309,3283,2019-08-07 17:02:00:174
0.4691,10.2885,0.4523,-0.4236,-0.451,-0.8564,0.0837,-0.0326,-0.0532,3287,2019-08-07 17:02:00:178
0.4691,10.2885,0.4523,-0.4236,-0.451,-0.8564,0.0837,-0.0326,-0.0532,3293,2019-08-07 17:02:00:184
0.4691,10.2885,0.4523,-0.2532,-0.2791,-0.5425,0.0677,0.0388,-0.065,3298,2019-08-07 17:02:00:189
0.0864,9.9066,0.457,-0.2532,-0.2791,-0.5425,0.0677,0.0388,-0.065,3303,2019-08-07 17:02:00:194
0.0864,9.9066,0.457,0.013,-0.2027,-0.7868,0.0613,0.0612,-0.0671,3307,2019-08-07 17:02:00:198
0.0864,9.9066,0.457,0.013,-0.2027,-0.7868,0.0613,0.0612,-0.0671,3313,2019-08-07 17:02:00:204
-0.0236,9.8732,0.7493,0.013,-0.2027,-0.7868,0.0613,0.0612,-0.0671,3317,2019-08-07 17:02:00:208
-0.0236,9.8732,0.7493,0.013,-0.2027,-0.7868,0.0869,-0.0389,-0.0628,3323,2019-08-07 17:02:00:214
-0.0236,9.8732,0.7493,-0.1203,-0.1406,-1.0031,0.0869,-0.0389,-0.0628,3327,2019-08-07 17:02:00:218
0.3208,9.983,0.8294,-0.1203,-0.1406,-1.0031,0.1156,-0.0837,-0.0703,3333,2019-08-07 17:02:00:224
0.3208,9.983,0.8294,-0.1203,-0.1406,-1.0031,0.1156,-0.0837,-0.0703,3338,2019-08-07 17:02:00:229
0.3161,10.1596,0.5654,-0.1203,-0.1406,-1.0031,0.121,-0.0432,-0.0724,3343,2019-08-07 17:02:00:234
0.3161,10.1596,0.5654,-0.2524,-0.2362,-0.6435,0.121,-0.0432,-0.0724,3348,2019-08-07 17:02:00:239
0.3161,10.1596,0.5654,-0.2524,-0.2362,-0.6435,0.121,0.0729,-0.0767,3353,2019-08-07 17:02:00:244
0.1677,9.835,0.3769,-0.2524,-0.2362,-0.6435,0.121,0.0729,-0.0767,3358,2019-08-07 17:02:00:249
0.1677,9.835,0.3769,-0.2524,-0.2362,-0.6435,0.1092,0.1134,-0.0714,3363,2019-08-07 17:02:00:254
-0.0761,9.7729,0.5843,0.1394,0.0357,-0.7331,0.1092,0.1134,-0.0714,3367,2019-08-07 17:02:00:258
-0.0761,9.7729,0.5843,0.1394,0.0357,-0.7331,0.1092,0.1134,-0.0714,3373,2019-08-07 17:02:00:264
-0.0761,9.7729,0.5843,0.1394,0.0357,-0.7331,0.1359,0.074,-0.0777,3378,2019-08-07 17:02:00:269
0.0914,9.6393,0.5466,-0.0353,0.1693,-0.7038,0.1359,0.074,-0.0777,3382,2019-08-07 17:02:00:273
0.0914,9.6393,0.5466,-0.0353,0.1693,-0.7038,0.1572,0.0356,-0.0916,3388,2019-08-07 17:02:00:279
0.0914,9.6393,0.5466,-0.0353,0.1693,-0.7038,0.1572,0.0356,-0.0916,3392,2019-08-07 17:02:00:283
-0.0043,10.0785,-0.0238,-0.0144,-0.0841,0.0608,0.1007,0.0143,-0.0692,3398,2019-08-07 17:02:00:289
-0.0043,10.0785,-0.0238,-0.0144,-0.0841,0.0608,0.1007,0.0143,-0.0692,3402,2019-08-07 17:02:00:293
-0.1622,9.9018,0.1224,-0.0144,-0.0841,0.0608,0.0741,0.1081,-0.0714,3408,2019-08-07 17:02:00:299
-0.1622,9.9018,0.1224,-0.0144,-0.0841,0.0608,0.0741,0.1081,-0.0714,3413,2019-08-07 17:02:00:304
-0.1622,9.9018,0.1224,0.2292,-0.1607,-0.716,0.0592,0.0633,-0.0554,3418,2019-08-07 17:02:00:309
-0.1765,10.0164,0.5607,0.2292,-0.1607,-0.716,0.0592,0.0633,-0.0554,3423,2019-08-07 17:02:00:314
-0.1765,10.0164,0.5607,0.2292,-0.1607,-0.716,0.0773,0.0026,-0.0575,3427,2019-08-07 17:02:00:318
-0.3631,10.088,0.1365,0.2292,-0.1607,-0.716,0.0773,0.0026,-0.0575,3433,2019-08-07 17:02:00:324
-0.3631,10.088,0.1365,0.4268,-0.1656,-0.198,0.0581,5.0E-4,-0.0362,3438,2019-08-07 17:02:00:329
-0.3631,10.088,0.1365,0.4268,-0.1656,-0.198,0.0581,5.0E-4,-0.0362,3442,2019-08-07 17:02:00:333
-0.2531,10.0212,0.0517,0.4268,-0.1656,-0.198,0.0581,5.0E-4,-0.0362,3448,2019-08-07 17:02:00:339
-0.2531,10.0212,0.0517,0.4268,-0.1656,-0.198,0.0304,0.0367,-0.0298,3453,2019-08-07 17:02:00:344
-0.2531,10.0212,0.0517,0.4268,-0.1656,-0.198,0.0304,0.0367,-0.0298,3457,2019-08-07 17:02:00:348
-0.3535,10.1119,0.2308,0.3564,-0.3042,-0.4435,0.0166,0.026,-0.0287,3463,2019-08-07 17:02:00:354
-0.3535,10.1119,0.2308,0.3564,-0.3042,-0.4435,0.0166,0.026,-0.0287,3468,2019-08-07 17:02:00:359
-0.1956,9.9591,0.5843,0.3564,-0.3042,-0.4435,0.0261,-0.0027,-0.017,3472,2019-08-07 17:02:00:363
-0.1956,9.9591,0.5843,0.3564,-0.3042,-0.4435,0.0261,-0.0027,-0.017,3478,2019-08-07 17:02:00:369
-0.1956,9.9591,0.5843,-0.051,-0.0559,-0.7816,0.0336,-0.0645,-0.0181,3482,2019-08-07 17:02:00:373
0.1919,9.9734,0.3533,-0.051,-0.0559,-0.7816,0.0336,-0.0645,-0.0181,3488,2019-08-07 17:02:00:379
0.1919,9.9734,0.3533,-0.051,-0.0559,-0.7816,0.0389,-0.0624,-0.0287,3493,2019-08-07 17:02:00:384
0.2876,9.983,-0.1228,-0.2791,-0.1276,-0.1636,0.0389,-0.0624,-0.0287,3498,2019-08-07 17:02:00:389
0.2876,9.983,-0.1228,-0.2791,-0.1276,-0.1636,0.0389,-0.0624,-0.0287,3503,2019-08-07 17:02:00:394
0.2876,9.983,-0.1228,-0.2791,-0.1276,-0.1636,0.0027,0.026,-0.0383,3508,2019-08-07 17:02:00:399
0.1345,9.835,0.2308,-0.2791,-0.1276,-0.1636,-0.0058,0.0601,-0.0437,3514,2019-08-07 17:02:00:405
0.1345,9.835,0.2308,-0.2791,-0.1276,-0.1636,-0.0058,0.0601,-0.0437,3517,2019-08-07 17:02:00:408
0.1345,9.835,0.2308,-0.0462,-0.0368,-0.8528,-0.0058,0.0601,-0.0437,3523,2019-08-07 17:02:00:414
-0.0473,9.9257,0.655,-0.0462,-0.0368,-0.8528,0.008,0.0228,-0.0383,3527,2019-08-07 17:02:00:418
-0.0473,9.9257,0.655,-0.0462,-0.0368,-0.8528,0.008,0.0228,-0.0383,3533,2019-08-07 17:02:00:424
-0.0473,9.9257,0.655,-0.0462,-0.0368,-0.8528,0.0134,-0.0155,-0.0309,3537,2019-08-07 17:02:00:428
-0.2004,9.8684,0.4523,0.1803,-0.0606,-0.6603,0.0134,-0.0155,-0.0309,3543,2019-08-07 17:02:00:434
-0.2004,9.8684,0.4523,0.1803,-0.0606,-0.6603,0.0198,-0.0091,-0.0255,3548,2019-08-07 17:02:00:439
-0.2004,9.8684,0.4523,0.1803,-0.0606,-0.6603,0.0198,-0.0091,-0.0255,3553,2019-08-07 17:02:00:444
-0.0377,9.9973,0.4193,0.1803,-0.0606,-0.6603,0.0293,-6.0E-4,-0.0255,3558,2019-08-07 17:02:00:449
-0.0377,9.9973,0.4193,0.0121,-0.2325,-0.4756,0.0293,-6.0E-4,-0.0255,3563,2019-08-07 17:02:00:454
-0.0856,9.983,0.2685,0.0121,-0.2325,-0.4756,0.0283,0.0292,-0.0277,3567,2019-08-07 17:02:00:458
-0.0856,9.983,0.2685,0.0121,-0.2325,-0.4756,0.0283,0.0292,-0.0277,3573,2019-08-07 17:02:00:464
-0.0856,9.983,0.2685,0.0121,-0.2325,-0.4756,0.0219,0.0335,-0.0277,3579,2019-08-07 17:02:00:470
-0.0808,9.9734,0.4948,0.0493,-0.1657,-0.7026,0.0219,0.0335,-0.0277,3583,2019-08-07 17:02:00:474
-0.0808,9.9734,0.4948,0.0493,-0.1657,-0.7026,0.0219,0.0335,-0.0277,3587,2019-08-07 17:02:00:478
6.0E-4,9.9973,0.7116,0.0493,-0.1657,-0.7026,0.0411,-0.0198,-0.0245,3593,2019-08-07 17:02:00:484
6.0E-4,9.9973,0.7116,0.0493,-0.1657,-0.7026,0.0411,-0.0198,-0.0245,3597,2019-08-07 17:02:00:488
6.0E-4,9.9973,0.7116,-0.108,-0.1132,-0.6802,0.0592,-0.0294,-0.0245,3603,2019-08-07 17:02:00:494
0.0819,9.9496,0.3816,-0.108,-0.1132,-0.6802,0.0592,-0.0294,-0.0245,3608,2019-08-07 17:02:00:499
0.0819,9.9496,0.3816,-0.108,-0.1132,-0.6802,0.0602,-0.024,-0.0277,3613,2019-08-07 17:02:00:504
-1.052,10.0355,6.5332,-0.108,-0.1132,-0.6802,0.0602,-0.024,-0.0277,3617,2019-08-07 17:02:00:508
-1.052,10.0355,6.5332,-1.1386,1.3193,-5.6039,0.008,-0.9838,-0.0117,3623,2019-08-07 17:02:00:514
-1.052,10.0355,6.5332,-1.1386,1.3193,-5.6039,0.008,-0.9838,-0.0117,3627,2019-08-07 17:02:00:518
-0.3965,10.995,-1.8197,-1.1386,1.3193,-5.6039,0.2413,-0.2925,-0.0096,3633,2019-08-07 17:02:00:524
-0.3965,10.995,-1.8197,-1.1386,1.3193,-5.6039,0.2413,-0.2925,-0.0096,3638,2019-08-07 17:02:00:529
0.7661,9.5629,-0.349,-0.878,0.3542,0.6343,-0.0751,-0.2105,-0.0085,3643,2019-08-07 17:02:00:534
0.7661,9.5629,-0.349,-0.878,0.3542,0.6343,-0.0751,-0.2105,-0.0085,3647,2019-08-07 17:02:00:538
0.7661,9.5629,-0.349,-0.878,0.3542,0.6343,0.0634,0.2199,-0.0362,3653,2019-08-07 17:02:00:544
0.2733,10.2264,0.5042,-0.878,0.3542,0.6343,0.0634,0.2199,-0.0362,3658,2019-08-07 17:02:00:549
0.2733,10.2264,0.5042,0.018,-0.338,-0.3175,0.0634,0.2199,-0.0362,3662,2019-08-07 17:02:00:553
-0.4061,10.0689,-0.1039,0.018,-0.338,-0.3175,0.0293,0.1613,-0.0628,3668,2019-08-07 17:02:00:559
-0.4061,10.0689,-0.1039,0.018,-0.338,-0.3175,0.0293,0.1613,-0.0628,3673,2019-08-07 17:02:00:564
-0.4061,10.0689,-0.1039,0.018,-0.338,-0.3175,0.0474,0.3733,-0.033,3678,2019-08-07 17:02:00:569
-0.1573,10.0259,0.113,0.0996,-0.2189,-0.3481,0.0474,0.3733,-0.033,3683,2019-08-07 17:02:00:574
-0.1573,10.0259,0.113,0.0996,-0.2189,-0.3481,0.0528,0.499,-0.0277,3687,2019-08-07 17:02:00:578
-0.4539,10.0498,0.5042,0.3938,-0.2429,-0.7424,0.0528,0.499,-0.0277,3693,2019-08-07 17:02:00:584
-0.4539,10.0498,0.5042,0.3938,-0.2429,-0.7424,0.0315,0.4042,0.016,3698,2019-08-07 17:02:00:589
-0.4539,10.0498,0.5042,0.3938,-0.2429,-0.7424,0.0315,0.4042,0.016,3703,2019-08-07 17:02:00:594
-0.3439,9.7156,1.6072,0.3938,-0.2429,-0.7424,0.0251,-0.0432,-0.0138,3708,2019-08-07 17:02:00:599
-0.3439,9.7156,1.6072,0.5208,-0.0518,-0.8661,0.0251,-0.0432,-0.0138,3713,2019-08-07 17:02:00:604
-0.2577,9.9591,-0.085,0.5208,-0.0518,-0.8661,0.1092,-0.2105,0.0139,3718,2019-08-07 17:02:00:609
-0.2577,9.9591,-0.085,0.5208,-0.0518,-0.8661,0.1092,-0.2105,0.0139,3723,2019-08-07 17:02:00:614
-0.2577,9.9591,-0.085,0.5208,-0.0518,-0.8661,0.0592,-0.1167,0.0011,3728,2019-08-07 17:02:00:619
0.3977,9.8302,-0.4338,-0.4151,-0.0714,0.0639,0.0592,-0.1167,0.0011,3732,2019-08-07 17:02:00:623
0.3977,9.8302,-0.4338,-0.4151,-0.0714,0.0639,0.0592,-0.1167,0.0011,3738,2019-08-07 17:02:00:629