ACCELEROMETER X (m/s²),ACCELEROMETER Y (m/s²),ACCELEROMETER Z (m/s²),LINEAR ACCELERATION X (m/s²),LINEAR ACCELERATION Y (m/s²),LINEAR ACCELERATION Z (m/s²),GYROSCOPE X (rad/s),GYROSCOPE Y (rad/s),GYROSCOPE Z (rad/s),Time since start in ms ,YYYY-MO-DD HH-MI-SS_SSS
-0.8192,9.9111,0.5473,-0.0034,-0.067,-0.6805,0.2008,0.0026,-0.1587,1,2019-08-07 17:02:34:192
-0.8192,9.9111,0.5473,0.1089,-0.2219,-0.4945,0.2072,0.0303,-0.1491,7,2019-08-07 17:02:34:198
-1.0153,9.9683,0.6463,0.1089,-0.2219,-0.4945,0.2072,0.0303,-0.1491,12,2019-08-07 17:02:34:203
-1.0153,9.9683,0.6463,0.1089,-0.2219,-0.4945,0.2115,0.0591,-0.1384,17,2019-08-07 17:02:34:208
-1.1493,9.849,0.7217,0.299,-0.0761,-0.6552,0.2115,0.0591,-0.1384,23,2019-08-07 17:02:34:214
-1.1493,9.849,0.7217,0.299,-0.0761,-0.6552,0.2221,0.0356,-0.1299,27,2019-08-07 17:02:34:218
-1.1493,9.849,0.7217,0.299,-0.0761,-0.6552,0.2221,0.0356,-0.1299,31,2019-08-07 17:02:34:222
-1.0201,9.9158,0.7123,0.299,-0.0761,-0.6552,0.2392,-0.0262,-0.1214,37,2019-08-07 17:02:34:228
-1.0201,9.9158,0.7123,0.299,-0.0761,-0.6552,0.2392,-0.0262,-0.1214,41,2019-08-07 17:02:34:232
-0.9292,10.0304,0.2409,0.0957,-0.2119,-0.4703,0.2562,-0.0613,-0.1139,47,2019-08-07 17:02:34:238
-0.9292,10.0304,0.2409,0.0957,-0.2119,-0.4703,0.2562,-0.0613,-0.1139,51,2019-08-07 17:02:34:242
-0.9292,10.0304,0.2409,0.0957,-0.2119,-0.4703,0.2456,-0.0358,-0.1065,57,2019-08-07 17:02:34:248
-0.8809,9.9015,0.1514,0.0957,-0.2119,-0.4703,0.2456,-0.0358,-0.1065,61,2019-08-07 17:02:34:252
-0.8809,9.9015,0.1514,-0.0079,-0.0706,-0.3008,0.2371,-0.0113,-0.1107,67,2019-08-07 17:02:34:258
-0.8809,9.9015,0.1514,-0.0079,-0.0706,-0.3008,0.2371,-0.0113,-0.1107,71,2019-08-07 17:02:34:262
-0.9,9.9301,0.2646,-0.0079,-0.0706,-0.3008,0.2296,-0.04,-0.1065,77,2019-08-07 17:02:34:268
-0.9,9.9301,0.2646,-0.0079,-0.0706,-0.3008,0.2296,-0.04,-0.1065,82,2019-08-07 17:02:34:273
-0.8856,9.8537,-0.2398,-0.0292,-0.1492,-0.0516,0.2179,-0.0507,-0.1075,86,2019-08-07 17:02:34:277
-0.8856,9.8537,-0.2398,-0.0292,-0.1492,-0.0516,0.2179,-0.0507,-0.1075,92,2019-08-07 17:02:34:283
-0.8856,9.8537,-0.2398,-0.0292,-0.1492,-0.0516,0.1859,-0.0038,-0.1044,97,2019-08-07 17:02:34:288
-1.0531,9.7821,-0.3718,-0.0292,-0.1492,-0.0516,0.1859,-0.0038,-0.1044,101,2019-08-07 17:02:34:292
-1.0531,9.7821,-0.3718,0.2268,0.0728,0.1434,0.154,0.0175,-0.098,107,2019-08-07 17:02:34:298
-1.3258,9.6102,-0.0654,0.2268,0.0728,0.1434,0.154,0.0175,-0.098,111,2019-08-07 17:02:34:302
-1.3258,9.6102,-0.0654,0.2268,0.0728,0.1434,0.1401,-0.0251,-0.083,117,2019-08-07 17:02:34:308
-1.3258,9.6102,-0.0654,0.2268,0.0728,0.1434,0.1401,-0.0251,-0.083,122,2019-08-07 17:02:34:313
-1.4023,9.6628,0.2316,0.44,0.099,-0.365,0.1401,-0.0251,-0.083,127,2019-08-07 17:02:34:318
-1.4023,9.6628,0.2316,0.44,0.099,-0.365,0.1508,-0.1263,-0.066,132,2019-08-07 17:02:34:323
-1.2827,9.8537,0.439,0.44,0.099,-0.365,0.1508,-0.1263,-0.066,137,2019-08-07 17:02:34:328
-1.2827,9.8537,0.439,0.44,0.099,-0.365,0.1689,-0.1945,-0.0617,142,2019-08-07 17:02:34:333
-1.0148,9.9444,0.2269,0.1319,-0.1273,-0.3891,0.1689,-0.1945,-0.0617,147,2019-08-07 17:02:34:338
-1.0148,9.9444,0.2269,0.1319,-0.1273,-0.3891,0.1689,-0.1945,-0.0617,152,2019-08-07 17:02:34:343
-1.0148,9.9444,0.2269,0.1319,-0.1273,-0.3891,0.1614,-0.1529,-0.0543,157,2019-08-07 17:02:34:348
-0.8521,10.0017,0.0289,0.1319,-0.1273,-0.3891,0.1614,-0.1529,-0.0543,161,2019-08-07 17:02:34:352
-0.8521,10.0017,0.0289,-0.1281,-0.1862,-0.1893,0.1423,-0.0741,-0.0511,167,2019-08-07 17:02:34:358
-0.8521,10.0017,0.0289,-0.1281,-0.1862,-0.1893,0.1423,-0.0741,-0.0511,172,2019-08-07 17:02:34:363
-0.8856,9.9683,0.0289,-0.1088,-0.2108,-0.2246,0.1188,-0.0123,-0.0543,177,2019-08-07 17:02:34:368
-0.8856,9.9683,0.0289,-0.1088,-0.2108,-0.2246,0.1188,-0.0123,-0.0543,182,2019-08-07 17:02:34:373
-0.8856,9.9683,0.0289,-0.1088,-0.2108,-0.2246,0.1178,-0.0251,-0.0362,187,2019-08-07 17:02:34:378
-0.9573,9.9062,0.4531,-0.1088,-0.2108,-0.2246,0.1178,-0.0251,-0.0362,191,2019-08-07 17:02:34:382
-0.9573,9.9062,0.4531,0.0075,-0.1356,-0.6436,0.1178,-0.0251,-0.0362,197,2019-08-07 17:02:34:388
-0.9525,9.8537,0.2599,0.0075,-0.1356,-0.6436,0.1305,-0.0943,-0.0138,202,2019-08-07 17:02:34:393
-0.9525,9.8537,0.2599,0.0075,-0.1356,-0.6436,0.1305,-0.0943,-0.0138,206,2019-08-07 17:02:34:397
-0.9525,9.8537,0.2599,0.0075,-0.1356,-0.6436,0.1423,-0.1306,-0.0042,212,2019-08-07 17:02:34:403
-0.9143,9.8824,0.1939,-0.0901,-0.1267,-0.4291,0.1423,-0.1306,-0.0042,216,2019-08-07 17:02:34:407
-0.9143,9.8824,0.1939,-0.0901,-0.1267,-0.4291,0.138,-0.1391,0.0011,222,2019-08-07 17:02:34:413
-0.6846,9.9301,0.2881,-0.0901,-0.1267,-0.4291,0.1497,-0.1508,0.0086,227,2019-08-07 17:02:34:418
-0.6846,9.9301,0.2881,-0.0901,-0.1267,-0.4291,0.1497,-0.1508,0.0086,232,2019-08-07 17:02:34:423
-0.6846,9.9301,0.2881,-0.3221,-0.1318,-0.404,0.1497,-0.1508,0.0086,236,2019-08-07 17:02:34:427
-0.7277,9.8919,-0.0795,-0.3221,-0.1318,-0.404,0.1486,-0.1178,0.0032,242,2019-08-07 17:02:34:433
-0.7277,9.8919,-0.0795,-0.3221,-0.1318,-0.404,0.1241,-0.0613,0.0,248,2019-08-07 17:02:34:439
-0.7803,9.8107,-0.3529,-0.3221,-0.1318,-0.404,0.1241,-0.0613,0.0,253,2019-08-07 17:02:34:444
-0.7803,9.8107,-0.3529,-0.172,-0.0607,0.0765,0.1241,-0.0613,0.0,257,2019-08-07 17:02:34:448
-0.7803,9.8107,-0.3529,-0.172,-0.0607,0.0765,0.0986,-0.0166,0.0,262,2019-08-07 17:02:34:453
-1.0004,9.7725,-0.1314,-0.172,-0.0607,0.0765,0.0986,-0.0166,0.0,266,2019-08-07 17:02:34:457
-1.0004,9.7725,-0.1314,-0.172,-0.0607,0.0765,0.089,-0.0123,0.0011,272,2019-08-07 17:02:34:463
-1.1152,9.868,0.0053,0.1151,-0.1137,-0.3035,0.089,-0.0123,0.0011,277,2019-08-07 17:02:34:468
-1.1152,9.868,0.0053,0.1151,-0.1137,-0.3035,0.0879,-0.0358,0.0086,283,2019-08-07 17:02:34:474
-1.1152,9.868,0.0053,0.1151,-0.1137,-0.3035,0.0879,-0.0358,0.0086,287,2019-08-07 17:02:34:478
-1.0147,9.9587,0.076,0.1151,-0.1137,-0.3035,0.089,-0.0464,0.0171,292,2019-08-07 17:02:34:483
-1.0147,9.9587,0.076,-0.1129,-0.1712,-0.3642,0.089,-0.0464,0.0171,298,2019-08-07 17:02:34:489
-1.0147,9.9587,0.076,-0.1129,-0.1712,-0.3642,0.089,-0.0464,0.0171,301,2019-08-07 17:02:34:492
-0.7611,9.9158,0.1232,-0.1129,-0.1712,-0.3642,0.0922,-0.0219,0.0054,307,2019-08-07 17:02:34:498
-0.7611,9.9158,0.1232,-0.1129,-0.1712,-0.3642,0.0922,-0.0219,0.0054,312,2019-08-07 17:02:34:503
-0.7611,9.9158,0.1232,-0.3248,-0.0759,-0.4592,0.0922,0.0218,0.0075,317,2019-08-07 17:02:34:508
-0.6702,9.8203,0.1279,-0.3248,-0.0759,-0.4592,0.0922,0.0218,0.0075,321,2019-08-07 17:02:34:512
-0.6702,9.8203,0.1279,-0.3248,-0.0759,-0.4592,0.0869,0.0633,0.0096,327,2019-08-07 17:02:34:518
-0.6941,9.8442,-0.2115,-0.3248,-0.0759,-0.4592,0.0869,0.0633,0.0096,332,2019-08-07 17:02:34:523
-0.6941,9.8442,-0.2115,-0.0576,-0.1476,0.0998,0.0869,0.0633,0.0096,336,2019-08-07 17:02:34:527
-0.9812,9.8967,-0.3953,-0.0576,-0.1476,0.0998,0.0485,0.1624,-0.0021,342,2019-08-07 17:02:34:533
-0.9812,9.8967,-0.3953,-0.0576,-0.1476,0.0998,0.0485,0.1624,-0.0021,347,2019-08-07 17:02:34:538
-0.9812,9.8967,-0.3953,-0.0576,-0.1476,0.0998,0.0325,0.173,0.0011,352,2019-08-07 17:02:34:543
-1.2634,9.8107,-0.0559,0.3012,-0.0239,-0.3438,0.0325,0.173,0.0011,357,2019-08-07 17:02:34:548
-1.2634,9.8107,-0.0559,0.3012,-0.0239,-0.3438,0.0336,0.1091,0.0054,362,2019-08-07 17:02:34:553
-1.3591,9.8107,-0.0418,0.3012,-0.0239,-0.3438,0.0336,0.1091,0.0054,367,2019-08-07 17:02:34:558
-1.3591,9.8107,-0.0418,0.3012,-0.0239,-0.3438,0.0368,0.0207,0.0096,372,2019-08-07 17:02:34:563
-1.3591,9.8107,-0.0418,0.3012,-0.0239,-0.3438,0.0368,0.0207,0.0096,377,2019-08-07 17:02:34:568
-1.0386,9.8012,-0.0889,0.1236,-0.091,-0.2646,0.0442,-0.0528,0.0182,382,2019-08-07 17:02:34:573
-1.0386,9.8012,-0.0889,0.1236,-0.091,-0.2646,0.0442,-0.0528,0.0182,387,2019-08-07 17:02:34:578
-1.0386,9.8012,-0.0889,0.1236,-0.091,-0.2646,0.0496,-0.0698,0.0128,392,2019-08-07 17:02:34:583
-0.8041,9.6246,-0.1219,-0.2605,0.1288,-0.1766,0.0496,-0.0698,0.0128,397,2019-08-07 17:02:34:588
-0.8041,9.6246,-0.1219,-0.2605,0.1288,-0.1766,0.04,-0.0421,0.0043,401,2019-08-07 17:02:34:592
-0.8041,9.6246,-0.1219,-0.2605,0.1288,-0.1766,0.04,-0.0421,0.0043,407,2019-08-07 17:02:34:598
-0.6749,9.6389,-0.1549,-0.3117,0.1145,-0.212,0.0304,-0.0145,-0.0074,411,2019-08-07 17:02:34:602
-0.6749,9.6389,-0.1549,-0.3117,0.1145,-0.212,0.0304,-0.0145,-0.0074,417,2019-08-07 17:02:34:608
-0.6749,9.6389,-0.1549,-0.3117,0.1145,-0.212,0.0251,0.0186,-0.0181,421,2019-08-07 17:02:34:612
-0.8137,9.7009,-0.1361,-0.1164,0.0045,-0.2811,0.0251,0.0186,-0.0181,427,2019-08-07 17:02:34:618
-0.8137,9.7009,-0.1361,-0.1164,0.0045,-0.2811,0.0166,0.0463,-0.0191,433,2019-08-07 17:02:34:624
-0.9763,9.8346,-0.0607,-0.1164,0.0045,-0.2811,0.0166,0.0463,-0.0191,437,2019-08-07 17:02:34:628
-0.9763,9.8346,-0.0607,-0.1164,0.0045,-0.2811,0.0166,0.0463,-0.0191,441,2019-08-07 17:02:34:632
-0.9763,9.8346,-0.0607,-0.1164,0.0045,-0.2811,0.0134,0.0772,-0.0191,447,2019-08-07 17:02:34:638
-1.0768,9.8012,0.2175,0.0859,-0.0484,-0.5888,0.0134,0.0772,-0.0191,452,2019-08-07 17:02:34:643
-1.0768,9.8012,0.2175,0.0859,-0.0484,-0.5888,0.0336,0.0441,-0.0223,456,2019-08-07 17:02:34:647
-1.0337,9.9253,0.241,0.0859,-0.0484,-0.5888,0.0336,0.0441,-0.0223,462,2019-08-07 17:02:34:653
-1.0337,9.9253,0.241,0.0859,-0.0484,-0.5888,0.0474,-0.0017,-0.017,466,2019-08-07 17:02:34:657
-1.0337,9.9253,0.241,-0.0234,-0.2065,-0.4838,0.0474,-0.0017,-0.017,472,2019-08-07 17:02:34:663
-0.9476,10.0542,0.0148,-0.0234,-0.2065,-0.4838,0.0581,-0.0091,-0.0191,476,2019-08-07 17:02:34:667
-0.9476,10.0542,0.0148,-0.0234,-0.2065,-0.4838,0.0581,-0.0091,-0.0191,483,2019-08-07 17:02:34:674
-0.8902,9.9348,-0.0654,-0.0234,-0.2065,-0.4838,0.0602,0.0154,-0.0106,486,2019-08-07 17:02:34:677
-0.8902,9.9348,-0.0654,-0.15,-0.1259,-0.356,0.0602,0.0154,-0.0106,491,2019-08-07 17:02:34:682
-0.8902,9.9348,-0.0654,-0.15,-0.1259,-0.356,0.0581,0.0441,-0.0085,497,2019-08-07 17:02:34:688
-0.9141,9.8776,0.0289,-0.15,-0.1259,-0.356,0.0581,0.0441,-0.0085,502,2019-08-07 17:02:34:693
-0.9141,9.8776,0.0289,-0.15,-0.1259,-0.356,0.0624,0.0473,-0.0085,506,2019-08-07 17:02:34:697
-0.8567,9.8155,0.0148,-0.1265,-0.0977,-0.408,0.0624,0.0473,-0.0085,512,2019-08-07 17:02:34:703
-0.8567,9.8155,0.0148,-0.1265,-0.0977,-0.408,0.0741,0.0463,-0.0106,517,2019-08-07 17:02:34:708
-0.8567,9.8155,0.0148,-0.1265,-0.0977,-0.408,0.0741,0.0463,-0.0106,522,2019-08-07 17:02:34:713
-0.8136,9.8537,-0.0324,-0.1265,-0.0977,-0.408,0.0741,0.0505,-0.0149,527,2019-08-07 17:02:34:718
-0.8136,9.8537,-0.0324,-0.2227,-0.0887,-0.2787,0.0741,0.0505,-0.0149,531,2019-08-07 17:02:34:722
-0.8136,9.8537,-0.0324,-0.2227,-0.0887,-0.2787,0.0634,0.0974,-0.017,537,2019-08-07 17:02:34:728
-0.7132,9.9158,-0.3623,-0.2227,-0.0887,-0.2787,0.0634,0.0974,-0.017,542,2019-08-07 17:02:34:733
-0.7132,9.9158,-0.3623,-0.2227,-0.0887,-0.2787,0.0464,0.1549,-0.0266,547,2019-08-07 17:02:34:738
-0.7132,9.9158,-0.3623,-0.1231,-0.2326,-0.1883,0.0464,0.1549,-0.0266,551,2019-08-07 17:02:34:742
-0.9189,10.0303,-0.1691,-0.1231,-0.2326,-0.1883,0.0464,0.1549,-0.0266,557,2019-08-07 17:02:34:748
-0.9189,10.0303,-0.1691,-0.1231,-0.2326,-0.1883,0.0389,0.189,-0.0298,561,2019-08-07 17:02:34:752
-1.0289,9.9587,-0.1172,-0.1231,-0.2326,-0.1883,0.0389,0.189,-0.0298,567,2019-08-07 17:02:34:758
-1.0289,9.9587,-0.1172,0.0161,-0.1284,-0.3301,0.0474,0.1645,-0.0319,572,2019-08-07 17:02:34:763
-1.0624,9.8728,-0.1313,0.0161,-0.1284,-0.3301,0.0474,0.1645,-0.0319,577,2019-08-07 17:02:34:768
-1.0624,9.8728,-0.1313,0.0161,-0.1284,-0.3301,0.0464,0.1432,-0.0319,582,2019-08-07 17:02:34:773
-1.0624,9.8728,-0.1313,0.0161,-0.1284,-0.3301,0.0464,0.1432,-0.0319,587,2019-08-07 17:02:34:778
-1.1389,9.868,-0.2209,0.1302,-0.1199,-0.2176,0.0421,0.1294,-0.0287,592,2019-08-07 17:02:34:783
-1.1389,9.868,-0.2209,0.1302,-0.1199,-0.2176,0.0421,0.1294,-0.0287,596,2019-08-07 17:02:34:787
-1.1389,9.868,-0.2209,0.1302,-0.1199,-0.2176,0.0347,0.1155,-0.0202,602,2019-08-07 17:02:34:793
-1.1246,9.9205,-0.2445,0.1302,-0.1199,-0.2176,0.0347,0.1155,-0.0202,606,2019-08-07 17:02:34:797
-1.1246,9.9205,-0.2445,0.1931,-0.2209,-0.3007,0.0261,0.0985,-0.0149,612,2019-08-07 17:02:34:803
-1.2442,9.973,-0.0748,0.1931,-0.2209,-0.3007,0.0261,0.0985,-0.0149,617,2019-08-07 17:02:34:808
-1.2442,9.973,-0.0748,0.1931,-0.2209,-0.3007,0.0261,0.0985,-0.0149,622,2019-08-07 17:02:34:813
-1.2442,9.973,-0.0748,0.1931,-0.2209,-0.3007,0.0315,0.0473,-0.0053,627,2019-08-07 17:02:34:818
-1.1341,10.0017,-0.0135,0.0904,-0.2595,-0.3988,0.0315,0.0473,-0.0053,632,2019-08-07 17:02:34:823
-1.1341,10.0017,-0.0135,0.0904,-0.2595,-0.3988,0.0379,0.0058,0.0,637,2019-08-07 17:02:34:828
-1.0528,9.9444,-0.2539,0.0376,-0.1976,-0.1989,0.0379,0.0058,0.0,643,2019-08-07 17:02:34:834
-1.0528,9.9444,-0.2539,0.0376,-0.1976,-0.1989,0.0389,-0.0027,0.0011,647,2019-08-07 17:02:34:838
-1.0528,9.9444,-0.2539,0.0376,-0.1976,-0.1989,0.0389,-0.0027,0.0011,652,2019-08-07 17:02:34:843
-0.8949,9.8537,-0.3859,0.0376,-0.1976,-0.1989,0.0208,0.01,-0.0031,657,2019-08-07 17:02:34:848
-0.8949,9.8537,-0.3859,-0.0959,-0.1261,-0.1281,0.0208,0.01,-0.0031,661,2019-08-07 17:02:34:852
-0.8949,9.8537,-0.3859,-0.0959,-0.1261,-0.1281,0.0048,0.0111,-0.0053,667,2019-08-07 17:02:34:858
-0.871,10.0017,-0.2445,-0.0959,-0.1261,-0.1281,0.0048,0.0111,-0.0053,671,2019-08-07 17:02:34:862
-0.871,10.0017,-0.2445,-0.0959,-0.1261,-0.1281,-0.0058,0.0037,-0.0095,677,2019-08-07 17:02:34:868
-0.871,9.973,-0.2209,-0.1442,-0.2263,-0.2349,-0.0058,0.0037,-0.0095,682,2019-08-07 17:02:34:873
-0.871,9.973,-0.2209,-0.1442,-0.2263,-0.2349,-0.008,0.0058,-0.0138,686,2019-08-07 17:02:34:877
-0.871,9.973,-0.2209,-0.1442,-0.2263,-0.2349,-0.008,0.0058,-0.0138,692,2019-08-07 17:02:34:883
-0.9284,9.8871,-0.2775,-0.1442,-0.2263,-0.2349,-0.0143,0.01,-0.0181,697,2019-08-07 17:02:34:888
-0.9284,9.8871,-0.2775,-0.027,-0.1691,-0.2501,-0.0143,0.01,-0.0181,702,2019-08-07 17:02:34:893
-0.9618,9.8585,-0.1643,-0.027,-0.1691,-0.2501,-0.0143,0.01,-0.0181,707,2019-08-07 17:02:34:898
-0.9618,9.8585,-0.1643,-0.027,-0.1691,-0.2501,-0.0218,0.0058,-0.0213,711,2019-08-07 17:02:34:902
-0.9618,9.8585,-0.1643,-0.027,-0.1691,-0.2501,-0.0218,0.0058,-0.0213,717,2019-08-07 17:02:34:908
-0.9427,9.9062,-0.2115,-0.026,-0.1644,-0.2104,-0.0282,-0.0113,-0.0245,722,2019-08-07 17:02:34:913
-0.9427,9.9062,-0.2115,-0.026,-0.1644,-0.2104,-0.0282,-0.0113,-0.0245,727,2019-08-07 17:02:34:918
-1.0288,9.9014,-0.4189,-0.026,-0.1644,-0.2104,-0.0282,-0.0113,-0.0245,732,2019-08-07 17:02:34:923
-1.0288,9.9014,-0.4189,-0.026,-0.1644,-0.2104,-0.0399,-0.0102,-0.0277,736,2019-08-07 17:02:34:927
-1.0288,9.9014,-0.4189,0.074,-0.0739,-0.042,-0.0399,-0.0102,-0.0277,742,2019-08-07 17:02:34:933
-1.0958,9.8012,-0.3246,0.074,-0.0739,-0.042,-0.0527,-0.0113,-0.0266,747,2019-08-07 17:02:34:938
-1.0958,9.8012,-0.3246,0.074,-0.0739,-0.042,-0.0527,-0.0113,-0.0266,751,2019-08-07 17:02:34:942
-1.0958,9.8012,-0.3246,0.074,-0.0739,-0.042,-0.057,-0.0336,-0.0255,757,2019-08-07 17:02:34:948
-1.0958,9.7916,0.0384,0.074,-0.0739,-0.042,-0.057,-0.0336,-0.0255,761,2019-08-07 17:02:34:952
-1.0958,9.7916,0.0384,0.0108,-0.093,-0.33,-0.0516,-0.0656,-0.0234,767,2019-08-07 17:02:34:958
-0.981,9.8012,-0.1172,0.0108,-0.093,-0.33,-0.0516,-0.0656,-0.0234,772,2019-08-07 17:02:34:963
-0.981,9.8012,-0.1172,0.0108,-0.093,-0.33,-0.0463,-0.0741,-0.0298,777,2019-08-07 17:02:34:968
-0.981,9.8012,-0.1172,0.0108,-0.093,-0.33,-0.0463,-0.0741,-0.0298,781,2019-08-07 17:02:34:972
-0.847,9.868,-0.1313,-0.1903,-0.1216,-0.2786,-0.0463,-0.0741,-0.0298,787,2019-08-07 17:02:34:978
-0.847,9.868,-0.1313,-0.1903,-0.1216,-0.2786,-0.057,-0.0304,-0.034,791,2019-08-07 17:02:34:982
-0.8231,9.9014,-0.1596,-0.1903,-0.1216,-0.2786,-0.057,-0.0304,-0.034,797,2019-08-07 17:02:34:988
-0.8231,9.9014,-0.1596,-0.1903,-0.1216,-0.2786,-0.0655,-0.0017,-0.0447,802,2019-08-07 17:02:34:993
-0.8231,9.9014,-0.1596,-0.12,-0.1408,-0.316,-0.0655,-0.0017,-0.0447,807,2019-08-07 17:02:34:998
-0.9857,9.9539,-0.0229,-0.12,-0.1408,-0.316,-0.0612,5.0E-4,-0.0426,812,2019-08-07 17:02:35:003
-0.9857,9.9539,-0.0229,-0.12,-0.1408,-0.316,-0.0612,5.0E-4,-0.0426,817,2019-08-07 17:02:35:008
-1.1101,9.8871,-0.0842,-0.12,-0.1408,-0.316,-0.0601,-0.0166,-0.0383,821,2019-08-07 17:02:35:012
-1.1101,9.8871,-0.0842,0.0297,-0.1506,-0.3149,-0.0601,-0.0166,-0.0383,827,2019-08-07 17:02:35:018
-1.1101,9.8871,-0.0842,0.0297,-0.1506,-0.3149,-0.0623,-0.0176,-0.0372,833,2019-08-07 17:02:35:024
-1.0718,9.9157,-0.2303,0.0297,-0.1506,-0.3149,-0.0623,-0.0176,-0.0372,837,2019-08-07 17:02:35:028
-1.0718,9.9157,-0.2303,0.0297,-0.1506,-0.3149,-0.0623,-0.0176,-0.0372,841,2019-08-07 17:02:35:032
-1.0622,9.868,-0.0936,0.0312,-0.1509,-0.2062,-0.0655,-0.0134,-0.0404,847,2019-08-07 17:02:35:038
-1.0622,9.868,-0.0936,0.0312,-0.1509,-0.2062,-0.0655,-0.0134,-0.0404,852,2019-08-07 17:02:35:043
-1.0622,9.868,-0.0936,0.0312,-0.1509,-0.2062,-0.0633,-0.0368,-0.0404,857,2019-08-07 17:02:35:048
-0.957,9.911,0.0242,0.0312,-0.1509,-0.2062,-0.0633,-0.0368,-0.0404,862,2019-08-07 17:02:35:053
-0.957,9.911,0.0242,-0.1488,-0.2419,-0.2604,-0.0633,-0.0549,-0.0468,867,2019-08-07 17:02:35:058
-0.8756,9.9253,-0.2162,-0.1488,-0.2419,-0.2604,-0.0633,-0.0549,-0.0468,872,2019-08-07 17:02:35:063
-0.8756,9.9253,-0.2162,-0.1672,-0.1465,-0.1114,-0.0633,-0.0549,-0.0468,877,2019-08-07 17:02:35:068
-0.8756,9.9253,-0.2162,-0.1672,-0.1465,-0.1114,-0.0687,-0.0368,-0.0511,883,2019-08-07 17:02:35:074
-0.9905,9.8584,-0.1549,-0.1672,-0.1465,-0.1114,-0.0687,-0.0368,-0.0511,887,2019-08-07 17:02:35:078
-0.9905,9.8584,-0.1549,-0.1672,-0.1465,-0.1114,-0.0804,0.0015,-0.0532,892,2019-08-07 17:02:35:083
-1.1292,9.7821,-0.1455,0.0141,-0.0707,-0.1561,-0.0804,0.0015,-0.0532,897,2019-08-07 17:02:35:088
-1.1292,9.7821,-0.1455,0.0141,-0.0707,-0.1561,-0.0857,-0.0081,-0.049,902,2019-08-07 17:02:35:093
-1.1292,9.7821,-0.1455,0.0141,-0.0707,-0.1561,-0.0857,-0.0081,-0.049,907,2019-08-07 17:02:35:098
-1.2344,9.8489,-0.0983,0.0141,-0.0707,-0.1561,-0.0921,-0.0294,-0.0468,912,2019-08-07 17:02:35:103
-1.2344,9.8489,-0.0983,0.1278,-0.0713,-0.2164,-0.0921,-0.0294,-0.0468,916,2019-08-07 17:02:35:107
-1.2392,9.8346,-0.1172,0.1278,-0.0713,-0.2164,-0.0953,-0.0432,-0.0415,922,2019-08-07 17:02:35:113
-1.2392,9.8346,-0.1172,0.1278,-0.0713,-0.2164,-0.0953,-0.0432,-0.0415,927,2019-08-07 17:02:35:118
-1.2392,9.8346,-0.1172,0.1278,-0.0713,-0.2164,-0.0985,-0.04,-0.0394,931,2019-08-07 17:02:35:122
-1.2344,9.8298,-0.103,0.133,-0.086,-0.1807,-0.0985,-0.04,-0.0394,937,2019-08-07 17:02:35:128
-1.2344,9.8298,-0.103,0.133,-0.086,-0.1807,-0.0985,-0.0166,-0.0319,942,2019-08-07 17:02:35:133
-1.2344,9.8298,-0.103,0.133,-0.086,-0.1807,-0.0985,-0.0166,-0.0319,947,2019-08-07 17:02:35:138
-1.177,9.6675,0.0714,0.133,-0.086,-0.1807,-0.0942,0.0047,-0.0287,952,2019-08-07 17:02:35:143
-1.177,9.6675,0.0714,0.1355,0.0141,-0.5073,-0.0942,0.0047,-0.0287,957,2019-08-07 17:02:35:148
-1.3014,9.763,0.3825,0.1355,0.0141,-0.5073,-0.0729,0.0111,-0.0255,962,2019-08-07 17:02:35:153
-1.3014,9.763,0.3825,0.1355,0.0141,-0.5073,-0.0729,0.0111,-0.0255,967,2019-08-07 17:02:35:158
-1.3014,9.763,0.3825,0.1355,0.0141,-0.5073,-0.0218,-0.0059,-0.017,971,2019-08-07 17:02:35:162
-1.1866,10.0303,1.2451,0.025,-0.3106,-1.6766,-0.0218,-0.0059,-0.017,977,2019-08-07 17:02:35:168
-1.1866,10.0303,1.2451,0.025,-0.3106,-1.6766,0.0815,-0.0592,-0.0021,982,2019-08-07 17:02:35:173
-0.7703,9.763,1.5704,0.025,-0.3106,-1.6766,0.0815,-0.0592,-0.0021,987,2019-08-07 17:02:35:178
-0.7703,9.763,1.5704,0.025,-0.3106,-1.6766,0.0815,-0.0592,-0.0021,992,2019-08-07 17:02:35:183
-0.7703,9.763,1.5704,-0.8724,0.2623,-1.68,0.2051,-0.0784,-0.0181,998,2019-08-07 17:02:35:189
-0.0431,9.5911,1.5374,-0.8724,0.2623,-1.68,0.2051,-0.0784,-0.0181,1002,2019-08-07 17:02:35:193
-0.0431,9.5911,1.5374,-0.8724,0.2623,-1.68,0.3159,0.0367,-0.0511,1007,2019-08-07 17:02:35:198
0.7846,10.164,1.9098,-0.8724,0.2623,-1.68,0.3159,0.0367,-0.0511,1012,2019-08-07 17:02:35:203
0.7846,10.164,1.9098,-2.1233,-0.2543,-2.3948,0.4427,0.1901,-0.1054,1016,2019-08-07 17:02:35:207
0.7846,10.164,1.9098,-2.1233,-0.2543,-2.3948,0.4427,0.1901,-0.1054,1022,2019-08-07 17:02:35:213
0.7846,10.164,1.9098,-2.1233,-0.2543,-2.3948,0.4427,0.1901,-0.1054,1026,2019-08-07 17:02:35:217
1.2295,10.0398,2.8808,-2.1233,-0.2543,-2.3948,0.5758,0.4117,-0.1693,1033,2019-08-07 17:02:35:224
1.2295,10.0398,2.8808,-2.2214,-0.765,-4.0966,0.5758,0.4117,-0.1693,1037,2019-08-07 17:02:35:228
1.2295,10.0398,2.8808,-2.2214,-0.765,-4.0966,0.7835,0.4905,-0.2343,1041,2019-08-07 17:02:35:232
0.8563,10.565,3.8142,-2.2214,-0.765,-4.0966,0.7835,0.4905,-0.2343,1047,2019-08-07 17:02:35:238
0.8563,10.565,3.8142,-2.2214,-0.765,-4.0966,0.9987,0.4617,-0.2556,1052,2019-08-07 17:02:35:243
0.4639,11.3097,4.1253,-1.6163,-1.5833,-4.6778,0.9987,0.4617,-0.2556,1057,2019-08-07 17:02:35:248
0.4639,11.3097,4.1253,-1.6163,-1.5833,-4.6778,1.1841,0.5576,-0.295,1062,2019-08-07 17:02:35:253
0.4639,11.3097,4.1253,-1.6163,-1.5833,-4.6778,1.1841,0.5576,-0.295,1067,2019-08-07 17:02:35:258
0.0764,13.3672,4.6061,-1.6163,-1.5833,-4.6778,1.3705,0.6556,-0.2982,1071,2019-08-07 17:02:35:262
0.0764,13.3672,4.6061,-1.6163,-1.5833,-4.6778,1.3705,0.6556,-0.2982,1077,2019-08-07 17:02:35:268
-0.1245,15.186,5.5394,-1.1402,-4.9752,-6.295,1.6336,0.7121,-0.2865,1082,2019-08-07 17:02:35:273
-0.1245,15.186,5.5394,-1.1402,-4.9752,-6.295,1.6336,0.7121,-0.2865,1087,2019-08-07 17:02:35:278
-0.1245,15.186,5.5394,-1.1402,-4.9752,-6.295,1.6336,0.7121,-0.2865,1092,2019-08-07 17:02:35:283
-1.5215,18.7043,4.2572,-1.1402,-4.9752,-6.295,1.8893,1.0348,-0.3494,1097,2019-08-07 17:02:35:288
-1.5215,18.7043,4.2572,1.7522,-11.1245,-5.6732,1.8893,1.0348,-0.3494,1102,2019-08-07 17:02:35:293
-4.5739,23.1583,6.3737,1.7522,-11.1245,-5.6732,2.064,1.3256,-0.2577,1107,2019-08-07 17:02:35:298
-4.5739,23.1583,6.3737,1.7522,-11.1245,-5.6732,2.064,1.3256,-0.2577,1112,2019-08-07 17:02:35:303
-4.5739,23.1583,6.3737,1.7522,-11.1245,-5.6732,2.3154,1.3629,-0.147,1116,2019-08-07 17:02:35:307
-7.3726,27.7794,11.5589,6.1256,-18.1742,-13.1151,2.3154,1.3629,-0.147,1122,2019-08-07 17:02:35:313
-7.3726,27.7794,11.5589,6.1256,-18.1742,-13.1151,2.8022,0.499,0.1108,1127,2019-08-07 17:02:35:318
-7.4157,28.3952,12.9259,6.1256,-18.1742,-13.1151,2.8022,0.499,0.1108,1133,2019-08-07 17:02:35:324
-7.4157,28.3952,12.9259,6.1256,-18.1742,-13.1151,2.8022,0.499,0.1108,1136,2019-08-07 17:02:35:327
-7.4157,28.3952,12.9259,4.991,-18.6777,-12.9763,2.9002,-0.6099,0.2355,1142,2019-08-07 17:02:35:333
-5.368,28.9585,9.8808,4.991,-18.6777,-12.9763,2.9002,-0.6099,0.2355,1147,2019-08-07 17:02:35:338
-5.368,28.9585,9.8808,4.991,-18.6777,-12.9763,2.7053,-1.1841,0.228,1152,2019-08-07 17:02:35:343
-5.368,28.9585,9.8808,4.991,-18.6777,-12.9763,2.7053,-1.1841,0.228,1157,2019-08-07 17:02:35:348
-4.9996,28.548,19.2,3.7614,-19.1492,-21.7233,2.9705,-2.5136,0.3537,1162,2019-08-07 17:02:35:353
-4.9996,28.548,19.2,3.7614,-19.1492,-21.7233,2.9705,-2.5136,0.3537,1167,2019-08-07 17:02:35:358
-3.4543,19.4013,-9.7286,3.7614,-19.1492,-21.7233,2.5412,-4.4545,0.375,1172,2019-08-07 17:02:35:363
-3.4543,19.4013,-9.7286,3.7614,-19.1492,-21.7233,2.5412,-4.4545,0.375,1177,2019-08-07 17:02:35:368
-3.4543,19.4013,-9.7286,0.3153,-11.1599,10.9838,2.2366,-3.4371,0.195,1182,2019-08-07 17:02:35:373
0.1339,22.4566,-14.0229,0.3153,-11.1599,10.9838,2.2366,-3.4371,0.195,1187,2019-08-07 17:02:35:378
0.1339,22.4566,-14.0229,0.3153,-11.1599,10.9838,2.2366,-3.4371,0.195,1192,2019-08-07 17:02:35:383
-0.268,27.6409,-15.0552,0.3153,-11.1599,10.9838,2.4283,-2.0576,0.3974,1197,2019-08-07 17:02:35:388
-0.268,27.6409,-15.0552,-0.2348,-18.4289,13.2888,2.4283,-2.0576,0.3974,1202,2019-08-07 17:02:35:393
-0.268,27.6409,-15.0552,-0.2348,-18.4289,13.2888,1.7348,-1.3205,0.5849,1207,2019-08-07 17:02:35:398
-3.4639,24.4759,-19.4391,-0.2348,-18.4289,13.2888,1.7348,-1.3205,0.5849,1212,2019-08-07 17:02:35:403
-3.4639,24.4759,-19.4391,-0.2348,-18.4289,13.2888,1.1159,-0.4736,0.7191,1217,2019-08-07 17:02:35:408
-2.7367,21.9123,-20.0094,0.7113,-13.9171,16.462,1.1159,-0.4736,0.7191,1222,2019-08-07 17:02:35:413
-2.7367,21.9123,-20.0094,0.7113,-13.9171,16.462,0.6759,1.1307,0.8949,1227,2019-08-07 17:02:35:418
-2.7367,21.9123,-20.0094,0.7113,-13.9171,16.462,0.6759,1.1307,0.8949,1232,2019-08-07 17:02:35:423
-2.6984,18.48,-0.0889,0.7113,-13.9171,16.462,0.6759,1.1307,0.8949,1237,2019-08-07 17:02:35:428
-2.6984,18.48,-0.0889,2.8507,-8.9956,-2.8194,-0.8751,-0.5716,0.7777,1242,2019-08-07 17:02:35:433
-2.6984,18.48,-0.0889,2.8507,-8.9956,-2.8194,-0.8751,-0.5716,0.7777,1246,2019-08-07 17:02:35:437
-3.4495,13.2049,-9.9879,2.8507,-8.9956,-2.8194,-0.3382,0.2284,0.6243,1252,2019-08-07 17:02:35:443
-3.4495,13.2049,-9.9879,2.8507,-8.9956,-2.8194,-0.3382,0.2284,0.6243,1257,2019-08-07 17:02:35:448
-3.5021,11.281,-11.8121,2.1736,-2.1501,8.2943,0.253,1.315,0.4475,1262,2019-08-07 17:02:35:453
-3.5021,11.281,-11.8121,2.1736,-2.1501,8.2943,0.253,1.315,0.4475,1267,2019-08-07 17:02:35:458
-2.3348,10.3788,-11.8215,2.1736,-2.1501,8.2943,0.9817,1.9211,0.2632,1272,2019-08-07 17:02:35:463
-2.3348,10.3788,-11.8215,2.1736,-2.1501,8.2943,0.9817,1.9211,0.2632,1277,2019-08-07 17:02:35:468
-2.3348,10.3788,-11.8215,2.8285,-0.7164,3.2547,0.7473,0.7461,0.277,1282,2019-08-07 17:02:35:473
-4.9613,9.2378,-12.3259,2.8285,-0.7164,3.2547,0.7473,0.7461,0.277,1287,2019-08-07 17:02:35:478
-4.9613,9.2378,-12.3259,2.8285,-0.7164,3.2547,0.7473,0.7461,0.277,1292,2019-08-07 17:02:35:483
-4.9613,9.2378,-12.3259,4.2713,1.2377,13.0867,-0.7078,-1.3961,0.1289,1297,2019-08-07 17:02:35:488
-5.1479,6.6361,-17.3037,4.2713,1.2377,13.0867,-0.7078,-1.3961,0.1289,1302,2019-08-07 17:02:35:493
-5.1479,6.6361,-17.3037,4.2713,1.2377,13.0867,-1.3949,-0.0912,-0.0159,1307,2019-08-07 17:02:35:498
-1.598,4.6788,-7.0983,0.736,3.9211,-0.6279,-1.3949,-0.0912,-0.0159,1312,2019-08-07 17:02:35:503
-1.598,4.6788,-7.0983,0.736,3.9211,-0.6279,-1.5739,0.5374,-0.0298,1317,2019-08-07 17:02:35:508
-1.598,4.6788,-7.0983,0.736,3.9211,-0.6279,-1.5739,0.5374,-0.0298,1322,2019-08-07 17:02:35:513
0.8037,2.0055,-8.767,0.736,3.9211,-0.6279,-1.5739,0.5374,-0.0298,1327,2019-08-07 17:02:35:518
0.8037,2.0055,-8.767,0.736,3.9211,-0.6279,-1.0977,1.0998,-0.3419,1332,2019-08-07 17:02:35:523
-0.8516,1.5806,-3.4687,-1.131,7.6833,4.3355,-1.0977,1.0998,-0.3419,1337,2019-08-07 17:02:35:528
-0.8516,1.5806,-3.4687,-1.131,7.6833,4.3355,-1.0977,1.0998,-0.3419,1342,2019-08-07 17:02:35:533
-0.8516,1.5806,-3.4687,-1.131,7.6833,4.3355,-0.9923,0.466,-0.4655,1347,2019-08-07 17:02:35:538
-1.9855,0.349,-10.0161,0.8753,9.0169,7.0149,-0.9923,0.466,-0.4655,1352,2019-08-07 17:02:35:543
-1.9855,0.349,-10.0161,0.8753,9.0169,7.0149,-1.7401,0.7951,-0.4623,1357,2019-08-07 17:02:35:548
-0.622,-0.8827,-9.4646,0.8753,9.0169,7.0149,-1.7401,0.7951,-0.4623,1362,2019-08-07 17:02:35:553
-0.622,-0.8827,-9.4646,0.8753,9.0169,7.0149,-2.1907,0.9581,-0.4697,1367,2019-08-07 17:02:35:558
-0.622,-0.8827,-9.4646,-1.3039,11.2047,2.1295,-2.1907,0.9581,-0.4697,1372,2019-08-07 17:02:35:563
-0.622,-0.8827,-9.4646,-1.3039,11.2047,2.1295,-2.1907,0.9581,-0.4697,1376,2019-08-07 17:02:35:567
0.2583,-2.2337,-4.1569,-1.3039,11.2047,2.1295,-2.5635,0.6801,-0.5166,1382,2019-08-07 17:02:35:573
0.2583,-2.2337,-4.1569,-1.3039,11.2047,2.1295,-2.5635,0.6801,-0.5166,1387,2019-08-07 17:02:35:578
0.2918,-4.3294,-2.2101,-1.3039,11.2047,2.1295,-1.9414,0.9635,-0.6359,1392,2019-08-07 17:02:35:583
0.2918,-4.3294,-2.2101,-0.7728,13.6248,-0.1725,-1.9414,0.9635,-0.6359,1397,2019-08-07 17:02:35:588
-0.7942,-4.568,-5.373,-0.7728,13.6248,-0.1725,-1.8722,0.6705,-0.5912,1402,2019-08-07 17:02:35:593
-0.7942,-4.568,-5.373,-0.7728,13.6248,-0.1725,-1.8722,0.6705,-0.5912,1407,2019-08-07 17:02:35:598
-0.7942,-4.568,-5.373,-0.7728,13.6248,-0.1725,-2.1438,0.6961,-0.5582,1412,2019-08-07 17:02:35:603
0.2727,-5.919,-3.8646,-1.3941,15.3604,1.4481,-2.1438,0.6961,-0.5582,1417,2019-08-07 17:02:35:608
0.2727,-5.919,-3.8646,-1.3941,15.3604,1.4481,-2.1118,0.6524,-0.605,1422,2019-08-07 17:02:35:613
0.799,-7.9193,-1.866,-1.3941,15.3604,1.4481,-2.1118,0.6524,-0.605,1427,2019-08-07 17:02:35:618
0.799,-7.9193,-1.866,-1.4833,18.1224,-0.291,-1.7912,0.5959,-0.6327,1432,2019-08-07 17:02:35:623
0.799,-7.9193,-1.866,-1.4833,18.1224,-0.291,-1.7912,0.5959,-0.6327,1438,2019-08-07 17:02:35:629
-0.0765,-8.9743,-1.602,-1.4833,18.1224,-0.291,-1.5867,0.4074,-0.5411,1443,2019-08-07 17:02:35:634
-0.0765,-8.9743,-1.602,-1.4833,18.1224,-0.291,-1.5867,0.4074,-0.5411,1447,2019-08-07 17:02:35:638
-0.0765,-8.9743,-1.602,-1.4833,18.1224,-0.291,-1.4876,0.2231,-0.4335,1451,2019-08-07 17:02:35:642
0.488,-9.7667,-0.3434,-1.794,19.3203,-1.4619,-1.4876,0.2231,-0.4335,1457,2019-08-07 17:02:35:648
0.488,-9.7667,-0.3434,-1.794,19.3203,-1.4619,-1.3385,0.1006,-0.3856,1462,2019-08-07 17:02:35:653
0.5072,-10.0723,0.8209,-1.794,19.3203,-1.4619,-1.3385,0.1006,-0.3856,1467,2019-08-07 17:02:35:658
0.5072,-10.0723,0.8209,-1.5254,19.6932,-2.3356,-0.9283,-0.0155,-0.3057,1472,2019-08-07 17:02:35:663
0.5072,-10.0723,0.8209,-1.5254,19.6932,-2.3356,-0.9283,-0.0155,-0.3057,1477,2019-08-07 17:02:35:668
0.1914,-10.2107,0.7266,-1.5254,19.6932,-2.3356,-0.6183,-0.0166,-0.2162,1483,2019-08-07 17:02:35:674
0.1914,-10.2107,0.7266,-1.5254,19.6932,-2.3356,-0.6183,-0.0166,-0.2162,1487,2019-08-07 17:02:35:678
0.1914,-10.2107,0.7266,-1.5254,19.6932,-2.3356,-0.6183,-0.0166,-0.2162,1492,2019-08-07 17:02:35:683
0.4976,-10.2203,1.1037,-1.9291,19.8129,-2.5762,-0.2412,0.0271,-0.1299,1496,2019-08-07 17:02:35:687
0.4976,-10.2203,1.1037,-1.9291,19.8129,-2.5762,-0.2412,0.0271,-0.1299,1502,2019-08-07 17:02:35:693
0.1675,-9.9004,1.3489,-1.9291,19.8129,-2.5762,0.0932,0.059,-0.0149,1507,2019-08-07 17:02:35:698
0.1675,-9.9004,1.3489,-1.9291,19.8129,-2.5762,0.0932,0.059,-0.0149,1512,2019-08-07 17:02:35:703
0.1675,-9.9004,1.3489,-1.5556,19.0834,-2.8848,0.3851,0.0367,0.1044,1517,2019-08-07 17:02:35:708
0.0766,-9.1127,1.4526,-1.5556,19.0834,-2.8848,0.3851,0.0367,0.1044,1522,2019-08-07 17:02:35:713
0.0766,-9.1127,1.4526,-1.5556,19.0834,-2.8848,0.6578,-0.0336,0.1897,1527,2019-08-07 17:02:35:718
-0.2774,-8.1627,1.6647,-1.5556,19.0834,-2.8848,0.6578,-0.0336,0.1897,1532,2019-08-07 17:02:35:723
-0.2774,-8.1627,1.6647,-0.9754,17.2293,-3.1596,0.9593,-0.1497,0.276,1537,2019-08-07 17:02:35:728
-0.2774,-8.1627,1.6647,-0.9754,17.2293,-3.1596,0.9593,-0.1497,0.276,1542,2019-08-07 17:02:35:733
-0.5166,-6.9979,1.1839,-0.8996,16.4461,-2.6282,1.167,-0.2328,0.3399,1547,2019-08-07 17:02:35:738
-0.5166,-6.9979,1.1839,-0.8996,16.4461,-2.6282,1.167,-0.2328,0.3399,1552,2019-08-07 17:02:35:743
-0.7224,-5.7806,0.6041,-0.8996,16.4461,-2.6282,1.4525,-0.3511,0.4134,1557,2019-08-07 17:02:35:748
-0.7224,-5.7806,0.6041,-0.8996,16.4461,-2.6282,1.4525,-0.3511,0.4134,1562,2019-08-07 17:02:35:753
-0.7224,-5.7806,0.6041,-0.6671,14.6482,-2.3207,1.6773,-0.4715,0.4698,1567,2019-08-07 17:02:35:758
-0.6841,-4.5967,0.161,-0.6671,14.6482,-2.3207,1.6773,-0.4715,0.4698,1572,2019-08-07 17:02:35:763
-0.6841,-4.5967,0.161,-0.6671,14.6482,-2.3207,1.8776,-0.5375,0.5252,1577,2019-08-07 17:02:35:768
-0.6984,-3.6754,-0.4801,-0.6671,14.6482,-2.3207,1.8776,-0.5375,0.5252,1582,2019-08-07 17:02:35:773
-0.6984,-3.6754,-0.4801,-0.7134,12.8979,-1.4476,1.8776,-0.5375,0.5252,1587,2019-08-07 17:02:35:778
-0.6984,-3.6754,-0.4801,-0.7134,12.8979,-1.4476,2.0107,-0.4885,0.5859,1592,2019-08-07 17:02:35:783
-0.5262,-3.0404,-1.0976,-0.7134,12.8979,-1.4476,2.0107,-0.4885,0.5859,1598,2019-08-07 17:02:35:789
-0.5262,-3.0404,-1.0976,-0.7134,12.8979,-1.4476,2.0757,-0.4512,0.6264,1602,2019-08-07 17:02:35:793
-0.5262,-3.0404,-1.0976,-0.5144,11.8661,-1.3198,2.0757,-0.4512,0.6264,1607,2019-08-07 17:02:35:798
-0.7941,-2.4007,-1.5973,-0.5144,11.8661,-1.3198,2.1663,-0.4789,0.6701,1611,2019-08-07 17:02:35:802
-0.7941,-2.4007,-1.5973,-0.3348,11.3896,-0.912,2.1663,-0.4789,0.6701,1617,2019-08-07 17:02:35:808
-0.7941,-2.4007,-1.5973,-0.3348,11.3896,-0.912,2.2216,-0.6067,0.7042,1622,2019-08-07 17:02:35:813
-0.8993,-1.8565,-2.7946,-0.3348,11.3896,-0.912,2.2216,-0.6067,0.7042,1627,2019-08-07 17:02:35:818
-0.8993,-1.8565,-2.7946,-0.3348,11.3896,-0.912,2.2216,-0.7175,0.7106,1632,2019-08-07 17:02:35:823
-0.8419,-1.3601,-3.742,-0.2895,10.4703,0.2837,2.2216,-0.7175,0.7106,1637,2019-08-07 17:02:35:828
-0.8419,-1.3601,-3.742,-0.2895,10.4703,0.2837,2.2216,-0.7175,0.7106,1642,2019-08-07 17:02:35:833
-0.8419,-1.3601,-3.742,-0.2895,10.4703,0.2837,2.2057,-0.8358,0.6903,1646,2019-08-07 17:02:35:837
-0.8132,-0.6631,-4.9441,-0.2895,10.4703,0.2837,2.2057,-0.8358,0.6903,1653,2019-08-07 17:02:35:844
-0.8132,-0.6631,-4.9441,-0.4328,8.9992,1.7615,2.081,-0.937,0.6531,1657,2019-08-07 17:02:35:848
-0.4161,0.2249,-6.2215,-0.4328,8.9992,1.7615,2.081,-0.937,0.6531,1663,2019-08-07 17:02:35:854
-0.4161,0.2249,-6.2215,-0.8154,8.3647,2.3811,1.9564,-0.9551,0.6041,1667,2019-08-07 17:02:35:858
-0.4161,0.2249,-6.2215,-0.8154,8.3647,2.3811,1.9564,-0.9551,0.6041,1672,2019-08-07 17:02:35:863
-0.0716,1.1557,-7.0323,-0.8154,8.3647,2.3811,1.8818,-0.9327,0.5636,1676,2019-08-07 17:02:35:867
-0.0716,1.1557,-7.0323,-0.8154,8.3647,2.3811,1.8818,-0.9327,0.5636,1682,2019-08-07 17:02:35:873
-0.0716,1.1557,-7.0323,-0.7272,6.626,3.6487,1.8818,-0.9327,0.5636,1687,2019-08-07 17:02:35:878
-0.3348,2.2251,-8.4747,-0.7272,6.626,3.6487,1.6411,-0.7069,0.4986,1692,2019-08-07 17:02:35:883
-0.3348,2.2251,-8.4747,-0.7272,6.626,3.6487,1.6411,-0.7069,0.4986,1697,2019-08-07 17:02:35:888
-1.2581,3.6238,-8.9508,-0.7272,6.626,3.6487,1.4046,-0.5513,0.3931,1702,2019-08-07 17:02:35:893
-1.2581,3.6238,-8.9508,0.8124,4.3028,4.1709,1.4046,-0.5513,0.3931,1707,2019-08-07 17:02:35:898
-1.2581,3.6238,-8.9508,0.8124,4.3028,4.1709,1.1244,-0.4406,0.309,1711,2019-08-07 17:02:35:902
-2.5786,5.2421,-8.5878,0.8124,4.3028,4.1709,1.1244,-0.4406,0.309,1717,2019-08-07 17:02:35:908
-2.5786,5.2421,-8.5878,0.8124,4.3028,4.1709,0.8794,-0.4693,0.2845,1722,2019-08-07 17:02:35:913
-2.5786,5.2421,-8.5878,2.0385,1.5785,3.3907,0.8794,-0.4693,0.2845,1727,2019-08-07 17:02:35:918
-3.0618,6.8223,-8.3521,2.0385,1.5785,3.3907,0.7111,-0.5492,0.2269,1733,2019-08-07 17:02:35:924
-3.0618,6.8223,-8.3521,2.0385,1.5785,3.3907,0.7111,-0.5492,0.2269,1737,2019-08-07 17:02:35:928
-3.0618,6.8223,-8.3521,2.0385,1.5785,3.3907,0.7111,-0.5492,0.2269,1742,2019-08-07 17:02:35:933
-2.8991,9.1089,-9.7993,1.7837,-1.6876,5.259,0.5289,-0.5812,0.0512,1747,2019-08-07 17:02:35:938
-2.8991,9.1089,-9.7993,1.7837,-1.6876,5.259,0.5289,-0.5812,0.0512,1752,2019-08-07 17:02:35:943
-2.7317,11.3717,-10.9023,1.7837,-1.6876,5.259,0.2253,-0.5268,-0.1097,1756,2019-08-07 17:02:35:947
-2.7317,11.3717,-10.9023,1.7837,-1.6876,5.259,0.2253,-0.5268,-0.1097,1762,2019-08-07 17:02:35:953
-1.7796,12.7943,-11.8828,0.6339,-4.4958,6.778,-0.1038,-0.4555,-0.2556,1768,2019-08-07 17:02:35:959
-1.7796,12.7943,-11.8828,0.6339,-4.4958,6.778,-0.1038,-0.4555,-0.2556,1772,2019-08-07 17:02:35:963
-1.7796,12.7943,-11.8828,0.6339,-4.4958,6.778,-0.4586,-0.1849,-0.4751,1777,2019-08-07 17:02:35:968
-1.7365,14.3363,-11.7366,0.6339,-4.4958,6.778,-0.4586,-0.1849,-0.4751,1782,2019-08-07 17:02:35:973
-1.7365,14.3363,-11.7366,0.8606,-6.933,4.7845,-0.4586,-0.1849,-0.4751,1787,2019-08-07 17:02:35:978
-1.7365,14.3363,-11.7366,0.8606,-6.933,4.7845,-0.9891,0.2977,-0.7126,1792,2019-08-07 17:02:35:983
-2.148,15.63,-9.6484,0.8606,-6.933,4.7845,-0.9891,0.2977,-0.7126,1797,2019-08-07 17:02:35:988
-2.148,15.63,-9.6484,0.8606,-6.933,4.7845,-1.3395,0.7888,-0.8863,1803,2019-08-07 17:02:35:994
-2.2867,17.0573,-6.9427,0.8606,-6.933,4.7845,-1.3395,0.7888,-0.8863,1807,2019-08-07 17:02:35:998
-2.2867,17.0573,-6.9427,1.1495,-9.1833,1.4445,-1.5835,0.7387,-1.046,1812,2019-08-07 17:02:36:003
-3.1957,19.5015,-5.9245,1.1495,-9.1833,1.4445,-1.5835,0.7387,-1.046,1817,2019-08-07 17:02:36:008
-3.1957,19.5015,-5.9245,1.1495,-9.1833,1.4445,-1.8583,0.1219,-1.143,1823,2019-08-07 17:02:36:014
-3.1957,19.5015,-5.9245,1.1495,-9.1833,1.4445,-1.8583,0.1219,-1.143,1826,2019-08-07 17:02:36:017
-3.9851,20.9623,-5.4531,2.5023,-12.3752,0.9477,-1.9787,0.4436,-1.0982,1832,2019-08-07 17:02:36:023
-3.9851,20.9623,-5.4531,2.5023,-12.3752,0.9477,-1.9787,0.4436,-1.0982,1837,2019-08-07 17:02:36:028
-3.9851,20.9623,-5.4531,2.5023,-12.3752,0.9477,-1.9787,0.4436,-1.0982,1842,2019-08-07 17:02:36:033
-2.3202,20.8287,-5.2552,2.5023,-12.3752,0.9477,-2.0873,0.9006,-0.9587,1847,2019-08-07 17:02:36:038
-2.3202,20.8287,-5.2552,0.004,-11.5611,0.407,-2.0873,0.9006,-0.9587,1852,2019-08-07 17:02:36:043
-2.3202,20.8287,-5.2552,0.004,-11.5611,0.407,-2.2599,1.3033,-0.85,1857,2019-08-07 17:02:36:048
-0.8992,19.6018,-3.2848,0.004,-11.5611,0.407,-2.2599,1.3033,-0.85,1861,2019-08-07 17:02:36:052
-0.8992,19.6018,-3.2848,0.004,-11.5611,0.407,-2.3206,1.3832,-0.8096,1867,2019-08-07 17:02:36:058
-0.8992,19.6018,-3.2848,-0.9208,-10.5842,-0.4835,-2.3206,1.3832,-0.8096,1872,2019-08-07 17:02:36:063
-0.483,19.1196,-4.0154,-0.9208,-10.5842,-0.4835,-2.3515,1.4087,-0.6998,1877,2019-08-07 17:02:36:068
-0.483,19.1196,-4.0154,-0.741,-9.0452,3.2547,-2.3515,1.4087,-0.6998,1882,2019-08-07 17:02:36:073
-0.483,19.1196,-4.0154,-0.741,-9.0452,3.2547,-2.3515,1.4087,-0.6998,1887,2019-08-07 17:02:36:078
2.6794,19.6304,-9.2996,-0.741,-9.0452,3.2547,-1.6751,1.6527,-0.4495,1892,2019-08-07 17:02:36:083
2.6794,19.6304,-9.2996,-0.741,-9.0452,3.2547,-1.6751,1.6527,-0.4495,1897,2019-08-07 17:02:36:088
0.804,25.2922,-14.0087,-3.0895,-15.3573,9.8501,-1.0317,1.6282,-0.0149,1902,2019-08-07 17:02:36:093
0.804,25.2922,-14.0087,-3.0895,-15.3573,9.8501,-1.0317,1.6282,-0.0149,1907,2019-08-07 17:02:36:098
0.804,25.2922,-14.0087,-3.0895,-15.3573,9.8501,-1.6772,1.3384,0.1364,1912,2019-08-07 17:02:36:103
-1.9805,23.4686,-14.3622,-3.0895,-15.3573,9.8501,-1.6772,1.3384,0.1364,1917,2019-08-07 17:02:36:108
-1.9805,23.4686,-14.3622,3.3472,-14.268,1.9001,-2.9939,4.4192,0.065,1923,2019-08-07 17:02:36:114
-2.6359,25.0153,10.0694,3.3472,-14.268,1.9001,-2.9939,4.4192,0.065,1927,2019-08-07 17:02:36:118
-2.6359,25.0153,10.0694,3.3472,-14.268,1.9001,-2.979,1.6133,0.1162,1932,2019-08-07 17:02:36:123
-2.6359,25.0153,10.0694,3.3472,-14.268,1.9001,-2.979,1.6133,0.1162,1937,2019-08-07 17:02:36:128
-9.1759,19.8309,19.1718,7.8945,-10.4502,-21.7402,-2.979,1.6133,0.1162,1942,2019-08-07 17:02:36:133
-9.1759,19.8309,19.1718,7.8945,-10.4502,-21.7402,-1.5057,0.4138,0.4496,1947,2019-08-07 17:02:36:138
-10.0371,15.4915,7.6607,7.8945,-10.4502,-21.7402,-1.5057,0.4138,0.4496,1952,2019-08-07 17:02:36:143
-10.0371,15.4915,7.6607,7.8945,-10.4502,-21.7402,-2.9491,0.417,0.5987,1957,2019-08-07 17:02:36:148
-10.0371,15.4915,7.6607,7.1927,-8.7077,-17.1308,-2.9491,0.417,0.5987,1963,2019-08-07 17:02:36:154
-8.2287,20.0935,11.2055,7.1927,-8.7077,-17.1308,-1.6783,-1.0286,0.5689,1968,2019-08-07 17:02:36:159
-8.2287,20.0935,11.2055,7.1927,-8.7077,-17.1308,-1.6783,-1.0286,0.5689,1972,2019-08-07 17:02:36:163
-5.2433,16.6086,3.0082,7.1927,-8.7077,-17.1308,-0.4554,-3.0803,0.9599,1976,2019-08-07 17:02:36:167
-5.2433,16.6086,3.0082,3.0288,-4.0483,-6.5062,-0.4554,-3.0803,0.9599,1982,2019-08-07 17:02:36:173
-5.2433,16.6086,3.0082,3.0288,-4.0483,-6.5062,0.1028,-2.3495,0.8587,1987,2019-08-07 17:02:36:178
-2.1144,9.5386,-4.8073,3.0288,-4.0483,-6.5062,0.1028,-2.3495,0.8587,1992,2019-08-07 17:02:36:183
-2.1144,9.5386,-4.8073,3.0288,-4.0483,-6.5062,-0.5406,-0.9913,0.6808,1998,2019-08-07 17:02:36:189
1.5503,8.6315,-3.3178,-2.2966,0.8156,2.9945,-0.5406,-0.9913,0.6808,2002,2019-08-07 17:02:36:193
1.5503,8.6315,-3.3178,-2.2966,0.8156,2.9945,-0.5406,-0.9913,0.6808,2007,2019-08-07 17:02:36:198
1.5503,8.6315,-3.3178,-2.2966,0.8156,2.9945,-1.0317,0.6343,0.4038,2011,2019-08-07 17:02:36:202
0.7849,10.1448,-1.0928,-2.2966,0.8156,2.9945,-1.0317,0.6343,0.4038,2017,2019-08-07 17:02:36:208
0.7849,10.1448,-1.0928,-1.1563,-0.9516,-1.3526,-0.8687,0.7632,0.2941,2022,2019-08-07 17:02:36:213
0.4308,10.1496,1.4055,-1.1563,-0.9516,-1.3526,-0.8687,0.7632,0.2941,2027,2019-08-07 17:02:36:218
0.4308,10.1496,1.4055,-1.1563,-0.9516,-1.3526,-0.6812,0.4628,0.2408,2033,2019-08-07 17:02:36:224
0.4308,10.1496,1.4055,-1.1563,-0.9516,-1.3526,-0.6812,0.4628,0.2408,2037,2019-08-07 17:02:36:228
1.9331,10.2833,1.528,-1.1563,-0.9516,-1.3526,-0.6812,0.4628,0.2408,2042,2019-08-07 17:02:36:233
1.9331,10.2833,1.528,-3.2995,-0.7825,-2.866,-0.6045,0.0143,0.31,2047,2019-08-07 17:02:36:238
3.1435,10.9516,2.4048,-3.2995,-0.7825,-2.866,-0.6045,0.0143,0.31,2052,2019-08-07 17:02:36:243
3.1435,10.9516,2.4048,-3.2995,-0.7825,-2.866,-0.5608,-0.5066,0.4954,2057,2019-08-07 17:02:36:248
3.1435,10.9516,2.4048,-2.431,-2.5122,-1.7272,-0.5608,-0.5066,0.4954,2062,2019-08-07 17:02:36:253
1.0765,12.6368,0.0196,-2.431,-2.5122,-1.7272,-0.5619,-0.4853,0.5668,2067,2019-08-07 17:02:36:258
1.0765,12.6368,0.0196,-2.431,-2.5122,-1.7272,-0.5619,-0.4853,0.5668,2072,2019-08-07 17:02:36:263
1.0765,12.6368,0.0196,-2.431,-2.5122,-1.7272,-0.5619,-0.4853,0.5668,2077,2019-08-07 17:02:36:268
-3.172,12.928,2.6734,2.7817,-3.016,-4.263,-0.5203,-0.0848,0.3878,2082,2019-08-07 17:02:36:273
-3.172,12.928,2.6734,2.7817,-3.016,-4.263,-0.5203,-0.0848,0.3878,2087,2019-08-07 17:02:36:278
-3.172,12.928,2.6734,2.7817,-3.016,-4.263,-0.2572,-0.2691,0.3196,2092,2019-08-07 17:02:36:283
-2.7701,11.5436,3.2768,2.1259,-1.8106,-4.3211,-0.2572,-0.2691,0.3196,2097,2019-08-07 17:02:36:288
-2.7701,11.5436,3.2768,2.1259,-1.8106,-4.3211,-0.0644,-0.4523,0.2621,2102,2019-08-07 17:02:36:293
-2.7701,11.5436,3.2768,2.1259,-1.8106,-4.3211,-0.0644,-0.4523,0.2621,2107,2019-08-07 17:02:36:298
0.1818,10.5602,-1.5549,2.1259,-1.8106,-4.3211,-0.0676,-0.2179,0.2238,2112,2019-08-07 17:02:36:303
0.1818,10.5602,-1.5549,-1.1784,-0.2771,1.4494,-0.0676,-0.2179,0.2238,2116,2019-08-07 17:02:36:307
-0.0622,9.2903,-2.2431,-1.1784,-0.2771,1.4494,-0.3137,0.5672,0.2174,2122,2019-08-07 17:02:36:313
-0.0622,9.2903,-2.2431,-1.1784,-0.2771,1.4494,-0.3137,0.5672,0.2174,2127,2019-08-07 17:02:36:318
-0.0622,9.2903,-2.2431,0.0119,0.7287,-2.6667,-0.3531,0.5448,0.261,2132,2019-08-07 17:02:36:323
-0.4832,9.0278,2.5084,0.0119,0.7287,-2.6667,-0.3531,0.5448,0.261,2137,2019-08-07 17:02:36:328
-0.4832,9.0278,2.5084,0.0119,0.7287,-2.6667,-0.3531,0.5448,0.261,2142,2019-08-07 17:02:36:333
-0.4832,9.0278,2.5084,0.0119,0.7287,-2.6667,-0.1859,-0.2051,0.2834,2147,2019-08-07 17:02:36:338
0.6363,9.9062,1.0849,-1.9146,-0.5797,-0.3169,-0.1859,-0.2051,0.2834,2152,2019-08-07 17:02:36:343
0.6363,9.9062,1.0849,-1.9146,-0.5797,-0.3169,-0.0729,-0.6984,0.2152,2157,2019-08-07 17:02:36:348
1.9903,10.3788,-1.9508,-1.9146,-0.5797,-0.3169,-0.0729,-0.6984,0.2152,2162,2019-08-07 17:02:36:353
1.9903,10.3788,-1.9508,-1.9146,-0.5797,-0.3169,-0.2104,-0.1679,0.0906,2167,2019-08-07 17:02:36:358
1.9903,10.3788,-1.9508,-2.3092,-0.337,1.964,-0.2104,-0.1679,0.0906,2173,2019-08-07 17:02:36:364
1.8659,10.0971,-2.8464,-2.3092,-0.337,1.964,-0.3648,0.3094,0.0214,2177,2019-08-07 17:02:36:368
1.8659,10.0971,-2.8464,-2.3092,-0.337,1.964,-0.3648,0.3094,0.0214,2182,2019-08-07 17:02:36:373
1.8659,10.0971,-2.8464,-2.3092,-0.337,1.964,-0.5235,0.6535,-0.0308,2187,2019-08-07 17:02:36:378
1.8659,10.0971,-2.8464,-2.3092,-0.337,1.964,-0.5235,0.6535,-0.0308,2192,2019-08-07 17:02:36:383
-1.6601,10.4265,0.7973,1.5592,-0.7345,-1.8472,-0.5044,0.4702,0.0054,2197,2019-08-07 17:02:36:388
-1.6601,10.4265,0.7973,1.5592,-0.7345,-1.8472,-0.5044,0.4702,0.0054,2202,2019-08-07 17:02:36:393
-2.5835,10.2499,0.8445,1.5592,-0.7345,-1.8472,-0.3637,-0.0603,0.0693,2207,2019-08-07 17:02:36:398
-2.5835,10.2499,0.8445,1.5592,-0.7345,-1.8472,-0.3637,-0.0603,0.0693,2212,2019-08-07 17:02:36:403
-2.5835,10.2499,0.8445,1.4555,-0.5557,-1.283,-0.3073,-0.3063,0.1055,2217,2019-08-07 17:02:36:408
-1.1243,10.3072,0.3401,1.4555,-0.5557,-1.283,-0.3073,-0.3063,0.1055,2222,2019-08-07 17:02:36:413
-1.1243,10.3072,0.3401,1.4555,-0.5557,-1.283,-0.2892,-0.3458,0.1257,2227,2019-08-07 17:02:36:418
-0.0048,9.8202,-0.1124,1.4555,-0.5557,-1.283,-0.2892,-0.3458,0.1257,2233,2019-08-07 17:02:36:424
-0.0048,9.8202,-0.1124,-0.5357,-0.0252,-0.5363,-0.2892,-0.3458,0.1257,2236,2019-08-07 17:02:36:427
-0.0048,9.8202,-0.1124,-0.5357,-0.0252,-0.5363,-0.3201,-0.2147,0.1236,2242,2019-08-07 17:02:36:433
0.421,9.7343,-0.1643,-0.828,0.0491,-0.4315,-0.3201,-0.2147,0.1236,2247,2019-08-07 17:02:36:438
0.421,9.7343,-0.1643,-0.828,0.0491,-0.4315,-0.3542,-0.1295,0.0959,2252,2019-08-07 17:02:36:443
0.421,9.7343,-0.1643,-0.828,0.0491,-0.4315,-0.3542,-0.1295,0.0959,2257,2019-08-07 17:02:36:448
0.2966,10.0064,0.7785,-0.828,0.0491,-0.4315,-0.3382,-0.154,0.0704,2261,2019-08-07 17:02:36:452
0.2966,10.0064,0.7785,-0.6057,-0.2129,-1.4799,-0.3382,-0.154,0.0704,2267,2019-08-07 17:02:36:458
0.2966,10.0064,0.7785,-0.6057,-0.2129,-1.4799,-0.2913,-0.2158,0.0437,2272,2019-08-07 17:02:36:463
0.0861,9.9062,0.6842,-0.4659,-0.1154,-1.1663,-0.2913,-0.2158,0.0437,2276,2019-08-07 17:02:36:467
0.0861,9.9062,0.6842,-0.4659,-0.1154,-1.1663,-0.2583,-0.2041,0.0256,2282,2019-08-07 17:02:36:473
0.0861,9.9062,0.6842,-0.4659,-0.1154,-1.1663,-0.2583,-0.2041,0.0256,2287,2019-08-07 17:02:36:478
-0.1722,9.7821,0.4061,-0.4659,-0.1154,-1.1663,-0.2615,-0.1306,0.016,2292,2019-08-07 17:02:36:483
-0.1722,9.7821,0.4061,0.1174,0.1501,-0.9313,-0.2615,-0.1306,0.016,2297,2019-08-07 17:02:36:488
-0.5262,9.7295,0.6748,0.1174,0.1501,-0.9313,-0.2508,-0.0624,0.0128,2302,2019-08-07 17:02:36:493
-0.5262,9.7295,0.6748,0.1174,0.1501,-0.9313,-0.2508,-0.0624,0.0128,2307,2019-08-07 17:02:36:498
-0.5262,9.7295,0.6748,0.1174,0.1501,-0.9313,-0.2178,-0.1029,0.0075,2312,2019-08-07 17:02:36:503
-0.2966,9.6388,0.868,-0.2312,0.2336,-1.2273,-0.2178,-0.1029,0.0075,2317,2019-08-07 17:02:36:508
-0.2966,9.6388,0.868,-0.2312,0.2336,-1.2273,-0.1582,-0.1785,-0.0362,2322,2019-08-07 17:02:36:513
0.4019,9.7868,0.5664,-0.2312,0.2336,-1.2273,-0.1582,-0.1785,-0.0362,2327,2019-08-07 17:02:36:518
0.4019,9.7868,0.5664,-0.2312,0.2336,-1.2273,-0.1486,-0.138,-0.066,2332,2019-08-07 17:02:36:523
0.9043,9.8441,0.0856,-1.2,-0.0563,-0.4616,-0.1486,-0.138,-0.066,2337,2019-08-07 17:02:36:528
0.9043,9.8441,0.0856,-1.2,-0.0563,-0.4616,-0.1486,-0.138,-0.066,2342,2019-08-07 17:02:36:533
0.9043,9.8441,0.0856,-1.2,-0.0563,-0.4616,-0.1677,0.0196,-0.1065,2347,2019-08-07 17:02:36:538
0.5263,9.8728,0.8869,-1.2,-0.0563,-0.4616,-0.1677,0.0196,-0.1065,2351,2019-08-07 17:02:36:542
0.5263,9.8728,0.8869,-0.6626,0.0113,-1.6947,-0.1518,0.1379,-0.1299,2357,2019-08-07 17:02:36:548
0.5263,9.8728,0.8869,-0.6626,0.0113,-1.6947,-0.1518,0.1379,-0.1299,2363,2019-08-07 17:02:36:554
-0.1865,9.7868,1.3866,-0.6626,0.0113,-1.6947,-0.1081,0.1155,-0.1363,2367,2019-08-07 17:02:36:558
-0.1865,9.7868,1.3866,-0.6626,0.0113,-1.6947,-0.1081,0.1155,-0.1363,2372,2019-08-07 17:02:36:563
-0.6985,9.8011,0.9105,0.283,-0.0032,-1.1614,-0.0708,0.0729,-0.1406,2377,2019-08-07 17:02:36:568
-0.6985,9.8011,0.9105,0.283,-0.0032,-1.1614,-0.0708,0.0729,-0.1406,2382,2019-08-07 17:02:36:573
-0.6985,9.8011,0.9105,0.283,-0.0032,-1.1614,-0.0708,0.0729,-0.1406,2387,2019-08-07 17:02:36:578
-0.9903,9.782,0.5711,0.283,-0.0032,-1.1614,-0.0484,0.009,-0.1161,2392,2019-08-07 17:02:36:583
-0.9903,9.782,0.5711,0.6849,-0.1615,-0.6774,-0.0484,0.009,-0.1161,2397,2019-08-07 17:02:36:588
-1.2247,9.9826,0.425,0.6849,-0.1615,-0.6774,-0.0495,-0.0347,-0.0894,2402,2019-08-07 17:02:36:593
-1.2247,9.9826,0.425,0.6849,-0.1615,-0.6774,-0.0495,-0.0347,-0.0894,2407,2019-08-07 17:02:36:598
-1.2247,9.9826,0.425,0.6849,-0.1615,-0.6774,-0.0506,-0.1029,-0.0671,2412,2019-08-07 17:02:36:603
-0.8898,9.6006,0.5334,0.3196,0.1386,-0.8307,-0.0506,-0.1029,-0.0671,2417,2019-08-07 17:02:36:608
-0.8898,9.6006,0.5334,0.3196,0.1386,-0.8307,-0.0399,-0.2264,-0.0522,2421,2019-08-07 17:02:36:612
-0.8898,9.6006,0.5334,0.3196,0.1386,-0.8307,-0.0399,-0.2264,-0.0522,2427,2019-08-07 17:02:36:618
-0.8515,10.1735,0.7078,0.3196,0.1386,-0.8307,-0.0218,-0.2946,-0.017,2431,2019-08-07 17:02:36:622
-0.8515,10.1735,0.7078,-0.6796,-0.4057,-0.7678,-0.0218,-0.2946,-0.017,2437,2019-08-07 17:02:36:628
0.3349,10.3597,0.3071,-0.6796,-0.4057,-0.7678,-0.008,-0.2264,-0.0841,2441,2019-08-07 17:02:36:632
0.3349,10.3597,0.3071,-0.6796,-0.4057,-0.7678,-0.008,-0.2264,-0.0841,2448,2019-08-07 17:02:36:639
0.3349,10.3597,0.3071,-0.6796,-0.4057,-0.7678,-0.0538,-0.0091,-0.1033,2451,2019-08-07 17:02:36:642
-0.1674,9.9157,-0.4942,-0.2434,0.033,0.0739,-0.0538,-0.0091,-0.1033,2457,2019-08-07 17:02:36:648
-0.1674,9.9157,-0.4942,-0.2434,0.033,0.0739,-0.0538,-0.0091,-0.1033,2462,2019-08-07 17:02:36:653
-0.6075,9.5672,0.8162,-0.2434,0.033,0.0739,-0.1113,0.1166,-0.0926,2467,2019-08-07 17:02:36:658
-0.6075,9.5672,0.8162,-0.2434,0.033,0.0739,-0.1113,0.1166,-0.0926,2472,2019-08-07 17:02:36:663
-0.6075,9.5672,0.8162,0.4583,0.042,-1.2434,-0.0729,-0.0496,-0.0937,2477,2019-08-07 17:02:36:668
-0.9233,9.7916,0.9765,0.4583,0.042,-1.2434,-0.0729,-0.0496,-0.0937,2481,2019-08-07 17:02:36:672
-0.9233,9.7916,0.9765,0.4583,0.042,-1.2434,-0.0303,-0.2318,-0.0713,2487,2019-08-07 17:02:36:678
-0.9233,9.7916,0.9765,0.4583,0.042,-1.2434,-0.0303,-0.2318,-0.0713,2492,2019-08-07 17:02:36:683
-0.4497,10.2738,0.458,0.4583,0.042,-1.2434,-0.0303,-0.2318,-0.0713,2497,2019-08-07 17:02:36:688
-0.4497,10.2738,0.458,-0.0656,-0.5554,-0.643,-0.0367,-0.2222,-0.0841,2502,2019-08-07 17:02:36:693
-0.4497,10.2738,0.458,-0.0656,-0.5554,-0.643,-0.0367,-0.2222,-0.0841,2506,2019-08-07 17:02:36:697
-0.5358,10.2928,0.7219,-0.0656,-0.5554,-0.643,-0.0463,-0.2275,-0.0745,2512,2019-08-07 17:02:36:703
-0.5358,10.2928,0.7219,0.0195,-0.1024,-0.8517,-0.0463,-0.2275,-0.0745,2517,2019-08-07 17:02:36:708
-0.5836,9.9205,0.6371,0.0195,-0.1024,-0.8517,-0.042,-0.3095,-0.0681,2522,2019-08-07 17:02:36:713
-0.5836,9.9205,0.6371,0.0195,-0.1024,-0.8517,-0.042,-0.3095,-0.0681,2527,2019-08-07 17:02:36:718
-0.5836,9.9205,0.6371,0.0122,-0.0979,-0.64,-0.0591,-0.3489,-0.0692,2532,2019-08-07 17:02:36:723
-0.2391,9.8441,0.4344,0.0122,-0.0979,-0.64,-0.0591,-0.3489,-0.0692,2537,2019-08-07 17:02:36:728
-0.2391,9.8441,0.4344,0.0122,-0.0979,-0.64,-0.0591,-0.3489,-0.0692,2541,2019-08-07 17:02:36:732
0.1101,9.72,0.3825,-0.7236,-0.0555,-0.5861,-0.0655,-0.3244,-0.0884,2548,2019-08-07 17:02:36:739
0.1101,9.72,0.3825,-0.7236,-0.0555,-0.5861,-0.0665,-0.2243,-0.1182,2552,2019-08-07 17:02:36:743
0.1101,9.72,0.3825,-0.7236,-0.0555,-0.5861,-0.0665,-0.2243,-0.1182,2557,2019-08-07 17:02:36:748
0.1101,9.72,0.3825,-0.7236,-0.0555,-0.5861,-0.0665,-0.2243,-0.1182,2561,2019-08-07 17:02:36:752
-0.1243,10.0685,0.6654,-0.7236,-0.0555,-0.5861,-0.0655,-0.1295,-0.1086,2567,2019-08-07 17:02:36:758
-0.1243,10.0685,0.6654,-0.5217,0.0725,-0.6504,-0.0655,-0.1295,-0.1086,2572,2019-08-07 17:02:36:763
-0.6745,9.6054,0.029,-0.5217,0.0725,-0.6504,-0.0815,0.0708,-0.1267,2577,2019-08-07 17:02:36:768
-0.6745,9.6054,0.029,0.203,0.1435,-0.1611,-0.107,0.0985,-0.115,2583,2019-08-07 17:02:36:774
-0.6745,9.6054,0.029,0.203,0.1435,-0.1611,-0.107,0.0985,-0.115,2586,2019-08-07 17:02:36:777
-0.952,9.7152,1.0,0.203,0.1435,-0.1611,-0.107,0.0985,-0.115,2592,2019-08-07 17:02:36:783
-0.952,9.7152,1.0,0.203,0.1435,-0.1611,-0.0527,-0.0208,-0.1086,2597,2019-08-07 17:02:36:788
-0.995,9.9062,0.7596,0.446,-0.0679,-0.9815,-0.0527,-0.0208,-0.1086,2602,2019-08-07 17:02:36:793
-0.995,9.9062,0.7596,0.446,-0.0679,-0.9815,-0.0154,-0.1188,-0.0948,2607,2019-08-07 17:02:36:798
-0.995,9.9062,0.7596,0.0336,-0.1354,-0.5049,-0.0154,-0.1188,-0.0948,2611,2019-08-07 17:02:36:802
-0.4066,9.973,0.4202,0.0336,-0.1354,-0.5049,-0.0239,-0.0975,-0.0937,2617,2019-08-07 17:02:36:808
-0.4066,9.973,0.4202,0.0336,-0.1354,-0.5049,-0.0239,-0.0975,-0.0937,2622,2019-08-07 17:02:36:813
-0.2918,9.9969,0.6182,0.0336,-0.1354,-0.5049,-0.0261,-0.0464,-0.1022,2627,2019-08-07 17:02:36:818
-0.2918,9.9969,0.6182,-0.2896,-0.1269,-0.664,-0.0261,-0.0464,-0.1022,2632,2019-08-07 17:02:36:823
-0.2918,9.9969,0.6182,-0.2896,-0.1269,-0.664,-0.0293,0.0367,-0.1043,2637,2019-08-07 17:02:36:828
-0.5358,9.8823,0.5098,-0.2896,-0.1269,-0.664,-0.0293,0.0367,-0.1043,2641,2019-08-07 17:02:36:832
-0.5358,9.8823,0.5098,-0.2896,-0.1269,-0.664,-0.0293,0.0367,-0.1043,2647,2019-08-07 17:02:36:838
-0.7223,9.7677,0.7502,0.0262,-0.004,-0.706,-0.0325,0.0867,-0.1012,2652,2019-08-07 17:02:36:843
-0.7223,9.7677,0.7502,0.0262,-0.004,-0.706,-0.0325,0.0867,-0.1012,2656,2019-08-07 17:02:36:847
-0.7223,9.7677,0.7502,0.0262,-0.004,-0.706,-0.0143,0.0686,-0.099,2662,2019-08-07 17:02:36:853
-0.8132,9.7916,1.0849,0.0262,-0.004,-0.706,-0.0143,0.0686,-0.099,2667,2019-08-07 17:02:36:858
-0.8132,9.7916,1.0849,0.0255,0.0567,-0.8949,0.0219,-0.007,-0.083,2672,2019-08-07 17:02:36:863
-0.6458,9.72,0.7408,0.0255,0.0567,-0.8949,0.0219,-0.007,-0.083,2677,2019-08-07 17:02:36:868
-0.6458,9.72,0.7408,0.0255,0.0567,-0.8949,0.0283,-0.0123,-0.0777,2683,2019-08-07 17:02:36:874
-0.6458,9.72,0.7408,0.0255,0.0567,-0.8949,0.0283,-0.0123,-0.0777,2686,2019-08-07 17:02:36:877
-0.6458,9.72,0.7408,0.0255,0.0567,-0.8949,0.0283,-0.0123,-0.0777,2692,2019-08-07 17:02:36:883
-0.531,9.8059,0.5899,-0.1663,-0.0207,-0.6071,0.0197,0.0303,-0.0756,2697,2019-08-07 17:02:36:888
-0.531,9.8059,0.5899,-0.1663,-0.0207,-0.6071,0.0197,0.0303,-0.0756,2702,2019-08-07 17:02:36:893
-0.531,9.8059,0.5899,-0.1663,-0.0207,-0.6071,0.007,0.0921,-0.0809,2707,2019-08-07 17:02:36:898
-0.4592,9.8537,0.2128,-0.2472,-0.0838,-0.2159,0.007,0.0921,-0.0809,2712,2019-08-07 17:02:36:903
-0.4592,9.8537,0.2128,-0.2472,-0.0838,-0.2159,-0.008,0.1144,-0.0905,2717,2019-08-07 17:02:36:908
-0.4592,9.8537,0.2128,-0.2472,-0.0838,-0.2159,-0.008,0.1144,-0.0905,2722,2019-08-07 17:02:36:913
-0.5357,10.0112,0.5947,-0.2472,-0.0838,-0.2159,-0.0133,0.1453,-0.1001,2728,2019-08-07 17:02:36:919
-0.5357,10.0112,0.5947,-0.2025,-0.276,-0.7629,-0.0133,0.1453,-0.1001,2732,2019-08-07 17:02:36:923
-0.5836,10.0255,0.7314,-0.2025,-0.276,-0.7629,-0.0058,0.1602,-0.098,2736,2019-08-07 17:02:36:927
-0.5836,10.0255,0.7314,-0.1349,-0.1765,-0.6474,-0.0058,0.1602,-0.098,2742,2019-08-07 17:02:36:933
-0.5836,10.0255,0.7314,-0.1349,-0.1765,-0.6474,-0.0058,0.1602,-0.098,2747,2019-08-07 17:02:36:938
-0.6793,9.9444,0.5664,-0.1349,-0.1765,-0.6474,-0.0069,0.1911,-0.0905,2752,2019-08-07 17:02:36:943
-0.6793,9.9444,0.5664,-0.1349,-0.1765,-0.6474,-0.0069,0.1911,-0.0905,2757,2019-08-07 17:02:36:948
-1.0046,9.8489,0.5947,0.2492,-0.068,-0.6015,-0.0207,0.2391,-0.0767,2761,2019-08-07 17:02:36:952
-1.0046,9.8489,0.5947,0.2492,-0.068,-0.6015,-0.0207,0.2391,-0.0767,2766,2019-08-07 17:02:36:957
-1.0046,9.8489,0.5947,0.2492,-0.068,-0.6015,-0.0261,0.2231,-0.0703,2772,2019-08-07 17:02:36:963
-1.0955,9.973,0.6229,0.2492,-0.068,-0.6015,-0.0261,0.2231,-0.0703,2777,2019-08-07 17:02:36:968
-1.0955,9.973,0.6229,0.4677,-0.1313,-0.6657,-0.0197,0.1539,-0.0617,2782,2019-08-07 17:02:36:973
-1.0955,9.973,0.6229,0.4677,-0.1313,-0.6657,-0.0197,0.1539,-0.0617,2786,2019-08-07 17:02:36:977
-1.1912,9.7868,0.7549,0.4677,-0.1313,-0.6657,-0.0037,0.0409,-0.0266,2792,2019-08-07 17:02:36:983
-1.1912,9.7868,0.7549,0.4677,-0.1313,-0.6657,-0.0037,0.0409,-0.0266,2797,2019-08-07 17:02:36:988
-1.0189,9.868,0.6182,0.2384,-0.0891,-0.6122,-0.0037,0.0409,-0.0266,2802,2019-08-07 17:02:36:993
-1.0189,9.868,0.6182,0.2384,-0.0891,-0.6122,0.0123,-0.0677,-0.0074,2807,2019-08-07 17:02:36:998
-1.0189,9.868,0.6182,0.2384,-0.0891,-0.6122,0.0123,-0.0677,-0.0074,2813,2019-08-07 17:02:37:004
-0.9472,9.9587,0.4862,0.2384,-0.0891,-0.6122,0.0091,-0.0784,0.0,2817,2019-08-07 17:02:37:008
-0.9472,9.9587,0.4862,0.2384,-0.0891,-0.6122,0.0091,-0.0784,0.0,2821,2019-08-07 17:02:37:012
-0.9472,9.9587,0.4862,0.0453,-0.0606,-0.6793,0.0059,-0.072,0.0032,2827,2019-08-07 17:02:37:018
-0.7749,9.9157,0.7078,0.0453,-0.0606,-0.6793,0.0059,-0.072,0.0032,2832,2019-08-07 17:02:37:023
-0.7749,9.9157,0.7078,0.0453,-0.0606,-0.6793,0.0144,-0.1114,0.0075,2837,2019-08-07 17:02:37:028
-0.7749,9.9157,0.7078,0.0453,-0.0606,-0.6793,0.0144,-0.1114,0.0075,2841,2019-08-07 17:02:37:032
-3.3824,10.6127,8.2876,2.5969,-0.8342,-8.2637,0.0144,-0.1114,0.0075,2847,2019-08-07 17:02:37:038
-3.3824,10.6127,8.2876,2.5969,-0.8342,-8.2637,0.2317,-0.6643,-0.0798,2852,2019-08-07 17:02:37:043
-1.3251,11.8921,-2.9878,2.5969,-0.8342,-8.2637,0.2317,-0.6643,-0.0798,2857,2019-08-07 17:02:37:048
-1.3251,11.8921,-2.9878,-1.641,0.1298,0.1494,0.1209,-0.3969,-0.0468,2861,2019-08-07 17:02:37:052
1.2297,9.2092,-1.3757,-1.641,0.1298,0.1494,0.1209,-0.3969,-0.0468,2867,2019-08-07 17:02:37:058
1.2297,9.2092,-1.3757,-1.641,0.1298,0.1494,-0.1155,0.2614,-0.033,2872,2019-08-07 17:02:37:063
1.2297,9.2092,-1.3757,-1.641,0.1298,0.1494,-0.1155,0.2614,-0.033,2876,2019-08-07 17:02:37:067
-0.8084,10.0637,1.1556,9.0E-4,-0.1562,-1.1,-0.0399,0.4937,-0.0063,2882,2019-08-07 17:02:37:073
-0.8084,10.0637,1.1556,9.0E-4,-0.1562,-1.1,-0.0399,0.4937,-0.0063,2886,2019-08-07 17:02:37:077
-0.8802,9.5911,0.8728,9.0E-4,-0.1562,-1.1,-0.0048,0.4852,-0.0234,2892,2019-08-07 17:02:37:083
-0.8802,9.5911,0.8728,9.0E-4,-0.1562,-1.1,-0.0048,0.4852,-0.0234,2897,2019-08-07 17:02:37:088
-0.8802,9.5911,0.8728,9.0E-4,-0.1562,-1.1,-0.0048,0.4852,-0.0234,2901,2019-08-07 17:02:37:092
-0.5501,9.93,0.293,-0.1456,-0.1278,-0.4908,0.0517,0.532,0.0192,2907,2019-08-07 17:02:37:098
-0.5501,9.93,0.293,-0.1456,-0.1278,-0.4908,0.0517,0.532,0.0192,2912,2019-08-07 17:02:37:103
-1.5069,9.677,1.9098,-0.1456,-0.1278,-0.4908,-0.0985,0.156,-0.0063,2917,2019-08-07 17:02:37:108
-1.5069,9.677,1.9098,-0.1456,-0.1278,-0.4908,-0.0985,0.156,-0.0063,2922,2019-08-07 17:02:37:113
-1.5069,9.677,1.9098,0.7177,-0.0087,-1.5023,0.0496,-0.0794,0.032,2926,2019-08-07 17:02:37:117
-1.0381,9.8727,0.9671,0.7177,-0.0087,-1.5023,0.0496,-0.0794,0.032,2933,2019-08-07 17:02:37:124
-1.0381,9.8727,0.9671,0.7177,-0.0087,-1.5023,0.0528,-0.2446,0.0341,2936,2019-08-07 17:02:37:127