ACCELEROMETER X (m/s²),ACCELEROMETER Y (m/s²),ACCELEROMETER Z (m/s²),LINEAR ACCELERATION X (m/s²),LINEAR ACCELERATION Y (m/s²),LINEAR ACCELERATION Z (m/s²),GYROSCOPE X (rad/s),GYROSCOPE Y (rad/s),GYROSCOPE Z (rad/s),Time since start in ms ,YYYY-MO-DD HH-MI-SS_SSS
-0.8618,9.8065,0.8056,-0.061,0.1062,-0.682,0.0602,-0.0528,-0.0575,1,2019-08-07 17:02:48:352
-0.5795,9.6728,0.9942,-0.061,0.1062,-0.682,0.0602,-0.0528,-0.0575,7,2019-08-07 17:02:48:358
-0.5795,9.6728,0.9942,-0.061,0.1062,-0.682,0.0869,-0.0784,-0.0575,11,2019-08-07 17:02:48:362
-0.5173,9.7969,0.6595,-0.061,0.1062,-0.682,0.0869,-0.0784,-0.0575,17,2019-08-07 17:02:48:368
-0.5173,9.7969,0.6595,-0.2808,0.0103,-0.3909,0.0943,-0.0219,-0.0628,22,2019-08-07 17:02:48:373
-0.5173,9.7969,0.6595,-0.2808,0.0103,-0.3909,0.0943,-0.0219,-0.0628,27,2019-08-07 17:02:48:378
-0.7087,9.9067,0.6124,-0.2808,0.0103,-0.3909,0.0954,0.0303,-0.0564,32,2019-08-07 17:02:48:383
-0.7087,9.9067,0.6124,-0.2808,0.0103,-0.3909,0.0954,0.0303,-0.0564,37,2019-08-07 17:02:48:388
-0.7087,9.9067,0.6124,0.105,0.0145,-0.4631,0.0954,0.0303,-0.0564,42,2019-08-07 17:02:48:393
-0.924,9.8017,0.7208,0.105,0.0145,-0.4631,0.1028,0.0441,-0.0596,47,2019-08-07 17:02:48:398
-0.924,9.8017,0.7208,0.105,0.0145,-0.4631,0.1028,0.0441,-0.0596,51,2019-08-07 17:02:48:402
-0.924,9.8017,0.7208,0.105,0.0145,-0.4631,0.1316,-0.0262,-0.049,57,2019-08-07 17:02:48:408
-0.7996,9.9497,0.8669,-0.0072,-0.1674,-0.467,0.1316,-0.0262,-0.049,61,2019-08-07 17:02:48:412
-0.7996,9.9497,0.8669,-0.0072,-0.1674,-0.467,0.1508,-0.0752,-0.0447,67,2019-08-07 17:02:48:418
-0.7996,9.9497,0.8669,-0.0072,-0.1674,-0.467,0.1508,-0.0752,-0.0447,71,2019-08-07 17:02:48:422
-0.8905,9.859,-0.0287,-0.0072,-0.1674,-0.467,0.1284,-0.0187,-0.0458,77,2019-08-07 17:02:48:428
-0.8905,9.859,-0.0287,0.0174,-0.0387,-0.1687,0.1284,-0.0187,-0.0458,81,2019-08-07 17:02:48:432
-0.814,9.7969,0.7585,0.0174,-0.0387,-0.1687,0.1284,-0.0187,-0.0458,87,2019-08-07 17:02:48:438
-0.814,9.7969,0.7585,0.0174,-0.0387,-0.1687,0.1252,0.0037,-0.049,92,2019-08-07 17:02:48:443
-0.814,9.7969,0.7585,0.0174,-0.0387,-0.1687,0.1252,0.0037,-0.049,97,2019-08-07 17:02:48:448
-0.8092,9.8256,0.9187,-0.0393,0.0229,-0.6465,0.1646,-0.0933,-0.0426,101,2019-08-07 17:02:48:452
-0.8092,9.8256,0.9187,-0.0393,0.0229,-0.6465,0.1646,-0.0933,-0.0426,107,2019-08-07 17:02:48:458
-0.6849,9.7158,0.4851,-0.0393,0.0229,-0.6465,0.1902,-0.1114,-0.0458,112,2019-08-07 17:02:48:463
-0.6849,9.7158,0.4851,-0.0393,0.0229,-0.6465,0.1902,-0.1114,-0.0458,116,2019-08-07 17:02:48:467
-0.6849,9.7158,0.4851,-0.3528,-0.1204,-0.075,0.171,-0.0602,-0.0554,122,2019-08-07 17:02:48:473
-0.5079,9.9592,0.1504,-0.3528,-0.1204,-0.075,0.171,-0.0602,-0.0554,126,2019-08-07 17:02:48:477
-0.5079,9.9592,0.1504,-0.3528,-0.1204,-0.075,0.1625,-0.0155,-0.0628,132,2019-08-07 17:02:48:483
-0.6131,9.9879,0.2541,-0.3528,-0.1204,-0.075,0.1625,-0.0155,-0.0628,136,2019-08-07 17:02:48:487
-0.6131,9.9879,0.2541,-0.3528,-0.1204,-0.075,0.1625,-0.0155,-0.0628,142,2019-08-07 17:02:48:493
-0.6131,9.9879,0.2541,-0.1572,-0.1495,-0.2665,0.1561,0.0111,-0.0735,146,2019-08-07 17:02:48:497
-0.7279,9.9449,0.4662,-0.1572,-0.1495,-0.2665,0.1561,0.0111,-0.0735,152,2019-08-07 17:02:48:503
-0.7279,9.9449,0.4662,-0.1572,-0.1495,-0.2665,0.1508,-0.0272,-0.0756,156,2019-08-07 17:02:48:507
-0.7806,9.8208,0.3436,-0.0608,-0.0741,-0.2099,0.1508,-0.0272,-0.0756,162,2019-08-07 17:02:48:513
-0.7806,9.8208,0.3436,-0.0608,-0.0741,-0.2099,0.1487,-0.0475,-0.0703,166,2019-08-07 17:02:48:517
-0.948,9.8924,0.3578,-0.0608,-0.0741,-0.2099,0.1487,-0.0475,-0.0703,172,2019-08-07 17:02:48:523
-0.948,9.8924,0.3578,-0.0608,-0.0741,-0.2099,0.1391,-0.0304,-0.0682,176,2019-08-07 17:02:48:527
-0.948,9.8924,0.3578,0.0784,-0.2184,-0.3254,0.1391,-0.0304,-0.0682,182,2019-08-07 17:02:48:533
-0.9289,9.9688,0.3672,0.0784,-0.2184,-0.3254,0.1391,-0.0325,-0.065,187,2019-08-07 17:02:48:538
-0.9289,9.9688,0.3672,0.0784,-0.2184,-0.3254,0.1391,-0.0325,-0.065,192,2019-08-07 17:02:48:543
-0.9289,9.9688,0.3672,-0.0094,-0.2571,-0.2433,0.1391,-0.0325,-0.065,196,2019-08-07 17:02:48:547
-0.8572,10.0499,0.2541,-0.0094,-0.2571,-0.2433,0.1423,-0.0592,-0.0671,202,2019-08-07 17:02:48:553
-0.8572,10.0499,0.2541,-0.0094,-0.2571,-0.2433,0.1423,-0.0592,-0.0671,206,2019-08-07 17:02:48:557
-0.7376,9.9592,0.2164,-0.0094,-0.2571,-0.2433,0.1433,-0.0581,-0.0735,212,2019-08-07 17:02:48:563
-0.7376,9.9592,0.2164,-0.2422,-0.1579,-0.146,0.1433,-0.0581,-0.0735,216,2019-08-07 17:02:48:567
-0.5941,9.9688,-0.1466,-0.2422,-0.1579,-0.146,0.1135,-0.0294,-0.0778,222,2019-08-07 17:02:48:573
-0.5941,9.9688,-0.1466,-0.2422,-0.1579,-0.146,0.1135,-0.0294,-0.0778,227,2019-08-07 17:02:48:578
-0.5941,9.9688,-0.1466,-0.1502,-0.3263,0.2448,0.0847,0.0133,-0.0841,232,2019-08-07 17:02:48:583
-0.8333,10.1263,-0.2315,-0.1502,-0.3263,0.2448,0.0847,0.0133,-0.0841,237,2019-08-07 17:02:48:588
-0.8333,10.1263,-0.2315,-0.1502,-0.3263,0.2448,0.0847,0.0133,-0.0841,242,2019-08-07 17:02:48:593
-0.8333,10.1263,-0.2315,-0.0103,-0.3175,-0.1402,0.0688,0.0314,-0.0927,246,2019-08-07 17:02:48:597
-0.9768,10.0643,0.2446,-0.0103,-0.3175,-0.1402,0.0688,0.0314,-0.0927,252,2019-08-07 17:02:48:603
-0.9768,10.0643,0.2446,-0.0103,-0.3175,-0.1402,0.0794,-0.0357,-0.0948,256,2019-08-07 17:02:48:607
-1.0342,9.8112,0.4143,-0.0103,-0.3175,-0.1402,0.0794,-0.0357,-0.0948,261,2019-08-07 17:02:48:612
-1.0342,9.8112,0.4143,0.0278,-0.0186,-0.3973,0.0826,-0.0879,-0.0948,267,2019-08-07 17:02:48:618
-1.0342,9.8112,0.4143,0.0278,-0.0186,-0.3973,0.0826,-0.0879,-0.0948,271,2019-08-07 17:02:48:622
-0.8477,9.8685,0.4615,0.0278,-0.0186,-0.3973,0.0869,-0.1146,-0.0905,277,2019-08-07 17:02:48:628
-0.8477,9.8685,0.4615,0.0278,-0.0186,-0.3973,0.0869,-0.1146,-0.0905,281,2019-08-07 17:02:48:632
-0.7329,9.9736,0.1456,-0.2336,-0.2352,-0.1971,0.0869,-0.1146,-0.0905,287,2019-08-07 17:02:48:638
-0.7329,9.9736,0.1456,-0.2336,-0.2352,-0.1971,0.0922,-0.1007,-0.0991,292,2019-08-07 17:02:48:643
-0.7329,9.9736,0.1456,-0.2336,-0.2352,-0.1971,0.0922,-0.1007,-0.0991,296,2019-08-07 17:02:48:647
-0.7329,9.7778,0.2871,-0.2336,-0.2352,-0.1971,0.089,-0.0496,-0.1012,302,2019-08-07 17:02:48:653
-0.7329,9.7778,0.2871,-0.1318,0.0494,-0.4518,0.089,-0.0496,-0.1012,306,2019-08-07 17:02:48:657
-0.8525,9.711,0.4379,-0.1318,0.0494,-0.4518,0.0943,-0.0368,-0.0873,312,2019-08-07 17:02:48:663
-0.8525,9.711,0.4379,-0.1318,0.0494,-0.4518,0.0943,-0.0368,-0.0873,317,2019-08-07 17:02:48:668
-0.8525,9.711,0.4379,-0.1318,0.0494,-0.4518,0.0815,-0.0443,-0.1012,321,2019-08-07 17:02:48:672
-0.9051,9.9927,-0.0901,-0.0967,-0.2342,0.0235,0.0815,-0.0443,-0.1012,327,2019-08-07 17:02:48:678
-0.9051,9.9927,-0.0901,-0.0967,-0.2342,0.0235,0.073,-0.0219,-0.1001,331,2019-08-07 17:02:48:682
-0.9243,9.9449,-0.0194,-0.0967,-0.2342,0.0235,0.073,-0.0219,-0.1001,337,2019-08-07 17:02:48:688
-0.9243,9.9449,-0.0194,-0.0967,-0.2342,0.0235,0.073,-0.0219,-0.1001,342,2019-08-07 17:02:48:693
-0.9243,9.9449,-0.0194,-0.025,-0.1838,-0.1403,0.0613,-6.0E-4,-0.0991,347,2019-08-07 17:02:48:698
-0.9913,9.8733,0.0985,-0.025,-0.1838,-0.1403,0.0613,-6.0E-4,-0.0991,351,2019-08-07 17:02:48:702
-0.9913,9.8733,0.0985,-0.025,-0.1838,-0.1403,0.0475,-0.0198,-0.098,357,2019-08-07 17:02:48:708
-1.0582,9.8638,0.0561,-0.025,-0.1838,-0.1403,0.0475,-0.0198,-0.098,362,2019-08-07 17:02:48:713
-1.0582,9.8638,0.0561,0.0087,-0.119,-0.1578,0.0421,-0.0432,-0.0895,367,2019-08-07 17:02:48:718
-1.0582,9.8638,0.0561,0.0087,-0.119,-0.1578,0.0421,-0.0432,-0.0895,372,2019-08-07 17:02:48:723
-1.0582,9.8638,0.0561,0.0087,-0.119,-0.1578,0.0421,-0.0432,-0.0895,376,2019-08-07 17:02:48:727
-1.0965,9.816,0.0796,0.0477,-0.0627,-0.17,0.0304,-0.0347,-0.0852,382,2019-08-07 17:02:48:733
-1.0965,9.816,0.0796,0.0477,-0.0627,-0.17,0.0304,-0.0347,-0.0852,386,2019-08-07 17:02:48:737
-1.1348,9.9258,0.1833,0.0477,-0.0627,-0.17,0.0155,-0.0496,-0.0767,392,2019-08-07 17:02:48:743
-1.1348,9.9258,0.1833,0.0979,-0.1886,-0.2094,0.0155,-0.0496,-0.0767,397,2019-08-07 17:02:48:748
-1.1348,9.9258,0.1833,0.0979,-0.1886,-0.2094,0.0144,-0.072,-0.0746,401,2019-08-07 17:02:48:752
-1.1683,9.9688,0.1456,0.0979,-0.1886,-0.2094,0.0144,-0.072,-0.0746,407,2019-08-07 17:02:48:758
-1.1683,9.9688,0.1456,0.0979,-0.1886,-0.2094,0.0176,-0.0773,-0.0714,412,2019-08-07 17:02:48:763
-1.1827,9.8495,0.1692,0.1019,-0.0996,-0.2609,0.0176,-0.0773,-0.0714,416,2019-08-07 17:02:48:767
-1.1827,9.8495,0.1692,0.1019,-0.0996,-0.2609,0.024,-0.1029,-0.0682,422,2019-08-07 17:02:48:773
-1.1827,9.8495,0.1692,0.1019,-0.0996,-0.2609,0.024,-0.1029,-0.0682,426,2019-08-07 17:02:48:777
-1.1157,9.8638,0.353,0.0279,-0.1147,-0.4446,0.0283,-0.1391,-0.066,432,2019-08-07 17:02:48:783
-1.1157,9.8638,0.353,0.0279,-0.1147,-0.4446,0.0283,-0.1391,-0.066,436,2019-08-07 17:02:48:787
-1.0535,9.8447,0.2257,0.0279,-0.1147,-0.4446,0.0432,-0.1508,-0.0501,442,2019-08-07 17:02:48:793
-1.0535,9.8447,0.2257,-0.1227,-0.011,-0.1955,0.0432,-0.1508,-0.0501,446,2019-08-07 17:02:48:797
-1.0535,9.8447,0.2257,-0.1227,-0.011,-0.1955,0.0304,-0.1199,-0.0575,452,2019-08-07 17:02:48:803
-0.9483,9.8686,0.0655,-0.1227,-0.011,-0.1955,0.0304,-0.1199,-0.0575,457,2019-08-07 17:02:48:808
-0.9483,9.8686,0.0655,-0.1227,-0.011,-0.1955,0.0293,-0.0933,-0.0586,462,2019-08-07 17:02:48:813
-0.843,9.8972,0.4284,-0.2668,-0.1506,-0.5219,0.0293,-0.0933,-0.0586,466,2019-08-07 17:02:48:817
-0.843,9.8972,0.4284,-0.2668,-0.1506,-0.5219,0.0475,-0.0933,-0.0618,472,2019-08-07 17:02:48:823
-0.843,9.8972,0.4284,-0.2668,-0.1506,-0.5219,0.0475,-0.0933,-0.0618,477,2019-08-07 17:02:48:828
-0.8431,9.8017,0.0466,-0.2668,-0.1506,-0.5219,0.0475,-0.0762,-0.0596,482,2019-08-07 17:02:48:833
-0.8431,9.8017,0.0466,-0.2765,-0.0706,-0.0983,0.0475,-0.0762,-0.0596,487,2019-08-07 17:02:48:838
-0.8431,9.8017,0.0466,-0.2765,-0.0706,-0.0983,0.0475,-0.0762,-0.0596,492,2019-08-07 17:02:48:843
-0.8191,9.7779,0.0419,-0.2765,-0.0706,-0.0983,0.0347,-0.0187,-0.065,496,2019-08-07 17:02:48:847
-0.8191,9.7779,0.0419,-0.2765,-0.0706,-0.0983,0.0347,-0.0187,-0.065,502,2019-08-07 17:02:48:853
-1.0057,9.8351,0.188,-0.1251,-0.0911,-0.2916,0.0304,0.0122,-0.0703,508,2019-08-07 17:02:48:859
-1.0057,9.8351,0.188,-0.1251,-0.0911,-0.2916,0.0304,0.0122,-0.0703,512,2019-08-07 17:02:48:863
-1.0057,9.8351,0.188,-0.1251,-0.0911,-0.2916,0.0336,0.0037,-0.0692,516,2019-08-07 17:02:48:867
-1.0632,9.902,0.2493,-0.1251,-0.0911,-0.2916,0.0336,0.0037,-0.0692,522,2019-08-07 17:02:48:873
-1.0632,9.902,0.2493,-0.119,-0.1881,-0.4044,0.0443,-0.008,-0.0692,527,2019-08-07 17:02:48:878
-1.0488,9.9354,0.3389,-0.119,-0.1881,-0.4044,0.0443,-0.008,-0.0692,532,2019-08-07 17:02:48:883
-1.0488,9.9354,0.3389,-0.119,-0.1881,-0.4044,0.057,0.0058,-0.0724,536,2019-08-07 17:02:48:887
-1.0488,9.9354,0.3389,-0.119,-0.1881,-0.4044,0.057,0.0058,-0.0724,542,2019-08-07 17:02:48:893
-0.9627,9.8638,0.2682,-0.2273,-0.142,-0.2757,0.0666,0.0101,-0.0724,547,2019-08-07 17:02:48:898
-0.9627,9.8638,0.2682,-0.2273,-0.142,-0.2757,0.0666,0.0101,-0.0724,551,2019-08-07 17:02:48:902
-0.9914,9.8208,-0.0147,-0.2273,-0.142,-0.2757,0.0581,0.0356,-0.0724,557,2019-08-07 17:02:48:908
-0.9914,9.8208,-0.0147,-0.2273,-0.142,-0.2757,0.0581,0.0356,-0.0724,561,2019-08-07 17:02:48:912
-0.9914,9.8208,-0.0147,0.0801,-0.0578,-0.1362,0.0485,0.0676,-0.0682,567,2019-08-07 17:02:48:918
-1.3216,9.8304,0.0513,0.0801,-0.0578,-0.1362,0.0485,0.0676,-0.0682,572,2019-08-07 17:02:48:923
-1.3216,9.8304,0.0513,0.0801,-0.0578,-0.1362,0.0506,0.0708,-0.0628,579,2019-08-07 17:02:48:930
-1.3216,9.8304,0.0513,0.0801,-0.0578,-0.1362,0.0506,0.0708,-0.0628,582,2019-08-07 17:02:48:933
-1.446,9.797,0.3389,0.0801,-0.0578,-0.1362,0.0506,0.0708,-0.0628,587,2019-08-07 17:02:48:938
-1.446,9.797,0.3389,0.248,-0.0643,-0.3995,0.0613,0.009,-0.0511,591,2019-08-07 17:02:48:942
-1.2402,9.7779,0.1362,0.248,-0.0643,-0.3995,0.0613,0.009,-0.0511,597,2019-08-07 17:02:48:948
-1.2402,9.7779,0.1362,0.248,-0.0643,-0.3995,0.0709,-0.0421,-0.0501,602,2019-08-07 17:02:48:953
-1.2402,9.7779,0.1362,0.248,-0.0643,-0.3995,0.0709,-0.0421,-0.0501,607,2019-08-07 17:02:48:958
-1.1015,9.7779,0.0419,-0.0921,-0.0419,-0.1892,0.0762,-0.0517,-0.0479,612,2019-08-07 17:02:48:963
-1.1015,9.7779,0.0419,-0.0921,-0.0419,-0.1892,0.0762,-0.0517,-0.0479,617,2019-08-07 17:02:48:968
-1.1015,9.7779,0.0419,-0.0921,-0.0419,-0.1892,0.0773,-0.0166,-0.0479,622,2019-08-07 17:02:48:973
-0.9724,9.754,0.188,-0.0921,-0.0419,-0.1892,0.0773,-0.0166,-0.0479,626,2019-08-07 17:02:48:977
-0.9724,9.754,0.188,-0.2484,0.0238,-0.3849,0.0837,-6.0E-4,-0.0479,632,2019-08-07 17:02:48:983
-1.0011,9.8065,0.2493,-0.2484,0.0238,-0.3849,0.0837,-6.0E-4,-0.0479,637,2019-08-07 17:02:48:988
-1.0011,9.8065,0.2493,-0.2484,0.0238,-0.3849,0.0837,-6.0E-4,-0.0479,642,2019-08-07 17:02:48:993
-1.0011,9.8065,0.2493,-0.2484,0.0238,-0.3849,0.0901,0.0175,-0.0543,647,2019-08-07 17:02:48:998
-1.0633,9.8542,0.1267,-0.1469,-0.1207,-0.3006,0.0901,0.0175,-0.0543,652,2019-08-07 17:02:49:003
-1.0633,9.8542,0.1267,-0.1469,-0.1207,-0.3006,0.0922,0.0431,-0.0533,657,2019-08-07 17:02:49:008
-1.1542,9.9259,0.0466,-0.0607,-0.1931,-0.229,0.0922,0.0431,-0.0533,662,2019-08-07 17:02:49:013
-1.1542,9.9259,0.0466,-0.0607,-0.1931,-0.229,0.0869,0.0527,-0.0479,666,2019-08-07 17:02:49:017
-1.1542,9.9259,0.0466,-0.0607,-0.1931,-0.229,0.0869,0.0527,-0.0479,672,2019-08-07 17:02:49:023
-1.3169,9.9831,-0.0194,-0.0607,-0.1931,-0.229,0.0794,0.0527,-0.0479,678,2019-08-07 17:02:49:029
-1.3169,9.9831,-0.0194,0.1163,-0.2042,-0.2034,0.0794,0.0527,-0.0479,681,2019-08-07 17:02:49:032
-1.2403,9.9211,0.0984,0.1163,-0.2042,-0.2034,0.0794,0.0101,-0.0426,687,2019-08-07 17:02:49:038
-1.2403,9.9211,0.0984,0.1163,-0.2042,-0.2034,0.0794,0.0101,-0.0426,691,2019-08-07 17:02:49:042
-1.2403,9.9211,0.0984,0.1163,-0.2042,-0.2034,0.0847,-0.0315,-0.0394,697,2019-08-07 17:02:49:048
-1.1494,9.9306,-0.2268,-0.0832,-0.2007,0.0134,0.0847,-0.0315,-0.0394,701,2019-08-07 17:02:49:052
-1.1494,9.9306,-0.2268,-0.0832,-0.2007,0.0134,0.0666,-0.0432,-0.0383,707,2019-08-07 17:02:49:058
-1.1494,9.9306,-0.2268,-0.1535,-0.2061,0.1527,0.0666,-0.0432,-0.0383,712,2019-08-07 17:02:49:063
-1.0538,9.9259,-0.2928,-0.1535,-0.2061,0.1527,0.0496,-0.0059,-0.0469,716,2019-08-07 17:02:49:067
-1.0538,9.9259,-0.2928,-0.1535,-0.2061,0.1527,0.0496,-0.0059,-0.0469,722,2019-08-07 17:02:49:073
-1.0586,9.8208,0.089,-0.1535,-0.2061,0.1527,0.0443,-0.0017,-0.0415,728,2019-08-07 17:02:49:079
-1.0586,9.8208,0.089,-0.1846,-0.0592,-0.2042,0.0443,-0.0017,-0.0415,731,2019-08-07 17:02:49:082
-1.0586,9.8208,0.089,-0.1846,-0.0592,-0.2042,0.0432,-0.008,-0.0458,737,2019-08-07 17:02:49:088
-1.1973,9.8304,-0.1326,-0.1846,-0.0592,-0.2042,0.0432,-0.008,-0.0458,742,2019-08-07 17:02:49:093
-1.1973,9.8304,-0.1326,-0.1846,-0.0592,-0.2042,0.0432,-0.008,-0.0458,746,2019-08-07 17:02:49:097
-1.2691,9.7826,-0.0807,0.0175,-0.0843,-0.1312,0.0336,0.0228,-0.0447,752,2019-08-07 17:02:49:103
-1.2691,9.7826,-0.0807,0.0175,-0.0843,-0.1312,0.0336,0.0228,-0.0447,756,2019-08-07 17:02:49:107
-1.2691,9.7826,-0.0807,0.0175,-0.0843,-0.1312,0.0272,0.0399,-0.0437,762,2019-08-07 17:02:49:113
-1.3887,9.8304,0.0937,0.0175,-0.0843,-0.1312,0.0272,0.0399,-0.0437,766,2019-08-07 17:02:49:117
-1.3887,9.8304,0.0937,0.0805,-0.0617,-0.3336,0.0347,0.009,-0.0426,771,2019-08-07 17:02:49:122
-1.3409,9.754,0.056,0.0805,-0.0617,-0.3336,0.0347,0.009,-0.0426,777,2019-08-07 17:02:49:128
-1.3409,9.754,0.056,0.0805,-0.0617,-0.3336,0.0421,-0.023,-0.0383,782,2019-08-07 17:02:49:133
-1.3409,9.754,0.056,0.0805,-0.0617,-0.3336,0.0421,-0.023,-0.0383,787,2019-08-07 17:02:49:138
-1.2213,9.7301,-0.1797,-0.0468,-0.0055,-0.0655,0.0421,-0.023,-0.0383,791,2019-08-07 17:02:49:142
-1.2213,9.7301,-0.1797,-0.0468,-0.0055,-0.0655,0.0421,-0.0283,-0.0351,797,2019-08-07 17:02:49:148
-1.2213,9.7301,-0.1797,-0.0468,-0.0055,-0.0655,0.0421,-0.0283,-0.0351,801,2019-08-07 17:02:49:152
-1.3265,9.7158,-0.0996,-0.0468,-0.0055,-0.0655,0.0315,-0.0155,-0.0277,807,2019-08-07 17:02:49:158
-1.3265,9.7158,-0.0996,-0.0149,-0.0686,-0.2216,0.0315,-0.0155,-0.0277,812,2019-08-07 17:02:49:163
-1.2596,9.754,-0.0383,-0.0149,-0.0686,-0.2216,0.0304,-0.024,-0.033,817,2019-08-07 17:02:49:168
-1.2596,9.754,-0.0383,-0.0149,-0.0686,-0.2216,0.0304,-0.024,-0.033,822,2019-08-07 17:02:49:173
-1.1783,9.7588,-0.0194,-0.0149,-0.0686,-0.2216,0.04,-0.0368,-0.0309,827,2019-08-07 17:02:49:178
-1.1783,9.7588,-0.0194,-0.1404,-0.0074,-0.2118,0.04,-0.0368,-0.0309,831,2019-08-07 17:02:49:182
-1.1783,9.7588,-0.0194,-0.1404,-0.0074,-0.2118,0.04,-0.0368,-0.0309,837,2019-08-07 17:02:49:188
-1.1783,9.7588,-0.0194,-0.1404,-0.0074,-0.2118,0.0347,-0.023,-0.033,841,2019-08-07 17:02:49:192
-1.1256,9.7779,-0.0619,-0.1574,-0.0555,-0.1956,0.0347,-0.023,-0.033,847,2019-08-07 17:02:49:198
-1.1256,9.7779,-0.0619,-0.1574,-0.0555,-0.1956,0.0368,-6.0E-4,-0.0351,851,2019-08-07 17:02:49:202
-1.1065,9.8065,-0.0477,-0.1574,-0.0555,-0.1956,0.0368,-6.0E-4,-0.0351,857,2019-08-07 17:02:49:208
-1.1065,9.8065,-0.0477,-0.1196,-0.1853,-0.2764,0.0357,0.0196,-0.0373,861,2019-08-07 17:02:49:212
-1.1065,9.8065,-0.0477,-0.1196,-0.1853,-0.2764,0.0357,0.0196,-0.0373,867,2019-08-07 17:02:49:218
-1.1831,9.8495,-0.0619,-0.1196,-0.1853,-0.2764,0.0347,0.0335,-0.0373,872,2019-08-07 17:02:49:223
-1.1831,9.8495,-0.0619,-0.1196,-0.1853,-0.2764,0.0347,0.0335,-0.0373,877,2019-08-07 17:02:49:228
-1.2883,9.8399,-0.0666,-0.0069,-0.1195,-0.2022,0.0336,0.0314,-0.0405,882,2019-08-07 17:02:49:233
-1.2883,9.8399,-0.0666,-0.0069,-0.1195,-0.2022,0.0336,0.0314,-0.0405,886,2019-08-07 17:02:49:237
-1.2883,9.8399,-0.0666,-0.0069,-0.1195,-0.2022,0.0336,0.0314,-0.0405,892,2019-08-07 17:02:49:243
-1.384,9.8161,-0.0289,0.0851,-0.0962,-0.2427,0.0368,0.0197,-0.0341,897,2019-08-07 17:02:49:248
-1.384,9.8161,-0.0289,0.0851,-0.0962,-0.2427,0.0368,0.0197,-0.0341,901,2019-08-07 17:02:49:252
-1.3493,9.8398,-0.0852,0.0851,-0.0962,-0.2427,0.0389,0.0101,-0.0277,907,2019-08-07 17:02:49:258
-1.3493,9.8398,-0.0852,-0.0227,-0.1783,-0.1781,0.0389,0.0101,-0.0277,911,2019-08-07 17:02:49:262
-1.3493,9.8398,-0.0852,-0.0227,-0.1783,-0.1781,0.04,0.0058,-0.0341,917,2019-08-07 17:02:49:268
-1.2201,9.9114,-0.0522,-0.0227,-0.1783,-0.1781,0.04,0.0058,-0.0341,921,2019-08-07 17:02:49:272
-1.2201,9.9114,-0.0522,-0.0227,-0.1783,-0.1781,0.0453,-0.0059,-0.0373,927,2019-08-07 17:02:49:278
-1.1053,9.8207,-0.0663,-0.2055,-0.1028,-0.2175,0.0453,-0.0059,-0.0373,932,2019-08-07 17:02:49:283
-1.1053,9.8207,-0.0663,-0.2055,-0.1028,-0.2175,0.0485,0.0015,-0.033,936,2019-08-07 17:02:49:287
-1.1053,9.8207,-0.0663,-0.2055,-0.1028,-0.2175,0.0485,0.0015,-0.033,942,2019-08-07 17:02:49:293
-1.1101,9.7873,-0.1747,-0.2034,-0.0699,-0.1131,0.0485,0.0015,-0.033,946,2019-08-07 17:02:49:297
-1.1101,9.7873,-0.1747,-0.2034,-0.0699,-0.1131,0.0432,0.0292,-0.0373,952,2019-08-07 17:02:49:303
-1.1101,9.7873,-0.1747,-0.2034,-0.0699,-0.1131,0.0432,0.0292,-0.0373,956,2019-08-07 17:02:49:307
-1.311,9.7634,-0.0805,-0.2034,-0.0699,-0.1131,0.0336,0.0548,-0.0394,962,2019-08-07 17:02:49:313
-1.311,9.7634,-0.0805,0.0101,-0.0281,-0.2713,0.0336,0.0548,-0.0394,967,2019-08-07 17:02:49:318
-1.311,9.7634,-0.0805,0.0101,-0.0281,-0.2713,0.0368,0.0367,-0.0351,972,2019-08-07 17:02:49:323
-1.3971,9.8016,-0.0145,0.0101,-0.0281,-0.2713,0.0368,0.0367,-0.0351,977,2019-08-07 17:02:49:328
-1.3971,9.8016,-0.0145,0.0101,-0.0281,-0.2713,0.0432,0.0143,-0.0341,982,2019-08-07 17:02:49:333
-1.3158,9.8828,-0.1795,-0.0304,-0.1867,-0.1977,0.0432,0.0143,-0.0341,987,2019-08-07 17:02:49:338
-1.3158,9.8828,-0.1795,-0.0304,-0.1867,-0.1977,0.0421,0.0015,-0.0362,991,2019-08-07 17:02:49:342
-1.3158,9.8828,-0.1795,-0.0304,-0.1867,-0.1977,0.0421,0.0015,-0.0362,997,2019-08-07 17:02:49:348
-1.1244,9.921,-0.2502,-0.0304,-0.1867,-0.1977,0.0368,-6.0E-4,-0.0373,1002,2019-08-07 17:02:49:353
-1.1244,9.921,-0.2502,-0.156,-0.14,-0.0825,0.0368,-6.0E-4,-0.0373,1007,2019-08-07 17:02:49:358
-1.1675,9.8589,-0.1512,-0.156,-0.14,-0.0825,0.0347,0.0133,-0.0394,1012,2019-08-07 17:02:49:363
-1.1675,9.8589,-0.1512,-0.156,-0.14,-0.0825,0.0347,0.0133,-0.0394,1016,2019-08-07 17:02:49:367
-1.1675,9.8589,-0.1512,-0.156,-0.14,-0.0825,0.0251,0.0271,-0.0383,1022,2019-08-07 17:02:49:373
-1.2201,9.8494,-0.071,-0.1192,-0.1363,-0.2436,0.0251,0.0271,-0.0383,1026,2019-08-07 17:02:49:377
-1.2201,9.8494,-0.071,-0.1192,-0.1363,-0.2436,0.0219,0.0324,-0.0394,1032,2019-08-07 17:02:49:383
-1.3445,9.8541,-0.0616,-0.1192,-0.1363,-0.2436,0.0219,0.0324,-0.0394,1037,2019-08-07 17:02:49:388
-1.3445,9.8541,-0.0616,-0.1192,-0.1363,-0.2436,0.0219,0.0324,-0.0394,1042,2019-08-07 17:02:49:393
-1.3445,9.8541,-0.0616,0.0128,-0.1087,-0.1904,0.024,0.0282,-0.033,1047,2019-08-07 17:02:49:398
-1.3349,9.8398,-0.1135,0.0128,-0.1087,-0.1904,0.024,0.0282,-0.033,1052,2019-08-07 17:02:49:403
-1.3349,9.8398,-0.1135,0.0128,-0.1087,-0.1904,0.0251,0.0239,-0.0319,1057,2019-08-07 17:02:49:408
-1.3971,9.8016,-0.1135,0.0128,-0.1087,-0.1904,0.0251,0.0239,-0.0319,1062,2019-08-07 17:02:49:413
-1.3971,9.8016,-0.1135,0.0542,-0.1766,-0.1706,0.0229,0.0292,-0.0277,1067,2019-08-07 17:02:49:418
-1.3971,9.8016,-0.1135,0.0542,-0.1766,-0.1706,0.0229,0.0292,-0.0277,1071,2019-08-07 17:02:49:422
-1.311,9.7778,-0.1936,-0.0441,-0.0672,-0.1301,0.0198,0.0303,-0.0287,1077,2019-08-07 17:02:49:428
-1.311,9.7778,-0.1936,-0.0441,-0.0672,-0.1301,0.0198,0.0303,-0.0287,1081,2019-08-07 17:02:49:432
-1.311,9.7778,-0.1936,-0.0441,-0.0672,-0.1301,0.0208,0.0218,-0.0287,1087,2019-08-07 17:02:49:438
-1.2392,9.8541,-0.1135,-0.0441,-0.0672,-0.1301,0.0208,0.0218,-0.0287,1092,2019-08-07 17:02:49:443
-1.2392,9.8541,-0.1135,-0.0683,-0.0776,-0.1666,0.0208,0.0218,-0.0287,1097,2019-08-07 17:02:49:448
-1.2392,9.8541,-0.1135,-0.0683,-0.0776,-0.1666,0.0198,0.0228,-0.0277,1101,2019-08-07 17:02:49:452
-1.2727,9.8255,-0.2172,-0.0683,-0.0776,-0.1666,0.0144,0.0356,-0.0287,1107,2019-08-07 17:02:49:458
-1.2727,9.8255,-0.2172,-0.0683,-0.0776,-0.1666,0.0144,0.0356,-0.0287,1112,2019-08-07 17:02:49:463
-1.3827,9.8255,-0.1747,0.0368,-0.0688,-0.1601,0.0112,0.0388,-0.0245,1117,2019-08-07 17:02:49:468
-1.3827,9.8255,-0.1747,0.0368,-0.0688,-0.1601,0.0112,0.0388,-0.0245,1122,2019-08-07 17:02:49:473
-1.3827,9.8255,-0.1747,0.0368,-0.0688,-0.1601,0.0112,0.0388,-0.0245,1126,2019-08-07 17:02:49:477
-1.4401,9.8159,-0.104,0.0726,-0.1074,-0.227,0.0102,0.0292,-0.0256,1132,2019-08-07 17:02:49:483
-1.4401,9.8159,-0.104,0.0726,-0.1074,-0.227,0.0102,0.0292,-0.0256,1136,2019-08-07 17:02:49:487
-1.488,9.7969,-0.1606,0.0726,-0.1074,-0.227,0.0155,-0.0027,-0.0149,1142,2019-08-07 17:02:49:493
-1.488,9.7969,-0.1606,0.0726,-0.1074,-0.227,0.0155,-0.0027,-0.0149,1147,2019-08-07 17:02:49:498
-1.488,9.7969,-0.1606,0.0444,-0.0364,-0.0962,0.0102,-0.0198,-0.0149,1152,2019-08-07 17:02:49:503
-1.3923,9.7252,-0.2266,0.0444,-0.0364,-0.0962,0.0102,-0.0198,-0.0149,1157,2019-08-07 17:02:49:508
-1.3923,9.7252,-0.2266,0.0444,-0.0364,-0.0962,0.0048,-0.0272,-0.0138,1162,2019-08-07 17:02:49:513
-1.2727,9.7539,-0.3303,-0.1019,-0.0464,-0.0025,0.0048,-0.0272,-0.0138,1166,2019-08-07 17:02:49:517
-1.2727,9.7539,-0.3303,-0.1019,-0.0464,-0.0025,0.0048,-0.0272,-0.0138,1172,2019-08-07 17:02:49:523
-1.2727,9.7539,-0.3303,-0.1019,-0.0464,-0.0025,-0.0058,-0.0091,-0.016,1177,2019-08-07 17:02:49:528
-1.2535,9.7634,-0.3491,-0.122,-0.056,0.0167,-0.0058,-0.0091,-0.016,1182,2019-08-07 17:02:49:533
-1.2535,9.7634,-0.3491,-0.122,-0.056,0.0167,-0.0133,0.0069,-0.0213,1186,2019-08-07 17:02:49:537
-1.2535,9.7634,-0.3491,-0.122,-0.056,0.0167,-0.0133,0.0069,-0.0213,1192,2019-08-07 17:02:49:543
-1.3922,9.7109,-0.2549,-0.0249,-0.0325,-0.1354,-0.0186,0.0058,-0.0213,1197,2019-08-07 17:02:49:548
-1.3922,9.7109,-0.2549,-0.0249,-0.0325,-0.1354,-0.0186,0.0058,-0.0213,1202,2019-08-07 17:02:49:553
-1.354,9.773,-0.2501,-0.0249,-0.0325,-0.1354,-0.0229,0.0015,-0.0181,1207,2019-08-07 17:02:49:558
-1.354,9.773,-0.2501,-0.0249,-0.0325,-0.1354,-0.0229,0.0015,-0.0181,1212,2019-08-07 17:02:49:563
-1.354,9.773,-0.2501,0.0625,-0.0233,-0.0922,-0.0303,0.009,-0.017,1217,2019-08-07 17:02:49:568
-1.4066,9.7348,-0.269,0.0625,-0.0233,-0.0922,-0.0303,0.009,-0.017,1222,2019-08-07 17:02:49:573
-1.4066,9.7348,-0.269,0.0625,-0.0233,-0.0922,-0.0431,0.0165,-0.0138,1227,2019-08-07 17:02:49:578
-1.5071,9.73,-0.2737,0.0625,-0.0233,-0.0922,-0.0431,0.0165,-0.0138,1232,2019-08-07 17:02:49:583
-1.5071,9.73,-0.2737,0.1165,-0.0665,0.0012,-0.0431,0.0165,-0.0138,1236,2019-08-07 17:02:49:587
-1.5071,9.73,-0.2737,0.1165,-0.0665,0.0012,-0.0569,-0.0102,-0.0032,1242,2019-08-07 17:02:49:593
-1.6219,9.7491,-0.3208,0.1165,-0.0665,0.0012,-0.0569,-0.0102,-0.0032,1246,2019-08-07 17:02:49:597
-1.6219,9.7491,-0.3208,0.1872,-0.1046,0.0636,-0.0687,-0.0219,-0.0032,1252,2019-08-07 17:02:49:603
-1.5214,9.7634,-0.4151,0.1872,-0.1046,0.0636,-0.0687,-0.0219,-0.0032,1257,2019-08-07 17:02:49:608
-1.5214,9.7634,-0.4151,0.1872,-0.1046,0.0636,-0.0878,-0.0485,0.0032,1262,2019-08-07 17:02:49:613
-1.5214,9.7634,-0.4151,0.0045,-0.1854,0.0804,-0.0878,-0.0485,0.0032,1266,2019-08-07 17:02:49:617
-1.3922,9.9496,-0.4434,0.0045,-0.1854,0.0804,-0.1134,-0.0826,0.0,1272,2019-08-07 17:02:49:623
-1.3922,9.9496,-0.4434,0.0045,-0.1854,0.0804,-0.1134,-0.0826,0.0,1276,2019-08-07 17:02:49:627
-1.2391,9.9973,-0.6037,-0.115,-0.2662,0.3082,-0.1294,-0.0922,-0.0021,1282,2019-08-07 17:02:49:633
-1.2391,9.9973,-0.6037,-0.115,-0.2662,0.3082,-0.1294,-0.0922,-0.0021,1286,2019-08-07 17:02:49:637
-1.2391,9.9973,-0.6037,-0.115,-0.2662,0.3082,-0.1294,-0.0922,-0.0021,1292,2019-08-07 17:02:49:643
-1.1961,10.0212,-0.5188,-0.115,-0.2662,0.3082,-0.1624,-0.0688,-0.0213,1296,2019-08-07 17:02:49:647
-1.1961,10.0212,-0.5188,-0.1928,-0.2608,0.0872,-0.1624,-0.0688,-0.0213,1302,2019-08-07 17:02:49:653
-1.1961,10.0212,-0.5188,-0.1928,-0.2608,0.0872,-0.1731,-0.0485,-0.0341,1307,2019-08-07 17:02:49:658
-1.287,9.8971,-0.0522,-0.1042,-0.1891,-0.1825,-0.1731,-0.0485,-0.0341,1312,2019-08-07 17:02:49:663
-1.287,9.8971,-0.0522,-0.1042,-0.1891,-0.1825,-0.1688,-0.073,-0.0415,1317,2019-08-07 17:02:49:668
-1.287,9.8971,-0.0522,-0.1042,-0.1891,-0.1825,-0.1688,-0.073,-0.0415,1322,2019-08-07 17:02:49:673
-1.1913,9.8971,0.5512,-0.1042,-0.1891,-0.1825,-0.1688,-0.073,-0.0415,1327,2019-08-07 17:02:49:678
-1.1913,9.8971,0.5512,-0.3365,-0.089,-0.8134,-0.1422,-0.0869,-0.0458,1332,2019-08-07 17:02:49:683
-0.9664,9.8398,0.6596,-0.3365,-0.089,-0.8134,-0.1422,-0.0869,-0.0458,1337,2019-08-07 17:02:49:688
-0.9664,9.8398,0.6596,-0.3365,-0.089,-0.8134,-0.0996,-0.0602,-0.065,1341,2019-08-07 17:02:49:692
-0.9664,9.8398,0.6596,-0.3365,-0.089,-0.8134,-0.0996,-0.0602,-0.065,1347,2019-08-07 17:02:49:698
-0.7224,9.73,0.9,-0.6946,-0.0707,-1.1521,-0.0431,-0.0336,-0.0809,1351,2019-08-07 17:02:49:702
-0.7224,9.73,0.9,-0.6946,-0.0707,-1.1521,-0.0431,-0.0336,-0.0809,1357,2019-08-07 17:02:49:708
-0.8037,9.582,1.4798,-0.6946,-0.0707,-1.1521,0.0368,-0.023,-0.0905,1361,2019-08-07 17:02:49:712
-0.8037,9.582,1.4798,-0.6946,-0.0707,-1.1521,0.0368,-0.023,-0.0905,1367,2019-08-07 17:02:49:718
-0.8037,9.582,1.4798,-0.5685,0.1472,-1.8466,0.1625,0.0175,-0.0969,1371,2019-08-07 17:02:49:722
-0.8898,9.5916,1.527,-0.5685,0.1472,-1.8466,0.1625,0.0175,-0.0969,1377,2019-08-07 17:02:49:728
-0.8898,9.5916,1.527,-0.5685,0.1472,-1.8466,0.2616,0.0963,-0.1129,1381,2019-08-07 17:02:49:732
-0.7607,9.6679,1.7202,-0.5685,0.1472,-1.8466,0.2616,0.0963,-0.1129,1387,2019-08-07 17:02:49:738
-0.7607,9.6679,1.7202,-0.695,0.0631,-2.0199,0.2616,0.0963,-0.1129,1391,2019-08-07 17:02:49:742
-0.7607,9.6679,1.7202,-0.695,0.0631,-2.0199,0.3798,0.1858,-0.1363,1397,2019-08-07 17:02:49:748
-0.7032,9.8112,2.1681,-0.695,0.0631,-2.0199,0.3798,0.1858,-0.1363,1402,2019-08-07 17:02:49:753
-0.7032,9.8112,2.1681,-0.695,0.0631,-2.0199,0.5971,0.205,-0.1427,1407,2019-08-07 17:02:49:758
-0.3492,9.7921,2.465,-1.1071,-0.0945,-2.7349,0.5971,0.205,-0.1427,1412,2019-08-07 17:02:49:763
-0.3492,9.7921,2.465,-1.1071,-0.0945,-2.7349,0.7441,0.2732,-0.1662,1417,2019-08-07 17:02:49:768
-0.3492,9.7921,2.465,-1.1071,-0.0945,-2.7349,0.7441,0.2732,-0.1662,1422,2019-08-07 17:02:49:773
-0.3492,9.7921,2.465,-1.1071,-0.0945,-2.7349,0.7441,0.2732,-0.1662,1426,2019-08-07 17:02:49:777
-0.3205,9.9448,1.9936,-1.0047,-0.58,-2.4057,0.8272,0.3786,-0.1821,1432,2019-08-07 17:02:49:783
-0.3205,9.9448,1.9936,-1.0047,-0.58,-2.4057,0.8272,0.3786,-0.1821,1436,2019-08-07 17:02:49:787
-0.5884,10.89,3.1862,-1.0047,-0.58,-2.4057,1.003,0.5608,-0.1896,1442,2019-08-07 17:02:49:793
-0.5884,10.89,3.1862,-1.0047,-0.58,-2.4057,1.003,0.5608,-0.1896,1446,2019-08-07 17:02:49:797
-0.8707,11.6825,3.191,-0.6901,-1.7535,-4.0341,1.1553,0.5736,-0.1992,1452,2019-08-07 17:02:49:803
-0.8707,11.6825,3.191,-0.6901,-1.7535,-4.0341,1.1553,0.5736,-0.1992,1456,2019-08-07 17:02:49:807
-0.8707,11.6825,3.191,-0.6901,-1.7535,-4.0341,1.3258,0.5278,-0.2024,1462,2019-08-07 17:02:49:813
-1.0572,12.8998,2.498,-0.6901,-1.7535,-4.0341,1.3258,0.5278,-0.2024,1466,2019-08-07 17:02:49:817
-1.0572,12.8998,2.498,-0.0952,-4.3066,-3.1635,1.5356,0.63,-0.2375,1472,2019-08-07 17:02:49:823
-1.7462,14.7282,2.8987,-0.0952,-4.3066,-3.1635,1.5356,0.63,-0.2375,1477,2019-08-07 17:02:49:828
-1.7462,14.7282,2.8987,-0.0952,-4.3066,-3.1635,1.705,0.7238,-0.2035,1482,2019-08-07 17:02:49:833
-1.7462,14.7282,2.8987,-0.0952,-4.3066,-3.1635,1.705,0.7238,-0.2035,1486,2019-08-07 17:02:49:837
-2.947,17.0244,6.2502,1.3896,-7.4084,-7.4095,1.705,0.7238,-0.2035,1492,2019-08-07 17:02:49:843
-2.947,17.0244,6.2502,1.3896,-7.4084,-7.4095,1.9319,0.6854,-0.1065,1496,2019-08-07 17:02:49:847
-2.947,17.0244,6.2502,1.3896,-7.4084,-7.4095,1.9319,0.6854,-0.1065,1502,2019-08-07 17:02:49:853
-3.8847,19.4925,5.1001,1.3896,-7.4084,-7.4095,2.3346,0.3691,0.0149,1507,2019-08-07 17:02:49:858
-3.8847,19.4925,5.1001,3.3344,-12.4677,-6.8145,2.3346,0.3691,0.0149,1512,2019-08-07 17:02:49:863
-5.674,23.9512,6.4765,3.3344,-12.4677,-6.8145,2.6126,0.287,0.0767,1517,2019-08-07 17:02:49:868
-5.674,23.9512,6.4765,3.3344,-12.4677,-6.8145,2.6126,0.287,0.0767,1522,2019-08-07 17:02:49:873
-5.674,23.9512,6.4765,3.3344,-12.4677,-6.8145,2.6126,0.287,0.0767,1526,2019-08-07 17:02:49:877
-5.9037,26.2713,9.9741,3.6264,-16.4422,-13.1375,2.864,0.1422,0.229,1531,2019-08-07 17:02:49:882
-5.9037,26.2713,9.9741,3.6264,-16.4422,-13.1375,2.864,0.1422,0.229,1536,2019-08-07 17:02:49:887
-5.9037,26.2713,9.9741,3.6264,-16.4422,-13.1375,3.0089,-0.5449,0.2184,1542,2019-08-07 17:02:49:893
-3.0188,24.1899,8.9842,1.5093,-14.776,-11.2942,3.0089,-0.5449,0.2184,1547,2019-08-07 17:02:49:898
-3.0188,24.1899,8.9842,1.5093,-14.776,-11.2942,2.783,-0.8464,0.0213,1551,2019-08-07 17:02:49:902
-3.0188,24.1899,8.9842,1.5093,-14.776,-11.2942,2.783,-0.8464,0.0213,1557,2019-08-07 17:02:49:908
-1.0285,24.7246,4.228,-0.4083,-15.9234,-7.9067,2.5615,-0.7196,-0.0149,1562,2019-08-07 17:02:49:913
-1.0285,24.7246,4.228,-0.4083,-15.9234,-7.9067,2.5615,-0.7196,-0.0149,1566,2019-08-07 17:02:49:917
-1.6361,24.3188,7.8199,-0.4083,-15.9234,-7.9067,2.5125,-0.8315,0.2695,1572,2019-08-07 17:02:49:923
-1.6361,24.3188,7.8199,-0.4083,-15.9234,-7.9067,2.5125,-0.8315,0.2695,1577,2019-08-07 17:02:49:928
-1.6361,24.3188,7.8199,-0.0867,-8.2631,1.4199,2.1173,-2.2632,0.4133,1582,2019-08-07 17:02:49:933
-1.129,16.6998,-8.5558,-0.0867,-8.2631,1.4199,2.1173,-2.2632,0.4133,1586,2019-08-07 17:02:49:937
-1.129,16.6998,-8.5558,-0.0867,-8.2631,1.4199,2.1173,-2.2632,0.4133,1592,2019-08-07 17:02:49:943
-2.0906,19.6977,-15.9471,-0.0867,-8.2631,1.4199,1.8946,-2.0225,0.1715,1597,2019-08-07 17:02:49:948
-2.0906,19.6977,-15.9471,-0.2061,-13.216,13.0311,1.8946,-2.0225,0.1715,1601,2019-08-07 17:02:49:952
-2.0906,19.6977,-15.9471,-0.2061,-13.216,13.0311,2.1641,-0.4619,0.1779,1607,2019-08-07 17:02:49:958
-2.0858,23.8175,-17.4649,-0.2061,-13.216,13.0311,2.1641,-0.4619,0.1779,1611,2019-08-07 17:02:49:962
-2.0858,23.8175,-17.4649,-0.2061,-13.216,13.0311,1.9095,-0.2254,0.5614,1617,2019-08-07 17:02:49:968
-2.0858,23.8175,-17.4649,2.8354,-13.769,13.196,1.9095,-0.2254,0.5614,1622,2019-08-07 17:02:49:973
-4.1191,22.2231,-16.2582,2.8354,-13.769,13.196,0.4949,-1.117,0.8288,1627,2019-08-07 17:02:49:978
-4.1191,22.2231,-16.2582,2.8354,-13.769,13.196,0.4949,-1.117,0.8288,1632,2019-08-07 17:02:49:983
-4.1191,22.2231,-16.2582,2.8354,-13.769,13.196,0.4949,-1.117,0.8288,1636,2019-08-07 17:02:49:987
-3.344,14.9573,-5.143,2.8354,-13.769,13.196,-0.0218,-0.8177,0.8501,1642,2019-08-07 17:02:49:993
-3.344,14.9573,-5.143,2.3245,-6.1638,-8.783,-0.0218,-0.8177,0.8501,1647,2019-08-07 17:02:49:998
-3.344,14.9573,-5.143,2.3245,-6.1638,-8.783,-0.2466,-0.4395,0.6093,1652,2019-08-07 17:02:50:003
-2.5212,13.9453,-7.9949,2.3245,-6.1638,-8.783,-0.2466,-0.4395,0.6093,1657,2019-08-07 17:02:50:008
-2.5212,13.9453,-7.9949,2.3245,-6.1638,-8.783,0.4001,0.1698,0.5614,1662,2019-08-07 17:02:50:013
-0.9423,12.7518,-8.9754,-0.274,-4.0822,4.3915,0.4001,0.1698,0.5614,1666,2019-08-07 17:02:50:017
-0.9423,12.7518,-8.9754,-0.274,-4.0822,4.3915,0.4001,0.1698,0.5614,1672,2019-08-07 17:02:50:023
-0.9423,12.7518,-8.9754,-0.274,-4.0822,4.3915,1.1319,0.0122,0.6413,1677,2019-08-07 17:02:50:028
-2.0762,11.291,-13.576,-0.274,-4.0822,4.3915,1.1319,0.0122,0.6413,1681,2019-08-07 17:02:50:032
-2.0762,11.291,-13.576,1.621,-2.0997,12.0752,0.9167,-0.2136,0.5241,1687,2019-08-07 17:02:50:038
-4.009,11.3245,-17.9457,1.621,-2.0997,12.0752,0.9167,-0.2136,0.5241,1691,2019-08-07 17:02:50:042
-4.009,11.3245,-17.9457,2.769,-1.9862,14.2285,-0.6013,-1.0115,0.3846,1697,2019-08-07 17:02:50:048
-4.009,11.3245,-17.9457,2.769,-1.9862,14.2285,-0.6013,-1.0115,0.3846,1702,2019-08-07 17:02:50:053
-3.765,8.3074,-16.9558,2.769,-1.9862,14.2285,-1.266,0.0633,0.4922,1707,2019-08-07 17:02:50:058
-3.765,8.3074,-16.9558,2.769,-1.9862,14.2285,-1.266,0.0633,0.4922,1712,2019-08-07 17:02:50:063
-2.5977,5.7725,-9.3053,1.6324,2.6701,7.4043,-1.2745,1.2351,0.4219,1717,2019-08-07 17:02:50:068
-2.5977,5.7725,-9.3053,1.6324,2.6701,7.4043,-1.2745,1.2351,0.4219,1721,2019-08-07 17:02:50:072
-2.5977,5.7725,-9.3053,1.6324,2.6701,7.4043,-1.0444,1.1659,0.2131,1727,2019-08-07 17:02:50:078
-1.9901,4.3547,-9.8144,1.6324,2.6701,7.4043,-1.0444,1.1659,0.2131,1732,2019-08-07 17:02:50:083
-1.9901,4.3547,-9.8144,1.3732,4.6737,6.8401,-1.0444,1.1659,0.2131,1736,2019-08-07 17:02:50:087
-1.9901,4.3547,-9.8144,1.3732,4.6737,6.8401,-0.6929,1.6506,0.0277,1742,2019-08-07 17:02:50:093
-2.2149,3.9298,-11.4313,1.1808,5.2824,7.7156,-0.6929,1.6506,0.0277,1747,2019-08-07 17:02:50:098
-2.2149,3.9298,-11.4313,1.1808,5.2824,7.7156,-0.8197,1.2255,-0.0138,1751,2019-08-07 17:02:50:102
-2.4398,2.4547,-11.2946,1.1808,5.2824,7.7156,-0.8197,1.2255,-0.0138,1757,2019-08-07 17:02:50:108
-2.4398,2.4547,-11.2946,1.1808,5.2824,7.7156,-1.3608,0.2742,-0.1118,1761,2019-08-07 17:02:50:112
-2.4398,2.4547,-11.2946,1.7262,7.8979,6.6234,-1.3608,0.2742,-0.1118,1766,2019-08-07 17:02:50:117
-2.3202,0.168,-5.1572,1.7262,7.8979,6.6234,-1.7134,-0.4757,-0.262,1772,2019-08-07 17:02:50:123
-2.3202,0.168,-5.1572,1.5612,9.4899,-0.3623,-1.7134,-0.4757,-0.262,1776,2019-08-07 17:02:50:127
-2.8225,-2.0709,-6.8447,1.5612,9.4899,-0.3623,-1.1393,0.8463,-0.311,1782,2019-08-07 17:02:50:133
-2.8225,-2.0709,-6.8447,1.5612,9.4899,-0.3623,-1.1393,0.8463,-0.311,1787,2019-08-07 17:02:50:138
-2.8225,-2.0709,-6.8447,1.5612,9.4899,-0.3623,-1.1393,0.8463,-0.311,1792,2019-08-07 17:02:50:143
-1.5738,-2.1855,-1.3154,0.4039,11.6429,-0.5874,-1.1105,1.054,-0.359,1797,2019-08-07 17:02:50:148
-1.5738,-2.1855,-1.3154,0.4039,11.6429,-0.5874,-1.1105,1.054,-0.359,1802,2019-08-07 17:02:50:153
-1.5738,-2.1855,-1.3154,0.4039,11.6429,-0.5874,-1.4791,0.287,-0.4538,1807,2019-08-07 17:02:50:158
-1.4781,-4.9591,-6.3168,0.4039,11.6429,-0.5874,-1.4791,0.287,-0.4538,1811,2019-08-07 17:02:50:162
-1.4781,-4.9591,-6.3168,-1.0703,15.1521,-1.1118,-1.4375,0.7909,-0.5284,1817,2019-08-07 17:02:50:168
-1.4781,-4.9591,-6.3168,-1.0703,15.1521,-1.1118,-1.4375,0.7909,-0.5284,1821,2019-08-07 17:02:50:172
-0.5165,-7.0595,-3.0501,-0.6085,16.5901,-0.024,-1.3598,0.3765,-0.5752,1827,2019-08-07 17:02:50:178
-0.5165,-7.0595,-3.0501,-0.6085,16.5901,-0.024,-1.3598,0.3765,-0.5752,1831,2019-08-07 17:02:50:182
-0.1337,-8.4774,-1.4663,-0.6085,16.5901,-0.024,-1.2362,0.3989,-0.5262,1837,2019-08-07 17:02:50:188
-0.1337,-8.4774,-1.4663,-0.6085,16.5901,-0.024,-1.2362,0.3989,-0.5262,1841,2019-08-07 17:02:50:192
0.2251,-9.2268,-1.4333,-1.5034,18.5119,-1.4632,-1.2266,0.3946,-0.5241,1847,2019-08-07 17:02:50:198
0.2251,-9.2268,-1.4333,-1.5034,18.5119,-1.4632,-1.2266,0.3946,-0.5241,1852,2019-08-07 17:02:50:203
0.2251,-9.2268,-1.4333,-1.5034,18.5119,-1.4632,-1.2266,0.3946,-0.5241,1857,2019-08-07 17:02:50:208
-0.0859,-9.6613,0.4617,-1.5034,18.5119,-1.4632,-1.119,0.3179,-0.539,1861,2019-08-07 17:02:50:212
-0.0859,-9.6613,0.4617,-1.001,19.1098,-3.7531,-1.119,0.3179,-0.539,1867,2019-08-07 17:02:50:218
-0.0859,-9.6613,0.4617,-1.001,19.1098,-3.7531,-0.8974,0.1826,-0.474,1872,2019-08-07 17:02:50:223
-0.4447,-9.9477,1.461,-1.001,19.1098,-3.7531,-0.8974,0.1826,-0.474,1877,2019-08-07 17:02:50:228
-0.4447,-9.9477,1.461,-1.001,19.1098,-3.7531,-0.7025,0.0655,-0.3984,1882,2019-08-07 17:02:50:233
-0.3107,-10.2198,2.0267,-1.1494,19.5759,-4.5894,-0.7025,0.0655,-0.3984,1886,2019-08-07 17:02:50:237
-0.3107,-10.2198,2.0267,-1.1494,19.5759,-4.5894,-0.7025,0.0655,-0.3984,1892,2019-08-07 17:02:50:243
-0.522,-10.1481,2.8137,-0.9776,19.5111,-5.3282,-0.4841,-0.0357,-0.3228,1897,2019-08-07 17:02:50:248
-0.522,-10.1481,2.8137,-0.9776,19.5111,-5.3282,-0.4841,-0.0357,-0.3228,1901,2019-08-07 17:02:50:252
-0.522,-10.1481,2.8137,-0.9776,19.5111,-5.3282,-0.1028,-0.1178,-0.1576,1907,2019-08-07 17:02:50:258
-0.7229,-10.1004,3.1908,-0.9776,19.5111,-5.3282,-0.1028,-0.1178,-0.1576,1912,2019-08-07 17:02:50:263
-0.7229,-10.1004,3.1908,-0.7813,19.2053,-5.5582,0.1455,-0.1508,-0.0873,1916,2019-08-07 17:02:50:267
-0.7229,-10.1004,3.1908,-0.7813,19.2053,-5.5582,0.1455,-0.1508,-0.0873,1922,2019-08-07 17:02:50:273
-0.9286,-9.4321,2.9457,-0.7813,19.2053,-5.5582,0.1455,-0.1508,-0.0873,1926,2019-08-07 17:02:50:277
-0.9286,-9.4321,2.9457,-0.7813,19.2053,-5.5582,0.4278,-0.1828,-0.0032,1932,2019-08-07 17:02:50:283
-0.8138,-8.7924,2.5073,-0.7742,18.1321,-5.0535,0.4278,-0.1828,-0.0032,1936,2019-08-07 17:02:50:287
-0.8138,-8.7924,2.5073,-0.7742,18.1321,-5.0535,0.8091,-0.2552,0.1278,1942,2019-08-07 17:02:50:293
-0.8138,-8.7924,2.5073,-0.7742,18.1321,-5.0535,0.8091,-0.2552,0.1278,1946,2019-08-07 17:02:50:297
-0.7086,-7.9522,1.5881,-0.7742,18.1321,-5.0535,1.0552,-0.2701,0.2077,1952,2019-08-07 17:02:50:303
-0.7086,-7.9522,1.5881,-0.9513,16.5545,-4.179,1.0552,-0.2701,0.2077,1957,2019-08-07 17:02:50:308
-0.632,-7.0595,1.4373,-0.9513,16.5545,-4.179,1.265,-0.284,0.2738,1962,2019-08-07 17:02:50:313
-0.632,-7.0595,1.4373,-0.9513,16.5545,-4.179,1.265,-0.284,0.2738,1967,2019-08-07 17:02:50:318
-0.632,-7.0595,1.4373,-0.9513,16.5545,-4.179,1.4909,-0.3702,0.3398,1971,2019-08-07 17:02:50:322
-0.632,-7.0595,1.4373,-0.9513,16.5545,-4.179,1.4909,-0.3702,0.3398,1977,2019-08-07 17:02:50:328
-0.9,-5.6369,0.9942,-0.6139,14.6408,-3.7651,1.4909,-0.3702,0.3398,1981,2019-08-07 17:02:50:332
-0.9,-5.6369,0.9942,-0.6139,14.6408,-3.7651,1.6187,-0.4693,0.3888,1987,2019-08-07 17:02:50:338
-0.9,-5.6369,0.9942,-0.6139,14.6408,-3.7651,1.6187,-0.4693,0.3888,1992,2019-08-07 17:02:50:343
-0.8904,-4.5914,-0.3681,-0.6139,14.6408,-3.7651,1.7327,-0.5641,0.424,1997,2019-08-07 17:02:50:348
-0.8904,-4.5914,-0.3681,-0.6642,13.3895,-2.5875,1.7327,-0.5641,0.424,2002,2019-08-07 17:02:50:353
-0.8904,-4.5914,-0.3681,-0.6642,13.3895,-2.5875,1.8435,-0.6845,0.4538,2007,2019-08-07 17:02:50:358
-1.0435,-3.5555,-1.5748,-0.5061,12.5982,-1.8984,1.8435,-0.6845,0.4538,2012,2019-08-07 17:02:50:363
-1.0435,-3.5555,-1.5748,-0.5061,12.5982,-1.8984,1.8488,-0.7335,0.4634,2016,2019-08-07 17:02:50:367
-0.6512,-2.5673,-2.5364,-0.5061,12.5982,-1.8984,1.8488,-0.7335,0.4634,2022,2019-08-07 17:02:50:373
-0.6512,-2.5673,-2.5364,-0.5061,12.5982,-1.8984,1.8158,-0.7697,0.4432,2026,2019-08-07 17:02:50:377
-0.6512,-2.5673,-2.5364,-0.9866,11.1297,-0.8055,1.8158,-0.7697,0.4432,2032,2019-08-07 17:02:50:383
-0.3546,-1.6459,-3.7762,-0.9866,11.1297,-0.8055,1.8158,-0.7697,0.4432,2036,2019-08-07 17:02:50:387
-0.3546,-1.6459,-3.7762,-0.9866,11.1297,-0.8055,1.7125,-0.7218,0.4112,2042,2019-08-07 17:02:50:393
-0.3546,-1.6459,-3.7762,-0.9866,11.1297,-0.8055,1.7125,-0.7218,0.4112,2046,2019-08-07 17:02:50:397
-0.1489,-0.7151,-4.6954,-1.3801,9.4468,0.4935,1.5484,-0.6227,0.3995,2052,2019-08-07 17:02:50:403
-0.1489,-0.7151,-4.6954,-1.3801,9.4468,0.4935,1.5484,-0.6227,0.3995,2057,2019-08-07 17:02:50:408
-0.3785,0.2063,-4.9264,-1.1389,8.4515,0.5702,1.3524,-0.4565,0.3803,2062,2019-08-07 17:02:50:413
-0.3785,0.2063,-4.9264,-1.1389,8.4515,0.5702,1.3524,-0.4565,0.3803,2066,2019-08-07 17:02:50:417
-0.3785,0.2063,-4.9264,-1.1389,8.4515,0.5702,1.3524,-0.4565,0.3803,2072,2019-08-07 17:02:50:423
-1.144,1.6528,-5.6806,-1.1389,8.4515,0.5702,0.9849,-0.2328,0.3079,2076,2019-08-07 17:02:50:427
-1.144,1.6528,-5.6806,-0.1687,6.5398,1.2231,0.9849,-0.2328,0.3079,2082,2019-08-07 17:02:50:433
-1.7372,2.7937,-6.2179,-0.1687,6.5398,1.2231,0.7154,-0.1753,0.2131,2087,2019-08-07 17:02:50:438
-1.7372,2.7937,-6.2179,-0.1687,6.5398,1.2231,0.7154,-0.1753,0.2131,2092,2019-08-07 17:02:50:443
-1.7372,2.7937,-6.2179,-0.1687,6.5398,1.2231,0.5258,-0.2073,0.1641,2097,2019-08-07 17:02:50:448
-2.4549,4.2831,-7.3917,0.9694,4.1773,2.6534,0.5258,-0.2073,0.1641,2101,2019-08-07 17:02:50:452
-2.4549,4.2831,-7.3917,0.9694,4.1773,2.6534,0.219,-0.3756,0.1236,2108,2019-08-07 17:02:50:459
-2.8281,6.0781,-7.0287,1.3307,2.364,2.2616,0.219,-0.3756,0.1236,2112,2019-08-07 17:02:50:463
-2.8281,6.0781,-7.0287,1.3307,2.364,2.2616,-0.0165,-0.595,0.0725,2116,2019-08-07 17:02:50:467
-2.8281,6.0781,-7.0287,1.3307,2.364,2.2616,-0.0165,-0.595,0.0725,2122,2019-08-07 17:02:50:473
-2.8281,6.0781,-7.0287,1.3307,2.364,2.2616,-0.0165,-0.595,0.0725,2126,2019-08-07 17:02:50:477
-3.0386,8.4029,-8.2166,1.3676,-0.8051,3.542,-0.2796,-0.676,-0.0341,2132,2019-08-07 17:02:50:483
-3.0386,8.4029,-8.2166,1.3676,-0.8051,3.542,-0.2796,-0.676,-0.0341,2136,2019-08-07 17:02:50:487
-3.0386,8.4029,-8.2166,1.3676,-0.8051,3.542,-0.6034,-0.6003,-0.1662,2142,2019-08-07 17:02:50:493
-2.785,11.3627,-8.6173,1.3676,-0.8051,3.542,-0.6034,-0.6003,-0.1662,2146,2019-08-07 17:02:50:497
-2.785,11.3627,-8.6173,1.1268,-3.86,4.5976,-0.793,-0.4597,-0.2716,2152,2019-08-07 17:02:50:503
-2.785,11.3627,-8.6173,1.1268,-3.86,4.5976,-0.793,-0.4597,-0.2716,2156,2019-08-07 17:02:50:507
-3.1917,13.4966,-10.0408,1.1268,-3.86,4.5976,-1.0114,-0.2754,-0.36,2162,2019-08-07 17:02:50:513
-3.1917,13.4966,-10.0408,1.1268,-3.86,4.5976,-1.0114,-0.2754,-0.36,2167,2019-08-07 17:02:50:518
-3.1917,13.4966,-10.0408,1.9362,-7.4252,6.0606,-1.6421,0.1656,-0.4549,2172,2019-08-07 17:02:50:523
-3.6175,16.7619,-10.2954,1.9362,-7.4252,6.0606,-1.6421,0.1656,-0.4549,2177,2019-08-07 17:02:50:528
-3.6175,16.7619,-10.2954,1.7135,-9.0494,5.481,-1.9446,0.3808,-0.5071,2182,2019-08-07 17:02:50:533
-3.6175,16.7619,-10.2954,1.7135,-9.0494,5.481,-1.9446,0.3808,-0.5071,2186,2019-08-07 17:02:50:537
-3.7275,19.44,-7.8348,1.7135,-9.0494,5.481,-1.9446,0.3808,-0.5071,2192,2019-08-07 17:02:50:543
-3.7275,19.44,-7.8348,1.7135,-9.0494,5.481,-2.2354,0.6151,-0.5731,2197,2019-08-07 17:02:50:548
-3.7275,19.44,-7.8348,2.0827,-12.0068,1.4629,-2.2354,0.6151,-0.5731,2202,2019-08-07 17:02:50:553
-3.6749,20.8722,-4.2947,2.0827,-12.0068,1.4629,-2.3622,0.695,-0.6338,2207,2019-08-07 17:02:50:558
-3.6749,20.8722,-4.2947,2.0827,-12.0068,1.4629,-2.3622,0.695,-0.6338,2212,2019-08-07 17:02:50:563
-2.3927,21.0536,-3.9035,2.0827,-12.0068,1.4629,-2.1353,0.4756,-0.6594,2217,2019-08-07 17:02:50:568
-2.3927,21.0536,-3.9035,0.1937,-12.0283,1.9158,-2.1353,0.4756,-0.6594,2222,2019-08-07 17:02:50:573
-2.3927,20.9533,-6.3924,0.1937,-12.0283,1.9158,-2.016,0.8282,-0.6818,2227,2019-08-07 17:02:50:578
-1.4789,20.9533,-6.3924,0.1937,-12.0283,1.9158,-2.016,0.8282,-0.6818,2232,2019-08-07 17:02:50:583
-1.4789,20.9533,-6.3924,0.1937,-12.0283,1.9158,-2.016,0.8282,-0.6818,2236,2019-08-07 17:02:50:587
-1.4789,20.9533,-6.3924,0.1937,-12.0283,1.9158,-2.0692,1.4695,-0.7009,2242,2019-08-07 17:02:50:593
-0.3786,20.8197,-8.523,-1.5492,-11.7506,5.3181,-2.0692,1.4695,-0.7009,2246,2019-08-07 17:02:50:597
-0.3786,20.8197,-8.523,-1.5492,-11.7506,5.3181,-2.1864,2.1672,-0.7095,2252,2019-08-07 17:02:50:603
-0.8857,20.5714,-7.09,-1.5492,-11.7506,5.3181,-2.1864,2.1672,-0.7095,2257,2019-08-07 17:02:50:608
-0.8857,20.5714,-7.09,-0.7768,-11.1122,3.3222,-2.4176,2.7499,-0.5848,2262,2019-08-07 17:02:50:613
-0.8857,20.5714,-7.09,-0.7768,-11.1122,3.3222,-2.4176,2.7499,-0.5848,2266,2019-08-07 17:02:50:617
-0.7996,19.0486,-4.191,-0.7768,-11.1122,3.3222,-2.4176,2.7499,-0.5848,2272,2019-08-07 17:02:50:623
-0.7996,19.0486,-4.191,-0.7768,-11.1122,3.3222,-2.2269,3.1515,-0.3686,2276,2019-08-07 17:02:50:627
-0.6896,18.9149,-6.053,-0.5874,-11.1079,3.5257,-2.2269,3.1515,-0.3686,2282,2019-08-07 17:02:50:633
-0.6896,18.9149,-6.053,-0.5874,-11.1079,3.5257,-1.4652,2.963,-0.1065,2287,2019-08-07 17:02:50:638
-0.6896,18.9149,-6.053,-0.5874,-11.1079,3.5257,-1.4652,2.963,-0.1065,2292,2019-08-07 17:02:50:643
-6.134,24.6435,-4.3183,4.4006,-15.3105,1.8433,-1.608,1.8988,0.0128,2296,2019-08-07 17:02:50:647
-6.134,24.6435,-4.3183,4.4006,-15.3105,1.8433,-1.608,1.8988,0.0128,2302,2019-08-07 17:02:50:653
-7.1196,18.8099,0.9942,4.4006,-15.3105,1.8433,-1.4663,1.25,-0.1214,2306,2019-08-07 17:02:50:657
-7.1196,18.8099,0.9942,2.5913,-11.6556,-11.4683,-1.4663,1.25,-0.1214,2312,2019-08-07 17:02:50:663
-7.1196,18.8099,0.9942,2.5913,-11.6556,-11.4683,-1.6261,-0.497,0.2205,2317,2019-08-07 17:02:50:668
-2.2827,26.6724,30.7807,2.5913,-11.6556,-11.4683,-1.6261,-0.497,0.2205,2321,2019-08-07 17:02:50:672
-2.2827,26.6724,30.7807,2.5913,-11.6556,-11.4683,-1.7688,-3.9612,0.8693,2327,2019-08-07 17:02:50:678
-2.2827,26.6724,30.7807,2.5913,-11.6556,-11.4683,-1.7688,-3.9612,0.8693,2331,2019-08-07 17:02:50:682
3.3818,18.2179,1.31,-5.0686,-8.699,-2.9774,-2.1843,-2.1929,0.9896,2337,2019-08-07 17:02:50:688
3.3818,18.2179,1.31,-5.0686,-8.699,-2.9774,-2.1843,-2.1929,0.9896,2341,2019-08-07 17:02:50:692
4.2143,19.1154,8.3901,-5.0686,-8.699,-2.9774,-1.5835,-1.3215,0.9843,2347,2019-08-07 17:02:50:698
4.2143,19.1154,8.3901,-5.0686,-8.699,-2.9774,-1.5835,-1.3215,0.9843,2352,2019-08-07 17:02:50:703
4.2143,19.1154,8.3901,-3.0983,-8.5172,-0.1746,-1.5835,-1.3215,0.9843,2357,2019-08-07 17:02:50:708
0.7218,16.6044,-5.0536,-3.0983,-8.5172,-0.1746,-1.233,-0.7335,0.9076,2362,2019-08-07 17:02:50:713
0.7218,16.6044,-5.0536,-3.0983,-8.5172,-0.1746,-1.233,-0.7335,0.9076,2367,2019-08-07 17:02:50:718
0.7218,16.6044,-5.0536,-3.0983,-8.5172,-0.1746,-1.233,-0.7335,0.9076,2371,2019-08-07 17:02:50:722
-5.737,12.0788,8.7437,4.3488,-2.4154,-9.7072,-1.0721,0.7888,0.4698,2377,2019-08-07 17:02:50:728
-5.737,12.0788,8.7437,4.3488,-2.4154,-9.7072,-1.0721,0.7888,0.4698,2382,2019-08-07 17:02:50:733
-2.7229,10.069,6.1464,4.3488,-2.4154,-9.7072,-0.7579,-0.008,0.4261,2387,2019-08-07 17:02:50:738
-2.7229,10.069,6.1464,4.3488,-2.4154,-9.7072,-0.7579,-0.008,0.4261,2392,2019-08-07 17:02:50:743
-2.7229,10.069,6.1464,1.5494,-0.55,-5.8008,-0.4074,-0.693,0.2972,2397,2019-08-07 17:02:50:748
-2.4598,10.9856,-0.2927,1.5494,-0.55,-5.8008,-0.4074,-0.693,0.2972,2402,2019-08-07 17:02:50:753
-2.4598,10.9856,-0.2927,1.5494,-0.55,-5.8008,-0.3904,-0.072,0.2408,2407,2019-08-07 17:02:50:758
-2.4598,10.9856,-0.2927,1.5494,-0.55,-5.8008,-0.3904,-0.072,0.2408,2412,2019-08-07 17:02:50:763
-0.5222,11.3341,-1.1459,-0.7498,-1.6316,0.4525,-0.45,1.0135,0.1587,2416,2019-08-07 17:02:50:767
-0.5222,11.3341,-1.1459,-0.7498,-1.6316,0.4525,-0.45,1.0135,0.1587,2422,2019-08-07 17:02:50:773
-0.8427,9.8542,2.1585,-0.7498,-1.6316,0.4525,-0.4564,1.4226,0.1491,2426,2019-08-07 17:02:50:777
-0.8427,9.8542,2.1585,-0.7498,-1.6316,0.4525,-0.4564,1.4226,0.1491,2432,2019-08-07 17:02:50:783
-0.8427,9.8542,2.1585,0.6695,0.17,-4.3204,-0.2892,0.8207,0.2472,2436,2019-08-07 17:02:50:787
-2.2684,9.4962,3.9969,0.6695,0.17,-4.3204,-0.2892,0.8207,0.2472,2442,2019-08-07 17:02:50:793
-2.2684,9.4962,3.9969,0.6695,0.17,-4.3204,-0.1166,0.172,0.3654,2446,2019-08-07 17:02:50:797
-1.5173,9.7635,2.5262,0.6695,0.17,-4.3204,-0.1166,0.172,0.3654,2452,2019-08-07 17:02:50:803
-1.5173,9.7635,2.5262,-0.044,-0.1103,-2.5778,0.1156,-0.5428,0.4208,2457,2019-08-07 17:02:50:808
-1.5173,9.7635,2.5262,-0.044,-0.1103,-2.5778,0.1156,-0.5428,0.4208,2462,2019-08-07 17:02:50:813
-0.2782,10.0547,0.8056,-0.044,-0.1103,-2.5778,0.2009,-0.5822,0.3824,2467,2019-08-07 17:02:50:818
-0.2782,10.0547,0.8056,-0.044,-0.1103,-2.5778,0.2009,-0.5822,0.3824,2472,2019-08-07 17:02:50:823
0.9131,9.9306,-0.5048,-1.9906,-0.198,-0.0882,0.2094,-0.2083,0.2983,2476,2019-08-07 17:02:50:827
0.9131,9.9306,-0.5048,-1.9906,-0.198,-0.0882,0.2094,-0.2083,0.2983,2481,2019-08-07 17:02:50:832
0.9131,9.9306,-0.5048,-1.9906,-0.198,-0.0882,0.1604,0.2274,0.2077,2487,2019-08-07 17:02:50:838
0.65,10.4939,-0.4577,-1.9906,-0.198,-0.0882,0.1604,0.2274,0.2077,2491,2019-08-07 17:02:50:842
0.65,10.4939,-0.4577,-1.1005,-0.8427,-0.0954,0.1604,0.2274,0.2077,2497,2019-08-07 17:02:50:848
-0.7518,10.3029,-0.4718,-1.1005,-0.8427,-0.0954,0.1167,0.5043,0.1641,2502,2019-08-07 17:02:50:853
-0.7518,10.3029,-0.4718,-1.1005,-0.8427,-0.0954,0.1167,0.5043,0.1641,2507,2019-08-07 17:02:50:858
-0.7518,10.3029,-0.4718,-1.1005,-0.8427,-0.0954,0.0847,0.6045,0.1598,2512,2019-08-07 17:02:50:863
-1.613,9.9783,0.3012,0.7616,-0.2151,-1.2014,0.0847,0.6045,0.1598,2517,2019-08-07 17:02:50:868
-1.613,9.9783,0.3012,0.7616,-0.2151,-1.2014,0.1316,0.2252,0.212,2522,2019-08-07 17:02:50:873
-1.7517,9.7253,1.343,0.7943,0.0154,-2.0055,0.1316,0.2252,0.212,2527,2019-08-07 17:02:50:878
-1.7517,9.7253,1.343,0.7943,0.0154,-2.0055,0.2232,-0.1391,0.2333,2532,2019-08-07 17:02:50:883
-1.7517,9.7253,1.343,0.7943,0.0154,-2.0055,0.2232,-0.1391,0.2333,2537,2019-08-07 17:02:50:888
-0.7136,10.0117,-0.3681,0.7943,0.0154,-2.0055,0.2232,-0.1391,0.2333,2541,2019-08-07 17:02:50:892
-0.7136,10.0117,-0.3681,-0.6365,-0.7036,0.4566,0.219,-0.2957,0.2258,2547,2019-08-07 17:02:50:898
-0.7136,10.0117,-0.3681,-0.6365,-0.7036,0.4566,0.219,-0.2957,0.2258,2551,2019-08-07 17:02:50:902
0.0232,10.7135,-1.688,-0.6365,-0.7036,0.4566,0.1231,-0.0315,0.147,2557,2019-08-07 17:02:50:908
0.0232,10.7135,-1.688,-0.6365,-0.7036,0.4566,0.1231,-0.0315,0.147,2562,2019-08-07 17:02:50:913
0.1715,10.6132,-1.0234,-1.0528,-0.8216,0.0218,0.0485,0.2306,0.1097,2567,2019-08-07 17:02:50:918
0.1715,10.6132,-1.0234,-1.0528,-0.8216,0.0218,0.0485,0.2306,0.1097,2572,2019-08-07 17:02:50:923
-0.2112,10.1884,0.0891,-0.6501,-0.4432,-0.8146,-0.0026,0.3669,0.0852,2577,2019-08-07 17:02:50:928
-0.2112,10.1884,0.0891,-0.6501,-0.4432,-0.8146,-0.0026,0.3669,0.0852,2582,2019-08-07 17:02:50:933
-0.2112,10.1884,0.0891,-0.6501,-0.4432,-0.8146,-0.0026,0.3669,0.0852,2586,2019-08-07 17:02:50:937
-0.2112,10.1884,0.0891,-0.6501,-0.4432,-0.8146,0.0389,0.2689,0.0799,2592,2019-08-07 17:02:50:943
-1.1633,9.5344,0.6453,0.2018,0.413,-1.4793,0.0389,0.2689,0.0799,2596,2019-08-07 17:02:50:947
-1.1633,9.5344,0.6453,0.2018,0.413,-1.4793,0.0837,0.1453,0.0842,2602,2019-08-07 17:02:50:953
-0.7136,9.5725,0.4945,0.2018,0.413,-1.4793,0.0837,0.1453,0.0842,2607,2019-08-07 17:02:50:958
-0.7136,9.5725,0.4945,0.2018,0.413,-1.4793,0.1263,-0.024,0.0799,2612,2019-08-07 17:02:50:963
-0.7136,9.5725,0.4945,-0.4831,-0.1306,-0.724,0.1263,-0.024,0.0799,2616,2019-08-07 17:02:50:967
-0.3069,9.8494,-0.2267,-0.4831,-0.1306,-0.724,0.1604,-0.0166,0.0874,2622,2019-08-07 17:02:50:973
-0.3069,9.8494,-0.2267,-0.4831,-0.1306,-0.724,0.1604,-0.0166,0.0874,2626,2019-08-07 17:02:50:977
-0.8141,9.8494,-0.9479,-0.4831,-0.1306,-0.724,0.1071,0.139,0.0895,2632,2019-08-07 17:02:50:983
-0.8141,9.8494,-0.9479,0.1731,-0.3698,-0.1624,0.1071,0.139,0.0895,2636,2019-08-07 17:02:50:987
-0.8141,9.8494,-0.9479,0.1731,-0.3698,-0.1624,0.1071,0.139,0.0895,2642,2019-08-07 17:02:50:993
-1.082,10.3841,0.0514,0.1731,-0.3698,-0.1624,0.056,0.2604,0.0831,2646,2019-08-07 17:02:50:997
-1.082,10.3841,0.0514,0.1731,-0.3698,-0.1624,0.056,0.2604,0.0831,2652,2019-08-07 17:02:51:003
-1.082,10.3841,0.0514,0.1731,-0.3698,-0.1624,0.1146,0.1187,0.097,2656,2019-08-07 17:02:51:007
-0.771,10.5703,0.8339,-0.0129,-0.8223,-1.6081,0.1146,0.1187,0.097,2662,2019-08-07 17:02:51:013
-0.771,10.5703,0.8339,-0.0129,-0.8223,-1.6081,0.1668,-0.0453,0.0916,2667,2019-08-07 17:02:51:018
-0.771,10.5703,0.8339,-0.0129,-0.8223,-1.6081,0.1668,-0.0453,0.0916,2672,2019-08-07 17:02:51:023
-0.2974,10.26,-1.1318,-0.0129,-0.8223,-1.6081,0.1582,-0.0901,0.0767,2676,2019-08-07 17:02:51:027
-0.2974,10.26,-1.1318,-0.5443,-0.4174,0.3662,0.1582,-0.0901,0.0767,2682,2019-08-07 17:02:51:033
-0.2974,10.26,-1.1318,-0.5443,-0.4174,0.3662,0.0762,0.075,0.0458,2687,2019-08-07 17:02:51:038
0.0566,9.9736,-0.7452,-0.5443,-0.4174,0.3662,0.0762,0.075,0.0458,2692,2019-08-07 17:02:51:043
0.0566,9.9736,-0.7452,-0.5443,-0.4174,0.3662,0.0762,0.075,0.0458,2697,2019-08-07 17:02:51:048
-0.0199,9.8542,-0.3917,-0.5443,-0.4174,0.3662,0.0762,0.075,0.0458,2702,2019-08-07 17:02:51:053
-0.0199,9.8542,-0.3917,-0.69,-0.031,-0.5807,0.0666,0.1113,0.0309,2706,2019-08-07 17:02:51:057
-0.0199,9.8542,-0.3917,-0.69,-0.031,-0.5807,0.0666,0.1113,0.0309,2712,2019-08-07 17:02:51:063
-0.2735,9.4437,-0.9621,-0.69,-0.031,-0.5807,0.0602,0.0697,-0.0266,2716,2019-08-07 17:02:51:067
-0.2735,9.4437,-0.9621,-0.4543,0.3694,0.3019,0.0602,0.0697,-0.0266,2722,2019-08-07 17:02:51:073
-0.5414,9.4102,-1.6126,-0.4543,0.3694,0.3019,0.0091,0.0687,-0.0554,2726,2019-08-07 17:02:51:077
-0.5414,9.4102,-1.6126,-0.4543,0.3694,0.3019,0.0091,0.0687,-0.0554,2732,2019-08-07 17:02:51:083
-0.5414,9.4102,-1.6126,0.0115,0.5353,1.0779,0.0091,0.0495,-0.0351,2737,2019-08-07 17:02:51:088
-0.728,9.2575,-1.787,0.0115,0.5353,1.0779,-0.1145,0.0495,-0.0351,2741,2019-08-07 17:02:51:092
-0.728,9.2575,-1.787,0.0115,0.5353,1.0779,-0.1145,0.0495,-0.0351,2747,2019-08-07 17:02:51:098
-0.728,9.2575,-1.787,0.0115,0.5353,1.0779,-0.1869,0.0047,-0.0437,2751,2019-08-07 17:02:51:102
-1.0294,9.9401,0.1504,0.0115,0.5353,1.0779,-0.1869,0.0047,-0.0437,2757,2019-08-07 17:02:51:108
-1.0294,9.9401,0.1504,-0.0923,-0.3218,-1.3167,-0.1848,-0.0656,0.0139,2762,2019-08-07 17:02:51:113
-1.0294,9.9401,0.1504,-0.0923,-0.3218,-1.3167,-0.1848,-0.0656,0.0139,2767,2019-08-07 17:02:51:118
-0.6993,10.7994,0.8056,-0.0923,-0.3218,-1.3167,-0.0612,-0.1764,-0.0149,2772,2019-08-07 17:02:51:123
-0.6993,10.7994,0.8056,-0.0923,-0.3218,-1.3167,-0.0612,-0.1764,-0.0149,2776,2019-08-07 17:02:51:127
-1.3595,10.4127,-1.3722,0.5785,-0.6775,0.5677,-0.1113,-0.0826,-0.0032,2782,2019-08-07 17:02:51:133
-1.3595,10.4127,-1.3722,0.5785,-0.6775,0.5677,-0.1113,-0.0826,-0.0032,2786,2019-08-07 17:02:51:137
-1.3595,10.4127,-1.3722,0.5785,-0.6775,0.5677,-0.1113,-0.0826,-0.0032,2792,2019-08-07 17:02:51:143
-1.039,10.1693,0.1504,0.5785,-0.6775,0.5677,-0.1528,0.107,0.0192,2797,2019-08-07 17:02:51:148
-1.039,10.1693,0.1504,0.1571,-0.489,-1.4944,-0.1528,0.107,0.0192,2801,2019-08-07 17:02:51:152
-0.9768,10.1359,0.8339,0.1571,-0.489,-1.4944,-0.0889,-0.1114,0.0416,2807,2019-08-07 17:02:51:158
-0.9768,10.1359,0.8339,0.1571,-0.489,-1.4944,-0.0889,-0.1114,0.0416,2811,2019-08-07 17:02:51:162
-0.9768,10.1359,0.8339,0.1571,-0.489,-1.4944,-0.0154,-0.2999,0.0597,2817,2019-08-07 17:02:51:168
-0.7998,9.8256,-0.3257,0.0433,-0.0714,-0.3949,-0.0154,-0.2999,0.0597,2821,2019-08-07 17:02:51:172
-0.7998,9.8256,-0.3257,0.0433,-0.0714,-0.3949,-0.0346,-0.334,0.0597,2827,2019-08-07 17:02:51:178
-0.417,9.6107,-0.3729,0.0433,-0.0714,-0.3949,-0.0346,-0.334,0.0597,2832,2019-08-07 17:02:51:183
-0.417,9.6107,-0.3729,0.0433,-0.0714,-0.3949,-0.0463,-0.2786,0.0565,2837,2019-08-07 17:02:51:188
-0.417,9.6107,-0.3729,-0.641,0.2264,-0.5502,-0.0463,-0.2786,0.0565,2841,2019-08-07 17:02:51:192
-0.13,9.4341,-0.4624,-0.641,0.2264,-0.5502,-0.0399,-0.2616,0.016,2847,2019-08-07 17:02:51:198
-0.13,9.4341,-0.4624,-0.641,0.2264,-0.5502,-0.0399,-0.2616,0.016,2851,2019-08-07 17:02:51:202
-0.13,9.4341,-0.4624,-0.641,0.2264,-0.5502,-0.0399,-0.2616,0.016,2857,2019-08-07 17:02:51:208
-0.2974,9.4771,-0.7735,-0.6613,0.2276,0.0333,-0.0601,-0.2104,-0.0032,2862,2019-08-07 17:02:51:213
-0.2974,9.4771,-0.7735,-0.6613,0.2276,0.0333,-0.0601,-0.2104,-0.0032,2866,2019-08-07 17:02:51:217
-0.2974,9.4771,-0.7735,-0.6613,0.2276,0.0333,-0.0996,-0.0997,-0.0724,2872,2019-08-07 17:02:51:223
-0.374,9.859,-0.9668,-0.6613,0.2276,0.0333,-0.0996,-0.0997,-0.0724,2877,2019-08-07 17:02:51:228
-0.374,9.859,-0.9668,-0.1902,-0.0486,0.1359,-0.1379,0.0069,-0.066,2882,2019-08-07 17:02:51:233
-0.374,9.859,-0.9668,-0.1902,-0.0486,0.1359,-0.1379,0.0069,-0.066,2887,2019-08-07 17:02:51:238
-0.374,9.859,-0.9668,-0.1902,-0.0486,0.1359,-0.1379,0.0069,-0.066,2892,2019-08-07 17:02:51:243
-0.5941,9.816,-0.0335,-0.1624,-0.0575,-0.6267,-0.1475,0.0314,-0.0746,2897,2019-08-07 17:02:51:248
-0.5941,9.816,-0.0335,-0.1624,-0.0575,-0.6267,-0.1475,0.0314,-0.0746,2901,2019-08-07 17:02:51:252
-1.0148,10.0022,0.4474,-0.1624,-0.0575,-0.6267,-0.1123,-0.0762,-0.0724,2907,2019-08-07 17:02:51:258
-1.0148,10.0022,0.4474,0.161,-0.2618,-1.0407,-0.1123,-0.0762,-0.0724,2912,2019-08-07 17:02:51:263
-1.0148,10.0022,0.4474,0.161,-0.2618,-1.0407,-0.0793,-0.1476,-0.0554,2916,2019-08-07 17:02:51:267
-0.7612,10.0069,0.2683,0.161,-0.2618,-1.0407,-0.0644,-0.1604,-0.0533,2922,2019-08-07 17:02:51:273
-0.7612,10.0069,0.2683,0.161,-0.2618,-1.0407,-0.0644,-0.1604,-0.0533,2926,2019-08-07 17:02:51:277
-0.4263,9.9497,0.0326,-0.3581,-0.1897,-0.6359,-0.0644,-0.1604,-0.0533,2932,2019-08-07 17:02:51:283
-0.4263,9.9497,0.0326,-0.3581,-0.1897,-0.6359,-0.0537,-0.1497,-0.0628,2936,2019-08-07 17:02:51:287
-0.4263,9.9497,0.0326,-0.3581,-0.1897,-0.6359,-0.0537,-0.1497,-0.0628,2942,2019-08-07 17:02:51:293
-0.388,10.0117,-0.1135,-0.4016,-0.2516,-0.4811,-0.0495,-0.1156,-0.0607,2947,2019-08-07 17:02:51:298
-0.388,10.0117,-0.1135,-0.4016,-0.2516,-0.4811,-0.0495,-0.1156,-0.0607,2952,2019-08-07 17:02:51:303
-0.5794,9.8064,-0.123,-0.4016,-0.2516,-0.4811,-0.0569,-0.0262,-0.0682,2956,2019-08-07 17:02:51:307
-0.5794,9.8064,-0.123,-0.1782,0.011,-0.753,-0.0569,-0.0262,-0.0682,2962,2019-08-07 17:02:51:313
-0.5794,9.8064,-0.123,-0.1782,0.011,-0.753,-0.0537,0.0143,-0.0714,2966,2019-08-07 17:02:51:317
-0.6846,9.6107,0.438,-0.1782,0.011,-0.753,-0.0537,0.0143,-0.0714,2972,2019-08-07 17:02:51:323
-0.6846,9.6107,0.438,-0.1782,0.011,-0.753,-0.0324,-0.0134,-0.0714,2977,2019-08-07 17:02:51:328
-0.8234,9.6537,0.1221,0.0094,0.1062,-0.686,-0.0324,-0.0134,-0.0714,2982,2019-08-07 17:02:51:333
-0.8234,9.6537,0.1221,0.0094,0.1062,-0.686,-0.0122,-0.0294,-0.0586,2986,2019-08-07 17:02:51:337
-0.8234,9.6537,0.1221,0.0094,0.1062,-0.686,-0.0122,-0.0294,-0.0586,2992,2019-08-07 17:02:51:343
-0.8042,9.7826,-0.2644,0.0094,0.1062,-0.686,-0.0197,5.0E-4,-0.0607,2997,2019-08-07 17:02:51:348
-0.8042,9.7826,-0.2644,-0.0123,-0.0663,-0.35,-0.0197,5.0E-4,-0.0607,3002,2019-08-07 17:02:51:353
-0.8042,9.7826,-0.2644,-0.0123,-0.0663,-0.35,-0.0197,5.0E-4,-0.0607,3007,2019-08-07 17:02:51:358
-0.8425,9.8828,-0.2314,-0.0123,-0.0663,-0.35,-0.0282,0.0228,-0.065,3012,2019-08-07 17:02:51:363
-0.8425,9.8828,-0.2314,-0.0123,-0.0663,-0.35,-0.0282,0.0228,-0.065,3017,2019-08-07 17:02:51:368
-0.8664,9.8542,-0.1748,0.0283,-0.0955,-0.3745,-0.0335,0.0058,-0.0575,3022,2019-08-07 17:02:51:373
-0.8664,9.8542,-0.1748,0.0283,-0.0955,-0.3745,-0.0335,0.0058,-0.0575,3027,2019-08-07 17:02:51:378
-0.8664,9.8542,-0.1748,0.0283,-0.0955,-0.3745,-0.0303,-0.0262,-0.0426,3032,2019-08-07 17:02:51:383
-0.9143,9.8542,-0.123,0.0283,-0.0955,-0.3745,-0.0303,-0.0262,-0.0426,3037,2019-08-07 17:02:51:388
-0.9143,9.8542,-0.123,0.0283,-0.0955,-0.3745,-0.0303,-0.0262,-0.0426,3041,2019-08-07 17:02:51:392
-0.9143,9.8542,-0.123,0.0427,-0.091,-0.3643,-0.0356,-0.0411,-0.0351,3047,2019-08-07 17:02:51:398
-0.9621,9.9258,-0.09,0.0427,-0.091,-0.3643,-0.0356,-0.0411,-0.0351,3051,2019-08-07 17:02:51:402
-0.9621,9.9258,-0.09,0.0427,-0.091,-0.3643,-0.0399,-0.0294,-0.0266,3057,2019-08-07 17:02:51:408
-1.0291,9.9544,-0.1041,0.1745,-0.196,-0.4237,-0.0399,-0.0294,-0.0266,3062,2019-08-07 17:02:51:413
-1.0291,9.9544,-0.1041,0.1745,-0.196,-0.4237,-0.041,-0.0475,-0.0192,3066,2019-08-07 17:02:51:417
-1.0291,9.9544,-0.1041,0.1745,-0.196,-0.4237,-0.041,-0.0475,-0.0192,3072,2019-08-07 17:02:51:423
-0.8664,9.816,0.1033,0.1745,-0.196,-0.4237,-0.0346,-0.0986,-0.0074,3076,2019-08-07 17:02:51:427
-0.8664,9.816,0.1033,0.1745,-0.196,-0.4237,-0.0346,-0.0986,-0.0074,3082,2019-08-07 17:02:51:433
-0.8664,9.816,0.1033,-0.4408,-0.2528,-0.5797,-0.0186,-0.1242,-0.0287,3087,2019-08-07 17:02:51:438
-0.7086,10.0499,-0.6698,-0.4408,-0.2528,-0.5797,-0.0186,-0.1242,-0.0287,3092,2019-08-07 17:02:51:443
-0.7086,10.0499,-0.6698,-0.4408,-0.2528,-0.5797,-0.0186,-0.1242,-0.0287,3096,2019-08-07 17:02:51:447
-0.7086,10.0499,-0.6698,-0.1274,-0.2958,0.1399,-0.0431,-0.0997,-0.0277,3102,2019-08-07 17:02:51:453
-0.565,9.921,-0.2455,-0.1274,-0.2958,0.1399,-0.0431,-0.0997,-0.0277,3107,2019-08-07 17:02:51:458
-0.565,9.921,-0.2455,-0.1274,-0.2958,0.1399,-0.074,0.0122,-0.0341,3112,2019-08-07 17:02:51:463
-0.565,9.921,-0.2455,-0.0977,-0.1713,-0.4768,-0.074,0.0122,-0.0341,3117,2019-08-07 17:02:51:468
-0.699,10.2218,-0.8772,-0.0977,-0.1713,-0.4768,-0.3563,-0.9465,-0.0458,3121,2019-08-07 17:02:51:472
-0.699,10.2218,-0.8772,-0.0977,-0.1713,-0.4768,-0.3563,-0.9465,-0.0458,3127,2019-08-07 17:02:51:478
-0.6224,9.3672,-2.1405,-0.0977,-0.1713,-0.4768,0.2381,-0.3308,-0.1172,3132,2019-08-07 17:02:51:483
-0.6224,9.3672,-2.1405,-0.0447,-0.6674,2.3936,0.2381,-0.3308,-0.1172,3137,2019-08-07 17:02:51:488
-0.6224,9.3672,-2.1405,-0.0447,-0.6674,2.3936,-0.1315,-0.4864,-0.0458,3141,2019-08-07 17:02:51:492
0.2913,9.7348,-1.9944,-1.1802,0.0241,1.5362,-0.1315,-0.4864,-0.0458,3147,2019-08-07 17:02:51:498
0.2913,9.7348,-1.9944,-1.1802,0.0241,1.5362,-0.1315,-0.4864,-0.0458,3151,2019-08-07 17:02:51:502
0.2913,9.7348,-1.9944,-1.1802,0.0241,1.5362,-0.1944,0.2615,-0.0746,3157,2019-08-07 17:02:51:508
-1.0339,10.112,0.8999,-1.1802,0.0241,1.5362,-0.1944,0.2615,-0.0746,3161,2019-08-07 17:02:51:512
-1.0339,10.112,0.8999,0.1217,0.0775,-1.941,-0.1379,0.1198,-0.0256,3167,2019-08-07 17:02:51:518
-1.0339,10.112,0.8999,0.1217,0.0775,-1.941,-0.1379,0.1198,-0.0256,3171,2019-08-07 17:02:51:522
-1.5602,10.0117,0.6595,0.6569,-0.2517,-1.0632,-0.0165,-0.0496,-0.0213,3177,2019-08-07 17:02:51:528
-1.5602,10.0117,0.6595,0.6569,-0.2517,-1.0632,-0.0165,-0.0496,-0.0213,3181,2019-08-07 17:02:51:532
-1.5602,10.0117,0.6595,0.6569,-0.2517,-1.0632,0.0016,0.0175,0.0053,3187,2019-08-07 17:02:51:538
-0.5507,9.9544,-0.2691,0.6569,-0.2517,-1.0632,0.0016,0.0175,0.0053,3191,2019-08-07 17:02:51:542
-0.5507,9.9544,-0.2691,-0.4086,-0.2038,-0.1849,-0.0069,0.189,0.0021,3197,2019-08-07 17:02:51:548
-0.3928,9.8303,-0.2361,-0.4086,-0.2038,-0.1849,-0.0069,0.189,0.0021,3202,2019-08-07 17:02:51:553
-0.3928,9.8303,-0.2361,-0.4086,-0.2038,-0.1849,-0.0069,0.189,0.0021,3206,2019-08-07 17:02:51:557
-0.3928,9.8303,-0.2361,-0.4086,-0.2038,-0.1849,-0.0026,0.3051,0.0032,3211,2019-08-07 17:02:51:562
-0.278,9.8637,-0.5802,-0.6167,-0.103,0.1752,-0.0026,0.3051,0.0032,3217,2019-08-07 17:02:51:568
-0.278,9.8637,-0.5802,-0.6167,-0.103,0.1752,-0.0452,0.4745,-0.0351,3221,2019-08-07 17:02:51:572
-0.278,9.8637,-0.5802,-0.6167,-0.103,0.1752,-0.0452,0.4745,-0.0351,3227,2019-08-07 17:02:51:578
-1.0769,10.0404,-0.6368,-0.6167,-0.103,0.1752,-0.1507,0.4511,-0.017,3231,2019-08-07 17:02:51:582
-1.0769,10.0404,-0.6368,0.7212,0.093,-1.5214,-0.1507,0.4511,-0.017,3237,2019-08-07 17:02:51:588
-1.0769,10.0404,-0.6368,0.7212,0.093,-1.5214,-0.1145,0.1166,0.0053,3242,2019-08-07 17:02:51:593
-1.4884,9.5534,1.9558,0.7212,0.093,-1.5214,-0.1145,0.1166,0.0053,3246,2019-08-07 17:02:51:597
-1.4884,9.5534,1.9558,0.7212,0.093,-1.5214,0.0144,-0.2318,0.0032,3252,2019-08-07 17:02:51:603
-1.2013,9.9497,-0.1795,0.301,-0.1881,-0.1906,0.0144,-0.2318,0.0032,3256,2019-08-07 17:02:51:607
-1.2013,9.9497,-0.1795,0.301,-0.1881,-0.1906,0.0166,-0.2722,0.016,3261,2019-08-07 17:02:51:612
-0.4741,9.9878,-0.8112,0.301,-0.1881,-0.1906,0.0166,-0.2722,0.016,3267,2019-08-07 17:02:51:618
-0.4741,9.9878,-0.8112,0.301,-0.1881,-0.1906,-0.0644,0.0133,0.0139,3271,2019-08-07 17:02:51:622