ACCELEROMETER X (m/s²),ACCELEROMETER Y (m/s²),ACCELEROMETER Z (m/s²),LINEAR ACCELERATION X (m/s²),LINEAR ACCELERATION Y (m/s²),LINEAR ACCELERATION Z (m/s²),GYROSCOPE X (rad/s),GYROSCOPE Y (rad/s),GYROSCOPE Z (rad/s),Time since start in ms ,YYYY-MO-DD HH-MI-SS_SSS
-0.6277,9.8681,0.2833,0.0769,-0.2401,-0.2651,0.1987,0.0101,-0.0809,4,2019-08-07 17:02:26:248
-0.6277,9.8681,0.2833,0.0769,-0.2401,-0.2651,0.1891,-0.0272,-0.0681,8,2019-08-07 17:02:26:252
-0.4316,9.6819,0.2739,0.0128,0.1128,-0.2412,0.1891,-0.0272,-0.0681,13,2019-08-07 17:02:26:257
-0.4316,9.6819,0.2739,0.0128,0.1128,-0.2412,0.1795,-0.0613,-0.0628,18,2019-08-07 17:02:26:262
-0.4173,10.0495,0.024,0.0128,0.1128,-0.2412,0.1795,-0.0613,-0.0628,23,2019-08-07 17:02:26:267
-0.4173,10.0495,0.024,0.0128,0.1128,-0.2412,0.1614,-0.0645,-0.0639,28,2019-08-07 17:02:26:272
-0.4173,10.0495,0.024,0.0196,-0.3076,0.163,0.1614,-0.0645,-0.0639,34,2019-08-07 17:02:26:278
-0.6517,10.1116,-0.1127,0.0196,-0.3076,0.163,0.1614,-0.0645,-0.0639,38,2019-08-07 17:02:26:282
-0.6517,10.1116,-0.1127,0.0196,-0.3076,0.163,0.1327,0.0015,-0.0607,42,2019-08-07 17:02:26:286
-0.6517,10.1116,-0.1127,0.0196,-0.3076,0.163,0.1327,0.0015,-0.0607,48,2019-08-07 17:02:26:292
-0.733,10.0256,0.3634,0.2596,-0.2271,-0.3499,0.1273,-0.0027,-0.0522,52,2019-08-07 17:02:26:296
-0.733,10.0256,0.3634,0.2596,-0.2271,-0.3499,0.1273,-0.0027,-0.0522,58,2019-08-07 17:02:26:302
-0.7904,10.1354,0.4059,0.2596,-0.2271,-0.3499,0.1337,-0.0677,-0.0479,62,2019-08-07 17:02:26:306
-0.7904,10.1354,0.4059,0.2596,-0.2271,-0.3499,0.1337,-0.0677,-0.0479,68,2019-08-07 17:02:26:312
-0.7904,10.1354,0.4059,0.158,-0.2419,-0.3584,0.138,-0.1039,-0.0319,72,2019-08-07 17:02:26:316
-0.489,10.1163,0.321,0.158,-0.2419,-0.3584,0.138,-0.1039,-0.0319,78,2019-08-07 17:02:26:322
-0.489,10.1163,0.321,0.158,-0.2419,-0.3584,0.1327,-0.089,-0.034,83,2019-08-07 17:02:26:327
-0.2833,10.0113,0.4294,0.158,-0.2419,-0.3584,0.1327,-0.089,-0.034,88,2019-08-07 17:02:26:332
-0.2833,10.0113,0.4294,-0.2161,-0.1372,-0.4282,0.1327,-0.0571,-0.0309,93,2019-08-07 17:02:26:337
-0.2833,10.0113,0.4294,-0.2161,-0.1372,-0.4282,0.1327,-0.0571,-0.0309,98,2019-08-07 17:02:26:342
-0.2785,9.9254,0.3069,-0.2133,-0.1278,-0.3499,0.1327,-0.0571,-0.0309,102,2019-08-07 17:02:26:346
-0.2785,9.9254,0.3069,-0.2133,-0.1278,-0.3499,0.1209,-0.0049,-0.0266,108,2019-08-07 17:02:26:352
-0.4986,9.8251,0.3069,-0.2133,-0.1278,-0.3499,0.1209,-0.0049,-0.0266,113,2019-08-07 17:02:26:357
-0.4986,9.8251,0.3069,-0.2133,-0.1278,-0.3499,0.1167,0.0282,-0.0319,118,2019-08-07 17:02:26:362
-0.4986,9.8251,0.3069,0.092,-0.0566,-0.3711,0.1167,0.0282,-0.0319,122,2019-08-07 17:02:26:366
-0.5751,9.9874,0.3305,0.092,-0.0566,-0.3711,0.122,-0.0027,-0.0277,128,2019-08-07 17:02:26:372
-0.5751,9.9874,0.3305,0.092,-0.0566,-0.3711,0.122,-0.0027,-0.0277,133,2019-08-07 17:02:26:377
-0.5751,9.9874,0.3305,0.092,-0.0566,-0.3711,0.122,-0.0464,-0.0181,138,2019-08-07 17:02:26:382
-0.7569,9.8299,-0.0891,0.2538,-0.0332,0.0025,0.122,-0.0464,-0.0181,144,2019-08-07 17:02:26:388
-0.7569,9.8299,-0.0891,0.2538,-0.0332,0.0025,0.1028,-0.0613,-0.001,148,2019-08-07 17:02:26:392
-0.8957,9.5435,5.0E-4,0.2538,-0.0332,0.0025,0.1028,-0.0613,-0.001,153,2019-08-07 17:02:26:397
-0.8957,9.5435,5.0E-4,0.2538,-0.0332,0.0025,0.1028,-0.0613,-0.001,157,2019-08-07 17:02:26:401
-0.8957,9.5435,5.0E-4,0.361,0.124,-0.3369,0.0933,-0.1199,0.0139,163,2019-08-07 17:02:26:407
-0.7617,9.8633,0.4153,0.361,0.124,-0.3369,0.0933,-0.1199,0.0139,168,2019-08-07 17:02:26:412
-0.7617,9.8633,0.4153,0.361,0.124,-0.3369,0.0975,-0.219,0.016,172,2019-08-07 17:02:26:416
-0.7617,9.8633,0.4153,0.361,0.124,-0.3369,0.0975,-0.219,0.016,178,2019-08-07 17:02:26:422
-0.3837,9.9254,0.3823,-0.2116,-0.1195,-0.4595,0.1241,-0.3031,0.0064,183,2019-08-07 17:02:26:427
-0.3837,9.9254,0.3823,-0.2116,-0.1195,-0.4595,0.1241,-0.3031,0.0064,188,2019-08-07 17:02:26:432
0.066,9.7249,0.1231,-0.2116,-0.1195,-0.4595,0.138,-0.2893,-0.0064,193,2019-08-07 17:02:26:437
0.066,9.7249,0.1231,-0.2116,-0.1195,-0.4595,0.138,-0.2893,-0.0064,198,2019-08-07 17:02:26:442
0.066,9.7249,0.1231,-0.9359,-0.1101,-0.3724,0.1263,-0.1796,-0.0223,203,2019-08-07 17:02:26:447
0.4248,9.9827,0.2126,-0.9359,-0.1101,-0.3724,0.1263,-0.1796,-0.0223,207,2019-08-07 17:02:26:451
0.4248,9.9827,0.2126,-0.9359,-0.1101,-0.3724,0.1252,-0.0283,-0.0362,213,2019-08-07 17:02:26:457
0.2143,9.9683,0.2456,-0.9359,-0.1101,-0.3724,0.1252,-0.0283,-0.0362,218,2019-08-07 17:02:26:462
0.2143,9.9683,0.2456,-0.4444,-0.0628,-0.5021,0.1209,0.1389,-0.0585,223,2019-08-07 17:02:26:467
0.2143,9.9683,0.2456,-0.4444,-0.0628,-0.5021,0.1209,0.1389,-0.0585,228,2019-08-07 17:02:26:472
-0.4124,9.9063,0.4295,-0.4444,-0.0628,-0.5021,0.1263,0.1709,-0.0703,233,2019-08-07 17:02:26:477
-0.4124,9.9063,0.4295,-0.4444,-0.0628,-0.5021,0.1263,0.1709,-0.0703,238,2019-08-07 17:02:26:482
-0.4124,9.9063,0.4295,-0.4444,-0.0628,-0.5021,0.1263,0.1709,-0.0703,242,2019-08-07 17:02:26:486
-0.8191,9.9492,0.4483,0.3037,-0.1545,-0.6323,0.1508,0.0995,-0.0575,248,2019-08-07 17:02:26:492
-0.8191,9.9492,0.4483,0.3037,-0.1545,-0.6323,0.1508,0.0995,-0.0575,253,2019-08-07 17:02:26:497
-0.8095,9.8156,-0.0985,0.3037,-0.1545,-0.6323,0.1699,-0.0091,-0.0468,258,2019-08-07 17:02:26:502
-0.8095,9.8156,-0.0985,0.2055,-0.0603,-0.0879,0.1699,-0.0091,-0.0468,263,2019-08-07 17:02:26:507
-0.8095,9.8156,-0.0985,0.2055,-0.0603,-0.0879,0.1668,-0.0496,-0.0394,268,2019-08-07 17:02:26:512
-0.6038,9.8633,-0.0702,0.2055,-0.0603,-0.0879,0.1668,-0.0496,-0.0394,273,2019-08-07 17:02:26:517
-0.6038,9.8633,-0.0702,0.2055,-0.0603,-0.0879,0.1636,-0.0837,-0.033,277,2019-08-07 17:02:26:521
-0.3837,9.8394,-0.1126,-0.1609,-0.0328,-0.1844,0.1636,-0.0837,-0.033,284,2019-08-07 17:02:26:528
-0.3837,9.8394,-0.1126,-0.1609,-0.0328,-0.1844,0.1497,-0.0837,-0.0383,287,2019-08-07 17:02:26:531
-0.3837,9.8394,-0.1126,-0.1609,-0.0328,-0.1844,0.1497,-0.0837,-0.0383,293,2019-08-07 17:02:26:537
-0.3263,9.9779,-0.3766,-0.1609,-0.0328,-0.1844,0.1295,-0.0315,-0.0447,299,2019-08-07 17:02:26:543
-0.3263,9.9779,-0.3766,-0.1772,-0.1294,0.3107,0.1295,-0.0315,-0.0447,303,2019-08-07 17:02:26:547
-0.4315,9.9301,-0.4567,-0.1772,-0.1294,0.3107,0.1295,-0.0315,-0.0447,308,2019-08-07 17:02:26:552
-0.4315,9.9301,-0.4567,-0.1772,-0.1294,0.3107,0.0922,0.0484,-0.0543,313,2019-08-07 17:02:26:557
-0.4315,9.9301,-0.4567,-0.1772,-0.1294,0.3107,0.0922,0.0484,-0.0543,318,2019-08-07 17:02:26:562
-0.6659,9.9445,-0.0938,0.1712,-0.1114,-0.2694,0.0869,0.0591,-0.0543,323,2019-08-07 17:02:26:567
-0.6659,9.9445,-0.0938,0.1712,-0.1114,-0.2694,0.0869,0.0591,-0.0543,328,2019-08-07 17:02:26:572
-0.7138,9.7583,-0.0702,0.1712,-0.1114,-0.2694,0.0858,0.0314,-0.0511,334,2019-08-07 17:02:26:578
-0.7138,9.7583,-0.0702,0.1712,-0.1114,-0.2694,0.0858,0.0314,-0.0511,337,2019-08-07 17:02:26:581
-0.7138,9.7583,-0.0702,0.1712,-0.1114,-0.2694,0.0858,0.0314,-0.0511,343,2019-08-07 17:02:26:587
-0.5607,9.6771,-0.4567,-0.031,0.1023,0.0865,0.073,0.0111,-0.05,347,2019-08-07 17:02:26:591
-0.5607,9.6771,-0.4567,-0.031,0.1023,0.0865,0.073,0.0111,-0.05,353,2019-08-07 17:02:26:597
-0.599,9.7392,-0.4944,-0.031,0.1023,0.0865,0.0517,0.0473,-0.0511,358,2019-08-07 17:02:26:602
-0.599,9.7392,-0.4944,-0.031,0.1023,0.0865,0.0517,0.0473,-0.0511,363,2019-08-07 17:02:26:607
-0.599,9.7392,-0.4944,0.0265,-0.0371,0.0511,0.0187,0.0644,-0.0458,367,2019-08-07 17:02:26:611
-0.5511,9.9826,-0.3342,0.0265,-0.0371,0.0511,0.0187,0.0644,-0.0458,373,2019-08-07 17:02:26:617
-0.5511,9.9826,-0.3342,0.0265,-0.0371,0.0511,0.0016,0.0367,-0.0458,377,2019-08-07 17:02:26:621
-0.5655,10.2022,-0.0231,0.0265,-0.0371,0.0511,0.0016,0.0367,-0.0458,383,2019-08-07 17:02:26:627
-0.5655,10.2022,-0.0231,-0.0968,-0.4052,-0.3694,0.0144,-0.0123,-0.0532,388,2019-08-07 17:02:26:632
-0.5655,10.2022,-0.0231,-0.0968,-0.4052,-0.3694,0.0144,-0.0123,-0.0532,393,2019-08-07 17:02:26:637
-0.4363,10.1975,-0.0655,-0.0968,-0.4052,-0.3694,0.0208,-0.039,-0.0511,399,2019-08-07 17:02:26:643
-0.4363,10.1975,-0.0655,-0.0968,-0.4052,-0.3694,0.0208,-0.039,-0.0511,404,2019-08-07 17:02:26:648
-0.4411,10.1688,-0.1975,-0.1967,-0.3962,-0.1161,0.0208,-0.039,-0.0511,408,2019-08-07 17:02:26:652
-0.4411,10.1688,-0.1975,-0.1967,-0.3962,-0.1161,0.007,0.01,-0.0511,412,2019-08-07 17:02:26:656
-0.4411,10.1688,-0.1975,-0.1967,-0.3962,-0.1161,0.007,0.01,-0.0511,418,2019-08-07 17:02:26:662
-0.8094,10.0399,0.0429,-0.1967,-0.3962,-0.1161,-0.0069,0.0399,-0.0426,423,2019-08-07 17:02:26:667
-0.8094,10.0399,0.0429,0.2195,-0.1724,-0.4539,-0.0069,0.0399,-0.0426,428,2019-08-07 17:02:26:672
-0.886,10.0161,0.1136,0.2195,-0.1724,-0.4539,-0.0037,0.0196,-0.034,433,2019-08-07 17:02:26:677
-0.886,10.0161,0.1136,0.2195,-0.1724,-0.4539,-0.0037,0.0196,-0.034,438,2019-08-07 17:02:26:682
-0.886,10.0161,0.1136,0.2195,-0.1724,-0.4539,-0.0037,0.0196,-0.034,443,2019-08-07 17:02:26:687
-0.7951,10.0304,-0.2776,0.1875,-0.2444,-0.0407,-0.0069,-0.007,-0.0255,448,2019-08-07 17:02:26:692
-0.7951,10.0304,-0.2776,0.1875,-0.2444,-0.0407,-0.0069,-0.007,-0.0255,453,2019-08-07 17:02:26:697
-0.6898,9.9349,-0.2682,0.1875,-0.2444,-0.0407,-0.0261,-0.0166,-0.0181,457,2019-08-07 17:02:26:701
-0.6898,9.9349,-0.2682,0.1875,-0.2444,-0.0407,-0.0261,-0.0166,-0.0181,463,2019-08-07 17:02:26:707
-0.6898,9.9349,-0.2682,0.0391,-0.1777,-0.2199,-0.0293,-0.04,-0.0159,468,2019-08-07 17:02:26:712
-0.5511,9.9206,-0.0231,0.0391,-0.1777,-0.2199,-0.0293,-0.04,-0.0159,473,2019-08-07 17:02:26:717
-0.5511,9.9206,-0.0231,0.0391,-0.1777,-0.2199,-0.0239,-0.0709,-0.0181,478,2019-08-07 17:02:26:722
-0.398,9.8967,-0.1739,0.0391,-0.1777,-0.2199,-0.0239,-0.0709,-0.0181,483,2019-08-07 17:02:26:727
-0.398,9.8967,-0.1739,-0.2123,-0.1108,-0.1507,-0.0239,-0.0709,-0.0181,487,2019-08-07 17:02:26:731
-0.398,9.8967,-0.1739,-0.2123,-0.1108,-0.1507,-0.0325,-0.073,-0.0191,493,2019-08-07 17:02:26:737
-0.4171,9.8633,-0.0985,-0.2123,-0.1108,-0.1507,-0.0325,-0.073,-0.0191,498,2019-08-07 17:02:26:742
-0.4171,9.8633,-0.0985,-0.2123,-0.1108,-0.1507,-0.0506,-0.0336,-0.0245,503,2019-08-07 17:02:26:747
-0.6037,9.8347,-0.0466,-0.0719,-0.0486,-0.2205,-0.0506,-0.0336,-0.0245,508,2019-08-07 17:02:26:752
-0.6037,9.8347,-0.0466,-0.0719,-0.0486,-0.2205,-0.0516,-0.0155,-0.0202,513,2019-08-07 17:02:26:757
-0.6037,9.8347,-0.0466,-0.0719,-0.0486,-0.2205,-0.0516,-0.0155,-0.0202,518,2019-08-07 17:02:26:762
-0.752,9.763,0.0241,-0.0719,-0.0486,-0.2205,-0.0495,-0.0134,-0.017,523,2019-08-07 17:02:26:767
-0.752,9.763,0.0241,0.1629,0.0183,-0.3632,-0.0495,-0.0134,-0.017,528,2019-08-07 17:02:26:772
-0.7041,9.8394,0.1702,0.1629,0.0183,-0.3632,-0.0431,-0.0294,-0.0106,533,2019-08-07 17:02:26:777
-0.7041,9.8394,0.1702,0.1629,0.0183,-0.3632,-0.0431,-0.0294,-0.0106,537,2019-08-07 17:02:26:781
-0.7041,9.8394,0.1702,0.1629,0.0183,-0.3632,-0.0431,-0.0294,-0.0106,542,2019-08-07 17:02:26:786
-0.5797,9.8346,0.0571,-0.0454,-0.0483,-0.328,-0.0282,-0.0411,-0.0063,548,2019-08-07 17:02:26:792
-0.5797,9.8346,0.0571,-0.0454,-0.0483,-0.328,-0.0282,-0.0411,-0.0063,552,2019-08-07 17:02:26:796
-0.5797,9.8346,0.0571,-0.0454,-0.0483,-0.328,-0.0293,0.0058,-0.0053,557,2019-08-07 17:02:26:801
-0.4745,9.8728,-0.023,-0.0454,-0.0483,-0.328,-0.0293,0.0058,-0.0053,563,2019-08-07 17:02:26:807
-0.4745,9.8728,-0.023,-0.1174,-0.1579,-0.3488,-0.0239,0.0409,-0.0063,568,2019-08-07 17:02:26:812
-0.4745,9.8728,-0.023,-0.1174,-0.1579,-0.3488,-0.0239,0.0409,-0.0063,573,2019-08-07 17:02:26:817
-0.5558,9.9063,0.1796,-0.1174,-0.1579,-0.3488,-0.0079,0.0356,-0.0149,578,2019-08-07 17:02:26:822
-0.5558,9.9063,0.1796,-0.1174,-0.1579,-0.3488,-0.0079,0.0356,-0.0149,584,2019-08-07 17:02:26:828
-0.508,9.7821,0.0995,-0.119,0.0044,-0.3579,0.0091,0.0207,-0.0127,587,2019-08-07 17:02:26:831
-0.508,9.7821,0.0995,-0.119,0.0044,-0.3579,0.0091,0.0207,-0.0127,593,2019-08-07 17:02:26:837
-0.508,9.7821,0.0995,-0.119,0.0044,-0.3579,0.0166,0.025,-0.0138,597,2019-08-07 17:02:26:841
-0.6132,9.7201,0.1749,-0.119,0.0044,-0.3579,0.0166,0.025,-0.0138,603,2019-08-07 17:02:26:847
-0.6132,9.7201,0.1749,-0.035,0.0425,-0.5463,0.0272,0.0228,-0.0117,607,2019-08-07 17:02:26:851
-0.5988,9.8346,0.3399,-0.035,0.0425,-0.5463,0.0272,0.0228,-0.0117,613,2019-08-07 17:02:26:857
-0.5988,9.8346,0.3399,-0.035,0.0425,-0.5463,0.0485,-0.0017,-0.0063,618,2019-08-07 17:02:26:862
-0.5988,9.8346,0.3399,-0.035,0.0425,-0.5463,0.0485,-0.0017,-0.0063,623,2019-08-07 17:02:26:867
-0.4266,9.9397,0.2645,-0.1839,-0.1677,-0.4703,0.0677,-0.0208,-0.0063,628,2019-08-07 17:02:26:872
-0.4266,9.9397,0.2645,-0.1839,-0.1677,-0.4703,0.0677,-0.0208,-0.0063,633,2019-08-07 17:02:26:877
-0.3979,9.8872,0.0052,-0.1839,-0.1677,-0.4703,0.0677,-0.0208,-0.0063,638,2019-08-07 17:02:26:882
-0.3979,9.8872,0.0052,-0.1839,-0.1677,-0.4703,0.0719,0.0239,-0.0127,644,2019-08-07 17:02:26:888
-0.3979,9.8872,0.0052,-0.2037,-0.1824,-0.19,0.0719,0.0239,-0.0127,647,2019-08-07 17:02:26:891
-0.5031,9.9779,-0.0513,-0.2037,-0.1824,-0.19,0.0624,0.0761,-0.0223,654,2019-08-07 17:02:26:898
-0.5031,9.9779,-0.0513,-0.2037,-0.1824,-0.19,0.0624,0.0761,-0.0223,658,2019-08-07 17:02:26:902
-0.618,10.0256,-0.0278,-0.2037,-0.1824,-0.19,0.0624,0.0985,-0.0277,663,2019-08-07 17:02:26:907
-0.618,10.0256,-0.0278,0.0414,-0.2498,-0.1783,0.0624,0.0985,-0.0277,668,2019-08-07 17:02:26:912
-0.618,10.0256,-0.0278,0.0414,-0.2498,-0.1783,0.0645,0.0804,-0.0223,673,2019-08-07 17:02:26:917
-0.7998,9.9635,-0.0702,0.0414,-0.2498,-0.1783,0.0645,0.0804,-0.0223,678,2019-08-07 17:02:26:922
-0.7998,9.9635,-0.0702,0.0414,-0.2498,-0.1783,0.0634,0.0612,-0.0138,683,2019-08-07 17:02:26:927
-0.7998,9.9635,-0.0702,0.2092,-0.1502,-0.2089,0.0634,0.0612,-0.0138,688,2019-08-07 17:02:26:932
-0.795,9.9779,-0.0419,0.2092,-0.1502,-0.2089,0.0592,0.0324,-0.0117,692,2019-08-07 17:02:26:936
-0.795,9.9779,-0.0419,0.0641,-0.1457,-0.266,0.0592,0.0324,-0.0117,699,2019-08-07 17:02:26:943
-0.6036,9.8824,-0.0749,0.0641,-0.1457,-0.266,0.0634,-0.0145,-0.0085,703,2019-08-07 17:02:26:947
-0.6036,9.8824,-0.0749,0.0641,-0.1457,-0.266,0.0634,-0.0145,-0.0085,708,2019-08-07 17:02:26:952
-0.6036,9.8824,-0.0749,0.0641,-0.1457,-0.266,0.0613,-0.0421,-0.0095,713,2019-08-07 17:02:26:957
-0.4457,9.8728,-0.3766,-0.2245,-0.1366,0.0152,0.0613,-0.0421,-0.0095,718,2019-08-07 17:02:26:962
-0.4457,9.8728,-0.3766,-0.2245,-0.1366,0.0152,0.0453,-0.0198,-0.0138,722,2019-08-07 17:02:26:966
-0.4457,9.8728,-0.3766,-0.2245,-0.1366,0.0152,0.0453,-0.0198,-0.0138,728,2019-08-07 17:02:26:972
-0.4648,9.8967,-0.4237,-0.2245,-0.1366,0.0152,0.0261,0.0186,-0.0213,733,2019-08-07 17:02:26:977
-0.4648,9.8967,-0.4237,-0.2245,-0.1366,0.0152,0.0261,0.0186,-0.0213,738,2019-08-07 17:02:26:982
-0.6084,9.8633,-0.3247,-0.1072,-0.0511,0.0224,0.008,0.0431,-0.0223,743,2019-08-07 17:02:26:987
-0.6084,9.8633,-0.3247,-0.1072,-0.0511,0.0224,0.008,0.0431,-0.0223,748,2019-08-07 17:02:26:992
-0.6084,9.8633,-0.3247,-0.1072,-0.0511,0.0224,-0.0037,0.0367,-0.0287,752,2019-08-07 17:02:26:996
-0.7184,9.8872,-0.1362,-0.1072,-0.0511,0.0224,-0.0037,0.0367,-0.0287,758,2019-08-07 17:02:27:002
-0.7184,9.8872,-0.1362,0.0601,-0.0991,-0.2698,-0.0026,0.0154,-0.0234,762,2019-08-07 17:02:27:006
-0.6849,9.9731,-0.0655,0.0601,-0.0991,-0.2698,-0.0026,0.0154,-0.0234,768,2019-08-07 17:02:27:012
-0.6849,9.9731,-0.0655,0.0601,-0.0991,-0.2698,-0.0058,-6.0E-4,-0.0255,772,2019-08-07 17:02:27:016
-0.6849,9.9731,-0.0655,0.0601,-0.0991,-0.2698,-0.0058,-6.0E-4,-0.0255,778,2019-08-07 17:02:27:022
-0.6323,10.0017,-0.1974,-0.021,-0.2187,-0.1213,-0.0058,0.0079,-0.0245,783,2019-08-07 17:02:27:027
-0.6323,10.0017,-0.1974,-0.021,-0.2187,-0.1213,-0.0058,0.0079,-0.0245,788,2019-08-07 17:02:27:032
-0.661,10.0208,-0.2116,-0.021,-0.2187,-0.1213,-0.0143,0.0186,-0.0287,794,2019-08-07 17:02:27:038
-0.661,10.0208,-0.2116,-0.021,-0.2187,-0.1213,-0.0143,0.0186,-0.0287,798,2019-08-07 17:02:27:042
-0.661,10.0208,-0.2116,-0.0164,-0.176,-0.2124,-0.0143,0.0186,-0.0287,803,2019-08-07 17:02:27:047
-0.7136,9.8776,-0.0937,-0.0164,-0.176,-0.2124,-0.0218,0.0196,-0.0298,808,2019-08-07 17:02:27:052
-0.7136,9.8776,-0.0937,0.0189,-0.0901,-0.2236,-0.0218,0.0196,-0.0298,812,2019-08-07 17:02:27:056
-0.7136,9.8776,-0.0937,0.0189,-0.0901,-0.2236,-0.0229,-0.0038,-0.0287,818,2019-08-07 17:02:27:062
-0.6897,9.9015,-0.0513,0.0189,-0.0901,-0.2236,-0.0229,-0.0038,-0.0287,823,2019-08-07 17:02:27:067
-0.6897,9.9015,-0.0513,0.0189,-0.0901,-0.2236,-0.0197,-0.0208,-0.0287,827,2019-08-07 17:02:27:071
-0.5748,9.8633,-0.1739,-0.0824,-0.0808,-0.175,-0.0197,-0.0208,-0.0287,833,2019-08-07 17:02:27:077
-0.5748,9.8633,-0.1739,-0.0824,-0.0808,-0.175,-0.0271,-0.0219,-0.0298,838,2019-08-07 17:02:27:082
-0.5748,9.8633,-0.1739,-0.0824,-0.0808,-0.175,-0.0271,-0.0219,-0.0298,843,2019-08-07 17:02:27:087
-0.527,9.8537,-0.0419,-0.0824,-0.0808,-0.175,-0.0303,-0.0113,-0.0277,848,2019-08-07 17:02:27:092
-0.527,9.8537,-0.0419,-0.1449,-0.0809,-0.3328,-0.0303,-0.0113,-0.0277,852,2019-08-07 17:02:27:096
-0.527,9.8537,-0.0419,-0.1449,-0.0809,-0.3328,-0.0303,-0.0113,-0.0277,858,2019-08-07 17:02:27:102
-0.5461,9.9349,-0.0136,-0.1449,-0.0809,-0.3328,-0.0229,-0.0038,-0.0298,862,2019-08-07 17:02:27:106
-0.5461,9.9349,-0.0136,-0.1449,-0.0809,-0.3328,-0.0229,-0.0038,-0.0298,868,2019-08-07 17:02:27:112
-0.6466,9.9922,-0.0607,-0.0306,-0.2099,-0.2311,-0.0293,0.0196,-0.033,873,2019-08-07 17:02:27:117
-0.6466,9.9922,-0.0607,-0.0306,-0.2099,-0.2311,-0.0293,0.0196,-0.033,878,2019-08-07 17:02:27:122
-0.7662,9.9349,-0.1032,-0.0306,-0.2099,-0.2311,-0.0293,0.0228,-0.0255,883,2019-08-07 17:02:27:127
-0.7662,9.9349,-0.1032,-0.0306,-0.2099,-0.2311,-0.0293,0.0228,-0.0255,887,2019-08-07 17:02:27:131
-0.7662,9.9349,-0.1032,0.1069,-0.1528,-0.1295,-0.0293,0.0228,-0.0255,892,2019-08-07 17:02:27:136
-0.8092,9.9683,-0.0796,0.1069,-0.1528,-0.1295,-0.0314,0.0207,-0.0277,899,2019-08-07 17:02:27:143
-0.8092,9.9683,-0.0796,0.1069,-0.1528,-0.1295,-0.0314,0.0207,-0.0277,902,2019-08-07 17:02:27:146
-0.8092,9.9683,-0.0796,0.1069,-0.1528,-0.1295,-0.0293,0.0015,-0.0266,908,2019-08-07 17:02:27:152
-0.7853,9.9397,-0.0749,0.0677,-0.1387,-0.1789,-0.0293,0.0015,-0.0266,913,2019-08-07 17:02:27:157
-0.7853,9.9397,-0.0749,0.0677,-0.1387,-0.1789,-0.0325,-0.0155,-0.0245,918,2019-08-07 17:02:27:162
-0.7853,9.9397,-0.0749,0.0677,-0.1387,-0.1789,-0.0325,-0.0155,-0.0245,923,2019-08-07 17:02:27:167
-0.6418,9.9253,-0.1031,0.0677,-0.1387,-0.1789,-0.0325,-0.0336,-0.0213,928,2019-08-07 17:02:27:172
-0.6418,9.9253,-0.1031,-0.1661,-0.1149,-0.1944,-0.0325,-0.0336,-0.0213,933,2019-08-07 17:02:27:177
-0.4791,9.911,6.0E-4,-0.1661,-0.1149,-0.1944,-0.0335,-0.0368,-0.0255,938,2019-08-07 17:02:27:182
-0.4791,9.911,6.0E-4,-0.1661,-0.1149,-0.1944,-0.0335,-0.0368,-0.0255,944,2019-08-07 17:02:27:188
-0.4791,9.911,6.0E-4,-0.1661,-0.1149,-0.1944,-0.0346,-0.039,-0.033,948,2019-08-07 17:02:27:192
-0.4839,9.8681,-0.1126,-0.2136,-0.0863,-0.1478,-0.0346,-0.039,-0.033,953,2019-08-07 17:02:27:197
-0.4839,9.8681,-0.1126,-0.2136,-0.0863,-0.1478,-0.0399,-0.0208,-0.0383,958,2019-08-07 17:02:27:202
-0.4839,9.8681,-0.1126,-0.2136,-0.0863,-0.1478,-0.0399,-0.0208,-0.0383,963,2019-08-07 17:02:27:207
-0.6178,9.8346,-0.0984,-0.2136,-0.0863,-0.1478,-0.0442,-0.0059,-0.0404,967,2019-08-07 17:02:27:211
-0.6178,9.8346,-0.0984,-0.0436,-0.015,-0.2515,-0.0442,-0.0059,-0.0404,973,2019-08-07 17:02:27:217
-0.7183,9.7773,0.0194,-0.0436,-0.015,-0.2515,-0.042,-0.0123,-0.0404,978,2019-08-07 17:02:27:222
-0.7183,9.7773,0.0194,-0.0436,-0.015,-0.2515,-0.042,-0.0123,-0.0404,983,2019-08-07 17:02:27:227
-0.7183,9.7773,0.0194,-0.0436,-0.015,-0.2515,-0.0367,-0.0219,-0.0383,987,2019-08-07 17:02:27:231
-0.7087,9.8967,-0.0183,0.0203,-0.1537,-0.1798,-0.0367,-0.0219,-0.0383,994,2019-08-07 17:02:27:238
-0.7087,9.8967,-0.0183,0.0203,-0.1537,-0.1798,-0.0335,-0.0155,-0.0404,998,2019-08-07 17:02:27:242
-0.6705,9.9397,0.0477,0.0203,-0.1537,-0.1798,-0.0335,-0.0155,-0.0404,1003,2019-08-07 17:02:27:247
-0.6705,9.9397,0.0477,0.0203,-0.1537,-0.1798,-0.0367,-0.0038,-0.0372,1007,2019-08-07 17:02:27:251
-0.6705,9.9397,0.0477,-0.0342,-0.2305,-0.1706,-0.0367,-0.0038,-0.0372,1013,2019-08-07 17:02:27:257
-0.6712,10.0352,-0.0797,-0.0342,-0.2305,-0.1706,-0.0378,0.0132,-0.0447,1018,2019-08-07 17:02:27:262
-0.6712,10.0352,-0.0797,-0.0342,-0.2305,-0.1706,-0.0378,0.0132,-0.0447,1023,2019-08-07 17:02:27:267
-0.676,10.0113,-0.0844,-0.0342,-0.2305,-0.1706,-0.0399,0.0186,-0.05,1028,2019-08-07 17:02:27:272
-0.676,10.0113,-0.0844,0.024,-0.1975,-0.2229,-0.0399,0.0186,-0.05,1033,2019-08-07 17:02:27:277
-0.676,10.0113,-0.0844,0.024,-0.1975,-0.2229,-0.0399,0.0186,-0.05,1038,2019-08-07 17:02:27:282
-0.7812,9.9302,-0.0279,0.024,-0.1975,-0.2229,-0.041,0.0164,-0.0458,1043,2019-08-07 17:02:27:287
-0.7812,9.9302,-0.0279,0.024,-0.1975,-0.2229,-0.041,0.0164,-0.0458,1047,2019-08-07 17:02:27:291
-0.7812,9.8968,-0.0703,0.0428,-0.1169,-0.1426,-0.0399,0.0058,-0.05,1053,2019-08-07 17:02:27:297
-0.7812,9.8968,-0.0703,0.0428,-0.1169,-0.1426,-0.0399,-0.023,-0.0468,1058,2019-08-07 17:02:27:302
-0.7812,9.8968,-0.0703,0.0428,-0.1169,-0.1426,-0.0399,-0.023,-0.0468,1063,2019-08-07 17:02:27:307
-0.7382,9.8252,0.0428,0.0428,-0.1169,-0.1426,-0.0324,-0.0432,-0.0447,1068,2019-08-07 17:02:27:312
-0.7382,9.8252,0.0428,0.0428,-0.1169,-0.1426,-0.0324,-0.0432,-0.0447,1073,2019-08-07 17:02:27:317
-0.7382,9.8252,0.0428,0.043,-0.0601,-0.2601,-0.0324,-0.0432,-0.0447,1078,2019-08-07 17:02:27:322
-0.7717,9.8156,0.0193,0.043,-0.0601,-0.2601,-0.0261,-0.0464,-0.0404,1082,2019-08-07 17:02:27:326
-0.7717,9.8156,0.0193,0.043,-0.0601,-0.2601,-0.0261,-0.0464,-0.0404,1088,2019-08-07 17:02:27:332
-0.7717,9.7679,0.1324,0.043,-0.0601,-0.2601,-0.0165,-0.0411,-0.0362,1093,2019-08-07 17:02:27:337
-0.7717,9.7679,0.1324,0.0252,0.0301,-0.3752,-0.0165,-0.0411,-0.0362,1098,2019-08-07 17:02:27:342
-0.7717,9.7679,0.1324,0.0252,0.0301,-0.3752,-0.0016,-0.0294,-0.0404,1103,2019-08-07 17:02:27:347
-0.8769,9.9875,0.3634,0.0252,0.0301,-0.3752,-0.0016,-0.0294,-0.0404,1108,2019-08-07 17:02:27:352
-0.8769,9.9875,0.3634,0.0252,0.0301,-0.3752,0.04,-0.0123,-0.0319,1112,2019-08-07 17:02:27:356
-0.786,9.9111,0.7876,0.0561,-0.128,-0.9574,0.04,-0.0123,-0.0319,1118,2019-08-07 17:02:27:362
-0.786,9.9111,0.7876,0.0561,-0.128,-0.9574,0.1135,-0.0453,-0.0245,1123,2019-08-07 17:02:27:367
-0.786,9.9111,0.7876,0.0561,-0.128,-0.9574,0.1135,-0.0453,-0.0245,1129,2019-08-07 17:02:27:373
-0.6712,9.9254,1.1223,0.0561,-0.128,-0.9574,0.1891,-0.0507,-0.0149,1133,2019-08-07 17:02:27:377
-0.6712,9.9254,1.1223,-0.1679,-0.1811,-1.3349,0.1891,-0.0507,-0.0149,1138,2019-08-07 17:02:27:382
-0.6712,9.9254,1.1223,-0.1679,-0.1811,-1.3349,0.1891,-0.0507,-0.0149,1143,2019-08-07 17:02:27:387
-0.4894,9.8299,1.4428,-0.1679,-0.1811,-1.3349,0.2743,-0.0017,-0.0245,1148,2019-08-07 17:02:27:392
-0.4894,9.8299,1.4428,-0.1679,-0.1811,-1.3349,0.2743,-0.0017,-0.0245,1153,2019-08-07 17:02:27:397
-0.0923,9.7488,2.2253,-0.5578,0.0134,-2.2877,0.4118,0.0761,-0.0426,1158,2019-08-07 17:02:27:402
-0.0923,9.7488,2.2253,-0.5578,0.0134,-2.2877,0.4118,0.0761,-0.0426,1163,2019-08-07 17:02:27:407
-0.0923,9.7488,2.2253,-0.5578,0.0134,-2.2877,0.5471,0.14,-0.066,1168,2019-08-07 17:02:27:412
0.4818,10.2118,2.8428,-0.5578,0.0134,-2.2877,0.5471,0.14,-0.066,1173,2019-08-07 17:02:27:417
0.4818,10.2118,2.8428,-0.5578,0.0134,-2.2877,0.5471,0.14,-0.066,1177,2019-08-07 17:02:27:421
0.9028,10.2214,3.3425,-1.5135,-0.5193,-3.373,0.7281,0.2061,-0.1001,1183,2019-08-07 17:02:27:427
0.9028,10.2214,3.3425,-1.5135,-0.5193,-3.373,0.9551,0.3062,-0.1427,1189,2019-08-07 17:02:27:433
0.9028,10.2214,3.3425,-1.5135,-0.5193,-3.373,0.9551,0.3062,-0.1427,1193,2019-08-07 17:02:27:437
1.1755,10.1355,2.758,-1.9492,-0.4884,-3.2294,0.9551,0.3062,-0.1427,1198,2019-08-07 17:02:27:442
1.1755,10.1355,2.758,-1.9492,-0.4884,-3.2294,1.0786,0.4266,-0.1928,1203,2019-08-07 17:02:27:447
1.1516,11.5008,3.4792,-1.9492,-0.4884,-3.2294,1.0786,0.4266,-0.1928,1208,2019-08-07 17:02:27:452
1.1516,11.5008,3.4792,-1.9492,-0.4884,-3.2294,1.3034,0.5651,-0.2258,1213,2019-08-07 17:02:27:457
1.1516,11.5008,3.4792,-1.8177,-2.7138,-3.9841,1.3034,0.5651,-0.2258,1218,2019-08-07 17:02:27:462
0.6827,13.2575,3.1257,-1.8177,-2.7138,-3.9841,1.4824,0.6833,-0.2578,1223,2019-08-07 17:02:27:467
0.6827,13.2575,3.1257,-1.8177,-2.7138,-3.9841,1.4824,0.6833,-0.2578,1227,2019-08-07 17:02:27:471
-0.4894,15.4678,4.1768,-1.8177,-2.7138,-3.9841,1.6294,0.8292,-0.2684,1234,2019-08-07 17:02:27:478
-0.4894,15.4678,4.1768,-0.0653,-6.623,-6.0884,1.6294,0.8292,-0.2684,1238,2019-08-07 17:02:27:482
-0.4894,15.4678,4.1768,-0.0653,-6.623,-6.0884,1.6294,0.8292,-0.2684,1243,2019-08-07 17:02:27:487
-1.0301,18.1841,6.1755,0.4493,-9.2737,-7.8092,1.917,0.8995,-0.295,1249,2019-08-07 17:02:27:493
-1.0301,18.1841,6.1755,0.4493,-9.2737,-7.8092,1.917,0.8995,-0.295,1253,2019-08-07 17:02:27:497
-1.0301,18.1841,6.1755,0.4493,-9.2737,-7.8092,2.277,0.6716,-0.2769,1258,2019-08-07 17:02:27:502
-1.8147,21.965,6.4206,0.4493,-9.2737,-7.8092,2.277,0.6716,-0.2769,1263,2019-08-07 17:02:27:507
-1.8147,21.965,6.4206,1.0447,-14.4995,-8.2708,2.6051,0.7344,-0.2993,1268,2019-08-07 17:02:27:512
-1.8147,21.965,6.4206,1.0447,-14.4995,-8.2708,2.6051,0.7344,-0.2993,1273,2019-08-07 17:02:27:517
-2.7763,26.2471,7.7028,1.0447,-14.4995,-8.2708,2.9514,0.8825,-0.1321,1278,2019-08-07 17:02:27:522
-2.7763,26.2471,7.7028,1.0447,-14.4995,-8.2708,2.9514,0.8825,-0.1321,1283,2019-08-07 17:02:27:527
-3.0777,26.7675,7.1701,2.1876,-17.2357,-9.3126,2.9897,0.9155,-0.0064,1288,2019-08-07 17:02:27:532
-3.0777,26.7675,7.1701,2.1876,-17.2357,-9.3126,2.9897,0.9155,-0.0064,1293,2019-08-07 17:02:27:537
-3.0777,26.7675,7.1701,2.1876,-17.2357,-9.3126,2.9897,0.9155,-0.0064,1298,2019-08-07 17:02:27:542
-4.0824,26.6195,7.1654,3.2099,-17.1503,-9.5758,2.6733,0.6556,0.0181,1303,2019-08-07 17:02:27:547
-4.0824,26.6195,7.1654,3.2099,-17.1503,-9.5758,2.6733,0.6556,0.0181,1307,2019-08-07 17:02:27:551
-5.2259,26.9918,16.857,3.2099,-17.1503,-9.5758,2.4667,-0.1135,0.0735,1313,2019-08-07 17:02:27:557
-5.2259,26.9918,16.857,4.3872,-14.427,-12.9945,2.4667,-0.1135,0.0735,1318,2019-08-07 17:02:27:562
-5.2259,26.9918,16.857,4.3872,-14.427,-12.9945,2.2717,-3.2731,0.2088,1323,2019-08-07 17:02:27:567
-3.4509,18.5756,-10.6811,4.3872,-14.427,-12.9945,2.2717,-3.2731,0.2088,1328,2019-08-07 17:02:27:572
-3.4509,18.5756,-10.6811,4.3872,-14.427,-12.9945,2.1599,-2.6158,0.0086,1334,2019-08-07 17:02:27:578
-3.4509,18.5756,-10.6811,-1.6246,-13.5128,11.7819,2.1599,-2.6158,0.0086,1337,2019-08-07 17:02:27:581
1.319,24.3042,-15.5835,-1.6246,-13.5128,11.7819,2.1599,-2.6158,0.0086,1343,2019-08-07 17:02:27:587
1.319,24.3042,-15.5835,-1.6246,-13.5128,11.7819,2.8629,-1.4632,-0.017,1349,2019-08-07 17:02:27:593
-0.0828,26.629,-20.8629,-1.6246,-13.5128,11.7819,2.8629,-1.4632,-0.017,1353,2019-08-07 17:02:27:597
-0.0828,26.629,-20.8629,1.652,-15.4761,21.6535,3.1026,-0.7505,0.472,1358,2019-08-07 17:02:27:602
-0.0828,26.629,-20.8629,1.652,-15.4761,21.6535,3.1026,-0.7505,0.472,1363,2019-08-07 17:02:27:607
-4.2738,25.0632,-23.0643,2.8423,-15.6969,17.1135,1.0126,-0.7623,0.6062,1369,2019-08-07 17:02:27:613
-4.2738,25.0632,-23.0643,2.8423,-15.6969,17.1135,1.0126,-0.7623,0.6062,1373,2019-08-07 17:02:27:617
-3.4414,21.1678,-15.5693,2.8423,-15.6969,17.1135,0.4831,0.4063,0.6083,1378,2019-08-07 17:02:27:622
-3.4414,21.1678,-15.5693,2.8423,-15.6969,17.1135,0.4831,0.4063,0.6083,1383,2019-08-07 17:02:27:627
-3.4414,21.1678,-15.5693,3.3558,-8.1903,-28.806,0.4831,0.4063,0.6083,1388,2019-08-07 17:02:27:632
-3.628,14.3555,-1.1828,3.3558,-8.1903,-28.806,1.2352,-0.5173,0.3857,1393,2019-08-07 17:02:27:637
-3.628,14.3555,-1.1828,3.3558,-8.1903,-28.806,1.2352,-0.5173,0.3857,1397,2019-08-07 17:02:27:641
-0.8962,15.3198,-13.8535,3.3558,-8.1903,-28.806,2.1332,-0.8209,0.5391,1403,2019-08-07 17:02:27:647
-0.8962,15.3198,-13.8535,3.3558,-8.1903,-28.806,2.1332,-0.8209,0.5391,1408,2019-08-07 17:02:27:652
-0.8962,15.3198,-13.8535,-1.5681,-5.7743,11.8896,2.4613,-0.3947,0.6626,1413,2019-08-07 17:02:27:657
0.9266,14.2171,-18.9161,-1.5681,-5.7743,11.8896,2.4613,-0.3947,0.6626,1418,2019-08-07 17:02:27:662
0.9266,14.2171,-18.9161,-1.5681,-5.7743,11.8896,0.7015,-1.0233,0.4293,1423,2019-08-07 17:02:27:667
-2.0492,11.6965,-21.5653,-1.5681,-5.7743,11.8896,0.7015,-1.0233,0.4293,1427,2019-08-07 17:02:27:671
-2.0492,11.6965,-21.5653,1.7086,-2.406,16.0271,-0.7185,-0.1444,0.1822,1434,2019-08-07 17:02:27:678
-2.0492,11.6965,-21.5653,1.7086,-2.406,16.0271,-0.7185,-0.1444,0.1822,1438,2019-08-07 17:02:27:682
-3.8672,9.7154,-7.9612,1.7086,-2.406,16.0271,-0.7185,-0.1444,0.1822,1443,2019-08-07 17:02:27:687
-3.8672,9.7154,-7.9612,1.7086,-2.406,16.0271,-0.6737,3.9217,0.5369,1448,2019-08-07 17:02:27:692
-3.8672,9.7154,-7.9612,-0.6001,0.8628,-14.1496,-0.6737,3.9217,0.5369,1453,2019-08-07 17:02:27:697
0.1324,6.135,-8.8569,-0.6001,0.8628,-14.1496,-0.3179,1.5014,0.3494,1458,2019-08-07 17:02:27:702
0.1324,6.135,-8.8569,-0.6001,0.8628,-14.1496,-0.3179,1.5014,0.3494,1462,2019-08-07 17:02:27:706
-2.5372,4.9941,-11.5202,-0.6001,0.8628,-14.1496,-0.3179,1.5014,0.3494,1468,2019-08-07 17:02:27:712
-2.5372,4.9941,-11.5202,2.44,3.5169,6.8196,-0.645,0.875,0.0629,1473,2019-08-07 17:02:27:717
-2.5372,4.9941,-11.5202,2.44,3.5169,6.8196,-0.645,0.875,0.0629,1478,2019-08-07 17:02:27:722
-3.6328,4.3066,-10.3181,3.1697,4.4104,5.8421,-1.4844,-0.1487,0.1598,1482,2019-08-07 17:02:27:726
-3.6328,4.3066,-10.3181,3.1697,4.4104,5.8421,-1.4844,-0.1487,0.1598,1489,2019-08-07 17:02:27:733
-3.6328,4.3066,-10.3181,3.1697,4.4104,5.8421,-1.4844,-0.1487,0.1598,1492,2019-08-07 17:02:27:736
-0.901,-0.1092,-3.5114,3.1697,4.4104,5.8421,-1.4492,-0.0986,0.196,1498,2019-08-07 17:02:27:742
-0.901,-0.1092,-3.5114,0.1572,8.7202,6.2062,-1.4492,-0.0986,0.196,1503,2019-08-07 17:02:27:747
-0.035,-0.281,-7.2966,0.1572,8.7202,6.2062,-1.4929,0.9901,0.0661,1508,2019-08-07 17:02:27:752
-0.035,-0.281,-7.2966,0.1572,8.7202,6.2062,-1.4929,0.9901,0.0661,1513,2019-08-07 17:02:27:757
-0.035,-0.281,-7.2966,0.1572,8.7202,6.2062,-2.2024,0.5949,-0.0149,1519,2019-08-07 17:02:27:763
-0.8914,-2.3051,-7.0279,0.5094,11.254,3.0269,-2.2024,0.5949,-0.0149,1523,2019-08-07 17:02:27:767
-0.8914,-2.3051,-7.0279,0.5094,11.254,3.0269,-2.2024,0.5949,-0.0149,1528,2019-08-07 17:02:27:772
-1.1354,-3.4986,-3.832,0.5094,11.254,3.0269,-2.2205,1.1723,-0.099,1534,2019-08-07 17:02:27:778
-1.1354,-3.4986,-3.832,0.5094,11.254,3.0269,-2.2205,1.1723,-0.099,1537,2019-08-07 17:02:27:781
-1.1354,-3.4986,-3.832,1.2513,13.4396,1.2751,-2.2471,0.6183,-0.1534,1543,2019-08-07 17:02:27:787
-0.9871,-4.9355,-4.5249,1.2513,13.4396,1.2751,-2.2471,0.6183,-0.1534,1548,2019-08-07 17:02:27:792
-0.9871,-4.9355,-4.5249,1.2513,13.4396,1.2751,-2.3643,0.6971,-0.1534,1553,2019-08-07 17:02:27:797
-0.9871,-4.9355,-4.5249,1.2513,13.4396,1.2751,-2.3643,0.6971,-0.1534,1558,2019-08-07 17:02:27:802
0.1659,-6.401,-3.7235,-0.588,15.9575,0.4509,-2.3877,0.6481,-0.2002,1563,2019-08-07 17:02:27:807
0.1659,-6.401,-3.7235,-0.588,15.9575,0.4509,-2.3877,0.6481,-0.2002,1569,2019-08-07 17:02:27:813
0.0176,-8.0957,-3.0636,-0.588,15.9575,0.4509,-2.3355,0.826,-0.2855,1573,2019-08-07 17:02:27:817
0.0176,-8.0957,-3.0636,-0.588,15.9575,0.4509,-2.3355,0.826,-0.2855,1578,2019-08-07 17:02:27:822
0.0176,-8.0957,-3.0636,-0.0654,18.4405,-0.5707,-2.2493,0.8495,-0.3185,1583,2019-08-07 17:02:27:827
-0.3508,-9.6759,-1.838,-0.0654,18.4405,-0.5707,-2.2493,0.8495,-0.3185,1589,2019-08-07 17:02:27:833
-0.3508,-9.6759,-1.838,-0.0654,18.4405,-0.5707,-2.2493,0.8495,-0.3185,1593,2019-08-07 17:02:27:837
-0.3508,-9.6759,-1.838,-0.0654,18.4405,-0.5707,-1.9872,0.7089,-0.3707,1598,2019-08-07 17:02:27:842
-0.7814,-10.4731,-0.0185,0.5142,19.9667,-2.6229,-1.9872,0.7089,-0.3707,1603,2019-08-07 17:02:27:847
-0.7814,-10.4731,-0.0185,0.5142,19.9667,-2.6229,-1.5888,0.3563,-0.3632,1608,2019-08-07 17:02:27:852
-1.011,-10.5399,0.4388,0.5142,19.9667,-2.6229,-1.5888,0.3563,-0.3632,1613,2019-08-07 17:02:27:857
-1.011,-10.5399,0.4388,0.5142,19.9667,-2.6229,-1.2596,0.075,-0.2982,1619,2019-08-07 17:02:27:863
-1.011,-10.5399,0.4388,0.2988,19.9981,-2.9095,-1.2596,0.075,-0.2982,1622,2019-08-07 17:02:27:866
-0.5996,-10.4827,0.5896,0.2988,19.9981,-2.9095,-0.9454,-0.1529,-0.2418,1628,2019-08-07 17:02:27:872
-0.5996,-10.4827,0.5896,0.2988,19.9981,-2.9095,-0.9454,-0.1529,-0.2418,1633,2019-08-07 17:02:27:877
0.051,-10.3776,0.8394,0.2988,19.9981,-2.9095,-0.9454,-0.1529,-0.2418,1638,2019-08-07 17:02:27:882
0.051,-10.3776,0.8394,0.2988,19.9981,-2.9095,-0.564,-0.317,-0.1704,1643,2019-08-07 17:02:27:887
0.051,-10.3776,0.8394,-0.7093,19.7726,-2.9332,-0.564,-0.317,-0.1704,1648,2019-08-07 17:02:27:892
0.0798,-9.8859,0.962,-0.7093,19.7726,-2.9332,-0.2593,-0.3607,-0.098,1653,2019-08-07 17:02:27:897
0.0798,-9.8859,0.962,-0.7093,19.7726,-2.9332,-0.2593,-0.3607,-0.098,1658,2019-08-07 17:02:27:902
0.0032,-9.0219,1.4051,-0.5289,18.5906,-3.5023,0.0453,-0.3521,0.0032,1663,2019-08-07 17:02:27:907
0.0032,-9.0219,1.4051,-0.5289,18.5906,-3.5023,0.0453,-0.3521,0.0032,1669,2019-08-07 17:02:27:913
0.0032,-9.0219,1.4051,-0.5289,18.5906,-3.5023,0.3979,-0.3873,0.0991,1672,2019-08-07 17:02:27:916
-0.303,-8.0241,1.4051,-0.5289,18.5906,-3.5023,0.3979,-0.3873,0.0991,1678,2019-08-07 17:02:27:922
-0.303,-8.0241,1.4051,-0.5289,18.5906,-3.5023,0.5961,-0.4299,0.1556,1684,2019-08-07 17:02:27:928
-0.5613,-7.0932,1.4239,-0.0039,16.9566,-3.5902,0.5961,-0.4299,0.1556,1688,2019-08-07 17:02:27:932
-0.5613,-7.0932,1.4239,-0.0039,16.9566,-3.5902,0.5961,-0.4299,0.1556,1693,2019-08-07 17:02:27:937
-0.5613,-7.0932,1.4239,-0.0039,16.9566,-3.5902,0.9391,-0.5695,0.2589,1698,2019-08-07 17:02:27:942
-0.5518,-6.2005,1.1741,0.0465,15.1504,-3.2386,0.9391,-0.5695,0.2589,1703,2019-08-07 17:02:27:947
-0.5518,-6.2005,1.1741,0.0465,15.1504,-3.2386,1.2054,-0.6888,0.3473,1708,2019-08-07 17:02:27:952
-0.5518,-5.1408,0.7027,0.0465,15.1504,-3.2386,1.2054,-0.6888,0.3473,1713,2019-08-07 17:02:27:957
-0.5518,-5.1408,0.7027,0.0465,15.1504,-3.2386,1.4397,-0.7825,0.4304,1719,2019-08-07 17:02:27:963
-0.2982,-3.7659,-0.2778,-0.1906,13.2087,-2.3359,1.4397,-0.7825,0.4304,1723,2019-08-07 17:02:27:967
-0.2982,-3.7659,-0.2778,-0.1906,13.2087,-2.3359,1.6752,-0.8113,0.505,1728,2019-08-07 17:02:27:972
-0.2982,-3.7659,-0.2778,-0.1906,13.2087,-2.3359,1.6752,-0.8113,0.505,1733,2019-08-07 17:02:27:977
-0.2887,-3.0259,-0.9801,-0.1831,12.5388,-1.8563,1.8254,-0.7836,0.5604,1738,2019-08-07 17:02:27:982
-0.2887,-3.0259,-0.9801,-0.1831,12.5388,-1.8563,1.8254,-0.7836,0.5604,1743,2019-08-07 17:02:27:987
-0.5279,-2.8064,-1.1451,-0.1831,12.5388,-1.8563,1.8978,-0.8187,0.6008,1748,2019-08-07 17:02:27:992
-0.5279,-2.8064,-1.1451,0.3172,11.8186,-1.8294,1.8978,-0.8187,0.6008,1753,2019-08-07 17:02:27:997
-0.5279,-2.8064,-1.1451,0.3172,11.8186,-1.8294,1.9916,-0.9657,0.6616,1758,2019-08-07 17:02:28:002
-0.8054,-2.3242,-1.7249,0.3172,11.8186,-1.8294,1.9916,-0.9657,0.6616,1763,2019-08-07 17:02:28:007
-0.8054,-2.3242,-1.7249,0.3172,11.8186,-1.8294,1.9916,-0.9657,0.6616,1768,2019-08-07 17:02:28:012
-0.8054,-2.3242,-1.7249,0.3172,11.8186,-1.8294,2.0256,-1.1202,0.6829,1773,2019-08-07 17:02:28:017
-0.9489,-1.8707,-2.4273,0.5581,10.9844,-1.1815,2.0256,-1.1202,0.6829,1778,2019-08-07 17:02:28:022
-0.9489,-1.8707,-2.4273,0.5581,10.9844,-1.1815,2.032,-1.2512,0.6712,1784,2019-08-07 17:02:28:028
-0.9154,-1.3026,-4.0158,0.5581,10.9844,-1.1815,2.032,-1.2512,0.6712,1788,2019-08-07 17:02:28:032
-0.9154,-1.3026,-4.0158,0.5581,10.9844,-1.1815,1.9415,-1.3301,0.6019,1793,2019-08-07 17:02:28:037
-0.8245,-0.6343,-5.0811,0.4796,9.7726,0.7061,1.9415,-1.3301,0.6019,1798,2019-08-07 17:02:28:042
-0.8245,-0.6343,-5.0811,0.4796,9.7726,0.7061,1.8488,-1.3471,0.5263,1803,2019-08-07 17:02:28:047
-0.8245,-0.6343,-5.0811,0.4796,9.7726,0.7061,1.8488,-1.3471,0.5263,1808,2019-08-07 17:02:28:052
-0.547,0.0818,-6.5471,0.4796,9.7726,0.7061,1.7338,-1.28,0.4538,1813,2019-08-07 17:02:28:057
-0.547,0.0818,-6.5471,0.0844,8.2374,2.506,1.7338,-1.28,0.4538,1818,2019-08-07 17:02:28:062
-0.547,0.0818,-6.5471,0.0844,8.2374,2.506,1.7338,-1.28,0.4538,1823,2019-08-07 17:02:28:067
-0.2026,1.0557,-7.7774,0.0844,8.2374,2.506,1.4951,-1.1404,0.358,1828,2019-08-07 17:02:28:072
-0.2026,1.0557,-7.7774,0.0844,8.2374,2.506,1.4951,-1.1404,0.358,1833,2019-08-07 17:02:28:077
-0.2026,1.0557,-7.7774,-0.3769,6.6285,3.5318,1.2139,-0.9029,0.2696,1838,2019-08-07 17:02:28:082
-0.2552,2.4258,-8.4374,-0.3769,6.6285,3.5318,1.2139,-0.9029,0.2696,1843,2019-08-07 17:02:28:087
-0.2552,2.4258,-8.4374,-0.3769,6.6285,3.5318,0.9295,-0.7292,0.2035,1847,2019-08-07 17:02:28:091
-1.7,3.8293,-8.3855,-0.3769,6.6285,3.5318,0.9295,-0.7292,0.2035,1854,2019-08-07 17:02:28:098
-1.7,3.8293,-8.3855,1.538,4.3272,3.1895,0.5854,-0.5801,0.1577,1858,2019-08-07 17:02:28:102
-1.7,3.8293,-8.3855,1.538,4.3272,3.1895,0.5854,-0.5801,0.1577,1863,2019-08-07 17:02:28:107
-2.8291,5.2089,-5.9626,1.538,4.3272,3.1895,0.4086,-0.6398,0.1151,1868,2019-08-07 17:02:28:112
-2.8291,5.2089,-5.9626,1.538,4.3272,3.1895,0.4086,-0.6398,0.1151,1873,2019-08-07 17:02:28:117
-2.6569,5.9679,-8.5175,2.099,2.427,3.4727,0.4086,-0.6398,0.1151,1878,2019-08-07 17:02:28:122
-2.6569,5.9679,-8.5175,2.099,2.427,3.4727,0.2754,-0.7122,-0.0106,1883,2019-08-07 17:02:28:127
-2.6569,5.9679,-8.5175,2.099,2.427,3.4727,0.2754,-0.7122,-0.0106,1888,2019-08-07 17:02:28:132
-2.7478,8.7845,-9.2906,2.099,2.427,3.4727,0.0474,-0.7271,-0.1566,1893,2019-08-07 17:02:28:137
-2.7478,8.7845,-9.2906,1.7296,-0.9925,4.6984,0.0474,-0.7271,-0.1566,1899,2019-08-07 17:02:28:143
-2.7478,8.7845,-9.2906,1.7296,-0.9925,4.6984,-0.1475,-0.7495,-0.2492,1903,2019-08-07 17:02:28:147
-1.7814,10.6606,-10.5209,1.7296,-0.9925,4.6984,-0.1475,-0.7495,-0.2492,1908,2019-08-07 17:02:28:152
-1.7814,10.6606,-10.5209,1.7296,-0.9925,4.6984,-0.4245,-0.7399,-0.393,1913,2019-08-07 17:02:28:157
-1.2073,12.5319,-11.7936,0.4174,-4.1546,6.7505,-0.4245,-0.7399,-0.393,1918,2019-08-07 17:02:28:162
-1.2073,12.5319,-11.7936,0.4174,-4.1546,6.7505,-0.8293,-0.578,-0.5848,1923,2019-08-07 17:02:28:167
-1.2073,12.5319,-11.7936,0.4174,-4.1546,6.7505,-0.8293,-0.578,-0.5848,1928,2019-08-07 17:02:28:172
-1.1595,13.4676,-12.1047,0.4174,-4.1546,6.7505,-1.3662,-0.2222,-0.7414,1933,2019-08-07 17:02:28:177
-1.1595,13.4676,-12.1047,0.2056,-5.9075,5.6671,-1.3662,-0.2222,-0.7414,1938,2019-08-07 17:02:28:182
-1.1595,13.4676,-12.1047,0.2056,-5.9075,5.6671,-1.3662,-0.2222,-0.7414,1943,2019-08-07 17:02:28:187
-0.681,15.1384,-8.5034,0.2056,-5.9075,5.6671,-2.0074,0.5469,-0.8255,1948,2019-08-07 17:02:28:192
-0.681,15.1384,-8.5034,0.2056,-5.9075,5.6671,-2.0074,0.5469,-0.8255,1953,2019-08-07 17:02:28:197
-1.1308,16.8379,-2.7478,0.0953,-8.1955,-1.7769,-2.3792,0.6204,-1.0109,1957,2019-08-07 17:02:28:201
-1.1308,16.8379,-2.7478,0.0953,-8.1955,-1.7769,-2.3792,0.6204,-1.0109,1963,2019-08-07 17:02:28:207
-3.609,19.6545,-3.4643,0.0953,-8.1955,-1.7769,-2.4059,0.0399,-1.1153,1969,2019-08-07 17:02:28:213
-3.609,19.6545,-3.4643,0.0953,-8.1955,-1.7769,-2.4059,0.0399,-1.1153,1972,2019-08-07 17:02:28:216
-3.609,19.6545,-3.4643,3.1273,-12.5819,0.2715,-2.4889,-0.1316,-1.0301,1978,2019-08-07 17:02:28:222
-4.1305,21.9793,-4.3741,3.1273,-12.5819,0.2715,-2.4889,-0.1316,-1.0301,1983,2019-08-07 17:02:28:227
-4.1305,21.9793,-4.3741,3.1273,-12.5819,0.2715,-2.4889,-0.1316,-1.0301,1988,2019-08-07 17:02:28:232
-4.1305,21.9793,-4.3741,3.1273,-12.5819,0.2715,-2.7989,0.0772,-0.7084,1993,2019-08-07 17:02:28:237
-3.2071,21.7311,-3.6057,0.9923,-12.4666,-0.9837,-2.7989,0.0772,-0.7084,1998,2019-08-07 17:02:28:242
-3.2071,21.7311,-3.6057,0.9923,-12.4666,-0.9837,-2.9182,0.2029,-0.5422,2002,2019-08-07 17:02:28:246
-0.9205,21.8409,-0.8906,0.9923,-12.4666,-0.9837,-2.9182,0.2029,-0.5422,2008,2019-08-07 17:02:28:252
-0.9205,21.8409,-0.8906,0.9923,-12.4666,-0.9837,-2.9182,0.1389,-0.4218,2013,2019-08-07 17:02:28:257
-0.4182,21.8314,-2.333,-1.0078,-12.6061,-0.6833,-2.9182,0.1389,-0.4218,2018,2019-08-07 17:02:28:262
-0.4182,21.8314,-2.333,-1.0078,-12.6061,-0.6833,-2.882,0.401,-0.3238,2023,2019-08-07 17:02:28:267
-0.4182,21.8314,-2.333,-1.0078,-12.6061,-0.6833,-2.882,0.401,-0.3238,2028,2019-08-07 17:02:28:272
0.7922,20.5711,-2.9458,-1.0078,-12.6061,-0.6833,-2.9449,0.9464,-0.2631,2033,2019-08-07 17:02:28:277
0.7922,20.5711,-2.9458,-3.0836,-10.7949,-0.6945,-2.9449,0.9464,-0.2631,2038,2019-08-07 17:02:28:282
0.7922,20.5711,-2.9458,-3.0836,-10.7949,-0.6945,-2.9449,0.9464,-0.2631,2043,2019-08-07 17:02:28:287
1.95,20.2656,-0.8246,-3.0836,-10.7949,-0.6945,-2.9459,1.6783,-0.3132,2048,2019-08-07 17:02:28:292
1.95,20.2656,-0.8246,-3.0836,-10.7949,-0.6945,-2.9459,1.6783,-0.3132,2054,2019-08-07 17:02:28:298
-0.0929,18.6472,-6.2832,-1.2968,-9.1394,4.3067,-2.4783,2.1289,-0.3227,2058,2019-08-07 17:02:28:302
-0.0929,18.6472,-6.2832,-1.2968,-9.1394,4.3067,-2.4783,2.1289,-0.3227,2063,2019-08-07 17:02:28:307
-0.0929,18.6472,-6.2832,-1.2968,-9.1394,4.3067,-1.7369,2.1235,-0.1097,2068,2019-08-07 17:02:28:312
-0.6,24.4474,-7.6408,-1.2968,-9.1394,4.3067,-1.7369,2.1235,-0.1097,2073,2019-08-07 17:02:28:317
-0.6,24.4474,-7.6408,-1.2968,-9.1394,4.3067,-2.3899,1.9094,-0.0777,2078,2019-08-07 17:02:28:322
-0.6,24.4474,-7.6408,1.1559,-9.1065,5.1863,-2.3899,1.9094,-0.0777,2083,2019-08-07 17:02:28:327
0.4095,18.8955,-8.0179,1.1559,-9.1065,5.1863,-3.126,1.9851,-0.2439,2088,2019-08-07 17:02:28:332
0.4095,18.8955,-8.0179,1.1559,-9.1065,5.1863,-3.126,1.9851,-0.2439,2093,2019-08-07 17:02:28:337
-4.5566,22.4615,40.3929,1.1559,-9.1065,5.1863,-2.9694,1.4471,0.3686,2098,2019-08-07 17:02:28:342
-4.5566,22.4615,40.3929,0.173,-8.2782,-36.9371,-2.9694,1.4471,0.3686,2103,2019-08-07 17:02:28:347
-4.5566,22.4615,40.3929,0.173,-8.2782,-36.9371,-2.9694,1.4471,0.3686,2108,2019-08-07 17:02:28:352
-0.5665,12.6656,8.108,-0.6296,-2.9647,-8.9429,-2.3718,-0.088,0.7074,2113,2019-08-07 17:02:28:357
-0.5665,12.6656,8.108,-0.6296,-2.9647,-8.9429,-2.3718,-0.088,0.7074,2119,2019-08-07 17:02:28:363
-0.5665,12.6656,8.108,-0.6296,-2.9647,-8.9429,-2.6924,0.1943,0.6967,2123,2019-08-07 17:02:28:367
-10.977,17.7689,5.2703,-0.6296,-2.9647,-8.9429,-2.6924,0.1943,0.6967,2128,2019-08-07 17:02:28:372
-10.977,17.7689,5.2703,10.4619,-12.1107,-3.341,-2.1598,0.286,0.5423,2133,2019-08-07 17:02:28:377
-18.4165,30.4099,21.0616,10.4619,-12.1107,-3.341,-2.1598,0.286,0.5423,2138,2019-08-07 17:02:28:382
-18.4165,30.4099,21.0616,10.4619,-12.1107,-3.341,-2.1598,0.286,0.5423,2142,2019-08-07 17:02:28:386
-18.4165,30.4099,21.0616,10.4619,-12.1107,-3.341,-0.857,-1.9138,0.7393,2148,2019-08-07 17:02:28:392
-5.2838,11.8493,17.908,4.3033,-2.0885,-17.88,-0.857,-1.9138,0.7393,2152,2019-08-07 17:02:28:396
-5.2838,11.8493,17.908,4.3033,-2.0885,-17.88,0.8741,-4.9285,1.2048,2158,2019-08-07 17:02:28:402
4.9018,3.0512,-7.4098,-3.745,6.0582,4.0199,0.8741,-4.9285,1.2048,2163,2019-08-07 17:02:28:407
4.9018,3.0512,-7.4098,-3.745,6.0582,4.0199,0.5236,-3.2326,0.9556,2169,2019-08-07 17:02:28:413
4.9018,3.0512,-7.4098,-3.745,6.0582,4.0199,0.5236,-3.2326,0.9556,2173,2019-08-07 17:02:28:417
10.2171,6.2496,-10.9499,-3.745,6.0582,4.0199,-0.384,-1.8893,0.6903,2178,2019-08-07 17:02:28:422
10.2171,6.2496,-10.9499,-10.4105,2.4036,9.1943,-0.384,-1.8893,0.6903,2184,2019-08-07 17:02:28:428
10.2171,6.2496,-10.9499,-10.4105,2.4036,9.1943,-0.384,-1.8893,0.6903,2187,2019-08-07 17:02:28:431
8.1934,8.3931,-3.1438,-10.4105,2.4036,9.1943,-0.7462,1.0199,0.5806,2193,2019-08-07 17:02:28:437
8.1934,8.3931,-3.1438,-10.4105,2.4036,9.1943,-0.7462,1.0199,0.5806,2199,2019-08-07 17:02:28:443
3.6101,8.4408,6.6326,-5.389,1.3242,-5.3926,-0.8697,1.5643,0.4485,2203,2019-08-07 17:02:28:447
3.6101,8.4408,6.6326,-5.389,1.3242,-5.3926,-0.8697,1.5643,0.4485,2207,2019-08-07 17:02:28:451
3.6101,8.4408,6.6326,-5.389,1.3242,-5.3926,-0.6418,0.9368,0.3185,2213,2019-08-07 17:02:28:457
-2.5999,9.3669,6.873,-5.389,1.3242,-5.3926,-0.6418,0.9368,0.3185,2218,2019-08-07 17:02:28:462
-2.5999,9.3669,6.873,2.6857,0.0022,-6.1129,-0.0974,-0.6153,0.3707,2223,2019-08-07 17:02:28:467
-2.5568,10.3408,4.9356,2.6857,0.0022,-6.1129,-0.0974,-0.6153,0.3707,2228,2019-08-07 17:02:28:472
-2.5568,10.3408,4.9356,2.6857,0.0022,-6.1129,0.056,-1.0254,0.3484,2233,2019-08-07 17:02:28:477
-2.5568,10.3408,4.9356,2.6857,0.0022,-6.1129,0.056,-1.0254,0.3484,2238,2019-08-07 17:02:28:482
-0.6719,10.5795,-0.8529,0.3335,-0.7787,1.1121,0.056,-1.0254,0.3484,2243,2019-08-07 17:02:28:487
-0.6719,10.5795,-0.8529,0.3335,-0.7787,1.1121,0.1007,-0.448,0.2791,2249,2019-08-07 17:02:28:493
0.0793,9.7011,0.4811,0.3335,-0.7787,1.1121,0.1007,-0.448,0.2791,2252,2019-08-07 17:02:28:496
0.0793,9.7011,0.4811,0.3335,-0.7787,1.1121,-0.1273,0.2433,0.3313,2258,2019-08-07 17:02:28:502
0.0793,9.7011,0.4811,-0.928,0.0585,-2.2532,-0.1273,0.2433,0.3313,2263,2019-08-07 17:02:28:507
0.4142,10.2453,2.6871,-0.928,0.0585,-2.2532,-0.0388,0.173,0.2727,2267,2019-08-07 17:02:28:511
0.4142,10.2453,2.6871,-0.928,0.0585,-2.2532,-0.0388,0.173,0.2727,2273,2019-08-07 17:02:28:517
0.4142,10.2453,2.6871,-0.928,0.0585,-2.2532,0.0783,0.026,0.2578,2277,2019-08-07 17:02:28:521
0.0888,10.2453,1.3248,-0.4033,-0.2316,-0.819,0.0783,0.026,0.2578,2284,2019-08-07 17:02:28:528
0.0888,10.2453,1.3248,-0.4033,-0.2316,-0.819,0.057,0.091,0.2397,2288,2019-08-07 17:02:28:532
0.0888,10.2453,1.3248,-0.4033,-0.2316,-0.819,0.057,0.091,0.2397,2292,2019-08-07 17:02:28:536
0.4668,9.6104,1.3343,-0.4033,-0.2316,-0.819,0.0879,0.0228,0.228,2298,2019-08-07 17:02:28:542
0.4668,9.6104,1.3343,-0.5426,0.0704,-1.5225,0.0879,0.0228,0.228,2303,2019-08-07 17:02:28:547
0.4907,9.6534,1.5935,-0.5426,0.0704,-1.5225,0.0879,0.0228,0.228,2308,2019-08-07 17:02:28:552
0.4907,9.6534,1.5935,-0.5426,0.0704,-1.5225,0.1913,-0.2115,0.2099,2313,2019-08-07 17:02:28:557
0.4907,9.6534,1.5935,-0.5426,0.0704,-1.5225,0.1913,-0.2115,0.2099,2318,2019-08-07 17:02:28:562
1.6102,9.5149,0.5046,-1.9383,0.2724,-0.1242,0.2072,-0.1668,0.1204,2323,2019-08-07 17:02:28:567
1.6102,9.5149,0.5046,-1.9383,0.2724,-0.1242,0.2072,-0.1668,0.1204,2328,2019-08-07 17:02:28:572
2.1891,9.5436,-0.1742,-1.9383,0.2724,-0.1242,0.1518,0.0899,0.0501,2334,2019-08-07 17:02:28:578
2.1891,9.5436,-0.1742,-1.9383,0.2724,-0.1242,0.1518,0.0899,0.0501,2338,2019-08-07 17:02:28:582
2.1891,9.5436,-0.1742,-1.9383,0.2724,-0.1242,0.1518,0.0899,0.0501,2343,2019-08-07 17:02:28:587
1.1557,9.8348,-0.1977,-1.2447,-0.0273,0.4035,0.0485,0.4276,0.0139,2348,2019-08-07 17:02:28:592
1.1557,9.8348,-0.1977,-1.2447,-0.0273,0.4035,0.0485,0.4276,0.0139,2353,2019-08-07 17:02:28:597
-1.1695,10.3933,1.207,-1.2447,-0.0273,0.4035,-0.0442,0.5949,0.0267,2358,2019-08-07 17:02:28:602
-1.1695,10.3933,1.207,1.5001,-0.5717,-1.5001,-0.0442,0.5949,0.0267,2363,2019-08-07 17:02:28:607
-1.1695,10.3933,1.207,1.5001,-0.5717,-1.5001,-0.0122,0.3712,0.0469,2368,2019-08-07 17:02:28:612
-1.7532,10.2071,1.6218,1.5001,-0.5717,-1.5001,-0.0122,0.3712,0.0469,2373,2019-08-07 17:02:28:617
-1.7532,10.2071,1.6218,1.5001,-0.5717,-1.5001,0.0517,-0.0123,0.0831,2378,2019-08-07 17:02:28:622
-0.8585,10.2453,0.712,0.7711,-0.438,-0.4979,0.0517,-0.0123,0.0831,2383,2019-08-07 17:02:28:627
-0.8585,10.2453,0.712,0.7711,-0.438,-0.4979,0.0698,-0.2009,0.1406,2389,2019-08-07 17:02:28:633
-0.8585,10.2453,0.712,0.7711,-0.438,-0.4979,0.0698,-0.2009,0.1406,2392,2019-08-07 17:02:28:636
-0.1457,9.9159,0.0191,0.0709,-0.1084,0.1885,-0.0026,-0.0379,0.1492,2398,2019-08-07 17:02:28:642
-0.1457,9.9159,0.0191,0.0709,-0.1084,0.1885,-0.0026,-0.0379,0.1492,2403,2019-08-07 17:02:28:647
-0.2988,9.935,0.8346,0.0709,-0.1084,0.1885,-0.0026,-0.0379,0.1492,2408,2019-08-07 17:02:28:652
-0.2988,9.935,0.8346,0.0709,-0.1084,0.1885,-0.0548,0.0516,0.1641,2413,2019-08-07 17:02:28:657
-0.2988,9.935,0.8346,0.4349,-0.2516,-1.0075,-0.0548,0.0516,0.1641,2419,2019-08-07 17:02:28:663
-0.7437,10.484,1.7255,0.4349,-0.2516,-1.0075,-0.0143,-0.0837,0.1854,2423,2019-08-07 17:02:28:667
-0.7437,10.484,1.7255,0.4349,-0.2516,-1.0075,-0.0143,-0.0837,0.1854,2428,2019-08-07 17:02:28:672
-0.5811,10.3313,1.7679,0.4251,-0.3759,-1.4379,0.0368,-0.2722,0.2088,2433,2019-08-07 17:02:28:677
-0.5811,10.3313,1.7679,0.4251,-0.3759,-1.4379,0.0368,-0.2722,0.2088,2438,2019-08-07 17:02:28:682
-0.5811,10.3313,1.7679,0.4251,-0.3759,-1.4379,0.0368,-0.2722,0.2088,2443,2019-08-07 17:02:28:687
0.5576,9.577,0.7686,-0.548,0.2304,-0.5443,0.0688,-0.3809,0.1897,2448,2019-08-07 17:02:28:692
0.5576,9.577,0.7686,-0.548,0.2304,-0.5443,0.0688,-0.3809,0.1897,2453,2019-08-07 17:02:28:697
0.5576,9.577,0.7686,-0.548,0.2304,-0.5443,0.0677,-0.3276,0.114,2458,2019-08-07 17:02:28:702
1.4235,9.6868,0.7026,-0.548,0.2304,-0.5443,0.0677,-0.3276,0.114,2463,2019-08-07 17:02:28:707
1.4235,9.6868,0.7026,-1.4948,-0.0559,-0.3751,0.0634,-0.2371,0.0863,2468,2019-08-07 17:02:28:712
1.4235,9.6868,0.7026,-1.4948,-0.0559,-0.3751,0.0634,-0.2371,0.0863,2472,2019-08-07 17:02:28:716
1.3087,9.7918,0.2501,-1.4948,-0.0559,-0.3751,0.0102,-0.0464,0.0522,2478,2019-08-07 17:02:28:722
1.3087,9.7918,0.2501,-1.1325,0.221,-0.5396,0.0102,-0.0464,0.0522,2484,2019-08-07 17:02:28:728
1.0886,9.6916,0.8959,-1.1325,0.221,-0.5396,0.0144,0.0367,-0.017,2489,2019-08-07 17:02:28:733
1.0886,9.6916,0.8959,-1.1325,0.221,-0.5396,0.0144,0.0367,-0.017,2493,2019-08-07 17:02:28:737
0.5528,9.7059,1.0326,-1.1325,0.221,-0.5396,0.0379,-0.0113,-0.0234,2499,2019-08-07 17:02:28:743
0.5528,9.7059,1.0326,-0.308,0.0395,-0.491,0.0379,-0.0113,-0.0234,2504,2019-08-07 17:02:28:748
0.5528,9.7059,1.0326,-0.308,0.0395,-0.491,0.0379,-0.0113,-0.0234,2508,2019-08-07 17:02:28:752
0.548,9.725,0.6319,-0.308,0.0395,-0.491,0.0272,0.0473,-0.0191,2513,2019-08-07 17:02:28:757
0.548,9.725,0.6319,-0.308,0.0395,-0.491,0.0272,0.0473,-0.0191,2518,2019-08-07 17:02:28:762
0.1652,9.8825,1.4191,-0.308,0.0395,-0.491,0.0187,0.0953,-0.0511,2523,2019-08-07 17:02:28:767
0.1652,9.8825,1.4191,-0.0441,-0.0608,-1.2057,0.0187,0.0953,-0.0511,2528,2019-08-07 17:02:28:772
0.1652,9.8825,1.4191,-0.0441,-0.0608,-1.2057,0.04,0.1336,-0.033,2534,2019-08-07 17:02:28:778
0.0408,9.8539,0.9948,-0.0441,-0.0608,-1.2057,0.04,0.1336,-0.033,2538,2019-08-07 17:02:28:782
0.0408,9.8539,0.9948,-0.0441,-0.0608,-1.2057,0.04,0.1336,-0.033,2543,2019-08-07 17:02:28:787
0.0408,9.8539,0.9948,0.1777,-0.2278,-0.401,0.0357,0.1688,-0.0266,2548,2019-08-07 17:02:28:792
-0.3802,10.1546,0.6083,0.1777,-0.2278,-0.401,0.0357,0.1688,-0.0266,2553,2019-08-07 17:02:28:797
-0.3802,10.1546,0.6083,0.1777,-0.2278,-0.401,0.0229,0.1507,-0.0245,2558,2019-08-07 17:02:28:802
-0.3802,10.1546,0.6083,0.1777,-0.2278,-0.401,0.0229,0.1507,-0.0245,2563,2019-08-07 17:02:28:807
-0.6242,10.126,1.075,0.6744,-0.3184,-0.8637,0.0389,0.0718,-0.0074,2569,2019-08-07 17:02:28:813
-0.6242,10.126,1.075,0.6744,-0.3184,-0.8637,0.0389,0.0718,-0.0074,2572,2019-08-07 17:02:28:816
-0.6242,10.126,1.075,0.6744,-0.3184,-0.8637,0.0613,-0.04,0.0118,2578,2019-08-07 17:02:28:822
-0.2175,9.9732,0.6224,0.6744,-0.3184,-0.8637,0.0613,-0.04,0.0118,2583,2019-08-07 17:02:28:827
-0.2175,9.9732,0.6224,-0.0102,-0.1941,-0.1913,0.04,-0.056,0.0203,2588,2019-08-07 17:02:28:832
-0.2175,9.9732,0.6224,-0.0102,-0.1941,-0.1913,0.04,-0.056,0.0203,2593,2019-08-07 17:02:28:837
0.1843,9.9589,0.6319,-0.0102,-0.1941,-0.1913,0.0261,-0.0421,0.016,2598,2019-08-07 17:02:28:842
0.1843,9.9589,0.6319,-0.0102,-0.1941,-0.1913,0.0261,-0.0421,0.016,2603,2019-08-07 17:02:28:847
0.3326,9.8348,1.1598,-0.2399,0.0493,-0.9473,0.0261,-0.0421,0.016,2608,2019-08-07 17:02:28:852
0.3326,9.8348,1.1598,-0.2399,0.0493,-0.9473,0.0411,-0.089,0.0032,2613,2019-08-07 17:02:28:857
0.3326,9.8348,1.1598,-0.2399,0.0493,-0.9473,0.0411,-0.089,0.0032,2617,2019-08-07 17:02:28:861
0.6771,10.0639,0.7544,-0.2399,0.0493,-0.9473,0.0389,-0.1114,-0.0096,2623,2019-08-07 17:02:28:867
0.6771,10.0639,0.7544,-0.6856,-0.2418,-0.3324,0.0389,-0.1114,-0.0096,2627,2019-08-07 17:02:28:871
0.7776,10.0973,0.3868,-0.6856,-0.2418,-0.3324,0.0198,-0.0432,-0.033,2633,2019-08-07 17:02:28:877
0.7776,10.0973,0.3868,-0.6856,-0.2418,-0.3324,0.0198,-0.0432,-0.033,2638,2019-08-07 17:02:28:882
0.7776,10.0973,0.3868,-0.6856,-0.2418,-0.3324,0.0198,-0.0432,-0.033,2643,2019-08-07 17:02:28:887
0.4522,9.8348,0.7639,-0.3973,-0.027,-0.563,-5.0E-4,0.0377,-0.0618,2649,2019-08-07 17:02:28:893
0.4522,9.8348,0.7639,-0.3973,-0.027,-0.563,-5.0E-4,0.0377,-0.0618,2653,2019-08-07 17:02:28:897
0.4522,9.8348,0.7639,-0.3973,-0.027,-0.563,-0.0058,0.0409,-0.0649,2658,2019-08-07 17:02:28:902
0.036,9.7823,0.7403,-0.3973,-0.027,-0.563,-0.0058,0.0409,-0.0649,2663,2019-08-07 17:02:28:907
0.036,9.7823,0.7403,0.2118,-0.0509,-0.6653,-0.0133,0.0441,-0.0586,2668,2019-08-07 17:02:28:912
-0.1602,9.8157,0.811,0.2118,-0.0509,-0.6653,-0.0133,0.0441,-0.0586,2673,2019-08-07 17:02:28:917
-0.1602,9.8157,0.811,0.2676,-0.2085,-0.7509,-0.0143,0.025,-0.0532,2678,2019-08-07 17:02:28:922
-0.1602,9.8157,0.811,0.2676,-0.2085,-0.7509,-0.0143,0.025,-0.0532,2682,2019-08-07 17:02:28:926
-0.2415,10.021,1.0137,0.2676,-0.2085,-0.7509,0.0059,-0.0645,-0.0287,2689,2019-08-07 17:02:28:933
-0.2415,10.021,1.0137,0.2676,-0.2085,-0.7509,0.0059,-0.0645,-0.0287,2692,2019-08-07 17:02:28:936
0.0551,9.8969,0.9477,-0.1235,0.0253,-0.5097,0.0059,-0.0645,-0.0287,2697,2019-08-07 17:02:28:941
0.0551,9.8969,0.9477,-0.1235,0.0253,-0.5097,0.0198,-0.0571,-0.0404,2704,2019-08-07 17:02:28:948
0.0551,9.8969,0.9477,-0.1235,0.0253,-0.5097,0.0198,-0.0571,-0.0404,2708,2019-08-07 17:02:28:952
0.3182,9.8348,0.679,-0.1235,0.0253,-0.5097,0.0027,-0.0176,-0.0426,2713,2019-08-07 17:02:28:957
0.3182,9.8348,0.679,-0.3734,-0.0702,-0.4844,0.0027,-0.0176,-0.0426,2718,2019-08-07 17:02:28:962
0.3995,9.8157,0.6319,-0.3734,-0.0702,-0.4844,0.0016,0.0239,-0.0511,2723,2019-08-07 17:02:28:967
0.3995,9.8157,0.6319,-0.3734,-0.0702,-0.4844,0.0016,0.0239,-0.0511,2728,2019-08-07 17:02:28:972
0.3995,9.8157,0.6319,-0.3734,-0.0702,-0.4844,-0.0048,0.0644,-0.0671,2733,2019-08-07 17:02:28:977
0.1938,9.8396,0.9477,-0.2162,0.0013,-0.6967,-0.0048,0.0644,-0.0671,2738,2019-08-07 17:02:28:982
0.1938,9.8396,0.9477,-0.2162,0.0013,-0.6967,0.0027,0.074,-0.0735,2742,2019-08-07 17:02:28:986
0.2321,9.768,0.9948,-0.2162,0.0013,-0.6967,0.0027,0.074,-0.0735,2748,2019-08-07 17:02:28:992
0.2321,9.768,0.9948,-0.2162,0.0013,-0.6967,0.0144,0.0676,-0.0831,2753,2019-08-07 17:02:28:997
0.2321,9.768,0.9948,-0.1444,-0.142,-0.6031,0.0144,0.0676,-0.0831,2758,2019-08-07 17:02:29:002
0.0933,9.9923,0.8581,-0.1444,-0.142,-0.6031,0.0208,0.0814,-0.0745,2763,2019-08-07 17:02:29:007
0.0933,9.9923,0.8581,-0.1444,-0.142,-0.6031,0.0208,0.0814,-0.0745,2768,2019-08-07 17:02:29:012
-0.2751,10.4029,1.0561,-0.1444,-0.142,-0.6031,0.0219,0.0633,-0.0532,2773,2019-08-07 17:02:29:017
-0.2751,10.4029,1.0561,-0.1444,-0.142,-0.6031,0.0219,0.0633,-0.0532,2777,2019-08-07 17:02:29:021
-0.2751,10.4029,1.0561,0.3008,-0.4714,-0.8605,0.0219,-0.0155,-0.033,2784,2019-08-07 17:02:29:028
-0.5478,9.9398,0.4999,0.3008,-0.4714,-0.8605,0.0219,-0.0155,-0.033,2788,2019-08-07 17:02:29:032
-0.5478,9.9398,0.4999,0.3008,-0.4714,-0.8605,0.0102,-0.0496,-0.0181,2793,2019-08-07 17:02:29:037
-0.5478,9.9398,0.4999,0.3008,-0.4714,-0.8605,0.0102,-0.0496,-0.0181,2798,2019-08-07 17:02:29:042
-0.4856,9.9589,0.6931,0.4596,-0.1516,-0.4649,0.0102,-0.0496,-0.0181,2803,2019-08-07 17:02:29:047
-0.4856,9.9589,0.6931,0.4596,-0.1516,-0.4649,-0.0016,-0.0997,-0.0117,2808,2019-08-07 17:02:29:052
-0.4856,9.9589,0.6931,0.4596,-0.1516,-0.4649,-0.0016,-0.0997,-0.0117,2813,2019-08-07 17:02:29:057
-0.1937,9.8969,0.5941,0.0644,-0.1278,-0.2826,0.0091,-0.1391,-0.0021,2818,2019-08-07 17:02:29:062
-0.1937,9.8969,0.5941,0.0644,-0.1278,-0.2826,0.0091,-0.1391,-0.0021,2823,2019-08-07 17:02:29:067
0.1077,9.9541,0.5706,0.0644,-0.1278,-0.2826,-0.009,-0.1156,-0.0085,2828,2019-08-07 17:02:29:072
0.1077,9.9541,0.5706,-0.1218,-0.0562,-0.3564,-0.009,-0.1156,-0.0085,2833,2019-08-07 17:02:29:077
0.1077,9.9541,0.5706,-0.1218,-0.0562,-0.3564,-0.0154,-0.073,-0.017,2838,2019-08-07 17:02:29:082
0.0646,9.8969,0.6931,-0.1218,-0.0562,-0.3564,-0.0154,-0.073,-0.017,2843,2019-08-07 17:02:29:087
0.0646,9.8969,0.6931,-0.2913,-0.0325,-0.6374,-0.0079,-0.0613,-0.0234,2848,2019-08-07 17:02:29:092
0.2559,9.8109,0.7827,-0.2913,-0.0325,-0.6374,-0.0079,-0.0613,-0.0234,2853,2019-08-07 17:02:29:097
0.2559,9.8109,0.7827,-0.2913,-0.0325,-0.6374,-0.0079,-0.0613,-0.0234,2857,2019-08-07 17:02:29:101
0.2655,9.8587,0.6837,-0.2913,-0.0325,-0.6374,0.0038,-0.0347,-0.0341,2863,2019-08-07 17:02:29:107
0.2655,9.8587,0.6837,-0.3957,0.0485,-0.6328,0.0038,-0.0347,-0.0341,2868,2019-08-07 17:02:29:112
0.2655,9.8587,0.6837,-0.3957,0.0485,-0.6328,-0.009,0.0143,-0.0373,2872,2019-08-07 17:02:29:116
0.3708,9.7489,0.9854,-0.3957,0.0485,-0.6328,-0.009,0.0143,-0.0373,2878,2019-08-07 17:02:29:122
0.3708,9.7489,0.9854,-0.3363,0.0722,-0.7187,-0.0026,0.0409,-0.0436,2883,2019-08-07 17:02:29:127
0.3708,9.7489,0.9854,-0.3363,0.0722,-0.7187,-0.0026,0.0409,-0.0436,2889,2019-08-07 17:02:29:133
0.2129,9.8157,0.778,-0.3363,0.0722,-0.7187,-0.0026,0.0409,-0.0436,2893,2019-08-07 17:02:29:137
0.2129,9.8157,0.778,-0.3363,0.0722,-0.7187,0.0016,0.0505,-0.049,2898,2019-08-07 17:02:29:142
0.1028,9.9732,1.1881,-0.1764,-0.1857,-0.9347,0.0016,0.0505,-0.049,2903,2019-08-07 17:02:29:147
0.1028,9.9732,1.1881,-0.1764,-0.1857,-0.9347,0.0059,0.0346,-0.0415,2908,2019-08-07 17:02:29:152
0.1028,9.9732,1.1881,-0.1764,-0.1857,-0.9347,0.0059,0.0346,-0.0415,2912,2019-08-07 17:02:29:156
-0.012,10.0353,0.7355,-0.1764,-0.1857,-0.9347,0.0091,0.0505,-0.0383,2919,2019-08-07 17:02:29:163
-0.012,10.0353,0.7355,-0.0644,-0.1811,-0.3888,0.0091,0.0505,-0.0383,2923,2019-08-07 17:02:29:167
-0.012,10.0353,0.7355,-0.0644,-0.1811,-0.3888,0.0091,0.0505,-0.0383,2928,2019-08-07 17:02:29:172
0.0119,9.8873,0.7733,0.0315,-0.0952,-0.4958,-5.0E-4,0.091,-0.0479,2934,2019-08-07 17:02:29:178
0.0119,9.8873,0.7733,0.0315,-0.0952,-0.4958,-5.0E-4,0.091,-0.0479,2938,2019-08-07 17:02:29:182
0.0119,9.8873,0.7733,0.0315,-0.0952,-0.4958,0.0102,0.0654,-0.0404,2943,2019-08-07 17:02:29:187
-0.0981,9.8587,0.9194,0.0315,-0.0952,-0.4958,0.0102,0.0654,-0.0404,2948,2019-08-07 17:02:29:192
-0.0981,9.8587,0.9194,0.027,-0.0619,-0.4501,0.0166,0.074,-0.0436,2953,2019-08-07 17:02:29:197
-0.0981,9.8587,0.9194,0.027,-0.0619,-0.4501,0.0166,0.074,-0.0436,2958,2019-08-07 17:02:29:202
-0.1364,9.7584,0.7544,0.027,-0.0619,-0.4501,0.0091,0.0836,-0.0394,2963,2019-08-07 17:02:29:207
-0.1364,9.7584,0.7544,0.027,-0.0619,-0.4501,0.0091,0.0836,-0.0394,2967,2019-08-07 17:02:29:211
-0.146,9.8014,1.1362,0.0089,0.0668,-0.9282,0.0261,0.0292,-0.0309,2973,2019-08-07 17:02:29:217
-0.146,9.8014,1.1362,0.0089,0.0668,-0.9282,0.0261,0.0292,-0.0309,2978,2019-08-07 17:02:29:222
-0.146,9.8014,1.1362,0.0089,0.0668,-0.9282,0.0464,0.0037,-0.0298,2984,2019-08-07 17:02:29:228
0.031,9.8396,0.6601,0.0089,0.0668,-0.9282,0.0464,0.0037,-0.0298,2988,2019-08-07 17:02:29:232
0.031,9.8396,0.6601,-0.2219,-0.0477,-0.4601,0.04,0.0633,-0.0362,2992,2019-08-07 17:02:29:236
0.2128,9.9303,0.8864,-0.2219,-0.0477,-0.4601,0.04,0.0633,-0.0362,2998,2019-08-07 17:02:29:242
0.2128,9.9303,0.8864,-0.2219,-0.0477,-0.4601,0.0421,0.0963,-0.0394,3004,2019-08-07 17:02:29:248
0.2128,9.9303,0.8864,-0.2219,-0.0477,-0.4601,0.0421,0.0963,-0.0394,3008,2019-08-07 17:02:29:252
0.1187,9.954,0.7453,-0.1912,-0.1621,-0.3938,0.0453,0.107,-0.0372,3013,2019-08-07 17:02:29:257
0.1187,9.954,0.7453,-0.1912,-0.1621,-0.3938,0.0453,0.107,-0.0372,3017,2019-08-07 17:02:29:261
0.0805,9.9158,0.6746,-0.1912,-0.1621,-0.3938,0.0293,0.1443,-0.0436,3023,2019-08-07 17:02:29:267
0.0805,9.9158,0.6746,-0.1912,-0.1621,-0.3938,0.0293,0.1443,-0.0436,3028,2019-08-07 17:02:29:272
0.0805,9.9158,0.6746,2.3179,0.1766,-7.6507,0.0293,0.1443,-0.0436,3033,2019-08-07 17:02:29:277
0.9273,8.6985,0.7594,2.3179,0.1766,-7.6507,-0.2945,-1.5974,-0.0085,3037,2019-08-07 17:02:29:281
0.9273,8.6985,0.7594,2.3179,0.1766,-7.6507,-0.2945,-1.5974,-0.0085,3043,2019-08-07 17:02:29:287
0.1044,10.5889,-0.4331,2.3179,0.1766,-7.6507,0.3308,0.0452,-0.1054,3048,2019-08-07 17:02:29:292
0.1044,10.5889,-0.4331,-1.0571,-0.1763,0.459,0.3308,0.0452,-0.1054,3052,2019-08-07 17:02:29:296
0.1044,10.5889,-0.4331,-1.0571,-0.1763,0.459,-0.1837,0.1272,-0.0032,3058,2019-08-07 17:02:29:302
0.6977,9.8394,0.981,-1.0571,-0.1763,0.459,-0.1837,0.1272,-0.0032,3063,2019-08-07 17:02:29:307
0.6977,9.8394,0.981,-1.0571,-0.1763,0.459,0.0432,0.4798,-0.0596,3068,2019-08-07 17:02:29:312
0.6977,9.8394,0.981,0.3282,-0.4298,-0.537,0.0432,0.4798,-0.0596,3073,2019-08-07 17:02:29:317
-0.3548,10.0829,0.6558,0.3282,-0.4298,-0.537,-0.0218,0.3669,-0.0159,3078,2019-08-07 17:02:29:322
-0.3548,10.0829,0.6558,0.3282,-0.4298,-0.537,-0.0218,0.3669,-0.0159,3083,2019-08-07 17:02:29:327
-0.3548,10.0829,0.6558,0.3282,-0.4298,-0.537,-0.0218,0.3669,-0.0159,3087,2019-08-07 17:02:29:331
-0.2256,10.0256,0.9009,0.0966,-0.196,-0.5911,0.0251,0.548,-0.0032,3093,2019-08-07 17:02:29:337
-0.2256,10.0256,0.9009,0.0966,-0.196,-0.5911,0.0251,0.548,-0.0032,3098,2019-08-07 17:02:29:342
-0.106,9.9731,0.9292,0.0966,-0.196,-0.5911,-5.0E-4,0.4308,0.0064,3102,2019-08-07 17:02:29:346
-0.106,9.9731,0.9292,0.0966,-0.196,-0.5911,-5.0E-4,0.4308,0.0064,3108,2019-08-07 17:02:29:352
-0.106,9.9731,0.9292,0.2508,-0.0292,-1.3833,-0.0335,0.0271,-0.0287,3113,2019-08-07 17:02:29:357
-0.4457,9.8967,1.4807,0.2508,-0.0292,-1.3833,-0.0335,0.0271,-0.0287,3118,2019-08-07 17:02:29:362
-0.4457,9.8967,1.4807,0.2508,-0.0292,-1.3833,0.0634,-0.1018,-0.0053,3123,2019-08-07 17:02:29:367
0.2098,9.8776,0.5144,0.2508,-0.0292,-1.3833,0.0634,-0.1018,-0.0053,3128,2019-08-07 17:02:29:372
0.2098,9.8776,0.5144,-0.6106,-0.0435,-0.1665,0.0283,-0.0805,-0.0063,3133,2019-08-07 17:02:29:377
0.2098,9.8776,0.5144,-0.6106,-0.0435,-0.1665,0.0283,-0.0805,-0.0063,3137,2019-08-07 17:02:29:381