ACCELEROMETER X (m/s²),ACCELEROMETER Y (m/s²),ACCELEROMETER Z (m/s²),LINEAR ACCELERATION X (m/s²),LINEAR ACCELERATION Y (m/s²),LINEAR ACCELERATION Z (m/s²),GYROSCOPE X (rad/s),GYROSCOPE Y (rad/s),GYROSCOPE Z (rad/s),Time since start in ms ,YYYY-MO-DD HH-MI-SS_SSS
6.6491,-7.4084,-0.0372,-0.0687,0.1,-0.0866,-0.0165,0.0111,0.0235,3,2019-08-07 16:27:15:618
6.6491,-7.4084,-0.0372,-0.0959,0.1686,0.0838,-0.0165,0.0111,0.0235,7,2019-08-07 16:27:15:622
6.6683,-7.4609,-0.0466,-0.0959,0.1686,0.0838,-0.0271,0.0143,0.0245,13,2019-08-07 16:27:15:628
6.6683,-7.4609,-0.0466,-0.0959,0.1686,0.0838,-0.0271,0.0143,0.0245,17,2019-08-07 16:27:15:632
6.6683,-7.4609,-0.0466,-0.0959,0.1686,0.0838,-0.0271,0.0143,0.0245,23,2019-08-07 16:27:15:638
6.7496,-7.4466,0.0193,-0.1804,0.1609,0.021,-0.0197,0.0431,0.0182,28,2019-08-07 16:27:15:643
6.7496,-7.4466,0.0193,-0.1804,0.1609,0.021,-0.0197,0.0431,0.0182,33,2019-08-07 16:27:15:648
6.7496,-7.4466,0.0193,-0.1804,0.1609,0.021,-0.0111,0.0516,0.0171,38,2019-08-07 16:27:15:653
6.7735,-7.3654,0.0382,-0.1804,0.1609,0.021,-0.0111,0.0516,0.0171,43,2019-08-07 16:27:15:658
6.7735,-7.3654,0.0382,-0.1827,0.1254,0.1099,-0.0026,0.058,0.0224,48,2019-08-07 16:27:15:663
6.7783,-7.3797,-0.0184,-0.1827,0.1254,0.1099,-0.0026,0.058,0.0224,52,2019-08-07 16:27:15:667
6.7783,-7.3797,-0.0184,-0.1827,0.1254,0.1099,0.0048,0.0697,0.0256,58,2019-08-07 16:27:15:673
6.7783,-7.3797,-0.0184,-0.1827,0.1254,0.1099,0.0048,0.0697,0.0256,63,2019-08-07 16:27:15:678
6.6921,-7.3415,-0.0561,-0.1048,0.0938,0.0381,0.0048,0.0697,0.0256,67,2019-08-07 16:27:15:682
6.6921,-7.3415,-0.0561,-0.1048,0.0938,0.0381,0.0155,0.0633,0.0267,73,2019-08-07 16:27:15:688
6.539,-7.3893,5.0E-4,0.0221,0.0965,0.0572,0.0155,0.0633,0.0267,78,2019-08-07 16:27:15:693
6.539,-7.3893,5.0E-4,0.0221,0.0965,0.0572,0.0187,0.0548,0.0341,83,2019-08-07 16:27:15:698
6.539,-7.3893,5.0E-4,0.0221,0.0965,0.0572,0.0187,0.0548,0.0341,88,2019-08-07 16:27:15:703
6.4624,-7.4227,0.024,0.0221,0.0965,0.0572,0.0187,0.0399,0.0352,93,2019-08-07 16:27:15:708
6.4624,-7.4227,0.024,0.1212,0.1722,-0.0052,0.0187,0.0399,0.0352,97,2019-08-07 16:27:15:712
6.4098,-7.4704,0.0099,0.1212,0.1722,-0.0052,0.0134,0.0292,0.0373,103,2019-08-07 16:27:15:718
6.4098,-7.4704,0.0099,0.1212,0.1722,-0.0052,0.0134,0.0292,0.0373,108,2019-08-07 16:27:15:723
6.4098,-7.4704,0.0099,0.1212,0.1722,-0.0052,0.0144,0.0282,0.0277,112,2019-08-07 16:27:15:727
6.3715,-7.5325,0.0523,0.1536,0.2194,0.0428,0.0144,0.0282,0.0277,118,2019-08-07 16:27:15:733
6.3715,-7.5325,0.0523,0.1536,0.2194,0.0428,0.0208,0.0282,0.0118,122,2019-08-07 16:27:15:737
6.3715,-7.5325,0.0523,0.1536,0.2194,0.0428,0.0208,0.0282,0.0118,128,2019-08-07 16:27:15:743
6.3954,-7.4847,0.0712,0.1536,0.2194,0.0428,0.0251,0.0346,-0.0053,134,2019-08-07 16:27:15:749
6.3954,-7.4847,0.0712,0.1228,0.1412,0.0408,0.0251,0.0346,-0.0053,138,2019-08-07 16:27:15:753
6.3954,-7.4847,0.0712,0.1228,0.1412,0.0408,0.0251,0.0346,-0.0053,143,2019-08-07 16:27:15:758
6.4384,-7.4084,-0.0184,0.1228,0.1412,0.0408,0.0176,0.0314,-0.0159,148,2019-08-07 16:27:15:763
6.4384,-7.4084,-0.0184,0.1228,0.1412,0.0408,0.0176,0.0314,-0.0159,153,2019-08-07 16:27:15:768
6.5532,-7.4418,0.0617,-0.0048,0.1379,0.0233,0.0144,0.0282,-0.0181,158,2019-08-07 16:27:15:773
6.5532,-7.4418,0.0617,-0.0048,0.1379,0.0233,0.0144,0.0282,-0.0181,163,2019-08-07 16:27:15:778
6.5532,-7.4418,0.0617,-0.0048,0.1379,0.0233,0.0219,0.0196,-0.0149,168,2019-08-07 16:27:15:783
6.6202,-7.3558,-0.0278,-0.0048,0.1379,0.0233,0.0219,0.0196,-0.0149,173,2019-08-07 16:27:15:788
6.6202,-7.3558,-0.0278,-0.0048,0.1379,0.0233,0.0229,0.0132,-0.0053,177,2019-08-07 16:27:15:792
6.6202,-7.3702,-0.0278,-0.1031,0.0921,0.1135,0.0229,0.0132,-0.0053,183,2019-08-07 16:27:15:798
6.6202,-7.3702,-0.0278,-0.1031,0.0921,0.1135,0.0272,-0.0049,0.0118,188,2019-08-07 16:27:15:803
6.6202,-7.3702,-0.0278,-0.1031,0.0921,0.1135,0.0272,-0.0049,0.0118,193,2019-08-07 16:27:15:808
6.625,-7.3988,-0.0231,-0.0422,0.1005,0.0926,0.0336,-0.0145,0.0213,198,2019-08-07 16:27:15:813
6.625,-7.3988,-0.0231,-0.0422,0.1005,0.0926,0.0336,-0.0145,0.0213,202,2019-08-07 16:27:15:817
6.625,-7.3988,-0.0231,-0.0422,0.1005,0.0926,0.0336,-0.0145,0.0213,208,2019-08-07 16:27:15:823
6.5771,-7.4609,-0.0043,-0.0422,0.1005,0.0926,0.0421,-0.0251,0.0235,213,2019-08-07 16:27:15:828
6.5771,-7.4609,-0.0043,-0.0422,0.1005,0.0926,0.0421,-0.0251,0.0235,218,2019-08-07 16:27:15:833
6.4766,-7.5229,0.0193,0.0542,0.178,0.1278,0.0474,-0.0251,0.0203,223,2019-08-07 16:27:15:838
6.4766,-7.5229,0.0193,0.0542,0.178,0.1278,0.0474,-0.0251,0.0203,228,2019-08-07 16:27:15:843
6.4575,-7.4418,0.0476,0.0542,0.178,0.1278,0.0538,-0.0187,0.0128,233,2019-08-07 16:27:15:848
6.4575,-7.4418,0.0476,0.0542,0.178,0.1278,0.0538,-0.0187,0.0128,238,2019-08-07 16:27:15:853
6.4575,-7.4418,0.0476,0.0658,0.1231,0.0387,0.0581,0.0015,-0.001,243,2019-08-07 16:27:15:858
6.4144,-7.4179,0.0759,0.0658,0.1231,0.0387,0.0581,0.0015,-0.001,247,2019-08-07 16:27:15:862
6.4144,-7.4179,0.0759,0.0658,0.1231,0.0387,0.0624,0.0079,-0.0138,253,2019-08-07 16:27:15:868
6.4144,-7.4179,0.0759,0.0658,0.1231,0.0387,0.0624,0.0079,-0.0138,257,2019-08-07 16:27:15:872
6.4861,-7.3558,0.1513,0.0571,0.0476,-0.0414,0.0528,-0.0038,-0.0234,263,2019-08-07 16:27:15:878
6.4861,-7.3558,0.1513,0.0571,0.0476,-0.0414,0.0528,-0.0038,-0.0234,268,2019-08-07 16:27:15:883
6.4861,-7.3558,0.1513,0.0571,0.0476,-0.0414,0.0464,-0.0262,-0.033,272,2019-08-07 16:27:15:887
6.4909,-7.3033,0.1607,0.0571,0.0476,-0.0414,0.0464,-0.0262,-0.033,278,2019-08-07 16:27:15:893
6.4909,-7.3033,0.1607,0.0659,0.0274,-0.0035,0.0421,-0.0571,-0.0266,282,2019-08-07 16:27:15:897
6.5866,-7.3558,0.0664,0.0659,0.0274,-0.0035,0.0421,-0.0571,-0.0266,288,2019-08-07 16:27:15:903
6.5866,-7.3558,0.0664,0.0659,0.0274,-0.0035,0.0421,-0.0571,-0.0266,293,2019-08-07 16:27:15:908
6.5866,-7.3558,0.0664,0.0659,0.0274,-0.0035,0.0368,-0.0954,-0.0117,298,2019-08-07 16:27:15:913
6.7875,-7.5181,-0.042,-0.2373,0.2161,0.1518,0.0368,-0.0954,-0.0117,303,2019-08-07 16:27:15:918
6.7875,-7.5181,-0.042,-0.2373,0.2161,0.1518,0.0432,-0.0997,-0.0042,307,2019-08-07 16:27:15:922
6.821,-7.5659,0.0193,-0.2373,0.2161,0.1518,0.0432,-0.0997,-0.0042,313,2019-08-07 16:27:15:928
6.821,-7.5659,0.0193,-0.2373,0.2161,0.1518,0.0666,-0.0837,-0.001,317,2019-08-07 16:27:15:932
6.821,-7.5659,0.0193,-0.1649,0.2595,0.1558,0.0666,-0.0837,-0.001,323,2019-08-07 16:27:15:938
6.6487,-7.5945,0.0051,-0.1649,0.2595,0.1558,0.0922,-0.056,0.0086,328,2019-08-07 16:27:15:943
6.6487,-7.5945,0.0051,-0.1649,0.2595,0.1558,0.0922,-0.056,0.0086,333,2019-08-07 16:27:15:948
6.5434,-7.6661,0.123,-0.1649,0.2595,0.1558,0.0922,-0.056,0.0086,337,2019-08-07 16:27:15:952
6.5434,-7.6661,0.123,0.0536,0.3298,-0.0457,0.1071,-0.0421,-0.0032,343,2019-08-07 16:27:15:958
6.5434,-7.6661,0.123,0.0536,0.3298,-0.0457,0.1071,-0.0421,-0.0032,348,2019-08-07 16:27:15:963
6.4382,-7.5372,0.3162,0.0536,0.3298,-0.0457,0.1135,-0.0464,-0.0117,353,2019-08-07 16:27:15:968
6.4382,-7.5372,0.3162,0.0536,0.3298,-0.0457,0.1135,-0.0464,-0.0117,358,2019-08-07 16:27:15:973
6.352,-7.4847,0.2785,0.2021,0.206,-0.1852,0.1114,-0.0635,-0.0223,363,2019-08-07 16:27:15:978
6.352,-7.4847,0.2785,0.2021,0.206,-0.1852,0.1114,-0.0635,-0.0223,368,2019-08-07 16:27:15:983
6.352,-7.4847,0.2785,0.2021,0.206,-0.1852,0.1082,-0.0901,-0.0319,373,2019-08-07 16:27:15:988
6.4429,-7.5229,0.3398,0.2021,0.206,-0.1852,0.1082,-0.0901,-0.0319,378,2019-08-07 16:27:15:993
6.4429,-7.5229,0.3398,0.0666,0.2425,-0.1222,0.1018,-0.1071,-0.0372,383,2019-08-07 16:27:15:998
6.4429,-7.5229,0.3398,0.0666,0.2425,-0.1222,0.1018,-0.1071,-0.0372,388,2019-08-07 16:27:16:003
6.596,-7.5611,0.2172,0.0666,0.2425,-0.1222,0.1018,-0.1071,-0.0372,393,2019-08-07 16:27:16:008
6.596,-7.5611,0.2172,0.0666,0.2425,-0.1222,0.105,-0.1082,-0.0319,398,2019-08-07 16:27:16:013
6.6964,-7.6709,0.1607,-0.1201,0.2848,-0.0072,0.1114,-0.0922,-0.0298,403,2019-08-07 16:27:16:018
6.6964,-7.6709,0.1607,-0.1201,0.2848,-0.0072,0.1114,-0.0922,-0.0298,407,2019-08-07 16:27:16:022
6.6964,-7.6709,0.1607,-0.1201,0.2848,-0.0072,0.1114,-0.0922,-0.0298,413,2019-08-07 16:27:16:028
6.7012,-7.6375,0.1088,-0.1201,0.2848,-0.0072,0.1263,-0.0837,-0.0213,418,2019-08-07 16:27:16:033
6.7012,-7.6375,0.1088,-0.1172,0.3686,-0.0247,0.1263,-0.0837,-0.0213,422,2019-08-07 16:27:16:037
6.5911,-7.6375,0.1418,-0.1172,0.3686,-0.0247,0.1423,-0.0794,-0.0159,428,2019-08-07 16:27:16:043
6.5911,-7.6375,0.1418,-0.1172,0.3686,-0.0247,0.1423,-0.0794,-0.0159,433,2019-08-07 16:27:16:048
6.5911,-7.6375,0.1418,-0.1172,0.3686,-0.0247,0.1572,-0.0922,-0.001,437,2019-08-07 16:27:16:052
6.5672,-7.6231,0.2125,0.0024,0.302,-0.0372,0.1572,-0.0922,-0.001,443,2019-08-07 16:27:16:058
6.5672,-7.6231,0.2125,0.0024,0.302,-0.0372,0.1668,-0.1114,0.0107,449,2019-08-07 16:27:16:064
6.6055,-7.5324,0.2031,0.0024,0.302,-0.0372,0.1668,-0.1114,0.0107,453,2019-08-07 16:27:16:068
6.6055,-7.5324,0.2031,0.0024,0.302,-0.0372,0.1721,-0.1263,0.0192,457,2019-08-07 16:27:16:072
6.6055,-7.5324,0.2031,-0.1151,0.2329,0.0993,0.1721,-0.1263,0.0192,463,2019-08-07 16:27:16:078
6.6964,-7.5038,0.1276,-0.1151,0.2329,0.0993,0.1742,-0.1178,0.0192,468,2019-08-07 16:27:16:083
6.6964,-7.5038,0.1276,-0.1151,0.2329,0.0993,0.1742,-0.1178,0.0192,473,2019-08-07 16:27:16:088
6.6964,-7.5038,0.1276,-0.1151,0.2329,0.0993,0.1881,-0.0826,0.0213,478,2019-08-07 16:27:16:093
6.6389,-7.4656,0.1842,-0.1085,0.1589,-0.0383,0.1881,-0.0826,0.0213,483,2019-08-07 16:27:16:098
6.6389,-7.4656,0.1842,-0.1085,0.1589,-0.0383,0.203,-0.0517,0.0288,488,2019-08-07 16:27:16:103
6.6389,-7.4656,0.1842,-0.1085,0.1589,-0.0383,0.203,-0.0517,0.0288,492,2019-08-07 16:27:16:107
6.5911,-7.3653,0.2549,-0.1085,0.1589,-0.0383,0.2019,-0.0475,0.0267,498,2019-08-07 16:27:16:113
6.5911,-7.3653,0.2549,0.1221,-0.0636,-0.0056,0.2019,-0.0475,0.0267,503,2019-08-07 16:27:16:118
6.3853,-7.1935,0.1653,0.1221,-0.0636,-0.0056,0.1934,-0.0666,0.0299,507,2019-08-07 16:27:16:122
6.3853,-7.1935,0.1653,0.1221,-0.0636,-0.0056,0.1934,-0.0666,0.0299,513,2019-08-07 16:27:16:128
6.3853,-7.1935,0.1653,0.1221,-0.0636,-0.0056,0.1795,-0.0901,0.0373,518,2019-08-07 16:27:16:133
6.481,-7.2221,0.2549,0.1221,-0.0636,-0.0056,0.1795,-0.0901,0.0373,522,2019-08-07 16:27:16:137
6.481,-7.2221,0.2549,0.0314,-0.0433,-0.0251,0.1774,-0.1188,0.0299,528,2019-08-07 16:27:16:143
6.4905,-7.2412,0.2455,0.0314,-0.0433,-0.0251,0.1774,-0.1188,0.0299,533,2019-08-07 16:27:16:148
6.4905,-7.2412,0.2455,0.0314,-0.0433,-0.0251,0.1774,-0.1188,0.0299,538,2019-08-07 16:27:16:153
6.4905,-7.2412,0.2455,0.0314,-0.0433,-0.0251,0.1721,-0.1465,0.0245,542,2019-08-07 16:27:16:157
6.5336,-7.1744,0.1606,0.0325,-0.1227,-0.0482,0.1721,-0.1465,0.0245,548,2019-08-07 16:27:16:163
6.5336,-7.1744,0.1606,0.0325,-0.1227,-0.0482,0.1593,-0.154,0.0203,553,2019-08-07 16:27:16:168
6.5336,-7.1744,0.1606,0.0325,-0.1227,-0.0482,0.1593,-0.154,0.0203,557,2019-08-07 16:27:16:172
6.6101,-7.1553,0.1559,0.0325,-0.1227,-0.0482,0.1444,-0.1593,0.0128,563,2019-08-07 16:27:16:178
6.6101,-7.1553,0.1559,-0.0884,-0.1716,0.1425,0.1444,-0.1593,0.0128,567,2019-08-07 16:27:16:182
6.6627,-7.141,0.0475,-0.0884,-0.1716,0.1425,0.1295,-0.1433,0.0,573,2019-08-07 16:27:16:188
6.6627,-7.141,0.0475,-0.0884,-0.1716,0.1425,0.1295,-0.1433,0.0,578,2019-08-07 16:27:16:193
6.8445,-7.2078,0.038,-0.3018,-0.0984,0.184,0.1178,-0.1402,-0.0085,583,2019-08-07 16:27:16:198
6.8445,-7.2078,0.038,-0.3018,-0.0984,0.184,0.1178,-0.1402,-0.0085,588,2019-08-07 16:27:16:203
6.8445,-7.2078,0.038,-0.3018,-0.0984,0.184,0.1178,-0.1402,-0.0085,593,2019-08-07 16:27:16:208
6.8875,-7.0885,0.0145,-0.3018,-0.0984,0.184,0.1092,-0.1231,-0.0106,597,2019-08-07 16:27:16:212
6.8875,-7.0885,0.0145,-0.3018,-0.0984,0.184,0.1092,-0.1231,-0.0106,603,2019-08-07 16:27:16:218
6.8875,-7.0885,0.0145,-0.4079,-0.1951,0.22,0.1156,-0.1082,-0.001,607,2019-08-07 16:27:16:222
6.9497,-7.0741,0.0569,-0.4079,-0.1951,0.22,0.1156,-0.1082,-0.001,613,2019-08-07 16:27:16:228
6.9497,-7.0741,0.0569,-0.4079,-0.1951,0.22,0.1263,-0.0826,0.0054,617,2019-08-07 16:27:16:232
7.0336,-6.9264,0.0574,-0.4079,-0.1951,0.22,0.1263,-0.0826,0.0054,623,2019-08-07 16:27:16:238
7.0336,-6.9264,0.0574,-0.4888,-0.4451,0.1678,0.1209,-0.0794,0.0203,628,2019-08-07 16:27:16:243
7.0336,-6.9264,0.0574,-0.4888,-0.4451,0.1678,0.1209,-0.0794,0.0203,633,2019-08-07 16:27:16:248
6.9714,-6.8405,0.1329,-0.4888,-0.4451,0.1678,0.1209,-0.0794,0.0203,637,2019-08-07 16:27:16:252
6.9714,-6.8405,0.1329,-0.4888,-0.4451,0.1678,0.105,-0.0773,0.0288,643,2019-08-07 16:27:16:258
6.8901,-6.7975,0.2978,-0.3066,-0.4732,-0.081,0.105,-0.0773,0.0288,649,2019-08-07 16:27:16:264
6.8901,-6.7975,0.2978,-0.3066,-0.4732,-0.081,0.0975,-0.0688,0.0288,653,2019-08-07 16:27:16:268
6.8901,-6.7975,0.2978,-0.3066,-0.4732,-0.081,0.0975,-0.0688,0.0288,657,2019-08-07 16:27:16:272
6.6413,-6.8882,0.4251,-0.3066,-0.4732,-0.081,0.0837,-0.0592,0.0192,663,2019-08-07 16:27:16:278
6.6413,-6.8882,0.4251,-0.0156,-0.4355,-0.2348,0.0837,-0.0592,0.0192,667,2019-08-07 16:27:16:282
6.4739,-6.9789,0.51,-0.0156,-0.4355,-0.2348,0.0474,-0.0581,0.0022,673,2019-08-07 16:27:16:288
6.4739,-6.9789,0.51,-0.0156,-0.4355,-0.2348,0.0474,-0.0581,0.0022,678,2019-08-07 16:27:16:293
6.4739,-6.9789,0.51,-0.0156,-0.4355,-0.2348,0.0091,-0.0677,-0.0266,683,2019-08-07 16:27:16:298
6.3256,-7.2701,0.5854,0.2254,-0.0282,-0.3487,0.0091,-0.0677,-0.0266,688,2019-08-07 16:27:16:303
6.3256,-7.2701,0.5854,0.2254,-0.0282,-0.3487,0.0091,-0.0677,-0.0777,693,2019-08-07 16:27:16:308
6.2299,-7.5565,0.5665,0.2254,-0.0282,-0.3487,-0.0282,-0.0794,-0.0777,698,2019-08-07 16:27:16:313
6.2299,-7.5565,0.5665,0.2254,-0.0282,-0.3487,-0.0431,-0.1018,-0.115,703,2019-08-07 16:27:16:318
6.2299,-7.5565,0.5665,0.3122,0.396,-0.3144,-0.0431,-0.1018,-0.115,708,2019-08-07 16:27:16:323
6.3208,-7.7475,0.5618,0.3122,0.396,-0.3144,-0.042,-0.1402,-0.1395,713,2019-08-07 16:27:16:328
6.3208,-7.7475,0.5618,0.3122,0.396,-0.3144,-0.042,-0.1402,-0.1395,718,2019-08-07 16:27:16:333
6.3208,-7.7475,0.5618,0.3122,0.396,-0.3144,-0.042,-0.1402,-0.1395,723,2019-08-07 16:27:16:338
6.6223,-7.8143,0.2837,-0.0423,0.5411,-0.0833,-0.0207,-0.171,-0.1501,728,2019-08-07 16:27:16:343
6.6223,-7.8143,0.2837,-0.0423,0.5411,-0.0833,-0.0207,-0.171,-0.1501,734,2019-08-07 16:27:16:349
6.6223,-7.8143,0.2837,-0.0423,0.5411,-0.0833,0.0048,-0.1732,-0.1491,737,2019-08-07 16:27:16:352
6.9811,-7.6711,0.2319,-0.0423,0.5411,-0.0833,0.0048,-0.1732,-0.1491,743,2019-08-07 16:27:16:358
6.9811,-7.6711,0.2319,-0.4364,0.384,0.0917,0.0304,-0.1657,-0.1171,748,2019-08-07 16:27:16:363
7.1677,-7.5804,-0.018,-0.4364,0.384,0.0917,0.0304,-0.1657,-0.1171,753,2019-08-07 16:27:16:368
7.1677,-7.5804,-0.018,-0.4364,0.384,0.0917,0.0304,-0.1657,-0.1171,757,2019-08-07 16:27:16:372
7.1677,-7.5804,-0.018,-0.4364,0.384,0.0917,0.0474,-0.1444,-0.0798,763,2019-08-07 16:27:16:378
7.4022,-7.4897,0.0952,-0.7841,0.2501,0.067,0.0474,-0.1444,-0.0798,767,2019-08-07 16:27:16:382
7.4022,-7.4897,0.0952,-0.7841,0.2501,0.067,0.0687,-0.1157,-0.0383,773,2019-08-07 16:27:16:388
7.4022,-7.4897,0.0952,-0.7841,0.2501,0.067,0.0687,-0.1157,-0.0383,778,2019-08-07 16:27:16:393
7.4931,-7.4372,0.0857,-0.7841,0.2501,0.067,0.0986,-0.0752,1.0E-4,783,2019-08-07 16:27:16:398
7.4931,-7.4372,0.0857,-0.7648,0.102,0.1704,0.0986,-0.0752,1.0E-4,788,2019-08-07 16:27:16:403
7.2634,-7.3179,0.0622,-0.7648,0.102,0.1704,0.1167,-0.0262,0.0288,793,2019-08-07 16:27:16:408
7.2634,-7.3179,0.0622,-0.7648,0.102,0.1704,0.1167,-0.0262,0.0288,798,2019-08-07 16:27:16:413
7.2634,-7.3179,0.0622,-0.7648,0.102,0.1704,0.1199,0.0164,0.064,803,2019-08-07 16:27:16:418
7.0099,-7.3895,0.0858,-0.3207,0.1783,-0.0108,0.1199,0.0164,0.064,807,2019-08-07 16:27:16:422
7.0099,-7.3895,0.0858,-0.3207,0.1783,-0.0108,0.1284,0.0473,0.0842,813,2019-08-07 16:27:16:428
6.7037,-7.3895,0.279,-0.3207,0.1783,-0.0108,0.1284,0.0473,0.0842,818,2019-08-07 16:27:16:433
6.7037,-7.3895,0.279,-0.3207,0.1783,-0.0108,0.1337,0.0495,0.0768,823,2019-08-07 16:27:16:438
6.7037,-7.3895,0.279,0.1361,0.0535,-0.0976,0.1337,0.0495,0.0768,827,2019-08-07 16:27:16:442
6.4741,-7.3131,0.3497,0.1361,0.0535,-0.0976,0.1284,0.0228,0.0736,833,2019-08-07 16:27:16:448
6.4741,-7.3131,0.3497,0.1361,0.0535,-0.0976,0.1284,0.0228,0.0736,838,2019-08-07 16:27:16:453
6.3688,-7.2845,0.3827,0.1361,0.0535,-0.0976,0.1071,-0.0145,0.0618,844,2019-08-07 16:27:16:459
6.3688,-7.2845,0.3827,0.2348,0.0391,-0.1579,0.1071,-0.0145,0.0618,849,2019-08-07 16:27:16:464
6.3688,-7.2845,0.3827,0.2348,0.0391,-0.1579,0.1071,-0.0145,0.0618,853,2019-08-07 16:27:16:468
6.4311,-7.2128,0.4534,0.2348,0.0391,-0.1579,0.0879,-0.0635,0.0405,858,2019-08-07 16:27:16:473
6.4311,-7.2128,0.4534,0.2348,0.0391,-0.1579,0.0879,-0.0635,0.0405,863,2019-08-07 16:27:16:478
6.4311,-7.2128,0.4534,-6.0E-4,-0.1235,-0.1137,0.0805,-0.0773,0.0235,867,2019-08-07 16:27:16:482
6.6559,-7.1031,0.3356,-6.0E-4,-0.1235,-0.1137,0.0805,-0.0773,0.0235,873,2019-08-07 16:27:16:488
6.6559,-7.1031,0.3356,-6.0E-4,-0.1235,-0.1137,0.0656,-0.0656,0.0118,878,2019-08-07 16:27:16:493
6.7038,-7.0028,0.2225,-6.0E-4,-0.1235,-0.1137,0.0656,-0.0656,0.0118,883,2019-08-07 16:27:16:498
6.7038,-7.0028,0.2225,-0.2111,-0.2713,-0.0596,0.057,-0.0304,0.0064,888,2019-08-07 16:27:16:503
6.7038,-7.0028,0.2225,-0.2111,-0.2713,-0.0596,0.057,-0.0304,0.0064,893,2019-08-07 16:27:16:508
6.8378,-7.0124,0.1706,-0.2111,-0.2713,-0.0596,0.0549,-0.0219,0.0139,898,2019-08-07 16:27:16:513
6.8378,-7.0124,0.1706,-0.2111,-0.2713,-0.0596,0.0549,-0.0219,0.0139,903,2019-08-07 16:27:16:518
6.8282,-7.0267,0.2602,-0.2393,-0.2373,-0.0217,0.0592,-0.0208,0.0107,908,2019-08-07 16:27:16:523
6.8282,-7.0267,0.2602,-0.2393,-0.2373,-0.0217,0.0592,-0.0208,0.0107,913,2019-08-07 16:27:16:528
6.8282,-7.0267,0.2602,-0.2393,-0.2373,-0.0217,0.056,-0.023,0.0171,918,2019-08-07 16:27:16:533
6.8187,-7.0314,0.2979,-0.2393,-0.2373,-0.0217,0.056,-0.023,0.0171,923,2019-08-07 16:27:16:538
6.8187,-7.0314,0.2979,-0.2393,-0.2373,-0.0217,0.041,-0.0624,0.0267,928,2019-08-07 16:27:16:543
6.9191,-7.0076,0.3686,-0.3023,-0.2713,-0.0845,0.041,-0.0624,0.0267,933,2019-08-07 16:27:16:548
6.9191,-7.0076,0.3686,-0.3023,-0.2713,-0.0845,0.041,-0.0624,0.0267,938,2019-08-07 16:27:16:553
6.9191,-7.0076,0.3686,-0.3023,-0.2713,-0.0845,0.0176,-0.0794,0.0214,943,2019-08-07 16:27:16:558
7.0244,-6.9837,0.2838,-0.3023,-0.2713,-0.0845,0.0176,-0.0794,0.0214,947,2019-08-07 16:27:16:562
7.0244,-6.9837,0.2838,-0.5129,-0.2286,-0.0247,-0.0037,-0.0688,0.015,953,2019-08-07 16:27:16:568
7.1632,-7.0219,0.3403,-0.5129,-0.2286,-0.0247,-0.0037,-0.0688,0.015,958,2019-08-07 16:27:16:573
7.1632,-7.0219,0.3403,-0.6172,-0.2422,-0.0665,-0.025,-0.0251,0.0043,962,2019-08-07 16:27:16:577
7.1632,-7.0219,0.3403,-0.6172,-0.2422,-0.0665,-0.025,-0.0251,0.0043,968,2019-08-07 16:27:16:583
7.1871,-6.9742,0.4205,-0.6172,-0.2422,-0.0665,-0.0463,0.042,-0.0202,973,2019-08-07 16:27:16:588
7.1871,-6.9742,0.4205,-0.6172,-0.2422,-0.0665,-0.0463,0.042,-0.0202,977,2019-08-07 16:27:16:592
7.1967,-6.7641,0.3498,-0.583,-0.4712,-0.1676,-0.0719,0.0878,-0.0319,983,2019-08-07 16:27:16:598
7.1967,-6.7641,0.3498,-0.583,-0.4712,-0.1676,-0.0719,0.0878,-0.0319,987,2019-08-07 16:27:16:602
7.1967,-6.7641,0.3498,-0.583,-0.4712,-0.1676,-0.0719,0.0878,-0.0319,993,2019-08-07 16:27:16:608
7.6225,-6.344,0.4488,-0.583,-0.4712,-0.1676,-0.1092,0.172,-0.0681,998,2019-08-07 16:27:16:613
7.6225,-6.344,0.4488,-1.2297,-1.084,-0.2846,-0.1092,0.172,-0.0681,1003,2019-08-07 16:27:16:618
8.0435,-5.8237,0.4959,-1.2297,-1.084,-0.2846,-0.139,0.2657,-0.1065,1008,2019-08-07 16:27:16:623
8.0435,-5.8237,0.4959,-1.2297,-1.084,-0.2846,-0.139,0.2657,-0.1065,1013,2019-08-07 16:27:16:628
8.0435,-5.8237,0.4959,-1.2297,-1.084,-0.2846,-0.1731,0.3882,-0.1416,1018,2019-08-07 16:27:16:633
8.1966,-5.3415,0.5148,-1.5601,-1.8783,-0.2582,-0.1731,0.3882,-0.1416,1023,2019-08-07 16:27:16:638
8.1966,-5.3415,0.5148,-1.5601,-1.8783,-0.2582,-0.2135,0.5427,-0.181,1028,2019-08-07 16:27:16:643
8.0292,-5.0981,0.5855,-1.3743,-2.1042,-0.3088,-0.2135,0.5427,-0.181,1033,2019-08-07 16:27:16:648
8.0292,-5.0981,0.5855,-1.3743,-2.1042,-0.3088,-0.2135,0.5427,-0.181,1038,2019-08-07 16:27:16:653
8.0292,-5.0981,0.5855,-1.3743,-2.1042,-0.3088,-0.2626,0.6151,-0.2226,1044,2019-08-07 16:27:16:659
7.4551,-4.7639,0.9249,-1.3743,-2.1042,-0.3088,-0.2626,0.6151,-0.2226,1048,2019-08-07 16:27:16:663
7.4551,-4.7639,0.9249,-0.6189,-2.5495,-0.6468,-0.3275,0.6045,-0.2663,1053,2019-08-07 16:27:16:668
7.2159,-4.4297,0.8872,-0.6189,-2.5495,-0.6468,-0.3275,0.6045,-0.2663,1057,2019-08-07 16:27:16:672
7.2159,-4.4297,0.8872,-0.6189,-2.5495,-0.6468,-0.4159,0.5501,-0.3227,1063,2019-08-07 16:27:16:678
7.2159,-4.4297,0.8872,-0.6189,-2.5495,-0.6468,-0.4159,0.5501,-0.3227,1068,2019-08-07 16:27:16:683
7.2111,-4.1338,0.6703,-0.4562,-2.9716,-0.3226,-0.5214,0.5086,-0.3984,1072,2019-08-07 16:27:16:687
7.2111,-4.1338,0.6703,-0.4562,-2.9716,-0.3226,-0.5214,0.5086,-0.3984,1078,2019-08-07 16:27:16:693
7.2829,-3.6898,0.4205,-0.4562,-2.9716,-0.3226,-0.6333,0.4905,-0.5006,1083,2019-08-07 16:27:16:698
7.2829,-3.6898,0.4205,-0.4562,-2.9716,-0.3226,-0.6333,0.4905,-0.5006,1088,2019-08-07 16:27:16:703
7.2829,-3.6898,0.4205,-0.4136,-3.7017,0.2607,-0.6333,0.4905,-0.5006,1093,2019-08-07 16:27:16:708
7.0724,-3.0883,-0.2111,-0.4136,-3.7017,0.2607,-0.7845,0.4702,-0.6615,1098,2019-08-07 16:27:16:713
7.0724,-3.0883,-0.2111,-0.4136,-3.7017,0.2607,-0.7845,0.4702,-0.6615,1104,2019-08-07 16:27:16:719
7.0724,-3.0883,-0.2111,-0.4136,-3.7017,0.2607,-0.9507,0.4468,-0.8564,1108,2019-08-07 16:27:16:723
7.0629,-2.3865,-0.5882,-0.0617,-4.6621,0.9083,-0.9507,0.4468,-0.8564,1113,2019-08-07 16:27:16:728
7.0629,-2.3865,-0.5882,-0.0617,-4.6621,0.9083,-1.0903,0.4053,-1.0631,1118,2019-08-07 16:27:16:733
6.9241,-1.6371,-0.7627,-0.0617,-4.6621,0.9083,-1.0903,0.4053,-1.0631,1123,2019-08-07 16:27:16:738
6.9241,-1.6371,-0.7627,-0.0617,-4.6621,0.9083,-1.0903,0.4053,-1.0631,1128,2019-08-07 16:27:16:743
6.9241,-1.6371,-0.7627,0.3629,-5.5997,1.0489,-1.2479,0.3531,-1.291,1133,2019-08-07 16:27:16:748
6.7663,-0.9878,-0.8286,0.3629,-5.5997,1.0489,-1.2479,0.3531,-1.291,1138,2019-08-07 16:27:16:753
6.7663,-0.9878,-0.8286,0.3629,-5.5997,1.0489,-1.4727,0.2519,-1.584,1143,2019-08-07 16:27:16:758
6.6275,-0.668,-0.8758,0.3629,-5.5997,1.0489,-1.4727,0.2519,-1.584,1147,2019-08-07 16:27:16:762
6.6275,-0.668,-0.8758,0.8674,-5.8638,0.9482,-1.6772,0.1517,-1.8343,1153,2019-08-07 16:27:16:768
6.6275,-0.668,-0.8758,0.8674,-5.8638,0.9482,-1.6772,0.1517,-1.8343,1158,2019-08-07 16:27:16:773
6.5462,-0.5104,-0.9088,0.8674,-5.8638,0.9482,-1.9009,0.0196,-2.0815,1162,2019-08-07 16:27:16:777
6.5462,-0.5104,-0.9088,0.8674,-5.8638,0.9482,-1.9009,0.0196,-2.0815,1168,2019-08-07 16:27:16:783
6.4027,-0.4054,-1.1397,1.2836,-5.6668,0.8936,-1.9009,0.0196,-2.0815,1174,2019-08-07 16:27:16:789
6.4027,-0.4054,-1.1397,1.2836,-5.6668,0.8936,-2.1438,-0.138,-2.3233,1178,2019-08-07 16:27:16:793
6.4027,-0.4054,-1.1397,1.2836,-5.6668,0.8936,-2.1438,-0.138,-2.3233,1184,2019-08-07 16:27:16:799
6.6707,-0.1667,-1.4084,1.2836,-5.6668,0.8936,-2.4985,-0.3362,-2.6631,1188,2019-08-07 16:27:16:803
6.6707,-0.1667,-1.4084,1.2836,-5.6668,0.8936,-2.4985,-0.3362,-2.6631,1193,2019-08-07 16:27:16:808
6.6707,-0.1667,-1.4084,1.1574,-5.5466,0.8931,-2.669,-0.4033,-2.8325,1197,2019-08-07 16:27:16:812
7.2065,0.3536,-1.795,1.1574,-5.5466,0.8931,-2.669,-0.4033,-2.8325,1203,2019-08-07 16:27:16:818
7.2065,0.3536,-1.795,1.1574,-5.5466,0.8931,-2.9545,-0.4533,-3.1286,1208,2019-08-07 16:27:16:823
7.2065,0.3536,-1.795,1.1574,-5.5466,0.8931,-2.9545,-0.4533,-3.1286,1213,2019-08-07 16:27:16:828
7.5606,1.1365,-2.3983,0.808,-6.1515,1.372,-3.2016,-0.4608,-3.3662,1218,2019-08-07 16:27:16:833
7.5606,1.1365,-2.3983,0.808,-6.1515,1.372,-3.2016,-0.4608,-3.3662,1223,2019-08-07 16:27:16:838
8.0199,2.0435,-3.6993,0.808,-6.1515,1.372,-3.5553,-0.4597,-3.6975,1228,2019-08-07 16:27:16:843
8.0199,2.0435,-3.6993,0.808,-6.1515,1.372,-3.5553,-0.4597,-3.6975,1233,2019-08-07 16:27:16:848
8.0199,2.0435,-3.6993,0.4893,-6.4089,2.6989,-3.5553,-0.4597,-3.6975,1238,2019-08-07 16:27:16:853
8.417,2.3061,-4.8684,0.4893,-6.4089,2.6989,-3.8738,-0.4853,-4.016,1243,2019-08-07 16:27:16:858
8.417,2.3061,-4.8684,0.4893,-6.4089,2.6989,-3.8738,-0.4853,-4.016,1248,2019-08-07 16:27:16:863
8.417,2.3061,-4.8684,0.4893,-6.4089,2.6989,-4.2296,-0.4906,-4.3846,1254,2019-08-07 16:27:16:869
8.46,2.6355,-5.0899,0.5679,-5.9844,3.2145,-4.2296,-0.4906,-4.3846,1257,2019-08-07 16:27:16:872
8.46,2.6355,-5.0899,0.5679,-5.9844,3.2145,-4.6717,-0.6334,-4.7894,1263,2019-08-07 16:27:16:878
7.7711,2.8933,-5.1512,0.5679,-5.9844,3.2145,-4.6717,-0.6334,-4.7894,1268,2019-08-07 16:27:16:883
7.7711,2.8933,-5.1512,0.5679,-5.9844,3.2145,-4.6717,-0.6334,-4.7894,1273,2019-08-07 16:27:16:888
7.7711,2.8933,-5.1512,1.5718,-5.0593,3.2277,-5.0371,-0.9295,-4.9896,1278,2019-08-07 16:27:16:893
8.2065,2.4016,-5.8347,1.5718,-5.0593,3.2277,-5.0371,-0.9295,-4.9896,1283,2019-08-07 16:27:16:898
8.2065,2.4016,-5.8347,1.5718,-5.0593,3.2277,-5.2437,-1.2076,-5.0876,1288,2019-08-07 16:27:16:903
8.2065,2.4016,-5.8347,1.5718,-5.0593,3.2277,-5.2437,-1.2076,-5.0876,1293,2019-08-07 16:27:16:908
9.5461,1.6616,-6.8858,-0.1686,-2.6258,4.1713,-5.3939,-1.4739,-5.2208,1298,2019-08-07 16:27:16:913
9.5461,1.6616,-6.8858,-0.1686,-2.6258,4.1713,-5.3939,-1.4739,-5.2208,1303,2019-08-07 16:27:16:918
11.0579,0.7021,-8.2906,-0.1686,-2.6258,4.1713,-5.4919,-1.7849,-5.3603,1308,2019-08-07 16:27:16:923
11.0579,0.7021,-8.2906,-2.6684,0.4889,6.168,-5.4919,-1.7849,-5.3603,1313,2019-08-07 16:27:16:928
11.0579,0.7021,-8.2906,-2.6684,0.4889,6.168,-5.5548,-2.014,-5.5031,1318,2019-08-07 16:27:16:933
12.0387,-0.6728,-10.0818,-2.6684,0.4889,6.168,-5.5548,-2.014,-5.5031,1323,2019-08-07 16:27:16:938
12.0387,-0.6728,-10.0818,-2.6684,0.4889,6.168,-5.5548,-2.014,-5.5031,1328,2019-08-07 16:27:16:943
11.8235,-2.716,-11.5054,-2.6671,5.1092,8.1406,-5.6464,-2.0001,-5.5691,1333,2019-08-07 16:27:16:948
11.8235,-2.716,-11.5054,-2.6671,5.1092,8.1406,-5.6464,-2.0001,-5.5691,1338,2019-08-07 16:27:16:953
11.8235,-2.716,-11.5054,-2.6671,5.1092,8.1406,-5.6602,-1.6177,-5.4413,1343,2019-08-07 16:27:16:958
11.3259,-5.838,-10.902,-2.465,8.2786,7.4721,-5.6602,-1.6177,-5.4413,1348,2019-08-07 16:27:16:963
11.3259,-5.838,-10.902,-2.465,8.2786,7.4721,-5.5164,-1.3034,-5.3348,1353,2019-08-07 16:27:16:968
12.5603,-9.2943,-7.8145,-2.465,8.2786,7.4721,-5.5164,-1.3034,-5.3348,1357,2019-08-07 16:27:16:972
12.5603,-9.2943,-7.8145,-2.465,8.2786,7.4721,-4.8964,-1.3162,-5.2954,1363,2019-08-07 16:27:16:978
12.5603,-9.2943,-7.8145,-4.4564,14.9868,2.5271,-4.8964,-1.3162,-5.2954,1369,2019-08-07 16:27:16:984
12.6368,-12.5882,-5.9101,-4.4564,14.9868,2.5271,-3.7896,-2.015,-5.2283,1372,2019-08-07 16:27:16:987
12.6368,-12.5882,-5.9101,-4.4564,14.9868,2.5271,-3.7896,-2.015,-5.2283,1378,2019-08-07 16:27:16:993
12.7373,-14.2925,-7.8286,-4.4564,14.9868,2.5271,-3.1036,-2.6244,-4.9108,1384,2019-08-07 16:27:16:999
12.7373,-14.2925,-7.8286,-5.5438,20.1282,5.8758,-3.1036,-2.6244,-4.9108,1388,2019-08-07 16:27:17:003
12.7373,-14.2925,-7.8286,-5.5438,20.1282,5.8758,-3.1036,-2.6244,-4.9108,1393,2019-08-07 16:27:17:008
14.9333,-17.0613,-11.5525,-5.5438,20.1282,5.8758,-1.9936,-3.3945,-4.1768,1398,2019-08-07 16:27:17:013
14.9333,-17.0613,-11.5525,-5.5438,20.1282,5.8758,-1.9936,-3.3945,-4.1768,1403,2019-08-07 16:27:17:018
18.5645,-20.5414,-16.5397,-10.8062,25.4879,11.9529,-0.7558,-3.1485,-3.5601,1408,2019-08-07 16:27:17:023
18.5645,-20.5414,-16.5397,-10.8062,25.4879,11.9529,-0.7558,-3.1485,-3.5601,1413,2019-08-07 16:27:17:028
20.4543,-21.5917,-19.4198,-10.8062,25.4879,11.9529,0.3478,-1.9873,-3.1702,1418,2019-08-07 16:27:17:033
20.4543,-21.5917,-19.4198,-10.8062,25.4879,11.9529,0.3478,-1.9873,-3.1702,1423,2019-08-07 16:27:17:038
20.4543,-21.5917,-19.4198,-14.3121,27.2158,16.572,1.3865,-0.8368,-2.6919,1428,2019-08-07 16:27:17:043
21.0093,-21.1477,-21.1357,-14.3121,27.2158,16.572,1.3865,-0.8368,-2.6919,1433,2019-08-07 16:27:17:048
21.0093,-21.1477,-21.1357,-14.3121,27.2158,16.572,2.5529,0.1602,-1.7321,1438,2019-08-07 16:27:17:053
21.0093,-21.1477,-21.1357,-14.3121,27.2158,16.572,2.5529,0.1602,-1.7321,1443,2019-08-07 16:27:17:058
19.9855,-20.6178,-22.2858,-13.3239,26.4969,18.1886,2.5529,0.1602,-1.7321,1448,2019-08-07 16:27:17:063
19.9855,-20.6178,-22.2858,-13.3239,26.4969,18.1886,3.3285,0.7163,-0.7339,1453,2019-08-07 16:27:17:068
19.9855,-20.6178,-22.2858,-13.3239,26.4969,18.1886,3.3285,0.7163,-0.7339,1458,2019-08-07 16:27:17:073
19.2392,-21.3052,-24.5249,-13.3239,26.4969,18.1886,4.0518,1.1691,0.4571,1463,2019-08-07 16:27:17:078
19.2392,-21.3052,-24.5249,-12.8596,27.1308,20.5111,4.0518,1.1691,0.4571,1468,2019-08-07 16:27:17:083
20.0573,-21.9402,-25.4111,-12.8596,27.1308,20.5111,4.5141,1.1499,1.2059,1473,2019-08-07 16:27:17:088
20.0573,-21.9402,-25.4111,-12.8596,27.1308,20.5111,4.5141,1.1499,1.2059,1478,2019-08-07 16:27:17:093
21.9614,-22.5417,-25.6326,-14.1921,27.3016,20.4838,4.8805,0.6769,1.68,1483,2019-08-07 16:27:17:098
21.9614,-22.5417,-25.6326,-14.1921,27.3016,20.4838,4.8805,0.6769,1.68,1489,2019-08-07 16:27:17:104
21.9614,-22.5417,-25.6326,-14.1921,27.3016,20.4838,5.6422,-0.8699,2.4885,1493,2019-08-07 16:27:17:108
24.832,-24.4655,-29.2387,-17.8745,28.6635,23.7426,5.6422,-0.8699,2.4885,1498,2019-08-07 16:27:17:113
24.832,-24.4655,-29.2387,-17.8745,28.6635,23.7426,6.4635,-1.7945,3.2512,1502,2019-08-07 16:27:17:117
24.832,-24.4655,-29.2387,-17.8745,28.6635,23.7426,6.4635,-1.7945,3.2512,1508,2019-08-07 16:27:17:123
25.143,-24.962,-37.8084,-17.8745,28.6635,23.7426,7.484,-1.3109,4.1674,1513,2019-08-07 16:27:17:128
25.143,-24.962,-37.8084,-17.5344,25.7503,38.3639,7.484,-1.3109,4.1674,1519,2019-08-07 16:27:17:134
25.1765,-20.9615,-47.9101,-17.5344,25.7503,38.3639,8.6505,0.6545,5.2816,1523,2019-08-07 16:27:17:138
25.1765,-20.9615,-47.9101,-17.5344,25.7503,38.3639,8.6505,0.6545,5.2816,1528,2019-08-07 16:27:17:143
25.1765,-20.9615,-47.9101,-17.5344,25.7503,38.3639,9.7946,2.1118,6.5035,1534,2019-08-07 16:27:17:149
30.9415,-17.195,-47.9902,-24.8322,17.3729,40.6268,9.7946,2.1118,6.5035,1538,2019-08-07 16:27:17:153
30.9415,-17.195,-47.9902,-24.8322,17.3729,40.6268,9.7946,2.1118,6.5035,1543,2019-08-07 16:27:17:158
30.9415,-17.195,-47.9902,-24.8322,17.3729,40.6268,10.7597,0.8836,7.6625,1547,2019-08-07 16:27:17:162
35.3143,-15.0897,-43.6771,-27.8569,14.5833,37.3236,10.7597,0.8836,7.6625,1553,2019-08-07 16:27:17:168
35.3143,-15.0897,-43.6771,-27.8569,14.5833,37.3236,11.8335,-3.3178,8.7043,1558,2019-08-07 16:27:17:173
36.9697,-14.302,-49.3006,-27.8569,14.5833,37.3236,11.8335,-3.3178,8.7043,1563,2019-08-07 16:27:17:178
36.9697,-14.302,-49.3006,-31.2644,10.051,48.0835,12.4887,-5.9118,8.9451,1568,2019-08-07 16:27:17:183
36.9697,-14.302,-49.3006,-31.2644,10.051,48.0835,12.4887,-5.9118,8.9451,1573,2019-08-07 16:27:17:188
40.6488,-10.1775,-62.3013,-31.2644,10.051,48.0835,12.7177,-5.8106,8.4785,1577,2019-08-07 16:27:17:192
40.6488,-10.1775,-62.3013,-31.2644,10.051,48.0835,12.7177,-5.8106,8.4785,1583,2019-08-07 16:27:17:198
42.2085,0.3536,-69.4239,-36.9918,-6.2305,63.5516,12.3715,-3.1048,7.6028,1588,2019-08-07 16:27:17:203
42.2085,0.3536,-69.4239,-36.9918,-6.2305,63.5516,12.3715,-3.1048,7.6028,1593,2019-08-07 16:27:17:208
42.2085,0.3536,-69.4239,-36.9918,-6.2305,63.5516,11.6492,1.1509,7.4739,1597,2019-08-07 16:27:17:212
36.453,26.242,-56.2818,-36.9918,-6.2305,63.5516,11.6492,1.1509,7.4739,1603,2019-08-07 16:27:17:218
36.453,26.242,-56.2818,-36.4589,-43.7428,38.4264,11.6492,1.1509,7.4739,1608,2019-08-07 16:27:17:223
36.453,26.242,-56.2818,-36.4589,-43.7428,38.4264,11.8122,7.354,7.5528,1612,2019-08-07 16:27:17:227
40.8833,43.6139,-36.1302,-36.4589,-43.7428,38.4264,11.8122,7.354,7.5528,1618,2019-08-07 16:27:17:233
40.8833,43.6139,-36.1302,-36.4589,-43.7428,38.4264,11.6407,10.6819,5.4318,1623,2019-08-07 16:27:17:238
34.4228,42.3347,-37.2242,-27.4565,-49.8778,37.4947,11.6407,10.6819,5.4318,1628,2019-08-07 16:27:17:243
34.4228,42.3347,-37.2242,-27.4565,-49.8778,37.4947,8.7112,9.7284,2.3852,1633,2019-08-07 16:27:17:248
34.4228,42.3347,-37.2242,-27.4565,-49.8778,37.4947,8.7112,9.7284,2.3852,1638,2019-08-07 16:27:17:253
7.9708,47.9583,-37.7427,-27.4565,-49.8778,37.4947,8.7112,9.7284,2.3852,1642,2019-08-07 16:27:17:257
7.9708,47.9583,-37.7427,-27.4565,-49.8778,37.4947,1.134,1.3757,0.6456,1648,2019-08-07 16:27:17:263
7.9708,47.9583,-37.7427,1.1787,-63.3356,34.7069,1.134,1.3757,0.6456,1653,2019-08-07 16:27:17:268
1.2393,57.7446,-26.8915,1.1787,-63.3356,34.7069,-2.032,-4.0412,1.8973,1658,2019-08-07 16:27:17:273
1.2393,57.7446,-26.8915,0.9331,-67.4757,19.5801,-2.032,-4.0412,1.8973,1663,2019-08-07 16:27:17:278
8.497,49.9537,-15.0222,0.9331,-67.4757,19.5801,-1.5334,-7.5533,4.0971,1668,2019-08-07 16:27:17:283
8.497,49.9537,-15.0222,0.9331,-67.4757,19.5801,-1.5334,-7.5533,4.0971,1673,2019-08-07 16:27:17:288
26.2896,41.3608,3.5502,0.9331,-67.4757,19.5801,2.8352,-0.3596,3.2502,1678,2019-08-07 16:27:17:293
26.2896,41.3608,3.5502,-15.9785,-43.5778,8.436,2.8352,-0.3596,3.2502,1682,2019-08-07 16:27:17:297
26.2896,41.3608,3.5502,-15.9785,-43.5778,8.436,2.8352,-0.3596,3.2502,1688,2019-08-07 16:27:17:303
26.2896,41.3608,3.5502,-15.9785,-43.5778,8.436,5.2374,7.9367,0.1843,1693,2019-08-07 16:27:17:308
13.6161,32.5532,45.192,-15.9785,-43.5778,8.436,5.2374,7.9367,0.1843,1697,2019-08-07 16:27:17:312
13.6161,32.5532,45.192,-2.1325,-39.3247,3.6103,4.7975,0.5821,-0.7563,1704,2019-08-07 16:27:17:319
-3.8607,32.873,-11.8875,-2.1325,-39.3247,3.6103,4.7975,0.5821,-0.7563,1707,2019-08-07 16:27:17:322
-3.8607,32.873,-11.8875,8.5715,-41.4276,18.359,3.0355,1.6804,-1.6096,1713,2019-08-07 16:27:17:328
-3.8607,32.873,-11.8875,8.5715,-41.4276,18.359,3.0355,1.6804,-1.6096,1718,2019-08-07 16:27:17:333
-6.6021,26.5668,-12.3966,8.5715,-41.4276,18.359,-0.3052,4.8336,-0.8862,1723,2019-08-07 16:27:17:338
-6.6021,26.5668,-12.3966,8.5715,-41.4276,18.359,-0.3052,4.8336,-0.8862,1728,2019-08-07 16:27:17:343
-1.4542,17.148,-0.5272,5.4795,-28.3357,1.9102,-2.5497,2.7361,-0.6913,1734,2019-08-07 16:27:17:349
-1.4542,17.148,-0.5272,5.4795,-28.3357,1.9102,-2.5497,2.7361,-0.6913,1738,2019-08-07 16:27:17:353
-1.4542,17.148,-0.5272,5.4795,-28.3357,1.9102,-2.5497,2.7361,-0.6913,1743,2019-08-07 16:27:17:358
0.4212,8.0826,2.5085,5.4795,-28.3357,1.9102,-4.7654,-0.3798,-1.1888,1748,2019-08-07 16:27:17:363
0.4212,8.0826,2.5085,0.5399,-14.5061,-17.0322,-4.7654,-0.3798,-1.1888,1753,2019-08-07 16:27:17:368
0.4212,8.0826,2.5085,0.5399,-14.5061,-17.0322,-3.6171,-0.9274,-1.9132,1758,2019-08-07 16:27:17:373
3.5309,-0.7872,8.8391,0.5399,-14.5061,-17.0322,-3.6171,-0.9274,-1.9132,1763,2019-08-07 16:27:17:378
3.5309,-0.7872,8.8391,0.5399,-14.5061,-17.0322,-1.8956,-2.3442,-2.3659,1769,2019-08-07 16:27:17:384
3.5309,-0.7872,8.8391,-0.4777,-3.5174,2.5328,-1.8956,-2.3442,-2.3659,1773,2019-08-07 16:27:17:388
5.0093,-7.8715,-7.6828,-0.4777,-3.5174,2.5328,-1.4695,-2.962,-2.6354,1778,2019-08-07 16:27:17:393
5.0093,-7.8715,-7.6828,-0.4777,-3.5174,2.5328,-1.4695,-2.962,-2.6354,1784,2019-08-07 16:27:17:399
5.0093,-7.8715,-7.6828,-0.4777,-3.5174,2.5328,-2.1747,-2.2675,-3.1957,1788,2019-08-07 16:27:17:403
5.2245,-17.634,-12.1138,-1.0502,8.7837,11.4184,-2.1747,-2.2675,-3.1957,1793,2019-08-07 16:27:17:408
5.2245,-17.634,-12.1138,-1.0502,8.7837,11.4184,-2.1747,-2.2675,-3.1957,1797,2019-08-07 16:27:17:412
6.7651,-18.5697,0.7832,-1.0502,8.7837,11.4184,-3.1057,-2.3239,-3.0477,1803,2019-08-07 16:27:17:418
6.7651,-18.5697,0.7832,-1.0502,8.7837,11.4184,-3.1057,-2.3239,-3.0477,1808,2019-08-07 16:27:17:423
6.7651,-18.5697,0.7832,-3.4151,8.7705,-2.3823,-2.7883,-3.5181,-2.4756,1813,2019-08-07 16:27:17:428
8.2051,-16.7127,0.3684,-3.4151,8.7705,-2.3823,-2.7883,-3.5181,-2.4756,1818,2019-08-07 16:27:17:433
8.2051,-16.7127,0.3684,-3.4151,8.7705,-2.3823,-1.7007,-3.7557,-2.0144,1823,2019-08-07 16:27:17:438
10.8843,-14.4928,-4.5481,-3.4151,8.7705,-2.3823,-1.7007,-3.7557,-2.0144,1828,2019-08-07 16:27:17:443
10.8843,-14.4928,-4.5481,-7.312,6.5049,3.5847,-0.466,-2.5615,-1.8194,1834,2019-08-07 16:27:17:449
10.8843,-14.4928,-4.5481,-7.312,6.5049,3.5847,-0.466,-2.5615,-1.8194,1838,2019-08-07 16:27:17:453
13.4534,-15.8629,-6.6646,-7.312,6.5049,3.5847,0.3489,-1.0701,-1.8801,1843,2019-08-07 16:27:17:458
13.4534,-15.8629,-6.6646,-7.312,6.5049,3.5847,0.3489,-1.0701,-1.8801,1848,2019-08-07 16:27:17:463
12.6688,-18.6365,-4.072,-7.5475,10.5678,1.8576,0.2935,-0.1391,-1.8556,1853,2019-08-07 16:27:17:468
12.6688,-18.6365,-4.072,-7.5475,10.5678,1.8576,0.2935,-0.1391,-1.8556,1858,2019-08-07 16:27:17:473
12.6688,-18.6365,-4.072,-7.5475,10.5678,1.8576,-0.5022,-0.9274,-1.6905,1863,2019-08-07 16:27:17:478
9.0902,-18.5172,-7.7535,-7.5475,10.5678,1.8576,-0.5022,-0.9274,-1.6905,1868,2019-08-07 16:27:17:483
9.0902,-18.5172,-7.7535,-3.7554,11.7145,6.3614,-1.6985,-0.7836,-1.1419,1873,2019-08-07 16:27:17:488
10.5254,-21.2764,-0.5744,-3.7554,11.7145,6.3614,-1.6985,-0.7836,-1.1419,1878,2019-08-07 16:27:17:493
10.5254,-21.2764,-0.5744,-3.7554,11.7145,6.3614,-1.4311,-0.6547,-1.0365,1883,2019-08-07 16:27:17:498
10.5254,-21.2764,-0.5744,-3.7554,11.7145,6.3614,-1.4311,-0.6547,-1.0365,1888,2019-08-07 16:27:17:503
12.1808,-22.4365,1.8297,-3.7554,11.7145,6.3614,-1.4311,-0.6547,-1.0365,1893,2019-08-07 16:27:17:508
12.1808,-22.4365,1.8297,-6.7106,14.4849,-3.7491,-0.4202,-1.1958,-1.1163,1898,2019-08-07 16:27:17:513
12.1903,-20.6463,0.3213,-6.7106,14.4849,-3.7491,-0.4202,-1.1958,-1.1163,1903,2019-08-07 16:27:17:518
12.1903,-20.6463,0.3213,-6.7106,14.4849,-3.7491,1.0211,-0.1412,-0.8554,1907,2019-08-07 16:27:17:522
13.2524,-17.6961,0.1138,-7.6731,10.0683,-2.7453,1.0211,-0.1412,-0.8554,1913,2019-08-07 16:27:17:528
13.2524,-17.6961,0.1138,-7.6731,10.0683,-2.7453,1.9212,1.0071,-0.458,1918,2019-08-07 16:27:17:533
13.2524,-17.6961,0.1138,-7.6731,10.0683,-2.7453,1.9212,1.0071,-0.458,1923,2019-08-07 16:27:17:538
13.3577,-15.5431,-0.037,-7.6731,10.0683,-2.7453,1.6592,1.6026,-0.0362,1927,2019-08-07 16:27:17:542
13.3577,-15.5431,-0.037,-4.479,6.5487,3.4788,1.6592,1.6026,-0.0362,1933,2019-08-07 16:27:17:548
8.1285,-14.0871,-7.5932,-4.479,6.5487,3.4788,0.3308,0.9922,0.375,1939,2019-08-07 16:27:17:554
8.1285,-14.0871,-7.5932,-4.479,6.5487,3.4788,0.3308,0.9922,0.375,1943,2019-08-07 16:27:17:558
8.1285,-14.0871,-7.5932,-1.2066,6.5848,2.7538,-0.3499,1.3693,0.6722,1949,2019-08-07 16:27:17:564
5.6933,-15.3664,5.5724,-1.2066,6.5848,2.7538,-0.3499,1.3693,0.6722,1954,2019-08-07 16:27:17:569
5.6933,-15.3664,5.5724,-1.2066,6.5848,2.7538,0.2221,0.3094,1.1164,1958,2019-08-07 16:27:17:573
5.8416,-17.4621,-0.07,-0.3148,9.6126,-1.9486,0.2221,0.3094,1.1164,1963,2019-08-07 16:27:17:578
5.8416,-17.4621,-0.07,-0.3148,9.6126,-1.9486,0.8293,-0.2105,1.2975,1969,2019-08-07 16:27:17:584
5.8416,-17.4621,-0.07,-0.3148,9.6126,-1.9486,0.8293,-0.2105,1.2975,1973,2019-08-07 16:27:17:588
8.339,-17.2664,4.2007,-0.3148,9.6126,-1.9486,1.705,-0.5109,1.1878,1977,2019-08-07 16:27:17:592
8.339,-17.2664,4.2007,-4.6621,7.5227,-6.259,1.705,-0.5109,1.1878,1983,2019-08-07 16:27:17:598
8.339,-17.2664,4.2007,-4.6621,7.5227,-6.259,1.705,-0.5109,1.1878,1988,2019-08-07 16:27:17:603
11.0038,-12.9748,2.3388,-4.6621,7.5227,-6.259,3.0355,-0.1402,0.914,1993,2019-08-07 16:27:17:608
11.0038,-12.9748,2.3388,-4.6621,7.5227,-6.259,2.9833,1.1669,1.0131,1999,2019-08-07 16:27:17:614
11.0038,-7.7808,-3.0256,-6.9538,-0.4573,1.7622,2.9833,1.1669,1.0131,2003,2019-08-07 16:27:17:618
12.1281,-7.7808,-3.0256,-6.9538,-0.4573,1.7622,2.9833,1.1669,1.0131,2008,2019-08-07 16:27:17:623
12.1281,-7.7808,-3.0256,-6.9538,-0.4573,1.7622,1.9521,2.0021,1.3561,2013,2019-08-07 16:27:17:628
9.1953,-6.0527,-4.336,-6.9538,-0.4573,1.7622,1.9521,2.0021,1.3561,2019,2019-08-07 16:27:17:634
9.1953,-6.0527,-4.336,-6.9538,-0.4573,1.7622,1.1543,4.1145,1.6714,2023,2019-08-07 16:27:17:638
9.1953,-6.0527,-4.336,-3.0799,-1.5527,-9.0016,1.1543,4.1145,1.6714,2028,2019-08-07 16:27:17:643
5.4875,-7.2653,5.2095,-3.0799,-1.5527,-9.0016,1.6198,3.9313,1.7151,2033,2019-08-07 16:27:17:648
5.4875,-7.2653,5.2095,-3.0799,-1.5527,-9.0016,1.6198,3.9313,1.7151,2037,2019-08-07 16:27:17:652
5.4875,-7.2653,5.2095,-3.0799,-1.5527,-9.0016,1.6198,3.9313,1.7151,2043,2019-08-07 16:27:17:658
2.1721,-8.1293,0.7832,2.8855,-0.3254,-0.4116,1.9212,3.9579,1.7748,2048,2019-08-07 16:27:17:663
2.1721,-8.1293,0.7832,2.8855,-0.3254,-0.4116,1.9212,3.9579,1.7748,2053,2019-08-07 16:27:17:668
0.2153,-7.2653,0.5475,2.8855,-0.3254,-0.4116,1.5047,3.3837,1.5649,2058,2019-08-07 16:27:17:673
0.2153,-7.2653,0.5475,2.8855,-0.3254,-0.4116,1.5047,3.3837,1.5649,2063,2019-08-07 16:27:17:678
-1.0573,-6.2628,1.0802,5.2784,-2.2955,-0.3501,1.2192,2.3398,1.3785,2069,2019-08-07 16:27:17:684
-1.0573,-6.2628,1.0802,5.2784,-2.2955,-0.3501,1.2192,2.3398,1.3785,2073,2019-08-07 16:27:17:688
-1.0573,-6.2628,1.0802,5.2784,-2.2955,-0.3501,1.2192,2.3398,1.3785,2078,2019-08-07 16:27:17:693
0.7655,-6.2771,1.6882,5.2784,-2.2955,-0.3501,1.2629,1.593,1.0898,2084,2019-08-07 16:27:17:699
0.7655,-6.2771,1.6882,2.8773,-2.5597,-0.4899,1.2629,1.593,1.0898,2088,2019-08-07 16:27:17:703
0.7655,-6.2771,1.6882,2.8773,-2.5597,-0.4899,1.4099,1.0007,0.603,2093,2019-08-07 16:27:17:708
2.0142,-5.6899,0.2081,2.8773,-2.5597,-0.4899,1.4099,1.0007,0.603,2097,2019-08-07 16:27:17:712
2.0142,-5.6899,0.2081,2.8773,-2.5597,-0.4899,1.4174,0.8761,0.1982,2103,2019-08-07 16:27:17:718
2.3395,-4.21,-0.4141,1.7717,-4.3755,1.693,1.4174,0.8761,0.1982,2108,2019-08-07 16:27:17:723
2.3395,-4.21,-0.4141,1.7717,-4.3755,1.693,1.2267,1.1435,-0.0415,2113,2019-08-07 16:27:17:728
2.3395,-4.21,-0.4141,1.7717,-4.3755,1.693,1.2267,1.1435,-0.0415,2118,2019-08-07 16:27:17:733
2.7413,-2.9115,0.0808,1.7717,-4.3755,1.693,1.0264,1.4034,-0.2237,2123,2019-08-07 16:27:17:738
2.7413,-2.9115,0.0808,1.3829,-6.3036,1.11,1.0264,1.4034,-0.2237,2128,2019-08-07 16:27:17:743
2.7413,-2.9115,0.0808,1.3829,-6.3036,1.11,1.0264,1.4034,-0.2237,2133,2019-08-07 16:27:17:748
2.0189,-2.0379,1.099,1.3829,-6.3036,1.11,0.8389,1.4663,-0.4633,2138,2019-08-07 16:27:17:753
2.0189,-2.0379,1.099,1.3829,-6.3036,1.11,0.8389,1.4663,-0.4633,2143,2019-08-07 16:27:17:758
1.0477,-1.5701,1.6128,2.9913,-7.1579,0.3224,0.6142,1.1893,-0.7083,2148,2019-08-07 16:27:17:763
1.0477,-1.5701,1.6128,2.9913,-7.1579,0.3224,0.3202,0.5821,-0.9299,2153,2019-08-07 16:27:17:768
0.7128,-0.9829,1.6364,2.9913,-7.1579,0.3224,0.3202,0.5821,-0.9299,2158,2019-08-07 16:27:17:773
0.7128,-0.9829,1.6364,2.9913,-7.1579,0.3224,0.3202,0.5821,-0.9299,2162,2019-08-07 16:27:17:777
0.7128,-0.9829,1.6364,3.051,-7.7606,1.2542,-0.0346,-0.235,-1.0908,2168,2019-08-07 16:27:17:783
1.9711,-1.1166,0.0478,3.051,-7.7606,1.2542,-0.0346,-0.235,-1.0908,2173,2019-08-07 16:27:17:788
1.9711,-1.1166,0.0478,1.2006,-7.015,2.6536,-0.4649,-0.9348,-1.2367,2178,2019-08-07 16:27:17:793
1.9711,-1.1166,0.0478,1.2006,-7.015,2.6536,-0.4649,-0.9348,-1.2367,2183,2019-08-07 16:27:17:798
4.3058,-2.1,-1.0835,1.2006,-7.015,2.6536,-0.4649,-0.9348,-1.2367,2188,2019-08-07 16:27:17:803
4.3058,-2.1,-1.0835,1.2006,-7.015,2.6536,-0.7739,-0.8794,-1.4998,2193,2019-08-07 16:27:17:808
6.9897,-3.5703,-0.9845,-2.3375,-4.8804,2.7673,-0.7739,-0.8794,-1.4998,2198,2019-08-07 16:27:17:813
6.9897,-3.5703,-0.9845,-2.3375,-4.8804,2.7673,-0.8793,-0.4011,-1.7704,2203,2019-08-07 16:27:17:818
6.9897,-3.5703,-0.9845,-2.3375,-4.8804,2.7673,-0.8793,-0.4011,-1.7704,2208,2019-08-07 16:27:17:823
7.5495,-4.3819,-1.1542,-2.3375,-4.8804,2.7673,-0.9283,0.1507,-1.9451,2213,2019-08-07 16:27:17:828
7.5495,-4.3819,-1.1542,-2.0245,-3.3605,3.0625,-0.9283,0.1507,-1.9451,2218,2019-08-07 16:27:17:833
7.5495,-4.3819,-1.1542,-2.0245,-3.3605,3.0625,-1.0881,0.8505,-2.025,2223,2019-08-07 16:27:17:838
6.3056,-5.6183,-1.1636,-2.0245,-3.3605,3.0625,-1.0881,0.8505,-2.025,2228,2019-08-07 16:27:17:843
6.3056,-5.6183,-1.1636,-2.0245,-3.3605,3.0625,-1.2863,1.0934,-2.0389,2233,2019-08-07 16:27:17:848
5.2004,-6.6637,0.2034,0.1319,-1.435,1.2845,-1.2863,1.0934,-2.0389,2238,2019-08-07 16:27:17:853
5.2004,-6.6637,0.2034,0.1319,-1.435,1.2845,-1.2863,1.0934,-2.0389,2243,2019-08-07 16:27:17:858
5.2004,-6.6637,0.2034,0.1319,-1.435,1.2845,-1.4429,1.0093,-2.0996,2247,2019-08-07 16:27:17:862
4.4732,-6.6876,1.3535,0.1319,-1.435,1.2845,-1.4429,1.0093,-2.0996,2253,2019-08-07 16:27:17:868
4.4732,-6.6876,1.3535,1.3905,-1.4459,0.0681,-1.5899,0.3094,-2.1827,2258,2019-08-07 16:27:17:873
4.4062,-6.3487,1.0707,1.3905,-1.4459,0.0681,-1.5899,0.3094,-2.1827,2263,2019-08-07 16:27:17:878
4.4062,-6.3487,1.0707,1.3905,-1.4459,0.0681,-1.7124,-0.2829,-2.1592,2269,2019-08-07 16:27:17:884
4.4062,-6.3487,1.0707,1.3905,-1.4459,0.0681,-1.7124,-0.2829,-2.1592,2273,2019-08-07 16:27:17:888
4.4062,-6.3487,1.0707,1.3905,-1.4459,0.0681,-1.7124,-0.2829,-2.1592,2278,2019-08-07 16:27:17:893
6.1668,-6.7163,0.4768,-0.1656,-0.9731,0.57,-1.8455,-0.7367,-2.1454,2283,2019-08-07 16:27:17:898
6.1668,-6.7163,0.4768,-0.1656,-0.9731,0.57,-1.8455,-0.7367,-2.1454,2287,2019-08-07 16:27:17:902
7.7791,-7.2843,0.2788,-0.1656,-0.9731,0.57,-1.9393,-0.8805,-2.1827,2293,2019-08-07 16:27:17:908
7.7791,-7.2843,0.2788,-2.0639,0.2026,0.5907,-1.9393,-0.8805,-2.1827,2299,2019-08-07 16:27:17:914
7.7791,-7.2843,0.2788,-2.0639,0.2026,0.5907,-1.9627,-0.6856,-2.2221,2302,2019-08-07 16:27:17:917
8.7216,-7.819,-0.1266,-2.0639,0.2026,0.5907,-1.9627,-0.6856,-2.2221,2308,2019-08-07 16:27:17:923
8.7216,-7.819,-0.1266,-2.0639,0.2026,0.5907,-1.9627,-0.6856,-2.2221,2313,2019-08-07 16:27:17:928
8.7694,-8.3346,-0.1785,-1.9432,1.3344,0.4318,-1.9766,-0.1657,-2.2391,2318,2019-08-07 16:27:17:933
8.7694,-8.3346,-0.1785,-1.9432,1.3344,0.4318,-2.0106,0.2082,-2.1976,2323,2019-08-07 16:27:17:938
8.7694,-8.3346,-0.1785,-1.9432,1.3344,0.4318,-2.0106,0.2082,-2.1976,2328,2019-08-07 16:27:17:943
8.2766,-9.022,0.0101,-1.9432,1.3344,0.4318,-2.0106,0.2082,-2.1976,2333,2019-08-07 16:27:17:948
8.2766,-9.022,0.0101,-1.9432,1.3344,0.4318,-2.0501,0.4276,-2.1528,2338,2019-08-07 16:27:17:953
8.2766,-9.022,0.0101,-0.9085,2.3401,-0.4396,-2.0501,0.4276,-2.1528,2343,2019-08-07 16:27:17:958
7.7408,-9.1032,0.5899,-0.9085,2.3401,-0.4396,-2.0373,0.3765,-2.0996,2348,2019-08-07 16:27:17:963
7.7408,-9.1032,0.5899,-0.9085,2.3401,-0.4396,-2.0373,0.3765,-2.0996,2353,2019-08-07 16:27:17:968
7.6116,-8.7165,0.1657,-0.9085,2.3401,-0.4396,-1.9467,0.1038,-1.9526,2358,2019-08-07 16:27:17:973
7.6116,-8.7165,0.1657,-0.4379,2.0135,-0.1258,-1.9467,0.1038,-1.9526,2363,2019-08-07 16:27:17:978
8.6258,-8.6926,-1.0081,-0.4379,2.0135,-0.1258,-1.8999,-0.0837,-1.8301,2369,2019-08-07 16:27:17:984
8.6258,-8.6926,-1.0081,-0.4379,2.0135,-0.1258,-1.8999,-0.0837,-1.8301,2373,2019-08-07 16:27:17:988
8.6258,-8.6926,-1.0081,-0.4379,2.0135,-0.1258,-1.8264,-0.1934,-1.6511,2378,2019-08-07 16:27:17:993
9.6688,-9.1891,-1.899,-1.9716,2.7361,1.3361,-1.8264,-0.1934,-1.6511,2383,2019-08-07 16:27:17:998
9.6688,-9.1891,-1.899,-1.9716,2.7361,1.3361,-1.7092,0.0132,-1.5393,2388,2019-08-07 16:27:18:003
9.6688,-9.1891,-1.899,-1.9716,2.7361,1.3361,-1.7092,0.0132,-1.5393,2392,2019-08-07 16:27:18:007
9.9224,-9.7619,-2.4034,-1.9716,2.7361,1.3361,-1.5238,0.4106,-1.4295,2398,2019-08-07 16:27:18:013
9.9224,-9.7619,-2.4034,-1.8845,3.9593,1.6401,-1.5238,0.4106,-1.4295,2403,2019-08-07 16:27:18:018
9.9224,-9.7619,-2.4034,-1.8845,3.9593,1.6401,-1.5238,0.4106,-1.4295,2408,2019-08-07 16:27:18:023
8.511,-10.583,-2.0074,-1.8845,3.9593,1.6401,-1.2714,0.8676,-1.2335,2413,2019-08-07 16:27:18:028
8.511,-10.583,-2.0074,-1.8845,3.9593,1.6401,-1.2714,0.8676,-1.2335,2419,2019-08-07 16:27:18:034
6.8891,-10.9697,-1.3899,0.7053,5.0327,0.8774,-1.1371,1.0252,-1.0439,2423,2019-08-07 16:27:18:038
6.8891,-10.9697,-1.3899,0.7053,5.0327,0.8774,-1.1371,1.0252,-1.0439,2427,2019-08-07 16:27:18:042
6.8891,-10.9697,-1.3899,0.7053,5.0327,0.8774,-1.0519,0.8868,-0.8426,2433,2019-08-07 16:27:18:048
6.1619,-10.9077,-0.7206,0.7053,5.0327,0.8774,-1.0519,0.8868,-0.8426,2438,2019-08-07 16:27:18:053
6.1619,-10.9077,-0.7206,1.8006,5.0941,-0.059,-1.0519,0.8868,-0.8426,2443,2019-08-07 16:27:18:058
6.1619,-10.9077,-0.7206,1.8006,5.0941,-0.059,-0.9614,0.4649,-0.5954,2448,2019-08-07 16:27:18:063
6.4011,-10.7835,-0.796,1.4446,5.0765,0.1606,-0.9614,0.4649,-0.5954,2453,2019-08-07 16:27:18:068
6.4011,-10.7835,-0.796,1.4446,5.0765,0.1606,-0.8783,0.0867,-0.3643,2458,2019-08-07 16:27:18:073
6.4011,-10.7835,-0.796,1.4446,5.0765,0.1606,-0.8783,0.0867,-0.3643,2463,2019-08-07 16:27:18:078
7.5589,-10.6069,-1.5596,1.4446,5.0765,0.1606,-0.7899,0.0047,-0.1853,2468,2019-08-07 16:27:18:083
7.5589,-10.6069,-1.5596,-0.3157,4.8102,1.1037,-0.7899,0.0047,-0.1853,2473,2019-08-07 16:27:18:088
8.7215,-10.3491,-2.1724,-0.3157,4.8102,1.1037,-0.6524,0.1017,-0.0298,2478,2019-08-07 16:27:18:093
8.7215,-10.3491,-2.1724,-0.9924,4.4731,1.2908,-0.6524,0.1017,-0.0298,2483,2019-08-07 16:27:18:098
8.7215,-10.3491,-2.1724,-0.9924,4.4731,1.2908,-0.4447,0.4692,0.1503,2487,2019-08-07 16:27:18:102
9.2286,-9.6044,-1.9179,-0.9924,4.4731,1.2908,-0.4447,0.4692,0.1503,2493,2019-08-07 16:27:18:108
9.2286,-9.6044,-1.9179,-0.9924,4.4731,1.2908,-0.2966,0.826,0.293,2498,2019-08-07 16:27:18:113
9.2286,-9.6044,-1.9179,-0.811,3.3432,0.5954,-0.2966,0.826,0.293,2502,2019-08-07 16:27:18:117
8.5684,-8.8788,-1.3098,-0.811,3.3432,0.5954,-0.2966,0.826,0.293,2508,2019-08-07 16:27:18:123
8.5684,-8.8788,-1.3098,-0.811,3.3432,0.5954,-0.2061,1.0913,0.423,2513,2019-08-07 16:27:18:128
7.7311,-8.3393,-0.763,-0.811,3.3432,0.5954,-0.2061,1.0913,0.423,2519,2019-08-07 16:27:18:134
7.7311,-8.3393,-0.763,0.5669,2.415,-0.2126,-0.1912,1.168,0.5348,2523,2019-08-07 16:27:18:138
7.7311,-8.3393,-0.763,0.5669,2.415,-0.2126,-0.1912,1.168,0.5348,2528,2019-08-07 16:27:18:143
7.0278,-8.0004,-0.1973,0.9623,2.145,-0.446,-0.1912,1.168,0.5348,2533,2019-08-07 16:27:18:148
7.0278,-8.0004,-0.1973,0.9623,2.145,-0.446,-0.2029,1.1115,0.5881,2538,2019-08-07 16:27:18:153
6.7312,-7.7808,0.2175,0.9623,2.145,-0.446,-0.2029,1.1115,0.5881,2543,2019-08-07 16:27:18:158
6.7312,-7.7808,0.2175,0.9623,2.145,-0.446,-0.204,0.9475,0.6073,2548,2019-08-07 16:27:18:163
6.4968,-7.6806,0.1421,1.3021,1.7126,-0.6173,-0.204,0.7429,0.6168,2554,2019-08-07 16:27:18:169
6.4968,-7.6806,0.1421,1.3021,1.7126,-0.6173,-0.204,0.7429,0.6168,2557,2019-08-07 16:27:18:172
6.4968,-7.6806,0.1421,1.3021,1.7126,-0.6173,-0.204,0.7429,0.6168,2563,2019-08-07 16:27:18:178
6.6785,-7.8047,-0.1926,1.3021,1.7126,-0.6173,-0.2093,0.5704,0.6232,2568,2019-08-07 16:27:18:183
6.6785,-7.8047,-0.1926,0.9686,1.8086,-0.0589,-0.2093,0.5704,0.6232,2573,2019-08-07 16:27:18:188
6.9417,-7.8333,-0.2633,0.9686,1.8086,-0.0589,-0.1784,0.4159,0.603,2578,2019-08-07 16:27:18:193
6.9417,-7.8333,-0.2633,0.9686,1.8086,-0.0589,-0.1784,0.4159,0.603,2582,2019-08-07 16:27:18:197
6.9417,-7.8333,-0.2633,0.9686,1.8086,-0.0589,-0.1784,0.4159,0.603,2587,2019-08-07 16:27:18:202
6.9417,-7.8333,-0.2633,0.9686,1.8086,-0.0589,-0.0815,0.3669,0.5796,2593,2019-08-07 16:27:18:208
7.1235,-7.7378,-0.8526,0.5355,1.6154,0.5492,-0.0815,0.3669,0.5796,2598,2019-08-07 16:27:18:213
7.1235,-7.7378,-0.8526,0.5355,1.6154,0.5492,-0.0122,0.4095,0.5678,2603,2019-08-07 16:27:18:218
7.3914,-7.4753,-0.8431,0.5355,1.6154,0.5492,-0.0122,0.4095,0.5678,2608,2019-08-07 16:27:18:223
7.3914,-7.4753,-0.8431,0.2222,1.1918,0.6747,0.0432,0.4734,0.5444,2612,2019-08-07 16:27:18:227
7.3914,-7.4753,-0.8431,0.2222,1.1918,0.6747,0.0432,0.4734,0.5444,2618,2019-08-07 16:27:18:233
7.2056,-7.2414,-0.8382,0.2222,1.1918,0.6747,0.1114,0.5704,0.5007,2622,2019-08-07 16:27:18:237
7.2056,-7.2414,-0.8382,0.2222,1.1918,0.6747,0.1114,0.5704,0.5007,2628,2019-08-07 16:27:18:243
6.8277,-7.1412,-0.6403,0.69,0.8405,0.4906,0.1657,0.5981,0.4656,2633,2019-08-07 16:27:18:248
6.8277,-7.1412,-0.6403,0.69,0.8405,0.4906,0.1657,0.5981,0.4656,2638,2019-08-07 16:27:18:253
6.8277,-7.1412,-0.6403,0.69,0.8405,0.4906,0.1657,0.5981,0.4656,2643,2019-08-07 16:27:18:258
6.4019,-6.9598,-0.3009,0.69,0.8405,0.4906,0.1881,0.565,0.423,2647,2019-08-07 16:27:18:262
6.4019,-6.9598,-0.3009,1.3617,0.4765,0.1453,0.1881,0.565,0.423,2654,2019-08-07 16:27:18:269
5.8995,-6.8309,-0.0652,1.3617,0.4765,0.1453,0.2115,0.4596,0.391,2658,2019-08-07 16:27:18:273
5.8995,-6.8309,-0.0652,1.3617,0.4765,0.1453,0.2115,0.4596,0.391,2663,2019-08-07 16:27:18:278
5.8995,-6.8309,-0.0652,1.3617,0.4765,0.1453,0.2552,0.2913,0.3804,2668,2019-08-07 16:27:18:283
5.6125,-6.9073,0.0527,1.7627,0.5235,-0.0864,0.2552,0.2913,0.3804,2673,2019-08-07 16:27:18:288
5.6125,-6.9073,0.0527,1.7627,0.5235,-0.0864,0.2861,0.0718,0.3569,2678,2019-08-07 16:27:18:293
6.0144,-6.8882,-0.0557,1.7627,0.5235,-0.0864,0.2861,0.0718,0.3569,2683,2019-08-07 16:27:18:298
6.0144,-6.8882,-0.0557,1.7627,0.5235,-0.0864,0.2775,-0.1497,0.3037,2688,2019-08-07 16:27:18:303
6.0144,-6.8882,-0.0557,0.8328,0.114,0.0568,0.2775,-0.1497,0.3037,2693,2019-08-07 16:27:18:308
6.6363,-6.6065,0.0197,0.8328,0.114,0.0568,0.2775,-0.1497,0.3037,2698,2019-08-07 16:27:18:313
6.6363,-6.6065,0.0197,0.8328,0.114,0.0568,0.2637,-0.1955,0.2728,2704,2019-08-07 16:27:18:319
6.6363,-6.6065,0.0197,0.8328,0.114,0.0568,0.2637,-0.1955,0.2728,2708,2019-08-07 16:27:18:323
7.3779,-6.5731,-0.2537,0.8328,0.114,0.0568,0.2307,-0.1263,0.2408,2713,2019-08-07 16:27:18:328
7.3779,-6.5731,-0.2537,-0.2402,0.0653,0.3981,0.2307,-0.1263,0.2408,2719,2019-08-07 16:27:18:334
7.6554,-6.6495,-0.1312,-0.2402,0.0653,0.3981,0.1742,0.0612,0.2078,2724,2019-08-07 16:27:18:339
7.6554,-6.6495,-0.1312,-0.2402,0.0653,0.3981,0.1742,0.0612,0.2078,2727,2019-08-07 16:27:18:342
7.6745,-6.7116,0.1752,-0.2402,0.0653,0.3981,0.1636,0.238,0.1982,2733,2019-08-07 16:27:18:348
7.6745,-6.7116,0.1752,-0.3202,0.1499,-0.1133,0.1636,0.238,0.1982,2739,2019-08-07 16:27:18:354
7.6745,-6.7116,0.1752,-0.3202,0.1499,-0.1133,0.1636,0.238,0.1982,2743,2019-08-07 16:27:18:358
7.3492,-6.659,0.4109,0.0736,0.0505,-0.2097,0.1604,0.3648,0.179,2747,2019-08-07 16:27:18:362
7.3492,-6.659,0.4109,0.0736,0.0505,-0.2097,0.1604,0.3648,0.179,2754,2019-08-07 16:27:18:369
6.5933,-6.4967,0.3544,0.0736,0.0505,-0.2097,0.1231,0.335,0.1822,2758,2019-08-07 16:27:18:373
6.5933,-6.4967,0.3544,0.0736,0.0505,-0.2097,0.1231,0.335,0.1822,2763,2019-08-07 16:27:18:378
6.5933,-6.4967,0.3544,0.8981,0.0226,-0.2899,0.1231,0.335,0.1822,2769,2019-08-07 16:27:18:384
6.2392,-6.6972,0.5901,0.8981,0.0226,-0.2899,0.1092,0.0985,0.2067,2772,2019-08-07 16:27:18:387
6.2392,-6.6972,0.5901,0.8981,0.0226,-0.2899,0.1092,0.0985,0.2067,2778,2019-08-07 16:27:18:393
6.2584,-6.8548,0.3968,0.8981,0.0226,-0.2899,0.1273,-0.138,0.2184,2784,2019-08-07 16:27:18:399
6.2584,-6.8548,0.3968,0.8363,0.2211,-0.2137,0.1273,-0.138,0.2184,2788,2019-08-07 16:27:18:403
6.2584,-6.8548,0.3968,0.8363,0.2211,-0.2137,0.1273,-0.138,0.2184,2793,2019-08-07 16:27:18:408
6.8947,-6.7879,0.1705,0.3033,0.1265,0.0544,0.1476,-0.4171,0.2408,2798,2019-08-07 16:27:18:413
6.8947,-6.7879,0.1705,0.3033,0.1265,0.0544,0.1476,-0.4171,0.2408,2803,2019-08-07 16:27:18:418
6.8947,-6.7879,0.1705,0.3033,0.1265,0.0544,0.1518,-0.4672,0.228,2808,2019-08-07 16:27:18:423
7.8085,-6.597,-0.1924,0.3033,0.1265,0.0544,0.1518,-0.4672,0.228,2812,2019-08-07 16:27:18:427
7.8085,-6.597,-0.1924,-0.8011,-0.0768,0.3365,0.1604,-0.3713,0.211,2818,2019-08-07 16:27:18:433
7.8085,-6.597,-0.1924,-0.8011,-0.0768,0.3365,0.1604,-0.3713,0.211,2823,2019-08-07 16:27:18:438
8.1577,-6.7879,-0.282,-0.8011,-0.0768,0.3365,0.1678,-0.1817,0.1886,2828,2019-08-07 16:27:18:443
8.1577,-6.7879,-0.282,-0.8011,-0.0768,0.3365,0.1678,-0.1817,0.1886,2834,2019-08-07 16:27:18:449
8.1577,-6.7879,-0.282,-0.7564,0.1474,0.28,0.1966,0.0729,0.1598,2837,2019-08-07 16:27:18:452
7.598,-6.9789,0.0763,-0.7564,0.1474,0.28,0.1966,0.0729,0.1598,2843,2019-08-07 16:27:18:458
7.598,-6.9789,0.0763,-0.7564,0.1474,0.28,0.1966,0.0729,0.1598,2848,2019-08-07 16:27:18:463
6.7464,-7.103,0.4722,-0.7564,0.1474,0.28,0.2328,0.1858,0.1513,2853,2019-08-07 16:27:18:468
6.7464,-7.103,0.4722,0.5266,0.406,-0.2353,0.2328,0.1858,0.1513,2858,2019-08-07 16:27:18:473
6.7464,-7.103,0.4722,0.5266,0.406,-0.2353,0.2562,0.1762,0.1428,2863,2019-08-07 16:27:18:478
6.2441,-7.0935,0.5571,0.5266,0.406,-0.2353,0.2562,0.1762,0.1428,2869,2019-08-07 16:27:18:484
6.2441,-7.0935,0.5571,0.5266,0.406,-0.2353,0.2658,-0.0262,0.1066,2873,2019-08-07 16:27:18:488
6.0431,-6.9693,0.7173,1.0588,0.2073,-0.4454,0.2658,-0.0262,0.1066,2878,2019-08-07 16:27:18:493
6.0431,-6.9693,0.7173,1.0588,0.2073,-0.4454,0.2626,-0.1817,0.0746,2883,2019-08-07 16:27:18:498
6.0431,-6.9693,0.7173,1.0588,0.2073,-0.4454,0.2626,-0.1817,0.0746,2887,2019-08-07 16:27:18:502
6.933,-6.6304,0.6042,1.0588,0.2073,-0.4454,0.2626,-0.1817,0.0746,2893,2019-08-07 16:27:18:508
6.933,-6.6304,0.6042,-0.0806,-0.3376,-0.2215,0.2456,-0.2659,0.0395,2898,2019-08-07 16:27:18:513
6.933,-6.6304,0.6042,-0.0806,-0.3376,-0.2215,0.2456,-0.2659,0.0395,2902,2019-08-07 16:27:18:517
7.555,-6.2867,0.3591,-0.0806,-0.3376,-0.2215,0.2221,-0.1892,0.0128,2908,2019-08-07 16:27:18:523
7.555,-6.2867,0.3591,-0.0806,-0.3376,-0.2215,0.2221,-0.1892,0.0128,2913,2019-08-07 16:27:18:528
7.7033,-6.153,0.4392,-0.6377,-0.5352,-0.0905,0.2115,-0.0784,0.0235,2918,2019-08-07 16:27:18:533
7.7033,-6.153,0.4392,-0.6377,-0.5352,-0.0905,0.2115,-0.0784,0.0235,2923,2019-08-07 16:27:18:538
7.6459,-6.3583,0.5005,-0.6377,-0.5352,-0.0905,0.2062,0.0441,0.0341,2928,2019-08-07 16:27:18:543
7.6459,-6.3583,0.5005,-0.6377,-0.5352,-0.0905,0.2062,0.0441,0.0341,2933,2019-08-07 16:27:18:548
7.6459,-6.3583,0.5005,-0.3562,-0.4343,-0.3077,0.2062,0.0441,0.0341,2938,2019-08-07 16:27:18:553
7.4449,-6.2962,0.6089,-0.3562,-0.4343,-0.3077,0.1913,0.1112,0.0459,2943,2019-08-07 16:27:18:558
7.4449,-6.2962,0.6089,-0.3562,-0.4343,-0.3077,0.1913,0.1112,0.0459,2948,2019-08-07 16:27:18:563
7.2105,-6.2676,0.6419,-0.3562,-0.4343,-0.3077,0.1699,0.1283,0.0373,2953,2019-08-07 16:27:18:568
7.2105,-6.2676,0.6419,0.0132,-0.5028,-0.2263,0.1699,0.1283,0.0373,2958,2019-08-07 16:27:18:573
7.2105,-6.2676,0.6419,0.0132,-0.5028,-0.2263,0.1582,0.1059,0.0373,2963,2019-08-07 16:27:18:578
6.9043,-6.4585,0.5194,0.0132,-0.5028,-0.2263,0.1582,0.1059,0.0373,2969,2019-08-07 16:27:18:584
6.9043,-6.4585,0.5194,0.0132,-0.5028,-0.2263,0.1391,0.0058,0.0363,2973,2019-08-07 16:27:18:588
6.6986,-6.6638,0.2554,0.3861,-0.1104,0.1362,0.1391,0.0058,0.0363,2978,2019-08-07 16:27:18:593
6.6986,-6.6638,0.2554,0.3861,-0.1104,0.1362,0.1433,-0.0677,0.0416,2983,2019-08-07 16:27:18:598
6.6986,-6.6638,0.2554,0.3861,-0.1104,0.1362,0.1433,-0.0677,0.0416,2988,2019-08-07 16:27:18:603
6.7034,-6.8405,0.3167,0.3861,-0.1104,0.1362,0.1433,-0.0677,0.0416,2993,2019-08-07 16:27:18:608
6.7034,-6.8405,0.3167,0.2697,0.0266,0.203,0.1636,-0.1497,0.0405,2998,2019-08-07 16:27:18:613
6.6603,-6.7641,0.1423,0.2697,0.0266,0.203,0.1636,-0.1497,0.0405,3002,2019-08-07 16:27:18:617
6.6603,-6.7641,0.1423,0.2697,0.0266,0.203,0.1849,-0.2296,0.0267,3008,2019-08-07 16:27:18:623
6.6603,-6.7641,0.1423,0.2697,0.0266,0.203,0.1849,-0.2296,0.0267,3013,2019-08-07 16:27:18:628
6.6603,-6.7641,0.1423,0.2697,0.0266,0.203,0.1849,-0.2296,0.0267,3018,2019-08-07 16:27:18:633
6.7752,-6.5445,0.0904,0.0612,-0.2157,0.3949,0.1881,-0.2754,0.0331,3022,2019-08-07 16:27:18:637
6.7752,-6.5445,0.0904,0.0612,-0.2157,0.3949,0.1881,-0.2754,0.0331,3028,2019-08-07 16:27:18:643
6.7752,-6.5445,0.0904,0.0612,-0.2157,0.3949,0.1199,-0.2147,0.0022,3034,2019-08-07 16:27:18:649
7.7177,-6.5731,-0.051,-0.6208,-0.2385,0.4301,0.1199,-0.2147,0.0022,3038,2019-08-07 16:27:18:653
7.7177,-6.5731,-0.051,-0.6208,-0.2385,0.4301,0.1092,-0.0901,-0.0063,3043,2019-08-07 16:27:18:658
7.7607,-6.6304,-0.1029,-0.6208,-0.2385,0.4301,0.1092,-0.0901,-0.0063,3048,2019-08-07 16:27:18:663
7.7607,-6.6304,-0.1029,-0.6208,-0.2385,0.4301,0.1135,0.0409,-0.001,3053,2019-08-07 16:27:18:668
7.7607,-6.6304,-0.1029,-0.6208,-0.2385,0.4301,0.1135,0.0409,-0.001,3058,2019-08-07 16:27:18:673
7.4737,-6.7259,0.3214,-0.4927,-0.0576,0.1398,0.1103,0.074,0.015,3063,2019-08-07 16:27:18:678
7.4737,-6.7259,0.3214,-0.4927,-0.0576,0.1398,0.1103,0.074,0.015,3068,2019-08-07 16:27:18:683
7.1196,-6.7784,0.2931,-0.4927,-0.0576,0.1398,0.089,0.0164,0.0395,3073,2019-08-07 16:27:18:688
7.1196,-6.7784,0.2931,0.0018,0.0836,0.0663,0.089,0.0164,0.0395,3078,2019-08-07 16:27:18:693
7.1196,-6.7784,0.2931,0.0018,0.0836,0.0663,0.089,0.0164,0.0395,3082,2019-08-07 16:27:18:697
7.0622,-6.9598,0.378,0.0018,0.0836,0.0663,0.0762,-0.088,0.0586,3088,2019-08-07 16:27:18:703
7.0622,-6.9598,0.378,0.0018,0.0836,0.0663,0.0762,-0.088,0.0586,3093,2019-08-07 16:27:18:708
7.0622,-6.9598,0.378,0.0018,0.0836,0.0663,0.073,-0.1913,0.0629,3098,2019-08-07 16:27:18:713
7.1531,-6.9932,0.4109,-0.0825,0.204,-0.0262,0.073,-0.1913,0.0629,3102,2019-08-07 16:27:18:717
7.1531,-6.9932,0.4109,-0.0825,0.204,-0.0262,0.0805,-0.2499,0.0831,3108,2019-08-07 16:27:18:723
7.3828,-6.9455,0.312,-0.0825,0.204,-0.0262,0.0805,-0.2499,0.0831,3113,2019-08-07 16:27:18:728
7.3828,-6.9455,0.312,-0.0825,0.204,-0.0262,0.0879,-0.2201,0.0895,3118,2019-08-07 16:27:18:733
7.3828,-6.9455,0.312,-0.4599,0.1312,0.0261,0.0879,-0.2201,0.0895,3123,2019-08-07 16:27:18:738
7.5646,-6.893,0.3638,-0.4599,0.1312,0.0261,0.0879,-0.1402,0.0885,3128,2019-08-07 16:27:18:743
7.5646,-6.893,0.3638,-0.4599,0.1312,0.0261,0.0879,-0.1402,0.0885,3133,2019-08-07 16:27:18:748
7.6124,-6.7498,0.4722,-0.4599,0.1312,0.0261,0.0879,-0.1402,0.0885,3137,2019-08-07 16:27:18:752
7.6124,-6.7498,0.4722,-0.5454,-0.0788,-0.1585,0.0719,-0.0049,0.0736,3143,2019-08-07 16:27:18:758
7.3971,-6.7259,0.5429,-0.5454,-0.0788,-0.1585,0.0719,-0.0049,0.0736,3148,2019-08-07 16:27:18:763
7.3971,-6.7259,0.5429,-0.5454,-0.0788,-0.1585,0.0602,0.0814,0.0672,3152,2019-08-07 16:27:18:767
7.3971,-6.7259,0.5429,-0.5454,-0.0788,-0.1585,0.0602,0.0814,0.0672,3158,2019-08-07 16:27:18:773
7.0383,-6.8357,0.5712,0.0056,0.0182,-0.1956,0.0474,0.1304,0.0554,3163,2019-08-07 16:27:18:778
7.0383,-6.8357,0.5712,0.0056,0.0182,-0.1956,0.0474,0.1304,0.0554,3167,2019-08-07 16:27:18:782
6.8805,-6.9312,0.6608,0.0056,0.0182,-0.1956,0.0315,0.0942,0.0523,3173,2019-08-07 16:27:18:788
6.8805,-6.9312,0.6608,0.0056,0.0182,-0.1956,0.0315,0.0942,0.0523,3178,2019-08-07 16:27:18:793
6.8805,-6.9312,0.6608,0.1258,0.1247,-0.2555,0.0155,0.026,0.0416,3183,2019-08-07 16:27:18:798
6.9761,-6.9503,0.5948,0.1258,0.1247,-0.2555,0.0155,0.026,0.0416,3188,2019-08-07 16:27:18:803
6.9761,-6.9503,0.5948,0.1258,0.1247,-0.2555,0.0091,-0.0485,0.0384,3194,2019-08-07 16:27:18:809
7.0718,-6.8643,0.4911,0.1258,0.1247,-0.2555,0.0091,-0.0485,0.0384,3198,2019-08-07 16:27:18:813
7.0718,-6.8643,0.4911,-0.1001,0.066,-0.1167,0.0155,-0.122,0.0565,3203,2019-08-07 16:27:18:818
7.0718,-6.8643,0.4911,-0.1001,0.066,-0.1167,0.0155,-0.122,0.0565,3207,2019-08-07 16:27:18:822
7.4211,-6.9646,0.3968,-0.1001,0.066,-0.1167,0.0293,-0.1615,0.0704,3213,2019-08-07 16:27:18:828
7.4211,-6.9646,0.3968,-0.1001,0.066,-0.1167,0.0293,-0.1615,0.0704,3218,2019-08-07 16:27:18:833
7.4211,-6.9646,0.3968,-0.6,0.0099,-0.0782,0.04,-0.1551,0.081,3223,2019-08-07 16:27:18:838
7.7369,-6.8452,0.4204,-0.6,0.0099,-0.0782,0.04,-0.1551,0.081,3228,2019-08-07 16:27:18:843
7.7369,-6.8452,0.4204,-0.6,0.0099,-0.0782,0.04,-0.1551,0.081,3233,2019-08-07 16:27:18:848
7.7369,-6.8452,0.4204,-0.6,0.0099,-0.0782,0.0411,-0.0944,0.0789,3237,2019-08-07 16:27:18:852
7.7273,-6.6925,0.3544,-0.6644,-0.1649,0.0093,0.0304,-0.0145,0.0821,3243,2019-08-07 16:27:18:858
7.7273,-6.6925,0.3544,-0.6644,-0.1649,0.0093,0.0304,-0.0145,0.0821,3248,2019-08-07 16:27:18:863
7.4355,-6.6065,0.5335,-0.6644,-0.1649,0.0093,0.0165,0.042,0.0874,3253,2019-08-07 16:27:18:868
7.4355,-6.6065,0.5335,-0.6644,-0.1649,0.0093,0.0165,0.042,0.0874,3258,2019-08-07 16:27:18:873
7.4355,-6.6065,0.5335,-0.2767,-0.2028,-0.1958,0.0165,0.042,0.0874,3263,2019-08-07 16:27:18:878
7.2632,-6.6877,0.5429,-0.2767,-0.2028,-0.1958,-0.0069,0.0772,0.0821,3268,2019-08-07 16:27:18:883
7.2632,-6.6877,0.5429,-0.2767,-0.2028,-0.1958,-0.0069,0.0772,0.0821,3273,2019-08-07 16:27:18:888
7.1436,-6.7927,0.5524,-0.2767,-0.2028,-0.1958,-0.0378,0.0867,0.0682,3277,2019-08-07 16:27:18:892
7.1436,-6.7927,0.5524,-0.1383,-0.031,-0.158,-0.0655,0.0878,0.0544,3283,2019-08-07 16:27:18:898
7.1436,-6.7927,0.5524,-0.1383,-0.031,-0.158,-0.0655,0.0878,0.0544,3288,2019-08-07 16:27:18:903
7.0432,-6.9885,0.4911,-0.1383,-0.031,-0.158,-0.0655,0.0878,0.0544,3293,2019-08-07 16:27:18:908
7.0432,-6.9885,0.4911,-0.1383,-0.031,-0.158,-0.074,0.0857,0.0501,3299,2019-08-07 16:27:18:914
7.0623,-7.0792,0.3167,-0.0748,0.2042,0.0666,-0.074,0.0857,0.0501,3303,2019-08-07 16:27:18:918
7.0623,-7.0792,0.3167,-0.0748,0.2042,0.0666,-0.0633,0.0953,0.0523,3308,2019-08-07 16:27:18:923
7.0623,-7.0792,0.3167,-0.0748,0.2042,0.0666,-0.0633,0.0953,0.0523,3313,2019-08-07 16:27:18:928
6.981,-7.0744,0.1988,-0.0748,0.2042,0.0666,-0.0378,0.0974,0.0469,3318,2019-08-07 16:27:18:933
6.981,-7.0744,0.1988,0.1512,0.1148,0.152,-0.0378,0.0974,0.0469,3322,2019-08-07 16:27:18:937
6.7705,-7.0362,0.1328,0.1512,0.1148,0.152,-0.0143,0.0718,0.0618,3328,2019-08-07 16:27:18:943
6.7705,-7.0362,0.1328,0.1512,0.1148,0.152,-0.0143,0.0718,0.0618,3333,2019-08-07 16:27:18:948
6.7705,-7.0362,0.1328,0.1512,0.1148,0.152,0.0112,0.0431,0.0693,3338,2019-08-07 16:27:18:953
6.7561,-7.0219,0.246,0.1882,0.0995,0.1818,0.0112,0.0431,0.0693,3343,2019-08-07 16:27:18:958
6.7561,-7.0219,0.246,0.1882,0.0995,0.1818,0.0293,0.0037,0.0586,3348,2019-08-07 16:27:18:963
6.7513,-6.9025,0.2554,0.1882,0.0995,0.1818,0.0293,0.0037,0.0586,3353,2019-08-07 16:27:18:968
6.7513,-6.9025,0.2554,0.1882,0.0995,0.1818,0.0293,0.0037,0.0586,3358,2019-08-07 16:27:18:973
6.7513,-6.9025,0.2554,0.1882,0.0995,0.1818,0.0357,-0.0315,0.048,3363,2019-08-07 16:27:18:978
6.7896,-6.7641,0.2177,0.1702,-0.138,0.1793,0.0357,-0.0315,0.048,3368,2019-08-07 16:27:18:983
6.7896,-6.7641,0.2177,0.1702,-0.138,0.1793,0.024,-0.0432,0.0512,3372,2019-08-07 16:27:18:987
6.7657,-6.8309,0.2601,0.1702,-0.138,0.1793,0.024,-0.0432,0.0512,3378,2019-08-07 16:27:18:993
6.7657,-6.8309,0.2601,0.1823,0.0169,0.176,0.0144,-0.0443,0.0384,3383,2019-08-07 16:27:18:998
6.7657,-6.8309,0.2601,0.1823,0.0169,0.176,0.0144,-0.0443,0.0384,3388,2019-08-07 16:27:19:003
6.8375,-6.9025,0.246,0.1823,0.0169,0.176,0.0144,-0.0443,0.0384,3393,2019-08-07 16:27:19:008
6.8375,-6.9025,0.246,0.1823,0.0169,0.176,-0.0122,-0.0145,0.0086,3398,2019-08-07 16:27:19:013
6.8423,-6.8882,0.1423,0.1078,-0.0242,0.2464,-0.0122,-0.0145,0.0086,3403,2019-08-07 16:27:19:018
6.8423,-6.8882,0.1423,0.1078,-0.0242,0.2464,-0.0293,0.0228,-0.0202,3408,2019-08-07 16:27:19:023
6.8423,-6.8882,0.1423,0.1078,-0.0242,0.2464,-0.0293,0.0228,-0.0202,3413,2019-08-07 16:27:19:028
6.67,-6.9216,0.1517,0.1078,-0.0242,0.2464,-0.0367,0.0356,-0.0447,3418,2019-08-07 16:27:19:033
6.67,-6.9216,0.1517,0.2983,-0.0061,0.1781,-0.0367,0.0356,-0.0447,3423,2019-08-07 16:27:19:038
6.67,-6.9216,0.1517,0.2983,-0.0061,0.1781,-0.0367,0.0356,-0.0447,3428,2019-08-07 16:27:19:043
6.6509,-6.9503,0.2507,0.2983,-0.0061,0.1781,-0.0474,-0.0059,-0.0607,3433,2019-08-07 16:27:19:048
6.6509,-6.9503,0.2507,0.2983,-0.0061,0.1781,-0.0474,-0.0059,-0.0607,3437,2019-08-07 16:27:19:052
6.7131,-6.9407,0.2837,0.2983,-0.0061,0.1781,-0.0527,-0.0869,-0.066,3443,2019-08-07 16:27:19:058
6.7131,-6.9407,0.2837,0.1532,-0.0131,0.019,-0.0527,-0.0869,-0.066,3448,2019-08-07 16:27:19:063
6.7131,-6.9407,0.2837,0.1532,-0.0131,0.019,-0.0591,-0.1806,-0.0692,3453,2019-08-07 16:27:19:068
6.8614,-6.8261,0.1894,0.1532,-0.0131,0.019,-0.0591,-0.1806,-0.0692,3458,2019-08-07 16:27:19:073
6.8614,-6.8261,0.1894,0.1532,-0.0131,0.019,-0.0559,-0.2424,-0.0607,3462,2019-08-07 16:27:19:077
7.359,-6.955,0.0669,-0.0469,-0.0188,0.2968,-0.0602,-0.2797,-0.0564,3468,2019-08-07 16:27:19:083
7.359,-6.955,0.0669,-0.0469,-0.0188,0.2968,-0.0602,-0.2797,-0.0564,3473,2019-08-07 16:27:19:088
7.359,-6.955,0.0669,-0.0469,-0.0188,0.2968,-0.0602,-0.2797,-0.0564,3478,2019-08-07 16:27:19:093
7.5982,-7.0792,-0.0227,-0.0469,-0.0188,0.2968,-0.0633,-0.2339,-0.0617,3483,2019-08-07 16:27:19:098
7.5982,-7.0792,-0.0227,-0.6435,0.1859,0.3011,-0.0633,-0.2339,-0.0617,3487,2019-08-07 16:27:19:102
7.5982,-7.0792,-0.0227,-0.6435,0.1859,0.3011,-0.042,-0.0784,-0.0617,3493,2019-08-07 16:27:19:108
8.1292,-7.399,-0.1924,-0.6435,0.1859,0.3011,-0.042,-0.0784,-0.0617,3499,2019-08-07 16:27:19:114
8.1292,-7.399,-0.1924,-0.6435,0.1859,0.3011,-0.0442,0.0782,-0.0724,3503,2019-08-07 16:27:19:118
8.1292,-7.399,-0.1924,-0.4839,0.2444,0.2554,-0.0442,0.0782,-0.0724,3507,2019-08-07 16:27:19:122
7.2537,-7.0744,0.1989,-0.4839,0.2444,0.2554,-0.042,0.1847,-0.0308,3513,2019-08-07 16:27:19:128
7.2537,-7.0744,0.1989,-0.4839,0.2444,0.2554,-0.042,0.1847,-0.0308,3518,2019-08-07 16:27:19:133
6.9284,-7.1842,0.4063,-0.4839,0.2444,0.2554,-0.0516,0.1624,-0.0415,3523,2019-08-07 16:27:19:138
6.9284,-7.1842,0.4063,0.166,0.2827,-0.1412,-0.0516,0.1624,-0.0415,3529,2019-08-07 16:27:19:144
6.9284,-7.1842,0.4063,0.166,0.2827,-0.1412,-0.0751,0.0963,-0.0607,3533,2019-08-07 16:27:19:148
6.5744,-6.9741,0.7315,0.166,0.2827,-0.1412,-0.0751,0.0963,-0.0607,3538,2019-08-07 16:27:19:153
6.5744,-6.9741,0.7315,0.166,0.2827,-0.1412,-0.0484,0.0143,-0.0649,3543,2019-08-07 16:27:19:158
7.0193,-6.9312,0.6797,0.1288,0.0455,-0.5124,-0.0484,0.0143,-0.0649,3549,2019-08-07 16:27:19:164
7.0193,-6.9312,0.6797,0.1288,0.0455,-0.5124,-0.0154,-0.0123,-0.0671,3553,2019-08-07 16:27:19:168
7.0193,-6.9312,0.6797,0.1288,0.0455,-0.5124,-0.0154,-0.0123,-0.0671,3558,2019-08-07 16:27:19:173
7.3064,-6.8357,0.5194,0.1288,0.0455,-0.5124,-0.008,-0.0208,-0.0468,3563,2019-08-07 16:27:19:178
7.3064,-6.8357,0.5194,-0.2731,-0.0929,-0.1561,-0.008,-0.0208,-0.0468,3568,2019-08-07 16:27:19:183
7.2155,-6.6495,0.4628,-0.2731,-0.0929,-0.1561,-0.0495,-0.0432,0.0075,3572,2019-08-07 16:27:19:187
7.2155,-6.6495,0.4628,-0.2234,-0.1866,-0.1549,-0.0495,-0.0432,0.0075,3578,2019-08-07 16:27:19:193
7.2155,-6.6495,0.4628,-0.2234,-0.1866,-0.1549,-0.1198,-0.0773,0.0533,3583,2019-08-07 16:27:19:198
7.2538,-6.7307,0.3261,-0.2234,-0.1866,-0.1549,-0.1198,-0.0773,0.0533,3588,2019-08-07 16:27:19:203
7.2538,-6.7307,0.3261,-0.2234,-0.1866,-0.1549,-0.1198,-0.0773,0.0533,3593,2019-08-07 16:27:19:208
7.2585,-7.0267,0.444,-0.2525,0.103,-0.0743,-0.1709,-0.1039,0.0608,3598,2019-08-07 16:27:19:213
7.2585,-7.0267,0.444,-0.2525,0.103,-0.0743,-0.1709,-0.1039,0.0608,3603,2019-08-07 16:27:19:218
7.2585,-7.0267,0.444,-0.2525,0.103,-0.0743,-0.1454,-0.0922,0.0384,3608,2019-08-07 16:27:19:223
7.0815,-7.0935,0.3073,-0.2525,0.103,-0.0743,-0.1454,-0.0922,0.0384,3613,2019-08-07 16:27:19:228
7.0815,-7.0935,0.3073,-0.1043,0.2341,0.1018,-0.0942,-0.0145,0.0363,3618,2019-08-07 16:27:19:233
7.0815,-7.0935,0.3073,-0.1043,0.2341,0.1018,-0.0942,-0.0145,0.0363,3623,2019-08-07 16:27:19:238
7.0852,-7.1507,-0.0041,-0.1043,0.2341,0.1018,-0.0687,0.0644,0.0203,3628,2019-08-07 16:27:19:243
7.0852,-7.1507,-0.0041,-0.1043,0.2341,0.1018,-0.0687,0.0644,0.0203,3633,2019-08-07 16:27:19:248
6.8555,-7.0886,-0.0984,0.1455,0.2205,0.3233,-0.057,0.1208,-0.0159,3638,2019-08-07 16:27:19:253
6.8555,-7.0886,-0.0984,0.1455,0.2205,0.3233,-0.057,0.1208,-0.0159,3643,2019-08-07 16:27:19:258
6.6928,-7.079,-0.0889,0.1455,0.2205,0.3233,-0.0527,0.1272,-0.0319,3648,2019-08-07 16:27:19:263
6.6928,-7.079,-0.0889,0.1455,0.2205,0.3233,-0.0527,0.1272,-0.0319,3653,2019-08-07 16:27:19:268
6.6928,-7.079,-0.0889,0.1858,0.1607,0.2691,-0.042,0.0782,-0.0639,3659,2019-08-07 16:27:19:274
6.8077,-7.0027,-0.1266,0.1858,0.1607,0.2691,-0.042,0.0782,-0.0639,3663,2019-08-07 16:27:19:278
6.8077,-7.0027,-0.1266,0.1858,0.1607,0.2691,-0.042,0.0782,-0.0639,3668,2019-08-07 16:27:19:283
6.8077,-7.0027,-0.1266,0.1858,0.1607,0.2691,-0.0591,-0.0283,-0.0724,3673,2019-08-07 16:27:19:288
6.8411,-6.8404,-0.2822,-0.0161,0.026,0.4356,-0.0591,-0.0283,-0.0724,3678,2019-08-07 16:27:19:293
6.8411,-6.8404,-0.2822,-0.0161,0.026,0.4356,-0.058,-0.0645,-0.0639,3682,2019-08-07 16:27:19:297
6.8411,-6.8404,-0.2822,-0.0161,0.026,0.4356,-0.058,-0.0645,-0.0639,3688,2019-08-07 16:27:19:303
7.3387,-6.9215,0.0383,-0.0161,0.026,0.4356,0.0517,-0.0901,-0.0628,3692,2019-08-07 16:27:19:307
7.3387,-6.9215,0.0383,-0.379,0.1315,0.4692,0.0517,-0.0901,-0.0628,3698,2019-08-07 16:27:19:313
7.353,-6.9311,-0.3058,-0.379,0.1315,0.4692,0.0517,-0.0901,-0.0628,3702,2019-08-07 16:27:19:317
7.353,-6.9311,-0.3058,-0.379,0.1315,0.4692,0.0677,-0.0315,-0.0287,3708,2019-08-07 16:27:19:323
7.353,-6.9311,-0.3058,-0.379,0.1315,0.4692,0.0677,-0.0315,-0.0287,3713,2019-08-07 16:27:19:328
7.3147,-6.8356,-0.1738,-0.2118,0.0408,0.4276,0.0464,0.0037,-0.0021,3718,2019-08-07 16:27:19:333
7.3147,-6.8356,-0.1738,-0.2118,0.0408,0.4276,0.0464,0.0037,-0.0021,3722,2019-08-07 16:27:19:337
7.1329,-6.9454,-0.1078,-0.2118,0.0408,0.4276,-0.0037,0.0154,0.0182,3728,2019-08-07 16:27:19:343
7.1329,-6.9454,-0.1078,-0.2118,0.0408,0.4276,-0.0037,0.0154,0.0182,3733,2019-08-07 16:27:19:348
7.1329,-6.9454,-0.1078,0.0299,0.1146,0.0015,-0.0612,0.009,0.015,3738,2019-08-07 16:27:19:353
7.0516,-6.9311,0.2929,0.0299,0.1146,0.0015,-0.0612,0.009,0.015,3743,2019-08-07 16:27:19:358
7.0516,-6.9311,0.2929,0.0299,0.1146,0.0015,-0.0623,-0.0102,-0.0042,3748,2019-08-07 16:27:19:363
6.999,-6.8642,0.3824,0.0299,0.1146,0.0015,-0.0623,-0.0102,-0.0042,3752,2019-08-07 16:27:19:367
6.999,-6.8642,0.3824,0.0299,0.1146,0.0015,-0.0623,-0.0102,-0.0042,3758,2019-08-07 16:27:19:373
6.999,-6.8642,0.3824,-0.1378,0.0187,0.0307,-0.0484,-0.0091,-0.0085,3763,2019-08-07 16:27:19:378
7.3195,-6.8642,0.2834,-0.1378,0.0187,0.0307,-0.0484,-0.0091,-0.0085,3768,2019-08-07 16:27:19:383
7.3195,-6.8642,0.2834,-0.1378,0.0187,0.0307,-0.009,0.0409,-0.0053,3772,2019-08-07 16:27:19:387
7.463,-6.9358,0.3541,-0.4375,0.092,-0.1515,-0.009,0.0409,-0.0053,3778,2019-08-07 16:27:19:393
7.463,-6.9358,0.3541,-0.4375,0.092,-0.1515,0.0304,0.0814,0.0128,3782,2019-08-07 16:27:19:397
7.463,-6.9358,0.3541,-0.4375,0.092,-0.1515,0.0304,0.0814,0.0128,3788,2019-08-07 16:27:19:403
7.3577,-6.7544,0.0195,-0.4375,0.092,-0.1515,0.0304,0.0814,0.0128,3792,2019-08-07 16:27:19:407
7.3577,-6.7544,0.0195,-0.4375,0.092,-0.1515,-0.0133,0.0729,0.0288,3798,2019-08-07 16:27:19:413
7.3577,-6.7544,0.0195,-0.0228,-0.1861,0.1859,-0.0133,0.0729,0.0288,3802,2019-08-07 16:27:19:417
7.018,-6.7735,0.2033,-0.0228,-0.1861,0.1859,-0.1038,-0.0027,0.0682,3808,2019-08-07 16:27:19:423
7.018,-6.7735,0.2033,-0.0228,-0.1861,0.1859,-0.1038,-0.0027,0.0682,3812,2019-08-07 16:27:19:427
7.018,-6.7735,0.2033,-0.0228,-0.1861,0.1859,-0.1134,-0.0539,0.065,3818,2019-08-07 16:27:19:433
7.1472,-7.1363,0.4484,-0.1322,0.2817,-0.2479,-0.1134,-0.0539,0.065,3823,2019-08-07 16:27:19:438