ACCELEROMETER X (m/s²),ACCELEROMETER Y (m/s²),ACCELEROMETER Z (m/s²),LINEAR ACCELERATION X (m/s²),LINEAR ACCELERATION Y (m/s²),LINEAR ACCELERATION Z (m/s²),GYROSCOPE X (rad/s),GYROSCOPE Y (rad/s),GYROSCOPE Z (rad/s),Time since start in ms ,YYYY-MO-DD HH-MI-SS_SSS
6.3758,-7.2126,0.2266,0.265,0.0686,-0.0205,0.0347,0.0697,0.0181,3,2019-08-07 16:27:51:071
6.3758,-7.2126,0.2266,0.265,0.0686,-0.0205,0.0197,0.0207,0.0011,8,2019-08-07 16:27:51:076
6.3758,-7.2126,0.2266,0.3449,0.0578,-0.0866,0.0197,0.0207,0.0011,13,2019-08-07 16:27:51:081
6.3518,-7.2174,0.2125,0.3449,0.0578,-0.0866,0.0059,-0.0176,-0.0159,18,2019-08-07 16:27:51:086
6.3518,-7.2174,0.2125,0.3449,0.0578,-0.0866,0.0059,-0.0176,-0.0159,22,2019-08-07 16:27:51:090
6.3518,-7.2174,0.2125,0.3449,0.0578,-0.0866,-0.0048,-0.0635,-0.0202,28,2019-08-07 16:27:51:096
6.5289,-7.2126,0.1842,0.1879,0.0633,-0.0881,-0.0048,-0.0635,-0.0202,33,2019-08-07 16:27:51:101
6.5289,-7.2126,0.1842,0.1879,0.0633,-0.0881,-0.0218,-0.0943,-0.0223,38,2019-08-07 16:27:51:106
6.8733,-7.1983,0.0569,0.1879,0.0633,-0.0881,-0.0218,-0.0943,-0.0223,42,2019-08-07 16:27:51:110
6.8733,-7.1983,0.0569,0.1879,0.0633,-0.0881,-0.0218,-0.0943,-0.0223,48,2019-08-07 16:27:51:116
6.8733,-7.1983,0.0569,-0.2533,-2.0E-4,0.0383,-0.0261,-0.088,-0.0255,53,2019-08-07 16:27:51:121
7.0264,-7.098,0.0805,-0.2533,-2.0E-4,0.0383,-0.0261,-0.088,-0.0255,59,2019-08-07 16:27:51:127
7.0264,-7.098,0.0805,-0.2533,-2.0E-4,0.0383,-0.0239,-0.0837,-0.0085,63,2019-08-07 16:27:51:131
7.2322,-7.1696,-0.1033,-0.2533,-2.0E-4,0.0383,-0.0239,-0.0837,-0.0085,68,2019-08-07 16:27:51:136
7.2322,-7.1696,-0.1033,-0.5509,0.0128,0.1355,-0.0143,-0.0358,0.0128,73,2019-08-07 16:27:51:141
7.2322,-7.1696,-0.1033,-0.5509,0.0128,0.1355,-0.0143,-0.0358,0.0128,78,2019-08-07 16:27:51:146
7.2465,-7.2508,-0.1552,-0.5218,0.1086,0.2155,-0.0143,-0.0358,0.0128,82,2019-08-07 16:27:51:150
7.2465,-7.2508,-0.1552,-0.5218,0.1086,0.2155,-0.0016,0.0271,0.0192,88,2019-08-07 16:27:51:156
7.0312,-7.3033,-0.0185,-0.5218,0.1086,0.2155,0.0229,0.075,0.0288,93,2019-08-07 16:27:51:161
7.0312,-7.3033,-0.0185,-0.5218,0.1086,0.2155,0.0229,0.075,0.0288,99,2019-08-07 16:27:51:167
7.0312,-7.3033,-0.0185,-0.1178,0.0966,8.0E-4,0.0229,0.075,0.0288,102,2019-08-07 16:27:51:170
6.7107,-7.2556,0.1512,-0.1178,0.0966,8.0E-4,0.0325,0.0814,0.0288,108,2019-08-07 16:27:51:176
6.7107,-7.2556,0.1512,-0.1178,0.0966,8.0E-4,0.0325,0.0814,0.0288,113,2019-08-07 16:27:51:181
6.4956,-7.1983,0.2172,-0.1178,0.0966,8.0E-4,0.0155,0.0441,0.0118,118,2019-08-07 16:27:51:186
6.4956,-7.1983,0.2172,0.2746,0.0353,-0.1733,0.0155,0.0441,0.0118,122,2019-08-07 16:27:51:190
6.4956,-7.1983,0.2172,0.2746,0.0353,-0.1733,6.0E-4,-0.0038,0.0022,128,2019-08-07 16:27:51:196
6.4717,-7.2031,0.288,0.2746,0.0353,-0.1733,6.0E-4,-0.0038,0.0022,133,2019-08-07 16:27:51:201
6.4717,-7.2031,0.288,0.2746,0.0353,-0.1733,-0.0101,-0.0496,-0.0127,138,2019-08-07 16:27:51:206
6.6822,-7.1553,0.1937,0.1059,0.0341,-0.2015,-0.0101,-0.0496,-0.0127,143,2019-08-07 16:27:51:211
6.6822,-7.1553,0.1937,0.1059,0.0341,-0.2015,-0.0218,-0.0666,-0.0202,148,2019-08-07 16:27:51:216
6.6822,-7.1553,0.1937,0.1059,0.0341,-0.2015,-0.0218,-0.0666,-0.0202,152,2019-08-07 16:27:51:220
6.8975,-7.1649,0.1135,0.1059,0.0341,-0.2015,-0.0218,-0.0666,-0.0202,158,2019-08-07 16:27:51:226
6.8975,-7.1649,0.1135,-0.278,-0.0389,0.0933,-0.0218,-0.0656,-0.0255,163,2019-08-07 16:27:51:231
7.0554,-7.1696,-0.0467,-0.278,-0.0389,0.0933,-0.0218,-0.0656,-0.0255,167,2019-08-07 16:27:51:235
7.0554,-7.1696,-0.0467,-0.278,-0.0389,0.0933,-0.0207,-0.0326,-0.0138,173,2019-08-07 16:27:51:241
7.0554,-7.1696,-0.0467,-0.278,-0.0389,0.0933,-0.0207,-0.0326,-0.0138,178,2019-08-07 16:27:51:246
7.1607,-7.1696,0.024,-0.4372,0.0263,0.0381,-0.0154,-0.007,-0.0032,183,2019-08-07 16:27:51:251
7.1607,-7.1696,0.024,-0.4372,0.0263,0.0381,-0.0154,-0.007,-0.0032,188,2019-08-07 16:27:51:256
7.0363,-7.2031,4.0E-4,-0.4372,0.0263,0.0381,0.0038,0.0186,0.0022,193,2019-08-07 16:27:51:261
7.0363,-7.2031,4.0E-4,-0.4372,0.0263,0.0381,0.0038,0.0186,0.0022,198,2019-08-07 16:27:51:266
7.0363,-7.2031,4.0E-4,-0.2591,0.0178,0.0348,0.0123,0.0282,0.0086,203,2019-08-07 16:27:51:271
6.9837,-7.1458,0.0381,-0.2591,0.0178,0.0348,0.0123,0.0282,0.0086,207,2019-08-07 16:27:51:275
6.9837,-7.1458,0.0381,-0.2591,0.0178,0.0348,0.0091,0.0239,0.015,213,2019-08-07 16:27:51:281
6.8641,-7.246,0.0146,-0.2591,0.0178,0.0348,0.0091,0.0239,0.015,218,2019-08-07 16:27:51:286
6.8641,-7.246,0.0146,-0.1838,0.0262,-0.0133,6.0E-4,0.009,0.016,225,2019-08-07 16:27:51:293
6.8641,-7.246,0.0146,-0.1838,0.0262,-0.0133,6.0E-4,0.009,0.016,227,2019-08-07 16:27:51:295
6.7923,-7.1697,0.156,-0.1838,0.0262,-0.0133,-0.0016,-0.0081,0.0192,233,2019-08-07 16:27:51:301
6.7923,-7.1697,0.156,-0.1838,0.0262,-0.0133,-0.0016,-0.0081,0.0192,237,2019-08-07 16:27:51:305
6.7923,-7.1697,0.156,-0.0764,0.1479,-0.0232,-0.0048,-0.0145,0.0171,243,2019-08-07 16:27:51:311
6.8019,-7.2556,0.1277,-0.0764,0.1479,-0.0232,-0.0048,-0.0145,0.0171,248,2019-08-07 16:27:51:316
6.8019,-7.2556,0.1277,-0.0764,0.1479,-0.0232,-0.0048,-0.0145,0.0171,252,2019-08-07 16:27:51:320
6.8258,-7.2556,0.0711,-0.0764,0.1479,-0.0232,-0.0048,-0.0081,0.0054,258,2019-08-07 16:27:51:326
6.8258,-7.2556,0.0711,-0.0632,-0.006,-0.0345,-0.0048,-0.0081,0.0054,263,2019-08-07 16:27:51:331
6.8258,-7.2556,0.0711,-0.0632,-0.006,-0.0345,-0.0111,0.0058,0.0,267,2019-08-07 16:27:51:335
6.7589,-7.1553,0.1654,-0.0632,-0.006,-0.0345,-0.0111,0.0058,0.0,272,2019-08-07 16:27:51:340
6.7589,-7.1553,0.1654,-0.0632,-0.006,-0.0345,-0.009,0.026,-0.0042,278,2019-08-07 16:27:51:346
6.7636,-7.1744,-0.0043,-0.0436,0.0279,0.0701,-0.009,0.026,-0.0042,282,2019-08-07 16:27:51:350
6.7636,-7.1744,-0.0043,-0.0436,0.0279,0.0701,-0.0143,0.0356,-0.0149,288,2019-08-07 16:27:51:356
6.7636,-7.1744,-0.0043,-0.0436,0.0279,0.0701,-0.0143,0.0356,-0.0149,293,2019-08-07 16:27:51:361
6.7062,-7.098,0.2408,-0.0436,0.0279,0.0701,-0.0175,0.0122,-0.0138,298,2019-08-07 16:27:51:366
6.7062,-7.098,0.2408,0.0156,0.0248,-0.0696,-0.0175,0.0122,-0.0138,303,2019-08-07 16:27:51:371
6.7445,-7.1697,0.0617,0.0156,0.0248,-0.0696,-0.0175,0.0122,-0.0138,308,2019-08-07 16:27:51:376
6.7445,-7.1697,0.0617,0.0156,0.0248,-0.0696,-0.0218,-0.0208,-0.0074,313,2019-08-07 16:27:51:381
6.7445,-7.1697,0.0617,0.0156,0.0248,-0.0696,-0.0218,-0.0208,-0.0074,318,2019-08-07 16:27:51:386
6.7972,-7.2651,0.0523,-0.0642,0.0931,0.1128,-0.025,-0.0411,-0.0181,323,2019-08-07 16:27:51:391
6.7972,-7.2651,0.0523,-0.0642,0.0931,0.1128,-0.025,-0.0411,-0.0181,328,2019-08-07 16:27:51:396
6.8594,-7.2413,-0.009,-0.0642,0.0931,0.1128,-0.0282,-0.056,-0.0117,333,2019-08-07 16:27:51:401
6.8594,-7.2413,-0.009,-0.0642,0.0931,0.1128,-0.0282,-0.056,-0.0117,338,2019-08-07 16:27:51:406
6.8594,-7.2413,-0.009,-0.2487,0.1713,0.0871,-0.0207,-0.0443,-0.0064,343,2019-08-07 16:27:51:411
6.9885,-7.3176,-0.0043,-0.2487,0.1713,0.0871,-0.0207,-0.0443,-0.0064,348,2019-08-07 16:27:51:416
6.9885,-7.3176,-0.0043,-0.2487,0.1713,0.0871,-0.009,-0.0187,0.0022,353,2019-08-07 16:27:51:421
6.9885,-7.3176,-0.0043,-0.2487,0.1713,0.0871,-0.009,-0.0187,0.0022,358,2019-08-07 16:27:51:426
6.7828,-7.3654,0.0287,-0.0337,0.2666,-0.0209,0.0038,0.0079,0.0043,363,2019-08-07 16:27:51:431
6.7828,-7.3654,0.0287,-0.0337,0.2666,-0.0209,0.0038,0.0079,0.0043,368,2019-08-07 16:27:51:436
6.7111,-7.3081,0.0712,-0.0337,0.2666,-0.0209,0.0038,0.0037,0.0075,372,2019-08-07 16:27:51:440
6.7111,-7.3081,0.0712,-0.0337,0.2666,-0.0209,0.0038,0.0037,0.0075,378,2019-08-07 16:27:51:446
6.7111,-7.3081,0.0712,-0.0208,0.1554,0.0132,0.0048,-6.0E-4,0.0064,383,2019-08-07 16:27:51:451
6.7494,-7.2842,0.057,-0.0208,0.1554,0.0132,0.0048,-6.0E-4,0.0064,388,2019-08-07 16:27:51:456
6.7494,-7.2842,0.057,-0.0208,0.1554,0.0132,0.0048,-6.0E-4,0.0064,393,2019-08-07 16:27:51:461
6.6728,-7.289,0.024,-0.0208,0.1554,0.0132,0.0102,-0.0017,-0.0021,398,2019-08-07 16:27:51:466
6.6728,-7.289,0.024,-0.0208,0.1554,0.0132,0.0102,-0.0017,-0.0021,402,2019-08-07 16:27:51:470
6.6728,-7.289,0.024,0.1316,0.1882,0.0756,0.0144,-6.0E-4,-0.0032,408,2019-08-07 16:27:51:476
6.6058,-7.289,0.024,0.1316,0.1882,0.0756,0.0144,-6.0E-4,-0.0032,413,2019-08-07 16:27:51:481
6.6058,-7.289,0.024,0.1316,0.1882,0.0756,0.0166,-6.0E-4,-0.0085,417,2019-08-07 16:27:51:485
6.6393,-7.2126,0.1607,0.0838,0.0689,-0.1108,0.0166,-6.0E-4,-0.0085,423,2019-08-07 16:27:51:491
6.6393,-7.2126,0.1607,0.0838,0.0689,-0.1108,0.0187,-0.0283,-0.0095,428,2019-08-07 16:27:51:496
6.6393,-7.2126,0.1607,0.0838,0.0689,-0.1108,0.0187,-0.0283,-0.0095,433,2019-08-07 16:27:51:501
6.6728,-7.246,5.0E-4,0.0838,0.0689,-0.1108,0.0134,-0.0624,-0.0106,438,2019-08-07 16:27:51:506
6.6728,-7.246,5.0E-4,0.0838,0.0689,-0.1108,0.0134,-0.0624,-0.0106,443,2019-08-07 16:27:51:511
6.7829,-7.3129,-0.042,-0.0205,0.1748,0.0728,-0.0016,-0.089,-0.0138,448,2019-08-07 16:27:51:516
6.7829,-7.3129,-0.042,-0.0205,0.1748,0.0728,-0.0016,-0.089,-0.0138,453,2019-08-07 16:27:51:521
6.7829,-7.3129,-0.042,-0.0205,0.1748,0.0728,-0.0016,-0.089,-0.0138,457,2019-08-07 16:27:51:525
6.9886,-7.3033,0.0287,-0.0205,0.1748,0.0728,-0.0016,-0.0826,-0.0032,463,2019-08-07 16:27:51:531
6.9886,-7.3033,0.0287,-0.3062,0.1426,-0.0059,-0.0016,-0.0826,-0.0032,468,2019-08-07 16:27:51:536
6.9886,-7.3033,0.0287,-0.3062,0.1426,-0.0059,0.0112,-0.0603,-0.0064,472,2019-08-07 16:27:51:540
7.0413,-7.2986,-0.0985,-0.3062,0.1426,-0.0059,0.0112,-0.0603,-0.0064,478,2019-08-07 16:27:51:546
7.0413,-7.2986,-0.0985,-0.3062,0.1426,-0.0059,0.0144,-0.0251,-0.0064,483,2019-08-07 16:27:51:551
7.0413,-7.2986,-0.0985,-0.319,0.1298,0.0316,0.0144,-0.0251,-0.0064,487,2019-08-07 16:27:51:555
7.0556,-7.2842,5.0E-4,-0.319,0.1298,0.0316,0.0134,0.0079,-0.0032,493,2019-08-07 16:27:51:561
7.0556,-7.2842,5.0E-4,-0.319,0.1298,0.0316,0.0134,0.0079,-0.0032,498,2019-08-07 16:27:51:566
6.8977,-7.1172,0.0476,-0.319,0.1298,0.0316,0.0197,0.025,-0.0042,502,2019-08-07 16:27:51:570
6.8977,-7.1172,0.0476,-0.1407,-0.0408,-0.0637,0.0197,0.025,-0.0042,508,2019-08-07 16:27:51:576
6.8977,-7.1172,0.0476,-0.1407,-0.0408,-0.0637,0.0293,0.0303,0.0011,514,2019-08-07 16:27:51:582
6.7829,-7.1172,0.09,-0.1407,-0.0408,-0.0637,0.0293,0.0303,0.0011,517,2019-08-07 16:27:51:585
6.7829,-7.1172,0.09,-0.1407,-0.0408,-0.0637,0.0197,0.0037,0.0128,523,2019-08-07 16:27:51:591
6.7495,-7.1076,0.1984,-0.0116,-0.0361,-0.1503,0.0197,0.0037,0.0128,528,2019-08-07 16:27:51:596
6.7495,-7.1076,0.1984,-0.0116,-0.0361,-0.1503,0.0134,-0.0379,0.0224,533,2019-08-07 16:27:51:601
6.7495,-7.1076,0.1984,-0.0116,-0.0361,-0.1503,0.0134,-0.0379,0.0224,538,2019-08-07 16:27:51:606
6.8451,-7.141,0.0288,-0.0116,-0.0361,-0.1503,0.0134,-0.0379,0.0224,543,2019-08-07 16:27:51:611
6.8451,-7.141,0.0288,-0.1529,0.0044,-0.0681,0.0091,-0.0666,0.0203,548,2019-08-07 16:27:51:616
6.8978,-7.141,0.057,-0.1529,0.0044,-0.0681,0.0091,-0.0666,0.0203,553,2019-08-07 16:27:51:621
6.8978,-7.141,0.057,-0.1529,0.0044,-0.0681,0.0038,-0.0666,0.0213,558,2019-08-07 16:27:51:626
6.8978,-7.141,0.057,-0.1529,0.0044,-0.0681,0.0038,-0.0666,0.0213,563,2019-08-07 16:27:51:631
6.9648,-7.2174,-0.0278,-0.241,0.0741,0.0557,6.0E-4,-0.0528,0.0213,568,2019-08-07 16:27:51:636
6.9648,-7.2174,-0.0278,-0.241,0.0741,0.0557,6.0E-4,-0.0528,0.0213,573,2019-08-07 16:27:51:641
6.9648,-7.2174,-0.0278,-0.241,0.0741,0.0557,-0.0037,-0.0219,0.0181,578,2019-08-07 16:27:51:646
6.9648,-7.2938,0.0429,-0.241,0.0741,0.0557,-0.0037,-0.0219,0.0181,582,2019-08-07 16:27:51:650
6.9648,-7.2938,0.0429,-0.1618,0.1008,-0.033,0.0038,0.0175,0.0139,588,2019-08-07 16:27:51:656
6.8404,-7.2365,0.0712,-0.1618,0.1008,-0.033,0.0038,0.0175,0.0139,593,2019-08-07 16:27:51:661
6.8404,-7.2365,0.0712,-0.1004,0.1239,-0.0031,0.0038,0.0175,0.0139,597,2019-08-07 16:27:51:665
6.8308,-7.2508,0.0523,-0.1004,0.1239,-0.0031,0.0038,0.0314,0.0118,603,2019-08-07 16:27:51:671
6.8308,-7.2508,0.0523,-0.1004,0.1239,-0.0031,0.0038,0.0314,0.0118,608,2019-08-07 16:27:51:676
6.8308,-7.2508,0.0523,-0.1004,0.1239,-0.0031,0.0027,0.0282,0.0054,613,2019-08-07 16:27:51:681
6.7495,-7.1458,-0.0042,-0.0296,-0.0011,0.0344,0.0027,0.0282,0.0054,618,2019-08-07 16:27:51:686
6.7495,-7.1458,-0.0042,-0.0296,-0.0011,0.0344,0.0027,0.0164,-0.0021,623,2019-08-07 16:27:51:691
6.7495,-7.1458,-0.0042,-0.0296,-0.0011,0.0344,0.0027,0.0164,-0.0021,627,2019-08-07 16:27:51:695
6.8117,-7.2031,-0.0089,-0.0296,-0.0011,0.0344,-0.0016,-0.0049,-0.0042,633,2019-08-07 16:27:51:701
6.8117,-7.2031,-0.0089,-0.163,-0.0292,0.0728,-0.0016,-0.0049,-0.0042,637,2019-08-07 16:27:51:705
6.8643,-7.1172,-0.0278,-0.163,-0.0292,0.0728,0.0016,-0.0219,-0.0021,643,2019-08-07 16:27:51:711
6.8643,-7.1172,-0.0278,-0.163,-0.0292,0.0728,0.0016,-0.0219,-0.0021,648,2019-08-07 16:27:51:716
6.8643,-7.1172,-0.0278,-0.163,-0.0292,0.0728,0.0027,-0.0304,0.0011,653,2019-08-07 16:27:51:721
6.9457,-7.1315,-0.0467,-0.1764,-0.033,0.0361,0.0027,-0.0304,0.0011,657,2019-08-07 16:27:51:725
6.9457,-7.1315,-0.0467,-0.1764,-0.033,0.0361,0.0016,-0.0272,0.0064,663,2019-08-07 16:27:51:731
6.9409,-7.1792,-0.0231,-0.1764,-0.033,0.0361,0.0016,-0.0272,0.0064,668,2019-08-07 16:27:51:736
6.9409,-7.1792,-0.0231,-0.1764,-0.033,0.0361,-0.0079,-0.0283,0.0086,673,2019-08-07 16:27:51:741
6.9409,-7.1792,-0.0231,-0.1384,0.0144,0.0078,-0.0079,-0.0283,0.0086,678,2019-08-07 16:27:51:746
6.8883,-7.184,0.0241,-0.1384,0.0144,0.0078,-0.0079,-0.0283,0.0086,683,2019-08-07 16:27:51:751
6.8883,-7.184,0.0241,-0.1384,0.0144,0.0078,-0.0133,-0.0187,0.0096,687,2019-08-07 16:27:51:755
6.8883,-7.184,0.0241,-0.1384,0.0144,0.0078,-0.0133,-0.0187,0.0096,693,2019-08-07 16:27:51:761
6.8309,-7.2747,0.0288,-0.0438,0.0897,0.0082,-0.0175,-0.0102,0.0064,698,2019-08-07 16:27:51:766
6.8309,-7.2747,0.0288,-0.0438,0.0897,0.0082,-0.0175,-0.0102,0.0064,702,2019-08-07 16:27:51:770
6.8309,-7.2747,0.0288,-0.0438,0.0897,0.0082,-0.0186,-6.0E-4,0.0043,708,2019-08-07 16:27:51:776
6.7639,-7.2747,0.0193,-0.0442,0.1276,-0.0029,-0.0186,-6.0E-4,0.0043,713,2019-08-07 16:27:51:781
6.7639,-7.2747,0.0193,-0.0442,0.1276,-0.0029,-0.0175,0.009,-0.0021,718,2019-08-07 16:27:51:786
6.8453,-7.289,0.0146,-0.0442,0.1276,-0.0029,-0.0175,0.009,-0.0021,722,2019-08-07 16:27:51:790
6.8453,-7.289,0.0146,-0.0724,0.109,-0.0085,-0.0186,0.025,-0.0127,728,2019-08-07 16:27:51:796
6.8453,-7.289,0.0146,-0.0724,0.109,-0.0085,-0.0186,0.025,-0.0127,732,2019-08-07 16:27:51:800
6.7926,-7.2413,-0.0042,-0.0724,0.109,-0.0085,-0.0218,0.0271,-0.0159,738,2019-08-07 16:27:51:806
6.7926,-7.2413,-0.0042,-0.0724,0.109,-0.0085,-0.0218,0.0271,-0.0159,743,2019-08-07 16:27:51:811
6.8596,-7.2222,-0.0325,-0.1373,0.0775,0.0483,-0.0207,0.0228,-0.0106,748,2019-08-07 16:27:51:816
6.8596,-7.2222,-0.0325,-0.1373,0.0775,0.0483,-0.0207,0.0228,-0.0106,753,2019-08-07 16:27:51:821
6.8596,-7.2222,-0.0325,-0.1373,0.0775,0.0483,-0.0133,0.0143,-0.0085,758,2019-08-07 16:27:51:826
6.8596,-7.1745,-0.0184,-0.1373,0.0775,0.0483,-0.0133,0.0143,-0.0085,764,2019-08-07 16:27:51:832
6.8596,-7.1745,-0.0184,-0.0929,0.0788,0.0435,-0.0079,-0.007,-0.0032,768,2019-08-07 16:27:51:836
6.8788,-7.1792,-0.0136,-0.0929,0.0788,0.0435,-0.0079,-0.007,-0.0032,773,2019-08-07 16:27:51:841
6.8788,-7.1792,-0.0136,-0.0929,0.0788,0.0435,-0.0122,-0.023,-0.001,778,2019-08-07 16:27:51:846
6.8788,-7.1792,-0.0136,-0.0929,0.0788,0.0435,-0.0122,-0.023,-0.001,783,2019-08-07 16:27:51:851
6.9027,-7.1697,-0.1268,-0.0929,0.0788,0.0435,-0.0197,-0.0411,0.0032,788,2019-08-07 16:27:51:856
6.9027,-7.1697,-0.1268,-0.1976,0.0888,0.1366,-0.0197,-0.0411,0.0032,793,2019-08-07 16:27:51:861
6.9745,-7.3081,-0.0372,-0.1976,0.0888,0.1366,-0.0197,-0.023,0.0075,799,2019-08-07 16:27:51:867
6.9745,-7.3081,-0.0372,-0.1976,0.0888,0.1366,-0.0197,-0.023,0.0075,803,2019-08-07 16:27:51:871
6.9745,-7.3081,-0.0372,-0.1976,0.0888,0.1366,-0.0197,-0.023,0.0075,808,2019-08-07 16:27:51:876
6.9123,-7.332,-0.0466,-0.1795,0.1643,0.0738,-0.0048,-0.0059,0.0139,813,2019-08-07 16:27:51:881
6.9123,-7.332,-0.0466,-0.1795,0.1643,0.0738,-0.0048,-0.0059,0.0139,818,2019-08-07 16:27:51:886
6.9123,-7.332,-0.0466,-0.1795,0.1643,0.0738,0.0027,0.0122,0.0182,822,2019-08-07 16:27:51:890
6.8645,-7.332,-0.0419,-0.1795,0.1643,0.0738,0.0027,0.0122,0.0182,828,2019-08-07 16:27:51:896
6.8645,-7.332,-0.0419,-0.1487,0.1141,0.0092,0.0091,0.026,0.015,833,2019-08-07 16:27:51:901
6.8645,-7.332,-0.0419,-0.1487,0.1141,0.0092,0.0091,0.026,0.015,837,2019-08-07 16:27:51:905
6.7736,-7.2413,5.0E-4,-0.1487,0.1141,0.0092,0.008,0.0346,0.0139,843,2019-08-07 16:27:51:911
6.7736,-7.2413,5.0E-4,-0.1487,0.1141,0.0092,0.008,0.0346,0.0139,849,2019-08-07 16:27:51:917
6.7257,-7.227,0.0995,-0.0361,0.0691,-0.0558,0.0048,0.0367,0.015,853,2019-08-07 16:27:51:921
6.7257,-7.227,0.0995,-0.0361,0.0691,-0.0558,0.0048,0.0367,0.015,858,2019-08-07 16:27:51:926
6.7257,-7.227,0.0995,-0.0361,0.0691,-0.0558,0.0016,0.0282,0.0128,863,2019-08-07 16:27:51:931
6.7305,-7.2652,0.0477,-0.0361,0.0691,-0.0558,0.0016,0.0282,0.0128,868,2019-08-07 16:27:51:936
6.7305,-7.2652,0.0477,-0.0526,0.1004,0.0104,0.0059,0.0122,0.0118,873,2019-08-07 16:27:51:941
6.764,-7.227,0.1089,-0.0526,0.1004,0.0104,0.0059,0.0122,0.0118,878,2019-08-07 16:27:51:946
6.764,-7.227,0.1089,-0.0526,0.1004,0.0104,0.0016,0.0079,0.0064,882,2019-08-07 16:27:51:950
6.7353,-7.2031,-0.0042,-0.0526,0.1004,0.0104,0.0016,0.0079,0.0064,888,2019-08-07 16:27:51:956
6.7353,-7.2031,-0.0042,-0.0301,-0.0011,-0.0398,-0.009,-0.0145,0.0054,893,2019-08-07 16:27:51:961
6.7353,-7.2031,-0.0042,-0.0301,-0.0011,-0.0398,-0.009,-0.0145,0.0054,898,2019-08-07 16:27:51:966
6.7593,-7.1983,-0.0089,-0.0301,-0.0011,-0.0398,-0.009,-0.0145,0.0054,902,2019-08-07 16:27:51:970
6.7593,-7.1983,-0.0089,-0.0301,-0.0011,-0.0398,-0.0229,-0.0272,0.0107,908,2019-08-07 16:27:51:976
6.8406,-7.289,-0.0372,-0.0982,0.0885,0.0539,-0.0229,-0.0272,0.0107,913,2019-08-07 16:27:51:981
6.8406,-7.289,-0.0372,-0.0982,0.0885,0.0539,-0.025,-0.0336,0.0086,918,2019-08-07 16:27:51:986
6.8406,-7.289,-0.0372,-0.0982,0.0885,0.0539,-0.025,-0.0336,0.0086,923,2019-08-07 16:27:51:991
6.7976,-7.2795,-0.0372,-0.0982,0.0885,0.0539,-0.0218,-0.0326,0.0086,928,2019-08-07 16:27:51:996
6.7976,-7.2795,-0.0372,-0.1522,0.1541,0.1069,-0.0218,-0.0326,0.0086,932,2019-08-07 16:27:52:000
6.8885,-7.3081,-0.0608,-0.1522,0.1541,0.1069,-0.0122,-0.0176,0.0192,938,2019-08-07 16:27:52:006
6.8885,-7.3081,-0.0608,-0.1677,0.1339,0.0384,-0.0122,-0.0176,0.0192,943,2019-08-07 16:27:52:011
6.8885,-7.3081,-0.0608,-0.1677,0.1339,0.0384,-0.0016,5.0E-4,0.0224,948,2019-08-07 16:27:52:016
6.898,-7.2127,-0.0325,-0.1677,0.1339,0.0384,-0.0016,5.0E-4,0.0224,952,2019-08-07 16:27:52:020
6.898,-7.2127,-0.0325,-0.1677,0.1339,0.0384,0.0102,0.0175,0.0171,959,2019-08-07 16:27:52:027
6.898,-7.2127,-0.0325,-0.1655,0.0886,0.0062,0.0102,0.0175,0.0171,963,2019-08-07 16:27:52:031
6.8071,-7.2461,-0.0089,-0.1655,0.0886,0.0062,0.0102,0.0175,0.0171,968,2019-08-07 16:27:52:036
6.8071,-7.2461,-0.0089,-0.1655,0.0886,0.0062,0.0123,0.025,0.016,973,2019-08-07 16:27:52:041
6.8119,-7.2795,-0.0136,-0.1655,0.0886,0.0062,0.0123,0.025,0.016,978,2019-08-07 16:27:52:046
6.8119,-7.2795,-0.0136,-0.1006,0.1153,0.0017,0.0176,0.0228,0.0128,982,2019-08-07 16:27:52:050
6.7976,-7.2461,-0.0042,-0.1006,0.1153,0.0017,0.0176,0.0228,0.0128,988,2019-08-07 16:27:52:056
6.7976,-7.2461,-0.0042,-0.1006,0.1153,0.0017,0.0251,0.0292,0.0075,993,2019-08-07 16:27:52:061
6.7976,-7.2461,-0.0042,-0.1006,0.1153,0.0017,0.0251,0.0292,0.0075,998,2019-08-07 16:27:52:066
6.7833,-7.1554,0.0901,-0.0777,-0.005,-0.0761,0.0251,0.0132,0.0011,1002,2019-08-07 16:27:52:070
6.7833,-7.1554,0.0901,-0.0777,-0.005,-0.0761,0.0251,0.0132,0.0011,1008,2019-08-07 16:27:52:076
6.7833,-7.1554,0.0901,-0.0777,-0.005,-0.0761,0.0144,-0.0102,0.0032,1013,2019-08-07 16:27:52:081
6.8168,-7.1458,0.0335,-0.0777,-0.005,-0.0761,0.0144,-0.0102,0.0032,1018,2019-08-07 16:27:52:086
6.8168,-7.1458,0.0335,-0.0923,0.0425,-0.023,0.0144,-0.0102,0.0032,1023,2019-08-07 16:27:52:091
6.8598,-7.1793,0.0241,-0.0923,0.0425,-0.023,-0.0037,-0.0294,0.0118,1027,2019-08-07 16:27:52:095
6.8598,-7.1793,0.0241,-0.0923,0.0425,-0.023,-0.0037,-0.0294,0.0118,1033,2019-08-07 16:27:52:101
6.8598,-7.1793,0.0241,-0.0923,0.0425,-0.023,-0.008,-0.0368,0.016,1037,2019-08-07 16:27:52:105
6.9555,-7.2318,0.043,-0.2658,0.0317,-0.0377,-0.008,-0.0368,0.016,1043,2019-08-07 16:27:52:111
6.9555,-7.2318,0.043,-0.2658,0.0317,-0.0377,-0.0026,-0.0187,0.016,1048,2019-08-07 16:27:52:116
6.9316,-7.1363,0.0477,-0.2658,0.0317,-0.0377,-0.0026,-0.0187,0.016,1053,2019-08-07 16:27:52:121
6.9316,-7.1363,0.0477,-0.2658,0.0317,-0.0377,-0.0026,-0.0187,0.016,1057,2019-08-07 16:27:52:125
6.9316,-7.1363,0.0477,-0.2002,0.0114,-0.0204,-0.0069,0.0047,0.015,1063,2019-08-07 16:27:52:131
6.8694,-7.1745,0.0335,-0.2002,0.0114,-0.0204,-0.0069,0.0047,0.015,1067,2019-08-07 16:27:52:135
6.8694,-7.1745,0.0335,-0.2002,0.0114,-0.0204,-0.0101,0.025,0.0139,1073,2019-08-07 16:27:52:141
6.8694,-7.1745,0.0335,-0.2002,0.0114,-0.0204,-0.0101,0.025,0.0139,1078,2019-08-07 16:27:52:146
6.7977,-7.2222,0.0618,-0.0629,0.0769,-0.0179,-0.0069,0.0377,0.0054,1083,2019-08-07 16:27:52:151
6.7977,-7.2222,0.0618,-0.0629,0.0769,-0.0179,-0.0069,0.0377,0.0054,1089,2019-08-07 16:27:52:157
6.7977,-7.2222,0.0618,-0.0629,0.0769,-0.0179,-0.0069,0.0377,0.0054,1092,2019-08-07 16:27:52:160
6.6876,-7.2843,0.043,-0.0629,0.0769,-0.0179,0.0038,0.0346,0.0032,1097,2019-08-07 16:27:52:165
6.6876,-7.2843,0.043,-0.0161,0.1189,-0.041,0.0038,0.0346,0.0032,1103,2019-08-07 16:27:52:171
6.5967,-7.2795,0.0571,-0.0161,0.1189,-0.041,0.0102,0.0175,-0.0021,1108,2019-08-07 16:27:52:176
6.5967,-7.2795,0.0571,-0.0161,0.1189,-0.041,0.0102,0.0175,-0.0021,1113,2019-08-07 16:27:52:181
6.5967,-7.2795,0.0571,-0.0161,0.1189,-0.041,0.0091,0.0069,-0.0128,1117,2019-08-07 16:27:52:185
6.6569,-7.2363,0.085,0.0393,0.0669,-0.028,0.0091,0.0069,-0.0128,1124,2019-08-07 16:27:52:192
6.6569,-7.2363,0.085,0.0393,0.0669,-0.028,0.0038,-0.0049,-0.0245,1128,2019-08-07 16:27:52:196
6.6855,-7.2077,0.0708,0.0393,0.0669,-0.028,0.0038,-0.0049,-0.0245,1134,2019-08-07 16:27:52:202
6.6855,-7.2077,0.0708,0.0393,0.0669,-0.028,0.0038,-0.0049,-0.0245,1138,2019-08-07 16:27:52:206
6.6855,-7.2077,0.0708,0.0393,0.0669,-0.028,-0.0101,0.0101,-0.0223,1143,2019-08-07 16:27:52:211
6.719,-7.265,0.085,-0.0102,0.0936,-0.0089,-0.0101,0.0101,-0.0223,1148,2019-08-07 16:27:52:216
6.719,-7.265,0.085,-0.0102,0.0936,-0.0089,-0.0133,0.0164,-0.0255,1153,2019-08-07 16:27:52:221
6.719,-7.265,0.085,-0.0102,0.0936,-0.0089,-0.0133,0.0164,-0.0255,1158,2019-08-07 16:27:52:226
6.6664,-7.2459,0.1745,-0.0102,0.0936,-0.0089,-0.025,0.0079,-0.0287,1163,2019-08-07 16:27:52:231
6.6664,-7.2459,0.1745,0.0364,0.0826,-0.1405,-0.025,0.0079,-0.0287,1167,2019-08-07 16:27:52:235
6.6855,-7.1934,0.0755,0.0364,0.0826,-0.1405,-0.025,0.0079,-0.0287,1173,2019-08-07 16:27:52:241
6.6855,-7.1934,0.0755,0.0047,0.0747,-0.0862,-0.0356,-0.024,-0.0266,1178,2019-08-07 16:27:52:246
6.6855,-7.1934,0.0755,0.0047,0.0747,-0.0862,-0.0356,-0.024,-0.0266,1184,2019-08-07 16:27:52:252
6.8146,-7.2459,-0.0423,0.0047,0.0747,-0.0862,-0.0452,-0.0603,-0.017,1187,2019-08-07 16:27:52:255
6.8146,-7.2459,-0.0423,0.0047,0.0747,-0.0862,-0.0452,-0.0603,-0.017,1193,2019-08-07 16:27:52:261
7.0538,-7.2841,0.0095,-0.2981,0.1398,0.0184,-0.0388,-0.0666,-0.0053,1198,2019-08-07 16:27:52:266
7.0538,-7.2841,0.0095,-0.2981,0.1398,0.0184,-0.0388,-0.0666,-0.0053,1203,2019-08-07 16:27:52:271
7.0538,-7.2841,0.0095,-0.2981,0.1398,0.0184,-0.0388,-0.0666,-0.0053,1208,2019-08-07 16:27:52:276
7.1639,-7.2745,-0.1083,-0.2981,0.1398,0.0184,-0.0186,-0.0304,0.0043,1213,2019-08-07 16:27:52:281
7.1639,-7.2745,-0.1083,-0.4644,0.1123,0.0727,-0.0186,-0.0304,0.0043,1218,2019-08-07 16:27:52:286
7.1639,-7.2745,-0.1083,-0.4644,0.1123,0.0727,-0.0037,0.0186,0.0086,1223,2019-08-07 16:27:52:291
7.0203,-7.2125,-0.0801,-0.4644,0.1123,0.0727,-0.0037,0.0186,0.0086,1228,2019-08-07 16:27:52:296
7.0203,-7.2125,-0.0801,-0.4644,0.1123,0.0727,0.0027,0.0612,0.0203,1233,2019-08-07 16:27:52:301
7.0203,-7.2125,-0.0801,-0.1305,0.0301,-0.0691,0.0027,0.0612,0.0203,1238,2019-08-07 16:27:52:306
6.7524,-7.1361,0.0944,-0.1305,0.0301,-0.0691,0.0027,0.0612,0.0203,1243,2019-08-07 16:27:52:311
6.7524,-7.1361,0.0944,0.0259,0.0335,-0.1337,-5.0E-4,0.0814,0.0203,1248,2019-08-07 16:27:52:316
6.5084,-7.1456,0.2405,0.0259,0.0335,-0.1337,-5.0E-4,0.0814,0.0203,1252,2019-08-07 16:27:52:320
6.5084,-7.1456,0.2405,0.0259,0.0335,-0.1337,-0.0069,0.0676,0.0107,1258,2019-08-07 16:27:52:326
6.5084,-7.1456,0.2405,0.0259,0.0335,-0.1337,-0.0069,0.0676,0.0107,1263,2019-08-07 16:27:52:331
6.4509,-7.1361,0.2923,0.2576,-0.0215,-0.2788,-0.0186,0.025,-0.0032,1268,2019-08-07 16:27:52:336
6.4509,-7.1361,0.2923,0.2576,-0.0215,-0.2788,-0.0186,0.025,-0.0032,1273,2019-08-07 16:27:52:341
6.4509,-7.1361,0.2923,0.2576,-0.0215,-0.2788,-0.0399,-0.0208,-0.0191,1278,2019-08-07 16:27:52:346
6.5801,-7.074,0.2593,0.2576,-0.0215,-0.2788,-0.0399,-0.0208,-0.0191,1283,2019-08-07 16:27:52:351
6.5801,-7.074,0.2593,-0.0846,-0.0815,-0.1381,-0.0591,-0.0571,-0.0373,1288,2019-08-07 16:27:52:356
6.5801,-7.074,0.2593,-0.0846,-0.0815,-0.1381,-0.0591,-0.0571,-0.0373,1292,2019-08-07 16:27:52:360
6.8289,-7.0979,0.1179,-0.2295,-0.1117,-0.019,-0.0633,-0.0656,-0.0479,1298,2019-08-07 16:27:52:366
6.8289,-7.0979,0.1179,-0.2295,-0.1117,-0.019,-0.0633,-0.0656,-0.0479,1304,2019-08-07 16:27:52:372
7.1733,-7.0931,-0.1791,-0.2295,-0.1117,-0.019,-0.0633,-0.0656,-0.0479,1308,2019-08-07 16:27:52:376
7.1733,-7.0931,-0.1791,-0.2295,-0.1117,-0.019,-0.0612,-0.0507,-0.0415,1313,2019-08-07 16:27:52:381
7.1733,-7.0931,-0.1791,-0.5561,-0.0037,0.1899,-0.0527,-0.0038,-0.0436,1318,2019-08-07 16:27:52:386
7.2977,-7.1074,-0.1272,-0.5561,-0.0037,0.1899,-0.0527,-0.0038,-0.0436,1323,2019-08-07 16:27:52:391
7.2977,-7.1074,-0.1272,-0.5561,-0.0037,0.1899,-0.0527,-0.0038,-0.0436,1327,2019-08-07 16:27:52:395
7.1924,-6.9976,-0.1508,-0.5561,-0.0037,0.1899,-0.0399,0.042,-0.0511,1334,2019-08-07 16:27:52:402
7.1924,-6.9976,-0.1508,-0.293,-0.2859,0.0537,-0.0399,0.042,-0.0511,1337,2019-08-07 16:27:52:405
7.1924,-6.9976,-0.1508,-0.293,-0.2859,0.0537,-0.042,0.0665,-0.049,1343,2019-08-07 16:27:52:411
6.9436,-6.7398,-0.0565,-0.2163,-0.4293,0.0126,-0.042,0.0665,-0.049,1348,2019-08-07 16:27:52:416
6.9436,-6.7398,-0.0565,-0.2163,-0.4293,0.0126,-0.042,0.0665,-0.049,1354,2019-08-07 16:27:52:422
6.9579,-6.5918,0.0378,-0.2163,-0.4293,0.0126,-0.0612,0.0654,-0.0618,1358,2019-08-07 16:27:52:426
6.9579,-6.5918,0.0378,-0.2163,-0.4293,0.0126,-0.0612,0.0654,-0.0618,1363,2019-08-07 16:27:52:431
6.9579,-6.5918,0.0378,-0.2657,-0.6893,-0.0492,-0.0825,0.0484,-0.0863,1368,2019-08-07 16:27:52:436
7.0536,-6.3484,0.0142,-0.2657,-0.6893,-0.0492,-0.0825,0.0484,-0.0863,1372,2019-08-07 16:27:52:440
7.0536,-6.3484,0.0142,-0.2657,-0.6893,-0.0492,-0.1155,0.0367,-0.1267,1378,2019-08-07 16:27:52:446
7.1541,-6.1383,0.0707,-0.2657,-0.6893,-0.0492,-0.1155,0.0367,-0.1267,1383,2019-08-07 16:27:52:451
7.1541,-6.1383,0.0707,-0.4749,-1.1714,-0.0657,-0.1635,0.0388,-0.2045,1388,2019-08-07 16:27:52:456
7.1541,-6.1383,0.0707,-0.4749,-1.1714,-0.0657,-0.1635,0.0388,-0.2045,1393,2019-08-07 16:27:52:461
7.2976,-5.7278,0.0707,-0.4749,-1.1714,-0.0657,-0.1954,0.0473,-0.2769,1398,2019-08-07 16:27:52:466
7.2976,-5.7278,0.0707,-0.4749,-1.1714,-0.0657,-0.1954,0.0473,-0.2769,1403,2019-08-07 16:27:52:471
7.2976,-5.7278,0.0707,-0.4749,-1.1714,-0.0657,-0.1954,0.0473,-0.2769,1408,2019-08-07 16:27:52:476
7.465,-5.2027,-0.1697,-0.6427,-1.8465,0.1159,-0.2348,0.0569,-0.3526,1413,2019-08-07 16:27:52:481
7.465,-5.2027,-0.1697,-0.6427,-1.8465,0.1159,-0.2348,0.0569,-0.3526,1418,2019-08-07 16:27:52:486
7.8429,-4.5248,-0.4148,-0.6427,-1.8465,0.1159,-0.3094,0.1187,-0.4783,1423,2019-08-07 16:27:52:491
7.8429,-4.5248,-0.4148,-0.6427,-1.8465,0.1159,-0.3094,0.1187,-0.4783,1428,2019-08-07 16:27:52:496
7.9099,-4.0856,-0.5892,-0.9368,-2.6185,0.322,-0.3637,0.1997,-0.5752,1434,2019-08-07 16:27:52:502
7.9099,-4.0856,-0.5892,-0.9368,-2.6185,0.322,-0.3637,0.1997,-0.5752,1438,2019-08-07 16:27:52:506
7.9099,-4.0856,-0.5892,-0.9368,-2.6185,0.322,-0.3637,0.1997,-0.5752,1443,2019-08-07 16:27:52:511
7.9099,-4.0856,-0.5892,-0.9368,-2.6185,0.322,-0.3637,0.1997,-0.5752,1448,2019-08-07 16:27:52:516
7.8668,-3.4316,-0.8579,-0.8024,-3.5765,0.7093,-0.4586,0.3296,-0.7222,1453,2019-08-07 16:27:52:521
7.8668,-3.4316,-0.8579,-0.8024,-3.5765,0.7093,-0.4586,0.3296,-0.7222,1458,2019-08-07 16:27:52:526
7.5223,-2.6964,-0.9899,-0.4523,-4.1033,0.8661,-0.5981,0.4287,-0.9225,1462,2019-08-07 16:27:52:530
7.5223,-2.6964,-0.9899,-0.4523,-4.1033,0.8661,-0.5981,0.4287,-0.9225,1468,2019-08-07 16:27:52:536
6.996,-1.5316,-1.1266,-0.4523,-4.1033,0.8661,-0.743,0.4617,-1.1132,1473,2019-08-07 16:27:52:541
6.996,-1.5316,-1.1266,-0.4523,-4.1033,0.8661,-0.743,0.4617,-1.1132,1478,2019-08-07 16:27:52:546
6.996,-1.5316,-1.1266,0.4315,-5.5378,1.0533,-0.9198,0.434,-1.3369,1483,2019-08-07 16:27:52:551
6.5511,-0.4288,-1.3104,0.4315,-5.5378,1.0533,-0.9198,0.434,-1.3369,1488,2019-08-07 16:27:52:556
6.5511,-0.4288,-1.3104,0.4315,-5.5378,1.0533,-1.216,0.2998,-1.6149,1493,2019-08-07 16:27:52:561
6.4028,0.2729,-1.1313,1.1499,-6.7418,0.8628,-1.216,0.2998,-1.6149,1499,2019-08-07 16:27:52:567
6.4028,0.2729,-1.1313,1.1499,-6.7418,0.8628,-1.5526,0.0857,-1.878,1504,2019-08-07 16:27:52:572
6.4028,0.2729,-1.1313,1.1499,-6.7418,0.8628,-1.5526,0.0857,-1.878,1507,2019-08-07 16:27:52:575
6.3501,0.8171,-1.2256,1.1499,-6.7418,0.8628,-1.5526,0.0857,-1.878,1513,2019-08-07 16:27:52:581
6.3501,0.8171,-1.2256,1.1499,-6.7418,0.8628,-1.8391,-0.0762,-2.0943,1519,2019-08-07 16:27:52:587
6.3501,0.8171,-1.2256,1.3485,-7.0837,0.896,-1.8391,-0.0762,-2.0943,1522,2019-08-07 16:27:52:590
6.4745,1.0988,-1.5509,1.3485,-7.0837,0.896,-2.1299,-0.1966,-2.3095,1528,2019-08-07 16:27:52:596
6.4745,1.0988,-1.5509,1.3485,-7.0837,0.896,-2.1299,-0.1966,-2.3095,1533,2019-08-07 16:27:52:601
6.4745,1.0988,-1.5509,1.3485,-7.0837,0.896,-2.4762,-0.2552,-2.596,1537,2019-08-07 16:27:52:605
6.5702,1.2229,-1.7677,1.4987,-6.7439,0.9626,-2.4762,-0.2552,-2.596,1543,2019-08-07 16:27:52:611
6.5702,1.2229,-1.7677,1.4987,-6.7439,0.9626,-2.7286,-0.3095,-2.8421,1549,2019-08-07 16:27:52:617
6.2735,1.4616,-1.9515,1.9572,-6.7085,0.9705,-2.7286,-0.3095,-2.8421,1553,2019-08-07 16:27:52:621
6.2735,1.4616,-1.9515,1.9572,-6.7085,0.9705,-2.7286,-0.3095,-2.8421,1558,2019-08-07 16:27:52:626
6.1539,2.1968,-2.1024,1.9572,-6.7085,0.9705,-3.0301,-0.4107,-3.1723,1563,2019-08-07 16:27:52:631
6.1539,2.1968,-2.1024,1.9572,-6.7085,0.9705,-3.0301,-0.4107,-3.1723,1568,2019-08-07 16:27:52:636
6.1539,2.1968,-2.1024,2.2159,-7.5461,1.2056,-3.3561,-0.5833,-3.5335,1573,2019-08-07 16:27:52:641
6.6179,3.4571,-2.7906,2.2159,-7.5461,1.2056,-3.3561,-0.5833,-3.5335,1578,2019-08-07 16:27:52:646
6.6179,3.4571,-2.7906,2.2159,-7.5461,1.2056,-3.6629,-0.7175,-3.8349,1584,2019-08-07 16:27:52:652
6.6179,3.4571,-2.7906,2.2159,-7.5461,1.2056,-3.6629,-0.7175,-3.8349,1588,2019-08-07 16:27:52:656
6.6179,3.4571,-2.7906,1.3706,-8.96,1.6704,-3.6629,-0.7175,-3.8349,1593,2019-08-07 16:27:52:661
7.5078,5.1995,-3.4788,1.3706,-8.96,1.6704,-3.9313,-0.791,-4.0373,1598,2019-08-07 16:27:52:666
7.5078,5.1995,-3.4788,1.3706,-8.96,1.6704,-3.9313,-0.791,-4.0373,1603,2019-08-07 16:27:52:671
7.5078,5.1995,-3.4788,1.3706,-8.96,1.6704,-4.5002,-1.1287,-4.31,1608,2019-08-07 16:27:52:676
8.5268,6.4264,-4.9872,0.4476,-9.158,3.008,-4.5002,-1.1287,-4.31,1613,2019-08-07 16:27:52:681
8.5268,6.4264,-4.9872,0.4476,-9.158,3.008,-4.9071,-1.3865,-4.456,1618,2019-08-07 16:27:52:686
9.7324,5.6101,-6.967,0.4476,-9.158,3.008,-4.9071,-1.3865,-4.456,1623,2019-08-07 16:27:52:691
9.7324,5.6101,-6.967,0.4476,-9.158,3.008,-4.9071,-1.3865,-4.456,1628,2019-08-07 16:27:52:696
9.7324,5.6101,-6.967,-0.9136,-6.4088,5.1906,-5.2373,-1.4398,-4.6296,1633,2019-08-07 16:27:52:701
10.3352,4.2352,-8.3435,-0.9136,-6.4088,5.1906,-5.2373,-1.4398,-4.6296,1637,2019-08-07 16:27:52:705
10.3352,4.2352,-8.3435,-0.9136,-6.4088,5.1906,-5.722,-1.4089,-4.9002,1643,2019-08-07 16:27:52:711
10.206,3.0704,-8.8243,-0.9136,-6.4088,5.1906,-5.722,-1.4089,-4.9002,1648,2019-08-07 16:27:52:716
10.206,3.0704,-8.8243,-0.8624,-3.2421,5.594,-5.722,-1.4089,-4.9002,1653,2019-08-07 16:27:52:721
10.206,3.0704,-8.8243,-0.8624,-3.2421,5.594,-6.1929,-1.3535,-5.1622,1658,2019-08-07 16:27:52:726
9.9955,2.4164,-8.3529,-0.8624,-3.2421,5.594,-6.1929,-1.3535,-5.1622,1662,2019-08-07 16:27:52:730
9.9955,2.4164,-8.3529,-0.8624,-3.2421,5.594,-6.4602,-1.378,-5.3476,1669,2019-08-07 16:27:52:737
9.9955,2.4164,-8.3529,-1.6144,-0.9191,4.4462,-6.4602,-1.378,-5.3476,1672,2019-08-07 16:27:52:740
11.0576,1.8531,-7.9334,-1.6144,-0.9191,4.4462,-6.5817,-1.6539,-5.4893,1678,2019-08-07 16:27:52:746
11.0576,1.8531,-7.9334,-1.6144,-0.9191,4.4462,-6.5817,-1.6539,-5.4893,1683,2019-08-07 16:27:52:751
11.0576,1.8531,-7.9334,-1.6144,-0.9191,4.4462,-6.5806,-2.2451,-5.6832,1688,2019-08-07 16:27:52:756
13.8803,0.6262,-8.5603,-1.6144,-0.9191,4.4462,-6.5806,-2.2451,-5.6832,1693,2019-08-07 16:27:52:761
13.8803,0.6262,-8.5603,-5.315,2.2838,5.34,-6.5902,-2.7575,-5.714,1698,2019-08-07 16:27:52:766
14.263,-1.7416,-10.9031,-5.315,2.2838,5.34,-6.5902,-2.7575,-5.714,1703,2019-08-07 16:27:52:771
14.263,-1.7416,-10.9031,-5.315,2.2838,5.34,-6.6136,-3.1112,-5.5745,1708,2019-08-07 16:27:52:776
14.263,-1.7416,-10.9031,-6.5605,9.2168,9.3869,-6.6136,-3.1112,-5.5745,1713,2019-08-07 16:27:52:781
14.9136,-6.1717,-13.3354,-6.5605,9.2168,9.3869,-6.5678,-3.2028,-5.419,1718,2019-08-07 16:27:52:786
14.9136,-6.1717,-13.3354,-6.5605,9.2168,9.3869,-6.5678,-3.2028,-5.419,1723,2019-08-07 16:27:52:791
14.9136,-6.1717,-13.3354,-6.5605,9.2168,9.3869,-6.0789,-3.0238,-5.3817,1728,2019-08-07 16:27:52:796
16.9995,-14.3206,-14.0849,-9.1288,20.6464,10.5935,-6.0789,-3.0238,-5.3817,1733,2019-08-07 16:27:52:801
16.9995,-14.3206,-14.0849,-9.1288,20.6464,10.5935,-6.0789,-3.0238,-5.3817,1738,2019-08-07 16:27:52:806
15.2915,-18.5168,-14.0519,-9.1288,20.6464,10.5935,-4.9561,-2.553,-5.3465,1743,2019-08-07 16:27:52:811
15.2915,-18.5168,-14.0519,-9.1288,20.6464,10.5935,-4.9561,-2.553,-5.3465,1748,2019-08-07 16:27:52:816
15.2915,-18.5168,-14.0519,-8.7788,26.2453,10.7806,-3.5755,-2.0278,-4.9343,1753,2019-08-07 16:27:52:821
15.9757,-20.116,-14.6176,-8.7788,26.2453,10.7806,-3.5755,-2.0278,-4.9343,1758,2019-08-07 16:27:52:826
15.9757,-20.116,-14.6176,-8.7788,26.2453,10.7806,-2.3164,-1.6123,-4.554,1763,2019-08-07 16:27:52:831
19.1428,-20.4741,-18.3934,-8.7788,26.2453,10.7806,-2.3164,-1.6123,-4.554,1768,2019-08-07 16:27:52:836
19.1428,-20.4741,-18.3934,-14.3838,27.8517,16.6245,-0.1464,-1.0414,-4.0725,1773,2019-08-07 16:27:52:841
19.1428,-20.4741,-18.3934,-14.3838,27.8517,16.6245,-0.1464,-1.0414,-4.0725,1778,2019-08-07 16:27:52:846
22.3769,-22.0876,-21.8439,-14.3838,27.8517,16.6245,1.3567,-0.692,-3.8296,1784,2019-08-07 16:27:52:852
22.3769,-22.0876,-21.8439,-14.3838,27.8517,16.6245,1.3567,-0.692,-3.8296,1788,2019-08-07 16:27:52:856
24.415,-23.5579,-23.5456,-19.2604,31.0316,20.4056,2.5125,-0.5236,-3.4685,1793,2019-08-07 16:27:52:861
24.415,-23.5579,-23.5456,-19.2604,31.0316,20.4056,2.5125,-0.5236,-3.4685,1798,2019-08-07 16:27:52:866
24.415,-23.5579,-23.5456,-19.2604,31.0316,20.4056,3.5405,-0.383,-2.383,1803,2019-08-07 16:27:52:871
25.2092,-24.8994,-29.7442,-19.2604,31.0316,20.4056,3.5405,-0.383,-2.383,1807,2019-08-07 16:27:52:875
25.2092,-24.8994,-29.7442,-19.2604,31.0316,20.4056,3.5405,-0.383,-2.383,1813,2019-08-07 16:27:52:881
25.2092,-24.8994,-29.7442,-20.0553,33.1836,30.3913,4.1487,0.172,-0.996,1818,2019-08-07 16:27:52:886
25.3096,-26.8232,-37.9368,-20.0553,33.1836,30.3913,4.1487,0.172,-0.996,1822,2019-08-07 16:27:52:890
25.3096,-26.8232,-37.9368,-20.0553,33.1836,30.3913,4.8806,1.6484,1.0163,1828,2019-08-07 16:27:52:896
26.2043,-28.7423,-43.1833,-20.9805,35.3552,38.7575,4.8806,1.6484,1.0163,1834,2019-08-07 16:27:52:902
26.2043,-28.7423,-43.1833,-20.9805,35.3552,38.7575,4.8806,1.6484,1.0163,1838,2019-08-07 16:27:52:906
27.0463,-27.673,-43.9988,-20.9805,35.3552,38.7575,5.9075,3.0524,2.9774,1843,2019-08-07 16:27:52:911
27.0463,-27.673,-43.9988,-21.5316,33.0198,38.8485,5.9075,3.0524,2.9774,1849,2019-08-07 16:27:52:917
27.0463,-27.673,-43.9988,-21.5316,33.0198,38.8485,7.2721,3.2165,4.5327,1853,2019-08-07 16:27:52:921
27.0606,-22.1496,-46.252,-21.5316,33.0198,38.8485,7.2721,3.2165,4.5327,1858,2019-08-07 16:27:52:926
27.0606,-22.1496,-46.252,-21.5316,33.0198,38.8485,9.2332,2.5092,6.1104,1862,2019-08-07 16:27:52:930
28.9073,-21.1042,-55.6089,-21.093,25.5961,45.6958,9.2332,2.5092,6.1104,1869,2019-08-07 16:27:52:937
28.9073,-21.1042,-55.6089,-21.093,25.5961,45.6958,11.8921,1.298,7.7147,1872,2019-08-07 16:27:52:940
28.9073,-21.1042,-55.6089,-23.7593,24.6777,53.7656,11.8921,1.298,7.7147,1878,2019-08-07 16:27:52:946
33.8303,-20.4549,-64.4049,-23.7593,24.6777,53.7656,13.6509,-0.0283,8.4721,1884,2019-08-07 16:27:52:952
33.8303,-20.4549,-64.4049,-23.7593,24.6777,53.7656,13.6509,-0.0283,8.4721,1888,2019-08-07 16:27:52:956
33.8303,-20.4549,-64.4049,-23.7593,24.6777,53.7656,15.0559,-1.6624,8.9781,1893,2019-08-07 16:27:52:961
35.1316,-16.3876,-68.2702,-27.9,16.7023,61.649,15.0559,-1.6624,8.9781,1899,2019-08-07 16:27:52:967
35.1316,-16.3876,-68.2702,-27.9,16.7023,61.649,15.0559,-1.6624,8.9781,1903,2019-08-07 16:27:52:971
35.1316,-16.3876,-68.2702,-27.9,16.7023,61.649,16.3577,-2.5104,9.6321,1908,2019-08-07 16:27:52:976
35.4425,-11.8382,-70.283,-27.9,16.7023,61.649,16.3577,-2.5104,9.6321,1913,2019-08-07 16:27:52:981
35.4425,-11.8382,-70.283,-31.6527,6.066,63.5879,16.722,-2.145,9.9251,1918,2019-08-07 16:27:52:986
40.5664,-6.4056,-68.8547,-31.6527,6.066,63.5879,16.722,-2.145,9.9251,1923,2019-08-07 16:27:52:991
40.5664,-6.4056,-68.8547,-31.6527,6.066,63.5879,16.1585,-1.5378,9.8782,1928,2019-08-07 16:27:52:996
40.5664,-6.4056,-68.8547,-31.6527,6.066,63.5879,16.1585,-1.5378,9.8782,1933,2019-08-07 16:27:53:001
40.1119,12.007,-59.2857,-34.6693,-18.3468,54.1455,14.4328,-1.5175,10.0529,1938,2019-08-07 16:27:53:006
40.1119,12.007,-59.2857,-34.6693,-18.3468,54.1455,14.4328,-1.5175,10.0529,1943,2019-08-07 16:27:53:011
55.1057,30.0616,-47.0958,-34.6693,-18.3468,54.1455,14.1675,-1.8115,8.2654,1948,2019-08-07 16:27:53:016
55.1057,30.0616,-47.0958,-34.6693,-18.3468,54.1455,14.1675,-1.8115,8.2654,1953,2019-08-07 16:27:53:021
55.1057,30.0616,-47.0958,-52.8529,-52.4517,50.4566,14.1675,-1.8115,8.2654,1958,2019-08-07 16:27:53:026
55.1679,44.4929,-61.0015,-52.8529,-52.4517,50.4566,13.2993,-0.8816,4.8001,1963,2019-08-07 16:27:53:031
55.1679,44.4929,-61.0015,-52.8529,-52.4517,50.4566,13.2993,-0.8816,4.8001,1968,2019-08-07 16:27:53:036
55.1679,44.4929,-61.0015,-52.8529,-52.4517,50.4566,7.6673,4.7963,0.5657,1973,2019-08-07 16:27:53:041
27.6393,49.7154,-103.5766,-18.0356,-63.9851,99.0864,7.6673,4.7963,0.5657,1978,2019-08-07 16:27:53:046
27.6393,49.7154,-103.5766,-18.0356,-63.9851,99.0864,2.2025,9.6752,-0.3153,1983,2019-08-07 16:27:53:051
8.8851,79.2797,-61.2278,-18.0356,-63.9851,99.0864,2.2025,9.6752,-0.3153,1988,2019-08-07 16:27:53:056
8.8851,79.2797,-61.2278,-18.0356,-63.9851,99.0864,2.2025,9.6752,-0.3153,1992,2019-08-07 16:27:53:060
8.8851,79.2797,-61.2278,6.6746,-103.811,25.61,0.6877,8.7687,0.669,1998,2019-08-07 16:27:53:066
-2.0039,89.4766,-21.8062,6.6746,-103.811,25.61,0.6877,8.7687,0.669,2003,2019-08-07 16:27:53:071
-2.0039,89.4766,-21.8062,6.6746,-103.811,25.61,3.3114,1.7326,4.0821,2009,2019-08-07 16:27:53:077
4.828,54.5895,-6.1422,6.6746,-103.811,25.61,3.3114,1.7326,4.0821,2013,2019-08-07 16:27:53:081
4.828,54.5895,-6.1422,-0.6128,-71.7675,-57.6422,2.995,-4.5631,2.8773,2018,2019-08-07 16:27:53:086
4.828,54.5895,-6.1422,-0.6128,-71.7675,-57.6422,2.995,-4.5631,2.8773,2022,2019-08-07 16:27:53:090
8.5167,36.4633,-26.5059,-0.6128,-71.7675,-57.6422,0.4778,-3.8537,0.5881,2028,2019-08-07 16:27:53:096
8.5167,36.4633,-26.5059,-0.6128,-71.7675,-57.6422,0.4778,-3.8537,0.5881,2033,2019-08-07 16:27:53:101
8.5167,36.4633,-26.5059,-2.364,-43.6166,12.1429,0.4778,-3.8537,0.5881,2038,2019-08-07 16:27:53:106
3.6463,37.399,0.7918,-2.364,-43.6166,12.1429,-0.825,6.114,-2.3425,2043,2019-08-07 16:27:53:111
3.6463,37.399,0.7918,-2.364,-43.6166,12.1429,-0.825,6.114,-2.3425,2048,2019-08-07 16:27:53:116
3.6463,37.399,0.7918,-2.364,-43.6166,12.1429,-0.7451,1.0508,-1.5403,2053,2019-08-07 16:27:53:121
0.3547,22.1992,7.4429,3.4171,-28.518,-6.5286,-0.7451,1.0508,-1.5403,2058,2019-08-07 16:27:53:126
0.3547,22.1992,7.4429,3.4171,-28.518,-6.5286,-1.3576,0.5203,-1.4658,2063,2019-08-07 16:27:53:131
4.4213,8.2119,-6.8682,-0.7799,-17.3089,7.3379,-1.3576,0.5203,-1.4658,2067,2019-08-07 16:27:53:135
4.4213,8.2119,-6.8682,-0.7799,-17.3089,7.3379,-1.3576,0.5203,-1.4658,2073,2019-08-07 16:27:53:141
4.4213,8.2119,-6.8682,-0.7799,-17.3089,7.3379,-3.1185,2.2173,-2.2828,2077,2019-08-07 16:27:53:145
9.5548,0.822,4.5062,-0.7799,-17.3089,7.3379,-3.1185,2.2173,-2.2828,2083,2019-08-07 16:27:53:151
9.5548,0.822,4.5062,-4.4747,-6.7496,-2.7468,-4.8581,-1.7998,-3.3289,2087,2019-08-07 16:27:53:155
9.5548,0.822,4.5062,-4.4747,-6.7496,-2.7468,-4.8581,-1.7998,-3.3289,2093,2019-08-07 16:27:53:161
6.8708,-3.8181,0.7352,-2.2504,-3.9753,-1.7935,-5.5175,-2.9823,-3.6453,2098,2019-08-07 16:27:53:166
6.8708,-3.8181,0.7352,-2.2504,-3.9753,-1.7935,-5.5175,-2.9823,-3.6453,2102,2019-08-07 16:27:53:170
6.8708,-3.8181,0.7352,-2.2504,-3.9753,-1.7935,-5.5175,-2.9823,-3.6453,2108,2019-08-07 16:27:53:176
8.3443,-11.9289,-0.5093,-2.2504,-3.9753,-1.7935,-5.0136,-4.0198,-3.8871,2113,2019-08-07 16:27:53:181
8.3443,-11.9289,-0.5093,-3.4899,9.22,3.918,-5.0136,-4.0198,-3.8871,2119,2019-08-07 16:27:53:187
7.6713,-23.1714,-8.4329,-3.4899,9.22,3.918,-4.5918,-3.9389,-4.2376,2123,2019-08-07 16:27:53:191
7.6713,-23.1714,-8.4329,-3.4899,9.22,3.918,-4.5918,-3.9389,-4.2376,2128,2019-08-07 16:27:53:196
7.6713,-23.1714,-8.4329,-3.4899,9.22,3.918,-4.6642,-3.5905,-3.8296,2133,2019-08-07 16:27:53:201
11.5417,-28.6087,-7.2733,-6.7154,21.6264,3.3821,-4.6642,-3.5905,-3.8296,2138,2019-08-07 16:27:53:206
11.5417,-28.6087,-7.2733,-6.7154,21.6264,3.3821,-4.6642,-3.5905,-3.8296,2143,2019-08-07 16:27:53:211
15.4122,-27.358,-1.7393,-6.7154,21.6264,3.3821,-4.5374,-3.8792,-3.1308,2148,2019-08-07 16:27:53:216
15.4122,-27.358,-1.7393,-6.7154,21.6264,3.3821,-4.5374,-3.8792,-3.1308,2152,2019-08-07 16:27:53:220
15.4122,-27.358,-1.7393,-6.7154,21.6264,3.3821,-2.7169,-3.2017,-2.2019,2158,2019-08-07 16:27:53:226
15.8093,-22.3312,-4.5015,-10.2024,15.3118,0.561,-2.7169,-3.2017,-2.2019,2163,2019-08-07 16:27:53:231
15.8093,-22.3312,-4.5015,-10.2024,15.3118,0.561,-1.0615,-0.9007,-1.8844,2168,2019-08-07 16:27:53:236
15.8093,-22.3312,-4.5015,-10.2024,15.3118,0.561,-1.0615,-0.9007,-1.8844,2173,2019-08-07 16:27:53:241
13.7186,-23.6965,-12.7507,-6.7646,18.4209,8.6346,-0.3542,1.151,-1.7651,2178,2019-08-07 16:27:53:246
13.7186,-23.6965,-12.7507,-6.7646,18.4209,8.6346,-0.3542,1.151,-1.7651,2182,2019-08-07 16:27:53:250
9.5898,-24.3791,4.6338,-6.7646,18.4209,8.6346,-0.5321,2.7638,-1.7619,2188,2019-08-07 16:27:53:256
9.5898,-24.3791,4.6338,-6.7646,18.4209,8.6346,-0.5321,2.7638,-1.7619,2193,2019-08-07 16:27:53:261
9.5898,-24.3791,4.6338,-1.2091,15.7771,-1.0655,-0.5321,2.7638,-1.7619,2198,2019-08-07 16:27:53:266
6.5805,-21.6246,-5.3642,-1.2091,15.7771,-1.0655,-0.5896,-0.4991,-1.7044,2203,2019-08-07 16:27:53:271
6.5805,-21.6246,-5.3642,-1.2091,15.7771,-1.0655,-0.5896,-0.4991,-1.7044,2208,2019-08-07 16:27:53:276
6.5805,-21.6246,-5.3642,-1.2091,15.7771,-1.0655,-0.8282,-1.7221,-1.6053,2213,2019-08-07 16:27:53:281
6.8723,-20.5792,-4.5675,-1.2091,15.7771,-1.0655,-0.8282,-1.7221,-1.6053,2217,2019-08-07 16:27:53:285
6.8723,-20.5792,-4.5675,-2.8612,14.4153,-1.0034,-0.3169,-2.1641,-1.926,2223,2019-08-07 16:27:53:291
11.5991,-20.5887,-1.1783,-2.8612,14.4153,-1.0034,-0.3169,-2.1641,-1.926,2227,2019-08-07 16:27:53:295
11.5991,-20.5887,-1.1783,-6.9444,14.0474,-5.0753,0.7228,-2.7309,-2.4479,2234,2019-08-07 16:27:53:302
11.5991,-20.5887,-1.1783,-6.9444,14.0474,-5.0753,0.7228,-2.7309,-2.4479,2237,2019-08-07 16:27:53:305
13.9865,-17.4953,-1.7063,-6.9444,14.0474,-5.0753,1.982,-2.864,-2.4501,2243,2019-08-07 16:27:53:311
13.9865,-17.4953,-1.7063,-6.9444,14.0474,-5.0753,1.982,-2.864,-2.4501,2248,2019-08-07 16:27:53:316
13.9865,-17.4953,-1.7063,-7.3258,9.0482,0.0928,2.9833,-1.7476,-1.6575,2252,2019-08-07 16:27:53:320
12.8957,-12.6642,-6.6416,-7.3258,9.0482,0.0928,2.9833,-1.7476,-1.6575,2258,2019-08-07 16:27:53:326
12.8957,-12.6642,-6.6416,-7.3258,9.0482,0.0928,3.3391,0.5065,-0.4005,2262,2019-08-07 16:27:53:330
12.2929,-10.7499,-12.8214,-7.3258,9.0482,0.0928,3.3391,0.5065,-0.4005,2267,2019-08-07 16:27:53:335
12.2929,-10.7499,-12.8214,-5.6265,4.6507,8.8199,2.6446,2.3302,0.4783,2273,2019-08-07 16:27:53:341
12.2929,-10.7499,-12.8214,-5.6265,4.6507,8.8199,2.6446,2.3302,0.4783,2278,2019-08-07 16:27:53:346
11.0298,-10.8788,-7.1413,-4.5406,4.6032,3.3017,2.6446,2.3302,0.4783,2282,2019-08-07 16:27:53:350
11.0298,-10.8788,-7.1413,-4.5406,4.6032,3.3017,1.3183,2.2439,0.7095,2288,2019-08-07 16:27:53:356
11.0298,-10.8788,-7.1413,-4.5406,4.6032,3.3017,1.3183,2.2439,0.7095,2293,2019-08-07 16:27:53:361
5.9585,-9.2223,0.9759,-4.5406,4.6032,3.3017,1.526,1.0423,0.8672,2298,2019-08-07 16:27:53:366
5.9585,-9.2223,0.9759,0.3286,2.8875,-1.9622,1.526,1.0423,0.8672,2303,2019-08-07 16:27:53:371
5.9585,-9.2223,0.9759,0.3286,2.8875,-1.9622,2.2003,1.1723,0.9652,2308,2019-08-07 16:27:53:376
7.1929,-10.1866,-2.4605,0.3286,2.8875,-1.9622,2.2003,1.1723,0.9652,2313,2019-08-07 16:27:53:381
7.1929,-10.1866,-2.4605,0.3286,2.8875,-1.9622,2.8331,1.707,0.75,2318,2019-08-07 16:27:53:386
7.1929,-10.1866,-2.4605,-1.8058,3.6437,-1.0296,2.8331,1.707,0.75,2323,2019-08-07 16:27:53:391
8.3028,-10.0863,-2.6537,-1.8058,3.6437,-1.0296,2.8289,1.6314,0.5657,2328,2019-08-07 16:27:53:396
8.3028,-10.0863,-2.6537,-1.8058,3.6437,-1.0296,2.8289,1.6314,0.5657,2333,2019-08-07 16:27:53:401
5.5184,-6.8115,-5.5056,-1.8058,3.6437,-1.0296,2.8289,1.6314,0.5657,2338,2019-08-07 16:27:53:406
5.5184,-6.8115,-5.5056,1.0398,-0.3421,3.4915,2.1471,1.7283,0.9247,2343,2019-08-07 16:27:53:411
5.5184,-6.8115,-5.5056,1.0398,-0.3421,3.4915,2.1471,1.7283,0.9247,2348,2019-08-07 16:27:53:416
6.0542,-7.0836,-2.6867,1.0398,-0.3421,3.4915,1.7242,2.0703,1.1761,2353,2019-08-07 16:27:53:421
6.0542,-7.0836,-2.6867,1.0398,-0.3421,3.4915,1.7242,2.0703,1.1761,2358,2019-08-07 16:27:53:426
5.2744,-7.456,-2.0315,1.1269,0.23,0.2866,1.7242,2.0703,1.1761,2363,2019-08-07 16:27:53:431
5.2744,-7.456,-2.0315,1.1269,0.23,0.2866,1.8019,1.952,1.1569,2368,2019-08-07 16:27:53:436
5.2744,-7.456,-2.0315,1.1269,0.23,0.2866,1.8019,1.952,1.1569,2372,2019-08-07 16:27:53:440
4.2123,-7.0311,-0.6126,1.1269,0.23,0.2866,1.8445,1.9403,1.093,2378,2019-08-07 16:27:53:446
4.2123,-7.0311,-0.6126,2.5836,-1.4725,-1.5506,1.8445,1.9403,1.093,2382,2019-08-07 16:27:53:450
3.5234,-4.711,0.4951,2.5836,-1.4725,-1.5506,1.6997,1.4503,1.0206,2388,2019-08-07 16:27:53:456
3.5234,-4.711,0.4951,2.676,-3.2232,-1.4137,1.6997,1.4503,1.0206,2393,2019-08-07 16:27:53:461
3.5234,-4.711,0.4951,2.676,-3.2232,-1.4137,1.4504,0.9933,0.9524,2399,2019-08-07 16:27:53:467
3.9396,-3.0975,0.2688,2.676,-3.2232,-1.4137,1.4504,0.9933,0.9524,2403,2019-08-07 16:27:53:471
3.9396,-3.0975,0.2688,2.676,-3.2232,-1.4137,1.4504,0.9933,0.9524,2408,2019-08-07 16:27:53:476
5.9346,-1.9613,0.2971,0.1732,-5.6849,-0.9798,1.0669,0.6332,0.8192,2413,2019-08-07 16:27:53:481
5.9346,-1.9613,0.2971,0.1732,-5.6849,-0.9798,1.0669,0.6332,0.8192,2418,2019-08-07 16:27:53:486
5.9346,-1.9613,0.2971,0.1732,-5.6849,-0.9798,0.7377,0.5832,0.6339,2423,2019-08-07 16:27:53:491
7.7813,-1.5316,-0.8719,0.1732,-5.6849,-0.9798,0.7377,0.5832,0.6339,2428,2019-08-07 16:27:53:496
7.7813,-1.5316,-0.8719,-2.2605,-6.0623,0.7337,0.4128,0.9113,0.4176,2432,2019-08-07 16:27:53:500
7.7813,-1.5316,-0.8719,-2.2605,-6.0623,0.7337,0.4128,0.9113,0.4176,2438,2019-08-07 16:27:53:506
8.011,-2.1045,-1.3386,-2.2605,-6.0623,0.7337,0.4128,0.9113,0.4176,2442,2019-08-07 16:27:53:510
8.011,-2.1045,-1.3386,-2.2605,-6.0623,0.7337,0.0443,1.5856,0.2504,2448,2019-08-07 16:27:53:516
6.7958,-3.613,-0.7682,-0.8027,-4.148,0.4756,0.0443,1.5856,0.2504,2453,2019-08-07 16:27:53:521
6.7958,-3.613,-0.7682,-0.8027,-4.148,0.4756,-0.1848,2.2791,0.228,2458,2019-08-07 16:27:53:526
6.7958,-3.613,-0.7682,-0.8027,-4.148,0.4756,-0.1848,2.2791,0.228,2462,2019-08-07 16:27:53:530
5.528,-4.9258,-0.2968,-0.8027,-4.148,0.4756,-0.2263,2.6423,0.1641,2468,2019-08-07 16:27:53:536
5.528,-4.9258,-0.2968,1.2483,-2.761,0.0766,-0.2263,2.6423,0.1641,2473,2019-08-07 16:27:53:541
4.0831,-4.859,0.0897,1.2483,-2.761,0.0766,-0.237,2.8394,0.048,2478,2019-08-07 16:27:53:546
4.0831,-4.859,0.0897,1.2483,-2.761,0.0766,-0.237,2.8394,0.048,2483,2019-08-07 16:27:53:551
4.0831,-4.859,0.0897,1.2483,-2.761,0.0766,-0.3392,2.7435,-0.1203,2488,2019-08-07 16:27:53:556
2.7388,-4.1334,1.0278,1.2483,-2.761,0.0766,-0.3392,2.7435,-0.1203,2493,2019-08-07 16:27:53:561
2.7388,-4.1334,1.0278,3.4663,-3.8748,-0.9439,-0.4873,2.294,-0.2439,2498,2019-08-07 16:27:53:566
2.7388,-4.1334,1.0278,3.4663,-3.8748,-0.9439,-0.4873,2.294,-0.2439,2503,2019-08-07 16:27:53:571
2.136,-3.4364,1.2776,3.4663,-3.8748,-0.9439,-0.4873,2.294,-0.2439,2508,2019-08-07 16:27:53:576
2.136,-3.4364,1.2776,3.4663,-3.8748,-0.9439,-0.6578,1.6452,-0.3686,2513,2019-08-07 16:27:53:581
3.265,-3.761,0.2594,3.3388,-4.1829,-0.2679,-0.6578,1.6452,-0.3686,2518,2019-08-07 16:27:53:586
3.265,-3.761,0.2594,3.3388,-4.1829,-0.2679,-0.89,0.9134,-0.6178,2523,2019-08-07 16:27:53:591
3.265,-3.761,0.2594,1.9788,-3.6049,0.6691,-0.89,0.9134,-0.6178,2528,2019-08-07 16:27:53:596
4.8295,-4.3577,-0.6739,1.9788,-3.6049,0.6691,-1.0881,0.6311,-0.8714,2533,2019-08-07 16:27:53:601
4.8295,-4.3577,-0.6739,1.9788,-3.6049,0.6691,-1.0881,0.6311,-0.8714,2538,2019-08-07 16:27:53:606
6.0255,-4.9497,-0.9567,1.9788,-3.6049,0.6691,-1.233,0.5672,-1.0759,2543,2019-08-07 16:27:53:611
6.0255,-4.9497,-0.9567,-0.0015,-2.5289,1.2552,-1.233,0.5672,-1.0759,2549,2019-08-07 16:27:53:617
6.0255,-4.9497,-0.9567,-0.0015,-2.5289,1.2552,-1.233,0.5672,-1.0759,2553,2019-08-07 16:27:53:621
6.5997,-5.914,-0.9332,-0.0015,-2.5289,1.2552,-1.2213,0.7707,-1.2027,2558,2019-08-07 16:27:53:626
6.5997,-5.914,-0.9332,-0.0015,-2.5289,1.2552,-1.2213,0.7707,-1.2027,2563,2019-08-07 16:27:53:631
6.5997,-5.914,-0.9332,-0.307,-1.225,1.2249,-1.1169,0.9965,-1.2421,2568,2019-08-07 16:27:53:636
6.6427,-6.4057,-0.9615,-0.307,-1.225,1.2249,-1.1169,0.9965,-1.2421,2573,2019-08-07 16:27:53:641
6.6427,-6.4057,-0.9615,-0.307,-1.225,1.2249,-1.0178,1.1233,-1.2644,2578,2019-08-07 16:27:53:646
6.5805,-6.6349,-0.7682,-0.307,-1.225,1.2249,-1.0178,1.1233,-1.2644,2583,2019-08-07 16:27:53:651
6.5805,-6.6349,-0.7682,0.0115,-0.6445,0.8713,-0.9997,1.0966,-1.3134,2587,2019-08-07 16:27:53:655
6.5805,-6.6349,-0.7682,0.0115,-0.6445,0.8713,-0.9997,1.0966,-1.3134,2593,2019-08-07 16:27:53:661
6.571,-6.5394,0.4904,0.0584,-0.6877,-0.2529,-1.0349,0.907,-1.3571,2598,2019-08-07 16:27:53:666
6.571,-6.5394,0.4904,0.0584,-0.6877,-0.2529,-1.0349,0.907,-1.3571,2603,2019-08-07 16:27:53:671
6.571,-6.5394,0.4904,0.0584,-0.6877,-0.2529,-1.0349,0.907,-1.3571,2608,2019-08-07 16:27:53:676
7.0159,-6.5298,0.4433,0.0584,-0.6877,-0.2529,-1.0743,0.6066,-1.3518,2613,2019-08-07 16:27:53:681
7.0159,-6.5298,0.4433,-0.8582,-0.2731,0.3287,-1.0743,0.6066,-1.3518,2618,2019-08-07 16:27:53:686
7.0159,-6.5298,0.4433,-0.8582,-0.2731,0.3287,-1.0743,0.6066,-1.3518,2623,2019-08-07 16:27:53:691
8.877,-7.2077,-0.7116,-0.8582,-0.2731,0.3287,-1.1265,0.7067,-1.3848,2628,2019-08-07 16:27:53:696
8.877,-7.2077,-0.7116,-0.8582,-0.2731,0.3287,-1.1265,0.7067,-1.3848,2633,2019-08-07 16:27:53:701
8.877,-7.2077,-0.7116,-2.4355,0.6861,0.912,-1.1499,1.0295,-1.4082,2638,2019-08-07 16:27:53:706
9.5037,-7.771,-0.787,-2.4355,0.6861,0.912,-1.1499,1.0295,-1.4082,2643,2019-08-07 16:27:53:711
9.5037,-7.771,-0.787,-2.1196,1.1772,0.6827,-1.103,1.4695,-1.404,2649,2019-08-07 16:27:53:717
9.5037,-7.771,-0.787,-2.1196,1.1772,0.6827,-1.103,1.4695,-1.404,2653,2019-08-07 16:27:53:721
7.9249,-8.3869,0.019,-2.1196,1.1772,0.6827,-1.103,1.4695,-1.404,2658,2019-08-07 16:27:53:726
7.9249,-8.3869,0.019,-2.1196,1.1772,0.6827,-0.9869,1.8604,-1.3443,2663,2019-08-07 16:27:53:731
6.1308,-8.6971,0.5705,0.8797,2.0923,-0.2105,-0.9869,1.8604,-1.3443,2668,2019-08-07 16:27:53:736
6.1308,-8.6971,0.5705,0.8797,2.0923,-0.2105,-0.9443,1.7326,-1.2165,2673,2019-08-07 16:27:53:741
6.1308,-8.6971,0.5705,1.7779,2.0845,-0.6514,-0.9443,1.7326,-1.2165,2678,2019-08-07 16:27:53:746
5.4562,-8.4585,1.2257,1.7779,2.0845,-0.6514,-0.9582,1.3075,-1.094,2684,2019-08-07 16:27:53:752
5.4562,-8.4585,1.2257,1.7779,2.0845,-0.6514,-0.9582,1.3075,-1.094,2688,2019-08-07 16:27:53:756
5.4562,-8.4585,1.2257,1.7779,2.0845,-0.6514,-0.9582,1.3075,-1.094,2692,2019-08-07 16:27:53:760
5.5567,-8.0479,1.4709,1.359,1.5651,-0.771,-1.005,0.7781,-0.9736,2698,2019-08-07 16:27:53:766
5.5567,-8.0479,1.4709,1.359,1.5651,-0.771,-1.005,0.7781,-0.9736,2703,2019-08-07 16:27:53:771
7.6235,-7.6803,0.4055,1.359,1.5651,-0.771,-1.1701,0.222,-0.8554,2708,2019-08-07 16:27:53:776
7.6235,-7.6803,0.4055,1.359,1.5651,-0.771,-1.1701,0.222,-0.8554,2714,2019-08-07 16:27:53:782
9.6712,-8.067,-0.8719,-1.7205,1.813,0.9208,-1.2671,0.27,-0.7659,2718,2019-08-07 16:27:53:786
9.6712,-8.067,-0.8719,-1.7205,1.813,0.9208,-1.2671,0.27,-0.7659,2723,2019-08-07 16:27:53:791
9.6712,-8.067,-0.8719,-1.7205,1.813,0.9208,-1.249,0.7323,-0.669,2728,2019-08-07 16:27:53:796
10.2309,-8.4823,-1.1736,-1.7205,1.813,0.9208,-1.249,0.7323,-0.669,2733,2019-08-07 16:27:53:801
10.2309,-8.4823,-1.1736,-2.2227,2.7525,1.5854,-1.0711,1.5494,-0.5262,2738,2019-08-07 16:27:53:806
10.2309,-8.4823,-1.1736,-2.2227,2.7525,1.5854,-1.0711,1.5494,-0.5262,2743,2019-08-07 16:27:53:811
9.1545,-9.06,-1.2537,-2.2227,2.7525,1.5854,-1.0711,1.5494,-0.5262,2748,2019-08-07 16:27:53:816
9.1545,-9.06,-1.2537,-2.2227,2.7525,1.5854,-0.9102,2.0223,-0.4144,2753,2019-08-07 16:27:53:821
9.1545,-9.06,-1.2537,1.7827,2.9787,0.3735,-0.9102,2.0223,-0.4144,2758,2019-08-07 16:27:53:826
5.9395,-9.017,0.0049,1.7827,2.9787,0.3735,-0.744,1.9893,-0.2428,2763,2019-08-07 16:27:53:831
5.9395,-9.017,0.0049,1.7827,2.9787,0.3735,-0.744,1.9893,-0.2428,2768,2019-08-07 16:27:53:836
3.7722,-8.6112,1.3436,1.7827,2.9787,0.3735,-0.744,1.9893,-0.2428,2773,2019-08-07 16:27:53:841
3.7722,-8.6112,1.3436,4.2539,2.4533,-0.9996,-0.6407,1.3853,-0.0831,2778,2019-08-07 16:27:53:846
3.7722,-8.6112,1.3436,4.2539,2.4533,-0.9996,-0.6407,1.3853,-0.0831,2783,2019-08-07 16:27:53:851
3.2077,-8.2054,1.7726,4.2539,2.4533,-0.9996,-0.6684,0.4532,0.0011,2788,2019-08-07 16:27:53:856
3.2077,-8.2054,1.7726,4.2539,2.4533,-0.9996,-0.6684,0.4532,0.0011,2793,2019-08-07 16:27:53:861
3.8296,-7.6517,1.5321,3.8854,1.6203,-0.9508,-0.7355,-0.2935,0.0469,2798,2019-08-07 16:27:53:866
3.8296,-7.6517,1.5321,3.8854,1.6203,-0.9508,-0.7355,-0.2935,0.0469,2802,2019-08-07 16:27:53:870
3.8296,-7.6517,1.5321,3.8854,1.6203,-0.9508,-0.7355,-0.2935,0.0469,2808,2019-08-07 16:27:53:876
5.5998,-7.4703,0.4715,2.1131,1.4286,0.0235,-0.8325,-0.7718,0.0512,2812,2019-08-07 16:27:53:880
5.5998,-7.4703,0.4715,2.1131,1.4286,0.0235,-0.8325,-0.7718,0.0512,2819,2019-08-07 16:27:53:887
9.188,-7.8761,-1.1547,2.1131,1.4286,0.0235,-0.939,-0.6781,0.0043,2823,2019-08-07 16:27:53:891
9.188,-7.8761,-1.1547,-2.2287,1.9472,1.6482,-0.939,-0.6781,0.0043,2827,2019-08-07 16:27:53:895
9.188,-7.8761,-1.1547,-2.2287,1.9472,1.6482,-0.8942,-0.056,-0.0096,2833,2019-08-07 16:27:53:901
10.2309,-8.0479,-1.4281,-2.2287,1.9472,1.6482,-0.8942,-0.056,-0.0096,2838,2019-08-07 16:27:53:906
10.2309,-8.0479,-1.4281,-2.2287,1.9472,1.6482,-0.6929,0.8058,0.0639,2843,2019-08-07 16:27:53:911
8.4656,-8.215,-1.15,-0.7578,2.1517,1.4012,-0.6929,0.8058,0.0639,2848,2019-08-07 16:27:53:916
8.4656,-8.215,-1.15,-0.7578,2.1517,1.4012,-0.4042,1.6633,0.212,2853,2019-08-07 16:27:53:921
8.4656,-8.215,-1.15,-0.7578,2.1517,1.4012,-0.4042,1.6633,0.212,2858,2019-08-07 16:27:53:926
6.0208,-8.4155,-0.0517,-0.7578,2.1517,1.4012,-0.4042,1.6633,0.212,2863,2019-08-07 16:27:53:931
6.0208,-8.4155,-0.0517,2.8177,2.0498,-0.0796,-0.302,1.7187,0.2397,2868,2019-08-07 16:27:53:936
6.0208,-8.4155,-0.0517,2.8177,2.0498,-0.0796,-0.302,1.7187,0.2397,2873,2019-08-07 16:27:53:941
4.3894,-8.0049,0.7591,2.8177,2.0498,-0.0796,-0.2913,1.2404,0.2418,2878,2019-08-07 16:27:53:946
4.3894,-8.0049,0.7591,2.8177,2.0498,-0.0796,-0.2913,1.2404,0.2418,2882,2019-08-07 16:27:53:950
4.0832,-7.6851,1.2305,3.5043,1.4995,-0.6305,-0.3211,0.4852,0.196,2889,2019-08-07 16:27:53:957
4.0832,-7.6851,1.2305,3.5043,1.4995,-0.6305,-0.3211,0.4852,0.196,2893,2019-08-07 16:27:53:961
4.2602,-7.4082,1.1456,3.5043,1.4995,-0.6305,-0.3211,0.4852,0.196,2898,2019-08-07 16:27:53:966
4.2602,-7.4082,1.1456,3.5043,1.4995,-0.6305,-0.3329,-0.121,0.1875,2903,2019-08-07 16:27:53:971
4.2602,-7.4082,1.1456,3.5043,1.4995,-0.6305,-0.3329,-0.121,0.1875,2908,2019-08-07 16:27:53:976
5.1309,-7.4464,0.5941,2.4624,1.2607,-0.0336,-0.3201,-0.5726,0.2195,2913,2019-08-07 16:27:53:981
5.1309,-7.4464,0.5941,2.4624,1.2607,-0.0336,-0.3201,-0.5726,0.2195,2918,2019-08-07 16:27:53:986
5.1309,-7.4464,0.5941,2.4624,1.2607,-0.0336,-0.3062,-0.7953,0.2227,2923,2019-08-07 16:27:53:991
6.8246,-7.5896,-0.3345,2.4624,1.2607,-0.0336,-0.3062,-0.7953,0.2227,2928,2019-08-07 16:27:53:996
6.8246,-7.5896,-0.3345,0.2244,1.3641,0.9364,-0.2711,-0.6952,0.2035,2934,2019-08-07 16:27:54:002
6.8246,-7.5896,-0.3345,0.2244,1.3641,0.9364,-0.2711,-0.6952,0.2035,2937,2019-08-07 16:27:54:005
8.1594,-7.5419,-0.6409,0.2244,1.3641,0.9364,-0.1976,-0.4203,0.1907,2943,2019-08-07 16:27:54:011
8.1594,-7.5419,-0.6409,0.2244,1.3641,0.9364,-0.1976,-0.4203,0.1907,2948,2019-08-07 16:27:54:016
8.346,-7.3605,-0.4429,-0.8211,1.155,0.7327,-0.0857,-0.0592,0.1843,2953,2019-08-07 16:27:54:021
8.346,-7.3605,-0.4429,-0.8211,1.155,0.7327,-0.0857,-0.0592,0.1843,2957,2019-08-07 16:27:54:025
8.346,-7.3605,-0.4429,-0.8211,1.155,0.7327,0.0112,0.2146,0.1811,2963,2019-08-07 16:27:54:031
7.7814,-7.0788,2.0E-4,-0.8211,1.155,0.7327,0.0112,0.2146,0.1811,2969,2019-08-07 16:27:54:037
7.7814,-7.0788,2.0E-4,-0.0224,0.6825,0.1547,0.0112,0.2146,0.1811,2972,2019-08-07 16:27:54:040
7.2073,-6.7638,0.4386,-0.0224,0.6825,0.1547,0.057,0.3115,0.163,2978,2019-08-07 16:27:54:046
7.2073,-6.7638,0.4386,-0.0224,0.6825,0.1547,0.057,0.3115,0.163,2983,2019-08-07 16:27:54:051
7.2073,-6.7638,0.4386,-0.0224,0.6825,0.1547,0.0379,0.2657,0.1502,2988,2019-08-07 16:27:54:056
7.2073,-6.7638,0.4386,0.6578,0.1756,-0.5535,0.0379,0.2657,0.1502,2992,2019-08-07 16:27:54:060
6.8437,-6.4869,0.9146,0.6578,0.1756,-0.5535,0.0123,0.1656,0.1417,2998,2019-08-07 16:27:54:066
6.8437,-6.4869,0.9146,0.6578,0.1756,-0.5535,0.0123,0.1656,0.1417,3003,2019-08-07 16:27:54:071
6.7193,-6.3055,1.1221,0.6578,0.1756,-0.5535,-0.0239,0.0644,0.1385,3008,2019-08-07 16:27:54:076
6.7193,-6.3055,1.1221,0.7337,0.0196,-0.6882,-0.0239,0.0644,0.1385,3013,2019-08-07 16:27:54:081
6.6811,-6.3102,1.0938,0.7337,0.0196,-0.6882,-0.0569,0.0015,0.1279,3018,2019-08-07 16:27:54:086
6.6811,-6.3102,1.0938,0.7337,0.0196,-0.6882,-0.0569,0.0015,0.1279,3022,2019-08-07 16:27:54:090
6.6811,-6.3102,1.0938,0.7337,0.0196,-0.6882,-0.0569,0.0015,0.1279,3028,2019-08-07 16:27:54:096
6.9538,-6.4487,1.0325,0.512,0.0956,-0.6631,-0.1028,-0.0603,0.1044,3033,2019-08-07 16:27:54:101
6.9538,-6.4487,1.0325,0.512,0.0956,-0.6631,-0.1028,-0.0603,0.1044,3038,2019-08-07 16:27:54:106
6.9538,-6.4487,1.0325,0.512,0.0956,-0.6631,-0.0932,-0.0698,0.0948,3042,2019-08-07 16:27:54:110
6.8724,-6.5537,0.9146,0.512,0.0956,-0.6631,-0.0932,-0.0698,0.0948,3048,2019-08-07 16:27:54:116
6.8724,-6.5537,0.9146,0.5133,0.2032,-0.4299,-0.0687,-0.1082,0.097,3053,2019-08-07 16:27:54:121
6.9394,-6.5776,0.8251,0.5133,0.2032,-0.4299,-0.0687,-0.1082,0.097,3057,2019-08-07 16:27:54:125
6.9394,-6.5776,0.8251,0.5133,0.2032,-0.4299,-0.0495,-0.1636,0.098,3063,2019-08-07 16:27:54:131
7.1308,-6.568,0.7355,0.5133,0.2032,-0.4299,-0.0495,-0.1636,0.098,3068,2019-08-07 16:27:54:136
7.1308,-6.568,0.7355,0.3286,0.168,-0.3977,-0.0495,-0.1636,0.098,3073,2019-08-07 16:27:54:141
7.1308,-6.568,0.7355,0.3286,0.168,-0.3977,-0.0367,-0.2658,0.1066,3078,2019-08-07 16:27:54:146
7.2504,-6.5967,0.6365,0.3286,0.168,-0.3977,-0.0367,-0.2658,0.1066,3083,2019-08-07 16:27:54:151
7.2504,-6.5967,0.6365,0.3286,0.168,-0.3977,0.0027,-0.4299,0.1247,3087,2019-08-07 16:27:54:155
7.2504,-6.5967,0.6365,-0.388,0.3887,0.3206,0.0027,-0.4299,0.1247,3093,2019-08-07 16:27:54:161
7.9632,-6.7924,-0.179,-0.388,0.3887,0.3206,0.0219,-0.4416,0.1087,3098,2019-08-07 16:27:54:166
7.9632,-6.7924,-0.179,-0.388,0.3887,0.3206,0.0219,-0.4416,0.1087,3103,2019-08-07 16:27:54:171
8.6474,-6.9499,-0.6645,-0.388,0.3887,0.3206,0.0347,-0.3362,0.0874,3109,2019-08-07 16:27:54:177
8.6474,-6.9499,-0.6645,-1.4992,0.5316,0.9412,0.0347,-0.3362,0.0874,3113,2019-08-07 16:27:54:181
9.0547,-6.9834,-0.7068,-1.4992,0.5316,0.9412,0.0815,-0.0453,0.0682,3118,2019-08-07 16:27:54:186
9.0547,-6.9834,-0.7068,-1.4992,0.5316,0.9412,0.0815,-0.0453,0.0682,3123,2019-08-07 16:27:54:191
9.0547,-6.9834,-0.7068,-1.4992,0.5316,0.9412,0.0815,-0.0453,0.0682,3128,2019-08-07 16:27:54:196
8.5763,-7.0598,-0.5606,-0.9625,0.6086,0.7199,0.1582,0.237,0.0608,3133,2019-08-07 16:27:54:201
8.5763,-7.0598,-0.5606,-0.9625,0.6086,0.7199,0.1582,0.237,0.0608,3137,2019-08-07 16:27:54:205
7.5046,-6.9214,-0.1223,-0.9625,0.6086,0.7199,0.2467,0.4553,0.0618,3143,2019-08-07 16:27:54:211
7.5046,-6.9214,-0.1223,-0.9625,0.6086,0.7199,0.2467,0.4553,0.0618,3148,2019-08-07 16:27:54:216
7.5046,-6.9214,-0.1223,0.6008,0.304,0.1184,0.2467,0.4553,0.0618,3153,2019-08-07 16:27:54:221
6.6052,-6.7209,0.368,0.6008,0.304,0.1184,0.2541,0.4053,0.0629,3157,2019-08-07 16:27:54:225
6.6052,-6.7209,0.368,0.6008,0.304,0.1184,0.2541,0.4053,0.0629,3163,2019-08-07 16:27:54:231
6.1698,-6.4726,0.7969,1.0635,0.1084,-0.2414,0.2392,0.2433,0.064,3167,2019-08-07 16:27:54:235
6.1698,-6.4726,0.7969,1.0635,0.1084,-0.2414,0.2392,0.2433,0.064,3173,2019-08-07 16:27:54:241
6.1698,-6.4726,0.7969,1.0635,0.1084,-0.2414,0.2072,0.0122,0.0554,3177,2019-08-07 16:27:54:245
6.0263,-6.2864,1.0091,1.3503,-0.1724,-0.5977,0.2072,0.0122,0.0554,3183,2019-08-07 16:27:54:251
6.0263,-6.2864,1.0091,1.3503,-0.1724,-0.5977,0.154,-0.2712,0.0576,3187,2019-08-07 16:27:54:255
6.5143,-6.3103,0.7357,1.3503,-0.1724,-0.5977,0.154,-0.2712,0.0576,3193,2019-08-07 16:27:54:261
6.5143,-6.3103,0.7357,1.3503,-0.1724,-0.5977,0.0933,-0.5002,0.0565,3198,2019-08-07 16:27:54:266
6.5143,-6.3103,0.7357,0.4218,-0.0472,-0.27,0.0933,-0.5002,0.0565,3203,2019-08-07 16:27:54:271
7.0645,-6.4297,0.5707,0.4218,-0.0472,-0.27,0.0645,-0.6099,0.0703,3209,2019-08-07 16:27:54:277
7.0645,-6.4297,0.5707,0.4218,-0.0472,-0.27,0.0645,-0.6099,0.0703,3213,2019-08-07 16:27:54:281
7.6721,-6.5013,0.2973,0.4218,-0.0472,-0.27,0.0592,-0.5716,0.0735,3218,2019-08-07 16:27:54:286
7.6721,-6.5013,0.2973,-0.4211,0.038,0.2401,0.0592,-0.5716,0.0735,3223,2019-08-07 16:27:54:291
7.6721,-6.5013,0.2973,-0.4211,0.038,0.2401,0.0656,-0.4597,0.0693,3228,2019-08-07 16:27:54:296
8.0501,-6.5204,-0.2212,-0.4211,0.038,0.2401,0.0656,-0.4597,0.0693,3233,2019-08-07 16:27:54:301
8.0501,-6.5204,-0.2212,-0.4211,0.038,0.2401,0.0656,-0.2648,0.0671,3237,2019-08-07 16:27:54:305
8.0501,-6.5204,-0.2212,-0.4211,0.038,0.2401,0.0656,-0.2648,0.0671,3243,2019-08-07 16:27:54:311
8.2462,-6.4153,-0.3014,-0.8819,-0.0615,0.5317,0.0815,-0.0443,0.0544,3248,2019-08-07 16:27:54:316
8.2462,-6.4153,-0.3014,-0.8819,-0.0615,0.5317,0.0815,-0.0443,0.0544,3253,2019-08-07 16:27:54:321
8.2462,-6.4153,-0.3014,-0.8819,-0.0615,0.5317,0.0815,-0.0443,0.0544,3258,2019-08-07 16:27:54:326
7.9018,-6.4679,-0.0515,-0.3384,-0.011,0.2342,0.1167,0.1858,0.0522,3263,2019-08-07 16:27:54:331
7.9018,-6.4679,-0.0515,-0.3384,-0.011,0.2342,0.1167,0.1858,0.0522,3267,2019-08-07 16:27:54:335
7.2751,-6.4631,0.2502,-0.3384,-0.011,0.2342,0.1252,0.2636,0.0448,3273,2019-08-07 16:27:54:341
7.2751,-6.4631,0.2502,-0.3384,-0.011,0.2342,0.1252,0.2636,0.0448,3278,2019-08-07 16:27:54:346
6.9737,-6.2292,0.5283,0.3769,-0.2603,-0.2245,0.0943,0.2093,0.0395,3283,2019-08-07 16:27:54:351
6.9737,-6.2292,0.5283,0.3769,-0.2603,-0.2245,0.0943,0.2093,0.0395,3288,2019-08-07 16:27:54:356
6.9737,-6.2292,0.5283,0.3769,-0.2603,-0.2245,0.0411,0.0825,0.0363,3293,2019-08-07 16:27:54:361
7.122,-6.2292,0.6367,0.3769,-0.2603,-0.2245,-0.0079,-0.0965,0.0405,3298,2019-08-07 16:27:54:366
7.122,-6.2292,0.6367,0.3769,-0.2603,-0.2245,-0.0079,-0.0965,0.0405,3303,2019-08-07 16:27:54:371
7.122,-6.2292,0.6367,0.0893,-0.2279,-0.2185,-0.042,-0.2126,0.0448,3308,2019-08-07 16:27:54:376
7.3851,-6.3581,0.3727,0.0893,-0.2279,-0.2185,-0.042,-0.2126,0.0448,3312,2019-08-07 16:27:54:380
7.3851,-6.3581,0.3727,0.0893,-0.2279,-0.2185,-0.042,-0.2126,0.0448,3318,2019-08-07 16:27:54:386
7.8061,-6.5824,0.2219,0.0893,-0.2279,-0.2185,-0.0804,-0.2712,0.0597,3323,2019-08-07 16:27:54:391
7.8061,-6.5824,0.2219,-0.5522,0.0795,0.0579,-0.0804,-0.2712,0.0597,3328,2019-08-07 16:27:54:396
7.8061,-6.5824,0.2219,-0.5522,0.0795,0.0579,-0.0836,-0.236,0.064,3333,2019-08-07 16:27:54:401
8.0741,-6.6111,-0.0279,-0.5522,0.0795,0.0579,-0.0836,-0.236,0.064,3338,2019-08-07 16:27:54:406
8.0741,-6.6111,-0.0279,-0.5522,0.0795,0.0579,-0.0708,-0.1316,0.0544,3343,2019-08-07 16:27:54:411
7.9162,-6.5681,-0.0515,-0.6397,0.0376,0.2632,-0.0708,-0.1316,0.0544,3349,2019-08-07 16:27:54:417
7.9162,-6.5681,-0.0515,-0.6397,0.0376,0.2632,-0.0442,-0.0027,0.048,3352,2019-08-07 16:27:54:420
7.9162,-6.5681,-0.0515,-0.6397,0.0376,0.2632,-0.0442,-0.0027,0.048,3359,2019-08-07 16:27:54:427
7.6244,-6.4965,0.1512,-0.6397,0.0376,0.2632,-0.0271,0.0729,0.0522,3363,2019-08-07 16:27:54:431
7.6244,-6.4965,0.1512,-0.2105,-0.1366,-0.039,-0.0271,0.0729,0.0522,3368,2019-08-07 16:27:54:436
7.3947,-6.3485,0.3162,-0.2105,-0.1366,-0.039,-0.0271,0.0729,0.0522,3372,2019-08-07 16:27:54:440
7.3947,-6.3485,0.3162,-0.2105,-0.1366,-0.039,-0.0186,0.0793,0.0437,3378,2019-08-07 16:27:54:446
7.3947,-6.3485,0.3162,-0.2105,-0.1366,-0.039,-0.0186,0.0793,0.0437,3383,2019-08-07 16:27:54:451
7.2512,-6.1862,0.368,0.0705,-0.3389,-0.1389,-0.0335,0.0314,0.0352,3388,2019-08-07 16:27:54:456
7.2512,-6.1862,0.368,0.0705,-0.3389,-0.1389,-0.0335,0.0314,0.0352,3393,2019-08-07 16:27:54:461
7.1795,-6.0621,0.3869,0.0705,-0.3389,-0.1389,-0.0591,-0.0336,0.0384,3399,2019-08-07 16:27:54:467
7.1795,-6.0621,0.3869,0.0705,-0.3389,-0.1389,-0.0591,-0.0336,0.0384,3403,2019-08-07 16:27:54:471
7.1795,-6.0621,0.3869,-0.0484,-0.401,-0.1452,-0.1017,-0.1497,0.0309,3408,2019-08-07 16:27:54:476
7.2895,-6.1576,0.3397,-0.0484,-0.401,-0.1452,-0.1017,-0.1497,0.0309,3413,2019-08-07 16:27:54:481
7.2895,-6.1576,0.3397,-0.0484,-0.401,-0.1452,-0.1017,-0.1497,0.0309,3417,2019-08-07 16:27:54:485
7.2895,-6.1576,0.3397,-0.0484,-0.401,-0.1452,-0.107,-0.2137,0.0426,3423,2019-08-07 16:27:54:491
7.4952,-6.6349,-0.0326,-0.1814,0.0995,0.2094,-0.107,-0.2137,0.0426,3428,2019-08-07 16:27:54:496
7.4952,-6.6349,-0.0326,-0.1814,0.0995,0.2094,-0.0921,-0.22,0.0448,3433,2019-08-07 16:27:54:501
7.6579,-6.9643,-0.2448,-0.1814,0.0995,0.2094,-0.0921,-0.22,0.0448,3438,2019-08-07 16:27:54:506
7.6579,-6.9643,-0.2448,-0.1814,0.0995,0.2094,-0.0676,-0.1796,0.0128,3443,2019-08-07 16:27:54:511
7.6579,-6.9643,-0.2448,-0.448,0.4049,0.5026,-0.0676,-0.1796,0.0128,3449,2019-08-07 16:27:54:517
7.7536,-6.9023,-0.4145,-0.448,0.4049,0.5026,-0.041,-0.0933,-0.0149,3453,2019-08-07 16:27:54:521
7.7536,-6.9023,-0.4145,-0.448,0.4049,0.5026,-0.041,-0.0933,-0.0149,3458,2019-08-07 16:27:54:526
7.7536,-6.9023,-0.4145,-0.448,0.4049,0.5026,-0.0048,0.009,-0.0255,3463,2019-08-07 16:27:54:531
7.5814,-6.802,-0.2919,-0.1728,0.2165,0.3762,-0.0048,0.009,-0.0255,3467,2019-08-07 16:27:54:535
7.5814,-6.802,-0.2919,-0.1728,0.2165,0.3762,0.0197,0.0665,-0.0223,3473,2019-08-07 16:27:54:541
7.2704,-6.6779,-0.1646,-0.1728,0.2165,0.3762,0.0197,0.0665,-0.0223,3478,2019-08-07 16:27:54:546
7.2704,-6.6779,-0.1646,-0.1728,0.2165,0.3762,0.0304,0.0569,-0.0181,3483,2019-08-07 16:27:54:551
7.2704,-6.6779,-0.1646,0.2123,-0.0049,0.1045,0.0304,0.0569,-0.0181,3487,2019-08-07 16:27:54:555
7.103,-6.5204,0.1323,0.2123,-0.0049,0.1045,0.0229,-0.0081,-0.0127,3493,2019-08-07 16:27:54:561
7.103,-6.5204,0.1323,0.2123,-0.0049,0.1045,0.0229,-0.0081,-0.0127,3498,2019-08-07 16:27:54:566
7.0839,-6.3772,0.0334,0.2123,-0.0049,0.1045,0.0229,-0.0081,-0.0127,3503,2019-08-07 16:27:54:571
7.0839,-6.3772,0.0334,0.1512,-0.2043,0.1657,-0.0026,-0.1284,0.0032,3508,2019-08-07 16:27:54:576
7.0839,-6.3772,0.0334,0.1512,-0.2043,0.1657,-0.0026,-0.1284,0.0032,3513,2019-08-07 16:27:54:581
7.237,-6.3772,0.0334,0.1512,-0.2043,0.1657,-0.0346,-0.1913,0.0086,3517,2019-08-07 16:27:54:585
7.237,-6.3772,0.0334,0.1512,-0.2043,0.1657,-0.0346,-0.1913,0.0086,3523,2019-08-07 16:27:54:591
7.3231,-6.4583,-0.1222,-0.0073,-0.0767,0.2162,-0.0538,-0.2445,0.0224,3527,2019-08-07 16:27:54:595
7.3231,-6.4583,-0.1222,-0.0073,-0.0767,0.2162,-0.0538,-0.2445,0.0224,3533,2019-08-07 16:27:54:601
7.3231,-6.4583,-0.1222,-0.0073,-0.0767,0.2162,-0.0538,-0.2563,0.0416,3537,2019-08-07 16:27:54:605
7.4666,-6.8164,-0.3249,-0.0073,-0.0767,0.2162,-0.0538,-0.2563,0.0416,3543,2019-08-07 16:27:54:611
7.4666,-6.8164,-0.3249,-0.0073,-0.0767,0.2162,-0.0474,-0.1934,0.0448,3548,2019-08-07 16:27:54:616
7.3997,-6.8832,-0.2023,-0.156,0.3515,0.3754,-0.0474,-0.1934,0.0448,3552,2019-08-07 16:27:54:620
7.3997,-6.8832,-0.2023,-0.156,0.3515,0.3754,-0.0271,-0.0954,0.0267,3558,2019-08-07 16:27:54:626
7.3997,-6.8832,-0.2023,-0.156,0.3515,0.3754,-0.0271,-0.0954,0.0267,3563,2019-08-07 16:27:54:631
7.3231,-6.7495,-0.1222,0.0219,0.1656,0.152,-0.0271,-0.0954,0.0267,3567,2019-08-07 16:27:54:635
7.3231,-6.7495,-0.1222,0.0219,0.1656,0.152,-0.0271,-0.0251,-0.0053,3573,2019-08-07 16:27:54:641
7.0696,-6.5729,-0.174,0.0219,0.1656,0.152,-0.0271,-0.0251,-0.0053,3578,2019-08-07 16:27:54:646
7.0696,-6.5729,-0.174,0.0219,0.1656,0.152,-0.0506,-0.0166,-0.0202,3583,2019-08-07 16:27:54:651
7.0696,-6.5729,-0.174,0.2769,-0.0428,0.0722,-0.0506,-0.0166,-0.0202,3587,2019-08-07 16:27:54:655
7.0026,-6.5634,0.0192,0.2769,-0.0428,0.0722,-0.0719,-0.0443,-0.0159,3593,2019-08-07 16:27:54:661
7.0026,-6.5634,0.0192,0.2769,-0.0428,0.0722,-0.0719,-0.0443,-0.0159,3598,2019-08-07 16:27:54:666
7.0504,-6.6015,0.1182,0.2769,-0.0428,0.0722,-0.0719,-0.0443,-0.0159,3603,2019-08-07 16:27:54:671
7.0504,-6.6015,0.1182,0.206,0.0297,-0.0179,-0.0953,-0.1391,-0.0053,3609,2019-08-07 16:27:54:677
7.0504,-6.6015,0.1182,0.206,0.0297,-0.0179,-0.1123,-0.2158,0.0011,3613,2019-08-07 16:27:54:681
7.2466,-6.549,0.0899,0.206,0.0297,-0.0179,-0.1123,-0.2158,0.0011,3618,2019-08-07 16:27:54:686
7.2466,-6.549,0.0899,0.206,0.0297,-0.0179,-0.1123,-0.2158,0.0011,3623,2019-08-07 16:27:54:691
7.2466,-6.549,0.0899,0.206,0.0297,-0.0179,-0.1411,-0.2786,0.0054,3628,2019-08-07 16:27:54:696
7.3184,-6.5061,-0.0326,-0.0096,-0.0372,-0.0224,-0.1411,-0.2786,0.0054,3633,2019-08-07 16:27:54:701
7.3184,-6.5061,-0.0326,-0.0096,-0.0372,-0.0224,-0.155,-0.3905,0.0288,3638,2019-08-07 16:27:54:706
7.6389,-6.7925,-0.636,-0.0096,-0.0372,-0.0224,-0.155,-0.3905,0.0288,3643,2019-08-07 16:27:54:711
7.6389,-6.7925,-0.636,-0.5208,0.2505,0.3529,-0.1667,-0.3575,0.0352,3648,2019-08-07 16:27:54:716
8.0025,-6.888,-0.3861,-0.5208,0.2505,0.3529,-0.1667,-0.3575,0.0352,3653,2019-08-07 16:27:54:721
8.0025,-6.888,-0.3861,-0.5208,0.2505,0.3529,-0.1283,-0.2786,0.0352,3658,2019-08-07 16:27:54:726
8.0025,-6.888,-0.3861,-0.5208,0.2505,0.3529,-0.1283,-0.2786,0.0352,3663,2019-08-07 16:27:54:731
8.2896,-7.0216,-0.6313,-0.5208,0.2505,0.3529,-0.1283,-0.2786,0.0352,3667,2019-08-07 16:27:54:735
8.2896,-7.0216,-0.6313,-0.9079,0.4093,0.5813,-0.0612,-0.0954,0.0043,3673,2019-08-07 16:27:54:741
8.2896,-7.0216,-0.6313,-0.9079,0.4093,0.5813,-0.0612,-0.0954,0.0043,3677,2019-08-07 16:27:54:745
7.9308,-6.7591,-0.6643,-0.9079,0.4093,0.5813,-0.0463,0.0463,-0.001,3683,2019-08-07 16:27:54:751
7.9308,-6.7591,-0.6643,-0.9079,0.4093,0.5813,-0.0463,0.0463,-0.001,3687,2019-08-07 16:27:54:755
7.4954,-6.6875,-0.2683,-0.2664,0.1188,0.1801,-0.0463,0.123,0.0096,3693,2019-08-07 16:27:54:761
7.4954,-6.6875,-0.2683,-0.2664,0.1188,0.1801,-0.0463,0.123,0.0096,3698,2019-08-07 16:27:54:766
7.4954,-6.6875,-0.2683,-0.2664,0.1188,0.1801,-0.0484,0.1155,0.0064,3702,2019-08-07 16:27:54:770
7.041,-6.6111,-0.1363,-0.2664,0.1188,0.1801,-0.0484,0.1155,0.0064,3708,2019-08-07 16:27:54:776
7.041,-6.6111,-0.1363,0.4647,0.0268,-0.1836,-0.0857,0.0356,-0.0021,3713,2019-08-07 16:27:54:781
6.8352,-6.7209,0.3869,0.4647,0.0268,-0.1836,-0.0857,0.0356,-0.0021,3718,2019-08-07 16:27:54:786
6.8352,-6.7209,0.3869,0.4647,0.0268,-0.1836,-0.0559,-0.0283,0.0203,3722,2019-08-07 16:27:54:790
6.8352,-6.7209,0.3869,0.4647,0.0268,-0.1836,-0.0559,-0.0283,0.0203,3728,2019-08-07 16:27:54:796
7.2993,-6.888,0.0711,-0.0023,0.3342,-0.2629,-0.009,-0.0752,0.0192,3733,2019-08-07 16:27:54:801
7.2993,-6.888,0.0711,-0.0023,0.3342,-0.2629,-0.009,-0.0752,0.0192,3738,2019-08-07 16:27:54:806
7.4955,-6.4488,-0.4521,-0.0023,0.3342,-0.2629,-0.0655,-0.1125,-0.0074,3742,2019-08-07 16:27:54:810
7.4955,-6.4488,-0.4521,-0.0023,0.3342,-0.2629,-0.0655,-0.1125,-0.0074,3748,2019-08-07 16:27:54:816
7.4955,-6.4488,-0.4521,-0.2797,-0.2474,0.2963,-0.1667,-0.1625,-0.0117,3753,2019-08-07 16:27:54:821
7.6342,-6.4727,-0.537,-0.2797,-0.2474,0.2963,-0.1667,-0.1625,-0.0117,3757,2019-08-07 16:27:54:825
7.6342,-6.4727,-0.537,-0.2797,-0.2474,0.2963,-0.1837,-0.1242,-0.0138,3763,2019-08-07 16:27:54:831
7.8687,-6.9453,-0.4757,-0.2797,-0.2474,0.2963,-0.1837,-0.1242,-0.0138,3768,2019-08-07 16:27:54:836
7.8687,-6.9453,-0.4757,-0.5938,0.4626,0.2468,-0.1837,-0.1242,-0.0138,3772,2019-08-07 16:27:54:840
7.8687,-6.9453,-0.4757,-0.5938,0.4626,0.2468,-0.1613,-0.0613,-0.0287,3778,2019-08-07 16:27:54:846
7.7347,-7.1171,-0.5134,-0.5938,0.4626,0.2468,-0.1613,-0.0613,-0.0287,3783,2019-08-07 16:27:54:851
7.7347,-7.1171,-0.5134,-0.5938,0.4626,0.2468,-0.0783,0.0346,-0.0415,3788,2019-08-07 16:27:54:856
7.7347,-7.1171,-0.5134,-0.2117,0.5254,0.1293,-0.0783,0.0346,-0.0415,3792,2019-08-07 16:27:54:860
7.4668,-7.0121,-0.4615,-0.2117,0.5254,0.1293,-0.0069,0.075,-0.0149,3798,2019-08-07 16:27:54:866
7.4668,-7.0121,-0.4615,-0.2117,0.5254,0.1293,-0.0069,0.075,-0.0149,3803,2019-08-07 16:27:54:871
7.3137,-6.9214,-0.5558,-0.2117,0.5254,0.1293,-0.0026,0.0686,0.0086,3809,2019-08-07 16:27:54:877
7.3137,-6.9214,-0.5558,0.0283,0.311,0.1382,-0.0026,0.0686,0.0086,3813,2019-08-07 16:27:54:881
7.3137,-6.9214,-0.5558,0.0283,0.311,0.1382,-0.0026,0.0686,0.0086,3818,2019-08-07 16:27:54:886
7.1798,-6.8355,-0.2306,0.0283,0.311,0.1382,-0.0186,0.0058,0.0224,3823,2019-08-07 16:27:54:891
7.1798,-6.8355,-0.2306,0.0283,0.311,0.1382,-0.0186,0.0058,0.0224,3828,2019-08-07 16:27:54:896
7.2468,-6.8164,-0.2918,0.0539,0.2696,0.0165,-0.041,-0.0762,0.0107,3832,2019-08-07 16:27:54:900
7.2468,-6.8164,-0.2918,0.0539,0.2696,0.0165,-0.041,-0.0762,0.0107,3838,2019-08-07 16:27:54:906
7.2611,-6.7925,-0.2918,0.0539,0.2696,0.0165,-0.0751,-0.1082,0.0096,3844,2019-08-07 16:27:54:912
7.2611,-6.7925,-0.2918,0.0539,0.2696,0.0165,-0.0751,-0.1082,0.0096,3848,2019-08-07 16:27:54:916
7.2611,-6.7925,-0.2918,-0.0682,0.3634,-0.0313,-0.0751,-0.1082,0.0096,3852,2019-08-07 16:27:54:920
7.4573,-7.0455,-0.24,-0.0682,0.3634,-0.0313,-0.0697,-0.1018,0.0192,3858,2019-08-07 16:27:54:926
7.4573,-7.0455,-0.24,-0.0682,0.3634,-0.0313,-0.0697,-0.1018,0.0192,3863,2019-08-07 16:27:54:931
7.4573,-7.0455,-0.24,-0.0682,0.3634,-0.0313,-0.0367,-0.0773,0.0171,3867,2019-08-07 16:27:54:935
7.4095,-7.0026,-0.4615,-0.1628,0.4461,0.1427,-0.0367,-0.0773,0.0171,3873,2019-08-07 16:27:54:941
7.4095,-7.0026,-0.4615,-0.1628,0.4461,0.1427,0.0038,-0.023,0.0277,3878,2019-08-07 16:27:54:946
7.376,-6.8641,-0.5747,-0.1628,0.4461,0.1427,0.0038,-0.023,0.0277,3882,2019-08-07 16:27:54:950
7.376,-6.8641,-0.5747,-0.1628,0.4461,0.1427,0.0102,0.0218,0.0448,3888,2019-08-07 16:27:54:956
7.376,-6.8641,-0.5747,-0.1968,0.2254,0.2372,0.0102,0.0218,0.0448,3893,2019-08-07 16:27:54:961
7.486,-6.7543,-0.4615,-0.1968,0.2254,0.2372,-0.0154,0.0473,0.048,3898,2019-08-07 16:27:54:966
7.486,-6.7543,-0.4615,-0.1968,0.2254,0.2372,-0.0154,0.0473,0.048,3903,2019-08-07 16:27:54:971
7.2851,-6.8164,-0.4097,-0.1968,0.2254,0.2372,-0.025,0.0612,0.0405,3908,2019-08-07 16:27:54:976
7.2851,-6.8164,-0.4097,0.0891,0.2807,0.0304,-0.025,0.0612,0.0405,3913,2019-08-07 16:27:54:981
7.2851,-6.8164,-0.4097,0.0891,0.2807,0.0304,-0.0442,0.0537,0.0384,3918,2019-08-07 16:27:54:986
7.0937,-6.9119,-0.3578,0.0891,0.2807,0.0304,-0.0442,0.0537,0.0384,3923,2019-08-07 16:27:54:991
7.0937,-6.9119,-0.3578,0.2106,0.3824,0.041,-0.0793,0.0196,0.0256,3928,2019-08-07 16:27:54:996
7.022,-6.8355,-0.4002,0.2106,0.3824,0.041,-0.0793,0.0196,0.0256,3933,2019-08-07 16:27:55:001
7.022,-6.8355,-0.4002,0.2106,0.3824,0.041,-0.0793,0.0196,0.0256,3937,2019-08-07 16:27:55:005
7.022,-6.8355,-0.4002,0.0536,0.3214,-0.0653,-0.1273,-0.0176,0.0118,3943,2019-08-07 16:27:55:011
7.1847,-6.8785,-0.2494,0.0536,0.3214,-0.0653,-0.1273,-0.0176,0.0118,3948,2019-08-07 16:27:55:016
7.1847,-6.8785,-0.2494,0.0536,0.3214,-0.0653,-0.0751,0.0058,-0.0117,3954,2019-08-07 16:27:55:022
7.2899,-6.8975,-0.1881,0.0536,0.3214,-0.0653,-0.0751,0.0058,-0.0117,3959,2019-08-07 16:27:55:027
7.2899,-6.8975,-0.1881,-0.0946,0.3076,0.001,-0.0101,0.0665,-0.001,3964,2019-08-07 16:27:55:032
7.2899,-6.8975,-0.1881,-0.0946,0.3076,0.001,-0.0101,0.0665,-0.001,3967,2019-08-07 16:27:55:035
7.644,-6.7734,-0.4097,-0.0946,0.3076,0.001,-0.0101,0.0665,-0.001,3973,2019-08-07 16:27:55:041
7.644,-6.7734,-0.4097,-0.0946,0.3076,0.001,0.0027,0.0697,0.0075,3978,2019-08-07 16:27:55:046
7.6296,-6.5825,-0.6689,-0.353,0.0112,0.3453,0.0027,0.0697,0.0075,3983,2019-08-07 16:27:55:051
7.6296,-6.5825,-0.6689,-0.353,0.0112,0.3453,6.0E-4,0.0846,0.0171,3988,2019-08-07 16:27:55:056
7.6296,-6.5825,-0.6689,-0.353,0.0112,0.3453,6.0E-4,0.0846,0.0171,3993,2019-08-07 16:27:55:061
7.4191,-6.5204,-0.6454,-0.353,0.0112,0.3453,-0.0165,0.0686,0.0405,3998,2019-08-07 16:27:55:066
7.4191,-6.5204,-0.6454,-0.353,0.0112,0.3453,-0.0165,0.0686,0.0405,4002,2019-08-07 16:27:55:070
7.4191,-6.5204,-0.6454,-0.1362,0.2029,0.2401,-0.0335,0.042,0.0437,4008,2019-08-07 16:27:55:076
7.3713,-6.8212,-0.5134,-0.1362,0.2029,0.2401,-0.0335,0.042,0.0437,4014,2019-08-07 16:27:55:082
7.3713,-6.8212,-0.5134,-0.1362,0.2029,0.2401,-0.025,0.0047,0.032,4018,2019-08-07 16:27:55:086
6.9503,-6.9405,-0.3012,-0.1362,0.2029,0.2401,-0.025,0.0047,0.032,4023,2019-08-07 16:27:55:091
6.9503,-6.9405,-0.3012,0.3316,0.3827,-0.0487,0.0134,-0.0176,0.0277,4028,2019-08-07 16:27:55:096
6.9503,-6.9405,-0.3012,0.3316,0.3827,-0.0487,0.0134,-0.0176,0.0277,4033,2019-08-07 16:27:55:101
7.0077,-6.9644,-0.2117,0.3316,0.3827,-0.0487,0.0506,-0.0262,0.0118,4037,2019-08-07 16:27:55:105
7.0077,-6.9644,-0.2117,0.3316,0.3827,-0.0487,0.0506,-0.0262,0.0118,4043,2019-08-07 16:27:55:111
7.1178,-6.993,-0.1457,0.1462,0.4072,-0.169,0.0741,-0.0304,-0.0181,4048,2019-08-07 16:27:55:116
7.1178,-6.993,-0.1457,0.1462,0.4072,-0.169,0.0741,-0.0304,-0.0181,4053,2019-08-07 16:27:55:121
7.1608,-6.6971,-0.4191,0.1462,0.4072,-0.169,0.0442,-0.0869,-0.0362,4058,2019-08-07 16:27:55:126
7.1608,-6.6971,-0.4191,0.1462,0.4072,-0.169,0.0442,-0.0869,-0.0362,4063,2019-08-07 16:27:55:131
7.1608,-6.6971,-0.4191,-0.1424,0.1197,-0.0035,0.024,-0.04,-0.0692,4068,2019-08-07 16:27:55:136
7.4479,-6.6827,-0.2164,-0.1424,0.1197,-0.0035,0.024,-0.04,-0.0692,4073,2019-08-07 16:27:55:141
7.4479,-6.6827,-0.2164,-0.1424,0.1197,-0.0035,0.024,-0.04,-0.0692,4078,2019-08-07 16:27:55:146
7.4431,-6.6111,-0.4096,-0.1424,0.1197,-0.0035,0.0038,-0.0294,-0.082,4083,2019-08-07 16:27:55:151
7.4431,-6.6111,-0.4096,-0.1945,0.069,0.0117,0.0038,-0.0294,-0.082,4088,2019-08-07 16:27:55:156
7.4431,-6.6111,-0.4096,-0.1945,0.069,0.0117,0.0027,-0.023,-0.0639,4093,2019-08-07 16:27:55:161
7.5149,-6.6923,-0.2871,-0.1945,0.069,0.0117,0.0027,-0.023,-0.0639,4097,2019-08-07 16:27:55:165
7.5149,-6.6923,-0.2871,-0.1945,0.069,0.0117,0.0197,-0.0528,-0.0404,4103,2019-08-07 16:27:55:171
7.4623,-6.7305,-0.3342,-0.2109,0.1921,0.0223,0.0197,-0.0528,-0.0404,4107,2019-08-07 16:27:55:175
7.4623,-6.7305,-0.3342,-0.2109,0.1921,0.0223,0.0219,-0.0805,-0.0277,4114,2019-08-07 16:27:55:182
7.4623,-6.7305,-0.3342,-0.2109,0.1921,0.0223,0.0219,-0.0805,-0.0277,4118,2019-08-07 16:27:55:186
7.797,-6.8068,-0.2588,-0.2109,0.1921,0.0223,0.0219,-0.0805,-0.0277,4123,2019-08-07 16:27:55:191
7.797,-6.8068,-0.2588,-0.0921,0.2443,-0.1584,0.0677,-0.0645,-0.0394,4128,2019-08-07 16:27:55:196
7.3043,-6.7925,-0.3154,-0.0921,0.2443,-0.1584,0.0677,-0.0645,-0.0394,4133,2019-08-07 16:27:55:201
7.3043,-6.7925,-0.3154,-0.0921,0.2443,-0.1584,0.1604,0.0101,0.0032,4138,2019-08-07 16:27:55:206
7.3043,-6.7925,-0.3154,-0.0921,0.2443,-0.1584,0.1604,0.0101,0.0032,4143,2019-08-07 16:27:55:211
7.6392,-6.8259,-0.5369,-0.3501,0.2677,0.2284,0.1678,0.0516,0.0224,4148,2019-08-07 16:27:55:216
7.6392,-6.8259,-0.5369,-0.3501,0.2677,0.2284,0.1678,0.0516,0.0224,4153,2019-08-07 16:27:55:221
7.6392,-6.8259,-0.5369,-0.3501,0.2677,0.2284,0.1188,0.0942,0.0128,4158,2019-08-07 16:27:55:226
7.5196,-6.5252,-0.4379,-0.3501,0.2677,0.2284,0.1188,0.0942,0.0128,4163,2019-08-07 16:27:55:231
7.5196,-6.5252,-0.4379,-0.0549,-0.1314,0.1013,0.073,0.1155,0.0267,4167,2019-08-07 16:27:55:235
7.2947,-6.487,-0.2447,-0.0549,-0.1314,0.1013,0.073,0.1155,0.0267,4173,2019-08-07 16:27:55:241
7.2947,-6.487,-0.2447,-0.0549,-0.1314,0.1013,0.0112,0.0889,0.032,4178,2019-08-07 16:27:55:246
7.2947,-6.487,-0.2447,-0.0549,-0.1314,0.1013,0.0112,0.0889,0.032,4182,2019-08-07 16:27:55:250
7.4574,-6.783,-0.141,-0.1726,0.2276,-0.1652,-0.042,0.026,-0.0085,4188,2019-08-07 16:27:55:256
7.4574,-6.783,-0.141,-0.1726,0.2276,-0.1652,-0.042,0.026,-0.0085,4192,2019-08-07 16:27:55:260
7.2086,-6.7114,-0.1315,-0.1726,0.2276,-0.1652,-0.0442,0.0069,-0.0394,4199,2019-08-07 16:27:55:267
7.2086,-6.7114,-0.1315,-0.1726,0.2276,-0.1652,-0.0442,0.0069,-0.0394,4202,2019-08-07 16:27:55:270
7.2517,-6.678,-0.1928,0.0367,0.1172,-0.0745,-0.0282,-0.0017,-0.0213,4208,2019-08-07 16:27:55:276
7.2517,-6.678,-0.1928,0.0367,0.1172,-0.0745,-0.0282,-0.0017,-0.0213,4213,2019-08-07 16:27:55:281
7.2517,-6.678,-0.1928,0.0367,0.1172,-0.0745,-0.0282,-0.0017,-0.0213,4218,2019-08-07 16:27:55:286
7.333,-6.8021,-0.3672,0.0367,0.1172,-0.0745,-0.0293,-0.0283,0.0096,4223,2019-08-07 16:27:55:291
7.333,-6.8021,-0.3672,-0.0929,0.2889,0.1585,-0.0293,-0.0283,0.0096,4228,2019-08-07 16:27:55:296
7.333,-6.8021,-0.3672,-0.0929,0.2889,0.1585,-0.0101,-0.0059,0.0064,4233,2019-08-07 16:27:55:301
7.4144,-6.8498,-0.5181,-0.0929,0.2889,0.1585,-0.0101,-0.0059,0.0064,4237,2019-08-07 16:27:55:305
7.4144,-6.8498,-0.5181,-0.0929,0.2889,0.1585,6.0E-4,-0.0049,0.0139,4244,2019-08-07 16:27:55:312
7.4622,-6.9023,-0.6453,-0.1759,0.3397,0.3682,6.0E-4,-0.0049,0.0139,4248,2019-08-07 16:27:55:316
7.4622,-6.9023,-0.6453,-0.1759,0.3397,0.3682,-0.0048,-0.0081,0.0086,4252,2019-08-07 16:27:55:320