ACCELEROMETER X (m/s²),ACCELEROMETER Y (m/s²),ACCELEROMETER Z (m/s²),LINEAR ACCELERATION X (m/s²),LINEAR ACCELERATION Y (m/s²),LINEAR ACCELERATION Z (m/s²),GYROSCOPE X (rad/s),GYROSCOPE Y (rad/s),GYROSCOPE Z (rad/s),Time since start in ms ,YYYY-MO-DD HH-MI-SS_SSS
8.5582,-5.1504,-0.848,-0.1949,0.0863,-0.0079,0.0176,0.0058,-0.0053,2,2019-08-07 16:29:41:638
8.5438,-5.1695,-0.8715,-0.1896,0.1056,-0.0228,0.0197,-0.0176,-0.0074,8,2019-08-07 16:29:41:644
8.5438,-5.1695,-0.8715,-0.1896,0.1056,-0.0228,0.0197,-0.0176,-0.0074,13,2019-08-07 16:29:41:649
8.5438,-5.1695,-0.8715,-0.1896,0.1056,-0.0228,0.0229,-0.0272,-0.0191,17,2019-08-07 16:29:41:653
8.5869,-5.1647,-0.914,-0.1896,0.1056,-0.0228,0.0229,-0.0272,-0.0191,23,2019-08-07 16:29:41:659
8.5869,-5.1647,-0.914,-0.279,0.1179,0.0839,0.0251,-0.0166,-0.0287,28,2019-08-07 16:29:41:664
8.5869,-5.1647,-0.914,-0.279,0.1179,0.0839,0.0251,-0.0166,-0.0287,33,2019-08-07 16:29:41:669
8.6539,-5.1695,-0.9894,-0.279,0.1179,0.0839,0.0293,0.0186,-0.0309,38,2019-08-07 16:29:41:674
8.6539,-5.1695,-0.9894,-0.279,0.1179,0.0839,0.0293,0.0186,-0.0309,43,2019-08-07 16:29:41:679
8.6539,-5.1695,-0.9894,-0.279,0.1179,0.0839,0.0293,0.0186,-0.0309,48,2019-08-07 16:29:41:684
8.6156,-5.1838,-0.9611,-0.2086,0.1561,0.0704,0.0347,0.0473,-0.0319,53,2019-08-07 16:29:41:689
8.6156,-5.1838,-0.9611,-0.2086,0.1561,0.0704,0.0347,0.0473,-0.0319,57,2019-08-07 16:29:41:693
8.4817,-5.1695,-0.8809,-0.2086,0.1561,0.0704,0.0389,0.0708,-0.034,63,2019-08-07 16:29:41:699
8.4817,-5.1695,-0.8809,-0.0655,0.0796,0.0096,0.0389,0.0708,-0.034,68,2019-08-07 16:29:41:704
8.4817,-5.1695,-0.8809,-0.0655,0.0796,0.0096,0.0357,0.0516,-0.0383,73,2019-08-07 16:29:41:709
8.386,-5.1695,-0.8621,-0.0655,0.0796,0.0096,0.0357,0.0516,-0.0383,77,2019-08-07 16:29:41:713
8.386,-5.1695,-0.8621,-0.0655,0.0796,0.0096,0.0357,0.0516,-0.0383,83,2019-08-07 16:29:41:719
8.4099,-5.1265,-0.9281,-0.0421,0.0801,0.0621,0.0357,0.0175,-0.0404,88,2019-08-07 16:29:41:724
8.4099,-5.1265,-0.9281,-0.0421,0.0801,0.0621,0.0357,0.0175,-0.0404,93,2019-08-07 16:29:41:729
8.4099,-5.1265,-0.9281,-0.0421,0.0801,0.0621,0.0293,-0.0155,-0.0468,98,2019-08-07 16:29:41:734
8.4865,-5.117,-0.9517,-0.1165,0.074,0.086,0.0293,-0.0155,-0.0468,102,2019-08-07 16:29:41:738
8.4865,-5.117,-0.9517,-0.1165,0.074,0.086,0.0197,-0.0368,-0.0479,108,2019-08-07 16:29:41:744
8.4865,-5.117,-0.9517,-0.1165,0.074,0.086,0.0197,-0.0368,-0.0479,113,2019-08-07 16:29:41:749
8.5295,-5.1265,-1.0082,-0.1165,0.074,0.086,0.0144,-0.0421,-0.0447,118,2019-08-07 16:29:41:754
8.5295,-5.1265,-1.0082,-0.1554,0.1058,0.1043,0.0144,-0.0421,-0.0447,123,2019-08-07 16:29:41:759
8.5295,-5.1265,-1.0082,-0.1554,0.1058,0.1043,0.0251,-0.0485,-0.0394,128,2019-08-07 16:29:41:764
8.5582,-5.1695,-1.0695,-0.1554,0.1058,0.1043,0.0251,-0.0485,-0.0394,133,2019-08-07 16:29:41:769
8.5582,-5.1695,-1.0695,-0.1554,0.1058,0.1043,0.0293,-0.0496,-0.0394,138,2019-08-07 16:29:41:774
8.5726,-5.1456,-0.9846,-0.1617,0.1363,0.1401,0.0293,-0.0496,-0.0394,143,2019-08-07 16:29:41:779
8.5726,-5.1456,-0.9846,-0.1617,0.1363,0.1401,0.0272,-0.04,-0.0309,148,2019-08-07 16:29:41:784
8.5726,-5.1456,-0.9846,-0.1617,0.1363,0.1401,0.0272,-0.04,-0.0309,153,2019-08-07 16:29:41:789
8.5822,-5.179,-0.9611,-0.1617,0.1363,0.1401,0.0272,-0.04,-0.0309,158,2019-08-07 16:29:41:794
8.5822,-5.179,-0.9611,-0.2262,0.1698,0.0886,0.0272,-0.0283,-0.0287,163,2019-08-07 16:29:41:799
8.6061,-5.2268,-1.0129,-0.2262,0.1698,0.0886,0.0272,-0.0283,-0.0287,167,2019-08-07 16:29:41:803
8.6061,-5.2268,-1.0129,-0.2262,0.1698,0.0886,0.0219,-0.0176,-0.0362,173,2019-08-07 16:29:41:809
8.6061,-5.2268,-1.0129,-0.2262,0.1698,0.0886,0.0219,-0.0176,-0.0362,177,2019-08-07 16:29:41:813
8.5104,-5.2888,-0.9752,-0.1276,0.2703,0.0921,0.0166,5.0E-4,-0.0447,183,2019-08-07 16:29:41:819
8.5104,-5.2888,-0.9752,-0.1276,0.2703,0.0921,0.0166,5.0E-4,-0.0447,188,2019-08-07 16:29:41:824
8.4243,-5.3461,-0.8904,-0.1276,0.2703,0.0921,0.0197,-0.0027,-0.0426,193,2019-08-07 16:29:41:829
8.4243,-5.3461,-0.8904,-0.1276,0.2703,0.0921,0.0197,-0.0027,-0.0426,198,2019-08-07 16:29:41:834
8.4243,-5.3461,-0.8904,-0.0475,0.295,0.0051,0.0272,-0.0134,-0.0458,203,2019-08-07 16:29:41:839
8.5057,-5.3175,-0.9139,-0.0475,0.295,0.0051,0.0272,-0.0134,-0.0458,208,2019-08-07 16:29:41:844
8.5057,-5.3175,-0.9139,-0.0475,0.295,0.0051,0.0272,-0.0134,-0.0458,213,2019-08-07 16:29:41:849
8.5918,-5.2077,-0.8762,-0.0475,0.295,0.0051,0.0325,-0.0326,-0.0426,218,2019-08-07 16:29:41:854
8.5918,-5.2077,-0.8762,-0.2261,0.2003,0.0132,0.0325,-0.0326,-0.0426,223,2019-08-07 16:29:41:859
8.5918,-5.2077,-0.8762,-0.2261,0.2003,0.0132,0.0379,-0.0571,-0.0308,228,2019-08-07 16:29:41:864
8.7401,-5.2459,-0.8856,-0.3495,0.2407,0.0011,0.0379,-0.0571,-0.0308,233,2019-08-07 16:29:41:869
8.7401,-5.2459,-0.8856,-0.3495,0.2407,0.0011,0.0389,-0.0677,-0.017,238,2019-08-07 16:29:41:874
8.7401,-5.2459,-0.8856,-0.3495,0.2407,0.0011,0.0389,-0.0677,-0.017,243,2019-08-07 16:29:41:879
8.8884,-5.2363,-1.0223,-0.3495,0.2407,0.0011,0.0411,-0.0603,0.0011,248,2019-08-07 16:29:41:884
8.8884,-5.2363,-1.0223,-0.469,0.2374,0.1541,0.0411,-0.0603,0.0011,253,2019-08-07 16:29:41:889
8.8884,-5.2363,-1.0223,-0.469,0.2374,0.1541,0.0411,-0.0603,0.0011,258,2019-08-07 16:29:41:894
8.8406,-5.265,-0.9941,-0.469,0.2374,0.1541,0.0517,-0.04,0.0267,263,2019-08-07 16:29:41:899
8.8406,-5.265,-0.9941,-0.469,0.2374,0.1541,0.0517,-0.04,0.0267,268,2019-08-07 16:29:41:904
8.8071,-5.2936,-1.0223,-0.42,0.284,0.13,0.0666,-0.0102,0.0469,273,2019-08-07 16:29:41:909
8.8071,-5.2936,-1.0223,-0.42,0.284,0.13,0.0666,-0.0102,0.0469,278,2019-08-07 16:29:41:914
8.8071,-5.2936,-1.0223,-0.42,0.284,0.13,0.0719,0.0218,0.0565,282,2019-08-07 16:29:41:918
8.5775,-5.3222,-0.8338,-0.42,0.284,0.13,0.0719,0.0218,0.0565,288,2019-08-07 16:29:41:924
8.5775,-5.3222,-0.8338,-0.0621,0.301,-0.0657,0.0837,0.0356,0.0586,292,2019-08-07 16:29:41:928
8.4196,-5.3652,-0.7819,-0.0621,0.301,-0.0657,0.0837,0.0356,0.0586,298,2019-08-07 16:29:41:934
8.4196,-5.3652,-0.7819,-0.0621,0.301,-0.0657,0.0879,0.0356,0.0522,303,2019-08-07 16:29:41:939
8.4196,-5.3652,-0.7819,-0.0621,0.301,-0.0657,0.0879,0.0356,0.0522,308,2019-08-07 16:29:41:944
8.2617,-5.2506,-0.7772,0.071,0.2604,-0.1354,0.0858,0.0196,0.0427,314,2019-08-07 16:29:41:950
8.2617,-5.2506,-0.7772,0.071,0.2604,-0.1354,0.0858,0.0196,0.0427,317,2019-08-07 16:29:41:953
8.3096,-5.2697,-0.7442,0.071,0.2604,-0.1354,0.0879,-0.0102,0.0352,323,2019-08-07 16:29:41:959
8.3096,-5.2697,-0.7442,0.071,0.2604,-0.1354,0.0879,-0.0102,0.0352,328,2019-08-07 16:29:41:964
8.3096,-5.2697,-0.7442,0.0376,0.2369,-0.0476,0.0911,-0.0326,0.0256,333,2019-08-07 16:29:41:969
8.4579,-5.2936,-0.8291,0.0376,0.2369,-0.0476,0.0911,-0.0326,0.0256,338,2019-08-07 16:29:41:974
8.4579,-5.2936,-0.8291,0.0376,0.2369,-0.0476,0.106,-0.0453,0.0075,343,2019-08-07 16:29:41:979
8.5536,-5.2745,-0.9375,0.0376,0.2369,-0.0476,0.106,-0.0453,0.0075,348,2019-08-07 16:29:41:984
8.5536,-5.2745,-0.9375,-0.2279,0.1944,0.0878,0.1071,-0.0358,-0.001,353,2019-08-07 16:29:41:989
8.5536,-5.2745,-0.9375,-0.2279,0.1944,0.0878,0.1071,-0.0358,-0.001,358,2019-08-07 16:29:41:994
8.6206,-5.1647,-0.9233,-0.2279,0.1944,0.0878,0.1071,-0.0358,-0.001,362,2019-08-07 16:29:41:998
8.6206,-5.1647,-0.9233,-0.2378,0.117,0.0811,0.1135,-0.0283,0.0043,368,2019-08-07 16:29:42:004
8.6684,-5.1456,-0.9563,-0.2378,0.117,0.0811,0.1135,-0.0283,0.0043,373,2019-08-07 16:29:42:009
8.6684,-5.1456,-0.9563,-0.2378,0.117,0.0811,0.1167,-0.0219,0.0032,378,2019-08-07 16:29:42:014
8.6684,-5.1456,-0.9563,-0.3148,0.0099,0.1028,0.1167,-0.0219,0.0032,383,2019-08-07 16:29:42:019
8.6397,-5.0454,-0.928,-0.3148,0.0099,0.1028,0.1209,-0.0102,0.0064,388,2019-08-07 16:29:42:024
8.6397,-5.0454,-0.928,-0.3148,0.0099,0.1028,0.1209,-0.0102,0.0064,393,2019-08-07 16:29:42:029
8.5871,-5.0454,-0.9658,-0.3148,0.0099,0.1028,0.122,-0.0102,0.0118,398,2019-08-07 16:29:42:034
8.5871,-5.0454,-0.9658,-0.1816,0.0452,0.1035,0.122,-0.0102,0.0118,403,2019-08-07 16:29:42:039
8.5871,-5.0454,-0.9658,-0.1816,0.0452,0.1035,0.1178,-0.0081,0.0075,408,2019-08-07 16:29:42:044
8.5154,-5.1313,-0.8668,-0.1816,0.0452,0.1035,0.1178,-0.0081,0.0075,415,2019-08-07 16:29:42:051
8.5154,-5.1313,-0.8668,-0.1816,0.0452,0.1035,0.1135,-0.0272,-0.001,417,2019-08-07 16:29:42:053
8.4723,-5.1504,-0.8762,-0.1056,0.0954,0.0507,0.1135,-0.0272,-0.001,423,2019-08-07 16:29:42:059
8.4723,-5.1504,-0.8762,-0.1056,0.0954,0.0507,0.1135,-0.0294,-0.0063,427,2019-08-07 16:29:42:063
8.4723,-5.1504,-0.8762,-0.1056,0.0954,0.0507,0.1135,-0.0294,-0.0063,433,2019-08-07 16:29:42:069
8.4914,-5.1599,-0.9092,-0.1056,0.0954,0.0507,0.1199,-0.0453,-0.0191,438,2019-08-07 16:29:42:074
8.4914,-5.1599,-0.9092,-0.1056,0.0954,0.0507,0.1199,-0.0453,-0.0191,443,2019-08-07 16:29:42:079
8.5154,-5.1838,-0.8668,-0.1195,0.1288,0.1454,0.1167,-0.0507,-0.0266,448,2019-08-07 16:29:42:084
8.5154,-5.1838,-0.8668,-0.1195,0.1288,0.1454,0.1167,-0.0507,-0.0266,453,2019-08-07 16:29:42:089
8.5154,-5.1838,-0.8668,-0.1195,0.1288,0.1454,0.1167,-0.0507,-0.0266,457,2019-08-07 16:29:42:093
8.4819,-5.2125,-0.8856,-0.1195,0.1288,0.1454,0.1188,-0.0539,-0.0287,463,2019-08-07 16:29:42:099
8.4819,-5.2125,-0.8856,-0.1131,0.1597,0.0777,0.1188,-0.0539,-0.0287,468,2019-08-07 16:29:42:104
8.4819,-5.2125,-0.8856,-0.1131,0.1597,0.0777,0.1241,-0.056,-0.0351,472,2019-08-07 16:29:42:108
8.4675,-5.1886,-0.8998,-0.1131,0.1597,0.0777,0.1241,-0.056,-0.0351,478,2019-08-07 16:29:42:114
8.4675,-5.1886,-0.8998,-0.1131,0.1597,0.0777,0.1252,-0.056,-0.0426,482,2019-08-07 16:29:42:118
8.4675,-5.1886,-0.8998,-0.1388,-0.003,0.0666,0.1252,-0.056,-0.0426,488,2019-08-07 16:29:42:124
8.5154,-5.0597,-0.8998,-0.1388,-0.003,0.0666,0.1199,-0.0613,-0.0404,492,2019-08-07 16:29:42:128
8.5154,-5.0597,-0.8998,-0.1388,-0.003,0.0666,0.1199,-0.0613,-0.0404,498,2019-08-07 16:29:42:134
8.5728,-5.0549,-0.8762,-0.1388,-0.003,0.0666,0.1146,-0.0635,-0.0383,503,2019-08-07 16:29:42:139
8.5728,-5.0549,-0.8762,-0.2263,0.0598,0.0299,0.1146,-0.0635,-0.0383,508,2019-08-07 16:29:42:144
8.5728,-5.0549,-0.8762,-0.2263,0.0598,0.0299,0.1114,-0.0581,-0.0383,512,2019-08-07 16:29:42:148
8.6015,-5.0502,-0.862,-0.2263,0.0598,0.0299,0.1114,-0.0581,-0.0383,518,2019-08-07 16:29:42:154
8.6015,-5.0502,-0.862,-0.2263,0.0598,0.0299,0.1114,-0.0581,-0.0383,523,2019-08-07 16:29:42:159
8.5776,-5.117,-0.8715,-0.1944,0.0651,-0.0069,0.1146,-0.0592,-0.034,528,2019-08-07 16:29:42:164
8.5776,-5.117,-0.8715,-0.1944,0.0651,-0.0069,0.1146,-0.0592,-0.034,532,2019-08-07 16:29:42:168
8.5776,-5.117,-0.8715,-0.1944,0.0651,-0.0069,0.1178,-0.0762,-0.0298,538,2019-08-07 16:29:42:174
8.5346,-5.16,-0.8809,-0.1944,0.0651,-0.0069,0.1178,-0.0762,-0.0298,543,2019-08-07 16:29:42:179
8.5346,-5.16,-0.8809,-0.2066,0.1497,0.0448,0.1178,-0.0826,-0.0362,548,2019-08-07 16:29:42:184
8.5441,-5.2029,-0.8243,-0.2066,0.1497,0.0448,0.1178,-0.0826,-0.0362,553,2019-08-07 16:29:42:189
8.5441,-5.2029,-0.8243,-0.2066,0.1497,0.0448,0.1209,-0.0816,-0.0404,558,2019-08-07 16:29:42:194
8.5441,-5.2029,-0.8243,-0.2066,0.1497,0.0448,0.1209,-0.0816,-0.0404,563,2019-08-07 16:29:42:199
8.5394,-5.1695,-0.796,-0.1851,0.1492,-0.0697,0.1209,-0.0816,-0.0404,567,2019-08-07 16:29:42:203
8.5394,-5.1695,-0.796,-0.1851,0.1492,-0.0697,0.122,-0.0656,-0.0394,573,2019-08-07 16:29:42:209
8.6351,-5.1886,-0.763,-0.1851,0.1492,-0.0697,0.122,-0.0656,-0.0394,578,2019-08-07 16:29:42:214
8.6351,-5.1886,-0.763,-0.1851,0.1492,-0.0697,0.1178,-0.0464,-0.0447,583,2019-08-07 16:29:42:219
8.6351,-5.1886,-0.763,-0.1963,0.1254,-0.048,0.1178,-0.0464,-0.0447,587,2019-08-07 16:29:42:223
8.5442,-5.1409,-0.7725,-0.1963,0.1254,-0.048,0.1146,-0.0294,-0.0436,593,2019-08-07 16:29:42:229
8.5442,-5.1409,-0.7725,-0.1963,0.1254,-0.048,0.1146,-0.0294,-0.0436,598,2019-08-07 16:29:42:234
8.5681,-5.1027,-0.763,-0.1963,0.1254,-0.048,0.1028,-0.0421,-0.0308,603,2019-08-07 16:29:42:239
8.5681,-5.1027,-0.763,-0.1879,0.0684,-0.056,0.1028,-0.0421,-0.0308,608,2019-08-07 16:29:42:244
8.5681,-5.1027,-0.763,-0.1879,0.0684,-0.056,0.0858,-0.0613,-0.0308,613,2019-08-07 16:29:42:249
8.6207,-5.1074,-0.7253,-0.1879,0.0684,-0.056,0.0858,-0.0613,-0.0308,618,2019-08-07 16:29:42:254
8.6207,-5.1074,-0.7253,-0.1879,0.0684,-0.056,0.0858,-0.0613,-0.0308,623,2019-08-07 16:29:42:259
8.7356,-5.1218,-0.8007,-0.3246,0.0768,-0.039,0.0783,-0.0816,-0.0181,628,2019-08-07 16:29:42:264
8.7356,-5.1218,-0.8007,-0.3246,0.0768,-0.039,0.0783,-0.0816,-0.0181,632,2019-08-07 16:29:42:268
8.7356,-5.1218,-0.8007,-0.3246,0.0768,-0.039,0.0751,-0.0816,-0.0074,638,2019-08-07 16:29:42:274
8.7451,-5.1218,-0.9186,-0.3246,0.0768,-0.039,0.0751,-0.0816,-0.0074,642,2019-08-07 16:29:42:278
8.7451,-5.1218,-0.9186,-0.3201,0.1489,0.0685,0.0805,-0.0645,0.0118,648,2019-08-07 16:29:42:284
8.7451,-5.1218,-0.9186,-0.3201,0.1489,0.0685,0.0805,-0.0645,0.0118,654,2019-08-07 16:29:42:290
8.6208,-5.2507,-0.9092,-0.3201,0.1489,0.0685,0.0805,-0.0645,0.0118,657,2019-08-07 16:29:42:293
8.6208,-5.2507,-0.9092,-0.3201,0.1489,0.0685,0.0911,-0.0571,0.0224,663,2019-08-07 16:29:42:299
8.5488,-5.2888,-0.8998,-0.1605,0.268,0.0854,0.0911,-0.0571,0.0224,668,2019-08-07 16:29:42:304
8.5488,-5.2888,-0.8998,-0.1605,0.268,0.0854,0.0996,-0.0656,0.0182,673,2019-08-07 16:29:42:309
8.5488,-5.2888,-0.8998,-0.1605,0.268,0.0854,0.0996,-0.0656,0.0182,678,2019-08-07 16:29:42:314
8.4675,-5.2411,-0.8102,-0.1605,0.268,0.0854,0.1018,-0.073,0.0182,683,2019-08-07 16:29:42:319
8.4675,-5.2411,-0.8102,-0.1353,0.224,-7.0E-4,0.1018,-0.073,0.0182,688,2019-08-07 16:29:42:324
8.5057,-5.2506,-0.8244,-0.1353,0.224,-7.0E-4,0.1082,-0.0677,0.0118,693,2019-08-07 16:29:42:329
8.5057,-5.2506,-0.8244,-0.1353,0.224,-7.0E-4,0.1082,-0.0677,0.0118,698,2019-08-07 16:29:42:334
8.5057,-5.2506,-0.8244,-0.1353,0.224,-7.0E-4,0.106,-0.0613,0.0075,703,2019-08-07 16:29:42:339
8.5966,-5.1981,-0.8385,-0.2097,0.1434,0.0038,0.106,-0.0613,0.0075,708,2019-08-07 16:29:42:344
8.5966,-5.1981,-0.8385,-0.2097,0.1434,0.0038,0.106,-0.0539,0.0118,715,2019-08-07 16:29:42:351
8.6062,-5.1599,-0.8715,-0.2097,0.1434,0.0038,0.106,-0.0539,0.0118,718,2019-08-07 16:29:42:354
8.6062,-5.1599,-0.8715,-0.2097,0.1434,0.0038,0.106,-0.0539,0.0118,723,2019-08-07 16:29:42:359
8.6062,-5.1599,-0.8715,-0.1928,0.144,-0.0506,0.1103,-0.0581,0.0182,728,2019-08-07 16:29:42:364
8.5966,-5.1886,-0.8243,-0.1928,0.144,-0.0506,0.1103,-0.0581,0.0182,732,2019-08-07 16:29:42:368
8.5966,-5.1886,-0.8243,-0.1928,0.144,-0.0506,0.1071,-0.0709,0.0309,738,2019-08-07 16:29:42:374
8.6732,-5.1838,-0.8668,-0.1928,0.144,-0.0506,0.1071,-0.0709,0.0309,743,2019-08-07 16:29:42:379
8.6732,-5.1838,-0.8668,-0.1928,0.144,-0.0506,0.1114,-0.0933,0.0437,748,2019-08-07 16:29:42:384
8.6732,-5.1838,-0.8668,-0.3314,0.1987,0.1032,0.1114,-0.0933,0.0437,753,2019-08-07 16:29:42:389
8.788,-5.265,-0.9375,-0.3314,0.1987,0.1032,0.1146,-0.0965,0.0554,758,2019-08-07 16:29:42:394
8.788,-5.265,-0.9375,-0.3314,0.1987,0.1032,0.1146,-0.0965,0.0554,763,2019-08-07 16:29:42:399
8.7163,-5.2697,-0.8526,-0.3481,0.2162,0.033,0.1252,-0.0901,0.0576,768,2019-08-07 16:29:42:404
8.7163,-5.2697,-0.8526,-0.3481,0.2162,0.033,0.1252,-0.0901,0.0576,773,2019-08-07 16:29:42:409
8.7163,-5.2697,-0.8526,-0.3481,0.2162,0.033,0.138,-0.0837,0.065,778,2019-08-07 16:29:42:414
8.6015,-5.2697,-0.8526,-0.3481,0.2162,0.033,0.138,-0.0837,0.065,782,2019-08-07 16:29:42:418
8.6015,-5.2697,-0.8526,-0.1889,0.1881,-0.0089,0.1486,-0.0741,0.0661,788,2019-08-07 16:29:42:424
8.5345,-5.2602,-0.7678,-0.1889,0.1881,-0.0089,0.1486,-0.0741,0.0661,793,2019-08-07 16:29:42:429
8.5345,-5.2602,-0.7678,-0.1889,0.1881,-0.0089,0.1465,-0.0741,0.0672,798,2019-08-07 16:29:42:434
8.5345,-5.2602,-0.7678,-0.1889,0.1881,-0.0089,0.1465,-0.0741,0.0672,803,2019-08-07 16:29:42:439
8.5058,-5.2316,-0.7159,-0.1889,0.1881,-0.0089,0.1444,-0.0645,0.0682,807,2019-08-07 16:29:42:443
8.5058,-5.2316,-0.7159,-0.1734,0.1211,-0.137,0.1444,-0.0645,0.0682,813,2019-08-07 16:29:42:449
8.5058,-5.2316,-0.7159,-0.1734,0.1211,-0.137,0.1348,-0.0539,0.0608,818,2019-08-07 16:29:42:454
8.5584,-5.1599,-0.6735,-0.1734,0.1211,-0.137,0.1348,-0.0539,0.0608,822,2019-08-07 16:29:42:458
8.5584,-5.1599,-0.6735,-0.1734,0.1211,-0.137,0.122,-0.0453,0.0618,828,2019-08-07 16:29:42:464
8.5441,-5.1599,-0.6971,-0.1994,0.066,-0.1126,0.122,-0.0453,0.0618,833,2019-08-07 16:29:42:469
8.5441,-5.1599,-0.6971,-0.1994,0.066,-0.1126,0.122,-0.0453,0.0618,838,2019-08-07 16:29:42:474
8.5441,-5.1599,-0.6971,-0.1994,0.066,-0.1126,0.1178,-0.04,0.064,843,2019-08-07 16:29:42:479
8.6254,-5.222,-0.6641,-0.1994,0.066,-0.1126,0.1178,-0.04,0.064,848,2019-08-07 16:29:42:484
8.6254,-5.222,-0.6641,-0.2685,0.092,-0.1016,0.122,-0.0421,0.0629,853,2019-08-07 16:29:42:489
8.5823,-5.2125,-0.7348,-0.2685,0.092,-0.1016,0.122,-0.0421,0.0629,858,2019-08-07 16:29:42:494
8.5823,-5.2125,-0.7348,-0.2685,0.092,-0.1016,0.1156,-0.0475,0.0704,863,2019-08-07 16:29:42:499
8.5823,-5.2125,-0.7348,-0.2685,0.092,-0.1016,0.1156,-0.0475,0.0704,867,2019-08-07 16:29:42:503
8.6302,-5.2268,-0.8008,-0.2999,0.1077,0.0021,0.1092,-0.0635,0.0693,873,2019-08-07 16:29:42:509
8.6302,-5.2268,-0.8008,-0.2999,0.1077,0.0021,0.1092,-0.0635,0.0693,878,2019-08-07 16:29:42:514
8.7737,-5.2125,-0.7819,-0.4474,0.0871,-0.017,0.1007,-0.0752,0.0714,882,2019-08-07 16:29:42:518
8.7737,-5.2125,-0.7819,-0.4474,0.0871,-0.017,0.1007,-0.0752,0.0714,888,2019-08-07 16:29:42:524
8.7737,-5.2125,-0.7819,-0.4474,0.0871,-0.017,0.106,-0.073,0.0789,892,2019-08-07 16:29:42:528
8.8216,-5.179,-0.7489,-0.4474,0.0871,-0.017,0.106,-0.073,0.0789,898,2019-08-07 16:29:42:534
8.8216,-5.179,-0.7489,-0.513,0.0071,-0.1029,0.1092,-0.0528,0.0906,902,2019-08-07 16:29:42:538
8.8503,-5.0979,-0.7961,-0.513,0.0071,-0.1029,0.1092,-0.0528,0.0906,908,2019-08-07 16:29:42:544
8.8503,-5.0979,-0.7961,-0.513,0.0071,-0.1029,0.1092,-0.024,0.097,913,2019-08-07 16:29:42:549
8.8503,-5.0979,-0.7961,-0.513,0.0071,-0.1029,0.1092,-0.024,0.097,918,2019-08-07 16:29:42:554
8.7737,-4.9165,-0.7206,-0.5172,-0.1993,-0.0261,0.0964,5.0E-4,0.1055,923,2019-08-07 16:29:42:559
8.7737,-4.9165,-0.7206,-0.5172,-0.1993,-0.0261,0.0964,5.0E-4,0.1055,929,2019-08-07 16:29:42:565
8.7737,-4.9165,-0.7206,-0.5172,-0.1993,-0.0261,0.0794,0.026,0.1119,933,2019-08-07 16:29:42:569
8.568,-4.8687,-0.5651,-0.5172,-0.1993,-0.0261,0.0794,0.026,0.1119,938,2019-08-07 16:29:42:574
8.568,-4.8687,-0.5651,-0.1774,-0.2643,-0.3193,0.0666,0.0346,0.1194,942,2019-08-07 16:29:42:578
8.4006,-4.864,-0.5274,-0.1774,-0.2643,-0.3193,0.0666,0.0346,0.1194,948,2019-08-07 16:29:42:584
8.4006,-4.864,-0.5274,-0.1774,-0.2643,-0.3193,0.0411,0.0303,0.1151,953,2019-08-07 16:29:42:589
8.4006,-4.864,-0.5274,-0.1774,-0.2643,-0.3193,0.0411,0.0303,0.1151,958,2019-08-07 16:29:42:594
8.3193,-4.7303,-0.4519,-0.0295,-0.4588,-0.3164,0.0048,0.0282,0.0991,963,2019-08-07 16:29:42:599
8.3193,-4.7303,-0.4519,-0.0295,-0.4588,-0.3164,0.0048,0.0282,0.0991,967,2019-08-07 16:29:42:603
8.3193,-4.7303,-0.4519,-0.0295,-0.4588,-0.3164,0.0048,0.0282,0.0991,973,2019-08-07 16:29:42:609
8.2284,-4.6301,-0.4001,-0.0295,-0.4588,-0.3164,-0.025,0.0079,0.0831,978,2019-08-07 16:29:42:614
8.2284,-4.6301,-0.4001,-0.0223,-0.6234,-0.2562,-0.025,0.0079,0.0831,982,2019-08-07 16:29:42:618
8.4054,-4.5155,-0.4425,-0.0223,-0.6234,-0.2562,-0.0751,0.01,0.048,988,2019-08-07 16:29:42:624
8.4054,-4.5155,-0.4425,-0.0223,-0.6234,-0.2562,-0.0751,0.01,0.048,992,2019-08-07 16:29:42:628
8.5872,-4.2529,-0.5556,-0.0223,-0.6234,-0.2562,-0.1134,0.0186,0.0139,998,2019-08-07 16:29:42:634
8.5872,-4.2529,-0.5556,-0.314,-0.9757,-0.2144,-0.1134,0.0186,0.0139,1002,2019-08-07 16:29:42:638
8.5872,-4.2529,-0.5556,-0.314,-0.9757,-0.2144,-0.156,0.0505,-0.0106,1008,2019-08-07 16:29:42:644
8.7068,-3.9856,-0.7348,-0.314,-0.9757,-0.2144,-0.156,0.0505,-0.0106,1013,2019-08-07 16:29:42:649
8.7068,-3.9856,-0.7348,-0.314,-0.9757,-0.2144,-0.1944,0.0995,-0.0394,1017,2019-08-07 16:29:42:653
8.7068,-3.9856,-0.7348,-0.4294,-1.4903,-0.0647,-0.1944,0.0995,-0.0394,1023,2019-08-07 16:29:42:659
8.7594,-3.5846,-0.7489,-0.4294,-1.4903,-0.0647,-0.2317,0.1528,-0.0681,1028,2019-08-07 16:29:42:664
8.7594,-3.5846,-0.7489,-0.4294,-1.4903,-0.0647,-0.2317,0.1528,-0.0681,1032,2019-08-07 16:29:42:668
8.7594,-3.5846,-0.7489,-0.4294,-1.4903,-0.0647,-0.2753,0.1869,-0.0948,1038,2019-08-07 16:29:42:674
8.6303,-2.9592,-0.8196,-0.2667,-2.3141,0.0446,-0.2753,0.1869,-0.0948,1042,2019-08-07 16:29:42:678
8.6303,-2.9592,-0.8196,-0.2667,-2.3141,0.0446,-0.3275,0.2295,-0.1427,1048,2019-08-07 16:29:42:684
8.3528,-2.4484,-0.895,-0.2667,-2.3141,0.0446,-0.3275,0.2295,-0.1427,1053,2019-08-07 16:29:42:689
8.3528,-2.4484,-0.895,-0.2667,-2.3141,0.0446,-0.4,0.2433,-0.2024,1058,2019-08-07 16:29:42:694
8.1327,-2.0856,-1.0694,0.21,-3.0168,0.2942,-0.4,0.2433,-0.2024,1065,2019-08-07 16:29:42:701
8.1327,-2.0856,-1.0694,0.21,-3.0168,0.2942,-0.4,0.2444,-0.2908,1068,2019-08-07 16:29:42:704
8.1327,-2.0856,-1.0694,0.21,-3.0168,0.2942,-0.5054,0.2444,-0.2908,1072,2019-08-07 16:29:42:708
7.8648,-1.7753,-1.0977,0.21,-3.0168,0.2942,-0.6333,0.2156,-0.4122,1078,2019-08-07 16:29:42:714
7.8648,-1.7753,-1.0977,0.8397,-3.4831,0.3474,-0.6333,0.2156,-0.4122,1083,2019-08-07 16:29:42:719
7.8648,-1.7753,-1.0977,0.8397,-3.4831,0.3474,-0.6333,0.2156,-0.4122,1087,2019-08-07 16:29:42:723
7.2955,-1.1643,-1.0977,0.8397,-3.4831,0.3474,-0.7941,0.1784,-0.6082,1093,2019-08-07 16:29:42:729
7.2955,-1.1643,-1.0977,0.8397,-3.4831,0.3474,-0.7941,0.1784,-0.6082,1098,2019-08-07 16:29:42:734
7.2955,-1.1643,-1.0977,1.6133,-4.2676,0.1939,-0.7941,0.1784,-0.6082,1103,2019-08-07 16:29:42:739
6.8266,-0.5246,-1.0789,1.6133,-4.2676,0.1939,-1.0104,0.042,-0.8436,1108,2019-08-07 16:29:42:744
6.8266,-0.5246,-1.0789,1.6133,-4.2676,0.1939,-1.0104,0.042,-0.8436,1113,2019-08-07 16:29:42:749
6.8266,-0.5246,-1.0789,1.6133,-4.2676,0.1939,-1.1744,-0.0709,-1.0141,1118,2019-08-07 16:29:42:754
6.6592,0.0435,-1.39,1.9514,-4.9381,0.4364,-1.1744,-0.0709,-1.0141,1123,2019-08-07 16:29:42:759
6.6592,0.0435,-1.39,1.9514,-4.9381,0.4364,-1.3395,-0.1849,-1.1941,1128,2019-08-07 16:29:42:764
6.7022,0.7071,-1.6068,1.9514,-4.9381,0.4364,-1.3395,-0.1849,-1.1941,1133,2019-08-07 16:29:42:769
6.7022,0.7071,-1.6068,1.9514,-4.9381,0.4364,-1.5206,-0.3117,-1.3848,1138,2019-08-07 16:29:42:774
6.7022,0.7071,-1.6068,1.9514,-4.9381,0.4364,-1.5206,-0.3117,-1.3848,1142,2019-08-07 16:29:42:778
6.8793,1.3372,-2.1065,1.8356,-5.6869,0.9374,-1.5206,-0.4384,-1.6266,1148,2019-08-07 16:29:42:784
6.8793,1.3372,-2.1065,1.8356,-5.6869,0.9374,-1.7912,-0.4384,-1.6266,1153,2019-08-07 16:29:42:789
6.8793,1.3372,-2.1065,1.8356,-5.6869,0.9374,-1.7912,-0.4384,-1.6266,1158,2019-08-07 16:29:42:794
7.0563,2.1344,-2.6156,1.8356,-5.6869,0.9374,-2.0085,-0.4906,-1.8301,1163,2019-08-07 16:29:42:799
7.0563,2.1344,-2.6156,1.9762,-6.5729,1.0345,-2.0085,-0.4906,-1.8301,1168,2019-08-07 16:29:42:804
7.0563,2.1344,-2.6156,1.9762,-6.5729,1.0345,-2.2099,-0.5897,-2.0133,1173,2019-08-07 16:29:42:809
6.597,3.1942,-2.5354,1.9762,-6.5729,1.0345,-2.2099,-0.5897,-2.0133,1178,2019-08-07 16:29:42:814
6.597,3.1942,-2.5354,1.9762,-6.5729,1.0345,-2.4037,-0.7601,-2.171,1183,2019-08-07 16:29:42:819
6.3339,4.1681,-2.757,2.6847,-7.3359,0.8826,-2.4037,-0.7601,-2.171,1188,2019-08-07 16:29:42:824
6.3339,4.1681,-2.757,2.6847,-7.3359,0.8826,-2.6754,-0.9817,-2.3318,1193,2019-08-07 16:29:42:829
6.3339,4.1681,-2.757,2.6847,-7.3359,0.8826,-2.6754,-0.9817,-2.3318,1197,2019-08-07 16:29:42:833
6.1856,4.5786,-3.0634,2.6847,-7.3359,0.8826,-2.6754,-0.9817,-2.3318,1203,2019-08-07 16:29:42:839
6.1856,4.5786,-3.0634,3.0747,-7.5276,0.9198,-3.0088,-1.2278,-2.4916,1208,2019-08-07 16:29:42:844
6.1856,4.5786,-3.0634,3.0747,-7.5276,0.9198,-3.0088,-1.2278,-2.4916,1213,2019-08-07 16:29:42:849
5.7359,4.9319,-3.1341,3.0747,-7.5276,0.9198,-3.2794,-1.493,-2.612,1218,2019-08-07 16:29:42:854
5.7359,4.9319,-3.1341,3.0747,-7.5276,0.9198,-3.2794,-1.493,-2.612,1223,2019-08-07 16:29:42:859
5.3627,5.3138,-3.4452,3.8569,-7.4697,0.8785,-3.551,-1.7242,-2.7377,1227,2019-08-07 16:29:42:863
5.3627,5.3138,-3.4452,3.8569,-7.4697,0.8785,-3.551,-1.7242,-2.7377,1233,2019-08-07 16:29:42:869
5.3627,5.3138,-3.4452,3.8569,-7.4697,0.8785,-3.9175,-1.9287,-2.9241,1238,2019-08-07 16:29:42:874
5.1809,6.3354,-4.0203,3.8569,-7.4697,0.8785,-3.9175,-1.9287,-2.9241,1243,2019-08-07 16:29:42:879
5.1809,6.3354,-4.0203,4.024,-8.1955,1.3051,-4.2669,-2.1045,-3.0999,1248,2019-08-07 16:29:42:884
5.4488,7.6816,-5.4061,4.024,-8.1955,1.3051,-4.2669,-2.1045,-3.0999,1253,2019-08-07 16:29:42:889
5.4488,7.6816,-5.4061,4.024,-8.1955,1.3051,-4.2669,-2.1045,-3.0999,1258,2019-08-07 16:29:42:894
5.4488,7.6816,-5.4061,4.024,-8.1955,1.3051,-4.6877,-2.2696,-3.2767,1263,2019-08-07 16:29:42:899
6.7788,9.1663,-7.7536,2.3432,-9.543,4.1644,-4.6877,-2.2696,-3.2767,1268,2019-08-07 16:29:42:904
6.7788,9.1663,-7.7536,2.3432,-9.543,4.1644,-5.379,-2.504,-3.4461,1273,2019-08-07 16:29:42:909
9.1662,9.5195,-9.8465,2.3432,-9.543,4.1644,-5.379,-2.504,-3.4461,1278,2019-08-07 16:29:42:914
9.1662,9.5195,-9.8465,2.3432,-9.543,4.1644,-6.1375,-2.7298,-3.5846,1282,2019-08-07 16:29:42:918
9.1662,9.5195,-9.8465,-1.7191,-8.3688,6.9601,-6.1375,-2.7298,-3.5846,1287,2019-08-07 16:29:42:923
11.3909,8.5839,-11.6425,-1.7191,-8.3688,6.9601,-6.9332,-2.9471,-3.7401,1293,2019-08-07 16:29:42:929
11.3909,8.5839,-11.6425,-1.7191,-8.3688,6.9601,-6.9332,-2.9471,-3.7401,1298,2019-08-07 16:29:42:934
11.3909,8.5839,-11.6425,-1.7191,-8.3688,6.9601,-6.9332,-2.9471,-3.7401,1303,2019-08-07 16:29:42:939
11.8358,5.9344,-11.9819,-3.318,-3.8742,7.573,-7.697,-3.0792,-3.8956,1308,2019-08-07 16:29:42:944
11.8358,5.9344,-11.9819,-3.318,-3.8742,7.573,-7.697,-3.0792,-3.8956,1313,2019-08-07 16:29:42:949
11.3813,3.1322,-11.2277,-3.1027,-0.379,6.742,-7.9846,-3.0249,-3.9649,1318,2019-08-07 16:29:42:954
11.3813,3.1322,-11.2277,-3.1027,-0.379,6.742,-7.9846,-3.0249,-3.9649,1323,2019-08-07 16:29:42:959
11.3813,3.1322,-11.2277,-3.1027,-0.379,6.742,-7.9687,-3.1133,-3.9713,1327,2019-08-07 16:29:42:963
11.2952,-0.6153,-10.2283,-3.1027,-0.379,6.742,-7.9687,-3.1133,-3.9713,1333,2019-08-07 16:29:42:969
11.2952,-0.6153,-10.2283,-4.7881,6.8357,5.8712,-7.9687,-3.1133,-3.9713,1337,2019-08-07 16:29:42:973
13.6299,-4.1288,-10.7799,-4.7881,6.8357,5.8712,-7.6118,-3.5298,-3.9777,1343,2019-08-07 16:29:42:979
13.6299,-4.1288,-10.7799,-4.7881,6.8357,5.8712,-7.6118,-3.5298,-3.9777,1348,2019-08-07 16:29:42:984
16.2182,-6.869,-13.4149,-4.7881,6.8357,5.8712,-7.1143,-4.1178,-4.0458,1353,2019-08-07 16:29:42:989
16.2182,-6.869,-13.4149,-4.7881,6.8357,5.8712,-7.1143,-4.1178,-4.0458,1357,2019-08-07 16:29:42:993
16.2182,-6.869,-13.4149,-9.7369,12.701,9.7438,-6.6062,-4.4332,-4.1279,1363,2019-08-07 16:29:42:999
18.3759,-9.6426,-17.6762,-9.7369,12.701,9.7438,-6.6062,-4.4332,-4.1279,1368,2019-08-07 16:29:43:004
18.3759,-9.6426,-17.6762,-9.7369,12.701,9.7438,-5.5143,-4.0774,-4.3058,1373,2019-08-07 16:29:43:009
18.3759,-9.6426,-17.6762,-13.3189,19.0895,16.8158,-5.5143,-4.0774,-4.3058,1378,2019-08-07 16:29:43:014
19.4523,-13.5762,-21.8432,-13.3189,19.0895,16.8158,-4.1614,-2.3271,-4.5369,1383,2019-08-07 16:29:43:019
19.4523,-13.5762,-21.8432,-13.3189,19.0895,16.8158,-4.1614,-2.3271,-4.5369,1389,2019-08-07 16:29:43:025
17.5913,-17.6912,-25.9583,-13.3189,19.0895,16.8158,-3.061,-0.5492,-4.4421,1393,2019-08-07 16:29:43:029
17.5913,-17.6912,-25.9583,-11.5386,25.5172,23.1627,-3.061,-0.5492,-4.4421,1398,2019-08-07 16:29:43:034
17.5913,-17.6912,-25.9583,-11.5386,25.5172,23.1627,-3.061,-0.5492,-4.4421,1402,2019-08-07 16:29:43:038
18.1893,-20.4123,-29.1071,-11.5386,25.5172,23.1627,-2.0767,0.6141,-3.7614,1408,2019-08-07 16:29:43:044
18.1893,-20.4123,-29.1071,-14.0473,27.9501,25.8219,-2.0767,0.6141,-3.7614,1413,2019-08-07 16:29:43:049
18.1893,-20.4123,-29.1071,-14.0473,27.9501,25.8219,-1.1446,0.6758,-2.9486,1417,2019-08-07 16:29:43:053
23.1984,-24.3698,-33.9577,-14.0473,27.9501,25.8219,-1.1446,0.6758,-2.9486,1423,2019-08-07 16:29:43:059
23.1984,-24.3698,-33.9577,-21.5369,35.3975,35.7062,0.1305,-0.2509,-2.3201,1428,2019-08-07 16:29:43:064
26.8297,-28.6806,-40.9765,-21.5369,35.3975,35.7062,0.1305,-0.2509,-2.3201,1433,2019-08-07 16:29:43:069
26.8297,-28.6806,-40.9765,-21.5369,35.3975,35.7062,1.5047,-0.7537,-2.0367,1438,2019-08-07 16:29:43:074
26.2747,-31.4542,-46.5199,-21.5369,35.3975,35.7062,1.5047,-0.7537,-2.0367,1443,2019-08-07 16:29:43:079
26.2747,-31.4542,-46.5199,-20.3691,39.3044,44.1799,3.4424,-0.0453,-1.5254,1448,2019-08-07 16:29:43:084
26.2747,-31.4542,-46.5199,-20.3691,39.3044,44.1799,3.4424,-0.0453,-1.5254,1454,2019-08-07 16:29:43:090
23.696,-30.1987,-47.4109,-20.3691,39.3044,44.1799,3.4424,-0.0453,-1.5254,1458,2019-08-07 16:29:43:094
23.696,-30.1987,-47.4109,-19.0857,36.7666,42.1125,6.8843,2.5688,-0.1555,1462,2019-08-07 16:29:43:098
24.5141,-25.7256,-43.3711,-19.0857,36.7666,42.1125,6.8843,2.5688,-0.1555,1468,2019-08-07 16:29:43:104
24.5141,-25.7256,-43.3711,-19.0857,36.7666,42.1125,10.8471,5.5718,1.7311,1473,2019-08-07 16:29:43:109
24.5141,-25.7256,-43.3711,-19.0857,36.7666,42.1125,10.8471,5.5718,1.7311,1478,2019-08-07 16:29:43:114
25.5523,-22.0593,-45.2095,-20.2509,28.996,38.7633,13.2045,7.3668,3.1681,1482,2019-08-07 16:29:43:118
25.5523,-22.0593,-45.2095,-20.2509,28.996,38.7633,13.2045,7.3668,3.1681,1487,2019-08-07 16:29:43:123
25.5523,-22.0593,-45.2095,-20.2509,28.996,38.7633,13.9854,7.861,4.3825,1493,2019-08-07 16:29:43:129
26.2508,-18.8895,-53.1146,-20.2509,28.996,38.7633,13.9854,7.861,4.3825,1498,2019-08-07 16:29:43:134
26.2508,-18.8895,-53.1146,-19.8069,21.2887,50.1461,12.8381,5.3481,5.7173,1503,2019-08-07 16:29:43:139
26.2508,-18.8895,-53.1146,-19.8069,21.2887,50.1461,12.8381,5.3481,5.7173,1507,2019-08-07 16:29:43:143
25.892,-11.8338,-59.5018,-19.8069,21.2887,50.1461,11.4553,0.9592,6.838,1513,2019-08-07 16:29:43:149
25.892,-11.8338,-59.5018,-19.8069,21.2887,50.1461,11.4553,0.9592,6.838,1518,2019-08-07 16:29:43:154
25.892,-11.8338,-59.5018,-18.5628,9.4203,52.7643,11.4553,0.9592,6.838,1523,2019-08-07 16:29:43:159
26.6622,-7.3655,-60.0533,-18.5628,9.4203,52.7643,10.993,-3.8899,7.932,1527,2019-08-07 16:29:43:163
26.6622,-7.3655,-60.0533,-18.5628,9.4203,52.7643,10.993,-3.8899,7.932,1533,2019-08-07 16:29:43:169
35.714,-11.0365,-74.7038,-29.0795,10.0762,67.5416,12.1094,-7.1293,8.3347,1538,2019-08-07 16:29:43:174
35.714,-11.0365,-74.7038,-29.0795,10.0762,67.5416,12.1094,-7.1293,8.3347,1542,2019-08-07 16:29:43:178
35.714,-11.0365,-74.7038,-29.0795,10.0762,67.5416,13.6477,-5.8489,7.4324,1548,2019-08-07 16:29:43:184
42.3211,-7.3464,-91.7065,-29.0795,10.0762,67.5416,13.6477,-5.8489,7.4324,1553,2019-08-07 16:29:43:189
42.3211,-7.3464,-91.7065,-29.0795,10.0762,67.5416,13.6477,-5.8489,7.4324,1558,2019-08-07 16:29:43:194
42.3211,-7.3464,-91.7065,-36.7331,-2.4267,86.3474,15.074,-1.508,6.1381,1563,2019-08-07 16:29:43:199
39.2783,3.1608,-90.6035,-36.7331,-2.4267,86.3474,15.074,-1.508,6.1381,1568,2019-08-07 16:29:43:204
39.2783,3.1608,-90.6035,-36.7331,-2.4267,86.3474,15.8272,4.3222,5.9442,1573,2019-08-07 16:29:43:209
32.877,18.6089,-76.3489,-36.7331,-2.4267,86.3474,15.8272,4.3222,5.9442,1578,2019-08-07 16:29:43:214
32.877,18.6089,-76.3489,-30.2887,-30.5601,62.8809,15.7121,7.2922,7.0297,1583,2019-08-07 16:29:43:219
32.877,18.6089,-76.3489,-30.2887,-30.5601,62.8809,15.7121,7.2922,7.0297,1588,2019-08-07 16:29:43:224
41.192,33.6369,-50.8095,-36.023,-41.1649,47.2253,15.3031,7.7652,6.986,1593,2019-08-07 16:29:43:229
41.192,33.6369,-50.8095,-36.023,-41.1649,47.2253,15.3031,7.7652,6.986,1598,2019-08-07 16:29:43:234
41.192,33.6369,-50.8095,-36.023,-41.1649,47.2253,15.3031,7.7652,6.986,1602,2019-08-07 16:29:43:238
32.7478,58.7997,-51.1065,-36.023,-41.1649,47.2253,13.294,4.4628,5.5618,1608,2019-08-07 16:29:43:244
32.7478,58.7997,-51.1065,-19.572,-66.533,65.1603,13.294,4.4628,5.5618,1614,2019-08-07 16:29:43:250
6.1857,67.9272,-81.2937,-19.572,-66.533,65.1603,5.7296,1.9105,4.5722,1618,2019-08-07 16:29:43:254
6.1857,67.9272,-81.2937,-19.572,-66.533,65.1603,5.7296,1.9105,4.5722,1622,2019-08-07 16:29:43:258
6.1857,67.9272,-81.2937,-19.572,-66.533,65.1603,-3.3774,-0.0773,4.6851,1628,2019-08-07 16:29:43:264
3.1334,69.7365,-53.1758,0.4991,-78.845,52.9,-3.3774,-0.0773,4.6851,1633,2019-08-07 16:29:43:269
3.1334,69.7365,-53.1758,0.4991,-78.845,52.9,-3.3774,-0.0773,4.6851,1638,2019-08-07 16:29:43:274
3.1334,69.7365,-53.1758,0.4991,-78.845,52.9,-4.4022,-1.6347,5.5831,1643,2019-08-07 16:29:43:279
15.3667,68.7865,-16.4081,0.4991,-78.845,52.9,-4.4022,-1.6347,5.5831,1647,2019-08-07 16:29:43:283
15.3667,68.7865,-16.4081,-17.6952,-69.8383,5.5277,-0.8399,-3.8814,5.1485,1653,2019-08-07 16:29:43:289
15.3667,68.7865,-16.4081,-17.6952,-69.8383,5.5277,-0.8399,-3.8814,5.1485,1659,2019-08-07 16:29:43:295
20.7293,61.9075,30.8618,-17.6952,-69.8383,5.5277,3.3689,-1.3077,2.398,1663,2019-08-07 16:29:43:299
20.7293,61.9075,30.8618,-17.6952,-69.8383,5.5277,3.3689,-1.3077,2.398,1667,2019-08-07 16:29:43:303
15.0121,35.4462,28.3069,-12.7243,-44.9831,-28.5311,5.3567,5.6123,-0.7552,1673,2019-08-07 16:29:43:309
15.0121,35.4462,28.3069,-12.7243,-44.9831,-28.5311,5.3567,5.6123,-0.7552,1678,2019-08-07 16:29:43:314
-7.603,45.6813,2.7534,-12.7243,-44.9831,-28.5311,4.8518,0.4702,-2.041,1683,2019-08-07 16:29:43:319
-7.603,45.6813,2.7534,-12.7243,-44.9831,-28.5311,4.8518,0.4702,-2.041,1687,2019-08-07 16:29:43:323
-7.603,45.6813,2.7534,11.7646,-46.371,16.984,3.5607,4.89,-2.1987,1693,2019-08-07 16:29:43:329
-9.976,32.8206,-9.5685,11.7646,-46.371,16.984,3.5607,4.89,-2.1987,1698,2019-08-07 16:29:43:334
-9.976,32.8206,-9.5685,11.7646,-46.371,16.984,1.0381,6.5167,-1.8461,1703,2019-08-07 16:29:43:339
-9.976,32.8206,-9.5685,11.7646,-46.371,16.984,1.0381,6.5167,-1.8461,1709,2019-08-07 16:29:43:345
-7.0815,22.8863,6.7177,8.6674,-29.8159,-4.1785,-2.7574,0.6939,-1.7182,1714,2019-08-07 16:29:43:350
-7.0815,22.8863,6.7177,8.6674,-29.8159,-4.1785,-2.7574,0.6939,-1.7182,1718,2019-08-07 16:29:43:354
-7.0815,22.8863,6.7177,8.6674,-29.8159,-4.1785,-2.7574,0.6939,-1.7182,1723,2019-08-07 16:29:43:359
-2.4025,11.4577,5.2658,8.6674,-29.8159,-4.1785,-4.4884,-1.9639,-1.7683,1727,2019-08-07 16:29:43:363
-2.4025,11.4577,5.2658,-2.3458,-14.752,-20.8934,-4.4884,-1.9639,-1.7683,1733,2019-08-07 16:29:43:369
-2.4025,11.4577,5.2658,-2.3458,-14.752,-20.8934,-3.1643,-1.5101,-2.2839,1738,2019-08-07 16:29:43:374
7.4961,1.1654,16.8241,-2.3458,-14.752,-20.8934,-3.1643,-1.5101,-2.2839,1743,2019-08-07 16:29:43:379
7.4961,1.1654,16.8241,-2.3458,-14.752,-20.8934,-1.4801,-3.7205,-2.9049,1748,2019-08-07 16:29:43:384
4.9556,-1.169,-3.4453,-1.2363,-7.9082,3.5243,-1.4801,-3.7205,-2.9049,1754,2019-08-07 16:29:43:390
4.9556,-1.169,-3.4453,-1.2363,-7.9082,3.5243,-1.4801,-3.7205,-2.9049,1758,2019-08-07 16:29:43:394
4.9556,-1.169,-3.4453,-1.2363,-7.9082,3.5243,-1.6857,-4.0337,-2.7941,1763,2019-08-07 16:29:43:399
8.2902,-5.9333,-12.1045,-1.2363,-7.9082,3.5243,-1.6857,-4.0337,-2.7941,1768,2019-08-07 16:29:43:404
8.2902,-5.9333,-12.1045,-6.9331,1.6621,12.8252,-3.3444,-4.4257,-2.7878,1772,2019-08-07 16:29:43:408
11.2373,-13.8769,-12.854,-6.9331,1.6621,12.8252,-3.3444,-4.4257,-2.7878,1778,2019-08-07 16:29:43:414
11.2373,-13.8769,-12.854,-6.9331,1.6621,12.8252,-4.22,-4.5503,-2.8772,1782,2019-08-07 16:29:43:418
11.2373,-13.8769,-12.854,-6.9331,1.6621,12.8252,-4.22,-4.5503,-2.8772,1789,2019-08-07 16:29:43:425
10.6728,-16.3736,-5.0527,-7.0534,9.0731,1.1998,-4.6067,-3.7834,-2.3627,1792,2019-08-07 16:29:43:428
10.6728,-16.3736,-5.0527,-7.0534,9.0731,1.1998,-4.6067,-3.7834,-2.3627,1798,2019-08-07 16:29:43:434
10.6728,-16.3736,-5.0527,-7.0534,9.0731,1.1998,-3.665,-3.6044,-1.7054,1803,2019-08-07 16:29:43:439
14.8686,-19.51,-4.9961,-7.0534,9.0731,1.1998,-3.665,-3.6044,-1.7054,1808,2019-08-07 16:29:43:444
14.8686,-19.51,-4.9961,-9.0862,9.3457,7.123,-3.665,-3.6044,-1.7054,1813,2019-08-07 16:29:43:449
13.1941,-15.7339,-12.9342,-9.0862,9.3457,7.123,-2.1822,-2.21,-1.3848,1818,2019-08-07 16:29:43:454
13.1941,-15.7339,-12.9342,-9.0862,9.3457,7.123,-2.1822,-2.21,-1.3848,1823,2019-08-07 16:29:43:459
13.1941,-15.7339,-12.9342,-9.0862,9.3457,7.123,-1.0263,0.4649,-1.4381,1828,2019-08-07 16:29:43:464
12.2707,-14.5739,-15.3005,-9.0862,9.3457,7.123,-1.0263,0.4649,-1.4381,1832,2019-08-07 16:29:43:468
12.2707,-14.5739,-15.3005,-7.2239,6.7758,11.4323,-0.3062,3.3582,-1.9782,1838,2019-08-07 16:29:43:474
12.2707,-14.5739,-15.3005,-7.2239,6.7758,11.4323,-0.3062,3.3582,-1.9782,1843,2019-08-07 16:29:43:479
11.6105,-15.7101,-6.481,-7.2239,6.7758,11.4323,-0.3062,2.6476,-2.5417,1848,2019-08-07 16:29:43:484
11.6105,-15.7101,-6.481,-4.706,6.8141,-2.0362,-0.5353,2.6476,-2.5417,1853,2019-08-07 16:29:43:489
11.6105,-15.7101,-6.481,-4.706,6.8141,-2.0362,-0.5353,2.6476,-2.5417,1858,2019-08-07 16:29:43:494
7.1037,-13.0176,-9.4082,-4.706,6.8141,-2.0362,-1.6335,-0.5908,-2.6887,1863,2019-08-07 16:29:43:499
7.1037,-13.0176,-9.4082,-4.706,6.8141,-2.0362,-1.6335,-0.5908,-2.6887,1868,2019-08-07 16:29:43:504
7.7257,-12.6835,-9.6345,-4.706,6.8141,-2.0362,-2.5603,-1.101,-2.2913,1873,2019-08-07 16:29:43:509
7.7257,-12.6835,-9.6345,-3.0298,6.2881,5.4455,-2.5603,-1.101,-2.2913,1878,2019-08-07 16:29:43:514
7.7257,-12.6835,-9.6345,-3.0298,6.2881,5.4455,-2.7425,-0.5567,-2.0037,1883,2019-08-07 16:29:43:519
11.8019,-16.302,-2.7995,-3.0298,6.2881,5.4455,-2.7425,-0.5567,-2.0037,1887,2019-08-07 16:29:43:523
11.8019,-16.302,-2.7995,-3.0298,6.2881,5.4455,-2.1449,-1.3343,-2.0559,1893,2019-08-07 16:29:43:529
8.539,-16.6457,-6.6412,-3.2544,9.9548,1.8277,-2.1449,-1.3343,-2.0559,1898,2019-08-07 16:29:43:534
8.539,-16.6457,-6.6412,-3.2544,9.9548,1.8277,-2.1449,-1.3343,-2.0559,1903,2019-08-07 16:29:43:539
8.539,-16.6457,-6.6412,-3.2544,9.9548,1.8277,-1.3278,-1.3109,-1.8983,1908,2019-08-07 16:29:43:544
7.5917,-16.4166,-9.7712,-3.2544,9.9548,1.8277,-1.3278,-1.3109,-1.8983,1913,2019-08-07 16:29:43:549
7.5917,-16.4166,-9.7712,-2.7511,10.2974,4.8735,-0.7973,-0.9647,-1.8652,1918,2019-08-07 16:29:43:554
11.8449,-16.7985,-4.6662,-2.7511,10.2974,4.8735,-0.7973,-0.9647,-1.8652,1922,2019-08-07 16:29:43:558
11.8449,-16.7985,-4.6662,-2.7511,10.2974,4.8735,-0.2434,-0.8272,-2.0975,1928,2019-08-07 16:29:43:564
14.2035,-15.5048,-3.1813,-2.7511,10.2974,4.8735,-0.2434,-0.8272,-2.0975,1933,2019-08-07 16:29:43:569
14.2035,-15.5048,-3.1813,-8.0309,8.7163,0.1675,0.1795,-1.1127,-2.1294,1937,2019-08-07 16:29:43:573
14.2035,-15.5048,-3.1813,-8.0309,8.7163,0.1675,0.1795,-1.1127,-2.1294,1943,2019-08-07 16:29:43:579
14.2035,-15.5048,-3.1813,-8.0309,8.7163,0.1675,0.1795,-1.1127,-2.1294,1947,2019-08-07 16:29:43:583
15.103,-11.7096,-8.1779,-8.0309,8.7163,0.1675,-0.2338,-0.6547,-1.5254,1953,2019-08-07 16:29:43:589
15.103,-11.7096,-8.1779,-9.0574,5.5936,5.8635,-0.2338,-0.6547,-1.5254,1957,2019-08-07 16:29:43:593
14.8494,-12.3445,-10.8035,-9.0574,5.5936,5.8635,-0.9997,0.5171,-0.7446,1963,2019-08-07 16:29:43:599
14.8494,-12.3445,-10.8035,-9.0574,5.5936,5.8635,-0.9997,0.5171,-0.7446,1968,2019-08-07 16:29:43:604
14.8494,-12.3445,-10.8035,-9.0574,5.5936,5.8635,-1.1606,2.5667,-0.5443,1973,2019-08-07 16:29:43:609
12.0076,-13.4377,-6.9524,-5.3113,7.6817,2.6787,-1.1606,2.5667,-0.5443,1978,2019-08-07 16:29:43:614
12.0076,-13.4377,-6.9524,-5.3113,7.6817,2.6787,-0.6109,3.503,-0.5614,1983,2019-08-07 16:29:43:619
8.6729,-13.1417,4.5823,-5.3113,7.6817,2.6787,-0.6109,3.503,-0.5614,1988,2019-08-07 16:29:43:624
8.6729,-13.1417,4.5823,-5.3113,7.6817,2.6787,-0.6109,3.503,-0.5614,1993,2019-08-07 16:29:43:629
8.6729,-13.1417,4.5823,0.0714,6.9064,-3.7029,0.5854,1.9222,-0.4122,1998,2019-08-07 16:29:43:634
5.8837,-12.3445,-3.3274,0.0714,6.9064,-3.7029,0.5854,1.9222,-0.4122,2003,2019-08-07 16:29:43:639
5.8837,-12.3445,-3.3274,0.0714,6.9064,-3.7029,1.0722,1.9467,-0.2652,2008,2019-08-07 16:29:43:644
5.8837,-12.3445,-3.3274,0.0714,6.9064,-3.7029,1.0722,1.9467,-0.2652,2012,2019-08-07 16:29:43:648
7.6874,-11.5568,-1.0978,-0.5053,5.2659,-2.2782,0.8826,1.4439,-0.3291,2018,2019-08-07 16:29:43:654
7.6874,-11.5568,-1.0978,-0.5053,5.2659,-2.2782,0.8826,1.4439,-0.3291,2023,2019-08-07 16:29:43:659
7.8118,-9.5327,-2.1631,-0.5053,5.2659,-2.2782,0.5076,0.8367,-0.344,2028,2019-08-07 16:29:43:664
7.8118,-9.5327,-2.1631,-0.5053,5.2659,-2.2782,0.5076,0.8367,-0.344,2033,2019-08-07 16:29:43:669
11.9645,-9.5614,-0.5039,-4.1141,3.6775,-3.1104,0.5002,1.1488,-0.2886,2038,2019-08-07 16:29:43:674
11.9645,-9.5614,-0.5039,-4.1141,3.6775,-3.1104,0.5002,1.1488,-0.2886,2043,2019-08-07 16:29:43:679
11.9645,-9.5614,-0.5039,-4.1141,3.6775,-3.1104,0.7771,2.1299,-0.311,2048,2019-08-07 16:29:43:684
11.8114,-9.3418,-2.4271,-4.1141,3.6775,-3.1104,0.7771,2.1299,-0.311,2053,2019-08-07 16:29:43:689
11.8114,-9.3418,-2.4271,-3.1558,2.9998,-0.6978,0.9316,3.4008,-0.2226,2058,2019-08-07 16:29:43:694
11.8114,-9.3418,-2.4271,-3.1558,2.9998,-0.6978,0.9316,3.4008,-0.2226,2063,2019-08-07 16:29:43:699
8.338,-8.1817,-1.1968,-3.1558,2.9998,-0.6978,0.9582,4.0676,-0.0969,2068,2019-08-07 16:29:43:704
8.338,-8.1817,-1.1968,-3.1558,2.9998,-0.6978,0.9582,4.0676,-0.0969,2073,2019-08-07 16:29:43:709
4.3767,-7.2938,-0.2069,3.2629,1.5186,-1.9193,0.9529,3.9792,-0.0458,2078,2019-08-07 16:29:43:714
4.3767,-7.2938,-0.2069,3.2629,1.5186,-1.9193,0.9529,3.9792,-0.0458,2082,2019-08-07 16:29:43:718
4.3767,-7.2938,-0.2069,3.2629,1.5186,-1.9193,0.954,3.2804,0.0043,2088,2019-08-07 16:29:43:724
2.1568,-6.172,1.1742,3.2629,1.5186,-1.9193,0.954,3.2804,0.0043,2093,2019-08-07 16:29:43:729
2.1568,-6.172,1.1742,5.6965,-0.3138,-3.4491,0.8698,2.2865,-0.0596,2098,2019-08-07 16:29:43:734
2.3051,-5.2411,2.0934,5.6965,-0.3138,-3.4491,0.8698,2.2865,-0.0596,2103,2019-08-07 16:29:43:739
2.3051,-5.2411,2.0934,5.6965,-0.3138,-3.4491,0.8698,2.2865,-0.0596,2108,2019-08-07 16:29:43:744
2.3051,-5.2411,2.0934,4.7836,-1.1178,-3.2144,0.6962,1.1222,-0.2535,2113,2019-08-07 16:29:43:749
4.0657,-4.2242,1.5796,4.7836,-1.1178,-3.2144,0.6962,1.1222,-0.2535,2118,2019-08-07 16:29:43:754
4.0657,-4.2242,1.5796,4.7836,-1.1178,-3.2144,0.3723,-0.0315,-0.4985,2123,2019-08-07 16:29:43:759
8.9887,-3.9426,-1.6069,-2.3975,-1.7277,0.8005,0.3723,-0.0315,-0.4985,2128,2019-08-07 16:29:43:764
8.9887,-3.9426,-1.6069,-2.3975,-1.7277,0.8005,0.0283,0.075,-0.6711,2133,2019-08-07 16:29:43:769
8.9887,-3.9426,-1.6069,-2.3975,-1.7277,0.8005,0.0283,0.075,-0.6711,2138,2019-08-07 16:29:43:774
13.4763,-4.5107,-3.0776,-2.3975,-1.7277,0.8005,-0.139,0.9837,-0.7936,2143,2019-08-07 16:29:43:779
13.4763,-4.5107,-3.0776,-4.528,-1.0786,2.2835,-0.139,0.9837,-0.7936,2147,2019-08-07 16:29:43:783
13.4763,-4.5107,-3.0776,-4.528,-1.0786,2.2835,-0.0325,2.8138,-0.6817,2153,2019-08-07 16:29:43:789
9.936,-4.6061,-2.8231,-4.528,-1.0786,2.2835,-0.0325,2.8138,-0.6817,2158,2019-08-07 16:29:43:794
9.936,-4.6061,-2.8231,-4.528,-1.0786,2.2835,0.0954,3.7012,-0.4719,2164,2019-08-07 16:29:43:800
6.9745,-4.9355,0.3116,1.0927,-0.6204,-0.8483,0.0954,3.7012,-0.4719,2168,2019-08-07 16:29:43:804
6.9745,-4.9355,0.3116,1.0927,-0.6204,-0.8483,0.0954,3.7012,-0.4719,2173,2019-08-07 16:29:43:809
6.9745,-4.9355,0.3116,1.0927,-0.6204,-0.8483,0.0954,3.5094,-0.4378,2178,2019-08-07 16:29:43:814
4.8647,-4.4152,0.4153,1.0927,-0.6204,-0.8483,0.0954,3.5094,-0.4378,2183,2019-08-07 16:29:43:819
4.8647,-4.4152,0.4153,1.0927,-0.6204,-0.8483,0.0954,3.5094,-0.4378,2187,2019-08-07 16:29:43:823
3.7404,-3.5511,1.6221,4.1699,-1.7185,-1.3732,-0.0612,2.9246,-0.5379,2193,2019-08-07 16:29:43:829
3.7404,-3.5511,1.6221,4.1699,-1.7185,-1.3732,-0.0612,2.9246,-0.5379,2197,2019-08-07 16:29:43:833
3.7404,-3.5511,1.6221,4.1699,-1.7185,-1.3732,-0.2253,2.1097,-0.556,2204,2019-08-07 16:29:43:840
3.6925,-3.0738,1.6928,4.1699,-1.7185,-1.3732,-0.2253,2.1097,-0.556,2208,2019-08-07 16:29:43:844
3.6925,-3.0738,1.6928,4.2046,-2.2862,-1.2433,-0.4064,1.3842,-0.5347,2214,2019-08-07 16:29:43:850
5.9076,-3.7564,0.9574,4.2046,-2.2862,-1.2433,-0.6183,0.8772,-0.5305,2218,2019-08-07 16:29:43:854
5.9076,-3.7564,0.9574,4.2046,-2.2862,-1.2433,-0.6183,0.8772,-0.5305,2223,2019-08-07 16:29:43:859
5.9076,-3.7564,0.9574,4.2046,-2.2862,-1.2433,-0.6183,0.8772,-0.5305,2228,2019-08-07 16:29:43:864
7.783,-4.3913,0.2692,0.4409,-0.9317,0.2499,-0.8229,0.8356,-0.5741,2232,2019-08-07 16:29:43:868
7.783,-4.3913,0.2692,0.4409,-0.9317,0.2499,-0.8229,0.8356,-0.5741,2239,2019-08-07 16:29:43:875
8.4815,-4.8019,0.2173,0.4409,-0.9317,0.2499,-0.9475,1.2841,-0.6327,2242,2019-08-07 16:29:43:878
8.4815,-4.8019,0.2173,0.4285,-0.1968,0.2,-0.9475,1.2841,-0.6327,2248,2019-08-07 16:29:43:884
8.4815,-4.8019,0.2173,0.4285,-0.1968,0.2,-0.9475,1.2841,-0.6327,2253,2019-08-07 16:29:43:889
8.4815,-4.8019,0.2173,0.4285,-0.1968,0.2,-0.9635,1.7411,-0.5901,2258,2019-08-07 16:29:43:894
7.0463,-5.3413,0.3729,0.4285,-0.1968,0.2,-0.9635,1.7411,-0.5901,2263,2019-08-07 16:29:43:899
7.0463,-5.3413,0.3729,0.4285,-0.1968,0.2,-1.0199,1.887,-0.5528,2268,2019-08-07 16:29:43:904
5.7736,-5.5991,1.0611,2.42,0.4173,-0.1509,-1.0199,1.887,-0.5528,2273,2019-08-07 16:29:43:909
5.7736,-5.5991,1.0611,2.42,0.4173,-0.1509,-1.0956,1.6591,-0.54,2278,2019-08-07 16:29:43:914
5.7736,-5.5991,1.0611,2.42,0.4173,-0.1509,-1.0956,1.6591,-0.54,2283,2019-08-07 16:29:43:919
5.3048,-5.8808,1.146,2.42,0.4173,-0.1509,-1.1542,1.135,-0.5358,2287,2019-08-07 16:29:43:923
5.3048,-5.8808,1.146,3.0171,0.9675,-0.2214,-1.1542,1.135,-0.5358,2293,2019-08-07 16:29:43:929
5.3526,-6.2674,1.0423,3.0171,0.9675,-0.2214,-1.1691,0.6173,-0.5028,2298,2019-08-07 16:29:43:934
5.3526,-6.2674,1.0423,2.996,1.2618,-0.0792,-1.1691,0.6173,-0.5028,2303,2019-08-07 16:29:43:939
5.3526,-6.2674,1.0423,2.996,1.2618,-0.0792,-1.1691,0.6173,-0.5028,2308,2019-08-07 16:29:43:944
5.7067,-6.6207,0.6651,2.996,1.2618,-0.0792,-1.1488,0.1315,-0.4442,2313,2019-08-07 16:29:43:949
5.7067,-6.6207,0.6651,2.996,1.2618,-0.0792,-1.1488,0.1315,-0.4442,2318,2019-08-07 16:29:43:954
7.0654,-6.9262,0.0712,1.5396,1.8496,0.7202,-1.119,-0.2318,-0.4016,2323,2019-08-07 16:29:43:959
7.0654,-6.9262,0.0712,1.5396,1.8496,0.7202,-1.119,-0.2318,-0.4016,2327,2019-08-07 16:29:43:963
7.0654,-6.9262,0.0712,1.5396,1.8496,0.7202,-1.1094,-0.2712,-0.3653,2333,2019-08-07 16:29:43:969
8.2471,-6.7782,-0.6453,1.5396,1.8496,0.7202,-1.1094,-0.2712,-0.3653,2338,2019-08-07 16:29:43:974
8.2471,-6.7782,-0.6453,-0.4348,1.8591,1.5861,-1.1116,0.0942,-0.3398,2343,2019-08-07 16:29:43:979
9.4431,-6.8785,-0.8998,-0.4348,1.8591,1.5861,-1.1116,0.0942,-0.3398,2348,2019-08-07 16:29:43:984
9.4431,-6.8785,-0.8998,-0.4348,1.8591,1.5861,-1.1126,0.5789,-0.3547,2353,2019-08-07 16:29:43:989
9.4431,-6.8785,-0.8998,-0.4348,1.8591,1.5861,-1.1126,0.5789,-0.3547,2358,2019-08-07 16:29:43:994
9.7445,-6.8212,-0.5746,-1.3118,1.8498,1.215,-1.0871,1.0742,-0.3749,2363,2019-08-07 16:29:43:999
9.7445,-6.8212,-0.5746,-1.3118,1.8498,1.215,-1.0871,1.0742,-0.3749,2368,2019-08-07 16:29:44:004
9.7445,-6.8212,-0.5746,-1.3118,1.8498,1.215,-1.0871,1.0742,-0.3749,2373,2019-08-07 16:29:44:009
9.0078,-6.6541,-0.2918,-1.3118,1.8498,1.215,-1.0285,1.4897,-0.3877,2378,2019-08-07 16:29:44:014
9.0078,-6.6541,-0.2918,0.4457,1.5495,0.5794,-1.0285,1.4897,-0.3877,2382,2019-08-07 16:29:44:018
6.8166,-6.4154,0.6699,0.4457,1.5495,0.5794,-0.923,1.6207,-0.3568,2388,2019-08-07 16:29:44:024
6.8166,-6.4154,0.6699,0.4457,1.5495,0.5794,-0.923,1.6207,-0.3568,2393,2019-08-07 16:29:44:029
6.8166,-6.4154,0.6699,0.4457,1.5495,0.5794,-0.8452,1.2788,-0.278,2398,2019-08-07 16:29:44:034
5.5966,-6.6111,1.1648,2.8491,1.7058,-0.2462,-0.8452,1.2788,-0.278,2403,2019-08-07 16:29:44:039
5.5966,-6.6111,1.1648,2.8491,1.7058,-0.2462,-0.7952,0.7035,-0.2151,2408,2019-08-07 16:29:44:044
5.5966,-6.6111,1.1648,2.8491,1.7058,-0.2462,-0.7952,0.7035,-0.2151,2413,2019-08-07 16:29:44:049
5.6827,-6.635,1.0423,2.8491,1.7058,-0.2462,-0.7515,0.0889,-0.1992,2417,2019-08-07 16:29:44:053
5.6827,-6.635,1.0423,2.3984,1.6384,0.0805,-0.7515,0.0889,-0.1992,2423,2019-08-07 16:29:44:059
6.6491,-6.5061,0.5332,2.3984,1.6384,0.0805,-0.7089,-0.3884,-0.1693,2428,2019-08-07 16:29:44:064
6.6491,-6.5061,0.5332,2.3984,1.6384,0.0805,-0.7089,-0.3884,-0.1693,2432,2019-08-07 16:29:44:068
8.6394,-6.4966,-0.0985,2.3984,1.6384,0.0805,-0.6759,-0.5556,-0.1448,2439,2019-08-07 16:29:44:075
8.6394,-6.4966,-0.0985,-0.5081,1.608,0.8976,-0.6759,-0.5556,-0.1448,2443,2019-08-07 16:29:44:079
8.6394,-6.4966,-0.0985,-0.5081,1.608,0.8976,-0.6397,-0.3894,-0.1342,2448,2019-08-07 16:29:44:084
9.9742,-6.4536,-0.0561,-0.5081,1.608,0.8976,-0.6397,-0.3894,-0.1342,2453,2019-08-07 16:29:44:089
9.9742,-6.4536,-0.0561,-0.5081,1.608,0.8976,-0.6397,-0.3894,-0.1342,2458,2019-08-07 16:29:44:094
9.9742,-6.4536,-0.0561,-1.6371,1.3593,0.6544,-0.563,0.0069,-0.1161,2463,2019-08-07 16:29:44:099
9.8785,-6.1863,0.0665,-1.6371,1.3593,0.6544,-0.563,0.0069,-0.1161,2468,2019-08-07 16:29:44:104
9.8785,-6.1863,0.0665,-1.6371,1.3593,0.6544,-0.4159,0.5555,-0.0916,2473,2019-08-07 16:29:44:109
8.3523,-5.9142,0.5756,-1.6371,1.3593,0.6544,-0.4159,0.5555,-0.0916,2478,2019-08-07 16:29:44:114
8.3523,-5.9142,0.5756,0.9206,1.0388,-0.0619,-0.3243,0.7451,-0.066,2483,2019-08-07 16:29:44:119
8.3523,-5.9142,0.5756,0.9206,1.0388,-0.0619,-0.3243,0.7451,-0.066,2489,2019-08-07 16:29:44:125
6.5869,-5.8951,1.0941,0.9206,1.0388,-0.0619,-0.2743,0.5139,-0.0298,2492,2019-08-07 16:29:44:128
6.5869,-5.8951,1.0941,0.9206,1.0388,-0.0619,-0.2743,0.5139,-0.0298,2498,2019-08-07 16:29:44:134
6.5869,-5.8951,1.0941,2.3385,1.0775,-0.7215,-0.2285,-0.0933,-0.0032,2503,2019-08-07 16:29:44:139
6.1324,-5.9285,1.4948,2.3385,1.0775,-0.7215,-0.2285,-0.0933,-0.0032,2508,2019-08-07 16:29:44:144
6.1324,-5.9285,1.4948,2.3385,1.0775,-0.7215,-0.2285,-0.0933,-0.0032,2513,2019-08-07 16:29:44:149
6.9744,-5.8091,0.9244,1.9249,0.983,-0.4096,-0.1976,-0.6014,-0.017,2519,2019-08-07 16:29:44:155
6.9744,-5.8091,0.9244,1.9249,0.983,-0.4096,-0.1976,-0.6014,-0.017,2523,2019-08-07 16:29:44:159
6.9744,-5.8091,0.9244,1.9249,0.983,-0.4096,-0.204,-0.9615,-0.034,2528,2019-08-07 16:29:44:164
8.5963,-5.7901,0.1325,-0.5386,0.9102,0.5917,-0.204,-0.9615,-0.034,2534,2019-08-07 16:29:44:170
8.5963,-5.7901,0.1325,-0.5386,0.9102,0.5917,-0.204,-0.9615,-0.034,2537,2019-08-07 16:29:44:173
8.5963,-5.7901,0.1325,-0.5386,0.9102,0.5917,-0.2359,-0.8986,-0.0543,2543,2019-08-07 16:29:44:179
10.4813,-5.9428,-0.0231,-0.5386,0.9102,0.5917,-0.2157,-0.4906,-0.0777,2548,2019-08-07 16:29:44:184
10.4813,-5.9428,-0.0231,-2.223,1.0241,0.3212,-0.2157,-0.4906,-0.0777,2553,2019-08-07 16:29:44:189
10.4813,-5.9428,-0.0231,-2.223,1.0241,0.3212,-0.2157,-0.4906,-0.0777,2558,2019-08-07 16:29:44:194
10.5004,-5.8426,0.0382,-2.223,1.0241,0.3212,-0.1432,0.0633,-0.0777,2562,2019-08-07 16:29:44:198
10.5004,-5.8426,0.0382,-2.223,1.0241,0.3212,-0.1432,0.0633,-0.0777,2568,2019-08-07 16:29:44:204
9.2517,-5.5418,0.2975,-2.223,1.0241,0.3212,-0.074,0.4852,-0.0617,2573,2019-08-07 16:29:44:209
9.2517,-5.5418,0.2975,-0.5047,0.6538,0.0806,-0.074,0.4852,-0.0617,2578,2019-08-07 16:29:44:214
9.2517,-5.5418,0.2975,-0.5047,0.6538,0.0806,-0.0367,0.6758,-0.034,2584,2019-08-07 16:29:44:220
7.9456,-5.432,0.7641,-0.5047,0.6538,0.0806,-0.0367,0.6758,-0.034,2588,2019-08-07 16:29:44:224
7.9456,-5.432,0.7641,-0.5047,0.6538,0.0806,-0.0133,0.5278,-0.001,2593,2019-08-07 16:29:44:229
7.0701,-5.37,1.1789,1.2201,0.4997,-0.5376,-0.0133,0.5278,-0.001,2598,2019-08-07 16:29:44:234
7.0701,-5.37,1.1789,1.2201,0.4997,-0.5376,6.0E-4,0.1986,0.0213,2603,2019-08-07 16:29:44:239
7.0701,-5.37,1.1789,1.2201,0.4997,-0.5376,6.0E-4,0.1986,0.0213,2608,2019-08-07 16:29:44:244
6.6969,-5.3079,1.3204,1.2201,0.4997,-0.5376,0.0144,-0.2286,0.0586,2613,2019-08-07 16:29:44:249
6.6969,-5.3079,1.3204,1.5688,0.4714,-0.6113,0.0144,-0.2286,0.0586,2617,2019-08-07 16:29:44:253
7.3859,-5.3747,0.9668,1.5688,0.4714,-0.6113,0.0144,-0.2286,0.0586,2623,2019-08-07 16:29:44:259
7.3859,-5.3747,0.9668,1.5688,0.4714,-0.6113,0.0272,-0.6557,0.0874,2628,2019-08-07 16:29:44:264
7.3859,-5.3747,0.9668,1.5688,0.4714,-0.6113,0.0272,-0.6557,0.0874,2633,2019-08-07 16:29:44:269
8.2088,-5.3079,0.8678,0.2573,0.3753,-0.3865,0.0389,-0.8102,0.0949,2638,2019-08-07 16:29:44:274
8.2088,-5.3079,0.8678,0.2573,0.3753,-0.3865,0.0389,-0.8102,0.0949,2642,2019-08-07 16:29:44:278
8.9886,-5.074,0.5379,0.2573,0.3753,-0.3865,0.0336,-0.8038,0.0949,2648,2019-08-07 16:29:44:284
8.9886,-5.074,0.5379,0.2573,0.3753,-0.3865,0.0336,-0.8038,0.0949,2653,2019-08-07 16:29:44:289
8.9886,-5.074,0.5379,-1.2094,0.0635,-0.004,0.0336,-0.8038,0.0949,2658,2019-08-07 16:29:44:294
9.8258,-5.0215,0.3305,-1.2094,0.0635,-0.004,-0.0356,-0.579,0.0906,2663,2019-08-07 16:29:44:299
9.8258,-5.0215,0.3305,-1.2094,0.0635,-0.004,-0.0356,-0.579,0.0906,2668,2019-08-07 16:29:44:304
10.3326,-4.988,0.3445,-1.2094,0.0635,-0.004,-0.0857,-0.1668,0.0767,2673,2019-08-07 16:29:44:309
10.3326,-4.988,0.3445,-1.7529,0.0155,-0.1597,-0.0857,-0.1668,0.0767,2677,2019-08-07 16:29:44:313
10.3326,-4.988,0.3445,-1.7529,0.0155,-0.1597,-0.0783,0.1837,0.0853,2683,2019-08-07 16:29:44:319
9.5576,-5.0119,0.6981,-1.7529,0.0155,-0.1597,-0.0783,0.1837,0.0853,2687,2019-08-07 16:29:44:323
9.5576,-5.0119,0.6981,-1.7529,0.0155,-0.1597,-0.0559,0.3264,0.1087,2693,2019-08-07 16:29:44:329
8.4716,-5.0692,0.6934,-0.2217,0.1162,-0.281,-0.0559,0.3264,0.1087,2698,2019-08-07 16:29:44:334
8.4716,-5.0692,0.6934,-0.2217,0.1162,-0.281,-0.0751,0.2465,0.1385,2703,2019-08-07 16:29:44:339
8.4716,-5.0692,0.6934,-0.2217,0.1162,-0.281,-0.0751,0.2465,0.1385,2708,2019-08-07 16:29:44:344
7.8544,-5.0739,1.0375,-0.2217,0.1162,-0.281,-0.0751,0.2465,0.1385,2713,2019-08-07 16:29:44:349
7.8544,-5.0739,1.0375,0.6513,0.0467,-0.5692,-0.0846,-0.0326,0.1641,2718,2019-08-07 16:29:44:354
7.8544,-5.0739,1.0375,0.6513,0.0467,-0.5692,-0.0846,-0.0326,0.1641,2723,2019-08-07 16:29:44:359
7.9214,-5.1742,0.6792,0.6513,0.0467,-0.5692,-0.0761,-0.2211,0.1566,2728,2019-08-07 16:29:44:364
7.9214,-5.1742,0.6792,0.6513,0.0467,-0.5692,-0.0761,-0.2211,0.1566,2732,2019-08-07 16:29:44:368
8.1175,-5.2267,0.2738,0.3862,0.1886,-0.0511,-0.0506,-0.382,0.1343,2738,2019-08-07 16:29:44:374
8.1175,-5.2267,0.2738,0.3862,0.1886,-0.0511,-0.0506,-0.382,0.1343,2743,2019-08-07 16:29:44:379
8.1175,-5.2267,0.2738,0.3862,0.1886,-0.0511,-0.0346,-0.4065,0.1034,2748,2019-08-07 16:29:44:384
8.395,-5.1885,0.0428,0.3862,0.1886,-0.0511,-0.0346,-0.4065,0.1034,2753,2019-08-07 16:29:44:389
8.395,-5.1885,0.0428,-0.16,0.072,0.3573,-0.0346,-0.4065,0.1034,2757,2019-08-07 16:29:44:393
8.7921,-5.0453,-0.1174,-0.16,0.072,0.3573,-0.0111,-0.3362,0.064,2763,2019-08-07 16:29:44:399
8.7921,-5.0453,-0.1174,-0.16,0.072,0.3573,0.0091,-0.2211,0.0245,2769,2019-08-07 16:29:44:405
8.7921,-5.0453,-0.1174,-0.16,0.072,0.3573,0.0091,-0.2211,0.0245,2773,2019-08-07 16:29:44:409
9.0696,-4.9737,-0.2636,-0.712,-0.081,0.5034,0.0091,-0.2211,0.0245,2778,2019-08-07 16:29:44:414
9.0696,-4.9737,-0.2636,-0.712,-0.081,0.5034,0.0325,-0.0464,-0.0191,2783,2019-08-07 16:29:44:419
9.0696,-4.9737,-0.2636,-0.712,-0.081,0.5034,0.0325,-0.0464,-0.0191,2788,2019-08-07 16:29:44:424
8.8638,-4.8925,-0.1881,-0.712,-0.081,0.5034,0.0709,0.124,-0.0532,2793,2019-08-07 16:29:44:429
8.8638,-4.8925,-0.1881,-0.1325,-0.2055,0.211,0.0709,0.124,-0.0532,2797,2019-08-07 16:29:44:433
8.3902,-4.8591,0.0334,-0.1325,-0.2055,0.211,0.0826,0.1741,-0.0532,2804,2019-08-07 16:29:44:440
8.3902,-4.8591,0.0334,-0.1325,-0.2055,0.211,0.0826,0.1741,-0.0532,2808,2019-08-07 16:29:44:444
8.3902,-4.8591,0.0334,-0.1325,-0.2055,0.211,0.0858,0.0814,-0.049,2813,2019-08-07 16:29:44:449
7.9644,-4.8782,0.3822,0.4846,-0.1341,-0.0915,0.0858,0.0814,-0.049,2817,2019-08-07 16:29:44:453
7.9644,-4.8782,0.3822,0.4846,-0.1341,-0.0915,0.0762,-0.0848,-0.0468,2823,2019-08-07 16:29:44:459
7.9644,-4.8782,0.3822,0.4846,-0.1341,-0.0915,0.0762,-0.0848,-0.0468,2828,2019-08-07 16:29:44:464
7.9548,-4.9212,0.189,0.4846,-0.1341,-0.0915,0.0517,-0.2563,-0.033,2832,2019-08-07 16:29:44:468
7.9548,-4.9212,0.189,0.2017,-0.0993,0.0503,0.0517,-0.2563,-0.033,2837,2019-08-07 16:29:44:473
8.2418,-4.9116,-0.0232,0.2017,-0.0993,0.0503,0.0325,-0.3617,-0.0181,2843,2019-08-07 16:29:44:479
8.2418,-4.9116,-0.0232,0.2017,-0.0993,0.0503,0.0325,-0.3617,-0.0181,2848,2019-08-07 16:29:44:484
8.2418,-4.9116,-0.0232,0.2017,-0.0993,0.0503,0.0325,-0.3617,-0.0181,2853,2019-08-07 16:29:44:489
8.2418,-4.9116,-0.0232,0.2017,-0.0993,0.0503,0.0091,-0.3937,-0.0117,2858,2019-08-07 16:29:44:494
8.8638,-5.1551,-0.3531,-0.4409,0.1282,0.4981,0.0091,-0.3937,-0.0117,2863,2019-08-07 16:29:44:499
8.8638,-5.1551,-0.3531,-0.4409,0.1282,0.4981,0.008,-0.3074,-0.0021,2868,2019-08-07 16:29:44:504
8.8638,-5.1551,-0.3531,-0.4409,0.1282,0.4981,0.008,-0.3074,-0.0021,2873,2019-08-07 16:29:44:509
9.0312,-5.2792,-0.372,-0.4409,0.1282,0.4981,0.0059,-0.1742,-0.0021,2878,2019-08-07 16:29:44:514
9.0312,-5.2792,-0.372,-0.5015,0.249,0.4601,0.0059,-0.1742,-0.0021,2883,2019-08-07 16:29:44:519
8.6963,-5.1981,-0.1552,-0.5015,0.249,0.4601,0.0176,-0.0251,-0.0064,2888,2019-08-07 16:29:44:524
8.6963,-5.1981,-0.1552,-0.5015,0.249,0.4601,0.0176,-0.0251,-0.0064,2892,2019-08-07 16:29:44:528
8.6963,-5.1981,-0.1552,-0.0605,-0.0028,0.1024,0.0166,0.009,-0.0106,2898,2019-08-07 16:29:44:534
8.4332,-5.0071,0.0664,-0.0605,-0.0028,0.1024,0.0166,0.009,-0.0106,2903,2019-08-07 16:29:44:539
8.4332,-5.0071,0.0664,-0.0605,-0.0028,0.1024,0.0166,0.009,-0.0106,2908,2019-08-07 16:29:44:544
8.2466,-4.8018,0.1937,-0.0605,-0.0028,0.1024,-0.0143,-0.0315,-0.0064,2913,2019-08-07 16:29:44:549
8.2466,-4.8018,0.1937,0.0891,-0.2825,-0.1395,-0.0143,-0.0315,-0.0064,2919,2019-08-07 16:29:44:555
8.2466,-4.8018,0.1937,0.0891,-0.2825,-0.1395,-0.0804,-0.1604,-0.0021,2923,2019-08-07 16:29:44:559
8.3327,-4.6634,0.2172,0.0891,-0.2825,-0.1395,-0.0804,-0.1604,-0.0021,2928,2019-08-07 16:29:44:564
8.3327,-4.6634,0.2172,0.0891,-0.2825,-0.1395,-0.0804,-0.1604,-0.0021,2933,2019-08-07 16:29:44:569
8.4475,-4.735,0.1842,-0.0201,-0.2863,-0.1538,-0.14,-0.2712,0.0086,2938,2019-08-07 16:29:44:574
8.4475,-4.735,0.1842,-0.0201,-0.2863,-0.1538,-0.14,-0.2712,0.0086,2943,2019-08-07 16:29:44:579
8.4475,-4.735,0.1842,-0.0201,-0.2863,-0.1538,-0.1741,-0.3287,0.0235,2948,2019-08-07 16:29:44:584
8.5623,-4.883,0.0522,-0.0201,-0.2863,-0.1538,-0.1741,-0.3287,0.0235,2953,2019-08-07 16:29:44:589
8.5623,-4.883,0.0522,-0.0201,-0.2863,-0.1538,-0.1869,-0.3372,0.0331,2958,2019-08-07 16:29:44:594
9.0838,-4.7016,-0.2683,-0.3899,-0.2505,0.1035,-0.1869,-0.3372,0.0331,2963,2019-08-07 16:29:44:599
9.0838,-4.7016,-0.2683,-0.3899,-0.2505,0.1035,-0.2231,-0.2882,0.0363,2969,2019-08-07 16:29:44:605
9.0838,-4.7016,-0.2683,-0.3899,-0.2505,0.1035,-0.2231,-0.2882,0.0363,2972,2019-08-07 16:29:44:608
9.4857,-4.8018,-0.4898,-0.3899,-0.2505,0.1035,-0.2231,-0.2882,0.0363,2978,2019-08-07 16:29:44:614
9.4857,-4.8018,-0.4898,-1.0756,-0.1373,0.3462,-0.2402,-0.171,0.0288,2983,2019-08-07 16:29:44:619
9.4857,-4.8018,-0.4898,-1.0756,-0.1373,0.3462,-0.2402,-0.171,0.0288,2988,2019-08-07 16:29:44:624
9.3661,-5.0166,-0.3626,-1.0756,-0.1373,0.3462,-0.2189,-0.0539,0.0192,2993,2019-08-07 16:29:44:629
9.3661,-5.0166,-0.3626,-1.0756,-0.1373,0.3462,-0.2189,-0.0539,0.0192,2999,2019-08-07 16:29:44:635
9.1125,-4.9546,-0.4191,-0.7173,-0.0226,0.252,-0.1848,5.0E-4,0.0203,3003,2019-08-07 16:29:44:639
9.1125,-4.9546,-0.4191,-0.7173,-0.0226,0.252,-0.1848,5.0E-4,0.0203,3008,2019-08-07 16:29:44:644
9.1125,-4.9546,-0.4191,-0.7173,-0.0226,0.252,-0.1699,0.009,0.0309,3013,2019-08-07 16:29:44:649
9.1125,-4.9546,-0.4191,-0.7173,-0.0226,0.252,-0.1699,0.009,0.0309,3018,2019-08-07 16:29:44:654
9.1125,-4.9546,-0.4191,-0.7173,-0.0226,0.252,-0.1699,0.009,0.0309,3023,2019-08-07 16:29:44:659
8.6771,-4.8639,-0.2353,-0.193,-0.1018,0.0682,-0.1656,-0.0176,0.0416,3027,2019-08-07 16:29:44:663
8.6771,-4.8639,-0.2353,-0.193,-0.1018,0.0682,-0.1656,-0.0176,0.0416,3032,2019-08-07 16:29:44:668
8.6771,-4.8639,-0.2353,-0.193,-0.1018,0.0682,-0.172,-0.137,0.0256,3038,2019-08-07 16:29:44:674
8.8063,-4.8782,-0.2447,-0.3881,-0.1544,0.0383,-0.172,-0.137,0.0256,3042,2019-08-07 16:29:44:678
8.8063,-4.8782,-0.2447,-0.3881,-0.1544,0.0383,-0.172,-0.137,0.0256,3048,2019-08-07 16:29:44:684
8.6962,-5.0453,-0.1599,-0.3881,-0.1544,0.0383,-0.1795,-0.1465,0.0213,3053,2019-08-07 16:29:44:689
8.6962,-5.0453,-0.1599,-0.3881,-0.1544,0.0383,-0.1795,-0.1465,0.0213,3058,2019-08-07 16:29:44:694
8.6962,-5.0453,-0.1599,-0.1844,0.1066,-0.0185,-0.1795,-0.138,0.0022,3063,2019-08-07 16:29:44:699
8.5671,-5.1121,-0.2353,-0.1844,0.1066,-0.0185,-0.1795,-0.138,0.0022,3068,2019-08-07 16:29:44:704
8.5671,-5.1121,-0.2353,-0.1844,0.1066,-0.0185,-0.1795,-0.138,0.0022,3073,2019-08-07 16:29:44:709
8.4809,-5.0214,-0.174,-0.1844,0.1066,-0.0185,-0.172,-0.1615,-0.0074,3077,2019-08-07 16:29:44:713
8.4809,-5.0214,-0.174,-0.0793,0.0036,-0.0854,-0.172,-0.1615,-0.0074,3083,2019-08-07 16:29:44:719
8.4809,-5.0214,-0.174,-0.0793,0.0036,-0.0854,-0.1763,-0.2211,-0.0106,3087,2019-08-07 16:29:44:723
8.5718,-5.0787,-0.2259,-0.0793,0.0036,-0.0854,-0.1763,-0.2211,-0.0106,3093,2019-08-07 16:29:44:729
8.5718,-5.0787,-0.2259,-0.0793,0.0036,-0.0854,-0.1795,-0.2722,-0.0127,3097,2019-08-07 16:29:44:733
8.7393,-5.0739,-0.3154,-0.2374,0.0118,-0.0264,-0.1795,-0.2722,-0.0127,3103,2019-08-07 16:29:44:739
8.7393,-5.0739,-0.3154,-0.2374,0.0118,-0.0264,-0.1635,-0.2925,0.0,3108,2019-08-07 16:29:44:744
8.7393,-5.0739,-0.3154,-0.2374,0.0118,-0.0264,-0.1635,-0.2925,0.0,3113,2019-08-07 16:29:44:749
8.9928,-5.1694,-0.4521,-0.2374,0.0118,-0.0264,-0.1635,-0.2925,0.0,3117,2019-08-07 16:29:44:753
8.9928,-5.1694,-0.4521,-0.6271,0.1661,0.1372,-0.1496,-0.2978,0.0139,3123,2019-08-07 16:29:44:759
8.9928,-5.1694,-0.4521,-0.6271,0.1661,0.1372,-0.1496,-0.2978,0.0139,3128,2019-08-07 16:29:44:764
9.1316,-5.2076,-0.5134,-0.6271,0.1661,0.1372,-0.1379,-0.2424,0.0064,3132,2019-08-07 16:29:44:768
9.1316,-5.2076,-0.5134,-0.6271,0.1661,0.1372,-0.1315,-0.1796,0.0032,3138,2019-08-07 16:29:44:774
9.0789,-5.2171,-0.7633,-0.6674,0.1914,0.2893,-0.1315,-0.1796,0.0032,3143,2019-08-07 16:29:44:779
9.0789,-5.2171,-0.7633,-0.6674,0.1914,0.2893,-0.1315,-0.1796,0.0032,3148,2019-08-07 16:29:44:784
8.9211,-5.4129,-0.6878,-0.6674,0.1914,0.2893,-0.1123,-0.0805,0.0022,3153,2019-08-07 16:29:44:789
8.9211,-5.4129,-0.6878,-0.6674,0.1914,0.2893,-0.1123,-0.0805,0.0022,3158,2019-08-07 16:29:44:794
8.9211,-5.4129,-0.6878,-0.2615,0.4695,0.033,-0.09,-0.0113,-0.0191,3162,2019-08-07 16:29:44:798
8.5287,-5.4463,-0.6218,-0.2615,0.4695,0.033,-0.09,-0.0113,-0.0191,3168,2019-08-07 16:29:44:804
8.5287,-5.4463,-0.6218,-0.2615,0.4695,0.033,-0.0676,0.0111,-0.0522,3172,2019-08-07 16:29:44:808
8.5287,-5.4463,-0.6218,-0.2615,0.4695,0.033,-0.0676,0.0111,-0.0522,3178,2019-08-07 16:29:44:814
8.4091,-5.3031,-0.5229,-0.0283,0.2471,0.0214,-0.0601,-0.0262,-0.0532,3183,2019-08-07 16:29:44:819
8.4091,-5.3031,-0.5229,-0.0283,0.2471,0.0214,-0.0601,-0.0262,-0.0532,3188,2019-08-07 16:29:44:824
8.4952,-5.2506,-0.5747,-0.0283,0.2471,0.0214,-0.0569,-0.0816,-0.0532,3193,2019-08-07 16:29:44:829
8.4952,-5.2506,-0.5747,-0.0283,0.2471,0.0214,-0.0569,-0.0816,-0.0532,3198,2019-08-07 16:29:44:834
8.4952,-5.2506,-0.5747,-0.1057,0.2364,0.0495,-0.0538,-0.1359,-0.0532,3203,2019-08-07 16:29:44:839
8.5239,-5.1646,-0.5323,-0.1057,0.2364,0.0495,-0.0538,-0.1359,-0.0532,3208,2019-08-07 16:29:44:844
8.5239,-5.1646,-0.5323,-0.1057,0.2364,0.0495,-0.0431,-0.1934,-0.0415,3212,2019-08-07 16:29:44:848
8.8301,-5.0262,-0.6643,-0.1057,0.2364,0.0495,-0.0431,-0.1934,-0.0415,3218,2019-08-07 16:29:44:854
8.8301,-5.0262,-0.6643,-0.1057,0.2364,0.0495,-0.0431,-0.1934,-0.0415,3222,2019-08-07 16:29:44:858
8.8301,-5.0262,-0.6643,-0.6055,0.0346,0.2393,-0.0388,-0.2424,-0.0085,3228,2019-08-07 16:29:44:864
9.366,-5.0405,-0.8858,-0.6055,0.0346,0.2393,-0.0388,-0.2424,-0.0085,3233,2019-08-07 16:29:44:869
9.366,-5.0405,-0.8858,-0.6055,0.0346,0.2393,-0.0474,-0.1955,0.0235,3238,2019-08-07 16:29:44:874
9.6769,-5.1837,-0.9565,-1.2584,0.1837,0.3526,-0.0474,-0.1955,0.0235,3243,2019-08-07 16:29:44:879
9.6769,-5.1837,-0.9565,-1.2584,0.1837,0.3526,-0.042,-0.1018,0.032,3248,2019-08-07 16:29:44:884
9.6769,-5.1837,-0.9565,-1.2584,0.1837,0.3526,-0.042,-0.1018,0.032,3253,2019-08-07 16:29:44:889
9.5477,-5.3126,-1.0744,-1.2584,0.1837,0.3526,-0.0207,0.0324,0.0565,3257,2019-08-07 16:29:44:893
9.5477,-5.3126,-1.0744,-0.8462,0.4452,0.3444,-0.0207,0.0324,0.0565,3263,2019-08-07 16:29:44:899
9.0263,-5.4797,-0.768,-0.8462,0.4452,0.3444,0.0016,0.1528,0.0682,3268,2019-08-07 16:29:44:904
9.0263,-5.4797,-0.768,-0.8462,0.4452,0.3444,0.0016,0.1528,0.0682,3273,2019-08-07 16:29:44:909
9.0263,-5.4797,-0.768,-0.8462,0.4452,0.3444,0.0261,0.1816,0.0693,3278,2019-08-07 16:29:44:914
8.3421,-5.4129,-0.5842,0.1429,0.4221,0.002,0.0261,0.1816,0.0693,3283,2019-08-07 16:29:44:919
8.3421,-5.4129,-0.5842,0.1429,0.4221,0.002,0.0347,0.1613,0.0576,3288,2019-08-07 16:29:44:924
8.3421,-5.4129,-0.5842,0.1429,0.4221,0.002,0.0347,0.1613,0.0576,3293,2019-08-07 16:29:44:929
7.9019,-5.2458,-0.4145,0.1429,0.4221,0.002,0.0304,0.0942,0.0565,3297,2019-08-07 16:29:44:933
7.9019,-5.2458,-0.4145,0.4859,0.1701,-0.2424,0.0304,0.0942,0.0565,3303,2019-08-07 16:29:44:939
7.9019,-5.2458,-0.4145,0.4859,0.1701,-0.2424,0.0261,5.0E-4,0.0437,3308,2019-08-07 16:29:44:944
8.0455,-5.1503,-0.3815,0.4859,0.1701,-0.2424,0.0261,5.0E-4,0.0437,3313,2019-08-07 16:29:44:949
8.0455,-5.1503,-0.3815,0.4859,0.1701,-0.2424,0.0112,-0.0688,0.0181,3319,2019-08-07 16:29:44:955
8.3325,-5.0023,-0.5559,0.4859,0.1701,-0.2424,0.0112,-0.0688,0.0181,3322,2019-08-07 16:29:44:958
8.3325,-5.0023,-0.5559,-0.0302,-0.0608,0.0369,0.0112,-0.0688,0.0181,3328,2019-08-07 16:29:44:964
8.3325,-5.0023,-0.5559,-0.0302,-0.0608,0.0369,-0.0016,-0.1018,0.0181,3332,2019-08-07 16:29:44:968
8.6196,-4.8161,-0.6501,-0.0302,-0.0608,0.0369,-0.0016,-0.1018,0.0181,3338,2019-08-07 16:29:44:974
8.6196,-4.8161,-0.6501,-0.0302,-0.0608,0.0369,-0.0122,-0.0858,0.0256,3343,2019-08-07 16:29:44:979
8.9497,-4.84,-0.669,-0.5009,-0.2148,0.0762,-0.0122,-0.0858,0.0256,3348,2019-08-07 16:29:44:984
8.9497,-4.84,-0.669,-0.5009,-0.2148,0.0762,-0.0239,-0.0645,0.0341,3353,2019-08-07 16:29:44:989
8.9497,-4.84,-0.669,-0.5009,-0.2148,0.0762,-0.0239,-0.0645,0.0341,3357,2019-08-07 16:29:44:993
9.1506,-4.8066,-0.9754,-0.8333,-0.1406,0.496,-0.0314,-0.0059,0.0405,3365,2019-08-07 16:29:45:001
9.1506,-4.8066,-0.9754,-0.8333,-0.1406,0.496,-0.0314,-0.0059,0.0405,3368,2019-08-07 16:29:45:004
9.2654,-4.9021,-1.0791,-0.8333,-0.1406,0.496,-0.0314,-0.0059,0.0405,3373,2019-08-07 16:29:45:009
9.2654,-4.9021,-1.0791,-0.8333,-0.1406,0.496,-0.0335,0.0814,0.0544,3378,2019-08-07 16:29:45:014
9.2654,-4.9021,-1.0791,-0.8333,-0.1406,0.496,-0.0335,0.0814,0.0544,3382,2019-08-07 16:29:45:018
9.0071,-5.0691,-0.7869,-0.616,0.0211,0.2004,-0.0133,0.1634,0.0725,3388,2019-08-07 16:29:45:024
9.0071,-5.0691,-0.7869,-0.616,0.0211,0.2004,-0.0133,0.1634,0.0725,3393,2019-08-07 16:29:45:029
8.4521,-5.1598,-0.6879,-0.616,0.0211,0.2004,0.0176,0.172,0.0735,3398,2019-08-07 16:29:45:034
8.4521,-5.1598,-0.6879,-0.616,0.0211,0.2004,0.0176,0.172,0.0735,3403,2019-08-07 16:29:45:039
8.4521,-5.1598,-0.6879,0.1633,0.0807,0.1342,0.0251,0.123,0.0533,3408,2019-08-07 16:29:45:044
8.1459,-5.1264,-0.7256,0.1633,0.0807,0.1342,0.0251,0.123,0.0533,3413,2019-08-07 16:29:45:049
8.1459,-5.1264,-0.7256,0.1633,0.0807,0.1342,0.0048,0.0409,0.0256,3417,2019-08-07 16:29:45:053
8.1459,-5.1264,-0.7256,0.1633,0.0807,0.1342,0.0048,0.0409,0.0256,3423,2019-08-07 16:29:45:059
8.0024,-4.9737,-0.3956,0.361,-0.0881,-0.153,-0.009,-0.0315,0.0075,3428,2019-08-07 16:29:45:064
8.0024,-4.9737,-0.3956,0.361,-0.0881,-0.153,-0.009,-0.0315,0.0075,3432,2019-08-07 16:29:45:068
8.3564,-4.9164,-0.471,0.361,-0.0881,-0.153,-0.0335,-0.1103,-0.0106,3438,2019-08-07 16:29:45:074
8.3564,-4.9164,-0.471,0.361,-0.0881,-0.153,-0.0335,-0.1103,-0.0106,3443,2019-08-07 16:29:45:079
8.3564,-4.9164,-0.471,-0.17,-0.2484,-0.0606,-0.0335,-0.1103,-0.0106,3448,2019-08-07 16:29:45:084
8.543,-4.8257,-0.4758,-0.17,-0.2484,-0.0606,-0.0516,-0.1433,-0.0213,3452,2019-08-07 16:29:45:088
8.543,-4.8257,-0.4758,-0.17,-0.2484,-0.0606,-0.0516,-0.1433,-0.0213,3458,2019-08-07 16:29:45:094
8.7152,-4.8161,-0.6407,-0.17,-0.2484,-0.0606,-0.0729,-0.171,-0.0042,3463,2019-08-07 16:29:45:099
8.7152,-4.8161,-0.6407,-0.5613,-0.1428,0.0854,-0.0729,-0.171,-0.0042,3467,2019-08-07 16:29:45:103
8.7152,-4.8161,-0.6407,-0.5613,-0.1428,0.0854,-0.0729,-0.171,-0.0042,3473,2019-08-07 16:29:45:109
9.495,-4.883,-0.8104,-0.5613,-0.1428,0.0854,-0.1028,-0.1433,-0.0032,3478,2019-08-07 16:29:45:114
9.495,-4.883,-0.8104,-0.5613,-0.1428,0.0854,-0.1028,-0.1433,-0.0032,3482,2019-08-07 16:29:45:118
9.6816,-5.1121,-1.1687,-1.2829,-0.0657,0.5086,-0.1251,-0.0571,0.0086,3488,2019-08-07 16:29:45:124
9.6816,-5.1121,-1.1687,-1.2829,-0.0657,0.5086,-0.1251,-0.0571,0.0086,3493,2019-08-07 16:29:45:129
9.6816,-5.1121,-1.1687,-1.2829,-0.0657,0.5086,-0.1081,0.1176,0.0224,3499,2019-08-07 16:29:45:135
9.2941,-5.3938,-0.9283,-1.2829,-0.0657,0.5086,-0.1081,0.1176,0.0224,3503,2019-08-07 16:29:45:139
9.2941,-5.3938,-0.9283,-0.5552,0.3683,0.2352,-0.058,0.27,0.0299,3508,2019-08-07 16:29:45:144
9.2941,-5.3938,-0.9283,-0.5552,0.3683,0.2352,-0.058,0.27,0.0299,3512,2019-08-07 16:29:45:148
8.519,-5.3603,-0.6407,-0.5552,0.3683,0.2352,-0.058,0.27,0.0299,3518,2019-08-07 16:29:45:154
8.519,-5.3603,-0.6407,-0.5552,0.3683,0.2352,-0.0122,0.2561,0.0522,3523,2019-08-07 16:29:45:159
7.9449,-5.3365,-0.504,0.4375,0.2735,-0.0768,-0.0122,0.2561,0.0522,3528,2019-08-07 16:29:45:164
7.9449,-5.3365,-0.504,0.4375,0.2735,-0.0768,0.0027,0.1496,0.0533,3532,2019-08-07 16:29:45:168
7.9449,-5.3365,-0.504,0.4375,0.2735,-0.0768,0.0027,0.1496,0.0533,3538,2019-08-07 16:29:45:174
7.7727,-5.3365,-0.3815,0.4375,0.2735,-0.0768,0.0134,-0.0102,0.0299,3543,2019-08-07 16:29:45:179
7.7727,-5.3365,-0.3815,0.5084,0.1957,-0.2234,0.0134,-0.0102,0.0299,3547,2019-08-07 16:29:45:183
7.9592,-5.2744,-0.3485,0.5084,0.1957,-0.2234,0.0144,-0.1146,0.0139,3553,2019-08-07 16:29:45:189
7.9592,-5.2744,-0.3485,0.5084,0.1957,-0.2234,0.0144,-0.1146,0.0139,3558,2019-08-07 16:29:45:194
7.9592,-5.2744,-0.3485,0.5084,0.1957,-0.2234,0.0134,-0.1668,-0.0042,3562,2019-08-07 16:29:45:198
8.3228,-5.1742,-0.6407,-0.0307,0.0923,0.1617,0.0134,-0.1668,-0.0042,3568,2019-08-07 16:29:45:204
8.3228,-5.1742,-0.6407,-0.0307,0.0923,0.1617,0.0134,-0.1668,-0.0042,3573,2019-08-07 16:29:45:209
8.6242,-5.0262,-0.6785,-0.0307,0.0923,0.1617,0.0123,-0.1551,-0.0234,3578,2019-08-07 16:29:45:214
8.6242,-5.0262,-0.6785,-0.0307,0.0923,0.1617,0.0123,-0.1551,-0.0234,3583,2019-08-07 16:29:45:219
8.6242,-5.0262,-0.6785,-0.5223,-0.0652,0.1145,0.0059,-0.121,-0.0223,3588,2019-08-07 16:29:45:224
9.0596,-5.05,-0.7822,-0.5223,-0.0652,0.1145,0.0059,-0.121,-0.0223,3593,2019-08-07 16:29:45:229
9.0596,-5.05,-0.7822,-0.5223,-0.0652,0.1145,-0.0026,-0.0848,-0.033,3598,2019-08-07 16:29:45:234
9.1935,-4.8782,-1.0414,-0.5223,-0.0652,0.1145,-0.0026,-0.0848,-0.033,3603,2019-08-07 16:29:45:239
9.1935,-4.8782,-1.0414,-0.8723,-0.2048,0.3026,-0.0069,-0.0176,-0.0245,3608,2019-08-07 16:29:45:244
9.1935,-4.8782,-1.0414,-0.8723,-0.2048,0.3026,-0.0069,-0.0176,-0.0245,3613,2019-08-07 16:29:45:249
9.3514,-4.9259,-0.999,-0.8723,-0.2048,0.3026,-5.0E-4,0.0612,0.015,3618,2019-08-07 16:29:45:254
9.3514,-4.9259,-0.999,-0.8723,-0.2048,0.3026,-5.0E-4,0.0612,0.015,3623,2019-08-07 16:29:45:259
9.0452,-5.0882,-0.9707,-0.6651,0.026,0.3518,0.0198,0.1123,0.0213,3628,2019-08-07 16:29:45:264
9.0452,-5.0882,-0.9707,-0.6651,0.026,0.3518,0.0198,0.1123,0.0213,3633,2019-08-07 16:29:45:269
9.0452,-5.0882,-0.9707,-0.6651,0.026,0.3518,0.0198,0.1123,0.0213,3638,2019-08-07 16:29:45:274
8.4902,-5.0691,-0.7963,-0.6651,0.026,0.3518,0.0368,0.0804,0.0277,3643,2019-08-07 16:29:45:279
8.4902,-5.0691,-0.7963,-0.6651,0.026,0.3518,0.0368,0.0804,0.0277,3648,2019-08-07 16:29:45:284
8.4902,-5.0691,-0.7963,0.0368,0.1074,0.1198,0.0538,0.025,0.0469,3652,2019-08-07 16:29:45:288
8.3371,-5.2219,-0.5795,0.0368,0.1074,0.1198,0.0538,0.025,0.0469,3658,2019-08-07 16:29:45:294
8.3371,-5.2219,-0.5795,0.0368,0.1074,0.1198,0.073,-0.0251,0.0299,3663,2019-08-07 16:29:45:299
8.3371,-5.2219,-0.5795,0.0368,0.1074,0.1198,0.073,-0.0251,0.0299,3668,2019-08-07 16:29:45:304
8.3381,-5.2268,-0.6688,0.0359,0.1515,0.0748,0.073,-0.0251,0.0299,3673,2019-08-07 16:29:45:309
8.3381,-5.2268,-0.6688,0.0359,0.1515,0.0748,0.0773,-0.0421,0.0107,3677,2019-08-07 16:29:45:313
8.5152,-5.1408,-0.749,0.0359,0.1515,0.0748,0.0773,-0.0421,0.0107,3683,2019-08-07 16:29:45:319
8.5152,-5.1408,-0.749,0.0359,0.1515,0.0748,0.0656,-0.0262,0.0,3687,2019-08-07 16:29:45:323
8.5104,-4.969,-0.7584,-0.0992,-0.0319,0.1889,0.0656,-0.0262,0.0,3693,2019-08-07 16:29:45:329
8.5104,-4.969,-0.7584,-0.0992,-0.0319,0.1889,0.0283,0.0015,-0.0085,3697,2019-08-07 16:29:45:333
8.5104,-4.969,-0.7584,-0.0992,-0.0319,0.1889,0.0283,0.0015,-0.0085,3703,2019-08-07 16:29:45:339
8.5008,-4.9833,-0.4614,-0.0992,-0.0319,0.1889,-0.0069,0.0079,-0.0181,3709,2019-08-07 16:29:45:345
8.5008,-4.9833,-0.4614,-0.1501,-0.0722,-0.0776,-0.0069,0.0079,-0.0181,3712,2019-08-07 16:29:45:348
8.5008,-4.9833,-0.4614,-0.1501,-0.0722,-0.0776,-0.0101,-0.0091,-0.0255,3718,2019-08-07 16:29:45:354
8.4721,-5.031,-0.6453,-0.1501,-0.0722,-0.0776,-0.0101,-0.0091,-0.0255,3723,2019-08-07 16:29:45:359
8.4721,-5.031,-0.6453,-0.1501,-0.0722,-0.0776,-0.0133,-0.0187,-0.0266,3727,2019-08-07 16:29:45:363
8.6109,-5.0835,-0.5086,-0.2189,0.0141,-0.0521,-0.0133,-0.0187,-0.0266,3733,2019-08-07 16:29:45:369
8.6109,-5.0835,-0.5086,-0.2189,0.0141,-0.0521,-0.0133,-0.0187,-0.0266,3738,2019-08-07 16:29:45:374
8.6109,-5.0835,-0.5086,-0.2189,0.0141,-0.0521,-0.0079,-0.0549,-0.0223,3743,2019-08-07 16:29:45:379
8.7544,-5.0931,-0.7254,-0.2189,0.0141,-0.0521,-0.0079,-0.0549,-0.0223,3747,2019-08-07 16:29:45:383
8.7544,-5.0931,-0.7254,-0.427,0.0859,0.227,0.0059,-0.0272,-0.0106,3753,2019-08-07 16:29:45:389
8.874,-5.2363,-0.7819,-0.427,0.0859,0.227,0.0059,-0.0272,-0.0106,3758,2019-08-07 16:29:45:394
8.874,-5.2363,-0.7819,-0.427,0.0859,0.227,0.0016,-0.0038,-0.0085,3763,2019-08-07 16:29:45:399
8.874,-5.2363,-0.7819,-0.427,0.0859,0.227,0.0016,-0.0038,-0.0085,3767,2019-08-07 16:29:45:403
8.654,-5.2172,-0.6122,-0.2728,0.1549,0.0074,0.0016,-0.0038,-0.0085,3773,2019-08-07 16:29:45:409
8.654,-5.2172,-0.6122,-0.2728,0.1549,0.0074,-0.0079,-0.0102,-0.0063,3778,2019-08-07 16:29:45:414
8.4482,-5.2172,-0.419,-0.2728,0.1549,0.0074,-0.0133,-0.0368,-0.017,3783,2019-08-07 16:29:45:419
8.4482,-5.2172,-0.419,-0.2728,0.1549,0.0074,-0.0133,-0.0368,-0.017,3787,2019-08-07 16:29:45:423
8.4482,-5.2172,-0.419,-0.0328,0.1615,-0.1902,-0.0133,-0.0368,-0.017,3793,2019-08-07 16:29:45:429
8.4482,-5.2172,-0.4425,-0.0328,0.1615,-0.1902,-0.0101,-0.0624,-0.0394,3797,2019-08-07 16:29:45:433
8.4482,-5.2172,-0.4425,-0.0328,0.1615,-0.1902,-0.0101,-0.0624,-0.0394,3803,2019-08-07 16:29:45:439
8.4482,-5.2172,-0.4425,-0.0328,0.1615,-0.1902,-0.0133,-0.0688,-0.0532,3807,2019-08-07 16:29:45:443
8.6205,-5.0597,-0.5792,-0.2252,0.0212,-0.0228,-0.0133,-0.0688,-0.0532,3813,2019-08-07 16:29:45:449
8.6205,-5.0597,-0.5792,-0.2252,0.0212,-0.0228,-0.0133,-0.0688,-0.0532,3817,2019-08-07 16:29:45:453
8.6253,-5.0119,-0.5038,-0.2252,0.0212,-0.0228,-0.025,-0.0453,-0.0415,3823,2019-08-07 16:29:45:459
8.6253,-5.0119,-0.5038,-0.2252,0.0212,-0.0228,-0.025,-0.0453,-0.0415,3827,2019-08-07 16:29:45:463
8.7162,-5.1361,-0.7725,-0.3072,0.058,0.1135,-0.025,-0.0411,-0.034,3833,2019-08-07 16:29:45:469
8.7162,-5.1361,-0.7725,-0.3072,0.058,0.1135,-0.025,-0.0411,-0.034,3838,2019-08-07 16:29:45:474
8.7162,-5.1361,-0.7725,-0.3072,0.058,0.1135,-0.0175,-0.0251,-0.0468,3843,2019-08-07 16:29:45:479
8.8358,-4.9499,-0.5604,-0.3072,0.058,0.1135,-0.0175,-0.0251,-0.0468,3848,2019-08-07 16:29:45:484
8.8358,-4.9499,-0.5604,-0.4648,-0.2193,-0.1237,-0.0165,-0.0262,-0.0362,3853,2019-08-07 16:29:45:489
8.8358,-4.9499,-0.5604,-0.4648,-0.2193,-0.1237,-0.0165,-0.0262,-0.0362,3858,2019-08-07 16:29:45:494
8.788,-4.864,-0.6688,-0.4648,-0.2193,-0.1237,-0.0303,-0.0517,-0.0042,3863,2019-08-07 16:29:45:499
8.788,-4.864,-0.6688,-0.4648,-0.2193,-0.1237,-0.0303,-0.0517,-0.0042,3868,2019-08-07 16:29:45:504
8.7736,-5.117,-0.7631,-0.3781,0.0842,0.1136,-0.0229,-0.0816,0.0182,3872,2019-08-07 16:29:45:508
8.7736,-5.117,-0.7631,-0.3781,0.0842,0.1136,-0.0229,-0.0816,0.0182,3878,2019-08-07 16:29:45:514
8.7736,-5.117,-0.7631,-0.3781,0.0842,0.1136,-0.0122,-0.0816,0.0213,3883,2019-08-07 16:29:45:519
8.6014,-5.1934,-0.6499,-0.3781,0.0842,0.1136,-0.0122,-0.0816,0.0213,3887,2019-08-07 16:29:45:523
8.6014,-5.1934,-0.6499,-0.1566,0.0757,0.2019,0.0038,-0.0794,0.0256,3893,2019-08-07 16:29:45:529
8.611,-5.117,-0.7819,-0.1566,0.0757,0.2019,0.0038,-0.0794,0.0256,3898,2019-08-07 16:29:45:534
8.611,-5.117,-0.7819,-0.1566,0.0757,0.2019,0.0123,-0.056,0.0299,3903,2019-08-07 16:29:45:539
8.611,-5.117,-0.7819,-0.1566,0.0757,0.2019,0.0123,-0.056,0.0299,3908,2019-08-07 16:29:45:544
8.7306,-5.0692,-0.7254,-0.2699,0.0526,0.1073,-0.0016,-0.0326,0.0224,3913,2019-08-07 16:29:45:549
8.7306,-5.0692,-0.7254,-0.2699,0.0526,0.1073,-0.0016,-0.0326,0.0224,3918,2019-08-07 16:29:45:554
8.5153,-5.0883,-0.6971,-0.2699,0.0526,0.1073,-0.0154,-0.0017,0.0064,3923,2019-08-07 16:29:45:559
8.5153,-5.0883,-0.6971,-0.2699,0.0526,0.1073,-0.0154,-0.0017,0.0064,3928,2019-08-07 16:29:45:564
8.5153,-5.0883,-0.6971,-0.0555,-0.0106,-0.0654,-0.0154,-0.0017,0.0064,3933,2019-08-07 16:29:45:569
8.4675,-4.9785,-0.5934,-0.0555,-0.0106,-0.0654,-0.0293,0.0079,-0.0021,3938,2019-08-07 16:29:45:574
8.4675,-4.9785,-0.5934,-0.0555,-0.0106,-0.0654,-0.0293,0.0079,-0.0021,3943,2019-08-07 16:29:45:579
8.4675,-4.9785,-0.5934,-0.0555,-0.0106,-0.0654,-0.0474,0.0122,-0.001,3947,2019-08-07 16:29:45:583
8.4435,-4.9929,-0.6405,-0.0789,-0.0237,-0.0012,-0.0474,0.0122,-0.001,3953,2019-08-07 16:29:45:589
8.4435,-4.9929,-0.6405,-0.0789,-0.0237,-0.0012,-0.0548,0.0111,0.0011,3958,2019-08-07 16:29:45:594
8.5536,-5.012,-0.6829,-0.0789,-0.0237,-0.0012,-0.0548,0.0111,0.0011,3963,2019-08-07 16:29:45:599
8.5536,-5.012,-0.6829,-0.0789,-0.0237,-0.0012,-0.0463,-0.0113,-0.0042,3967,2019-08-07 16:29:45:603
8.5536,-5.012,-0.6829,-0.0789,-0.0237,-0.0012,-0.0463,-0.0113,-0.0042,3973,2019-08-07 16:29:45:609
8.5727,-4.9547,-0.8432,-0.1978,-0.06,0.0927,-0.0442,-0.0464,0.0075,3979,2019-08-07 16:29:45:615
8.5727,-4.9547,-0.8432,-0.1978,-0.06,0.0927,-0.0442,-0.0464,0.0075,3983,2019-08-07 16:29:45:619
8.7019,-5.1313,-0.8903,-0.1978,-0.06,0.0927,-0.0442,-0.0464,0.0075,3988,2019-08-07 16:29:45:624
8.7019,-5.1313,-0.8903,-0.1978,-0.06,0.0927,-0.0271,-0.0581,0.0245,3993,2019-08-07 16:29:45:629
8.7019,-5.1313,-0.8903,-0.3669,0.1777,0.155,-0.0271,-0.0581,0.0245,3997,2019-08-07 16:29:45:633
8.6493,-5.2172,-0.8432,-0.3669,0.1777,0.155,-0.0271,-0.0581,0.0245,4003,2019-08-07 16:29:45:639
8.6493,-5.2172,-0.8432,-0.3669,0.1777,0.155,-0.009,-0.0666,0.0107,4008,2019-08-07 16:29:45:644
8.5536,-5.1934,-0.8856,-0.1686,0.1514,0.1744,6.0E-4,-0.0794,0.0107,4013,2019-08-07 16:29:45:649
8.5536,-5.1934,-0.8856,-0.1686,0.1514,0.1744,6.0E-4,-0.0794,0.0107,4017,2019-08-07 16:29:45:653
8.5536,-5.1934,-0.8856,-0.1686,0.1514,0.1744,6.0E-4,-0.0794,0.0107,4023,2019-08-07 16:29:45:659
8.7498,-5.1599,-0.9563,-0.1686,0.1514,0.1744,0.008,-0.0752,0.0118,4028,2019-08-07 16:29:45:664
8.7498,-5.1599,-0.9563,-0.3666,0.1262,0.1429,0.008,-0.0752,0.0118,4033,2019-08-07 16:29:45:669
8.7498,-5.1599,-0.9563,-0.3666,0.1262,0.1429,0.0112,-0.039,0.0086,4038,2019-08-07 16:29:45:674
8.8168,-5.1408,-0.8998,-0.3666,0.1262,0.1429,0.0112,-0.039,0.0086,4043,2019-08-07 16:29:45:679
8.8168,-5.1408,-0.8998,-0.3666,0.1262,0.1429,0.0134,5.0E-4,-0.0042,4048,2019-08-07 16:29:45:684
8.8263,-4.9594,-0.8715,-0.3666,0.1262,0.1429,0.0134,5.0E-4,-0.0042,4053,2019-08-07 16:29:45:689
8.8263,-4.9594,-0.8715,-0.4566,-0.1061,0.1328,0.0102,0.0335,-0.0106,4058,2019-08-07 16:29:45:694
8.8263,-4.9594,-0.8715,-0.4566,-0.1061,0.1328,0.0102,0.0335,-0.0106,4063,2019-08-07 16:29:45:699
8.7307,-4.9117,-0.8526,-0.4566,-0.1061,0.1328,0.0102,0.0335,-0.0106,4068,2019-08-07 16:29:45:704
8.7307,-4.9117,-0.8526,-0.4566,-0.1061,0.1328,0.0155,0.0346,0.0075,4073,2019-08-07 16:29:45:709
8.6254,-5.1027,-0.8385,-0.2971,0.0056,0.1816,0.0155,0.0346,0.0075,4078,2019-08-07 16:29:45:714
8.6254,-5.1027,-0.8385,-0.2971,0.0056,0.1816,0.0091,0.0228,0.0139,4083,2019-08-07 16:29:45:719
8.6254,-5.1027,-0.8385,-0.2971,0.0056,0.1816,0.0091,0.0228,0.0139,4088,2019-08-07 16:29:45:724
8.5249,-5.1122,-0.6829,-0.2971,0.0056,0.1816,0.0219,-0.0134,0.0171,4093,2019-08-07 16:29:45:729
8.5249,-5.1122,-0.6829,-0.1502,0.0744,-0.018,0.0219,-0.0134,0.0171,4098,2019-08-07 16:29:45:734
8.4962,-5.0979,-0.6499,-0.1502,0.0744,-0.018,0.0261,-0.0464,0.0235,4102,2019-08-07 16:29:45:738
8.4962,-5.0979,-0.6499,-0.1502,0.0744,-0.018,0.0261,-0.0464,0.0235,4108,2019-08-07 16:29:45:744
8.4962,-5.0979,-0.6499,-0.1502,0.0744,-0.018,0.0176,-0.0635,0.0192,4113,2019-08-07 16:29:45:749
8.4341,-5.1265,-0.6923,-0.0526,0.08,-0.0287,0.0176,-0.0635,0.0192,4118,2019-08-07 16:29:45:754
8.4341,-5.1265,-0.6923,-0.0526,0.08,-0.0287,0.0176,-0.0635,0.0192,4123,2019-08-07 16:29:45:759
8.6063,-5.1361,-0.8149,-0.0526,0.08,-0.0287,-0.0048,-0.0677,0.0054,4128,2019-08-07 16:29:45:764
8.6063,-5.1361,-0.8149,-0.0526,0.08,-0.0287,-0.0048,-0.0677,0.0054,4133,2019-08-07 16:29:45:769
8.6063,-5.1361,-0.8149,-0.2882,0.0511,0.1154,-0.0271,-0.0453,-0.0138,4137,2019-08-07 16:29:45:773
8.4436,-4.9833,-0.9799,-0.2882,0.0511,0.1154,-0.0271,-0.0453,-0.0138,4143,2019-08-07 16:29:45:779
8.4436,-4.9833,-0.9799,-0.2882,0.0511,0.1154,-0.0271,-0.0453,-0.0138,4147,2019-08-07 16:29:45:783
8.6972,-5.2507,-0.3954,-0.2882,0.0511,0.1154,-0.1273,-0.1018,-0.0245,4153,2019-08-07 16:29:45:789
8.6972,-5.2507,-0.3954,-0.3497,0.19,-0.5719,-0.1273,-0.1018,-0.0245,4157,2019-08-07 16:29:45:793
8.6972,-5.2507,-0.3954,-0.3497,0.19,-0.5719,-0.0293,-0.0581,-0.0404,4163,2019-08-07 16:29:45:799
8.6685,-5.1934,-0.895,-0.3497,0.19,-0.5719,0.024,-0.0858,-0.0308,4167,2019-08-07 16:29:45:803
8.6685,-5.1934,-0.895,-0.3497,0.19,-0.5719,0.024,-0.0858,-0.0308,4173,2019-08-07 16:29:45:809
8.9843,-5.0979,-0.8715,-0.5958,0.139,0.3357,0.0261,0.0026,-0.0245,4179,2019-08-07 16:29:45:815
8.9843,-5.0979,-0.8715,-0.5958,0.139,0.3357,0.0261,0.0026,-0.0245,4183,2019-08-07 16:29:45:819
8.9843,-5.0979,-0.8715,-0.5958,0.139,0.3357,0.0261,0.0026,-0.0245,4188,2019-08-07 16:29:45:824
8.9077,-5.1122,-0.8338,-0.5958,0.139,0.3357,0.0549,0.0239,-0.0213,4193,2019-08-07 16:29:45:829
8.9077,-5.1122,-0.8338,-0.6066,0.1627,0.1458,0.0549,0.0239,-0.0213,4197,2019-08-07 16:29:45:833
9.0513,-5.2363,-0.8573,-0.6066,0.1627,0.1458,0.0901,0.1379,-0.0053,4203,2019-08-07 16:29:45:839
9.0513,-5.2363,-0.8573,-0.6066,0.1627,0.1458,0.0901,0.1379,-0.0053,4207,2019-08-07 16:29:45:843
9.0513,-5.2363,-0.8573,-0.6066,0.1627,0.1458,0.0996,0.2039,-0.0255,4213,2019-08-07 16:29:45:849
8.7116,-5.0931,-0.7536,-0.3197,0.0647,0.027,0.0996,0.2039,-0.0255,4217,2019-08-07 16:29:45:853
8.7116,-5.0931,-0.7536,-0.3197,0.0647,0.027,0.0645,0.1879,-0.0277,4223,2019-08-07 16:29:45:859
8.5346,-5.0311,-0.8055,-0.1397,0.0049,0.0987,0.0645,0.1879,-0.0277,4228,2019-08-07 16:29:45:864
8.5346,-5.0311,-0.8055,-0.1397,0.0049,0.0987,0.0144,0.1656,-0.0255,4233,2019-08-07 16:29:45:869
8.5346,-5.0311,-0.8055,-0.1397,0.0049,0.0987,0.0144,0.1656,-0.0255,4238,2019-08-07 16:29:45:874
8.6877,-5.0883,-0.3058,-0.1397,0.0049,0.0987,0.0219,0.1443,-0.0436,4243,2019-08-07 16:29:45:879
8.6877,-5.0883,-0.3058,-0.3774,0.054,-0.2,0.0219,0.1443,-0.0436,4248,2019-08-07 16:29:45:884
8.6877,-5.0883,-0.3058,-0.3774,0.054,-0.2,0.0357,0.1315,-0.0468,4253,2019-08-07 16:29:45:889
8.8551,-5.0788,-0.6546,-0.4265,0.0106,0.016,0.0357,0.1315,-0.0468,4258,2019-08-07 16:29:45:894
8.8551,-5.0788,-0.6546,-0.4265,0.0106,0.016,0.0251,0.1347,-0.0287,4263,2019-08-07 16:29:45:899
8.8839,-4.8688,-0.6688,-0.4265,0.0106,0.016,0.0251,0.1347,-0.0287,4268,2019-08-07 16:29:45:904