ACCELEROMETER X (m/s²),ACCELEROMETER Y (m/s²),ACCELEROMETER Z (m/s²),LINEAR ACCELERATION X (m/s²),LINEAR ACCELERATION Y (m/s²),LINEAR ACCELERATION Z (m/s²),GYROSCOPE X (rad/s),GYROSCOPE Y (rad/s),GYROSCOPE Z (rad/s),Time since start in ms ,YYYY-MO-DD HH-MI-SS_SSS
8.4301,-5.8236,0.3684,-0.2124,-0.0474,0.0951,-0.0335,-0.0422,0.0267,3,2019-08-07 16:28:49:329
8.4301,-5.8236,0.3684,-0.4057,0.1159,0.1536,-0.0207,0.0037,0.0309,8,2019-08-07 16:28:49:334
8.4301,-5.8236,0.3684,-0.4057,0.1159,0.1536,-0.0207,0.0037,0.0309,12,2019-08-07 16:28:49:338
8.3679,-5.8188,0.4156,-0.4057,0.1159,0.1536,-0.0026,0.0495,0.0299,18,2019-08-07 16:28:49:344
8.3679,-5.8188,0.4156,-0.4057,0.1159,0.1536,-0.0026,0.0495,0.0299,22,2019-08-07 16:28:49:348
8.3679,-5.8188,0.4156,-0.1892,0.1067,0.1352,0.0165,0.0708,0.0309,28,2019-08-07 16:28:49:354
8.1383,-5.8188,0.3166,-0.1892,0.1067,0.1352,0.0165,0.0708,0.0309,32,2019-08-07 16:28:49:358
8.1383,-5.8188,0.3166,-0.1892,0.1067,0.1352,0.0219,0.0729,0.0309,38,2019-08-07 16:28:49:364
7.9134,-5.8618,0.5428,-0.1892,0.1067,0.1352,0.0219,0.0729,0.0309,43,2019-08-07 16:28:49:369
7.9134,-5.8618,0.5428,0.0788,0.1585,-0.0682,0.0315,0.0452,0.0277,48,2019-08-07 16:28:49:374
7.9134,-5.8618,0.5428,0.0788,0.1585,-0.0682,0.0315,0.0452,0.0277,53,2019-08-07 16:28:49:379
7.8895,-5.8236,0.5428,0.0788,0.1585,-0.0682,0.0315,0.0452,0.0277,58,2019-08-07 16:28:49:384
7.8895,-5.8236,0.5428,0.0788,0.1585,-0.0682,0.04,-0.0091,0.016,62,2019-08-07 16:28:49:388
7.8895,-5.8236,0.5428,0.0614,0.0641,0.0036,0.04,-0.0091,0.016,68,2019-08-07 16:28:49:394
7.8752,-5.7329,0.5381,0.0614,0.0641,0.0036,0.0325,-0.0571,0.0203,72,2019-08-07 16:28:49:398
7.8752,-5.7329,0.5381,0.0614,0.0641,0.0036,0.0325,-0.0571,0.0203,78,2019-08-07 16:28:49:404
8.1718,-5.7615,0.524,0.0614,0.0641,0.0036,0.0261,-0.0667,0.0182,83,2019-08-07 16:28:49:409
8.1718,-5.7615,0.524,-0.2081,0.0375,0.0209,0.0261,-0.0667,0.0182,88,2019-08-07 16:28:49:414
8.1766,-5.7186,0.4486,-0.2081,0.0375,0.0209,0.0197,-0.0581,0.0107,93,2019-08-07 16:28:49:419
8.1766,-5.7186,0.4486,-0.2081,0.0375,0.0209,0.0197,-0.0581,0.0107,98,2019-08-07 16:28:49:424
8.1766,-5.7186,0.4486,-0.2081,0.0375,0.0209,0.0197,-0.0581,0.0107,103,2019-08-07 16:28:49:429
8.2771,-5.7472,0.4156,-0.3089,0.0462,0.0762,0.0123,-0.0219,0.0118,107,2019-08-07 16:28:49:433
8.2771,-5.7472,0.4156,-0.3089,0.0462,0.0762,0.0123,-0.0219,0.0118,113,2019-08-07 16:28:49:439
8.2771,-5.7472,0.4156,-0.3089,0.0462,0.0762,0.008,0.0164,0.0086,117,2019-08-07 16:28:49:443
8.301,-5.7902,0.4439,-0.3089,0.0462,0.0762,0.008,0.0164,0.0086,123,2019-08-07 16:28:49:449
8.301,-5.7902,0.4439,-0.3477,0.1078,0.0329,0.0038,0.0527,0.0054,128,2019-08-07 16:28:49:454
8.2675,-5.7997,0.4486,-0.3477,0.1078,0.0329,0.0038,0.0527,0.0054,133,2019-08-07 16:28:49:459
8.2675,-5.7997,0.4486,-0.3477,0.1078,0.0329,0.0027,0.0942,-0.0042,138,2019-08-07 16:28:49:464
8.2675,-5.7997,0.4486,-0.3477,0.1078,0.0329,0.0027,0.0942,-0.0042,143,2019-08-07 16:28:49:469
8.0044,-5.7424,0.4344,-0.0751,0.109,0.0618,0.0048,0.1112,-0.0053,148,2019-08-07 16:28:49:474
8.0044,-5.7424,0.4344,-0.0751,0.109,0.0618,0.0048,0.1112,-0.0053,153,2019-08-07 16:28:49:479
7.9949,-5.8331,0.5947,-0.0751,0.109,0.0618,0.0112,0.0889,0.0032,158,2019-08-07 16:28:49:484
7.9949,-5.8331,0.5947,-0.0751,0.109,0.0618,0.0112,0.0889,0.0032,162,2019-08-07 16:28:49:488
7.9949,-5.8331,0.5947,0.0477,0.0653,-0.0965,0.0187,0.0335,0.0054,168,2019-08-07 16:28:49:494
7.9614,-5.7806,0.6419,0.0477,0.0653,-0.0965,0.0187,0.0335,0.0054,172,2019-08-07 16:28:49:498
7.9614,-5.7806,0.6419,0.0477,0.0653,-0.0965,0.0187,-0.0336,0.0086,178,2019-08-07 16:28:49:504
8.014,-5.6517,0.6419,0.0477,0.0653,-0.0965,0.0187,-0.0336,0.0086,183,2019-08-07 16:28:49:509
8.014,-5.6517,0.6419,-0.144,0.0027,0.0151,0.0187,-0.0336,0.0086,188,2019-08-07 16:28:49:514
8.014,-5.6517,0.6419,-0.144,0.0027,0.0151,0.007,-0.1157,0.0096,192,2019-08-07 16:28:49:518
8.2915,-5.7425,0.4533,-0.144,0.0027,0.0151,0.007,-0.1157,0.0096,198,2019-08-07 16:28:49:524
8.2915,-5.7425,0.4533,-0.144,0.0027,0.0151,-0.0037,-0.1189,0.015,203,2019-08-07 16:28:49:529
8.2915,-5.7425,0.4533,-0.144,0.0027,0.0151,-0.0037,-0.1189,0.015,208,2019-08-07 16:28:49:534
8.4972,-6.005,0.4675,-0.5311,0.3022,0.038,-0.0037,-0.1189,0.015,213,2019-08-07 16:28:49:539
8.4972,-6.005,0.4675,-0.5311,0.3022,0.038,0.0123,-0.0741,0.0107,218,2019-08-07 16:28:49:544
8.3729,-5.962,0.5193,-0.5311,0.3022,0.038,0.0123,-0.0741,0.0107,223,2019-08-07 16:28:49:549
8.3729,-5.962,0.5193,-0.5311,0.3022,0.038,0.0432,-0.0134,0.0128,228,2019-08-07 16:28:49:554
8.3729,-5.962,0.5193,-0.3689,0.2867,-0.0585,0.0432,-0.0134,0.0128,233,2019-08-07 16:28:49:559
8.1241,-6.0002,0.4769,-0.3689,0.2867,-0.0585,0.0645,0.042,0.0064,238,2019-08-07 16:28:49:564
8.1241,-6.0002,0.4769,-0.3689,0.2867,-0.0585,0.0645,0.042,0.0064,243,2019-08-07 16:28:49:569
8.1241,-6.0002,0.4769,-0.3689,0.2867,-0.0585,0.0645,0.042,0.0064,247,2019-08-07 16:28:49:573
7.9184,-5.9095,0.6749,0.0455,0.2041,-0.164,0.0709,0.0335,0.0054,253,2019-08-07 16:28:49:579
7.9184,-5.9095,0.6749,0.0455,0.2041,-0.164,0.0709,0.0335,0.0054,258,2019-08-07 16:28:49:584
7.8945,-5.9048,0.6277,0.0687,0.199,-0.1103,0.0698,0.0069,-0.001,263,2019-08-07 16:28:49:589
7.8945,-5.9048,0.6277,0.0687,0.199,-0.1103,0.0698,0.0069,-0.001,268,2019-08-07 16:28:49:594
7.8945,-5.9048,0.6277,0.0687,0.199,-0.1103,0.0602,-0.0251,-0.0106,273,2019-08-07 16:28:49:599
7.9615,-5.8809,0.6796,0.0687,0.199,-0.1103,0.0602,-0.0251,-0.0106,278,2019-08-07 16:28:49:604
7.9615,-5.8809,0.6796,-0.1126,0.143,-0.0898,0.0581,-0.0443,-0.0117,283,2019-08-07 16:28:49:609
8.1146,-5.857,0.6183,-0.1126,0.143,-0.0898,0.0581,-0.0443,-0.0117,288,2019-08-07 16:28:49:614
8.1146,-5.857,0.6183,-0.1126,0.143,-0.0898,0.057,-0.0432,-0.001,293,2019-08-07 16:28:49:619
8.1146,-5.857,0.6183,-0.1126,0.143,-0.0898,0.057,-0.0432,-0.001,299,2019-08-07 16:28:49:625
8.2581,-5.8093,0.5995,-0.2933,0.1064,-0.0753,0.057,-0.0432,-0.001,303,2019-08-07 16:28:49:629
8.2581,-5.8093,0.5995,-0.2933,0.1064,-0.0753,0.056,-0.0208,0.0096,309,2019-08-07 16:28:49:635
8.2677,-5.752,0.5476,-0.2933,0.1064,-0.0753,0.056,-0.0208,0.0096,313,2019-08-07 16:28:49:639
8.2677,-5.752,0.5476,-0.2933,0.1064,-0.0753,0.0549,-0.007,0.0171,318,2019-08-07 16:28:49:644
8.2677,-5.752,0.5476,-0.2608,0.1198,0.0228,0.0549,-0.007,0.0171,323,2019-08-07 16:28:49:649
8.2151,-5.7902,0.4958,-0.2608,0.1198,0.0228,0.0528,0.0132,0.0246,328,2019-08-07 16:28:49:654
8.2151,-5.7902,0.4958,-0.2608,0.1198,0.0228,0.0528,0.0132,0.0246,333,2019-08-07 16:28:49:659
8.2151,-5.7902,0.4958,-0.2608,0.1198,0.0228,0.0442,0.0239,0.0235,338,2019-08-07 16:28:49:664
8.0477,-5.8093,0.59,-0.0866,0.1023,-0.0533,0.0442,0.0239,0.0235,342,2019-08-07 16:28:49:668
8.0477,-5.8093,0.59,-0.0866,0.1023,-0.0533,0.0421,0.009,0.0224,349,2019-08-07 16:28:49:675
7.9137,-5.7854,0.623,-0.0866,0.1023,-0.0533,0.0421,0.009,0.0224,352,2019-08-07 16:28:49:678
7.9137,-5.7854,0.623,-0.0866,0.1023,-0.0533,0.0421,0.009,0.0224,358,2019-08-07 16:28:49:684
7.9137,-5.7854,0.623,0.0205,0.0511,-0.0375,0.0336,-0.0166,0.0171,363,2019-08-07 16:28:49:689
7.9233,-5.8332,0.5853,0.0205,0.0511,-0.0375,0.0336,-0.0166,0.0171,368,2019-08-07 16:28:49:694
7.9233,-5.8332,0.5853,0.0205,0.0511,-0.0375,0.0283,-0.0294,0.0128,373,2019-08-07 16:28:49:699
7.9233,-5.8332,0.5853,0.0205,0.0511,-0.0375,0.0283,-0.0294,0.0128,378,2019-08-07 16:28:49:704
8.0238,-5.7043,0.5335,-0.1004,-0.0081,0.0137,0.0251,-0.0187,0.0086,383,2019-08-07 16:28:49:709
8.0238,-5.7043,0.5335,-0.1004,-0.0081,0.0137,0.0251,-0.0187,0.0086,388,2019-08-07 16:28:49:714
8.0477,-5.6852,0.5806,-0.1004,-0.0081,0.0137,0.0251,-0.0187,0.0086,392,2019-08-07 16:28:49:718
8.0477,-5.6852,0.5806,-0.1004,-0.0081,0.0137,0.0283,-0.0017,0.0064,398,2019-08-07 16:28:49:724
8.0238,-5.6709,0.5241,-0.0914,-0.0134,0.0815,0.0293,0.0058,0.0032,403,2019-08-07 16:28:49:729
8.0238,-5.6709,0.5241,-0.0914,-0.0134,0.0815,0.0293,0.0058,0.0032,408,2019-08-07 16:28:49:734
8.0238,-5.6709,0.5241,-0.0914,-0.0134,0.0815,0.0293,0.0058,0.0032,413,2019-08-07 16:28:49:739
7.9616,-5.6709,0.5806,-0.0914,-0.0134,0.0815,0.0315,-0.0027,-0.0021,418,2019-08-07 16:28:49:744
7.9616,-5.6709,0.5806,-0.0053,-0.0131,0.0048,0.0315,-0.0027,-0.0021,423,2019-08-07 16:28:49:749
7.9616,-5.6709,0.5806,-0.0053,-0.0131,0.0048,0.0357,-0.0251,0.0096,427,2019-08-07 16:28:49:753
7.9234,-5.7711,0.5571,-0.0053,-0.0131,0.0048,0.0357,-0.0251,0.0096,433,2019-08-07 16:28:49:759
7.9234,-5.7711,0.5571,-0.0053,-0.0131,0.0048,0.0357,-0.0251,0.0096,437,2019-08-07 16:28:49:763
7.9234,-5.7711,0.5571,-0.0153,-0.0042,-0.0807,0.0442,-0.0485,0.0022,443,2019-08-07 16:28:49:769
7.9856,-5.69,0.6231,-0.0153,-0.0042,-0.0807,0.0442,-0.0485,0.0022,448,2019-08-07 16:28:49:774
7.9856,-5.69,0.6231,-0.0153,-0.0042,-0.0807,0.041,-0.0645,-0.0063,453,2019-08-07 16:28:49:779
8.0047,-5.6613,0.6325,-0.0153,-0.0042,-0.0807,0.041,-0.0645,-0.0063,457,2019-08-07 16:28:49:783
8.0047,-5.6613,0.6325,-0.1237,-0.0502,-0.0067,0.0272,-0.0784,-0.0127,463,2019-08-07 16:28:49:789
8.0047,-5.6613,0.6325,-0.1237,-0.0502,-0.0067,0.0272,-0.0784,-0.0127,467,2019-08-07 16:28:49:793
8.1243,-5.7282,0.5429,-0.1237,-0.0502,-0.0067,0.0112,-0.0656,-0.0234,473,2019-08-07 16:28:49:799
8.1243,-5.7282,0.5429,-0.1237,-0.0502,-0.0067,0.0112,-0.0656,-0.0234,478,2019-08-07 16:28:49:804
8.1291,-5.7473,0.5759,-0.1677,0.0403,-0.0444,6.0E-4,-0.0517,-0.0276,482,2019-08-07 16:28:49:808
8.1291,-5.7473,0.5759,-0.1677,0.0403,-0.0444,6.0E-4,-0.0517,-0.0276,488,2019-08-07 16:28:49:814
8.1291,-5.7473,0.5759,-0.1677,0.0403,-0.0444,-5.0E-4,-0.0347,-0.0234,493,2019-08-07 16:28:49:819
8.11,-5.7854,0.4534,-0.1677,0.0403,-0.0444,-5.0E-4,-0.0347,-0.0234,499,2019-08-07 16:28:49:825
8.11,-5.7854,0.4534,-0.1643,0.1399,0.0344,6.0E-4,-0.0272,-0.0245,502,2019-08-07 16:28:49:828
8.1196,-5.8714,0.5005,-0.1643,0.1399,0.0344,6.0E-4,-0.0272,-0.0245,508,2019-08-07 16:28:49:834
8.1196,-5.8714,0.5005,-0.1643,0.1399,0.0344,0.0059,-0.0187,-0.0255,512,2019-08-07 16:28:49:838
8.1196,-5.8714,0.5005,-0.1643,0.1399,0.0344,0.0059,-0.0187,-0.0255,518,2019-08-07 16:28:49:844
8.0622,-5.8284,0.5241,-0.1133,0.1441,0.0498,0.0112,-0.0358,-0.0245,523,2019-08-07 16:28:49:849
8.0622,-5.8284,0.5241,-0.1133,0.1441,0.0498,0.0112,-0.0358,-0.0245,528,2019-08-07 16:28:49:854
8.0957,-5.8332,0.4628,-0.1133,0.1441,0.0498,0.0155,-0.0475,-0.0202,533,2019-08-07 16:28:49:859
8.0957,-5.8332,0.4628,-0.1133,0.1441,0.0498,0.0155,-0.0475,-0.0202,538,2019-08-07 16:28:49:864
8.067,-5.8332,0.5241,-0.0961,0.138,-0.0085,0.0229,-0.073,-0.0149,543,2019-08-07 16:28:49:869
8.067,-5.8332,0.5241,-0.0961,0.138,-0.0085,0.0229,-0.073,-0.0149,548,2019-08-07 16:28:49:874
8.067,-5.8332,0.5241,-0.0961,0.138,-0.0085,0.0229,-0.073,-0.0149,553,2019-08-07 16:28:49:879
8.1866,-5.8427,0.5382,-0.0961,0.138,-0.0085,0.0315,-0.0773,-0.0074,558,2019-08-07 16:28:49:884
8.1866,-5.8427,0.5382,-0.0961,0.138,-0.0085,0.0315,-0.0773,-0.0074,563,2019-08-07 16:28:49:889
8.2105,-5.8666,0.4864,-0.2617,0.135,0.0343,0.0315,-0.072,-0.0127,568,2019-08-07 16:28:49:894
8.2105,-5.8666,0.4864,-0.2617,0.135,0.0343,0.0315,-0.072,-0.0127,573,2019-08-07 16:28:49:899
8.2105,-5.8666,0.4864,-0.2617,0.135,0.0343,0.0261,-0.0517,-0.017,578,2019-08-07 16:28:49:904
8.1244,-5.8141,0.4911,-0.2617,0.135,0.0343,0.0261,-0.0517,-0.017,582,2019-08-07 16:28:49:908
8.1244,-5.8141,0.4911,-0.1398,0.1521,0.0373,0.0187,-0.0294,-0.0149,588,2019-08-07 16:28:49:914
8.1244,-5.8141,0.4911,-0.1398,0.1521,0.0373,0.0187,-0.0294,-0.0149,593,2019-08-07 16:28:49:919
8.0766,-5.8905,0.543,-0.1398,0.1521,0.0373,0.0112,-0.0198,-0.0159,598,2019-08-07 16:28:49:924
8.0766,-5.8905,0.543,-0.0471,0.1735,-0.0633,0.0134,-0.023,-0.0202,603,2019-08-07 16:28:49:929
8.0144,-5.8427,0.5712,-0.0471,0.1735,-0.0633,0.0134,-0.023,-0.0202,608,2019-08-07 16:28:49:934
8.0144,-5.8427,0.5712,-0.0471,0.1735,-0.0633,0.0134,-0.023,-0.0202,613,2019-08-07 16:28:49:939
8.0144,-5.8427,0.5712,-0.0471,0.1735,-0.0633,0.0134,-0.04,-0.0223,618,2019-08-07 16:28:49:944
8.0527,-5.8332,0.4864,-0.0471,0.1735,-0.0633,0.0134,-0.04,-0.0223,622,2019-08-07 16:28:49:948
8.0527,-5.8332,0.4864,-0.1357,0.0857,0.008,0.0091,-0.0443,-0.017,628,2019-08-07 16:28:49:954
8.1436,-5.7807,0.5147,-0.1357,0.0857,0.008,0.0091,-0.0443,-0.017,632,2019-08-07 16:28:49:958
8.1436,-5.7807,0.5147,-0.1357,0.0857,0.008,0.0144,-0.0528,-0.0159,638,2019-08-07 16:28:49:964
8.1436,-5.7807,0.5147,-0.1357,0.0857,0.008,0.0144,-0.0528,-0.0159,643,2019-08-07 16:28:49:969
8.2154,-5.6661,0.543,-0.2336,-0.0161,-0.0547,0.0197,-0.0613,-0.0106,648,2019-08-07 16:28:49:974
8.2154,-5.6661,0.543,-0.2336,-0.0161,-0.0547,0.0197,-0.0613,-0.0106,653,2019-08-07 16:28:49:979
8.3063,-5.7091,0.4864,-0.2336,-0.0161,-0.0547,0.0197,-0.0613,-0.0106,658,2019-08-07 16:28:49:984
8.3063,-5.7091,0.4864,-0.2336,-0.0161,-0.0547,0.0144,-0.0592,-0.0021,663,2019-08-07 16:28:49:989
8.3063,-5.7091,0.4864,-0.332,-0.0139,-0.0718,0.0144,-0.0592,-0.0021,667,2019-08-07 16:28:49:993
8.3446,-5.6136,0.51,-0.332,-0.0139,-0.0718,0.0176,-0.0517,0.0022,673,2019-08-07 16:28:49:999
8.3446,-5.6136,0.51,-0.2932,0.0391,-0.0469,0.0176,-0.0517,0.0022,677,2019-08-07 16:28:50:003
8.2585,-5.69,0.5288,-0.2932,0.0391,-0.0469,0.0176,-0.0358,0.0064,683,2019-08-07 16:28:50:009
8.2585,-5.69,0.5288,-0.2932,0.0391,-0.0469,0.0176,-0.0358,0.0064,688,2019-08-07 16:28:50:014
8.2585,-5.69,0.5288,-0.2932,0.0391,-0.0469,0.0123,-0.0294,1.0E-4,693,2019-08-07 16:28:50:019
8.2346,-5.6518,0.4487,-0.2495,-0.0271,0.0245,0.0123,-0.0294,1.0E-4,699,2019-08-07 16:28:50:025
8.2346,-5.6518,0.4487,-0.2495,-0.0271,0.0245,0.007,-0.0134,1.0E-4,703,2019-08-07 16:28:50:029
8.1868,-5.6518,0.5288,-0.2495,-0.0271,0.0245,0.007,-0.0134,1.0E-4,708,2019-08-07 16:28:50:034
8.1868,-5.6518,0.5288,-0.2495,-0.0271,0.0245,0.007,-0.0134,1.0E-4,713,2019-08-07 16:28:50:039
8.1868,-5.6518,0.5288,-0.239,-0.0068,-0.0569,0.0091,-0.0102,-0.001,718,2019-08-07 16:28:50:044
8.1581,-5.647,0.5618,-0.239,-0.0068,-0.0569,0.0091,-0.0102,-0.001,722,2019-08-07 16:28:50:048
8.1581,-5.647,0.5618,-0.239,-0.0068,-0.0569,0.0048,-0.024,-0.001,728,2019-08-07 16:28:50:054
8.1581,-5.647,0.5618,-0.239,-0.0068,-0.0569,0.0048,-0.024,-0.001,733,2019-08-07 16:28:50:059
8.1054,-5.6709,0.5571,-0.1092,0.0369,-0.1115,0.0048,-0.024,-0.001,737,2019-08-07 16:28:50:063
8.1054,-5.6709,0.5571,-0.1092,0.0369,-0.1115,0.0016,-0.039,0.0011,743,2019-08-07 16:28:50:069
8.1389,-5.6709,0.6231,-0.1092,0.0369,-0.1115,0.0016,-0.039,0.0011,748,2019-08-07 16:28:50:074
8.1389,-5.6709,0.6231,-0.1092,0.0369,-0.1115,0.0027,-0.0368,-0.0021,752,2019-08-07 16:28:50:078
8.1389,-5.6709,0.6231,-0.1465,-0.0911,-0.0554,0.0027,-0.0368,-0.0021,758,2019-08-07 16:28:50:084
8.1533,-5.6279,0.5713,-0.1465,-0.0911,-0.0554,-0.0037,-0.0347,-0.0095,763,2019-08-07 16:28:50:089
8.1533,-5.6279,0.5713,-0.1465,-0.0911,-0.0554,-0.0037,-0.0347,-0.0095,769,2019-08-07 16:28:50:095
8.1629,-5.5038,0.5571,-0.1465,-0.0911,-0.0554,-0.0218,-0.0145,-0.0149,773,2019-08-07 16:28:50:099
8.1629,-5.5038,0.5571,-0.1725,-0.2309,-0.1304,-0.0218,-0.0145,-0.0149,777,2019-08-07 16:28:50:103
8.2012,-5.3463,0.5571,-0.1725,-0.2309,-0.1304,-0.0314,-0.0038,-0.033,783,2019-08-07 16:28:50:109
8.2012,-5.3463,0.5571,-0.1725,-0.2309,-0.1304,-0.0314,-0.0038,-0.033,788,2019-08-07 16:28:50:114
8.2012,-5.3463,0.5571,-0.1725,-0.2309,-0.1304,-0.0314,-0.0038,-0.033,793,2019-08-07 16:28:50:119
8.1677,-5.2222,0.5619,-0.1716,-0.4426,-0.1059,-0.0484,-0.0027,-0.049,798,2019-08-07 16:28:50:124
8.1677,-5.2222,0.5619,-0.1716,-0.4426,-0.1059,-0.0484,-0.0027,-0.049,802,2019-08-07 16:28:50:128
8.1677,-5.2222,0.5619,-0.1716,-0.4426,-0.1059,-0.074,-0.0208,-0.0585,808,2019-08-07 16:28:50:134
8.2969,-5.0933,0.5666,-0.1716,-0.4426,-0.1059,-0.074,-0.0208,-0.0585,813,2019-08-07 16:28:50:139
8.2969,-5.0933,0.5666,-0.3437,-0.7257,-0.0638,-0.091,-0.0177,-0.0745,818,2019-08-07 16:28:50:144
8.3878,-4.8259,0.5807,-0.3437,-0.7257,-0.0638,-0.091,-0.0177,-0.0745,823,2019-08-07 16:28:50:149
8.3878,-4.8259,0.5807,-0.3437,-0.7257,-0.0638,-0.1006,-6.0E-4,-0.0958,828,2019-08-07 16:28:50:154
8.3878,-4.8259,0.5807,-0.3437,-0.7257,-0.0638,-0.1006,-6.0E-4,-0.0958,833,2019-08-07 16:28:50:159
8.3352,-4.5204,0.4959,-0.2185,-1.1298,-0.098,-0.1006,-6.0E-4,-0.0958,838,2019-08-07 16:28:50:164
8.3352,-4.5204,0.4959,-0.2185,-1.1298,-0.098,-0.1241,0.0484,-0.1363,843,2019-08-07 16:28:50:169
7.9955,-4.1815,0.5949,-0.2185,-1.1298,-0.098,-0.1241,0.0484,-0.1363,849,2019-08-07 16:28:50:175
7.9955,-4.1815,0.5949,-0.2185,-1.1298,-0.098,-0.1518,0.0878,-0.1938,853,2019-08-07 16:28:50:179
7.9955,-4.1815,0.5949,0.3759,-1.8245,-0.2561,-0.1518,0.0878,-0.1938,858,2019-08-07 16:28:50:184
7.565,-3.6564,0.6986,0.3759,-1.8245,-0.2561,-0.1965,0.0995,-0.2759,863,2019-08-07 16:28:50:189
7.565,-3.6564,0.6986,0.3759,-1.8245,-0.2561,-0.1965,0.0995,-0.2759,867,2019-08-07 16:28:50:193
7.1631,-3.1742,0.6891,0.3759,-1.8245,-0.2561,-0.2594,0.0793,-0.3877,873,2019-08-07 16:28:50:199
7.1631,-3.1742,0.6891,1.0156,-2.6267,-0.2701,-0.2594,0.0793,-0.3877,877,2019-08-07 16:28:50:203
7.1631,-3.1742,0.6891,1.0156,-2.6267,-0.2701,-0.3393,0.0431,-0.5518,884,2019-08-07 16:28:50:210
6.943,-2.6157,0.6891,1.0156,-2.6267,-0.2701,-0.3393,0.0431,-0.5518,887,2019-08-07 16:28:50:213
6.943,-2.6157,0.6891,1.0156,-2.6267,-0.2701,-0.4703,-0.0283,-0.8127,894,2019-08-07 16:28:50:220
6.833,-2.0142,0.576,1.3461,-3.3887,-0.1924,-0.4703,-0.0283,-0.8127,899,2019-08-07 16:28:50:225
6.833,-2.0142,0.576,1.3461,-3.3887,-0.1924,-0.5907,-0.154,-1.0375,903,2019-08-07 16:28:50:229
6.833,-2.0142,0.576,1.3461,-3.3887,-0.1924,-0.5907,-0.154,-1.0375,907,2019-08-07 16:28:50:233
6.833,-2.0142,0.576,1.3461,-3.3887,-0.1924,-0.5907,-0.154,-1.0375,913,2019-08-07 16:28:50:239
6.5173,-1.2122,0.4629,1.77,-4.3135,-0.2279,-0.7057,-0.333,-1.2591,918,2019-08-07 16:28:50:244
6.5173,-1.2122,0.4629,1.77,-4.3135,-0.2279,-0.7057,-0.333,-1.2591,922,2019-08-07 16:28:50:248
6.8282,-0.4197,0.2649,1.77,-4.3135,-0.2279,-0.8847,-0.6344,-1.5158,928,2019-08-07 16:28:50:254
6.8282,-0.4197,0.2649,1.77,-4.3135,-0.2279,-0.8847,-0.6344,-1.5158,933,2019-08-07 16:28:50:259
7.5889,0.4921,-0.2536,0.9069,-5.3962,0.3319,-1.0967,-0.8571,-1.7374,938,2019-08-07 16:28:50:264
7.5889,0.4921,-0.2536,0.9069,-5.3962,0.3319,-1.0967,-0.8571,-1.7374,943,2019-08-07 16:28:50:269
7.5889,0.4921,-0.2536,0.9069,-5.3962,0.3319,-1.0967,-0.8571,-1.7374,948,2019-08-07 16:28:50:274
8.1535,1.1413,-0.7533,0.9069,-5.3962,0.3319,-1.2639,-0.9625,-1.8961,952,2019-08-07 16:28:50:278
8.1535,1.1413,-0.7533,0.9069,-5.3962,0.3319,-1.2639,-0.9625,-1.8961,958,2019-08-07 16:28:50:284
8.1535,1.1413,-0.7533,0.4764,-6.1001,0.7637,-1.429,-1.0158,-2.0548,963,2019-08-07 16:28:50:289
8.1966,1.8479,-0.9654,0.4764,-6.1001,0.7637,-1.429,-1.0158,-2.0548,968,2019-08-07 16:28:50:294
8.1966,1.8479,-0.9654,0.4764,-6.1001,0.7637,-1.6602,-1.0605,-2.2594,972,2019-08-07 16:28:50:298
7.9143,2.8456,-1.0785,0.4764,-6.1001,0.7637,-1.6602,-1.0605,-2.2594,978,2019-08-07 16:28:50:304
7.9143,2.8456,-1.0785,1.1091,-7.1326,0.5714,-1.8072,-1.0765,-2.3989,983,2019-08-07 16:28:50:309
7.9143,2.8456,-1.0785,1.1091,-7.1326,0.5714,-1.8072,-1.0765,-2.3989,988,2019-08-07 16:28:50:314
7.3881,4.1536,-1.1964,1.1091,-7.1326,0.5714,-2.082,-1.1671,-2.628,993,2019-08-07 16:28:50:319
7.3881,4.1536,-1.1964,1.1091,-7.1326,0.5714,-2.082,-1.1671,-2.628,998,2019-08-07 16:28:50:324
7.1297,5.6096,-1.5216,2.0024,-8.7738,0.5685,-2.3366,-1.2629,-2.808,1003,2019-08-07 16:28:50:329
7.1297,5.6096,-1.5216,2.0024,-8.7738,0.5685,-2.3366,-1.2629,-2.808,1008,2019-08-07 16:28:50:334
7.1297,5.6096,-1.5216,2.0024,-8.7738,0.5685,-2.6317,-1.3024,-3.0296,1013,2019-08-07 16:28:50:339
7.3977,7.1611,-2.3418,2.0024,-8.7738,0.5685,-2.6317,-1.3024,-3.0296,1017,2019-08-07 16:28:50:343
7.3977,7.1611,-2.3418,1.8118,-10.2591,1.1294,-2.9555,-1.2853,-3.3119,1023,2019-08-07 16:28:50:349
7.3977,7.1611,-2.3418,1.8118,-10.2591,1.1294,-2.9555,-1.2853,-3.3119,1028,2019-08-07 16:28:50:354
7.7039,8.3068,-3.0819,1.8118,-10.2591,1.1294,-3.3071,-1.2395,-3.6336,1033,2019-08-07 16:28:50:359
7.7039,8.3068,-3.0819,1.8118,-10.2591,1.1294,-3.3071,-1.2395,-3.6336,1037,2019-08-07 16:28:50:363
8.1153,8.9513,-4.1849,1.406,-10.9159,2.174,-3.7119,-1.2331,-3.9755,1044,2019-08-07 16:28:50:370
8.1153,8.9513,-4.1849,1.406,-10.9159,2.174,-3.7119,-1.2331,-3.9755,1047,2019-08-07 16:28:50:373
8.1153,8.9513,-4.1849,1.406,-10.9159,2.174,-4.154,-1.3024,-4.343,1053,2019-08-07 16:28:50:379
8.2445,9.0563,-5.3728,1.406,-10.9159,2.174,-4.154,-1.3024,-4.343,1058,2019-08-07 16:28:50:384
8.2445,9.0563,-5.3728,1.2455,-9.9503,3.5555,-4.6589,-1.4824,-4.7105,1063,2019-08-07 16:28:50:389
8.2062,8.6314,-6.2778,1.2455,-9.9503,3.5555,-4.6589,-1.4824,-4.7105,1068,2019-08-07 16:28:50:394
8.2062,8.6314,-6.2778,1.2455,-9.9503,3.5555,-5.2086,-1.8968,-5.0397,1073,2019-08-07 16:28:50:399
8.2062,8.6314,-6.2778,1.2455,-9.9503,3.5555,-5.2086,-1.8968,-5.0397,1078,2019-08-07 16:28:50:404
7.723,7.7292,-7.1499,1.7502,-7.4868,4.6131,-5.7753,-2.5338,-5.2666,1083,2019-08-07 16:28:50:409
7.723,7.7292,-7.1499,1.7502,-7.4868,4.6131,-5.7753,-2.5338,-5.2666,1088,2019-08-07 16:28:50:414
7.723,7.7292,-7.1499,1.7502,-7.4868,4.6131,-5.7753,-2.5338,-5.2666,1093,2019-08-07 16:28:50:419
7.991,6.3925,-8.1209,1.7502,-7.4868,4.6131,-6.3303,-3.1431,-5.4083,1098,2019-08-07 16:28:50:424
7.991,6.3925,-8.1209,0.5103,-3.8933,5.3825,-6.3303,-3.1431,-5.4083,1103,2019-08-07 16:28:50:429
9.2014,4.946,-8.4697,0.5103,-3.8933,5.3825,-6.8789,-3.6587,-5.5468,1108,2019-08-07 16:28:50:434
9.2014,4.946,-8.4697,0.5103,-3.8933,5.3825,-6.8789,-3.6587,-5.5468,1113,2019-08-07 16:28:50:439
10.4357,3.7383,-8.696,0.5103,-3.8933,5.3825,-7.1026,-3.9666,-5.6405,1118,2019-08-07 16:28:50:444
10.4357,3.7383,-8.696,-2.4546,-0.2205,5.3368,-7.1026,-3.9666,-5.6405,1123,2019-08-07 16:28:50:449
10.4357,3.7383,-8.696,-2.4546,-0.2205,5.3368,-7.1793,-4.3533,-5.7193,1128,2019-08-07 16:28:50:454
12.957,2.1056,-9.0118,-2.4546,-0.2205,5.3368,-7.1793,-4.3533,-5.7193,1133,2019-08-07 16:28:50:459
12.957,2.1056,-9.0118,-2.4546,-0.2205,5.3368,-7.1793,-4.3533,-5.7193,1138,2019-08-07 16:28:50:464
12.957,2.1056,-9.0118,-2.4546,-0.2205,5.3368,-7.2027,-4.659,-5.7577,1143,2019-08-07 16:28:50:469
14.9234,-0.7587,-11.4206,-7.0132,5.3191,7.8335,-7.2027,-4.659,-5.7577,1148,2019-08-07 16:28:50:474
14.9234,-0.7587,-11.4206,-7.0132,5.3191,7.8335,-7.1175,-4.6207,-5.7364,1154,2019-08-07 16:28:50:480
17.3921,-5.5611,-16.3606,-7.0132,5.3191,7.8335,-7.1175,-4.6207,-5.7364,1158,2019-08-07 16:28:50:484
17.3921,-5.5611,-16.3606,-11.7289,13.0158,14.4927,-6.7958,-4.0944,-5.7193,1163,2019-08-07 16:28:50:489
17.3921,-5.5611,-16.3606,-11.7289,13.0158,14.4927,-6.7958,-4.0944,-5.7193,1168,2019-08-07 16:28:50:494
20.6884,-10.5211,-20.0704,-11.7289,13.0158,14.4927,-5.8019,-2.8459,-5.9154,1172,2019-08-07 16:28:50:498
20.6884,-10.5211,-20.0704,-11.7289,13.0158,14.4927,-5.8019,-2.8459,-5.9154,1178,2019-08-07 16:28:50:504
21.5687,-14.345,-21.4374,-15.5362,21.2562,18.007,-4.8411,-1.9468,-6.0858,1183,2019-08-07 16:28:50:509
21.5687,-14.345,-21.4374,-15.5362,21.2562,18.007,-4.8411,-1.9468,-6.0858,1188,2019-08-07 16:28:50:514
21.5687,-14.345,-21.4374,-15.5362,21.2562,18.007,-4.8411,-1.9468,-6.0858,1193,2019-08-07 16:28:50:519
18.8991,-19.41,-21.3997,-13.3322,26.8958,18.3652,-2.7382,-0.6419,-5.8983,1198,2019-08-07 16:28:50:524
18.8991,-19.41,-21.3997,-13.3322,26.8958,18.3652,-2.7382,-0.6419,-5.8983,1203,2019-08-07 16:28:50:529
19.6646,-19.8874,-19.6509,-13.3322,26.8958,18.3652,-0.5523,-0.3031,-4.3792,1208,2019-08-07 16:28:50:534
19.6646,-19.8874,-19.6509,-16.2459,28.418,18.3107,-0.5523,-0.3031,-4.3792,1213,2019-08-07 16:28:50:539
19.6646,-19.8874,-19.6509,-16.2459,28.418,18.3107,1.2608,-0.3202,-3.0945,1218,2019-08-07 16:28:50:544
23.9513,-21.8112,-25.4253,-16.2459,28.418,18.3107,1.2608,-0.3202,-3.0945,1223,2019-08-07 16:28:50:549
23.9513,-21.8112,-25.4253,-16.2459,28.418,18.3107,2.8725,0.1006,-2.4011,1228,2019-08-07 16:28:50:554
27.0515,-24.814,-32.5478,-23.1699,33.5371,30.8845,2.8725,0.1006,-2.4011,1233,2019-08-07 16:28:50:559
27.0515,-24.814,-32.5478,-23.1699,33.5371,30.8845,4.2563,1.0913,-2.1124,1238,2019-08-07 16:28:50:564
27.0515,-24.814,-32.5478,-23.1699,33.5371,30.8845,4.2563,1.0913,-2.1124,1242,2019-08-07 16:28:50:568
28.9365,-26.8524,-38.7088,-24.6339,34.8655,35.0328,4.2563,1.0913,-2.1124,1248,2019-08-07 16:28:50:574
28.9365,-26.8524,-38.7088,-24.6339,34.8655,35.0328,4.9572,1.4599,-1.5712,1253,2019-08-07 16:28:50:579
28.9365,-26.8524,-38.7088,-24.6339,34.8655,35.0328,4.9572,1.4599,-1.5712,1258,2019-08-07 16:28:50:584
30.2378,-24.1552,-39.2744,-24.6339,34.8655,35.0328,5.7668,1.1041,-0.2865,1263,2019-08-07 16:28:50:589
30.2378,-24.1552,-39.2744,-26.4504,30.113,35.184,5.7668,1.1041,-0.2865,1268,2019-08-07 16:28:50:594
31.2426,-20.255,-44.0165,-26.4504,30.113,35.184,8.137,0.8101,2.6483,1273,2019-08-07 16:28:50:599
31.2426,-20.255,-44.0165,-26.4504,30.113,35.184,8.137,0.8101,2.6483,1278,2019-08-07 16:28:50:604
31.2426,-20.255,-44.0165,-26.366,26.8435,46.9703,10.2921,2.7925,4.4411,1284,2019-08-07 16:28:50:610
30.9459,-20.2788,-54.5,-26.366,26.8435,46.9703,10.2921,2.7925,4.4411,1287,2019-08-07 16:28:50:613
30.9459,-20.2788,-54.5,-26.366,26.8435,46.9703,10.2921,2.7925,4.4411,1293,2019-08-07 16:28:50:619
30.9459,-20.2788,-54.5,-26.366,26.8435,46.9703,11.7153,5.4248,5.4382,1298,2019-08-07 16:28:50:624
31.3048,-17.0899,-57.4556,-26.366,26.8435,46.9703,11.7153,5.4248,5.4382,1303,2019-08-07 16:28:50:629
31.3048,-17.0899,-57.4556,-26.6413,19.5029,48.6944,13.213,8.3649,6.806,1308,2019-08-07 16:28:50:634
34.9265,-12.2875,-50.3095,-26.6413,19.5029,48.6944,13.213,8.3649,6.806,1313,2019-08-07 16:28:50:639
34.9265,-12.2875,-50.3095,-26.6413,19.5029,48.6944,13.7552,6.1044,8.0012,1319,2019-08-07 16:28:50:645
34.9265,-12.2875,-50.3095,-26.6413,19.5029,48.6944,13.7552,6.1044,8.0012,1323,2019-08-07 16:28:50:649
33.6108,-10.7789,-50.3472,-26.2832,12.3599,44.0192,14.1377,1.0508,9.1634,1328,2019-08-07 16:28:50:654
33.6108,-10.7789,-50.3472,-26.2832,12.3599,44.0192,14.1377,1.0508,9.1634,1334,2019-08-07 16:28:50:660
31.4483,-11.5714,-60.694,-26.2832,12.3599,44.0192,14.4104,-2.1279,9.8079,1338,2019-08-07 16:28:50:664
31.4483,-11.5714,-60.694,-26.2832,12.3599,44.0192,14.4104,-2.1279,9.8079,1343,2019-08-07 16:28:50:669
36.711,-9.1893,-69.4569,-27.9559,8.4163,62.3686,14.2112,-2.0374,9.6183,1348,2019-08-07 16:28:50:674
36.711,-9.1893,-69.4569,-27.9559,8.4163,62.3686,14.2112,-2.0374,9.6183,1353,2019-08-07 16:28:50:679
36.711,-9.1893,-69.4569,-27.9559,8.4163,62.3686,14.2112,-2.0374,9.6183,1358,2019-08-07 16:28:50:684
42.543,-2.1622,-64.3896,-27.9559,8.4163,62.3686,12.87,-0.6249,8.1696,1363,2019-08-07 16:28:50:689
42.543,-2.1622,-64.3896,-36.4475,-6.158,56.1852,12.87,-0.6249,8.1696,1367,2019-08-07 16:28:50:693
41.3948,9.6148,-62.7633,-36.4475,-6.158,56.1852,11.2796,-0.4885,7.4122,1373,2019-08-07 16:28:50:699
41.3948,9.6148,-62.7633,-35.045,-19.7603,57.9396,11.2796,-0.4885,7.4122,1378,2019-08-07 16:28:50:704
41.3948,9.6148,-62.7633,-35.045,-19.7603,57.9396,10.5286,0.7962,7.3919,1383,2019-08-07 16:28:50:709
46.5809,27.7124,-64.6677,-35.045,-19.7603,57.9396,10.5286,0.7962,7.3919,1388,2019-08-07 16:28:50:714
46.5809,27.7124,-64.6677,-35.045,-19.7603,57.9396,10.5286,0.7962,7.3919,1393,2019-08-07 16:28:50:719
48.2172,39.012,-67.0906,-43.1162,-46.5072,63.3438,10.34,3.1089,6.854,1398,2019-08-07 16:28:50:724
48.2172,39.012,-67.0906,-43.1162,-46.5072,63.3438,10.34,3.1089,6.854,1403,2019-08-07 16:28:50:729
48.2172,39.012,-67.0906,-43.1162,-46.5072,63.3438,9.2875,7.9399,6.087,1408,2019-08-07 16:28:50:734
23.9419,54.8706,-71.2152,-43.1162,-46.5072,63.3438,9.2875,7.9399,6.087,1412,2019-08-07 16:28:50:738
23.9419,54.8706,-71.2152,-14.1187,-72.3687,58.6778,7.6034,12.007,5.7738,1418,2019-08-07 16:28:50:744
23.9419,54.8706,-71.2152,-14.1187,-72.3687,58.6778,7.6034,12.007,5.7738,1423,2019-08-07 16:28:50:749
11.6034,82.1387,-37.4549,-14.1187,-72.3687,58.6778,6.3559,10.3079,5.0079,1428,2019-08-07 16:28:50:754
11.6034,82.1387,-37.4549,-14.1187,-72.3687,58.6778,6.3559,10.3079,5.0079,1434,2019-08-07 16:28:50:760
11.6034,82.1387,-37.4549,-5.5526,-91.8918,33.123,6.3559,10.3079,5.0079,1437,2019-08-07 16:28:50:763
8.6946,80.5251,-34.1222,-5.5526,-91.8918,33.123,5.019,3.4253,4.1098,1443,2019-08-07 16:28:50:769
8.6946,80.5251,-34.1222,-5.5526,-91.8918,33.123,0.8251,-4.48,2.1849,1448,2019-08-07 16:28:50:774
2.3985,68.5619,-31.5768,-5.5526,-91.8918,33.123,0.8251,-4.48,2.1849,1453,2019-08-07 16:28:50:779
2.3985,68.5619,-31.5768,0.8213,-70.8761,23.5768,0.8251,-4.48,2.1849,1458,2019-08-07 16:28:50:784
2.3985,68.5619,-31.5768,0.8213,-70.8761,23.5768,-1.3481,-6.9749,0.8469,1463,2019-08-07 16:28:50:789
0.327,66.5665,0.133,0.8213,-70.8761,23.5768,-1.3481,-6.9749,0.8469,1468,2019-08-07 16:28:50:794
0.327,66.5665,0.133,0.8213,-70.8761,23.5768,-4.1082,5.1851,-0.2599,1473,2019-08-07 16:28:50:799
0.327,66.5665,0.133,2.2582,-39.9149,7.3026,-4.1082,5.1851,-0.2599,1478,2019-08-07 16:28:50:804
-0.7351,35.804,8.5189,2.2582,-39.9149,7.3026,-2.0735,9.7306,-1.5574,1483,2019-08-07 16:28:50:809
-0.7351,35.804,8.5189,2.2582,-39.9149,7.3026,-2.0735,9.7306,-1.5574,1488,2019-08-07 16:28:50:814
0.0447,21.6114,26.6199,2.2582,-39.9149,7.3026,1.6262,1.2745,-2.1124,1493,2019-08-07 16:28:50:819
0.0447,21.6114,26.6199,8.0713,-26.5717,-7.746,1.6262,1.2745,-2.1124,1498,2019-08-07 16:28:50:824
0.0447,21.6114,26.6199,8.0713,-26.5717,-7.746,1.6262,1.2745,-2.1124,1503,2019-08-07 16:28:50:829
-2.3904,14.6751,1.7829,8.0713,-26.5717,-7.746,1.5207,2.3696,-3.1169,1507,2019-08-07 16:28:50:833
-2.3904,14.6751,1.7829,8.0713,-26.5717,-7.746,1.5207,2.3696,-3.1169,1513,2019-08-07 16:28:50:839
-2.3904,14.6751,1.7829,3.994,-23.1242,3.1033,-0.1891,0.2913,-2.8996,1518,2019-08-07 16:28:50:844
1.3843,13.5818,-4.1707,3.994,-23.1242,3.1033,-0.1891,0.2913,-2.8996,1522,2019-08-07 16:28:50:848
1.3843,13.5818,-4.1707,3.994,-23.1242,3.1033,-2.4389,-2.8278,-2.2242,1528,2019-08-07 16:28:50:854
8.7712,8.6648,-10.2845,3.994,-23.1242,3.1033,-2.4389,-2.8278,-2.2242,1533,2019-08-07 16:28:50:859
8.7712,8.6648,-10.2845,-10.1967,-11.3921,12.3328,-4.5257,-2.8981,-2.1411,1538,2019-08-07 16:28:50:864
18.268,-1.5655,-10.8218,-10.1967,-11.3921,12.3328,-4.5257,-2.8981,-2.1411,1543,2019-08-07 16:28:50:869
18.268,-1.5655,-10.8218,-10.1967,-11.3921,12.3328,-5.7891,-2.6925,-3.0594,1549,2019-08-07 16:28:50:875
18.268,-1.5655,-10.8218,-10.1967,-11.3921,12.3328,-5.7891,-2.6925,-3.0594,1552,2019-08-07 16:28:50:878
20.1912,-11.6287,-5.2878,-15.0644,3.349,4.1049,-6.391,-4.136,-4.4698,1558,2019-08-07 16:28:50:884
20.1912,-11.6287,-5.2878,-15.0644,3.349,4.1049,-6.391,-4.136,-4.4698,1563,2019-08-07 16:28:50:889
18.7368,-17.0183,-3.6286,-13.262,9.1277,1.6286,-6.4677,-5.9267,-5.5042,1568,2019-08-07 16:28:50:894
18.7368,-17.0183,-3.6286,-13.262,9.1277,1.6286,-6.4677,-5.9267,-5.5042,1573,2019-08-07 16:28:50:899
18.7368,-17.0183,-3.6286,-13.262,9.1277,1.6286,-5.6954,-6.095,-5.9739,1578,2019-08-07 16:28:50:904
11.7901,-26.6519,-10.803,-13.262,9.1277,1.6286,-5.6954,-6.095,-5.9739,1583,2019-08-07 16:28:50:909
11.7901,-26.6519,-10.803,-7.0492,25.4773,12.4264,-4.252,-3.6225,-4.3164,1588,2019-08-07 16:28:50:914
11.7901,-26.6519,-10.803,-7.0492,25.4773,12.4264,-4.252,-3.6225,-4.3164,1592,2019-08-07 16:28:50:918
13.7038,-32.2468,-17.2562,-7.0492,25.4773,12.4264,-4.252,-3.6225,-4.3164,1598,2019-08-07 16:28:50:924
13.7038,-32.2468,-17.2562,-7.3766,20.9151,11.9165,-2.979,-1.5314,-2.4831,1603,2019-08-07 16:28:50:929
15.0721,-21.7206,-11.0387,-7.3766,20.9151,11.9165,-2.979,-1.5314,-2.4831,1608,2019-08-07 16:28:50:934
15.0721,-21.7206,-11.0387,-7.3766,20.9151,11.9165,-0.971,1.2788,-1.3645,1612,2019-08-07 16:28:50:938
15.0721,-21.7206,-11.0387,-7.3766,20.9151,11.9165,-0.971,1.2788,-1.3645,1618,2019-08-07 16:28:50:944
18.756,-22.069,-2.1626,-12.3531,15.7925,-1.8178,1.0765,3.3443,-1.6554,1623,2019-08-07 16:28:50:949
18.756,-22.069,-2.1626,-12.3531,15.7925,-1.8178,1.0765,3.3443,-1.6554,1628,2019-08-07 16:28:50:954
17.6557,-25.1338,1.0098,-12.3531,15.7925,-1.8178,0.6855,0.6087,-2.5321,1633,2019-08-07 16:28:50:959
17.6557,-25.1338,1.0098,-12.3531,15.7925,-1.8178,0.6855,0.6087,-2.5321,1637,2019-08-07 16:28:50:963
10.331,-23.4821,-18.8777,-5.1451,18.1199,12.7635,-1.9489,-1.2534,-2.8847,1643,2019-08-07 16:28:50:969
10.331,-23.4821,-18.8777,-5.1451,18.1199,12.7635,-1.9489,-1.2534,-2.8847,1648,2019-08-07 16:28:50:974
10.331,-23.4821,-18.8777,-5.1451,18.1199,12.7635,-1.9489,-1.2534,-2.8847,1653,2019-08-07 16:28:50:979
7.3648,-21.8876,-2.205,-5.1451,18.1199,12.7635,-4.1944,-0.1444,-2.0836,1658,2019-08-07 16:28:50:984
7.3648,-21.8876,-2.205,-2.0369,17.2522,-14.5172,-4.1944,-0.1444,-2.0836,1663,2019-08-07 16:28:50:989
10.7568,-23.568,5.6058,-2.0369,17.2522,-14.5172,-3.0141,-0.2115,-1.5169,1668,2019-08-07 16:28:50:994
10.7568,-23.568,5.6058,-2.0369,17.2522,-14.5172,-3.0141,-0.2115,-1.5169,1673,2019-08-07 16:28:50:999
10.7568,-23.568,5.6058,-2.0369,17.2522,-14.5172,-0.6279,-2.1993,-1.5361,1678,2019-08-07 16:28:51:004
11.1348,-22.2266,1.123,-3.3068,17.2996,-4.5295,-0.6279,-2.1993,-1.5361,1682,2019-08-07 16:28:51:008
11.1348,-22.2266,1.123,-3.3068,17.2996,-4.5295,1.5825,-2.5956,-1.8663,1688,2019-08-07 16:28:51:014
11.1348,-22.2266,1.123,-3.3068,17.2996,-4.5295,1.5825,-2.5956,-1.8663,1693,2019-08-07 16:28:51:019
16.12,-21.1143,4.5876,-3.3068,17.2996,-4.5295,4.0645,-1.6816,-2.3382,1698,2019-08-07 16:28:51:024
16.12,-21.1143,4.5876,-10.7606,13.5226,-6.7147,4.0645,-1.6816,-2.3382,1703,2019-08-07 16:28:51:029
18.9427,-12.8938,-4.8353,-10.7606,13.5226,-6.7147,5.2544,1.2745,-2.106,1708,2019-08-07 16:28:51:034
18.9427,-12.8938,-4.8353,-10.7606,13.5226,-6.7147,5.2544,1.2745,-2.106,1713,2019-08-07 16:28:51:039
18.9427,-12.8938,-4.8353,-10.7606,13.5226,-6.7147,3.3508,2.0649,-0.7552,1718,2019-08-07 16:28:51:044
18.5456,-5.0599,-10.3221,-11.1754,-0.118,6.4356,3.3508,2.0649,-0.7552,1723,2019-08-07 16:28:51:049
18.5456,-5.0599,-10.3221,-11.1754,-0.118,6.4356,0.8719,2.082,0.4517,1728,2019-08-07 16:28:51:054
15.4981,-6.2391,-15.2339,-11.1754,-0.118,6.4356,0.8719,2.082,0.4517,1733,2019-08-07 16:28:51:059
15.4981,-6.2391,-15.2339,-11.1754,-0.118,6.4356,0.8719,2.082,0.4517,1737,2019-08-07 16:28:51:063
15.4981,-6.2391,-15.2339,-5.158,2.508,4.5788,-0.76,5.6389,0.8384,1743,2019-08-07 16:28:51:069
11.2305,-8.0293,-3.5814,-5.158,2.508,4.5788,-0.76,5.6389,0.8384,1748,2019-08-07 16:28:51:074
11.2305,-8.0293,-3.5814,-5.158,2.508,4.5788,0.3212,5.4471,1.1196,1753,2019-08-07 16:28:51:079
11.2305,-8.0293,-3.5814,-5.158,2.508,4.5788,0.3212,5.4471,1.1196,1758,2019-08-07 16:28:51:084
5.0493,-10.039,3.0934,4.59,4.5179,-3.3016,1.6006,2.931,1.6203,1763,2019-08-07 16:28:51:089
5.0493,-10.039,3.0934,4.59,4.5179,-3.3016,1.6006,2.931,1.6203,1768,2019-08-07 16:28:51:094
2.5376,-9.8767,-3.8312,4.59,4.5179,-3.3016,2.587,3.0471,2.0081,1773,2019-08-07 16:28:51:099
2.5376,-9.8767,-3.8312,4.59,4.5179,-3.3016,2.587,3.0471,2.0081,1778,2019-08-07 16:28:51:104
2.5376,-9.8767,-3.8312,3.2024,2.83,2.0128,1.9628,2.5251,1.6438,1783,2019-08-07 16:28:51:109
4.0016,-7.4946,-4.2979,3.2024,2.83,2.0128,1.9628,2.5251,1.6438,1788,2019-08-07 16:28:51:114
4.0016,-7.4946,-4.2979,3.2024,2.83,2.0128,1.9628,2.5251,1.6438,1793,2019-08-07 16:28:51:119
2.5807,-4.11,-3.4777,3.2024,2.83,2.0128,1.1042,1.1275,1.2826,1798,2019-08-07 16:28:51:124
2.5807,-4.11,-3.4777,4.8035,-2.488,1.6945,1.1042,1.1275,1.2826,1803,2019-08-07 16:28:51:129
2.5807,-4.11,-3.4777,4.8035,-2.488,1.6945,0.415,-0.1316,1.1218,1808,2019-08-07 16:28:51:134
3.7911,-2.9595,-1.1443,4.8035,-2.488,1.6945,0.415,-0.1316,1.1218,1813,2019-08-07 16:28:51:139
3.7911,-2.9595,-1.1443,4.8035,-2.488,1.6945,0.5577,-0.154,0.9481,1818,2019-08-07 16:28:51:144
3.7911,-2.9595,-1.1443,-1.052,-1.7904,1.3669,0.5577,-0.154,0.9481,1823,2019-08-07 16:28:51:149
9.4078,-4.9454,-3.9113,-1.052,-1.7904,1.3669,0.7026,0.0654,0.6808,1827,2019-08-07 16:28:51:153
9.4078,-4.9454,-3.9113,-1.052,-1.7904,1.3669,0.7026,0.0654,0.6808,1833,2019-08-07 16:28:51:159
9.4078,-4.9454,-3.9113,-1.052,-1.7904,1.3669,0.6802,0.8676,0.5497,1837,2019-08-07 16:28:51:163
9.7284,-4.5444,-5.0615,-1.9468,-2.1646,3.7946,0.6802,0.8676,0.5497,1843,2019-08-07 16:28:51:169
9.7284,-4.5444,-5.0615,-1.9468,-2.1646,3.7946,0.6504,1.7986,0.6126,1848,2019-08-07 16:28:51:174
6.5899,-3.222,-1.5639,-1.9468,-2.1646,3.7946,0.6504,1.7986,0.6126,1853,2019-08-07 16:28:51:179
6.5899,-3.222,-1.5639,-1.9468,-2.1646,3.7946,0.6504,1.7986,0.6126,1858,2019-08-07 16:28:51:184
4.7576,-3.623,-1.1585,2.4835,-2.9342,0.2602,0.7505,1.9499,0.8022,1863,2019-08-07 16:28:51:189
4.7576,-3.623,-1.1585,2.4835,-2.9342,0.2602,0.7505,1.9499,0.8022,1869,2019-08-07 16:28:51:195
4.7576,-3.623,-1.1585,2.4835,-2.9342,0.2602,0.7462,1.6367,0.7585,1873,2019-08-07 16:28:51:199
4.4897,-4.4012,-0.8568,2.4835,-2.9342,0.2602,0.7462,1.6367,0.7585,1877,2019-08-07 16:28:51:203
4.4897,-4.4012,-0.8568,2.9755,-2.3149,-0.0454,0.596,1.1701,0.5284,1883,2019-08-07 16:28:51:209
4.4897,-4.4012,-0.8568,2.9755,-2.3149,-0.0454,0.596,1.1701,0.5284,1888,2019-08-07 16:28:51:214
3.8295,-4.0431,-0.3053,2.9755,-2.3149,-0.0454,0.596,1.1701,0.5284,1892,2019-08-07 16:28:51:218
3.8295,-4.0431,-0.3053,3.3604,-2.7669,-0.2724,0.4107,0.7355,0.3271,1898,2019-08-07 16:28:51:224
3.7577,-3.8235,0.1661,3.3604,-2.7669,-0.2724,0.4107,0.7355,0.3271,1903,2019-08-07 16:28:51:229
3.7577,-3.8235,0.1661,3.3604,-2.7669,-0.2724,0.2189,0.3957,0.1822,1908,2019-08-07 16:28:51:234
3.7577,-3.8235,0.1661,3.3604,-2.7669,-0.2724,0.2189,0.3957,0.1822,1913,2019-08-07 16:28:51:239
4.3892,-3.9906,0.1991,2.7209,-2.7594,-0.5451,0.0858,0.2923,0.0906,1917,2019-08-07 16:28:51:243
4.3892,-3.9906,0.1991,2.7209,-2.7594,-0.5451,0.0858,0.2923,0.0906,1923,2019-08-07 16:28:51:249
4.3892,-3.9906,0.1991,2.7209,-2.7594,-0.5451,-0.1667,0.3499,-0.1278,1928,2019-08-07 16:28:51:254
5.5422,-3.7758,-0.0601,1.3509,-3.1248,-0.0448,-0.1667,0.3499,-0.1278,1933,2019-08-07 16:28:51:259
5.5422,-3.7758,-0.0601,1.3509,-3.1248,-0.0448,-0.3393,0.6002,-0.344,1938,2019-08-07 16:28:51:264
5.5422,-3.7758,-0.0601,1.3509,-3.1248,-0.0448,-0.3393,0.6002,-0.344,1942,2019-08-07 16:28:51:268
6.0637,-3.0645,-0.2675,1.3509,-3.1248,-0.0448,-0.5012,1.0348,-0.5379,1948,2019-08-07 16:28:51:274
6.0637,-3.0645,-0.2675,1.4912,-4.0794,-0.7832,-0.5012,1.0348,-0.5379,1953,2019-08-07 16:28:51:279
5.4609,-2.4916,0.8685,1.4912,-4.0794,-0.7832,-0.5012,1.0348,-0.5379,1957,2019-08-07 16:28:51:283
5.4609,-2.4916,0.8685,1.4912,-4.0794,-0.7832,-0.7366,1.4109,-0.7701,1963,2019-08-07 16:28:51:289
3.9874,-2.5012,1.4247,2.767,-4.2251,-1.5687,-0.7366,1.4109,-0.7701,1968,2019-08-07 16:28:51:294
3.9874,-2.5012,1.4247,2.767,-4.2251,-1.5687,-0.907,1.3672,-0.9544,1972,2019-08-07 16:28:51:298
3.9874,-2.5012,1.4247,2.767,-4.2251,-1.5687,-0.907,1.3672,-0.9544,1978,2019-08-07 16:28:51:304
3.9731,-3.1743,1.1655,3.3452,-3.1069,-1.1127,-1.0104,1.1595,-1.1281,1983,2019-08-07 16:28:51:309
3.9731,-3.1743,1.1655,3.3452,-3.1069,-1.1127,-1.0104,1.1595,-1.1281,1988,2019-08-07 16:28:51:314
4.3128,-3.6039,0.9392,3.3452,-3.1069,-1.1127,-1.1584,0.9091,-1.3688,1993,2019-08-07 16:28:51:319
4.3128,-3.6039,0.9392,3.3452,-3.1069,-1.1127,-1.1584,0.9091,-1.3688,1998,2019-08-07 16:28:51:324
4.3128,-3.6039,0.9392,3.3452,-3.1069,-1.1127,-1.1584,0.9091,-1.3688,2002,2019-08-07 16:28:51:328
4.4467,-3.7042,1.3163,3.1328,-2.583,-1.3578,-1.3545,0.5405,-1.6,2008,2019-08-07 16:28:51:334
4.4467,-3.7042,1.3163,3.1328,-2.583,-1.3578,-1.3545,0.5405,-1.6,2013,2019-08-07 16:28:51:339
4.906,-4.0527,1.2409,3.1328,-2.583,-1.3578,-1.4844,0.271,-1.6873,2018,2019-08-07 16:28:51:344
4.906,-4.0527,1.2409,3.1328,-2.583,-1.3578,-1.4844,0.271,-1.6873,2023,2019-08-07 16:28:51:349
4.906,-4.0527,1.2409,2.3108,-1.6316,-1.1118,-1.6549,0.0207,-1.7693,2028,2019-08-07 16:28:51:354
6.4561,-4.4394,0.614,2.3108,-1.6316,-1.1118,-1.6549,0.0207,-1.7693,2033,2019-08-07 16:28:51:359
6.4561,-4.4394,0.614,2.3108,-1.6316,-1.1118,-1.6549,0.0207,-1.7693,2038,2019-08-07 16:28:51:364
6.4561,-4.4394,0.614,2.3108,-1.6316,-1.1118,-1.8413,-0.1956,-1.8269,2043,2019-08-07 16:28:51:369
8.4751,-4.5635,-0.0648,-0.465,-1.0848,-0.3485,-1.8413,-0.1956,-1.8269,2048,2019-08-07 16:28:51:374
8.4751,-4.5635,-0.0648,-0.465,-1.0848,-0.3485,-1.9702,-0.1828,-1.8492,2053,2019-08-07 16:28:51:379
10.3601,-5.0075,-0.4938,-0.465,-1.0848,-0.3485,-1.9702,-0.1828,-1.8492,2058,2019-08-07 16:28:51:384
10.3601,-5.0075,-0.4938,-0.465,-1.0848,-0.3485,-2.0586,-0.0549,-1.8439,2063,2019-08-07 16:28:51:389
10.3601,-5.0075,-0.4938,-2.9581,0.0709,0.2102,-2.0586,-0.0549,-1.8439,2068,2019-08-07 16:28:51:394
11.7906,-5.8047,-1.2857,-2.9581,0.0709,0.2102,-2.0543,0.157,-1.7789,2073,2019-08-07 16:28:51:399
11.7906,-5.8047,-1.2857,-4.0324,1.1125,0.9217,-2.0543,0.157,-1.7789,2078,2019-08-07 16:28:51:404
12.934,-6.8502,-2.2567,-4.0324,1.1125,0.9217,-1.9819,0.482,-1.7097,2084,2019-08-07 16:28:51:410
12.934,-6.8502,-2.2567,-4.0324,1.1125,0.9217,-1.9819,0.482,-1.7097,2087,2019-08-07 16:28:51:413
12.934,-6.8502,-2.2567,-4.0324,1.1125,0.9217,-1.8466,1.0039,-1.6319,2093,2019-08-07 16:28:51:419
13.0106,-7.1223,-2.4264,-4.5098,2.2999,1.5799,-1.8466,1.0039,-1.6319,2098,2019-08-07 16:28:51:424
13.0106,-7.1223,-2.4264,-4.5098,2.2999,1.5799,-1.8466,1.0039,-1.6319,2103,2019-08-07 16:28:51:429
13.0106,-7.1223,-2.4264,-4.5098,2.2999,1.5799,-1.6431,1.234,-1.4583,2108,2019-08-07 16:28:51:434
11.5658,-7.1843,-1.7995,-4.5098,2.2999,1.5799,-1.6431,1.234,-1.4583,2113,2019-08-07 16:28:51:439
11.5658,-7.1843,-1.7995,-1.9988,2.8857,0.7416,-1.5004,1.0838,-1.2431,2118,2019-08-07 16:28:51:444
9.9918,-7.7524,-1.3988,-1.9988,2.8857,0.7416,-1.5004,1.0838,-1.2431,2122,2019-08-07 16:28:51:448
9.9918,-7.7524,-1.3988,-1.9988,2.8857,0.7416,-1.4269,0.6673,-1.0482,2128,2019-08-07 16:28:51:454
9.9918,-7.7524,-1.3988,-1.9988,2.8857,0.7416,-1.4269,0.6673,-1.0482,2133,2019-08-07 16:28:51:459
9.3862,-7.8476,-1.2344,-0.6271,3.505,0.4242,-1.3449,0.0069,-0.8309,2138,2019-08-07 16:28:51:464
9.3862,-7.8476,-1.2344,-0.6271,3.505,0.4242,-1.3449,0.0069,-0.8309,2142,2019-08-07 16:28:51:468
10.0751,-7.8428,-1.6775,-0.6271,3.505,0.4242,-1.2777,-0.3585,-0.6817,2148,2019-08-07 16:28:51:474
10.0751,-7.8428,-1.6775,-0.6271,3.505,0.4242,-1.2777,-0.3585,-0.6817,2153,2019-08-07 16:28:51:479
10.0751,-7.8428,-1.6775,-2.1436,3.5736,0.988,-1.2777,-0.3585,-0.6817,2158,2019-08-07 16:28:51:484
11.2903,-7.7712,-2.1583,-2.1436,3.5736,0.988,-1.2383,-0.4097,-0.5677,2162,2019-08-07 16:28:51:488
11.2903,-7.7712,-2.1583,-2.1436,3.5736,0.988,-1.2383,-0.4097,-0.5677,2169,2019-08-07 16:28:51:495
12.8452,-7.5755,-2.5731,-2.1436,3.5736,0.988,-1.1755,0.0527,-0.4538,2173,2019-08-07 16:28:51:499
12.8452,-7.5755,-2.5731,-4.0321,3.4914,1.6068,-1.1755,0.0527,-0.4538,2178,2019-08-07 16:28:51:504
12.8452,-7.5755,-2.5731,-4.0321,3.4914,1.6068,-1.0626,0.7536,-0.3579,2183,2019-08-07 16:28:51:509
12.4672,-7.418,-2.8937,-4.0321,3.4914,1.6068,-1.0626,0.7536,-0.3579,2188,2019-08-07 16:28:51:514
12.4672,-7.418,-2.8937,-4.0321,3.4914,1.6068,-1.0626,0.7536,-0.3579,2193,2019-08-07 16:28:51:519
12.4672,-7.418,-2.8937,-4.0321,3.4914,1.6068,-0.8942,1.5941,-0.2684,2198,2019-08-07 16:28:51:524
11.2712,-7.2843,-2.5731,-2.3791,3.263,1.5749,-0.8942,1.5941,-0.2684,2202,2019-08-07 16:28:51:528
11.2712,-7.2843,-2.5731,-2.3791,3.263,1.5749,-0.6556,2.4058,-0.164,2208,2019-08-07 16:28:51:534
8.2475,-6.8499,-1.2957,-2.3791,3.263,1.5749,-0.6556,2.4058,-0.164,2213,2019-08-07 16:28:51:539
8.2475,-6.8499,-1.2957,1.7368,2.7015,0.3071,-0.5257,2.4761,-0.0777,2218,2019-08-07 16:28:51:544
8.2475,-6.8499,-1.2957,1.7368,2.7015,0.3071,-0.5257,2.4761,-0.0777,2223,2019-08-07 16:28:51:549
5.755,-6.5396,-0.4236,1.7368,2.7015,0.3071,-0.5257,2.4761,-0.0777,2228,2019-08-07 16:28:51:554
5.755,-6.5396,-0.4236,1.7368,2.7015,0.3071,-0.4191,2.196,0.0118,2233,2019-08-07 16:28:51:559
5.755,-6.5396,-0.4236,4.7043,2.3201,-0.8113,-0.4191,2.196,0.0118,2237,2019-08-07 16:28:51:563
4.047,-6.2914,0.6558,4.7043,2.3201,-0.8113,-0.3563,1.479,0.0959,2243,2019-08-07 16:28:51:569
4.047,-6.2914,0.6558,5.1537,2.0486,-1.0628,-0.3563,1.479,0.0959,2248,2019-08-07 16:28:51:574
3.9704,-5.8903,0.8067,5.1537,2.0486,-1.0628,-0.3829,0.7696,0.1183,2253,2019-08-07 16:28:51:579
3.9704,-5.8903,0.8067,5.1537,2.0486,-1.0628,-0.3829,0.7696,0.1183,2258,2019-08-07 16:28:51:584
3.9704,-5.8903,0.8067,5.1537,2.0486,-1.0628,-0.4287,0.2998,0.1076,2263,2019-08-07 16:28:51:589
5.6449,-5.7328,0.3824,2.797,1.5979,-0.3025,-0.4287,0.2998,0.1076,2267,2019-08-07 16:28:51:593
5.6449,-5.7328,0.3824,2.797,1.5979,-0.3025,-0.5267,-0.2243,0.0427,2273,2019-08-07 16:28:51:599
8.1614,-5.7901,-0.6358,2.797,1.5979,-0.3025,-0.5267,-0.2243,0.0427,2278,2019-08-07 16:28:51:604
8.1614,-5.7901,-0.6358,2.797,1.5979,-0.3025,-0.5768,-0.2222,-0.0117,2283,2019-08-07 16:28:51:609
8.1614,-5.7901,-0.6358,-0.8802,1.8376,0.869,-0.5768,-0.2222,-0.0117,2288,2019-08-07 16:28:51:614
10.0177,-5.9524,-1.1213,-0.8802,1.8376,0.869,-0.5438,0.1027,-0.0277,2292,2019-08-07 16:28:51:618
10.0177,-5.9524,-1.1213,-0.8802,1.8376,0.869,-0.5438,0.1027,-0.0277,2298,2019-08-07 16:28:51:624
10.0177,-5.9524,-1.1213,-0.8802,1.8376,0.869,-0.3978,0.7429,0.0608,2304,2019-08-07 16:28:51:630
10.7019,-6.1625,-1.9745,-0.8802,1.8376,0.869,-0.3978,0.7429,0.0608,2308,2019-08-07 16:28:51:634
10.7019,-6.1625,-1.9745,-1.8112,2.0498,1.7589,-0.2711,1.2841,0.1023,2313,2019-08-07 16:28:51:639
9.8455,-5.9524,-1.3947,-1.8112,2.0498,1.7589,-0.2711,1.2841,0.1023,2319,2019-08-07 16:28:51:645
9.8455,-5.9524,-1.3947,-1.8112,2.0498,1.7589,-0.2711,1.2841,0.1023,2322,2019-08-07 16:28:51:648
9.8455,-5.9524,-1.3947,-1.8112,2.0498,1.7589,-0.1731,1.5259,0.1066,2328,2019-08-07 16:28:51:654
8.4676,-5.561,-0.664,0.4221,1.4128,0.7077,-0.1731,1.5259,0.1066,2333,2019-08-07 16:28:51:659
8.4676,-5.561,-0.664,0.4221,1.4128,0.7077,-0.172,1.2404,0.1375,2338,2019-08-07 16:28:51:664
8.4676,-5.561,-0.664,0.4221,1.4128,0.7077,-0.172,1.2404,0.1375,2342,2019-08-07 16:28:51:668
7.0036,-5.2316,0.0524,2.0321,1.0166,0.0588,-0.1954,0.9304,0.1588,2348,2019-08-07 16:28:51:674
7.0036,-5.2316,0.0524,2.0321,1.0166,0.0588,-0.1954,0.9304,0.1588,2353,2019-08-07 16:28:51:679
7.0036,-5.2316,0.0524,2.0321,1.0166,0.0588,-0.1954,0.9304,0.1588,2358,2019-08-07 16:28:51:684
6.9032,-5.0931,0.4154,2.0321,1.0166,0.0588,-0.2306,0.319,0.1684,2363,2019-08-07 16:28:51:689
6.9032,-5.0931,0.4154,1.1961,0.7288,0.2464,-0.2306,0.319,0.1684,2368,2019-08-07 16:28:51:694
7.9796,-4.9785,-0.0324,1.1961,0.7288,0.2464,-0.2828,-0.1753,0.1726,2373,2019-08-07 16:28:51:699
7.9796,-4.9785,-0.0324,1.1961,0.7288,0.2464,-0.2828,-0.1753,0.1726,2378,2019-08-07 16:28:51:704
9.7307,-4.9213,-0.8102,-0.1372,0.5808,0.6757,-0.3254,-0.3607,0.1747,2383,2019-08-07 16:28:51:709
9.7307,-4.9213,-0.8102,-0.1372,0.5808,0.6757,-0.3254,-0.3607,0.1747,2388,2019-08-07 16:28:51:714
9.7307,-4.9213,-0.8102,-0.1372,0.5808,0.6757,-0.3371,-0.2403,0.1694,2392,2019-08-07 16:28:51:718
11.1181,-5.0167,-1.1307,-0.1372,0.5808,0.6757,-0.3371,-0.2403,0.1694,2398,2019-08-07 16:28:51:724
11.1181,-5.0167,-1.1307,-2.5233,0.74,1.4,-0.3371,-0.2403,0.1694,2403,2019-08-07 16:28:51:729
11.1181,-5.0167,-1.1307,-2.5233,0.74,1.4,-0.2551,0.1741,0.1801,2408,2019-08-07 16:28:51:734
11.2616,-4.9976,-1.1637,-2.5233,0.74,1.4,-0.2551,0.1741,0.1801,2413,2019-08-07 16:28:51:739
11.2616,-4.9976,-1.1637,-2.5233,0.74,1.4,-0.1379,0.5906,0.2184,2418,2019-08-07 16:28:51:744
11.2616,-4.9976,-1.1637,-1.7273,0.7347,1.1356,-0.1379,0.5906,0.2184,2422,2019-08-07 16:28:51:748
9.7833,-4.9451,-0.5981,-1.7273,0.7347,1.1356,-0.057,0.8655,0.2344,2428,2019-08-07 16:28:51:754
9.7833,-4.9451,-0.5981,-0.3334,0.5649,0.568,-0.057,0.8655,0.2344,2433,2019-08-07 16:28:51:759
9.7833,-4.9451,-0.5981,-0.3334,0.5649,0.568,-0.0079,0.8676,0.2781,2437,2019-08-07 16:28:51:763
7.7787,-4.759,0.4814,-0.3334,0.5649,0.568,-0.0079,0.8676,0.2781,2443,2019-08-07 16:28:51:769
7.7787,-4.759,0.4814,-0.3334,0.5649,0.568,0.0102,0.5896,0.3164,2448,2019-08-07 16:28:51:774
6.9367,-4.8258,0.9292,1.7326,0.4171,-0.4568,0.0102,0.5896,0.3164,2453,2019-08-07 16:28:51:779
6.9367,-4.8258,0.9292,1.7326,0.4171,-0.4568,0.0102,0.5896,0.3164,2458,2019-08-07 16:28:51:784
6.9367,-4.8258,0.9292,1.7326,0.4171,-0.4568,0.0038,0.1975,0.31,2463,2019-08-07 16:28:51:789
6.7692,-4.7828,0.8915,1.7326,0.4171,-0.4568,0.0038,0.1975,0.31,2468,2019-08-07 16:28:51:794
6.7692,-4.7828,0.8915,1.8807,0.2152,-0.5049,-0.041,-0.2659,0.2632,2473,2019-08-07 16:28:51:799
7.329,-4.6492,0.7925,1.8807,0.2152,-0.5049,-0.041,-0.2659,0.2632,2478,2019-08-07 16:28:51:804
7.329,-4.6492,0.7925,1.1848,0.1603,-0.3363,-0.0825,-0.5258,0.2461,2483,2019-08-07 16:28:51:809
7.329,-4.6492,0.7925,1.1848,0.1603,-0.3363,-0.0825,-0.5258,0.2461,2488,2019-08-07 16:28:51:814
8.7307,-4.6826,0.472,1.1848,0.1603,-0.3363,-0.0825,-0.5258,0.2461,2493,2019-08-07 16:28:51:819
8.7307,-4.6826,0.472,1.1848,0.1603,-0.3363,-0.1081,-0.5567,0.1961,2498,2019-08-07 16:28:51:824
8.7307,-4.6826,0.472,-0.97,0.2917,0.2331,-0.1081,-0.5567,0.1961,2503,2019-08-07 16:28:51:829
9.9651,-4.8353,-0.0701,-0.97,0.2917,0.2331,-0.1081,-0.5567,0.1961,2508,2019-08-07 16:28:51:834
9.9651,-4.8353,-0.0701,-0.97,0.2917,0.2331,-0.0687,-0.2286,0.1652,2513,2019-08-07 16:28:51:839
9.9459,-4.8592,-0.1267,-0.97,0.2917,0.2331,-0.0687,-0.2286,0.1652,2518,2019-08-07 16:28:51:844
9.9459,-4.8592,-0.1267,-1.1363,0.2972,0.3442,0.0272,0.189,0.1705,2523,2019-08-07 16:28:51:849
9.9459,-4.8592,-0.1267,-1.1363,0.2972,0.3442,0.0272,0.189,0.1705,2528,2019-08-07 16:28:51:854
9.1374,-4.8497,0.2269,-1.1363,0.2972,0.3442,0.0922,0.4298,0.1705,2533,2019-08-07 16:28:51:859
9.1374,-4.8497,0.2269,-1.1363,0.2972,0.3442,0.0922,0.4298,0.1705,2537,2019-08-07 16:28:51:863
9.1374,-4.8497,0.2269,0.4001,0.1621,-0.2751,0.1284,0.4575,0.1684,2543,2019-08-07 16:28:51:869
8.0418,-4.7064,0.7265,0.4001,0.1621,-0.2751,0.1284,0.4575,0.1684,2548,2019-08-07 16:28:51:874
8.0418,-4.7064,0.7265,0.4001,0.1621,-0.2751,0.1348,0.2114,0.1705,2553,2019-08-07 16:28:51:879
7.4916,-4.7208,0.8538,0.4001,0.1621,-0.2751,0.1348,0.2114,0.1705,2558,2019-08-07 16:28:51:884
7.4916,-4.7208,0.8538,1.2072,0.1578,-0.5188,0.1348,0.2114,0.1705,2563,2019-08-07 16:28:51:889
7.5347,-4.7542,0.9622,1.2072,0.1578,-0.5188,0.122,-0.0507,0.1534,2568,2019-08-07 16:28:51:894
7.5347,-4.7542,0.9622,1.2072,0.1578,-0.5188,0.122,-0.0507,0.1534,2572,2019-08-07 16:28:51:898
7.5347,-4.7542,0.9622,1.2072,0.1578,-0.5188,0.1188,-0.3117,0.1311,2578,2019-08-07 16:28:51:904
7.8696,-4.8449,0.7878,0.7625,0.2011,-0.3886,0.1188,-0.3117,0.1311,2583,2019-08-07 16:28:51:909
7.8696,-4.8449,0.7878,0.7625,0.2011,-0.3886,0.1316,-0.5258,0.1162,2587,2019-08-07 16:28:51:913
7.8696,-4.8449,0.7878,0.7625,0.2011,-0.3886,0.1316,-0.5258,0.1162,2593,2019-08-07 16:28:51:919
8.6685,-4.7971,0.4201,0.7625,0.2011,-0.3886,0.138,-0.6057,0.113,2598,2019-08-07 16:28:51:924
8.6685,-4.7971,0.4201,-0.6085,0.095,0.291,0.138,-0.6057,0.113,2603,2019-08-07 16:28:51:929
8.6685,-4.7971,0.4201,-0.6085,0.095,0.291,0.138,-0.6057,0.113,2608,2019-08-07 16:28:51:934
9.6972,-4.8497,-0.0513,-0.6085,0.095,0.291,0.1625,-0.5577,0.1236,2613,2019-08-07 16:28:51:939
9.6972,-4.8497,-0.0513,-0.6085,0.095,0.291,0.1625,-0.5577,0.1236,2618,2019-08-07 16:28:51:944
9.9555,-4.8449,-0.0984,-1.3382,0.1628,0.334,0.2115,-0.4203,0.1311,2623,2019-08-07 16:28:51:949
9.9555,-4.8449,-0.0984,-1.3382,0.1628,0.334,0.2115,-0.4203,0.1311,2628,2019-08-07 16:28:51:954
9.9555,-4.8449,-0.0984,-1.3382,0.1628,0.334,0.2658,-0.2872,0.1449,2633,2019-08-07 16:28:51:959
9.7689,-4.7924,0.1232,-1.3382,0.1628,0.334,0.2658,-0.2872,0.1449,2638,2019-08-07 16:28:51:964
9.7689,-4.7924,0.1232,-1.3382,0.1628,0.334,0.2935,-0.1913,0.1694,2642,2019-08-07 16:28:51:968
9.4388,-4.6492,0.274,-0.9428,-0.0358,-0.0436,0.2935,-0.1913,0.1694,2648,2019-08-07 16:28:51:974
9.4388,-4.6492,0.274,-0.9428,-0.0358,-0.0436,0.2967,-0.1348,0.2024,2653,2019-08-07 16:28:51:979
9.4388,-4.6492,0.274,-0.9428,-0.0358,-0.0436,0.2967,-0.1348,0.2024,2658,2019-08-07 16:28:51:984
9.0369,-4.7303,0.3541,-0.3534,0.0697,-0.1947,0.302,-0.1316,0.2376,2663,2019-08-07 16:28:51:989
9.0369,-4.7303,0.3541,-0.3534,0.0697,-0.1947,0.302,-0.1316,0.2376,2668,2019-08-07 16:28:51:994
8.6925,-4.9069,0.4296,-0.3534,0.0697,-0.1947,0.3031,-0.1423,0.2483,2672,2019-08-07 16:28:51:998
8.6925,-4.9069,0.4296,-0.3534,0.0697,-0.1947,0.3031,-0.1423,0.2483,2678,2019-08-07 16:28:52:004
8.6925,-4.9069,0.4296,0.1878,0.09,-0.3537,0.2914,-0.154,0.2387,2683,2019-08-07 16:28:52:009
8.3241,-4.8592,0.5568,0.1878,0.09,-0.3537,0.2914,-0.154,0.2387,2688,2019-08-07 16:28:52:014
8.3241,-4.8592,0.5568,0.1878,0.09,-0.3537,0.269,-0.1753,0.2269,2693,2019-08-07 16:28:52:019
8.3241,-4.8592,0.5568,0.1878,0.09,-0.3537,0.269,-0.1753,0.2269,2698,2019-08-07 16:28:52:024
8.2427,-4.8544,0.5191,0.1878,0.09,-0.3537,0.269,-0.1753,0.2269,2703,2019-08-07 16:28:52:029
8.2427,-4.8544,0.5191,0.1996,0.0226,-0.2368,0.2371,-0.1519,0.195,2708,2019-08-07 16:28:52:034
8.4437,-4.8067,0.4861,0.1996,0.0226,-0.2368,0.2371,-0.1519,0.195,2713,2019-08-07 16:28:52:039
8.4437,-4.8067,0.4861,0.1996,0.0226,-0.2368,0.2158,-0.0965,0.1598,2718,2019-08-07 16:28:52:044
8.4054,-4.759,0.5427,0.1217,-0.0859,-0.3154,0.2158,-0.0965,0.1598,2723,2019-08-07 16:28:52:049
8.4054,-4.759,0.5427,0.1217,-0.0859,-0.3154,0.2115,-0.0187,0.1257,2728,2019-08-07 16:28:52:054
8.4054,-4.759,0.5427,0.1217,-0.0859,-0.3154,0.2115,-0.0187,0.1257,2733,2019-08-07 16:28:52:059
8.3576,-4.5489,0.6181,0.1217,-0.0859,-0.3154,0.2147,0.0132,0.098,2738,2019-08-07 16:28:52:064
8.3576,-4.5489,0.6181,0.1217,-0.0859,-0.3154,0.2147,0.0132,0.098,2742,2019-08-07 16:28:52:068
8.3576,-4.5489,0.6181,0.1593,-0.4274,-0.4466,0.2115,-0.0145,0.0853,2748,2019-08-07 16:28:52:074
8.3815,-4.3484,0.7124,0.1593,-0.4274,-0.4466,0.2115,-0.0145,0.0853,2753,2019-08-07 16:28:52:079
8.3815,-4.3484,0.7124,0.1593,-0.4274,-0.4466,0.1881,-0.0816,0.0906,2758,2019-08-07 16:28:52:084
8.4437,-4.2434,0.5757,0.1593,-0.4274,-0.4466,0.1881,-0.0816,0.0906,2764,2019-08-07 16:28:52:090
8.4437,-4.2434,0.5757,0.0188,-0.6005,-0.2501,0.1699,-0.1391,0.1002,2767,2019-08-07 16:28:52:093
8.4437,-4.2434,0.5757,0.0188,-0.6005,-0.2501,0.1699,-0.1391,0.1002,2773,2019-08-07 16:28:52:099
8.7403,-4.4439,0.472,-0.2339,-0.4356,-0.2124,0.1646,-0.1828,0.1162,2778,2019-08-07 16:28:52:104
8.7403,-4.4439,0.472,-0.2339,-0.4356,-0.2124,0.1646,-0.1828,0.1162,2784,2019-08-07 16:28:52:110
8.7403,-4.4439,0.472,-0.2339,-0.4356,-0.2124,0.1753,-0.1689,0.114,2788,2019-08-07 16:28:52:114
8.9269,-4.5871,0.2881,-0.2339,-0.4356,-0.2124,0.1753,-0.1689,0.114,2793,2019-08-07 16:28:52:119
8.9269,-4.5871,0.2881,-0.3908,-0.3318,0.0538,0.1753,-0.1071,0.1108,2799,2019-08-07 16:28:52:125
8.7834,-4.611,0.241,-0.3908,-0.3318,0.0538,0.1753,-0.1071,0.1108,2802,2019-08-07 16:28:52:128
8.7834,-4.611,0.241,-0.3908,-0.3318,0.0538,0.1753,-0.1071,0.1108,2808,2019-08-07 16:28:52:134
8.7834,-4.611,0.241,-0.3908,-0.3318,0.0538,0.1678,-0.0166,0.1087,2813,2019-08-07 16:28:52:139
8.5968,-4.7064,0.274,-0.0843,-0.1756,-0.0372,0.1678,-0.0166,0.1087,2818,2019-08-07 16:28:52:144
8.5968,-4.7064,0.274,-0.0843,-0.1756,-0.0372,0.1636,0.0612,0.0874,2823,2019-08-07 16:28:52:149
8.3097,-4.7876,0.4908,-0.0843,-0.1756,-0.0372,0.1636,0.0612,0.0874,2828,2019-08-07 16:28:52:154
8.3097,-4.7876,0.4908,-0.0843,-0.1756,-0.0372,0.1582,0.0718,0.0672,2833,2019-08-07 16:28:52:159
8.3097,-4.7876,0.4908,0.2425,-0.2453,-0.2912,0.1582,0.0718,0.0672,2838,2019-08-07 16:28:52:164
8.3193,-4.6253,0.6134,0.2425,-0.2453,-0.2912,0.1433,0.026,0.0522,2843,2019-08-07 16:28:52:169
8.3193,-4.6253,0.6134,0.2425,-0.2453,-0.2912,0.1433,0.026,0.0522,2848,2019-08-07 16:28:52:174
8.769,-4.4009,0.5427,0.2425,-0.2453,-0.2912,0.1082,-0.0315,0.0395,2853,2019-08-07 16:28:52:179
8.769,-4.4009,0.5427,-0.4352,-0.5982,-0.228,0.1082,-0.0315,0.0395,2858,2019-08-07 16:28:52:184
8.769,-4.4009,0.5427,-0.4352,-0.5982,-0.228,0.057,-0.0539,0.032,2863,2019-08-07 16:28:52:189
9.0943,-4.2243,0.3353,-0.6167,-0.7027,-0.0357,0.057,-0.0539,0.032,2868,2019-08-07 16:28:52:194
9.0943,-4.2243,0.3353,-0.6167,-0.7027,-0.0357,-0.0016,-0.04,0.0618,2873,2019-08-07 16:28:52:199
9.1709,-4.4868,0.241,-0.6167,-0.7027,-0.0357,-0.0016,-0.04,0.0618,2878,2019-08-07 16:28:52:204
9.1709,-4.4868,0.241,-0.6167,-0.7027,-0.0357,-0.0197,-0.0176,0.097,2883,2019-08-07 16:28:52:209
9.1709,-4.4868,0.241,-0.7541,-0.2651,0.0332,-0.0197,-0.0176,0.097,2888,2019-08-07 16:28:52:214
9.2187,-4.821,0.2221,-0.7541,-0.2651,0.0332,-0.0197,-0.0176,0.097,2893,2019-08-07 16:28:52:219
9.2187,-4.821,0.2221,-0.6581,-0.1106,0.0839,-0.0218,0.0218,0.113,2899,2019-08-07 16:28:52:225
9.2187,-4.821,0.2221,-0.6581,-0.1106,0.0839,-0.0218,0.0218,0.113,2903,2019-08-07 16:28:52:229
8.8503,-4.864,0.2457,-0.6581,-0.1106,0.0839,-0.0175,0.0995,0.1172,2908,2019-08-07 16:28:52:234
8.8503,-4.864,0.2457,-0.6581,-0.1106,0.0839,-0.0175,0.0995,0.1172,2913,2019-08-07 16:28:52:239
8.5298,-4.9738,0.2976,-0.1001,-0.0337,0.0209,-0.025,0.1155,0.1194,2918,2019-08-07 16:28:52:244
8.5298,-4.9738,0.2976,-0.1001,-0.0337,0.0209,-0.025,0.1155,0.1194,2923,2019-08-07 16:28:52:249
8.5298,-4.9738,0.2976,-0.1001,-0.0337,0.0209,-0.025,0.1155,0.1194,2928,2019-08-07 16:28:52:254
8.2667,-5.0549,0.4437,-0.1001,-0.0337,0.0209,-0.0442,0.1027,0.0917,2933,2019-08-07 16:28:52:259
8.2667,-5.0549,0.4437,0.3146,0.1107,-0.2089,-0.0442,0.1027,0.0917,2938,2019-08-07 16:28:52:264
8.2667,-5.0549,0.4437,0.3146,0.1107,-0.2089,-0.0463,0.0388,0.0597,2943,2019-08-07 16:28:52:269
8.1231,-5.0788,0.5427,0.3107,0.0708,-0.2347,-0.0463,0.0388,0.0597,2948,2019-08-07 16:28:52:274
8.1231,-5.0788,0.5427,0.3107,0.0708,-0.2347,-0.0452,-0.0336,0.0309,2953,2019-08-07 16:28:52:279
8.1231,-5.0788,0.5427,0.3107,0.0708,-0.2347,-0.0452,-0.0336,0.0309,2958,2019-08-07 16:28:52:284
8.458,-4.9642,0.4531,0.3107,0.0708,-0.2347,-0.0452,-0.0336,0.0309,2962,2019-08-07 16:28:52:288
8.458,-4.9642,0.4531,-0.4133,-0.2382,0.0072,-0.0506,-0.0794,0.0054,2968,2019-08-07 16:28:52:294
9.0082,-4.7399,0.2599,-0.4133,-0.2382,0.0072,-0.0506,-0.0794,0.0054,2973,2019-08-07 16:28:52:299
9.0082,-4.7399,0.2599,-0.4133,-0.2382,0.0072,-0.0612,-0.0837,-0.0223,2977,2019-08-07 16:28:52:303
9.0082,-4.7399,0.2599,-0.4133,-0.2382,0.0072,-0.0612,-0.0837,-0.0223,2984,2019-08-07 16:28:52:310
9.2857,-4.8019,0.0194,-0.8917,-0.1931,0.2562,-0.0644,-0.0123,-0.0234,2987,2019-08-07 16:28:52:313
9.2857,-4.8019,0.0194,-0.8917,-0.1931,0.2562,-0.0644,-0.0123,-0.0234,2993,2019-08-07 16:28:52:319
9.3862,-4.9738,0.1043,-0.8917,-0.1931,0.2562,-0.0399,0.042,-0.017,2999,2019-08-07 16:28:52:325
9.3862,-4.9738,0.1043,-0.8917,-0.1931,0.2562,-0.0399,0.042,-0.017,3003,2019-08-07 16:28:52:329
9.3862,-4.9738,0.1043,-0.8917,-0.1931,0.2562,-0.0399,0.042,-0.017,3007,2019-08-07 16:28:52:333
9.2283,-5.0645,0.0949,-0.7785,0.0892,0.1955,6.0E-4,0.1059,-0.0127,3013,2019-08-07 16:28:52:339
9.2283,-5.0645,0.0949,-0.7785,0.0892,0.1955,6.0E-4,0.1059,-0.0127,3017,2019-08-07 16:28:52:343
8.9843,-5.0788,0.1561,-0.376,0.0719,0.1021,0.0229,0.1304,-0.0127,3023,2019-08-07 16:28:52:349
8.9843,-5.0788,0.1561,-0.376,0.0719,0.1021,0.0229,0.1304,-0.0127,3027,2019-08-07 16:28:52:353
8.9843,-5.0788,0.1561,-0.376,0.0719,0.1021,0.0229,0.1304,-0.0127,3033,2019-08-07 16:28:52:359
8.4341,-4.9404,0.5474,0.0881,-0.0128,-0.2025,0.0304,0.0345,0.0064,3038,2019-08-07 16:28:52:364
8.4341,-4.9404,0.5474,0.0881,-0.0128,-0.2025,0.0304,0.0345,0.0064,3043,2019-08-07 16:28:52:369
8.4054,-4.9785,0.4861,0.0881,-0.0128,-0.2025,0.0112,-0.0507,-0.0042,3048,2019-08-07 16:28:52:374
8.4054,-4.9785,0.4861,0.0881,-0.0128,-0.2025,0.0112,-0.0507,-0.0042,3053,2019-08-07 16:28:52:379
8.4054,-4.9785,0.4861,-0.1548,0.0984,-0.1861,-0.0133,-0.1071,-0.0234,3058,2019-08-07 16:28:52:384
8.659,-5.0883,0.4437,-0.1548,0.0984,-0.1861,-0.0133,-0.1071,-0.0234,3062,2019-08-07 16:28:52:388
8.659,-5.0883,0.4437,-0.1548,0.0984,-0.1861,-0.0325,-0.1114,-0.0383,3068,2019-08-07 16:28:52:394
8.659,-5.0883,0.4437,-0.1548,0.0984,-0.1861,-0.0325,-0.1114,-0.0383,3073,2019-08-07 16:28:52:399
8.8551,-5.2077,0.439,-0.1548,0.0984,-0.1861,-0.0293,-0.0656,-0.05,3077,2019-08-07 16:28:52:403
8.8551,-5.2077,0.439,-0.3941,0.1863,-0.0782,-0.0293,-0.0656,-0.05,3083,2019-08-07 16:28:52:409
8.8551,-5.2077,0.439,-0.3941,0.1863,-0.0782,-0.0293,-0.0656,-0.05,3088,2019-08-07 16:28:52:414
8.702,-5.1504,0.1373,-0.3941,0.1863,-0.0782,-0.0207,0.0218,-0.0511,3093,2019-08-07 16:28:52:419
8.702,-5.1504,0.1373,-0.3941,0.1863,-0.0782,-0.0207,0.0218,-0.0511,3098,2019-08-07 16:28:52:424
8.6829,-5.222,0.1844,-0.2078,0.2083,0.1037,-0.0165,0.0686,-0.0319,3103,2019-08-07 16:28:52:429
8.6829,-5.222,0.1844,-0.2078,0.2083,0.1037,-0.0165,0.0686,-0.0319,3108,2019-08-07 16:28:52:434
8.6829,-5.222,0.1844,-0.2078,0.2083,0.1037,-0.0037,0.0867,-0.0277,3113,2019-08-07 16:28:52:439
8.592,-5.3175,0.2033,-0.2078,0.2083,0.1037,-0.0037,0.0867,-0.0277,3117,2019-08-07 16:28:52:443
8.592,-5.3175,0.2033,0.0426,0.3407,0.0733,-0.0037,0.0867,-0.0277,3123,2019-08-07 16:28:52:449
8.3432,-5.2507,0.3447,0.0426,0.3407,0.0733,0.0144,0.0559,-0.0277,3128,2019-08-07 16:28:52:454
8.3432,-5.2507,0.3447,0.0426,0.3407,0.0733,0.0144,0.0559,-0.0277,3133,2019-08-07 16:28:52:459
8.3432,-5.2507,0.3447,0.0426,0.3407,0.0733,0.0187,-0.0123,-0.0106,3138,2019-08-07 16:28:52:464
8.4634,-5.3223,0.2741,-3.0E-4,0.371,0.0375,0.0187,-0.0123,-0.0106,3143,2019-08-07 16:28:52:469
8.4634,-5.3223,0.2741,-3.0E-4,0.371,0.0375,6.0E-4,-0.0709,-0.0074,3147,2019-08-07 16:28:52:473
8.7026,-5.4608,-0.0087,-3.0E-4,0.371,0.0375,6.0E-4,-0.0709,-0.0074,3153,2019-08-07 16:28:52:479
8.7026,-5.4608,-0.0087,-3.0E-4,0.371,0.0375,-0.0452,-0.122,0.0011,3158,2019-08-07 16:28:52:484
8.7026,-5.4608,-0.0087,-0.3976,0.3933,0.1552,-0.0452,-0.122,0.0011,3163,2019-08-07 16:28:52:489
8.8796,-5.2698,0.2364,-0.3976,0.3933,0.1552,-0.0452,-0.0912,0.0107,3168,2019-08-07 16:28:52:494
8.8796,-5.2698,0.2364,-0.3976,0.3933,0.1552,-0.0452,-0.0912,0.0107,3172,2019-08-07 16:28:52:498
8.9514,-5.2077,0.0431,-0.3976,0.3933,0.1552,-0.0314,-0.0624,0.0171,3178,2019-08-07 16:28:52:504
8.9514,-5.2077,0.0431,-0.4703,0.2093,0.3529,-0.0314,-0.0624,0.0171,3183,2019-08-07 16:28:52:509
8.9514,-5.2077,0.0431,-0.4703,0.2093,0.3529,-0.0548,-0.0336,0.0064,3188,2019-08-07 16:28:52:514
8.8509,-5.1696,-0.004,-0.4703,0.2093,0.3529,-0.0548,-0.0336,0.0064,3193,2019-08-07 16:28:52:519
8.8509,-5.1696,-0.004,-0.4703,0.2093,0.3529,-0.0633,-0.0027,0.0032,3198,2019-08-07 16:28:52:524
8.8653,-5.1982,0.1846,-0.3606,0.2129,0.0493,-0.0633,-0.0027,0.0032,3203,2019-08-07 16:28:52:529
8.8653,-5.1982,0.1846,-0.3606,0.2129,0.0493,-0.0218,0.0164,0.0118,3208,2019-08-07 16:28:52:534
8.8653,-5.1982,0.1846,-0.3606,0.2129,0.0493,-0.0218,0.0164,0.0118,3213,2019-08-07 16:28:52:539
8.76,-5.3032,0.2176,-0.3606,0.2129,0.0493,0.0368,0.0686,0.0214,3217,2019-08-07 16:28:52:543
8.76,-5.3032,0.2176,-0.3388,0.3862,0.0836,0.0368,0.0686,0.0214,3223,2019-08-07 16:28:52:549
8.8844,-5.2459,0.3213,-0.3388,0.3862,0.0836,0.0943,0.1496,0.0299,3228,2019-08-07 16:28:52:554
8.8844,-5.2459,0.3213,-0.3388,0.3862,0.0836,0.0943,0.1496,0.0299,3232,2019-08-07 16:28:52:558
8.8844,-5.2459,0.3213,-0.3388,0.3862,0.0836,0.105,0.172,0.0267,3238,2019-08-07 16:28:52:564
8.8509,-5.0168,0.227,-0.395,0.0528,0.0768,0.105,0.172,0.0267,3242,2019-08-07 16:28:52:568
8.8509,-5.0168,0.227,-0.395,0.0528,0.0768,0.073,0.1773,0.0267,3248,2019-08-07 16:28:52:574
8.5687,-4.7638,0.2977,-0.395,0.0528,0.0768,0.073,0.1773,0.0267,3253,2019-08-07 16:28:52:579
8.5687,-4.7638,0.2977,-0.395,0.0528,0.0768,-0.0026,0.1677,0.0277,3258,2019-08-07 16:28:52:584
8.5687,-4.7638,0.2977,0.224,-0.2078,0.1247,-0.0026,0.1677,0.0277,3264,2019-08-07 16:28:52:590
8.2242,-4.8163,0.5004,0.224,-0.2078,0.1247,-0.058,0.1368,0.0405,3268,2019-08-07 16:28:52:594
8.2242,-4.8163,0.5004,0.224,-0.2078,0.1247,-0.058,0.1368,0.0405,3273,2019-08-07 16:28:52:599
8.2242,-4.8163,0.5004,0.224,-0.2078,0.1247,-0.058,0.1368,0.0405,3278,2019-08-07 16:28:52:604
8.6022,-5.1123,0.6748,-0.2249,0.1686,-0.2624,-0.057,0.0814,0.0075,3283,2019-08-07 16:28:52:609
8.6022,-5.1123,0.6748,-0.2249,0.1686,-0.2624,-0.057,0.0814,0.0075,3288,2019-08-07 16:28:52:614
8.5543,-5.0454,0.5617,-0.2249,0.1686,-0.2624,-0.0058,0.1176,-0.05,3293,2019-08-07 16:28:52:619
8.5543,-5.0454,0.5617,-0.2249,0.1686,-0.2624,-0.0058,0.1176,-0.05,3298,2019-08-07 16:28:52:624
8.5543,-5.0454,0.5617,-0.0733,-0.1442,-0.1154,0.024,0.1656,-0.0415,3303,2019-08-07 16:28:52:629
8.5304,-4.7686,0.5145,-0.0733,-0.1442,-0.1154,0.024,0.1656,-0.0415,3307,2019-08-07 16:28:52:633
8.5304,-4.7686,0.5145,-0.0733,-0.1442,-0.1154,0.0102,0.1602,-0.0074,3314,2019-08-07 16:28:52:640
8.6883,-4.6253,0.1893,-0.0733,-0.1442,-0.1154,0.0102,0.1602,-0.0074,3317,2019-08-07 16:28:52:643
8.6883,-4.6253,0.1893,-0.3016,-0.2543,0.2325,0.0102,0.1602,-0.0074,3323,2019-08-07 16:28:52:649
8.6883,-4.6253,0.1893,-0.3016,-0.2543,0.2325,-0.0548,0.1251,0.015,3327,2019-08-07 16:28:52:653
8.6835,-4.7017,0.2553,-0.3016,-0.2543,0.2325,-0.0548,0.1251,0.015,3333,2019-08-07 16:28:52:659
8.6835,-4.7017,0.2553,-0.3016,-0.2543,0.2325,-0.0964,0.0772,0.0288,3337,2019-08-07 16:28:52:663
8.6309,-4.7781,0.4627,-0.1791,-0.1852,-0.0524,-0.0964,0.0772,0.0288,3343,2019-08-07 16:28:52:669
8.6309,-4.7781,0.4627,-0.1791,-0.1852,-0.0524,-0.1241,0.0271,0.0395,3348,2019-08-07 16:28:52:674
8.6309,-4.7781,0.4627,-0.1791,-0.1852,-0.0524,-0.1241,0.0271,0.0395,3353,2019-08-07 16:28:52:679
8.717,-4.9929,0.326,-0.1791,-0.1852,-0.0524,-0.1358,-0.0709,0.0427,3358,2019-08-07 16:28:52:684
8.717,-4.9929,0.326,-0.2686,0.056,0.1569,-0.1358,-0.0709,0.0427,3363,2019-08-07 16:28:52:689
8.717,-4.9929,0.326,-0.2686,0.056,0.1569,-0.1315,-0.0901,0.0267,3368,2019-08-07 16:28:52:694
8.6166,-5.0645,0.3307,-0.2686,0.056,0.1569,-0.1315,-0.0901,0.0267,3373,2019-08-07 16:28:52:699
8.6166,-5.0645,0.3307,-0.2686,0.056,0.1569,-0.0985,-0.0741,0.0203,3378,2019-08-07 16:28:52:704
8.6788,-5.1171,0.3684,-0.2321,0.1417,-0.0017,-0.0985,-0.0741,0.0203,3383,2019-08-07 16:28:52:709
8.6788,-5.1171,0.3684,-0.2321,0.1417,-0.0017,-0.0559,-0.0485,0.0214,3387,2019-08-07 16:28:52:713
8.6788,-5.1171,0.3684,-0.2321,0.1417,-0.0017,-0.0559,-0.0485,0.0214,3393,2019-08-07 16:28:52:719
8.6549,-5.1457,0.1893,-0.2321,0.1417,-0.0017,-0.0335,-0.0198,0.0224,3398,2019-08-07 16:28:52:724
8.6549,-5.1457,0.1893,-0.2915,0.0753,0.2078,-0.0335,-0.0198,0.0224,3402,2019-08-07 16:28:52:728
8.6549,-5.1457,0.1893,-0.2915,0.0753,0.2078,-0.0314,-0.007,0.015,3409,2019-08-07 16:28:52:735
8.7314,-5.0407,0.1751,-0.2915,0.0753,0.2078,-0.0314,-0.007,0.015,3413,2019-08-07 16:28:52:739
8.7314,-5.0407,0.1751,-0.2915,0.0753,0.2078,-0.0474,0.01,0.0107,3418,2019-08-07 16:28:52:744
8.7314,-5.0407,0.1751,-0.2915,0.0753,0.2078,-0.0474,0.01,0.0107,3422,2019-08-07 16:28:52:748
8.7601,-5.1314,0.194,-0.3164,0.1496,0.1552,-0.0474,0.01,0.0107,3428,2019-08-07 16:28:52:754
8.7601,-5.1314,0.194,-0.3164,0.1496,0.1552,-0.0633,0.0164,0.0064,3433,2019-08-07 16:28:52:759
8.7553,-5.1266,0.3496,-0.3164,0.1496,0.1552,-0.0633,0.0164,0.0064,3437,2019-08-07 16:28:52:763
8.7553,-5.1266,0.3496,-0.3164,0.1496,0.1552,-0.0644,0.0196,-0.0063,3443,2019-08-07 16:28:52:769
8.7553,-5.1266,0.3496,-0.24,0.1827,-0.1171,-0.0644,0.0196,-0.0063,3447,2019-08-07 16:28:52:773
8.8223,-5.2603,0.5098,-0.24,0.1827,-0.1171,-0.0293,0.0186,-0.0117,3453,2019-08-07 16:28:52:779
8.8223,-5.2603,0.5098,-0.24,0.1827,-0.1171,-0.0293,0.0186,-0.0117,3457,2019-08-07 16:28:52:783
8.6645,-5.3271,0.359,-0.3121,0.2969,0.0607,0.0176,0.0335,0.0086,3464,2019-08-07 16:28:52:790
8.6645,-5.3271,0.359,-0.3121,0.2969,0.0607,0.0176,0.0335,0.0086,3467,2019-08-07 16:28:52:793
8.6645,-5.3271,0.359,-0.3121,0.2969,0.0607,0.0347,0.0612,0.0096,3473,2019-08-07 16:28:52:799
8.7841,-5.1314,0.2694,-0.3121,0.2969,0.0607,0.0347,0.0612,0.0096,3478,2019-08-07 16:28:52:804
8.7841,-5.1314,0.2694,-0.3121,0.2969,0.0607,0.0347,0.0612,0.0096,3482,2019-08-07 16:28:52:808
8.6597,-5.098,0.3071,-0.2229,0.1279,0.0269,0.0123,0.0782,0.0203,3488,2019-08-07 16:28:52:814
8.6597,-5.098,0.3071,-0.2229,0.1279,0.0269,0.0123,0.0782,0.0203,3493,2019-08-07 16:28:52:819
8.6597,-5.098,0.3071,-0.3056,0.0114,0.3056,-0.0495,0.01,0.0182,3498,2019-08-07 16:28:52:824
8.521,-4.9929,0.194,-0.3056,0.0114,0.3056,-0.0495,0.01,0.0182,3503,2019-08-07 16:28:52:829
8.521,-4.9929,0.194,-0.3056,0.0114,0.3056,-0.0847,-0.0038,-0.0149,3508,2019-08-07 16:28:52:834
8.5305,-5.308,0.7078,-0.3056,0.0114,0.3056,-0.0847,-0.0038,-0.0149,3513,2019-08-07 16:28:52:839
8.5305,-5.308,0.7078,-0.0951,0.3877,-0.2558,-0.0293,-0.0443,-0.0042,3517,2019-08-07 16:28:52:843
8.5305,-5.308,0.7078,-0.0951,0.3877,-0.2558,-0.0293,-0.0443,-0.0042,3523,2019-08-07 16:28:52:849
8.6693,-5.4274,0.5287,-0.0951,0.3877,-0.2558,6.0E-4,-0.0294,-0.0149,3528,2019-08-07 16:28:52:854
8.6693,-5.4274,0.5287,-0.0951,0.3877,-0.2558,6.0E-4,-0.0294,-0.0149,3533,2019-08-07 16:28:52:859
8.5688,-5.1791,0.3637,-0.1857,0.2113,-0.0873,6.0E-4,-0.0294,-0.0149,3537,2019-08-07 16:28:52:863
8.5688,-5.1791,0.3637,-0.1857,0.2113,-0.0873,0.0506,0.0079,-0.0042,3543,2019-08-07 16:28:52:869
8.5688,-5.1791,0.3637,-0.2046,0.0877,-0.0329,0.0506,0.0079,-0.0042,3547,2019-08-07 16:28:52:873
8.6932,-5.012,0.4674,-0.2046,0.0877,-0.0329,0.04,0.0495,0.0256,3553,2019-08-07 16:28:52:879
8.6932,-5.012,0.4674,-0.2046,0.0877,-0.0329,0.04,0.0495,0.0256,3557,2019-08-07 16:28:52:883
8.6502,-5.1362,0.5381,-0.2046,0.0877,-0.0329,0.0506,0.0825,0.0245,3563,2019-08-07 16:28:52:889
8.6502,-5.1362,0.5381,-0.2216,0.156,-0.1784,0.0506,0.0825,0.0245,3568,2019-08-07 16:28:52:894
8.6502,-5.1362,0.5381,-0.2216,0.156,-0.1784,0.0506,0.0825,0.0245,3573,2019-08-07 16:28:52:899
8.7219,-5.1648,0.458,-0.2216,0.156,-0.1784,0.0624,0.1166,0.0309,3577,2019-08-07 16:28:52:903
8.7219,-5.1648,0.458,-0.2216,0.156,-0.1784,0.0624,0.1166,0.0309,3583,2019-08-07 16:28:52:909
8.832,-5.0932,0.4344,-0.3165,0.0798,-0.0564,0.0645,0.1624,0.0352,3588,2019-08-07 16:28:52:914
8.832,-5.0932,0.4344,-0.3165,0.0798,-0.0564,0.0645,0.1624,0.0352,3593,2019-08-07 16:28:52:919
8.832,-5.0932,0.4344,-0.3165,0.0798,-0.0564,0.0357,0.2039,0.0288,3598,2019-08-07 16:28:52:924
8.7506,-4.9022,0.2506,-0.3165,0.0798,-0.0564,0.0357,0.2039,0.0288,3603,2019-08-07 16:28:52:929
8.7506,-4.9022,0.2506,-0.1719,-0.1384,0.172,0.0357,0.2039,0.0288,3607,2019-08-07 16:28:52:933
8.6454,-4.9595,0.524,-0.1719,-0.1384,0.172,-0.0708,0.1549,0.0118,3614,2019-08-07 16:28:52:940
8.6454,-4.9595,0.524,-0.1719,-0.1384,0.172,-0.0708,0.1549,0.0118,3617,2019-08-07 16:28:52:943
8.6454,-4.9595,0.524,-0.1719,-0.1384,0.172,-0.1273,0.0867,-0.0117,3623,2019-08-07 16:28:52:949
8.6454,-5.1266,0.7408,-0.01,0.1285,-0.2987,-0.1273,0.0867,-0.0117,3627,2019-08-07 16:28:52:953
8.4397,-5.1266,0.7408,-0.01,0.1285,-0.2987,-0.107,0.0345,-0.0085,3633,2019-08-07 16:28:52:959
8.4397,-5.1266,0.7408,-0.01,0.1285,-0.2987,-0.107,0.0345,-0.0085,3637,2019-08-07 16:28:52:963