ACCELEROMETER X (m/s²),ACCELEROMETER Y (m/s²),ACCELEROMETER Z (m/s²),LINEAR ACCELERATION X (m/s²),LINEAR ACCELERATION Y (m/s²),LINEAR ACCELERATION Z (m/s²),GYROSCOPE X (rad/s),GYROSCOPE Y (rad/s),GYROSCOPE Z (rad/s),Time since start in ms ,YYYY-MO-DD HH-MI-SS_SSS
7.1289,-6.6447,0.3072,0.4227,0.366,-0.2732,-0.0314,0.058,-0.0511,2,2019-08-07 16:28:08:514
7.1289,-6.6447,0.3072,0.4227,0.366,-0.2732,-0.0314,0.058,-0.0511,8,2019-08-07 16:28:08:520
7.2724,-6.5253,0.2129,0.4227,0.366,-0.2732,-0.0378,-6.0E-4,-0.0735,12,2019-08-07 16:28:08:524
7.2724,-6.5253,0.2129,0.4227,0.366,-0.2732,-0.0378,-6.0E-4,-0.0735,18,2019-08-07 16:28:08:530
7.2724,-6.5253,0.2129,0.0946,0.2596,-0.0968,-0.0452,-0.0507,-0.082,22,2019-08-07 16:28:08:534
7.5977,-6.5063,0.0621,0.0946,0.2596,-0.0968,-0.0452,-0.0507,-0.082,28,2019-08-07 16:28:08:540
7.5977,-6.5063,0.0621,0.0946,0.2596,-0.0968,-0.0463,-0.0698,-0.0777,33,2019-08-07 16:28:08:545
7.5977,-6.5063,0.0621,0.0946,0.2596,-0.0968,-0.0463,-0.0698,-0.0777,37,2019-08-07 16:28:08:549
7.9996,-6.4776,-0.1359,-0.4459,0.2186,0.1833,-0.0399,-0.0698,-0.0617,43,2019-08-07 16:28:08:555
7.9996,-6.4776,-0.1359,-0.4459,0.2186,0.1833,-0.0399,-0.0698,-0.0617,47,2019-08-07 16:28:08:559
8.2053,-6.5397,-0.2962,-0.4459,0.2186,0.1833,-0.0261,-0.04,-0.0383,53,2019-08-07 16:28:08:565
8.2053,-6.5397,-0.2962,-0.4459,0.2186,0.1833,-0.0261,-0.04,-0.0383,58,2019-08-07 16:28:08:570
8.2053,-6.5397,-0.2962,-0.655,0.312,0.2752,-5.0E-4,0.0111,-0.0138,63,2019-08-07 16:28:08:575
8.2054,-6.5015,-0.1312,-0.655,0.312,0.2752,-5.0E-4,0.0111,-0.0138,67,2019-08-07 16:28:08:579
8.2054,-6.5015,-0.1312,-0.655,0.312,0.2752,0.0357,0.0495,0.0107,73,2019-08-07 16:28:08:585
8.0475,-6.4203,-0.1689,-0.655,0.312,0.2752,0.0357,0.0495,0.0107,78,2019-08-07 16:28:08:590
8.0475,-6.4203,-0.1689,-0.4488,0.1884,0.2215,0.0528,0.074,0.0182,82,2019-08-07 16:28:08:594
8.0475,-6.4203,-0.1689,-0.4488,0.1884,0.2215,0.0528,0.074,0.0182,88,2019-08-07 16:28:08:600
7.7365,-6.3726,-0.0464,-0.4488,0.1884,0.2215,0.0528,0.074,0.0182,92,2019-08-07 16:28:08:604
7.7365,-6.3726,-0.0464,-0.4488,0.1884,0.2215,0.056,0.0708,0.0171,99,2019-08-07 16:28:08:611
7.7365,-6.3726,-0.0464,-0.0302,0.1714,-0.0817,0.056,0.0708,0.0171,102,2019-08-07 16:28:08:614
7.5308,-6.3917,0.1563,-0.0302,0.1714,-0.0817,0.0528,0.0463,0.0128,108,2019-08-07 16:28:08:620
7.5308,-6.3917,0.1563,-0.0302,0.1714,-0.0817,0.0528,0.0463,0.0128,113,2019-08-07 16:28:08:625
7.5308,-6.2628,0.2176,-0.0302,0.1714,-0.0817,0.0379,0.0292,0.0,118,2019-08-07 16:28:08:630
7.5308,-6.2628,0.2176,0.0018,0.0171,-0.1297,0.0379,0.0292,0.0,123,2019-08-07 16:28:08:635
7.5308,-6.2628,0.2176,0.0018,0.0171,-0.1297,0.0251,0.025,-0.0127,127,2019-08-07 16:28:08:639
7.5117,-6.2532,0.1988,0.0018,0.0171,-0.1297,0.0251,0.025,-0.0127,133,2019-08-07 16:28:08:645
7.5117,-6.2532,0.1988,0.0018,0.0171,-0.1297,-5.0E-4,0.0271,-0.0234,138,2019-08-07 16:28:08:650
7.6026,-6.1578,0.2789,-0.0437,-0.0946,-0.1982,-5.0E-4,0.0271,-0.0234,143,2019-08-07 16:28:08:655
7.6026,-6.1578,0.2789,-0.0437,-0.0946,-0.1982,-0.0165,0.0292,-0.0298,148,2019-08-07 16:28:08:660
7.66,-6.1196,0.1893,-0.0437,-0.0946,-0.1982,-0.0165,0.0292,-0.0298,153,2019-08-07 16:28:08:665
7.66,-6.1196,0.1893,-0.0437,-0.0946,-0.1982,-0.0271,0.0196,-0.0383,158,2019-08-07 16:28:08:670
7.66,-6.1196,0.1893,-0.144,-0.0934,0.0679,-0.0271,0.0196,-0.0383,163,2019-08-07 16:28:08:675
7.7222,-6.1387,-0.0322,-0.144,-0.0934,0.0679,-0.0314,0.0207,-0.0372,168,2019-08-07 16:28:08:680
7.7222,-6.1387,-0.0322,-0.144,-0.0934,0.0679,-0.0314,0.0207,-0.0372,173,2019-08-07 16:28:08:685
7.7222,-6.1387,-0.0322,-0.144,-0.0934,0.0679,-0.0261,0.0186,-0.0276,178,2019-08-07 16:28:08:690
7.8227,-6.1291,0.0432,-0.2345,-0.0632,0.0146,-0.0261,0.0186,-0.0276,182,2019-08-07 16:28:08:694
7.8227,-6.1291,0.0432,-0.2345,-0.0632,0.0146,-0.0197,0.0058,-0.0181,188,2019-08-07 16:28:08:700
7.8753,-6.2198,-0.0228,-0.2345,-0.0632,0.0146,-0.0197,0.0058,-0.0181,193,2019-08-07 16:28:08:705
7.8753,-6.2198,-0.0228,-0.2345,-0.0632,0.0146,-0.0122,-0.0081,-0.017,199,2019-08-07 16:28:08:711
7.8753,-6.2198,-0.0228,-0.293,-0.0158,0.1343,-0.0122,-0.0081,-0.017,203,2019-08-07 16:28:08:715
7.8753,-6.1673,-0.0793,-0.293,-0.0158,0.1343,-0.0122,-0.0081,-0.017,208,2019-08-07 16:28:08:720
7.8753,-6.1673,-0.0793,-0.293,-0.0158,0.1343,-0.0122,-0.0187,-0.0106,213,2019-08-07 16:28:08:725
7.8753,-6.1673,-0.0793,-0.293,-0.0158,0.1343,-0.0122,-0.0187,-0.0106,218,2019-08-07 16:28:08:730
8.0715,-6.2819,-0.117,-0.4724,0.0062,0.1255,-0.0026,0.0079,-0.0042,222,2019-08-07 16:28:08:734
8.0715,-6.2819,-0.117,-0.4724,0.0062,0.1255,-0.0026,0.0079,-0.0042,228,2019-08-07 16:28:08:740
7.9423,-6.1912,0.0291,-0.4724,0.0062,0.1255,0.0059,0.0303,0.0032,233,2019-08-07 16:28:08:745
7.9423,-6.1912,0.0291,-0.4724,0.0062,0.1255,0.0059,0.0303,0.0032,238,2019-08-07 16:28:08:750
7.9423,-6.1912,0.0291,-0.2089,-0.0744,0.1166,0.0048,0.058,0.0192,243,2019-08-07 16:28:08:755
7.7271,-6.1339,-0.0275,-0.2089,-0.0744,0.1166,0.0048,0.058,0.0192,247,2019-08-07 16:28:08:759
7.7271,-6.1339,-0.0275,-0.2089,-0.0744,0.1166,-0.0069,0.0548,0.0246,253,2019-08-07 16:28:08:765
7.7271,-6.1339,-0.0275,-0.2089,-0.0744,0.1166,-0.0069,0.0548,0.0246,258,2019-08-07 16:28:08:770
7.5788,-6.2007,0.1139,0.0519,-0.0246,-0.027,-0.0239,0.0324,0.0171,263,2019-08-07 16:28:08:775
7.5788,-6.2007,0.1139,0.0519,-0.0246,-0.027,-0.0239,0.0324,0.0171,268,2019-08-07 16:28:08:780
7.4687,-6.258,0.0621,0.0519,-0.0246,-0.027,-0.0239,0.0324,0.0171,273,2019-08-07 16:28:08:785
7.4687,-6.258,0.0621,0.0519,-0.0246,-0.027,-0.0271,0.0015,0.0086,278,2019-08-07 16:28:08:790
7.4687,-6.258,0.0621,0.069,0.097,0.037,-0.0271,0.0015,0.0086,283,2019-08-07 16:28:08:795
7.5214,-6.3774,0.0668,0.069,0.097,0.037,-0.0282,-0.0049,0.0075,288,2019-08-07 16:28:08:800
7.5214,-6.3774,0.0668,0.069,0.097,0.037,-0.0282,-0.0049,0.0075,293,2019-08-07 16:28:08:805
7.507,-6.4251,0.0385,0.069,0.097,0.037,-0.0261,-0.0059,-0.0106,298,2019-08-07 16:28:08:810
7.507,-6.4251,0.0385,0.1261,0.1491,0.0558,-0.0261,-0.0059,-0.0106,303,2019-08-07 16:28:08:815
7.507,-6.4251,0.0385,0.1261,0.1491,0.0558,-0.0261,-0.0059,-0.0106,307,2019-08-07 16:28:08:819
7.4592,-6.3965,0.0055,0.1261,0.1491,0.0558,-0.0186,-0.0134,-0.0255,313,2019-08-07 16:28:08:825
7.4592,-6.3965,0.0055,0.1261,0.1491,0.0558,-0.0186,-0.0134,-0.0255,318,2019-08-07 16:28:08:830
7.4592,-6.3965,0.0055,0.1261,0.1491,0.0558,-0.0218,-0.0379,-0.033,322,2019-08-07 16:28:08:834
7.4975,-6.4251,0.015,0.076,0.1903,0.0585,-0.0218,-0.0379,-0.033,328,2019-08-07 16:28:08:840
7.4975,-6.4251,0.015,0.076,0.1903,0.0585,-0.0239,-0.0677,-0.0351,333,2019-08-07 16:28:08:845
7.6123,-6.4585,0.0103,0.076,0.1903,0.0585,-0.0239,-0.0677,-0.0351,338,2019-08-07 16:28:08:850
7.6123,-6.4585,0.0103,0.076,0.1903,0.0585,-0.0133,-0.088,-0.0319,343,2019-08-07 16:28:08:855
7.7176,-6.5158,0.0244,-0.1073,0.3039,0.0915,-0.0133,-0.088,-0.0319,348,2019-08-07 16:28:08:860
7.7176,-6.5158,0.0244,-0.1073,0.3039,0.0915,-0.0133,-0.088,-0.0319,353,2019-08-07 16:28:08:865
7.7176,-6.5158,0.0244,-0.1073,0.3039,0.0915,-5.0E-4,-0.0752,-0.0223,358,2019-08-07 16:28:08:870
7.7606,-6.5492,-0.0746,-0.1073,0.3039,0.0915,-5.0E-4,-0.0752,-0.0223,363,2019-08-07 16:28:08:875
7.7606,-6.5492,-0.0746,-0.2099,0.3596,0.1072,0.0134,-0.0539,-0.0138,367,2019-08-07 16:28:08:879
7.7511,-6.6352,-0.1076,-0.2099,0.3596,0.1072,0.0134,-0.0539,-0.0138,373,2019-08-07 16:28:08:885
7.7511,-6.6352,-0.1076,-0.1425,0.4269,0.0471,0.0304,-0.0432,-0.0095,377,2019-08-07 16:28:08:889
7.7511,-6.6352,-0.1076,-0.1425,0.4269,0.0471,0.0304,-0.0432,-0.0095,383,2019-08-07 16:28:08:895
7.6698,-6.6638,-0.0133,-0.1425,0.4269,0.0471,0.0304,-0.0432,-0.0095,387,2019-08-07 16:28:08:899
7.6698,-6.6638,-0.0133,-0.1425,0.4269,0.0471,0.0485,-0.024,-0.0053,393,2019-08-07 16:28:08:905
7.5215,-6.6495,-0.0086,0.029,0.4404,0.032,0.0485,-0.024,-0.0053,398,2019-08-07 16:28:08:910
7.5215,-6.6495,-0.0086,0.029,0.4404,0.032,0.0506,-0.0219,-0.0053,403,2019-08-07 16:28:08:915
7.5215,-6.6495,-0.0086,0.029,0.4404,0.032,0.0506,-0.0219,-0.0053,408,2019-08-07 16:28:08:920
7.4784,-6.6352,0.015,0.029,0.4404,0.032,0.0506,-0.0347,-0.0031,413,2019-08-07 16:28:08:925
7.4784,-6.6352,0.015,0.1187,0.3577,0.0151,0.0506,-0.0347,-0.0031,418,2019-08-07 16:28:08:930
7.4736,-6.6113,-0.0039,0.1187,0.3577,0.0151,0.0538,-0.0464,-0.0053,422,2019-08-07 16:28:08:934
7.4736,-6.6113,-0.0039,0.1187,0.3577,0.0151,0.0538,-0.0464,-0.0053,428,2019-08-07 16:28:08:940
7.4736,-6.6113,-0.0039,0.1187,0.3577,0.0151,0.0538,-0.0635,0.0,433,2019-08-07 16:28:08:945
7.5023,-6.6113,-0.0086,0.074,0.3797,0.0515,0.0538,-0.0635,0.0,437,2019-08-07 16:28:08:949
7.5023,-6.6113,-0.0086,0.074,0.3797,0.0515,0.057,-0.0794,0.0054,443,2019-08-07 16:28:08:955
7.6411,-6.5015,-0.0934,0.074,0.3797,0.0515,0.057,-0.0794,0.0054,448,2019-08-07 16:28:08:960
7.6411,-6.5015,-0.0934,0.074,0.3797,0.0515,0.0613,-0.0848,0.0118,452,2019-08-07 16:28:08:964
7.6411,-6.5015,-0.0934,-0.1336,0.2771,0.1965,0.0613,-0.0848,0.0118,458,2019-08-07 16:28:08:970
7.6889,-6.5111,-0.1783,-0.1336,0.2771,0.1965,0.0677,-0.0848,0.0256,463,2019-08-07 16:28:08:975
7.6889,-6.5111,-0.1783,-0.1336,0.2771,0.1965,0.0677,-0.0848,0.0256,468,2019-08-07 16:28:08:980
7.8277,-6.4872,-0.2019,-0.1336,0.2771,0.1965,0.0773,-0.0688,0.0395,472,2019-08-07 16:28:08:984
7.8277,-6.4872,-0.2019,-0.2714,0.1865,0.2107,0.0773,-0.0688,0.0395,478,2019-08-07 16:28:08:990
7.8277,-6.4872,-0.2019,-0.2714,0.1865,0.2107,0.0901,-0.0667,0.0491,484,2019-08-07 16:28:08:996
7.8899,-6.4538,-0.2867,-0.2714,0.1865,0.2107,0.0901,-0.0667,0.0491,488,2019-08-07 16:28:09:000
7.8899,-6.4538,-0.2867,-0.2714,0.1865,0.2107,0.0986,-0.0571,0.0597,493,2019-08-07 16:28:09:005
7.7368,-6.4538,-0.2867,-0.2014,0.2264,0.2767,0.0986,-0.0571,0.0597,498,2019-08-07 16:28:09:010
7.7368,-6.4538,-0.2867,-0.2014,0.2264,0.2767,0.1007,-0.0581,0.065,503,2019-08-07 16:28:09:015
7.7368,-6.4538,-0.2867,-0.2014,0.2264,0.2767,0.1007,-0.0581,0.065,508,2019-08-07 16:28:09:020
7.7081,-6.492,-0.1264,-0.2014,0.2264,0.2767,0.1039,-0.0667,0.0661,514,2019-08-07 16:28:09:026
7.7081,-6.492,-0.1264,-0.1144,0.2207,0.1465,0.1039,-0.0667,0.0661,518,2019-08-07 16:28:09:030
7.7081,-6.492,-0.1264,-0.1144,0.2207,0.1465,0.1039,-0.0667,0.0661,522,2019-08-07 16:28:09:034
7.6364,-6.5206,-0.1594,-0.1144,0.2207,0.1465,0.1103,-0.0826,0.0533,528,2019-08-07 16:28:09:040
7.6364,-6.5206,-0.1594,-0.1144,0.2207,0.1465,0.1103,-0.0826,0.0533,533,2019-08-07 16:28:09:045
7.6172,-6.5254,-0.1406,-0.0694,0.2592,0.1749,0.1146,-0.0933,0.0437,538,2019-08-07 16:28:09:050
7.6172,-6.5254,-0.1406,-0.0694,0.2592,0.1749,0.1146,-0.0933,0.0437,543,2019-08-07 16:28:09:055
7.7273,-6.5206,-0.0416,-0.0694,0.2592,0.1749,0.1241,-0.1029,0.0437,548,2019-08-07 16:28:09:060
7.7273,-6.5206,-0.0416,-0.0694,0.2592,0.1749,0.1241,-0.1029,0.0437,553,2019-08-07 16:28:09:065
7.7273,-6.5206,-0.0416,-0.2132,0.1195,0.0749,0.1241,-0.1029,0.0437,558,2019-08-07 16:28:09:070
7.8373,-6.3297,0.0197,-0.2132,0.1195,0.0749,0.1327,-0.1018,0.0341,564,2019-08-07 16:28:09:076
7.8373,-6.3297,0.0197,-0.2132,0.1195,0.0749,0.1327,-0.1018,0.0341,568,2019-08-07 16:28:09:080
7.8373,-6.3297,0.0197,-0.2132,0.1195,0.0749,0.1369,-0.0805,0.0299,572,2019-08-07 16:28:09:084
7.9474,-6.1626,-0.018,-0.3315,-0.109,0.0544,0.1369,-0.0805,0.0299,578,2019-08-07 16:28:09:090
7.9474,-6.1626,-0.018,-0.3315,-0.109,0.0544,0.1305,-0.0613,0.0331,582,2019-08-07 16:28:09:094
7.9474,-6.1626,-0.018,-0.3315,-0.109,0.0544,0.1305,-0.0613,0.0331,588,2019-08-07 16:28:09:100
7.8565,-6.1769,0.1093,-0.3315,-0.109,0.0544,0.1209,-0.0528,0.0405,593,2019-08-07 16:28:09:105
7.8565,-6.1769,0.1093,-0.3205,-0.0939,-0.122,0.1209,-0.0528,0.0405,598,2019-08-07 16:28:09:110
7.7991,-6.1865,0.0669,-0.3205,-0.0939,-0.122,0.1135,-0.0507,0.0416,603,2019-08-07 16:28:09:115
7.7991,-6.1865,0.0669,-0.3205,-0.0939,-0.122,0.1135,-0.0507,0.0416,608,2019-08-07 16:28:09:120
7.7991,-6.1865,0.0669,-0.2699,-0.0963,-0.0902,0.1124,-0.0539,0.0459,613,2019-08-07 16:28:09:125
7.8374,-6.1578,0.1611,-0.2699,-0.0963,-0.0902,0.1124,-0.0539,0.0459,618,2019-08-07 16:28:09:130
7.8374,-6.1578,0.1611,-0.2699,-0.0963,-0.0902,0.105,-0.0528,0.0522,622,2019-08-07 16:28:09:134
7.8469,-6.1483,0.0339,-0.3178,-0.1402,0.019,0.105,-0.0528,0.0522,628,2019-08-07 16:28:09:140
7.8469,-6.1483,0.0339,-0.3178,-0.1402,0.019,0.0932,-0.0517,0.0512,633,2019-08-07 16:28:09:145
7.8469,-6.1483,0.0339,-0.3178,-0.1402,0.019,0.0932,-0.0517,0.0512,638,2019-08-07 16:28:09:150
7.8613,-6.2581,0.0857,-0.3178,-0.1402,0.019,0.0869,-0.0464,0.0501,643,2019-08-07 16:28:09:155
7.8613,-6.2581,0.0857,-0.3232,0.0205,-0.005,0.0869,-0.0464,0.0501,648,2019-08-07 16:28:09:160
7.8996,-6.3106,0.0433,-0.3232,0.0205,-0.005,0.0794,-0.0272,0.0501,653,2019-08-07 16:28:09:165
7.8996,-6.3106,0.0433,-0.3232,0.0205,-0.005,0.0794,-0.0272,0.0501,658,2019-08-07 16:28:09:170
7.8996,-6.3106,0.0433,-0.3232,0.0205,-0.005,0.0794,0.0026,0.0427,663,2019-08-07 16:28:09:175
7.8422,-6.2246,0.0386,-0.3326,-0.0518,0.0604,0.0794,0.0026,0.0427,668,2019-08-07 16:28:09:180
7.8422,-6.2246,0.0386,-0.3326,-0.0518,0.0604,0.0826,0.0154,0.0469,673,2019-08-07 16:28:09:185
7.8172,-6.2245,0.0195,-0.3326,-0.0518,0.0604,0.0826,0.0154,0.0469,678,2019-08-07 16:28:09:190
7.8172,-6.2245,0.0195,-0.2957,-0.0834,0.0953,0.0805,0.026,0.0469,683,2019-08-07 16:28:09:195
7.8268,-6.2341,0.0054,-0.2957,-0.0834,0.0953,0.0805,0.026,0.0469,688,2019-08-07 16:28:09:200
7.8268,-6.2341,0.0054,-0.2957,-0.0834,0.0953,0.0837,0.0303,0.0469,693,2019-08-07 16:28:09:205
7.8268,-6.2341,0.0054,-0.2957,-0.1271,0.1187,0.0837,0.0303,0.0469,698,2019-08-07 16:28:09:210
7.7933,-6.1482,-0.0512,-0.2957,-0.1271,0.1187,0.0837,0.0303,0.0469,703,2019-08-07 16:28:09:215
7.7933,-6.1482,-0.0512,-0.2957,-0.1271,0.1187,0.0847,0.0239,0.0395,708,2019-08-07 16:28:09:220
7.7933,-6.1482,-0.0512,-0.2957,-0.1271,0.1187,0.0847,0.0239,0.0395,713,2019-08-07 16:28:09:225
7.688,-6.2484,0.0148,-0.2957,-0.1271,0.1187,0.0858,0.009,0.0373,717,2019-08-07 16:28:09:229
7.688,-6.2484,0.0148,-0.1847,-0.0264,0.1458,0.0858,0.009,0.0373,723,2019-08-07 16:28:09:235
7.6689,-6.3009,0.0902,-0.1847,-0.0264,0.1458,0.0869,0.01,0.0288,728,2019-08-07 16:28:09:240
7.6689,-6.3009,0.0902,-0.1847,-0.0264,0.1458,0.0869,0.01,0.0288,732,2019-08-07 16:28:09:244
7.6689,-6.3009,0.0902,-0.1847,-0.0264,0.1458,0.0879,0.0111,0.015,738,2019-08-07 16:28:09:250
7.6737,-6.2293,0.1043,-0.1679,-0.0863,0.0074,0.0879,0.0111,0.015,742,2019-08-07 16:28:09:254
7.6737,-6.2293,0.1043,-0.1679,-0.0863,0.0074,0.0783,0.0239,0.0032,749,2019-08-07 16:28:09:261
7.5875,-6.3248,0.1043,-0.1679,-0.0863,0.0074,0.0783,0.0239,0.0032,752,2019-08-07 16:28:09:264
7.5875,-6.3248,0.1043,-0.1679,-0.0863,0.0074,0.0783,0.0239,0.0032,757,2019-08-07 16:28:09:269
7.5875,-6.3248,0.1043,-0.0052,0.062,-0.0026,0.0666,0.0377,-0.0117,763,2019-08-07 16:28:09:275
7.4249,-6.3916,0.1751,-0.0052,0.062,-0.0026,0.0666,0.0377,-0.0117,767,2019-08-07 16:28:09:279
7.4249,-6.3916,0.1751,-0.0052,0.062,-0.0026,0.0506,0.0292,-0.0266,773,2019-08-07 16:28:09:285
7.3244,-6.3725,0.2505,-0.0052,0.062,-0.0026,0.0506,0.0292,-0.0266,778,2019-08-07 16:28:09:290
7.3244,-6.3725,0.2505,0.1742,0.0985,-0.094,0.0421,0.0069,-0.0351,783,2019-08-07 16:28:09:295
7.3244,-6.3725,0.2505,0.1742,0.0985,-0.094,0.0421,0.0069,-0.0351,788,2019-08-07 16:28:09:300
7.3866,-6.4441,0.208,0.1742,0.0985,-0.094,0.0336,-0.0315,-0.0415,793,2019-08-07 16:28:09:305
7.3866,-6.4441,0.208,0.1742,0.0985,-0.094,0.0336,-0.0315,-0.0415,798,2019-08-07 16:28:09:310
7.5062,-6.4632,0.0902,-0.0174,0.1563,0.0247,0.0272,-0.0624,-0.0426,804,2019-08-07 16:28:09:316
7.5062,-6.4632,0.0902,-0.0174,0.1563,0.0247,0.0272,-0.0624,-0.0426,808,2019-08-07 16:28:09:320
7.5062,-6.4632,0.0902,-0.0174,0.1563,0.0247,0.0336,-0.0805,-0.0415,813,2019-08-07 16:28:09:325
7.7406,-6.6064,-0.0324,-0.0174,0.1563,0.0247,0.0336,-0.0805,-0.0415,818,2019-08-07 16:28:09:330
7.7406,-6.6064,-0.0324,-0.2564,0.3245,0.2007,0.0421,-0.056,-0.0404,822,2019-08-07 16:28:09:334
7.7884,-6.5969,-0.0135,-0.2564,0.3245,0.2007,0.0421,-0.056,-0.0404,828,2019-08-07 16:28:09:340
7.7884,-6.5969,-0.0135,-0.2564,0.3245,0.2007,0.0602,-0.0176,-0.0351,833,2019-08-07 16:28:09:345
7.7884,-6.5969,-0.0135,-0.2564,0.3245,0.2007,0.0602,-0.0176,-0.0351,838,2019-08-07 16:28:09:350
7.6258,-6.6017,0.1138,-0.1043,0.3052,0.0197,0.0751,5.0E-4,-0.0159,843,2019-08-07 16:28:09:355
7.6258,-6.6017,0.1138,-0.1043,0.3052,0.0197,0.0751,5.0E-4,-0.0159,848,2019-08-07 16:28:09:360
7.6258,-6.6017,0.1138,-0.1043,0.3052,0.0197,0.0837,-0.0038,-0.0085,853,2019-08-07 16:28:09:365
7.4775,-6.5396,0.1703,-0.1043,0.3052,0.0197,0.0837,-0.0038,-0.0085,858,2019-08-07 16:28:09:370
7.4775,-6.5396,0.1703,0.1068,0.1534,-0.1639,0.0815,-0.0379,-0.0106,864,2019-08-07 16:28:09:376
7.4392,-6.4966,0.2835,0.1068,0.1534,-0.1639,0.0815,-0.0379,-0.0106,868,2019-08-07 16:28:09:380
7.4392,-6.4966,0.2835,0.1068,0.1534,-0.1639,0.0815,-0.0379,-0.0106,873,2019-08-07 16:28:09:385
7.4392,-6.4966,0.2835,0.1068,0.1534,-0.1639,0.0783,-0.1029,-0.0138,878,2019-08-07 16:28:09:390
7.4918,-6.4346,0.2363,0.017,0.1833,-0.076,0.0783,-0.1029,-0.0138,882,2019-08-07 16:28:09:394
7.4918,-6.4346,0.2363,0.017,0.1833,-0.076,0.0741,-0.1359,-0.0138,888,2019-08-07 16:28:09:400
7.7119,-6.5396,0.2033,0.017,0.1833,-0.076,0.0741,-0.1359,-0.0138,893,2019-08-07 16:28:09:405
7.7119,-6.5396,0.2033,0.017,0.1833,-0.076,0.0858,-0.138,-0.0202,897,2019-08-07 16:28:09:409
7.7119,-6.5396,0.2033,-0.2246,0.2049,-0.0387,0.0858,-0.138,-0.0202,903,2019-08-07 16:28:09:415
7.8123,-6.5253,0.1326,-0.2246,0.2049,-0.0387,0.1114,-0.1125,-0.0159,907,2019-08-07 16:28:09:419
7.8123,-6.5253,0.1326,-0.2246,0.2049,-0.0387,0.1114,-0.1125,-0.0159,913,2019-08-07 16:28:09:425
7.8123,-6.5253,0.1326,-0.2246,0.2049,-0.0387,0.1316,-0.0975,-0.0074,918,2019-08-07 16:28:09:430
7.8028,-6.4823,0.1703,-0.2803,0.1688,-0.0776,0.1316,-0.0975,-0.0074,923,2019-08-07 16:28:09:435
7.8028,-6.4823,0.1703,-0.2803,0.1688,-0.0776,0.1518,-0.0943,0.0011,928,2019-08-07 16:28:09:440
7.8458,-6.3248,0.2505,-0.2803,0.1688,-0.0776,0.1518,-0.0943,0.0011,932,2019-08-07 16:28:09:444
7.8458,-6.3248,0.2505,-0.2803,0.1688,-0.0776,0.1636,-0.0954,0.0128,938,2019-08-07 16:28:09:450
7.8458,-6.3248,0.2505,-0.3467,-0.1311,-0.1751,0.1636,-0.0954,0.0128,943,2019-08-07 16:28:09:455
7.908,-6.1529,0.2646,-0.3467,-0.1311,-0.1751,0.1636,-0.0922,0.0309,947,2019-08-07 16:28:09:459
7.908,-6.1529,0.2646,-0.3467,-0.1311,-0.1751,0.1636,-0.0922,0.0309,953,2019-08-07 16:28:09:465
7.908,-6.1529,0.2646,-0.3467,-0.1311,-0.1751,0.1636,-0.0922,0.0309,957,2019-08-07 16:28:09:469
7.841,-6.1338,0.4437,-0.3105,-0.248,-0.2464,0.1614,-0.088,0.0373,963,2019-08-07 16:28:09:475
7.841,-6.1338,0.4437,-0.3105,-0.248,-0.2464,0.1614,-0.088,0.0373,968,2019-08-07 16:28:09:480
7.7836,-6.0145,0.5003,-0.3105,-0.248,-0.2464,0.1518,-0.0709,0.0363,972,2019-08-07 16:28:09:484
7.7836,-6.0145,0.5003,-0.3105,-0.248,-0.2464,0.1518,-0.0709,0.0363,978,2019-08-07 16:28:09:490
7.7023,-5.919,0.4956,-0.1785,-0.3742,-0.3391,0.1337,-0.0517,0.0224,983,2019-08-07 16:28:09:495
7.7023,-5.919,0.4956,-0.1785,-0.3742,-0.3391,0.1337,-0.0517,0.0224,988,2019-08-07 16:28:09:500
7.7023,-5.919,0.4956,-0.1785,-0.3742,-0.3391,0.1071,-0.0262,0.0075,992,2019-08-07 16:28:09:504
7.53,-5.8856,0.4437,-0.1785,-0.3742,-0.3391,0.1071,-0.0262,0.0075,998,2019-08-07 16:28:09:510
7.53,-5.8856,0.4437,0.1049,-0.3774,-0.2988,0.0762,-0.0102,-0.0127,1003,2019-08-07 16:28:09:515
7.53,-5.8856,0.4437,0.1049,-0.3774,-0.2988,0.0762,-0.0102,-0.0127,1008,2019-08-07 16:28:09:520
7.4535,-5.8665,0.4484,0.1049,-0.3774,-0.2988,0.0538,-0.024,-0.0245,1013,2019-08-07 16:28:09:525
7.4535,-5.8665,0.4484,0.1049,-0.3774,-0.2988,0.0538,-0.024,-0.0245,1018,2019-08-07 16:28:09:530
7.4631,-5.7806,0.5239,0.0425,-0.5626,-0.3631,0.0347,-0.0624,-0.0319,1023,2019-08-07 16:28:09:535
7.4631,-5.7806,0.5239,0.0425,-0.5626,-0.3631,0.0347,-0.0624,-0.0319,1028,2019-08-07 16:28:09:540
7.4631,-5.7806,0.5239,0.0425,-0.5626,-0.3631,0.0347,-0.0624,-0.0319,1032,2019-08-07 16:28:09:544
7.6544,-5.6564,0.3636,0.0425,-0.5626,-0.3631,0.0027,-0.0933,-0.0372,1038,2019-08-07 16:28:09:550
7.6544,-5.6564,0.3636,0.0425,-0.5626,-0.3631,0.0027,-0.0933,-0.0372,1043,2019-08-07 16:28:09:555
7.8458,-5.6135,0.2552,-0.27,-0.7061,-0.0631,-0.0346,-0.1146,-0.0372,1049,2019-08-07 16:28:09:561
7.8458,-5.6135,0.2552,-0.27,-0.7061,-0.0631,-0.0644,-0.1093,-0.0298,1053,2019-08-07 16:28:09:565
7.8458,-5.6135,0.2552,-0.27,-0.7061,-0.0631,-0.0644,-0.1093,-0.0298,1058,2019-08-07 16:28:09:570
8.0228,-5.6087,0.2552,-0.27,-0.7061,-0.0631,-0.0644,-0.1093,-0.0298,1063,2019-08-07 16:28:09:575
8.0228,-5.6087,0.2552,-0.5154,-0.6538,-0.0717,-0.0804,-0.0794,-0.0255,1068,2019-08-07 16:28:09:580
8.0228,-5.6087,0.2552,-0.5154,-0.6538,-0.0717,-0.0804,-0.0794,-0.0255,1073,2019-08-07 16:28:09:585
8.0563,-5.5275,0.2316,-0.5066,-0.7352,-0.1005,-0.0868,-0.0453,-0.0266,1078,2019-08-07 16:28:09:590
8.0563,-5.5275,0.2316,-0.5066,-0.7352,-0.1005,-0.0868,-0.0453,-0.0266,1083,2019-08-07 16:28:09:595
8.0563,-5.5275,0.2316,-0.5066,-0.7352,-0.1005,-0.106,-0.0102,-0.0458,1087,2019-08-07 16:28:09:599
8.0084,-5.4273,0.2457,-0.5066,-0.7352,-0.1005,-0.106,-0.0102,-0.0458,1093,2019-08-07 16:28:09:605
8.0084,-5.4273,0.2457,-0.4245,-0.8089,-0.1481,-0.1432,0.0303,-0.0884,1099,2019-08-07 16:28:09:611
7.9127,-5.3796,0.3494,-0.4245,-0.8089,-0.1481,-0.1432,0.0303,-0.0884,1103,2019-08-07 16:28:09:615
7.9127,-5.3796,0.3494,-0.4245,-0.8089,-0.1481,-0.1432,0.0303,-0.0884,1108,2019-08-07 16:28:09:620
7.9127,-5.3796,0.3494,-0.4245,-0.8089,-0.1481,-0.1752,0.0452,-0.1523,1114,2019-08-07 16:28:09:626
7.7979,-5.1456,0.4767,-0.2213,-1.1268,-0.3866,-0.1752,0.0452,-0.1523,1117,2019-08-07 16:28:09:629
7.7979,-5.1456,0.4767,-0.2213,-1.1268,-0.3866,-0.221,0.0271,-0.2407,1123,2019-08-07 16:28:09:635
7.8218,-4.6683,0.538,-0.2213,-1.1268,-0.3866,-0.221,0.0271,-0.2407,1127,2019-08-07 16:28:09:639
7.8218,-4.6683,0.538,-0.3628,-1.875,-0.4328,-0.2647,0.0132,-0.2961,1134,2019-08-07 16:28:09:646
7.8218,-4.6683,0.538,-0.3628,-1.875,-0.4328,-0.2647,0.0132,-0.2961,1138,2019-08-07 16:28:09:650
8.0515,-4.0859,0.5191,-0.3628,-1.875,-0.4328,-0.2647,0.0132,-0.2961,1143,2019-08-07 16:28:09:655
8.0515,-4.0859,0.5191,-0.4455,-2.3378,-0.4033,-0.3339,-0.0017,-0.3771,1148,2019-08-07 16:28:09:660
8.1902,-3.4414,0.3212,-0.4455,-2.3378,-0.4033,-0.3339,-0.0017,-0.3771,1153,2019-08-07 16:28:09:665
8.1902,-3.4414,0.3212,-0.4455,-2.3378,-0.4033,-0.4127,0.0164,-0.4633,1158,2019-08-07 16:28:09:670
8.1902,-3.4414,0.3212,-0.4455,-2.3378,-0.4033,-0.4127,0.0164,-0.4633,1164,2019-08-07 16:28:09:676
8.2524,-2.9545,0.3871,-0.533,-3.0992,-0.3682,-0.4831,0.0537,-0.5507,1168,2019-08-07 16:28:09:680
8.2524,-2.9545,0.3871,-0.533,-3.0992,-0.3682,-0.4831,0.0537,-0.5507,1173,2019-08-07 16:28:09:685
8.1232,-2.5153,0.274,-0.533,-3.0992,-0.3682,-0.5544,0.0974,-0.637,1178,2019-08-07 16:28:09:690
8.1232,-2.5153,0.274,-0.533,-3.0992,-0.3682,-0.5544,0.0974,-0.637,1183,2019-08-07 16:28:09:695
8.1232,-2.5153,0.274,-0.225,-3.7333,-0.2159,-0.6343,0.1155,-0.7137,1188,2019-08-07 16:28:09:700
8.0419,-2.0474,0.0383,-0.225,-3.7333,-0.2159,-0.6343,0.1155,-0.7137,1193,2019-08-07 16:28:09:705
8.0419,-2.0474,0.0383,-0.1856,-3.9958,-0.0568,-0.727,0.1443,-0.8,1198,2019-08-07 16:28:09:710
8.0419,-2.0474,0.0383,-0.1856,-3.9958,-0.0568,-0.727,0.1443,-0.8,1203,2019-08-07 16:28:09:715
7.9127,-1.4889,-0.3294,-0.1856,-3.9958,-0.0568,-0.727,0.1443,-0.8,1208,2019-08-07 16:28:09:720
7.9127,-1.4889,-0.3294,-0.1856,-3.9958,-0.0568,-0.8676,0.1816,-0.964,1212,2019-08-07 16:28:09:724
7.4247,-0.6821,-0.6075,0.4829,-4.7785,0.4088,-0.8676,0.1816,-0.964,1218,2019-08-07 16:28:09:730
7.4247,-0.6821,-0.6075,0.4829,-4.7785,0.4088,-1.0413,0.2433,-1.1654,1223,2019-08-07 16:28:09:735
7.4247,-0.6821,-0.6075,0.4829,-4.7785,0.4088,-1.0413,0.2433,-1.1654,1228,2019-08-07 16:28:09:740
6.8984,0.1676,-0.4896,0.4829,-4.7785,0.4088,-1.2021,0.2263,-1.3443,1234,2019-08-07 16:28:09:746
6.8984,0.1676,-0.4896,1.5424,-6.0306,0.2043,-1.2021,0.2263,-1.3443,1237,2019-08-07 16:28:09:749
6.8984,0.1676,-0.4896,1.5424,-6.0306,0.2043,-1.2021,0.2263,-1.3443,1243,2019-08-07 16:28:09:755
6.2765,1.1749,-0.6593,1.5424,-6.0306,0.2043,-1.3811,0.1485,-1.5467,1248,2019-08-07 16:28:09:760
6.2765,1.1749,-0.6593,2.1233,-6.6275,0.4607,-1.3811,0.1485,-1.5467,1252,2019-08-07 16:28:09:764
6.2765,1.1749,-0.6593,2.1233,-6.6275,0.4607,-1.6357,-0.0848,-1.7896,1258,2019-08-07 16:28:09:770
5.9416,1.9387,-1.0459,2.1233,-6.6275,0.4607,-1.6357,-0.0848,-1.7896,1263,2019-08-07 16:28:09:775
5.9416,1.9387,-1.0459,2.264,-7.2872,0.9275,-1.8828,-0.2882,-1.9856,1268,2019-08-07 16:28:09:780
5.9416,1.9387,-1.0459,2.264,-7.2872,0.9275,-1.8828,-0.2882,-1.9856,1273,2019-08-07 16:28:09:785
6.3052,2.693,-1.5502,2.264,-7.2872,0.9275,-2.1449,-0.5162,-2.1965,1277,2019-08-07 16:28:09:789
6.3052,2.693,-1.5502,2.264,-7.2872,0.9275,-2.1449,-0.5162,-2.1965,1283,2019-08-07 16:28:09:795
6.6496,2.9603,-1.8142,2.0561,-7.4096,1.0083,-2.4751,-0.7559,-2.4565,1288,2019-08-07 16:28:09:800
6.6496,2.9603,-1.8142,2.0561,-7.4096,1.0083,-2.4751,-0.7559,-2.4565,1293,2019-08-07 16:28:09:805
6.6496,2.9603,-1.8142,2.0561,-7.4096,1.0083,-2.4751,-0.7559,-2.4565,1298,2019-08-07 16:28:09:810
6.951,3.0176,-1.9839,1.8703,-7.1916,0.9849,-2.7265,-0.9263,-2.6674,1303,2019-08-07 16:28:09:815
6.951,3.0176,-1.9839,1.8703,-7.1916,0.9849,-2.7265,-0.9263,-2.6674,1308,2019-08-07 16:28:09:820
7.4438,3.3374,-3.0351,1.8703,-7.1916,0.9849,-2.9768,-1.0861,-2.8996,1314,2019-08-07 16:28:09:826
7.4438,3.3374,-3.0351,1.3989,-7.1013,2.0235,-2.9768,-1.0861,-2.8996,1318,2019-08-07 16:28:09:830
7.4438,3.3374,-3.0351,1.3989,-7.1013,2.0235,-3.29,-1.2012,-3.1947,1323,2019-08-07 16:28:09:835
7.8744,4.0201,-4.1004,1.3989,-7.1013,2.0235,-3.29,-1.2012,-3.1947,1328,2019-08-07 16:28:09:840
7.8744,4.0201,-4.1004,1.3989,-7.1013,2.0235,-3.5404,-1.2438,-3.4695,1333,2019-08-07 16:28:09:845
7.7978,4.8364,-5.3967,1.4259,-7.5741,3.4825,-3.5404,-1.2438,-3.4695,1338,2019-08-07 16:28:09:850
7.7978,4.8364,-5.3967,1.4259,-7.5741,3.4825,-3.5404,-1.2438,-3.4695,1343,2019-08-07 16:28:09:855
7.7978,4.8364,-5.3967,1.4259,-7.5741,3.4825,-3.8994,-1.2992,-3.8147,1348,2019-08-07 16:28:09:860
7.5395,5.71,-6.1698,1.4259,-7.5741,3.4825,-3.8994,-1.2992,-3.8147,1353,2019-08-07 16:28:09:865
7.5395,5.71,-6.1698,1.4259,-7.5741,3.4825,-3.8994,-1.2992,-3.8147,1358,2019-08-07 16:28:09:870
7.6591,6.0824,-6.1603,1.6915,-7.8523,3.7791,-4.4831,-1.4483,-4.2546,1363,2019-08-07 16:28:09:875
7.6591,6.0824,-6.1603,1.6915,-7.8523,3.7791,-4.4831,-1.4483,-4.2546,1368,2019-08-07 16:28:09:880
7.6591,6.0824,-6.1603,1.6915,-7.8523,3.7791,-5.167,-1.8595,-4.6669,1373,2019-08-07 16:28:09:885
8.8025,6.7269,-6.4337,1.6915,-7.8523,3.7791,-5.167,-1.8595,-4.6669,1378,2019-08-07 16:28:09:890
8.8025,6.7269,-6.4337,0.2082,-7.2616,3.662,-5.5654,-2.2654,-4.8586,1384,2019-08-07 16:28:09:896
8.8025,6.7269,-6.4337,0.2082,-7.2616,3.662,-5.5654,-2.2654,-4.8586,1388,2019-08-07 16:28:09:900
11.3477,5.2374,-7.5886,0.2082,-7.2616,3.662,-5.5654,-2.2654,-4.8586,1393,2019-08-07 16:28:09:905
11.3477,5.2374,-7.5886,-2.9791,-2.9853,5.3011,-5.8903,-2.5402,-5.0781,1397,2019-08-07 16:28:09:909
11.3477,5.2374,-7.5886,-2.9791,-2.9853,5.3011,-5.8903,-2.5402,-5.0781,1403,2019-08-07 16:28:09:915
12.2759,1.9101,-9.4317,-2.9791,-2.9853,5.3011,-6.1343,-2.5274,-5.4062,1408,2019-08-07 16:28:09:920
12.2759,1.9101,-9.4317,-2.9791,-2.9853,5.3011,-6.1343,-2.5274,-5.4062,1413,2019-08-07 16:28:09:925
12.2759,1.9101,-9.4317,-2.9791,-2.9853,5.3011,-6.212,-2.5306,-5.6618,1417,2019-08-07 16:28:09:929
12.4433,-1.5319,-9.4035,-3.5749,3.6653,5.7929,-6.212,-2.5306,-5.6618,1423,2019-08-07 16:28:09:935
12.4433,-1.5319,-9.4035,-3.5749,3.6653,5.7929,-6.212,-2.5306,-5.6618,1428,2019-08-07 16:28:09:940
12.582,-5.0931,-9.9031,-3.5749,3.6653,5.7929,-6.2536,-2.8449,-5.8823,1433,2019-08-07 16:28:09:945
12.582,-5.0931,-9.9031,-3.5749,3.6653,5.7929,-6.2536,-2.8449,-5.8823,1438,2019-08-07 16:28:09:950
12.582,-5.0931,-9.9031,-4.7197,10.3998,6.7501,-6.114,-3.1048,-6.0144,1442,2019-08-07 16:28:09:954
13.8307,-7.4609,-11.0109,-4.7197,10.3998,6.7501,-6.114,-3.1048,-6.0144,1449,2019-08-07 16:28:09:961
13.8307,-7.4609,-11.0109,-4.7197,10.3998,6.7501,-5.6954,-3.0696,-6.0815,1452,2019-08-07 16:28:09:964
13.8307,-7.4609,-11.0109,-4.7197,10.3998,6.7501,-5.6954,-3.0696,-6.0815,1458,2019-08-07 16:28:09:970
16.4955,-8.8215,-12.6701,-9.3166,13.9014,9.2118,-4.9465,-2.9844,-6.0698,1463,2019-08-07 16:28:09:975
16.4955,-8.8215,-12.6701,-9.3166,13.9014,9.2118,-4.9465,-2.9844,-6.0698,1468,2019-08-07 16:28:09:980
16.4955,-8.8215,-12.6701,-9.3166,13.9014,9.2118,-3.9377,-2.9098,-5.7684,1473,2019-08-07 16:28:09:985
17.7251,-10.5305,-15.1637,-9.3166,13.9014,9.2118,-3.9377,-2.9098,-5.7684,1478,2019-08-07 16:28:09:990
17.7251,-10.5305,-15.1637,-11.3782,17.3421,12.6491,-3.0961,-2.8278,-5.273,1483,2019-08-07 16:28:09:995
18.8781,-12.6739,-18.8971,-11.3782,17.3421,12.6491,-3.0961,-2.8278,-5.273,1488,2019-08-07 16:28:10:000
18.8781,-12.6739,-18.8971,-11.3782,17.3421,12.6491,-3.0961,-2.8278,-5.273,1493,2019-08-07 16:28:10:005
18.8781,-12.6739,-18.8971,-11.3782,17.3421,12.6491,-1.6719,-2.2952,-4.2749,1498,2019-08-07 16:28:10:010
21.074,-15.8151,-22.6115,-15.1105,22.5936,18.7743,-1.6719,-2.2952,-4.2749,1503,2019-08-07 16:28:10:015
21.074,-15.8151,-22.6115,-15.1105,22.5936,18.7743,-0.2902,-1.0882,-3.5824,1508,2019-08-07 16:28:10:020
21.074,-15.8151,-22.6115,-15.1105,22.5936,18.7743,-0.2902,-1.0882,-3.5824,1512,2019-08-07 16:28:10:024
23.9876,-19.5673,-23.8513,-15.1105,22.5936,18.7743,0.7313,-0.073,-3.281,1518,2019-08-07 16:28:10:030
23.9876,-19.5673,-23.8513,-18.917,28.8544,19.9933,0.7313,-0.073,-3.281,1523,2019-08-07 16:28:10:035
24.1407,-23.0856,-24.2897,-18.917,28.8544,19.9933,1.8595,0.9411,-2.7121,1527,2019-08-07 16:28:10:039
24.1407,-23.0856,-24.2897,-18.917,28.8544,19.9933,1.8595,0.9411,-2.7121,1533,2019-08-07 16:28:10:045
22.2414,-24.8042,-26.4392,-18.917,28.8544,19.9933,2.6552,1.7091,-1.8077,1538,2019-08-07 16:28:10:050
22.2414,-24.8042,-26.4392,-18.917,28.8544,19.9933,2.6552,1.7091,-1.8077,1542,2019-08-07 16:28:10:054
22.2414,-24.8042,-26.4392,-16.7292,31.9319,22.798,3.2219,2.3195,-0.8937,1548,2019-08-07 16:28:10:060
21.1314,-24.1741,-29.3853,-16.7292,31.9319,22.798,3.2219,2.3195,-0.8937,1553,2019-08-07 16:28:10:065
21.1314,-24.1741,-29.3853,-16.7292,31.9319,22.798,3.2219,2.3195,-0.8937,1558,2019-08-07 16:28:10:070
21.1314,-24.1741,-29.3853,-16.6608,29.3313,26.2467,4.2478,3.2953,0.8128,1563,2019-08-07 16:28:10:075
22.6337,-21.9972,-31.0493,-16.6608,29.3313,26.2467,4.2478,3.2953,0.8128,1567,2019-08-07 16:28:10:079
22.6337,-21.9972,-31.0493,-16.6608,29.3313,26.2467,5.5474,3.2772,2.4459,1573,2019-08-07 16:28:10:085
25.6621,-20.7226,-32.4304,-16.6608,29.3313,26.2467,5.5474,3.2772,2.4459,1577,2019-08-07 16:28:10:089
25.6621,-20.7226,-32.4304,-21.9031,26.8683,29.4925,6.7203,2.0149,3.5953,1583,2019-08-07 16:28:10:095
25.6621,-21.052,-37.0452,-21.9031,26.8683,29.4925,6.7203,2.0149,3.5953,1588,2019-08-07 16:28:10:100
29.1115,-21.052,-37.0452,-21.9031,26.8683,29.4925,7.8974,0.1198,4.6904,1593,2019-08-07 16:28:10:105
29.1115,-21.052,-37.0452,-21.9031,26.8683,29.4925,7.8974,0.1198,4.6904,1599,2019-08-07 16:28:10:111
27.284,-19.8824,-44.6015,-20.7065,24.4419,38.9283,7.8974,0.1198,4.6904,1602,2019-08-07 16:28:10:114
27.284,-19.8824,-44.6015,-20.7065,24.4419,38.9283,9.4559,-1.2416,6.2468,1608,2019-08-07 16:28:10:120
27.284,-19.8824,-44.6015,-20.7065,24.4419,38.9283,9.4559,-1.2416,6.2468,1612,2019-08-07 16:28:10:124
26.5137,-18.5601,-54.5476,-20.7065,24.4419,38.9283,10.6681,-0.529,7.5538,1618,2019-08-07 16:28:10:130
26.5137,-18.5601,-54.5476,-21.7795,19.7238,51.5623,10.6681,-0.529,7.5538,1623,2019-08-07 16:28:10:135
31.2166,-16.3355,-58.3846,-21.7795,19.7238,51.5623,11.6918,0.6023,8.6521,1627,2019-08-07 16:28:10:139
31.2166,-16.3355,-58.3846,-21.7795,19.7238,51.5623,11.6918,0.6023,8.6521,1634,2019-08-07 16:28:10:146
31.2166,-16.3355,-58.3846,-21.7795,19.7238,51.5623,12.8711,-0.2765,9.4777,1637,2019-08-07 16:28:10:149
37.2208,-14.044,-55.6931,-30.8973,12.8295,48.6846,12.8711,-0.2765,9.4777,1643,2019-08-07 16:28:10:155
37.2208,-14.044,-55.6931,-30.8973,12.8295,48.6846,13.9587,-2.8395,9.6609,1648,2019-08-07 16:28:10:160
39.9191,-11.8767,-58.4176,-30.8973,12.8295,48.6846,13.9587,-2.8395,9.6609,1653,2019-08-07 16:28:10:165
39.9191,-11.8767,-58.4176,-30.8973,12.8295,48.6846,13.9587,-2.8395,9.6609,1657,2019-08-07 16:28:10:169
39.9191,-11.8767,-58.4176,-30.8973,12.8295,48.6846,15.0549,-4.7293,9.4127,1662,2019-08-07 16:28:10:174
42.3447,-7.3893,-68.8163,-35.9041,4.4461,59.9258,15.0549,-4.7293,9.4127,1668,2019-08-07 16:28:10:180
42.3447,-7.3893,-68.8163,-35.9041,4.4461,59.9258,15.6024,-2.9013,8.5211,1673,2019-08-07 16:28:10:185
42.3447,-7.3893,-74.5482,-35.9041,4.4461,59.9258,15.6024,-2.9013,8.5211,1677,2019-08-07 16:28:10:189
37.695,5.92,-74.5482,-37.8132,-27.8469,60.2467,14.9814,0.7589,8.7746,1683,2019-08-07 16:28:10:195
37.695,5.92,-74.5482,-37.8132,-27.8469,60.2467,14.9814,0.7589,8.7746,1688,2019-08-07 16:28:10:200
49.4547,29.8512,-55.6929,-37.8132,-27.8469,60.2467,14.9814,0.7589,8.7746,1692,2019-08-07 16:28:10:204
49.4547,29.8512,-55.6929,-37.8132,-27.8469,60.2467,14.7896,4.4565,7.9011,1699,2019-08-07 16:28:10:211
49.4547,29.8512,-55.6929,-37.2219,-56.459,49.7314,14.7896,4.4565,7.9011,1702,2019-08-07 16:28:10:214
37.9917,49.2663,-54.4061,-37.2219,-56.459,49.7314,12.8274,8.7676,5.0611,1708,2019-08-07 16:28:10:220
37.9917,49.2663,-54.4061,-37.2219,-56.459,49.7314,12.8274,8.7676,5.0611,1713,2019-08-07 16:28:10:225
16.0272,59.0192,-62.1037,-37.2219,-56.459,49.7314,8.3554,10.9652,2.0304,1717,2019-08-07 16:28:10:229
16.0272,59.0192,-62.1037,-1.3706,-75.7604,61.1825,8.3554,10.9652,2.0304,1723,2019-08-07 16:28:10:235
16.0272,59.0192,-62.1037,-1.3706,-75.7604,61.1825,-0.645,5.6272,1.0813,1727,2019-08-07 16:28:10:239
3.9853,75.1691,-46.1475,-1.3706,-75.7604,61.1825,-0.645,5.6272,1.0813,1733,2019-08-07 16:28:10:245
3.9853,75.1691,-46.1475,-1.3706,-75.7604,61.1825,-3.2037,-3.1612,2.1945,1738,2019-08-07 16:28:10:250
5.6741,76.5964,-22.8377,-1.3706,-75.7604,61.1825,-3.2037,-3.1612,2.1945,1743,2019-08-07 16:28:10:255
5.6741,76.5964,-22.8377,-3.1741,-81.1553,20.3092,-3.2037,-3.1612,2.1945,1748,2019-08-07 16:28:10:260
5.6741,76.5964,-22.8377,-3.1741,-81.1553,20.3092,-0.9379,-11.1891,4.6574,1753,2019-08-07 16:28:10:265
15.3335,46.254,-17.4168,-3.1741,-81.1553,20.3092,-0.9379,-11.1891,4.6574,1758,2019-08-07 16:28:10:270
15.3335,46.254,-17.4168,-28.9537,-54.2443,5.0919,1.9298,-4.7368,3.248,1763,2019-08-07 16:28:10:275
20.8019,36.1383,-17.8835,-28.9537,-54.2443,5.0919,1.9298,-4.7368,3.248,1768,2019-08-07 16:28:10:280
20.8019,36.1383,-17.8835,-28.9537,-54.2443,5.0919,3.3114,12.2084,0.5284,1773,2019-08-07 16:28:10:285
20.8019,36.1383,-17.8835,-28.9537,-54.2443,5.0919,3.3114,12.2084,0.5284,1778,2019-08-07 16:28:10:290
21.0315,28.4047,28.4438,-28.9537,-54.2443,5.0919,2.2504,-0.0943,-1.1472,1783,2019-08-07 16:28:10:295
21.0315,28.4047,28.4438,-10.714,-38.8556,0.7922,2.2504,-0.0943,-1.1472,1788,2019-08-07 16:28:10:300
2.684,33.317,-6.1037,-10.714,-38.8556,0.7922,1.7806,0.1869,-2.1582,1793,2019-08-07 16:28:10:305
2.684,33.317,-6.1037,-10.714,-38.8556,0.7922,1.7806,0.1869,-2.1582,1798,2019-08-07 16:28:10:310
2.684,33.317,-6.1037,-10.714,-38.8556,0.7922,1.7806,0.1869,-2.1582,1803,2019-08-07 16:28:10:315
-1.6266,21.0578,-7.6545,4.5845,-30.4075,7.9189,0.4789,6.6371,-1.7566,1808,2019-08-07 16:28:10:320
-1.6266,21.0578,-7.6545,4.5845,-30.4075,7.9189,0.4789,6.6371,-1.7566,1813,2019-08-07 16:28:10:325
1.7176,11.2046,2.0606,4.5845,-30.4075,7.9189,-2.0959,4.3084,-1.5797,1818,2019-08-07 16:28:10:330
1.7176,11.2046,2.0606,4.5845,-30.4075,7.9189,-2.0959,4.3084,-1.5797,1823,2019-08-07 16:28:10:335
1.7176,11.2046,2.0606,1.7439,-16.1622,0.4304,-4.2765,-0.1391,-2.1102,1828,2019-08-07 16:28:10:340
0.7033,4.5643,0.0856,1.7439,-16.1622,0.4304,-4.2765,-0.1391,-2.1102,1833,2019-08-07 16:28:10:345
0.7033,4.5643,0.0856,1.7439,-16.1622,0.4304,-5.5942,-1.5527,-2.5129,1838,2019-08-07 16:28:10:350
0.7033,4.5643,0.0856,1.7439,-16.1622,0.4304,-5.5942,-1.5527,-2.5129,1842,2019-08-07 16:28:10:354
3.6217,-1.3362,13.3738,-0.2382,-6.1152,-13.1139,-4.6003,-3.206,-2.8389,1849,2019-08-07 16:28:10:361
3.6217,-1.3362,13.3738,-0.2382,-6.1152,-13.1139,-4.6003,-3.206,-2.8389,1853,2019-08-07 16:28:10:365
5.3058,-11.3946,-3.907,-0.2382,-6.1152,-13.1139,-3.665,-4.3064,-3.2778,1858,2019-08-07 16:28:10:370
5.3058,-11.3946,-3.907,-0.2382,-6.1152,-13.1139,-3.665,-4.3064,-3.2778,1863,2019-08-07 16:28:10:375
5.3058,-11.3946,-3.907,-3.6565,7.052,4.77,-3.665,-4.3064,-3.2778,1868,2019-08-07 16:28:10:380
8.1667,-19.3717,-7.8855,-3.6565,7.052,4.77,-3.1558,-4.2276,-4.3633,1873,2019-08-07 16:28:10:385
8.1667,-19.3717,-7.8855,-3.6565,7.052,4.77,-3.1558,-4.2276,-4.3633,1878,2019-08-07 16:28:10:390
8.8126,-21.7777,-7.2256,-3.6565,7.052,4.77,-3.1515,-3.4201,-4.669,1884,2019-08-07 16:28:10:396
8.8126,-21.7777,-7.2256,-5.177,13.8159,3.5351,-3.1515,-3.4201,-4.669,1887,2019-08-07 16:28:10:399
8.8126,-21.7777,-7.2256,-5.177,13.8159,3.5351,-2.8362,-3.2177,-4.4496,1893,2019-08-07 16:28:10:405
12.1903,-18.3167,-3.6383,-7.1442,10.499,0.5307,-2.8362,-3.2177,-4.4496,1898,2019-08-07 16:28:10:410
12.1903,-18.3167,-3.6383,-7.1442,10.499,0.5307,-1.7955,-3.4563,-3.6187,1903,2019-08-07 16:28:10:415
12.1903,-18.3167,-3.6383,-7.1442,10.499,0.5307,-1.7955,-3.4563,-3.6187,1908,2019-08-07 16:28:10:420
12.6304,-12.1441,-5.6559,-7.1442,10.499,0.5307,-0.6972,-2.2909,-2.9241,1913,2019-08-07 16:28:10:425
12.6304,-12.1441,-5.6559,-8.1315,5.3373,6.3738,-0.6972,-2.2909,-2.9241,1918,2019-08-07 16:28:10:430
13.7882,-15.3282,-14.367,-8.1315,5.3373,6.3738,-0.6972,-2.2909,-2.9241,1923,2019-08-07 16:28:10:435
13.7882,-15.3282,-14.367,-8.1315,5.3373,6.3738,-0.4948,-0.1199,-2.7334,1927,2019-08-07 16:28:10:439
13.0754,-18.6079,-14.7535,-8.1315,5.3373,6.3738,-0.4948,-0.1199,-2.7334,1934,2019-08-07 16:28:10:446
13.0754,-18.6079,-14.7535,-7.3547,12.2379,9.3551,-1.5025,0.3073,-2.987,1938,2019-08-07 16:28:10:450
13.0754,-18.6079,-14.7535,-7.3547,12.2379,9.3551,-1.5025,0.3073,-2.987,1943,2019-08-07 16:28:10:455
12.6544,-18.5983,-4.369,-7.3547,12.2379,9.3551,-2.6924,-1.0403,-3.3012,1948,2019-08-07 16:28:10:460
12.6544,-18.5983,-4.369,-7.3547,12.2379,9.3551,-2.6924,-1.0403,-3.3012,1953,2019-08-07 16:28:10:465
12.6544,-18.5983,-4.369,-7.3781,11.1117,-6.4259,-2.6924,-1.0403,-3.3012,1957,2019-08-07 16:28:10:469
13.4773,-17.5051,2.1644,-7.3781,11.1117,-6.4259,-2.5113,-2.863,-3.2501,1963,2019-08-07 16:28:10:475
13.4773,-17.5051,2.1644,-7.3781,11.1117,-6.4259,-2.5113,-2.863,-3.2501,1968,2019-08-07 16:28:10:480
19.2662,-17.6388,-4.5764,-7.3781,11.1117,-6.4259,-1.3054,-1.9277,-2.9422,1972,2019-08-07 16:28:10:484
19.2662,-17.6388,-4.5764,-13.3453,11.5771,1.4703,-1.3054,-1.9277,-2.9422,1978,2019-08-07 16:28:10:490
19.2662,-17.6388,-4.5764,-13.3453,11.5771,1.4703,-0.4863,-0.0688,-2.4831,1983,2019-08-07 16:28:10:495
18.0032,-16.5503,-8.3851,-13.3453,11.5771,1.4703,-0.4863,-0.0688,-2.4831,1988,2019-08-07 16:28:10:500
18.0032,-16.5503,-8.3851,-13.3453,11.5771,1.4703,-0.0154,2.1246,-1.6756,1993,2019-08-07 16:28:10:505
13.6017,-16.4405,-8.8,-7.0159,10.894,4.099,-0.0154,2.1246,-1.6756,1999,2019-08-07 16:28:10:511
13.6017,-16.4405,-8.8,-7.0159,10.894,4.099,-0.0154,2.1246,-1.6756,2003,2019-08-07 16:28:10:515
13.6017,-16.4405,-8.8,-7.0159,10.894,4.099,-0.107,3.812,-0.8884,2008,2019-08-07 16:28:10:520
13.1089,-17.9395,11.0499,-6.3009,12.4556,-15.5012,-0.107,3.812,-0.8884,2013,2019-08-07 16:28:10:525
13.1089,-17.9395,11.0499,-6.3009,12.4556,-15.5012,-0.2327,0.8388,-0.6839,2019,2019-08-07 16:28:10:531
13.1089,-17.9395,11.0499,-6.3009,12.4556,-15.5012,-0.2327,0.8388,-0.6839,2023,2019-08-07 16:28:10:535
7.2434,-15.4858,-3.8316,-1.5194,10.1757,-1.4381,-0.3147,0.2455,-0.3536,2028,2019-08-07 16:28:10:540
7.2434,-15.4858,-3.8316,-1.5194,10.1757,-1.4381,-0.3147,0.2455,-0.3536,2033,2019-08-07 16:28:10:545
7.2434,-15.4858,-3.8316,-1.5194,10.1757,-1.4381,0.1966,-0.0773,-0.4229,2037,2019-08-07 16:28:10:549
12.4152,-15.2184,-1.7575,-1.5194,10.1757,-1.4381,0.1966,-0.0773,-0.4229,2043,2019-08-07 16:28:10:555
12.4152,-15.2184,-1.7575,-5.506,8.1021,-1.1666,0.8826,-0.0688,-0.5816,2048,2019-08-07 16:28:10:560
12.4152,-15.2184,-1.7575,-5.506,8.1021,-1.1666,0.8826,-0.0688,-0.5816,2053,2019-08-07 16:28:10:565
12.6879,-11.5522,-3.8505,-5.506,8.1021,-1.1666,0.8826,-0.0688,-0.5816,2058,2019-08-07 16:28:10:570
12.6879,-11.5522,-3.8505,-5.506,8.1021,-1.1666,1.673,0.8995,-0.4356,2063,2019-08-07 16:28:10:575
13.5634,-9.0077,-5.0148,-6.4282,3.5515,1.0708,1.673,0.8995,-0.4356,2068,2019-08-07 16:28:10:580
13.5634,-9.0077,-5.0148,-6.4282,3.5515,1.0708,2.3985,2.8277,-0.0969,2072,2019-08-07 16:28:10:584
13.5634,-9.0077,-5.0148,-6.4282,3.5515,1.0708,2.3985,2.8277,-0.0969,2078,2019-08-07 16:28:10:590
13.0754,-7.4419,-3.5629,-6.4282,3.5515,1.0708,2.2643,4.0538,0.0736,2083,2019-08-07 16:28:10:595
13.0754,-7.4419,-3.5629,-3.5997,0.3352,1.112,2.2643,4.0538,0.0736,2088,2019-08-07 16:28:10:600
10.0566,-5.5371,-5.0572,-3.5997,0.3352,1.112,1.5537,3.9803,0.1428,2092,2019-08-07 16:28:10:604
10.0566,-5.5371,-5.0572,-3.5997,0.3352,1.112,1.5537,3.9803,0.1428,2099,2019-08-07 16:28:10:611
10.0566,-5.5371,-5.0572,-3.5997,0.3352,1.112,1.0445,4.873,0.2696,2102,2019-08-07 16:28:10:614
5.8321,-4.0,-2.4929,-3.5997,0.3352,1.112,1.0445,4.873,0.2696,2108,2019-08-07 16:28:10:620
5.8321,-4.0,-2.4929,2.083,-1.8394,-4.6151,1.0445,4.873,0.2696,2113,2019-08-07 16:28:10:625
5.8321,-4.0,-2.4929,2.083,-1.8394,-4.6151,1.1361,4.3585,0.4155,2117,2019-08-07 16:28:10:629
4.6265,-4.4726,-0.9185,2.083,-1.8394,-4.6151,1.1361,4.3585,0.4155,2123,2019-08-07 16:28:10:635
4.6265,-4.4726,-0.9185,2.083,-1.8394,-4.6151,1.2192,3.7736,0.4432,2128,2019-08-07 16:28:10:640
4.7269,-4.697,-1.6774,3.0051,-1.1366,0.1214,1.2192,3.7736,0.4432,2133,2019-08-07 16:28:10:645
4.7269,-4.697,-1.6774,3.0051,-1.1366,0.1214,0.9433,3.1728,0.1556,2138,2019-08-07 16:28:10:650
4.7269,-4.697,-1.6774,3.0051,-1.1366,0.1214,0.9433,3.1728,0.1556,2143,2019-08-07 16:28:10:655
4.593,-2.7779,-1.2107,3.1121,-3.8174,0.1232,0.6174,2.4836,-0.0745,2149,2019-08-07 16:28:10:661
4.593,-2.7779,-1.2107,3.1121,-3.8174,0.1232,0.6174,2.4836,-0.0745,2152,2019-08-07 16:28:10:664
5.5259,-1.5796,-1.371,3.1121,-3.8174,0.1232,0.6174,2.4836,-0.0745,2158,2019-08-07 16:28:10:670
5.5259,-1.5796,-1.371,3.1121,-3.8174,0.1232,0.2296,1.9627,-0.229,2163,2019-08-07 16:28:10:675
5.5259,-1.5796,-1.371,3.1121,-3.8174,0.1232,0.2296,1.9627,-0.229,2168,2019-08-07 16:28:10:680
7.6453,-1.9234,-1.9932,0.2253,-3.8981,1.3612,-0.1656,1.8966,-0.4293,2173,2019-08-07 16:28:10:685
7.6453,-1.9234,-1.9932,0.2253,-3.8981,1.3612,-0.1656,1.8966,-0.4293,2177,2019-08-07 16:28:10:689
8.5639,-2.7683,-2.8181,0.2253,-3.8981,1.3612,-0.4564,2.2375,-0.6221,2183,2019-08-07 16:28:10:695
8.5639,-2.7683,-2.8181,0.2253,-3.8981,1.3612,-0.4564,2.2375,-0.6221,2188,2019-08-07 16:28:10:700
8.5639,-2.7683,-2.8181,-0.05,-2.5368,2.2119,-0.6556,2.7243,-0.7265,2194,2019-08-07 16:28:10:706
7.4588,-3.3842,-1.8188,-0.05,-2.5368,2.2119,-0.6556,2.7243,-0.7265,2198,2019-08-07 16:28:10:710
7.4588,-3.3842,-1.8188,-0.05,-2.5368,2.2119,-0.7025,3.0535,-0.7446,2202,2019-08-07 16:28:10:714
7.4588,-3.3842,-1.8188,-0.05,-2.5368,2.2119,-0.7025,3.0535,-0.7446,2208,2019-08-07 16:28:10:720
5.6551,-3.7565,-0.5178,2.6843,-1.7972,-0.1625,-0.7377,3.1994,-0.7467,2213,2019-08-07 16:28:10:725
5.6551,-3.7565,-0.5178,2.6843,-1.7972,-0.1625,-0.7377,3.1994,-0.7467,2218,2019-08-07 16:28:10:730
3.4065,-3.1646,2.023,2.6843,-1.7972,-0.1625,-0.8847,2.7446,-0.7574,2223,2019-08-07 16:28:10:735
3.4065,-3.1646,2.023,2.6843,-1.7972,-0.1625,-0.8847,2.7446,-0.7574,2228,2019-08-07 16:28:10:740
3.4065,-3.1646,2.023,5.4655,-2.4929,-1.7617,-1.0221,1.9712,-0.6902,2233,2019-08-07 16:28:10:745
2.8181,-3.1025,1.594,5.4655,-2.4929,-1.7617,-1.0221,1.9712,-0.6902,2238,2019-08-07 16:28:10:750
2.8181,-3.1025,1.594,4.6368,-1.9188,-0.499,-1.1052,1.3661,-0.6487,2243,2019-08-07 16:28:10:755
5.4637,-4.3867,0.1704,4.6368,-1.9188,-0.499,-1.1052,1.3661,-0.6487,2248,2019-08-07 16:28:10:760
5.4637,-4.3867,0.1704,4.6368,-1.9188,-0.499,-1.314,0.6705,-0.7329,2253,2019-08-07 16:28:10:765
5.4637,-4.3867,0.1704,4.6368,-1.9188,-0.499,-1.314,0.6705,-0.7329,2258,2019-08-07 16:28:10:770
8.3439,-5.2698,-0.9892,-0.1265,-0.0594,1.546,-1.4791,0.6481,-0.8298,2263,2019-08-07 16:28:10:775
8.3439,-5.2698,-0.9892,-0.1265,-0.0594,1.546,-1.4791,0.6481,-0.8298,2267,2019-08-07 16:28:10:779
8.3439,-5.2698,-0.9892,-0.1265,-0.0594,1.546,-1.4791,0.6481,-0.8298,2273,2019-08-07 16:28:10:785
9.3485,-5.8665,-0.8148,-0.1265,-0.0594,1.546,-1.4738,1.1499,-0.7925,2278,2019-08-07 16:28:10:790
9.3485,-5.8665,-0.8148,-0.928,0.8449,1.2951,-1.4738,1.1499,-0.7925,2283,2019-08-07 16:28:10:795
9.3485,-5.8665,-0.8148,-0.928,0.8449,1.2951,-1.3278,1.8274,-0.5773,2288,2019-08-07 16:28:10:800
8.7984,-6.7211,-0.7346,-0.928,0.8449,1.2951,-1.3278,1.8274,-0.5773,2292,2019-08-07 16:28:10:804
8.7984,-6.7211,-0.7346,-0.928,0.8449,1.2951,-1.3033,2.1981,-0.4793,2298,2019-08-07 16:28:10:810
8.7984,-6.7211,-0.7346,0.2826,1.835,1.123,-1.3033,2.1981,-0.4793,2303,2019-08-07 16:28:10:815
7.6023,-6.8213,-0.1171,0.2826,1.835,1.123,-1.3033,2.1981,-0.4793,2308,2019-08-07 16:28:10:820
7.6023,-6.8213,-0.1171,1.1758,1.5815,0.7294,-1.3374,2.2876,-0.4751,2313,2019-08-07 16:28:10:825
6.8464,-6.5635,0.359,1.1758,1.5815,0.7294,-1.3374,2.2876,-0.4751,2318,2019-08-07 16:28:10:830
6.8464,-6.5635,0.359,1.1758,1.5815,0.7294,-1.413,2.1129,-0.5251,2323,2019-08-07 16:28:10:835
6.8464,-6.5635,0.359,1.1758,1.5815,0.7294,-1.413,2.1129,-0.5251,2328,2019-08-07 16:28:10:840
6.0522,-6.5397,0.7455,2.4622,1.4975,0.156,-1.494,1.7613,-0.5613,2332,2019-08-07 16:28:10:844
6.0522,-6.5397,0.7455,2.4622,1.4975,0.156,-1.494,1.7613,-0.5613,2338,2019-08-07 16:28:10:850
5.4638,-6.6924,1.0566,2.4622,1.4975,0.156,-1.5196,1.5376,-0.5443,2342,2019-08-07 16:28:10:854
5.4638,-6.6924,1.0566,2.4622,1.4975,0.156,-1.5196,1.5376,-0.5443,2349,2019-08-07 16:28:10:861
5.4638,-6.6924,1.0566,2.9534,2.2323,0.2564,-1.5196,1.5376,-0.5443,2353,2019-08-07 16:28:10:865
5.5499,-7.418,0.6795,2.9534,2.2323,0.2564,-1.4652,0.6322,-0.3877,2358,2019-08-07 16:28:10:870
5.5499,-7.418,0.6795,2.9534,2.2323,0.2564,-1.4652,0.6322,-0.3877,2363,2019-08-07 16:28:10:875
6.3154,-7.5326,0.161,2.9534,2.2323,0.2564,-1.4003,0.2476,-0.3621,2367,2019-08-07 16:28:10:879
6.3154,-7.5326,0.161,1.8114,2.4558,1.1295,-1.4003,0.2476,-0.3621,2373,2019-08-07 16:28:10:885
6.3154,-7.5326,0.161,1.8114,2.4558,1.1295,-1.3278,0.0026,-0.3185,2378,2019-08-07 16:28:10:890
7.1,-7.5469,-0.4565,1.0806,2.5598,1.3964,-1.3278,0.0026,-0.3185,2384,2019-08-07 16:28:10:896
7.1,-7.5469,-0.4565,1.0806,2.5598,1.3964,-1.2128,-0.0091,-0.2396,2387,2019-08-07 16:28:10:899
7.698,-7.7618,-0.2585,1.0806,2.5598,1.3964,-1.2128,-0.0091,-0.2396,2393,2019-08-07 16:28:10:905
7.698,-7.7618,-0.2585,1.0806,2.5598,1.3964,-1.1084,0.0804,-0.1779,2398,2019-08-07 16:28:10:910
7.698,-7.7618,-0.2585,0.3991,3.0024,1.0137,-1.1084,0.0804,-0.1779,2403,2019-08-07 16:28:10:915
8.0186,-8.0482,-0.1831,0.3991,3.0024,1.0137,-1.1084,0.0804,-0.1779,2407,2019-08-07 16:28:10:919
8.0186,-8.0482,-0.1831,0.3991,3.0024,1.0137,-0.9986,0.2508,-0.1288,2413,2019-08-07 16:28:10:925
7.7794,-8.1532,-0.0275,0.3991,3.0024,1.0137,-0.9986,0.2508,-0.1288,2418,2019-08-07 16:28:10:930
7.7794,-8.1532,-0.0275,0.9126,3.0271,0.7212,-0.8474,0.4287,-0.082,2423,2019-08-07 16:28:10:935
7.7794,-8.1532,-0.0275,0.9126,3.0271,0.7212,-0.8474,0.4287,-0.082,2427,2019-08-07 16:28:10:939
7.3344,-7.967,0.194,0.9126,3.0271,0.7212,-0.7398,0.5033,-0.0319,2433,2019-08-07 16:28:10:945
7.3344,-7.967,0.194,0.9126,3.0271,0.7212,-0.7398,0.5033,-0.0319,2438,2019-08-07 16:28:10:950
6.8991,-7.7092,0.4061,0.9126,3.0271,0.7212,-0.6599,0.499,0.0299,2443,2019-08-07 16:28:10:955
6.8991,-7.7092,0.4061,1.4554,2.6227,0.208,-0.6599,0.499,0.0299,2448,2019-08-07 16:28:10:960
6.8991,-7.7092,0.4061,1.4554,2.6227,0.208,-0.6599,0.499,0.0299,2453,2019-08-07 16:28:10:965
6.435,-7.4371,0.8775,1.4554,2.6227,0.208,-0.564,0.3467,0.1098,2457,2019-08-07 16:28:10:969
6.435,-7.4371,0.8775,1.9338,2.2705,-0.0907,-0.564,0.3467,0.1098,2463,2019-08-07 16:28:10:975
6.4924,-7.3703,0.7832,1.9338,2.2705,-0.0907,-0.4223,0.1315,0.1886,2468,2019-08-07 16:28:10:980
6.4924,-7.3703,0.7832,1.9338,2.2705,-0.0907,-0.4223,0.1315,0.1886,2473,2019-08-07 16:28:10:985
6.4924,-7.3703,0.7832,1.7064,2.1123,0.0952,-0.3467,-6.0E-4,0.2131,2478,2019-08-07 16:28:10:990
6.7029,-7.1603,0.5617,1.7064,2.1123,0.0952,-0.3467,-6.0E-4,0.2131,2483,2019-08-07 16:28:10:995
6.7029,-7.1603,0.5617,1.7064,2.1123,0.0952,-0.2679,-0.1455,0.2323,2487,2019-08-07 16:28:10:999
6.7029,-7.1603,0.5617,1.7064,2.1123,0.0952,-0.2679,-0.1455,0.2323,2493,2019-08-07 16:28:11:005
6.8273,-6.8977,0.5711,1.4585,1.6949,0.1454,-0.2167,-0.2019,0.2451,2498,2019-08-07 16:28:11:010
6.8273,-6.8977,0.5711,1.4585,1.6949,0.1454,-0.2167,-0.2019,0.2451,2502,2019-08-07 16:28:11:014
6.8273,-6.8977,0.5711,1.4585,1.6949,0.1454,-0.2167,-0.2019,0.2451,2508,2019-08-07 16:28:11:020
7.033,-6.764,0.5145,1.4585,1.6949,0.1454,-0.1816,-0.2264,0.2429,2513,2019-08-07 16:28:11:025
7.033,-6.764,0.5145,0.9154,1.5091,0.3372,-0.1816,-0.2264,0.2429,2518,2019-08-07 16:28:11:030
7.7555,-6.7211,0.2506,0.9154,1.5091,0.3372,-0.1677,-0.1913,0.2259,2523,2019-08-07 16:28:11:035
7.7555,-6.7211,0.2506,0.3513,1.3839,0.4328,-0.1677,-0.1913,0.2259,2528,2019-08-07 16:28:11:040
7.7555,-6.7211,0.2506,0.3513,1.3839,0.4328,-0.156,-0.1188,0.2046,2533,2019-08-07 16:28:11:045
8.4061,-6.4967,-0.0181,0.3513,1.3839,0.4328,-0.156,-0.1188,0.2046,2537,2019-08-07 16:28:11:049
8.4061,-6.4967,-0.0181,0.3513,1.3839,0.4328,-0.1347,0.0314,0.1918,2543,2019-08-07 16:28:11:055
8.5305,-6.067,0.1657,-0.3759,0.8706,0.5062,-0.1347,0.0314,0.1918,2548,2019-08-07 16:28:11:060
8.5305,-6.067,0.1657,-0.3759,0.8706,0.5062,-0.1347,0.0314,0.1918,2552,2019-08-07 16:28:11:064
8.5305,-6.067,0.1657,-0.3759,0.8706,0.5062,-0.0697,0.1986,0.1822,2558,2019-08-07 16:28:11:070
8.0999,-5.5228,0.5758,-0.3759,0.8706,0.5062,-0.0697,0.1986,0.1822,2562,2019-08-07 16:28:11:074
8.0999,-5.5228,0.5758,0.2611,0.0495,0.0592,-0.042,0.1528,0.1971,2568,2019-08-07 16:28:11:080
8.0999,-5.5228,0.5758,0.2611,0.0495,0.0592,-0.042,0.1528,0.1971,2573,2019-08-07 16:28:11:085
7.832,-5.2794,0.5004,0.2611,0.0495,0.0592,-0.0601,0.0463,0.1918,2578,2019-08-07 16:28:11:090
7.832,-5.2794,0.5004,0.2611,0.0495,0.0592,-0.0601,0.0463,0.1918,2583,2019-08-07 16:28:11:095
7.6694,-5.2269,0.5334,0.483,-0.1843,0.1373,-0.0804,-0.0794,0.1673,2587,2019-08-07 16:28:11:099
7.6694,-5.2269,0.5334,0.483,-0.1843,0.1373,-0.0804,-0.0794,0.1673,2593,2019-08-07 16:28:11:105
7.6694,-5.2269,0.5334,0.483,-0.1843,0.1373,-0.0857,-0.122,0.1417,2598,2019-08-07 16:28:11:110
7.4684,-5.2698,0.5146,0.483,-0.1843,0.1373,-0.0857,-0.122,0.1417,2603,2019-08-07 16:28:11:115
7.4684,-5.2698,0.5146,0.7691,-0.1485,0.0624,-0.0857,-0.122,0.1417,2607,2019-08-07 16:28:11:119
7.2914,-5.246,0.5098,0.7691,-0.1485,0.0624,-0.0932,-0.1455,0.0682,2613,2019-08-07 16:28:11:125
7.2914,-5.246,0.5098,0.7691,-0.1485,0.0624,-0.1092,-0.1721,0.0192,2618,2019-08-07 16:28:11:130
7.2914,-5.246,0.5098,0.7691,-0.1485,0.0624,-0.1092,-0.1721,0.0192,2623,2019-08-07 16:28:11:135
7.4158,-5.1887,0.5523,0.6361,-0.2059,-0.0363,-0.1092,-0.1721,0.0192,2628,2019-08-07 16:28:11:140
7.4158,-5.1887,0.5523,0.6361,-0.2059,-0.0363,-0.123,-0.1732,-0.0213,2633,2019-08-07 16:28:11:145
7.4158,-5.1887,0.5523,0.6361,-0.2059,-0.0363,-0.123,-0.1732,-0.0213,2637,2019-08-07 16:28:11:149
8.1717,-5.1314,0.4674,0.6361,-0.2059,-0.0363,-0.1379,-0.1742,-0.0575,2643,2019-08-07 16:28:11:155
8.1717,-5.1314,0.4674,-0.4469,-0.4467,0.0861,-0.1379,-0.1742,-0.0575,2648,2019-08-07 16:28:11:160
8.8511,-4.8497,0.4627,-0.4469,-0.4467,0.0861,-0.1454,-0.1007,-0.083,2652,2019-08-07 16:28:11:164
8.8511,-4.8497,0.4627,-0.4469,-0.4467,0.0861,-0.1454,-0.1007,-0.083,2658,2019-08-07 16:28:11:170
8.8511,-4.8497,0.4627,-0.8417,-0.6666,0.0935,-0.1603,-0.0475,-0.0969,2663,2019-08-07 16:28:11:175
9.1525,-4.7113,0.1752,-0.8417,-0.6666,0.0935,-0.1603,-0.0475,-0.0969,2668,2019-08-07 16:28:11:180
9.1525,-4.7113,0.1752,-0.8417,-0.6666,0.0935,-0.2093,0.0335,-0.0916,2673,2019-08-07 16:28:11:185
9.1464,-4.9976,0.0382,-0.9632,-0.392,0.4358,-0.2093,0.0335,-0.0916,2678,2019-08-07 16:28:11:190
9.1464,-4.9976,0.0382,-0.9632,-0.392,0.4358,-0.2263,0.124,-0.0745,2682,2019-08-07 16:28:11:194
9.1464,-4.9976,0.0382,-0.9632,-0.392,0.4358,-0.2263,0.124,-0.0745,2688,2019-08-07 16:28:11:200
8.6775,-5.4511,0.2503,-0.9632,-0.392,0.4358,-0.2114,0.1975,-0.0724,2693,2019-08-07 16:28:11:205
8.6775,-5.4511,0.2503,-0.1,0.2724,0.1627,-0.2114,0.1975,-0.0724,2697,2019-08-07 16:28:11:209
8.0125,-5.7757,0.3681,-0.1,0.2724,0.1627,-0.1933,0.2018,-0.0905,2703,2019-08-07 16:28:11:215
8.0125,-5.7757,0.3681,-0.1,0.2724,0.1627,-0.1933,0.2018,-0.0905,2708,2019-08-07 16:28:11:220
8.0125,-5.7757,0.3681,0.3766,0.3967,0.0271,-0.1976,0.14,-0.1289,2712,2019-08-07 16:28:11:224
7.711,-5.8139,0.5001,0.3766,0.3967,0.0271,-0.1976,0.14,-0.1289,2718,2019-08-07 16:28:11:230
7.711,-5.8139,0.5001,0.3766,0.3967,0.0271,-0.1976,0.14,-0.1289,2723,2019-08-07 16:28:11:235
7.8976,-5.6373,0.6415,0.3063,0.2794,-0.167,-0.2263,-0.0017,-0.147,2727,2019-08-07 16:28:11:239
7.8976,-5.6373,0.6415,0.3063,0.2794,-0.167,-0.2263,-0.0017,-0.147,2733,2019-08-07 16:28:11:245
7.8976,-5.6373,0.6415,0.3063,0.2794,-0.167,-0.2583,-0.121,-0.1193,2738,2019-08-07 16:28:11:250
8.6057,-5.5036,0.6368,0.3063,0.2794,-0.167,-0.2583,-0.121,-0.1193,2743,2019-08-07 16:28:11:255
8.6057,-5.5036,0.6368,-0.7607,0.0971,-0.2149,-0.2796,-0.1572,-0.0937,2748,2019-08-07 16:28:11:260
8.6057,-5.5036,0.6368,-0.7607,0.0971,-0.2149,-0.2796,-0.1572,-0.0937,2753,2019-08-07 16:28:11:265
9.3281,-5.4606,0.6415,-0.7607,0.0971,-0.2149,-0.2796,-0.1572,-0.0937,2757,2019-08-07 16:28:11:269
9.3281,-5.4606,0.6415,-0.7607,0.0971,-0.2149,-0.3126,-0.0954,-0.0713,2763,2019-08-07 16:28:11:275
9.285,-5.4033,0.6792,-1.056,0.0767,-0.2968,-0.3126,-0.0954,-0.0713,2768,2019-08-07 16:28:11:280
9.285,-5.4033,0.6792,-1.056,0.0767,-0.2968,-0.3488,0.0069,-0.0426,2772,2019-08-07 16:28:11:284
9.285,-5.4033,0.6792,-1.056,0.0767,-0.2968,-0.3488,0.0069,-0.0426,2778,2019-08-07 16:28:11:290
9.0075,-5.6802,0.5142,-1.056,0.0767,-0.2968,-0.3456,0.1144,0.0139,2783,2019-08-07 16:28:11:295
9.0075,-5.6802,0.5142,-0.5814,0.6351,-0.207,-0.3456,0.1144,0.0139,2788,2019-08-07 16:28:11:300
8.7013,-6.0048,0.5425,-0.5814,0.6351,-0.207,-0.3254,0.2348,0.0331,2793,2019-08-07 16:28:11:305
8.7013,-6.0048,0.5425,-0.5814,0.6351,-0.207,-0.3254,0.2348,0.0331,2798,2019-08-07 16:28:11:310
8.7013,-6.0048,0.5425,-0.5814,0.6351,-0.207,-0.2775,0.3041,0.0352,2803,2019-08-07 16:28:11:315
7.821,-5.9762,0.6274,-0.5814,0.6351,-0.207,-0.2775,0.3041,0.0352,2808,2019-08-07 16:28:11:320
7.821,-5.9762,0.6274,0.4486,0.6615,-0.2118,-0.2242,0.2646,0.0458,2813,2019-08-07 16:28:11:325
7.4,-6.0526,0.354,0.4486,0.6615,-0.2118,-0.2242,0.2646,0.0458,2818,2019-08-07 16:28:11:330
7.4,-6.0526,0.354,0.4486,0.6615,-0.2118,-0.2242,0.2646,0.0458,2823,2019-08-07 16:28:11:335
7.4,-6.0526,0.354,0.4486,0.6615,-0.2118,-0.188,0.1432,0.0608,2828,2019-08-07 16:28:11:340
7.2421,-6.0574,0.4907,0.9437,0.7538,-5.0E-4,-0.188,0.1432,0.0608,2833,2019-08-07 16:28:11:345
7.2421,-6.0574,0.4907,0.9437,0.7538,-5.0E-4,-0.1454,-0.039,0.0874,2838,2019-08-07 16:28:11:350
7.2421,-6.0574,0.4907,0.9437,0.7538,-5.0E-4,-0.1454,-0.039,0.0874,2843,2019-08-07 16:28:11:355
7.4765,-6.1146,0.5897,0.9437,0.7538,-5.0E-4,-0.0793,-0.2563,0.1151,2848,2019-08-07 16:28:11:360
7.4765,-6.1146,0.5897,0.5466,0.6678,-0.1618,-0.0793,-0.2563,0.1151,2852,2019-08-07 16:28:11:364
7.4765,-6.1146,0.5897,0.5466,0.6678,-0.1618,-0.0793,-0.2563,0.1151,2858,2019-08-07 16:28:11:370
8.1032,-6.0192,0.2597,-0.1587,0.6219,0.1841,-0.0378,-0.3702,0.1236,2863,2019-08-07 16:28:11:375
8.1032,-6.0192,0.2597,-0.1587,0.6219,0.1841,-0.0378,-0.3702,0.1236,2868,2019-08-07 16:28:11:380
9.3088,-5.7566,-0.0514,-0.1587,0.6219,0.1841,-0.041,-0.3383,0.1108,2873,2019-08-07 16:28:11:385
9.3088,-5.7566,-0.0514,-0.1587,0.6219,0.1841,-0.041,-0.3383,0.1108,2877,2019-08-07 16:28:11:389
9.5576,-5.6945,-0.3295,-1.4409,0.2746,0.5185,-0.0463,-0.1561,0.1034,2884,2019-08-07 16:28:11:396
9.5576,-5.6945,-0.3295,-1.4409,0.2746,0.5185,-0.0463,-0.1561,0.1034,2887,2019-08-07 16:28:11:399
9.5576,-5.6945,-0.3295,-1.2068,0.4765,0.5047,0.007,0.0889,0.1396,2893,2019-08-07 16:28:11:405
9.0552,-6.1767,-0.2966,-1.2068,0.4765,0.5047,0.007,0.0889,0.1396,2899,2019-08-07 16:28:11:411
9.0552,-6.1767,-0.2966,-1.2068,0.4765,0.5047,0.1082,0.3477,0.1737,2903,2019-08-07 16:28:11:415
9.0552,-6.1767,-0.2966,-1.2068,0.4765,0.5047,0.1082,0.3477,0.1737,2908,2019-08-07 16:28:11:420
8.1031,-6.4249,-0.0562,0.0498,0.9776,0.3606,0.1508,0.4159,0.1609,2913,2019-08-07 16:28:11:425
8.1031,-6.4249,-0.0562,0.0498,0.9776,0.3606,0.1508,0.4159,0.1609,2917,2019-08-07 16:28:11:429
8.1031,-6.4249,-0.0562,0.0498,0.9776,0.3606,0.1891,0.3413,0.1428,2923,2019-08-07 16:28:11:435
6.9262,-6.0669,0.2644,0.0498,0.9776,0.3606,0.1891,0.3413,0.1428,2927,2019-08-07 16:28:11:439
6.9262,-6.0669,0.2644,1.3367,0.4647,-0.0506,0.1817,0.1634,0.1439,2934,2019-08-07 16:28:11:446
6.8305,-5.9046,0.4058,1.3367,0.4647,-0.0506,0.1817,0.1634,0.1439,2938,2019-08-07 16:28:11:450
6.8305,-5.9046,0.4058,1.23,0.4117,0.0178,0.1593,0.0026,0.1321,2942,2019-08-07 16:28:11:454
6.8305,-5.9046,0.4058,1.23,0.4117,0.0178,0.1593,0.0026,0.1321,2949,2019-08-07 16:28:11:461
7.2706,-5.8234,0.4482,1.23,0.4117,0.0178,0.1124,-0.203,0.1044,2952,2019-08-07 16:28:11:464
7.2706,-5.8234,0.4482,1.23,0.4117,0.0178,0.1124,-0.203,0.1044,2958,2019-08-07 16:28:11:470
8.0648,-5.58,0.3539,0.1965,0.065,-0.0568,0.0879,-0.3053,0.098,2963,2019-08-07 16:28:11:475
8.0648,-5.58,0.3539,0.1965,0.065,-0.0568,0.0879,-0.3053,0.098,2968,2019-08-07 16:28:11:480
8.0648,-5.58,0.3539,0.1965,0.065,-0.0568,0.0879,-0.3053,0.098,2973,2019-08-07 16:28:11:485
8.7872,-5.4033,0.1701,0.1965,0.065,-0.0568,0.0773,-0.2797,0.0991,2977,2019-08-07 16:28:11:489
8.7872,-5.4033,0.1701,-0.8635,-0.2206,0.1256,0.0773,-0.2797,0.0991,2983,2019-08-07 16:28:11:495
8.8829,-5.284,0.3681,-0.8635,-0.2206,0.1256,0.0528,-0.1668,0.1204,2988,2019-08-07 16:28:11:500
8.8829,-5.284,0.3681,-0.8635,-0.2206,0.1256,0.0528,-0.1668,0.1204,2993,2019-08-07 16:28:11:505
8.8829,-5.284,0.3681,-0.8635,-0.2206,0.1256,0.056,-0.138,0.1641,2998,2019-08-07 16:28:11:510
8.1892,-5.5322,0.3869,-0.1056,-0.0156,-0.0494,0.056,-0.138,0.1641,3003,2019-08-07 16:28:11:515
8.1892,-5.5322,0.3869,-0.1056,-0.0156,-0.0494,0.0879,-0.187,0.2152,3008,2019-08-07 16:28:11:520
8.1892,-5.5322,0.3869,-0.1056,-0.0156,-0.0494,0.0879,-0.187,0.2152,3013,2019-08-07 16:28:11:525
8.1892,-5.5322,0.3869,-0.1056,-0.0156,-0.0494,0.0879,-0.187,0.2152,3018,2019-08-07 16:28:11:530
7.9164,-5.9046,0.2596,0.2243,0.3583,-9.0E-4,0.0954,-0.2488,0.2248,3022,2019-08-07 16:28:11:534
7.9164,-5.9046,0.2596,0.2243,0.3583,-9.0E-4,0.0954,-0.2488,0.2248,3028,2019-08-07 16:28:11:540
7.8255,-5.8425,0.3351,0.2243,0.3583,-9.0E-4,0.0954,-0.4054,0.196,3032,2019-08-07 16:28:11:544
7.8255,-5.8425,0.3351,0.2243,0.3583,-9.0E-4,0.0954,-0.4054,0.196,3038,2019-08-07 16:28:11:550
7.8255,-5.8425,0.3351,-0.0881,0.1923,0.015,0.0922,-0.4469,0.1492,3043,2019-08-07 16:28:11:555
8.2178,-5.8091,0.2549,-0.0881,0.1923,0.015,0.0922,-0.4469,0.1492,3048,2019-08-07 16:28:11:560
8.2178,-5.8091,0.2549,-0.0881,0.1923,0.015,0.0719,-0.3841,0.1108,3053,2019-08-07 16:28:11:565
8.7584,-5.7041,0.0852,-0.0881,0.1923,0.015,0.0719,-0.3841,0.1108,3058,2019-08-07 16:28:11:570
8.7584,-5.7041,0.0852,-0.9405,-0.011,0.0122,0.0592,-0.2445,0.0714,3063,2019-08-07 16:28:11:575
8.7584,-5.7041,0.0852,-0.9405,-0.011,0.0122,0.0592,-0.2445,0.0714,3068,2019-08-07 16:28:11:580
9.1842,-5.4415,0.0899,-0.9405,-0.011,0.0122,0.0592,-0.2445,0.0714,3073,2019-08-07 16:28:11:585
9.1842,-5.4415,0.0899,-0.9405,-0.011,0.0122,0.073,-0.0272,0.0384,3078,2019-08-07 16:28:11:590
9.1985,-5.2744,0.1041,-1.1,-0.448,0.108,0.073,-0.0272,0.0384,3083,2019-08-07 16:28:11:595
9.1985,-5.2744,0.1041,-1.1,-0.448,0.108,0.0847,0.1539,0.0363,3087,2019-08-07 16:28:11:599
9.1985,-5.2744,0.1041,-1.1,-0.448,0.108,0.0847,0.1539,0.0363,3093,2019-08-07 16:28:11:605
8.7201,-4.9975,0.3256,-1.1,-0.448,0.108,0.073,0.1869,0.0576,3099,2019-08-07 16:28:11:611
8.7201,-4.9975,0.3256,-0.4319,-0.6783,-0.2805,0.073,0.1869,0.0576,3103,2019-08-07 16:28:11:615
8.2799,-5.0119,0.5566,-0.4319,-0.6783,-0.2805,0.0549,0.1176,0.0778,3108,2019-08-07 16:28:11:620
8.2799,-5.0119,0.5566,-0.4319,-0.6783,-0.2805,0.0549,0.1176,0.0778,3113,2019-08-07 16:28:11:625
8.2799,-5.0119,0.5566,-0.1433,-0.4913,-0.3503,0.0549,-0.023,0.0959,3118,2019-08-07 16:28:11:630
8.0646,-5.3317,0.533,-0.1433,-0.4913,-0.3503,0.0549,-0.023,0.0959,3123,2019-08-07 16:28:11:635
8.0646,-5.3317,0.533,-0.1433,-0.4913,-0.3503,0.0634,-0.1455,0.1044,3128,2019-08-07 16:28:11:640
8.2129,-5.5847,0.3539,-0.2917,-0.0087,-0.0798,0.0634,-0.1455,0.1044,3133,2019-08-07 16:28:11:645
8.2129,-5.5847,0.3539,-0.2917,-0.0087,-0.0798,0.0634,-0.1455,0.1044,3138,2019-08-07 16:28:11:650
8.2129,-5.5847,0.3539,-0.2917,-0.0087,-0.0798,0.0741,-0.1881,0.081,3142,2019-08-07 16:28:11:654
8.4043,-5.6563,0.3256,-0.2917,-0.0087,-0.0798,0.0741,-0.1881,0.081,3148,2019-08-07 16:28:11:660
8.4043,-5.6563,0.3256,-0.4764,-0.0729,-0.0234,0.1007,-0.121,0.0725,3153,2019-08-07 16:28:11:665
8.4808,-5.6181,0.2643,-0.4764,-0.0729,-0.0234,0.1007,-0.121,0.0725,3158,2019-08-07 16:28:11:670
8.4808,-5.6181,0.2643,-0.4764,-0.0729,-0.0234,0.0996,-0.0219,0.0672,3163,2019-08-07 16:28:11:675
8.5239,-5.5131,0.2125,-0.4764,-0.0729,-0.0234,0.0996,-0.0219,0.0672,3168,2019-08-07 16:28:11:680
8.5239,-5.5131,0.2125,-0.4967,-0.1765,-0.0369,0.0996,-0.0219,0.0672,3173,2019-08-07 16:28:11:685
8.5239,-5.5131,0.2125,-0.4967,-0.1765,-0.0369,0.0794,0.0857,0.0554,3178,2019-08-07 16:28:11:690
8.4521,-5.4081,0.2879,-0.4967,-0.1765,-0.0369,0.0794,0.0857,0.0554,3183,2019-08-07 16:28:11:695
8.4521,-5.4081,0.2879,-0.4967,-0.1765,-0.0369,0.0528,0.1528,0.049,3188,2019-08-07 16:28:11:700
8.4521,-5.4081,0.2879,-0.4967,-0.1765,-0.0369,0.0528,0.1528,0.049,3193,2019-08-07 16:28:11:705
8.3181,-5.3174,0.3303,-0.3241,-0.363,-0.0746,0.0528,0.1528,0.049,3197,2019-08-07 16:28:11:709
8.3181,-5.3174,0.3303,-0.3241,-0.363,-0.0746,0.0357,0.1549,0.0501,3203,2019-08-07 16:28:11:715
8.2416,-5.198,0.3869,-0.3241,-0.363,-0.0746,0.0357,0.1549,0.0501,3208,2019-08-07 16:28:11:720
8.2416,-5.198,0.3869,-0.3241,-0.363,-0.0746,-0.0058,0.1251,0.0586,3213,2019-08-07 16:28:11:725
8.2416,-5.198,0.3869,-0.2378,-0.5545,-0.0962,-0.0058,0.1251,0.0586,3218,2019-08-07 16:28:11:730
8.2224,-5.1598,0.2973,-0.2378,-0.5545,-0.0962,-0.041,0.0569,0.0746,3223,2019-08-07 16:28:11:735
8.2224,-5.1598,0.2973,-0.2378,-0.5545,-0.0962,-0.041,0.0569,0.0746,3228,2019-08-07 16:28:11:740
8.2224,-5.1598,0.2973,-0.2378,-0.5545,-0.0962,-0.0729,-0.0262,0.1055,3232,2019-08-07 16:28:11:744
8.385,-5.4367,-0.0798,-0.4035,-0.26,0.358,-0.0729,-0.0262,0.1055,3238,2019-08-07 16:28:11:750
8.385,-5.4367,-0.0798,-0.4035,-0.26,0.358,-0.0783,-0.0645,0.1311,3243,2019-08-07 16:28:11:755
8.4329,-5.8282,-0.1222,-0.4035,-0.26,0.358,-0.0783,-0.0645,0.1311,3248,2019-08-07 16:28:11:760
8.4329,-5.8282,-0.1222,-0.4035,-0.26,0.358,-0.0644,-0.0379,0.1428,3253,2019-08-07 16:28:11:765
8.4329,-5.8282,-0.1222,-0.4226,0.2154,0.3805,-0.0644,-0.0379,0.1428,3258,2019-08-07 16:28:11:770
8.2654,-5.9714,-0.1505,-0.4226,0.2154,0.3805,-0.0335,0.0132,0.1311,3263,2019-08-07 16:28:11:775
8.2654,-5.9714,-0.1505,-0.4226,0.2154,0.3805,-0.0335,0.0132,0.1311,3268,2019-08-07 16:28:11:780
8.2654,-5.9714,-0.1505,-0.4226,0.2154,0.3805,-0.0207,0.0505,0.1098,3272,2019-08-07 16:28:11:784
8.1506,-5.8425,-0.1175,-0.1979,0.1043,0.3733,-0.0207,0.0505,0.1098,3278,2019-08-07 16:28:11:790
8.1506,-5.8425,-0.1175,-0.1979,0.1043,0.3733,-0.042,0.0686,0.1012,3282,2019-08-07 16:28:11:794
8.1362,-5.6802,-0.0987,-0.1979,0.1043,0.3733,-0.042,0.0686,0.1012,3288,2019-08-07 16:28:11:800
8.1362,-5.6802,-0.0987,-0.1979,0.1043,0.3733,-0.0623,0.0793,0.0885,3293,2019-08-07 16:28:11:805
8.1362,-5.6802,-0.0987,-0.2043,-0.0876,0.2352,-0.0623,0.0793,0.0885,3298,2019-08-07 16:28:11:810
8.1505,-5.6611,0.0427,-0.2043,-0.0876,0.2352,-0.0687,0.0772,0.0661,3303,2019-08-07 16:28:11:815
8.1505,-5.6611,0.0427,-0.2043,-0.0876,0.2352,-0.0687,0.0772,0.0661,3308,2019-08-07 16:28:11:820
8.1505,-5.6611,0.0427,-0.2043,-0.0876,0.2352,-0.0687,0.0772,0.0661,3314,2019-08-07 16:28:11:826
7.8922,-5.5895,0.1606,-0.0012,-0.1502,0.1386,-0.0793,0.0633,0.0576,3318,2019-08-07 16:28:11:830
7.8922,-5.5895,0.1606,-0.0012,-0.1502,0.1386,-0.0793,0.0633,0.0576,3322,2019-08-07 16:28:11:834
7.873,-5.494,0.1559,-0.0012,-0.1502,0.1386,-0.0974,0.042,0.0544,3328,2019-08-07 16:28:11:840
7.873,-5.494,0.1559,-0.0012,-0.1502,0.1386,-0.0974,0.042,0.0544,3333,2019-08-07 16:28:11:845
7.8539,-5.5131,0.2501,0.0792,-0.3112,-0.033,-0.1198,-0.0091,0.0544,3338,2019-08-07 16:28:11:850
7.8539,-5.5131,0.2501,0.0792,-0.3112,-0.033,-0.1198,-0.0091,0.0544,3342,2019-08-07 16:28:11:854
7.8539,-5.5131,0.2501,0.0792,-0.3112,-0.033,-0.1187,-0.0592,0.0554,3348,2019-08-07 16:28:11:860
7.9639,-5.6611,0.1983,0.0792,-0.3112,-0.033,-0.1187,-0.0592,0.0554,3353,2019-08-07 16:28:11:865
7.9639,-5.6611,0.1983,-0.0604,-0.0287,0.0625,-0.1177,-0.0762,0.0565,3359,2019-08-07 16:28:11:871
7.9639,-5.6611,0.1983,-0.0604,-0.0287,0.0625,-0.1177,-0.0762,0.0565,3363,2019-08-07 16:28:11:875
7.9448,-5.7804,0.2501,-0.0604,-0.0287,0.0625,-0.1177,-0.0762,0.0565,3367,2019-08-07 16:28:11:879
7.9448,-5.7804,0.2501,-0.0604,-0.0287,0.0625,-0.107,-0.072,0.0565,3373,2019-08-07 16:28:11:885
7.9352,-5.8329,0.1794,-0.0186,0.0432,0.0282,-0.107,-0.072,0.0565,3378,2019-08-07 16:28:11:890
7.9352,-5.8329,0.1794,-0.0186,0.0432,0.0282,-0.1081,-0.0603,0.064,3382,2019-08-07 16:28:11:894
7.9926,-5.8568,0.104,-0.0186,0.0432,0.0282,-0.1081,-0.0603,0.064,3388,2019-08-07 16:28:11:900
7.9926,-5.8568,0.104,-0.0186,0.0432,0.0282,-0.1379,-0.0187,0.0448,3392,2019-08-07 16:28:11:904
7.9926,-5.8568,0.104,-0.1062,0.0721,0.0726,-0.1379,-0.0187,0.0448,3398,2019-08-07 16:28:11:910
8.0404,-5.8138,0.1417,-0.1062,0.0721,0.0726,-0.1454,0.0058,0.0416,3402,2019-08-07 16:28:11:914
8.0404,-5.8138,0.1417,-0.1062,0.0721,0.0726,-0.1454,0.0058,0.0416,3408,2019-08-07 16:28:11:920
8.0404,-5.8138,0.1417,-0.1062,0.0721,0.0726,-0.1379,0.0409,0.0437,3413,2019-08-07 16:28:11:925
8.0069,-5.8663,3.0E-4,-0.1255,0.084,0.1006,-0.1379,0.0409,0.0437,3418,2019-08-07 16:28:11:930
8.0069,-5.8663,3.0E-4,-0.1255,0.084,0.1006,-0.1336,0.0612,0.0426,3423,2019-08-07 16:28:11:935
8.0452,-5.747,0.0993,-0.1255,0.084,0.1006,-0.1336,0.0612,0.0426,3428,2019-08-07 16:28:11:940
8.0452,-5.747,0.0993,-0.1255,0.084,0.1006,-0.1368,0.058,0.048,3433,2019-08-07 16:28:11:945
8.0452,-5.747,0.0993,-0.1019,-0.1477,0.0369,-0.1368,0.058,0.048,3438,2019-08-07 16:28:11:950
7.9495,-5.6276,0.1558,-0.1019,-0.1477,0.0369,-0.1475,0.0122,0.0501,3443,2019-08-07 16:28:11:955
7.9495,-5.6276,0.1558,-0.1019,-0.1477,0.0369,-0.1475,0.0122,0.0501,3448,2019-08-07 16:28:11:960
8.5523,-5.9761,-0.3815,-0.1019,-0.1477,0.0369,-0.1475,0.0122,0.0501,3453,2019-08-07 16:28:11:965
8.5523,-5.9761,-0.3815,-0.6646,0.2106,0.5606,-0.1571,-0.0453,0.0011,3458,2019-08-07 16:28:11:970
8.5523,-5.9761,-0.3815,-0.6646,0.2106,0.5606,-0.1571,-0.0453,0.0011,3463,2019-08-07 16:28:11:975
8.5379,-6.1528,0.0804,-0.6646,0.2106,0.5606,-0.074,0.0804,-0.0138,3467,2019-08-07 16:28:11:979
8.5379,-6.1528,0.0804,-0.6646,0.2106,0.5606,-0.074,0.0804,-0.0138,3473,2019-08-07 16:28:11:985
8.2891,-6.0286,-0.0893,-0.3906,0.2124,0.2346,0.0166,0.1421,0.0032,3478,2019-08-07 16:28:11:990
8.2891,-6.0286,-0.0893,-0.3906,0.2124,0.2346,0.0166,0.1421,0.0032,3483,2019-08-07 16:28:11:995
8.2891,-6.0286,-0.0893,-0.3906,0.2124,0.2346,0.0698,0.2114,0.0224,3488,2019-08-07 16:28:12:000
8.2891,-5.8807,-0.16,-0.3906,0.2124,0.2346,0.0698,0.2114,0.0224,3493,2019-08-07 16:28:12:005
8.2891,-5.8807,-0.16,-0.1722,-0.1612,0.2108,0.0432,0.2071,0.0032,3498,2019-08-07 16:28:12:010
8.2891,-5.8807,-0.16,-0.1722,-0.1612,0.2108,0.0432,0.2071,0.0032,3502,2019-08-07 16:28:12:014
7.9829,-5.642,0.1134,-0.1722,-0.1612,0.2108,0.007,0.1816,-0.0032,3509,2019-08-07 16:28:12:021
7.9829,-5.642,0.1134,-0.1722,-0.1612,0.2108,0.007,0.1816,-0.0032,3513,2019-08-07 16:28:12:025
7.8633,-5.6801,0.4057,0.034,-0.1358,-0.195,-0.0154,0.1113,0.0022,3518,2019-08-07 16:28:12:030
7.8633,-5.6801,0.4057,0.034,-0.1358,-0.195,-0.0154,0.1113,0.0022,3523,2019-08-07 16:28:12:035
7.8633,-5.6801,0.4057,0.034,-0.1358,-0.195,-0.0197,0.0527,0.0054,3528,2019-08-07 16:28:12:040
7.7867,-5.6754,0.5612,0.034,-0.1358,-0.195,-0.0197,0.0527,0.0054,3532,2019-08-07 16:28:12:044
7.7867,-5.6754,0.5612,0.1764,-0.1705,-0.2204,-0.009,-0.0113,0.0224,3538,2019-08-07 16:28:12:050
7.7867,-5.6754,0.5612,0.1764,-0.1705,-0.2204,-0.009,-0.0113,0.0224,3543,2019-08-07 16:28:12:055
7.8058,-5.6754,0.2407,0.1764,-0.1705,-0.2204,-0.0314,-0.0581,0.0426,3548,2019-08-07 16:28:12:060
7.8058,-5.6754,0.2407,0.1764,-0.1705,-0.2204,-0.0314,-0.0581,0.0426,3552,2019-08-07 16:28:12:064
8.0929,-5.7661,-0.0186,0.1764,-0.1705,-0.2204,-0.0729,-0.105,0.0469,3558,2019-08-07 16:28:12:070
8.0929,-5.7661,-0.0186,-0.1911,-0.0045,0.1785,-0.0729,-0.105,0.0469,3563,2019-08-07 16:28:12:075
8.0929,-5.7661,-0.0186,-0.1911,-0.0045,0.1785,-0.0729,-0.105,0.0469,3568,2019-08-07 16:28:12:080
8.6287,-6.0143,-0.2449,-0.1911,-0.0045,0.1785,-0.0932,-0.1465,0.0576,3573,2019-08-07 16:28:12:085
8.6287,-6.0143,-0.2449,-0.8412,0.1843,0.21,-0.0996,-0.1348,0.0235,3579,2019-08-07 16:28:12:091
8.6287,-6.0143,-0.2449,-0.8412,0.1843,0.21,-0.0996,-0.1348,0.0235,3582,2019-08-07 16:28:12:094
8.6478,-6.0239,0.2501,-0.8412,0.1843,0.21,-0.0996,-0.1348,0.0235,3588,2019-08-07 16:28:12:100
8.6478,-6.0239,0.2501,-0.8412,0.1843,0.21,-0.0293,-0.0975,0.0075,3592,2019-08-07 16:28:12:104
8.5425,-6.2148,0.1511,-0.8412,0.1843,0.21,-0.0293,-0.0975,0.0075,3598,2019-08-07 16:28:12:110
8.5425,-6.2148,0.1511,-0.6164,0.4463,-0.0927,0.0421,-0.0102,0.0032,3603,2019-08-07 16:28:12:115
8.5425,-6.2148,0.1511,-0.6164,0.4463,-0.0927,0.0421,-0.0102,0.0032,3608,2019-08-07 16:28:12:120
8.3655,-6.105,0.0285,-0.6164,0.4463,-0.0927,0.0933,0.0591,0.0181,3614,2019-08-07 16:28:12:126
8.3655,-6.105,0.0285,-0.6164,0.4463,-0.0927,0.0933,0.0591,0.0181,3617,2019-08-07 16:28:12:129
8.1358,-5.8806,-0.1035,-0.2977,0.0718,0.2168,0.0954,0.1358,0.0437,3623,2019-08-07 16:28:12:135
8.1358,-5.8806,-0.1035,-0.2977,0.0718,0.2168,0.0954,0.1358,0.0437,3628,2019-08-07 16:28:12:140
8.1358,-5.8806,-0.1035,-0.2977,0.0718,0.2168,0.0506,0.1368,0.0576,3632,2019-08-07 16:28:12:144
8.0258,-5.7756,0.0238,-0.2977,0.0718,0.2168,0.0506,0.1368,0.0576,3638,2019-08-07 16:28:12:150
8.0258,-5.7756,0.0238,-0.0357,-0.0977,0.106,-0.0133,0.0782,0.0384,3643,2019-08-07 16:28:12:155
7.8392,-5.6897,-0.0469,-0.0357,-0.0977,0.106,-0.0133,0.0782,0.0384,3648,2019-08-07 16:28:12:160
7.8392,-5.6897,-0.0469,-0.0357,-0.0977,0.106,-0.107,-0.0283,0.0139,3652,2019-08-07 16:28:12:164
7.8392,-5.6897,-0.0469,-0.0357,-0.0977,0.106,-0.107,-0.0283,0.0139,3658,2019-08-07 16:28:12:170
7.7626,-5.8329,0.1699,0.115,-0.0105,0.0115,-0.1177,-0.0762,0.0118,3663,2019-08-07 16:28:12:175
7.7626,-5.8329,0.1699,0.115,-0.0105,0.0115,-0.1177,-0.0762,0.0118,3667,2019-08-07 16:28:12:179
8.177,-6.2194,0.179,0.115,-0.0105,0.0115,-0.1177,-0.0762,0.0118,3673,2019-08-07 16:28:12:185
8.177,-6.2194,0.179,0.115,-0.0105,0.0115,-0.0399,-0.0688,0.0362,3677,2019-08-07 16:28:12:189
8.177,-6.2194,0.179,-0.4317,0.4856,0.0374,-0.0399,-0.0688,0.0362,3683,2019-08-07 16:28:12:195
8.2822,-6.248,-0.019,-0.4317,0.4856,0.0374,0.056,-0.0176,0.0522,3688,2019-08-07 16:28:12:200
8.2822,-6.248,-0.019,-0.4317,0.4856,0.0374,0.056,-0.0176,0.0522,3693,2019-08-07 16:28:12:205
8.3205,-6.1382,-0.2264,-0.4317,0.4856,0.0374,0.0933,0.0367,0.0639,3698,2019-08-07 16:28:12:210
8.3205,-6.1382,-0.2264,-0.3901,0.2433,0.3514,0.0933,0.0367,0.0639,3702,2019-08-07 16:28:12:214
8.3205,-6.1382,-0.2264,-0.3901,0.2433,0.3514,0.0922,0.075,0.0554,3708,2019-08-07 16:28:12:220
8.0716,-6.038,-0.1982,-0.3901,0.2433,0.3514,0.0922,0.075,0.0554,3713,2019-08-07 16:28:12:225
8.0716,-6.038,-0.1982,-0.3901,0.2433,0.3514,0.0666,0.0772,0.0405,3718,2019-08-07 16:28:12:230
8.0716,-6.038,-0.1982,0.005,0.0628,0.6056,0.0666,0.0772,0.0405,3723,2019-08-07 16:28:12:235
7.7989,-5.8566,-0.3066,0.005,0.0628,0.6056,0.0666,0.0772,0.0405,3727,2019-08-07 16:28:12:239
7.7989,-5.8566,-0.3066,0.005,0.0628,0.6056,0.0016,0.0196,0.0022,3733,2019-08-07 16:28:12:245
7.7989,-5.8566,-0.3066,0.005,0.0628,0.6056,0.0016,0.0196,0.0022,3737,2019-08-07 16:28:12:249
7.6266,-6.0809,0.6126,0.1473,0.3716,-0.3436,0.0847,0.0069,-0.017,3743,2019-08-07 16:28:12:255
7.6266,-6.0809,0.6126,0.1473,0.3716,-0.3436,0.0847,0.0069,-0.017,3748,2019-08-07 16:28:12:260
7.8323,-6.186,0.1365,0.1473,0.3716,-0.3436,0.1604,-0.0123,-0.0298,3753,2019-08-07 16:28:12:265
7.8323,-6.186,0.1365,0.1473,0.3716,-0.3436,0.1604,-0.0123,-0.0298,3758,2019-08-07 16:28:12:270
7.8323,-6.186,0.1365,-0.1089,-0.0165,0.1059,0.1721,-0.0187,-0.0213,3763,2019-08-07 16:28:12:275
7.9471,-5.7563,0.0799,-0.1089,-0.0165,0.1059,0.1721,-0.0187,-0.0213,3768,2019-08-07 16:28:12:280
7.9471,-5.7563,0.0799,-0.1089,-0.0165,0.1059,0.1572,-0.0272,-0.0021,3773,2019-08-07 16:28:12:285
8.0858,-5.6656,0.0281,-0.1089,-0.0165,0.1059,0.1572,-0.0272,-0.0021,3778,2019-08-07 16:28:12:290
8.0858,-5.6656,0.0281,-0.2121,-0.2044,0.151,0.1114,-0.0634,0.0085,3783,2019-08-07 16:28:12:295
8.0858,-5.6656,0.0281,-0.2121,-0.2044,0.151,0.1114,-0.0634,0.0085,3788,2019-08-07 16:28:12:300
8.1001,-5.7706,0.3675,-0.2121,-0.2044,0.151,0.106,-0.0656,0.0075,3792,2019-08-07 16:28:12:304
8.1001,-5.7706,0.3675,-0.2121,-0.2044,0.151,0.106,-0.0656,0.0075,3798,2019-08-07 16:28:12:310
8.1001,-5.7706,0.3675,-0.4417,0.2731,-0.2449,0.106,-0.0656,0.0075,3803,2019-08-07 16:28:12:315
8.3489,-6.0714,0.4664,-0.4417,0.2731,-0.2449,0.1785,-0.0176,0.0064,3808,2019-08-07 16:28:12:320
8.3489,-6.0714,0.4664,-0.5661,0.1208,-0.1346,0.1785,-0.0176,0.0064,3813,2019-08-07 16:28:12:325
8.4636,-5.8947,0.3014,-0.5661,0.1208,-0.1346,0.22,0.0676,0.0011,3819,2019-08-07 16:28:12:331
8.4636,-5.8947,0.3014,-0.5661,0.1208,-0.1346,0.22,0.0676,0.0011,3823,2019-08-07 16:28:12:335
8.4636,-5.8947,0.3014,-0.5661,0.1208,-0.1346,0.1934,0.0857,-0.0053,3828,2019-08-07 16:28:12:340
8.2196,-5.6799,0.1553,-0.3872,-0.1521,0.0806,0.1934,0.0857,-0.0053,3833,2019-08-07 16:28:12:345
8.2196,-5.6799,0.1553,-0.3872,-0.1521,0.0806,0.1178,0.0601,-0.0181,3838,2019-08-07 16:28:12:350
8.2004,-5.7372,0.3156,-0.3324,-0.1153,-0.0355,0.1178,0.0601,-0.0181,3843,2019-08-07 16:28:12:355
8.2004,-5.7372,0.3156,-0.3324,-0.1153,-0.0355,0.073,0.0548,-0.0511,3847,2019-08-07 16:28:12:359
8.2004,-5.7372,0.3156,-0.3324,-0.1153,-0.0355,0.073,0.0548,-0.0511,3853,2019-08-07 16:28:12:365
8.0617,-5.8422,0.292,-0.3324,-0.1153,-0.0355,0.0315,0.0484,-0.049,3857,2019-08-07 16:28:12:369
8.0617,-5.8422,0.292,-0.2353,-0.1064,0.1051,0.0315,0.0484,-0.049,3863,2019-08-07 16:28:12:375
8.1334,-5.7276,0.094,-0.2353,-0.1064,0.1051,-0.0218,0.0026,-0.0234,3868,2019-08-07 16:28:12:380
8.1334,-5.7276,0.094,-0.2353,-0.1064,0.1051,-0.0218,0.0026,-0.0234,3872,2019-08-07 16:28:12:384