ACCELEROMETER X (m/s²),ACCELEROMETER Y (m/s²),ACCELEROMETER Z (m/s²),LINEAR ACCELERATION X (m/s²),LINEAR ACCELERATION Y (m/s²),LINEAR ACCELERATION Z (m/s²),GYROSCOPE X (rad/s),GYROSCOPE Y (rad/s),GYROSCOPE Z (rad/s),Time since start in ms ,YYYY-MO-DD HH-MI-SS_SSS
8.4482,-5.3127,0.142,-0.1195,0.2896,-0.0837,0.0357,0.0708,0.0544,5,2019-08-07 16:28:43:519
8.4482,-5.3127,0.142,-0.0492,0.2551,-0.1479,0.0357,0.0708,0.0544,9,2019-08-07 16:28:43:523
8.4482,-5.3127,0.142,-0.0492,0.2551,-0.1479,0.0453,0.025,0.0522,14,2019-08-07 16:28:43:528
8.4817,-5.2841,0.142,-0.0492,0.2551,-0.1479,0.0421,-0.0091,0.048,19,2019-08-07 16:28:43:533
8.4817,-5.2841,0.142,-0.0492,0.2551,-0.1479,0.0421,-0.0091,0.048,24,2019-08-07 16:28:43:538
8.4817,-5.2841,0.142,-0.1651,0.1739,-0.057,0.0421,-0.0091,0.048,29,2019-08-07 16:28:43:543
8.6061,-5.265,0.0335,-0.1651,0.1739,-0.057,0.0293,-0.0208,0.0416,34,2019-08-07 16:28:43:548
8.6061,-5.265,0.0335,-0.1651,0.1739,-0.057,0.0293,-0.0208,0.0416,39,2019-08-07 16:28:43:553
8.8023,-5.2745,6.0E-4,-0.1651,0.1739,-0.057,0.0176,0.0026,0.0352,43,2019-08-07 16:28:43:557
8.8023,-5.2745,6.0E-4,-0.4318,0.1632,-0.0271,0.0176,0.0026,0.0352,49,2019-08-07 16:28:43:563
8.8215,-5.2315,-0.0324,-0.4318,0.1632,-0.0271,0.0112,0.0388,0.0213,55,2019-08-07 16:28:43:569
8.8215,-5.2315,-0.0324,-0.4318,0.1632,-0.0271,0.0112,0.0388,0.0213,59,2019-08-07 16:28:43:573
8.8215,-5.2315,-0.0324,-0.4318,0.1632,-0.0271,0.0229,0.091,0.0192,65,2019-08-07 16:28:43:579
8.7115,-5.2888,-0.1267,-0.3144,0.2169,0.109,0.0229,0.091,0.0192,69,2019-08-07 16:28:43:583
8.7115,-5.2888,-0.1267,-0.3144,0.2169,0.109,0.0315,0.1123,0.0213,74,2019-08-07 16:28:43:588
8.7115,-5.2888,-0.1267,-0.3144,0.2169,0.109,0.0315,0.1123,0.0213,78,2019-08-07 16:28:43:592
8.5584,-5.2793,-0.0937,-0.3144,0.2169,0.109,0.0389,0.1102,0.0277,84,2019-08-07 16:28:43:598
8.5584,-5.2793,-0.0937,-0.1163,0.1501,0.0645,0.0389,0.1102,0.0277,89,2019-08-07 16:28:43:603
8.5536,-5.222,-0.056,-0.1163,0.1501,0.0645,0.0496,0.0718,0.0395,94,2019-08-07 16:28:43:608
8.5536,-5.222,-0.056,-0.1163,0.1501,0.0645,0.0496,0.0718,0.0395,99,2019-08-07 16:28:43:613
8.5536,-5.222,-0.056,-0.1163,0.1501,0.0645,0.0624,0.0122,0.0512,104,2019-08-07 16:28:43:618
8.6302,-5.1838,-0.122,-0.2646,0.0851,0.1567,0.0624,0.0122,0.0512,110,2019-08-07 16:28:43:624
8.6302,-5.1838,-0.122,-0.2646,0.0851,0.1567,0.0677,-0.0091,0.0565,114,2019-08-07 16:28:43:628
8.6924,-5.1743,-0.0984,-0.2646,0.0851,0.1567,0.0677,-0.0091,0.0565,118,2019-08-07 16:28:43:632
8.6924,-5.1743,-0.0984,-0.2646,0.0851,0.1567,0.0677,-0.0091,0.0565,124,2019-08-07 16:28:43:638
8.6924,-5.1743,-0.0984,-0.3131,0.0951,0.1248,0.0719,0.0164,0.0544,129,2019-08-07 16:28:43:643
8.702,-5.2268,-0.1314,-0.3131,0.0951,0.1248,0.0719,0.0164,0.0544,133,2019-08-07 16:28:43:647
8.702,-5.2268,-0.1314,-0.3131,0.0951,0.1248,0.0762,0.0452,0.0426,139,2019-08-07 16:28:43:653
8.6243,-5.1694,-0.0845,-0.3131,0.0951,0.1248,0.0762,0.0452,0.0426,143,2019-08-07 16:28:43:657
8.6243,-5.1694,-0.0845,-0.1345,0.0642,0.136,0.0698,0.0868,0.0331,148,2019-08-07 16:28:43:662
8.6243,-5.1694,-0.0845,-0.1345,0.0642,0.136,0.0698,0.0868,0.0331,154,2019-08-07 16:28:43:668
8.3756,-5.2171,-0.0232,-0.1345,0.0642,0.136,0.0677,0.1176,0.0181,158,2019-08-07 16:28:43:672
8.3756,-5.2171,-0.0232,-0.1345,0.0642,0.136,0.0677,0.1176,0.0181,164,2019-08-07 16:28:43:678
8.1746,-5.1742,0.0616,0.2024,0.0695,0.001,0.0624,0.1081,0.0096,169,2019-08-07 16:28:43:683
8.1746,-5.1742,0.0616,0.2024,0.0695,0.001,0.0624,0.1081,0.0096,174,2019-08-07 16:28:43:688
8.1746,-5.1742,0.0616,0.2024,0.0695,0.001,0.056,0.058,0.0054,179,2019-08-07 16:28:43:693
8.1459,-5.1169,0.0852,0.2024,0.0695,0.001,0.056,0.058,0.0054,184,2019-08-07 16:28:43:698
8.1459,-5.1169,0.0852,0.2024,0.0695,0.001,0.0442,-0.0091,-0.001,188,2019-08-07 16:28:43:702
8.3038,-5.1503,-0.0185,0.149,0.0207,0.0477,0.0442,-0.0091,-0.001,194,2019-08-07 16:28:43:708
8.3038,-5.1503,-0.0185,0.149,0.0207,0.0477,0.0389,-0.0624,-0.0042,199,2019-08-07 16:28:43:713
8.3038,-5.1503,-0.0185,0.149,0.0207,0.0477,0.0389,-0.0624,-0.0042,204,2019-08-07 16:28:43:718
8.5765,-5.0978,-0.0751,-0.3666,0.008,0.1065,0.0336,-0.0826,-0.0127,208,2019-08-07 16:28:43:722
8.5765,-5.0978,-0.0751,-0.3666,0.008,0.1065,0.0336,-0.0826,-0.0127,214,2019-08-07 16:28:43:728
8.8349,-5.1217,-0.1458,-0.3666,0.008,0.1065,0.0336,-0.0826,-0.0127,218,2019-08-07 16:28:43:732
8.8349,-5.1217,-0.1458,-0.3666,0.008,0.1065,0.0336,-0.0581,-0.0064,224,2019-08-07 16:28:43:738
8.8349,-5.1217,-0.1458,-0.3666,0.008,0.1065,0.0336,-0.0581,-0.0064,229,2019-08-07 16:28:43:743
8.9593,-5.1837,-0.2023,-0.5804,0.0821,0.2636,0.0389,0.0047,0.0011,234,2019-08-07 16:28:43:748
8.9593,-5.1837,-0.2023,-0.5804,0.0821,0.2636,0.0389,0.0047,0.0011,239,2019-08-07 16:28:43:753
8.787,-5.2028,-0.1741,-0.5804,0.0821,0.2636,0.0528,0.0527,0.0139,244,2019-08-07 16:28:43:758
8.787,-5.2028,-0.1741,-0.5804,0.0821,0.2636,0.0528,0.0527,0.0139,249,2019-08-07 16:28:43:763
8.787,-5.2028,-0.1741,-0.2605,0.1574,0.1086,0.0624,0.0644,0.0181,254,2019-08-07 16:28:43:768
8.5383,-5.2505,0.0334,-0.2605,0.1574,0.1086,0.0624,0.0644,0.0181,259,2019-08-07 16:28:43:773
8.5383,-5.2505,0.0334,-0.2605,0.1574,0.1086,0.0634,0.0282,0.0224,264,2019-08-07 16:28:43:778
8.3852,-5.2744,0.0616,-0.2605,0.1574,0.1086,0.0634,0.0282,0.0224,269,2019-08-07 16:28:43:783
8.3852,-5.2744,0.0616,0.0525,0.1962,0.0089,0.0624,-0.0038,0.0213,274,2019-08-07 16:28:43:788
8.3852,-5.2744,0.0616,0.0525,0.1962,0.0089,0.0624,-0.0038,0.0213,279,2019-08-07 16:28:43:793
8.3278,-5.2983,0.1465,0.0525,0.1962,0.0089,0.0624,-0.0038,0.0213,284,2019-08-07 16:28:43:798
8.3278,-5.2983,0.1465,0.0525,0.1962,0.0089,0.0677,-0.0453,0.0107,289,2019-08-07 16:28:43:803
8.3565,-5.3078,0.1936,0.0357,0.2256,-0.0684,0.0677,-0.0453,0.0107,294,2019-08-07 16:28:43:808
8.3565,-5.3078,0.1936,0.0357,0.2256,-0.0684,0.073,-0.0517,0.0,299,2019-08-07 16:28:43:813
8.3565,-5.3078,0.1936,0.0357,0.2256,-0.0684,0.073,-0.0517,0.0,303,2019-08-07 16:28:43:817
8.4665,-5.284,0.0994,0.0357,0.2256,-0.0684,0.0751,-0.0421,-0.0053,309,2019-08-07 16:28:43:823
8.4665,-5.284,0.0994,-0.1033,0.1488,0.0117,0.0751,-0.0421,-0.0053,314,2019-08-07 16:28:43:828
8.4569,-5.2219,0.1653,-0.1033,0.1488,0.0117,0.073,-0.024,-0.0127,319,2019-08-07 16:28:43:833
8.4569,-5.2219,0.1653,-0.1033,0.1488,0.0117,0.073,-0.024,-0.0127,324,2019-08-07 16:28:43:838
8.4569,-5.2219,0.1653,-0.1033,0.1488,0.0117,0.0698,-0.0166,-0.0074,329,2019-08-07 16:28:43:843
8.4187,-5.2505,0.1701,-0.0452,0.1406,-0.0788,0.0698,-0.0166,-0.0074,334,2019-08-07 16:28:43:848
8.4187,-5.2505,0.1701,-0.0452,0.1406,-0.0788,0.0741,-0.0187,-0.001,339,2019-08-07 16:28:43:853
8.4187,-5.2505,0.1701,-0.0452,0.1406,-0.0788,0.0741,-0.0187,-0.001,343,2019-08-07 16:28:43:857
8.5909,-5.3126,0.2078,-0.0452,0.1406,-0.0788,0.0762,-0.0358,0.0,350,2019-08-07 16:28:43:864
8.5909,-5.3126,0.2078,-0.1935,0.1692,-0.1032,0.0762,-0.0358,0.0,354,2019-08-07 16:28:43:868
8.5718,-5.3126,0.1983,-0.1935,0.1692,-0.1032,0.0773,-0.0453,0.0011,358,2019-08-07 16:28:43:872
8.5718,-5.3126,0.1983,-0.2033,0.2119,-0.0793,0.0773,-0.0453,0.0011,364,2019-08-07 16:28:43:878
8.5718,-5.3126,0.1983,-0.2033,0.2119,-0.0793,0.0869,-0.0507,0.0128,369,2019-08-07 16:28:43:883
8.6101,-5.2792,0.1654,-0.2033,0.2119,-0.0793,0.0869,-0.0507,0.0128,374,2019-08-07 16:28:43:888
8.6101,-5.2792,0.1654,-0.2033,0.2119,-0.0793,0.0869,-0.0507,0.0128,379,2019-08-07 16:28:43:893
8.5383,-5.3556,0.1795,-0.1666,0.2426,-0.0833,0.0986,-0.0592,0.016,383,2019-08-07 16:28:43:897
8.5383,-5.3556,0.1795,-0.1666,0.2426,-0.0833,0.0986,-0.0592,0.016,389,2019-08-07 16:28:43:903
8.5383,-5.3556,0.1795,-0.1666,0.2426,-0.0833,0.105,-0.0624,0.0224,394,2019-08-07 16:28:43:908
8.4761,-5.3413,0.1748,-0.1666,0.2426,-0.0833,0.1103,-0.073,0.0288,399,2019-08-07 16:28:43:913
8.4761,-5.3413,0.1748,-0.0835,0.2473,-0.0315,0.1103,-0.073,0.0288,404,2019-08-07 16:28:43:918
8.4761,-5.3413,0.1748,-0.0835,0.2473,-0.0315,0.1103,-0.073,0.0288,408,2019-08-07 16:28:43:922
8.5048,-5.346,0.1654,-0.0835,0.2473,-0.0315,0.1156,-0.0773,0.0331,415,2019-08-07 16:28:43:929
8.5048,-5.346,0.1654,-0.0835,0.2473,-0.0315,0.1156,-0.0773,0.0331,418,2019-08-07 16:28:43:932
8.5192,-5.2028,0.1984,-0.1635,0.0937,-0.1498,0.1188,-0.0805,0.0309,424,2019-08-07 16:28:43:938
8.5192,-5.2028,0.1984,-0.1635,0.0937,-0.1498,0.1188,-0.0805,0.0309,428,2019-08-07 16:28:43:942
8.567,-5.136,0.2172,-0.1635,0.0937,-0.1498,0.1209,-0.0688,0.0352,434,2019-08-07 16:28:43:948
8.567,-5.136,0.2172,-0.1635,0.0937,-0.1498,0.1209,-0.0688,0.0352,438,2019-08-07 16:28:43:952
8.567,-5.136,0.2172,-0.31,0.0411,-0.0494,0.1135,-0.0635,0.032,444,2019-08-07 16:28:43:958
8.6579,-5.1646,0.1606,-0.31,0.0411,-0.0494,0.1135,-0.0635,0.032,449,2019-08-07 16:28:43:963
8.6579,-5.1646,0.1606,-0.31,0.0411,-0.0494,0.1018,-0.0496,0.0107,454,2019-08-07 16:28:43:968
8.6818,-5.2124,0.0805,-0.31,0.0411,-0.0494,0.1018,-0.0496,0.0107,459,2019-08-07 16:28:43:973
8.6818,-5.2124,0.0805,-0.3157,0.0683,-0.0094,0.1007,-0.0251,-0.0032,465,2019-08-07 16:28:43:979
8.6818,-5.2124,0.0805,-0.3157,0.0683,-0.0094,0.1007,-0.0251,-0.0032,468,2019-08-07 16:28:43:982
8.6675,-5.2458,0.0617,-0.3157,0.0683,-0.0094,0.1007,-0.0251,-0.0032,474,2019-08-07 16:28:43:988
8.6675,-5.2458,0.0617,-0.3157,0.0683,-0.0094,0.0996,-0.0049,-0.0245,479,2019-08-07 16:28:43:993
8.5288,-5.0835,0.1324,-0.1652,-0.0425,-0.0245,0.0996,-0.0049,-0.0245,484,2019-08-07 16:28:43:998
8.5288,-5.0835,0.1324,-0.1652,-0.0425,-0.0245,0.0964,-0.007,-0.0426,489,2019-08-07 16:28:44:003
8.5288,-5.0835,0.1324,-0.1652,-0.0425,-0.0245,0.0964,-0.007,-0.0426,494,2019-08-07 16:28:44:008
8.4522,-4.8352,0.2031,-0.1652,-0.0425,-0.0245,0.0879,-0.0368,-0.0458,500,2019-08-07 16:28:44:014
8.4522,-4.8352,0.2031,-0.1115,-0.3621,-0.1132,0.0879,-0.0368,-0.0458,503,2019-08-07 16:28:44:017
8.4522,-4.8352,0.2031,-0.1115,-0.3621,-0.1132,0.0688,-0.0688,-0.0479,509,2019-08-07 16:28:44:023
8.5527,-4.6777,0.3209,-0.1115,-0.3621,-0.1132,0.0688,-0.0688,-0.0479,513,2019-08-07 16:28:44:027
8.5527,-4.6777,0.3209,-0.1115,-0.3621,-0.1132,0.0528,-0.0986,-0.05,519,2019-08-07 16:28:44:033
8.6962,-4.4581,0.3539,-0.1115,-0.3621,-0.1132,0.0528,-0.0986,-0.05,523,2019-08-07 16:28:44:037
8.6962,-4.4581,0.3539,-0.2952,-0.6218,-0.2472,0.0325,-0.1039,-0.05,529,2019-08-07 16:28:44:043
8.7584,-4.3101,0.3115,-0.2952,-0.6218,-0.2472,0.0325,-0.1039,-0.05,534,2019-08-07 16:28:44:048
8.7584,-4.3101,0.3115,-0.2952,-0.6218,-0.2472,0.0048,-0.0816,-0.0468,539,2019-08-07 16:28:44:053
8.7584,-4.3101,0.3115,-0.2952,-0.6218,-0.2472,0.0048,-0.0816,-0.0468,543,2019-08-07 16:28:44:057
8.6819,-4.2146,0.2549,-0.3103,-0.832,-0.2305,-0.0218,-0.0304,-0.05,549,2019-08-07 16:28:44:063
8.6819,-4.2146,0.2549,-0.3103,-0.832,-0.2305,-0.0218,-0.0304,-0.05,554,2019-08-07 16:28:44:068
8.6819,-4.2146,0.2549,-0.3103,-0.832,-0.2305,-0.0495,0.0175,-0.0586,559,2019-08-07 16:28:44:073
8.5336,-4.1335,0.3775,-0.3103,-0.832,-0.2305,-0.0495,0.0175,-0.0586,564,2019-08-07 16:28:44:078
8.5336,-4.1335,0.3775,0.015,-0.9451,-0.3975,-0.0495,0.0175,-0.0586,569,2019-08-07 16:28:44:083
8.3231,-3.9807,0.5236,0.015,-0.9451,-0.3975,-0.091,0.0452,-0.082,573,2019-08-07 16:28:44:087
8.3231,-3.9807,0.5236,0.015,-0.9451,-0.3975,-0.091,0.0452,-0.082,579,2019-08-07 16:28:44:093
8.3231,-3.9807,0.5236,0.015,-0.9451,-0.3975,-0.1294,0.0484,-0.1118,584,2019-08-07 16:28:44:098
8.3805,-3.8232,0.4906,0.0287,-1.2279,-0.3971,-0.1294,0.0484,-0.1118,588,2019-08-07 16:28:44:102
8.3805,-3.8232,0.4906,0.0287,-1.2279,-0.3971,-0.189,0.0495,-0.1693,594,2019-08-07 16:28:44:108
8.2513,-3.6561,0.5095,0.0287,-1.2279,-0.3971,-0.189,0.0495,-0.1693,600,2019-08-07 16:28:44:114
8.2513,-3.6561,0.5095,0.0287,-1.2279,-0.3971,-0.2285,0.0559,-0.2269,604,2019-08-07 16:28:44:118
8.2513,-3.6561,0.5095,0.2047,-1.4284,-0.4281,-0.2285,0.0559,-0.2269,609,2019-08-07 16:28:44:123
8.2226,-3.4413,0.533,0.2047,-1.4284,-0.4281,-0.2807,0.0356,-0.2993,614,2019-08-07 16:28:44:128
8.2226,-3.4413,0.533,0.2047,-1.4284,-0.4281,-0.2807,0.0356,-0.2993,619,2019-08-07 16:28:44:133
8.2992,-3.0785,0.4859,0.2047,-1.4284,-0.4281,-0.2807,0.0356,-0.2993,624,2019-08-07 16:28:44:138
8.2992,-3.0785,0.4859,0.2039,-1.9522,-0.3961,-0.3712,0.0122,-0.4016,629,2019-08-07 16:28:44:143
8.2992,-3.0785,0.4859,0.2039,-1.9522,-0.3961,-0.3712,0.0122,-0.4016,634,2019-08-07 16:28:44:148
8.28,-2.6059,0.4341,0.2039,-1.9522,-0.3961,-0.4436,-0.0049,-0.4889,639,2019-08-07 16:28:44:153
8.28,-2.6059,0.4341,0.2039,-1.9522,-0.3961,-0.4436,-0.0049,-0.4889,644,2019-08-07 16:28:44:158
8.3805,-2.1953,0.2455,0.1838,-2.5518,-0.2623,-0.5065,-0.0155,-0.5869,648,2019-08-07 16:28:44:162
8.3805,-2.1953,0.2455,0.1838,-2.5518,-0.2623,-0.5065,-0.0155,-0.5869,654,2019-08-07 16:28:44:168
8.3805,-2.1953,0.2455,0.1838,-2.5518,-0.2623,-0.5725,-0.0144,-0.6839,659,2019-08-07 16:28:44:173
8.2561,-1.7991,0.1371,0.1838,-2.5518,-0.2623,-0.5725,-0.0144,-0.6839,664,2019-08-07 16:28:44:178
8.2561,-1.7991,0.1371,0.3743,-3.0559,-0.1391,-0.6546,-0.0283,-0.8042,669,2019-08-07 16:28:44:183
8.1891,-1.336,-0.0138,0.3743,-3.0559,-0.1391,-0.6546,-0.0283,-0.8042,674,2019-08-07 16:28:44:188
8.1891,-1.336,-0.0138,0.3743,-3.0559,-0.1391,-0.6546,-0.0283,-0.8042,678,2019-08-07 16:28:44:192
8.1891,-1.336,-0.0138,0.3743,-3.0559,-0.1391,-0.7153,-0.0453,-0.9235,684,2019-08-07 16:28:44:198
7.9643,-0.8586,-0.1976,0.7325,-3.6791,0.0954,-0.7962,-0.0645,-1.0631,689,2019-08-07 16:28:44:203
7.9643,-0.8586,-0.1976,0.7325,-3.6791,0.0954,-0.7962,-0.0645,-1.0631,694,2019-08-07 16:28:44:208
7.6629,-0.2428,-0.5417,0.7325,-3.6791,0.0954,-0.7962,-0.0645,-1.0631,699,2019-08-07 16:28:44:213
7.6629,-0.2428,-0.5417,0.7325,-3.6791,0.0954,-0.9326,-0.1156,-1.2548,703,2019-08-07 16:28:44:217
7.6629,-0.2428,-0.5417,1.2765,-4.363,0.3656,-0.9326,-0.1156,-1.2548,709,2019-08-07 16:28:44:223
7.4237,0.3634,-0.7444,1.2765,-4.363,0.3656,-1.0498,-0.1742,-1.4104,714,2019-08-07 16:28:44:228
7.4237,0.3634,-0.7444,1.2765,-4.363,0.3656,-1.0498,-0.1742,-1.4104,719,2019-08-07 16:28:44:233
7.4237,0.3634,-0.7444,1.2765,-4.363,0.3656,-1.0498,-0.1742,-1.4104,724,2019-08-07 16:28:44:238
7.3663,1.0318,-0.6878,1.6211,-5.1928,0.3582,-1.2085,-0.2786,-1.6011,729,2019-08-07 16:28:44:243
7.3663,1.0318,-0.6878,1.6211,-5.1928,0.3582,-1.2085,-0.2786,-1.6011,734,2019-08-07 16:28:44:248
7.3567,1.7383,-0.8528,1.6211,-5.1928,0.3582,-1.3811,-0.3809,-1.7811,739,2019-08-07 16:28:44:253
7.3567,1.7383,-0.8528,1.6211,-5.1928,0.3582,-1.3811,-0.3809,-1.7811,744,2019-08-07 16:28:44:258
7.3567,1.7383,-0.8528,1.6378,-5.7464,0.697,-1.5377,-0.4416,-1.926,748,2019-08-07 16:28:44:262
7.4763,2.2539,-1.3006,1.6378,-5.7464,0.697,-1.5377,-0.4416,-1.926,754,2019-08-07 16:28:44:268
7.4763,2.2539,-1.3006,1.6378,-5.7464,0.697,-1.7209,-0.5034,-2.0857,759,2019-08-07 16:28:44:273
7.5864,2.8554,-1.5599,1.6378,-5.7464,0.697,-1.7209,-0.5034,-2.0857,764,2019-08-07 16:28:44:278
7.5864,2.8554,-1.5599,1.6895,-6.2195,1.0184,-1.7209,-0.5034,-2.0857,769,2019-08-07 16:28:44:283
7.5864,2.8554,-1.5599,1.6895,-6.2195,1.0184,-1.9968,-0.594,-2.2935,774,2019-08-07 16:28:44:288
7.7155,3.3996,-1.9605,1.6895,-6.2195,1.0184,-1.9968,-0.594,-2.2935,779,2019-08-07 16:28:44:293
7.7155,3.3996,-1.9605,1.6895,-6.2195,1.0184,-2.2535,-0.6355,-2.4852,784,2019-08-07 16:28:44:298
7.7921,3.9772,-2.2999,1.6094,-6.5968,1.3074,-2.2535,-0.6355,-2.4852,789,2019-08-07 16:28:44:303
7.7921,3.9772,-2.2999,1.6094,-6.5968,1.3074,-2.5049,-0.7186,-2.6951,794,2019-08-07 16:28:44:308
7.7921,3.9772,-2.2999,1.6094,-6.5968,1.3074,-2.5049,-0.7186,-2.6951,799,2019-08-07 16:28:44:313
7.8543,4.6647,-3.1013,1.6094,-6.5968,1.3074,-2.7723,-0.8059,-2.8975,804,2019-08-07 16:28:44:318
7.8543,4.6647,-3.1013,1.3885,-7.0356,2.4022,-2.7723,-0.8059,-2.8975,809,2019-08-07 16:28:44:323
8.4332,5.2709,-4.11,1.3885,-7.0356,2.4022,-3.0514,-0.8251,-3.1169,814,2019-08-07 16:28:44:328
8.4332,5.2709,-4.11,1.3885,-7.0356,2.4022,-3.0514,-0.8251,-3.1169,819,2019-08-07 16:28:44:333
8.4332,5.2709,-4.11,1.3885,-7.0356,2.4022,-3.4317,-0.84,-3.4525,823,2019-08-07 16:28:44:337
8.9403,5.5717,-5.1141,0.6459,-6.8102,3.7249,-3.4317,-0.84,-3.4525,829,2019-08-07 16:28:44:343
8.9403,5.5717,-5.1141,0.6459,-6.8102,3.7249,-3.7609,-0.8933,-3.738,834,2019-08-07 16:28:44:348
9.0982,5.7244,-5.7787,0.6459,-6.8102,3.7249,-3.7609,-0.8933,-3.738,839,2019-08-07 16:28:44:353
9.0982,5.7244,-5.7787,0.6459,-6.8102,3.7249,-3.7609,-0.8933,-3.738,843,2019-08-07 16:28:44:357
9.0982,5.7244,-5.7787,0.5823,-5.9101,3.8314,-4.1028,-0.9892,-4.0384,849,2019-08-07 16:28:44:363
9.0456,5.6003,-5.5477,0.5823,-5.9101,3.8314,-4.1028,-0.9892,-4.0384,854,2019-08-07 16:28:44:368
9.0456,5.6003,-5.5477,0.5823,-5.9101,3.8314,-4.5673,-1.3428,-4.4165,858,2019-08-07 16:28:44:372
8.749,5.4285,-4.9962,0.5823,-5.9101,3.8314,-4.5673,-1.3428,-4.4165,864,2019-08-07 16:28:44:378
8.749,5.4285,-4.9962,0.8997,-4.4579,2.7444,-4.9348,-1.8936,-4.6701,869,2019-08-07 16:28:44:383
8.749,5.4285,-4.9962,0.8997,-4.4579,2.7444,-4.9348,-1.8936,-4.6701,875,2019-08-07 16:28:44:389
8.6724,4.8413,-4.8878,0.8997,-4.4579,2.7444,-5.2746,-2.5168,-4.865,879,2019-08-07 16:28:44:393
8.6724,4.8413,-4.8878,0.8997,-4.4579,2.7444,-5.2746,-2.5168,-4.865,884,2019-08-07 16:28:44:398
8.6724,4.8413,-4.8878,0.8997,-4.4579,2.7444,-5.2746,-2.5168,-4.865,888,2019-08-07 16:28:44:402
9.1317,3.1848,-5.9201,0.1419,-1.1573,3.445,-5.6219,-3.2038,-5.0887,894,2019-08-07 16:28:44:408
9.1317,3.1848,-5.9201,0.1419,-1.1573,3.445,-5.6219,-3.2038,-5.0887,898,2019-08-07 16:28:44:412
10.1843,0.8647,-6.5612,0.1419,-1.1573,3.445,-5.8115,-3.6481,-5.2837,904,2019-08-07 16:28:44:418
10.1843,0.8647,-6.5612,-2.1237,3.9487,4.1488,-5.8722,-4.0891,-5.4445,909,2019-08-07 16:28:44:423
11.6291,-1.9614,-6.8629,-2.1237,3.9487,4.1488,-5.8722,-4.0891,-5.4445,914,2019-08-07 16:28:44:428
11.6291,-1.9614,-6.8629,-2.1237,3.9487,4.1488,-5.8722,-4.0891,-5.4445,919,2019-08-07 16:28:44:433
11.6291,-1.9614,-6.8629,-2.1237,3.9487,4.1488,-5.8009,-4.643,-5.5724,923,2019-08-07 16:28:44:437
13.7055,-4.3913,-7.3154,-2.1237,3.9487,4.1488,-5.8009,-4.643,-5.5724,929,2019-08-07 16:28:44:443
13.7055,-4.3913,-7.3154,-5.9588,9.2937,4.4773,-5.6272,-5.4739,-5.5915,934,2019-08-07 16:28:44:448
13.7055,-4.3913,-7.3154,-5.9588,9.2937,4.4773,-5.6272,-5.4739,-5.5915,939,2019-08-07 16:28:44:453
15.5665,-6.7352,-10.4972,-5.9588,9.2937,4.4773,-5.1841,-5.8723,-5.4765,944,2019-08-07 16:28:44:458
15.5665,-6.7352,-10.4972,-5.9588,9.2937,4.4773,-5.1841,-5.8723,-5.4765,949,2019-08-07 16:28:44:463
18.6954,-10.5591,-15.8757,-10.681,15.4125,11.2621,-4.2285,-5.296,-5.3827,954,2019-08-07 16:28:44:468
18.6954,-10.5591,-15.8757,-10.681,15.4125,11.2621,-4.2285,-5.296,-5.3827,959,2019-08-07 16:28:44:473
18.6954,-10.5591,-15.8757,-10.681,15.4125,11.2621,-3.1792,-3.826,-5.5361,965,2019-08-07 16:28:44:479
22.0348,-16.0155,-20.0898,-10.681,15.4125,11.2621,-3.1792,-3.826,-5.5361,969,2019-08-07 16:28:44:483
22.0348,-16.0155,-20.0898,-15.6278,25.1399,17.474,-2.0053,-1.6965,-5.6789,974,2019-08-07 16:28:44:488
20.6905,-19.2426,-21.4757,-15.6278,25.1399,17.474,-2.0053,-1.6965,-5.6789,979,2019-08-07 16:28:44:493
20.6905,-19.2426,-21.4757,-15.6278,25.1399,17.474,-2.0053,-1.6965,-5.6789,984,2019-08-07 16:28:44:498
20.6905,-19.2426,-21.4757,-15.6278,25.1399,17.474,-0.564,0.5033,-5.191,989,2019-08-07 16:28:44:503
20.0877,-21.0376,-20.4528,-14.711,28.3736,16.7771,-0.564,0.5033,-5.191,994,2019-08-07 16:28:44:508
20.0877,-21.0376,-20.4528,-14.711,28.3736,16.7771,0.4789,1.3075,-4.4112,998,2019-08-07 16:28:44:512
20.0877,-21.0376,-20.4528,-14.711,28.3736,16.7771,0.4789,1.3075,-4.4112,1004,2019-08-07 16:28:44:518
21.5899,-22.8516,-22.7343,-14.711,28.3736,16.7771,1.5484,1.2724,-3.331,1009,2019-08-07 16:28:44:523
21.5899,-22.8516,-22.7343,-17.7981,31.1475,21.0424,1.5484,1.2724,-3.331,1014,2019-08-07 16:28:44:528
24.6471,-25.1431,-28.8434,-17.7981,31.1475,21.0424,1.5484,1.2724,-3.331,1018,2019-08-07 16:28:44:532
24.6471,-25.1431,-28.8434,-17.7981,31.1475,21.0424,2.4113,0.6929,-2.3819,1024,2019-08-07 16:28:44:538
24.6471,-25.1431,-28.8434,-17.7981,31.1475,21.0424,2.4113,0.6929,-2.3819,1029,2019-08-07 16:28:44:543
28.3022,-28.0551,-38.3276,-23.6997,35.7146,34.2797,3.0195,0.0335,-1.5947,1034,2019-08-07 16:28:44:548
28.3022,-28.0551,-38.3276,-23.6997,35.7146,34.2797,3.0195,0.0335,-1.5947,1038,2019-08-07 16:28:44:552
28.3022,-28.0551,-38.3276,-23.6997,35.7146,34.2797,3.844,-0.4608,-0.4591,1044,2019-08-07 16:28:44:558
30.4121,-27.4632,-48.4057,-23.6997,35.7146,34.2797,3.844,-0.4608,-0.4591,1049,2019-08-07 16:28:44:563
30.4121,-27.4632,-48.4057,-26.0752,32.7182,48.0114,5.9597,-0.0453,1.6746,1054,2019-08-07 16:28:44:568
30.1202,-23.7444,-55.1229,-26.0752,32.7182,48.0114,5.9597,-0.0453,1.6746,1059,2019-08-07 16:28:44:573
30.1202,-23.7444,-55.1229,-26.0752,32.7182,48.0114,8.7411,1.8838,3.7402,1064,2019-08-07 16:28:44:578
28.4553,-19.9157,-59.2663,-26.0752,32.7182,48.0114,8.7411,1.8838,3.7402,1069,2019-08-07 16:28:44:583
28.4553,-19.9157,-59.2663,-23.1697,25.3685,53.9817,8.7411,1.8838,3.7402,1073,2019-08-07 16:28:44:587
28.4553,-19.9157,-59.2663,-23.1697,25.3685,53.9817,11.8048,4.9816,5.7237,1079,2019-08-07 16:28:44:593
28.5893,-17.1994,-59.3794,-23.1697,25.3685,53.9817,11.8048,4.9816,5.7237,1084,2019-08-07 16:28:44:598
28.5893,-17.1994,-59.3794,-23.1697,25.3685,53.9817,14.5084,7.1793,7.6966,1089,2019-08-07 16:28:44:603
32.6415,-14.4497,-56.1269,-26.1249,18.1428,49.792,14.5084,7.1793,7.6966,1094,2019-08-07 16:28:44:608
32.6415,-14.4497,-56.1269,-26.1249,18.1428,49.792,15.2978,4.8069,8.8652,1100,2019-08-07 16:28:44:614
32.6415,-14.4497,-56.1269,-26.1249,18.1428,49.792,15.2978,4.8069,8.8652,1104,2019-08-07 16:28:44:618
31.9765,-12.2204,-62.3255,-26.1249,18.1428,49.792,15.2978,4.8069,8.8652,1109,2019-08-07 16:28:44:623
31.9765,-12.2204,-62.3255,-21.3323,10.4652,64.9751,15.171,0.2039,9.6961,1114,2019-08-07 16:28:44:628
28.1396,-8.3965,-76.4623,-21.3323,10.4652,64.9751,15.171,0.2039,9.6961,1119,2019-08-07 16:28:44:633
28.1396,-8.3965,-76.4623,-21.3323,10.4652,64.9751,14.4424,-3.2284,10.1935,1124,2019-08-07 16:28:44:638
28.1396,-8.3965,-76.4623,-21.3323,10.4652,64.9751,14.4424,-3.2284,10.1935,1129,2019-08-07 16:28:44:643
37.0,-2.8875,-78.0932,-30.4559,-0.1158,71.4306,13.8192,-4.1732,9.6918,1134,2019-08-07 16:28:44:648
37.0,-2.8875,-78.0932,-30.4559,-0.1158,71.4306,13.8192,-4.1732,9.6918,1139,2019-08-07 16:28:44:653
37.0,-2.8875,-78.0932,-30.4559,-0.1158,71.4306,13.1992,-4.8902,8.7075,1143,2019-08-07 16:28:44:657
45.9467,3.0606,-75.8447,-30.4559,-0.1158,71.4306,13.1992,-4.8902,8.7075,1149,2019-08-07 16:28:44:663
45.9467,3.0606,-75.8447,-47.3883,-18.731,68.727,13.1992,-4.8902,8.7075,1153,2019-08-07 16:28:44:667
45.9467,3.0606,-75.8447,-47.3883,-18.731,68.727,12.9574,-4.283,6.855,1159,2019-08-07 16:28:44:673
55.8692,17.6542,-75.7599,-47.3883,-18.731,68.727,12.9574,-4.283,6.855,1163,2019-08-07 16:28:44:677
55.8692,17.6542,-75.7599,-49.8452,-31.3355,71.4573,13.1555,-1.819,5.1335,1169,2019-08-07 16:28:44:683
47.7743,44.2778,-73.0023,-49.8452,-31.3355,71.4573,13.1555,-1.819,5.1335,1174,2019-08-07 16:28:44:688
47.7743,44.2778,-73.0023,-49.8452,-31.3355,71.4573,13.3611,5.0743,3.296,1180,2019-08-07 16:28:44:694
47.7743,44.2778,-73.0023,-22.9725,-60.5362,76.0324,13.3611,5.0743,3.296,1184,2019-08-07 16:28:44:698
21.8054,53.2239,-80.3087,-22.9725,-60.5362,76.0324,10.8673,13.8702,3.3024,1189,2019-08-07 16:28:44:703
21.8054,53.2239,-80.3087,-22.9725,-60.5362,76.0324,10.8673,13.8702,3.3024,1193,2019-08-07 16:28:44:707
10.3854,77.2219,-55.9289,-22.9725,-60.5362,76.0324,7.2731,16.1179,3.4653,1199,2019-08-07 16:28:44:713
10.3854,77.2219,-55.9289,-4.968,-98.3681,42.5741,7.2731,16.1179,3.4653,1204,2019-08-07 16:28:44:718
10.3854,77.2219,-55.9289,-4.968,-98.3681,42.5741,7.2731,16.1179,3.4653,1209,2019-08-07 16:28:44:723
8.2804,100.2079,-32.4305,-4.968,-98.3681,42.5741,5.0584,9.688,3.3311,1214,2019-08-07 16:28:44:728
8.2804,100.2079,-32.4305,-4.968,-98.3681,42.5741,2.685,-2.161,2.8954,1219,2019-08-07 16:28:44:733
8.2804,100.2079,-32.4305,-4.968,-98.3681,42.5741,2.685,-2.161,2.8954,1224,2019-08-07 16:28:44:738
-0.4078,83.1653,-33.543,3.9471,-92.2808,34.3283,2.685,-2.161,2.8954,1229,2019-08-07 16:28:44:743
-0.4078,83.1653,-33.543,3.9471,-92.2808,34.3283,1.8392,-7.565,2.268,1234,2019-08-07 16:28:44:748
-0.4078,83.1653,-33.543,3.9471,-92.2808,34.3283,1.8392,-7.565,2.268,1238,2019-08-07 16:28:44:752
-1.7856,61.3633,-15.0177,3.9471,-92.2808,34.3283,-3.8248,-1.5101,0.8981,1244,2019-08-07 16:28:44:758
-1.7856,61.3633,-15.0177,6.9701,-63.0739,28.1148,-3.8248,-1.5101,0.8981,1249,2019-08-07 16:28:44:763
0.0084,37.6326,1.787,6.9701,-63.0739,28.1148,-3.8248,-1.5101,0.8981,1254,2019-08-07 16:28:44:768
0.0084,37.6326,1.787,6.9701,-63.0739,28.1148,-4.4533,8.3298,-0.36,1259,2019-08-07 16:28:44:773
0.0084,37.6326,1.787,6.9701,-63.0739,28.1148,-1.7049,3.3113,-0.8799,1264,2019-08-07 16:28:44:778
2.0657,40.664,58.5601,2.5811,-42.0264,-39.0503,-1.7049,3.3113,-0.8799,1269,2019-08-07 16:28:44:783
2.0657,40.664,58.5601,2.5811,-42.0264,-39.0503,-1.7049,3.3113,-0.8799,1274,2019-08-07 16:28:44:788
-1.7952,17.0575,12.0207,2.5811,-42.0264,-39.0503,1.0275,3.9835,-2.3904,1278,2019-08-07 16:28:44:792
-1.7952,17.0575,12.0207,2.5811,-42.0264,-39.0503,1.0275,3.9835,-2.3904,1284,2019-08-07 16:28:44:798
-1.7952,17.0575,12.0207,7.1885,-23.8317,-2.8084,-0.3616,1.4769,-3.5143,1289,2019-08-07 16:28:44:803
-4.2447,13.7397,-3.0824,7.1885,-23.8317,-2.8084,-0.3616,1.4769,-3.5143,1294,2019-08-07 16:28:44:808
-4.2447,13.7397,-3.0824,7.1885,-23.8317,-2.8084,-2.3888,-0.9988,-3.4791,1299,2019-08-07 16:28:44:813
-1.0775,8.498,-12.2224,7.1885,-23.8317,-2.8084,-2.3888,-0.9988,-3.4791,1304,2019-08-07 16:28:44:818
-1.0775,8.498,-12.2224,3.6383,-15.4623,12.0391,-4.4022,-2.5306,-3.1776,1308,2019-08-07 16:28:44:822
-1.0775,8.498,-12.2224,3.6383,-15.4623,12.0391,-4.4022,-2.5306,-3.1776,1314,2019-08-07 16:28:44:828
9.0076,-0.5006,-6.8534,3.6383,-15.4623,12.0391,-5.6709,-3.8057,-3.4003,1319,2019-08-07 16:28:44:833
9.0076,-0.5006,-6.8534,3.6383,-15.4623,12.0391,-5.6709,-3.8057,-3.4003,1324,2019-08-07 16:28:44:838
9.0076,-0.5006,-6.8534,-12.3173,-1.1824,-3.8431,-5.6709,-3.8057,-3.4003,1330,2019-08-07 16:28:44:844
16.7294,-7.5134,-0.1645,-12.3173,-1.1824,-3.8431,-5.7593,-5.8862,-4.3867,1334,2019-08-07 16:28:44:848
16.7294,-7.5134,-0.1645,-12.3173,-1.1824,-3.8431,-5.7593,-5.8862,-4.3867,1338,2019-08-07 16:28:44:852
19.1502,-11.8958,-6.5941,-12.3173,-1.1824,-3.8431,-5.1138,-7.7994,-5.615,1344,2019-08-07 16:28:44:858
19.1502,-11.8958,-6.5941,-14.3556,5.7914,7.0746,-5.1138,-7.7994,-5.615,1349,2019-08-07 16:28:44:863
19.1502,-11.8958,-6.5941,-14.3556,5.7914,7.0746,-3.9963,-7.9603,-6.2467,1353,2019-08-07 16:28:44:867
15.9639,-16.345,-17.4925,-14.3556,5.7914,7.0746,-3.9963,-7.9603,-6.2467,1359,2019-08-07 16:28:44:873
15.9639,-16.345,-17.4925,-14.3556,5.7914,7.0746,-2.7595,-5.6817,-5.1388,1364,2019-08-07 16:28:44:878
14.9545,-18.3595,-19.5147,-8.2776,11.1533,15.0745,-2.7595,-5.6817,-5.1388,1369,2019-08-07 16:28:44:883
14.9545,-18.3595,-19.5147,-8.2776,11.1533,15.0745,-2.7595,-5.6817,-5.1388,1374,2019-08-07 16:28:44:888
14.9545,-18.3595,-19.5147,-8.2776,11.1533,15.0745,-1.315,-1.6347,-3.0605,1379,2019-08-07 16:28:44:893
19.3321,-19.5243,-19.8022,-8.2776,11.1533,15.0745,-1.315,-1.6347,-3.0605,1384,2019-08-07 16:28:44:898
19.3321,-19.5243,-19.8022,-14.3635,12.3831,13.7481,-0.6333,1.853,-1.4253,1389,2019-08-07 16:28:44:903
19.3321,-19.5243,-19.8022,-14.3635,12.3831,13.7481,-0.6333,1.853,-1.4253,1394,2019-08-07 16:28:44:908
20.7482,-18.1065,-15.2345,-14.1718,12.122,9.6126,-0.9326,2.964,-1.519,1400,2019-08-07 16:28:44:914
20.7482,-18.1065,-15.2345,-14.1718,12.122,9.6126,-0.9326,2.964,-1.519,1403,2019-08-07 16:28:44:917
18.6336,-19.6914,-9.3753,-14.1718,12.122,9.6126,-0.9326,2.964,-1.519,1409,2019-08-07 16:28:44:923
18.6336,-19.6914,-9.3753,-14.1718,12.122,9.6126,-1.7411,2.0127,-2.6194,1414,2019-08-07 16:28:44:928
18.6336,-19.6914,-9.3753,-7.781,14.0794,-2.0874,-1.7411,2.0127,-2.6194,1418,2019-08-07 16:28:44:932
13.5384,-19.9492,-1.7719,-7.781,14.0794,-2.0874,-2.2205,-0.1007,-3.3119,1424,2019-08-07 16:28:44:938
13.5384,-19.9492,-1.7719,-7.781,14.0794,-2.0874,-2.2205,-0.1007,-3.3119,1429,2019-08-07 16:28:44:943
13.5384,-19.9492,-1.7719,-7.781,14.0794,-2.0874,-2.0959,-1.7402,-3.1872,1434,2019-08-07 16:28:44:948
13.3183,-18.6364,-3.6857,-6.8244,13.3461,-1.0162,-2.0959,-1.7402,-3.1872,1438,2019-08-07 16:28:44:952
13.3183,-18.6364,-3.6857,-6.8244,13.3461,-1.0162,-1.3587,-2.1748,-2.3478,1444,2019-08-07 16:28:44:958
15.165,-17.1899,-4.4446,-6.8244,13.3461,-1.0162,-1.3587,-2.1748,-2.3478,1449,2019-08-07 16:28:44:963
15.165,-17.1899,-4.4446,-6.8244,13.3461,-1.0162,-0.4394,-1.8158,-1.6181,1454,2019-08-07 16:28:44:968
15.5238,-17.1708,-6.0143,-8.5036,12.5627,0.9431,-0.4394,-1.8158,-1.6181,1459,2019-08-07 16:28:44:973
15.5238,-17.1708,-6.0143,-8.5036,12.5627,0.9431,0.3244,-1.0169,-1.1654,1464,2019-08-07 16:28:44:978
15.5238,-17.1708,-6.0143,-8.5036,12.5627,0.9431,0.3244,-1.0169,-1.1654,1469,2019-08-07 16:28:44:983
16.2319,-17.9346,-5.5665,-8.5036,12.5627,0.9431,0.6365,-0.3948,-1.1014,1474,2019-08-07 16:28:44:988
16.2319,-17.9346,-5.5665,-9.1115,13.0858,-0.5075,0.6365,-0.3948,-1.1014,1479,2019-08-07 16:28:44:993
16.2319,-17.9346,-5.5665,-9.1115,13.0858,-0.5075,0.5492,-0.4587,-1.1568,1484,2019-08-07 16:28:44:998
15.9209,-16.4404,-3.9921,-9.1115,13.0858,-0.5075,0.5492,-0.4587,-1.1568,1488,2019-08-07 16:28:45:002
15.9209,-16.4404,-3.9921,-9.1115,13.0858,-0.5075,0.3425,-0.79,-1.1014,1494,2019-08-07 16:28:45:008
15.7296,-14.5834,-4.9066,-8.6373,9.7361,0.0051,0.3425,-0.79,-1.1014,1500,2019-08-07 16:28:45:014
15.7296,-14.5834,-4.9066,-8.6373,9.7361,0.0051,0.4863,-0.2275,-0.9544,1504,2019-08-07 16:28:45:018
15.7296,-14.5834,-4.9066,-8.6373,9.7361,0.0051,0.4863,-0.2275,-0.9544,1508,2019-08-07 16:28:45:022
16.1697,-12.8028,-6.1322,-9.0535,8.4236,0.9923,1.0946,1.3107,-0.7819,1514,2019-08-07 16:28:45:028
16.1697,-12.8028,-6.1322,-9.0535,8.4236,0.9923,1.0946,1.3107,-0.7819,1519,2019-08-07 16:28:45:033
15.4999,-10.5209,-5.147,-9.0535,8.4236,0.9923,1.0946,1.3107,-0.7819,1524,2019-08-07 16:28:45:038
15.4999,-10.5209,-5.147,-6.3052,4.6481,-1.2171,2.0192,3.2474,-0.5038,1528,2019-08-07 16:28:45:042
12.1366,-8.4252,-1.8945,-6.3052,4.6481,-1.2171,2.0192,3.2474,-0.5038,1534,2019-08-07 16:28:45:048
12.1366,-8.4252,-1.8945,-6.3052,4.6481,-1.2171,2.9524,4.889,0.1236,1538,2019-08-07 16:28:45:052
12.1366,-8.4252,-1.8945,-6.3052,4.6481,-1.2171,2.9524,4.889,0.1236,1544,2019-08-07 16:28:45:058
10.5674,-8.3393,2.5648,-0.7107,2.8855,-1.709,2.6307,3.3976,0.5902,1549,2019-08-07 16:28:45:063
10.5674,-8.3393,2.5648,-0.7107,2.8855,-1.709,2.6307,3.3976,0.5902,1554,2019-08-07 16:28:45:068
10.5674,-8.3393,2.5648,-0.7107,2.8855,-1.709,2.6307,3.3976,0.5902,1559,2019-08-07 16:28:45:073
6.5295,-6.5634,-6.1086,-0.7107,2.8855,-1.709,1.6368,2.4889,0.9417,1565,2019-08-07 16:28:45:079
6.5295,-6.5634,-6.1086,0.8822,1.0959,-4.727,0.856,2.7861,1.2656,1569,2019-08-07 16:28:45:083
7.0941,-6.0956,5.6759,0.8822,1.0959,-4.727,0.856,2.7861,1.2656,1574,2019-08-07 16:28:45:088
7.0941,-6.0956,5.6759,0.8822,1.0959,-4.727,0.856,2.7861,1.2656,1579,2019-08-07 16:28:45:093
7.0941,-6.0956,5.6759,0.8822,1.0959,-4.727,1.1979,1.6655,1.4477,1584,2019-08-07 16:28:45:098
7.8165,-7.7951,-0.8621,-0.6471,2.9002,-0.6164,1.1979,1.6655,1.4477,1589,2019-08-07 16:28:45:103
7.8165,-7.7951,-0.8621,-0.6471,2.9002,-0.6164,1.5122,2.0032,1.3668,1594,2019-08-07 16:28:45:108
8.7542,-7.542,-2.7712,-0.6471,2.9002,-0.6164,1.5122,2.0032,1.3668,1599,2019-08-07 16:28:45:113
8.7542,-7.542,-2.7712,-0.6471,2.9002,-0.6164,1.3077,2.3994,1.1345,1604,2019-08-07 16:28:45:118
7.3285,-5.2315,-2.347,0.7234,-0.7841,0.0445,1.3077,2.3994,1.1345,1609,2019-08-07 16:28:45:123
7.3285,-5.2315,-2.347,0.7234,-0.7841,0.0445,1.3077,2.3994,1.1345,1614,2019-08-07 16:28:45:128
7.3285,-5.2315,-2.347,0.7234,-0.7841,0.0445,1.1543,2.6647,1.1505,1619,2019-08-07 16:28:45:133
6.6779,-3.532,-1.7719,0.7234,-0.7841,0.0445,1.1543,2.6647,1.1505,1624,2019-08-07 16:28:45:138
6.6779,-3.532,-1.7719,0.7234,-0.7841,0.0445,1.0179,2.9885,1.1303,1629,2019-08-07 16:28:45:143
6.6779,-3.532,-1.7719,1.1718,-2.6848,-0.1674,1.0179,2.9885,1.1303,1633,2019-08-07 16:28:45:147
6.2712,-2.8255,-0.9705,1.1718,-2.6848,-0.1674,1.0179,2.9885,1.1303,1639,2019-08-07 16:28:45:153
6.2712,-2.8255,-0.9705,1.1718,-2.6848,-0.1674,0.7899,3.0674,0.9481,1644,2019-08-07 16:28:45:158
5.0943,-2.3195,-0.1739,1.1718,-2.6848,-0.1674,0.7899,3.0674,0.9481,1649,2019-08-07 16:28:45:163
5.0943,-2.3195,-0.1739,2.8762,-3.6857,-0.915,0.4895,2.8458,0.7766,1654,2019-08-07 16:28:45:168
5.0943,-2.3195,-0.1739,2.8762,-3.6857,-0.915,0.4895,2.8458,0.7766,1659,2019-08-07 16:28:45:173
4.5919,-2.329,0.288,2.8762,-3.6857,-0.915,0.2573,2.5411,0.6381,1664,2019-08-07 16:28:45:178
4.5919,-2.329,0.288,2.8762,-3.6857,-0.915,0.2573,2.5411,0.6381,1669,2019-08-07 16:28:45:183
5.2043,-2.7491,0.3116,2.6257,-3.4011,-0.9382,0.0411,2.2855,0.4336,1674,2019-08-07 16:28:45:188
5.2043,-2.7491,0.3116,2.6257,-3.4011,-0.9382,0.0411,2.2855,0.4336,1678,2019-08-07 16:28:45:192
5.2043,-2.7491,0.3116,2.0907,-3.1737,-0.6389,-0.1102,2.1725,0.2429,1684,2019-08-07 16:28:45:198
5.7737,-2.9878,0.0288,2.0907,-3.1737,-0.6389,-0.1102,2.1725,0.2429,1689,2019-08-07 16:28:45:203
5.7737,-2.9878,0.0288,2.0907,-3.1737,-0.6389,-0.1102,2.1725,0.2429,1694,2019-08-07 16:28:45:208
6.0416,-3.1454,-0.2305,2.0907,-3.1737,-0.6389,-0.3584,2.1885,-0.0756,1699,2019-08-07 16:28:45:213
6.0416,-3.1454,-0.2305,1.5157,-2.7773,0.0923,-0.3584,2.1885,-0.0756,1704,2019-08-07 16:28:45:218
6.2856,-3.5846,-0.3106,1.5157,-2.7773,0.0923,-0.5843,2.3568,-0.2567,1709,2019-08-07 16:28:45:223
6.2856,-3.5846,-0.3106,1.4413,-2.3699,0.3334,-0.5843,2.3568,-0.2567,1714,2019-08-07 16:28:45:228
6.2856,-3.5846,-0.3106,1.4413,-2.3699,0.3334,-0.5843,2.3568,-0.2567,1719,2019-08-07 16:28:45:233
6.1803,-3.9999,0.0429,1.4413,-2.3699,0.3334,-0.7888,2.5241,-0.4442,1724,2019-08-07 16:28:45:238
6.1803,-3.9999,0.0429,1.4413,-2.3699,0.3334,-0.7888,2.5241,-0.4442,1729,2019-08-07 16:28:45:243
5.9364,-4.5345,0.1844,1.8926,-1.5717,0.0695,-0.9305,2.5145,-0.5848,1733,2019-08-07 16:28:45:247
5.9364,-4.5345,0.1844,1.8926,-1.5717,0.0695,-0.9305,2.5145,-0.5848,1738,2019-08-07 16:28:45:252
5.9364,-4.5345,0.1844,1.8926,-1.5717,0.0695,-1.0753,2.4474,-0.7201,1744,2019-08-07 16:28:45:258
5.9364,-4.8448,0.8019,1.8926,-1.5717,0.0695,-1.0753,2.4474,-0.7201,1749,2019-08-07 16:28:45:263
5.9364,-4.8448,0.8019,1.8787,-1.0206,-0.6016,-1.1968,2.1619,-0.8,1754,2019-08-07 16:28:45:268
5.9364,-4.8448,0.8019,1.8787,-1.0206,-0.6016,-1.1968,2.1619,-0.8,1759,2019-08-07 16:28:45:273
5.8742,-4.8257,1.4099,1.8787,-1.0206,-0.6016,-1.2149,1.9052,-0.7701,1764,2019-08-07 16:28:45:278
5.8742,-4.8257,1.4099,1.8787,-1.0206,-0.6016,-1.2149,1.9052,-0.7701,1768,2019-08-07 16:28:45:282
5.9986,-5.1074,0.6887,1.8857,-0.6757,0.1043,-1.2149,1.9052,-0.7701,1774,2019-08-07 16:28:45:288
5.9986,-5.1074,0.6887,1.8857,-0.6757,0.1043,-1.2064,1.4982,-0.6764,1778,2019-08-07 16:28:45:292
6.5248,-5.5323,0.2739,1.8857,-0.6757,0.1043,-1.2053,1.2245,-0.6391,1784,2019-08-07 16:28:45:298
6.5248,-5.5323,0.2739,1.8857,-0.6757,0.1043,-1.2053,1.2245,-0.6391,1789,2019-08-07 16:28:45:303
6.5248,-5.5323,0.2739,1.013,0.0151,0.8721,-1.2053,1.2245,-0.6391,1794,2019-08-07 16:28:45:308
7.142,-5.7948,-0.0372,1.013,0.0151,0.8721,-1.2128,1.1041,-0.6487,1799,2019-08-07 16:28:45:313
7.142,-5.7948,-0.0372,1.013,0.0151,0.8721,-1.2128,1.1041,-0.6487,1804,2019-08-07 16:28:45:318
7.142,-5.7948,-0.0372,1.013,0.0151,0.8721,-1.2128,1.1041,-0.6487,1808,2019-08-07 16:28:45:322
7.142,-5.7948,-0.0372,1.013,0.0151,0.8721,-1.2213,1.2031,-0.6817,1815,2019-08-07 16:28:45:329
7.276,-5.8187,-0.0655,0.7128,0.1969,0.9661,-1.2213,1.2031,-0.6817,1819,2019-08-07 16:28:45:333
7.276,-5.8187,-0.0655,0.7128,0.1969,0.9661,-1.2319,1.527,-0.6828,1824,2019-08-07 16:28:45:338
7.0033,-5.7948,0.3211,0.7128,0.1969,0.9661,-1.2319,1.527,-0.6828,1828,2019-08-07 16:28:45:342
7.0033,-5.7948,0.3211,1.2316,0.1179,0.664,-1.265,1.8167,-0.7222,1833,2019-08-07 16:28:45:347
7.0033,-5.7948,0.3211,1.2316,0.1179,0.664,-1.265,1.8167,-0.7222,1839,2019-08-07 16:28:45:353
6.2713,-5.4225,0.75,1.9876,-0.1145,0.2551,-1.3257,2.0383,-0.7851,1844,2019-08-07 16:28:45:358
6.2713,-5.4225,0.75,1.9876,-0.1145,0.2551,-1.3257,2.0383,-0.7851,1849,2019-08-07 16:28:45:363
6.2713,-5.4225,0.75,1.9876,-0.1145,0.2551,-1.3981,1.9574,-0.8724,1854,2019-08-07 16:28:45:368
4.8504,-5.1217,1.5797,1.9876,-0.1145,0.2551,-1.3981,1.9574,-0.8724,1859,2019-08-07 16:28:45:373
4.8504,-5.1217,1.5797,3.6384,-0.2783,-0.2155,-1.4397,1.5547,-0.8735,1864,2019-08-07 16:28:45:378
4.4294,-5.222,1.4477,3.6384,-0.2783,-0.2155,-1.4397,1.5547,-0.8735,1869,2019-08-07 16:28:45:383
4.4294,-5.222,1.4477,3.6384,-0.2783,-0.2155,-1.4397,1.5547,-0.8735,1874,2019-08-07 16:28:45:388
4.4294,-5.222,1.4477,3.6384,-0.2783,-0.2155,-1.4908,1.0199,-0.8554,1879,2019-08-07 16:28:45:393
5.4197,-5.7519,0.717,2.405,0.5762,0.6665,-1.4908,1.0199,-0.8554,1884,2019-08-07 16:28:45:398
5.4197,-5.7519,0.717,2.405,0.5762,0.6665,-1.5494,0.3765,-0.8468,1889,2019-08-07 16:28:45:403
6.7545,-6.3629,0.2551,2.405,0.5762,0.6665,-1.5494,0.3765,-0.8468,1893,2019-08-07 16:28:45:407
6.7545,-6.3629,0.2551,2.405,0.5762,0.6665,-1.559,0.1389,-0.8383,1900,2019-08-07 16:28:45:414
6.7545,-6.3629,0.2551,-0.5311,2.2313,1.3913,-1.559,0.1389,-0.8383,1904,2019-08-07 16:28:45:418
9.0988,-7.7091,-0.386,-0.5311,2.2313,1.3913,-1.5153,0.1059,-0.8255,1909,2019-08-07 16:28:45:423
9.0988,-7.7091,-0.386,-0.5311,2.2313,1.3913,-1.5153,0.1059,-0.8255,1914,2019-08-07 16:28:45:428
9.0988,-7.7091,-0.386,-1.4963,3.2613,1.7835,-1.4738,0.1848,-0.8159,1918,2019-08-07 16:28:45:432
9.9361,-8.7928,-0.7867,-1.4963,3.2613,1.7835,-1.4738,0.1848,-0.8159,1924,2019-08-07 16:28:45:438
9.9361,-8.7928,-0.7867,-1.4963,3.2613,1.7835,-1.3331,0.5416,-0.7211,1929,2019-08-07 16:28:45:443
9.8643,-9.0554,-0.4096,-1.4569,3.8198,1.1513,-1.3331,0.5416,-0.7211,1934,2019-08-07 16:28:45:448
9.8643,-9.0554,-0.4096,-1.4569,3.8198,1.1513,-1.1233,0.8729,-0.5347,1939,2019-08-07 16:28:45:453
9.8643,-9.0554,-0.4096,-1.4569,3.8198,1.1513,-1.1233,0.8729,-0.5347,1944,2019-08-07 16:28:45:458
9.4098,-8.325,0.3258,-1.0745,3.2537,0.6944,-1.004,0.956,-0.4154,1948,2019-08-07 16:28:45:462
9.4098,-8.325,0.3258,-1.0745,3.2537,0.6944,-1.004,0.956,-0.4154,1954,2019-08-07 16:28:45:468
8.7783,-7.4323,0.7736,-1.0745,3.2537,0.6944,-0.874,0.8186,-0.2311,1959,2019-08-07 16:28:45:473
8.7783,-7.4323,0.7736,-1.0745,3.2537,0.6944,-0.874,0.8186,-0.2311,1963,2019-08-07 16:28:45:477
8.7783,-7.4323,0.7736,0.0448,2.1828,0.3282,-0.874,0.8186,-0.2311,1969,2019-08-07 16:28:45:483
7.9219,-7.0599,0.7218,0.0448,2.1828,0.3282,-0.8335,0.5246,-0.0756,1974,2019-08-07 16:28:45:488
7.9219,-7.0599,0.7218,0.0448,2.1828,0.3282,-0.8335,0.5246,-0.0756,1979,2019-08-07 16:28:45:493
7.9219,-7.0599,0.7218,0.0448,2.1828,0.3282,-0.7803,0.3105,0.0533,1984,2019-08-07 16:28:45:498
8.2616,-7.3607,0.6605,0.0644,2.2817,0.3972,-0.7803,0.3105,0.0533,1989,2019-08-07 16:28:45:503
8.2616,-7.3607,0.6605,0.0644,2.2817,0.3972,-0.6652,0.1848,0.1865,1994,2019-08-07 16:28:45:508
8.6109,-7.7378,0.2174,0.0644,2.2817,0.3972,-0.6652,0.1848,0.1865,1999,2019-08-07 16:28:45:513
8.6109,-7.7378,0.2174,0.0644,2.2817,0.3972,-0.5363,0.2881,0.2482,2004,2019-08-07 16:28:45:518
8.6109,-7.7378,0.2174,-0.2251,2.5818,0.8697,-0.5363,0.2881,0.2482,2008,2019-08-07 16:28:45:522
8.4339,-7.6757,0.1655,-0.2251,2.5818,0.8697,-0.4309,0.418,0.2823,2014,2019-08-07 16:28:45:528
8.4339,-7.6757,0.1655,-0.2251,2.5818,0.8697,-0.4309,0.418,0.2823,2019,2019-08-07 16:28:45:533
7.7162,-7.2986,0.4012,-0.2251,2.5818,0.8697,-0.2785,0.6311,0.3271,2024,2019-08-07 16:28:45:538
7.7162,-7.2986,0.4012,0.7118,2.0288,0.5416,-0.2785,0.6311,0.3271,2029,2019-08-07 16:28:45:543
7.7162,-7.2986,0.4012,0.7118,2.0288,0.5416,-0.1858,0.6822,0.3452,2034,2019-08-07 16:28:45:548
6.9699,-6.8594,0.7736,0.7118,2.0288,0.5416,-0.1858,0.6822,0.3452,2039,2019-08-07 16:28:45:553
6.9699,-6.8594,0.7736,0.7118,2.0288,0.5416,-0.1209,0.6247,0.3484,2044,2019-08-07 16:28:45:558
6.6063,-6.4393,1.0659,1.58,1.1566,0.0798,-0.1209,0.6247,0.3484,2049,2019-08-07 16:28:45:563
6.6063,-6.4393,1.0659,1.58,1.1566,0.0798,-0.0815,0.4692,0.3484,2054,2019-08-07 16:28:45:568
6.6063,-6.4393,1.0659,1.58,1.1566,0.0798,-0.0815,0.4692,0.3484,2059,2019-08-07 16:28:45:573
6.4436,-5.9763,1.311,1.58,1.1566,0.0798,-0.0761,0.2391,0.3345,2064,2019-08-07 16:28:45:578
6.4436,-5.9763,1.311,1.5966,0.5323,-0.0965,-0.0761,0.2391,0.3345,2068,2019-08-07 16:28:45:582
6.4436,-5.9763,1.311,1.5966,0.5323,-0.0965,-0.0761,0.2391,0.3345,2074,2019-08-07 16:28:45:588
6.6924,-5.833,1.2544,1.5966,0.5323,-0.0965,-0.0857,0.0271,0.3186,2079,2019-08-07 16:28:45:593
6.6924,-5.833,1.2544,1.5966,0.5323,-0.0965,-0.0857,0.0271,0.3186,2084,2019-08-07 16:28:45:598
7.0273,-5.9285,0.9716,1.1491,0.4931,0.1745,-0.0804,-0.1785,0.3132,2089,2019-08-07 16:28:45:603
7.0273,-5.9285,0.9716,1.1491,0.4931,0.1745,-0.0804,-0.1785,0.3132,2094,2019-08-07 16:28:45:608
7.0273,-5.9285,0.9716,0.6205,0.6162,0.3178,-0.0495,-0.2339,0.3036,2099,2019-08-07 16:28:45:613
7.6014,-6.1433,0.7878,0.6205,0.6162,0.3178,-0.0495,-0.2339,0.3036,2104,2019-08-07 16:28:45:618
7.6014,-6.1433,0.7878,0.6205,0.6162,0.3178,-0.0143,-0.2414,0.2759,2109,2019-08-07 16:28:45:623
7.7163,-6.0479,0.6086,0.6205,0.6162,0.3178,-0.0143,-0.2414,0.2759,2114,2019-08-07 16:28:45:628
7.7163,-6.0479,0.6086,0.3193,0.5651,0.5193,0.0304,-0.1647,0.2429,2119,2019-08-07 16:28:45:633
7.7163,-6.0479,0.6086,0.3193,0.5651,0.5193,0.0304,-0.1647,0.2429,2124,2019-08-07 16:28:45:638
7.8311,-6.0861,0.6322,0.3193,0.5651,0.5193,0.057,-0.1018,0.2152,2129,2019-08-07 16:28:45:643
7.8311,-6.0861,0.6322,0.3193,0.5651,0.5193,0.057,-0.1018,0.2152,2134,2019-08-07 16:28:45:648
8.0269,-5.8521,0.7783,-0.0051,0.3176,0.3423,0.057,-0.1018,0.2152,2138,2019-08-07 16:28:45:652
8.0269,-5.8521,0.7783,-0.0051,0.3176,0.3423,0.0922,-0.0443,0.1492,2144,2019-08-07 16:28:45:658
8.0269,-5.8521,0.7783,-0.0051,0.3176,0.3423,0.0922,-0.0443,0.1492,2149,2019-08-07 16:28:45:663
8.247,-5.3843,0.8961,-0.0051,0.3176,0.3423,0.1071,-0.0176,0.1236,2154,2019-08-07 16:28:45:668
8.247,-5.3843,0.8961,-0.3581,-0.3548,0.1208,0.0996,-0.0208,0.1162,2159,2019-08-07 16:28:45:673
8.3044,-5.1599,0.9998,-0.3581,-0.3548,0.1208,0.0996,-0.0208,0.1162,2164,2019-08-07 16:28:45:678
8.3044,-5.1599,0.9998,-0.3581,-0.3548,0.1208,0.0996,-0.0208,0.1162,2169,2019-08-07 16:28:45:683
8.3044,-5.1599,0.9998,-0.3581,-0.3548,0.1208,0.0549,-0.1061,0.1321,2174,2019-08-07 16:28:45:688
8.18,-5.0597,1.1224,-0.1722,-0.4655,-0.0561,0.0549,-0.1061,0.1321,2179,2019-08-07 16:28:45:693
8.18,-5.0597,1.1224,-0.1722,-0.4655,-0.0561,0.0176,-0.2094,0.1577,2184,2019-08-07 16:28:45:698
8.1944,-5.1408,1.523,-0.1722,-0.4655,-0.0561,0.0176,-0.2094,0.1577,2189,2019-08-07 16:28:45:703
8.1944,-5.1408,1.523,-0.1722,-0.4655,-0.0561,-0.0197,-0.333,0.1715,2194,2019-08-07 16:28:45:708
8.1944,-5.1408,1.523,-0.3169,-0.4263,-0.5374,-0.0197,-0.333,0.1715,2199,2019-08-07 16:28:45:713
8.4671,-5.1217,1.5985,-0.3169,-0.4263,-0.5374,-0.0197,-0.333,0.1715,2203,2019-08-07 16:28:45:717
8.4671,-5.1217,1.5985,-0.3169,-0.4263,-0.5374,-0.0633,-0.4608,0.1598,2209,2019-08-07 16:28:45:723
8.4671,-5.1217,1.5985,-0.3169,-0.4263,-0.5374,-0.0633,-0.4608,0.1598,2214,2019-08-07 16:28:45:728
8.735,-5.1838,1.1365,-0.7728,-0.4115,-0.054,-0.0953,-0.4395,0.1641,2219,2019-08-07 16:28:45:733
8.735,-5.1838,1.1365,-0.7728,-0.4115,-0.054,-0.0953,-0.4395,0.1641,2223,2019-08-07 16:28:45:737
8.9742,-5.5323,0.8207,-0.7728,-0.4115,-0.054,-0.1006,-0.3479,0.1737,2229,2019-08-07 16:28:45:743
8.9742,-5.5323,0.8207,-0.7728,-0.4115,-0.054,-0.1006,-0.3479,0.1737,2234,2019-08-07 16:28:45:748
8.9742,-5.5323,0.8207,-0.6882,0.0836,0.0274,-0.0783,-0.0901,0.1481,2239,2019-08-07 16:28:45:753
8.491,-5.6612,0.9668,-0.6882,0.0836,0.0274,-0.0783,-0.0901,0.1481,2244,2019-08-07 16:28:45:758
8.491,-5.6612,0.9668,-0.6882,0.0836,0.0274,-0.0388,0.0804,0.113,2249,2019-08-07 16:28:45:763
8.491,-5.6612,0.9668,-0.6882,0.0836,0.0274,-0.0388,0.0804,0.113,2254,2019-08-07 16:28:45:768
7.5294,-5.6182,1.3109,0.4407,-0.1023,-0.3922,-0.0388,0.0804,0.113,2259,2019-08-07 16:28:45:773
7.5294,-5.6182,1.3109,0.4407,-0.1023,-0.3922,-0.0048,0.1059,0.0842,2265,2019-08-07 16:28:45:779
7.3524,-5.537,1.4146,0.4407,-0.1023,-0.3922,-0.0048,0.1059,0.0842,2269,2019-08-07 16:28:45:783
7.3524,-5.537,1.4146,0.4407,-0.1023,-0.3922,-0.0048,0.1059,0.0842,2274,2019-08-07 16:28:45:788
7.3524,-5.537,1.4146,0.5591,-0.1253,-0.5565,-0.0143,-0.0251,0.0629,2279,2019-08-07 16:28:45:793
7.4528,-5.5418,1.5278,0.5591,-0.1253,-0.5565,-0.0143,-0.0251,0.0629,2284,2019-08-07 16:28:45:798
7.4528,-5.5418,1.5278,0.5591,-0.1253,-0.5565,-0.0229,-0.2094,0.065,2289,2019-08-07 16:28:45:803
7.4528,-5.5418,1.5278,0.5591,-0.1253,-0.5565,-0.0229,-0.2094,0.065,2294,2019-08-07 16:28:45:808
7.6538,-5.6564,1.3345,0.5591,-0.1253,-0.5565,-0.0239,-0.2914,0.065,2299,2019-08-07 16:28:45:813
7.6538,-5.6564,1.3345,0.306,-0.0319,-0.4386,-0.0239,-0.2914,0.065,2303,2019-08-07 16:28:45:817
7.7829,-5.7089,1.3534,0.306,-0.0319,-0.4386,-0.0335,-0.3969,0.0714,2309,2019-08-07 16:28:45:823
7.7829,-5.7089,1.3534,0.306,-0.0319,-0.4386,-0.0335,-0.3969,0.0714,2314,2019-08-07 16:28:45:828
7.7829,-5.7089,1.3534,0.2087,0.1319,-0.2416,-0.0335,-0.5141,0.0789,2319,2019-08-07 16:28:45:833
7.8117,-5.9046,0.9857,0.2087,0.1319,-0.2416,-0.0367,-0.5141,0.0789,2324,2019-08-07 16:28:45:838
7.8117,-5.9046,0.9857,0.2087,0.1319,-0.2416,-0.0367,-0.5141,0.0789,2329,2019-08-07 16:28:45:843
7.8117,-5.9046,0.9857,0.2087,0.1319,-0.2416,-0.0261,-0.5045,0.0757,2334,2019-08-07 16:28:45:848
8.3618,-6.1385,0.6133,0.2087,0.1319,-0.2416,-0.0261,-0.5045,0.0757,2339,2019-08-07 16:28:45:853
8.3618,-6.1385,0.6133,-0.6245,0.4432,0.2827,-0.0154,-0.3916,0.0437,2344,2019-08-07 16:28:45:858
8.7063,-6.172,0.3964,-0.6245,0.4432,0.2827,-0.0154,-0.3916,0.0437,2349,2019-08-07 16:28:45:863
8.7063,-6.172,0.3964,-0.6245,0.4432,0.2827,0.0261,-0.1295,-0.0021,2354,2019-08-07 16:28:45:868
8.7254,-6.1433,0.4766,-0.6245,0.4432,0.2827,0.0261,-0.1295,-0.0021,2359,2019-08-07 16:28:45:873
8.7254,-6.1433,0.4766,-0.7798,0.423,0.2849,0.0261,-0.1295,-0.0021,2364,2019-08-07 16:28:45:878
8.7254,-6.1433,0.4766,-0.7798,0.423,0.2849,0.0719,0.0676,-0.0372,2369,2019-08-07 16:28:45:883
8.7254,-6.1433,0.4766,-0.7798,0.423,0.2849,0.0719,0.0676,-0.0372,2374,2019-08-07 16:28:45:888
8.448,-5.8378,0.618,-0.7798,0.423,0.2849,0.1135,0.1762,-0.0479,2379,2019-08-07 16:28:45:893
8.448,-5.8378,0.618,-0.4507,-0.0116,0.0568,0.1135,0.1762,-0.0479,2384,2019-08-07 16:28:45:898
8.2805,-5.4893,0.783,-0.4507,-0.0116,0.0568,0.1295,0.1752,-0.0234,2388,2019-08-07 16:28:45:902
8.2805,-5.4893,0.783,-0.2918,-0.2647,-4.0E-4,0.1295,0.1752,-0.0234,2394,2019-08-07 16:28:45:908
8.2805,-5.4893,0.783,-0.2918,-0.2647,-4.0E-4,0.106,0.0782,0.0032,2399,2019-08-07 16:28:45:913
8.1274,-5.3413,0.8537,-0.2918,-0.2647,-4.0E-4,0.106,0.0782,0.0032,2404,2019-08-07 16:28:45:918
8.1274,-5.3413,0.8537,-0.2918,-0.2647,-4.0E-4,0.0698,-0.039,0.0384,2409,2019-08-07 16:28:45:923
8.2279,-5.3461,1.0422,-0.2442,-0.3239,-0.1808,0.0698,-0.039,0.0384,2414,2019-08-07 16:28:45:928
8.2279,-5.3461,1.0422,-0.2442,-0.3239,-0.1808,0.0698,-0.039,0.0384,2419,2019-08-07 16:28:45:933
8.2279,-5.3461,1.0422,-0.2442,-0.3239,-0.1808,0.0219,-0.2115,0.0757,2424,2019-08-07 16:28:45:938
8.4671,-5.4798,0.8395,-0.2442,-0.3239,-0.1808,0.0219,-0.2115,0.0757,2429,2019-08-07 16:28:45:943
8.4671,-5.4798,0.8395,-0.8358,-0.0885,0.1232,0.0027,-0.2456,0.0959,2434,2019-08-07 16:28:45:948
8.8929,-5.6564,0.585,-0.8358,-0.0885,0.1232,0.0027,-0.2456,0.0959,2439,2019-08-07 16:28:45:953
8.8929,-5.6564,0.585,-0.8358,-0.0885,0.1232,6.0E-4,-0.1593,0.0948,2444,2019-08-07 16:28:45:958
8.7063,-5.7184,0.552,-0.8358,-0.0885,0.1232,6.0E-4,-0.1593,0.0948,2449,2019-08-07 16:28:45:963
8.7063,-5.7184,0.552,-0.6936,0.0088,0.2032,0.0016,0.01,0.097,2454,2019-08-07 16:28:45:968
8.7063,-5.7184,0.552,-0.6936,0.0088,0.2032,0.0016,0.01,0.097,2459,2019-08-07 16:28:45:973
8.3475,-5.8855,0.4483,-0.6936,0.0088,0.2032,0.0091,0.1389,0.0853,2464,2019-08-07 16:28:45:978
8.3475,-5.8855,0.4483,-0.6936,0.0088,0.2032,0.0091,0.1389,0.0853,2469,2019-08-07 16:28:45:983
8.3475,-5.8855,0.4483,-0.0302,0.1716,0.2345,0.0091,0.1389,0.0853,2474,2019-08-07 16:28:45:988
7.8595,-5.8426,0.6321,-0.0302,0.1716,0.2345,0.024,0.1975,0.065,2479,2019-08-07 16:28:45:993
7.8595,-5.8426,0.6321,-0.0302,0.1716,0.2345,0.024,0.1975,0.065,2484,2019-08-07 16:28:45:998
7.5533,-5.6803,1.0045,-0.0302,0.1716,0.2345,0.0506,0.1826,0.0533,2489,2019-08-07 16:28:46:003
7.5533,-5.6803,1.0045,0.3275,-0.1628,-0.1739,0.0506,0.1826,0.0533,2494,2019-08-07 16:28:46:008
7.5533,-5.6803,1.0045,0.3275,-0.1628,-0.1739,0.0656,0.0612,0.048,2498,2019-08-07 16:28:46:012
7.783,-5.3127,0.849,0.3275,-0.1628,-0.1739,0.0656,0.0612,0.048,2504,2019-08-07 16:28:46:018
7.783,-5.3127,0.849,0.3275,-0.1628,-0.1739,0.0464,-0.1199,0.0576,2509,2019-08-07 16:28:46:023
8.3236,-5.2554,0.7547,-0.3653,-0.4783,0.1012,0.0464,-0.1199,0.0576,2514,2019-08-07 16:28:46:028
8.3236,-5.2554,0.7547,-0.3653,-0.4783,0.1012,0.007,-0.2211,0.0629,2519,2019-08-07 16:28:46:033
8.3236,-5.2554,0.7547,-0.3653,-0.4783,0.1012,0.007,-0.2211,0.0629,2524,2019-08-07 16:28:46:038
8.5819,-5.3747,0.6887,-0.3653,-0.4783,0.1012,0.007,-0.2211,0.0629,2529,2019-08-07 16:28:46:043
8.5819,-5.3747,0.6887,-0.7636,-0.3034,0.1643,-0.0079,-0.2541,0.0853,2534,2019-08-07 16:28:46:048
8.5819,-5.3747,0.6887,-0.7636,-0.3034,0.1643,-0.0079,-0.2541,0.0853,2539,2019-08-07 16:28:46:053
8.6872,-5.6277,0.6086,-0.7636,-0.3034,0.1643,0.0144,-0.2147,0.114,2544,2019-08-07 16:28:46:058
8.6872,-5.6277,0.6086,-0.7636,-0.3034,0.1643,0.0144,-0.2147,0.114,2550,2019-08-07 16:28:46:064
8.5772,-5.8139,0.6321,-0.6756,0.0493,0.1228,0.056,-0.1231,0.1225,2553,2019-08-07 16:28:46:067
8.5772,-5.8139,0.6321,-0.6756,0.0493,0.1228,0.056,-0.1231,0.1225,2559,2019-08-07 16:28:46:073
8.5772,-5.8139,0.6321,-0.6756,0.0493,0.1228,0.0815,-0.0613,0.1087,2564,2019-08-07 16:28:46:078
8.0987,-5.8091,0.6416,-0.6756,0.0493,0.1228,0.0815,-0.0613,0.1087,2569,2019-08-07 16:28:46:083
8.0987,-5.8091,0.6416,-0.6756,0.0493,0.1228,0.0815,-0.0613,0.1087,2574,2019-08-07 16:28:46:088
7.7447,-5.771,0.7971,0.0166,-0.0475,0.0206,0.0964,-0.0294,0.0927,2580,2019-08-07 16:28:46:094
7.7447,-5.771,0.7971,0.0166,-0.0475,0.0206,0.0964,-0.0294,0.0927,2583,2019-08-07 16:28:46:097
7.7447,-5.771,0.7971,0.0166,-0.0475,0.0206,0.0975,-0.0539,0.0554,2589,2019-08-07 16:28:46:103
7.5773,-5.6468,0.9668,0.3344,-0.1574,-0.2524,0.0975,-0.0539,0.0554,2594,2019-08-07 16:28:46:108
7.5773,-5.6468,0.9668,0.3344,-0.1574,-0.2524,0.0954,-0.1093,0.0171,2599,2019-08-07 16:28:46:113
7.649,-5.4798,1.0517,0.3344,-0.1574,-0.2524,0.0954,-0.1093,0.0171,2604,2019-08-07 16:28:46:118
7.649,-5.4798,1.0517,0.3344,-0.1574,-0.2524,0.0805,-0.1881,-0.0095,2609,2019-08-07 16:28:46:123
7.649,-5.4798,1.0517,-0.0604,-0.3513,-0.1172,0.0805,-0.1881,-0.0095,2614,2019-08-07 16:28:46:128
8.0605,-5.4416,0.8207,-0.0604,-0.3513,-0.1172,0.0805,-0.1881,-0.0095,2619,2019-08-07 16:28:46:133
8.0605,-5.4416,0.8207,-0.0604,-0.3513,-0.1172,0.0549,-0.2094,-0.033,2624,2019-08-07 16:28:46:138
8.0605,-5.4416,0.8207,-0.0604,-0.3513,-0.1172,0.0549,-0.2094,-0.033,2629,2019-08-07 16:28:46:143
8.4863,-5.3222,0.7076,-0.6825,-0.3704,0.0834,0.0347,-0.1774,-0.0362,2634,2019-08-07 16:28:46:148
8.4863,-5.3222,0.7076,-0.6825,-0.3704,0.0834,0.0347,-0.1774,-0.0362,2639,2019-08-07 16:28:46:153
8.6968,-5.4177,0.6227,-0.6825,-0.3704,0.0834,0.0187,-0.0635,-0.0277,2644,2019-08-07 16:28:46:158
8.6968,-5.4177,0.6227,-0.6825,-0.3704,0.0834,0.0187,-0.0635,-0.0277,2650,2019-08-07 16:28:46:164
8.6155,-5.6134,0.5944,-0.7137,-0.1562,0.1196,0.0187,-0.0635,-0.0277,2653,2019-08-07 16:28:46:167
8.6155,-5.6134,0.5944,-0.7137,-0.1562,0.1196,0.0336,0.0654,-0.0202,2659,2019-08-07 16:28:46:173
8.6155,-5.6134,0.5944,-0.7137,-0.1562,0.1196,0.0496,0.1144,-0.0234,2665,2019-08-07 16:28:46:179
7.9504,-5.6946,0.6981,-0.7137,-0.1562,0.1196,0.0496,0.1144,-0.0234,2669,2019-08-07 16:28:46:183
7.9504,-5.6946,0.6981,-0.7137,-0.1562,0.1196,0.0496,0.1144,-0.0234,2674,2019-08-07 16:28:46:188
7.9504,-5.6946,0.6981,0.1544,-0.0455,-0.0334,0.0634,0.0899,-0.0255,2679,2019-08-07 16:28:46:193
7.6251,-5.7184,0.7594,0.1544,-0.0455,-0.0334,0.0634,0.0899,-0.0255,2684,2019-08-07 16:28:46:198
7.6251,-5.7184,0.7594,0.404,-0.0241,-0.0993,0.0645,0.0228,-0.0383,2689,2019-08-07 16:28:46:203
7.4433,-5.7614,0.9574,0.404,-0.0241,-0.0993,0.0645,0.0228,-0.0383,2693,2019-08-07 16:28:46:207
7.4433,-5.7614,0.9574,0.404,-0.0241,-0.0993,0.0645,0.0228,-0.0383,2699,2019-08-07 16:28:46:213
7.4433,-5.7614,0.9574,0.404,-0.0241,-0.0993,0.0624,-0.1274,-0.066,2704,2019-08-07 16:28:46:218
7.472,-5.685,0.7736,0.4388,-0.0684,-0.0298,0.0624,-0.1274,-0.066,2709,2019-08-07 16:28:46:223
7.472,-5.685,0.7736,0.4388,-0.0684,-0.0298,0.0581,-0.1849,-0.098,2714,2019-08-07 16:28:46:228
7.7256,-5.4702,0.8301,0.4388,-0.0684,-0.0298,0.0581,-0.1849,-0.098,2719,2019-08-07 16:28:46:233
7.7256,-5.4702,0.8301,0.4388,-0.0684,-0.0298,0.0453,-0.219,-0.1193,2724,2019-08-07 16:28:46:238
7.7256,-5.4702,0.8301,0.0907,-0.3366,-0.0261,0.0453,-0.219,-0.1193,2729,2019-08-07 16:28:46:243
7.9361,-5.327,0.7029,0.0907,-0.3366,-0.0261,0.0176,-0.2105,-0.1352,2734,2019-08-07 16:28:46:248
7.9361,-5.327,0.7029,0.0907,-0.3366,-0.0261,0.0176,-0.2105,-0.1352,2738,2019-08-07 16:28:46:252
8.2901,-5.3174,0.651,0.0907,-0.3366,-0.0261,-0.0154,-0.1987,-0.1555,2744,2019-08-07 16:28:46:258
8.2901,-5.3174,0.651,-0.3808,-0.3778,0.1111,-0.0154,-0.1987,-0.1555,2749,2019-08-07 16:28:46:263
8.2901,-5.3174,0.651,-0.3808,-0.3778,0.1111,-0.0612,-0.137,-0.1715,2754,2019-08-07 16:28:46:268
8.5772,-5.432,0.4577,-0.3808,-0.3778,0.1111,-0.0612,-0.137,-0.1715,2759,2019-08-07 16:28:46:273
8.5772,-5.432,0.4577,-0.3808,-0.3778,0.1111,-0.0868,-0.0688,-0.1736,2764,2019-08-07 16:28:46:278
8.5294,-5.7805,0.5284,-0.5814,-0.0038,0.2416,-0.0868,-0.0688,-0.1736,2768,2019-08-07 16:28:46:282
8.5294,-5.7805,0.5284,-0.5814,-0.0038,0.2416,-0.0868,-0.0688,-0.1736,2774,2019-08-07 16:28:46:288
8.5294,-5.7805,0.5284,-0.5814,-0.0038,0.2416,-0.0815,-0.0326,-0.1534,2779,2019-08-07 16:28:46:293
8.4432,-6.0431,0.5426,-0.5814,-0.0038,0.2416,-0.0815,-0.0326,-0.1534,2784,2019-08-07 16:28:46:298
8.4432,-6.0431,0.5426,-0.3816,0.4589,0.0409,-0.0474,-0.0592,-0.1321,2789,2019-08-07 16:28:46:303
8.3476,-6.1194,0.5897,-0.3816,0.4589,0.0409,-0.0474,-0.0592,-0.1321,2794,2019-08-07 16:28:46:308
8.3476,-6.1194,0.5897,-0.374,0.4207,0.0452,-0.0335,-0.1199,-0.1246,2799,2019-08-07 16:28:46:313
8.4002,-5.9858,0.5426,-0.374,0.4207,0.0452,-0.0335,-0.1199,-0.1246,2804,2019-08-07 16:28:46:318
8.4002,-5.9858,0.5426,-0.374,0.4207,0.0452,-0.0175,-0.2254,-0.0948,2809,2019-08-07 16:28:46:323
8.4002,-5.9858,0.5426,-0.374,0.4207,0.0452,-0.0175,-0.2254,-0.0948,2815,2019-08-07 16:28:46:329
8.5198,-6.0669,0.5756,-0.5088,0.4359,0.0172,0.007,-0.2957,-0.0532,2819,2019-08-07 16:28:46:333
8.5198,-6.0669,0.5756,-0.5088,0.4359,0.0172,0.007,-0.2957,-0.0532,2824,2019-08-07 16:28:46:338
8.5246,-6.086,0.6416,-0.5092,0.4589,-0.0723,0.007,-0.2957,-0.0532,2829,2019-08-07 16:28:46:343
8.5246,-6.086,0.6416,-0.5092,0.4589,-0.0723,0.0389,-0.3053,-0.0191,2833,2019-08-07 16:28:46:347
8.5246,-6.086,0.6416,-0.5092,0.4589,-0.0723,0.0389,-0.3053,-0.0191,2839,2019-08-07 16:28:46:353
8.5389,-5.9858,0.6227,-0.5092,0.4589,-0.0723,0.0613,-0.2722,0.0064,2844,2019-08-07 16:28:46:358
8.5389,-5.9858,0.6227,-0.5295,0.2309,-0.0839,0.0613,-0.2722,0.0064,2849,2019-08-07 16:28:46:363
8.5676,-5.7805,0.684,-0.5295,0.2309,-0.0839,0.0602,-0.2041,0.0288,2854,2019-08-07 16:28:46:368
8.5676,-5.7805,0.684,-0.52,0.115,-0.2243,0.0602,-0.2041,0.0288,2859,2019-08-07 16:28:46:373
8.5676,-5.7805,0.684,-0.52,0.115,-0.2243,0.056,-0.1167,0.0309,2864,2019-08-07 16:28:46:378
8.3906,-5.6373,0.6604,-0.52,0.115,-0.2243,0.056,-0.1167,0.0309,2869,2019-08-07 16:28:46:383
8.3906,-5.6373,0.6604,-0.52,0.115,-0.2243,0.056,-0.1167,0.0309,2874,2019-08-07 16:28:46:388
8.1658,-5.5609,0.6746,-0.1489,-0.0699,-0.1643,0.0506,-0.0198,0.0341,2878,2019-08-07 16:28:46:392
8.1658,-5.5609,0.6746,-0.1489,-0.0699,-0.1643,0.0592,0.0654,0.0586,2885,2019-08-07 16:28:46:399
8.1658,-5.5609,0.6746,-0.1489,-0.0699,-0.1643,0.0592,0.0654,0.0586,2889,2019-08-07 16:28:46:403
7.9648,-5.6325,0.7924,-0.1489,-0.0699,-0.1643,0.0592,0.0654,0.0586,2894,2019-08-07 16:28:46:408
7.9648,-5.6325,0.7924,0.1788,-0.0308,-0.316,0.0687,0.0548,0.0661,2899,2019-08-07 16:28:46:413
7.9648,-5.6325,0.7924,0.1788,-0.0308,-0.316,0.0687,0.0548,0.0661,2903,2019-08-07 16:28:46:417
7.7974,-5.58,0.783,0.1788,-0.0308,-0.316,0.0869,-0.0091,0.0693,2909,2019-08-07 16:28:46:423
7.7974,-5.58,0.783,0.1788,-0.0308,-0.316,0.0869,-0.0091,0.0693,2914,2019-08-07 16:28:46:428
8.0988,-5.4225,0.6322,-0.0968,-0.2269,-0.095,0.0869,-0.0677,0.0778,2919,2019-08-07 16:28:46:433
8.0988,-5.4225,0.6322,-0.0968,-0.2269,-0.095,0.0869,-0.0677,0.0778,2923,2019-08-07 16:28:46:437
8.0988,-5.4225,0.6322,-0.0968,-0.2269,-0.095,0.0869,-0.1061,0.0778,2929,2019-08-07 16:28:46:443
8.4289,-5.4225,0.5285,-0.0968,-0.2269,-0.095,0.0869,-0.1061,0.0778,2934,2019-08-07 16:28:46:448
8.4289,-5.4225,0.5285,-0.4374,-0.2595,0.0542,0.0815,-0.0933,0.0693,2938,2019-08-07 16:28:46:452
8.4528,-5.4225,0.486,-0.4374,-0.2595,0.0542,0.0815,-0.0933,0.0693,2944,2019-08-07 16:28:46:458
8.4528,-5.4225,0.486,-0.4374,-0.2595,0.0542,0.0698,-0.0635,0.0682,2950,2019-08-07 16:28:46:464
8.4528,-5.4225,0.486,-0.4374,-0.2595,0.0542,0.0698,-0.0635,0.0682,2953,2019-08-07 16:28:46:467
8.4385,-5.4845,0.453,-0.4374,-0.2595,0.0542,0.0624,-0.0176,0.0576,2959,2019-08-07 16:28:46:473
8.4385,-5.4845,0.453,-0.4997,-0.1854,0.0853,0.0624,-0.0176,0.0576,2964,2019-08-07 16:28:46:478
8.4385,-5.4845,0.453,-0.4997,-0.1854,0.0853,0.0474,0.0463,0.0395,2969,2019-08-07 16:28:46:483
8.4911,-5.5848,0.3352,-0.4997,-0.1854,0.0853,0.0474,0.0463,0.0395,2973,2019-08-07 16:28:46:487
8.4911,-5.5848,0.3352,-0.4997,-0.1854,0.0853,0.0474,0.0463,0.0395,2979,2019-08-07 16:28:46:493
8.3811,-5.4989,0.4625,-0.46,-0.084,0.0586,0.0442,0.0953,0.016,2984,2019-08-07 16:28:46:498
8.3811,-5.4989,0.4625,-0.46,-0.084,0.0586,0.0442,0.0953,0.016,2989,2019-08-07 16:28:46:503
8.3811,-5.4989,0.4625,-0.46,-0.084,0.0586,0.0347,0.1198,0.0,2994,2019-08-07 16:28:46:508
8.2806,-5.3509,0.5096,-0.3019,-0.3251,0.0473,0.0347,0.1198,0.0,3000,2019-08-07 16:28:46:514
8.2806,-5.3509,0.5096,-0.3019,-0.3251,0.0473,0.0208,0.0899,0.0011,3004,2019-08-07 16:28:46:518
8.2567,-5.2793,0.5237,-0.3019,-0.3251,0.0473,0.0208,0.0899,0.0011,3009,2019-08-07 16:28:46:523
8.2567,-5.2793,0.5237,-0.3019,-0.3251,0.0473,0.0208,0.0899,0.0011,3013,2019-08-07 16:28:46:527
8.2567,-5.2793,0.5237,-0.3111,-0.4717,-0.0475,-0.0016,0.0282,0.0182,3019,2019-08-07 16:28:46:533
8.3524,-5.2458,0.5944,-0.3111,-0.4717,-0.0475,-0.0016,0.0282,0.0182,3024,2019-08-07 16:28:46:538
8.3524,-5.2458,0.5944,-0.3111,-0.4717,-0.0475,-0.0016,0.0282,0.0182,3028,2019-08-07 16:28:46:542
8.6155,-5.3461,0.4059,-0.3111,-0.4717,-0.0475,-0.041,-0.1146,0.0597,3034,2019-08-07 16:28:46:548
8.6155,-5.3461,0.4059,-0.3111,-0.4717,-0.0475,-0.041,-0.1146,0.0597,3039,2019-08-07 16:28:46:553
8.6155,-5.3461,0.4059,-0.6914,-0.2861,0.087,-0.0665,-0.1423,0.0661,3044,2019-08-07 16:28:46:558
8.6777,-5.432,0.4012,-0.6914,-0.2861,0.087,-0.0665,-0.1423,0.0661,3049,2019-08-07 16:28:46:563
8.6777,-5.432,0.4012,-0.6914,-0.2861,0.087,-0.0836,-0.1071,0.0725,3054,2019-08-07 16:28:46:568
8.6777,-5.432,0.4012,-0.5662,-0.156,0.0814,-0.0836,-0.1071,0.0725,3059,2019-08-07 16:28:46:573
8.5485,-5.5227,0.4389,-0.5662,-0.156,0.0814,-0.0836,-0.0443,0.0778,3064,2019-08-07 16:28:46:578
8.5485,-5.5227,0.4389,-0.5662,-0.156,0.0814,-0.0836,-0.0443,0.0778,3069,2019-08-07 16:28:46:583
8.4146,-5.5657,0.5049,-0.5662,-0.156,0.0814,-0.0878,0.0132,0.0661,3074,2019-08-07 16:28:46:588
8.4146,-5.5657,0.5049,-0.5662,-0.156,0.0814,-0.0878,0.0132,0.0661,3079,2019-08-07 16:28:46:593
8.4146,-5.5657,0.5049,-0.2998,-0.1897,-0.0385,-0.0878,0.0591,0.0469,3083,2019-08-07 16:28:46:597
8.2328,-5.4893,0.5473,-0.2998,-0.1897,-0.0385,-0.0878,0.0591,0.0469,3089,2019-08-07 16:28:46:603
8.2328,-5.4893,0.5473,-0.2998,-0.1897,-0.0385,-0.0878,0.0591,0.0469,3093,2019-08-07 16:28:46:607
8.0988,-5.4798,0.5473,-0.2998,-0.1897,-0.0385,-0.0878,0.0985,0.0256,3099,2019-08-07 16:28:46:613
8.0988,-5.4798,0.5473,-0.1025,-0.2183,-0.0207,-0.0878,0.0985,0.0256,3103,2019-08-07 16:28:46:617
8.0988,-5.4798,0.5473,-0.1025,-0.2183,-0.0207,-0.0825,0.1155,0.016,3109,2019-08-07 16:28:46:623
7.9983,-5.3986,0.6369,-0.1025,-0.2183,-0.0207,-0.0825,0.1155,0.016,3114,2019-08-07 16:28:46:628
7.9983,-5.3986,0.6369,-0.1025,-0.2183,-0.0207,-0.0836,0.1027,0.0182,3118,2019-08-07 16:28:46:632
7.7448,-5.4798,0.6793,0.1917,-0.2162,-0.1908,-0.0836,0.1027,0.0182,3124,2019-08-07 16:28:46:638
7.7448,-5.4798,0.6793,0.1917,-0.2162,-0.1908,-0.0836,0.0505,0.0267,3129,2019-08-07 16:28:46:643
7.7448,-5.4798,0.6793,0.1917,-0.2162,-0.1908,-0.0836,0.0505,0.0267,3134,2019-08-07 16:28:46:648
7.8448,-5.7423,0.5991,0.1917,-0.2162,-0.1908,-0.0857,-0.0272,0.0203,3139,2019-08-07 16:28:46:653
7.8448,-5.7423,0.5991,-0.0216,0.0317,-0.031,-0.0857,-0.0272,0.0203,3144,2019-08-07 16:28:46:658
8.1366,-5.8187,0.5001,-0.0216,0.0317,-0.031,-0.0921,-0.0752,0.0043,3149,2019-08-07 16:28:46:663
8.1366,-5.8187,0.5001,-0.0216,0.0317,-0.031,-0.0921,-0.0752,0.0043,3154,2019-08-07 16:28:46:668
8.1366,-5.8187,0.5001,-0.0216,0.0317,-0.031,-0.0878,-0.0762,-0.0032,3159,2019-08-07 16:28:46:673
8.3328,-5.8616,0.3587,-0.3655,0.1595,0.1349,-0.0878,-0.0762,-0.0032,3164,2019-08-07 16:28:46:678
8.3328,-5.8616,0.3587,-0.3655,0.1595,0.1349,-0.0623,-0.0421,0.0054,3169,2019-08-07 16:28:46:683
8.328,-6.0764,0.3115,-0.3655,0.1595,0.1349,-0.0623,-0.0421,0.0054,3175,2019-08-07 16:28:46:689
8.328,-6.0764,0.3115,-0.3655,0.1595,0.1349,-0.0463,0.0079,-0.001,3179,2019-08-07 16:28:46:693
8.328,-6.0764,0.3115,-0.337,0.4349,0.1635,-0.0463,0.0079,-0.001,3183,2019-08-07 16:28:46:697
8.2323,-6.1194,0.3822,-0.337,0.4349,0.1635,-0.0463,0.0079,-0.001,3189,2019-08-07 16:28:46:703
8.2323,-6.1194,0.3822,-0.337,0.4349,0.1635,-0.0282,0.042,-0.0053,3194,2019-08-07 16:28:46:708
8.2275,-6.1051,0.3822,-0.337,0.4349,0.1635,-0.0282,0.042,-0.0053,3199,2019-08-07 16:28:46:713
8.2275,-6.1051,0.3822,-0.2558,0.3919,0.0668,-0.0229,0.0527,-0.0234,3204,2019-08-07 16:28:46:718
8.2275,-6.1051,0.3822,-0.2558,0.3919,0.0668,-0.0229,0.0527,-0.0234,3209,2019-08-07 16:28:46:723
8.1749,-5.9762,0.4765,-0.2558,0.3919,0.0668,-0.0239,0.0591,-0.034,3214,2019-08-07 16:28:46:728
8.1749,-5.9762,0.4765,-0.2558,0.3919,0.0668,-0.0239,0.0591,-0.034,3219,2019-08-07 16:28:46:733
8.2036,-5.8139,0.4435,-0.2338,0.1148,0.0446,-0.0303,0.0505,-0.0372,3224,2019-08-07 16:28:46:738
8.2036,-5.8139,0.4435,-0.2338,0.1148,0.0446,-0.0303,0.0505,-0.0372,3229,2019-08-07 16:28:46:743
8.2036,-5.8139,0.4435,-0.2338,0.1148,0.0446,-0.0474,0.0175,-0.0404,3234,2019-08-07 16:28:46:748
7.9835,-5.8234,0.4765,-0.2338,0.1148,0.0446,-0.0474,0.0175,-0.0404,3239,2019-08-07 16:28:46:753
7.9835,-5.8234,0.4765,0.0714,0.1392,0.0064,-0.0474,0.0175,-0.0404,3243,2019-08-07 16:28:46:757
7.9835,-5.8234,0.4765,0.0714,0.1392,0.0064,-0.0538,-0.0336,-0.0245,3249,2019-08-07 16:28:46:763
7.9835,-5.7852,0.5048,0.0714,0.1392,0.0064,-0.0538,-0.0336,-0.0245,3253,2019-08-07 16:28:46:767
7.9835,-5.7852,0.5048,0.0714,0.1392,0.0064,-0.0633,-0.072,-0.0064,3259,2019-08-07 16:28:46:773
8.0983,-5.7136,0.5849,-0.1226,0.0214,-0.1132,-0.0633,-0.072,-0.0064,3263,2019-08-07 16:28:46:777
8.0983,-5.7136,0.5849,-0.1226,0.0214,-0.1132,-0.0548,-0.105,0.0043,3269,2019-08-07 16:28:46:783
8.0983,-5.7136,0.5849,-0.1226,0.0214,-0.1132,-0.0548,-0.105,0.0043,3274,2019-08-07 16:28:46:788
7.9309,-5.7232,0.4954,-0.1226,0.0214,-0.1132,-0.0346,-0.137,0.0203,3280,2019-08-07 16:28:46:794
7.9309,-5.7232,0.4954,-0.018,0.0376,0.1071,-0.0346,-0.137,0.0203,3283,2019-08-07 16:28:46:797
8.1175,-5.6898,0.2927,-0.018,0.0376,0.1071,-0.0239,-0.1593,0.0235,3289,2019-08-07 16:28:46:803
8.1175,-5.6898,0.2927,-0.018,0.0376,0.1071,-0.0239,-0.1593,0.0235,3294,2019-08-07 16:28:46:808
8.1175,-5.6898,0.2927,-0.018,0.0376,0.1071,-0.0282,-0.1465,0.0235,3299,2019-08-07 16:28:46:813
8.3997,-5.7089,0.3351,-0.4587,-0.0273,0.079,-0.0282,-0.1465,0.0235,3304,2019-08-07 16:28:46:818
8.3997,-5.7089,0.3351,-0.4587,-0.0273,0.079,-0.0175,-0.0869,0.0203,3309,2019-08-07 16:28:46:823
8.3567,-5.7757,0.2267,-0.3823,0.0768,0.1847,-0.0175,-0.0869,0.0203,3314,2019-08-07 16:28:46:828
8.3567,-5.7757,0.2267,-0.3823,0.0768,0.1847,0.007,0.0069,0.0011,3318,2019-08-07 16:28:46:832
8.3567,-5.7757,0.2267,-0.3823,0.0768,0.1847,0.007,0.0069,0.0011,3325,2019-08-07 16:28:46:839
8.1222,-5.7518,0.2455,-0.3823,0.0768,0.1847,0.024,0.0676,-0.0085,3329,2019-08-07 16:28:46:843
8.1222,-5.7518,0.2455,-0.0329,0.0443,0.0042,0.024,0.0676,-0.0085,3333,2019-08-07 16:28:46:847
7.9691,-5.7661,0.5519,-0.0329,0.0443,0.0042,0.0272,0.0995,-0.0095,3339,2019-08-07 16:28:46:853
7.9691,-5.7661,0.5519,-0.0329,0.0443,0.0042,0.0272,0.0995,-0.0095,3343,2019-08-07 16:28:46:857
7.9691,-5.7661,0.5519,-0.0329,0.0443,0.0042,0.0208,0.075,-0.0255,3349,2019-08-07 16:28:46:863
7.7395,-5.6945,0.6085,0.2696,-0.0436,-0.1673,0.0208,0.075,-0.0255,3354,2019-08-07 16:28:46:868
7.7395,-5.6945,0.6085,0.2696,-0.0436,-0.1673,0.0048,-0.0155,-0.0543,3359,2019-08-07 16:28:46:873
7.7873,-5.7089,0.3964,0.2696,-0.0436,-0.1673,0.0048,-0.0155,-0.0543,3364,2019-08-07 16:28:46:878
7.7873,-5.7089,0.3964,0.2696,-0.0436,-0.1673,0.0048,-0.0155,-0.0543,3369,2019-08-07 16:28:46:883
7.7873,-5.7089,0.3964,0.2696,-0.0436,-0.1673,-0.025,-0.0922,-0.0596,3374,2019-08-07 16:28:46:888
8.0265,-5.8234,0.6038,0.0173,0.0503,-0.0981,-0.025,-0.0922,-0.0596,3379,2019-08-07 16:28:46:893
8.0265,-5.8234,0.6038,0.0173,0.0503,-0.0981,-0.0367,-0.1433,-0.0585,3384,2019-08-07 16:28:46:898
8.0265,-5.8234,0.6038,0.0173,0.0503,-0.0981,-0.0367,-0.1433,-0.0585,3389,2019-08-07 16:28:46:903
8.3566,-5.8664,0.4435,0.0173,0.0503,-0.0981,-0.0314,-0.1647,-0.0681,3394,2019-08-07 16:28:46:908
8.3566,-5.8664,0.4435,-0.4337,0.1698,0.0032,-0.0314,-0.1647,-0.0681,3398,2019-08-07 16:28:46:912
8.6676,-5.7805,0.1842,-0.4337,0.1698,0.0032,-0.0229,-0.1412,-0.0713,3404,2019-08-07 16:28:46:918
8.6676,-5.7805,0.1842,-0.4337,0.1698,0.0032,-0.0229,-0.1412,-0.0713,3408,2019-08-07 16:28:46:922
8.6676,-5.7805,0.1842,-0.787,0.1684,0.1202,-0.0186,-0.0688,-0.0617,3415,2019-08-07 16:28:46:929
8.7872,-5.7852,0.2738,-0.787,0.1684,0.1202,-0.0186,-0.0688,-0.0617,3419,2019-08-07 16:28:46:933
8.7872,-5.7852,0.2738,-0.787,0.1684,0.1202,6.0E-4,0.0026,-0.0479,3424,2019-08-07 16:28:46:938
8.7872,-5.7852,0.2738,-0.787,0.1684,0.1202,6.0E-4,0.0026,-0.0479,3429,2019-08-07 16:28:46:943
8.8877,-5.747,0.3539,-0.787,0.1684,0.1202,0.0123,0.0186,-0.0511,3434,2019-08-07 16:28:46:948
8.8877,-5.747,0.3539,-0.7361,-0.0498,0.1709,0.0123,0.0186,-0.0511,3439,2019-08-07 16:28:46:953
8.548,-5.5322,0.3634,-0.7361,-0.0498,0.1709,0.0059,0.0388,-0.0223,3443,2019-08-07 16:28:46:957
8.548,-5.5322,0.3634,-0.7361,-0.0498,0.1709,0.0059,0.0388,-0.0223,3449,2019-08-07 16:28:46:963
8.548,-5.5322,0.3634,-0.7361,-0.0498,0.1709,0.0187,0.0228,0.0171,3453,2019-08-07 16:28:46:967
8.5336,-5.6993,0.5708,-0.5224,0.0507,-0.1853,0.0187,0.0228,0.0171,3459,2019-08-07 16:28:46:973
8.5336,-5.6993,0.5708,-0.5224,0.0507,-0.1853,0.0219,0.009,0.0245,3464,2019-08-07 16:28:46:978
8.4858,-5.7041,0.5236,-0.5224,0.0507,-0.1853,0.0219,0.009,0.0245,3469,2019-08-07 16:28:46:983
8.4858,-5.7041,0.5236,-0.5224,0.0507,-0.1853,0.0219,0.009,0.0245,3474,2019-08-07 16:28:46:988
8.4858,-5.7041,0.5236,-0.2082,-0.1233,-0.1633,-0.0079,-0.0176,0.0256,3479,2019-08-07 16:28:46:993
8.127,-5.5943,0.6273,-0.2082,-0.1233,-0.1633,-0.0079,-0.0176,0.0256,3483,2019-08-07 16:28:46:997
8.127,-5.5943,0.6273,-0.2082,-0.1233,-0.1633,-0.0143,-0.0262,0.0448,3489,2019-08-07 16:28:47:003
8.1509,-5.747,0.5001,-0.2082,-0.1233,-0.1633,-0.0143,-0.0262,0.0448,3493,2019-08-07 16:28:47:007
8.1509,-5.747,0.5001,-0.1021,0.1144,-0.045,-0.0229,-0.0166,0.0256,3499,2019-08-07 16:28:47:013
8.1509,-5.747,0.5001,-0.1021,0.1144,-0.045,-0.0229,-0.0166,0.0256,3504,2019-08-07 16:28:47:018
7.9356,-5.7614,0.5708,-0.1021,0.1144,-0.045,-0.0111,0.0143,0.0288,3509,2019-08-07 16:28:47:023
7.9356,-5.7614,0.5708,-0.1021,0.1144,-0.045,-0.0111,0.0143,0.0288,3514,2019-08-07 16:28:47:028
7.9356,-5.7614,0.5708,0.0328,0.1711,-0.176,0.0016,0.0239,0.0245,3519,2019-08-07 16:28:47:033
7.8208,-5.7996,0.4812,0.0328,0.1711,-0.176,0.0016,0.0239,0.0245,3523,2019-08-07 16:28:47:037
7.8208,-5.7996,0.4812,0.0328,0.1711,-0.176,-0.0069,0.009,0.0,3530,2019-08-07 16:28:47:044
7.8447,-5.6993,0.5472,0.0328,0.1711,-0.176,-0.0069,0.009,0.0,3534,2019-08-07 16:28:47:048
7.8447,-5.6993,0.5472,0.0834,-0.0226,-0.1541,-0.0069,0.009,0.0,3539,2019-08-07 16:28:47:053
7.8447,-5.6993,0.5472,0.0834,-0.0226,-0.1541,0.0016,-0.0145,-0.0202,3544,2019-08-07 16:28:47:058
8.0743,-5.6086,0.4529,0.0834,-0.0226,-0.1541,0.0016,-0.0145,-0.0202,3549,2019-08-07 16:28:47:063
8.0743,-5.6086,0.4529,0.0834,-0.0226,-0.1541,0.0144,-0.0464,-0.0181,3553,2019-08-07 16:28:47:067
8.2896,-5.6038,0.4246,-0.2581,-0.1093,-0.0397,0.0144,-0.0464,-0.0181,3559,2019-08-07 16:28:47:073
8.2896,-5.6038,0.4246,-0.2581,-0.1093,-0.0397,0.0134,-0.0304,-0.0234,3563,2019-08-07 16:28:47:077
8.2896,-5.6038,0.4246,-0.2581,-0.1093,-0.0397,0.0134,-0.0304,-0.0234,3569,2019-08-07 16:28:47:083
8.3853,-5.5179,0.4859,-0.2581,-0.1093,-0.0397,0.0379,-0.0176,-0.033,3573,2019-08-07 16:28:47:087
8.3853,-5.5179,0.4859,-0.4592,-0.184,-0.0882,0.0379,-0.0176,-0.033,3579,2019-08-07 16:28:47:093
8.4427,-5.4415,0.3162,-0.4592,-0.184,-0.0882,0.0315,-0.0113,-0.034,3584,2019-08-07 16:28:47:098
8.4427,-5.4415,0.3162,-0.4592,-0.184,-0.0882,0.0315,-0.0113,-0.034,3589,2019-08-07 16:28:47:103
8.4427,-5.4415,0.3162,-0.4592,-0.184,-0.0882,0.0315,-0.0113,-0.034,3594,2019-08-07 16:28:47:108
8.3757,-5.5418,0.2125,-0.3632,-0.1051,0.1721,0.0229,0.0015,-0.0149,3599,2019-08-07 16:28:47:113
8.3757,-5.5418,0.2125,-0.3632,-0.1051,0.1721,0.0229,0.0015,-0.0149,3603,2019-08-07 16:28:47:117
8.3757,-5.5418,0.2125,-0.3632,-0.1051,0.1721,0.0389,0.0314,-0.0127,3609,2019-08-07 16:28:47:123
8.17,-5.7948,0.2738,-0.3632,-0.1051,0.1721,0.0389,0.0314,-0.0127,3614,2019-08-07 16:28:47:128
8.17,-5.7948,0.2738,0.0261,0.1604,0.0141,0.0464,0.0292,-0.0362,3618,2019-08-07 16:28:47:132
7.859,-5.7661,0.4293,0.0261,0.1604,0.0141,0.0464,0.0292,-0.0362,3624,2019-08-07 16:28:47:138
7.859,-5.7661,0.4293,0.0261,0.1604,0.0141,0.0474,0.0026,-0.0522,3629,2019-08-07 16:28:47:143
7.859,-5.7661,0.4293,0.0261,0.1604,0.0141,0.0474,0.0026,-0.0522,3634,2019-08-07 16:28:47:148
7.9403,-5.7041,0.4718,0.0791,0.0679,-0.0724,0.0474,0.0026,-0.0522,3639,2019-08-07 16:28:47:153
7.9403,-5.7041,0.4718,0.0791,0.0679,-0.0724,0.0645,0.0037,-0.0692,3644,2019-08-07 16:28:47:158
7.9403,-5.7041,0.4718,0.0791,0.0679,-0.0724,0.0645,0.0037,-0.0692,3648,2019-08-07 16:28:47:162
8.0743,-5.7136,0.4576,0.0791,0.0679,-0.0724,0.0698,0.009,-0.0756,3654,2019-08-07 16:28:47:168
8.0743,-5.7136,0.4576,-0.1858,0.0178,-0.0581,0.0698,0.009,-0.0756,3659,2019-08-07 16:28:47:173
8.2274,-5.4845,0.4435,-0.1858,0.0178,-0.0581,0.0677,0.0026,-0.0756,3664,2019-08-07 16:28:47:178
8.2274,-5.4845,0.4435,-0.1858,0.0178,-0.0581,0.0677,0.0026,-0.0756,3669,2019-08-07 16:28:47:183
8.2274,-5.4845,0.4435,-0.1858,0.0178,-0.0581,0.0261,-0.0304,-0.0607,3675,2019-08-07 16:28:47:189
8.4618,-5.3699,0.3162,-0.1858,0.0178,-0.0581,0.0261,-0.0304,-0.0607,3678,2019-08-07 16:28:47:192
8.4618,-5.3699,0.3162,-0.473,-0.2503,0.0252,-0.0111,-0.0496,-0.0479,3684,2019-08-07 16:28:47:198
8.6005,-5.4176,0.4859,-0.473,-0.2503,0.0252,-0.0111,-0.0496,-0.0479,3688,2019-08-07 16:28:47:202
8.6005,-5.4176,0.4859,-0.473,-0.2503,0.0252,-0.025,-0.0826,-0.0298,3694,2019-08-07 16:28:47:208
8.6005,-5.4176,0.4859,-0.5137,-0.0547,0.1029,-0.025,-0.0826,-0.0298,3699,2019-08-07 16:28:47:213
8.5814,-5.6181,0.2596,-0.5137,-0.0547,0.1029,-0.0261,-0.0922,-0.001,3704,2019-08-07 16:28:47:218
8.5814,-5.6181,0.2596,-0.5137,-0.0547,0.1029,-0.0261,-0.0922,-0.001,3708,2019-08-07 16:28:47:222
8.6436,-5.7184,0.1984,-0.5137,-0.0547,0.1029,-0.0143,-0.0581,0.0075,3715,2019-08-07 16:28:47:229
8.6436,-5.7184,0.1984,-0.565,0.1992,0.1257,-0.0143,-0.0581,0.0075,3719,2019-08-07 16:28:47:233
8.6436,-5.7184,0.1984,-0.565,0.1992,0.1257,0.0325,0.0207,0.0181,3724,2019-08-07 16:28:47:238
8.5431,-5.8282,0.3398,-0.565,0.1992,0.1257,0.0325,0.0207,0.0181,3729,2019-08-07 16:28:47:243
8.5431,-5.8282,0.3398,-0.565,0.1992,0.1257,0.0869,0.0761,0.0171,3734,2019-08-07 16:28:47:248
8.5431,-5.8282,0.3398,-0.565,0.1992,0.1257,0.0869,0.0761,0.0171,3738,2019-08-07 16:28:47:252
8.3278,-5.7041,0.3775,-0.2849,0.1015,0.0202,0.0869,0.0761,0.0171,3744,2019-08-07 16:28:47:258
8.3278,-5.7041,0.3775,-0.2849,0.1015,0.0202,0.1092,0.0974,0.0245,3749,2019-08-07 16:28:47:263
8.1508,-5.6086,0.4482,-0.2849,0.1015,0.0202,0.1092,0.0974,0.0245,3754,2019-08-07 16:28:47:268
8.1508,-5.6086,0.4482,-0.2849,0.1015,0.0202,0.0986,0.0676,0.0352,3759,2019-08-07 16:28:47:273
8.1652,-5.4176,0.4859,-0.1496,-0.0639,-0.0712,0.0986,0.0676,0.0352,3764,2019-08-07 16:28:47:278
8.1652,-5.4176,0.4859,-0.1496,-0.0639,-0.0712,0.0666,0.0324,0.0256,3768,2019-08-07 16:28:47:282
8.1652,-5.4176,0.4859,-0.1496,-0.0639,-0.0712,0.0666,0.0324,0.0256,3774,2019-08-07 16:28:47:288
8.146,-5.3174,0.5707,-0.1496,-0.0639,-0.0712,0.0197,-0.0219,0.0341,3779,2019-08-07 16:28:47:293
8.146,-5.3174,0.5707,-0.09,-0.3197,-0.1729,0.0197,-0.0219,0.0341,3783,2019-08-07 16:28:47:297
8.146,-5.3174,0.5707,-0.09,-0.3197,-0.1729,0.0197,-0.0219,0.0341,3789,2019-08-07 16:28:47:303
8.1604,-5.3126,0.6839,-0.09,-0.3197,-0.1729,-0.0197,-0.056,0.0437,3794,2019-08-07 16:28:47:308
8.1604,-5.3126,0.6839,-0.09,-0.3197,-0.1729,-0.0197,-0.056,0.0437,3798,2019-08-07 16:28:47:312
8.1747,-5.4558,0.5236,-0.1073,-0.2339,-0.176,-0.0261,-0.0741,0.0533,3804,2019-08-07 16:28:47:318
8.1747,-5.4558,0.5236,-0.1073,-0.2339,-0.176,-0.0261,-0.0741,0.0533,3809,2019-08-07 16:28:47:323
8.1747,-5.4558,0.5236,-0.1073,-0.2339,-0.176,-0.0165,-0.0443,0.0608,3813,2019-08-07 16:28:47:327
8.2034,-5.685,0.3398,-0.1073,-0.2339,-0.176,-0.0165,-0.0443,0.0608,3819,2019-08-07 16:28:47:333
8.2034,-5.685,0.3398,-0.108,0.0966,0.0271,6.0E-4,0.0069,0.0512,3824,2019-08-07 16:28:47:338
8.0838,-5.7566,0.3633,-0.108,0.0966,0.0271,6.0E-4,0.0069,0.0512,3829,2019-08-07 16:28:47:343
8.0838,-5.7566,0.3633,-0.108,0.0966,0.0271,0.0219,0.0282,0.048,3834,2019-08-07 16:28:47:348
8.0838,-5.7566,0.3633,-0.108,0.0966,0.0271,0.0219,0.0282,0.048,3838,2019-08-07 16:28:47:352
8.0599,-5.6229,0.3916,-0.037,-0.0065,0.0327,0.0357,0.042,0.0288,3844,2019-08-07 16:28:47:358
8.0599,-5.6229,0.3916,-0.037,-0.0065,0.0327,0.0357,0.042,0.0288,3849,2019-08-07 16:28:47:363
7.8063,-5.5799,0.2078,-0.037,-0.0065,0.0327,-0.0293,-0.0986,-0.0053,3854,2019-08-07 16:28:47:368
7.8063,-5.5799,0.2078,-0.037,-0.0065,0.0327,-0.0293,-0.0986,-0.0053,3859,2019-08-07 16:28:47:373
7.8063,-5.5799,0.2078,-0.2287,0.174,0.0555,-0.0207,-0.0411,-0.0362,3863,2019-08-07 16:28:47:377
8.2943,-5.7518,0.533,-0.2287,0.174,0.0555,-0.0207,-0.0411,-0.0362,3869,2019-08-07 16:28:47:383
8.2943,-5.7518,0.533,-0.2287,0.174,0.0555,0.0059,-0.0794,-0.0394,3874,2019-08-07 16:28:47:388
8.1508,-5.4845,-0.0138,-0.2287,0.174,0.0555,0.0059,-0.0794,-0.0394,3879,2019-08-07 16:28:47:393
8.1508,-5.4845,-0.0138,-0.2378,-0.1153,0.4212,-0.0122,-0.0358,-0.0255,3884,2019-08-07 16:28:47:398
8.1508,-5.4845,-0.0138,-0.2378,-0.1153,0.4212,-0.0122,-0.0358,-0.0255,3889,2019-08-07 16:28:47:403
8.4809,-5.685,0.3869,-0.2378,-0.1153,0.4212,0.0048,-0.0027,-0.0032,3894,2019-08-07 16:28:47:408
8.4809,-5.685,0.3869,-0.2378,-0.1153,0.4212,0.0048,-0.0027,-0.0032,3898,2019-08-07 16:28:47:412
8.8253,-5.8521,0.3539,-0.7137,0.1698,-0.0249,0.0677,0.0772,0.0096,3904,2019-08-07 16:28:47:418
8.8253,-5.8521,0.3539,-0.7137,0.1698,-0.0249,0.0677,0.0772,0.0096,3909,2019-08-07 16:28:47:423
8.8253,-5.8521,0.3539,-0.7137,0.1698,-0.0249,0.1476,0.2125,0.0256,3914,2019-08-07 16:28:47:428
8.7488,-5.8234,0.4199,-0.7137,0.1698,-0.0249,0.1476,0.2125,0.0256,3918,2019-08-07 16:28:47:432
8.7488,-5.8234,0.4199,-0.7163,0.2025,-0.0655,0.1476,0.2125,0.0256,3924,2019-08-07 16:28:47:438
8.8349,-5.8711,0.3539,-0.7163,0.2025,-0.0655,0.2094,0.3179,0.0522,3929,2019-08-07 16:28:47:443
8.8349,-5.8711,0.3539,-0.7163,0.2025,-0.0655,0.2094,0.3179,0.0522,3934,2019-08-07 16:28:47:448
8.8349,-5.8711,0.3539,-0.7163,0.2025,-0.0655,0.2051,0.368,0.0373,3938,2019-08-07 16:28:47:452
8.5909,-5.6945,0.3162,-0.5702,0.0703,0.2063,0.2051,0.368,0.0373,3944,2019-08-07 16:28:47:458
8.5909,-5.6945,0.3162,-0.5702,0.0703,0.2063,0.1518,0.3893,-0.0117,3949,2019-08-07 16:28:47:463
8.5909,-5.6945,0.3162,-0.5702,0.0703,0.2063,0.1518,0.3893,-0.0117,3954,2019-08-07 16:28:47:468
8.079,-5.4654,0.6462,-0.5702,0.0703,0.2063,0.0922,0.3552,-0.0458,3959,2019-08-07 16:28:47:473
8.079,-5.4654,0.6462,0.2718,-0.2424,-0.0886,0.0922,0.3552,-0.0458,3964,2019-08-07 16:28:47:478
7.5575,-5.3365,0.7829,0.2718,-0.2424,-0.0886,0.0357,0.2934,-0.0447,3968,2019-08-07 16:28:47:482