ACCELEROMETER X (m/s²),ACCELEROMETER Y (m/s²),ACCELEROMETER Z (m/s²),LINEAR ACCELERATION X (m/s²),LINEAR ACCELERATION Y (m/s²),LINEAR ACCELERATION Z (m/s²),GYROSCOPE X (rad/s),GYROSCOPE Y (rad/s),GYROSCOPE Z (rad/s),Time since start in ms ,YYYY-MO-DD HH-MI-SS_SSS
7.2687,-6.6873,0.7825,0.0773,0.1579,-0.007,0.0219,0.0207,0.0288,2,2019-08-07 16:27:32:946
7.2687,-6.6873,0.7825,0.0773,0.1579,-0.007,0.0219,0.0207,0.0288,8,2019-08-07 16:27:32:952
7.2304,-6.6921,0.7872,0.0773,0.1579,-0.007,0.0187,0.0164,0.0277,14,2019-08-07 16:27:32:958
7.2304,-6.6921,0.7872,0.0773,0.1579,-0.007,0.0187,0.0164,0.0277,17,2019-08-07 16:27:32:961
7.3309,-6.6825,0.6929,0.0343,0.1912,0.0724,0.0166,-0.0166,0.0192,23,2019-08-07 16:27:32:967
7.3309,-6.6825,0.6929,0.0343,0.1912,0.0724,0.0166,-0.0166,0.0192,28,2019-08-07 16:27:32:972
7.3309,-6.6825,0.6929,0.0343,0.1912,0.0724,0.0134,-0.0389,0.0213,33,2019-08-07 16:27:32:977
7.5175,-6.5966,0.6505,0.0343,0.1912,0.0724,0.0134,-0.0389,0.0213,37,2019-08-07 16:27:32:981
7.5175,-6.5966,0.6505,-0.2313,0.1404,0.0645,0.0123,-0.0294,0.0277,43,2019-08-07 16:27:32:987
7.5701,-6.6061,0.6835,-0.2313,0.1404,0.0645,0.0123,-0.0294,0.0277,48,2019-08-07 16:27:32:992
7.5701,-6.6061,0.6835,-0.2313,0.1404,0.0645,0.0187,-0.0262,0.0437,53,2019-08-07 16:27:32:997
7.5701,-6.6061,0.6835,-0.2313,0.1404,0.0645,0.0187,-0.0262,0.0437,57,2019-08-07 16:27:33:001
7.6371,-6.5584,0.6458,-0.2928,0.0783,0.1001,0.024,-0.0208,0.0522,63,2019-08-07 16:27:33:007
7.6371,-6.5584,0.6458,-0.2928,0.0783,0.1001,0.024,-0.0208,0.0522,67,2019-08-07 16:27:33:011
7.5749,-6.5489,0.7636,-0.2928,0.0783,0.1001,0.0229,5.0E-4,0.0671,73,2019-08-07 16:27:33:017
7.5749,-6.5489,0.7636,-0.2928,0.0783,0.1001,0.0229,5.0E-4,0.0671,77,2019-08-07 16:27:33:021
7.5749,-6.5489,0.7636,-0.2285,-0.0158,0.0601,0.024,0.0101,0.0714,83,2019-08-07 16:27:33:027
7.4361,-6.5679,0.6929,-0.2285,-0.0158,0.0601,0.024,0.0101,0.0714,87,2019-08-07 16:27:33:031
7.4361,-6.5679,0.6929,-0.0227,-0.016,0.0623,0.0208,0.0154,0.0703,93,2019-08-07 16:27:33:037
7.2735,-6.6061,0.7071,-0.0227,-0.016,0.0623,0.0208,0.0154,0.0703,98,2019-08-07 16:27:33:042
7.2735,-6.6061,0.7071,-0.0227,-0.016,0.0623,0.0123,0.0133,0.0671,102,2019-08-07 16:27:33:046
7.2735,-6.6061,0.7071,-0.0227,-0.016,0.0623,0.0123,0.0133,0.0671,108,2019-08-07 16:27:33:052
7.173,-6.7494,0.7966,0.111,0.2217,-0.0421,0.0134,-0.0017,0.0512,113,2019-08-07 16:27:33:057
7.173,-6.7494,0.7966,0.111,0.2217,-0.0421,0.0134,-0.0017,0.0512,118,2019-08-07 16:27:33:062
7.173,-6.7494,0.7966,0.111,0.2217,-0.0421,0.0134,-0.0017,0.0512,122,2019-08-07 16:27:33:066
7.1299,-6.6682,0.7306,0.111,0.2217,-0.0421,0.0112,-0.0123,0.0309,128,2019-08-07 16:27:33:072
7.1299,-6.6682,0.7306,0.119,0.0952,0.0526,0.0112,-0.0123,0.0309,133,2019-08-07 16:27:33:077
7.1873,-6.6396,0.7165,0.119,0.0952,0.0526,0.0102,-0.0176,0.0203,138,2019-08-07 16:27:33:082
7.1873,-6.6396,0.7165,0.0502,0.0932,-0.0189,0.0102,-0.0176,0.0203,142,2019-08-07 16:27:33:086
7.1873,-6.6396,0.7165,0.0502,0.0932,-0.0189,0.0123,-0.0187,0.0107,148,2019-08-07 16:27:33:092
7.35,-6.5775,0.7118,0.0502,0.0932,-0.0189,0.0123,-0.0187,0.0107,153,2019-08-07 16:27:33:097
7.35,-6.5775,0.7118,0.0502,0.0932,-0.0189,0.0123,-0.0187,0.0107,157,2019-08-07 16:27:33:101
7.35,-6.5775,0.7118,-0.1708,-0.099,0.0645,0.0059,-0.0176,0.0085,163,2019-08-07 16:27:33:107
7.3882,-6.4677,0.6882,-0.1708,-0.099,0.0645,0.0059,-0.0176,0.0085,167,2019-08-07 16:27:33:111
7.3882,-6.4677,0.6882,-0.1708,-0.099,0.0645,-0.0047,-0.0134,0.0192,173,2019-08-07 16:27:33:117
7.4983,-6.4295,0.7401,-0.1708,-0.099,0.0645,-0.0047,-0.0134,0.0192,178,2019-08-07 16:27:33:122
7.4983,-6.4295,0.7401,-0.2052,-0.0334,6.0E-4,-0.0079,-0.0283,0.0277,183,2019-08-07 16:27:33:127
7.5222,-6.5298,0.7259,-0.2052,-0.0334,6.0E-4,-0.0079,-0.0283,0.0277,188,2019-08-07 16:27:33:132
7.5222,-6.5298,0.7259,-0.2052,-0.0334,6.0E-4,-0.0111,-0.04,0.0309,193,2019-08-07 16:27:33:137
7.5222,-6.5298,0.7259,-0.2052,-0.0334,6.0E-4,-0.0111,-0.04,0.0309,198,2019-08-07 16:27:33:142
7.4361,-6.5107,0.7306,-0.1647,-0.0324,0.0123,-0.0111,-0.04,0.0309,203,2019-08-07 16:27:33:147
7.4361,-6.5107,0.7306,-0.1647,-0.0324,0.0123,-0.009,-0.0571,0.033,209,2019-08-07 16:27:33:153
7.4265,-6.6061,0.6835,-0.1567,0.0607,0.0544,-0.009,-0.0571,0.033,213,2019-08-07 16:27:33:157
7.4265,-6.6061,0.6835,-0.1567,0.0607,0.0544,-0.0101,-0.0549,0.033,217,2019-08-07 16:27:33:161
7.4265,-6.6061,0.6835,-0.1567,0.0607,0.0544,-0.0101,-0.0549,0.033,223,2019-08-07 16:27:33:167
7.3595,-6.6634,0.7306,-0.1567,0.0607,0.0544,-0.0079,-0.0336,0.032,227,2019-08-07 16:27:33:171
7.3595,-6.6634,0.7306,-0.0981,0.1561,-0.0386,-0.0079,-0.0336,0.032,233,2019-08-07 16:27:33:177
7.3595,-6.6634,0.7306,-0.0981,0.1561,-0.0386,-0.0079,-0.0336,0.032,238,2019-08-07 16:27:33:182
7.3021,-6.6968,0.806,-0.0981,0.1561,-0.0386,0.0016,-0.0038,0.0117,243,2019-08-07 16:27:33:187
7.3021,-6.6968,0.806,-0.0981,0.1561,-0.0386,0.0016,-0.0038,0.0117,248,2019-08-07 16:27:33:192
7.2351,-6.6252,0.8438,0.0488,0.0114,-0.1045,0.0027,0.0122,-0.0053,253,2019-08-07 16:27:33:197
7.2351,-6.6252,0.8438,0.0488,0.0114,-0.1045,0.0027,0.0122,-0.0053,258,2019-08-07 16:27:33:202
7.1729,-6.5584,0.773,0.0488,0.0114,-0.1045,-0.0058,0.0069,-0.016,263,2019-08-07 16:27:33:207
7.1729,-6.5584,0.773,0.0488,0.0114,-0.1045,-0.0058,0.0069,-0.016,267,2019-08-07 16:27:33:211
7.1729,-6.5584,0.773,0.0934,-0.006,-0.0717,-0.0229,-0.0155,-0.0202,273,2019-08-07 16:27:33:217
7.1394,-6.5441,0.7778,0.0934,-0.006,-0.0717,-0.0229,-0.0155,-0.0202,278,2019-08-07 16:27:33:222
7.1394,-6.5441,0.7778,0.0934,-0.006,-0.0717,-0.0335,-0.0432,-0.0234,283,2019-08-07 16:27:33:227
7.2638,-6.63,0.8815,0.0934,-0.006,-0.0717,-0.0335,-0.0432,-0.0234,288,2019-08-07 16:27:33:232
7.2638,-6.63,0.8815,0.0934,-0.006,-0.0717,-0.0335,-0.0762,-0.0213,292,2019-08-07 16:27:33:236
7.2638,-6.63,0.8815,-0.0182,0.0727,-0.0631,-0.0335,-0.0762,-0.0213,298,2019-08-07 16:27:33:242
7.3595,-6.6205,0.6976,-0.0182,0.0727,-0.0631,-0.0292,-0.089,-0.0298,303,2019-08-07 16:27:33:247
7.3595,-6.6205,0.6976,-0.0182,0.0727,-0.0631,-0.0292,-0.089,-0.0298,308,2019-08-07 16:27:33:252
7.4839,-6.6252,0.7023,-0.2096,0.0809,2.0E-4,-0.025,-0.0954,-0.0213,314,2019-08-07 16:27:33:258
7.4839,-6.6252,0.7023,-0.2096,0.0809,2.0E-4,-0.025,-0.0954,-0.0213,319,2019-08-07 16:27:33:263
7.4839,-6.6252,0.7023,-0.2096,0.0809,2.0E-4,-0.025,-0.0954,-0.0213,323,2019-08-07 16:27:33:267
7.4791,-6.7923,0.6976,-0.2096,0.0809,2.0E-4,-0.0229,-0.0901,-0.0085,328,2019-08-07 16:27:33:272
7.4791,-6.7923,0.6976,-0.2402,0.216,0.0539,-0.0229,-0.0901,-0.0085,333,2019-08-07 16:27:33:277
7.4552,-6.8114,0.6363,-0.2402,0.216,0.0539,-0.0016,-0.0837,-0.001,338,2019-08-07 16:27:33:282
7.4552,-6.8114,0.6363,-0.2402,0.216,0.0539,-0.0016,-0.0837,-0.001,343,2019-08-07 16:27:33:287
7.4552,-6.8114,0.6363,-0.2402,0.216,0.0539,0.0123,-0.0762,0.0064,348,2019-08-07 16:27:33:292
7.393,-6.7589,0.6552,-0.2402,0.216,0.0539,0.0123,-0.0762,0.0064,352,2019-08-07 16:27:33:296
7.393,-6.7589,0.6552,-0.1394,0.1723,0.0476,0.0123,-0.0762,0.0064,358,2019-08-07 16:27:33:302
7.436,-6.6968,0.6976,-0.1394,0.1723,0.0476,0.0123,-0.0634,0.0128,364,2019-08-07 16:27:33:308
7.436,-6.6968,0.6976,-0.1394,0.1723,0.0476,0.0123,-0.0634,0.0128,368,2019-08-07 16:27:33:312
7.436,-6.6968,0.6976,-0.1394,0.1723,0.0476,0.008,-0.0592,0.0139,372,2019-08-07 16:27:33:316
7.3451,-6.7112,0.7118,-0.1165,0.1847,-0.0356,0.008,-0.0592,0.0139,378,2019-08-07 16:27:33:322
7.3451,-6.7112,0.7118,-0.1165,0.1847,-0.0356,-5.0E-4,-0.0539,0.0149,382,2019-08-07 16:27:33:326
7.3451,-6.7112,0.7118,-0.1165,0.1847,-0.0356,-5.0E-4,-0.0539,0.0149,388,2019-08-07 16:27:33:332
7.3403,-6.7637,0.7118,-0.1165,0.1847,-0.0356,-0.0101,-0.056,0.0117,393,2019-08-07 16:27:33:337
7.3403,-6.7637,0.7118,-0.0417,0.1485,-0.0295,-0.0101,-0.056,0.0117,397,2019-08-07 16:27:33:341
7.4169,-6.7732,0.6929,-0.0417,0.1485,-0.0295,-0.0101,-0.056,0.0117,403,2019-08-07 16:27:33:347
7.4169,-6.7732,0.6929,-0.0417,0.1485,-0.0295,-0.0165,-0.0517,0.0149,407,2019-08-07 16:27:33:351
7.4169,-6.7732,0.6929,-0.0417,0.1485,-0.0295,-0.0165,-0.0517,0.0149,414,2019-08-07 16:27:33:358
7.4312,-6.7302,0.7353,-0.1583,0.1789,-0.0859,-0.0111,-0.0464,0.0203,418,2019-08-07 16:27:33:362
7.4312,-6.7302,0.7353,-0.1583,0.1789,-0.0859,-0.0111,-0.0464,0.0203,422,2019-08-07 16:27:33:366
7.4551,-6.778,0.6033,-0.1583,0.1789,-0.0859,-0.0069,-0.0368,0.0224,428,2019-08-07 16:27:33:372
7.4551,-6.778,0.6033,-0.1583,0.1789,-0.0859,-0.0069,-0.0368,0.0224,433,2019-08-07 16:27:33:377
7.4551,-6.778,0.6033,-0.1945,0.2374,0.0017,0.0059,-0.0208,0.0235,438,2019-08-07 16:27:33:382
7.4599,-6.7923,0.6788,-0.1945,0.2374,0.0017,0.0059,-0.0208,0.0235,443,2019-08-07 16:27:33:387
7.4599,-6.7923,0.6788,-0.1945,0.2374,0.0017,0.0187,-0.0187,0.032,449,2019-08-07 16:27:33:393
7.4599,-6.7923,0.6788,-0.1945,0.2374,0.0017,0.0187,-0.0187,0.032,452,2019-08-07 16:27:33:396
7.4025,-6.7112,0.6976,-0.136,0.1519,-0.0563,0.0187,-0.0187,0.032,458,2019-08-07 16:27:33:402
7.4025,-6.7112,0.6976,-0.136,0.1519,-0.0563,0.024,-0.0283,0.0373,464,2019-08-07 16:27:33:408
7.4073,-6.7064,0.6316,-0.136,0.1519,-0.0563,0.024,-0.0283,0.0373,468,2019-08-07 16:27:33:412
7.4073,-6.7064,0.6316,-0.136,0.1519,-0.0563,0.0219,-0.0358,0.0426,472,2019-08-07 16:27:33:416
7.4073,-6.7064,0.6316,-0.0981,0.1414,-0.0439,0.0219,-0.0358,0.0426,478,2019-08-07 16:27:33:422
7.3881,-6.7064,0.6976,-0.0981,0.1414,-0.0439,0.0187,-0.0304,0.0469,483,2019-08-07 16:27:33:427
7.3881,-6.7064,0.6976,-0.0981,0.1414,-0.0439,0.0187,-0.0304,0.0469,488,2019-08-07 16:27:33:432
7.2925,-6.6395,0.6882,-0.0981,0.1414,-0.0439,0.0208,-0.024,0.0416,493,2019-08-07 16:27:33:437
7.2925,-6.6395,0.6882,-0.0416,0.0633,-0.0642,0.0208,-0.024,0.0416,497,2019-08-07 16:27:33:441
7.2925,-6.6395,0.6882,-0.0416,0.0633,-0.0642,0.0208,-0.024,0.0416,502,2019-08-07 16:27:33:446
7.2111,-6.7302,0.674,-0.0416,0.0633,-0.0642,0.0198,-0.0123,0.0309,508,2019-08-07 16:27:33:452
7.2111,-6.7302,0.674,-0.0416,0.0633,-0.0642,0.0198,-0.0123,0.0309,513,2019-08-07 16:27:33:457
7.2111,-6.7302,0.674,0.04,0.0919,-0.03,0.0176,-0.0081,0.0224,517,2019-08-07 16:27:33:461
7.2159,-6.673,0.6599,0.04,0.0919,-0.03,0.0176,-0.0081,0.0224,523,2019-08-07 16:27:33:467
7.2159,-6.673,0.6599,0.04,0.0919,-0.03,0.0208,-0.0123,0.0054,528,2019-08-07 16:27:33:472
7.235,-6.6061,0.6835,0.04,0.0919,-0.03,0.0208,-0.0123,0.0054,533,2019-08-07 16:27:33:477
7.235,-6.6061,0.6835,0.0058,0.091,-0.0013,0.024,-0.0251,-0.0042,538,2019-08-07 16:27:33:482
7.235,-6.6061,0.6835,0.0058,0.091,-0.0013,0.024,-0.0251,-0.0042,543,2019-08-07 16:27:33:487
7.2829,-6.673,0.6128,0.0058,0.091,-0.0013,0.0219,-0.0389,-0.0085,547,2019-08-07 16:27:33:491
7.2829,-6.673,0.6128,0.0058,0.091,-0.0013,0.0219,-0.0389,-0.0085,553,2019-08-07 16:27:33:497
7.2829,-6.673,0.6128,0.0058,0.091,-0.0013,0.0219,-0.0389,-0.0085,558,2019-08-07 16:27:33:502
7.3642,-6.6634,0.6175,-0.1124,0.0875,0.0196,0.0176,-0.0528,-0.0128,563,2019-08-07 16:27:33:507
7.3642,-6.6634,0.6175,-0.1124,0.0875,0.0196,0.0176,-0.0528,-0.0128,567,2019-08-07 16:27:33:511
7.412,-6.6348,0.6316,-0.1124,0.0875,0.0196,0.0144,-0.0634,-0.0149,573,2019-08-07 16:27:33:517
7.412,-6.6348,0.6316,-0.2002,0.0568,0.0031,0.0144,-0.0634,-0.0149,578,2019-08-07 16:27:33:522
7.412,-6.6348,0.6316,-0.2002,0.0568,0.0031,0.0123,-0.0634,-0.017,583,2019-08-07 16:27:33:527
7.4551,-6.6491,0.6646,-0.2002,0.0568,0.0031,0.0123,-0.0634,-0.017,588,2019-08-07 16:27:33:532
7.4551,-6.6491,0.6646,-0.2002,0.0568,0.0031,0.007,-0.0634,-0.016,593,2019-08-07 16:27:33:537
7.5603,-6.6539,0.6646,-0.2493,0.0695,-0.0145,0.007,-0.0634,-0.016,599,2019-08-07 16:27:33:543
7.5603,-6.6539,0.6646,-0.2493,0.0695,-0.0145,0.007,-0.0634,-0.016,602,2019-08-07 16:27:33:546
7.5603,-6.6539,0.6646,-0.2493,0.0695,-0.0145,0.0016,-0.0432,-0.016,608,2019-08-07 16:27:33:552
7.5268,-6.5775,0.6316,-0.2493,0.0695,-0.0145,0.0016,-0.0432,-0.016,614,2019-08-07 16:27:33:558
7.5268,-6.5775,0.6316,-0.2314,0.0729,-0.0344,-0.0037,-0.0176,-0.0149,617,2019-08-07 16:27:33:561
7.5364,-6.6157,0.6363,-0.2314,0.0729,-0.0344,-0.0037,-0.0176,-0.0149,623,2019-08-07 16:27:33:567
7.5364,-6.6157,0.6363,-0.2314,0.0729,-0.0344,0.0027,0.0069,-0.0106,628,2019-08-07 16:27:33:572
7.4551,-6.6634,0.6127,-0.2314,0.0729,-0.0344,0.0027,0.0069,-0.0106,633,2019-08-07 16:27:33:577
7.4551,-6.6634,0.6127,-0.1579,0.0893,-0.0372,0.0155,0.0186,-0.0106,638,2019-08-07 16:27:33:582
7.4551,-6.6634,0.6127,-0.1579,0.0893,-0.0372,0.0155,0.0186,-0.0106,643,2019-08-07 16:27:33:587
7.2733,-6.6586,0.7353,-0.1579,0.0893,-0.0372,0.0187,0.0175,-0.0032,648,2019-08-07 16:27:33:592
7.2733,-6.6586,0.7353,-0.1579,0.0893,-0.0372,0.0187,0.0175,-0.0032,653,2019-08-07 16:27:33:597
7.2733,-6.6586,0.7353,-0.1579,0.0893,-0.0372,0.024,-0.007,0.0,658,2019-08-07 16:27:33:602
7.2493,-6.673,0.7117,0.0143,0.1089,-0.0885,0.024,-0.007,0.0,663,2019-08-07 16:27:33:607
7.2493,-6.673,0.7117,0.0143,0.1089,-0.0885,0.0155,-0.0421,0.0022,668,2019-08-07 16:27:33:612
7.2733,-6.6395,0.6835,0.0143,0.1089,-0.0885,0.0155,-0.0421,0.0022,673,2019-08-07 16:27:33:617
7.2733,-6.6395,0.6835,0.0143,0.1089,-0.0885,0.0112,-0.056,-0.0021,678,2019-08-07 16:27:33:622
7.3259,-6.6443,0.707,-0.0907,0.0945,-0.0308,0.0112,-0.056,-0.0021,683,2019-08-07 16:27:33:627
7.3259,-6.6443,0.707,-0.0907,0.0945,-0.0308,0.0059,-0.0624,-0.0042,688,2019-08-07 16:27:33:632
7.3259,-6.6443,0.707,-0.0907,0.0945,-0.0308,0.0059,-0.0624,-0.0042,692,2019-08-07 16:27:33:636
7.4646,-6.6634,0.6269,-0.2614,0.0811,0.0416,0.0048,-0.0517,-0.0074,698,2019-08-07 16:27:33:642
7.4646,-6.6634,0.6269,-0.2614,0.0811,0.0416,0.0048,-0.0517,-0.0074,703,2019-08-07 16:27:33:647
7.4646,-6.6634,0.6269,-0.2614,0.0811,0.0416,0.0048,-0.0517,-0.0074,707,2019-08-07 16:27:33:651
7.5807,-6.6206,0.5847,-0.2614,0.0811,0.0416,-5.0E-4,-0.0379,-0.0127,713,2019-08-07 16:27:33:657
7.5807,-6.6206,0.5847,-0.2614,0.0811,0.0416,-5.0E-4,-0.0379,-0.0127,717,2019-08-07 16:27:33:661
7.5186,-6.6397,0.6036,-0.2552,0.0313,0.0498,-0.0058,-0.0049,-0.0127,723,2019-08-07 16:27:33:667
7.5186,-6.6397,0.6036,-0.2552,0.0313,0.0498,-0.0058,-0.0049,-0.0127,729,2019-08-07 16:27:33:673
7.4325,-6.6779,0.5847,-0.2552,0.0313,0.0498,-5.0E-4,0.0122,-0.0074,733,2019-08-07 16:27:33:677
7.4325,-6.6779,0.5847,-0.1151,0.1951,0.0739,-5.0E-4,0.0122,-0.0074,738,2019-08-07 16:27:33:682
7.4325,-6.6779,0.5847,-0.1151,0.1951,0.0739,0.0102,0.0154,-0.0032,743,2019-08-07 16:27:33:687
7.4181,-6.6922,0.6366,-0.1151,0.1951,0.0739,0.0102,0.0154,-0.0032,748,2019-08-07 16:27:33:692
7.4181,-6.6922,0.6366,-0.1151,0.1951,0.0739,0.0112,0.0015,-0.0032,752,2019-08-07 16:27:33:696
7.4181,-6.6922,0.6366,-0.1151,0.1951,0.0739,0.0112,0.0015,-0.0032,758,2019-08-07 16:27:33:702
7.3224,-6.6635,0.6413,-0.0573,0.0908,-0.0133,0.0102,-0.0294,0.0032,763,2019-08-07 16:27:33:707
7.3224,-6.6635,0.6413,-0.0573,0.0908,-0.0133,0.0102,-0.0294,0.0032,767,2019-08-07 16:27:33:711
7.3703,-6.6779,0.58,-0.0573,0.0908,-0.0133,0.0102,-0.0294,0.0032,773,2019-08-07 16:27:33:717
7.3703,-6.6779,0.58,-0.0573,0.0908,-0.0133,0.0134,-0.0443,0.0096,778,2019-08-07 16:27:33:722
7.3703,-6.6779,0.58,-0.1151,0.0996,-0.055,0.0134,-0.0443,0.0096,782,2019-08-07 16:27:33:726
7.4038,-6.6683,0.6272,-0.1151,0.0996,-0.055,0.0091,-0.0358,0.0107,788,2019-08-07 16:27:33:732
7.4038,-6.6683,0.6272,-0.1203,0.1276,-0.0808,0.0091,-0.0358,0.0107,792,2019-08-07 16:27:33:736
7.3895,-6.6492,0.646,-0.1203,0.1276,-0.0808,0.008,-0.0187,0.0128,798,2019-08-07 16:27:33:742
7.3895,-6.6492,0.646,-0.1203,0.1276,-0.0808,0.008,-0.0187,0.0128,803,2019-08-07 16:27:33:747
7.3895,-6.6492,0.646,-0.1203,0.1276,-0.0808,0.008,-0.0187,0.0128,808,2019-08-07 16:27:33:752
7.3225,-6.6397,0.5895,-0.0547,0.0781,0.0119,0.0027,-0.0081,0.0107,813,2019-08-07 16:27:33:757
7.3225,-6.6397,0.5895,-0.0547,0.0781,0.0119,-0.0079,-0.0166,0.0064,818,2019-08-07 16:27:33:762
7.3225,-6.6397,0.5895,-0.0547,0.0781,0.0119,-0.0079,-0.0166,0.0064,824,2019-08-07 16:27:33:768
7.2842,-6.6588,0.6272,-0.0547,0.0781,0.0119,-0.0079,-0.0166,0.0064,828,2019-08-07 16:27:33:772
7.2842,-6.6588,0.6272,-0.0989,0.1435,-0.0193,-0.0111,-0.0219,0.0011,833,2019-08-07 16:27:33:777
7.3608,-6.6683,0.6508,-0.0989,0.1435,-0.0193,-0.0111,-0.0219,0.0011,838,2019-08-07 16:27:33:782
7.3608,-6.6683,0.6508,-0.0989,0.1435,-0.0193,-0.0133,-0.0336,-0.0021,843,2019-08-07 16:27:33:787
7.3608,-6.6683,0.6508,-0.0989,0.1435,-0.0193,-0.0133,-0.0336,-0.0021,848,2019-08-07 16:27:33:792
7.49,-6.6301,0.5235,-0.2227,0.0672,0.0689,-0.0101,-0.023,0.0032,853,2019-08-07 16:27:33:797
7.49,-6.6301,0.5235,-0.2227,0.0672,0.0689,-0.0101,-0.023,0.0032,858,2019-08-07 16:27:33:802
7.4517,-6.654,0.5612,-0.2227,0.0672,0.0689,-0.0079,-0.0176,0.0075,863,2019-08-07 16:27:33:807
7.4517,-6.654,0.5612,-0.2227,0.0672,0.0689,-0.0079,-0.0176,0.0075,868,2019-08-07 16:27:33:812
7.4517,-6.654,0.5612,-0.2227,0.0764,-0.0203,-0.0079,-0.0176,0.0075,873,2019-08-07 16:27:33:817
7.4804,-6.7065,0.6083,-0.2227,0.0764,-0.0203,-0.0026,-0.0102,0.0149,878,2019-08-07 16:27:33:822
7.4804,-6.7065,0.6083,-0.2227,0.0764,-0.0203,-0.0026,-0.0102,0.0149,882,2019-08-07 16:27:33:826
7.4804,-6.7065,0.6083,-0.2227,0.0764,-0.0203,-0.0016,-0.0251,0.0203,888,2019-08-07 16:27:33:832
7.3274,-6.6349,0.6932,-0.081,0.036,-0.084,-0.0016,-0.0251,0.0203,893,2019-08-07 16:27:33:837
7.3274,-6.6349,0.6932,-0.081,0.036,-0.084,-0.0026,-0.0475,0.0213,897,2019-08-07 16:27:33:841
7.2891,-6.6445,0.6555,-0.081,0.036,-0.084,-0.0026,-0.0475,0.0213,903,2019-08-07 16:27:33:847
7.2891,-6.6445,0.6555,-0.081,0.036,-0.084,-0.0026,-0.0475,0.0213,907,2019-08-07 16:27:33:851
7.2891,-6.6445,0.6555,-0.103,0.1658,-0.0928,-0.0101,-0.0784,0.0277,913,2019-08-07 16:27:33:857
7.3752,-6.7638,0.6366,-0.103,0.1658,-0.0928,-0.0101,-0.0784,0.0277,918,2019-08-07 16:27:33:862
7.3752,-6.7638,0.6366,-0.103,0.1658,-0.0928,-0.0079,-0.0858,0.0213,923,2019-08-07 16:27:33:867
7.4805,-6.7447,0.6508,-0.103,0.1658,-0.0928,-0.0079,-0.0858,0.0213,929,2019-08-07 16:27:33:873
7.4805,-6.7447,0.6508,-0.2486,0.1433,-0.0487,6.0E-4,-0.072,0.0181,932,2019-08-07 16:27:33:876
7.4805,-6.7447,0.6508,-0.2486,0.1433,-0.0487,6.0E-4,-0.072,0.0181,938,2019-08-07 16:27:33:882
7.5331,-6.7352,0.5942,-0.2486,0.1433,-0.0487,0.0091,-0.0347,0.0096,942,2019-08-07 16:27:33:886
7.5331,-6.7352,0.5942,-0.2486,0.1433,-0.0487,0.0091,-0.0347,0.0096,949,2019-08-07 16:27:33:893
7.5331,-6.7352,0.5942,-0.2254,0.0754,-0.0799,0.0166,0.0132,0.0075,953,2019-08-07 16:27:33:897
7.5236,-6.697,0.6178,-0.2254,0.0754,-0.0799,0.0166,0.0132,0.0075,957,2019-08-07 16:27:33:901
7.5236,-6.697,0.6178,-0.2254,0.0754,-0.0799,0.0251,0.0441,0.0096,963,2019-08-07 16:27:33:907
7.3848,-6.6301,0.6791,-0.2254,0.0754,-0.0799,0.0251,0.0441,0.0096,967,2019-08-07 16:27:33:911
7.3848,-6.6301,0.6791,-0.0595,0.0268,-0.0851,0.0229,0.0484,0.0096,973,2019-08-07 16:27:33:917
7.3848,-6.6301,0.6791,-0.0595,0.0268,-0.0851,0.0229,0.0484,0.0096,978,2019-08-07 16:27:33:922
7.27,-6.654,0.5706,-0.0595,0.0268,-0.0851,0.008,0.0218,0.0128,982,2019-08-07 16:27:33:926
7.27,-6.654,0.5706,-0.0595,0.0268,-0.0851,0.008,0.0218,0.0128,988,2019-08-07 16:27:33:932
7.337,-6.697,0.6178,-0.1286,0.1347,-0.0423,6.0E-4,-0.0027,0.0139,993,2019-08-07 16:27:33:937
7.337,-6.697,0.6178,-0.1286,0.1347,-0.0423,6.0E-4,-0.0027,0.0139,998,2019-08-07 16:27:33:942
7.337,-6.697,0.6178,-0.1286,0.1347,-0.0423,-0.0079,-0.0368,0.0118,1003,2019-08-07 16:27:33:947
7.4136,-6.7256,0.6131,-0.1286,0.1347,-0.0423,-0.0079,-0.0368,0.0118,1008,2019-08-07 16:27:33:952
7.4136,-6.7256,0.6131,-0.1444,0.2043,-0.0144,-0.0016,-0.0496,0.0192,1013,2019-08-07 16:27:33:957
7.4567,-6.7925,0.5565,-0.1444,0.2043,-0.0144,-0.0016,-0.0496,0.0192,1018,2019-08-07 16:27:33:962
7.4567,-6.7925,0.5565,-0.1444,0.2043,-0.0144,-0.0016,-0.0496,0.0192,1023,2019-08-07 16:27:33:967
7.4567,-6.7925,0.5565,-0.1218,0.2598,0.0384,0.0016,-0.0464,0.0277,1027,2019-08-07 16:27:33:971
7.4136,-6.802,0.5329,-0.1218,0.2598,0.0384,0.0016,-0.0464,0.0277,1033,2019-08-07 16:27:33:977
7.4136,-6.802,0.5329,-0.1218,0.2598,0.0384,0.0134,-0.0251,0.0363,1038,2019-08-07 16:27:33:982
7.4136,-6.802,0.5329,-0.1218,0.2598,0.0384,0.0134,-0.0251,0.0363,1042,2019-08-07 16:27:33:986
7.4328,-6.7256,0.5895,-0.1836,0.1401,-0.0263,0.0134,-0.0251,0.0363,1048,2019-08-07 16:27:33:992
7.4328,-6.7256,0.5895,-0.1836,0.1401,-0.0263,0.0283,-0.0123,0.0448,1052,2019-08-07 16:27:33:996
7.4328,-6.7256,0.5895,-0.1836,0.1401,-0.0263,0.0283,-0.0123,0.0448,1058,2019-08-07 16:27:34:002
7.3945,-6.6683,0.6084,-0.1836,0.1401,-0.0263,0.0304,-0.0049,0.049,1063,2019-08-07 16:27:34:007
7.3945,-6.6683,0.6084,-0.161,0.1194,-0.056,0.0304,-0.0049,0.049,1068,2019-08-07 16:27:34:012
7.4184,-6.6827,0.6791,-0.161,0.1194,-0.056,0.0283,0.0132,0.0554,1073,2019-08-07 16:27:34:017
7.4184,-6.6827,0.6791,-0.2221,0.1204,-0.0952,0.0283,0.0132,0.0554,1077,2019-08-07 16:27:34:021
7.4184,-6.6827,0.6791,-0.2221,0.1204,-0.0952,0.0315,0.0218,0.0597,1083,2019-08-07 16:27:34:027
7.4184,-6.7447,0.6697,-0.2221,0.1204,-0.0952,0.0315,0.0218,0.0597,1088,2019-08-07 16:27:34:032
7.4184,-6.7447,0.6697,-0.2221,0.1204,-0.0952,0.0304,0.0367,0.0597,1093,2019-08-07 16:27:34:037
7.2749,-6.802,0.7074,-0.0774,0.2028,-0.0908,0.0304,0.0367,0.0597,1098,2019-08-07 16:27:34:042
7.2749,-6.802,0.7074,-0.0774,0.2028,-0.0908,0.0304,0.0367,0.0597,1103,2019-08-07 16:27:34:047
7.2749,-6.802,0.7074,-0.0774,0.2028,-0.0908,0.0325,0.0356,0.0512,1108,2019-08-07 16:27:34:052
7.2415,-6.8784,0.7121,-0.0774,0.2028,-0.0908,0.0325,0.0356,0.0512,1113,2019-08-07 16:27:34:057
7.2415,-6.8784,0.7121,0.0242,0.2518,-0.1177,0.0379,0.0324,0.0426,1118,2019-08-07 16:27:34:062
7.2415,-6.8784,0.7121,0.0242,0.2518,-0.1177,0.0379,0.0324,0.0426,1123,2019-08-07 16:27:34:067
7.1745,-6.8784,0.6838,0.0451,0.2633,-0.089,0.0474,0.0228,0.0224,1128,2019-08-07 16:27:34:072
7.1745,-6.8784,0.6838,0.0451,0.2633,-0.089,0.0474,0.0228,0.0224,1133,2019-08-07 16:27:34:077
7.1745,-6.8784,0.6838,0.0451,0.2633,-0.089,0.0496,-0.0049,0.0086,1138,2019-08-07 16:27:34:082
7.1745,-6.8784,0.6838,0.0451,0.2633,-0.089,0.0496,-0.0049,0.0086,1143,2019-08-07 16:27:34:087
7.098,-6.8259,0.7357,-0.0199,0.1225,-0.1139,0.0453,-0.0283,0.0011,1148,2019-08-07 16:27:34:092
7.098,-6.8259,0.7357,-0.0199,0.1225,-0.1139,0.0453,-0.0283,0.0011,1153,2019-08-07 16:27:34:097
7.098,-6.8259,0.7357,-0.0199,0.1225,-0.1139,0.0453,-0.0283,0.0011,1157,2019-08-07 16:27:34:101
7.409,-6.697,0.6838,-0.0199,0.1225,-0.1139,0.0421,-0.0294,-0.0085,1163,2019-08-07 16:27:34:107
7.409,-6.697,0.6838,-0.2915,0.0523,-0.0457,0.0421,-0.0294,-0.0085,1168,2019-08-07 16:27:34:112
7.409,-6.697,0.6838,-0.2915,0.0523,-0.0457,0.0421,-0.0113,-0.0096,1172,2019-08-07 16:27:34:116
7.4712,-6.654,0.7168,-0.2915,0.0523,-0.0457,0.0421,-0.0113,-0.0096,1178,2019-08-07 16:27:34:122
7.4712,-6.654,0.7168,-0.2915,0.0523,-0.0457,0.0379,0.0015,-0.0085,1183,2019-08-07 16:27:34:127
7.409,-6.6302,0.7074,-0.2131,0.0071,-0.0453,0.0379,0.0015,-0.0085,1188,2019-08-07 16:27:34:132
7.409,-6.6302,0.7074,-0.2131,0.0071,-0.0453,0.0379,0.0015,-0.0085,1193,2019-08-07 16:27:34:137
7.409,-6.6302,0.7074,-0.2131,0.0071,-0.0453,0.0325,0.0154,-0.0042,1198,2019-08-07 16:27:34:142
7.3324,-6.6111,0.6791,-0.2131,0.0071,-0.0453,0.0325,0.0186,0.0043,1203,2019-08-07 16:27:34:147
7.3324,-6.6111,0.6791,-0.0691,0.0513,-0.0995,0.0325,0.0186,0.0043,1207,2019-08-07 16:27:34:151
7.2368,-6.6684,0.6508,-0.0691,0.0513,-0.0995,0.0283,0.0271,0.0032,1213,2019-08-07 16:27:34:157
7.2368,-6.6684,0.6508,-0.0691,0.0513,-0.0995,0.0283,0.0271,0.0032,1218,2019-08-07 16:27:34:162
7.2368,-6.6684,0.6508,-0.0691,0.0513,-0.0995,0.0283,0.0271,0.0032,1223,2019-08-07 16:27:34:167
7.1459,-6.6588,0.7593,0.0876,0.0507,-0.1102,0.0283,0.025,0.0032,1228,2019-08-07 16:27:34:172
7.1459,-6.6588,0.7593,0.0876,0.0507,-0.1102,0.0283,0.025,0.0032,1233,2019-08-07 16:27:34:177
7.1459,-6.6588,0.7593,0.0876,0.0507,-0.1102,0.0251,0.0175,-0.0053,1238,2019-08-07 16:27:34:182
7.0502,-6.6684,0.7168,0.0876,0.0507,-0.1102,0.0251,0.0175,-0.0053,1243,2019-08-07 16:27:34:187
7.0502,-6.6684,0.7168,0.2353,0.0699,-0.0184,0.0208,0.0164,-0.0096,1249,2019-08-07 16:27:34:193
7.0502,-6.6684,0.7168,0.2353,0.0699,-0.0184,0.0208,0.0164,-0.0096,1252,2019-08-07 16:27:34:196
7.0502,-6.6684,0.7168,0.2353,0.0699,-0.0184,0.0208,0.0164,-0.0096,1258,2019-08-07 16:27:34:202
7.0598,-6.6779,0.6838,0.1591,0.0657,-0.0491,0.0112,-0.0049,-0.0181,1263,2019-08-07 16:27:34:207
7.0598,-6.6779,0.6838,0.1591,0.0657,-0.0491,0.0112,-0.0049,-0.0181,1268,2019-08-07 16:27:34:212
7.1651,-6.7113,0.5848,0.1591,0.0657,-0.0491,0.0016,-0.024,-0.0223,1273,2019-08-07 16:27:34:217
7.1651,-6.7113,0.5848,0.0418,0.0634,0.0436,0.0016,-0.024,-0.0223,1277,2019-08-07 16:27:34:221
7.1651,-6.7113,0.5848,0.0418,0.0634,0.0436,-0.0026,-0.0304,-0.0266,1284,2019-08-07 16:27:34:228
7.2512,-6.7734,0.5377,0.0418,0.0634,0.0436,-0.0026,-0.0304,-0.0266,1288,2019-08-07 16:27:34:232
7.2512,-6.7734,0.5377,0.0418,0.0634,0.0436,-0.0026,-0.0304,-0.0266,1292,2019-08-07 16:27:34:236
7.2895,-6.7829,0.4812,-0.0638,0.1773,0.1454,-0.0069,-0.0368,-0.0341,1298,2019-08-07 16:27:34:242
7.2895,-6.7829,0.4812,-0.0638,0.1773,0.1454,-0.0069,-0.0368,-0.0341,1303,2019-08-07 16:27:34:247
7.2895,-6.7829,0.4812,-0.0638,0.1773,0.1454,-0.0069,-0.0368,-0.0341,1307,2019-08-07 16:27:34:251
7.2847,-6.7591,0.4906,-0.0573,0.1933,0.1186,-0.0069,-0.0421,-0.0351,1314,2019-08-07 16:27:34:258
7.2847,-6.7591,0.4906,-0.0573,0.1933,0.1186,-0.0069,-0.0421,-0.0351,1317,2019-08-07 16:27:34:261
7.2991,-6.7066,0.5896,-0.0573,0.1933,0.1186,0.0102,-0.04,-0.0319,1323,2019-08-07 16:27:34:267
7.2991,-6.7066,0.5896,-0.0573,0.1933,0.1186,0.0102,-0.04,-0.0319,1328,2019-08-07 16:27:34:272
7.2991,-6.7066,0.5896,-0.0903,0.1221,0.0648,0.0261,-0.0571,-0.0277,1333,2019-08-07 16:27:34:277
7.3278,-6.6827,0.5613,-0.0903,0.1221,0.0648,0.0261,-0.0571,-0.0277,1337,2019-08-07 16:27:34:281
7.3278,-6.6827,0.5613,-0.0903,0.1221,0.0648,0.024,-0.0592,-0.0287,1343,2019-08-07 16:27:34:287
7.3278,-6.6827,0.5613,-0.0903,0.1221,0.0648,0.024,-0.0592,-0.0287,1347,2019-08-07 16:27:34:291
7.3517,-6.6015,0.5519,-0.1144,0.0073,0.0592,0.0176,-0.0645,-0.0223,1353,2019-08-07 16:27:34:297
7.3517,-6.6015,0.5519,-0.1144,0.0073,0.0592,0.0176,-0.0645,-0.0223,1357,2019-08-07 16:27:34:301
7.3852,-6.6063,0.5849,-0.1144,0.0073,0.0592,0.0102,-0.0528,-0.0213,1363,2019-08-07 16:27:34:307
7.3852,-6.6063,0.5849,-0.1628,-0.0078,-0.009,0.0102,-0.0528,-0.0213,1368,2019-08-07 16:27:34:312
7.3852,-6.6063,0.5849,-0.1628,-0.0078,-0.009,0.0102,-0.0528,-0.0213,1373,2019-08-07 16:27:34:317
7.3757,-6.6302,0.665,-0.1628,-0.0078,-0.009,0.007,-0.039,-0.0181,1378,2019-08-07 16:27:34:322
7.3757,-6.6302,0.665,-0.1628,-0.0078,-0.009,0.007,-0.039,-0.0181,1382,2019-08-07 16:27:34:326
7.414,-6.5347,0.599,-0.1688,-0.0519,9.0E-4,0.0016,-0.0272,-0.0213,1388,2019-08-07 16:27:34:332
7.414,-6.5347,0.599,-0.1688,-0.0519,9.0E-4,0.0016,-0.0272,-0.0213,1392,2019-08-07 16:27:34:336
7.414,-6.5347,0.599,-0.1688,-0.0519,9.0E-4,-0.0101,-0.0208,-0.0255,1397,2019-08-07 16:27:34:341
7.3374,-6.4822,0.5849,-0.1688,-0.0519,9.0E-4,-0.0101,-0.0208,-0.0255,1403,2019-08-07 16:27:34:347
7.3374,-6.4822,0.5849,-0.1688,-0.0519,9.0E-4,-0.0101,-0.0208,-0.0255,1408,2019-08-07 16:27:34:352
7.3374,-6.4822,0.5849,-0.0353,-0.0285,0.001,-0.0229,-0.0176,-0.0245,1413,2019-08-07 16:27:34:357
7.3087,-6.5252,0.6037,-0.0353,-0.0285,0.001,-0.0229,-0.0176,-0.0245,1418,2019-08-07 16:27:34:362
7.3087,-6.5252,0.6037,-0.0353,-0.0285,0.001,-0.0271,-0.0251,-0.0309,1423,2019-08-07 16:27:34:367
7.2944,-6.5347,0.6273,-0.0353,-0.0285,0.001,-0.0271,-0.0251,-0.0309,1427,2019-08-07 16:27:34:371
7.2944,-6.5347,0.6273,-0.0543,-0.0905,-0.0157,-0.0271,-0.0421,-0.0383,1434,2019-08-07 16:27:34:378
7.2944,-6.5347,0.6273,-0.0543,-0.0905,-0.0157,-0.0271,-0.0421,-0.0383,1437,2019-08-07 16:27:34:381
7.3375,-6.4106,0.5755,-0.0796,-0.1636,0.007,-0.0346,-0.0666,-0.0394,1442,2019-08-07 16:27:34:386
7.3375,-6.4106,0.5755,-0.0796,-0.1636,0.007,-0.0346,-0.0666,-0.0394,1448,2019-08-07 16:27:34:392
7.3375,-6.4106,0.5755,-0.0796,-0.1636,0.007,-0.0463,-0.0943,-0.0436,1453,2019-08-07 16:27:34:397
7.4954,-6.4774,0.5896,-0.0796,-0.1636,0.007,-0.0463,-0.0943,-0.0436,1458,2019-08-07 16:27:34:402
7.4954,-6.4774,0.5896,-0.2584,-0.0611,-0.03,-0.0538,-0.0975,-0.0479,1462,2019-08-07 16:27:34:406
7.5863,-6.4345,0.6037,-0.2584,-0.0611,-0.03,-0.0538,-0.0975,-0.0479,1468,2019-08-07 16:27:34:412
7.5863,-6.4345,0.6037,-0.2584,-0.0611,-0.03,-0.0538,-0.0975,-0.0479,1473,2019-08-07 16:27:34:417
7.5863,-6.4345,0.6037,-0.2584,-0.0611,-0.03,-0.0548,-0.0549,-0.0575,1477,2019-08-07 16:27:34:421
7.5767,-6.3199,0.5707,-0.3016,-0.2384,-0.0248,-0.0548,-0.0549,-0.0575,1483,2019-08-07 16:27:34:427
7.5767,-6.3199,0.5707,-0.3016,-0.2384,-0.0248,-0.0676,5.0E-4,-0.0756,1487,2019-08-07 16:27:34:431
7.4332,-6.3294,0.6037,-0.1525,-0.2231,-0.063,-0.0676,5.0E-4,-0.0756,1493,2019-08-07 16:27:34:437
7.4332,-6.3294,0.6037,-0.1525,-0.2231,-0.063,-0.0836,0.0271,-0.0873,1498,2019-08-07 16:27:34:442
7.4332,-6.3294,0.6037,-0.1525,-0.2231,-0.063,-0.0836,0.0271,-0.0873,1503,2019-08-07 16:27:34:447
7.4332,-6.3294,0.6037,-0.1525,-0.2231,-0.063,-0.0836,0.0271,-0.0873,1508,2019-08-07 16:27:34:452
7.1844,-6.2053,0.632,0.1852,-0.2718,-0.1164,-0.0985,0.0377,-0.098,1512,2019-08-07 16:27:34:456
7.1844,-6.2053,0.632,0.1852,-0.2718,-0.1164,-0.0985,0.0377,-0.098,1518,2019-08-07 16:27:34:462
7.1844,-6.2053,0.632,0.1852,-0.2718,-0.1164,-0.1145,-0.0059,-0.1129,1522,2019-08-07 16:27:34:466
7.0888,-6.3103,0.665,0.1852,-0.2718,-0.1164,-0.1145,-0.0059,-0.1129,1528,2019-08-07 16:27:34:472
7.0888,-6.3103,0.665,0.1236,-0.2133,-0.1258,-0.1251,-0.0645,-0.1246,1533,2019-08-07 16:27:34:477
7.0888,-6.3103,0.665,0.1236,-0.2133,-0.1258,-0.1251,-0.0645,-0.1246,1538,2019-08-07 16:27:34:482
7.4093,-6.339,0.5613,-0.092,-0.1754,-0.0554,-0.1347,-0.1146,-0.1321,1543,2019-08-07 16:27:34:487
7.4093,-6.339,0.5613,-0.092,-0.1754,-0.0554,-0.1347,-0.1146,-0.1321,1548,2019-08-07 16:27:34:492
7.4093,-6.339,0.5613,-0.092,-0.1754,-0.0554,-0.1475,-0.1295,-0.1363,1553,2019-08-07 16:27:34:497
7.8351,-6.4011,0.4011,-0.092,-0.1754,-0.0554,-0.1475,-0.1295,-0.1363,1558,2019-08-07 16:27:34:502
7.8351,-6.4011,0.4011,-0.5735,-0.0782,0.1238,-0.1528,-0.1071,-0.1353,1563,2019-08-07 16:27:34:507
8.0313,-6.4011,0.3445,-0.5735,-0.0782,0.1238,-0.1528,-0.1071,-0.1353,1568,2019-08-07 16:27:34:512
8.0313,-6.4011,0.3445,-0.5735,-0.0782,0.1238,-0.1528,-0.1071,-0.1353,1572,2019-08-07 16:27:34:516
8.0313,-6.4011,0.3445,-0.5735,-0.0782,0.1238,-0.1539,-0.0347,-0.1374,1578,2019-08-07 16:27:34:522
8.0887,-6.3629,0.2597,-0.729,-0.1085,0.1788,-0.1539,-0.0347,-0.1374,1582,2019-08-07 16:27:34:526
8.0887,-6.3629,0.2597,-0.729,-0.1085,0.1788,-0.1539,-0.0347,-0.1374,1588,2019-08-07 16:27:34:532
8.0265,-6.2531,0.4388,-0.6563,-0.2068,-0.0066,-0.1518,0.0761,-0.1438,1593,2019-08-07 16:27:34:537
8.0265,-6.2531,0.4388,-0.6563,-0.2068,-0.0066,-0.1518,0.0761,-0.1438,1598,2019-08-07 16:27:34:542
8.0265,-6.2531,0.4388,-0.6563,-0.2068,-0.0066,-0.1518,0.1219,-0.1651,1603,2019-08-07 16:27:34:547
8.0265,-6.2531,0.4388,-0.6563,-0.2068,-0.0066,-0.1518,0.1219,-0.1651,1608,2019-08-07 16:27:34:552
7.9835,-5.9475,0.6603,-0.6563,-0.2068,-0.0066,-0.1571,0.1358,-0.1992,1613,2019-08-07 16:27:34:557
7.9835,-5.9475,0.6603,-0.6356,-0.6072,-0.3228,-0.1571,0.1358,-0.1992,1618,2019-08-07 16:27:34:562
7.9835,-5.9475,0.6603,-0.6356,-0.6072,-0.3228,-0.1816,0.1432,-0.3174,1623,2019-08-07 16:27:34:567
8.0266,-5.3651,0.9102,-0.6356,-0.6072,-0.3228,-0.1816,0.1432,-0.3174,1627,2019-08-07 16:27:34:571
8.0266,-5.3651,0.9102,-0.586,-1.3094,-0.5379,-0.2029,0.1432,-0.4218,1633,2019-08-07 16:27:34:577
8.0266,-5.3651,0.9102,-0.586,-1.3094,-0.5379,-0.2029,0.1432,-0.4218,1637,2019-08-07 16:27:34:581
8.0266,-5.3651,0.9102,-0.586,-1.3094,-0.5379,-0.2029,0.1432,-0.4218,1643,2019-08-07 16:27:34:587
8.0553,-4.7636,0.9432,-0.586,-1.3094,-0.5379,-0.2189,0.1528,-0.5038,1648,2019-08-07 16:27:34:592
8.0553,-4.7636,0.9432,-0.6972,-2.3901,-0.3271,-0.2189,0.1528,-0.5038,1653,2019-08-07 16:27:34:597
8.0553,-4.7636,0.9432,-0.6972,-2.3901,-0.3271,-0.2956,0.2071,-0.6753,1657,2019-08-07 16:27:34:601
8.2945,-3.4795,0.6886,-0.6972,-2.3901,-0.3271,-0.2956,0.2071,-0.6753,1663,2019-08-07 16:27:34:607
8.2945,-3.4795,0.6886,-0.6972,-2.3901,-0.3271,-0.3819,0.2678,-0.7872,1668,2019-08-07 16:27:34:612
8.2945,-3.4795,0.6886,-0.6972,-2.3901,-0.3271,-0.3819,0.2678,-0.7872,1673,2019-08-07 16:27:34:617
8.3854,-2.4388,0.3775,-0.761,-3.7193,0.0498,-0.466,0.2998,-0.8639,1678,2019-08-07 16:27:34:622
8.3854,-2.4388,0.3775,-0.761,-3.7193,0.0498,-0.466,0.2998,-0.8639,1683,2019-08-07 16:27:34:627
8.3854,-2.4388,0.3775,-0.761,-3.7193,0.0498,-0.466,0.2998,-0.8639,1688,2019-08-07 16:27:34:632
8.572,-1.6989,-0.1316,-0.7148,-4.5927,0.6715,-0.6599,0.3435,-1.0375,1693,2019-08-07 16:27:34:637
8.572,-1.6989,-0.1316,-0.7148,-4.5927,0.6715,-0.6599,0.3435,-1.0375,1698,2019-08-07 16:27:34:642
8.3855,-1.0257,-0.3107,-0.7148,-4.5927,0.6715,-0.8335,0.3701,-1.2133,1703,2019-08-07 16:27:34:647
8.3855,-1.0257,-0.3107,-0.7148,-4.5927,0.6715,-0.8335,0.3701,-1.2133,1707,2019-08-07 16:27:34:651
8.1606,-0.2619,-0.8198,-0.2308,-5.5026,1.1723,-0.9805,0.3531,-1.3411,1713,2019-08-07 16:27:34:657
8.1606,-0.2619,-0.8198,-0.2308,-5.5026,1.1723,-0.9805,0.3531,-1.3411,1718,2019-08-07 16:27:34:662
8.1606,-0.2619,-0.8198,-0.2308,-5.5026,1.1723,-1.1446,0.3531,-1.4743,1723,2019-08-07 16:27:34:667
7.8831,0.2011,-1.1827,0.1414,-5.8355,1.4945,-1.1446,0.3531,-1.4743,1727,2019-08-07 16:27:34:671
7.8831,0.2011,-1.1827,0.1414,-5.8355,1.4945,-1.3278,0.3904,-1.6309,1733,2019-08-07 16:27:34:677
7.4956,0.8217,-1.2393,0.1414,-5.8355,1.4945,-1.3278,0.3904,-1.6309,1738,2019-08-07 16:27:34:682
7.4956,0.8217,-1.2393,0.1414,-5.8355,1.4945,-1.5249,0.3829,-1.8173,1743,2019-08-07 16:27:34:687
7.4956,0.8217,-1.2393,1.0643,-6.345,1.4356,-1.5249,0.3829,-1.8173,1748,2019-08-07 16:27:34:692
6.8211,1.2275,-1.2487,1.0643,-6.345,1.4356,-1.5249,0.3829,-1.8173,1753,2019-08-07 16:27:34:697
6.8211,1.2275,-1.2487,1.0643,-6.345,1.4356,-1.7816,0.2678,-2.1166,1758,2019-08-07 16:27:34:702
6.0412,1.8624,-1.2582,1.0643,-6.345,1.4356,-1.7816,0.2678,-2.1166,1764,2019-08-07 16:27:34:708
6.0412,1.8624,-1.2582,2.5776,-6.9373,1.2782,-2.0117,0.1081,-2.3915,1767,2019-08-07 16:27:34:711
6.0412,1.8624,-1.2582,2.5776,-6.9373,1.2782,-2.0117,0.1081,-2.3915,1773,2019-08-07 16:27:34:717
5.6777,2.7551,-1.1544,2.9397,-7.4429,1.1042,-2.2791,-0.1412,-2.6983,1778,2019-08-07 16:27:34:722
5.6777,2.7551,-1.1544,2.9397,-7.4429,1.1042,-2.2791,-0.1412,-2.6983,1783,2019-08-07 16:27:34:727
5.6777,2.7551,-1.1544,2.9397,-7.4429,1.1042,-2.7467,-0.6419,-3.1531,1788,2019-08-07 16:27:34:732
5.6777,2.7551,-1.1544,2.9397,-7.4429,1.1042,-2.7467,-0.6419,-3.1531,1793,2019-08-07 16:27:34:737
6.9311,4.1156,-1.9416,1.6708,-8.3558,1.747,-2.7467,-0.6419,-3.1531,1798,2019-08-07 16:27:34:742
6.9311,4.1156,-1.9416,1.6708,-8.3558,1.747,-3.1004,-0.9007,-3.4397,1803,2019-08-07 16:27:34:747
6.9311,4.1156,-1.9416,1.6708,-8.3558,1.747,-3.1004,-0.9007,-3.4397,1808,2019-08-07 16:27:34:752
9.3807,4.5835,-3.4029,1.6708,-8.3558,1.747,-3.3667,-0.9689,-3.657,1814,2019-08-07 16:27:34:758
9.3807,4.5835,-3.4029,-1.2907,-7.9328,2.9542,-3.3667,-0.9689,-3.657,1818,2019-08-07 16:27:34:762
11.1269,4.3782,-4.1288,-1.2907,-7.9328,2.9542,-3.7609,-0.938,-3.984,1823,2019-08-07 16:27:34:767
11.1269,4.3782,-4.1288,-1.9802,-7.2084,3.2554,-3.7609,-0.938,-3.984,1828,2019-08-07 16:27:34:772
11.1269,4.3782,-4.1288,-1.9802,-7.2084,3.2554,-3.9473,-0.8645,-4.1438,1833,2019-08-07 16:27:34:777
11.5241,3.7624,-4.8689,-1.9802,-7.2084,3.2554,-3.9473,-0.8645,-4.1438,1837,2019-08-07 16:27:34:781
11.5241,3.7624,-4.8689,-1.9802,-7.2084,3.2554,-4.1859,-0.7431,-4.3271,1843,2019-08-07 16:27:34:787
10.9691,2.9699,-5.3827,-1.5957,-5.1147,3.9752,-4.1859,-0.7431,-4.3271,1848,2019-08-07 16:27:34:792
10.9691,2.9699,-5.3827,-1.5957,-5.1147,3.9752,-4.1859,-0.7431,-4.3271,1852,2019-08-07 16:27:34:796
10.9691,2.9699,-5.3827,-1.5957,-5.1147,3.9752,-4.4363,-0.6685,-4.441,1858,2019-08-07 16:27:34:802
10.3711,2.5642,-5.2319,-1.5957,-5.1147,3.9752,-4.4363,-0.6685,-4.441,1863,2019-08-07 16:27:34:807
10.3711,2.5642,-5.2319,-0.2023,-3.6529,3.2443,-4.546,-0.7314,-4.5018,1868,2019-08-07 16:27:34:812
10.3711,2.5642,-5.2319,-0.2023,-3.6529,3.2443,-4.546,-0.7314,-4.5018,1873,2019-08-07 16:27:34:817
10.3711,2.5642,-5.2319,-0.2023,-3.6529,3.2443,-4.546,-0.7314,-4.5018,1878,2019-08-07 16:27:34:822
9.2946,2.8076,-4.7133,0.4093,-3.3039,2.9082,-4.6482,-0.9593,-4.604,1882,2019-08-07 16:27:34:826
9.2946,2.8076,-4.7133,0.4093,-3.3039,2.9082,-4.8048,-1.3833,-4.7649,1888,2019-08-07 16:27:34:832
9.2946,2.8076,-4.7133,0.4093,-3.3039,2.9082,-4.8048,-1.3833,-4.7649,1893,2019-08-07 16:27:34:837
8.8354,3.7385,-5.345,0.5773,-3.2457,3.7392,-4.9678,-1.5942,-4.8778,1898,2019-08-07 16:27:34:842
8.8354,3.7385,-5.345,0.5773,-3.2457,3.7392,-4.9678,-1.5942,-4.8778,1903,2019-08-07 16:27:34:847
9.7061,4.6694,-6.6319,0.5773,-3.2457,3.7392,-4.9678,-1.5942,-4.8778,1908,2019-08-07 16:27:34:852
9.7061,4.6694,-6.6319,0.5773,-3.2457,3.7392,-5.1755,-1.8009,-4.9726,1913,2019-08-07 16:27:34:857
9.7061,4.6694,-6.6319,-1.1138,-3.0364,5.4524,-5.1755,-1.8009,-4.9726,1917,2019-08-07 16:27:34:861
10.6103,4.9176,-7.9894,-1.1138,-3.0364,5.4524,-5.428,-1.819,-5.0727,1923,2019-08-07 16:27:34:867
10.6103,4.9176,-7.9894,-1.1138,-3.0364,5.4524,-5.428,-1.819,-5.0727,1928,2019-08-07 16:27:34:872
11.639,4.9081,-9.182,-1.1138,-3.0364,5.4524,-5.5324,-1.8584,-5.1186,1932,2019-08-07 16:27:34:876
11.639,4.9081,-9.182,-3.2325,-1.5601,6.822,-5.5324,-1.8584,-5.1186,1938,2019-08-07 16:27:34:882
12.2131,4.2779,-9.2952,-3.2325,-1.5601,6.822,-5.5473,-1.9639,-5.1303,1944,2019-08-07 16:27:34:888
12.2131,4.2779,-9.2952,-3.3415,0.1404,7.0741,-5.5473,-1.9639,-5.1303,1947,2019-08-07 16:27:34:891
12.2131,4.2779,-9.2952,-3.3415,0.1404,7.0741,-5.5473,-1.9639,-5.1303,1953,2019-08-07 16:27:34:897
12.2131,4.2779,-9.2952,-3.3415,0.1404,7.0741,-5.4887,-2.0544,-5.0983,1957,2019-08-07 16:27:34:901
11.639,1.1272,-9.5073,-3.139,3.1694,7.1567,-5.4887,-2.0544,-5.0983,1963,2019-08-07 16:27:34:907
11.639,1.1272,-9.5073,-3.139,3.1694,7.1567,-5.3854,-2.2632,-5.1154,1968,2019-08-07 16:27:34:912
11.3998,-3.6466,-8.0978,-3.139,3.1694,7.1567,-5.3854,-2.2632,-5.1154,1972,2019-08-07 16:27:34:916
11.3998,-3.6466,-8.0978,-4.1814,10.3623,4.8452,-5.1905,-2.6861,-5.1835,1978,2019-08-07 16:27:34:922
11.3998,-3.6466,-8.0978,-4.1814,10.3623,4.8452,-5.1905,-2.6861,-5.1835,1983,2019-08-07 16:27:34:927
13.3948,-7.1267,-5.9531,-4.1814,10.3623,4.8452,-4.6504,-3.5756,-5.4296,1987,2019-08-07 16:27:34:931
13.3948,-7.1267,-5.9531,-4.1814,10.3623,4.8452,-4.6504,-3.5756,-5.4296,1993,2019-08-07 16:27:34:937
14.6196,-9.948,-8.6399,-7.4789,16.2885,6.3939,-4.0272,-4.267,-5.5766,1998,2019-08-07 16:27:34:942
14.6196,-9.948,-8.6399,-7.4789,16.2885,6.3939,-4.0272,-4.267,-5.5766,2003,2019-08-07 16:27:34:947
14.6196,-9.948,-8.6399,-7.4789,16.2885,6.3939,-4.0272,-4.267,-5.5766,2008,2019-08-07 16:27:34:952
15.7487,-10.7309,-13.6083,-9.0574,17.518,11.2849,-3.4147,-4.6824,-5.2421,2012,2019-08-07 16:27:34:956
15.7487,-10.7309,-13.6083,-9.0574,17.518,11.2849,-3.4147,-4.6824,-5.2421,2019,2019-08-07 16:27:34:963
15.7487,-10.7309,-13.6083,-9.0574,17.518,11.2849,-2.1885,-3.9634,-4.244,2023,2019-08-07 16:27:34:967
19.9923,-12.8314,-23.1962,-14.6961,20.9001,21.8809,-2.1885,-3.9634,-4.244,2028,2019-08-07 16:27:34:972
19.9923,-12.8314,-23.1962,-14.6961,20.9001,21.8809,-0.9965,-2.276,-3.641,2033,2019-08-07 16:27:34:977
19.9923,-12.8314,-23.1962,-14.6961,20.9001,21.8809,-0.9965,-2.276,-3.641,2038,2019-08-07 16:27:34:982
19.9923,-12.8314,-23.1962,-14.6961,20.9001,21.8809,-0.9965,-2.276,-3.641,2043,2019-08-07 16:27:34:987
22.3988,-17.5002,-26.6042,-17.696,27.6031,21.8092,0.0261,-0.7431,-3.2703,2048,2019-08-07 16:27:34:992
22.3988,-17.5002,-26.6042,-17.696,27.6031,21.8092,1.771,1.0732,-2.6301,2053,2019-08-07 16:27:34:997
22.3988,-17.5002,-26.6042,-17.696,27.6031,21.8092,1.771,1.0732,-2.6301,2057,2019-08-07 16:27:35:001
22.8199,-21.9494,-21.716,-17.5567,30.5559,18.0587,1.771,1.0732,-2.6301,2063,2019-08-07 16:27:35:007
22.8199,-21.9494,-21.716,-17.5567,30.5559,18.0587,3.0238,1.2937,-1.8844,2068,2019-08-07 16:27:35:012
22.8199,-21.9494,-21.716,-17.5567,30.5559,18.0587,3.0238,1.2937,-1.8844,2072,2019-08-07 16:27:35:016
22.0592,-25.8258,-20.4716,-17.5567,30.5559,18.0587,4.0166,0.7696,-0.9299,2078,2019-08-07 16:27:35:022
22.0592,-25.8258,-20.4716,-17.0668,34.8399,19.3179,4.0166,0.7696,-0.9299,2083,2019-08-07 16:27:35:027
22.0114,-28.5516,-29.2392,-17.0668,34.8399,19.3179,4.8987,0.2828,0.6072,2088,2019-08-07 16:27:35:032
22.0114,-28.5516,-29.2392,-17.0668,34.8399,19.3179,4.8987,0.2828,0.6072,2093,2019-08-07 16:27:35:037
22.0114,-28.5516,-29.2392,-17.6222,35.1313,31.8239,5.3599,0.9741,1.5702,2098,2019-08-07 16:27:35:042
23.0735,-27.1147,-37.1019,-17.6222,35.1313,31.8239,5.3599,0.9741,1.5702,2103,2019-08-07 16:27:35:047
23.0735,-27.1147,-37.1019,-17.6222,35.1313,31.8239,5.3599,0.9741,1.5702,2108,2019-08-07 16:27:35:052
25.5756,-24.0451,-40.1894,-17.6222,35.1313,31.8239,5.8979,1.8253,2.268,2113,2019-08-07 16:27:35:057
25.5756,-24.0451,-40.1894,-17.6222,35.1313,31.8239,5.8979,1.8253,2.268,2118,2019-08-07 16:27:35:062
25.5756,-24.0451,-40.1894,-21.5217,28.2681,36.585,7.8313,2.8032,3.688,2123,2019-08-07 16:27:35:067
27.1784,-20.207,-42.716,-21.5217,28.2681,36.585,7.8313,2.8032,3.688,2128,2019-08-07 16:27:35:072
27.1784,-20.207,-42.716,-20.4654,24.5757,39.7673,9.4942,2.6253,4.8534,2132,2019-08-07 16:27:35:076
27.1784,-20.207,-42.716,-20.4654,24.5757,39.7673,9.4942,2.6253,4.8534,2138,2019-08-07 16:27:35:082
27.1784,-20.207,-42.716,-20.4654,24.5757,39.7673,9.4942,2.6253,4.8534,2142,2019-08-07 16:27:35:086
25.7288,-15.9774,-50.5551,-19.2976,20.9708,45.0831,10.6575,2.2865,5.8302,2148,2019-08-07 16:27:35:092
25.7288,-15.9774,-50.5551,-19.2976,20.9708,45.0831,10.6575,2.2865,5.8302,2152,2019-08-07 16:27:35:096
25.7288,-15.9774,-50.5551,-19.2976,20.9708,45.0831,12.3214,-0.252,7.5187,2158,2019-08-07 16:27:35:102
34.637,-12.9126,-59.2945,-29.1629,15.2552,54.5123,12.3214,-0.252,7.5187,2163,2019-08-07 16:27:35:107
34.637,-12.9126,-59.2945,-29.1629,15.2552,54.5123,13.0298,-3.7695,8.1557,2167,2019-08-07 16:27:35:111
40.6126,-9.886,-72.413,-29.1629,15.2552,54.5123,13.0298,-3.7695,8.1557,2173,2019-08-07 16:27:35:117
40.6126,-9.886,-72.413,-29.1629,15.2552,54.5123,13.7158,-6.5158,8.5104,2177,2019-08-07 16:27:35:121
40.6126,-9.886,-72.413,-35.1215,6.0112,72.9272,13.7158,-6.5158,8.5104,2183,2019-08-07 16:27:35:127
42.3205,-3.8949,-84.8527,-35.1215,6.0112,72.9272,13.7158,-6.5158,8.5104,2188,2019-08-07 16:27:35:132
42.3205,-3.8949,-84.8527,-37.1589,-0.39,80.8664,15.1476,-5.0713,9.1155,2192,2019-08-07 16:27:35:136
43.2774,2.6691,-89.9436,-37.1589,-0.39,80.8664,15.1476,-5.0713,9.1155,2198,2019-08-07 16:27:35:142
43.2774,2.6691,-89.9436,-37.1589,-0.39,80.8664,15.8229,-0.2083,10.315,2202,2019-08-07 16:27:35:146
43.2774,2.6691,-89.9436,-37.1589,-0.39,80.8664,15.8229,-0.2083,10.315,2208,2019-08-07 16:27:35:152
56.5106,19.6687,-70.4379,-48.0384,-23.907,67.1861,16.5473,2.5891,10.7965,2213,2019-08-07 16:27:35:157
56.5106,19.6687,-70.4379,-48.0384,-23.907,67.1861,16.5473,2.5891,10.7965,2217,2019-08-07 16:27:35:161
56.5106,19.6687,-70.4379,-48.0384,-23.907,67.1861,16.5473,2.5891,10.7965,2223,2019-08-07 16:27:35:167
60.9074,31.3312,-62.2924,-48.0384,-23.907,67.1861,17.3558,3.5212,9.0036,2228,2019-08-07 16:27:35:172
60.9074,31.3312,-62.2924,-50.6008,-47.0017,59.6734,17.3558,3.5212,9.0036,2233,2019-08-07 16:27:35:177
60.9074,31.3312,-62.2924,-50.6008,-47.0017,59.6734,15.5151,5.3864,4.6446,2238,2019-08-07 16:27:35:182
40.0146,46.4307,-68.0621,-36.3272,-55.2094,65.7013,15.5151,5.3864,4.6446,2243,2019-08-07 16:27:35:187
40.0146,46.4307,-68.0621,-36.3272,-55.2094,65.7013,11.1464,7.4775,2.8603,2248,2019-08-07 16:27:35:192
40.0146,46.4307,-68.0621,-36.3272,-55.2094,65.7013,11.1464,7.4775,2.8603,2253,2019-08-07 16:27:35:197
6.0609,60.3751,-48.1416,-36.3272,-55.2094,65.7013,11.1464,7.4775,2.8603,2258,2019-08-07 16:27:35:202
6.0609,60.3751,-48.1416,8.2541,-71.8582,36.8126,1.3492,11.2912,1.4765,2263,2019-08-07 16:27:35:207
-9.885,61.8072,-19.7126,8.2541,-71.8582,36.8126,1.3492,11.2912,1.4765,2268,2019-08-07 16:27:35:212
-9.885,61.8072,-19.7126,8.2541,-71.8582,36.8126,-1.8871,6.1566,2.0507,2273,2019-08-07 16:27:35:217
-9.885,61.8072,-19.7126,8.2541,-71.8582,36.8126,-1.8871,6.1566,2.0507,2278,2019-08-07 16:27:35:222
-6.9857,59.5206,23.7534,10.1582,-68.7966,-24.1084,-0.7771,-1.9394,2.6248,2283,2019-08-07 16:27:35:227
-6.9857,59.5206,23.7534,10.1582,-68.7966,-24.1084,-0.7771,-1.9394,2.6248,2287,2019-08-07 16:27:35:231
-6.9857,59.5206,23.7534,10.1582,-68.7966,-24.1084,-0.7771,-1.9394,2.6248,2293,2019-08-07 16:27:35:237
-1.8092,47.0418,14.4389,4.7341,-56.3935,-14.9142,2.4645,-10.0098,1.8003,2298,2019-08-07 16:27:35:242
-1.8092,47.0418,14.4389,4.7341,-56.3935,-14.9142,2.4645,-10.0098,1.8003,2303,2019-08-07 16:27:35:247
-1.8092,47.0418,14.4389,4.7341,-56.3935,-14.9142,5.5666,-7.0367,-0.621,2308,2019-08-07 16:27:35:252
5.6447,36.0429,-18.4022,-9.0921,-41.4367,18.0967,5.2363,-0.5652,-1.1238,2314,2019-08-07 16:27:35:258
5.6447,36.0429,-18.4022,-9.0921,-41.4367,18.0967,5.2363,-0.5652,-1.1238,2318,2019-08-07 16:27:35:262
5.6447,36.0429,-18.4022,-9.0921,-41.4367,18.0967,5.2363,-0.5652,-1.1238,2323,2019-08-07 16:27:35:267
14.1702,36.9834,-8.8897,-9.0921,-41.4367,18.0967,3.1271,1.7166,-1.0759,2328,2019-08-07 16:27:35:272
14.1702,36.9834,-8.8897,-9.4585,-38.2729,16.3244,3.1271,1.7166,-1.0759,2332,2019-08-07 16:27:35:276
14.1702,36.9834,-8.8897,-9.4585,-38.2729,16.3244,-0.8943,1.3864,-1.5712,2338,2019-08-07 16:27:35:282
14.1702,36.9834,-8.8897,-9.4585,-38.2729,16.3244,-0.8943,1.3864,-1.5712,2342,2019-08-07 16:27:35:286
9.142,24.643,-11.8264,-9.4585,-38.2729,16.3244,-3.7481,1.8359,-2.3116,2348,2019-08-07 16:27:35:292
9.142,24.643,-11.8264,-1.7004,-26.4893,3.5921,-3.7481,1.8359,-2.3116,2352,2019-08-07 16:27:35:296
9.142,24.643,-11.8264,-1.7004,-26.4893,3.5921,-3.7481,1.8359,-2.3116,2358,2019-08-07 16:27:35:302
5.1376,14.6992,2.0322,-1.7004,-26.4893,3.5921,-5.1947,1.2319,-2.4927,2363,2019-08-07 16:27:35:307
5.1376,14.6992,2.0322,-1.7004,-26.4893,3.5921,-5.1947,1.2319,-2.4927,2368,2019-08-07 16:27:35:312
5.1376,14.6992,2.0322,-1.7004,-26.4893,3.5921,-5.1947,-0.5854,-2.5172,2373,2019-08-07 16:27:35:317
9.0559,5.1706,10.748,-5.0949,-14.1301,-11.2718,-5.1947,-0.5854,-2.5172,2378,2019-08-07 16:27:35:322
9.0559,5.1706,10.748,-5.0949,-14.1301,-11.2718,-3.7151,-1.7412,-2.8155,2383,2019-08-07 16:27:35:327
9.0559,5.1706,10.748,-5.0949,-14.1301,-11.2718,-3.7151,-1.7412,-2.8155,2388,2019-08-07 16:27:35:332
9.4387,-3.4079,-6.2877,-5.3125,-4.7484,6.1368,-3.1739,-2.5221,-2.8985,2393,2019-08-07 16:27:35:337
9.4387,-3.4079,-6.2877,-5.3125,-4.7484,6.1368,-3.1739,-2.5221,-2.8985,2398,2019-08-07 16:27:35:342
9.4387,-3.4079,-6.2877,-5.3125,-4.7484,6.1368,-3.5382,-3.2827,-3.1585,2403,2019-08-07 16:27:35:347
9.4387,-3.4079,-6.2877,-5.3125,-4.7484,6.1368,-3.5382,-3.2827,-3.1585,2407,2019-08-07 16:27:35:351
12.692,-8.979,-12.1705,-8.4851,2.8092,10.5292,-4.1039,-3.4947,-3.4567,2413,2019-08-07 16:27:35:357
12.692,-8.979,-12.1705,-8.4851,2.8092,10.5292,-4.1039,-3.4947,-3.4567,2418,2019-08-07 16:27:35:362
12.692,-8.979,-12.1705,-8.4851,2.8092,10.5292,-4.1039,-3.4947,-3.4567,2423,2019-08-07 16:27:35:367
11.6251,-14.2111,-12.2553,-6.5107,6.3316,9.4284,-4.4757,-3.2742,-3.4365,2428,2019-08-07 16:27:35:372
11.6251,-14.2111,-12.2553,-6.5107,6.3316,9.4284,-4.4757,-3.2742,-3.4365,2433,2019-08-07 16:27:35:377
14.4717,-21.7919,-6.7307,-6.5107,6.3316,9.4284,-4.0091,-2.4848,-2.5417,2438,2019-08-07 16:27:35:382
14.4717,-21.7919,-6.7307,-6.5107,6.3316,9.4284,-4.0091,-2.4848,-2.5417,2443,2019-08-07 16:27:35:387
14.4717,-21.7919,-6.7307,-10.575,18.202,2.1136,-4.0091,-2.4848,-2.5417,2448,2019-08-07 16:27:35:392
16.5242,-30.4707,-6.4856,-10.575,18.202,2.1136,-3.0589,-2.0022,-2.1933,2453,2019-08-07 16:27:35:397
16.5242,-30.4707,-6.4856,-10.575,18.202,2.1136,-3.0589,-2.0022,-2.1933,2458,2019-08-07 16:27:35:402
16.5242,-30.4707,-6.4856,-10.575,18.202,2.1136,-2.0138,-1.1032,-1.9984,2463,2019-08-07 16:27:35:407
13.003,-33.588,-9.3846,-7.4668,26.7477,5.0491,-1.0104,0.2657,-1.6596,2468,2019-08-07 16:27:35:412
13.003,-33.588,-9.3846,-7.4668,26.7477,5.0491,-1.0104,0.2657,-1.6596,2473,2019-08-07 16:27:35:417
9.9937,-33.2682,-8.2344,-4.3453,26.5634,3.8324,-0.2178,1.2031,-1.3379,2478,2019-08-07 16:27:35:422
9.9937,-33.2682,-8.2344,-4.3453,26.5634,3.8324,-0.2178,1.2031,-1.3379,2483,2019-08-07 16:27:35:427
9.9937,-33.2682,-8.2344,-4.3453,26.5634,3.8324,-0.2178,1.2031,-1.3379,2488,2019-08-07 16:27:35:432
12.8738,-32.3373,8.5137,-4.3453,26.5634,3.8324,1.8094,1.3533,-1.1845,2493,2019-08-07 16:27:35:437
12.8738,-32.3373,8.5137,-8.4101,24.1259,-13.4311,1.8094,1.3533,-1.1845,2498,2019-08-07 16:27:35:442
12.8738,-32.3373,8.5137,-8.4101,24.1259,-13.4311,1.8094,1.3533,-1.1845,2503,2019-08-07 16:27:35:447
12.8738,-32.3373,8.5137,-8.4101,24.1259,-13.4311,4.2819,-0.5322,-1.812,2508,2019-08-07 16:27:35:452
12.9169,-23.8351,0.6087,-8.4101,24.1259,-13.4311,4.2819,-0.5322,-1.812,2513,2019-08-07 16:27:35:457
12.9169,-23.8351,0.6087,-5.5676,10.5344,-4.2224,4.8134,0.303,-1.6138,2517,2019-08-07 16:27:35:461
12.759,-11.4853,0.8114,-5.5676,10.5344,-4.2224,4.8134,0.303,-1.6138,2523,2019-08-07 16:27:35:467
12.759,-11.4853,0.8114,-5.5676,10.5344,-4.2224,3.305,0.1368,-0.6476,2528,2019-08-07 16:27:35:472
12.759,-11.4853,0.8114,-5.5676,10.5344,-4.2224,3.305,0.1368,-0.6476,2532,2019-08-07 16:27:35:476
11.7161,-9.8813,-10.4688,-5.464,2.9654,7.416,0.9785,-0.5769,0.6072,2538,2019-08-07 16:27:35:482
11.7161,-9.8813,-10.4688,-5.464,2.9654,7.416,0.9785,-0.5769,0.6072,2543,2019-08-07 16:27:35:487
14.4862,-13.2038,-0.6405,-5.464,2.9654,7.416,0.3745,1.282,0.7404,2548,2019-08-07 16:27:35:492
14.4862,-13.2038,-0.6405,-5.464,2.9654,7.416,0.3745,1.282,0.7404,2553,2019-08-07 16:27:35:497
14.4862,-13.2038,-0.6405,-8.3556,7.6354,-12.9599,0.3745,1.282,0.7404,2557,2019-08-07 16:27:35:501
13.582,-14.3973,6.237,-8.3556,7.6354,-12.9599,1.5995,0.4915,0.6349,2563,2019-08-07 16:27:35:507
13.582,-14.3973,6.237,-8.3556,7.6354,-12.9599,1.5995,0.4915,0.6349,2568,2019-08-07 16:27:35:512
13.582,-14.3973,6.237,-8.3556,7.6354,-12.9599,1.5995,0.4915,0.6349,2573,2019-08-07 16:27:35:517
9.9986,-10.1438,-5.9294,-3.6655,2.2303,4.259,3.3444,2.5326,0.8618,2578,2019-08-07 16:27:35:522
9.9986,-10.1438,-5.9294,-3.6655,2.2303,4.259,3.3444,2.5326,0.8618,2583,2019-08-07 16:27:35:527
9.9986,-10.1438,-5.9294,-3.6655,2.2303,4.259,3.7865,5.3641,1.2602,2588,2019-08-07 16:27:35:532
8.6925,-6.3582,4.7898,-3.6655,2.2303,4.259,3.7865,5.3641,1.2602,2593,2019-08-07 16:27:35:537
8.6925,-6.3582,4.7898,-1.0205,-2.4297,-1.9252,3.7865,5.3641,1.2602,2598,2019-08-07 16:27:35:542
8.6925,-6.3582,4.7898,-1.0205,-2.4297,-1.9252,2.9034,3.5968,1.4019,2603,2019-08-07 16:27:35:547
8.6925,-6.3582,4.7898,-1.0205,-2.4297,-1.9252,2.9034,3.5968,1.4019,2608,2019-08-07 16:27:35:552
3.1524,-2.9497,-4.6331,2.9358,-4.6956,3.7851,1.9596,3.9025,1.5266,2614,2019-08-07 16:27:35:558
3.1524,-2.9497,-4.6331,2.9358,-4.6956,3.7851,1.9596,3.9025,1.5266,2618,2019-08-07 16:27:35:562
1.8989,-2.2957,3.701,2.9358,-4.6956,3.7851,1.9596,3.9025,1.5266,2623,2019-08-07 16:27:35:567
1.8989,-2.2957,3.701,3.7877,-4.9731,-2.6857,1.8509,2.8085,1.5116,2628,2019-08-07 16:27:35:572
2.5926,-3.4223,0.9387,3.7877,-4.9731,-2.6857,1.8509,2.8085,1.5116,2633,2019-08-07 16:27:35:577
2.5926,-3.4223,0.9387,3.7877,-4.9731,-2.6857,1.6677,2.098,1.0664,2637,2019-08-07 16:27:35:581
2.5926,-3.4223,0.9387,3.7877,-4.9731,-2.6857,1.6677,2.098,1.0664,2643,2019-08-07 16:27:35:587
2.918,-3.9283,-0.9044,2.9296,-4.1079,1.5366,1.2906,1.7177,0.6637,2648,2019-08-07 16:27:35:592
2.918,-3.9283,-0.9044,2.9296,-4.1079,1.5366,1.2906,1.7177,0.6637,2653,2019-08-07 16:27:35:597
2.918,-3.9283,-0.9044,2.9296,-4.1079,1.5366,1.2906,1.7177,0.6637,2657,2019-08-07 16:27:35:601
2.2386,-3.6276,-1.8755,3.4237,-4.3629,2.4467,0.5822,1.1392,0.2589,2663,2019-08-07 16:27:35:607
2.2386,-3.6276,-1.8755,3.4237,-4.3629,2.4467,0.3457,1.038,0.0544,2669,2019-08-07 16:27:35:613
4.1667,-4.9929,-0.2681,3.4237,-4.3629,2.4467,0.3457,1.038,0.0544,2672,2019-08-07 16:27:35:616
4.1667,-4.9929,-0.2681,0.9789,-2.655,1.0756,0.3457,1.038,0.0544,2678,2019-08-07 16:27:35:622
4.1667,-4.9929,-0.2681,0.9789,-2.655,1.0756,0.5044,1.331,-0.2098,2683,2019-08-07 16:27:35:627
4.8652,-5.3652,-0.2681,0.9789,-2.655,1.0756,0.5044,1.331,-0.2098,2688,2019-08-07 16:27:35:632
4.8652,-5.3652,-0.2681,0.9789,-2.655,1.0756,0.5705,1.6697,-0.4388,2693,2019-08-07 16:27:35:637
4.4586,-4.3198,-0.4378,1.2137,-3.6216,1.4359,0.5705,1.6697,-0.4388,2698,2019-08-07 16:27:35:642
4.4586,-4.3198,-0.4378,1.2137,-3.6216,1.4359,0.5705,1.6697,-0.4388,2703,2019-08-07 16:27:35:647
4.4586,-4.3198,-0.4378,1.2137,-3.6216,1.4359,0.2754,1.9542,-0.6114,2708,2019-08-07 16:27:35:652
3.9706,-3.4557,0.0996,1.7347,-4.4438,1.0331,0.2754,1.9542,-0.6114,2713,2019-08-07 16:27:35:657
3.9706,-3.4557,0.0996,1.7347,-4.4438,1.0331,0.0176,1.9446,-0.719,2718,2019-08-07 16:27:35:662
3.9706,-3.4557,0.0996,1.7347,-4.4438,1.0331,0.0176,1.9446,-0.719,2723,2019-08-07 16:27:35:667
3.7218,-3.5751,0.7878,2.1609,-3.9816,0.3246,-0.1614,1.8572,-0.8255,2728,2019-08-07 16:27:35:672
3.7218,-3.5751,0.7878,2.1609,-3.9816,0.3246,-0.1614,1.8572,-0.8255,2733,2019-08-07 16:27:35:677
3.7218,-3.5751,0.7878,2.1609,-3.9816,0.3246,-0.5161,1.4439,-0.963,2737,2019-08-07 16:27:35:681
3.6118,-4.5203,0.6841,2.1609,-3.9816,0.3246,-0.5161,1.4439,-0.963,2743,2019-08-07 16:27:35:687
3.6118,-4.5203,0.6841,2.1609,-3.9816,0.3246,-0.5161,1.4439,-0.963,2747,2019-08-07 16:27:35:691
3.6118,-4.5203,0.6841,1.9157,-2.4447,1.1262,-0.6908,1.1744,-0.964,2753,2019-08-07 16:27:35:697
4.5878,-6.0575,-0.0418,1.9157,-2.4447,1.1262,-0.6908,1.1744,-0.964,2758,2019-08-07 16:27:35:702
4.5878,-6.0575,-0.0418,1.2475,-1.3532,1.6759,-0.7664,0.9688,-0.963,2763,2019-08-07 16:27:35:707
4.5878,-6.0575,-0.0418,1.2475,-1.3532,1.6759,-0.7664,0.9688,-0.963,2767,2019-08-07 16:27:35:711
5.2002,-6.9883,-0.5792,1.2475,-1.3532,1.6759,-0.7664,0.9688,-0.963,2773,2019-08-07 16:27:35:717
5.2002,-6.9883,-0.5792,1.2475,-1.3532,1.6759,-0.7472,0.89,-1.0013,2777,2019-08-07 16:27:35:721
5.4394,-7.0743,-0.0512,0.6934,-0.4707,1.5546,-0.7472,0.89,-1.0013,2783,2019-08-07 16:27:35:727
5.4394,-7.0743,-0.0512,0.6934,-0.4707,1.5546,-0.694,1.0146,-1.0077,2788,2019-08-07 16:27:35:732
5.8174,-6.8499,0.0336,0.6934,-0.4707,1.5546,-0.694,1.0146,-1.0077,2793,2019-08-07 16:27:35:737
5.8174,-6.8499,0.0336,0.2073,-0.7528,1.4246,-0.7568,1.1797,-1.0279,2799,2019-08-07 16:27:35:743
5.8174,-6.8499,0.0336,0.2073,-0.7528,1.4246,-0.7568,1.1797,-1.0279,2803,2019-08-07 16:27:35:747
5.8174,-6.8499,0.0336,0.2073,-0.7528,1.4246,-0.7568,1.1797,-1.0279,2808,2019-08-07 16:27:35:752
6.0088,-6.6971,0.0714,0.2073,-0.7528,1.4246,-0.8442,1.3661,-1.0674,2813,2019-08-07 16:27:35:757
6.0088,-6.6971,0.0714,0.2073,-0.7528,1.4246,-0.8442,1.3661,-1.0674,2818,2019-08-07 16:27:35:762
6.0088,-6.6971,0.0714,1.1852,-0.5418,0.8089,-0.9741,1.6506,-1.1654,2823,2019-08-07 16:27:35:767
4.741,-6.8833,0.8963,1.1852,-0.5418,0.8089,-0.9741,1.6506,-1.1654,2828,2019-08-07 16:27:35:772
4.741,-6.8833,0.8963,1.1852,-0.5418,0.8089,-1.037,1.6559,-1.2389,2833,2019-08-07 16:27:35:777
4.741,-6.8833,0.8963,1.1852,-0.5418,0.8089,-1.037,1.6559,-1.2389,2838,2019-08-07 16:27:35:782
3.3535,-6.9406,2.1172,3.0923,-0.2915,-0.5734,-1.0924,1.4684,-1.2719,2843,2019-08-07 16:27:35:787
3.3535,-6.9406,2.1172,3.0923,-0.2915,-0.5734,-1.0924,1.4684,-1.2719,2848,2019-08-07 16:27:35:792
3.3535,-6.9406,2.1172,3.0923,-0.2915,-0.5734,-1.0924,1.4684,-1.2719,2853,2019-08-07 16:27:35:797
3.3535,-6.9406,2.1172,3.0923,-0.2915,-0.5734,-1.2,0.6503,-1.2346,2858,2019-08-07 16:27:35:802
3.0043,-7.4228,1.7872,3.3714,0.5138,-0.062,-1.2,0.6503,-1.2346,2863,2019-08-07 16:27:35:807
3.0043,-7.4228,1.7872,3.3714,0.5138,-0.062,-1.2607,0.0505,-1.2218,2868,2019-08-07 16:27:35:812
3.0043,-7.4228,1.7872,3.3714,0.5138,-0.062,-1.2607,0.0505,-1.2218,2873,2019-08-07 16:27:35:817
5.1955,-8.4062,1.4054,3.3714,0.5138,-0.062,-1.2831,-0.3266,-1.257,2878,2019-08-07 16:27:35:822
5.1955,-8.4062,1.4054,0.7522,1.3996,-0.2207,-1.2831,-0.3266,-1.257,2883,2019-08-07 16:27:35:827
5.1955,-8.4062,1.4054,0.7522,1.3996,-0.2207,-1.2831,-0.3266,-1.257,2888,2019-08-07 16:27:35:832
7.8603,-8.2725,1.0943,-1.025,1.3405,0.1147,-1.2575,-0.3117,-1.257,2893,2019-08-07 16:27:35:837
7.8603,-8.2725,1.0943,-1.025,1.3405,0.1147,-1.2575,-0.3117,-1.257,2899,2019-08-07 16:27:35:843
7.8603,-8.2725,1.0943,-1.025,1.3405,0.1147,-1.2959,0.3776,-1.1941,2902,2019-08-07 16:27:35:846
9.865,-8.4969,0.5145,-1.025,1.3405,0.1147,-1.2959,0.3776,-1.1941,2908,2019-08-07 16:27:35:852
9.865,-8.4969,0.5145,-2.7559,1.9184,0.3456,-1.2543,1.1243,-1.1121,2913,2019-08-07 16:27:35:857
9.176,-9.0459,1.1084,-2.7559,1.9184,0.3456,-1.2543,1.1243,-1.1121,2918,2019-08-07 16:27:35:862
9.176,-9.0459,1.1084,-2.7559,1.9184,0.3456,-1.2543,1.1243,-1.1121,2923,2019-08-07 16:27:35:867
9.176,-9.0459,1.1084,-2.7559,1.9184,0.3456,-1.102,1.9403,-1.0013,2928,2019-08-07 16:27:35:872
7.2815,-9.1605,1.9805,-0.1698,2.4949,-0.8714,-1.102,1.9403,-1.0013,2933,2019-08-07 16:27:35:877
7.2815,-9.1605,1.9805,-0.1698,2.4949,-0.8714,-1.0104,2.1747,-0.9225,2937,2019-08-07 16:27:35:881
5.6453,-8.6783,2.5603,1.4994,2.0637,-1.3613,-1.0104,2.1747,-0.9225,2943,2019-08-07 16:27:35:887
5.6453,-8.6783,2.5603,1.4994,2.0637,-1.3613,-0.9997,1.9659,-0.8319,2948,2019-08-07 16:27:35:892
5.6453,-8.6783,2.5603,1.4994,2.0637,-1.3613,-0.9997,1.9659,-0.8319,2953,2019-08-07 16:27:35:897
4.3583,-8.2773,2.9657,1.4994,2.0637,-1.3613,-0.9997,1.9659,-0.8319,2958,2019-08-07 16:27:35:902
4.3583,-8.2773,2.9657,2.9378,1.8062,-1.7152,-0.9837,1.5206,-0.7414,2962,2019-08-07 16:27:35:906
4.2691,-8.4775,3.1017,2.9378,1.8062,-1.7152,-0.9837,1.5206,-0.7414,2968,2019-08-07 16:27:35:912
4.2691,-8.4775,3.1017,2.9378,1.8062,-1.7152,-0.939,0.8292,-0.653,2973,2019-08-07 16:27:35:917
4.2691,-8.4775,3.1017,2.9378,1.8062,-1.7152,-0.939,0.8292,-0.653,2978,2019-08-07 16:27:35:922
4.8576,-8.5205,2.5973,2.3732,2.035,-1.2222,-0.8921,0.3627,-0.5901,2983,2019-08-07 16:27:35:927
4.8576,-8.5205,2.5973,2.3732,2.035,-1.2222,-0.8921,0.3627,-0.5901,2988,2019-08-07 16:27:35:932
4.8576,-8.5205,2.5973,2.3732,2.035,-1.2222,-0.8921,0.3627,-0.5901,2992,2019-08-07 16:27:35:936
5.9197,-8.5061,1.6829,1.3378,2.0429,-0.3446,-0.8506,0.1283,-0.5422,2998,2019-08-07 16:27:35:942
5.9197,-8.5061,1.6829,1.3378,2.0429,-0.3446,-0.8506,0.1283,-0.5422,3003,2019-08-07 16:27:35:947
5.9197,-8.5061,1.6829,1.3378,2.0429,-0.3446,-0.7962,0.1528,-0.5145,3008,2019-08-07 16:27:35:952
7.4841,-8.3963,0.9286,1.3378,2.0429,-0.3446,-0.7962,0.1528,-0.5145,3012,2019-08-07 16:27:35:956
7.4841,-8.3963,0.9286,1.3378,2.0429,-0.3446,-0.7962,0.1528,-0.5145,3018,2019-08-07 16:27:35:962
7.9817,-8.4727,0.8061,-0.495,1.9897,0.4274,-0.7653,0.3573,-0.5092,3022,2019-08-07 16:27:35:966
7.9817,-8.4727,0.8061,-0.495,1.9897,0.4274,-0.7653,0.3573,-0.5092,3028,2019-08-07 16:27:35:972
7.9817,-8.4727,0.8061,-0.204,2.3486,0.593,-0.5896,0.9049,-0.4591,3032,2019-08-07 16:27:35:976
7.1301,-8.7353,0.6788,-0.204,2.3486,0.593,-0.5896,0.9049,-0.4591,3038,2019-08-07 16:27:35:982
7.1301,-8.7353,0.6788,-0.204,2.3486,0.593,-0.5896,0.9049,-0.4591,3042,2019-08-07 16:27:35:986
7.1301,-8.7353,0.6788,0.7537,2.388,0.5444,-0.4383,1.0711,-0.4101,3048,2019-08-07 16:27:35:992
5.8909,-8.6398,0.9899,0.7537,2.388,0.5444,-0.4383,1.0711,-0.4101,3052,2019-08-07 16:27:35:996
5.8909,-8.6398,0.9899,0.7537,2.388,0.5444,-0.3147,0.874,-0.31,3058,2019-08-07 16:27:36:002
5.4747,-8.53,1.2775,1.8974,2.2081,0.109,-0.3147,0.874,-0.31,3062,2019-08-07 16:27:36:006
5.4747,-8.53,1.2775,1.8974,2.2081,0.109,-0.2199,0.4809,-0.229,3068,2019-08-07 16:27:36:012
5.4747,-8.53,1.2775,1.8974,2.2081,0.109,-0.2199,0.4809,-0.229,3073,2019-08-07 16:27:36:017
5.58,-8.2388,1.1879,1.7932,1.9221,0.2165,-0.1699,0.172,-0.1779,3079,2019-08-07 16:27:36:023
5.58,-8.2388,1.1879,1.7932,1.9221,0.2165,-0.1699,0.172,-0.1779,3083,2019-08-07 16:27:36:027
5.58,-8.2388,1.1879,1.7932,1.9221,0.2165,-0.0996,-0.35,-0.0511,3087,2019-08-07 16:27:36:031
6.221,-7.8712,1.0135,1.0009,1.5963,0.4586,-0.0996,-0.35,-0.0511,3094,2019-08-07 16:27:36:038
6.221,-7.8712,1.0135,1.0009,1.5963,0.4586,-0.0772,-0.481,0.0149,3098,2019-08-07 16:27:36:042
6.221,-7.8712,1.0135,1.0009,1.5963,0.4586,-0.0772,-0.481,0.0149,3103,2019-08-07 16:27:36:047
7.0009,-7.6373,0.9051,1.0009,1.5963,0.4586,-0.0772,-0.481,0.0149,3107,2019-08-07 16:27:36:051
7.0009,-7.6373,0.9051,1.0009,1.5963,0.4586,-0.0676,-0.4629,0.0618,3113,2019-08-07 16:27:36:057
7.5271,-7.475,0.8202,0.0893,1.1806,0.4839,-0.0676,-0.4629,0.0618,3118,2019-08-07 16:27:36:062
7.5271,-7.475,0.8202,0.0893,1.1806,0.4839,-0.091,-0.2296,0.0895,3123,2019-08-07 16:27:36:067
7.5271,-7.475,0.8202,0.0893,1.1806,0.4839,-0.091,-0.2296,0.0895,3127,2019-08-07 16:27:36:071
7.7233,-7.2936,0.7636,-0.2496,0.9419,0.4679,-0.1145,0.0441,0.0863,3133,2019-08-07 16:27:36:077
7.7233,-7.2936,0.7636,-0.2496,0.9419,0.4679,-0.1145,0.0441,0.0863,3138,2019-08-07 16:27:36:082
7.3453,-7.2936,0.8815,-0.2496,0.9419,0.4679,-0.1187,0.3083,0.0895,3143,2019-08-07 16:27:36:087
7.3453,-7.2936,0.8815,-0.2496,0.9419,0.4679,-0.1187,0.3083,0.0895,3147,2019-08-07 16:27:36:091
7.3453,-7.2936,0.8815,0.8504,0.9626,0.0449,-0.0889,0.4639,0.1066,3153,2019-08-07 16:27:36:097
7.3453,-7.2936,0.8815,0.8504,0.9626,0.0449,-0.0889,0.4639,0.1066,3157,2019-08-07 16:27:36:101
6.355,-7.2554,1.3152,0.8504,0.9626,0.0449,-0.0623,0.3818,0.1236,3163,2019-08-07 16:27:36:107
6.355,-7.2554,1.3152,0.8504,0.9626,0.0449,-0.0623,0.3818,0.1236,3168,2019-08-07 16:27:36:112
5.843,-6.8926,1.5603,0.8504,0.9626,0.0449,-0.0623,0.3818,0.1236,3172,2019-08-07 16:27:36:116
5.843,-6.8926,1.5603,1.3963,0.3952,-0.1744,-0.0644,0.1571,0.1279,3178,2019-08-07 16:27:36:122
6.2641,-6.42,1.6781,1.3963,0.3952,-0.1744,-0.0644,0.1571,0.1279,3183,2019-08-07 16:27:36:127
6.2641,-6.42,1.6781,1.3963,0.3952,-0.1744,-0.0996,-0.1412,0.1193,3188,2019-08-07 16:27:36:132
6.2641,-6.42,1.6781,1.3963,0.3952,-0.1744,-0.0996,-0.1412,0.1193,3193,2019-08-07 16:27:36:137
6.9147,-6.1049,1.6404,0.5596,-0.3212,-0.4156,-0.1198,-0.3159,0.1183,3198,2019-08-07 16:27:36:142
6.9147,-6.1049,1.6404,0.5596,-0.3212,-0.4156,-0.1198,-0.3159,0.1183,3202,2019-08-07 16:27:36:146
7.4745,-6.1144,1.3434,0.5596,-0.3212,-0.4156,-0.1464,-0.333,0.1332,3208,2019-08-07 16:27:36:152
7.4745,-6.1144,1.3434,0.5596,-0.3212,-0.4156,-0.1464,-0.333,0.1332,3212,2019-08-07 16:27:36:156
7.4745,-6.1144,1.3434,-0.5905,-0.2078,-0.0132,-0.1805,-0.1977,0.1342,3218,2019-08-07 16:27:36:162
8.173,-6.4104,1.1879,-0.5905,-0.2078,-0.0132,-0.1805,-0.1977,0.1342,3222,2019-08-07 16:27:36:166
8.173,-6.4104,1.1879,-0.93,-0.0417,0.0717,-0.1805,-0.1977,0.1342,3228,2019-08-07 16:27:36:172
8.173,-6.4104,1.1879,-0.93,-0.0417,0.0717,-0.1933,0.0154,0.1193,3233,2019-08-07 16:27:36:177
8.1107,-6.568,1.2492,-0.93,-0.0417,0.0717,-0.1933,0.0154,0.1193,3237,2019-08-07 16:27:36:181
8.1107,-6.568,1.2492,-0.93,-0.0417,0.0717,-0.1752,0.2167,0.0927,3243,2019-08-07 16:27:36:187
7.4744,-6.6014,1.2209,-0.308,0.1119,0.0179,-0.1752,0.2167,0.0927,3247,2019-08-07 16:27:36:191
7.4744,-6.6014,1.2209,-0.308,0.1119,0.0179,-0.1486,0.3616,0.0714,3253,2019-08-07 16:27:36:197
7.4744,-6.6014,1.2209,-0.308,0.1119,0.0179,-0.1486,0.3616,0.0714,3259,2019-08-07 16:27:36:203
6.685,-6.6873,1.4047,-0.308,0.1119,0.0179,-0.1305,0.3041,0.0671,3263,2019-08-07 16:27:36:207
6.685,-6.6873,1.4047,0.72,0.2245,-0.3088,-0.1305,0.3041,0.0671,3268,2019-08-07 16:27:36:212
6.685,-6.6873,1.4047,0.72,0.2245,-0.3088,-0.1305,0.3041,0.0671,3272,2019-08-07 16:27:36:216
6.4315,-6.778,1.4943,0.72,0.2245,-0.3088,-0.1155,0.1134,0.0597,3278,2019-08-07 16:27:36:222
6.4315,-6.778,1.4943,0.72,0.2245,-0.3088,-0.1155,0.1134,0.0597,3283,2019-08-07 16:27:36:227
6.618,-6.7875,1.2774,0.6631,0.2996,-0.0883,-0.0974,-0.2147,0.0362,3288,2019-08-07 16:27:36:232
6.618,-6.7875,1.2774,0.6631,0.2996,-0.0883,-0.0974,-0.2147,0.0362,3293,2019-08-07 16:27:36:237
7.0247,-6.8162,1.0795,0.6631,0.2996,-0.0883,-0.074,-0.3777,0.0245,3299,2019-08-07 16:27:36:243
7.0247,-6.8162,1.0795,0.6631,0.2996,-0.0883,-0.074,-0.3777,0.0245,3302,2019-08-07 16:27:36:246
7.0247,-6.8162,1.0795,0.0662,0.2665,0.269,-0.0538,-0.4544,0.0224,3308,2019-08-07 16:27:36:252
7.484,-6.7589,0.7212,0.0662,0.2665,0.269,-0.0538,-0.4544,0.0224,3313,2019-08-07 16:27:36:257
7.484,-6.7589,0.7212,0.0662,0.2665,0.269,-0.0538,-0.4544,0.0224,3318,2019-08-07 16:27:36:262
7.484,-6.7589,0.7212,0.0662,0.2665,0.269,-0.025,-0.4097,0.0128,3323,2019-08-07 16:27:36:267
8.1107,-6.6968,0.5468,-1.0391,0.1495,0.6384,-0.025,-0.4097,0.0128,3327,2019-08-07 16:27:36:271
8.1107,-6.6968,0.5468,-1.0391,0.1495,0.6384,-0.0058,-0.2286,-0.0053,3333,2019-08-07 16:27:36:277
8.1107,-6.6968,0.5468,-1.0391,0.1495,0.6384,-0.0058,-0.2286,-0.0053,3338,2019-08-07 16:27:36:282
8.393,-6.5536,0.4337,-1.0391,0.1495,0.6384,0.024,0.025,-0.0181,3343,2019-08-07 16:27:36:287
8.393,-6.5536,0.4337,-0.8448,0.0921,0.5533,0.024,0.025,-0.0181,3347,2019-08-07 16:27:36:291
7.7184,-6.6061,0.6741,-0.8448,0.0921,0.5533,0.0719,0.2636,-0.0149,3353,2019-08-07 16:27:36:297
7.7184,-6.6061,0.6741,-0.0131,0.1085,0.3585,0.0719,0.2636,-0.0149,3358,2019-08-07 16:27:36:302
6.8429,-6.6109,0.9286,-0.0131,0.1085,0.3585,0.0901,0.2796,-0.0064,3363,2019-08-07 16:27:36:307
6.8429,-6.6109,0.9286,-0.0131,0.1085,0.3585,0.0901,0.2796,-0.0064,3368,2019-08-07 16:27:36:312
6.8429,-6.6109,0.9286,-0.0131,0.1085,0.3585,0.0901,0.2796,-0.0064,3372,2019-08-07 16:27:36:316
6.1922,-6.6014,1.2774,1.1033,0.1362,-0.1933,0.0773,0.1251,-0.001,3378,2019-08-07 16:27:36:322
6.1922,-6.6014,1.2774,1.1033,0.1362,-0.1933,0.0773,0.1251,-0.001,3383,2019-08-07 16:27:36:327
6.1922,-6.6014,1.2774,1.1033,0.1362,-0.1933,0.0379,-0.1689,-0.0181,3388,2019-08-07 16:27:36:332
6.2735,-6.6586,1.2916,1.1033,0.1362,-0.1933,0.0379,-0.1689,-0.0181,3392,2019-08-07 16:27:36:336
6.2735,-6.6586,1.2916,0.7545,0.2299,0.1327,0.0027,-0.3937,-0.0234,3399,2019-08-07 16:27:36:343
6.2735,-6.6586,1.2916,0.7545,0.2299,0.1327,0.0027,-0.3937,-0.0234,3403,2019-08-07 16:27:36:347
6.8333,-6.821,0.8579,0.7545,0.2299,0.1327,0.0027,-0.3937,-0.0234,3408,2019-08-07 16:27:36:352
6.8333,-6.821,0.8579,0.7545,0.2299,0.1327,-0.0016,-0.4991,-0.0128,3412,2019-08-07 16:27:36:356
7.4457,-6.8353,0.7966,-0.1868,0.3207,0.2544,-0.0016,-0.4991,-0.0128,3418,2019-08-07 16:27:36:362
7.4457,-6.8353,0.7966,-0.1868,0.3207,0.2544,0.0027,-0.5023,0.0064,3422,2019-08-07 16:27:36:366
8.015,-6.8066,0.5091,-0.7509,0.2919,0.5043,0.0027,-0.5023,0.0064,3428,2019-08-07 16:27:36:372
8.015,-6.8066,0.5091,-0.7509,0.2919,0.5043,-0.0143,-0.3926,0.0203,3433,2019-08-07 16:27:36:377
8.015,-6.8066,0.5091,-0.7509,0.2919,0.5043,-0.0143,-0.3926,0.0203,3437,2019-08-07 16:27:36:381
8.4647,-6.7923,0.6363,-0.7509,0.2919,0.5043,-0.0431,-0.2041,0.0256,3443,2019-08-07 16:27:36:387
8.4647,-6.7923,0.6363,-1.1236,0.2857,0.2727,-0.0431,-0.2041,0.0256,3448,2019-08-07 16:27:36:392
8.4647,-6.7923,0.6363,-1.1236,0.2857,0.2727,-0.0271,0.0569,0.0437,3452,2019-08-07 16:27:36:396
8.0245,-6.8066,0.9427,-0.5708,0.2976,0.0744,-0.0271,0.0569,0.0437,3458,2019-08-07 16:27:36:402
8.0245,-6.8066,0.9427,-0.5708,0.2976,0.0744,-0.0069,0.1592,0.0671,3463,2019-08-07 16:27:36:407
7.1586,-6.8305,1.103,-0.5708,0.2976,0.0744,-0.0069,0.1592,0.0671,3468,2019-08-07 16:27:36:412
7.1586,-6.8305,1.103,-0.5708,0.2976,0.0744,-0.0069,0.1592,0.0671,3472,2019-08-07 16:27:36:416
7.1586,-6.8305,1.103,0.3477,0.2701,-0.1036,-0.0047,0.1155,0.097,3478,2019-08-07 16:27:36:422
6.8907,-6.7828,1.1549,0.3477,0.2701,-0.1036,-0.0047,0.1155,0.097,3483,2019-08-07 16:27:36:427
6.8907,-6.7828,1.1549,0.3477,0.2701,-0.1036,-0.0282,-0.0208,0.114,3488,2019-08-07 16:27:36:432
6.8907,-6.7828,1.1549,0.3477,0.2701,-0.1036,-0.0282,-0.0208,0.114,3493,2019-08-07 16:27:36:437
6.8907,-6.6873,1.3481,0.3477,0.2701,-0.1036,-0.0218,-0.1593,0.1183,3498,2019-08-07 16:27:36:442
6.8907,-6.6873,1.3481,0.3313,0.0743,-0.2143,-0.0218,-0.1593,0.1183,3503,2019-08-07 16:27:36:447
7.0629,-6.6921,1.1501,0.3313,0.0743,-0.2143,-0.0122,-0.2658,0.1289,3509,2019-08-07 16:27:36:453
7.0629,-6.6921,1.1501,0.3313,0.0743,-0.2143,-0.0122,-0.2658,0.1289,3513,2019-08-07 16:27:36:457
7.0629,-6.6921,1.1501,0.1463,0.021,-0.282,-0.0122,-0.2658,0.1289,3518,2019-08-07 16:27:36:462
7.0294,-6.5966,1.2067,0.1463,0.021,-0.282,0.0027,-0.3681,0.1438,3524,2019-08-07 16:27:36:468
7.0294,-6.5966,1.2067,0.1463,0.021,-0.282,0.0027,-0.3681,0.1438,3527,2019-08-07 16:27:36:471
7.2303,-6.5345,1.1501,0.1463,0.021,-0.282,-0.0047,-0.3734,0.1289,3533,2019-08-07 16:27:36:477
7.2303,-6.5345,1.1501,0.1463,0.021,-0.282,-0.0047,-0.3734,0.1289,3537,2019-08-07 16:27:36:481
7.2303,-6.5345,1.1501,-0.2667,-0.0272,-0.0757,-0.0484,-0.3415,0.1012,3543,2019-08-07 16:27:36:487
7.9432,-6.5632,0.7448,-0.2667,-0.0272,-0.0757,-0.0484,-0.3415,0.1012,3548,2019-08-07 16:27:36:492
7.9432,-6.5632,0.7448,-0.2667,-0.0272,-0.0757,-0.0484,-0.3415,0.1012,3552,2019-08-07 16:27:36:496
7.9432,-6.5632,0.7448,-0.2667,-0.0272,-0.0757,-0.0974,-0.1082,0.0394,3558,2019-08-07 16:27:36:502
8.302,-6.7398,0.7353,-1.1591,0.1457,0.1251,-0.0974,-0.1082,0.0394,3563,2019-08-07 16:27:36:507
8.302,-6.7398,0.7353,-1.1591,0.1457,0.1251,-0.074,0.1475,-0.0032,3568,2019-08-07 16:27:36:512
7.8858,-6.8496,0.707,-1.1591,0.1457,0.1251,-0.074,0.1475,-0.0032,3573,2019-08-07 16:27:36:517
7.8858,-6.8496,0.707,-1.1591,0.1457,0.1251,-0.0186,0.3616,-0.0191,3577,2019-08-07 16:27:36:521
7.8858,-6.8496,0.707,-0.1794,0.2097,0.0411,-0.0186,0.3616,-0.0191,3583,2019-08-07 16:27:36:527
7.0629,-6.6921,0.9144,-0.1794,0.2097,0.0411,0.0176,0.385,-0.0255,3587,2019-08-07 16:27:36:531
7.0629,-6.6921,0.9144,0.3635,0.0105,-0.2111,0.0176,0.385,-0.0255,3593,2019-08-07 16:27:36:537
6.6131,-6.439,1.1737,0.3635,0.0105,-0.2111,0.0251,0.1954,-0.0213,3598,2019-08-07 16:27:36:542
6.6131,-6.439,1.1737,0.3635,0.0105,-0.2111,0.0251,0.1954,-0.0213,3602,2019-08-07 16:27:36:546
6.6131,-6.439,1.1737,0.3635,0.0105,-0.2111,0.0198,-0.0571,-0.0266,3609,2019-08-07 16:27:36:553
6.7949,-6.3197,1.0087,0.41,-0.2735,-0.084,0.0198,-0.0571,-0.0266,3612,2019-08-07 16:27:36:556
6.7949,-6.3197,1.0087,0.41,-0.2735,-0.084,6.0E-4,-0.2701,-0.0213,3618,2019-08-07 16:27:36:562
6.7949,-6.3197,1.0087,0.41,-0.2735,-0.084,6.0E-4,-0.2701,-0.0213,3623,2019-08-07 16:27:36:567
7.2303,-6.2815,0.839,0.41,-0.2735,-0.084,-5.0E-4,-0.3958,-0.0021,3628,2019-08-07 16:27:36:572
7.2303,-6.2815,0.839,-0.1699,-0.2935,0.093,-5.0E-4,-0.3958,-0.0021,3632,2019-08-07 16:27:36:576
7.369,-6.3722,0.8296,-0.1699,-0.2935,0.093,-5.0E-4,-0.3958,-0.0021,3638,2019-08-07 16:27:36:582
7.369,-6.3722,0.8296,-0.109,-0.2075,0.1064,0.024,-0.3905,0.0224,3642,2019-08-07 16:27:36:586
7.369,-6.3722,0.8296,-0.109,-0.2075,0.1064,0.024,-0.3905,0.0224,3648,2019-08-07 16:27:36:592
7.3403,-6.3865,0.6929,-0.109,-0.2075,0.1064,0.0176,-0.3234,0.0171,3653,2019-08-07 16:27:36:597
7.3403,-6.3865,0.6929,-0.109,-0.2075,0.1064,0.0176,-0.3234,0.0171,3658,2019-08-07 16:27:36:602
7.5173,-6.2911,0.6033,-0.2906,-0.2703,0.1846,-0.0239,-0.2573,-0.016,3663,2019-08-07 16:27:36:607
7.5173,-6.2911,0.6033,-0.2906,-0.2703,0.1846,-0.0239,-0.2573,-0.016,3667,2019-08-07 16:27:36:611
7.5173,-6.2911,0.6033,-0.2906,-0.2703,0.1846,-0.0239,-0.2573,-0.016,3673,2019-08-07 16:27:36:617
7.6704,-6.3674,0.6033,-0.2906,-0.2703,0.1846,-0.0527,-0.1263,-0.0543,3678,2019-08-07 16:27:36:622
7.6704,-6.3674,0.6033,-0.4521,-0.1957,0.0956,-0.0527,-0.1263,-0.0543,3683,2019-08-07 16:27:36:627
7.6704,-6.3674,0.6033,-0.4521,-0.1957,0.0956,-0.0527,0.0378,-0.0937,3688,2019-08-07 16:27:36:632
7.6082,-6.3436,0.7919,-0.4521,-0.1957,0.0956,-0.0527,0.0378,-0.0937,3693,2019-08-07 16:27:36:637
7.6082,-6.3436,0.7919,-0.4521,-0.1957,0.0956,-0.0538,0.1251,-0.1033,3698,2019-08-07 16:27:36:642
7.6082,-6.3436,0.7919,-0.0937,-0.3614,-0.1088,-0.0538,0.1251,-0.1033,3703,2019-08-07 16:27:36:647
7.6082,-6.3436,0.7919,-0.0937,-0.3614,-0.1088,-0.0538,0.1251,-0.1033,3708,2019-08-07 16:27:36:652
7.2781,-6.2194,0.8343,-0.0937,-0.3614,-0.1088,-0.0676,0.1208,-0.0831,3712,2019-08-07 16:27:36:656
7.2781,-6.2194,0.8343,-0.0937,-0.3614,-0.1088,-0.107,0.0367,-0.0575,3718,2019-08-07 16:27:36:662
7.3307,-6.2576,0.9521,-0.074,-0.2972,-0.1708,-0.107,0.0367,-0.0575,3723,2019-08-07 16:27:36:667
7.3307,-6.2576,0.9521,-0.074,-0.2972,-0.1708,-0.107,0.0367,-0.0575,3728,2019-08-07 16:27:36:672
7.3307,-6.2576,0.9521,-0.074,-0.2972,-0.1708,-0.1336,-0.0432,-0.0373,3733,2019-08-07 16:27:36:677
7.4168,-6.2672,1.0276,-0.074,-0.2972,-0.1708,-0.1336,-0.0432,-0.0373,3738,2019-08-07 16:27:36:682
7.4168,-6.2672,1.0276,-0.2105,-0.1967,-0.1517,-0.1635,-0.1103,-0.016,3743,2019-08-07 16:27:36:687
7.4551,-6.3961,0.8532,-0.2105,-0.1967,-0.1517,-0.1635,-0.1103,-0.016,3748,2019-08-07 16:27:36:692
7.4551,-6.3961,0.8532,-0.2105,-0.1967,-0.1517,-0.189,-0.1274,0.0128,3752,2019-08-07 16:27:36:696
7.4551,-6.3961,0.8532,-0.2105,-0.1967,-0.1517,-0.189,-0.1274,0.0128,3758,2019-08-07 16:27:36:702
7.4168,-6.6491,0.8626,-0.2329,0.1679,-0.1134,-0.2114,-0.1146,0.0192,3763,2019-08-07 16:27:36:707
7.4168,-6.6491,0.8626,-0.2329,0.1679,-0.1134,-0.2114,-0.1146,0.0192,3768,2019-08-07 16:27:36:712
7.4168,-6.6491,0.8626,-0.2329,0.1679,-0.1134,-0.2114,-0.1146,0.0192,3773,2019-08-07 16:27:36:717
7.6082,-6.8257,0.7353,-0.3432,0.2702,-0.0416,-0.2359,-0.0869,0.0096,3777,2019-08-07 16:27:36:721
7.6082,-6.8257,0.7353,-0.3432,0.2702,-0.0416,-0.2359,-0.0869,0.0096,3783,2019-08-07 16:27:36:727
7.7326,-6.8878,0.6505,-0.3432,0.2702,-0.0416,-0.2455,0.0069,-0.0149,3787,2019-08-07 16:27:36:731
7.7326,-6.8878,0.6505,-0.4802,0.3448,0.0263,-0.2455,0.0069,-0.0149,3793,2019-08-07 16:27:36:737
7.7326,-6.8878,0.6505,-0.4802,0.3448,0.0263,-0.2348,0.0729,-0.0245,3797,2019-08-07 16:27:36:741
7.6656,-6.9212,0.6316,-0.4802,0.3448,0.0263,-0.2348,0.0729,-0.0245,3803,2019-08-07 16:27:36:747
7.6656,-6.9212,0.6316,-0.4802,0.3448,0.0263,-0.2167,0.1123,-0.0255,3808,2019-08-07 16:27:36:752
7.412,-6.9116,0.6269,-0.1435,0.3548,0.0152,-0.2167,0.1123,-0.0255,3814,2019-08-07 16:27:36:758
7.412,-6.9116,0.6269,-0.1435,0.3548,0.0152,-0.1933,0.107,-0.0128,3818,2019-08-07 16:27:36:762
7.412,-6.9116,0.6269,-0.1435,0.3548,0.0152,-0.1933,0.107,-0.0128,3823,2019-08-07 16:27:36:767
7.4646,-6.8782,0.5562,-0.1963,0.3207,0.0805,-0.1635,0.0644,0.0032,3829,2019-08-07 16:27:36:773
7.4646,-6.8782,0.5562,-0.1963,0.3207,0.0805,-0.1635,0.0644,0.0032,3832,2019-08-07 16:27:36:776
7.4598,-6.988,0.476,-0.1963,0.3207,0.0805,-0.1326,0.0228,0.0192,3838,2019-08-07 16:27:36:782
7.4598,-6.988,0.476,-0.1963,0.3207,0.0805,-0.1326,0.0228,0.0192,3842,2019-08-07 16:27:36:786
7.4598,-6.988,0.476,-0.2182,0.4021,0.1649,-0.0996,-0.0219,0.032,3848,2019-08-07 16:27:36:792
7.5077,-6.9833,0.4949,-0.2182,0.4021,0.1649,-0.0996,-0.0219,0.032,3852,2019-08-07 16:27:36:796
7.5077,-6.9833,0.4949,-0.2182,0.4021,0.1649,-0.0569,-0.023,0.0448,3858,2019-08-07 16:27:36:802
7.4216,-6.9164,0.4289,-0.1616,0.3468,0.1786,-0.0569,-0.023,0.0448,3863,2019-08-07 16:27:36:807
7.4216,-6.9164,0.4289,-0.1616,0.3468,0.1786,-0.0569,-0.023,0.0448,3867,2019-08-07 16:27:36:811
7.4216,-6.9164,0.4289,-0.1616,0.3468,0.1786,-0.0154,0.0058,0.0469,3872,2019-08-07 16:27:36:816
7.3211,-6.8735,0.4525,-0.0647,0.2997,0.1523,-0.0154,0.0058,0.0469,3877,2019-08-07 16:27:36:821
7.3211,-6.8735,0.4525,-0.0647,0.2997,0.1523,-0.0026,0.0367,0.0416,3883,2019-08-07 16:27:36:827
7.3211,-6.8735,0.4525,-0.0647,0.2997,0.1523,-0.0026,0.0367,0.0416,3887,2019-08-07 16:27:36:831
7.2876,-6.8448,0.5797,-0.0647,0.2997,0.1523,0.0048,0.0825,0.0267,3893,2019-08-07 16:27:36:837
7.2876,-6.8448,0.5797,-0.1142,0.2595,0.0587,0.0048,0.0825,0.0267,3898,2019-08-07 16:27:36:842
7.2876,-6.8448,0.5797,-0.1142,0.2595,0.0587,-0.025,0.0836,-0.017,3903,2019-08-07 16:27:36:847
7.2876,-6.8448,0.5797,-0.1142,0.2595,0.0587,-0.025,0.0836,-0.017,3908,2019-08-07 16:27:36:852
7.2445,-6.6204,0.3441,-0.1142,0.2595,0.0587,-0.025,0.0836,-0.017,3913,2019-08-07 16:27:36:857
7.2445,-6.6204,0.3441,0.2352,-0.0642,0.0793,-0.074,0.0857,-0.0351,3918,2019-08-07 16:27:36:862
7.2445,-6.6204,0.3441,0.2352,-0.0642,0.0793,-0.074,0.0857,-0.0351,3923,2019-08-07 16:27:36:867
7.1728,-6.692,1.0087,0.2352,-0.0642,0.0793,-0.0079,0.1145,-0.0064,3928,2019-08-07 16:27:36:872
7.1728,-6.692,1.0087,-0.2625,0.271,0.2716,-0.0079,0.1145,-0.0064,3934,2019-08-07 16:27:36:878
7.1728,-6.692,1.0087,-0.2625,0.271,0.2716,0.0293,0.0772,-0.016,3937,2019-08-07 16:27:36:881
7.4646,-6.6777,0.1838,-0.2625,0.271,0.2716,0.0293,0.0772,-0.016,3943,2019-08-07 16:27:36:887
7.4646,-6.6777,0.1838,-0.2625,0.271,0.2716,-0.025,0.074,-0.0245,3948,2019-08-07 16:27:36:892
7.4646,-6.6777,0.1838,-0.2625,0.271,0.2716,-0.025,0.074,-0.0245,3952,2019-08-07 16:27:36:896
7.2684,-6.4056,0.6222,-0.0161,-0.1695,0.0166,-0.025,0.074,-0.0245,3958,2019-08-07 16:27:36:902
7.2684,-6.4056,0.6222,-0.0161,-0.1695,0.0166,-0.0197,0.0644,-0.0042,3963,2019-08-07 16:27:36:907
7.3792,-6.611,0.561,-0.1267,0.0363,0.081,-0.0197,0.0644,-0.0042,3968,2019-08-07 16:27:36:912
7.3792,-6.611,0.561,-0.1267,0.0363,0.081,-0.0079,0.0718,-0.0042,3974,2019-08-07 16:27:36:918
7.3792,-6.6587,0.5327,-0.1267,0.0363,0.081,-0.0079,0.0718,-0.0042,3978,2019-08-07 16:27:36:922
7.4174,-6.6587,0.5327,-0.1267,0.0363,0.081,-0.0101,0.1059,-0.0149,3983,2019-08-07 16:27:36:927
7.4174,-6.6587,0.5327,-0.112,-5.0E-4,0.0962,-0.0101,0.1059,-0.0149,3988,2019-08-07 16:27:36:932
7.1974,-6.5919,0.5563,-0.112,-5.0E-4,0.0962,-0.009,0.1358,-0.0138,3993,2019-08-07 16:27:36:937
7.1974,-6.5919,0.5563,-0.112,-5.0E-4,0.0962,-0.009,0.1358,-0.0138,3997,2019-08-07 16:27:36:941
7.1974,-6.5919,0.5563,-0.112,-5.0E-4,0.0962,-0.0016,0.1666,-0.0181,4002,2019-08-07 16:27:36:946
7.2404,-6.821,0.6694,0.0118,0.2491,0.0026,-0.0016,0.1666,-0.0181,4008,2019-08-07 16:27:36:952
7.2404,-6.821,0.6694,0.0118,0.2491,0.0026,0.0166,0.1507,-0.0415,4013,2019-08-07 16:27:36:957
7.2596,-6.8162,0.5705,0.0118,0.2491,0.0026,0.0166,0.1507,-0.0415,4018,2019-08-07 16:27:36:962
7.2596,-6.8162,0.5705,0.0118,0.2491,0.0026,0.0166,0.1507,-0.0415,4022,2019-08-07 16:27:36:966
7.2596,-6.8162,0.5705,-0.2429,0.1935,-0.0075,0.0102,0.1315,-0.0777,4028,2019-08-07 16:27:36:972
7.604,-6.8115,0.726,-0.2429,0.1935,-0.0075,0.0102,0.1315,-0.0777,4033,2019-08-07 16:27:36:977
7.604,-6.8115,0.726,-0.2429,0.1935,-0.0075,0.0112,0.0665,-0.098,4038,2019-08-07 16:27:36:982
7.7141,-6.7542,0.5893,-0.2429,0.1935,-0.0075,0.0112,0.0665,-0.098,4043,2019-08-07 16:27:36:987
7.7141,-6.7542,0.5893,-0.3936,0.1365,0.1136,0.008,0.0324,-0.0852,4047,2019-08-07 16:27:36:991
7.7141,-6.7542,0.5893,-0.3936,0.1365,0.1136,0.008,0.0324,-0.0852,4053,2019-08-07 16:27:36:997
7.5945,-6.6444,0.5469,-0.3216,0.0992,0.1613,-0.0122,-0.0081,-0.0405,4058,2019-08-07 16:27:37:002
7.5945,-6.6444,0.5469,-0.3216,0.0992,0.1613,-0.0122,-0.0081,-0.0405,4063,2019-08-07 16:27:37:007
7.5945,-6.6444,0.5469,-0.3216,0.0992,0.1613,-0.0122,-0.0081,-0.0405,4068,2019-08-07 16:27:37:012
7.6997,-6.9881,0.4432,-0.3216,0.0992,0.1613,-0.0282,-0.0315,0.0203,4074,2019-08-07 16:27:37:018
7.6997,-6.9881,0.4432,-0.3588,0.4145,0.2562,-0.0282,-0.0315,0.0203,4079,2019-08-07 16:27:37:023
7.4031,-6.969,0.5846,-0.3588,0.4145,0.2562,-0.0133,-0.0208,0.049,4083,2019-08-07 16:27:37:027
7.4031,-6.969,0.5846,-0.3588,0.4145,0.2562,-0.0133,-0.0208,0.049,4088,2019-08-07 16:27:37:032
7.4031,-6.969,0.5846,-0.3588,0.4145,0.2562,0.0144,-0.0219,0.0586,4094,2019-08-07 16:27:37:038
7.2213,-6.9642,0.7354,0.0449,0.4103,-0.0394,0.0144,-0.0219,0.0586,4098,2019-08-07 16:27:37:042
7.2213,-6.9642,0.7354,0.0449,0.4103,-0.0394,0.0762,-0.0166,0.0437,4103,2019-08-07 16:27:37:047
7.2213,-6.9642,0.7354,0.0449,0.4103,-0.0394,0.0762,-0.0166,0.0437,4107,2019-08-07 16:27:37:051
7.3457,-6.9404,0.6553,-0.0832,0.3826,0.0437,0.0986,-0.0059,0.0288,4113,2019-08-07 16:27:37:057
7.3457,-6.9404,0.6553,-0.0832,0.3826,0.0437,0.0986,-0.0059,0.0288,4117,2019-08-07 16:27:37:061
7.4462,-6.8497,0.5752,-0.0832,0.3826,0.0437,0.0986,-0.0059,0.0288,4123,2019-08-07 16:27:37:067
7.4462,-6.8497,0.5752,-0.2214,0.2649,0.0677,0.1114,0.0601,0.016,4129,2019-08-07 16:27:37:073
7.4462,-6.8497,0.5752,-0.2214,0.2649,0.0677,0.1114,0.0601,0.016,4133,2019-08-07 16:27:37:077
7.4462,-6.7351,0.6129,-0.2214,0.2649,0.0677,0.1092,0.1059,0.016,4138,2019-08-07 16:27:37:082
7.4462,-6.7351,0.6129,-0.2214,0.2649,0.0677,0.1092,0.1059,0.016,4143,2019-08-07 16:27:37:087
7.3218,-6.7064,0.5233,-0.0672,0.1446,0.2171,0.0709,0.0921,0.0128,4148,2019-08-07 16:27:37:092
7.3218,-6.7064,0.5233,-0.0672,0.1446,0.2171,0.0709,0.0921,0.0128,4152,2019-08-07 16:27:37:096
7.3218,-6.7064,0.5233,-0.0672,0.1446,0.2171,0.0709,0.0921,0.0128,4158,2019-08-07 16:27:37:102
7.3744,-6.7685,0.528,-0.1213,0.2058,0.2202,0.0198,0.0303,0.0149,4162,2019-08-07 16:27:37:106
7.3744,-6.7685,0.528,-0.1213,0.2058,0.2202,0.0198,0.0303,0.0149,4168,2019-08-07 16:27:37:112
7.3744,-6.7685,0.528,-0.1213,0.2058,0.2202,0.0038,-0.0283,0.0117,4173,2019-08-07 16:27:37:117
7.5658,-6.8735,0.6082,-0.4052,0.3996,0.1101,0.0389,-0.0176,0.0096,4179,2019-08-07 16:27:37:123
7.5658,-6.8735,0.6082,-0.4052,0.3996,0.1101,0.0389,-0.0176,0.0096,4182,2019-08-07 16:27:37:126
7.8289,-7.0454,0.4715,-0.4052,0.3996,0.1101,0.0389,-0.0176,0.0096,4187,2019-08-07 16:27:37:131
7.8289,-7.0454,0.4715,-0.4052,0.3996,0.1101,0.1337,0.0814,0.0245,4193,2019-08-07 16:27:37:137
7.8289,-7.0454,0.4715,-0.4088,0.331,0.3224,0.1337,0.0814,0.0245,4198,2019-08-07 16:27:37:142
7.6471,-6.8449,0.4196,-0.4088,0.331,0.3224,0.1795,0.2125,0.0703,4202,2019-08-07 16:27:37:146
7.6471,-6.8449,0.4196,-0.4088,0.331,0.3224,0.1795,0.2125,0.0703,4208,2019-08-07 16:27:37:152
7.2309,-6.7208,0.5092,-0.4088,0.331,0.3224,0.1668,0.2508,0.1129,4213,2019-08-07 16:27:37:157
7.2309,-6.7208,0.5092,0.0974,0.1773,0.2857,0.1668,0.2508,0.1129,4218,2019-08-07 16:27:37:162
7.2309,-6.7208,0.5092,0.0974,0.1773,0.2857,0.1668,0.2508,0.1129,4223,2019-08-07 16:27:37:167
7.1161,-6.7733,0.6317,0.0974,0.1773,0.2857,0.121,0.2316,0.13,4228,2019-08-07 16:27:37:172
7.1161,-6.7733,0.6317,0.0974,0.1773,0.2857,0.121,0.2316,0.13,4233,2019-08-07 16:27:37:177
7.1161,-6.7733,0.6317,0.2536,0.1983,0.0472,0.0485,0.1698,0.0842,4237,2019-08-07 16:27:37:181
6.8769,-6.8067,0.8816,0.2536,0.1983,0.0472,0.0485,0.1698,0.0842,4243,2019-08-07 16:27:37:187
6.8769,-6.8067,0.8816,0.2536,0.1983,0.0472,0.0251,0.1198,0.0544,4249,2019-08-07 16:27:37:193
6.8769,-6.8067,0.8816,0.2536,0.1983,0.0472,0.0251,0.1198,0.0544,4253,2019-08-07 16:27:37:197
6.6664,-6.6157,1.0041,0.4894,0.0105,-0.1049,0.0251,0.1198,0.0544,4258,2019-08-07 16:27:37:202
6.6664,-6.6157,1.0041,0.4894,0.0105,-0.1049,0.0123,0.0399,0.0586,4262,2019-08-07 16:27:37:206
6.6664,-6.6157,1.0041,0.4894,0.0105,-0.1049,0.0123,0.0399,0.0586,4268,2019-08-07 16:27:37:212
7.1352,-6.7542,0.8439,0.4894,0.0105,-0.1049,0.0251,5.0E-4,0.0458,4273,2019-08-07 16:27:37:217
7.1352,-6.7542,0.8439,-0.0926,0.1027,0.1442,0.0251,5.0E-4,0.0458,4278,2019-08-07 16:27:37:222
7.1352,-6.7542,0.8439,-0.0926,0.1027,0.1442,0.0304,-0.0144,0.0341,4283,2019-08-07 16:27:37:227
7.4032,-6.6683,0.693,-0.0926,0.1027,0.1442,0.0304,-0.0144,0.0341,4288,2019-08-07 16:27:37:232
7.4032,-6.6683,0.693,-0.3049,0.0626,0.2578,0.04,0.0015,0.0352,4293,2019-08-07 16:27:37:237
7.5706,-6.716,0.5092,-0.3049,0.0626,0.2578,0.04,0.0015,0.0352,4298,2019-08-07 16:27:37:242
7.5706,-6.716,0.5092,-0.3049,0.0626,0.2578,0.0389,0.0282,0.0309,4303,2019-08-07 16:27:37:247
7.5898,-6.6492,0.5092,-0.3049,0.0626,0.2578,0.0389,0.0282,0.0309,4308,2019-08-07 16:27:37:252
7.5898,-6.6492,0.5092,-0.4039,-0.031,0.3432,0.0229,0.0473,0.0192,4313,2019-08-07 16:27:37:257
7.5898,-6.6492,0.5092,-0.4039,-0.031,0.3432,0.0229,0.0473,0.0192,4317,2019-08-07 16:27:37:261
7.5898,-6.6492,0.5092,-0.4039,-0.031,0.3432,0.0229,0.0473,0.0192,4324,2019-08-07 16:27:37:268
7.3218,-6.568,0.891,-0.4039,-0.031,0.3432,0.0357,0.0569,0.0075,4328,2019-08-07 16:27:37:272
7.3218,-6.568,0.891,-0.1045,0.0733,-0.1503,0.0357,0.0569,0.0075,4333,2019-08-07 16:27:37:277
7.3218,-6.568,0.891,-0.1045,0.0733,-0.1503,0.0901,0.0367,0.0139,4337,2019-08-07 16:27:37:281
7.3697,-6.759,0.9947,-0.1871,0.14,-0.0804,0.0901,0.0367,0.0139,4343,2019-08-07 16:27:37:287
7.3697,-6.759,0.9947,-0.1871,0.14,-0.0804,0.138,0.0516,0.0043,4348,2019-08-07 16:27:37:292
7.3697,-6.759,0.9947,-0.1871,0.14,-0.0804,0.138,0.0516,0.0043,4353,2019-08-07 16:27:37:297
7.2357,-6.6301,1.0136,-0.1871,0.14,-0.0804,0.138,0.0516,0.0043,4357,2019-08-07 16:27:37:301
7.2357,-6.6301,1.0136,-0.0154,-0.0236,-0.0521,0.1625,0.0857,-0.0128,4363,2019-08-07 16:27:37:307
7.1688,-6.7542,1.0041,-0.0154,-0.0236,-0.0521,0.1625,0.0857,-0.0128,4368,2019-08-07 16:27:37:312
7.1688,-6.7542,1.0041,-0.0154,-0.0236,-0.0521,0.1795,0.1166,-0.0149,4373,2019-08-07 16:27:37:317
7.1688,-6.7542,1.0041,-0.0154,-0.0236,-0.0521,0.1795,0.1166,-0.0149,4378,2019-08-07 16:27:37:322
7.1783,-6.8401,0.8439,0.0032,0.2298,0.1384,0.1636,0.1272,-0.0319,4383,2019-08-07 16:27:37:327
7.1783,-6.8401,0.8439,0.0032,0.2298,0.1384,0.1636,0.1272,-0.0319,4388,2019-08-07 16:27:37:332
7.2597,-6.7064,0.891,-0.0764,0.1008,0.1103,0.1337,0.1304,-0.0735,4393,2019-08-07 16:27:37:337
7.2597,-6.7064,0.891,-0.0764,0.1008,0.1103,0.1337,0.1304,-0.0735,4397,2019-08-07 16:27:37:341
7.2597,-6.7064,0.891,-0.0764,0.1008,0.1103,0.1337,0.1304,-0.0735,4403,2019-08-07 16:27:37:347
7.2597,-6.7064,0.891,-0.0764,0.1008,0.1103,0.1337,0.1304,-0.0735,4407,2019-08-07 16:27:37:351
7.207,-6.4391,1.1738,0.1517,-0.1954,-0.2118,0.0922,0.0974,-0.1363,4414,2019-08-07 16:27:37:358
7.207,-6.4391,1.1738,0.1517,-0.1954,-0.2118,0.0922,0.0974,-0.1363,4417,2019-08-07 16:27:37:361
7.207,-6.4391,1.1738,0.1517,-0.1954,-0.2118,0.0986,0.0633,-0.1065,4423,2019-08-07 16:27:37:367
7.2118,-6.4821,1.32,0.1517,-0.1954,-0.2118,0.0986,0.0633,-0.1065,4427,2019-08-07 16:27:37:371
7.2118,-6.4821,1.32,-0.2653,-0.043,0.02,0.0815,-0.0017,-0.0809,4434,2019-08-07 16:27:37:378
7.2118,-6.4821,1.32,-0.2653,-0.043,0.02,0.0815,-0.0017,-0.0809,4438,2019-08-07 16:27:37:382