ACCELEROMETER X (m/s²),ACCELEROMETER Y (m/s²),ACCELEROMETER Z (m/s²),LINEAR ACCELERATION X (m/s²),LINEAR ACCELERATION Y (m/s²),LINEAR ACCELERATION Z (m/s²),GYROSCOPE X (rad/s),GYROSCOPE Y (rad/s),GYROSCOPE Z (rad/s),Time since start in ms ,YYYY-MO-DD HH-MI-SS_SSS
5.4474,-8.0532,2.0518,-0.5995,-0.2081,0.0514,0.0102,0.01,0.015,4,2019-08-07 16:25:15:312
5.4474,-8.0532,2.0518,-0.5995,-0.2081,0.0514,0.0102,0.01,0.015,8,2019-08-07 16:25:15:316
5.4474,-8.0532,2.0518,-0.5995,-0.2081,0.0514,0.0102,0.01,0.015,14,2019-08-07 16:25:15:322
5.3326,-8.0628,2.066,-0.497,-0.202,0.0663,0.0229,0.0484,0.0182,19,2019-08-07 16:25:15:327
5.3326,-8.0628,2.066,-0.497,-0.202,0.0663,0.0229,0.0484,0.0182,24,2019-08-07 16:25:15:332
4.9786,-8.1057,2.1791,-0.497,-0.202,0.0663,0.0315,0.0676,0.0192,29,2019-08-07 16:25:15:337
4.9786,-8.1057,2.1791,-0.497,-0.202,0.0663,0.0315,0.0676,0.0192,33,2019-08-07 16:25:15:341
4.9786,-8.1057,2.1791,-0.0415,-0.2062,-0.1114,0.0283,0.0558,0.016,39,2019-08-07 16:25:15:347
4.8542,-8.0819,2.2168,-0.0415,-0.2062,-0.1114,0.0283,0.0558,0.016,43,2019-08-07 16:25:15:351
4.8542,-8.0819,2.2168,-0.0415,-0.2062,-0.1114,0.0219,0.0228,0.0129,49,2019-08-07 16:25:15:357
4.8542,-8.0819,2.2168,-0.0415,-0.2062,-0.1114,0.0219,0.0228,0.0129,53,2019-08-07 16:25:15:361
4.7633,-8.0628,2.2687,0.0599,-0.225,-0.1207,0.0219,0.0228,0.0129,59,2019-08-07 16:25:15:367
4.7633,-8.0628,2.2687,0.0599,-0.225,-0.1207,0.0144,0.0026,-0.0021,64,2019-08-07 16:25:15:372
4.7633,-8.0628,2.2687,0.0599,-0.225,-0.1207,0.0144,0.0026,-0.0021,69,2019-08-07 16:25:15:377
4.8589,-7.9673,2.2262,-0.0719,-0.3714,0.0082,0.0027,-0.0262,-0.0127,74,2019-08-07 16:25:15:382
4.8589,-7.9673,2.2262,-0.0719,-0.3714,0.0082,0.0027,-0.0262,-0.0127,79,2019-08-07 16:25:15:387
4.9929,-7.9291,2.2027,-0.0719,-0.3714,0.0082,-0.0154,-0.0454,-0.017,83,2019-08-07 16:25:15:391
4.9929,-7.9291,2.2027,-0.0719,-0.3714,0.0082,-0.0282,-0.0592,-0.0191,89,2019-08-07 16:25:15:397
4.9929,-7.9291,2.2027,-0.0719,-0.3714,0.0082,-0.0282,-0.0592,-0.0191,94,2019-08-07 16:25:15:402
5.1221,-7.9196,2.1508,-0.2845,-0.3404,-0.0043,-0.0335,-0.0773,-0.0148,100,2019-08-07 16:25:15:408
5.1221,-7.9196,2.1508,-0.2845,-0.3404,-0.0043,-0.0335,-0.0773,-0.0148,103,2019-08-07 16:25:15:411
5.1221,-7.9196,2.1508,-0.2845,-0.3404,-0.0043,-0.0335,-0.0773,-0.0148,109,2019-08-07 16:25:15:417
5.39,-7.8814,2.0471,-0.2845,-0.3404,-0.0043,-0.0325,-0.0677,-0.0127,113,2019-08-07 16:25:15:421
5.39,-7.8814,2.0471,-0.5711,-0.3856,0.1103,-0.0325,-0.0677,-0.0127,119,2019-08-07 16:25:15:427
5.4139,-7.9148,1.9858,-0.5711,-0.3856,0.1103,-0.0335,-0.04,1.0E-4,124,2019-08-07 16:25:15:432
5.4139,-7.9148,1.9858,-0.5711,-0.3856,0.1103,-0.0335,-0.04,1.0E-4,129,2019-08-07 16:25:15:437
5.4139,-7.9148,1.9858,-0.5711,-0.3856,0.1103,-0.041,-0.0209,0.0086,133,2019-08-07 16:25:15:441
5.3421,-8.0103,2.0848,-0.4884,-0.2463,0.0382,-0.041,-0.0209,0.0086,139,2019-08-07 16:25:15:447
5.3421,-8.0103,2.0848,-0.4884,-0.2463,0.0382,-0.041,-0.0209,0.0086,143,2019-08-07 16:25:15:451
5.1842,-8.1105,2.1272,-0.4884,-0.2463,0.0382,-0.0357,-0.0113,0.015,150,2019-08-07 16:25:15:458
5.1842,-8.1105,2.1272,-0.4884,-0.2463,0.0382,-0.0357,-0.0113,0.015,153,2019-08-07 16:25:15:461
5.1842,-8.1105,2.1272,-0.3153,-0.0996,-0.0301,-0.0303,-0.0038,0.0182,159,2019-08-07 16:25:15:467
5.0837,-8.206,2.1084,-0.3153,-0.0996,-0.0301,-0.0303,-0.0038,0.0182,164,2019-08-07 16:25:15:472
5.0837,-8.206,2.1084,-0.3153,-0.0996,-0.0301,-0.0293,5.0E-4,0.0097,169,2019-08-07 16:25:15:477
4.988,-8.2012,2.2309,-0.3153,-0.0996,-0.0301,-0.0293,5.0E-4,0.0097,174,2019-08-07 16:25:15:482
4.988,-8.2012,2.2309,-0.1002,-0.0818,-0.0676,-0.0282,0.0015,-0.0042,179,2019-08-07 16:25:15:487
4.988,-8.2012,2.2309,-0.1002,-0.0818,-0.0676,-0.0282,0.0015,-0.0042,184,2019-08-07 16:25:15:492
4.9115,-8.1821,2.1932,-0.1002,-0.0818,-0.0676,-0.0314,-0.0059,-0.0138,189,2019-08-07 16:25:15:497
4.9115,-8.1821,2.1932,-0.1002,-0.0818,-0.0676,-0.0314,-0.0059,-0.0138,194,2019-08-07 16:25:15:502
4.9498,-8.1678,2.2356,-0.0449,-0.0481,-0.1152,-0.0293,-0.0262,-0.0244,199,2019-08-07 16:25:15:507
4.9498,-8.1678,2.2356,-0.0449,-0.0481,-0.1152,-0.0293,-0.0262,-0.0244,203,2019-08-07 16:25:15:511
4.9498,-8.1678,2.2356,-0.0449,-0.0481,-0.1152,-0.0271,-0.0475,-0.0319,209,2019-08-07 16:25:15:517
5.0407,-8.1678,2.1979,-0.0449,-0.0481,-0.1152,-0.0271,-0.0475,-0.0319,215,2019-08-07 16:25:15:523
5.0407,-8.1678,2.1979,-0.2282,-0.1934,-0.1278,-0.0218,-0.0731,-0.034,219,2019-08-07 16:25:15:527
5.1363,-8.0532,2.1696,-0.2282,-0.1934,-0.1278,-0.0218,-0.0731,-0.034,224,2019-08-07 16:25:15:532
5.1363,-8.0532,2.1696,-0.2282,-0.1934,-0.1278,-0.0175,-0.1007,-0.0191,228,2019-08-07 16:25:15:536
5.1363,-8.0532,2.1696,-0.2282,-0.1934,-0.1278,-0.0175,-0.1007,-0.0191,234,2019-08-07 16:25:15:542
5.3325,-8.0962,2.0942,-0.457,-0.1568,-0.0076,-0.0058,-0.1103,-0.0063,239,2019-08-07 16:25:15:547
5.3325,-8.0962,2.0942,-0.457,-0.1568,-0.0076,-0.0058,-0.1103,-0.0063,244,2019-08-07 16:25:15:552
5.4425,-8.1582,2.0094,-0.457,-0.1568,-0.0076,0.0038,-0.1061,0.0033,250,2019-08-07 16:25:15:558
5.4425,-8.1582,2.0094,-0.457,-0.1568,-0.0076,0.0038,-0.1061,0.0033,253,2019-08-07 16:25:15:561
5.4425,-8.1582,2.0094,-0.507,-0.0595,0.0812,0.0229,-0.0752,0.016,259,2019-08-07 16:25:15:567
5.3325,-8.2251,2.0801,-0.507,-0.0595,0.0812,0.0229,-0.0752,0.016,264,2019-08-07 16:25:15:572
5.3325,-8.2251,2.0801,-0.507,-0.0595,0.0812,0.0229,-0.0752,0.016,269,2019-08-07 16:25:15:577
5.3325,-8.2251,2.0801,-0.507,-0.0595,0.0812,0.0421,-0.0549,0.0256,274,2019-08-07 16:25:15:582
5.165,-8.1773,2.1131,-0.2805,-0.073,-0.0373,0.0421,-0.0549,0.0256,279,2019-08-07 16:25:15:587
5.165,-8.1773,2.1131,-0.2805,-0.073,-0.0373,0.0602,-0.0422,0.0437,284,2019-08-07 16:25:15:592
5.165,-8.1773,2.1131,-0.2805,-0.073,-0.0373,0.0602,-0.0422,0.0437,288,2019-08-07 16:25:15:596
5.1219,-8.1964,2.1225,-0.2805,-0.073,-0.0373,0.0613,-0.04,0.0459,294,2019-08-07 16:25:15:602
5.1219,-8.1964,2.1225,-0.1409,-0.0834,-0.0644,0.0613,-0.04,0.0459,299,2019-08-07 16:25:15:607
4.9497,-8.0962,2.1366,-0.1409,-0.0834,-0.0644,0.0528,-0.0411,0.0384,304,2019-08-07 16:25:15:612
4.9497,-8.0962,2.1366,-0.1409,-0.0834,-0.0644,0.0528,-0.0411,0.0384,309,2019-08-07 16:25:15:617
4.9497,-8.015,2.2733,-0.1409,-0.0834,-0.0644,0.04,-0.039,0.0395,315,2019-08-07 16:25:15:623
4.9353,-8.015,2.2733,-0.097,-0.2373,-0.1679,0.04,-0.039,0.0395,318,2019-08-07 16:25:15:626
4.9353,-8.015,2.2733,-0.097,-0.2373,-0.1679,0.04,-0.039,0.0395,324,2019-08-07 16:25:15:632
4.9401,-7.9721,2.1649,-0.097,-0.2373,-0.1679,0.0134,-0.0635,0.0342,328,2019-08-07 16:25:15:636
4.9401,-7.9721,2.1649,-0.097,-0.2373,-0.1679,0.0134,-0.0635,0.0342,334,2019-08-07 16:25:15:642
4.9401,-7.9721,2.1649,-0.1848,-0.2535,-0.1193,-0.0165,-0.0762,0.0395,339,2019-08-07 16:25:15:647
5.0501,-7.953,2.1178,-0.1848,-0.2535,-0.1193,-0.0165,-0.0762,0.0395,344,2019-08-07 16:25:15:652
5.0501,-7.953,2.1178,-0.1848,-0.2535,-0.1193,-0.0303,-0.0752,0.0448,350,2019-08-07 16:25:15:658
5.3133,-7.9864,2.0942,-0.1848,-0.2535,-0.1193,-0.0303,-0.0752,0.0448,353,2019-08-07 16:25:15:661
5.3133,-7.9864,2.0942,-0.4587,-0.2045,-0.1025,-0.0303,-0.0752,0.0448,359,2019-08-07 16:25:15:667
5.3133,-7.9864,2.0942,-0.4587,-0.2045,-0.1025,-0.0346,-0.0688,0.0459,363,2019-08-07 16:25:15:671
5.3659,-8.0246,2.1225,-0.4587,-0.2045,-0.1025,-0.0346,-0.0688,0.0459,369,2019-08-07 16:25:15:677
5.3659,-8.0246,2.1225,-0.4587,-0.2045,-0.1025,-0.042,-0.0667,0.0523,373,2019-08-07 16:25:15:681
5.4137,-8.0246,1.9858,-0.5421,-0.2376,0.0731,-0.042,-0.0667,0.0523,379,2019-08-07 16:25:15:687
5.4137,-8.0246,1.9858,-0.5421,-0.2376,0.0731,-0.0463,-0.0507,0.065,384,2019-08-07 16:25:15:692
5.4137,-8.0246,1.9858,-0.5421,-0.2376,0.0731,-0.0463,-0.0507,0.065,389,2019-08-07 16:25:15:697
5.3994,-8.0771,2.0329,-0.5421,-0.2376,0.0731,-0.0442,-0.0379,0.0789,394,2019-08-07 16:25:15:702
5.3994,-8.0771,2.0329,-0.6007,-0.0963,0.0746,-0.0442,-0.0379,0.0789,399,2019-08-07 16:25:15:707
5.3611,-8.2107,2.0235,-0.6007,-0.0963,0.0746,-0.0442,-0.0379,0.0789,404,2019-08-07 16:25:15:712
5.3611,-8.2107,2.0235,-0.6007,-0.0963,0.0746,-0.0314,-0.0123,0.0736,408,2019-08-07 16:25:15:716
5.3611,-8.2107,2.0235,-0.6007,-0.0963,0.0746,-0.0314,-0.0123,0.0736,414,2019-08-07 16:25:15:722
5.2319,-8.2823,2.0612,-0.3418,0.0017,0.0492,-0.0207,0.0111,0.064,418,2019-08-07 16:25:15:726
5.2319,-8.2823,2.0612,-0.3418,0.0017,0.0492,-0.0207,0.0111,0.064,424,2019-08-07 16:25:15:732
5.2319,-8.2823,2.0612,-0.3418,0.0017,0.0492,-0.0101,0.042,0.0565,429,2019-08-07 16:25:15:737
4.9927,-8.2489,2.0424,-0.3418,0.0017,0.0492,-0.0101,0.042,0.0565,434,2019-08-07 16:25:15:742
4.9927,-8.2489,2.0424,-0.3418,0.0017,0.0492,-0.0058,0.0548,0.0395,438,2019-08-07 16:25:15:746
4.9353,-8.2155,2.1791,-0.1216,-0.0605,-0.1749,-0.0058,0.0548,0.0395,444,2019-08-07 16:25:15:752
4.9353,-8.2155,2.1791,-0.1216,-0.0605,-0.1749,6.0E-4,0.0505,0.0214,448,2019-08-07 16:25:15:756
4.9353,-8.2155,2.1791,-0.1216,-0.0605,-0.1749,6.0E-4,0.0505,0.0214,454,2019-08-07 16:25:15:762
4.9113,-8.1248,2.1743,-0.1216,-0.0605,-0.1749,-0.0026,0.0292,-0.001,459,2019-08-07 16:25:15:767
4.9113,-8.1248,2.1743,-0.0635,-0.1951,-0.1455,-0.0026,0.0292,-0.001,464,2019-08-07 16:25:15:772
4.9113,-8.1248,2.1743,-0.0635,-0.1951,-0.1455,-0.0026,0.0026,-0.0106,468,2019-08-07 16:25:15:776
5.0596,-8.0962,2.1366,-0.0635,-0.1951,-0.1455,-0.0026,0.0026,-0.0106,474,2019-08-07 16:25:15:782
5.0596,-8.0962,2.1366,-0.0635,-0.1951,-0.1455,6.0E-4,-0.0123,-0.0212,479,2019-08-07 16:25:15:787
5.1792,-8.0962,2.0848,-0.3084,-0.1785,-0.0084,6.0E-4,-0.0123,-0.0212,484,2019-08-07 16:25:15:792
5.1792,-8.0962,2.0848,-0.3084,-0.1785,-0.0084,6.0E-4,-0.0177,-0.0276,488,2019-08-07 16:25:15:796
5.1792,-8.0962,2.0848,-0.3084,-0.1785,-0.0084,6.0E-4,-0.0177,-0.0276,494,2019-08-07 16:25:15:802
5.2893,-8.0962,2.0518,-0.3084,-0.1785,-0.0084,-5.0E-4,-0.0187,-0.0255,499,2019-08-07 16:25:15:807
5.2893,-8.0962,2.0518,-0.4725,-0.1598,0.0986,-5.0E-4,-0.0187,-0.0255,503,2019-08-07 16:25:15:811
5.3562,-8.1105,1.9056,-0.4725,-0.1598,0.0986,-5.0E-4,-0.0187,-0.0255,509,2019-08-07 16:25:15:817
5.3562,-8.1105,1.9056,-0.4725,-0.1598,0.0986,-0.0058,0.0058,-0.0191,515,2019-08-07 16:25:15:823
5.3562,-8.1105,1.9056,-0.4725,-0.1598,0.0986,-0.0058,0.0058,-0.0191,519,2019-08-07 16:25:15:827
5.3658,-8.1964,1.9575,-0.5041,-0.0751,0.0874,-0.009,0.0324,-0.0127,523,2019-08-07 16:25:15:831
5.3658,-8.1964,1.9575,-0.5041,-0.0751,0.0874,-0.009,0.0324,-0.0127,529,2019-08-07 16:25:15:837
5.2462,-8.2823,1.9669,-0.5041,-0.0751,0.0874,-0.0069,0.0473,-0.0053,533,2019-08-07 16:25:15:841
5.2462,-8.2823,1.9669,-0.5041,-0.0751,0.0874,-0.0069,0.0473,-0.0053,539,2019-08-07 16:25:15:847
5.2462,-8.2823,1.9669,-0.3344,-0.0399,1.0E-4,-0.0016,0.0452,0.0011,544,2019-08-07 16:25:15:852
5.0931,-8.2394,2.0942,-0.3344,-0.0399,1.0E-4,-0.0016,0.0452,0.0011,550,2019-08-07 16:25:15:858
5.0931,-8.2394,2.0942,-0.3344,-0.0399,1.0E-4,0.0027,0.0399,0.0075,554,2019-08-07 16:25:15:862
5.0931,-8.2394,2.0942,-0.3344,-0.0399,1.0E-4,0.0027,0.0399,0.0075,559,2019-08-07 16:25:15:867
5.0309,-8.206,2.0235,-0.1633,-0.0728,-0.0238,0.0016,0.0324,0.015,564,2019-08-07 16:25:15:872
5.0309,-8.206,2.0235,-0.1633,-0.0728,-0.0238,0.0016,0.0324,0.015,569,2019-08-07 16:25:15:877
5.0691,-8.1582,2.1083,-0.1633,-0.0728,-0.0238,0.0016,0.0324,0.015,574,2019-08-07 16:25:15:882
5.0691,-8.1582,2.1083,-0.1633,-0.0728,-0.0238,0.0016,0.026,0.0129,579,2019-08-07 16:25:15:887
5.0691,-8.1582,2.1083,-0.2228,-0.121,-0.0441,0.0016,0.026,0.0129,583,2019-08-07 16:25:15:891
5.0978,-8.1773,2.0848,-0.2228,-0.121,-0.0441,-5.0E-4,0.042,0.0171,589,2019-08-07 16:25:15:897
5.0978,-8.1773,2.0848,-0.205,-0.1357,0.0049,-5.0E-4,0.042,0.0171,594,2019-08-07 16:25:15:902
5.0404,-8.1534,2.0565,-0.205,-0.1357,0.0049,-5.0E-4,0.042,0.0171,598,2019-08-07 16:25:15:906
5.0404,-8.1534,2.0565,-0.205,-0.1357,0.0049,-0.0048,0.0537,0.0129,604,2019-08-07 16:25:15:912
5.0404,-8.1534,2.0565,-0.205,-0.1357,0.0049,-0.0048,0.0537,0.0129,608,2019-08-07 16:25:15:916
4.9639,-8.1439,2.08,-0.1077,-0.1269,-0.019,-0.0101,0.0388,0.0107,614,2019-08-07 16:25:15:922
4.9639,-8.1439,2.08,-0.1077,-0.1269,-0.019,-0.0101,0.0388,0.0107,619,2019-08-07 16:25:15:927
5.0117,-8.1391,2.0612,-0.1077,-0.1269,-0.019,-0.0122,0.0196,0.0224,624,2019-08-07 16:25:15:932
5.0117,-8.1391,2.0612,-0.1077,-0.1269,-0.019,-0.0122,0.0196,0.0224,629,2019-08-07 16:25:15:937
5.0117,-8.1391,2.0612,-0.2494,-0.1286,0.0518,-0.008,-0.0038,0.0235,634,2019-08-07 16:25:15:942
5.0787,-8.1725,2.0989,-0.2494,-0.1286,0.0518,-0.008,-0.0038,0.0235,639,2019-08-07 16:25:15:947
5.0787,-8.1725,2.0989,-0.2408,-0.1342,0.0131,-0.0026,-0.0155,0.0256,643,2019-08-07 16:25:15:951
5.1122,-8.1105,2.0565,-0.2408,-0.1342,0.0131,-0.0026,-0.0155,0.0256,650,2019-08-07 16:25:15:958
5.1122,-8.1105,2.0565,-0.2408,-0.1342,0.0131,-0.0026,-0.0155,0.0256,654,2019-08-07 16:25:15:962
5.1122,-8.1105,2.0565,-0.2408,-0.1342,0.0131,-5.0E-4,-0.0347,0.0278,659,2019-08-07 16:25:15:967
5.1793,-8.0962,2.0235,-0.3281,-0.1783,0.0343,-5.0E-4,-0.0347,0.0278,664,2019-08-07 16:25:15:972
5.1793,-8.0962,2.0235,-0.3281,-0.1783,0.0343,-0.0026,-0.0198,0.0278,668,2019-08-07 16:25:15:976
5.1793,-8.0962,2.0235,-0.3281,-0.1783,0.0343,-0.0026,-0.0198,0.0278,674,2019-08-07 16:25:15:982
5.0789,-8.0866,2.0141,-0.3281,-0.1783,0.0343,-0.0133,-0.0049,0.0203,679,2019-08-07 16:25:15:987
5.0789,-8.0866,2.0141,-0.2767,-0.1129,0.0033,-0.0133,-0.0049,0.0203,683,2019-08-07 16:25:15:991
5.0789,-8.0866,2.0141,-0.2767,-0.1129,0.0033,-0.0186,0.0058,0.0075,689,2019-08-07 16:25:15:997
5.0693,-8.1917,2.0659,-0.2767,-0.1129,0.0033,-0.0186,0.0058,0.0075,693,2019-08-07 16:25:16:001
5.0693,-8.1917,2.0659,-0.2767,-0.1129,0.0033,-0.0154,0.0132,-0.001,700,2019-08-07 16:25:16:008
5.0884,-8.2251,2.1225,-0.2381,-0.0511,-0.0695,-0.0154,0.0132,-0.001,704,2019-08-07 16:25:16:012
5.0884,-8.2251,2.1225,-0.2381,-0.0511,-0.0695,-0.0154,0.0132,-0.001,708,2019-08-07 16:25:16:016
5.0884,-8.2251,2.1225,-0.2381,-0.0511,-0.0695,-0.0048,0.0164,-0.0106,714,2019-08-07 16:25:16:022
5.031,-8.1821,2.0706,-0.2381,-0.0511,-0.0695,-0.0048,0.0164,-0.0106,718,2019-08-07 16:25:16:026
5.031,-8.1821,2.0706,-0.2304,-0.1066,-0.0972,-0.008,0.0068,-0.017,724,2019-08-07 16:25:16:032
5.0788,-8.1153,2.1272,-0.2304,-0.1066,-0.0972,-0.008,0.0068,-0.017,728,2019-08-07 16:25:16:036
5.0788,-8.1153,2.1272,-0.2304,-0.1066,-0.0972,-0.0048,-0.0209,-0.0116,734,2019-08-07 16:25:16:042
5.0788,-8.1153,2.1272,-0.2304,-0.1066,-0.0972,-0.0048,-0.0209,-0.0116,738,2019-08-07 16:25:16:046
5.2702,-8.206,2.1131,-0.4358,-0.0994,-0.0192,0.0027,-0.0368,-0.0053,744,2019-08-07 16:25:16:052
5.2702,-8.206,2.1131,-0.4358,-0.0994,-0.0192,0.0027,-0.0368,-0.0053,749,2019-08-07 16:25:16:057
5.2702,-8.206,2.1131,-0.4358,-0.0994,-0.0192,0.0219,-0.0272,-0.0021,754,2019-08-07 16:25:16:062
5.3372,-8.12,2.0376,-0.4358,-0.0994,-0.0192,0.0219,-0.0272,-0.0021,758,2019-08-07 16:25:16:066
5.3372,-8.12,2.0376,-0.4933,-0.1776,0.0332,0.0347,-0.0091,0.0086,764,2019-08-07 16:25:16:072
5.3802,-8.0866,1.9905,-0.4933,-0.1776,0.0332,0.0347,-0.0091,0.0086,769,2019-08-07 16:25:16:077
5.3802,-8.0866,1.9905,-0.4933,-0.1776,0.0332,0.0347,-0.0091,0.0086,774,2019-08-07 16:25:16:082
5.3802,-8.0866,1.9905,-0.4933,-0.1776,0.0332,0.041,0.01,0.0171,779,2019-08-07 16:25:16:087
5.3276,-8.0962,2.0801,-0.4933,-0.1776,0.0332,0.041,0.01,0.0171,783,2019-08-07 16:25:16:091
5.3276,-8.0962,2.0801,-0.4636,-0.1562,-0.0728,0.0464,0.026,0.016,789,2019-08-07 16:25:16:097
5.3276,-8.0962,2.0801,-0.4636,-0.1562,-0.0728,0.0464,0.026,0.016,793,2019-08-07 16:25:16:101
5.3276,-8.058,2.0659,-0.4636,-0.1562,-0.0728,0.0453,0.0388,0.0107,799,2019-08-07 16:25:16:107
5.3276,-8.058,2.0659,-0.4636,-0.1562,-0.0728,0.0453,0.0388,0.0107,804,2019-08-07 16:25:16:112
5.2319,-8.0293,2.0942,-0.4065,-0.2633,-0.0474,0.0453,0.0388,0.0107,809,2019-08-07 16:25:16:117
5.2319,-8.0293,2.0942,-0.4065,-0.2633,-0.0474,0.0389,0.0505,0.0043,814,2019-08-07 16:25:16:122
5.2319,-8.0293,2.0942,-0.4065,-0.2633,-0.0474,0.0389,0.0505,0.0043,818,2019-08-07 16:25:16:126
5.1793,-8.0484,2.0754,-0.4065,-0.2633,-0.0474,0.0315,0.0601,-0.0042,824,2019-08-07 16:25:16:132
5.1793,-8.0484,2.0754,-0.2868,-0.1697,0.0019,0.0315,0.0601,-0.0042,829,2019-08-07 16:25:16:137
5.1362,-8.1057,2.0046,-0.2868,-0.1697,0.0019,0.0272,0.0548,-0.0148,835,2019-08-07 16:25:16:143
5.1362,-8.1057,2.0046,-0.2868,-0.1697,0.0019,0.0272,0.0548,-0.0148,839,2019-08-07 16:25:16:147
5.1362,-8.1057,2.0046,-0.2868,-0.1697,0.0019,0.0272,0.0228,-0.0191,844,2019-08-07 16:25:16:152
5.1219,-8.1391,1.9716,-0.2551,-0.1181,0.1183,0.0272,0.0228,-0.0191,848,2019-08-07 16:25:16:156
5.1219,-8.1391,1.9716,-0.2551,-0.1181,0.1183,0.0315,5.0E-4,-0.0116,854,2019-08-07 16:25:16:162
5.2367,-8.1582,1.9905,-0.2551,-0.1181,0.1183,0.0315,5.0E-4,-0.0116,859,2019-08-07 16:25:16:167
5.2367,-8.1582,1.9905,-0.3842,-0.0665,0.1083,0.04,-0.0134,-0.0127,865,2019-08-07 16:25:16:173
5.2367,-8.1582,1.9905,-0.3842,-0.0665,0.1083,0.04,-0.0134,-0.0127,868,2019-08-07 16:25:16:176
5.318,-8.1678,1.9386,-0.3842,-0.0665,0.1083,0.04,-0.0134,-0.0127,874,2019-08-07 16:25:16:182
5.318,-8.1678,1.9386,-0.3842,-0.0665,0.1083,0.0421,-0.0102,-0.0095,879,2019-08-07 16:25:16:187
5.318,-8.1678,1.9386,-0.3842,-0.0665,0.1083,0.0421,-0.0102,-0.0095,884,2019-08-07 16:25:16:192
5.3371,-8.1582,1.9669,-0.4603,-0.0909,0.1319,0.0538,0.009,-0.0053,888,2019-08-07 16:25:16:196
5.3371,-8.1582,1.9669,-0.4603,-0.0909,0.1319,0.0538,0.009,-0.0053,894,2019-08-07 16:25:16:202
5.2032,-8.1535,1.9009,-0.4603,-0.0909,0.1319,0.0624,0.058,-0.0063,898,2019-08-07 16:25:16:206
5.2032,-8.1535,1.9009,-0.4603,-0.0909,0.1319,0.0624,0.058,-0.0063,904,2019-08-07 16:25:16:212
5.2032,-8.1535,1.9009,-0.2093,-0.1199,0.1627,0.0624,0.058,-0.0063,909,2019-08-07 16:25:16:217
4.9209,-8.1153,1.9245,-0.2093,-0.1199,0.1627,0.0677,0.1038,-0.0202,914,2019-08-07 16:25:16:222
4.9209,-8.1153,1.9245,-0.2093,-0.1199,0.1627,0.0677,0.1038,-0.0202,919,2019-08-07 16:25:16:227
4.6721,-8.1869,1.9811,-0.2093,-0.1199,0.1627,0.0634,0.1336,-0.034,924,2019-08-07 16:25:16:232
4.6721,-8.1869,1.9811,0.2779,-0.0481,0.1132,0.0634,0.1336,-0.034,929,2019-08-07 16:25:16:237
4.6721,-8.1869,1.9811,0.2779,-0.0481,0.1132,0.0655,0.1411,-0.066,934,2019-08-07 16:25:16:242
4.4951,-8.2442,2.1885,0.2779,-0.0481,0.1132,0.0655,0.1411,-0.066,939,2019-08-07 16:25:16:247
4.4951,-8.2442,2.1885,0.2779,-0.0481,0.1132,0.0677,0.1123,-0.0937,944,2019-08-07 16:25:16:252
4.2224,-8.2394,2.1366,0.6314,-0.0203,0.0144,0.0677,0.1123,-0.0937,949,2019-08-07 16:25:16:257
4.2224,-8.2394,2.1366,0.6314,-0.0203,0.0144,0.0602,0.0867,-0.1342,954,2019-08-07 16:25:16:262
4.2224,-8.2394,2.1366,0.6314,-0.0203,0.0144,0.0602,0.0867,-0.1342,959,2019-08-07 16:25:16:267
3.9784,-8.1296,2.1319,0.6314,-0.0203,0.0144,0.0506,0.0644,-0.1682,964,2019-08-07 16:25:16:272
3.9784,-8.1296,2.1319,0.9538,-0.1349,0.0982,0.0506,0.0644,-0.1682,968,2019-08-07 16:25:16:276
3.9784,-8.1296,2.1319,0.9538,-0.1349,0.0982,0.0421,0.026,-0.1949,974,2019-08-07 16:25:16:282
3.897,-8.0675,2.0801,0.9538,-0.1349,0.0982,0.0421,0.026,-0.1949,979,2019-08-07 16:25:16:287
3.897,-8.0675,2.0801,0.9538,-0.1349,0.0982,0.0283,-0.04,-0.2386,983,2019-08-07 16:25:16:291
3.7296,-8.0962,1.9575,1.1466,-0.0963,0.2073,0.0283,-0.04,-0.2386,989,2019-08-07 16:25:16:297
3.7296,-8.0962,1.9575,1.1466,-0.0963,0.2073,0.0336,-0.0752,-0.278,994,2019-08-07 16:25:16:302
3.7296,-8.0962,1.9575,1.1466,-0.0963,0.2073,0.0336,-0.0752,-0.278,999,2019-08-07 16:25:16:307
3.5047,-8.0818,1.7878,1.1466,-0.0963,0.2073,0.041,-0.1189,-0.3099,1004,2019-08-07 16:25:16:312
3.5047,-8.0818,1.7878,1.5257,-0.0851,0.3915,0.041,-0.1189,-0.3099,1009,2019-08-07 16:25:16:317
3.5047,-8.0818,1.7878,1.5257,-0.0851,0.3915,0.0474,-0.1604,-0.3472,1014,2019-08-07 16:25:16:322
3.2751,-8.1773,1.6087,1.5257,-0.0851,0.3915,0.0474,-0.1604,-0.3472,1019,2019-08-07 16:25:16:327
3.2751,-8.1773,1.6087,1.5257,-0.0851,0.3915,0.057,-0.1881,-0.3909,1024,2019-08-07 16:25:16:332
2.9545,-8.2585,1.439,2.1031,0.1273,0.7516,0.057,-0.1881,-0.3909,1029,2019-08-07 16:25:16:337
2.9545,-8.2585,1.439,2.1031,0.1273,0.7516,0.0655,-0.2073,-0.4484,1033,2019-08-07 16:25:16:341
2.9545,-8.2585,1.439,2.1031,0.1273,0.7516,0.0655,-0.2073,-0.4484,1039,2019-08-07 16:25:16:347
2.5,-8.3301,1.4673,2.1031,0.1273,0.7516,0.0869,-0.2478,-0.5123,1044,2019-08-07 16:25:16:352
2.5,-8.3301,1.4673,2.8963,0.1675,0.8025,0.0869,-0.2478,-0.5123,1049,2019-08-07 16:25:16:357
1.9737,-8.2107,1.2457,2.8963,0.1675,0.8025,0.1188,-0.2872,-0.5794,1054,2019-08-07 16:25:16:362
1.9737,-8.2107,1.2457,2.8963,0.1675,0.8025,0.1188,-0.2872,-0.5794,1059,2019-08-07 16:25:16:367
1.9737,-8.2107,1.2457,3.3597,0.0348,0.9222,0.1422,-0.3319,-0.6647,1065,2019-08-07 16:25:16:373
1.6149,-7.9768,1.1986,3.3597,0.0348,0.9222,0.1422,-0.3319,-0.6647,1069,2019-08-07 16:25:16:377
1.6149,-7.9768,1.1986,3.3597,0.0348,0.9222,0.1934,-0.3564,-0.7818,1073,2019-08-07 16:25:16:381
1.2226,-7.762,0.8875,4.1166,-0.3158,1.3838,0.1934,-0.3564,-0.7818,1079,2019-08-07 16:25:16:387
1.2226,-7.762,0.8875,4.1166,-0.3158,1.3838,0.2413,-0.3042,-0.932,1084,2019-08-07 16:25:16:392
0.7538,-7.4947,0.4444,4.1166,-0.3158,1.3838,0.2413,-0.3042,-0.932,1089,2019-08-07 16:25:16:397
0.7538,-7.4947,0.4444,4.1166,-0.3158,1.3838,0.2637,-0.2318,-1.0652,1094,2019-08-07 16:25:16:402
0.7538,-7.4947,0.4444,5.1496,-0.5013,2.0218,0.2637,-0.2318,-1.0652,1099,2019-08-07 16:25:16:407
0.0552,-7.4087,0.1002,5.1496,-0.5013,2.0218,0.3127,-0.0326,-1.3486,1104,2019-08-07 16:25:16:412
0.0552,-7.4087,0.1002,5.1496,-0.5013,2.0218,0.3127,-0.0326,-1.3486,1109,2019-08-07 16:25:16:417
0.0552,-7.4087,0.1002,5.6976,-0.2164,2.0091,0.3127,-0.0326,-1.3486,1114,2019-08-07 16:25:16:422
-0.6959,-7.8527,-0.456,5.6976,-0.2164,2.0091,0.4011,0.1549,-1.6671,1119,2019-08-07 16:25:16:427
-0.6959,-7.8527,-0.456,5.6976,-0.2164,2.0091,0.4011,0.1549,-1.6671,1124,2019-08-07 16:25:16:432
-2.1981,-8.4065,-1.5732,5.6976,-0.2164,2.0091,0.5012,0.467,-2.0687,1128,2019-08-07 16:25:16:436
-2.1981,-8.4065,-1.5732,8.3502,0.8755,3.9979,0.5652,0.8069,-2.514,1134,2019-08-07 16:25:16:442
-2.1981,-8.4065,-1.5732,8.3502,0.8755,3.9979,0.5652,0.8069,-2.514,1139,2019-08-07 16:25:16:447
-4.5807,-9.3612,-2.6715,8.3502,0.8755,3.9979,0.5652,0.8069,-2.514,1144,2019-08-07 16:25:16:452
-4.5807,-9.3612,-2.6715,13.1443,2.8041,5.8788,0.628,1.1264,-2.9869,1149,2019-08-07 16:25:16:457
-7.7144,-10.4306,-3.5294,13.1443,2.8041,5.8788,0.628,1.1264,-2.9869,1154,2019-08-07 16:25:16:462
-7.7144,-10.4306,-3.5294,13.1443,2.8041,5.8788,0.8379,1.4599,-3.5132,1159,2019-08-07 16:25:16:467
-7.7144,-10.4306,-3.5294,15.2588,3.8888,5.8584,0.8379,1.4599,-3.5132,1163,2019-08-07 16:25:16:471
-9.3554,-11.3471,-3.8735,15.2588,3.8888,5.8584,1.134,1.6005,-3.9467,1169,2019-08-07 16:25:16:477
-9.3554,-11.3471,-3.8735,15.2588,3.8888,5.8584,1.134,1.6005,-3.9467,1174,2019-08-07 16:25:16:482
-10.8098,-12.8461,-5.0614,15.2588,3.8888,5.8584,1.134,1.6005,-3.9467,1178,2019-08-07 16:25:16:486
-10.8098,-12.8461,-5.0614,17.5959,7.0574,7.9357,1.4344,1.7656,-4.3611,1184,2019-08-07 16:25:16:492
-10.8098,-12.8461,-5.0614,17.5959,7.0574,7.9357,1.4344,1.7656,-4.3611,1189,2019-08-07 16:25:16:497
-11.3169,-15.128,-5.0284,17.5959,7.0574,7.9357,2.0672,2.1651,-5.159,1194,2019-08-07 16:25:16:502
-11.3169,-15.128,-5.0284,17.5959,7.0574,7.9357,2.0672,2.1651,-5.159,1199,2019-08-07 16:25:16:507
-12.9196,-17.238,-6.1408,19.5967,10.9694,9.3573,2.0672,2.1651,-5.159,1204,2019-08-07 16:25:16:512
-12.9196,-17.238,-6.1408,19.5967,10.9694,9.3573,2.8832,2.7701,-6.0666,1209,2019-08-07 16:25:16:517
-12.9196,-17.238,-6.1408,19.5967,10.9694,9.3573,2.8832,2.7701,-6.0666,1214,2019-08-07 16:25:16:522
-13.8526,-18.6988,-7.159,19.5967,10.9694,9.3573,3.5415,3.2165,-6.7196,1220,2019-08-07 16:25:16:528
-13.8526,-18.6988,-7.159,21.585,14.1438,11.1688,3.5415,3.2165,-6.7196,1224,2019-08-07 16:25:16:532
-12.7953,-18.2596,-4.7173,21.585,14.1438,11.1688,4.1903,3.3262,-7.3002,1228,2019-08-07 16:25:16:536
-12.7953,-18.2596,-4.7173,21.585,14.1438,11.1688,4.1903,3.3262,-7.3002,1234,2019-08-07 16:25:16:542
-12.7953,-18.2596,-4.7173,21.585,14.1438,11.1688,4.9668,2.5592,-7.8222,1239,2019-08-07 16:25:16:547
-8.9487,-14.4167,-1.3516,16.7549,11.1349,6.3045,4.9668,2.5592,-7.8222,1243,2019-08-07 16:25:16:551
-8.9487,-14.4167,-1.3516,16.7549,11.1349,6.3045,5.9149,1.266,-8.3218,1249,2019-08-07 16:25:16:557
-8.9487,-14.4167,-1.3516,16.7549,11.1349,6.3045,5.9149,1.266,-8.3218,1254,2019-08-07 16:25:16:562
-5.2649,-10.612,2.2214,16.7549,11.1349,6.3045,5.9149,1.266,-8.3218,1259,2019-08-07 16:25:16:567
-5.2649,-10.612,2.2214,13.2474,8.0675,10.594,7.4958,0.6982,-9.0675,1264,2019-08-07 16:25:16:572
-3.0833,-6.4492,-5.8863,13.2474,8.0675,10.594,7.4958,0.6982,-9.0675,1269,2019-08-07 16:25:16:577
-3.0833,-6.4492,-5.8863,13.2474,8.0675,10.594,8.8593,2.9725,-9.8632,1273,2019-08-07 16:25:16:581
-3.0833,-6.4492,-5.8863,13.2474,8.0675,10.594,8.8593,2.9725,-9.8632,1279,2019-08-07 16:25:16:587
-2.0068,0.6877,-5.7119,9.7961,0.5682,11.5417,9.7744,3.9419,-10.5673,1284,2019-08-07 16:25:16:592
-2.0068,0.6877,-5.7119,9.7961,0.5682,11.5417,9.7744,3.9419,-10.5673,1290,2019-08-07 16:25:16:598
-2.0068,0.6877,-5.7119,9.7961,0.5682,11.5417,11.1677,1.4748,-10.0518,1293,2019-08-07 16:25:16:601
-27.6169,93.844,61.4599,9.7961,0.5682,11.5417,11.1677,1.4748,-10.0518,1299,2019-08-07 16:25:16:607
-27.6169,93.844,61.4599,32.7848,-143.2549,6.6938,8.6217,-12.7028,-5.5532,1304,2019-08-07 16:25:16:612
-27.6169,93.844,61.4599,32.7848,-143.2549,6.6938,8.6217,-12.7028,-5.5532,1309,2019-08-07 16:25:16:617
-7.0303,124.2914,-6.4331,32.7848,-143.2549,6.6938,7.8185,-13.0256,-5.6022,1314,2019-08-07 16:25:16:622
-7.0303,124.2914,-6.4331,5.2922,-96.2635,20.887,7.8185,-13.0256,-5.6022,1319,2019-08-07 16:25:16:627
-7.0303,124.2914,-6.4331,5.2922,-96.2635,20.887,7.8185,-13.0256,-5.6022,1324,2019-08-07 16:25:16:632
29.5883,51.1756,-47.9853,5.2922,-96.2635,20.887,0.9284,-19.9061,-1.7747,1329,2019-08-07 16:25:16:637
29.5883,51.1756,-47.9853,-29.0925,-33.8602,63.0445,0.9284,-19.9061,-1.7747,1334,2019-08-07 16:25:16:642
45.2854,28.4618,-51.2803,-29.0925,-33.8602,63.0445,-6.0416,-6.9802,3.2598,1339,2019-08-07 16:25:16:647
45.2854,28.4618,-51.2803,-29.0925,-33.8602,63.0445,-6.0416,-6.9802,3.2598,1344,2019-08-07 16:25:16:652
45.2854,28.4618,-51.2803,-29.0925,-33.8602,63.0445,-6.0416,-6.9802,3.2598,1349,2019-08-07 16:25:16:657
43.4004,4.4256,-15.9173,-35.0661,0.7467,16.0695,-8.0028,0.6673,5.6225,1354,2019-08-07 16:25:16:662
43.4004,4.4256,-15.9173,-35.0661,0.7467,16.0695,-8.0028,0.6673,5.6225,1359,2019-08-07 16:25:16:667
43.4004,4.4256,-15.9173,-35.0661,0.7467,16.0695,-5.623,10.9567,6.4332,1364,2019-08-07 16:25:16:672
29.7557,10.7748,96.3703,-35.0661,0.7467,16.0695,1.6059,5.2522,7.0851,1369,2019-08-07 16:25:16:677
29.7557,10.7748,96.3703,-20.6823,-9.62,-36.9199,1.6059,5.2522,7.0851,1374,2019-08-07 16:25:16:682
18.2113,16.6561,8.7171,-20.6823,-9.62,-36.9199,1.6059,5.2522,7.0851,1379,2019-08-07 16:25:16:687
18.2113,16.6561,8.7171,-20.6823,-9.62,-36.9199,5.1895,-1.4622,7.1299,1384,2019-08-07 16:25:16:692
18.2113,16.6561,8.7171,-20.6823,-9.62,-36.9199,5.1895,-1.4622,7.1299,1389,2019-08-07 16:25:16:697
13.8146,26.4759,-4.8587,-5.4857,-23.6535,10.5141,5.4015,4.645,6.3011,1394,2019-08-07 16:25:16:702
13.8146,26.4759,-4.8587,-5.4857,-23.6535,10.5141,5.4015,4.645,6.3011,1399,2019-08-07 16:25:16:707
8.3749,28.6384,-24.289,-5.4857,-23.6535,10.5141,0.9007,0.9762,5.3349,1405,2019-08-07 16:25:16:713
8.3749,28.6384,-24.289,-5.4857,-23.6535,10.5141,0.9007,0.9762,5.3349,1408,2019-08-07 16:25:16:716
8.3749,28.6384,-24.289,8.5019,-26.0971,14.9424,-2.8533,-1.7444,5.3083,1414,2019-08-07 16:25:16:722
0.0791,27.1585,-9.2096,8.5019,-26.0971,14.9424,-2.8533,-1.7444,5.3083,1418,2019-08-07 16:25:16:726
0.0791,27.1585,-9.2096,8.5019,-26.0971,14.9424,-4.8943,-3.3083,6.4193,1424,2019-08-07 16:25:16:732
4.0882,13.7393,-3.322,8.5019,-26.0971,14.9424,-4.8943,-3.3083,6.4193,1429,2019-08-07 16:25:16:737
4.0882,13.7393,-3.322,-0.0389,-6.789,-7.1777,-5.0605,-0.8677,7.36,1435,2019-08-07 16:25:16:743
4.0882,13.7393,-3.322,-0.0389,-6.789,-7.1777,-5.0605,-0.8677,7.36,1439,2019-08-07 16:25:16:747
19.4122,-2.3389,40.0497,-0.0389,-6.789,-7.1777,-2.5507,-1.6763,6.9285,1444,2019-08-07 16:25:16:752
19.4122,-2.3389,40.0497,-0.0389,-6.789,-7.1777,-2.5507,-1.6763,6.9285,1449,2019-08-07 16:25:16:757
19.4122,-2.3389,40.0497,-2.2099,3.1326,1.1981,0.726,-4.0614,5.6172,1454,2019-08-07 16:25:16:762
11.9057,-5.1316,-1.7759,-2.2099,3.1326,1.1981,0.726,-4.0614,5.6172,1459,2019-08-07 16:25:16:767
11.9057,-5.1316,-1.7759,-2.2099,3.1326,1.1981,0.726,-4.0614,5.6172,1464,2019-08-07 16:25:16:772
12.7573,-6.4396,-2.5348,-2.2099,3.1326,1.1981,0.9859,-1.0776,4.7916,1469,2019-08-07 16:25:16:777
12.7573,-6.4396,-2.5348,-2.2099,3.1326,1.1981,0.9859,-1.0776,4.7916,1474,2019-08-07 16:25:16:782
8.6428,-5.6758,-1.6439,-1.1465,4.4429,2.8396,0.3265,-0.9008,4.4252,1479,2019-08-07 16:25:16:787
8.6428,-5.6758,-1.6439,-1.1465,4.4429,2.8396,0.3265,-0.9008,4.4252,1483,2019-08-07 16:25:16:791
8.6428,-5.6758,-1.6439,-1.1465,4.4429,2.8396,-0.4958,-0.0315,4.5136,1489,2019-08-07 16:25:16:797
5.6048,-5.1602,8.7312,-1.1465,4.4429,2.8396,-0.4958,-0.0315,4.5136,1494,2019-08-07 16:25:16:802
5.6048,-5.1602,8.7312,4.1882,2.6599,-7.8237,0.2786,0.0388,4.8886,1499,2019-08-07 16:25:16:807
5.6048,-5.1602,8.7312,4.1882,2.6599,-7.8237,0.2786,0.0388,4.8886,1504,2019-08-07 16:25:16:812
6.2937,-6.5399,3.5271,4.1882,2.6599,-7.8237,0.2786,0.0388,4.8886,1509,2019-08-07 16:25:16:817
6.2937,-6.5399,3.5271,1.6592,2.8271,-0.6691,0.9284,0.6428,5.0292,1514,2019-08-07 16:25:16:822
7.6812,-5.7856,1.2598,1.6592,2.8271,-0.6691,0.9284,0.6428,5.0292,1519,2019-08-07 16:25:16:827
7.6812,-5.7856,1.2598,1.6592,2.8271,-0.6691,0.8038,1.3118,4.6851,1524,2019-08-07 16:25:16:832
7.6812,-5.7856,1.2598,1.8694,0.9708,0.3084,0.8038,1.3118,4.6851,1529,2019-08-07 16:25:16:837
5.5139,-4.005,0.5716,1.8694,0.9708,0.3084,0.4448,1.478,4.3879,1535,2019-08-07 16:25:16:843
5.5139,-4.005,0.5716,1.8694,0.9708,0.3084,0.4448,1.478,4.3879,1539,2019-08-07 16:25:16:847
5.5139,-4.005,0.5716,1.8694,0.9708,0.3084,0.1987,1.6463,4.2462,1543,2019-08-07 16:25:16:851
3.7629,-4.1243,1.9103,4.6852,-0.6693,-0.5364,0.1987,1.6463,4.2462,1550,2019-08-07 16:25:16:858
3.7629,-4.1243,1.9103,4.6852,-0.6693,-0.5364,0.1987,1.6463,4.2462,1554,2019-08-07 16:25:16:862
3.7629,-4.1243,1.9103,4.6852,-0.6693,-0.5364,0.1114,1.6186,4.2015,1559,2019-08-07 16:25:16:867
2.6625,-5.7952,1.8302,4.6852,-0.6693,-0.5364,0.1114,1.6186,4.2015,1564,2019-08-07 16:25:16:872
2.6625,-5.7952,1.8302,5.5217,1.4975,0.3279,0.1018,1.7091,4.1621,1569,2019-08-07 16:25:16:877
1.7391,-7.8813,1.175,5.5217,1.4975,0.3279,0.1018,1.7091,4.1621,1574,2019-08-07 16:25:16:882
1.7391,-7.8813,1.175,5.5217,1.4975,0.3279,0.0815,1.9392,4.047,1579,2019-08-07 16:25:16:887
1.7391,-7.8813,1.175,5.5217,1.4975,0.3279,0.0815,1.9392,4.047,1584,2019-08-07 16:25:16:892
0.8397,-8.4064,1.076,6.5105,2.2183,0.9034,0.1518,2.1054,3.9703,1589,2019-08-07 16:25:16:897
0.8397,-8.4064,1.076,6.5105,2.2183,0.9034,0.1518,2.1054,3.9703,1594,2019-08-07 16:25:16:902
0.9019,-8.3682,1.5568,6.1322,1.8751,0.5874,0.3084,2.0894,3.867,1599,2019-08-07 16:25:16:907
0.9019,-8.3682,1.5568,6.1322,1.8751,0.5874,0.3084,2.0894,3.867,1604,2019-08-07 16:25:16:912
0.9019,-8.3682,1.5568,6.1322,1.8751,0.5874,0.3084,2.0894,3.867,1609,2019-08-07 16:25:16:917
1.299,-7.5901,1.3399,6.1322,1.8751,0.5874,0.5002,2.098,3.6774,1614,2019-08-07 16:25:16:922
1.299,-7.5901,1.3399,4.9671,0.0209,1.6557,0.5002,2.098,3.6774,1618,2019-08-07 16:25:16:926
1.4425,-6.4969,0.0719,4.9671,0.0209,1.6557,0.5407,2.3483,3.3407,1624,2019-08-07 16:25:16:932
1.4425,-6.4969,0.0719,4.9671,0.0209,1.6557,0.5407,2.3483,3.3407,1629,2019-08-07 16:25:16:937
1.4425,-6.4969,0.0719,4.9671,0.0209,1.6557,0.2956,2.6327,3.0648,1635,2019-08-07 16:25:16:943
0.6483,-5.9479,-0.4513,5.1089,-1.4727,3.284,0.2956,2.6327,3.0648,1638,2019-08-07 16:25:16:946
0.6483,-5.9479,-0.4513,5.1089,-1.4727,3.284,-0.0367,2.8394,2.8209,1644,2019-08-07 16:25:16:952
-0.0119,-6.01,0.35,5.1089,-1.4727,3.284,-0.0367,2.8394,2.8209,1649,2019-08-07 16:25:16:957
-0.0119,-6.01,0.35,5.1089,-1.4727,3.284,-0.3094,2.9906,2.5226,1654,2019-08-07 16:25:16:962
-0.0119,-6.01,0.35,5.318,-1.497,1.8753,-0.3094,2.9906,2.5226,1659,2019-08-07 16:25:16:967
-0.1698,-6.3394,1.4342,5.318,-1.497,1.8753,-0.3094,2.9906,2.5226,1664,2019-08-07 16:25:16:972
-0.1698,-6.3394,1.4342,5.318,-1.497,1.8753,-0.3648,2.9608,2.2712,1669,2019-08-07 16:25:16:977
-0.1698,-6.3394,1.4342,5.318,-1.497,1.8753,-0.3648,2.9608,2.2712,1674,2019-08-07 16:25:16:982
-0.308,-6.4874,1.9858,4.9033,-1.6421,1.2015,-0.3606,2.8884,1.9729,1679,2019-08-07 16:25:16:987
-0.308,-6.4874,1.9858,4.9033,-1.6421,1.2015,-0.3606,2.8884,1.9729,1685,2019-08-07 16:25:16:993
-0.308,-6.4874,1.9858,4.9033,-1.6421,1.2015,-0.3936,2.5347,1.5852,1689,2019-08-07 16:25:16:997
-0.9682,-5.5231,2.7825,4.9033,-1.6421,1.2015,-0.3936,2.5347,1.5852,1693,2019-08-07 16:25:17:001
-0.9682,-5.5231,2.7825,5.33,-3.0794,0.6775,-0.4927,1.9254,1.3998,1699,2019-08-07 16:25:17:007
-1.2361,-4.9455,2.8202,5.33,-3.0794,0.6775,-0.4927,1.9254,1.3998,1703,2019-08-07 16:25:17:011
-1.2361,-4.9455,2.8202,5.33,-3.0794,0.6775,-0.4927,1.9254,1.3998,1709,2019-08-07 16:25:17:017
-0.5855,-5.0839,2.099,5.33,-3.0794,0.6775,-0.6482,1.1797,1.3242,1715,2019-08-07 16:25:17:023
-0.5855,-5.0839,2.099,3.6215,-3.061,1.7967,-0.8218,0.4106,1.24,1719,2019-08-07 16:25:17:027
-0.5855,-5.0839,2.099,3.6215,-3.061,1.7967,-0.8218,0.4106,1.24,1724,2019-08-07 16:25:17:032
1.2373,-5.8,1.3542,3.6215,-3.061,1.7967,-0.8218,0.4106,1.24,1730,2019-08-07 16:25:17:038
1.2373,-5.8,1.3542,3.6215,-3.061,1.7967,-0.8687,0.026,1.1111,1734,2019-08-07 16:25:17:042
1.2373,-5.8,1.3542,0.614,-1.9966,3.2144,-0.8687,0.026,1.1111,1739,2019-08-07 16:25:17:047
3.1463,-6.6306,-0.0175,0.614,-1.9966,3.2144,-0.8208,0.0367,0.9087,1744,2019-08-07 16:25:17:052
3.1463,-6.6306,-0.0175,0.614,-1.9966,3.2144,-0.8208,0.0367,0.9087,1749,2019-08-07 16:25:17:057
4.1988,-6.7213,0.1569,0.614,-1.9966,3.2144,-0.6951,0.2838,0.7511,1754,2019-08-07 16:25:17:062
4.1988,-6.7213,0.1569,0.614,-1.9966,3.2144,-0.6951,0.2838,0.7511,1759,2019-08-07 16:25:17:067
4.1988,-6.7213,0.1569,-0.9296,-2.0447,2.8311,-0.5203,0.532,0.6275,1764,2019-08-07 16:25:17:072
4.0457,-6.1867,0.5953,-0.9296,-2.0447,2.8311,-0.5203,0.532,0.6275,1769,2019-08-07 16:25:17:077
4.0457,-6.1867,0.5953,-0.9296,-2.0447,2.8311,-0.5203,0.532,0.6275,1774,2019-08-07 16:25:17:082
3.4333,-5.757,0.6801,-0.0917,-2.9081,2.4023,-0.3595,0.8207,0.5412,1779,2019-08-07 16:25:17:087
3.4333,-5.757,0.6801,-0.0917,-2.9081,2.4023,-0.3595,0.8207,0.5412,1785,2019-08-07 16:25:17:093
3.4333,-5.757,0.6801,-0.0917,-2.9081,2.4023,-0.3563,0.8548,0.4368,1789,2019-08-07 16:25:17:097
2.2995,-5.7332,1.7832,-0.0917,-2.9081,2.4023,-0.3563,0.8548,0.4368,1793,2019-08-07 16:25:17:101
2.2995,-5.7332,1.7832,1.2647,-2.7498,0.7261,-0.3669,0.6535,0.3186,1799,2019-08-07 16:25:17:107
2.2995,-5.7332,1.7832,1.2647,-2.7498,0.7261,-0.3669,0.6535,0.3186,1804,2019-08-07 16:25:17:112
1.5101,-6.3203,2.9852,1.2647,-2.7498,0.7261,-0.3669,0.6535,0.3186,1809,2019-08-07 16:25:17:117
1.5101,-6.3203,2.9852,1.588,-2.3403,-0.0026,-0.3755,0.3147,0.1971,1814,2019-08-07 16:25:17:122
1.5101,-6.3203,2.9852,1.588,-2.3403,-0.0026,-0.3755,0.3147,0.1971,1819,2019-08-07 16:25:17:127
1.4957,-6.9123,3.0559,1.588,-2.3403,-0.0026,-0.3915,-0.0464,0.0448,1824,2019-08-07 16:25:17:132
1.4957,-6.9123,3.0559,1.1382,-1.4641,0.6311,-0.3915,-0.0464,0.0448,1828,2019-08-07 16:25:17:136
1.9646,-7.4326,2.2922,1.1382,-1.4641,0.6311,-0.3915,-0.0464,0.0448,1834,2019-08-07 16:25:17:142
1.9646,-7.4326,2.2922,1.1382,-1.4641,0.6311,-0.4341,-0.284,-0.0947,1839,2019-08-07 16:25:17:147
1.9646,-7.4326,2.2922,1.1382,-1.4641,0.6311,-0.45,-0.2968,-0.2151,1844,2019-08-07 16:25:17:152
2.6152,-8.015,1.9764,1.1382,-1.4641,0.6311,-0.45,-0.2968,-0.2151,1849,2019-08-07 16:25:17:157
2.6152,-8.015,1.9764,0.2125,-0.6159,0.9071,-0.45,-0.2968,-0.2151,1853,2019-08-07 16:25:17:161
2.9501,-8.4017,2.1367,0.2125,-0.6159,0.9071,-0.4287,-0.2786,-0.3195,1859,2019-08-07 16:25:17:167
2.9501,-8.4017,2.1367,0.115,-0.2906,0.6966,-0.4287,-0.2786,-0.3195,1864,2019-08-07 16:25:17:172
2.9501,-8.4017,2.1367,0.115,-0.2906,0.6966,-0.3765,-0.2488,-0.4154,1869,2019-08-07 16:25:17:177
2.8449,-8.6595,2.9616,0.115,-0.2906,0.6966,-0.3765,-0.2488,-0.4154,1874,2019-08-07 16:25:17:182
2.8449,-8.6595,2.9616,0.115,-0.2906,0.6966,-0.3158,-0.3521,-0.475,1879,2019-08-07 16:25:17:187
2.7731,-8.755,3.829,0.4128,-0.0785,-0.8535,-0.3158,-0.3521,-0.475,1884,2019-08-07 16:25:17:192
2.7731,-8.755,3.829,0.4128,-0.0785,-0.8535,-0.3222,-0.6036,-0.4793,1889,2019-08-07 16:25:17:197
2.7731,-8.755,3.829,0.4128,-0.0785,-0.8535,-0.3222,-0.6036,-0.4793,1894,2019-08-07 16:25:17:202
3.0984,-8.8027,4.3852,0.4128,-0.0785,-0.8535,-0.3552,-0.9157,-0.4761,1899,2019-08-07 16:25:17:207
3.0984,-8.8027,4.3852,0.035,-0.006,-1.7217,-0.3552,-0.9157,-0.4761,1905,2019-08-07 16:25:17:213
3.0984,-8.8027,4.3852,0.035,-0.006,-1.7217,-0.3552,-0.9157,-0.4761,1908,2019-08-07 16:25:17:216
3.8161,-8.9459,4.3239,0.035,-0.006,-1.7217,-0.384,-1.1415,-0.4441,1914,2019-08-07 16:25:17:222
3.8161,-8.9459,4.3239,0.035,-0.006,-1.7217,-0.384,-1.1415,-0.4441,1919,2019-08-07 16:25:17:227
4.9212,-9.2371,3.2114,-1.2527,0.4076,-0.8654,-0.4362,-1.2054,-0.3919,1924,2019-08-07 16:25:17:232
4.9212,-9.2371,3.2114,-1.2527,0.4076,-0.8654,-0.4362,-1.2054,-0.3919,1929,2019-08-07 16:25:17:237
5.9164,-9.6238,2.8249,-1.2527,0.4076,-0.8654,-0.4745,-0.9679,-0.3632,1935,2019-08-07 16:25:17:243
5.9164,-9.6238,2.8249,-1.2527,0.4076,-0.8654,-0.4745,-0.9679,-0.3632,1939,2019-08-07 16:25:17:247
5.9164,-9.6238,2.8249,-2.6455,1.0399,-0.2649,-0.4522,-0.6302,-0.3653,1944,2019-08-07 16:25:17:252
6.2321,-9.9437,2.6976,-2.6455,1.0399,-0.2649,-0.4522,-0.6302,-0.3653,1949,2019-08-07 16:25:17:257
6.2321,-9.9437,2.6976,-2.6455,1.0399,-0.2649,-0.3371,-0.1146,-0.3216,1954,2019-08-07 16:25:17:262
6.2321,-9.9437,2.6976,-2.6455,1.0399,-0.2649,-0.3371,-0.1146,-0.3216,1959,2019-08-07 16:25:17:267
5.835,-10.063,2.7825,-2.1781,1.2748,-0.4096,-0.2253,0.2455,-0.2545,1964,2019-08-07 16:25:17:272
5.835,-10.063,2.7825,-2.1781,1.2748,-0.4096,-0.2253,0.2455,-0.2545,1969,2019-08-07 16:25:17:277
5.0887,-9.7527,2.9663,-2.1781,1.2748,-0.4096,-0.2253,0.2455,-0.2545,1974,2019-08-07 16:25:17:282
5.0887,-9.7527,2.9663,-2.1781,1.2748,-0.4096,-0.0985,0.5171,-0.1693,1979,2019-08-07 16:25:17:287
5.0887,-9.7527,2.9663,-1.0138,0.7942,-0.8139,-0.0985,0.5171,-0.1693,1984,2019-08-07 16:25:17:292
4.3854,-9.3947,3.2774,-1.0138,0.7942,-0.8139,-0.0143,0.4788,-0.1011,1989,2019-08-07 16:25:17:297
4.3854,-9.3947,3.2774,-1.0138,0.7942,-0.8139,-0.0143,0.4788,-0.1011,1993,2019-08-07 16:25:17:301
3.9309,-9.113,3.4189,-1.0138,0.7942,-0.8139,0.0155,0.3424,-0.0532,2000,2019-08-07 16:25:17:308
3.9309,-9.113,3.4189,-0.1424,0.2775,-1.083,0.0155,0.3424,-0.0532,2004,2019-08-07 16:25:17:312
3.9309,-9.113,3.4189,-0.1424,0.2775,-1.083,0.0155,0.3424,-0.0532,2009,2019-08-07 16:25:17:317
3.352,-8.7741,3.664,0.3216,0.0074,-1.238,0.0155,0.1421,1.0E-4,2014,2019-08-07 16:25:17:322
3.352,-8.7741,3.664,0.3216,0.0074,-1.238,0.0155,0.1421,1.0E-4,2019,2019-08-07 16:25:17:327
3.352,-8.7741,3.664,0.3216,0.0074,-1.238,0.0123,-0.2137,0.1013,2024,2019-08-07 16:25:17:332
3.4669,-8.7789,3.2492,0.3216,0.0074,-1.238,0.0123,-0.2137,0.1013,2029,2019-08-07 16:25:17:337
3.4669,-8.7789,3.2492,-0.1995,0.0456,-0.5483,0.0187,-0.4033,0.1524,2034,2019-08-07 16:25:17:342
4.2754,-8.7645,2.6929,-0.1995,0.0456,-0.5483,0.0187,-0.4033,0.1524,2040,2019-08-07 16:25:17:348
4.2754,-8.7645,2.6929,-0.1995,0.0456,-0.5483,0.0389,-0.4043,0.1588,2045,2019-08-07 16:25:17:353
4.2754,-8.7645,2.6929,-0.1995,0.0456,-0.5483,0.0389,-0.4043,0.1588,2049,2019-08-07 16:25:17:357
4.773,-8.3063,2.429,-1.1119,-0.4725,-0.0276,0.0389,-0.4043,0.1588,2054,2019-08-07 16:25:17:362
4.773,-8.3063,2.429,-1.1119,-0.4725,-0.0276,0.0837,-0.2339,0.162,2059,2019-08-07 16:25:17:367
4.773,-8.3063,2.429,-1.1119,-0.4725,-0.0276,0.0837,-0.2339,0.162,2064,2019-08-07 16:25:17:372
4.7538,-7.8002,2.3394,-1.1119,-0.4725,-0.0276,0.1114,-0.0624,0.1631,2069,2019-08-07 16:25:17:377
4.7538,-7.8002,2.3394,-0.9726,-1.2102,0.1067,0.1114,-0.0624,0.1631,2074,2019-08-07 16:25:17:382
4.4429,-7.5233,2.4148,-0.9726,-1.2102,0.1067,0.1231,0.2039,0.1556,2079,2019-08-07 16:25:17:387
4.4429,-7.5233,2.4148,-0.9726,-1.2102,0.1067,0.1231,0.2039,0.1556,2085,2019-08-07 16:25:17:393
4.4429,-7.5233,2.4148,-0.9726,-1.2102,0.1067,0.0719,0.319,0.1375,2088,2019-08-07 16:25:17:396
4.0458,-7.5281,2.6222,-0.3245,-1.1979,-0.2501,0.0719,0.319,0.1375,2094,2019-08-07 16:25:17:402
4.0458,-7.5281,2.6222,-0.3245,-1.1979,-0.2501,0.0283,0.3168,0.1045,2099,2019-08-07 16:25:17:407
3.6965,-7.7811,2.6364,-0.3245,-1.1979,-0.2501,0.0283,0.3168,0.1045,2104,2019-08-07 16:25:17:412
3.6965,-7.7811,2.6364,-0.3245,-1.1979,-0.2501,0.0283,0.3168,0.1045,2109,2019-08-07 16:25:17:417
3.6965,-7.7811,2.6364,-0.3245,-1.1979,-0.2501,-0.0069,0.2327,0.0608,2113,2019-08-07 16:25:17:421
3.4908,-7.8098,2.5704,0.0561,-0.9671,-0.1147,-0.0069,0.2327,0.0608,2118,2019-08-07 16:25:17:426
3.4908,-7.8098,2.5704,0.0561,-0.9671,-0.1147,-0.042,0.026,0.0214,2124,2019-08-07 16:25:17:432
3.4908,-7.8098,2.5704,0.0561,-0.9671,-0.1147,-0.042,0.026,0.0214,2129,2019-08-07 16:25:17:437
3.6487,-8.0389,2.2923,-0.0747,-0.7494,0.1873,-0.0474,-0.0912,-0.0106,2134,2019-08-07 16:25:17:442
3.6487,-8.0389,2.2923,-0.0747,-0.7494,0.1873,-0.0474,-0.0912,-0.0106,2138,2019-08-07 16:25:17:446
3.797,-7.9482,2.3441,-0.0747,-0.7494,0.1873,-0.0474,-0.1849,-0.0393,2144,2019-08-07 16:25:17:452
3.797,-7.9482,2.3441,-0.0747,-0.7494,0.1873,-0.0474,-0.1849,-0.0393,2149,2019-08-07 16:25:17:457
4.2084,-7.9148,2.3253,-0.5985,-0.8709,0.1275,-0.0399,-0.2861,-0.0511,2154,2019-08-07 16:25:17:462
4.2084,-7.9148,2.3253,-0.5985,-0.8709,0.1275,-0.0399,-0.2861,-0.0511,2159,2019-08-07 16:25:17:467
4.2084,-7.9148,2.3253,-0.5985,-0.8709,0.1275,-0.0474,-0.2989,-0.0788,2163,2019-08-07 16:25:17:471
4.6151,-7.8718,2.5327,-0.5985,-0.8709,0.1275,-0.0474,-0.2989,-0.0788,2169,2019-08-07 16:25:17:477
4.6151,-7.8718,2.5327,-0.5985,-0.8709,0.1275,-0.0474,-0.2989,-0.0788,2174,2019-08-07 16:25:17:482
4.6151,-7.8718,2.5327,-1.0955,-0.992,-0.152,-0.0815,-0.2723,-0.1182,2179,2019-08-07 16:25:17:487
4.7251,-7.805,2.5374,-1.0955,-0.992,-0.152,-0.0815,-0.2723,-0.1182,2184,2019-08-07 16:25:17:492
4.7251,-7.805,2.5374,-1.0955,-0.992,-0.152,-0.1624,-0.1881,-0.1373,2189,2019-08-07 16:25:17:497
4.773,-8.0628,2.6552,-1.0955,-0.992,-0.152,-0.1624,-0.1881,-0.1373,2194,2019-08-07 16:25:17:502
4.773,-8.0628,2.6552,-1.0652,-0.6686,-0.3925,-0.1965,-0.1316,-0.1352,2199,2019-08-07 16:25:17:507
4.773,-8.0628,2.6552,-1.0652,-0.6686,-0.3925,-0.1965,-0.1316,-0.1352,2204,2019-08-07 16:25:17:512
4.6486,-8.4686,2.8909,-1.0652,-0.6686,-0.3925,-0.1965,-0.1316,-0.1352,2209,2019-08-07 16:25:17:517
4.6486,-8.4686,2.8909,-1.0652,-0.6686,-0.3925,-0.2125,-0.1242,-0.1107,2213,2019-08-07 16:25:17:521
4.7395,-8.7407,2.9381,-0.9437,-0.1397,-0.6088,-0.2125,-0.1487,-0.0862,2220,2019-08-07 16:25:17:528
4.7395,-8.7407,2.9381,-0.9437,-0.1397,-0.6088,-0.2125,-0.1487,-0.0862,2224,2019-08-07 16:25:17:532
4.7395,-8.7407,2.9381,-0.9437,-0.1397,-0.6088,-0.2125,-0.1487,-0.0862,2229,2019-08-07 16:25:17:537
4.8543,-8.7789,2.8438,-0.9437,-0.1397,-0.6088,-0.2018,-0.154,-0.0745,2234,2019-08-07 16:25:17:542
4.8543,-8.7789,2.8438,-1.1544,-0.0488,-0.4322,-0.2018,-0.154,-0.0745,2238,2019-08-07 16:25:17:546
4.8543,-8.7789,2.8438,-1.1544,-0.0488,-0.4322,-0.188,-0.1519,-0.0393,2244,2019-08-07 16:25:17:552
5.0266,-8.7073,2.5374,-1.1544,-0.0488,-0.4322,-0.188,-0.1519,-0.0393,2250,2019-08-07 16:25:17:558
5.0266,-8.7073,2.5374,-1.1544,-0.0488,-0.4322,-0.188,-0.1519,-0.0393,2254,2019-08-07 16:25:17:562
5.0266,-8.7073,2.5374,-1.296,0.0685,-0.2911,-0.1571,-0.1274,-0.0021,2258,2019-08-07 16:25:17:566
5.1031,-8.8982,2.4667,-1.296,0.0685,-0.2911,-0.1571,-0.1274,-0.0021,2264,2019-08-07 16:25:17:572
5.1031,-8.8982,2.4667,-1.296,0.0685,-0.2911,-0.1177,-0.0592,0.0171,2269,2019-08-07 16:25:17:577
5.1031,-8.8982,2.4667,-1.296,0.0685,-0.2911,-0.1177,-0.0592,0.0171,2274,2019-08-07 16:25:17:582
5.1653,-8.8791,2.4761,-1.3782,0.1086,-0.2463,-0.0644,0.026,0.0235,2279,2019-08-07 16:25:17:587
5.1653,-8.8791,2.4761,-1.3782,0.1086,-0.2463,-0.0644,0.026,0.0235,2284,2019-08-07 16:25:17:592
5.127,-8.7168,2.4054,-1.3782,0.1086,-0.2463,-0.0282,0.1017,0.015,2289,2019-08-07 16:25:17:597
5.127,-8.7168,2.4054,-1.3782,0.1086,-0.2463,-0.0282,0.1017,0.015,2294,2019-08-07 16:25:17:602
4.9979,-8.4304,2.5091,-1.2327,-0.2248,-0.2324,-0.0271,0.1507,0.0075,2300,2019-08-07 16:25:17:608
4.9979,-8.4304,2.5091,-1.2327,-0.2248,-0.2324,-0.0271,0.1507,0.0075,2304,2019-08-07 16:25:17:612
4.9979,-8.4304,2.5091,-1.2327,-0.2248,-0.2324,-0.0388,0.1794,-0.0116,2309,2019-08-07 16:25:17:617
4.8448,-8.1296,2.6411,-1.2327,-0.2248,-0.2324,-0.0388,0.1794,-0.0116,2314,2019-08-07 16:25:17:622
4.8448,-8.1296,2.6411,-1.0009,-0.6941,-0.4212,-0.0388,0.1794,-0.0116,2319,2019-08-07 16:25:17:627
4.8448,-8.1296,2.6411,-1.0009,-0.6941,-0.4212,-0.058,0.1389,-0.0148,2324,2019-08-07 16:25:17:632
4.7252,-7.9625,2.4714,-1.0009,-0.6941,-0.4212,-0.058,0.1389,-0.0148,2329,2019-08-07 16:25:17:637
4.7252,-7.9625,2.4714,-1.0009,-0.6941,-0.4212,-0.0729,0.1091,-0.0191,2334,2019-08-07 16:25:17:642
4.7252,-7.9625,2.4714,-0.8947,-0.8296,-0.2498,-0.0729,0.1091,-0.0191,2340,2019-08-07 16:25:17:648
4.6247,-7.8766,2.5185,-0.8947,-0.8296,-0.2498,-0.0676,0.0612,-0.0223,2343,2019-08-07 16:25:17:651
4.6247,-7.8766,2.5185,-0.8947,-0.8296,-0.2498,-0.0676,0.0612,-0.0223,2350,2019-08-07 16:25:17:658
4.6247,-7.8766,2.5185,-0.8947,-0.8296,-0.2498,-0.0463,0.009,-0.0202,2354,2019-08-07 16:25:17:662
4.5242,-7.953,2.495,-0.7176,-0.8074,-0.2588,-0.0463,0.009,-0.0202,2358,2019-08-07 16:25:17:666
4.5242,-7.953,2.495,-0.7176,-0.8074,-0.2588,-0.0314,-0.0049,-0.018,2364,2019-08-07 16:25:17:672
4.3281,-7.9816,2.4007,-0.5167,-0.7772,-0.1662,-0.0314,-0.0049,-0.018,2370,2019-08-07 16:25:17:678
4.3281,-7.9816,2.4007,-0.5167,-0.7772,-0.1662,-0.0314,-0.0049,-0.018,2374,2019-08-07 16:25:17:682
4.3281,-7.9816,2.4007,-0.5167,-0.7772,-0.1662,-0.0271,-0.0507,-0.0159,2378,2019-08-07 16:25:17:686
4.3472,-8.1105,2.2546,-0.5167,-0.7772,-0.1662,-0.0271,-0.0507,-0.0159,2385,2019-08-07 16:25:17:693
4.3472,-8.1105,2.2546,-0.6158,-0.5498,0.0108,-0.0239,-0.0624,-0.0361,2390,2019-08-07 16:25:17:698
4.4668,-8.4161,2.1461,-0.6158,-0.5498,0.0108,-0.0239,-0.0624,-0.0361,2394,2019-08-07 16:25:17:702
4.4668,-8.4161,2.1461,-0.6158,-0.5498,0.0108,-0.0218,-0.0358,-0.0777,2399,2019-08-07 16:25:17:707
4.4668,-8.4161,2.1461,-0.6158,-0.5498,0.0108,-0.0218,-0.0358,-0.0777,2403,2019-08-07 16:25:17:711
4.4668,-8.4161,2.1461,-0.6158,-0.5498,0.0108,-0.0218,-0.0358,-0.0777,2409,2019-08-07 16:25:17:717
4.2276,-8.5784,2.2169,-0.3864,-0.171,0.0035,-0.0239,-0.0017,-0.1097,2414,2019-08-07 16:25:17:722
4.2276,-8.5784,2.2169,-0.3864,-0.171,0.0035,-0.0239,-0.0017,-0.1097,2420,2019-08-07 16:25:17:728
4.2276,-8.5784,2.2169,-0.3864,-0.171,0.0035,0.0102,-0.0219,-0.1267,2424,2019-08-07 16:25:17:732
4.0363,-8.5784,2.495,-0.2049,-0.194,-0.2321,0.0102,-0.0219,-0.1267,2430,2019-08-07 16:25:17:738
4.0363,-8.5784,2.495,-0.2049,-0.194,-0.2321,0.0251,-0.1039,-0.1256,2433,2019-08-07 16:25:17:741
4.2133,-8.4495,2.4243,-0.2049,-0.194,-0.2321,0.0251,-0.1039,-0.1256,2439,2019-08-07 16:25:17:747
4.2133,-8.4495,2.4243,-0.2049,-0.194,-0.2321,0.0304,-0.1817,-0.1373,2444,2019-08-07 16:25:17:752
4.2133,-8.4495,2.4243,-0.4403,-0.4479,-0.1607,0.0304,-0.1817,-0.1373,2450,2019-08-07 16:25:17:758
4.3616,-8.2156,2.396,-0.4403,-0.4479,-0.1607,0.0304,-0.1817,-0.1373,2454,2019-08-07 16:25:17:762
4.3616,-8.2156,2.396,-0.4403,-0.4479,-0.1607,0.0293,-0.2797,-0.1182,2459,2019-08-07 16:25:17:767
4.7587,-8.2299,2.3394,-0.6602,-0.5315,-0.1575,0.0293,-0.2797,-0.1182,2464,2019-08-07 16:25:17:772
4.7587,-8.2299,2.3394,-0.6602,-0.5315,-0.1575,0.0283,-0.3181,-0.082,2469,2019-08-07 16:25:17:777
4.7587,-8.2299,2.3394,-0.6602,-0.5315,-0.1575,0.0283,-0.3181,-0.082,2474,2019-08-07 16:25:17:782
5.2036,-8.1869,2.231,-1.3407,-0.5435,-0.045,0.0315,-0.3223,-0.0596,2478,2019-08-07 16:25:17:786
5.2036,-8.1869,2.231,-1.3407,-0.5435,-0.045,0.0315,-0.3223,-0.0596,2484,2019-08-07 16:25:17:792
5.2036,-8.1869,2.231,-1.3407,-0.5435,-0.045,0.0336,-0.284,-0.0191,2489,2019-08-07 16:25:17:797
5.6007,-8.0962,2.2923,-1.3407,-0.5435,-0.045,0.0336,-0.284,-0.0191,2494,2019-08-07 16:25:17:802
5.6007,-8.0962,2.2923,-1.6854,-0.5205,-0.1138,0.0229,-0.1934,0.0065,2499,2019-08-07 16:25:17:807
5.6007,-8.0962,2.2923,-1.6854,-0.5205,-0.1138,0.0229,-0.1934,0.0065,2504,2019-08-07 16:25:17:812
5.5098,-8.1058,2.297,-1.6854,-0.5205,-0.1138,-0.0069,-0.088,0.0374,2509,2019-08-07 16:25:17:817
5.5098,-8.1058,2.297,-1.6854,-0.5205,-0.1138,-0.0069,-0.088,0.0374,2513,2019-08-07 16:25:17:821
5.1941,-8.144,2.4478,-1.2017,-0.5513,-0.2822,-0.0431,-0.0251,0.0629,2519,2019-08-07 16:25:17:827
5.1941,-8.144,2.4478,-1.2017,-0.5513,-0.2822,-0.0431,-0.0251,0.0629,2524,2019-08-07 16:25:17:832
5.1941,-8.144,2.4478,-1.2017,-0.5513,-0.2822,-0.0431,-0.0251,0.0629,2528,2019-08-07 16:25:17:836
4.7778,-8.2633,2.6458,-1.2017,-0.5513,-0.2822,-0.0602,0.01,0.0746,2534,2019-08-07 16:25:17:842
4.7778,-8.2633,2.6458,-1.2017,-0.5513,-0.2822,-0.0602,0.01,0.0746,2538,2019-08-07 16:25:17:846
4.7778,-8.2633,2.6458,-0.6099,-0.4126,-0.5764,-0.0655,-0.007,0.0821,2544,2019-08-07 16:25:17:852
4.4908,-8.2824,2.7684,-0.6099,-0.4126,-0.5764,-0.0591,-0.0624,0.081,2549,2019-08-07 16:25:17:857
4.4908,-8.2824,2.7684,-0.6099,-0.4126,-0.5764,-0.0591,-0.0624,0.081,2554,2019-08-07 16:25:17:862
4.4812,-8.2537,2.6034,-0.5168,-0.5093,-0.3846,-0.057,-0.1114,0.0672,2559,2019-08-07 16:25:17:867
4.4812,-8.2537,2.6034,-0.5168,-0.5093,-0.3846,-0.057,-0.1114,0.0672,2564,2019-08-07 16:25:17:872
4.4812,-8.1869,2.3724,-0.5168,-0.5093,-0.3846,-0.057,-0.1114,0.0672,2569,2019-08-07 16:25:17:877
4.62,-8.1869,2.3724,-0.5168,-0.5093,-0.3846,-0.0527,-0.138,0.0501,2574,2019-08-07 16:25:17:882
4.62,-8.1869,2.3724,-0.5168,-0.5093,-0.3846,-0.0527,-0.138,0.0501,2578,2019-08-07 16:25:17:886
4.7539,-8.1105,2.231,-0.7819,-0.5506,-0.1288,-0.041,-0.1316,0.0299,2585,2019-08-07 16:25:17:893
4.7539,-8.1105,2.231,-0.7819,-0.5506,-0.1288,-0.041,-0.1316,0.0299,2589,2019-08-07 16:25:17:897
4.7539,-8.1105,2.231,-0.7819,-0.5506,-0.1288,-0.0271,-0.1061,0.0256,2594,2019-08-07 16:25:17:902
4.9644,-8.206,2.0047,-1.0657,-0.4646,0.0119,-0.0271,-0.1061,0.0256,2600,2019-08-07 16:25:17:908
4.9644,-8.206,2.0047,-1.0657,-0.4646,0.0119,-0.0271,-0.1061,0.0256,2604,2019-08-07 16:25:17:912
5.0601,-8.2919,2.132,-1.0657,-0.4646,0.0119,0.0016,-0.0656,0.0246,2609,2019-08-07 16:25:17:917
5.0601,-8.2919,2.132,-1.0657,-0.4646,0.0119,0.0016,-0.0656,0.0246,2614,2019-08-07 16:25:17:922
5.0601,-8.2919,2.132,-1.0657,-0.4646,0.0119,0.0315,-0.0262,0.0118,2619,2019-08-07 16:25:17:927
4.8592,-8.206,2.1226,-0.9201,-0.4619,0.0102,0.0315,-0.0262,0.0118,2624,2019-08-07 16:25:17:932
4.8592,-8.206,2.1226,-0.9201,-0.4619,0.0102,0.0538,-0.0187,0.0043,2629,2019-08-07 16:25:17:937
4.8592,-8.206,2.1226,-0.9201,-0.4619,0.0102,0.0538,-0.0187,0.0043,2634,2019-08-07 16:25:17:942
4.5961,-8.206,2.2121,-0.9201,-0.4619,0.0102,0.056,-0.0464,0.0043,2639,2019-08-07 16:25:17:947
4.5961,-8.206,2.2121,-0.5547,-0.4187,-0.1611,0.056,-0.0464,0.0043,2645,2019-08-07 16:25:17:953
4.6009,-8.2776,2.3253,-0.5547,-0.4187,-0.1611,0.0474,-0.1061,1.0E-4,2649,2019-08-07 16:25:17:957
4.6009,-8.2776,2.3253,-0.5547,-0.4187,-0.1611,0.0474,-0.1061,1.0E-4,2654,2019-08-07 16:25:17:962
4.8018,-8.2967,2.2687,-0.5547,-0.4187,-0.1611,0.041,-0.1732,-0.0191,2659,2019-08-07 16:25:17:967
4.8018,-8.2967,2.2687,-0.8345,-0.4658,-0.204,0.041,-0.1732,-0.0191,2664,2019-08-07 16:25:17:972
4.8018,-8.2967,2.2687,-0.8345,-0.4658,-0.204,0.041,-0.1732,-0.0191,2669,2019-08-07 16:25:17:977
4.993,-8.1726,2.1273,-0.8345,-0.4658,-0.204,0.04,-0.1764,-0.0436,2674,2019-08-07 16:25:17:982
4.993,-8.1726,2.1273,-0.8345,-0.4658,-0.204,0.04,-0.1764,-0.0436,2678,2019-08-07 16:25:17:986
4.993,-8.1726,2.1273,-0.9467,-0.5052,-0.027,0.0261,-0.1444,-0.0404,2684,2019-08-07 16:25:17:992
5.0886,-8.1248,2.2922,-0.9467,-0.5052,-0.027,0.0261,-0.1444,-0.0404,2689,2019-08-07 16:25:17:997
5.0886,-8.1248,2.2922,-0.9467,-0.5052,-0.027,0.0176,-0.1039,-0.0393,2694,2019-08-07 16:25:18:002
5.0552,-8.0866,2.2262,-0.9467,-0.5052,-0.027,0.0176,-0.1039,-0.0393,2699,2019-08-07 16:25:18:007
5.0552,-8.0866,2.2262,-1.0457,-0.5636,-0.1634,0.0102,-0.0454,-0.0479,2704,2019-08-07 16:25:18:012
5.0552,-8.0866,2.2262,-1.0457,-0.5636,-0.1634,0.0102,-0.0454,-0.0479,2708,2019-08-07 16:25:18:016
4.926,-8.015,2.2875,-1.0457,-0.5636,-0.1634,-0.0026,-0.0326,-0.0511,2714,2019-08-07 16:25:18:022
4.926,-8.015,2.2875,-1.0457,-0.5636,-0.1634,-0.0026,-0.0326,-0.0511,2719,2019-08-07 16:25:18:027
4.926,-8.015,2.2875,-0.6693,-0.6749,-0.2446,-0.0026,-0.0326,-0.0511,2724,2019-08-07 16:25:18:032
4.7633,-8.0246,2.3771,-0.6693,-0.6749,-0.2446,-0.0154,-0.0741,-0.0308,2730,2019-08-07 16:25:18:038
4.7633,-8.0246,2.3771,-0.6693,-0.6749,-0.2446,-0.0154,-0.0741,-0.0308,2733,2019-08-07 16:25:18:041
4.9451,-8.3062,2.3724,-0.6693,-0.6749,-0.2446,-0.0261,-0.1274,-0.018,2739,2019-08-07 16:25:18:047
4.9451,-8.3062,2.3724,-0.9127,-0.3507,-0.2038,-0.0261,-0.1274,-0.018,2743,2019-08-07 16:25:18:051
4.9451,-8.3062,2.3724,-0.9127,-0.3507,-0.2038,-0.0314,-0.1934,-0.0138,2749,2019-08-07 16:25:18:057
5.1508,-8.3158,2.2215,-1.0521,-0.3489,-0.1335,-0.0314,-0.1934,-0.0138,2754,2019-08-07 16:25:18:062
5.1508,-8.3158,2.2215,-1.0521,-0.3489,-0.1335,-0.0314,-0.1934,-0.0138,2759,2019-08-07 16:25:18:067
5.1508,-8.3158,2.2215,-1.0521,-0.3489,-0.1335,-0.008,-0.1817,-0.0116,2764,2019-08-07 16:25:18:072
5.3374,-8.3206,2.2027,-1.0521,-0.3489,-0.1335,-0.008,-0.1817,-0.0116,2768,2019-08-07 16:25:18:076
5.3374,-8.3206,2.2027,-1.2827,-0.3536,-0.0454,0.0048,-0.1316,-0.0063,2774,2019-08-07 16:25:18:082
5.3374,-8.3206,2.2027,-1.2827,-0.3536,-0.0454,0.0048,-0.1316,-0.0063,2779,2019-08-07 16:25:18:087
5.4762,-8.2681,2.0848,-1.2827,-0.3536,-0.0454,0.0102,-0.0677,-0.0063,2785,2019-08-07 16:25:18:093
5.4762,-8.2681,2.0848,-1.2827,-0.3536,-0.0454,0.0102,-0.0677,-0.0063,2788,2019-08-07 16:25:18:096
5.4235,-8.2012,2.1367,-1.2737,-0.4292,-0.1205,0.0144,-0.007,-0.0063,2794,2019-08-07 16:25:18:102
5.4235,-8.2012,2.1367,-1.2737,-0.4292,-0.1205,0.0144,-0.007,-0.0063,2800,2019-08-07 16:25:18:108
5.4235,-8.2012,2.1367,-1.2737,-0.4292,-0.1205,0.0176,0.0633,0.0139,2804,2019-08-07 16:25:18:112
5.2322,-8.1678,2.231,-1.2737,-0.4292,-0.1205,0.0176,0.0633,0.0139,2808,2019-08-07 16:25:18:116
5.2322,-8.1678,2.231,-0.9583,-0.4823,-0.2437,0.0133,0.091,0.0182,2814,2019-08-07 16:25:18:122
5.0073,-8.1296,2.3347,-0.9583,-0.4823,-0.2437,0.0133,0.091,0.0182,2819,2019-08-07 16:25:18:127
5.0073,-8.1296,2.3347,-0.9583,-0.4823,-0.2437,0.0133,0.091,0.0182,2824,2019-08-07 16:25:18:132
5.0073,-8.1296,2.3347,-0.9583,-0.4823,-0.2437,0.0091,0.059,0.0267,2829,2019-08-07 16:25:18:137
4.7825,-8.0771,2.3535,-0.643,-0.5375,-0.2672,0.0091,0.059,0.0267,2834,2019-08-07 16:25:18:142
4.7825,-8.0771,2.3535,-0.643,-0.5375,-0.2672,-0.0058,0.0068,0.0288,2838,2019-08-07 16:25:18:146
4.7729,-8.1153,2.2828,-0.643,-0.5375,-0.2672,-0.0058,0.0068,0.0288,2844,2019-08-07 16:25:18:152
4.7729,-8.1153,2.2828,-0.643,-0.5375,-0.2672,-0.0261,-0.0517,0.032,2850,2019-08-07 16:25:18:158
4.7729,-8.1153,2.2828,-0.8416,-0.5467,-0.1855,-0.0261,-0.0517,0.032,2853,2019-08-07 16:25:18:161
5.0217,-8.1296,2.3252,-0.8416,-0.5467,-0.1855,-0.0261,-0.0517,0.032,2858,2019-08-07 16:25:18:166
5.0217,-8.1296,2.3252,-0.8416,-0.5467,-0.1855,-0.0335,-0.0997,0.0288,2864,2019-08-07 16:25:18:172
5.0982,-8.1678,2.066,-0.8416,-0.5467,-0.1855,-0.0335,-0.0997,0.0288,2869,2019-08-07 16:25:18:177
5.0982,-8.1678,2.066,-1.0695,-0.3987,-0.0524,-0.0303,-0.0922,0.0342,2874,2019-08-07 16:25:18:182
5.0982,-8.1678,2.066,-1.0695,-0.3987,-0.0524,-0.0303,-0.0922,0.0342,2879,2019-08-07 16:25:18:187
5.1939,-8.2394,2.1461,-1.0695,-0.3987,-0.0524,-0.0165,-0.0507,0.0352,2884,2019-08-07 16:25:18:192
5.1939,-8.2394,2.1461,-1.0695,-0.3987,-0.0524,-0.0165,-0.0507,0.0352,2888,2019-08-07 16:25:18:196
5.1126,-8.2346,2.0943,-0.9653,-0.4127,-0.0302,-0.0016,-0.0091,0.0342,2894,2019-08-07 16:25:18:202
5.1126,-8.2346,2.0943,-0.9653,-0.4127,-0.0302,-0.0016,-0.0091,0.0342,2899,2019-08-07 16:25:18:207
5.1126,-8.2346,2.0943,-0.9653,-0.4127,-0.0302,0.0027,0.0409,0.0224,2904,2019-08-07 16:25:18:212
4.993,-8.1869,2.1885,-0.9653,-0.4127,-0.0302,0.0027,0.0409,0.0224,2908,2019-08-07 16:25:18:216
4.993,-8.1869,2.1885,-0.8104,-0.5064,-0.1442,0.0027,0.0409,0.0224,2914,2019-08-07 16:25:18:222
4.9595,-8.163,2.1885,-0.8104,-0.5064,-0.1442,-0.008,0.0644,0.0118,2919,2019-08-07 16:25:18:227
4.9595,-8.163,2.1885,-0.8104,-0.5064,-0.1442,-0.008,0.0644,0.0118,2924,2019-08-07 16:25:18:232
4.9595,-8.163,2.1885,-0.8104,-0.5064,-0.1442,-0.0133,0.0782,-0.0021,2928,2019-08-07 16:25:18:236
4.8925,-8.0914,2.2357,-0.6302,-0.5656,-0.0731,-0.0133,0.0782,-0.0021,2934,2019-08-07 16:25:18:242
4.8925,-8.0914,2.2357,-0.6302,-0.5656,-0.0731,-0.0197,0.0782,-0.0074,2939,2019-08-07 16:25:18:247
4.8925,-8.0914,2.2357,-0.6302,-0.5656,-0.0731,-0.0197,0.0782,-0.0074,2944,2019-08-07 16:25:18:252
4.7346,-8.1535,2.2498,-0.6302,-0.5656,-0.0731,-0.0271,0.0676,-0.0053,2949,2019-08-07 16:25:18:257
4.7346,-8.1535,2.2498,-0.6302,-0.5656,-0.0731,-0.0271,0.0676,-0.0053,2954,2019-08-07 16:25:18:262
4.749,-8.0914,2.2545,-0.5929,-0.5535,-0.2016,-0.0357,0.0441,-0.0106,2959,2019-08-07 16:25:18:267
4.749,-8.0914,2.2545,-0.5929,-0.5535,-0.2016,-0.0357,0.0441,-0.0106,2965,2019-08-07 16:25:18:273
4.749,-8.0914,2.2545,-0.5929,-0.5535,-0.2016,-0.0357,0.0441,-0.0106,2969,2019-08-07 16:25:18:277
4.8494,-8.0532,2.2875,-0.5929,-0.5535,-0.2016,-0.042,0.0079,-0.0191,2974,2019-08-07 16:25:18:282
4.8494,-8.0532,2.2875,-0.686,-0.5792,-0.1477,-0.042,0.0079,-0.0191,2979,2019-08-07 16:25:18:287
4.8494,-8.0532,2.2875,-0.686,-0.5792,-0.1477,-0.0559,-6.0E-4,-0.0148,2984,2019-08-07 16:25:18:292
5.0408,-8.1201,2.1084,-0.686,-0.5792,-0.1477,-0.0559,-6.0E-4,-0.0148,2988,2019-08-07 16:25:18:296
5.0408,-8.1201,2.1084,-0.686,-0.5792,-0.1477,-0.0665,0.0122,-0.0148,2994,2019-08-07 16:25:18:302
5.1126,-8.2442,2.1603,-0.9492,-0.4098,-0.0064,-0.0665,0.0122,-0.0148,2999,2019-08-07 16:25:18:307
5.1126,-8.2442,2.1603,-0.9492,-0.4098,-0.0064,-0.0676,0.0473,-0.0244,3003,2019-08-07 16:25:18:311
5.1126,-8.2442,2.1603,-0.9492,-0.4098,-0.0064,-0.0676,0.0473,-0.0244,3009,2019-08-07 16:25:18:317
5.1126,-8.2442,2.1603,-0.9492,-0.4098,-0.0064,-0.0676,0.0473,-0.0244,3013,2019-08-07 16:25:18:321
5.1126,-8.2442,2.1603,-0.9492,-0.4098,-0.0064,-0.0676,0.0473,-0.0244,3019,2019-08-07 16:25:18:327
5.0552,-8.2871,1.9764,-0.749,-0.3357,-0.0657,-0.0676,0.0772,-0.0255,3024,2019-08-07 16:25:18:332
5.0552,-8.2871,1.9764,-0.749,-0.3357,-0.0657,-0.0676,0.0772,-0.0255,3028,2019-08-07 16:25:18:336
4.7394,-8.354,2.1555,-0.749,-0.3357,-0.0657,-0.0697,0.0921,-0.0223,3034,2019-08-07 16:25:18:342
4.7394,-8.354,2.1555,-0.5241,-0.2099,-0.1723,-0.0697,0.0921,-0.0223,3038,2019-08-07 16:25:18:346
4.7394,-8.354,2.1555,-0.5241,-0.2099,-0.1723,-0.0623,0.059,-0.0287,3044,2019-08-07 16:25:18:352
4.725,-8.4065,2.1603,-0.5241,-0.2099,-0.1723,-0.0623,0.059,-0.0287,3049,2019-08-07 16:25:18:357
4.725,-8.4065,2.1603,-0.5241,-0.2099,-0.1723,-0.0516,0.0388,-0.0543,3053,2019-08-07 16:25:18:361
5.0025,-8.4399,2.0141,-0.9019,-0.068,0.0017,-0.0516,0.0388,-0.0543,3060,2019-08-07 16:25:18:368
5.0025,-8.4399,2.0141,-0.9019,-0.068,0.0017,-0.0325,0.0782,-0.0852,3064,2019-08-07 16:25:18:372
5.0025,-8.4399,2.0141,-0.9019,-0.068,0.0017,-0.0325,0.0782,-0.0852,3069,2019-08-07 16:25:18:377
4.9403,-8.2776,2.0424,-0.9019,-0.068,0.0017,-0.0175,0.1379,-0.0479,3074,2019-08-07 16:25:18:382
4.9403,-8.2776,2.0424,-0.797,-0.323,-0.0848,-0.0175,0.1379,-0.0479,3079,2019-08-07 16:25:18:387
5.17,-8.2681,2.2074,-0.797,-0.323,-0.0848,-0.0058,0.1634,-0.0415,3084,2019-08-07 16:25:18:392
5.17,-8.2681,2.2074,-0.797,-0.323,-0.0848,-0.0058,0.1634,-0.0415,3089,2019-08-07 16:25:18:397
5.17,-8.2681,2.2074,-0.797,-0.323,-0.0848,-0.0037,0.172,-0.0436,3094,2019-08-07 16:25:18:402
5.0312,-8.163,2.1084,-0.8133,-0.4497,-0.043,-0.0037,0.172,-0.0436,3099,2019-08-07 16:25:18:407
5.0312,-8.163,2.1084,-0.8133,-0.4497,-0.043,-0.0197,0.1645,-0.0457,3104,2019-08-07 16:25:18:412
4.9068,-8.1296,2.2215,-0.6852,-0.4797,-0.1495,-0.0197,0.1645,-0.0457,3108,2019-08-07 16:25:18:416
4.9068,-8.1296,2.2215,-0.6852,-0.4797,-0.1495,-0.0388,0.1464,-0.0276,3114,2019-08-07 16:25:18:422
4.9068,-8.1296,2.2215,-0.6852,-0.4797,-0.1495,-0.0388,0.1464,-0.0276,3118,2019-08-07 16:25:18:426
4.7537,-8.1821,2.3252,-0.6852,-0.4797,-0.1495,-0.0399,0.1208,-0.0148,3124,2019-08-07 16:25:18:432
4.7537,-8.1821,2.3252,-0.4853,-0.3566,-0.2547,-0.0399,0.1208,-0.0148,3129,2019-08-07 16:25:18:437
4.792,-8.2776,2.3347,-0.4853,-0.3566,-0.2547,-0.0303,0.1027,0.0011,3134,2019-08-07 16:25:18:442
4.792,-8.2776,2.3347,-0.4853,-0.3566,-0.2547,-0.0303,0.1027,0.0011,3139,2019-08-07 16:25:18:447
4.792,-8.2776,2.3347,-0.4853,-0.3566,-0.2547,-0.0303,0.1027,0.0011,3143,2019-08-07 16:25:18:451
4.7681,-8.2871,2.2592,-0.5423,-0.3168,-0.1733,-0.0165,0.0963,-0.0053,3149,2019-08-07 16:25:18:457
4.7681,-8.2871,2.2592,-0.5423,-0.3168,-0.1733,-0.0165,0.0963,-0.0053,3153,2019-08-07 16:25:18:461
4.7681,-8.2871,2.2592,-0.5423,-0.3168,-0.1733,-0.0143,0.1134,-0.0287,3159,2019-08-07 16:25:18:467
4.6676,-8.2108,2.1838,-0.5423,-0.3168,-0.1733,-0.0143,0.1134,-0.0287,3164,2019-08-07 16:25:18:472
4.6676,-8.2108,2.1838,-0.3944,-0.3794,-0.16,-0.0229,0.1304,-0.0457,3169,2019-08-07 16:25:18:477
4.6676,-8.2108,2.1838,-0.3944,-0.3794,-0.16,-0.0229,0.1304,-0.0457,3174,2019-08-07 16:25:18:482
4.6628,-8.1821,2.3394,-0.3944,-0.3794,-0.16,-0.0293,0.1464,-0.0638,3179,2019-08-07 16:25:18:487
4.6628,-8.1821,2.3394,-0.3944,-0.3794,-0.16,-0.0293,0.1464,-0.0638,3184,2019-08-07 16:25:18:492
4.5911,-8.0914,2.3252,-0.3514,-0.5013,-0.2212,-0.0314,0.1507,-0.0905,3189,2019-08-07 16:25:18:497
4.5911,-8.0914,2.3252,-0.3514,-0.5013,-0.2212,-0.0314,0.1507,-0.0905,3195,2019-08-07 16:25:18:503
4.5911,-8.0914,2.3252,-0.3514,-0.5013,-0.2212,-0.0388,0.1379,-0.1086,3199,2019-08-07 16:25:18:507
4.6533,-8.0723,2.3959,-0.3514,-0.5013,-0.2212,-0.0388,0.1379,-0.1086,3204,2019-08-07 16:25:18:512
4.6533,-8.0723,2.3959,-0.4968,-0.5149,-0.2191,-0.0474,0.1006,-0.1075,3210,2019-08-07 16:25:18:518
4.749,-7.9864,2.3205,-0.4968,-0.5149,-0.2191,-0.0474,0.1006,-0.1075,3214,2019-08-07 16:25:18:522
4.749,-7.9864,2.3205,-0.4968,-0.5149,-0.2191,-0.0538,0.074,-0.1001,3219,2019-08-07 16:25:18:527
4.749,-7.9864,2.3205,-0.4968,-0.5149,-0.2191,-0.0538,0.074,-0.1001,3224,2019-08-07 16:25:18:532
5.0599,-8.0246,2.1178,-0.8263,-0.553,-0.0737,-0.0623,0.0761,-0.0756,3229,2019-08-07 16:25:18:537
5.0599,-8.0246,2.1178,-0.8263,-0.553,-0.0737,-0.0623,0.0761,-0.0756,3233,2019-08-07 16:25:18:541
5.0456,-8.1344,2.1273,-0.8263,-0.553,-0.0737,-0.0687,0.0889,-0.0479,3239,2019-08-07 16:25:18:547
5.0456,-8.1344,2.1273,-0.8263,-0.553,-0.0737,-0.0687,0.0889,-0.0479,3243,2019-08-07 16:25:18:551
5.0456,-8.1344,2.1273,-0.6571,-0.3335,-0.0871,-0.0697,0.0835,-0.0159,3249,2019-08-07 16:25:18:557
4.9834,-8.2537,2.2027,-0.6571,-0.3335,-0.0871,-0.0697,0.0835,-0.0159,3254,2019-08-07 16:25:18:562
4.9834,-8.2537,2.2027,-0.6571,-0.3335,-0.0871,-0.0633,0.0793,-0.0063,3259,2019-08-07 16:25:18:567
4.8064,-8.3731,2.1933,-0.6571,-0.3335,-0.0871,-0.0633,0.0793,-0.0063,3264,2019-08-07 16:25:18:572
4.8064,-8.3731,2.1933,-0.4633,-0.1614,-0.0958,-0.0633,0.0793,-0.0063,3269,2019-08-07 16:25:18:577
4.8064,-8.3731,2.1933,-0.4633,-0.1614,-0.0958,-0.0548,0.0495,-0.0116,3274,2019-08-07 16:25:18:582
4.6963,-8.4733,2.1273,-0.4633,-0.1614,-0.0958,-0.0548,0.0495,-0.0116,3279,2019-08-07 16:25:18:587
4.6963,-8.4733,2.1273,-0.4633,-0.1614,-0.0958,-0.0612,0.0281,-0.017,3284,2019-08-07 16:25:18:592
4.6963,-8.4733,2.1273,-0.3735,-0.042,-0.0748,-0.0612,0.0281,-0.017,3288,2019-08-07 16:25:18:596
4.6628,-8.5497,2.1273,-0.3735,-0.042,-0.0748,-0.0623,0.0345,-0.0298,3294,2019-08-07 16:25:18:602
4.6628,-8.5497,2.1273,-0.3735,-0.042,-0.0748,-0.0623,0.0345,-0.0298,3299,2019-08-07 16:25:18:607
4.7059,-8.5497,2.1885,-0.3735,-0.042,-0.0748,-0.0452,0.0729,-0.0383,3304,2019-08-07 16:25:18:612
4.7059,-8.5497,2.1885,-0.3735,-0.042,-0.0748,-0.0452,0.0729,-0.0383,3309,2019-08-07 16:25:18:617
4.7059,-8.5497,2.1885,-0.4487,-0.0447,-0.1072,-0.0282,0.0974,-0.0436,3315,2019-08-07 16:25:18:623
4.7537,-8.4304,2.231,-0.4487,-0.0447,-0.1072,-0.0282,0.0974,-0.0436,3318,2019-08-07 16:25:18:626
4.7537,-8.4304,2.231,-0.4487,-0.0447,-0.1072,-0.0165,0.1315,-0.0564,3324,2019-08-07 16:25:18:632
4.7537,-8.4304,2.231,-0.4487,-0.0447,-0.1072,-0.0165,0.1315,-0.0564,3329,2019-08-07 16:25:18:637
4.6724,-8.2728,2.2357,-0.3651,-0.2877,-0.1379,-0.0165,0.1315,-0.0564,3333,2019-08-07 16:25:18:641
4.6724,-8.2728,2.2357,-0.3651,-0.2877,-0.1379,-0.0207,0.1176,-0.0532,3339,2019-08-07 16:25:18:647
4.749,-8.1774,2.2781,-0.3651,-0.2877,-0.1379,-0.0207,0.1176,-0.0532,3344,2019-08-07 16:25:18:652
4.749,-8.1774,2.2781,-0.3651,-0.2877,-0.1379,-0.0346,0.075,-0.0511,3348,2019-08-07 16:25:18:656
4.749,-8.1774,2.2781,-0.486,-0.3632,-0.1412,-0.0346,0.075,-0.0511,3354,2019-08-07 16:25:18:662
4.859,-8.2108,2.3629,-0.486,-0.3632,-0.1412,-0.0367,0.0292,-0.0447,3359,2019-08-07 16:25:18:667
4.859,-8.2108,2.3629,-0.486,-0.3632,-0.1412,-0.0367,0.0292,-0.0447,3365,2019-08-07 16:25:18:673
4.9212,-8.206,2.3441,-0.486,-0.3632,-0.1412,-0.0335,-0.0038,-0.0276,3368,2019-08-07 16:25:18:676
4.9212,-8.206,2.3441,-0.6095,-0.3202,-0.1856,-0.0335,-0.0038,-0.0276,3374,2019-08-07 16:25:18:682
4.9212,-8.206,2.3441,-0.6095,-0.3202,-0.1856,-0.0282,-0.0422,-0.0116,3378,2019-08-07 16:25:18:686
4.9738,-8.2681,2.1838,-0.6095,-0.3202,-0.1856,-0.0282,-0.0422,-0.0116,3384,2019-08-07 16:25:18:692
4.9738,-8.2681,2.1838,-0.6095,-0.3202,-0.1856,-0.0282,-0.056,0.0011,3388,2019-08-07 16:25:18:696
4.9451,-8.3635,2.2357,-0.6253,-0.1891,-0.0943,-0.0282,-0.056,0.0011,3394,2019-08-07 16:25:18:702
4.9451,-8.3635,2.2357,-0.6253,-0.1891,-0.0943,-0.0207,-0.0507,0.0075,3399,2019-08-07 16:25:18:707
4.9451,-8.3635,2.2357,-0.6253,-0.1891,-0.0943,-0.0207,-0.0507,0.0075,3403,2019-08-07 16:25:18:711
4.9308,-8.3397,2.198,-0.6253,-0.1891,-0.0943,-0.0058,-0.0262,0.0011,3409,2019-08-07 16:25:18:717
4.9308,-8.3397,2.198,-0.5957,-0.2449,-0.1756,-0.0058,-0.0262,0.0011,3414,2019-08-07 16:25:18:722
4.8351,-8.2824,2.2404,-0.5957,-0.2449,-0.1756,0.0038,-0.0059,-0.0095,3418,2019-08-07 16:25:18:726
4.8351,-8.2824,2.2404,-0.5957,-0.2449,-0.1756,0.0038,-0.0059,-0.0095,3424,2019-08-07 16:25:18:732
4.8351,-8.2824,2.2404,-0.5957,-0.2449,-0.1756,0.0059,5.0E-4,-0.017,3429,2019-08-07 16:25:18:737
4.7777,-8.2299,2.3629,-0.4316,-0.3131,-0.2736,0.0059,5.0E-4,-0.017,3434,2019-08-07 16:25:18:742
4.7777,-8.2299,2.3629,-0.4316,-0.3131,-0.2736,0.0059,5.0E-4,-0.017,3439,2019-08-07 16:25:18:747
4.6628,-8.1964,2.3865,-0.4316,-0.3131,-0.2736,0.007,0.0068,-0.0234,3443,2019-08-07 16:25:18:751
4.6628,-8.1964,2.3865,-0.4316,-0.3131,-0.2736,0.007,0.0068,-0.0234,3449,2019-08-07 16:25:18:757
4.6628,-8.1964,2.3865,-0.2813,-0.366,-0.2886,6.0E-4,-0.0155,-0.0202,3454,2019-08-07 16:25:18:762
4.6963,-8.1583,2.3252,-0.2813,-0.366,-0.2886,6.0E-4,-0.0155,-0.0202,3459,2019-08-07 16:25:18:767
4.6963,-8.1583,2.3252,-0.2813,-0.366,-0.2886,-0.0484,-0.1306,-0.0287,3463,2019-08-07 16:25:18:771
4.6963,-8.1583,2.3252,-0.2813,-0.366,-0.2886,-0.0484,-0.1306,-0.0287,3469,2019-08-07 16:25:18:777
4.6916,-8.0389,2.3724,-0.3259,-0.4966,-0.2933,-0.0836,-0.1114,-0.0532,3473,2019-08-07 16:25:18:781
4.6916,-8.0389,2.3724,-0.3259,-0.4966,-0.2933,-0.0836,-0.1114,-0.0532,3479,2019-08-07 16:25:18:787
4.6916,-8.0389,2.3724,-0.3259,-0.4966,-0.2933,-0.0165,-0.1018,-0.0308,3484,2019-08-07 16:25:18:792
5.2035,-8.2251,2.3865,-0.3259,-0.4966,-0.2933,-0.0165,-0.1018,-0.0308,3488,2019-08-07 16:25:18:796
5.2035,-8.2251,2.3865,-1.0851,-0.1902,0.0736,0.0496,-0.0304,-0.0287,3494,2019-08-07 16:25:18:802
5.5719,-8.2871,1.9293,-1.0851,-0.1902,0.0736,0.0496,-0.0304,-0.0287,3499,2019-08-07 16:25:18:807
5.5719,-8.2871,1.9293,-1.0851,-0.1902,0.0736,0.0496,-0.0304,-0.0287,3503,2019-08-07 16:25:18:811
5.5719,-8.2871,1.9293,-1.0851,-0.1902,0.0736,0.0613,0.1166,-0.017,3509,2019-08-07 16:25:18:817
5.4092,-7.9721,1.9811,-0.9569,-0.5878,0.1548,0.0389,0.1517,0.0139,3514,2019-08-07 16:25:18:822
5.4092,-7.9721,1.9811,-0.9569,-0.5878,0.1548,0.0389,0.1517,0.0139,3519,2019-08-07 16:25:18:827
5.1413,-7.9864,1.8916,-0.9569,-0.5878,0.1548,0.0389,0.1517,0.0139,3523,2019-08-07 16:25:18:831
5.1413,-7.9864,1.8916,-0.9569,-0.5878,0.1548,-0.0133,0.1517,0.0256,3528,2019-08-07 16:25:18:836
5.1413,-7.9864,1.8916,-0.4104,-0.4669,-0.2174,-0.0133,0.1517,0.0256,3534,2019-08-07 16:25:18:842
4.6963,-8.0771,2.3865,-0.4104,-0.4669,-0.2174,-0.0357,0.1112,0.0342,3539,2019-08-07 16:25:18:847
4.6963,-8.0771,2.3865,-0.4104,-0.4669,-0.2174,-0.0357,0.1112,0.0342,3544,2019-08-07 16:25:18:852
4.6916,-8.3158,2.3535,-0.4104,-0.4669,-0.2174,-0.0229,0.0473,0.0352,3549,2019-08-07 16:25:18:857
4.6916,-8.3158,2.3535,-0.3642,-0.2163,-0.1573,-0.0229,0.0473,0.0352,3554,2019-08-07 16:25:18:862