ACCELEROMETER X (m/s²),ACCELEROMETER Y (m/s²),ACCELEROMETER Z (m/s²),LINEAR ACCELERATION X (m/s²),LINEAR ACCELERATION Y (m/s²),LINEAR ACCELERATION Z (m/s²),GYROSCOPE X (rad/s),GYROSCOPE Y (rad/s),GYROSCOPE Z (rad/s),Time since start in ms ,YYYY-MO-DD HH-MI-SS_SSS
5.6151,-7.8814,1.9199,-0.3835,-0.1903,-0.0372,0.0038,0.01,-0.0042,2,2019-08-07 16:24:25:234
5.5768,-7.9816,1.9482,-0.3835,-0.1903,-0.0372,0.0038,0.01,-0.0042,8,2019-08-07 16:24:25:240
5.5768,-7.9816,1.9482,-0.3835,-0.1903,-0.0372,0.0038,0.0218,-0.0106,12,2019-08-07 16:24:25:244
5.5051,-7.8957,2.0425,-0.3464,-0.2399,-0.0911,0.0038,0.0218,-0.0106,18,2019-08-07 16:24:25:250
5.5051,-7.8957,2.0425,-0.3464,-0.2399,-0.0911,0.0112,0.0154,-0.0116,23,2019-08-07 16:24:25:255
5.4142,-7.9196,2.0,-0.3464,-0.2399,-0.0911,0.0112,0.0154,-0.0116,28,2019-08-07 16:24:25:260
5.4142,-7.9196,2.0,-0.3464,-0.2399,-0.0911,0.0091,0.0345,-0.017,33,2019-08-07 16:24:25:265
5.4142,-7.9196,2.0,-0.2184,-0.1935,-0.1094,0.0091,0.0345,-0.017,38,2019-08-07 16:24:25:270
5.3424,-7.8814,1.9482,-0.2184,-0.1935,-0.1094,0.0091,0.0345,-0.017,43,2019-08-07 16:24:25:275
5.3424,-7.8814,1.9482,-0.2184,-0.1935,-0.1094,0.0016,0.0377,-0.0234,48,2019-08-07 16:24:25:280
5.3424,-7.8814,1.9482,-0.2184,-0.1935,-0.1094,0.0016,0.0377,-0.0234,52,2019-08-07 16:24:25:284
5.3185,-7.8432,2.0236,-0.2184,-0.1935,-0.1094,-0.009,0.0186,-0.0266,58,2019-08-07 16:24:25:290
5.3185,-7.8432,2.0236,-0.1135,-0.2136,-0.1575,-0.009,0.0186,-0.0266,63,2019-08-07 16:24:25:295
5.2515,-7.9291,2.0283,-0.1135,-0.2136,-0.1575,-0.0101,0.0079,-0.0223,68,2019-08-07 16:24:25:300
5.2515,-7.9291,2.0283,-0.1135,-0.2136,-0.1575,-0.0101,0.0079,-0.0223,73,2019-08-07 16:24:25:305
5.2515,-7.9291,2.0283,-0.1135,-0.2136,-0.1575,-0.0186,-0.0102,-0.0298,78,2019-08-07 16:24:25:310
5.3089,-7.9625,1.9717,-0.1372,-0.1532,-0.0681,-0.0186,-0.0102,-0.0298,83,2019-08-07 16:24:25:315
5.3089,-7.9625,1.9717,-0.1372,-0.1532,-0.0681,-0.025,-0.0368,-0.033,87,2019-08-07 16:24:25:319
5.5098,-7.9816,1.901,-0.1372,-0.1532,-0.0681,-0.025,-0.0368,-0.033,93,2019-08-07 16:24:25:325
5.5098,-7.9816,1.901,-0.1372,-0.1532,-0.0681,-0.0271,-0.0422,-0.0298,98,2019-08-07 16:24:25:330
5.5098,-7.9816,1.901,-0.4251,-0.1638,-0.0148,-0.0271,-0.0422,-0.0298,103,2019-08-07 16:24:25:335
5.6821,-7.9482,1.934,-0.4251,-0.1638,-0.0148,-0.0271,-0.0422,-0.0298,108,2019-08-07 16:24:25:340
5.6821,-7.9482,1.934,-0.4251,-0.1638,-0.0148,-0.0186,-0.0027,-0.0202,113,2019-08-07 16:24:25:345
5.706,-7.9864,1.769,-0.4251,-0.1638,-0.0148,-0.0186,-0.0027,-0.0202,118,2019-08-07 16:24:25:350
5.706,-7.9864,1.769,-0.4798,-0.1029,0.1406,-0.0122,0.0303,-0.0159,123,2019-08-07 16:24:25:355
5.706,-7.9864,1.769,-0.4798,-0.1029,0.1406,-0.0122,0.0303,-0.0159,128,2019-08-07 16:24:25:360
5.5768,-8.0007,1.8728,-0.4798,-0.1029,0.1406,-0.0037,0.0281,-0.0127,134,2019-08-07 16:24:25:366
5.5768,-8.0007,1.8728,-0.4798,-0.1029,0.1406,-0.0037,0.0281,-0.0127,138,2019-08-07 16:24:25:370
5.4859,-7.9387,1.9529,-0.3329,-0.1051,-0.0747,0.007,0.0143,-0.001,142,2019-08-07 16:24:25:374
5.4859,-7.9387,1.9529,-0.3329,-0.1051,-0.0747,0.007,0.0143,-0.001,148,2019-08-07 16:24:25:380
5.4859,-7.9387,1.9529,-0.3329,-0.1051,-0.0747,0.0027,-0.0102,0.0033,153,2019-08-07 16:24:25:385
5.4716,-7.9625,1.868,-0.3329,-0.1051,-0.0747,0.0027,-0.0102,0.0033,157,2019-08-07 16:24:25:389
5.4716,-7.9625,1.868,-0.2546,-0.1277,0.0438,-0.0026,-0.0198,0.0118,163,2019-08-07 16:24:25:395
5.4046,-8.0007,1.9105,-0.2546,-0.1277,0.0438,-0.0026,-0.0198,0.0118,168,2019-08-07 16:24:25:400
5.4046,-8.0007,1.9105,-0.2546,-0.1277,0.0438,-0.0026,-0.0198,0.0118,173,2019-08-07 16:24:25:405
5.4046,-8.0007,1.9105,-0.2546,-0.1277,0.0438,0.0048,-0.0155,0.0139,177,2019-08-07 16:24:25:409
5.3424,-8.0294,2.0377,-0.1492,-0.0754,-0.1459,0.0048,-0.0155,0.0139,183,2019-08-07 16:24:25:415
5.3424,-8.0294,2.0377,-0.1492,-0.0754,-0.1459,0.0165,-0.0209,0.0054,188,2019-08-07 16:24:25:420
5.3424,-8.0294,2.0377,-0.1492,-0.0754,-0.1459,0.0165,-0.0209,0.0054,194,2019-08-07 16:24:25:426
5.4476,-7.9864,1.9576,-0.1492,-0.0754,-0.1459,0.008,-0.0209,-0.0021,198,2019-08-07 16:24:25:430
5.4476,-7.9864,1.9576,-0.3146,-0.1933,-0.1125,0.008,-0.0209,-0.0021,203,2019-08-07 16:24:25:435
5.4476,-7.9864,1.9576,-0.3146,-0.1933,-0.1125,0.0016,-0.0038,-0.0116,208,2019-08-07 16:24:25:440
5.4811,-7.8671,2.0047,-0.3146,-0.1933,-0.1125,0.0016,-0.0038,-0.0116,213,2019-08-07 16:24:25:445
5.4811,-7.8671,2.0047,-0.3146,-0.1933,-0.1125,-0.0048,0.0036,-0.0116,218,2019-08-07 16:24:25:450
5.5768,-7.7907,2.0566,-0.3195,-0.2571,-0.0651,-0.0048,0.0036,-0.0116,223,2019-08-07 16:24:25:455
5.5768,-7.7907,2.0566,-0.3195,-0.2571,-0.0651,-0.0058,0.0058,-0.0116,228,2019-08-07 16:24:25:460
5.5768,-7.7907,2.0566,-0.3195,-0.2571,-0.0651,-0.0058,0.0058,-0.0116,233,2019-08-07 16:24:25:465
5.5816,-7.8718,1.9576,-0.3195,-0.2571,-0.0651,-0.0101,0.0047,-0.0053,237,2019-08-07 16:24:25:469
5.5816,-7.8718,1.9576,-0.4634,-0.2209,0.0057,-0.0101,0.0047,-0.0053,243,2019-08-07 16:24:25:475
5.706,-7.9005,1.8586,-0.4634,-0.2209,0.0057,-0.0101,-0.0049,-0.0021,248,2019-08-07 16:24:25:480
5.706,-7.9005,1.8586,-0.4634,-0.2209,0.0057,-0.0101,-0.0049,-0.0021,253,2019-08-07 16:24:25:485
5.706,-7.9005,1.8586,-0.4634,-0.2209,0.0057,-0.0048,0.009,-0.0021,258,2019-08-07 16:24:25:490
5.6294,-7.8575,1.9576,-0.4214,-0.2379,-0.0662,-0.0048,0.009,-0.0021,263,2019-08-07 16:24:25:495
5.6294,-7.8575,1.9576,-0.4214,-0.2379,-0.0662,0.0027,0.0164,0.0054,268,2019-08-07 16:24:25:500
5.6294,-7.8575,1.9576,-0.4214,-0.2379,-0.0662,0.0027,0.0164,0.0054,273,2019-08-07 16:24:25:505
5.5577,-7.9005,1.8963,-0.4214,-0.2379,-0.0662,0.0038,0.0207,0.0011,277,2019-08-07 16:24:25:509
5.5577,-7.9005,1.8963,-0.3243,-0.1695,-0.0589,0.0038,0.0207,0.0011,283,2019-08-07 16:24:25:515
5.4476,-7.9482,1.9529,-0.3243,-0.1695,-0.0589,-5.0E-4,0.0111,-0.0042,287,2019-08-07 16:24:25:519
5.4476,-7.9482,1.9529,-0.3243,-0.1695,-0.0589,-5.0E-4,0.0111,-0.0042,293,2019-08-07 16:24:25:525
5.4476,-7.9482,1.9529,-0.3243,-0.1695,-0.0589,0.0027,0.0015,0.0011,299,2019-08-07 16:24:25:531
5.4285,-7.9721,2.0047,-0.2127,-0.1061,-0.1751,0.0027,0.0015,0.0011,303,2019-08-07 16:24:25:535
5.4285,-7.9721,2.0047,-0.2127,-0.1061,-0.1751,0.0027,0.0015,0.0011,308,2019-08-07 16:24:25:540
5.4668,-7.9434,1.9246,-0.2127,-0.1061,-0.1751,0.0027,-0.0102,0.0011,313,2019-08-07 16:24:25:545
5.4668,-7.9434,1.9246,-0.2127,-0.1061,-0.1751,0.0027,-0.0102,0.0011,318,2019-08-07 16:24:25:550
5.4668,-7.9434,1.9246,-0.3396,-0.1237,-0.0811,-0.0026,-0.0091,0.0043,323,2019-08-07 16:24:25:555
5.5577,-7.9482,1.9859,-0.3396,-0.1237,-0.0811,-0.0026,-0.0091,0.0043,328,2019-08-07 16:24:25:560
5.5577,-7.9482,1.9859,-0.3396,-0.1237,-0.0811,0.0027,0.0218,0.0065,334,2019-08-07 16:24:25:566
5.5577,-7.9482,1.9859,-0.3396,-0.1237,-0.0811,0.0027,0.0218,0.0065,338,2019-08-07 16:24:25:570
5.5864,-7.9196,1.9105,-0.3762,-0.1605,0.0055,0.0091,0.0452,0.0075,343,2019-08-07 16:24:25:575
5.5864,-7.9196,1.9105,-0.3762,-0.1605,0.0055,0.0091,0.0452,0.0075,347,2019-08-07 16:24:25:579
5.5577,-7.9148,1.8869,-0.3762,-0.1605,0.0055,0.0091,0.0452,0.0075,353,2019-08-07 16:24:25:585
5.5577,-7.9148,1.8869,-0.3762,-0.1605,0.0055,0.0102,0.0558,0.015,358,2019-08-07 16:24:25:590
5.5577,-7.9148,1.8869,-0.3762,-0.1605,0.0055,0.0102,0.0558,0.015,362,2019-08-07 16:24:25:594
5.462,-7.9434,1.9576,-0.2679,-0.1361,-0.0912,0.024,0.0441,0.0129,368,2019-08-07 16:24:25:600
5.462,-7.9434,1.9576,-0.2679,-0.1361,-0.0912,0.024,0.0441,0.0129,372,2019-08-07 16:24:25:604
5.4093,-7.848,2.0,-0.2679,-0.1361,-0.0912,0.024,0.0154,0.0107,378,2019-08-07 16:24:25:610
5.4093,-7.848,2.0,-0.2258,-0.2018,-0.0791,0.024,0.0154,0.0107,383,2019-08-07 16:24:25:615
5.4093,-7.848,2.0,-0.2258,-0.2018,-0.0791,0.024,0.0154,0.0107,387,2019-08-07 16:24:25:619
5.395,-7.8718,2.0,-0.2258,-0.2018,-0.0791,0.0123,-0.0027,0.0107,393,2019-08-07 16:24:25:625
5.395,-7.8718,2.0,-0.2258,-0.2018,-0.0791,-0.0016,-0.024,0.0075,398,2019-08-07 16:24:25:630
5.395,-7.8718,2.0,-0.2258,-0.2018,-0.0791,-0.0016,-0.024,0.0075,402,2019-08-07 16:24:25:634
5.438,-7.9291,2.0236,-0.2252,-0.1582,-0.1112,-0.0016,-0.024,0.0075,408,2019-08-07 16:24:25:640
5.438,-7.9291,2.0236,-0.2252,-0.1582,-0.1112,-0.0143,-0.0304,0.0054,412,2019-08-07 16:24:25:644
5.5242,-7.9291,1.9812,-0.2252,-0.1582,-0.1112,-0.0143,-0.0304,0.0054,418,2019-08-07 16:24:25:650
5.5242,-7.9291,1.9812,-0.3517,-0.1387,0.0104,-0.0239,-0.0336,0.0033,423,2019-08-07 16:24:25:655
5.5242,-7.9291,1.9812,-0.3517,-0.1387,0.0104,-0.0239,-0.0336,0.0033,427,2019-08-07 16:24:25:659
5.6438,-7.9816,1.9717,-0.3517,-0.1387,0.0104,-0.0218,-0.0145,-0.001,433,2019-08-07 16:24:25:665
5.6438,-7.9816,1.9717,-0.3517,-0.1387,0.0104,-0.0218,-0.0145,-0.001,437,2019-08-07 16:24:25:669
5.5672,-7.9434,1.9482,-0.3517,-0.1387,0.0104,-0.0133,0.0143,0.0022,443,2019-08-07 16:24:25:675
5.5672,-7.9434,1.9482,-0.3439,-0.1283,-0.0129,-0.0133,0.0143,0.0022,448,2019-08-07 16:24:25:680
5.5672,-7.9434,1.9482,-0.3439,-0.1283,-0.0129,-0.0133,0.0143,0.0022,453,2019-08-07 16:24:25:685
5.5289,-7.9387,2.0094,-0.3439,-0.1283,-0.0129,-0.0026,0.0377,0.0107,457,2019-08-07 16:24:25:689
5.5289,-7.9387,2.0094,-0.3439,-0.1283,-0.0129,-0.0026,0.0377,0.0107,463,2019-08-07 16:24:25:695
5.5289,-7.9387,2.0094,-0.2725,-0.1231,-0.0949,0.0059,0.0271,0.0118,467,2019-08-07 16:24:25:699
5.4572,-7.953,1.9953,-0.2725,-0.1231,-0.0949,0.0059,0.0271,0.0118,473,2019-08-07 16:24:25:705
5.4572,-7.953,1.9953,-0.2725,-0.1231,-0.0949,0.0165,0.0196,0.0107,477,2019-08-07 16:24:25:709
5.3663,-7.9816,1.9812,-0.2725,-0.1231,-0.0949,0.0165,0.0196,0.0107,483,2019-08-07 16:24:25:715
5.3663,-7.9816,1.9812,-0.1825,-0.1798,-0.0901,0.0197,0.01,0.0107,488,2019-08-07 16:24:25:720
5.3663,-7.9816,1.9812,-0.1825,-0.1798,-0.0901,0.0197,0.01,0.0107,493,2019-08-07 16:24:25:725
5.3471,-7.91,1.9246,-0.1825,-0.1798,-0.0901,0.0176,0.0015,0.0022,498,2019-08-07 16:24:25:730
5.3471,-7.91,1.9246,-0.1825,-0.1798,-0.0901,0.0176,0.0015,0.0022,503,2019-08-07 16:24:25:735
5.3758,-7.8336,2.0519,-0.1341,-0.2167,-0.1283,0.0102,-0.0091,-0.001,508,2019-08-07 16:24:25:740
5.3758,-7.8336,2.0519,-0.1341,-0.2167,-0.1283,0.0102,-0.0091,-0.001,513,2019-08-07 16:24:25:745
5.3758,-7.8336,2.0519,-0.1341,-0.2167,-0.1283,0.0016,-0.0059,-0.0074,518,2019-08-07 16:24:25:750
5.4715,-7.8575,1.9246,-0.1341,-0.2167,-0.1283,0.0016,-0.0059,-0.0074,522,2019-08-07 16:24:25:754
5.4715,-7.8575,1.9246,-0.1886,-0.2146,-0.0052,0.0016,-0.0059,-0.0074,528,2019-08-07 16:24:25:760
5.4954,-7.91,1.9717,-0.1886,-0.2146,-0.0052,-0.0133,0.0015,-0.0138,533,2019-08-07 16:24:25:765
5.4954,-7.91,1.9717,-0.1886,-0.2146,-0.0052,-0.0133,0.0015,-0.0138,537,2019-08-07 16:24:25:769
5.4954,-7.91,1.9717,-0.1886,-0.2146,-0.0052,-0.0175,-0.0017,-0.0159,543,2019-08-07 16:24:25:775
5.4585,-7.9579,1.9956,-0.2335,-0.1216,-0.0831,-0.0175,-0.0017,-0.0159,548,2019-08-07 16:24:25:780
5.4585,-7.9579,1.9956,-0.2335,-0.1216,-0.0831,-0.0154,-0.0027,-0.0138,553,2019-08-07 16:24:25:785
5.4585,-7.9579,1.9956,-0.2335,-0.1216,-0.0831,-0.0154,-0.0027,-0.0138,558,2019-08-07 16:24:25:790
5.492,-8.0009,1.939,-0.2335,-0.1216,-0.0831,-0.0186,-0.0145,-0.0191,563,2019-08-07 16:24:25:795
5.492,-8.0009,1.939,-0.3149,-0.1145,-0.0487,-0.0186,-0.0145,-0.0191,568,2019-08-07 16:24:25:800
5.5351,-8.0104,1.8542,-0.3149,-0.1145,-0.0487,-0.0058,-0.0219,-0.0084,573,2019-08-07 16:24:25:805
5.5351,-8.0104,1.8542,-0.3149,-0.1145,-0.0487,-0.0058,-0.0219,-0.0084,578,2019-08-07 16:24:25:810
5.5351,-8.0104,1.8542,-0.3149,-0.1145,-0.0487,0.0038,-0.0123,-0.0074,583,2019-08-07 16:24:25:815
5.5399,-8.0725,1.873,-0.3058,-0.0026,0.0333,0.0038,-0.0123,-0.0074,589,2019-08-07 16:24:25:821
5.5399,-8.0725,1.873,-0.3058,-0.0026,0.0333,0.0165,0.0047,-0.0106,593,2019-08-07 16:24:25:825
5.5399,-8.0725,1.873,-0.3058,-0.0026,0.0333,0.0165,0.0047,-0.0106,598,2019-08-07 16:24:25:830
5.4634,-7.9818,2.005,-0.3058,-0.0026,0.0333,0.0165,0.0047,-0.0106,602,2019-08-07 16:24:25:834
5.4634,-7.9818,2.005,-0.2503,-0.0664,-0.0705,0.0325,0.0132,-0.0063,608,2019-08-07 16:24:25:840
5.4299,-7.9102,1.972,-0.2503,-0.0664,-0.0705,0.0325,0.0132,-0.0063,613,2019-08-07 16:24:25:845
5.4299,-7.9102,1.972,-0.2503,-0.0664,-0.0705,0.0304,0.0111,-0.0052,618,2019-08-07 16:24:25:850
5.4299,-7.9102,1.972,-0.2503,-0.0664,-0.0705,0.0304,0.0111,-0.0052,622,2019-08-07 16:24:25:854
5.3629,-7.872,2.0757,-0.1332,-0.2257,-0.1771,0.024,0.0036,-0.0084,628,2019-08-07 16:24:25:860
5.3629,-7.872,2.0757,-0.1332,-0.2257,-0.1771,0.024,0.0036,-0.0084,633,2019-08-07 16:24:25:865
5.4921,-7.8624,2.0899,-0.1332,-0.2257,-0.1771,0.0144,-0.0166,-0.0127,637,2019-08-07 16:24:25:869
5.4921,-7.8624,2.0899,-0.1332,-0.2257,-0.1771,0.0144,-0.0166,-0.0127,643,2019-08-07 16:24:25:875
5.4921,-7.8624,2.0899,-0.2773,-0.2416,-0.1709,0.0091,-0.0368,-0.0063,648,2019-08-07 16:24:25:880
5.54,-7.8386,2.071,-0.2773,-0.2416,-0.1709,0.0091,-0.0368,-0.0063,653,2019-08-07 16:24:25:885
5.54,-7.8386,2.071,-0.2773,-0.2416,-0.1709,0.0048,-0.0326,-0.0052,658,2019-08-07 16:24:25:890
5.6309,-7.8433,1.939,-0.2773,-0.2416,-0.1709,0.0048,-0.0326,-0.0052,663,2019-08-07 16:24:25:895
5.6309,-7.8433,1.939,-0.373,-0.2439,-0.0131,-5.0E-4,-0.0326,-0.0031,668,2019-08-07 16:24:25:900
5.6309,-7.8433,1.939,-0.373,-0.2439,-0.0131,-5.0E-4,-0.0326,-0.0031,672,2019-08-07 16:24:25:904
5.6022,-7.9054,1.9108,-0.373,-0.2439,-0.0131,0.0027,-0.0241,-0.0021,678,2019-08-07 16:24:25:910
5.6022,-7.9054,1.9108,-0.373,-0.2439,-0.0131,0.0027,-0.0241,-0.0021,683,2019-08-07 16:24:25:915
5.6022,-7.9054,1.9108,-0.2785,-0.1416,0.0231,0.0091,-0.007,1.0E-4,687,2019-08-07 16:24:25:919
5.5831,-7.8911,2.005,-0.2785,-0.1416,0.0231,0.0091,-0.007,1.0E-4,693,2019-08-07 16:24:25:925
5.5831,-7.8911,2.005,-0.2785,-0.1416,0.0231,0.0155,-0.0091,0.0033,698,2019-08-07 16:24:25:930
5.4778,-7.9675,1.9438,-0.2785,-0.1416,0.0231,0.0155,-0.0091,0.0033,703,2019-08-07 16:24:25:935
5.4778,-7.9675,1.9438,-0.2785,-0.1416,0.0231,0.0155,-0.0091,0.0033,708,2019-08-07 16:24:25:940
5.4778,-7.9675,1.9438,-0.205,-0.0971,-0.0644,0.0229,-0.0038,1.0E-4,713,2019-08-07 16:24:25:945
5.4252,-7.9866,2.0003,-0.205,-0.0971,-0.0644,0.0229,-0.0038,1.0E-4,718,2019-08-07 16:24:25:950
5.4252,-7.9866,2.0003,-0.205,-0.0971,-0.0644,0.024,-0.0038,-0.0052,722,2019-08-07 16:24:25:954
5.4252,-7.9866,2.0003,-0.205,-0.0971,-0.0644,0.024,-0.0038,-0.0052,728,2019-08-07 16:24:25:960
5.3726,-7.9102,2.0475,-0.117,-0.1474,-0.1263,0.0219,-0.0177,-0.0116,732,2019-08-07 16:24:25:964
5.3726,-7.9102,2.0475,-0.117,-0.1474,-0.1263,0.0219,-0.0177,-0.0116,738,2019-08-07 16:24:25:970
5.3535,-7.9484,2.0758,-0.117,-0.1474,-0.1263,0.0155,-0.0294,-0.0116,743,2019-08-07 16:24:25:975
5.3535,-7.9484,2.0758,-0.1374,-0.1255,-0.1717,0.0155,-0.0294,-0.0116,748,2019-08-07 16:24:25:980
5.4348,-7.9006,2.1276,-0.1374,-0.1255,-0.1717,0.0102,-0.0294,-0.0106,753,2019-08-07 16:24:25:985
5.4348,-7.9006,2.1276,-0.1374,-0.1255,-0.1717,0.0102,-0.0294,-0.0106,757,2019-08-07 16:24:25:989
5.4348,-7.9006,2.1276,-0.1374,-0.1255,-0.1717,0.0048,-0.0379,-0.0063,763,2019-08-07 16:24:25:995
5.5258,-7.9484,1.9579,-0.1374,-0.1255,-0.1717,0.0048,-0.0379,-0.0063,768,2019-08-07 16:24:26:000
5.5258,-7.9484,1.9579,-0.2146,-0.19,-0.0839,-0.0016,-0.0336,-0.0063,773,2019-08-07 16:24:26:005
5.5258,-7.9484,1.9579,-0.2146,-0.19,-0.0839,-0.0016,-0.0336,-0.0063,778,2019-08-07 16:24:26:010
5.5928,-7.8959,1.9344,-0.2146,-0.19,-0.0839,0.0038,-0.0123,-0.0052,783,2019-08-07 16:24:26:015
5.5928,-7.8959,1.9344,-0.2146,-0.19,-0.0839,0.0038,-0.0123,-0.0052,787,2019-08-07 16:24:26:019
5.5306,-7.9388,1.9674,-0.3301,-0.0876,-0.0626,0.0038,-0.0123,-0.0052,793,2019-08-07 16:24:26:025
5.5306,-7.9388,1.9674,-0.3301,-0.0876,-0.0626,0.0112,0.0047,-0.0031,798,2019-08-07 16:24:26:030
5.5306,-7.9388,1.9674,-0.3301,-0.0876,-0.0626,0.0112,0.0047,-0.0031,803,2019-08-07 16:24:26:035
5.4588,-7.872,1.9485,-0.3301,-0.0876,-0.0626,0.0133,0.0015,-0.0052,808,2019-08-07 16:24:26:040
5.4588,-7.872,1.9485,-0.2174,-0.1569,0.006,0.0133,0.0015,-0.0052,813,2019-08-07 16:24:26:045
5.4588,-7.872,1.9485,-0.2174,-0.1569,0.006,0.0112,-6.0E-4,-0.0074,818,2019-08-07 16:24:26:050
5.4732,-7.8816,1.9532,-0.2174,-0.1569,0.006,0.0112,-6.0E-4,-0.0074,822,2019-08-07 16:24:26:054
5.4732,-7.8816,1.9532,-0.2174,-0.1569,0.006,0.0123,-0.0134,-0.017,828,2019-08-07 16:24:26:060
5.4349,-7.8816,2.0051,-0.1997,-0.1494,-0.1335,0.0123,-0.0134,-0.017,833,2019-08-07 16:24:26:065
5.4349,-7.8816,2.0051,-0.1997,-0.1494,-0.1335,0.0112,-0.0336,-0.0148,838,2019-08-07 16:24:26:070
5.4349,-7.8816,2.0051,-0.1997,-0.1494,-0.1335,0.0112,-0.0336,-0.0148,843,2019-08-07 16:24:26:075
5.4972,-7.9914,1.9344,-0.1997,-0.1494,-0.1335,0.0027,-0.0496,-0.0138,848,2019-08-07 16:24:26:080
5.4972,-7.9914,1.9344,-0.2091,-0.0607,-0.0363,0.0027,-0.0496,-0.0138,853,2019-08-07 16:24:26:085
5.6024,-7.9484,1.9862,-0.2091,-0.0607,-0.0363,6.0E-4,-0.056,-0.0138,859,2019-08-07 16:24:26:091
5.6024,-7.9484,1.9862,-0.2091,-0.0607,-0.0363,6.0E-4,-0.056,-0.0138,863,2019-08-07 16:24:26:095
5.6024,-7.9484,1.9862,-0.2091,-0.0607,-0.0363,0.008,-0.0475,-0.0074,868,2019-08-07 16:24:26:100
5.6551,-7.9723,2.0145,-0.3707,-0.0674,-0.0974,0.008,-0.0475,-0.0074,872,2019-08-07 16:24:26:104
5.6551,-7.9723,2.0145,-0.3707,-0.0674,-0.0974,0.0144,-0.0272,1.0E-4,878,2019-08-07 16:24:26:110
5.6647,-7.9245,1.9391,-0.3707,-0.0674,-0.0974,0.0144,-0.0272,1.0E-4,883,2019-08-07 16:24:26:115
5.6647,-7.9245,1.9391,-0.3707,-0.0674,-0.0974,0.0144,-0.0145,0.0043,887,2019-08-07 16:24:26:119
5.6647,-7.9245,1.9391,-0.3575,-0.1368,0.0149,0.0144,-0.0145,0.0043,893,2019-08-07 16:24:26:125
5.6168,-7.8959,1.9627,-0.3575,-0.1368,0.0149,0.0187,-0.0027,0.0065,898,2019-08-07 16:24:26:130
5.6168,-7.8959,1.9627,-0.3575,-0.1368,0.0149,0.0187,-0.0027,0.0065,903,2019-08-07 16:24:26:135
5.6168,-7.8959,1.9627,-0.3575,-0.1368,0.0149,0.0187,-0.0027,0.0065,908,2019-08-07 16:24:26:140
5.5786,-7.872,2.0758,-0.2799,-0.1495,-0.1511,0.0251,0.0026,0.0086,913,2019-08-07 16:24:26:145
5.5786,-7.872,2.0758,-0.2799,-0.1495,-0.1511,0.0251,0.0026,0.0086,917,2019-08-07 16:24:26:149
5.5307,-7.9579,2.0475,-0.2799,-0.1495,-0.1511,0.0229,-0.0049,0.0129,923,2019-08-07 16:24:26:155
5.5307,-7.9579,2.0475,-0.2799,-0.1495,-0.1511,0.0229,-0.0049,0.0129,928,2019-08-07 16:24:26:160
5.5307,-7.9579,2.0475,-0.2036,-0.0723,-0.0808,0.0229,-0.0123,0.0139,933,2019-08-07 16:24:26:165
5.4973,-7.9723,2.0664,-0.2036,-0.0723,-0.0808,0.0229,-0.0123,0.0139,938,2019-08-07 16:24:26:170
5.4973,-7.9723,2.0664,-0.1989,-0.0338,-0.1643,0.0187,-0.0198,0.0118,943,2019-08-07 16:24:26:175
5.4542,-7.9436,2.0758,-0.1989,-0.0338,-0.1643,0.0187,-0.0198,0.0118,948,2019-08-07 16:24:26:180
5.4542,-7.9436,2.0758,-0.1989,-0.0338,-0.1643,0.0176,-0.0198,0.0086,953,2019-08-07 16:24:26:185
5.4542,-7.9436,2.0758,-0.1989,-0.0338,-0.1643,0.0176,-0.0198,0.0086,958,2019-08-07 16:24:26:190
5.5117,-7.9675,2.0145,-0.2223,-0.0665,-0.0875,0.0176,-0.0198,0.0086,963,2019-08-07 16:24:26:195
5.5117,-7.9675,2.0145,-0.2223,-0.0665,-0.0875,0.0112,-0.0251,0.0065,968,2019-08-07 16:24:26:200
5.5117,-7.9675,2.0145,-0.2223,-0.0665,-0.0875,0.0112,-0.0251,0.0065,973,2019-08-07 16:24:26:205
5.5786,-7.9914,1.958,-0.2223,-0.0665,-0.0875,0.0091,-0.0166,0.0054,977,2019-08-07 16:24:26:209
5.5786,-7.9914,1.958,-0.3162,-0.0654,-0.0499,0.0091,-0.0166,0.0054,983,2019-08-07 16:24:26:215
5.6361,-7.9675,1.925,-0.3162,-0.0654,-0.0499,0.0144,4.0E-4,1.0E-4,987,2019-08-07 16:24:26:219
5.6361,-7.9675,1.925,-0.3162,-0.0654,-0.0499,0.0144,4.0E-4,1.0E-4,993,2019-08-07 16:24:26:225
5.5835,-7.9245,1.9533,-0.3162,-0.0654,-0.0499,0.0187,0.0175,-0.0031,998,2019-08-07 16:24:26:230
5.5835,-7.9245,1.9533,-0.2711,-0.1537,-0.0601,0.0187,0.0175,-0.0031,1002,2019-08-07 16:24:26:234
5.5835,-7.9245,1.9533,-0.2711,-0.1537,-0.0601,0.024,0.0207,-0.0084,1008,2019-08-07 16:24:26:240
5.5883,-7.9532,1.9439,-0.2711,-0.1537,-0.0601,0.024,0.0207,-0.0084,1013,2019-08-07 16:24:26:245
5.5883,-7.9532,1.9439,-0.2711,-0.1537,-0.0601,0.0251,-0.0049,-0.0052,1017,2019-08-07 16:24:26:249
5.5883,-7.9532,1.9439,-0.3495,-0.1076,-0.0411,0.0251,-0.0049,-0.0052,1023,2019-08-07 16:24:26:255
5.6505,-7.8577,2.0098,-0.3495,-0.1076,-0.0411,0.0368,-0.023,-0.0074,1028,2019-08-07 16:24:26:260
5.6505,-7.8577,2.0098,-0.3495,-0.1076,-0.0411,0.0368,-0.023,-0.0074,1033,2019-08-07 16:24:26:265
5.6505,-7.8577,2.0098,-0.3495,-0.1076,-0.0411,0.0464,-0.023,-0.002,1038,2019-08-07 16:24:26:270
5.7605,-7.8625,1.8354,-0.4502,-0.118,0.0667,0.0464,-0.023,-0.002,1043,2019-08-07 16:24:26:275
5.7605,-7.8625,1.8354,-0.4502,-0.118,0.0667,0.0474,0.0079,-0.0052,1048,2019-08-07 16:24:26:280
5.7893,-7.8386,1.9014,-0.4502,-0.118,0.0667,0.0474,0.0079,-0.0052,1053,2019-08-07 16:24:26:285
5.7893,-7.8386,1.9014,-0.4502,-0.118,0.0667,0.0474,0.0079,-0.0052,1058,2019-08-07 16:24:26:290
5.7893,-7.8386,1.9014,-0.3516,-0.209,-0.0409,0.0528,0.0516,-0.0074,1063,2019-08-07 16:24:26:295
5.5788,-7.8577,1.9533,-0.3516,-0.209,-0.0409,0.0517,0.0835,-0.0031,1068,2019-08-07 16:24:26:300
5.5788,-7.8577,1.9533,-0.3516,-0.209,-0.0409,0.0517,0.0835,-0.0031,1073,2019-08-07 16:24:26:305
5.5788,-7.8577,1.9533,-0.3516,-0.209,-0.0409,0.0517,0.0835,-0.0031,1078,2019-08-07 16:24:26:310
5.4687,-7.7957,2.0853,-0.0891,-0.2337,-0.127,0.041,0.0867,-0.0106,1084,2019-08-07 16:24:26:316
5.4687,-7.7957,2.0853,-0.0891,-0.2337,-0.127,0.041,0.0867,-0.0106,1088,2019-08-07 16:24:26:320
5.3348,-7.8004,2.1041,-0.0891,-0.2337,-0.127,0.0208,0.0526,-0.0191,1093,2019-08-07 16:24:26:325
5.3348,-7.8004,2.1041,-0.0891,-0.2337,-0.127,0.0208,0.0526,-0.0191,1098,2019-08-07 16:24:26:330
5.3348,-7.8004,2.1041,-0.0891,-0.2337,-0.127,0.008,0.0281,-0.0212,1103,2019-08-07 16:24:26:335
5.4257,-7.7718,1.9486,-0.1729,-0.268,-0.0466,0.008,0.0281,-0.0212,1108,2019-08-07 16:24:26:340
5.4257,-7.7718,1.9486,-0.1729,-0.268,-0.0466,0.0048,0.009,-0.0255,1113,2019-08-07 16:24:26:345
5.5214,-7.9436,1.8543,-0.2325,-0.0941,0.0394,0.0048,0.009,-0.0255,1118,2019-08-07 16:24:26:350
5.5214,-7.9436,1.8543,-0.2325,-0.0941,0.0394,0.0027,0.0026,-0.034,1122,2019-08-07 16:24:26:354
5.5214,-7.9436,1.8543,-0.2325,-0.0941,0.0394,0.0027,0.0026,-0.034,1128,2019-08-07 16:24:26:360
5.5406,-7.9389,1.8543,-0.2832,0.0347,0.1016,0.0144,0.0186,-0.0329,1134,2019-08-07 16:24:26:366
5.5406,-7.9389,1.8543,-0.2832,0.0347,0.1016,0.0144,0.0186,-0.0329,1138,2019-08-07 16:24:26:370
5.5406,-7.9389,1.8543,-0.2832,0.0347,0.1016,0.0144,0.0186,-0.0329,1143,2019-08-07 16:24:26:375
5.5836,-8.02,1.8402,-0.2832,0.0347,0.1016,0.0304,0.0313,-0.034,1149,2019-08-07 16:24:26:381
5.5836,-8.02,1.8402,-0.2832,0.0347,0.1016,0.0304,0.0313,-0.034,1154,2019-08-07 16:24:26:386
5.5167,-8.0057,1.7412,-0.2389,0.0404,0.1839,0.0421,0.0367,-0.0351,1158,2019-08-07 16:24:26:390
5.5167,-8.0057,1.7412,-0.2389,0.0404,0.1839,0.0421,0.0367,-0.0351,1163,2019-08-07 16:24:26:395
5.5167,-8.0057,1.7412,-0.2389,0.0404,0.1839,0.0432,0.0399,-0.034,1167,2019-08-07 16:24:26:399
5.4449,-8.02,1.859,-0.2389,0.0404,0.1839,0.0432,0.0399,-0.034,1173,2019-08-07 16:24:26:405
5.4449,-8.02,1.859,-0.1143,0.0414,0.1841,0.0538,0.0292,-0.0297,1178,2019-08-07 16:24:26:410
5.4832,-8.0678,1.8119,-0.1143,0.0414,0.1841,0.0538,0.0292,-0.0297,1184,2019-08-07 16:24:26:416
5.4832,-8.0678,1.8119,-0.1143,0.0414,0.1841,0.0623,0.0164,-0.0361,1188,2019-08-07 16:24:26:420
5.4832,-8.0678,1.8119,-0.1143,0.0414,0.1841,0.0623,0.0164,-0.0361,1193,2019-08-07 16:24:26:425
5.4115,-8.063,1.9298,-0.0804,0.0762,0.0768,0.0623,0.0164,-0.0361,1199,2019-08-07 16:24:26:431
5.4115,-8.063,1.9298,-0.0804,0.0762,0.0768,0.0751,4.0E-4,-0.0329,1203,2019-08-07 16:24:26:435
5.2919,-7.9437,1.8308,-0.0804,0.0762,0.0768,0.0751,4.0E-4,-0.0329,1208,2019-08-07 16:24:26:440
5.2919,-7.9437,1.8308,-0.0804,0.0762,0.0768,0.0773,-0.0187,-0.0308,1213,2019-08-07 16:24:26:445
5.2919,-7.9437,1.8308,0.0165,-0.0556,0.0167,0.0773,-0.0187,-0.0308,1218,2019-08-07 16:24:26:450
5.2488,-7.8721,2.0335,0.0165,-0.0556,0.0167,0.0847,-0.0571,-0.0287,1223,2019-08-07 16:24:26:455
5.2488,-7.8721,2.0335,0.0165,-0.0556,0.0167,0.0847,-0.0571,-0.0287,1228,2019-08-07 16:24:26:460
5.268,-7.8339,1.8496,0.0165,-0.0556,0.0167,0.0858,-0.0901,-0.018,1234,2019-08-07 16:24:26:466
5.268,-7.8339,1.8496,0.0999,-0.1306,0.0979,0.0858,-0.0901,-0.018,1238,2019-08-07 16:24:26:470
5.268,-7.8339,1.8496,0.0999,-0.1306,0.0979,0.0954,-0.1242,0.0054,1243,2019-08-07 16:24:26:475
5.0671,-7.8864,1.8826,0.0999,-0.1306,0.0979,0.0954,-0.1242,0.0054,1249,2019-08-07 16:24:26:481
5.0671,-7.8864,1.8826,0.0999,-0.1306,0.0979,0.1177,-0.1423,0.0065,1253,2019-08-07 16:24:26:485
5.0671,-7.8864,1.8826,0.4715,-0.0086,0.1567,0.1177,-0.1423,0.0065,1258,2019-08-07 16:24:26:490
4.8183,-8.0248,1.7554,0.4715,-0.0086,0.1567,0.1177,-0.1423,0.0065,1262,2019-08-07 16:24:26:494
4.8183,-8.0248,1.7554,0.4715,-0.0086,0.1567,0.1167,-0.1934,1.0E-4,1268,2019-08-07 16:24:26:500
4.8183,-8.1967,1.5951,0.4715,-0.0086,0.1567,0.1167,-0.1934,1.0E-4,1273,2019-08-07 16:24:26:505
4.8183,-8.1967,1.5951,0.51,0.2469,0.4075,0.1167,-0.1689,-0.0297,1278,2019-08-07 16:24:26:510
4.8183,-8.1967,1.5951,0.51,0.2469,0.4075,0.1167,-0.1689,-0.0297,1283,2019-08-07 16:24:26:515
4.6652,-8.168,1.614,0.51,0.2469,0.4075,0.1337,-0.1082,-0.0724,1288,2019-08-07 16:24:26:520
4.6652,-8.168,1.614,0.51,0.2469,0.4075,0.1337,-0.1082,-0.0724,1293,2019-08-07 16:24:26:525
4.4356,-8.1298,1.6328,0.9279,0.1701,0.3947,0.1518,-0.0358,-0.1203,1298,2019-08-07 16:24:26:530
4.4356,-8.1298,1.6328,0.9279,0.1701,0.3947,0.1518,-0.0358,-0.1203,1303,2019-08-07 16:24:26:535
4.4356,-8.1298,1.6328,0.9279,0.1701,0.3947,0.1518,-0.0358,-0.1203,1309,2019-08-07 16:24:26:541
3.9476,-8.1489,1.7318,0.9279,0.1701,0.3947,0.1444,-0.0059,-0.181,1314,2019-08-07 16:24:26:546
3.9476,-8.1489,1.7318,1.5876,0.1162,0.3112,0.1444,-0.0059,-0.181,1318,2019-08-07 16:24:26:550
3.9476,-8.1489,1.7318,1.5876,0.1162,0.3112,0.1358,-0.04,-0.2321,1323,2019-08-07 16:24:26:555
3.6032,-8.0726,1.6705,1.5876,0.1162,0.3112,0.1358,-0.04,-0.2321,1328,2019-08-07 16:24:26:560
3.6032,-8.0726,1.6705,1.5876,0.1162,0.3112,0.1422,-0.1082,-0.2865,1334,2019-08-07 16:24:26:566
3.6032,-8.0726,1.6705,2.0335,0.1573,0.3709,0.1422,-0.1082,-0.2865,1338,2019-08-07 16:24:26:570
3.3784,-8.0917,1.6611,2.0335,0.1573,0.3709,0.1593,-0.1945,-0.3387,1343,2019-08-07 16:24:26:575
3.3784,-8.0917,1.6611,2.0335,0.1573,0.3709,0.1593,-0.1945,-0.3387,1348,2019-08-07 16:24:26:580
3.3018,-8.0105,1.5668,2.0335,0.1573,0.3709,0.1785,-0.2946,-0.3983,1353,2019-08-07 16:24:26:585
3.3018,-8.0105,1.5668,2.192,-0.0372,0.4862,0.1785,-0.2946,-0.3983,1358,2019-08-07 16:24:26:590
3.3018,-8.0105,1.5668,2.192,-0.0372,0.4862,0.2285,-0.3852,-0.5038,1362,2019-08-07 16:24:26:594
3.1153,-7.6907,1.5527,2.192,-0.0372,0.4862,0.2285,-0.3852,-0.5038,1368,2019-08-07 16:24:26:600
3.1153,-7.6907,1.5527,2.192,-0.0372,0.4862,0.2285,-0.3852,-0.5038,1373,2019-08-07 16:24:26:605
2.766,-7.3183,1.3971,2.7974,-0.4972,0.6528,0.2797,-0.4544,-0.6242,1378,2019-08-07 16:24:26:610
2.766,-7.3183,1.3971,2.7974,-0.4972,0.6528,0.2797,-0.4544,-0.6242,1384,2019-08-07 16:24:26:616
2.766,-7.3183,1.3971,2.7974,-0.4972,0.6528,0.3031,-0.4693,-0.7616,1388,2019-08-07 16:24:26:620
2.2302,-7.0701,1.317,2.7974,-0.4972,0.6528,0.3031,-0.4693,-0.7616,1393,2019-08-07 16:24:26:625
2.2302,-7.0701,1.317,3.9824,-0.8338,0.7351,0.318,-0.4683,-0.899,1400,2019-08-07 16:24:26:632
2.2302,-7.0701,1.317,3.9824,-0.8338,0.7351,0.318,-0.4683,-0.899,1403,2019-08-07 16:24:26:635
1.3595,-6.8457,1.2982,3.9824,-0.8338,0.7351,0.318,-0.4683,-0.899,1408,2019-08-07 16:24:26:640
1.3595,-6.8457,1.2982,3.9824,-0.8338,0.7351,0.3265,-0.4363,-1.0513,1413,2019-08-07 16:24:26:645
0.9385,-7.1178,0.7561,3.9824,-0.8338,0.7351,0.3265,-0.4363,-1.0513,1417,2019-08-07 16:24:26:649
0.9385,-7.1178,0.7561,5.0334,-0.425,1.4106,0.3297,-0.3447,-1.3198,1423,2019-08-07 16:24:26:655
0.9385,-7.1178,0.7561,5.0334,-0.425,1.4106,0.3297,-0.3447,-1.3198,1428,2019-08-07 16:24:26:660
0.2783,-8.0248,-0.2291,5.0334,-0.425,1.4106,0.3169,-0.1093,-1.6074,1433,2019-08-07 16:24:26:665
0.2783,-8.0248,-0.2291,6.7191,1.5373,3.4629,0.3169,-0.1093,-1.6074,1438,2019-08-07 16:24:26:670
0.2783,-8.0248,-0.2291,6.7191,1.5373,3.4629,0.3169,-0.1093,-1.6074,1443,2019-08-07 16:24:26:675
-1.1091,-9.3138,-1.4594,6.7191,1.5373,3.4629,0.3468,0.564,-2.0676,1448,2019-08-07 16:24:26:680
-1.1091,-9.3138,-1.4594,6.7191,1.5373,3.4629,0.3468,0.564,-2.0676,1453,2019-08-07 16:24:26:685
-5.2188,-11.1851,-2.2325,6.7191,1.5373,3.4629,0.4863,1.544,-2.5928,1458,2019-08-07 16:24:26:690
-5.2188,-11.1851,-2.2325,12.3815,4.4119,4.4413,0.4863,1.544,-2.5928,1463,2019-08-07 16:24:26:695
-5.2188,-11.1851,-2.2325,12.3815,4.4119,4.4413,0.4863,1.544,-2.5928,1467,2019-08-07 16:24:26:699
-9.6059,-13.1137,-3.0762,12.3815,4.4119,4.4413,0.955,2.8319,-3.3257,1473,2019-08-07 16:24:26:705
-9.6059,-13.1137,-3.0762,12.3815,4.4119,4.4413,0.955,2.8319,-3.3257,1478,2019-08-07 16:24:26:710
-15.1317,-15.9446,-4.052,21.1,8.0205,6.7903,1.2373,3.8279,-4.0277,1483,2019-08-07 16:24:26:715
-15.1317,-15.9446,-4.052,21.1,8.0205,6.7903,1.2373,3.8279,-4.0277,1488,2019-08-07 16:24:26:720
-17.6865,-18.7134,-5.6123,21.1,8.0205,6.7903,1.5356,4.4916,-4.9832,1494,2019-08-07 16:24:26:726
-17.6865,-18.7134,-5.6123,21.1,8.0205,6.7903,1.5356,4.4916,-4.9832,1498,2019-08-07 16:24:26:730
-17.6865,-18.7134,-5.6123,25.8686,13.6358,9.2957,1.9212,4.8229,-5.6501,1503,2019-08-07 16:24:26:735
-19.4901,-21.0001,-4.9853,25.8686,13.6358,9.2957,1.9212,4.8229,-5.6501,1508,2019-08-07 16:24:26:740
-19.4901,-21.0001,-4.9853,25.8686,13.6358,9.2957,1.9212,4.8229,-5.6501,1513,2019-08-07 16:24:26:745
-21.6574,-21.2483,-6.0931,25.8686,13.6358,9.2957,2.7149,4.3787,-6.0027,1518,2019-08-07 16:24:26:750
-21.6574,-21.2483,-6.0931,29.4995,17.4547,10.2495,2.7149,4.3787,-6.0027,1523,2019-08-07 16:24:26:755
-21.6574,-21.2483,-6.0931,29.4995,17.4547,10.2495,3.4414,3.616,-5.6288,1528,2019-08-07 16:24:26:760
-20.7148,-28.3613,-6.6446,29.4995,17.4547,10.2495,3.4414,3.616,-5.6288,1534,2019-08-07 16:24:26:766
-20.7148,-28.3613,-6.6446,29.4995,17.4547,10.2495,4.3799,2.7531,-5.632,1538,2019-08-07 16:24:26:770
-11.065,-32.0419,-3.0479,20.6536,28.7431,9.0968,4.3799,2.7531,-5.632,1544,2019-08-07 16:24:26:776
-11.065,-32.0419,-3.0479,20.6536,28.7431,9.0968,5.8606,2.4687,-7.1138,1548,2019-08-07 16:24:26:780
-11.065,-32.0419,-3.0479,14.4313,22.0956,7.6101,5.8606,2.4687,-7.1138,1553,2019-08-07 16:24:26:785
-11.065,-32.0419,-3.0479,14.4313,22.0956,7.6101,5.8606,2.4687,-7.1138,1558,2019-08-07 16:24:26:790
-7.8952,-19.5105,-5.0329,14.4313,22.0956,7.6101,8.0912,3.0013,-9.1708,1563,2019-08-07 16:24:26:795
-7.8952,-19.5105,-5.0329,14.4313,22.0956,7.6101,8.0912,3.0013,-9.1708,1568,2019-08-07 16:24:26:800
-7.8952,-19.5105,-5.0329,16.4111,9.9169,6.4967,10.7757,3.4295,-10.8209,1573,2019-08-07 16:24:26:805
-9.5363,-7.4947,0.421,16.4111,9.9169,6.4967,10.7757,3.4295,-10.8209,1579,2019-08-07 16:24:26:811
-9.5363,-7.4947,0.421,16.4111,9.9169,6.4967,12.6825,2.9779,-11.7125,1583,2019-08-07 16:24:26:815
-9.5363,-7.4947,0.421,16.4111,9.9169,6.4967,12.6825,2.9779,-11.7125,1587,2019-08-07 16:24:26:819
-47.5231,131.3088,72.2076,54.4574,-128.9937,-65.666,13.8426,-5.7456,-9.5426,1593,2019-08-07 16:24:26:825
-47.5231,131.3088,72.2076,54.4574,-128.9937,-65.666,13.8426,-5.7456,-9.5426,1598,2019-08-07 16:24:26:830
-1.5992,136.4502,-8.5966,54.4574,-128.9937,-65.666,14.8503,-11.2178,-8.5955,1603,2019-08-07 16:24:26:835
-1.5992,136.4502,-8.5966,54.4574,-128.9937,-65.666,14.8503,-11.2178,-8.5955,1608,2019-08-07 16:24:26:840
-1.5992,136.4502,-8.5966,-8.1427,-65.6852,70.9253,13.1118,-13.5518,-7.9383,1613,2019-08-07 16:24:26:845
17.5377,48.7456,-101.9017,-8.1427,-65.6852,70.9253,13.1118,-13.5518,-7.9383,1619,2019-08-07 16:24:26:851
17.5377,48.7456,-101.9017,-8.1427,-65.6852,70.9253,1.1756,-16.8893,-4.016,1623,2019-08-07 16:24:26:855
7.7731,66.4088,-95.2411,-8.1427,-65.6852,70.9253,1.1756,-16.8893,-4.016,1628,2019-08-07 16:24:26:860
7.7731,66.4088,-95.2411,3.0455,-62.2552,90.7273,-7.011,-14.1686,4.6372,1633,2019-08-07 16:24:26:865
7.7731,66.4088,-95.2411,3.0455,-62.2552,90.7273,-7.011,-14.1686,4.6372,1639,2019-08-07 16:24:26:871
28.063,17.1764,-38.3218,3.0455,-62.2552,90.7273,-7.011,-14.1686,4.6372,1643,2019-08-07 16:24:26:875
28.063,17.1764,-38.3218,3.0455,-62.2552,90.7273,-11.8558,8.9061,11.6104,1649,2019-08-07 16:24:26:881
28.063,17.1764,-38.3218,-43.5474,12.4126,-14.0744,-11.8558,8.9061,11.6104,1653,2019-08-07 16:24:26:885
52.1947,-8.039,84.8311,-43.5474,12.4126,-14.0744,-9.7146,11.697,9.1241,1658,2019-08-07 16:24:26:890
52.1947,-8.039,84.8311,-43.5474,12.4126,-14.0744,-9.7146,11.697,9.1241,1663,2019-08-07 16:24:26:895
52.1947,-8.039,84.8311,-43.5474,12.4126,-14.0744,-2.897,5.1095,5.7972,1669,2019-08-07 16:24:26:901
32.6224,5.0891,18.6351,-10.6659,-5.864,-6.9617,-2.897,5.1095,5.7972,1673,2019-08-07 16:24:26:905
32.6224,5.0891,18.6351,-10.6659,-5.864,-6.9617,2.4667,0.0015,3.525,1678,2019-08-07 16:24:26:910
-1.561,22.3798,12.13,-10.6659,-5.864,-6.9617,2.4667,0.0015,3.525,1683,2019-08-07 16:24:26:915
-1.561,22.3798,12.13,-10.6659,-5.864,-6.9617,7.8729,7.7769,5.0611,1688,2019-08-07 16:24:26:920
-1.561,22.3798,12.13,13.1772,-32.5782,-40.3391,7.8729,7.7769,5.0611,1693,2019-08-07 16:24:26:925
-4.5942,30.0418,19.856,13.1772,-32.5782,-40.3391,4.5919,1.1371,7.9075,1698,2019-08-07 16:24:26:930
-4.5942,30.0418,19.856,13.1772,-32.5782,-40.3391,4.5919,1.1371,7.9075,1703,2019-08-07 16:24:26:935
-4.5942,30.0418,19.856,13.1772,-32.5782,-40.3391,4.5919,1.1371,7.9075,1708,2019-08-07 16:24:26:940
9.6293,21.8929,-28.3898,-2.8475,-20.1915,31.4904,-1.1489,-5.1512,8.4892,1713,2019-08-07 16:24:26:945
9.6293,21.8929,-28.3898,-2.8475,-20.1915,31.4904,-1.1489,-5.1512,8.4892,1719,2019-08-07 16:24:26:951
9.6293,21.8929,-28.3898,-2.8475,-20.1915,31.4904,-5.9862,-3.8079,7.5304,1722,2019-08-07 16:24:26:954
13.8729,11.7724,-22.6343,-2.8475,-20.1915,31.4904,-5.9862,-3.8079,7.5304,1728,2019-08-07 16:24:26:960
13.8729,11.7724,-22.6343,-4.4263,-3.8126,9.6325,-7.4946,-0.2627,7.0116,1733,2019-08-07 16:24:26:965
13.8729,11.7724,-22.6343,-4.4263,-3.8126,9.6325,-7.4946,-0.2627,7.0116,1738,2019-08-07 16:24:26:970
13.8729,11.7724,-22.6343,-4.4263,-3.8126,9.6325,-7.4946,-0.2627,7.0116,1743,2019-08-07 16:24:26:975
17.528,3.423,42.2418,-4.4263,-3.8126,9.6325,-7.2645,0.8633,6.6644,1747,2019-08-07 16:24:26:979
17.528,3.423,42.2418,0.9029,2.8388,-6.1634,-1.8114,-5.2886,5.2593,1753,2019-08-07 16:24:26:985
7.883,-5.8239,4.9698,0.9029,2.8388,-6.1634,-1.8114,-5.2886,5.2593,1758,2019-08-07 16:24:26:990
7.883,-5.8239,4.9698,0.9029,2.8388,-6.1634,-1.8114,-5.2886,5.2593,1763,2019-08-07 16:24:26:995
14.691,-12.9703,3.9987,0.9029,2.8388,-6.1634,0.3042,-1.2395,4.8055,1768,2019-08-07 16:24:27:000
14.691,-12.9703,3.9987,-4.7472,9.377,-3.7051,0.3042,-1.2395,4.8055,1773,2019-08-07 16:24:27:005
14.691,-12.9703,3.9987,-4.7472,9.377,-3.7051,-0.2178,-0.4001,3.9937,1778,2019-08-07 16:24:27:010
7.1558,-10.8794,-1.9595,-4.7472,9.377,-3.7051,-0.2178,-0.4001,3.9937,1783,2019-08-07 16:24:27:015
7.1558,-10.8794,-1.9595,4.6301,6.5668,5.9934,-1.7305,0.7856,4.5647,1787,2019-08-07 16:24:27:019
7.1558,-10.8794,-1.9595,4.6301,6.5668,5.9934,-1.7305,0.7856,4.5647,1793,2019-08-07 16:24:27:025
0.8549,-7.2035,1.3448,4.6301,6.5668,5.9934,-1.7305,0.7856,4.5647,1798,2019-08-07 16:24:27:030
0.8549,-7.2035,1.3448,5.3818,2.2702,-7.6078,-2.2152,2.0021,5.3061,1803,2019-08-07 16:24:27:035
0.8549,-7.2035,1.3448,5.3818,2.2702,-7.6078,-2.2152,2.0021,5.3061,1808,2019-08-07 16:24:27:040
4.2278,-6.7643,5.8135,5.3818,2.2702,-7.6078,-1.0615,1.135,5.5469,1813,2019-08-07 16:24:27:045
4.2278,-6.7643,5.8135,5.3818,2.2702,-7.6078,-1.0615,1.135,5.5469,1819,2019-08-07 16:24:27:051
4.2278,-6.7643,5.8135,5.3818,2.2702,-7.6078,-0.6812,1.5525,4.8705,1822,2019-08-07 16:24:27:054
3.9359,-6.8455,2.3017,4.2287,1.8879,-0.0663,-0.6812,1.5525,4.8705,1828,2019-08-07 16:24:27:060
3.9359,-6.8455,2.3017,4.2287,1.8879,-0.0663,-1.0466,1.2702,4.3368,1834,2019-08-07 16:24:27:066
-0.3986,-5.6807,1.0997,4.2287,1.8879,-0.0663,-1.0466,1.2702,4.3368,1838,2019-08-07 16:24:27:070
-0.3986,-5.6807,1.0997,4.2287,1.8879,-0.0663,-1.0466,1.2702,4.3368,1843,2019-08-07 16:24:27:075
-0.3986,-5.6807,1.0997,8.9662,0.2352,-1.3538,-1.3907,0.9358,4.2633,1848,2019-08-07 16:24:27:080
-1.1306,-6.7118,3.8903,8.9662,0.2352,-1.3538,-1.167,0.5512,4.4092,1854,2019-08-07 16:24:27:086
-1.1306,-6.7118,3.8903,8.9662,0.2352,-1.3538,-1.167,0.5512,4.4092,1858,2019-08-07 16:24:27:090
-1.1306,-6.7118,3.8903,8.9662,0.2352,-1.3538,-1.167,0.5512,4.4092,1863,2019-08-07 16:24:27:095
1.9887,-9.5713,1.1987,4.9983,3.0756,1.0869,-0.8602,0.6194,4.2696,1868,2019-08-07 16:24:27:100
1.9887,-9.5713,1.1987,4.9983,3.0756,1.0869,-0.8602,0.6194,4.2696,1873,2019-08-07 16:24:27:105
2.6585,-10.3208,0.2324,4.9983,3.0756,1.0869,-0.6375,1.2692,3.9916,1878,2019-08-07 16:24:27:110
2.6585,-10.3208,0.2324,4.9983,3.0756,1.0869,-0.6375,1.2692,3.9916,1883,2019-08-07 16:24:27:115
2.6585,-10.3208,0.2324,4.6884,2.8072,1.8673,-0.3829,2.4996,3.6656,1888,2019-08-07 16:24:27:120
0.7639,-9.5188,0.6802,4.6884,2.8072,1.8673,-0.3829,2.4996,3.6656,1893,2019-08-07 16:24:27:125
0.7639,-9.5188,0.6802,4.6884,2.8072,1.8673,-0.3829,2.4996,3.6656,1898,2019-08-07 16:24:27:130
-1.9679,-7.8623,0.5812,4.6884,2.8072,1.8673,-0.2018,3.307,3.4196,1904,2019-08-07 16:24:27:136
-1.9679,-7.8623,0.5812,8.0497,0.0389,2.0713,-0.2018,3.307,3.4196,1908,2019-08-07 16:24:27:140
-1.9679,-7.8623,0.5812,8.0497,0.0389,2.0713,-0.1635,3.8226,3.1383,1913,2019-08-07 16:24:27:145
-4.5514,-6.602,0.4303,8.0497,0.0389,2.0713,-0.1635,3.8226,3.1383,1919,2019-08-07 16:24:27:151
-4.5514,-6.602,0.4303,8.0497,0.0389,2.0713,-0.4074,4.09,2.5524,1922,2019-08-07 16:24:27:154
-6.1541,-6.1676,0.6,11.0378,-1.7795,2.438,-0.4074,4.09,2.5524,1928,2019-08-07 16:24:27:160
-6.1541,-6.1676,0.6,11.0378,-1.7795,2.438,-0.5768,3.6458,2.0017,1933,2019-08-07 16:24:27:165
-6.1541,-6.1676,0.6,11.0378,-1.7795,2.438,-0.5768,3.6458,2.0017,1938,2019-08-07 16:24:27:170
-7.0488,-5.8286,1.7172,11.0378,-1.7795,2.438,-0.5768,3.6458,2.0017,1942,2019-08-07 16:24:27:174
-7.0488,-5.8286,1.7172,11.4085,-2.3287,1.789,-0.6951,2.7808,1.4733,1949,2019-08-07 16:24:27:181
-7.0488,-5.8286,1.7172,11.4085,-2.3287,1.789,-0.6951,2.7808,1.4733,1953,2019-08-07 16:24:27:185
-5.9819,-6.0244,2.1933,11.4085,-2.3287,1.789,-0.8133,1.6516,1.0664,1958,2019-08-07 16:24:27:190
-5.9819,-6.0244,2.1933,11.4085,-2.3287,1.789,-0.8133,1.6516,1.0664,1962,2019-08-07 16:24:27:194
-2.633,-6.3872,1.6276,7.2883,-2.1144,1.4149,-0.7675,0.4958,0.8161,1968,2019-08-07 16:24:27:200
-2.633,-6.3872,1.6276,7.2883,-2.1144,1.4149,-0.7675,0.4958,0.8161,1973,2019-08-07 16:24:27:205
-2.633,-6.3872,1.6276,7.2883,-2.1144,1.4149,-0.5779,0.107,0.5742,1978,2019-08-07 16:24:27:210
0.4481,-6.8693,0.2795,7.2883,-2.1144,1.4149,-0.5779,0.107,0.5742,1983,2019-08-07 16:24:27:215
0.4481,-6.8693,0.2795,2.7829,-1.6147,3.3949,-0.5363,-0.0858,0.3655,1988,2019-08-07 16:24:27:220
0.4481,-6.8693,0.2795,2.7829,-1.6147,3.3949,-0.5363,-0.0858,0.3655,1993,2019-08-07 16:24:27:225
1.4528,-6.8359,-0.4512,2.7829,-1.6147,3.3949,-0.514,-0.1508,0.2706,1998,2019-08-07 16:24:27:230
1.4528,-6.8359,-0.4512,2.7829,-1.6147,3.3949,-0.514,-0.1508,0.2706,2002,2019-08-07 16:24:27:234
1.4528,-6.8359,-0.4512,1.4975,-1.3375,2.7365,-0.4138,-0.2062,0.2035,2009,2019-08-07 16:24:27:241
2.357,-7.3038,0.501,1.4975,-1.3375,2.7365,-0.4138,-0.2062,0.2035,2013,2019-08-07 16:24:27:245
2.357,-7.3038,0.501,1.4975,-1.3375,2.7365,-0.2913,-0.3149,0.1726,2018,2019-08-07 16:24:27:250
3.0076,-7.4565,0.6896,1.4975,-1.3375,2.7365,-0.2913,-0.3149,0.1726,2023,2019-08-07 16:24:27:255
3.0076,-7.4565,0.6896,0.3552,-1.1139,2.1655,-0.2913,-0.3149,0.1726,2028,2019-08-07 16:24:27:260
3.0076,-7.4565,0.6896,0.3552,-1.1139,2.1655,-0.1773,-0.3553,0.1183,2033,2019-08-07 16:24:27:265
3.8448,-7.4661,0.963,0.3552,-1.1139,2.1655,-0.1773,-0.3553,0.1183,2037,2019-08-07 16:24:27:269
3.8448,-7.4661,0.963,0.3552,-1.1139,2.1655,-0.1305,-0.349,0.0288,2043,2019-08-07 16:24:27:275
4.2515,-7.2847,1.1138,-0.4588,-1.4489,1.6918,-0.1592,-0.219,-0.0393,2049,2019-08-07 16:24:27:281
4.2515,-7.2847,1.1138,-0.4588,-1.4489,1.6918,-0.1592,-0.219,-0.0393,2052,2019-08-07 16:24:27:284
4.2515,-7.2847,1.1138,-0.4588,-1.4489,1.6918,-0.1592,-0.219,-0.0393,2058,2019-08-07 16:24:27:290
4.773,-7.1653,1.0714,-0.4588,-1.4489,1.6918,-0.2402,0.0345,-0.034,2063,2019-08-07 16:24:27:295
4.773,-7.1653,1.0714,-1.2532,-1.1656,1.5143,-0.2402,0.0345,-0.034,2068,2019-08-07 16:24:27:300
4.773,-7.1653,1.0714,-1.2532,-1.1656,1.5143,-0.3691,0.3594,-0.0852,2072,2019-08-07 16:24:27:304
4.8112,-7.6379,1.6088,-1.2532,-1.1656,1.5143,-0.3691,0.3594,-0.0852,2078,2019-08-07 16:24:27:310
4.8112,-7.6379,1.6088,-1.2532,-1.1656,1.5143,-0.4181,0.4617,-0.1491,2083,2019-08-07 16:24:27:315
4.8112,-7.6379,1.6088,-0.1892,-0.4284,0.8451,-0.4181,0.4617,-0.1491,2088,2019-08-07 16:24:27:320
3.7204,-8.2633,2.0377,-0.1892,-0.4284,0.8451,-0.4181,0.4617,-0.1491,2092,2019-08-07 16:24:27:324
3.7204,-8.2633,2.0377,-0.1892,-0.4284,0.8451,-0.4277,0.3403,-0.2077,2099,2019-08-07 16:24:27:331
3.0841,-8.8839,2.2263,-0.1892,-0.4284,0.8451,-0.4277,0.3403,-0.2077,2103,2019-08-07 16:24:27:335
3.0841,-8.8839,2.2263,-0.1892,-0.4284,0.8451,-0.4096,-0.0762,-0.2194,2109,2019-08-07 16:24:27:341
3.0841,-8.8839,2.2263,0.761,0.4255,0.6464,-0.4096,-0.0762,-0.2194,2114,2019-08-07 16:24:27:346
3.4381,-9.2801,2.1178,0.761,0.4255,0.6464,-0.3797,-0.3724,-0.2034,2118,2019-08-07 16:24:27:350
3.4381,-9.2801,2.1178,0.761,0.4255,0.6464,-0.3797,-0.3724,-0.2034,2122,2019-08-07 16:24:27:354
4.0648,-9.113,2.3724,0.761,0.4255,0.6464,-0.3169,-0.594,-0.1895,2128,2019-08-07 16:24:27:360
4.0648,-9.113,2.3724,-0.3326,0.3808,0.2735,-0.3169,-0.594,-0.1895,2133,2019-08-07 16:24:27:365
4.7346,-8.7836,2.0424,-0.3326,0.3808,0.2735,-0.2412,-0.6281,-0.18,2138,2019-08-07 16:24:27:370
4.7346,-8.7836,2.0424,-0.3326,0.3808,0.2735,-0.2412,-0.6281,-0.18,2143,2019-08-07 16:24:27:375
4.7346,-8.7836,2.0424,-1.0177,-0.0356,0.4522,-0.2061,-0.5098,-0.2279,2148,2019-08-07 16:24:27:380
4.8781,-8.4781,2.0141,-1.0177,-0.0356,0.4522,-0.2061,-0.5098,-0.2279,2153,2019-08-07 16:24:27:385
4.8781,-8.4781,2.0141,-1.0177,-0.0356,0.4522,-0.2061,-0.5098,-0.2279,2158,2019-08-07 16:24:27:390
4.7346,-8.2871,2.231,-0.8041,-0.297,0.3535,-0.2317,-0.333,-0.2684,2163,2019-08-07 16:24:27:395
4.7346,-8.2871,2.231,-0.8041,-0.297,0.3535,-0.2317,-0.333,-0.2684,2169,2019-08-07 16:24:27:401
4.7346,-8.2871,2.231,-0.8041,-0.297,0.3535,-0.2732,-0.1679,-0.2524,2173,2019-08-07 16:24:27:405
4.5145,-8.2728,2.839,-0.8041,-0.297,0.3535,-0.2732,-0.1679,-0.2524,2178,2019-08-07 16:24:27:410
4.5145,-8.2728,2.839,-0.4464,-0.315,-0.5005,-0.2732,-0.1679,-0.2524,2183,2019-08-07 16:24:27:415
4.5145,-8.2728,2.839,-0.4464,-0.315,-0.5005,-0.2572,-0.0294,-0.2354,2188,2019-08-07 16:24:27:420
4.5049,-8.4304,3.3858,-0.4464,-0.315,-0.5005,-0.2572,-0.0294,-0.2354,2193,2019-08-07 16:24:27:425
4.5049,-8.4304,3.3858,-0.4464,-0.315,-0.5005,-0.204,-0.0571,-0.2577,2198,2019-08-07 16:24:27:430
4.3997,-8.4065,3.7158,-0.3373,-0.1791,-1.3148,-0.204,-0.0571,-0.2577,2202,2019-08-07 16:24:27:434
4.3997,-8.4065,3.7158,-0.3373,-0.1791,-1.3148,-0.1848,-0.1295,-0.2492,2208,2019-08-07 16:24:27:440
4.3997,-8.4065,3.7158,-0.3792,-0.181,-1.3726,-0.1848,-0.1295,-0.2492,2213,2019-08-07 16:24:27:445
4.5862,-8.4399,3.6404,-0.3792,-0.181,-1.3726,-0.2136,-0.1838,-0.2236,2218,2019-08-07 16:24:27:450
4.5862,-8.4399,3.6404,-0.3792,-0.181,-1.3726,-0.2136,-0.1838,-0.2236,2223,2019-08-07 16:24:27:455
4.8398,-8.5736,3.2256,-0.3792,-0.181,-1.3726,-0.2732,-0.2414,-0.1842,2228,2019-08-07 16:24:27:460
4.8398,-8.5736,3.2256,-0.7357,0.0737,-0.8161,-0.2732,-0.2414,-0.1842,2234,2019-08-07 16:24:27:466
4.8398,-8.5736,3.2256,-0.7357,0.0737,-0.8161,-0.2732,-0.2414,-0.1842,2237,2019-08-07 16:24:27:469
5.256,-8.9173,3.1124,-0.7357,0.0737,-0.8161,-0.3329,-0.2211,-0.1448,2243,2019-08-07 16:24:27:475
5.256,-8.9173,3.1124,-1.4022,0.543,-0.8063,-0.3329,-0.2211,-0.1448,2249,2019-08-07 16:24:27:481
5.6339,-9.0939,3.0276,-1.4022,0.543,-0.8063,-0.3169,-0.1679,-0.1214,2253,2019-08-07 16:24:27:485
5.6339,-9.0939,3.0276,-1.4022,0.543,-0.8063,-0.3169,-0.1679,-0.1214,2258,2019-08-07 16:24:27:490
5.6339,-9.0939,3.0276,-1.4022,0.543,-0.8063,-0.2594,-0.0624,-0.1043,2264,2019-08-07 16:24:27:496
5.6674,-9.0605,2.938,-1.4022,0.543,-0.8063,-0.2594,-0.0624,-0.1043,2268,2019-08-07 16:24:27:500
5.6674,-9.0605,2.938,-1.379,0.3287,-0.3052,-0.2221,0.1059,-0.0425,2272,2019-08-07 16:24:27:504
5.6244,-8.7932,2.4525,-1.379,0.3287,-0.3052,-0.2221,0.1059,-0.0425,2278,2019-08-07 16:24:27:510
5.6244,-8.7932,2.4525,-1.379,0.3287,-0.3052,-0.2093,0.2668,-0.0063,2284,2019-08-07 16:24:27:516
5.6244,-8.7932,2.4525,-1.379,0.3287,-0.3052,-0.2093,0.2668,-0.0063,2288,2019-08-07 16:24:27:520
5.5287,-8.5497,2.3723,-1.3092,-0.0329,-0.1879,-0.2093,0.2668,-0.0063,2293,2019-08-07 16:24:27:525
5.5287,-8.5497,2.3723,-1.3092,-0.0329,-0.1879,-0.1507,0.3967,-0.0116,2299,2019-08-07 16:24:27:531
5.165,-8.4494,2.4713,-1.3092,-0.0329,-0.1879,-0.1507,0.3967,-0.0116,2302,2019-08-07 16:24:27:534
5.165,-8.4494,2.4713,-1.3092,-0.0329,-0.1879,-0.1507,0.3967,-0.0116,2308,2019-08-07 16:24:27:540
5.165,-8.4494,2.4713,-0.7194,-0.1388,-0.3547,-0.0793,0.3658,-0.0244,2314,2019-08-07 16:24:27:546
4.8158,-8.4208,2.5986,-0.7194,-0.1388,-0.3547,-0.0793,0.3658,-0.0244,2318,2019-08-07 16:24:27:550
4.8158,-8.4208,2.5986,-0.7194,-0.1388,-0.3547,-0.0261,0.222,-0.0234,2322,2019-08-07 16:24:27:554
4.8158,-8.4208,2.5986,-0.7194,-0.1388,-0.3547,-0.0261,0.222,-0.0234,2328,2019-08-07 16:24:27:560
4.7392,-8.2346,2.5609,-0.5351,-0.4267,-0.3422,-0.0048,0.0654,-0.0138,2333,2019-08-07 16:24:27:565
4.7392,-8.2346,2.5609,-0.5351,-0.4267,-0.3422,-0.0048,0.0654,-0.0138,2338,2019-08-07 16:24:27:570
5.0837,-8.0819,2.1272,-0.8714,-0.4964,0.0877,0.0048,-0.039,0.0011,2343,2019-08-07 16:24:27:575
5.0837,-8.0819,2.1272,-0.8714,-0.4964,0.0877,0.0048,-0.039,0.0011,2348,2019-08-07 16:24:27:580
5.0837,-8.0819,2.1272,-0.8714,-0.4964,0.0877,0.0038,-0.0581,0.0086,2353,2019-08-07 16:24:27:585
5.4377,-7.9482,2.1602,-0.8714,-0.4964,0.0877,0.0038,-0.0581,0.0086,2358,2019-08-07 16:24:27:590
5.4377,-7.9482,2.1602,-1.296,-0.7262,0.0784,0.0038,-0.0581,0.0086,2363,2019-08-07 16:24:27:595
5.4568,-7.7572,1.9292,-1.296,-0.7262,0.0784,0.0091,-0.0049,0.0118,2368,2019-08-07 16:24:27:600
5.4568,-7.7572,1.9292,-1.296,-0.7262,0.0784,0.0091,-0.0049,0.0118,2372,2019-08-07 16:24:27:604
5.4568,-7.7572,1.9292,-1.296,-0.7262,0.0784,0.0027,0.0665,0.0033,2378,2019-08-07 16:24:27:610
5.1602,-7.5758,2.0989,-0.9294,-0.9939,0.1139,-0.0101,0.0899,-0.0063,2384,2019-08-07 16:24:27:616
5.1602,-7.5758,2.0989,-0.9294,-0.9939,0.1139,-0.0101,0.0899,-0.0063,2387,2019-08-07 16:24:27:619
5.1602,-7.5758,2.0989,-0.9294,-0.9939,0.1139,-0.0101,0.0899,-0.0063,2393,2019-08-07 16:24:27:625
4.8779,-7.6331,2.2875,-0.9294,-0.9939,0.1139,-0.0133,0.0601,-0.0191,2398,2019-08-07 16:24:27:630
4.8779,-7.6331,2.2875,-0.5113,-0.9559,-0.0931,-0.0133,0.0601,-0.0191,2403,2019-08-07 16:24:27:635
4.8779,-7.6331,2.2875,-0.5113,-0.9559,-0.0931,-0.0229,-0.024,-0.0202,2408,2019-08-07 16:24:27:640
4.7583,-7.7572,1.9764,-0.4917,-0.7821,0.2907,-0.0229,-0.024,-0.0202,2413,2019-08-07 16:24:27:645
4.7583,-7.7572,1.9764,-0.4917,-0.7821,0.2907,-0.0346,-0.0613,-0.0255,2418,2019-08-07 16:24:27:650
4.7583,-7.7572,1.9764,-0.4917,-0.7821,0.2907,-0.0346,-0.0613,-0.0255,2423,2019-08-07 16:24:27:655
4.763,-7.8957,2.1272,-0.4917,-0.7821,0.2907,-0.0325,-0.0976,-0.0436,2428,2019-08-07 16:24:27:660
4.763,-7.8957,2.1272,-0.4947,-0.6535,0.164,-0.0325,-0.0976,-0.0436,2433,2019-08-07 16:24:27:665
4.763,-7.8957,2.1272,-0.4947,-0.6535,0.164,-0.008,-0.1455,-0.0553,2438,2019-08-07 16:24:27:670
4.7535,-7.9816,2.0046,-0.4947,-0.6535,0.164,-0.008,-0.1455,-0.0553,2443,2019-08-07 16:24:27:675
4.7535,-7.9816,2.0046,-0.4947,-0.6535,0.164,-0.008,-0.1455,-0.0553,2447,2019-08-07 16:24:27:679
4.8109,-7.8479,1.9528,-0.5283,-0.7033,0.2317,-0.0101,-0.2169,-0.0713,2453,2019-08-07 16:24:27:685
4.8109,-7.8479,1.9528,-0.5283,-0.7033,0.2317,-0.0101,-0.2169,-0.0713,2458,2019-08-07 16:24:27:690
5.1123,-7.8909,1.9198,-0.8141,-0.6558,0.2518,-0.0186,-0.2509,-0.0777,2463,2019-08-07 16:24:27:695
5.1123,-7.8909,1.9198,-0.8141,-0.6558,0.2518,-0.0186,-0.2509,-0.0777,2468,2019-08-07 16:24:27:700
5.1123,-7.8909,1.9198,-0.8141,-0.6558,0.2518,-0.0133,-0.2499,-0.0926,2473,2019-08-07 16:24:27:705
5.4567,-7.805,2.0942,-0.8141,-0.6558,0.2518,-0.0133,-0.2499,-0.0926,2477,2019-08-07 16:24:27:709
5.4567,-7.805,2.0942,-1.1704,-0.7534,0.0206,-0.0069,-0.1966,-0.1011,2483,2019-08-07 16:24:27:715
5.4567,-7.805,2.0942,-1.1704,-0.7534,0.0206,-0.0069,-0.1966,-0.1011,2489,2019-08-07 16:24:27:721
5.4567,-7.7715,2.2262,-1.1704,-0.7534,0.0206,-5.0E-4,-0.105,-0.1097,2493,2019-08-07 16:24:27:725
5.4902,-7.7715,2.2262,-1.1704,-0.7534,0.0206,-5.0E-4,-0.105,-0.1097,2498,2019-08-07 16:24:27:730
5.4902,-7.7715,2.2262,-0.8315,-0.8681,-0.1071,-5.0E-4,-0.105,-0.1097,2503,2019-08-07 16:24:27:735
5.227,-7.657,2.2686,-0.8315,-0.8681,-0.1071,-0.0378,-0.0699,-0.099,2508,2019-08-07 16:24:27:740
5.227,-7.657,2.2686,-0.8315,-0.8681,-0.1071,-0.0378,-0.0699,-0.099,2512,2019-08-07 16:24:27:744
5.0548,-7.762,2.4807,-0.8315,-0.8681,-0.1071,-0.0602,-0.0997,-0.0937,2518,2019-08-07 16:24:27:750
5.0548,-7.762,2.4807,-0.6604,-0.7285,-0.4179,-0.0602,-0.0997,-0.0937,2523,2019-08-07 16:24:27:755
5.0548,-7.762,2.4807,-0.6604,-0.7285,-0.4179,-0.0697,-0.1316,-0.0958,2528,2019-08-07 16:24:27:760
4.9352,-7.8861,2.674,-0.6604,-0.7285,-0.4179,-0.0697,-0.1316,-0.0958,2533,2019-08-07 16:24:27:765
4.9352,-7.8861,2.674,-0.6604,-0.7285,-0.4179,-0.0655,-0.2264,-0.0926,2537,2019-08-07 16:24:27:769
4.9352,-7.8861,2.674,-0.6604,-0.7285,-0.4179,-0.0655,-0.2264,-0.0926,2542,2019-08-07 16:24:27:774
4.9926,-7.8575,2.8484,-0.5691,-0.6428,-0.7473,-0.0655,-0.2264,-0.0926,2548,2019-08-07 16:24:27:780
4.9926,-7.8575,2.8484,-0.5691,-0.6428,-0.7473,-0.0442,-0.3106,-0.0777,2552,2019-08-07 16:24:27:784
5.3094,-7.8576,2.5469,-0.5691,-0.6428,-0.7473,-0.0442,-0.3106,-0.0777,2558,2019-08-07 16:24:27:790
5.3094,-7.8576,2.5469,-0.5691,-0.6428,-0.7473,-0.0452,-0.334,-0.067,2563,2019-08-07 16:24:27:795
5.3094,-7.8576,2.5469,-1.1496,-0.5378,-0.3975,-0.0452,-0.334,-0.067,2568,2019-08-07 16:24:27:800
5.7878,-7.9292,2.4762,-1.1496,-0.5378,-0.3975,-0.0548,-0.2584,-0.0788,2573,2019-08-07 16:24:27:805
5.7878,-7.9292,2.4762,-1.1496,-0.5378,-0.3975,-0.0548,-0.2584,-0.0788,2578,2019-08-07 16:24:27:810
5.8309,-7.8623,2.5894,-1.1496,-0.5378,-0.3975,-0.0495,-0.1253,-0.1001,2583,2019-08-07 16:24:27:815
5.8309,-7.8623,2.5894,-1.2735,-0.6123,-0.6458,-0.0495,-0.1253,-0.1001,2588,2019-08-07 16:24:27:820
5.8309,-7.8623,2.5894,-1.2735,-0.6123,-0.6458,-0.0442,-0.0038,-0.1065,2592,2019-08-07 16:24:27:824
5.4816,-7.7907,2.8298,-1.2735,-0.6123,-0.6458,-0.0442,-0.0038,-0.1065,2599,2019-08-07 16:24:27:831
5.4816,-7.7907,2.8298,-1.2735,-0.6123,-0.6458,-0.0548,0.0228,-0.0969,2602,2019-08-07 16:24:27:834
5.4816,-7.7907,2.8298,-0.6694,-0.7379,-0.9781,-0.0548,0.0228,-0.0969,2608,2019-08-07 16:24:27:840
5.1324,-7.7239,3.0655,-0.6694,-0.7379,-0.9781,-0.0548,0.0228,-0.0969,2613,2019-08-07 16:24:27:845
5.1324,-7.7239,3.0655,-0.6694,-0.7379,-0.9781,-0.0729,-0.0773,-0.0788,2618,2019-08-07 16:24:27:850
5.1659,-7.7669,3.1079,-0.6694,-0.7379,-0.9781,-0.0729,-0.0773,-0.0788,2623,2019-08-07 16:24:27:855
5.1659,-7.7669,3.1079,-0.7095,-0.69,-1.0955,-0.0708,-0.1711,-0.066,2627,2019-08-07 16:24:27:859
5.1659,-7.7669,3.1079,-0.7095,-0.69,-1.0955,-0.0708,-0.1711,-0.066,2634,2019-08-07 16:24:27:866
5.429,-7.7382,2.9193,-0.7095,-0.69,-1.0955,-0.0516,-0.2382,-0.0468,2637,2019-08-07 16:24:27:869
5.429,-7.7382,2.9193,-0.7095,-0.69,-1.0955,-0.0516,-0.2382,-0.0468,2643,2019-08-07 16:24:27:875
5.6443,-7.8576,2.8298,-1.0815,-0.5912,-0.8212,-0.025,-0.2595,-0.0287,2648,2019-08-07 16:24:27:880
5.6443,-7.8576,2.8298,-1.0815,-0.5912,-0.8212,-0.025,-0.2595,-0.0287,2653,2019-08-07 16:24:27:885
5.6443,-7.8576,2.8298,-1.0815,-0.5912,-0.8212,-0.025,-0.2595,-0.0287,2658,2019-08-07 16:24:27:890
5.7974,-7.9578,2.6318,-1.0815,-0.5912,-0.8212,-0.0026,-0.2296,-0.0234,2663,2019-08-07 16:24:27:895
5.7974,-7.9578,2.6318,-1.2793,-0.4072,-0.3412,-0.0026,-0.2296,-0.0234,2669,2019-08-07 16:24:27:901
5.8596,-8.1392,2.2075,-1.2793,-0.4072,-0.3412,0.0059,-0.1359,-0.0138,2672,2019-08-07 16:24:27:904
5.8596,-8.1392,2.2075,-1.2793,-0.4072,-0.3412,0.0059,-0.1359,-0.0138,2678,2019-08-07 16:24:27:910
5.8596,-8.1392,2.2075,-1.2793,-0.4072,-0.3412,0.0144,-0.056,-0.0148,2683,2019-08-07 16:24:27:915
5.7496,-8.3063,2.3631,-1.1492,-0.1287,-0.3826,0.0144,-0.056,-0.0148,2688,2019-08-07 16:24:27:920
5.7496,-8.3063,2.3631,-1.1492,-0.1287,-0.3826,0.0144,-0.056,-0.0148,2693,2019-08-07 16:24:27:925
5.386,-8.2777,2.4951,-1.1492,-0.1287,-0.3826,0.0357,0.0143,-0.0244,2698,2019-08-07 16:24:27:930
5.386,-8.2777,2.4951,-1.1492,-0.1287,-0.3826,0.0357,0.0143,-0.0244,2702,2019-08-07 16:24:27:934
5.386,-8.2777,2.4951,-0.5712,-0.2932,-0.5268,0.0613,0.0537,-0.034,2708,2019-08-07 16:24:27:940
4.9841,-7.996,2.4715,-0.5712,-0.2932,-0.5268,0.0613,0.0537,-0.034,2713,2019-08-07 16:24:27:945
4.9841,-7.996,2.4715,-0.5712,-0.2932,-0.5268,0.0602,0.0175,-0.0255,2718,2019-08-07 16:24:27:950
4.9841,-7.996,2.4715,-0.5712,-0.2932,-0.5268,0.0602,0.0175,-0.0255,2723,2019-08-07 16:24:27:955
5.0319,-7.8623,2.5469,-0.4056,-0.5523,-0.5055,0.057,-0.0315,-0.0266,2728,2019-08-07 16:24:27:960
5.0319,-7.8623,2.5469,-0.4056,-0.5523,-0.5055,0.057,-0.0315,-0.0266,2733,2019-08-07 16:24:27:965
5.2664,-7.7573,2.4998,-0.4056,-0.5523,-0.5055,0.0485,-0.1029,-0.0351,2738,2019-08-07 16:24:27:970
5.2664,-7.7573,2.4998,-0.4056,-0.5523,-0.5055,0.0485,-0.1029,-0.0351,2742,2019-08-07 16:24:27:974
5.2664,-7.7573,2.4998,-0.7016,-0.7436,-0.4778,0.057,-0.1178,-0.0393,2749,2019-08-07 16:24:27:981
5.4099,-7.6618,2.4055,-0.7016,-0.7436,-0.4778,0.057,-0.1178,-0.0393,2752,2019-08-07 16:24:27:984
5.4099,-7.6618,2.4055,-0.7016,-0.7436,-0.4778,0.0592,-0.1263,-0.0287,2758,2019-08-07 16:24:27:990
5.4099,-7.6618,2.4055,-0.7016,-0.7436,-0.4778,0.0592,-0.1263,-0.0287,2763,2019-08-07 16:24:27:995
5.7065,-7.7669,2.0331,-1.1139,-0.6524,-0.0583,0.0592,-0.1263,-0.0287,2768,2019-08-07 16:24:28:000
5.7065,-7.7669,2.0331,-1.1139,-0.6524,-0.0583,0.0453,-0.0858,-0.034,2773,2019-08-07 16:24:28:005
5.7065,-7.7669,2.0331,-1.1139,-0.6524,-0.0583,0.0453,-0.0858,-0.034,2777,2019-08-07 16:24:28:009
5.6635,-7.8051,2.0991,-1.1139,-0.6524,-0.0583,0.0442,-0.0475,-0.0383,2783,2019-08-07 16:24:28:015
5.6635,-7.8051,2.0991,-0.8296,-0.5996,-0.0128,0.0442,-0.0475,-0.0383,2787,2019-08-07 16:24:28:019
5.5199,-7.8576,1.9954,-0.8296,-0.5996,-0.0128,0.0357,0.026,-0.0319,2793,2019-08-07 16:24:28:025
5.5199,-7.8576,1.9954,-0.7953,-0.543,0.0196,0.0176,0.0463,-0.0351,2798,2019-08-07 16:24:28:030
5.5199,-7.8576,1.9954,-0.7953,-0.543,0.0196,0.0176,0.0463,-0.0351,2803,2019-08-07 16:24:28:035
5.3477,-7.8719,2.0944,-0.7953,-0.543,0.0196,0.0176,0.0463,-0.0351,2808,2019-08-07 16:24:28:040
5.3477,-7.8719,2.0944,-0.7953,-0.543,0.0196,-0.0026,0.0505,-0.0393,2813,2019-08-07 16:24:28:045
5.1516,-7.8767,2.2123,-0.4696,-0.5027,-0.187,-0.0026,0.0505,-0.0393,2818,2019-08-07 16:24:28:050
5.1516,-7.8767,2.2123,-0.4696,-0.5027,-0.187,-0.0101,0.0026,-0.0319,2823,2019-08-07 16:24:28:055
5.1516,-7.8767,2.2123,-0.4696,-0.5027,-0.187,-0.0101,0.0026,-0.0319,2828,2019-08-07 16:24:28:060
5.2233,-7.8051,2.1651,-0.4696,-0.5027,-0.187,-0.0133,-0.0709,-0.0276,2833,2019-08-07 16:24:28:065
5.2233,-7.8051,2.1651,-0.6253,-0.6261,-0.0737,-0.0133,-0.0709,-0.0276,2838,2019-08-07 16:24:28:070
5.3812,-7.7287,2.0944,-0.6253,-0.6261,-0.0737,-0.0154,-0.1455,-0.0159,2842,2019-08-07 16:24:28:074
5.3812,-7.7287,2.0944,-0.6253,-0.6261,-0.0737,-0.0154,-0.1455,-0.0159,2848,2019-08-07 16:24:28:080
5.3812,-7.7287,2.0944,-0.6253,-0.6261,-0.0737,-0.0058,-0.1945,0.0086,2853,2019-08-07 16:24:28:085
5.6539,-7.6189,1.9577,-0.6253,-0.6261,-0.0737,-0.0058,-0.1945,0.0086,2857,2019-08-07 16:24:28:089
5.6539,-7.6189,1.9577,-0.9975,-0.7268,0.0591,-0.0058,-0.1945,0.0086,2863,2019-08-07 16:24:28:095
5.8214,-7.6475,1.8493,-0.9975,-0.7268,0.0591,0.008,-0.1956,0.0278,2868,2019-08-07 16:24:28:100
5.8214,-7.6475,1.8493,-0.9975,-0.7268,0.0591,0.008,-0.1956,0.0278,2873,2019-08-07 16:24:28:105
5.8214,-7.6475,1.8493,-1.0965,-0.796,0.1186,0.0283,-0.1593,0.0501,2878,2019-08-07 16:24:28:110
5.8166,-7.6046,1.8776,-1.0965,-0.796,0.1186,0.0283,-0.1593,0.0501,2883,2019-08-07 16:24:28:115
5.8166,-7.6046,1.8776,-1.0965,-0.796,0.1186,0.0378,-0.1178,0.0576,2888,2019-08-07 16:24:28:120
5.8166,-7.6046,1.8776,-1.0965,-0.796,0.1186,0.0378,-0.1178,0.0576,2893,2019-08-07 16:24:28:125
5.5295,-7.5998,1.8493,-0.6573,-0.7714,0.0749,0.0336,-0.089,0.0587,2898,2019-08-07 16:24:28:130
5.5295,-7.5998,1.8493,-0.6573,-0.7714,0.0749,0.0336,-0.089,0.0587,2903,2019-08-07 16:24:28:135
5.5295,-7.5998,1.8493,-0.6573,-0.7714,0.0749,0.0336,-0.089,0.0587,2908,2019-08-07 16:24:28:140
5.2855,-7.7239,2.0284,-0.6573,-0.7714,0.0749,0.0251,-0.0944,0.0587,2913,2019-08-07 16:24:28:145
5.2855,-7.7239,2.0284,-0.6573,-0.7714,0.0749,0.0251,-0.0944,0.0587,2918,2019-08-07 16:24:28:150
5.1085,-7.8576,2.0803,-0.3892,-0.5051,-0.09,0.0048,-0.1103,0.0331,2923,2019-08-07 16:24:28:155
5.1085,-7.8576,2.0803,-0.3892,-0.5051,-0.09,0.0048,-0.1103,0.0331,2928,2019-08-07 16:24:28:160
5.0702,-7.8814,2.2405,-0.3892,-0.5051,-0.09,-5.0E-4,-0.1231,0.0129,2933,2019-08-07 16:24:28:165
5.0702,-7.8814,2.2405,-0.3892,-0.5051,-0.09,-5.0E-4,-0.1231,0.0129,2938,2019-08-07 16:24:28:170
5.0702,-7.8814,2.2405,-0.4365,-0.5186,-0.255,-0.0112,-0.1583,-0.0116,2943,2019-08-07 16:24:28:175
5.2473,-7.8385,2.2264,-0.4365,-0.5186,-0.255,-0.0112,-0.1583,-0.0116,2949,2019-08-07 16:24:28:181
5.2473,-7.8385,2.2264,-0.4365,-0.5186,-0.255,-0.0112,-0.1583,-0.0116,2954,2019-08-07 16:24:28:186
5.2473,-7.8385,2.2264,-0.4365,-0.5186,-0.255,-0.0165,-0.2009,-0.0361,2958,2019-08-07 16:24:28:190
5.5582,-7.7382,2.2217,-0.85,-0.6562,-0.2581,-0.0165,-0.2009,-0.0361,2963,2019-08-07 16:24:28:195
5.5582,-7.7382,2.2217,-0.85,-0.6562,-0.2581,-0.0325,-0.2211,-0.0457,2968,2019-08-07 16:24:28:200
5.8549,-7.533,2.1793,-0.85,-0.6562,-0.2581,-0.0325,-0.2211,-0.0457,2973,2019-08-07 16:24:28:205
5.8549,-7.533,2.1793,-0.85,-0.6562,-0.2581,-0.042,-0.2307,-0.0447,2979,2019-08-07 16:24:28:211
5.8549,-7.533,2.1793,-1.1258,-0.8815,-0.1659,-0.042,-0.2307,-0.0447,2983,2019-08-07 16:24:28:215
5.984,-7.4614,2.0709,-1.1258,-0.8815,-0.1659,-0.0452,-0.2414,-0.0351,2987,2019-08-07 16:24:28:219
5.984,-7.4614,2.0709,-1.1895,-0.8297,-0.0911,-0.0452,-0.2414,-0.0351,2993,2019-08-07 16:24:28:225
5.9314,-7.6141,1.9624,-1.1895,-0.8297,-0.0911,-0.0484,-0.2478,-0.0308,2999,2019-08-07 16:24:28:231
5.9314,-7.6141,1.9624,-1.1895,-0.8297,-0.0911,-0.0484,-0.2478,-0.0308,3003,2019-08-07 16:24:28:235
5.9314,-7.6141,1.9624,-1.1895,-0.8297,-0.0911,-0.0527,-0.2701,-0.0298,3008,2019-08-07 16:24:28:240
5.8501,-7.8098,1.9907,-0.9793,-0.4942,-0.119,-0.0527,-0.2701,-0.0298,3012,2019-08-07 16:24:28:244
5.8501,-7.8098,1.9907,-0.9793,-0.4942,-0.119,-0.0527,-0.2701,-0.0298,3018,2019-08-07 16:24:28:250
5.7114,-8.1297,1.8682,-0.9793,-0.4942,-0.119,-0.0506,-0.2701,-0.0319,3023,2019-08-07 16:24:28:255
5.7114,-8.1297,1.8682,-0.9793,-0.4942,-0.119,-0.0506,-0.2701,-0.0319,3027,2019-08-07 16:24:28:259
5.7114,-8.1297,1.8682,-0.9719,-0.069,-0.0348,-0.0442,-0.2233,-0.0447,3033,2019-08-07 16:24:28:265
5.7018,-8.3445,2.0096,-0.9719,-0.069,-0.0348,-0.0442,-0.2233,-0.0447,3038,2019-08-07 16:24:28:270
5.7018,-8.3445,2.0096,-0.9719,-0.069,-0.0348,-0.0154,-0.1711,-0.066,3043,2019-08-07 16:24:28:275
5.7018,-8.3445,2.0096,-0.9719,-0.069,-0.0348,-0.0154,-0.1711,-0.066,3048,2019-08-07 16:24:28:280
5.6731,-8.3445,2.0331,-0.821,0.0156,-0.2105,0.0219,-0.0794,-0.0862,3053,2019-08-07 16:24:28:285
5.6731,-8.3445,2.0331,-0.821,0.0156,-0.2105,0.0219,-0.0794,-0.0862,3058,2019-08-07 16:24:28:290
5.5056,-8.0772,2.1934,-0.821,0.0156,-0.2105,0.0453,-0.0262,-0.0926,3063,2019-08-07 16:24:28:295
5.5056,-8.0772,2.1934,-0.821,0.0156,-0.2105,0.0453,-0.0262,-0.0926,3068,2019-08-07 16:24:28:300
5.5056,-8.0772,2.1934,-0.546,-0.458,-0.5034,0.0453,-0.0262,-0.0926,3073,2019-08-07 16:24:28:305
5.4004,-7.7621,2.1981,-0.546,-0.458,-0.5034,0.0496,-0.023,-0.0841,3078,2019-08-07 16:24:28:310
5.4004,-7.7621,2.1981,-0.546,-0.458,-0.5034,0.0496,-0.023,-0.0841,3082,2019-08-07 16:24:28:314
5.5535,-7.6714,2.2311,-0.546,-0.458,-0.5034,0.0315,-0.0699,-0.0596,3088,2019-08-07 16:24:28:320
5.5535,-7.6714,2.2311,-0.6992,-0.6459,-0.3325,0.0315,-0.0699,-0.0596,3093,2019-08-07 16:24:28:325
5.5535,-7.6714,2.2311,-0.6992,-0.6459,-0.3325,0.0048,-0.137,-0.0372,3098,2019-08-07 16:24:28:330
5.764,-7.7669,2.1274,-0.6992,-0.6459,-0.3325,0.0048,-0.137,-0.0372,3103,2019-08-07 16:24:28:335
5.764,-7.7669,2.1274,-0.6992,-0.6459,-0.3325,0.0048,-0.137,-0.0372,3108,2019-08-07 16:24:28:340
5.764,-7.7669,2.1274,-1.0412,-0.4188,-0.1879,0.0059,-0.1615,-0.0084,3113,2019-08-07 16:24:28:345
5.9936,-7.9196,1.9436,-1.0412,-0.4188,-0.1879,0.0059,-0.1615,-0.0084,3118,2019-08-07 16:24:28:350
5.9936,-7.9196,1.9436,-1.0412,-0.4188,-0.1879,0.0112,-0.1721,0.0171,3123,2019-08-07 16:24:28:355
6.0319,-8.0008,1.8399,-1.0412,-0.4188,-0.1879,0.0112,-0.1721,0.0171,3129,2019-08-07 16:24:28:361
6.0319,-8.0008,1.8399,-1.1409,-0.3634,0.0332,0.0133,-0.154,0.0437,3133,2019-08-07 16:24:28:365
6.0319,-8.0008,1.8399,-1.1409,-0.3634,0.0332,0.0133,-0.154,0.0437,3138,2019-08-07 16:24:28:370
6.0893,-8.0629,1.7975,-1.1409,-0.3634,0.0332,0.008,-0.1274,0.0651,3143,2019-08-07 16:24:28:375
6.0893,-8.0629,1.7975,-1.1409,-0.3634,0.0332,0.0123,-0.0709,0.0725,3149,2019-08-07 16:24:28:381
6.051,-8.0772,1.7833,-1.1303,-0.2171,0.0131,0.0123,-0.0709,0.0725,3152,2019-08-07 16:24:28:384
6.051,-8.0772,1.7833,-1.1303,-0.2171,0.0131,0.0123,-0.0709,0.0725,3158,2019-08-07 16:24:28:390
6.051,-8.0772,1.7833,-1.1303,-0.2171,0.0131,0.0155,-0.0091,0.0661,3163,2019-08-07 16:24:28:395
5.8788,-7.9483,1.8587,-1.1303,-0.2171,0.0131,0.0155,-0.0091,0.0661,3167,2019-08-07 16:24:28:399
5.8788,-7.9483,1.8587,-0.8139,-0.391,-0.051,0.0102,0.0505,0.0512,3173,2019-08-07 16:24:28:405
5.5678,-7.8624,1.9059,-0.8139,-0.391,-0.051,0.0102,0.0505,0.0512,3178,2019-08-07 16:24:28:410
5.5678,-7.8624,1.9059,-0.8139,-0.391,-0.051,0.007,0.0718,0.0416,3183,2019-08-07 16:24:28:415
5.5678,-7.8624,1.9059,-0.8139,-0.391,-0.051,0.007,0.0718,0.0416,3188,2019-08-07 16:24:28:420
5.3765,-7.7669,1.9624,-0.4744,-0.5401,-0.1459,0.0016,0.0526,0.0352,3193,2019-08-07 16:24:28:425
5.3765,-7.7669,1.9624,-0.4744,-0.5401,-0.1459,0.0016,0.0526,0.0352,3197,2019-08-07 16:24:28:429
5.3765,-7.7669,1.9624,-0.4744,-0.5401,-0.1459,-5.0E-4,0.0132,0.0224,3203,2019-08-07 16:24:28:435
5.3095,-7.7478,2.0567,-0.4744,-0.5401,-0.1459,-5.0E-4,0.0132,0.0224,3209,2019-08-07 16:24:28:441
5.3095,-7.7478,2.0567,-0.3932,-0.5107,-0.1708,-5.0E-4,-0.0358,0.0107,3213,2019-08-07 16:24:28:445
5.2999,-7.7764,1.9294,-0.3932,-0.5107,-0.1708,-5.0E-4,-0.0358,0.0107,3218,2019-08-07 16:24:28:450
5.2999,-7.7764,1.9294,-0.3932,-0.5107,-0.1708,-5.0E-4,-0.0358,0.0107,3223,2019-08-07 16:24:28:455
5.2999,-7.7764,1.9294,-0.3932,-0.5107,-0.1708,0.0016,-0.0752,0.0011,3228,2019-08-07 16:24:28:460
5.4817,-7.7764,1.9389,-0.6166,-0.5368,-0.1433,0.0016,-0.0752,0.0011,3233,2019-08-07 16:24:28:465
5.4817,-7.7764,1.9389,-0.6166,-0.5368,-0.1433,0.008,-0.1146,-0.0148,3237,2019-08-07 16:24:28:469
5.4817,-7.7764,1.9389,-0.6166,-0.5368,-0.1433,0.008,-0.1146,-0.0148,3243,2019-08-07 16:24:28:475
5.6683,-7.6905,1.7692,-0.6166,-0.5368,-0.1433,0.0187,-0.1071,-0.0202,3248,2019-08-07 16:24:28:480
5.6683,-7.6905,1.7692,-0.6166,-0.5368,-0.1433,0.0187,-0.1071,-0.0202,3253,2019-08-07 16:24:28:485
5.8406,-7.7096,1.8022,-0.8565,-0.6116,-0.0568,0.024,-0.0784,-0.0287,3259,2019-08-07 16:24:28:491
5.8406,-7.7096,1.8022,-0.8565,-0.6116,-0.0568,0.024,-0.0784,-0.0287,3263,2019-08-07 16:24:28:495
5.8406,-7.7096,1.8022,-0.8565,-0.6116,-0.0568,0.024,-0.0784,-0.0287,3268,2019-08-07 16:24:28:500
5.7544,-7.6523,1.7503,-0.7647,-0.5885,-0.0535,0.0251,-0.0123,-0.0489,3274,2019-08-07 16:24:28:506
5.7544,-7.6523,1.7503,-0.7647,-0.5885,-0.0535,0.0251,-0.0123,-0.0489,3277,2019-08-07 16:24:28:509
5.5774,-7.6762,1.9624,-0.7647,-0.5885,-0.0535,0.0251,-0.0145,-0.0649,3283,2019-08-07 16:24:28:515
5.5774,-7.6762,1.9624,-0.7647,-0.5885,-0.0535,0.0251,-0.0145,-0.0649,3287,2019-08-07 16:24:28:519
5.5774,-7.6762,1.9624,-0.7647,-0.5885,-0.0535,0.0165,-0.0368,-0.0681,3293,2019-08-07 16:24:28:525
5.5583,-7.7382,1.9907,-0.5946,-0.5298,-0.1916,0.0165,-0.0368,-0.0681,3298,2019-08-07 16:24:28:530
5.5583,-7.7382,1.9907,-0.5946,-0.5298,-0.1916,0.0048,-0.0656,-0.0777,3303,2019-08-07 16:24:28:535
5.5631,-7.6953,1.9672,-0.5946,-0.5298,-0.1916,0.0048,-0.0656,-0.0777,3308,2019-08-07 16:24:28:540
5.5631,-7.6953,1.9672,-0.5946,-0.5298,-0.1916,-0.0048,-0.1103,-0.0692,3313,2019-08-07 16:24:28:545
5.5631,-7.6953,1.9672,-0.6126,-0.514,-0.2014,-0.0048,-0.1103,-0.0692,3317,2019-08-07 16:24:28:549
5.7592,-7.7239,1.9813,-0.6126,-0.514,-0.2014,-0.0037,-0.1274,-0.0585,3323,2019-08-07 16:24:28:555
5.7592,-7.7239,1.9813,-0.6126,-0.514,-0.2014,-0.0037,-0.1274,-0.0585,3329,2019-08-07 16:24:28:561
5.8501,-7.7812,1.854,-0.6126,-0.514,-0.2014,-0.0037,-0.1125,-0.0553,3332,2019-08-07 16:24:28:564
5.8501,-7.7812,1.854,-0.86,-0.4039,-0.105,-0.0037,-0.1125,-0.0553,3338,2019-08-07 16:24:28:570
5.8501,-7.7812,1.854,-0.86,-0.4039,-0.105,-0.0133,-0.0645,-0.0457,3343,2019-08-07 16:24:28:575
5.8406,-7.9101,1.8163,-0.86,-0.4039,-0.105,-0.0133,-0.0645,-0.0457,3348,2019-08-07 16:24:28:580
5.8406,-7.9101,1.8163,-0.86,-0.4039,-0.105,-0.0218,-0.0166,-0.0425,3352,2019-08-07 16:24:28:584
5.7784,-7.9531,1.9153,-0.782,-0.2958,-0.0708,-0.0218,-0.0166,-0.0425,3358,2019-08-07 16:24:28:590
5.7784,-7.9531,1.9153,-0.782,-0.2958,-0.0708,-0.0293,0.0026,-0.0436,3363,2019-08-07 16:24:28:595
5.7784,-7.9531,1.9153,-0.782,-0.2958,-0.0708,-0.0293,0.0026,-0.0436,3368,2019-08-07 16:24:28:600
5.6444,-7.9769,1.9624,-0.782,-0.2958,-0.0708,-0.0346,0.0058,-0.0415,3373,2019-08-07 16:24:28:605
5.6444,-7.9769,1.9624,-0.5646,-0.2178,-0.3003,-0.0346,0.0058,-0.0415,3378,2019-08-07 16:24:28:610
5.5774,-8.0294,1.9294,-0.5646,-0.2178,-0.3003,-0.0346,0.0058,-0.0415,3383,2019-08-07 16:24:28:615
5.5774,-8.0294,1.9294,-0.5646,-0.2178,-0.3003,-0.0452,-0.0134,-0.0383,3388,2019-08-07 16:24:28:620
5.5774,-8.0294,1.9294,-0.5646,-0.2178,-0.3003,-0.0452,-0.0134,-0.0383,3392,2019-08-07 16:24:28:624
5.6349,-7.9913,2.0096,-0.573,-0.3033,-0.2737,-0.0431,-0.0304,-0.0415,3398,2019-08-07 16:24:28:630
5.6349,-7.9913,2.0096,-0.573,-0.3033,-0.2737,-0.0431,-0.0304,-0.0415,3403,2019-08-07 16:24:28:635
5.7114,-7.9626,1.9247,-0.573,-0.3033,-0.2737,-0.041,-0.0496,-0.033,3408,2019-08-07 16:24:28:640
5.7114,-7.9626,1.9247,-0.573,-0.3033,-0.2737,-0.041,-0.0496,-0.033,3413,2019-08-07 16:24:28:645
5.7114,-7.9626,1.9247,-1.1059,-0.2501,-0.1755,-0.0335,-0.0209,-0.0351,3417,2019-08-07 16:24:28:649
6.4051,-7.996,1.9012,-1.1059,-0.2501,-0.1755,-0.0335,-0.0209,-0.0351,3423,2019-08-07 16:24:28:655
6.4051,-7.996,1.9012,-1.1059,-0.2501,-0.1755,-0.0207,0.0377,-0.0969,3428,2019-08-07 16:24:28:660
5.8693,-7.7239,1.5241,-1.1059,-0.2501,-0.1755,-0.0207,0.0377,-0.0969,3433,2019-08-07 16:24:28:665
5.8693,-7.7239,1.5241,-0.4313,-0.5965,-0.0025,-0.0463,0.1048,-0.0798,3438,2019-08-07 16:24:28:670
5.5822,-7.7908,2.1463,-0.4313,-0.5965,-0.0025,-0.0463,0.1048,-0.0798,3443,2019-08-07 16:24:28:675
5.5822,-7.7908,2.1463,-0.4313,-0.5965,-0.0025,-0.0495,0.0676,-0.0148,3448,2019-08-07 16:24:28:680
5.5822,-7.7908,2.1463,-0.4313,-0.5965,-0.0025,-0.0495,0.0676,-0.0148,3453,2019-08-07 16:24:28:685
5.7018,-7.9578,2.2123,-0.6208,-0.248,-0.4565,-0.0495,0.0676,-0.0148,3458,2019-08-07 16:24:28:690
5.7018,-7.9578,2.2123,-0.6208,-0.248,-0.4565,0.0027,0.0473,0.0139,3463,2019-08-07 16:24:28:695
5.7018,-7.9578,2.2123,-0.6208,-0.248,-0.4565,0.0027,0.0473,0.0139,3468,2019-08-07 16:24:28:700
5.9076,-7.9722,1.7456,-0.6208,-0.248,-0.4565,0.0229,-0.0134,0.0203,3473,2019-08-07 16:24:28:705
5.9076,-7.9722,1.7456,-0.806,-0.2844,-0.0795,0.0229,-0.0134,0.0203,3477,2019-08-07 16:24:28:709
5.9076,-7.9722,1.7456,-0.806,-0.2844,-0.0795,0.0293,0.0079,-0.001,3483,2019-08-07 16:24:28:715
5.8645,-7.8051,1.9106,-0.806,-0.2844,-0.0795,0.0293,0.0079,-0.001,3487,2019-08-07 16:24:28:719
5.8645,-7.8051,1.9106,-0.806,-0.2844,-0.0795,0.0251,0.0271,-0.0095,3493,2019-08-07 16:24:28:725
5.9076,-7.7287,1.9106,-0.8192,-0.4701,-0.1432,0.0251,0.0271,-0.0095,3498,2019-08-07 16:24:28:730
5.9076,-7.7287,1.9106,-0.8192,-0.4701,-0.1432,0.0251,0.0271,-0.0095,3502,2019-08-07 16:24:28:734
5.9076,-7.7287,1.9106,-0.8192,-0.4701,-0.1432,0.0219,0.0686,-0.018,3508,2019-08-07 16:24:28:740
5.7784,-7.8146,1.9106,-0.8192,-0.4701,-0.1432,0.0219,0.0686,-0.018,3513,2019-08-07 16:24:28:745
5.7784,-7.8146,1.9106,-0.5878,-0.4682,-0.1876,0.024,0.0835,-0.0266,3518,2019-08-07 16:24:28:750
5.7784,-7.8146,1.9106,-0.5878,-0.4682,-0.1876,0.024,0.0835,-0.0266,3522,2019-08-07 16:24:28:754
5.7162,-7.7239,1.9719,-0.5878,-0.4682,-0.1876,0.024,0.0686,-0.0191,3528,2019-08-07 16:24:28:760
5.7162,-7.7239,1.9719,-0.5878,-0.4682,-0.1876,0.024,0.0686,-0.0191,3532,2019-08-07 16:24:28:764
5.6971,-7.7239,1.9295,-0.5963,-0.4618,-0.1372,0.0251,0.0516,-0.0191,3538,2019-08-07 16:24:28:770
5.6971,-7.7239,1.9295,-0.5963,-0.4618,-0.1372,0.0251,0.0516,-0.0191,3543,2019-08-07 16:24:28:775
5.6971,-7.7239,1.9295,-0.5963,-0.4618,-0.1372,0.0144,0.0399,-0.0148,3548,2019-08-07 16:24:28:780
5.7405,-7.681,1.906,-0.5963,-0.4618,-0.1372,0.0144,0.0399,-0.0148,3552,2019-08-07 16:24:28:784
5.7405,-7.681,1.906,-0.7288,-0.5565,-0.1589,-0.0016,0.0228,-0.0074,3558,2019-08-07 16:24:28:790
5.8266,-7.6667,1.8824,-0.7288,-0.5565,-0.1589,-0.0016,0.0228,-0.0074,3563,2019-08-07 16:24:28:795
5.8266,-7.6667,1.8824,-0.7288,-0.5565,-0.1589,-0.008,0.0292,-0.0052,3568,2019-08-07 16:24:28:800
5.8266,-7.6667,1.8824,-0.7288,-0.5565,-0.1589,-0.008,0.0292,-0.0052,3572,2019-08-07 16:24:28:804
5.7931,-7.7096,1.9342,-0.6661,-0.4285,-0.067,-0.0218,0.0526,-0.0052,3578,2019-08-07 16:24:28:810
5.7931,-7.7096,1.9342,-0.6661,-0.4285,-0.067,-0.0218,0.0526,-0.0052,3582,2019-08-07 16:24:28:814
5.7022,-7.7335,1.8494,-0.6661,-0.4285,-0.067,-0.0239,0.0622,-0.0063,3588,2019-08-07 16:24:28:820
5.7022,-7.7335,1.8494,-0.6661,-0.4285,-0.067,-0.0239,0.0622,-0.0063,3592,2019-08-07 16:24:28:824
5.7022,-7.7335,1.8494,-0.5424,-0.4348,-0.1439,-0.0186,0.0526,-0.0106,3598,2019-08-07 16:24:28:830
5.597,-7.7526,1.9672,-0.5424,-0.4348,-0.1439,-0.0186,0.0526,-0.0106,3602,2019-08-07 16:24:28:834
5.597,-7.7526,1.9672,-0.5424,-0.4348,-0.1439,-0.0186,0.0526,-0.0106,3608,2019-08-07 16:24:28:840
5.5826,-7.7144,1.8305,-0.5424,-0.4348,-0.1439,-0.0058,0.0313,-0.017,3613,2019-08-07 16:24:28:845
5.5826,-7.7144,1.8305,-0.5508,-0.4971,-0.0697,-0.0058,0.0313,-0.017,3618,2019-08-07 16:24:28:850
5.5826,-7.7144,1.8305,-0.5508,-0.4971,-0.0697,-0.0058,0.0164,-0.0298,3622,2019-08-07 16:24:28:854
5.6975,-7.724,1.8541,-0.5508,-0.4971,-0.0697,-0.0058,0.0164,-0.0298,3628,2019-08-07 16:24:28:860
5.6975,-7.724,1.8541,-0.5508,-0.4971,-0.0697,-0.0069,0.009,-0.0351,3632,2019-08-07 16:24:28:864
5.6975,-7.724,1.8541,-0.5508,-0.4971,-0.0697,-0.0069,0.009,-0.0351,3638,2019-08-07 16:24:28:870
5.7501,-7.7526,1.8541,-0.617,-0.4093,-0.0455,-0.0048,0.0367,-0.0383,3643,2019-08-07 16:24:28:875
5.7501,-7.7526,1.8541,-0.617,-0.4093,-0.0455,-0.0048,0.0367,-0.0383,3647,2019-08-07 16:24:28:879
5.7022,-7.7812,1.873,-0.617,-0.4093,-0.0455,0.0038,0.0654,-0.0393,3653,2019-08-07 16:24:28:885
5.7022,-7.7812,1.873,-0.617,-0.4093,-0.0455,0.0038,0.0654,-0.0393,3658,2019-08-07 16:24:28:890
5.7022,-7.7812,1.873,-0.5026,-0.3735,-0.1996,0.008,0.058,-0.0447,3663,2019-08-07 16:24:28:895
5.6257,-7.7956,2.0191,-0.5026,-0.3735,-0.1996,0.008,0.058,-0.0447,3668,2019-08-07 16:24:28:900
5.6257,-7.7956,2.0191,-0.5026,-0.3735,-0.1996,0.008,0.058,-0.0447,3673,2019-08-07 16:24:28:905
5.6975,-7.7096,1.8918,-0.5026,-0.3735,-0.1996,0.0038,0.0164,-0.0564,3677,2019-08-07 16:24:28:909
5.6975,-7.7096,1.8918,-0.5056,-0.3792,-0.0942,0.0038,0.0164,-0.0564,3683,2019-08-07 16:24:28:915
5.6975,-7.7096,1.8918,-0.5056,-0.3792,-0.0942,-0.009,-0.0102,-0.0713,3687,2019-08-07 16:24:28:919
5.7549,-7.7431,1.9861,-0.5056,-0.3792,-0.0942,-0.009,-0.0102,-0.0713,3693,2019-08-07 16:24:28:925
5.7549,-7.7431,1.9861,-0.5056,-0.3792,-0.0942,-0.0112,-0.0241,-0.0692,3698,2019-08-07 16:24:28:930
5.7549,-7.7431,1.9861,-0.6516,-0.3929,-0.1053,-0.0112,-0.0241,-0.0692,3702,2019-08-07 16:24:28:934
5.8171,-7.7001,1.774,-0.6516,-0.3929,-0.1053,-0.0271,-0.0901,-0.0521,3708,2019-08-07 16:24:28:940
5.8171,-7.7001,1.774,-0.6516,-0.3929,-0.1053,-0.0271,-0.0901,-0.0521,3713,2019-08-07 16:24:28:945
5.8602,-7.7669,2.0332,-0.6516,-0.3929,-0.1053,-0.0207,-0.0869,-0.0372,3718,2019-08-07 16:24:28:950
5.8602,-7.7669,2.0332,-0.7598,-0.3707,-0.2484,-0.0207,-0.0869,-0.0372,3723,2019-08-07 16:24:28:955
5.8602,-7.7669,2.0332,-0.7598,-0.3707,-0.2484,0.008,-0.0826,-0.0361,3728,2019-08-07 16:24:28:960
5.8937,-7.724,1.8918,-0.7598,-0.3707,-0.2484,0.008,-0.0826,-0.0361,3732,2019-08-07 16:24:28:964
5.8937,-7.724,1.8918,-0.7598,-0.3707,-0.2484,0.0144,-0.0848,-0.0234,3738,2019-08-07 16:24:28:970
5.9941,-7.6619,1.7881,-0.7744,-0.4255,0.0458,0.0144,-0.0848,-0.0234,3743,2019-08-07 16:24:28:975
5.9941,-7.6619,1.7881,-0.7744,-0.4255,0.0458,0.0059,-0.0549,-0.0148,3748,2019-08-07 16:24:28:980
5.9941,-7.6619,1.7881,-0.7744,-0.4255,0.0458,0.0059,-0.0549,-0.0148,3753,2019-08-07 16:24:28:985
6.0037,-7.6333,1.8353,-0.7744,-0.4255,0.0458,-0.009,-0.0326,-0.0191,3758,2019-08-07 16:24:28:990
6.0037,-7.6333,1.8353,-0.7968,-0.4481,-0.03,-0.009,-0.0326,-0.0191,3763,2019-08-07 16:24:28:995
6.0468,-7.6237,1.8636,-0.7968,-0.4481,-0.03,-0.009,-0.0326,-0.0191,3767,2019-08-07 16:24:28:999
6.0468,-7.6237,1.8636,-0.7968,-0.4481,-0.03,6.0E-4,0.0377,-0.0329,3773,2019-08-07 16:24:29:005
6.0468,-7.6237,1.8636,-0.7968,-0.4481,-0.03,6.0E-4,0.0377,-0.0329,3777,2019-08-07 16:24:29:009
6.1999,-7.6905,2.0804,-1.0833,-0.3544,-0.3072,0.0442,0.1901,-0.0329,3783,2019-08-07 16:24:29:015
6.1999,-7.6905,2.0804,-1.0833,-0.3544,-0.3072,0.0442,0.1901,-0.0329,3787,2019-08-07 16:24:29:019
6.5396,-8.0677,1.6326,-1.0833,-0.3544,-0.3072,0.0847,0.3456,-0.0287,3793,2019-08-07 16:24:29:025
6.5396,-8.0677,1.6326,-1.0833,-0.3544,-0.3072,0.0847,0.3456,-0.0287,3798,2019-08-07 16:24:29:030
6.5396,-8.0677,1.6326,-0.9962,-0.3488,0.1083,0.0336,0.3605,-0.0457,3803,2019-08-07 16:24:29:035
5.8267,-7.4996,1.9484,-0.9962,-0.3488,0.1083,0.0336,0.3605,-0.0457,3808,2019-08-07 16:24:29:040
5.8267,-7.4996,1.9484,-0.303,-0.7404,-0.4073,0.0336,0.3605,-0.0457,3813,2019-08-07 16:24:29:045
5.8267,-7.4996,1.9484,-0.303,-0.7404,-0.4073,6.0E-4,0.3573,-0.0372,3818,2019-08-07 16:24:29:050
5.3148,-7.2943,2.5094,-0.303,-0.7404,-0.4073,6.0E-4,0.3573,-0.0372,3822,2019-08-07 16:24:29:054
5.3148,-7.2943,2.5094,-0.303,-0.7404,-0.4073,-0.0186,0.1986,-0.001,3828,2019-08-07 16:24:29:060
4.9656,-7.4232,2.4716,0.2513,-0.6654,-0.5755,-0.0186,0.1986,-0.001,3833,2019-08-07 16:24:29:065
4.9656,-7.4232,2.4716,0.2513,-0.6654,-0.5755,-0.074,-0.0219,0.0384,3838,2019-08-07 16:24:29:070