ACCELEROMETER X (m/s²),ACCELEROMETER Y (m/s²),ACCELEROMETER Z (m/s²),LINEAR ACCELERATION X (m/s²),LINEAR ACCELERATION Y (m/s²),LINEAR ACCELERATION Z (m/s²),GYROSCOPE X (rad/s),GYROSCOPE Y (rad/s),GYROSCOPE Z (rad/s),Time since start in ms ,YYYY-MO-DD HH-MI-SS_SSS
4.2176,-8.3969,2.9097,-0.315,-0.1828,-0.1343,0.008,-0.0219,-0.0106,4,2019-08-07 16:23:36:342
4.2176,-8.3969,2.9097,-0.315,-0.1828,-0.1343,0.008,-0.0219,-0.0106,8,2019-08-07 16:23:36:346
4.2176,-8.3969,2.9097,-0.315,-0.1828,-0.1343,0.0123,-0.0123,-0.0085,14,2019-08-07 16:23:36:352
4.2463,-8.3062,2.8861,-0.3437,-0.2182,-0.1419,0.0123,-0.0123,-0.0085,19,2019-08-07 16:23:36:357
4.2463,-8.3062,2.8861,-0.3437,-0.2182,-0.1419,0.0102,-0.0219,-0.0042,24,2019-08-07 16:23:36:362
4.2511,-8.3349,2.8955,-0.3437,-0.2182,-0.1419,0.0102,-0.0219,-0.0042,29,2019-08-07 16:23:36:367
4.2511,-8.3349,2.8955,-0.3437,-0.2182,-0.1419,0.0059,-0.0347,0.0075,34,2019-08-07 16:23:36:372
4.2511,-8.3349,2.8955,-0.3971,-0.2258,-0.1509,0.0059,-0.0347,0.0075,39,2019-08-07 16:23:36:377
4.3515,-8.3301,2.9238,-0.3971,-0.2258,-0.1509,0.0059,-0.0315,0.0086,43,2019-08-07 16:23:36:381
4.3515,-8.3301,2.9238,-0.3971,-0.2258,-0.1509,0.0059,-0.0315,0.0086,49,2019-08-07 16:23:36:387
4.3515,-8.3301,2.9238,-0.4434,-0.2442,-0.1511,0.0027,-0.0081,0.0075,53,2019-08-07 16:23:36:391
4.385,-8.3301,2.839,-0.4434,-0.2442,-0.1511,0.0027,-0.0081,0.0075,59,2019-08-07 16:23:36:397
4.385,-8.3301,2.839,-0.4708,-0.253,-0.1458,-0.0016,0.01,0.0065,63,2019-08-07 16:23:36:401
4.2941,-8.2632,2.8343,-0.4708,-0.253,-0.1458,-0.0016,0.01,0.0065,69,2019-08-07 16:23:36:407
4.2941,-8.2632,2.8343,-0.4708,-0.253,-0.1458,-5.0E-4,0.0271,0.0075,73,2019-08-07 16:23:36:411
4.2941,-8.2632,2.8343,-0.4708,-0.253,-0.1458,-5.0E-4,0.0271,0.0075,79,2019-08-07 16:23:36:417
4.2702,-8.311,2.8908,-0.3366,-0.2425,-0.1338,-0.0048,0.0324,0.0075,83,2019-08-07 16:23:36:421
4.2702,-8.311,2.8908,-0.3366,-0.2425,-0.1338,-0.0048,0.0324,0.0075,89,2019-08-07 16:23:36:427
4.2702,-8.311,2.8908,-0.3366,-0.2425,-0.1338,-0.0048,0.0324,0.0075,94,2019-08-07 16:23:36:432
4.1937,-8.3492,2.9144,-0.3366,-0.2425,-0.1338,-0.0122,0.025,0.0022,98,2019-08-07 16:23:36:436
4.1937,-8.3492,2.9144,-0.2312,-0.1846,-0.1323,-0.0122,0.025,0.0022,104,2019-08-07 16:23:36:442
4.2032,-8.3826,2.8861,-0.2312,-0.1846,-0.1323,-0.0218,0.009,-0.0085,108,2019-08-07 16:23:36:446
4.2032,-8.3826,2.8861,-0.2539,-0.1796,-0.1568,-0.0218,0.009,-0.0085,114,2019-08-07 16:23:36:452
4.2032,-8.3826,2.8861,-0.2539,-0.1796,-0.1568,-0.0207,0.0026,-0.0117,119,2019-08-07 16:23:36:457
4.1889,-8.3683,2.8248,-0.2539,-0.1796,-0.1568,-0.0207,0.0026,-0.0117,124,2019-08-07 16:23:36:462
4.1889,-8.3683,2.8248,-0.2539,-0.1796,-0.1568,-0.0122,-0.0027,-0.0127,129,2019-08-07 16:23:36:467
4.1841,-8.3874,2.8343,-0.2449,-0.164,-0.022,-0.0122,-0.0027,-0.0127,133,2019-08-07 16:23:36:471
4.1841,-8.3874,2.8343,-0.2449,-0.164,-0.022,-0.0122,-0.0027,-0.0127,139,2019-08-07 16:23:36:477
4.1841,-8.3874,2.8343,-0.2449,-0.164,-0.022,-0.0069,0.0036,-0.018,143,2019-08-07 16:23:36:481
4.2319,-8.3587,2.773,-0.2449,-0.164,-0.022,-0.0069,0.0036,-0.018,149,2019-08-07 16:23:36:487
4.2319,-8.3587,2.773,-0.3069,-0.2048,-0.0179,-0.0016,0.0047,-0.0202,153,2019-08-07 16:23:36:491
4.2559,-8.311,2.7966,-0.3069,-0.2048,-0.0179,-0.0016,0.0047,-0.0202,159,2019-08-07 16:23:36:497
4.2559,-8.311,2.7966,-0.3069,-0.2048,-0.0179,0.008,0.0058,-0.0191,164,2019-08-07 16:23:36:502
4.2559,-8.311,2.7966,-0.3069,-0.2048,-0.0179,0.008,0.0058,-0.0191,169,2019-08-07 16:23:36:507
4.2989,-8.3014,2.8013,-0.3489,-0.2444,-0.0442,0.008,0.0186,-0.0148,174,2019-08-07 16:23:36:512
4.2989,-8.3014,2.8013,-0.3489,-0.2444,-0.0442,0.008,0.0186,-0.0148,180,2019-08-07 16:23:36:518
4.3037,-8.2632,2.8578,-0.3489,-0.2444,-0.0442,0.0038,0.0292,-0.0085,184,2019-08-07 16:23:36:522
4.3037,-8.2632,2.8578,-0.3489,-0.2444,-0.0442,0.0038,0.0292,-0.0085,189,2019-08-07 16:23:36:527
4.3037,-8.2632,2.8578,-0.2879,-0.3036,-0.0357,0.0038,0.0292,-0.0085,194,2019-08-07 16:23:36:532
4.2654,-8.2251,2.7918,-0.2879,-0.3036,-0.0357,-0.0037,0.026,-0.0074,199,2019-08-07 16:23:36:537
4.2654,-8.2251,2.7918,-0.2879,-0.3036,-0.0357,-0.0037,0.026,-0.0074,204,2019-08-07 16:23:36:542
4.2224,-8.354,2.8437,-0.2879,-0.3036,-0.0357,-0.0197,0.0228,1.0E-4,209,2019-08-07 16:23:36:547
4.2224,-8.354,2.8437,-0.2719,-0.2072,-0.0399,-0.0197,0.0228,1.0E-4,214,2019-08-07 16:23:36:552
4.2224,-8.354,2.8437,-0.2719,-0.2072,-0.0399,-0.0261,0.0164,0.0011,218,2019-08-07 16:23:36:556
4.2128,-8.4399,2.8296,-0.2719,-0.2072,-0.0399,-0.0261,0.0164,0.0011,224,2019-08-07 16:23:36:562
4.2128,-8.4399,2.8296,-0.2719,-0.2072,-0.0399,-0.0293,0.0068,-0.0042,229,2019-08-07 16:23:36:567
4.1793,-8.4399,2.7918,-0.2703,-0.1645,-0.0289,-0.0293,0.0068,-0.0042,234,2019-08-07 16:23:36:572
4.1793,-8.4399,2.7918,-0.2703,-0.1645,-0.0289,-0.0293,0.0068,-0.0042,239,2019-08-07 16:23:36:577
4.1793,-8.4399,2.7918,-0.2703,-0.1645,-0.0289,-0.0271,-0.0081,1.0E-4,244,2019-08-07 16:23:36:582
4.2798,-8.4351,2.7588,-0.2703,-0.1645,-0.0289,-0.0175,-6.0E-4,-0.001,249,2019-08-07 16:23:36:587
4.2798,-8.4351,2.7588,-0.2439,-0.0599,-0.0383,-0.0175,-6.0E-4,-0.001,254,2019-08-07 16:23:36:592
4.2798,-8.4351,2.7588,-0.2439,-0.0599,-0.0383,-0.0175,-6.0E-4,-0.001,259,2019-08-07 16:23:36:597
4.232,-8.4828,2.7353,-0.2439,-0.0599,-0.0383,-0.0143,0.0068,-0.0031,264,2019-08-07 16:23:36:602
4.232,-8.4828,2.7353,-0.2439,-0.0599,-0.0383,-0.0143,0.0068,-0.0031,269,2019-08-07 16:23:36:607
4.232,-8.4828,2.7353,-0.2751,-0.15,-0.0115,-0.0069,0.0068,-0.0031,273,2019-08-07 16:23:36:611
4.2224,-8.3635,2.7777,-0.2751,-0.15,-0.0115,-0.0069,0.0068,-0.0031,279,2019-08-07 16:23:36:617
4.2224,-8.3635,2.7777,-0.2751,-0.15,-0.0115,-0.0037,0.01,-0.0021,285,2019-08-07 16:23:36:623
4.1889,-8.3444,2.8437,-0.2751,-0.15,-0.0115,-0.0037,0.01,-0.0021,289,2019-08-07 16:23:36:627
4.1889,-8.3444,2.8437,-0.2751,-0.15,-0.0115,-0.0037,0.01,-0.0021,293,2019-08-07 16:23:36:631
4.1889,-8.3444,2.8437,-0.2206,-0.1965,-0.1661,6.0E-4,0.0132,-0.0021,299,2019-08-07 16:23:36:637
4.1793,-8.3205,2.9003,-0.2206,-0.1965,-0.1661,6.0E-4,0.0132,-0.0021,304,2019-08-07 16:23:36:642
4.1793,-8.3205,2.9003,-0.2206,-0.1965,-0.1661,6.0E-4,-0.0123,-0.0031,309,2019-08-07 16:23:36:647
4.2798,-8.3062,2.8955,-0.3137,-0.2333,-0.1418,6.0E-4,-0.0123,-0.0031,315,2019-08-07 16:23:36:653
4.2798,-8.3062,2.8955,-0.3137,-0.2333,-0.1418,-0.0048,-0.0155,-0.0031,318,2019-08-07 16:23:36:656
4.2798,-8.3062,2.8955,-0.3137,-0.2333,-0.1418,-0.0048,-0.0155,-0.0031,323,2019-08-07 16:23:36:661
4.2894,-8.3492,2.8531,-0.3137,-0.2333,-0.1418,-0.0048,-0.0102,-0.001,329,2019-08-07 16:23:36:667
4.2894,-8.3492,2.8531,-0.3294,-0.1699,-0.0721,-0.0048,-0.0102,-0.001,334,2019-08-07 16:23:36:672
4.2894,-8.3492,2.8531,-0.3294,-0.1699,-0.0721,-0.0016,0.0058,1.0E-4,339,2019-08-07 16:23:36:677
4.3277,-8.3587,2.8248,-0.3294,-0.1699,-0.0721,-0.0016,0.0058,1.0E-4,344,2019-08-07 16:23:36:682
4.3277,-8.3587,2.8248,-0.352,-0.1931,-0.0953,-5.0E-4,0.0196,0.0033,349,2019-08-07 16:23:36:687
4.2463,-8.3969,2.7683,-0.352,-0.1931,-0.0953,-5.0E-4,0.0196,0.0033,355,2019-08-07 16:23:36:693
4.2463,-8.3969,2.7683,-0.352,-0.1931,-0.0953,-5.0E-4,0.0196,0.0033,360,2019-08-07 16:23:36:698
4.2463,-8.3969,2.7683,-0.2938,-0.1397,-0.0889,-0.0048,0.0303,0.0022,363,2019-08-07 16:23:36:701
4.2463,-8.4065,2.8626,-0.2938,-0.1397,-0.0889,-0.0048,0.0303,0.0022,369,2019-08-07 16:23:36:707
4.2463,-8.4065,2.8626,-0.2938,-0.1397,-0.0889,-0.0026,0.0377,-0.0042,373,2019-08-07 16:23:36:711
4.165,-8.3969,2.905,-0.2938,-0.1397,-0.0889,-0.0026,0.0377,-0.0042,379,2019-08-07 16:23:36:717
4.165,-8.3969,2.905,-0.1741,-0.1909,-0.071,0.0027,0.0335,-0.0074,384,2019-08-07 16:23:36:722
4.165,-8.3969,2.905,-0.1741,-0.1909,-0.071,0.0027,0.0335,-0.0074,389,2019-08-07 16:23:36:727
4.0837,-8.3778,2.8154,-0.1741,-0.1909,-0.071,0.0027,0.0335,-0.0074,394,2019-08-07 16:23:36:732
4.0837,-8.3778,2.8154,-0.1741,-0.1909,-0.071,-0.0069,0.026,-0.0117,398,2019-08-07 16:23:36:736
4.1545,-8.3014,2.8624,-0.1809,-0.2324,-0.1015,-0.0069,0.026,-0.0117,404,2019-08-07 16:23:36:742
4.1545,-8.3014,2.8624,-0.1809,-0.2324,-0.1015,-0.0154,0.0143,-0.0149,408,2019-08-07 16:23:36:746
4.1545,-8.3014,2.8624,-0.1809,-0.2324,-0.1015,-0.0154,0.0143,-0.0149,414,2019-08-07 16:23:36:752
4.1976,-8.2775,2.8718,-0.1809,-0.2324,-0.1015,-0.0175,-0.0017,-0.0138,419,2019-08-07 16:23:36:757
4.1976,-8.2775,2.8718,-0.1809,-0.2324,-0.1015,-0.0175,-0.0017,-0.0138,423,2019-08-07 16:23:36:761
4.3124,-8.3013,2.8388,-0.3104,-0.2069,-0.0368,-0.0207,-0.0134,-0.0095,429,2019-08-07 16:23:36:767
4.3124,-8.3013,2.8388,-0.3104,-0.2069,-0.0368,-0.0207,-0.0134,-0.0095,434,2019-08-07 16:23:36:772
4.3124,-8.3013,2.8388,-0.3104,-0.2069,-0.0368,-0.0207,-0.0134,-0.0095,439,2019-08-07 16:23:36:777
4.3124,-8.3013,2.8388,-0.3104,-0.2069,-0.0368,-0.0186,-0.0113,-0.0085,444,2019-08-07 16:23:36:782
4.3124,-8.3061,2.8105,-0.3481,-0.2295,-0.0596,-0.0186,-0.0113,-0.0085,449,2019-08-07 16:23:36:787
4.3124,-8.3061,2.8105,-0.3481,-0.2295,-0.0596,-0.0111,-0.0017,-0.001,453,2019-08-07 16:23:36:791
4.3411,-8.3682,2.7115,-0.3481,-0.2295,-0.0596,-0.0111,-0.0017,-0.001,459,2019-08-07 16:23:36:797
4.3411,-8.3682,2.7115,-0.3481,-0.2295,-0.0596,-0.0069,0.025,-0.0021,464,2019-08-07 16:23:36:802
4.3411,-8.3682,2.7115,-0.288,-0.1283,0.0478,-0.0069,0.025,-0.0021,469,2019-08-07 16:23:36:807
4.2406,-8.3825,2.7539,-0.288,-0.1283,0.0478,-0.0058,0.0463,-0.0021,474,2019-08-07 16:23:36:812
4.2406,-8.3825,2.7539,-0.1446,-0.1376,0.0064,-0.0058,0.0463,-0.0021,479,2019-08-07 16:23:36:817
4.1066,-8.4111,2.8152,-0.1446,-0.1376,0.0064,-0.0026,0.0505,-0.0042,483,2019-08-07 16:23:36:821
4.1066,-8.4111,2.8152,-0.1446,-0.1376,0.0064,-0.0026,0.0505,-0.0042,489,2019-08-07 16:23:36:827
4.1066,-8.4111,2.8152,-0.1446,-0.1376,0.0064,-0.0026,0.0505,-0.0042,494,2019-08-07 16:23:36:832
4.0348,-8.435,2.8671,-0.0161,-0.1367,-0.1122,0.0016,0.0196,-0.0074,498,2019-08-07 16:23:36:836
4.0348,-8.435,2.8671,-0.0161,-0.1367,-0.1122,0.0016,0.0196,-0.0074,504,2019-08-07 16:23:36:842
4.0827,-8.3777,2.9095,-0.0161,-0.1367,-0.1122,0.0027,-0.0145,-0.0117,509,2019-08-07 16:23:36:847
4.0827,-8.3777,2.9095,-0.0161,-0.1367,-0.1122,0.0027,-0.0145,-0.0117,513,2019-08-07 16:23:36:851
4.0827,-8.3777,2.9095,-0.123,-0.1827,-0.0785,0.0027,-0.039,-0.0138,519,2019-08-07 16:23:36:857
4.1831,-8.3109,2.7869,-0.123,-0.1827,-0.0785,0.0027,-0.039,-0.0138,524,2019-08-07 16:23:36:862
4.1831,-8.3109,2.7869,-0.2203,-0.1481,-0.0464,0.0048,-0.0304,-0.0117,529,2019-08-07 16:23:36:867
4.2597,-8.3395,2.8199,-0.2203,-0.1481,-0.0464,0.0048,-0.0304,-0.0117,534,2019-08-07 16:23:36:872
4.2597,-8.3395,2.8199,-0.2203,-0.1481,-0.0464,0.0102,-0.0187,-0.0159,539,2019-08-07 16:23:36:877
4.2597,-8.3395,2.8199,-0.2203,-0.1481,-0.0464,0.0102,-0.0187,-0.0159,544,2019-08-07 16:23:36:882
4.2931,-8.3968,2.7633,-0.2953,-0.1261,-0.0042,0.007,-0.0027,-0.0159,549,2019-08-07 16:23:36:887
4.2931,-8.3968,2.7633,-0.2953,-0.1261,-0.0042,0.007,-0.0027,-0.0159,554,2019-08-07 16:23:36:892
4.2931,-8.3968,2.7633,-0.2953,-0.1261,-0.0042,0.007,-0.0027,-0.0159,558,2019-08-07 16:23:36:896
4.2549,-8.3395,2.8576,-0.2953,-0.1261,-0.0042,0.0091,0.0132,-0.0117,564,2019-08-07 16:23:36:902
4.2549,-8.3395,2.8576,-0.2241,-0.1377,-0.1197,0.0091,0.0132,-0.0117,569,2019-08-07 16:23:36:907
4.1927,-8.4398,2.8812,-0.2241,-0.1377,-0.1197,0.0091,0.0228,-0.0074,574,2019-08-07 16:23:36:912
4.1927,-8.4398,2.8812,-0.1325,-0.1463,-0.0941,0.0091,0.0228,-0.0074,578,2019-08-07 16:23:36:916
4.1927,-8.4398,2.8812,-0.1325,-0.1463,-0.0941,0.0038,0.0154,-0.0085,584,2019-08-07 16:23:36:922
4.1017,-8.3777,2.9236,-0.1325,-0.1463,-0.0941,0.0038,0.0154,-0.0085,589,2019-08-07 16:23:36:927
4.1017,-8.3777,2.9236,-0.1325,-0.1463,-0.0941,-5.0E-4,-0.0049,-0.0053,594,2019-08-07 16:23:36:932
4.1926,-8.3443,2.9095,-0.1496,-0.178,-0.1389,-5.0E-4,-0.0049,-0.0053,599,2019-08-07 16:23:36:937
4.1926,-8.3443,2.9095,-0.1496,-0.178,-0.1389,-0.0037,-0.0208,-0.0021,603,2019-08-07 16:23:36:941
4.1926,-8.3443,2.9095,-0.1496,-0.178,-0.1389,-0.0037,-0.0208,-0.0021,609,2019-08-07 16:23:36:947
4.2165,-8.3443,2.867,-0.1496,-0.178,-0.1389,-0.008,-0.024,0.0033,614,2019-08-07 16:23:36:952
4.2165,-8.3443,2.867,-0.1946,-0.2106,-0.0511,-0.008,-0.024,0.0033,619,2019-08-07 16:23:36:957
4.2165,-8.3443,2.867,-0.1946,-0.2106,-0.0511,-0.0101,-0.0294,0.0075,624,2019-08-07 16:23:36:962
4.317,-8.3109,2.7869,-0.1946,-0.2106,-0.0511,-0.0101,-0.0294,0.0075,629,2019-08-07 16:23:36:967
4.317,-8.3109,2.7869,-0.1946,-0.2106,-0.0511,-0.0111,-0.024,0.015,633,2019-08-07 16:23:36:971
4.3026,-8.3013,2.8623,-0.2927,-0.2153,-0.1013,-0.0111,-0.024,0.015,639,2019-08-07 16:23:36:977
4.3026,-8.3013,2.8623,-0.2927,-0.2153,-0.1013,-0.009,-0.0177,0.0203,644,2019-08-07 16:23:36:982
4.3026,-8.3013,2.8623,-0.2927,-0.2153,-0.1013,-0.009,-0.0177,0.0203,650,2019-08-07 16:23:36:988
4.36,-8.2966,2.7303,-0.2927,-0.2153,-0.1013,-0.009,-0.0177,0.0203,654,2019-08-07 16:23:36:992
4.36,-8.2966,2.7303,-0.3361,-0.1736,0.0746,-0.0143,-0.0038,0.0267,659,2019-08-07 16:23:36:997
4.3409,-8.3729,2.7303,-0.3361,-0.1736,0.0746,-0.0143,-0.0038,0.0267,664,2019-08-07 16:23:37:002
4.3409,-8.3729,2.7303,-0.3361,-0.1736,0.0746,-0.0143,0.0122,0.0224,669,2019-08-07 16:23:37:007
4.3409,-8.3729,2.7303,-0.3361,-0.1736,0.0746,-0.0143,0.0122,0.0224,674,2019-08-07 16:23:37:012
4.293,-8.4302,2.7492,-0.2043,-0.1033,0.0264,-0.0122,0.0324,0.015,678,2019-08-07 16:23:37:016
4.293,-8.4302,2.7492,-0.2043,-0.1033,0.0264,-0.0122,0.0324,0.015,685,2019-08-07 16:23:37:023
4.293,-8.4302,2.7492,-0.2043,-0.1033,0.0264,-0.0058,0.0356,0.0118,689,2019-08-07 16:23:37:027
4.116,-8.3873,2.7162,-0.2043,-0.1033,0.0264,-0.0058,0.0356,0.0118,694,2019-08-07 16:23:37:032
4.116,-8.3873,2.7162,-0.1349,-0.1278,-0.0334,-0.0026,0.0292,-0.0021,699,2019-08-07 16:23:37:037
4.1399,-8.3777,2.8246,-0.1349,-0.1278,-0.0334,-0.0026,0.0292,-0.0021,704,2019-08-07 16:23:37:042
4.1399,-8.3777,2.8246,-0.1349,-0.1278,-0.0334,-0.0026,0.0292,-0.0021,708,2019-08-07 16:23:37:046
4.1399,-8.3777,2.8246,-0.0627,-0.1704,-0.0844,0.0027,0.0037,-0.0074,714,2019-08-07 16:23:37:052
4.116,-8.3634,2.8482,-0.0627,-0.1704,-0.0844,0.0027,0.0037,-0.0074,719,2019-08-07 16:23:37:057
4.116,-8.3634,2.8482,-0.0627,-0.1704,-0.0844,0.008,-0.0208,-0.0095,724,2019-08-07 16:23:37:062
4.2499,-8.33,2.8387,-0.0627,-0.1704,-0.0844,0.008,-0.0208,-0.0095,729,2019-08-07 16:23:37:067
4.2499,-8.33,2.8387,-0.2264,-0.1969,-0.1305,0.0144,-0.0315,-0.0117,734,2019-08-07 16:23:37:072
4.2499,-8.33,2.8387,-0.2264,-0.1969,-0.1305,0.0144,-0.0315,-0.0117,739,2019-08-07 16:23:37:077
4.3361,-8.2106,2.8246,-0.2264,-0.1969,-0.1305,0.0144,-0.0315,-0.0117,743,2019-08-07 16:23:37:081
4.3361,-8.2106,2.8246,-0.3108,-0.2795,-0.0307,0.0176,-0.0315,-0.0106,749,2019-08-07 16:23:37:087
4.3647,-8.2679,2.7539,-0.3108,-0.2795,-0.0307,0.0176,-0.0315,-0.0106,754,2019-08-07 16:23:37:092
4.3647,-8.2679,2.7539,-0.3108,-0.2795,-0.0307,0.0112,-0.0155,-0.0117,760,2019-08-07 16:23:37:098
4.3647,-8.2679,2.7539,-0.3031,-0.2446,-0.054,0.0112,-0.0155,-0.0117,763,2019-08-07 16:23:37:101
4.3217,-8.2822,2.8057,-0.3031,-0.2446,-0.054,-5.0E-4,-0.0027,-0.0074,769,2019-08-07 16:23:37:107
4.3217,-8.2822,2.8057,-0.3031,-0.2446,-0.054,-5.0E-4,-0.0027,-0.0074,773,2019-08-07 16:23:37:111
4.3217,-8.2822,2.8057,-0.3031,-0.2446,-0.054,-0.008,0.0058,-0.0042,779,2019-08-07 16:23:37:117
4.293,-8.4207,2.8152,-0.2711,-0.0902,-0.0537,-0.0048,0.0143,-0.0053,784,2019-08-07 16:23:37:122
4.293,-8.4207,2.8152,-0.2711,-0.0902,-0.0537,-0.0048,0.0143,-0.0053,789,2019-08-07 16:23:37:127
4.1973,-8.4159,2.8293,-0.2711,-0.0902,-0.0537,-0.0026,0.0143,-0.0095,794,2019-08-07 16:23:37:132
4.1973,-8.4159,2.8293,-0.2711,-0.0902,-0.0537,-0.0026,0.0143,-0.0095,799,2019-08-07 16:23:37:137
4.1973,-8.4159,2.8293,-0.1827,-0.0841,-0.0668,-0.0026,0.0143,-0.0095,803,2019-08-07 16:23:37:141
4.2307,-8.435,2.801,-0.1827,-0.0841,-0.0668,0.0059,0.0164,-0.0095,809,2019-08-07 16:23:37:147
4.2307,-8.435,2.801,-0.1721,-0.1357,-0.0326,0.0059,0.0164,-0.0095,814,2019-08-07 16:23:37:152
4.2307,-8.435,2.801,-0.1721,-0.1357,-0.0326,0.0134,0.0079,-0.0117,820,2019-08-07 16:23:37:158
4.1973,-8.4111,2.8859,-0.1721,-0.1357,-0.0326,0.0134,0.0079,-0.0117,824,2019-08-07 16:23:37:162
4.1973,-8.4111,2.8859,-0.1721,-0.1357,-0.0326,0.0283,-0.0038,-0.0159,829,2019-08-07 16:23:37:167
4.2738,-8.3825,2.8906,-0.2543,-0.1706,-0.1179,0.0283,-0.0038,-0.0159,834,2019-08-07 16:23:37:172
4.2738,-8.3825,2.8906,-0.2543,-0.1706,-0.1179,0.0347,-0.0187,-0.0244,839,2019-08-07 16:23:37:177
4.2738,-8.3825,2.8906,-0.2543,-0.1706,-0.1179,0.0347,-0.0187,-0.0244,844,2019-08-07 16:23:37:182
4.2881,-8.2584,2.8293,-0.2543,-0.1706,-0.1179,0.0325,-0.0123,-0.0223,849,2019-08-07 16:23:37:187
4.2881,-8.2584,2.8293,-0.3139,-0.2657,0.0193,0.0325,-0.0123,-0.0223,854,2019-08-07 16:23:37:192
4.2977,-8.2058,2.7586,-0.3139,-0.2657,0.0193,0.0165,-0.0038,-0.0202,858,2019-08-07 16:23:37:196
4.2977,-8.2058,2.7586,-0.3139,-0.2657,0.0193,0.0165,-0.0038,-0.0202,864,2019-08-07 16:23:37:202
4.2977,-8.2058,2.7586,-0.3139,-0.2657,0.0193,0.0048,5.0E-4,-0.0159,869,2019-08-07 16:23:37:207
4.2594,-8.3061,2.8387,-0.2169,-0.1903,-0.0626,0.0048,5.0E-4,-0.0159,874,2019-08-07 16:23:37:212
4.2594,-8.3061,2.8387,-0.2169,-0.1903,-0.0626,0.0038,-0.007,-0.0159,878,2019-08-07 16:23:37:216
4.2929,-8.4111,2.8246,-0.2169,-0.1903,-0.0626,0.0038,-0.007,-0.0159,884,2019-08-07 16:23:37:222
4.2929,-8.4111,2.8246,-0.2169,-0.1903,-0.0626,0.0016,0.0058,-0.0181,889,2019-08-07 16:23:37:227
4.2929,-8.4111,2.8246,-0.236,-0.0684,-0.029,0.0016,0.0058,-0.0181,894,2019-08-07 16:23:37:232
4.2881,-8.4016,2.7491,-0.236,-0.0684,-0.029,0.0059,0.009,-0.0255,899,2019-08-07 16:23:37:237
4.2881,-8.4016,2.7491,-0.236,-0.0684,-0.029,0.0059,0.009,-0.0255,903,2019-08-07 16:23:37:241
4.2881,-8.4016,2.7491,-0.236,-0.0684,-0.029,0.0059,0.009,-0.0255,909,2019-08-07 16:23:37:247
4.1924,-8.3061,2.6879,-0.1346,-0.1748,0.091,0.0155,0.0313,-0.0308,914,2019-08-07 16:23:37:252
4.1924,-8.3061,2.6879,-0.1346,-0.1748,0.091,0.0155,0.0313,-0.0308,919,2019-08-07 16:23:37:257
4.1111,-8.3156,2.702,-0.1346,-0.1748,0.091,0.024,0.0282,-0.0394,923,2019-08-07 16:23:37:261
4.1111,-8.3156,2.702,-0.1346,-0.1748,0.091,0.024,0.0282,-0.0394,929,2019-08-07 16:23:37:267
4.1111,-8.3156,2.702,-0.1809,-0.1936,-0.0442,0.0315,0.0186,-0.0468,934,2019-08-07 16:23:37:272
4.245,-8.2965,2.801,-0.1809,-0.1936,-0.0442,0.0315,0.0186,-0.0468,939,2019-08-07 16:23:37:277
4.245,-8.2965,2.801,-0.1809,-0.1936,-0.0442,0.0315,0.0186,-0.0468,943,2019-08-07 16:23:37:281
4.2928,-8.1533,2.6926,-0.1999,-0.2664,0.0113,0.041,0.009,-0.0607,950,2019-08-07 16:23:37:288
4.2928,-8.1533,2.6926,-0.1999,-0.2664,0.0113,0.041,0.009,-0.0607,953,2019-08-07 16:23:37:291
4.2928,-8.1533,2.6926,-0.1999,-0.2664,0.0113,0.0421,0.0228,-0.0809,959,2019-08-07 16:23:37:297
4.2737,-8.096,2.636,-0.1999,-0.2664,0.0113,0.0421,0.0228,-0.0809,963,2019-08-07 16:23:37:301
4.2737,-8.096,2.636,-0.2479,-0.4098,0.1323,0.0368,0.0207,-0.0905,969,2019-08-07 16:23:37:307
4.2737,-8.096,2.636,-0.2479,-0.4098,0.1323,0.0368,0.0207,-0.0905,974,2019-08-07 16:23:37:312
4.2067,-8.0626,2.6973,-0.2479,-0.4098,0.1323,0.0315,0.0218,-0.1033,979,2019-08-07 16:23:37:317
4.2067,-8.0626,2.6973,-0.1057,-0.4511,0.1447,0.0315,0.0218,-0.1033,984,2019-08-07 16:23:37:322
4.1684,-8.0435,2.6124,-0.1057,-0.4511,0.1447,0.0315,0.0218,-0.1033,989,2019-08-07 16:23:37:327
4.1684,-8.0435,2.6124,-0.1057,-0.4511,0.1447,0.0229,0.0196,-0.1299,993,2019-08-07 16:23:37:331
3.9723,-7.9862,2.4663,-0.1057,-0.4511,0.1447,0.0176,0.0345,-0.1619,1000,2019-08-07 16:23:37:338
3.9723,-7.9862,2.4663,0.2045,-0.4813,0.2908,0.0176,0.0345,-0.1619,1004,2019-08-07 16:23:37:342
3.9723,-7.9862,2.4663,0.2045,-0.4813,0.2908,0.0176,0.0345,-0.1619,1009,2019-08-07 16:23:37:347
3.6756,-7.8526,2.4616,0.2045,-0.4813,0.2908,0.0187,0.0122,-0.197,1013,2019-08-07 16:23:37:351
3.6756,-7.8526,2.4616,0.2045,-0.4813,0.2908,0.0187,0.0122,-0.197,1019,2019-08-07 16:23:37:357
3.6756,-7.8526,2.4616,0.8499,-0.6123,0.4441,0.0229,-0.0443,-0.2588,1024,2019-08-07 16:23:37:362
3.1828,-7.7523,2.4003,0.8499,-0.6123,0.4441,0.0229,-0.0443,-0.2588,1030,2019-08-07 16:23:37:368
3.1828,-7.7523,2.4003,1.3899,-0.7588,0.4616,0.0389,-0.1519,-0.3163,1035,2019-08-07 16:23:37:373
3.1828,-7.7523,2.4003,1.3899,-0.7588,0.4616,0.0389,-0.1519,-0.3163,1039,2019-08-07 16:23:37:377
2.3695,-7.5614,2.2777,1.3899,-0.7588,0.4616,0.0389,-0.1519,-0.3163,1043,2019-08-07 16:23:37:381
2.3695,-7.5614,2.2777,1.3899,-0.7588,0.4616,0.0634,-0.2925,-0.3941,1050,2019-08-07 16:23:37:388
1.7523,-7.4229,1.9383,2.4924,-0.9679,0.8568,0.0634,-0.2925,-0.3941,1054,2019-08-07 16:23:37:392
1.7523,-7.4229,1.9383,2.4924,-0.9679,0.8568,0.0911,-0.5183,-0.4878,1059,2019-08-07 16:23:37:397
1.7523,-7.4229,1.9383,2.4924,-0.9679,0.8568,0.0911,-0.5183,-0.4878,1064,2019-08-07 16:23:37:402
1.6614,-7.4038,1.4434,2.4924,-0.9679,0.8568,0.1305,-0.6515,-0.6125,1069,2019-08-07 16:23:37:407
1.6614,-7.4038,1.4434,2.6968,-0.9081,1.6241,0.1305,-0.6515,-0.6125,1074,2019-08-07 16:23:37:412
1.6614,-7.4038,1.4434,2.6968,-0.9081,1.6241,0.1305,-0.6515,-0.6125,1079,2019-08-07 16:23:37:417
1.6662,-7.4181,0.9673,2.6968,-0.9081,1.6241,0.2062,-0.6973,-0.7744,1084,2019-08-07 16:23:37:422
1.6662,-7.4181,0.9673,2.6968,-0.9081,1.6241,0.2062,-0.6973,-0.7744,1089,2019-08-07 16:23:37:427
1.6662,-7.4181,0.9673,2.6968,-0.9081,1.6241,0.2062,-0.6973,-0.7744,1094,2019-08-07 16:23:37:432
1.5514,-7.1604,0.5336,3.0612,-1.1166,2.1772,0.4,-0.4629,-1.0748,1098,2019-08-07 16:23:37:436
1.5514,-7.1604,0.5336,3.0612,-1.1166,2.1772,0.4,-0.4629,-1.0748,1104,2019-08-07 16:23:37:442
1.5514,-7.1604,0.5336,3.0612,-1.1166,2.1772,0.7676,0.1411,-1.5574,1109,2019-08-07 16:23:37:447
0.3696,-6.8119,0.1895,3.0612,-1.1166,2.1772,0.7676,0.1411,-1.5574,1113,2019-08-07 16:23:37:451
0.3696,-6.8119,0.1895,5.0063,-1.3845,2.8592,0.9508,0.6492,-1.9803,1120,2019-08-07 16:23:37:458
0.3696,-6.8119,0.1895,5.0063,-1.3845,2.8592,0.9508,0.6492,-1.9803,1123,2019-08-07 16:23:37:461
-2.1373,-6.7498,-0.6307,5.0063,-1.3845,2.8592,1.0999,1.2873,-2.5246,1129,2019-08-07 16:23:37:467
-2.1373,-6.7498,-0.6307,9.0758,-0.6708,4.2421,1.0999,1.2873,-2.5246,1134,2019-08-07 16:23:37:472
-4.6969,-7.485,-1.1256,9.0758,-0.6708,4.2421,1.0999,1.2873,-2.5246,1139,2019-08-07 16:23:37:477
-4.6969,-7.485,-1.1256,9.0758,-0.6708,4.2421,1.2469,2.0948,-3.4237,1144,2019-08-07 16:23:37:482
-4.6969,-7.485,-1.1256,11.7937,0.4292,4.9798,1.2469,2.0948,-3.4237,1150,2019-08-07 16:23:37:488
-7.4335,-8.3825,-2.1768,11.7937,0.4292,4.9798,1.3971,2.4815,-4.2184,1153,2019-08-07 16:23:37:491
-7.4335,-8.3825,-2.1768,11.7937,0.4292,4.9798,1.3971,2.4815,-4.2184,1159,2019-08-07 16:23:37:497
-10.328,-11.853,-7.1829,11.7937,0.4292,4.9798,1.3087,2.7414,-4.9353,1164,2019-08-07 16:23:37:502
-10.328,-11.853,-7.1829,16.9666,5.4659,11.7409,1.3087,2.7414,-4.9353,1169,2019-08-07 16:23:37:507
-10.328,-11.853,-7.1829,16.9666,5.4659,11.7409,1.0797,3.095,-5.4679,1174,2019-08-07 16:23:37:512
-16.0691,-16.5123,-11.8213,21.9213,9.7095,15.7848,1.0797,3.095,-5.4679,1179,2019-08-07 16:23:37:517
-16.0691,-16.5123,-11.8213,21.9213,9.7095,15.7848,1.0381,3.8812,-5.3699,1184,2019-08-07 16:23:37:522
-16.0691,-16.5123,-11.8213,21.9213,9.7095,15.7848,1.0381,3.8812,-5.3699,1189,2019-08-07 16:23:37:527
-19.0927,-24.2172,-14.1735,21.9213,9.7095,15.7848,1.0381,3.8812,-5.3699,1194,2019-08-07 16:23:37:532
-19.0927,-24.2172,-14.1735,25.2859,21.7596,17.2076,1.2927,4.7132,-5.1366,1198,2019-08-07 16:23:37:536
-18.3033,-29.0101,-8.6253,25.2859,21.7596,17.2076,1.2927,4.7132,-5.1366,1204,2019-08-07 16:23:37:542
-18.3033,-29.0101,-8.6253,25.2859,21.7596,17.2076,2.6978,5.0285,-5.2741,1208,2019-08-07 16:23:37:546
-18.3033,-29.0101,-8.6253,25.2859,21.7596,17.2076,2.6978,5.0285,-5.2741,1214,2019-08-07 16:23:37:552
-17.8153,-23.0858,-2.8698,24.0436,17.8511,8.3509,5.2555,4.7356,-5.7513,1218,2019-08-07 16:23:37:556
-17.8153,-23.0858,-2.8698,24.0436,17.8511,8.3509,5.2555,4.7356,-5.7513,1224,2019-08-07 16:23:37:562
-17.8153,-23.0858,-2.8698,24.0436,17.8511,8.3509,5.2555,4.7356,-5.7513,1228,2019-08-07 16:23:37:566
-15.9925,-19.6821,-0.4563,22.2281,15.1722,6.5403,8.5674,3.9302,-6.1753,1234,2019-08-07 16:23:37:572
-15.9925,-19.6821,-0.4563,22.2281,15.1722,6.5403,8.5674,3.9302,-6.1753,1239,2019-08-07 16:23:37:577
-10.1414,-18.9374,-5.2361,22.2281,15.1722,6.5403,12.0807,2.2034,-6.9114,1243,2019-08-07 16:23:37:581
-10.1414,-18.9374,-5.2361,14.3949,15.5844,14.3637,12.0807,2.2034,-6.9114,1249,2019-08-07 16:23:37:587
-6.5915,-15.7675,-14.791,14.3949,15.5844,14.3637,12.4407,1.4812,-7.8563,1254,2019-08-07 16:23:37:592
-6.5915,-15.7675,-14.791,14.3949,15.5844,14.3637,12.4407,1.4812,-7.8563,1258,2019-08-07 16:23:37:596
-6.5915,-15.7675,-14.791,14.3949,15.5844,14.3637,11.8069,3.1952,-8.7127,1264,2019-08-07 16:23:37:602
-6.0844,-5.7139,-21.8806,12.1082,6.2697,29.6033,11.8069,3.1952,-8.7127,1269,2019-08-07 16:23:37:607
-6.0844,-5.7139,-21.8806,12.1082,6.2697,29.6033,11.3968,6.3292,-10.2084,1274,2019-08-07 16:23:37:612
-6.7016,0.1341,-15.1304,12.118,1.9171,23.0482,11.3968,6.3292,-10.2084,1279,2019-08-07 16:23:37:617
-6.7016,0.1341,-15.1304,12.118,1.9171,23.0482,12.4322,6.7436,-10.6142,1284,2019-08-07 16:23:37:622
-6.7016,0.1341,-15.1304,12.118,1.9171,23.0482,12.4322,6.7436,-10.6142,1289,2019-08-07 16:23:37:627
-47.0567,147.5974,64.1087,12.118,1.9171,23.0482,17.081,-9.246,-5.8663,1295,2019-08-07 16:23:37:633
-47.0567,147.5974,64.1087,34.4863,-149.0704,42.9903,17.081,-9.246,-5.8663,1299,2019-08-07 16:23:37:637
-47.0567,147.5974,64.1087,34.4863,-149.0704,42.9903,11.5363,-12.8083,-4.9481,1304,2019-08-07 16:23:37:642
-4.2808,77.8518,-52.987,34.4863,-149.0704,42.9903,11.5363,-12.8083,-4.9481,1309,2019-08-07 16:23:37:647
-4.2808,77.8518,-52.987,34.4863,-149.0704,42.9903,3.0675,-15.7878,-1.8567,1314,2019-08-07 16:23:37:652
-4.2808,77.8518,-52.987,-7.9889,-55.9118,59.7148,3.0675,-15.7878,-1.8567,1319,2019-08-07 16:23:37:657
19.3199,63.0864,-53.3122,-7.9889,-55.9118,59.7148,3.0675,-15.7878,-1.8567,1323,2019-08-07 16:23:37:661
19.3199,63.0864,-53.3122,-7.9889,-55.9118,59.7148,-2.9832,-19.5493,1.435,1329,2019-08-07 16:23:37:667
43.4468,40.8404,-36.2765,-7.9889,-55.9118,59.7148,-2.9832,-19.5493,1.435,1333,2019-08-07 16:23:37:671
43.4468,40.8404,-36.2765,-45.0148,-7.399,42.7236,-2.9832,-19.5493,1.435,1339,2019-08-07 16:23:37:677
43.4468,40.8404,-36.2765,-45.0148,-7.399,42.7236,-8.2744,-1.0073,4.8396,1343,2019-08-07 16:23:37:681
61.756,-6.8835,-26.7876,-45.0148,-7.399,42.7236,-8.2744,-1.0073,4.8396,1349,2019-08-07 16:23:37:687
61.756,-6.8835,-26.7876,-45.0148,-7.399,42.7236,-8.3969,4.383,3.0339,1354,2019-08-07 16:23:37:692
36.4331,8.7174,76.9538,-29.0276,-3.4769,-73.2213,-8.3969,4.383,3.0339,1358,2019-08-07 16:23:37:696
36.4331,8.7174,76.9538,-29.0276,-3.4769,-73.2213,-4.2669,7.4541,2.8102,1364,2019-08-07 16:23:37:702
36.4331,8.7174,76.9538,-29.0276,-3.4769,-73.2213,-4.2669,7.4541,2.8102,1369,2019-08-07 16:23:37:707
-0.4104,23.2537,16.174,-29.0276,-3.4769,-73.2213,3.7407,2.1672,6.4023,1373,2019-08-07 16:23:37:711
-0.4104,23.2537,16.174,1.1499,-16.5303,9.5163,3.7407,2.1672,6.4023,1379,2019-08-07 16:23:37:717
6.6655,29.7556,16.9565,1.1499,-16.5303,9.5163,4.2946,8.4576,7.671,1384,2019-08-07 16:23:37:722
6.6655,29.7556,16.9565,1.1499,-16.5303,9.5163,4.2946,8.4576,7.671,1389,2019-08-07 16:23:37:727
6.6655,29.7556,16.9565,1.1499,-16.5303,9.5163,4.2946,8.4576,7.671,1394,2019-08-07 16:23:37:732
14.6982,35.0975,-4.4631,-4.9018,-33.5335,18.4791,0.4757,0.7174,7.768,1399,2019-08-07 16:23:37:737
14.6982,35.0975,-4.4631,-4.9018,-33.5335,18.4791,0.4757,0.7174,7.768,1403,2019-08-07 16:23:37:741
6.609,35.3409,-11.5383,-4.9018,-33.5335,18.4791,-3.7204,-4.8199,6.5898,1409,2019-08-07 16:23:37:747
6.609,35.3409,-11.5383,-4.9018,-33.5335,18.4791,-3.7204,-4.8199,6.5898,1413,2019-08-07 16:23:37:751
6.609,35.3409,-11.5383,5.6061,-21.779,14.4013,-5.8829,-5.001,7.4771,1419,2019-08-07 16:23:37:757
3.7481,20.5802,-8.6299,5.6061,-21.779,14.4013,-5.8829,-5.001,7.4771,1424,2019-08-07 16:23:37:762
3.7481,20.5802,-8.6299,5.6061,-21.779,14.4013,-6.6925,-3.5927,9.1198,1429,2019-08-07 16:23:37:767
10.7761,8.0203,5.686,5.6061,-21.779,14.4013,-6.6925,-3.5927,9.1198,1434,2019-08-07 16:23:37:772
10.7761,8.0203,5.686,-12.8612,1.0586,-35.1029,-4.97,-4.6047,9.3158,1439,2019-08-07 16:23:37:777
10.7761,8.0203,5.686,-12.8612,1.0586,-35.1029,-4.97,-4.6047,9.3158,1444,2019-08-07 16:23:37:782
15.8044,-0.964,11.9223,-12.8612,1.0586,-35.1029,-2.7649,-5.7328,8.4338,1449,2019-08-07 16:23:37:787
15.8044,-0.964,11.9223,-12.8612,1.0586,-35.1029,-2.7649,-5.7328,8.4338,1454,2019-08-07 16:23:37:792
15.8044,-0.964,11.9223,-12.8612,1.0586,-35.1029,-2.7649,-5.7328,8.4338,1459,2019-08-07 16:23:37:797
16.4741,-6.4444,-0.1733,-7.1777,4.8871,2.8912,-1.56,-1.9458,6.887,1464,2019-08-07 16:23:37:802
16.4741,-6.4444,-0.1733,-7.1777,4.8871,2.8912,-1.56,-1.9458,6.887,1469,2019-08-07 16:23:37:807
16.4741,-6.4444,-0.1733,-7.1777,4.8871,2.8912,-2.2301,0.3648,5.9591,1474,2019-08-07 16:23:37:812
9.3074,-4.5539,-2.3416,-7.1777,4.8871,2.8912,-2.2301,0.3648,5.9591,1478,2019-08-07 16:23:37:816
9.3074,-4.5539,-2.3416,2.483,1.472,2.6785,-2.2301,0.3648,5.9591,1484,2019-08-07 16:23:37:822
2.6716,-3.876,8.7877,2.483,1.472,2.6785,-2.5412,1.8338,6.022,1488,2019-08-07 16:23:37:826
2.6716,-3.876,8.7877,2.483,1.472,2.6785,-2.5412,1.8338,6.022,1494,2019-08-07 16:23:37:832
2.6716,-3.876,8.7877,2.483,1.472,2.6785,-2.2013,1.8732,6.2755,1499,2019-08-07 16:23:37:837
-1.3998,-4.8547,5.3419,9.9012,0.7664,-2.6495,-1.608,2.4037,6.5546,1505,2019-08-07 16:23:37:843
-1.3998,-4.8547,5.3419,9.9012,0.7664,-2.6495,-1.608,2.4037,6.5546,1509,2019-08-07 16:23:37:847
-0.8065,-5.9479,4.9553,8.9319,1.2392,-2.1194,-1.608,2.4037,6.5546,1514,2019-08-07 16:23:37:852
-0.8065,-5.9479,4.9553,8.9319,1.2392,-2.1194,-1.8093,2.0308,6.3512,1519,2019-08-07 16:23:37:857
-0.8065,-5.9479,4.9553,8.9319,1.2392,-2.1194,-1.8093,2.0308,6.3512,1524,2019-08-07 16:23:37:862
-0.8065,-5.9479,4.9553,8.9319,1.2392,-2.1194,-1.8093,2.0308,6.3512,1528,2019-08-07 16:23:37:866
-2.9116,-5.8906,1.618,11.0847,-0.0303,0.6899,-2.2301,1.4726,6.0859,1534,2019-08-07 16:23:37:872
-2.9116,-5.8906,1.618,11.0847,-0.0303,0.6899,-2.2301,1.4726,6.0859,1539,2019-08-07 16:23:37:877
-2.9116,-5.8906,1.618,11.0847,-0.0303,0.6899,-2.1406,1.0433,5.9975,1544,2019-08-07 16:23:37:882
-3.5192,-7.3418,3.4516,11.0847,-0.0303,0.6899,-2.1406,1.0433,5.9975,1548,2019-08-07 16:23:37:886
-3.5192,-7.3418,3.4516,9.0321,1.7839,-0.1891,-1.6996,0.6993,6.0039,1554,2019-08-07 16:23:37:892
-3.5192,-7.3418,3.4516,9.0321,1.7839,-0.1891,-1.6996,0.6993,6.0039,1559,2019-08-07 16:23:37:897
-1.816,-9.6619,2.193,7.6031,2.6215,0.774,-1.3278,0.6748,5.9506,1564,2019-08-07 16:23:37:902
-1.816,-9.6619,2.193,7.6031,2.6215,0.774,-1.3278,0.6748,5.9506,1570,2019-08-07 16:23:37:908
-1.816,-9.6619,2.193,7.6031,2.6215,0.774,-0.6279,1.4556,5.663,1573,2019-08-07 16:23:37:911
-1.816,-9.6619,2.193,7.6031,2.6215,0.774,-0.6279,1.4556,5.663,1579,2019-08-07 16:23:37:917
-2.5193,-10.1536,-0.2911,8.1842,1.7965,3.3987,-0.3148,2.1651,5.4382,1584,2019-08-07 16:23:37:922
-2.5193,-10.1536,-0.2911,8.1842,1.7965,3.3987,-0.3148,2.1651,5.4382,1590,2019-08-07 16:23:37:928
-2.5193,-10.1536,-0.2911,8.1842,1.7965,3.3987,-0.3148,2.1651,5.4382,1594,2019-08-07 16:23:37:932
-3.9928,-8.7406,-0.7201,8.1842,1.7965,3.3987,-0.074,2.7116,5.1964,1599,2019-08-07 16:23:37:937
-3.9928,-8.7406,-0.7201,8.0003,-0.3567,4.1998,-0.074,2.7116,5.1964,1604,2019-08-07 16:23:37:942
-3.9928,-8.7406,-0.7201,8.0003,-0.3567,4.1998,0.3702,3.8397,4.3293,1609,2019-08-07 16:23:37:947
-4.0741,-7.8144,-2.6669,7.5755,-0.9867,6.4228,0.3702,3.8397,4.3293,1613,2019-08-07 16:23:37:951
-4.0741,-7.8144,-2.6669,7.5755,-0.9867,6.4228,0.3553,4.6344,3.4632,1619,2019-08-07 16:23:37:957
-4.0741,-7.8144,-2.6669,7.5755,-0.9867,6.4228,0.3553,4.6344,3.4632,1624,2019-08-07 16:23:37:962
-5.6912,-6.7212,-2.6197,7.5755,-0.9867,6.4228,0.1966,4.9667,2.5482,1629,2019-08-07 16:23:37:967
-5.6912,-6.7212,-2.6197,8.7236,-2.6133,4.8452,0.1966,4.9667,2.5482,1634,2019-08-07 16:23:37:972
-5.6912,-6.7212,-2.6197,8.7236,-2.6133,4.8452,0.1966,4.9667,2.5482,1638,2019-08-07 16:23:37:976
-5.6912,-6.7212,-2.6197,8.7236,-2.6133,4.8452,0.1529,4.466,1.6864,1644,2019-08-07 16:23:37:982
-7.1504,-5.2461,0.9062,9.185,-3.6878,2.5984,0.1529,4.466,1.6864,1648,2019-08-07 16:23:37:986
-7.1504,-5.2461,0.9062,9.185,-3.6878,2.5984,0.2339,3.0247,1.2635,1654,2019-08-07 16:23:37:992
-6.428,-4.5014,2.1506,9.185,-3.6878,2.5984,0.2339,3.0247,1.2635,1659,2019-08-07 16:23:37:997
-6.428,-4.5014,2.1506,7.0404,-4.6463,1.3251,0.2349,1.9478,1.1079,1664,2019-08-07 16:23:38:002
-3.9689,-4.0336,1.5425,7.0404,-4.6463,1.3251,0.2349,1.9478,1.1079,1670,2019-08-07 16:23:38:008
-3.9689,-4.0336,1.5425,7.0404,-4.6463,1.3251,0.0315,-0.2201,0.9013,1674,2019-08-07 16:23:38:012
-3.9689,-4.0336,1.5425,7.0404,-4.6463,1.3251,0.0315,-0.2201,0.9013,1679,2019-08-07 16:23:38:017
-1.5863,-4.1959,0.3641,2.1942,-4.7135,3.2044,0.0315,-0.2201,0.9013,1684,2019-08-07 16:23:38:022
-1.5863,-4.1959,0.3641,2.1942,-4.7135,3.2044,-0.1432,-0.9966,0.8139,1689,2019-08-07 16:23:38:027
-1.5863,-4.1959,0.3641,2.1942,-4.7135,3.2044,-0.1432,-0.9966,0.8139,1694,2019-08-07 16:23:38:032
1.112,-4.8976,0.6941,0.1005,-4.126,2.9584,-0.1486,-1.2448,0.7532,1699,2019-08-07 16:23:38:037
1.112,-4.8976,0.6941,0.1005,-4.126,2.9584,-0.1486,-1.2448,0.7532,1704,2019-08-07 16:23:38:042
3.5568,-5.8285,-0.7908,0.1005,-4.126,2.9584,-0.1219,-1.0115,0.6765,1709,2019-08-07 16:23:38:047
3.5568,-5.8285,-0.7908,-3.1152,-2.9005,4.0892,-0.1219,-1.0115,0.6765,1714,2019-08-07 16:23:38:052
3.5568,-5.8285,-0.7908,-3.1152,-2.9005,4.0892,-0.1081,-0.3756,0.5444,1719,2019-08-07 16:23:38:057
4.7385,-6.4062,-0.079,-3.1152,-2.9005,4.0892,-0.1081,-0.3756,0.5444,1724,2019-08-07 16:23:38:062
4.7385,-6.4062,-0.079,-3.1152,-2.9005,4.0892,-0.0889,0.4042,0.3473,1728,2019-08-07 16:23:38:066
3.5855,-6.0863,0.4301,-2.4401,-2.9944,3.1004,-0.0889,0.4042,0.3473,1734,2019-08-07 16:23:38:072
3.5855,-6.0863,0.4301,-2.4401,-2.9944,3.1004,-0.2178,1.2394,0.2365,1738,2019-08-07 16:23:38:076
3.5855,-6.0863,0.4301,-2.4401,-2.9944,3.1004,-0.2178,1.2394,0.2365,1744,2019-08-07 16:23:38:082
1.5378,-5.7569,0.8025,-0.446,-3.3361,2.7134,-0.4309,1.6122,0.2642,1749,2019-08-07 16:23:38:087
1.5378,-5.7569,0.8025,-0.446,-3.3361,2.7134,-0.4309,1.6122,0.2642,1754,2019-08-07 16:23:38:092
1.5378,-5.7569,0.8025,-0.446,-3.3361,2.7134,-0.4309,1.6122,0.2642,1759,2019-08-07 16:23:38:097
-0.0266,-6.22,3.0745,1.5764,-2.8588,0.2435,-0.5747,1.4886,0.1279,1764,2019-08-07 16:23:38:102
-0.0266,-6.22,3.0745,1.5764,-2.8588,0.2435,-0.5747,1.4886,0.1279,1769,2019-08-07 16:23:38:107
-1.1031,-6.874,3.4469,1.5764,-2.8588,0.2435,-0.7174,0.581,-0.0276,1773,2019-08-07 16:23:38:111
-1.1031,-6.874,3.4469,1.5764,-2.8588,0.2435,-0.7174,0.581,-0.0276,1779,2019-08-07 16:23:38:117
-1.1031,-6.874,3.4469,1.5764,-2.8588,0.2435,-0.7174,0.581,-0.0276,1783,2019-08-07 16:23:38:121
-0.3233,-7.8861,3.0133,1.4396,-1.4878,0.2139,-0.743,-0.0549,-0.0809,1789,2019-08-07 16:23:38:127
-0.3233,-7.8861,3.0133,1.4396,-1.4878,0.2139,-0.743,-0.0549,-0.0809,1794,2019-08-07 16:23:38:132
-0.3233,-7.8861,3.0133,1.4396,-1.4878,0.2139,-0.711,-0.3745,-0.1224,1798,2019-08-07 16:23:38:136
0.6671,-8.4016,2.2355,-0.2184,-0.5832,1.2948,-0.711,-0.3745,-0.1224,1804,2019-08-07 16:23:38:142
0.6671,-8.4016,2.2355,-0.2184,-0.5832,1.2948,-0.711,-0.3745,-0.1224,1809,2019-08-07 16:23:38:147
1.2603,-8.7119,1.8112,-0.2184,-0.5832,1.2948,-0.5704,-0.6611,-0.1757,1814,2019-08-07 16:23:38:152
1.2603,-8.7119,1.8112,-0.2184,-0.5832,1.2948,-0.5704,-0.6611,-0.1757,1819,2019-08-07 16:23:38:157
1.2603,-8.7119,1.8112,-0.2184,-0.5832,1.2948,-0.3989,-0.6462,-0.2652,1823,2019-08-07 16:23:38:161
2.3177,-9.0222,2.4617,-1.3006,-0.2312,0.6328,-0.3989,-0.6462,-0.2652,1829,2019-08-07 16:23:38:167
2.3177,-9.0222,2.4617,-1.3006,-0.2312,0.6328,-0.27,-0.4821,-0.3675,1834,2019-08-07 16:23:38:172
2.3177,-9.0222,2.4617,-1.3006,-0.2312,0.6328,-0.27,-0.4821,-0.3675,1839,2019-08-07 16:23:38:177
2.3081,-8.9315,3.2867,-1.3006,-0.2312,0.6328,-0.27,-0.4821,-0.3675,1843,2019-08-07 16:23:38:181
2.3081,-8.9315,3.2867,-1.13,-0.3501,-0.3473,-0.2487,-0.3159,-0.4388,1850,2019-08-07 16:23:38:188
2.1406,-8.6928,3.6449,-1.13,-0.3501,-0.3473,-0.2487,-0.3159,-0.4388,1853,2019-08-07 16:23:38:191
2.1406,-8.6928,3.6449,-1.13,-0.3501,-0.3473,-0.2902,-0.1636,-0.4793,1859,2019-08-07 16:23:38:197
2.1406,-8.6928,3.6449,-1.13,-0.3501,-0.3473,-0.2902,-0.1636,-0.4793,1864,2019-08-07 16:23:38:202
1.844,-8.6021,4.0126,-0.6109,-0.6629,-1.0336,-0.3116,-0.1029,-0.4729,1868,2019-08-07 16:23:38:206
1.844,-8.6021,4.0126,-0.6109,-0.6629,-1.0336,-0.3116,-0.1029,-0.4729,1874,2019-08-07 16:23:38:212
1.7914,-8.9172,4.3143,-0.5086,-0.3492,-1.3606,-0.3126,-0.0944,-0.4676,1879,2019-08-07 16:23:38:217
1.7914,-8.9172,4.3143,-0.5086,-0.3492,-1.3606,-0.3126,-0.0944,-0.4676,1884,2019-08-07 16:23:38:222
1.7914,-9.3039,4.0079,-0.5086,-0.3492,-1.3606,-0.3179,-0.17,-0.4623,1890,2019-08-07 16:23:38:228
1.7914,-9.3039,4.0079,-0.5086,-0.3492,-1.3606,-0.3179,-0.17,-0.4623,1894,2019-08-07 16:23:38:232
1.7914,-9.3039,4.0079,-0.4722,0.2159,-1.0804,-0.3179,-0.17,-0.4623,1899,2019-08-07 16:23:38:237
2.1502,-9.7383,3.8947,-0.4722,0.2159,-1.0804,-0.319,-0.2403,-0.4378,1903,2019-08-07 16:23:38:241
2.1502,-9.7383,3.8947,-0.4722,0.2159,-1.0804,-0.319,-0.2403,-0.4378,1909,2019-08-07 16:23:38:247
2.1502,-9.7383,3.8947,-0.4722,0.2159,-1.0804,-0.2828,-0.2467,-0.4143,1914,2019-08-07 16:23:38:252
2.3225,-9.9579,3.5176,-0.8418,0.6855,-0.6774,-0.2828,-0.2467,-0.4143,1918,2019-08-07 16:23:38:256
2.3225,-9.9579,3.5176,-0.8418,0.6855,-0.6774,-0.2349,-0.2179,-0.3334,1924,2019-08-07 16:23:38:262
2.4086,-10.0295,3.5884,-0.8848,0.7564,-0.7735,-0.2349,-0.2179,-0.3334,1929,2019-08-07 16:23:38:267
2.4086,-10.0295,3.5884,-0.8848,0.7564,-0.7735,-0.1827,-0.2264,-0.2513,1934,2019-08-07 16:23:38:272
2.4086,-10.0295,3.5884,-0.8848,0.7564,-0.7735,-0.1827,-0.2264,-0.2513,1938,2019-08-07 16:23:38:276
2.5138,-10.0868,3.5412,-0.8848,0.7564,-0.7735,-0.1827,-0.2264,-0.2513,1944,2019-08-07 16:23:38:282
2.5138,-10.0868,3.5412,-0.9064,0.7081,-0.5898,-0.1507,-0.2158,-0.1959,1949,2019-08-07 16:23:38:287
2.5138,-9.7956,3.2018,-0.9064,0.7081,-0.5898,-0.1507,-0.2158,-0.1959,1954,2019-08-07 16:23:38:292
2.5138,-9.7956,3.2018,-0.9064,0.7081,-0.5898,-0.1422,-0.1497,-0.1533,1959,2019-08-07 16:23:38:297
2.5138,-9.7956,3.2018,-0.9064,0.7081,-0.5898,-0.1422,-0.1497,-0.1533,1963,2019-08-07 16:23:38:301
2.4947,-9.6619,3.3291,-0.8188,0.2918,-0.501,-0.1166,-0.0848,-0.1427,1969,2019-08-07 16:23:38:307
2.4947,-9.6619,3.3291,-0.8188,0.2918,-0.501,-0.1166,-0.0848,-0.1427,1973,2019-08-07 16:23:38:311
2.2459,-9.3278,3.0557,-0.5962,0.0537,-0.3159,-0.0687,0.0324,-0.1533,1979,2019-08-07 16:23:38:317
2.2459,-9.3278,3.0557,-0.5962,0.0537,-0.3159,-0.0687,0.0324,-0.1533,1984,2019-08-07 16:23:38:322
2.2459,-9.3278,3.0557,-0.5962,0.0537,-0.3159,-0.0314,0.0527,-0.1544,1989,2019-08-07 16:23:38:327
1.7962,-9.1893,3.0416,-0.5962,0.0537,-0.3159,-0.0314,0.0527,-0.1544,1994,2019-08-07 16:23:38:332
1.7962,-9.1893,3.0416,-0.066,-0.0474,-0.2063,-0.0314,0.0527,-0.1544,1999,2019-08-07 16:23:38:337
1.7962,-9.1893,3.0416,-0.066,-0.0474,-0.2063,-0.0016,0.0548,-0.1555,2004,2019-08-07 16:23:38:342
1.667,-9.1941,3.0698,-0.066,-0.0474,-0.2063,-0.0016,0.0548,-0.1555,2008,2019-08-07 16:23:38:346
1.667,-9.1941,3.0698,-0.066,-0.0474,-0.2063,0.0155,-0.0027,-0.1746,2014,2019-08-07 16:23:38:352
1.6957,-9.1177,3.4187,0.0649,-0.1406,-0.7197,0.0155,-0.0027,-0.1746,2020,2019-08-07 16:23:38:358
1.6957,-9.1177,3.4187,0.0649,-0.1406,-0.7197,0.0155,-0.0027,-0.1746,2024,2019-08-07 16:23:38:362
1.6957,-9.1177,3.4187,0.0649,-0.1406,-0.7197,0.0293,-0.2467,-0.1512,2029,2019-08-07 16:23:38:367
2.2986,-9.1225,3.1028,0.0649,-0.1406,-0.7197,0.0293,-0.2467,-0.1512,2035,2019-08-07 16:23:38:373
2.2986,-9.1225,3.1028,-0.861,-0.2041,-0.3015,-0.0303,-0.3756,-0.1278,2039,2019-08-07 16:23:38:377
2.2986,-9.1225,3.1028,-0.861,-0.2041,-0.3015,-0.0303,-0.3756,-0.1278,2043,2019-08-07 16:23:38:381
2.8583,-9.0079,2.886,-0.861,-0.2041,-0.3015,-0.0303,-0.3756,-0.1278,2049,2019-08-07 16:23:38:387
2.8583,-9.0079,2.886,-0.861,-0.2041,-0.3015,-0.0729,-0.3532,-0.0979,2053,2019-08-07 16:23:38:391
3.3702,-9.0366,2.6927,-1.566,-0.2155,0.024,-0.0729,-0.3532,-0.0979,2059,2019-08-07 16:23:38:397
3.3702,-9.0366,2.6927,-1.566,-0.2155,0.024,-0.0964,-0.2573,-0.0724,2064,2019-08-07 16:23:38:402
3.3702,-9.0366,2.6927,-1.566,-0.2155,0.024,-0.0964,-0.2573,-0.0724,2068,2019-08-07 16:23:38:406
3.4994,-8.9984,2.6503,-1.566,-0.2155,0.024,-0.0942,-0.0794,-0.0383,2074,2019-08-07 16:23:38:412
3.4994,-8.9984,2.6503,-1.566,-0.2155,0.024,-0.0942,-0.0794,-0.0383,2078,2019-08-07 16:23:38:416
3.2363,-8.9506,2.4948,-1.5525,-0.2976,0.1307,-0.0751,0.0899,-0.034,2084,2019-08-07 16:23:38:422
3.2363,-8.9506,2.4948,-1.5525,-0.2976,0.1307,-0.0751,0.0899,-0.034,2089,2019-08-07 16:23:38:427
3.2363,-8.9506,2.4948,-1.5525,-0.2976,0.1307,-0.0751,0.0899,-0.034,2094,2019-08-07 16:23:38:432
2.8775,-8.8313,2.5937,-0.7953,-0.5032,-0.1467,-0.0623,0.2199,-0.0585,2099,2019-08-07 16:23:38:437
2.8775,-8.8313,2.5937,-0.7953,-0.5032,-0.1467,-0.0623,0.2199,-0.0585,2104,2019-08-07 16:23:38:442
2.8775,-8.8313,2.5937,-0.7953,-0.5032,-0.1467,-0.0229,0.2806,-0.0884,2109,2019-08-07 16:23:38:447
2.1885,-8.6308,2.9756,-0.3382,-0.6212,-0.2898,-0.0229,0.2806,-0.0884,2114,2019-08-07 16:23:38:452
2.1885,-8.6308,2.9756,-0.3382,-0.6212,-0.2898,-0.0048,0.2859,-0.1161,2119,2019-08-07 16:23:38:457
1.7388,-8.2584,3.4045,-0.3382,-0.6212,-0.2898,-0.0048,0.2859,-0.1161,2124,2019-08-07 16:23:38:462
1.7388,-8.2584,3.4045,-0.3382,-0.6212,-0.2898,-0.0239,0.1592,-0.148,2129,2019-08-07 16:23:38:467
1.7388,-8.2584,3.4045,0.3322,-1.0876,-0.6856,-0.0239,0.1592,-0.148,2133,2019-08-07 16:23:38:471
1.4087,-8.0722,3.3338,0.3322,-1.0876,-0.6856,-0.0964,-0.0592,-0.1608,2139,2019-08-07 16:23:38:477
1.4087,-8.0722,3.3338,0.3322,-1.0876,-0.6856,-0.0964,-0.0592,-0.1608,2143,2019-08-07 16:23:38:481
1.4087,-8.0722,3.3338,0.3322,-1.0876,-0.6856,-0.0964,-0.0592,-0.1608,2149,2019-08-07 16:23:38:487
1.4087,-8.0722,3.3338,0.3322,-1.0876,-0.6856,-0.0964,-0.0592,-0.1608,2154,2019-08-07 16:23:38:492
1.4087,-8.0722,3.3338,0.3322,-1.0876,-0.6856,-0.0964,-0.0592,-0.1608,2159,2019-08-07 16:23:38:497
1.5953,-8.182,3.2867,-0.0146,-0.8696,-0.654,-0.1198,-0.1082,-0.1619,2164,2019-08-07 16:23:38:502
1.5953,-8.182,3.2867,-0.0146,-0.8696,-0.654,-0.2519,-0.349,-0.1746,2169,2019-08-07 16:23:38:507
3.2124,-8.8408,2.4476,-0.0146,-0.8696,-0.654,-0.2519,-0.349,-0.1746,2174,2019-08-07 16:23:38:512
3.2124,-8.8408,2.4476,-0.0146,-0.8696,-0.654,-0.2519,-0.349,-0.1746,2179,2019-08-07 16:23:38:517
3.2124,-8.8408,2.4476,-0.0146,-0.8696,-0.654,-0.2519,-0.349,-0.1746,2184,2019-08-07 16:23:38:522
3.3607,-8.922,2.2591,-1.4201,-0.2402,0.4132,-0.2455,-0.2904,-0.1768,2189,2019-08-07 16:23:38:527
3.3607,-8.922,2.2591,-1.4201,-0.2402,0.4132,-0.2455,-0.2904,-0.1768,2194,2019-08-07 16:23:38:532
3.3607,-8.922,2.2591,-1.4201,-0.2402,0.4132,-0.2455,-0.2904,-0.1768,2199,2019-08-07 16:23:38:537
3.3511,-9.0747,2.1365,-1.1143,-0.1892,0.3522,-0.1752,0.0111,-0.1778,2204,2019-08-07 16:23:38:542
3.3511,-9.0747,2.1365,-1.1143,-0.1892,0.3522,-0.1752,0.0111,-0.1778,2209,2019-08-07 16:23:38:547
3.3511,-9.0747,2.1365,-1.1143,-0.1892,0.3522,-0.1752,0.0111,-0.1778,2214,2019-08-07 16:23:38:552
3.3511,-9.0747,2.1365,-1.1143,-0.1892,0.3522,-0.1752,0.0111,-0.1778,2219,2019-08-07 16:23:38:557
2.7675,-9.0747,2.4665,-0.7235,-0.1736,0.0881,-0.0996,0.1485,-0.1885,2224,2019-08-07 16:23:38:562
2.7675,-9.0747,2.4665,-0.7235,-0.1736,0.0881,-0.0996,0.1485,-0.1885,2229,2019-08-07 16:23:38:567
2.7675,-9.0747,2.4665,-0.7235,-0.1736,0.0881,-0.0996,0.1485,-0.1885,2234,2019-08-07 16:23:38:572
2.289,-8.8599,2.9614,-0.1931,-0.378,-0.5779,-0.0559,0.0953,-0.2023,2239,2019-08-07 16:23:38:577
2.289,-8.8599,2.9614,-0.1931,-0.378,-0.5779,-0.0559,0.0953,-0.2023,2244,2019-08-07 16:23:38:582
2.289,-8.8599,2.9614,-0.1931,-0.378,-0.5779,-0.0559,0.0953,-0.2023,2249,2019-08-07 16:23:38:587
2.2508,-8.7072,3.2725,-0.3273,-0.5754,-0.858,-0.0612,-0.1178,-0.2013,2254,2019-08-07 16:23:38:592
2.2508,-8.7072,3.2725,-0.3273,-0.5754,-0.858,-0.0612,-0.1178,-0.2013,2259,2019-08-07 16:23:38:597
2.2508,-8.7072,3.2725,-0.3273,-0.5754,-0.858,-0.0612,-0.1178,-0.2013,2264,2019-08-07 16:23:38:602
2.2508,-8.7072,3.2725,-0.693,-0.5202,-0.5877,-0.1411,-0.3319,-0.1736,2269,2019-08-07 16:23:38:607
2.8392,-8.7119,3.117,-0.693,-0.5202,-0.5877,-0.1411,-0.3319,-0.1736,2275,2019-08-07 16:23:38:613
2.8392,-8.7119,3.117,-0.693,-0.5202,-0.5877,-0.1411,-0.3319,-0.1736,2279,2019-08-07 16:23:38:617
2.8392,-8.7119,3.117,-0.693,-0.5202,-0.5877,-0.1411,-0.3319,-0.1736,2284,2019-08-07 16:23:38:622
3.4038,-8.8981,2.9237,-1.335,-0.2229,-0.3539,-0.1869,-0.3564,-0.1523,2289,2019-08-07 16:23:38:627
3.4038,-8.8981,2.9237,-1.335,-0.2229,-0.3539,-0.1869,-0.3564,-0.1523,2294,2019-08-07 16:23:38:632
3.4038,-8.8981,2.9237,-1.335,-0.2229,-0.3539,-0.1869,-0.3564,-0.1523,2299,2019-08-07 16:23:38:637
3.7769,-9.2514,2.7399,-1.4619,0.0301,-0.1543,-0.1518,-0.2147,-0.1097,2304,2019-08-07 16:23:38:642
3.7769,-9.2514,2.7399,-1.4619,0.0301,-0.1543,-0.1518,-0.2147,-0.1097,2310,2019-08-07 16:23:38:648
3.7769,-9.2514,2.7399,-1.4619,0.0301,-0.1543,-0.1518,-0.2147,-0.1097,2314,2019-08-07 16:23:38:652
3.7769,-9.2514,2.7399,-1.4619,0.0301,-0.1543,-0.1518,-0.2147,-0.1097,2319,2019-08-07 16:23:38:657
3.5999,-9.1607,2.4618,-1.3375,-0.0704,-0.0318,-0.1187,-0.0198,-0.0532,2324,2019-08-07 16:23:38:662
3.5999,-9.1607,2.4618,-1.3375,-0.0704,-0.0318,-0.1187,-0.0198,-0.0532,2329,2019-08-07 16:23:38:667
3.5999,-9.1607,2.4618,-1.3375,-0.0704,-0.0318,-0.1187,-0.0198,-0.0532,2334,2019-08-07 16:23:38:672
3.1215,-9.027,2.9284,-0.5586,-0.2851,-0.5387,-0.0665,0.0803,-0.0447,2339,2019-08-07 16:23:38:677
3.1215,-9.027,2.9284,-0.5586,-0.2851,-0.5387,-0.0665,0.0803,-0.0447,2344,2019-08-07 16:23:38:682
3.1215,-9.027,2.9284,-0.5586,-0.2851,-0.5387,-0.0665,0.0803,-0.0447,2350,2019-08-07 16:23:38:688
2.5331,-8.8695,3.0416,-0.1987,-0.3507,-0.6764,-0.0633,-0.0198,-0.0425,2354,2019-08-07 16:23:38:692
2.5331,-8.8695,3.0416,-0.1987,-0.3507,-0.6764,-0.0633,-0.0198,-0.0425,2359,2019-08-07 16:23:38:697
2.5331,-8.8695,3.0416,-0.1987,-0.3507,-0.6764,-0.0633,-0.0198,-0.0425,2364,2019-08-07 16:23:38:702
2.5331,-8.8695,3.0416,-0.1987,-0.3507,-0.6764,-0.0633,-0.0198,-0.0425,2369,2019-08-07 16:23:38:707
2.4709,-8.8361,3.0274,-0.1746,-0.3936,-0.6568,-0.0868,-0.2062,-0.0596,2374,2019-08-07 16:23:38:712
2.4709,-8.8361,3.0274,-0.1746,-0.3936,-0.6568,-0.0868,-0.2062,-0.0596,2380,2019-08-07 16:23:38:718
2.4709,-8.8361,3.0274,-0.1746,-0.3936,-0.6568,-0.0868,-0.2062,-0.0596,2384,2019-08-07 16:23:38:722
3.0737,-8.9793,2.7493,-1.0798,-0.1633,-0.1982,-0.0655,-0.4075,-0.0607,2389,2019-08-07 16:23:38:727
3.0737,-8.9793,2.7493,-1.0798,-0.1633,-0.1982,-0.0655,-0.4075,-0.0607,2394,2019-08-07 16:23:38:732
3.0737,-8.9793,2.7493,-1.0798,-0.1633,-0.1982,-0.0655,-0.4075,-0.0607,2399,2019-08-07 16:23:38:737
3.9731,-9.0366,2.1601,-1.6221,-0.1895,0.2041,-0.0016,-0.3351,-0.0979,2404,2019-08-07 16:23:38:742
3.9731,-9.0366,2.1601,-1.6221,-0.1895,0.2041,-0.0016,-0.3351,-0.0979,2409,2019-08-07 16:23:38:747
3.9731,-9.0366,2.1601,-1.6221,-0.1895,0.2041,-0.0016,-0.3351,-0.0979,2413,2019-08-07 16:23:38:751
3.9731,-9.0366,2.1601,-1.6221,-0.1895,0.2041,-0.0016,-0.3351,-0.0979,2419,2019-08-07 16:23:38:757
3.9732,-8.8981,2.2025,-1.3231,-0.4879,0.1151,0.0986,-0.0475,-0.1533,2424,2019-08-07 16:23:38:762
3.9732,-8.8981,2.2025,-1.3231,-0.4879,0.1151,0.0986,-0.0475,-0.1533,2429,2019-08-07 16:23:38:767
3.9732,-8.8981,2.2025,-1.3231,-0.4879,0.1151,0.0986,-0.0475,-0.1533,2435,2019-08-07 16:23:38:773
3.002,-8.669,2.5372,-0.4756,-0.4727,-0.3369,0.1295,0.0729,-0.1214,2440,2019-08-07 16:23:38:778
3.002,-8.669,2.5372,-0.4756,-0.4727,-0.3369,0.1295,0.0729,-0.1214,2444,2019-08-07 16:23:38:782
3.002,-8.669,2.5372,-0.4756,-0.4727,-0.3369,0.1295,0.0729,-0.1214,2449,2019-08-07 16:23:38:787
2.6049,-8.7931,2.9049,-0.1662,-0.3993,-0.4988,0.1071,-0.0773,-0.1363,2454,2019-08-07 16:23:38:792
2.6049,-8.7931,2.9049,-0.1662,-0.3993,-0.4988,0.1071,-0.0773,-0.1363,2459,2019-08-07 16:23:38:797
2.6049,-8.7931,2.9049,-0.1662,-0.3993,-0.4988,0.1071,-0.0773,-0.1363,2464,2019-08-07 16:23:38:802
2.6049,-8.7931,2.9049,-0.1662,-0.3993,-0.4988,0.1071,-0.0773,-0.1363,2469,2019-08-07 16:23:38:807
2.5953,-8.8361,2.8577,-0.1866,-0.353,-0.3744,0.0698,-0.3362,-0.1374,2474,2019-08-07 16:23:38:812
2.5953,-8.8361,2.8577,-0.1866,-0.353,-0.3744,0.0698,-0.3362,-0.1374,2479,2019-08-07 16:23:38:817
2.5953,-8.8361,2.8577,-0.1866,-0.353,-0.3744,0.0698,-0.3362,-0.1374,2484,2019-08-07 16:23:38:822
3.1982,-8.8217,2.5466,-0.9579,-0.3845,-0.092,0.0432,-0.4342,-0.1416,2489,2019-08-07 16:23:38:827
3.1982,-8.8217,2.5466,-0.9579,-0.3845,-0.092,0.0432,-0.4342,-0.1416,2495,2019-08-07 16:23:38:833
3.1982,-8.8217,2.5466,-0.9579,-0.3845,-0.092,0.0432,-0.4342,-0.1416,2499,2019-08-07 16:23:38:837
3.9015,-8.8027,2.3675,-1.3457,-0.3591,0.0337,0.0506,-0.3479,-0.1619,2504,2019-08-07 16:23:38:842
3.9015,-8.8027,2.3675,-1.3457,-0.3591,0.0337,0.0506,-0.3479,-0.1619,2509,2019-08-07 16:23:38:847
3.9015,-8.8027,2.3675,-1.3457,-0.3591,0.0337,0.0506,-0.3479,-0.1619,2515,2019-08-07 16:23:38:853
4.0306,-8.6738,2.4335,-1.3311,-0.6012,-0.1051,0.0645,-0.1913,-0.1938,2520,2019-08-07 16:23:38:858
4.0306,-8.6738,2.4335,-1.3311,-0.6012,-0.1051,0.0645,-0.1913,-0.1938,2524,2019-08-07 16:23:38:862
4.0306,-8.6738,2.4335,-1.3311,-0.6012,-0.1051,0.0645,-0.1913,-0.1938,2529,2019-08-07 16:23:38:867
4.0306,-8.6738,2.4335,-1.3311,-0.6012,-0.1051,0.0645,-0.1913,-0.1938,2534,2019-08-07 16:23:38:872
3.7149,-8.4637,2.6503,-1.0105,-0.6067,-0.176,0.0347,-0.0816,-0.1374,2539,2019-08-07 16:23:38:877
3.7149,-8.4637,2.6503,-1.0105,-0.6067,-0.176,0.0347,-0.0816,-0.1374,2545,2019-08-07 16:23:38:883
3.7149,-8.4637,2.6503,-1.0105,-0.6067,-0.176,0.0347,-0.0816,-0.1374,2550,2019-08-07 16:23:38:888
3.557,-8.5687,2.6928,-0.8474,-0.5311,-0.3658,-0.025,-0.0709,-0.0958,2554,2019-08-07 16:23:38:892
3.557,-8.5687,2.6928,-0.8474,-0.5311,-0.3658,-0.025,-0.0709,-0.0958,2559,2019-08-07 16:23:38:897
3.557,-8.5687,2.6928,-0.8474,-0.5311,-0.3658,-0.025,-0.0709,-0.0958,2564,2019-08-07 16:23:38:902
3.557,-8.5687,2.6928,-0.8474,-0.5311,-0.3658,-0.025,-0.0709,-0.0958,2569,2019-08-07 16:23:38:907
3.2508,-8.7883,2.8389,-0.5395,-0.302,-0.3486,-0.0484,-0.1551,-0.0649,2574,2019-08-07 16:23:38:912
3.2508,-8.7883,2.8389,-0.5395,-0.302,-0.3486,-0.0484,-0.1551,-0.0649,2579,2019-08-07 16:23:38:917
3.2508,-8.7883,2.8389,-0.5395,-0.302,-0.3486,-0.0484,-0.1551,-0.0649,2584,2019-08-07 16:23:38:922
3.3848,-8.8838,2.6315,-0.7789,-0.2194,-0.106,-0.0729,-0.2201,-0.0436,2589,2019-08-07 16:23:38:927
3.3848,-8.8838,2.6315,-0.7789,-0.2194,-0.106,-0.0729,-0.2201,-0.0436,2595,2019-08-07 16:23:38:933
3.3848,-8.8838,2.6315,-0.7789,-0.2194,-0.106,-0.0729,-0.2201,-0.0436,2599,2019-08-07 16:23:38:937
3.6096,-9.0461,2.4618,-0.9339,-0.0898,-0.1458,-0.0633,-0.1817,-0.0511,2604,2019-08-07 16:23:38:942
3.6096,-9.0461,2.4618,-0.9339,-0.0898,-0.1458,-0.0633,-0.1817,-0.0511,2609,2019-08-07 16:23:38:947
3.6096,-9.0461,2.4618,-0.9339,-0.0898,-0.1458,-0.0633,-0.1817,-0.0511,2613,2019-08-07 16:23:38:951
3.5809,-9.0318,2.3958,-0.9339,-0.0898,-0.1458,-0.0122,-0.0219,-0.0692,2619,2019-08-07 16:23:38:957
3.5809,-9.0318,2.3958,-0.9339,-0.0898,-0.1458,-0.0122,-0.0219,-0.0692,2624,2019-08-07 16:23:38:962
3.5809,-9.0318,2.3958,-0.6958,-0.0874,-0.3349,0.0379,0.0356,-0.0681,2629,2019-08-07 16:23:38:967
3.3704,-8.9602,2.7352,-0.6958,-0.0874,-0.3349,0.0379,0.0356,-0.0681,2634,2019-08-07 16:23:38:972
3.3704,-8.9602,2.7352,-0.6958,-0.0874,-0.3349,0.0773,-0.0038,-0.0649,2639,2019-08-07 16:23:38:977
3.3704,-8.9602,2.7352,-0.6958,-0.0874,-0.3349,0.0773,-0.0038,-0.0649,2644,2019-08-07 16:23:38:982
3.2556,-8.7883,2.7305,-0.4742,-0.3174,-0.3669,0.0773,-0.0038,-0.0649,2649,2019-08-07 16:23:38:987
3.2556,-8.7883,2.7305,-0.4742,-0.3174,-0.3669,0.056,-0.1018,-0.0457,2654,2019-08-07 16:23:38:992
3.2556,-8.7883,2.7305,-0.4742,-0.3174,-0.3669,0.056,-0.1018,-0.0457,2659,2019-08-07 16:23:38:997
3.3178,-8.7311,2.6456,-0.4742,-0.3174,-0.3669,0.0347,-0.1583,-0.0191,2664,2019-08-07 16:23:39:002
3.3178,-8.7311,2.6456,-0.6632,-0.3682,-0.3149,0.0347,-0.1583,-0.0191,2669,2019-08-07 16:23:39:007
3.5331,-8.8265,2.7163,-0.6632,-0.3682,-0.3149,0.0272,-0.1977,-0.0021,2673,2019-08-07 16:23:39:011
3.5331,-8.8265,2.7163,-0.794,-0.3375,-0.3777,0.0272,-0.1977,-0.0021,2679,2019-08-07 16:23:39:017
3.5331,-8.8265,2.7163,-0.794,-0.3375,-0.3777,0.0304,-0.203,0.0065,2684,2019-08-07 16:23:39:022
3.7054,-8.7931,2.6928,-0.794,-0.3375,-0.3777,0.0304,-0.203,0.0065,2688,2019-08-07 16:23:39:026
3.7054,-8.7931,2.6928,-0.794,-0.3375,-0.3777,0.0251,-0.1764,0.0054,2694,2019-08-07 16:23:39:032
3.7867,-8.7406,2.6315,-0.975,-0.3481,-0.3246,0.0251,-0.1764,0.0054,2699,2019-08-07 16:23:39:037
3.7867,-8.7406,2.6315,-0.975,-0.3481,-0.3246,0.0016,-0.105,-0.0095,2704,2019-08-07 16:23:39:042
3.7867,-8.7406,2.6315,-0.975,-0.3481,-0.3246,0.0016,-0.105,-0.0095,2709,2019-08-07 16:23:39:047
3.7101,-8.6022,2.7211,-0.975,-0.3481,-0.3246,-0.0058,-0.0571,-0.0117,2715,2019-08-07 16:23:39:053
3.7101,-8.6022,2.7211,-0.8323,-0.4734,-0.4213,-0.0058,-0.0571,-0.0117,2719,2019-08-07 16:23:39:057
3.7101,-8.6022,2.7211,-0.8323,-0.4734,-0.4213,-0.0058,-0.0571,-0.0117,2724,2019-08-07 16:23:39:062
3.5905,-8.6117,2.8201,-0.8323,-0.4734,-0.4213,-0.0143,-0.0198,-0.0202,2729,2019-08-07 16:23:39:067
3.5905,-8.6117,2.8201,-0.8323,-0.4734,-0.4213,-0.0143,-0.0198,-0.0202,2734,2019-08-07 16:23:39:072
3.5905,-8.6117,2.8201,-0.6069,-0.4178,-0.4454,-0.0239,-0.0251,-0.0212,2738,2019-08-07 16:23:39:076
3.447,-8.669,2.8012,-0.6069,-0.4178,-0.4454,-0.0239,-0.0251,-0.0212,2744,2019-08-07 16:23:39:082
3.447,-8.669,2.8012,-0.6069,-0.4178,-0.4454,-0.0261,-0.0432,-0.0372,2749,2019-08-07 16:23:39:087
3.4135,-8.712,2.7871,-0.6069,-0.4178,-0.4454,-0.0261,-0.0432,-0.0372,2754,2019-08-07 16:23:39:092
3.4135,-8.712,2.7871,-0.6069,-0.4178,-0.4454,-0.0261,-0.0432,-0.0372,2759,2019-08-07 16:23:39:097
3.4135,-8.712,2.7871,-0.5031,-0.3717,-0.4345,-0.0175,-0.089,-0.0447,2764,2019-08-07 16:23:39:102
3.4518,-8.7311,2.6786,-0.5031,-0.3717,-0.4345,-0.0175,-0.089,-0.0447,2769,2019-08-07 16:23:39:107
3.4518,-8.7311,2.6786,-0.5031,-0.3717,-0.4345,0.0102,-0.1572,-0.0383,2774,2019-08-07 16:23:39:112
3.4518,-8.7311,2.6786,-0.7993,-0.3096,-0.256,0.0102,-0.1572,-0.0383,2779,2019-08-07 16:23:39:117
3.6671,-8.774,2.6127,-0.7993,-0.3096,-0.256,0.0251,-0.1679,-0.0351,2784,2019-08-07 16:23:39:122
3.6671,-8.774,2.6127,-0.7993,-0.3096,-0.256,0.0251,-0.1679,-0.0351,2790,2019-08-07 16:23:39:128
3.6671,-8.774,2.6127,-0.7993,-0.3096,-0.256,0.0251,-0.1679,-0.0351,2793,2019-08-07 16:23:39:131
3.8011,-8.7549,2.5278,-0.8884,-0.3557,-0.1345,0.041,-0.1391,-0.0383,2799,2019-08-07 16:23:39:137
3.8011,-8.7549,2.5278,-0.8884,-0.3557,-0.1345,0.041,-0.1391,-0.0383,2804,2019-08-07 16:23:39:142
3.8633,-8.7358,2.5042,-0.8884,-0.3557,-0.1345,0.04,-0.1146,-0.0351,2809,2019-08-07 16:23:39:147
3.8633,-8.7358,2.5042,-0.9403,-0.3284,-0.1999,0.04,-0.1146,-0.0351,2815,2019-08-07 16:23:39:153
3.8681,-8.7836,2.5089,-0.9403,-0.3284,-0.1999,0.0347,-0.0635,-0.0308,2819,2019-08-07 16:23:39:157
3.8681,-8.7836,2.5089,-0.9403,-0.3284,-0.1999,0.0347,-0.0635,-0.0308,2824,2019-08-07 16:23:39:162
3.8681,-8.7836,2.5089,-0.804,-0.26,-0.0879,0.0379,-0.0177,-0.0298,2829,2019-08-07 16:23:39:167
3.691,-8.817,2.4901,-0.804,-0.26,-0.0879,0.0379,-0.0177,-0.0298,2833,2019-08-07 16:23:39:171
3.691,-8.817,2.4901,-0.804,-0.26,-0.0879,0.0496,0.0058,-0.0212,2839,2019-08-07 16:23:39:177
3.691,-8.817,2.4901,-0.804,-0.26,-0.0879,0.0496,0.0058,-0.0212,2844,2019-08-07 16:23:39:182
3.4136,-8.7454,2.7541,-0.804,-0.26,-0.0879,0.0496,0.0058,-0.0212,2849,2019-08-07 16:23:39:187
3.4136,-8.7454,2.7541,-0.3405,-0.2638,-0.3455,0.0613,-0.0081,-0.0276,2854,2019-08-07 16:23:39:192
3.4136,-8.7454,2.7541,-0.3405,-0.2638,-0.3455,0.0613,-0.0081,-0.0276,2859,2019-08-07 16:23:39:197
3.27,-8.6165,2.6692,-0.3405,-0.2638,-0.3455,0.056,-0.0624,-0.0372,2864,2019-08-07 16:23:39:202
3.27,-8.6165,2.6692,-0.3856,-0.4242,-0.3917,0.056,-0.0624,-0.0372,2869,2019-08-07 16:23:39:207
3.27,-8.6165,2.6692,-0.3856,-0.4242,-0.3917,0.0538,-0.1327,-0.0479,2874,2019-08-07 16:23:39:212
3.3896,-8.6022,2.7588,-0.3856,-0.4242,-0.3917,0.0538,-0.1327,-0.0479,2879,2019-08-07 16:23:39:217
3.3896,-8.6022,2.7588,-0.3856,-0.4242,-0.3917,0.0581,-0.1551,-0.0543,2884,2019-08-07 16:23:39:222
3.3896,-8.6022,2.7588,-0.3856,-0.4242,-0.3917,0.0581,-0.1551,-0.0543,2889,2019-08-07 16:23:39:227
3.7341,-8.626,2.6457,-0.7663,-0.416,-0.2643,0.0581,-0.1551,-0.0543,2894,2019-08-07 16:23:39:232
3.7341,-8.626,2.6457,-0.7663,-0.416,-0.2643,0.0517,-0.1306,-0.0628,2899,2019-08-07 16:23:39:237
3.8107,-8.6165,2.6174,-0.7663,-0.416,-0.2643,0.0517,-0.1306,-0.0628,2904,2019-08-07 16:23:39:242
3.8107,-8.6165,2.6174,-0.7663,-0.416,-0.2643,0.041,-0.0826,-0.0681,2909,2019-08-07 16:23:39:247
3.8107,-8.6165,2.6174,-0.7615,-0.3593,-0.2839,0.041,-0.0826,-0.0681,2914,2019-08-07 16:23:39:252
3.6958,-8.6976,2.6928,-0.7615,-0.3593,-0.2839,0.024,-0.0517,-0.0596,2919,2019-08-07 16:23:39:257
3.6958,-8.6976,2.6928,-0.7615,-0.3593,-0.2839,0.024,-0.0517,-0.0596,2924,2019-08-07 16:23:39:262
3.5906,-8.6929,2.6409,-0.7615,-0.3593,-0.2839,0.0059,-0.0624,-0.0457,2928,2019-08-07 16:23:39:266
3.5906,-8.6929,2.6409,-0.5474,-0.3049,-0.3003,0.0059,-0.0624,-0.0457,2934,2019-08-07 16:23:39:272
3.5906,-8.6929,2.6409,-0.5474,-0.3049,-0.3003,-0.0037,-0.1071,-0.0298,2939,2019-08-07 16:23:39:277
3.5188,-8.7549,2.7211,-0.5474,-0.3049,-0.3003,-0.0037,-0.1071,-0.0298,2944,2019-08-07 16:23:39:282
3.5188,-8.7549,2.7211,-0.5474,-0.3049,-0.3003,0.0027,-0.1497,-0.017,2949,2019-08-07 16:23:39:287
3.6241,-8.7502,2.7258,-0.5371,-0.2581,-0.4086,0.0027,-0.1497,-0.017,2955,2019-08-07 16:23:39:293
3.6241,-8.7502,2.7258,-0.5371,-0.2581,-0.4086,0.0027,-0.1497,-0.017,2960,2019-08-07 16:23:39:298
3.6241,-8.7502,2.7258,-0.5371,-0.2581,-0.4086,0.0229,-0.1796,-0.0191,2964,2019-08-07 16:23:39:302
3.8155,-8.7167,2.6079,-0.5371,-0.2581,-0.4086,0.0229,-0.1796,-0.0191,2968,2019-08-07 16:23:39:306
3.8155,-8.7167,2.6079,-0.7781,-0.3491,-0.0883,0.0336,-0.1774,-0.0191,2974,2019-08-07 16:23:39:312
3.9064,-8.6069,2.4854,-0.7781,-0.3491,-0.0883,0.0336,-0.1774,-0.0191,2979,2019-08-07 16:23:39:317
3.9064,-8.6069,2.4854,-0.7781,-0.3491,-0.0883,0.0315,-0.1242,-0.0319,2984,2019-08-07 16:23:39:322
3.9064,-8.6069,2.4854,-0.7781,-0.3491,-0.0883,0.0315,-0.1242,-0.0319,2989,2019-08-07 16:23:39:327
3.9542,-8.6595,2.4712,-0.8931,-0.3524,-0.094,0.0336,-0.056,-0.0372,2994,2019-08-07 16:23:39:332
3.9542,-8.6595,2.4712,-0.8931,-0.3524,-0.094,0.0336,-0.056,-0.0372,2999,2019-08-07 16:23:39:337
3.9542,-8.6595,2.4712,-0.8931,-0.3524,-0.094,0.0347,0.0026,-0.0436,3004,2019-08-07 16:23:39:342
3.6528,-8.6404,2.6692,-0.8931,-0.3524,-0.094,0.0347,0.0026,-0.0436,3008,2019-08-07 16:23:39:346
3.6528,-8.6404,2.6692,-0.8931,-0.3524,-0.094,0.0347,0.0026,-0.0436,3014,2019-08-07 16:23:39:352
3.6528,-8.6404,2.6692,-0.8931,-0.3524,-0.094,0.0347,0.0026,-0.0436,3019,2019-08-07 16:23:39:357
3.6528,-8.6404,2.6692,-0.8931,-0.3524,-0.094,0.0347,0.0026,-0.0436,3024,2019-08-07 16:23:39:362
3.6863,-8.6165,2.7446,-0.5345,-0.3458,-0.2803,0.0357,0.0026,-0.0436,3028,2019-08-07 16:23:39:366
3.6863,-8.6165,2.7446,-0.5345,-0.3458,-0.2803,0.0357,0.0026,-0.0436,3035,2019-08-07 16:23:39:373
3.6863,-8.6165,2.7446,-0.5345,-0.3458,-0.2803,0.04,-0.1263,-0.0308,3039,2019-08-07 16:23:39:377
3.7102,-8.4303,2.5561,-0.6135,-0.565,-0.1621,0.04,-0.1263,-0.0308,3043,2019-08-07 16:23:39:381
3.7102,-8.4303,2.5561,-0.6135,-0.565,-0.1621,0.0304,-0.1529,-0.0223,3050,2019-08-07 16:23:39:388
3.7102,-8.4303,2.5561,-0.6135,-0.565,-0.1621,0.0304,-0.1529,-0.0223,3053,2019-08-07 16:23:39:391
3.7964,-8.4064,2.4995,-0.6135,-0.565,-0.1621,0.024,-0.1604,-0.0159,3059,2019-08-07 16:23:39:397
3.7964,-8.4064,2.4995,-0.7534,-0.5928,-0.0654,0.024,-0.1604,-0.0159,3064,2019-08-07 16:23:39:402
3.8825,-8.4924,2.4807,-0.7534,-0.5928,-0.0654,0.0208,-0.154,-0.0117,3069,2019-08-07 16:23:39:407
3.8825,-8.4924,2.4807,-0.7534,-0.5928,-0.0654,0.0208,-0.154,-0.0117,3074,2019-08-07 16:23:39:412
3.9782,-8.5688,2.4005,-0.7534,-0.5928,-0.0654,0.0208,-0.1274,-0.0127,3079,2019-08-07 16:23:39:417
3.9782,-8.5688,2.4005,-0.8564,-0.4307,-0.0089,0.0208,-0.1274,-0.0127,3083,2019-08-07 16:23:39:421
3.9782,-8.5688,2.4005,-0.8564,-0.4307,-0.0089,0.0208,-0.1274,-0.0127,3089,2019-08-07 16:23:39:427
4.0164,-8.5592,2.377,-0.8564,-0.4307,-0.0089,0.0325,-0.0549,-0.017,3093,2019-08-07 16:23:39:431
4.0164,-8.5592,2.377,-0.8564,-0.4307,-0.0089,0.0325,-0.0549,-0.017,3099,2019-08-07 16:23:39:437
4.0164,-8.5592,2.377,-0.776,-0.4305,-0.0124,0.0325,-0.0549,-0.017,3103,2019-08-07 16:23:39:441
3.9542,-8.5783,2.4288,-0.776,-0.4305,-0.0124,0.0442,0.0068,-0.0319,3109,2019-08-07 16:23:39:447
3.9542,-8.5783,2.4288,-0.776,-0.4305,-0.0124,0.0442,0.0068,-0.0319,3114,2019-08-07 16:23:39:452
3.7916,-8.5258,2.4854,-0.776,-0.4305,-0.0124,0.0506,0.0484,-0.0543,3118,2019-08-07 16:23:39:456
3.7916,-8.5258,2.4854,-0.5051,-0.4611,-0.156,0.0506,0.0484,-0.0543,3124,2019-08-07 16:23:39:462
3.7916,-8.5258,2.4854,-0.5051,-0.4611,-0.156,0.04,0.0345,-0.0607,3128,2019-08-07 16:23:39:466
3.7007,-8.5831,2.6315,-0.5051,-0.4611,-0.156,0.04,0.0345,-0.0607,3134,2019-08-07 16:23:39:472
3.7007,-8.5831,2.6315,-0.5051,-0.4611,-0.156,0.04,0.0345,-0.0607,3139,2019-08-07 16:23:39:477
3.9686,-8.6595,2.641,-0.7957,-0.3049,-0.2307,0.0315,0.0196,-0.0681,3143,2019-08-07 16:23:39:481
3.9686,-8.6595,2.641,-0.7957,-0.3049,-0.2307,0.0315,0.0196,-0.0681,3149,2019-08-07 16:23:39:487
3.9686,-8.6595,2.641,-0.7957,-0.3049,-0.2307,0.0325,0.0196,-0.0788,3154,2019-08-07 16:23:39:492
4.093,-8.6595,2.5561,-0.7957,-0.3049,-0.2307,0.0325,0.0196,-0.0788,3158,2019-08-07 16:23:39:496
4.093,-8.6595,2.5561,-0.8619,-0.3239,-0.0798,0.0389,0.0516,-0.0766,3164,2019-08-07 16:23:39:502
4.0882,-8.6165,2.641,-0.8619,-0.3239,-0.0798,0.0389,0.0516,-0.0766,3169,2019-08-07 16:23:39:507
4.0882,-8.6165,2.641,-0.8619,-0.3239,-0.0798,0.0357,0.0835,-0.067,3174,2019-08-07 16:23:39:512
4.0882,-8.6165,2.641,-0.8619,-0.3239,-0.0798,0.0357,0.0835,-0.067,3179,2019-08-07 16:23:39:517
3.849,-8.5783,2.5702,-0.5418,-0.3872,-0.2419,0.0197,0.091,-0.0511,3184,2019-08-07 16:23:39:522
3.849,-8.5783,2.5702,-0.5418,-0.3872,-0.2419,0.0197,0.091,-0.0511,3188,2019-08-07 16:23:39:526
3.5955,-8.6499,2.7399,-0.5418,-0.3872,-0.2419,0.007,0.0495,-0.0212,3194,2019-08-07 16:23:39:532
3.5955,-8.6499,2.7399,-0.5418,-0.3872,-0.2419,0.007,0.0495,-0.0212,3199,2019-08-07 16:23:39:537
3.5955,-8.6499,2.7399,-0.3024,-0.1735,-0.268,0.0123,-0.0177,1.0E-4,3204,2019-08-07 16:23:39:542
3.5093,-8.7979,2.6645,-0.3024,-0.1735,-0.268,0.0123,-0.0177,1.0E-4,3209,2019-08-07 16:23:39:547
3.5093,-8.7979,2.6645,-0.3024,-0.1735,-0.268,0.0123,-0.0177,1.0E-4,3213,2019-08-07 16:23:39:551
3.6624,-8.7645,2.6881,-0.3024,-0.1735,-0.268,0.0229,-0.0794,0.0065,3219,2019-08-07 16:23:39:557
3.6624,-8.7645,2.6881,-0.507,-0.2044,-0.1393,0.0229,-0.0794,0.0065,3224,2019-08-07 16:23:39:562
3.6624,-8.7645,2.6881,-0.507,-0.2044,-0.1393,0.0336,-0.1018,-0.0042,3229,2019-08-07 16:23:39:567
3.7486,-8.6881,2.542,-0.507,-0.2044,-0.1393,0.0336,-0.1018,-0.0042,3234,2019-08-07 16:23:39:572
3.7486,-8.6881,2.542,-0.507,-0.2044,-0.1393,0.0368,-0.0869,-0.0138,3238,2019-08-07 16:23:39:576
3.8969,-8.5497,2.6127,-0.6678,-0.386,-0.1707,0.0368,-0.0869,-0.0138,3244,2019-08-07 16:23:39:582
3.8969,-8.5497,2.6127,-0.6678,-0.386,-0.1707,0.0336,-0.0581,-0.0276,3248,2019-08-07 16:23:39:586
3.8969,-8.5497,2.6127,-0.6678,-0.386,-0.1707,0.0336,-0.0581,-0.0276,3254,2019-08-07 16:23:39:592
3.9734,-8.5544,2.509,-0.6678,-0.386,-0.1707,0.0251,-0.0017,-0.0479,3259,2019-08-07 16:23:39:597
3.9734,-8.5544,2.509,-0.754,-0.3795,-0.1047,0.0251,-0.0017,-0.0479,3264,2019-08-07 16:23:39:602
3.9734,-8.5544,2.509,-0.754,-0.3795,-0.1047,0.0144,0.0452,-0.0532,3268,2019-08-07 16:23:39:606
4.05,-8.5306,2.5137,-0.754,-0.3795,-0.1047,0.0144,0.0452,-0.0532,3274,2019-08-07 16:23:39:612
4.05,-8.5306,2.5137,-0.754,-0.3795,-0.1047,0.0016,0.0814,-0.0553,3279,2019-08-07 16:23:39:617
4.0739,-8.5019,2.476,-0.754,-0.3795,-0.1047,0.0016,0.0814,-0.0553,3283,2019-08-07 16:23:39:621
4.0739,-8.5019,2.476,-0.8456,-0.411,0.0476,-0.0026,0.1155,-0.0479,3289,2019-08-07 16:23:39:627
4.1552,-8.5544,2.5514,-0.8456,-0.411,0.0476,-0.0026,0.1155,-0.0479,3294,2019-08-07 16:23:39:632
4.1552,-8.5544,2.5514,-0.8456,-0.411,0.0476,-0.0016,0.1336,-0.0308,3299,2019-08-07 16:23:39:637
4.1552,-8.5544,2.5514,-0.8456,-0.411,0.0476,-0.0016,0.1336,-0.0308,3304,2019-08-07 16:23:39:642
3.9926,-8.5831,2.5938,-0.7522,-0.3534,-0.0473,0.0048,0.1411,-0.0127,3311,2019-08-07 16:23:39:649
3.9926,-8.5831,2.5938,-0.7522,-0.3534,-0.0473,0.0048,0.1411,-0.0127,3314,2019-08-07 16:23:39:652
3.9926,-8.5831,2.5938,-0.7522,-0.3534,-0.0473,0.008,0.1304,-0.001,3319,2019-08-07 16:23:39:657
3.9304,-8.626,2.5891,-0.7522,-0.3534,-0.0473,0.008,0.1304,-0.001,3324,2019-08-07 16:23:39:662
3.9304,-8.626,2.5891,-0.609,-0.2884,-0.0881,0.008,0.1304,-0.001,3329,2019-08-07 16:23:39:667
3.7964,-8.5926,2.6551,-0.609,-0.2884,-0.0881,0.0027,0.107,0.0054,3334,2019-08-07 16:23:39:672
3.7964,-8.5926,2.6551,-0.609,-0.2884,-0.0881,0.0027,0.107,0.0054,3339,2019-08-07 16:23:39:677
3.7964,-8.5926,2.6551,-0.3517,-0.3822,-0.1655,-0.009,0.0803,0.0033,3344,2019-08-07 16:23:39:682
3.6146,-8.5306,2.6457,-0.3517,-0.3822,-0.1655,-0.009,0.0803,0.0033,3349,2019-08-07 16:23:39:687
3.6146,-8.5306,2.6457,-0.3517,-0.3822,-0.1655,-0.0591,0.0047,-0.0053,3353,2019-08-07 16:23:39:691
3.4281,-8.5258,2.5655,-0.3517,-0.3822,-0.1655,-0.0591,0.0047,-0.0053,3359,2019-08-07 16:23:39:697
3.4281,-8.5258,2.5655,-0.3517,-0.3822,-0.1655,-0.0761,0.0175,-0.0031,3364,2019-08-07 16:23:39:702
3.4281,-8.5258,2.5655,-0.3779,-0.3071,-0.3666,-0.0761,0.0175,-0.0031,3369,2019-08-07 16:23:39:707
3.6912,-8.6833,2.6221,-0.3779,-0.3071,-0.3666,-0.0761,0.0175,-0.0031,3374,2019-08-07 16:23:39:712
3.6912,-8.6833,2.6221,-0.3779,-0.3071,-0.3666,-0.042,0.0186,-0.017,3379,2019-08-07 16:23:39:717
3.6768,-8.7311,2.5373,-0.3779,-0.3071,-0.3666,-0.042,0.0186,-0.017,3384,2019-08-07 16:23:39:722
3.6768,-8.7311,2.5373,-0.4549,-0.1926,-0.0661,-0.0325,0.0196,-0.0106,3388,2019-08-07 16:23:39:726
3.6768,-8.7311,2.5373,-0.4549,-0.1926,-0.0661,-0.0325,0.0196,-0.0106,3394,2019-08-07 16:23:39:732
3.8012,-8.7549,2.5797,-0.4549,-0.1926,-0.0661,-0.0026,0.0654,-0.0255,3399,2019-08-07 16:23:39:737
3.8012,-8.7549,2.5797,-0.4549,-0.1926,-0.0661,-0.0026,0.0654,-0.0255,3404,2019-08-07 16:23:39:742
3.9735,-8.7358,2.6268,-0.6409,-0.214,-0.1683,0.04,0.1453,-0.0436,3409,2019-08-07 16:23:39:747
3.9735,-8.7358,2.6268,-0.6409,-0.214,-0.1683,0.04,0.1453,-0.0436,3413,2019-08-07 16:23:39:751
3.9735,-8.7358,2.6268,-0.6409,-0.214,-0.1683,0.0964,0.2604,-0.0553,3419,2019-08-07 16:23:39:757
4.074,-8.774,2.4713,-0.6409,-0.214,-0.1683,0.0964,0.2604,-0.0553,3423,2019-08-07 16:23:39:761
4.074,-8.774,2.4713,-0.6655,-0.1907,0.2358,0.0837,0.2678,-0.0553,3429,2019-08-07 16:23:39:767
3.7391,-8.669,2.5703,-0.6655,-0.1907,0.2358,0.0837,0.2678,-0.0553,3434,2019-08-07 16:23:39:772
3.7391,-8.669,2.5703,-0.6655,-0.1907,0.2358,0.0837,0.2678,-0.0553,3438,2019-08-07 16:23:39:776
3.7391,-8.669,2.5703,-0.6655,-0.1907,0.2358,0.0592,0.2391,-0.0479,3444,2019-08-07 16:23:39:782
3.5238,-8.4972,2.9757,-0.2447,-0.397,-0.4501,0.0592,0.2391,-0.0479,3449,2019-08-07 16:23:39:787
3.5238,-8.4972,2.9757,-0.2447,-0.397,-0.4501,0.0442,0.157,-0.05,3453,2019-08-07 16:23:39:791
3.208,-8.3205,2.9992,-0.2447,-0.397,-0.4501,0.0442,0.157,-0.05,3459,2019-08-07 16:23:39:797
3.208,-8.3205,2.9992,-0.2447,-0.397,-0.4501,6.0E-4,0.0175,-0.034,3464,2019-08-07 16:23:39:802
3.208,-8.3205,2.9992,0.142,-0.5304,-0.4377,6.0E-4,0.0175,-0.034,3469,2019-08-07 16:23:39:807
3.2128,-8.5115,2.9191,0.142,-0.5304,-0.4377,-0.0548,-0.1551,-0.0053,3474,2019-08-07 16:23:39:812