ACCELEROMETER X (m/s²),ACCELEROMETER Y (m/s²),ACCELEROMETER Z (m/s²),LINEAR ACCELERATION X (m/s²),LINEAR ACCELERATION Y (m/s²),LINEAR ACCELERATION Z (m/s²),GYROSCOPE X (rad/s),GYROSCOPE Y (rad/s),GYROSCOPE Z (rad/s),Time since start in ms ,YYYY-MO-DD HH-MI-SS_SSS
5.1779,-8.2727,1.8771,-0.3992,-0.0086,0.0876,6.0E-4,-0.0315,-0.0287,2,2019-08-07 16:25:25:889
5.1779,-8.2727,1.8771,-0.3992,-0.0086,0.0876,6.0E-4,-0.0315,-0.0287,8,2019-08-07 16:25:25:895
5.1779,-8.2727,1.8771,-0.4156,-0.1006,0.0707,0.0123,0.0026,-0.0117,13,2019-08-07 16:25:25:900
5.087,-8.2631,1.9855,-0.4156,-0.1006,0.0707,0.0123,0.0026,-0.0117,18,2019-08-07 16:25:25:905
5.087,-8.2631,1.9855,-0.4156,-0.1006,0.0707,0.024,0.025,-0.0053,22,2019-08-07 16:25:25:909
5.0344,-8.2536,2.0279,-0.4156,-0.1006,0.0707,0.024,0.025,-0.0053,27,2019-08-07 16:25:25:914
5.0344,-8.2536,2.0279,-0.2218,-0.1122,0.0336,0.0272,0.025,1.0E-4,33,2019-08-07 16:25:25:920
5.0344,-8.2536,2.0279,-0.2218,-0.1122,0.0336,0.0272,0.025,1.0E-4,37,2019-08-07 16:25:25:924
4.9339,-8.2011,1.9572,-0.2218,-0.1122,0.0336,0.0272,0.025,1.0E-4,43,2019-08-07 16:25:25:930
4.9339,-8.2011,1.9572,-0.2026,-0.1209,0.0606,0.0272,0.0335,0.0054,48,2019-08-07 16:25:25:935
4.9531,-8.2202,2.0609,-0.2026,-0.1209,0.0606,0.0272,0.0335,0.0054,53,2019-08-07 16:25:25:940
4.9531,-8.2202,2.0609,-0.2026,-0.1209,0.0606,0.0272,0.0335,0.0054,58,2019-08-07 16:25:25:945
4.9531,-8.2202,2.0609,-0.2026,-0.1209,0.0606,0.0304,0.042,0.0022,63,2019-08-07 16:25:25:950
4.8669,-8.2058,2.0845,-0.1458,-0.1478,-0.0439,0.0304,0.042,0.0022,68,2019-08-07 16:25:25:955
4.8669,-8.2058,2.0845,-0.1458,-0.1478,-0.0439,0.0293,0.0324,-0.001,73,2019-08-07 16:25:25:960
4.8095,-8.1629,2.0939,-0.1458,-0.1478,-0.0439,0.0293,0.0324,-0.001,78,2019-08-07 16:25:25:965
4.8095,-8.1629,2.0939,-0.1458,-0.1478,-0.0439,0.0293,0.0143,-0.001,82,2019-08-07 16:25:25:969
4.8095,-8.1629,2.0939,-0.1126,-0.1506,-0.0586,0.0293,0.0143,-0.001,88,2019-08-07 16:25:25:975
4.8095,-8.1629,2.0939,-0.1126,-0.1506,-0.0586,0.0293,0.0143,-0.001,92,2019-08-07 16:25:25:979
4.8287,-8.1151,2.0374,-0.1126,-0.1506,-0.0586,0.0229,-0.0049,1.0E-4,98,2019-08-07 16:25:25:985
4.8287,-8.1151,2.0374,-0.1126,-0.1506,-0.0586,0.0229,-0.0049,1.0E-4,102,2019-08-07 16:25:25:989
4.8956,-8.0769,2.0798,-0.1391,-0.2534,-0.0455,0.0208,-0.0272,-0.0063,108,2019-08-07 16:25:25:995
4.8956,-8.0769,2.0798,-0.1391,-0.2534,-0.0455,0.0208,-0.0272,-0.0063,113,2019-08-07 16:25:26:000
4.9435,-8.0722,2.0562,-0.1391,-0.2534,-0.0455,0.0219,-0.0347,-0.0159,118,2019-08-07 16:25:26:005
4.9435,-8.0722,2.0562,-0.1391,-0.2534,-0.0455,0.0219,-0.0347,-0.0159,123,2019-08-07 16:25:26:010
4.9435,-8.0722,2.0562,-0.2335,-0.2928,-0.007,0.0165,-0.0358,-0.0244,128,2019-08-07 16:25:26:015
4.9483,-8.0006,2.0562,-0.2335,-0.2928,-0.007,0.0165,-0.0358,-0.0244,132,2019-08-07 16:25:26:019
4.9483,-8.0006,2.0562,-0.2335,-0.2928,-0.007,0.0102,-0.04,-0.0234,138,2019-08-07 16:25:26:025
4.9483,-8.0006,2.0562,-0.2335,-0.2928,-0.007,0.0102,-0.04,-0.0234,143,2019-08-07 16:25:26:030
5.0535,-8.0435,2.0562,-0.3066,-0.2837,0.0245,0.0038,-0.0432,-0.0212,147,2019-08-07 16:25:26:034
5.0535,-8.0435,2.0562,-0.3066,-0.2837,0.0245,0.0038,-0.0432,-0.0212,153,2019-08-07 16:25:26:040
5.1061,-8.1295,2.0751,-0.3066,-0.2837,0.0245,-0.0037,-0.0453,-0.0181,157,2019-08-07 16:25:26:044
5.1061,-8.1295,2.0751,-0.3066,-0.2837,0.0245,-0.0037,-0.0453,-0.0181,163,2019-08-07 16:25:26:050
5.1061,-8.1295,2.0751,-0.3516,-0.1134,9.0E-4,-0.0058,-0.0411,-0.0149,167,2019-08-07 16:25:26:054
5.0248,-8.2058,2.0232,-0.3516,-0.1134,9.0E-4,-0.0058,-0.0411,-0.0149,173,2019-08-07 16:25:26:060
5.0248,-8.2058,2.0232,-0.2484,-0.0599,-0.0295,0.0016,-0.0251,-0.0085,177,2019-08-07 16:25:26:064
4.9865,-8.2631,2.0138,-0.2484,-0.0599,-0.0295,0.0016,-0.0251,-0.0085,184,2019-08-07 16:25:26:071
4.9865,-8.2631,2.0138,-0.2484,-0.0599,-0.0295,0.0102,-0.023,-0.0074,187,2019-08-07 16:25:26:074
4.9865,-8.2631,2.0138,-0.2484,-0.0599,-0.0295,0.0102,-0.023,-0.0074,193,2019-08-07 16:25:26:080
5.0009,-8.2058,2.0421,-0.1826,-0.1058,0.0498,0.0144,-0.0208,-0.0053,198,2019-08-07 16:25:26:085
5.0009,-8.2058,2.0421,-0.1826,-0.1058,0.0498,0.0144,-0.0208,-0.0053,203,2019-08-07 16:25:26:090
5.0009,-8.2058,2.0421,-0.1826,-0.1058,0.0498,0.0144,-0.0208,-0.0053,208,2019-08-07 16:25:26:095
4.8813,-8.1772,2.0515,-0.1826,-0.1058,0.0498,0.0187,-0.0134,-0.0085,213,2019-08-07 16:25:26:100
4.8813,-8.1772,2.0515,-0.098,-0.2087,0.0179,0.0187,-0.0134,-0.0085,218,2019-08-07 16:25:26:105
4.8765,-8.2011,1.9855,-0.098,-0.2087,0.0179,0.0219,-0.0134,-0.0127,222,2019-08-07 16:25:26:109
4.8765,-8.2011,1.9855,-0.096,-0.1595,0.0097,0.0219,-0.0134,-0.0127,228,2019-08-07 16:25:26:115
4.8765,-8.2011,1.9855,-0.096,-0.1595,0.0097,0.0176,-0.0315,-0.017,233,2019-08-07 16:25:26:120
4.9291,-8.1676,2.1222,-0.096,-0.1595,0.0097,0.0176,-0.0315,-0.017,238,2019-08-07 16:25:26:125
4.9291,-8.1676,2.1222,-0.096,-0.1595,0.0097,0.0176,-0.0315,-0.017,242,2019-08-07 16:25:26:129
4.9291,-8.1676,2.1222,-0.1421,-0.151,-0.0045,0.0197,-0.0539,-0.0223,248,2019-08-07 16:25:26:135
4.9339,-8.182,2.0939,-0.1421,-0.151,-0.0045,0.0197,-0.0539,-0.0223,252,2019-08-07 16:25:26:139
4.9339,-8.182,2.0939,-0.1421,-0.151,-0.0045,0.0134,-0.072,-0.0212,258,2019-08-07 16:25:26:145
5.0248,-8.1676,2.0845,-0.1421,-0.151,-0.0045,0.0134,-0.072,-0.0212,262,2019-08-07 16:25:26:149
5.0248,-8.1676,2.0845,-0.2867,-0.0947,-0.0041,0.0144,-0.0954,-0.0223,268,2019-08-07 16:25:26:155
5.0296,-8.2058,2.0138,-0.2867,-0.0947,-0.0041,0.0144,-0.0954,-0.0223,273,2019-08-07 16:25:26:160
5.0296,-8.2058,2.0138,-0.2867,-0.0947,-0.0041,0.0144,-0.1061,-0.0234,278,2019-08-07 16:25:26:165
5.0296,-8.2058,2.0138,-0.2867,-0.0947,-0.0041,0.0144,-0.1061,-0.0234,283,2019-08-07 16:25:26:170
5.1635,-8.2011,1.9996,-0.3816,-0.1194,0.0349,0.0144,-0.1061,-0.0234,288,2019-08-07 16:25:26:175
5.1635,-8.2011,1.9996,-0.3816,-0.1194,0.0349,0.0134,-0.1178,-0.0031,293,2019-08-07 16:25:26:180
5.2161,-8.2202,2.0279,-0.3816,-0.1194,0.0349,0.0219,-0.1029,0.0096,298,2019-08-07 16:25:26:185
5.2161,-8.2202,2.0279,-0.3816,-0.1194,0.0349,0.0219,-0.1029,0.0096,303,2019-08-07 16:25:26:190
5.2161,-8.2202,2.0279,-0.4133,-0.0794,-0.0153,0.0219,-0.1029,0.0096,308,2019-08-07 16:25:26:195
5.2401,-8.2727,1.9949,-0.4133,-0.0794,-0.0153,0.04,-0.0816,0.0288,313,2019-08-07 16:25:26:200
5.2401,-8.2727,1.9949,-0.4133,-0.0794,-0.0153,0.04,-0.0816,0.0288,317,2019-08-07 16:25:26:204
5.2401,-8.2727,1.9949,-0.4133,-0.0794,-0.0153,0.0506,-0.0422,0.0352,323,2019-08-07 16:25:26:210
5.1826,-8.2297,2.0515,-0.3369,-0.0695,-0.0892,0.0506,-0.0422,0.0352,329,2019-08-07 16:25:26:216
5.1826,-8.2297,2.0515,-0.3369,-0.0695,-0.0892,0.056,-0.0155,0.0331,333,2019-08-07 16:25:26:220
5.1826,-8.2297,2.0515,-0.3369,-0.0695,-0.0892,0.056,-0.0155,0.0331,338,2019-08-07 16:25:26:225
5.0104,-8.1629,2.1646,-0.3369,-0.0695,-0.0892,0.056,-0.0155,0.0331,343,2019-08-07 16:25:26:230
5.0104,-8.1629,2.1646,-0.1774,-0.1599,-0.1605,0.0464,0.0079,0.0278,348,2019-08-07 16:25:26:235
4.9673,-8.1199,2.1976,-0.1774,-0.1599,-0.1605,0.0464,0.0079,0.0278,353,2019-08-07 16:25:26:240
4.9673,-8.1199,2.1976,-0.1774,-0.1599,-0.1605,0.0347,0.0026,0.0214,358,2019-08-07 16:25:26:245
4.9673,-8.1199,2.1976,-0.1774,-0.1599,-0.1605,0.0347,0.0026,0.0214,363,2019-08-07 16:25:26:250
4.9386,-8.1008,2.2165,-0.1699,-0.2071,-0.1535,0.0208,-0.0198,0.0171,367,2019-08-07 16:25:26:254
4.9386,-8.1008,2.2165,-0.1699,-0.2071,-0.1535,0.0208,-0.0198,0.0171,373,2019-08-07 16:25:26:260
4.953,-8.1342,2.1788,-0.1699,-0.2071,-0.1535,0.0102,-0.0507,0.0139,379,2019-08-07 16:25:26:266
4.953,-8.1342,2.1788,-0.1699,-0.2071,-0.1535,0.0102,-0.0507,0.0139,383,2019-08-07 16:25:26:270
4.953,-8.1342,2.1788,-0.3643,-0.1878,-0.1048,0.0027,-0.0986,0.0192,388,2019-08-07 16:25:26:275
5.1731,-8.1342,2.1363,-0.3643,-0.1878,-0.1048,0.0027,-0.0986,0.0192,393,2019-08-07 16:25:26:280
5.1731,-8.1342,2.1363,-0.3643,-0.1878,-0.1048,0.0027,-0.0986,0.0192,397,2019-08-07 16:25:26:284
5.24,-8.1056,1.9761,-0.3643,-0.1878,-0.1048,0.0059,-0.1157,0.0278,403,2019-08-07 16:25:26:290
5.24,-8.1056,1.9761,-0.3643,-0.1878,-0.1048,0.0059,-0.1157,0.0278,408,2019-08-07 16:25:26:295
5.24,-8.1056,1.9761,-0.5376,-0.2215,0.0408,0.0102,-0.0986,0.0352,412,2019-08-07 16:25:26:299
5.3596,-8.1199,1.9949,-0.5376,-0.2215,0.0408,0.0102,-0.0986,0.0352,418,2019-08-07 16:25:26:305
5.3596,-8.1199,1.9949,-0.5376,-0.2215,0.0408,0.0144,-0.0496,0.0523,423,2019-08-07 16:25:26:310
5.4027,-8.1724,1.9619,-0.5376,-0.2215,0.0408,0.0144,-0.0496,0.0523,428,2019-08-07 16:25:26:315
5.4027,-8.1724,1.9619,-0.586,-0.1134,0.0728,0.0144,-0.0496,0.0523,433,2019-08-07 16:25:26:320
5.4027,-8.1724,1.9619,-0.586,-0.1134,0.0728,0.0197,0.0068,0.0586,438,2019-08-07 16:25:26:325
5.2544,-8.244,2.0091,-0.586,-0.1134,0.0728,0.0197,0.0068,0.0586,443,2019-08-07 16:25:26:330
5.2544,-8.244,2.0091,-0.586,-0.1134,0.0728,0.0293,0.0484,0.0597,448,2019-08-07 16:25:26:335
5.0869,-8.2536,2.1175,-0.3879,-0.0878,-0.0632,0.0293,0.0484,0.0597,453,2019-08-07 16:25:26:340
5.0869,-8.2536,2.1175,-0.3879,-0.0878,-0.0632,0.0293,0.0559,0.0576,458,2019-08-07 16:25:26:345
5.0869,-8.2536,2.1175,-0.3879,-0.0878,-0.0632,0.0293,0.0559,0.0576,463,2019-08-07 16:25:26:350
4.9386,-8.2536,2.1835,-0.3879,-0.0878,-0.0632,0.0315,0.0484,0.0501,468,2019-08-07 16:25:26:355
4.9386,-8.2536,2.1835,-0.1443,-0.0956,-0.104,0.0315,0.0484,0.0501,472,2019-08-07 16:25:26:359
4.9386,-8.2536,2.1835,-0.1443,-0.0956,-0.104,0.0261,0.0271,0.0491,478,2019-08-07 16:25:26:365
4.8573,-8.1533,2.0845,-0.1443,-0.0956,-0.104,0.0261,0.0271,0.0491,483,2019-08-07 16:25:26:370
4.8573,-8.1533,2.0845,-0.1443,-0.0956,-0.104,0.0261,0.0271,0.0491,488,2019-08-07 16:25:26:375
4.8573,-8.1533,2.0845,-0.0849,-0.1891,-0.0928,0.0197,-0.0187,0.0416,493,2019-08-07 16:25:26:380
4.8764,-8.1294,2.1693,-0.0849,-0.1891,-0.0928,0.0197,-0.0187,0.0416,498,2019-08-07 16:25:26:385
4.8764,-8.1294,2.1693,-0.0849,-0.1891,-0.0928,0.0176,-0.0358,0.0416,502,2019-08-07 16:25:26:389
5.0773,-8.1772,2.0703,-0.0849,-0.1891,-0.0928,0.0176,-0.0358,0.0416,508,2019-08-07 16:25:26:395
5.0773,-8.1772,2.0703,-0.3516,-0.2006,0.0301,0.0134,-0.0411,0.0373,513,2019-08-07 16:25:26:400
5.0773,-8.1772,2.0703,-0.3516,-0.2006,0.0301,0.0134,-0.0411,0.0373,518,2019-08-07 16:25:26:405
5.1634,-8.1438,2.0656,-0.3516,-0.2006,0.0301,0.008,-0.0166,0.0341,523,2019-08-07 16:25:26:410
5.1634,-8.1438,2.0656,-0.3516,-0.2006,0.0301,0.008,-0.0166,0.0341,528,2019-08-07 16:25:26:415
5.1491,-8.182,2.0185,-0.4015,-0.1685,0.0341,0.008,0.0068,0.0363,533,2019-08-07 16:25:26:420
5.1491,-8.182,2.0185,-0.4015,-0.1685,0.0341,0.008,0.0068,0.0363,538,2019-08-07 16:25:26:425
5.1491,-8.182,2.0185,-0.4015,-0.1685,0.0341,0.008,0.0068,0.0363,543,2019-08-07 16:25:26:430
5.1347,-8.2297,2.0326,-0.4015,-0.1685,0.0341,0.007,0.0186,0.0416,548,2019-08-07 16:25:26:435
5.1347,-8.2297,2.0326,-0.3869,-0.1228,-0.0013,0.007,0.0186,0.0416,553,2019-08-07 16:25:26:440
5.0438,-8.182,2.0798,-0.3869,-0.1228,-0.0013,0.0112,0.0175,0.0384,558,2019-08-07 16:25:26:445
5.0438,-8.182,2.0798,-0.3869,-0.1228,-0.0013,0.0112,0.0175,0.0384,563,2019-08-07 16:25:26:450
5.0438,-8.182,2.0798,-0.3869,-0.1228,-0.0013,0.008,0.0218,0.0448,568,2019-08-07 16:25:26:455
5.039,-8.2201,2.0468,-0.2921,-0.1157,0.0066,0.008,0.0218,0.0448,573,2019-08-07 16:25:26:460
5.039,-8.2201,2.0468,-0.2921,-0.1157,0.0066,0.007,0.0196,0.0555,577,2019-08-07 16:25:26:464
5.1012,-8.2822,2.0939,-0.3581,-0.0554,-0.0389,0.007,0.0196,0.0555,583,2019-08-07 16:25:26:470
5.1012,-8.2822,2.0939,-0.3581,-0.0554,-0.0389,0.0176,0.0345,0.0469,588,2019-08-07 16:25:26:475
5.1012,-8.2822,2.0939,-0.3581,-0.0554,-0.0389,0.0176,0.0345,0.0469,593,2019-08-07 16:25:26:480
4.9721,-8.3013,2.1835,-0.3581,-0.0554,-0.0389,0.0251,0.0473,0.0416,598,2019-08-07 16:25:26:485
4.9721,-8.3013,2.1835,-0.2079,-0.0581,0.0057,0.0251,0.0473,0.0416,603,2019-08-07 16:25:26:490
4.9721,-8.3013,2.1835,-0.2079,-0.0581,0.0057,0.0251,0.0473,0.0416,607,2019-08-07 16:25:26:494
4.9433,-8.2727,1.9996,-0.2079,-0.0581,0.0057,0.0197,0.0601,0.0288,613,2019-08-07 16:25:26:500
4.9433,-8.2727,1.9996,-0.2079,-0.0581,0.0057,0.0197,0.0601,0.0288,618,2019-08-07 16:25:26:505
4.9433,-8.2727,1.9996,-0.1847,-0.1019,0.0053,0.0197,0.0601,0.0288,622,2019-08-07 16:25:26:509
4.9099,-8.2631,2.0185,-0.1847,-0.1019,0.0053,0.0165,0.0729,0.0128,628,2019-08-07 16:25:26:515
4.9099,-8.2631,2.0185,-0.1847,-0.1019,0.0053,0.0229,0.0782,0.0075,634,2019-08-07 16:25:26:521
4.8189,-8.2345,2.0326,-0.1847,-0.1019,0.0053,0.0229,0.0782,0.0075,638,2019-08-07 16:25:26:525
4.8189,-8.2345,2.0326,-0.1847,-0.1019,0.0053,0.0229,0.0782,0.0075,642,2019-08-07 16:25:26:529
4.6946,-8.3061,1.9902,-0.0548,-0.0921,0.0439,0.0261,0.0772,0.0075,649,2019-08-07 16:25:26:536
4.6946,-8.3061,1.9902,-0.0548,-0.0921,0.0439,0.0261,0.0772,0.0075,652,2019-08-07 16:25:26:539
4.6946,-8.3061,1.9902,-0.0548,-0.0921,0.0439,0.0315,0.0612,-0.001,658,2019-08-07 16:25:26:545
4.6754,-8.3108,2.0515,0.0474,-0.029,0.0409,0.0315,0.0612,-0.001,663,2019-08-07 16:25:26:550
4.6754,-8.3108,2.0515,0.0474,-0.029,0.0409,0.0357,0.0228,-0.001,668,2019-08-07 16:25:26:555
4.6754,-8.3108,2.0515,0.0474,-0.029,0.0409,0.0357,0.0228,-0.001,673,2019-08-07 16:25:26:560
4.7089,-8.2917,2.0232,0.0474,-0.029,0.0409,0.0368,0.01,-0.0021,678,2019-08-07 16:25:26:565
4.7089,-8.2917,2.0232,-0.0247,-0.0846,0.0719,0.0368,0.01,-0.0021,682,2019-08-07 16:25:26:569
4.685,-8.2536,1.9902,-0.0247,-0.0846,0.0719,0.0368,0.01,-0.0021,688,2019-08-07 16:25:26:575
4.685,-8.2536,1.9902,-0.0247,-0.0846,0.0719,0.0379,0.025,-0.0095,693,2019-08-07 16:25:26:580
4.685,-8.2536,1.9902,-0.0247,-0.0846,0.0719,0.0379,0.025,-0.0095,698,2019-08-07 16:25:26:585
4.5797,-8.1581,2.0845,0.1961,-0.1442,0.0897,0.0379,0.0313,-0.017,703,2019-08-07 16:25:26:590
4.5797,-8.1581,2.0845,0.1961,-0.1442,0.0897,0.0379,0.0313,-0.017,707,2019-08-07 16:25:26:594
4.4266,-8.1629,2.0373,0.1961,-0.1442,0.0897,0.04,0.0473,-0.0298,713,2019-08-07 16:25:26:600
4.4266,-8.1629,2.0373,0.1961,-0.1442,0.0897,0.04,0.0473,-0.0298,718,2019-08-07 16:25:26:605
4.4266,-8.1629,2.0373,0.5132,-0.155,0.1147,0.0347,0.0601,-0.0468,723,2019-08-07 16:25:26:610
4.1635,-8.1867,2.1222,0.5132,-0.155,0.1147,0.0347,0.0601,-0.0468,728,2019-08-07 16:25:26:615
4.1635,-8.1867,2.1222,0.5132,-0.155,0.1147,0.0251,0.0441,-0.0692,734,2019-08-07 16:25:26:621
4.1635,-8.1867,2.1222,0.5132,-0.155,0.1147,0.0251,0.0441,-0.0692,737,2019-08-07 16:25:26:624
4.0391,-8.1151,2.0845,0.6958,-0.1829,0.0483,0.0155,0.0175,-0.0884,743,2019-08-07 16:25:26:630
4.0391,-8.1151,2.0845,0.6958,-0.1829,0.0483,0.0155,0.0175,-0.0884,748,2019-08-07 16:25:26:635
3.9147,-8.1199,1.9666,0.6958,-0.1829,0.0483,0.0155,0.0175,-0.0884,753,2019-08-07 16:25:26:640
3.9147,-8.1199,1.9666,0.6958,-0.1829,0.0483,0.0155,0.0175,-0.0884,758,2019-08-07 16:25:26:645
3.9147,-8.1199,1.9666,0.966,-0.2423,0.1028,0.0144,-0.0059,-0.1267,763,2019-08-07 16:25:26:650
3.7425,-8.0483,2.042,0.966,-0.2423,0.1028,0.0144,-0.0059,-0.1267,768,2019-08-07 16:25:26:655
3.7425,-8.0483,2.042,0.966,-0.2423,0.1028,0.0155,-0.0453,-0.1885,773,2019-08-07 16:25:26:660
3.7425,-8.0483,2.042,0.966,-0.2423,0.1028,0.0155,-0.0453,-0.1885,778,2019-08-07 16:25:26:665
3.5272,-7.8764,2.009,0.966,-0.2423,0.1028,0.0155,-0.0453,-0.1885,782,2019-08-07 16:25:26:669
3.5272,-7.8764,2.009,1.2685,-0.5213,0.1121,0.0165,-0.0933,-0.2236,788,2019-08-07 16:25:26:675
3.5272,-7.8764,2.009,1.2685,-0.5213,0.1121,0.0165,-0.0933,-0.2236,793,2019-08-07 16:25:26:680
3.4697,-7.6902,1.9572,1.2685,-0.5213,0.1121,0.0144,-0.1274,-0.2535,798,2019-08-07 16:25:26:685
3.4697,-7.6902,1.9572,1.2685,-0.5213,0.1121,0.0144,-0.1274,-0.2535,803,2019-08-07 16:25:26:690
3.2975,-7.485,1.9383,1.4833,-0.752,0.1363,0.0197,-0.1508,-0.3355,808,2019-08-07 16:25:26:695
3.2975,-7.485,1.9383,1.4833,-0.752,0.1363,0.0197,-0.1508,-0.3355,813,2019-08-07 16:25:26:700
2.953,-7.2988,1.7781,1.4833,-0.752,0.1363,0.0347,-0.1284,-0.4154,818,2019-08-07 16:25:26:705
2.953,-7.2988,1.7781,1.4833,-0.752,0.1363,0.0347,-0.1284,-0.4154,823,2019-08-07 16:25:26:710
2.953,-7.2988,1.7781,2.0712,-1.0186,0.4209,0.0485,-0.1018,-0.5155,827,2019-08-07 16:25:26:714
2.5607,-7.0219,1.6743,2.0712,-1.0186,0.4209,0.0485,-0.1018,-0.5155,834,2019-08-07 16:25:26:721
2.5607,-7.0219,1.6743,2.0712,-1.0186,0.4209,0.089,-0.0667,-0.654,838,2019-08-07 16:25:26:725
2.5607,-7.0219,1.6743,2.0712,-1.0186,0.4209,0.089,-0.0667,-0.654,843,2019-08-07 16:25:26:730
1.8574,-6.6925,1.5376,3.2189,-1.5679,0.6129,0.089,-0.0667,-0.654,848,2019-08-07 16:25:26:735
1.8574,-6.6925,1.5376,3.2189,-1.5679,0.6129,0.1156,-0.04,-0.7712,853,2019-08-07 16:25:26:740
0.6279,-5.9764,0.9201,3.2189,-1.5679,0.6129,0.1156,-0.04,-0.7712,858,2019-08-07 16:25:26:745
0.6279,-5.9764,0.9201,3.2189,-1.5679,0.6129,0.0932,-0.0358,-0.8532,863,2019-08-07 16:25:26:750
0.6279,-5.9764,0.9201,4.7477,-2.2815,1.2893,0.0932,-0.0358,-0.8532,867,2019-08-07 16:25:26:754
-0.0467,-5.7712,0.7033,4.7477,-2.2815,1.2893,0.0879,-0.0539,-1.0173,873,2019-08-07 16:25:26:760
-0.0467,-5.7712,0.7033,4.7477,-2.2815,1.2893,0.0879,-0.0539,-1.0173,879,2019-08-07 16:25:26:766
-1.0897,-5.838,0.2602,6.476,-2.142,2.137,0.1412,-0.0773,-1.2314,884,2019-08-07 16:25:26:771
-1.0897,-5.838,0.2602,6.476,-2.142,2.137,0.1412,-0.0773,-1.2314,887,2019-08-07 16:25:26:774
-1.0897,-5.838,0.2602,6.476,-2.142,2.137,0.1412,-0.0773,-1.2314,893,2019-08-07 16:25:26:780
-2.1565,-6.1292,-0.4327,6.476,-2.142,2.137,0.2126,-0.04,-1.5286,897,2019-08-07 16:25:26:784
-2.1565,-6.1292,-0.4327,6.476,-2.142,2.137,0.2126,-0.04,-1.5286,903,2019-08-07 16:25:26:790
-3.2713,-7.2272,-1.4698,8.4214,-0.9573,3.4279,0.3287,0.0782,-2.09,907,2019-08-07 16:25:26:794
-3.2713,-7.2272,-1.4698,8.4214,-0.9573,3.4279,0.3287,0.0782,-2.09,913,2019-08-07 16:25:26:800
-3.2713,-7.2272,-1.4698,8.4214,-0.9573,3.4279,0.3489,0.369,-2.7387,918,2019-08-07 16:25:26:805
-4.9649,-9.0842,-2.8226,8.4214,-0.9573,3.4279,0.3489,0.369,-2.7387,923,2019-08-07 16:25:26:810
-4.9649,-9.0842,-2.8226,11.6547,2.3336,5.5708,0.2978,0.8644,-3.5462,928,2019-08-07 16:25:26:815
-7.6776,-11.2229,-4.3122,11.6547,2.3336,5.5708,0.2978,0.8644,-3.5462,932,2019-08-07 16:25:26:819
-7.6776,-11.2229,-4.3122,11.6547,2.3336,5.5708,0.2978,0.8644,-3.5462,938,2019-08-07 16:25:26:825
-7.6776,-11.2229,-4.3122,11.6547,2.3336,5.5708,0.2211,1.609,-4.7436,942,2019-08-07 16:25:26:829
-9.9692,-12.7839,-6.5607,16.9114,6.0231,9.6321,0.2211,1.609,-4.7436,948,2019-08-07 16:25:26:835
-9.9692,-12.7839,-6.5607,16.9114,6.0231,9.6321,0.2839,2.2354,-5.3103,953,2019-08-07 16:25:26:840
-9.9692,-12.7839,-6.5607,16.9114,6.0231,9.6321,0.2839,2.2354,-5.3103,957,2019-08-07 16:25:26:844
-16.0883,-16.0635,-11.9109,16.9114,6.0231,9.6321,0.4043,3.1451,-5.5489,963,2019-08-07 16:25:26:850
-16.0883,-16.0635,-11.9109,25.4015,12.0267,14.9243,0.4043,3.1451,-5.5489,968,2019-08-07 16:25:26:855
-22.1308,-22.174,-11.6846,25.4015,12.0267,14.9243,0.9657,4.8346,-5.7683,974,2019-08-07 16:25:26:861
-22.1308,-22.174,-11.6846,29.6037,16.8119,14.0028,0.9657,4.8346,-5.7683,979,2019-08-07 16:25:26:866
-22.1308,-22.174,-11.6846,29.6037,16.8119,14.0028,1.9308,5.6016,-5.9409,983,2019-08-07 16:25:26:870
-22.6857,-27.1197,-7.8381,29.6037,16.8119,14.0028,1.9308,5.6016,-5.9409,988,2019-08-07 16:25:26:875
-22.6857,-27.1197,-7.8381,29.6037,16.8119,14.0028,1.9308,5.6016,-5.9409,993,2019-08-07 16:25:26:880
-18.9636,-29.1008,-3.7654,26.266,24.0737,7.9654,3.3966,5.2107,-6.4363,998,2019-08-07 16:25:26:885
-18.9636,-29.1008,-3.7654,26.266,24.0737,7.9654,3.3966,5.2107,-6.4363,1003,2019-08-07 16:25:26:890
-18.9636,-29.1008,-3.7654,26.266,24.0737,7.9654,6.5509,2.0319,-8.1503,1008,2019-08-07 16:25:26:895
-12.8972,-23.3484,0.2319,26.266,24.0737,7.9654,6.5509,2.0319,-8.1503,1013,2019-08-07 16:25:26:900
-12.8972,-23.3484,0.2319,19.812,16.5428,8.2761,8.7943,-0.496,-9.3764,1019,2019-08-07 16:25:26:906
-12.8972,-23.3484,0.2319,19.812,16.5428,8.2761,8.7943,-0.496,-9.3764,1023,2019-08-07 16:25:26:910
-9.9166,-15.9108,-3.2186,19.812,16.5428,8.2761,10.4838,-1.5506,-10.4768,1027,2019-08-07 16:25:26:914
-9.9166,-15.9108,-3.2186,19.812,16.5428,8.2761,10.4838,-1.5506,-10.4768,1034,2019-08-07 16:25:26:921
-9.2181,-11.6716,-17.2139,17.4621,11.0984,22.5001,11.8644,0.5437,-11.6252,1037,2019-08-07 16:25:26:924
-9.2181,-11.6716,-17.2139,17.4621,11.0984,22.5001,11.8644,0.5437,-11.6252,1043,2019-08-07 16:25:26:930
-9.2181,-11.6716,-17.2139,17.4621,11.0984,22.5001,12.3992,4.4959,-13.0846,1047,2019-08-07 16:25:26:934
-4.3047,-5.6948,-20.9991,17.4621,11.0984,22.5001,12.3992,4.4959,-13.0846,1053,2019-08-07 16:25:26:940
-4.3047,-5.6948,-20.9991,16.2379,-31.3176,13.4026,13.6604,6.8799,-14.3405,1057,2019-08-07 16:25:26:944
-23.8053,133.147,98.1707,16.2379,-31.3176,13.4026,13.6604,6.8799,-14.3405,1064,2019-08-07 16:25:26:951
-23.8053,133.147,98.1707,16.2379,-31.3176,13.4026,18.5521,-3.8377,-11.5591,1068,2019-08-07 16:25:26:955
-23.8053,133.147,98.1707,16.2379,-31.3176,13.4026,18.5521,-3.8377,-11.5591,1072,2019-08-07 16:25:26:959
-23.8053,133.147,98.1707,16.2379,-31.3176,13.4026,18.5521,-3.8377,-11.5591,1078,2019-08-07 16:25:26:965
-27.3791,155.9086,-7.0981,21.5088,-121.3314,29.9783,13.1864,-5.9395,-9.3455,1083,2019-08-07 16:25:26:970
-27.3791,155.9086,-7.0981,21.5088,-121.3314,29.9783,13.1864,-5.9395,-9.3455,1088,2019-08-07 16:25:26:975
-27.3791,155.9086,-7.0981,21.5088,-121.3314,29.9783,1.5399,-13.637,-0.7605,1092,2019-08-07 16:25:26:979
12.7224,55.4006,-79.9924,-16.5261,-46.3194,62.572,1.5399,-13.637,-0.7605,1098,2019-08-07 16:25:26:985
12.7224,55.4006,-79.9924,-16.5261,-46.3194,62.572,-5.8935,-17.9695,2.6962,1103,2019-08-07 16:25:26:990
12.7224,55.4006,-79.9924,-16.5261,-46.3194,62.572,-5.8935,-17.9695,2.6962,1108,2019-08-07 16:25:26:995
26.4149,40.6256,-22.3472,-19.5182,-33.7174,23.3215,-9.9192,-12.4173,6.2926,1113,2019-08-07 16:25:27:000
26.4149,40.6256,-22.3472,-19.5182,-33.7174,23.3215,-9.9192,-12.4173,6.2926,1118,2019-08-07 16:25:27:005
26.4149,40.6256,-22.3472,-19.5182,-33.7174,23.3215,-11.8782,-2.4337,7.3131,1123,2019-08-07 16:25:27:010
26.4149,40.6256,-22.3472,-19.5182,-33.7174,23.3215,-11.8782,-2.4337,7.3131,1129,2019-08-07 16:25:27:016
65.5595,-16.1303,109.9929,-57.0005,25.0666,-133.5503,-11.8782,-2.4337,7.3131,1133,2019-08-07 16:25:27:020
65.5595,-16.1303,109.9929,-57.0005,25.0666,-133.5503,-3.3124,-6.879,4.1908,1138,2019-08-07 16:25:27:025
65.5595,-16.1303,109.9929,-57.0005,25.0666,-133.5503,-3.3124,-6.879,4.1908,1143,2019-08-07 16:25:27:030
14.4591,10.6699,3.9747,-57.0005,25.0666,-133.5503,2.6914,-5.3173,3.8627,1148,2019-08-07 16:25:27:035
14.4591,10.6699,3.9747,-3.6933,-10.2976,7.6324,2.6914,-5.3173,3.8627,1152,2019-08-07 16:25:27:039
14.4591,10.6699,3.9747,-3.6933,-10.2976,7.6324,8.1903,7.4147,5.9091,1158,2019-08-07 16:25:27:045
11.4593,19.4776,-19.4718,-3.6933,-10.2976,7.6324,8.1903,7.4147,5.9091,1162,2019-08-07 16:25:27:049
11.4593,19.4776,-19.4718,-3.6933,-10.2976,7.6324,7.5128,12.4928,6.9743,1168,2019-08-07 16:25:27:055
11.4593,19.4776,-19.4718,-4.6625,-32.3971,-36.7855,7.5128,12.4928,6.9743,1172,2019-08-07 16:25:27:059
24.0754,22.361,-8.96,-4.6625,-32.3971,-36.7855,-5.0E-4,1.0955,6.6377,1178,2019-08-07 16:25:27:065
24.0754,22.361,-8.96,-4.6625,-32.3971,-36.7855,-5.0E-4,1.0955,6.6377,1183,2019-08-07 16:25:27:070
10.4164,27.6742,-20.3957,-4.6625,-32.3971,-36.7855,-5.0E-4,1.0955,6.6377,1188,2019-08-07 16:25:27:075
10.4164,27.6742,-20.3957,-3.932,-22.6554,14.0902,-3.1345,-2.6893,5.4691,1193,2019-08-07 16:25:27:080
10.4164,27.6742,-20.3957,-3.932,-22.6554,14.0902,-3.1345,-2.6893,5.4691,1198,2019-08-07 16:25:27:085
4.7518,18.4512,-7.7062,4.6329,-16.3129,9.601,-4.6014,-1.2757,5.3274,1204,2019-08-07 16:25:27:091
4.7518,18.4512,-7.7062,4.6329,-16.3129,9.601,-4.6014,-1.2757,5.3274,1208,2019-08-07 16:25:27:095
10.3781,8.1254,34.2373,4.6329,-16.3129,9.601,-4.4107,0.9933,6.0987,1213,2019-08-07 16:25:27:100
10.3781,8.1254,34.2373,4.6329,-16.3129,9.601,-4.4107,0.9933,6.0987,1217,2019-08-07 16:25:27:104
10.3781,8.1254,34.2373,0.3673,-2.1799,-14.556,-1.0157,-4.6377,6.4204,1223,2019-08-07 16:25:27:110
9.2729,-0.687,5.6339,0.3673,-2.1799,-14.556,-1.0157,-4.6377,6.4204,1227,2019-08-07 16:25:27:114
9.2729,-0.687,5.6339,0.3673,-2.1799,-14.556,0.5769,-2.7117,6.4524,1233,2019-08-07 16:25:27:120
15.3345,-7.084,-0.4752,0.3673,-2.1799,-14.556,0.5769,-2.7117,6.4524,1238,2019-08-07 16:25:27:125
15.3345,-7.084,-0.4752,-6.1921,7.1466,1.9726,0.5769,-2.7117,6.4524,1243,2019-08-07 16:25:27:130
14.6552,-7.6568,-2.9829,-6.1921,7.1466,1.9726,0.4277,-1.7263,5.8835,1248,2019-08-07 16:25:27:135
14.6552,-7.6568,-2.9829,-6.1921,7.1466,1.9726,0.4277,-1.7263,5.8835,1253,2019-08-07 16:25:27:140
14.6552,-7.6568,-2.9829,-6.1921,7.1466,1.9726,-0.4064,-0.5109,5.1133,1258,2019-08-07 16:25:27:145
9.9714,-6.4681,-1.0455,-0.3325,4.9399,2.0413,-0.4064,-0.5109,5.1133,1263,2019-08-07 16:25:27:150
9.9714,-6.4681,-1.0455,-0.3325,4.9399,2.0413,-0.3158,0.1549,5.0398,1267,2019-08-07 16:25:27:154
9.9714,-6.4681,-1.0455,-0.3325,4.9399,2.0413,-0.3158,0.1549,5.0398,1273,2019-08-07 16:25:27:160
9.9714,-6.4681,-1.0455,-0.3325,4.9399,2.0413,-0.3158,0.1549,5.0398,1277,2019-08-07 16:25:27:164
6.3354,-5.9096,5.7235,3.4449,3.6195,-2.721,0.3223,0.1294,5.1378,1283,2019-08-07 16:25:27:170
6.3354,-5.9096,5.7235,3.4449,3.6195,-2.721,0.3223,0.1294,5.1378,1288,2019-08-07 16:25:27:175
6.1966,-5.8428,2.98,3.4449,3.6195,-2.721,0.3223,0.1294,5.1378,1293,2019-08-07 16:25:27:180
6.1966,-5.8428,2.98,3.4449,3.6195,-2.721,0.8943,0.9475,5.287,1298,2019-08-07 16:25:27:185
6.2732,-3.9762,2.9046,2.7547,0.8193,-1.6804,0.8943,0.9475,5.287,1303,2019-08-07 16:25:27:190
6.2732,-3.9762,2.9046,2.7547,0.8193,-1.6804,0.6451,0.9145,5.1964,1308,2019-08-07 16:25:27:195
6.2732,-3.9762,2.9046,2.7547,0.8193,-1.6804,0.6451,0.9145,5.1964,1312,2019-08-07 16:25:27:199
5.7517,-2.5822,3.046,2.7547,0.8193,-1.6804,0.6056,0.9336,5.0878,1318,2019-08-07 16:25:27:205
5.7517,-2.5822,3.046,3.1008,-1.8982,-1.3456,0.6056,0.9336,5.0878,1323,2019-08-07 16:25:27:210
5.7517,-2.5822,3.046,3.1008,-1.8982,-1.3456,0.6056,0.9336,5.0878,1328,2019-08-07 16:25:27:215
5.0675,-2.8305,2.7773,3.1008,-1.8982,-1.3456,0.6088,1.0018,5.01,1333,2019-08-07 16:25:27:220
5.0675,-2.8305,2.7773,3.1008,-1.8982,-1.3456,0.6088,1.0018,5.01,1338,2019-08-07 16:25:27:225
5.0675,-2.8305,2.7773,3.1008,-1.8982,-1.3456,0.6088,1.0018,5.01,1342,2019-08-07 16:25:27:229
3.3309,-4.1815,2.8339,4.7472,-1.0981,-1.0712,0.5226,1.1158,4.9386,1349,2019-08-07 16:25:27:236
3.3309,-4.1815,2.8339,4.7472,-1.0981,-1.0712,0.5226,1.1158,4.9386,1353,2019-08-07 16:25:27:240
1.8525,-5.0264,3.4514,4.7472,-1.0981,-1.0712,0.5502,1.234,4.896,1358,2019-08-07 16:25:27:245
1.8525,-5.0264,3.4514,5.7343,-0.8529,-1.2659,0.5502,1.234,4.896,1362,2019-08-07 16:25:27:249
1.8095,-5.4609,2.7632,5.7343,-0.8529,-1.2659,0.5833,1.4194,4.814,1369,2019-08-07 16:25:27:256
1.8095,-5.4609,2.7632,5.7343,-0.8529,-1.2659,0.5833,1.4194,4.814,1372,2019-08-07 16:25:27:259
1.8095,-5.4609,2.7632,5.7343,-0.8529,-1.2659,0.5833,1.4194,4.814,1378,2019-08-07 16:25:27:265
1.8669,-5.6518,2.3013,4.8671,-1.0857,0.043,0.5162,1.6229,4.6361,1383,2019-08-07 16:25:27:270
1.8669,-5.6518,2.3013,4.8671,-1.0857,0.043,0.5162,1.6229,4.6361,1387,2019-08-07 16:25:27:274
1.8669,-5.6518,2.3013,4.8671,-1.0857,0.043,0.3372,2.0777,4.3229,1393,2019-08-07 16:25:27:280
2.0678,-5.795,1.8534,4.2987,-1.2366,0.6486,0.3372,2.0777,4.3229,1397,2019-08-07 16:25:27:284
2.0678,-5.795,1.8534,4.2987,-1.2366,0.6486,0.1859,2.6988,3.998,1403,2019-08-07 16:25:27:290
2.0678,-5.795,1.8534,4.2987,-1.2366,0.6486,0.1859,2.6988,3.998,1408,2019-08-07 16:25:27:295
1.5033,-5.7377,1.6177,4.2792,-1.9115,1.2232,0.0645,3.3401,3.6347,1413,2019-08-07 16:25:27:300
1.5033,-5.7377,1.6177,4.2792,-1.9115,1.2232,0.0645,3.3401,3.6347,1418,2019-08-07 16:25:27:305
1.5033,-5.7377,1.6177,4.2792,-1.9115,1.2232,-0.0314,4.0666,3.1841,1423,2019-08-07 16:25:27:310
1.5033,-5.7377,1.6177,4.2792,-1.9115,1.2232,-0.0314,4.0666,3.1841,1427,2019-08-07 16:25:27:314
-0.3865,-5.2269,1.2454,6.2455,-2.7155,1.6224,-0.1379,4.3638,2.8347,1433,2019-08-07 16:25:27:320
-0.3865,-5.2269,1.2454,6.2455,-2.7155,1.6224,-0.1379,4.3638,2.8347,1437,2019-08-07 16:25:27:324
-2.4198,-5.1315,2.4615,6.2455,-2.7155,1.6224,-0.2189,4.1933,2.4672,1443,2019-08-07 16:25:27:330
-2.4198,-5.1315,2.4615,6.2455,-2.7155,1.6224,-0.2189,4.1933,2.4672,1447,2019-08-07 16:25:27:334
-3.4867,-5.2078,3.5975,7.5518,-2.9452,0.0409,-0.2412,3.5318,2.0795,1453,2019-08-07 16:25:27:340
-3.4867,-5.2078,3.5975,7.5518,-2.9452,0.0409,-0.2412,3.5318,2.0795,1458,2019-08-07 16:25:27:345
-3.4867,-5.2078,3.5975,7.5518,-2.9452,0.0409,-0.2924,2.6562,1.68,1463,2019-08-07 16:25:27:350
-3.3623,-5.2985,2.5228,7.5518,-2.9452,0.0409,-0.2924,2.6562,1.68,1468,2019-08-07 16:25:27:355
-3.3623,-5.2985,2.5228,6.0589,-3.0728,1.9052,-0.2924,2.6562,1.68,1473,2019-08-07 16:25:27:360
-2.195,-5.2269,1.613,6.0589,-3.0728,1.9052,-0.4926,1.4535,1.2209,1478,2019-08-07 16:25:27:365
-2.195,-5.2269,1.613,6.0589,-3.0728,1.9052,-0.4926,1.4535,1.2209,1483,2019-08-07 16:25:27:370
-2.195,-5.2269,1.613,6.0589,-3.0728,1.9052,-0.6503,0.7046,0.9705,1488,2019-08-07 16:25:27:375
-2.195,-5.2269,1.613,6.0589,-3.0728,1.9052,-0.6503,0.7046,0.9705,1492,2019-08-07 16:25:27:379
0.2976,-5.3463,-0.0415,2.5111,-3.0365,3.8298,-0.6503,0.7046,0.9705,1498,2019-08-07 16:25:27:385
0.2976,-5.3463,-0.0415,2.5111,-3.0365,3.8298,-0.5512,0.7962,0.7798,1503,2019-08-07 16:25:27:390
1.7281,-5.9335,0.2649,2.5111,-3.0365,3.8298,-0.5512,0.7962,0.7798,1509,2019-08-07 16:25:27:396
1.7281,-5.9335,0.2649,2.5111,-3.0365,3.8298,-0.3392,1.0529,0.5636,1513,2019-08-07 16:25:27:400
1.7281,-5.9335,0.2649,1.6457,-2.6043,3.2306,-0.3392,1.0529,0.5636,1518,2019-08-07 16:25:27:405
0.91,-5.9,0.7315,1.6457,-2.6043,3.2306,-0.3392,1.0529,0.5636,1523,2019-08-07 16:25:27:410
0.91,-5.9,0.7315,1.6457,-2.6043,3.2306,-0.0953,1.1914,0.3431,1528,2019-08-07 16:25:27:415
0.0345,-5.6423,1.4575,1.6457,-2.6043,3.2306,-0.0953,1.1914,0.3431,1533,2019-08-07 16:25:27:420
0.0345,-5.6423,1.4575,3.0957,-3.1053,2.0806,-0.0303,0.9155,0.2216,1538,2019-08-07 16:25:27:425
0.0345,-5.6423,1.4575,3.0957,-3.1053,2.0806,-0.0303,0.9155,0.2216,1543,2019-08-07 16:25:27:430
-0.3722,-5.289,1.8911,3.0957,-3.1053,2.0806,-0.0356,0.5491,0.1162,1548,2019-08-07 16:25:27:435
-0.3722,-5.289,1.8911,3.0957,-3.1053,2.0806,-0.0356,0.5491,0.1162,1552,2019-08-07 16:25:27:439
0.1349,-5.2413,1.7639,2.7701,-3.4286,1.8899,-0.1496,-0.2957,-0.1182,1558,2019-08-07 16:25:27:445
0.1349,-5.2413,1.7639,2.7701,-3.4286,1.8899,-0.1496,-0.2957,-0.1182,1563,2019-08-07 16:25:27:450
0.1349,-5.2413,1.7639,2.7701,-3.4286,1.8899,-0.2476,-0.7324,-0.2695,1568,2019-08-07 16:25:27:455
1.4171,-5.4036,1.5093,2.7701,-3.4286,1.8899,-0.2476,-0.7324,-0.2695,1572,2019-08-07 16:25:27:459
1.4171,-5.4036,1.5093,0.7368,-3.023,2.2281,-0.2828,-0.9103,-0.3792,1578,2019-08-07 16:25:27:465
2.661,-5.7664,1.4716,0.7368,-3.023,2.2281,-0.2828,-0.9103,-0.3792,1583,2019-08-07 16:25:27:470
2.661,-5.7664,1.4716,0.7368,-3.023,2.2281,-0.2828,-0.9103,-0.3792,1587,2019-08-07 16:25:27:474
2.661,-5.7664,1.4716,0.7368,-3.023,2.2281,-0.2093,-0.8837,-0.6274,1593,2019-08-07 16:25:27:480
3.8044,-6.4156,1.4056,-0.9131,-2.1373,2.0418,-0.2093,-0.8837,-0.6274,1597,2019-08-07 16:25:27:484
3.8044,-6.4156,1.4056,-0.9131,-2.1373,2.0418,-0.1305,-0.8017,-0.8138,1603,2019-08-07 16:25:27:490
3.7518,-6.7355,1.9524,-0.9131,-2.1373,2.0418,-0.1305,-0.8017,-0.8138,1607,2019-08-07 16:25:27:494
3.7518,-6.7355,1.9524,-0.9131,-2.1373,2.0418,-0.057,-0.5375,-0.9171,1613,2019-08-07 16:25:27:500
3.7518,-6.7355,1.9524,-0.3386,-1.5656,1.224,-0.057,-0.5375,-0.9171,1618,2019-08-07 16:25:27:505
3.5221,-7.1412,2.5935,-0.3386,-1.5656,1.224,-0.0442,-0.2829,-0.9406,1623,2019-08-07 16:25:27:510
3.5221,-7.1412,2.5935,-0.3386,-1.5656,1.224,-0.0442,-0.2829,-0.9406,1627,2019-08-07 16:25:27:514
3.2542,-7.2033,3.4655,-0.046,-1.4013,0.4309,-0.1422,-0.3042,-0.8862,1633,2019-08-07 16:25:27:520
3.2542,-7.2033,3.4655,-0.046,-1.4013,0.4309,-0.1422,-0.3042,-0.8862,1638,2019-08-07 16:25:27:525
3.2542,-7.2033,3.4655,-0.046,-1.4013,0.4309,-0.1422,-0.3042,-0.8862,1643,2019-08-07 16:25:27:530
3.4647,-7.3561,3.8756,-0.0419,-1.1156,-0.5114,-0.2977,-0.4161,-0.8074,1648,2019-08-07 16:25:27:535
3.4647,-7.3561,3.8756,-0.0419,-1.1156,-0.5114,-0.2977,-0.4161,-0.8074,1653,2019-08-07 16:25:27:540
3.4647,-7.3561,3.8756,-0.0419,-1.1156,-0.5114,-0.4894,-0.7548,-0.7307,1658,2019-08-07 16:25:27:545
4.1297,-7.8334,4.2952,-0.0419,-1.1156,-0.5114,-0.4894,-0.7548,-0.7307,1663,2019-08-07 16:25:27:550
4.1297,-7.8334,4.2952,-0.8949,-0.1723,-0.8765,-0.5725,-0.9561,-0.7051,1668,2019-08-07 16:25:27:555
5.1918,-8.7261,4.0925,-0.8949,-0.1723,-0.8765,-0.5725,-0.9561,-0.7051,1673,2019-08-07 16:25:27:560
5.1918,-8.7261,4.0925,-0.8949,-0.1723,-0.8765,-0.5725,-0.9561,-0.7051,1678,2019-08-07 16:25:27:565
5.1918,-8.7261,4.0925,-1.5563,0.4084,-0.8468,-0.6716,-1.1969,-0.6998,1683,2019-08-07 16:25:27:570
5.6033,-9.1558,3.673,-1.5563,0.4084,-0.8468,-0.6716,-1.1969,-0.6998,1687,2019-08-07 16:25:27:574
5.6033,-9.1558,3.673,-1.5563,0.4084,-0.8468,-0.6716,-1.1969,-0.6998,1693,2019-08-07 16:25:27:580
5.6033,-9.1558,3.673,-2.1354,0.896,-0.5981,-0.7717,-1.248,-0.6167,1698,2019-08-07 16:25:27:585
6.2826,-9.4183,3.5598,-2.1354,0.896,-0.5981,-0.7717,-1.248,-0.6167,1703,2019-08-07 16:25:27:590
6.2826,-9.4183,3.5598,-2.1354,0.896,-0.5981,-0.7654,-1.0286,-0.442,1708,2019-08-07 16:25:27:595
6.7419,-9.4374,3.3477,-2.1354,0.896,-0.5981,-0.7654,-1.0286,-0.442,1713,2019-08-07 16:25:27:600
6.7419,-9.4374,3.3477,-2.6018,0.9945,-0.494,-0.678,-0.774,-0.3291,1717,2019-08-07 16:25:27:604
6.7419,-9.4374,3.3477,-2.6018,0.9945,-0.494,-0.678,-0.774,-0.3291,1723,2019-08-07 16:25:27:610
6.5314,-9.3992,3.2063,-2.6018,0.9945,-0.494,-0.5757,-0.5034,-0.2002,1728,2019-08-07 16:25:27:615
6.5314,-9.3992,3.2063,-2.6018,0.9945,-0.494,-0.5757,-0.5034,-0.2002,1733,2019-08-07 16:25:27:620
5.9669,-9.404,3.2346,-1.7549,0.9467,-0.5947,-0.5757,-0.5034,-0.2002,1737,2019-08-07 16:25:27:624
5.9669,-9.404,3.2346,-1.7549,0.9467,-0.5947,-0.5097,-0.236,-0.0692,1743,2019-08-07 16:25:27:630
5.4789,-9.3706,3.3571,-1.2532,0.904,-0.7694,-0.4916,-0.17,-0.0244,1749,2019-08-07 16:25:27:636
5.4789,-9.3706,3.3571,-1.2532,0.904,-0.7694,-0.4916,-0.17,-0.0244,1753,2019-08-07 16:25:27:640
5.4789,-9.3706,3.3571,-1.2532,0.904,-0.7694,-0.4916,-0.17,-0.0244,1758,2019-08-07 16:25:27:645
5.0961,-9.3992,3.5315,-1.2532,0.904,-0.7694,-0.4618,-0.1774,0.0235,1763,2019-08-07 16:25:27:650
5.0961,-9.3992,3.5315,-0.8179,0.9959,-0.9926,-0.4618,-0.1774,0.0235,1768,2019-08-07 16:25:27:655
5.0961,-9.3992,3.5315,-0.8179,0.9959,-0.9926,-0.3968,-0.1679,0.0448,1772,2019-08-07 16:25:27:659
5.0723,-9.404,3.3713,-0.8501,0.8848,-0.91,-0.3968,-0.1679,0.0448,1778,2019-08-07 16:25:27:665
5.0723,-9.404,3.3713,-0.8501,0.8848,-0.91,-0.3968,-0.1679,0.0448,1782,2019-08-07 16:25:27:669
5.0723,-9.404,3.3713,-0.8501,0.8848,-0.91,-0.3009,-0.1455,0.0565,1788,2019-08-07 16:25:27:675
5.0723,-9.404,3.3713,-0.8501,0.8848,-0.91,-0.3009,-0.1455,0.0565,1793,2019-08-07 16:25:27:680
5.0436,-9.1081,3.1403,-0.7608,0.562,-0.864,-0.188,-0.0965,0.08,1799,2019-08-07 16:25:27:686
5.0436,-9.1081,3.1403,-0.7608,0.562,-0.864,-0.188,-0.0965,0.08,1803,2019-08-07 16:25:27:690
5.0436,-9.1081,3.1403,-0.7608,0.562,-0.864,-0.188,-0.0965,0.08,1808,2019-08-07 16:25:27:695
4.8666,-8.9505,3.046,-0.6362,0.4263,-0.6633,-0.1198,-0.1135,0.1204,1813,2019-08-07 16:25:27:700
4.8666,-8.9505,3.046,-0.6362,0.4263,-0.6633,-0.1198,-0.1135,0.1204,1817,2019-08-07 16:25:27:704
4.7948,-8.9362,2.8858,-0.6362,0.4263,-0.6633,-0.0665,-0.1284,0.1673,1823,2019-08-07 16:25:27:710
4.7948,-8.9362,2.8858,-0.6362,0.4263,-0.6633,-0.0665,-0.1284,0.1673,1827,2019-08-07 16:25:27:714
4.7948,-8.9362,2.8858,-0.5928,0.368,-0.4163,-0.0548,-0.1689,0.211,1833,2019-08-07 16:25:27:720
4.9862,-8.898,2.5228,-0.5928,0.368,-0.4163,-0.0548,-0.1689,0.211,1837,2019-08-07 16:25:27:724
4.9862,-8.898,2.5228,-0.5928,0.368,-0.4163,-0.0548,-0.1689,0.211,1842,2019-08-07 16:25:27:729
5.1584,-8.8789,2.2635,-0.5928,0.368,-0.4163,-0.041,-0.17,0.2365,1848,2019-08-07 16:25:27:735
5.1584,-8.8789,2.2635,-0.9739,0.3199,0.075,-0.041,-0.17,0.2365,1853,2019-08-07 16:25:27:740
5.1584,-8.8789,2.2635,-0.9739,0.3199,0.075,-0.008,-0.0528,0.2642,1858,2019-08-07 16:25:27:745
5.2637,-8.8121,1.9524,-1.0963,0.2428,0.3792,-0.008,-0.0528,0.2642,1863,2019-08-07 16:25:27:750
5.2637,-8.8121,1.9524,-1.0963,0.2428,0.3792,0.0134,0.0505,0.276,1868,2019-08-07 16:25:27:755
5.2637,-8.8121,1.9524,-1.0963,0.2428,0.3792,0.0134,0.0505,0.276,1873,2019-08-07 16:25:27:760
5.278,-8.5686,1.844,-1.0963,0.2428,0.3792,0.0368,0.2124,0.2738,1878,2019-08-07 16:25:27:765
5.278,-8.5686,1.844,-1.1217,-0.1253,0.5184,0.0368,0.2124,0.2738,1884,2019-08-07 16:25:27:771
5.1536,-8.2965,1.9053,-1.1217,-0.1253,0.5184,0.0474,0.2923,0.2717,1889,2019-08-07 16:25:27:776
5.1536,-8.2965,1.9053,-1.1217,-0.1253,0.5184,0.0474,0.2923,0.2717,1893,2019-08-07 16:25:27:780
4.9431,-8.0483,2.0656,-0.8249,-0.6629,0.259,0.0549,0.3019,0.2632,1899,2019-08-07 16:25:27:786
4.9431,-8.0483,2.0656,-0.8249,-0.6629,0.259,0.0549,0.3019,0.2632,1903,2019-08-07 16:25:27:790
4.9431,-8.0483,2.0656,-0.8249,-0.6629,0.259,0.0549,0.3019,0.2632,1908,2019-08-07 16:25:27:795
4.6656,-7.886,2.141,-0.6215,-0.7281,0.242,0.0432,0.2657,0.2589,1913,2019-08-07 16:25:27:800
4.6656,-7.886,2.141,-0.6215,-0.7281,0.242,0.0432,0.2657,0.2589,1918,2019-08-07 16:25:27:805
4.6656,-7.886,2.141,-0.6215,-0.7281,0.242,0.0091,0.1911,0.2547,1923,2019-08-07 16:25:27:810
4.6656,-7.886,2.141,-0.6215,-0.7281,0.242,0.0091,0.1911,0.2547,1928,2019-08-07 16:25:27:815
4.4264,-7.8239,2.174,-0.3788,-0.7216,0.1536,-0.0111,0.1357,0.2397,1933,2019-08-07 16:25:27:820
4.4264,-7.8239,2.174,-0.3788,-0.7216,0.1536,-0.0111,0.1357,0.2397,1938,2019-08-07 16:25:27:825
4.4264,-7.8239,2.174,-0.3788,-0.7216,0.1536,-0.0111,0.1357,0.2397,1943,2019-08-07 16:25:27:830
4.259,-7.8334,2.339,-0.3788,-0.7216,0.1536,-0.041,0.0111,0.2259,1947,2019-08-07 16:25:27:834
4.259,-7.8334,2.339,-0.4116,-0.8443,0.1099,-0.041,0.0111,0.2259,1953,2019-08-07 16:25:27:840
4.259,-7.8334,2.339,-0.4116,-0.8443,0.1099,-0.0559,-0.0752,0.2078,1958,2019-08-07 16:25:27:845
4.4408,-7.7618,2.1975,-0.5208,-0.886,0.187,-0.0559,-0.0752,0.2078,1963,2019-08-07 16:25:27:850
4.4408,-7.7618,2.1975,-0.5208,-0.886,0.187,-0.0655,-0.0635,0.178,1968,2019-08-07 16:25:27:855
4.4408,-7.7618,2.1975,-0.5208,-0.886,0.187,-0.0655,-0.0635,0.178,1972,2019-08-07 16:25:27:859
4.5604,-7.5088,2.1315,-0.5208,-0.886,0.187,-0.0793,-0.039,0.1449,1978,2019-08-07 16:25:27:865
4.5604,-7.5088,2.1315,-0.6156,-1.2333,0.3156,-0.0793,-0.039,0.1449,1983,2019-08-07 16:25:27:870
4.5604,-7.5088,2.1315,-0.6156,-1.2333,0.3156,-0.0793,-0.039,0.1449,1988,2019-08-07 16:25:27:875
4.5604,-7.5088,2.1315,-0.6156,-1.2333,0.3156,-0.0953,0.0122,0.0874,1992,2019-08-07 16:25:27:879
4.4743,-7.2988,2.2353,-0.6156,-1.2333,0.3156,-0.0953,0.0122,0.0874,1998,2019-08-07 16:25:27:885
4.4743,-7.2988,2.2353,-0.5802,-1.4274,0.125,-0.1049,-6.0E-4,0.0618,2003,2019-08-07 16:25:27:890
4.4743,-7.2988,2.2353,-0.5802,-1.4274,0.125,-0.1049,-6.0E-4,0.0618,2007,2019-08-07 16:25:27:894
4.479,-7.2892,2.2117,-0.5218,-1.4297,0.0631,-0.123,-0.0177,0.0309,2013,2019-08-07 16:25:27:900
4.479,-7.2892,2.2117,-0.5218,-1.4297,0.0631,-0.123,-0.0177,0.0309,2018,2019-08-07 16:25:27:905
4.3833,-7.442,2.4568,-0.5218,-1.4297,0.0631,-0.1528,-0.0848,-0.0202,2023,2019-08-07 16:25:27:910
4.3833,-7.442,2.4568,-0.5218,-1.4297,0.0631,-0.1528,-0.0848,-0.0202,2027,2019-08-07 16:25:27:914
4.3833,-7.442,2.4568,-0.4669,-1.1311,-0.1395,-0.1773,-0.1721,-0.0436,2034,2019-08-07 16:25:27:921
4.4312,-7.7189,2.5134,-0.4669,-1.1311,-0.1395,-0.1773,-0.1721,-0.0436,2038,2019-08-07 16:25:27:925
4.4312,-7.7189,2.5134,-0.4669,-1.1311,-0.1395,-0.1773,-0.1721,-0.0436,2043,2019-08-07 16:25:27:930
4.7661,-7.9337,2.5181,-0.6609,-0.8595,-0.2413,-0.2029,-0.2318,-0.0607,2047,2019-08-07 16:25:27:934
4.7661,-7.9337,2.5181,-0.6609,-0.8595,-0.2413,-0.2029,-0.2318,-0.0607,2053,2019-08-07 16:25:27:940
4.7661,-7.9337,2.5181,-0.6609,-0.8595,-0.2413,-0.2327,-0.2989,-0.0862,2058,2019-08-07 16:25:27:945
4.9862,-8.1485,2.5699,-1.0383,-0.5157,-0.3192,-0.2327,-0.2989,-0.0862,2062,2019-08-07 16:25:27:949
4.9862,-8.1485,2.5699,-1.0383,-0.5157,-0.3192,-0.2285,-0.285,-0.0766,2069,2019-08-07 16:25:27:956
4.9862,-8.1485,2.5699,-1.0383,-0.5157,-0.3192,-0.2285,-0.285,-0.0766,2072,2019-08-07 16:25:27:959
4.9862,-8.1485,2.5699,-1.0383,-0.5157,-0.3192,-0.2285,-0.285,-0.0766,2078,2019-08-07 16:25:27:965
5.1679,-8.3156,2.4474,-1.1357,-0.3058,-0.2451,-0.2093,-0.2243,-0.0564,2083,2019-08-07 16:25:27:970
5.1679,-8.3156,2.4474,-1.1357,-0.3058,-0.2451,-0.2093,-0.2243,-0.0564,2088,2019-08-07 16:25:27:975
5.1584,-8.4349,2.2965,-1.1357,-0.3058,-0.2451,-0.2018,-0.1764,-0.0308,2093,2019-08-07 16:25:27:980
5.1584,-8.4349,2.2965,-1.1357,-0.3058,-0.2451,-0.2018,-0.1764,-0.0308,2098,2019-08-07 16:25:27:985
5.1584,-8.4349,2.2965,-1.2204,-0.1029,-0.2362,-0.1944,-0.1157,-0.0213,2103,2019-08-07 16:25:27:990
5.278,-8.6211,2.4757,-1.2204,-0.1029,-0.2362,-0.1944,-0.1157,-0.0213,2108,2019-08-07 16:25:27:995
5.278,-8.6211,2.4757,-1.2603,-0.0178,-0.4625,-0.1816,-0.0794,-0.0276,2113,2019-08-07 16:25:28:000
5.278,-8.6211,2.4757,-1.2603,-0.0178,-0.4625,-0.1816,-0.0794,-0.0276,2118,2019-08-07 16:25:28:005
5.3593,-8.6259,2.5322,-1.2603,-0.0178,-0.4625,-0.1571,-0.0698,-0.0234,2123,2019-08-07 16:25:28:010
5.3593,-8.6259,2.5322,-1.2603,-0.0178,-0.4625,-0.1571,-0.0698,-0.0234,2127,2019-08-07 16:25:28:014
5.4024,-8.645,2.6831,-1.3507,-0.0424,-0.5977,-0.1294,-0.0656,-0.0138,2133,2019-08-07 16:25:28:020
5.4024,-8.645,2.6831,-1.3507,-0.0424,-0.5977,-0.1294,-0.0656,-0.0138,2137,2019-08-07 16:25:28:024
5.4024,-8.645,2.6831,-1.3507,-0.0424,-0.5977,-0.1294,-0.0656,-0.0138,2143,2019-08-07 16:25:28:030
5.4119,-8.5829,2.5228,-1.3538,-0.1042,-0.449,-0.1038,-0.0762,0.0086,2147,2019-08-07 16:25:28:034
5.4119,-8.5829,2.5228,-1.3538,-0.1042,-0.449,-0.1038,-0.0762,0.0086,2153,2019-08-07 16:25:28:040
5.4119,-8.5829,2.5228,-1.3538,-0.1042,-0.449,-0.0878,-0.0762,0.0395,2157,2019-08-07 16:25:28:044
5.5459,-8.6354,2.4757,-1.4664,-0.0772,-0.4503,-0.0878,-0.0762,0.0395,2163,2019-08-07 16:25:28:050
5.5459,-8.6354,2.4757,-1.4664,-0.0772,-0.4503,-0.0772,-0.0752,0.0672,2168,2019-08-07 16:25:28:055
5.5459,-8.6354,2.4757,-1.4664,-0.0772,-0.4503,-0.0772,-0.0752,0.0672,2173,2019-08-07 16:25:28:060
5.5076,-8.6498,2.5086,-1.4664,-0.0772,-0.4503,-0.0559,-0.073,0.1108,2177,2019-08-07 16:25:28:064
5.5076,-8.6498,2.5086,-1.466,-0.0445,-0.324,-0.0559,-0.073,0.1108,2183,2019-08-07 16:25:28:070
5.5076,-8.6498,2.5086,-1.466,-0.0445,-0.324,-0.0143,-0.0177,0.1439,2188,2019-08-07 16:25:28:075
5.4071,-8.5734,2.1174,-1.466,-0.0445,-0.324,-0.0143,-0.0177,0.1439,2192,2019-08-07 16:25:28:079
5.4071,-8.5734,2.1174,-1.466,-0.0445,-0.324,0.007,0.0622,0.1503,2199,2019-08-07 16:25:28:086
5.1153,-8.5447,2.0797,-1.0725,-0.158,-0.0414,0.007,0.0622,0.1503,2203,2019-08-07 16:25:28:090
5.1153,-8.5447,2.0797,-1.0725,-0.158,-0.0414,0.007,0.0622,0.1503,2208,2019-08-07 16:25:28:095
5.1153,-8.5447,2.0797,-1.0725,-0.158,-0.0414,0.0165,0.1091,0.1513,2212,2019-08-07 16:25:28:099
4.8952,-8.349,2.0797,-1.0725,-0.158,-0.0414,0.0165,0.1091,0.1513,2218,2019-08-07 16:25:28:105
4.8952,-8.349,2.0797,-0.8046,-0.5095,-0.0418,0.0368,0.1315,0.1439,2223,2019-08-07 16:25:28:110
4.8952,-8.349,2.0797,-0.8046,-0.5095,-0.0418,0.0368,0.1315,0.1439,2227,2019-08-07 16:25:28:114
4.8282,-8.201,2.0514,-0.8046,-0.5095,-0.0418,0.0549,0.1624,0.1204,2233,2019-08-07 16:25:28:120
4.8282,-8.201,2.0514,-0.8046,-0.5095,-0.0418,0.0549,0.1624,0.1204,2238,2019-08-07 16:25:28:125
4.7708,-7.8907,2.2258,-0.8046,-0.5095,-0.0418,0.0549,0.1624,0.1204,2242,2019-08-07 16:25:28:129
4.7708,-7.8907,2.2258,-0.7669,-0.8662,-0.2251,0.0709,0.1528,0.0938,2248,2019-08-07 16:25:28:135
4.7708,-7.8907,2.2258,-0.7669,-0.8662,-0.2251,0.0709,0.1528,0.0938,2253,2019-08-07 16:25:28:140
4.8234,-7.6473,2.2352,-0.7669,-0.8662,-0.2251,0.0592,0.14,0.0736,2258,2019-08-07 16:25:28:145
4.8234,-7.6473,2.2352,-0.7669,-0.8662,-0.2251,0.0592,0.14,0.0736,2263,2019-08-07 16:25:28:150
4.7756,-7.6282,2.0608,-0.783,-1.0994,0.0162,0.024,0.1198,0.0586,2269,2019-08-07 16:25:28:156
4.7756,-7.6282,2.0608,-0.783,-1.0994,0.0162,0.024,0.1198,0.0586,2272,2019-08-07 16:25:28:159
4.6656,-7.6998,1.9618,-0.783,-1.0994,0.0162,-0.0111,0.0985,0.0565,2278,2019-08-07 16:25:28:165
4.6656,-7.6998,1.9618,-0.6812,-1.0135,0.1453,-0.0111,0.0985,0.0565,2283,2019-08-07 16:25:28:170
4.6656,-7.6998,1.9618,-0.6812,-1.0135,0.1453,-0.0111,0.0985,0.0565,2288,2019-08-07 16:25:28:175
4.6656,-7.6998,1.9618,-0.6812,-1.0135,0.1453,-0.0506,0.0335,0.0469,2293,2019-08-07 16:25:28:180
4.5412,-8.1867,2.0137,-0.5382,-0.4674,0.0632,-0.0506,0.0335,0.0469,2298,2019-08-07 16:25:28:185
4.5412,-8.1867,2.0137,-0.5382,-0.4674,0.0632,-0.058,0.0026,0.0267,2303,2019-08-07 16:25:28:190
4.4981,-8.2726,1.8958,-0.5382,-0.4674,0.0632,-0.058,0.0026,0.0267,2308,2019-08-07 16:25:28:195
4.4981,-8.2726,1.8958,-0.5382,-0.4674,0.0632,-0.057,-0.0219,0.0064,2312,2019-08-07 16:25:28:199
4.4981,-8.2726,1.8958,-0.584,-0.4931,0.3014,-0.057,-0.0219,0.0064,2318,2019-08-07 16:25:28:205
4.5986,-8.201,1.844,-0.584,-0.4931,0.3014,-0.0548,-0.0698,-0.0266,2323,2019-08-07 16:25:28:210
4.5986,-8.201,1.844,-0.7026,-0.5783,0.2464,-0.0548,-0.0698,-0.0266,2328,2019-08-07 16:25:28:215
4.6847,-8.1103,1.8393,-0.7026,-0.5783,0.2464,-0.0516,-0.0944,-0.0596,2332,2019-08-07 16:25:28:219
4.6847,-8.1103,1.8393,-0.7026,-0.5783,0.2464,-0.0516,-0.0944,-0.0596,2338,2019-08-07 16:25:28:225
4.6847,-8.1103,1.8393,-0.7026,-0.5783,0.2464,-0.0516,-0.0944,-0.0596,2342,2019-08-07 16:25:28:229
4.8473,-8.0387,1.9477,-0.8529,-0.7301,0.0962,-0.0633,-0.0933,-0.0798,2348,2019-08-07 16:25:28:235
4.8473,-8.0387,1.9477,-0.8529,-0.7301,0.0962,-0.0633,-0.0933,-0.0798,2353,2019-08-07 16:25:28:240
4.8473,-8.0387,1.9477,-0.8529,-0.7301,0.0962,-0.0793,-0.1178,-0.0862,2358,2019-08-07 16:25:28:245
4.967,-8.0005,2.0655,-0.8529,-0.7301,0.0962,-0.0793,-0.1178,-0.0862,2362,2019-08-07 16:25:28:249
4.967,-8.0005,2.0655,-0.9876,-0.584,0.0126,-0.0836,-0.1189,-0.0734,2368,2019-08-07 16:25:28:255
5.0196,-8.1771,2.042,-0.9876,-0.584,0.0126,-0.0836,-0.1189,-0.0734,2373,2019-08-07 16:25:28:260
5.0196,-8.1771,2.042,-0.9876,-0.584,0.0126,-0.0836,-0.1189,-0.0734,2378,2019-08-07 16:25:28:265
5.0196,-8.1771,2.042,-0.9891,-0.5188,0.0146,-0.0815,-0.1263,-0.0628,2383,2019-08-07 16:25:28:270
5.0961,-8.2917,2.0514,-0.9891,-0.5188,0.0146,-0.0815,-0.1263,-0.0628,2388,2019-08-07 16:25:28:275
5.0961,-8.2917,2.0514,-0.9891,-0.5188,0.0146,-0.0815,-0.1263,-0.0628,2392,2019-08-07 16:25:28:279
5.1679,-8.3633,2.0043,-1.0685,-0.3855,0.0057,-0.0548,-0.1434,-0.0287,2398,2019-08-07 16:25:28:285
5.1679,-8.3633,2.0043,-1.0685,-0.3855,0.0057,-0.0548,-0.1434,-0.0287,2403,2019-08-07 16:25:28:290
5.1679,-8.3633,2.0043,-1.0685,-0.3855,0.0057,-0.0186,-0.1316,0.0033,2408,2019-08-07 16:25:28:295
5.2301,-8.4254,1.9571,-1.0685,-0.3855,0.0057,-0.0186,-0.1316,0.0033,2413,2019-08-07 16:25:28:300
5.2301,-8.4254,1.9571,-1.0457,-0.273,-0.0472,0.0102,-0.0848,0.0171,2418,2019-08-07 16:25:28:305
5.2301,-8.4254,1.9571,-1.0457,-0.273,-0.0472,0.0102,-0.0848,0.0171,2423,2019-08-07 16:25:28:310
5.0818,-8.4206,2.0467,-0.9707,-0.3194,-0.0952,0.0368,-0.0336,0.0214,2427,2019-08-07 16:25:28:314
5.0818,-8.4206,2.0467,-0.9707,-0.3194,-0.0952,0.0368,-0.0336,0.0214,2434,2019-08-07 16:25:28:321
4.9909,-8.3299,2.207,-0.9707,-0.3194,-0.0952,0.0368,-0.0336,0.0214,2438,2019-08-07 16:25:28:325
4.9909,-8.3299,2.207,-0.9707,-0.3194,-0.0952,0.0613,-0.0017,0.0192,2443,2019-08-07 16:25:28:330
4.9909,-8.3299,2.207,-0.8284,-0.4778,-0.2505,0.0613,-0.0017,0.0192,2448,2019-08-07 16:25:28:335
4.9095,-8.1867,2.2965,-0.8284,-0.4778,-0.2505,0.0666,0.01,0.0118,2452,2019-08-07 16:25:28:339
4.9095,-8.1867,2.2965,-0.8284,-0.4778,-0.2505,0.0666,0.01,0.0118,2458,2019-08-07 16:25:28:345
4.8138,-8.0864,2.3484,-0.8284,-0.4778,-0.2505,0.0602,0.0111,0.0075,2463,2019-08-07 16:25:28:350
4.8138,-8.0864,2.3484,-0.6899,-0.6393,-0.3346,0.0602,0.0111,0.0075,2468,2019-08-07 16:25:28:355
4.8138,-8.0864,2.3484,-0.6899,-0.6393,-0.3346,0.0357,-0.0102,0.0033,2472,2019-08-07 16:25:28:359
4.7373,-7.9432,2.3861,-0.6899,-0.6393,-0.3346,0.0357,-0.0102,0.0033,2478,2019-08-07 16:25:28:365
4.7373,-7.9432,2.3861,-0.6899,-0.6393,-0.3346,0.0134,-0.0581,0.0096,2483,2019-08-07 16:25:28:370
4.7373,-7.9432,2.3861,-0.6071,-0.6209,-0.3344,0.0134,-0.0581,0.0096,2488,2019-08-07 16:25:28:375
4.7373,-7.9432,2.3861,-0.6071,-0.6209,-0.3344,0.0134,-0.0581,0.0096,2493,2019-08-07 16:25:28:380
4.7373,-8.1008,2.3342,-0.6071,-0.6209,-0.3344,-0.0165,-0.1114,0.0256,2498,2019-08-07 16:25:28:385
4.7373,-8.1008,2.3342,-0.6071,-0.6209,-0.3344,-0.0165,-0.1114,0.0256,2502,2019-08-07 16:25:28:389
4.7373,-8.1008,2.3342,-0.6071,-0.6209,-0.3344,-0.0303,-0.1583,0.0384,2508,2019-08-07 16:25:28:395
4.8569,-8.1724,2.2447,-0.7493,-0.5061,-0.2327,-0.0303,-0.1583,0.0384,2512,2019-08-07 16:25:28:399
4.8569,-8.1724,2.2447,-0.7493,-0.5061,-0.2327,-0.0367,-0.1774,0.0501,2518,2019-08-07 16:25:28:405
4.9861,-8.3395,1.9948,-0.7493,-0.5061,-0.2327,-0.0367,-0.1774,0.0501,2523,2019-08-07 16:25:28:410
4.9861,-8.3395,1.9948,-0.7493,-0.5061,-0.2327,-0.042,-0.1508,0.0501,2528,2019-08-07 16:25:28:415
4.9861,-8.3395,1.9948,-0.9308,-0.3174,-0.0032,-0.042,-0.1508,0.0501,2533,2019-08-07 16:25:28:420
5.0339,-8.4302,1.9901,-0.9308,-0.3174,-0.0032,-0.0293,-0.0858,0.0437,2538,2019-08-07 16:25:28:425
5.0339,-8.4302,1.9901,-0.9308,-0.3174,-0.0032,-0.0293,-0.0858,0.0437,2542,2019-08-07 16:25:28:429
5.0195,-8.5018,2.0184,-0.9042,-0.1808,-0.0403,-0.009,-0.0294,0.0256,2548,2019-08-07 16:25:28:435
5.0195,-8.5018,2.0184,-0.9042,-0.1808,-0.0403,-0.009,-0.0294,0.0256,2553,2019-08-07 16:25:28:440
5.0195,-8.5018,2.0184,-0.9042,-0.1808,-0.0403,-0.009,-0.0294,0.0256,2558,2019-08-07 16:25:28:445
4.8999,-8.3872,2.0844,-0.7829,-0.2946,-0.1063,0.0155,0.0292,1.0E-4,2563,2019-08-07 16:25:28:450
4.8999,-8.3872,2.0844,-0.7829,-0.2946,-0.1063,0.0155,0.0292,1.0E-4,2568,2019-08-07 16:25:28:455
4.7899,-8.2631,2.1834,-0.7829,-0.2946,-0.1063,0.0283,0.0548,-0.034,2573,2019-08-07 16:25:28:460
4.7899,-8.2631,2.1834,-0.7829,-0.2946,-0.1063,0.0283,0.0548,-0.034,2578,2019-08-07 16:25:28:465
4.7899,-8.2631,2.1834,-0.5941,-0.5182,-0.2615,0.0283,0.0548,-0.034,2583,2019-08-07 16:25:28:470
4.6751,-8.1724,2.2258,-0.5941,-0.5182,-0.2615,0.0187,-0.0017,-0.0415,2587,2019-08-07 16:25:28:474
4.6751,-8.1724,2.2258,-0.5941,-0.5182,-0.2615,0.0187,-0.0017,-0.0415,2593,2019-08-07 16:25:28:480
4.7803,-8.1771,2.3154,-0.5941,-0.5182,-0.2615,0.0059,-0.0411,-0.0458,2598,2019-08-07 16:25:28:485
4.7803,-8.1771,2.3154,-0.6806,-0.4583,-0.2774,-0.0154,-0.1189,-0.0479,2603,2019-08-07 16:25:28:490
4.7803,-8.1771,2.3154,-0.6806,-0.4583,-0.2774,-0.0154,-0.1189,-0.0479,2607,2019-08-07 16:25:28:494
4.8856,-8.2631,2.0797,-0.7382,-0.4025,-0.0938,-0.0154,-0.1189,-0.0479,2614,2019-08-07 16:25:28:501
4.8856,-8.2631,2.0797,-0.7382,-0.4025,-0.0938,-0.025,-0.1551,-0.0383,2618,2019-08-07 16:25:28:505
4.8856,-8.2631,2.0797,-0.7382,-0.4025,-0.0938,-0.025,-0.1551,-0.0383,2623,2019-08-07 16:25:28:510
5.0339,-8.4302,1.9948,-0.7382,-0.4025,-0.0938,-0.0271,-0.1583,-0.0298,2627,2019-08-07 16:25:28:514
5.0339,-8.4302,1.9948,-0.8866,-0.1825,-0.0878,-0.0271,-0.1583,-0.0298,2633,2019-08-07 16:25:28:520
5.0339,-8.4302,1.9948,-0.8866,-0.1825,-0.0878,-0.0271,-0.1583,-0.0298,2637,2019-08-07 16:25:28:524
5.1248,-8.5161,1.9901,-0.8866,-0.1825,-0.0878,-0.0154,-0.1295,-0.0117,2643,2019-08-07 16:25:28:530
5.1248,-8.5161,1.9901,-0.8866,-0.1825,-0.0878,-0.0154,-0.1295,-0.0117,2648,2019-08-07 16:25:28:535
5.0961,-8.6068,1.976,-0.8726,-0.0882,-0.0638,0.008,-0.0858,-0.0127,2652,2019-08-07 16:25:28:539
5.0961,-8.6068,1.976,-0.8726,-0.0882,-0.0638,0.008,-0.0858,-0.0127,2658,2019-08-07 16:25:28:545
5.0243,-8.4254,1.9477,-0.8726,-0.0882,-0.0638,0.0315,-0.0294,-0.0255,2663,2019-08-07 16:25:28:550
5.0243,-8.4254,1.9477,-0.8726,-0.0882,-0.0638,0.0315,-0.0294,-0.0255,2667,2019-08-07 16:25:28:554
5.0243,-8.4254,1.9477,-0.7277,-0.3164,-0.0809,0.0389,0.0537,-0.0362,2673,2019-08-07 16:25:28:560
4.809,-8.2869,2.0372,-0.7277,-0.3164,-0.0809,0.0389,0.0537,-0.0362,2678,2019-08-07 16:25:28:565
4.809,-8.2869,2.0372,-0.5891,-0.4177,-0.1356,0.0347,0.1123,-0.0468,2683,2019-08-07 16:25:28:570
4.809,-8.2869,2.0372,-0.5891,-0.4177,-0.1356,0.0347,0.1123,-0.0468,2687,2019-08-07 16:25:28:574
4.5172,-8.201,2.0608,-0.5891,-0.4177,-0.1356,0.0347,0.1123,-0.0468,2693,2019-08-07 16:25:28:580
4.5172,-8.201,2.0608,-0.5891,-0.4177,-0.1356,0.0208,0.1262,-0.0553,2698,2019-08-07 16:25:28:585
4.3641,-8.1437,2.2117,-0.1457,-0.4864,-0.2369,0.0208,0.1262,-0.0553,2702,2019-08-07 16:25:28:589
4.3641,-8.1437,2.2117,-0.1457,-0.4864,-0.2369,0.0027,0.0612,-0.0596,2708,2019-08-07 16:25:28:595
4.3641,-8.1437,2.2117,-0.1361,-0.4161,-0.2792,0.0027,0.0612,-0.0596,2713,2019-08-07 16:25:28:600
4.321,-8.2153,2.2352,-0.1361,-0.4161,-0.2792,-0.0048,-0.0027,-0.0553,2718,2019-08-07 16:25:28:605
4.321,-8.2153,2.2352,-0.1361,-0.4161,-0.2792,-0.0048,-0.0027,-0.0553,2722,2019-08-07 16:25:28:609
4.4932,-8.2583,2.1645,-0.1361,-0.4161,-0.2792,-0.0303,-0.1093,-0.0394,2728,2019-08-07 16:25:28:615
4.4932,-8.2583,2.1645,-0.9789,-0.2199,-0.1153,-0.0303,-0.1093,-0.0394,2733,2019-08-07 16:25:28:620
4.4932,-8.2583,2.1645,-0.9789,-0.2199,-0.1153,-0.0186,-0.0635,-0.1129,2738,2019-08-07 16:25:28:625
4.4932,-8.2583,2.1645,-0.9789,-0.2199,-0.1153,-0.0186,-0.0635,-0.1129,2742,2019-08-07 16:25:28:629
6.316,-8.645,1.3962,-2.079,0.0192,0.5735,-0.0186,-0.0635,-0.1129,2747,2019-08-07 16:25:28:634
6.316,-8.645,1.3962,-2.079,0.0192,0.5735,-0.009,0.1166,-0.1384,2753,2019-08-07 16:25:28:640
6.316,-8.645,1.3962,-2.079,0.0192,0.5735,-0.009,0.1166,-0.1384,2757,2019-08-07 16:25:28:644
4.8473,-8.201,1.7638,-0.6004,-0.4295,0.2024,0.0102,0.287,0.0054,2763,2019-08-07 16:25:28:650
4.8473,-8.201,1.7638,-0.6004,-0.4295,0.2024,0.0102,0.287,0.0054,2768,2019-08-07 16:25:28:655
4.8473,-8.201,1.7638,-0.6004,-0.4295,0.2024,0.0389,0.3765,0.0267,2772,2019-08-07 16:25:28:659
4.8955,-8.3586,2.0562,-0.6004,-0.4295,0.2024,0.0389,0.3765,0.0267,2778,2019-08-07 16:25:28:665
4.8955,-8.3586,2.0562,-0.4467,-0.3177,0.0034,0.0474,0.3786,-0.0106,2784,2019-08-07 16:25:28:671
4.8955,-8.3586,2.0562,-0.4467,-0.3177,0.0034,0.0474,0.3786,-0.0106,2787,2019-08-07 16:25:28:674
4.8955,-8.3586,2.0562,-0.4467,-0.3177,0.0034,0.0474,0.3786,-0.0106,2793,2019-08-07 16:25:28:680
4.3644,-8.2201,2.1033,-0.1308,-0.3916,-0.0662,0.04,0.3563,-0.0276,2798,2019-08-07 16:25:28:685
4.3644,-8.2201,2.1033,-0.1308,-0.3916,-0.0662,0.04,0.3563,-0.0276,2803,2019-08-07 16:25:28:690
4.7328,-8.2822,2.1599,-0.1308,-0.3916,-0.0662,0.0538,0.2828,-0.0426,2808,2019-08-07 16:25:28:695
4.7328,-8.2822,2.1599,-0.5926,-0.3363,-0.086,0.0538,0.2828,-0.0426,2813,2019-08-07 16:25:28:700
4.7328,-8.2822,2.1599,-0.5926,-0.3363,-0.086,0.0613,0.2252,-0.0596,2819,2019-08-07 16:25:28:706
5.0055,-8.1963,2.1976,-0.5926,-0.3363,-0.086,0.0613,0.2252,-0.0596,2823,2019-08-07 16:25:28:710
5.0055,-8.1963,2.1976,-0.5926,-0.3363,-0.086,0.0549,0.1869,-0.0649,2828,2019-08-07 16:25:28:715
5.0247,-8.0912,2.1127,-0.7851,-0.502,-0.011,0.0549,0.1869,-0.0649,2833,2019-08-07 16:25:28:720
5.0247,-8.0912,2.1127,-0.7851,-0.502,-0.011,0.0389,0.1826,-0.0383,2837,2019-08-07 16:25:28:724
5.0247,-8.0912,2.1127,-0.7851,-0.502,-0.011,0.0389,0.1826,-0.0383,2843,2019-08-07 16:25:28:730
5.1395,-8.0483,2.1787,-0.7851,-0.502,-0.011,0.0261,0.1656,-0.0191,2847,2019-08-07 16:25:28:734
5.1395,-8.0483,2.1787,-0.8951,-0.5565,-0.1736,0.0261,0.1656,-0.0191,2853,2019-08-07 16:25:28:740
5.1395,-8.0483,2.1787,-0.8951,-0.5565,-0.1736,0.0261,0.1656,-0.0191,2857,2019-08-07 16:25:28:744
5.2782,-8.1103,2.4003,-0.8951,-0.5565,-0.1736,0.0421,0.1666,0.0033,2863,2019-08-07 16:25:28:750
5.2782,-8.1103,2.4003,-0.8951,-0.5565,-0.1736,0.0421,0.1666,0.0033,2868,2019-08-07 16:25:28:755
5.216,-8.1485,2.372,-0.9716,-0.4305,-0.2224,0.0847,0.1421,0.0043,2873,2019-08-07 16:25:28:760
5.216,-8.1485,2.372,-0.9716,-0.4305,-0.2224,0.0847,0.1421,0.0043,2877,2019-08-07 16:25:28:764
5.216,-8.1485,2.372,-0.9716,-0.4305,-0.2224,0.0602,0.0282,0.0203,2883,2019-08-07 16:25:28:770
5.2304,-8.0578,2.2353,-0.9716,-0.4305,-0.2224,0.0602,0.0282,0.0203,2888,2019-08-07 16:25:28:775
5.2304,-8.0578,2.2353,-0.9716,-0.4305,-0.2224,0.0602,0.0282,0.0203,2893,2019-08-07 16:25:28:780
5.4887,-8.0435,2.2117,-1.1318,-0.5116,-0.0899,0.0325,0.0047,0.0288,2898,2019-08-07 16:25:28:785
5.4887,-8.0435,2.2117,-1.1318,-0.5116,-0.0899,0.0325,0.0047,0.0288,2903,2019-08-07 16:25:28:790
5.4887,-8.0435,2.2117,-1.1318,-0.5116,-0.0899,-0.0335,-0.0453,0.0086,2908,2019-08-07 16:25:28:795
5.527,-8.0531,1.9713,-1.2385,-0.4994,0.1919,-0.0335,-0.0453,0.0086,2913,2019-08-07 16:25:28:800
5.527,-8.0531,1.9713,-1.2385,-0.4994,0.1919,-0.0974,-0.0539,-0.0053,2918,2019-08-07 16:25:28:805
5.527,-8.0531,1.9713,-1.2385,-0.4994,0.1919,-0.0974,-0.0539,-0.0053,2922,2019-08-07 16:25:28:809
5.3548,-8.0817,2.108,-1.0941,-0.4899,0.0391,-0.1337,-0.0081,0.0033,2928,2019-08-07 16:25:28:815
5.3548,-8.0817,2.108,-1.0941,-0.4899,0.0391,-0.1337,-0.0081,0.0033,2932,2019-08-07 16:25:28:819
5.2878,-8.1963,2.3013,-1.0941,-0.4899,0.0391,-0.156,0.0377,0.0128,2938,2019-08-07 16:25:28:825
5.2878,-8.1963,2.3013,-1.0941,-0.4899,0.0391,-0.156,0.0377,0.0128,2943,2019-08-07 16:25:28:830
5.2878,-8.1963,2.3013,-0.9265,-0.3261,-0.2667,-0.156,0.0377,0.0128,2948,2019-08-07 16:25:28:835
5.0486,-8.2536,2.3343,-0.9265,-0.3261,-0.2667,-0.1443,0.0388,0.0033,2953,2019-08-07 16:25:28:840
5.0486,-8.2536,2.3343,-0.9265,-0.3261,-0.2667,-0.1443,0.0388,0.0033,2958,2019-08-07 16:25:28:845
5.0486,-8.2536,2.3343,-0.9265,-0.3261,-0.2667,-0.1368,0.0377,0.0054,2963,2019-08-07 16:25:28:850
4.7807,-8.1629,2.3626,-0.5123,-0.4154,-0.2579,-0.1368,0.0377,0.0054,2967,2019-08-07 16:25:28:854
4.7807,-8.1629,2.3626,-0.5123,-0.4154,-0.2579,-0.1155,0.0335,0.0288,2973,2019-08-07 16:25:28:860
4.7137,-8.1533,2.3956,-0.4459,-0.4271,-0.2985,-0.1155,0.0335,0.0288,2978,2019-08-07 16:25:28:865
4.7137,-8.1533,2.3956,-0.4459,-0.4271,-0.2985,-0.0974,-0.0081,0.0459,2984,2019-08-07 16:25:28:871
4.7137,-8.1533,2.3956,-0.4459,-0.4271,-0.2985,-0.0974,-0.0081,0.0459,2988,2019-08-07 16:25:28:875
4.7137,-8.1533,2.3956,-0.4459,-0.4271,-0.2985,-0.0974,-0.0081,0.0459,2993,2019-08-07 16:25:28:880
4.8955,-8.1485,2.075,-0.6485,-0.4274,0.047,-0.0942,-0.0528,0.0352,2998,2019-08-07 16:25:28:885
4.8955,-8.1485,2.075,-0.6485,-0.4274,0.047,-0.0942,-0.0528,0.0352,3003,2019-08-07 16:25:28:890
4.8955,-8.1485,2.075,-0.6485,-0.4274,0.047,-0.0996,-0.0901,0.0214,3007,2019-08-07 16:25:28:894
4.8572,-8.1151,2.0656,-0.6485,-0.4274,0.047,-0.0996,-0.0901,0.0214,3014,2019-08-07 16:25:28:901
4.8572,-8.1151,2.0656,-0.6485,-0.4274,0.047,-0.0996,-0.0901,0.0214,3017,2019-08-07 16:25:28:904
4.8572,-8.1151,2.0656,-0.6485,-0.4274,0.047,-0.0996,-0.0901,0.0214,3022,2019-08-07 16:25:28:909
4.8764,-8.201,2.1222,-0.6052,-0.3878,-0.0666,-0.0974,-0.0954,0.016,3028,2019-08-07 16:25:28:915
4.8764,-8.201,2.1222,-0.6052,-0.3878,-0.0666,-0.0325,-0.0613,0.0054,3033,2019-08-07 16:25:28:920
5.1156,-8.497,1.9666,-0.8379,-0.093,0.0703,-0.0325,-0.0613,0.0054,3038,2019-08-07 16:25:28:925
5.1156,-8.497,1.9666,-0.8379,-0.093,0.0703,-0.0048,-0.0198,1.0E-4,3044,2019-08-07 16:25:28:931
5.1156,-8.497,1.9666,-0.8379,-0.093,0.0703,-0.0048,-0.0198,1.0E-4,3048,2019-08-07 16:25:28:935
5.0869,-8.3299,1.9949,-0.8379,-0.093,0.0703,-0.0048,-0.0198,1.0E-4,3053,2019-08-07 16:25:28:940
5.0869,-8.3299,1.9949,-0.7936,-0.357,-0.0274,0.041,0.0761,-0.001,3057,2019-08-07 16:25:28:944
5.0151,-8.0913,2.1599,-0.7936,-0.357,-0.0274,0.041,0.0761,-0.001,3063,2019-08-07 16:25:28:950
5.0151,-8.0913,2.1599,-0.7936,-0.357,-0.0274,0.0624,0.1262,-0.0021,3068,2019-08-07 16:25:28:955
5.0151,-8.0913,2.1599,-0.7936,-0.357,-0.0274,0.0624,0.1262,-0.0021,3073,2019-08-07 16:25:28:960
5.0295,-8.0578,2.2306,-0.7438,-0.5227,-0.1708,0.0677,0.1581,-0.0117,3078,2019-08-07 16:25:28:965
5.0295,-8.0578,2.2306,-0.7438,-0.5227,-0.1708,0.0677,0.1581,-0.0117,3083,2019-08-07 16:25:28:970
5.0295,-8.0578,2.2306,-0.7438,-0.5227,-0.1708,0.0464,0.1507,-0.0234,3088,2019-08-07 16:25:28:975
5.0295,-8.0578,2.2306,-0.7438,-0.5227,-0.1708,0.0464,0.1507,-0.0234,3092,2019-08-07 16:25:28:979
4.9051,-8.0531,2.2966,-0.6024,-0.5775,-0.2733,0.0187,0.1006,-0.0149,3098,2019-08-07 16:25:28:985
4.9051,-8.0531,2.2966,-0.6024,-0.5775,-0.2733,0.0187,0.1006,-0.0149,3103,2019-08-07 16:25:28:990
4.7903,-8.0196,2.3484,-0.6024,-0.5775,-0.2733,0.0187,0.1006,-0.0149,3108,2019-08-07 16:25:28:995
4.7903,-8.0196,2.3484,-0.6024,-0.5775,-0.2733,-0.0133,0.0345,-0.0031,3113,2019-08-07 16:25:29:000
5.0486,-8.2249,2.405,-0.6892,-0.4208,-0.2894,-0.0133,0.0345,-0.0031,3118,2019-08-07 16:25:29:005
5.0486,-8.2249,2.405,-0.6892,-0.4208,-0.2894,-0.0357,-0.0145,0.0043,3122,2019-08-07 16:25:29:009
5.0486,-8.2249,2.405,-0.6892,-0.4208,-0.2894,-0.0357,-0.0145,0.0043,3128,2019-08-07 16:25:29:015
5.1348,-8.1724,2.24,-0.6892,-0.4208,-0.2894,-0.041,-0.0347,0.0022,3133,2019-08-07 16:25:29:020
5.1348,-8.1724,2.24,-0.8069,-0.4049,-0.0985,-0.041,-0.0347,0.0022,3138,2019-08-07 16:25:29:025
5.1348,-8.1724,2.24,-0.8069,-0.4049,-0.0985,-0.0538,-0.0272,0.0033,3143,2019-08-07 16:25:29:030
5.13,-8.1629,2.2353,-0.8069,-0.4049,-0.0985,-0.0538,-0.0272,0.0033,3148,2019-08-07 16:25:29:035
5.13,-8.1629,2.2353,-0.8069,-0.4049,-0.0985,-0.0538,-0.0272,0.0033,3152,2019-08-07 16:25:29:039
5.0199,-8.1963,2.1128,-0.7148,-0.3707,-0.0368,-0.0538,0.0324,0.0022,3158,2019-08-07 16:25:29:045
5.0199,-8.1963,2.1128,-0.7148,-0.3707,-0.0368,-0.0538,0.0324,0.0022,3163,2019-08-07 16:25:29:050
5.0199,-8.1963,2.1128,-0.7148,-0.3707,-0.0368,-0.0506,0.0835,0.0054,3167,2019-08-07 16:25:29:054
4.5272,-8.2631,1.7781,-0.7148,-0.3707,-0.0368,-0.0506,0.0835,0.0054,3173,2019-08-07 16:25:29:060
4.5272,-8.2631,1.7781,-0.225,-0.3251,-0.257,-0.1262,-0.0954,0.0171,3178,2019-08-07 16:25:29:065
4.7759,-8.3061,2.3814,-0.225,-0.3251,-0.257,-0.1262,-0.0954,0.0171,3183,2019-08-07 16:25:29:070
4.7759,-8.3061,2.3814,-0.225,-0.3251,-0.257,-0.0186,-0.0027,-0.0106,3188,2019-08-07 16:25:29:075
4.7759,-8.3061,2.3814,-0.225,-0.3251,-0.257,-0.0186,-0.0027,-0.0106,3193,2019-08-07 16:25:29:080
4.8047,-8.2918,2.042,-0.5021,-0.2859,0.0097,0.0208,0.0154,-0.0255,3198,2019-08-07 16:25:29:085
4.8047,-8.2918,2.042,-0.5021,-0.2859,0.0097,0.0208,0.0154,-0.0255,3202,2019-08-07 16:25:29:089
4.8047,-8.2918,2.042,-0.5021,-0.2859,0.0097,0.0208,0.0154,-0.0255,3208,2019-08-07 16:25:29:095
4.9578,-8.1581,1.9478,-0.6418,-0.4072,0.1126,0.0379,0.0782,-0.0223,3213,2019-08-07 16:25:29:100
4.9578,-8.1581,1.9478,-0.6418,-0.4072,0.1126,0.0379,0.0782,-0.0223,3218,2019-08-07 16:25:29:105
4.9578,-8.0531,1.9761,-0.6418,-0.4072,0.1126,0.0229,0.1581,-0.0276,3224,2019-08-07 16:25:29:111
4.9578,-8.0531,1.9761,-0.6464,-0.4486,-0.0273,0.0229,0.1581,-0.0276,3227,2019-08-07 16:25:29:114
4.9578,-8.0531,1.9761,-0.6464,-0.4486,-0.0273,0.0251,0.2135,-0.0276,3233,2019-08-07 16:25:29:120
5.0343,-8.1963,2.1882,-0.6464,-0.4486,-0.0273,0.0251,0.2135,-0.0276,3237,2019-08-07 16:25:29:124
5.0343,-8.1963,2.1882,-0.6464,-0.4486,-0.0273,0.0315,0.2764,-0.0383,3243,2019-08-07 16:25:29:130
4.8812,-8.4254,2.1599,-0.5596,-0.1268,-0.0579,0.0315,0.2764,-0.0383,3248,2019-08-07 16:25:29:135
4.8812,-8.4254,2.1599,-0.5596,-0.1268,-0.0579,0.0315,0.2764,-0.0383,3252,2019-08-07 16:25:29:139
4.8812,-8.392,2.141,-0.5596,-0.1572,-0.0287,-0.0175,0.2124,-0.0575,3259,2019-08-07 16:25:29:146
4.5942,-8.392,2.141,-0.2716,-0.1572,-0.0287,-0.0175,0.2124,-0.0575,3263,2019-08-07 16:25:29:150
4.5942,-8.392,2.141,-0.2716,-0.1572,-0.0287,-0.0548,0.1496,-0.0734,3268,2019-08-07 16:25:29:155
4.5942,-8.392,2.141,-0.2716,-0.1572,-0.0287,-0.0548,0.1496,-0.0734,3273,2019-08-07 16:25:29:160
4.2545,-8.0674,2.405,0.291,-0.4865,-0.3119,-0.074,0.0676,-0.0734,3278,2019-08-07 16:25:29:165
4.2545,-8.0674,2.405,0.291,-0.4865,-0.3119,-0.074,0.0676,-0.0734,3282,2019-08-07 16:25:29:169
4.0153,-8.139,2.4804,0.291,-0.4865,-0.3119,-0.1113,-0.138,-0.0543,3288,2019-08-07 16:25:29:175