ACCELEROMETER X (m/s²),ACCELEROMETER Y (m/s²),ACCELEROMETER Z (m/s²),LINEAR ACCELERATION X (m/s²),LINEAR ACCELERATION Y (m/s²),LINEAR ACCELERATION Z (m/s²),GYROSCOPE X (rad/s),GYROSCOPE Y (rad/s),GYROSCOPE Z (rad/s),Time since start in ms ,YYYY-MO-DD HH-MI-SS_SSS
4.7283,-8.1108,2.8114,0.0455,-0.0763,-0.2476,-5.0E-4,0.0217,-0.0233,4,2019-08-07 16:23:22:151
4.7044,-8.1204,2.8397,0.0455,-0.0763,-0.2476,-5.0E-4,0.0217,-0.0233,7,2019-08-07 16:23:22:154
4.7044,-8.1204,2.8397,0.0455,-0.0763,-0.2476,-5.0E-4,0.0217,-0.0233,13,2019-08-07 16:23:22:160
4.8287,-8.1156,2.7172,0.0455,-0.0763,-0.2476,-5.0E-4,-0.0177,-0.0255,18,2019-08-07 16:23:22:165
4.8287,-8.1156,2.7172,-0.1511,-0.1211,-0.1329,-5.0E-4,-0.0177,-0.0255,23,2019-08-07 16:23:22:170
4.8287,-8.1156,2.7172,-0.1511,-0.1211,-0.1329,0.007,-0.0443,-0.018,28,2019-08-07 16:23:22:175
5.0727,-8.0726,2.6229,-0.334,-0.1194,-0.0399,0.007,-0.0443,-0.018,32,2019-08-07 16:23:22:179
5.0727,-8.0726,2.6229,-0.334,-0.1194,-0.0399,0.007,-0.0443,-0.018,38,2019-08-07 16:23:22:185
5.0727,-8.0726,2.6229,-0.334,-0.1194,-0.0399,0.0155,-0.0379,-0.0159,42,2019-08-07 16:23:22:189
5.288,-8.1204,2.5616,-0.334,-0.1194,-0.0399,0.0155,-0.0379,-0.0159,48,2019-08-07 16:23:22:195
5.288,-8.1204,2.5616,-0.5901,-0.1632,0.0962,0.0219,-0.0113,1.0E-4,53,2019-08-07 16:23:22:200
5.288,-8.1204,2.5616,-0.5901,-0.1632,0.0962,0.0219,-0.0113,1.0E-4,58,2019-08-07 16:23:22:205
5.398,-8.0392,2.5239,-0.5901,-0.1632,0.0962,0.0315,0.0303,0.015,62,2019-08-07 16:23:22:209
5.398,-8.0392,2.5239,-0.5901,-0.1632,0.0962,0.0315,0.0303,0.015,68,2019-08-07 16:23:22:215
5.2832,-8.0154,2.4815,-0.5366,-0.1703,0.1073,0.0315,0.0303,0.015,72,2019-08-07 16:23:22:219
5.2832,-8.0154,2.4815,-0.5366,-0.1703,0.1073,0.0336,0.0558,0.031,78,2019-08-07 16:23:22:225
5.2832,-8.0154,2.4815,-0.5366,-0.1703,0.1073,0.0336,0.0558,0.031,83,2019-08-07 16:23:22:230
5.1205,-8.0106,2.5239,-0.5366,-0.1703,0.1073,0.0378,0.0686,0.0416,88,2019-08-07 16:23:22:235
5.1205,-8.0106,2.5239,-0.5366,-0.1703,0.1073,0.0378,0.0686,0.0416,92,2019-08-07 16:23:22:239
4.9483,-7.9867,2.6134,-0.2606,-0.175,-0.0413,0.0421,0.0516,0.0523,98,2019-08-07 16:23:22:245
4.9483,-7.9867,2.6134,-0.2606,-0.175,-0.0413,0.0421,0.0516,0.0523,103,2019-08-07 16:23:22:250
4.9483,-7.9867,2.6134,-0.2606,-0.175,-0.0413,0.0421,0.0516,0.0523,108,2019-08-07 16:23:22:255
4.8621,-7.939,2.6323,-0.2606,-0.175,-0.0413,0.0432,0.0345,0.0459,113,2019-08-07 16:23:22:260
4.8621,-7.939,2.6323,-0.1065,-0.2001,-0.0673,0.0432,0.0345,0.0459,117,2019-08-07 16:23:22:264
4.8191,-7.896,2.703,-0.1065,-0.2001,-0.0673,0.0389,0.0143,0.0384,123,2019-08-07 16:23:22:270
4.8191,-7.896,2.703,-0.1065,-0.2001,-0.0673,0.0389,0.0143,0.0384,127,2019-08-07 16:23:22:274
4.8191,-7.896,2.703,-0.0501,-0.3059,-0.1252,0.0293,-0.0049,0.0352,134,2019-08-07 16:23:22:281
4.7856,-7.8674,2.8114,-0.0501,-0.3059,-0.1252,0.0293,-0.0049,0.0352,138,2019-08-07 16:23:22:285
4.7856,-7.8674,2.8114,-0.0501,-0.3059,-0.1252,0.0283,-0.0198,0.0267,143,2019-08-07 16:23:22:290
4.8047,-7.8912,2.7596,-0.0501,-0.3059,-0.1252,0.0283,-0.0198,0.0267,148,2019-08-07 16:23:22:295
4.8047,-7.8912,2.7596,-0.1809,-0.3008,-0.1071,0.0208,-0.0336,0.0193,153,2019-08-07 16:23:22:300
4.8047,-7.8912,2.7596,-0.1809,-0.3008,-0.1071,0.0208,-0.0336,0.0193,158,2019-08-07 16:23:22:305
4.8956,-7.8912,2.7313,-0.1809,-0.3008,-0.1071,0.0165,-0.039,0.0139,163,2019-08-07 16:23:22:310
4.8956,-7.8912,2.7313,-0.1809,-0.3008,-0.1071,0.0165,-0.039,0.0139,168,2019-08-07 16:23:22:315
5.0152,-7.9485,2.703,-0.1809,-0.3008,-0.1071,0.0165,-0.039,0.0139,173,2019-08-07 16:23:22:320
5.0152,-7.9485,2.703,-0.289,-0.2473,-0.0695,0.0155,-0.0347,0.0097,177,2019-08-07 16:23:22:324
5.0152,-7.9485,2.703,-0.289,-0.2473,-0.0695,0.0155,-0.0347,0.0097,183,2019-08-07 16:23:22:330
5.0295,-7.9962,2.7171,-0.289,-0.2473,-0.0695,0.0155,-0.0347,0.0097,188,2019-08-07 16:23:22:335
5.0295,-7.9962,2.7171,-0.289,-0.2473,-0.0695,0.0176,-0.0273,0.0107,193,2019-08-07 16:23:22:340
5.0917,-8.0535,2.6936,-0.3535,-0.1358,-0.083,0.024,-0.0155,0.0139,199,2019-08-07 16:23:22:346
5.0917,-8.0535,2.6936,-0.3535,-0.1358,-0.083,0.024,-0.0155,0.0139,203,2019-08-07 16:23:22:350
5.0917,-8.0535,2.6936,-0.3535,-0.1358,-0.083,0.024,-0.0155,0.0139,208,2019-08-07 16:23:22:355
5.0151,-8.0917,2.7313,-0.3535,-0.1358,-0.083,0.04,0.0026,0.0097,213,2019-08-07 16:23:22:360
5.0151,-8.0917,2.7313,-0.1808,-0.0768,-0.1206,0.04,0.0026,0.0097,218,2019-08-07 16:23:22:365
4.8955,-8.0822,2.769,-0.1808,-0.0768,-0.1206,0.0496,0.0068,0.0139,222,2019-08-07 16:23:22:369
4.8955,-8.0822,2.769,-0.1289,-0.0995,-0.1629,0.0496,0.0068,0.0139,228,2019-08-07 16:23:22:375
4.8955,-8.0822,2.769,-0.1289,-0.0995,-0.1629,0.0496,0.0068,0.0139,233,2019-08-07 16:23:22:380
4.8859,-8.0201,2.7595,-0.1289,-0.0995,-0.1629,0.0517,-0.0177,0.0086,237,2019-08-07 16:23:22:384
4.8859,-8.0201,2.7595,-0.1289,-0.0995,-0.1629,0.0517,-0.0177,0.0086,243,2019-08-07 16:23:22:390
4.8715,-8.0726,2.802,-0.124,-0.0871,-0.0884,0.0517,-0.0326,0.0044,248,2019-08-07 16:23:22:395
4.8715,-8.0726,2.802,-0.124,-0.0871,-0.0884,0.0517,-0.0326,0.0044,253,2019-08-07 16:23:22:400
4.8715,-8.0726,2.802,-0.124,-0.0871,-0.0884,0.0517,-0.0326,0.0044,258,2019-08-07 16:23:22:405
4.9337,-8.0153,2.8208,-0.124,-0.0871,-0.0884,0.057,-0.0336,-0.001,263,2019-08-07 16:23:22:410
4.9337,-8.0153,2.8208,-0.2261,-0.1785,-0.1801,0.057,-0.0336,-0.001,267,2019-08-07 16:23:22:414
5.015,-7.9342,2.6558,-0.2261,-0.1785,-0.1801,0.0687,-0.0304,-0.0074,273,2019-08-07 16:23:22:420
5.015,-7.9342,2.6558,-0.2261,-0.1785,-0.1801,0.0687,-0.0304,-0.0074,278,2019-08-07 16:23:22:425
5.015,-7.9342,2.6558,-0.2261,-0.1785,-0.1801,0.0602,-0.0091,-0.0095,283,2019-08-07 16:23:22:430
4.972,-7.9676,2.6605,-0.2356,-0.2015,-0.0017,0.0602,-0.0091,-0.0095,287,2019-08-07 16:23:22:434
4.972,-7.9676,2.6605,-0.2356,-0.2015,-0.0017,0.0602,-0.0091,-0.0095,293,2019-08-07 16:23:22:440
4.8858,-7.9008,2.7831,-0.2356,-0.2015,-0.0017,0.0581,0.0026,-0.0116,298,2019-08-07 16:23:22:445
4.8858,-7.9008,2.7831,-0.2356,-0.2015,-0.0017,0.0464,-0.0059,-0.0148,303,2019-08-07 16:23:22:450
4.8858,-7.9008,2.7831,-0.0452,-0.2486,-0.171,0.0464,-0.0059,-0.0148,307,2019-08-07 16:23:22:454
4.7279,-7.9485,2.8302,-0.0452,-0.2486,-0.171,0.0474,-0.0145,-0.0148,313,2019-08-07 16:23:22:460
4.7279,-7.9485,2.8302,-0.0452,-0.2486,-0.171,0.0474,-0.0145,-0.0148,318,2019-08-07 16:23:22:465
4.704,-8.0106,2.8161,-0.0452,-0.2486,-0.171,0.0474,-0.0145,-0.0148,322,2019-08-07 16:23:22:469
4.704,-8.0106,2.8161,0.0776,-0.1486,-0.0734,0.0496,-0.0177,-0.0159,328,2019-08-07 16:23:22:475
4.704,-8.0106,2.8161,0.0776,-0.1486,-0.0734,0.0496,-0.0177,-0.0159,333,2019-08-07 16:23:22:480
4.6705,-8.0392,2.7312,0.0776,-0.1486,-0.0734,0.0496,-0.0177,-0.0159,338,2019-08-07 16:23:22:485
4.6705,-8.0392,2.7312,0.0776,-0.1486,-0.0734,0.0347,-0.0241,-0.0255,345,2019-08-07 16:23:22:492
4.7231,-8.1872,2.7265,0.0202,-0.0106,-0.0072,0.024,-0.0368,-0.0372,349,2019-08-07 16:23:22:496
4.7231,-8.1872,2.7265,0.0202,-0.0106,-0.0072,0.024,-0.0368,-0.0372,353,2019-08-07 16:23:22:500
4.7231,-8.1872,2.7265,0.0202,-0.0106,-0.0072,0.024,-0.0368,-0.0372,358,2019-08-07 16:23:22:505
4.8523,-8.2206,2.8444,0.0202,-0.0106,-0.0072,0.0293,-0.0518,-0.0447,363,2019-08-07 16:23:22:510
4.8523,-8.2206,2.8444,-0.152,0.0192,-0.1572,0.0293,-0.0518,-0.0447,368,2019-08-07 16:23:22:515
4.8523,-8.2206,2.8444,-0.152,0.0192,-0.1572,0.0506,-0.056,-0.05,373,2019-08-07 16:23:22:520
4.9527,-8.0678,2.7736,-0.152,0.0192,-0.1572,0.0506,-0.056,-0.05,378,2019-08-07 16:23:22:525
4.9527,-8.0678,2.7736,-0.152,0.0192,-0.1572,0.0592,-0.0709,-0.0383,383,2019-08-07 16:23:22:530
4.9527,-8.0678,2.7736,-0.2208,-0.2255,0.0629,0.0592,-0.0709,-0.0383,387,2019-08-07 16:23:22:534
5.034,-7.8673,2.6322,-0.2208,-0.2255,0.0629,0.0592,-0.0709,-0.0383,393,2019-08-07 16:23:22:540
5.034,-7.8673,2.6322,-0.2208,-0.2255,0.0629,0.0581,-0.0699,-0.0212,398,2019-08-07 16:23:22:545
5.0914,-8.0105,2.7029,-0.2208,-0.2255,0.0629,0.0581,-0.0699,-0.0212,402,2019-08-07 16:23:22:549
5.0914,-8.0105,2.7029,-0.2208,-0.2255,0.0629,0.0496,-0.0486,-0.0063,408,2019-08-07 16:23:22:555
5.0914,-8.0105,2.7029,-0.2695,-0.1383,-0.0803,0.0496,-0.0486,-0.0063,413,2019-08-07 16:23:22:560
5.0436,-7.9962,2.7501,-0.2695,-0.1383,-0.0803,0.04,-0.0315,1.0E-4,418,2019-08-07 16:23:22:565
5.0436,-7.9962,2.7501,-0.2695,-0.1383,-0.0803,0.04,-0.0315,1.0E-4,422,2019-08-07 16:23:22:569
4.9766,-8.1633,2.6841,-0.1564,0.0605,-0.0106,0.0347,-0.0219,0.0075,428,2019-08-07 16:23:22:575
4.9766,-8.1633,2.6841,-0.1564,0.0605,-0.0106,0.0347,-0.0219,0.0075,432,2019-08-07 16:23:22:579
4.9766,-8.1633,2.6841,-0.1564,0.0605,-0.0106,0.0304,-0.0049,0.0129,438,2019-08-07 16:23:22:585
4.9479,-8.2922,2.7076,-0.1564,0.0605,-0.0106,0.0304,-0.0049,0.0129,443,2019-08-07 16:23:22:590
4.9479,-8.2922,2.7076,-0.1765,0.1331,-0.1189,0.0347,-0.0049,0.0203,448,2019-08-07 16:23:22:595
4.9622,-8.2301,2.8349,-0.1765,0.1331,-0.1189,0.0347,-0.0049,0.0203,453,2019-08-07 16:23:22:600
4.9622,-8.2301,2.8349,-0.1765,0.1331,-0.1189,0.0347,-0.0049,0.0203,458,2019-08-07 16:23:22:605
4.9622,-8.2301,2.8349,-0.2067,0.0236,-0.0871,0.0506,4.0E-4,0.0289,462,2019-08-07 16:23:22:609
5.034,-8.063,2.8208,-0.2067,0.0236,-0.0871,0.0506,4.0E-4,0.0289,468,2019-08-07 16:23:22:615
5.034,-8.063,2.8208,-0.2067,0.0236,-0.0871,0.0602,-0.0177,0.0342,473,2019-08-07 16:23:22:620
5.0914,-7.8864,2.8019,-0.3149,-0.2422,-0.0912,0.0602,-0.0177,0.0342,478,2019-08-07 16:23:22:625
5.0914,-7.8864,2.8019,-0.3149,-0.2422,-0.0912,0.0666,-0.0273,0.0427,483,2019-08-07 16:23:22:630
5.0914,-7.8864,2.8019,-0.3149,-0.2422,-0.0912,0.0666,-0.0273,0.0427,487,2019-08-07 16:23:22:634
5.1727,-7.8005,2.8349,-0.3149,-0.2422,-0.0912,0.0602,-0.0432,0.0587,493,2019-08-07 16:23:22:640
5.1727,-7.8005,2.8349,-0.4568,-0.3797,-0.083,0.0602,-0.0432,0.0587,498,2019-08-07 16:23:22:645
5.1727,-7.8005,2.8349,-0.4568,-0.3797,-0.083,0.0602,-0.0432,0.0587,502,2019-08-07 16:23:22:649
5.2827,-7.7336,2.7218,-0.4568,-0.3797,-0.083,0.057,-0.0443,0.0725,508,2019-08-07 16:23:22:655
5.2827,-7.7336,2.7218,-0.4568,-0.3797,-0.083,0.057,-0.0443,0.0725,513,2019-08-07 16:23:22:660
5.2635,-7.7002,2.7453,-0.4959,-0.4293,-0.0221,0.0421,-0.0443,0.081,518,2019-08-07 16:23:22:665
5.2635,-7.7002,2.7453,-0.4959,-0.4293,-0.0221,0.0421,-0.0443,0.081,523,2019-08-07 16:23:22:670
5.2635,-7.7002,2.7453,-0.4959,-0.4293,-0.0221,0.0357,-0.0262,0.0874,528,2019-08-07 16:23:22:675
5.2635,-7.853,2.7736,-0.4959,-0.4293,-0.0221,0.0357,-0.0262,0.0874,534,2019-08-07 16:23:22:681
5.2635,-7.853,2.7736,-0.4626,-0.2859,-0.0516,0.024,-0.0134,0.1002,538,2019-08-07 16:23:22:685
5.163,-7.8816,2.783,-0.4626,-0.2859,-0.0516,0.024,-0.0134,0.1002,543,2019-08-07 16:23:22:690
5.163,-7.8816,2.783,-0.4626,-0.2859,-0.0516,0.024,-0.0134,0.1002,548,2019-08-07 16:23:22:695
5.163,-7.8816,2.783,-0.4626,-0.2859,-0.0516,0.0261,0.0026,0.0981,553,2019-08-07 16:23:22:700
5.163,-7.8816,2.783,-0.4626,-0.2859,-0.0516,0.0261,0.0026,0.0981,558,2019-08-07 16:23:22:705
5.1582,-7.8578,2.6888,-0.3796,-0.2488,0.0284,0.0315,0.0271,0.0874,562,2019-08-07 16:23:22:709
5.1582,-7.8578,2.6888,-0.3796,-0.2488,0.0284,0.0315,0.0271,0.0874,568,2019-08-07 16:23:22:715
5.0099,-7.6859,2.7547,-0.3796,-0.2488,0.0284,0.0378,0.0505,0.0821,572,2019-08-07 16:23:22:719
5.0099,-7.6859,2.7547,-0.3796,-0.2488,0.0284,0.0378,0.0505,0.0821,578,2019-08-07 16:23:22:725
5.0099,-7.6859,2.7547,-0.2059,-0.4246,-0.0173,0.0389,0.0516,0.0725,583,2019-08-07 16:23:22:730
4.8951,-7.6238,2.9009,-0.2059,-0.4246,-0.0173,0.0389,0.0516,0.0725,588,2019-08-07 16:23:22:735
4.8951,-7.6238,2.9009,-0.2059,-0.4246,-0.0173,0.0389,0.0516,0.0725,592,2019-08-07 16:23:22:739
4.8425,-7.5761,2.948,-0.2059,-0.4246,-0.0173,0.0336,0.0196,0.0565,598,2019-08-07 16:23:22:745
4.8425,-7.5761,2.948,-0.1239,-0.5406,-0.1338,0.0336,0.0196,0.0565,603,2019-08-07 16:23:22:750
4.8425,-7.5761,2.948,-0.1239,-0.5406,-0.1338,0.0091,-0.0326,0.0395,608,2019-08-07 16:23:22:755
4.9477,-7.5809,2.8632,-0.1239,-0.5406,-0.1338,0.0091,-0.0326,0.0395,613,2019-08-07 16:23:22:760
4.9477,-7.5809,2.8632,-0.1239,-0.5406,-0.1338,-0.0186,-0.0624,0.0246,617,2019-08-07 16:23:22:764
5.0721,-7.7193,2.8396,-0.3582,-0.4413,0.0,-0.0186,-0.0624,0.0246,623,2019-08-07 16:23:22:770
5.0721,-7.7193,2.8396,-0.3582,-0.4413,0.0,-0.0314,-0.0677,0.015,627,2019-08-07 16:23:22:774
5.0721,-7.7193,2.8396,-0.3582,-0.4413,0.0,-0.0314,-0.0677,0.015,633,2019-08-07 16:23:22:780
5.1534,-7.8625,2.7123,-0.3582,-0.4413,0.0,-0.0314,-0.0443,0.0022,637,2019-08-07 16:23:22:784
5.1534,-7.8625,2.7123,-0.4487,-0.2748,0.0318,-0.0314,-0.0443,0.0022,643,2019-08-07 16:23:22:790
5.1534,-7.8625,2.7123,-0.4487,-0.2748,0.0318,-0.0314,-0.0443,0.0022,648,2019-08-07 16:23:22:795
5.2108,-7.9962,2.6935,-0.4487,-0.2748,0.0318,-0.0314,-0.0177,-0.0031,653,2019-08-07 16:23:22:800
5.2108,-7.9962,2.6935,-0.4487,-0.2748,0.0318,-0.0314,-0.0177,-0.0031,658,2019-08-07 16:23:22:805
5.2156,-8.0487,2.7123,-0.4627,-0.1024,0.0246,-0.0293,-0.0027,-0.0106,663,2019-08-07 16:23:22:810
5.2156,-8.0487,2.7123,-0.4627,-0.1024,0.0246,-0.0293,-0.0027,-0.0106,668,2019-08-07 16:23:22:815
5.2156,-8.0487,2.7123,-0.4627,-0.1024,0.0246,-0.0197,0.0154,-0.0148,673,2019-08-07 16:23:22:820
5.1438,-8.063,2.8301,-0.4627,-0.1024,0.0246,-0.0197,0.0154,-0.0148,678,2019-08-07 16:23:22:825
5.1438,-8.063,2.8301,-0.391,-0.1147,-0.0859,-0.0037,0.0196,-0.0159,683,2019-08-07 16:23:22:830
5.1438,-8.063,2.8301,-0.391,-0.1147,-0.0859,-0.0037,0.0196,-0.0159,687,2019-08-07 16:23:22:834
5.1581,-8.0392,2.8019,-0.4177,-0.1132,-0.1131,0.0059,0.0122,-0.0159,693,2019-08-07 16:23:22:840
5.1581,-8.0392,2.8019,-0.4177,-0.1132,-0.1131,0.0059,0.0122,-0.0159,698,2019-08-07 16:23:22:845
5.1294,-8.001,2.8301,-0.4177,-0.1132,-0.1131,0.0038,-0.0113,-0.0063,703,2019-08-07 16:23:22:850
5.1294,-8.001,2.8301,-0.4177,-0.1132,-0.1131,0.0038,-0.0113,-0.0063,708,2019-08-07 16:23:22:855
5.1294,-8.001,2.8301,-0.4373,-0.1532,-0.1025,0.0038,-0.0113,-0.0063,713,2019-08-07 16:23:22:860
5.2203,-8.0296,2.8301,-0.4373,-0.1532,-0.1025,0.0059,-0.0038,0.0012,718,2019-08-07 16:23:22:865
5.2203,-8.0296,2.8301,-0.4373,-0.1532,-0.1025,0.0059,-0.0038,0.0012,722,2019-08-07 16:23:22:869
5.139,-7.9962,2.8537,-0.4373,-0.1532,-0.1025,0.0144,0.0047,0.0075,728,2019-08-07 16:23:22:875
5.139,-7.9962,2.8537,-0.3301,-0.1656,-0.1894,0.0144,0.0047,0.0075,733,2019-08-07 16:23:22:880
5.139,-7.9962,2.8537,-0.3301,-0.1656,-0.1894,0.0144,0.0218,0.0139,738,2019-08-07 16:23:22:885
5.1055,-7.9771,2.9904,-0.2779,-0.1457,-0.191,0.0144,0.0218,0.0139,743,2019-08-07 16:23:22:890
5.1055,-7.9771,2.9904,-0.2779,-0.1457,-0.191,0.0208,0.026,0.0161,747,2019-08-07 16:23:22:894
5.0002,-7.9484,2.8348,-0.2779,-0.1457,-0.191,0.0208,0.026,0.0161,753,2019-08-07 16:23:22:900
5.0002,-7.9484,2.8348,-0.2779,-0.1457,-0.191,0.0208,0.026,0.0161,758,2019-08-07 16:23:22:905
5.0002,-7.9484,2.8348,-0.2613,-0.1783,-0.123,0.0155,0.0399,0.0182,763,2019-08-07 16:23:22:910
4.9523,-7.9866,2.8631,-0.2613,-0.1783,-0.123,0.0155,0.0399,0.0182,768,2019-08-07 16:23:22:915
4.9523,-7.9866,2.8631,-0.2613,-0.1783,-0.123,0.0133,0.0665,0.0086,774,2019-08-07 16:23:22:921
4.9236,-7.9866,2.8584,-0.2613,-0.1783,-0.123,0.0133,0.0665,0.0086,778,2019-08-07 16:23:22:925
4.9236,-7.9866,2.8584,-0.2165,-0.2007,-0.0474,0.0155,0.0899,-0.0063,782,2019-08-07 16:23:22:929
4.9236,-7.9866,2.8584,-0.2165,-0.2007,-0.0474,0.0155,0.0899,-0.0063,788,2019-08-07 16:23:22:935
4.9092,-7.8768,2.7877,-0.2165,-0.2007,-0.0474,0.0187,0.1048,-0.0297,794,2019-08-07 16:23:22:941
4.9092,-7.8768,2.7877,-0.2165,-0.2007,-0.0474,0.0187,0.1048,-0.0297,798,2019-08-07 16:23:22:945
4.7753,-7.8005,2.7641,-0.0334,-0.3291,0.0037,0.0133,0.1112,-0.0553,803,2019-08-07 16:23:22:950
4.7753,-7.8005,2.7641,-0.0334,-0.3291,0.0037,0.0133,0.1112,-0.0553,808,2019-08-07 16:23:22:955
4.7753,-7.8005,2.7641,-0.0334,-0.3291,0.0037,0.0102,0.1091,-0.0766,813,2019-08-07 16:23:22:960
4.6269,-7.6954,2.7594,-0.0334,-0.3291,0.0037,0.0102,0.1091,-0.0766,817,2019-08-07 16:23:22:964
4.6269,-7.6954,2.7594,0.1817,-0.4391,0.0528,0.0016,0.0654,-0.1086,823,2019-08-07 16:23:22:970
4.4069,-7.7002,2.7783,0.1817,-0.4391,0.0528,0.0016,0.0654,-0.1086,828,2019-08-07 16:23:22:975
4.4069,-7.7002,2.7783,0.1817,-0.4391,0.0528,0.0038,0.0164,-0.1384,833,2019-08-07 16:23:22:980
4.4069,-7.7002,2.7783,0.1817,-0.4391,0.0528,0.0038,0.0164,-0.1384,837,2019-08-07 16:23:22:984
4.2585,-7.6429,2.8207,0.634,-0.4639,-0.1054,-0.0016,-0.0688,-0.1629,843,2019-08-07 16:23:22:990
4.2585,-7.6429,2.8207,0.634,-0.4639,-0.1054,-0.0016,-0.0688,-0.1629,849,2019-08-07 16:23:22:996
4.2585,-7.6429,2.8207,0.634,-0.4639,-0.1054,0.0144,-0.1828,-0.1981,853,2019-08-07 16:23:23:000
4.2394,-7.6238,2.5473,0.634,-0.4639,-0.1054,0.0144,-0.1828,-0.1981,858,2019-08-07 16:23:23:005
4.2394,-7.6238,2.5473,0.6115,-0.4069,0.3664,0.0378,-0.2147,-0.2577,863,2019-08-07 16:23:23:010
4.2394,-7.6238,2.5473,0.6115,-0.4069,0.3664,0.0378,-0.2147,-0.2577,867,2019-08-07 16:23:23:014
4.1867,-7.7002,2.2267,0.6115,-0.4069,0.3664,0.0378,-0.2147,-0.2577,873,2019-08-07 16:23:23:020
4.1867,-7.7002,2.2267,0.6346,-0.3261,0.8111,0.0677,-0.1743,-0.3248,878,2019-08-07 16:23:23:025
4.2728,-7.8339,1.7224,0.6346,-0.3261,0.8111,0.0677,-0.1743,-0.3248,884,2019-08-07 16:23:23:031
4.2728,-7.8339,1.7224,0.6346,-0.3261,0.8111,0.1092,0.042,-0.4569,887,2019-08-07 16:23:23:034
4.2154,-8.02,1.2934,0.6346,-0.3261,0.8111,0.1092,0.042,-0.4569,893,2019-08-07 16:23:23:040
4.2154,-8.02,1.2934,0.7786,0.0408,1.5554,0.1657,0.2955,-0.5997,898,2019-08-07 16:23:23:045
4.2154,-8.02,1.2934,0.7786,0.0408,1.5554,0.1657,0.2955,-0.5997,903,2019-08-07 16:23:23:050
4.1963,-8.2587,0.6287,0.7786,0.0408,1.5554,0.2339,0.6716,-0.7584,907,2019-08-07 16:23:23:054
4.1963,-8.2587,0.6287,0.6531,0.5118,2.4569,0.2339,0.6716,-0.7584,913,2019-08-07 16:23:23:060
4.1963,-8.2587,0.6287,0.6531,0.5118,2.4569,0.3553,1.1999,-0.9778,918,2019-08-07 16:23:23:065
4.201,-8.5308,0.0207,0.6531,0.5118,2.4569,0.3553,1.1999,-0.9778,923,2019-08-07 16:23:23:070
4.201,-8.5308,0.0207,1.2307,0.4638,3.1259,0.4853,1.7315,-1.1749,928,2019-08-07 16:23:23:075
2.6174,-8.3733,-0.5403,1.2307,0.4638,3.1259,0.4853,1.7315,-1.1749,932,2019-08-07 16:23:23:079
2.6174,-8.3733,-0.5403,1.2307,0.4638,3.1259,0.8134,3.0269,-1.5701,938,2019-08-07 16:23:23:085
2.6174,-8.3733,-0.5403,1.2307,0.4638,3.1259,0.8134,3.0269,-1.5701,943,2019-08-07 16:23:23:090
-0.6215,-8.2396,0.1055,5.696,0.5098,3.1709,1.0083,3.8269,-1.9025,949,2019-08-07 16:23:23:096
-0.6215,-8.2396,0.1055,5.696,0.5098,3.1709,1.0083,3.8269,-1.9025,953,2019-08-07 16:23:23:100
-0.6215,-8.2396,0.1055,5.696,0.5098,3.1709,1.0083,3.8269,-1.9025,958,2019-08-07 16:23:23:105
-4.956,-8.359,-0.2763,5.696,0.5098,3.1709,1.1159,4.1784,-2.1869,963,2019-08-07 16:23:23:110
-4.956,-8.359,-0.2763,11.8012,1.2331,4.1593,1.1159,4.1784,-2.1869,967,2019-08-07 16:23:23:114
-6.8219,-9.858,0.525,11.8012,1.2331,4.1593,1.3929,4.269,-2.7387,973,2019-08-07 16:23:23:120
-6.8219,-9.858,0.525,11.8012,1.2331,4.1593,1.3929,4.269,-2.7387,978,2019-08-07 16:23:23:125
-6.8219,-9.858,0.525,11.8012,1.2331,4.1593,1.6933,4.0911,-3.4088,983,2019-08-07 16:23:23:130
-8.2333,-10.9893,-1.0305,13.3146,3.8993,5.5191,1.6933,4.0911,-3.4088,988,2019-08-07 16:23:23:135
-8.2333,-10.9893,-1.0305,13.3146,3.8993,5.5191,1.9575,3.3049,-3.9936,992,2019-08-07 16:23:23:139
-9.238,-12.5552,-2.539,13.3146,3.8993,5.5191,1.9575,3.3049,-3.9936,999,2019-08-07 16:23:23:146
-9.238,-12.5552,-2.539,13.3146,3.8993,5.5191,1.9575,3.3049,-3.9936,1003,2019-08-07 16:23:23:150
-9.238,-12.5552,-2.539,14.9074,7.2601,8.6995,2.3729,2.1022,-4.359,1008,2019-08-07 16:23:23:155
-9.6494,-14.1639,-3.9295,14.9074,7.2601,8.6995,2.3729,2.1022,-4.359,1014,2019-08-07 16:23:23:161
-9.6494,-14.1639,-3.9295,14.9074,7.2601,8.6995,2.7234,1.854,-4.2844,1018,2019-08-07 16:23:23:165
-10.3814,-17.1332,-7.908,14.9074,7.2601,8.6995,2.7234,1.854,-4.2844,1023,2019-08-07 16:23:23:170
-10.3814,-17.1332,-7.908,16.2307,11.8541,14.3028,3.1079,2.3185,-4.1097,1028,2019-08-07 16:23:23:175
-10.3814,-17.1332,-7.908,16.2307,11.8541,14.3028,3.1079,2.3185,-4.1097,1033,2019-08-07 16:23:23:180
-10.3814,-17.1332,-7.908,16.2307,11.8541,14.3028,3.1079,2.3185,-4.1097,1039,2019-08-07 16:23:23:186
-11.7689,-20.3699,-10.1518,16.2307,11.8541,14.3028,3.6565,3.4626,-4.0959,1043,2019-08-07 16:23:23:190
-11.7689,-20.3699,-10.1518,18.3387,15.5586,15.3101,3.6565,3.4626,-4.0959,1048,2019-08-07 16:23:23:195
-11.7689,-20.3699,-10.1518,18.3387,15.5586,15.3101,3.6565,3.4626,-4.0959,1053,2019-08-07 16:23:23:200
-13.5199,-19.4963,-3.3733,18.3387,15.5586,15.3101,5.0094,4.2913,-4.6253,1057,2019-08-07 16:23:23:204
-13.5199,-19.4963,-3.3733,18.3387,15.5586,15.3101,6.4316,3.2836,-4.9694,1064,2019-08-07 16:23:23:211
-13.5199,-19.4963,-3.3733,18.3959,15.7985,5.9285,6.4316,3.2836,-4.9694,1068,2019-08-07 16:23:23:215
-12.367,-19.8448,1.6186,18.3959,15.7985,5.9285,6.4316,3.2836,-4.9694,1073,2019-08-07 16:23:23:220
-12.367,-19.8448,1.6186,18.3959,15.7985,5.9285,7.6875,1.1318,-5.2794,1078,2019-08-07 16:23:23:225
-7.7693,-19.9402,-0.7996,18.3959,15.7985,5.9285,7.6875,1.1318,-5.2794,1084,2019-08-07 16:23:23:231
-7.7693,-19.9402,-0.7996,11.33,16.9971,8.9815,8.4865,-1.2747,-6.3776,1088,2019-08-07 16:23:23:235
-7.7693,-19.9402,-0.7996,11.33,16.9971,8.9815,8.4865,-1.2747,-6.3776,1094,2019-08-07 16:23:23:241
-3.5831,-17.7061,-2.1996,11.33,16.9971,8.9815,8.4865,-1.2747,-6.3776,1098,2019-08-07 16:23:23:245
-3.5831,-17.7061,-2.1996,11.33,16.9971,8.9815,9.0084,1.0572,-7.5143,1103,2019-08-07 16:23:23:250
-3.5831,-17.7061,-2.1996,11.33,16.9971,8.9815,9.0084,1.0572,-7.5143,1108,2019-08-07 16:23:23:255
-0.1337,-8.7361,-6.7296,5.8783,8.804,14.6813,9.3152,1.5248,-8.2834,1113,2019-08-07 16:23:23:260
-0.1337,-8.7361,-6.7296,5.8783,8.804,14.6813,9.3152,1.5248,-8.2834,1118,2019-08-07 16:23:23:265
-0.1337,-8.7361,-6.7296,5.8783,8.804,14.6813,11.091,2.653,-9.436,1122,2019-08-07 16:23:23:269
-1.4542,6.015,-5.9376,9.5061,-10.8275,13.5418,11.091,2.653,-9.436,1128,2019-08-07 16:23:23:275
-1.4542,6.015,-5.9376,9.5061,-10.8275,13.5418,14.4658,2.2876,-8.0459,1132,2019-08-07 16:23:23:279
-1.4542,6.015,-5.9376,9.5061,-10.8275,13.5418,14.4658,2.2876,-8.0459,1138,2019-08-07 16:23:23:285
-34.1879,157.0682,-15.3087,9.5061,-10.8275,13.5418,15.4394,-9.5486,-3.4631,1143,2019-08-07 16:23:23:290
-34.1879,157.0682,-15.3087,21.6872,-105.6471,22.304,15.4394,-9.5486,-3.4631,1148,2019-08-07 16:23:23:295
-34.1879,157.0682,-15.3087,21.6872,-105.6471,22.304,15.4394,-9.5486,-3.4631,1152,2019-08-07 16:23:23:299
10.87,51.5573,-60.1559,21.6872,-105.6471,22.304,6.8502,-10.9611,-4.474,1158,2019-08-07 16:23:23:305
10.87,51.5573,-60.1559,-6.3262,-40.5166,63.3897,6.8502,-10.9611,-4.474,1163,2019-08-07 16:23:23:310
29.3754,43.8953,-31.9673,-6.3262,-40.5166,63.3897,-1.968,-13.6818,-3.2905,1167,2019-08-07 16:23:23:314
29.3754,43.8953,-31.9673,-6.3262,-40.5166,63.3897,-1.968,-13.6818,-3.2905,1173,2019-08-07 16:23:23:320
29.3754,43.8953,-31.9673,-28.8266,-25.9669,25.5661,-5.2075,-7.5544,-0.9959,1178,2019-08-07 16:23:23:325
38.0732,24.4085,-19.4993,-28.8266,-25.9669,25.5661,-5.2075,-7.5544,-0.9959,1183,2019-08-07 16:23:23:330
38.0732,24.4085,-19.4993,-28.8266,-25.9669,25.5661,-6.717,-1.737,1.3998,1188,2019-08-07 16:23:23:335
39.1496,-1.2364,7.6947,-28.8266,-25.9669,25.5661,-6.717,-1.737,1.3998,1192,2019-08-07 16:23:23:339
39.1496,-1.2364,7.6947,-27.4474,8.3195,-56.8054,-3.5382,4.4053,1.8867,1198,2019-08-07 16:23:23:345
39.1496,-1.2364,7.6947,-27.4474,8.3195,-56.8054,-3.5382,4.4053,1.8867,1203,2019-08-07 16:23:23:350
17.0129,9.8007,27.4644,-27.4474,8.3195,-56.8054,-3.5382,4.4053,1.8867,1207,2019-08-07 16:23:23:354
17.0129,9.8007,27.4644,-4.296,-7.9275,-13.1557,1.6485,0.7451,3.6902,1213,2019-08-07 16:23:23:360
17.0129,9.8007,27.4644,-4.296,-7.9275,-13.1557,1.6485,0.7451,3.6902,1218,2019-08-07 16:23:23:365
4.4734,19.587,-7.875,-4.296,-7.9275,-13.1557,4.5173,7.371,6.9264,1223,2019-08-07 16:23:23:370
4.4734,19.587,-7.875,-4.296,-7.9275,-13.1557,4.5173,7.371,6.9264,1228,2019-08-07 16:23:23:375
5.6647,34.6007,16.4812,2.2616,-29.0743,-17.1874,1.8722,6.2184,8.2388,1232,2019-08-07 16:23:23:379
5.6647,34.6007,16.4812,2.2616,-29.0743,-17.1874,1.8722,6.2184,8.2388,1238,2019-08-07 16:23:23:385
5.6647,34.6007,16.4812,2.2616,-29.0743,-17.1874,1.8722,6.2184,8.2388,1243,2019-08-07 16:23:23:390
10.0901,40.5966,-8.6764,2.2616,-29.0743,-17.1874,-2.9215,-1.7285,7.8415,1248,2019-08-07 16:23:23:395
10.0901,40.5966,-8.6764,-0.4314,-41.4507,1.7647,-2.9215,-1.7285,7.8415,1253,2019-08-07 16:23:23:400
10.0901,40.5966,-8.6764,-0.4314,-41.4507,1.7647,-2.9215,-1.7285,7.8415,1258,2019-08-07 16:23:23:405
9.0375,33.7462,-6.7107,-0.4314,-41.4507,1.7647,-4.1593,-3.1953,8.2484,1263,2019-08-07 16:23:23:410
9.0375,33.7462,-6.7107,-0.4314,-41.4507,1.7647,-4.1593,-3.1953,8.2484,1268,2019-08-07 16:23:23:415
14.8743,14.0112,7.1573,-5.2547,-14.7292,0.305,-5.1447,-3.1602,8.9387,1273,2019-08-07 16:23:23:420
14.8743,14.0112,7.1573,-5.2547,-14.7292,0.305,-5.1447,-3.1602,8.9387,1277,2019-08-07 16:23:23:424
14.8743,14.0112,7.1573,-5.2547,-14.7292,0.305,-5.3311,-3.8068,8.9579,1283,2019-08-07 16:23:23:430
22.1367,3.399,13.7566,-5.2547,-14.7292,0.305,-5.3311,-3.8068,8.9579,1288,2019-08-07 16:23:23:435
22.1367,3.399,13.7566,-15.6342,0.0014,-17.785,-3.9026,-3.0238,8.2782,1293,2019-08-07 16:23:23:440
20.4048,-1.265,9.3492,-15.6342,0.0014,-17.785,-3.9026,-3.0238,8.2782,1297,2019-08-07 16:23:23:444
20.4048,-1.265,9.3492,-15.6342,0.0014,-17.785,-3.9026,-3.0238,8.2782,1303,2019-08-07 16:23:23:450
20.4048,-1.265,9.3492,-15.6342,0.0014,-17.785,-1.3811,-0.5322,6.658,1308,2019-08-07 16:23:23:455
15.0656,-1.2603,3.8246,-4.3943,-0.4063,1.5407,-1.3811,-0.5322,6.658,1313,2019-08-07 16:23:23:460
15.0656,-1.2603,3.8246,-4.3943,-0.4063,1.5407,-1.8338,0.5938,6.266,1318,2019-08-07 16:23:23:465
5.167,-0.105,-2.3033,-4.3943,-0.4063,1.5407,-1.8338,0.5938,6.266,1322,2019-08-07 16:23:23:469
5.167,-0.105,-2.3033,-4.3943,-0.4063,1.5407,-2.7137,1.8529,6.3789,1328,2019-08-07 16:23:23:475
5.167,-0.105,-2.3033,6.3072,-2.1304,3.8942,-2.7137,1.8529,6.3789,1332,2019-08-07 16:23:23:479
1.3731,-1.2937,4.6165,6.3072,-2.1304,3.8942,-3.404,2.5038,6.6218,1338,2019-08-07 16:23:23:485
1.3731,-1.2937,4.6165,7.911,-1.7082,-6.7172,-3.404,2.5038,6.6218,1343,2019-08-07 16:23:23:490
-1.3061,-3.208,9.0664,7.911,-1.7082,-6.7172,-2.784,1.7219,6.56,1349,2019-08-07 16:23:23:496
-1.3061,-3.208,9.0664,7.911,-1.7082,-6.7172,-2.784,1.7219,6.56,1352,2019-08-07 16:23:23:499
-1.3061,-3.208,9.0664,7.911,-1.7082,-6.7172,-2.784,1.7219,6.56,1358,2019-08-07 16:23:23:505
-2.617,-5.4183,4.7815,10.0912,1.1033,-0.1056,-2.3345,1.7699,6.2841,1363,2019-08-07 16:23:23:510
-2.617,-5.4183,4.7815,10.0912,1.1033,-0.1056,-2.3345,1.7699,6.2841,1368,2019-08-07 16:23:23:515
-2.617,-5.4183,4.7815,10.0912,1.1033,-0.1056,-2.5667,1.6836,5.7237,1373,2019-08-07 16:23:23:520
-4.1336,-6.9793,3.1694,10.0912,1.1033,-0.1056,-2.5667,1.6836,5.7237,1378,2019-08-07 16:23:23:525
-4.1336,-6.9793,3.1694,12.0724,1.4062,1.1642,-2.9374,1.3651,5.4361,1382,2019-08-07 16:23:23:529
-4.1336,-6.9793,3.1694,12.0724,1.4062,1.1642,-2.9374,1.3651,5.4361,1388,2019-08-07 16:23:23:535
-6.8989,-7.5378,3.5088,13.0536,1.217,0.7813,-3.0099,1.0572,5.4351,1393,2019-08-07 16:23:23:540
-6.8989,-7.5378,3.5088,13.0536,1.217,0.7813,-3.0099,1.0572,5.4351,1397,2019-08-07 16:23:23:544
-6.8989,-7.5378,3.5088,13.0536,1.217,0.7813,-3.0099,1.0572,5.4351,1403,2019-08-07 16:23:23:550
-7.1669,-9.5476,2.4104,13.0536,1.217,0.7813,-2.6317,0.8399,5.5821,1407,2019-08-07 16:23:23:554
-7.1669,-9.5476,2.4104,12.4571,3.0251,1.7259,-2.6317,0.8399,5.5821,1413,2019-08-07 16:23:23:560
-7.1669,-9.5476,2.4104,12.4571,3.0251,1.7259,-2.0724,0.5736,5.5863,1418,2019-08-07 16:23:23:565
-7.3391,-11.1373,1.661,12.4571,3.0251,1.7259,-2.0724,0.5736,5.5863,1424,2019-08-07 16:23:23:571
-7.3391,-11.1373,1.661,12.4571,3.0251,1.7259,-1.5579,0.6279,5.4894,1428,2019-08-07 16:23:23:575
-7.2769,-12.1111,-0.2387,11.567,4.1485,4.0372,-1.5579,0.6279,5.4894,1433,2019-08-07 16:23:23:580
-7.2769,-12.1111,-0.2387,11.567,4.1485,4.0372,-0.8676,0.9922,5.0782,1438,2019-08-07 16:23:23:585
-6.7889,-11.7865,-0.3,10.5937,3.5598,4.0526,-0.5448,1.1989,4.6936,1444,2019-08-07 16:23:23:591
-6.7889,-11.7865,-0.3,10.5937,3.5598,4.0526,-0.5448,1.1989,4.6936,1448,2019-08-07 16:23:23:595
-6.7889,-11.7865,-0.3,10.5937,3.5598,4.0526,-0.5448,1.1989,4.6936,1452,2019-08-07 16:23:23:599
-6.7889,-11.7865,-0.3,10.5937,3.5598,4.0526,-0.5448,1.1989,4.6936,1458,2019-08-07 16:23:23:605
-5.9087,-9.2134,0.5249,8.7356,-0.2964,3.5084,0.0197,1.4577,3.9085,1463,2019-08-07 16:23:23:610
-5.9087,-9.2134,0.5249,8.7356,-0.2964,3.5084,0.0197,1.4577,3.9085,1468,2019-08-07 16:23:23:615
-5.9087,-9.2134,0.5249,8.7356,-0.2964,3.5084,0.0197,1.4577,3.9085,1473,2019-08-07 16:23:23:620
-5.4972,-6.9268,1.2037,8.0245,-1.7377,2.6402,0.3436,1.5493,3.0201,1478,2019-08-07 16:23:23:625
-5.4972,-6.9268,1.2037,8.0245,-1.7377,2.6402,0.3436,1.5493,3.0201,1483,2019-08-07 16:23:23:630
-5.4972,-6.9268,1.2037,8.0245,-1.7377,2.6402,0.2829,1.103,2.1562,1487,2019-08-07 16:23:23:634
-2.4401,-5.4326,1.8778,3.8928,-3.4155,2.0992,0.2829,1.103,2.1562,1493,2019-08-07 16:23:23:640
-2.4401,-5.4326,1.8778,3.8928,-3.4155,2.0992,0.1241,0.6332,1.6118,1497,2019-08-07 16:23:23:644
-2.4401,-5.4326,1.8778,3.8928,-3.4155,2.0992,0.1241,0.6332,1.6118,1503,2019-08-07 16:23:23:650
-2.4401,-5.4326,1.8778,3.8928,-3.4155,2.0992,0.1241,0.6332,1.6118,1508,2019-08-07 16:23:23:655
0.4208,-5.3991,1.3262,0.6114,-3.3433,2.5433,0.057,0.4138,1.2177,1513,2019-08-07 16:23:23:660
0.4208,-5.3991,1.3262,0.6114,-3.3433,2.5433,0.057,0.4138,1.2177,1517,2019-08-07 16:23:23:664
0.4208,-5.3991,1.3262,0.6114,-3.3433,2.5433,0.057,0.4138,1.2177,1523,2019-08-07 16:23:23:670
2.124,-5.6713,1.3027,-0.6197,-3.1616,2.6916,0.1156,0.3712,0.8374,1528,2019-08-07 16:23:23:675
2.124,-5.6713,1.3027,-0.6197,-3.1616,2.6916,0.1156,0.3712,0.8374,1532,2019-08-07 16:23:23:679
2.124,-5.6713,1.3027,-0.6197,-3.1616,2.6916,0.203,0.2689,0.6105,1538,2019-08-07 16:23:23:685
3.1239,-5.8383,0.9963,-1.8615,-2.9152,2.8112,0.203,0.2689,0.6105,1542,2019-08-07 16:23:23:689
3.1239,-5.8383,0.9963,-1.8615,-2.9152,2.8112,0.2935,0.2124,0.4635,1548,2019-08-07 16:23:23:695
3.1239,-5.8383,0.9963,-1.8615,-2.9152,2.8112,0.2935,0.2124,0.4635,1553,2019-08-07 16:23:23:700
2.966,-5.6617,1.9815,-1.8615,-2.9152,2.8112,0.2935,0.2124,0.4635,1558,2019-08-07 16:23:23:705
2.966,-5.6617,1.9815,-1.8615,-2.9152,2.8112,0.3074,0.0537,0.4251,1563,2019-08-07 16:23:23:710
3.1191,-5.6331,1.7929,-1.7904,-3.1234,2.1657,0.3074,0.0537,0.4251,1568,2019-08-07 16:23:23:715
3.1191,-5.6331,1.7929,-1.7904,-3.1234,2.1657,0.1785,-0.0187,0.4017,1573,2019-08-07 16:23:23:720
3.1191,-5.6331,1.7929,-1.8798,-3.3487,2.3933,0.1785,-0.0187,0.4017,1578,2019-08-07 16:23:23:725
3.3678,-5.4326,1.7081,-1.8798,-3.3487,2.3933,0.0304,0.0409,0.3378,1583,2019-08-07 16:23:23:730
3.3678,-5.4326,1.7081,-1.8798,-3.3487,2.3933,0.0304,0.0409,0.3378,1588,2019-08-07 16:23:23:735
3.3678,-5.4326,1.7081,-1.8798,-3.3487,2.3933,0.0304,0.0409,0.3378,1592,2019-08-07 16:23:23:739
3.3152,-5.5089,2.1653,-1.9536,-3.296,1.7989,-0.0239,0.1475,0.1972,1598,2019-08-07 16:23:23:745
3.3152,-5.5089,2.1653,-1.9536,-3.296,1.7989,-0.0239,0.1475,0.1972,1603,2019-08-07 16:23:23:750
3.3152,-5.5089,2.1653,-1.9536,-3.296,1.7989,0.0666,0.2977,-0.0106,1608,2019-08-07 16:23:23:755
2.1575,-5.6283,2.8441,-1.9536,-3.296,1.7989,0.0666,0.2977,-0.0106,1613,2019-08-07 16:23:23:760
2.1575,-5.6283,2.8441,-0.6281,-3.1622,1.0769,0.1092,0.2913,-0.1203,1618,2019-08-07 16:23:23:765
2.1575,-5.6283,2.8441,-0.6281,-3.1622,1.0769,0.1092,0.2913,-0.1203,1623,2019-08-07 16:23:23:770
1.6073,-5.9338,3.3815,-0.3578,-2.8874,0.7247,0.1092,0.2913,-0.1203,1628,2019-08-07 16:23:23:775
1.6073,-5.9338,3.3815,-0.3578,-2.8874,0.7247,0.0954,0.2156,-0.2226,1633,2019-08-07 16:23:23:780
1.6073,-5.9338,3.3815,-0.3578,-2.8874,0.7247,0.0954,0.2156,-0.2226,1638,2019-08-07 16:23:23:785
1.3298,-6.1916,3.7586,-0.3578,-2.8874,0.7247,0.0954,0.2156,-0.2226,1643,2019-08-07 16:23:23:790
1.3298,-6.1916,3.7586,0.0805,-2.4271,0.2677,0.024,0.0495,-0.3248,1648,2019-08-07 16:23:23:795
1.2724,-6.5687,4.0131,0.0805,-2.4271,0.2677,0.024,0.0495,-0.3248,1653,2019-08-07 16:23:23:800
1.2724,-6.5687,4.0131,0.0805,-2.4271,0.2677,-0.0484,-0.1103,-0.3887,1658,2019-08-07 16:23:23:805
1.2724,-6.5687,4.0131,0.0805,-2.4271,0.2677,-0.0484,-0.1103,-0.3887,1663,2019-08-07 16:23:23:810
1.5786,-6.9841,4.4091,-0.2123,-1.8094,-0.2806,-0.091,-0.236,-0.4622,1667,2019-08-07 16:23:23:814
1.5786,-6.9841,4.4091,-0.2123,-1.8094,-0.2806,-0.091,-0.236,-0.4622,1673,2019-08-07 16:23:23:820
1.4877,-7.175,4.5882,-0.0652,-1.6139,-0.469,-0.1432,-0.3905,-0.491,1678,2019-08-07 16:23:23:825
1.4877,-7.175,4.5882,-0.0652,-1.6139,-0.469,-0.1432,-0.3905,-0.491,1682,2019-08-07 16:23:23:829
1.4877,-7.175,4.5882,-0.0652,-1.6139,-0.469,-0.1432,-0.3905,-0.491,1688,2019-08-07 16:23:23:835
1.4877,-7.175,4.5882,-0.0652,-1.6139,-0.469,-0.1432,-0.3905,-0.491,1693,2019-08-07 16:23:23:840
1.9039,-7.7956,4.3572,-0.6946,-0.7755,-0.1907,-0.3084,-0.6099,-0.4527,1698,2019-08-07 16:23:23:845
1.9039,-7.7956,4.3572,-0.6946,-0.7755,-0.1907,-0.3084,-0.6099,-0.4527,1703,2019-08-07 16:23:23:850
1.9039,-7.7956,4.3572,-0.6946,-0.7755,-0.1907,-0.417,-0.6099,-0.4505,1708,2019-08-07 16:23:23:855
3.009,-8.4448,4.1545,-0.6946,-0.7755,-0.1907,-0.417,-0.6099,-0.4505,1713,2019-08-07 16:23:23:860
3.009,-8.4448,4.1545,-1.4258,-0.1274,-0.1016,-0.4106,-0.5364,-0.4697,1717,2019-08-07 16:23:23:864
3.009,-8.4448,4.1545,-1.4258,-0.1274,-0.1016,-0.4106,-0.5364,-0.4697,1723,2019-08-07 16:23:23:870
3.0234,-8.8363,3.8481,-1.4258,-0.1274,-0.1016,-0.3936,-0.4203,-0.4622,1727,2019-08-07 16:23:23:874
3.0234,-8.8363,3.8481,-1.4258,-0.1274,-0.1016,-0.3936,-0.4203,-0.4622,1733,2019-08-07 16:23:23:880
3.0234,-8.8363,3.8481,-1.0175,0.0827,0.1895,-0.367,-0.1945,-0.3855,1738,2019-08-07 16:23:23:885
3.0234,-8.8363,3.8481,-1.0175,0.0827,0.1895,-0.367,-0.1945,-0.3855,1743,2019-08-07 16:23:23:890
2.8368,-8.9127,3.7586,-0.8769,0.0666,-0.1296,-0.3393,-0.1231,-0.3653,1748,2019-08-07 16:23:23:895
2.8368,-8.9127,3.7586,-0.8769,0.0666,-0.1296,-0.3393,-0.1231,-0.3653,1753,2019-08-07 16:23:23:900
2.5067,-8.7313,4.3855,-0.8769,0.0666,-0.1296,-0.3393,-0.1231,-0.3653,1758,2019-08-07 16:23:23:905
2.5067,-8.7313,4.3855,-0.8769,0.0666,-0.1296,-0.2668,-0.0933,-0.3578,1763,2019-08-07 16:23:23:910
2.4205,-8.5546,4.3808,-0.4747,-0.2206,-0.5857,-0.2668,-0.0933,-0.3578,1768,2019-08-07 16:23:23:915
2.4205,-8.5546,4.3808,-0.4747,-0.2206,-0.5857,-0.2253,-0.1327,-0.3451,1773,2019-08-07 16:23:23:920
2.4205,-8.5546,4.3808,-0.4747,-0.2206,-0.5857,-0.2253,-0.1327,-0.3451,1777,2019-08-07 16:23:23:924
2.4684,-8.5499,4.2158,-0.4747,-0.2206,-0.5857,-0.2647,-0.1529,-0.3397,1784,2019-08-07 16:23:23:931
2.4684,-8.5499,4.2158,-0.5085,-0.2896,-0.5787,-0.2647,-0.1529,-0.3397,1788,2019-08-07 16:23:23:935
2.5401,-8.6596,4.3761,-0.5085,-0.2896,-0.5787,-0.3073,-0.187,-0.3333,1793,2019-08-07 16:23:23:940
2.5401,-8.6596,4.3761,-0.465,-0.1543,-0.6825,-0.3073,-0.187,-0.3333,1798,2019-08-07 16:23:23:945
2.5401,-8.6596,4.3761,-0.465,-0.1543,-0.6825,-0.3073,-0.187,-0.3333,1803,2019-08-07 16:23:23:950
2.5401,-8.6596,4.3761,-0.465,-0.1543,-0.6825,-0.3243,-0.2584,-0.3174,1808,2019-08-07 16:23:23:955
2.6884,-9.032,4.3855,-0.5976,0.19,-0.6863,-0.3243,-0.2584,-0.3174,1812,2019-08-07 16:23:23:959
2.6884,-9.032,4.3855,-0.5976,0.19,-0.6863,-0.3137,-0.2733,-0.3174,1818,2019-08-07 16:23:23:965
3.0855,-9.3328,4.3053,-0.5976,0.19,-0.6863,-0.3137,-0.2733,-0.3174,1822,2019-08-07 16:23:23:969
3.0855,-9.3328,4.3053,-0.9841,0.4457,-0.647,-0.2817,-0.2723,-0.3259,1828,2019-08-07 16:23:23:975
3.0855,-9.3328,4.3053,-0.9841,0.4457,-0.647,-0.2817,-0.2723,-0.3259,1833,2019-08-07 16:23:23:980
3.2912,-9.2516,4.4185,-0.9841,0.4457,-0.647,-0.2029,-0.219,-0.3259,1838,2019-08-07 16:23:23:985
3.2912,-9.2516,4.4185,-0.9841,0.4457,-0.647,-0.2029,-0.219,-0.3259,1843,2019-08-07 16:23:23:990
3.5017,-9.1036,4.3902,-1.2942,0.1666,-0.8278,-0.1539,-0.1796,-0.3291,1849,2019-08-07 16:23:23:996
3.5017,-9.1036,4.3902,-1.2942,0.1666,-0.8278,-0.1539,-0.1796,-0.3291,1852,2019-08-07 16:23:23:999
3.5017,-9.1036,4.3902,-1.2942,0.1666,-0.8278,-0.1539,-0.1796,-0.3291,1858,2019-08-07 16:23:24:005
3.5687,-8.779,4.3808,-1.2736,-0.0621,-0.8026,-0.1081,-0.1178,-0.3312,1863,2019-08-07 16:23:24:010
3.5687,-8.779,4.3808,-1.2736,-0.0621,-0.8026,-0.1081,-0.1178,-0.3312,1868,2019-08-07 16:23:24:015
3.6356,-8.2682,4.2582,-1.2736,-0.0621,-0.8026,-0.139,-0.0454,-0.2918,1873,2019-08-07 16:23:24:020
3.6356,-8.2682,4.2582,-1.2736,-0.0621,-0.8026,-0.139,-0.0454,-0.2918,1878,2019-08-07 16:23:24:025
3.6356,-8.2682,4.2582,-1.2957,-0.63,-0.517,-0.2082,0.0026,-0.2556,1883,2019-08-07 16:23:24:030
3.6117,-8.1584,4.0319,-1.2957,-0.63,-0.517,-0.2082,0.0026,-0.2556,1888,2019-08-07 16:23:24:035
3.6117,-8.1584,4.0319,-1.2957,-0.63,-0.517,-0.2508,0.0601,-0.2279,1893,2019-08-07 16:23:24:040
3.5399,-8.6215,4.0319,-1.1263,-0.2109,-0.5107,-0.2508,0.0601,-0.2279,1898,2019-08-07 16:23:24:045
3.5399,-8.6215,4.0319,-1.1263,-0.2109,-0.5107,-0.2562,0.091,-0.2087,1903,2019-08-07 16:23:24:050
3.5399,-8.6215,4.0319,-1.1263,-0.2109,-0.5107,-0.2562,0.091,-0.2087,1908,2019-08-07 16:23:24:055
3.3198,-9.0368,3.7962,-0.8873,0.2016,-0.295,-0.2466,0.0921,-0.1938,1913,2019-08-07 16:23:24:060
3.3198,-9.0368,3.7962,-0.8873,0.2016,-0.295,-0.2466,0.0921,-0.1938,1918,2019-08-07 16:23:24:065
3.3198,-9.0368,3.7962,-0.8873,0.2016,-0.295,-0.2466,0.0921,-0.1938,1922,2019-08-07 16:23:24:069
3.0902,-9.2993,3.8434,-0.8873,0.2016,-0.295,-0.1773,0.0878,-0.18,1928,2019-08-07 16:23:24:075
3.0902,-9.2993,3.8434,-0.5407,0.4693,-0.3656,-0.1773,0.0878,-0.18,1934,2019-08-07 16:23:24:081
2.9036,-9.075,3.8716,-0.5407,0.4693,-0.3656,-0.0825,0.0942,-0.1789,1938,2019-08-07 16:23:24:085
2.9036,-9.075,3.8716,-0.5407,0.4693,-0.3656,-0.0825,0.0942,-0.1789,1943,2019-08-07 16:23:24:090
2.9036,-9.075,3.8716,-0.5407,0.4693,-0.3656,-0.0825,0.0942,-0.1789,1947,2019-08-07 16:23:24:094
2.9753,-8.7456,3.6595,-0.4269,-0.052,-0.1965,-0.0602,0.1166,-0.1821,1954,2019-08-07 16:23:24:101
2.9753,-8.7456,3.6595,-0.4269,-0.052,-0.1965,-0.0602,0.1166,-0.1821,1958,2019-08-07 16:23:24:105
2.9753,-8.7456,3.6595,-0.3795,-0.2827,-0.2266,-0.0793,0.1443,-0.1927,1963,2019-08-07 16:23:24:110
2.8222,-8.44,3.6642,-0.3795,-0.2827,-0.2266,-0.0793,0.1443,-0.1927,1968,2019-08-07 16:23:24:115
2.8222,-8.44,3.6642,-0.3795,-0.2827,-0.2266,-0.139,0.1933,-0.2013,1973,2019-08-07 16:23:24:120
2.6643,-8.3923,3.7302,-0.3795,-0.2827,-0.2266,-0.139,0.1933,-0.2013,1978,2019-08-07 16:23:24:125
2.6643,-8.3923,3.7302,-0.105,-0.351,-0.2888,-0.1837,0.172,-0.2002,1982,2019-08-07 16:23:24:129
2.6643,-8.3923,3.7302,-0.105,-0.351,-0.2888,-0.1837,0.172,-0.2002,1988,2019-08-07 16:23:24:135
2.4777,-8.7551,3.6548,-0.105,-0.351,-0.2888,-0.2178,0.1347,-0.1949,1992,2019-08-07 16:23:24:139
2.4777,-8.7551,3.6548,-0.105,-0.351,-0.2888,-0.2178,0.1347,-0.1949,1999,2019-08-07 16:23:24:146
2.4777,-8.7551,3.6548,0.0543,0.1081,-0.2093,-0.2178,0.1347,-0.1949,2003,2019-08-07 16:23:24:150
2.6164,-8.9747,3.5134,0.0543,0.1081,-0.2093,-0.2626,0.0122,-0.1736,2008,2019-08-07 16:23:24:155
2.6164,-8.9747,3.5134,0.0543,0.1081,-0.2093,-0.2626,0.0122,-0.1736,2013,2019-08-07 16:23:24:160
2.8317,-9.0559,3.3531,0.0543,0.1081,-0.2093,-0.2615,-0.0166,-0.1437,2018,2019-08-07 16:23:24:165
2.8317,-9.0559,3.3531,-0.3229,0.2228,0.0409,-0.2615,-0.0166,-0.1437,2023,2019-08-07 16:23:24:170
2.8317,-9.0559,3.3531,-0.3229,0.2228,0.0409,-0.2253,0.0058,-0.1235,2028,2019-08-07 16:23:24:175
2.9657,-8.9699,3.24,-0.3229,0.2228,0.0409,-0.2253,0.0058,-0.1235,2033,2019-08-07 16:23:24:180
2.9657,-8.9699,3.24,-0.3229,0.2228,0.0409,-0.1709,0.0846,-0.0958,2038,2019-08-07 16:23:24:185
2.9657,-8.9699,3.24,-0.3229,0.2228,0.0409,-0.1709,0.0846,-0.0958,2042,2019-08-07 16:23:24:189
2.9896,-8.8315,3.1693,-0.383,-0.019,0.164,-0.1571,0.1453,-0.0862,2048,2019-08-07 16:23:24:195
2.9896,-8.8315,3.1693,-0.383,-0.019,0.164,-0.1571,0.1453,-0.0862,2052,2019-08-07 16:23:24:199
2.803,-8.5403,3.3154,-0.383,-0.019,0.164,-0.1571,0.1453,-0.0862,2058,2019-08-07 16:23:24:205
2.803,-8.5403,3.3154,-0.156,-0.2918,0.1345,-0.156,0.1805,-0.0756,2063,2019-08-07 16:23:24:210
2.7169,-8.4973,3.2117,-0.156,-0.2918,0.1345,-0.156,0.1805,-0.0756,2068,2019-08-07 16:23:24:215
2.7169,-8.4973,3.2117,-0.156,-0.2918,0.1345,-0.1912,0.2018,-0.0638,2073,2019-08-07 16:23:24:220
2.7169,-8.4973,3.2117,-0.156,-0.2918,0.1345,-0.1912,0.2018,-0.0638,2078,2019-08-07 16:23:24:225
2.6499,-8.5689,3.2447,-0.0453,-0.2812,0.0925,-0.2157,0.173,-0.0628,2083,2019-08-07 16:23:24:230
2.6499,-8.5689,3.2447,-0.0453,-0.2812,0.0925,-0.2157,0.173,-0.0628,2088,2019-08-07 16:23:24:235
2.6499,-8.5689,3.2447,-0.0453,-0.2812,0.0925,-0.2157,0.173,-0.0628,2092,2019-08-07 16:23:24:239
2.7216,-8.6787,3.273,-0.1066,-0.1911,0.0019,-0.2157,0.1368,-0.0553,2098,2019-08-07 16:23:24:245
2.7216,-8.6787,3.273,-0.1066,-0.1911,0.0019,-0.2157,0.1368,-0.0553,2103,2019-08-07 16:23:24:250
2.7216,-8.6787,3.273,-0.1066,-0.1911,0.0019,-0.2157,0.1368,-0.0553,2108,2019-08-07 16:23:24:255
2.9082,-8.7265,3.2164,-0.2976,-0.1766,-0.0278,-0.1784,0.0803,-0.0532,2113,2019-08-07 16:23:24:260
2.9082,-8.7265,3.2164,-0.2976,-0.1766,-0.0278,-0.1784,0.0803,-0.0532,2117,2019-08-07 16:23:24:264
2.9082,-8.7265,3.2164,-0.2976,-0.1766,-0.0278,-0.1081,0.0335,-0.0468,2123,2019-08-07 16:23:24:270
3.0182,-8.5594,3.2494,-0.2976,-0.1766,-0.0278,-0.1081,0.0335,-0.0468,2127,2019-08-07 16:23:24:274
3.0182,-8.5594,3.2494,-0.4507,-0.343,0.09,-0.0687,-0.0081,-0.0372,2134,2019-08-07 16:23:24:281
3.0182,-8.5594,3.2494,-0.4507,-0.343,0.09,-0.0687,-0.0081,-0.0372,2137,2019-08-07 16:23:24:284
3.2287,-8.588,2.9666,-0.4507,-0.343,0.09,-0.042,-0.0102,-0.0543,2143,2019-08-07 16:23:24:290
3.2287,-8.588,2.9666,-0.4507,-0.343,0.09,-0.042,-0.0102,-0.0543,2147,2019-08-07 16:23:24:294
3.3148,-8.5689,3.1362,-0.6695,-0.3129,0.0812,-0.042,-0.0102,-0.0543,2153,2019-08-07 16:23:24:300
3.3148,-8.5689,3.1362,-0.6695,-0.3129,0.0812,6.0E-4,0.0452,-0.1096,2157,2019-08-07 16:23:24:304
3.066,-8.4782,3.2352,-0.6695,-0.3129,0.0812,0.0219,0.0686,-0.1309,2163,2019-08-07 16:23:24:310
3.066,-8.4782,3.2352,-0.6695,-0.3129,0.0812,0.0219,0.0686,-0.1309,2168,2019-08-07 16:23:24:315
3.066,-8.4782,3.2352,-0.4128,-0.2754,-0.0967,0.0219,0.0686,-0.1309,2173,2019-08-07 16:23:24:320
3.0708,-8.5498,3.3672,-0.4128,-0.2754,-0.0967,0.0208,0.0633,-0.1437,2178,2019-08-07 16:23:24:325
3.0708,-8.5498,3.3672,-0.4128,-0.2754,-0.0967,0.0208,0.0633,-0.1437,2182,2019-08-07 16:23:24:329
3.0708,-8.5498,3.3672,-0.4128,-0.2754,-0.0967,0.0208,0.0633,-0.1437,2188,2019-08-07 16:23:24:335
3.0708,-8.5498,3.3672,-0.4128,-0.2754,-0.0967,0.0208,0.0633,-0.1437,2193,2019-08-07 16:23:24:340
3.066,-8.736,3.6123,-0.3845,-0.0927,-0.4014,-0.0058,-0.0059,-0.1704,2198,2019-08-07 16:23:24:345
3.066,-8.736,3.6123,-0.3845,-0.0927,-0.4014,-0.0058,-0.0059,-0.1704,2203,2019-08-07 16:23:24:350
3.066,-8.736,3.6123,-0.3845,-0.0927,-0.4014,-0.0293,-0.0741,-0.1746,2208,2019-08-07 16:23:24:355
3.2095,-8.6739,3.7915,-0.5518,-0.2256,-0.4571,-0.0293,-0.0741,-0.1746,2213,2019-08-07 16:23:24:360
3.2095,-8.6739,3.7915,-0.5518,-0.2256,-0.4571,-0.0442,-0.1167,-0.164,2218,2019-08-07 16:23:24:365
3.2095,-8.6739,3.7915,-0.5518,-0.2256,-0.4571,-0.0442,-0.1167,-0.164,2223,2019-08-07 16:23:24:370
3.3052,-8.5546,3.65,-0.5503,-0.2929,-0.4301,-0.0665,-0.1221,-0.1565,2228,2019-08-07 16:23:24:375
3.3052,-8.5546,3.65,-0.5503,-0.2929,-0.4301,-0.0665,-0.1221,-0.1565,2232,2019-08-07 16:23:24:379
3.3052,-8.5546,3.65,-0.5503,-0.2929,-0.4301,-0.1028,-0.1647,-0.1214,2238,2019-08-07 16:23:24:385
3.3291,-8.6071,3.5463,-0.5503,-0.2929,-0.4301,-0.1028,-0.1647,-0.1214,2243,2019-08-07 16:23:24:390
3.3291,-8.6071,3.5463,-0.5695,-0.2026,-0.3521,-0.1177,-0.1806,-0.1011,2247,2019-08-07 16:23:24:394
3.3291,-8.6071,3.5463,-0.5695,-0.2026,-0.3521,-0.1177,-0.1806,-0.1011,2253,2019-08-07 16:23:24:400
3.4582,-8.7646,3.3389,-0.5695,-0.2026,-0.3521,-0.1177,-0.1806,-0.1011,2258,2019-08-07 16:23:24:405
3.4582,-8.7646,3.3389,-0.5695,-0.2026,-0.3521,-0.1145,-0.1338,-0.099,2262,2019-08-07 16:23:24:409
3.5826,-8.8315,3.2871,-0.7562,-0.059,-0.1871,-0.1145,-0.1338,-0.099,2268,2019-08-07 16:23:24:415
3.5826,-8.8315,3.2871,-0.7562,-0.059,-0.1871,-0.107,-0.0422,-0.1075,2273,2019-08-07 16:23:24:420
3.5826,-8.8315,3.2871,-0.7322,-0.0635,-0.0246,-0.107,-0.0422,-0.1075,2278,2019-08-07 16:23:24:425
3.5826,-8.8315,3.2871,-0.7322,-0.0635,-0.0246,-0.107,-0.0422,-0.1075,2283,2019-08-07 16:23:24:430
3.5682,-8.7217,3.0985,-0.7322,-0.0635,-0.0246,-0.0985,0.0516,-0.1011,2288,2019-08-07 16:23:24:435
3.5682,-8.7217,3.0985,-0.7322,-0.0635,-0.0246,-0.0985,0.0516,-0.1011,2293,2019-08-07 16:23:24:440
3.3769,-8.6023,3.2823,-0.6314,-0.2149,-0.1468,-0.0804,0.1453,-0.0915,2298,2019-08-07 16:23:24:445
3.3769,-8.6023,3.2823,-0.6314,-0.2149,-0.1468,-0.0804,0.1453,-0.0915,2302,2019-08-07 16:23:24:449
3.3769,-8.6023,3.2823,-0.6314,-0.2149,-0.1468,-0.0665,0.1634,-0.066,2308,2019-08-07 16:23:24:455
3.1807,-8.4161,3.2352,-0.6314,-0.2149,-0.1468,-0.0665,0.1634,-0.066,2313,2019-08-07 16:23:24:460
3.1807,-8.4161,3.2352,-0.2756,-0.4759,-0.1627,-0.0623,0.1315,-0.0511,2318,2019-08-07 16:23:24:465
3.1807,-8.4161,3.2352,-0.2756,-0.4759,-0.1627,-0.0623,0.1315,-0.0511,2323,2019-08-07 16:23:24:470
3.0132,-8.2681,3.3578,-0.1448,-0.5712,-0.2154,-0.0548,0.0686,-0.0383,2328,2019-08-07 16:23:24:475
3.0132,-8.2681,3.3578,-0.1448,-0.5712,-0.2154,-0.0548,0.0686,-0.0383,2333,2019-08-07 16:23:24:480
3.0132,-8.2681,3.3578,-0.1448,-0.5712,-0.2154,-0.0431,-0.04,-0.0223,2337,2019-08-07 16:23:24:484
3.1472,-8.2491,3.2446,-0.1448,-0.5712,-0.2154,-0.0431,-0.04,-0.0223,2343,2019-08-07 16:23:24:490
3.1472,-8.2491,3.2446,-0.3039,-0.6186,-0.0193,-0.0388,-0.0965,-0.0202,2348,2019-08-07 16:23:24:495
3.2476,-8.2443,3.2022,-0.3039,-0.6186,-0.0193,-0.0388,-0.0965,-0.0202,2352,2019-08-07 16:23:24:499
3.2476,-8.2443,3.2022,-0.3039,-0.6186,-0.0193,-0.0388,-0.0965,-0.0202,2358,2019-08-07 16:23:24:505
3.2476,-8.2443,3.2022,-0.3039,-0.6186,-0.0193,-0.0357,-0.1615,-0.0223,2363,2019-08-07 16:23:24:510
3.3003,-8.3636,3.0466,-0.5123,-0.4319,0.1225,-0.0357,-0.1615,-0.0223,2367,2019-08-07 16:23:24:514
3.3003,-8.3636,3.0466,-0.5123,-0.4319,0.1225,-0.0463,-0.2062,-0.0361,2373,2019-08-07 16:23:24:520
3.6782,-8.6453,2.8628,-0.7732,-0.193,0.2488,-0.0463,-0.2062,-0.0361,2378,2019-08-07 16:23:24:525
3.6782,-8.6453,2.8628,-0.7732,-0.193,0.2488,-0.0463,-0.2062,-0.0361,2383,2019-08-07 16:23:24:530
3.6782,-8.6453,2.8628,-0.7732,-0.193,0.2488,-0.0325,-0.1551,-0.0702,2388,2019-08-07 16:23:24:535
3.6782,-8.6453,2.8628,-0.7732,-0.193,0.2488,-0.0325,-0.1551,-0.0702,2393,2019-08-07 16:23:24:540
4.0705,-8.6882,2.9194,-1.1454,-0.1653,0.1988,-0.0037,-0.0709,-0.0883,2397,2019-08-07 16:23:24:544
4.0705,-8.6882,2.9194,-1.1454,-0.1653,0.1988,-0.0037,-0.0709,-0.0883,2403,2019-08-07 16:23:24:550
4.0705,-8.6882,2.9194,-1.1454,-0.1653,0.1988,-0.0037,-0.0709,-0.0883,2407,2019-08-07 16:23:24:554
4.0274,-8.5832,2.9241,-1.1454,-0.1653,0.1988,0.0432,0.0441,-0.1086,2413,2019-08-07 16:23:24:560
4.0274,-8.5832,2.9241,-0.8849,-0.3557,0.0614,0.0432,0.0441,-0.1086,2418,2019-08-07 16:23:24:565
4.0274,-8.5832,2.9241,-0.8849,-0.3557,0.0614,0.041,0.0729,-0.1001,2423,2019-08-07 16:23:24:570
3.7212,-8.4114,3.0938,-0.8849,-0.3557,0.0614,0.041,0.0729,-0.1001,2428,2019-08-07 16:23:24:575
3.7212,-8.4114,3.0938,-0.8849,-0.3557,0.0614,0.0155,0.0324,-0.0937,2432,2019-08-07 16:23:24:579
3.6446,-8.2777,3.4426,-0.6493,-0.5125,-0.273,0.0155,0.0324,-0.0937,2438,2019-08-07 16:23:24:585
3.6446,-8.2777,3.4426,-0.6493,-0.5125,-0.273,0.0112,-0.0454,-0.0894,2442,2019-08-07 16:23:24:589
3.6446,-8.2777,3.4426,-0.604,-0.589,-0.4455,0.0112,-0.0454,-0.0894,2448,2019-08-07 16:23:24:595
3.5777,-8.2013,3.5793,-0.604,-0.589,-0.4455,0.0219,-0.1231,-0.0788,2453,2019-08-07 16:23:24:600
3.5777,-8.2013,3.5793,-0.604,-0.589,-0.4455,0.0219,-0.1231,-0.0788,2458,2019-08-07 16:23:24:605
3.659,-8.0867,3.5463,-0.6577,-0.6319,-0.5106,0.0112,-0.1668,-0.0681,2463,2019-08-07 16:23:24:610
3.659,-8.0867,3.5463,-0.6577,-0.6319,-0.5106,0.0112,-0.1668,-0.0681,2468,2019-08-07 16:23:24:615
3.659,-8.0867,3.5463,-0.6577,-0.6319,-0.5106,0.0112,-0.1668,-0.0681,2473,2019-08-07 16:23:24:620
3.7307,-8.1058,3.4944,-0.7007,-0.7097,-0.3834,-0.0175,-0.1743,-0.066,2477,2019-08-07 16:23:24:624
3.7307,-8.1058,3.4944,-0.7007,-0.7097,-0.3834,-0.0175,-0.1743,-0.066,2483,2019-08-07 16:23:24:630
3.7403,-8.2252,3.4284,-0.7007,-0.7097,-0.3834,-0.0612,-0.1412,-0.0713,2488,2019-08-07 16:23:24:635
3.7403,-8.2252,3.4284,-0.7007,-0.7097,-0.3834,-0.0612,-0.1412,-0.0713,2493,2019-08-07 16:23:24:640
3.7403,-8.2252,3.4284,-0.6064,-0.5384,-0.3701,-0.0868,-0.0858,-0.0745,2498,2019-08-07 16:23:24:645
3.6685,-8.3159,3.4096,-0.6064,-0.5384,-0.3701,-0.0868,-0.0858,-0.0745,2503,2019-08-07 16:23:24:650
3.6685,-8.3159,3.4096,-0.6064,-0.5384,-0.3701,-0.0868,-0.0858,-0.0745,2508,2019-08-07 16:23:24:655
3.6685,-8.3159,3.4096,-0.5848,-0.4515,-0.3132,-0.1049,-0.0347,-0.0873,2513,2019-08-07 16:23:24:660
3.5872,-8.3827,3.419,-0.5848,-0.4515,-0.3132,-0.1049,-0.0347,-0.0873,2518,2019-08-07 16:23:24:665
3.5872,-8.3827,3.419,-0.5848,-0.4515,-0.3132,-0.1102,0.0399,-0.1022,2523,2019-08-07 16:23:24:670
3.5537,-8.3493,3.4803,-0.4442,-0.3971,-0.3853,-0.1102,0.0399,-0.1022,2528,2019-08-07 16:23:24:675
3.5537,-8.3493,3.4803,-0.4442,-0.3971,-0.3853,-0.0974,0.0622,-0.1001,2533,2019-08-07 16:23:24:680
3.5537,-8.3493,3.4803,-0.4442,-0.3971,-0.3853,-0.0974,0.0622,-0.1001,2537,2019-08-07 16:23:24:684
3.4436,-8.3159,3.4756,-0.4442,-0.3971,-0.3853,-0.0974,0.0622,-0.1001,2543,2019-08-07 16:23:24:690
3.4436,-8.3159,3.4756,-0.3024,-0.4182,-0.4422,-0.0889,0.0409,-0.0926,2547,2019-08-07 16:23:24:694
3.4436,-8.3159,3.4756,-0.3024,-0.4182,-0.4422,-0.0889,0.0409,-0.0926,2553,2019-08-07 16:23:24:700
3.4197,-8.3731,3.419,-0.3024,-0.4182,-0.4422,-0.0889,0.0409,-0.0926,2559,2019-08-07 16:23:24:706
3.4197,-8.3731,3.419,-0.3172,-0.3549,-0.2875,-0.0847,-0.0262,-0.0851,2563,2019-08-07 16:23:24:710
3.5871,-8.3684,3.3813,-0.3172,-0.3549,-0.2875,-0.0847,-0.0262,-0.0851,2567,2019-08-07 16:23:24:714
3.5871,-8.3684,3.3813,-0.3172,-0.3549,-0.2875,-0.0868,-0.0912,-0.0724,2573,2019-08-07 16:23:24:720
3.5871,-8.3684,3.3813,-0.5585,-0.3481,-0.3986,-0.0868,-0.0912,-0.0724,2578,2019-08-07 16:23:24:725
3.7258,-8.44,3.4048,-0.5585,-0.3481,-0.3986,-0.0761,-0.1231,-0.0681,2583,2019-08-07 16:23:24:730
3.7258,-8.44,3.4048,-0.5585,-0.3481,-0.3986,-0.0761,-0.1231,-0.0681,2587,2019-08-07 16:23:24:734
3.7258,-8.44,3.4048,-0.5585,-0.3481,-0.3986,-0.0761,-0.1231,-0.0681,2593,2019-08-07 16:23:24:740
3.8598,-8.5355,3.1974,-0.7501,-0.213,-0.1229,-0.0783,-0.1508,-0.0532,2598,2019-08-07 16:23:24:745
3.8598,-8.5355,3.1974,-0.7501,-0.213,-0.1229,-0.0783,-0.1508,-0.0532,2603,2019-08-07 16:23:24:750
4.0852,-8.6358,3.1268,-0.7501,-0.213,-0.1229,-0.0932,-0.1274,-0.0543,2608,2019-08-07 16:23:24:755
4.0852,-8.6358,3.1268,-1.0296,-0.1841,-0.1164,-0.0932,-0.1274,-0.0543,2613,2019-08-07 16:23:24:760
4.2813,-8.5976,3.0891,-1.0296,-0.1841,-0.1164,-0.0857,-0.0603,-0.0734,2618,2019-08-07 16:23:24:765
4.2813,-8.5976,3.0891,-1.0296,-0.1841,-0.1164,-0.0857,-0.0603,-0.0734,2623,2019-08-07 16:23:24:770
4.2813,-8.5976,3.0891,-1.0296,-0.1841,-0.1164,-0.0602,0.0431,-0.0883,2628,2019-08-07 16:23:24:775
4.066,-8.5021,3.0608,-0.8526,-0.2576,-0.0486,-0.0602,0.0431,-0.0883,2632,2019-08-07 16:23:24:779
4.066,-8.5021,3.0608,-0.8526,-0.2576,-0.0486,-0.0548,0.0921,-0.0745,2638,2019-08-07 16:23:24:785
3.822,-8.3493,3.0891,-0.8526,-0.2576,-0.0486,-0.0548,0.0921,-0.0745,2643,2019-08-07 16:23:24:790
3.822,-8.3493,3.0891,-0.4889,-0.4588,-0.1699,-0.0548,0.1102,-0.0713,2648,2019-08-07 16:23:24:795
3.822,-8.3493,3.0891,-0.4889,-0.4588,-0.1699,-0.0548,0.1102,-0.0713,2653,2019-08-07 16:23:24:800
3.822,-8.3493,3.0891,-0.4889,-0.4588,-0.1699,-0.0548,0.1102,-0.0713,2658,2019-08-07 16:23:24:805
3.6019,-8.2586,3.2353,-0.4889,-0.4588,-0.1699,-0.0506,0.0985,-0.0766,2663,2019-08-07 16:23:24:810
3.6019,-8.2586,3.2353,-0.2806,-0.5928,-0.3539,-0.0506,0.0985,-0.0766,2668,2019-08-07 16:23:24:815
3.4967,-8.1822,3.4049,-0.2806,-0.5928,-0.3539,-0.0442,-6.0E-4,-0.0798,2673,2019-08-07 16:23:24:820
3.4967,-8.1822,3.4049,-0.2806,-0.5928,-0.3539,-0.0442,-6.0E-4,-0.0798,2678,2019-08-07 16:23:24:825
3.4967,-8.1822,3.4049,-0.2806,-0.5928,-0.3539,-0.0442,-0.0752,-0.0798,2682,2019-08-07 16:23:24:829
3.5397,-8.2204,3.3248,-0.2806,-0.5928,-0.3539,-0.0442,-0.0752,-0.0798,2688,2019-08-07 16:23:24:835
3.5397,-8.2204,3.3248,-0.404,-0.5162,-0.281,-0.0559,-0.121,-0.0798,2693,2019-08-07 16:23:24:840
3.6832,-8.3207,3.1645,-0.404,-0.5162,-0.281,-0.0559,-0.121,-0.0798,2698,2019-08-07 16:23:24:845
3.6832,-8.3207,3.1645,-0.404,-0.5162,-0.281,-0.0559,-0.121,-0.0798,2703,2019-08-07 16:23:24:850
3.889,-8.4209,2.9336,-0.6853,-0.3169,0.0412,-0.0825,-0.186,-0.0873,2708,2019-08-07 16:23:24:855
3.889,-8.4209,2.9336,-0.6853,-0.3169,0.0412,-0.0825,-0.186,-0.0873,2713,2019-08-07 16:23:24:860
3.889,-8.4209,2.9336,-0.6853,-0.3169,0.0412,-0.0868,-0.1828,-0.1043,2717,2019-08-07 16:23:24:864
3.889,-8.4209,2.9336,-0.6853,-0.3169,0.0412,-0.0868,-0.1828,-0.1043,2723,2019-08-07 16:23:24:870
4.9415,-8.631,2.1935,-0.6853,-0.3169,0.0412,-0.0697,-0.2094,-0.2194,2728,2019-08-07 16:23:24:875
4.9415,-8.631,2.1935,-0.6594,-0.3266,0.508,-0.0697,-0.2094,-0.2194,2733,2019-08-07 16:23:24:880
4.9415,-8.631,2.1935,-0.6594,-0.3266,0.508,0.0038,0.1965,-0.0969,2738,2019-08-07 16:23:24:885
4.1282,-8.5307,3.3625,-0.7867,-0.216,-0.4357,0.0038,0.1965,-0.0969,2743,2019-08-07 16:23:24:890
4.1282,-8.5307,3.3625,-0.7867,-0.216,-0.4357,0.0229,0.1752,-0.034,2748,2019-08-07 16:23:24:895
4.1282,-8.5307,3.3625,-0.7867,-0.216,-0.4357,0.0229,0.1752,-0.034,2753,2019-08-07 16:23:24:900
4.0038,-8.3636,3.1315,-0.7867,-0.216,-0.4357,0.0229,0.1752,-0.034,2758,2019-08-07 16:23:24:905
4.0038,-8.3636,3.1315,-0.4925,-0.419,-0.2714,0.0336,0.1911,-0.0404,2763,2019-08-07 16:23:24:910
3.6736,-8.3159,3.3201,-0.4925,-0.419,-0.2714,0.0336,0.1911,-0.0404,2768,2019-08-07 16:23:24:915
3.6736,-8.3159,3.3201,-0.4925,-0.419,-0.2714,0.0336,0.1911,-0.0404,2773,2019-08-07 16:23:24:920
3.6736,-8.3159,3.3201,-0.4925,-0.419,-0.2714,0.0091,0.0995,-0.0383,2778,2019-08-07 16:23:24:925
3.5205,-8.3493,3.4426,-0.1748,-0.3844,-0.4823,0.0091,0.0995,-0.0383,2782,2019-08-07 16:23:24:929
3.5205,-8.3493,3.4426,-0.1748,-0.3844,-0.4823,-0.0229,-0.039,-0.018,2788,2019-08-07 16:23:24:935
3.5636,-8.4496,3.3908,-0.2146,-0.2829,-0.4302,-0.0229,-0.039,-0.018,2793,2019-08-07 16:23:24:940
3.5636,-8.4496,3.3908,-0.2146,-0.2829,-0.4302,-0.0367,-0.1135,-0.0159,2798,2019-08-07 16:23:24:945
3.5636,-8.4496,3.3908,-0.2146,-0.2829,-0.4302,-0.0367,-0.1135,-0.0159,2803,2019-08-07 16:23:24:950
3.6401,-8.5164,3.2541,-0.2146,-0.2829,-0.4302,-0.0367,-0.1135,-0.0159,2808,2019-08-07 16:23:24:955
3.6401,-8.5164,3.2541,-0.3892,-0.2059,-0.2252,-0.0442,-0.1679,-0.0074,2813,2019-08-07 16:23:24:960
3.9415,-8.6214,3.1221,-0.3892,-0.2059,-0.2252,-0.0442,-0.1679,-0.0074,2818,2019-08-07 16:23:24:965
3.9415,-8.6214,3.1221,-0.3892,-0.2059,-0.2252,-0.0346,-0.1572,-0.0138,2822,2019-08-07 16:23:24:969
3.9415,-8.6214,3.1221,-0.3892,-0.2059,-0.2252,-0.0346,-0.1572,-0.0138,2828,2019-08-07 16:23:24:975
4.1377,-8.5116,3.0985,-0.7609,-0.2193,-0.1653,-0.0133,-0.0986,-0.018,2833,2019-08-07 16:23:24:980
4.1377,-8.5116,3.0985,-0.7609,-0.2193,-0.1653,-0.0133,-0.0986,-0.018,2838,2019-08-07 16:23:24:985
4.1664,-8.5212,3.0184,-0.7829,-0.208,-0.0877,0.0059,-0.0166,-0.0223,2843,2019-08-07 16:23:24:990
4.1664,-8.5212,3.0184,-0.7829,-0.208,-0.0877,0.0059,-0.0166,-0.0223,2848,2019-08-07 16:23:24:995
4.1664,-8.5212,3.0184,-0.7829,-0.208,-0.0877,0.0059,-0.0166,-0.0223,2852,2019-08-07 16:23:24:999
4.1664,-8.5212,3.0184,-0.7829,-0.208,-0.0877,0.0112,0.0708,-0.0276,2858,2019-08-07 16:23:25:005
4.0037,-8.4496,3.0702,-0.5557,-0.2798,-0.2378,0.0112,0.0708,-0.0276,2863,2019-08-07 16:23:25:010
4.0037,-8.4496,3.0702,-0.5557,-0.2798,-0.2378,0.0102,0.1006,-0.0297,2867,2019-08-07 16:23:25:014
3.7454,-8.4543,3.2117,-0.5557,-0.2798,-0.2378,0.0102,0.1006,-0.0297,2873,2019-08-07 16:23:25:020
3.7454,-8.4543,3.2117,-0.5557,-0.2798,-0.2378,0.0048,0.0686,-0.0319,2878,2019-08-07 16:23:25:025
3.7454,-8.4543,3.2117,-0.3033,-0.2419,-0.2994,0.0048,0.0686,-0.0319,2883,2019-08-07 16:23:25:030
3.6736,-8.4782,3.2399,-0.3033,-0.2419,-0.2994,-5.0E-4,0.0058,-0.0159,2887,2019-08-07 16:23:25:034
3.6736,-8.4782,3.2399,-0.3033,-0.2419,-0.2994,-5.0E-4,0.0058,-0.0159,2893,2019-08-07 16:23:25:040
3.7549,-8.5307,3.1598,-0.3033,-0.2419,-0.2994,0.0016,-0.0379,-0.0084,2897,2019-08-07 16:23:25:044
3.7549,-8.5307,3.1598,-0.4597,-0.2391,-0.1284,0.0016,-0.0379,-0.0084,2903,2019-08-07 16:23:25:050
3.7549,-8.5307,3.1598,-0.4597,-0.2391,-0.1284,0.0016,-0.0379,-0.0084,2907,2019-08-07 16:23:25:054
3.9176,-8.4639,3.0608,-0.4597,-0.2391,-0.1284,0.0016,-0.0507,-0.0052,2912,2019-08-07 16:23:25:059
3.9176,-8.4639,3.0608,-0.4597,-0.2391,-0.1284,0.0016,-0.0507,-0.0052,2918,2019-08-07 16:23:25:065
4.0563,-8.3875,2.9383,-0.6484,-0.3275,0.0065,0.0102,-0.0272,0.0075,2923,2019-08-07 16:23:25:070
4.0563,-8.3875,2.9383,-0.6484,-0.3275,0.0065,0.0102,-0.0272,0.0075,2928,2019-08-07 16:23:25:075
4.0563,-8.3875,2.9383,-0.6484,-0.3275,0.0065,0.0091,0.009,0.0139,2933,2019-08-07 16:23:25:080
4.0228,-8.3636,3.0655,-0.6484,-0.3275,0.0065,0.0091,0.009,0.0139,2938,2019-08-07 16:23:25:085
4.0228,-8.3636,3.0655,-0.6484,-0.3275,0.0065,0.0091,0.009,0.0139,2942,2019-08-07 16:23:25:089
4.0085,-8.4018,3.0184,-0.5891,-0.3112,-0.1077,0.0144,0.0452,0.0129,2948,2019-08-07 16:23:25:095
4.0085,-8.4018,3.0184,-0.5891,-0.3112,-0.1077,0.0144,0.0452,0.0129,2953,2019-08-07 16:23:25:100
4.0085,-8.4018,3.0184,-0.5891,-0.3112,-0.1077,0.0272,0.0729,0.0011,2958,2019-08-07 16:23:25:105
3.7549,-8.3493,3.0325,-0.3224,-0.394,-0.1444,0.0272,0.0729,0.0011,2964,2019-08-07 16:23:25:111
3.7549,-8.3493,3.0325,-0.3224,-0.394,-0.1444,0.0208,0.0558,-0.0021,2967,2019-08-07 16:23:25:114
3.7549,-8.3493,3.0325,-0.3224,-0.394,-0.1444,0.0208,0.0558,-0.0021,2973,2019-08-07 16:23:25:120
3.4104,-8.2968,2.9335,-0.0018,-0.412,0.0285,-0.0325,-0.0762,-0.0063,2978,2019-08-07 16:23:25:125
3.4104,-8.2968,2.9335,-0.0018,-0.412,0.0285,-0.0325,-0.0762,-0.0063,2983,2019-08-07 16:23:25:130
3.8793,-8.5116,3.3012,-0.0018,-0.412,0.0285,-5.0E-4,-0.0869,-0.0063,2987,2019-08-07 16:23:25:134
3.8793,-8.5116,3.3012,-0.0018,-0.412,0.0285,-5.0E-4,-0.0869,-0.0063,2993,2019-08-07 16:23:25:140
3.8793,-8.5116,3.3012,-0.5626,-0.0914,-0.1486,0.0432,-0.0752,-0.0191,2997,2019-08-07 16:23:25:144
4.0467,-8.5594,3.0467,-0.5626,-0.0914,-0.1486,0.0432,-0.0752,-0.0191,3002,2019-08-07 16:23:25:149
4.0467,-8.5594,3.0467,-0.5626,-0.0914,-0.1486,0.0549,-0.0326,-0.0084,3008,2019-08-07 16:23:25:155
4.0467,-8.5594,3.0467,-0.5626,-0.0914,-0.1486,0.0549,-0.0326,-0.0084,3013,2019-08-07 16:23:25:160
4.0611,-8.378,2.8628,-0.677,-0.3576,0.1728,0.0442,0.0175,-0.0084,3018,2019-08-07 16:23:25:165
4.0611,-8.378,2.8628,-0.677,-0.3576,0.1728,0.0442,0.0175,-0.0084,3022,2019-08-07 16:23:25:169
3.8984,-8.2538,3.0561,-0.677,-0.3576,0.1728,0.0442,0.0175,-0.0084,3028,2019-08-07 16:23:25:175
3.8984,-8.2538,3.0561,-0.4697,-0.3527,-0.2065,0.0112,0.0207,-0.0212,3033,2019-08-07 16:23:25:180
3.8601,-8.4209,3.2022,-0.4697,-0.3527,-0.2065,0.0112,0.0207,-0.0212,3038,2019-08-07 16:23:25:185
3.8601,-8.4209,3.2022,-0.4697,-0.3527,-0.2065,0.0048,-0.0091,-0.0191,3043,2019-08-07 16:23:25:190
3.8601,-8.4209,3.2022,-0.3898,-0.1551,-0.2379,0.0048,-0.0091,-0.0191,3048,2019-08-07 16:23:25:195
3.884,-8.588,3.3248,-0.3898,-0.1551,-0.2379,0.0102,-0.0219,-0.0127,3053,2019-08-07 16:23:25:200
3.884,-8.588,3.3248,-0.3898,-0.1551,-0.2379,0.0102,-0.0219,-0.0127,3057,2019-08-07 16:23:25:204
3.884,-8.545,3.1079,-0.5935,-0.1468,-0.1364,0.0336,-0.0326,1.0E-4,3064,2019-08-07 16:23:25:211
4.0371,-8.545,3.1079,-0.5935,-0.1468,-0.1364,0.0336,-0.0326,1.0E-4,3067,2019-08-07 16:23:25:214
4.0371,-8.545,3.1079,-0.5935,-0.1468,-0.1364,0.0336,-0.0326,1.0E-4,3073,2019-08-07 16:23:25:220
4.0371,-8.3541,3.1881,-0.5935,-0.1468,-0.1364,0.0538,0.0068,0.0224,3078,2019-08-07 16:23:25:225
4.0371,-8.3541,3.1881,-0.5935,-0.1468,-0.1364,0.0538,0.0068,0.0224,3083,2019-08-07 16:23:25:230
4.0371,-8.3541,3.1881,-0.4389,-0.429,-0.1212,0.0421,0.0196,0.0342,3088,2019-08-07 16:23:25:235