ACCELEROMETER X (m/s²),ACCELEROMETER Y (m/s²),ACCELEROMETER Z (m/s²),LINEAR ACCELERATION X (m/s²),LINEAR ACCELERATION Y (m/s²),LINEAR ACCELERATION Z (m/s²),GYROSCOPE X (rad/s),GYROSCOPE Y (rad/s),GYROSCOPE Z (rad/s),Time since start in ms ,YYYY-MO-DD HH-MI-SS_SSS
5.6972,-7.7478,1.9813,-0.254,-0.1988,-0.1218,0.0091,-0.023,0.0086,3,2019-08-07 16:24:20:721
5.6972,-7.7478,1.9813,-0.254,-0.1988,-0.1218,0.0091,-0.023,0.0086,8,2019-08-07 16:24:20:726
5.6972,-7.7478,1.9813,-0.254,-0.1988,-0.1218,0.0091,-0.023,0.0086,13,2019-08-07 16:24:20:731
5.7547,-7.7717,1.9201,-0.254,-0.1988,-0.1218,0.008,-0.0368,0.0043,17,2019-08-07 16:24:20:735
5.7547,-7.7717,1.9201,-0.3955,-0.1643,-0.0803,0.008,-0.0368,0.0043,23,2019-08-07 16:24:20:741
5.769,-7.7621,1.9154,-0.3955,-0.1643,-0.0803,0.0112,-0.0294,0.0043,28,2019-08-07 16:24:20:746
5.769,-7.7621,1.9154,-0.3955,-0.1643,-0.0803,0.0112,-0.0294,0.0043,33,2019-08-07 16:24:20:751
5.769,-7.7621,1.9154,-0.3955,-0.1643,-0.0803,0.0112,-0.0294,0.0043,38,2019-08-07 16:24:20:756
5.7451,-7.8003,1.9295,-0.2974,-0.1436,-0.0712,0.0176,-0.0166,0.0097,44,2019-08-07 16:24:20:762
5.7451,-7.8003,1.9295,-0.2974,-0.1436,-0.0712,0.0176,-0.0166,0.0097,48,2019-08-07 16:24:20:766
5.7499,-7.7478,1.9389,-0.2974,-0.1436,-0.0712,0.0272,-0.0059,0.0097,53,2019-08-07 16:24:20:771
5.7499,-7.7478,1.9389,-0.2974,-0.1436,-0.0712,0.0272,-0.0059,0.0097,58,2019-08-07 16:24:20:776
5.7499,-7.7478,1.9389,-0.2912,-0.2136,-0.0718,0.0293,0.0164,0.0086,62,2019-08-07 16:24:20:780
5.6778,-7.6762,1.9813,-0.2912,-0.2136,-0.0718,0.0293,0.0164,0.0086,68,2019-08-07 16:24:20:786
5.6778,-7.6762,1.9813,-0.2912,-0.2136,-0.0718,0.0283,0.0164,0.0054,73,2019-08-07 16:24:20:791
5.6299,-7.6189,2.0237,-0.2912,-0.2136,-0.0718,0.0283,0.0164,0.0054,78,2019-08-07 16:24:20:796
5.6299,-7.6189,2.0237,-0.1663,-0.3165,-0.1873,0.0197,0.0047,0.0022,83,2019-08-07 16:24:20:801
5.6299,-7.6189,2.0237,-0.1663,-0.3165,-0.1873,0.0197,0.0047,0.0022,87,2019-08-07 16:24:20:805
5.5964,-7.7239,2.052,-0.1663,-0.3165,-0.1873,0.0112,-0.0166,0.0043,93,2019-08-07 16:24:20:811
5.5964,-7.7239,2.052,-0.1663,-0.3165,-0.1873,0.0112,-0.0166,0.0043,98,2019-08-07 16:24:20:816
5.673,-7.7239,2.0048,-0.1985,-0.21,-0.1278,0.0112,-0.0166,0.0043,103,2019-08-07 16:24:20:821
5.673,-7.7239,2.0048,-0.1985,-0.21,-0.1278,0.0102,-0.0251,1.0E-4,108,2019-08-07 16:24:20:826
5.673,-7.7239,2.0048,-0.1985,-0.21,-0.1278,0.0102,-0.0251,1.0E-4,113,2019-08-07 16:24:20:831
5.6873,-7.6953,1.9294,-0.1985,-0.21,-0.1278,0.0048,-0.0304,0.0011,118,2019-08-07 16:24:20:836
5.6873,-7.6953,1.9294,-0.3008,-0.1987,0.022,0.0048,-0.0304,0.0011,123,2019-08-07 16:24:20:841
5.6873,-7.6953,1.9294,-0.3008,-0.1987,0.022,0.0016,-0.0166,-0.0042,127,2019-08-07 16:24:20:845
5.7782,-7.7669,1.8729,-0.3134,-0.1499,-0.0165,0.0016,-0.0166,-0.0042,133,2019-08-07 16:24:20:851
5.7782,-7.7669,1.8729,-0.3134,-0.1499,-0.0165,0.0027,-0.0113,-0.0053,138,2019-08-07 16:24:20:856
5.8309,-7.7621,1.9388,-0.3134,-0.1499,-0.0165,0.0027,-0.0113,-0.0053,143,2019-08-07 16:24:20:861
5.8309,-7.7621,1.9388,-0.3134,-0.1499,-0.0165,0.0048,-0.0049,-0.001,148,2019-08-07 16:24:20:866
5.7161,-7.7907,1.8823,-0.2338,-0.1669,0.0254,0.0048,-0.0049,-0.001,153,2019-08-07 16:24:20:871
5.7161,-7.7907,1.8823,-0.2338,-0.1669,0.0254,0.0048,-0.0049,-0.001,158,2019-08-07 16:24:20:876
5.7161,-7.7907,1.8823,-0.2338,-0.1669,0.0254,0.008,5.0E-4,-0.0074,163,2019-08-07 16:24:20:881
5.6395,-7.7335,1.8917,-0.2338,-0.1669,0.0254,0.008,5.0E-4,-0.0074,168,2019-08-07 16:24:20:886
5.6395,-7.7335,1.8917,-0.1307,-0.2365,-0.011,0.0038,-0.0091,-0.001,173,2019-08-07 16:24:20:891
5.6395,-7.7335,1.8917,-0.1307,-0.2365,-0.011,0.0038,-0.0091,-0.001,178,2019-08-07 16:24:20:896
5.5725,-7.7144,1.9388,-0.1307,-0.2365,-0.011,6.0E-4,-0.0283,0.0022,183,2019-08-07 16:24:20:901
5.5725,-7.7144,1.9388,-0.1307,-0.2365,-0.011,6.0E-4,-0.0283,0.0022,187,2019-08-07 16:24:20:905
5.6012,-7.7621,1.9247,-0.1384,-0.1687,-0.0549,-0.0016,-0.0464,0.0075,193,2019-08-07 16:24:20:911
5.6012,-7.7621,1.9247,-0.1384,-0.1687,-0.0549,-0.0016,-0.0464,0.0075,198,2019-08-07 16:24:20:916
5.6012,-7.7621,1.9247,-0.1384,-0.1687,-0.0549,-0.0016,-0.0464,0.0075,203,2019-08-07 16:24:20:921
5.6921,-7.8194,1.8069,-0.1384,-0.1687,-0.0549,-0.0122,-0.0613,0.0161,208,2019-08-07 16:24:20:926
5.6921,-7.8194,1.8069,-0.1988,-0.0594,-0.0248,-0.0122,-0.0613,0.0161,213,2019-08-07 16:24:20:931
5.7065,-7.9101,1.8493,-0.1988,-0.0594,-0.0248,-0.0122,-0.0528,0.0139,218,2019-08-07 16:24:20:936
5.7065,-7.9101,1.8493,-0.1988,-0.0594,-0.0248,-0.0122,-0.0528,0.0139,223,2019-08-07 16:24:20:941
5.7065,-7.9101,1.8493,-0.1988,-0.0594,-0.0248,-5.0E-4,-0.0347,0.0192,227,2019-08-07 16:24:20:945
5.7735,-7.9674,1.8069,-0.28,0.0586,0.0495,0.0048,-0.0209,0.0203,234,2019-08-07 16:24:20:952
5.7735,-7.9674,1.8069,-0.28,0.0586,0.0495,0.0048,-0.0209,0.0203,237,2019-08-07 16:24:20:955
5.7687,-7.934,1.7974,-0.28,0.0586,0.0495,0.0048,-0.0209,0.0203,243,2019-08-07 16:24:20:961
5.7687,-7.934,1.7974,-0.28,0.0586,0.0495,0.008,-0.0123,0.0224,249,2019-08-07 16:24:20:967
5.7687,-7.934,1.7974,-0.267,-0.0332,0.0297,0.008,-0.0123,0.0224,252,2019-08-07 16:24:20:970
5.74,-7.8814,1.9059,-0.267,-0.0332,0.0297,0.0133,-0.0038,0.0256,258,2019-08-07 16:24:20:976
5.74,-7.8814,1.9059,-0.267,-0.0332,0.0297,0.0133,-0.0038,0.0256,262,2019-08-07 16:24:20:980
5.7256,-7.7812,2.0426,-0.267,-0.0332,0.0297,0.0155,-6.0E-4,0.0224,268,2019-08-07 16:24:20:986
5.7256,-7.7812,2.0426,-0.2546,-0.201,-0.123,0.0155,-6.0E-4,0.0224,272,2019-08-07 16:24:20:990
5.7256,-7.7812,2.0426,-0.2546,-0.201,-0.123,0.008,-0.0134,0.0278,278,2019-08-07 16:24:20:996
5.7496,-7.6571,1.9483,-0.2546,-0.201,-0.123,0.008,-0.0134,0.0278,283,2019-08-07 16:24:21:001
5.7496,-7.6571,1.9483,-0.2546,-0.201,-0.123,6.0E-4,-0.0209,0.0342,287,2019-08-07 16:24:21:005
5.7496,-7.6571,1.9483,-0.3138,-0.2261,-0.0712,6.0E-4,-0.0209,0.0342,294,2019-08-07 16:24:21:012
5.7783,-7.6475,1.92,-0.3138,-0.2261,-0.0712,-0.0037,-0.0304,0.0331,299,2019-08-07 16:24:21:017
5.7783,-7.6475,1.92,-0.3138,-0.2261,-0.0712,-0.0037,-0.0304,0.0331,302,2019-08-07 16:24:21:020
5.7783,-7.6475,1.92,-0.3138,-0.2261,-0.0712,-0.0037,-0.0304,0.0331,308,2019-08-07 16:24:21:026
5.6969,-7.7287,1.9389,-0.3138,-0.2261,-0.0712,-0.0026,-0.0283,0.0331,312,2019-08-07 16:24:21:030
5.6969,-7.7287,1.9389,-0.2106,-0.1757,-0.0508,-0.0026,-0.0283,0.0331,318,2019-08-07 16:24:21:036
5.6778,-7.7573,1.9907,-0.2106,-0.1757,-0.0508,-0.0016,-0.0336,0.0352,323,2019-08-07 16:24:21:041
5.6778,-7.7573,1.9907,-0.2106,-0.1757,-0.0508,-0.0016,-0.0336,0.0352,328,2019-08-07 16:24:21:046
5.6778,-7.7573,1.9907,-0.2993,-0.1401,-0.172,0.0059,-0.039,0.0374,333,2019-08-07 16:24:21:051
5.7352,-7.7812,2.0237,-0.2993,-0.1401,-0.172,0.0059,-0.039,0.0374,337,2019-08-07 16:24:21:055
5.7352,-7.7812,2.0237,-0.2993,-0.1401,-0.172,0.0144,-0.0411,0.031,343,2019-08-07 16:24:21:061
5.7783,-7.8194,1.8776,-0.3143,-0.1742,-0.1303,0.0144,-0.0411,0.031,348,2019-08-07 16:24:21:066
5.7783,-7.8194,1.8776,-0.3143,-0.1742,-0.1303,0.0187,-0.0198,0.0256,352,2019-08-07 16:24:21:070
5.7783,-7.8194,1.8776,-0.3143,-0.1742,-0.1303,0.0187,-0.0198,0.0256,358,2019-08-07 16:24:21:076
5.7879,-7.743,1.9294,-0.3143,-0.1742,-0.1303,0.0155,-0.0049,0.0107,363,2019-08-07 16:24:21:081
5.7879,-7.743,1.9294,-0.3049,-0.2265,-0.0773,0.0155,-0.0049,0.0107,368,2019-08-07 16:24:21:086
5.74,-7.7144,1.953,-0.3049,-0.2265,-0.0773,0.0038,0.0207,0.0022,373,2019-08-07 16:24:21:091
5.74,-7.7144,1.953,-0.3049,-0.2265,-0.0773,0.0038,0.0207,0.0022,377,2019-08-07 16:24:21:095
5.74,-7.7144,1.953,-0.3049,-0.2265,-0.0773,-0.0069,0.0239,1.0E-4,383,2019-08-07 16:24:21:101
5.6204,-7.6714,2.0284,-0.1413,-0.225,-0.135,-0.0069,0.0239,1.0E-4,387,2019-08-07 16:24:21:105
5.6204,-7.6714,2.0284,-0.1413,-0.225,-0.135,-0.0165,0.0015,-0.0021,393,2019-08-07 16:24:21:111
5.6061,-7.7335,2.0049,-0.1413,-0.225,-0.135,-0.0165,0.0015,-0.0021,398,2019-08-07 16:24:21:116
5.6061,-7.7335,2.0049,-0.1413,-0.225,-0.135,-0.0165,0.0015,-0.0021,403,2019-08-07 16:24:21:121
5.6061,-7.7335,2.0049,-0.1345,-0.1761,-0.1549,-0.0218,-0.0198,-0.0053,408,2019-08-07 16:24:21:126
5.6348,-7.7716,1.8352,-0.1345,-0.1761,-0.1549,-0.0218,-0.0198,-0.0053,413,2019-08-07 16:24:21:131
5.6348,-7.7716,1.8352,-0.1345,-0.1761,-0.1549,-0.0239,-0.0347,-0.0053,417,2019-08-07 16:24:21:135
5.6348,-7.7716,1.8352,-0.1345,-0.1761,-0.1549,-0.0239,-0.0347,-0.0053,423,2019-08-07 16:24:21:141
5.6731,-7.8671,1.9483,-0.2125,-0.0703,-0.1002,-0.0197,-0.0283,-0.0074,427,2019-08-07 16:24:21:145
5.6731,-7.8671,1.9483,-0.2125,-0.0703,-0.1002,-0.0197,-0.0283,-0.0074,433,2019-08-07 16:24:21:151
5.6731,-7.8671,1.9483,-0.2125,-0.0703,-0.1002,-0.009,-0.0102,-0.0084,438,2019-08-07 16:24:21:156
5.7305,-7.8194,1.8776,-0.2125,-0.0703,-0.1002,-0.009,-0.0102,-0.0084,443,2019-08-07 16:24:21:161
5.7305,-7.8194,1.8776,-0.2854,-0.102,-0.0235,-0.0143,0.0196,-0.018,448,2019-08-07 16:24:21:166
5.7065,-7.8862,1.8917,-0.2854,-0.102,-0.0235,-0.0143,0.0196,-0.018,453,2019-08-07 16:24:21:171
5.7065,-7.8862,1.8917,-0.2854,-0.102,-0.0235,-0.0143,0.0196,-0.018,458,2019-08-07 16:24:21:176
5.7065,-7.8862,1.8917,-0.2854,-0.102,-0.0235,-0.0207,0.0431,-0.0244,464,2019-08-07 16:24:21:182
5.5965,-7.8671,1.8163,-0.1286,-0.0659,0.0292,-0.0207,0.0431,-0.0244,468,2019-08-07 16:24:21:186
5.5965,-7.8671,1.8163,-0.1286,-0.0659,0.0292,-0.0293,0.058,-0.0298,472,2019-08-07 16:24:21:190
5.5152,-7.8958,1.9341,-0.1286,-0.0659,0.0292,-0.0293,0.058,-0.0298,478,2019-08-07 16:24:21:196
5.5152,-7.8958,1.9341,-0.1286,-0.0659,0.0292,-0.041,0.0356,-0.033,482,2019-08-07 16:24:21:200
5.5152,-7.8958,1.9341,-0.0673,-0.0774,-0.046,-0.041,0.0356,-0.033,488,2019-08-07 16:24:21:206
5.5869,-7.8433,1.8493,-0.0673,-0.0774,-0.046,-0.0463,0.0154,-0.0308,494,2019-08-07 16:24:21:212
5.5869,-7.8433,1.8493,-0.0673,-0.0774,-0.046,-0.0463,0.0154,-0.0308,498,2019-08-07 16:24:21:216
5.5869,-7.8433,1.8493,-0.0673,-0.0774,-0.046,-0.0484,-0.0113,-0.0212,503,2019-08-07 16:24:21:221
5.6779,-7.934,1.7833,-0.225,0.039,0.0084,-0.0484,-0.0113,-0.0212,507,2019-08-07 16:24:21:225
5.6779,-7.934,1.7833,-0.225,0.039,0.0084,-0.0452,-0.0134,-0.0191,512,2019-08-07 16:24:21:230
5.7257,-7.9101,1.755,-0.225,0.039,0.0084,-0.0452,-0.0134,-0.0191,518,2019-08-07 16:24:21:236
5.7257,-7.9101,1.755,-0.225,0.039,0.0084,-0.0452,-0.0134,-0.0191,522,2019-08-07 16:24:21:240
5.7257,-7.9101,1.755,-0.3115,0.0829,0.0652,-0.0367,-0.007,-0.0127,528,2019-08-07 16:24:21:246
5.8357,-8.0056,1.7503,-0.3115,0.0829,0.0652,-0.0346,0.0079,-0.0084,533,2019-08-07 16:24:21:251
5.8357,-8.0056,1.7503,-0.3115,0.0829,0.0652,-0.0346,0.0079,-0.0084,538,2019-08-07 16:24:21:256
5.7879,-7.9626,1.7079,-0.3115,0.0829,0.0652,-0.0207,0.0239,-0.0021,543,2019-08-07 16:24:21:261
5.7879,-7.9626,1.7079,-0.2709,0.1024,0.0743,-0.0207,0.0239,-0.0021,548,2019-08-07 16:24:21:266
5.7879,-7.9626,1.7079,-0.2709,0.1024,0.0743,-0.0207,0.0239,-0.0021,552,2019-08-07 16:24:21:270
5.764,-8.0294,1.7645,-0.2709,0.1024,0.0743,-0.0112,0.0484,0.0033,558,2019-08-07 16:24:21:276
5.764,-8.0294,1.7645,-0.2709,0.1024,0.0743,-0.0112,0.0484,0.0033,563,2019-08-07 16:24:21:281
5.764,-8.0294,1.7645,-0.2094,0.1071,0.0526,-0.0069,0.0526,0.0011,568,2019-08-07 16:24:21:286
5.6205,-7.9578,1.7975,-0.2094,0.1071,0.0526,-0.0069,0.0526,0.0011,573,2019-08-07 16:24:21:291
5.6205,-7.9578,1.7975,-0.2094,0.1071,0.0526,-0.0037,0.0431,0.0033,578,2019-08-07 16:24:21:296
5.5152,-7.9483,1.7927,-0.2094,0.1071,0.0526,-0.0037,0.0431,0.0033,582,2019-08-07 16:24:21:300
5.5152,-7.9483,1.7927,-0.0245,0.04,-0.0143,-0.0037,0.0431,0.0033,588,2019-08-07 16:24:21:306
5.5152,-7.9483,1.7927,-0.0245,0.04,-0.0143,-0.0069,0.0186,0.0107,593,2019-08-07 16:24:21:311
5.5726,-7.9817,1.8352,-0.0245,0.04,-0.0143,-0.0069,0.0186,0.0107,598,2019-08-07 16:24:21:316
5.5726,-7.9817,1.8352,-0.0245,0.04,-0.0143,-0.009,0.0058,0.0118,602,2019-08-07 16:24:21:320
5.6492,-7.8958,1.8399,-0.1697,-0.0328,-0.0096,-0.009,0.0058,0.0118,608,2019-08-07 16:24:21:326
5.6492,-7.8958,1.8399,-0.1697,-0.0328,-0.0096,-0.0101,0.0026,0.0118,613,2019-08-07 16:24:21:331
5.6492,-7.8958,1.8399,-0.1697,-0.0328,-0.0096,-0.0101,0.0026,0.0118,618,2019-08-07 16:24:21:336
5.654,-7.8814,1.8352,-0.1697,-0.0328,-0.0096,-0.0101,0.0026,0.0118,623,2019-08-07 16:24:21:341
5.654,-7.8814,1.8352,-0.2038,-0.1097,0.0182,-0.0037,0.0196,0.0033,628,2019-08-07 16:24:21:346
5.6874,-7.8146,1.7739,-0.2038,-0.1097,0.0182,-0.0037,0.0196,0.0033,633,2019-08-07 16:24:21:351
5.6874,-7.8146,1.7739,-0.2038,-0.1097,0.0182,-0.008,0.0281,0.0033,638,2019-08-07 16:24:21:356
5.6874,-7.8146,1.7739,-0.2038,-0.1097,0.0182,-0.008,0.0281,0.0033,643,2019-08-07 16:24:21:361
5.6827,-7.8003,1.8682,-0.2132,-0.1569,0.0057,-0.0026,0.025,0.0043,648,2019-08-07 16:24:21:366
5.6827,-7.8003,1.8682,-0.2132,-0.1569,0.0057,-0.0026,0.025,0.0043,653,2019-08-07 16:24:21:371
5.63,-7.786,1.8682,-0.2132,-0.1569,0.0057,0.0027,0.0143,0.0054,658,2019-08-07 16:24:21:376
5.63,-7.786,1.8682,-0.151,-0.1423,-0.0356,0.0027,0.0143,0.0054,663,2019-08-07 16:24:21:381
5.63,-7.786,1.8682,-0.151,-0.1423,-0.0356,0.0102,-0.0017,0.0118,668,2019-08-07 16:24:21:386
5.6731,-7.7239,1.7975,-0.151,-0.1423,-0.0356,0.0102,-0.0017,0.0118,673,2019-08-07 16:24:21:391
5.6731,-7.7239,1.7975,-0.2323,-0.2135,-0.029,0.0091,-0.007,0.0129,678,2019-08-07 16:24:21:396
5.7688,-7.7096,1.8493,-0.2323,-0.2135,-0.029,0.0091,-0.007,0.0129,683,2019-08-07 16:24:21:401
5.7688,-7.7096,1.8493,-0.2323,-0.2135,-0.029,0.0027,-0.0059,0.0086,688,2019-08-07 16:24:21:406
5.7688,-7.7096,1.8493,-0.2323,-0.2135,-0.029,0.0027,-0.0059,0.0086,693,2019-08-07 16:24:21:411
5.764,-7.7191,1.7975,-0.2323,-0.2135,-0.029,0.0027,-0.0059,0.0086,699,2019-08-07 16:24:21:417
5.764,-7.7191,1.7975,-0.241,-0.2176,0.0418,-0.0069,0.0164,0.0043,702,2019-08-07 16:24:21:420
5.764,-7.7191,1.7975,-0.241,-0.2176,0.0418,-0.0069,0.0164,0.0043,708,2019-08-07 16:24:21:426
5.6396,-7.8242,1.8682,-0.241,-0.2176,0.0418,-0.0069,0.0164,0.0043,713,2019-08-07 16:24:21:431
5.6396,-7.8242,1.8682,-0.241,-0.2176,0.0418,-0.0239,0.0399,1.0E-4,717,2019-08-07 16:24:21:435
5.6157,-7.8289,1.8635,-0.1694,-0.0982,-0.0282,-0.0239,0.0399,1.0E-4,723,2019-08-07 16:24:21:441
5.6157,-7.8289,1.8635,-0.1694,-0.0982,-0.0282,-0.0314,0.0537,-0.0116,727,2019-08-07 16:24:21:445
5.6157,-7.8289,1.8635,-0.1694,-0.0982,-0.0282,-0.0314,0.0537,-0.0116,733,2019-08-07 16:24:21:451
5.5631,-7.8719,1.9106,-0.1694,-0.0982,-0.0282,-0.0314,0.0537,-0.0116,737,2019-08-07 16:24:21:455
5.5631,-7.8719,1.9106,-0.0777,0.0123,-0.0181,-0.0399,0.0463,-0.0202,743,2019-08-07 16:24:21:461
5.5774,-7.9053,1.8587,-0.0777,0.0123,-0.0181,-0.0399,0.0463,-0.0202,748,2019-08-07 16:24:21:466
5.5774,-7.9053,1.8587,-0.0777,0.0123,-0.0181,-0.0452,0.0388,-0.0308,753,2019-08-07 16:24:21:471
5.5774,-7.9053,1.8587,-0.0777,0.0123,-0.0181,-0.0452,0.0388,-0.0308,758,2019-08-07 16:24:21:476
5.6014,-7.934,1.8446,-0.1172,0.0095,-0.0105,-0.0357,0.0292,-0.0383,763,2019-08-07 16:24:21:481
5.6014,-7.934,1.8446,-0.1172,0.0095,-0.0105,-0.0357,0.0292,-0.0383,768,2019-08-07 16:24:21:486
5.6875,-7.9435,1.7975,-0.1172,0.0095,-0.0105,-0.0325,0.0281,-0.0436,773,2019-08-07 16:24:21:491
5.6875,-7.9435,1.7975,-0.1172,0.0095,-0.0105,-0.0325,0.0281,-0.0436,778,2019-08-07 16:24:21:496
5.6875,-7.9435,1.7975,-0.2636,0.0471,0.0343,-0.0239,0.0356,-0.0489,782,2019-08-07 16:24:21:500
5.7545,-7.9722,1.8446,-0.2636,0.0471,0.0343,-0.0239,0.0356,-0.0489,788,2019-08-07 16:24:21:506
5.7545,-7.9722,1.8446,-0.2636,0.0471,0.0343,-0.0165,0.0409,-0.0457,792,2019-08-07 16:24:21:510
5.8597,-7.9674,1.7456,-0.2636,0.0471,0.0343,-0.0165,0.0409,-0.0457,799,2019-08-07 16:24:21:517
5.8597,-7.9674,1.7456,-0.3277,-0.0381,0.1198,-0.0133,0.0558,-0.0457,803,2019-08-07 16:24:21:521
5.8597,-7.9674,1.7456,-0.3277,-0.0381,0.1198,-0.0133,0.0558,-0.0457,808,2019-08-07 16:24:21:526
5.8214,-7.9292,1.7786,-0.3277,-0.0381,0.1198,-0.0058,0.0569,-0.0415,813,2019-08-07 16:24:21:531
5.8214,-7.9292,1.7786,-0.3277,-0.0381,0.1198,-0.0058,0.0569,-0.0415,818,2019-08-07 16:24:21:536
5.8167,-7.9005,1.7833,-0.3354,-0.023,0.0675,6.0E-4,0.0654,-0.033,822,2019-08-07 16:24:21:540
5.8167,-7.9005,1.7833,-0.3354,-0.023,0.0675,6.0E-4,0.0654,-0.033,828,2019-08-07 16:24:21:546
5.8167,-7.9005,1.7833,-0.3354,-0.023,0.0675,0.0091,0.0825,-0.0372,834,2019-08-07 16:24:21:552
5.7927,-7.8624,1.7692,-0.3354,-0.023,0.0675,0.0091,0.0825,-0.0372,838,2019-08-07 16:24:21:556
5.7927,-7.8624,1.7692,-0.2255,-0.0177,0.0858,0.0187,0.108,-0.0415,843,2019-08-07 16:24:21:561
5.7927,-7.8242,1.7315,-0.2255,-0.0177,0.0858,0.0187,0.108,-0.0415,848,2019-08-07 16:24:21:566
5.6971,-7.8242,1.7315,-0.2255,-0.0177,0.0858,0.0187,0.108,-0.0415,852,2019-08-07 16:24:21:570
5.6971,-7.8242,1.7315,-0.2255,-0.0177,0.0858,0.0336,0.1624,-0.0596,858,2019-08-07 16:24:21:576
5.4818,-7.8098,1.7032,0.0323,-0.0868,0.1607,0.0336,0.1624,-0.0596,863,2019-08-07 16:24:21:581
5.4818,-7.8098,1.7032,0.0323,-0.0868,0.1607,0.041,0.2007,-0.0841,868,2019-08-07 16:24:21:586
5.2139,-7.743,1.7079,0.0323,-0.0868,0.1607,0.041,0.2007,-0.0841,873,2019-08-07 16:24:21:591
5.2139,-7.743,1.7079,0.0323,-0.0868,0.1607,0.0453,0.2231,-0.1118,877,2019-08-07 16:24:21:595
5.2139,-7.743,1.7079,0.5218,-0.2044,0.1662,0.0453,0.2231,-0.1118,883,2019-08-07 16:24:21:601
4.8694,-7.6189,1.7833,0.5218,-0.2044,0.1662,0.0464,0.2242,-0.1523,888,2019-08-07 16:24:21:606
4.8694,-7.6189,1.7833,0.7908,-0.2393,0.1117,0.0464,0.2242,-0.1523,893,2019-08-07 16:24:21:611
4.8694,-7.6189,1.7833,0.7908,-0.2393,0.1117,0.0517,0.2007,-0.2045,897,2019-08-07 16:24:21:615
4.5728,-7.5712,1.8257,0.7908,-0.2393,0.1117,0.0517,0.2007,-0.2045,903,2019-08-07 16:24:21:621
4.5728,-7.5712,1.8257,0.7908,-0.2393,0.1117,0.0719,0.1624,-0.2758,908,2019-08-07 16:24:21:626
4.2666,-7.5425,1.986,1.2842,-0.3098,-0.0452,0.0719,0.1624,-0.2758,914,2019-08-07 16:24:21:632
4.2666,-7.5425,1.986,1.2842,-0.3098,-0.0452,0.1103,0.1176,-0.3717,917,2019-08-07 16:24:21:635
4.2666,-7.5425,1.986,1.2842,-0.3098,-0.0452,0.1103,0.1176,-0.3717,923,2019-08-07 16:24:21:641
3.9795,-7.638,2.1274,1.2842,-0.3098,-0.0452,0.1518,0.0899,-0.4814,928,2019-08-07 16:24:21:646
3.9795,-7.638,2.1274,1.8056,-0.125,-0.1795,0.1518,0.0899,-0.4814,932,2019-08-07 16:24:21:650
3.5968,-7.6905,2.1086,1.8056,-0.125,-0.1795,0.1859,0.0676,-0.6135,938,2019-08-07 16:24:21:656
3.5968,-7.6905,2.1086,1.8056,-0.125,-0.1795,0.1859,0.0676,-0.6135,943,2019-08-07 16:24:21:661
3.5968,-7.6905,2.1086,1.8056,-0.125,-0.1795,0.2126,0.0846,-0.7584,948,2019-08-07 16:24:21:666
3.0466,-7.5998,2.0096,2.8174,-0.1117,0.0521,0.2126,0.0846,-0.7584,953,2019-08-07 16:24:21:671
3.0466,-7.5998,2.0096,2.8174,-0.1117,0.0521,0.2126,0.0846,-0.7584,958,2019-08-07 16:24:21:676
2.4199,-7.3993,1.9059,2.8174,-0.1117,0.0521,0.2402,0.1368,-0.9576,962,2019-08-07 16:24:21:680
2.4199,-7.3993,1.9059,2.8174,-0.1117,0.0521,0.2402,0.1368,-0.9576,968,2019-08-07 16:24:21:686
2.4199,-7.3993,1.9059,4.2014,-0.56,0.4374,0.2946,0.2199,-1.1472,972,2019-08-07 16:24:21:690
1.4582,-7.0126,1.5901,4.2014,-0.56,0.4374,0.2946,0.2199,-1.1472,978,2019-08-07 16:24:21:696
1.4582,-7.0126,1.5901,4.2014,-0.56,0.4374,0.3798,0.3925,-1.3539,983,2019-08-07 16:24:21:701
0.1139,-6.3013,-0.2295,4.2014,-0.56,0.4374,0.3798,0.3925,-1.3539,987,2019-08-07 16:24:21:705
0.1139,-6.3013,-0.2295,5.9469,-1.0244,3.5447,0.4778,0.8963,-1.7001,993,2019-08-07 16:24:21:711
0.1139,-6.3013,-0.2295,5.9469,-1.0244,3.5447,0.4778,0.8963,-1.7001,998,2019-08-07 16:24:21:716
-0.4937,-6.5639,-3.2133,5.9469,-1.0244,3.5447,0.4778,0.8963,-1.7001,1003,2019-08-07 16:24:21:721
-0.4937,-6.5639,-3.2133,5.9469,-1.0244,3.5447,0.6291,2.2226,-2.4213,1007,2019-08-07 16:24:21:725
-0.4937,-6.5639,-3.2133,5.9469,-1.0244,3.5447,0.6291,2.2226,-2.4213,1013,2019-08-07 16:24:21:731
-3.1537,-8.9222,-3.3783,9.3396,1.7149,5.8333,1.0754,3.7704,-3.3992,1018,2019-08-07 16:24:21:736
-3.1537,-8.9222,-3.3783,9.3396,1.7149,5.8333,1.0754,3.7704,-3.3992,1023,2019-08-07 16:24:21:741
-8.4595,-12.7937,-5.2874,9.3396,1.7149,5.8333,1.5942,5.347,-4.5901,1028,2019-08-07 16:24:21:746
-8.4595,-12.7937,-5.2874,19.4782,7.0746,10.9184,1.5942,5.347,-4.5901,1033,2019-08-07 16:24:21:751
-15.9085,-13.548,-7.0645,19.4782,7.0746,10.9184,1.8509,6.3899,-5.6256,1038,2019-08-07 16:24:21:756
-15.9085,-13.548,-7.0645,19.4782,7.0746,10.9184,1.8509,6.3899,-5.6256,1043,2019-08-07 16:24:21:761
-15.9085,-13.548,-7.0645,19.4782,7.0746,10.9184,2.0033,7.0269,-6.1955,1048,2019-08-07 16:24:21:766
-21.3243,-17.5341,-11.1938,29.3415,12.4402,15.1757,2.0033,7.0269,-6.1955,1053,2019-08-07 16:24:21:771
-21.3243,-17.5341,-11.1938,29.3415,12.4402,15.1757,2.0033,7.0269,-6.1955,1058,2019-08-07 16:24:21:776
-22.8025,-18.9663,-6.2584,29.3415,12.4402,15.1757,2.0512,7.273,-6.0655,1063,2019-08-07 16:24:21:781
-22.8025,-18.9663,-6.2584,29.3415,12.4402,15.1757,2.0512,7.273,-6.0655,1068,2019-08-07 16:24:21:786
-22.8025,-18.9663,-6.2584,26.3396,16.1013,8.2114,2.4294,4.5939,-5.191,1073,2019-08-07 16:24:21:791
-18.0661,-21.6444,-2.921,26.3396,16.1013,8.2114,2.4294,4.5939,-5.191,1078,2019-08-07 16:24:21:796
-18.0661,-21.6444,-2.921,19.6838,18.6776,9.9008,2.4294,4.5939,-5.191,1084,2019-08-07 16:24:21:802
-18.0661,-21.6444,-2.921,19.6838,18.6776,9.9008,3.3711,0.4926,-4.7659,1087,2019-08-07 16:24:21:805
-10.1721,-24.0122,-4.7406,19.6838,18.6776,9.9008,3.3711,0.4926,-4.7659,1093,2019-08-07 16:24:21:811
-10.1721,-24.0122,-4.7406,19.6838,18.6776,9.9008,4.7516,-1.4259,-5.5191,1098,2019-08-07 16:24:21:816
-7.7704,-23.2436,-5.0517,19.6838,18.6776,9.9008,4.7516,-1.4259,-5.5191,1103,2019-08-07 16:24:21:821
-7.7704,-23.2436,-5.0517,15.3466,19.2796,10.7518,6.6457,-1.3759,-6.8613,1108,2019-08-07 16:24:21:826
-7.7704,-23.2436,-5.0517,15.3466,19.2796,10.7518,6.6457,-1.3759,-6.8613,1114,2019-08-07 16:24:21:832
-8.4115,-17.7299,-3.2557,15.3466,19.2796,10.7518,8.8636,0.2263,-8.0118,1117,2019-08-07 16:24:21:835
-8.4115,-17.7299,-3.2557,15.3466,19.2796,10.7518,8.8636,0.2263,-8.0118,1123,2019-08-07 16:24:21:841
-6.8471,-11.7912,-5.3816,14.3018,10.8098,11.6824,10.5435,2.0639,-8.718,1128,2019-08-07 16:24:21:846
-6.8471,-11.7912,-5.3816,14.3018,10.8098,11.6824,10.5435,2.0639,-8.718,1133,2019-08-07 16:24:21:851
-6.8471,-11.7912,-5.3816,14.3018,10.8098,11.6824,10.6734,2.2332,-9.5873,1138,2019-08-07 16:24:21:856
-1.9671,-4.4682,-10.6281,14.3018,10.8098,11.6824,10.6734,2.2332,-9.5873,1143,2019-08-07 16:24:21:861
-1.9671,-4.4682,-10.6281,10.9592,0.2364,12.0766,10.6734,2.2332,-9.5873,1149,2019-08-07 16:24:21:867
-24.4004,56.9566,34.714,10.9592,0.2364,12.0766,10.7704,2.3856,-10.4171,1153,2019-08-07 16:24:21:871
-24.4004,56.9566,34.714,10.9592,0.2364,12.0766,10.7704,2.3856,-10.4171,1158,2019-08-07 16:24:21:876
-24.4004,56.9566,34.714,10.9592,0.2364,12.0766,11.5757,-5.9139,-7.8179,1163,2019-08-07 16:24:21:881
2.2,143.7828,16.1039,4.6111,-139.2901,-10.6577,11.5757,-5.9139,-7.8179,1167,2019-08-07 16:24:21:885
2.2,143.7828,16.1039,4.6111,-139.2901,-10.6577,14.7268,-9.4623,-6.4703,1173,2019-08-07 16:24:21:891
31.4843,63.3391,-50.3702,4.6111,-139.2901,-10.6577,14.7268,-9.4623,-6.4703,1178,2019-08-07 16:24:21:896
31.4843,63.3391,-50.3702,4.6111,-139.2901,-10.6577,5.0627,-13.2078,-5.8621,1183,2019-08-07 16:24:21:901
31.4843,63.3391,-50.3702,-28.1491,-40.4338,76.3554,5.0627,-13.2078,-5.8621,1188,2019-08-07 16:24:21:906
31.4843,63.3391,-50.3702,-28.1491,-40.4338,76.3554,5.0627,-13.2078,-5.8621,1193,2019-08-07 16:24:21:911
17.4713,59.31,-70.4039,-28.1491,-40.4338,76.3554,-3.6852,-8.4354,-2.7345,1198,2019-08-07 16:24:21:916
17.4713,59.31,-70.4039,-28.1491,-40.4338,76.3554,-7.9207,3.0556,3.5122,1203,2019-08-07 16:24:21:921
16.1365,28.347,-30.6759,-9.1628,-21.8147,32.8971,-7.9207,3.0556,3.5122,1208,2019-08-07 16:24:21:926
16.1365,28.347,-30.6759,-9.1628,-21.8147,32.8971,-10.3091,6.359,8.0886,1213,2019-08-07 16:24:21:931
17.8253,7.4138,17.8386,-10.5725,-1.6162,-14.6731,-10.3091,6.359,8.0886,1219,2019-08-07 16:24:21:937
17.8253,7.4138,17.8386,-10.5725,-1.6162,-14.6731,-10.3091,6.359,8.0886,1222,2019-08-07 16:24:21:940
17.8253,7.4138,17.8386,-10.5725,-1.6162,-14.6731,-7.8621,0.0718,8.6692,1228,2019-08-07 16:24:21:946
18.964,8.803,27.846,-10.5725,-1.6162,-14.6731,-7.8621,0.0718,8.6692,1233,2019-08-07 16:24:21:951
18.964,8.803,27.846,-11.0688,-4.4827,-5.3673,0.3478,-2.9045,7.0372,1238,2019-08-07 16:24:21:956
18.964,8.803,27.846,-11.0688,-4.4827,-5.3673,0.3478,-2.9045,7.0372,1243,2019-08-07 16:24:21:961
21.8823,11.061,-0.9082,-12.9121,-13.058,7.5234,4.3756,3.4104,5.0494,1249,2019-08-07 16:24:21:967
21.8823,11.061,-0.9082,-12.9121,-13.058,7.5234,4.3756,3.4104,5.0494,1253,2019-08-07 16:24:21:971
11.1035,35.3741,40.5026,-12.9121,-13.058,7.5234,4.3756,3.4104,5.0494,1258,2019-08-07 16:24:21:976
11.1035,35.3741,40.5026,-12.9121,-13.058,7.5234,3.534,1.8711,5.2742,1263,2019-08-07 16:24:21:981
11.1035,35.3741,40.5026,3.4252,-22.9527,20.413,3.534,1.8711,5.2742,1268,2019-08-07 16:24:21:986
4.0132,26.0604,-19.5419,3.4252,-22.9527,20.413,-0.9262,-3.8867,6.7006,1273,2019-08-07 16:24:21:991
4.0132,26.0604,-19.5419,3.4252,-22.9527,20.413,-0.9262,-3.8867,6.7006,1278,2019-08-07 16:24:21:996
4.6591,22.8046,-20.5224,3.4252,-22.9527,20.413,-4.2679,-2.2494,7.5794,1284,2019-08-07 16:24:22:002
4.6591,22.8046,-20.5224,1.3277,-16.3736,16.5708,-4.2679,-2.2494,7.5794,1288,2019-08-07 16:24:22:006
4.6591,22.8046,-20.5224,1.3277,-16.3736,16.5708,-5.9511,-1.6379,8.2015,1293,2019-08-07 16:24:22:011
11.5388,11.1088,9.5093,1.3277,-16.3736,16.5708,-5.9511,-1.6379,8.2015,1298,2019-08-07 16:24:22:016
11.5388,11.1088,9.5093,1.3277,-16.3736,16.5708,-5.4387,-4.8241,8.0215,1302,2019-08-07 16:24:22:020
11.5388,11.1088,9.5093,1.3277,-16.3736,16.5708,-5.4387,-4.8241,8.0215,1308,2019-08-07 16:24:22:026
13.4669,1.9144,21.1948,-4.1442,-2.0667,-18.1453,-2.2695,-5.7424,7.2162,1313,2019-08-07 16:24:22:031
13.4669,1.9144,21.1948,-4.1442,-2.0667,-18.1453,-2.2695,-5.7424,7.2162,1319,2019-08-07 16:24:22:037
16.1461,-5.9529,4.5551,-4.1442,-2.0667,-18.1453,-0.8261,-4.3757,6.2649,1322,2019-08-07 16:24:22:040
16.1461,-5.9529,4.5551,-5.9504,4.4436,1.5543,-0.8261,-4.3757,6.2649,1328,2019-08-07 16:24:22:046
16.1461,-5.9529,4.5551,-5.9504,4.4436,1.5543,-1.0157,-3.2838,5.6918,1334,2019-08-07 16:24:22:052
14.4285,-7.0126,-3.8025,-5.9504,4.4436,1.5543,-1.0157,-3.2838,5.6918,1338,2019-08-07 16:24:22:056
14.4285,-7.0126,-3.8025,-5.9504,4.4436,1.5543,-1.0157,-3.2838,5.6918,1342,2019-08-07 16:24:22:060
10.6251,-8.7026,-3.2086,-1.3248,5.9837,4.7412,-1.6431,-0.6984,5.5831,1348,2019-08-07 16:24:22:066
10.6251,-8.7026,-3.2086,-1.3248,5.9837,4.7412,-1.6431,-0.6984,5.5831,1354,2019-08-07 16:24:22:072
10.6251,-8.7026,-3.2086,-1.3248,5.9837,4.7412,-1.9329,2.4527,5.7525,1359,2019-08-07 16:24:22:077
5.5777,-7.5234,12.0265,-1.3248,5.9837,4.7412,-1.9329,2.4527,5.7525,1363,2019-08-07 16:24:22:081
5.5777,-7.5234,12.0265,6.5099,3.5962,-2.6964,-0.7217,2.654,5.989,1368,2019-08-07 16:24:22:086
1.9847,-7.0222,3.5228,6.5099,3.5962,-2.6964,-0.7217,2.654,5.989,1373,2019-08-07 16:24:22:091
1.9847,-7.0222,3.5228,6.5099,3.5962,-2.6964,-0.3233,3.9536,6.087,1378,2019-08-07 16:24:22:096
1.9847,-7.0222,3.5228,6.5099,3.5962,-2.6964,-0.3233,3.9536,6.087,1383,2019-08-07 16:24:22:101
0.339,-4.6353,1.9814,6.5099,3.5962,-2.6964,-0.7366,3.9313,5.8036,1387,2019-08-07 16:24:22:105
0.339,-4.6353,1.9814,8.4126,-0.6665,0.5808,-0.7366,3.9313,5.8036,1393,2019-08-07 16:24:22:111
0.339,-4.6353,1.9814,8.4126,-0.6665,0.5808,-0.7366,3.9313,5.8036,1398,2019-08-07 16:24:22:116
-2.8473,-3.2843,2.4716,8.4126,-0.6665,0.5808,-1.2234,3.6916,5.5064,1403,2019-08-07 16:24:22:121
-2.8473,-3.2843,2.4716,8.4126,-0.6665,0.5808,-1.2234,3.6916,5.5064,1407,2019-08-07 16:24:22:125
-5.4021,-4.4873,4.1356,12.5386,-1.8712,-1.6037,-1.1829,3.1078,5.304,1414,2019-08-07 16:24:22:132
-5.4021,-4.4873,4.1356,12.5386,-1.8712,-1.6037,-0.9944,2.5709,5.0856,1419,2019-08-07 16:24:22:137
-5.4021,-4.4873,4.1356,12.5386,-1.8712,-1.6037,-0.9944,2.5709,5.0856,1423,2019-08-07 16:24:22:141
-5.3016,-7.3134,2.2689,12.5386,-1.8712,-1.6037,-0.9944,2.5709,5.0856,1428,2019-08-07 16:24:22:146
-5.3016,-7.3134,2.2689,11.8866,1.4773,1.7483,-1.0338,1.9073,4.83,1433,2019-08-07 16:24:22:151
-5.3016,-7.3134,2.2689,11.8866,1.4773,1.7483,-1.0338,1.9073,4.83,1438,2019-08-07 16:24:22:156
-4.9715,-9.7528,1.3968,11.8866,1.4773,1.7483,-1.0018,1.6932,4.5935,1443,2019-08-07 16:24:22:161
-4.9715,-9.7528,1.3968,11.8866,1.4773,1.7483,-1.0018,1.6932,4.5935,1448,2019-08-07 16:24:22:166
-4.9715,-9.7528,1.3968,9.1904,2.3691,1.2865,-1.0018,1.6932,4.5935,1452,2019-08-07 16:24:22:170
-2.7708,-9.4377,1.4628,9.1904,2.3691,1.2865,-0.4532,1.919,4.2302,1458,2019-08-07 16:24:22:176
-2.7708,-9.4377,1.4628,9.1904,2.3691,1.2865,-0.4532,1.919,4.2302,1463,2019-08-07 16:24:22:181
-2.0292,-7.4709,-0.6678,6.9444,-0.8049,4.3933,0.0538,2.474,3.6795,1469,2019-08-07 16:24:22:187
-2.0292,-7.4709,-0.6678,6.9444,-0.8049,4.3933,0.0538,2.474,3.6795,1473,2019-08-07 16:24:22:191
-2.0292,-7.4709,-0.6678,6.9444,-0.8049,4.3933,0.2168,2.9384,3.0489,1478,2019-08-07 16:24:22:196
-3.3305,-5.6521,-1.1722,6.9444,-0.8049,4.3933,0.2168,2.9384,3.0489,1483,2019-08-07 16:24:22:201
-3.3305,-5.6521,-1.1722,6.9444,-0.8049,4.3933,0.0144,3.029,2.333,1488,2019-08-07 16:24:22:206
-3.6654,-5.0267,-1.0355,7.6115,-3.0846,4.7183,0.0144,3.029,2.333,1493,2019-08-07 16:24:22:211
-3.6654,-5.0267,-1.0355,7.6115,-3.0846,4.7183,-0.2178,2.7105,1.8046,1499,2019-08-07 16:24:22:217
-3.6654,-5.0267,-1.0355,7.6115,-3.0846,4.7183,-0.2178,2.7105,1.8046,1503,2019-08-07 16:24:22:221
-3.5123,-5.0888,-0.2671,7.6115,-3.0846,4.7183,-0.2178,2.7105,1.8046,1508,2019-08-07 16:24:22:226
-3.5123,-5.0888,-0.2671,6.715,-3.0532,3.3963,-0.2807,2.3419,1.3775,1513,2019-08-07 16:24:22:231
-2.8186,-5.7667,0.8689,6.715,-3.0532,3.3963,-0.2807,2.3419,1.3775,1519,2019-08-07 16:24:22:237
-2.8186,-5.7667,0.8689,6.715,-3.0532,3.3963,-0.1273,1.7496,1.0067,1523,2019-08-07 16:24:22:241
-2.8186,-5.7667,0.8689,6.715,-3.0532,3.3963,-0.1273,1.7496,1.0067,1528,2019-08-07 16:24:22:246
-1.6034,-6.0436,1.0103,4.6518,-2.4175,2.9081,-0.0314,1.283,0.7639,1533,2019-08-07 16:24:22:251
-1.6034,-6.0436,1.0103,4.6518,-2.4175,2.9081,-0.0314,1.283,0.7639,1538,2019-08-07 16:24:22:256
-1.6034,-6.0436,1.0103,4.6518,-2.4175,2.9081,-0.0314,1.283,0.7639,1542,2019-08-07 16:24:22:260
-0.3451,-5.4134,1.0386,4.6518,-2.4175,2.9081,-0.0122,0.6407,0.5071,1548,2019-08-07 16:24:22:266
-0.3451,-5.4134,1.0386,2.4101,-3.458,3.0585,-0.0495,0.2923,0.3442,1553,2019-08-07 16:24:22:271
1.0088,-4.9217,1.0575,2.4101,-3.458,3.0585,-0.0495,0.2923,0.3442,1558,2019-08-07 16:24:22:276
1.0088,-4.9217,1.0575,2.4101,-3.458,3.0585,-0.0495,0.2923,0.3442,1563,2019-08-07 16:24:22:281
1.9035,-4.8692,0.982,2.4101,-3.458,3.0585,-0.1294,0.0633,0.2046,1567,2019-08-07 16:24:22:285
1.9035,-4.8692,0.982,0.7656,-3.7174,2.9296,-0.1294,0.0633,0.2046,1573,2019-08-07 16:24:22:291
1.9035,-4.8692,0.982,0.7656,-3.7174,2.9296,-0.2466,-0.056,0.0853,1578,2019-08-07 16:24:22:296
2.1762,-4.9265,0.9632,0.7656,-3.7174,2.9296,-0.2466,-0.056,0.0853,1583,2019-08-07 16:24:22:301
2.1762,-4.9265,0.9632,0.7656,-3.7174,2.9296,-0.4074,-0.0997,-0.0116,1588,2019-08-07 16:24:22:306
2.3771,-5.4373,1.3356,0.4314,-3.1388,2.5113,-0.4074,-0.0997,-0.0116,1593,2019-08-07 16:24:22:311
2.3771,-5.4373,1.3356,0.4314,-3.1388,2.5113,-0.4745,-0.1487,-0.0798,1599,2019-08-07 16:24:22:317
2.3771,-5.4373,1.3356,0.4314,-3.1388,2.5113,-0.4745,-0.1487,-0.0798,1602,2019-08-07 16:24:22:320
2.5015,-6.3157,1.8447,0.4314,-3.1388,2.5113,-0.4745,-0.1487,-0.0798,1608,2019-08-07 16:24:22:326
2.5015,-6.3157,1.8447,0.1362,-1.8491,1.6113,-0.4767,-0.2243,-0.181,1613,2019-08-07 16:24:22:331
2.8412,-7.0079,2.2501,0.1362,-1.8491,1.6113,-0.4767,-0.2243,-0.181,1618,2019-08-07 16:24:22:336
2.8412,-7.0079,2.2501,0.1362,-1.8491,1.6113,-0.4362,-0.2211,-0.2833,1622,2019-08-07 16:24:22:340
2.8412,-7.0079,2.2501,0.1362,-1.8491,1.6113,-0.4362,-0.2211,-0.2833,1628,2019-08-07 16:24:22:346
3.2096,-7.3659,2.8251,-0.3726,-1.1696,0.672,-0.4138,-0.1881,-0.3461,1634,2019-08-07 16:24:22:352
3.2096,-7.3659,2.8251,-0.3726,-1.1696,0.672,-0.4138,-0.1881,-0.3461,1638,2019-08-07 16:24:22:356
3.2096,-7.3659,2.8251,-0.3726,-1.1696,0.672,-0.4138,-0.1881,-0.3461,1642,2019-08-07 16:24:22:360
3.4966,-7.5187,3.0184,-0.3726,-1.1696,0.672,-0.4362,-0.1402,-0.3845,1649,2019-08-07 16:24:22:367
3.4966,-7.5187,3.0184,-0.7228,-0.9005,0.475,-0.4362,-0.1402,-0.3845,1654,2019-08-07 16:24:22:372
3.4966,-7.5187,3.0184,-0.7228,-0.9005,0.475,-0.5321,-0.0912,-0.4164,1659,2019-08-07 16:24:22:377
3.7837,-7.8815,3.1221,-0.7228,-0.9005,0.475,-0.5321,-0.0912,-0.4164,1663,2019-08-07 16:24:22:381
3.7837,-7.8815,3.1221,-0.7228,-0.9005,0.475,-0.6216,-0.0464,-0.4292,1668,2019-08-07 16:24:22:386
3.645,-8.3636,3.3295,-0.5553,-0.284,0.1213,-0.6216,-0.0464,-0.4292,1672,2019-08-07 16:24:22:390
3.645,-8.3636,3.3295,-0.5553,-0.284,0.1213,-0.7174,-0.0816,-0.4175,1678,2019-08-07 16:24:22:396
3.645,-8.3636,3.3295,-0.5553,-0.284,0.1213,-0.7174,-0.0816,-0.4175,1683,2019-08-07 16:24:22:401
3.5158,-8.7265,3.207,-0.5553,-0.284,0.1213,-0.8016,-0.17,-0.3142,1688,2019-08-07 16:24:22:406
3.5158,-8.7265,3.207,-0.5176,0.3653,0.1051,-0.8016,-0.17,-0.3142,1693,2019-08-07 16:24:22:411
3.7359,-9.2516,3.1645,-0.5176,0.3653,0.1051,-0.792,-0.2179,-0.2503,1698,2019-08-07 16:24:22:416
3.7359,-9.2516,3.1645,-0.5176,0.3653,0.1051,-0.792,-0.2179,-0.2503,1703,2019-08-07 16:24:22:421
3.7359,-9.2516,3.1645,-0.5176,0.3653,0.1051,-0.792,-0.2179,-0.2503,1708,2019-08-07 16:24:22:426
3.7837,-9.5141,3.2777,-0.5176,0.3653,0.1051,-0.7281,-0.251,-0.2204,1713,2019-08-07 16:24:22:431
3.7837,-9.5141,3.2777,-0.5247,0.8369,-0.1411,-0.7281,-0.251,-0.2204,1718,2019-08-07 16:24:22:436
3.7837,-9.5141,3.2777,-0.5247,0.8369,-0.1411,-0.6269,-0.2978,-0.18,1723,2019-08-07 16:24:22:441
3.7359,-9.4282,3.2635,-0.483,0.7033,-0.1763,-0.6269,-0.2978,-0.18,1728,2019-08-07 16:24:22:446
3.7359,-9.4282,3.2635,-0.483,0.7033,-0.1763,-0.5608,-0.2669,-0.1448,1733,2019-08-07 16:24:22:451
3.9847,-9.242,2.9807,-0.483,0.7033,-0.1763,-0.5608,-0.2669,-0.1448,1738,2019-08-07 16:24:22:456
3.9847,-9.242,2.9807,-0.7403,0.4741,0.051,-0.5214,-0.1583,-0.1267,1743,2019-08-07 16:24:22:461
3.9847,-9.242,2.9807,-0.7403,0.4741,0.051,-0.5214,-0.1583,-0.1267,1749,2019-08-07 16:24:22:467
4.0851,-9.2468,2.9524,-0.7403,0.4741,0.051,-0.5214,-0.1583,-0.1267,1753,2019-08-07 16:24:22:471
4.0851,-9.2468,2.9524,-0.7403,0.4741,0.051,-0.5012,-0.0017,-0.1373,1758,2019-08-07 16:24:22:476
4.0851,-9.2468,2.9524,-0.7403,0.4741,0.051,-0.5012,-0.0017,-0.1373,1762,2019-08-07 16:24:22:480
4.0229,-9.2564,3.1221,-0.6962,0.4881,-0.2435,-0.4607,0.1794,-0.1672,1769,2019-08-07 16:24:22:487
4.0229,-9.2564,3.1221,-0.6962,0.4881,-0.2435,-0.4607,0.1794,-0.1672,1773,2019-08-07 16:24:22:491
3.6689,-9.1847,3.1598,-0.6962,0.4881,-0.2435,-0.4128,0.3339,-0.1895,1778,2019-08-07 16:24:22:496
3.6689,-9.1847,3.1598,-0.6962,0.4881,-0.2435,-0.4128,0.3339,-0.1895,1782,2019-08-07 16:24:22:500
3.6689,-9.1847,3.1598,-0.0578,0.2673,-0.6023,-0.3425,0.4116,-0.2023,1788,2019-08-07 16:24:22:506
3.0422,-8.9795,3.6359,-0.0578,0.2673,-0.6023,-0.3425,0.4116,-0.2023,1792,2019-08-07 16:24:22:510
3.0422,-8.9795,3.6359,-0.0578,0.2673,-0.6023,-0.3052,0.32,-0.1832,1798,2019-08-07 16:24:22:516
2.3054,-8.9031,3.7821,1.0938,0.1902,-1.006,-0.3052,0.32,-0.1832,1804,2019-08-07 16:24:22:522
2.3054,-8.9031,3.7821,1.0938,0.1902,-1.006,-0.2615,0.0207,-0.132,1808,2019-08-07 16:24:22:526
2.3054,-8.9031,3.7821,1.0938,0.1902,-1.006,-0.2615,0.0207,-0.132,1813,2019-08-07 16:24:22:531
2.315,-9.0511,3.7962,1.0438,0.2632,-1.0164,-0.2466,-0.3426,-0.1086,1818,2019-08-07 16:24:22:536
2.315,-9.0511,3.7962,1.0438,0.2632,-1.0164,-0.2466,-0.3426,-0.1086,1823,2019-08-07 16:24:22:541
2.9561,-9.1275,3.6265,1.0438,0.2632,-1.0164,-0.2221,-0.6004,-0.0969,1828,2019-08-07 16:24:22:546
2.9561,-9.1275,3.6265,1.0438,0.2632,-1.0164,-0.2221,-0.6004,-0.0969,1834,2019-08-07 16:24:22:552
2.9561,-9.1275,3.6265,-0.1529,0.2863,-0.5582,-0.1582,-0.7655,-0.083,1837,2019-08-07 16:24:22:555
4.2383,-8.9604,2.8487,-0.1529,0.2863,-0.5582,-0.1582,-0.7655,-0.083,1843,2019-08-07 16:24:22:561
4.2383,-8.9604,2.8487,-0.1529,0.2863,-0.5582,-0.1102,-0.6504,-0.0873,1848,2019-08-07 16:24:22:566
4.2383,-8.9604,2.8487,-0.1529,0.2863,-0.5582,-0.1102,-0.6504,-0.0873,1852,2019-08-07 16:24:22:570
5.0946,-8.841,2.3915,-1.6338,0.0491,0.2468,-0.1102,-0.6504,-0.0873,1858,2019-08-07 16:24:22:576
5.0946,-8.841,2.3915,-1.6338,0.0491,0.2468,-0.0857,-0.3926,-0.1214,1864,2019-08-07 16:24:22:582
5.1329,-8.6787,2.2878,-1.6338,0.0491,0.2468,-0.0857,-0.3926,-0.1214,1868,2019-08-07 16:24:22:586
5.1329,-8.6787,2.2878,-1.6338,0.0491,0.2468,-0.0772,0.0036,-0.1427,1873,2019-08-07 16:24:22:591
5.1329,-8.6787,2.2878,-1.4686,-0.0568,0.1209,-0.0772,0.0036,-0.1427,1877,2019-08-07 16:24:22:595
4.7885,-8.6214,2.4811,-1.4686,-0.0568,0.1209,-0.1017,0.2561,-0.1331,1884,2019-08-07 16:24:22:602
4.7885,-8.6214,2.4811,-1.4686,-0.0568,0.1209,-0.1017,0.2561,-0.1331,1888,2019-08-07 16:24:22:606
4.4392,-8.7026,2.7167,-1.4686,-0.0568,0.1209,-0.1326,0.3978,-0.1118,1893,2019-08-07 16:24:22:611
4.4392,-8.7026,2.7167,-0.7515,-0.0653,-0.3259,-0.1326,0.3978,-0.1118,1898,2019-08-07 16:24:22:616
4.4392,-8.7026,2.7167,-0.7515,-0.0653,-0.3259,-0.1294,0.3754,-0.0958,1903,2019-08-07 16:24:22:621
3.6498,-8.5307,3.1787,-0.7515,-0.0653,-0.3259,-0.1294,0.3754,-0.0958,1908,2019-08-07 16:24:22:626
3.6498,-8.5307,3.1787,-0.7515,-0.0653,-0.3259,-0.1113,0.1826,-0.0308,1914,2019-08-07 16:24:22:632
3.3532,-8.5355,3.24,0.1789,-0.2125,-0.593,-0.1113,0.1826,-0.0308,1918,2019-08-07 16:24:22:636
3.3532,-8.5355,3.24,0.1789,-0.2125,-0.593,-0.1113,0.1826,-0.0308,1923,2019-08-07 16:24:22:641
3.3532,-8.5355,3.24,0.1789,-0.2125,-0.593,-0.0964,-0.187,0.0459,1929,2019-08-07 16:24:22:647
3.6833,-8.6501,3.075,0.1789,-0.2125,-0.593,-0.0964,-0.187,0.0459,1934,2019-08-07 16:24:22:652
3.6833,-8.6501,3.075,-0.427,-0.176,-0.1788,-0.0868,-0.4608,0.0736,1937,2019-08-07 16:24:22:655
4.2335,-8.5785,2.5706,-0.427,-0.176,-0.1788,-0.0868,-0.4608,0.0736,1943,2019-08-07 16:24:22:661
4.2335,-8.5785,2.5706,-0.427,-0.176,-0.1788,-0.0665,-0.5418,0.0949,1948,2019-08-07 16:24:22:666
4.2335,-8.5785,2.5706,-0.427,-0.176,-0.1788,-0.0665,-0.5418,0.0949,1953,2019-08-07 16:24:22:671
4.9751,-8.4973,2.1511,-1.4372,-0.2934,0.387,-0.0665,-0.5418,0.0949,1958,2019-08-07 16:24:22:676
4.9751,-8.4973,2.1511,-1.4372,-0.2934,0.387,-0.0367,-0.4438,0.0991,1963,2019-08-07 16:24:22:681
4.9751,-8.4973,2.1511,-1.4372,-0.2934,0.387,-0.0367,-0.4438,0.0991,1968,2019-08-07 16:24:22:686
5.1425,-8.3493,2.3066,-1.4372,-0.2934,0.387,-0.0069,-0.2296,0.08,1973,2019-08-07 16:24:22:691
5.1425,-8.3493,2.3066,-1.4955,-0.483,0.0688,-0.0069,-0.2296,0.08,1979,2019-08-07 16:24:22:697
4.9464,-8.2443,2.5612,-1.4955,-0.483,0.0688,0.007,-0.0773,0.0544,1983,2019-08-07 16:24:22:701
4.9464,-8.2443,2.5612,-1.4955,-0.483,0.0688,0.007,-0.0773,0.0544,1987,2019-08-07 16:24:22:705
4.9464,-8.2443,2.5612,-1.4955,-0.483,0.0688,0.007,-0.0773,0.0544,1993,2019-08-07 16:24:22:711
4.3914,-8.039,2.8252,-0.7497,-0.7869,-0.4642,-0.0016,0.0228,0.0139,1998,2019-08-07 16:24:22:716
4.3914,-8.039,2.8252,-0.7497,-0.7869,-0.4642,-0.0016,0.0228,0.0139,2003,2019-08-07 16:24:22:721
4.3914,-8.039,2.8252,-0.7497,-0.7869,-0.4642,-0.0016,0.0228,0.0139,2008,2019-08-07 16:24:22:726
3.9991,-7.9865,3.1504,-0.4406,-0.8044,-0.6419,-0.041,-0.0464,-0.0095,2013,2019-08-07 16:24:22:731
3.9991,-7.9865,3.1504,-0.4406,-0.8044,-0.6419,-0.041,-0.0464,-0.0095,2018,2019-08-07 16:24:22:736
4.0756,-8.1154,3.1033,-0.4406,-0.8044,-0.6419,-0.0687,-0.2265,-0.0287,2023,2019-08-07 16:24:22:741
4.0756,-8.1154,3.1033,-0.5491,-0.6257,-0.5395,-0.0687,-0.2265,-0.0287,2029,2019-08-07 16:24:22:747
4.0756,-8.1154,3.1033,-0.5491,-0.6257,-0.5395,-0.0708,-0.3117,-0.0425,2033,2019-08-07 16:24:22:751
4.2718,-8.1393,2.9666,-0.5491,-0.6257,-0.5395,-0.0708,-0.3117,-0.0425,2038,2019-08-07 16:24:22:756
4.2718,-8.1393,2.9666,-0.5491,-0.6257,-0.5395,-0.0655,-0.3234,-0.0574,2043,2019-08-07 16:24:22:761
4.4823,-8.0915,2.8016,-0.9438,-0.6837,-0.2732,-0.0655,-0.3234,-0.0574,2048,2019-08-07 16:24:22:766
4.4823,-8.0915,2.8016,-0.9438,-0.6837,-0.2732,-0.0921,-0.3021,-0.0809,2054,2019-08-07 16:24:22:772
4.4823,-8.0915,2.8016,-0.9438,-0.6837,-0.2732,-0.0921,-0.3021,-0.0809,2058,2019-08-07 16:24:22:776
4.7069,-8.0772,2.5423,-0.9438,-0.6837,-0.2732,-0.0921,-0.3021,-0.0809,2063,2019-08-07 16:24:22:781
4.7069,-8.0772,2.5423,-1.0963,-0.6112,-0.1495,-0.107,-0.2659,-0.1001,2068,2019-08-07 16:24:22:786
4.7117,-8.2586,2.5611,-1.0963,-0.6112,-0.1495,-0.107,-0.2659,-0.1001,2073,2019-08-07 16:24:22:791
4.7117,-8.2586,2.5611,-1.0963,-0.6112,-0.1495,-0.0996,-0.2073,-0.1118,2078,2019-08-07 16:24:22:796
4.7117,-8.2586,2.5611,-1.0963,-0.6112,-0.1495,-0.0996,-0.2073,-0.1118,2083,2019-08-07 16:24:22:801
4.5873,-8.2204,2.6507,-0.8764,-0.5129,-0.227,-0.0687,-0.138,-0.1246,2088,2019-08-07 16:24:22:806
4.5873,-8.2204,2.6507,-0.8764,-0.5129,-0.227,-0.0687,-0.138,-0.1246,2093,2019-08-07 16:24:22:811
4.4055,-8.2156,2.58,-0.8764,-0.5129,-0.227,-0.0484,-0.1039,-0.132,2099,2019-08-07 16:24:22:817
4.4055,-8.2156,2.58,-0.8764,-0.5129,-0.227,-0.0484,-0.1039,-0.132,2103,2019-08-07 16:24:22:821
4.4055,-8.2156,2.58,-0.8764,-0.5129,-0.227,-0.0484,-0.1039,-0.132,2107,2019-08-07 16:24:22:825
4.2716,-8.1393,2.8581,-0.5545,-0.6216,-0.4777,-0.0452,-0.0954,-0.1416,2113,2019-08-07 16:24:22:831
4.2716,-8.1393,2.8581,-0.5545,-0.6216,-0.4777,-0.0452,-0.0954,-0.1416,2118,2019-08-07 16:24:22:836
4.2716,-8.1393,2.8581,-0.5545,-0.6216,-0.4777,-0.057,-0.1338,-0.148,2122,2019-08-07 16:24:22:840
4.0515,-8.0581,2.7356,-0.5545,-0.6216,-0.4777,-0.057,-0.1338,-0.148,2128,2019-08-07 16:24:22:846
4.0515,-8.0581,2.7356,-0.2985,-0.6626,-0.4445,-0.0719,-0.1359,-0.1586,2133,2019-08-07 16:24:22:851
4.0515,-8.0581,2.7356,-0.2985,-0.6626,-0.4445,-0.0719,-0.1359,-0.1586,2138,2019-08-07 16:24:22:856
4.0898,-8.2634,2.8251,-0.2985,-0.6626,-0.4445,-0.0879,-0.154,-0.1863,2142,2019-08-07 16:24:22:860
4.0898,-8.2634,2.8251,-0.2985,-0.6626,-0.4445,-0.0879,-0.154,-0.1863,2148,2019-08-07 16:24:22:866
4.0898,-8.2634,2.8251,-0.2477,-0.4167,-0.4283,-0.0879,-0.154,-0.1863,2153,2019-08-07 16:24:22:871
4.0132,-8.3207,2.712,-0.2477,-0.4167,-0.4283,-0.091,-0.1764,-0.2194,2158,2019-08-07 16:24:22:876
4.0132,-8.3207,2.712,-0.2477,-0.4167,-0.4283,-0.091,-0.1764,-0.2194,2163,2019-08-07 16:24:22:881
4.0611,-8.3398,2.7214,-0.2477,-0.4167,-0.4283,-0.0783,-0.1998,-0.2322,2168,2019-08-07 16:24:22:886
4.0611,-8.3398,2.7214,-0.2642,-0.411,-0.4117,-0.0783,-0.1998,-0.2322,2173,2019-08-07 16:24:22:891
4.0611,-8.3398,2.7214,-0.2642,-0.411,-0.4117,-0.0634,-0.219,-0.2449,2179,2019-08-07 16:24:22:897
4.1998,-8.2109,2.6649,-0.3269,-0.5022,-0.3584,-0.0634,-0.219,-0.2449,2183,2019-08-07 16:24:22:901
4.1998,-8.2109,2.6649,-0.3269,-0.5022,-0.3584,-0.057,-0.2456,-0.2556,2188,2019-08-07 16:24:22:906
4.1998,-8.2109,2.6649,-0.3269,-0.5022,-0.3584,-0.057,-0.2456,-0.2556,2194,2019-08-07 16:24:22:912
4.5156,-7.9388,2.6743,-0.3269,-0.5022,-0.3584,-0.0634,-0.236,-0.2588,2198,2019-08-07 16:24:22:916
4.5156,-7.9388,2.6743,-0.7103,-0.7916,-0.3132,-0.0634,-0.236,-0.2588,2203,2019-08-07 16:24:22:921
4.5156,-7.9388,2.6743,-0.7103,-0.7916,-0.3132,-0.0634,-0.236,-0.2588,2208,2019-08-07 16:24:22:926
4.7931,-7.8337,2.5847,-0.7103,-0.7916,-0.3132,-0.0857,-0.2094,-0.2673,2213,2019-08-07 16:24:22:931
4.7931,-7.8337,2.5847,-0.7103,-0.7916,-0.3132,-0.0857,-0.2094,-0.2673,2218,2019-08-07 16:24:22:936
4.8792,-7.9674,2.6083,-0.8473,-0.7414,-0.3099,-0.1198,-0.1977,-0.2524,2223,2019-08-07 16:24:22:941
4.8792,-7.9674,2.6083,-0.8473,-0.7414,-0.3099,-0.1198,-0.1977,-0.2524,2228,2019-08-07 16:24:22:946
4.8792,-7.9674,2.6083,-0.8989,-0.4888,-0.2805,-0.1411,-0.1796,-0.2322,2234,2019-08-07 16:24:22:952
4.9462,-8.292,2.4999,-0.8989,-0.4888,-0.2805,-0.1411,-0.1796,-0.2322,2238,2019-08-07 16:24:22:956
4.9462,-8.292,2.4999,-0.8989,-0.4888,-0.2805,-0.1454,-0.1721,-0.2194,2243,2019-08-07 16:24:22:961
4.9749,-8.5498,2.4244,-0.8989,-0.4888,-0.2805,-0.1454,-0.1721,-0.2194,2249,2019-08-07 16:24:22:967
4.9749,-8.5498,2.4244,-0.8792,-0.0822,-0.1207,-0.1432,-0.187,-0.2087,2253,2019-08-07 16:24:22:971
4.9749,-8.5498,2.4244,-0.8792,-0.0822,-0.1207,-0.1432,-0.187,-0.2087,2258,2019-08-07 16:24:22:976
5.0466,-8.6262,2.2689,-0.8792,-0.0822,-0.1207,-0.1401,-0.2041,-0.1927,2263,2019-08-07 16:24:22:981
5.0466,-8.6262,2.2689,-0.8792,-0.0822,-0.1207,-0.1401,-0.2041,-0.1927,2268,2019-08-07 16:24:22:986
5.0466,-8.6262,2.2689,-0.955,0.0308,-0.0862,-0.1401,-0.2041,-0.1927,2273,2019-08-07 16:24:22:991
5.0993,-8.6692,2.2877,-0.955,0.0308,-0.0862,-0.1006,-0.2009,-0.164,2278,2019-08-07 16:24:22:996
5.0993,-8.6692,2.2877,-0.955,0.0308,-0.0862,-0.1006,-0.2009,-0.164,2284,2019-08-07 16:24:23:002
5.1471,-8.4543,2.2736,-0.955,0.0308,-0.0862,-0.0591,-0.1838,-0.1565,2287,2019-08-07 16:24:23:005
5.1471,-8.4543,2.2736,-0.9408,-0.2474,-0.1219,-0.0591,-0.1838,-0.1565,2293,2019-08-07 16:24:23:011
5.1471,-8.4543,2.2736,-0.9408,-0.2474,-0.1219,-0.0293,-0.1849,-0.1459,2298,2019-08-07 16:24:23:016
5.2141,-8.1775,2.2548,-0.9408,-0.2474,-0.1219,-0.0293,-0.1849,-0.1459,2303,2019-08-07 16:24:23:021
5.2141,-8.1775,2.2548,-0.9408,-0.2474,-0.1219,-0.0293,-0.1849,-0.1459,2308,2019-08-07 16:24:23:026
5.3289,-8.0295,2.3915,-1.1159,-0.5763,-0.2873,-0.0165,-0.1902,-0.132,2313,2019-08-07 16:24:23:031
5.3289,-8.0295,2.3915,-1.1159,-0.5763,-0.2873,-0.0165,-0.1902,-0.132,2318,2019-08-07 16:24:23:036
5.3289,-8.0295,2.3915,-1.1159,-0.5763,-0.2873,-0.0186,-0.1849,-0.1118,2322,2019-08-07 16:24:23:040
5.5298,-7.9817,2.3255,-1.1159,-0.5763,-0.2873,-0.0186,-0.1849,-0.1118,2328,2019-08-07 16:24:23:046
5.5298,-7.9817,2.3255,-1.3275,-0.5812,-0.2898,-0.0293,-0.1593,-0.1001,2334,2019-08-07 16:24:23:052
5.5777,-7.9674,2.3962,-1.3275,-0.5812,-0.2898,-0.0293,-0.1593,-0.1001,2337,2019-08-07 16:24:23:055
5.5777,-7.9674,2.3962,-1.3275,-0.5812,-0.2898,-0.0442,-0.1242,-0.0883,2344,2019-08-07 16:24:23:062
5.5777,-7.9674,2.3962,-1.3275,-0.5812,-0.2898,-0.0442,-0.1242,-0.0883,2348,2019-08-07 16:24:23:066
5.549,-8.0486,2.2736,-1.2392,-0.503,-0.2402,-0.0442,-0.1242,-0.0883,2353,2019-08-07 16:24:23:071
5.549,-8.0486,2.2736,-1.2392,-0.503,-0.2402,-0.0634,-0.0677,-0.0734,2358,2019-08-07 16:24:23:076
5.4916,-8.1202,2.349,-1.2392,-0.503,-0.2402,-0.0634,-0.0677,-0.0734,2363,2019-08-07 16:24:23:081
5.4916,-8.1202,2.349,-1.2392,-0.503,-0.2402,-0.0687,-0.0368,-0.0692,2368,2019-08-07 16:24:23:086
5.4916,-8.1202,2.349,-1.2392,-0.503,-0.2402,-0.0687,-0.0368,-0.0692,2373,2019-08-07 16:24:23:091
5.3337,-8.0915,2.3867,-1.0296,-0.4804,-0.3294,-0.0665,-0.0113,-0.0649,2378,2019-08-07 16:24:23:096
5.3337,-8.0915,2.3867,-1.0296,-0.4804,-0.3294,-0.0665,-0.0113,-0.0649,2384,2019-08-07 16:24:23:102
5.3337,-8.0915,2.3867,-1.0296,-0.4804,-0.3294,-0.0591,0.0036,-0.0606,2388,2019-08-07 16:24:23:106
5.1615,-8.1297,2.3962,-0.8735,-0.4593,-0.3471,-0.0591,0.0036,-0.0606,2393,2019-08-07 16:24:23:111
5.1615,-8.1297,2.3962,-0.8735,-0.4593,-0.3471,-0.0623,-0.023,-0.0692,2398,2019-08-07 16:24:23:116
5.1615,-8.1297,2.3962,-0.8735,-0.4593,-0.3471,-0.0623,-0.023,-0.0692,2403,2019-08-07 16:24:23:121
5.2045,-8.0342,2.2595,-0.8735,-0.4593,-0.3471,-0.0623,-0.023,-0.0692,2408,2019-08-07 16:24:23:126
5.2045,-8.0342,2.2595,-0.8735,-0.4593,-0.3471,-0.0548,-0.0517,-0.0745,2412,2019-08-07 16:24:23:130
5.3911,-7.934,2.3349,-0.9724,-0.5852,-0.2025,-0.0548,-0.0517,-0.0745,2418,2019-08-07 16:24:23:136
5.3911,-7.934,2.3349,-0.9724,-0.5852,-0.2025,-0.0346,-0.0741,-0.0819,2423,2019-08-07 16:24:23:141
5.3911,-7.934,2.3349,-1.1035,-0.6231,-0.2552,-0.0346,-0.0741,-0.0819,2428,2019-08-07 16:24:23:146
5.6112,-7.9244,2.349,-1.1035,-0.6231,-0.2552,-0.0133,-0.0624,-0.0947,2433,2019-08-07 16:24:23:151
5.6112,-7.9244,2.349,-1.1035,-0.6231,-0.2552,-0.0133,-0.0624,-0.0947,2438,2019-08-07 16:24:23:156
5.6112,-7.9244,2.349,-1.1035,-0.6231,-0.2552,-0.0133,-0.0624,-0.0947,2442,2019-08-07 16:24:23:160
5.6112,-7.7908,2.2029,-1.228,-0.7483,-0.1761,0.0038,-0.0443,-0.1022,2448,2019-08-07 16:24:23:166
5.6112,-7.7908,2.2029,-1.228,-0.7483,-0.1761,0.0038,-0.0443,-0.1022,2453,2019-08-07 16:24:23:171
5.4342,-7.7908,2.1416,-1.228,-0.7483,-0.1761,-0.0048,-0.0272,-0.0915,2458,2019-08-07 16:24:23:176
5.4342,-7.7908,2.1416,-0.9999,-0.6488,-0.1261,-0.0048,-0.0272,-0.0915,2463,2019-08-07 16:24:23:181
5.4342,-7.7908,2.1416,-0.9999,-0.6488,-0.1261,-0.0112,-0.0283,-0.0841,2467,2019-08-07 16:24:23:185
5.3863,-7.9292,2.1793,-0.9999,-0.6488,-0.1261,-0.0112,-0.0283,-0.0841,2473,2019-08-07 16:24:23:191
5.3863,-7.9292,2.1793,-0.8782,-0.519,-0.2972,-0.0037,-0.0411,-0.0969,2478,2019-08-07 16:24:23:196
5.3863,-7.9292,2.1793,-0.8782,-0.519,-0.2972,-0.0037,-0.0411,-0.0969,2484,2019-08-07 16:24:23:202
5.1997,-8.0056,2.3537,-0.8782,-0.519,-0.2972,-0.0037,-0.0411,-0.0969,2487,2019-08-07 16:24:23:205
5.1997,-8.0056,2.3537,-0.6807,-0.4781,-0.2914,-0.0026,-0.0784,-0.0969,2493,2019-08-07 16:24:23:211
5.1184,-8.0199,2.2972,-0.6807,-0.4781,-0.2914,-0.0016,-0.0784,-0.0915,2498,2019-08-07 16:24:23:216
5.1184,-8.0199,2.2972,-0.6807,-0.4781,-0.2914,-0.0016,-0.0784,-0.0915,2502,2019-08-07 16:24:23:220
5.1184,-8.0199,2.2972,-0.6807,-0.4781,-0.2914,-0.0016,-0.0784,-0.0915,2508,2019-08-07 16:24:23:226
5.1041,-8.0724,2.1322,-0.6225,-0.3855,-0.2086,-0.0197,-0.0656,-0.0958,2514,2019-08-07 16:24:23:232
5.1041,-8.0724,2.1322,-0.6225,-0.3855,-0.2086,-0.0197,-0.0656,-0.0958,2518,2019-08-07 16:24:23:236
5.1041,-8.0724,2.1322,-0.6225,-0.3855,-0.2086,-0.0282,-0.0581,-0.1075,2523,2019-08-07 16:24:23:241
5.128,-8.1154,2.2783,-0.6225,-0.3855,-0.2086,-0.0282,-0.0581,-0.1075,2528,2019-08-07 16:24:23:246
5.128,-8.1154,2.2783,-0.6225,-0.3855,-0.2086,-0.0261,-0.056,-0.1033,2534,2019-08-07 16:24:23:252
5.1232,-8.0963,2.2406,-0.6591,-0.4216,-0.2449,-0.0261,-0.056,-0.1033,2537,2019-08-07 16:24:23:255
5.1232,-8.0963,2.2406,-0.6591,-0.4216,-0.2449,-0.0229,-0.0592,-0.0958,2543,2019-08-07 16:24:23:261
5.1232,-8.0963,2.2406,-0.6591,-0.4216,-0.2449,-0.0229,-0.0592,-0.0958,2548,2019-08-07 16:24:23:266
5.1328,-8.0581,2.1793,-0.6591,-0.4216,-0.2449,-0.0229,-0.0762,-0.0894,2554,2019-08-07 16:24:23:272
5.1328,-8.0581,2.1793,-0.6923,-0.3629,-0.2103,-0.0229,-0.0762,-0.0894,2558,2019-08-07 16:24:23:276
5.1328,-8.0581,2.1793,-0.6923,-0.3629,-0.2103,-0.0229,-0.0762,-0.0894,2563,2019-08-07 16:24:23:281
5.2428,-8.1058,2.1133,-0.6923,-0.3629,-0.2103,-0.0303,-0.1018,-0.0756,2568,2019-08-07 16:24:23:286
5.2428,-8.1058,2.1133,-0.6923,-0.3629,-0.2103,-0.0303,-0.1018,-0.0756,2573,2019-08-07 16:24:23:291
5.305,-8.1154,2.1463,-0.761,-0.3492,-0.162,-0.0229,-0.0954,-0.0617,2578,2019-08-07 16:24:23:296
5.305,-8.1154,2.1463,-0.761,-0.3492,-0.162,-0.0229,-0.0954,-0.0617,2584,2019-08-07 16:24:23:302
5.2524,-8.0915,2.0144,-0.761,-0.3492,-0.162,-0.0122,-0.0784,-0.0468,2587,2019-08-07 16:24:23:305
5.2524,-8.0915,2.0144,-0.761,-0.3492,-0.162,-0.0122,-0.0784,-0.0468,2593,2019-08-07 16:24:23:311
5.2524,-8.0915,2.0144,-0.6476,-0.4088,-0.0396,-0.0175,-0.0603,-0.0372,2599,2019-08-07 16:24:23:317
5.2237,-8.0247,2.0238,-0.6476,-0.4088,-0.0396,-0.0175,-0.0603,-0.0372,2602,2019-08-07 16:24:23:320
5.2237,-8.0247,2.0238,-0.6476,-0.4088,-0.0396,-0.0175,-0.0603,-0.0372,2608,2019-08-07 16:24:23:326
5.1471,-8.0677,2.0851,-0.6476,-0.4088,-0.0396,-0.0325,-0.0443,-0.0255,2613,2019-08-07 16:24:23:331
5.1471,-8.0677,2.0851,-0.5161,-0.371,-0.1047,-0.0389,-0.0294,-0.0287,2618,2019-08-07 16:24:23:336
5.1471,-8.0677,2.0851,-0.5161,-0.371,-0.1047,-0.0389,-0.0294,-0.0287,2623,2019-08-07 16:24:23:341
5.0132,-8.0438,2.184,-0.4343,-0.4072,-0.2218,-0.0389,-0.0294,-0.0287,2628,2019-08-07 16:24:23:346
5.0132,-8.0438,2.184,-0.4343,-0.4072,-0.2218,-0.041,-0.0347,-0.0393,2633,2019-08-07 16:24:23:351
5.0132,-8.0438,2.184,-0.4343,-0.4072,-0.2218,-0.0474,-0.0549,-0.0489,2638,2019-08-07 16:24:23:356
4.9271,-8.0342,2.1605,-0.4343,-0.4072,-0.2218,-0.0474,-0.0549,-0.0489,2643,2019-08-07 16:24:23:361
4.9271,-8.0342,2.1605,-0.3875,-0.4215,-0.1852,-0.0474,-0.0549,-0.0489,2648,2019-08-07 16:24:23:366
5.0084,-8.0247,2.1181,-0.3875,-0.4215,-0.1852,-0.0548,-0.0954,-0.0606,2653,2019-08-07 16:24:23:371
5.0084,-8.0247,2.1181,-0.3875,-0.4215,-0.1852,-0.0548,-0.0954,-0.0606,2658,2019-08-07 16:24:23:376
5.0084,-8.0247,2.1181,-0.3875,-0.4215,-0.1852,-0.0548,-0.1263,-0.0724,2663,2019-08-07 16:24:23:381
5.238,-8.0056,2.1699,-0.6255,-0.4337,-0.2364,-0.0548,-0.1263,-0.0724,2668,2019-08-07 16:24:23:386
5.238,-8.0056,2.1699,-0.6255,-0.4337,-0.2364,-0.042,-0.1466,-0.0745,2673,2019-08-07 16:24:23:391
5.238,-8.0056,2.1699,-0.6255,-0.4337,-0.2364,-0.042,-0.1466,-0.0745,2677,2019-08-07 16:24:23:395
5.2954,-8.0247,2.0521,-0.6255,-0.4337,-0.2364,-0.0367,-0.1551,-0.066,2684,2019-08-07 16:24:23:402
5.2954,-8.0247,2.0521,-0.7884,-0.3871,-0.0442,-0.0367,-0.1551,-0.066,2689,2019-08-07 16:24:23:407
5.5012,-8.0295,1.9389,-0.7884,-0.3871,-0.0442,-0.0314,-0.1306,-0.0585,2694,2019-08-07 16:24:23:412
5.5012,-8.0295,1.9389,-0.7884,-0.3871,-0.0442,-0.0314,-0.1306,-0.0585,2698,2019-08-07 16:24:23:416
5.5012,-8.0295,1.9389,-0.7884,-0.3871,-0.0442,-0.0218,-0.0965,-0.0543,2703,2019-08-07 16:24:23:421
5.4198,-8.1249,1.9955,-0.7884,-0.3871,-0.0442,-0.0218,-0.0965,-0.0543,2708,2019-08-07 16:24:23:426
5.4198,-8.1249,1.9955,-0.7298,-0.3365,-0.1731,-0.0133,-0.0677,-0.0553,2712,2019-08-07 16:24:23:430
5.3002,-8.0629,2.0332,-0.7298,-0.3365,-0.1731,-0.0133,-0.0677,-0.0553,2718,2019-08-07 16:24:23:436
5.3002,-8.0629,2.0332,-0.7298,-0.3365,-0.1731,-0.0133,-0.0677,-0.0553,2723,2019-08-07 16:24:23:441
5.3002,-8.0629,2.0332,-0.4932,-0.4098,-0.2873,6.0E-4,-0.0688,-0.0543,2727,2019-08-07 16:24:23:445
5.1519,-8.0247,2.1746,-0.4932,-0.4098,-0.2873,6.0E-4,-0.0688,-0.0543,2733,2019-08-07 16:24:23:451
5.1519,-8.0247,2.1746,-0.4932,-0.4098,-0.2873,-5.0E-4,-0.1018,-0.0543,2737,2019-08-07 16:24:23:455
5.3002,-8.0104,2.2218,-0.4932,-0.4098,-0.2873,-5.0E-4,-0.1018,-0.0543,2743,2019-08-07 16:24:23:461
5.3002,-8.0104,2.2218,-0.6189,-0.43,-0.3413,-0.0016,-0.0965,-0.0649,2749,2019-08-07 16:24:23:467
5.3002,-8.0104,2.2218,-0.6189,-0.43,-0.3413,-0.0016,-0.0965,-0.0649,2753,2019-08-07 16:24:23:471
5.3146,-7.8815,2.2265,-0.6189,-0.43,-0.3413,-0.0016,-0.0965,-0.0649,2758,2019-08-07 16:24:23:476
5.3146,-7.8815,2.2265,-0.6189,-0.43,-0.3413,-0.0016,-0.0837,-0.0756,2763,2019-08-07 16:24:23:481
5.3529,-7.934,2.217,-0.641,-0.4626,-0.3377,-0.0016,-0.0837,-0.0756,2768,2019-08-07 16:24:23:486
5.3529,-7.934,2.217,-0.641,-0.4626,-0.3377,-0.0229,-0.0976,-0.0798,2772,2019-08-07 16:24:23:490
5.3529,-7.934,2.217,-0.641,-0.4626,-0.3377,-0.0229,-0.0976,-0.0798,2778,2019-08-07 16:24:23:496
5.2954,-7.9292,2.25,-0.641,-0.4626,-0.3377,-0.0303,-0.0976,-0.0724,2784,2019-08-07 16:24:23:502
5.2954,-7.9292,2.25,-0.6674,-0.3287,-0.3765,-0.0303,-0.0976,-0.0724,2788,2019-08-07 16:24:23:506
5.2954,-7.9292,2.25,-0.6674,-0.3287,-0.3765,-0.0399,-0.1146,-0.0574,2793,2019-08-07 16:24:23:511
5.4629,-8.0295,2.1935,-0.6674,-0.3287,-0.3765,-0.0399,-0.1146,-0.0574,2798,2019-08-07 16:24:23:516
5.4629,-8.0295,2.1935,-0.6674,-0.3287,-0.3765,-0.0346,-0.1338,-0.0436,2803,2019-08-07 16:24:23:521
5.6064,-8.0963,2.2265,-0.6674,-0.3287,-0.3765,-0.0346,-0.1338,-0.0436,2808,2019-08-07 16:24:23:526
5.6064,-8.0963,2.2265,-0.8498,-0.2597,-0.2934,-0.0207,-0.137,-0.0266,2813,2019-08-07 16:24:23:531
5.6064,-8.0963,2.2265,-0.8498,-0.2597,-0.2934,-0.0207,-0.137,-0.0266,2817,2019-08-07 16:24:23:535
5.7069,-8.144,2.0615,-0.8498,-0.2597,-0.2934,-0.0207,-0.137,-0.0266,2823,2019-08-07 16:24:23:541
5.7069,-8.144,2.0615,-1.3566,-0.2584,-0.3367,0.0091,-0.0912,-0.0159,2828,2019-08-07 16:24:23:546
6.1375,-8.1249,2.1228,-1.3566,-0.2584,-0.3367,0.0091,-0.0912,-0.0159,2833,2019-08-07 16:24:23:551
6.1375,-8.1249,2.1228,-1.3566,-0.2584,-0.3367,0.0091,-0.0912,-0.0159,2838,2019-08-07 16:24:23:556
6.1375,-8.1249,2.1228,-1.3566,-0.2584,-0.3367,0.0378,-0.0507,-0.0819,2843,2019-08-07 16:24:23:561
5.6495,-8.0724,1.8022,-0.5464,-0.4232,-0.1011,0.0155,-0.0102,-0.0766,2849,2019-08-07 16:24:23:567
5.6495,-8.0724,1.8022,-0.5464,-0.4232,-0.1011,0.0155,-0.0102,-0.0766,2852,2019-08-07 16:24:23:570
5.6495,-8.0724,1.8022,-0.5464,-0.4232,-0.1011,0.0155,-0.0102,-0.0766,2858,2019-08-07 16:24:23:576
5.238,-8.0772,2.1982,-0.4878,-0.2617,-0.3534,0.0133,0.0047,-0.0234,2863,2019-08-07 16:24:23:581
5.238,-8.0772,2.1982,-0.4878,-0.2617,-0.3534,0.0133,0.0047,-0.0234,2869,2019-08-07 16:24:23:587
5.238,-8.0772,2.1982,-0.4878,-0.2617,-0.3534,0.0741,0.026,0.0299,2873,2019-08-07 16:24:23:591
5.4868,-8.1297,2.2218,-0.4878,-0.2617,-0.3534,0.0741,0.026,0.0299,2878,2019-08-07 16:24:23:596
5.4868,-8.1297,2.2218,-0.6027,-0.2204,-0.3107,0.0794,0.0292,0.0235,2883,2019-08-07 16:24:23:601
5.3433,-8.0247,2.0709,-0.6027,-0.2204,-0.3107,0.0794,0.0292,0.0235,2887,2019-08-07 16:24:23:605
5.3433,-8.0247,2.0709,-0.6027,-0.2204,-0.3107,0.0517,0.0228,0.0086,2893,2019-08-07 16:24:23:611
5.3433,-8.0247,2.0709,-0.6027,-0.2204,-0.3107,0.0517,0.0228,0.0086,2898,2019-08-07 16:24:23:616
5.2955,-7.8767,2.1369,-0.5009,-0.4742,-0.2631,0.0517,0.0228,0.0086,2903,2019-08-07 16:24:23:621
5.2955,-7.8767,2.1369,-0.5009,-0.4742,-0.2631,0.0144,-6.0E-4,-0.0074,2908,2019-08-07 16:24:23:626
5.1424,-7.8719,2.1275,-0.3453,-0.4769,-0.251,0.0144,-6.0E-4,-0.0074,2913,2019-08-07 16:24:23:631
5.1424,-7.8719,2.1275,-0.3453,-0.4769,-0.251,-5.0E-4,-0.0347,1.0E-4,2917,2019-08-07 16:24:23:635
5.1424,-7.8719,2.1275,-0.3453,-0.4769,-0.251,-5.0E-4,-0.0347,1.0E-4,2923,2019-08-07 16:24:23:641
5.3481,-8.1297,1.9766,-0.3453,-0.4769,-0.251,0.0027,-0.0656,0.0022,2928,2019-08-07 16:24:23:646
5.3481,-8.1297,1.9766,-0.5697,-0.2454,-0.0511,0.0027,-0.0656,0.0022,2933,2019-08-07 16:24:23:651
5.5347,-8.0104,1.9578,-0.5697,-0.2454,-0.0511,0.0208,-0.072,0.0033,2939,2019-08-07 16:24:23:657
5.5347,-8.0104,1.9578,-0.762,-0.2483,-0.0718,0.0208,-0.072,0.0033,2942,2019-08-07 16:24:23:660
5.5347,-8.0104,1.9578,-0.762,-0.2483,-0.0718,0.0378,-0.0656,-0.0042,2948,2019-08-07 16:24:23:666
5.7117,-7.9817,1.7928,-0.762,-0.2483,-0.0718,0.0378,-0.0656,-0.0042,2953,2019-08-07 16:24:23:671
5.7117,-7.9817,1.7928,-0.762,-0.2483,-0.0718,0.0378,-0.0656,-0.0042,2958,2019-08-07 16:24:23:676
5.6591,-7.7478,1.7975,-0.881,-0.524,0.0374,0.0251,-0.0177,-0.0202,2963,2019-08-07 16:24:23:681
5.6591,-7.7478,1.7975,-0.881,-0.524,0.0374,0.0251,-0.0177,-0.0202,2968,2019-08-07 16:24:23:686
5.6591,-7.7478,1.7975,-0.881,-0.524,0.0374,-0.0048,0.0186,-0.0095,2973,2019-08-07 16:24:23:691
5.5777,-7.8003,1.8824,-0.881,-0.524,0.0374,-0.0048,0.0186,-0.0095,2977,2019-08-07 16:24:23:695
5.5777,-7.8003,1.8824,-0.6677,-0.4619,-0.0647,-0.0197,0.0548,0.0033,2983,2019-08-07 16:24:23:701
5.4246,-7.891,1.9766,-0.6677,-0.4619,-0.0647,-0.0197,0.0548,0.0033,2988,2019-08-07 16:24:23:706
5.4246,-7.891,1.9766,-0.6677,-0.4619,-0.0647,-0.0271,0.0537,0.0011,2993,2019-08-07 16:24:23:711
5.3577,-7.934,1.9861,-0.6677,-0.4619,-0.0647,-0.0271,0.0537,0.0011,2999,2019-08-07 16:24:23:717
5.3577,-7.934,1.9861,-0.5214,-0.4361,-0.063,-0.0314,0.0335,0.0022,3003,2019-08-07 16:24:23:721
5.3577,-7.934,1.9861,-0.5214,-0.4361,-0.063,-0.0314,0.0335,0.0022,3007,2019-08-07 16:24:23:725
5.3577,-7.934,1.9861,-0.5214,-0.4361,-0.063,-0.0314,0.0335,0.0022,3013,2019-08-07 16:24:23:731
5.3959,-7.9101,1.8588,-0.5214,-0.4361,-0.063,-0.0314,0.0207,0.0033,3018,2019-08-07 16:24:23:736
5.3959,-7.9101,1.8588,-0.5895,-0.4108,0.0329,-0.0314,0.0207,0.0033,3023,2019-08-07 16:24:23:741
5.3864,-7.9961,1.8682,-0.5895,-0.4108,0.0329,-0.0293,0.0228,0.0011,3028,2019-08-07 16:24:23:746
5.3864,-7.9961,1.8682,-0.5895,-0.4108,0.0329,-0.0293,0.0228,0.0011,3033,2019-08-07 16:24:23:751
5.3864,-7.9961,1.8682,-0.5895,-0.4108,0.0329,-0.0165,0.0324,0.0022,3037,2019-08-07 16:24:23:755
5.3672,-8.0104,1.8824,-0.5049,-0.2899,0.0173,-0.0165,0.0324,0.0022,3043,2019-08-07 16:24:23:761
5.3672,-8.0104,1.8824,-0.5049,-0.2899,0.0173,-0.0048,0.0345,0.0033,3048,2019-08-07 16:24:23:766
5.3529,-8.0056,1.8635,-0.5049,-0.2899,0.0173,-0.0048,0.0345,0.0033,3052,2019-08-07 16:24:23:770
5.3529,-8.0056,1.8635,-0.5049,-0.2899,0.0173,-0.0016,0.0345,-0.0042,3058,2019-08-07 16:24:23:776
5.3529,-8.0056,1.8635,-0.5302,-0.4071,-0.0598,-0.0016,0.0345,-0.0042,3063,2019-08-07 16:24:23:781
5.3282,-7.9387,1.9906,-0.5302,-0.4071,-0.0598,-0.008,0.0186,0.0011,3068,2019-08-07 16:24:23:786
5.3282,-7.9387,1.9906,-0.5302,-0.4071,-0.0598,-0.008,0.0186,0.0011,3073,2019-08-07 16:24:23:791
5.3234,-7.9673,1.9011,-0.5302,-0.4071,-0.0598,-0.008,0.0186,0.0011,3078,2019-08-07 16:24:23:796
5.3234,-7.9673,1.9011,-0.5315,-0.3333,-0.0781,-0.0218,0.0026,0.0043,3083,2019-08-07 16:24:23:801
5.3234,-7.9673,1.9011,-0.5315,-0.3333,-0.0781,-0.0218,0.0026,0.0043,3088,2019-08-07 16:24:23:806
5.3425,-8.0198,1.9482,-0.5315,-0.3333,-0.0781,-0.0367,-0.0091,0.0033,3092,2019-08-07 16:24:23:810
5.3425,-8.0198,1.9482,-0.5315,-0.3333,-0.0781,-0.0367,-0.0091,0.0033,3098,2019-08-07 16:24:23:816
5.3042,-8.1153,1.9812,-0.461,-0.2085,-0.1124,-0.0367,-0.0155,0.0022,3103,2019-08-07 16:24:23:821
5.3042,-8.1153,1.9812,-0.461,-0.2085,-0.1124,-0.0367,-0.0155,0.0022,3108,2019-08-07 16:24:23:826
5.2851,-8.0771,1.9623,-0.461,-0.2085,-0.1124,-0.0229,-0.0166,0.0011,3114,2019-08-07 16:24:23:832
5.2851,-8.0771,1.9623,-0.461,-0.2085,-0.1124,-0.0229,-0.0166,0.0011,3118,2019-08-07 16:24:23:836
5.2851,-8.0771,1.9623,-0.461,-0.2085,-0.1124,-0.0229,-0.0166,0.0011,3123,2019-08-07 16:24:23:841
5.2277,-8.0867,1.9623,-0.3757,-0.2935,-0.1042,-0.0261,-0.023,-0.0021,3128,2019-08-07 16:24:23:846
5.2277,-8.0867,1.9623,-0.3757,-0.2935,-0.1042,-0.0261,-0.023,-0.0021,3133,2019-08-07 16:24:23:851
5.2277,-8.0867,1.9623,-0.3757,-0.2935,-0.1042,-0.0175,-0.024,-0.0095,3138,2019-08-07 16:24:23:856
5.3042,-8.0867,1.9812,-0.4995,-0.2533,-0.1094,-0.0175,-0.024,-0.0095,3143,2019-08-07 16:24:23:861
5.3042,-8.0867,1.9812,-0.4995,-0.2533,-0.1094,-0.0101,-0.0113,-0.0148,3148,2019-08-07 16:24:23:866
5.3042,-8.0867,1.9812,-0.4995,-0.2533,-0.1094,-0.0101,-0.0113,-0.0148,3153,2019-08-07 16:24:23:871
5.4095,-7.996,1.9105,-0.4995,-0.2533,-0.1094,-0.0016,0.0143,-0.0234,3158,2019-08-07 16:24:23:876
5.4095,-7.996,1.9105,-0.4586,-0.3684,0.0037,-0.0016,0.0143,-0.0234,3163,2019-08-07 16:24:23:881
5.2181,-7.8671,1.9482,-0.4586,-0.3684,0.0037,-0.0218,-0.023,-0.034,3168,2019-08-07 16:24:23:886
5.2181,-7.8671,1.9482,-0.4586,-0.3684,0.0037,-0.0218,-0.023,-0.034,3173,2019-08-07 16:24:23:891
5.2181,-7.8671,1.9482,-0.425,-0.3707,-0.2665,-0.0175,0.0196,-0.0383,3177,2019-08-07 16:24:23:895
5.2659,-8.0007,2.066,-0.425,-0.3707,-0.2665,-0.0175,0.0196,-0.0383,3183,2019-08-07 16:24:23:901
5.2659,-8.0007,2.066,-0.425,-0.3707,-0.2665,-0.0261,-0.0059,-0.033,3188,2019-08-07 16:24:23:906
5.2659,-8.0007,2.066,-0.425,-0.3707,-0.2665,-0.0261,-0.0059,-0.033,3192,2019-08-07 16:24:23:910
5.2276,-8.0294,2.0472,-0.3539,-0.2798,-0.1926,-0.0207,-0.0102,-0.0319,3198,2019-08-07 16:24:23:916
5.2276,-8.0294,2.0472,-0.3539,-0.2798,-0.1926,-0.0207,-0.0102,-0.0319,3204,2019-08-07 16:24:23:922
5.3042,-8.0914,2.0613,-0.3539,-0.2798,-0.1926,0.0027,0.0122,-0.0244,3208,2019-08-07 16:24:23:926
5.3042,-8.0914,2.0613,-0.3539,-0.2798,-0.1926,0.0027,0.0122,-0.0244,3213,2019-08-07 16:24:23:931
5.3042,-8.0914,2.0613,-0.5134,-0.1607,-0.1599,0.0027,0.0122,-0.0244,3217,2019-08-07 16:24:23:935
5.4764,-8.1201,1.8633,-0.5134,-0.1607,-0.1599,0.0208,0.0356,-0.0351,3223,2019-08-07 16:24:23:941
5.4764,-8.1201,1.8633,-0.5134,-0.1607,-0.1599,0.0208,0.0356,-0.0351,3227,2019-08-07 16:24:23:945
5.4046,-8.0007,2.033,-0.5143,-0.2976,-0.1732,0.0048,0.0313,-0.033,3233,2019-08-07 16:24:23:951
5.4046,-8.0007,2.033,-0.5143,-0.2976,-0.1732,0.0048,0.0313,-0.033,3238,2019-08-07 16:24:23:956
5.4046,-8.0007,2.033,-0.5143,-0.2976,-0.1732,0.0048,0.042,-0.0298,3243,2019-08-07 16:24:23:961
5.529,-7.9673,2.1273,-0.6348,-0.3279,-0.2639,0.0048,0.042,-0.0298,3248,2019-08-07 16:24:23:966
5.529,-7.9673,2.1273,-0.6348,-0.3279,-0.2639,0.0133,0.0218,-0.034,3252,2019-08-07 16:24:23:970