ACCELEROMETER X (m/s²),ACCELEROMETER Y (m/s²),ACCELEROMETER Z (m/s²),LINEAR ACCELERATION X (m/s²),LINEAR ACCELERATION Y (m/s²),LINEAR ACCELERATION Z (m/s²),GYROSCOPE X (rad/s),GYROSCOPE Y (rad/s),GYROSCOPE Z (rad/s),Time since start in ms ,YYYY-MO-DD HH-MI-SS_SSS
4.5301,-8.3307,2.2699,-0.0909,-0.1143,0.0129,0.0453,-0.023,-0.0105,3,2019-08-07 16:23:07:655
4.5301,-8.3307,2.2699,-0.0909,-0.1143,0.0129,0.0464,-0.0155,-0.0191,8,2019-08-07 16:23:07:660
4.5301,-8.3307,2.2699,-0.0909,-0.1143,0.0129,0.0464,-0.0155,-0.0191,12,2019-08-07 16:23:07:664
4.5445,-8.2925,2.3831,-0.0909,-0.1143,0.0129,0.0453,-0.0198,-0.0265,18,2019-08-07 16:23:07:670
4.5445,-8.2925,2.3831,-0.0806,-0.1476,-0.1211,0.0453,-0.0198,-0.0265,22,2019-08-07 16:23:07:674
4.5445,-8.2925,2.3831,-0.0806,-0.1476,-0.1211,0.0453,-0.0198,-0.0265,28,2019-08-07 16:23:07:680
4.5636,-8.2686,2.4114,-0.0806,-0.1476,-0.1211,0.041,-0.023,-0.0404,32,2019-08-07 16:23:07:684
4.5636,-8.2686,2.4114,-0.0806,-0.1476,-0.1211,0.041,-0.023,-0.0404,38,2019-08-07 16:23:07:690
4.5636,-8.2686,2.4114,-0.0806,-0.1476,-0.1211,0.0325,-0.0273,-0.0446,42,2019-08-07 16:23:07:694
4.6019,-8.2496,2.3689,-0.1477,-0.1841,-0.0734,0.0325,-0.0273,-0.0446,48,2019-08-07 16:23:07:700
4.6019,-8.2496,2.3689,-0.1477,-0.1841,-0.0734,0.0272,-0.0379,-0.0404,52,2019-08-07 16:23:07:704
4.6498,-8.2496,2.3595,-0.1477,-0.1841,-0.0734,0.0272,-0.0379,-0.0404,58,2019-08-07 16:23:07:710
4.6498,-8.2496,2.3595,-0.1477,-0.1841,-0.0734,0.0272,-0.0486,-0.0382,62,2019-08-07 16:23:07:714
4.7072,-8.2352,2.4161,-0.2569,-0.1972,-7.0E-4,0.0272,-0.0486,-0.0382,68,2019-08-07 16:23:07:720
4.7072,-8.2352,2.4161,-0.2569,-0.1972,-7.0E-4,0.0272,-0.0486,-0.0382,72,2019-08-07 16:23:07:724
4.7072,-8.2352,2.4161,-0.2569,-0.1972,-7.0E-4,0.024,-0.0571,-0.034,78,2019-08-07 16:23:07:730
4.7263,-8.2352,2.2322,-0.2569,-0.1972,-7.0E-4,0.024,-0.0571,-0.034,83,2019-08-07 16:23:07:735
4.7263,-8.2352,2.2322,-0.2991,-0.1678,0.0695,0.0261,-0.0518,-0.0308,87,2019-08-07 16:23:07:739
4.7263,-8.2352,2.2322,-0.2991,-0.1678,0.0695,0.0261,-0.0518,-0.0308,93,2019-08-07 16:23:07:745
4.7072,-8.2352,2.2087,-0.2991,-0.1678,0.0695,0.0283,-0.0432,-0.0255,97,2019-08-07 16:23:07:749
4.7072,-8.2352,2.2087,-0.1039,-0.1154,0.0416,0.0283,-0.0432,-0.0255,103,2019-08-07 16:23:07:755
4.602,-8.2687,2.303,-0.1039,-0.1154,0.0416,0.0378,-0.0262,-0.0244,108,2019-08-07 16:23:07:760
4.602,-8.2687,2.303,-0.1039,-0.1154,0.0416,0.0378,-0.0262,-0.0244,113,2019-08-07 16:23:07:765
4.602,-8.2687,2.303,-0.1039,-0.1154,0.0416,0.04,-0.0326,-0.0297,118,2019-08-07 16:23:07:770
4.5637,-8.2352,2.1993,-0.1039,-0.1154,0.0416,0.04,-0.0326,-0.0297,123,2019-08-07 16:23:07:775
4.5637,-8.2352,2.1993,-0.0773,-0.1629,0.0501,0.0325,-0.0422,-0.034,128,2019-08-07 16:23:07:780
4.5637,-8.2734,2.3077,-0.0773,-0.1629,0.0501,0.0325,-0.0422,-0.034,133,2019-08-07 16:23:07:785
4.5637,-8.2734,2.3077,-0.0773,-0.1629,0.0501,0.0272,-0.055,-0.0372,138,2019-08-07 16:23:07:790
4.5637,-8.2734,2.3077,-0.0773,-0.1629,0.0501,0.0272,-0.055,-0.0372,142,2019-08-07 16:23:07:794
4.6116,-8.2591,2.3548,-0.111,-0.1482,-0.0529,0.0219,-0.0635,-0.0318,148,2019-08-07 16:23:07:800
4.6116,-8.2591,2.3548,-0.111,-0.1482,-0.0529,0.0219,-0.0635,-0.0318,153,2019-08-07 16:23:07:805
4.7886,-8.2639,2.2747,-0.111,-0.1482,-0.0529,0.0208,-0.0709,-0.0244,158,2019-08-07 16:23:07:810
4.7886,-8.2639,2.2747,-0.111,-0.1482,-0.0529,0.0208,-0.0709,-0.0244,163,2019-08-07 16:23:07:815
4.7886,-8.2639,2.2747,-0.3355,-0.1436,0.0292,0.0144,-0.0603,-0.0223,167,2019-08-07 16:23:07:819
4.8556,-8.24,2.2417,-0.3355,-0.1436,0.0292,0.0144,-0.0603,-0.0223,173,2019-08-07 16:23:07:825
4.8556,-8.24,2.2417,-0.3072,-0.1416,-0.0053,0.0144,-0.0603,-0.0223,177,2019-08-07 16:23:07:829
4.8077,-8.2496,2.3642,-0.3072,-0.1416,-0.0053,0.0144,-0.0432,-0.0159,184,2019-08-07 16:23:07:836
4.8077,-8.2496,2.3642,-0.3072,-0.1416,-0.0053,0.0144,-0.0432,-0.0159,188,2019-08-07 16:23:07:840
4.8077,-8.2496,2.3642,-0.3072,-0.1416,-0.0053,0.0144,-0.0358,-0.0052,192,2019-08-07 16:23:07:844
4.8508,-8.3403,2.336,-0.3301,-0.0577,-0.0394,0.0144,-0.0358,-0.0052,198,2019-08-07 16:23:07:850
4.8508,-8.3403,2.336,-0.3301,-0.0577,-0.0394,0.0123,-0.0464,-0.0031,203,2019-08-07 16:23:07:855
4.8508,-8.3403,2.336,-0.3301,-0.0577,-0.0394,0.0123,-0.0464,-0.0031,208,2019-08-07 16:23:07:860
4.7886,-8.2496,2.4114,-0.3301,-0.0577,-0.0394,0.0155,-0.0475,-0.0073,213,2019-08-07 16:23:07:865
4.7886,-8.2496,2.4114,-0.2056,-0.146,-0.064,0.0155,-0.0475,-0.0073,218,2019-08-07 16:23:07:870
4.7886,-8.2496,2.4114,-0.2056,-0.146,-0.064,0.0155,-0.0475,-0.0073,223,2019-08-07 16:23:07:875
4.7743,-8.2782,2.336,-0.2056,-0.146,-0.064,0.0123,-0.0507,-0.002,228,2019-08-07 16:23:07:880
4.7743,-8.2782,2.336,-0.2056,-0.146,-0.064,0.0144,-0.04,-0.0105,233,2019-08-07 16:23:07:885
4.7408,-8.2782,2.3501,-0.2105,-0.1153,-0.0563,0.0144,-0.04,-0.0105,238,2019-08-07 16:23:07:890
4.7408,-8.2782,2.3501,-0.2105,-0.1153,-0.0563,0.0144,-0.04,-0.0105,242,2019-08-07 16:23:07:894
4.7312,-8.2543,2.3784,-0.2105,-0.1153,-0.0563,0.0197,-0.039,-0.0137,248,2019-08-07 16:23:07:900
4.7312,-8.2543,2.3784,-0.2105,-0.1153,-0.0563,0.0261,-0.0283,-0.018,253,2019-08-07 16:23:07:905
4.7312,-8.2543,2.3784,-0.1859,-0.1264,-0.0648,0.0261,-0.0283,-0.018,257,2019-08-07 16:23:07:909
4.7265,-8.2878,2.3407,-0.1859,-0.1264,-0.0648,0.0261,-0.0283,-0.018,263,2019-08-07 16:23:07:915
4.7265,-8.2878,2.3407,-0.1859,-0.1264,-0.0648,0.0283,-0.0337,-0.0244,267,2019-08-07 16:23:07:919
4.7265,-8.2878,2.3407,-0.1859,-0.1264,-0.0648,0.0283,-0.0337,-0.0244,273,2019-08-07 16:23:07:925
4.7456,-8.1971,2.3643,-0.2076,-0.1746,-0.0535,0.0272,-0.0518,-0.0191,278,2019-08-07 16:23:07:930
4.7456,-8.1971,2.3643,-0.2076,-0.1746,-0.0535,0.0272,-0.0518,-0.0191,283,2019-08-07 16:23:07:935
4.7217,-8.2496,2.4632,-0.2076,-0.1746,-0.0535,0.0304,-0.0603,-0.0127,288,2019-08-07 16:23:07:940
4.7217,-8.2496,2.4632,-0.2076,-0.1746,-0.0535,0.0304,-0.0603,-0.0127,294,2019-08-07 16:23:07:946
4.7217,-8.2496,2.4632,-0.2436,-0.1802,-0.072,0.0314,-0.0827,-0.0084,297,2019-08-07 16:23:07:949
4.87,-8.2066,2.4114,-0.2436,-0.1802,-0.072,0.0314,-0.0827,-0.0084,303,2019-08-07 16:23:07:955
4.87,-8.2066,2.4114,-0.2436,-0.1802,-0.072,0.0314,-0.0827,-0.0084,307,2019-08-07 16:23:07:959
4.8557,-8.1636,2.4161,-0.2436,-0.1802,-0.072,0.0314,-0.072,-0.0073,313,2019-08-07 16:23:07:965
4.8557,-8.1636,2.4161,-0.3607,-0.2003,-0.1198,0.0314,-0.072,-0.0073,318,2019-08-07 16:23:07:970
4.8557,-8.1636,2.4161,-0.3607,-0.2003,-0.1198,0.0261,-0.0475,-0.002,322,2019-08-07 16:23:07:974
4.8844,-8.1636,2.3643,-0.3607,-0.2003,-0.1198,0.0261,-0.0475,-0.002,328,2019-08-07 16:23:07:980
4.8844,-8.1636,2.3643,-0.3607,-0.2003,-0.1198,0.0123,-0.0198,-0.0063,333,2019-08-07 16:23:07:985
4.7409,-8.1923,2.3925,-0.1789,-0.183,-0.095,0.0123,-0.0198,-0.0063,337,2019-08-07 16:23:07:989
4.7409,-8.1923,2.3925,-0.1789,-0.183,-0.095,0.0101,-0.0123,-0.0105,343,2019-08-07 16:23:07:995
4.7409,-8.1923,2.3925,-0.1789,-0.183,-0.095,0.0101,-0.0123,-0.0105,348,2019-08-07 16:23:08:000
4.6978,-8.2066,2.3737,-0.1789,-0.183,-0.095,0.0038,4.0E-4,-0.0116,353,2019-08-07 16:23:08:005
4.6978,-8.2066,2.3737,-0.1224,-0.1852,-0.1073,0.0038,4.0E-4,-0.0116,357,2019-08-07 16:23:08:009
4.6548,-8.2257,2.4774,-0.1224,-0.1852,-0.1073,-0.0026,0.0026,-0.0191,363,2019-08-07 16:23:08:015
4.6548,-8.2257,2.4774,-0.1224,-0.1852,-0.1073,-0.0026,0.0026,-0.0191,367,2019-08-07 16:23:08:019
4.6548,-8.2257,2.4774,-0.1224,-0.1852,-0.1073,-0.0016,-0.006,-0.0223,373,2019-08-07 16:23:08:025
4.6739,-8.2257,2.4303,-0.151,-0.1584,-0.1726,-0.0016,-0.006,-0.0223,377,2019-08-07 16:23:08:029
4.6739,-8.2257,2.4303,-0.151,-0.1584,-0.1726,-0.0037,-0.0273,-0.0212,383,2019-08-07 16:23:08:035
4.6739,-8.2257,2.4303,-0.151,-0.1584,-0.1726,-0.0037,-0.0273,-0.0212,388,2019-08-07 16:23:08:040
4.7505,-8.178,2.4303,-0.1765,-0.1904,-0.1314,-0.0037,-0.0273,-0.0212,392,2019-08-07 16:23:08:044
4.7505,-8.178,2.4303,-0.1765,-0.1904,-0.1314,-0.0069,-0.0347,-0.0265,398,2019-08-07 16:23:08:050
4.7696,-8.2018,2.3501,-0.1765,-0.1904,-0.1314,-0.0122,-0.0422,-0.0191,403,2019-08-07 16:23:08:055
4.7696,-8.2018,2.3501,-0.1765,-0.1904,-0.1314,-0.0122,-0.0422,-0.0191,408,2019-08-07 16:23:08:060
4.7696,-8.2018,2.3501,-0.2359,-0.1684,-0.0369,-0.0122,-0.0422,-0.0191,412,2019-08-07 16:23:08:064
4.8653,-8.1923,2.4161,-0.2359,-0.1684,-0.0369,-0.0144,-0.04,-0.0201,418,2019-08-07 16:23:08:070
4.8653,-8.1923,2.4161,-0.2359,-0.1684,-0.0369,-0.0101,-0.0496,-0.0201,423,2019-08-07 16:23:08:075
4.8653,-8.1923,2.4161,-0.2359,-0.1684,-0.0369,-0.0101,-0.0496,-0.0201,427,2019-08-07 16:23:08:079
4.851,-8.2066,2.204,-0.2618,-0.1563,0.0845,-0.0101,-0.0496,-0.0201,433,2019-08-07 16:23:08:085
4.851,-8.2066,2.204,-0.2618,-0.1563,0.0845,-0.0069,-0.023,-0.0191,438,2019-08-07 16:23:08:090
4.8031,-8.2734,2.2653,-0.2618,-0.1563,0.0845,-0.0016,-0.0134,-0.018,444,2019-08-07 16:23:08:096
4.8031,-8.2734,2.2653,-0.2618,-0.1563,0.0845,-0.0016,-0.0134,-0.018,448,2019-08-07 16:23:08:100
4.8031,-8.2734,2.2653,-0.1077,-0.0489,-0.0125,-0.0016,-0.0134,-0.018,452,2019-08-07 16:23:08:104
4.6213,-8.2878,2.3313,-0.1077,-0.0489,-0.0125,0.0133,-0.0134,-0.0297,458,2019-08-07 16:23:08:110
4.6213,-8.2878,2.3313,-0.1077,-0.0489,-0.0125,0.0133,-0.0134,-0.0297,463,2019-08-07 16:23:08:115
4.6261,-8.2734,2.3124,-0.1077,-0.0489,-0.0125,0.0219,-0.0294,-0.0393,468,2019-08-07 16:23:08:120
4.6261,-8.2734,2.3124,0.0092,-0.1115,-0.0865,0.0219,-0.0294,-0.0393,472,2019-08-07 16:23:08:124
4.6261,-8.2734,2.3124,0.0092,-0.1115,-0.0865,0.0283,-0.0582,-0.0489,478,2019-08-07 16:23:08:130
4.6788,-8.2162,2.2559,0.0092,-0.1115,-0.0865,0.0283,-0.0582,-0.0489,483,2019-08-07 16:23:08:135
4.6788,-8.2162,2.2559,0.0092,-0.1115,-0.0865,0.0293,-0.0624,-0.0595,488,2019-08-07 16:23:08:140
4.7266,-8.2066,2.1757,-0.1263,-0.1571,0.059,0.0293,-0.0624,-0.0595,493,2019-08-07 16:23:08:145
4.7266,-8.2066,2.1757,-0.1263,-0.1571,0.059,0.0293,-0.0539,-0.0681,498,2019-08-07 16:23:08:150
4.7266,-8.2066,2.1757,-0.1263,-0.1571,0.059,0.0293,-0.0539,-0.0681,503,2019-08-07 16:23:08:155
4.7697,-8.1732,2.336,-0.1263,-0.1571,0.059,0.0304,-0.0283,-0.0904,508,2019-08-07 16:23:08:160
4.7697,-8.1732,2.336,-0.0387,-0.172,-0.0063,0.0304,-0.0283,-0.0904,513,2019-08-07 16:23:08:165
4.54,-8.0873,2.27,-0.0387,-0.172,-0.0063,0.0368,-0.0123,-0.1096,518,2019-08-07 16:23:08:170
4.54,-8.0873,2.27,-0.0387,-0.172,-0.0063,0.0368,-0.0123,-0.1096,522,2019-08-07 16:23:08:174
4.54,-8.0873,2.27,-0.0387,-0.172,-0.0063,0.0368,-0.0123,-0.1096,528,2019-08-07 16:23:08:180
4.4491,-8.135,2.2606,0.2009,-0.1931,0.032,0.0357,-0.0038,-0.1384,532,2019-08-07 16:23:08:184
4.4491,-8.135,2.2606,0.2009,-0.1931,0.032,0.0357,-0.0038,-0.1384,538,2019-08-07 16:23:08:190
4.2913,-8.1493,2.1616,0.2009,-0.1931,0.032,0.0304,-0.0049,-0.1629,544,2019-08-07 16:23:08:196
4.2913,-8.1493,2.1616,0.2009,-0.1931,0.032,0.0304,-0.0049,-0.1629,548,2019-08-07 16:23:08:200
4.2913,-8.1493,2.1616,0.4469,-0.0867,0.1681,0.0229,-0.0123,-0.2023,553,2019-08-07 16:23:08:205
4.21,-8.2448,2.0485,0.4469,-0.0867,0.1681,0.0229,-0.0123,-0.2023,558,2019-08-07 16:23:08:210
4.21,-8.2448,2.0485,0.4469,-0.0867,0.1681,0.0112,-0.0443,-0.247,563,2019-08-07 16:23:08:215
4.1573,-8.4453,1.8835,0.4469,-0.0867,0.1681,0.0112,-0.0443,-0.247,568,2019-08-07 16:23:08:220
4.1573,-8.4453,1.8835,0.5581,0.159,0.4286,0.0133,-0.0656,-0.3099,573,2019-08-07 16:23:08:225
4.1573,-8.4453,1.8835,0.5581,0.159,0.4286,0.0133,-0.0656,-0.3099,578,2019-08-07 16:23:08:230
4.0951,-8.6076,1.8552,0.5581,0.159,0.4286,0.0336,-0.0656,-0.3568,583,2019-08-07 16:23:08:235
4.0951,-8.6076,1.8552,0.5581,0.159,0.4286,0.0336,-0.0656,-0.3568,587,2019-08-07 16:23:08:239
4.0951,-8.6076,1.8552,0.8142,0.4564,0.5737,0.0336,-0.0656,-0.3568,593,2019-08-07 16:23:08:245
3.8177,-8.6601,1.7468,0.8142,0.4564,0.5737,0.0677,-0.0656,-0.4026,598,2019-08-07 16:23:08:250
3.8177,-8.6601,1.7468,0.8142,0.4564,0.5737,0.0677,-0.0656,-0.4026,602,2019-08-07 16:23:08:254
3.8177,-8.6601,1.7468,0.8142,0.4564,0.5737,0.1156,-0.0869,-0.4484,608,2019-08-07 16:23:08:260
3.4493,-8.5742,1.7845,1.4846,0.3348,0.4701,0.1156,-0.0869,-0.4484,612,2019-08-07 16:23:08:264
3.4493,-8.5742,1.7845,1.4846,0.3348,0.4701,0.1742,-0.1263,-0.5038,618,2019-08-07 16:23:08:270
3.0474,-8.536,1.7892,1.4846,0.3348,0.4701,0.1742,-0.1263,-0.5038,622,2019-08-07 16:23:08:274
3.0474,-8.536,1.7892,1.4846,0.3348,0.4701,0.2424,-0.1807,-0.5879,629,2019-08-07 16:23:08:281
3.0474,-8.536,1.7892,2.3107,0.2992,0.548,0.2424,-0.1807,-0.5879,633,2019-08-07 16:23:08:285
2.502,-8.4167,1.8222,2.3107,0.2992,0.548,0.2424,-0.1807,-0.5879,637,2019-08-07 16:23:08:289
2.502,-8.4167,1.8222,2.3107,0.2992,0.548,0.3084,-0.2435,-0.6934,643,2019-08-07 16:23:08:295
1.8705,-8.4501,1.6997,2.3107,0.2992,0.548,0.3638,-0.2776,-0.802,648,2019-08-07 16:23:08:300
1.8705,-8.4501,1.6997,3.319,0.454,0.7279,0.3638,-0.2776,-0.802,653,2019-08-07 16:23:08:305
1.8705,-8.4501,1.6997,3.319,0.454,0.7279,0.3638,-0.2776,-0.802,658,2019-08-07 16:23:08:310
1.5356,-8.7079,1.4545,3.319,0.454,0.7279,0.4086,-0.2574,-0.9363,663,2019-08-07 16:23:08:315
1.5356,-8.7079,1.4545,3.319,0.454,0.7279,0.4086,-0.2574,-0.9363,667,2019-08-07 16:23:08:319
1.3778,-9.0802,1.4593,3.7983,1.0917,0.9131,0.497,-0.1988,-1.1269,673,2019-08-07 16:23:08:325
1.3778,-9.0802,1.4593,3.7983,1.0917,0.9131,0.497,-0.1988,-1.1269,678,2019-08-07 16:23:08:330
1.8753,-9.6197,0.4882,3.7983,1.0917,0.9131,0.6269,-0.0262,-1.3485,684,2019-08-07 16:23:08:336
1.8753,-9.6197,0.4882,3.7983,1.0917,0.9131,0.6269,-0.0262,-1.3485,687,2019-08-07 16:23:08:339
1.8753,-9.6197,0.4882,3.2643,2.1029,2.3383,0.7675,0.3466,-1.6542,693,2019-08-07 16:23:08:345
2.0284,-10.0255,-0.1859,3.2643,2.1029,2.3383,0.7675,0.3466,-1.6542,698,2019-08-07 16:23:08:350
2.0284,-10.0255,-0.1859,3.2643,2.1029,2.3383,0.938,0.9805,-2.0037,703,2019-08-07 16:23:08:355
2.0284,-10.0255,-0.1859,3.2643,2.1029,2.3383,0.938,0.9805,-2.0037,708,2019-08-07 16:23:08:360
1.0477,-10.5697,-1.4397,4.9925,3.1256,4.3428,1.1468,1.9552,-2.3893,713,2019-08-07 16:23:08:365
1.0477,-10.5697,-1.4397,4.9925,3.1256,4.3428,1.1468,1.9552,-2.3893,718,2019-08-07 16:23:08:370
-1.8468,-11.2953,-2.1185,4.9925,3.1256,4.3428,1.4163,3.2719,-2.8324,723,2019-08-07 16:23:08:375
-1.8468,-11.2953,-2.1185,4.9925,3.1256,4.3428,1.4163,3.2719,-2.8324,727,2019-08-07 16:23:08:379
-1.8468,-11.2953,-2.1185,10.3808,5.3147,6.3291,1.6869,4.1763,-3.1222,733,2019-08-07 16:23:08:385
-5.2292,-12.8563,-3.5327,10.3808,5.3147,6.3291,1.6869,4.1763,-3.1222,737,2019-08-07 16:23:08:389
-5.2292,-12.8563,-3.5327,10.3808,5.3147,6.3291,1.9947,4.8602,-3.3523,743,2019-08-07 16:23:08:395
-8.1189,-14.9759,-5.7387,10.3808,5.3147,6.3291,1.9947,4.8602,-3.3523,748,2019-08-07 16:23:08:400
-8.1189,-14.9759,-5.7387,16.2923,9.8963,13.116,2.3516,5.494,-3.5238,753,2019-08-07 16:23:08:405
-8.1189,-14.9759,-5.7387,16.2923,9.8963,13.116,2.3516,5.494,-3.5238,757,2019-08-07 16:23:08:409
-12.2381,-17.6349,-10.7778,16.2923,9.8963,13.116,2.8065,6.6956,-3.642,763,2019-08-07 16:23:08:415
-12.2381,-17.6349,-10.7778,16.2923,9.8963,13.116,2.8065,6.6956,-3.642,768,2019-08-07 16:23:08:420
-15.6301,-21.0243,-12.1165,22.0718,15.4993,17.6169,2.8065,6.6956,-3.642,773,2019-08-07 16:23:08:425
-15.6301,-21.0243,-12.1165,22.0718,15.4993,17.6169,3.7663,8.0581,-3.7368,777,2019-08-07 16:23:08:429
-19.5628,-24.3994,-13.2337,22.0718,15.4993,17.6169,3.7663,8.0581,-3.7368,783,2019-08-07 16:23:08:435
-19.5628,-24.3994,-13.2337,22.0718,15.4993,17.6169,4.905,8.6046,-3.7645,788,2019-08-07 16:23:08:440
-19.5628,-24.3994,-13.2337,22.0718,15.4993,17.6169,4.905,8.6046,-3.7645,793,2019-08-07 16:23:08:445
-20.6584,-27.1826,-8.6613,26.0414,21.6219,17.3191,6.3815,8.1209,-3.9201,798,2019-08-07 16:23:08:450
-20.6584,-27.1826,-8.6613,26.0414,21.6219,17.3191,6.3815,8.1209,-3.9201,803,2019-08-07 16:23:08:455
-20.6584,-27.1826,-8.6613,26.0414,21.6219,17.3191,6.3815,8.1209,-3.9201,808,2019-08-07 16:23:08:460
-15.9985,-27.2685,1.101,26.0414,21.6219,17.3191,8.6846,4.4969,-4.5219,813,2019-08-07 16:23:08:465
-15.9985,-27.2685,1.101,18.954,22.7746,8.0768,8.6846,4.4969,-4.5219,818,2019-08-07 16:23:08:470
-12.9414,-24.3183,-5.998,18.954,22.7746,8.0768,10.3475,0.0825,-5.5414,823,2019-08-07 16:23:08:475
-12.9414,-24.3183,-5.998,18.954,22.7746,8.0768,10.3475,0.0825,-5.5414,827,2019-08-07 16:23:08:479
-12.9414,-24.3183,-5.998,18.954,22.7746,8.0768,10.78,-1.1224,-6.5438,833,2019-08-07 16:23:08:485
-9.0661,-16.938,-11.3576,13.8072,15.3731,19.802,10.78,-1.1224,-6.5438,838,2019-08-07 16:23:08:490
-9.0661,-16.938,-11.3576,13.8072,15.3731,19.802,11.0164,-0.5684,-7.6432,843,2019-08-07 16:23:08:495
-5.3583,-10.4503,-15.8404,13.8072,15.3731,19.802,11.0164,-0.5684,-7.6432,848,2019-08-07 16:23:08:500
-5.3583,-10.4503,-15.8404,13.8072,15.3731,19.802,11.7962,2.7094,-8.6541,853,2019-08-07 16:23:08:505
-5.3583,-10.4503,-15.8404,8.3593,5.906,23.1322,11.7962,2.7094,-8.6541,857,2019-08-07 16:23:08:509
-4.655,-0.4921,-13.3845,8.3593,5.906,23.1322,12.9531,4.499,-9.0855,863,2019-08-07 16:23:08:515
-4.655,-0.4921,-13.3845,8.3593,5.906,23.1322,12.9531,4.499,-9.0855,868,2019-08-07 16:23:08:520
-24.0312,155.0151,98.427,8.3593,5.906,23.1322,18.9601,0.8495,-7.2629,872,2019-08-07 16:23:08:524
-24.0312,155.0151,98.427,26.5351,-152.7895,-49.5159,18.9601,0.8495,-7.2629,878,2019-08-07 16:23:08:530
-24.0312,155.0151,98.427,26.5351,-152.7895,-49.5159,18.9601,0.8495,-7.2629,883,2019-08-07 16:23:08:535
-14.5728,93.6476,-28.7515,26.5351,-152.7895,-49.5159,17.1737,-3.4148,-7.7603,887,2019-08-07 16:23:08:539
-14.5728,93.6476,-28.7515,26.5351,-152.7895,-49.5159,17.1737,-3.4148,-7.7603,894,2019-08-07 16:23:08:546
-8.4585,58.0397,-74.2445,11.9512,-43.5993,85.5265,8.1882,-4.9967,-6.2658,898,2019-08-07 16:23:08:550
-8.4585,58.0397,-74.2445,11.9512,-43.5993,85.5265,8.1882,-4.9967,-6.2658,903,2019-08-07 16:23:08:555
-8.4585,58.0397,-74.2445,11.9512,-43.5993,85.5265,-1.2373,-10.3529,-1.3719,908,2019-08-07 16:23:08:560
10.0948,56.4882,-33.4229,11.9512,-43.5993,85.5265,-1.2373,-10.3529,-1.3719,913,2019-08-07 16:23:08:565
10.0948,56.4882,-33.4229,-9.9275,-31.6016,11.8335,-7.2113,-13.146,2.4257,918,2019-08-07 16:23:08:570
10.0948,56.4882,-33.4229,-9.9275,-31.6016,11.8335,-7.2113,-13.146,2.4257,923,2019-08-07 16:23:08:575
30.2365,7.5517,-3.971,-9.9275,-31.6016,11.8335,-9.1692,1.3405,4.3996,927,2019-08-07 16:23:08:579
30.2365,7.5517,-3.971,-9.9275,-31.6016,11.8335,-9.1692,1.3405,4.3996,933,2019-08-07 16:23:08:585
30.2365,7.5517,-3.971,-33.9723,11.8993,-60.5856,-4.1934,-7.2668,2.1786,938,2019-08-07 16:23:08:590
23.7777,1.0259,13.7482,-33.9723,11.8993,-60.5856,-4.1934,-7.2668,2.1786,944,2019-08-07 16:23:08:596
23.7777,1.0259,13.7482,-33.9723,11.8993,-60.5856,-0.7174,-1.9011,2.3948,949,2019-08-07 16:23:08:601
4.8457,14.7269,-11.2776,-33.9723,11.8993,-60.5856,-0.7174,-1.9011,2.3948,954,2019-08-07 16:23:08:606
4.8457,14.7269,-11.2776,3.6838,-11.7412,18.4205,-0.7174,-1.9011,2.3948,958,2019-08-07 16:23:08:610
4.8457,14.7269,-11.2776,3.6838,-11.7412,18.4205,1.1212,5.5835,4.5829,963,2019-08-07 16:23:08:615
-0.0678,26.5325,22.9824,3.6838,-11.7412,18.4205,1.1212,5.5835,4.5829,968,2019-08-07 16:23:08:620
-0.0678,26.5325,22.9824,3.6838,-11.7412,18.4205,-0.3819,5.9009,7.3781,973,2019-08-07 16:23:08:625
-0.0678,26.5325,22.9824,-1.0752,-27.3172,-1.4435,-0.3819,5.9009,7.3781,977,2019-08-07 16:23:08:629
7.9219,33.4498,4.5184,-1.0752,-27.3172,-1.4435,-2.5326,-1.6252,7.5571,983,2019-08-07 16:23:08:635
7.9219,33.4498,4.5184,-1.0752,-27.3172,-1.4435,-2.5326,-1.6252,7.5571,988,2019-08-07 16:23:08:640
11.5962,29.8074,-7.681,-1.0752,-27.3172,-1.4435,-3.9963,-2.3975,5.6428,992,2019-08-07 16:23:08:644
11.5962,29.8074,-7.681,-3.9578,-22.0776,12.8275,-3.9963,-2.3975,5.6428,999,2019-08-07 16:23:08:651
11.5962,29.8074,-7.681,-3.9578,-22.0776,12.8275,-3.9963,-2.3975,5.6428,1003,2019-08-07 16:23:08:655
4.1854,22.0356,7.8982,-3.9578,-22.0776,12.8275,-5.8712,-2.8193,5.0345,1008,2019-08-07 16:23:08:660
4.1854,22.0356,7.8982,-3.9578,-22.0776,12.8275,-6.6957,-4.8955,6.1105,1013,2019-08-07 16:23:08:665
4.1854,22.0356,7.8982,2.7859,-11.9884,-0.4534,-6.6957,-4.8955,6.1105,1018,2019-08-07 16:23:08:670
6.6971,12.3447,7.3514,2.7859,-11.9884,-0.4534,-6.6957,-4.8955,6.1105,1023,2019-08-07 16:23:08:675
6.6971,12.3447,7.3514,2.7859,-11.9884,-0.4534,-5.8648,-3.4723,7.4942,1027,2019-08-07 16:23:08:679
18.5381,1.3649,12.3103,2.7859,-11.9884,-0.4534,-5.8648,-3.4723,7.4942,1033,2019-08-07 16:23:08:685
18.5381,1.3649,12.3103,-11.8769,2.6907,-1.0157,-3.779,-3.2156,6.4758,1037,2019-08-07 16:23:08:689
18.5381,1.3649,12.3103,-11.8769,2.6907,-1.0157,-3.779,-3.2156,6.4758,1044,2019-08-07 16:23:08:696
18.4711,-3.6571,2.7884,-11.8769,2.6907,-1.0157,-3.8227,-1.2598,5.4276,1049,2019-08-07 16:23:08:701
18.4711,-3.6571,2.7884,-11.8769,2.6907,-1.0157,-3.8227,-1.2598,5.4276,1052,2019-08-07 16:23:08:704
11.7302,-4.1631,2.5999,-3.7645,3.6018,3.0983,-4.5172,0.3466,4.6713,1058,2019-08-07 16:23:08:710
11.7302,-4.1631,2.5999,-3.7645,3.6018,3.0983,-4.5172,0.3466,4.6713,1062,2019-08-07 16:23:08:714
11.7302,-4.1631,2.5999,-3.7645,3.6018,3.0983,-4.9508,0.8921,4.4188,1068,2019-08-07 16:23:08:720
4.0467,-2.7835,12.0699,-3.7645,3.6018,3.0983,-4.9508,0.8921,4.4188,1072,2019-08-07 16:23:08:724
4.0467,-2.7835,12.0699,6.9231,0.8738,-4.849,-4.4352,0.5959,4.6574,1078,2019-08-07 16:23:08:730
4.0467,-2.7835,12.0699,6.9231,0.8738,-4.849,-4.4352,0.5959,4.6574,1082,2019-08-07 16:23:08:734
-0.2257,-3.1511,8.4403,6.9231,0.8738,-4.849,-3.975,0.548,4.9909,1088,2019-08-07 16:23:08:740
-0.2257,-3.1511,8.4403,6.9231,0.8738,-4.849,-3.975,0.548,4.9909,1093,2019-08-07 16:23:08:745
-0.4075,-4.6501,5.3197,6.9231,0.8738,-4.849,-3.975,0.548,4.9909,1099,2019-08-07 16:23:08:751
-0.4075,-4.6501,5.3197,7.8161,1.7161,0.7162,-4.0538,0.156,5.0835,1102,2019-08-07 16:23:08:754
-0.4075,-4.6501,5.3197,7.8161,1.7161,0.7162,-4.0538,0.156,5.0835,1108,2019-08-07 16:23:08:760
-0.4266,-5.347,4.0706,7.6431,1.61,1.4243,-4.2957,-0.3937,4.9834,1113,2019-08-07 16:23:08:765
-0.4266,-5.347,4.0706,7.6431,1.61,1.4243,-4.2957,-0.3937,4.9834,1119,2019-08-07 16:23:08:771
-0.4266,-5.347,4.0706,7.6431,1.61,1.4243,-4.3574,-0.8592,4.8013,1123,2019-08-07 16:23:08:775
-0.4649,-5.8626,3.8349,7.6431,1.61,1.4243,-4.3574,-0.8592,4.8013,1128,2019-08-07 16:23:08:780
-0.4649,-5.8626,3.8349,7.1656,1.1785,1.6832,-4.1316,-1.0243,4.65,1133,2019-08-07 16:23:08:785
-0.0247,-6.5787,2.449,7.1656,1.1785,1.6832,-4.1316,-1.0243,4.65,1138,2019-08-07 16:23:08:790
-0.0247,-6.5787,2.449,7.1656,1.1785,1.6832,-4.1316,-1.0243,4.65,1143,2019-08-07 16:23:08:795
-0.0247,-6.5787,2.449,7.1656,1.1785,1.6832,-3.8056,-1.0403,4.4977,1147,2019-08-07 16:23:08:799
-0.2974,-7.1611,1.6335,6.6799,1.1898,2.8211,-3.8056,-1.0403,4.4977,1153,2019-08-07 16:23:08:805
-0.2974,-7.1611,1.6335,6.6799,1.1898,2.8211,-3.2762,-0.9711,4.4028,1158,2019-08-07 16:23:08:810
-2.4982,-7.9201,0.4315,6.6799,1.1898,2.8211,-3.2762,-0.9711,4.4028,1163,2019-08-07 16:23:08:815
-2.4982,-7.9201,0.4315,6.6799,1.1898,2.8211,-3.0248,-0.8646,4.4625,1168,2019-08-07 16:23:08:820
-2.4982,-7.9201,0.4315,9.8935,1.5135,4.4742,-3.0248,-0.8646,4.4625,1173,2019-08-07 16:23:08:825
-4.5602,-8.5503,-1.4493,9.8935,1.5135,4.4742,-2.7308,-0.6206,4.6297,1178,2019-08-07 16:23:08:830
-4.5602,-8.5503,-1.4493,9.8935,1.5135,4.4742,-2.7308,-0.6206,4.6297,1183,2019-08-07 16:23:08:835
-4.5602,-8.5503,-1.4493,9.8935,1.5135,4.4742,-2.7308,-0.6206,4.6297,1187,2019-08-07 16:23:08:839
-4.7803,-10.2688,-2.1752,9.9295,2.6545,5.6022,-2.4155,-0.6057,4.7246,1193,2019-08-07 16:23:08:845
-4.7803,-10.2688,-2.1752,9.9295,2.6545,5.6022,-2.4155,-0.6057,4.7246,1198,2019-08-07 16:23:08:850
-4.7803,-10.2688,-2.1752,9.9295,2.6545,5.6022,-1.968,-0.9849,4.5935,1202,2019-08-07 16:23:08:854
-3.3785,-12.2404,-1.2749,9.9295,2.6545,5.6022,-1.968,-0.9849,4.5935,1208,2019-08-07 16:23:08:860
-3.3785,-12.2404,-1.2749,6.3481,4.4529,4.0321,-1.2447,-0.9562,4.1855,1213,2019-08-07 16:23:08:865
0.2623,-12.4027,-0.9732,6.3481,4.4529,4.0321,-1.2447,-0.9562,4.1855,1218,2019-08-07 16:23:08:870
0.2623,-12.4027,-0.9732,6.3481,4.4529,4.0321,-0.3712,-0.2968,3.4228,1222,2019-08-07 16:23:08:874
0.2623,-12.4027,-0.9732,6.3481,4.4529,4.0321,-0.3712,-0.2968,3.4228,1228,2019-08-07 16:23:08:880
0.0374,-9.0754,-1.7321,3.7831,0.5021,4.5848,0.2243,0.6236,2.6547,1233,2019-08-07 16:23:08:885
0.0374,-9.0754,-1.7321,3.7831,0.5021,4.5848,0.2243,0.6236,2.6547,1238,2019-08-07 16:23:08:890
0.0374,-9.0754,-1.7321,3.7831,0.5021,4.5848,0.2243,0.6236,2.6547,1242,2019-08-07 16:23:08:894
-2.9623,-5.4282,-0.9968,3.7831,0.5021,4.5848,0.4426,1.4567,2.2553,1248,2019-08-07 16:23:08:900
-2.9623,-5.4282,-0.9968,7.6593,-4.115,4.1959,0.4426,1.4567,2.2553,1253,2019-08-07 16:23:08:905
-4.9143,-4.6692,-1.5624,7.6593,-4.115,4.1959,0.0986,1.3586,2.0635,1258,2019-08-07 16:23:08:910
-4.9143,-4.6692,-1.5624,7.6593,-4.115,4.1959,0.0986,1.3586,2.0635,1262,2019-08-07 16:23:08:914
-4.8712,-5.9724,-1.8971,7.6593,-4.115,4.1959,-0.3243,0.6971,1.7674,1268,2019-08-07 16:23:08:920
-4.8712,-5.9724,-1.8971,7.3028,-2.3835,4.7397,-0.3243,0.6971,1.7674,1272,2019-08-07 16:23:08:924
-4.8712,-5.9724,-1.8971,7.3028,-2.3835,4.7397,-0.6343,-0.4598,1.2923,1278,2019-08-07 16:23:08:930
-1.7471,-8.2018,1.987,7.3028,-2.3835,4.7397,-0.6343,-0.4598,1.2923,1283,2019-08-07 16:23:08:935
-1.7471,-8.2018,1.987,7.3028,-2.3835,4.7397,-0.6343,-0.4598,1.2923,1288,2019-08-07 16:23:08:940
-1.7471,-8.2018,1.987,7.3028,-2.3835,4.7397,-0.4362,-1.9469,0.6297,1292,2019-08-07 16:23:08:944
-0.4027,-8.5932,1.8503,3.0378,-0.4192,0.9901,-0.4362,-1.9469,0.6297,1299,2019-08-07 16:23:08:951
-0.4027,-8.5932,1.8503,3.0378,-0.4192,0.9901,0.0528,-1.6752,0.2888,1304,2019-08-07 16:23:08:956
2.176,-7.2709,0.2194,3.0378,-0.4192,0.9901,0.0528,-1.6752,0.2888,1308,2019-08-07 16:23:08:960
2.176,-7.2709,0.2194,0.2764,-2.5102,3.4429,0.2701,-1.5218,0.1471,1313,2019-08-07 16:23:08:965
2.176,-7.2709,0.2194,0.2764,-2.5102,3.4429,0.2701,-1.5218,0.1471,1317,2019-08-07 16:23:08:969
2.8266,-5.5523,-0.9497,0.2764,-2.5102,3.4429,0.2072,-1.068,0.1567,1324,2019-08-07 16:23:08:976
2.8266,-5.5523,-0.9497,0.2764,-2.5102,3.4429,0.2072,-1.068,0.1567,1328,2019-08-07 16:23:08:980
3.4868,-5.2468,0.7945,-0.7569,-3.7822,1.9,0.2072,-1.068,0.1567,1334,2019-08-07 16:23:08:986
3.4868,-5.2468,0.7945,-0.7569,-3.7822,1.9,0.0932,-0.8976,0.0693,1337,2019-08-07 16:23:08:989
3.4868,-5.2468,0.7945,-0.7569,-3.7822,1.9,0.0932,-0.8976,0.0693,1343,2019-08-07 16:23:08:995
3.1854,-5.5332,1.7089,-0.4256,-3.4929,0.9648,-0.0815,-0.9125,-0.0979,1348,2019-08-07 16:23:09:000
3.1854,-5.5332,1.7089,-0.4256,-3.4929,0.9648,-0.0815,-0.9125,-0.0979,1353,2019-08-07 16:23:09:005
3.1185,-6.6264,2.4631,-0.4256,-3.4929,0.9648,-0.2871,-1.1181,-0.2034,1358,2019-08-07 16:23:09:010
3.1185,-6.6264,2.4631,-0.7486,-1.7709,0.2031,-0.2871,-1.1181,-0.2034,1362,2019-08-07 16:23:09:014
3.1185,-6.6264,2.4631,-0.7486,-1.7709,0.2031,-0.3403,-1.1362,-0.2545,1369,2019-08-07 16:23:09:021
4.4198,-8.0347,2.6093,-0.7486,-1.7709,0.2031,-0.3403,-1.1362,-0.2545,1372,2019-08-07 16:23:09:024
4.4198,-8.0347,2.6093,-0.7486,-1.7709,0.2031,-0.3403,-1.1362,-0.2545,1378,2019-08-07 16:23:09:030
5.2139,-8.7842,2.3641,-2.2412,-0.2332,0.1028,-0.2487,-0.9082,-0.3237,1383,2019-08-07 16:23:09:035
5.2139,-8.7842,2.3641,-2.2412,-0.2332,0.1028,-0.2487,-0.9082,-0.3237,1388,2019-08-07 16:23:09:040
5.2139,-8.7842,2.3641,-2.2412,-0.2332,0.1028,-0.2487,-0.9082,-0.3237,1393,2019-08-07 16:23:09:045
5.3048,-8.7555,2.2982,-2.2412,-0.2332,0.1028,-0.1731,-0.4747,-0.3578,1398,2019-08-07 16:23:09:050
5.3048,-8.7555,2.2982,-2.0016,-0.3831,0.0962,-0.1731,-0.4747,-0.3578,1403,2019-08-07 16:23:09:055
5.3048,-8.7555,2.2982,-2.0016,-0.3831,0.0962,-0.204,0.0122,-0.2918,1408,2019-08-07 16:23:09:060
4.7355,-8.3975,2.5621,-2.0016,-0.3831,0.0962,-0.204,0.0122,-0.2918,1413,2019-08-07 16:23:09:065
4.7355,-8.3975,2.5621,-2.0016,-0.3831,0.0962,-0.204,0.0122,-0.2918,1418,2019-08-07 16:23:09:070
4.7355,-8.3975,2.5621,-0.7437,-0.3953,-1.235,-0.2231,0.1879,-0.2428,1423,2019-08-07 16:23:09:075
3.8791,-8.5932,3.6039,-0.7437,-0.3953,-1.235,-0.2231,0.1879,-0.2428,1428,2019-08-07 16:23:09:080
3.8791,-8.5932,3.6039,-0.7437,-0.3953,-1.235,-0.2125,0.059,-0.2076,1433,2019-08-07 16:23:09:085
3.1089,-9.0467,4.245,-0.7437,-0.3953,-1.235,-0.2125,0.059,-0.2076,1438,2019-08-07 16:23:09:090
3.1089,-9.0467,4.245,-0.7437,-0.3953,-1.235,-0.2061,-0.4161,-0.1192,1443,2019-08-07 16:23:09:095
3.4486,-9.6053,3.8678,-0.1135,0.507,-1.6338,-0.2061,-0.4161,-0.1192,1448,2019-08-07 16:23:09:100
3.4486,-9.6053,3.8678,-0.1135,0.507,-1.6338,-0.2317,-0.7346,-0.0617,1453,2019-08-07 16:23:09:105
3.4486,-9.6053,3.8678,-0.1135,0.507,-1.6338,-0.2317,-0.7346,-0.0617,1458,2019-08-07 16:23:09:110
4.9317,-9.992,2.8308,-0.1135,0.507,-1.6338,-0.2285,-0.7836,-0.0372,1463,2019-08-07 16:23:09:115
4.9317,-9.992,2.8308,-1.9157,1.0332,-0.3311,-0.2285,-0.7836,-0.0372,1468,2019-08-07 16:23:09:120
4.9317,-9.992,2.8308,-1.9157,1.0332,-0.3311,-0.1667,-0.5322,-0.018,1473,2019-08-07 16:23:09:125
5.6015,-9.9729,2.152,-1.9157,1.0332,-0.3311,-0.1667,-0.5322,-0.018,1478,2019-08-07 16:23:09:130
5.6015,-9.9729,2.152,-1.9157,1.0332,-0.3311,-0.1038,-0.1956,0.0065,1483,2019-08-07 16:23:09:135
5.3287,-9.7819,2.0389,-2.2142,0.9066,0.0394,-0.1038,-0.1956,0.0065,1488,2019-08-07 16:23:09:140
5.3287,-9.7819,2.0389,-2.2142,0.9066,0.0394,-0.0687,0.1624,0.0246,1493,2019-08-07 16:23:09:145
5.3287,-9.7819,2.0389,-2.2142,0.9066,0.0394,-0.0687,0.1624,0.0246,1498,2019-08-07 16:23:09:150
4.702,-9.3045,2.4584,-2.2142,0.9066,0.0394,-0.058,0.3797,0.0065,1502,2019-08-07 16:23:09:154
4.702,-9.3045,2.4584,-1.0247,0.0891,-0.7025,-0.058,0.3797,0.0065,1508,2019-08-07 16:23:09:160
3.903,-8.8749,3.1891,-1.0247,0.0891,-0.7025,-0.0229,0.3765,-0.0212,1513,2019-08-07 16:23:09:165
3.903,-8.8749,3.1891,-0.2603,-0.2773,-1.1654,-0.0229,0.3765,-0.0212,1518,2019-08-07 16:23:09:170
3.903,-8.8749,3.1891,-0.2603,-0.2773,-1.1654,-0.0229,0.3765,-0.0212,1523,2019-08-07 16:23:09:175
3.2524,-8.5121,3.8066,-0.2603,-0.2773,-1.1654,0.0123,0.1954,-0.0201,1528,2019-08-07 16:23:09:180
3.2524,-8.5121,3.8066,-0.2603,-0.2773,-1.1654,0.0123,0.1954,-0.0201,1533,2019-08-07 16:23:09:185
3.4629,-8.3689,3.585,-0.0316,-0.6498,-1.4352,0.0165,-0.0454,0.015,1538,2019-08-07 16:23:09:190
3.4629,-8.3689,3.585,-0.0316,-0.6498,-1.4352,0.0165,-0.0454,0.015,1543,2019-08-07 16:23:09:195
4.0179,-8.4739,3.1231,-0.0316,-0.6498,-1.4352,0.0027,-0.1807,0.0395,1548,2019-08-07 16:23:09:200
4.0179,-8.4739,3.1231,-0.0316,-0.6498,-1.4352,0.0027,-0.1807,0.0395,1553,2019-08-07 16:23:09:205
4.0179,-8.4739,3.1231,-1.1447,-0.495,-0.6913,-0.0271,-0.1551,0.0267,1558,2019-08-07 16:23:09:210
4.5058,-8.4596,2.6847,-1.1447,-0.495,-0.6913,-0.0271,-0.1551,0.0267,1562,2019-08-07 16:23:09:214
4.5058,-8.4596,2.6847,-1.1447,-0.495,-0.6913,-0.0463,-0.0443,0.0299,1568,2019-08-07 16:23:09:220
4.7498,-8.6314,2.0672,-1.1447,-0.495,-0.6913,-0.0463,-0.0443,0.0299,1573,2019-08-07 16:23:09:225
4.7498,-8.6314,2.0672,-1.5135,-0.3035,0.1648,-0.0484,0.1219,0.0235,1578,2019-08-07 16:23:09:230
4.7498,-8.6314,2.0672,-1.5135,-0.3035,0.1648,-0.0484,0.1219,0.0235,1583,2019-08-07 16:23:09:235
4.5154,-8.7412,2.1662,-1.5135,-0.3035,0.1648,-0.0346,0.3062,0.014,1588,2019-08-07 16:23:09:240
4.5154,-8.7412,2.1662,-1.5135,-0.3035,0.1648,-0.0346,0.3062,0.014,1593,2019-08-07 16:23:09:245
4.0609,-8.6648,2.3924,-0.9119,-0.2552,-0.1447,6.0E-4,0.385,-0.002,1598,2019-08-07 16:23:09:250
4.0609,-8.6648,2.3924,-0.9119,-0.2552,-0.1447,6.0E-4,0.385,-0.002,1603,2019-08-07 16:23:09:255
4.0609,-8.6648,2.3924,-0.9119,-0.2552,-0.1447,6.0E-4,0.385,-0.002,1608,2019-08-07 16:23:09:260
3.5346,-8.4643,2.383,-0.9119,-0.2552,-0.1447,0.0219,0.3381,-0.0148,1613,2019-08-07 16:23:09:265
3.5346,-8.4643,2.383,-0.1423,-0.6007,-0.325,0.0219,0.3381,-0.0148,1618,2019-08-07 16:23:09:270
3.5346,-8.4643,2.383,-0.1423,-0.6007,-0.325,0.0155,0.1453,-0.001,1622,2019-08-07 16:23:09:274
3.3959,-8.302,2.6941,-0.1423,-0.6007,-0.325,0.0155,0.1453,-0.001,1628,2019-08-07 16:23:09:280
3.3959,-8.302,2.6941,-0.1423,-0.6007,-0.325,0.0144,-0.0773,0.0086,1633,2019-08-07 16:23:09:285
3.7164,-8.2161,2.4113,-0.4723,-0.7602,-0.1446,0.0144,-0.0773,0.0086,1638,2019-08-07 16:23:09:290
3.7164,-8.2161,2.4113,-0.4723,-0.7602,-0.1446,0.0144,-0.0773,0.0086,1643,2019-08-07 16:23:09:295
3.7164,-8.2161,2.4113,-0.4723,-0.7602,-0.1446,0.0133,-0.2329,0.0172,1648,2019-08-07 16:23:09:300
4.2618,-8.3211,2.1567,-0.4723,-0.7602,-0.1446,0.0133,-0.2329,0.0172,1652,2019-08-07 16:23:09:304
4.2618,-8.3211,2.1567,-1.2174,-0.6813,0.1729,-0.0016,-0.2073,0.0172,1658,2019-08-07 16:23:09:310
4.6015,-8.2495,1.9729,-1.2174,-0.6813,0.1729,-0.0016,-0.2073,0.0172,1663,2019-08-07 16:23:09:315
4.6015,-8.2495,1.9729,-1.2174,-0.6813,0.1729,-0.0218,-0.0763,0.0299,1669,2019-08-07 16:23:09:321
4.6781,-8.2638,1.8079,-1.2174,-0.6813,0.1729,-0.0218,-0.0763,0.0299,1672,2019-08-07 16:23:09:324
4.6781,-8.2638,1.8079,-1.353,-0.6801,0.4046,-0.0218,-0.0763,0.0299,1678,2019-08-07 16:23:09:330
4.6781,-8.2638,1.8079,-1.353,-0.6801,0.4046,-0.0325,0.0548,0.0363,1683,2019-08-07 16:23:09:335
4.4675,-8.4166,2.1096,-1.353,-0.6801,0.4046,-0.0325,0.0548,0.0363,1688,2019-08-07 16:23:09:340
4.4675,-8.4166,2.1096,-1.353,-0.6801,0.4046,-0.0325,0.0548,0.0363,1692,2019-08-07 16:23:09:344
4.1661,-8.4357,2.4396,-0.8955,-0.5368,-0.196,-0.0293,0.1943,0.0257,1698,2019-08-07 16:23:09:350
4.1661,-8.4357,2.4396,-0.8955,-0.5368,-0.196,-0.0314,0.2199,0.0012,1703,2019-08-07 16:23:09:355
4.1661,-8.4357,2.4396,-0.8955,-0.5368,-0.196,-0.0314,0.2199,0.0012,1708,2019-08-07 16:23:09:360
3.8169,-8.2447,2.5197,-0.8955,-0.5368,-0.196,-0.0314,0.2199,0.0012,1713,2019-08-07 16:23:09:365
3.8169,-8.2447,2.5197,-0.3595,-0.7505,-0.5762,-0.057,0.1996,-0.002,1717,2019-08-07 16:23:09:369
3.8169,-8.2447,2.5197,-0.3595,-0.7505,-0.5762,-0.057,0.1996,-0.002,1723,2019-08-07 16:23:09:375
3.5059,-8.2065,2.8874,-0.3595,-0.7505,-0.5762,-0.0879,0.1197,-0.001,1728,2019-08-07 16:23:09:380
3.5059,-8.2065,2.8874,-0.3595,-0.7505,-0.5762,-0.0879,0.1197,-0.001,1734,2019-08-07 16:23:09:386
3.5059,-8.2065,2.8874,-0.2739,-0.623,-0.5948,-0.1326,-0.039,-0.0116,1737,2019-08-07 16:23:09:389
3.5729,-8.3784,2.8308,-0.2739,-0.623,-0.5948,-0.1326,-0.039,-0.0116,1743,2019-08-07 16:23:09:395
3.5729,-8.3784,2.8308,-0.4888,-0.4429,-0.5795,-0.1433,-0.154,-0.0191,1749,2019-08-07 16:23:09:401
3.8312,-8.5789,2.7412,-0.4888,-0.4429,-0.5795,-0.1433,-0.154,-0.0191,1753,2019-08-07 16:23:09:405
3.8312,-8.5789,2.7412,-0.4888,-0.4429,-0.5795,-0.1433,-0.154,-0.0191,1758,2019-08-07 16:23:09:410
3.8312,-8.5789,2.7412,-0.4888,-0.4429,-0.5795,-0.1251,-0.1966,-0.0244,1763,2019-08-07 16:23:09:415
4.1709,-8.7173,2.3029,-0.8819,-0.2676,-0.117,-0.1251,-0.1966,-0.0244,1768,2019-08-07 16:23:09:420
4.1709,-8.7173,2.3029,-0.8819,-0.2676,-0.117,-0.0911,-0.1103,-0.0372,1773,2019-08-07 16:23:09:425
4.2379,-8.7269,2.1662,-0.8819,-0.2676,-0.117,-0.0911,-0.1103,-0.0372,1778,2019-08-07 16:23:09:430
4.2379,-8.7269,2.1662,-0.8819,-0.2676,-0.117,-0.0602,-0.0049,-0.0489,1784,2019-08-07 16:23:09:436
4.2379,-8.7269,2.1662,-0.6973,-0.1752,-0.2395,-0.0602,-0.0049,-0.0489,1788,2019-08-07 16:23:09:440
4.0082,-8.808,2.3877,-0.6973,-0.1752,-0.2395,-0.0602,-0.0049,-0.0489,1793,2019-08-07 16:23:09:445
4.0082,-8.808,2.3877,-0.6973,-0.1752,-0.2395,-0.0474,0.0601,-0.0659,1798,2019-08-07 16:23:09:450
3.8456,-8.7221,2.5621,-0.5945,-0.1396,-0.2838,-0.0474,0.0601,-0.0659,1804,2019-08-07 16:23:09:456
3.8456,-8.7221,2.5621,-0.5945,-0.1396,-0.2838,-0.0548,0.1059,-0.083,1808,2019-08-07 16:23:09:460
3.8456,-8.7221,2.5621,-0.5945,-0.1396,-0.2838,-0.0548,0.1059,-0.083,1813,2019-08-07 16:23:09:465
3.6207,-8.6982,2.7978,-0.3082,-0.2729,-0.684,-0.0729,0.1027,-0.0851,1819,2019-08-07 16:23:09:471
3.6207,-8.6982,2.7978,-0.3082,-0.2729,-0.684,-0.0729,0.1027,-0.0851,1823,2019-08-07 16:23:09:475
3.702,-8.6362,2.9062,-0.3082,-0.2729,-0.684,-0.0911,0.0409,-0.0851,1828,2019-08-07 16:23:09:480
3.702,-8.6362,2.9062,-0.3082,-0.2729,-0.684,-0.0911,0.0409,-0.0851,1834,2019-08-07 16:23:09:486
3.702,-8.6362,2.9062,-0.3082,-0.2729,-0.684,-0.1251,-0.056,-0.0745,1838,2019-08-07 16:23:09:490
4.123,-8.6171,2.6517,-0.6784,-0.3455,-0.5722,-0.1251,-0.056,-0.0745,1843,2019-08-07 16:23:09:495
4.123,-8.6171,2.6517,-0.6784,-0.3455,-0.5722,-0.1369,-0.0837,-0.0659,1848,2019-08-07 16:23:09:500
4.123,-8.6171,2.6517,-0.6784,-0.3455,-0.5722,-0.1369,-0.0837,-0.0659,1853,2019-08-07 16:23:09:505
4.5201,-8.6028,2.2746,-0.6784,-0.3455,-0.5722,-0.139,-0.0816,-0.0446,1858,2019-08-07 16:23:09:510
4.5201,-8.6028,2.2746,-1.2061,-0.3581,-0.0912,-0.139,-0.0816,-0.0446,1863,2019-08-07 16:23:09:515
4.6493,-8.703,2.2369,-1.2061,-0.3581,-0.0912,-0.1337,-0.0496,-0.0212,1868,2019-08-07 16:23:09:520
4.6493,-8.703,2.2369,-1.2061,-0.3581,-0.0912,-0.1337,-0.0496,-0.0212,1873,2019-08-07 16:23:09:525
4.6493,-8.703,2.2369,-1.2061,-0.3581,-0.0912,-0.1092,-0.0166,0.0076,1878,2019-08-07 16:23:09:530
4.611,-8.6648,2.3076,-1.2208,-0.2825,-0.2344,-0.1092,-0.0166,0.0076,1884,2019-08-07 16:23:09:536
4.611,-8.6648,2.3076,-1.2208,-0.2825,-0.2344,-0.0868,0.0367,0.0257,1887,2019-08-07 16:23:09:539
4.611,-8.6648,2.3076,-1.2208,-0.2825,-0.2344,-0.0868,0.0367,0.0257,1893,2019-08-07 16:23:09:545
4.5153,-8.5312,2.185,-1.2208,-0.2825,-0.2344,-0.0825,0.1038,0.0321,1899,2019-08-07 16:23:09:551
4.5153,-8.5312,2.185,-1.0462,-0.4945,-0.0624,-0.0825,0.1038,0.0321,1903,2019-08-07 16:23:09:555
4.5153,-8.5312,2.185,-1.0462,-0.4945,-0.0624,-0.0825,0.1038,0.0321,1908,2019-08-07 16:23:09:560
4.2092,-8.3402,2.2086,-1.0462,-0.4945,-0.0624,-0.1134,0.1698,0.0246,1913,2019-08-07 16:23:09:565
4.2092,-8.3402,2.2086,-1.0462,-0.4945,-0.0624,-0.1134,0.1698,0.0246,1918,2019-08-07 16:23:09:570
4.2092,-8.3402,2.2086,-0.7533,-0.6743,-0.2679,-0.1294,0.189,0.0225,1923,2019-08-07 16:23:09:575
4.2044,-8.2877,2.3217,-0.7533,-0.6743,-0.2679,-0.1294,0.189,0.0225,1928,2019-08-07 16:23:09:580
4.2044,-8.2877,2.3217,-0.7533,-0.6743,-0.2679,-0.1422,0.206,0.0012,1933,2019-08-07 16:23:09:585
4.2044,-8.2877,2.3217,-0.7533,-0.6743,-0.2679,-0.1422,0.206,0.0012,1938,2019-08-07 16:23:09:590
4.2044,-8.2972,2.3028,-0.8268,-0.6722,-0.2106,-0.1422,0.206,0.0012,1943,2019-08-07 16:23:09:595
4.2044,-8.2972,2.3028,-0.8268,-0.6722,-0.2106,-0.139,0.2433,-0.0329,1948,2019-08-07 16:23:09:600
4.0612,-8.2304,2.1709,-0.8268,-0.6722,-0.2106,-0.139,0.2433,-0.0329,1953,2019-08-07 16:23:09:605
4.0612,-8.2304,2.1709,-0.8268,-0.6722,-0.2106,-0.1251,0.271,-0.0585,1958,2019-08-07 16:23:09:610
4.0612,-8.2304,2.1709,-0.5786,-0.705,-0.1118,-0.1251,0.271,-0.0585,1963,2019-08-07 16:23:09:615
3.8842,-8.2925,2.3265,-0.5786,-0.705,-0.1118,-0.1145,0.2124,-0.0691,1968,2019-08-07 16:23:09:620
3.8842,-8.2925,2.3265,-0.5786,-0.705,-0.1118,-0.1145,0.2124,-0.0691,1973,2019-08-07 16:23:09:625
3.8842,-8.2925,2.3265,-0.5786,-0.705,-0.1118,-0.1145,0.2124,-0.0691,1978,2019-08-07 16:23:09:630
3.8124,-8.3975,2.6093,-0.4202,-0.568,-0.5242,-0.0729,0.091,-0.0745,1983,2019-08-07 16:23:09:635
3.8124,-8.3975,2.6093,-0.4202,-0.568,-0.5242,-0.0729,0.091,-0.0745,1988,2019-08-07 16:23:09:640
3.8986,-8.4787,2.3689,-0.4202,-0.568,-0.5242,-0.0708,-0.0486,-0.0713,1993,2019-08-07 16:23:09:645
3.8986,-8.4787,2.3689,-0.4202,-0.568,-0.5242,-0.0708,-0.0486,-0.0713,1998,2019-08-07 16:23:09:650
3.8986,-8.4787,2.3689,-0.7594,-0.4346,-0.1689,-0.0943,-0.1317,-0.0574,2002,2019-08-07 16:23:09:654
4.2956,-8.5264,2.1615,-0.7594,-0.4346,-0.1689,-0.0943,-0.1317,-0.0574,2008,2019-08-07 16:23:09:660
4.2956,-8.5264,2.1615,-0.7594,-0.4346,-0.1689,-0.1038,-0.1263,-0.0489,2013,2019-08-07 16:23:09:665
4.2956,-8.5264,2.1615,-0.7594,-0.4346,-0.1689,-0.1038,-0.1263,-0.0489,2018,2019-08-07 16:23:09:670
4.6353,-8.6267,2.0908,-1.1862,-0.3126,-0.054,-0.0974,-0.0645,-0.0478,2023,2019-08-07 16:23:09:675
4.6353,-8.6267,2.0908,-1.1862,-0.3126,-0.054,-0.0974,-0.0645,-0.0478,2029,2019-08-07 16:23:09:681
4.6018,-8.598,2.1097,-1.1862,-0.3126,-0.054,-0.0676,0.0516,-0.0393,2033,2019-08-07 16:23:09:685
4.6018,-8.598,2.1097,-1.1862,-0.3126,-0.054,-0.0676,0.0516,-0.0393,2038,2019-08-07 16:23:09:690
4.6018,-8.598,2.1097,-1.1862,-0.3126,-0.054,-0.0676,0.0516,-0.0393,2043,2019-08-07 16:23:09:695
4.2478,-8.5503,2.1002,-0.8847,-0.3761,-0.069,-0.0399,0.1517,-0.035,2048,2019-08-07 16:23:09:700
4.2478,-8.5503,2.1002,-0.8847,-0.3761,-0.069,-0.0399,0.1517,-0.035,2053,2019-08-07 16:23:09:705
3.9655,-8.5551,2.1474,-0.8847,-0.3761,-0.069,-0.0314,0.1847,-0.0318,2058,2019-08-07 16:23:09:710
3.9655,-8.5551,2.1474,-0.4548,-0.392,-0.302,-0.0314,0.1847,-0.0318,2063,2019-08-07 16:23:09:715
3.9655,-8.5551,2.1474,-0.4548,-0.392,-0.302,-0.0218,0.1379,-0.0297,2068,2019-08-07 16:23:09:720
3.7024,-8.6171,2.4773,-0.4548,-0.392,-0.302,-0.0218,0.1379,-0.0297,2072,2019-08-07 16:23:09:724
3.7024,-8.6171,2.4773,-0.4548,-0.392,-0.302,-0.0186,0.0207,-0.018,2078,2019-08-07 16:23:09:730
3.6498,-8.5789,2.5009,-0.193,-0.3702,-0.4516,-0.0186,0.0207,-0.018,2083,2019-08-07 16:23:09:735
3.6498,-8.5789,2.5009,-0.193,-0.3702,-0.4516,-0.0186,0.0207,-0.018,2088,2019-08-07 16:23:09:740
3.6498,-8.5789,2.5009,-0.193,-0.3702,-0.4516,-0.0484,-0.1455,-0.0063,2092,2019-08-07 16:23:09:744
3.8842,-8.6601,2.2275,-0.193,-0.3702,-0.4516,-0.0484,-0.1455,-0.0063,2098,2019-08-07 16:23:09:750
3.8842,-8.6601,2.2275,-0.5801,-0.2654,-0.0641,-0.0815,-0.2169,0.0097,2103,2019-08-07 16:23:09:755
4.2239,-8.6649,2.1097,-0.5801,-0.2654,-0.0641,-0.0815,-0.2169,0.0097,2108,2019-08-07 16:23:09:760
4.2239,-8.6649,2.1097,-0.5801,-0.2654,-0.0641,-0.0996,-0.219,0.014,2113,2019-08-07 16:23:09:765
4.2239,-8.6649,2.1097,-0.5801,-0.2654,-0.0641,-0.0996,-0.219,0.014,2118,2019-08-07 16:23:09:770
4.4344,-8.7556,2.0342,-0.9461,-0.1963,0.0881,-0.0985,-0.1594,0.0193,2123,2019-08-07 16:23:09:775
4.4344,-8.7556,2.0342,-0.9461,-0.1963,0.0881,-0.0985,-0.1594,0.0193,2127,2019-08-07 16:23:09:779
4.5301,-8.6792,1.7656,-0.9461,-0.1963,0.0881,-0.0974,-0.0464,0.0118,2133,2019-08-07 16:23:09:785
4.5301,-8.6792,1.7656,-0.9461,-0.1963,0.0881,-0.0974,-0.0464,0.0118,2137,2019-08-07 16:23:09:789
4.5301,-8.6792,1.7656,-0.9461,-0.1963,0.0881,-0.0974,-0.0464,0.0118,2143,2019-08-07 16:23:09:795
4.3339,-8.6505,1.9541,-0.891,-0.2553,0.1006,-0.0772,0.1229,-0.0052,2148,2019-08-07 16:23:09:800
4.3339,-8.6505,1.9541,-0.891,-0.2553,0.1006,-0.0772,0.1229,-0.0052,2153,2019-08-07 16:23:09:805
4.3339,-8.6505,1.9541,-0.891,-0.2553,0.1006,-0.041,0.2007,-0.0148,2158,2019-08-07 16:23:09:810
3.8651,-8.536,2.1097,-0.322,-0.4073,-0.1217,-0.041,0.2007,-0.0148,2163,2019-08-07 16:23:09:815
3.8651,-8.536,2.1097,-0.322,-0.4073,-0.1217,-0.0346,0.1592,-0.018,2168,2019-08-07 16:23:09:820
3.8651,-8.536,2.1097,-0.322,-0.4073,-0.1217,-0.0346,0.1592,-0.018,2173,2019-08-07 16:23:09:825
3.6259,-8.4405,2.2935,-0.322,-0.4073,-0.1217,-0.0325,0.0409,-0.0169,2178,2019-08-07 16:23:09:830
3.6259,-8.4405,2.2935,-0.322,-0.4073,-0.1217,-0.0325,0.0409,-0.0169,2183,2019-08-07 16:23:09:835
3.7311,-8.5742,2.3312,-0.1765,-0.4058,-0.4486,-0.025,-0.1061,-0.0073,2188,2019-08-07 16:23:09:840
3.7311,-8.5742,2.3312,-0.1765,-0.4058,-0.4486,-0.025,-0.1061,-0.0073,2193,2019-08-07 16:23:09:845
3.7311,-8.5742,2.3312,-0.1765,-0.4058,-0.4486,-0.0282,-0.1966,-0.002,2198,2019-08-07 16:23:09:850
4.0708,-8.7269,2.0955,-0.6199,-0.2045,-0.1298,-0.0282,-0.1966,-0.002,2203,2019-08-07 16:23:09:855
4.0708,-8.7269,2.0955,-0.6199,-0.2045,-0.1298,-0.0463,-0.2723,0.0076,2208,2019-08-07 16:23:09:860
4.0708,-8.7269,2.0955,-0.6199,-0.2045,-0.1298,-0.0463,-0.2723,0.0076,2213,2019-08-07 16:23:09:865
4.3531,-8.746,1.8975,-0.8466,-0.2047,0.0585,-0.057,-0.2787,0.0086,2218,2019-08-07 16:23:09:870
4.3531,-8.746,1.8975,-0.8466,-0.2047,0.0585,-0.057,-0.2787,0.0086,2223,2019-08-07 16:23:09:875
4.3531,-8.746,1.8975,-0.8466,-0.2047,0.0585,-0.0495,-0.1998,-0.001,2227,2019-08-07 16:23:09:879
4.6497,-8.9561,1.8033,-0.8466,-0.2047,0.0585,-0.0495,-0.1998,-0.001,2233,2019-08-07 16:23:09:885
4.6497,-8.9561,1.8033,-1.118,-0.0085,0.0978,-0.025,-0.1018,-0.0073,2237,2019-08-07 16:23:09:889
4.6497,-8.9561,1.8033,-1.118,-0.0085,0.0978,-0.025,-0.1018,-0.0073,2243,2019-08-07 16:23:09:895
4.6258,-8.9179,1.8033,-1.118,-0.0085,0.0978,0.0048,0.0239,-0.0191,2248,2019-08-07 16:23:09:900
4.6258,-8.9179,1.8033,-1.118,-0.0085,0.0978,0.0048,0.0239,-0.0191,2253,2019-08-07 16:23:09:905
4.1857,-8.7508,1.9023,-0.8011,-0.1532,0.0043,0.0048,0.0239,-0.0191,2257,2019-08-07 16:23:09:909
4.1857,-8.7508,1.9023,-0.8011,-0.1532,0.0043,0.04,0.1016,-0.0276,2263,2019-08-07 16:23:09:915
4.1857,-8.7508,1.9023,-0.4204,-0.2843,-0.1444,0.04,0.1016,-0.0276,2268,2019-08-07 16:23:09:920
3.8173,-8.6458,2.2888,-0.4204,-0.2843,-0.1444,0.0581,0.0739,-0.0414,2273,2019-08-07 16:23:09:925
3.8173,-8.6458,2.2888,-0.231,-0.4147,-0.4974,0.0581,0.0739,-0.0414,2278,2019-08-07 16:23:09:930
3.7024,-8.431,2.4821,-0.231,-0.4147,-0.4974,0.0719,-0.0166,-0.05,2283,2019-08-07 16:23:09:935
3.7024,-8.431,2.4821,-0.231,-0.4147,-0.4974,0.0719,-0.0166,-0.05,2288,2019-08-07 16:23:09:940
3.7024,-8.431,2.4821,-0.231,-0.4147,-0.4974,0.0719,-0.0166,-0.05,2293,2019-08-07 16:23:09:945
3.8221,-8.2209,2.4679,-0.27,-0.7114,-0.51,0.073,-0.1061,-0.0659,2298,2019-08-07 16:23:09:950
3.8221,-8.2209,2.4679,-0.27,-0.7114,-0.51,0.073,-0.1061,-0.0659,2302,2019-08-07 16:23:09:954
3.8221,-8.2209,2.4679,-0.27,-0.7114,-0.51,0.0474,-0.1349,-0.0723,2308,2019-08-07 16:23:09:960
4.0661,-8.2257,2.3124,-0.27,-0.7114,-0.51,0.0474,-0.1349,-0.0723,2313,2019-08-07 16:23:09:965
4.0661,-8.2257,2.3124,-0.653,-0.6059,-0.2248,0.0038,-0.1242,-0.0787,2318,2019-08-07 16:23:09:970
4.2813,-8.4119,2.1238,-0.653,-0.6059,-0.2248,0.0038,-0.1242,-0.0787,2323,2019-08-07 16:23:09:975
4.2813,-8.4119,2.1238,-0.653,-0.6059,-0.2248,-0.0271,-0.0518,-0.0958,2328,2019-08-07 16:23:09:980
4.2813,-8.4119,2.1238,-0.653,-0.6059,-0.2248,-0.0271,-0.0518,-0.0958,2334,2019-08-07 16:23:09:986
4.1857,-8.6458,2.105,-0.5846,-0.2679,-0.1518,-0.0442,0.0324,-0.1117,2338,2019-08-07 16:23:09:990
4.1857,-8.6458,2.105,-0.5846,-0.2679,-0.1518,-0.0442,0.0324,-0.1117,2343,2019-08-07 16:23:09:995
4.1043,-8.7842,2.2322,-0.5846,-0.2679,-0.1518,-0.0442,0.0622,-0.1171,2349,2019-08-07 16:23:10:001
4.1043,-8.7842,2.2322,-0.5846,-0.2679,-0.1518,-0.0442,0.0622,-0.1171,2353,2019-08-07 16:23:10:005
4.1043,-8.7842,2.2322,-0.4376,-0.159,-0.3099,-0.0442,0.0622,-0.1171,2357,2019-08-07 16:23:10:009
3.9799,-8.7365,2.1757,-0.4376,-0.159,-0.3099,-0.0367,0.0516,-0.1117,2363,2019-08-07 16:23:10:015
3.9799,-8.7365,2.1757,-0.4376,-0.159,-0.3099,-0.0367,0.0516,-0.1117,2368,2019-08-07 16:23:10:020
3.9799,-8.7365,2.1757,-0.4376,-0.159,-0.3099,-0.0389,0.01,-0.1,2373,2019-08-07 16:23:10:025
4.0804,-8.8081,2.0955,-0.4785,-0.1558,-0.1526,-0.0389,0.01,-0.1,2378,2019-08-07 16:23:10:030
4.0804,-8.8081,2.0955,-0.4785,-0.1558,-0.1526,-0.0463,-0.0379,-0.0894,2384,2019-08-07 16:23:10:036
4.1857,-8.7603,2.0814,-0.4785,-0.1558,-0.1526,-0.0463,-0.0379,-0.0894,2388,2019-08-07 16:23:10:040
4.1857,-8.7603,2.0814,-0.4785,-0.1558,-0.1526,-0.0516,-0.0848,-0.0819,2393,2019-08-07 16:23:10:045
4.1857,-8.7603,2.0814,-0.4785,-0.1558,-0.1526,-0.0516,-0.0848,-0.0819,2398,2019-08-07 16:23:10:050
4.2814,-8.8033,2.105,-0.6142,-0.0872,-0.1694,-0.0516,-0.0848,-0.0819,2403,2019-08-07 16:23:10:055
4.2814,-8.8033,2.105,-0.6142,-0.0872,-0.1694,-0.0335,-0.1167,-0.0542,2408,2019-08-07 16:23:10:060
4.4967,-8.7365,1.8881,-0.6142,-0.0872,-0.1694,-0.0335,-0.1167,-0.0542,2413,2019-08-07 16:23:10:065
4.4967,-8.7365,1.8881,-0.9861,-0.2109,0.0468,-0.025,-0.1103,-0.0308,2418,2019-08-07 16:23:10:070
4.6737,-8.6649,1.8457,-0.9861,-0.2109,0.0468,-0.025,-0.1103,-0.0308,2423,2019-08-07 16:23:10:075
4.6737,-8.6649,1.8457,-0.9861,-0.2109,0.0468,-0.0101,-0.0645,-0.0052,2428,2019-08-07 16:23:10:080
4.6737,-8.6649,1.8457,-0.9861,-0.2109,0.0468,-0.0101,-0.0645,-0.0052,2433,2019-08-07 16:23:10:085
4.6737,-8.536,1.8976,-0.9078,-0.356,0.0195,-0.008,-0.0102,0.0225,2438,2019-08-07 16:23:10:090
4.6737,-8.536,1.8976,-0.9078,-0.356,0.0195,-0.008,-0.0102,0.0225,2443,2019-08-07 16:23:10:095
4.4967,-8.4596,2.0107,-0.9078,-0.356,0.0195,-0.0122,0.0207,0.0459,2449,2019-08-07 16:23:10:101
4.4967,-8.4596,2.0107,-0.9078,-0.356,0.0195,-0.0122,0.0207,0.0459,2452,2019-08-07 16:23:10:104
4.4967,-8.4596,2.0107,-0.6606,-0.4092,-0.1644,-0.0122,0.0207,0.0459,2458,2019-08-07 16:23:10:110
4.3101,-8.4739,2.1332,-0.6606,-0.4092,-0.1644,-0.0144,-0.0177,0.063,2463,2019-08-07 16:23:10:115
4.3101,-8.4739,2.1332,-0.6606,-0.4092,-0.1644,-0.0144,-0.0177,0.063,2468,2019-08-07 16:23:10:120
4.2335,-8.5646,2.2228,-0.6606,-0.4092,-0.1644,-0.009,-0.0699,0.0683,2473,2019-08-07 16:23:10:125
4.2335,-8.5646,2.2228,-0.5272,-0.3738,-0.3137,-0.009,-0.0699,0.0683,2478,2019-08-07 16:23:10:130
4.2335,-8.5646,2.2228,-0.5272,-0.3738,-0.3137,6.0E-4,-0.1199,0.0768,2483,2019-08-07 16:23:10:135
4.3197,-8.5837,2.0578,-0.5272,-0.3738,-0.3137,6.0E-4,-0.1199,0.0768,2488,2019-08-07 16:23:10:140
4.3197,-8.5837,2.0578,-0.5272,-0.3738,-0.3137,0.0133,-0.1327,0.0576,2493,2019-08-07 16:23:10:145
4.3197,-8.5837,2.0578,-0.5272,-0.3738,-0.3137,0.0133,-0.1327,0.0576,2499,2019-08-07 16:23:10:151
4.3723,-8.4787,2.0673,-0.6821,-0.4095,-0.1648,0.0283,-0.1125,0.0321,2503,2019-08-07 16:23:10:155
4.3723,-8.4787,2.0673,-0.6821,-0.4095,-0.1648,0.0283,-0.1125,0.0321,2508,2019-08-07 16:23:10:160
4.3005,-8.3641,2.2134,-0.6821,-0.4095,-0.1648,0.0283,-0.1125,0.0321,2513,2019-08-07 16:23:10:165
4.3005,-8.3641,2.2134,-0.533,-0.4836,-0.2405,0.04,-0.0997,0.0033,2518,2019-08-07 16:23:10:170
4.3005,-8.3641,2.2134,-0.533,-0.4836,-0.2405,0.04,-0.0997,0.0033,2524,2019-08-07 16:23:10:176
4.2718,-8.4071,2.1568,-0.533,-0.4836,-0.2405,0.0378,-0.0773,-0.0255,2528,2019-08-07 16:23:10:180
4.2718,-8.4071,2.1568,-0.533,-0.4836,-0.2405,0.0378,-0.0773,-0.0255,2533,2019-08-07 16:23:10:185
4.2718,-8.4071,2.1568,-0.5002,-0.5919,-0.2049,0.0346,-0.105,-0.0595,2538,2019-08-07 16:23:10:190
4.2718,-8.4071,2.1568,-0.5002,-0.5919,-0.2049,0.0346,-0.105,-0.0595,2543,2019-08-07 16:23:10:195
4.2335,-8.3832,2.1285,-0.5002,-0.5919,-0.2049,0.0453,-0.1178,-0.0787,2549,2019-08-07 16:23:10:201
4.2335,-8.3832,2.1285,-0.5002,-0.5919,-0.2049,0.0453,-0.1178,-0.0787,2553,2019-08-07 16:23:10:205
4.3149,-8.4978,2.1427,-0.5002,-0.5919,-0.2049,0.0453,-0.1178,-0.0787,2558,2019-08-07 16:23:10:210
4.3149,-8.4978,2.1427,-0.5918,-0.3909,-0.1704,0.0687,-0.137,-0.0926,2563,2019-08-07 16:23:10:215
4.3245,-8.4596,2.1615,-0.5918,-0.3909,-0.1704,0.0687,-0.137,-0.0926,2569,2019-08-07 16:23:10:221
4.3245,-8.4596,2.1615,-0.5918,-0.3909,-0.1704,0.0922,-0.1594,-0.1032,2573,2019-08-07 16:23:10:225
4.3245,-8.4596,2.1615,-0.5918,-0.3909,-0.1704,0.0922,-0.1594,-0.1032,2578,2019-08-07 16:23:10:230
4.468,-8.3975,2.237,-0.6966,-0.5252,-0.362,0.1081,-0.1657,-0.1054,2584,2019-08-07 16:23:10:236
4.468,-8.3975,2.237,-0.6966,-0.5252,-0.362,0.1081,-0.1657,-0.1054,2588,2019-08-07 16:23:10:240
4.468,-8.3975,2.237,-0.6966,-0.5252,-0.362,0.1081,-0.1657,-0.1054,2593,2019-08-07 16:23:10:245
4.5541,-8.3116,2.2275,-0.6966,-0.5252,-0.362,0.0943,-0.121,-0.1096,2599,2019-08-07 16:23:10:251
4.5541,-8.3116,2.2275,-0.9283,-0.4858,-0.3051,0.0943,-0.121,-0.1096,2603,2019-08-07 16:23:10:255
4.5541,-8.3116,2.2275,-0.9283,-0.4858,-0.3051,0.0549,-0.0965,-0.1309,2608,2019-08-07 16:23:10:260
4.7933,-8.4453,1.8881,-0.9283,-0.4858,-0.3051,0.0549,-0.0965,-0.1309,2614,2019-08-07 16:23:10:266
4.7933,-8.4453,1.8881,-0.9283,-0.4858,-0.3051,0.0176,0.0058,-0.1512,2618,2019-08-07 16:23:10:270
4.6737,-8.493,2.1898,-0.8985,-0.3554,-0.2444,0.0176,0.0058,-0.1512,2622,2019-08-07 16:23:10:274
4.6737,-8.493,2.1898,-0.8985,-0.3554,-0.2444,0.0133,0.0963,-0.1394,2628,2019-08-07 16:23:10:280
4.6737,-8.493,2.1898,-0.8985,-0.3554,-0.2444,0.0133,0.0963,-0.1394,2633,2019-08-07 16:23:10:285
4.3819,-8.5169,2.237,-0.8985,-0.3554,-0.2444,-5.0E-4,0.1464,-0.0958,2638,2019-08-07 16:23:10:290
4.3819,-8.5169,2.237,-0.4831,-0.3235,-0.2931,-5.0E-4,0.1464,-0.0958,2643,2019-08-07 16:23:10:295
4.3819,-8.5169,2.237,-0.4831,-0.3235,-0.2931,-5.0E-4,0.1464,-0.0958,2648,2019-08-07 16:23:10:300
4.2096,-8.4882,2.4255,-0.4831,-0.3235,-0.2931,-0.0176,0.1176,-0.051,2653,2019-08-07 16:23:10:305
4.2096,-8.4882,2.4255,-0.4831,-0.3235,-0.2931,-0.0176,0.1176,-0.051,2658,2019-08-07 16:23:10:310
4.2862,-8.6267,2.3595,-0.4264,-0.1794,-0.4128,-0.0325,-0.0198,-0.0297,2663,2019-08-07 16:23:10:315
4.2862,-8.6267,2.3595,-0.4264,-0.1794,-0.4128,-0.0325,-0.0198,-0.0297,2668,2019-08-07 16:23:10:320
4.4584,-8.9465,2.3029,-0.4264,-0.1794,-0.4128,-0.0463,-0.1412,-0.018,2673,2019-08-07 16:23:10:325
4.4584,-8.9465,2.3029,-0.4264,-0.1794,-0.4128,-0.0463,-0.1412,-0.018,2678,2019-08-07 16:23:10:330
4.4584,-8.9465,2.3029,-0.9224,0.3046,-0.3132,-0.0261,-0.1924,-0.0137,2683,2019-08-07 16:23:10:335
4.9608,-9.1088,2.1191,-0.9224,0.3046,-0.3132,-0.0261,-0.1924,-0.0137,2688,2019-08-07 16:23:10:340
4.9608,-9.1088,2.1191,-0.9224,0.3046,-0.3132,0.0133,-0.1636,-0.0255,2693,2019-08-07 16:23:10:345
4.9608,-9.1088,2.1191,-0.9224,0.3046,-0.3132,0.0133,-0.1636,-0.0255,2698,2019-08-07 16:23:10:350
5.0182,-8.7747,2.0295,-1.1446,-0.1204,-0.1378,0.0602,-0.0922,-0.0073,2703,2019-08-07 16:23:10:355
5.0182,-8.7747,2.0295,-1.1446,-0.1204,-0.1378,0.0602,-0.0922,-0.0073,2708,2019-08-07 16:23:10:360
4.8699,-8.3641,2.0201,-1.1446,-0.1204,-0.1378,0.0602,-0.0922,-0.0073,2713,2019-08-07 16:23:10:365
4.8699,-8.3641,2.0201,-1.1446,-0.1204,-0.1378,0.0677,-0.0347,0.0182,2719,2019-08-07 16:23:10:371
4.6737,-8.2161,2.105,-0.816,-0.5161,-0.1911,0.0677,-0.0347,0.0182,2723,2019-08-07 16:23:10:375
4.6737,-8.2161,2.105,-0.816,-0.5161,-0.1911,0.0378,0.0271,0.0438,2727,2019-08-07 16:23:10:379
4.6737,-8.2161,2.105,-0.816,-0.5161,-0.1911,0.0378,0.0271,0.0438,2733,2019-08-07 16:23:10:385
4.6115,-8.1684,2.1568,-0.816,-0.5161,-0.1911,0.0165,0.0484,0.0459,2738,2019-08-07 16:23:10:390
4.6115,-8.1684,2.1568,-0.7276,-0.5866,-0.1762,0.0165,0.0484,0.0459,2743,2019-08-07 16:23:10:395
4.5972,-8.3116,2.1568,-0.7276,-0.5866,-0.1762,0.0112,0.0633,0.0342,2749,2019-08-07 16:23:10:401
4.5972,-8.3116,2.1568,-0.7276,-0.5866,-0.1762,0.0112,0.0633,0.0342,2752,2019-08-07 16:23:10:404
4.5972,-8.3116,2.1568,-0.7276,-0.5866,-0.1762,0.0112,0.0633,0.0342,2758,2019-08-07 16:23:10:410
4.5302,-8.2352,2.0625,-0.6389,-0.5568,-0.1146,0.0101,0.1176,0.0076,2763,2019-08-07 16:23:10:415
4.5302,-8.2352,2.0625,-0.6389,-0.5568,-0.1146,0.0101,0.1176,0.0076,2768,2019-08-07 16:23:10:420
4.5302,-8.2352,2.0625,-0.6389,-0.5568,-0.1146,0.0155,0.205,-0.0276,2773,2019-08-07 16:23:10:425
4.3293,-8.1923,2.5528,-0.6389,-0.5568,-0.1146,0.0155,0.205,-0.0276,2778,2019-08-07 16:23:10:430
4.3293,-8.1923,2.5528,-0.3794,-0.7042,-0.7153,0.0208,0.2124,-0.0404,2783,2019-08-07 16:23:10:435
4.3293,-8.1923,2.5528,-0.3794,-0.7042,-0.7153,0.0208,0.2124,-0.0404,2787,2019-08-07 16:23:10:439
4.0948,-7.9822,2.3737,-0.3794,-0.7042,-0.7153,0.0069,0.1592,-0.0169,2793,2019-08-07 16:23:10:445
4.0948,-7.9822,2.3737,-0.3794,-0.7042,-0.7153,0.0069,0.1592,-0.0169,2799,2019-08-07 16:23:10:451
4.0948,-7.9822,2.3737,-0.1491,-0.7713,-0.5031,-0.0261,0.0942,0.0044,2803,2019-08-07 16:23:10:455
4.0948,-7.9822,2.3737,-0.1491,-0.7713,-0.5031,-0.0261,0.0942,0.0044,2808,2019-08-07 16:23:10:460
4.0566,-8.03,2.4774,-0.1491,-0.7713,-0.5031,-0.0261,0.0942,0.0044,2812,2019-08-07 16:23:10:464
4.0566,-8.03,2.4774,-0.1491,-0.7713,-0.5031,-0.0506,-0.0155,0.0257,2818,2019-08-07 16:23:10:470
4.2575,-8.1827,2.1851,-0.3646,-0.6005,-0.2012,-0.0506,-0.0155,0.0257,2823,2019-08-07 16:23:10:475
4.2575,-8.1827,2.1851,-0.3646,-0.6005,-0.2012,-0.0761,-0.1285,0.0257,2829,2019-08-07 16:23:10:481
4.2575,-8.1827,2.1851,-0.3646,-0.6005,-0.2012,-0.0761,-0.1285,0.0257,2833,2019-08-07 16:23:10:485
4.5111,-8.3355,1.7562,-0.3646,-0.6005,-0.2012,-0.0943,-0.1423,0.0022,2838,2019-08-07 16:23:10:490
4.5111,-8.3355,1.7562,-0.6623,-0.3212,0.3281,-0.0943,-0.1423,0.0022,2843,2019-08-07 16:23:10:495
4.5111,-8.3355,1.7562,-0.6623,-0.3212,0.3281,-0.0943,-0.1423,0.0022,2847,2019-08-07 16:23:10:499
4.6307,-8.579,1.6053,-0.6623,-0.3212,0.3281,-0.0889,-0.0922,-0.018,2852,2019-08-07 16:23:10:504
4.6307,-8.579,1.6053,-0.6623,-0.3212,0.3281,-0.0889,-0.0922,-0.018,2858,2019-08-07 16:23:10:510
4.6546,-8.7508,1.5865,-0.6623,-0.3212,0.3281,-0.0666,-0.0028,-0.0393,2863,2019-08-07 16:23:10:515
4.6546,-8.7508,1.5865,-0.6785,-0.1246,0.283,-0.0666,-0.0028,-0.0393,2868,2019-08-07 16:23:10:520
4.3293,-8.6458,1.7279,-0.6785,-0.1246,0.283,-0.0271,0.1027,-0.0617,2873,2019-08-07 16:23:10:525
4.3293,-8.6458,1.7279,-0.6785,-0.1246,0.283,-0.0271,0.1027,-0.0617,2878,2019-08-07 16:23:10:530
4.3293,-8.6458,1.7279,-0.2903,-0.1769,0.0679,-0.008,0.1219,-0.0649,2883,2019-08-07 16:23:10:535
4.1331,-8.6458,1.874,-0.2903,-0.1769,0.0679,-0.008,0.1219,-0.0649,2888,2019-08-07 16:23:10:540
4.1331,-8.6458,1.874,-0.2903,-0.1769,0.0679,-0.0229,0.0303,-0.0627,2893,2019-08-07 16:23:10:545
4.0279,-8.579,1.9023,-0.2903,-0.1769,0.0679,-0.0229,0.0303,-0.0627,2898,2019-08-07 16:23:10:550
4.0279,-8.579,1.9023,-0.365,-0.1867,-0.246,-0.0293,-0.0731,-0.0425,2903,2019-08-07 16:23:10:555
4.0279,-8.579,1.9023,-0.365,-0.1867,-0.246,-0.0293,-0.0731,-0.0425,2907,2019-08-07 16:23:10:559
4.602,-8.6076,2.1757,-0.365,-0.1867,-0.246,0.0027,-0.1189,-0.0329,2913,2019-08-07 16:23:10:565
4.602,-8.6076,2.1757,-0.365,-0.1867,-0.246,0.0027,-0.1189,-0.0329,2917,2019-08-07 16:23:10:569
4.602,-8.6076,2.1757,-0.365,-0.1867,-0.246,0.0027,-0.1189,-0.0329,2923,2019-08-07 16:23:10:575
4.9991,-8.5933,1.8834,-1.0486,-0.177,0.0434,0.0272,-0.0837,0.0022,2927,2019-08-07 16:23:10:579
4.9991,-8.5933,1.8834,-1.0486,-0.177,0.0434,0.0272,-0.0837,0.0022,2933,2019-08-07 16:23:10:585
4.8556,-8.4166,1.7562,-1.0486,-0.177,0.0434,0.0069,0.0015,0.0321,2938,2019-08-07 16:23:10:590
4.8556,-8.4166,1.7562,-1.0486,-0.177,0.0434,0.0069,0.0015,0.0321,2942,2019-08-07 16:23:10:594
4.8556,-8.4166,1.7562,-0.777,-0.357,0.0093,-0.0048,0.0739,0.0598,2948,2019-08-07 16:23:10:600
4.6063,-8.4834,2.0342,-0.777,-0.357,0.0093,-0.0048,0.0739,0.0598,2952,2019-08-07 16:23:10:604
4.6063,-8.4834,2.0342,-0.777,-0.357,0.0093,-0.0048,0.0739,0.0598,2958,2019-08-07 16:23:10:610
4.3575,-8.5503,2.1662,-0.777,-0.357,0.0093,-0.0261,0.0952,0.0662,2963,2019-08-07 16:23:10:615
4.3575,-8.5503,2.1662,-0.4137,-0.222,-0.235,-0.0261,0.0952,0.0662,2967,2019-08-07 16:23:10:619
4.3575,-8.5503,2.1662,-0.4137,-0.222,-0.235,-0.0452,0.0814,0.048,2973,2019-08-07 16:23:10:625
4.1853,-8.493,2.2369,-0.4137,-0.222,-0.235,-0.0452,0.0814,0.048,2978,2019-08-07 16:23:10:630
4.1853,-8.493,2.2369,-0.4137,-0.222,-0.235,-0.0495,0.0729,0.0299,2983,2019-08-07 16:23:10:635
4.1853,-8.493,2.2369,-0.3926,-0.254,-0.31,-0.0495,0.0729,0.0299,2988,2019-08-07 16:23:10:640
4.3288,-8.5455,2.2086,-0.3926,-0.254,-0.31,-0.0559,0.0612,0.0022,2993,2019-08-07 16:23:10:645
4.3288,-8.5455,2.2086,-0.3926,-0.254,-0.31,-0.0559,0.0612,0.0022,2998,2019-08-07 16:23:10:650
4.4675,-8.5264,2.1143,-0.3926,-0.254,-0.31,-0.0676,0.0612,-0.0073,3002,2019-08-07 16:23:10:654
4.4675,-8.5264,2.1143,-0.6838,-0.2402,-0.2146,-0.0676,0.0612,-0.0073,3008,2019-08-07 16:23:10:660
4.4675,-8.5264,2.1143,-0.6838,-0.2402,-0.2146,-0.0676,0.0612,-0.0073,3013,2019-08-07 16:23:10:665
4.5393,-8.4643,2.02,-0.5464,-0.3064,-0.0869,-0.0804,0.0505,-0.035,3018,2019-08-07 16:23:10:670
4.5393,-8.4643,2.02,-0.5464,-0.3064,-0.0869,-0.0804,0.0505,-0.035,3023,2019-08-07 16:23:10:675
4.5393,-8.4643,2.02,-0.5464,-0.3064,-0.0869,-0.0889,0.042,-0.0233,3028,2019-08-07 16:23:10:680
4.2235,-8.5216,2.0106,-0.5464,-0.3064,-0.0869,-0.0889,0.042,-0.0233,3033,2019-08-07 16:23:10:685
4.2235,-8.5216,2.0106,-0.2627,-0.1962,-0.1212,-0.0815,0.0175,-0.002,3038,2019-08-07 16:23:10:690