ACCELEROMETER X (m/s²),ACCELEROMETER Y (m/s²),ACCELEROMETER Z (m/s²),LINEAR ACCELERATION X (m/s²),LINEAR ACCELERATION Y (m/s²),LINEAR ACCELERATION Z (m/s²),GYROSCOPE X (rad/s),GYROSCOPE Y (rad/s),GYROSCOPE Z (rad/s),Time since start in ms ,YYYY-MO-DD HH-MI-SS_SSS
4.7875,-8.3779,1.8728,-0.3041,-0.0718,-0.1028,0.007,0.0335,-0.0127,3,2019-08-07 16:24:10:725
4.7875,-8.3779,1.8728,-0.1678,-0.1079,-0.122,0.0016,0.0164,-0.0148,8,2019-08-07 16:24:10:730
4.7875,-8.3779,1.8728,-0.1678,-0.1079,-0.122,0.0016,0.0164,-0.0148,12,2019-08-07 16:24:10:734
4.8736,-8.3492,1.7266,-0.1678,-0.1079,-0.122,-0.0048,0.0292,-0.018,18,2019-08-07 16:24:10:740
4.8736,-8.3492,1.7266,-0.1678,-0.1079,-0.122,-0.0048,0.0292,-0.018,22,2019-08-07 16:24:10:744
4.8784,-8.3063,1.8256,-0.2547,-0.172,-0.1005,-0.0048,0.0292,-0.018,28,2019-08-07 16:24:10:750
4.8784,-8.3063,1.8256,-0.2547,-0.172,-0.1005,-5.0E-4,0.0313,-0.0244,33,2019-08-07 16:24:10:755
4.8784,-8.3063,1.8256,-0.2547,-0.172,-0.1005,-5.0E-4,0.0313,-0.0244,38,2019-08-07 16:24:10:760
4.7397,-8.292,1.8351,-0.2547,-0.172,-0.1005,0.0027,0.0345,-0.0255,43,2019-08-07 16:24:10:765
4.7397,-8.292,1.8351,-0.164,-0.2164,-0.0869,0.0027,0.0345,-0.0255,47,2019-08-07 16:24:10:769
4.7636,-8.2967,1.8209,-0.164,-0.2164,-0.0869,-0.009,0.0154,-0.0234,53,2019-08-07 16:24:10:775
4.7636,-8.2967,1.8209,-0.164,-0.2164,-0.0869,-0.009,0.0154,-0.0234,58,2019-08-07 16:24:10:780
4.7636,-8.2967,1.8209,-0.164,-0.2164,-0.0869,-0.0165,-6.0E-4,-0.0234,63,2019-08-07 16:24:10:785
4.7827,-8.2538,1.8021,-0.1494,-0.2185,-0.073,-0.0165,-6.0E-4,-0.0234,68,2019-08-07 16:24:10:790
4.7827,-8.2538,1.8021,-0.1494,-0.2185,-0.073,-0.0197,-0.0209,-0.0202,73,2019-08-07 16:24:10:795
4.7827,-8.2538,1.8021,-0.1494,-0.2185,-0.073,-0.0197,-0.0209,-0.0202,77,2019-08-07 16:24:10:799
4.9071,-8.4113,1.7078,-0.1494,-0.2185,-0.073,-0.0229,-0.0155,-0.018,82,2019-08-07 16:24:10:804
4.9071,-8.4113,1.7078,-0.3257,-0.078,-0.059,-0.0229,-0.0155,-0.018,88,2019-08-07 16:24:10:810
4.9071,-8.4113,1.7078,-0.3257,-0.078,-0.059,-0.0229,-0.0155,-0.018,92,2019-08-07 16:24:10:814
4.9167,-8.3683,1.7455,-0.3257,-0.078,-0.059,-0.0186,-0.0027,-0.017,98,2019-08-07 16:24:10:820
4.9167,-8.3683,1.7455,-0.3257,-0.078,-0.059,-0.009,0.0186,-0.0106,103,2019-08-07 16:24:10:825
4.9167,-8.354,1.7644,-0.2732,-0.1142,-0.0426,-0.009,0.0186,-0.0106,108,2019-08-07 16:24:10:830
4.9167,-8.354,1.7644,-0.2732,-0.1142,-0.0426,-0.009,0.0186,-0.0106,113,2019-08-07 16:24:10:835
4.9167,-8.354,1.7644,-0.2732,-0.1142,-0.0426,-0.009,0.0271,-0.0127,117,2019-08-07 16:24:10:839
4.9359,-8.3636,1.7644,-0.2732,-0.1142,-0.0426,-0.009,0.0271,-0.0127,122,2019-08-07 16:24:10:844
4.9359,-8.3636,1.7644,-0.2366,-0.1552,-0.0747,-0.0112,0.0345,-0.0074,128,2019-08-07 16:24:10:850
4.8928,-8.3349,1.8068,-0.2366,-0.1552,-0.0747,-0.0112,0.0345,-0.0074,132,2019-08-07 16:24:10:854
4.8928,-8.3349,1.8068,-0.2366,-0.1552,-0.0747,-0.008,0.0335,-0.0031,138,2019-08-07 16:24:10:860
4.8928,-8.3349,1.8068,-0.2366,-0.1552,-0.0747,-0.008,0.0335,-0.0031,142,2019-08-07 16:24:10:864
4.8641,-8.3349,1.8256,-0.2207,-0.1158,-0.1009,-0.0058,0.0196,-0.0095,148,2019-08-07 16:24:10:870
4.8641,-8.3349,1.8256,-0.2207,-0.1158,-0.1009,-0.0058,0.0196,-0.0095,153,2019-08-07 16:24:10:875
4.845,-8.3206,1.8115,-0.2207,-0.1158,-0.1009,-0.0058,0.0196,-0.0095,157,2019-08-07 16:24:10:879
4.845,-8.3206,1.8115,-0.2207,-0.1158,-0.1009,-0.0069,0.0186,-0.0127,163,2019-08-07 16:24:10:885
4.845,-8.3206,1.8115,-0.1702,-0.1141,-0.1422,-0.0069,0.0186,-0.0127,168,2019-08-07 16:24:10:890
4.8115,-8.3397,1.8586,-0.1702,-0.1141,-0.1422,-0.0112,0.0154,-0.0138,173,2019-08-07 16:24:10:895
4.8115,-8.3397,1.8586,-0.1702,-0.1141,-0.1422,-0.0112,0.0154,-0.0138,178,2019-08-07 16:24:10:900
4.7541,-8.3588,1.8304,-0.1702,-0.1141,-0.1422,-0.0069,-0.0017,-0.0212,183,2019-08-07 16:24:10:905
4.7541,-8.3588,1.8304,-0.1325,-0.1308,-0.0856,-0.0069,-0.0017,-0.0212,187,2019-08-07 16:24:10:909
4.7541,-8.3588,1.8304,-0.1325,-0.1308,-0.0856,-0.0101,-0.0187,-0.0255,193,2019-08-07 16:24:10:915
4.8067,-8.2729,1.8398,-0.1325,-0.1308,-0.0856,-0.0101,-0.0187,-0.0255,198,2019-08-07 16:24:10:920
4.8067,-8.2729,1.8398,-0.1325,-0.1308,-0.0856,-0.008,-0.0145,-0.0234,203,2019-08-07 16:24:10:925
4.8976,-8.2776,1.8304,-0.2365,-0.1805,-0.1068,-0.008,-0.0145,-0.0234,208,2019-08-07 16:24:10:930
4.8976,-8.2776,1.8304,-0.2365,-0.1805,-0.1068,-0.0016,-0.0113,-0.0276,213,2019-08-07 16:24:10:935
4.8976,-8.2776,1.8304,-0.2365,-0.1805,-0.1068,-0.0016,-0.0113,-0.0276,217,2019-08-07 16:24:10:939
4.9167,-8.2633,1.7502,-0.2365,-0.1805,-0.1068,-0.0037,-0.007,-0.0266,223,2019-08-07 16:24:10:945
4.9167,-8.2633,1.7502,-0.368,-0.1671,-0.0606,-0.0037,-0.007,-0.0266,228,2019-08-07 16:24:10:950
4.9694,-8.3206,1.7549,-0.368,-0.1671,-0.0606,-0.0037,-0.0059,-0.0223,232,2019-08-07 16:24:10:954
4.9694,-8.3206,1.7549,-0.368,-0.1671,-0.0606,-0.0037,-0.0059,-0.0223,238,2019-08-07 16:24:10:960
4.9694,-8.3206,1.7549,-0.368,-0.1671,-0.0606,0.0048,0.0068,-0.017,243,2019-08-07 16:24:10:965
4.9981,-8.3827,1.7549,-0.3143,-0.0732,9.0E-4,0.0048,0.0068,-0.017,248,2019-08-07 16:24:10:970
4.9981,-8.3827,1.7549,-0.3143,-0.0732,9.0E-4,0.0155,-0.0017,-0.0127,253,2019-08-07 16:24:10:975
5.0029,-8.3254,1.7785,-0.3143,-0.0732,9.0E-4,0.0155,-0.0017,-0.0127,258,2019-08-07 16:24:10:980
5.0029,-8.3254,1.7785,-0.3143,-0.0732,9.0E-4,0.0229,-0.0049,-0.0053,263,2019-08-07 16:24:10:985
5.0029,-8.3254,1.7785,-0.3143,-0.0732,9.0E-4,0.0229,-0.0049,-0.0053,267,2019-08-07 16:24:10:989
4.9789,-8.3254,1.7078,-0.3053,-0.1417,-0.0382,0.0251,0.0047,1.0E-4,273,2019-08-07 16:24:10:995
4.9789,-8.3254,1.7078,-0.3053,-0.1417,-0.0382,0.0251,0.0047,1.0E-4,278,2019-08-07 16:24:11:000
4.9789,-8.3254,1.7078,-0.3053,-0.1417,-0.0382,0.024,0.0164,-0.0031,283,2019-08-07 16:24:11:005
4.8163,-8.3254,1.8445,-0.0552,-0.0969,-0.0796,0.024,0.0164,-0.0031,288,2019-08-07 16:24:11:010
4.8163,-8.3254,1.8445,-0.0552,-0.0969,-0.0796,0.0165,0.0132,-0.0085,293,2019-08-07 16:24:11:015
4.7206,-8.3922,1.7974,-0.0552,-0.0969,-0.0796,0.0165,0.0132,-0.0085,298,2019-08-07 16:24:11:020
4.7206,-8.3922,1.7974,-0.0552,-0.0969,-0.0796,0.0059,0.0036,-0.0106,302,2019-08-07 16:24:11:024
4.7206,-8.3922,1.7974,-0.0552,-0.0969,-0.0796,0.0059,0.0036,-0.0106,308,2019-08-07 16:24:11:030
4.7397,-8.3683,1.9011,-0.0583,-0.0761,-0.1656,-0.0069,-0.0134,-0.017,313,2019-08-07 16:24:11:035
4.7397,-8.3683,1.9011,-0.0583,-0.0761,-0.1656,-0.0069,-0.0134,-0.017,318,2019-08-07 16:24:11:040
4.8067,-8.3731,1.8162,-0.0583,-0.0761,-0.1656,-0.0069,-0.0134,-0.017,322,2019-08-07 16:24:11:044
4.8067,-8.3731,1.8162,-0.0583,-0.0761,-0.1656,-0.0175,-0.0347,-0.0191,328,2019-08-07 16:24:11:050
4.8067,-8.3731,1.8162,-0.2064,-0.0884,-0.0843,-0.0175,-0.0347,-0.0191,333,2019-08-07 16:24:11:055
4.9837,-8.4065,1.8492,-0.2064,-0.0884,-0.0843,-0.0197,-0.0187,-0.017,337,2019-08-07 16:24:11:059
4.9837,-8.4065,1.8492,-0.2064,-0.0884,-0.0843,-0.0197,-0.0187,-0.017,343,2019-08-07 16:24:11:065
5.0986,-8.2872,1.7974,-0.2064,-0.0884,-0.0843,-0.0069,-0.0155,-0.0202,349,2019-08-07 16:24:11:071
5.0986,-8.2872,1.7974,-0.3581,-0.1716,-0.0218,-0.0069,-0.0155,-0.0202,352,2019-08-07 16:24:11:074
5.0986,-8.2872,1.7974,-0.3581,-0.1716,-0.0218,6.0E-4,-0.0081,-0.0095,358,2019-08-07 16:24:11:080
5.0986,-8.2824,1.7267,-0.3581,-0.1716,-0.0218,6.0E-4,-0.0081,-0.0095,363,2019-08-07 16:24:11:085
5.0986,-8.2824,1.7267,-0.3581,-0.1716,-0.0218,0.0112,-0.0102,0.0097,367,2019-08-07 16:24:11:089
5.0986,-8.2824,1.7267,-0.4256,-0.1742,0.0347,0.0112,-0.0102,0.0097,373,2019-08-07 16:24:11:095
5.1987,-8.2442,1.7172,-0.4256,-0.1742,0.0347,0.0144,0.0036,0.015,378,2019-08-07 16:24:11:100
5.1987,-8.2442,1.7172,-0.4256,-0.1742,0.0347,0.0144,0.0036,0.015,383,2019-08-07 16:24:11:105
5.1987,-8.2442,1.7172,-0.4256,-0.1742,0.0347,0.0261,0.0164,0.0182,388,2019-08-07 16:24:11:110
4.9738,-8.249,1.8539,-0.2771,-0.1876,-0.1215,0.0261,0.0164,0.0182,394,2019-08-07 16:24:11:116
4.9738,-8.249,1.8539,-0.2771,-0.1876,-0.1215,0.0261,0.0239,0.0171,399,2019-08-07 16:24:11:121
4.8829,-8.2824,1.7926,-0.2771,-0.1876,-0.1215,0.0261,0.0239,0.0171,403,2019-08-07 16:24:11:125
4.8829,-8.2824,1.7926,-0.2771,-0.1876,-0.1215,0.0261,0.0239,0.0171,408,2019-08-07 16:24:11:130
4.8829,-8.2824,1.7926,-0.0879,-0.1491,-0.1092,0.0229,0.0345,0.0086,413,2019-08-07 16:24:11:135
4.6963,-8.3062,1.8774,-0.0879,-0.1491,-0.1092,0.0229,0.0345,0.0086,417,2019-08-07 16:24:11:139
4.6963,-8.3062,1.8774,-0.0879,-0.1491,-0.1092,0.0133,0.0111,-0.0063,423,2019-08-07 16:24:11:145
4.6963,-8.3062,1.8774,-0.0879,-0.1491,-0.1092,0.0133,0.0111,-0.0063,428,2019-08-07 16:24:11:150
4.6915,-8.3062,1.8869,-0.035,-0.1193,-0.1373,-5.0E-4,-0.0187,-0.0116,433,2019-08-07 16:24:11:155
4.6915,-8.3062,1.8869,-0.035,-0.1193,-0.1373,-5.0E-4,-0.0187,-0.0116,437,2019-08-07 16:24:11:159
4.8016,-8.2537,1.9104,-0.035,-0.1193,-0.1373,-0.009,-0.0347,-0.0159,443,2019-08-07 16:24:11:165
4.8016,-8.2537,1.9104,-0.035,-0.1193,-0.1373,-0.009,-0.0347,-0.0159,448,2019-08-07 16:24:11:170
4.8016,-8.2537,1.9104,-0.2594,-0.2506,-0.0881,-0.0112,-0.0336,-0.017,453,2019-08-07 16:24:11:175
4.9499,-8.2299,1.769,-0.2594,-0.2506,-0.0881,-0.0112,-0.0336,-0.017,458,2019-08-07 16:24:11:180
4.9499,-8.2299,1.769,-0.2594,-0.2506,-0.0881,-0.0112,-0.0336,-0.017,463,2019-08-07 16:24:11:185
5.0121,-8.2728,1.7454,-0.2594,-0.2506,-0.0881,-0.009,-0.0198,-0.0191,467,2019-08-07 16:24:11:189
5.0121,-8.2728,1.7454,-0.3865,-0.1616,0.0164,-0.009,-0.0198,-0.0191,473,2019-08-07 16:24:11:195
5.0121,-8.2728,1.7454,-0.3865,-0.1616,0.0164,-0.0037,0.0058,-0.0148,478,2019-08-07 16:24:11:200
5.1078,-8.2633,1.7266,-0.3865,-0.1616,0.0164,-0.0037,0.0058,-0.0148,483,2019-08-07 16:24:11:205
5.1078,-8.2633,1.7266,-0.3865,-0.1616,0.0164,0.0027,0.0207,-0.018,487,2019-08-07 16:24:11:209
4.9403,-8.2537,1.6983,-0.2281,-0.1728,0.0409,0.0027,0.0207,-0.018,493,2019-08-07 16:24:11:215
4.9403,-8.2537,1.6983,-0.2281,-0.1728,0.0409,0.0059,0.026,-0.018,498,2019-08-07 16:24:11:220
4.9403,-8.2537,1.6983,-0.2281,-0.1728,0.0409,0.0059,0.026,-0.018,502,2019-08-07 16:24:11:224
4.8398,-8.3158,1.736,-0.2281,-0.1728,0.0409,0.0059,0.026,-0.018,508,2019-08-07 16:24:11:230
4.8398,-8.3158,1.736,-0.0428,-0.0795,-0.0551,0.0059,0.0026,-0.0159,513,2019-08-07 16:24:11:235
4.8111,-8.3301,1.7926,-0.0428,-0.0795,-0.0551,0.0059,0.0026,-0.0159,518,2019-08-07 16:24:11:240
4.8111,-8.3301,1.7926,-0.0428,-0.0795,-0.0551,0.0038,-0.0187,-0.0159,523,2019-08-07 16:24:11:245
4.8111,-8.3301,1.7926,-0.0428,-0.0795,-0.0551,0.0038,-0.0187,-0.0159,528,2019-08-07 16:24:11:250
4.8685,-8.3253,1.7973,-0.1962,-0.0963,7.0E-4,-0.0016,-0.024,-0.0223,532,2019-08-07 16:24:11:254
4.8685,-8.3253,1.7973,-0.1962,-0.0963,7.0E-4,-0.0016,-0.024,-0.0223,538,2019-08-07 16:24:11:260
4.9307,-8.249,1.6889,-0.1962,-0.0963,7.0E-4,6.0E-4,-0.0102,-0.0255,542,2019-08-07 16:24:11:264
4.9307,-8.249,1.6889,-0.1962,-0.0963,7.0E-4,6.0E-4,-0.0102,-0.0255,548,2019-08-07 16:24:11:270
4.9307,-8.249,1.6889,-0.2088,-0.1359,0.0839,0.0016,0.0036,-0.0276,553,2019-08-07 16:24:11:275
4.9451,-8.3062,1.6842,-0.2088,-0.1359,0.0839,0.0016,0.0036,-0.0276,557,2019-08-07 16:24:11:279
4.9451,-8.3062,1.6842,-0.2088,-0.1359,0.0839,0.0038,0.0079,-0.0234,563,2019-08-07 16:24:11:285
4.9164,-8.3015,1.7407,-0.2088,-0.1359,0.0839,0.0038,0.0079,-0.0234,567,2019-08-07 16:24:11:289
4.9164,-8.3015,1.7407,-0.2366,-0.0991,0.0707,0.0133,-0.0081,-0.0191,573,2019-08-07 16:24:11:295
4.9164,-8.3015,1.7407,-0.2366,-0.0991,0.0707,0.0133,-0.0081,-0.0191,578,2019-08-07 16:24:11:300
4.9881,-8.2585,1.7784,-0.2366,-0.0991,0.0707,0.0165,-0.0123,-0.0212,583,2019-08-07 16:24:11:305
4.9881,-8.2585,1.7784,-0.2366,-0.0991,0.0707,0.0165,-0.0123,-0.0212,588,2019-08-07 16:24:11:310
4.9881,-8.2585,1.7784,-0.2641,-0.1193,0.077,0.0165,-0.0123,-0.0212,594,2019-08-07 16:24:11:316
4.969,-8.2585,1.7313,-0.2641,-0.1193,0.077,0.0144,-0.0113,-0.0212,598,2019-08-07 16:24:11:320
4.969,-8.2585,1.7313,-0.2641,-0.1193,0.077,0.0144,-0.0113,-0.0212,602,2019-08-07 16:24:11:324
4.969,-8.2585,1.7313,-0.2641,-0.1193,0.077,0.0027,-0.0081,-0.0191,608,2019-08-07 16:24:11:330
4.9164,-8.3253,1.7926,-0.2641,-0.1193,0.077,0.0027,-0.0081,-0.0191,613,2019-08-07 16:24:11:335
4.9164,-8.3253,1.7926,-0.1203,-0.0972,-0.1063,6.0E-4,-0.0209,-0.0138,618,2019-08-07 16:24:11:340
4.9164,-8.3253,1.7926,-0.1203,-0.0972,-0.1063,6.0E-4,-0.0209,-0.0138,622,2019-08-07 16:24:11:344
4.8063,-8.3731,1.8161,-0.1203,-0.0972,-0.1063,-0.0026,-0.0304,-0.0138,628,2019-08-07 16:24:11:350
4.8063,-8.3731,1.8161,-0.1203,-0.0972,-0.1063,-0.0026,-0.0304,-0.0138,633,2019-08-07 16:24:11:355
4.8111,-8.3206,1.835,-0.0778,-0.1001,-0.0615,-0.0133,-0.0379,-0.0159,638,2019-08-07 16:24:11:360
4.8111,-8.3206,1.835,-0.0778,-0.1001,-0.0615,-0.0133,-0.0379,-0.0159,643,2019-08-07 16:24:11:365
4.9499,-8.3778,1.769,-0.0778,-0.1001,-0.0615,-0.0143,-0.0336,-0.0191,648,2019-08-07 16:24:11:370
4.9499,-8.3778,1.769,-0.0778,-0.1001,-0.0615,-0.0143,-0.0336,-0.0191,653,2019-08-07 16:24:11:375
4.9499,-8.3778,1.769,-0.2206,-0.0217,-0.0103,-0.0143,-0.0336,-0.0191,657,2019-08-07 16:24:11:379
4.9546,-8.3588,1.7313,-0.2206,-0.0217,-0.0103,-0.008,-0.0145,-0.0276,663,2019-08-07 16:24:11:385
4.9546,-8.3588,1.7313,-0.2206,-0.0217,-0.0103,-0.008,-0.0145,-0.0276,668,2019-08-07 16:24:11:390
4.9546,-8.3588,1.7313,-0.2206,-0.0217,-0.0103,0.0059,0.0015,-0.0255,673,2019-08-07 16:24:11:395
4.969,-8.3588,1.7077,-0.2094,-0.0423,0.0259,0.0059,0.0015,-0.0255,678,2019-08-07 16:24:11:400
4.969,-8.3588,1.7077,-0.2094,-0.0423,0.0259,0.0229,0.0175,-0.0266,683,2019-08-07 16:24:11:405
4.9498,-8.3158,1.7171,-0.2094,-0.0423,0.0259,0.0229,0.0175,-0.0266,687,2019-08-07 16:24:11:409
4.9498,-8.3158,1.7171,-0.2094,-0.0423,0.0259,0.0283,0.0079,-0.0202,692,2019-08-07 16:24:11:414
4.9498,-8.3158,1.7171,-0.1949,-0.0765,-0.0298,0.0283,0.0079,-0.0202,699,2019-08-07 16:24:11:421
4.9738,-8.2967,1.8161,-0.1949,-0.0765,-0.0298,0.0336,0.0058,-0.018,702,2019-08-07 16:24:11:424
4.9738,-8.2967,1.8161,-0.1949,-0.0765,-0.0298,0.0336,0.0058,-0.018,708,2019-08-07 16:24:11:430
4.9355,-8.2585,1.769,-0.1949,-0.0765,-0.0298,0.0251,-0.0017,-0.0127,713,2019-08-07 16:24:11:435
4.9355,-8.2585,1.769,-0.1427,-0.0681,-0.0196,0.0251,-0.0017,-0.0127,718,2019-08-07 16:24:11:440
4.9355,-8.2585,1.769,-0.1427,-0.0681,-0.0196,0.0155,-0.0049,-0.0148,722,2019-08-07 16:24:11:444
4.9451,-8.2728,1.7784,-0.1742,-0.1192,-0.0324,0.0155,-0.0049,-0.0148,728,2019-08-07 16:24:11:450
4.9451,-8.2728,1.7784,-0.1742,-0.1192,-0.0324,0.0038,-0.0081,-0.017,733,2019-08-07 16:24:11:455
4.9451,-8.2728,1.7784,-0.1742,-0.1192,-0.0324,0.0038,-0.0081,-0.017,737,2019-08-07 16:24:11:459
4.8924,-8.3492,1.7926,-0.1742,-0.1192,-0.0324,-0.0058,-0.0081,-0.017,743,2019-08-07 16:24:11:465
4.8924,-8.3492,1.7926,-0.1176,-0.0693,-0.0373,-0.0058,-0.0081,-0.017,749,2019-08-07 16:24:11:471
4.8063,-8.2967,1.7596,-0.1176,-0.0693,-0.0373,-0.0058,-0.0081,-0.017,752,2019-08-07 16:24:11:474
4.8063,-8.2967,1.7596,-0.1176,-0.0693,-0.0373,-0.0048,-0.007,-0.0223,758,2019-08-07 16:24:11:480
4.8063,-8.2967,1.7596,-0.1176,-0.0693,-0.0373,-0.0048,-0.007,-0.0223,763,2019-08-07 16:24:11:485
4.8302,-8.3062,1.7643,-0.0512,-0.0815,-0.0202,-0.0016,-0.0336,-0.017,768,2019-08-07 16:24:11:490
4.8302,-8.3062,1.7643,-0.0512,-0.0815,-0.0202,-0.0016,-0.0336,-0.017,773,2019-08-07 16:24:11:495
4.8302,-8.3062,1.7643,-0.0512,-0.0815,-0.0202,-0.0016,-0.0475,-0.018,778,2019-08-07 16:24:11:500
4.9785,-8.2824,1.6464,-0.0512,-0.0815,-0.0202,-0.0016,-0.0475,-0.018,783,2019-08-07 16:24:11:505
4.9785,-8.2824,1.6464,-0.2128,-0.084,0.1355,0.007,-0.039,-0.0159,788,2019-08-07 16:24:11:510
5.0646,-8.2155,1.67,-0.2128,-0.084,0.1355,0.007,-0.039,-0.0159,794,2019-08-07 16:24:11:516
5.0646,-8.2155,1.67,-0.2128,-0.084,0.1355,0.0133,-0.0283,-0.0191,798,2019-08-07 16:24:11:520
5.0551,-8.2728,1.6794,-0.2128,-0.084,0.1355,0.0133,-0.0283,-0.0191,803,2019-08-07 16:24:11:525
5.0551,-8.2728,1.6794,-0.2406,-0.1046,0.0695,0.0133,-0.0283,-0.0191,807,2019-08-07 16:24:11:529
5.0551,-8.2728,1.6794,-0.2406,-0.1046,0.0695,0.0325,0.0079,-0.0191,813,2019-08-07 16:24:11:535
4.8637,-8.2728,1.6936,-0.2406,-0.1046,0.0695,0.0325,0.0079,-0.0191,817,2019-08-07 16:24:11:539
4.8637,-8.2728,1.6936,-0.2406,-0.1046,0.0695,0.0315,0.0132,-0.0255,823,2019-08-07 16:24:11:545
4.8637,-8.2728,1.6936,0.0699,-0.1056,0.0663,0.0315,0.0132,-0.0255,827,2019-08-07 16:24:11:549
4.7154,-8.2824,1.7501,0.0699,-0.1056,0.0663,0.0251,5.0E-4,-0.0351,832,2019-08-07 16:24:11:554
4.7154,-8.2824,1.7501,0.0699,-0.1056,0.0663,0.0251,5.0E-4,-0.0351,838,2019-08-07 16:24:11:560
4.7154,-8.2824,1.7501,0.0699,-0.1056,0.0663,0.0165,-0.0262,-0.0425,842,2019-08-07 16:24:11:564
4.5766,-8.2967,1.7878,0.2057,-0.1062,-0.0211,0.0165,-0.0262,-0.0425,848,2019-08-07 16:24:11:570
4.5766,-8.2967,1.7878,0.2057,-0.1062,-0.0211,0.0102,-0.0613,-0.0575,852,2019-08-07 16:24:11:574
4.6723,-8.2871,1.703,0.2057,-0.1062,-0.0211,0.0102,-0.0613,-0.0575,858,2019-08-07 16:24:11:580
4.6723,-8.2871,1.703,0.2057,-0.1062,-0.0211,0.008,-0.0826,-0.0734,863,2019-08-07 16:24:11:585
4.6723,-8.2871,1.703,0.1139,-0.0567,0.0721,0.008,-0.0826,-0.0734,868,2019-08-07 16:24:11:590
4.7058,-8.3635,1.6464,0.1139,-0.0567,0.0721,0.0133,-0.072,-0.0947,873,2019-08-07 16:24:11:595
4.7058,-8.3635,1.6464,0.1139,-0.0567,0.0721,0.0133,-0.072,-0.0947,878,2019-08-07 16:24:11:600
4.7154,-8.3206,1.5899,0.1139,-0.0567,0.0721,0.0293,-0.0677,-0.1139,884,2019-08-07 16:24:11:606
4.7154,-8.3206,1.5899,0.153,-0.0507,0.1769,0.0293,-0.0677,-0.1139,888,2019-08-07 16:24:11:610
4.7154,-8.3206,1.5899,0.153,-0.0507,0.1769,0.0453,-0.0645,-0.1331,892,2019-08-07 16:24:11:614
4.6388,-8.3206,1.5192,0.153,-0.0507,0.1769,0.0453,-0.0645,-0.1331,898,2019-08-07 16:24:11:620
4.6388,-8.3206,1.5192,0.153,-0.0507,0.1769,0.057,-0.0667,-0.1533,902,2019-08-07 16:24:11:624
4.5192,-8.3826,1.5333,0.3415,0.041,0.2065,0.057,-0.0667,-0.1533,908,2019-08-07 16:24:11:630
4.5192,-8.3826,1.5333,0.3415,0.041,0.2065,0.0794,-0.0805,-0.1714,913,2019-08-07 16:24:11:635
4.5192,-8.3826,1.5333,0.3415,0.041,0.2065,0.0794,-0.0805,-0.1714,918,2019-08-07 16:24:11:640
4.3183,-8.4494,1.4296,0.3415,0.041,0.2065,0.0932,-0.105,-0.197,922,2019-08-07 16:24:11:644
4.3183,-8.4494,1.4296,0.7368,0.1128,0.243,0.0932,-0.105,-0.197,928,2019-08-07 16:24:11:650
4.0934,-8.4542,1.4484,0.7368,0.1128,0.243,0.0996,-0.154,-0.2151,933,2019-08-07 16:24:11:655
4.0934,-8.4542,1.4484,0.7368,0.1128,0.243,0.0996,-0.154,-0.2151,938,2019-08-07 16:24:11:660
4.0934,-8.4542,1.4484,0.7368,0.1128,0.243,0.1156,-0.2019,-0.2386,944,2019-08-07 16:24:11:666
3.8112,-8.4542,1.5003,1.1728,0.0974,0.2749,0.1156,-0.2019,-0.2386,947,2019-08-07 16:24:11:669
3.8112,-8.4542,1.5003,1.1728,0.0974,0.2749,0.1476,-0.2605,-0.2684,953,2019-08-07 16:24:11:675
3.5815,-8.3635,1.4107,1.1728,0.0974,0.2749,0.1476,-0.2605,-0.2684,958,2019-08-07 16:24:11:680
3.5815,-8.3635,1.4107,1.1728,0.0974,0.2749,0.1806,-0.3127,-0.3014,963,2019-08-07 16:24:11:685
3.5815,-8.3635,1.4107,1.6105,-0.0738,0.3238,0.1806,-0.3127,-0.3014,968,2019-08-07 16:24:11:690
3.3327,-8.1773,1.3636,1.6105,-0.0738,0.3238,0.2126,-0.3735,-0.3632,972,2019-08-07 16:24:11:694
3.3327,-8.1773,1.3636,1.6105,-0.0738,0.3238,0.2126,-0.3735,-0.3632,978,2019-08-07 16:24:11:700
3.3327,-8.1773,1.3636,1.6105,-0.0738,0.3238,0.252,-0.4352,-0.4601,982,2019-08-07 16:24:11:704
3.0265,-7.8336,1.307,1.6105,-0.0738,0.3238,0.252,-0.4352,-0.4601,988,2019-08-07 16:24:11:710
3.0265,-7.8336,1.307,2.1633,-0.5018,0.4382,0.252,-0.4352,-0.4601,993,2019-08-07 16:24:11:715
2.6438,-7.4851,1.3117,2.1633,-0.5018,0.4382,0.3361,-0.481,-0.6434,998,2019-08-07 16:24:11:720
2.6438,-7.4851,1.3117,2.1633,-0.5018,0.4382,0.3361,-0.481,-0.6434,1003,2019-08-07 16:24:11:725
2.6438,-7.4851,1.3117,2.1633,-0.5018,0.4382,0.4288,-0.4448,-0.8649,1007,2019-08-07 16:24:11:729
2.1319,-7.0125,1.3777,3.0465,-1.1337,0.3714,0.4288,-0.4448,-0.8649,1013,2019-08-07 16:24:11:735
2.1319,-7.0125,1.3777,3.0465,-1.1337,0.3714,0.5311,-0.3,-1.1653,1018,2019-08-07 16:24:11:740
2.1319,-7.0125,1.3777,3.0465,-1.1337,0.3714,0.5311,-0.3,-1.1653,1023,2019-08-07 16:24:11:745
1.9166,-6.3251,-0.0317,3.0465,-1.1337,0.3714,0.6003,0.0218,-1.5542,1028,2019-08-07 16:24:11:750
1.9166,-6.3251,-0.0317,3.2317,-1.7977,2.5745,0.6003,0.0218,-1.5542,1032,2019-08-07 16:24:11:754
1.8592,-6.0339,-1.3138,3.2317,-1.7977,2.5745,0.6248,0.6599,-2.0815,1038,2019-08-07 16:24:11:760
1.8592,-6.0339,-1.3138,3.2317,-1.7977,2.5745,0.6248,0.6599,-2.0815,1044,2019-08-07 16:24:11:766
-0.4181,-5.8048,-1.3893,3.2317,-1.7977,2.5745,0.6717,1.6005,-2.6972,1048,2019-08-07 16:24:11:770
-0.4181,-5.8048,-1.3893,7.034,-2.0241,3.3864,0.6717,1.6005,-2.6972,1053,2019-08-07 16:24:11:775
-0.4181,-5.8048,-1.3893,7.034,-2.0241,3.3864,0.8986,2.8309,-3.4471,1058,2019-08-07 16:24:11:780
-6.1018,-6.454,-0.8378,7.034,-2.0241,3.3864,0.8986,2.8309,-3.4471,1063,2019-08-07 16:24:11:785
-6.1018,-6.454,-0.8378,7.034,-2.0241,3.3864,1.2107,3.4849,-4.0852,1067,2019-08-07 16:24:11:789
-6.1018,-6.454,-0.8378,14.8542,-0.6729,3.6025,1.2107,3.4849,-4.0852,1073,2019-08-07 16:24:11:795
-10.3837,-8.0866,-2.5253,14.8542,-0.6729,3.6025,1.3577,3.7427,-4.5358,1078,2019-08-07 16:24:11:800
-10.3837,-8.0866,-2.5253,14.8542,-0.6729,3.6025,1.3577,3.7427,-4.5358,1084,2019-08-07 16:24:11:806
-10.3837,-8.0866,-2.5253,14.8542,-0.6729,3.6025,1.3939,3.6863,-5.3284,1087,2019-08-07 16:24:11:809
-16.1918,-10.9748,-2.8034,22.6457,4.2818,5.9319,1.3939,3.6863,-5.3284,1093,2019-08-07 16:24:11:815
-16.1918,-10.9748,-2.8034,22.6457,4.2818,5.9319,1.5314,3.567,-5.8312,1098,2019-08-07 16:24:11:820
-17.2539,-15.3428,-6.565,22.6457,4.2818,5.9319,1.5314,3.567,-5.8312,1103,2019-08-07 16:24:11:825
-17.2539,-15.3428,-6.565,22.6457,4.2818,5.9319,1.5314,3.567,-5.8312,1108,2019-08-07 16:24:11:830
-17.2539,-15.3428,-6.565,25.1254,11.8358,11.7965,1.803,3.7736,-6.955,1113,2019-08-07 16:24:11:835
-20.2345,-18.2215,-9.1859,25.1254,11.8358,11.7965,1.803,3.7736,-6.955,1118,2019-08-07 16:24:11:840
-20.2345,-18.2215,-9.1859,25.1254,11.8358,11.7965,2.2472,4.2338,-7.607,1123,2019-08-07 16:24:11:845
-20.2345,-18.2215,-9.1859,25.1254,11.8358,11.7965,2.2472,4.2338,-7.607,1128,2019-08-07 16:24:11:850
-22.8419,-20.1262,-5.0,29.711,15.7612,8.2098,3.0387,4.1518,-7.313,1133,2019-08-07 16:24:11:855
-22.8419,-20.1262,-5.0,29.711,15.7612,8.2098,3.0387,4.1518,-7.313,1138,2019-08-07 16:24:11:860
-22.8419,-20.1262,-5.0,29.711,15.7612,8.2098,4.6909,2.8703,-7.0328,1143,2019-08-07 16:24:11:865
-14.4934,-24.1362,-0.0411,29.711,15.7612,8.2098,4.6909,2.8703,-7.0328,1148,2019-08-07 16:24:11:870
-14.4934,-24.1362,-0.0411,15.6321,20.207,5.604,4.6909,2.8703,-7.0328,1153,2019-08-07 16:24:11:875
-5.6091,-21.883,-0.1448,15.6321,20.207,5.604,6.7277,1.7443,-8.163,1158,2019-08-07 16:24:11:880
-5.6091,-21.883,-0.1448,15.6321,20.207,5.604,6.7277,1.7443,-8.163,1163,2019-08-07 16:24:11:885
-5.6091,-21.883,-0.1448,15.6321,20.207,5.604,8.5355,1.7677,-9.3114,1167,2019-08-07 16:24:11:889
-4.7288,-15.9205,-2.0303,12.9084,13.3353,12.2665,8.5355,1.7677,-9.3114,1173,2019-08-07 16:24:11:895
-4.7288,-15.9205,-2.0303,12.9084,13.3353,12.2665,9.9789,3.8354,-9.8217,1178,2019-08-07 16:24:11:900
-5.1354,-8.1344,-12.1839,12.9084,13.3353,12.2665,9.9789,3.8354,-9.8217,1184,2019-08-07 16:24:11:906
-5.1354,-8.1344,-12.1839,12.9084,13.3353,12.2665,10.6042,4.9901,-10.0454,1188,2019-08-07 16:24:11:910
-5.1354,-8.1344,-12.1839,12.9084,13.3353,12.2665,10.6042,4.9901,-10.0454,1193,2019-08-07 16:24:11:915
-2.1118,0.3869,-3.831,9.1811,1.3556,10.4056,10.6042,4.9901,-10.0454,1198,2019-08-07 16:24:11:920
-2.1118,0.3869,-3.831,9.1811,1.3556,10.4056,11.8367,2.4218,-9.5862,1203,2019-08-07 16:24:11:925
-34.5537,137.7249,69.0209,9.1811,1.3556,10.4056,11.8367,2.4218,-9.5862,1208,2019-08-07 16:24:11:930
-34.5537,137.7249,69.0209,9.1811,1.3556,10.4056,13.5092,-10.878,-5.3444,1212,2019-08-07 16:24:11:934
-2.7194,122.0668,-17.4021,23.6653,-133.4834,3.858,13.5092,-10.878,-5.3444,1218,2019-08-07 16:24:11:940
-2.7194,122.0668,-17.4021,23.6653,-133.4834,3.858,9.4686,-12.7188,-6.3968,1223,2019-08-07 16:24:11:945
-2.7194,122.0668,-17.4021,23.6653,-133.4834,3.858,9.4686,-12.7188,-6.3968,1228,2019-08-07 16:24:11:950
22.3405,66.2656,-56.522,-19.0708,-57.0052,62.9699,2.864,-17.2579,-3.5963,1234,2019-08-07 16:24:11:956
22.3405,66.2656,-56.522,-19.0708,-57.0052,62.9699,2.864,-17.2579,-3.5963,1237,2019-08-07 16:24:11:959
22.3405,66.2656,-56.522,-19.0708,-57.0052,62.9699,2.864,-17.2579,-3.5963,1243,2019-08-07 16:24:11:965
26.9812,48.8077,-74.5287,-19.0708,-57.0052,62.9699,-4.8911,-15.8304,1.7972,1248,2019-08-07 16:24:11:970
26.9812,48.8077,-74.5287,-30.4776,-22.183,50.4143,-4.8911,-15.8304,1.7972,1253,2019-08-07 16:24:11:975
41.0038,21.7641,-44.2378,-30.4776,-22.183,50.4143,-8.153,1.3352,6.7975,1258,2019-08-07 16:24:11:980
41.0038,21.7641,-44.2378,-30.4776,-22.183,50.4143,-8.153,1.3352,6.7975,1263,2019-08-07 16:24:11:985
46.7592,4.3874,24.5037,-41.46,-0.8767,7.6914,-8.5929,6.2631,8.095,1268,2019-08-07 16:24:11:990
46.7592,4.3874,24.5037,-41.46,-0.8767,7.6914,-8.5929,6.2631,8.095,1273,2019-08-07 16:24:11:995
46.7592,4.3874,24.5037,-41.46,-0.8767,7.6914,-2.9513,8.8848,7.2162,1278,2019-08-07 16:24:12:000
36.4109,12.7415,48.4262,-25.5907,-9.9377,-25.3454,-2.9513,8.8848,7.2162,1283,2019-08-07 16:24:12:005
36.4109,12.7415,48.4262,-25.5907,-9.9377,-25.3454,3.7567,-2.2249,6.6239,1288,2019-08-07 16:24:12:010
36.4109,12.7415,48.4262,-25.5907,-9.9377,-25.3454,3.7567,-2.2249,6.6239,1292,2019-08-07 16:24:12:014
17.1591,20.752,7.4255,-25.5907,-9.9377,-25.3454,3.7567,-2.2249,6.6239,1298,2019-08-07 16:24:12:020
17.1591,20.752,7.4255,-0.6426,-30.2704,-3.1632,6.6212,5.036,6.3618,1303,2019-08-07 16:24:12:025
17.1591,20.752,7.4255,-0.6426,-30.2704,-3.1632,6.6212,5.036,6.3618,1308,2019-08-07 16:24:12:030
5.61,33.3358,-3.9017,-0.6426,-30.2704,-3.1632,3.6342,2.033,6.7741,1313,2019-08-07 16:24:12:035
5.61,33.3358,-3.9017,-0.6426,-30.2704,-3.1632,3.6342,2.033,6.7741,1319,2019-08-07 16:24:12:041
5.61,33.3358,-3.9017,-0.6426,-30.2704,-3.1632,-2.3377,-4.5344,7.867,1323,2019-08-07 16:24:12:045
2.3567,23.4206,-28.258,6.8359,-21.3587,30.9933,-2.3377,-4.5344,7.867,1328,2019-08-07 16:24:12:050
2.3567,23.4206,-28.258,6.8359,-21.3587,30.9933,-6.0384,-6.0225,9.221,1333,2019-08-07 16:24:12:055
7.6337,12.2069,-13.7913,6.8359,-21.3587,30.9933,-6.0384,-6.0225,9.221,1338,2019-08-07 16:24:12:060
7.6337,12.2069,-13.7913,6.8359,-21.3587,30.9933,-6.0384,-6.0225,9.221,1342,2019-08-07 16:24:12:064
7.6337,12.2069,-13.7913,-6.0706,-1.4125,3.9365,-7.5777,-2.4465,10.086,1348,2019-08-07 16:24:12:070
19.3312,-0.4533,12.2006,-6.0706,-1.4125,3.9365,-7.5777,-2.4465,10.086,1353,2019-08-07 16:24:12:075
19.3312,-0.4533,12.2006,-6.0706,-1.4125,3.9365,-3.9207,-5.4026,8.2963,1358,2019-08-07 16:24:12:080
14.8914,-7.4851,10.4,-6.0706,-1.4125,3.9365,-3.9207,-5.4026,8.2963,1362,2019-08-07 16:24:12:084
14.8914,-7.4851,10.4,-3.7049,6.1697,-3.5142,-0.2434,-5.3131,6.7102,1369,2019-08-07 16:24:12:091
14.8914,-7.4851,10.4,-3.7049,6.1697,-3.5142,-0.2434,-5.3131,6.7102,1373,2019-08-07 16:24:12:095
13.3221,-9.366,-1.0735,-3.7049,6.1697,-3.5142,1.2107,1.3214,5.9506,1378,2019-08-07 16:24:12:100
13.3221,-9.366,-1.0735,-3.7049,6.1697,-3.5142,1.2107,1.3214,5.9506,1383,2019-08-07 16:24:12:105
13.3221,-9.366,-1.0735,-1.0456,3.9687,-3.5312,1.2107,1.3214,5.9506,1388,2019-08-07 16:24:12:110
4.2656,-5.1221,-0.9509,-1.0456,3.9687,-3.5312,-0.5757,0.7152,6.4002,1393,2019-08-07 16:24:12:115
4.2656,-5.1221,-0.9509,-1.0456,3.9687,-3.5312,-0.5757,0.7152,6.4002,1398,2019-08-07 16:24:12:120
-0.112,-2.9595,-2.4452,-1.0456,3.9687,-3.5312,-1.7188,2.4143,7.785,1403,2019-08-07 16:24:12:125
-0.112,-2.9595,-2.4452,7.289,-0.5873,-2.6903,-1.7188,2.4143,7.785,1408,2019-08-07 16:24:12:130
-0.112,-2.9595,-2.4452,7.289,-0.5873,-2.6903,-1.6431,3.3986,8.3326,1413,2019-08-07 16:24:12:135
2.5911,-4.7831,6.8269,7.289,-0.5873,-2.6903,-1.6431,3.3986,8.3326,1418,2019-08-07 16:24:12:140
2.5911,-4.7831,6.8269,7.289,-0.5873,-2.6903,-0.3243,3.2282,7.8969,1423,2019-08-07 16:24:12:145
2.5911,-4.7831,6.8269,5.7462,-0.0562,0.8372,-0.3243,3.2282,7.8969,1428,2019-08-07 16:24:12:150
1.395,-5.4801,1.2834,5.7462,-0.0562,0.8372,-0.3659,3.9611,7.0436,1434,2019-08-07 16:24:12:156
1.395,-5.4801,1.2834,5.7462,-0.0562,0.8372,-0.3659,3.9611,7.0436,1438,2019-08-07 16:24:12:160
1.395,-5.4801,1.2834,5.7462,-0.0562,0.8372,-0.3659,3.9611,7.0436,1443,2019-08-07 16:24:12:165
-5.1737,-3.5563,0.0343,13.1215,-3.7149,1.8149,-0.8911,3.3656,6.4939,1448,2019-08-07 16:24:12:170
-5.1737,-3.5563,0.0343,13.1215,-3.7149,1.8149,-0.8911,3.3656,6.4939,1453,2019-08-07 16:24:12:175
-5.1737,-3.5563,0.0343,13.1215,-3.7149,1.8149,-1.152,2.8,6.4918,1458,2019-08-07 16:24:12:180
-10.7282,-4.0528,2.6175,13.1215,-3.7149,1.8149,-1.152,2.8,6.4918,1462,2019-08-07 16:24:12:184
-10.7282,-4.0528,2.6175,16.1275,-2.5103,0.045,-0.8058,2.3781,6.5685,1468,2019-08-07 16:24:12:190
-9.4221,-7.8002,-0.3758,16.1275,-2.5103,0.045,-0.8058,2.3781,6.5685,1473,2019-08-07 16:24:12:195
-9.4221,-7.8002,-0.3758,16.1275,-2.5103,0.045,-0.4255,2.4719,6.1861,1478,2019-08-07 16:24:12:200
-9.4221,-7.8002,-0.3758,16.1275,-2.5103,0.045,-0.4255,2.4719,6.1861,1483,2019-08-07 16:24:12:205
-6.743,-10.4163,-1.3657,11.1118,1.9774,3.802,-0.0953,3.4732,4.8822,1488,2019-08-07 16:24:12:210
-6.743,-10.4163,-1.3657,11.1118,1.9774,3.802,-0.0953,3.4732,4.8822,1493,2019-08-07 16:24:12:215
-6.743,-10.4163,-1.3657,11.1118,1.9774,3.802,-0.0953,3.4732,4.8822,1497,2019-08-07 16:24:12:219
-5.7861,-8.8504,0.6848,11.1118,1.9774,3.802,0.3489,4.3031,3.4537,1503,2019-08-07 16:24:12:225
-5.7861,-8.8504,0.6848,9.8532,-2.1207,2.5352,0.3489,4.3031,3.4537,1508,2019-08-07 16:24:12:230
-7.2788,-5.2176,-0.0364,9.8532,-2.1207,2.5352,0.6823,4.5545,2.0954,1513,2019-08-07 16:24:12:235
-7.2788,-5.2176,-0.0364,11.0173,-4.8241,3.1276,0.6823,4.5545,2.0954,1519,2019-08-07 16:24:12:241
-7.2788,-5.2176,-0.0364,11.0173,-4.8241,3.1276,0.611,3.7417,1.0344,1523,2019-08-07 16:24:12:245
-7.9725,-2.7877,-1.0687,11.0173,-4.8241,3.1276,0.611,3.7417,1.0344,1528,2019-08-07 16:24:12:250
-7.9725,-2.7877,-1.0687,11.0173,-4.8241,3.1276,0.3148,2.3707,0.6744,1533,2019-08-07 16:24:12:255
-7.9725,-2.7877,-1.0687,8.199,-5.3115,3.5341,0.3148,2.3707,0.6744,1538,2019-08-07 16:24:12:260
-4.8149,-3.8332,0.1191,8.199,-5.3115,3.5341,0.3148,2.3707,0.6744,1543,2019-08-07 16:24:12:265
-4.8149,-3.8332,0.1191,8.199,-5.3115,3.5341,-0.0165,0.4702,0.489,1548,2019-08-07 16:24:12:270
-1.466,-4.7593,-0.2485,8.199,-5.3115,3.5341,-0.0165,0.4702,0.489,1553,2019-08-07 16:24:12:275
-1.466,-4.7593,-0.2485,2.5221,-4.0336,2.1274,-0.0623,-0.839,0.2429,1558,2019-08-07 16:24:12:280
-1.466,-4.7593,-0.2485,2.5221,-4.0336,2.1274,-0.0623,-0.839,0.2429,1563,2019-08-07 16:24:12:285
2.5815,-5.251,-0.225,2.5221,-4.0336,2.1274,-0.0623,-0.839,0.2429,1568,2019-08-07 16:24:12:290
2.5815,-5.251,-0.225,2.5221,-4.0336,2.1274,0.3095,-0.9242,0.1151,1572,2019-08-07 16:24:12:294
2.5815,-5.251,-0.225,2.5221,-4.0336,2.1274,0.3095,-0.9242,0.1151,1578,2019-08-07 16:24:12:300
4.7679,-5.2223,-1.3469,-2.2204,-3.7034,4.5214,0.3947,-0.8752,0.1449,1583,2019-08-07 16:24:12:305
4.7679,-5.2223,-1.3469,-2.2204,-3.7034,4.5214,0.3947,-0.8752,0.1449,1589,2019-08-07 16:24:12:311
5.8826,-5.3274,-1.9408,-2.2204,-3.7034,4.5214,0.399,0.1091,0.1865,1593,2019-08-07 16:24:12:315
5.8826,-5.3274,-1.9408,-3.2638,-3.4874,4.4823,0.399,0.1091,0.1865,1598,2019-08-07 16:24:12:320
5.8826,-5.3274,-1.9408,-3.2638,-3.4874,4.4823,0.399,0.1091,0.1865,1603,2019-08-07 16:24:12:325
4.0168,-5.3656,0.0201,-3.2638,-3.4874,4.4823,0.2488,0.9784,0.0842,1608,2019-08-07 16:24:12:330
4.0168,-5.3656,0.0201,-3.2638,-3.4874,4.4823,0.2488,0.9784,0.0842,1613,2019-08-07 16:24:12:335
4.0168,-5.3656,0.0201,0.8398,-3.1171,1.5091,0.1944,1.3406,-0.0053,1618,2019-08-07 16:24:12:340
1.2706,-5.9814,2.1178,0.8398,-3.1171,1.5091,0.1944,1.3406,-0.0053,1623,2019-08-07 16:24:12:345
1.2706,-5.9814,2.1178,0.8398,-3.1171,1.5091,0.1731,1.2671,-0.0681,1628,2019-08-07 16:24:12:350
0.0602,-6.7165,3.2491,0.8398,-3.1171,1.5091,0.1731,1.2671,-0.0681,1633,2019-08-07 16:24:12:355
0.0602,-6.7165,3.2491,2.8008,-1.9164,-0.3578,0.1731,1.2671,-0.0681,1638,2019-08-07 16:24:12:360
0.0602,-6.7165,3.2491,2.8008,-1.9164,-0.3578,0.0283,0.7813,-0.1512,1643,2019-08-07 16:24:12:365
-0.4422,-6.9934,3.7205,2.8008,-1.9164,-0.3578,-0.0857,0.4255,-0.1757,1648,2019-08-07 16:24:12:370
-0.4422,-6.9934,3.7205,2.8008,-1.9164,-0.3578,-0.0857,0.4255,-0.1757,1653,2019-08-07 16:24:12:375
-0.4422,-6.9934,3.7205,2.8008,-1.9164,-0.3578,-0.0857,0.4255,-0.1757,1658,2019-08-07 16:24:12:380
0.4525,-7.0746,3.5414,1.9807,-1.8116,-0.1721,-0.2775,-0.0464,-0.1789,1663,2019-08-07 16:24:12:385
0.4525,-7.0746,3.5414,1.9807,-1.8116,-0.1721,-0.2775,-0.0464,-0.1789,1667,2019-08-07 16:24:12:389
1.8112,-7.466,3.2444,1.9807,-1.8116,-0.1721,-0.4575,-0.3138,-0.2332,1673,2019-08-07 16:24:12:395
1.8112,-7.466,3.2444,1.9807,-1.8116,-0.1721,-0.4575,-0.3138,-0.2332,1678,2019-08-07 16:24:12:400
1.8112,-7.466,3.2444,0.343,-1.4019,0.248,-0.4575,-0.3138,-0.2332,1682,2019-08-07 16:24:12:404
2.5432,-7.7525,2.4855,0.343,-1.4019,0.248,-0.5843,-0.399,-0.2641,1688,2019-08-07 16:24:12:410
2.5432,-7.7525,2.4855,0.343,-1.4019,0.248,-0.5843,-0.399,-0.2641,1693,2019-08-07 16:24:12:415
2.5432,-7.7525,2.4855,0.343,-1.4019,0.248,-0.6269,-0.3884,-0.2726,1697,2019-08-07 16:24:12:419
2.9642,-8.3014,2.2922,-0.4071,-0.6249,0.873,-0.6269,-0.3884,-0.2726,1703,2019-08-07 16:24:12:425
2.9642,-8.3014,2.2922,-0.4071,-0.6249,0.873,-0.6098,-0.3894,-0.278,1708,2019-08-07 16:24:12:430
2.8829,-8.9889,2.1319,-0.2865,0.0495,0.9636,-0.6098,-0.3894,-0.278,1713,2019-08-07 16:24:12:435
2.8829,-8.9889,2.1319,-0.2865,0.0495,0.9636,-0.5512,-0.4075,-0.2907,1717,2019-08-07 16:24:12:439
2.8829,-8.9889,2.1319,-0.2865,0.0495,0.9636,-0.5512,-0.4075,-0.2907,1723,2019-08-07 16:24:12:445
2.7537,-9.4901,2.5185,-0.2865,0.0495,0.9636,-0.4564,-0.4853,-0.279,1727,2019-08-07 16:24:12:449
2.7537,-9.4901,2.5185,-0.1261,0.5504,0.4887,-0.4564,-0.4853,-0.279,1734,2019-08-07 16:24:12:456
2.9833,-9.4472,2.3158,-0.1261,0.5504,0.4887,-0.3488,-0.5396,-0.2641,1737,2019-08-07 16:24:12:459
2.9833,-9.4472,2.3158,-0.1261,0.5504,0.4887,-0.3488,-0.5396,-0.2641,1743,2019-08-07 16:24:12:465
2.9833,-9.4472,2.3158,-0.1261,0.5504,0.4887,-0.2636,-0.5258,-0.2481,1748,2019-08-07 16:24:12:470
3.1986,-9.2467,2.1791,-0.4419,0.2808,0.693,-0.2636,-0.5258,-0.2481,1753,2019-08-07 16:24:12:475
3.1986,-9.2467,2.1791,-0.4419,0.2808,0.693,-0.1944,-0.4896,-0.2268,1758,2019-08-07 16:24:12:480
3.2895,-9.0366,2.6834,-0.4419,0.2808,0.693,-0.1944,-0.4896,-0.2268,1763,2019-08-07 16:24:12:485
3.2895,-9.0366,2.6834,-0.4419,0.2808,0.693,-0.1475,-0.4832,-0.2258,1769,2019-08-07 16:24:12:491
3.2895,-9.0366,2.6834,-0.4688,-0.1226,0.1005,-0.1475,-0.4832,-0.2258,1772,2019-08-07 16:24:12:494
3.2943,-8.755,2.6552,-0.4688,-0.1226,0.1005,-0.1475,-0.4832,-0.2258,1778,2019-08-07 16:24:12:500
3.2943,-8.755,2.6552,-0.5137,-0.2478,-0.0522,-0.1251,-0.481,-0.2279,1783,2019-08-07 16:24:12:505
3.2943,-8.755,2.6552,-0.5137,-0.2478,-0.0522,-0.1251,-0.481,-0.2279,1788,2019-08-07 16:24:12:510
3.5144,-8.7311,3.0181,-0.5137,-0.2478,-0.0522,-0.1145,-0.4512,-0.229,1793,2019-08-07 16:24:12:515
3.5144,-8.7311,3.0181,-0.5137,-0.2478,-0.0522,-0.1145,-0.4512,-0.229,1798,2019-08-07 16:24:12:520
3.5096,-8.817,2.8767,-0.5424,-0.0955,-0.2254,-0.0985,-0.4427,-0.2279,1804,2019-08-07 16:24:12:526
3.5096,-8.817,2.8767,-0.5424,-0.0955,-0.2254,-0.0985,-0.4427,-0.2279,1808,2019-08-07 16:24:12:530
3.3134,-9.0605,3.4754,-0.5424,-0.0955,-0.2254,-0.0431,-0.4107,-0.2258,1813,2019-08-07 16:24:12:535
3.3134,-9.0605,3.4754,-0.5424,-0.0955,-0.2254,-0.0431,-0.4107,-0.2258,1818,2019-08-07 16:24:12:540
3.3134,-9.0605,3.4754,-0.2276,0.041,-1.03,-0.0431,-0.4107,-0.2258,1823,2019-08-07 16:24:12:545
3.2465,-8.8648,3.8053,-0.2276,0.041,-1.03,0.0059,-0.4842,-0.2268,1828,2019-08-07 16:24:12:550
3.2465,-8.8648,3.8053,-0.2276,0.041,-1.03,0.0059,-0.4842,-0.2268,1833,2019-08-07 16:24:12:555
3.2465,-8.8648,3.8053,-0.2276,0.041,-1.03,-0.0293,-0.5311,-0.2034,1838,2019-08-07 16:24:12:560
3.5526,-8.5354,3.5319,-0.4792,-0.3868,-0.8515,-0.0293,-0.5311,-0.2034,1843,2019-08-07 16:24:12:565
3.5526,-8.5354,3.5319,-0.4792,-0.3868,-0.8515,-0.0293,-0.5311,-0.2034,1848,2019-08-07 16:24:12:570
3.5526,-8.5354,3.5319,-0.4792,-0.3868,-0.8515,-0.0836,-0.5183,-0.2013,1853,2019-08-07 16:24:12:575
3.9258,-8.4972,3.4188,-0.4792,-0.3868,-0.8515,-0.0836,-0.5183,-0.2013,1858,2019-08-07 16:24:12:580
3.9258,-8.4972,3.4188,-0.787,-0.3796,-0.587,-0.1283,-0.4693,-0.2162,1863,2019-08-07 16:24:12:585
3.9545,-8.564,3.169,-0.787,-0.3796,-0.587,-0.1283,-0.4693,-0.2162,1868,2019-08-07 16:24:12:590
3.9545,-8.564,3.169,-0.787,-0.3796,-0.587,-0.1667,-0.3969,-0.2204,1875,2019-08-07 16:24:12:597
3.9545,-8.564,3.169,-0.787,-0.3796,-0.587,-0.1667,-0.3969,-0.2204,1878,2019-08-07 16:24:12:600
4.0885,-8.9125,2.8437,-0.8779,0.0109,-0.2572,-0.1709,-0.3394,-0.2194,1884,2019-08-07 16:24:12:606
4.0885,-8.9125,2.8437,-0.8779,0.0109,-0.2572,-0.1709,-0.3394,-0.2194,1888,2019-08-07 16:24:12:610
4.0885,-8.9125,2.8437,-0.8779,0.0109,-0.2572,-0.1709,-0.3394,-0.2194,1892,2019-08-07 16:24:12:614
4.0646,-9.0605,2.6646,-0.823,0.1629,-0.1031,-0.1432,-0.2808,-0.2141,1898,2019-08-07 16:24:12:620
4.0646,-9.0605,2.6646,-0.823,0.1629,-0.1031,-0.1432,-0.2808,-0.2141,1903,2019-08-07 16:24:12:625
3.9067,-9.1846,2.7966,-0.823,0.1629,-0.1031,-0.0921,-0.2573,-0.1917,1908,2019-08-07 16:24:12:630
3.9067,-9.1846,2.7966,-0.4729,0.2867,-0.3138,-0.0921,-0.2573,-0.1917,1913,2019-08-07 16:24:12:635
3.9067,-9.1846,2.7966,-0.4729,0.2867,-0.3138,-0.0388,-0.3021,-0.1459,1918,2019-08-07 16:24:12:640
3.7536,-9.0223,2.8673,-0.4729,0.2867,-0.3138,-0.0388,-0.3021,-0.1459,1923,2019-08-07 16:24:12:645
3.7536,-9.0223,2.8673,-0.4729,0.2867,-0.3138,-0.0058,-0.3894,-0.082,1928,2019-08-07 16:24:12:650
4.0358,-8.8695,2.806,-0.7003,-0.0109,-0.3065,-5.0E-4,-0.4502,-0.0468,1934,2019-08-07 16:24:12:656
4.0358,-8.8695,2.806,-0.7003,-0.0109,-0.3065,-5.0E-4,-0.4502,-0.0468,1938,2019-08-07 16:24:12:660
4.0358,-8.8695,2.806,-0.7003,-0.0109,-0.3065,-5.0E-4,-0.4502,-0.0468,1943,2019-08-07 16:24:12:665
4.2607,-8.6929,2.7918,-0.7003,-0.0109,-0.3065,-0.008,-0.4874,-0.0106,1947,2019-08-07 16:24:12:669
4.2607,-8.6929,2.7918,-0.9107,-0.2744,-0.3758,-0.008,-0.4874,-0.0106,1953,2019-08-07 16:24:12:675
4.2607,-8.6929,2.7918,-0.9107,-0.2744,-0.3758,-0.0101,-0.4502,0.0139,1958,2019-08-07 16:24:12:680
4.3372,-8.5019,2.6033,-0.9107,-0.2744,-0.3758,-0.0101,-0.4502,0.0139,1963,2019-08-07 16:24:12:685
4.3372,-8.5019,2.6033,-0.9107,-0.2744,-0.3758,-0.0293,-0.3873,0.0139,1968,2019-08-07 16:24:12:690
4.4042,-8.4972,2.6693,-1.0094,-0.3782,-0.2321,-0.0293,-0.3873,0.0139,1973,2019-08-07 16:24:12:695
4.4042,-8.4972,2.6693,-1.0094,-0.3782,-0.2321,-0.0388,-0.2797,-0.0095,1978,2019-08-07 16:24:12:700
4.4042,-8.4972,2.6693,-1.0094,-0.3782,-0.2321,-0.0388,-0.2797,-0.0095,1983,2019-08-07 16:24:12:705
4.1698,-8.4351,2.6693,-1.0094,-0.3782,-0.2321,-0.0175,-0.138,-0.0511,1988,2019-08-07 16:24:12:710
4.1698,-8.4351,2.6693,-1.0094,-0.3782,-0.2321,-0.0175,-0.138,-0.0511,1993,2019-08-07 16:24:12:715
4.1698,-8.4351,2.6693,-0.4611,-0.489,-0.2398,-0.0175,-0.138,-0.0511,1998,2019-08-07 16:24:12:720
3.7488,-8.3587,2.7259,-0.4611,-0.489,-0.2398,-0.0058,-0.1157,-0.083,2003,2019-08-07 16:24:12:725
3.7488,-8.3587,2.7259,-0.4611,-0.489,-0.2398,-0.0058,-0.1157,-0.083,2008,2019-08-07 16:24:12:730
3.4282,-8.4256,2.971,0.0316,-0.4814,-0.5475,-0.0058,-0.1945,-0.099,2013,2019-08-07 16:24:12:735
3.4282,-8.4256,2.971,0.0316,-0.4814,-0.5475,-0.0058,-0.1945,-0.099,2018,2019-08-07 16:24:12:740
3.61,-8.4494,2.8343,0.0316,-0.4814,-0.5475,-0.025,-0.3905,-0.0937,2023,2019-08-07 16:24:12:745
3.61,-8.4494,2.8343,0.0316,-0.4814,-0.5475,-0.025,-0.3905,-0.0937,2028,2019-08-07 16:24:12:750
3.61,-8.4494,2.8343,-0.5674,-0.326,-0.126,-0.0452,-0.4981,-0.0841,2033,2019-08-07 16:24:12:755
4.1793,-8.5306,2.4854,-0.5674,-0.326,-0.126,-0.0452,-0.4981,-0.0841,2038,2019-08-07 16:24:12:760
4.1793,-8.5306,2.4854,-0.5674,-0.326,-0.126,-0.0452,-0.4981,-0.0841,2043,2019-08-07 16:24:12:765
4.1793,-8.5306,2.4854,-0.5674,-0.326,-0.126,-0.0452,-0.5109,-0.0894,2048,2019-08-07 16:24:12:770
4.7008,-8.5592,2.5562,-1.1994,-0.2852,-0.1826,-0.0452,-0.5109,-0.0894,2053,2019-08-07 16:24:12:775
4.7008,-8.5592,2.5562,-1.1994,-0.2852,-0.1826,-0.0026,-0.4491,-0.0852,2058,2019-08-07 16:24:12:780
4.7008,-8.5592,2.5562,-1.1994,-0.2852,-0.1826,-0.0026,-0.4491,-0.0852,2063,2019-08-07 16:24:12:785
4.8349,-8.4972,2.2781,-1.1994,-0.2852,-0.1826,0.0176,-0.349,-0.083,2069,2019-08-07 16:24:12:791
4.8349,-8.4972,2.2781,-1.1994,-0.2852,-0.1826,0.0176,-0.349,-0.083,2073,2019-08-07 16:24:12:795
4.7966,-8.4542,2.3063,-1.2283,-0.3848,0.0121,0.0187,-0.2478,-0.0852,2079,2019-08-07 16:24:12:801
4.7966,-8.4542,2.3063,-1.2283,-0.3848,0.0121,0.0187,-0.2478,-0.0852,2083,2019-08-07 16:24:12:805
4.7966,-8.4542,2.3063,-1.2283,-0.3848,0.0121,0.0187,-0.2478,-0.0852,2088,2019-08-07 16:24:12:810
4.5144,-8.4542,2.3912,-1.2283,-0.3848,0.0121,0.0091,-0.1657,-0.0756,2092,2019-08-07 16:24:12:814
4.5144,-8.4542,2.3912,-0.8947,-0.3034,-0.2643,0.0091,-0.1657,-0.0756,2098,2019-08-07 16:24:12:820
4.323,-8.416,2.6976,-0.8947,-0.3034,-0.2643,0.0134,-0.1593,-0.0745,2104,2019-08-07 16:24:12:826
4.323,-8.416,2.6976,-0.8947,-0.3034,-0.2643,0.0134,-0.1593,-0.0745,2107,2019-08-07 16:24:12:829
4.323,-8.416,2.6976,-0.8947,-0.3034,-0.2643,0.0112,-0.1998,-0.0713,2113,2019-08-07 16:24:12:835
4.2321,-8.311,2.674,-0.6046,-0.5092,-0.3759,0.0112,-0.1998,-0.0713,2118,2019-08-07 16:24:12:840
4.2321,-8.311,2.674,-0.6046,-0.5092,-0.3759,0.0016,-0.3063,-0.0585,2123,2019-08-07 16:24:12:845
4.3278,-8.2919,2.641,-0.6046,-0.5092,-0.3759,0.0016,-0.3063,-0.0585,2128,2019-08-07 16:24:12:850
4.3278,-8.2919,2.641,-0.6046,-0.5092,-0.3759,-0.0058,-0.366,-0.0415,2133,2019-08-07 16:24:12:855
4.3278,-8.2919,2.641,-0.928,-0.5018,-0.1886,-0.0058,-0.366,-0.0415,2137,2019-08-07 16:24:12:859
4.6866,-8.3778,2.3723,-0.928,-0.5018,-0.1886,-5.0E-4,-0.3479,-0.0468,2143,2019-08-07 16:24:12:865
4.6866,-8.3778,2.3723,-0.928,-0.5018,-0.1886,-5.0E-4,-0.3479,-0.0468,2149,2019-08-07 16:24:12:871
4.7392,-8.3874,2.3393,-0.928,-0.5018,-0.1886,-5.0E-4,-0.3479,-0.0468,2153,2019-08-07 16:24:12:875
4.7392,-8.3874,2.3393,-1.024,-0.4416,-0.0288,0.0261,-0.2701,-0.0756,2158,2019-08-07 16:24:12:880
4.7392,-8.3874,2.3393,-1.024,-0.4416,-0.0288,0.0261,-0.2701,-0.0756,2163,2019-08-07 16:24:12:885
4.6005,-8.3349,2.3865,-1.024,-0.4416,-0.0288,0.0389,-0.187,-0.0905,2168,2019-08-07 16:24:12:890
4.6005,-8.3349,2.3865,-1.024,-0.4416,-0.0288,0.0389,-0.187,-0.0905,2173,2019-08-07 16:24:12:895
4.3708,-8.2298,2.4808,-0.6474,-0.5636,-0.2342,0.0304,-0.1242,-0.115,2178,2019-08-07 16:24:12:900
4.3708,-8.2298,2.4808,-0.6474,-0.5636,-0.2342,0.0304,-0.1242,-0.115,2183,2019-08-07 16:24:12:905
4.3708,-8.2298,2.4808,-0.6474,-0.5636,-0.2342,-0.0026,-0.1402,-0.1342,2188,2019-08-07 16:24:12:910
4.1412,-8.101,2.6693,-0.6474,-0.5636,-0.2342,-0.0026,-0.1402,-0.1342,2193,2019-08-07 16:24:12:915
4.1412,-8.101,2.6693,-0.3837,-0.6697,-0.4324,-0.0239,-0.1913,-0.1235,2198,2019-08-07 16:24:12:920
4.1938,-8.1344,2.7494,-0.3837,-0.6697,-0.4324,-0.0239,-0.1913,-0.1235,2203,2019-08-07 16:24:12:925
4.1938,-8.1344,2.7494,-0.3837,-0.6697,-0.4324,-0.0239,-0.1913,-0.1235,2208,2019-08-07 16:24:12:930
4.1938,-8.1344,2.7494,-0.3837,-0.6697,-0.4324,-0.0271,-0.2563,-0.1086,2213,2019-08-07 16:24:12:935
4.3421,-8.12,2.6316,-0.5774,-0.6064,-0.2809,-0.0271,-0.2563,-0.1086,2218,2019-08-07 16:24:12:940
4.3421,-8.12,2.6316,-0.5774,-0.6064,-0.2809,-0.0229,-0.3213,-0.0894,2223,2019-08-07 16:24:12:945
4.6483,-8.1344,2.1885,-0.5774,-0.6064,-0.2809,-0.0229,-0.3213,-0.0894,2228,2019-08-07 16:24:12:950
4.6483,-8.1344,2.1885,-0.5774,-0.6064,-0.2809,-0.0261,-0.3394,-0.0734,2233,2019-08-07 16:24:12:955
4.6483,-8.1344,2.1885,-1.0673,-0.5551,0.156,-0.0261,-0.3394,-0.0734,2237,2019-08-07 16:24:12:959
4.9401,-8.2346,2.0094,-1.0673,-0.5551,0.156,-0.0261,-0.3394,-0.0734,2243,2019-08-07 16:24:12:965
4.9401,-8.2346,2.0094,-1.0673,-0.5551,0.156,-0.025,-0.2818,-0.0692,2248,2019-08-07 16:24:12:970
4.8445,-8.3062,2.2356,-1.0673,-0.5551,0.156,-0.025,-0.2818,-0.0692,2253,2019-08-07 16:24:12:975
4.8445,-8.3062,2.2356,-0.9596,-0.4611,0.0016,0.0144,-0.1668,-0.066,2258,2019-08-07 16:24:12:980
4.6914,-8.2824,2.1036,-0.9596,-0.4611,0.0016,0.0144,-0.1668,-0.066,2264,2019-08-07 16:24:12:986
4.6914,-8.2824,2.1036,-0.9596,-0.4611,0.0016,0.0102,-0.1412,-0.066,2268,2019-08-07 16:24:12:990
4.6914,-8.2824,2.1036,-0.9596,-0.4611,0.0016,0.0102,-0.1412,-0.066,2272,2019-08-07 16:24:12:994
4.5765,-8.2537,2.1744,-0.6758,-0.4905,-0.0746,-0.0218,-0.1434,-0.0766,2278,2019-08-07 16:24:13:000
4.5765,-8.2537,2.1744,-0.6758,-0.4905,-0.0746,-0.0218,-0.1434,-0.0766,2284,2019-08-07 16:24:13:006
4.5765,-8.2537,2.1744,-0.6758,-0.4905,-0.0746,-0.0218,-0.1434,-0.0766,2288,2019-08-07 16:24:13:010
4.4521,-8.2251,2.3158,-0.6758,-0.4905,-0.0746,-0.0538,-0.186,-0.067,2292,2019-08-07 16:24:13:014
4.4521,-8.2251,2.3158,-0.5833,-0.4697,-0.0567,-0.0538,-0.186,-0.067,2298,2019-08-07 16:24:13:020
4.567,-8.2824,2.1036,-0.5833,-0.4697,-0.0567,-0.0772,-0.2051,-0.0511,2303,2019-08-07 16:24:13:025
4.567,-8.2824,2.1036,-0.5833,-0.4697,-0.0567,-0.0772,-0.2051,-0.0511,2308,2019-08-07 16:24:13:030
4.567,-8.2824,2.1036,-0.5833,-0.4697,-0.0567,-0.0932,-0.2019,-0.0436,2312,2019-08-07 16:24:13:034
4.61,-8.3062,2.2875,-0.6703,-0.3904,-0.2616,-0.0932,-0.2019,-0.0436,2318,2019-08-07 16:24:13:040
4.61,-8.3062,2.2875,-0.6703,-0.3904,-0.2616,-0.0815,-0.1785,-0.0393,2323,2019-08-07 16:24:13:045
4.61,-8.3062,2.2875,-0.6703,-0.3904,-0.2616,-0.0815,-0.1785,-0.0393,2328,2019-08-07 16:24:13:050
4.6244,-8.2203,2.1131,-0.6703,-0.3904,-0.2616,-0.0761,-0.1711,-0.0404,2333,2019-08-07 16:24:13:055
4.6244,-8.2203,2.1131,-0.7212,-0.5594,0.0648,-0.0761,-0.1711,-0.0404,2338,2019-08-07 16:24:13:060
4.6244,-8.2203,2.1131,-0.7212,-0.5594,0.0648,-0.0761,-0.1711,-0.0404,2343,2019-08-07 16:24:13:065
4.7153,-8.1487,2.1696,-0.7212,-0.5594,0.0648,-0.0761,-0.1455,-0.0628,2348,2019-08-07 16:24:13:070
4.7153,-8.1487,2.1696,-0.7212,-0.5594,0.0648,-0.0527,-0.1252,-0.0905,2354,2019-08-07 16:24:13:076
4.6196,-8.1248,2.3912,-0.7212,-0.5594,0.0648,-0.0527,-0.1252,-0.0905,2357,2019-08-07 16:24:13:079
4.6196,-8.1248,2.3912,-0.5958,-0.5721,-0.3663,-0.0527,-0.1252,-0.0905,2363,2019-08-07 16:24:13:085
4.433,-8.0962,2.2498,-0.5958,-0.5721,-0.3663,-0.0325,-0.1348,-0.116,2369,2019-08-07 16:24:13:091
4.433,-8.0962,2.2498,-0.5958,-0.5721,-0.3663,-0.0325,-0.1348,-0.116,2373,2019-08-07 16:24:13:095
4.433,-8.0962,2.2498,-0.3336,-0.6376,-0.2418,-0.0431,-0.2051,-0.1352,2379,2019-08-07 16:24:13:101
4.3469,-8.12,2.3205,-0.3336,-0.6376,-0.2418,-0.0431,-0.2051,-0.1352,2383,2019-08-07 16:24:13:105
4.3469,-8.12,2.3205,-0.3336,-0.6376,-0.2418,-0.0431,-0.2051,-0.1352,2388,2019-08-07 16:24:13:110
4.3469,-8.12,2.3205,-0.5009,-0.5269,-0.3264,-0.0633,-0.3095,-0.1278,2392,2019-08-07 16:24:13:114
4.5909,-8.2346,2.2309,-0.5009,-0.5269,-0.3264,-0.0633,-0.3095,-0.1278,2399,2019-08-07 16:24:13:121
4.5909,-8.2346,2.2309,-0.5009,-0.5269,-0.3264,-0.0612,-0.3607,-0.1182,2404,2019-08-07 16:24:13:126
4.5909,-8.2346,2.2309,-0.5009,-0.5269,-0.3264,-0.0612,-0.3607,-0.1182,2408,2019-08-07 16:24:13:130
4.8923,-8.4256,1.901,-0.8191,-0.2734,0.0923,-0.0527,-0.3639,-0.0979,2413,2019-08-07 16:24:13:135
4.8923,-8.4256,1.901,-0.8191,-0.2734,0.0923,-0.0527,-0.3639,-0.0979,2417,2019-08-07 16:24:13:139
4.8923,-8.4256,1.901,-0.8191,-0.2734,0.0923,-0.0527,-0.3639,-0.0979,2423,2019-08-07 16:24:13:145
5.1028,-8.5736,1.8208,-0.8191,-0.2734,0.0923,-0.0197,-0.2925,-0.1001,2427,2019-08-07 16:24:13:149
5.1028,-8.5736,1.8208,-1.0208,-0.1063,0.0426,0.0208,-0.2211,-0.0894,2434,2019-08-07 16:24:13:156
5.1745,-8.5545,1.9622,-1.0208,-0.1063,0.0426,0.0208,-0.2211,-0.0894,2438,2019-08-07 16:24:13:160
5.1745,-8.5545,1.9622,-1.0208,-0.1063,0.0426,0.0208,-0.2211,-0.0894,2442,2019-08-07 16:24:13:164
5.1745,-8.5545,1.9622,-1.0208,-0.1063,0.0426,0.0687,-0.1466,-0.0905,2448,2019-08-07 16:24:13:170
5.1841,-8.5449,2.1319,-0.9806,-0.1606,-0.2542,0.0687,-0.1466,-0.0905,2453,2019-08-07 16:24:13:175
5.1841,-8.5449,2.1319,-0.9806,-0.1606,-0.2542,0.0687,-0.1466,-0.0905,2458,2019-08-07 16:24:13:180
4.854,-8.3922,2.2498,-0.9806,-0.1606,-0.2542,0.0943,-0.1061,-0.1033,2463,2019-08-07 16:24:13:185
4.854,-8.3922,2.2498,-0.9806,-0.1606,-0.2542,0.0943,-0.1061,-0.1033,2469,2019-08-07 16:24:13:191
4.854,-8.3922,2.2498,-0.5512,-0.3316,-0.4055,0.0645,-0.1402,-0.1001,2473,2019-08-07 16:24:13:195
4.72,-8.3635,2.476,-0.5512,-0.3316,-0.4055,0.0645,-0.1402,-0.1001,2478,2019-08-07 16:24:13:200
4.72,-8.3635,2.476,-0.5512,-0.3316,-0.4055,0.0368,-0.2382,-0.0894,2484,2019-08-07 16:24:13:206
4.72,-8.3635,2.476,-0.5512,-0.3316,-0.4055,0.0368,-0.2382,-0.0894,2487,2019-08-07 16:24:13:209
4.7822,-8.3778,2.509,-0.5845,-0.2716,-0.5591,0.0368,-0.2382,-0.0894,2493,2019-08-07 16:24:13:215
4.7822,-8.3778,2.509,-0.5845,-0.2716,-0.5591,0.0272,-0.3905,-0.0617,2498,2019-08-07 16:24:13:220
5.275,-8.3635,2.2073,-0.5845,-0.2716,-0.5591,0.008,-0.4821,-0.0372,2503,2019-08-07 16:24:13:225
5.275,-8.3635,2.2073,-0.5845,-0.2716,-0.5591,0.008,-0.4821,-0.0372,2508,2019-08-07 16:24:13:230
5.275,-8.3635,2.2073,-1.4273,-0.2296,-0.2668,0.007,-0.4981,-0.017,2513,2019-08-07 16:24:13:235
5.7391,-8.4017,2.1602,-1.4273,-0.2296,-0.2668,0.007,-0.4981,-0.017,2518,2019-08-07 16:24:13:240
5.7391,-8.4017,2.1602,-1.4273,-0.2296,-0.2668,0.007,-0.4981,-0.017,2523,2019-08-07 16:24:13:245
6.1123,-8.3396,2.0282,-1.4273,-0.2296,-0.2668,0.0581,-0.3873,-0.0095,2528,2019-08-07 16:24:13:250
6.1123,-8.3396,2.0282,-1.8132,-0.4079,-0.1809,0.0581,-0.3873,-0.0095,2533,2019-08-07 16:24:13:255
6.1123,-8.3396,2.0282,-1.8132,-0.4079,-0.1809,0.0762,-0.2275,0.0043,2538,2019-08-07 16:24:13:260
5.8778,-8.015,2.1366,-1.8132,-0.4079,-0.1809,0.0762,-0.2275,0.0043,2543,2019-08-07 16:24:13:265
5.8778,-8.015,2.1366,-1.8132,-0.4079,-0.1809,0.073,-0.1348,0.016,2549,2019-08-07 16:24:13:271
5.8778,-8.015,2.1366,-1.3974,-0.7527,-0.3967,0.073,-0.1348,0.016,2552,2019-08-07 16:24:13:274
5.6003,-7.7906,2.3723,-1.3974,-0.7527,-0.3967,0.073,-0.1348,0.016,2558,2019-08-07 16:24:13:280
5.6003,-7.7906,2.3723,-1.3974,-0.7527,-0.3967,0.0187,0.0015,0.0192,2563,2019-08-07 16:24:13:285
5.1985,-7.7572,2.5656,-1.3974,-0.7527,-0.3967,0.0187,0.0015,0.0192,2568,2019-08-07 16:24:13:290
5.1985,-7.7572,2.5656,-0.6636,-0.8099,-0.8181,-0.0452,0.0516,-0.0148,2572,2019-08-07 16:24:13:294
5.1985,-7.7572,2.5656,-0.6636,-0.8099,-0.8181,-0.0452,0.0516,-0.0148,2578,2019-08-07 16:24:13:300
4.7105,-7.8575,2.8579,-0.6636,-0.8099,-0.8181,-0.0878,0.0345,-0.033,2583,2019-08-07 16:24:13:305
4.7105,-7.8575,2.8579,-0.6636,-0.8099,-0.8181,-0.0878,0.0345,-0.033,2589,2019-08-07 16:24:13:311
4.2655,-8.0723,2.8861,0.0276,-0.5443,-0.9998,-0.1145,-0.0368,-0.0553,2593,2019-08-07 16:24:13:315
4.2655,-8.0723,2.8861,0.0276,-0.5443,-0.9998,-0.1145,-0.0368,-0.0553,2599,2019-08-07 16:24:13:321
4.2655,-8.0723,2.8861,0.0276,-0.5443,-0.9998,-0.1145,-0.0368,-0.0553,2603,2019-08-07 16:24:13:325
4.2368,-8.3587,2.5844,0.0276,-0.5443,-0.9998,-0.1369,-0.1945,-0.0883,2608,2019-08-07 16:24:13:330
4.2368,-8.3587,2.5844,-0.116,-0.1686,-0.7312,-0.1369,-0.1945,-0.0883,2613,2019-08-07 16:24:13:335
4.2368,-8.3587,2.5844,-0.116,-0.1686,-0.7312,-0.1369,-0.2978,-0.0979,2618,2019-08-07 16:24:13:340
4.7248,-8.5306,2.3488,-0.116,-0.1686,-0.7312,-0.1369,-0.2978,-0.0979,2622,2019-08-07 16:24:13:344
4.7248,-8.5306,2.3488,-0.116,-0.1686,-0.7312,-0.0996,-0.3351,-0.1054,2628,2019-08-07 16:24:13:350
5.2367,-8.5545,2.0141,-0.8912,-0.052,-0.2023,-0.0996,-0.3351,-0.1054,2634,2019-08-07 16:24:13:356
5.2367,-8.5545,2.0141,-0.8912,-0.052,-0.2023,-0.0655,-0.3,-0.1022,2638,2019-08-07 16:24:13:360
5.5429,-8.5067,1.8161,-1.1792,-0.0945,-0.0236,-0.0655,-0.3,-0.1022,2643,2019-08-07 16:24:13:365
5.5429,-8.5067,1.8161,-1.1792,-0.0945,-0.0236,-0.0484,-0.2339,-0.1022,2649,2019-08-07 16:24:13:371
5.5429,-8.5067,1.8161,-1.1792,-0.0945,-0.0236,-0.0484,-0.2339,-0.1022,2652,2019-08-07 16:24:13:374
5.9304,-8.4876,1.6935,-1.1792,-0.0945,-0.0236,-0.0484,-0.2339,-0.1022,2658,2019-08-07 16:24:13:380
5.9304,-8.4876,1.6935,-1.5811,-0.2165,0.1011,-0.0346,-0.0869,-0.0958,2663,2019-08-07 16:24:13:385
5.8395,-8.3062,1.6841,-1.5811,-0.2165,0.1011,-0.0346,-0.0869,-0.0958,2668,2019-08-07 16:24:13:390
5.8395,-8.3062,1.6841,-1.5811,-0.2165,0.1011,6.0E-4,0.0825,-0.0777,2672,2019-08-07 16:24:13:394
5.8395,-8.3062,1.6841,-1.5811,-0.2165,0.1011,6.0E-4,0.0825,-0.0777,2679,2019-08-07 16:24:13:401
5.452,-8.3396,1.6935,-0.982,-0.2628,0.0855,0.0134,0.1379,-0.0479,2683,2019-08-07 16:24:13:405
5.452,-8.3396,1.6935,-0.982,-0.2628,0.0855,0.0134,0.1379,-0.0479,2688,2019-08-07 16:24:13:410
5.0693,-8.3683,1.8208,-0.982,-0.2628,0.0855,0.0219,0.1272,-0.0255,2693,2019-08-07 16:24:13:415
5.0693,-8.3683,1.8208,-0.982,-0.2628,0.0855,0.0219,0.1272,-0.0255,2698,2019-08-07 16:24:13:420
5.0693,-8.3683,1.8208,-0.5218,-0.2759,-0.0226,0.024,0.058,-0.0031,2703,2019-08-07 16:24:13:425
4.9114,-8.2537,1.8491,-0.5218,-0.2759,-0.0226,0.024,0.058,-0.0031,2708,2019-08-07 16:24:13:430
4.9114,-8.2537,1.8491,-0.5218,-0.2759,-0.0226,0.024,0.058,-0.0031,2712,2019-08-07 16:24:13:434
4.9497,-8.2489,1.8114,-0.5218,-0.2759,-0.0226,0.0336,-0.0336,0.0139,2718,2019-08-07 16:24:13:440
4.9497,-8.2489,1.8114,-0.6577,-0.3452,-0.0468,0.0336,-0.0336,0.0139,2723,2019-08-07 16:24:13:445
4.9497,-8.2489,1.8114,-0.6577,-0.3452,-0.0468,0.0442,-0.1284,0.0384,2728,2019-08-07 16:24:13:450
5.1889,-8.2155,1.7548,-0.6577,-0.3452,-0.0468,0.0442,-0.1284,0.0384,2733,2019-08-07 16:24:13:455
5.1889,-8.2155,1.7548,-0.6577,-0.3452,-0.0468,0.0432,-0.1476,0.0555,2738,2019-08-07 16:24:13:460
5.1889,-8.2155,1.7548,-0.6577,-0.3452,-0.0468,0.0432,-0.1476,0.0555,2743,2019-08-07 16:24:13:465
5.5094,-8.1821,1.637,-1.0797,-0.3874,0.1457,0.0389,-0.1103,0.0523,2748,2019-08-07 16:24:13:470
5.5094,-8.1821,1.637,-1.0797,-0.3874,0.1457,0.0389,-0.1103,0.0523,2753,2019-08-07 16:24:13:475
5.5094,-8.1821,1.637,-1.0797,-0.3874,0.1457,0.0389,-0.1103,0.0523,2758,2019-08-07 16:24:13:480
5.3707,-8.1964,1.7737,-1.0797,-0.3874,0.1457,0.0251,-0.0304,0.0523,2763,2019-08-07 16:24:13:485
5.3707,-8.1964,1.7737,-0.8729,-0.3584,0.0454,0.0251,-0.0304,0.0523,2768,2019-08-07 16:24:13:490
5.2463,-8.2298,1.8444,-0.8729,-0.3584,0.0454,0.0059,0.0367,0.0448,2772,2019-08-07 16:24:13:494
5.2463,-8.2298,1.8444,-0.8729,-0.3584,0.0454,0.0059,0.0367,0.0448,2778,2019-08-07 16:24:13:500
5.0884,-8.2203,1.9952,-0.6598,-0.3489,-0.2084,-0.0016,0.0622,0.0224,2784,2019-08-07 16:24:13:506
5.0884,-8.2203,1.9952,-0.6598,-0.3489,-0.2084,-0.0016,0.0622,0.0224,2788,2019-08-07 16:24:13:510
5.0884,-8.2203,1.9952,-0.6598,-0.3489,-0.2084,-0.0016,0.0622,0.0224,2793,2019-08-07 16:24:13:515
5.0358,-8.163,2.0471,-0.6069,-0.4054,-0.2574,-0.0112,0.059,0.0118,2799,2019-08-07 16:24:13:521
5.0358,-8.163,2.0471,-0.6069,-0.4054,-0.2574,-0.0112,0.059,0.0118,2802,2019-08-07 16:24:13:524
5.0358,-8.163,2.0471,-0.6069,-0.4054,-0.2574,-0.0165,0.0601,-0.001,2808,2019-08-07 16:24:13:530
5.1506,-8.1344,1.9151,-0.6069,-0.4054,-0.2574,-0.0165,0.0601,-0.001,2813,2019-08-07 16:24:13:535
5.1506,-8.1344,1.9151,-0.7993,-0.4933,-0.0553,-0.0271,0.0676,-0.0138,2818,2019-08-07 16:24:13:540
5.1506,-8.1344,1.9151,-0.7993,-0.4933,-0.0553,-0.0271,0.0676,-0.0138,2823,2019-08-07 16:24:13:545
5.4855,-8.1105,2.1413,-1.0487,-0.4527,-0.3461,-0.0229,0.0473,-0.0415,2828,2019-08-07 16:24:13:550
5.4855,-8.1105,2.1413,-1.0487,-0.4527,-0.3461,-0.0229,0.0473,-0.0415,2833,2019-08-07 16:24:13:555
5.4855,-8.1105,2.1413,-1.0487,-0.4527,-0.3461,-0.0442,-0.0209,-0.0798,2838,2019-08-07 16:24:13:560
4.7631,-7.9959,1.9387,-1.0487,-0.4527,-0.3461,-0.0442,-0.0209,-0.0798,2842,2019-08-07 16:24:13:564
4.7631,-7.9959,1.9387,-0.1804,-0.5741,-0.0734,-0.0825,-0.1572,-0.0202,2848,2019-08-07 16:24:13:570
4.9927,-8.0484,1.9057,-0.1804,-0.5741,-0.0734,-0.0825,-0.1572,-0.0202,2853,2019-08-07 16:24:13:575
4.9927,-8.0484,1.9057,-0.1804,-0.5741,-0.0734,-0.0825,-0.1572,-0.0202,2858,2019-08-07 16:24:13:580
4.9927,-8.0484,1.9057,-0.1804,-0.5741,-0.0734,-0.0633,-0.1359,0.0427,2862,2019-08-07 16:24:13:584
5.7678,-8.3683,1.6464,-1.3056,-0.1879,0.1192,-0.0633,-0.1359,0.0427,2869,2019-08-07 16:24:13:591
5.7678,-8.3683,1.6464,-1.3056,-0.1879,0.1192,-0.0143,0.0111,0.0054,2872,2019-08-07 16:24:13:594
5.5094,-8.3492,1.5144,-1.0442,-0.206,0.2483,-0.0143,0.0111,0.0054,2878,2019-08-07 16:24:13:600
5.5094,-8.3492,1.5144,-1.0442,-0.206,0.2483,-0.0175,0.1379,-0.0319,2883,2019-08-07 16:24:13:605
5.5094,-8.3492,1.5144,-1.0442,-0.206,0.2483,-0.0175,0.1379,-0.0319,2888,2019-08-07 16:24:13:610
4.9209,-8.2967,1.8491,-1.0442,-0.206,0.2483,-0.0175,0.1379,-0.0319,2892,2019-08-07 16:24:13:614
4.9209,-8.2967,1.8491,-0.2489,-0.3442,-0.1713,-0.0261,0.1634,-0.0521,2898,2019-08-07 16:24:13:620
4.4999,-8.2346,2.1508,-0.2489,-0.3442,-0.1713,-0.0101,0.0963,-0.0511,2903,2019-08-07 16:24:13:625
4.4999,-8.2346,2.1508,-0.2489,-0.3442,-0.1713,-0.0101,0.0963,-0.0511,2908,2019-08-07 16:24:13:630
4.4999,-8.2346,2.1508,-0.2489,-0.3442,-0.1713,0.0016,-0.0315,-0.0362,2913,2019-08-07 16:24:13:635
4.7343,-8.2346,1.9245,-0.2563,-0.3104,-0.145,0.0016,-0.0315,-0.0362,2918,2019-08-07 16:24:13:640
4.7343,-8.2346,1.9245,-0.2563,-0.3104,-0.145,0.0016,-0.0315,-0.0362,2922,2019-08-07 16:24:13:644
4.7343,-8.2346,1.9245,-0.2563,-0.3104,-0.145,0.0016,-0.1423,-0.0244,2928,2019-08-07 16:24:13:650
5.2415,-8.163,1.802,-0.2563,-0.3104,-0.145,0.0112,-0.1391,-0.017,2934,2019-08-07 16:24:13:656
5.2415,-8.163,1.802,-1.0316,-0.4101,-0.0046,0.0112,-0.1391,-0.017,2938,2019-08-07 16:24:13:660
5.6194,-8.1726,1.6558,-1.0316,-0.4101,-0.0046,0.0112,-0.1391,-0.017,2943,2019-08-07 16:24:13:665
5.6194,-8.1726,1.6558,-1.0316,-0.4101,-0.0046,0.0187,-0.0688,-0.0138,2948,2019-08-07 16:24:13:670
5.6194,-8.1726,1.6558,-1.0316,-0.4101,-0.0046,0.0187,-0.0688,-0.0138,2953,2019-08-07 16:24:13:675
5.2606,-8.1009,1.472,-0.7558,-0.4331,0.2922,-0.0325,-0.0762,-0.0148,2957,2019-08-07 16:24:13:679
5.2606,-8.1009,1.472,-0.7558,-0.4331,0.2922,-0.0325,-0.0762,-0.0148,2963,2019-08-07 16:24:13:685
5.2606,-8.1009,1.472,-0.7558,-0.4331,0.2922,-0.0538,0.009,-0.0021,2967,2019-08-07 16:24:13:689
5.0836,-8.2203,2.1225,-0.7558,-0.4331,0.2922,-0.0538,0.009,-0.0021,2973,2019-08-07 16:24:13:695
5.0836,-8.2203,2.1225,-0.6631,-0.2025,-0.1558,-0.0271,0.01,-0.0031,2978,2019-08-07 16:24:13:700
5.1649,-8.3778,1.9386,-0.6631,-0.2025,-0.1558,-0.0271,0.01,-0.0031,2983,2019-08-07 16:24:13:705
5.1649,-8.3778,1.9386,-0.6631,-0.2025,-0.1558,0.0027,0.0537,-0.0021,2988,2019-08-07 16:24:13:710
5.1649,-8.3778,1.9386,-0.6631,-0.2025,-0.1558,0.0027,0.0537,-0.0021,2993,2019-08-07 16:24:13:715
5.1362,-8.3014,1.7171,-0.6071,-0.243,-0.035,-5.0E-4,0.0686,-0.0031,2998,2019-08-07 16:24:13:720
5.1362,-8.3014,1.7171,-0.6071,-0.243,-0.035,-5.0E-4,0.0686,-0.0031,3003,2019-08-07 16:24:13:725
5.0645,-8.1964,1.8727,-0.6071,-0.243,-0.035,-5.0E-4,0.0686,-0.0031,3007,2019-08-07 16:24:13:729
5.0645,-8.1964,1.8727,-0.6071,-0.243,-0.035,-0.0133,0.074,-0.0053,3013,2019-08-07 16:24:13:735
5.0645,-8.1964,1.8727,-0.5709,-0.374,-0.1655,-0.0133,0.074,-0.0053,3017,2019-08-07 16:24:13:739
5.1601,-8.2155,1.9198,-0.5709,-0.374,-0.1655,-0.0133,0.0846,-0.0063,3023,2019-08-07 16:24:13:745
5.1601,-8.2155,1.9198,-0.5709,-0.374,-0.1655,-0.0133,0.0846,-0.0063,3027,2019-08-07 16:24:13:749
5.208,-8.1916,2.0329,-0.5709,-0.374,-0.1655,-0.008,0.0995,0.0043,3033,2019-08-07 16:24:13:755
5.208,-8.1916,2.0329,-0.6839,-0.4333,-0.2513,-0.008,0.0995,0.0043,3037,2019-08-07 16:24:13:759
5.208,-8.1916,2.0329,-0.6839,-0.4333,-0.2513,-0.0101,0.091,0.0107,3043,2019-08-07 16:24:13:765
5.1362,-8.0198,1.8114,-0.6839,-0.4333,-0.2513,-0.0101,0.091,0.0107,3048,2019-08-07 16:24:13:770
5.1362,-8.0198,1.8114,-0.6839,-0.4333,-0.2513,-0.0335,0.074,0.0139,3053,2019-08-07 16:24:13:775
5.1362,-8.0198,1.8114,-0.6839,-0.4333,-0.2513,-0.0335,0.074,0.0139,3057,2019-08-07 16:24:13:779
5.0167,-7.9195,1.8915,-0.497,-0.6041,-0.1153,-0.0463,0.0644,0.016,3063,2019-08-07 16:24:13:785
5.0167,-7.9195,1.8915,-0.497,-0.6041,-0.1153,-0.0463,0.0644,0.016,3068,2019-08-07 16:24:13:790
4.9593,-8.101,1.8397,-0.497,-0.6041,-0.1153,-0.0527,0.0654,0.0384,3073,2019-08-07 16:24:13:795
4.9593,-8.101,1.8397,-0.481,-0.2959,-0.1126,-0.0527,0.0654,0.0384,3078,2019-08-07 16:24:13:800
4.9593,-8.101,1.8397,-0.481,-0.2959,-0.1126,-0.0463,0.0772,0.0235,3083,2019-08-07 16:24:13:805
4.9545,-8.2394,1.8538,-0.481,-0.2959,-0.1126,-0.0463,0.0772,0.0235,3088,2019-08-07 16:24:13:810
4.9545,-8.2394,1.8538,-0.481,-0.2959,-0.1126,-0.0463,0.0772,0.0235,3093,2019-08-07 16:24:13:815
4.7775,-8.2251,1.6888,-0.2624,-0.3015,0.0852,-0.0346,0.0633,-0.0021,3098,2019-08-07 16:24:13:820
4.7775,-8.2251,1.6888,-0.2624,-0.3015,0.0852,-0.0346,0.0633,-0.0021,3103,2019-08-07 16:24:13:825
4.7775,-8.2251,1.6888,-0.2624,-0.3015,0.0852,-0.0293,0.0399,-0.0127,3108,2019-08-07 16:24:13:830