ACCELEROMETER X (m/s²),ACCELEROMETER Y (m/s²),ACCELEROMETER Z (m/s²),LINEAR ACCELERATION X (m/s²),LINEAR ACCELERATION Y (m/s²),LINEAR ACCELERATION Z (m/s²),GYROSCOPE X (rad/s),GYROSCOPE Y (rad/s),GYROSCOPE Z (rad/s),Time since start in ms ,YYYY-MO-DD HH-MI-SS_SSS
4.8718,-8.2106,2.2872,-0.2036,-0.1686,-0.109,-0.0122,-6.0E-4,-0.0021,3,2019-08-07 16:24:00:980
4.8718,-8.2106,2.2872,-0.2036,-0.1686,-0.109,-0.0175,-0.0145,-0.0042,8,2019-08-07 16:24:00:985
4.8718,-8.2106,2.2872,-0.2036,-0.1686,-0.109,-0.0175,-0.0145,-0.0042,13,2019-08-07 16:24:00:990
4.8718,-8.2106,2.2778,-0.2036,-0.1686,-0.109,-0.0175,-0.0219,0.0043,18,2019-08-07 16:24:00:995
4.8718,-8.2106,2.2778,-0.2036,-0.1686,-0.109,-0.0175,-0.0219,0.0043,23,2019-08-07 16:24:01:000
4.9531,-8.2202,2.2872,-0.349,-0.1061,-0.1133,-0.0154,-0.0262,0.0043,28,2019-08-07 16:24:01:005
4.9531,-8.2202,2.2872,-0.349,-0.1061,-0.1133,-0.0154,-0.0262,0.0043,32,2019-08-07 16:24:01:009
4.9531,-8.2202,2.2872,-0.349,-0.1061,-0.1133,-0.0026,-0.039,0.0096,38,2019-08-07 16:24:01:015
4.9531,-8.2202,2.2872,-0.349,-0.1061,-0.1133,-0.0026,-0.039,0.0096,42,2019-08-07 16:24:01:019
4.9244,-8.2488,2.2118,-0.3271,-0.1438,0.0193,0.0059,-0.0368,0.0171,48,2019-08-07 16:24:01:025
4.9244,-8.2488,2.2118,-0.3271,-0.1438,0.0193,0.0059,-0.0368,0.0171,53,2019-08-07 16:24:01:030
4.91,-8.2918,2.1316,-0.3271,-0.1438,0.0193,0.0112,-0.0347,0.016,58,2019-08-07 16:24:01:035
4.91,-8.2918,2.1316,-0.3271,-0.1438,0.0193,0.0112,-0.0347,0.016,62,2019-08-07 16:24:01:039
4.91,-8.2918,2.1316,-0.2398,-0.1581,0.0784,0.0155,-0.0294,0.0128,68,2019-08-07 16:24:01:045
4.867,-8.2154,2.2118,-0.2398,-0.1581,0.0784,0.0155,-0.0294,0.0128,72,2019-08-07 16:24:01:049
4.867,-8.2154,2.2118,-0.1677,-0.1293,0.0078,0.0187,-0.0134,0.0128,79,2019-08-07 16:24:01:056
4.7856,-8.2202,2.2071,-0.1677,-0.1293,0.0078,0.0187,-0.0134,0.0128,83,2019-08-07 16:24:01:060
4.7856,-8.2202,2.2071,-0.1677,-0.1293,0.0078,0.0187,-0.0134,0.0128,88,2019-08-07 16:24:01:065
4.7856,-8.2202,2.2071,-0.1677,-0.1293,0.0078,0.0144,-0.0166,0.0065,93,2019-08-07 16:24:01:070
4.733,-8.2202,2.207,-0.1196,-0.1526,-0.0047,0.0144,-0.0166,0.0065,98,2019-08-07 16:24:01:075
4.733,-8.2202,2.207,-0.1196,-0.1526,-0.0047,0.0102,-0.0155,0.0022,102,2019-08-07 16:24:01:079
4.733,-8.2202,2.207,-0.1196,-0.1526,-0.0047,0.0102,-0.0155,0.0022,108,2019-08-07 16:24:01:085
4.782,-8.2107,2.1885,-0.1196,-0.1526,-0.0047,0.0102,-0.0187,-0.0106,113,2019-08-07 16:24:01:090
4.782,-8.2107,2.1885,-0.1225,-0.1459,0.0518,0.0102,-0.0187,-0.0106,117,2019-08-07 16:24:01:094
4.7964,-8.206,2.1932,-0.1225,-0.1459,0.0518,0.007,-0.0272,-0.0117,123,2019-08-07 16:24:01:100
4.7964,-8.206,2.1932,-0.1225,-0.1459,0.0518,0.007,-0.0272,-0.0117,128,2019-08-07 16:24:01:105
4.7964,-8.206,2.1932,-0.1225,-0.1459,0.0518,0.0048,-0.0432,-0.0127,133,2019-08-07 16:24:01:110
4.9495,-8.1725,2.146,-0.3273,-0.1958,0.0545,0.0048,-0.0432,-0.0127,137,2019-08-07 16:24:01:114
4.9495,-8.1725,2.146,-0.3273,-0.1958,0.0545,0.0038,-0.0485,-0.0138,143,2019-08-07 16:24:01:120
4.9878,-8.1725,2.1555,-0.3273,-0.1958,0.0545,0.0038,-0.0485,-0.0138,148,2019-08-07 16:24:01:125
4.9878,-8.1725,2.1555,-0.3273,-0.1958,0.0545,0.0038,-0.0485,-0.0138,153,2019-08-07 16:24:01:130
4.9878,-8.1725,2.1555,-0.3109,-0.1644,0.0553,0.0048,-0.0464,-0.0031,158,2019-08-07 16:24:01:135
4.9926,-8.225,2.0423,-0.3109,-0.1644,0.0553,0.0048,-0.0464,-0.0031,163,2019-08-07 16:24:01:140
4.9926,-8.225,2.0423,-0.3109,-0.1644,0.0553,0.0016,-0.0326,-0.0021,168,2019-08-07 16:24:01:145
4.9926,-8.225,2.0423,-0.3109,-0.1644,0.0553,0.0016,-0.0326,-0.0021,173,2019-08-07 16:24:01:150
4.8825,-8.2776,2.1272,-0.2489,-0.0865,0.0655,0.008,-0.0358,-0.0031,178,2019-08-07 16:24:01:155
4.8825,-8.2776,2.1272,-0.2489,-0.0865,0.0655,0.008,-0.0358,-0.0031,182,2019-08-07 16:24:01:159
4.8108,-8.3014,2.2356,-0.2489,-0.0865,0.0655,0.0112,-0.0358,-0.0031,188,2019-08-07 16:24:01:165
4.8108,-8.3014,2.2356,-0.2489,-0.0865,0.0655,0.0112,-0.0358,-0.0031,194,2019-08-07 16:24:01:171
4.8108,-8.3014,2.2356,-0.1688,-0.1421,-0.0156,0.0155,-0.0315,-0.0042,198,2019-08-07 16:24:01:175
4.7821,-8.1916,2.2215,-0.1688,-0.1421,-0.0156,0.0155,-0.0315,-0.0042,203,2019-08-07 16:24:01:180
4.7821,-8.1916,2.2215,-0.1688,-0.1421,-0.0156,0.0155,-0.0315,-0.0042,208,2019-08-07 16:24:01:185
4.7821,-8.1916,2.2215,-0.1688,-0.1421,-0.0156,0.0123,-0.023,-0.0085,212,2019-08-07 16:24:01:189
4.8443,-8.1153,2.2026,-0.2172,-0.2398,-0.0433,0.0123,-0.023,-0.0085,218,2019-08-07 16:24:01:195
4.8443,-8.1153,2.2026,-0.2172,-0.2398,-0.0433,0.0016,-0.0177,-0.0138,222,2019-08-07 16:24:01:199
4.9256,-8.0818,2.212,-0.2172,-0.2398,-0.0433,0.0016,-0.0177,-0.0138,228,2019-08-07 16:24:01:205
4.9256,-8.0818,2.212,-0.2172,-0.2398,-0.0433,-0.0069,-0.0166,-0.0159,234,2019-08-07 16:24:01:211
4.9256,-8.0818,2.212,-0.3309,-0.194,-0.0164,-0.0069,-0.0166,-0.0159,238,2019-08-07 16:24:01:215
4.9782,-8.1439,2.245,-0.3309,-0.194,-0.0164,-0.0122,-0.0049,-0.0127,243,2019-08-07 16:24:01:220
4.9782,-8.1439,2.245,-0.3309,-0.194,-0.0164,-0.0122,-0.0049,-0.0127,248,2019-08-07 16:24:01:225
4.9926,-8.2107,2.2403,-0.3309,-0.194,-0.0164,-0.0101,5.0E-4,-0.0148,253,2019-08-07 16:24:01:230
4.9926,-8.2107,2.2403,-0.364,-0.1485,-0.0698,-0.0101,5.0E-4,-0.0148,257,2019-08-07 16:24:01:234
4.9926,-8.2107,2.2403,-0.364,-0.1485,-0.0698,-0.0069,-0.0027,-0.017,263,2019-08-07 16:24:01:240
4.9591,-8.2251,2.2356,-0.364,-0.1485,-0.0698,-0.0069,-0.0027,-0.017,268,2019-08-07 16:24:01:245
4.9591,-8.2251,2.2356,-0.364,-0.1485,-0.0698,-0.009,-0.0113,-0.0063,273,2019-08-07 16:24:01:250
5.0117,-8.1869,2.2356,-0.3595,-0.1608,-0.0388,-0.009,-0.0113,-0.0063,277,2019-08-07 16:24:01:254
5.0117,-8.1869,2.2356,-0.3595,-0.1608,-0.0388,-0.0112,-0.0145,-0.001,284,2019-08-07 16:24:01:261
5.0117,-8.1869,2.2356,-0.3595,-0.1608,-0.0388,-0.0112,-0.0145,-0.001,287,2019-08-07 16:24:01:264
5.0261,-8.2346,2.1696,-0.3595,-0.1608,-0.0388,-0.0133,-0.0145,0.0011,293,2019-08-07 16:24:01:270
5.0261,-8.2346,2.1696,-0.3563,-0.0978,0.0145,-0.0133,-0.0145,0.0011,298,2019-08-07 16:24:01:275
4.9495,-8.2489,2.2262,-0.3563,-0.0978,0.0145,-0.0069,0.0015,-0.001,303,2019-08-07 16:24:01:280
4.9495,-8.2489,2.2262,-0.3563,-0.0978,0.0145,-0.0069,0.0015,-0.001,307,2019-08-07 16:24:01:284
4.9495,-8.2489,2.2262,-0.3563,-0.0978,0.0145,0.0016,0.0154,0.0043,313,2019-08-07 16:24:01:290
4.9208,-8.2537,2.2167,-0.2306,-0.1351,0.0199,0.0016,0.0154,0.0043,318,2019-08-07 16:24:01:295
4.9208,-8.2537,2.2167,-0.2306,-0.1351,0.0199,0.007,0.0207,0.0054,323,2019-08-07 16:24:01:300
4.8347,-8.2107,2.1649,-0.2306,-0.1351,0.0199,0.007,0.0207,0.0054,328,2019-08-07 16:24:01:305
4.8347,-8.2107,2.1649,-0.2306,-0.1351,0.0199,0.008,0.0239,-0.0021,332,2019-08-07 16:24:01:309
4.8347,-8.2107,2.1649,-0.1683,-0.1485,-0.0899,0.008,0.0239,-0.0021,338,2019-08-07 16:24:01:315
4.8299,-8.2203,2.2827,-0.1683,-0.1485,-0.0899,0.0038,0.0186,1.0E-4,343,2019-08-07 16:24:01:320
4.8299,-8.2203,2.2827,-0.1683,-0.1485,-0.0899,0.0038,0.0186,1.0E-4,348,2019-08-07 16:24:01:325
4.8299,-8.2203,2.2827,-0.1683,-0.1485,-0.0899,6.0E-4,0.0036,-0.0031,353,2019-08-07 16:24:01:330
4.8969,-8.2012,2.1885,-0.1683,-0.1485,-0.0899,6.0E-4,0.0036,-0.0031,358,2019-08-07 16:24:01:335
4.8969,-8.2012,2.1885,-0.2532,-0.133,-0.0033,6.0E-4,0.0036,-0.0031,363,2019-08-07 16:24:01:340
4.8969,-8.2012,2.1885,-0.2532,-0.133,-0.0033,0.0016,-0.0049,0.0054,368,2019-08-07 16:24:01:345
4.9448,-8.2346,2.1743,-0.2532,-0.133,-0.0033,0.0016,-0.0049,0.0054,373,2019-08-07 16:24:01:350
4.9448,-8.2346,2.1743,-0.2532,-0.133,-0.0033,0.0038,5.0E-4,0.0075,378,2019-08-07 16:24:01:355
4.9161,-8.2728,2.212,-0.2663,-0.0608,-0.0129,0.0038,5.0E-4,0.0075,383,2019-08-07 16:24:01:360
4.9161,-8.2728,2.212,-0.2663,-0.0608,-0.0129,0.0112,0.0047,0.0054,387,2019-08-07 16:24:01:364
4.9161,-8.2728,2.212,-0.2663,-0.0608,-0.0129,0.0112,0.0047,0.0054,393,2019-08-07 16:24:01:370
4.8539,-8.2203,2.1602,-0.2663,-0.0608,-0.0129,0.0112,-0.007,0.0065,398,2019-08-07 16:24:01:375
4.8539,-8.2203,2.1602,-0.1698,-0.141,0.0268,0.0112,-0.007,0.0065,402,2019-08-07 16:24:01:379
4.8921,-8.1869,2.1555,-0.1698,-0.141,0.0268,0.0112,-0.007,0.0065,408,2019-08-07 16:24:01:385
4.8921,-8.1869,2.1555,-0.1698,-0.141,0.0268,0.0059,-0.0081,-0.0074,413,2019-08-07 16:24:01:390
4.8921,-8.1869,2.1555,-0.1698,-0.141,0.0268,0.0059,-0.0081,-0.0074,418,2019-08-07 16:24:01:395
4.9113,-8.2298,2.1602,-0.2436,-0.1154,0.032,0.0059,0.0036,-0.0074,422,2019-08-07 16:24:01:399
4.9113,-8.2298,2.1602,-0.2436,-0.1154,0.032,0.0059,0.0036,-0.0074,428,2019-08-07 16:24:01:405
4.8826,-8.1439,2.311,-0.2436,-0.1154,0.032,0.0091,0.0122,-0.0138,432,2019-08-07 16:24:01:409
4.8826,-8.1439,2.311,-0.2436,-0.1154,0.032,0.0091,0.0122,-0.0138,438,2019-08-07 16:24:01:415
4.8826,-8.1439,2.311,-0.1636,-0.2368,-0.1016,0.0112,0.009,-0.0148,443,2019-08-07 16:24:01:420
4.8922,-8.1344,2.2545,-0.1636,-0.2368,-0.1016,0.0038,5.0E-4,-0.0138,449,2019-08-07 16:24:01:426
4.8922,-8.1344,2.2545,-0.1636,-0.2368,-0.1016,0.0038,5.0E-4,-0.0138,452,2019-08-07 16:24:01:429
4.8826,-8.0914,2.1319,-0.1636,-0.2368,-0.1016,0.0038,5.0E-4,-0.0138,458,2019-08-07 16:24:01:435
4.8826,-8.0914,2.1319,-0.274,-0.2626,0.0175,-0.0112,-0.0038,-0.0106,463,2019-08-07 16:24:01:440
4.8826,-8.0914,2.1319,-0.274,-0.2626,0.0175,-0.0112,-0.0038,-0.0106,467,2019-08-07 16:24:01:444
4.9209,-8.12,2.179,-0.274,-0.2626,0.0175,-0.008,-0.0113,0.0011,473,2019-08-07 16:24:01:450
4.9209,-8.12,2.179,-0.274,-0.2626,0.0175,-0.008,-0.0113,0.0011,478,2019-08-07 16:24:01:455
4.8922,-8.1869,2.1036,-0.2279,-0.1375,0.0429,0.008,0.0036,-0.0042,483,2019-08-07 16:24:01:460
4.8922,-8.1869,2.1036,-0.2279,-0.1375,0.0429,0.008,0.0036,-0.0042,488,2019-08-07 16:24:01:465
4.8922,-8.1869,2.1036,-0.2279,-0.1375,0.0429,0.0155,0.0058,-0.0138,493,2019-08-07 16:24:01:470
4.6338,-8.1582,2.1366,-0.2279,-0.1375,0.0429,0.0155,0.0058,-0.0138,498,2019-08-07 16:24:01:475
4.6338,-8.1582,2.1366,0.1382,-0.2453,0.0546,0.0155,0.0058,-0.0138,502,2019-08-07 16:24:01:479
4.6338,-8.1582,2.1366,0.1382,-0.2453,0.0546,0.0176,-0.0059,-0.0298,508,2019-08-07 16:24:01:485
4.5094,-8.1105,2.1743,0.1382,-0.2453,0.0546,0.0176,-0.0059,-0.0298,513,2019-08-07 16:24:01:490
4.5094,-8.1105,2.1743,0.1382,-0.2453,0.0546,0.0133,-0.0209,-0.0532,517,2019-08-07 16:24:01:494
4.2846,-8.0723,2.1885,0.3168,-0.2366,0.0232,0.0133,-0.0209,-0.0532,523,2019-08-07 16:24:01:500
4.2846,-8.0723,2.1885,0.3168,-0.2366,0.0232,0.0048,-0.0347,-0.0841,527,2019-08-07 16:24:01:504
4.2846,-8.0723,2.1885,0.3168,-0.2366,0.0232,0.0048,-0.0347,-0.0841,533,2019-08-07 16:24:01:510
4.2272,-8.0962,2.1036,0.3168,-0.2366,0.0232,-0.0016,-0.056,-0.116,538,2019-08-07 16:24:01:515
4.2272,-8.0962,2.1036,0.5291,-0.2379,0.0907,-0.0016,-0.056,-0.116,542,2019-08-07 16:24:01:519
4.1793,-8.0818,2.1178,0.5291,-0.2379,0.0907,-0.0186,-0.0635,-0.1597,548,2019-08-07 16:24:01:525
4.1793,-8.0818,2.1178,0.5291,-0.2379,0.0907,-0.0186,-0.0635,-0.1597,553,2019-08-07 16:24:01:530
4.1793,-8.0818,2.1178,0.5291,-0.2379,0.0907,-0.0186,-0.0635,-0.1597,558,2019-08-07 16:24:01:535
3.9114,-8.0771,2.0895,0.8063,-0.2197,0.1227,-0.0346,-0.089,-0.2013,563,2019-08-07 16:24:01:540
3.9114,-8.0771,2.0895,0.8063,-0.2197,0.1227,-0.0346,-0.089,-0.2013,568,2019-08-07 16:24:01:545
3.6961,-8.058,2.1602,0.8063,-0.2197,0.1227,-0.0378,-0.1316,-0.2471,572,2019-08-07 16:24:01:549
3.6961,-8.058,2.1602,0.8063,-0.2197,0.1227,-0.0378,-0.1316,-0.2471,578,2019-08-07 16:24:01:555
3.6961,-8.058,2.1602,1.2917,-0.3347,0.0064,-0.0378,-0.1902,-0.2929,582,2019-08-07 16:24:01:559
3.4521,-7.9386,2.1036,1.2917,-0.3347,0.0064,-0.0378,-0.1902,-0.2929,588,2019-08-07 16:24:01:565
3.4521,-7.9386,2.1036,1.2917,-0.3347,0.0064,-0.0399,-0.2169,-0.344,593,2019-08-07 16:24:01:570
3.2751,-7.8909,1.8632,1.2917,-0.3347,0.0064,-0.0399,-0.2169,-0.344,598,2019-08-07 16:24:01:575
3.2751,-7.8909,1.8632,1.5698,-0.3557,0.3428,-0.0357,-0.1806,-0.4441,603,2019-08-07 16:24:01:580
3.2751,-7.8909,1.8632,1.5698,-0.3557,0.3428,-0.0357,-0.1806,-0.4441,608,2019-08-07 16:24:01:585
2.9354,-7.8432,1.7737,1.5698,-0.3557,0.3428,-0.0357,-0.1806,-0.4441,613,2019-08-07 16:24:01:590
2.9354,-7.8432,1.7737,1.5698,-0.3557,0.3428,-0.025,-0.105,-0.5613,618,2019-08-07 16:24:01:595
2.9354,-7.8432,1.7737,2.2867,-0.475,0.3154,-0.025,-0.105,-0.5613,623,2019-08-07 16:24:01:600
2.524,-7.6904,1.7501,2.2867,-0.475,0.3154,-0.0122,-0.0251,-0.6998,627,2019-08-07 16:24:01:604
2.524,-7.6904,1.7501,2.2867,-0.475,0.3154,-0.0122,-0.0251,-0.6998,633,2019-08-07 16:24:01:610
2.3087,-7.3896,1.6511,2.2867,-0.475,0.3154,-0.0101,0.0527,-0.8671,638,2019-08-07 16:24:01:615
2.3087,-7.3896,1.6511,3.1163,-0.8957,0.4951,-0.0101,0.0527,-0.8671,643,2019-08-07 16:24:01:620
2.3087,-7.3896,1.6511,3.1163,-0.8957,0.4951,-0.0101,0.0527,-0.8671,648,2019-08-07 16:24:01:625
1.127,-6.7595,1.5333,3.1163,-0.8957,0.4951,0.0272,0.1911,-1.192,652,2019-08-07 16:24:01:629
1.127,-6.7595,1.5333,3.1163,-0.8957,0.4951,0.0272,0.1911,-1.192,658,2019-08-07 16:24:01:635
1.127,-6.7595,1.5333,4.7603,-1.8671,0.5997,0.0592,0.2721,-1.3645,662,2019-08-07 16:24:01:639
0.2946,-6.0625,1.5804,4.7603,-1.8671,0.5997,0.0592,0.2721,-1.3645,668,2019-08-07 16:24:01:645
0.2946,-6.0625,1.5804,4.7603,-1.8671,0.5997,0.1572,0.3733,-1.7395,672,2019-08-07 16:24:01:649
-0.6862,-5.5565,1.505,4.7603,-1.8671,0.5997,0.1572,0.3733,-1.7395,678,2019-08-07 16:24:01:655
-0.6862,-5.5565,1.505,6.5145,-2.4932,0.9049,0.2679,0.4095,-2.0996,682,2019-08-07 16:24:01:659
-0.6862,-5.5565,1.505,6.5145,-2.4932,0.9049,0.2679,0.4095,-2.0996,688,2019-08-07 16:24:01:665
-1.2555,-5.4658,1.2929,6.5145,-2.4932,0.9049,0.3532,0.4148,-2.482,693,2019-08-07 16:24:01:670
-1.2555,-5.4658,1.2929,6.5145,-2.4932,0.9049,0.3532,0.4148,-2.482,698,2019-08-07 16:24:01:675
-1.2555,-5.4658,1.2929,7.5217,-1.3219,1.6345,0.5012,0.5278,-2.9901,703,2019-08-07 16:24:01:680
-1.9062,-6.4301,0.4679,7.5217,-1.3219,1.6345,0.5012,0.5278,-2.9901,708,2019-08-07 16:24:01:685
-1.9062,-6.4301,0.4679,7.5217,-1.3219,1.6345,0.6397,0.8921,-3.5547,713,2019-08-07 16:24:01:690
-2.6238,-7.6283,-1.724,8.2739,-0.3233,3.3244,0.6397,0.8921,-3.5547,718,2019-08-07 16:24:01:695
-2.6238,-7.6283,-1.724,8.2739,-0.3233,3.3244,0.6397,0.8921,-3.5547,722,2019-08-07 16:24:01:699
-2.6238,-7.6283,-1.724,8.2739,-0.3233,3.3244,0.6951,1.6282,-4.2802,728,2019-08-07 16:24:01:705
-4.6523,-9.1798,-3.6708,8.2739,-0.3233,3.3244,0.6951,1.6282,-4.2802,733,2019-08-07 16:24:01:710
-4.6523,-9.1798,-3.6708,11.8656,2.7138,6.787,0.6951,1.6282,-4.2802,737,2019-08-07 16:24:01:714
-4.6523,-9.1798,-3.6708,11.8656,2.7138,6.787,0.8506,2.8426,-5.1196,743,2019-08-07 16:24:01:720
-8.3745,-12.0202,-6.4566,11.8656,2.7138,6.787,1.0168,3.7438,-5.6245,749,2019-08-07 16:24:01:726
-8.3745,-12.0202,-6.4566,11.8656,2.7138,6.787,1.0168,3.7438,-5.6245,752,2019-08-07 16:24:01:729
-14.9432,-16.3692,-9.2519,20.3573,9.4804,11.6628,1.0168,3.7438,-5.6245,758,2019-08-07 16:24:01:735
-14.9432,-16.3692,-9.2519,20.3573,9.4804,11.6628,1.3002,4.6759,-5.975,763,2019-08-07 16:24:01:740
-14.9432,-16.3692,-9.2519,20.3573,9.4804,11.6628,1.3002,4.6759,-5.975,768,2019-08-07 16:24:01:745
-19.273,-19.6822,-8.4647,20.3573,9.4804,11.6628,1.8914,5.7326,-6.0975,773,2019-08-07 16:24:01:750
-19.273,-19.6822,-8.4647,27.1957,16.1298,12.1418,1.8914,5.7326,-6.0975,778,2019-08-07 16:24:01:755
-21.2584,-24.5515,-6.2539,27.1957,16.1298,12.1418,2.7703,6.2994,-6.1902,783,2019-08-07 16:24:01:760
-21.2584,-24.5515,-6.2539,27.1957,16.1298,12.1418,2.7703,6.2994,-6.1902,788,2019-08-07 16:24:01:765
-21.2584,-24.5515,-6.2539,27.1957,16.1298,12.1418,4.0656,5.7475,-6.4277,793,2019-08-07 16:24:01:770
-15.3642,-28.9721,0.1238,22.5487,24.8944,5.167,4.0656,5.7475,-6.4277,799,2019-08-07 16:24:01:776
-15.3642,-28.9721,0.1238,22.5487,24.8944,5.167,5.8808,3.9931,-7.4973,803,2019-08-07 16:24:01:780
-8.8816,-23.6827,1.835,22.5487,24.8944,5.167,5.8808,3.9931,-7.4973,808,2019-08-07 16:24:01:785
-8.8816,-23.6827,1.835,22.5487,24.8944,5.167,8.0603,2.0724,-9.1101,813,2019-08-07 16:24:01:790
-8.8816,-23.6827,1.835,16.3984,17.5358,6.8015,8.0603,2.0724,-9.1101,818,2019-08-07 16:24:01:795
-8.8002,-16.6795,-3.2937,16.3984,17.5358,6.8015,9.9235,1.0274,-10.3863,823,2019-08-07 16:24:01:800
-8.8002,-16.6795,-3.2937,16.3984,17.5358,6.8015,9.9235,1.0274,-10.3863,828,2019-08-07 16:24:01:805
-6.2072,-9.366,-15.46,16.3984,17.5358,6.8015,11.2348,1.8572,-11.2821,833,2019-08-07 16:24:01:810
-6.2072,-9.366,-15.46,11.8665,9.6872,21.4076,11.2348,1.8572,-11.2821,838,2019-08-07 16:24:01:815
-6.2072,-9.366,-15.46,11.8665,9.6872,21.4076,11.2348,1.8572,-11.2821,843,2019-08-07 16:24:01:820
-5.4465,6.7695,6.9212,11.8665,9.6872,21.4076,11.8825,4.2839,-11.9298,848,2019-08-07 16:24:01:825
-5.4465,6.7695,6.9212,11.8665,9.6872,21.4076,11.8825,4.2839,-11.9298,853,2019-08-07 16:24:01:830
-5.4465,6.7695,6.9212,39.0531,-125.9956,-60.5415,13.1757,-6.9909,-7.4877,858,2019-08-07 16:24:01:835
-28.7075,133.5383,39.7858,39.0531,-125.9956,-60.5415,13.1757,-6.9909,-7.4877,863,2019-08-07 16:24:01:840
-28.7075,133.5383,39.7858,39.0531,-125.9956,-60.5415,13.2727,-10.7289,-5.486,868,2019-08-07 16:24:01:845
19.1876,75.355,-41.2917,39.0531,-125.9956,-60.5415,13.2727,-10.7289,-5.486,873,2019-08-07 16:24:01:850
19.1876,75.355,-41.2917,-13.8972,-57.8775,58.6286,7.2774,-12.673,-5.9548,877,2019-08-07 16:24:01:854
19.1876,75.355,-41.2917,-13.8972,-57.8775,58.6286,7.2774,-12.673,-5.9548,884,2019-08-07 16:24:01:861
25.2779,50.66,-71.8372,-13.8972,-57.8775,58.6286,-2.9587,-15.8677,-2.3169,888,2019-08-07 16:24:01:865
25.2779,50.66,-71.8372,-13.8972,-57.8775,58.6286,-2.9587,-15.8677,-2.3169,893,2019-08-07 16:24:01:870
25.2779,50.66,-71.8372,-17.2338,-35.4038,53.582,-2.9587,-15.8677,-2.3169,898,2019-08-07 16:24:01:875
23.3212,37.2742,-43.7004,-17.2338,-35.4038,53.582,-8.1519,-4.8731,2.0443,902,2019-08-07 16:24:01:879
23.3212,37.2742,-43.7004,-17.2338,-35.4038,53.582,-8.1519,-4.8731,2.0443,908,2019-08-07 16:24:01:885
40.1473,-5.8047,1.7972,-17.2338,-35.4038,53.582,-10.5732,2.2439,5.3733,913,2019-08-07 16:24:01:890
40.1473,-5.8047,1.7972,-45.3354,18.7082,-141.8312,-6.5604,0.581,5.2454,918,2019-08-07 16:24:01:895
40.1473,-0.1525,33.0357,-45.3354,18.7082,-141.8312,-6.5604,0.581,5.2454,923,2019-08-07 16:24:01:900
35.454,-0.1525,33.0357,-45.3354,18.7082,-141.8312,-6.5604,0.581,5.2454,928,2019-08-07 16:24:01:905
35.454,-0.1525,33.0357,-45.3354,18.7082,-141.8312,-0.3893,-7.1858,4.9738,932,2019-08-07 16:24:01:909
14.1833,16.1692,2.9616,-5.8779,-11.5386,-0.55,-0.3893,-7.1858,4.9738,938,2019-08-07 16:24:01:915
14.1833,16.1692,2.9616,-5.8779,-11.5386,-0.55,5.7647,1.1403,6.2542,943,2019-08-07 16:24:01:920
12.7624,28.3233,-15.0452,-5.8779,-11.5386,-0.55,7.4223,7.7066,7.801,948,2019-08-07 16:24:01:925
12.7624,28.3233,-15.0452,-5.8779,-11.5386,-0.55,7.4223,7.7066,7.801,953,2019-08-07 16:24:01:930
12.7624,28.3233,-15.0452,-5.2987,-39.9134,-31.1396,7.4223,7.7066,7.801,958,2019-08-07 16:24:01:935
23.302,32.4383,-11.1516,-5.2987,-39.9134,-31.1396,3.3157,6.4836,8.3496,963,2019-08-07 16:24:01:940
23.302,32.4383,-11.1516,-5.2987,-39.9134,-31.1396,3.3157,6.4836,8.3496,968,2019-08-07 16:24:01:945
23.302,32.4383,-11.1516,-5.2987,-39.9134,-31.1396,-2.6711,-2.0235,7.0127,973,2019-08-07 16:24:01:950
13.9154,31.6029,-18.4156,-5.8536,-28.5963,11.305,-2.6711,-2.0235,7.0127,977,2019-08-07 16:24:01:954
13.9154,31.6029,-18.4156,-5.8536,-28.5963,11.305,-4.7122,-3.3605,6.2489,983,2019-08-07 16:24:01:960
13.9154,31.6029,-18.4156,-5.8536,-28.5963,11.305,-4.7122,-3.3605,6.2489,988,2019-08-07 16:24:01:965
5.0693,22.1412,-9.5913,-5.8536,-28.5963,11.305,-5.7678,0.875,6.9935,994,2019-08-07 16:24:01:971
5.0693,22.1412,-9.5913,4.6847,-15.8682,-14.4931,-5.7678,0.875,6.9935,998,2019-08-07 16:24:01:975
7.2222,12.88,32.2673,4.6847,-15.8682,-14.4931,-5.7678,0.875,6.9935,1003,2019-08-07 16:24:01:980
7.2222,12.88,32.2673,4.6847,-15.8682,-14.4931,-4.1114,-2.4433,8.1504,1008,2019-08-07 16:24:01:985
7.2222,12.88,32.2673,4.6847,-15.8682,-14.4931,-4.1114,-2.4433,8.1504,1013,2019-08-07 16:24:01:990
6.6481,0.8213,9.0329,1.8513,-0.0296,-5.9116,-1.7774,-3.6566,8.2111,1018,2019-08-07 16:24:01:995
6.6481,0.8213,9.0329,1.8513,-0.0296,-5.9116,-1.7774,-3.6566,8.2111,1023,2019-08-07 16:24:02:000
6.6481,0.8213,9.0329,1.8513,-0.0296,-5.9116,-1.0668,-3.4574,7.817,1028,2019-08-07 16:24:02:005
9.4756,-3.5229,2.5373,1.8513,-0.0296,-5.9116,-1.0668,-3.4574,7.817,1033,2019-08-07 16:24:02:010
9.4756,-3.5229,2.5373,-1.3772,2.6487,3.9332,-1.3363,-3.2827,7.2566,1037,2019-08-07 16:24:02:014
10.997,-5.356,-2.4735,-1.3772,2.6487,3.9332,-1.3363,-3.2827,7.2566,1043,2019-08-07 16:24:02:020
10.997,-5.356,-2.4735,-1.3772,2.6487,3.9332,-1.8296,-2.2228,6.6878,1048,2019-08-07 16:24:02:025
10.997,-5.356,-2.4735,-1.3772,2.6487,3.9332,-1.8296,-2.2228,6.6878,1053,2019-08-07 16:24:02:030
11.1788,-6.8693,4.7057,-1.3772,2.6487,3.9332,-1.9169,-0.8241,6.185,1058,2019-08-07 16:24:02:035
11.1788,-6.8693,4.7057,-1.6997,3.2976,-7.878,-1.9169,-0.8241,6.185,1063,2019-08-07 16:24:02:040
11.1788,-6.8693,4.7057,-1.6997,3.2976,-7.878,-0.8559,-0.0805,5.9165,1068,2019-08-07 16:24:02:045
6.8204,-6.8216,5.6296,-1.6997,3.2976,-7.878,-0.8559,-0.0805,5.9165,1072,2019-08-07 16:24:02:049
6.8204,-6.8216,5.6296,-1.6997,3.2976,-7.878,0.1039,1.3672,5.9261,1078,2019-08-07 16:24:02:055
3.4092,-6.6258,3.6026,4.6107,2.0124,-2.0491,0.1039,1.3672,5.9261,1084,2019-08-07 16:24:02:061
3.4092,-6.6258,3.6026,4.6107,2.0124,-2.0491,0.138,2.1331,6.1264,1088,2019-08-07 16:24:02:065
3.4092,-6.6258,3.6026,4.6107,2.0124,-2.0491,0.138,2.1331,6.1264,1093,2019-08-07 16:24:02:070
0.7348,-4.8739,1.34,4.6107,2.0124,-2.0491,-0.1614,2.3685,6.2297,1098,2019-08-07 16:24:02:075
0.7348,-4.8739,1.34,7.1792,-1.219,-0.0683,-0.1614,2.3685,6.2297,1103,2019-08-07 16:24:02:080
0.7348,-4.8739,1.34,7.1792,-1.219,-0.0683,-0.1614,2.3685,6.2297,1108,2019-08-07 16:24:02:085
-0.4514,-4.1244,3.1549,7.1792,-1.219,-0.0683,-0.4596,2.457,6.12,1113,2019-08-07 16:24:02:090
-0.4514,-4.1244,3.1549,7.948,-1.9667,-0.8882,-0.4596,2.457,6.12,1119,2019-08-07 16:24:02:096
-1.3125,-5.0935,2.7259,7.948,-1.9667,-0.8882,-0.3957,2.3067,5.8611,1123,2019-08-07 16:24:02:100
-1.3125,-5.0935,2.7259,7.948,-1.9667,-0.8882,-0.3957,2.3067,5.8611,1127,2019-08-07 16:24:02:104
-1.3125,-5.0935,2.7259,7.948,-1.9667,-0.8882,-0.3957,2.3067,5.8611,1134,2019-08-07 16:24:02:111
-2.2215,-6.4492,0.996,7.948,-1.9667,-0.8882,-0.3233,2.2652,5.6055,1138,2019-08-07 16:24:02:115
-2.2215,-6.4492,0.996,8.9394,-0.0659,2.444,-0.3233,2.2652,5.6055,1143,2019-08-07 16:24:02:120
-3.8147,-8.0723,-0.5737,8.9394,-0.0659,2.444,-0.3467,2.4122,5.402,1147,2019-08-07 16:24:02:124
-3.8147,-8.0723,-0.5737,8.9394,-0.0659,2.444,-0.3467,2.4122,5.402,1153,2019-08-07 16:24:02:130
-3.8147,-8.0723,-0.5737,8.9394,-0.0659,2.444,-0.2263,2.9725,5.1464,1158,2019-08-07 16:24:02:135
-4.8768,-9.7957,-1.0027,9.6857,1.646,3.5898,-0.2263,2.9725,5.1464,1163,2019-08-07 16:24:02:140
-4.8768,-9.7957,-1.0027,9.6857,1.646,3.5898,-0.0335,3.6905,4.7543,1168,2019-08-07 16:24:02:145
-5.3073,-9.8434,-0.9178,9.6857,1.646,3.5898,-0.0335,3.6905,4.7543,1173,2019-08-07 16:24:02:150
-5.3073,-9.8434,-0.9178,9.6857,1.646,3.5898,0.2211,4.4351,4.0896,1177,2019-08-07 16:24:02:154
-5.3073,-9.8434,-0.9178,9.7463,0.6361,3.869,0.2211,4.4351,4.0896,1183,2019-08-07 16:24:02:160
-6.4412,-8.6977,-1.3798,9.7463,0.6361,3.869,0.4416,5.2469,2.9999,1188,2019-08-07 16:24:02:165
-6.4412,-8.6977,-1.3798,9.7463,0.6361,3.869,0.4416,5.2469,2.9999,1193,2019-08-07 16:24:02:170
-8.6659,-6.8312,-0.734,9.7463,0.6361,3.869,0.4416,5.2469,2.9999,1197,2019-08-07 16:24:02:174
-8.6659,-6.8312,-0.734,11.913,-2.3288,3.5559,0.3095,5.1297,1.8856,1203,2019-08-07 16:24:02:180
-8.6659,-6.8312,-0.734,11.913,-2.3288,3.5559,0.3095,5.1297,1.8856,1208,2019-08-07 16:24:02:185
-10.1011,-5.3799,1.0573,12.7039,-3.7073,1.9716,0.1934,4.4735,1.3668,1212,2019-08-07 16:24:02:189
-10.1011,-5.3799,1.0573,12.7039,-3.7073,1.9716,0.1934,4.4735,1.3668,1217,2019-08-07 16:24:02:194
-8.0248,-4.0241,3.0512,12.7039,-3.7073,1.9716,-0.0165,2.2663,0.8992,1223,2019-08-07 16:24:02:200
-8.0248,-4.0241,3.0512,12.7039,-3.7073,1.9716,-0.0165,2.2663,0.8992,1228,2019-08-07 16:24:02:205
-8.0248,-4.0241,3.0512,7.4192,-4.711,2.0125,-0.2508,-0.0272,0.8406,1233,2019-08-07 16:24:02:210
-3.5706,-4.6209,0.1616,7.4192,-4.711,2.0125,-0.2508,-0.0272,0.8406,1239,2019-08-07 16:24:02:216
-3.5706,-4.6209,0.1616,7.4192,-4.711,2.0125,-0.5065,-1.0158,0.7798,1243,2019-08-07 16:24:02:220
-3.5706,-4.6209,0.1616,7.4192,-4.711,2.0125,-0.5065,-1.0158,0.7798,1248,2019-08-07 16:24:02:225
1.4146,-5.4324,1.4627,-0.212,-3.375,2.6108,-0.5065,-1.0158,0.7798,1253,2019-08-07 16:24:02:230
1.4146,-5.4324,1.4627,-0.212,-3.375,2.6108,-0.2721,-1.0286,0.5295,1258,2019-08-07 16:24:02:235
3.5005,-5.7857,-0.7434,-0.212,-3.375,2.6108,-0.2721,-1.0286,0.5295,1263,2019-08-07 16:24:02:240
3.5005,-5.7857,-0.7434,-0.212,-3.375,2.6108,-0.1837,-0.9657,0.4336,1269,2019-08-07 16:24:02:246
3.5005,-5.7857,-0.7434,-2.3693,-2.4714,4.8955,-0.1837,-0.9657,0.4336,1273,2019-08-07 16:24:02:250
4.4143,-6.6736,-1.6909,-2.3693,-2.4714,4.8955,-0.0825,-0.3191,0.3889,1278,2019-08-07 16:24:02:255
4.4143,-6.6736,-1.6909,-2.4812,-1.9753,5.4333,-0.0825,-0.3191,0.3889,1283,2019-08-07 16:24:02:260
4.4143,-6.6736,-1.6909,-2.4812,-1.9753,5.4333,-0.0825,-0.3191,0.3889,1287,2019-08-07 16:24:02:264
3.8593,-7.1892,-1.5118,-2.4812,-1.9753,5.4333,-0.1081,0.8676,0.1865,1293,2019-08-07 16:24:02:270
3.8593,-7.1892,-1.5118,-2.4812,-1.9753,5.4333,-0.1081,0.8676,0.1865,1298,2019-08-07 16:24:02:275
1.7543,-7.0364,0.5152,0.1623,-1.9926,2.8074,-0.14,1.2905,-0.0085,1303,2019-08-07 16:24:02:280
1.7543,-7.0364,0.5152,0.1623,-1.9926,2.8074,-0.14,1.2905,-0.0085,1308,2019-08-07 16:24:02:285
1.7543,-7.0364,0.5152,0.1623,-1.9926,2.8074,-0.1294,1.2777,-0.1874,1313,2019-08-07 16:24:02:290
0.1085,-6.9266,1.7078,0.1623,-1.9926,2.8074,-0.1294,1.2777,-0.1874,1318,2019-08-07 16:24:02:295
0.1085,-6.9266,1.7078,2.2645,-2.1445,1.1707,-0.1922,0.8676,-0.2716,1323,2019-08-07 16:24:02:300
-0.6091,-6.9123,2.3159,2.2645,-2.1445,1.1707,-0.1922,0.8676,-0.2716,1328,2019-08-07 16:24:02:305
-0.6091,-6.9123,2.3159,2.2645,-2.1445,1.1707,-0.3084,0.2796,-0.3163,1334,2019-08-07 16:24:02:311
-0.6091,-6.9123,2.3159,2.2645,-2.1445,1.1707,-0.3084,0.2796,-0.3163,1338,2019-08-07 16:24:02:315
-0.389,-7.1319,2.8344,2.2645,-2.1445,1.1707,-0.3084,0.2796,-0.3163,1343,2019-08-07 16:24:02:320
-0.389,-7.1319,2.8344,2.0659,-1.8218,0.4115,-0.4298,-0.3575,-0.3323,1348,2019-08-07 16:24:02:325
0.4051,-7.4995,2.858,2.0659,-1.8218,0.4115,-0.4298,-0.3575,-0.3323,1352,2019-08-07 16:24:02:329
0.4051,-7.4995,2.858,2.0659,-1.8218,0.4115,-0.5054,-0.8997,-0.3547,1358,2019-08-07 16:24:02:335
1.6538,-8.0294,2.6034,0.3185,-1.0396,0.5747,-0.5225,-1.2139,-0.3589,1363,2019-08-07 16:24:02:340
1.6538,-8.0294,2.6034,0.3185,-1.0396,0.5747,-0.5225,-1.2139,-0.3589,1368,2019-08-07 16:24:02:345
1.6538,-8.0294,2.6034,0.3185,-1.0396,0.5747,-0.5225,-1.2139,-0.3589,1373,2019-08-07 16:24:02:350
2.9647,-8.502,1.9812,0.3185,-1.0396,0.5747,-0.5299,-1.3524,-0.3696,1378,2019-08-07 16:24:02:355
2.9647,-8.502,1.9812,-1.5138,-0.3421,1.349,-0.5299,-1.3524,-0.3696,1383,2019-08-07 16:24:02:360
3.9838,-8.9269,1.6324,-1.5138,-0.3421,1.349,-0.5374,-1.2747,-0.4101,1388,2019-08-07 16:24:02:365
3.9838,-8.9269,1.6324,-1.5138,-0.3421,1.349,-0.5374,-1.2747,-0.4101,1393,2019-08-07 16:24:02:370
3.9838,-8.9269,1.6324,-1.5138,-0.3421,1.349,-0.5022,-1.036,-0.4655,1398,2019-08-07 16:24:02:375
4.6536,-9.3231,2.0095,-2.2717,0.2543,0.8261,-0.5022,-1.036,-0.4655,1403,2019-08-07 16:24:02:380
4.6536,-9.3231,2.0095,-2.2717,0.2543,0.8261,-0.5022,-1.036,-0.4655,1408,2019-08-07 16:24:02:385
4.6536,-9.3231,2.0095,-2.2717,0.2543,0.8261,-0.4149,-0.6611,-0.4942,1413,2019-08-07 16:24:02:390
4.2756,-9.3374,2.2075,-2.2717,0.2543,0.8261,-0.4149,-0.6611,-0.4942,1418,2019-08-07 16:24:02:395
4.2756,-9.3374,2.2075,-2.2717,0.2543,0.8261,-0.3499,-0.2435,-0.4399,1423,2019-08-07 16:24:02:400
3.9264,-9.2945,2.9004,-1.499,0.1994,-0.1394,-0.3499,-0.2435,-0.4399,1428,2019-08-07 16:24:02:405
3.9264,-9.2945,2.9004,-1.499,0.1994,-0.1394,-0.3179,-0.0571,-0.4239,1433,2019-08-07 16:24:02:410
3.9264,-9.2945,2.9004,-1.499,0.1994,-0.1394,-0.3179,-0.0571,-0.4239,1437,2019-08-07 16:24:02:414
2.9408,-9.1799,3.6216,-1.499,0.1994,-0.1394,-0.3094,-0.0454,-0.4069,1443,2019-08-07 16:24:02:420
2.9408,-9.1799,3.6216,-0.1303,0.0574,-1.2583,-0.3094,-0.0454,-0.4069,1449,2019-08-07 16:24:02:426
2.3189,-9.1847,4.2297,-0.1303,0.0574,-1.2583,-0.3094,-0.0454,-0.4069,1452,2019-08-07 16:24:02:429
2.3189,-9.1847,4.2297,-0.1303,0.0574,-1.2583,-0.3073,-0.2904,-0.3579,1458,2019-08-07 16:24:02:435
2.3189,-9.1847,4.2297,-0.1303,0.0574,-1.2583,-0.3073,-0.2904,-0.3579,1463,2019-08-07 16:24:02:440
2.3524,-9.304,4.1118,0.2393,0.2193,-1.4684,-0.3169,-0.546,-0.3057,1468,2019-08-07 16:24:02:445
2.3524,-9.304,4.1118,0.2393,0.2193,-1.4684,-0.3169,-0.546,-0.3057,1473,2019-08-07 16:24:02:450
2.9313,-9.5618,3.8762,0.2393,0.2193,-1.4684,-0.3211,-0.7644,-0.2535,1477,2019-08-07 16:24:02:454
2.9313,-9.5618,3.8762,0.2393,0.2193,-1.4684,-0.3211,-0.7644,-0.2535,1483,2019-08-07 16:24:02:460
2.9313,-9.5618,3.8762,-0.6887,0.5914,-1.0102,-0.2775,-0.8592,-0.2183,1488,2019-08-07 16:24:02:465
3.6633,-9.7814,3.4095,-0.6887,0.5914,-1.0102,-0.2775,-0.8592,-0.2183,1493,2019-08-07 16:24:02:470
3.6633,-9.7814,3.4095,-0.6887,0.5914,-1.0102,-0.2189,-0.791,-0.2045,1499,2019-08-07 16:24:02:476
4.2805,-9.8339,2.9852,-0.6887,0.5914,-1.0102,-0.2189,-0.791,-0.2045,1503,2019-08-07 16:24:02:480
4.2805,-9.8339,2.9852,-1.6502,0.7415,-0.3748,-0.2189,-0.791,-0.2045,1508,2019-08-07 16:24:02:485
4.2805,-9.8339,2.9852,-1.6502,0.7415,-0.3748,-0.1603,-0.6291,-0.2013,1512,2019-08-07 16:24:02:489
4.9168,-9.8053,2.9193,-1.6502,0.7415,-0.3748,-0.1603,-0.6291,-0.2013,1518,2019-08-07 16:24:02:495
4.9168,-9.8053,2.9193,-1.6502,0.7415,-0.3748,-0.0644,-0.3468,-0.2109,1523,2019-08-07 16:24:02:500
4.9168,-9.8053,2.9193,-2.0879,0.4938,-0.6956,-0.0644,-0.3468,-0.2109,1528,2019-08-07 16:24:02:505
4.9359,-9.5427,3.1597,-2.0879,0.4938,-0.6956,0.0155,-0.0986,-0.1874,1533,2019-08-07 16:24:02:510
4.9359,-9.5427,3.1597,-2.0879,0.4938,-0.6956,0.0155,-0.0986,-0.1874,1538,2019-08-07 16:24:02:515
4.9359,-9.5427,3.1597,-2.0879,0.4938,-0.6956,0.0155,-0.0986,-0.1874,1542,2019-08-07 16:24:02:519
4.6058,-9.1656,3.0041,-1.5656,0.0027,-0.5076,0.0315,0.075,-0.1352,1548,2019-08-07 16:24:02:525
4.6058,-9.1656,3.0041,-1.5656,0.0027,-0.5076,0.0315,0.075,-0.1352,1553,2019-08-07 16:24:02:530
4.2279,-8.9603,2.957,-1.5656,0.0027,-0.5076,-0.0197,0.2018,-0.0361,1558,2019-08-07 16:24:02:535
4.2279,-8.9603,2.957,-1.5656,0.0027,-0.5076,-0.0197,0.2018,-0.0361,1563,2019-08-07 16:24:02:540
3.8403,-8.9698,3.122,-0.9975,-0.0343,-0.6462,-0.0058,0.1911,-0.001,1568,2019-08-07 16:24:02:545
3.8403,-8.9698,3.122,-0.9975,-0.0343,-0.6462,-0.0058,0.1911,-0.001,1573,2019-08-07 16:24:02:550
3.8403,-8.9698,3.122,-0.9975,-0.0343,-0.6462,0.0283,0.1006,0.0416,1577,2019-08-07 16:24:02:554
3.3428,-9.0271,2.9193,-0.9975,-0.0343,-0.6462,0.0283,0.1006,0.0416,1583,2019-08-07 16:24:02:560
3.3428,-9.0271,2.9193,-0.4549,-0.0565,-0.4191,0.0581,-0.0379,0.081,1588,2019-08-07 16:24:02:565
3.3428,-9.0271,2.9193,-0.4549,-0.0565,-0.4191,0.0581,-0.0379,0.081,1594,2019-08-07 16:24:02:571
3.4481,-8.8457,2.891,-0.4549,-0.0565,-0.4191,0.0783,-0.1796,0.1141,1599,2019-08-07 16:24:02:576
3.4481,-8.8457,2.891,-0.4549,-0.0565,-0.4191,0.0783,-0.1796,0.1141,1603,2019-08-07 16:24:02:580
3.4481,-8.8457,2.891,-0.897,-0.3384,-0.1056,0.0932,-0.2595,0.1204,1608,2019-08-07 16:24:02:585
3.8212,-8.6786,2.5422,-0.897,-0.3384,-0.1056,0.0932,-0.2595,0.1204,1614,2019-08-07 16:24:02:591
3.8212,-8.6786,2.5422,-0.897,-0.3384,-0.1056,0.0996,-0.2478,0.113,1617,2019-08-07 16:24:02:594
3.8212,-8.6786,2.5422,-0.897,-0.3384,-0.1056,0.0996,-0.2478,0.113,1623,2019-08-07 16:24:02:600
4.137,-8.4209,2.1415,-1.2594,-0.6286,0.3208,0.0741,-0.1604,0.0959,1628,2019-08-07 16:24:02:605
4.137,-8.4209,2.1415,-1.2594,-0.6286,0.3208,0.0741,-0.1604,0.0959,1633,2019-08-07 16:24:02:610
4.0461,-8.4161,2.2311,-1.2594,-0.6286,0.3208,0.0517,-0.0858,0.0821,1638,2019-08-07 16:24:02:615
4.0461,-8.4161,2.2311,-1.2594,-0.6286,0.3208,0.0517,-0.0858,0.0821,1643,2019-08-07 16:24:02:620
4.0461,-8.4161,2.2311,-1.0252,-0.623,0.1212,0.0517,-0.0858,0.0821,1649,2019-08-07 16:24:02:626
3.7878,-8.3731,2.4196,-1.0252,-0.623,0.1212,0.04,-0.0198,0.0682,1653,2019-08-07 16:24:02:630
3.7878,-8.3731,2.4196,-1.0252,-0.623,0.1212,0.04,-0.0198,0.0682,1657,2019-08-07 16:24:02:634
3.7878,-8.3731,2.4196,-1.0252,-0.623,0.1212,0.0304,-0.0177,0.0491,1663,2019-08-07 16:24:02:640
3.3955,-8.2824,2.4997,-0.4577,-0.7987,-0.0381,0.0304,-0.0177,0.0491,1668,2019-08-07 16:24:02:645
3.3955,-8.2824,2.4997,-0.4577,-0.7987,-0.0381,0.0187,-0.0826,0.0374,1672,2019-08-07 16:24:02:649
3.1802,-8.2156,2.6364,-0.4577,-0.7987,-0.0381,0.0187,-0.0826,0.0374,1678,2019-08-07 16:24:02:655
3.1802,-8.2156,2.6364,-0.4577,-0.7987,-0.0381,-0.0058,-0.1785,0.0288,1682,2019-08-07 16:24:02:659
3.1802,-8.2156,2.6364,-0.3417,-0.9224,-0.0858,-0.0058,-0.1785,0.0288,1688,2019-08-07 16:24:02:665
3.252,-8.1249,2.5846,-0.3417,-0.9224,-0.0858,-0.0293,-0.2882,0.0097,1693,2019-08-07 16:24:02:670
3.252,-8.1249,2.5846,-0.3417,-0.9224,-0.0858,-0.0293,-0.2882,0.0097,1698,2019-08-07 16:24:02:675
3.4768,-8.1344,2.429,-0.3417,-0.9224,-0.0858,-0.0293,-0.2882,0.0097,1703,2019-08-07 16:24:02:680
3.4768,-8.1344,2.429,-0.7899,-0.8839,0.0039,-0.0527,-0.3532,-0.0021,1708,2019-08-07 16:24:02:685
3.7591,-8.249,2.4102,-0.7899,-0.8839,0.0039,-0.0527,-0.3532,-0.0021,1713,2019-08-07 16:24:02:690
3.7591,-8.249,2.4102,-0.7899,-0.8839,0.0039,-0.0634,-0.3415,-0.0127,1718,2019-08-07 16:24:02:695
3.7591,-8.249,2.4102,-0.7899,-0.8839,0.0039,-0.0634,-0.3415,-0.0127,1722,2019-08-07 16:24:02:699
3.8883,-8.2776,2.3159,-0.9871,-0.6972,0.0529,-0.0697,-0.3117,-0.0148,1728,2019-08-07 16:24:02:705
3.8883,-8.2776,2.3159,-0.9871,-0.6972,0.0529,-0.0697,-0.3117,-0.0148,1734,2019-08-07 16:24:02:711
3.9313,-8.502,2.4385,-0.9871,-0.6972,0.0529,-0.0761,-0.2904,-0.0138,1738,2019-08-07 16:24:02:715
3.9313,-8.502,2.4385,-0.9871,-0.6972,0.0529,-0.0761,-0.2904,-0.0138,1743,2019-08-07 16:24:02:720
3.9313,-8.502,2.4385,-0.81,-0.4541,-0.0816,-0.0793,-0.2786,1.0E-4,1749,2019-08-07 16:24:02:726
3.6969,-8.6643,2.3536,-0.81,-0.4541,-0.0816,-0.0793,-0.2786,1.0E-4,1753,2019-08-07 16:24:02:730
3.6969,-8.6643,2.3536,-0.81,-0.4541,-0.0816,-0.0793,-0.2786,1.0E-4,1758,2019-08-07 16:24:02:735
3.6491,-8.8028,2.3395,-0.81,-0.4541,-0.0816,-0.0889,-0.3213,0.0331,1764,2019-08-07 16:24:02:741
3.6491,-8.8028,2.3395,-0.81,-0.4541,-0.0816,-0.0889,-0.3213,0.0331,1768,2019-08-07 16:24:02:745
3.6491,-8.8028,2.3395,-0.7035,-0.0858,-0.0839,-0.0697,-0.3884,0.0576,1773,2019-08-07 16:24:02:750
3.63,-8.989,2.5233,-0.7035,-0.0858,-0.0839,-0.0697,-0.3884,0.0576,1778,2019-08-07 16:24:02:755
3.63,-8.989,2.5233,-0.7035,-0.0858,-0.0839,-0.0399,-0.4225,0.0661,1783,2019-08-07 16:24:02:760
3.63,-8.989,2.5233,-0.7035,-0.0858,-0.0839,-0.0399,-0.4225,0.0661,1788,2019-08-07 16:24:02:765
3.5534,-8.8457,2.6553,-0.5714,-0.2095,-0.3431,-0.0165,-0.4619,0.0725,1793,2019-08-07 16:24:02:770
3.5534,-8.8457,2.6553,-0.5714,-0.2095,-0.3431,-0.0165,-0.4619,0.0725,1799,2019-08-07 16:24:02:776
3.8596,-8.6452,2.5563,-0.5714,-0.2095,-0.3431,-0.0367,-0.4672,0.0693,1803,2019-08-07 16:24:02:780
3.8596,-8.6452,2.5563,-0.5714,-0.2095,-0.3431,-0.0367,-0.4672,0.0693,1808,2019-08-07 16:24:02:785
3.8596,-8.6452,2.5563,-1.1967,-0.513,-0.1388,-0.0367,-0.4672,0.0693,1814,2019-08-07 16:24:02:791
4.2711,-8.44,2.462,-1.1967,-0.513,-0.1388,-0.0665,-0.3735,0.0406,1818,2019-08-07 16:24:02:795
4.2711,-8.44,2.462,-1.1967,-0.513,-0.1388,-0.0665,-0.3735,0.0406,1823,2019-08-07 16:24:02:800
4.2711,-8.44,2.462,-1.1967,-0.513,-0.1388,-0.09,-0.2243,0.015,1828,2019-08-07 16:24:02:805
4.1515,-8.3158,2.3725,-1.1342,-0.7436,-0.1234,-0.09,-0.2243,0.015,1833,2019-08-07 16:24:02:810
4.1515,-8.3158,2.3725,-1.1342,-0.7436,-0.1234,-0.1092,-0.0826,0.0022,1837,2019-08-07 16:24:02:814
4.1515,-8.3158,2.3725,-1.1342,-0.7436,-0.1234,-0.1092,-0.0826,0.0022,1844,2019-08-07 16:24:02:821
3.9505,-8.4686,2.6977,-1.1342,-0.7436,-0.1234,-0.106,-0.0549,-0.0116,1848,2019-08-07 16:24:02:825
3.9505,-8.4686,2.6977,-0.801,-0.5251,-0.5269,-0.106,-0.0549,-0.0116,1853,2019-08-07 16:24:02:830
3.9505,-8.4686,2.6977,-0.801,-0.5251,-0.5269,-0.106,-0.0549,-0.0116,1858,2019-08-07 16:24:02:835
3.764,-8.588,2.66,-0.801,-0.5251,-0.5269,-0.0996,-0.1071,-0.0116,1863,2019-08-07 16:24:02:840
3.764,-8.588,2.66,-0.801,-0.5251,-0.5269,-0.0996,-0.1071,-0.0116,1868,2019-08-07 16:24:02:845
3.764,-8.588,2.66,-0.7923,-0.3681,-0.3354,-0.0783,-0.1679,-0.0074,1873,2019-08-07 16:24:02:850
3.8931,-8.7168,2.528,-0.7923,-0.3681,-0.3354,-0.0783,-0.1679,-0.0074,1878,2019-08-07 16:24:02:855
3.8931,-8.7168,2.528,-0.8607,-0.3395,-0.2899,-0.0591,-0.2083,-0.0106,1883,2019-08-07 16:24:02:860
3.8931,-8.7168,2.528,-0.8607,-0.3395,-0.2899,-0.0591,-0.2083,-0.0106,1888,2019-08-07 16:24:02:865
4.0032,-8.7789,2.4526,-0.8607,-0.3395,-0.2899,-0.0271,-0.236,-0.0053,1893,2019-08-07 16:24:02:870
4.0032,-8.7789,2.4526,-0.8607,-0.3395,-0.2899,-0.0271,-0.236,-0.0053,1898,2019-08-07 16:24:02:875
4.185,-8.693,2.3725,-1.1379,-0.3709,-0.1912,-0.008,-0.2147,-0.0138,1903,2019-08-07 16:24:02:880
4.185,-8.693,2.3725,-1.1379,-0.3709,-0.1912,-0.008,-0.2147,-0.0138,1908,2019-08-07 16:24:02:885
4.185,-8.693,2.3725,-1.1379,-0.3709,-0.1912,-0.008,-0.2147,-0.0138,1913,2019-08-07 16:24:02:890
4.1754,-8.5498,2.2735,-1.1379,-0.3709,-0.1912,0.0059,-0.1668,-0.0191,1919,2019-08-07 16:24:02:896
4.1754,-8.5498,2.2735,-1.0794,-0.4238,-0.0366,0.0059,-0.1668,-0.0191,1923,2019-08-07 16:24:02:900
4.1754,-8.693,2.2829,-1.0794,-0.4238,-0.0366,-0.0026,-0.1082,-0.0372,1928,2019-08-07 16:24:02:905
4.1754,-8.693,2.2829,-1.0794,-0.4238,-0.0366,-0.0026,-0.1082,-0.0372,1934,2019-08-07 16:24:02:911
4.1754,-8.693,2.2829,-1.0794,-0.4238,-0.0366,-0.008,-0.0656,-0.0628,1938,2019-08-07 16:24:02:915
4.0271,-8.6978,2.3112,-0.915,-0.3511,-0.1506,-0.008,-0.0656,-0.0628,1943,2019-08-07 16:24:02:920
4.0271,-8.6978,2.3112,-0.915,-0.3511,-0.1506,0.0016,-0.04,-0.0756,1948,2019-08-07 16:24:02:925
4.0271,-8.6978,2.3112,-0.915,-0.3511,-0.1506,0.0016,-0.04,-0.0756,1953,2019-08-07 16:24:02:930
3.7832,-8.65,2.4196,-0.915,-0.3511,-0.1506,0.0016,-0.04,-0.0756,1958,2019-08-07 16:24:02:935
3.7832,-8.65,2.4196,-0.707,-0.4104,-0.3197,0.0219,-0.0624,-0.0702,1963,2019-08-07 16:24:02:940
3.8597,-8.588,2.5045,-0.707,-0.4104,-0.3197,0.0219,-0.0624,-0.0702,1968,2019-08-07 16:24:02:945
3.8597,-8.588,2.5045,-0.707,-0.4104,-0.3197,0.0219,-0.1348,-0.0638,1973,2019-08-07 16:24:02:950
3.8597,-8.588,2.5045,-0.707,-0.4104,-0.3197,0.0219,-0.1348,-0.0638,1980,2019-08-07 16:24:02:957
4.1563,-8.5116,2.3442,-0.9984,-0.5217,-0.1849,0.0133,-0.1668,-0.0564,1984,2019-08-07 16:24:02:961
4.1563,-8.5116,2.3442,-0.9984,-0.5217,-0.1849,0.0133,-0.1668,-0.0564,1987,2019-08-07 16:24:02:964
4.1563,-8.5116,2.3442,-0.9984,-0.5217,-0.1849,0.0133,-0.1668,-0.0564,1993,2019-08-07 16:24:02:970
4.3429,-8.5784,2.2264,-0.9984,-0.5217,-0.1849,0.0261,-0.1434,-0.0361,1999,2019-08-07 16:24:02:976
4.3429,-8.5784,2.2264,-1.2426,-0.419,-0.0575,0.0261,-0.1434,-0.0361,2003,2019-08-07 16:24:02:980
4.3429,-8.5784,2.2264,-1.2426,-0.419,-0.0575,0.0293,-0.0954,-0.0351,2008,2019-08-07 16:24:02:985
4.319,-8.693,2.184,-1.2426,-0.419,-0.0575,0.0293,-0.0954,-0.0351,2012,2019-08-07 16:24:02:989
4.319,-8.693,2.184,-1.2426,-0.419,-0.0575,0.024,-0.0517,-0.034,2018,2019-08-07 16:24:02:995
4.319,-8.693,2.184,-1.0285,-0.3218,-0.0426,0.024,-0.0517,-0.034,2023,2019-08-07 16:24:03:000
4.1755,-8.6978,2.2217,-1.0285,-0.3218,-0.0426,0.0229,0.0015,-0.0415,2027,2019-08-07 16:24:03:004
4.1755,-8.6978,2.2217,-0.8682,-0.2374,-0.0823,0.0229,0.0015,-0.0415,2033,2019-08-07 16:24:03:010
4.1755,-8.6978,2.2217,-0.8682,-0.2374,-0.0823,0.0197,0.0441,-0.0489,2037,2019-08-07 16:24:03:014
3.9698,-8.7694,2.3018,-0.8682,-0.2374,-0.0823,0.0197,0.0441,-0.0489,2043,2019-08-07 16:24:03:020
3.9698,-8.7694,2.3018,-0.8682,-0.2374,-0.0823,0.0144,0.0548,-0.0617,2048,2019-08-07 16:24:03:025
3.7354,-8.7741,2.3867,-0.5156,-0.2359,-0.2214,0.0144,0.0548,-0.0617,2053,2019-08-07 16:24:03:030
3.7354,-8.7741,2.3867,-0.5156,-0.2359,-0.2214,0.0144,0.0548,-0.0617,2058,2019-08-07 16:24:03:035
3.7354,-8.7741,2.3867,-0.5156,-0.2359,-0.2214,0.0251,0.0335,-0.0596,2063,2019-08-07 16:24:03:040
3.611,-8.7073,2.4102,-0.5156,-0.2359,-0.2214,0.0251,0.0335,-0.0596,2068,2019-08-07 16:24:03:045
3.611,-8.7073,2.4102,-0.483,-0.3006,-0.1656,0.041,-0.0368,-0.0511,2072,2019-08-07 16:24:03:049
3.7784,-8.6453,2.4055,-0.483,-0.3006,-0.1656,0.041,-0.0368,-0.0511,2078,2019-08-07 16:24:03:055
3.7784,-8.6453,2.4055,-0.483,-0.3006,-0.1656,0.0357,-0.105,-0.05,2084,2019-08-07 16:24:03:061
3.7784,-8.6453,2.4055,-0.483,-0.3006,-0.1656,0.0357,-0.105,-0.05,2088,2019-08-07 16:24:03:065
3.9507,-8.5068,2.4244,-0.7463,-0.4651,-0.2483,0.0389,-0.1508,-0.0404,2093,2019-08-07 16:24:03:070
3.9507,-8.5068,2.4244,-0.7463,-0.4651,-0.2483,0.0389,-0.1508,-0.0404,2098,2019-08-07 16:24:03:075
3.9507,-8.5068,2.4244,-0.7463,-0.4651,-0.2483,0.0389,-0.1508,-0.0404,2103,2019-08-07 16:24:03:080
3.9507,-8.5068,2.4244,-0.7463,-0.4651,-0.2483,0.0229,-0.1455,-0.0287,2108,2019-08-07 16:24:03:085
4.3143,-8.4973,2.0803,-0.7463,-0.4651,-0.2483,0.0229,-0.1455,-0.0287,2113,2019-08-07 16:24:03:090
4.3143,-8.4973,2.0803,-1.117,-0.4682,0.0117,0.008,-0.1125,-0.0244,2117,2019-08-07 16:24:03:094
4.3038,-8.6022,2.2356,-1.117,-0.4682,0.0117,0.008,-0.1125,-0.0244,2123,2019-08-07 16:24:03:100
4.3038,-8.6022,2.2356,-1.117,-0.4682,0.0117,0.007,-0.0677,-0.0148,2128,2019-08-07 16:24:03:105
4.3038,-8.6022,2.2356,-0.9437,-0.3156,0.031,0.007,-0.0677,-0.0148,2134,2019-08-07 16:24:03:111
4.2033,-8.6977,2.0848,-0.9437,-0.3156,0.031,0.007,-0.0677,-0.0148,2137,2019-08-07 16:24:03:114
4.2033,-8.6977,2.0848,-0.9437,-0.3156,0.031,6.0E-4,-0.0272,-0.001,2143,2019-08-07 16:24:03:120
4.2033,-8.6977,2.0848,-0.901,-0.2474,0.0158,6.0E-4,-0.0272,-0.001,2148,2019-08-07 16:24:03:125
4.0742,-8.7645,2.2168,-0.901,-0.2474,0.0158,0.0059,-0.0123,0.0065,2153,2019-08-07 16:24:03:130
4.0742,-8.7645,2.2168,-0.901,-0.2474,0.0158,0.0059,-0.0123,0.0065,2158,2019-08-07 16:24:03:135
3.9737,-8.817,2.2639,-0.901,-0.2474,0.0158,0.0315,0.0228,0.0022,2163,2019-08-07 16:24:03:140
3.9737,-8.817,2.2639,-0.6186,-0.1875,-0.0281,0.0315,0.0228,0.0022,2168,2019-08-07 16:24:03:145
3.9737,-8.817,2.2639,-0.6186,-0.1875,-0.0281,0.0379,0.0186,-0.0148,2173,2019-08-07 16:24:03:150
3.7297,-8.6261,2.2498,-0.6186,-0.1875,-0.0281,0.0379,0.0186,-0.0148,2178,2019-08-07 16:24:03:155
3.7297,-8.6261,2.2498,-0.3826,-0.3741,-0.1844,0.041,-0.0304,-0.018,2184,2019-08-07 16:24:03:161
3.7297,-8.6261,2.2498,-0.3826,-0.3741,-0.1844,0.041,-0.0304,-0.018,2187,2019-08-07 16:24:03:164
3.768,-8.5974,2.41,-0.3826,-0.3741,-0.1844,0.0464,-0.0592,-0.0287,2193,2019-08-07 16:24:03:170
3.768,-8.5974,2.41,-0.3826,-0.3741,-0.1844,0.0464,-0.0592,-0.0287,2198,2019-08-07 16:24:03:175
3.8014,-8.521,2.4666,-0.3826,-0.3741,-0.1844,0.0464,-0.0592,-0.0287,2203,2019-08-07 16:24:03:180
3.8014,-8.521,2.4666,-0.5372,-0.5252,-0.1868,0.0464,-0.1007,-0.0457,2207,2019-08-07 16:24:03:184
3.8014,-8.521,2.4666,-0.5372,-0.5252,-0.1868,0.0464,-0.1007,-0.0457,2213,2019-08-07 16:24:03:190
3.9258,-8.3444,2.3346,-0.5992,-0.6216,-0.148,0.0336,-0.1284,-0.0468,2218,2019-08-07 16:24:03:195
3.9258,-8.3444,2.3346,-0.5992,-0.6216,-0.148,0.0336,-0.1284,-0.0468,2223,2019-08-07 16:24:03:200
4.1698,-8.4447,2.3063,-0.5992,-0.6216,-0.148,0.024,-0.1221,-0.0436,2228,2019-08-07 16:24:03:205
4.1698,-8.4447,2.3063,-0.5992,-0.6216,-0.148,0.024,-0.1221,-0.0436,2233,2019-08-07 16:24:03:210
4.1698,-8.4447,2.3063,-0.8704,-0.4426,-0.0656,0.0112,-0.105,-0.0479,2238,2019-08-07 16:24:03:215
4.2033,-8.5449,2.2686,-0.8704,-0.4426,-0.0656,0.0112,-0.105,-0.0479,2243,2019-08-07 16:24:03:220
4.2033,-8.5449,2.2686,-0.8704,-0.4426,-0.0656,-0.0016,-0.0997,-0.0532,2249,2019-08-07 16:24:03:226
4.2033,-8.5449,2.2686,-0.8704,-0.4426,-0.0656,-0.0016,-0.0997,-0.0532,2252,2019-08-07 16:24:03:229
4.122,-8.5926,2.1508,-0.7546,-0.3601,0.0274,-0.0016,-0.0997,-0.0532,2258,2019-08-07 16:24:03:235
4.122,-8.5926,2.1508,-0.7546,-0.3601,0.0274,-0.0069,-0.088,-0.0351,2263,2019-08-07 16:24:03:240
4.2081,-8.7311,2.2875,-0.7546,-0.3601,0.0274,-0.0069,-0.088,-0.0351,2268,2019-08-07 16:24:03:245
4.2081,-8.7311,2.2875,-0.7546,-0.3601,0.0274,0.0059,-0.0858,-0.0298,2273,2019-08-07 16:24:03:250
4.2081,-8.7311,2.2875,-0.7913,-0.2028,-0.0962,0.0059,-0.0858,-0.0298,2277,2019-08-07 16:24:03:254
4.2176,-8.7168,2.2121,-0.7913,-0.2028,-0.0962,0.0176,-0.0816,-0.0255,2284,2019-08-07 16:24:03:261
4.2176,-8.7168,2.2121,-0.7913,-0.2028,-0.0962,0.0176,-0.0816,-0.0255,2287,2019-08-07 16:24:03:264
4.2894,-8.6022,2.1508,-0.7913,-0.2028,-0.0962,0.024,-0.0752,-0.0191,2293,2019-08-07 16:24:03:270
4.2894,-8.6022,2.1508,-0.8582,-0.3457,0.0106,0.024,-0.0752,-0.0191,2298,2019-08-07 16:24:03:275
4.2894,-8.6022,2.1508,-0.8582,-0.3457,0.0106,0.0304,-0.0326,-0.0223,2303,2019-08-07 16:24:03:280
4.2607,-8.564,2.2686,-0.8582,-0.3457,0.0106,0.0304,-0.0326,-0.0223,2307,2019-08-07 16:24:03:284
4.2607,-8.564,2.2686,-0.8582,-0.3457,0.0106,0.0293,-0.0027,-0.0266,2313,2019-08-07 16:24:03:290
4.2607,-8.564,2.2686,-0.7502,-0.4354,-0.1733,0.0293,-0.0027,-0.0266,2318,2019-08-07 16:24:03:295
4.098,-8.4972,2.3582,-0.7502,-0.4354,-0.1733,0.0293,-0.0027,-0.0266,2322,2019-08-07 16:24:03:299
4.098,-8.4972,2.3582,-0.7502,-0.4354,-0.1733,0.0272,0.0079,-0.0255,2328,2019-08-07 16:24:03:305
4.1219,-8.5115,2.3346,-0.7502,-0.4354,-0.1733,0.0272,0.0079,-0.0255,2333,2019-08-07 16:24:03:310
4.1219,-8.5115,2.3346,-0.6723,-0.401,-0.1432,0.0176,0.0026,-0.0362,2338,2019-08-07 16:24:03:315
4.1219,-8.5115,2.3346,-0.6723,-0.401,-0.1432,0.0176,0.0026,-0.0362,2343,2019-08-07 16:24:03:320
4.031,-8.5115,2.4006,-0.6126,-0.4598,-0.2308,0.007,0.0079,-0.0575,2348,2019-08-07 16:24:03:325
4.031,-8.5115,2.4006,-0.6126,-0.4598,-0.2308,0.007,0.0079,-0.0575,2352,2019-08-07 16:24:03:329
3.9975,-8.4399,2.4195,-0.6126,-0.4598,-0.2308,-5.0E-4,-0.0166,-0.0638,2358,2019-08-07 16:24:03:335
3.9975,-8.4399,2.4195,-0.6126,-0.4598,-0.2308,-5.0E-4,-0.0166,-0.0638,2363,2019-08-07 16:24:03:340
3.9975,-8.4399,2.4195,-0.705,-0.467,-0.239,-5.0E-4,-0.0379,-0.0681,2368,2019-08-07 16:24:03:345
4.1937,-8.4494,2.4053,-0.705,-0.467,-0.239,-5.0E-4,-0.0379,-0.0681,2372,2019-08-07 16:24:03:349
4.1937,-8.4494,2.4053,-0.705,-0.467,-0.239,0.008,-0.0528,-0.0702,2378,2019-08-07 16:24:03:355
4.2607,-8.521,2.3346,-0.705,-0.467,-0.239,0.008,-0.0528,-0.0702,2383,2019-08-07 16:24:03:360
4.2607,-8.521,2.3346,-0.9128,-0.4731,-0.1643,0.0144,-0.0549,-0.0734,2388,2019-08-07 16:24:03:365
4.2607,-8.521,2.3346,-0.9128,-0.4731,-0.1643,0.0144,-0.0549,-0.0734,2393,2019-08-07 16:24:03:370
4.3803,-8.4303,2.4006,-0.9874,-0.4685,-0.1872,0.0261,-0.0528,-0.0649,2398,2019-08-07 16:24:03:375
4.3803,-8.4303,2.4006,-0.9874,-0.4685,-0.1872,0.0261,-0.0528,-0.0649,2403,2019-08-07 16:24:03:380
4.3803,-8.4303,2.4006,-0.9874,-0.4685,-0.1872,0.0261,-0.0528,-0.0649,2408,2019-08-07 16:24:03:385
4.4903,-8.4065,2.3016,-0.9874,-0.4685,-0.1872,0.0283,-0.0422,-0.0543,2413,2019-08-07 16:24:03:390
4.4903,-8.4065,2.3016,-1.0532,-0.4264,-0.1327,0.0283,-0.0422,-0.0543,2418,2019-08-07 16:24:03:395
4.4759,-8.4828,2.2262,-1.0532,-0.4264,-0.1327,0.0123,-0.0219,-0.0468,2423,2019-08-07 16:24:03:400
4.4759,-8.4828,2.2262,-1.0532,-0.4264,-0.1327,0.0123,-0.0219,-0.0468,2427,2019-08-07 16:24:03:404
4.4759,-8.4828,2.2262,-1.0532,-0.4264,-0.1327,6.0E-4,5.0E-4,-0.0393,2433,2019-08-07 16:24:03:410
4.3181,-8.5974,2.2215,-0.7609,-0.3106,-0.0848,6.0E-4,5.0E-4,-0.0393,2438,2019-08-07 16:24:03:415
4.3181,-8.5974,2.2215,-0.7609,-0.3106,-0.0848,-0.0048,0.0303,-0.0223,2443,2019-08-07 16:24:03:420
4.1793,-8.6165,2.3299,-0.7609,-0.3106,-0.0848,-0.0048,0.0303,-0.0223,2448,2019-08-07 16:24:03:425
4.1793,-8.6165,2.3299,-0.7609,-0.3106,-0.0848,-0.0016,0.0452,-0.0223,2453,2019-08-07 16:24:03:430
4.1793,-8.6165,2.3299,-0.7609,-0.3106,-0.0848,-0.0016,0.0452,-0.0223,2458,2019-08-07 16:24:03:435
3.9784,-8.5258,2.4053,-0.5001,-0.3069,-0.2087,-0.0037,0.0228,-0.0266,2463,2019-08-07 16:24:03:440
3.9784,-8.5258,2.4053,-0.5001,-0.3069,-0.2087,-0.0037,0.0228,-0.0266,2468,2019-08-07 16:24:03:445
3.9305,-8.4924,2.4147,-0.5001,-0.3069,-0.2087,-0.0143,-0.0027,-0.0362,2473,2019-08-07 16:24:03:450
3.9305,-8.4924,2.4147,-0.5001,-0.3069,-0.2087,-0.0143,-0.0027,-0.0362,2477,2019-08-07 16:24:03:454
3.9305,-8.4924,2.4147,-0.4865,-0.4319,-0.1411,-0.0143,-0.0027,-0.0362,2483,2019-08-07 16:24:03:460
4.0166,-8.4208,2.2639,-0.4865,-0.4319,-0.1411,-0.025,-0.0272,-0.0511,2488,2019-08-07 16:24:03:465
4.0166,-8.4208,2.2639,-0.4865,-0.4319,-0.1411,-0.025,-0.0272,-0.0511,2492,2019-08-07 16:24:03:469
4.0166,-8.4208,2.2639,-0.4865,-0.4319,-0.1411,-0.0314,-0.0304,-0.0585,2498,2019-08-07 16:24:03:475
4.1936,-8.3969,2.2403,-0.6478,-0.4844,-0.0527,-0.0314,-0.0304,-0.0585,2503,2019-08-07 16:24:03:480
4.1936,-8.3969,2.2403,-0.6478,-0.4844,-0.0527,-0.0314,-0.0315,-0.0702,2508,2019-08-07 16:24:03:485
4.3276,-8.4542,2.2639,-0.7716,-0.4239,-0.0798,-0.0314,-0.0315,-0.0702,2513,2019-08-07 16:24:03:490
4.3276,-8.4542,2.2639,-0.7716,-0.4239,-0.0798,-0.0229,-0.0038,-0.0777,2518,2019-08-07 16:24:03:495
4.3276,-8.4542,2.2639,-0.7716,-0.4239,-0.0798,-0.0229,-0.0038,-0.0777,2523,2019-08-07 16:24:03:500
4.342,-8.4303,2.1602,-0.7716,-0.4239,-0.0798,-0.0218,0.0047,-0.0777,2528,2019-08-07 16:24:03:505
4.342,-8.4303,2.1602,-0.7464,-0.3641,-0.0127,-0.0218,0.0047,-0.0777,2533,2019-08-07 16:24:03:510
4.342,-8.4303,2.1602,-0.7464,-0.3641,-0.0127,-0.0229,-6.0E-4,-0.0713,2537,2019-08-07 16:24:03:514
4.2941,-8.5115,2.1602,-0.7464,-0.3641,-0.0127,-0.0229,-6.0E-4,-0.0713,2543,2019-08-07 16:24:03:520
4.2941,-8.5115,2.1602,-0.7464,-0.3641,-0.0127,-0.0111,-0.0134,-0.0607,2549,2019-08-07 16:24:03:526
4.275,-8.6261,2.2262,-0.6564,-0.2716,-0.0302,-0.0111,-0.0134,-0.0607,2553,2019-08-07 16:24:03:530
4.275,-8.6261,2.2262,-0.6564,-0.2716,-0.0302,-0.0111,-0.0134,-0.0607,2558,2019-08-07 16:24:03:535
4.275,-8.6261,2.2262,-0.6564,-0.2716,-0.0302,6.0E-4,-0.0198,-0.0543,2563,2019-08-07 16:24:03:540
4.3419,-8.6738,2.3912,-0.6564,-0.2716,-0.0302,6.0E-4,-0.0198,-0.0543,2568,2019-08-07 16:24:03:545
4.3419,-8.6738,2.3912,-0.8009,-0.279,-0.1592,0.0059,-0.0816,-0.0883,2573,2019-08-07 16:24:03:550
4.3132,-8.5783,2.08,-0.8009,-0.279,-0.1592,0.0059,-0.0816,-0.0883,2578,2019-08-07 16:24:03:555
4.3132,-8.5783,2.08,-0.8009,-0.279,-0.1592,0.0091,-0.0986,-0.1246,2583,2019-08-07 16:24:03:560
4.3132,-8.5783,2.08,-0.8009,-0.279,-0.1592,0.0091,-0.0986,-0.1246,2588,2019-08-07 16:24:03:565
4.1697,-8.3492,2.1932,-0.5277,-0.4978,-0.0245,-0.0197,-0.1125,-0.0798,2593,2019-08-07 16:24:03:570
4.1697,-8.3492,2.1932,-0.5277,-0.4978,-0.0245,-0.0197,-0.1125,-0.0798,2599,2019-08-07 16:24:03:576
4.5524,-8.5592,2.3063,-0.5277,-0.4978,-0.0245,-0.0016,-0.1082,-0.017,2603,2019-08-07 16:24:03:580
4.5524,-8.5592,2.3063,-0.5277,-0.4978,-0.0245,-0.0016,-0.1082,-0.017,2608,2019-08-07 16:24:03:585
4.5524,-8.5592,2.3063,-1.0756,-0.297,-0.0555,0.0187,-0.0464,0.0011,2613,2019-08-07 16:24:03:590
4.7103,-8.5163,2.1885,-1.0756,-0.297,-0.0555,0.0187,-0.0464,0.0011,2617,2019-08-07 16:24:03:594
4.7103,-8.5163,2.1885,-1.0756,-0.297,-0.0555,0.0091,0.0282,-0.0106,2623,2019-08-07 16:24:03:600
4.7103,-8.5163,2.1885,-1.0756,-0.297,-0.0555,0.0091,0.0282,-0.0106,2627,2019-08-07 16:24:03:604
4.562,-8.3062,2.212,-0.8517,-0.5267,-0.0998,-0.0229,0.0803,-0.0202,2634,2019-08-07 16:24:03:611
4.562,-8.3062,2.212,-0.8517,-0.5267,-0.0998,-0.0229,0.0803,-0.0202,2638,2019-08-07 16:24:03:615
4.2845,-8.3301,2.3534,-0.6141,-0.506,-0.1882,-0.0484,0.1134,-0.0244,2643,2019-08-07 16:24:03:620
4.2845,-8.3301,2.3534,-0.6141,-0.506,-0.1882,-0.0484,0.1134,-0.0244,2648,2019-08-07 16:24:03:625
4.2845,-8.3301,2.3534,-0.6141,-0.506,-0.1882,-0.0623,0.0942,-0.0244,2653,2019-08-07 16:24:03:630
4.0549,-8.5115,2.4147,-0.6141,-0.506,-0.1882,-0.0623,0.0942,-0.0244,2658,2019-08-07 16:24:03:635
4.0549,-8.5115,2.4147,-0.3613,-0.3087,-0.2407,-0.057,0.0665,-0.0266,2662,2019-08-07 16:24:03:639
4.0549,-8.5115,2.4147,-0.3613,-0.3087,-0.2407,-0.057,0.0665,-0.0266,2668,2019-08-07 16:24:03:645
4.0596,-8.564,2.3864,-0.3613,-0.3087,-0.2407,-0.0474,0.0282,-0.0255,2673,2019-08-07 16:24:03:650
4.0596,-8.564,2.3864,-0.3613,-0.3087,-0.2407,-0.0474,0.0282,-0.0255,2678,2019-08-07 16:24:03:655
4.2941,-8.6213,2.3676,-0.6131,-0.2115,-0.2071,-0.0261,0.0377,-0.0404,2683,2019-08-07 16:24:03:660
4.2941,-8.6213,2.3676,-0.6131,-0.2115,-0.2071,-0.0261,0.0377,-0.0404,2688,2019-08-07 16:24:03:665
4.2941,-8.6213,2.3676,-0.6131,-0.2115,-0.2071,-0.0261,0.0377,-0.0404,2693,2019-08-07 16:24:03:670
4.4041,-8.521,2.212,-0.6131,-0.2115,-0.2071,-0.0165,0.0335,-0.0617,2699,2019-08-07 16:24:03:676
4.4041,-8.521,2.212,-0.6714,-0.4256,0.0095,-0.0165,0.0335,-0.0617,2702,2019-08-07 16:24:03:679
4.4041,-8.521,2.212,-0.6714,-0.4256,0.0095,-0.0229,0.0484,-0.0596,2708,2019-08-07 16:24:03:685
4.4184,-8.4494,2.1225,-0.6714,-0.4256,0.0095,-0.0229,0.0484,-0.0596,2713,2019-08-07 16:24:03:690
4.4184,-8.4494,2.1225,-0.6714,-0.4256,0.0095,-0.0282,0.0495,-0.0489,2718,2019-08-07 16:24:03:695
4.4184,-8.4494,2.1225,-0.6863,-0.3388,-0.0617,-0.0282,0.0495,-0.0489,2723,2019-08-07 16:24:03:700
4.3849,-8.5449,2.2167,-0.6863,-0.3388,-0.0617,-0.0207,0.0303,-0.0447,2728,2019-08-07 16:24:03:705
4.3849,-8.5449,2.2167,-0.6863,-0.3388,-0.0617,-0.0207,0.0303,-0.0447,2733,2019-08-07 16:24:03:710
4.3849,-8.5449,2.2167,-0.6863,-0.3388,-0.0617,-0.0154,0.0335,-0.0404,2738,2019-08-07 16:24:03:715
4.3802,-8.607,2.212,-0.6795,-0.2146,-0.0194,-0.0154,0.0335,-0.0404,2743,2019-08-07 16:24:03:720
4.3802,-8.607,2.212,-0.6795,-0.2146,-0.0194,-0.0058,0.0399,-0.0404,2749,2019-08-07 16:24:03:726
4.3419,-8.5401,2.2544,-0.6795,-0.2146,-0.0194,-0.0058,0.0399,-0.0404,2752,2019-08-07 16:24:03:729
4.3419,-8.5401,2.2544,-0.6795,-0.2146,-0.0194,-0.0058,0.0399,-0.0404,2758,2019-08-07 16:24:03:735
4.3419,-8.5401,2.2544,-0.5441,-0.3572,-0.1155,0.0038,0.0303,-0.0489,2763,2019-08-07 16:24:03:740
4.2175,-8.4828,2.2874,-0.5441,-0.3572,-0.1155,0.0038,0.0303,-0.0489,2768,2019-08-07 16:24:03:745
4.2175,-8.4828,2.2874,-0.5441,-0.3572,-0.1155,6.0E-4,0.0218,-0.0298,2773,2019-08-07 16:24:03:750
4.2175,-8.4828,2.2874,-0.5441,-0.3572,-0.1155,6.0E-4,0.0218,-0.0298,2778,2019-08-07 16:24:03:755
4.3132,-8.4542,2.3251,-0.5776,-0.3525,-0.1221,-0.0016,0.026,-0.0276,2783,2019-08-07 16:24:03:760
4.3132,-8.4542,2.3251,-0.5776,-0.3525,-0.1221,-0.0016,0.026,-0.0276,2788,2019-08-07 16:24:03:765
4.294,-8.4255,2.3299,-0.5776,-0.3525,-0.1221,-0.009,0.0228,-0.0287,2793,2019-08-07 16:24:03:770
4.294,-8.4255,2.3299,-0.4872,-0.4315,-0.1209,-0.009,0.0228,-0.0287,2797,2019-08-07 16:24:03:774
4.294,-8.4255,2.3299,-0.4872,-0.4315,-0.1209,-0.0186,0.0132,-0.0191,2804,2019-08-07 16:24:03:781
4.2175,-8.4399,2.3204,-0.4872,-0.4315,-0.1209,-0.0186,0.0132,-0.0191,2807,2019-08-07 16:24:03:784
4.2175,-8.4399,2.3204,-0.4701,-0.3378,-0.0699,-0.0186,0.0132,-0.0191,2813,2019-08-07 16:24:03:790
4.2701,-8.5258,2.1696,-0.4701,-0.3378,-0.0699,-0.042,0.0047,-0.0212,2817,2019-08-07 16:24:03:794
4.2701,-8.5258,2.1696,-0.4701,-0.3378,-0.0699,-0.042,0.0047,-0.0212,2823,2019-08-07 16:24:03:800
4.2701,-8.5258,2.1696,-0.4663,-0.2559,-0.0498,-0.0452,-0.0027,-0.0266,2828,2019-08-07 16:24:03:805
4.2031,-8.5353,2.2356,-0.4663,-0.2559,-0.0498,-0.0452,-0.0027,-0.0266,2833,2019-08-07 16:24:03:810
4.2031,-8.5353,2.2356,-0.4663,-0.2559,-0.0498,-0.0303,0.0058,-0.0266,2838,2019-08-07 16:24:03:815
4.2557,-8.607,2.1319,-0.4663,-0.2559,-0.0498,-0.0303,0.0058,-0.0266,2842,2019-08-07 16:24:03:819
4.2557,-8.607,2.1319,-0.4865,-0.1727,-0.0517,-0.0303,0.0058,-0.0266,2848,2019-08-07 16:24:03:825
4.2557,-8.607,2.1319,-0.4865,-0.1727,-0.0517,-0.0218,0.0015,-0.034,2853,2019-08-07 16:24:03:830
4.2366,-8.6165,2.1224,-0.4865,-0.1727,-0.0517,-0.0218,0.0015,-0.034,2857,2019-08-07 16:24:03:834
4.2366,-8.6165,2.1224,-0.4865,-0.1727,-0.0517,-0.0122,-6.0E-4,-0.0436,2863,2019-08-07 16:24:03:840
4.2366,-8.6165,2.1224,-0.4186,-0.2407,0.0626,-0.0122,-6.0E-4,-0.0436,2868,2019-08-07 16:24:03:845
4.227,-8.5544,2.0989,-0.4186,-0.2407,0.0626,-0.0026,-6.0E-4,-0.0489,2873,2019-08-07 16:24:03:850
4.227,-8.5544,2.0989,-0.4186,-0.2407,0.0626,-0.0026,-6.0E-4,-0.0489,2878,2019-08-07 16:24:03:855
4.2605,-8.521,2.1837,-0.4186,-0.2407,0.0626,0.0059,-0.0145,-0.0511,2883,2019-08-07 16:24:03:860
4.2605,-8.521,2.1837,-0.4584,-0.2591,-0.0131,0.0059,-0.0145,-0.0511,2887,2019-08-07 16:24:03:864
4.2605,-8.521,2.1837,-0.4584,-0.2591,-0.0131,0.0048,-0.0592,-0.0415,2893,2019-08-07 16:24:03:870
4.337,-8.4208,2.1272,-0.4584,-0.2591,-0.0131,0.0048,-0.0592,-0.0415,2899,2019-08-07 16:24:03:876
4.337,-8.4208,2.1272,-0.4584,-0.2591,-0.0131,0.0048,-0.0592,-0.0415,2902,2019-08-07 16:24:03:879
4.337,-8.4208,2.1272,-0.6642,-0.2921,0.0444,0.0059,-0.0741,-0.0276,2908,2019-08-07 16:24:03:885
4.5093,-8.5019,2.1366,-0.6642,-0.2921,0.0444,0.0059,-0.0741,-0.0276,2912,2019-08-07 16:24:03:889
4.5093,-8.5019,2.1366,-0.6642,-0.2921,0.0444,0.008,-0.0624,-0.0159,2918,2019-08-07 16:24:03:895
4.6719,-8.4542,2.0612,-0.6642,-0.2921,0.0444,0.008,-0.0624,-0.0159,2922,2019-08-07 16:24:03:899
4.6719,-8.4542,2.0612,-0.8006,-0.2828,0.0935,0.0197,-0.0347,-0.0053,2929,2019-08-07 16:24:03:906
4.6719,-8.4542,2.0612,-0.8006,-0.2828,0.0935,0.0197,-0.0347,-0.0053,2933,2019-08-07 16:24:03:910
4.6336,-8.5067,2.1366,-0.8006,-0.2828,0.0935,0.0197,-0.0347,-0.0053,2938,2019-08-07 16:24:03:915
4.6336,-8.5067,2.1366,-0.8006,-0.2828,0.0935,0.024,0.0313,0.0022,2942,2019-08-07 16:24:03:919
4.404,-8.5019,2.1649,-0.6363,-0.279,-0.0389,0.024,0.0313,0.0022,2948,2019-08-07 16:24:03:925
4.404,-8.5019,2.1649,-0.6363,-0.279,-0.0389,0.024,0.0441,0.0011,2952,2019-08-07 16:24:03:929
4.404,-8.5019,2.1649,-0.6363,-0.279,-0.0389,0.024,0.0441,0.0011,2958,2019-08-07 16:24:03:935
4.2126,-8.4876,2.2969,-0.6363,-0.279,-0.0389,0.024,0.0218,1.0E-4,2963,2019-08-07 16:24:03:940
4.2126,-8.4876,2.2969,-0.3135,-0.2904,-0.1913,0.024,0.0218,1.0E-4,2968,2019-08-07 16:24:03:945
4.1217,-8.4542,2.4053,-0.3135,-0.2904,-0.1913,0.0165,-0.0251,0.0022,2973,2019-08-07 16:24:03:950
4.1217,-8.4542,2.4053,-0.3135,-0.2904,-0.1913,0.0165,-0.0251,0.0022,2978,2019-08-07 16:24:03:955
3.8921,-8.3157,2.3157,-0.3135,-0.2904,-0.1913,-0.0559,-0.1455,-0.001,2983,2019-08-07 16:24:03:960
3.8921,-8.3157,2.3157,-0.0882,-0.4802,-0.3323,-0.0559,-0.1455,-0.001,2987,2019-08-07 16:24:03:964
3.8921,-8.3157,2.3157,-0.0882,-0.4802,-0.3323,-0.0559,-0.1455,-0.001,2993,2019-08-07 16:24:03:970
4.2748,-8.4112,2.2827,-0.4419,-0.3607,-0.1381,-0.0527,-0.1753,-0.0138,2999,2019-08-07 16:24:03:976
4.2748,-8.4112,2.2827,-0.4419,-0.3607,-0.1381,-0.0527,-0.1753,-0.0138,3002,2019-08-07 16:24:03:979
4.4327,-8.4971,2.0564,-0.4419,-0.3607,-0.1381,-0.0612,-0.1615,-0.017,3008,2019-08-07 16:24:03:985
4.4327,-8.4971,2.0564,-0.4419,-0.3607,-0.1381,-0.0612,-0.1615,-0.017,3013,2019-08-07 16:24:03:990
4.4327,-8.4971,2.0564,-0.5996,-0.2695,0.0357,-0.0612,-0.1615,-0.017,3017,2019-08-07 16:24:03:994
4.4997,-8.5449,2.0706,-0.5996,-0.2695,0.0357,-0.0516,-0.1093,-0.0212,3023,2019-08-07 16:24:04:000
4.4997,-8.5449,2.0706,-0.5996,-0.2695,0.0357,-0.0516,-0.1093,-0.0212,3027,2019-08-07 16:24:04:004
4.514,-8.478,2.1979,-0.5996,-0.2695,0.0357,-0.025,-0.0688,-0.0191,3033,2019-08-07 16:24:04:010
4.514,-8.478,2.1979,-0.7689,-0.2245,-0.0966,-0.025,-0.0688,-0.0191,3037,2019-08-07 16:24:04:014
4.514,-8.478,2.1979,-0.7689,-0.2245,-0.0966,0.0506,0.0718,-0.017,3043,2019-08-07 16:24:04:020
4.8011,-8.6595,2.1271,-0.7689,-0.2245,-0.0966,0.0506,0.0718,-0.017,3049,2019-08-07 16:24:04:026
4.8011,-8.6595,2.1271,-0.7689,-0.2245,-0.0966,0.0964,0.2029,-0.0266,3053,2019-08-07 16:24:04:030
4.8011,-8.6595,2.1271,-1.0459,-0.0358,0.2726,0.0964,0.2029,-0.0266,3057,2019-08-07 16:24:04:034
4.8106,-8.6547,1.7972,-1.0459,-0.0358,0.2726,0.0602,0.2092,-0.0351,3063,2019-08-07 16:24:04:040
4.8106,-8.6547,1.7972,-1.0459,-0.0358,0.2726,0.0602,0.2092,-0.0351,3068,2019-08-07 16:24:04:045
4.8106,-8.6547,1.7972,-1.0459,-0.0358,0.2726,0.0602,0.2092,-0.0351,3073,2019-08-07 16:24:04:050
4.1026,-8.2871,2.5655,-0.2213,-0.4784,-0.478,0.0102,0.1507,-0.0191,3077,2019-08-07 16:24:04:054
4.1026,-8.2871,2.5655,-0.2213,-0.4784,-0.478,0.0102,0.1507,-0.0191,3083,2019-08-07 16:24:04:060
4.1026,-8.2871,2.5655,-0.2213,-0.4784,-0.478,0.0187,0.0047,0.0182,3087,2019-08-07 16:24:04:064
4.0212,-8.4064,2.4995,-0.2213,-0.4784,-0.478,0.0187,0.0047,0.0182,3093,2019-08-07 16:24:04:070
4.0212,-8.4064,2.4995,-0.2561,-0.2669,-0.0788,0.0059,-0.0688,0.0374,3098,2019-08-07 16:24:04:075
4.2987,-8.4733,2.3534,-0.2561,-0.2669,-0.0788,0.0059,-0.0688,0.0374,3103,2019-08-07 16:24:04:080