ACCELEROMETER X (m/s²),ACCELEROMETER Y (m/s²),ACCELEROMETER Z (m/s²),LINEAR ACCELERATION X (m/s²),LINEAR ACCELERATION Y (m/s²),LINEAR ACCELERATION Z (m/s²),GYROSCOPE X (rad/s),GYROSCOPE Y (rad/s),GYROSCOPE Z (rad/s),Time since start in ms ,YYYY-MO-DD HH-MI-SS_SSS
4.7934,-8.431,1.9211,-0.2516,-0.1434,-0.0762,-0.0037,-0.0187,0.0044,3,2019-08-07 16:23:12:638
4.7934,-8.431,1.9211,-0.2516,-0.1434,-0.0762,-0.0037,-0.0187,0.0044,7,2019-08-07 16:23:12:642
4.8029,-8.3546,1.8834,-0.3404,-0.1813,0.0053,-0.0026,0.0026,-0.002,13,2019-08-07 16:23:12:648
4.8029,-8.3546,1.8834,-0.3404,-0.1813,0.0053,-0.0026,0.0026,-0.002,17,2019-08-07 16:23:12:652
4.8029,-8.3546,1.8834,-0.3404,-0.1813,0.0053,-0.0026,0.0026,-0.002,23,2019-08-07 16:23:12:658
4.779,-8.3546,1.8976,-0.3404,-0.1813,0.0053,0.0112,0.026,-0.0031,27,2019-08-07 16:23:12:662
4.779,-8.3546,1.8976,-0.2805,-0.1603,-0.0302,0.0112,0.026,-0.0031,33,2019-08-07 16:23:12:668
4.779,-8.3546,1.8976,-0.2805,-0.1603,-0.0302,0.0091,0.0324,-0.002,38,2019-08-07 16:23:12:673
4.736,-8.2925,1.8929,-0.27,-0.2405,-0.0276,0.0091,0.0324,-0.002,43,2019-08-07 16:23:12:678
4.736,-8.2925,1.8929,-0.27,-0.2405,-0.0276,0.0091,0.0324,-0.002,48,2019-08-07 16:23:12:683
4.736,-8.2925,1.8929,-0.27,-0.2405,-0.0276,0.0112,0.0356,-0.0052,52,2019-08-07 16:23:12:687
4.5781,-8.3259,2.0296,-0.27,-0.2405,-0.0276,0.0112,0.0356,-0.0052,58,2019-08-07 16:23:12:693
4.5781,-8.3259,2.0296,-0.149,-0.2004,-0.0365,0.0048,0.0143,0.0012,63,2019-08-07 16:23:12:698
4.6259,-8.3546,1.9353,-0.149,-0.2004,-0.0365,0.0048,0.0143,0.0012,67,2019-08-07 16:23:12:702
4.6259,-8.3546,1.9353,-0.149,-0.2004,-0.0365,-5.0E-4,-0.0017,1.0E-4,73,2019-08-07 16:23:12:708
4.6259,-8.3546,1.9353,-0.149,-0.2004,-0.0365,-5.0E-4,-0.0017,1.0E-4,77,2019-08-07 16:23:12:712
4.6594,-8.3832,1.94,-0.1903,-0.1468,-0.0689,-0.0069,-0.0038,-0.0116,83,2019-08-07 16:23:12:718
4.6594,-8.3832,1.94,-0.1903,-0.1468,-0.0689,-0.0069,-0.0038,-0.0116,88,2019-08-07 16:23:12:723
4.7551,-8.431,1.9023,-0.1903,-0.1468,-0.0689,-0.0069,0.0132,-0.018,93,2019-08-07 16:23:12:728
4.7551,-8.431,1.9023,-0.1903,-0.1468,-0.0689,-0.0069,0.0132,-0.018,98,2019-08-07 16:23:12:733
4.7551,-8.431,1.9023,-0.2623,-0.0969,0.0577,-0.0069,0.0132,-0.018,103,2019-08-07 16:23:12:738
4.7455,-8.4883,1.8033,-0.2623,-0.0969,0.0577,-0.0069,0.0281,-0.0244,109,2019-08-07 16:23:12:744
4.7455,-8.4883,1.8033,-0.2623,-0.0969,0.0577,-0.0069,0.0281,-0.0244,112,2019-08-07 16:23:12:747
4.7168,-8.5121,1.8976,-0.2623,-0.0969,0.0577,0.0069,0.0558,-0.0233,118,2019-08-07 16:23:12:753
4.7168,-8.5121,1.8976,-0.2198,-0.0651,0.0051,0.0069,0.0558,-0.0233,123,2019-08-07 16:23:12:758
4.7168,-8.5121,1.8976,-0.2198,-0.0651,0.0051,0.0251,0.0548,-0.0297,128,2019-08-07 16:23:12:763
4.7168,-8.4596,1.9117,-0.2198,-0.0651,0.0051,0.0251,0.0548,-0.0297,133,2019-08-07 16:23:12:768
4.7168,-8.4596,1.9117,-0.2198,-0.0651,0.0051,0.04,0.0399,-0.0255,137,2019-08-07 16:23:12:772
4.7168,-8.4596,1.9117,-0.2486,-0.1272,-0.0318,0.04,0.0399,-0.0255,143,2019-08-07 16:23:12:778
4.6786,-8.345,2.0013,-0.2486,-0.1272,-0.0318,0.0485,0.0164,-0.018,148,2019-08-07 16:23:12:783
4.6786,-8.345,2.0013,-0.2486,-0.1272,-0.0318,0.0485,0.0164,-0.018,153,2019-08-07 16:23:12:788
4.6929,-8.4214,1.9824,-0.2486,-0.1272,-0.0318,0.0506,-0.0113,-0.0148,158,2019-08-07 16:23:12:793
4.6929,-8.4214,1.9824,-0.2249,-0.1705,-0.065,0.0432,-0.0326,-0.0063,164,2019-08-07 16:23:12:799
4.6929,-8.4214,1.9824,-0.2249,-0.1705,-0.065,0.0432,-0.0326,-0.0063,168,2019-08-07 16:23:12:803
4.7886,-8.3689,1.9636,-0.2249,-0.1705,-0.065,0.0432,-0.0326,-0.0063,172,2019-08-07 16:23:12:807
4.7886,-8.3689,1.9636,-0.2249,-0.1705,-0.065,0.0346,-0.0411,-0.002,178,2019-08-07 16:23:12:813
4.7886,-8.3689,1.9636,-0.3164,-0.1484,-0.0754,0.0346,-0.0411,-0.002,183,2019-08-07 16:23:12:818
4.8365,-8.3689,2.0107,-0.3164,-0.1484,-0.0754,0.0208,-0.0262,-0.001,188,2019-08-07 16:23:12:823
4.8365,-8.3689,2.0107,-0.3164,-0.1484,-0.0754,0.0208,-0.0262,-0.001,192,2019-08-07 16:23:12:827
4.7743,-8.3689,1.9494,-0.3164,-0.1484,-0.0754,0.0123,0.0068,0.0054,198,2019-08-07 16:23:12:833
4.7743,-8.3689,1.9494,-0.2572,-0.0847,-0.0536,0.0123,0.0068,0.0054,202,2019-08-07 16:23:12:837
4.7743,-8.3689,1.9494,-0.2572,-0.0847,-0.0536,0.0027,0.0441,0.0054,208,2019-08-07 16:23:12:843
4.7121,-8.4883,2.0956,-0.2572,-0.0847,-0.0536,0.0027,0.0441,0.0054,213,2019-08-07 16:23:12:848
4.7121,-8.4883,2.0956,-0.2572,-0.0847,-0.0536,-0.0048,0.0537,-0.002,218,2019-08-07 16:23:12:853
4.7121,-8.493,2.0908,-0.0911,-0.0173,-0.1848,-0.0048,0.0537,-0.002,223,2019-08-07 16:23:12:858
4.5829,-8.493,2.0908,-0.0911,-0.0173,-0.1848,-0.008,0.0462,-0.002,228,2019-08-07 16:23:12:863
4.5829,-8.493,2.0908,-0.0911,-0.0173,-0.1848,-0.008,0.0462,-0.002,232,2019-08-07 16:23:12:867
4.5733,-8.431,2.1191,-0.0911,-0.0173,-0.1848,-0.008,0.0462,-0.002,238,2019-08-07 16:23:12:873
4.5733,-8.431,2.1191,-0.0911,-0.0173,-0.1848,-0.009,0.0281,1.0E-4,242,2019-08-07 16:23:12:877
4.5733,-8.431,2.1191,-0.0823,-0.1267,-0.1621,-0.009,0.0281,1.0E-4,248,2019-08-07 16:23:12:883
4.6068,-8.3498,2.105,-0.0823,-0.1267,-0.1621,-0.0058,0.0143,-0.001,252,2019-08-07 16:23:12:887
4.6068,-8.3498,2.105,-0.0823,-0.1267,-0.1621,-0.0058,0.0143,-0.001,258,2019-08-07 16:23:12:893
4.626,-8.2782,2.0249,-0.1343,-0.2311,-0.1137,-0.0048,4.0E-4,0.0033,263,2019-08-07 16:23:12:898
4.626,-8.2782,2.0249,-0.1343,-0.2311,-0.1137,-0.0048,4.0E-4,0.0033,268,2019-08-07 16:23:12:903
4.626,-8.2782,2.0249,-0.1343,-0.2311,-0.1137,-0.009,-0.0198,0.0086,272,2019-08-07 16:23:12:907
4.6786,-8.3116,1.907,-0.1343,-0.2311,-0.1137,-0.009,-0.0198,0.0086,278,2019-08-07 16:23:12:913
4.6786,-8.3116,1.907,-0.1343,-0.2311,-0.1137,-0.0101,-0.0273,0.0118,282,2019-08-07 16:23:12:917
4.7312,-8.4453,1.8316,-0.2148,-0.1741,0.0294,-0.0101,-0.0273,0.0118,288,2019-08-07 16:23:12:923
4.7312,-8.4453,1.8316,-0.2148,-0.1741,0.0294,-0.0101,-0.0273,0.0118,292,2019-08-07 16:23:12:927
4.7312,-8.4453,1.8316,-0.2148,-0.1741,0.0294,-0.008,-0.0113,0.0076,298,2019-08-07 16:23:12:933
4.7312,-8.4883,1.8693,-0.2139,-0.0119,0.0125,-0.008,-0.0113,0.0076,303,2019-08-07 16:23:12:938
4.7312,-8.4883,1.8693,-0.2139,-0.0119,0.0125,-5.0E-4,0.0175,0.0022,308,2019-08-07 16:23:12:943
4.7312,-8.4883,1.8693,-0.2139,-0.0119,0.0125,-5.0E-4,0.0175,0.0022,312,2019-08-07 16:23:12:947
4.626,-8.4405,1.9117,-0.2139,-0.0119,0.0125,0.0133,0.0388,1.0E-4,318,2019-08-07 16:23:12:953
4.626,-8.4405,1.9117,-0.2139,-0.0119,0.0125,0.0133,0.0388,1.0E-4,322,2019-08-07 16:23:12:957
4.5494,-8.4787,1.9164,-0.0659,-0.0256,0.0444,0.0133,0.0388,1.0E-4,328,2019-08-07 16:23:12:963
4.5494,-8.4787,1.9164,-0.0659,-0.0256,0.0444,0.0219,0.0388,-0.001,333,2019-08-07 16:23:12:968
4.5494,-8.4787,1.9164,-0.0659,-0.0256,0.0444,0.0219,0.0388,-0.001,338,2019-08-07 16:23:12:973
4.492,-8.3832,1.9353,-0.0659,-0.0256,0.0444,0.0219,0.0249,-0.0063,343,2019-08-07 16:23:12:978
4.492,-8.3832,1.9353,0.0388,-0.1292,-0.0803,0.0219,0.0249,-0.0063,348,2019-08-07 16:23:12:983
4.4872,-8.2925,2.0013,0.0388,-0.1292,-0.0803,0.024,0.009,-0.0105,353,2019-08-07 16:23:12:988
4.4872,-8.2925,2.0013,0.0388,-0.1292,-0.0803,0.024,0.009,-0.0105,358,2019-08-07 16:23:12:993
4.4872,-8.2925,2.0013,0.0388,-0.1292,-0.0803,0.0208,-0.0145,-0.0127,363,2019-08-07 16:23:12:998
4.4824,-8.2543,2.006,-0.0067,-0.2319,-0.066,0.0208,-0.0145,-0.0127,367,2019-08-07 16:23:13:002
4.4824,-8.2543,2.006,-0.0067,-0.2319,-0.066,0.0133,-0.0496,-0.0116,373,2019-08-07 16:23:13:008
4.4824,-8.2543,2.006,-0.0067,-0.2319,-0.066,0.0133,-0.0496,-0.0116,378,2019-08-07 16:23:13:013
4.6929,-8.2878,1.9966,-0.0067,-0.2319,-0.066,0.0059,-0.0635,-0.0127,383,2019-08-07 16:23:13:018
4.6929,-8.2878,1.9966,-0.2023,-0.1961,-0.0534,0.0059,-0.0635,-0.0127,388,2019-08-07 16:23:13:023
4.7838,-8.3259,2.0013,-0.2023,-0.1961,-0.0534,0.0048,-0.0699,-0.0105,393,2019-08-07 16:23:13:028
4.7838,-8.3259,2.0013,-0.2023,-0.1961,-0.0534,0.0048,-0.0699,-0.0105,398,2019-08-07 16:23:13:033
4.7838,-8.3259,2.0013,-0.2023,-0.1961,-0.0534,0.0123,-0.0592,-0.0084,403,2019-08-07 16:23:13:038
4.8508,-8.4023,1.8693,-0.3441,-0.0982,0.0456,0.0123,-0.0592,-0.0084,408,2019-08-07 16:23:13:043
4.8508,-8.4023,1.8693,-0.3441,-0.0982,0.0456,0.0101,-0.0379,-0.002,413,2019-08-07 16:23:13:048
4.8843,-8.431,1.8882,-0.3441,-0.0982,0.0456,0.0101,-0.0379,-0.002,418,2019-08-07 16:23:13:053
4.8843,-8.431,1.8882,-0.3441,-0.0982,0.0456,0.0101,-0.0379,-0.002,423,2019-08-07 16:23:13:058
4.8843,-8.431,1.8882,-0.2875,-0.0678,0.0345,0.0155,-0.007,0.0012,428,2019-08-07 16:23:13:063
4.7934,-8.3689,1.9541,-0.2875,-0.0678,0.0345,0.0251,0.009,0.0054,433,2019-08-07 16:23:13:068
4.7934,-8.3689,1.9541,-0.2875,-0.0678,0.0345,0.0251,0.009,0.0054,438,2019-08-07 16:23:13:073
4.7934,-8.3689,1.9541,-0.2875,-0.0678,0.0345,0.0251,0.009,0.0054,442,2019-08-07 16:23:13:077
4.626,-8.431,1.9636,-0.2875,-0.0678,0.0345,0.0293,0.0207,0.0086,448,2019-08-07 16:23:13:083
4.626,-8.431,1.9636,-0.0814,-0.1046,-0.1014,0.0272,0.009,0.0065,453,2019-08-07 16:23:13:088
4.5303,-8.3594,2.0201,-0.0814,-0.1046,-0.1014,0.0272,0.009,0.0065,458,2019-08-07 16:23:13:093
4.5303,-8.3594,2.0201,-0.0814,-0.1046,-0.1014,0.0155,-0.0198,0.0022,463,2019-08-07 16:23:13:098
4.5255,-8.345,2.0579,0.0137,-0.1705,-0.1291,0.0155,-0.0198,0.0022,468,2019-08-07 16:23:13:103
4.5255,-8.345,2.0579,0.0137,-0.1705,-0.1291,0.0091,-0.0454,-0.0063,473,2019-08-07 16:23:13:108
4.5255,-8.345,2.0579,0.0137,-0.1705,-0.1291,0.0091,-0.0454,-0.0063,478,2019-08-07 16:23:13:113
4.5877,-8.3832,2.039,0.0137,-0.1705,-0.1291,0.0038,-0.0688,-0.0095,483,2019-08-07 16:23:13:118
4.5877,-8.3832,2.039,-0.1123,-0.1644,-0.1261,0.0038,-0.0688,-0.0095,488,2019-08-07 16:23:13:123
4.5877,-8.3832,2.039,-0.1123,-0.1644,-0.1261,0.0038,-0.0688,-0.0095,492,2019-08-07 16:23:13:127
4.7121,-8.3546,2.0626,-0.1123,-0.1644,-0.1261,0.0016,-0.0773,-0.0159,498,2019-08-07 16:23:13:133
4.7121,-8.3546,2.0626,-0.1123,-0.1644,-0.1261,0.0016,-0.0773,-0.0159,503,2019-08-07 16:23:13:138
4.7552,-8.345,1.9541,-0.2345,-0.1476,-0.0374,0.0016,-0.0688,-0.0095,508,2019-08-07 16:23:13:143
4.7552,-8.345,1.9541,-0.2345,-0.1476,-0.0374,0.0016,-0.0688,-0.0095,512,2019-08-07 16:23:13:147
4.7552,-8.345,1.9541,-0.2345,-0.1476,-0.0374,0.0016,-0.0688,-0.0095,518,2019-08-07 16:23:13:153
4.8126,-8.431,1.8316,-0.2345,-0.1476,-0.0374,0.0027,-0.0443,-0.0073,523,2019-08-07 16:23:13:158
4.8126,-8.431,1.8316,-0.2914,-0.1029,0.0521,0.0155,-0.0209,-0.0063,529,2019-08-07 16:23:13:164
4.8126,-8.431,1.8316,-0.2914,-0.1029,0.0521,0.0155,-0.0209,-0.0063,533,2019-08-07 16:23:13:168
4.736,-8.4644,1.9117,-0.2914,-0.1029,0.0521,0.0155,-0.0209,-0.0063,537,2019-08-07 16:23:13:172
4.736,-8.4644,1.9117,-0.2914,-0.1029,0.0521,0.0208,-0.0028,-0.0031,543,2019-08-07 16:23:13:178
4.736,-8.4644,1.9117,-0.1453,-0.0439,-0.0356,0.0208,-0.0028,-0.0031,547,2019-08-07 16:23:13:182
4.6643,-8.3976,1.9494,-0.1453,-0.0439,-0.0356,0.0283,-0.0038,1.0E-4,553,2019-08-07 16:23:13:188
4.6643,-8.3976,1.9494,-0.1016,-0.0669,0.0279,0.0283,-0.0038,1.0E-4,559,2019-08-07 16:23:13:194
4.626,-8.4262,1.9259,-0.1016,-0.0669,0.0279,0.0293,-0.0273,-0.0042,563,2019-08-07 16:23:13:198
4.626,-8.4262,1.9259,-0.1016,-0.0669,0.0279,0.0293,-0.0273,-0.0042,568,2019-08-07 16:23:13:203
4.626,-8.4262,1.9259,-0.1016,-0.0669,0.0279,0.0293,-0.0273,-0.0042,573,2019-08-07 16:23:13:208
4.6499,-8.3212,1.9683,-0.1466,-0.089,-0.004,0.0197,-0.056,-0.0042,578,2019-08-07 16:23:13:213
4.6499,-8.3212,1.9683,-0.1466,-0.089,-0.004,0.0197,-0.056,-0.0042,583,2019-08-07 16:23:13:218
4.7312,-8.3641,1.9447,-0.1466,-0.089,-0.004,0.0112,-0.0688,-0.0052,588,2019-08-07 16:23:13:223
4.7312,-8.3641,1.9447,-0.1466,-0.089,-0.004,0.0112,-0.0688,-0.0052,593,2019-08-07 16:23:13:228
4.7887,-8.3737,1.8504,-0.2515,-0.1112,0.0618,0.0038,-0.0773,-0.002,599,2019-08-07 16:23:13:234
4.7887,-8.3737,1.8504,-0.2515,-0.1112,0.0618,0.0038,-0.0773,-0.002,603,2019-08-07 16:23:13:238
4.7887,-8.3737,1.8504,-0.2515,-0.1112,0.0618,0.0038,-0.0773,-0.002,607,2019-08-07 16:23:13:242
4.8365,-8.3403,1.9164,-0.2515,-0.1112,0.0618,0.0091,-0.0518,0.0012,613,2019-08-07 16:23:13:248
4.8365,-8.3403,1.9164,-0.2952,-0.1481,0.0295,0.0091,-0.0518,0.0012,618,2019-08-07 16:23:13:253
4.8365,-8.3403,1.9164,-0.2952,-0.1481,0.0295,0.0133,-0.0464,0.0108,622,2019-08-07 16:23:13:257
4.8509,-8.3164,1.8175,-0.2952,-0.1481,0.0295,0.0133,-0.0464,0.0108,628,2019-08-07 16:23:13:263
4.8509,-8.3164,1.8175,-0.2952,-0.1481,0.0295,0.0165,-0.0422,0.015,633,2019-08-07 16:23:13:268
4.87,-8.3307,1.9353,-0.2952,-0.1481,0.0295,0.0165,-0.0422,0.015,638,2019-08-07 16:23:13:273
4.87,-8.3307,1.9353,-0.3601,-0.1807,-0.0426,0.0283,-0.0273,0.014,643,2019-08-07 16:23:13:278
4.87,-8.3307,1.9353,-0.3601,-0.1807,-0.0426,0.0283,-0.0273,0.014,648,2019-08-07 16:23:13:283
4.8078,-8.3212,1.9542,-0.3601,-0.1807,-0.0426,0.0283,-0.0273,0.014,652,2019-08-07 16:23:13:287
4.8078,-8.3212,1.9542,-0.3601,-0.1807,-0.0426,0.0336,-0.0123,0.015,658,2019-08-07 16:23:13:293
4.7312,-8.3116,1.907,-0.2112,-0.1843,0.0084,0.0314,-0.007,0.014,663,2019-08-07 16:23:13:298
4.7312,-8.3116,1.907,-0.2112,-0.1843,0.0084,0.0314,-0.007,0.014,667,2019-08-07 16:23:13:302
4.7312,-8.3116,1.907,-0.2112,-0.1843,0.0084,0.0314,-0.007,0.014,672,2019-08-07 16:23:13:307
4.6451,-8.3212,2.0531,-0.2112,-0.1843,0.0084,0.0293,-0.0092,0.0118,678,2019-08-07 16:23:13:313
4.6451,-8.3212,2.0531,-0.1114,-0.1499,-0.113,0.0293,-0.0092,0.0118,682,2019-08-07 16:23:13:317
4.5877,-8.3307,2.0579,-0.1114,-0.1499,-0.113,0.0187,-0.0273,-0.0031,688,2019-08-07 16:23:13:323
4.5877,-8.3307,2.0579,-0.1114,-0.1499,-0.113,0.0187,-0.0273,-0.0031,692,2019-08-07 16:23:13:327
4.5877,-8.3307,2.0579,-0.1114,-0.1499,-0.113,0.0016,-0.0496,-0.0116,698,2019-08-07 16:23:13:333
4.6786,-8.345,1.9966,-0.1326,-0.1339,-0.0791,0.0016,-0.0496,-0.0116,702,2019-08-07 16:23:13:337
4.6786,-8.345,1.9966,-0.1326,-0.1339,-0.0791,-0.0037,-0.0656,-0.0137,708,2019-08-07 16:23:13:343
4.7934,-8.3546,1.9966,-0.1326,-0.1339,-0.0791,-0.0037,-0.0656,-0.0137,714,2019-08-07 16:23:13:349
4.7934,-8.3546,1.9966,-0.1326,-0.1339,-0.0791,-0.009,-0.0635,-0.0159,717,2019-08-07 16:23:13:352
4.7934,-8.3546,1.9966,-0.3651,-0.1365,-0.0901,-0.009,-0.0635,-0.0159,723,2019-08-07 16:23:13:358
4.9753,-8.3212,1.9164,-0.3651,-0.1365,-0.0901,-0.0069,-0.0613,-0.0095,728,2019-08-07 16:23:13:363
4.9753,-8.3212,1.9164,-0.3651,-0.1365,-0.0901,-0.0069,-0.0613,-0.0095,733,2019-08-07 16:23:13:368
4.9753,-8.3212,1.9164,-0.3651,-0.1365,-0.0901,-5.0E-4,-0.0475,-0.001,738,2019-08-07 16:23:13:373
5.0183,-8.2591,1.8976,-0.4587,-0.2154,0.0073,-5.0E-4,-0.0475,-0.001,743,2019-08-07 16:23:13:378
5.0183,-8.2591,1.8976,-0.4587,-0.2154,0.0073,0.0048,-0.0305,0.0108,748,2019-08-07 16:23:13:383
5.0374,-8.3498,1.8693,-0.4587,-0.2154,0.0073,0.0048,-0.0305,0.0108,753,2019-08-07 16:23:13:388
5.0374,-8.3498,1.8693,-0.4587,-0.2154,0.0073,0.0069,-0.0092,0.0161,758,2019-08-07 16:23:13:393
5.0374,-8.3498,1.8693,-0.4272,-0.1428,0.0709,0.0069,-0.0092,0.0161,763,2019-08-07 16:23:13:398
4.9561,-8.3069,1.907,-0.4272,-0.1428,0.0709,0.0176,0.0068,0.0225,767,2019-08-07 16:23:13:402
4.9561,-8.3069,1.907,-0.4272,-0.1428,0.0709,0.0176,0.0068,0.0225,773,2019-08-07 16:23:13:408
4.8222,-8.4214,1.9164,-0.4272,-0.1428,0.0709,0.0176,0.0111,0.0278,778,2019-08-07 16:23:13:413
4.8222,-8.4214,1.9164,-0.2376,-0.1383,0.0506,0.0176,0.0111,0.0278,783,2019-08-07 16:23:13:418
4.8222,-8.4214,1.9164,-0.2376,-0.1383,0.0506,0.0176,0.0111,0.0278,788,2019-08-07 16:23:13:423
4.6978,-8.3594,1.9353,-0.2376,-0.1383,0.0506,0.0187,0.0196,0.0246,793,2019-08-07 16:23:13:428
4.6978,-8.3594,1.9353,-0.2376,-0.1383,0.0506,0.0187,0.0196,0.0246,798,2019-08-07 16:23:13:433
4.5208,-8.3594,1.9164,-0.0358,-0.0485,-0.0383,0.024,0.0111,0.0225,803,2019-08-07 16:23:13:438
4.5208,-8.3594,1.9164,-0.0358,-0.0485,-0.0383,0.024,0.0111,0.0225,808,2019-08-07 16:23:13:443
4.5208,-8.3594,1.9164,-0.0358,-0.0485,-0.0383,0.0261,-0.0092,0.0129,813,2019-08-07 16:23:13:448
4.5542,-8.3832,1.94,-0.0358,-0.0485,-0.0383,0.0261,-0.0092,0.0129,818,2019-08-07 16:23:13:453
4.5542,-8.3832,1.94,0.0488,-0.1009,-0.0391,0.0219,-0.0251,-0.002,824,2019-08-07 16:23:13:459
4.5542,-8.3832,1.94,0.0488,-0.1009,-0.0391,0.0219,-0.0251,-0.002,828,2019-08-07 16:23:13:463
4.5877,-8.3307,1.9683,0.0488,-0.1009,-0.0391,0.0304,-0.04,-0.0127,833,2019-08-07 16:23:13:468
4.5877,-8.3307,1.9683,0.0488,-0.1009,-0.0391,0.0304,-0.04,-0.0127,837,2019-08-07 16:23:13:472
4.7169,-8.2782,1.8882,-0.1576,-0.1938,0.0286,0.0336,-0.0432,-0.0212,843,2019-08-07 16:23:13:478
4.7169,-8.2782,1.8882,-0.1576,-0.1938,0.0286,0.0336,-0.0432,-0.0212,848,2019-08-07 16:23:13:483
4.8222,-8.2782,1.7892,-0.1576,-0.1938,0.0286,0.0357,-0.0326,-0.0329,853,2019-08-07 16:23:13:488
4.8222,-8.2782,1.7892,-0.1576,-0.1938,0.0286,0.0357,-0.0326,-0.0329,858,2019-08-07 16:23:13:493
4.8222,-8.2782,1.7892,-0.2543,-0.1839,0.045,0.0357,-0.0326,-0.0329,863,2019-08-07 16:23:13:498
4.8174,-8.2591,1.8646,-0.2543,-0.1839,0.045,0.0389,-0.0123,-0.0478,868,2019-08-07 16:23:13:503
4.8174,-8.2591,1.8646,-0.2543,-0.1839,0.045,0.0389,-0.0123,-0.0478,873,2019-08-07 16:23:13:508
4.8174,-8.2591,1.8646,-0.2543,-0.1839,0.045,0.0421,-0.0134,-0.05,878,2019-08-07 16:23:13:513
4.7983,-8.2305,1.8599,-0.1668,-0.234,0.0741,0.0421,-0.0134,-0.05,883,2019-08-07 16:23:13:518
4.7983,-8.2305,1.8599,-0.1668,-0.234,0.0741,0.0346,-0.0166,-0.0489,888,2019-08-07 16:23:13:523
4.7265,-8.2496,1.8552,-0.1668,-0.234,0.0741,0.0346,-0.0166,-0.0489,893,2019-08-07 16:23:13:528
4.7265,-8.2496,1.8552,-0.1668,-0.234,0.0741,0.0293,-0.0017,-0.0574,898,2019-08-07 16:23:13:533
4.7265,-8.2496,1.8552,-0.0313,-0.1362,0.074,0.0293,-0.0017,-0.0574,903,2019-08-07 16:23:13:538
4.5925,-8.3069,1.808,-0.0313,-0.1362,0.074,0.0261,0.0047,-0.0691,908,2019-08-07 16:23:13:543
4.5925,-8.3069,1.808,-0.0313,-0.1362,0.074,0.0208,0.01,-0.0787,914,2019-08-07 16:23:13:549
4.5112,-8.3689,1.808,-0.0313,-0.1362,0.074,0.0208,0.01,-0.0787,917,2019-08-07 16:23:13:552
4.5112,-8.3689,1.808,-0.0313,-0.1362,0.074,0.0208,0.01,-0.0787,923,2019-08-07 16:23:13:558
4.5112,-8.3689,1.808,0.1104,-0.0617,0.0872,0.0229,0.0058,-0.0979,928,2019-08-07 16:23:13:563
4.4203,-8.4596,1.7562,0.1104,-0.0617,0.0872,0.0229,0.0058,-0.0979,933,2019-08-07 16:23:13:568
4.4203,-8.4596,1.7562,0.1104,-0.0617,0.0872,0.0219,0.0015,-0.1203,938,2019-08-07 16:23:13:573
4.2911,-8.4405,1.7845,0.3291,0.006,0.1516,0.0219,0.0015,-0.1203,943,2019-08-07 16:23:13:578
4.2911,-8.4405,1.7845,0.3291,0.006,0.1516,0.0325,-6.0E-4,-0.149,947,2019-08-07 16:23:13:582
4.2911,-8.4405,1.7845,0.3291,0.006,0.1516,0.0325,-6.0E-4,-0.149,953,2019-08-07 16:23:13:588
4.1428,-8.4119,1.7279,0.3291,0.006,0.1516,0.0464,-0.0155,-0.1852,957,2019-08-07 16:23:13:592
4.1428,-8.4119,1.7279,0.5951,-0.0545,0.2132,0.0464,-0.0155,-0.1852,964,2019-08-07 16:23:13:599
3.918,-8.3212,1.7232,0.5951,-0.0545,0.2132,0.0613,-0.0358,-0.2225,968,2019-08-07 16:23:13:603
3.918,-8.3212,1.7232,0.5951,-0.0545,0.2132,0.0613,-0.0358,-0.2225,973,2019-08-07 16:23:13:608
3.918,-8.3212,1.7232,0.5951,-0.0545,0.2132,0.0762,-0.0443,-0.2694,978,2019-08-07 16:23:13:613
3.717,-8.2687,1.6666,1.0701,-0.1358,0.2487,0.0762,-0.0443,-0.2694,983,2019-08-07 16:23:13:618
3.717,-8.2687,1.6666,1.0701,-0.1358,0.2487,0.0879,-0.0582,-0.3205,988,2019-08-07 16:23:13:623
3.717,-8.2687,1.6666,1.0701,-0.1358,0.2487,0.0879,-0.0582,-0.3205,993,2019-08-07 16:23:13:628
3.2817,-8.135,1.6619,1.0701,-0.1358,0.2487,0.1039,-0.088,-0.3738,998,2019-08-07 16:23:13:633
3.2817,-8.135,1.6619,1.7801,-0.2893,0.3185,0.1039,-0.088,-0.3738,1003,2019-08-07 16:23:13:638
2.8272,-8.03,1.6148,1.7801,-0.2893,0.3185,0.1273,-0.1317,-0.443,1008,2019-08-07 16:23:13:643
2.8272,-8.03,1.6148,1.7801,-0.2893,0.3185,0.1273,-0.1317,-0.443,1013,2019-08-07 16:23:13:648
2.253,-7.8342,1.4828,1.7801,-0.2893,0.3185,0.1721,-0.1796,-0.5528,1018,2019-08-07 16:23:13:653
2.253,-7.8342,1.4828,1.7801,-0.2893,0.3185,0.1721,-0.1796,-0.5528,1022,2019-08-07 16:23:13:657
2.253,-7.8342,1.4828,2.9034,-0.5829,0.4926,0.1721,-0.1796,-0.5528,1028,2019-08-07 16:23:13:663
1.4302,-7.6147,1.3225,2.9034,-0.5829,0.4926,0.2317,-0.2126,-0.6529,1033,2019-08-07 16:23:13:668
1.4302,-7.6147,1.3225,2.9034,-0.5829,0.4926,0.2317,-0.2126,-0.6529,1037,2019-08-07 16:23:13:672
0.5929,-7.6815,0.9737,4.3255,-0.5705,1.0136,0.3052,-0.1924,-0.7893,1043,2019-08-07 16:23:13:678
0.5929,-7.6815,0.9737,4.3255,-0.5705,1.0136,0.3052,-0.1924,-0.7893,1047,2019-08-07 16:23:13:682
0.5929,-7.6815,0.9737,4.3255,-0.5705,1.0136,0.4022,-0.023,-0.9885,1053,2019-08-07 16:23:13:688
0.3489,-8.2353,-0.1293,4.3255,-0.5705,1.0136,0.4022,-0.023,-0.9885,1058,2019-08-07 16:23:13:693
0.3489,-8.2353,-0.1293,4.6803,0.9085,3.4014,0.5268,0.3328,-1.3016,1063,2019-08-07 16:23:13:698
0.3489,-8.2353,-0.1293,4.6803,0.9085,3.4014,0.5268,0.3328,-1.3016,1068,2019-08-07 16:23:13:703
0.2772,-9.6197,-1.8405,4.6803,0.9085,3.4014,0.6759,1.1509,-1.8183,1073,2019-08-07 16:23:13:708
0.2772,-9.6197,-1.8405,4.6803,0.9085,3.4014,0.6759,1.1509,-1.8183,1079,2019-08-07 16:23:13:714
-1.182,-11.2857,-2.6465,4.6803,0.9085,3.4014,0.8975,2.4015,-2.4809,1082,2019-08-07 16:23:13:717
-1.182,-11.2857,-2.6465,6.9782,3.7661,5.0603,0.8975,2.4015,-2.4809,1088,2019-08-07 16:23:13:723
-1.182,-11.2857,-2.6465,6.9782,3.7661,5.0603,1.2054,3.9366,-3.2149,1093,2019-08-07 16:23:13:728
-4.4401,-12.5221,-3.495,9.8711,4.7808,6.1048,1.2054,3.9366,-3.2149,1098,2019-08-07 16:23:13:733
-4.4401,-12.5221,-3.495,9.8711,4.7808,6.1048,1.5974,5.3981,-4.0266,1103,2019-08-07 16:23:13:738
-4.4401,-12.5221,-3.495,9.8711,4.7808,6.1048,1.5974,5.3981,-4.0266,1107,2019-08-07 16:23:13:742
-9.3104,-13.2812,-3.4007,9.8711,4.7808,6.1048,1.9106,5.6581,-4.4197,1113,2019-08-07 16:23:13:748
-9.3104,-13.2812,-3.4007,16.8678,6.5115,7.3405,1.9106,5.6581,-4.4197,1118,2019-08-07 16:23:13:753
-9.3104,-13.2812,-3.4007,16.8678,6.5115,7.3405,1.9106,5.6581,-4.4197,1123,2019-08-07 16:23:13:758
-13.4775,-14.7706,-5.7718,16.8678,6.5115,7.3405,2.2642,5.608,-4.4644,1128,2019-08-07 16:23:13:763
-13.4775,-14.7706,-5.7718,16.8678,6.5115,7.3405,2.2642,5.608,-4.4644,1133,2019-08-07 16:23:13:768
-16.5825,-20.2128,-9.8586,22.2595,12.5011,13.91,2.7138,5.9414,-4.1789,1138,2019-08-07 16:23:13:773
-16.5825,-20.2128,-9.8586,22.2595,12.5011,13.91,2.7138,5.9414,-4.1789,1143,2019-08-07 16:23:13:778
-16.5825,-20.2128,-9.8586,22.2595,12.5011,13.91,3.1804,6.2631,-3.8988,1148,2019-08-07 16:23:13:783
-15.9605,-25.5785,-12.3004,22.2595,12.5011,13.91,3.1804,6.2631,-3.8988,1153,2019-08-07 16:23:13:788
-15.9605,-25.5785,-12.3004,21.6183,21.5472,18.6493,3.9101,6.4815,-3.8253,1158,2019-08-07 16:23:13:793
-16.3241,-28.2853,-13.1253,21.6183,21.5472,18.6493,3.9101,6.4815,-3.8253,1164,2019-08-07 16:23:13:799
-16.3241,-28.2853,-13.1253,21.6183,21.5472,18.6493,5.6539,6.5294,-4.246,1168,2019-08-07 16:23:13:803
-16.3241,-28.2853,-13.1253,21.6183,21.5472,18.6493,5.6539,6.5294,-4.246,1173,2019-08-07 16:23:13:808
-15.9031,-26.3424,-4.4189,20.6244,21.3939,8.4552,7.9836,5.3587,-4.7627,1178,2019-08-07 16:23:13:813
-15.9031,-26.3424,-4.4189,20.6244,21.3939,8.4552,7.9836,5.3587,-4.7627,1183,2019-08-07 16:23:13:818
-15.9031,-26.3424,-4.4189,20.6244,21.3939,8.4552,7.9836,5.3587,-4.7627,1188,2019-08-07 16:23:13:823
-11.315,-26.8197,1.2942,20.6244,21.3939,8.4552,10.308,2.8937,-5.3049,1193,2019-08-07 16:23:13:828
-11.315,-26.8197,1.2942,13.7876,21.8163,13.4317,10.308,2.8937,-5.3049,1198,2019-08-07 16:23:13:833
-11.315,-26.8197,1.2942,13.7876,21.8163,13.4317,11.5949,1.0913,-6.2722,1203,2019-08-07 16:23:13:838
-4.8324,-19.7831,-11.2586,13.7876,21.8163,13.4317,11.5949,1.0913,-6.2722,1207,2019-08-07 16:23:13:842
-4.8324,-19.7831,-11.2586,13.7876,21.8163,13.4317,11.7344,2.6625,-7.3417,1214,2019-08-07 16:23:13:849
-1.0672,-11.9827,-18.3435,6.0489,11.5578,26.7838,11.7344,2.6625,-7.3417,1218,2019-08-07 16:23:13:853
-1.0672,-11.9827,-18.3435,6.0489,11.5578,26.7838,11.7344,2.6625,-7.3417,1223,2019-08-07 16:23:13:858
-1.0672,-11.9827,-18.3435,6.0489,11.5578,26.7838,11.9762,5.9095,-8.6797,1228,2019-08-07 16:23:13:863
-3.244,0.3624,-16.7549,6.0489,11.5578,26.7838,11.9762,5.9095,-8.6797,1233,2019-08-07 16:23:13:868
-3.244,0.3624,-16.7549,6.2206,-35.3571,10.6921,14.0365,7.7193,-8.7201,1238,2019-08-07 16:23:13:873
-25.1893,117.5167,63.031,6.2206,-35.3571,10.6921,14.0365,7.7193,-8.7201,1243,2019-08-07 16:23:13:878
-25.1893,117.5167,63.031,6.2206,-35.3571,10.6921,20.1319,1.3565,-5.7821,1249,2019-08-07 16:23:13:884
-25.1893,117.5167,63.031,6.2206,-35.3571,10.6921,20.1319,1.3565,-5.7821,1253,2019-08-07 16:23:13:888
-37.2217,111.0864,-22.8122,30.4643,-73.1184,45.0495,15.5438,-5.2353,-5.812,1259,2019-08-07 16:23:13:894
-37.2217,111.0864,-22.8122,30.4643,-73.1184,45.0495,15.5438,-5.2353,-5.812,1264,2019-08-07 16:23:13:899
-37.2217,111.0864,-22.8122,30.4643,-73.1184,45.0495,15.5438,-5.2353,-5.812,1267,2019-08-07 16:23:13:902
0.038,57.5337,-56.3085,30.4643,-73.1184,45.0495,2.8789,-11.7878,-1.6819,1273,2019-08-07 16:23:13:908
0.038,57.5337,-56.3085,-13.9486,-52.6844,42.4453,2.8789,-11.7878,-1.6819,1278,2019-08-07 16:23:13:913
27.3751,42.0522,-23.7691,-13.9486,-52.6844,42.4453,-3.665,-17.3271,1.1975,1283,2019-08-07 16:23:13:918
27.3751,42.0522,-23.7691,-13.9486,-52.6844,42.4453,-3.665,-17.3271,1.1975,1288,2019-08-07 16:23:13:923
27.3751,42.0522,-23.7691,-13.9486,-52.6844,42.4453,-6.7948,0.8953,2.4161,1293,2019-08-07 16:23:13:928
47.6412,-1.9815,-9.5617,-41.8768,9.4805,4.7456,-6.7948,0.8953,2.4161,1298,2019-08-07 16:23:13:933
47.6412,-1.9815,-9.5617,-41.8768,9.4805,4.7456,-7.1335,3.486,1.2763,1303,2019-08-07 16:23:13:938
36.5513,-0.1245,97.2909,-41.8768,9.4805,4.7456,-7.1335,3.486,1.2763,1308,2019-08-07 16:23:13:943
36.5513,-0.1245,97.2909,-41.8768,9.4805,4.7456,-7.1335,3.486,1.2763,1313,2019-08-07 16:23:13:948
36.5513,-0.1245,97.2909,3.7047,-10.7559,-1.9964,-2.5582,-3.222,1.4819,1318,2019-08-07 16:23:13:953
-1.0528,19.176,2.9723,3.7047,-10.7559,-1.9964,-2.5582,-3.222,1.4819,1323,2019-08-07 16:23:13:958
-1.0528,19.176,2.9723,3.7047,-10.7559,-1.9964,0.7196,2.0585,4.422,1328,2019-08-07 16:23:13:963
-2.4068,34.9201,21.3185,10.1732,-22.3774,12.0649,0.7196,2.0585,4.422,1334,2019-08-07 16:23:13:969
-2.4068,34.9201,21.3185,10.1732,-22.3774,12.0649,0.3574,5.396,8.1238,1337,2019-08-07 16:23:13:972
-2.4068,34.9201,21.3185,10.1732,-22.3774,12.0649,0.3574,5.396,8.1238,1343,2019-08-07 16:23:13:978
12.0703,38.7009,-1.2842,-8.6308,-34.9364,11.1014,-1.9904,-0.97,8.9899,1349,2019-08-07 16:23:13:984
12.0703,38.7009,-1.2842,-8.6308,-34.9364,11.1014,-1.9904,-0.97,8.9899,1353,2019-08-07 16:23:13:988
12.0703,38.7009,-1.2842,-8.6308,-34.9364,11.1014,-4.2072,-2.6957,6.8743,1357,2019-08-07 16:23:13:992
16.534,33.0726,-13.1159,-8.6308,-34.9364,11.1014,-4.2072,-2.6957,6.8743,1364,2019-08-07 16:23:13:999
16.534,33.0726,-13.1159,-8.6308,-34.9364,11.1014,-4.2072,-2.6957,6.8743,1368,2019-08-07 16:23:14:003
16.534,33.0726,-13.1159,-2.5307,-21.7927,8.7604,-6.6893,-2.0523,5.45,1373,2019-08-07 16:23:14:008
5.9944,21.5152,8.874,-2.5307,-21.7927,8.7604,-6.6893,-2.0523,5.45,1378,2019-08-07 16:23:14:013
5.9944,21.5152,8.874,-2.5307,-21.7927,8.7604,-8.333,-5.3877,6.4311,1383,2019-08-07 16:23:14:018
7.444,10.3015,26.7111,-2.5307,-21.7927,8.7604,-8.333,-5.3877,6.4311,1388,2019-08-07 16:23:14:023
7.444,10.3015,26.7111,-3.4835,-4.3368,-28.2789,-7.2773,-6.8876,7.5315,1393,2019-08-07 16:23:14:028
7.444,10.3015,26.7111,-3.4835,-4.3368,-28.2789,-7.2773,-6.8876,7.5315,1398,2019-08-07 16:23:14:033
17.4431,-2.0532,12.9939,-3.4835,-4.3368,-28.2789,-2.6978,-6.2196,6.7592,1402,2019-08-07 16:23:14:037
17.4431,-2.0532,12.9939,-3.4835,-4.3368,-28.2789,-2.6978,-6.2196,6.7592,1408,2019-08-07 16:23:14:043
19.0936,-4.5881,2.3831,-11.9183,4.085,-0.8476,-2.5199,-4.6111,5.7472,1413,2019-08-07 16:23:14:048
19.0936,-4.5881,2.3831,-11.9183,4.085,-0.8476,-2.5199,-4.6111,5.7472,1418,2019-08-07 16:23:14:053
19.0936,-4.5881,2.3831,-11.9183,4.085,-0.8476,-3.9345,-2.7937,5.3286,1423,2019-08-07 16:23:14:058
12.3957,-5.3375,-9.4862,-11.9183,4.085,-0.8476,-3.9345,-2.7937,5.3286,1428,2019-08-07 16:23:14:063
12.3957,-5.3375,-9.4862,-1.9444,4.4319,12.2532,-5.4621,0.3754,5.2721,1433,2019-08-07 16:23:14:068
7.688,-7.3712,3.9293,-1.9444,4.4319,12.2532,-5.4621,0.3754,5.2721,1437,2019-08-07 16:23:14:072
7.688,-7.3712,3.9293,1.113,4.5632,-9.3731,-5.8712,1.0742,5.2455,1443,2019-08-07 16:23:14:078
7.688,-7.3712,3.9293,1.113,4.5632,-9.3731,-5.8712,1.0742,5.2455,1448,2019-08-07 16:23:14:083
0.0045,-5.3566,10.6087,1.113,4.5632,-9.3731,-5.8712,1.0742,5.2455,1453,2019-08-07 16:23:14:088
0.0045,-5.3566,10.6087,1.113,4.5632,-9.3731,-3.5926,1.201,5.5278,1458,2019-08-07 16:23:14:093
-0.2156,-8.8511,2.1239,8.1211,4.3951,1.8756,-3.5926,1.201,5.5278,1463,2019-08-07 16:23:14:098
-0.2156,-8.8511,2.1239,8.1211,4.3951,1.8756,-3.2357,1.756,5.3999,1468,2019-08-07 16:23:14:103
-0.2156,-8.8511,2.1239,8.1211,4.3951,1.8756,-3.2357,1.756,5.3999,1473,2019-08-07 16:23:14:108
-1.9235,-9.233,0.8983,8.1211,4.3951,1.8756,-3.8365,1.2873,5.091,1478,2019-08-07 16:23:14:113
-1.9235,-9.233,0.8983,11.159,4.6216,3.8164,-3.8365,1.2873,5.091,1484,2019-08-07 16:23:14:119
-6.2294,-10.6938,1.1245,11.159,4.6216,3.8164,-4.644,0.7525,4.9717,1488,2019-08-07 16:23:14:123
-6.2294,-10.6938,1.1245,11.159,4.6216,3.8164,-4.644,0.7525,4.9717,1493,2019-08-07 16:23:14:128
-6.2294,-10.6938,1.1245,11.159,4.6216,3.8164,-4.7132,0.2817,5.2359,1498,2019-08-07 16:23:14:133
-8.7076,-13.1857,2.534,15.2484,7.0318,1.4136,-4.7132,0.2817,5.2359,1503,2019-08-07 16:23:14:138
-8.7076,-13.1857,2.534,15.2484,7.0318,1.4136,-4.3532,-0.203,5.5885,1508,2019-08-07 16:23:14:143
-7.9804,-16.3078,0.3986,14.1387,9.6008,3.2521,-4.3532,-0.203,5.5885,1514,2019-08-07 16:23:14:149
-7.9804,-16.3078,0.3986,14.1387,9.6008,3.2521,-4.3532,-0.203,5.5885,1518,2019-08-07 16:23:14:153
-7.9804,-16.3078,0.3986,14.1387,9.6008,3.2521,-2.931,-0.431,5.8101,1523,2019-08-07 16:23:14:158
-3.9473,-16.7183,2.9111,14.1387,9.6008,3.2521,-2.931,-0.431,5.8101,1528,2019-08-07 16:23:14:163
-3.9473,-16.7183,2.9111,8.2514,7.2169,1.5631,-1.4216,0.0825,5.2945,1533,2019-08-07 16:23:14:168
-3.9473,-16.7183,2.9111,8.2514,7.2169,1.5631,-1.4216,0.0825,5.2945,1538,2019-08-07 16:23:14:173
-3.6841,-12.2548,0.4458,8.2514,7.2169,1.5631,-0.0708,0.9762,4.6724,1543,2019-08-07 16:23:14:178
-3.6841,-12.2548,0.4458,8.2514,7.2169,1.5631,-0.0708,0.9762,4.6724,1548,2019-08-07 16:23:14:183
-4.9711,-8.8368,-4.8573,9.0981,1.5196,6.4826,0.6493,1.5589,4.0747,1553,2019-08-07 16:23:14:188
-4.9711,-8.8368,-4.8573,9.0981,1.5196,6.4826,0.6493,1.5589,4.0747,1558,2019-08-07 16:23:14:193
-4.9711,-8.8368,-4.8573,9.0981,1.5196,6.4826,0.6493,1.5589,4.0747,1562,2019-08-07 16:23:14:197
-6.1815,-6.7745,-1.7933,9.9007,-1.0358,6.7974,0.3319,1.7975,3.6785,1569,2019-08-07 16:23:14:204
-6.1815,-6.7745,-1.7933,9.9007,-1.0358,6.7974,0.3319,1.7975,3.6785,1573,2019-08-07 16:23:14:208
-5.5404,-6.4164,0.9266,9.9007,-1.0358,6.7974,-0.1177,1.5951,2.9541,1578,2019-08-07 16:23:14:213
-5.5404,-6.4164,0.9266,7.8606,-2.1133,2.0103,-0.1177,1.5951,2.9541,1583,2019-08-07 16:23:14:218
-5.5404,-6.4164,0.9266,7.8606,-2.1133,2.0103,-0.1422,0.6044,2.1871,1588,2019-08-07 16:23:14:223
-2.866,-6.5931,1.8222,5.3874,-2.0865,1.6144,-0.1422,0.6044,2.1871,1593,2019-08-07 16:23:14:228
-2.866,-6.5931,1.8222,5.3874,-2.0865,1.6144,0.1231,0.0974,1.6758,1598,2019-08-07 16:23:14:233
-2.866,-6.5931,1.8222,5.3874,-2.0865,1.6144,0.1231,0.0974,1.6758,1603,2019-08-07 16:23:14:238
0.1146,-6.5358,0.375,5.3874,-2.0865,1.6144,0.3191,0.0217,1.3988,1608,2019-08-07 16:23:14:243
0.1146,-6.5358,0.375,1.6061,-2.9886,3.2621,0.3191,0.0217,1.3988,1613,2019-08-07 16:23:14:248
1.5737,-5.2182,0.5259,1.6061,-2.9886,3.2621,0.3191,0.0217,1.3988,1618,2019-08-07 16:23:14:253
1.5737,-5.2182,0.5259,1.6061,-2.9886,3.2621,0.5396,-0.0901,1.0387,1623,2019-08-07 16:23:14:258
2.234,-4.2109,1.233,1.6061,-2.9886,3.2621,0.5396,-0.0901,1.0387,1629,2019-08-07 16:23:14:264
2.234,-4.2109,1.233,0.2161,-5.0458,2.2289,0.6727,-0.2531,0.9173,1633,2019-08-07 16:23:14:268
2.234,-4.2109,1.233,0.2161,-5.0458,2.2289,0.6727,-0.2531,0.9173,1638,2019-08-07 16:23:14:273
2.3201,-3.0413,1.5299,0.2161,-5.0458,2.2289,0.6972,-0.2254,0.8172,1643,2019-08-07 16:23:14:278
2.3201,-3.0413,1.5299,0.2161,-5.0458,2.2289,0.6972,-0.2254,0.8172,1648,2019-08-07 16:23:14:283
2.3201,-3.0413,1.5299,0.4015,-6.27,2.4966,0.3095,-0.2137,0.7117,1653,2019-08-07 16:23:14:288
2.3201,-3.0413,1.5299,0.4015,-6.27,2.4966,0.3095,-0.2137,0.7117,1658,2019-08-07 16:23:14:293
2.0378,-2.6308,0.7192,0.4015,-6.27,2.4966,0.3095,-0.2137,0.7117,1663,2019-08-07 16:23:14:298
2.0378,-2.6308,0.7192,0.4015,-6.27,2.4966,-0.2146,-0.1199,0.5743,1668,2019-08-07 16:23:14:303
2.3105,-4.6788,1.2,0.4015,-6.27,2.4966,-0.2146,-0.1199,0.5743,1673,2019-08-07 16:23:14:308
2.3105,-4.6788,1.2,0.1297,-3.7174,1.7266,-0.5843,-0.1135,0.3783,1678,2019-08-07 16:23:14:313
2.1718,-6.8699,2.6942,0.1297,-3.7174,1.7266,-0.4873,-0.0603,0.2302,1684,2019-08-07 16:23:14:319
2.1718,-6.8699,2.6942,0.1297,-3.7174,1.7266,-0.4873,-0.0603,0.2302,1688,2019-08-07 16:23:14:323
2.1718,-6.8699,2.6942,0.1297,-3.7174,1.7266,-0.4873,-0.0603,0.2302,1692,2019-08-07 16:23:14:327
2.4445,-8.1971,1.7798,-0.037,-0.8098,1.699,-0.2679,0.1219,0.1205,1698,2019-08-07 16:23:14:333
2.4445,-8.1971,1.7798,-0.037,-0.8098,1.699,-0.2679,0.1219,0.1205,1703,2019-08-07 16:23:14:338
2.4445,-8.1971,1.7798,-0.037,-0.8098,1.699,-0.106,0.271,-0.0361,1708,2019-08-07 16:23:14:343
2.1622,-8.0061,1.973,-0.037,-0.8098,1.699,-0.106,0.271,-0.0361,1713,2019-08-07 16:23:14:348
2.1622,-8.0061,1.973,0.3588,-1.3016,0.8288,-0.106,0.271,-0.0361,1717,2019-08-07 16:23:14:352
2.1622,-8.0061,1.973,0.3588,-1.3016,0.8288,-0.0026,0.1783,-0.1895,1723,2019-08-07 16:23:14:358
1.8321,-6.8127,2.9488,0.5349,-2.0615,0.4985,-0.0026,0.1783,-0.1895,1728,2019-08-07 16:23:14:363
1.8321,-6.8127,2.9488,0.5349,-2.0615,0.4985,0.0357,-0.0251,-0.2918,1733,2019-08-07 16:23:14:368
1.8321,-6.8127,2.9488,0.5349,-2.0615,0.4985,0.0357,-0.0251,-0.2918,1738,2019-08-07 16:23:14:373
2.0952,-6.6503,3.1845,0.5349,-2.0615,0.4985,-0.0154,-0.2787,-0.3568,1742,2019-08-07 16:23:14:377
2.0952,-6.6503,3.1845,0.1327,-2.0669,0.2542,-0.0154,-0.2787,-0.3568,1749,2019-08-07 16:23:14:384
2.0952,-6.6503,3.1845,0.1327,-2.0669,0.2542,-0.1188,-0.5152,-0.4111,1753,2019-08-07 16:23:14:388
2.5976,-7.2328,3.6276,0.1327,-2.0669,0.2542,-0.1188,-0.5152,-0.4111,1757,2019-08-07 16:23:14:392
2.5976,-7.2328,3.6276,0.1327,-2.0669,0.2542,-0.1518,-0.6632,-0.4505,1763,2019-08-07 16:23:14:398
2.8846,-7.691,3.5286,-0.3353,-1.1486,-0.123,-0.1518,-0.6632,-0.4505,1768,2019-08-07 16:23:14:403
2.8846,-7.691,3.5286,-0.3353,-1.1486,-0.123,-0.1518,-0.6632,-0.4505,1773,2019-08-07 16:23:14:408
2.8846,-7.691,3.5286,-0.3353,-1.1486,-0.123,-0.1678,-0.7367,-0.4899,1778,2019-08-07 16:23:14:413
3.3248,-8.3689,3.2788,-0.3353,-1.1486,-0.123,-0.1912,-0.7559,-0.5378,1784,2019-08-07 16:23:14:419
3.3248,-8.3689,3.2788,-0.7787,-0.3396,-0.0748,-0.1912,-0.7559,-0.5378,1787,2019-08-07 16:23:14:422
3.631,-8.7461,3.4202,-0.7787,-0.3396,-0.0748,-0.1912,-0.7559,-0.5378,1793,2019-08-07 16:23:14:428
3.631,-8.7461,3.4202,-0.9646,0.0335,-0.1676,-0.1624,-0.6845,-0.5751,1798,2019-08-07 16:23:14:433
3.631,-8.7461,3.4202,-0.9646,0.0335,-0.1676,-0.1624,-0.6845,-0.5751,1803,2019-08-07 16:23:14:438
3.8511,-8.9657,3.571,-0.9646,0.0335,-0.1676,-0.1433,-0.5471,-0.6092,1808,2019-08-07 16:23:14:443
3.8511,-8.9657,3.571,-0.9646,0.0335,-0.1676,-0.1433,-0.5471,-0.6092,1813,2019-08-07 16:23:14:448
3.7506,-8.7699,3.7737,-0.8271,0.0463,-0.519,-0.1433,-0.5471,-0.6092,1817,2019-08-07 16:23:14:452
3.7506,-8.7699,3.7737,-0.8271,0.0463,-0.519,-0.1763,-0.4129,-0.5858,1823,2019-08-07 16:23:14:458
3.8367,-8.7079,3.8538,-0.8393,-0.0355,-0.6725,-0.1763,-0.4129,-0.5858,1828,2019-08-07 16:23:14:463
3.8367,-8.7079,3.8538,-0.8393,-0.0355,-0.6725,-0.221,-0.3138,-0.5464,1833,2019-08-07 16:23:14:468
3.8367,-8.7079,3.8538,-0.8393,-0.0355,-0.6725,-0.221,-0.3138,-0.5464,1838,2019-08-07 16:23:14:473
3.9085,-8.6888,4.0047,-0.8393,-0.0355,-0.6725,-0.2519,-0.2552,-0.5283,1843,2019-08-07 16:23:14:478
3.9085,-8.6888,4.0047,-0.7335,-0.0469,-0.8213,-0.2519,-0.2552,-0.5283,1848,2019-08-07 16:23:14:483
3.8224,-8.7508,3.9717,-0.7335,-0.0469,-0.8213,-0.27,-0.2499,-0.4761,1853,2019-08-07 16:23:14:488
3.8224,-8.7508,3.9717,-0.6891,0.0719,-0.8597,-0.27,-0.2499,-0.4761,1858,2019-08-07 16:23:14:493
3.8224,-8.7508,3.9717,-0.6891,0.0719,-0.8597,-0.269,-0.2637,-0.4292,1863,2019-08-07 16:23:14:498
3.9515,-9.0038,3.901,-0.6891,0.0719,-0.8597,-0.269,-0.2637,-0.4292,1868,2019-08-07 16:23:14:503
3.9515,-9.0038,3.901,-0.6891,0.0719,-0.8597,-0.269,-0.2637,-0.4292,1873,2019-08-07 16:23:14:508
4.1573,-9.1232,3.8067,-0.8643,0.3766,-0.7809,-0.2221,-0.2819,-0.3546,1878,2019-08-07 16:23:14:513
4.1573,-9.1232,3.8067,-0.8643,0.3766,-0.7809,-0.2221,-0.2819,-0.3546,1883,2019-08-07 16:23:14:518
4.1573,-9.1232,3.8067,-0.8643,0.3766,-0.7809,-0.1571,-0.3085,-0.2715,1888,2019-08-07 16:23:14:523
4.2338,-9.1996,3.67,-0.8643,0.3766,-0.7809,-0.1571,-0.3085,-0.2715,1892,2019-08-07 16:23:14:527
4.2338,-9.1996,3.67,-1.0019,0.5406,-0.5871,-0.0921,-0.2744,-0.2023,1899,2019-08-07 16:23:14:534
4.3486,-9.233,3.7407,-1.0019,0.5406,-0.5871,-0.0921,-0.2744,-0.2023,1903,2019-08-07 16:23:14:538
4.3486,-9.233,3.7407,-1.0019,0.5406,-0.5871,-0.0207,-0.2126,-0.1565,1908,2019-08-07 16:23:14:543
4.3486,-9.233,3.7407,-1.0019,0.5406,-0.5871,-0.0207,-0.2126,-0.1565,1914,2019-08-07 16:23:14:549
4.2195,-9.0325,3.7313,-0.8402,0.3281,-0.7228,0.0261,-0.1402,-0.116,1918,2019-08-07 16:23:14:553
4.2195,-9.0325,3.7313,-0.8402,0.3281,-0.7228,0.0261,-0.1402,-0.116,1923,2019-08-07 16:23:14:558
4.2195,-9.0325,3.7313,-0.8402,0.3281,-0.7228,0.0304,-0.0379,-0.0947,1928,2019-08-07 16:23:14:563
4.0712,-8.8606,3.7501,-0.8402,0.3281,-0.7228,0.0304,-0.0379,-0.0947,1934,2019-08-07 16:23:14:569
4.0712,-8.8606,3.7501,-0.5384,0.0578,-0.76,0.0304,-0.0379,-0.0947,1938,2019-08-07 16:23:14:573
3.9372,-8.6792,3.8114,-0.5384,0.0578,-0.76,-0.008,0.0633,-0.0862,1942,2019-08-07 16:23:14:577
3.9372,-8.6792,3.8114,-0.5384,0.0578,-0.76,-0.008,0.0633,-0.0862,1949,2019-08-07 16:23:14:584
3.9372,-8.6792,3.8114,-0.5384,0.0578,-0.76,-0.0506,0.1155,-0.0798,1953,2019-08-07 16:23:14:588
3.8272,-8.6458,3.8208,-0.4407,-0.0168,-0.8295,-0.0506,0.1155,-0.0798,1957,2019-08-07 16:23:14:592
3.8272,-8.6458,3.8208,-0.4407,-0.0168,-0.8295,-0.0666,0.1368,-0.0777,1964,2019-08-07 16:23:14:599
3.8272,-8.6458,3.8208,-0.4407,-0.0168,-0.8295,-0.0666,0.1368,-0.0777,1967,2019-08-07 16:23:14:602
3.8272,-8.6458,3.8208,-0.4407,-0.0168,-0.8295,-0.0666,0.1368,-0.0777,1973,2019-08-07 16:23:14:608
3.8511,-8.5551,3.8538,-0.5333,-0.175,-0.6853,-0.0687,0.1229,-0.0691,1978,2019-08-07 16:23:14:613
3.8511,-8.5551,3.8538,-0.5333,-0.175,-0.6853,-0.0687,0.1229,-0.0691,1983,2019-08-07 16:23:14:618
4.0855,-8.4119,3.6841,-0.5333,-0.175,-0.6853,-0.0708,0.1251,-0.0617,1988,2019-08-07 16:23:14:623
4.0855,-8.4119,3.6841,-0.5333,-0.175,-0.6853,-0.0708,0.1251,-0.0617,1993,2019-08-07 16:23:14:628
4.0855,-8.4119,3.6841,-0.6215,-0.4725,-0.5477,-0.0698,0.1176,-0.051,1999,2019-08-07 16:23:14:634
4.0568,-8.1827,3.5663,-0.6215,-0.4725,-0.5477,-0.0698,0.1176,-0.051,2003,2019-08-07 16:23:14:638
4.0568,-8.1827,3.5663,-0.6215,-0.4725,-0.5477,-0.0623,0.1016,-0.0287,2007,2019-08-07 16:23:14:642
3.9803,-8.092,3.2175,-0.6215,-0.4725,-0.5477,-0.0623,0.1016,-0.0287,2013,2019-08-07 16:23:14:648
3.9803,-8.092,3.2175,-0.4829,-0.6857,-0.1428,-0.0538,0.1038,-0.0223,2018,2019-08-07 16:23:14:653
3.9803,-8.092,3.2175,-0.4829,-0.6857,-0.1428,-0.0538,0.1038,-0.0223,2023,2019-08-07 16:23:14:658
3.7698,-8.0443,3.1279,-0.4829,-0.6857,-0.1428,-0.0516,0.1091,-0.0404,2028,2019-08-07 16:23:14:663
3.7698,-8.0443,3.1279,-0.4829,-0.6857,-0.1428,-0.0516,0.1091,-0.0404,2033,2019-08-07 16:23:14:668
3.4253,-7.9727,3.1798,0.0138,-0.7031,-0.1566,-0.0538,0.0612,-0.0606,2038,2019-08-07 16:23:14:673
3.4253,-7.9727,3.1798,0.0138,-0.7031,-0.1566,-0.0538,0.0612,-0.0606,2043,2019-08-07 16:23:14:678
3.4253,-7.9727,3.1798,0.0138,-0.7031,-0.1566,-0.0538,0.0612,-0.0606,2049,2019-08-07 16:23:14:684
3.3296,-8.0109,2.9111,0.0138,-0.7031,-0.1566,-0.0729,-0.0219,-0.0904,2052,2019-08-07 16:23:14:687
3.3296,-8.0109,2.9111,0.0138,-0.7031,-0.1566,-0.0729,-0.0219,-0.0904,2058,2019-08-07 16:23:14:693
3.3487,-8.1207,3.0148,0.1439,-0.5431,0.1018,-0.0953,-0.0944,-0.1245,2063,2019-08-07 16:23:14:698
3.3487,-8.1207,3.0148,0.1439,-0.5431,0.1018,-0.0953,-0.0944,-0.1245,2068,2019-08-07 16:23:14:703
3.3487,-8.1207,3.0148,0.1439,-0.5431,0.1018,-0.0953,-0.0944,-0.1245,2073,2019-08-07 16:23:14:708
3.4396,-8.0777,2.9771,0.1439,-0.5431,0.1018,-0.0964,-0.1562,-0.1544,2078,2019-08-07 16:23:14:713
3.4396,-8.0777,2.9771,0.0431,-0.6004,0.0348,-0.0964,-0.1562,-0.1544,2083,2019-08-07 16:23:14:718
3.4396,-8.0777,2.9771,0.0431,-0.6004,0.0348,-0.0793,-0.1817,-0.1693,2088,2019-08-07 16:23:14:723
3.6119,-8.0491,2.9394,0.0431,-0.6004,0.0348,-0.0793,-0.1817,-0.1693,2092,2019-08-07 16:23:14:727
3.6119,-8.0491,2.9394,-0.2228,-0.7486,-0.0196,-0.0793,-0.186,-0.1895,2098,2019-08-07 16:23:14:733
3.6119,-8.0491,2.9394,-0.2228,-0.7486,-0.0196,-0.0793,-0.186,-0.1895,2103,2019-08-07 16:23:14:738
3.831,-7.8437,2.9156,-0.2228,-0.7486,-0.0196,-0.0879,-0.2052,-0.198,2108,2019-08-07 16:23:14:743
3.831,-7.8437,2.9156,-0.3111,-0.9196,0.0325,-0.0879,-0.2052,-0.198,2113,2019-08-07 16:23:14:748
4.0416,-7.7817,2.9675,-0.3111,-0.9196,0.0325,-0.0964,-0.2286,-0.1895,2118,2019-08-07 16:23:14:753
4.0416,-7.7817,2.9675,-0.3111,-0.9196,0.0325,-0.0964,-0.2286,-0.1895,2123,2019-08-07 16:23:14:758
4.0416,-7.7817,2.9675,-0.3111,-0.9196,0.0325,-0.0996,-0.2414,-0.1938,2128,2019-08-07 16:23:14:763
4.1229,-7.8724,3.09,-0.5112,-0.77,-0.1743,-0.0996,-0.2414,-0.1938,2133,2019-08-07 16:23:14:768
4.1229,-7.8724,3.09,-0.5112,-0.77,-0.1743,-0.106,-0.2733,-0.1874,2138,2019-08-07 16:23:14:773
4.1324,-8.0442,2.7223,-0.5112,-0.77,-0.1743,-0.106,-0.2733,-0.1874,2143,2019-08-07 16:23:14:778
4.1324,-8.0442,2.7223,-0.5112,-0.77,-0.1743,-0.1464,-0.2925,-0.1767,2149,2019-08-07 16:23:14:784
4.1324,-8.0442,2.7223,-0.443,-0.4557,-0.032,-0.1464,-0.2925,-0.1767,2153,2019-08-07 16:23:14:788
4.1037,-8.2447,2.925,-0.443,-0.4557,-0.032,-0.1933,-0.3639,-0.1533,2157,2019-08-07 16:23:14:792
4.1037,-8.2447,2.925,-0.443,-0.4557,-0.032,-0.1933,-0.3639,-0.1533,2164,2019-08-07 16:23:14:799
4.1037,-8.2447,2.925,-0.443,-0.4557,-0.032,-0.2263,-0.4321,-0.1203,2167,2019-08-07 16:23:14:802
4.3956,-8.66,2.7883,-0.6789,0.0272,0.0217,-0.2263,-0.4321,-0.1203,2173,2019-08-07 16:23:14:808
4.3956,-8.66,2.7883,-0.6789,0.0272,0.0217,-0.2295,-0.4534,-0.1054,2178,2019-08-07 16:23:14:813
4.7065,-8.7985,2.8072,-0.6789,0.0272,0.0217,-0.2295,-0.4534,-0.1054,2183,2019-08-07 16:23:14:818
4.7065,-8.7985,2.8072,-0.6789,0.0272,0.0217,-0.2295,-0.4534,-0.1054,2188,2019-08-07 16:23:14:823
4.7065,-8.7985,2.8072,-1.1466,0.1681,-0.0374,-0.1859,-0.4033,-0.0979,2193,2019-08-07 16:23:14:828
4.9314,-8.8319,2.7978,-1.1466,0.1681,-0.0374,-0.1859,-0.4033,-0.0979,2199,2019-08-07 16:23:14:834
4.9314,-8.8319,2.7978,-1.1466,0.1681,-0.0374,-0.1166,-0.2978,-0.0702,2203,2019-08-07 16:23:14:838
4.9314,-8.8319,2.7978,-1.1466,0.1681,-0.0374,-0.1166,-0.2978,-0.0702,2208,2019-08-07 16:23:14:843
4.8357,-8.6123,3.0947,-1.0317,-0.0212,-0.4061,-0.1166,-0.2978,-0.0702,2213,2019-08-07 16:23:14:848
4.8357,-8.6123,3.0947,-1.0317,-0.0212,-0.4061,-0.0761,-0.1945,-0.0308,2218,2019-08-07 16:23:14:853
4.74,-8.512,2.9533,-1.0317,-0.0212,-0.4061,-0.0761,-0.1945,-0.0308,2223,2019-08-07 16:23:14:858
4.74,-8.512,2.9533,-1.0317,-0.0212,-0.4061,-0.0932,-0.088,0.0097,2228,2019-08-07 16:23:14:863
4.74,-8.512,2.9533,-0.8487,-0.122,-0.416,-0.0932,-0.088,0.0097,2233,2019-08-07 16:23:14:868
4.5917,-8.5407,3.2173,-0.8487,-0.122,-0.416,-0.0932,-0.088,0.0097,2238,2019-08-07 16:23:14:873
4.5917,-8.5407,3.2173,-0.8487,-0.122,-0.416,-0.1124,-0.0251,0.014,2243,2019-08-07 16:23:14:878
4.2759,-8.6171,3.4058,-0.8487,-0.122,-0.416,-0.1124,-0.0251,0.014,2248,2019-08-07 16:23:14:883
4.2759,-8.6171,3.4058,-0.358,0.0026,-0.7686,-0.1156,-0.0347,0.0118,2253,2019-08-07 16:23:14:888
4.2759,-8.6171,3.4058,-0.358,0.0026,-0.7686,-0.1156,-0.0347,0.0118,2258,2019-08-07 16:23:14:893
4.1037,-8.6648,3.4294,-0.358,0.0026,-0.7686,-0.1166,-0.0795,0.0097,2263,2019-08-07 16:23:14:898
4.1037,-8.6648,3.4294,-0.358,0.0026,-0.7686,-0.1166,-0.0795,0.0097,2268,2019-08-07 16:23:14:903
4.1037,-8.6648,3.4294,-0.3531,-0.1501,-0.7578,-0.1124,-0.1849,0.0129,2274,2019-08-07 16:23:14:909
4.1994,-8.5025,3.387,-0.3531,-0.1501,-0.7578,-0.1124,-0.1849,0.0129,2277,2019-08-07 16:23:14:912
4.1994,-8.5025,3.387,-0.3531,-0.1501,-0.7578,-0.1124,-0.2488,0.0257,2283,2019-08-07 16:23:14:918
4.5151,-8.3545,3.0947,-0.3531,-0.1501,-0.7578,-0.1124,-0.2488,0.0257,2288,2019-08-07 16:23:14:923
4.5151,-8.3545,3.0947,-0.8237,-0.3312,-0.4238,-0.1156,-0.2563,0.0278,2293,2019-08-07 16:23:14:928
4.85,-8.2686,3.0853,-0.8237,-0.3312,-0.4238,-0.1156,-0.2563,0.0278,2298,2019-08-07 16:23:14:933
4.85,-8.2686,3.0853,-0.8237,-0.3312,-0.4238,-0.0953,-0.2201,0.0214,2303,2019-08-07 16:23:14:938
4.85,-8.2686,3.0853,-0.8237,-0.3312,-0.4238,-0.0953,-0.2201,0.0214,2308,2019-08-07 16:23:14:943
5.0223,-8.1206,2.8779,-1.1672,-0.5295,-0.3184,-0.0719,-0.1604,0.015,2313,2019-08-07 16:23:14:948
5.0223,-8.1206,2.8779,-1.1672,-0.5295,-0.3184,-0.0719,-0.1604,0.015,2318,2019-08-07 16:23:14:953
5.0223,-8.1206,2.8779,-1.1672,-0.5295,-0.3184,-0.0719,-0.1604,0.015,2323,2019-08-07 16:23:14:958
5.0127,-8.0633,2.7695,-1.1502,-0.5864,-0.2199,-0.0495,-0.0965,-0.002,2328,2019-08-07 16:23:14:963
5.0127,-8.0633,2.7695,-1.1502,-0.5864,-0.2199,-0.0314,-0.0283,-0.0063,2334,2019-08-07 16:23:14:969
4.85,-7.9105,2.7836,-1.1502,-0.5864,-0.2199,-0.0314,-0.0283,-0.0063,2338,2019-08-07 16:23:14:973
4.85,-7.9105,2.7836,-0.9128,-0.8171,-0.1385,-0.0314,-0.0283,-0.0063,2343,2019-08-07 16:23:14:978
4.8022,-7.8867,2.6328,-0.9128,-0.8171,-0.1385,-0.0346,-0.0113,-0.001,2348,2019-08-07 16:23:14:983
4.8022,-7.8867,2.6328,-0.9128,-0.8171,-0.1385,-0.0346,-0.0113,-0.001,2353,2019-08-07 16:23:14:988
4.8022,-7.8867,2.6328,-0.9128,-0.8171,-0.1385,-0.0293,-0.006,-0.0116,2358,2019-08-07 16:23:14:993
4.6873,-7.8771,2.7459,-0.7594,-0.7948,-0.2418,-0.0293,-0.006,-0.0116,2363,2019-08-07 16:23:14:998
4.6873,-7.8771,2.7459,-0.7594,-0.7948,-0.2418,-0.0165,-0.0358,-0.0265,2368,2019-08-07 16:23:15:003
4.6873,-7.8771,2.7459,-0.7594,-0.7948,-0.2418,-0.0165,-0.0358,-0.0265,2372,2019-08-07 16:23:15:007
4.5534,-7.8962,2.6893,-0.7594,-0.7948,-0.2418,-0.0016,-0.0688,-0.0319,2378,2019-08-07 16:23:15:013
4.5534,-7.8962,2.6893,-0.6447,-0.6796,-0.1604,-0.0016,-0.0688,-0.0319,2383,2019-08-07 16:23:15:018
4.5247,-7.9917,2.6846,-0.6447,-0.6796,-0.1604,-0.0016,-0.0688,-0.0319,2388,2019-08-07 16:23:15:023
4.5247,-7.9917,2.6846,-0.6447,-0.6796,-0.1604,0.0038,-0.0922,-0.0436,2394,2019-08-07 16:23:15:029
4.4481,-8.0203,2.826,-0.6447,-0.6796,-0.1604,0.0038,-0.0922,-0.0436,2398,2019-08-07 16:23:15:033
4.4481,-8.0203,2.826,-0.5727,-0.5529,-0.3065,0.007,-0.121,-0.0649,2403,2019-08-07 16:23:15:038
4.4481,-8.0203,2.826,-0.5727,-0.5529,-0.3065,0.007,-0.121,-0.0649,2407,2019-08-07 16:23:15:042
4.5199,-8.1301,2.8873,-0.5727,-0.5529,-0.3065,6.0E-4,-0.1327,-0.0872,2413,2019-08-07 16:23:15:048
4.5199,-8.1301,2.8873,-0.5727,-0.5529,-0.3065,6.0E-4,-0.1327,-0.0872,2418,2019-08-07 16:23:15:053
4.5199,-8.1301,2.8873,-0.5727,-0.5529,-0.3065,6.0E-4,-0.1327,-0.0872,2423,2019-08-07 16:23:15:058
4.5821,-8.2161,2.8119,-0.6358,-0.4044,-0.2917,-0.0282,-0.1647,-0.1075,2428,2019-08-07 16:23:15:063
4.5821,-8.2161,2.8119,-0.6358,-0.4044,-0.2917,-0.0527,-0.1583,-0.1192,2433,2019-08-07 16:23:15:068
4.6825,-8.3593,2.9533,-0.6358,-0.4044,-0.2917,-0.0527,-0.1583,-0.1192,2438,2019-08-07 16:23:15:073
4.6825,-8.3593,2.9533,-0.7841,-0.2129,-0.4375,-0.0527,-0.1583,-0.1192,2443,2019-08-07 16:23:15:078
4.7543,-8.345,2.8873,-0.7841,-0.2129,-0.4375,-0.0644,-0.1711,-0.1171,2448,2019-08-07 16:23:15:083
4.7543,-8.345,2.8873,-0.7841,-0.2129,-0.4375,-0.0644,-0.1711,-0.1171,2453,2019-08-07 16:23:15:088
4.7543,-8.345,2.8873,-0.7841,-0.2129,-0.4375,-0.0761,-0.1817,-0.0958,2459,2019-08-07 16:23:15:094
4.8835,-8.5073,2.958,-0.7841,-0.2129,-0.4375,-0.0761,-0.1817,-0.0958,2463,2019-08-07 16:23:15:098
4.8835,-8.5073,2.958,-0.9237,-0.0808,-0.4196,-0.0804,-0.186,-0.0734,2468,2019-08-07 16:23:15:103
4.8835,-8.5073,2.958,-0.9237,-0.0808,-0.4196,-0.0804,-0.186,-0.0734,2473,2019-08-07 16:23:15:108
5.0031,-8.5836,2.9014,-0.9237,-0.0808,-0.4196,-0.09,-0.187,-0.0308,2477,2019-08-07 16:23:15:112
5.0031,-8.5836,2.9014,-0.9237,-0.0808,-0.4196,-0.09,-0.187,-0.0308,2483,2019-08-07 16:23:15:118
5.0031,-8.5836,2.9014,-1.1724,-0.049,-0.212,-0.09,-0.187,-0.0308,2488,2019-08-07 16:23:15:123
5.2614,-8.598,2.6186,-1.1724,-0.049,-0.212,-0.0964,-0.1551,0.0193,2492,2019-08-07 16:23:15:127
5.2614,-8.598,2.6186,-1.1724,-0.049,-0.212,-0.0964,-0.1551,0.0193,2499,2019-08-07 16:23:15:134
5.2614,-8.598,2.6186,-1.1724,-0.049,-0.212,-0.0719,-0.0294,0.0459,2503,2019-08-07 16:23:15:138
5.2566,-8.5932,2.7082,-1.2117,-0.009,-0.2838,-0.0719,-0.0294,0.0459,2508,2019-08-07 16:23:15:143
5.2566,-8.5932,2.7082,-1.2117,-0.009,-0.2838,-0.0484,0.0803,0.0608,2514,2019-08-07 16:23:15:149
4.9839,-8.4309,2.7836,-1.2117,-0.009,-0.2838,-0.0484,0.0803,0.0608,2518,2019-08-07 16:23:15:153
4.9839,-8.4309,2.7836,-1.2117,-0.009,-0.2838,-0.0484,0.0803,0.0608,2523,2019-08-07 16:23:15:158
4.9839,-8.4309,2.7836,-0.7751,-0.3182,-0.2502,-0.0325,0.1656,0.0715,2528,2019-08-07 16:23:15:163
4.6682,-8.2065,2.7129,-0.7751,-0.3182,-0.2502,-0.0325,0.1656,0.0715,2534,2019-08-07 16:23:15:169
4.6682,-8.2065,2.7129,-0.7751,-0.3182,-0.2502,-0.0346,0.2156,0.0768,2538,2019-08-07 16:23:15:173
4.3285,-8.0538,2.8496,-0.7751,-0.3182,-0.2502,-0.0346,0.2156,0.0768,2543,2019-08-07 16:23:15:178
4.3285,-8.0538,2.8496,-0.2345,-0.5667,-0.3821,-0.041,0.1996,0.0779,2549,2019-08-07 16:23:15:184
4.3285,-8.0538,2.8496,-0.2345,-0.5667,-0.3821,-0.041,0.1996,0.0779,2553,2019-08-07 16:23:15:188
4.2663,-7.9583,2.9156,-0.2345,-0.5667,-0.3821,-0.0452,0.1379,0.0757,2557,2019-08-07 16:23:15:192
4.2663,-7.9583,2.9156,-0.2345,-0.5667,-0.3821,-0.0452,0.1379,0.0757,2563,2019-08-07 16:23:15:198
4.2663,-7.9583,2.9156,-0.4165,-0.7859,-0.4209,-0.0474,-0.0273,-0.0052,2568,2019-08-07 16:23:15:203
4.2089,-7.7816,2.6045,-0.4165,-0.7859,-0.4209,-0.0474,-0.0273,-0.0052,2573,2019-08-07 16:23:15:208
4.2089,-7.7816,2.6045,-0.0781,-0.8763,-0.1285,-0.0687,-0.0944,-0.0233,2578,2019-08-07 16:23:15:213
4.2089,-7.7816,2.6045,-0.0781,-0.8763,-0.1285,-0.0687,-0.0944,-0.0233,2582,2019-08-07 16:23:15:217
4.1658,-7.8055,2.4631,-0.0781,-0.8763,-0.1285,-0.0687,-0.0944,-0.0233,2588,2019-08-07 16:23:15:223
4.1658,-7.8055,2.4631,-0.0781,-0.8763,-0.1285,-0.0879,-0.1743,0.015,2593,2019-08-07 16:23:15:228
4.6059,-8.0633,2.2274,-0.5886,-0.5537,0.19,-0.0879,-0.1743,0.015,2598,2019-08-07 16:23:15:233
4.6059,-8.0633,2.2274,-0.5886,-0.5537,0.19,-0.0282,-0.121,0.0491,2602,2019-08-07 16:23:15:237
4.6059,-8.0633,2.2274,-0.5886,-0.5537,0.19,-0.0282,-0.121,0.0491,2608,2019-08-07 16:23:15:243
4.7542,-8.1063,2.1519,-0.5886,-0.5537,0.19,0.041,-0.04,0.0406,2614,2019-08-07 16:23:15:249
4.7542,-8.1063,2.1519,-0.7431,-0.5166,0.3128,0.041,-0.04,0.0406,2617,2019-08-07 16:23:15:252
4.6203,-8.0347,2.1142,-0.7431,-0.5166,0.3128,0.0666,0.0494,0.0214,2623,2019-08-07 16:23:15:258
4.6203,-8.0347,2.1142,-0.7431,-0.5166,0.3128,0.0666,0.0494,0.0214,2627,2019-08-07 16:23:15:262
4.3428,-7.8198,2.2604,-0.4609,-0.6437,0.2861,0.0698,0.0942,0.0033,2634,2019-08-07 16:23:15:269
4.3428,-7.8198,2.2604,-0.4609,-0.6437,0.2861,0.0698,0.0942,0.0033,2638,2019-08-07 16:23:15:273
4.3428,-7.8198,2.2604,-0.4609,-0.6437,0.2861,0.057,0.1634,-0.0404,2643,2019-08-07 16:23:15:278
3.9648,-7.71,2.5526,0.0574,-0.899,-0.115,0.057,0.1634,-0.0404,2648,2019-08-07 16:23:15:283
3.9648,-7.71,2.5526,0.0574,-0.899,-0.115,0.04,0.1411,-0.0638,2653,2019-08-07 16:23:15:288
3.9648,-7.71,2.5526,0.0574,-0.899,-0.115,0.04,0.1411,-0.0638,2658,2019-08-07 16:23:15:293
3.9218,-7.8055,2.7035,0.0574,-0.899,-0.115,0.0229,0.0761,-0.0872,2664,2019-08-07 16:23:15:299
3.9218,-7.8055,2.7035,-0.0057,-0.6413,-0.3176,0.0229,0.0761,-0.0872,2668,2019-08-07 16:23:15:303
3.9218,-7.8055,2.7035,-0.0057,-0.6413,-0.3176,0.0229,0.0761,-0.0872,2673,2019-08-07 16:23:15:308
4.1323,-8.0347,2.8449,-0.0057,-0.6413,-0.3176,-0.0026,-0.0145,-0.1171,2678,2019-08-07 16:23:15:313
4.1323,-8.0347,2.8449,-0.0057,-0.6413,-0.3176,-0.0026,-0.0145,-0.1171,2682,2019-08-07 16:23:15:317
4.4098,-8.1445,2.925,-0.351,-0.4424,-0.4697,-0.0165,-0.1487,-0.1597,2688,2019-08-07 16:23:15:323
4.4098,-8.1445,2.925,-0.351,-0.4424,-0.4697,-0.0165,-0.1487,-0.1597,2693,2019-08-07 16:23:15:328
4.4098,-8.1445,2.925,-0.351,-0.4424,-0.4697,-0.0452,-0.2339,-0.165,2697,2019-08-07 16:23:15:332
4.6203,-8.2304,2.7694,-0.351,-0.4424,-0.4697,-0.0452,-0.2339,-0.165,2703,2019-08-07 16:23:15:338
4.6203,-8.2304,2.7694,-0.8625,-0.2523,-0.3301,-0.0804,-0.2776,-0.116,2708,2019-08-07 16:23:15:343
5.1513,-8.407,2.7694,-0.8625,-0.2523,-0.3301,-0.0804,-0.2776,-0.116,2713,2019-08-07 16:23:15:348
5.1513,-8.407,2.7694,-0.8625,-0.2523,-0.3301,-0.0783,-0.2488,-0.0904,2717,2019-08-07 16:23:15:352
5.1513,-8.407,2.7694,-0.8625,-0.2523,-0.3301,-0.0783,-0.2488,-0.0904,2723,2019-08-07 16:23:15:358
5.357,-8.4595,2.5762,-1.2376,-0.1153,-0.1654,-0.0687,-0.1977,-0.0777,2728,2019-08-07 16:23:15:363
5.357,-8.4595,2.5762,-1.2376,-0.1153,-0.1654,-0.0687,-0.1977,-0.0777,2733,2019-08-07 16:23:15:368
5.4049,-8.4834,2.5432,-1.2376,-0.1153,-0.1654,-0.0772,-0.1189,-0.0606,2737,2019-08-07 16:23:15:372
5.4049,-8.4834,2.5432,-1.2376,-0.1153,-0.1654,-0.0772,-0.1189,-0.0606,2743,2019-08-07 16:23:15:378
5.4049,-8.4834,2.5432,-1.1836,-0.1431,-0.3681,-0.0932,-0.0539,-0.0436,2748,2019-08-07 16:23:15:383
5.3522,-8.45,2.6987,-1.1836,-0.1431,-0.3681,-0.0932,-0.0539,-0.0436,2753,2019-08-07 16:23:15:388
5.3522,-8.45,2.6987,-1.1836,-0.1431,-0.3681,-0.0932,-0.0539,-0.0436,2758,2019-08-07 16:23:15:393
5.2805,-8.4213,2.8213,-1.1836,-0.1431,-0.3681,-0.1028,0.009,-0.0265,2763,2019-08-07 16:23:15:398
5.2805,-8.4213,2.8213,-1.0859,-0.1178,-0.5014,-0.1028,0.009,-0.0265,2768,2019-08-07 16:23:15:403
5.2805,-8.4213,2.8213,-1.0859,-0.1178,-0.5014,-0.1198,0.0601,-0.0052,2773,2019-08-07 16:23:15:408
5.2565,-8.4929,2.8024,-1.0859,-0.1178,-0.5014,-0.1198,0.0601,-0.0052,2778,2019-08-07 16:23:15:413
5.2565,-8.4929,2.8024,-1.0859,-0.1178,-0.5014,-0.1241,0.0825,0.0033,2783,2019-08-07 16:23:15:418
5.1991,-8.6171,2.8401,-1.0859,-0.1178,-0.5014,-0.1241,0.0825,0.0033,2788,2019-08-07 16:23:15:423
5.1991,-8.6171,2.8401,-0.9399,0.0757,-0.5043,-0.1156,0.1219,0.0065,2793,2019-08-07 16:23:15:428
5.1991,-8.6171,2.8401,-0.9399,0.0757,-0.5043,-0.1156,0.1219,0.0065,2798,2019-08-07 16:23:15:433
5.0986,-8.598,2.9014,-0.9399,0.0757,-0.5043,-0.0879,0.1379,0.0193,2803,2019-08-07 16:23:15:438
5.0986,-8.598,2.9014,-0.9399,0.0757,-0.5043,-0.0879,0.1379,0.0193,2808,2019-08-07 16:23:15:443
4.8642,-8.4309,2.8779,-0.6897,-0.0892,-0.489,-0.0879,0.1379,0.0193,2813,2019-08-07 16:23:15:448
4.8642,-8.4309,2.8779,-0.6897,-0.0892,-0.489,-0.0634,0.1389,0.0321,2817,2019-08-07 16:23:15:452
4.8642,-8.4309,2.8779,-0.6897,-0.0892,-0.489,-0.0634,0.1389,0.0321,2823,2019-08-07 16:23:15:458
4.692,-8.3497,2.7789,-0.4259,-0.207,-0.4093,-0.0484,0.1261,0.047,2828,2019-08-07 16:23:15:463
4.692,-8.3497,2.7789,-0.4259,-0.207,-0.4093,-0.0484,0.1261,0.047,2833,2019-08-07 16:23:15:468
4.4671,-8.3402,2.7176,-0.4259,-0.207,-0.4093,-0.0335,0.0995,0.0534,2838,2019-08-07 16:23:15:473
4.4671,-8.3402,2.7176,-0.2881,-0.209,-0.3784,-0.0335,0.0995,0.0534,2842,2019-08-07 16:23:15:477
4.4671,-8.3402,2.7176,-0.2881,-0.209,-0.3784,-0.0186,0.0654,0.047,2848,2019-08-07 16:23:15:483
4.247,-8.3211,2.7317,-0.2881,-0.209,-0.3784,-0.0186,0.0654,0.047,2853,2019-08-07 16:23:15:488
4.247,-8.3211,2.7317,-0.2881,-0.209,-0.3784,6.0E-4,0.0249,0.0395,2858,2019-08-07 16:23:15:493
4.2662,-8.3736,2.5385,-0.0867,-0.2026,-0.218,6.0E-4,0.0249,0.0395,2863,2019-08-07 16:23:15:498
4.2662,-8.3736,2.5385,-0.0867,-0.2026,-0.218,0.0176,4.0E-4,0.0278,2867,2019-08-07 16:23:15:502
4.2662,-8.3736,2.5385,-0.0867,-0.2026,-0.218,0.0176,4.0E-4,0.0278,2873,2019-08-07 16:23:15:508
4.2518,-8.4118,2.5055,-0.0867,-0.2026,-0.218,0.0464,0.01,0.0203,2878,2019-08-07 16:23:15:513
4.2518,-8.4118,2.5055,-0.086,-0.2315,-0.1507,0.0464,0.01,0.0203,2883,2019-08-07 16:23:15:518
4.2422,-8.3163,2.4677,-0.086,-0.2315,-0.1507,0.0751,-0.0081,0.0086,2888,2019-08-07 16:23:15:523
4.2422,-8.3163,2.4677,-0.086,-0.2315,-0.1507,0.0751,-0.0081,0.0086,2893,2019-08-07 16:23:15:528
4.2422,-8.3163,2.4677,-0.086,-0.2315,-0.1507,0.0879,-0.0432,-0.002,2899,2019-08-07 16:23:15:534
4.3523,-8.1397,2.4253,-0.2039,-0.4276,-0.0526,0.0879,-0.0432,-0.002,2903,2019-08-07 16:23:15:538
4.3523,-8.1397,2.4253,-0.2039,-0.4276,-0.0526,0.0794,-0.0624,-0.0191,2909,2019-08-07 16:23:15:544
4.4527,-8.1206,2.2792,-0.2039,-0.4276,-0.0526,0.0794,-0.0624,-0.0191,2914,2019-08-07 16:23:15:549
4.4527,-8.1206,2.2792,-0.2039,-0.4276,-0.0526,0.0794,-0.0624,-0.0191,2918,2019-08-07 16:23:15:553
4.4527,-8.1206,2.2792,-0.2663,-0.5068,0.238,0.0623,-0.0944,-0.0159,2923,2019-08-07 16:23:15:558
4.2949,-8.0537,2.0812,-0.2663,-0.5068,0.238,0.0623,-0.0944,-0.0159,2927,2019-08-07 16:23:15:562
4.2949,-8.0537,2.0812,-0.2663,-0.5068,0.238,0.0219,-0.1711,0.0118,2933,2019-08-07 16:23:15:568
4.2949,-8.0537,2.0812,-0.2663,-0.5068,0.238,0.0219,-0.1711,0.0118,2938,2019-08-07 16:23:15:573
4.4814,-8.2542,2.397,-0.3436,-0.2561,-0.0138,0.0528,-0.1796,0.0353,2943,2019-08-07 16:23:15:578
4.4814,-8.2542,2.397,-0.3436,-0.2561,-0.0138,0.0528,-0.1796,0.0353,2948,2019-08-07 16:23:15:583
4.8737,-8.4595,2.2179,-0.3436,-0.2561,-0.0138,0.0794,-0.1828,0.0395,2953,2019-08-07 16:23:15:588
4.8737,-8.4595,2.2179,-0.3436,-0.2561,-0.0138,0.0794,-0.1828,0.0395,2958,2019-08-07 16:23:15:593
4.8737,-8.4595,2.2179,-0.8251,-0.1486,0.1911,0.1113,-0.0922,0.0289,2963,2019-08-07 16:23:15:598
5.0077,-8.302,2.1661,-0.8251,-0.1486,0.1911,0.1113,-0.0922,0.0289,2968,2019-08-07 16:23:15:603
5.0077,-8.302,2.1661,-0.7839,-0.3221,0.2821,0.1071,-0.039,0.0118,2973,2019-08-07 16:23:15:608
4.8068,-8.1206,2.1991,-0.7839,-0.3221,0.2821,0.1071,-0.039,0.0118,2978,2019-08-07 16:23:15:613
4.8068,-8.1206,2.1991,-0.7839,-0.3221,0.2821,0.0581,-0.0283,-0.0127,2983,2019-08-07 16:23:15:618
4.8068,-8.1206,2.1991,-0.7839,-0.3221,0.2821,0.0581,-0.0283,-0.0127,2987,2019-08-07 16:23:15:622
4.7063,-8.0251,2.4442,-0.5223,-0.5208,-0.0572,0.0581,-0.0283,-0.0127,2993,2019-08-07 16:23:15:628
4.7063,-8.0251,2.4442,-0.5223,-0.5208,-0.0572,0.0315,-0.0177,-0.0233,2998,2019-08-07 16:23:15:633
4.7063,-8.0251,2.4442,-0.5223,-0.5208,-0.0572,0.0315,-0.0177,-0.0233,3003,2019-08-07 16:23:15:638
4.8881,-8.1588,2.6186,-0.5223,-0.5208,-0.0572,0.0208,-0.0091,-0.0329,3007,2019-08-07 16:23:15:642
4.8881,-8.1588,2.6186,-0.5223,-0.5208,-0.0572,0.0208,-0.0091,-0.0329,3013,2019-08-07 16:23:15:648
4.8881,-8.1588,2.6186,-0.8032,-0.347,-0.2501,0.0229,-6.0E-4,-0.0329,3018,2019-08-07 16:23:15:653