ACCELEROMETER X (m/s²),ACCELEROMETER Y (m/s²),ACCELEROMETER Z (m/s²),LINEAR ACCELERATION X (m/s²),LINEAR ACCELERATION Y (m/s²),LINEAR ACCELERATION Z (m/s²),GYROSCOPE X (rad/s),GYROSCOPE Y (rad/s),GYROSCOPE Z (rad/s),Time since start in ms ,YYYY-MO-DD HH-MI-SS_SSS
4.8492,-8.2346,2.4807,-0.4385,-0.2573,-0.0597,-0.0207,-0.0379,-0.0116,3,2019-08-07 16:24:45:442
4.8492,-8.2346,2.4807,-0.4385,-0.2573,-0.0597,-0.0207,-0.0379,-0.0116,8,2019-08-07 16:24:45:447
4.8731,-8.2633,2.4006,-0.4385,-0.2573,-0.0597,-0.0207,-0.0379,-0.0116,12,2019-08-07 16:24:45:451
4.8731,-8.2633,2.4006,-0.5309,-0.1982,0.0787,-0.0133,-0.007,-0.0042,18,2019-08-07 16:24:45:457
4.8731,-8.2633,2.4006,-0.5309,-0.1982,0.0787,-0.0133,-0.007,-0.0042,23,2019-08-07 16:24:45:462
4.8396,-8.311,2.4006,-0.5309,-0.1982,0.0787,-0.0026,0.0143,0.0065,28,2019-08-07 16:24:45:467
4.8396,-8.311,2.4006,-0.5309,-0.1982,0.0787,-0.0026,0.0143,0.0065,33,2019-08-07 16:24:45:472
4.696,-8.3635,2.509,-0.447,-0.1349,0.0312,0.008,0.0431,0.0054,38,2019-08-07 16:24:45:477
4.696,-8.3635,2.509,-0.447,-0.1349,0.0312,0.008,0.0431,0.0054,43,2019-08-07 16:24:45:482
4.696,-8.3635,2.5891,-0.447,-0.1349,0.0312,0.0229,0.0612,-0.0053,49,2019-08-07 16:24:45:488
4.4281,-8.2871,2.5891,-0.447,-0.1349,0.0312,0.0229,0.0612,-0.0053,53,2019-08-07 16:24:45:492
4.4281,-8.2871,2.5891,-0.0121,-0.1375,-0.1633,0.0123,0.0399,-0.017,58,2019-08-07 16:24:45:497
4.2941,-8.3014,2.6504,-0.0121,-0.1375,-0.1633,0.0123,0.0399,-0.017,62,2019-08-07 16:24:45:501
4.2941,-8.3014,2.6504,-0.0121,-0.1375,-0.1633,0.0027,0.0132,-0.0244,68,2019-08-07 16:24:45:507
4.2941,-8.3014,2.6504,-0.0121,-0.1375,-0.1633,0.0027,0.0132,-0.0244,72,2019-08-07 16:24:45:511
4.2989,-8.354,2.773,0.0288,-0.087,-0.2715,-0.0101,-0.0251,-0.0319,78,2019-08-07 16:24:45:517
4.2989,-8.354,2.773,0.0288,-0.087,-0.2715,-0.0101,-0.0251,-0.0319,84,2019-08-07 16:24:45:523
4.5046,-8.2489,2.7636,0.0288,-0.087,-0.2715,-0.0218,-0.0667,-0.0319,88,2019-08-07 16:24:45:527
4.5046,-8.2489,2.7636,0.0288,-0.087,-0.2715,-0.0218,-0.0667,-0.0319,93,2019-08-07 16:24:45:532
4.5046,-8.2489,2.7636,-0.3498,-0.208,-0.1774,-0.0229,-0.0837,-0.0287,99,2019-08-07 16:24:45:538
4.739,-8.206,2.5891,-0.3498,-0.208,-0.1774,-0.0229,-0.0837,-0.0287,102,2019-08-07 16:24:45:541
4.739,-8.206,2.5891,-0.3498,-0.208,-0.1774,-0.0229,-0.0837,-0.0287,108,2019-08-07 16:24:45:547
4.9448,-8.1725,2.5938,-0.3498,-0.208,-0.1774,-0.0239,-0.0656,-0.0223,113,2019-08-07 16:24:45:552
4.9448,-8.1725,2.5938,-0.6248,-0.2333,-0.0503,-0.0239,-0.0656,-0.0223,118,2019-08-07 16:24:45:557
4.9448,-8.1725,2.5938,-0.6248,-0.2333,-0.0503,-0.0122,-0.0177,-0.0106,122,2019-08-07 16:24:45:561
4.9735,-8.1916,2.4854,-0.6248,-0.2333,-0.0503,-0.0122,-0.0177,-0.0106,128,2019-08-07 16:24:45:567
4.9735,-8.1916,2.4854,-0.6248,-0.2333,-0.0503,0.0027,0.0207,0.0033,133,2019-08-07 16:24:45:572
4.9735,-8.1916,2.4854,-0.5762,-0.1354,-0.019,0.0027,0.0207,0.0033,138,2019-08-07 16:24:45:577
4.8299,-8.2489,2.4949,-0.5762,-0.1354,-0.019,0.0261,0.0601,0.0022,143,2019-08-07 16:24:45:582
4.8299,-8.2489,2.4949,-0.5762,-0.1354,-0.019,0.0261,0.0601,0.0022,149,2019-08-07 16:24:45:588
4.8299,-8.2489,2.4949,-0.5762,-0.1354,-0.019,0.0261,0.0601,0.0022,152,2019-08-07 16:24:45:591
4.6098,-8.268,2.5656,-0.2229,-0.1281,-0.1174,0.0379,0.0729,0.0043,158,2019-08-07 16:24:45:597
4.6098,-8.268,2.5656,-0.2229,-0.1281,-0.1174,0.0389,0.0612,1.0E-4,163,2019-08-07 16:24:45:602
4.3706,-8.2441,2.674,-0.2229,-0.1281,-0.1174,0.0389,0.0612,1.0E-4,168,2019-08-07 16:24:45:607
4.3706,-8.2441,2.674,-0.2229,-0.1281,-0.1174,0.0336,0.025,-0.0042,173,2019-08-07 16:24:45:612
4.3706,-8.2441,2.674,-0.0145,-0.1779,-0.2178,0.0336,0.025,-0.0042,178,2019-08-07 16:24:45:617
4.3275,-8.206,2.7353,-0.0145,-0.1779,-0.2178,0.0336,0.025,-0.0042,182,2019-08-07 16:24:45:621
4.3275,-8.206,2.7353,-0.0145,-0.1779,-0.2178,0.0229,-0.0219,-0.0095,188,2019-08-07 16:24:45:627
4.3275,-8.206,2.7353,-0.0145,-0.1779,-0.2178,0.0229,-0.0219,-0.0095,192,2019-08-07 16:24:45:631
4.4567,-8.0914,2.707,-0.178,-0.2942,-0.1386,0.0123,-0.0485,-0.0116,198,2019-08-07 16:24:45:637
4.4567,-8.0914,2.707,-0.178,-0.2942,-0.1386,0.0123,-0.0485,-0.0116,203,2019-08-07 16:24:45:642
4.6528,-8.0723,2.5608,-0.178,-0.2942,-0.1386,-0.0048,-0.0422,-0.017,208,2019-08-07 16:24:45:647
4.6528,-8.0723,2.5608,-0.178,-0.2942,-0.1386,-0.0048,-0.0422,-0.017,214,2019-08-07 16:24:45:653
4.6528,-8.0723,2.5608,-0.319,-0.3725,0.0087,-0.0175,-0.0272,-0.017,218,2019-08-07 16:24:45:657
4.6959,-8.0532,2.4854,-0.319,-0.3725,0.0087,-0.0175,-0.0272,-0.017,223,2019-08-07 16:24:45:662
4.6959,-8.0532,2.4854,-0.319,-0.3725,0.0087,-0.0207,-0.0134,-0.0106,228,2019-08-07 16:24:45:667
4.715,-8.2346,2.5325,-0.319,-0.3725,0.0087,-0.0207,-0.0134,-0.0106,233,2019-08-07 16:24:45:672
4.715,-8.2346,2.5325,-0.3468,-0.2182,0.009,-0.0154,-0.0059,-0.0106,237,2019-08-07 16:24:45:676
4.715,-8.2346,2.5325,-0.3468,-0.2182,0.009,-0.0154,-0.0059,-0.0106,243,2019-08-07 16:24:45:682
4.6767,-8.2967,2.5325,-0.3468,-0.2182,0.009,-0.0069,-0.0102,-0.0117,248,2019-08-07 16:24:45:687
4.6767,-8.2967,2.5325,-0.3468,-0.2182,0.009,-0.0069,-0.0102,-0.0117,252,2019-08-07 16:24:45:691
4.6767,-8.2967,2.5325,-0.3418,-0.178,-0.0117,0.007,-0.0091,-0.0127,258,2019-08-07 16:24:45:697
4.715,-8.2394,2.5137,-0.3418,-0.178,-0.0117,0.007,-0.0091,-0.0127,262,2019-08-07 16:24:45:701
4.715,-8.2394,2.5137,-0.3418,-0.178,-0.0117,0.0123,-0.0027,-0.0095,268,2019-08-07 16:24:45:707
4.5236,-8.225,2.5514,-0.3418,-0.178,-0.0117,0.0123,-0.0027,-0.0095,272,2019-08-07 16:24:45:711
4.5236,-8.225,2.5514,-0.1851,-0.1804,0.0041,0.0165,-0.0155,-0.001,278,2019-08-07 16:24:45:717
4.5236,-8.225,2.5514,-0.1851,-0.1804,0.0041,0.0165,-0.0155,-0.001,282,2019-08-07 16:24:45:721
4.5332,-8.2441,2.5938,-0.1851,-0.1804,0.0041,0.0144,-0.0315,0.0043,288,2019-08-07 16:24:45:727
4.5332,-8.2441,2.5938,-0.1851,-0.1804,0.0041,0.0144,-0.0315,0.0043,293,2019-08-07 16:24:45:732
4.6145,-8.311,2.6504,-0.2356,-0.1028,-0.1463,0.008,-0.0485,0.0075,298,2019-08-07 16:24:45:737
4.6145,-8.311,2.6504,-0.2356,-0.1028,-0.1463,0.008,-0.0485,0.0075,303,2019-08-07 16:24:45:742
4.6145,-8.311,2.6504,-0.2356,-0.1028,-0.1463,0.0091,-0.0475,0.0075,307,2019-08-07 16:24:45:746
4.624,-8.2728,2.5231,-0.2356,-0.1028,-0.1463,0.0091,-0.0475,0.0075,313,2019-08-07 16:24:45:752
4.624,-8.2728,2.5231,-0.2086,-0.1496,0.0116,0.0038,-0.0368,0.0065,318,2019-08-07 16:24:45:757
4.581,-8.2632,2.4854,-0.2086,-0.1496,0.0116,0.0038,-0.0368,0.0065,323,2019-08-07 16:24:45:762
4.581,-8.2632,2.4854,-0.2086,-0.1496,0.0116,6.0E-4,-0.0262,0.0022,328,2019-08-07 16:24:45:767
4.581,-8.2632,2.4854,-0.2086,-0.1496,0.0116,6.0E-4,-0.0262,0.0022,332,2019-08-07 16:24:45:771
4.5618,-8.2728,2.509,-0.1644,-0.1633,-0.0569,-0.008,-0.0198,1.0E-4,338,2019-08-07 16:24:45:777
4.5618,-8.2728,2.509,-0.1644,-0.1633,-0.0569,-0.008,-0.0198,1.0E-4,342,2019-08-07 16:24:45:781
4.5486,-8.2777,2.5422,-0.1644,-0.1633,-0.0569,-0.0058,-0.0209,1.0E-4,349,2019-08-07 16:24:45:788
4.5486,-8.2777,2.5422,-0.1644,-0.1633,-0.0569,-0.0058,-0.0209,1.0E-4,353,2019-08-07 16:24:45:792
4.5486,-8.2777,2.5422,-0.1644,-0.1633,-0.0569,-0.0058,-0.0209,1.0E-4,358,2019-08-07 16:24:45:797
4.6299,-8.2204,2.5658,-0.2428,-0.1912,-0.0689,-0.0016,-0.0336,1.0E-4,362,2019-08-07 16:24:45:801
4.6299,-8.2204,2.5658,-0.2428,-0.1912,-0.0689,-0.0016,-0.0336,1.0E-4,368,2019-08-07 16:24:45:807
4.5342,-8.2204,2.5422,-0.2428,-0.1912,-0.0689,0.0048,-0.0315,-0.0031,372,2019-08-07 16:24:45:811
4.5342,-8.2204,2.5422,-0.2428,-0.1912,-0.0689,0.0048,-0.0315,-0.0031,378,2019-08-07 16:24:45:817
4.5342,-8.2204,2.5422,-0.2535,-0.228,-0.0423,0.0048,-0.0315,-0.0031,382,2019-08-07 16:24:45:821
4.6108,-8.1822,2.6223,-0.2535,-0.228,-0.0423,0.0102,-0.0528,0.0022,387,2019-08-07 16:24:45:826
4.6108,-8.1822,2.6223,-0.2535,-0.228,-0.0423,0.0102,-0.0528,0.0022,393,2019-08-07 16:24:45:832
4.6204,-8.1822,2.6176,-0.292,-0.2168,-0.1341,0.0155,-0.0741,0.0054,399,2019-08-07 16:24:45:838
4.6204,-8.1822,2.6176,-0.292,-0.2168,-0.1341,0.0155,-0.0741,0.0054,403,2019-08-07 16:24:45:842
4.6204,-8.1822,2.6176,-0.292,-0.2168,-0.1341,0.0112,-0.0848,0.0139,407,2019-08-07 16:24:45:846
4.7687,-8.2251,2.6365,-0.292,-0.2168,-0.1341,0.0112,-0.0848,0.0139,413,2019-08-07 16:24:45:852
4.7687,-8.2251,2.6365,-0.292,-0.2168,-0.1341,0.0155,-0.0773,0.0161,418,2019-08-07 16:24:45:857
4.8644,-8.1392,2.6035,-0.431,-0.249,-0.1242,0.0155,-0.0773,0.0161,423,2019-08-07 16:24:45:862
4.8644,-8.1392,2.6035,-0.431,-0.249,-0.1242,0.0112,-0.0667,0.0214,427,2019-08-07 16:24:45:866
4.8644,-8.1392,2.6035,-0.431,-0.249,-0.1242,0.0112,-0.0667,0.0214,433,2019-08-07 16:24:45:872
4.8309,-8.2013,2.5846,-0.431,-0.249,-0.1242,0.0112,-0.0667,0.0214,437,2019-08-07 16:24:45:876
4.8309,-8.2013,2.5846,-0.4473,-0.2008,-0.1039,-0.0026,-0.0283,0.0235,443,2019-08-07 16:24:45:882
4.8213,-8.1726,2.6129,-0.4473,-0.2008,-0.1039,-0.0026,-0.0283,0.0235,448,2019-08-07 16:24:45:887
4.8213,-8.1726,2.6129,-0.4473,-0.2008,-0.1039,-0.0101,-6.0E-4,0.0171,453,2019-08-07 16:24:45:892
4.8213,-8.1726,2.6129,-0.4473,-0.2008,-0.1039,-0.0101,-6.0E-4,0.0171,457,2019-08-07 16:24:45:896
4.6539,-8.1106,2.627,-0.2511,-0.2965,-0.1425,-0.0069,0.0047,0.0161,463,2019-08-07 16:24:45:902
4.6539,-8.1106,2.627,-0.2511,-0.2965,-0.1425,-0.0069,0.0047,0.0161,468,2019-08-07 16:24:45:907
4.5821,-8.187,2.5281,-0.2511,-0.2965,-0.1425,-0.0133,-0.0027,0.0139,473,2019-08-07 16:24:45:912
4.5821,-8.187,2.5281,-0.2511,-0.2965,-0.1425,-0.0133,-0.0027,0.0139,477,2019-08-07 16:24:45:916
4.5821,-8.187,2.5281,-0.1658,-0.1778,-0.082,-0.0143,-0.0198,0.0107,483,2019-08-07 16:24:45:922
4.5869,-8.2204,2.594,-0.1658,-0.1778,-0.082,-0.0143,-0.0198,0.0107,488,2019-08-07 16:24:45:927
4.5869,-8.2204,2.594,-0.1658,-0.1778,-0.082,-0.0037,-0.0368,0.0043,493,2019-08-07 16:24:45:932
4.5438,-8.2824,2.6035,-0.1658,-0.1778,-0.082,-0.0037,-0.0368,0.0043,498,2019-08-07 16:24:45:937
4.5438,-8.2824,2.6035,-0.1115,-0.1587,-0.0897,0.0038,-0.0486,0.0022,503,2019-08-07 16:24:45:942
4.5438,-8.2824,2.6035,-0.1115,-0.1587,-0.0897,0.0038,-0.0486,0.0022,507,2019-08-07 16:24:45:946
4.6395,-8.2586,2.4432,-0.1115,-0.1587,-0.0897,0.0112,-0.0475,-0.0095,513,2019-08-07 16:24:45:952
4.6395,-8.2586,2.4432,-0.1115,-0.1587,-0.0897,0.0112,-0.0475,-0.0095,517,2019-08-07 16:24:45:956
4.6156,-8.2299,2.4432,-0.2404,-0.176,-0.0172,0.0038,-0.0549,-0.0095,523,2019-08-07 16:24:45:962
4.6156,-8.2299,2.4432,-0.2404,-0.176,-0.0172,0.0038,-0.0549,-0.0095,527,2019-08-07 16:24:45:966
4.6156,-8.2299,2.4432,-0.2404,-0.176,-0.0172,-0.0037,-0.0454,-0.0106,533,2019-08-07 16:24:45:972
4.6922,-8.2729,2.5233,-0.2404,-0.176,-0.0172,-0.0037,-0.0454,-0.0106,538,2019-08-07 16:24:45:977
4.6922,-8.2729,2.5233,-0.3251,-0.1692,-0.0591,-0.0037,-0.0454,-0.0106,542,2019-08-07 16:24:45:981
4.7161,-8.2586,2.5092,-0.3251,-0.1692,-0.0591,-0.0037,-0.0422,-0.0085,548,2019-08-07 16:24:45:987
4.7161,-8.2586,2.5092,-0.3251,-0.1692,-0.0591,-0.0037,-0.0422,-0.0085,553,2019-08-07 16:24:45:992
4.7161,-8.2586,2.5092,-0.3251,-0.1692,-0.0591,-5.0E-4,-0.04,-0.0063,557,2019-08-07 16:24:45:996
4.7065,-8.2395,2.4715,-0.3196,-0.1722,0.0408,-5.0E-4,-0.04,-0.0063,563,2019-08-07 16:24:46:002
4.7065,-8.2395,2.4715,-0.3196,-0.1722,0.0408,0.0027,-0.0294,1.0E-4,568,2019-08-07 16:24:46:007
4.7209,-8.249,2.4385,-0.3196,-0.1722,0.0408,0.0027,-0.0294,1.0E-4,572,2019-08-07 16:24:46:011
4.7209,-8.249,2.4385,-0.3196,-0.1722,0.0408,0.007,-0.0272,0.0107,578,2019-08-07 16:24:46:017
4.7209,-8.249,2.4385,-0.2734,-0.2236,-0.0411,0.007,-0.0272,0.0107,583,2019-08-07 16:24:46:022
4.6252,-8.2251,2.5045,-0.2734,-0.2236,-0.0411,0.0144,-0.0432,0.015,587,2019-08-07 16:24:46:026
4.6252,-8.2251,2.5045,-0.2734,-0.2236,-0.0411,0.0144,-0.0432,0.015,593,2019-08-07 16:24:46:032
4.7017,-8.2395,2.5045,-0.2734,-0.2236,-0.0411,0.0208,-0.0507,0.0171,599,2019-08-07 16:24:46:038
4.7017,-8.2395,2.5045,-0.2908,-0.1847,0.0335,0.0208,-0.0507,0.0171,603,2019-08-07 16:24:46:042
4.7017,-8.2395,2.5045,-0.2908,-0.1847,0.0335,0.0208,-0.0507,0.0171,608,2019-08-07 16:24:46:047
4.6778,-8.2347,2.5233,-0.2908,-0.1847,0.0335,0.0251,-0.039,0.0086,614,2019-08-07 16:24:46:053
4.6778,-8.2347,2.5233,-0.2908,-0.1847,0.0335,0.0251,-0.039,0.0086,618,2019-08-07 16:24:46:057
4.5439,-8.2538,2.5186,-0.1159,-0.1449,-0.0505,0.024,-0.0368,1.0E-4,622,2019-08-07 16:24:46:061
4.5439,-8.2538,2.5186,-0.1159,-0.1449,-0.0505,0.024,-0.0368,1.0E-4,628,2019-08-07 16:24:46:067
4.5439,-8.2538,2.5186,-0.1159,-0.1449,-0.0505,0.024,-0.0368,1.0E-4,633,2019-08-07 16:24:46:072
4.4769,-8.2681,2.5469,-0.1159,-0.1449,-0.0505,0.0133,-0.0411,-0.0021,638,2019-08-07 16:24:46:077
4.4769,-8.2681,2.5469,-0.0841,-0.1002,-0.1305,0.0133,-0.0411,-0.0021,644,2019-08-07 16:24:46:083
4.5487,-8.2681,2.5752,-0.0841,-0.1002,-0.1305,0.007,-0.0688,-0.0106,649,2019-08-07 16:24:46:088
4.5487,-8.2681,2.5752,-0.0841,-0.1002,-0.1305,0.007,-0.0688,-0.0106,653,2019-08-07 16:24:46:092
4.5487,-8.2681,2.5752,-0.0841,-0.1002,-0.1305,0.008,-0.089,-0.0148,658,2019-08-07 16:24:46:097
4.6635,-8.2968,2.6129,-0.3159,-0.1503,-0.1164,0.008,-0.089,-0.0148,663,2019-08-07 16:24:46:102
4.6635,-8.2968,2.6129,-0.3159,-0.1503,-0.1164,0.0102,-0.0965,-0.0191,668,2019-08-07 16:24:46:107
4.8788,-8.1917,2.5375,-0.3159,-0.1503,-0.1164,0.0102,-0.0965,-0.0191,673,2019-08-07 16:24:46:112
4.8788,-8.1917,2.5375,-0.3159,-0.1503,-0.1164,0.0027,-0.0997,-0.0127,677,2019-08-07 16:24:46:116
4.8788,-8.1917,2.5375,-0.5874,-0.2422,-0.0154,0.0027,-0.0997,-0.0127,683,2019-08-07 16:24:46:122
5.0749,-8.1679,2.4244,-0.5874,-0.2422,-0.0154,0.007,-0.089,1.0E-4,687,2019-08-07 16:24:46:126
5.0749,-8.1679,2.4244,-0.5874,-0.2422,-0.0154,0.007,-0.089,1.0E-4,693,2019-08-07 16:24:46:132
5.0893,-8.2347,2.4149,-0.5874,-0.2422,-0.0154,0.0144,-0.0571,0.0171,698,2019-08-07 16:24:46:137
5.0893,-8.2347,2.4149,-0.5874,-0.2422,-0.0154,0.0144,-0.0571,0.0171,702,2019-08-07 16:24:46:141
5.0893,-8.2347,2.4149,-0.5764,-0.1638,-0.0152,0.0144,-0.0571,0.0171,708,2019-08-07 16:24:46:147
5.0462,-8.2442,2.4998,-0.5764,-0.1638,-0.0152,0.0357,-0.0177,0.031,712,2019-08-07 16:24:46:151
5.0462,-8.2442,2.4998,-0.5764,-0.1638,-0.0152,0.0357,-0.0177,0.031,718,2019-08-07 16:24:46:157
4.8262,-8.2347,2.6271,-0.372,-0.1532,-0.1692,0.0485,-0.007,0.0363,723,2019-08-07 16:24:46:162
4.8262,-8.2347,2.6271,-0.372,-0.1532,-0.1692,0.0485,-0.007,0.0363,728,2019-08-07 16:24:46:167
4.8262,-8.2347,2.6271,-0.372,-0.1532,-0.1692,0.0421,0.0068,0.0363,732,2019-08-07 16:24:46:171
4.6874,-8.2013,2.6742,-0.372,-0.1532,-0.1692,0.0421,0.0068,0.0363,738,2019-08-07 16:24:46:177
4.6874,-8.2013,2.6742,-0.1037,-0.153,-0.2128,0.0293,0.0015,0.0299,744,2019-08-07 16:24:46:183
4.6061,-8.2013,2.726,-0.1037,-0.153,-0.2128,0.0293,0.0015,0.0299,748,2019-08-07 16:24:46:187
4.6061,-8.2013,2.726,-0.1037,-0.153,-0.2128,0.0176,-0.0049,0.0278,752,2019-08-07 16:24:46:191
4.6061,-8.2013,2.726,-0.1037,-0.153,-0.2128,0.0176,-0.0049,0.0278,758,2019-08-07 16:24:46:197
4.6061,-8.2442,2.7308,-0.1037,-0.153,-0.2128,0.0144,-0.0198,0.0214,763,2019-08-07 16:24:46:202
4.6061,-8.2442,2.7308,-0.1449,-0.1103,-0.3026,0.0144,-0.0198,0.0214,768,2019-08-07 16:24:46:207
4.6061,-8.2442,2.7308,-0.1449,-0.1103,-0.3026,0.0144,-0.0219,0.0139,772,2019-08-07 16:24:46:211
4.6635,-8.2108,2.7732,-0.1449,-0.1103,-0.3026,0.0144,-0.0219,0.0139,778,2019-08-07 16:24:46:217
4.6635,-8.2108,2.7732,-0.1449,-0.1103,-0.3026,0.0123,-0.0262,0.0107,783,2019-08-07 16:24:46:222
4.697,-8.1106,2.5281,-0.2689,-0.2384,-0.0367,0.0123,-0.0262,0.0107,788,2019-08-07 16:24:46:227
4.697,-8.1106,2.5281,-0.2689,-0.2384,-0.0367,0.0016,-0.0145,0.0065,794,2019-08-07 16:24:46:233
4.697,-8.1106,2.5281,-0.2689,-0.2384,-0.0367,0.0016,-0.0145,0.0065,798,2019-08-07 16:24:46:237
4.7735,-8.1392,2.4574,-0.2689,-0.2384,-0.0367,0.0016,-0.0145,0.0065,803,2019-08-07 16:24:46:242
4.7735,-8.1392,2.4574,-0.2807,-0.199,0.0054,0.0027,0.0068,0.0011,808,2019-08-07 16:24:46:247
4.7353,-8.1917,2.4904,-0.2807,-0.199,0.0054,0.0027,0.0068,0.0011,813,2019-08-07 16:24:46:252
4.7353,-8.1917,2.4904,-0.2807,-0.199,0.0054,0.0027,0.0047,0.0043,818,2019-08-07 16:24:46:257
4.7353,-8.1917,2.4904,-0.2807,-0.199,0.0054,0.0027,0.0047,0.0043,823,2019-08-07 16:24:46:262
4.7161,-8.2633,2.4197,-0.2647,-0.1213,0.0538,0.0133,0.0058,-0.0053,829,2019-08-07 16:24:46:268
4.7161,-8.2633,2.4197,-0.2647,-0.1213,0.0538,0.0133,0.0058,-0.0053,833,2019-08-07 16:24:46:272
4.7161,-8.2633,2.4197,-0.2647,-0.1213,0.0538,0.0197,-0.023,-0.0159,837,2019-08-07 16:24:46:276
4.7305,-8.2681,2.4762,-0.2647,-0.1213,0.0538,0.0197,-0.023,-0.0159,843,2019-08-07 16:24:46:282
4.7305,-8.2681,2.4762,-0.2838,-0.1326,0.0791,0.0197,-0.0251,-0.017,848,2019-08-07 16:24:46:287
4.7783,-8.2156,2.5186,-0.2838,-0.1326,0.0791,0.0197,-0.0251,-0.017,853,2019-08-07 16:24:46:292
4.7783,-8.2156,2.5186,-0.2838,-0.1326,0.0791,0.0187,-0.0198,-0.0159,858,2019-08-07 16:24:46:297
4.7783,-8.2156,2.5186,-0.2838,-0.1326,0.0791,0.0187,-0.0198,-0.0159,863,2019-08-07 16:24:46:302
4.7975,-8.249,2.5281,-0.378,-0.1909,0.0286,0.0155,-0.0145,-0.0138,868,2019-08-07 16:24:46:307
4.7975,-8.249,2.5281,-0.378,-0.1909,0.0286,0.0155,-0.0145,-0.0138,873,2019-08-07 16:24:46:312
4.8453,-8.1917,2.5186,-0.378,-0.1909,0.0286,0.0102,-0.0027,-0.0106,878,2019-08-07 16:24:46:317
4.8453,-8.1917,2.5186,-0.378,-0.1909,0.0286,0.0102,-0.0027,-0.0106,883,2019-08-07 16:24:46:322
4.8453,-8.1917,2.5186,-0.3728,-0.2354,-0.0546,0.0102,-0.0027,-0.0106,888,2019-08-07 16:24:46:327
4.8405,-8.187,2.4904,-0.3728,-0.2354,-0.0546,0.0048,0.009,-0.0053,894,2019-08-07 16:24:46:333
4.8405,-8.187,2.4904,-0.29,-0.2294,-0.0909,0.008,0.025,-0.0042,898,2019-08-07 16:24:46:337
4.764,-8.1726,2.4951,-0.29,-0.2294,-0.0909,0.008,0.025,-0.0042,903,2019-08-07 16:24:46:342
4.764,-8.1726,2.4951,-0.29,-0.2294,-0.0909,0.008,0.025,-0.0042,908,2019-08-07 16:24:46:347
4.764,-8.1726,2.4951,-0.29,-0.2294,-0.0909,0.007,0.025,1.0E-4,912,2019-08-07 16:24:46:351
4.7209,-8.1774,2.5894,-0.2215,-0.2082,-0.0631,0.007,0.025,1.0E-4,918,2019-08-07 16:24:46:357
4.7209,-8.1774,2.5894,-0.2215,-0.2082,-0.0631,0.0144,0.0218,-0.0053,922,2019-08-07 16:24:46:361
4.6588,-8.1822,2.5846,-0.2215,-0.2082,-0.0631,0.0144,0.0218,-0.0053,928,2019-08-07 16:24:46:367
4.6588,-8.1822,2.5846,-0.2215,-0.2082,-0.0631,0.0165,0.0111,-0.0095,933,2019-08-07 16:24:46:372
4.6588,-8.1822,2.5846,-0.0904,-0.1534,-0.0539,0.0165,0.0111,-0.0095,938,2019-08-07 16:24:46:377
4.5344,-8.1679,2.5752,-0.0904,-0.1534,-0.0539,0.0123,-0.0049,-0.018,943,2019-08-07 16:24:46:382
4.5344,-8.1679,2.5752,-0.1122,-0.2426,-0.0432,0.0123,-0.0049,-0.018,948,2019-08-07 16:24:46:387
4.5344,-8.1679,2.5752,-0.1122,-0.2426,-0.0432,0.0048,-0.023,-0.0287,952,2019-08-07 16:24:46:391
4.6253,-8.1249,2.6035,-0.1122,-0.2426,-0.0432,0.0048,-0.023,-0.0287,958,2019-08-07 16:24:46:397
4.6253,-8.1249,2.6035,-0.1122,-0.2426,-0.0432,0.0048,-0.023,-0.0287,962,2019-08-07 16:24:46:401
4.7018,-8.1297,2.6365,-0.219,-0.2338,-0.1479,-0.0016,-0.0326,-0.0319,968,2019-08-07 16:24:46:407
4.7018,-8.1297,2.6365,-0.219,-0.2338,-0.1479,-0.0016,-0.0326,-0.0319,974,2019-08-07 16:24:46:413
4.7018,-8.1297,2.6365,-0.219,-0.2338,-0.1479,-0.0154,-0.0272,-0.0447,978,2019-08-07 16:24:46:417
4.8549,-8.1345,2.5234,-0.219,-0.2338,-0.1479,-0.0154,-0.0272,-0.0447,982,2019-08-07 16:24:46:421
4.8549,-8.1345,2.5234,-0.4748,-0.2381,0.0032,-0.0207,-0.0113,-0.0511,988,2019-08-07 16:24:46:427
4.9315,-8.0724,2.4904,-0.4748,-0.2381,0.0032,-0.0207,-0.0113,-0.0511,994,2019-08-07 16:24:46:433
4.9315,-8.0724,2.4904,-0.4748,-0.2381,0.0032,-0.0229,0.009,-0.0532,998,2019-08-07 16:24:46:437
4.9315,-8.0724,2.4904,-0.4748,-0.2381,0.0032,-0.0229,0.009,-0.0532,1002,2019-08-07 16:24:46:441
4.9697,-8.1249,2.4998,-0.4339,-0.2278,0.0468,-0.025,0.0239,-0.0447,1008,2019-08-07 16:24:46:447
4.9697,-8.1249,2.4998,-0.4339,-0.2278,0.0468,-0.025,0.0239,-0.0447,1013,2019-08-07 16:24:46:452
4.8836,-8.1774,2.3395,-0.4339,-0.2278,0.0468,-0.0229,0.0335,-0.0266,1017,2019-08-07 16:24:46:456
4.8836,-8.1774,2.3395,-0.4339,-0.2278,0.0468,-0.0229,0.0335,-0.0266,1023,2019-08-07 16:24:46:462
4.8836,-8.1774,2.3395,-0.3557,-0.1102,0.0641,-0.0143,0.0388,-0.0191,1028,2019-08-07 16:24:46:467
4.8358,-8.2586,2.3914,-0.3557,-0.1102,0.0641,-0.0143,0.0388,-0.0191,1033,2019-08-07 16:24:46:472
4.8358,-8.2586,2.3914,-0.3557,-0.1102,0.0641,-0.0048,0.0377,-0.0148,1037,2019-08-07 16:24:46:476
4.8358,-8.2586,2.3914,-0.3557,-0.1102,0.0641,-0.0048,0.0377,-0.0148,1043,2019-08-07 16:24:46:482
4.7066,-8.3063,2.5045,-0.1378,-0.089,-0.0655,0.0091,0.0388,-0.0191,1048,2019-08-07 16:24:46:487
4.7066,-8.3063,2.5045,-0.1378,-0.089,-0.0655,0.0091,0.0388,-0.0191,1053,2019-08-07 16:24:46:492
4.6014,-8.2443,2.4715,-0.1378,-0.089,-0.0655,0.0091,0.0388,-0.0191,1058,2019-08-07 16:24:46:497
4.6014,-8.2443,2.4715,-0.1378,-0.089,-0.0655,0.0123,0.0452,-0.0223,1063,2019-08-07 16:24:46:502
4.5535,-8.2299,2.4857,-0.0347,-0.1145,0.0017,0.0038,0.0505,-0.033,1068,2019-08-07 16:24:46:507
4.5535,-8.2299,2.4857,-0.0347,-0.1145,0.0017,0.0038,0.0505,-0.033,1073,2019-08-07 16:24:46:512
4.5535,-8.2299,2.4857,-0.0347,-0.1145,0.0017,0.0038,0.0505,-0.033,1078,2019-08-07 16:24:46:517
4.5775,-8.2347,2.5187,-0.0347,-0.1145,0.0017,-0.0133,0.0526,-0.0447,1083,2019-08-07 16:24:46:522
4.5775,-8.2347,2.5187,-0.063,-0.1297,-0.0041,-0.0133,0.0526,-0.0447,1088,2019-08-07 16:24:46:527
4.5775,-8.2347,2.5187,-0.063,-0.1297,-0.0041,-0.0133,0.0526,-0.0447,1093,2019-08-07 16:24:46:532
4.5727,-8.2204,2.4998,-0.063,-0.1297,-0.0041,-0.0165,0.0516,-0.0553,1098,2019-08-07 16:24:46:537
4.5727,-8.2204,2.4998,-0.0306,-0.0462,-0.0595,-0.0165,0.0516,-0.0553,1102,2019-08-07 16:24:46:541
4.5727,-8.2204,2.4998,-0.0306,-0.0462,-0.0595,-0.0197,0.0388,-0.0606,1108,2019-08-07 16:24:46:547
4.611,-8.2108,2.4527,-0.0306,-0.0462,-0.0595,-0.0197,0.0388,-0.0606,1113,2019-08-07 16:24:46:552
4.611,-8.2108,2.4527,-0.0306,-0.0462,-0.0595,-0.0303,0.0218,-0.0575,1117,2019-08-07 16:24:46:556
4.611,-8.2108,2.4527,-0.1215,-0.094,0.0991,-0.0303,0.0218,-0.0575,1123,2019-08-07 16:24:46:562
4.654,-8.2538,2.3584,-0.1215,-0.094,0.0991,-0.0325,0.01,-0.0521,1128,2019-08-07 16:24:46:567
4.654,-8.2538,2.3584,-0.1215,-0.094,0.0991,-0.0325,0.01,-0.0521,1133,2019-08-07 16:24:46:572
4.654,-8.2538,2.3584,-0.1215,-0.094,0.0991,-0.0325,0.01,-0.0521,1138,2019-08-07 16:24:46:577
4.654,-8.2538,2.3584,-0.0647,0.0239,0.1174,-0.0186,0.0026,-0.0479,1142,2019-08-07 16:24:46:581
4.5775,-8.3397,2.448,-0.0647,0.0239,0.1174,-0.0186,0.0026,-0.0479,1148,2019-08-07 16:24:46:587
4.5775,-8.3397,2.448,-0.0647,0.0239,0.1174,-5.0E-4,-0.0049,-0.0436,1153,2019-08-07 16:24:46:592
4.5536,-8.3111,2.3348,-0.0647,0.0239,0.1174,-5.0E-4,-0.0049,-0.0436,1158,2019-08-07 16:24:46:597
4.5536,-8.3111,2.3348,0.0057,-0.0102,0.1396,0.0144,-0.0027,-0.0468,1163,2019-08-07 16:24:46:602
4.5536,-8.3111,2.3348,0.0057,-0.0102,0.1396,0.0144,-0.0027,-0.0468,1168,2019-08-07 16:24:46:607
4.5009,-8.2586,2.3914,0.0057,-0.0102,0.1396,0.0272,0.0207,-0.0543,1172,2019-08-07 16:24:46:611
4.5009,-8.2586,2.3914,0.0057,-0.0102,0.1396,0.0272,0.0207,-0.0543,1178,2019-08-07 16:24:46:617
4.41,-8.2395,2.3961,0.1093,-0.095,0.0695,0.0368,0.025,-0.0543,1184,2019-08-07 16:24:46:623
4.41,-8.2395,2.3961,0.1093,-0.095,0.0695,0.0368,0.025,-0.0543,1187,2019-08-07 16:24:46:626
4.41,-8.2395,2.3961,0.1093,-0.095,0.0695,0.0304,0.0196,-0.0617,1193,2019-08-07 16:24:46:632
4.3861,-8.187,2.4998,0.1093,-0.095,0.0695,0.0304,0.0196,-0.0617,1198,2019-08-07 16:24:46:637
4.3861,-8.187,2.4998,0.2327,-0.0881,-0.0505,0.0176,-0.0177,-0.0692,1203,2019-08-07 16:24:46:642
4.3861,-8.187,2.4998,0.2327,-0.0881,-0.0505,0.0176,-0.0177,-0.0692,1208,2019-08-07 16:24:46:647
4.3766,-8.3159,2.5564,0.2327,-0.0881,-0.0505,0.0176,-0.0177,-0.0692,1212,2019-08-07 16:24:46:651
4.3766,-8.3159,2.5564,0.2327,-0.0881,-0.0505,0.0027,-0.0486,-0.0734,1218,2019-08-07 16:24:46:657
4.5297,-8.3445,2.5517,0.0877,0.0428,-0.0471,0.0027,-0.0486,-0.0734,1223,2019-08-07 16:24:46:662
4.5297,-8.3445,2.5517,0.0877,0.0428,-0.0471,-0.0026,-0.0762,-0.0756,1228,2019-08-07 16:24:46:667
4.5297,-8.3445,2.5517,-0.0191,0.0366,0.0295,-0.0026,-0.0762,-0.0756,1233,2019-08-07 16:24:46:672
4.6349,-8.3254,2.4008,-0.0191,0.0366,0.0295,-0.0026,-0.0613,-0.0734,1238,2019-08-07 16:24:46:677
4.6349,-8.3254,2.4008,-0.0191,0.0366,0.0295,-0.0026,-0.0613,-0.0734,1243,2019-08-07 16:24:46:682
4.5966,-8.335,2.4055,-0.0191,0.0366,0.0295,-5.0E-4,-0.0411,-0.0756,1249,2019-08-07 16:24:46:688
4.5966,-8.335,2.4055,-0.0039,0.0288,0.0703,-5.0E-4,-0.0411,-0.0756,1252,2019-08-07 16:24:46:691
4.5966,-8.335,2.4055,-0.0039,0.0288,0.0703,-5.0E-4,-0.0411,-0.0756,1258,2019-08-07 16:24:46:697
4.5679,-8.3159,2.3914,-0.0039,0.0288,0.0703,-5.0E-4,-0.04,-0.0745,1263,2019-08-07 16:24:46:702
4.5679,-8.3159,2.3914,-0.0039,0.0288,0.0703,-5.0E-4,-0.04,-0.0745,1268,2019-08-07 16:24:46:707
4.5679,-8.3159,2.3914,0.0821,-0.0266,0.0237,0.0155,-0.0549,-0.0724,1273,2019-08-07 16:24:46:712
4.5344,-8.249,2.4432,0.0821,-0.0266,0.0237,0.0155,-0.0549,-0.0724,1278,2019-08-07 16:24:46:717
4.5344,-8.249,2.4432,0.0821,-0.0266,0.0237,0.0272,-0.0741,-0.067,1283,2019-08-07 16:24:46:722
4.6206,-8.187,2.481,0.0821,-0.0266,0.0237,0.0272,-0.0741,-0.067,1288,2019-08-07 16:24:46:727
4.6206,-8.187,2.481,0.0821,-0.0266,0.0237,0.0272,-0.0741,-0.067,1292,2019-08-07 16:24:46:731
4.6206,-8.187,2.481,0.0396,-0.1144,0.0591,0.0325,-0.0912,-0.0606,1298,2019-08-07 16:24:46:737
4.6397,-8.1392,2.4668,0.0396,-0.1144,0.0591,0.0325,-0.0912,-0.0606,1303,2019-08-07 16:24:46:742
4.6397,-8.1392,2.4668,0.0396,-0.1144,0.0591,0.0293,-0.1125,-0.05,1308,2019-08-07 16:24:46:747
4.7067,-8.1822,2.4385,-0.0555,-0.0932,0.0353,0.0293,-0.1125,-0.05,1313,2019-08-07 16:24:46:752
4.7067,-8.1822,2.4385,-0.0555,-0.0932,0.0353,0.0283,-0.1146,-0.0479,1318,2019-08-07 16:24:46:757
4.7067,-8.1822,2.4385,-0.0555,-0.0932,0.0353,0.0283,-0.1146,-0.0479,1323,2019-08-07 16:24:46:762
4.6636,-8.3445,2.3207,-0.0555,-0.0932,0.0353,0.0283,-0.105,-0.0468,1327,2019-08-07 16:24:46:766
4.6636,-8.3445,2.3207,0.0826,0.108,0.0657,0.0283,-0.105,-0.0468,1333,2019-08-07 16:24:46:772
4.6636,-8.3445,2.3207,0.0826,0.108,0.0657,0.0293,-0.0912,-0.0511,1338,2019-08-07 16:24:46:777
4.4962,-8.4495,2.4197,0.0826,0.108,0.0657,0.0293,-0.0912,-0.0511,1343,2019-08-07 16:24:46:782
4.4962,-8.4495,2.4197,0.0826,0.108,0.0657,0.0293,-0.0912,-0.0511,1348,2019-08-07 16:24:46:787
4.4053,-8.4877,2.3725,0.2709,0.2233,0.0908,0.04,-0.0816,-0.0532,1353,2019-08-07 16:24:46:792
4.4053,-8.4877,2.3725,0.2709,0.2233,0.0908,0.04,-0.0816,-0.0532,1358,2019-08-07 16:24:46:797
4.4053,-8.4877,2.3725,0.2709,0.2233,0.0908,0.0474,-0.0826,-0.0734,1363,2019-08-07 16:24:46:802
4.2283,-8.3923,2.382,0.2709,0.2233,0.0908,0.0474,-0.0826,-0.0734,1368,2019-08-07 16:24:46:807
4.2283,-8.3923,2.382,0.4902,0.0543,0.0717,0.0538,-0.088,-0.0958,1373,2019-08-07 16:24:46:812
4.1948,-8.2013,2.316,0.4902,0.0543,0.0717,0.0538,-0.088,-0.0958,1378,2019-08-07 16:24:46:817
4.1948,-8.2013,2.316,0.4757,-0.0646,0.1374,0.057,-0.1039,-0.1065,1384,2019-08-07 16:24:46:823
4.1948,-8.2013,2.316,0.4757,-0.0646,0.1374,0.057,-0.1039,-0.1065,1387,2019-08-07 16:24:46:826
4.2235,-8.1058,2.2877,0.4757,-0.0646,0.1374,0.057,-0.1039,-0.1065,1393,2019-08-07 16:24:46:832
4.2235,-8.1058,2.2877,0.4757,-0.0646,0.1374,0.0623,-0.1412,-0.1139,1398,2019-08-07 16:24:46:837
4.19,-8.0438,2.184,0.5325,-0.1956,0.2752,0.0655,-0.17,-0.1203,1403,2019-08-07 16:24:46:842
4.19,-8.0438,2.184,0.5325,-0.1956,0.2752,0.0655,-0.17,-0.1203,1408,2019-08-07 16:24:46:847
4.19,-8.0438,2.184,0.5325,-0.1956,0.2752,0.0655,-0.17,-0.1203,1413,2019-08-07 16:24:46:852
4.1613,-8.1249,2.0991,0.5325,-0.1956,0.2752,0.0741,-0.2019,-0.1182,1418,2019-08-07 16:24:46:857
4.1613,-8.1249,2.0991,0.5325,-0.1956,0.2752,0.0741,-0.2019,-0.1182,1423,2019-08-07 16:24:46:862
4.1613,-8.1249,2.0991,0.5354,-0.0397,0.4779,0.0741,-0.2435,-0.1192,1427,2019-08-07 16:24:46:866
4.1183,-8.1774,1.9954,0.5354,-0.0397,0.4779,0.0741,-0.2435,-0.1192,1434,2019-08-07 16:24:46:873
4.1183,-8.1774,1.9954,0.5354,-0.0397,0.4779,0.0932,-0.252,-0.1246,1439,2019-08-07 16:24:46:878
3.9843,-8.2299,1.8399,0.5354,-0.0397,0.4779,0.0932,-0.252,-0.1246,1443,2019-08-07 16:24:46:882
3.9843,-8.2299,1.8399,0.8133,0.0734,0.6105,0.1114,-0.2414,-0.1469,1449,2019-08-07 16:24:46:888
3.9843,-8.2299,1.8399,0.8133,0.0734,0.6105,0.1114,-0.2414,-0.1469,1452,2019-08-07 16:24:46:891
3.7212,-8.2872,1.7268,0.8133,0.0734,0.6105,0.1114,-0.2414,-0.1469,1458,2019-08-07 16:24:46:897
3.7212,-8.2872,1.7268,0.8133,0.0734,0.6105,0.1188,-0.2254,-0.1736,1462,2019-08-07 16:24:46:901
3.7212,-8.2872,1.7268,1.2849,0.0367,0.7199,0.1188,-0.2254,-0.1736,1468,2019-08-07 16:24:46:907
3.4198,-8.2347,1.7503,1.2849,0.0367,0.7199,0.1231,-0.2094,-0.2236,1473,2019-08-07 16:24:46:912
3.4198,-8.2347,1.7503,1.2849,0.0367,0.7199,0.1231,-0.2094,-0.2236,1478,2019-08-07 16:24:46:917
3.0083,-8.1058,1.7739,1.9328,-0.1126,0.612,0.1263,-0.2147,-0.2694,1483,2019-08-07 16:24:46:922
3.0083,-8.1058,1.7739,1.9328,-0.1126,0.612,0.1263,-0.2147,-0.2694,1488,2019-08-07 16:24:46:927
3.0083,-8.1058,1.7739,1.9328,-0.1126,0.612,0.1231,-0.251,-0.3248,1493,2019-08-07 16:24:46:932
2.5634,-7.9387,1.5948,2.3125,-0.2225,0.8251,0.1231,-0.251,-0.3248,1498,2019-08-07 16:24:46:937
2.5634,-7.9387,1.5948,2.3125,-0.2225,0.8251,0.1156,-0.2829,-0.3941,1503,2019-08-07 16:24:46:942
2.5634,-7.9387,1.5948,2.3125,-0.2225,0.8251,0.1156,-0.2829,-0.3941,1507,2019-08-07 16:24:46:946
2.2333,-7.7382,1.5099,2.3125,-0.2225,0.8251,0.0975,-0.3245,-0.4974,1513,2019-08-07 16:24:46:952
2.2333,-7.7382,1.5099,2.8973,-0.4773,0.9177,0.0975,-0.3245,-0.4974,1518,2019-08-07 16:24:46:957
1.9271,-7.5712,1.3921,2.8973,-0.4773,0.9177,0.1007,-0.3415,-0.6103,1522,2019-08-07 16:24:46:961
1.9271,-7.5712,1.3921,2.8973,-0.4773,0.9177,0.1007,-0.3415,-0.6103,1528,2019-08-07 16:24:46:967
1.9271,-7.5712,1.3921,2.8973,-0.4773,0.9177,0.1199,-0.3447,-0.7105,1533,2019-08-07 16:24:46:972
1.4917,-7.2609,1.2554,3.5521,-0.8088,1.1273,0.1199,-0.3447,-0.7105,1538,2019-08-07 16:24:46:977
1.4917,-7.2609,1.2554,3.5521,-0.8088,1.1273,0.1593,-0.2584,-0.8884,1543,2019-08-07 16:24:46:982
1.1186,-7.0604,1.246,3.9882,-0.9711,1.1317,0.1593,-0.2584,-0.8884,1549,2019-08-07 16:24:46:988
1.1186,-7.0604,1.246,3.9882,-0.9711,1.1317,0.1593,-0.2584,-0.8884,1553,2019-08-07 16:24:46:992
1.1186,-7.0604,1.246,3.9882,-0.9711,1.1317,0.1859,-0.2062,-1.0439,1559,2019-08-07 16:24:46:998
0.1569,-6.5543,0.9631,3.9882,-0.9711,1.1317,0.1944,-0.1423,-1.2143,1564,2019-08-07 16:24:47:003
0.1569,-6.5543,0.9631,5.3387,-1.4307,0.9773,0.1944,-0.1423,-1.2143,1568,2019-08-07 16:24:47:007
-0.7234,-6.4827,1.6702,5.3387,-1.4307,0.9773,0.1944,-0.1423,-1.2143,1573,2019-08-07 16:24:47:012
-0.7234,-6.4827,1.6702,5.3387,-1.4307,0.9773,0.3191,-0.1029,-1.5605,1578,2019-08-07 16:24:47:017
-0.7234,-6.4827,1.6702,5.3387,-1.4307,0.9773,0.3191,-0.1029,-1.5605,1583,2019-08-07 16:24:47:022
-1.7998,-6.8503,0.6992,7.2615,-0.9308,1.7216,0.3191,-0.1029,-1.5605,1588,2019-08-07 16:24:47:027
-1.7998,-6.8503,0.6992,7.2615,-0.9308,1.7216,0.4363,0.0313,-2.0218,1593,2019-08-07 16:24:47:032
-1.7998,-6.8503,0.6992,7.2615,-0.9308,1.7216,0.4363,0.0313,-2.0218,1599,2019-08-07 16:24:47:038
-2.8476,-7.8433,-1.0968,7.2615,-0.9308,1.7216,0.4906,0.3776,-2.4958,1602,2019-08-07 16:24:47:041
-2.8476,-7.8433,-1.0968,9.3833,1.4306,4.5506,0.4906,0.3776,-2.4958,1608,2019-08-07 16:24:47:047
-4.4359,-9.6764,-2.5062,9.3833,1.4306,4.5506,0.5556,0.8388,-3.1478,1613,2019-08-07 16:24:47:052
-4.4359,-9.6764,-2.5062,9.3833,1.4306,4.5506,0.5556,0.8388,-3.1478,1618,2019-08-07 16:24:47:057
-4.4359,-9.6764,-2.5062,9.3833,1.4306,4.5506,0.6685,1.4737,-4.0032,1623,2019-08-07 16:24:47:062
-7.0338,-11.8246,-3.4207,13.215,4.7063,6.1331,0.6685,1.4737,-4.0032,1627,2019-08-07 16:24:47:066
-7.0338,-11.8246,-3.4207,13.215,4.7063,6.1331,0.8325,1.903,-4.5976,1633,2019-08-07 16:24:47:072
-7.0338,-11.8246,-3.4207,13.215,4.7063,6.1331,0.8325,1.903,-4.5976,1638,2019-08-07 16:24:47:077
-8.8278,-12.3259,-3.2557,13.215,4.7063,6.1331,1.1361,2.0852,-5.0567,1642,2019-08-07 16:24:47:081
-8.8278,-12.3259,-3.2557,16.5452,5.8723,6.9434,1.1361,2.0852,-5.0567,1648,2019-08-07 16:24:47:087
-10.7033,-12.4786,-4.9998,16.5452,5.8723,6.9434,1.525,2.1928,-5.3721,1653,2019-08-07 16:24:47:092
-10.7033,-12.4786,-4.9998,16.5452,5.8723,6.9434,1.525,2.1928,-5.3721,1658,2019-08-07 16:24:47:097
-10.7033,-12.4786,-4.9998,16.5452,5.8723,6.9434,1.9415,2.5305,-5.6384,1664,2019-08-07 16:24:47:103
-13.9518,-13.7342,-7.2059,22.1344,8.6317,10.8846,1.9415,2.5305,-5.6384,1668,2019-08-07 16:24:47:107
-13.9518,-13.7342,-7.2059,22.1344,8.6317,10.8846,1.9415,2.5305,-5.6384,1672,2019-08-07 16:24:47:111
-19.2001,-17.6439,-7.913,22.1344,8.6317,10.8846,2.6307,3.2175,-5.8781,1678,2019-08-07 16:24:47:117
-19.2001,-17.6439,-7.913,22.1344,8.6317,10.8846,2.6307,3.2175,-5.8781,1683,2019-08-07 16:24:47:122
-19.2001,-17.6439,-7.913,26.6403,17.7703,5.6314,3.8217,3.6181,-6.1646,1688,2019-08-07 16:24:47:127
-17.6308,-23.3343,1.0527,26.6403,17.7703,5.6314,3.8217,3.6181,-6.1646,1693,2019-08-07 16:24:47:132
-17.6308,-23.3343,1.0527,26.6403,17.7703,5.6314,5.3003,2.197,-7.166,1698,2019-08-07 16:24:47:137
-10.9951,-22.37,5.8089,26.6403,17.7703,5.6314,5.3003,2.197,-7.166,1703,2019-08-07 16:24:47:142
-10.9951,-22.37,5.8089,26.6403,17.7703,5.6314,5.3003,2.197,-7.166,1707,2019-08-07 16:24:47:146
-10.9951,-22.37,5.8089,16.5461,16.437,0.8156,6.9109,0.0207,-8.7841,1713,2019-08-07 16:24:47:152
-8.4451,-15.4145,-1.3749,16.5461,16.437,0.8156,6.9109,0.0207,-8.7841,1718,2019-08-07 16:24:47:157
-8.4451,-15.4145,-1.3749,16.5461,16.437,0.8156,8.5834,-0.6643,-11.0265,1723,2019-08-07 16:24:47:162
-7.1533,-11.204,-14.6301,16.5461,16.437,0.8156,8.5834,-0.6643,-11.0265,1728,2019-08-07 16:24:47:167
-7.1533,-11.204,-14.6301,16.1415,6.9539,21.2843,9.0542,2.7776,-11.9714,1733,2019-08-07 16:24:47:172
-7.1533,-11.204,-14.6301,16.1415,6.9539,21.2843,9.0542,2.7776,-11.9714,1738,2019-08-07 16:24:47:177
-3.3977,7.5666,1.9625,16.1415,6.9539,21.2843,9.9064,3.6639,-12.1983,1743,2019-08-07 16:24:47:182
-3.3977,7.5666,1.9625,25.8353,-61.8171,-30.5315,9.9064,3.6639,-12.1983,1748,2019-08-07 16:24:47:187
-13.0427,100.0451,37.4574,25.8353,-61.8171,-30.5315,11.8932,-3.3381,-8.8075,1753,2019-08-07 16:24:47:192
-13.0427,100.0451,37.4574,25.8353,-61.8171,-30.5315,11.8932,-3.3381,-8.8075,1758,2019-08-07 16:24:47:197
-13.0427,100.0451,37.4574,12.4685,-121.6552,-11.2943,11.8932,-3.3381,-8.8075,1762,2019-08-07 16:24:47:201
9.8786,116.572,-3.515,12.4685,-121.6552,-11.2943,16.0093,-6.193,-6.8837,1768,2019-08-07 16:24:47:207
9.8786,116.572,-3.515,12.4685,-121.6552,-11.2943,16.0093,-6.193,-6.8837,1773,2019-08-07 16:24:47:212
9.8786,116.572,-3.515,12.4685,-121.6552,-11.2943,6.3889,-13.0352,-6.416,1778,2019-08-07 16:24:47:217
28.5849,50.1968,-59.6234,-21.171,-44.3114,62.1986,6.3889,-13.0352,-6.416,1783,2019-08-07 16:24:47:222
28.5849,50.1968,-59.6234,-21.171,-44.3114,62.1986,0.4245,-16.8712,-5.0631,1788,2019-08-07 16:24:47:227
17.4999,52.6315,-71.5729,-21.171,-44.3114,62.1986,0.4245,-16.8712,-5.0631,1793,2019-08-07 16:24:47:232
17.4999,52.6315,-71.5729,-21.171,-44.3114,62.1986,-7.5277,-8.0561,2.5748,1798,2019-08-07 16:24:47:237
17.4999,52.6315,-71.5729,-16.3474,-32.5882,46.6799,-7.5277,-8.0561,2.5748,1803,2019-08-07 16:24:47:242
32.1971,3.8717,-41.8618,-16.3474,-32.5882,46.6799,-10.4337,0.6929,7.8958,1808,2019-08-07 16:24:47:247
32.1971,3.8717,-41.8618,-16.3474,-32.5882,46.6799,-10.4337,0.6929,7.8958,1813,2019-08-07 16:24:47:252
38.1917,-6.1963,41.3888,-29.9753,11.207,-39.4863,-9.7775,8.676,8.8886,1818,2019-08-07 16:24:47:257
38.1917,-6.1963,41.3888,-29.9753,11.207,-39.4863,-9.7775,8.676,8.8886,1823,2019-08-07 16:24:47:262
38.1917,-6.1963,41.3888,-29.9753,11.207,-39.4863,-9.7775,8.676,8.8886,1828,2019-08-07 16:24:47:267
32.8716,4.4016,28.685,-29.9753,11.207,-39.4863,-0.548,1.9829,6.8657,1833,2019-08-07 16:24:47:272
32.8716,4.4016,28.685,-29.9753,11.207,-39.4863,-0.548,1.9829,6.8657,1838,2019-08-07 16:24:47:277
32.8716,4.4016,28.685,2.163,-12.3555,-7.9875,4.3064,-3.0068,5.9751,1842,2019-08-07 16:24:47:281
12.3473,16.2932,13.681,2.163,-12.3555,-7.9875,4.3064,-3.0068,5.9751,1848,2019-08-07 16:24:47:287
12.3473,16.2932,13.681,2.163,-12.3555,-7.9875,8.1956,3.7118,5.9261,1853,2019-08-07 16:24:47:292
12.3473,16.2932,13.681,2.163,-12.3555,-7.9875,8.1956,3.7118,5.9261,1858,2019-08-07 16:24:47:297
7.6731,28.5619,4.5362,1.1688,-25.5448,-1.5436,6.3602,6.0341,6.5823,1862,2019-08-07 16:24:47:301
7.6731,28.5619,4.5362,1.1688,-25.5448,-1.5436,6.3602,6.0341,6.5823,1868,2019-08-07 16:24:47:307
10.6106,24.2368,-30.8551,1.1688,-25.5448,-1.5436,-0.7718,-2.8939,6.5696,1873,2019-08-07 16:24:47:312
10.6106,24.2368,-30.8551,1.1688,-25.5448,-1.5436,-0.7718,-2.8939,6.5696,1878,2019-08-07 16:24:47:317
5.5536,21.8403,-22.9264,2.0726,-21.2177,27.7598,-5.2991,-3.7045,6.1541,1884,2019-08-07 16:24:47:323
5.5536,21.8403,-22.9264,2.0726,-21.2177,27.7598,-5.2991,-3.7045,6.1541,1888,2019-08-07 16:24:47:327
5.5536,21.8403,-22.9264,2.0726,-21.2177,27.7598,-7.8803,-0.0017,6.7677,1893,2019-08-07 16:24:47:332
6.4244,7.452,0.7275,2.0726,-21.2177,27.7598,-7.8803,-0.0017,6.7677,1899,2019-08-07 16:24:47:338
6.4244,7.452,0.7275,-4.7949,-5.7516,-53.2232,-7.1527,-0.1764,7.1608,1902,2019-08-07 16:24:47:341
6.4244,7.452,0.7275,-4.7949,-5.7516,-53.2232,-7.1527,-0.1764,7.1608,1908,2019-08-07 16:24:47:347
9.2806,0.7401,22.2931,-4.7949,-5.7516,-53.2232,-4.1156,-5.785,6.6665,1913,2019-08-07 16:24:47:352
9.2806,0.7401,22.2931,-4.7949,-5.7516,-53.2232,-4.1156,-5.785,6.6665,1918,2019-08-07 16:24:47:357
10.7302,-7.0604,-1.6483,0.2574,4.3286,1.3531,-0.2796,-4.1189,6.2489,1923,2019-08-07 16:24:47:362
10.7302,-7.0604,-1.6483,0.2574,4.3286,1.3531,-0.2796,-4.1189,6.2489,1928,2019-08-07 16:24:47:367
10.7302,-7.0604,-1.6483,0.2574,4.3286,1.3531,0.2179,-1.8691,5.6928,1933,2019-08-07 16:24:47:372
14.8925,-7.7573,0.0062,0.2574,4.3286,1.3531,0.2179,-1.8691,5.6928,1938,2019-08-07 16:24:47:377
14.8925,-7.7573,0.0062,-3.1011,4.5877,6.226,-0.7632,-2.26,5.4127,1943,2019-08-07 16:24:47:382
14.8925,-7.7573,0.0062,-3.1011,4.5877,6.226,-0.7632,-2.26,5.4127,1947,2019-08-07 16:24:47:386
8.7065,-5.7619,-8.0638,-3.1011,4.5877,6.226,-1.7454,0.8985,5.8494,1953,2019-08-07 16:24:47:392
8.7065,-5.7619,-8.0638,-3.1011,4.5877,6.226,-1.7454,0.8985,5.8494,1958,2019-08-07 16:24:47:397
8.783,-5.38,19.38,0.3185,1.8931,-18.2661,-1.7454,0.8985,5.8494,1963,2019-08-07 16:24:47:402
8.783,-5.38,19.38,0.3185,1.8931,-18.2661,-1.2799,1.6665,6.1115,1968,2019-08-07 16:24:47:407
8.783,-5.38,19.38,0.3185,1.8931,-18.2661,-1.2799,1.6665,6.1115,1972,2019-08-07 16:24:47:411
5.6972,-5.2988,3.5982,0.3185,1.8931,-18.2661,0.1348,2.1288,5.9048,1978,2019-08-07 16:24:47:417
5.6972,-5.2988,3.5982,2.8998,0.7187,-0.6997,0.1348,2.1288,5.9048,1983,2019-08-07 16:24:47:422
5.6972,-5.2988,3.5982,2.8998,0.7187,-0.6997,0.2094,3.1355,5.2635,1987,2019-08-07 16:24:47:426
4.7978,-4.0672,2.8015,4.1829,-1.4144,-0.266,0.2094,3.1355,5.2635,1993,2019-08-07 16:24:47:432
4.7978,-4.0672,2.8015,4.1829,-1.4144,-0.266,-0.2892,2.8415,4.6851,1998,2019-08-07 16:24:47:437
0.3771,-2.1529,0.8359,4.1829,-1.4144,-0.266,-0.2892,2.8415,4.6851,2003,2019-08-07 16:24:47:442
0.3771,-2.1529,0.8359,4.1829,-1.4144,-0.266,-0.2892,2.8415,4.6851,2008,2019-08-07 16:24:47:447
0.3771,-2.1529,0.8359,9.0696,-3.8662,-1.8962,-0.8005,2.6231,4.4252,2013,2019-08-07 16:24:47:452
-1.5844,-2.32,4.6493,9.0696,-3.8662,-1.8962,-0.8005,2.6231,4.4252,2019,2019-08-07 16:24:47:458
-1.5844,-2.32,4.6493,9.0696,-3.8662,-1.8962,-0.8005,2.6231,4.4252,2023,2019-08-07 16:24:47:462
-1.4217,-4.4634,3.8857,9.0696,-3.8662,-1.8962,-0.5939,2.0053,4.3698,2028,2019-08-07 16:24:47:467
-1.4217,-4.4634,3.8857,8.0204,-1.2568,-0.7298,-0.5939,2.0053,4.3698,2034,2019-08-07 16:24:47:473
-1.4217,-4.4634,3.8857,8.0204,-1.2568,-0.7298,-0.2626,1.4439,4.0225,2038,2019-08-07 16:24:47:477
-0.8429,-6.0961,2.019,8.0204,-1.2568,-0.7298,-0.2626,1.4439,4.0225,2043,2019-08-07 16:24:47:482
-0.8429,-6.0961,2.019,8.0204,-1.2568,-0.7298,-0.2487,1.1999,3.7146,2048,2019-08-07 16:24:47:487
-0.4314,-6.6498,1.4157,6.6779,-0.4645,1.1542,-0.2487,1.1999,3.7146,2053,2019-08-07 16:24:47:492
-0.4314,-6.6498,1.4157,6.6779,-0.4645,1.1542,-0.2487,1.1999,3.7146,2058,2019-08-07 16:24:47:497
-0.4314,-6.6498,1.4157,6.6779,-0.4645,1.1542,-0.2146,1.0583,3.46,2063,2019-08-07 16:24:47:502
0.6546,-6.8599,0.685,6.6779,-0.4645,1.1542,-0.2146,1.0583,3.46,2068,2019-08-07 16:24:47:507
0.6546,-6.8599,0.685,4.1438,-0.6516,2.704,-0.0708,1.1967,3.1426,2073,2019-08-07 16:24:47:512
1.7167,-6.9506,-0.0267,4.1438,-0.6516,2.704,-0.0708,1.1967,3.1426,2078,2019-08-07 16:24:47:517
1.7167,-6.9506,-0.0267,4.1438,-0.6516,2.704,0.0496,1.6868,2.7751,2083,2019-08-07 16:24:47:522
1.7167,-6.9506,-0.0267,4.1438,-0.6516,2.704,0.0496,1.6868,2.7751,2088,2019-08-07 16:24:47:527
1.267,-6.7405,-0.0267,4.0984,-1.2221,2.9607,0.0496,1.6868,2.7751,2092,2019-08-07 16:24:47:531
1.267,-6.7405,-0.0267,4.0984,-1.2221,2.9607,0.0964,2.1054,2.4875,2098,2019-08-07 16:24:47:537
1.267,-6.7405,-0.0267,4.0984,-1.2221,2.9607,0.0964,2.1054,2.4875,2103,2019-08-07 16:24:47:542
-0.5271,-6.2679,0.3268,4.0984,-1.2221,2.9607,0.0623,2.2929,2.1583,2108,2019-08-07 16:24:47:547
-0.5271,-6.2679,0.3268,4.0984,-1.2221,2.9607,0.0623,2.2929,2.1583,2113,2019-08-07 16:24:47:552
-0.5271,-6.2679,0.3268,5.7786,-1.8627,2.7035,0.0038,2.1715,1.8962,2118,2019-08-07 16:24:47:557
-1.7136,-6.3968,0.2891,5.7786,-1.8627,2.7035,0.0038,2.1715,1.8962,2123,2019-08-07 16:24:47:562
-1.7136,-6.3968,0.2891,5.7786,-1.8627,2.7035,-0.0602,1.9957,1.7024,2128,2019-08-07 16:24:47:567
-1.7997,-6.7262,0.3551,5.7716,-1.5081,2.6832,-0.0602,1.9957,1.7024,2133,2019-08-07 16:24:47:572
-1.7997,-6.7262,0.3551,5.7716,-1.5081,2.6832,-0.156,1.6111,1.3828,2138,2019-08-07 16:24:47:577
-1.7997,-6.7262,0.3551,5.7716,-1.5081,2.6832,-0.156,1.6111,1.3828,2143,2019-08-07 16:24:47:582
-1.1442,-6.9649,1.0291,5.7716,-1.5081,2.6832,-0.1251,1.299,1.1655,2148,2019-08-07 16:24:47:587
-1.1442,-6.9649,1.0291,5.7716,-1.5081,2.6832,-0.1251,1.299,1.1655,2153,2019-08-07 16:24:47:592
0.0423,-6.9554,1.2554,3.9698,-1.4898,2.052,-0.1251,1.299,1.1655,2158,2019-08-07 16:24:47:597
0.0423,-6.9554,1.2554,3.9698,-1.4898,2.052,0.0016,1.1882,0.929,2163,2019-08-07 16:24:47:602
0.0423,-6.6737,0.8972,3.9698,-1.4898,2.052,0.0016,1.1882,0.929,2168,2019-08-07 16:24:47:607
0.602,-6.6737,0.8972,3.9698,-1.4898,2.052,0.0517,1.2212,0.7106,2173,2019-08-07 16:24:47:612
0.602,-6.6737,0.8972,3.0391,-1.9393,2.4181,0.0517,1.2212,0.7106,2178,2019-08-07 16:24:47:617
0.181,-6.4302,1.3308,3.0391,-1.9393,2.4181,-0.0016,1.1595,0.5668,2183,2019-08-07 16:24:47:622
0.181,-6.4302,1.3308,3.0391,-1.9393,2.4181,-0.0016,1.1595,0.5668,2187,2019-08-07 16:24:47:626
0.181,-6.4302,1.3308,3.0391,-1.9393,2.4181,-0.0016,1.1595,0.5668,2193,2019-08-07 16:24:47:632
-0.1969,-6.5018,1.8871,3.5114,-2.0732,1.5363,-0.1049,0.7834,0.4454,2199,2019-08-07 16:24:47:638
-0.1969,-6.5018,1.8871,3.5114,-2.0732,1.5363,-0.1049,0.7834,0.4454,2203,2019-08-07 16:24:47:642
-0.1969,-6.5018,1.8871,3.5114,-2.0732,1.5363,-0.1049,0.7834,0.4454,2208,2019-08-07 16:24:47:647
-8.0E-4,-6.7405,2.3443,3.5114,-2.0732,1.5363,-0.1965,0.2497,0.3388,2213,2019-08-07 16:24:47:652
-8.0E-4,-6.7405,2.3443,2.6806,-1.7083,1.0293,-0.1965,0.2497,0.3388,2219,2019-08-07 16:24:47:658
1.2623,-6.9697,2.3679,2.6806,-1.7083,1.0293,-0.2658,-0.2797,0.2461,2222,2019-08-07 16:24:47:661
1.2623,-6.9697,2.3679,1.7265,-1.5565,1.2011,-0.2658,-0.2797,0.2461,2228,2019-08-07 16:24:47:667
1.2623,-6.9697,2.3679,1.7265,-1.5565,1.2011,-0.2977,-0.5162,0.2003,2233,2019-08-07 16:24:47:672
2.5731,-7.2131,1.7834,1.7265,-1.5565,1.2011,-0.2977,-0.5162,0.2003,2238,2019-08-07 16:24:47:677
2.5731,-7.2131,1.7834,1.7265,-1.5565,1.2011,-0.3542,-0.5364,0.1141,2242,2019-08-07 16:24:47:681
3.841,-7.533,1.5995,-0.4652,-1.1867,1.6602,-0.3542,-0.5364,0.1141,2249,2019-08-07 16:24:47:688
3.841,-7.533,1.5995,-0.4652,-1.1867,1.6602,-0.3318,-0.3255,1.0E-4,2252,2019-08-07 16:24:47:691
3.841,-7.533,1.5995,-0.4652,-1.1867,1.6602,-0.3318,-0.3255,1.0E-4,2258,2019-08-07 16:24:47:697
3.8792,-7.5759,1.6749,-0.4652,-1.1867,1.6602,-0.3318,-0.3255,1.0E-4,2263,2019-08-07 16:24:47:702
3.8792,-7.5759,1.6749,-0.363,-1.0801,1.594,-0.3062,-0.1178,-0.0553,2268,2019-08-07 16:24:47:707
3.8792,-7.5759,1.6749,-0.363,-1.0801,1.594,-0.3062,-0.1178,-0.0553,2273,2019-08-07 16:24:47:712
3.2238,-8.0104,1.8164,-0.363,-1.0801,1.594,-0.3233,0.1293,-0.0361,2278,2019-08-07 16:24:47:717
3.2238,-8.0104,1.8164,-0.363,-1.0801,1.594,-0.3233,0.1293,-0.0361,2284,2019-08-07 16:24:47:723
3.2238,-8.0104,1.8164,0.4416,-0.4215,0.6253,-0.302,0.14,-0.1203,2288,2019-08-07 16:24:47:727
2.4966,-8.3016,2.7968,0.4416,-0.4215,0.6253,-0.302,0.14,-0.1203,2293,2019-08-07 16:24:47:732
2.4966,-8.3016,2.7968,1.0256,-0.4898,0.1078,-0.27,-0.0038,-0.1576,2298,2019-08-07 16:24:47:737
2.4966,-8.3016,2.7968,1.0256,-0.4898,0.1078,-0.27,-0.0038,-0.1576,2303,2019-08-07 16:24:47:742
2.1952,-8.1918,3.2729,1.0256,-0.4898,0.1078,-0.27,-0.0038,-0.1576,2308,2019-08-07 16:24:47:747
2.1952,-8.1918,3.2729,1.0256,-0.4898,0.1078,-0.2327,-0.3649,-0.1618,2313,2019-08-07 16:24:47:752
2.1952,-8.1918,3.2729,0.4187,-0.6384,-0.024,-0.2327,-0.3649,-0.1618,2318,2019-08-07 16:24:47:757
3.286,-8.1154,2.8487,0.4187,-0.6384,-0.024,-0.2381,-0.6632,-0.165,2323,2019-08-07 16:24:47:762
3.286,-8.1154,2.8487,0.4187,-0.6384,-0.024,-0.2381,-0.6632,-0.165,2328,2019-08-07 16:24:47:767
3.286,-8.1154,2.8487,0.4187,-0.6384,-0.024,-0.2455,-0.7122,-0.2087,2333,2019-08-07 16:24:47:772
4.1807,-8.1631,2.7686,-0.9856,-0.5677,0.1843,-0.2455,-0.7122,-0.2087,2338,2019-08-07 16:24:47:777
4.1807,-8.1631,2.7686,-0.9856,-0.5677,0.1843,-0.2114,-0.6206,-0.2705,2343,2019-08-07 16:24:47:782
4.5108,-8.1727,2.7638,-1.1206,-0.554,0.1666,-0.2114,-0.6206,-0.2705,2348,2019-08-07 16:24:47:787
4.5108,-8.1727,2.7638,-1.1206,-0.554,0.1666,-0.2114,-0.6206,-0.2705,2353,2019-08-07 16:24:47:792
4.5108,-8.1727,2.7638,-1.1206,-0.554,0.1666,-0.1656,-0.431,-0.3195,2358,2019-08-07 16:24:47:797
4.396,-8.2634,2.6366,-1.1206,-0.554,0.1666,-0.1656,-0.431,-0.3195,2363,2019-08-07 16:24:47:802
4.396,-8.2634,2.6366,-0.7647,-0.3676,0.0732,-0.1699,-0.2776,-0.3206,2368,2019-08-07 16:24:47:807
4.2094,-8.4878,2.9194,-0.7647,-0.3676,0.0732,-0.1699,-0.2776,-0.3206,2373,2019-08-07 16:24:47:812
4.2094,-8.4878,2.9194,-0.7647,-0.3676,0.0732,-0.1795,-0.2158,-0.2971,2377,2019-08-07 16:24:47:816
4.2094,-8.4878,2.9194,-0.7647,-0.3676,0.0732,-0.1795,-0.2158,-0.2971,2383,2019-08-07 16:24:47:822
4.1424,-8.5212,3.5888,-0.5941,-0.2154,-0.8574,-0.1582,-0.2659,-0.2694,2387,2019-08-07 16:24:47:826
4.1424,-8.5212,3.5888,-0.5941,-0.2154,-0.8574,-0.1582,-0.2659,-0.2694,2393,2019-08-07 16:24:47:832
4.1568,-8.6357,3.683,-0.5941,-0.2154,-0.8574,-0.1369,-0.3479,-0.2513,2398,2019-08-07 16:24:47:837
4.1568,-8.6357,3.683,-0.5941,-0.2154,-0.8574,-0.1369,-0.3479,-0.2513,2403,2019-08-07 16:24:47:842
4.1568,-8.6357,3.683,-0.5941,-0.2154,-0.8574,-0.1369,-0.3479,-0.2513,2408,2019-08-07 16:24:47:847
4.219,-8.7217,3.5133,-0.6034,0.0363,-0.7334,-0.1401,-0.5194,-0.2023,2413,2019-08-07 16:24:47:852
4.219,-8.7217,3.5133,-0.6034,0.0363,-0.7334,-0.1401,-0.5194,-0.2023,2418,2019-08-07 16:24:47:857
4.5347,-8.8983,3.2258,-0.6034,0.0363,-0.7334,-0.1699,-0.6089,-0.1523,2423,2019-08-07 16:24:47:862
4.5347,-8.8983,3.2258,-1.0205,0.3051,-0.3679,-0.1699,-0.6089,-0.1523,2428,2019-08-07 16:24:47:867
4.5347,-8.8983,3.2258,-1.0205,0.3051,-0.3679,-0.1667,-0.6004,-0.1075,2433,2019-08-07 16:24:47:872
4.75,-9.0367,2.91,-1.0205,0.3051,-0.3679,-0.1667,-0.6004,-0.1075,2438,2019-08-07 16:24:47:877
4.75,-9.0367,2.91,-1.0205,0.3051,-0.3679,-0.1518,-0.5215,-0.0575,2443,2019-08-07 16:24:47:882
5.0036,-9.1752,2.7073,-1.2723,0.4958,-0.0648,-0.1518,-0.5215,-0.0575,2448,2019-08-07 16:24:47:887
5.0036,-9.1752,2.7073,-1.2723,0.4958,-0.0648,-0.1166,-0.3724,-0.017,2453,2019-08-07 16:24:47:892
5.0036,-9.1752,2.7073,-1.2723,0.4958,-0.0648,-0.1166,-0.3724,-0.017,2458,2019-08-07 16:24:47:897
5.0084,-9.1179,2.7073,-1.2615,0.4374,-0.0908,-0.0889,-0.2712,1.0E-4,2463,2019-08-07 16:24:47:902
5.0084,-9.1179,2.7073,-1.2615,0.4374,-0.0908,-0.0889,-0.2712,1.0E-4,2468,2019-08-07 16:24:47:907
4.927,-8.9126,2.811,-1.2615,0.4374,-0.0908,-0.0325,-0.17,0.0278,2473,2019-08-07 16:24:47:912
4.927,-8.9126,2.811,-1.2615,0.4374,-0.0908,-0.0325,-0.17,0.0278,2478,2019-08-07 16:24:47:917
4.927,-8.9126,2.811,-1.1449,0.1592,-0.1231,-0.0016,-0.1508,0.0374,2483,2019-08-07 16:24:47:922
4.8601,-8.736,2.5706,-1.1449,0.1592,-0.1231,-0.0016,-0.1508,0.0374,2488,2019-08-07 16:24:47:927
4.8601,-8.736,2.5706,-1.1449,0.1592,-0.1231,-0.0016,-0.1508,0.0374,2493,2019-08-07 16:24:47:932
4.8601,-8.736,2.5706,-1.1449,0.1592,-0.1231,0.0133,-0.1774,0.0608,2498,2019-08-07 16:24:47:937
4.8457,-8.545,2.7733,-1.0751,-0.1371,-0.1968,0.0133,-0.1774,0.0608,2502,2019-08-07 16:24:47:941
4.8457,-8.545,2.7733,-1.0751,-0.1371,-0.1968,0.0421,-0.2211,0.0959,2508,2019-08-07 16:24:47:947
4.9079,-8.4161,2.8393,-1.0751,-0.1371,-0.1968,0.0421,-0.2211,0.0959,2513,2019-08-07 16:24:47:952
4.9079,-8.4161,2.8393,-1.2653,-0.2489,-0.111,0.073,-0.2872,0.1354,2519,2019-08-07 16:24:47:958
4.9079,-8.4161,2.8393,-1.2653,-0.2489,-0.111,0.073,-0.2872,0.1354,2522,2019-08-07 16:24:47:961
5.1758,-8.3636,2.5706,-1.2653,-0.2489,-0.111,0.0741,-0.3308,0.1588,2528,2019-08-07 16:24:47:967
5.1758,-8.3636,2.5706,-1.2653,-0.2489,-0.111,0.0741,-0.3308,0.1588,2533,2019-08-07 16:24:47:972
5.1758,-8.3636,2.5706,-1.2653,-0.2489,-0.111,0.0751,-0.3159,0.1737,2538,2019-08-07 16:24:47:977
5.2333,-8.2109,2.4622,-1.463,-0.4776,0.0935,0.0751,-0.3159,0.1737,2543,2019-08-07 16:24:47:982
5.2333,-8.2109,2.4622,-1.463,-0.4776,0.0935,0.0783,-0.2786,0.1769,2548,2019-08-07 16:24:47:987
5.2189,-8.1918,2.349,-1.463,-0.4776,0.0935,0.0783,-0.2786,0.1769,2553,2019-08-07 16:24:47:992
5.2189,-8.1918,2.349,-1.463,-0.4776,0.0935,0.0837,-0.1529,0.1641,2558,2019-08-07 16:24:47:997
5.2189,-8.1918,2.349,-1.3265,-0.5014,0.1586,0.0837,-0.1529,0.1641,2563,2019-08-07 16:24:48:002
4.9462,-8.1249,2.4575,-1.3265,-0.5014,0.1586,0.0932,-0.0592,0.1386,2568,2019-08-07 16:24:48:007
4.9462,-8.1249,2.4575,-1.3265,-0.5014,0.1586,0.0932,-0.0592,0.1386,2573,2019-08-07 16:24:48:012
4.5635,-7.9483,2.7733,-1.3265,-0.5014,0.1586,0.1092,0.0132,0.1066,2578,2019-08-07 16:24:48:017
4.5635,-7.9483,2.7733,-0.7887,-0.7891,-0.313,0.1092,0.0132,0.1066,2583,2019-08-07 16:24:48:022
4.5635,-7.9483,2.7733,-0.7887,-0.7891,-0.313,0.1092,0.0132,0.1066,2588,2019-08-07 16:24:48:027
4.3147,-7.8194,2.8911,-0.7887,-0.7891,-0.313,0.1273,-0.0081,0.0597,2593,2019-08-07 16:24:48:032
4.3147,-7.8194,2.8911,-0.7887,-0.7891,-0.313,0.1273,-0.0081,0.0597,2598,2019-08-07 16:24:48:037
4.109,-7.5712,3.009,-0.3488,-1.0988,-0.3961,0.1092,-0.056,0.0288,2603,2019-08-07 16:24:48:042
4.109,-7.5712,3.009,-0.3488,-1.0988,-0.3961,0.1092,-0.056,0.0288,2608,2019-08-07 16:24:48:047
4.0372,-7.6332,2.9948,-0.3488,-1.0988,-0.3961,0.0687,-0.1668,0.0043,2614,2019-08-07 16:24:48:053
4.0372,-7.6332,2.9948,-0.3488,-1.0988,-0.3961,0.0687,-0.1668,0.0043,2618,2019-08-07 16:24:48:057
4.0372,-7.6332,2.9948,-0.3814,-0.9434,-0.5277,0.0687,-0.1668,0.0043,2623,2019-08-07 16:24:48:062
4.0372,-7.6332,2.9948,-0.3814,-0.9434,-0.5277,0.0208,-0.3085,-0.0298,2628,2019-08-07 16:24:48:067
4.2142,-7.8528,3.1551,-0.4548,-0.8108,-0.5386,0.0208,-0.3085,-0.0298,2633,2019-08-07 16:24:48:072
4.2142,-7.8528,3.1551,-0.4548,-0.8108,-0.5386,-0.009,-0.3948,-0.0415,2638,2019-08-07 16:24:48:077
4.5348,-8.0151,2.4527,-0.4548,-0.8108,-0.5386,-0.009,-0.3948,-0.0415,2643,2019-08-07 16:24:48:082
4.5348,-8.0151,2.4527,-0.4548,-0.8108,-0.5386,-0.0378,-0.4129,-0.0425,2649,2019-08-07 16:24:48:088
4.5348,-8.0151,2.4527,-1.0414,-0.3425,0.3134,-0.0378,-0.4129,-0.0425,2653,2019-08-07 16:24:48:092
4.9271,-8.3732,2.316,-1.0414,-0.3425,0.3134,-0.0378,-0.4129,-0.0425,2658,2019-08-07 16:24:48:097
4.9271,-8.3732,2.316,-1.0414,-0.3425,0.3134,-0.0378,-0.366,-0.0543,2663,2019-08-07 16:24:48:102
4.9413,-8.5212,2.448,-1.0414,-0.3425,0.3134,-0.0378,-0.366,-0.0543,2668,2019-08-07 16:24:48:107
4.9413,-8.5212,2.448,-1.1253,-0.1603,0.0338,-0.0037,-0.3063,-0.0468,2673,2019-08-07 16:24:48:112
4.9413,-8.5212,2.448,-1.1253,-0.1603,0.0338,-0.0037,-0.3063,-0.0468,2678,2019-08-07 16:24:48:117
4.9605,-8.3636,2.5706,-1.1253,-0.1603,0.0338,0.0283,-0.2808,-0.0425,2683,2019-08-07 16:24:48:122
4.9605,-8.3636,2.5706,-1.1253,-0.1603,0.0338,0.0283,-0.2808,-0.0425,2688,2019-08-07 16:24:48:127
5.0083,-8.2204,2.6931,-1.1384,-0.4382,-0.1856,0.0453,-0.2786,-0.0308,2693,2019-08-07 16:24:48:132
5.0083,-8.2204,2.6931,-1.1384,-0.4382,-0.1856,0.0453,-0.2786,-0.0308,2698,2019-08-07 16:24:48:137
5.0083,-8.2204,2.6931,-1.1384,-0.4382,-0.1856,0.0474,-0.2627,-0.0212,2703,2019-08-07 16:24:48:142
5.0897,-8.1536,2.7167,-1.1384,-0.4382,-0.1856,0.0474,-0.2627,-0.0212,2708,2019-08-07 16:24:48:147
5.0897,-8.1536,2.7167,-1.2607,-0.4585,-0.2581,0.041,-0.2616,-0.0148,2713,2019-08-07 16:24:48:152
5.1423,-8.2443,2.877,-1.2607,-0.4585,-0.2581,0.041,-0.2616,-0.0148,2718,2019-08-07 16:24:48:157
5.1423,-8.2443,2.877,-1.2607,-0.4585,-0.2581,0.041,-0.2616,-0.0148,2723,2019-08-07 16:24:48:162
5.1423,-8.2443,2.877,-1.2492,-0.3496,-0.3381,0.0485,-0.2137,-0.0095,2728,2019-08-07 16:24:48:167
5.1279,-8.23,2.8723,-1.2492,-0.3496,-0.3381,0.0485,-0.2137,-0.0095,2733,2019-08-07 16:24:48:172
5.1279,-8.23,2.8723,-1.2492,-0.3496,-0.3381,0.0474,-0.1593,0.0033,2737,2019-08-07 16:24:48:176
5.0035,-8.1631,2.976,-1.0779,-0.476,-0.4877,0.0474,-0.1593,0.0033,2743,2019-08-07 16:24:48:182
5.0035,-8.1631,2.976,-1.0779,-0.476,-0.4877,0.0432,-0.1444,0.0214,2748,2019-08-07 16:24:48:187
5.0035,-8.1631,2.976,-1.0779,-0.476,-0.4877,0.0432,-0.1444,0.0214,2753,2019-08-07 16:24:48:192
4.9796,-8.1631,2.8063,-1.0779,-0.476,-0.4877,0.0432,-0.1444,0.0214,2758,2019-08-07 16:24:48:197
4.9796,-8.1631,2.8063,-1.0779,-0.476,-0.4877,0.0229,-0.1711,0.0469,2763,2019-08-07 16:24:48:202
5.1327,-8.2538,2.7874,-1.0769,-0.3721,-0.2799,0.0229,-0.1711,0.0469,2768,2019-08-07 16:24:48:207
5.1327,-8.2538,2.7874,-1.0769,-0.3721,-0.2799,0.0059,-0.1711,0.0683,2773,2019-08-07 16:24:48:212
5.1327,-8.2538,2.7874,-1.0769,-0.3721,-0.2799,0.0059,-0.1711,0.0683,2778,2019-08-07 16:24:48:217
5.0897,-8.3254,2.844,-1.043,-0.2485,-0.2379,0.0155,-0.1455,0.0661,2783,2019-08-07 16:24:48:222
5.0897,-8.3254,2.844,-1.043,-0.2485,-0.2379,0.0155,-0.1455,0.0661,2788,2019-08-07 16:24:48:227
4.9222,-8.3732,2.6413,-1.043,-0.2485,-0.2379,0.024,-0.1082,0.0661,2793,2019-08-07 16:24:48:232
4.9222,-8.3732,2.6413,-0.9608,-0.3157,-0.1793,0.024,-0.1082,0.0661,2799,2019-08-07 16:24:48:238
4.9222,-8.3732,2.6413,-0.9608,-0.3157,-0.1793,0.0283,-0.0965,0.0501,2803,2019-08-07 16:24:48:242
4.6782,-8.2443,2.7214,-0.9608,-0.3157,-0.1793,0.0283,-0.0965,0.0501,2808,2019-08-07 16:24:48:247
4.6782,-8.2443,2.7214,-0.7054,-0.4442,-0.2562,0.0325,-0.1157,0.0427,2813,2019-08-07 16:24:48:252
4.6782,-8.2443,2.7214,-0.7054,-0.4442,-0.2562,0.0325,-0.1157,0.0427,2817,2019-08-07 16:24:48:256
4.75,-8.1965,2.6083,-0.7054,-0.4442,-0.2562,0.0325,-0.1157,0.0427,2823,2019-08-07 16:24:48:262
4.75,-8.1965,2.6083,-0.9127,-0.5052,-0.0456,0.0283,-0.1221,0.0246,2828,2019-08-07 16:24:48:267
4.9605,-8.082,2.4669,-0.9127,-0.5052,-0.0456,0.0283,-0.1221,0.0246,2833,2019-08-07 16:24:48:272
4.9605,-8.082,2.4669,-0.9127,-0.5052,-0.0456,0.0336,-0.0922,-0.0031,2837,2019-08-07 16:24:48:276
4.9605,-8.082,2.4669,-0.9127,-0.5052,-0.0456,0.0336,-0.0922,-0.0031,2843,2019-08-07 16:24:48:282
5.1567,-8.0199,2.4622,-1.1962,-0.6098,0.0035,0.0474,-0.0336,-0.0255,2849,2019-08-07 16:24:48:288
5.1567,-8.0199,2.4622,-1.1962,-0.6098,0.0035,0.0474,-0.0336,-0.0255,2853,2019-08-07 16:24:48:292
4.9749,-7.9435,2.448,-1.1962,-0.6098,0.0035,0.0474,-0.0336,-0.0255,2858,2019-08-07 16:24:48:297
4.9749,-7.9435,2.448,-1.1962,-0.6098,0.0035,0.0613,0.0058,-0.0308,2864,2019-08-07 16:24:48:303
4.9749,-7.9435,2.448,-0.9327,-0.7677,0.0403,0.0613,0.0058,-0.0308,2868,2019-08-07 16:24:48:307
4.884,-7.8433,2.4433,-0.9327,-0.7677,0.0403,0.0677,-0.0038,-0.0319,2873,2019-08-07 16:24:48:312
4.884,-7.8433,2.4433,-0.9327,-0.7677,0.0403,0.0677,-0.0038,-0.0319,2878,2019-08-07 16:24:48:317
4.6591,-7.8099,2.5423,-0.6314,-0.7483,-0.0193,0.0666,-0.04,-0.034,2884,2019-08-07 16:24:48:323
4.6591,-7.8099,2.5423,-0.6314,-0.7483,-0.0193,0.0666,-0.04,-0.034,2888,2019-08-07 16:24:48:327
4.6591,-7.8099,2.5423,-0.6314,-0.7483,-0.0193,0.0485,-0.1157,-0.0308,2893,2019-08-07 16:24:48:332
4.5969,-7.9101,2.4574,-0.599,-0.6963,0.0291,0.0485,-0.1157,-0.0308,2898,2019-08-07 16:24:48:337
4.5969,-7.9101,2.4574,-0.599,-0.6963,0.0291,0.0485,-0.1157,-0.0308,2903,2019-08-07 16:24:48:342
4.5969,-7.9101,2.4574,-0.599,-0.6963,0.0291,0.0261,-0.187,-0.0372,2908,2019-08-07 16:24:48:347
4.7213,-8.0008,2.481,-0.599,-0.6963,0.0291,0.0261,-0.187,-0.0372,2913,2019-08-07 16:24:48:352
4.7213,-8.0008,2.481,-0.7975,-0.5933,-0.0082,0.0123,-0.2094,-0.0415,2918,2019-08-07 16:24:48:357
4.7213,-8.0008,2.481,-0.7975,-0.5933,-0.0082,0.0123,-0.2094,-0.0415,2923,2019-08-07 16:24:48:362
4.9797,-7.8815,2.4574,-0.7975,-0.5933,-0.0082,0.0165,-0.1828,-0.0564,2927,2019-08-07 16:24:48:366
4.9797,-7.8815,2.4574,-0.7975,-0.5933,-0.0082,0.0165,-0.1828,-0.0564,2933,2019-08-07 16:24:48:372
5.1375,-7.6858,2.3585,-1.0713,-0.8848,0.1536,0.0176,-0.1327,-0.0638,2938,2019-08-07 16:24:48:377
5.1375,-7.6858,2.3585,-1.0713,-0.8848,0.1536,0.0176,-0.1327,-0.0638,2943,2019-08-07 16:24:48:382
5.1375,-7.6858,2.3585,-1.1107,-0.8793,0.0328,0.0091,-0.0731,-0.066,2948,2019-08-07 16:24:48:387
5.1328,-7.7383,2.4433,-1.1107,-0.8793,0.0328,0.0091,-0.0731,-0.066,2953,2019-08-07 16:24:48:392
5.1328,-7.7383,2.4433,-1.1107,-0.8793,0.0328,0.0091,-0.0731,-0.066,2958,2019-08-07 16:24:48:397
5.1328,-7.7383,2.4433,-1.1107,-0.8793,0.0328,-0.0133,-0.0517,-0.0702,2963,2019-08-07 16:24:48:402
4.8935,-7.6571,2.5329,-0.7659,-0.9265,-0.1134,-0.0133,-0.0517,-0.0702,2968,2019-08-07 16:24:48:407
4.8935,-7.6571,2.5329,-0.7659,-0.9265,-0.1134,-0.025,-0.1018,-0.0734,2973,2019-08-07 16:24:48:412
4.75,-7.6858,2.613,-0.7659,-0.9265,-0.1134,-0.025,-0.1018,-0.0734,2978,2019-08-07 16:24:48:417
4.75,-7.6858,2.613,-0.7659,-0.9265,-0.1134,-0.0357,-0.1604,-0.067,2983,2019-08-07 16:24:48:422
4.75,-7.6858,2.613,-0.6735,-0.7319,-0.1925,-0.0357,-0.1604,-0.067,2988,2019-08-07 16:24:48:427
4.8696,-7.786,2.6413,-0.6735,-0.7319,-0.1925,-0.0442,-0.219,-0.0649,2993,2019-08-07 16:24:48:432
4.8696,-7.786,2.6413,-0.7596,-0.7235,-0.0674,-0.0442,-0.219,-0.0649,2998,2019-08-07 16:24:48:437
4.8696,-7.786,2.6413,-0.7596,-0.7235,-0.0674,-0.041,-0.2659,-0.0692,3003,2019-08-07 16:24:48:442
4.9845,-7.8672,2.5187,-0.7596,-0.7235,-0.0674,-0.041,-0.2659,-0.0692,3009,2019-08-07 16:24:48:448
4.9845,-7.8672,2.5187,-0.7596,-0.7235,-0.0674,-0.0442,-0.2797,-0.0713,3013,2019-08-07 16:24:48:452
4.9845,-7.8672,2.5187,-0.7596,-0.7235,-0.0674,-0.0442,-0.2797,-0.0713,3018,2019-08-07 16:24:48:457
5.2524,-7.9149,2.4292,-1.0949,-0.6393,-0.0258,-0.0442,-0.2797,-0.0713,3023,2019-08-07 16:24:48:462
5.2524,-7.9149,2.4292,-1.0949,-0.6393,-0.0258,-0.0389,-0.2371,-0.0724,3028,2019-08-07 16:24:48:467
5.2524,-7.9149,2.4292,-1.0949,-0.6393,-0.0258,-0.0389,-0.2371,-0.0724,3033,2019-08-07 16:24:48:472
5.5825,-8.0247,2.3962,-1.3912,-0.5204,-0.0191,-0.0389,-0.2371,-0.0724,3038,2019-08-07 16:24:48:477
5.5825,-8.0247,2.3962,-1.3912,-0.5204,-0.0191,-0.0229,-0.1466,-0.0756,3043,2019-08-07 16:24:48:482
5.5825,-8.0247,2.3962,-1.3912,-0.5204,-0.0191,-0.0229,-0.1466,-0.0756,3048,2019-08-07 16:24:48:487
5.3576,-8.1058,2.382,-1.3912,-0.5204,-0.0191,-0.0186,-0.0688,-0.0724,3052,2019-08-07 16:24:48:491
5.3576,-8.1058,2.382,-0.9491,-0.3725,-0.0688,-0.0186,-0.0688,-0.0724,3058,2019-08-07 16:24:48:497
5.1089,-8.1918,2.5753,-0.9491,-0.3725,-0.0688,-0.0133,-0.0102,-0.0628,3062,2019-08-07 16:24:48:501
5.1089,-8.1918,2.5753,-0.9491,-0.3725,-0.0688,-0.0133,-0.0102,-0.0628,3068,2019-08-07 16:24:48:507
5.1089,-8.1918,2.5753,-0.9491,-0.3725,-0.0688,-0.009,-0.0091,-0.067,3073,2019-08-07 16:24:48:512
4.8792,-8.2252,2.679,-0.5736,-0.331,-0.3333,-0.009,-0.0091,-0.067,3078,2019-08-07 16:24:48:517
4.8792,-8.2252,2.679,-0.5736,-0.331,-0.3333,-0.009,-0.0528,-0.0649,3083,2019-08-07 16:24:48:522
4.8266,-8.2252,2.547,-0.5736,-0.331,-0.3333,-0.009,-0.0528,-0.0649,3087,2019-08-07 16:24:48:526
4.8266,-8.2252,2.547,-0.5736,-0.331,-0.3333,-0.0154,-0.089,-0.0628,3093,2019-08-07 16:24:48:532
4.8266,-8.2252,2.547,-0.5888,-0.2854,-0.2215,-0.0154,-0.089,-0.0628,3098,2019-08-07 16:24:48:537
4.8984,-8.2634,2.58,-0.5888,-0.2854,-0.2215,-0.0154,-0.089,-0.0628,3103,2019-08-07 16:24:48:542
4.8984,-8.2634,2.58,-0.5888,-0.2854,-0.2215,-0.0143,-0.1583,-0.0596,3107,2019-08-07 16:24:48:546
5.0945,-8.1775,2.5894,-0.5888,-0.2854,-0.2215,-0.0143,-0.1583,-0.0596,3113,2019-08-07 16:24:48:552
5.0945,-8.1775,2.5894,-0.9382,-0.3063,-0.1187,-0.0143,-0.1913,-0.0606,3118,2019-08-07 16:24:48:557
5.0945,-8.1775,2.5894,-0.9382,-0.3063,-0.1187,-0.0143,-0.1913,-0.0606,3123,2019-08-07 16:24:48:562
5.3337,-8.1297,2.4763,-0.9382,-0.3063,-0.1187,-0.009,-0.1764,-0.0543,3128,2019-08-07 16:24:48:567
5.3337,-8.1297,2.4763,-0.9382,-0.3063,-0.1187,-0.009,-0.1764,-0.0543,3132,2019-08-07 16:24:48:571
5.4725,-8.1297,2.3962,-1.1711,-0.3745,-0.0696,-0.0293,-0.1263,-0.05,3138,2019-08-07 16:24:48:577
5.4725,-8.1297,2.3962,-1.1711,-0.3745,-0.0696,-0.0293,-0.1263,-0.05,3143,2019-08-07 16:24:48:582
5.4725,-8.1297,2.3962,-1.1711,-0.3745,-0.0696,-0.0495,-0.0922,-0.0489,3148,2019-08-07 16:24:48:587
5.4438,-8.1822,2.3726,-1.1711,-0.3745,-0.0696,-0.0495,-0.0922,-0.0489,3153,2019-08-07 16:24:48:592
5.4438,-8.1822,2.3726,-1.035,-0.244,-0.1849,-0.0644,-0.0528,-0.0489,3158,2019-08-07 16:24:48:597
5.2811,-8.292,2.5093,-1.035,-0.244,-0.1849,-0.0644,-0.0528,-0.0489,3163,2019-08-07 16:24:48:602
5.2811,-8.292,2.5093,-1.035,-0.244,-0.1849,-0.0634,-0.0209,-0.0457,3168,2019-08-07 16:24:48:607
5.2811,-8.292,2.5093,-1.035,-0.244,-0.1849,-0.0634,-0.0209,-0.0457,3172,2019-08-07 16:24:48:611
5.0515,-8.2873,2.5564,-0.6758,-0.1681,-0.2155,-0.0506,-0.0198,-0.0404,3178,2019-08-07 16:24:48:617
5.0515,-8.2873,2.5564,-0.6758,-0.1681,-0.2155,-0.0506,-0.0198,-0.0404,3183,2019-08-07 16:24:48:622
4.9749,-8.3207,2.5894,-0.6758,-0.1681,-0.2155,-0.0506,-0.0198,-0.0404,3188,2019-08-07 16:24:48:627
4.9749,-8.3207,2.5894,-0.6758,-0.1681,-0.2155,-0.0431,-0.0368,-0.0425,3192,2019-08-07 16:24:48:631
4.9749,-8.3207,2.5894,-0.6437,-0.3167,-0.3047,-0.0431,-0.0368,-0.0425,3198,2019-08-07 16:24:48:637
5.0276,-8.1488,2.6602,-0.6437,-0.3167,-0.3047,-0.0346,-0.0635,-0.0383,3203,2019-08-07 16:24:48:642
5.0276,-8.1488,2.6602,-0.6437,-0.3167,-0.3047,-0.0346,-0.0635,-0.0383,3208,2019-08-07 16:24:48:647
5.1328,-8.0677,2.5282,-0.6437,-0.3167,-0.3047,-0.0122,-0.088,-0.0287,3213,2019-08-07 16:24:48:652
5.1328,-8.0677,2.5282,-0.9206,-0.4735,-0.1717,-0.0122,-0.088,-0.0287,3218,2019-08-07 16:24:48:657
5.1328,-8.0677,2.5282,-0.9206,-0.4735,-0.1717,-0.0122,-0.088,-0.0287,3223,2019-08-07 16:24:48:662
5.2763,-7.9435,2.4669,-0.9206,-0.4735,-0.1717,-0.0037,-0.1071,-0.0148,3228,2019-08-07 16:24:48:667
5.2763,-7.9435,2.4669,-0.9206,-0.4735,-0.1717,-0.0037,-0.1071,-0.0148,3233,2019-08-07 16:24:48:672
5.2763,-7.9435,2.4669,-0.9206,-0.4735,-0.1717,-0.0069,-0.088,0.0033,3238,2019-08-07 16:24:48:677
5.4199,-7.8815,2.2501,-1.0402,-0.5975,0.0218,-0.0069,-0.088,0.0033,3243,2019-08-07 16:24:48:682
5.4199,-7.8815,2.2501,-1.0402,-0.5975,0.0218,0.0016,-0.0752,-0.018,3248,2019-08-07 16:24:48:687
5.616,-7.9483,2.2265,-1.0402,-0.5975,0.0218,0.0016,-0.0752,-0.018,3252,2019-08-07 16:24:48:691
5.616,-7.9483,2.2265,-1.0402,-0.5975,0.0218,-0.0207,-0.1071,-0.0713,3258,2019-08-07 16:24:48:697
5.616,-7.9483,2.2265,-0.6918,-0.4949,0.2441,-0.0207,-0.1071,-0.0713,3264,2019-08-07 16:24:48:703
4.9462,-8.0008,2.283,-0.6918,-0.4949,0.2441,-0.0207,-0.1071,-0.0713,3268,2019-08-07 16:24:48:707
4.9462,-8.0008,2.283,-0.6918,-0.4949,0.2441,-0.057,-0.1316,-0.0031,3273,2019-08-07 16:24:48:712
5.3577,-8.2968,2.4386,-0.6918,-0.4949,0.2441,-0.057,-0.1316,-0.0031,3278,2019-08-07 16:24:48:717
5.3577,-8.2968,2.4386,-1.0556,-0.1583,-0.1139,-0.0154,-0.1253,0.0193,3283,2019-08-07 16:24:48:722
5.3577,-8.2968,2.4386,-1.0556,-0.1583,-0.1139,-0.0154,-0.1253,0.0193,3288,2019-08-07 16:24:48:727
5.4534,-8.1822,2.0851,-1.0556,-0.1583,-0.1139,0.0272,-0.0762,0.0224,3293,2019-08-07 16:24:48:732
5.4534,-8.1822,2.0851,-1.0556,-0.1583,-0.1139,0.0272,-0.0762,0.0224,3298,2019-08-07 16:24:48:737
5.4534,-8.1822,2.0851,-0.9818,-0.4616,0.0743,0.041,0.0228,0.0448,3303,2019-08-07 16:24:48:742
5.3768,-7.977,2.1322,-0.9818,-0.4616,0.0743,0.041,0.0228,0.0448,3308,2019-08-07 16:24:48:747
5.3768,-7.977,2.1322,-0.9818,-0.4616,0.0743,0.0229,0.0899,0.0374,3313,2019-08-07 16:24:48:752
5.1902,-7.977,2.2029,-0.9818,-0.4616,0.0743,0.0229,0.0899,0.0374,3319,2019-08-07 16:24:48:758
5.1902,-7.977,2.2029,-0.697,-0.4793,0.0135,-0.0016,0.1166,0.0075,3323,2019-08-07 16:24:48:762
5.1902,-7.977,2.2029,-0.697,-0.4793,0.0135,-0.0016,0.1166,0.0075,3328,2019-08-07 16:24:48:767
4.8027,-8.0724,2.3773,-0.697,-0.4793,0.0135,-0.0069,0.1059,-0.0021,3332,2019-08-07 16:24:48:771
4.8027,-8.0724,2.3773,-0.697,-0.4793,0.0135,-0.0069,0.1059,-0.0021,3338,2019-08-07 16:24:48:777
4.8027,-8.0724,2.3773,-0.3061,-0.3768,-0.3479,-0.0069,0.1059,-0.0021,3342,2019-08-07 16:24:48:781
4.7166,-8.1011,2.5659,-0.3061,-0.3768,-0.3479,-0.0026,0.0473,-0.0266,3348,2019-08-07 16:24:48:787
4.7166,-8.1011,2.5659,-0.3061,-0.3768,-0.3479,-0.0026,0.0473,-0.0266,3353,2019-08-07 16:24:48:792
4.6544,-7.9674,2.4763,-0.3061,-0.3768,-0.3479,-0.0175,-0.0741,-0.0511,3358,2019-08-07 16:24:48:797
4.6544,-7.9674,2.4763,-0.4101,-0.6243,-0.1738,-0.0175,-0.0741,-0.0511,3362,2019-08-07 16:24:48:801
5.0611,-7.8385,2.3726,-0.4101,-0.6243,-0.1738,-0.0399,-0.1402,-0.0564,3368,2019-08-07 16:24:48:807
5.0611,-7.8385,2.3726,-0.4101,-0.6243,-0.1738,-0.0399,-0.1402,-0.0564,3372,2019-08-07 16:24:48:811
5.0611,-7.8385,2.3726,-0.4101,-0.6243,-0.1738,-0.057,-0.17,-0.0606,3377,2019-08-07 16:24:48:816
5.3912,-7.9435,2.3066,-0.9421,-0.5078,-0.0669,-0.057,-0.17,-0.0606,3383,2019-08-07 16:24:48:822
5.3912,-7.9435,2.3066,-0.9421,-0.5078,-0.0669,-0.0538,-0.1785,-0.0574,3388,2019-08-07 16:24:48:827
5.3912,-7.9435,2.3066,-0.9421,-0.5078,-0.0669,-0.0538,-0.1785,-0.0574,3393,2019-08-07 16:24:48:832
5.5251,-7.9292,2.1841,-0.9421,-0.5078,-0.0669,-0.0452,-0.1476,-0.0457,3397,2019-08-07 16:24:48:836
5.5251,-7.9292,2.1841,-0.9893,-0.482,0.0555,-0.0452,-0.1476,-0.0457,3403,2019-08-07 16:24:48:842
5.4582,-7.9817,2.1558,-0.9893,-0.482,0.0555,-0.0452,-0.1476,-0.0457,3408,2019-08-07 16:24:48:847
5.4582,-7.9817,2.1558,-0.9893,-0.482,0.0555,-0.0431,-0.1029,-0.0372,3414,2019-08-07 16:24:48:853
5.4582,-7.9817,2.1558,-0.9893,-0.482,0.0555,-0.0431,-0.1029,-0.0372,3417,2019-08-07 16:24:48:856
5.4917,-7.9626,2.0898,-1.0375,-0.5386,0.1514,-0.042,-0.0741,-0.034,3423,2019-08-07 16:24:48:862
5.4917,-7.9626,2.0898,-1.0375,-0.5386,0.1514,-0.042,-0.0741,-0.034,3428,2019-08-07 16:24:48:867
5.5921,-8.0104,2.0427,-1.0375,-0.5386,0.1514,-0.0346,-0.023,-0.0329,3433,2019-08-07 16:24:48:872
5.5921,-8.0104,2.0427,-1.0375,-0.5386,0.1514,-0.0346,-0.023,-0.0329,3437,2019-08-07 16:24:48:876
5.6352,-8.1059,2.0191,-1.1276,-0.3278,0.1698,-0.0197,0.0505,-0.0383,3443,2019-08-07 16:24:48:882
5.6352,-8.1059,2.0191,-1.1276,-0.3278,0.1698,-0.0197,0.0505,-0.0383,3447,2019-08-07 16:24:48:886
5.6352,-8.1059,2.0191,-1.1276,-0.3278,0.1698,-0.0197,0.0505,-0.0383,3453,2019-08-07 16:24:48:892
5.396,-8.0152,2.1746,-1.1276,-0.3278,0.1698,-0.0058,0.124,-0.0606,3458,2019-08-07 16:24:48:897
5.396,-8.0152,2.1746,-0.7191,-0.506,-0.0352,-0.0058,0.124,-0.0606,3463,2019-08-07 16:24:48:902
5.1089,-7.9435,2.3113,-0.7191,-0.506,-0.0352,-0.0026,0.1379,-0.0521,3468,2019-08-07 16:24:48:907
5.1089,-7.9435,2.3113,-0.7191,-0.506,-0.0352,-0.0175,0.1176,-0.0447,3474,2019-08-07 16:24:48:913
5.1089,-7.9435,2.3113,-0.7191,-0.506,-0.0352,-0.0175,0.1176,-0.0447,3477,2019-08-07 16:24:48:916
5.0515,-7.9245,2.4056,-0.5248,-0.4564,-0.1859,-0.0175,0.1176,-0.0447,3483,2019-08-07 16:24:48:922
5.0515,-7.9245,2.4056,-0.5248,-0.4564,-0.1859,-0.0484,0.0633,-0.0447,3488,2019-08-07 16:24:48:927
5.1137,-7.9101,2.4103,-0.5248,-0.4564,-0.1859,-0.0484,0.0633,-0.0447,3493,2019-08-07 16:24:48:932
5.1137,-7.9101,2.4103,-0.5248,-0.4564,-0.1859,-0.0687,0.01,-0.0521,3497,2019-08-07 16:24:48:936
5.1137,-7.9101,2.4103,-0.6898,-0.5899,-0.0644,-0.0687,0.01,-0.0521,3502,2019-08-07 16:24:48:941
5.2333,-7.8719,2.2218,-0.6898,-0.5899,-0.0644,-0.0836,-0.0422,-0.0447,3508,2019-08-07 16:24:48:947
5.2333,-7.8719,2.2218,-0.6898,-0.5899,-0.0644,-0.0836,-0.0422,-0.0447,3513,2019-08-07 16:24:48:952
5.4582,-7.977,2.1181,-0.6898,-0.5899,-0.0644,-0.0836,-0.0187,-0.0383,3517,2019-08-07 16:24:48:956
5.4582,-7.977,2.1181,-0.6898,-0.5899,-0.0644,-0.0836,-0.0187,-0.0383,3523,2019-08-07 16:24:48:962
5.4582,-7.977,2.1181,-0.9091,-0.4859,0.0978,-0.0751,-0.0049,-0.0393,3529,2019-08-07 16:24:48:968
5.4821,-7.9292,2.0615,-0.9091,-0.4859,0.0978,-0.0751,-0.0049,-0.0393,3532,2019-08-07 16:24:48:971
5.4821,-7.9292,2.0615,-0.9091,-0.4859,0.0978,-0.058,0.009,-0.0415,3538,2019-08-07 16:24:48:977
5.4821,-7.9292,2.0615,-0.9091,-0.4859,0.0978,-0.058,0.009,-0.0415,3543,2019-08-07 16:24:48:982
5.4295,-7.786,2.0615,-0.8618,-0.62,0.1092,-0.0474,0.0143,-0.017,3547,2019-08-07 16:24:48:986
5.4295,-7.786,2.0615,-0.8618,-0.62,0.1092,-0.0474,0.0143,-0.017,3553,2019-08-07 16:24:48:992
5.5395,-7.9435,2.0144,-0.8618,-0.62,0.1092,-0.0463,0.0377,-0.0042,3558,2019-08-07 16:24:48:997
5.5395,-7.9435,2.0144,-0.8618,-0.62,0.1092,-0.0463,0.0377,-0.0042,3563,2019-08-07 16:24:49:002
5.5395,-7.9435,2.0144,-0.969,-0.3214,0.018,-0.0399,0.0633,-0.0074,3568,2019-08-07 16:24:49:007
5.4965,-8.0343,2.2171,-0.969,-0.3214,0.018,-0.0399,0.0633,-0.0074,3573,2019-08-07 16:24:49:012
5.4965,-8.0343,2.2171,-0.969,-0.3214,0.018,-0.0399,0.0633,-0.0074,3578,2019-08-07 16:24:49:017
5.4965,-8.0343,2.2171,-0.969,-0.3214,0.018,-0.0165,0.0708,-0.0053,3582,2019-08-07 16:24:49:021
5.396,-7.9101,2.1935,-0.8155,-0.4903,-0.0284,-0.0165,0.0708,-0.0053,3588,2019-08-07 16:24:49:027
5.396,-7.9101,2.1935,-0.8155,-0.4903,-0.0284,-0.0165,0.0771,0.0043,3593,2019-08-07 16:24:49:032
5.2525,-7.7956,2.1039,-0.8155,-0.4903,-0.0284,-0.0165,0.0771,0.0043,3598,2019-08-07 16:24:49:037
5.2525,-7.7956,2.1039,-0.6268,-0.4884,0.036,-0.0506,0.059,0.0182,3603,2019-08-07 16:24:49:042
5.2046,-7.9101,2.1228,-0.6268,-0.4884,0.036,-0.0506,0.059,0.0182,3608,2019-08-07 16:24:49:047
5.2046,-7.9101,2.1228,-0.6268,-0.4884,0.036,-0.0687,0.0558,0.0193,3614,2019-08-07 16:24:49:053
5.2046,-7.9101,2.1228,-0.6268,-0.4884,0.036,-0.0687,0.0558,0.0193,3618,2019-08-07 16:24:49:057
5.1664,-8.0772,2.2359,-0.6268,-0.4884,0.036,-0.0687,0.0558,0.0193,3623,2019-08-07 16:24:49:062
5.1664,-8.0772,2.2359,-0.4788,-0.2417,-0.0356,-0.0708,0.0431,-0.0031,3628,2019-08-07 16:24:49:067
5.042,-8.1775,2.1511,-0.4788,-0.2417,-0.0356,-0.0708,0.0431,-0.0031,3633,2019-08-07 16:24:49:072
5.042,-8.1775,2.1511,-0.4788,-0.2417,-0.0356,-0.0676,0.0132,-0.0148,3637,2019-08-07 16:24:49:076
5.042,-8.1775,2.1511,-0.4788,-0.2417,-0.0356,-0.0676,0.0132,-0.0148,3643,2019-08-07 16:24:49:082
5.0707,-8.0677,2.2359,-0.4835,-0.3321,-0.0826,-0.0538,-0.0102,-0.0138,3648,2019-08-07 16:24:49:087
5.0707,-8.0677,2.2359,-0.4835,-0.3321,-0.0826,-0.0538,-0.0102,-0.0138,3653,2019-08-07 16:24:49:092
5.0994,-8.0438,2.0521,-0.4835,-0.3321,-0.0826,-0.041,-0.0145,-0.0063,3658,2019-08-07 16:24:49:097
5.0994,-8.0438,2.0521,-0.4835,-0.3321,-0.0826,-0.041,-0.0145,-0.0063,3663,2019-08-07 16:24:49:102
5.0994,-8.0438,2.0521,-0.5718,-0.3833,0.0398,-0.0442,-0.0241,-0.0074,3668,2019-08-07 16:24:49:107
5.1612,-8.0485,2.151,-0.5718,-0.3833,0.0398,-0.0442,-0.0241,-0.0074,3673,2019-08-07 16:24:49:112
5.1612,-8.0485,2.151,-0.5718,-0.3833,0.0398,-0.0442,-0.0241,-0.0074,3677,2019-08-07 16:24:49:116
5.2808,-8.0485,2.052,-0.5718,-0.3833,0.0398,-0.0388,-0.0464,0.0033,3683,2019-08-07 16:24:49:122
5.2808,-8.0485,2.052,-0.7084,-0.3727,0.0434,-0.0388,-0.0464,0.0033,3687,2019-08-07 16:24:49:126
5.2808,-8.0485,2.052,-0.7084,-0.3727,0.0434,-0.0357,-0.0283,0.0022,3693,2019-08-07 16:24:49:132
5.2139,-7.9626,2.0756,-0.7084,-0.3727,0.0434,-0.0357,-0.0283,0.0022,3698,2019-08-07 16:24:49:137
5.2139,-7.9626,2.0756,-0.7084,-0.3727,0.0434,-0.0495,-0.0475,0.0065,3703,2019-08-07 16:24:49:142
5.276,-7.9674,2.0897,-0.6541,-0.4196,0.0797,-0.0495,-0.0475,0.0065,3709,2019-08-07 16:24:49:148
5.276,-7.9674,2.0897,-0.6541,-0.4196,0.0797,-0.057,-0.056,0.0161,3713,2019-08-07 16:24:49:152
5.276,-7.9674,2.0897,-0.6541,-0.4196,0.0797,-0.057,-0.056,0.0161,3718,2019-08-07 16:24:49:157
5.2856,-8.0772,1.8022,-0.6541,-0.4196,0.0797,-0.074,-0.1039,0.0203,3723,2019-08-07 16:24:49:162
5.2856,-8.0772,1.8022,-0.3614,-0.3355,0.3242,-0.074,-0.1039,0.0203,3728,2019-08-07 16:24:49:167
5.1612,-8.0915,2.4951,-0.3614,-0.3355,0.3242,-0.1113,-0.1189,0.0278,3733,2019-08-07 16:24:49:172
5.1612,-8.0915,2.4951,-0.3614,-0.3355,0.3242,-0.1113,-0.1189,0.0278,3738,2019-08-07 16:24:49:177
5.1612,-8.0915,2.4951,-0.3614,-0.3355,0.3242,-0.0474,-0.1615,0.0384,3742,2019-08-07 16:24:49:181
5.4626,-8.2538,1.788,-0.8441,-0.1485,0.2871,-0.0474,-0.1615,0.0384,3748,2019-08-07 16:24:49:187
5.4626,-8.2538,1.788,-0.8441,-0.1485,0.2871,-0.0165,-0.1135,0.0438,3752,2019-08-07 16:24:49:191
5.6109,-8.1822,1.8493,-0.9903,-0.2211,0.2171,-0.0165,-0.1135,0.0438,3758,2019-08-07 16:24:49:197
5.6109,-8.1822,1.8493,-0.9903,-0.2211,0.2171,0.0197,0.0015,0.0512,3763,2019-08-07 16:24:49:202
5.6109,-8.1822,1.8493,-0.9903,-0.2211,0.2171,0.0197,0.0015,0.0512,3769,2019-08-07 16:24:49:208
5.8023,-8.0676,1.9813,-0.9903,-0.2211,0.2171,0.041,0.0803,0.0427,3773,2019-08-07 16:24:49:212
5.8023,-8.0676,1.9813,-1.1541,-0.3493,0.2132,0.041,0.0803,0.0427,3778,2019-08-07 16:24:49:217
5.8023,-8.0676,1.9813,-1.1541,-0.3493,0.2132,0.0357,0.1528,0.0192,3782,2019-08-07 16:24:49:221
5.544,-8.0342,1.9012,-1.1541,-0.3493,0.2132,0.0357,0.1528,0.0192,3788,2019-08-07 16:24:49:227
5.544,-8.0342,1.9012,-1.1541,-0.3493,0.2132,-0.008,0.1613,0.0256,3793,2019-08-07 16:24:49:232
5.1564,-8.0533,2.2264,-0.5411,-0.3474,-0.1376,-0.008,0.1613,0.0256,3798,2019-08-07 16:24:49:237
5.1564,-8.0533,2.2264,-0.5411,-0.3474,-0.1376,-0.0239,0.1528,0.0363,3803,2019-08-07 16:24:49:242
5.1564,-8.0533,2.2264,-0.5411,-0.3474,-0.1376,-0.0239,0.1528,0.0363,3808,2019-08-07 16:24:49:247
5.0894,-8.1774,2.5281,-0.5411,-0.3474,-0.1376,-0.0037,0.1102,0.0278,3813,2019-08-07 16:24:49:252
5.0894,-8.1774,2.5281,-0.4388,-0.3866,-0.3275,-0.0037,0.1102,0.0278,3818,2019-08-07 16:24:49:257
5.0368,-7.8767,2.3961,-0.4388,-0.3866,-0.3275,-0.0037,0.1102,0.0278,3823,2019-08-07 16:24:49:262
5.0368,-7.8767,2.3961,-0.4388,-0.3866,-0.3275,0.0016,0.0452,0.0267,3829,2019-08-07 16:24:49:268
5.0368,-7.8767,2.3961,-0.4388,-0.3866,-0.3275,0.0016,0.0452,0.0267,3832,2019-08-07 16:24:49:271
4.9316,-7.7573,2.2877,-0.3452,-0.6632,-0.1565,-0.0293,0.0186,0.0299,3838,2019-08-07 16:24:49:277