ACCELEROMETER X (m/s²),ACCELEROMETER Y (m/s²),ACCELEROMETER Z (m/s²),LINEAR ACCELERATION X (m/s²),LINEAR ACCELERATION Y (m/s²),LINEAR ACCELERATION Z (m/s²),GYROSCOPE X (rad/s),GYROSCOPE Y (rad/s),GYROSCOPE Z (rad/s),Time since start in ms ,YYYY-MO-DD HH-MI-SS_SSS
5.1946,-8.1726,2.1274,-0.3976,-0.1916,-0.0655,-0.0016,0.0111,-0.0074,4,2019-08-07 16:24:51:091
5.1946,-8.1726,2.1274,-0.3507,-0.0698,-0.0412,-0.0016,0.0111,-0.0074,8,2019-08-07 16:24:51:095
5.1946,-8.1726,2.1274,-0.3507,-0.0698,-0.0412,0.0016,0.0207,-0.0074,14,2019-08-07 16:24:51:101
5.0224,-8.2443,2.25,-0.3507,-0.0698,-0.0412,0.0016,0.0207,-0.0074,18,2019-08-07 16:24:51:105
5.0224,-8.2443,2.25,-0.3507,-0.0698,-0.0412,0.008,0.0367,-0.0116,24,2019-08-07 16:24:51:111
4.9649,-8.1774,2.1887,-0.2148,-0.0678,-0.0234,0.008,0.0367,-0.0116,29,2019-08-07 16:24:51:116
4.9649,-8.1774,2.1887,-0.2148,-0.0678,-0.0234,0.0048,0.0313,-0.0148,33,2019-08-07 16:24:51:120
4.9649,-8.1774,2.1887,-0.2148,-0.0678,-0.0234,0.0048,0.0313,-0.0148,39,2019-08-07 16:24:51:126
4.9267,-8.1154,2.1934,-0.2148,-0.0678,-0.0234,0.0091,0.0228,-0.018,44,2019-08-07 16:24:51:131
4.9267,-8.1154,2.1934,-0.1878,-0.1365,-0.0192,0.0091,0.0228,-0.018,48,2019-08-07 16:24:51:135
4.9267,-8.1154,2.1934,-0.1878,-0.1365,-0.0192,0.0187,0.0196,-0.0212,54,2019-08-07 16:24:51:141
4.9219,-8.1488,2.2123,-0.1878,-0.1365,-0.0192,0.0187,0.0196,-0.0212,58,2019-08-07 16:24:51:145
4.9219,-8.1488,2.2123,-0.1878,-0.1365,-0.0192,0.0219,0.0164,-0.0234,64,2019-08-07 16:24:51:151
5.0223,-8.0485,2.1557,-0.1881,-0.1946,-0.1034,0.0219,0.0164,-0.0234,68,2019-08-07 16:24:51:155
5.0223,-8.0485,2.1557,-0.1881,-0.1946,-0.1034,0.0197,-6.0E-4,-0.0266,74,2019-08-07 16:24:51:161
5.0223,-8.0485,2.1557,-0.1881,-0.1946,-0.1034,0.0197,-6.0E-4,-0.0266,79,2019-08-07 16:24:51:166
5.1132,-8.0151,2.1604,-0.1881,-0.1946,-0.1034,0.0208,-0.0123,-0.0276,84,2019-08-07 16:24:51:171
5.1132,-8.0151,2.1604,-0.3195,-0.2325,-0.001,0.0208,-0.0123,-0.0276,89,2019-08-07 16:24:51:176
5.1467,-8.0915,2.1463,-0.3195,-0.2325,-0.001,0.0165,-0.0059,-0.0308,93,2019-08-07 16:24:51:180
5.1467,-8.0915,2.1463,-0.3195,-0.2325,-0.001,0.0165,-0.0059,-0.0308,99,2019-08-07 16:24:51:186
5.1467,-8.0915,2.1463,-0.3195,-0.2325,-0.001,0.0187,0.0111,-0.0276,104,2019-08-07 16:24:51:191
5.2376,-8.1154,2.1085,-0.436,-0.165,0.0399,0.0187,0.0111,-0.0276,110,2019-08-07 16:24:51:197
5.2376,-8.1154,2.1085,-0.436,-0.165,0.0399,0.0219,0.025,-0.0329,114,2019-08-07 16:24:51:201
5.2376,-8.1154,2.1085,-0.436,-0.165,0.0399,0.0219,0.025,-0.0329,119,2019-08-07 16:24:51:206
5.1898,-8.1106,2.1038,-0.436,-0.165,0.0399,0.0144,0.0335,-0.0415,124,2019-08-07 16:24:51:211
5.1898,-8.1106,2.1038,-0.3709,-0.1543,-0.0017,0.0144,0.0335,-0.0415,129,2019-08-07 16:24:51:216
5.1372,-8.1249,2.1133,-0.3709,-0.1543,-0.0017,0.0144,0.0335,-0.0415,133,2019-08-07 16:24:51:220
5.1372,-8.1249,2.1133,-0.3709,-0.1543,-0.0017,0.0123,0.0399,-0.0404,139,2019-08-07 16:24:51:226
5.1372,-8.1249,2.1133,-0.3709,-0.1543,-0.0017,0.0123,0.0399,-0.0404,144,2019-08-07 16:24:51:231
5.1132,-8.1106,2.2028,-0.2873,-0.1579,-0.1171,0.0187,0.0484,-0.0393,148,2019-08-07 16:24:51:235
5.1132,-8.1106,2.2028,-0.2873,-0.1579,-0.1171,0.0187,0.0484,-0.0393,154,2019-08-07 16:24:51:241
5.1228,-8.0724,2.2405,-0.2873,-0.1579,-0.1171,0.0208,0.0356,-0.0383,159,2019-08-07 16:24:51:246
5.1228,-8.0724,2.2405,-0.2873,-0.1579,-0.1171,0.0208,0.0356,-0.0383,164,2019-08-07 16:24:51:251
5.1228,-8.0724,2.2405,-0.2562,-0.2807,-0.0815,0.0144,0.0292,-0.0393,169,2019-08-07 16:24:51:256
5.1085,-7.9721,2.283,-0.2562,-0.2807,-0.0815,0.0144,0.0292,-0.0393,173,2019-08-07 16:24:51:260
5.1085,-7.9721,2.283,-0.2562,-0.2807,-0.0815,0.007,0.0143,-0.0298,179,2019-08-07 16:24:51:266
5.2137,-8.0247,2.2358,-0.2562,-0.2807,-0.0815,0.007,0.0143,-0.0298,184,2019-08-07 16:24:51:271
5.2137,-8.0247,2.2358,-0.4064,-0.2183,-0.0554,-0.0058,-6.0E-4,-0.0287,188,2019-08-07 16:24:51:275
5.2137,-8.0247,2.2358,-0.4064,-0.2183,-0.0554,-0.0058,-6.0E-4,-0.0287,194,2019-08-07 16:24:51:281
5.2807,-8.0199,2.2122,-0.4064,-0.2183,-0.0554,-0.008,0.0047,-0.0223,199,2019-08-07 16:24:51:286
5.2807,-8.0199,2.2122,-0.4064,-0.2183,-0.0554,-0.008,0.0047,-0.0223,204,2019-08-07 16:24:51:291
5.2616,-8.0628,2.2075,-0.4236,-0.1904,-0.0365,-0.0069,0.0377,-0.0127,210,2019-08-07 16:24:51:297
5.2616,-8.0628,2.2075,-0.4236,-0.1904,-0.0365,-0.0069,0.0377,-0.0127,214,2019-08-07 16:24:51:301
5.2616,-8.0628,2.2075,-0.4236,-0.1904,-0.0365,-0.0069,0.0377,-0.0127,218,2019-08-07 16:24:51:305
5.2089,-8.1488,2.1887,-0.4236,-0.1904,-0.0365,-0.0058,0.0505,-0.0138,224,2019-08-07 16:24:51:311
5.2089,-8.1488,2.1887,-0.296,-0.116,-0.0186,-0.0058,0.0505,-0.0138,228,2019-08-07 16:24:51:315
5.2089,-8.1488,2.1887,-0.296,-0.116,-0.0186,-0.0016,0.059,-0.017,234,2019-08-07 16:24:51:321
5.1085,-8.1726,2.2264,-0.296,-0.116,-0.0186,-0.0016,0.059,-0.017,239,2019-08-07 16:24:51:326
5.1085,-8.1726,2.2264,-0.296,-0.116,-0.0186,0.0016,0.0633,-0.0138,244,2019-08-07 16:24:51:331
5.0367,-8.0819,2.2547,-0.1939,-0.1658,-0.0732,0.0016,0.0633,-0.0138,249,2019-08-07 16:24:51:336
5.0367,-8.0819,2.2547,-0.1939,-0.1658,-0.0732,0.0059,0.0558,-0.0148,254,2019-08-07 16:24:51:341
5.0367,-8.0819,2.2547,-0.1939,-0.1658,-0.0732,0.0059,0.0558,-0.0148,259,2019-08-07 16:24:51:346
4.9888,-8.0724,2.1604,-0.1939,-0.1658,-0.0732,-5.0E-4,0.0345,-0.0223,264,2019-08-07 16:24:51:351
4.9888,-8.0724,2.1604,-0.1578,-0.1819,-0.096,-5.0E-4,0.0345,-0.0223,269,2019-08-07 16:24:51:356
5.0176,-8.0533,2.3112,-0.1578,-0.1819,-0.096,-0.0037,0.026,-0.0138,274,2019-08-07 16:24:51:361
5.0176,-8.0533,2.3112,-0.1578,-0.1819,-0.096,-0.0037,0.026,-0.0138,279,2019-08-07 16:24:51:366
5.0176,-8.0533,2.3112,-0.1578,-0.1819,-0.096,-0.0069,0.0122,-0.0116,284,2019-08-07 16:24:51:371
5.0654,-8.0151,2.2358,-0.1578,-0.1819,-0.096,-0.0069,0.0122,-0.0116,288,2019-08-07 16:24:51:375
5.0654,-8.0151,2.2358,-0.2218,-0.1796,0.0144,-0.0069,0.0122,-0.0116,294,2019-08-07 16:24:51:381
5.0654,-8.0151,2.2358,-0.2218,-0.1796,0.0144,-0.0133,-0.0038,-0.0031,299,2019-08-07 16:24:51:386
5.1467,-8.0485,2.2028,-0.2218,-0.1796,0.0144,-0.0165,-0.0102,0.0033,304,2019-08-07 16:24:51:391
5.1467,-8.0485,2.2028,-0.2218,-0.1796,0.0144,-0.0165,-0.0102,0.0033,308,2019-08-07 16:24:51:395
5.2759,-8.0867,2.1793,-0.4291,-0.1642,-0.0075,-0.0122,0.0036,0.0054,315,2019-08-07 16:24:51:402
5.2759,-8.0867,2.1793,-0.4291,-0.1642,-0.0075,-0.0122,0.0036,0.0054,320,2019-08-07 16:24:51:407
5.2759,-8.0867,2.1793,-0.4291,-0.1642,-0.0075,-0.0122,0.0036,0.0054,324,2019-08-07 16:24:51:411
5.3381,-8.0867,2.1227,-0.4291,-0.1642,-0.0075,-0.0048,0.0228,0.0129,329,2019-08-07 16:24:51:416
5.3381,-8.0867,2.1227,-0.3897,-0.1067,0.1372,-0.0048,0.0228,0.0129,333,2019-08-07 16:24:51:420
5.1659,-8.0963,2.118,-0.3897,-0.1067,0.1372,-0.0016,0.0463,0.0129,339,2019-08-07 16:24:51:426
5.1659,-8.0963,2.118,-0.3897,-0.1067,0.1372,-0.0016,0.0463,0.0129,344,2019-08-07 16:24:51:431
5.1659,-8.0963,2.118,-0.3897,-0.1067,0.1372,0.0048,0.0516,0.0171,349,2019-08-07 16:24:51:436
5.0606,-8.0867,2.1557,-0.2101,-0.1547,0.0325,0.0048,0.0516,0.0171,353,2019-08-07 16:24:51:440
5.0606,-8.0867,2.1557,-0.2101,-0.1547,0.0325,0.008,0.0505,0.0139,359,2019-08-07 16:24:51:446
4.9841,-8.0915,2.2311,-0.2101,-0.1547,0.0325,0.008,0.0505,0.0139,364,2019-08-07 16:24:51:451
4.9841,-8.0915,2.2311,-0.2101,-0.1547,0.0325,0.0038,0.0377,0.0107,369,2019-08-07 16:24:51:456
4.9841,-8.0915,2.2311,-0.0793,-0.155,-0.0511,0.0038,0.0377,0.0107,373,2019-08-07 16:24:51:460
4.9219,-8.0676,2.2217,-0.0793,-0.155,-0.0511,-0.008,0.0207,0.0043,379,2019-08-07 16:24:51:466
4.9219,-8.0676,2.2217,-0.0793,-0.155,-0.0511,-0.008,0.0207,0.0043,383,2019-08-07 16:24:51:470
4.9506,-8.0103,2.3207,-0.0793,-0.155,-0.0511,-0.0133,-0.0017,-0.001,389,2019-08-07 16:24:51:476
4.9506,-8.0103,2.3207,-0.0936,-0.188,-0.1253,-0.0133,-0.0017,-0.001,394,2019-08-07 16:24:51:481
4.9506,-8.0103,2.3207,-0.0936,-0.188,-0.1253,-0.025,-0.007,-0.0042,399,2019-08-07 16:24:51:486
5.0702,-8.0199,2.3018,-0.0936,-0.188,-0.1253,-0.025,-0.007,-0.0042,404,2019-08-07 16:24:51:491
5.0702,-8.0199,2.3018,-0.0936,-0.188,-0.1253,-0.025,-0.007,-0.0042,408,2019-08-07 16:24:51:495
5.0606,-8.0151,2.1415,-0.2245,-0.1778,0.0214,-0.0314,-6.0E-4,-0.0042,415,2019-08-07 16:24:51:502
5.0606,-8.0151,2.1415,-0.2245,-0.1778,0.0214,-0.0314,-6.0E-4,-0.0042,419,2019-08-07 16:24:51:506
5.0606,-8.0151,2.1415,-0.2245,-0.1778,0.0214,-0.0367,0.0036,0.0043,424,2019-08-07 16:24:51:511
5.1611,-8.144,2.1887,-0.2245,-0.1778,0.0214,-0.0367,0.0036,0.0043,429,2019-08-07 16:24:51:516
5.1611,-8.144,2.1887,-0.352,-0.0924,-0.0409,-0.0239,0.0132,0.0086,434,2019-08-07 16:24:51:521
5.1132,-8.2108,2.1651,-0.352,-0.0924,-0.0409,-0.0239,0.0132,0.0086,438,2019-08-07 16:24:51:525
5.1132,-8.2108,2.1651,-0.3138,-0.0737,0.0283,-0.0239,0.0132,0.0086,444,2019-08-07 16:24:51:531
5.1132,-8.2108,2.1651,-0.3138,-0.0737,0.0283,-0.0165,0.0143,0.0129,449,2019-08-07 16:24:51:536
5.1563,-8.1822,2.085,-0.3138,-0.0737,0.0283,-0.0165,0.0143,0.0129,454,2019-08-07 16:24:51:541
5.1563,-8.1822,2.085,-0.3138,-0.0737,0.0283,-0.0165,0.0143,0.0139,460,2019-08-07 16:24:51:547
5.0845,-8.2299,2.1557,-0.2669,-0.0939,0.0594,-0.0122,0.0228,0.0171,464,2019-08-07 16:24:51:551
5.0845,-8.2299,2.1557,-0.2669,-0.0939,0.0594,-0.0122,0.0228,0.0171,469,2019-08-07 16:24:51:556
5.0845,-8.2299,2.1557,-0.2669,-0.0939,0.0594,-0.0122,0.0228,0.0171,473,2019-08-07 16:24:51:560
5.0702,-8.2156,2.2405,-0.2669,-0.0939,0.0594,-0.0101,0.0303,0.0139,479,2019-08-07 16:24:51:566
5.0702,-8.2156,2.2405,-0.1879,-0.0234,-0.0624,-0.0101,0.0303,0.0139,484,2019-08-07 16:24:51:571
5.0702,-8.2156,2.2405,-0.1879,-0.0234,-0.0624,-0.009,0.0388,0.0097,488,2019-08-07 16:24:51:575
5.008,-8.1058,2.2122,-0.1879,-0.0234,-0.0624,-0.009,0.0388,0.0097,494,2019-08-07 16:24:51:581
5.008,-8.1058,2.2122,-0.1879,-0.0234,-0.0624,-0.0133,0.0292,0.0075,499,2019-08-07 16:24:51:586
4.9888,-8.0915,2.2452,-0.1416,-0.1527,-0.0606,-0.0133,0.0292,0.0075,504,2019-08-07 16:24:51:591
4.9888,-8.0915,2.2452,-0.1416,-0.1527,-0.0606,-0.0218,0.0281,0.0065,509,2019-08-07 16:24:51:596
4.9888,-8.0915,2.2452,-0.1416,-0.1527,-0.0606,-0.0218,0.0281,0.0065,514,2019-08-07 16:24:51:601
4.9553,-8.1106,2.2547,-0.1416,-0.1527,-0.0606,-0.0218,0.0281,0.0065,519,2019-08-07 16:24:51:606
4.9553,-8.1106,2.2547,-0.2144,-0.1154,-0.066,-0.0229,0.01,0.0129,524,2019-08-07 16:24:51:611
5.0654,-8.0819,2.2594,-0.2144,-0.1154,-0.066,-0.0229,0.01,0.0129,529,2019-08-07 16:24:51:616
5.0654,-8.0819,2.2594,-0.2144,-0.1154,-0.066,-0.0143,0.0015,0.0161,534,2019-08-07 16:24:51:621
5.0654,-8.0819,2.2594,-0.2144,-0.1154,-0.066,-0.0143,0.0015,0.0161,538,2019-08-07 16:24:51:625
5.1371,-8.0915,2.1698,-0.3301,-0.1546,0.0404,-0.0112,0.0036,0.0203,544,2019-08-07 16:24:51:631
5.1371,-8.0915,2.1698,-0.3301,-0.1546,0.0404,-0.0112,0.0036,0.0203,550,2019-08-07 16:24:51:637
5.2089,-8.1106,2.1133,-0.3301,-0.1546,0.0404,-0.0122,0.0186,0.0267,554,2019-08-07 16:24:51:641
5.2089,-8.1106,2.1133,-0.3301,-0.1546,0.0404,-0.0122,0.0186,0.0267,559,2019-08-07 16:24:51:646
5.2089,-8.1106,2.1133,-0.309,-0.1325,-0.0119,-0.009,0.0388,0.0299,564,2019-08-07 16:24:51:651
5.0989,-8.1201,2.1887,-0.309,-0.1325,-0.0119,-0.009,0.0388,0.0299,569,2019-08-07 16:24:51:656
5.0989,-8.1201,2.1887,-0.309,-0.1325,-0.0119,-0.0069,0.0431,0.0299,574,2019-08-07 16:24:51:661
5.0702,-8.101,2.1651,-0.309,-0.1325,-0.0119,-0.0069,0.0431,0.0299,579,2019-08-07 16:24:51:666
5.0702,-8.101,2.1651,-0.2519,-0.1729,0.0192,-0.0101,0.0452,0.0288,584,2019-08-07 16:24:51:671
5.0702,-8.101,2.1651,-0.2519,-0.1729,0.0192,-0.0101,0.0452,0.0288,589,2019-08-07 16:24:51:676
4.9697,-8.0485,2.1934,-0.2519,-0.1729,0.0192,-0.0165,0.0452,0.0278,594,2019-08-07 16:24:51:681
4.9697,-8.0485,2.1934,-0.2519,-0.1729,0.0192,-0.0165,0.0452,0.0278,599,2019-08-07 16:24:51:686
5.0462,-8.0819,2.1463,-0.2136,-0.1707,0.0392,-0.0293,0.0388,0.0256,605,2019-08-07 16:24:51:692
5.0462,-8.0819,2.1463,-0.2136,-0.1707,0.0392,-0.0293,0.0388,0.0256,610,2019-08-07 16:24:51:697
5.0462,-8.0819,2.1463,-0.2136,-0.1707,0.0392,-0.0452,0.0292,0.0235,614,2019-08-07 16:24:51:701
5.0127,-8.101,2.1462,-0.2136,-0.1707,0.0392,-0.0452,0.0292,0.0235,619,2019-08-07 16:24:51:706
5.0127,-8.101,2.1462,-0.2361,-0.126,-0.0311,-0.0452,0.0281,0.0214,624,2019-08-07 16:24:51:711
5.0127,-8.101,2.1462,-0.2361,-0.126,-0.0311,-0.0452,0.0281,0.0214,628,2019-08-07 16:24:51:715
5.0749,-8.1535,2.2028,-0.2361,-0.126,-0.0311,-0.0346,0.0239,0.0214,634,2019-08-07 16:24:51:721
5.0749,-8.1535,2.2028,-0.2361,-0.126,-0.0311,-0.0346,0.0239,0.0214,639,2019-08-07 16:24:51:726
5.1228,-8.1058,2.1085,-0.339,-0.1286,0.0165,-0.0303,0.0143,0.0235,644,2019-08-07 16:24:51:731
5.1228,-8.1058,2.1085,-0.339,-0.1286,0.0165,-0.0303,0.0143,0.0235,650,2019-08-07 16:24:51:737
5.2089,-8.1392,2.0708,-0.339,-0.1286,0.0165,-0.0282,5.0E-4,0.0246,654,2019-08-07 16:24:51:741
5.2089,-8.1392,2.0708,-0.339,-0.1286,0.0165,-0.0282,5.0E-4,0.0246,659,2019-08-07 16:24:51:746
5.2089,-8.1392,2.0708,-0.4552,-0.164,0.0213,-0.0133,0.01,0.0256,664,2019-08-07 16:24:51:751
5.2998,-8.1488,2.184,-0.4552,-0.164,0.0213,-0.0133,0.01,0.0256,669,2019-08-07 16:24:51:756
5.2998,-8.1488,2.184,-0.4552,-0.164,0.0213,-0.0133,0.01,0.0256,674,2019-08-07 16:24:51:761
5.2998,-8.1488,2.184,-0.4552,-0.164,0.0213,-0.0037,0.0218,0.0299,678,2019-08-07 16:24:51:765
5.2185,-8.1201,2.1698,-0.4552,-0.164,0.0213,-0.0037,0.0218,0.0299,684,2019-08-07 16:24:51:771
5.2185,-8.1201,2.1698,-0.4194,-0.1843,0.0789,0.0016,0.059,0.0267,689,2019-08-07 16:24:51:776
5.1611,-8.0915,2.1133,-0.4194,-0.1843,0.0789,0.0016,0.059,0.0267,694,2019-08-07 16:24:51:781
5.1611,-8.0915,2.1133,-0.4194,-0.1843,0.0789,-0.0026,0.0718,0.0278,699,2019-08-07 16:24:51:786
5.1611,-8.0915,2.1133,-0.4194,-0.1843,0.0789,-0.0026,0.0718,0.0278,703,2019-08-07 16:24:51:790
5.0414,-8.0628,2.2688,-0.2236,-0.1999,-0.089,-0.0026,0.0718,0.0278,709,2019-08-07 16:24:51:796
5.0414,-8.0628,2.2688,-0.2236,-0.1999,-0.089,6.0E-4,0.075,0.0267,714,2019-08-07 16:24:51:801
4.9745,-8.0247,2.2452,-0.2236,-0.1999,-0.089,6.0E-4,0.075,0.0267,719,2019-08-07 16:24:51:806
4.9745,-8.0247,2.2452,-0.2236,-0.1999,-0.089,-0.0016,0.058,0.0214,724,2019-08-07 16:24:51:811
4.9745,-8.0247,2.2452,-0.2383,-0.2917,-0.0817,-0.0016,0.058,0.0214,729,2019-08-07 16:24:51:816
5.0558,-8.0056,2.184,-0.2383,-0.2917,-0.0817,-0.009,0.0495,0.0171,734,2019-08-07 16:24:51:821
5.0558,-8.0056,2.184,-0.2383,-0.2917,-0.0817,-0.009,0.0495,0.0171,739,2019-08-07 16:24:51:826
5.0893,-8.0533,2.2028,-0.2383,-0.2917,-0.0817,-0.0143,0.0569,0.0097,744,2019-08-07 16:24:51:831
5.0893,-8.0533,2.2028,-0.303,-0.2111,0.0301,-0.0143,0.0569,0.0097,750,2019-08-07 16:24:51:837
5.0893,-8.0533,2.2028,-0.303,-0.2111,0.0301,-0.009,0.0601,-0.0031,754,2019-08-07 16:24:51:841
5.0032,-8.039,2.1934,-0.303,-0.2111,0.0301,-0.009,0.0601,-0.0031,759,2019-08-07 16:24:51:846
5.0032,-8.039,2.1934,-0.303,-0.2111,0.0301,-0.0058,0.0558,-0.0095,764,2019-08-07 16:24:51:851
5.0558,-8.0867,2.1133,-0.2596,-0.1622,0.081,-0.0058,0.0558,-0.0095,769,2019-08-07 16:24:51:856
5.0558,-8.0867,2.1133,-0.2596,-0.1622,0.081,-0.0058,0.0558,-0.0095,773,2019-08-07 16:24:51:860
5.0558,-8.0867,2.1133,-0.2596,-0.1622,0.081,-0.0058,0.0537,-0.0255,779,2019-08-07 16:24:51:866
5.0462,-8.1058,2.0991,-0.2596,-0.1622,0.081,-0.0058,0.0537,-0.0255,784,2019-08-07 16:24:51:871
5.0462,-8.1058,2.0991,-0.1894,-0.083,0.1503,-0.0026,0.0473,-0.0361,789,2019-08-07 16:24:51:876
4.9649,-8.2061,2.0378,-0.1894,-0.083,0.1503,-0.0026,0.0473,-0.0361,794,2019-08-07 16:24:51:881
4.9649,-8.2061,2.0378,-0.153,-0.0666,0.0999,-0.008,0.0399,-0.0489,799,2019-08-07 16:24:51:886
4.9649,-8.2061,2.0378,-0.153,-0.0666,0.0999,-0.008,0.0399,-0.0489,804,2019-08-07 16:24:51:891
4.984,-8.1965,2.1133,-0.153,-0.0666,0.0999,-0.009,0.0345,-0.0543,809,2019-08-07 16:24:51:896
4.984,-8.1965,2.1133,-0.153,-0.0666,0.0999,-0.009,0.0345,-0.0543,815,2019-08-07 16:24:51:902
5.0127,-8.2013,2.0661,-0.1304,-0.0376,0.1391,-0.0048,0.0367,-0.0628,819,2019-08-07 16:24:51:906
5.0127,-8.2013,2.0661,-0.1304,-0.0376,0.1391,-0.0048,0.0367,-0.0628,824,2019-08-07 16:24:51:911
5.0127,-8.2013,2.0661,-0.1304,-0.0376,0.1391,-0.0048,0.0367,-0.0628,828,2019-08-07 16:24:51:915
5.0654,-8.1344,2.1557,-0.1304,-0.0376,0.1391,6.0E-4,0.0601,-0.0766,834,2019-08-07 16:24:51:921
5.0654,-8.1344,2.1557,-0.2243,-0.1396,0.1006,6.0E-4,0.0601,-0.0766,838,2019-08-07 16:24:51:925
5.0654,-8.1344,2.1557,-0.2243,-0.1396,0.1006,0.0027,0.0825,-0.0894,844,2019-08-07 16:24:51:931
5.0079,-8.1344,2.0803,-0.2243,-0.1396,0.1006,0.0027,0.0825,-0.0894,849,2019-08-07 16:24:51:936
5.0079,-8.1344,2.0803,-0.2243,-0.1396,0.1006,0.007,0.107,-0.1033,854,2019-08-07 16:24:51:941
4.9075,-8.0867,2.0567,-0.0579,-0.1484,0.1572,0.007,0.1208,-0.1075,859,2019-08-07 16:24:51:946
4.9075,-8.0867,2.0567,-0.0579,-0.1484,0.1572,0.007,0.1208,-0.1075,864,2019-08-07 16:24:51:951
4.9075,-8.0867,2.0567,-0.0579,-0.1484,0.1572,0.007,0.1208,-0.1075,869,2019-08-07 16:24:51:956
4.6013,-8.2013,2.0473,-0.0579,-0.1484,0.1572,0.0155,0.1421,-0.131,874,2019-08-07 16:24:51:961
4.6013,-8.2013,2.0473,0.4584,-0.0121,0.1338,0.0155,0.1421,-0.131,879,2019-08-07 16:24:51:966
4.6013,-8.2013,2.0473,0.4584,-0.0121,0.1338,0.0197,0.108,-0.1459,883,2019-08-07 16:24:51:970
4.3047,-8.249,2.1038,0.4584,-0.0121,0.1338,0.0197,0.108,-0.1459,889,2019-08-07 16:24:51:976
4.3047,-8.249,2.1038,0.4584,-0.0121,0.1338,0.0219,0.075,-0.1693,894,2019-08-07 16:24:51:981
4.0702,-8.2442,2.0095,0.8121,0.0354,0.2297,0.0219,0.075,-0.1693,899,2019-08-07 16:24:51:986
4.0702,-8.2442,2.0095,0.8121,0.0354,0.2297,0.0197,0.0228,-0.2013,904,2019-08-07 16:24:51:991
4.0702,-8.2442,2.0095,0.8121,0.0354,0.2297,0.0197,0.0228,-0.2013,910,2019-08-07 16:24:51:997
3.7449,-8.3827,1.9813,0.8121,0.0354,0.2297,0.0208,-0.0155,-0.2396,914,2019-08-07 16:24:52:001
3.7449,-8.3827,1.9813,1.357,0.2249,0.3031,0.0208,-0.0155,-0.2396,919,2019-08-07 16:24:52:006
3.4722,-8.4495,1.8304,1.357,0.2249,0.3031,0.0325,-0.0613,-0.2758,923,2019-08-07 16:24:52:010
3.4722,-8.4495,1.8304,1.357,0.2249,0.3031,0.0325,-0.0613,-0.2758,929,2019-08-07 16:24:52:016
3.4722,-8.4495,1.8304,1.357,0.2249,0.3031,0.041,-0.0986,-0.3184,933,2019-08-07 16:24:52:020
3.1804,-8.4257,1.755,1.8142,0.2247,0.488,0.041,-0.0986,-0.3184,939,2019-08-07 16:24:52:026
3.1804,-8.4257,1.755,1.8142,0.2247,0.488,0.0549,-0.1295,-0.3696,944,2019-08-07 16:24:52:031
2.7833,-8.3493,1.788,1.8142,0.2247,0.488,0.0549,-0.1295,-0.3696,949,2019-08-07 16:24:52:036
2.7833,-8.3493,1.788,1.8142,0.2247,0.488,0.0709,-0.1913,-0.4175,954,2019-08-07 16:24:52:041
2.7833,-8.3493,1.788,2.6069,0.042,0.5371,0.0709,-0.1913,-0.4175,959,2019-08-07 16:24:52:046
2.324,-8.1631,1.6654,2.6069,0.042,0.5371,0.0709,-0.1913,-0.4175,964,2019-08-07 16:24:52:051
2.324,-8.1631,1.6654,2.6069,0.042,0.5371,0.0826,-0.268,-0.4623,969,2019-08-07 16:24:52:056
2.324,-8.1631,1.6654,2.6069,0.042,0.5371,0.0826,-0.268,-0.4623,974,2019-08-07 16:24:52:061
1.7929,-7.9244,1.7361,3.5087,-0.2266,0.4597,0.1145,-0.3639,-0.5336,978,2019-08-07 16:24:52:065
1.7929,-7.9244,1.7361,3.5087,-0.2266,0.4597,0.1145,-0.3639,-0.5336,984,2019-08-07 16:24:52:071
1.7929,-7.9244,1.7361,3.5087,-0.2266,0.4597,0.1934,-0.4299,-0.6764,988,2019-08-07 16:24:52:075
0.9557,-7.6189,1.7267,3.5087,-0.2266,0.4597,0.1934,-0.4299,-0.6764,994,2019-08-07 16:24:52:081
0.9557,-7.6189,1.7267,4.7199,-0.4287,0.7954,0.2956,-0.2882,-0.9555,999,2019-08-07 16:24:52:086
0.3529,-7.6189,1.0196,4.7199,-0.4287,0.7954,0.2956,-0.2882,-0.9555,1004,2019-08-07 16:24:52:091
0.3529,-7.6189,1.0196,4.7199,-0.4287,0.7954,0.351,0.2657,-1.3816,1010,2019-08-07 16:24:52:097
0.3529,-7.6189,1.0196,4.7199,-0.4287,0.7954,0.351,0.2657,-1.3816,1013,2019-08-07 16:24:52:100
-0.021,-8.1392,-1.2007,4.7199,-0.4287,0.7954,0.351,0.2657,-1.3816,1018,2019-08-07 16:24:52:105
-0.021,-8.1392,-1.2007,5.6031,0.4922,3.885,0.399,1.626,-2.2775,1024,2019-08-07 16:24:52:111
-1.04,-8.5927,-1.6014,5.6031,0.4922,3.885,0.399,1.626,-2.2775,1028,2019-08-07 16:24:52:115
-1.04,-8.5927,-1.6014,5.6031,0.4922,3.885,0.5257,2.7733,-3.1499,1034,2019-08-07 16:24:52:121
-4.3603,-9.4329,-1.4128,5.6031,0.4922,3.885,0.5257,2.7733,-3.1499,1039,2019-08-07 16:24:52:126
-4.3603,-9.4329,-1.4128,10.8092,1.9995,3.9445,0.8048,3.7534,-3.9787,1044,2019-08-07 16:24:52:131
-8.0155,-10.3494,-1.8182,10.8092,1.9995,3.9445,0.8048,3.7534,-3.9787,1049,2019-08-07 16:24:52:136
-8.0155,-10.3494,-1.8182,10.8092,1.9995,3.9445,1.0744,4.2935,-4.6413,1054,2019-08-07 16:24:52:141
-8.0155,-10.3494,-1.8182,10.8092,1.9995,3.9445,1.0744,4.2935,-4.6413,1058,2019-08-07 16:24:52:145
-11.6372,-11.2039,-3.4068,16.9089,3.9134,6.3073,1.2554,4.3265,-5.1153,1064,2019-08-07 16:24:52:151
-11.6372,-11.2039,-3.4068,16.9089,3.9134,6.3073,1.2554,4.3265,-5.1153,1069,2019-08-07 16:24:52:156
-11.6372,-11.2039,-3.4068,16.9089,3.9134,6.3073,1.2554,4.3265,-5.1153,1074,2019-08-07 16:24:52:161
-14.9527,-12.4929,-6.4095,16.9089,3.9134,6.3073,1.4919,4.3393,-5.4189,1078,2019-08-07 16:24:52:165
-14.9527,-12.4929,-6.4095,22.3711,7.2064,11.5831,1.4919,4.3393,-5.4189,1084,2019-08-07 16:24:52:171
-16.9286,-14.9084,-8.3044,22.3711,7.2064,11.5831,1.738,4.6503,-5.501,1088,2019-08-07 16:24:52:175
-16.9286,-14.9084,-8.3044,23.7307,9.6255,12.9465,1.738,4.6503,-5.501,1094,2019-08-07 16:24:52:181
-16.9286,-14.9084,-8.3044,23.7307,9.6255,12.9465,2.1694,4.612,-5.5691,1098,2019-08-07 16:24:52:185
-16.675,-18.0973,-8.6674,23.7307,9.6255,12.9465,2.1694,4.612,-5.5691,1105,2019-08-07 16:24:52:192
-16.675,-18.0973,-8.6674,23.7307,9.6255,12.9465,2.1694,4.612,-5.5691,1109,2019-08-07 16:24:52:196
-16.675,-18.0973,-8.6674,19.7096,13.8376,12.7001,3.1537,3.2911,-5.8557,1114,2019-08-07 16:24:52:201
-12.3788,-18.8468,-7.7812,19.7096,13.8376,12.7001,3.1537,3.2911,-5.8557,1119,2019-08-07 16:24:52:206
-12.3788,-18.8468,-7.7812,19.7096,13.8376,12.7001,4.8326,1.0764,-6.6152,1124,2019-08-07 16:24:52:211
-12.3788,-18.8468,-7.7812,19.7096,13.8376,12.7001,4.8326,1.0764,-6.6152,1129,2019-08-07 16:24:52:216
-10.7378,-17.5483,-6.1738,17.8336,13.7652,11.1935,6.6297,-0.2296,-7.3311,1134,2019-08-07 16:24:52:221
-10.7378,-17.5483,-6.1738,17.8336,13.7652,11.1935,6.6297,-0.2296,-7.3311,1139,2019-08-07 16:24:52:226
-10.1254,-17.0232,-3.4728,17.8336,13.7652,11.1935,8.5568,-0.6504,-8.0075,1144,2019-08-07 16:24:52:231
-10.1254,-17.0232,-3.4728,17.8336,13.7652,11.1935,8.5568,-0.6504,-8.0075,1149,2019-08-07 16:24:52:236
-10.1254,-17.0232,-3.4728,16.0531,14.1004,12.801,10.6127,0.8761,-9.0579,1154,2019-08-07 16:24:52:241
-10.1254,-17.0232,-3.4728,16.0531,14.1004,12.801,10.6127,0.8761,-9.0579,1159,2019-08-07 16:24:52:246
-7.9007,-13.6052,-14.5078,16.0531,14.1004,12.801,10.6127,0.8761,-9.0579,1164,2019-08-07 16:24:52:251
-7.9007,-13.6052,-14.5078,14.4515,9.6139,22.4167,11.1411,3.2261,-9.7183,1168,2019-08-07 16:24:52:255
-7.9007,-13.6052,-14.5078,14.4515,9.6139,22.4167,11.1411,3.2261,-9.7183,1174,2019-08-07 16:24:52:261
-3.6954,-0.1525,-8.2903,14.4515,9.6139,22.4167,11.4138,4.1475,-10.7101,1179,2019-08-07 16:24:52:266
-3.6954,-0.1525,-8.2903,27.6858,-46.7252,-34.1504,11.4138,4.1475,-10.7101,1184,2019-08-07 16:24:52:271
-3.6954,-0.1525,-8.2903,27.6858,-46.7252,-34.1504,11.7984,-4.1104,-8.1045,1189,2019-08-07 16:24:52:276
-25.9948,128.4494,48.398,27.6858,-46.7252,-34.1504,11.7984,-4.1104,-8.1045,1194,2019-08-07 16:24:52:281
-25.9948,128.4494,48.398,27.6858,-46.7252,-34.1504,9.5677,-9.6583,-6.0634,1200,2019-08-07 16:24:52:287
14.0445,102.5753,-12.1226,-7.217,-97.3918,16.8925,9.5677,-9.6583,-6.0634,1203,2019-08-07 16:24:52:290
14.0445,102.5753,-12.1226,-7.217,-97.3918,16.8925,9.5677,-9.6583,-6.0634,1209,2019-08-07 16:24:52:296
14.0445,102.5753,-12.1226,-7.217,-97.3918,16.8925,4.2957,-13.1044,-6.0773,1214,2019-08-07 16:24:52:301
28.6173,59.2195,-40.891,-7.217,-97.3918,16.8925,4.2957,-13.1044,-6.0773,1219,2019-08-07 16:24:52:306
28.6173,59.2195,-40.891,-19.9535,-38.9001,54.8482,-3.1185,-17.1183,-2.7622,1224,2019-08-07 16:24:52:311
22.5413,42.2438,-50.7759,-19.9535,-38.9001,54.8482,-3.1185,-17.1183,-2.7622,1229,2019-08-07 16:24:52:316
22.5413,42.2438,-50.7759,-19.9535,-38.9001,54.8482,-6.8565,-5.7797,1.7673,1235,2019-08-07 16:24:52:322
22.5413,42.2438,-50.7759,-19.9535,-38.9001,54.8482,-6.8565,-5.7797,1.7673,1238,2019-08-07 16:24:52:325
34.3584,3.6474,-13.7065,-26.7825,2.2954,15.5842,-8.3383,0.8239,5.5554,1244,2019-08-07 16:24:52:331
34.3584,3.6474,-13.7065,-26.7825,2.2954,15.5842,-8.3383,0.8239,5.5554,1250,2019-08-07 16:24:52:337
34.3584,3.6474,-13.7065,-26.7825,2.2954,15.5842,-4.35,6.2823,5.9261,1254,2019-08-07 16:24:52:341
49.5627,-6.4635,92.0478,-26.7825,2.2954,15.5842,-4.35,6.2823,5.9261,1259,2019-08-07 16:24:52:346
49.5627,-6.4635,92.0478,-16.9909,-7.3561,-17.006,1.9117,-3.2593,5.2007,1263,2019-08-07 16:24:52:350
14.81,17.8257,11.9838,-16.9909,-7.3561,-17.006,1.9117,-3.2593,5.2007,1269,2019-08-07 16:24:52:356
14.81,17.8257,11.9838,-16.9909,-7.3561,-17.006,1.9117,-3.2593,5.2007,1274,2019-08-07 16:24:52:361
14.81,17.8257,11.9838,-16.9909,-7.3561,-17.006,6.2846,3.5414,5.7514,1279,2019-08-07 16:24:52:366
10.4372,25.9937,-19.1556,0.8963,-29.3326,3.7429,6.2846,3.5414,5.7514,1284,2019-08-07 16:24:52:371
10.4372,25.9937,-19.1556,0.8963,-29.3326,3.7429,4.1263,8.6642,6.2638,1289,2019-08-07 16:24:52:376
13.9105,29.2828,-24.9206,0.8963,-29.3326,3.7429,4.1263,8.6642,6.2638,1294,2019-08-07 16:24:52:381
13.9105,29.2828,-24.9206,0.8963,-29.3326,3.7429,-3.6597,1.7901,5.8441,1299,2019-08-07 16:24:52:386
13.9105,29.2828,-24.9206,2.055,-25.2028,3.4945,-3.6597,1.7901,5.8441,1304,2019-08-07 16:24:52:391
6.3897,31.4931,14.2888,2.055,-25.2028,3.4945,-3.6597,1.7901,5.8441,1309,2019-08-07 16:24:52:396
6.3897,31.4931,14.2888,2.055,-25.2028,3.4945,-5.2714,-2.6031,5.6577,1314,2019-08-07 16:24:52:401
2.0838,16.9712,1.7972,2.055,-25.2028,3.4945,-5.4706,-2.5732,6.2894,1319,2019-08-07 16:24:52:406
2.0838,16.9712,1.7972,2.055,-25.2028,3.4945,-5.4706,-2.5732,6.2894,1324,2019-08-07 16:24:52:411
2.0838,16.9712,1.7972,-1.5141,-7.9862,-34.5952,-5.4706,-2.5732,6.2894,1329,2019-08-07 16:24:52:416
8.6143,8.5501,17.5366,-1.5141,-7.9862,-34.5952,-2.4655,-4.8444,6.4375,1334,2019-08-07 16:24:52:421
8.6143,8.5501,17.5366,-1.5141,-7.9862,-34.5952,-2.4655,-4.8444,6.4375,1339,2019-08-07 16:24:52:426
11.2887,3.4469,0.5952,-1.7977,-3.0613,1.8559,0.8016,-5.3035,6.9381,1344,2019-08-07 16:24:52:431
11.2887,3.4469,0.5952,-1.7977,-3.0613,1.8559,0.8016,-5.3035,6.9381,1350,2019-08-07 16:24:52:437
11.2887,3.4469,0.5952,-1.7977,-3.0613,1.8559,0.8016,-5.3035,6.9381,1354,2019-08-07 16:24:52:441
11.2887,3.4469,0.5952,-1.7977,-3.0613,1.8559,0.415,-4.349,7.2843,1358,2019-08-07 16:24:52:445
16.7953,-0.797,-8.3139,-1.7977,-3.0613,1.8559,-0.6397,-3.3956,7.0681,1364,2019-08-07 16:24:52:451
16.7953,-0.797,-8.3139,-8.1861,1.6096,15.0369,-0.6397,-3.3956,7.0681,1370,2019-08-07 16:24:52:457
17.7331,-3.9286,-11.062,-8.1861,1.6096,15.0369,-0.6397,-3.3956,7.0681,1374,2019-08-07 16:24:52:461
17.7331,-3.9286,-11.062,-8.1861,1.6096,15.0369,-2.326,0.5352,6.1797,1378,2019-08-07 16:24:52:465
17.7331,-3.9286,-11.062,-8.1861,1.6096,15.0369,-2.326,0.5352,6.1797,1383,2019-08-07 16:24:52:470
14.7764,-3.2889,30.0942,-5.3518,1.0211,-28.5876,-2.326,0.5352,6.1797,1389,2019-08-07 16:24:52:476
14.7764,-3.2889,30.0942,-5.3518,1.0211,-28.5876,-1.3704,0.6226,5.2316,1394,2019-08-07 16:24:52:481
6.0595,-1.9284,7.3548,3.2076,-0.8668,-5.7597,-1.3704,0.6226,5.2316,1399,2019-08-07 16:24:52:486
6.0595,-1.9284,7.3548,3.2076,-0.8668,-5.7597,0.187,2.1257,5.2742,1404,2019-08-07 16:24:52:491
6.0595,-1.9284,7.3548,3.2076,-0.8668,-5.7597,0.187,2.1257,5.2742,1409,2019-08-07 16:24:52:496
5.2557,-3.0741,5.9831,3.2076,-0.8668,-5.7597,0.1348,2.8873,5.2635,1414,2019-08-07 16:24:52:501
5.2557,-3.0741,5.9831,6.1505,-1.5209,1.4664,0.1348,2.8873,5.2635,1419,2019-08-07 16:24:52:506
5.2557,-3.0741,5.9831,6.1505,-1.5209,1.4664,-1.1606,2.5091,5.1464,1424,2019-08-07 16:24:52:511
0.7777,-2.1766,-0.2722,6.1505,-1.5209,1.4664,-1.1606,2.5091,5.1464,1429,2019-08-07 16:24:52:516
0.7777,-2.1766,-0.2722,6.1505,-1.5209,1.4664,-1.902,2.1821,4.9237,1434,2019-08-07 16:24:52:521
0.7777,-2.1766,-0.2722,8.8213,-2.536,-2.199,-1.902,2.1821,4.9237,1439,2019-08-07 16:24:52:526
-1.8011,-2.6636,4.9225,8.8213,-2.536,-2.199,-1.9457,1.5238,4.8534,1445,2019-08-07 16:24:52:532
-1.8011,-2.6636,4.9225,10.1583,-1.2466,-1.9298,-1.9457,1.5238,4.8534,1449,2019-08-07 16:24:52:536
-1.8011,-2.6636,4.9225,10.1583,-1.2466,-1.9298,-1.4056,1.119,4.7448,1454,2019-08-07 16:24:52:541
-1.6288,-6.6258,2.2922,10.1583,-1.2466,-1.9298,-1.4056,1.119,4.7448,1459,2019-08-07 16:24:52:546
-1.6288,-6.6258,2.2922,10.1583,-1.2466,-1.9298,-1.2564,0.8729,4.5104,1464,2019-08-07 16:24:52:551
-0.9256,-8.9268,-0.324,8.3227,2.5194,2.5221,-1.2564,0.8729,4.5104,1469,2019-08-07 16:24:52:556
-0.9256,-8.9268,-0.324,8.3227,2.5194,2.5221,-1.2564,0.8729,4.5104,1474,2019-08-07 16:24:52:561
-0.9256,-8.9268,-0.324,8.3227,2.5194,2.5221,-1.2767,0.8654,4.2132,1479,2019-08-07 16:24:52:566
-0.2175,-10.1632,-0.1119,8.3227,2.5194,2.5221,-1.2767,0.8654,4.2132,1484,2019-08-07 16:24:52:571
-0.2175,-10.1632,-0.1119,6.8591,3.5745,2.6586,-1.0242,1.1073,3.8585,1490,2019-08-07 16:24:52:577
-0.2175,-10.1632,-0.1119,6.8591,3.5745,2.6586,-1.0242,1.1073,3.8585,1494,2019-08-07 16:24:52:581
0.0408,-10.2157,-1.4365,6.8591,3.5745,2.6586,-0.6503,1.7091,3.607,1499,2019-08-07 16:24:52:586
0.0408,-10.2157,-1.4365,6.8591,3.5745,2.6586,-0.6503,1.7091,3.607,1504,2019-08-07 16:24:52:591
0.0408,-10.2157,-1.4365,6.1278,1.6588,4.3521,-0.6503,1.7091,3.607,1509,2019-08-07 16:24:52:596
-0.1218,-8.5592,-1.889,6.1278,1.6588,4.3521,-0.3094,2.6828,3.2939,1513,2019-08-07 16:24:52:600
-0.1218,-8.5592,-1.889,6.1278,1.6588,4.3521,-0.3094,2.6828,3.2939,1519,2019-08-07 16:24:52:606
-0.1218,-8.5592,-1.889,6.1278,1.6588,4.3521,-0.1539,3.4572,2.7943,1524,2019-08-07 16:24:52:611
-1.9255,-6.8311,-1.7334,7.868,-1.0337,4.3413,-0.1539,3.4572,2.7943,1529,2019-08-07 16:24:52:616
-1.9255,-6.8311,-1.7334,7.868,-1.0337,4.3413,-0.2263,3.6692,2.3447,1535,2019-08-07 16:24:52:622
-4.8583,-6.1007,-0.3146,7.868,-1.0337,4.3413,-0.2263,3.6692,2.3447,1539,2019-08-07 16:24:52:626
-4.8583,-6.1007,-0.3146,7.868,-1.0337,4.3413,-0.3946,3.4626,1.925,1544,2019-08-07 16:24:52:631
-4.8583,-6.1007,-0.3146,10.2813,-1.7262,4.11,-0.3946,3.4626,1.925,1550,2019-08-07 16:24:52:637
-5.9395,-6.1914,0.4255,10.2813,-1.7262,4.11,-0.3946,3.4626,1.925,1554,2019-08-07 16:24:52:641
-5.9395,-6.1914,0.4255,10.2813,-1.7262,4.11,-0.7323,2.784,1.4914,1559,2019-08-07 16:24:52:646
-5.9395,-6.1914,0.4255,10.2813,-1.7262,4.11,-0.7323,2.784,1.4914,1565,2019-08-07 16:24:52:652
-5.418,-6.9266,2.9426,9.2186,-0.9891,0.3882,-0.7238,1.7645,1.2411,1569,2019-08-07 16:24:52:656
-5.418,-6.9266,2.9426,9.2186,-0.9891,0.3882,-0.7238,1.7645,1.2411,1573,2019-08-07 16:24:52:660
-2.3083,-7.8288,1.4908,9.2186,-0.9891,0.3882,-0.6279,0.8601,0.9641,1579,2019-08-07 16:24:52:666
-2.3083,-7.8288,1.4908,9.2186,-0.9891,0.3882,-0.6279,0.8601,0.9641,1584,2019-08-07 16:24:52:671
-2.3083,-7.8288,1.4908,4.1733,-0.8608,2.527,-0.646,0.4404,0.6073,1588,2019-08-07 16:24:52:675
0.2561,-7.2941,0.4773,4.1733,-0.8608,2.527,-0.646,0.4404,0.6073,1594,2019-08-07 16:24:52:681
0.2561,-7.2941,0.4773,4.1733,-0.8608,2.527,-0.6876,0.467,0.4145,1600,2019-08-07 16:24:52:687
1.5669,-6.7261,0.5056,4.1733,-0.8608,2.527,-0.6876,0.467,0.4145,1604,2019-08-07 16:24:52:691
1.5669,-6.7261,0.5056,4.1733,-0.8608,2.527,-0.6876,0.467,0.4145,1608,2019-08-07 16:24:52:695
1.5669,-6.7261,0.5056,2.0907,-1.7184,2.6832,-0.6982,0.434,0.3111,1614,2019-08-07 16:24:52:701
2.1506,-6.9552,0.5433,2.0907,-1.7184,2.6832,-0.6982,0.434,0.3111,1619,2019-08-07 16:24:52:706
2.1506,-6.9552,0.5433,2.0907,-1.7184,2.6832,-0.6524,0.3989,0.1929,1624,2019-08-07 16:24:52:711
2.763,-7.3801,1.2645,1.0409,-1.1787,1.694,-0.6524,0.3989,0.1929,1629,2019-08-07 16:24:52:716
2.763,-7.3801,1.2645,1.0409,-1.1787,1.694,-0.596,0.2391,0.1055,1634,2019-08-07 16:24:52:721
3.1505,-7.4421,1.1844,1.0409,-1.1787,1.694,-0.596,0.2391,0.1055,1639,2019-08-07 16:24:52:726
3.1505,-7.4421,1.1844,1.0409,-1.1787,1.694,-0.5427,0.0803,0.0661,1644,2019-08-07 16:24:52:731
3.1505,-7.4421,1.1844,0.3876,-1.0885,1.5484,-0.5427,0.0803,0.0661,1649,2019-08-07 16:24:52:736
3.538,-7.5281,1.3824,0.3876,-1.0885,1.5484,-0.4905,-0.0475,0.0533,1654,2019-08-07 16:24:52:741
3.538,-7.5281,1.3824,0.3876,-1.0885,1.5484,-0.4905,-0.0475,0.0533,1659,2019-08-07 16:24:52:746
3.538,-7.5281,1.3824,0.3876,-1.0885,1.5484,-0.4905,-0.0475,0.0533,1664,2019-08-07 16:24:52:751
3.7916,-7.7477,1.4813,-0.0531,-0.7772,1.2246,-0.4458,-0.0965,0.0395,1669,2019-08-07 16:24:52:756
3.7916,-7.7477,1.4813,-0.0531,-0.7772,1.2246,-0.4458,-0.0965,0.0395,1674,2019-08-07 16:24:52:761
3.7916,-7.7477,1.4813,-0.0531,-0.7772,1.2246,-0.4074,-0.1636,0.015,1679,2019-08-07 16:24:52:766
4.0786,-7.9911,1.4908,-0.0531,-0.7772,1.2246,-0.4074,-0.1636,0.015,1684,2019-08-07 16:24:52:771
4.0786,-7.9911,1.4908,-0.6992,-0.3176,1.1572,-0.3595,-0.17,-0.0287,1689,2019-08-07 16:24:52:776
4.6383,-8.3682,1.5662,-0.6992,-0.3176,1.1572,-0.3595,-0.17,-0.0287,1694,2019-08-07 16:24:52:781
4.6383,-8.3682,1.5662,-0.6992,-0.3176,1.1572,-0.3116,-0.1551,-0.0915,1699,2019-08-07 16:24:52:786
4.6383,-8.3682,1.5662,-0.6992,-0.3176,1.1572,-0.3116,-0.1551,-0.0915,1705,2019-08-07 16:24:52:792
4.6383,-8.3682,1.5662,-0.6992,-0.3176,1.1572,-0.3116,-0.1551,-0.0915,1709,2019-08-07 16:24:52:796
4.4805,-8.5974,2.0093,-0.5438,-0.0392,0.5065,-0.2285,-0.0837,-0.1342,1714,2019-08-07 16:24:52:801
4.4805,-8.5974,2.0093,-0.5438,-0.0392,0.5065,-0.2285,-0.0837,-0.1342,1719,2019-08-07 16:24:52:806
4.203,-8.6929,2.2214,-0.5438,-0.0392,0.5065,-0.2029,-0.1476,-0.0969,1724,2019-08-07 16:24:52:811
4.203,-8.6929,2.2214,-0.5438,-0.0392,0.5065,-0.2029,-0.1476,-0.0969,1729,2019-08-07 16:24:52:816
4.203,-8.6929,2.2214,-0.3909,0.1019,-0.0762,-0.2029,-0.2467,-0.0702,1734,2019-08-07 16:24:52:821
4.3656,-8.7024,2.7446,-0.3909,0.1019,-0.0762,-0.2029,-0.2467,-0.0702,1738,2019-08-07 16:24:52:825
4.3656,-8.7024,2.7446,-0.3909,0.1019,-0.0762,-0.188,-0.3436,-0.0415,1744,2019-08-07 16:24:52:831
4.6909,-8.7836,2.9379,-0.3909,0.1019,-0.0762,-0.188,-0.3436,-0.0415,1749,2019-08-07 16:24:52:836
4.6909,-8.7836,2.9379,-0.8602,0.1697,-0.4627,-0.188,-0.3436,-0.0415,1754,2019-08-07 16:24:52:841
4.6909,-8.7836,2.9379,-0.8602,0.1697,-0.4627,-0.155,-0.3543,-0.018,1758,2019-08-07 16:24:52:845
4.8919,-8.6642,2.9143,-0.8602,0.1697,-0.4627,-0.155,-0.3543,-0.018,1764,2019-08-07 16:24:52:851
4.8919,-8.6642,2.9143,-0.8602,0.1697,-0.4627,-0.156,-0.2648,1.0E-4,1769,2019-08-07 16:24:52:856
4.978,-8.5019,2.7776,-1.0508,-0.1397,-0.2464,-0.156,-0.2648,1.0E-4,1773,2019-08-07 16:24:52:860
4.978,-8.5019,2.7776,-1.0508,-0.1397,-0.2464,-0.1677,-0.1412,0.0054,1779,2019-08-07 16:24:52:866
4.978,-8.5019,2.7776,-0.8949,-0.247,-0.4178,-0.1677,-0.1412,0.0054,1784,2019-08-07 16:24:52:871
4.7962,-8.3444,2.8813,-0.8949,-0.247,-0.4178,-0.1677,-0.1412,0.0054,1788,2019-08-07 16:24:52:875
4.7962,-8.3444,2.8813,-0.8949,-0.247,-0.4178,-0.1645,-0.0198,-0.0042,1794,2019-08-07 16:24:52:881
4.5091,-8.2584,2.8955,-0.8949,-0.247,-0.4178,-0.1645,-0.0198,-0.0042,1799,2019-08-07 16:24:52:886
4.5091,-8.2584,2.8955,-0.4569,-0.4425,-0.4414,-0.1731,0.0441,-0.0223,1804,2019-08-07 16:24:52:891
4.5091,-8.2584,2.8955,-0.4569,-0.4425,-0.4414,-0.1731,0.0441,-0.0223,1809,2019-08-07 16:24:52:896
4.2077,-8.1343,3.1123,-0.4569,-0.4425,-0.4414,-0.1731,0.0441,-0.0223,1814,2019-08-07 16:24:52:901
4.2077,-8.1343,3.1123,-0.4569,-0.4425,-0.4414,-0.1795,0.0239,-0.0276,1819,2019-08-07 16:24:52:906
3.9158,-8.163,3.348,0.0551,-0.4845,-0.9626,-0.1795,0.0239,-0.0276,1824,2019-08-07 16:24:52:911
3.9158,-8.163,3.348,0.0551,-0.4845,-0.9626,-0.1816,-0.0336,-0.0404,1829,2019-08-07 16:24:52:916
3.8488,-8.0961,3.3338,0.0551,-0.4845,-0.9626,-0.1816,-0.0336,-0.0404,1834,2019-08-07 16:24:52:921
3.8488,-8.0961,3.3338,0.0551,-0.4845,-0.9626,-0.2104,-0.1988,-0.0298,1839,2019-08-07 16:24:52:926
3.8488,-8.0961,3.3338,-0.0774,-0.5267,-0.7886,-0.2104,-0.1988,-0.0298,1844,2019-08-07 16:24:52:931
4.2938,-8.1964,3.0604,-0.0774,-0.5267,-0.7886,-0.2466,-0.3149,-0.0159,1849,2019-08-07 16:24:52:936
4.2938,-8.1964,3.0604,-0.0774,-0.5267,-0.7886,-0.2466,-0.3149,-0.0159,1854,2019-08-07 16:24:52:941
4.2938,-8.1964,3.0604,-0.0774,-0.5267,-0.7886,-0.2466,-0.3149,-0.0159,1859,2019-08-07 16:24:52:946
4.6621,-8.4255,2.7305,-0.8217,-0.0578,-0.2343,-0.2743,-0.382,0.0033,1864,2019-08-07 16:24:52:951
4.6621,-8.4255,2.7305,-0.8217,-0.0578,-0.2343,-0.2743,-0.382,0.0033,1869,2019-08-07 16:24:52:956
4.6621,-8.4255,2.7305,-0.8217,-0.0578,-0.2343,-0.2498,-0.3564,0.0331,1874,2019-08-07 16:24:52:961
4.9348,-8.9172,2.2025,-0.8217,-0.0578,-0.2343,-0.2498,-0.3564,0.0331,1879,2019-08-07 16:24:52:966
4.9348,-8.9172,2.2025,-0.959,0.4172,0.2665,-0.1933,-0.3021,0.0597,1884,2019-08-07 16:24:52:971
4.9587,-9.1846,1.8867,-0.959,0.4172,0.2665,-0.1933,-0.3021,0.0597,1889,2019-08-07 16:24:52:976
4.9587,-9.1846,1.8867,-0.959,0.4172,0.2665,-0.1347,-0.2243,0.0821,1894,2019-08-07 16:24:52:981
4.9587,-9.1846,1.8867,-0.959,0.4172,0.2665,-0.1347,-0.2243,0.0821,1900,2019-08-07 16:24:52:987
4.8774,-9.0509,2.1177,-0.8573,0.3678,0.0455,-0.0378,-0.0922,0.0959,1904,2019-08-07 16:24:52:991
4.8774,-9.0509,2.1177,-0.8573,0.3678,0.0455,-0.0378,-0.0922,0.0959,1909,2019-08-07 16:24:52:996
4.8774,-9.0509,2.1177,-0.8573,0.3678,0.0455,-0.0378,-0.0922,0.0959,1913,2019-08-07 16:24:53:000
4.6095,-8.6117,2.1742,-0.8573,0.3678,0.0455,0.0283,0.0047,0.0991,1919,2019-08-07 16:24:53:006
4.6095,-8.6117,2.1742,-0.4237,-0.316,-0.1457,0.0283,0.0047,0.0991,1924,2019-08-07 16:24:53:011
4.3559,-8.2202,2.4524,-0.4237,-0.316,-0.1457,0.0474,0.0633,0.0853,1929,2019-08-07 16:24:53:016
4.3559,-8.2202,2.4524,-0.3015,-0.6465,-0.3637,0.0474,0.0633,0.0853,1934,2019-08-07 16:24:53:021
4.3559,-8.2202,2.4524,-0.3015,-0.6465,-0.3637,0.0219,0.0622,0.0576,1939,2019-08-07 16:24:53:026
4.1597,-7.8001,2.7917,-0.3015,-0.6465,-0.3637,0.0219,0.0622,0.0576,1944,2019-08-07 16:24:53:031
4.1597,-7.8001,2.7917,-0.3015,-0.6465,-0.3637,-0.008,0.0356,0.0416,1949,2019-08-07 16:24:53:036
4.1597,-7.8001,2.7917,-0.08,-0.9718,-0.8273,-0.008,0.0356,0.0416,1954,2019-08-07 16:24:53:041
4.0066,-7.6808,2.9944,-0.08,-0.9718,-0.8273,-0.0346,-0.0571,0.0203,1959,2019-08-07 16:24:53:046
4.0066,-7.6808,2.9944,-0.08,-0.9718,-0.8273,-0.0346,-0.0571,0.0203,1963,2019-08-07 16:24:53:050
4.0066,-7.6808,2.9944,-0.08,-0.9718,-0.8273,-0.0783,-0.1849,0.0139,1970,2019-08-07 16:24:53:057
4.0927,-7.7763,2.8294,-0.1909,-0.8961,-0.5498,-0.0783,-0.1849,0.0139,1973,2019-08-07 16:24:53:060
4.0927,-7.7763,2.8294,-0.1909,-0.8961,-0.5498,-0.1273,-0.3245,0.0256,1979,2019-08-07 16:24:53:066
4.6381,-8.0102,2.3911,-0.1909,-0.8961,-0.5498,-0.1273,-0.3245,0.0256,1984,2019-08-07 16:24:53:071
4.6381,-8.0102,2.3911,-0.1909,-0.8961,-0.5498,-0.1273,-0.3245,0.0256,1989,2019-08-07 16:24:53:076
4.6381,-8.0102,2.3911,-1.1973,-0.4133,0.0042,-0.1539,-0.3788,0.016,1993,2019-08-07 16:24:53:080
5.3605,-8.3205,1.9904,-1.1973,-0.4133,0.0042,-0.1539,-0.3788,0.016,1999,2019-08-07 16:24:53:086
5.3605,-8.3205,1.9904,-1.1973,-0.4133,0.0042,-0.1262,-0.334,-0.0074,2004,2019-08-07 16:24:53:091
5.3605,-8.3205,1.9904,-1.1973,-0.4133,0.0042,-0.1262,-0.334,-0.0074,2009,2019-08-07 16:24:53:096
5.5519,-8.3205,1.915,-1.5117,-0.4036,0.1312,-0.0548,-0.1838,-0.017,2014,2019-08-07 16:24:53:101
5.5519,-8.3205,1.915,-1.5117,-0.4036,0.1312,-0.0548,-0.1838,-0.017,2019,2019-08-07 16:24:53:106
5.5519,-8.3205,1.915,-1.5117,-0.4036,0.1312,-0.0548,-0.1838,-0.017,2024,2019-08-07 16:24:53:111
5.3781,-8.1914,1.9901,-1.3286,-0.502,0.0746,-0.0186,-0.0741,0.0054,2029,2019-08-07 16:24:53:116
5.3781,-8.1914,1.9901,-1.3286,-0.502,0.0746,-0.0186,-0.0741,0.0054,2034,2019-08-07 16:24:53:121
5.158,-7.9336,2.1315,-1.3286,-0.502,0.0746,-0.0495,0.0345,0.0384,2039,2019-08-07 16:24:53:126
5.158,-7.9336,2.1315,-1.051,-0.7541,-0.2424,-0.0495,0.0345,0.0384,2044,2019-08-07 16:24:53:131
5.158,-7.9336,2.1315,-1.051,-0.7541,-0.2424,-0.0751,0.0409,0.016,2050,2019-08-07 16:24:53:137
4.8852,-8.0482,2.3389,-1.051,-0.7541,-0.2424,-0.0751,0.0409,0.016,2053,2019-08-07 16:24:53:140
4.8852,-8.0482,2.3389,-1.051,-0.7541,-0.2424,-0.0942,0.0505,0.0032,2059,2019-08-07 16:24:53:146
4.6269,-8.2583,2.1927,-0.5695,-0.435,-0.143,-0.0942,0.0505,0.0032,2065,2019-08-07 16:24:53:152
4.6269,-8.2583,2.1927,-0.5695,-0.435,-0.143,-0.1262,0.0282,-0.0042,2069,2019-08-07 16:24:53:156
4.6269,-8.2583,2.1927,-0.5695,-0.435,-0.143,-0.1262,0.0282,-0.0042,2073,2019-08-07 16:24:53:160
4.3781,-8.3728,2.3954,-0.5695,-0.435,-0.143,-0.1262,0.0282,-0.0042,2079,2019-08-07 16:24:53:166
4.3781,-8.3728,2.3954,-0.5695,-0.435,-0.143,-0.1166,-0.0038,-0.0053,2084,2019-08-07 16:24:53:171
4.3781,-8.3728,2.3954,-0.1313,-0.2468,-0.4901,-0.1166,-0.0038,-0.0053,2088,2019-08-07 16:24:53:175
4.1627,-8.3919,2.5038,-0.1313,-0.2468,-0.4901,-0.0793,-0.0901,-0.0085,2095,2019-08-07 16:24:53:182
4.1627,-8.3919,2.5038,-0.1313,-0.2468,-0.4901,-0.0793,-0.0901,-0.0085,2099,2019-08-07 16:24:53:186
4.2488,-8.2917,2.2964,-0.1313,-0.2468,-0.4901,-0.0793,-0.0901,-0.0085,2104,2019-08-07 16:24:53:191
4.2488,-8.2917,2.2964,-0.2097,-0.3958,-0.3356,-0.0921,-0.2019,-0.0213,2109,2019-08-07 16:24:53:196
4.2488,-8.2917,2.2964,-0.2097,-0.3958,-0.3356,-0.0921,-0.2019,-0.0213,2113,2019-08-07 16:24:53:200
4.5933,-8.2201,2.4001,-0.2097,-0.3958,-0.3356,-0.1049,-0.2552,-0.033,2119,2019-08-07 16:24:53:206
4.5933,-8.2201,2.4001,-0.2097,-0.3958,-0.3356,-0.1049,-0.2552,-0.033,2124,2019-08-07 16:24:53:211
5.0764,-8.201,2.2445,-0.8735,-0.5374,-0.2759,-0.107,-0.2467,-0.05,2129,2019-08-07 16:24:53:216
5.0764,-8.201,2.2445,-0.8735,-0.5374,-0.2759,-0.107,-0.2467,-0.05,2134,2019-08-07 16:24:53:221
5.0764,-8.201,2.2445,-0.8735,-0.5374,-0.2759,-0.1092,-0.1774,-0.0649,2138,2019-08-07 16:24:53:225
5.4304,-8.3108,2.2257,-0.8735,-0.5374,-0.2759,-0.1092,-0.1774,-0.0649,2145,2019-08-07 16:24:53:232
5.4304,-8.3108,2.2257,-1.396,-0.3364,-0.1264,-0.107,-0.0816,-0.0724,2150,2019-08-07 16:24:53:237
5.4304,-8.3108,2.2257,-1.396,-0.3364,-0.1264,-0.107,-0.0816,-0.0724,2154,2019-08-07 16:24:53:241
5.5022,-8.5685,2.1738,-1.396,-0.3364,-0.1264,-0.107,-0.0816,-0.0724,2159,2019-08-07 16:24:53:246
5.5022,-8.5685,2.1738,-1.396,-0.3364,-0.1264,-0.1049,0.0047,-0.066,2163,2019-08-07 16:24:53:250
5.5022,-8.5685,2.1738,-1.1587,0.0322,-0.2035,-0.1049,0.0047,-0.066,2169,2019-08-07 16:24:53:256
5.1146,-8.7499,2.1267,-1.1587,0.0322,-0.2035,-0.0857,0.0612,-0.0521,2173,2019-08-07 16:24:53:260
5.1146,-8.7499,2.1267,-1.1587,0.0322,-0.2035,-0.0857,0.0612,-0.0521,2179,2019-08-07 16:24:53:266
4.8993,-8.7643,2.1644,-1.1587,0.0322,-0.2035,-0.0548,0.0441,-0.0266,2185,2019-08-07 16:24:53:272
4.8993,-8.7643,2.1644,-0.7129,0.0355,-0.2534,-0.0548,0.0441,-0.0266,2188,2019-08-07 16:24:53:275
4.8993,-8.7643,2.1644,-0.7129,0.0355,-0.2534,-0.025,-0.0102,-0.0053,2194,2019-08-07 16:24:53:281
4.7318,-8.6497,2.2587,-0.7129,0.0355,-0.2534,-0.025,-0.0102,-0.0053,2199,2019-08-07 16:24:53:286
4.7318,-8.6497,2.2587,-0.7129,0.0355,-0.2534,0.0038,-0.0986,0.0246,2204,2019-08-07 16:24:53:291
4.7318,-8.6497,2.2587,-0.6313,-0.2636,-0.4361,0.0038,-0.0986,0.0246,2208,2019-08-07 16:24:53:295
4.8657,-8.3823,2.3906,-0.6313,-0.2636,-0.4361,0.0038,-0.0986,0.0246,2214,2019-08-07 16:24:53:301
4.8657,-8.3823,2.3906,-0.6313,-0.2636,-0.4361,0.0197,-0.1604,0.0501,2220,2019-08-07 16:24:53:307
4.8657,-8.3823,2.3906,-0.6313,-0.2636,-0.4361,0.0197,-0.1604,0.0501,2224,2019-08-07 16:24:53:311
5.2054,-8.1627,2.2492,-1.0954,-0.5016,-0.3205,0.0208,-0.1625,0.0501,2229,2019-08-07 16:24:53:316
5.2054,-8.1627,2.2492,-1.0954,-0.5016,-0.3205,0.0208,-0.1625,0.0501,2235,2019-08-07 16:24:53:322
5.2054,-8.1627,2.2492,-1.0954,-0.5016,-0.3205,0.0027,-0.088,0.0448,2238,2019-08-07 16:24:53:325
5.3393,-8.0148,2.1455,-1.0954,-0.5016,-0.3205,0.0027,-0.088,0.0448,2244,2019-08-07 16:24:53:331
5.3393,-8.0148,2.1455,-1.1572,-0.6434,-0.2499,-0.0058,-0.0102,0.0405,2250,2019-08-07 16:24:53:337
5.2532,-8.0577,2.1832,-1.1572,-0.6434,-0.2499,-0.0058,-0.0102,0.0405,2254,2019-08-07 16:24:53:341
5.2532,-8.0577,2.1832,-1.1572,-0.6434,-0.2499,-0.0058,-0.0102,0.0405,2259,2019-08-07 16:24:53:346
5.2532,-8.0577,2.1832,-1.1572,-0.6434,-0.2499,-0.0101,0.058,0.0363,2265,2019-08-07 16:24:53:352
4.9852,-8.1436,2.3246,-0.7891,-0.5279,-0.4193,-0.0101,0.058,0.0363,2270,2019-08-07 16:24:53:357
4.9852,-8.1436,2.3246,-0.7891,-0.5279,-0.4193,-0.009,0.0676,0.0309,2274,2019-08-07 16:24:53:361
4.8752,-8.1245,2.2869,-0.7891,-0.5279,-0.4193,-0.009,0.0676,0.0309,2278,2019-08-07 16:24:53:365
4.8752,-8.1245,2.2869,-0.7891,-0.5279,-0.4193,-0.0037,0.0463,0.016,2284,2019-08-07 16:24:53:371
4.8752,-8.1245,2.2869,-0.7603,-0.5789,-0.2144,-0.0037,0.0463,0.016,2289,2019-08-07 16:24:53:376
4.8943,-8.0434,2.1549,-0.7603,-0.5789,-0.2144,0.0038,0.0314,0.0118,2293,2019-08-07 16:24:53:380
4.8943,-8.0434,2.1549,-0.7603,-0.5789,-0.2144,0.0038,0.0314,0.0118,2299,2019-08-07 16:24:53:386
4.8943,-8.0434,2.1549,-0.7603,-0.5789,-0.2144,0.0038,0.0314,0.0118,2304,2019-08-07 16:24:53:391
4.9851,-7.967,2.0795,-0.7603,-0.5789,-0.2144,0.0176,0.0463,1.0E-4,2309,2019-08-07 16:24:53:396
4.9851,-7.967,2.0795,-0.8036,-0.7186,-0.166,0.0176,0.0463,1.0E-4,2314,2019-08-07 16:24:53:401
4.8176,-7.8668,2.1785,-0.8036,-0.7186,-0.166,0.0389,0.0495,0.0054,2319,2019-08-07 16:24:53:406
4.8176,-7.8668,2.1785,-0.8036,-0.7186,-0.166,0.0389,0.0495,0.0054,2324,2019-08-07 16:24:53:411
4.8176,-7.8668,2.1785,-0.646,-0.7711,-0.3094,0.0485,-0.0038,0.0128,2329,2019-08-07 16:24:53:416
4.7889,-7.924,2.235,-0.646,-0.7711,-0.3094,0.0485,-0.0038,0.0128,2334,2019-08-07 16:24:53:421
4.7889,-7.924,2.235,-0.646,-0.7711,-0.3094,0.0368,-0.0709,-0.0031,2339,2019-08-07 16:24:53:426
4.7363,-7.8906,2.2303,-0.646,-0.7711,-0.3094,0.0368,-0.0709,-0.0031,2344,2019-08-07 16:24:53:431
4.7363,-7.8906,2.2303,-0.5551,-0.7137,-0.2189,6.0E-4,-0.1519,-0.0095,2349,2019-08-07 16:24:53:436
4.7363,-7.8906,2.2303,-0.5551,-0.7137,-0.2189,6.0E-4,-0.1519,-0.0095,2353,2019-08-07 16:24:53:440
4.942,-8.0529,2.0182,-0.5551,-0.7137,-0.2189,-0.0239,-0.1732,-0.0095,2359,2019-08-07 16:24:53:446
4.942,-8.0529,2.0182,-0.5551,-0.7137,-0.2189,-0.0239,-0.1732,-0.0095,2364,2019-08-07 16:24:53:451
4.942,-8.0529,2.0182,-0.8405,-0.4235,0.0462,-0.0303,-0.1497,-0.0319,2370,2019-08-07 16:24:53:457
4.942,-8.0529,2.0182,-0.8405,-0.4235,0.0462,-0.0303,-0.1497,-0.0319,2374,2019-08-07 16:24:53:461
5.1189,-8.2343,1.8909,-0.8405,-0.4235,0.0462,-0.0303,-0.1497,-0.0319,2379,2019-08-07 16:24:53:466
5.1189,-8.2343,1.8909,-0.8405,-0.4235,0.0462,-0.0111,-0.089,-0.0394,2384,2019-08-07 16:24:53:471
5.0998,-8.2534,1.8815,-0.8853,-0.3983,0.0216,-0.0111,-0.089,-0.0394,2389,2019-08-07 16:24:53:476
5.0998,-8.2534,1.8815,-0.8853,-0.3983,0.0216,0.024,-0.0027,-0.0521,2394,2019-08-07 16:24:53:481
5.0998,-8.2534,1.8815,-0.8853,-0.3983,0.0216,0.024,-0.0027,-0.0521,2400,2019-08-07 16:24:53:487
4.8749,-8.0672,2.0511,-0.8853,-0.3983,0.0216,0.0325,0.0239,-0.066,2404,2019-08-07 16:24:53:491
4.8749,-8.0672,2.0511,-0.8853,-0.3983,0.0216,0.0325,0.0239,-0.066,2409,2019-08-07 16:24:53:496
4.8749,-8.0672,2.0511,-0.4866,-0.6372,-0.3291,0.0347,0.0079,-0.066,2414,2019-08-07 16:24:53:501
4.6835,-7.967,2.3528,-0.4866,-0.6372,-0.3291,0.0347,0.0079,-0.066,2419,2019-08-07 16:24:53:506
4.6835,-7.967,2.3528,-0.4866,-0.6372,-0.3291,0.0347,0.0079,-0.066,2424,2019-08-07 16:24:53:511
4.7121,-7.9383,2.2915,-0.4866,-0.6372,-0.3291,0.0197,-0.0539,-0.0607,2430,2019-08-07 16:24:53:517
4.7121,-7.9383,2.2915,-0.5319,-0.6465,-0.2894,0.0197,-0.0539,-0.0607,2434,2019-08-07 16:24:53:521
4.7121,-7.9383,2.2915,-0.5319,-0.6465,-0.2894,-0.0016,-0.138,-0.0692,2439,2019-08-07 16:24:53:526
4.9131,-8.0147,2.2067,-0.6548,-0.6131,-0.2924,-0.0016,-0.138,-0.0692,2444,2019-08-07 16:24:53:531
4.9131,-8.0147,2.2067,-0.6548,-0.6131,-0.2924,-0.0101,-0.1636,-0.0671,2449,2019-08-07 16:24:53:536
5.0518,-8.1722,2.1265,-0.6548,-0.6131,-0.2924,-0.0101,-0.1636,-0.0671,2454,2019-08-07 16:24:53:541
5.0518,-8.1722,2.1265,-0.9078,-0.4226,-0.1835,-0.0154,-0.1732,-0.0617,2459,2019-08-07 16:24:53:546
5.0518,-8.1722,2.1265,-0.9078,-0.4226,-0.1835,-0.0154,-0.1732,-0.0617,2465,2019-08-07 16:24:53:552
5.2479,-8.2916,1.9946,-0.9078,-0.4226,-0.1835,-0.0122,-0.1753,-0.0564,2469,2019-08-07 16:24:53:556
5.2479,-8.2916,1.9946,-0.9078,-0.4226,-0.1835,-0.0122,-0.1753,-0.0564,2474,2019-08-07 16:24:53:561
5.2479,-8.2916,1.9946,-0.9078,-0.4226,-0.1835,-0.0122,-0.1753,-0.0564,2479,2019-08-07 16:24:53:566
5.377,-8.3298,1.9238,-1.0713,-0.281,-0.0393,0.0048,-0.1497,-0.0362,2484,2019-08-07 16:24:53:571
5.377,-8.3298,1.9238,-1.0713,-0.281,-0.0393,0.0048,-0.1497,-0.0362,2489,2019-08-07 16:24:53:576
5.377,-8.3298,1.9238,-1.0713,-0.281,-0.0393,0.0315,-0.0922,-0.0276,2493,2019-08-07 16:24:53:580
5.4296,-8.43,1.9097,-1.0738,-0.245,-0.0767,0.0315,-0.0922,-0.0276,2500,2019-08-07 16:24:53:587
5.4296,-8.43,1.9097,-1.0738,-0.245,-0.0767,0.056,-0.0155,-0.0213,2504,2019-08-07 16:24:53:591
5.4296,-8.43,1.9097,-1.0738,-0.245,-0.0767,0.056,-0.0155,-0.0213,2508,2019-08-07 16:24:53:595
5.2287,-8.325,2.0511,-0.8388,-0.3319,-0.2316,0.0656,0.0377,-0.0223,2514,2019-08-07 16:24:53:601
5.2287,-8.325,2.0511,-0.8388,-0.3319,-0.2316,0.0656,0.0377,-0.0223,2519,2019-08-07 16:24:53:606
5.2287,-8.325,2.0511,-0.8388,-0.3319,-0.2316,0.0656,0.0377,-0.0223,2524,2019-08-07 16:24:53:611
4.932,-8.1102,2.3056,-0.8388,-0.3319,-0.2316,0.0624,0.0559,-0.0191,2528,2019-08-07 16:24:53:615
4.932,-8.1102,2.3056,-0.473,-0.5487,-0.3923,0.0624,0.0559,-0.0191,2534,2019-08-07 16:24:53:621
4.7167,-8.0433,2.3952,-0.473,-0.5487,-0.3923,0.0261,0.0111,-0.0266,2539,2019-08-07 16:24:53:626
4.7167,-8.0433,2.3952,-0.473,-0.5487,-0.3923,0.0261,0.0111,-0.0266,2544,2019-08-07 16:24:53:631
4.7167,-8.0433,2.3952,-0.473,-0.5487,-0.3923,0.007,-0.0283,-0.0255,2550,2019-08-07 16:24:53:637
4.7741,-8.0195,2.4565,-0.431,-0.5664,-0.5442,0.007,-0.0283,-0.0255,2554,2019-08-07 16:24:53:641
4.7741,-8.0195,2.4565,-0.431,-0.5664,-0.5442,-0.0207,-0.1007,-0.0159,2559,2019-08-07 16:24:53:646
4.9463,-8.0624,2.2443,-0.431,-0.5664,-0.5442,-0.0207,-0.1007,-0.0159,2565,2019-08-07 16:24:53:652
4.9463,-8.0624,2.2443,-0.431,-0.5664,-0.5442,-0.0314,-0.137,-0.0127,2569,2019-08-07 16:24:53:656
4.9463,-8.0624,2.2443,-0.7297,-0.4716,-0.3273,-0.0314,-0.137,-0.0127,2573,2019-08-07 16:24:53:660
5.2141,-8.1531,2.1453,-0.7297,-0.4716,-0.3273,-0.0314,-0.137,-0.0127,2579,2019-08-07 16:24:53:666
5.2141,-8.1531,2.1453,-0.7297,-0.4716,-0.3273,-0.0282,-0.1412,-0.0053,2584,2019-08-07 16:24:53:671
5.2141,-8.1531,2.1453,-0.7297,-0.4716,-0.3273,-0.0282,-0.1412,-0.0053,2589,2019-08-07 16:24:53:676
5.3816,-8.1531,2.0699,-1.0086,-0.4207,-0.1352,-0.0239,-0.105,0.0064,2594,2019-08-07 16:24:53:681
5.3816,-8.1531,2.0699,-1.0086,-0.4207,-0.1352,-0.0239,-0.105,0.0064,2600,2019-08-07 16:24:53:687
5.4342,-8.1531,1.9992,-1.0086,-0.4207,-0.1352,-0.0154,-0.0539,0.0182,2604,2019-08-07 16:24:53:691
5.4342,-8.1531,1.9992,-1.0086,-0.4207,-0.1352,-0.0154,-0.0539,0.0182,2609,2019-08-07 16:24:53:696
5.4342,-8.1531,1.9992,-0.9672,-0.4756,-0.1941,-0.0079,-0.0017,0.0245,2614,2019-08-07 16:24:53:701
5.3432,-8.1579,2.1783,-0.9672,-0.4756,-0.1941,-0.0079,-0.0017,0.0245,2619,2019-08-07 16:24:53:706
5.3432,-8.1579,2.1783,-0.9672,-0.4756,-0.1941,0.0027,0.0324,0.016,2624,2019-08-07 16:24:53:711
5.0753,-8.1483,2.1547,-0.9672,-0.4756,-0.1941,0.0027,0.0324,0.016,2629,2019-08-07 16:24:53:716
5.0753,-8.1483,2.1547,-0.5442,-0.4832,-0.3501,0.0027,0.0324,0.016,2634,2019-08-07 16:24:53:721
5.0753,-8.1483,2.1547,-0.5442,-0.4832,-0.3501,0.007,0.0399,0.0139,2638,2019-08-07 16:24:53:725
4.7595,-8.177,2.315,-0.5442,-0.4832,-0.3501,0.007,0.0399,0.0139,2644,2019-08-07 16:24:53:731
4.7595,-8.177,2.315,-0.5442,-0.4832,-0.3501,-0.0048,0.0122,0.0043,2650,2019-08-07 16:24:53:737
4.7595,-8.177,2.315,-0.3083,-0.4384,-0.3169,-0.0048,0.0122,0.0043,2654,2019-08-07 16:24:53:741
4.7595,-8.177,2.315,-0.3083,-0.4384,-0.3169,-0.0048,0.0122,0.0043,2658,2019-08-07 16:24:53:745
4.6829,-8.1054,2.15,-0.3083,-0.4384,-0.3169,-0.0324,-0.0475,-0.0053,2664,2019-08-07 16:24:53:751
4.6829,-8.1054,2.15,-0.3083,-0.4384,-0.3169,-0.0324,-0.0475,-0.0053,2669,2019-08-07 16:24:53:756
4.9795,-8.1626,2.282,-0.5927,-0.4079,-0.4012,-0.0463,-0.0698,-0.0149,2674,2019-08-07 16:24:53:761
4.9795,-8.1626,2.282,-0.5927,-0.4079,-0.4012,-0.0463,-0.0698,-0.0149,2679,2019-08-07 16:24:53:766
5.0752,-8.2343,1.985,-0.6831,-0.3346,-0.1089,-0.0271,-0.056,-0.0181,2684,2019-08-07 16:24:53:771
5.0752,-8.2343,1.985,-0.6831,-0.3346,-0.1089,-0.0271,-0.056,-0.0181,2689,2019-08-07 16:24:53:776
5.0752,-8.2343,1.985,-0.6831,-0.3346,-0.1089,-0.0282,-0.0145,-0.034,2694,2019-08-07 16:24:53:781
5.166,-8.1435,2.0699,-0.6831,-0.3346,-0.1089,-0.0282,-0.0145,-0.034,2699,2019-08-07 16:24:53:786
5.166,-8.1435,2.0699,-0.6805,-0.4821,-0.2873,-0.0165,0.0111,-0.0351,2704,2019-08-07 16:24:53:791
5.166,-8.1435,2.0699,-0.6805,-0.4821,-0.2873,-0.0165,0.0111,-0.0351,2708,2019-08-07 16:24:53:795
5.0512,-8.0815,2.0981,-0.6805,-0.4821,-0.2873,-0.0165,0.0111,-0.0351,2714,2019-08-07 16:24:53:801
5.0512,-8.0815,2.0981,-0.699,-0.4697,-0.2354,-0.0101,-0.0102,-0.0202,2719,2019-08-07 16:24:53:806
5.1803,-8.1435,2.0934,-0.699,-0.4697,-0.2354,-0.0101,-0.0102,-0.0202,2724,2019-08-07 16:24:53:811
5.1803,-8.1435,2.0934,-0.699,-0.4697,-0.2354,-0.0101,-0.0166,-0.017,2729,2019-08-07 16:24:53:816
5.1707,-8.1579,1.9661,-0.7515,-0.3984,-0.0961,-0.0101,-0.0166,-0.017,2735,2019-08-07 16:24:53:822
5.1707,-8.1579,1.9661,-0.7515,-0.3984,-0.0961,-0.0207,-0.0326,-0.0053,2739,2019-08-07 16:24:53:826
5.1707,-8.1579,1.9661,-0.7515,-0.3984,-0.0961,-0.0207,-0.0326,-0.0053,2744,2019-08-07 16:24:53:831
5.1324,-8.2342,2.0651,-0.7515,-0.3984,-0.0961,-0.0239,-0.0336,0.0043,2749,2019-08-07 16:24:53:836
5.1324,-8.2342,2.0651,-0.63,-0.3437,-0.2432,-0.0239,-0.0336,0.0043,2754,2019-08-07 16:24:53:841
5.1324,-8.2342,2.0651,-0.63,-0.3437,-0.2432,-0.0239,-0.0336,0.0043,2759,2019-08-07 16:24:53:846
5.0032,-8.1865,2.0557,-0.63,-0.3437,-0.2432,-0.0261,-0.0326,0.0107,2765,2019-08-07 16:24:53:852
5.0032,-8.1865,2.0557,-0.63,-0.3437,-0.2432,-0.0261,-0.0326,0.0107,2769,2019-08-07 16:24:53:856
4.9458,-8.1722,2.018,-0.63,-0.3437,-0.2432,-0.0303,-0.0347,0.0096,2774,2019-08-07 16:24:53:861
4.9458,-8.1722,2.018,-0.5209,-0.3479,-0.174,-0.0367,-0.0379,0.0086,2779,2019-08-07 16:24:53:866
4.9458,-8.1722,2.018,-0.5209,-0.3479,-0.174,-0.0367,-0.0379,0.0086,2784,2019-08-07 16:24:53:871
5.0079,-8.1244,2.018,-0.5209,-0.3479,-0.174,-0.0303,-0.0549,0.0096,2789,2019-08-07 16:24:53:876
5.0079,-8.1244,2.018,-0.6973,-0.3565,0.0484,-0.0303,-0.0549,0.0096,2795,2019-08-07 16:24:53:882
5.2423,-8.1817,1.7634,-0.6973,-0.3565,0.0484,-0.0303,-0.0549,0.0096,2799,2019-08-07 16:24:53:886
5.2423,-8.1817,1.7634,-0.6973,-0.3565,0.0484,-0.0218,-0.0347,0.0128,2805,2019-08-07 16:24:53:892
5.2423,-8.1817,1.7634,-0.6973,-0.3565,0.0484,-0.0218,-0.0347,0.0128,2808,2019-08-07 16:24:53:895
5.2949,-8.1817,1.8483,-0.6973,-0.3565,0.0484,-0.009,-0.0155,0.0139,2814,2019-08-07 16:24:53:901
5.2949,-8.1817,1.8483,-0.7925,-0.3742,-0.0093,-0.009,-0.0155,0.0139,2819,2019-08-07 16:24:53:906
5.2758,-8.1292,1.9095,-0.7925,-0.3742,-0.0093,0.0112,-0.0145,0.0277,2824,2019-08-07 16:24:53:911
5.2758,-8.1292,1.9095,-0.7925,-0.3742,-0.0093,0.0112,-0.0145,0.0277,2829,2019-08-07 16:24:53:916
5.2758,-8.1292,1.9095,-0.7925,-0.3742,-0.0093,0.0208,-0.0049,0.032,2834,2019-08-07 16:24:53:921
5.625,-8.1913,1.9425,-1.1816,-0.3578,-0.0968,0.0208,-0.0049,0.032,2839,2019-08-07 16:24:53:926
5.625,-8.1913,1.9425,-1.1816,-0.3578,-0.0968,0.0283,5.0E-4,-0.0074,2844,2019-08-07 16:24:53:931
5.1083,-8.1244,1.7398,-1.1816,-0.3578,-0.0968,0.0283,5.0E-4,-0.0074,2850,2019-08-07 16:24:53:937
5.1083,-8.1244,1.7398,-1.1816,-0.3578,-0.0968,0.0038,0.0132,0.0288,2853,2019-08-07 16:24:53:940
5.1083,-8.1244,1.7398,-0.6126,-0.293,-0.1469,0.0038,0.0132,0.0288,2859,2019-08-07 16:24:53:946
4.9408,-8.3201,1.9991,-0.6126,-0.293,-0.1469,0.0187,0.0026,0.048,2865,2019-08-07 16:24:53:952
4.9408,-8.3201,1.9991,-0.6126,-0.293,-0.1469,0.0187,0.0026,0.048,2870,2019-08-07 16:24:53:957
4.9408,-8.3201,1.9991,-0.6126,-0.293,-0.1469,0.0187,0.0026,0.048,2874,2019-08-07 16:24:53:961
4.8881,-8.4443,2.0745,-0.4495,-0.1651,-0.1268,0.0443,0.0186,0.0373,2878,2019-08-07 16:24:53:965
4.8881,-8.4443,2.0745,-0.4495,-0.1651,-0.1268,0.0443,0.0186,0.0373,2884,2019-08-07 16:24:53:971
4.7876,-8.2247,2.0698,-0.4495,-0.1651,-0.1268,0.04,0.0335,0.0192,2888,2019-08-07 16:24:53:975
4.7876,-8.2247,2.0698,-0.4495,-0.1651,-0.1268,0.04,0.0335,0.0192,2894,2019-08-07 16:24:53:981
4.7876,-8.2247,2.0698,-0.2694,-0.3785,-0.177,0.0272,0.0324,0.0022,2900,2019-08-07 16:24:53:987
4.8402,-8.1912,2.0368,-0.2694,-0.3785,-0.177,0.0272,0.0324,0.0022,2904,2019-08-07 16:24:53:991
4.8402,-8.1912,2.0368,-0.2694,-0.3785,-0.177,-0.0026,0.0186,-0.0277,2909,2019-08-07 16:24:53:996
4.5914,-8.2103,2.1593,-0.2694,-0.3785,-0.177,-0.0026,0.0186,-0.0277,2914,2019-08-07 16:24:54:001
4.5914,-8.2103,2.1593,-0.169,-0.2795,-0.3042,-0.0133,0.009,-0.0095,2920,2019-08-07 16:24:54:007
4.5914,-8.2103,2.1593,-0.169,-0.2795,-0.3042,-0.0133,0.009,-0.0095,2924,2019-08-07 16:24:54:011
4.9311,-8.3822,2.164,-0.169,-0.2795,-0.3042,-0.0133,0.009,-0.0095,2929,2019-08-07 16:24:54:016
4.9311,-8.3822,2.164,-0.169,-0.2795,-0.3042,-0.0047,-0.023,-0.0191,2934,2019-08-07 16:24:54:021
4.8832,-8.1865,2.1782,-0.4591,-0.3191,-0.2759,-0.0047,-0.023,-0.0191,2939,2019-08-07 16:24:54:026
4.8832,-8.1865,2.1782,-0.4591,-0.3191,-0.2759,0.0038,-0.0549,-0.0404,2944,2019-08-07 16:24:54:031
4.8832,-8.1865,2.1782,-0.3955,-0.4545,-0.0975,0.0038,-0.0549,-0.0404,2949,2019-08-07 16:24:54:036
5.0028,-8.1578,1.9,-0.3955,-0.4545,-0.0975,-0.0239,-0.0773,-0.0245,2954,2019-08-07 16:24:54:041
5.0028,-8.1578,1.9,-0.3955,-0.4545,-0.0975,-0.0239,-0.0773,-0.0245,2959,2019-08-07 16:24:54:046
5.0028,-8.1578,1.9,-0.3955,-0.4545,-0.0975,-0.0239,-0.0773,-0.0245,2964,2019-08-07 16:24:54:051
5.2898,-8.2294,1.9189,-0.8274,-0.3067,-0.0699,-0.0324,-0.072,-0.0298,2968,2019-08-07 16:24:54:055
5.2898,-8.2294,1.9189,-0.8274,-0.3067,-0.0699,-0.0324,-0.072,-0.0298,2974,2019-08-07 16:24:54:061
5.3089,-8.2151,1.9472,-0.8274,-0.3067,-0.0699,-0.0175,-0.0326,-0.0372,2980,2019-08-07 16:24:54:067
5.3089,-8.2151,1.9472,-0.8274,-0.3067,-0.0699,-0.0175,-0.0326,-0.0372,2984,2019-08-07 16:24:54:071
5.3089,-8.2151,1.9472,-0.7044,-0.368,-1.0E-4,-0.0016,0.0101,-0.0234,2989,2019-08-07 16:24:54:076
5.1845,-8.1578,1.9142,-0.7044,-0.368,-1.0E-4,-0.0016,0.0101,-0.0234,2993,2019-08-07 16:24:54:080
5.1845,-8.1578,1.9142,-0.7044,-0.368,-1.0E-4,-5.0E-4,0.0175,-0.0074,2999,2019-08-07 16:24:54:086
5.1605,-8.1053,1.8717,-0.7044,-0.368,-1.0E-4,-5.0E-4,0.0175,-0.0074,3004,2019-08-07 16:24:54:091
5.1605,-8.1053,1.8717,-0.7044,-0.368,-1.0E-4,-5.0E-4,0.0175,-0.0074,3008,2019-08-07 16:24:54:095
5.1605,-8.1053,1.8717,-0.5734,-0.3832,-0.0733,0.0059,0.026,0.0022,3014,2019-08-07 16:24:54:101
5.1605,-8.1053,1.8717,-0.5734,-0.3832,-0.0733,0.0059,0.026,0.0022,3019,2019-08-07 16:24:54:106
5.084,-8.1721,1.9754,-0.5979,-0.3101,-0.0622,0.0038,0.026,0.0043,3023,2019-08-07 16:24:54:110
5.084,-8.1721,1.9754,-0.5979,-0.3101,-0.0622,0.0038,0.026,0.0043,3029,2019-08-07 16:24:54:116
5.0143,-8.2296,1.9052,-0.5979,-0.3101,-0.0622,0.0134,0.0132,1.0E-4,3033,2019-08-07 16:24:54:120
5.0143,-8.2296,1.9052,-0.5131,-0.3694,-0.2043,0.0134,0.0132,1.0E-4,3039,2019-08-07 16:24:54:126
5.0143,-8.2296,1.9052,-0.5131,-0.3694,-0.2043,0.0219,0.0037,-0.0031,3044,2019-08-07 16:24:54:131
4.9091,-8.1485,2.0183,-0.5131,-0.3694,-0.2043,0.0219,0.0037,-0.0031,3049,2019-08-07 16:24:54:136
4.9091,-8.1485,2.0183,-0.5131,-0.3694,-0.2043,-0.0303,-0.1316,-0.0085,3054,2019-08-07 16:24:54:141
4.9091,-8.1485,2.0183,-0.5131,-0.3694,-0.2043,-0.0303,-0.1316,-0.0085,3059,2019-08-07 16:24:54:146
4.6842,-8.0482,1.9429,-0.1817,-0.4673,-0.0854,-0.0431,-0.1103,-0.0053,3064,2019-08-07 16:24:54:151
4.6842,-8.0482,1.9429,-0.1817,-0.4673,-0.0854,-0.0431,-0.1103,-0.0053,3068,2019-08-07 16:24:54:155
5.2057,-8.3251,1.924,-0.1817,-0.4673,-0.0854,-0.0026,-0.1497,-0.0053,3074,2019-08-07 16:24:54:161
5.2057,-8.3251,1.924,-0.698,-0.1741,0.0362,-0.0026,-0.1497,-0.0053,3079,2019-08-07 16:24:54:166
5.2057,-8.3251,1.924,-0.698,-0.1741,0.0362,-0.0026,-0.1497,-0.0053,3083,2019-08-07 16:24:54:170
5.2009,-8.2248,1.7308,-0.698,-0.1741,0.0362,0.0112,-0.0688,-0.017,3089,2019-08-07 16:24:54:176
5.2009,-8.2248,1.7308,-0.698,-0.1741,0.0362,0.0112,-0.0688,-0.017,3094,2019-08-07 16:24:54:181
5.1004,-8.0864,1.8722,-0.5776,-0.4226,-0.0342,0.007,-0.0049,-0.0213,3099,2019-08-07 16:24:54:186
5.1004,-8.0864,1.8722,-0.5776,-0.4226,-0.0342,0.007,-0.0049,-0.0213,3104,2019-08-07 16:24:54:191
5.1004,-8.0864,1.8722,-0.5776,-0.4226,-0.0342,-0.0026,0.0122,-0.0223,3109,2019-08-07 16:24:54:196
5.1148,-8.1962,1.8203,-0.5776,-0.4226,-0.0342,-0.0026,0.0122,-0.0223,3114,2019-08-07 16:24:54:201
5.1148,-8.1962,1.8203,-0.5072,-0.3271,-0.0608,-0.0037,0.0345,-0.0266,3119,2019-08-07 16:24:54:206
5.1148,-8.1628,1.9806,-0.5072,-0.3271,-0.0608,-0.0037,0.0345,-0.0266,3124,2019-08-07 16:24:54:211
4.9473,-8.1628,1.9806,-0.5072,-0.3271,-0.0608,0.0102,0.0441,-0.0202,3129,2019-08-07 16:24:54:216
4.9473,-8.1628,1.9806,-0.5072,-0.3271,-0.0608,0.0102,0.0441,-0.0202,3134,2019-08-07 16:24:54:221
5.2487,-8.306,2.1031,-0.5072,-0.3271,-0.0608,0.0102,0.0441,-0.0202,3138,2019-08-07 16:24:54:225
5.2487,-8.306,2.1031,-0.8217,-0.1409,-0.1196,0.0432,0.0697,-0.0117,3144,2019-08-07 16:24:54:231
5.3444,-8.3251,1.7402,-0.8217,-0.1409,-0.1196,0.0347,0.0697,-0.0138,3149,2019-08-07 16:24:54:236
5.3444,-8.3251,1.7402,-0.8217,-0.1409,-0.1196,0.0347,0.0697,-0.0138,3154,2019-08-07 16:24:54:241
5.3444,-8.3251,1.7402,-0.8217,-0.1409,-0.1196,0.0347,0.0697,-0.0138,3158,2019-08-07 16:24:54:245
5.0287,-8.0625,2.0702,-0.4871,-0.4317,-0.2105,0.007,0.0846,-0.0042,3164,2019-08-07 16:24:54:251
5.0287,-8.0625,2.0702,-0.4871,-0.4317,-0.2105,0.007,0.0846,-0.0042,3169,2019-08-07 16:24:54:256
4.8469,-7.9909,2.1361,-0.4871,-0.4317,-0.2105,-0.0143,-0.0102,0.0064,3174,2019-08-07 16:24:54:261
4.8469,-7.9909,2.1361,-0.4871,-0.4317,-0.2105,-0.0143,-0.0102,0.0064,3179,2019-08-07 16:24:54:266
4.8469,-7.9909,2.1361,-0.3125,-0.4249,-0.122,-0.0325,-0.0698,0.0128,3183,2019-08-07 16:24:54:270
4.9186,-8.1437,1.9806,-0.3125,-0.4249,-0.122,-0.0325,-0.0698,0.0128,3189,2019-08-07 16:24:54:276