ACCELEROMETER X (m/s²),ACCELEROMETER Y (m/s²),ACCELEROMETER Z (m/s²),LINEAR ACCELERATION X (m/s²),LINEAR ACCELERATION Y (m/s²),LINEAR ACCELERATION Z (m/s²),GYROSCOPE X (rad/s),GYROSCOPE Y (rad/s),GYROSCOPE Z (rad/s),Time since start in ms ,YYYY-MO-DD HH-MI-SS_SSS
-6.5133,-6.75,0.6141,-0.4706,-0.1816,0.0717,0.0027,-0.0379,-0.0117,4,2019-08-07 16:46:14:355
-6.3841,-6.7929,0.6,-0.4706,-0.1816,0.0717,0.008,-0.0326,0.0022,9,2019-08-07 16:46:14:360
-6.3841,-6.7929,0.6,-0.4706,-0.1816,0.0717,0.008,-0.0326,0.0022,14,2019-08-07 16:46:14:365
-6.3841,-6.7929,0.6,-0.4706,-0.1816,0.0717,0.0112,-0.0209,0.0075,18,2019-08-07 16:46:14:369
-6.3937,-6.75,0.633,-0.4698,-0.2105,0.0386,0.0112,-0.0209,0.0075,24,2019-08-07 16:46:14:375
-6.3937,-6.75,0.633,-0.4698,-0.2105,0.0386,0.0165,-0.0155,0.0139,29,2019-08-07 16:46:14:380
-6.4224,-6.7404,0.5622,-0.4698,-0.2105,0.0386,0.0165,-0.0155,0.0139,33,2019-08-07 16:46:14:384
-6.4224,-6.7404,0.5622,-0.4698,-0.2105,0.0386,0.0197,0.0068,0.0182,38,2019-08-07 16:46:14:389
-6.4224,-6.7404,0.5622,-0.3471,-0.2612,0.1256,0.0197,0.0068,0.0182,44,2019-08-07 16:46:14:395
-6.5372,-6.6927,0.5811,-0.3471,-0.2612,0.1256,0.0197,0.025,0.0139,48,2019-08-07 16:46:14:399
-6.5372,-6.6927,0.5811,-0.3471,-0.2612,0.1256,0.0197,0.025,0.0139,54,2019-08-07 16:46:14:405
-6.5372,-6.6927,0.5811,-0.3471,-0.2612,0.1256,0.0197,0.025,0.0139,58,2019-08-07 16:46:14:409
-6.6376,-6.5877,0.6518,-0.1863,-0.3406,0.0439,0.0208,0.0356,0.0033,64,2019-08-07 16:46:14:415
-6.6376,-6.5877,0.6518,-0.1863,-0.3406,0.0439,0.0208,0.0356,0.0033,68,2019-08-07 16:46:14:419
-6.6998,-6.6497,0.5905,-0.1863,-0.3406,0.0439,0.0144,0.0292,-0.0074,74,2019-08-07 16:46:14:425
-6.6998,-6.6497,0.5905,-0.1626,-0.2547,0.1321,0.0144,0.0292,-0.0074,78,2019-08-07 16:46:14:429
-6.7572,-6.7595,0.567,-0.1626,-0.2547,0.1321,0.007,0.026,-0.017,84,2019-08-07 16:46:14:435
-6.7572,-6.7595,0.567,-0.1626,-0.2547,0.1321,0.007,0.026,-0.017,89,2019-08-07 16:46:14:440
-6.7572,-6.7595,0.567,-0.1626,-0.2547,0.1321,0.0038,0.0164,-0.0202,93,2019-08-07 16:46:14:444
-6.7285,-6.7643,0.6707,-0.1469,-0.2182,0.0441,0.0038,0.0164,-0.0202,99,2019-08-07 16:46:14:450
-6.7285,-6.7643,0.6707,-0.1469,-0.2182,0.0441,0.0038,0.0164,-0.0202,104,2019-08-07 16:46:14:455
-6.7285,-6.7643,0.6707,-0.1469,-0.2182,0.0441,0.0048,-0.0113,-0.0202,109,2019-08-07 16:46:14:460
-6.6281,-6.6545,0.6377,-0.1469,-0.2182,0.0441,0.0048,-0.0113,-0.0202,114,2019-08-07 16:46:14:465
-6.6281,-6.6545,0.6377,-0.278,-0.24,0.0878,0.0027,-0.0155,-0.0202,119,2019-08-07 16:46:14:470
-6.5228,-6.6975,0.5481,-0.278,-0.24,0.0878,0.0027,-0.0155,-0.0202,124,2019-08-07 16:46:14:475
-6.5228,-6.6975,0.5481,-0.278,-0.24,0.0878,6.0E-4,-0.0038,-0.0159,129,2019-08-07 16:46:14:480
-6.5228,-6.6975,0.5481,-0.278,-0.24,0.0878,6.0E-4,-0.0038,-0.0159,134,2019-08-07 16:46:14:485
-6.5563,-6.7452,0.5293,-0.323,-0.2142,0.1633,-0.0016,0.0015,-0.0127,138,2019-08-07 16:46:14:489
-6.5563,-6.7452,0.5293,-0.323,-0.2142,0.1633,-0.0016,0.0015,-0.0127,144,2019-08-07 16:46:14:495
-6.5563,-6.7261,0.6282,-0.323,-0.2142,0.1633,-5.0E-4,-0.0017,-0.0074,148,2019-08-07 16:46:14:499
-6.5563,-6.7261,0.6282,-0.323,-0.2142,0.1633,-5.0E-4,-0.0017,-0.0074,154,2019-08-07 16:46:14:505
-6.5563,-6.7261,0.6282,-0.3407,-0.2633,0.0927,0.0016,-0.0027,0.0033,158,2019-08-07 16:46:14:509
-6.5036,-6.7309,0.567,-0.3407,-0.2633,0.0927,0.0016,-0.0027,0.0033,164,2019-08-07 16:46:14:515
-6.5036,-6.7309,0.567,-0.3407,-0.2633,0.0927,-0.0016,0.0068,0.0011,169,2019-08-07 16:46:14:520
-6.585,-6.6449,0.6283,-0.3407,-0.2633,0.0927,-0.0016,0.0068,0.0011,174,2019-08-07 16:46:14:525
-6.585,-6.6449,0.6283,-0.2644,-0.2775,-0.0033,-0.0048,0.0164,0.0033,179,2019-08-07 16:46:14:530
-6.585,-6.6449,0.6283,-0.2644,-0.2775,-0.0033,-0.0048,0.0164,0.0033,183,2019-08-07 16:46:14:534
-6.6759,-6.6784,0.6471,-0.2644,-0.2775,-0.0033,-0.0048,0.0132,-0.0031,189,2019-08-07 16:46:14:540
-6.6759,-6.6784,0.6471,-0.2644,-0.2775,-0.0033,-0.0048,0.0132,-0.0031,193,2019-08-07 16:46:14:544
-6.6663,-6.6784,0.5198,-0.1834,-0.2631,0.1398,-0.009,0.0154,-0.0085,200,2019-08-07 16:46:14:551
-6.6663,-6.6784,0.5198,-0.1834,-0.2631,0.1398,-0.009,0.0154,-0.0085,204,2019-08-07 16:46:14:555
-6.6663,-6.6784,0.5198,-0.1834,-0.2631,0.1398,-0.008,0.0164,-0.0138,209,2019-08-07 16:46:14:560
-6.7763,-6.6975,0.6047,-0.1834,-0.2631,0.1398,-0.008,0.0164,-0.0138,214,2019-08-07 16:46:14:565
-6.7763,-6.6975,0.6047,-0.1493,-0.269,0.0224,-0.0069,0.0047,-0.0148,219,2019-08-07 16:46:14:570
-6.7763,-6.6975,0.6047,-0.1493,-0.269,0.0224,-0.0069,0.0047,-0.0148,224,2019-08-07 16:46:14:575
-6.695,-6.6831,0.7037,-0.1493,-0.269,0.0224,-0.0069,0.0047,-0.0148,229,2019-08-07 16:46:14:580
-6.695,-6.6831,0.7037,-0.1493,-0.269,0.0224,-0.0037,-0.0102,-0.0148,234,2019-08-07 16:46:14:585
-6.5754,-6.664,0.6565,-0.3005,-0.2995,0.0271,-0.0037,-0.0102,-0.0148,238,2019-08-07 16:46:14:589
-6.5754,-6.664,0.6565,-0.3005,-0.2995,0.0271,-0.0058,-0.0081,-0.0127,244,2019-08-07 16:46:14:595
-6.6137,-6.707,0.6141,-0.3005,-0.2995,0.0271,-0.0058,-0.0081,-0.0127,248,2019-08-07 16:46:14:599
-6.6137,-6.707,0.6141,-0.3005,-0.2995,0.0271,-0.0069,5.0E-4,-0.0085,254,2019-08-07 16:46:14:605
-6.6137,-6.707,0.6141,-0.3084,-0.2487,0.0218,-0.0069,5.0E-4,-0.0085,258,2019-08-07 16:46:14:609
-6.5993,-6.7404,0.6943,-0.3084,-0.2487,0.0218,-0.0026,-0.007,-0.0031,264,2019-08-07 16:46:14:615
-6.5993,-6.7404,0.6943,-0.3084,-0.2487,0.0218,-0.0026,-0.007,-0.0031,269,2019-08-07 16:46:14:620
-6.5993,-6.7404,0.6943,-0.3084,-0.2487,0.0218,-0.0026,-0.007,-0.0031,273,2019-08-07 16:46:14:624
-6.5514,-6.6831,0.7272,-0.3562,-0.3105,0.0246,0.0059,-0.0326,0.0118,279,2019-08-07 16:46:14:630
-6.5514,-6.6831,0.7272,-0.3562,-0.3105,0.0246,0.0059,-0.0326,0.0118,283,2019-08-07 16:46:14:634
-6.5227,-6.6831,0.666,-0.3562,-0.3105,0.0246,0.0059,-0.023,0.015,289,2019-08-07 16:46:14:640
-6.5227,-6.6831,0.666,-0.3562,-0.3105,0.0246,0.0059,-0.023,0.015,294,2019-08-07 16:46:14:645
-6.5227,-6.6831,0.666,-0.2814,-0.3323,0.0096,-0.0037,-0.0198,0.0224,299,2019-08-07 16:46:14:650
-6.5706,-6.6736,0.666,-0.2814,-0.3323,0.0096,-0.0037,-0.0198,0.0224,304,2019-08-07 16:46:14:655
-6.5706,-6.6736,0.666,-0.24,-0.3449,-0.041,-0.0037,-0.0198,0.0224,309,2019-08-07 16:46:14:660
-6.5706,-6.6736,0.666,-0.24,-0.3449,-0.041,-0.0058,-0.0294,0.0203,313,2019-08-07 16:46:14:664
-6.5801,-6.6879,0.6801,-0.24,-0.3449,-0.041,-0.0058,-0.0294,0.0203,319,2019-08-07 16:46:14:670
-6.5801,-6.6879,0.6801,-0.24,-0.3449,-0.041,-0.0101,-0.0262,0.0192,324,2019-08-07 16:46:14:675
-6.5658,-6.6927,0.5811,-0.3139,-0.2661,0.1123,-0.0101,-0.0262,0.0192,329,2019-08-07 16:46:14:680
-6.5658,-6.6927,0.5811,-0.3139,-0.2661,0.1123,-0.0101,-0.0262,0.0192,334,2019-08-07 16:46:14:685
-6.5658,-6.6927,0.5811,-0.3139,-0.2661,0.1123,-0.0218,-0.0049,0.0128,339,2019-08-07 16:46:14:690
-6.5801,-6.707,0.6188,-0.3139,-0.2661,0.1123,-0.0218,-0.0049,0.0128,344,2019-08-07 16:46:14:695
-6.5801,-6.707,0.6188,-0.2723,-0.2363,0.0015,-0.0271,-0.0059,0.0107,349,2019-08-07 16:46:14:700
-6.6184,-6.6927,0.6,-0.2723,-0.2363,0.0015,-0.0271,-0.0059,0.0107,354,2019-08-07 16:46:14:705
-6.6184,-6.6927,0.6,-0.2723,-0.2363,0.0015,-0.0303,-0.0102,0.0107,359,2019-08-07 16:46:14:710
-6.6184,-6.6927,0.6,-0.2723,-0.2363,0.0015,-0.0303,-0.0102,0.0107,364,2019-08-07 16:46:14:715
-6.5418,-6.7357,0.6283,-0.3118,-0.183,0.0733,-0.0346,-0.0123,0.0139,369,2019-08-07 16:46:14:720
-6.5418,-6.7357,0.6283,-0.3118,-0.183,0.0733,-0.0346,-0.0123,0.0139,374,2019-08-07 16:46:14:725
-6.5131,-6.7738,0.6471,-0.3118,-0.183,0.0733,-0.0303,-0.0081,0.0129,380,2019-08-07 16:46:14:731
-6.5131,-6.7738,0.6471,-0.3118,-0.183,0.0733,-0.0303,-0.0081,0.0129,384,2019-08-07 16:46:14:735
-6.5131,-6.7738,0.6471,-0.3801,-0.22,0.1179,-0.0229,-0.0145,0.0214,388,2019-08-07 16:46:14:739
-6.5131,-6.7548,0.5953,-0.3801,-0.22,0.1179,-0.0229,-0.0145,0.0214,394,2019-08-07 16:46:14:745
-6.5131,-6.7548,0.5953,-0.3801,-0.22,0.1179,-0.0207,-0.0102,0.0256,399,2019-08-07 16:46:14:750
-6.5466,-6.75,0.6613,-0.3801,-0.22,0.1179,-0.0207,-0.0102,0.0256,403,2019-08-07 16:46:14:754
-6.5466,-6.75,0.6613,-0.3207,-0.208,0.0409,-0.0122,-0.0102,0.0246,409,2019-08-07 16:46:14:760
-6.5466,-6.75,0.6613,-0.3207,-0.208,0.0409,-0.0122,-0.0102,0.0246,414,2019-08-07 16:46:14:765
-6.5275,-6.75,0.5953,-0.3207,-0.208,0.0409,-0.0122,-0.0102,0.0246,418,2019-08-07 16:46:14:769
-6.5275,-6.75,0.5953,-0.3207,-0.208,0.0409,-0.0069,-0.0059,0.0256,424,2019-08-07 16:46:14:775
-6.5275,-6.75,0.5953,-0.3207,-0.208,0.0409,-0.0069,-0.0059,0.0256,429,2019-08-07 16:46:14:780
-6.6088,-6.7118,0.5576,-0.2808,-0.2383,0.125,-0.0048,0.0036,0.0235,434,2019-08-07 16:46:14:785
-6.6088,-6.7118,0.5576,-0.2808,-0.2383,0.125,-0.0037,0.0068,0.0224,439,2019-08-07 16:46:14:790
-6.6758,-6.6975,0.5858,-0.2808,-0.2383,0.125,-0.0037,0.0068,0.0224,444,2019-08-07 16:46:14:795
-6.6758,-6.6975,0.5858,-0.2173,-0.2446,0.0857,-0.0037,0.0068,0.0224,449,2019-08-07 16:46:14:800
-6.6758,-6.6975,0.5858,-0.2173,-0.2446,0.0857,-5.0E-4,-6.0E-4,0.0267,454,2019-08-07 16:46:14:805
-6.6662,-6.7022,0.5576,-0.2173,-0.2446,0.0857,-5.0E-4,-6.0E-4,0.0267,460,2019-08-07 16:46:14:811
-6.6662,-6.7022,0.5576,-0.2173,-0.2446,0.0857,-0.0058,-0.0027,0.0267,464,2019-08-07 16:46:14:815
-6.6088,-6.6927,0.5623,-0.2173,-0.2446,0.0857,-0.0058,-0.0027,0.0267,468,2019-08-07 16:46:14:819
-6.6088,-6.6927,0.5623,-0.2256,-0.2316,0.0705,-0.0058,-0.0027,0.0267,474,2019-08-07 16:46:14:825
-6.6088,-6.6927,0.5623,-0.2256,-0.2316,0.0705,-0.0026,0.0036,0.0256,478,2019-08-07 16:46:14:829
-6.6136,-6.7118,0.6754,-0.2256,-0.2316,0.0705,-0.0026,0.0036,0.0256,484,2019-08-07 16:46:14:835
-6.6136,-6.7118,0.6754,-0.2256,-0.2316,0.0705,6.0E-4,-0.0038,0.0288,489,2019-08-07 16:46:14:840
-6.6183,-6.7118,0.6566,-0.2964,-0.2326,0.0278,6.0E-4,-0.0038,0.0288,494,2019-08-07 16:46:14:845
-6.6183,-6.7118,0.6566,-0.2964,-0.2326,0.0278,-5.0E-4,-6.0E-4,0.0405,499,2019-08-07 16:46:14:850
-6.6183,-6.7118,0.6566,-0.2964,-0.2326,0.0278,-5.0E-4,-6.0E-4,0.0405,503,2019-08-07 16:46:14:854
-6.6327,-6.6927,0.7367,-0.2964,-0.2326,0.0278,0.0027,-0.0027,0.0427,509,2019-08-07 16:46:14:860
-6.6327,-6.6927,0.7367,-0.2397,-0.2462,-0.0895,0.0027,-0.0027,0.0427,514,2019-08-07 16:46:14:865
-6.6327,-6.6927,0.7367,-0.2397,-0.2462,-0.0895,0.0027,-0.0027,0.0427,519,2019-08-07 16:46:14:870
-6.6088,-6.6975,0.8263,-0.2397,-0.2462,-0.0895,0.0091,-0.024,0.0512,524,2019-08-07 16:46:14:875
-6.6088,-6.6975,0.8263,-0.2397,-0.2462,-0.0895,0.0091,-0.024,0.0512,529,2019-08-07 16:46:14:880
-6.6088,-6.6975,0.8263,-0.2513,-0.2581,-0.0848,0.0059,-0.0283,0.0555,533,2019-08-07 16:46:14:884
-6.6422,-6.6784,0.6896,-0.2513,-0.2581,-0.0848,0.0059,-0.0283,0.0555,539,2019-08-07 16:46:14:890
-6.6422,-6.6784,0.6896,-0.2513,-0.2581,-0.0848,0.0059,-0.0336,0.0565,543,2019-08-07 16:46:14:894
-6.6805,-6.6163,0.7886,-0.2778,-0.2692,-0.1022,0.0059,-0.0336,0.0565,549,2019-08-07 16:46:14:900
-6.6805,-6.6163,0.7886,-0.2778,-0.2692,-0.1022,0.0059,-0.0454,0.0597,554,2019-08-07 16:46:14:905
-6.6805,-6.6163,0.7886,-0.2778,-0.2692,-0.1022,0.0059,-0.0454,0.0597,559,2019-08-07 16:46:14:910
-6.6757,-6.6736,0.732,-0.2778,-0.2692,-0.1022,0.0059,-0.0464,0.0555,565,2019-08-07 16:46:14:916
-6.6757,-6.6736,0.732,-0.2778,-0.2692,-0.1022,0.0059,-0.0464,0.0555,569,2019-08-07 16:46:14:920
-6.6757,-6.6736,0.732,-0.285,-0.2659,0.0471,0.0059,-0.0464,0.0555,574,2019-08-07 16:46:14:925
-6.5992,-6.6211,0.6613,-0.285,-0.2659,0.0471,6.0E-4,-0.0368,0.048,579,2019-08-07 16:46:14:930
-6.5992,-6.6211,0.6613,-0.285,-0.2659,0.0471,6.0E-4,-0.0368,0.048,583,2019-08-07 16:46:14:934
-6.6566,-6.7261,0.6094,-0.285,-0.2659,0.0471,0.0027,-0.0209,0.0405,589,2019-08-07 16:46:14:940
-6.6566,-6.7261,0.6094,-0.2907,-0.1787,0.0609,0.0027,-0.0209,0.0405,593,2019-08-07 16:46:14:944
-6.6566,-6.7261,0.6094,-0.2907,-0.1787,0.0609,0.0038,-6.0E-4,0.0267,599,2019-08-07 16:46:14:950
-6.6901,-6.7261,0.6141,-0.2907,-0.1787,0.0609,0.0038,-6.0E-4,0.0267,603,2019-08-07 16:46:14:954
-6.6901,-6.7261,0.6141,-0.2907,-0.1787,0.0609,0.0091,0.0175,0.0171,609,2019-08-07 16:46:14:960
-6.7618,-6.6832,0.6849,-0.1794,-0.242,0.0841,0.0091,0.0175,0.0171,614,2019-08-07 16:46:14:965
-6.7618,-6.6832,0.6849,-0.1794,-0.242,0.0841,0.0112,0.01,0.0139,619,2019-08-07 16:46:14:970
-6.7618,-6.6832,0.6849,-0.1794,-0.242,0.0841,0.0112,0.01,0.0139,624,2019-08-07 16:46:14:975
-6.8192,-6.7213,0.6849,-0.1794,-0.242,0.0841,0.0123,-0.007,0.0097,629,2019-08-07 16:46:14:980
-6.8192,-6.7213,0.6849,-0.1147,-0.2445,0.0513,0.0123,-0.007,0.0097,634,2019-08-07 16:46:14:985
-6.7905,-6.6736,0.6613,-0.1147,-0.2445,0.0513,0.007,-0.0294,0.0086,639,2019-08-07 16:46:14:990
-6.7905,-6.6736,0.6613,-0.1147,-0.2445,0.0513,0.007,-0.0294,0.0086,644,2019-08-07 16:46:14:995
-6.7905,-6.6736,0.6613,-0.1147,-0.2445,0.0513,0.0048,-0.0475,0.0097,649,2019-08-07 16:46:15:000
-6.7618,-6.6736,0.666,-0.1779,-0.2238,0.0422,0.0048,-0.0475,0.0097,654,2019-08-07 16:46:15:005
-6.7618,-6.6736,0.666,-0.1779,-0.2238,0.0422,0.0048,-0.0475,0.0097,659,2019-08-07 16:46:15:010
-6.7618,-6.6736,0.666,-0.1779,-0.2238,0.0422,0.008,-0.0539,0.0054,664,2019-08-07 16:46:15:015
-6.6709,-6.645,0.6236,-0.1779,-0.2238,0.0422,0.008,-0.0539,0.0054,668,2019-08-07 16:46:15:019
-6.6709,-6.645,0.6236,-0.3505,-0.2609,0.1442,6.0E-4,-0.0507,0.0086,674,2019-08-07 16:46:15:025
-6.6231,-6.6068,0.5859,-0.3505,-0.2609,0.1442,6.0E-4,-0.0336,1.0E-4,679,2019-08-07 16:46:15:030
-6.6231,-6.6068,0.5859,-0.3505,-0.2609,0.1442,6.0E-4,-0.0336,1.0E-4,684,2019-08-07 16:46:15:035
-6.6231,-6.6068,0.5859,-0.3505,-0.2609,0.1442,6.0E-4,-0.0336,1.0E-4,688,2019-08-07 16:46:15:039
-6.6087,-6.6545,0.6189,-0.3308,-0.242,0.101,-5.0E-4,-0.0209,-0.001,694,2019-08-07 16:46:15:045
-6.6087,-6.6545,0.6189,-0.3308,-0.242,0.101,-5.0E-4,-0.0209,-0.001,699,2019-08-07 16:46:15:050
-6.6087,-6.6545,0.6189,-0.3308,-0.242,0.101,6.0E-4,-0.0027,-0.0042,704,2019-08-07 16:46:15:055
-6.6135,-6.6879,0.633,-0.3308,-0.242,0.101,6.0E-4,-0.0027,-0.0042,709,2019-08-07 16:46:15:060
-6.6135,-6.6879,0.633,-0.3153,-0.2097,0.0727,0.0059,0.01,-0.0095,714,2019-08-07 16:46:15:065
-6.6517,-6.6784,0.6424,-0.3153,-0.2097,0.0727,0.0059,0.01,-0.0095,719,2019-08-07 16:46:15:070
-6.6517,-6.6784,0.6424,-0.3153,-0.2097,0.0727,0.0091,0.0079,-0.0074,723,2019-08-07 16:46:15:074
-6.6517,-6.6784,0.6424,-0.3153,-0.2097,0.0727,0.0091,0.0079,-0.0074,728,2019-08-07 16:46:15:079
-6.7283,-6.707,0.7226,-0.2419,-0.1875,0.0255,0.0165,0.0058,-0.0148,734,2019-08-07 16:46:15:085
-6.7283,-6.707,0.7226,-0.2419,-0.1875,0.0255,0.0165,0.0058,-0.0148,738,2019-08-07 16:46:15:089
-6.7474,-6.6641,0.6896,-0.2419,-0.1875,0.0255,0.0251,-0.0081,-0.0138,744,2019-08-07 16:46:15:095
-6.7474,-6.6641,0.6896,-0.2419,-0.1875,0.0255,0.0251,-0.0081,-0.0138,749,2019-08-07 16:46:15:100
-6.7474,-6.6641,0.6896,-0.1732,-0.3224,-0.0779,0.024,-0.0283,-0.0074,753,2019-08-07 16:46:15:104
-6.6661,-6.6163,0.7791,-0.1732,-0.3224,-0.0779,0.024,-0.0283,-0.0074,759,2019-08-07 16:46:15:110
-6.6661,-6.6163,0.7791,-0.1732,-0.3224,-0.0779,0.0165,-0.0507,-0.0021,764,2019-08-07 16:46:15:115
-6.6661,-6.6163,0.7791,-0.1732,-0.3224,-0.0779,0.0165,-0.0507,-0.0021,769,2019-08-07 16:46:15:120
-6.5321,-6.5495,0.6707,-0.1732,-0.3224,-0.0779,0.0165,-0.0507,-0.0021,774,2019-08-07 16:46:15:125
-6.5321,-6.5495,0.6707,-0.4114,-0.3272,0.0445,0.0102,-0.0549,0.0022,779,2019-08-07 16:46:15:130
-6.5752,-6.5543,0.6707,-0.4114,-0.3272,0.0445,0.0102,-0.0549,0.0022,784,2019-08-07 16:46:15:135
-6.5752,-6.5543,0.6707,-0.4114,-0.3272,0.0445,0.007,-0.0411,0.0129,788,2019-08-07 16:46:15:139
-6.5752,-6.5543,0.6707,-0.4071,-0.3593,0.0047,0.007,-0.0411,0.0129,794,2019-08-07 16:46:15:145
-6.5178,-6.5304,0.6849,-0.4071,-0.3593,0.0047,0.0048,-0.0315,0.0171,798,2019-08-07 16:46:15:149
-6.5178,-6.5304,0.6849,-0.4071,-0.3593,0.0047,0.0048,-0.0315,0.0171,804,2019-08-07 16:46:15:155
-6.5178,-6.5304,0.6849,-0.4071,-0.3593,0.0047,6.0E-4,-0.0155,0.0192,809,2019-08-07 16:46:15:160
-6.5512,-6.5304,0.633,-0.3329,-0.4379,0.1018,6.0E-4,-0.0155,0.0192,813,2019-08-07 16:46:15:164
-6.5512,-6.5304,0.633,-0.3329,-0.4379,0.1018,-0.0101,-0.0038,0.015,819,2019-08-07 16:46:15:170
-6.6374,-6.497,0.633,-0.3329,-0.4379,0.1018,-0.0101,-0.0038,0.015,823,2019-08-07 16:46:15:174
-6.6374,-6.497,0.633,-0.3329,-0.4379,0.1018,-0.0101,0.0068,0.015,829,2019-08-07 16:46:15:180
-6.6374,-6.5161,0.6236,-0.302,-0.3782,0.1182,-0.0101,0.0068,0.015,834,2019-08-07 16:46:15:185
-6.6374,-6.5161,0.6236,-0.302,-0.3782,0.1182,-0.0101,0.0154,0.0107,839,2019-08-07 16:46:15:190
-6.6374,-6.5161,0.6236,-0.302,-0.3782,0.1182,-0.0101,0.0154,0.0107,843,2019-08-07 16:46:15:194
-6.6948,-6.5734,0.6283,-0.302,-0.3782,0.1182,-0.0048,0.0292,0.0065,849,2019-08-07 16:46:15:200
-6.6948,-6.5734,0.6283,-0.302,-0.3782,0.1182,-0.0048,0.0292,0.0065,853,2019-08-07 16:46:15:204
-6.6948,-6.5734,0.6283,-0.1843,-0.2718,0.0522,-0.0058,0.0228,0.0075,859,2019-08-07 16:46:15:210
-6.7665,-6.6307,0.7084,-0.1843,-0.2718,0.0522,-0.0058,0.0228,0.0075,864,2019-08-07 16:46:15:215
-6.7665,-6.6307,0.7084,-0.1843,-0.2718,0.0522,-0.0058,0.0228,0.0075,869,2019-08-07 16:46:15:220
-6.7235,-6.6688,0.7462,-0.1843,-0.2718,0.0522,-5.0E-4,-0.007,0.0097,874,2019-08-07 16:46:15:225
-6.7235,-6.6688,0.7462,-0.2241,-0.2178,-0.0053,-5.0E-4,-0.007,0.0097,879,2019-08-07 16:46:15:230
-6.7235,-6.6688,0.7462,-0.2241,-0.2178,-0.0053,0.0027,-0.0283,0.0107,884,2019-08-07 16:46:15:235
-6.69,-6.6927,0.7603,-0.2241,-0.2178,-0.0053,0.0027,-0.0283,0.0107,889,2019-08-07 16:46:15:240
-6.69,-6.6927,0.7603,-0.2241,-0.2178,-0.0053,-0.0037,-0.0496,0.0182,894,2019-08-07 16:46:15:245
-6.5416,-6.6593,0.7037,-0.3781,-0.2545,-0.0093,-0.0037,-0.0496,0.0182,898,2019-08-07 16:46:15:249
-6.5416,-6.6593,0.7037,-0.3781,-0.2545,-0.0093,-0.0112,-0.0613,0.0182,904,2019-08-07 16:46:15:255
-6.5416,-6.6593,0.7037,-0.3781,-0.2545,-0.0093,-0.0112,-0.0613,0.0182,909,2019-08-07 16:46:15:260
-6.5129,-6.6832,0.7037,-0.3781,-0.2545,-0.0093,-0.0175,-0.0507,0.0214,914,2019-08-07 16:46:15:265
-6.5129,-6.6832,0.7037,-0.5177,-0.2052,0.0584,-0.0175,-0.0507,0.0214,918,2019-08-07 16:46:15:269
-6.5129,-6.6832,0.7037,-0.5177,-0.2052,0.0584,-0.0175,-0.0507,0.0214,924,2019-08-07 16:46:15:275
-6.4651,-6.6688,0.6613,-0.5177,-0.2052,0.0584,-0.0261,-0.0219,0.0224,928,2019-08-07 16:46:15:279
-6.4651,-6.6688,0.6613,-0.5177,-0.2052,0.0584,-0.0261,-0.0219,0.0224,934,2019-08-07 16:46:15:285
-6.556,-6.6736,0.6,-0.448,-0.2224,0.1278,-0.0261,0.0228,0.0267,939,2019-08-07 16:46:15:290
-6.556,-6.6736,0.6,-0.448,-0.2224,0.1278,-0.0261,0.0228,0.0267,944,2019-08-07 16:46:15:295
-6.556,-6.6736,0.6,-0.448,-0.2224,0.1278,-0.0282,0.0516,0.0139,949,2019-08-07 16:46:15:300
-6.6756,-6.7309,0.5906,-0.448,-0.2224,0.1278,-0.0282,0.0516,0.0139,954,2019-08-07 16:46:15:305
-6.6756,-6.7309,0.5906,-0.197,-0.2019,0.0933,-0.0282,0.0633,0.0022,960,2019-08-07 16:46:15:311
-6.8382,-6.7309,0.6613,-0.197,-0.2019,0.0933,-0.0282,0.0633,0.0022,964,2019-08-07 16:46:15:315
-6.8382,-6.7309,0.6613,-0.197,-0.2019,0.0933,-0.0239,0.058,-0.0095,969,2019-08-07 16:46:15:320
-6.8382,-6.7309,0.6613,-0.197,-0.2019,0.0933,-0.0239,0.058,-0.0095,974,2019-08-07 16:46:15:325
-6.9244,-6.6832,0.6472,-0.0246,-0.2033,0.077,-0.0122,0.0431,-0.0234,979,2019-08-07 16:46:15:330
-6.9244,-6.6832,0.6472,-0.0246,-0.2033,0.077,-0.0122,0.0431,-0.0234,984,2019-08-07 16:46:15:335
-6.9052,-6.6832,0.7179,-0.0246,-0.2033,0.077,-0.0101,0.0175,-0.0308,989,2019-08-07 16:46:15:340
-6.9052,-6.6832,0.7179,-0.0246,-0.2033,0.077,-0.0101,0.0175,-0.0308,994,2019-08-07 16:46:15:345
-6.9052,-6.6832,0.7179,-0.0882,-0.1975,-0.0067,-0.0037,-0.0177,-0.0362,999,2019-08-07 16:46:15:350
-6.7856,-6.6545,0.6802,-0.0882,-0.1975,-0.0067,-0.0037,-0.0177,-0.0362,1004,2019-08-07 16:46:15:355
-6.7856,-6.6545,0.6802,-0.2195,-0.1952,0.0328,-0.0026,-0.0432,-0.0351,1009,2019-08-07 16:46:15:360
-6.6516,-6.6975,0.6943,-0.2195,-0.1952,0.0328,-0.0026,-0.0432,-0.0351,1014,2019-08-07 16:46:15:365
-6.6516,-6.6975,0.6943,-0.2195,-0.1952,0.0328,-0.0016,-0.0517,-0.033,1019,2019-08-07 16:46:15:370
-6.6516,-6.6975,0.6943,-0.2195,-0.1952,0.0328,-0.0016,-0.0517,-0.033,1024,2019-08-07 16:46:15:375
-6.5655,-6.6641,0.699,-0.3714,-0.2341,0.0299,-0.0016,-0.0517,-0.033,1028,2019-08-07 16:46:15:379
-6.5655,-6.6641,0.699,-0.3714,-0.2341,0.0299,-0.0026,-0.0464,-0.033,1034,2019-08-07 16:46:15:385
-6.5655,-6.6641,0.699,-0.3714,-0.2341,0.0299,-0.0026,-0.0464,-0.033,1038,2019-08-07 16:46:15:389
-6.5177,-6.6068,0.6896,-0.3714,-0.2341,0.0299,0.0027,-0.0315,-0.0244,1044,2019-08-07 16:46:15:395
-6.5177,-6.6068,0.6896,-0.4618,-0.3486,0.045,0.0027,-0.0315,-0.0244,1048,2019-08-07 16:46:15:399
-6.465,-6.5877,0.666,-0.4618,-0.3486,0.045,0.0048,-0.0102,-0.0202,1054,2019-08-07 16:46:15:405
-6.465,-6.5877,0.666,-0.4618,-0.3486,0.045,0.0048,-0.0102,-0.0202,1058,2019-08-07 16:46:15:409
-6.532,-6.6068,0.633,-0.4618,-0.3486,0.045,6.0E-4,0.0154,-0.0159,1065,2019-08-07 16:46:15:416
-6.532,-6.6068,0.633,-0.3963,-0.3042,0.0685,6.0E-4,0.0154,-0.0159,1068,2019-08-07 16:46:15:419
-6.532,-6.6068,0.633,-0.3963,-0.3042,0.0685,6.0E-4,0.0281,-0.018,1074,2019-08-07 16:46:15:425
-6.6612,-6.6784,0.7179,-0.3963,-0.3042,0.0685,6.0E-4,0.0281,-0.018,1079,2019-08-07 16:46:15:430
-6.6612,-6.6784,0.7179,-0.3963,-0.3042,0.0685,-0.0048,0.0228,-0.0138,1084,2019-08-07 16:46:15:435
-6.6612,-6.6784,0.7179,-0.3082,-0.3065,0.0083,-0.0048,0.0228,-0.0138,1088,2019-08-07 16:46:15:439
-6.6229,-6.6116,0.7509,-0.3082,-0.3065,0.0083,-0.0037,0.01,-0.0095,1094,2019-08-07 16:46:15:445
-6.6229,-6.6116,0.7509,-0.3082,-0.3065,0.0083,-0.0037,0.01,-0.0095,1099,2019-08-07 16:46:15:450
-6.6229,-6.6116,0.7509,-0.3082,-0.3065,0.0083,-0.0037,0.01,-0.0095,1104,2019-08-07 16:46:15:455
-6.6038,-6.6498,0.7226,-0.3361,-0.2836,0.0114,-0.008,-0.0027,1.0E-4,1109,2019-08-07 16:46:15:460
-6.6038,-6.6498,0.7226,-0.3361,-0.2836,0.0114,-0.008,-0.0027,1.0E-4,1114,2019-08-07 16:46:15:465
-6.5798,-6.5972,0.7462,-0.3361,-0.2836,0.0114,-0.008,-0.0113,0.0054,1118,2019-08-07 16:46:15:469
-6.5798,-6.5972,0.7462,-0.3361,-0.2836,0.0114,-0.008,-0.0113,0.0054,1124,2019-08-07 16:46:15:475
-6.5798,-6.5972,0.7462,-0.3361,-0.2836,0.0114,-0.0069,-0.0166,0.0086,1130,2019-08-07 16:46:15:481
-6.5703,-6.6211,0.6566,-0.3558,-0.2878,0.073,-0.0069,-0.0166,0.0086,1133,2019-08-07 16:46:15:484
-6.5703,-6.6211,0.6566,-0.3558,-0.2878,0.073,-0.0058,-0.0091,0.016,1139,2019-08-07 16:46:15:490
-6.5703,-6.6211,0.6566,-0.3558,-0.2878,0.073,-0.0058,-0.0091,0.016,1144,2019-08-07 16:46:15:495
-6.6468,-6.6784,0.6283,-0.324,-0.2576,0.0582,-0.0069,0.0058,0.016,1149,2019-08-07 16:46:15:500
-6.6468,-6.6784,0.6283,-0.324,-0.2576,0.0582,-0.0069,0.0058,0.016,1153,2019-08-07 16:46:15:504
-6.6516,-6.7023,0.6849,-0.324,-0.2576,0.0582,-0.0037,0.0122,0.0139,1159,2019-08-07 16:46:15:510
-6.6516,-6.7023,0.6849,-0.324,-0.2576,0.0582,-0.0037,0.0122,0.0139,1164,2019-08-07 16:46:15:515
-6.7377,-6.5782,0.5953,-0.1922,-0.3273,0.1308,-0.0048,0.0143,0.0097,1169,2019-08-07 16:46:15:520
-6.7377,-6.5782,0.5953,-0.1922,-0.3273,0.1308,-0.0048,0.0143,0.0097,1174,2019-08-07 16:46:15:525
-6.7377,-6.5782,0.5953,-0.1922,-0.3273,0.1308,-0.0016,0.0132,0.0075,1179,2019-08-07 16:46:15:530
-6.7138,-6.6784,0.6,-0.1922,-0.3273,0.1308,-0.0016,0.0132,0.0075,1184,2019-08-07 16:46:15:535
-6.7138,-6.6784,0.6,-0.1922,-0.3273,0.1308,-0.0016,0.0207,-0.001,1188,2019-08-07 16:46:15:539
-6.709,-6.6832,0.6802,-0.16,-0.1974,0.109,-0.0016,0.0207,-0.001,1194,2019-08-07 16:46:15:545
-6.709,-6.6832,0.6802,-0.16,-0.1974,0.109,6.0E-4,0.0175,-0.0042,1200,2019-08-07 16:46:15:551
-6.709,-6.6832,0.6802,-0.16,-0.1974,0.109,6.0E-4,0.0175,-0.0042,1204,2019-08-07 16:46:15:555
-6.6803,-6.6975,0.6519,-0.16,-0.1974,0.109,0.0091,0.0122,-0.0053,1209,2019-08-07 16:46:15:560
-6.6803,-6.6975,0.6519,-0.241,-0.2218,0.0838,0.0091,0.0122,-0.0053,1213,2019-08-07 16:46:15:564
-6.685,-6.6832,0.6849,-0.241,-0.2218,0.0838,0.0133,0.0122,-0.0074,1219,2019-08-07 16:46:15:570
-6.685,-6.6832,0.6849,-0.241,-0.2218,0.0838,0.0133,0.0122,-0.0074,1224,2019-08-07 16:46:15:575
-6.685,-6.6832,0.6849,-0.241,-0.2218,0.0838,0.0133,0.0015,-0.0031,1229,2019-08-07 16:46:15:580
-6.6563,-6.6736,0.7038,-0.2737,-0.2322,0.0181,0.0133,0.0015,-0.0031,1234,2019-08-07 16:46:15:585
-6.6563,-6.6736,0.7038,-0.2737,-0.2322,0.0181,0.0133,0.0015,-0.0031,1239,2019-08-07 16:46:15:590
-6.6037,-6.7309,0.7085,-0.3261,-0.1749,0.0149,0.007,-0.0177,0.0043,1244,2019-08-07 16:46:15:595
-6.6037,-6.7309,0.7085,-0.3261,-0.1749,0.0149,0.007,-0.0177,0.0043,1249,2019-08-07 16:46:15:600
-6.6037,-6.7309,0.7085,-0.3261,-0.1749,0.0149,0.007,-0.0177,0.0043,1254,2019-08-07 16:46:15:605
-6.6324,-6.7118,0.7132,-0.3261,-0.1749,0.0149,0.008,-0.039,0.0118,1258,2019-08-07 16:46:15:609
-6.6324,-6.7118,0.7132,-0.2977,-0.2265,0.0112,0.008,-0.039,0.0118,1264,2019-08-07 16:46:15:615
-6.5415,-6.6927,0.7179,-0.2977,-0.2265,0.0112,0.008,-0.0432,0.0203,1268,2019-08-07 16:46:15:619
-6.5415,-6.6927,0.7179,-0.2977,-0.2265,0.0112,0.008,-0.0432,0.0203,1274,2019-08-07 16:46:15:625
-6.4937,-6.6593,0.6472,-0.2977,-0.2265,0.0112,6.0E-4,-0.0454,0.0214,1280,2019-08-07 16:46:15:631
-6.4937,-6.6593,0.6472,-0.4764,-0.2862,0.0703,6.0E-4,-0.0454,0.0214,1284,2019-08-07 16:46:15:635
-6.4937,-6.6593,0.6472,-0.4764,-0.2862,0.0703,6.0E-4,-0.0454,0.0214,1289,2019-08-07 16:46:15:640
-6.5032,-6.6832,0.6189,-0.4764,-0.2862,0.0703,0.0027,-0.0134,0.0214,1294,2019-08-07 16:46:15:645
-6.5032,-6.6832,0.6189,-0.4764,-0.2862,0.0703,0.0027,-0.0134,0.0214,1299,2019-08-07 16:46:15:650
-6.5032,-6.6832,0.6189,-0.3873,-0.2985,0.1192,0.0091,0.0154,0.015,1304,2019-08-07 16:46:15:655
-6.5128,-6.6402,0.6378,-0.3873,-0.2985,0.1192,0.0091,0.0154,0.015,1309,2019-08-07 16:46:15:660
-6.5128,-6.6402,0.6378,-0.3787,-0.2929,0.1557,0.0208,0.0441,0.0171,1314,2019-08-07 16:46:15:665
-6.5702,-6.5829,0.6189,-0.3787,-0.2929,0.1557,0.0208,0.0441,0.0171,1319,2019-08-07 16:46:15:670
-6.5702,-6.5829,0.6189,-0.3787,-0.2929,0.1557,0.0208,0.0441,0.0171,1324,2019-08-07 16:46:15:675
-6.5702,-6.5829,0.6189,-0.3787,-0.2929,0.1557,0.0176,0.0526,0.0129,1329,2019-08-07 16:46:15:680
-6.5798,-6.5925,0.6943,-0.3572,-0.3053,0.0376,0.0176,0.0526,0.0129,1333,2019-08-07 16:46:15:684
-6.5798,-6.5925,0.6943,-0.3572,-0.3053,0.0376,0.007,0.0441,0.0203,1339,2019-08-07 16:46:15:690
-6.5798,-6.5925,0.6943,-0.3572,-0.3053,0.0376,0.007,0.0441,0.0203,1344,2019-08-07 16:46:15:695
-6.4936,-6.6068,0.7132,-0.3572,-0.3053,0.0376,0.0102,0.0324,0.0331,1349,2019-08-07 16:46:15:700
-6.4936,-6.6068,0.7132,-0.4376,-0.3496,0.0146,0.0102,0.0324,0.0331,1354,2019-08-07 16:46:15:705
-6.4936,-6.6068,0.7132,-0.4376,-0.3496,0.0146,0.0102,0.0324,0.0331,1358,2019-08-07 16:46:15:709
-6.4697,-6.5591,0.7368,-0.4376,-0.3496,0.0146,0.0016,0.0186,0.0469,1363,2019-08-07 16:46:15:714
-6.4697,-6.5591,0.7368,-0.4932,-0.3468,0.0135,0.0016,0.0186,0.0469,1369,2019-08-07 16:46:15:720
-6.4458,-6.4779,0.7132,-0.4932,-0.3468,0.0135,-0.0026,-0.007,0.0714,1374,2019-08-07 16:46:15:725
-6.4458,-6.4779,0.7132,-0.4932,-0.3468,0.0135,-0.0026,-0.007,0.0714,1379,2019-08-07 16:46:15:730
-6.4458,-6.4779,0.7132,-0.6461,-0.4279,0.0232,-0.0037,-0.0091,0.0991,1384,2019-08-07 16:46:15:735
-6.3118,-6.4349,0.6991,-0.6461,-0.4279,0.0232,-0.0037,-0.0091,0.0991,1389,2019-08-07 16:46:15:740
-6.3118,-6.4349,0.6991,-0.6461,-0.4279,0.0232,-0.0037,-0.0091,0.0991,1394,2019-08-07 16:46:15:745
-6.1779,-6.3633,0.6566,-0.6461,-0.4279,0.0232,-0.0101,5.0E-4,0.1322,1400,2019-08-07 16:46:15:751
-6.1779,-6.3633,0.6566,-0.791,-0.541,0.0931,-0.0101,5.0E-4,0.1322,1404,2019-08-07 16:46:15:755
-6.1779,-6.3633,0.6566,-0.791,-0.541,0.0931,-0.0101,5.0E-4,0.1322,1408,2019-08-07 16:46:15:759
-6.197,-6.2297,0.6048,-0.791,-0.541,0.0931,-0.0143,0.0484,0.1631,1414,2019-08-07 16:46:15:765
-6.197,-6.2297,0.6048,-0.791,-0.541,0.0931,-0.0143,0.0484,0.1631,1419,2019-08-07 16:46:15:770
-6.197,-6.2297,0.6048,-0.8391,-0.7132,0.1156,-0.0143,0.0942,0.2099,1424,2019-08-07 16:46:15:775
-6.1396,-6.096,0.6048,-0.8391,-0.7132,0.1156,-0.0143,0.0942,0.2099,1429,2019-08-07 16:46:15:780
-6.1396,-6.096,0.6048,-0.8391,-0.7132,0.1156,-0.0143,0.1176,0.2472,1434,2019-08-07 16:46:15:785
-6.0965,-5.9385,0.6755,-0.8391,-0.7132,0.1156,-0.0143,0.1176,0.2472,1439,2019-08-07 16:46:15:790
-6.0965,-5.9385,0.6755,-0.932,-0.9793,-0.0056,-0.009,0.124,0.2856,1444,2019-08-07 16:46:15:795
-6.0965,-5.9385,0.6755,-0.932,-0.9793,-0.0056,-0.009,0.124,0.2856,1449,2019-08-07 16:46:15:800
-5.9386,-5.6855,0.8876,-0.932,-0.9793,-0.0056,-0.008,0.0676,0.3804,1453,2019-08-07 16:46:15:804
-5.9386,-5.6855,0.8876,-0.932,-0.9793,-0.0056,-0.008,0.0676,0.3804,1459,2019-08-07 16:46:15:810
-5.9386,-5.6855,0.8876,-0.932,-0.9793,-0.0056,-0.008,0.0676,0.3804,1464,2019-08-07 16:46:15:815
-5.4841,-5.3131,1.4391,-1.7114,-1.5462,-0.8507,-0.008,-0.007,0.4698,1469,2019-08-07 16:46:15:820
-5.4841,-5.3131,1.4391,-1.7114,-1.5462,-0.8507,-0.008,-0.007,0.4698,1474,2019-08-07 16:46:15:825
-5.4841,-5.3131,1.4391,-1.7114,-1.5462,-0.8507,-0.0133,-0.2435,0.7287,1479,2019-08-07 16:46:15:830
-3.867,-4.535,2.2028,-3.9668,-2.2684,-1.7769,-0.0133,-0.2435,0.7287,1483,2019-08-07 16:46:15:834
-3.867,-4.535,2.2028,-3.9668,-2.2684,-1.7769,-0.0516,-0.6462,1.272,1489,2019-08-07 16:46:15:840
-2.1979,-3.9859,2.7306,-3.9668,-2.2684,-1.7769,-0.0516,-0.6462,1.272,1494,2019-08-07 16:46:15:845
-2.1979,-3.9859,2.7306,-3.9668,-2.2684,-1.7769,-0.091,-0.9817,1.811,1500,2019-08-07 16:46:15:851
0.3282,-3.1314,2.2215,-7.6584,-3.3278,-1.3371,-0.091,-0.9817,1.811,1504,2019-08-07 16:46:15:855
0.3282,-3.1314,2.2215,-7.6584,-3.3278,-1.3371,-0.091,-0.9817,1.811,1509,2019-08-07 16:46:15:860
0.3282,-3.1314,2.2215,-7.6584,-3.3278,-1.3371,-0.0932,-1.2118,2.2819,1514,2019-08-07 16:46:15:865
2.9451,-1.8425,2.8013,-9.8928,-4.2707,-1.5463,-0.0932,-1.2118,2.2819,1519,2019-08-07 16:46:15:870
2.9451,-1.8425,2.8013,-9.8928,-4.2707,-1.5463,0.0357,-1.6145,3.4664,1524,2019-08-07 16:46:15:875
2.9451,-1.8425,2.8013,-9.8928,-4.2707,-1.5463,0.0357,-1.6145,3.4664,1529,2019-08-07 16:46:15:880
4.6914,-0.6586,2.4713,-13.0999,-5.531,-0.8851,0.1359,-1.8254,4.5392,1534,2019-08-07 16:46:15:885
4.6914,-0.6586,2.4713,-13.0999,-5.531,-0.8851,0.1359,-1.8254,4.5392,1539,2019-08-07 16:46:15:890
6.141,0.2007,1.4202,-13.0999,-5.531,-0.8851,0.2211,-1.9128,5.6683,1544,2019-08-07 16:46:15:895
6.141,0.2007,1.4202,-13.0999,-5.531,-0.8851,0.2211,-1.9128,5.6683,1549,2019-08-07 16:46:15:900
6.141,0.2007,1.4202,-13.0999,-5.531,-0.8851,0.3404,-1.8414,6.6484,1554,2019-08-07 16:46:15:905
6.7486,1.2175,0.5952,-15.1119,-6.0697,1.0625,0.3404,-1.8414,6.6484,1559,2019-08-07 16:46:15:910
6.7486,1.2175,0.5952,-15.1119,-6.0697,1.0625,0.5375,-1.8467,7.4548,1564,2019-08-07 16:46:15:915
4.8301,2.4349,0.303,-15.1119,-6.0697,1.0625,0.5375,-1.8467,7.4548,1568,2019-08-07 16:46:15:919
4.8301,2.4349,0.303,-15.1119,-6.0697,1.0625,0.8123,-1.965,8.1845,1574,2019-08-07 16:46:15:925
4.8301,2.4349,0.303,-12.091,-6.5483,2.0469,0.8123,-1.965,8.1845,1579,2019-08-07 16:46:15:930
2.2227,3.2464,-0.1778,-12.091,-6.5483,2.0469,1.1095,-2.2238,8.879,1584,2019-08-07 16:46:15:935
2.2227,3.2464,-0.1778,-12.091,-6.5483,2.0469,1.1095,-2.2238,8.879,1589,2019-08-07 16:46:15:940
0.7109,3.3467,-0.0317,-12.091,-6.5483,2.0469,1.1095,-2.2238,8.879,1593,2019-08-07 16:46:15:944
0.7109,3.3467,-0.0317,-9.331,-5.1036,2.2232,1.5207,-2.7863,9.5906,1599,2019-08-07 16:46:15:950
0.7109,3.3467,-0.0317,-9.331,-5.1036,2.2232,1.5207,-2.7863,9.5906,1604,2019-08-07 16:46:15:955
-1.4037,3.2321,-0.2721,-9.331,-5.1036,2.2232,2.0363,-3.4531,10.1627,1608,2019-08-07 16:46:15:959
-1.4037,3.2321,-0.2721,-9.331,-5.1036,2.2232,2.0363,-3.4531,10.1627,1614,2019-08-07 16:46:15:965
-2.1166,3.1987,-0.8189,-7.2163,-2.8481,3.9659,2.5647,-3.7418,10.5153,1620,2019-08-07 16:46:15:971
-2.1166,3.1987,-0.8189,-7.2163,-2.8481,3.9659,2.5647,-3.7418,10.5153,1623,2019-08-07 16:46:15:974
-2.1166,3.1987,-0.8189,-6.7713,-2.2577,3.9926,3.2411,-3.7919,10.7081,1629,2019-08-07 16:46:15:980
-2.6476,4.3778,-0.1024,-6.7713,-2.2577,3.9926,3.2411,-3.7919,10.7081,1634,2019-08-07 16:46:15:985
-2.6476,4.3778,-0.1024,-6.7713,-2.2577,3.9926,3.2411,-3.7919,10.7081,1639,2019-08-07 16:46:15:990
-2.6476,4.3778,-0.1024,-6.7713,-2.2577,3.9926,4.1508,-3.8547,10.8594,1643,2019-08-07 16:46:15:994
-3.9011,6.4592,0.0909,-4.1238,-3.2397,4.0698,4.1508,-3.8547,10.8594,1649,2019-08-07 16:46:16:000
-3.9011,6.4592,0.0909,-4.1238,-3.2397,4.0698,4.8859,-3.7376,10.9116,1654,2019-08-07 16:46:16:005
-4.7527,10.4978,0.0343,-4.1238,-3.2397,4.0698,4.8859,-3.7376,10.9116,1659,2019-08-07 16:46:16:010
-4.7527,10.4978,0.0343,-4.1238,-3.2397,4.0698,5.6209,-3.3125,10.7795,1664,2019-08-07 16:46:16:015
-6.2023,18.4749,3.6121,-1.0897,-10.8638,1.5843,5.6209,-3.3125,10.7795,1669,2019-08-07 16:46:16:020
-6.2023,18.4749,3.6121,-1.0897,-10.8638,1.5843,5.6209,-3.3125,10.7795,1674,2019-08-07 16:46:16:025
-6.2023,18.4749,3.6121,-1.0897,-10.8638,1.5843,6.4688,-2.8672,10.266,1679,2019-08-07 16:46:16:030
-8.1065,25.6452,6.5582,-1.0897,-10.8638,1.5843,6.4688,-2.8672,10.266,1684,2019-08-07 16:46:16:035
-8.1065,25.6452,6.5582,5.2708,-24.4616,-3.3948,6.9152,-2.7319,9.1496,1689,2019-08-07 16:46:16:040
-8.1065,25.6452,6.5582,5.2708,-24.4616,-3.3948,6.9152,-2.7319,9.1496,1694,2019-08-07 16:46:16:045
-14.8044,38.4772,6.5771,5.2708,-24.4616,-3.3948,6.5168,-2.5807,7.7978,1699,2019-08-07 16:46:16:050
-14.8044,38.4772,6.5771,5.2708,-24.4616,-3.3948,6.5168,-2.5807,7.7978,1705,2019-08-07 16:46:16:056
-22.4687,40.0096,1.1043,18.7191,-31.3198,1.477,4.9125,-2.8821,6.5355,1709,2019-08-07 16:46:16:060
-22.4687,40.0096,1.1043,18.7191,-31.3198,1.477,4.9125,-2.8821,6.5355,1714,2019-08-07 16:46:16:065
-22.4687,40.0096,1.1043,18.7191,-31.3198,1.477,4.9125,-2.8821,6.5355,1719,2019-08-07 16:46:16:070
-18.5887,27.2587,-5.7873,18.7191,-31.3198,1.477,1.3002,-3.7312,5.7994,1723,2019-08-07 16:46:16:074
-18.5887,27.2587,-5.7873,10.2573,-13.2563,6.6752,1.3002,-3.7312,5.7994,1729,2019-08-07 16:46:16:080
-5.5517,17.5058,0.8356,10.2573,-13.2563,6.6752,-1.5824,-4.61,4.9131,1734,2019-08-07 16:46:16:085
-5.5517,17.5058,0.8356,10.2573,-13.2563,6.6752,-1.5824,-4.61,4.9131,1738,2019-08-07 16:46:16:089
-5.5517,17.5058,0.8356,10.2573,-13.2563,6.6752,-2.9502,-2.9237,2.9647,1744,2019-08-07 16:46:16:095
7.1457,11.8632,34.1481,-8.7154,-2.6352,-31.2128,-2.9502,-2.9237,2.9647,1749,2019-08-07 16:46:16:100
7.1457,11.8632,34.1481,-8.7154,-2.6352,-31.2128,-2.9502,-2.9237,2.9647,1754,2019-08-07 16:46:16:105
2.0648,8.383,19.9643,-3.5002,0.8643,-17.021,1.8595,-0.644,0.1833,1759,2019-08-07 16:46:16:110
2.0648,8.383,19.9643,-3.5002,0.8643,-17.021,3.4616,0.6162,-0.6987,1765,2019-08-07 16:46:16:116
2.0648,8.383,19.9643,-3.5002,0.8643,-17.021,3.4616,0.6162,-0.6987,1769,2019-08-07 16:46:16:120
2.0648,8.383,19.9643,-3.5002,0.8643,-17.021,3.4616,0.6162,-0.6987,1774,2019-08-07 16:46:16:125
-5.7191,16.3219,-1.2761,3.8105,-9.3624,3.0547,1.7061,2.148,-1.079,1779,2019-08-07 16:46:16:130
-5.7191,16.3219,-1.2761,3.8105,-9.3624,3.0547,1.7061,2.148,-1.079,1784,2019-08-07 16:46:16:135
-5.8244,18.6229,2.0659,3.8105,-9.3624,3.0547,-0.8985,2.9203,-1.6926,1789,2019-08-07 16:46:16:140
-5.8244,18.6229,2.0659,3.8105,-9.3624,3.0547,-0.8985,2.9203,-1.6926,1794,2019-08-07 16:46:16:145
-5.8244,18.6229,2.0659,6.4987,-5.0044,-4.4965,-1.8338,2.8745,-2.0207,1799,2019-08-07 16:46:16:150
-9.0824,13.3669,8.835,6.4987,-5.0044,-4.4965,-1.8338,2.8745,-2.0207,1804,2019-08-07 16:46:16:155
-9.0824,13.3669,8.835,6.4987,-5.0044,-4.4965,-1.8338,2.8745,-2.0207,1809,2019-08-07 16:46:16:160
-9.3791,11.8011,21.4821,6.4987,-5.0044,-4.4965,-3.1963,2.5613,-2.6098,1814,2019-08-07 16:46:16:165
-9.3791,11.8011,21.4821,4.9655,-0.3873,-17.5574,-3.1963,2.5613,-2.6098,1819,2019-08-07 16:46:16:170
-9.3791,11.8011,21.4821,4.9655,-0.3873,-17.5574,-1.0189,2.6434,-3.1201,1824,2019-08-07 16:46:16:175
-8.4509,9.3617,13.2141,4.9655,-0.3873,-17.5574,-1.0189,2.6434,-3.1201,1829,2019-08-07 16:46:16:180
-8.4509,9.3617,13.2141,4.9655,-0.3873,-17.5574,-1.0498,2.7424,-3.7071,1834,2019-08-07 16:46:16:185
-8.1447,13.429,3.942,4.6109,-4.7368,-1.0793,-1.0498,2.7424,-3.7071,1839,2019-08-07 16:46:16:190
-8.1447,13.429,3.942,4.6109,-4.7368,-1.0793,-1.8573,2.8724,-4.4155,1844,2019-08-07 16:46:16:195
-8.1447,13.429,3.942,4.6109,-4.7368,-1.0793,-1.8573,2.8724,-4.4155,1849,2019-08-07 16:46:16:200
-10.4124,14.1307,1.7454,4.6109,-4.7368,-1.0793,-3.0056,3.1398,-5.2751,1854,2019-08-07 16:46:16:205
-10.4124,14.1307,1.7454,4.6109,-4.7368,-1.0793,-3.0056,3.1398,-5.2751,1859,2019-08-07 16:46:16:210
-12.1252,13.3335,4.6303,7.2742,-5.4022,-0.731,-3.5372,3.1994,-5.7385,1864,2019-08-07 16:46:16:215
-12.1252,13.3335,4.6303,7.2742,-5.4022,-0.731,-3.5372,3.1994,-5.7385,1869,2019-08-07 16:46:16:220
-12.1252,13.3335,4.6303,7.2742,-5.4022,-0.731,-3.5372,3.1994,-5.7385,1873,2019-08-07 16:46:16:224
-12.5988,12.5219,8.1798,7.2742,-5.4022,-0.731,-3.3934,3.1366,-6.122,1879,2019-08-07 16:46:16:230
-12.5988,12.5219,8.1798,6.6652,-4.9868,-4.8095,-3.3934,3.1366,-6.122,1884,2019-08-07 16:46:16:235
-11.8286,11.6292,6.8033,6.6652,-4.9868,-4.8095,-2.5571,3.4892,-6.5449,1888,2019-08-07 16:46:16:239
-11.8286,11.6292,6.8033,5.5258,-4.5117,-2.2729,-2.5571,3.4892,-6.5449,1894,2019-08-07 16:46:16:245
-11.8286,11.6292,6.8033,5.5258,-4.5117,-2.2729,-1.9862,3.7097,-6.9923,1899,2019-08-07 16:46:16:250
-11.5846,10.5838,1.769,5.5258,-4.5117,-2.2729,-1.9862,3.7097,-6.9923,1903,2019-08-07 16:46:16:254
-11.5846,10.5838,1.769,5.5258,-4.5117,-2.2729,-1.9201,3.992,-7.5068,1909,2019-08-07 16:46:16:260
-12.1491,9.6863,-0.7529,4.5504,-4.2282,3.2977,-1.9201,3.992,-7.5068,1914,2019-08-07 16:46:16:265
-12.1491,9.6863,-0.7529,4.5504,-4.2282,3.2977,-1.9201,3.992,-7.5068,1920,2019-08-07 16:46:16:271
-12.1491,9.6863,-0.7529,4.5504,-4.2282,3.2977,-2.2226,4.1401,-7.8552,1924,2019-08-07 16:46:16:275
-12.7806,6.822,-0.2627,4.5504,-4.2282,3.2977,-2.2226,4.1401,-7.8552,1929,2019-08-07 16:46:16:280
-12.7806,6.822,-0.2627,4.2894,-1.9028,2.2181,-2.4208,4.0069,-7.966,1935,2019-08-07 16:46:16:286
-12.7806,6.822,-0.2627,4.2894,-1.9028,2.2181,-2.4208,4.0069,-7.966,1938,2019-08-07 16:46:16:289
-12.5797,4.0389,2.2969,3.718,-0.4657,-0.0747,-2.3718,3.5904,-7.9393,1944,2019-08-07 16:46:16:295
-12.5797,4.0389,2.2969,3.718,-0.4657,-0.0747,-2.3718,3.5904,-7.9393,1950,2019-08-07 16:46:16:301
-12.5797,4.0389,2.2969,3.718,-0.4657,-0.0747,-2.3718,3.5904,-7.9393,1953,2019-08-07 16:46:16:304
-11.6898,2.2487,4.0128,3.718,-0.4657,-0.0747,-1.6538,2.8096,-7.6666,1959,2019-08-07 16:46:16:310
-11.6898,2.2487,4.0128,1.377,-0.03,-1.2209,-1.6538,2.8096,-7.6666,1963,2019-08-07 16:46:16:314
-9.135,2.1723,1.8491,1.377,-0.03,-1.2209,-1.0903,2.5049,-7.4536,1969,2019-08-07 16:46:16:320
-9.135,2.1723,1.8491,1.377,-0.03,-1.2209,-1.0903,2.5049,-7.4536,1974,2019-08-07 16:46:16:325
-9.135,2.1723,1.8491,1.377,-0.03,-1.2209,-0.841,2.0692,-7.3023,1979,2019-08-07 16:46:16:330
-6.9439,2.4874,-0.5408,-2.7586,-1.9122,1.8705,-0.841,2.0692,-7.3023,1984,2019-08-07 16:46:16:335
-6.9439,2.4874,-0.5408,-2.7586,-1.9122,1.8705,-0.841,2.0692,-7.3023,1988,2019-08-07 16:46:16:339
-5.9918,2.5303,-0.324,-2.7586,-1.9122,1.8705,-0.8101,1.9946,-7.2267,1994,2019-08-07 16:46:16:345
-5.9918,2.5303,-0.324,-2.7586,-1.9122,1.8705,-0.8101,1.9946,-7.2267,1999,2019-08-07 16:46:16:350
-5.9918,2.5303,-0.324,-3.9588,-2.9017,0.3123,-0.5853,2.0436,-7.036,2004,2019-08-07 16:46:16:355
-5.6378,1.7665,1.3165,-3.9588,-2.9017,0.3123,-0.5853,2.0436,-7.036,2009,2019-08-07 16:46:16:360
-5.6378,1.7665,1.3165,-4.2523,-2.8684,-0.6482,-0.0804,2.0266,-6.8006,2014,2019-08-07 16:46:16:365
-5.6378,1.7665,1.3165,-4.2523,-2.8684,-0.6482,-0.0804,2.0266,-6.8006,2019,2019-08-07 16:46:16:370
-5.4368,0.8404,0.3643,-4.2523,-2.8684,-0.6482,-0.0804,2.0266,-6.8006,2024,2019-08-07 16:46:16:375
-5.4368,0.8404,0.3643,-4.2523,-2.8684,-0.6482,0.2946,1.9435,-6.5066,2029,2019-08-07 16:46:16:380
-5.6378,0.6733,-0.5455,-3.767,-3.4427,0.8876,0.2946,1.9435,-6.5066,2034,2019-08-07 16:46:16:385
-5.6378,0.6733,-0.5455,-3.767,-3.4427,0.8876,0.4778,1.7869,-6.1401,2040,2019-08-07 16:46:16:391
-5.6378,0.6733,-0.5455,-3.767,-3.4427,0.8876,0.4778,1.7869,-6.1401,2043,2019-08-07 16:46:16:394
-6.0971,0.8452,0.6612,-3.767,-3.4427,0.8876,0.5694,1.5312,-5.8418,2049,2019-08-07 16:46:16:400
-6.0971,0.8452,0.6612,-2.8974,-4.691,-1.4662,0.5694,1.5312,-5.8418,2054,2019-08-07 16:46:16:405
-6.0109,0.6972,1.6794,-2.8974,-4.691,-1.4662,0.6823,1.0913,-5.4754,2059,2019-08-07 16:46:16:410
-6.0109,0.6972,1.6794,-2.8974,-4.691,-1.4662,0.6823,1.0913,-5.4754,2064,2019-08-07 16:46:16:415
-6.0109,0.6972,1.6794,-2.8974,-4.691,-1.4662,0.6823,1.0913,-5.4754,2068,2019-08-07 16:46:16:419
-4.6905,0.1721,1.5427,-3.8792,-4.9466,-1.5574,0.8091,0.5895,-4.9651,2074,2019-08-07 16:46:16:425
-4.6905,0.1721,1.5427,-3.8792,-4.9466,-1.5574,0.8091,0.5895,-4.9651,2078,2019-08-07 16:46:16:429
-4.6905,0.1721,1.5427,-3.8792,-4.9466,-1.5574,0.8517,0.2849,-4.571,2084,2019-08-07 16:46:16:435
-3.6762,0.1243,0.9629,-3.8792,-4.9466,-1.5574,0.8517,0.2849,-4.571,2088,2019-08-07 16:46:16:439
-3.6762,0.1243,0.9629,-4.7218,-5.6137,-0.9676,0.8528,0.124,-4.1672,2094,2019-08-07 16:46:16:445
-3.6762,0.1243,0.9629,-4.7218,-5.6137,-0.9676,0.8528,0.124,-4.1672,2098,2019-08-07 16:46:16:449
-3.1739,0.0814,1.0713,-4.7218,-5.6137,-0.9676,0.84,-0.0326,-3.625,2104,2019-08-07 16:46:16:455
-3.1739,0.0814,1.0713,-4.7218,-5.6137,-0.9676,0.84,-0.0326,-3.625,2108,2019-08-07 16:46:16:459
-3.0351,-0.2671,0.9346,-4.6801,-5.7894,-0.7644,0.7942,-0.1029,-3.1531,2114,2019-08-07 16:46:16:465
-3.0351,-0.2671,0.9346,-4.6801,-5.7894,-0.7644,0.7942,-0.1029,-3.1531,2119,2019-08-07 16:46:16:470
-3.0351,-0.2671,0.9346,-4.6801,-5.7894,-0.7644,0.7942,-0.1029,-3.1531,2124,2019-08-07 16:46:16:475
-2.9251,-1.241,0.9865,-4.6801,-5.7894,-0.7644,0.7175,-0.1295,-2.6056,2129,2019-08-07 16:46:16:480
-2.9251,-1.241,0.9865,-4.3048,-4.5821,-0.8388,0.6749,-0.137,-2.2136,2135,2019-08-07 16:46:16:486
-3.2121,-2.2769,1.3306,-4.3048,-4.5821,-0.8388,0.6749,-0.137,-2.2136,2139,2019-08-07 16:46:16:490
-3.2121,-2.2769,1.3306,-4.3048,-4.5821,-0.8388,0.6749,-0.137,-2.2136,2143,2019-08-07 16:46:16:494
-3.2121,-2.2769,1.3306,-4.3048,-4.5821,-0.8388,0.6482,-0.1849,-1.8556,2150,2019-08-07 16:46:16:501
-3.5088,-3.0073,1.1845,-3.5281,-3.5479,-0.5795,0.6482,-0.1849,-1.8556,2154,2019-08-07 16:46:16:505
-3.5088,-3.0073,1.1845,-3.5281,-3.5479,-0.5795,0.6046,-0.2233,-1.5424,2159,2019-08-07 16:46:16:510
-3.7432,-3.6136,0.4491,-3.2655,-3.2326,0.046,0.6046,-0.2233,-1.5424,2165,2019-08-07 16:46:16:516
-3.7432,-3.6136,0.4491,-3.2655,-3.2326,0.046,0.6046,-0.2233,-1.5424,2169,2019-08-07 16:46:16:520
-3.7432,-3.6136,0.4491,-3.2655,-3.2326,0.046,0.464,-0.2169,-1.1781,2174,2019-08-07 16:46:16:525
-3.6427,-4.11,0.4963,-3.2655,-3.2326,0.046,0.464,-0.2169,-1.1781,2179,2019-08-07 16:46:16:530
-3.6427,-4.11,0.4963,-3.2594,-2.5966,0.2356,0.3968,-0.1551,-0.9981,2184,2019-08-07 16:46:16:535
-3.6427,-4.11,0.4963,-3.2594,-2.5966,0.2356,0.3968,-0.1551,-0.9981,2189,2019-08-07 16:46:16:540
-3.3939,-4.8452,0.0579,-3.2594,-2.5966,0.2356,0.3478,0.0026,-0.8362,2194,2019-08-07 16:46:16:545
-3.3939,-4.8452,0.0579,-3.2594,-2.5966,0.2356,0.3478,0.0026,-0.8362,2200,2019-08-07 16:46:16:551
-3.8915,-5.3178,-0.0411,-2.8232,-1.8062,0.6713,0.3031,0.2178,-0.7062,2203,2019-08-07 16:46:16:554
-3.8915,-5.3178,-0.0411,-2.8232,-1.8062,0.6713,0.3031,0.2178,-0.7062,2209,2019-08-07 16:46:16:560
-3.8915,-5.3178,-0.0411,-2.8232,-1.8062,0.6713,0.2573,0.3765,-0.589,2214,2019-08-07 16:46:16:565
-4.7814,-5.8382,0.2653,-2.8232,-1.8062,0.6713,0.2573,0.3765,-0.589,2219,2019-08-07 16:46:16:570
-4.7814,-5.8382,0.2653,-2.8232,-1.8062,0.6713,0.2253,0.3903,-0.4963,2224,2019-08-07 16:46:16:575
-4.7814,-5.8382,0.2653,-1.3996,-1.0503,0.2558,0.2253,0.3903,-0.4963,2229,2019-08-07 16:46:16:580
-5.4416,-6.3394,0.5151,-1.3996,-1.0503,0.2558,0.1753,0.2998,-0.4378,2234,2019-08-07 16:46:16:585
-5.4416,-6.3394,0.5151,-1.3996,-1.0503,0.2558,0.1753,0.2998,-0.4378,2239,2019-08-07 16:46:16:590
-5.4416,-6.3394,0.5151,-1.3996,-1.0503,0.2558,0.1753,0.2998,-0.4378,2244,2019-08-07 16:46:16:595
-6.0109,-6.6163,0.7272,-0.5575,-0.645,-0.1228,0.0762,0.0622,-0.3898,2250,2019-08-07 16:46:16:601
-6.0109,-6.6163,0.7272,-0.5575,-0.645,-0.1228,0.0762,0.0622,-0.3898,2253,2019-08-07 16:46:16:604
-6.0157,-6.6545,1.1562,-0.5575,-0.645,-0.1228,-0.0026,-0.2169,-0.327,2259,2019-08-07 16:46:16:610
-6.0157,-6.6545,1.1562,-0.5575,-0.645,-0.1228,-0.0026,-0.2169,-0.327,2264,2019-08-07 16:46:16:615
-6.0157,-6.6545,1.1562,-0.5862,-0.6758,-0.3477,-0.0026,-0.2169,-0.327,2269,2019-08-07 16:46:16:620
-5.7143,-6.6975,0.7037,-0.5862,-0.6758,-0.3477,-0.0516,-0.4693,-0.2396,2273,2019-08-07 16:46:16:624
-5.7143,-6.6975,0.7037,-0.5862,-0.6758,-0.3477,-0.0889,-0.5684,-0.1896,2279,2019-08-07 16:46:16:630
-5.7143,-6.6975,0.7037,-0.5862,-0.6758,-0.3477,-0.0889,-0.5684,-0.1896,2284,2019-08-07 16:46:16:635
-5.1545,-6.7977,0.6141,-1.3202,-0.54,0.073,-0.0889,-0.5684,-0.1896,2288,2019-08-07 16:46:16:639
-5.1545,-6.7977,0.6141,-1.3202,-0.54,0.073,-0.1209,-0.594,-0.1171,2295,2019-08-07 16:46:16:646
-4.7479,-7.003,0.501,-1.7101,-0.3466,0.2161,-0.1209,-0.594,-0.1171,2299,2019-08-07 16:46:16:650
-4.7479,-7.003,0.501,-1.7101,-0.3466,0.2161,-0.1262,-0.4299,-0.0713,2304,2019-08-07 16:46:16:655
-4.7479,-7.003,0.501,-1.7101,-0.3466,0.2161,-0.1262,-0.4299,-0.0713,2309,2019-08-07 16:46:16:660
-4.3508,-7.0316,0.1239,-1.7101,-0.3466,0.2161,-0.1262,-0.4299,-0.0713,2314,2019-08-07 16:46:16:665
-4.3508,-7.0316,0.1239,-2.1394,-0.3086,0.6821,-0.1283,-0.1892,-0.0457,2319,2019-08-07 16:46:16:670
-4.3508,-7.0316,0.1239,-2.1394,-0.3086,0.6821,-0.1283,-0.1892,-0.0457,2324,2019-08-07 16:46:16:675
-4.4656,-7.1128,0.0862,-2.1394,-0.3086,0.6821,-0.1177,0.0995,-0.033,2328,2019-08-07 16:46:16:679
-4.4656,-7.1128,0.0862,-2.1394,-0.3086,0.6821,-0.1177,0.0995,-0.033,2334,2019-08-07 16:46:16:685
-5.3555,-7.1892,0.4915,-1.2296,-0.226,0.3607,-0.106,0.401,-0.0031,2339,2019-08-07 16:46:16:690
-5.3555,-7.1892,0.4915,-1.2296,-0.226,0.3607,-0.106,0.401,-0.0031,2344,2019-08-07 16:46:16:695
-5.3555,-7.1892,0.4915,-1.2296,-0.226,0.3607,-0.0932,0.4681,0.0224,2349,2019-08-07 16:46:16:700
-6.1688,-7.1366,0.7367,-1.2296,-0.226,0.3607,-0.0932,0.4681,0.0224,2354,2019-08-07 16:46:16:705
-6.1688,-7.1366,0.7367,0.0644,-0.2356,-0.1115,-0.09,0.3712,0.0565,2358,2019-08-07 16:46:16:709
-6.9486,-7.1128,1.0525,0.0644,-0.2356,-0.1115,-0.09,0.3712,0.0565,2364,2019-08-07 16:46:16:715
-6.9486,-7.1128,1.0525,0.0644,-0.2356,-0.1115,-0.0996,0.0825,0.1013,2370,2019-08-07 16:46:16:721
-6.9486,-7.1128,1.0525,0.0644,-0.2356,-0.1115,-0.0996,0.0825,0.1013,2373,2019-08-07 16:46:16:724
-7.2022,-7.1176,1.3777,0.7539,-0.2508,-0.7759,-0.0996,0.0825,0.1013,2379,2019-08-07 16:46:16:730
-7.2022,-7.1176,1.3777,0.7539,-0.2508,-0.7759,-0.106,-0.236,0.1417,2384,2019-08-07 16:46:16:735
-6.8051,-7.1748,0.8309,0.7539,-0.2508,-0.7759,-0.106,-0.236,0.1417,2389,2019-08-07 16:46:16:740
-6.8051,-7.1748,0.8309,0.7539,-0.2508,-0.7759,-0.1369,-0.546,0.178,2394,2019-08-07 16:46:16:745
-6.8051,-7.1748,0.8309,-0.0949,-0.1147,-0.136,-0.1369,-0.546,0.178,2400,2019-08-07 16:46:16:751
-6.1688,-7.2703,0.7744,-0.0949,-0.1147,-0.136,-0.1369,-0.546,0.178,2403,2019-08-07 16:46:16:754
-6.1688,-7.2703,0.7744,-0.0949,-0.1147,-0.136,-0.1443,-0.6813,0.1876,2409,2019-08-07 16:46:16:760
-5.5947,-7.3706,0.4067,-0.0949,-0.1147,-0.136,-0.1358,-0.6366,0.1812,2414,2019-08-07 16:46:16:765
-5.5947,-7.3706,0.4067,-1.1629,0.0911,0.579,-0.1358,-0.6366,0.1812,2419,2019-08-07 16:46:16:770
-5.5947,-7.3706,0.4067,-1.1629,0.0911,0.579,-0.1358,-0.6366,0.1812,2424,2019-08-07 16:46:16:775
-4.9201,-7.4851,-0.3004,-1.1629,0.0911,0.579,-0.1358,-0.4342,0.162,2429,2019-08-07 16:46:16:780
-4.9201,-7.4851,-0.3004,-1.1629,0.0911,0.579,-0.1358,-0.4342,0.162,2434,2019-08-07 16:46:16:785
-4.7766,-7.5663,-0.3098,-1.7173,0.2492,1.0346,-0.1251,-0.121,0.1204,2439,2019-08-07 16:46:16:790
-4.7766,-7.5663,-0.3098,-1.7173,0.2492,1.0346,-0.1251,-0.121,0.1204,2444,2019-08-07 16:46:16:795
-4.7766,-7.5663,-0.3098,-1.7173,0.2492,1.0346,-0.1006,0.1837,0.0864,2449,2019-08-07 16:46:16:800
-5.3794,-7.5186,-0.0411,-1.7173,0.2492,1.0346,-0.1006,0.1837,0.0864,2454,2019-08-07 16:46:16:805
-5.3794,-7.5186,-0.0411,-0.6693,0.1002,0.6386,-0.0793,0.4138,0.0682,2459,2019-08-07 16:46:16:810
-5.3794,-7.5186,-0.0411,-0.6693,0.1002,0.6386,-0.0793,0.4138,0.0682,2465,2019-08-07 16:46:16:816
-6.0922,-7.3324,0.3454,-0.6693,0.1002,0.6386,-0.0772,0.4191,0.0565,2469,2019-08-07 16:46:16:820
-6.0922,-7.3324,0.3454,-0.6693,0.1002,0.6386,-0.0772,0.4191,0.0565,2474,2019-08-07 16:46:16:825
-6.9199,-7.0889,0.8875,0.4022,-0.2174,-0.2757,-0.0879,0.2955,0.0672,2479,2019-08-07 16:46:16:830
-6.9199,-7.0889,0.8875,0.4022,-0.2174,-0.2757,-0.0879,0.2955,0.0672,2484,2019-08-07 16:46:16:835
-6.9199,-7.0889,0.8875,0.4022,-0.2174,-0.2757,-0.0879,0.2955,0.0672,2488,2019-08-07 16:46:16:839
-7.1256,-7.0125,0.9394,0.4022,-0.2174,-0.2757,-0.1155,0.0026,0.0938,2494,2019-08-07 16:46:16:845
-7.1256,-7.0125,0.9394,0.5767,-0.2282,-0.4281,-0.1155,0.0026,0.0938,2499,2019-08-07 16:46:16:850
-7.1256,-7.1032,0.7272,0.5767,-0.2282,-0.4281,-0.1454,-0.3,0.1151,2504,2019-08-07 16:46:16:855
-6.7716,-7.1032,0.7272,0.5767,-0.2282,-0.4281,-0.1454,-0.3,0.1151,2509,2019-08-07 16:46:16:860
-6.7716,-7.1032,0.7272,0.5767,-0.2282,-0.4281,-0.1528,-0.4491,0.1172,2514,2019-08-07 16:46:16:865
-6.3272,-7.1461,0.5291,-0.3119,-0.0945,0.1489,-0.1528,-0.4491,0.1172,2520,2019-08-07 16:46:16:871
-6.3272,-7.1461,0.5291,-0.3119,-0.0945,0.1489,-0.1528,-0.4491,0.1172,2523,2019-08-07 16:46:16:874
-5.8632,-7.318,0.1662,-0.3119,-0.0945,0.1489,-0.1528,-0.4757,0.1183,2529,2019-08-07 16:46:16:880
-5.8632,-7.318,0.1662,-0.3119,-0.0945,0.1489,-0.1528,-0.4757,0.1183,2533,2019-08-07 16:46:16:884
-5.8632,-7.318,0.1662,-0.9844,0.1204,0.7576,-0.1443,-0.3756,0.1055,2539,2019-08-07 16:46:16:890
-5.4565,-7.4517,-0.0978,-0.9844,0.1204,0.7576,-0.1443,-0.3756,0.1055,2544,2019-08-07 16:46:16:895
-5.4565,-7.4517,-0.0978,-0.9844,0.1204,0.7576,-0.1251,-0.2158,0.08,2549,2019-08-07 16:46:16:900
-5.3848,-7.571,-0.2722,-0.9844,0.1204,0.7576,-0.1251,-0.2158,0.08,2554,2019-08-07 16:46:16:905
-5.3848,-7.571,-0.2722,-0.9844,0.1204,0.7576,-0.0974,-0.007,0.0469,2558,2019-08-07 16:46:16:909
-5.3848,-7.571,-0.2722,-1.1064,0.3373,0.9783,-0.0974,-0.007,0.0469,2564,2019-08-07 16:46:16:915
-5.6288,-7.5567,-0.2439,-1.1064,0.3373,0.9783,-0.0974,-0.007,0.0469,2569,2019-08-07 16:46:16:920
-5.6288,-7.5567,-0.2439,-1.1064,0.3373,0.9783,-0.0506,0.2881,0.016,2574,2019-08-07 16:46:16:925
-6.1263,-7.5089,0.2086,-0.4334,0.2396,0.3929,-0.0506,0.2881,0.016,2578,2019-08-07 16:46:16:929
-6.1263,-7.5089,0.2086,-0.4334,0.2396,0.3929,-0.0261,0.3797,-0.0053,2584,2019-08-07 16:46:16:935
-6.1263,-7.5089,0.2086,-0.4334,0.2396,0.3929,-0.0261,0.3797,-0.0053,2588,2019-08-07 16:46:16:939
-6.5091,-7.4182,0.5433,-0.0518,0.1476,0.0308,-0.0154,0.3626,-0.0117,2594,2019-08-07 16:46:16:945
-6.5091,-7.4182,0.5433,-0.0518,0.1476,0.0308,-0.0154,0.3626,-0.0117,2600,2019-08-07 16:46:16:951
-6.5091,-7.4182,0.5433,-0.0518,0.1476,0.0308,-0.0133,0.238,-0.0127,2604,2019-08-07 16:46:16:955
-6.8296,-7.3037,0.515,-0.0518,0.1476,0.0308,-0.0133,0.238,-0.0127,2608,2019-08-07 16:46:16:959
-6.8296,-7.3037,0.515,0.3148,-0.0016,-0.0596,-0.0218,0.0974,-0.0063,2614,2019-08-07 16:46:16:965
-6.9732,-7.3084,0.7412,0.3148,-0.0016,-0.0596,-0.0218,0.0974,-0.0063,2619,2019-08-07 16:46:16:970
-6.9732,-7.3084,0.7412,0.3148,-0.0016,-0.0596,-0.0218,0.0974,-0.0063,2624,2019-08-07 16:46:16:975
-6.6718,-7.2989,0.7742,0.1091,0.0271,-0.2373,-0.0186,-0.1423,-0.0074,2630,2019-08-07 16:46:16:981
-6.6718,-7.2989,0.7742,0.1091,0.0271,-0.2373,-0.0186,-0.1423,-0.0074,2634,2019-08-07 16:46:16:985
-6.6718,-7.2989,0.7742,0.1091,0.0271,-0.2373,-0.0165,-0.3149,0.0086,2639,2019-08-07 16:46:16:990
-6.2077,-7.2941,0.3594,0.1091,0.0271,-0.2373,-0.0165,-0.3149,0.0086,2644,2019-08-07 16:46:16:995
-6.2077,-7.2941,0.3594,0.1091,0.0271,-0.2373,-0.0197,-0.3362,0.0171,2648,2019-08-07 16:46:16:999
-6.2077,-7.2941,0.3594,-0.6433,0.0554,0.2806,-0.0197,-0.3362,0.0171,2654,2019-08-07 16:46:17:005
-5.8345,-7.3657,0.3877,-0.6433,0.0554,0.2806,-0.0016,-0.3074,0.0118,2659,2019-08-07 16:46:17:010
-5.8345,-7.3657,0.3877,-0.6433,0.0554,0.2806,-0.0016,-0.3074,0.0118,2664,2019-08-07 16:46:17:015
-5.8345,-7.3657,0.3877,-0.6433,0.0554,0.2806,-0.0016,-0.3074,0.0118,2669,2019-08-07 16:46:17:020
-5.8441,-7.2464,0.3971,-0.6709,0.0389,0.1861,0.0368,-0.2158,0.0011,2673,2019-08-07 16:46:17:024
-5.8441,-7.2464,0.3971,-0.6709,0.0389,0.1861,0.0368,-0.2158,0.0011,2680,2019-08-07 16:46:17:031
-5.8441,-7.2464,0.3971,-0.6709,0.0389,0.1861,0.0389,-0.154,0.0054,2683,2019-08-07 16:46:17:034
-5.7915,-7.2321,0.2039,-0.6709,0.0389,0.1861,0.0389,-0.154,0.0054,2689,2019-08-07 16:46:17:040
-5.7915,-7.2321,0.2039,-0.6949,-0.0301,0.3141,0.04,-0.0826,0.0043,2693,2019-08-07 16:46:17:044
-6.0116,-7.2082,0.4584,-0.6949,-0.0301,0.3141,0.04,-0.0826,0.0043,2699,2019-08-07 16:46:17:050
-6.0116,-7.2082,0.4584,-0.6949,-0.0301,0.3141,0.0538,-0.0443,1.0E-4,2704,2019-08-07 16:46:17:055
-6.0116,-7.2082,0.4584,-0.6949,-0.0301,0.3141,0.0538,-0.0443,1.0E-4,2708,2019-08-07 16:46:17:059
-6.179,-7.1318,0.5951,-0.367,-0.1458,0.0545,0.0549,-0.0454,0.0107,2715,2019-08-07 16:46:17:066
-6.179,-7.1318,0.5951,-0.367,-0.1458,0.0545,0.0549,-0.0454,0.0107,2718,2019-08-07 16:46:17:069
-6.2125,-7.0697,0.647,-0.367,-0.1458,0.0545,0.04,-0.0592,0.0224,2724,2019-08-07 16:46:17:075
-6.2125,-7.0697,0.647,-0.367,-0.1458,0.0545,0.04,-0.0592,0.0224,2729,2019-08-07 16:46:17:080
-6.2125,-7.0697,0.647,-0.2199,-0.1959,0.0029,0.0315,-0.1061,0.0288,2734,2019-08-07 16:46:17:085
-6.447,-7.0459,0.6894,-0.2199,-0.1959,0.0029,0.0315,-0.1061,0.0288,2739,2019-08-07 16:46:17:090
-6.447,-7.0459,0.6894,-0.2199,-0.1959,0.0029,0.0315,-0.1061,0.0288,2744,2019-08-07 16:46:17:095
-6.447,-7.0459,0.6894,-0.2199,-0.1959,0.0029,0.0208,-0.1679,0.0416,2749,2019-08-07 16:46:17:100
-6.5331,-7.1318,0.6799,-0.0175,-0.1382,0.0071,0.0208,-0.1679,0.0416,2754,2019-08-07 16:46:17:105
-6.5331,-7.1318,0.6799,-0.0175,-0.1382,0.0071,0.0187,-0.2754,0.0437,2758,2019-08-07 16:46:17:109
-6.5331,-7.1318,0.6799,-0.0175,-0.1382,0.0071,0.0187,-0.2754,0.0437,2763,2019-08-07 16:46:17:114
-6.4039,-7.0936,0.5715,-0.0175,-0.1382,0.0071,0.0219,-0.3553,0.0512,2769,2019-08-07 16:46:17:120
-6.4039,-7.0936,0.5715,-0.3548,-0.0795,0.2144,0.0219,-0.3553,0.0512,2774,2019-08-07 16:46:17:125
-6.0403,-7.2225,0.4395,-0.3548,-0.0795,0.2144,0.024,-0.3447,0.0448,2779,2019-08-07 16:46:17:130
-6.0403,-7.2225,0.4395,-0.3548,-0.0795,0.2144,0.024,-0.3447,0.0448,2784,2019-08-07 16:46:17:135
-6.0403,-7.2225,0.4395,-0.3548,-0.0795,0.2144,0.024,-0.3447,0.0448,2789,2019-08-07 16:46:17:140
-5.7102,-7.275,0.284,-0.8407,0.0139,0.4896,0.0368,-0.2339,0.0267,2794,2019-08-07 16:46:17:145
-5.7102,-7.275,0.284,-0.8407,0.0139,0.4896,0.0368,-0.2339,0.0267,2799,2019-08-07 16:46:17:150
-5.7102,-7.275,0.284,-0.8407,0.0139,0.4896,0.0368,-0.2339,0.0267,2803,2019-08-07 16:46:17:154
-5.5763,-7.3228,0.3123,-0.8407,0.0139,0.4896,0.0581,-0.0624,0.0171,2809,2019-08-07 16:46:17:160
-5.5763,-7.3228,0.3123,-0.9234,0.0225,0.49,0.0645,0.0676,0.0097,2815,2019-08-07 16:46:17:166
-5.7916,-7.275,0.416,-0.9234,0.0225,0.49,0.0645,0.0676,0.0097,2819,2019-08-07 16:46:17:170
-5.7916,-7.275,0.416,-0.9234,0.0225,0.49,0.0645,0.0676,0.0097,2824,2019-08-07 16:46:17:175
-5.7916,-7.275,0.416,-0.9234,0.0225,0.49,0.0741,0.1464,0.0043,2829,2019-08-07 16:46:17:180
-6.0547,-7.2655,0.5951,-0.3732,-0.0068,0.0826,0.0741,0.1464,0.0043,2834,2019-08-07 16:46:17:185
-6.0547,-7.2655,0.5951,-0.3732,-0.0068,0.0826,0.0741,0.1315,0.0097,2839,2019-08-07 16:46:17:190
-6.0547,-7.2655,0.5951,-0.3732,-0.0068,0.0826,0.0741,0.1315,0.0097,2843,2019-08-07 16:46:17:194
-6.3609,-7.1604,0.8119,-0.3732,-0.0068,0.0826,0.0655,0.0601,0.0171,2849,2019-08-07 16:46:17:200
-6.3609,-7.1604,0.8119,-0.1368,-0.1479,0.0179,0.0655,0.0601,0.0171,2854,2019-08-07 16:46:17:205
-6.38,-7.0268,0.7931,-0.1368,-0.1479,0.0179,0.0517,-0.0294,0.0192,2859,2019-08-07 16:46:17:210
-6.38,-7.0268,0.7931,-0.1368,-0.1479,0.0179,0.0517,-0.0294,0.0192,2864,2019-08-07 16:46:17:215
-6.38,-7.0268,0.7931,-0.1368,-0.1479,0.0179,0.0432,-0.1157,0.0288,2869,2019-08-07 16:46:17:220
-6.3657,-7.0793,0.9203,-0.1368,-0.1479,0.0179,0.0432,-0.1157,0.0288,2874,2019-08-07 16:46:17:225
-6.3657,-7.0793,0.9203,-0.1871,-0.1821,-0.1023,0.0432,-0.1157,0.0288,2878,2019-08-07 16:46:17:229
-6.27,-7.0172,0.7742,-0.1871,-0.1821,-0.1023,0.0347,-0.1945,0.0331,2884,2019-08-07 16:46:17:235
-6.27,-7.0172,0.7742,-0.1871,-0.1821,-0.1023,0.0347,-0.1945,0.0331,2889,2019-08-07 16:46:17:240
-6.27,-7.0172,0.7742,-0.4564,-0.268,0.2078,0.0219,-0.2435,0.0448,2894,2019-08-07 16:46:17:245
-6.0547,-7.0268,0.5574,-0.4564,-0.268,0.2078,0.0219,-0.2435,0.0448,2899,2019-08-07 16:46:17:250
-6.0547,-7.0268,0.5574,-0.4564,-0.268,0.2078,0.0219,-0.219,0.0256,2904,2019-08-07 16:46:17:255
-6.0547,-7.0268,0.5574,-0.4564,-0.268,0.2078,0.0219,-0.219,0.0256,2909,2019-08-07 16:46:17:260
-6.0165,-7.0936,0.6516,-0.6273,-0.1653,0.2293,0.024,-0.1902,0.016,2914,2019-08-07 16:46:17:265
-6.0165,-7.0936,0.6516,-0.6273,-0.1653,0.2293,0.024,-0.1902,0.016,2919,2019-08-07 16:46:17:270
-6.0165,-7.0936,0.6516,-0.6273,-0.1653,0.2293,0.024,-0.1902,0.016,2924,2019-08-07 16:46:17:275
-5.7868,-7.1079,0.6092,-0.6273,-0.1653,0.2293,0.0219,-0.1135,0.0139,2928,2019-08-07 16:46:17:279
-5.7868,-7.1079,0.6092,-0.816,-0.1227,0.383,0.0219,-0.1135,0.0139,2934,2019-08-07 16:46:17:285
-5.7629,-7.1604,0.5432,-0.816,-0.1227,0.383,0.0123,-0.0059,0.0118,2939,2019-08-07 16:46:17:290
-5.7629,-7.1604,0.5432,-0.816,-0.1227,0.383,0.0123,-0.0059,0.0118,2944,2019-08-07 16:46:17:295
-5.7629,-7.1604,0.5432,-0.816,-0.1227,0.383,0.0112,0.0612,0.0086,2950,2019-08-07 16:46:17:301
-6.0165,-7.127,0.7412,-0.5095,-0.1378,0.0817,0.0112,0.0612,0.0086,2954,2019-08-07 16:46:17:305
-6.0165,-7.127,0.7412,-0.5095,-0.1378,0.0817,0.0112,0.0612,0.0086,2959,2019-08-07 16:46:17:310
-6.0548,-7.1175,0.7931,-0.5095,-0.1378,0.0817,0.0102,0.0793,0.0246,2964,2019-08-07 16:46:17:315
-6.0548,-7.1175,0.7931,-0.5095,-0.1378,0.0817,0.0102,0.0793,0.0246,2969,2019-08-07 16:46:17:320
-6.0548,-7.1175,0.7931,-0.5095,-0.1378,0.0817,0.0027,0.0676,0.0363,2973,2019-08-07 16:46:17:324
-6.1696,-7.0602,0.7789,-0.3844,-0.1877,0.0866,0.0027,0.0676,0.0363,2979,2019-08-07 16:46:17:330
-6.1696,-7.0602,0.7789,-0.3844,-0.1877,0.0866,-0.0048,0.0409,0.0437,2985,2019-08-07 16:46:17:336
-6.2844,-7.0697,0.9392,-0.3844,-0.1877,0.0866,-0.0048,0.0409,0.0437,2989,2019-08-07 16:46:17:340
-6.2844,-7.0697,0.9392,-0.3844,-0.1877,0.0866,-0.0048,-0.0049,0.0523,2994,2019-08-07 16:46:17:345
-6.2844,-7.0697,0.9392,-0.2572,-0.1726,-0.1064,-0.0048,-0.0049,0.0523,3000,2019-08-07 16:46:17:351
-6.2366,-7.0602,0.8449,-0.2572,-0.1726,-0.1064,-0.009,-0.0347,0.0629,3004,2019-08-07 16:46:17:355
-6.2366,-7.0602,0.8449,-0.2572,-0.1726,-0.1064,-0.009,-0.0347,0.0629,3009,2019-08-07 16:46:17:360
-6.2031,-7.0268,0.6846,-0.2572,-0.1726,-0.1064,-0.0133,-0.0368,0.0618,3014,2019-08-07 16:46:17:365
-6.2031,-7.0268,0.6846,-0.3462,-0.2084,0.1831,-0.0133,-0.0368,0.0618,3019,2019-08-07 16:46:17:370
-6.2031,-7.0268,0.6846,-0.3462,-0.2084,0.1831,-0.0122,-0.0123,0.0491,3024,2019-08-07 16:46:17:375
-6.2653,-7.0602,0.6988,-0.3462,-0.2084,0.1831,-0.0122,-0.0123,0.0491,3030,2019-08-07 16:46:17:381
-6.2653,-7.0602,0.6988,-0.3462,-0.2084,0.1831,-0.0122,-0.0123,0.0491,3033,2019-08-07 16:46:17:384
-6.3658,-7.0363,0.6799,-0.209,-0.2266,0.1491,-0.008,-0.0059,0.0363,3039,2019-08-07 16:46:17:390
-6.3658,-7.0363,0.6799,-0.209,-0.2266,0.1491,-0.008,-0.0059,0.0363,3043,2019-08-07 16:46:17:394
-6.3658,-7.0363,0.6799,-0.209,-0.2266,0.1491,-0.0111,0.0026,0.0267,3049,2019-08-07 16:46:17:400
-6.3562,-7.0124,0.6563,-0.209,-0.2266,0.1491,-0.0111,0.0026,0.0267,3053,2019-08-07 16:46:17:404
-6.3562,-7.0124,0.6563,-0.1366,-0.1277,0.1791,-0.0165,-0.0059,0.0182,3059,2019-08-07 16:46:17:410
-6.4423,-7.1222,0.7035,-0.1366,-0.1277,0.1791,-0.0165,-0.0059,0.0182,3064,2019-08-07 16:46:17:415
-6.4423,-7.1222,0.7035,-0.1366,-0.1277,0.1791,-0.0197,-0.024,0.0097,3070,2019-08-07 16:46:17:421
-6.4423,-7.1222,0.7035,-0.1366,-0.1277,0.1791,-0.0197,-0.024,0.0097,3075,2019-08-07 16:46:17:426
-6.4184,-7.17,0.7318,-0.1618,-0.0599,0.1067,-0.0239,-0.0528,0.0043,3079,2019-08-07 16:46:17:430
-6.4184,-7.17,0.7318,-0.1618,-0.0599,0.1067,-0.0239,-0.0528,0.0043,3083,2019-08-07 16:46:17:434
-6.4184,-7.17,0.7318,-0.1618,-0.0599,0.1067,-0.0239,-0.0528,0.0043,3089,2019-08-07 16:46:17:440
-6.3467,-7.17,0.7223,-0.1618,-0.0599,0.1067,-0.0186,-0.089,0.0043,3094,2019-08-07 16:46:17:445
-6.3467,-7.17,0.7223,-0.3422,-0.0366,0.1313,-0.0186,-0.089,0.0043,3098,2019-08-07 16:46:17:449
-6.1984,-7.1557,0.7176,-0.3422,-0.0366,0.1313,-0.0218,-0.1071,0.0107,3103,2019-08-07 16:46:17:454
-6.1984,-7.1557,0.7176,-0.3422,-0.0366,0.1313,-0.0218,-0.1071,0.0107,3109,2019-08-07 16:46:17:460
-6.1984,-7.1557,0.7176,-0.3422,-0.0366,0.1313,-0.0218,-0.105,0.016,3114,2019-08-07 16:46:17:465
-6.1123,-7.1509,0.7035,-0.4651,-0.0749,0.1691,-0.0218,-0.105,0.016,3119,2019-08-07 16:46:17:470
-6.1123,-7.1509,0.7035,-0.4651,-0.0749,0.1691,-0.0186,-0.0986,0.0171,3124,2019-08-07 16:46:17:475
-6.0788,-7.1318,0.727,-0.4651,-0.0749,0.1691,-0.0186,-0.0986,0.0171,3129,2019-08-07 16:46:17:480
-6.0788,-7.1318,0.727,-0.4651,-0.0749,0.1691,-0.0111,-0.0858,0.0214,3134,2019-08-07 16:46:17:485
-6.0788,-7.1318,0.727,-0.5981,-0.0891,0.1072,-0.0111,-0.0858,0.0214,3139,2019-08-07 16:46:17:490
-5.9927,-7.065,0.7412,-0.5981,-0.0891,0.1072,-0.008,-0.0741,0.031,3144,2019-08-07 16:46:17:495
-5.9927,-7.065,0.7412,-0.5981,-0.0891,0.1072,-0.008,-0.0741,0.031,3148,2019-08-07 16:46:17:499
-5.9927,-7.065,0.7412,-0.5981,-0.0891,0.1072,-0.008,-0.0166,0.0384,3154,2019-08-07 16:46:17:505
-6.0214,-7.0888,0.6658,-0.5569,-0.1346,0.2201,-0.008,-0.0166,0.0384,3158,2019-08-07 16:46:17:509
-6.0214,-7.0888,0.6658,-0.5569,-0.1346,0.2201,-0.008,-0.0166,0.0384,3164,2019-08-07 16:46:17:515
-6.0214,-7.0888,0.6658,-0.5569,-0.1346,0.2201,-0.0026,0.0079,0.0363,3169,2019-08-07 16:46:17:520
-6.1936,-7.0745,0.694,-0.5569,-0.1346,0.2201,-0.0026,0.0079,0.0363,3174,2019-08-07 16:46:17:525
-6.1936,-7.0745,0.694,-0.3266,-0.1646,0.0949,0.007,0.0218,0.0384,3181,2019-08-07 16:46:17:532
-6.208,-7.0506,0.7223,-0.3266,-0.1646,0.0949,0.007,0.0218,0.0384,3184,2019-08-07 16:46:17:535
-6.208,-7.0506,0.7223,-0.3266,-0.1646,0.0949,0.0123,0.0186,0.0352,3188,2019-08-07 16:46:17:539
-6.208,-7.0506,0.7223,-0.3266,-0.1646,0.0949,0.0123,0.0186,0.0352,3194,2019-08-07 16:46:17:545
-6.2606,-6.9647,0.661,-0.3126,-0.2174,0.2291,0.007,0.0218,0.0352,3199,2019-08-07 16:46:17:550
-6.2606,-6.9647,0.661,-0.3126,-0.2174,0.2291,0.007,0.0218,0.0352,3204,2019-08-07 16:46:17:555
-6.2893,-6.9981,0.7647,-0.3126,-0.2174,0.2291,0.0048,0.0207,0.0288,3209,2019-08-07 16:46:17:560
-6.2893,-6.9981,0.7647,-0.3126,-0.2174,0.2291,0.0048,0.0207,0.0288,3215,2019-08-07 16:46:17:566
-6.2893,-6.9981,0.7647,-0.2398,-0.1569,0.1189,0.0144,-0.0017,0.0235,3219,2019-08-07 16:46:17:570
-6.3276,-7.0029,0.7082,-0.2398,-0.1569,0.1189,0.0144,-0.0017,0.0235,3223,2019-08-07 16:46:17:574
-6.3276,-7.0029,0.7082,-0.332,-0.1699,0.1632,0.0208,-0.023,0.0224,3230,2019-08-07 16:46:17:581
-6.1889,-7.0554,0.7082,-0.332,-0.1699,0.1632,0.0208,-0.023,0.0224,3233,2019-08-07 16:46:17:584
-6.1889,-7.0554,0.7082,-0.332,-0.1699,0.1632,0.0208,-0.024,0.0235,3239,2019-08-07 16:46:17:590
-6.1889,-7.0554,0.7082,-0.332,-0.1699,0.1632,0.0208,-0.024,0.0235,3244,2019-08-07 16:46:17:595
-6.1362,-7.1127,0.6563,-0.4484,-0.1058,0.1677,0.0229,-0.0027,0.0192,3249,2019-08-07 16:46:17:600
-6.1362,-7.1127,0.6563,-0.4484,-0.1058,0.1677,0.0229,-0.0027,0.0192,3253,2019-08-07 16:46:17:604
-6.2032,-7.0697,0.7082,-0.4484,-0.1058,0.1677,0.0261,0.009,0.0107,3259,2019-08-07 16:46:17:610
-6.2032,-7.0697,0.7082,-0.4484,-0.1058,0.1677,0.0261,0.009,0.0107,3264,2019-08-07 16:46:17:615
-6.2032,-7.0697,0.7082,-0.3965,-0.1191,0.1085,0.0293,0.0143,0.0139,3270,2019-08-07 16:46:17:621
-6.1841,-7.0745,0.7365,-0.3965,-0.1191,0.1085,0.0293,0.0143,0.0139,3275,2019-08-07 16:46:17:626
-6.1841,-7.0745,0.7365,-0.3965,-0.1191,0.1085,0.0229,0.0292,0.0075,3279,2019-08-07 16:46:17:630
-6.1841,-7.0745,0.7365,-0.3965,-0.1191,0.1085,0.0229,0.0292,0.0075,3283,2019-08-07 16:46:17:634
-6.1076,-7.0124,0.6563,-0.4065,-0.1715,0.154,0.0229,0.0292,0.0075,3289,2019-08-07 16:46:17:640
-6.1076,-7.0124,0.6563,-0.4065,-0.1715,0.154,0.0134,0.0527,-0.0021,3293,2019-08-07 16:46:17:644
-6.3037,-7.0745,0.7365,-0.4065,-0.1715,0.154,0.0134,0.0527,-0.0021,3299,2019-08-07 16:46:17:650
-6.3037,-7.0745,0.7365,-0.4065,-0.1715,0.154,0.0091,0.0558,-0.0085,3304,2019-08-07 16:46:17:655
-6.3037,-7.0745,0.7365,-0.286,-0.1255,0.095,0.0091,0.0558,-0.0085,3309,2019-08-07 16:46:17:660
-6.3085,-7.084,0.7836,-0.286,-0.1255,0.095,6.0E-4,0.0409,-0.0149,3314,2019-08-07 16:46:17:665
-6.3085,-7.084,0.7836,-0.286,-0.1255,0.095,6.0E-4,0.0409,-0.0149,3318,2019-08-07 16:46:17:669
-6.2655,-7.0936,0.7365,-0.286,-0.1255,0.095,-0.0048,0.0292,-0.0212,3324,2019-08-07 16:46:17:675
-6.2655,-7.0936,0.7365,-0.3976,-0.0813,0.099,-0.0048,0.0292,-0.0212,3329,2019-08-07 16:46:17:680
-6.2224,-7.0984,0.6987,-0.3976,-0.0813,0.099,-0.0069,0.0164,-0.0255,3333,2019-08-07 16:46:17:684
-6.2224,-7.0984,0.6987,-0.3976,-0.0813,0.099,-0.0069,0.0164,-0.0255,3339,2019-08-07 16:46:17:690
-6.2224,-7.0984,0.6987,-0.3976,-0.0813,0.099,-0.0026,0.0154,-0.0276,3344,2019-08-07 16:46:17:695
-6.232,-7.1556,0.7459,-0.3976,-0.0813,0.099,-0.0026,0.0154,-0.0276,3349,2019-08-07 16:46:17:700
-6.232,-7.1556,0.7459,-0.3307,-0.0669,0.0859,0.0016,-0.0049,-0.0266,3354,2019-08-07 16:46:17:705
-6.232,-7.17,0.859,-0.3307,-0.0669,0.0859,0.0016,-0.0049,-0.0266,3358,2019-08-07 16:46:17:709
-6.232,-7.17,0.859,-0.3307,-0.0669,0.0859,0.0016,-0.0049,-0.0266,3364,2019-08-07 16:46:17:715
-6.232,-7.17,0.859,-0.3307,-0.0669,0.0859,0.0059,-0.0262,-0.0191,3368,2019-08-07 16:46:17:719
-6.1554,-7.0888,0.7553,-0.4263,-0.1332,0.1162,0.0059,-0.0262,-0.0191,3374,2019-08-07 16:46:17:725
-6.1554,-7.0888,0.7553,-0.4263,-0.1332,0.1162,0.007,-0.0262,-0.0159,3379,2019-08-07 16:46:17:730
-6.1363,-7.1318,0.7176,-0.4263,-0.1332,0.1162,0.007,-0.0262,-0.0159,3384,2019-08-07 16:46:17:735
-6.1363,-7.1318,0.7176,-0.4263,-0.1332,0.1162,0.008,-0.0177,-0.0159,3389,2019-08-07 16:46:17:740
-6.1363,-7.1318,0.7176,-0.7133,-0.0322,0.1006,0.008,-0.0177,-0.0159,3394,2019-08-07 16:46:17:745
-5.8923,-7.1031,0.694,-0.7133,-0.0322,0.1006,0.0208,-6.0E-4,-0.0436,3399,2019-08-07 16:46:17:750
-5.8923,-7.1031,0.694,-0.7133,-0.0322,0.1006,0.0208,-6.0E-4,-0.0436,3404,2019-08-07 16:46:17:755
-6.0024,-7.0124,0.6045,-0.7133,-0.0322,0.1006,0.0336,0.0601,-0.0415,3409,2019-08-07 16:46:17:760
-6.0024,-7.0124,0.6045,-0.5427,-0.1875,0.2646,0.0336,0.0601,-0.0415,3415,2019-08-07 16:46:17:766
-6.0024,-7.0124,0.6045,-0.5427,-0.1875,0.2646,0.0315,0.1144,-0.0255,3419,2019-08-07 16:46:17:770
-6.122,-7.0029,0.7412,-0.5427,-0.1875,0.2646,0.0315,0.1144,-0.0255,3425,2019-08-07 16:46:17:776
-6.122,-7.0029,0.7412,-0.5427,-0.1875,0.2646,0.0283,0.1379,-0.0308,3430,2019-08-07 16:46:17:781
-6.122,-7.0029,0.7412,-0.2146,-0.2394,0.1522,0.0283,0.1379,-0.0308,3433,2019-08-07 16:46:17:784
-6.3277,-7.0077,0.8119,-0.2146,-0.2394,0.1522,0.0197,0.1144,-0.018,3439,2019-08-07 16:46:17:790
-6.3277,-7.0077,0.8119,-0.2146,-0.2394,0.1522,0.0197,0.1144,-0.018,3444,2019-08-07 16:46:17:795
-6.2847,-7.0793,0.7364,-0.2146,-0.2394,0.1522,0.0197,0.1144,-0.018,3449,2019-08-07 16:46:17:800
-6.2847,-7.0793,0.7364,-0.2613,-0.1941,0.1445,0.0123,0.075,-0.0127,3453,2019-08-07 16:46:17:804
-6.2703,-7.0888,0.7082,-0.2613,-0.1941,0.1445,0.0123,0.075,-0.0127,3459,2019-08-07 16:46:17:810
-6.2703,-7.0888,0.7082,-0.2613,-0.1941,0.1445,0.0134,0.0537,-0.017,3463,2019-08-07 16:46:17:814
-6.2703,-7.0888,0.7082,-0.2613,-0.1941,0.1445,0.0134,0.0537,-0.017,3469,2019-08-07 16:46:17:820
-6.2703,-7.0458,0.8024,-0.293,-0.1964,0.0395,0.0134,0.026,-0.0127,3475,2019-08-07 16:46:17:826
-6.2703,-7.0458,0.8024,-0.293,-0.1964,0.0395,0.0134,0.026,-0.0127,3479,2019-08-07 16:46:17:830
-6.2608,-6.9933,0.7176,-0.293,-0.1964,0.0395,0.0123,-0.0123,-0.0053,3484,2019-08-07 16:46:17:835
-6.2608,-6.9933,0.7176,-0.293,-0.1964,0.0395,0.0123,-0.0123,-0.0053,3488,2019-08-07 16:46:17:839
-6.2608,-6.9933,0.7176,-0.3298,-0.2167,0.201,0.0038,-0.0187,-0.001,3494,2019-08-07 16:46:17:845
-6.2512,-7.0506,0.6186,-0.3298,-0.2167,0.201,0.0038,-0.0187,-0.001,3498,2019-08-07 16:46:17:849
-6.2512,-7.0506,0.6186,-0.3298,-0.2167,0.201,0.0016,-0.0177,-0.0031,3503,2019-08-07 16:46:17:854
-6.2512,-7.0506,0.6186,-0.3298,-0.2167,0.201,0.0016,-0.0177,-0.0031,3509,2019-08-07 16:46:17:860
-6.1555,-7.084,0.7317,-0.4007,-0.1177,0.1084,0.0155,-0.0091,-0.0063,3514,2019-08-07 16:46:17:865
-6.1555,-7.084,0.7317,-0.4007,-0.1177,0.1084,0.0155,-0.0091,-0.0063,3518,2019-08-07 16:46:17:869
-6.126,-7.0937,0.6895,-0.4007,-0.1177,0.1084,0.024,0.0111,-0.0159,3524,2019-08-07 16:46:17:875
-6.126,-7.0937,0.6895,-0.4007,-0.1177,0.1084,0.024,0.0111,-0.0159,3529,2019-08-07 16:46:17:880
-6.126,-7.0937,0.6895,-0.4359,-0.1777,0.2644,0.024,0.0111,-0.0159,3534,2019-08-07 16:46:17:885
-6.1307,-7.1128,0.5858,-0.4359,-0.1777,0.2644,0.024,0.0612,-0.0234,3539,2019-08-07 16:46:17:890
-6.1307,-7.1128,0.5858,-0.4533,-0.1462,0.1859,0.024,0.0612,-0.0234,3543,2019-08-07 16:46:17:894
-6.1738,-7.0984,0.6706,-0.4533,-0.1462,0.1859,0.024,0.0761,-0.0287,3549,2019-08-07 16:46:17:900
-6.1738,-7.0984,0.6706,-0.4533,-0.1462,0.1859,0.024,0.0761,-0.0287,3554,2019-08-07 16:46:17:905
-6.1738,-7.0984,0.6706,-0.4533,-0.1462,0.1859,0.0272,0.0793,-0.0244,3559,2019-08-07 16:46:17:910
-6.2312,-7.0459,0.7413,-0.3398,-0.2075,0.1408,0.0272,0.0793,-0.0244,3564,2019-08-07 16:46:17:915
-6.2312,-7.0459,0.7413,-0.3398,-0.2075,0.1408,0.0251,0.0665,-0.018,3569,2019-08-07 16:46:17:920
-6.2312,-7.0459,0.7413,-0.3398,-0.2075,0.1408,0.0251,0.0665,-0.018,3573,2019-08-07 16:46:17:924
-6.236,-7.0316,0.7178,-0.3148,-0.2231,0.1141,0.0176,0.059,-0.0138,3579,2019-08-07 16:46:17:930
-6.236,-7.0316,0.7178,-0.3148,-0.2231,0.1141,0.0176,0.059,-0.0138,3584,2019-08-07 16:46:17:935
-6.2216,-7.0507,0.6801,-0.3148,-0.2231,0.1141,0.0038,0.0303,-0.0148,3589,2019-08-07 16:46:17:940
-6.2216,-7.0507,0.6801,-0.3025,-0.2738,-0.0545,0.0038,0.0303,-0.0148,3594,2019-08-07 16:46:17:945
-6.2216,-7.0507,0.6801,-0.3025,-0.2738,-0.0545,0.008,0.009,0.0118,3599,2019-08-07 16:46:17:950
-6.0637,-7.0555,0.8262,-0.3025,-0.2738,-0.0545,0.008,0.009,0.0118,3604,2019-08-07 16:46:17:955
-6.0637,-7.0555,0.8262,-0.3025,-0.2738,-0.0545,0.0155,-0.0049,0.0224,3609,2019-08-07 16:46:17:960
-5.968,-7.0937,0.6141,-0.581,-0.163,0.215,0.0155,-0.0049,0.0224,3613,2019-08-07 16:46:17:964
-5.968,-7.0937,0.6141,-0.581,-0.163,0.215,0.0144,0.009,0.0342,3619,2019-08-07 16:46:17:970
-5.968,-7.0937,0.6141,-0.581,-0.163,0.215,0.0144,0.009,0.0342,3623,2019-08-07 16:46:17:974
-6.0063,-7.0841,0.6706,-0.581,-0.163,0.215,0.007,0.0207,0.0448,3629,2019-08-07 16:46:17:980
-6.0063,-7.0841,0.6706,-0.437,-0.2404,0.1338,0.007,0.0207,0.0448,3634,2019-08-07 16:46:17:985
-6.0063,-7.0841,0.6706,-0.437,-0.2404,0.1338,0.007,0.0207,0.0448,3638,2019-08-07 16:46:17:989
-6.1307,-7.065,0.7696,-0.437,-0.2404,0.1338,0.0059,0.0313,0.0597,3644,2019-08-07 16:46:17:995
-6.1307,-7.065,0.7696,-0.437,-0.2404,0.1338,0.0059,0.0313,0.0597,3649,2019-08-07 16:46:18:000
-6.145,-7.1271,0.5292,-0.416,-0.1195,0.2932,0.0091,0.0654,0.0533,3654,2019-08-07 16:46:18:005
-6.145,-7.1271,0.5292,-0.416,-0.1195,0.2932,0.0091,0.0654,0.0533,3659,2019-08-07 16:46:18:010
-6.145,-7.1271,0.5292,-0.416,-0.1195,0.2932,0.0144,0.0867,0.0448,3663,2019-08-07 16:46:18:014
-6.3316,-7.1366,0.6423,-0.416,-0.1195,0.2932,0.0144,0.0867,0.0448,3669,2019-08-07 16:46:18:020
-6.3316,-7.1366,0.6423,-0.416,-0.1195,0.2932,0.0165,0.0846,0.0288,3673,2019-08-07 16:46:18:024
-6.4225,-7.0889,0.6235,-0.1454,-0.1859,0.1228,0.0165,0.0846,0.0288,3679,2019-08-07 16:46:18:030
-6.4225,-7.0889,0.6235,-0.1454,-0.1859,0.1228,0.0112,0.0612,0.0246,3684,2019-08-07 16:46:18:035
-6.4225,-7.0889,0.6235,-0.1454,-0.1859,0.1228,0.0112,0.0612,0.0246,3688,2019-08-07 16:46:18:039
-6.3986,-7.0698,0.6094,-0.1454,-0.1859,0.1228,6.0E-4,0.0484,0.016,3694,2019-08-07 16:46:18:045
-6.3986,-7.0698,0.6094,-0.1739,-0.135,0.1899,6.0E-4,0.0484,0.016,3699,2019-08-07 16:46:18:050
-6.3986,-7.0698,0.6094,-0.1739,-0.135,0.1899,-5.0E-4,0.0313,0.0033,3704,2019-08-07 16:46:18:055
-6.4273,-7.1366,0.7885,-0.1739,-0.135,0.1899,-5.0E-4,0.0313,0.0033,3709,2019-08-07 16:46:18:060
-6.4273,-7.1366,0.7885,-0.1739,-0.135,0.1899,0.0123,0.0036,-0.0021,3713,2019-08-07 16:46:18:064
-6.2646,-7.1366,0.7461,-0.2751,-0.068,0.0495,0.0123,0.0036,-0.0021,3719,2019-08-07 16:46:18:070
-6.2646,-7.1366,0.7461,-0.2751,-0.068,0.0495,0.0176,-0.0038,-0.001,3724,2019-08-07 16:46:18:075
-6.2646,-7.1366,0.7461,-0.2751,-0.068,0.0495,0.0176,-0.0038,-0.001,3729,2019-08-07 16:46:18:080
-6.145,-7.1271,0.5952,-0.2751,-0.068,0.0495,0.0176,-0.0038,-0.001,3733,2019-08-07 16:46:18:084
-6.145,-7.1271,0.5952,-0.4267,-0.1503,0.1882,0.0208,0.0154,-0.001,3739,2019-08-07 16:46:18:090
-6.1785,-7.1223,0.6942,-0.4267,-0.1503,0.1882,0.0208,0.0154,-0.001,3743,2019-08-07 16:46:18:094
-6.1785,-7.1223,0.6942,-0.4267,-0.1503,0.1882,0.0251,0.0303,0.0065,3749,2019-08-07 16:46:18:100
-6.1785,-7.1223,0.6942,-0.4267,-0.1503,0.1882,0.0251,0.0303,0.0065,3753,2019-08-07 16:46:18:104
-6.2503,-7.0555,0.7932,-0.3217,-0.1834,0.0091,0.0325,0.0239,0.015,3759,2019-08-07 16:46:18:110
-6.2503,-7.0555,0.7932,-0.3217,-0.1834,0.0091,0.0325,0.0239,0.015,3763,2019-08-07 16:46:18:114
-6.279,-6.9886,0.6282,-0.3217,-0.1834,0.0091,0.0197,0.0154,0.0097,3769,2019-08-07 16:46:18:120
-6.279,-6.9886,0.6282,-0.3217,-0.1834,0.0091,0.0197,0.0154,0.0097,3773,2019-08-07 16:46:18:124
-6.3029,-6.9314,0.6895,-0.2756,-0.3059,0.1414,0.0027,0.0068,0.0065,3779,2019-08-07 16:46:18:130
-6.3029,-6.9314,0.6895,-0.2756,-0.3059,0.1414,0.0027,0.0068,0.0065,3784,2019-08-07 16:46:18:135
-6.3029,-6.9314,0.6895,-0.2756,-0.3059,0.1414,0.0027,0.0068,0.0065,3789,2019-08-07 16:46:18:140
-6.2455,-7.0316,0.6989,-0.2756,-0.3059,0.1414,-0.0016,5.0E-4,-0.0063,3794,2019-08-07 16:46:18:145
-6.2455,-7.0316,0.6989,-0.3611,-0.1872,0.1499,-0.0016,5.0E-4,-0.0063,3799,2019-08-07 16:46:18:150
-6.2455,-7.0316,0.6989,-0.3611,-0.1872,0.1499,-0.0016,0.0186,-0.0138,3803,2019-08-07 16:46:18:154
-6.2359,-7.0125,0.5387,-0.3611,-0.1872,0.1499,-0.0016,0.0186,-0.0138,3809,2019-08-07 16:46:18:160
-6.2359,-7.0125,0.5387,-0.3611,-0.1872,0.1499,-0.0048,0.0335,-0.0159,3813,2019-08-07 16:46:18:164
-6.2359,-7.0125,0.5387,-0.3254,-0.2853,0.2021,-0.0048,0.0335,-0.0159,3819,2019-08-07 16:46:18:170
-6.255,-6.9552,0.6282,-0.3254,-0.2853,0.2021,-0.0101,0.0292,-0.0127,3824,2019-08-07 16:46:18:175
-6.255,-6.9552,0.6282,-0.3254,-0.2853,0.2021,-0.0101,0.0292,-0.0127,3829,2019-08-07 16:46:18:180
-6.255,-6.9552,0.6282,-0.3254,-0.2853,0.2021,-0.0101,0.0292,-0.0127,3833,2019-08-07 16:46:18:184
-6.2789,-6.9982,0.5858,-0.2902,-0.2444,0.2059,-0.042,-0.0145,-0.001,3839,2019-08-07 16:46:18:190
-6.2789,-6.9982,0.5858,-0.2902,-0.2444,0.2059,-0.042,-0.0145,-0.001,3844,2019-08-07 16:46:18:195
-6.1545,-7.108,0.6329,-0.2902,-0.2444,0.2059,-0.0239,-0.0059,0.0086,3849,2019-08-07 16:46:18:200
-6.1545,-7.108,0.6329,-0.2902,-0.2444,0.2059,-0.0239,-0.0059,0.0086,3854,2019-08-07 16:46:18:205
-6.1545,-7.108,0.6329,-0.4049,-0.1399,0.0987,-0.0058,5.0E-4,0.0224,3859,2019-08-07 16:46:18:210
-6.2072,-7.0746,0.6801,-0.4049,-0.1399,0.0987,-0.0058,5.0E-4,0.0224,3864,2019-08-07 16:46:18:215
-6.2072,-7.0746,0.6801,-0.4049,-0.1399,0.0987,0.0038,0.0047,0.031,3868,2019-08-07 16:46:18:219
-6.2072,-7.0746,0.6801,-0.4049,-0.1399,0.0987,0.0038,0.0047,0.031,3874,2019-08-07 16:46:18:225
-6.2072,-7.0173,0.6659,-0.3366,-0.1942,0.1259,0.0155,0.0079,0.0246,3880,2019-08-07 16:46:18:231
-6.2072,-7.0173,0.6659,-0.3366,-0.1942,0.1259,0.0155,0.0079,0.0246,3884,2019-08-07 16:46:18:235
-6.3316,-7.0077,0.6094,-0.3366,-0.1942,0.1259,0.0155,0.0079,0.0246,3889,2019-08-07 16:46:18:240
-6.3316,-7.0077,0.6094,-0.3366,-0.1942,0.1259,0.0112,0.01,0.0267,3894,2019-08-07 16:46:18:245
-6.3316,-7.0077,0.6094,-0.2257,-0.2719,0.2144,0.0112,0.01,0.0267,3898,2019-08-07 16:46:18:249
-6.389,-7.0125,0.5952,-0.2257,-0.2719,0.2144,6.0E-4,0.0175,0.0203,3904,2019-08-07 16:46:18:255
-6.389,-7.0125,0.5952,-0.2257,-0.2719,0.2144,6.0E-4,0.0175,0.0203,3909,2019-08-07 16:46:18:260
-6.3937,-7.1462,0.6895,-0.2257,-0.2719,0.2144,0.0112,0.0196,0.0171,3914,2019-08-07 16:46:18:265
-6.3937,-7.1462,0.6895,-0.157,0.0219,0.1038,0.0112,0.0196,0.0171,3918,2019-08-07 16:46:18:269
-6.3937,-7.1462,0.6895,-0.157,0.0219,0.1038,0.0315,0.0463,0.016,3924,2019-08-07 16:46:18:275
-6.3268,-7.3085,0.7885,-0.268,0.0751,0.0371,0.0315,0.0463,0.016,3929,2019-08-07 16:46:18:280
-6.3268,-7.3085,0.7885,-0.268,0.0751,0.0371,0.0315,0.0463,0.016,3933,2019-08-07 16:46:18:284
-6.4368,-6.9696,0.7979,-0.268,0.0751,0.0371,0.0645,0.0633,0.0054,3939,2019-08-07 16:46:18:290