ACCELEROMETER X (m/s²),ACCELEROMETER Y (m/s²),ACCELEROMETER Z (m/s²),LINEAR ACCELERATION X (m/s²),LINEAR ACCELERATION Y (m/s²),LINEAR ACCELERATION Z (m/s²),GYROSCOPE X (rad/s),GYROSCOPE Y (rad/s),GYROSCOPE Z (rad/s),Time since start in ms ,YYYY-MO-DD HH-MI-SS_SSS
-5.997,-7.2034,0.9487,-0.2979,-0.2182,0.1059,-0.0314,-0.0081,0.0246,3,2019-08-07 16:44:35:439
-6.0162,-7.2559,0.9157,-0.2979,-0.2182,0.1059,-0.0314,-0.0081,0.0246,8,2019-08-07 16:44:35:444
-6.0162,-7.2559,0.9157,-0.2979,-0.2182,0.1059,-0.0293,-0.0059,0.0256,12,2019-08-07 16:44:35:448
-6.0353,-7.2464,0.9864,-0.2979,-0.2182,0.1059,-0.0293,-0.0059,0.0256,18,2019-08-07 16:44:35:454
-6.0353,-7.2464,0.9864,-0.2725,-0.2015,0.065,-0.025,-0.0219,0.032,23,2019-08-07 16:44:35:459
-6.0353,-7.2464,0.9864,-0.2725,-0.2015,0.065,-0.025,-0.0219,0.032,27,2019-08-07 16:44:35:463
-5.997,-7.2225,0.9534,-0.2725,-0.2015,0.065,-0.025,-0.0219,0.032,33,2019-08-07 16:44:35:469
-5.997,-7.2225,0.9534,-0.2725,-0.2015,0.065,-0.0207,-0.023,0.0331,38,2019-08-07 16:44:35:474
-5.9636,-7.213,0.9015,-0.2725,-0.2015,0.065,-0.0207,-0.023,0.0331,43,2019-08-07 16:44:35:479
-5.9636,-7.213,0.9015,-0.3289,-0.2319,0.1629,-0.0207,-0.0155,0.0288,47,2019-08-07 16:44:35:483
-5.9636,-7.213,0.9015,-0.3289,-0.2319,0.1629,-0.0207,-0.0155,0.0288,53,2019-08-07 16:44:35:489
-5.9827,-7.2034,0.911,-0.3289,-0.2319,0.1629,-0.0154,-0.0134,0.0256,58,2019-08-07 16:44:35:494
-5.9827,-7.2034,0.911,-0.3289,-0.2319,0.1629,-0.0154,-0.0134,0.0256,63,2019-08-07 16:44:35:499
-6.0114,-7.2082,0.8874,-0.2936,-0.2583,0.1139,-0.0122,-0.0017,0.015,68,2019-08-07 16:44:35:504
-6.0114,-7.2082,0.8874,-0.2936,-0.2583,0.1139,-0.0122,-0.0017,0.015,73,2019-08-07 16:44:35:509
-6.0114,-7.2082,0.8874,-0.2936,-0.2583,0.1139,-0.0143,0.0122,0.0043,77,2019-08-07 16:44:35:513
-6.0545,-7.1843,0.8874,-0.2936,-0.2583,0.1139,-0.0143,0.0122,0.0043,83,2019-08-07 16:44:35:519
-6.0545,-7.1843,0.8874,-0.271,-0.2816,0.1523,-0.0154,0.01,0.0043,87,2019-08-07 16:44:35:523
-6.0019,-7.2225,0.878,-0.271,-0.2816,0.1523,-0.0154,0.01,0.0043,95,2019-08-07 16:44:35:531
-6.0019,-7.2225,0.878,-0.2951,-0.2149,0.1078,-0.0154,0.01,0.0043,98,2019-08-07 16:44:35:534
-6.0019,-7.2225,0.878,-0.2951,-0.2149,0.1078,-0.0165,0.0058,0.0022,103,2019-08-07 16:44:35:539
-5.9732,-7.1987,0.977,-0.2951,-0.2149,0.1078,-0.0165,0.0058,0.0022,108,2019-08-07 16:44:35:544
-5.9732,-7.1987,0.977,-0.2951,-0.2149,0.1078,-0.0165,0.0058,0.0022,113,2019-08-07 16:44:35:549
-5.9732,-7.1987,0.977,-0.3908,-0.2678,0.1139,-0.0133,0.0015,0.0054,118,2019-08-07 16:44:35:554
-5.9014,-7.2703,0.8733,-0.3908,-0.2678,0.1139,-0.0133,0.0015,0.0054,123,2019-08-07 16:44:35:559
-5.9014,-7.2703,0.8733,-0.3908,-0.2678,0.1139,-0.0165,0.0068,0.016,127,2019-08-07 16:44:35:563
-5.911,-7.2321,0.9157,-0.3908,-0.2678,0.1139,-0.0165,0.0068,0.016,134,2019-08-07 16:44:35:570
-5.911,-7.2321,0.9157,-0.4254,-0.1862,0.115,-0.0058,0.0154,0.0224,137,2019-08-07 16:44:35:573
-5.911,-7.2321,0.9157,-0.4254,-0.1862,0.115,-0.0058,0.0154,0.0224,142,2019-08-07 16:44:35:578
-5.9205,-7.2559,0.9204,-0.4254,-0.1862,0.115,-0.0026,0.0175,0.032,148,2019-08-07 16:44:35:584
-5.9205,-7.2559,0.9204,-0.4254,-0.1862,0.115,-0.0026,0.0175,0.032,153,2019-08-07 16:44:35:589
-5.9205,-7.2559,0.9204,-0.3571,-0.1408,0.1351,-0.0026,0.0175,0.032,158,2019-08-07 16:44:35:594
-5.9445,-7.2368,0.9157,-0.3571,-0.1408,0.1351,-0.0016,0.0228,0.0331,162,2019-08-07 16:44:35:598
-5.9445,-7.2368,0.9157,-0.3571,-0.1408,0.1351,-0.0016,0.0228,0.0331,168,2019-08-07 16:44:35:604
-6.0784,-7.2082,0.8827,-0.3571,-0.1408,0.1351,-0.0016,0.026,0.0331,173,2019-08-07 16:44:35:609
-6.0784,-7.2082,0.8827,-0.3047,-0.2469,0.1031,-0.0016,0.026,0.0331,178,2019-08-07 16:44:35:614
-6.0784,-7.2082,0.8827,-0.3047,-0.2469,0.1031,-5.0E-4,0.0335,0.0278,183,2019-08-07 16:44:35:619
-6.1167,-7.1939,0.8638,-0.3047,-0.2469,0.1031,-5.0E-4,0.0335,0.0278,188,2019-08-07 16:44:35:624
-6.1167,-7.1939,0.8638,-0.3047,-0.2469,0.1031,0.0048,0.0388,0.0203,194,2019-08-07 16:44:35:630
-6.1167,-7.1939,0.8638,-0.2135,-0.2055,0.1075,0.0048,0.0388,0.0203,197,2019-08-07 16:44:35:633
-6.1693,-7.2512,0.9534,-0.2135,-0.2055,0.1075,0.0027,0.0441,0.0118,203,2019-08-07 16:44:35:639
-6.1693,-7.2512,0.9534,-0.2135,-0.2055,0.1075,0.0027,0.0441,0.0118,208,2019-08-07 16:44:35:644
-6.2076,-7.275,0.9298,-0.2135,-0.2055,0.1075,0.007,0.042,0.0033,215,2019-08-07 16:44:35:651
-6.2076,-7.275,0.9298,-0.187,-0.2425,0.0224,0.007,0.042,0.0033,217,2019-08-07 16:44:35:653
-6.2076,-7.275,0.9298,-0.187,-0.2425,0.0224,0.007,0.042,0.0033,222,2019-08-07 16:44:35:658
-6.1359,-7.213,0.9345,-0.187,-0.2425,0.0224,0.0112,0.0356,-0.0053,228,2019-08-07 16:44:35:664
-6.1359,-7.213,0.9345,-0.187,-0.2425,0.0224,0.0134,0.0196,-0.0031,234,2019-08-07 16:44:35:670
-6.1072,-7.1939,0.9958,-0.2109,-0.2429,0.0106,0.0134,0.0196,-0.0031,238,2019-08-07 16:44:35:674
-6.1072,-7.1939,0.9958,-0.2109,-0.2429,0.0106,0.0134,0.0196,-0.0031,243,2019-08-07 16:44:35:679
-6.0067,-7.1366,1.0382,-0.2109,-0.2429,0.0106,0.0102,5.0E-4,0.0097,248,2019-08-07 16:44:35:684
-6.0067,-7.1366,1.0382,-0.2109,-0.2429,0.0106,0.0102,5.0E-4,0.0097,253,2019-08-07 16:44:35:689
-6.0067,-7.1366,1.0382,-0.3122,-0.3231,0.0266,0.007,-0.0134,0.0203,258,2019-08-07 16:44:35:694
-5.978,-7.1318,1.0241,-0.3122,-0.3231,0.0266,0.007,-0.0134,0.0203,263,2019-08-07 16:44:35:699
-5.978,-7.1318,1.0241,-0.3122,-0.3231,0.0266,0.007,-0.0145,0.0342,268,2019-08-07 16:44:35:704
-5.978,-7.1318,1.0241,-0.3122,-0.3231,0.0266,0.007,-0.0145,0.0342,272,2019-08-07 16:44:35:708
-5.9924,-7.0889,1.0194,-0.283,-0.3428,-0.1065,0.0027,-0.0283,0.0469,278,2019-08-07 16:44:35:714
-5.9924,-7.0889,1.0194,-0.283,-0.3428,-0.1065,0.0027,-0.0283,0.0469,283,2019-08-07 16:44:35:719
-5.9828,-7.1032,0.9817,-0.283,-0.3428,-0.1065,6.0E-4,-0.0198,0.0544,287,2019-08-07 16:44:35:723
-5.9828,-7.1032,0.9817,-0.283,-0.3428,-0.1065,6.0E-4,-0.0198,0.0544,293,2019-08-07 16:44:35:729
-5.9828,-7.1032,0.9817,-0.2714,-0.3216,0.0525,-5.0E-4,-0.0187,0.0555,298,2019-08-07 16:44:35:734
-6.0833,-7.1127,1.0147,-0.2714,-0.3216,0.0525,-5.0E-4,-0.0187,0.0555,303,2019-08-07 16:44:35:739
-6.0833,-7.1127,1.0147,-0.2714,-0.3216,0.0525,-5.0E-4,-0.0187,0.0555,309,2019-08-07 16:44:35:745
-6.0833,-7.1127,1.0147,-0.2714,-0.3216,0.0525,-0.0048,-0.0049,0.0544,313,2019-08-07 16:44:35:749
-6.045,-7.1986,0.9534,-0.289,-0.2764,0.1051,-0.0048,-0.0049,0.0544,318,2019-08-07 16:44:35:754
-6.045,-7.1986,0.9534,-0.289,-0.2764,0.1051,-0.0069,0.0079,0.0427,323,2019-08-07 16:44:35:759
-6.1215,-7.1509,0.8732,-0.289,-0.2764,0.1051,-0.0069,0.0079,0.0427,327,2019-08-07 16:44:35:763
-6.1215,-7.1509,0.8732,-0.289,-0.2764,0.1051,-0.0058,0.0186,0.0395,334,2019-08-07 16:44:35:770
-6.1215,-7.1509,0.8732,-0.2187,-0.2667,0.0313,-0.0058,0.0186,0.0395,337,2019-08-07 16:44:35:773
-6.0881,-7.1652,0.9911,-0.2187,-0.2667,0.0313,-0.0037,0.0186,0.0373,343,2019-08-07 16:44:35:779
-6.0881,-7.1652,0.9911,-0.2187,-0.2667,0.0313,-0.0037,0.0186,0.0373,348,2019-08-07 16:44:35:784
-6.0881,-7.1557,0.9251,-0.2187,-0.2667,0.0313,-0.0069,0.01,0.0342,353,2019-08-07 16:44:35:789
-6.0881,-7.1557,0.9251,-0.2187,-0.2667,0.0313,-0.0069,0.01,0.0342,357,2019-08-07 16:44:35:793
-6.0881,-7.1557,0.9251,-0.229,-0.2958,0.0192,-0.0133,0.0026,0.0384,363,2019-08-07 16:44:35:799
-6.0785,-7.1318,0.9911,-0.229,-0.2958,0.0192,-0.0133,0.0026,0.0384,369,2019-08-07 16:44:35:805
-6.0785,-7.1318,0.9911,-0.229,-0.2958,0.0192,-0.0165,5.0E-4,0.0523,373,2019-08-07 16:44:35:809
-6.0785,-7.1318,0.9911,-0.229,-0.2958,0.0192,-0.0165,5.0E-4,0.0523,377,2019-08-07 16:44:35:813
-6.1024,-7.1366,0.9581,-0.2548,-0.2665,0.0498,-0.0186,0.0068,0.0501,383,2019-08-07 16:44:35:819
-6.1024,-7.1366,0.9581,-0.2548,-0.2665,0.0498,-0.0186,0.0068,0.0501,388,2019-08-07 16:44:35:824
-6.1311,-7.1748,0.8968,-0.2548,-0.2665,0.0498,-0.0207,0.0111,0.0448,393,2019-08-07 16:44:35:829
-6.1311,-7.1748,0.8968,-0.1854,-0.2132,0.0687,-0.0207,0.0111,0.0448,398,2019-08-07 16:44:35:834
-6.1311,-7.1748,0.8968,-0.1854,-0.2132,0.0687,-0.0186,0.0143,0.0427,403,2019-08-07 16:44:35:839
-6.2125,-7.2225,0.8968,-0.1854,-0.2132,0.0687,-0.0186,0.0143,0.0427,408,2019-08-07 16:44:35:844
-6.2125,-7.2225,0.8968,-0.1854,-0.2132,0.0687,-0.0186,0.0143,0.0427,413,2019-08-07 16:44:35:849
-6.2125,-7.2225,0.8968,-0.1854,-0.2132,0.0687,-0.0143,0.0175,0.032,418,2019-08-07 16:44:35:854
-6.2316,-7.2464,0.9345,-0.1386,-0.1469,0.0633,-0.0143,0.0175,0.032,422,2019-08-07 16:44:35:858
-6.2316,-7.2464,0.9345,-0.1386,-0.1469,0.0633,-0.0133,0.0207,0.0107,428,2019-08-07 16:44:35:864
-6.2651,-7.213,0.9298,-0.1386,-0.1469,0.0633,-0.0133,0.0207,0.0107,433,2019-08-07 16:44:35:869
-6.2651,-7.213,0.9298,-0.1386,-0.1469,0.0633,-0.0122,0.0143,0.0011,437,2019-08-07 16:44:35:873
-6.2651,-7.213,0.9298,-0.1405,-0.2175,0.0678,-0.0122,0.0143,0.0011,443,2019-08-07 16:44:35:879
-6.2747,-7.2082,0.8874,-0.1405,-0.2175,0.0678,-0.008,0.0058,-0.0074,448,2019-08-07 16:44:35:884
-6.2747,-7.2082,0.8874,-0.1834,-0.2131,0.0285,-0.008,0.0058,-0.0074,454,2019-08-07 16:44:35:890
-6.2173,-7.1939,0.9251,-0.1834,-0.2131,0.0285,-0.008,0.0058,-0.0074,458,2019-08-07 16:44:35:894
-6.2173,-7.1939,0.9251,-0.1834,-0.2131,0.0285,-0.009,-0.0113,-0.0127,462,2019-08-07 16:44:35:898
-6.2173,-7.1939,0.9251,-0.1834,-0.2131,0.0285,-0.009,-0.0113,-0.0127,468,2019-08-07 16:44:35:904
-6.1647,-7.2034,0.9298,-0.2057,-0.1907,0.0612,-0.009,-0.0304,-0.0085,473,2019-08-07 16:44:35:909
-6.1647,-7.2034,0.9298,-0.2057,-0.1907,0.0612,-0.009,-0.0304,-0.0085,477,2019-08-07 16:44:35:913
-6.112,-7.1605,0.9062,-0.2057,-0.1907,0.0612,-0.0026,-0.0336,-0.0074,483,2019-08-07 16:44:35:919
-6.112,-7.1605,0.9062,-0.2057,-0.1907,0.0612,-0.0026,-0.0336,-0.0074,487,2019-08-07 16:44:35:923
-6.112,-7.1605,0.9062,-0.3183,-0.2209,0.0924,-0.0016,-0.0294,-0.0042,493,2019-08-07 16:44:35:929
-6.069,-7.213,0.9204,-0.3183,-0.2209,0.0924,-0.0016,-0.0294,-0.0042,498,2019-08-07 16:44:35:934
-6.069,-7.213,0.9204,-0.3183,-0.2209,0.0924,6.0E-4,-0.0304,1.0E-4,503,2019-08-07 16:44:35:939
-6.069,-7.213,0.9204,-0.3183,-0.2209,0.0924,6.0E-4,-0.0304,1.0E-4,508,2019-08-07 16:44:35:944
-6.0546,-7.1795,0.9251,-0.2928,-0.2265,0.0816,0.0027,-0.0177,-0.001,512,2019-08-07 16:44:35:948
-6.0546,-7.1795,0.9251,-0.2928,-0.2265,0.0816,0.0027,-0.0177,-0.001,518,2019-08-07 16:44:35:954
-6.0499,-7.1795,0.9062,-0.2928,-0.2265,0.0816,0.007,-0.007,-0.0053,523,2019-08-07 16:44:35:959
-6.0499,-7.1795,0.9062,-0.2928,-0.2265,0.0816,0.007,-0.007,-0.0053,528,2019-08-07 16:44:35:964
-6.0499,-7.1795,0.9062,-0.2631,-0.2033,0.0971,0.0048,0.0026,-0.0053,533,2019-08-07 16:44:35:969
-6.1216,-7.2416,0.9392,-0.2631,-0.2033,0.0971,0.0048,0.0026,-0.0053,538,2019-08-07 16:44:35:974
-6.1216,-7.2416,0.9392,-0.2631,-0.2033,0.0971,0.0048,0.0111,-0.0053,543,2019-08-07 16:44:35:979
-6.1216,-7.2416,0.9392,-0.2631,-0.2033,0.0971,0.0048,0.0111,-0.0053,548,2019-08-07 16:44:35:984
-6.1599,-7.1843,0.9015,-0.1806,-0.1996,0.0541,0.0027,0.0037,-0.0095,553,2019-08-07 16:44:35:989
-6.1599,-7.1843,0.9015,-0.1806,-0.1996,0.0541,0.0027,0.0037,-0.0095,558,2019-08-07 16:44:35:994
-6.1743,-7.1891,0.8779,-0.1806,-0.1996,0.0541,0.0027,0.0037,-0.0095,562,2019-08-07 16:44:35:998
-6.1743,-7.1891,0.8779,-0.1806,-0.1996,0.0541,0.0048,-0.0038,-0.0127,568,2019-08-07 16:44:36:004
-6.1743,-7.1891,0.8779,-0.2456,-0.2251,-0.0063,0.0048,-0.0038,-0.0127,573,2019-08-07 16:44:36:009
-6.0882,-7.1414,0.9958,-0.2456,-0.2251,-0.0063,0.0102,-0.0166,-0.0127,578,2019-08-07 16:44:36:014
-6.0882,-7.1414,0.9958,-0.2456,-0.2251,-0.0063,0.0102,-0.0166,-0.0127,582,2019-08-07 16:44:36:018
-6.0977,-7.0888,1.0288,-0.2456,-0.2251,-0.0063,0.0123,-0.024,-0.0117,588,2019-08-07 16:44:36:024
-6.0977,-7.0888,1.0288,-0.3055,-0.2789,0.0127,0.0123,-0.024,-0.0117,593,2019-08-07 16:44:36:029
-6.0977,-7.0888,1.0288,-0.3055,-0.2789,0.0127,0.0176,-0.0304,-0.0053,597,2019-08-07 16:44:36:033
-6.069,-7.127,0.8921,-0.3055,-0.2789,0.0127,0.0176,-0.0304,-0.0053,603,2019-08-07 16:44:36:039
-6.069,-7.127,0.8921,-0.3055,-0.2789,0.0127,0.0155,-0.0315,-0.0031,607,2019-08-07 16:44:36:043
-6.0642,-7.1032,0.9675,-0.2945,-0.2983,0.0427,0.0155,-0.0315,-0.0031,613,2019-08-07 16:44:36:049
-6.0642,-7.1032,0.9675,-0.2945,-0.2983,0.0427,0.0165,-0.0315,0.0011,618,2019-08-07 16:44:36:054
-6.0642,-7.1032,0.9675,-0.2945,-0.2983,0.0427,0.0165,-0.0315,0.0011,622,2019-08-07 16:44:36:058
-6.0834,-7.0793,0.9439,-0.2945,-0.2983,0.0427,0.0197,-0.0272,0.0054,628,2019-08-07 16:44:36:064
-6.0834,-7.0793,0.9439,-0.2894,-0.2929,0.1339,0.0197,-0.0272,0.0054,632,2019-08-07 16:44:36:068
-6.0834,-7.0793,0.9439,-0.2894,-0.2929,0.1339,0.0187,-0.0177,0.0011,638,2019-08-07 16:44:36:074
-6.0786,-7.0363,0.9062,-0.2894,-0.2929,0.1339,0.0187,-0.0177,0.0011,643,2019-08-07 16:44:36:079
-6.0786,-7.0363,0.9062,-0.2894,-0.2929,0.1339,0.0102,-0.0102,1.0E-4,648,2019-08-07 16:44:36:084
-6.026,-7.0984,0.9203,-0.3324,-0.302,0.1001,0.0102,-0.0102,1.0E-4,654,2019-08-07 16:44:36:090
-6.026,-7.0984,0.9203,-0.3324,-0.302,0.1001,0.0102,-0.0102,1.0E-4,658,2019-08-07 16:44:36:094
-6.026,-7.0984,0.9203,-0.3324,-0.302,0.1001,6.0E-4,0.0058,-0.0095,663,2019-08-07 16:44:36:099
-6.0978,-7.0888,0.8921,-0.3324,-0.302,0.1001,6.0E-4,0.0058,-0.0095,667,2019-08-07 16:44:36:103
-6.0978,-7.0888,0.8921,-0.2405,-0.3125,0.1604,-0.0037,0.0047,-0.0085,673,2019-08-07 16:44:36:109
-6.1265,-7.1366,0.8685,-0.2405,-0.3125,0.1604,-0.0037,0.0047,-0.0085,678,2019-08-07 16:44:36:114
-6.1265,-7.1366,0.8685,-0.2405,-0.3125,0.1604,-0.0101,-6.0E-4,-0.0053,683,2019-08-07 16:44:36:119
-6.1265,-7.1366,0.8685,-0.2405,-0.3125,0.1604,-0.0101,-6.0E-4,-0.0053,688,2019-08-07 16:44:36:124
-6.0547,-7.1461,0.9345,-0.3016,-0.285,0.0784,-0.0154,-0.0113,-0.0063,693,2019-08-07 16:44:36:129
-6.0547,-7.1461,0.9345,-0.3016,-0.285,0.0784,-0.0154,-0.0113,-0.0063,698,2019-08-07 16:44:36:134
-6.026,-7.1318,0.9392,-0.3016,-0.285,0.0784,-0.0154,-0.0113,-0.0063,703,2019-08-07 16:44:36:139
-6.026,-7.1318,0.9392,-0.3016,-0.285,0.0784,-0.0143,-0.0134,1.0E-4,708,2019-08-07 16:44:36:144
-6.026,-7.1318,0.9392,-0.3016,-0.285,0.0784,-0.0143,-0.0134,1.0E-4,713,2019-08-07 16:44:36:149
-6.0117,-7.1318,0.9203,-0.3965,-0.2143,0.0914,-0.0154,-0.0059,0.0054,718,2019-08-07 16:44:36:154
-6.0117,-7.1318,0.9203,-0.3965,-0.2143,0.0914,-0.0154,-0.0059,0.0054,723,2019-08-07 16:44:36:159
-5.9925,-7.1652,0.9251,-0.3965,-0.2143,0.0914,-0.0154,5.0E-4,0.0086,727,2019-08-07 16:44:36:163
-5.9925,-7.1652,0.9251,-0.3342,-0.2385,0.0848,-0.0154,5.0E-4,0.0086,733,2019-08-07 16:44:36:169
-5.9925,-7.1652,0.9251,-0.3342,-0.2385,0.0848,-0.0143,0.0015,0.0097,737,2019-08-07 16:44:36:173
-6.0691,-7.1843,0.9392,-0.3342,-0.2385,0.0848,-0.0143,0.0015,0.0097,743,2019-08-07 16:44:36:179
-6.0691,-7.1843,0.9392,-0.3342,-0.2385,0.0848,-0.0122,0.0079,0.0043,748,2019-08-07 16:44:36:184
-6.0691,-7.1843,0.9392,-0.3342,-0.2385,0.0848,-0.0122,0.0079,0.0043,752,2019-08-07 16:44:36:188
-6.0834,-7.1748,0.9156,-0.2969,-0.1952,0.1473,-0.0122,0.0079,0.0043,758,2019-08-07 16:44:36:194
-6.0834,-7.1748,0.9156,-0.2969,-0.1952,0.1473,-0.0101,0.01,1.0E-4,762,2019-08-07 16:44:36:198
-6.0834,-7.1748,0.9156,-0.2969,-0.1952,0.1473,-0.0101,0.01,1.0E-4,768,2019-08-07 16:44:36:204
-6.1169,-7.232,0.8732,-0.2969,-0.1952,0.1473,-0.0069,0.0175,1.0E-4,772,2019-08-07 16:44:36:208
-6.1169,-7.232,0.8732,-0.2586,-0.2148,0.1717,-0.0069,0.0175,1.0E-4,778,2019-08-07 16:44:36:214
-6.0691,-7.1843,0.9298,-0.2586,-0.2148,0.1717,-0.0058,0.0196,-0.001,782,2019-08-07 16:44:36:218
-6.0691,-7.1843,0.9298,-0.2586,-0.2148,0.1717,-0.0058,0.0196,-0.001,788,2019-08-07 16:44:36:224
-6.0691,-7.1843,0.9298,-0.2586,-0.2148,0.1717,-0.0016,0.0239,-0.0063,793,2019-08-07 16:44:36:229
-6.0452,-7.1748,0.9816,-0.3108,-0.23,0.0218,-0.0016,0.0239,-0.0063,798,2019-08-07 16:44:36:234
-6.0452,-7.1748,0.9816,-0.3108,-0.23,0.0218,0.0016,0.0207,-0.0042,803,2019-08-07 16:44:36:239
-6.0308,-7.1509,0.9392,-0.3108,-0.23,0.0218,0.0016,0.0207,-0.0042,809,2019-08-07 16:44:36:245
-6.0308,-7.1509,0.9392,-0.3108,-0.23,0.0218,0.0027,0.0132,0.0022,813,2019-08-07 16:44:36:249
-6.0308,-7.1509,0.9392,-0.3536,-0.2115,0.0713,0.0027,0.0132,0.0022,817,2019-08-07 16:44:36:253
-6.0213,-7.2034,0.9958,-0.3536,-0.2115,0.0713,0.0048,-0.0017,0.0107,823,2019-08-07 16:44:36:259
-6.0213,-7.2034,0.9958,-0.3536,-0.2115,0.0713,0.0048,-0.0017,0.0107,827,2019-08-07 16:44:36:263
-5.983,-7.1891,0.9486,-0.3536,-0.2115,0.0713,0.0048,-0.007,0.015,833,2019-08-07 16:44:36:269
-5.983,-7.1891,0.9486,-0.3974,-0.2633,0.0908,0.0048,-0.007,0.015,837,2019-08-07 16:44:36:273
-5.983,-7.1891,0.9486,-0.3974,-0.2633,0.0908,0.007,-0.007,0.0182,843,2019-08-07 16:44:36:279
-5.9543,-7.1222,0.991,-0.3974,-0.2633,0.0908,0.007,-0.007,0.0182,847,2019-08-07 16:44:36:283
-5.9543,-7.1222,0.991,-0.3974,-0.2633,0.0908,0.007,-0.007,0.0182,853,2019-08-07 16:44:36:289
-5.9543,-7.1222,0.991,-0.3897,-0.3235,0.1067,0.008,-0.0027,0.0224,858,2019-08-07 16:44:36:294
-5.9399,-7.1318,0.9203,-0.3897,-0.3235,0.1067,0.008,-0.0027,0.0224,863,2019-08-07 16:44:36:299
-5.9399,-7.1318,0.9203,-0.3897,-0.3235,0.1067,0.0059,0.0175,0.0256,868,2019-08-07 16:44:36:304
-6.0739,-7.1127,0.8638,-0.3897,-0.3235,0.1067,0.0059,0.0175,0.0256,873,2019-08-07 16:44:36:309
-6.0739,-7.1127,0.8638,-0.3115,-0.2684,0.0486,-5.0E-4,0.0345,0.0224,878,2019-08-07 16:44:36:314
-6.0739,-7.1127,0.8638,-0.3115,-0.2684,0.0486,-5.0E-4,0.0345,0.0224,883,2019-08-07 16:44:36:319
-6.0787,-7.1318,0.9628,-0.3115,-0.2684,0.0486,-0.0026,0.0473,0.0214,887,2019-08-07 16:44:36:323
-6.0787,-7.1318,0.9628,-0.3115,-0.2684,0.0486,-0.0026,0.0473,0.0214,893,2019-08-07 16:44:36:329
-6.1648,-7.1222,0.9298,-0.2582,-0.2514,0.0517,-0.0048,0.0527,0.016,898,2019-08-07 16:44:36:334
-6.1648,-7.1222,0.9298,-0.2582,-0.2514,0.0517,-0.0048,0.0527,0.016,902,2019-08-07 16:44:36:338
-6.1648,-7.1222,0.9298,-0.2582,-0.2514,0.0517,-5.0E-4,0.0495,0.0139,908,2019-08-07 16:44:36:344
-6.2318,-7.1891,0.9203,-0.2582,-0.2514,0.0517,-5.0E-4,0.0495,0.0139,913,2019-08-07 16:44:36:349
-6.2318,-7.1891,0.9203,-0.1897,-0.1827,0.0451,-5.0E-4,0.0495,0.0139,918,2019-08-07 16:44:36:354
-6.2318,-7.1891,0.9203,-0.1897,-0.1827,0.0451,-0.0069,0.0228,0.0139,923,2019-08-07 16:44:36:359
-6.1218,-7.2129,1.0005,-0.1897,-0.1827,0.0451,-0.008,0.0058,0.016,928,2019-08-07 16:44:36:364
-6.1218,-7.2129,1.0005,-0.1897,-0.1827,0.0451,-0.008,0.0058,0.016,933,2019-08-07 16:44:36:369
-6.0596,-7.2368,0.9675,-0.297,-0.1621,-0.0046,-0.008,0.0058,0.016,938,2019-08-07 16:44:36:374
-6.0596,-7.2368,0.9675,-0.297,-0.1621,-0.0046,-0.0069,-0.0017,0.0182,943,2019-08-07 16:44:36:379
-6.0596,-7.2368,0.9675,-0.297,-0.1621,-0.0046,-0.0069,-0.0017,0.0182,947,2019-08-07 16:44:36:383
-6.0405,-7.1986,0.9015,-0.297,-0.1621,-0.0046,-0.0026,-6.0E-4,0.0192,953,2019-08-07 16:44:36:389
-6.0405,-7.1986,0.9015,-0.3518,-0.1699,0.0135,-0.0026,-6.0E-4,0.0192,957,2019-08-07 16:44:36:393
-6.0405,-7.1986,0.9015,-0.3518,-0.1699,0.0135,-0.0026,0.0058,0.0235,963,2019-08-07 16:44:36:399
-6.0405,-7.1843,0.9203,-0.3518,-0.1699,0.0135,-0.0026,0.0058,0.0235,968,2019-08-07 16:44:36:404
-6.0405,-7.1843,0.9203,-0.3518,-0.1699,0.0135,6.0E-4,0.0175,0.0256,973,2019-08-07 16:44:36:409
-6.0979,-7.1795,0.9627,-0.2784,-0.2105,0.0211,6.0E-4,0.0175,0.0256,977,2019-08-07 16:44:36:413
-6.0979,-7.1795,0.9627,-0.2784,-0.2105,0.0211,0.0059,0.0282,0.0182,984,2019-08-07 16:44:36:420
-6.0979,-7.1795,0.9627,-0.2784,-0.2105,0.0211,0.0059,0.0282,0.0182,987,2019-08-07 16:44:36:423
-6.2271,-7.1843,0.8638,-0.2784,-0.2105,0.0211,0.0102,0.0356,0.0054,993,2019-08-07 16:44:36:429
-6.2271,-7.1843,0.8638,-0.1181,-0.2279,0.0884,0.0102,0.0356,0.0054,998,2019-08-07 16:44:36:434
-6.2701,-7.1557,0.892,-0.1181,-0.2279,0.0884,0.0123,0.025,1.0E-4,1002,2019-08-07 16:44:36:438
-6.2701,-7.1557,0.892,-0.1181,-0.2279,0.0884,0.0123,0.025,1.0E-4,1008,2019-08-07 16:44:36:444
-6.2701,-7.1557,0.892,-0.1181,-0.2279,0.0884,0.0102,0.0207,-0.0127,1013,2019-08-07 16:44:36:449
-6.2414,-7.1986,0.9345,-0.1276,-0.2043,0.0537,0.0102,0.0207,-0.0127,1018,2019-08-07 16:44:36:454
-6.2414,-7.1986,0.9345,-0.1276,-0.2043,0.0537,0.0112,0.0154,-0.0202,1022,2019-08-07 16:44:36:458
-6.2749,-7.232,0.9015,-0.1276,-0.2043,0.0537,0.0112,0.0154,-0.0202,1028,2019-08-07 16:44:36:464
-6.2749,-7.232,0.9015,-0.1276,-0.2043,0.0537,0.0123,0.0047,-0.0244,1033,2019-08-07 16:44:36:469
-6.2749,-7.232,0.9015,-0.1724,-0.1592,0.0583,0.0123,0.0047,-0.0244,1038,2019-08-07 16:44:36:474
-6.1457,-7.1938,0.9156,-0.1724,-0.1592,0.0583,0.0165,-0.0113,-0.0244,1044,2019-08-07 16:44:36:480
-6.1457,-7.1938,0.9156,-0.1724,-0.1592,0.0583,0.0165,-0.0113,-0.0244,1049,2019-08-07 16:44:36:485
-6.0692,-7.1748,0.9203,-0.1724,-0.1592,0.0583,0.0187,-0.0198,-0.018,1053,2019-08-07 16:44:36:489
-6.0692,-7.1748,0.9203,-0.3263,-0.1717,0.0576,0.0187,-0.0198,-0.018,1058,2019-08-07 16:44:36:494
-6.0692,-7.1748,0.9203,-0.3263,-0.1717,0.0576,0.0187,-0.0198,-0.018,1063,2019-08-07 16:44:36:499
-6.007,-7.1413,0.9297,-0.3263,-0.1717,0.0576,0.0165,-0.0219,-0.0117,1068,2019-08-07 16:44:36:504
-6.007,-7.1413,0.9297,-0.3263,-0.1717,0.0576,0.0165,-0.0219,-0.0117,1073,2019-08-07 16:44:36:509
-5.9831,-7.1031,0.892,-0.3263,-0.1717,0.0576,0.024,-0.0134,-0.0031,1078,2019-08-07 16:44:36:514
-5.9831,-7.1031,0.892,-0.3955,-0.3021,0.0252,0.024,-0.0134,-0.0031,1083,2019-08-07 16:44:36:519
-5.9831,-7.1031,0.892,-0.3955,-0.3021,0.0252,0.024,-0.0134,-0.0031,1088,2019-08-07 16:44:36:524
-6.0405,-7.127,0.9062,-0.3955,-0.3021,0.0252,0.0208,5.0E-4,1.0E-4,1092,2019-08-07 16:44:36:528
-6.0405,-7.127,0.9062,-0.3377,-0.2782,0.0328,0.0123,0.0111,0.0065,1099,2019-08-07 16:44:36:535
-6.0405,-7.127,0.9062,-0.3377,-0.2782,0.0328,0.0123,0.0111,0.0065,1102,2019-08-07 16:44:36:538
-6.0214,-7.0936,0.9156,-0.3377,-0.2782,0.0328,0.0123,0.0111,0.0065,1108,2019-08-07 16:44:36:544
-6.0214,-7.0936,0.9156,-0.3377,-0.2782,0.0328,0.0123,0.0175,0.0043,1113,2019-08-07 16:44:36:549
-6.1027,-7.1175,0.9015,-0.2763,-0.2202,0.07,0.0123,0.0175,0.0043,1118,2019-08-07 16:44:36:554
-6.1027,-7.1175,0.9015,-0.2763,-0.2202,0.07,0.0112,0.0207,0.0043,1122,2019-08-07 16:44:36:558
-6.1027,-7.1175,0.9015,-0.2763,-0.2202,0.07,0.0112,0.0207,0.0043,1128,2019-08-07 16:44:36:564
-6.1266,-7.1795,0.8402,-0.2433,-0.2152,0.1494,0.0091,0.0154,0.0075,1133,2019-08-07 16:44:36:569
-6.1266,-7.1795,0.8402,-0.2433,-0.2152,0.1494,0.0091,0.0154,0.0075,1138,2019-08-07 16:44:36:574
-6.1266,-7.1795,0.8402,-0.2433,-0.2152,0.1494,0.0091,0.0154,0.0075,1143,2019-08-07 16:44:36:579
-5.964,-7.1604,0.7648,-0.2433,-0.2152,0.1494,0.0102,0.0186,0.0107,1148,2019-08-07 16:44:36:584
-5.964,-7.1604,0.7648,-0.5697,-0.2098,0.4345,0.0102,0.0186,0.0107,1153,2019-08-07 16:44:36:589
-5.4903,-7.2416,0.4254,-0.5697,-0.2098,0.4345,0.0048,0.0495,0.0342,1157,2019-08-07 16:44:36:593
-5.4903,-7.2416,0.4254,-0.5697,-0.2098,0.4345,0.0048,0.0495,0.0342,1163,2019-08-07 16:44:36:599
-5.4903,-7.2416,0.4254,-0.5697,-0.2098,0.4345,0.024,0.1176,0.0608,1167,2019-08-07 16:44:36:603
-5.2272,-7.1891,0.3217,-1.1485,-0.2026,0.6532,0.024,0.1176,0.0608,1173,2019-08-07 16:44:36:609
-5.2272,-7.1891,0.3217,-1.1485,-0.2026,0.6532,0.106,0.2668,0.114,1177,2019-08-07 16:44:36:613
-5.2942,-6.9552,0.5621,-1.1485,-0.2026,0.6532,0.106,0.2668,0.114,1183,2019-08-07 16:44:36:619
-5.2942,-6.9552,0.5621,-1.1485,-0.2026,0.6532,0.1913,0.3605,0.1769,1188,2019-08-07 16:44:36:624
-5.2942,-6.9552,0.5621,-0.9824,-0.6364,0.2219,0.1913,0.3605,0.1769,1193,2019-08-07 16:44:36:629
-5.4282,-6.6639,0.7695,-0.9824,-0.6364,0.2219,0.2488,0.3776,0.2515,1198,2019-08-07 16:44:36:634
-5.4282,-6.6639,0.7695,-0.9495,-0.8207,0.1343,0.2488,0.3776,0.2515,1203,2019-08-07 16:44:36:639
-5.4282,-6.6639,0.7695,-0.9495,-0.8207,0.1343,0.2488,0.3776,0.2515,1207,2019-08-07 16:44:36:643
-5.5813,-6.4014,0.8732,-0.9495,-0.8207,0.1343,0.2722,0.3445,0.326,1213,2019-08-07 16:44:36:649
-5.5813,-6.4014,0.8732,-0.9495,-0.8207,0.1343,0.2722,0.3445,0.326,1218,2019-08-07 16:44:36:654
-5.6674,-6.2725,1.1984,-0.7859,-0.9765,-0.2065,0.2818,0.2369,0.4262,1223,2019-08-07 16:44:36:659
-5.6674,-6.2725,1.1984,-0.7859,-0.9765,-0.2065,0.2818,0.2369,0.4262,1228,2019-08-07 16:44:36:664
-5.6674,-6.2725,1.1984,-0.994,-1.0816,-0.4548,0.301,0.1059,0.5199,1234,2019-08-07 16:44:36:670
-5.3086,-6.1484,1.3304,-0.994,-1.0816,-0.4548,0.301,0.1059,0.5199,1238,2019-08-07 16:44:36:674
-5.3086,-6.1484,1.3304,-0.994,-1.0816,-0.4548,0.301,0.1059,0.5199,1243,2019-08-07 16:44:36:679
-4.6005,-5.8858,1.0617,-0.994,-1.0816,-0.4548,0.317,-0.024,0.6318,1248,2019-08-07 16:44:36:684
-4.6005,-5.8858,1.0617,-2.4643,-1.4823,0.2317,0.317,-0.024,0.6318,1254,2019-08-07 16:44:36:690
-4.6005,-5.8858,1.0617,-2.4643,-1.4823,0.2317,0.3585,-0.0986,0.8704,1258,2019-08-07 16:44:36:694
-3.2179,-5.2461,0.5903,-2.4643,-1.4823,0.2317,0.3585,-0.0986,0.8704,1262,2019-08-07 16:44:36:698
-3.2179,-5.2461,0.5903,-2.4643,-1.4823,0.2317,0.4565,-0.0624,1.1527,1269,2019-08-07 16:44:36:705
-3.2179,-5.2461,0.5903,-5.6788,-2.5073,0.8223,0.4565,-0.0624,1.1527,1273,2019-08-07 16:44:36:709
-0.3234,-4.3916,0.4395,-5.6788,-2.5073,0.8223,0.5875,0.1091,1.4254,1279,2019-08-07 16:44:36:715
-0.3234,-4.3916,0.4395,-8.0785,-3.2133,0.2206,0.5875,0.1091,1.4254,1283,2019-08-07 16:44:36:719
-0.3234,-4.3916,0.4395,-8.0785,-3.2133,0.2206,0.5875,0.1091,1.4254,1288,2019-08-07 16:44:36:724
2.0017,-2.8592,0.8967,-8.0785,-3.2133,0.2206,0.938,0.5139,2.089,1293,2019-08-07 16:44:36:729
2.0017,-2.8592,0.8967,-9.1084,-4.2843,0.2046,1.117,0.923,2.7389,1299,2019-08-07 16:44:36:735
2.1787,-1.4891,1.2691,-9.1084,-4.2843,0.2046,1.117,0.923,2.7389,1303,2019-08-07 16:44:36:739
2.1787,-1.4891,1.2691,-9.1084,-4.2843,0.2046,1.117,0.923,2.7389,1308,2019-08-07 16:44:36:744
2.1787,-1.4891,1.2691,-8.6625,-5.4135,-0.1219,1.1649,1.3427,3.4931,1313,2019-08-07 16:44:36:749
1.1166,-1.0547,1.5708,-8.6625,-5.4135,-0.1219,1.1649,1.3427,3.4931,1318,2019-08-07 16:44:36:754
1.1166,-1.0547,1.5708,-8.6625,-5.4135,-0.1219,1.0658,1.5057,4.2835,1322,2019-08-07 16:44:36:758
1.1166,-1.0547,1.5708,-8.6625,-5.4135,-0.1219,1.0658,1.5057,4.2835,1328,2019-08-07 16:44:36:764
-1.8113,-0.4389,3.1688,-4.8297,-5.677,-2.0693,0.9785,0.9549,4.928,1333,2019-08-07 16:44:36:769
-1.8113,-0.4389,3.1688,-4.8297,-5.677,-2.0693,0.9785,0.9549,4.928,1338,2019-08-07 16:44:36:774
-1.8113,-0.4389,3.1688,-4.8297,-5.677,-2.0693,0.9785,0.9549,4.928,1343,2019-08-07 16:44:36:779
-3.7155,0.5541,3.3479,-4.8297,-5.677,-2.0693,0.9401,-0.0102,5.6183,1348,2019-08-07 16:44:36:784
-3.7155,0.5541,3.3479,-5.3882,-6.0537,-1.0988,0.9401,-0.0102,5.6183,1353,2019-08-07 16:44:36:789
-2.3998,1.4659,1.8301,-5.3882,-6.0537,-1.0988,0.9987,-1.6773,6.5791,1358,2019-08-07 16:44:36:794
-2.3998,1.4659,1.8301,-5.3882,-6.0537,-1.0988,0.9987,-1.6773,6.5791,1363,2019-08-07 16:44:36:799
-2.3998,1.4659,1.8301,-5.3882,-6.0537,-1.0988,1.1063,-2.4092,7.1544,1369,2019-08-07 16:44:36:805
0.0689,1.5184,0.1472,-9.5883,-5.0067,1.8058,1.1063,-2.4092,7.1544,1372,2019-08-07 16:44:36:808
0.0689,1.5184,0.1472,-9.5883,-5.0067,1.8058,1.1063,-2.4092,7.1544,1378,2019-08-07 16:44:36:814
2.016,1.3227,-0.5316,-9.5883,-5.0067,1.8058,1.3013,-2.5977,7.6529,1382,2019-08-07 16:44:36:818
2.016,1.3227,-0.5316,-9.5883,-5.0067,1.8058,1.3013,-2.5977,7.6529,1388,2019-08-07 16:44:36:824
2.016,1.3227,-0.5316,-9.5883,-5.0067,1.8058,1.6262,-2.211,8.1951,1393,2019-08-07 16:44:36:829
3.5374,1.4563,-1.4885,-12.8596,-3.4571,3.7974,1.6262,-2.211,8.1951,1398,2019-08-07 16:44:36:834
3.5374,1.4563,-1.4885,-12.8596,-3.4571,3.7974,1.8722,-1.7104,8.6457,1403,2019-08-07 16:44:36:839
3.4513,2.1008,-2.2898,-12.8596,-3.4571,3.7974,1.8722,-1.7104,8.6457,1408,2019-08-07 16:44:36:844
3.4513,2.1008,-2.2898,-12.8596,-3.4571,3.7974,2.0384,-1.3098,9.009,1413,2019-08-07 16:44:36:849
1.5807,2.7739,-3.1619,-11.9775,-2.7497,5.7012,2.0384,-1.3098,9.009,1418,2019-08-07 16:44:36:854
1.5807,2.7739,-3.1619,-11.9775,-2.7497,5.7012,2.3101,-0.6078,9.5629,1423,2019-08-07 16:44:36:859
1.5807,2.7739,-3.1619,-11.9775,-2.7497,5.7012,2.3101,-0.6078,9.5629,1427,2019-08-07 16:44:36:863
-1.6248,3.6045,0.2698,-11.9775,-2.7497,5.7012,2.5796,-0.4363,9.9305,1433,2019-08-07 16:44:36:869
-1.6248,3.6045,0.2698,-6.8451,-1.995,1.9863,2.5796,-0.4363,9.9305,1438,2019-08-07 16:44:36:874
-1.6248,3.6045,0.2698,-6.8451,-1.995,1.9863,2.5796,-0.4363,9.9305,1443,2019-08-07 16:44:36:879
-4.5288,4.3206,2.226,-6.8451,-1.995,1.9863,3.0419,-0.7506,10.2788,1448,2019-08-07 16:44:36:884
-4.5288,4.3206,2.226,-1.5041,-2.9508,0.8739,3.0419,-0.7506,10.2788,1453,2019-08-07 16:44:36:889
-7.3898,7.7435,1.5425,-1.5041,-2.9508,0.8739,3.7141,-1.5229,10.6175,1458,2019-08-07 16:44:36:894
-7.3898,7.7435,1.5425,-1.5041,-2.9508,0.8739,3.7141,-1.5229,10.6175,1463,2019-08-07 16:44:36:899
-7.3898,7.7435,1.5425,9.0E-4,-6.5853,1.0808,4.1849,-1.6145,10.6101,1468,2019-08-07 16:44:36:904
-8.0644,14.1595,2.5843,9.0E-4,-6.5853,1.0808,4.1849,-1.6145,10.6101,1473,2019-08-07 16:44:36:909
-8.0644,14.1595,2.5843,9.0E-4,-6.5853,1.0808,4.1849,-1.6145,10.6101,1478,2019-08-07 16:44:36:914
-7.031,18.9428,4.6065,9.0E-4,-6.5853,1.0808,4.6718,-1.7018,10.3427,1483,2019-08-07 16:44:36:919
-7.031,18.9428,4.6065,0.6624,-14.7871,-3.0798,4.6718,-1.7018,10.3427,1487,2019-08-07 16:44:36:923
-7.031,18.9428,4.6065,0.6624,-14.7871,-3.0798,4.6718,-1.7018,10.3427,1493,2019-08-07 16:44:36:929
-9.3753,25.4734,4.5971,0.6624,-14.7871,-3.0798,4.7154,-2.325,9.8783,1498,2019-08-07 16:44:36:934
-9.3753,25.4734,4.5971,0.6624,-14.7871,-3.0798,4.7154,-2.325,9.8783,1503,2019-08-07 16:44:36:939
-16.432,33.3264,2.5984,10.1191,-23.8874,-0.339,4.2148,-2.521,9.5278,1508,2019-08-07 16:44:36:944
-16.432,33.3264,2.5984,10.1191,-23.8874,-0.339,4.2148,-2.521,9.5278,1512,2019-08-07 16:44:36:948
-16.432,33.3264,2.5984,10.1191,-23.8874,-0.339,3.3966,-3.2113,9.4266,1518,2019-08-07 16:44:36:954
-21.7856,36.4246,2.2779,10.1191,-23.8874,-0.339,3.3966,-3.2113,9.4266,1522,2019-08-07 16:44:36:958
-21.7856,36.4246,2.2779,18.1712,-26.412,1.4864,2.2749,-4.9669,9.5139,1528,2019-08-07 16:44:36:964
-16.145,31.097,-4.4346,18.1712,-26.412,1.4864,2.2749,-4.9669,9.5139,1533,2019-08-07 16:44:36:969
-16.145,31.097,-4.4346,18.1712,-26.412,1.4864,0.6493,-6.9333,9.3605,1538,2019-08-07 16:44:36:974
-16.145,31.097,-4.4346,18.1712,-26.412,1.4864,0.6493,-6.9333,9.3605,1543,2019-08-07 16:44:36:979
-0.4766,22.4898,-14.2252,-0.9174,-12.9165,15.8513,0.6493,-6.9333,9.3605,1547,2019-08-07 16:44:36:983
-0.4766,22.4898,-14.2252,-0.9174,-12.9165,15.8513,-0.4895,-6.1696,8.4423,1553,2019-08-07 16:44:36:989
-0.4766,22.4898,-14.2252,-0.9174,-12.9165,15.8513,-0.4895,-6.1696,8.4423,1558,2019-08-07 16:44:36:994
15.541,14.675,-13.2023,-0.9174,-12.9165,15.8513,-1.0988,0.2178,5.8995,1563,2019-08-07 16:44:36:999
15.541,14.675,-13.2023,-16.1922,-1.9388,7.0089,-1.0988,0.2178,5.8995,1569,2019-08-07 16:44:37:005
15.8185,8.7746,36.9479,-16.1922,-1.9388,7.0089,0.4235,5.3001,2.1221,1573,2019-08-07 16:44:37:009
15.8185,8.7746,36.9479,-16.1922,-1.9388,7.0089,0.4235,5.3001,2.1221,1578,2019-08-07 16:44:37:014
15.8185,8.7746,36.9479,-16.1922,-1.9388,7.0089,2.2547,6.2962,-0.5741,1583,2019-08-07 16:44:37:019
0.8295,5.6573,7.0152,-0.4769,3.9885,-5.2629,2.2547,6.2962,-0.5741,1588,2019-08-07 16:44:37:024
0.8295,5.6573,7.0152,-0.4769,3.9885,-5.2629,2.2547,6.2962,-0.5741,1593,2019-08-07 16:44:37:029
-10.9302,9.3618,1.9243,-0.4769,3.9885,-5.2629,2.0246,7.1164,-2.8836,1598,2019-08-07 16:44:37:034
-10.9302,9.3618,1.9243,-0.4769,3.9885,-5.2629,2.0246,7.1164,-2.8836,1603,2019-08-07 16:44:37:039
-10.9302,9.3618,1.9243,17.0302,-4.5772,-3.7188,0.9859,5.9159,-4.6871,1607,2019-08-07 16:44:37:043
-19.1878,15.859,6.2233,17.0302,-4.5772,-3.7188,0.9859,5.9159,-4.6871,1613,2019-08-07 16:44:37:049
-19.1878,15.859,6.2233,17.0302,-4.5772,-3.7188,0.9859,5.9159,-4.6871,1618,2019-08-07 16:44:37:054
-19.1878,15.859,6.2233,17.0302,-4.5772,-3.7188,-0.1635,2.6189,-5.0578,1622,2019-08-07 16:44:37:058
-20.3408,21.0481,9.7398,17.6383,-11.4433,-8.1975,-0.1635,2.6189,-5.0578,1628,2019-08-07 16:44:37:064
-20.3408,21.0481,9.7398,17.6383,-11.4433,-8.1975,-1.0295,0.1677,-5.0876,1633,2019-08-07 16:44:37:069
-14.0591,20.7712,9.3391,17.6383,-11.4433,-8.1975,-1.0295,0.1677,-5.0876,1638,2019-08-07 16:44:37:074
-14.0591,20.7712,9.3391,17.6383,-11.4433,-8.1975,-1.0295,0.1677,-5.0876,1643,2019-08-07 16:44:37:079
-14.0591,20.7712,9.3391,7.5124,-11.6051,-8.4046,-1.8636,-1.2928,-5.3007,1648,2019-08-07 16:44:37:084
-9.4806,20.8333,9.5607,7.5124,-11.6051,-8.4046,-1.8636,-1.2928,-5.3007,1653,2019-08-07 16:44:37:089
-9.4806,20.8333,9.5607,7.5124,-11.6051,-8.4046,-2.2312,-1.6262,-5.3827,1658,2019-08-07 16:44:37:094
-9.4806,20.8333,9.5607,7.5124,-11.6051,-8.4046,-2.2312,-1.6262,-5.3827,1662,2019-08-07 16:44:37:098
-6.7918,19.7019,6.1997,2.3498,-9.9527,-2.6444,-2.3185,-1.1926,-5.3188,1668,2019-08-07 16:44:37:104
-6.7918,19.7019,6.1997,2.3498,-9.9527,-2.6444,-2.3185,-1.1926,-5.3188,1672,2019-08-07 16:44:37:108
-4.9882,17.2863,2.2778,2.3498,-9.9527,-2.6444,-2.5561,-0.3735,-5.2986,1678,2019-08-07 16:44:37:114
-4.9882,17.2863,2.2778,2.3498,-9.9527,-2.6444,-2.5561,-0.3735,-5.2986,1683,2019-08-07 16:44:37:119
-4.9882,17.2863,2.2778,0.3753,-6.145,1.7996,-3.0631,0.9943,-5.5681,1689,2019-08-07 16:44:37:125
-4.9882,17.2863,2.2778,0.3753,-6.145,1.7996,-3.0631,0.9943,-5.5681,1693,2019-08-07 16:44:37:129
-5.3996,13.5818,1.1041,0.3753,-6.145,1.7996,-3.0631,0.9943,-5.5681,1698,2019-08-07 16:44:37:134
-5.3996,13.5818,1.1041,0.3753,-6.145,1.7996,-3.5286,2.2247,-5.9601,1703,2019-08-07 16:44:37:139
-7.8061,10.9849,3.164,2.2831,-3.4328,-0.2147,-3.5286,2.2247,-5.9601,1708,2019-08-07 16:44:37:144
-7.8061,10.9849,3.164,2.2831,-3.4328,-0.2147,-3.6298,3.0876,-6.1689,1713,2019-08-07 16:44:37:149
-7.8061,10.9849,3.164,2.2831,-3.4328,-0.2147,-3.6298,3.0876,-6.1689,1719,2019-08-07 16:44:37:155
-8.9591,8.0299,5.0024,2.2831,-3.4328,-0.2147,-3.3476,3.8674,-6.3851,1723,2019-08-07 16:44:37:159
-8.9591,8.0299,5.0024,3.0455,0.2606,-2.2867,-3.3476,3.8674,-6.3851,1728,2019-08-07 16:44:37:164
-10.3944,5.2993,4.9081,3.0455,0.2606,-2.2867,-2.9981,4.0218,-6.5684,1733,2019-08-07 16:44:37:169
-10.3944,5.2993,4.9081,3.0455,0.2606,-2.2867,-2.9981,4.0218,-6.5684,1738,2019-08-07 16:44:37:174
-10.3944,5.2993,4.9081,3.0455,0.2606,-2.2867,-2.9981,4.0218,-6.5684,1743,2019-08-07 16:44:37:179
-11.8249,3.7669,4.465,4.1353,1.6386,-1.6566,-2.7127,3.7608,-6.6749,1748,2019-08-07 16:44:37:184
-11.8249,3.7669,4.465,4.1353,1.6386,-1.6566,-2.7127,3.7608,-6.6749,1753,2019-08-07 16:44:37:189
-11.8249,3.7669,4.465,4.1353,1.6386,-1.6566,-2.5965,3.0673,-6.6589,1758,2019-08-07 16:44:37:194
-11.8201,3.3277,4.5593,3.6875,1.4599,-1.8806,-2.5965,3.0673,-6.6589,1763,2019-08-07 16:44:37:199
-11.8201,3.3277,4.5593,3.6875,1.4599,-1.8806,-2.5486,2.4165,-6.6035,1768,2019-08-07 16:44:37:204
-10.7676,2.9124,4.1398,3.6875,1.4599,-1.8806,-2.5486,2.4165,-6.6035,1773,2019-08-07 16:44:37:209
-10.7676,2.9124,4.1398,3.6875,1.4599,-1.8806,-2.5486,2.4165,-6.6035,1778,2019-08-07 16:44:37:214
-10.7676,2.9124,4.1398,1.4053,0.6476,-1.3146,-2.4186,1.3278,-6.4363,1783,2019-08-07 16:44:37:219
-9.3275,2.836,3.4327,1.4053,0.6476,-1.3146,-2.4186,1.3278,-6.4363,1788,2019-08-07 16:44:37:224
-9.3275,2.836,3.4327,1.4053,0.6476,-1.3146,-2.4186,1.3278,-6.4363,1792,2019-08-07 16:44:37:228
-8.1745,2.8455,2.4994,1.4053,0.6476,-1.3146,-2.2248,0.7856,-6.2967,1798,2019-08-07 16:44:37:234
-8.1745,2.8455,2.4994,-1.332,-0.5575,0.2862,-2.0575,0.4894,-6.1976,1804,2019-08-07 16:44:37:240
-8.1745,2.8455,2.4994,-1.332,-0.5575,0.2862,-2.0575,0.4894,-6.1976,1808,2019-08-07 16:44:37:244
-6.9593,2.5973,1.4293,-1.332,-0.5575,0.2862,-2.0575,0.4894,-6.1976,1813,2019-08-07 16:44:37:249
-6.9593,2.5973,1.4293,-3.2818,-1.3107,1.5082,-1.9787,0.3626,-6.1465,1818,2019-08-07 16:44:37:254
-6.9593,2.5973,1.4293,-3.2818,-1.3107,1.5082,-1.9787,0.3626,-6.1465,1824,2019-08-07 16:44:37:260
-5.8446,2.0149,0.9627,-3.2818,-1.3107,1.5082,-1.8327,0.4116,-6.0858,1827,2019-08-07 16:44:37:263
-5.8446,2.0149,0.9627,-3.2818,-1.3107,1.5082,-1.8327,0.4116,-6.0858,1833,2019-08-07 16:44:37:269
-5.8446,2.0149,0.9627,-3.2818,-1.3107,1.5082,-1.6112,0.5278,-6.0293,1838,2019-08-07 16:44:37:274
-4.7012,1.0601,0.7034,-4.807,-1.3219,1.697,-1.6112,0.5278,-6.0293,1843,2019-08-07 16:44:37:279
-4.7012,1.0601,0.7034,-4.807,-1.3219,1.697,-1.3757,0.6758,-5.9835,1848,2019-08-07 16:44:37:284
-4.3328,0.3106,0.6044,-4.807,-1.3219,1.697,-1.3757,0.6758,-5.9835,1853,2019-08-07 16:44:37:289
-4.3328,0.3106,0.6044,-4.807,-1.3219,1.697,-1.3757,0.6758,-5.9835,1858,2019-08-07 16:44:37:294
-4.3328,0.3106,0.6044,-5.3167,-1.289,1.6288,-1.1563,0.826,-5.861,1863,2019-08-07 16:44:37:299
-4.0649,-0.4102,0.4017,-5.3167,-1.289,1.6288,-1.1563,0.826,-5.861,1868,2019-08-07 16:44:37:304
-4.0649,-0.4102,0.4017,-5.3167,-1.289,1.6288,-0.9528,1.0753,-5.6863,1873,2019-08-07 16:44:37:309
-4.0649,-0.4102,0.4017,-5.3167,-1.289,1.6288,-0.9528,1.0753,-5.6863,1878,2019-08-07 16:44:37:314
-3.9022,-1.4223,0.2839,-5.3449,-1.1707,1.7167,-0.9528,1.0753,-5.6863,1883,2019-08-07 16:44:37:319
-3.9022,-1.4223,0.2839,-5.3449,-1.1707,1.7167,-0.7014,1.2681,-5.5137,1888,2019-08-07 16:44:37:324
-3.9022,-1.4223,0.2839,-5.3449,-1.1707,1.7167,-0.7014,1.2681,-5.5137,1893,2019-08-07 16:44:37:329
-4.7634,-1.9617,0.0341,-5.3449,-1.1707,1.7167,-0.5054,1.3406,-5.3508,1898,2019-08-07 16:44:37:334
-4.7634,-1.9617,0.0341,-3.6866,-1.6099,1.6612,-0.5054,1.3406,-5.3508,1903,2019-08-07 16:44:37:339
-4.7634,-1.9617,0.0341,-3.6866,-1.6099,1.6612,-0.3595,1.2319,-5.1292,1908,2019-08-07 16:44:37:344
-5.8638,-1.9617,0.1708,-3.6866,-1.6099,1.6612,-0.3595,1.2319,-5.1292,1913,2019-08-07 16:44:37:349
-5.8638,-1.9617,0.1708,-3.6866,-1.6099,1.6612,-0.2743,0.9475,-4.8618,1918,2019-08-07 16:44:37:354
-5.9882,-1.9426,0.6987,-2.5032,-2.6073,0.8096,-0.2743,0.9475,-4.8618,1923,2019-08-07 16:44:37:359
-5.9882,-1.9426,0.6987,-2.5032,-2.6073,0.8096,-0.2295,0.5288,-4.5806,1928,2019-08-07 16:44:37:364
-5.9882,-1.9426,0.6987,-2.983,-2.8539,0.963,-0.2295,0.5288,-4.5806,1933,2019-08-07 16:44:37:369
-5.1605,-2.0954,0.298,-2.983,-2.8539,0.963,-0.2295,0.1017,-4.2855,1938,2019-08-07 16:44:37:374
-5.1605,-2.0954,0.298,-2.983,-2.8539,0.963,-0.2295,0.1017,-4.2855,1943,2019-08-07 16:44:37:379
-5.1605,-2.0954,0.298,-2.983,-2.8539,0.963,-0.2295,0.1017,-4.2855,1948,2019-08-07 16:44:37:384
-4.5673,-2.2816,-0.1639,-3.4507,-3.2608,1.7029,-0.2519,-0.0709,-4.0831,1953,2019-08-07 16:44:37:389
-4.5673,-2.2816,-0.1639,-3.4507,-3.2608,1.7029,-0.2519,-0.0709,-4.0831,1959,2019-08-07 16:44:37:395
-4.5673,-2.2816,-0.1639,-3.4507,-3.2608,1.7029,-0.2892,-0.0091,-3.8935,1962,2019-08-07 16:44:37:398
-4.2946,-2.5775,-0.3478,-3.4507,-3.2608,1.7029,-0.2892,-0.0091,-3.8935,1968,2019-08-07 16:44:37:404
-4.2946,-2.5775,-0.3478,-3.1986,-3.4042,1.432,-0.3627,0.1581,-3.6644,1973,2019-08-07 16:44:37:409
-4.2611,-3.0119,0.0859,-3.1986,-3.4042,1.432,-0.3627,0.1581,-3.6644,1978,2019-08-07 16:44:37:414
-4.2611,-3.0119,0.0859,-3.1986,-3.4042,1.432,-0.4138,0.2508,-3.4674,1983,2019-08-07 16:44:37:419
-4.2611,-3.0119,0.0859,-3.1986,-3.4042,1.432,-0.4138,0.2508,-3.4674,1988,2019-08-07 16:44:37:424
-3.8305,-3.6898,0.1472,-3.1839,-3.0608,1.0621,-0.4777,0.2902,-3.2543,1992,2019-08-07 16:44:37:428
-3.8305,-3.6898,0.1472,-3.1839,-3.0608,1.0621,-0.4777,0.2902,-3.2543,1999,2019-08-07 16:44:37:435
-3.8305,-3.6898,0.1472,-3.1839,-3.0608,1.0621,-0.5289,0.3243,-3.0338,2003,2019-08-07 16:44:37:439
-3.7875,-4.3295,-0.1168,-3.1839,-3.0608,1.0621,-0.5289,0.3243,-3.0338,2008,2019-08-07 16:44:37:444
-3.7875,-4.3295,-0.1168,-3.1839,-3.0608,1.0621,-0.5289,0.3243,-3.0338,2013,2019-08-07 16:44:37:449
-3.7875,-4.3295,-0.1168,-2.5856,-2.6956,1.0575,-0.547,0.3115,-2.7994,2018,2019-08-07 16:44:37:454
-4.3855,-4.5587,0.43,-2.5856,-2.6956,1.0575,-0.547,0.3115,-2.7994,2022,2019-08-07 16:44:37:458
-4.3855,-4.5587,0.43,-2.5856,-2.6956,1.0575,-0.5022,0.1496,-2.4756,2028,2019-08-07 16:44:37:464
-4.5625,-4.32,0.7505,-1.65,-3.209,0.2269,-0.5022,0.1496,-2.4756,2033,2019-08-07 16:44:37:469
-4.5625,-4.32,0.7505,-1.65,-3.209,0.2269,-0.4543,-0.186,-2.1283,2037,2019-08-07 16:44:37:473
-3.9884,-4.129,0.397,-2.0596,-3.536,0.5544,-0.4543,-0.186,-2.1283,2043,2019-08-07 16:44:37:479
-3.9884,-4.129,0.397,-2.0596,-3.536,0.5544,-0.4618,-0.334,-1.8631,2048,2019-08-07 16:44:37:484
-3.9884,-4.129,0.397,-2.0596,-3.536,0.5544,-0.4618,-0.334,-1.8631,2053,2019-08-07 16:44:37:489
-2.8354,-4.53,-0.3148,-2.0596,-3.536,0.5544,-0.4618,-0.334,-1.8631,2058,2019-08-07 16:44:37:494
-2.8354,-4.53,-0.3148,-3.2023,-3.0586,1.1694,-0.4831,-0.1561,-1.5893,2063,2019-08-07 16:44:37:499
-2.2326,-5.3607,-0.1027,-3.2023,-3.0586,1.1694,-0.4831,-0.1561,-1.5893,2068,2019-08-07 16:44:37:504
-2.2326,-5.3607,-0.1027,-3.2023,-3.0586,1.1694,-0.4554,0.2732,-1.3422,2073,2019-08-07 16:44:37:509
-2.2326,-5.3607,-0.1027,-3.2023,-3.0586,1.1694,-0.4554,0.2732,-1.3422,2078,2019-08-07 16:44:37:514
-2.1704,-5.9908,0.067,-3.3007,-1.9402,0.5819,-0.4053,0.5523,-1.1898,2084,2019-08-07 16:44:37:520
-2.1704,-5.9908,0.067,-3.3007,-1.9402,0.5819,-0.4053,0.5523,-1.1898,2088,2019-08-07 16:44:37:524
-2.1704,-5.9908,0.067,-3.3007,-1.9402,0.5819,-0.2828,0.9038,-0.8905,2093,2019-08-07 16:44:37:529
-3.4622,-6.7021,0.8118,-3.3007,-1.9402,0.5819,-0.2828,0.9038,-0.8905,2098,2019-08-07 16:44:37:534
-3.4622,-6.7021,0.8118,-0.8144,-1.3733,-0.9944,-0.2828,0.9038,-0.8905,2104,2019-08-07 16:44:37:540
-3.4622,-6.7021,0.8118,-0.8144,-1.3733,-0.9944,-0.1454,0.8282,-0.5315,2108,2019-08-07 16:44:37:544
-5.2802,-6.7164,2.2118,-0.8144,-1.3733,-0.9944,-0.1454,0.8282,-0.5315,2113,2019-08-07 16:44:37:549
-5.2802,-6.7164,2.2118,0.3716,-1.5417,-2.1144,-0.0527,0.5437,-0.2918,2118,2019-08-07 16:44:37:554
-5.8782,-6.4682,2.735,0.3716,-1.5417,-2.1144,-0.0527,0.5437,-0.2918,2123,2019-08-07 16:44:37:559
-5.8782,-6.4682,2.735,0.3716,-1.5417,-2.1144,0.0325,-0.121,0.0906,2128,2019-08-07 16:44:37:564
-5.8782,-6.4682,2.735,0.3716,-1.5417,-2.1144,0.0325,-0.121,0.0906,2133,2019-08-07 16:44:37:569
-5.0888,-6.6209,1.863,-0.1117,-1.576,-1.431,0.0123,-0.6185,0.3537,2138,2019-08-07 16:44:37:574
-5.0888,-6.6209,1.863,-0.1117,-1.576,-1.431,0.0123,-0.6185,0.3537,2142,2019-08-07 16:44:37:578
-4.1894,-7.2224,1.0522,-0.1117,-1.576,-1.431,0.024,-0.6941,0.505,2148,2019-08-07 16:44:37:584
-4.1894,-7.2224,1.0522,-0.1117,-1.576,-1.431,0.024,-0.6941,0.505,2153,2019-08-07 16:44:37:589
-4.1894,-7.2224,1.0522,-1.5378,-0.677,-0.1259,0.024,-0.6941,0.505,2158,2019-08-07 16:44:37:594
-3.644,-7.7619,0.5525,-1.5378,-0.677,-0.1259,0.0826,-0.464,0.571,2163,2019-08-07 16:44:37:599
-3.644,-7.7619,0.5525,-1.5378,-0.677,-0.1259,0.0826,-0.464,0.571,2168,2019-08-07 16:44:37:604
-3.644,-7.7619,0.5525,-1.5378,-0.677,-0.1259,0.1401,0.1347,0.5338,2173,2019-08-07 16:44:37:609
-3.5818,-8.3204,-0.1734,-1.9067,0.2235,0.9165,0.1401,0.1347,0.5338,2177,2019-08-07 16:44:37:613
-3.5818,-8.3204,-0.1734,-1.9067,0.2235,0.9165,0.1476,0.6812,0.4485,2183,2019-08-07 16:44:37:619
-3.5818,-8.3204,-0.1734,-1.9067,0.2235,0.9165,0.1476,0.6812,0.4485,2188,2019-08-07 16:44:37:624
-4.6009,-8.1677,0.2744,-1.9067,0.2235,0.9165,0.155,1.1254,0.3708,2193,2019-08-07 16:44:37:629
-4.6009,-8.1677,0.2744,-0.5703,0.0832,0.2044,0.155,1.1254,0.3708,2199,2019-08-07 16:44:37:635
-5.7491,-7.9528,0.9297,-0.5703,0.0832,0.2044,0.155,1.1254,0.3708,2203,2019-08-07 16:44:37:639
-5.7491,-7.9528,0.9297,-0.5703,0.0832,0.2044,0.155,1.4034,0.2951,2208,2019-08-07 16:44:37:644
-5.7491,-7.9528,0.9297,-0.5703,0.0832,0.2044,0.155,1.4034,0.2951,2213,2019-08-07 16:44:37:649
-7.3088,-7.8956,1.6179,1.6747,-0.1159,-1.0602,0.122,1.2745,0.2813,2218,2019-08-07 16:44:37:654
-7.3088,-7.8956,1.6179,1.6747,-0.1159,-1.0602,0.122,1.2745,0.2813,2222,2019-08-07 16:44:37:658
-7.8159,-8.077,1.9808,2.1481,0.0858,-1.4769,0.0666,0.9176,0.2824,2228,2019-08-07 16:44:37:664
-7.8159,-8.077,1.9808,2.1481,0.0858,-1.4769,0.0666,0.9176,0.2824,2233,2019-08-07 16:44:37:669
-7.8159,-8.077,1.9808,2.1481,0.0858,-1.4769,0.0666,0.9176,0.2824,2238,2019-08-07 16:44:37:674
-7.591,-8.3491,1.7499,2.1481,0.0858,-1.4769,-0.0101,0.1507,0.2557,2243,2019-08-07 16:44:37:679
-7.591,-8.3491,1.7499,1.4993,0.4762,-1.1695,-0.0101,0.1507,0.2557,2248,2019-08-07 16:44:37:684
-6.572,-8.4589,1.2879,1.4993,0.4762,-1.1695,-0.0378,-0.2488,0.2238,2253,2019-08-07 16:44:37:689
-6.572,-8.4589,1.2879,0.5909,0.5572,-0.6768,-0.0378,-0.2488,0.2238,2258,2019-08-07 16:44:37:694
-6.572,-8.4589,1.2879,0.5909,0.5572,-0.6768,-0.0388,-0.448,0.2025,2263,2019-08-07 16:44:37:699
-5.2563,-8.645,0.3498,0.5909,0.5572,-0.6768,-0.0388,-0.448,0.2025,2268,2019-08-07 16:44:37:704
-5.2563,-8.645,0.3498,0.5909,0.5572,-0.6768,-0.0388,-0.448,0.2025,2273,2019-08-07 16:44:37:709
-4.5435,-8.8312,-0.4515,-1.1988,0.8603,0.9243,-0.009,-0.2584,0.1087,2278,2019-08-07 16:44:37:714
-4.5435,-8.8312,-0.4515,-1.1988,0.8603,0.9243,-0.009,-0.2584,0.1087,2283,2019-08-07 16:44:37:719
-4.5435,-8.8312,-0.4515,-1.1988,0.8603,0.9243,0.0347,0.1411,0.0107,2288,2019-08-07 16:44:37:724
-4.7233,-8.6882,-0.4087,-1.1988,0.8603,0.9243,0.0347,0.1411,0.0107,2293,2019-08-07 16:44:37:729
-4.7233,-8.6882,-0.4087,-0.9263,0.6869,0.7339,0.0347,0.1411,0.0107,2298,2019-08-07 16:44:37:734
-4.7233,-8.6882,-0.4087,-0.9263,0.6869,0.7339,0.0847,0.4745,-0.0617,2303,2019-08-07 16:44:37:739
-5.2543,-8.3493,0.0392,-0.9263,0.6869,0.7339,0.0847,0.4745,-0.0617,2309,2019-08-07 16:44:37:745
-5.2543,-8.3493,0.0392,-0.9263,0.6869,0.7339,0.0954,0.5917,-0.1128,2312,2019-08-07 16:44:37:748
-5.8667,-7.9005,0.4775,0.0277,0.0407,0.0297,0.0954,0.5917,-0.1128,2318,2019-08-07 16:44:37:754
-5.8667,-7.9005,0.4775,0.0277,0.0407,0.0297,0.0869,0.5384,-0.1246,2323,2019-08-07 16:44:37:759
-5.8667,-7.9005,0.4775,0.0277,0.0407,0.0297,0.0869,0.5384,-0.1246,2328,2019-08-07 16:44:37:764
-6.3068,-7.6762,0.8028,0.0277,0.0407,0.0297,0.0826,0.3605,-0.1065,2333,2019-08-07 16:44:37:769
-6.3068,-7.6762,0.8028,0.6184,-0.3331,-0.5547,0.0826,0.3605,-0.1065,2338,2019-08-07 16:44:37:774
-6.3212,-7.6093,1.0432,0.6184,-0.3331,-0.5547,0.0773,0.1815,-0.082,2343,2019-08-07 16:44:37:779
-6.3212,-7.6093,1.0432,0.6184,-0.3331,-0.5547,0.0773,0.1815,-0.082,2348,2019-08-07 16:44:37:784
-6.3212,-7.6093,1.0432,0.6184,-0.3331,-0.5547,0.0773,0.1815,-0.082,2353,2019-08-07 16:44:37:789
-5.9528,-7.5855,0.7321,0.2228,-0.3659,-0.3093,0.0592,-0.1071,-0.0319,2358,2019-08-07 16:44:37:794
-5.9528,-7.5855,0.7321,0.2228,-0.3659,-0.3093,0.0592,-0.1071,-0.0319,2363,2019-08-07 16:44:37:799
-5.9528,-7.5855,0.7321,0.2228,-0.3659,-0.3093,0.0528,-0.2488,0.0043,2368,2019-08-07 16:44:37:804
-5.3548,-7.5377,0.4728,0.2228,-0.3659,-0.3093,0.0528,-0.2488,0.0043,2372,2019-08-07 16:44:37:808
-5.3548,-7.5377,0.4728,-0.7279,-0.4077,0.2858,0.0624,-0.3106,0.032,2378,2019-08-07 16:44:37:814
-5.3548,-7.5377,0.4728,-0.7279,-0.4077,0.2858,0.0624,-0.3106,0.032,2383,2019-08-07 16:44:37:819
-4.8141,-7.5616,0.0533,-0.7279,-0.4077,0.2858,0.0719,-0.2158,0.0565,2388,2019-08-07 16:44:37:824
-4.8141,-7.5616,0.0533,-0.7279,-0.4077,0.2858,0.0719,-0.2158,0.0565,2393,2019-08-07 16:44:37:829
-4.5271,-7.6093,-0.2201,-1.2029,-0.338,0.7136,0.0773,-0.0432,0.0501,2398,2019-08-07 16:44:37:834
-4.5271,-7.6093,-0.2201,-1.2029,-0.338,0.7136,0.0773,-0.0432,0.0501,2403,2019-08-07 16:44:37:839
-4.5271,-7.6093,-0.2201,-1.2029,-0.338,0.7136,0.0773,-0.0432,0.0501,2408,2019-08-07 16:44:37:844
-4.6993,-7.5807,-0.2625,-1.0322,-0.3654,0.7578,0.0826,0.1347,0.0459,2414,2019-08-07 16:44:37:850
-4.6993,-7.5807,-0.2625,-1.0322,-0.3654,0.7578,0.0826,0.1347,0.0459,2418,2019-08-07 16:44:37:854
-4.6993,-7.5807,-0.2625,-1.0322,-0.3654,0.7578,0.0677,0.3243,0.0501,2422,2019-08-07 16:44:37:858
-5.35,-7.6046,-0.0692,-0.2555,-0.3658,0.4337,0.0677,0.3243,0.0501,2428,2019-08-07 16:44:37:864
-5.35,-7.6046,-0.0692,-0.2555,-0.3658,0.4337,0.0602,0.3264,0.0544,2433,2019-08-07 16:44:37:869
-5.35,-7.6046,-0.0692,-0.2555,-0.3658,0.4337,0.0602,0.3264,0.0544,2438,2019-08-07 16:44:37:874
-6.0867,-7.49,0.4257,-0.2555,-0.3658,0.4337,0.0602,0.3264,0.0544,2443,2019-08-07 16:44:37:879
-6.0867,-7.49,0.4257,0.5616,-0.4802,-0.1363,0.0517,0.1592,0.0714,2448,2019-08-07 16:44:37:884
-6.3164,-7.4804,0.6425,0.5616,-0.4802,-0.1363,0.0517,0.1592,0.0714,2453,2019-08-07 16:44:37:889
-6.3164,-7.4804,0.6425,0.5616,-0.4802,-0.1363,0.0517,0.1592,0.0714,2458,2019-08-07 16:44:37:894
-6.3164,-7.4804,0.6425,0.4518,-0.4637,-0.1148,0.0304,-0.1103,0.1034,2463,2019-08-07 16:44:37:899
-6.0963,-7.4613,0.4398,0.4518,-0.4637,-0.1148,0.0304,-0.1103,0.1034,2468,2019-08-07 16:44:37:904
-6.0963,-7.4613,0.4398,0.4518,-0.4637,-0.1148,0.008,-0.2712,0.1055,2473,2019-08-07 16:44:37:909
-5.814,-7.5425,0.3833,0.4518,-0.4637,-0.1148,0.008,-0.2712,0.1055,2478,2019-08-07 16:44:37:914
-5.814,-7.5425,0.3833,-0.0964,-0.3827,0.2104,-0.0143,-0.3287,0.1077,2483,2019-08-07 16:44:37:919
-5.2255,-7.6953,0.0486,-0.0964,-0.3827,0.2104,-0.0143,-0.3287,0.1077,2488,2019-08-07 16:44:37:924
-5.2255,-7.6953,0.0486,-0.0964,-0.3827,0.2104,-0.0197,-0.2957,0.0981,2493,2019-08-07 16:44:37:929
-5.2255,-7.6953,0.0486,-0.8585,-0.0483,0.7296,-0.0197,-0.2957,0.0981,2498,2019-08-07 16:44:37:934
-4.905,-7.8958,-0.2107,-0.8585,-0.0483,0.7296,-0.0197,-0.2957,0.0981,2502,2019-08-07 16:44:37:938
-4.905,-7.8958,-0.2107,-0.8585,-0.0483,0.7296,-0.0037,-0.1157,0.0672,2508,2019-08-07 16:44:37:944
-4.905,-7.8958,-0.2107,-0.8585,-0.0483,0.7296,-0.0037,-0.1157,0.0672,2513,2019-08-07 16:44:37:949
-4.9959,-7.8289,-0.0645,-0.6904,-0.1406,0.5476,0.0144,0.0505,0.0384,2518,2019-08-07 16:44:37:954
-4.9959,-7.8289,-0.0645,-0.6904,-0.1406,0.5476,0.0144,0.0505,0.0384,2523,2019-08-07 16:44:37:959
-4.9959,-7.8289,-0.0645,-0.6904,-0.1406,0.5476,0.0208,0.2039,0.0267,2528,2019-08-07 16:44:37:964
-5.3499,-7.638,0.0722,-0.6904,-0.1406,0.5476,0.0208,0.2039,0.0267,2533,2019-08-07 16:44:37:969
-5.3499,-7.638,0.0722,-0.6904,-0.1406,0.5476,0.0165,0.2625,0.0288,2538,2019-08-07 16:44:37:974
-5.6035,-7.5616,0.4304,-0.2605,-0.3243,0.0854,0.0165,0.2625,0.0288,2543,2019-08-07 16:44:37:979
-5.6035,-7.5616,0.4304,-0.2605,-0.3243,0.0854,0.0176,0.2561,0.032,2548,2019-08-07 16:44:37:984
-5.6035,-7.5616,0.4304,-0.2605,-0.3243,0.0854,0.0176,0.2561,0.032,2553,2019-08-07 16:44:37:989
-5.8618,-7.4232,0.685,-0.2605,-0.3243,0.0854,0.0176,0.2561,0.032,2558,2019-08-07 16:44:37:994
-5.8618,-7.4232,0.685,0.0745,-0.4812,-0.2366,0.0091,0.1752,0.0597,2563,2019-08-07 16:44:37:999
-5.8618,-7.3563,0.6048,0.0745,-0.4812,-0.2366,0.0091,0.1752,0.0597,2568,2019-08-07 16:44:38:004
-5.9001,-7.3563,0.6048,0.0745,-0.4812,-0.2366,0.0038,0.0953,0.0864,2573,2019-08-07 16:44:38:009
-5.9001,-7.3563,0.6048,0.0745,-0.4812,-0.2366,0.0038,0.0953,0.0864,2578,2019-08-07 16:44:38:014
-5.8522,-7.4041,0.7745,0.0391,-0.4984,-0.3406,-0.0048,0.0239,0.1002,2584,2019-08-07 16:44:38:020
-5.8522,-7.4041,0.7745,0.0391,-0.4984,-0.3406,-0.0048,0.0239,0.1002,2588,2019-08-07 16:44:38:024
-5.8522,-7.4041,0.7745,0.0391,-0.4984,-0.3406,-0.0101,-0.0486,0.1236,2593,2019-08-07 16:44:38:029
-5.68,-7.4184,0.4399,0.0391,-0.4984,-0.3406,-0.0101,-0.0486,0.1236,2598,2019-08-07 16:44:38:034
-5.68,-7.4184,0.4399,-0.33,-0.4166,0.1006,-0.0165,-0.0549,0.1386,2602,2019-08-07 16:44:38:038
-5.4599,-7.5091,0.2325,-0.33,-0.4166,0.1006,-0.0165,-0.0549,0.1386,2608,2019-08-07 16:44:38:044
-5.4599,-7.5091,0.2325,-0.33,-0.4166,0.1006,-0.0101,-0.0198,0.129,2613,2019-08-07 16:44:38:049
-5.4599,-7.5091,0.2325,-0.33,-0.4166,0.1006,-0.0101,-0.0198,0.129,2618,2019-08-07 16:44:38:054
-5.503,-7.5568,0.2607,-0.3644,-0.2919,0.1949,0.0048,0.0399,0.1332,2622,2019-08-07 16:44:38:058
-5.503,-7.5568,0.2607,-0.3644,-0.2919,0.1949,0.0048,0.0399,0.1332,2628,2019-08-07 16:44:38:064
-5.4647,-7.5664,0.1618,-0.413,-0.2748,0.2909,0.0102,0.0846,0.1364,2633,2019-08-07 16:44:38:069
-5.4647,-7.5664,0.1618,-0.413,-0.2748,0.2909,0.0102,0.0846,0.1364,2638,2019-08-07 16:44:38:074
-5.4647,-7.5664,0.1618,-0.413,-0.2748,0.2909,0.0102,0.0846,0.1364,2642,2019-08-07 16:44:38:078
-5.4838,-7.5568,0.2325,-0.413,-0.2748,0.2909,0.0144,0.1272,0.1375,2648,2019-08-07 16:44:38:084
-5.4838,-7.5568,0.2325,-0.3436,-0.2929,0.0884,0.0187,0.1666,0.1343,2653,2019-08-07 16:44:38:089
-5.6225,-7.5759,0.421,-0.3436,-0.2929,0.0884,0.0187,0.1666,0.1343,2658,2019-08-07 16:44:38:094
-5.6225,-7.5759,0.421,-0.3436,-0.2929,0.0884,0.0165,0.1709,0.1364,2663,2019-08-07 16:44:38:099
-5.6991,-7.4423,0.2796,-0.3436,-0.2929,0.0884,0.0165,0.1709,0.1364,2668,2019-08-07 16:44:38:104
-5.6991,-7.4423,0.2796,-0.2469,-0.3386,0.1973,0.008,0.156,0.1492,2673,2019-08-07 16:44:38:109
-5.6991,-7.4423,0.2796,-0.2469,-0.3386,0.1973,0.008,0.156,0.1492,2678,2019-08-07 16:44:38:114
-5.8617,-7.4757,0.3786,-0.0732,-0.3246,0.0325,0.0091,0.1347,0.1545,2683,2019-08-07 16:44:38:119
-5.8617,-7.4757,0.3786,-0.0732,-0.3246,0.0325,0.0091,0.1347,0.1545,2688,2019-08-07 16:44:38:124
-5.8617,-7.4757,0.3786,-0.0732,-0.3246,0.0325,0.0091,0.1347,0.1545,2693,2019-08-07 16:44:38:129
-5.9766,-7.4804,0.4493,-0.0732,-0.3246,0.0325,0.0102,0.0793,0.1588,2699,2019-08-07 16:44:38:135
-5.9766,-7.4804,0.4493,-0.0237,-0.2901,0.0175,0.0102,0.0793,0.1588,2703,2019-08-07 16:44:38:139
-5.9766,-7.4804,0.4493,-0.0237,-0.2901,0.0175,-0.0037,0.0218,0.1577,2708,2019-08-07 16:44:38:144
-5.8282,-7.4757,0.3409,-0.0237,-0.2901,0.0175,-0.0037,0.0218,0.1577,2712,2019-08-07 16:44:38:148
-5.8282,-7.4757,0.3409,-0.0237,-0.2901,0.0175,-0.0229,0.01,0.1396,2719,2019-08-07 16:44:38:155
-5.7326,-7.4852,0.2843,-0.2535,-0.2766,0.1122,-0.0229,0.01,0.1396,2723,2019-08-07 16:44:38:159
-5.7326,-7.4852,0.2843,-0.2535,-0.2766,0.1122,-0.0335,0.0303,0.1151,2728,2019-08-07 16:44:38:164
-5.7326,-7.4852,0.2843,-0.2535,-0.2766,0.1122,-0.0335,0.0303,0.1151,2733,2019-08-07 16:44:38:169
-5.6608,-7.5425,0.1288,-0.2535,-0.2766,0.1122,-0.0335,0.0303,0.1151,2737,2019-08-07 16:44:38:173
-5.6608,-7.5425,0.1288,-0.3367,-0.112,0.2636,-0.0463,0.0793,0.0821,2743,2019-08-07 16:44:38:179
-5.6943,-7.6093,0.1853,-0.3367,-0.112,0.2636,-0.0463,0.0793,0.0821,2748,2019-08-07 16:44:38:184
-5.6943,-7.6093,0.1853,-0.3367,-0.112,0.2636,-0.0463,0.1336,0.0576,2753,2019-08-07 16:44:38:189
-5.6943,-7.6093,0.1853,-0.3367,-0.112,0.2636,-0.0463,0.1336,0.0576,2757,2019-08-07 16:44:38:193
-5.6703,-7.5759,0.2278,-0.2925,-0.1115,0.1718,-0.0548,0.173,0.0374,2764,2019-08-07 16:44:38:200
-5.6703,-7.5759,0.2278,-0.2925,-0.1115,0.1718,-0.0548,0.173,0.0374,2767,2019-08-07 16:44:38:203
-5.8043,-7.5473,0.2702,-0.2925,-0.1115,0.1718,-0.0634,0.1879,0.0256,2773,2019-08-07 16:44:38:209
-5.8043,-7.5473,0.2702,-0.2925,-0.1115,0.1718,-0.0634,0.1879,0.0256,2778,2019-08-07 16:44:38:214
-5.8043,-7.5473,0.2702,0.0178,-0.1803,-0.115,-0.0719,0.1613,0.0288,2783,2019-08-07 16:44:38:219
-6.0674,-7.5282,0.4682,0.0178,-0.1803,-0.115,-0.0719,0.1613,0.0288,2788,2019-08-07 16:44:38:224
-6.0674,-7.5282,0.4682,0.0178,-0.1803,-0.115,-0.0644,0.0825,0.0363,2793,2019-08-07 16:44:38:229
-6.0674,-7.5282,0.4682,0.0178,-0.1803,-0.115,-0.0644,0.0825,0.0363,2797,2019-08-07 16:44:38:233
-6.187,-7.5759,0.5012,0.1203,-0.1322,-0.1317,-0.0591,-0.0581,0.0491,2803,2019-08-07 16:44:38:239
-6.187,-7.5759,0.5012,0.1203,-0.1322,-0.1317,-0.0591,-0.0581,0.0491,2808,2019-08-07 16:44:38:244
-5.8952,-7.6093,0.1759,0.1203,-0.1322,-0.1317,-0.0591,-0.0581,0.0491,2813,2019-08-07 16:44:38:249
-5.8952,-7.6093,0.1759,0.1203,-0.1322,-0.1317,-0.0602,-0.1423,0.0565,2817,2019-08-07 16:44:38:253
-5.8952,-7.6093,0.1759,-0.3849,-0.0544,0.2225,-0.0602,-0.1423,0.0565,2823,2019-08-07 16:44:38:259
-5.5507,-7.6905,0.0581,-0.3849,-0.0544,0.2225,-0.0495,-0.1519,0.0565,2828,2019-08-07 16:44:38:264
-5.5507,-7.6905,0.0581,-0.3849,-0.0544,0.2225,-0.0495,-0.1519,0.0565,2833,2019-08-07 16:44:38:269
-5.5507,-7.6905,0.0581,-0.3849,-0.0544,0.2225,-0.0175,-0.0656,0.0448,2838,2019-08-07 16:44:38:274
-5.455,-7.7191,-0.0456,-0.5855,-0.0125,0.3457,-0.0175,-0.0656,0.0448,2843,2019-08-07 16:44:38:279
-5.455,-7.7191,-0.0456,-0.5855,-0.0125,0.3457,0.0027,-0.0038,0.0384,2848,2019-08-07 16:44:38:284
-5.455,-7.7191,-0.0456,-0.5855,-0.0125,0.3457,0.0027,-0.0038,0.0384,2853,2019-08-07 16:44:38:289
-5.6081,-7.6953,0.1146,-0.5855,-0.0125,0.3457,0.0027,-0.0038,0.0384,2858,2019-08-07 16:44:38:294
-5.6081,-7.6953,0.1146,-0.5855,-0.0125,0.3457,0.0293,0.0803,0.0267,2863,2019-08-07 16:44:38:299
-5.6081,-7.6953,0.1146,-0.3209,-0.0626,0.181,0.0293,0.0803,0.0267,2868,2019-08-07 16:44:38:304
-5.7995,-7.5807,0.1759,-0.3209,-0.0626,0.181,0.0357,0.1006,0.0192,2872,2019-08-07 16:44:38:308
-5.7995,-7.5807,0.1759,-0.3209,-0.0626,0.181,0.0357,0.1006,0.0192,2878,2019-08-07 16:44:38:314
-5.8951,-7.4518,0.355,-0.1283,-0.2319,-0.0794,0.0357,0.0633,0.0192,2883,2019-08-07 16:44:38:319
-5.8951,-7.4518,0.355,-0.1283,-0.2319,-0.0794,0.0357,0.0633,0.0192,2888,2019-08-07 16:44:38:324
-5.8951,-7.4518,0.355,-0.1283,-0.2319,-0.0794,0.0378,0.0122,0.0182,2893,2019-08-07 16:44:38:329
-5.8808,-7.4614,0.4493,-0.1283,-0.2319,-0.0794,0.0378,0.0122,0.0182,2898,2019-08-07 16:44:38:334
-5.8808,-7.4614,0.4493,-0.1283,-0.2319,-0.0794,0.0378,0.0122,0.0182,2902,2019-08-07 16:44:38:338
-5.7133,-7.4518,0.2608,-0.2944,-0.2719,-0.0257,0.0421,-0.0528,0.031,2908,2019-08-07 16:44:38:344
-5.7133,-7.4518,0.2608,-0.2944,-0.2719,-0.0257,0.0421,-0.0528,0.031,2913,2019-08-07 16:44:38:349
-5.7133,-7.4518,0.2608,-0.2944,-0.2719,-0.0257,0.04,-0.0699,0.0395,2918,2019-08-07 16:44:38:354
-5.5028,-7.447,0.2372,-0.2944,-0.2719,-0.0257,0.04,-0.0699,0.0395,2922,2019-08-07 16:44:38:358
-5.5028,-7.447,0.2372,-0.5855,-0.2444,0.1481,0.0368,-0.0411,0.0459,2928,2019-08-07 16:44:38:364
-5.4693,-7.4852,0.1759,-0.5855,-0.2444,0.1481,0.0368,-0.0411,0.0459,2934,2019-08-07 16:44:38:370
-5.4693,-7.4852,0.1759,-0.5855,-0.2444,0.1481,0.0368,-0.0411,0.0459,2938,2019-08-07 16:44:38:374
-5.4693,-7.4852,0.1759,-0.5855,-0.2444,0.1481,0.0389,0.0122,0.0437,2943,2019-08-07 16:44:38:379
-5.5411,-7.4805,0.1759,-0.5139,-0.2306,0.1593,0.0389,0.0122,0.0437,2948,2019-08-07 16:44:38:384
-5.5411,-7.4805,0.1759,-0.5139,-0.2306,0.1593,0.0357,0.0473,0.0395,2953,2019-08-07 16:44:38:389
-5.699,-7.4614,0.1288,-0.5139,-0.2306,0.1593,0.0357,0.0473,0.0395,2958,2019-08-07 16:44:38:394
-5.699,-7.4614,0.1288,-0.5139,-0.2306,0.1593,0.0325,0.0697,0.0331,2964,2019-08-07 16:44:38:400
-5.699,-7.4614,0.1288,-0.39,-0.2648,0.1235,0.0325,0.0697,0.0331,2967,2019-08-07 16:44:38:403
-5.7372,-7.4423,0.1476,-0.39,-0.2648,0.1235,0.0197,0.0782,0.0267,2973,2019-08-07 16:44:38:409
-5.7372,-7.4423,0.1476,-0.39,-0.2648,0.1235,0.0197,0.0782,0.0267,2978,2019-08-07 16:44:38:414
-5.7659,-7.4232,0.2466,-0.39,-0.2648,0.1235,0.0048,0.0761,0.0203,2984,2019-08-07 16:44:38:420
-5.7659,-7.4232,0.2466,-0.2983,-0.2811,0.1156,0.0048,0.0761,0.0203,2987,2019-08-07 16:44:38:423
-5.7659,-7.4232,0.2466,-0.2983,-0.2811,0.1156,0.0048,0.0761,0.0203,2993,2019-08-07 16:44:38:429
-5.8233,-7.3945,0.2184,-0.2983,-0.2811,0.1156,-0.0048,0.0718,0.015,2999,2019-08-07 16:44:38:435
-5.8233,-7.3945,0.2184,-0.2983,-0.2811,0.1156,-0.0048,0.0718,0.015,3003,2019-08-07 16:44:38:439
-5.8233,-7.3945,0.2184,-0.2534,-0.3413,-0.0214,-0.0037,0.058,0.0182,3008,2019-08-07 16:44:38:444
-5.8042,-7.2895,0.388,-0.2534,-0.3413,-0.0214,-0.0037,0.058,0.0182,3013,2019-08-07 16:44:38:449
-5.8042,-7.2895,0.388,-0.2534,-0.3413,-0.0214,-0.0016,0.0431,0.0256,3018,2019-08-07 16:44:38:454
-5.7228,-7.2656,0.2938,-0.2534,-0.3413,-0.0214,-0.0016,0.0431,0.0256,3023,2019-08-07 16:44:38:459
-5.7228,-7.2656,0.2938,-0.3249,-0.4525,-0.0174,-0.0112,0.0271,0.0374,3027,2019-08-07 16:44:38:463
-5.7228,-7.2656,0.2938,-0.3249,-0.4525,-0.0174,-0.0112,0.0271,0.0374,3033,2019-08-07 16:44:38:469
-5.6941,-7.2752,0.4729,-0.3249,-0.4525,-0.0174,-0.0218,-0.0049,0.0555,3038,2019-08-07 16:44:38:474
-5.6941,-7.2752,0.4729,-0.3249,-0.4525,-0.0174,-0.0218,-0.0049,0.0555,3043,2019-08-07 16:44:38:479
-5.6415,-7.2895,0.3456,-0.3945,-0.4229,-0.0861,-0.0282,-0.0177,0.0683,3049,2019-08-07 16:44:38:485
-5.6415,-7.2895,0.3456,-0.3945,-0.4229,-0.0861,-0.0282,-0.0177,0.0683,3053,2019-08-07 16:44:38:489
-5.6415,-7.2895,0.3456,-0.3945,-0.4229,-0.0861,-0.0282,-0.0177,0.0683,3057,2019-08-07 16:44:38:493
-5.6271,-7.4232,0.3126,-0.3945,-0.4229,-0.0861,-0.0293,-0.0209,0.081,3064,2019-08-07 16:44:38:500
-5.6271,-7.4232,0.3126,-0.429,-0.3,0.0067,-0.0293,-0.0209,0.081,3067,2019-08-07 16:44:38:503
-5.6271,-7.4232,0.3126,-0.429,-0.3,0.0067,-0.0229,-0.023,0.0885,3073,2019-08-07 16:44:38:509
-5.6845,-7.4327,0.2938,-0.429,-0.3,0.0067,-0.0229,-0.023,0.0885,3077,2019-08-07 16:44:38:513
-5.6845,-7.4327,0.2938,-0.429,-0.3,0.0067,-0.0175,-0.0091,0.0949,3083,2019-08-07 16:44:38:519
-5.6893,-7.4136,0.1429,-0.413,-0.2613,0.1606,-0.0175,-0.0091,0.0949,3087,2019-08-07 16:44:38:523
-5.6893,-7.4136,0.1429,-0.413,-0.2613,0.1606,-0.0143,0.0058,0.0938,3093,2019-08-07 16:44:38:529
-5.6893,-7.4136,0.1429,-0.413,-0.2613,0.1606,-0.0143,0.0058,0.0938,3098,2019-08-07 16:44:38:534
-5.7276,-7.4614,0.2136,-0.413,-0.2613,0.1606,-0.0037,0.0345,0.0928,3102,2019-08-07 16:44:38:538
-5.7276,-7.4614,0.2136,-0.4454,-0.2367,0.0431,-0.0037,0.0345,0.0928,3108,2019-08-07 16:44:38:544
-5.718,-7.3993,0.1854,-0.4454,-0.2367,0.0431,-0.0016,0.0495,0.0885,3113,2019-08-07 16:44:38:549
-5.718,-7.3993,0.1854,-0.4454,-0.2367,0.0431,-0.0016,0.0495,0.0885,3117,2019-08-07 16:44:38:553
-5.718,-7.3993,0.1854,-0.4454,-0.2367,0.0431,-0.0058,0.0814,0.0885,3123,2019-08-07 16:44:38:559
-5.7802,-7.3707,0.3126,-0.3678,-0.2312,-0.0222,-0.0058,0.0814,0.0885,3128,2019-08-07 16:44:38:564
-5.7802,-7.3707,0.3126,-0.3678,-0.2312,-0.0222,-0.0069,0.0995,0.0832,3132,2019-08-07 16:44:38:568
-5.7802,-7.3707,0.3126,-0.3678,-0.2312,-0.0222,-0.0069,0.0995,0.0832,3138,2019-08-07 16:44:38:574
-5.9524,-7.4232,0.2985,-0.3678,-0.2312,-0.0222,-0.0069,0.0899,0.1023,3143,2019-08-07 16:44:38:579
-5.9524,-7.4232,0.2985,-0.2816,-0.0674,-0.1376,-0.0069,0.0899,0.1023,3147,2019-08-07 16:44:38:583
-5.9046,-7.6141,0.4399,-0.2816,-0.0674,-0.1376,-0.009,0.0825,0.1055,3153,2019-08-07 16:44:38:589
-5.9046,-7.6141,0.4399,-0.2816,-0.0674,-0.1376,-0.009,0.0825,0.1055,3157,2019-08-07 16:44:38:593
-5.9046,-7.6141,0.4399,-0.2816,-0.0674,-0.1376,-0.0186,0.0622,0.1023,3163,2019-08-07 16:44:38:599
-5.9859,-7.533,0.3881,-0.1824,-0.0695,-0.0346,-0.0186,0.0622,0.1023,3168,2019-08-07 16:44:38:604
-5.9859,-7.533,0.3881,-0.1824,-0.0695,-0.0346,-0.0186,0.0622,0.1023,3173,2019-08-07 16:44:38:609
-5.962,-7.6094,0.2561,-0.1824,-0.0695,-0.0346,-0.0165,0.0345,0.1098,3178,2019-08-07 16:44:38:614
-5.962,-7.6094,0.2561,-0.1824,-0.0695,-0.0346,-0.0165,0.0345,0.1098,3183,2019-08-07 16:44:38:619
-5.962,-7.6094,0.2561,-0.136,0.0624,0.1525,-0.0122,0.0111,0.1034,3188,2019-08-07 16:44:38:624
-6.0481,-7.6619,0.2089,-0.136,0.0624,0.1525,-0.0122,0.0111,0.1034,3193,2019-08-07 16:44:38:629
-6.0481,-7.6619,0.2089,-0.136,0.0624,0.1525,-0.0026,-0.0038,0.0981,3198,2019-08-07 16:44:38:634
-6.0481,-7.6619,0.2089,-0.136,0.0624,0.1525,-0.0026,-0.0038,0.0981,3202,2019-08-07 16:44:38:638
-6.0385,-7.6141,0.1147,-0.1933,0.031,0.1281,0.007,-0.0123,0.0906,3209,2019-08-07 16:44:38:645
-6.0385,-7.6141,0.1147,-0.1933,0.031,0.1281,0.007,-0.0123,0.0906,3213,2019-08-07 16:44:38:649
-6.0385,-7.6141,0.1147,-0.1933,0.031,0.1281,0.007,-0.0123,0.0906,3217,2019-08-07 16:44:38:653
-5.962,-7.595,-0.0079,-0.1933,0.031,0.1281,0.0123,0.0026,0.0736,3223,2019-08-07 16:44:38:659
-5.962,-7.595,-0.0079,-0.1933,0.031,0.1281,0.0123,0.0026,0.0736,3228,2019-08-07 16:44:38:664
-5.9811,-7.4996,-0.0739,-0.2709,-0.0607,0.2643,0.0133,0.0313,0.0555,3233,2019-08-07 16:44:38:669
-5.9811,-7.4996,-0.0739,-0.2709,-0.0607,0.2643,0.0229,0.058,0.0427,3238,2019-08-07 16:44:38:674
-5.9811,-7.4996,-0.0739,-0.2709,-0.0607,0.2643,0.0229,0.058,0.0427,3243,2019-08-07 16:44:38:679
-6.1103,-7.4948,0.0487,-0.2709,-0.0607,0.2643,0.0229,0.058,0.0427,3247,2019-08-07 16:44:38:683
-6.1103,-7.4948,0.0487,-0.1244,-0.065,0.1979,0.0336,0.0601,0.031,3253,2019-08-07 16:44:38:689
-6.1103,-7.4948,0.0487,-0.1244,-0.065,0.1979,0.0336,0.0601,0.031,3258,2019-08-07 16:44:38:694
-6.1677,-7.5043,0.1147,-0.1244,-0.065,0.1979,0.04,0.0356,0.0203,3263,2019-08-07 16:44:38:699
-6.1677,-7.5043,0.1147,-0.1244,-0.065,0.1979,0.04,0.0356,0.0203,3268,2019-08-07 16:44:38:704
-6.1055,-7.4566,0.1712,-0.0899,-0.0906,0.1226,0.0442,0.0068,0.0118,3272,2019-08-07 16:44:38:708
-6.1055,-7.4566,0.1712,-0.0899,-0.0906,0.1226,0.0442,0.0068,0.0118,3278,2019-08-07 16:44:38:714
-6.1055,-7.4566,0.1712,-0.0899,-0.0906,0.1226,0.0464,-0.0347,-0.001,3282,2019-08-07 16:44:38:718
-6.0775,-7.4374,0.2229,-0.0899,-0.0906,0.1226,0.0464,-0.0347,-0.001,3288,2019-08-07 16:44:38:724
-6.0775,-7.4374,0.2229,-0.1658,-0.1331,0.1797,0.0442,-0.072,-0.0021,3292,2019-08-07 16:44:38:728
-5.9483,-7.4995,0.1004,-0.1658,-0.1331,0.1797,0.0442,-0.072,-0.0021,3298,2019-08-07 16:44:38:734
-5.9483,-7.4995,0.1004,-0.1658,-0.1331,0.1797,0.0453,-0.0805,-0.0127,3303,2019-08-07 16:44:38:739
-5.9483,-7.4995,0.1004,-0.1658,-0.1331,0.1797,0.0453,-0.0805,-0.0127,3308,2019-08-07 16:44:38:744
-5.9148,-7.4279,0.0909,-0.2921,-0.1636,0.1908,0.0464,-0.0848,-0.0202,3313,2019-08-07 16:44:38:749
-5.9148,-7.4279,0.0909,-0.2921,-0.1636,0.1908,0.0464,-0.0848,-0.0202,3318,2019-08-07 16:44:38:754
-5.9148,-7.4279,0.0909,-0.2921,-0.1636,0.1908,0.0464,-0.0635,-0.0298,3323,2019-08-07 16:44:38:759
-5.8239,-7.4088,0.0815,-0.2921,-0.1636,0.1908,0.0464,-0.0635,-0.0298,3327,2019-08-07 16:44:38:763
-5.8239,-7.4088,0.0815,-0.3966,-0.2392,0.2431,0.0485,-0.0368,-0.0393,3333,2019-08-07 16:44:38:769
-5.8814,-7.299,0.2088,-0.3966,-0.2392,0.2431,0.0485,-0.0368,-0.0393,3337,2019-08-07 16:44:38:773
-5.8814,-7.299,0.2088,-0.3966,-0.2392,0.2431,0.0453,-0.0219,-0.0532,3343,2019-08-07 16:44:38:779
-5.8814,-7.299,0.2088,-0.3966,-0.2392,0.2431,0.0453,-0.0219,-0.0532,3348,2019-08-07 16:44:38:784
-5.8096,-7.2083,0.2512,-0.384,-0.3931,0.0547,0.0421,-0.0038,-0.0511,3353,2019-08-07 16:44:38:789
-5.8096,-7.2083,0.2512,-0.384,-0.3931,0.0547,0.0421,-0.0038,-0.0511,3357,2019-08-07 16:44:38:793
-5.7809,-7.2465,0.2465,-0.384,-0.3931,0.0547,0.0325,0.025,-0.0575,3363,2019-08-07 16:44:38:799
-5.7809,-7.2465,0.2465,-0.384,-0.3931,0.0547,0.0325,0.025,-0.0575,3368,2019-08-07 16:44:38:804
-5.7809,-7.2465,0.2465,-0.3511,-0.3765,0.0719,0.0251,0.0526,-0.0628,3373,2019-08-07 16:44:38:809
-5.9149,-7.2178,0.3313,-0.3511,-0.3765,0.0719,0.0251,0.0526,-0.0628,3378,2019-08-07 16:44:38:814
-5.9149,-7.2178,0.3313,-0.3511,-0.3765,0.0719,0.0165,0.0473,-0.0564,3383,2019-08-07 16:44:38:819
-5.9005,-7.1653,0.4021,-0.3511,-0.3765,0.0719,0.0165,0.0473,-0.0564,3388,2019-08-07 16:44:38:824
-5.9005,-7.1653,0.4021,-0.2995,-0.4217,-0.0624,0.007,0.026,-0.0425,3393,2019-08-07 16:44:38:829
-5.9005,-7.1653,0.4021,-0.2995,-0.4217,-0.0624,0.007,0.026,-0.0425,3398,2019-08-07 16:44:38:834
-5.8287,-7.1701,0.4209,-0.2995,-0.4217,-0.0624,-0.0037,0.0047,-0.0319,3403,2019-08-07 16:44:38:839
-5.8287,-7.1701,0.4209,-0.2995,-0.4217,-0.0624,-0.0037,0.0047,-0.0319,3408,2019-08-07 16:44:38:844
-5.7809,-7.2894,0.4209,-0.3609,-0.3451,-0.0398,-0.0112,-0.0155,-0.0191,3414,2019-08-07 16:44:38:850
-5.7809,-7.2894,0.4209,-0.3609,-0.3451,-0.0398,-0.0112,-0.0155,-0.0191,3418,2019-08-07 16:44:38:854
-5.7809,-7.2894,0.4209,-0.3609,-0.3451,-0.0398,-0.0112,-0.0155,-0.0191,3422,2019-08-07 16:44:38:858
-5.7474,-7.3181,0.1946,-0.3609,-0.3451,-0.0398,-0.0112,-0.024,-0.0042,3428,2019-08-07 16:44:38:864
-5.7474,-7.3181,0.1946,-0.4971,-0.2946,0.1398,-0.0112,-0.024,-0.0042,3432,2019-08-07 16:44:38:868
-5.7283,-7.3611,0.1758,-0.4971,-0.2946,0.1398,-0.0133,-0.0166,-0.0021,3438,2019-08-07 16:44:38:874
-5.7283,-7.3611,0.1758,-0.4971,-0.2946,0.1398,-0.0133,-0.0166,-0.0021,3443,2019-08-07 16:44:38:879
-5.7283,-7.3611,0.1758,-0.4971,-0.2946,0.1398,-0.0154,-0.0081,0.0097,3447,2019-08-07 16:44:38:883
-5.7761,-7.3324,0.2371,-0.3912,-0.2904,0.0675,-0.0154,-0.0081,0.0097,3453,2019-08-07 16:44:38:889
-5.7761,-7.3324,0.2371,-0.3912,-0.2904,0.0675,-0.0154,-0.0081,0.0097,3458,2019-08-07 16:44:38:894
-5.7761,-7.3324,0.2371,-0.3912,-0.2904,0.0675,-0.0133,0.0143,0.0192,3463,2019-08-07 16:44:38:899
-5.7092,-7.3611,0.1287,-0.3912,-0.2904,0.0675,-0.0133,0.0143,0.0192,3468,2019-08-07 16:44:38:904
-5.7092,-7.3611,0.1287,-0.3974,-0.2035,0.1377,-0.0143,0.0324,0.0118,3473,2019-08-07 16:44:38:909
-5.8718,-7.3038,0.1852,-0.3974,-0.2035,0.1377,-0.0143,0.0324,0.0118,3478,2019-08-07 16:44:38:914
-5.8718,-7.3038,0.1852,-0.3974,-0.2035,0.1377,-0.0175,0.0356,0.0139,3483,2019-08-07 16:44:38:919
-5.8718,-7.3038,0.1852,-0.3974,-0.2035,0.1377,-0.0175,0.0356,0.0139,3487,2019-08-07 16:44:38:923
-5.9388,-7.3229,0.2889,-0.2798,-0.3167,0.1025,-0.0175,0.0303,0.0182,3493,2019-08-07 16:44:38:929
-5.9388,-7.3229,0.2889,-0.2798,-0.3167,0.1025,-0.0175,0.0303,0.0182,3499,2019-08-07 16:44:38:935
-5.8096,-7.3897,0.1192,-0.2798,-0.3167,0.1025,-0.0175,0.0303,0.0182,3503,2019-08-07 16:44:38:939
-5.8096,-7.3897,0.1192,-0.2798,-0.3167,0.1025,-0.0239,0.0463,0.0097,3507,2019-08-07 16:44:38:943
-5.8096,-7.3897,0.1192,-0.2813,-0.2395,0.1492,-0.0239,0.0463,0.0097,3513,2019-08-07 16:44:38:949
-5.8862,-7.4518,0.2229,-0.2813,-0.2395,0.1492,-0.0271,0.0516,0.0022,3518,2019-08-07 16:44:38:954
-5.8862,-7.4518,0.2229,-0.2813,-0.2395,0.1492,-0.0271,0.0516,0.0022,3522,2019-08-07 16:44:38:958
-5.8431,-7.4422,0.3031,-0.2813,-0.2395,0.1492,-0.0197,0.0569,0.0043,3528,2019-08-07 16:44:38:964
-5.8431,-7.4422,0.3031,-0.3626,-0.1969,0.0398,-0.0197,0.0569,0.0043,3533,2019-08-07 16:44:38:969
-5.8431,-7.4422,0.3031,-0.3626,-0.1969,0.0398,-0.0229,0.0654,0.0011,3537,2019-08-07 16:44:38:973
-5.7857,-7.4374,0.1286,-0.3626,-0.1969,0.0398,-0.0229,0.0654,0.0011,3543,2019-08-07 16:44:38:979
-5.7857,-7.4374,0.1286,-0.3626,-0.1969,0.0398,-0.0229,0.0654,0.0011,3548,2019-08-07 16:44:38:984
-5.7857,-7.4374,0.1286,-0.3139,-0.2077,0.0499,-0.0271,0.0814,-0.0063,3553,2019-08-07 16:44:38:989
-5.8814,-7.4756,0.2229,-0.3139,-0.2077,0.0499,-0.0271,0.0814,-0.0063,3558,2019-08-07 16:44:38:994
-5.8814,-7.4756,0.2229,-0.3139,-0.2077,0.0499,-0.0271,0.0708,-0.0085,3563,2019-08-07 16:44:38:999
-5.9245,-7.4804,0.2842,-0.3139,-0.2077,0.0499,-0.0271,0.0708,-0.0085,3567,2019-08-07 16:44:39:003
-5.9245,-7.4804,0.2842,-0.274,-0.1187,0.0799,-0.0186,0.0526,-0.0074,3573,2019-08-07 16:44:39:009
-5.9245,-7.4804,0.2842,-0.274,-0.1187,0.0799,-0.0186,0.0526,-0.0074,3577,2019-08-07 16:44:39:013
-5.9053,-7.4661,0.1899,-0.274,-0.1187,0.0799,-0.0112,0.0463,-0.0138,3583,2019-08-07 16:44:39:019
-5.9053,-7.4661,0.1899,-0.274,-0.1187,0.0799,-0.0112,0.0463,-0.0138,3587,2019-08-07 16:44:39:023
-5.9053,-7.4661,0.1899,-0.2573,-0.1734,-0.1028,-0.0133,0.0367,-0.018,3593,2019-08-07 16:44:39:029
-5.9101,-7.4517,0.3408,-0.2573,-0.1734,-0.1028,-0.0133,0.0367,-0.018,3598,2019-08-07 16:44:39:034
-5.9101,-7.4517,0.3408,-0.2573,-0.1734,-0.1028,-0.0133,0.0367,-0.018,3603,2019-08-07 16:44:39:039
-5.9054,-7.4279,0.2041,-0.2573,-0.1734,-0.1028,-0.0112,0.0239,-0.0116,3608,2019-08-07 16:44:39:044
-5.9054,-7.4279,0.2041,-0.2832,-0.2522,0.0243,-0.0069,0.0313,-0.0191,3613,2019-08-07 16:44:39:049
-5.8767,-7.3324,0.2653,-0.2832,-0.2522,0.0243,-0.0069,0.0313,-0.0191,3618,2019-08-07 16:44:39:054
-5.8767,-7.3324,0.2653,-0.2832,-0.2522,0.0243,-0.0069,0.0313,-0.0191,3623,2019-08-07 16:44:39:059
-5.8767,-7.3324,0.2653,-0.2832,-0.2522,0.0243,-0.0058,0.0367,-0.0255,3628,2019-08-07 16:44:39:064
-5.9054,-7.3181,0.2653,-0.2832,-0.2522,0.0243,-0.0058,0.0367,-0.0255,3632,2019-08-07 16:44:39:068
-5.9054,-7.3181,0.2653,-0.2653,-0.3459,-0.0042,-0.0112,0.0313,-0.0223,3637,2019-08-07 16:44:39:073
-5.9054,-7.3181,0.2653,-0.2653,-0.3459,-0.0042,-0.0112,0.0313,-0.0223,3643,2019-08-07 16:44:39:079
-5.9149,-7.3658,0.2606,-0.2653,-0.3459,-0.0042,-0.0143,0.0292,-0.017,3648,2019-08-07 16:44:39:084
-5.9149,-7.3658,0.2606,-0.2653,-0.3459,-0.0042,-0.0143,0.0292,-0.017,3652,2019-08-07 16:44:39:088
-5.8767,-7.3419,0.1993,-0.2723,-0.2813,0.0746,-0.0239,0.0356,-0.0127,3658,2019-08-07 16:44:39:094
-5.8767,-7.3419,0.1993,-0.2723,-0.2813,0.0746,-0.0229,0.0399,-0.0063,3664,2019-08-07 16:44:39:100
-5.8767,-7.3419,0.1993,-0.2723,-0.2813,0.0746,-0.0229,0.0399,-0.0063,3667,2019-08-07 16:44:39:103
-5.9197,-7.3897,0.1428,-0.2723,-0.2813,0.0746,-0.0229,0.0399,-0.0063,3673,2019-08-07 16:44:39:109
-5.9197,-7.3897,0.1428,-0.2519,-0.2443,0.0615,-0.0165,0.0441,0.0022,3678,2019-08-07 16:44:39:114
-5.9197,-7.3897,0.1428,-0.2519,-0.2443,0.0615,-0.0165,0.0441,0.0022,3683,2019-08-07 16:44:39:119
-5.9724,-7.4088,0.1711,-0.2519,-0.2443,0.0615,-0.0122,0.0484,0.0054,3687,2019-08-07 16:44:39:123
-5.9724,-7.4088,0.1711,-0.2519,-0.2443,0.0615,-0.0122,0.0484,0.0054,3693,2019-08-07 16:44:39:129
-5.7906,-7.447,0.1428,-0.3577,-0.2346,-0.0402,-0.0048,0.0218,0.0022,3698,2019-08-07 16:44:39:134
-5.7906,-7.447,0.1428,-0.3577,-0.2346,-0.0402,-0.0048,0.0218,0.0022,3703,2019-08-07 16:44:39:139
-5.7906,-7.447,0.1428,-0.3577,-0.2346,-0.0402,6.0E-4,0.0271,-0.0063,3709,2019-08-07 16:44:39:145
-5.6805,-7.4613,0.0391,-0.3577,-0.2346,-0.0402,6.0E-4,0.0271,-0.0063,3713,2019-08-07 16:44:39:149
-5.6805,-7.4613,0.0391,-0.4562,-0.2506,0.1913,-5.0E-4,0.0356,-0.0095,3718,2019-08-07 16:44:39:154
-5.6805,-7.4613,0.0391,-0.4562,-0.2506,0.1913,-5.0E-4,0.0356,-0.0095,3723,2019-08-07 16:44:39:159
-5.9676,-7.2608,-0.0552,-0.188,-0.375,0.2532,-0.0026,0.0686,0.0086,3727,2019-08-07 16:44:39:163
-5.9676,-7.2608,-0.0552,-0.188,-0.375,0.2532,-0.0026,0.0686,0.0086,3733,2019-08-07 16:44:39:169
-5.9676,-7.2608,-0.0552,-0.188,-0.375,0.2532,6.0E-4,0.0718,0.0182,3738,2019-08-07 16:44:39:174
-5.8767,-7.4279,0.0956,-0.188,-0.375,0.2532,6.0E-4,0.0718,0.0182,3743,2019-08-07 16:44:39:179
-5.8767,-7.4279,0.0956,-0.248,-0.23,0.1157,-0.0069,0.0612,0.0246,3748,2019-08-07 16:44:39:184
-5.8767,-7.4279,0.0956,-0.248,-0.23,0.1157,-0.0069,0.0612,0.0246,3752,2019-08-07 16:44:39:188
-5.9867,-7.361,0.0815,-0.248,-0.23,0.1157,-0.0133,0.0484,0.0363,3758,2019-08-07 16:44:39:194
-5.9867,-7.361,0.0815,-0.248,-0.23,0.1157,-0.0133,0.0484,0.0363,3763,2019-08-07 16:44:39:199
-5.9006,-7.4183,0.0626,-0.2813,-0.2456,0.1399,-0.0058,0.0335,0.0299,3768,2019-08-07 16:44:39:204
-5.9006,-7.4183,0.0626,-0.2813,-0.2456,0.1399,-0.0058,0.0335,0.0299,3772,2019-08-07 16:44:39:208
-5.9006,-7.4183,0.0626,-0.2813,-0.2456,0.1399,-0.0058,0.0335,0.0299,3777,2019-08-07 16:44:39:213
-5.9389,-7.4422,0.0721,-0.2813,-0.2456,0.1399,-0.0016,0.025,0.031,3783,2019-08-07 16:44:39:219
-5.9389,-7.4422,0.0721,-0.2617,-0.2231,0.0595,0.0027,0.0292,0.0352,3788,2019-08-07 16:44:39:224
-5.9389,-7.4422,0.0721,-0.2617,-0.2231,0.0595,0.0027,0.0292,0.0352,3793,2019-08-07 16:44:39:229
-5.8911,-7.4422,0.1192,-0.2617,-0.2231,0.0595,0.0027,0.0292,0.0352,3798,2019-08-07 16:44:39:234
-5.8911,-7.4422,0.1192,-0.2617,-0.2231,0.0595,0.0027,0.0399,0.032,3803,2019-08-07 16:44:39:239
-5.8911,-7.4422,0.1192,-0.2187,-0.1811,-0.0155,0.0027,0.0399,0.032,3808,2019-08-07 16:44:39:244
-5.9485,-7.3992,0.2418,-0.2187,-0.1811,-0.0155,0.008,0.0399,0.0288,3812,2019-08-07 16:44:39:248
-5.9485,-7.3992,0.2418,-0.2187,-0.1811,-0.0155,0.008,0.0399,0.0288,3818,2019-08-07 16:44:39:254
-5.9485,-7.3992,0.2418,-0.2187,-0.1811,-0.0155,0.0091,0.0303,0.0299,3823,2019-08-07 16:44:39:259
-5.9772,-7.4995,0.2653,-0.1849,-0.2062,0.0199,0.0091,0.0303,0.0299,3827,2019-08-07 16:44:39:263
-5.9772,-7.4995,0.2653,-0.1849,-0.2062,0.0199,0.0027,0.0196,0.0224,3833,2019-08-07 16:44:39:269
-5.958,-7.4422,0.1333,-0.1849,-0.2062,0.0199,0.0027,0.0196,0.0224,3838,2019-08-07 16:44:39:274
-5.958,-7.4422,0.1333,-0.1849,-0.2062,0.0199,-0.0069,0.0132,0.0203,3843,2019-08-07 16:44:39:279
-5.958,-7.4422,0.1333,-0.2216,-0.175,-0.1051,-0.0069,0.0132,0.0203,3848,2019-08-07 16:44:39:284
-5.9198,-7.4183,0.1333,-0.2216,-0.175,-0.1051,-0.0303,-0.0475,0.0139,3853,2019-08-07 16:44:39:289
-5.9198,-7.4183,0.1333,-0.2216,-0.175,-0.1051,-0.0303,-0.0475,0.0139,3857,2019-08-07 16:44:39:293
-5.9772,-7.4374,0.1758,-0.2216,-0.175,-0.1051,-0.0644,-0.0464,1.0E-4,3863,2019-08-07 16:44:39:299
-5.9772,-7.4374,0.1758,-0.3419,-0.1028,-0.074,-0.0644,-0.0464,1.0E-4,3867,2019-08-07 16:44:39:303
-5.9772,-7.4374,0.1758,-0.3419,-0.1028,-0.074,-0.0644,-0.0464,1.0E-4,3873,2019-08-07 16:44:39:309
-5.7332,-7.5759,0.1569,-0.3419,-0.1028,-0.074,-0.009,-0.0155,-0.0053,3878,2019-08-07 16:44:39:314
-5.7332,-7.5759,0.1569,-0.3419,-0.1028,-0.074,-0.009,-0.0155,-0.0053,3883,2019-08-07 16:44:39:319
-5.805,-7.4899,-0.1118,-0.3729,-0.1287,0.2733,0.008,0.0239,-0.0042,3888,2019-08-07 16:44:39:324
-5.805,-7.4899,-0.1118,-0.3729,-0.1287,0.2733,0.008,0.0239,-0.0042,3892,2019-08-07 16:44:39:328
-5.805,-7.4899,-0.1118,-0.3729,-0.1287,0.2733,-0.0048,0.0601,-0.0063,3898,2019-08-07 16:44:39:334
-5.9341,-7.2894,0.0626,-0.3729,-0.1287,0.2733,-0.0048,0.0601,-0.0063,3903,2019-08-07 16:44:39:339
-5.9341,-7.2894,0.0626,-0.1904,-0.2822,-0.0365,-0.0058,0.0537,-0.0042,3908,2019-08-07 16:44:39:344
-5.9868,-7.3945,0.1428,-0.1904,-0.2822,-0.0365,-0.0058,0.0537,-0.0042,3913,2019-08-07 16:44:39:349
-5.9868,-7.3945,0.1428,-0.1904,-0.2822,-0.0365,-0.0058,0.0537,-0.0042,3918,2019-08-07 16:44:39:354
-5.9868,-7.3945,0.1428,-0.1904,-0.2822,-0.0365,0.0038,0.0516,-0.0021,3923,2019-08-07 16:44:39:359
-5.8959,-7.5997,0.1805,-0.2707,-0.0349,-0.0426,0.0038,0.0516,-0.0021,3928,2019-08-07 16:44:39:364
-5.8959,-7.5997,0.1805,-0.2707,-0.0349,-0.0426,0.0176,0.0644,-0.0053,3932,2019-08-07 16:44:39:368
-5.8241,-7.5568,0.0909,-0.2707,-0.0349,-0.0426,0.0176,0.0644,-0.0053,3938,2019-08-07 16:44:39:374
-5.8241,-7.5568,0.0909,-0.2707,-0.0349,-0.0426,0.0134,0.0484,-0.0127,3943,2019-08-07 16:44:39:379
-5.8241,-7.5568,0.0909,-0.2157,-0.2757,0.1691,0.0134,0.0484,-0.0127,3948,2019-08-07 16:44:39:384
-5.9054,-7.3181,0.0249,-0.2157,-0.2757,0.1691,-0.0101,0.0377,-0.0148,3953,2019-08-07 16:44:39:389
-5.9054,-7.3181,0.0249,-0.2157,-0.2757,0.1691,-0.0101,0.0377,-0.0148,3958,2019-08-07 16:44:39:394
-5.9054,-7.3181,0.0249,-0.2157,-0.2757,0.1691,-0.0293,0.0303,-0.0138,3962,2019-08-07 16:44:39:398
-5.915,-7.3945,-0.0222,-0.2421,-0.1631,0.1931,-0.0293,0.0303,-0.0138,3968,2019-08-07 16:44:39:404
-5.915,-7.3945,-0.0222,-0.2421,-0.1631,0.1931,-0.0271,0.0367,-0.017,3973,2019-08-07 16:44:39:409
-5.9437,-7.4135,0.0391,-0.2421,-0.1631,0.1931,-0.0271,0.0367,-0.017,3978,2019-08-07 16:44:39:414
-5.9437,-7.4135,0.0391,-0.2168,-0.2072,0.0425,-0.0101,0.0292,-0.0106,3982,2019-08-07 16:44:39:418
-5.9437,-7.4135,0.0391,-0.2168,-0.2072,0.0425,-0.0101,0.0292,-0.0106,3988,2019-08-07 16:44:39:424