ACCELEROMETER X (m/s²),ACCELEROMETER Y (m/s²),ACCELEROMETER Z (m/s²),LINEAR ACCELERATION X (m/s²),LINEAR ACCELERATION Y (m/s²),LINEAR ACCELERATION Z (m/s²),GYROSCOPE X (rad/s),GYROSCOPE Y (rad/s),GYROSCOPE Z (rad/s),Time since start in ms ,YYYY-MO-DD HH-MI-SS_SSS
-6.551,-7.0026,0.6651,3.0E-4,-0.2553,0.14,-0.0079,0.0047,-0.0106,2,2019-08-07 16:45:34:649
-6.5175,-7.0121,0.6886,3.0E-4,-0.2553,0.14,-0.0037,-0.0251,-0.0117,8,2019-08-07 16:45:34:655
-6.5175,-7.0121,0.6886,-0.1475,-0.2464,0.1003,-0.0037,-0.0251,-0.0117,13,2019-08-07 16:45:34:660
-6.3597,-7.0455,0.6886,-0.1475,-0.2464,0.1003,-0.0037,-0.0251,-0.0117,18,2019-08-07 16:45:34:665
-6.3597,-7.0455,0.6886,-0.1475,-0.2464,0.1003,-0.0026,-0.04,-0.0095,23,2019-08-07 16:45:34:670
-6.3597,-7.0455,0.6886,-0.1475,-0.2464,0.1003,-0.0026,-0.04,-0.0095,27,2019-08-07 16:45:34:674
-6.2353,-7.036,0.7122,-0.3321,-0.2238,0.0624,6.0E-4,-0.0432,-0.001,33,2019-08-07 16:45:34:680
-6.2353,-7.036,0.7122,-0.3321,-0.2238,0.0624,6.0E-4,-0.0432,-0.001,37,2019-08-07 16:45:34:684
-6.2353,-7.036,0.7122,-0.3321,-0.2238,0.0624,0.008,-0.0358,0.0064,43,2019-08-07 16:45:34:690
-6.1779,-7.0216,0.7782,-0.3321,-0.2238,0.0624,0.008,-0.0358,0.0064,47,2019-08-07 16:45:34:694
-6.1779,-7.0216,0.7782,-0.4371,-0.2759,0.11,0.0123,-0.0198,0.016,53,2019-08-07 16:45:34:700
-6.1445,-6.9739,0.7216,-0.4371,-0.2759,0.11,0.0123,-0.0198,0.016,58,2019-08-07 16:45:34:705
-6.1445,-6.9739,0.7216,-0.4371,-0.2759,0.11,0.0102,5.0E-4,0.0203,63,2019-08-07 16:45:34:710
-6.1445,-6.9739,0.7216,-0.4371,-0.2759,0.11,0.0102,5.0E-4,0.0203,68,2019-08-07 16:45:34:715
-6.2019,-6.888,0.7923,-0.3251,-0.3448,0.0404,0.0059,0.0154,0.0245,73,2019-08-07 16:45:34:720
-6.2019,-6.888,0.7923,-0.3251,-0.3448,0.0404,0.0059,0.0154,0.0245,78,2019-08-07 16:45:34:725
-6.2403,-6.9309,0.8064,-0.3251,-0.3448,0.0404,0.0038,0.0154,0.0224,82,2019-08-07 16:45:34:729
-6.2403,-6.9309,0.8064,-0.3251,-0.3448,0.0404,0.0038,0.0154,0.0224,89,2019-08-07 16:45:34:736
-6.2403,-6.9309,0.8064,-0.3251,-0.3448,0.0404,0.0038,0.0154,0.0224,93,2019-08-07 16:45:34:740
-6.3312,-6.845,0.6933,-0.2427,-0.4085,0.0714,-0.0058,0.0186,0.015,98,2019-08-07 16:45:34:745
-6.3312,-6.845,0.6933,-0.2427,-0.4085,0.0714,-0.0058,0.0186,0.015,103,2019-08-07 16:45:34:750
-6.3743,-6.9309,0.7168,-0.2427,-0.4085,0.0714,-0.0165,0.0132,0.0139,108,2019-08-07 16:45:34:755
-6.3743,-6.9309,0.7168,-0.1642,-0.3299,0.086,-0.0165,0.0132,0.0139,113,2019-08-07 16:45:34:760
-6.3743,-6.9309,0.7168,-0.1642,-0.3299,0.086,-0.0186,0.0037,0.0107,117,2019-08-07 16:45:34:764
-6.3456,-6.9834,0.7593,-0.1642,-0.3299,0.086,-0.0186,0.0037,0.0107,123,2019-08-07 16:45:34:770
-6.3456,-6.9834,0.7593,-0.1642,-0.3299,0.086,-0.0143,-0.0059,0.0139,128,2019-08-07 16:45:34:775
-6.2787,-7.0407,0.6791,-0.2808,-0.2092,0.1258,-0.0143,-0.0059,0.0139,133,2019-08-07 16:45:34:780
-6.2787,-7.0407,0.6791,-0.2808,-0.2092,0.1258,-0.0175,-0.0017,0.0139,138,2019-08-07 16:45:34:785
-6.2787,-7.0407,0.6791,-0.2808,-0.2092,0.1258,-0.0175,-0.0017,0.0139,143,2019-08-07 16:45:34:790
-6.2835,-6.9977,0.7027,-0.2808,-0.2092,0.1258,-0.0175,-0.0017,0.0139,147,2019-08-07 16:45:34:794
-6.2835,-6.9977,0.7027,-0.2875,-0.265,0.0337,-0.0154,-0.0038,0.016,153,2019-08-07 16:45:34:800
-6.2835,-6.9977,0.7027,-0.2875,-0.265,0.0337,-0.0154,-0.0038,0.016,157,2019-08-07 16:45:34:804
-6.2787,-6.9977,0.7592,-0.2875,-0.265,0.0337,-0.0154,-0.0091,0.0256,163,2019-08-07 16:45:34:810
-6.2787,-6.9977,0.7592,-0.2875,-0.265,0.0337,-0.0154,-0.0091,0.0256,168,2019-08-07 16:45:34:815
-6.2836,-6.993,0.6791,-0.2875,-0.265,0.0337,-0.0143,-0.0017,0.0288,173,2019-08-07 16:45:34:820
-6.2836,-6.993,0.6791,-0.2908,-0.2384,0.0931,-0.0143,-0.0017,0.0288,178,2019-08-07 16:45:34:825
-6.2836,-6.993,0.6791,-0.2908,-0.2384,0.0931,-0.0101,-0.007,0.0331,183,2019-08-07 16:45:34:830
-6.3027,-6.9882,0.6555,-0.2908,-0.2384,0.0931,-0.0101,-0.007,0.0331,188,2019-08-07 16:45:34:835
-6.3027,-6.9882,0.6555,-0.2857,-0.2439,0.0917,-0.0079,5.0E-4,0.032,193,2019-08-07 16:45:34:840
-6.2741,-7.0216,0.6649,-0.2857,-0.2439,0.0917,-0.0079,5.0E-4,0.032,198,2019-08-07 16:45:34:845
-6.2741,-7.0216,0.6649,-0.2857,-0.2439,0.0917,-0.0058,0.0122,0.0267,203,2019-08-07 16:45:34:850
-6.2741,-7.0216,0.6649,-0.2857,-0.2439,0.0917,-0.0058,0.0122,0.0267,208,2019-08-07 16:45:34:855
-6.3746,-6.9595,0.6791,-0.2857,-0.2439,0.0917,-0.0069,0.0239,0.0235,212,2019-08-07 16:45:34:859
-6.3746,-6.9595,0.6791,-0.261,-0.2311,0.1305,-0.0069,0.0239,0.0235,218,2019-08-07 16:45:34:865
-6.3746,-6.9595,0.6791,-0.261,-0.2311,0.1305,-0.0069,0.0239,0.0235,223,2019-08-07 16:45:34:870
-6.4416,-7.0025,0.6744,-0.261,-0.2311,0.1305,-0.0037,0.0271,0.0181,228,2019-08-07 16:45:34:875
-6.4416,-7.0025,0.6744,-0.261,-0.2311,0.1305,-0.0037,0.0271,0.0181,233,2019-08-07 16:45:34:880
-6.4464,-6.95,0.7498,-0.078,-0.2522,0.0412,0.0016,0.0207,0.016,238,2019-08-07 16:45:34:885
-6.4464,-6.95,0.7498,-0.078,-0.2522,0.0412,0.0016,0.0207,0.016,243,2019-08-07 16:45:34:890
-6.4464,-6.95,0.7498,-0.078,-0.2522,0.0412,0.0112,5.0E-4,0.0171,248,2019-08-07 16:45:34:895
-6.3938,-6.9404,0.7639,-0.078,-0.2522,0.0412,0.0112,5.0E-4,0.0171,253,2019-08-07 16:45:34:900
-6.3938,-6.9404,0.7639,-0.1767,-0.3257,0.0232,0.0102,-0.0187,0.0181,257,2019-08-07 16:45:34:904
-6.4465,-6.8593,0.8016,-0.1767,-0.3257,0.0232,0.0102,-0.0187,0.0181,263,2019-08-07 16:45:34:910
-6.4465,-6.8593,0.8016,-0.1767,-0.3257,0.0232,0.0091,-0.0379,0.0277,268,2019-08-07 16:45:34:915
-6.4465,-6.8593,0.8016,-0.1767,-0.3257,0.0232,0.0091,-0.0379,0.0277,273,2019-08-07 16:45:34:920
-6.3317,-6.8831,0.8016,-0.2522,-0.3454,-0.0034,0.007,-0.056,0.0341,278,2019-08-07 16:45:34:925
-6.3317,-6.8831,0.8016,-0.2522,-0.3454,-0.0034,0.007,-0.056,0.0341,283,2019-08-07 16:45:34:930
-6.2695,-6.8784,0.8063,-0.2522,-0.3454,-0.0034,0.0059,-0.0816,0.0426,288,2019-08-07 16:45:34:935
-6.2695,-6.8784,0.8063,-0.2522,-0.3454,-0.0034,0.0059,-0.0816,0.0426,292,2019-08-07 16:45:34:939
-6.2695,-6.8784,0.8063,-0.3863,-0.3682,0.022,0.0027,-0.0837,0.0512,298,2019-08-07 16:45:34:945
-6.1739,-6.8497,0.6366,-0.3863,-0.3682,0.022,0.0027,-0.0837,0.0512,303,2019-08-07 16:45:34:950
-6.1739,-6.8497,0.6366,-0.3863,-0.3682,0.022,-0.0047,-0.0453,0.0554,307,2019-08-07 16:45:34:954
-6.1643,-6.907,0.6602,-0.3863,-0.3682,0.022,-0.0047,-0.0453,0.0554,313,2019-08-07 16:45:34:960
-6.1643,-6.907,0.6602,-0.3738,-0.3089,0.0892,-0.0079,-0.0102,0.0554,318,2019-08-07 16:45:34:965
-6.1643,-6.907,0.6602,-0.3738,-0.3089,0.0892,-0.0079,-0.0102,0.0554,322,2019-08-07 16:45:34:969
-6.3031,-6.9261,0.712,-0.2962,-0.2866,0.1021,-0.0037,0.0292,0.0469,328,2019-08-07 16:45:34:975
-6.3031,-6.9261,0.712,-0.2962,-0.2866,0.1021,-0.0037,0.0292,0.0469,333,2019-08-07 16:45:34:980
-6.3031,-6.9261,0.712,-0.2962,-0.2866,0.1021,-0.0037,0.0292,0.0469,337,2019-08-07 16:45:34:984
-6.4084,-6.9643,0.7309,-0.2962,-0.2866,0.1021,-0.0026,0.0463,0.0373,343,2019-08-07 16:45:34:990
-6.4084,-6.9643,0.7309,-0.1738,-0.2715,0.0908,-0.0026,0.0463,0.0373,347,2019-08-07 16:45:34:994
-6.4084,-6.9547,0.6931,-0.1738,-0.2715,0.0908,-0.0079,0.0527,0.0373,353,2019-08-07 16:45:35:000
-6.4993,-6.9547,0.6931,-0.1738,-0.2715,0.0908,-0.0079,0.0527,0.0373,358,2019-08-07 16:45:35:005
-6.4993,-6.9547,0.6931,-0.1738,-0.2715,0.0908,-0.0154,0.0303,0.0203,363,2019-08-07 16:45:35:010
-6.5664,-6.9213,0.8487,-0.0456,-0.2814,-0.0487,-0.0154,0.0303,0.0203,369,2019-08-07 16:45:35:016
-6.5664,-6.9213,0.8487,-0.0456,-0.2814,-0.0487,-0.0165,-0.0102,0.0171,373,2019-08-07 16:45:35:020
-6.5664,-6.9213,0.8487,-0.0456,-0.2814,-0.0487,-0.0165,-0.0102,0.0171,378,2019-08-07 16:45:35:025
-6.4946,-6.9309,0.778,-0.0456,-0.2814,-0.0487,-0.0186,-0.0464,0.0139,383,2019-08-07 16:45:35:030
-6.4946,-6.9309,0.778,-0.3013,-0.2506,0.0465,-0.0186,-0.0464,0.0139,388,2019-08-07 16:45:35:035
-6.2507,-6.9452,0.7073,-0.3013,-0.2506,0.0465,-0.0186,-0.0464,0.0139,392,2019-08-07 16:45:35:039
-6.2507,-6.9452,0.7073,-0.3013,-0.2506,0.0465,-0.0218,-0.0389,0.0128,398,2019-08-07 16:45:35:045
-6.2507,-6.9452,0.7073,-0.3013,-0.2506,0.0465,-0.0218,-0.0389,0.0128,403,2019-08-07 16:45:35:050
-6.289,-6.9499,0.6743,-0.3068,-0.2593,0.0949,-0.0186,-0.0176,0.0118,408,2019-08-07 16:45:35:055
-6.289,-6.9499,0.6743,-0.3068,-0.2593,0.0949,-0.0186,-0.0176,0.0118,412,2019-08-07 16:45:35:059
-6.3656,-6.9595,0.7402,-0.3068,-0.2593,0.0949,-0.0058,-0.0123,0.0224,419,2019-08-07 16:45:35:066
-6.3656,-6.9595,0.7402,-0.3068,-0.2593,0.0949,-0.0058,-0.0123,0.0224,422,2019-08-07 16:45:35:069
-6.3656,-6.9595,0.7402,-0.2998,-0.2664,0.1187,-5.0E-4,-0.0113,0.0245,428,2019-08-07 16:45:35:075
-6.2843,-6.9404,0.646,-0.2998,-0.2664,0.1187,-5.0E-4,-0.0113,0.0245,433,2019-08-07 16:45:35:080
-6.2843,-6.9404,0.646,-0.2998,-0.2664,0.1187,0.0016,0.0101,0.0192,439,2019-08-07 16:45:35:086
-6.4039,-6.9404,0.7449,-0.2998,-0.2664,0.1187,0.0016,0.0101,0.0192,444,2019-08-07 16:45:35:091
-6.4039,-6.9404,0.7449,-0.1689,-0.2876,0.0698,0.007,0.0239,0.0171,447,2019-08-07 16:45:35:094
-6.4039,-6.9404,0.7449,-0.1689,-0.2876,0.0698,0.007,0.0239,0.0171,453,2019-08-07 16:45:35:100
-6.4661,-6.9308,0.7308,-0.1689,-0.2876,0.0698,0.0102,0.0271,0.0096,457,2019-08-07 16:45:35:104
-6.4661,-6.9308,0.7308,-0.1689,-0.2876,0.0698,0.0102,0.0271,0.0096,463,2019-08-07 16:45:35:110
-6.5236,-6.9595,0.6931,-0.0994,-0.2332,0.1052,0.0059,0.0132,0.0054,467,2019-08-07 16:45:35:114
-6.5236,-6.9595,0.6931,-0.0994,-0.2332,0.1052,0.0059,0.0132,0.0054,473,2019-08-07 16:45:35:120
-6.5236,-6.9595,0.6931,-0.0994,-0.2332,0.1052,0.0038,0.0058,0.0,478,2019-08-07 16:45:35:125
-6.4997,-6.9881,0.7025,-0.0994,-0.2332,0.1052,0.0038,0.0058,0.0,483,2019-08-07 16:45:35:130
-6.4997,-6.9881,0.7025,-0.0994,-0.2332,0.1052,0.0027,-0.0027,-0.0127,487,2019-08-07 16:45:35:134
-6.4997,-6.9881,0.7025,-0.1233,-0.1998,0.0528,0.0027,-0.0027,-0.0127,493,2019-08-07 16:45:35:140
-6.4567,-6.9642,0.7685,-0.1233,-0.1998,0.0528,0.0048,-0.0123,-0.017,498,2019-08-07 16:45:35:145
-6.4567,-6.9642,0.7685,-0.1233,-0.1998,0.0528,0.0048,-0.0123,-0.017,503,2019-08-07 16:45:35:150
-6.3371,-6.9213,0.7496,-0.1233,-0.1998,0.0528,0.0027,-0.0208,-0.0159,507,2019-08-07 16:45:35:154
-6.3371,-6.9213,0.7496,-0.3214,-0.2594,0.088,0.0027,-0.0208,-0.0159,513,2019-08-07 16:45:35:160
-6.3371,-6.9213,0.7496,-0.3214,-0.2594,0.088,0.0016,-0.0113,-0.0127,518,2019-08-07 16:45:35:165
-6.2893,-6.9404,0.7213,-0.3214,-0.2594,0.088,0.0016,-0.0113,-0.0127,523,2019-08-07 16:45:35:170
-6.2893,-6.9404,0.7213,-0.2802,-0.2524,-0.0096,-5.0E-4,-0.0113,-0.0149,528,2019-08-07 16:45:35:175
-6.2941,-6.926,0.7967,-0.2802,-0.2524,-0.0096,-5.0E-4,-0.0113,-0.0149,533,2019-08-07 16:45:35:180
-6.2941,-6.926,0.7967,-0.2802,-0.2524,-0.0096,-5.0E-4,-0.0113,-0.0149,538,2019-08-07 16:45:35:185
-6.2941,-6.926,0.7967,-0.2802,-0.2524,-0.0096,0.007,-0.024,0.0011,543,2019-08-07 16:45:35:190
-6.2607,-6.9499,0.726,-0.2802,-0.2524,-0.0096,0.007,-0.024,0.0011,548,2019-08-07 16:45:35:195
-6.2607,-6.9499,0.726,-0.399,-0.3243,0.1494,6.0E-4,-0.0155,0.0096,552,2019-08-07 16:45:35:199
-6.232,-6.8449,0.693,-0.399,-0.3243,0.1494,6.0E-4,-0.0155,0.0096,558,2019-08-07 16:45:35:205
-6.232,-6.8449,0.693,-0.399,-0.3243,0.1494,-0.0026,-0.0017,0.0096,563,2019-08-07 16:45:35:210
-6.232,-6.8449,0.693,-0.399,-0.3243,0.1494,-0.0026,-0.0017,0.0096,568,2019-08-07 16:45:35:215
-6.3325,-6.9117,0.7119,-0.2855,-0.2849,0.0926,0.0048,0.0143,0.0128,573,2019-08-07 16:45:35:220
-6.3325,-6.9117,0.7119,-0.2855,-0.2849,0.0926,0.0048,0.0143,0.0128,578,2019-08-07 16:45:35:225
-6.3756,-6.9356,0.7449,-0.2855,-0.2849,0.0926,0.0123,0.0207,0.0043,583,2019-08-07 16:45:35:230
-6.3756,-6.9356,0.7449,-0.2855,-0.2849,0.0926,0.0123,0.0207,0.0043,587,2019-08-07 16:45:35:234
-6.3756,-6.9356,0.7449,-0.2151,-0.2885,0.0815,0.0123,0.0207,0.0043,593,2019-08-07 16:45:35:240
-6.4474,-6.8783,0.7684,-0.2151,-0.2885,0.0815,0.0134,0.0367,-0.0064,597,2019-08-07 16:45:35:244
-6.4474,-6.8783,0.7684,-0.2151,-0.2885,0.0815,0.0134,0.0367,-0.0064,603,2019-08-07 16:45:35:250
-6.5192,-6.9356,0.7778,-0.2151,-0.2885,0.0815,0.0166,0.025,-0.0117,608,2019-08-07 16:45:35:255
-6.5192,-6.9356,0.7778,-0.0717,-0.2743,-0.0054,0.0166,0.025,-0.0117,613,2019-08-07 16:45:35:260
-6.5192,-6.9356,0.7778,-0.0717,-0.2743,-0.0054,0.0166,-0.0038,-0.017,618,2019-08-07 16:45:35:265
-6.5431,-6.8783,0.792,-0.0717,-0.2743,-0.0054,0.0166,-0.0038,-0.017,623,2019-08-07 16:45:35:270
-6.5431,-6.8783,0.792,-0.0717,-0.2743,-0.0054,0.0102,-0.0326,-0.0149,628,2019-08-07 16:45:35:275
-6.4236,-6.8639,0.7637,-0.161,-0.3709,0.0546,0.0102,-0.0326,-0.0149,633,2019-08-07 16:45:35:280
-6.4236,-6.8639,0.7637,-0.161,-0.3709,0.0546,0.0102,-0.0326,-0.0149,638,2019-08-07 16:45:35:285
-6.4236,-6.8639,0.7637,-0.161,-0.3709,0.0546,0.0038,-0.056,-0.0138,643,2019-08-07 16:45:35:290
-6.3423,-6.821,0.7212,-0.161,-0.3709,0.0546,0.0038,-0.056,-0.0138,648,2019-08-07 16:45:35:295
-6.3423,-6.821,0.7212,-0.345,-0.3723,0.0624,-5.0E-4,-0.0624,-0.0074,653,2019-08-07 16:45:35:300
-6.1988,-6.7971,0.6411,-0.345,-0.3723,0.0624,-5.0E-4,-0.0624,-0.0074,658,2019-08-07 16:45:35:305
-6.1988,-6.7971,0.6411,-0.345,-0.3723,0.0624,-0.0058,-0.0368,0.0086,663,2019-08-07 16:45:35:310
-6.1988,-6.7971,0.6411,-0.345,-0.3723,0.0624,-0.0058,-0.0368,0.0086,668,2019-08-07 16:45:35:315
-6.2562,-6.8639,0.693,-0.3589,-0.334,0.123,-0.0133,-0.0091,0.0128,673,2019-08-07 16:45:35:320
-6.2562,-6.8639,0.693,-0.3589,-0.334,0.123,-0.0133,-0.0091,0.0128,678,2019-08-07 16:45:35:325
-6.2558,-6.864,0.6883,-0.3601,-0.3333,0.1268,-0.0122,0.0122,0.0171,683,2019-08-07 16:45:35:330
-6.2558,-6.864,0.6883,-0.3601,-0.3333,0.1268,-0.0122,0.0122,0.0171,687,2019-08-07 16:45:35:334
-6.2558,-6.864,0.6883,-0.3601,-0.3333,0.1268,-0.0122,0.0122,0.0171,693,2019-08-07 16:45:35:340
-6.3898,-6.8974,0.7496,-0.3601,-0.3333,0.1268,-0.0111,0.0356,0.0086,698,2019-08-07 16:45:35:345
-6.3898,-6.8974,0.7496,-0.1708,-0.27,0.1019,-0.0154,0.0314,0.0043,703,2019-08-07 16:45:35:350
-6.4329,-6.9642,0.7543,-0.1708,-0.27,0.1019,-0.0154,0.0314,0.0043,708,2019-08-07 16:45:35:355
-6.4329,-6.9642,0.7543,-0.1708,-0.27,0.1019,-0.0154,0.0314,0.0043,713,2019-08-07 16:45:35:360
-6.4329,-6.9642,0.7543,-0.1708,-0.27,0.1019,-0.0186,0.026,-0.0064,717,2019-08-07 16:45:35:364
-6.4712,-6.9833,0.759,-0.1471,-0.2132,0.0435,-0.0186,0.026,-0.0064,723,2019-08-07 16:45:35:370
-6.4712,-6.9833,0.759,-0.1471,-0.2132,0.0435,-0.0143,0.0037,-0.0213,728,2019-08-07 16:45:35:375
-6.4712,-6.9833,0.759,-0.1471,-0.2132,0.0435,-0.0143,0.0037,-0.0213,733,2019-08-07 16:45:35:380
-6.4425,-7.031,0.6694,-0.1471,-0.2132,0.0435,-0.0154,-0.0166,-0.0245,738,2019-08-07 16:45:35:385
-6.4425,-7.031,0.6694,-0.23,-0.1973,0.1168,-0.0154,-0.0166,-0.0245,743,2019-08-07 16:45:35:390
-6.3421,-7.0215,0.7307,-0.23,-0.1973,0.1168,-0.0122,-0.0294,-0.0255,748,2019-08-07 16:45:35:395
-6.3421,-7.0215,0.7307,-0.23,-0.1973,0.1168,-0.0122,-0.0294,-0.0255,753,2019-08-07 16:45:35:400
-6.3421,-7.0215,0.7307,-0.23,-0.1973,0.1168,-0.0058,-0.04,-0.0223,757,2019-08-07 16:45:35:404
-6.2608,-6.9881,0.7213,-0.3592,-0.2442,0.1056,-0.0058,-0.04,-0.0223,763,2019-08-07 16:45:35:410
-6.2608,-6.9881,0.7213,-0.3592,-0.2442,0.1056,-0.0026,-0.024,-0.017,768,2019-08-07 16:45:35:415
-6.2656,-6.9642,0.6647,-0.3592,-0.2442,0.1056,-0.0026,-0.024,-0.017,773,2019-08-07 16:45:35:420
-6.2656,-6.9642,0.6647,-0.3592,-0.2442,0.1056,-0.0026,-0.024,-0.017,778,2019-08-07 16:45:35:425
-6.2656,-6.9642,0.6647,-0.2419,-0.3561,0.0695,-0.0026,-0.0102,-0.0074,782,2019-08-07 16:45:35:429
-6.3566,-6.8926,0.726,-0.2419,-0.3561,0.0695,-0.0026,-0.0102,-0.0074,788,2019-08-07 16:45:35:435
-6.3566,-6.8926,0.726,-0.2419,-0.3561,0.0695,-5.0E-4,-0.0144,-0.0032,792,2019-08-07 16:45:35:439
-6.3422,-6.821,0.7118,-0.2654,-0.3564,0.0701,-5.0E-4,-0.0144,-0.0032,798,2019-08-07 16:45:35:445
-6.3422,-6.821,0.7118,-0.2654,-0.3564,0.0701,-0.0037,-0.0081,-0.001,803,2019-08-07 16:45:35:450
-6.3422,-6.821,0.7118,-0.2654,-0.3564,0.0701,-0.0037,-0.0081,-0.001,808,2019-08-07 16:45:35:455
-6.347,-6.8735,0.693,-0.2508,-0.3422,0.0468,-0.0026,0.0015,-0.0096,813,2019-08-07 16:45:35:460
-6.347,-6.8735,0.693,-0.2508,-0.3422,0.0468,-0.0026,0.0015,-0.0096,817,2019-08-07 16:45:35:464
-6.4236,-6.8926,0.7118,-0.2508,-0.3422,0.0468,-0.0069,0.0175,-0.0138,823,2019-08-07 16:45:35:470
-6.4236,-6.8926,0.7118,-0.2508,-0.3422,0.0468,-0.0069,0.0175,-0.0138,827,2019-08-07 16:45:35:474
-6.4236,-6.8926,0.7118,-0.2111,-0.3104,0.0297,-0.0026,0.0122,-0.017,833,2019-08-07 16:45:35:480
-6.3997,-6.926,0.759,-0.2111,-0.3104,0.0297,-0.0026,0.0122,-0.017,838,2019-08-07 16:45:35:485
-6.3997,-6.926,0.759,-0.2111,-0.3104,0.0297,-0.0026,0.0122,-0.017,843,2019-08-07 16:45:35:490
-6.3184,-6.9212,0.7637,-0.2111,-0.3104,0.0297,0.0027,0.0079,-0.0202,849,2019-08-07 16:45:35:496
-6.3184,-6.9212,0.7637,-0.2944,-0.2988,-0.0184,0.0027,0.0079,-0.0202,853,2019-08-07 16:45:35:500
-6.3184,-6.9212,0.7637,-0.2944,-0.2988,-0.0184,-5.0E-4,0.0026,-0.0202,857,2019-08-07 16:45:35:504
-6.3232,-6.9499,0.8202,-0.2944,-0.2988,-0.0184,-5.0E-4,0.0026,-0.0202,863,2019-08-07 16:45:35:510
-6.3232,-6.9499,0.8202,-0.2944,-0.2988,-0.0184,-5.0E-4,-0.007,-0.0106,868,2019-08-07 16:45:35:515
-6.1845,-6.9212,0.7825,-0.4163,-0.2913,0.0198,-5.0E-4,-0.007,-0.0106,873,2019-08-07 16:45:35:520
-6.1845,-6.9212,0.7825,-0.4163,-0.2913,0.0198,-0.0016,-0.0102,-0.0085,877,2019-08-07 16:45:35:524
-6.1845,-6.9212,0.7825,-0.4163,-0.2913,0.0198,-0.0016,-0.0102,-0.0085,883,2019-08-07 16:45:35:530
-6.1702,-6.9546,0.8296,-0.4163,-0.2913,0.0198,-0.0069,-0.0219,0.0085,888,2019-08-07 16:45:35:535
-6.1702,-6.9546,0.8296,-0.4163,-0.2913,0.0198,-0.0069,-0.0219,0.0085,892,2019-08-07 16:45:35:539
-6.1702,-6.9546,0.8296,-0.3771,-0.2347,0.0499,-0.0069,-0.0219,0.0085,898,2019-08-07 16:45:35:545
-6.2133,-6.969,0.7306,-0.3771,-0.2347,0.0499,-0.0133,-0.0155,0.0181,902,2019-08-07 16:45:35:549
-6.2133,-6.969,0.7306,-0.3771,-0.2347,0.0499,-0.0133,-0.0155,0.0181,908,2019-08-07 16:45:35:555
-6.3186,-6.9403,0.7165,-0.3771,-0.2347,0.0499,-0.0133,-0.0059,0.0192,913,2019-08-07 16:45:35:560
-6.3186,-6.9403,0.7165,-0.3168,-0.2473,0.0632,-0.0133,-0.0059,0.0192,918,2019-08-07 16:45:35:565
-6.3186,-6.9403,0.7165,-0.3168,-0.2473,0.0632,-0.0175,0.0164,0.0171,923,2019-08-07 16:45:35:570
-6.3952,-6.9546,0.7353,-0.3168,-0.2473,0.0632,-0.0175,0.0164,0.0171,928,2019-08-07 16:45:35:575
-6.3952,-6.9546,0.7353,-0.3168,-0.2473,0.0632,-0.0175,0.0164,0.0171,933,2019-08-07 16:45:35:580
-6.3952,-6.9546,0.7353,-0.2381,-0.2741,0.1008,-0.0292,0.0228,0.0139,938,2019-08-07 16:45:35:585
-6.443,-6.9928,0.6269,-0.2381,-0.2741,0.1008,-0.0292,0.0228,0.0139,943,2019-08-07 16:45:35:590
-6.443,-6.9928,0.6269,-0.2381,-0.2741,0.1008,-0.0261,0.0495,-0.0074,949,2019-08-07 16:45:35:596
-6.5818,-7.0167,0.6646,-0.2381,-0.2741,0.1008,-0.0261,0.0495,-0.0074,952,2019-08-07 16:45:35:599
-6.5818,-7.0167,0.6646,0.0199,-0.2081,0.0949,-0.0154,0.0484,-0.0255,958,2019-08-07 16:45:35:605
-6.5818,-7.0167,0.6646,0.0199,-0.2081,0.0949,-0.0154,0.0484,-0.0255,963,2019-08-07 16:45:35:610
-6.6058,-7.0214,0.74,0.0199,-0.2081,0.0949,-0.0079,0.025,-0.0351,967,2019-08-07 16:45:35:614
-6.6058,-7.0214,0.74,0.0199,-0.2081,0.0949,-0.0079,0.025,-0.0351,973,2019-08-07 16:45:35:620
-6.4718,-7.0071,0.707,-0.091,-0.2122,0.0327,-0.0016,-0.0038,-0.0468,978,2019-08-07 16:45:35:625
-6.4718,-7.0071,0.707,-0.091,-0.2122,0.0327,-0.0016,-0.0038,-0.0468,984,2019-08-07 16:45:35:631
-6.4718,-7.0071,0.707,-0.091,-0.2122,0.0327,-5.0E-4,-0.0187,-0.0458,987,2019-08-07 16:45:35:634
-6.381,-6.9689,0.7353,-0.091,-0.2122,0.0327,-5.0E-4,-0.0187,-0.0458,993,2019-08-07 16:45:35:640
-6.381,-6.9689,0.7353,-0.3135,-0.2567,-0.0175,0.0048,-0.0304,-0.0383,998,2019-08-07 16:45:35:645
-6.2135,-7.0262,0.8154,-0.3135,-0.2567,-0.0175,0.0048,-0.0304,-0.0383,1003,2019-08-07 16:45:35:650
-6.2135,-7.0262,0.8154,-0.3135,-0.2567,-0.0175,0.0048,-0.0304,-0.0383,1008,2019-08-07 16:45:35:655
-6.2135,-7.0262,0.8154,-0.3135,-0.2567,-0.0175,0.0176,-0.0251,-0.0277,1013,2019-08-07 16:45:35:660
-6.1705,-6.9546,0.8013,-0.4174,-0.2712,-0.0117,0.0176,-0.0251,-0.0277,1018,2019-08-07 16:45:35:665
-6.1705,-6.9546,0.8013,-0.4174,-0.2712,-0.0117,0.0219,-0.023,-0.0053,1023,2019-08-07 16:45:35:670
-6.204,-6.9069,0.8201,-0.3825,-0.3199,-0.0272,0.0219,-0.023,-0.0053,1028,2019-08-07 16:45:35:675
-6.204,-6.9069,0.8201,-0.3825,-0.3199,-0.0272,0.0229,-0.0112,0.0043,1033,2019-08-07 16:45:35:680
-6.204,-6.9069,0.8201,-0.3825,-0.3199,-0.0272,0.0229,-0.0112,0.0043,1038,2019-08-07 16:45:35:685
-6.3141,-6.8925,0.8154,-0.3825,-0.3199,-0.0272,0.0229,-0.0112,0.0043,1043,2019-08-07 16:45:35:690
-6.3141,-6.8925,0.8154,-0.2397,-0.414,-0.0457,0.0208,-0.0081,0.0149,1048,2019-08-07 16:45:35:695
-6.3476,-6.8018,0.8107,-0.2397,-0.414,-0.0457,0.0166,-0.0091,0.0213,1053,2019-08-07 16:45:35:700
-6.3476,-6.8018,0.8107,-0.2397,-0.414,-0.0457,0.0166,-0.0091,0.0213,1057,2019-08-07 16:45:35:704
-6.3476,-6.8018,0.8107,-0.2397,-0.414,-0.0457,0.0166,-0.0091,0.0213,1063,2019-08-07 16:45:35:710
-6.3476,-6.8591,0.6834,-0.243,-0.3629,0.1176,0.0091,0.0026,0.0181,1068,2019-08-07 16:45:35:715
-6.3476,-6.8591,0.6834,-0.243,-0.3629,0.1176,-5.0E-4,0.025,0.0107,1073,2019-08-07 16:45:35:720
-6.3476,-6.8591,0.6834,-0.243,-0.3629,0.1176,-5.0E-4,0.025,0.0107,1078,2019-08-07 16:45:35:725
-6.4242,-6.8687,0.6693,-0.243,-0.3629,0.1176,-0.0047,0.0292,0.0032,1083,2019-08-07 16:45:35:730
-6.4242,-6.8687,0.6693,-0.1065,-0.3326,0.0477,-0.0047,0.0292,0.0032,1088,2019-08-07 16:45:35:735
-6.4482,-6.9259,0.7541,-0.1065,-0.3326,0.0477,-0.0047,0.0292,0.0032,1092,2019-08-07 16:45:35:739
-6.4482,-6.9259,0.7541,-0.1065,-0.3326,0.0477,0.0027,0.0154,-0.001,1098,2019-08-07 16:45:35:745
-6.4482,-6.9259,0.7541,-0.1065,-0.3326,0.0477,0.0027,0.0154,-0.001,1103,2019-08-07 16:45:35:750
-6.3621,-6.945,0.7682,-0.2169,-0.2561,0.0552,6.0E-4,0.0047,-0.0053,1108,2019-08-07 16:45:35:755
-6.3621,-6.945,0.7682,-0.2169,-0.2561,0.0552,6.0E-4,0.0047,-0.0053,1113,2019-08-07 16:45:35:760
-6.3191,-6.945,0.7305,-0.2169,-0.2561,0.0552,-0.0058,-0.0081,-0.0042,1118,2019-08-07 16:45:35:765
-6.3191,-6.945,0.7305,-0.2169,-0.2561,0.0552,-0.0058,-0.0081,-0.0042,1123,2019-08-07 16:45:35:770
-6.3191,-6.945,0.7305,-0.2738,-0.2565,0.0273,-0.0069,-0.0144,0.0022,1127,2019-08-07 16:45:35:774
-6.3382,-7.0119,0.7635,-0.2738,-0.2565,0.0273,-0.0069,-0.0144,0.0022,1133,2019-08-07 16:45:35:780
-6.3382,-7.0119,0.7635,-0.2738,-0.2565,0.0273,-0.0026,-0.0272,0.0075,1138,2019-08-07 16:45:35:785
-6.3382,-7.0119,0.7635,-0.2738,-0.2565,0.0273,-0.0026,-0.0272,0.0075,1143,2019-08-07 16:45:35:790
-6.3622,-6.9832,0.7494,-0.2738,-0.2565,0.0273,-0.0026,-0.0315,0.0085,1148,2019-08-07 16:45:35:795
-6.3622,-6.9832,0.7494,-0.2452,-0.2083,0.0867,-0.0026,-0.0315,0.0085,1152,2019-08-07 16:45:35:799
-6.3431,-6.9928,0.7352,-0.2452,-0.2083,0.0867,0.0038,-0.0091,-0.0021,1158,2019-08-07 16:45:35:805
-6.3431,-6.9928,0.7352,-0.2452,-0.2083,0.0867,0.0038,-0.0091,-0.0021,1162,2019-08-07 16:45:35:809
-6.3431,-6.9928,0.7352,-0.1919,-0.2135,0.1213,0.007,0.0058,-0.0128,1168,2019-08-07 16:45:35:815
-6.3862,-6.988,0.6551,-0.1919,-0.2135,0.1213,0.007,0.0058,-0.0128,1173,2019-08-07 16:45:35:820
-6.3862,-6.988,0.6551,-0.1919,-0.2135,0.1213,0.007,0.0058,-0.0128,1178,2019-08-07 16:45:35:825
-6.3862,-6.988,0.6551,-0.1919,-0.2135,0.1213,0.0048,0.0271,-0.0255,1182,2019-08-07 16:45:35:829
-6.4388,-6.988,0.6928,-0.089,-0.2446,0.0952,0.0048,0.0271,-0.0255,1188,2019-08-07 16:45:35:835
-6.4388,-6.988,0.6928,-0.089,-0.2446,0.0952,-5.0E-4,0.0207,-0.0309,1193,2019-08-07 16:45:35:840
-6.5154,-6.9641,0.7446,-0.089,-0.2446,0.0952,-5.0E-4,0.0207,-0.0309,1197,2019-08-07 16:45:35:844
-6.5154,-6.9641,0.7446,-0.089,-0.2446,0.0952,0.0016,0.0079,-0.0383,1203,2019-08-07 16:45:35:850
-6.3767,-6.9927,0.7163,-0.2085,-0.2349,0.0793,0.0016,0.0079,-0.0383,1208,2019-08-07 16:45:35:855
-6.3767,-6.9927,0.7163,-0.2085,-0.2349,0.0793,0.0038,-0.0123,-0.0415,1213,2019-08-07 16:45:35:860
-6.3767,-6.9927,0.7163,-0.2085,-0.2349,0.0793,0.0038,-0.0123,-0.0415,1218,2019-08-07 16:45:35:865
-6.3049,-6.9546,0.7682,-0.2085,-0.2349,0.0793,0.008,-0.0262,-0.0373,1223,2019-08-07 16:45:35:870
-6.3049,-6.9546,0.7682,-0.2085,-0.2349,0.0793,0.008,-0.0262,-0.0373,1228,2019-08-07 16:45:35:875
-6.2667,-7.0882,0.754,-0.3026,-0.2212,0.0122,0.007,-0.0304,-0.0234,1234,2019-08-07 16:45:35:881
-6.2667,-7.0882,0.754,-0.3026,-0.2212,0.0122,0.007,-0.0304,-0.0234,1238,2019-08-07 16:45:35:885
-6.2667,-7.0882,0.754,-0.3026,-0.2212,0.0122,0.007,-0.0304,-0.0234,1243,2019-08-07 16:45:35:890
-6.2332,-7.0596,0.82,-0.3744,-0.2057,0.0458,0.008,-0.0315,-0.0213,1248,2019-08-07 16:45:35:895
-6.2332,-7.0596,0.82,-0.3744,-0.2057,0.0458,0.008,-0.0315,-0.0213,1253,2019-08-07 16:45:35:900
-6.1854,-6.9784,0.82,-0.3744,-0.2057,0.0458,0.0134,-0.0262,-0.0117,1258,2019-08-07 16:45:35:905
-6.1854,-6.9784,0.82,-0.3348,-0.2305,0.0203,0.0134,-0.0262,-0.0117,1262,2019-08-07 16:45:35:909
-6.1854,-6.9784,0.82,-0.3348,-0.2305,0.0203,0.0166,-0.023,-0.0032,1268,2019-08-07 16:45:35:915
-6.2429,-6.9641,0.8294,-0.3348,-0.2305,0.0203,0.0166,-0.023,-0.0032,1273,2019-08-07 16:45:35:920
-6.2429,-6.9641,0.8294,-0.3348,-0.2305,0.0203,0.0155,-0.0155,0.0,1277,2019-08-07 16:45:35:924
-6.2381,-6.9545,0.7352,-0.3813,-0.2884,0.0632,0.0155,-0.0155,0.0,1284,2019-08-07 16:45:35:931
-6.2381,-6.9545,0.7352,-0.3813,-0.2884,0.0632,0.0123,-0.0017,-0.001,1288,2019-08-07 16:45:35:935
-6.2381,-6.9545,0.7352,-0.3813,-0.2884,0.0632,0.0123,-0.0017,-0.001,1293,2019-08-07 16:45:35:940
-6.2429,-6.9211,0.7446,-0.3813,-0.2884,0.0632,0.0102,0.0186,-0.0085,1298,2019-08-07 16:45:35:945
-6.2429,-6.9211,0.7446,-0.3037,-0.2605,0.0734,0.0102,0.0186,-0.0085,1303,2019-08-07 16:45:35:950
-6.2717,-6.9593,0.7399,-0.3037,-0.2605,0.0734,0.0112,0.0186,-0.0042,1307,2019-08-07 16:45:35:954
-6.2717,-6.9593,0.7399,-0.2555,-0.28,0.0114,0.0112,0.0186,-0.0042,1313,2019-08-07 16:45:35:960
-6.2717,-6.9593,0.7399,-0.2555,-0.28,0.0114,0.0166,0.0154,-0.0021,1318,2019-08-07 16:45:35:965
-6.2813,-6.9689,0.787,-0.2555,-0.28,0.0114,0.0166,0.0154,-0.0021,1322,2019-08-07 16:45:35:969
-6.2813,-6.9689,0.787,-0.2555,-0.28,0.0114,0.0144,-6.0E-4,0.0085,1328,2019-08-07 16:45:35:975
-6.2239,-6.9354,0.8341,-0.3415,-0.3038,0.0266,0.0144,-6.0E-4,0.0085,1333,2019-08-07 16:45:35:980
-6.2239,-6.9354,0.8341,-0.3415,-0.3038,0.0266,0.0112,-0.0187,0.0203,1338,2019-08-07 16:45:35:985
-6.2239,-6.9354,0.8341,-0.3415,-0.3038,0.0266,0.0112,-0.0187,0.0203,1343,2019-08-07 16:45:35:990
-6.1234,-6.9163,0.7587,-0.3415,-0.3038,0.0266,0.0144,-0.0208,0.0352,1349,2019-08-07 16:45:35:996
-6.1234,-6.9163,0.7587,-0.5159,-0.33,0.045,0.0144,-0.0208,0.0352,1352,2019-08-07 16:45:35:999
-5.9991,-6.9784,0.7068,-0.5159,-0.33,0.045,0.0144,-0.0208,0.0352,1358,2019-08-07 16:45:36:005
-5.9991,-6.9784,0.7068,-0.5159,-0.33,0.045,0.0166,-0.0112,0.0565,1363,2019-08-07 16:45:36:010
-5.9991,-6.9784,0.7068,-0.5159,-0.33,0.045,0.0166,-0.0112,0.0565,1367,2019-08-07 16:45:36:014
-5.9656,-6.84,0.6974,-0.6131,-0.3907,0.1239,0.0219,0.0186,0.0725,1373,2019-08-07 16:45:36:020
-5.9656,-6.84,0.6974,-0.6131,-0.3907,0.1239,0.0219,0.0186,0.0725,1378,2019-08-07 16:45:36:025
-5.9896,-6.7922,0.688,-0.6131,-0.3907,0.1239,0.0293,0.0473,0.0831,1383,2019-08-07 16:45:36:030
-5.9896,-6.7922,0.688,-0.6131,-0.3907,0.1239,0.0293,0.0473,0.0831,1388,2019-08-07 16:45:36:035
-5.9896,-6.7922,0.688,-0.5286,-0.4666,0.1508,0.0293,0.0473,0.0831,1393,2019-08-07 16:45:36:040
-6.1427,-6.6776,0.7822,-0.5286,-0.4666,0.1508,0.0325,0.0697,0.0948,1398,2019-08-07 16:45:36:045
-6.1427,-6.6776,0.7822,-0.5286,-0.4666,0.1508,0.0325,0.0697,0.0948,1403,2019-08-07 16:45:36:050
-6.2001,-6.6394,0.721,-0.5286,-0.4666,0.1508,0.0272,0.0708,0.1129,1408,2019-08-07 16:45:36:055
-6.2001,-6.6394,0.721,-0.4493,-0.5667,0.0699,0.0272,0.0708,0.1129,1413,2019-08-07 16:45:36:060
-6.2001,-6.6394,0.721,-0.4493,-0.5667,0.0699,0.0272,0.0708,0.1129,1417,2019-08-07 16:45:36:064
-6.1236,-6.5535,0.6361,-0.4493,-0.5667,0.0699,0.0134,0.0505,0.1332,1423,2019-08-07 16:45:36:070
-6.1236,-6.5535,0.6361,-0.4493,-0.5667,0.0699,0.0134,0.0505,0.1332,1428,2019-08-07 16:45:36:075
-5.8701,-6.5201,0.5512,-0.7577,-0.6671,0.2572,0.0091,0.0452,0.1747,1433,2019-08-07 16:45:36:080
-5.8701,-6.5201,0.5512,-0.7577,-0.6671,0.2572,0.0091,0.0452,0.1747,1438,2019-08-07 16:45:36:085
-5.8701,-6.5201,0.5512,-0.7577,-0.6671,0.2572,0.0091,0.0452,0.1747,1443,2019-08-07 16:45:36:090
-5.3678,-6.1907,0.3203,-0.7577,-0.6671,0.2572,0.0176,0.0793,0.2269,1448,2019-08-07 16:45:36:095
-5.3678,-6.1907,0.3203,-1.436,-1.2206,0.4536,0.0176,0.0793,0.2269,1453,2019-08-07 16:45:36:100
-5.3678,-6.1907,0.3203,-1.436,-1.2206,0.4536,0.0602,0.1752,0.3409,1457,2019-08-07 16:45:36:104
-4.9372,-5.6608,0.2967,-1.436,-1.2206,0.4536,0.0602,0.1752,0.3409,1463,2019-08-07 16:45:36:110
-4.9372,-5.6608,0.2967,-1.436,-1.2206,0.4536,0.1092,0.2753,0.4837,1468,2019-08-07 16:45:36:115
-4.4014,-5.255,0.5324,-2.3232,-1.8453,0.243,0.1092,0.2753,0.4837,1473,2019-08-07 16:45:36:120
-4.4014,-5.255,0.5324,-2.3232,-1.8453,0.243,0.1444,0.3509,0.6626,1478,2019-08-07 16:45:36:125
-4.4014,-5.255,0.5324,-2.3232,-1.8453,0.243,0.1444,0.3509,0.6626,1484,2019-08-07 16:45:36:131
-3.8082,-4.9877,0.8906,-2.3232,-1.8453,0.243,0.1859,0.3595,0.8757,1488,2019-08-07 16:45:36:135
-3.8082,-4.9877,0.8906,-2.3232,-1.8453,0.243,0.1859,0.3595,0.8757,1493,2019-08-07 16:45:36:140
-3.8082,-4.9877,0.8906,-3.5462,-2.1254,-0.3192,0.2232,0.3307,1.0621,1498,2019-08-07 16:45:36:145
-3.0284,-4.6296,1.131,-3.5462,-2.1254,-0.3192,0.2232,0.3307,1.0621,1503,2019-08-07 16:45:36:150
-3.0284,-4.6296,1.131,-3.5462,-2.1254,-0.3192,0.2829,0.1603,1.5233,1507,2019-08-07 16:45:36:154
-2.2247,-3.9422,0.9,-4.9698,-3.0798,-0.0088,0.2829,0.1603,1.5233,1513,2019-08-07 16:45:36:160
-2.2247,-3.9422,0.9,-4.9698,-3.0798,-0.0088,0.3202,0.0505,1.9409,1518,2019-08-07 16:45:36:165
-2.2247,-3.9422,0.9,-4.9698,-3.0798,-0.0088,0.3202,0.0505,1.9409,1523,2019-08-07 16:45:36:170
-0.7033,-2.5053,0.4475,-4.9698,-3.0798,-0.0088,0.3202,0.0505,1.9409,1528,2019-08-07 16:45:36:175
-0.7033,-2.5053,0.4475,-7.4989,-4.8276,0.4755,0.3713,-0.0326,2.4512,1534,2019-08-07 16:45:36:181
0.7319,-1.1591,0.3438,-7.4989,-4.8276,0.4755,0.3713,-0.0326,2.4512,1537,2019-08-07 16:45:36:184
0.7319,-1.1591,0.3438,-7.4989,-4.8276,0.4755,0.4917,-0.0507,3.1798,1543,2019-08-07 16:45:36:190
0.7319,-1.1591,0.3438,-8.4891,-5.695,0.3643,0.4917,-0.0507,3.1798,1548,2019-08-07 16:45:36:195
1.4639,0.1012,0.9283,-8.4891,-5.695,0.3643,0.5822,-0.0432,3.8755,1553,2019-08-07 16:45:36:200
1.4639,0.1012,0.9283,-8.4891,-5.695,0.3643,0.5822,-0.0432,3.8755,1558,2019-08-07 16:45:36:205
2.2628,1.099,1.4421,-8.4891,-5.695,0.3643,0.6046,-0.105,4.6552,1563,2019-08-07 16:45:36:210
2.2628,1.099,1.4421,-10.1686,-6.8223,-0.4533,0.6046,-0.105,4.6552,1568,2019-08-07 16:45:36:215
2.2628,1.099,1.4421,-10.1686,-6.8223,-0.4533,0.5673,-0.2371,5.4243,1573,2019-08-07 16:45:36:220
3.0426,1.9057,2.8044,-10.1686,-6.8223,-0.4533,0.5673,-0.2371,5.4243,1578,2019-08-07 16:45:36:225
3.0426,1.9057,2.8044,-11.7643,-6.9922,-1.6868,0.4714,-0.6664,6.2222,1583,2019-08-07 16:45:36:230
3.0426,1.9057,2.8044,-11.7643,-6.9922,-1.6868,0.4714,-0.6664,6.2222,1589,2019-08-07 16:45:36:236
3.4445,2.259,1.7673,-11.7643,-6.9922,-1.6868,0.3084,-1.2288,7.1298,1593,2019-08-07 16:45:36:240
3.4445,2.259,1.7673,-11.7643,-6.9922,-1.6868,0.3084,-1.2288,7.1298,1598,2019-08-07 16:45:36:245
3.4445,2.259,1.7673,-11.7643,-6.9922,-1.6868,0.3084,-1.2288,7.1298,1603,2019-08-07 16:45:36:250
3.3296,2.1158,0.339,-12.3879,-5.5924,1.1094,0.1465,-1.9916,8.3826,1608,2019-08-07 16:45:36:255
3.3296,2.1158,0.339,-12.3879,-5.5924,1.1094,0.1465,-1.9916,8.3826,1613,2019-08-07 16:45:36:260
2.5115,1.2804,-0.4623,-12.3879,-5.5924,1.1094,0.2147,-2.6851,9.4446,1619,2019-08-07 16:45:36:266
2.5115,1.2804,-0.4623,-12.3879,-5.5924,1.1094,0.2147,-2.6851,9.4446,1623,2019-08-07 16:45:36:270
2.5115,1.2804,-0.4623,-11.8094,-1.9191,1.9627,0.7143,-3.6193,10.5547,1628,2019-08-07 16:45:36:275
1.966,-0.2663,0.0279,-11.8094,-1.9191,1.9627,0.7143,-3.6193,10.5547,1633,2019-08-07 16:45:36:280
1.966,-0.2663,0.0279,-11.2456,-0.1203,1.8397,0.7143,-3.6193,10.5547,1638,2019-08-07 16:45:36:285
1.966,-0.2663,0.0279,-11.2456,-0.1203,1.8397,1.6752,-4.3341,11.1523,1643,2019-08-07 16:45:36:290
0.9278,-0.0515,0.7303,-11.2456,-0.1203,1.8397,1.6752,-4.3341,11.1523,1648,2019-08-07 16:45:36:295
0.9278,-0.0515,0.7303,-11.2456,-0.1203,1.8397,2.5636,-4.6611,11.4101,1653,2019-08-07 16:45:36:300
0.2293,3.715,-1.8435,-9.2885,-1.3709,4.9133,2.5636,-4.6611,11.4101,1657,2019-08-07 16:45:36:304
0.2293,3.715,-1.8435,-9.2885,-1.3709,4.9133,3.5309,-4.0614,11.4452,1663,2019-08-07 16:45:36:310
0.2293,3.715,-1.8435,-9.2885,-1.3709,4.9133,3.5309,-4.0614,11.4452,1668,2019-08-07 16:45:36:315
-1.4069,9.076,1.9983,-9.2885,-1.3709,4.9133,4.7261,-3.3455,11.1491,1673,2019-08-07 16:45:36:320
-1.4069,9.076,1.9983,-4.8222,-6.8718,1.1239,4.7261,-3.3455,11.1491,1678,2019-08-07 16:45:36:325
-7.7126,13.3725,2.2905,-4.8222,-6.8718,1.1239,5.5123,-3.3327,10.8689,1683,2019-08-07 16:45:36:330
-7.7126,13.3725,2.2905,-4.8222,-6.8718,1.1239,5.5123,-3.3327,10.8689,1688,2019-08-07 16:45:36:335
-7.7126,13.3725,2.2905,-4.8222,-6.8718,1.1239,5.5123,-3.3327,10.8689,1693,2019-08-07 16:45:36:340
-16.3386,19.2443,4.9161,9.477,-13.1844,-1.39,6.145,-3.4371,10.675,1698,2019-08-07 16:45:36:345
-16.3386,19.2443,4.9161,9.477,-13.1844,-1.39,6.145,-3.4371,10.675,1703,2019-08-07 16:45:36:350
-19.7211,26.2093,5.5855,9.477,-13.1844,-1.39,6.8023,-4.7676,10.5451,1708,2019-08-07 16:45:36:355
-19.7211,26.2093,5.5855,9.477,-13.1844,-1.39,6.8023,-4.7676,10.5451,1713,2019-08-07 16:45:36:360
-19.7211,26.2093,5.5855,13.6622,-22.1031,-2.2116,7.2433,-6.7863,10.3182,1717,2019-08-07 16:45:36:364
-17.463,32.4487,6.0238,13.6622,-22.1031,-2.2116,7.2433,-6.7863,10.3182,1723,2019-08-07 16:45:36:370
-17.463,32.4487,6.0238,12.2258,-26.3255,-4.2267,7.3882,-9.6881,10.0881,1728,2019-08-07 16:45:36:375
-17.463,32.4487,6.0238,12.2258,-26.3255,-4.2267,7.3882,-9.6881,10.0881,1732,2019-08-07 16:45:36:379
-13.0567,36.8024,0.141,12.2258,-26.3255,-4.2267,6.2388,-9.1736,9.0888,1738,2019-08-07 16:45:36:385
-13.0567,36.8024,0.141,12.2258,-26.3255,-4.2267,6.2388,-9.1736,9.0888,1743,2019-08-07 16:45:36:390
1.1046,34.8595,-12.9163,-2.8587,-25.4598,15.1087,6.2388,-9.1736,9.0888,1748,2019-08-07 16:45:36:395
1.1046,34.8595,-12.9163,-2.8587,-25.4598,15.1087,4.1423,-4.7655,7.5932,1752,2019-08-07 16:45:36:399
1.1046,34.8595,-12.9163,-2.8587,-25.4598,15.1087,4.1423,-4.7655,7.5932,1758,2019-08-07 16:45:36:405
6.8457,25.4694,-12.2563,-2.8587,-25.4598,15.1087,1.2118,-2.6723,5.7386,1763,2019-08-07 16:45:36:410
6.8457,25.4694,-12.2563,-8.4224,-10.8448,12.1651,1.2118,-2.6723,5.7386,1768,2019-08-07 16:45:36:415
8.8167,14.8858,-1.5041,-8.4224,-10.8448,12.1651,-1.7464,1.2511,2.8837,1773,2019-08-07 16:45:36:420
8.8167,14.8858,-1.5041,-8.4224,-10.8448,12.1651,-1.7464,1.2511,2.8837,1778,2019-08-07 16:45:36:425
8.8167,14.8858,-1.5041,-8.4224,-10.8448,12.1651,-2.2216,4.8506,0.3654,1783,2019-08-07 16:45:36:430
6.9652,8.9233,29.4232,-7.0146,0.6492,-27.278,-2.2216,4.8506,0.3654,1788,2019-08-07 16:45:36:435
6.9652,8.9233,29.4232,-7.0146,0.6492,-27.278,-2.2216,4.8506,0.3654,1793,2019-08-07 16:45:36:440
6.9652,8.9233,29.4232,-7.0146,0.6492,-27.278,2.1194,5.9883,-2.4,1798,2019-08-07 16:45:36:445
-5.6748,9.816,15.0979,-7.0146,0.6492,-27.278,2.1194,5.9883,-2.4,1803,2019-08-07 16:45:36:450
-5.6748,9.816,15.0979,10.9653,-6.2027,-3.0867,2.1194,5.9883,-2.4,1808,2019-08-07 16:45:36:455
-5.6748,9.816,15.0979,10.9653,-6.2027,-3.0867,1.362,5.5825,-3.9798,1813,2019-08-07 16:45:36:460
-16.1475,22.4141,6.4103,10.9653,-6.2027,-3.0867,1.362,5.5825,-3.9798,1818,2019-08-07 16:45:36:465
-16.1475,22.4141,6.4103,10.9653,-6.2027,-3.0867,-0.9443,3.4317,-3.9798,1823,2019-08-07 16:45:36:470
-16.1475,22.4141,6.4103,14.874,-12.8626,-2.871,-0.9443,3.4317,-3.9798,1828,2019-08-07 16:45:36:475
-15.9418,21.3448,4.5107,14.874,-12.8626,-2.871,-2.9118,1.9361,-3.624,1833,2019-08-07 16:45:36:480
-15.9418,21.3448,4.5107,14.874,-12.8626,-2.871,-2.9118,1.9361,-3.624,1838,2019-08-07 16:45:36:485
-15.9418,21.3448,4.5107,14.874,-12.8626,-2.871,-2.9118,1.9361,-3.624,1843,2019-08-07 16:45:36:490
-9.0143,14.4371,9.7665,4.9007,-3.6026,-11.6199,-4.1976,1.2767,-3.6219,1848,2019-08-07 16:45:36:495
-9.0143,14.4371,9.7665,4.9007,-3.6026,-11.6199,-4.1976,1.2767,-3.6219,1853,2019-08-07 16:45:36:500
-6.6366,11.4964,18.4164,4.9007,-3.6026,-11.6199,-2.6999,1.7337,-4.3484,1858,2019-08-07 16:45:36:505
-6.6366,11.4964,18.4164,4.9007,-3.6026,-11.6199,-2.6999,1.7337,-4.3484,1862,2019-08-07 16:45:36:509
-6.6366,11.4964,18.4164,5.8033,-2.5272,-4.2212,-1.8775,1.5579,-4.7393,1868,2019-08-07 16:45:36:515
-9.4019,12.0263,5.147,5.8033,-2.5272,-4.2212,-1.8775,1.5579,-4.7393,1873,2019-08-07 16:45:36:520
-9.4019,12.0263,5.147,5.8033,-2.5272,-4.2212,-2.3089,2.0351,-5.1772,1878,2019-08-07 16:45:36:525
-8.7369,15.1293,2.4554,5.8033,-2.5272,-4.2212,-2.3089,2.0351,-5.1772,1884,2019-08-07 16:45:36:531
-8.7369,15.1293,2.4554,4.3033,-7.0328,1.6993,-3.0067,2.3494,-5.7503,1888,2019-08-07 16:45:36:535
-8.7369,15.1293,2.4554,4.3033,-7.0328,1.6993,-3.0067,2.3494,-5.7503,1893,2019-08-07 16:45:36:540
-9.3015,14.5421,1.2345,4.3033,-7.0328,1.6993,-3.4967,2.9651,-6.1679,1898,2019-08-07 16:45:36:545
-9.3015,14.5421,1.2345,4.4493,-6.2469,1.4993,-3.4967,2.9651,-6.1679,1903,2019-08-07 16:45:36:550
-9.3015,14.5421,1.2345,4.4493,-6.2469,1.4993,-3.894,3.7438,-6.6153,1908,2019-08-07 16:45:36:555
-10.0622,10.8758,3.9544,4.4493,-6.2469,1.4993,-3.894,3.7438,-6.6153,1912,2019-08-07 16:45:36:559
-10.0622,10.8758,3.9544,4.2112,-2.008,-1.5207,-3.7033,4.3148,-6.9029,1919,2019-08-07 16:45:36:566
-10.5789,7.6249,5.4769,4.2112,-2.008,-1.5207,-3.7033,4.3148,-6.9029,1923,2019-08-07 16:45:36:570
-10.5789,7.6249,5.4769,4.2112,-2.008,-1.5207,-3.7033,4.3148,-6.9029,1928,2019-08-07 16:45:36:575
-10.5789,7.6249,5.4769,4.2112,-2.008,-1.5207,-3.1387,4.6994,-7.1522,1933,2019-08-07 16:45:36:580
-11.8372,5.3477,4.0486,4.2112,-2.008,-1.5207,-3.1387,4.6994,-7.1522,1938,2019-08-07 16:45:36:585
-11.8372,5.3477,4.0486,4.6252,0.6565,-0.5249,-2.539,4.8868,-7.378,1943,2019-08-07 16:45:36:590
-11.8372,5.3477,4.0486,4.6252,0.6565,-0.5249,-2.539,4.8868,-7.378,1948,2019-08-07 16:45:36:595
-12.3444,4.3691,2.7288,4.3723,0.6128,0.0754,-2.3302,4.7878,-7.5346,1953,2019-08-07 16:45:36:600
-12.3444,4.3691,2.7288,4.3723,0.6128,0.0754,-2.3302,4.7878,-7.5346,1958,2019-08-07 16:45:36:605
-12.3444,4.3691,2.7288,4.3723,0.6128,0.0754,-2.2695,4.53,-7.6784,1963,2019-08-07 16:45:36:610
-12.7893,3.5289,2.4035,4.3723,0.6128,0.0754,-2.2695,4.53,-7.6784,1968,2019-08-07 16:45:36:615
-12.7893,3.5289,2.4035,3.9625,0.4635,-0.1764,-2.2407,4.008,-7.7732,1973,2019-08-07 16:45:36:620
-12.7893,3.5289,2.4035,3.9625,0.4635,-0.1764,-2.2407,4.008,-7.7732,1978,2019-08-07 16:45:36:625
-12.4258,2.6028,3.0399,2.9593,0.3396,-1.1778,-2.1736,3.6234,-7.721,1983,2019-08-07 16:45:36:630
-12.4258,2.6028,3.0399,2.9593,0.3396,-1.1778,-2.1736,3.6234,-7.721,1987,2019-08-07 16:45:36:634
-10.1533,1.734,3.7516,2.9593,0.3396,-1.1778,-1.8061,3.0599,-7.5708,1993,2019-08-07 16:45:36:640
-10.1533,1.734,3.7516,2.9593,0.3396,-1.1778,-1.8061,3.0599,-7.5708,1998,2019-08-07 16:45:36:645
-10.1533,1.734,3.7516,-0.7665,-0.0993,-2.1179,-1.25,2.7595,-7.509,2003,2019-08-07 16:45:36:650
-8.1679,1.1229,3.0069,-0.7665,-0.0993,-2.1179,-1.25,2.7595,-7.509,2008,2019-08-07 16:45:36:655
-8.1679,1.1229,3.0069,-0.7665,-0.0993,-2.1179,-0.8122,2.4719,-7.4803,2013,2019-08-07 16:45:36:660
-7.101,0.9368,0.8621,-0.7665,-0.0993,-2.1179,-0.8122,2.4719,-7.4803,2018,2019-08-07 16:45:36:665
-7.101,0.9368,0.8621,-2.8498,-1.1627,0.3361,-0.5853,2.2876,-7.41,2023,2019-08-07 16:45:36:670
-7.101,0.9368,0.8621,-2.8498,-1.1627,0.3361,-0.5853,2.2876,-7.41,2028,2019-08-07 16:45:36:675
-6.3738,0.8556,0.6028,-2.8498,-1.1627,0.3361,-0.5853,2.2876,-7.3098,2033,2019-08-07 16:45:36:680
-6.3738,0.8556,0.6028,-2.8498,-1.1627,0.3361,-0.3488,2.2375,-7.3098,2038,2019-08-07 16:45:36:685
-6.3738,0.8556,0.6028,-3.486,-2.3096,-0.4953,-0.3488,2.2375,-7.3098,2043,2019-08-07 16:45:36:690
-6.2782,0.5835,0.8951,-3.486,-2.3096,-0.4953,0.0464,2.1843,-7.1639,2047,2019-08-07 16:45:36:694
-6.2782,0.5835,0.8951,-3.486,-2.3096,-0.4953,0.0464,2.1843,-7.1639,2054,2019-08-07 16:45:36:701
-7.3164,0.2732,0.5604,-3.486,-2.3096,-0.4953,0.4981,1.9712,-6.8464,2057,2019-08-07 16:45:36:704
-7.3164,0.2732,0.5604,-1.868,-3.2559,-0.5615,0.4981,1.9712,-6.8464,2063,2019-08-07 16:45:36:710
-7.3164,0.2732,0.5604,-1.868,-3.2559,-0.5615,0.7101,1.5909,-6.5098,2068,2019-08-07 16:45:36:715
-7.6322,0.4594,0.7253,-1.868,-3.2559,-0.5615,0.7101,1.5909,-6.5098,2073,2019-08-07 16:45:36:720
-7.6322,0.4594,0.7253,-1.868,-3.2559,-0.5615,0.7101,1.5909,-6.5098,2077,2019-08-07 16:45:36:724
-7.6322,0.4594,0.7253,-2.0512,-4.9423,-1.3938,0.8688,1.1307,-6.1924,2083,2019-08-07 16:45:36:730
-6.4983,0.8556,1.2014,-2.0512,-4.9423,-1.3938,0.8688,1.1307,-6.1924,2088,2019-08-07 16:45:36:735
-6.4983,0.8556,1.2014,-2.0512,-4.9423,-1.3938,1.0179,0.2774,-5.6928,2093,2019-08-07 16:45:36:740
-4.8765,1.1898,-0.4013,-2.0512,-4.9423,-1.3938,1.0179,0.2774,-5.6928,2097,2019-08-07 16:45:36:744
-4.8765,1.1898,-0.4013,-4.4099,-6.2662,0.7955,1.0669,0.1262,-5.2986,2103,2019-08-07 16:45:36:750
-4.8765,1.1898,-0.4013,-4.4099,-6.2662,0.7955,1.0669,0.1262,-5.2986,2108,2019-08-07 16:45:36:755
-2.9054,0.8461,-1.1932,-5.463,-6.229,1.2408,1.0978,0.1262,-4.995,2112,2019-08-07 16:45:36:759
-2.9054,0.8461,-1.1932,-5.463,-6.229,1.2408,1.0978,0.1262,-4.995,2118,2019-08-07 16:45:36:765
-2.9054,0.8461,-1.1932,-5.463,-6.229,1.2408,1.1202,0.2082,-4.4741,2123,2019-08-07 16:45:36:770
-2.1783,-0.0466,-1.0565,-5.463,-6.229,1.2408,1.1202,0.2082,-4.4741,2128,2019-08-07 16:45:36:775
-2.1783,-0.0466,-1.0565,-4.6918,-5.6928,0.6094,1.1362,0.2061,-4.0,2133,2019-08-07 16:45:36:780
-3.3983,-0.7388,0.2681,-4.6918,-5.6928,0.6094,1.1362,0.2061,-4.0,2138,2019-08-07 16:45:36:785
-3.3983,-0.7388,0.2681,-4.6918,-5.6928,0.6094,1.1362,0.2061,-4.0,2143,2019-08-07 16:45:36:790
-3.3983,-0.7388,0.2681,-4.6918,-5.6928,0.6094,1.1319,0.0239,-3.4951,2148,2019-08-07 16:45:36:795
-5.0776,-0.8964,1.4795,-1.7865,-5.7881,-1.3524,1.1319,0.0239,-3.4951,2153,2019-08-07 16:45:36:800
-5.0776,-0.8964,1.4795,-1.7865,-5.7881,-1.3524,1.0232,-0.6366,-2.8986,2157,2019-08-07 16:45:36:804
-5.8479,-0.882,1.6775,-1.7865,-5.7881,-1.3524,1.0232,-0.6366,-2.8986,2163,2019-08-07 16:45:36:810
-5.8479,-0.882,1.6775,-1.7865,-5.7881,-1.3524,0.7963,-1.3407,-2.4799,2168,2019-08-07 16:45:36:815
-5.8479,-0.882,1.6775,-2.1855,-5.4867,-0.3021,0.7963,-1.3407,-2.4799,2172,2019-08-07 16:45:36:819
-4.049,-1.6124,0.4896,-2.1855,-5.4867,-0.3021,0.4224,-2.1162,-2.04,2178,2019-08-07 16:45:36:825
-4.049,-1.6124,0.4896,-2.1855,-5.4867,-0.3021,0.4224,-2.1162,-2.04,2183,2019-08-07 16:45:36:830
-1.1163,-2.2521,-0.6559,-2.1855,-5.4867,-0.3021,0.4224,-2.1162,-2.04,2188,2019-08-07 16:45:36:835
-1.1163,-2.2521,-0.6559,-2.1855,-5.4867,-0.3021,0.1923,-2.0672,-1.6511,2193,2019-08-07 16:45:36:840
0.6778,-3.2594,-1.3912,-6.3694,-4.6466,1.7692,0.1923,-2.0672,-1.6511,2198,2019-08-07 16:45:36:845
0.6778,-3.2594,-1.3912,-6.3694,-4.6466,1.7692,0.1636,-1.5207,-1.339,2203,2019-08-07 16:45:36:850
0.6778,-3.2594,-1.3912,-6.3694,-4.6466,1.7692,0.1636,-1.5207,-1.339,2208,2019-08-07 16:45:36:855
1.5867,-4.3669,-2.1784,-7.7704,-3.0437,3.1228,0.1849,-0.6962,-1.0248,2213,2019-08-07 16:45:36:860
1.5867,-4.3669,-2.1784,-7.7704,-3.0437,3.1228,0.1849,-0.6962,-1.0248,2217,2019-08-07 16:45:36:864
0.4863,-4.9398,-1.7259,-7.7704,-3.0437,3.1228,0.2445,0.2423,-0.7371,2223,2019-08-07 16:45:36:870
0.4863,-4.9398,-1.7259,-7.7704,-3.0437,3.1228,0.2445,0.2423,-0.7371,2228,2019-08-07 16:45:36:875
0.4863,-4.9398,-1.7259,-4.5079,-2.7302,1.8407,0.3255,0.9858,-0.4953,2233,2019-08-07 16:45:36:880
-2.212,-4.8538,-0.6842,-4.5079,-2.7302,1.8407,0.3255,0.9858,-0.4953,2238,2019-08-07 16:45:36:885
-2.212,-4.8538,-0.6842,-4.5079,-2.7302,1.8407,0.3255,0.9858,-0.4953,2242,2019-08-07 16:45:36:889
-4.3362,-4.7297,0.4047,-4.5079,-2.7302,1.8407,0.3788,1.348,-0.2343,2248,2019-08-07 16:45:36:895
-4.3362,-4.7297,0.4047,-0.4345,-2.9463,-0.226,0.3788,1.348,-0.2343,2253,2019-08-07 16:45:36:900
-4.3362,-4.7297,0.4047,-0.4345,-2.9463,-0.226,0.3116,1.1467,0.016,2258,2019-08-07 16:45:36:905
-6.7428,-4.8729,1.5926,-0.4345,-2.9463,-0.226,0.3116,1.1467,0.016,2263,2019-08-07 16:45:36:910
-6.7428,-4.8729,1.5926,1.0527,-2.634,-0.9875,0.2115,0.7014,0.2195,2268,2019-08-07 16:45:36:915
-7.47,-5.7513,2.5259,1.0527,-2.634,-0.9875,0.2115,0.7014,0.2195,2273,2019-08-07 16:45:36:920
-7.47,-5.7513,2.5259,1.0527,-2.634,-0.9875,0.1082,0.14,0.3452,2278,2019-08-07 16:45:36:925
-7.47,-5.7513,2.5259,1.0036,-1.2565,-1.5275,0.1082,0.14,0.3452,2283,2019-08-07 16:45:36:930
-7.0968,-6.3671,2.0687,1.0036,-1.2565,-1.5275,-0.0399,-0.5045,0.3835,2288,2019-08-07 16:45:36:935
-7.0968,-6.3671,2.0687,1.0036,-1.2565,-1.5275,-0.0399,-0.5045,0.3835,2293,2019-08-07 16:45:36:940
-6.5562,-6.4101,1.6444,1.0036,-1.2565,-1.5275,-0.0399,-0.5045,0.3835,2298,2019-08-07 16:45:36:945
-6.5562,-6.4101,1.6444,1.0036,-1.2565,-1.5275,-0.1411,-0.7527,0.4325,2303,2019-08-07 16:45:36:950
-6.5562,-6.4101,1.6444,-0.4371,-0.7624,-0.2752,-0.1411,-0.7527,0.4325,2307,2019-08-07 16:45:36:954
-5.2741,-7.1118,0.7629,-0.4371,-0.7624,-0.2752,-0.2061,-0.7047,0.4304,2313,2019-08-07 16:45:36:960
-5.2741,-7.1118,0.7629,-0.4371,-0.7624,-0.2752,-0.2061,-0.7047,0.4304,2318,2019-08-07 16:45:36:965
-5.2741,-7.1118,0.7629,-0.4371,-0.7624,-0.2752,-0.2061,-0.7047,0.4304,2322,2019-08-07 16:45:36:969
-4.7574,-7.7038,0.0606,-1.5057,0.2051,0.822,-0.2742,-0.1977,0.3153,2328,2019-08-07 16:45:36:975
-4.7574,-7.7038,0.0606,-1.5057,0.2051,0.822,-0.2742,-0.1977,0.3153,2333,2019-08-07 16:45:36:980
-5.3316,-7.995,0.334,-1.5057,0.2051,0.822,-0.2785,0.2742,0.2259,2338,2019-08-07 16:45:36:985
-5.3316,-7.995,0.334,-1.5057,0.2051,0.822,-0.2785,0.2742,0.2259,2343,2019-08-07 16:45:36:990
-5.3316,-7.995,0.334,-0.2709,0.5493,0.2454,-0.2721,0.6237,0.1385,2348,2019-08-07 16:45:36:995
-6.5085,-7.9854,0.7676,-0.2709,0.5493,0.2454,-0.2721,0.6237,0.1385,2353,2019-08-07 16:45:37:000
-6.5085,-7.9854,0.7676,-0.2709,0.5493,0.2454,-0.2902,0.7153,0.0426,2358,2019-08-07 16:45:37:005
-7.5133,-7.7945,1.1542,-0.2709,0.5493,0.2454,-0.2902,0.7153,0.0426,2362,2019-08-07 16:45:37:009
-7.5133,-7.7945,1.1542,1.3089,0.2931,-0.6249,-0.3115,0.6066,0.0203,2368,2019-08-07 16:45:37:015
-7.5133,-7.7945,1.1542,1.3089,0.2931,-0.6249,-0.3115,0.6066,0.0203,2373,2019-08-07 16:45:37:020
-8.0013,-7.8709,1.8329,1.3089,0.2931,-0.6249,-0.3179,0.1944,-0.0149,2378,2019-08-07 16:45:37:025
-8.0013,-7.8709,1.8329,1.3089,0.2931,-0.6249,-0.3179,0.1944,-0.0149,2383,2019-08-07 16:45:37:030
-8.1927,-7.7276,2.1865,1.9505,0.2891,-1.5829,-0.3179,0.1944,-0.0149,2388,2019-08-07 16:45:37:035
-8.1927,-7.7276,2.1865,1.9505,0.2891,-1.5829,-0.2987,-0.3702,0.0096,2393,2019-08-07 16:45:37:040
-8.1927,-7.7276,2.1865,1.5519,0.0996,-1.3168,-0.2987,-0.3702,0.0096,2398,2019-08-07 16:45:37:045
-7.7478,-7.5701,1.7952,1.5519,0.0996,-1.3168,-0.286,-0.7143,0.0458,2403,2019-08-07 16:45:37:050
-7.7478,-7.5701,1.7952,1.5519,0.0996,-1.3168,-0.286,-0.7143,0.0458,2408,2019-08-07 16:45:37:055
-6.3221,-7.594,1.0976,1.5519,0.0996,-1.3168,-0.2434,-1.0563,0.1076,2413,2019-08-07 16:45:37:060
-6.3221,-7.594,1.0976,-0.2396,0.1322,-0.2427,-0.2434,-1.0563,0.1076,2417,2019-08-07 16:45:37:064
-6.3221,-7.594,1.0976,-0.2396,0.1322,-0.2427,-0.2039,-1.1191,0.1225,2423,2019-08-07 16:45:37:070
-5.2361,-7.7276,0.513,-0.2396,0.1322,-0.2427,-0.2039,-1.1191,0.1225,2428,2019-08-07 16:45:37:075
-5.2361,-7.7276,0.513,-0.2396,0.1322,-0.2427,-0.1688,-0.9838,0.1172,2433,2019-08-07 16:45:37:080
-4.3845,-7.7372,-0.1375,-1.8283,0.2676,0.8095,-0.1688,-0.9838,0.1172,2438,2019-08-07 16:45:37:085
-4.3845,-7.7372,-0.1375,-1.8283,0.2676,0.8095,-0.1688,-0.9838,0.1172,2443,2019-08-07 16:45:37:090
-4.3845,-7.7372,-0.1375,-1.8283,0.2676,0.8095,-0.0932,-0.5567,0.0895,2449,2019-08-07 16:45:37:096
-4.2985,-7.7515,-0.3213,-1.8283,0.2676,0.8095,-0.0932,-0.5567,0.0895,2453,2019-08-07 16:45:37:100
-4.2985,-7.7515,-0.3213,-1.7786,0.2569,0.9448,-0.0143,-0.008,0.0458,2457,2019-08-07 16:45:37:104
-4.2985,-7.7515,-0.3213,-1.7786,0.2569,0.9448,-0.0143,-0.008,0.0458,2463,2019-08-07 16:45:37:110
-5.2745,-7.5176,0.1736,-1.7786,0.2569,0.9448,0.0315,0.3009,0.0362,2467,2019-08-07 16:45:37:114
-5.2745,-7.5176,0.1736,-1.7786,0.2569,0.9448,0.0315,0.3009,0.0362,2473,2019-08-07 16:45:37:120
-5.2745,-7.5176,0.1736,-0.4387,-0.1819,0.2667,0.0581,0.4351,0.0309,2478,2019-08-07 16:45:37:125
-6.0926,-7.1834,0.5696,-0.4387,-0.1819,0.2667,0.0581,0.4351,0.0309,2483,2019-08-07 16:45:37:130
-6.0926,-7.1834,0.5696,-0.4387,-0.1819,0.2667,0.0656,0.3872,0.0416,2488,2019-08-07 16:45:37:135
-7.0303,-7.0832,1.0174,-0.4387,-0.1819,0.2667,0.0656,0.3872,0.0416,2493,2019-08-07 16:45:37:140
-7.0303,-7.0832,1.0174,1.0388,-0.3734,-0.4493,0.0613,0.1603,0.0725,2498,2019-08-07 16:45:37:145
-7.0303,-7.0832,1.0174,1.0388,-0.3734,-0.4493,0.0613,0.1603,0.0725,2503,2019-08-07 16:45:37:150
-7.6667,-7.0354,1.5406,1.0388,-0.3734,-0.4493,0.0613,0.1603,0.0725,2508,2019-08-07 16:45:37:155
-7.6667,-7.0354,1.5406,1.0388,-0.3734,-0.4493,0.0507,-0.3223,0.1161,2513,2019-08-07 16:45:37:160
-7.5615,-6.9877,1.3756,1.2011,-0.439,-0.5839,0.0507,-0.3223,0.1161,2517,2019-08-07 16:45:37:164
-7.5615,-6.9877,1.3756,1.2011,-0.439,-0.5839,0.0176,-0.7505,0.1513,2523,2019-08-07 16:45:37:170
-7.5615,-6.9877,1.3756,1.2011,-0.439,-0.5839,0.0176,-0.7505,0.1513,2527,2019-08-07 16:45:37:174
-6.7625,-7.1166,0.942,1.2011,-0.439,-0.5839,-0.0133,-0.954,0.1523,2533,2019-08-07 16:45:37:180
-6.7625,-7.1166,0.942,-0.1693,-0.1827,0.2169,-0.0133,-0.954,0.1523,2538,2019-08-07 16:45:37:185
-6.7625,-7.1166,0.942,-0.1693,-0.1827,0.2169,-0.0133,-0.954,0.1523,2543,2019-08-07 16:45:37:190
-5.7722,-7.3218,0.4988,-0.9533,-0.0565,0.6575,-0.0346,-0.9721,0.13,2548,2019-08-07 16:45:37:195
-5.7722,-7.3218,0.4988,-0.9533,-0.0565,0.6575,-0.0346,-0.9721,0.13,2553,2019-08-07 16:45:37:200
-4.868,-7.5987,-0.0998,-0.9533,-0.0565,0.6575,-0.0484,-0.7356,0.0671,2558,2019-08-07 16:45:37:205
-4.868,-7.5987,-0.0998,-0.9533,-0.0565,0.6575,-0.0484,-0.7356,0.0671,2562,2019-08-07 16:45:37:209
-4.868,-7.5987,-0.0998,-1.725,0.2237,1.3417,-0.0388,-0.3756,-0.0021,2568,2019-08-07 16:45:37:215
-4.691,-7.5605,-0.2884,-1.725,0.2237,1.3417,-0.0388,-0.3756,-0.0021,2573,2019-08-07 16:45:37:220
-4.691,-7.5605,-0.2884,-1.725,0.2237,1.3417,-0.0314,0.0058,-0.0532,2578,2019-08-07 16:45:37:225
-5.1169,-7.4221,0.0557,-1.725,0.2237,1.3417,-0.0314,0.0058,-0.0532,2583,2019-08-07 16:45:37:230
-5.1169,-7.4221,0.0557,-0.998,-0.1108,0.7294,-0.0186,0.3818,-0.0948,2587,2019-08-07 16:45:37:234
-5.1169,-7.4221,0.0557,-0.998,-0.1108,0.7294,-0.0186,0.3818,-0.0948,2593,2019-08-07 16:45:37:240
-5.6097,-7.1738,0.4045,-0.998,-0.1108,0.7294,-0.026,0.4862,-0.1012,2598,2019-08-07 16:45:37:245
-5.6097,-7.1738,0.4045,-0.998,-0.1108,0.7294,-0.026,0.4862,-0.1012,2603,2019-08-07 16:45:37:250
-6.4996,-6.916,0.7958,0.1605,-0.5111,0.1471,-0.026,0.4862,-0.1012,2607,2019-08-07 16:45:37:254
-6.4996,-6.916,0.7958,0.1605,-0.5111,0.1471,-0.0569,0.4607,-0.0873,2613,2019-08-07 16:45:37:260
-6.4996,-6.916,0.7958,0.1605,-0.5111,0.1471,-0.0569,0.4607,-0.0873,2618,2019-08-07 16:45:37:265
-7.0211,-6.8062,1.3426,0.1605,-0.5111,0.1471,-0.0718,0.1848,-0.0447,2622,2019-08-07 16:45:37:269
-7.0211,-6.8062,1.3426,0.1605,-0.5111,0.1471,-0.0718,0.1848,-0.0447,2628,2019-08-07 16:45:37:275
-6.8967,-6.7155,1.2483,0.6899,-0.7012,-0.5272,-0.0868,-0.0975,0.0043,2633,2019-08-07 16:45:37:280
-6.8967,-6.7155,1.2483,0.6899,-0.7012,-0.5272,-0.0868,-0.0975,0.0043,2637,2019-08-07 16:45:37:284
-6.8967,-6.7155,1.2483,0.6899,-0.7012,-0.5272,-0.1038,-0.3361,0.0384,2643,2019-08-07 16:45:37:290
-6.3753,-6.7346,0.8288,0.6899,-0.7012,-0.5272,-0.1038,-0.3361,0.0384,2648,2019-08-07 16:45:37:295
-6.3753,-6.7346,0.8288,-0.2031,-0.5818,0.2536,-0.123,-0.4523,0.0703,2653,2019-08-07 16:45:37:300
-6.3753,-6.7346,0.8288,-0.2031,-0.5818,0.2536,-0.123,-0.4523,0.0703,2658,2019-08-07 16:45:37:305
-5.5849,-7.0212,0.4189,-0.2031,-0.5818,0.2536,-0.123,-0.4523,0.0703,2663,2019-08-07 16:45:37:310
-5.5849,-7.0212,0.4189,-1.1662,-0.2668,0.7436,-0.1049,-0.383,0.0703,2668,2019-08-07 16:45:37:315
-5.5849,-7.0212,0.4189,-1.1662,-0.2668,0.7436,-0.1049,-0.383,0.0703,2673,2019-08-07 16:45:37:320
-5.1209,-7.1835,0.0512,-1.1662,-0.2668,0.7436,-0.058,-0.1476,0.0501,2677,2019-08-07 16:45:37:324
-5.1209,-7.1835,0.0512,-1.1662,-0.2668,0.7436,-0.058,-0.1476,0.0501,2683,2019-08-07 16:45:37:330
-5.1544,-7.3601,-0.0195,-1.1662,-0.2668,0.7436,-0.0335,0.091,0.0405,2688,2019-08-07 16:45:37:335
-5.1544,-7.3601,-0.0195,-1.0566,-0.0948,0.9025,-0.0335,0.091,0.0405,2693,2019-08-07 16:45:37:340
-5.4845,-7.3505,0.2586,-1.0566,-0.0948,0.9025,-0.0133,0.2892,0.0277,2698,2019-08-07 16:45:37:345
-5.4845,-7.3505,0.2586,-1.0566,-0.0948,0.9025,-0.0133,0.2892,0.0277,2703,2019-08-07 16:45:37:350
-5.4845,-7.3505,0.2586,-1.0566,-0.0948,0.9025,-0.0133,0.2892,0.0277,2707,2019-08-07 16:45:37:354
-5.939,-7.3267,0.5838,-0.4123,-0.0947,0.3214,0.0027,0.4031,0.0192,2713,2019-08-07 16:45:37:360
-5.939,-7.3267,0.5838,-0.4123,-0.0947,0.3214,0.0027,0.4031,0.0192,2717,2019-08-07 16:45:37:364
-6.3074,-7.2121,0.7959,-0.4123,-0.0947,0.3214,0.0016,0.3765,0.0298,2723,2019-08-07 16:45:37:370
-6.3074,-7.2121,0.7959,-0.4123,-0.0947,0.3214,0.0016,0.3765,0.0298,2728,2019-08-07 16:45:37:375
-6.3074,-7.2121,0.7959,0.0599,-0.2154,-0.1011,-0.009,0.3083,0.0405,2733,2019-08-07 16:45:37:380
-6.5323,-7.2169,1.0222,0.0599,-0.2154,-0.1011,-0.009,0.3083,0.0405,2737,2019-08-07 16:45:37:384
-6.5323,-7.2169,1.0222,0.0599,-0.2154,-0.1011,-0.009,0.3083,0.0405,2743,2019-08-07 16:45:37:390
-6.7572,-7.2837,1.1353,0.0599,-0.2154,-0.1011,-0.025,0.1315,0.0671,2748,2019-08-07 16:45:37:395
-6.7572,-7.2837,1.1353,0.3476,-0.1157,-0.2536,-0.025,0.1315,0.0671,2752,2019-08-07 16:45:37:399
-6.7572,-7.2837,1.1353,0.3476,-0.1157,-0.2536,-0.0271,-0.057,0.081,2758,2019-08-07 16:45:37:405
-6.5754,-7.298,0.9892,0.3476,-0.1157,-0.2536,-0.0271,-0.057,0.081,2762,2019-08-07 16:45:37:409
-6.5754,-7.298,0.9892,0.3476,-0.1157,-0.2536,-0.0324,-0.1838,0.082,2768,2019-08-07 16:45:37:415
-6.1927,-7.3458,0.7676,-0.0945,-0.0808,0.0298,-0.0324,-0.1838,0.082,2773,2019-08-07 16:45:37:420
-6.1927,-7.3458,0.7676,-0.0945,-0.0808,0.0298,-0.0324,-0.2392,0.0778,2778,2019-08-07 16:45:37:425
-6.1927,-7.3458,0.7676,-0.0945,-0.0808,0.0298,-0.0324,-0.2392,0.0778,2783,2019-08-07 16:45:37:430
-5.8052,-7.403,0.6922,-0.0945,-0.0808,0.0298,-0.0207,-0.1913,0.0575,2788,2019-08-07 16:45:37:435
-5.8052,-7.403,0.6922,-0.7212,0.074,0.3173,-0.0207,-0.1913,0.0575,2793,2019-08-07 16:45:37:440
-5.6426,-7.489,0.4848,-0.7212,0.074,0.3173,-0.0111,-0.0837,0.0288,2798,2019-08-07 16:45:37:445
-5.6426,-7.489,0.4848,-0.7212,0.074,0.3173,-0.0111,-0.0837,0.0288,2803,2019-08-07 16:45:37:450
-5.6426,-7.489,0.4848,-0.7212,0.074,0.3173,-0.0111,-0.0837,0.0288,2807,2019-08-07 16:45:37:454
-5.7048,-7.4603,0.4848,-0.687,0.0693,0.383,0.0059,0.0431,0.0117,2813,2019-08-07 16:45:37:460
-5.7048,-7.4603,0.4848,-0.687,0.0693,0.383,0.024,0.1443,0.0,2818,2019-08-07 16:45:37:465
-6.0062,-7.3935,0.6592,-0.687,0.0693,0.383,0.024,0.1443,0.0,2823,2019-08-07 16:45:37:470
-6.0062,-7.3935,0.6592,-0.687,0.0693,0.383,0.024,0.1443,0.0,2828,2019-08-07 16:45:37:475
-6.0062,-7.3935,0.6592,-0.1618,-0.0654,0.1117,0.0347,0.1954,0.0,2832,2019-08-07 16:45:37:479
-6.3507,-7.2646,0.8855,-0.1618,-0.0654,0.1117,0.0336,0.1784,0.0021,2838,2019-08-07 16:45:37:485
-6.3507,-7.2646,0.8855,-0.1618,-0.0654,0.1117,0.0336,0.1784,0.0021,2843,2019-08-07 16:45:37:490
-6.3507,-7.2646,0.8855,-0.1618,-0.0654,0.1117,0.0336,0.1784,0.0021,2847,2019-08-07 16:45:37:494
-6.5852,-7.193,1.0504,0.2021,-0.2352,-0.2055,0.0219,0.1059,0.0117,2854,2019-08-07 16:45:37:501
-6.5852,-7.193,1.0504,0.2021,-0.2352,-0.2055,0.0219,0.1059,0.0117,2857,2019-08-07 16:45:37:504
-6.6761,-7.1596,0.975,0.2021,-0.2352,-0.2055,0.0048,0.0037,0.0117,2863,2019-08-07 16:45:37:510
-6.6761,-7.1596,0.975,0.2021,-0.2352,-0.2055,0.0048,0.0037,0.0117,2868,2019-08-07 16:45:37:515
-6.6761,-7.1596,0.975,0.0936,-0.1937,-0.2018,-5.0E-4,-0.1167,0.0117,2872,2019-08-07 16:45:37:519
-6.456,-7.2121,0.9986,0.0936,-0.1937,-0.2018,-5.0E-4,-0.1167,0.0117,2878,2019-08-07 16:45:37:525
-6.456,-7.2121,0.9986,0.0936,-0.1937,-0.2018,-0.0015,-0.1678,0.016,2883,2019-08-07 16:45:37:530
-6.169,-7.2121,0.8053,0.0936,-0.1937,-0.2018,-0.0015,-0.1678,0.016,2888,2019-08-07 16:45:37:535
-6.169,-7.2121,0.8053,0.0936,-0.1937,-0.2018,-0.0015,-0.1678,0.016,2893,2019-08-07 16:45:37:540
-6.169,-7.2121,0.8053,-0.3029,-0.1679,0.1157,0.007,-0.1636,0.0139,2898,2019-08-07 16:45:37:545
-6.0542,-7.2025,0.7582,-0.3029,-0.1679,0.1157,0.007,-0.1636,0.0139,2903,2019-08-07 16:45:37:550
-6.0542,-7.2025,0.7582,-0.3029,-0.1679,0.1157,0.023,-0.121,0.0192,2908,2019-08-07 16:45:37:555
-5.9873,-7.2216,0.6403,-0.4123,-0.1615,0.2385,0.023,-0.121,0.0192,2912,2019-08-07 16:45:37:559
-5.9873,-7.2216,0.6403,-0.4123,-0.1615,0.2385,0.0315,-0.0709,0.0128,2918,2019-08-07 16:45:37:565
-5.9873,-7.2216,0.6403,-0.4123,-0.1615,0.2385,0.0315,-0.0709,0.0128,2923,2019-08-07 16:45:37:570
-6.0112,-7.1309,0.5932,-0.4123,-0.1615,0.2385,0.0411,-0.0272,0.0032,2928,2019-08-07 16:45:37:575
-6.0112,-7.1309,0.5932,-0.3543,-0.2658,0.1683,0.0411,-0.0272,0.0032,2933,2019-08-07 16:45:37:580
-6.0112,-7.1309,0.5932,-0.3543,-0.2658,0.1683,0.056,0.0186,0.0032,2938,2019-08-07 16:45:37:585
-6.1021,-7.0497,0.7299,-0.3543,-0.2658,0.1683,0.056,0.0186,0.0032,2943,2019-08-07 16:45:37:590
-6.1021,-7.0497,0.7299,-0.2636,-0.3369,0.1662,0.0581,0.0442,0.0064,2949,2019-08-07 16:45:37:596
-6.1021,-7.0497,0.7299,-0.2636,-0.3369,0.1662,0.0581,0.0442,0.0064,2953,2019-08-07 16:45:37:600
-6.2218,-6.9925,0.7911,-0.2636,-0.3369,0.1662,0.0581,0.0442,0.0064,2958,2019-08-07 16:45:37:605
-6.2218,-6.9925,0.7911,-0.1652,-0.373,0.0976,0.0538,0.0463,0.0085,2963,2019-08-07 16:45:37:610
-6.2648,-7.0259,0.7676,-0.1652,-0.373,0.0976,0.0538,0.0463,0.0085,2968,2019-08-07 16:45:37:615
-6.2648,-7.0259,0.7676,-0.1652,-0.373,0.0976,0.0432,0.0399,0.0085,2973,2019-08-07 16:45:37:620
-6.2648,-7.0259,0.7676,-0.1652,-0.373,0.0976,0.0432,0.0399,0.0085,2978,2019-08-07 16:45:37:625
-6.2409,-7.0975,0.7157,-0.13,-0.2508,0.0983,0.0315,0.025,0.0139,2983,2019-08-07 16:45:37:630
-6.2409,-7.0975,0.7157,-0.13,-0.2508,0.0983,0.0315,0.025,0.0139,2988,2019-08-07 16:45:37:635
-6.2409,-7.0975,0.7157,-0.13,-0.2508,0.0983,0.0315,0.025,0.0139,2993,2019-08-07 16:45:37:640
-6.2984,-7.1691,0.7817,-0.13,-0.2508,0.0983,0.023,0.0122,0.0075,2998,2019-08-07 16:45:37:645
-6.2984,-7.1691,0.7817,-0.1841,-0.2159,0.1424,0.023,0.0122,0.0075,3003,2019-08-07 16:45:37:650
-6.2984,-7.1691,0.7817,-0.1841,-0.2159,0.1424,0.0198,-0.0027,0.0,3008,2019-08-07 16:45:37:655
-6.0592,-7.1882,0.777,-0.1841,-0.2159,0.1424,0.0198,-0.0027,0.0,3013,2019-08-07 16:45:37:660
-6.0592,-7.1882,0.777,-0.1841,-0.2159,0.1424,0.0198,-0.0027,0.0,3018,2019-08-07 16:45:37:665
-6.0592,-7.1882,0.777,-0.332,-0.1445,0.158,0.0144,-0.0102,-0.0075,3023,2019-08-07 16:45:37:670
-6.0305,-7.1834,0.6827,-0.332,-0.1445,0.158,0.0144,-0.0102,-0.0075,3027,2019-08-07 16:45:37:674
-6.0305,-7.1834,0.6827,-0.4294,-0.2663,0.2392,0.0038,-0.0017,-0.0138,3033,2019-08-07 16:45:37:680
-5.9683,-7.1166,0.6874,-0.4294,-0.2663,0.2392,0.0038,-0.0017,-0.0138,3038,2019-08-07 16:45:37:685
-5.9683,-7.1166,0.6874,-0.4294,-0.2663,0.2392,0.0038,-0.0017,-0.0138,3043,2019-08-07 16:45:37:690
-5.9683,-7.1166,0.6874,-0.4377,-0.3296,0.1862,-0.0058,0.0133,-0.0075,3048,2019-08-07 16:45:37:695
-5.9253,-7.0068,0.7157,-0.4377,-0.3296,0.1862,-0.0058,0.0133,-0.0075,3053,2019-08-07 16:45:37:700
-5.9253,-7.0068,0.7157,-0.4377,-0.3296,0.1862,-0.0165,0.0197,0.0107,3058,2019-08-07 16:45:37:705
-5.9397,-6.9829,0.7817,-0.4377,-0.3296,0.1862,-0.0165,0.0197,0.0107,3063,2019-08-07 16:45:37:710
-5.9397,-6.9829,0.7817,-0.4713,-0.3683,0.1295,-0.0271,0.0314,0.0213,3067,2019-08-07 16:45:37:714
-5.9397,-6.9829,0.7817,-0.4713,-0.3683,0.1295,-0.0271,0.0314,0.0213,3073,2019-08-07 16:45:37:720
-6.0641,-6.9113,0.8618,-0.4713,-0.3683,0.1295,-0.0303,0.0228,0.033,3077,2019-08-07 16:45:37:724
-6.0641,-6.9113,0.8618,-0.4713,-0.3683,0.1295,-0.0303,0.0228,0.033,3083,2019-08-07 16:45:37:730
-6.2794,-6.9256,0.8712,-0.1606,-0.4841,0.0089,-0.0303,0.0228,0.033,3088,2019-08-07 16:45:37:735
-6.2794,-6.9256,0.8712,-0.1606,-0.4841,0.0089,-0.0388,-0.023,0.0554,3092,2019-08-07 16:45:37:739
-6.2794,-6.9256,0.8712,-0.1606,-0.4841,0.0089,-0.0388,-0.023,0.0554,3099,2019-08-07 16:45:37:746
-6.2172,-7.0115,0.8052,-0.1606,-0.4841,0.0089,-0.042,-0.0688,0.066,3103,2019-08-07 16:45:37:750
-6.2172,-7.0115,0.8052,-0.2413,-0.3523,0.0927,-0.042,-0.0688,0.066,3108,2019-08-07 16:45:37:755
-6.1359,-7.0449,0.7251,-0.2413,-0.3523,0.0927,-0.0388,-0.0869,0.066,3113,2019-08-07 16:45:37:760
-6.1359,-7.0449,0.7251,-0.2413,-0.3523,0.0927,-0.0388,-0.0869,0.066,3118,2019-08-07 16:45:37:765
-6.1359,-7.0449,0.7251,-0.2413,-0.3523,0.0927,-0.0303,-0.0741,0.0724,3122,2019-08-07 16:45:37:769
-5.9876,-7.1356,0.6308,-0.4362,-0.2252,0.2568,-0.0303,-0.0741,0.0724,3128,2019-08-07 16:45:37:775
-5.9876,-7.1356,0.6308,-0.4362,-0.2252,0.2568,-0.0133,-0.0198,0.0629,3133,2019-08-07 16:45:37:780
-5.9876,-7.1356,0.6308,-0.4362,-0.2252,0.2568,-0.0133,-0.0198,0.0629,3138,2019-08-07 16:45:37:785
-6.1408,-7.1929,0.6025,-0.4362,-0.2252,0.2568,0.0102,0.0442,0.0447,3144,2019-08-07 16:45:37:791
-6.1408,-7.1929,0.6025,-0.2811,-0.1856,0.2111,0.0102,0.0442,0.0447,3148,2019-08-07 16:45:37:795
-6.2652,-7.1547,0.6685,-0.2811,-0.1856,0.2111,0.0198,0.0655,0.0394,3153,2019-08-07 16:45:37:800
-6.2652,-7.1547,0.6685,-0.2811,-0.1856,0.2111,0.0198,0.0655,0.0394,3158,2019-08-07 16:45:37:805
-6.2652,-7.1547,0.6685,-0.2811,-0.1856,0.2111,0.0198,0.0655,0.0394,3163,2019-08-07 16:45:37:810
-6.27,-7.1452,0.6968,-0.14,-0.1848,0.1245,0.023,0.0601,0.0362,3168,2019-08-07 16:45:37:815
-6.27,-7.1452,0.6968,-0.14,-0.1848,0.1245,0.023,0.0601,0.0362,3173,2019-08-07 16:45:37:820
-6.3035,-7.1547,0.8476,-0.14,-0.1848,0.1245,0.0144,0.0228,0.0309,3178,2019-08-07 16:45:37:825
-6.3035,-7.1547,0.8476,-0.14,-0.1848,0.1245,0.0144,0.0228,0.0309,3183,2019-08-07 16:45:37:830
-6.2748,-7.15,0.9325,-0.1407,-0.1515,-0.0042,0.007,-0.0251,0.0362,3188,2019-08-07 16:45:37:835
-6.2748,-7.15,0.9325,-0.1407,-0.1515,-0.0042,0.007,-0.0251,0.0362,3193,2019-08-07 16:45:37:840
-6.2748,-7.15,0.9325,-0.1407,-0.1515,-0.0042,0.008,-0.0698,0.0415,3198,2019-08-07 16:45:37:845
-6.2079,-7.0927,0.956,-0.1407,-0.1515,-0.0042,0.008,-0.0698,0.0415,3203,2019-08-07 16:45:37:850
-6.2079,-7.0927,0.956,-0.2699,-0.232,0.029,6.0E-4,-0.1007,0.0511,3208,2019-08-07 16:45:37:855
-6.2079,-7.0927,0.956,-0.2699,-0.232,0.029,6.0E-4,-0.1007,0.0511,3213,2019-08-07 16:45:37:860
-6.1026,-7.1213,0.8335,-0.2699,-0.232,0.029,-0.0079,-0.121,0.0597,3217,2019-08-07 16:45:37:864
-6.1026,-7.1213,0.8335,-0.2699,-0.232,0.029,-0.0079,-0.121,0.0597,3223,2019-08-07 16:45:37:870
-5.9926,-7.1929,0.7863,-0.4621,-0.1394,0.1135,-0.0154,-0.121,0.0618,3228,2019-08-07 16:45:37:875
-5.9926,-7.1929,0.7863,-0.4621,-0.1394,0.1135,-0.0154,-0.121,0.0618,3232,2019-08-07 16:45:37:879
-5.9926,-7.1929,0.7863,-0.4621,-0.1394,0.1135,-0.0165,-0.0666,0.0501,3238,2019-08-07 16:45:37:885
-5.8826,-7.2072,0.6496,-0.4621,-0.1394,0.1135,-0.0165,-0.0666,0.0501,3243,2019-08-07 16:45:37:890
-5.8826,-7.2072,0.6496,-0.6243,-0.0631,0.2575,-0.0165,-0.0666,0.0501,3248,2019-08-07 16:45:37:895
-5.9353,-7.2311,0.6355,-0.6243,-0.0631,0.2575,-0.0111,-0.0017,0.0352,3253,2019-08-07 16:45:37:900
-5.9353,-7.2311,0.6355,-0.6243,-0.0631,0.2575,-0.0111,-0.0017,0.0352,3258,2019-08-07 16:45:37:905
-5.9353,-7.2311,0.6355,-0.6243,-0.0631,0.2575,-0.0026,0.0665,0.0181,3263,2019-08-07 16:45:37:910
-6.0884,-7.1786,0.7156,-0.3256,-0.0998,0.1838,-0.0026,0.0665,0.0181,3267,2019-08-07 16:45:37:914
-6.0884,-7.1786,0.7156,-0.3256,-0.0998,0.1838,0.0048,0.1113,0.0053,3273,2019-08-07 16:45:37:920
-6.2271,-7.1404,0.758,-0.3256,-0.0998,0.1838,0.0048,0.1113,0.0053,3277,2019-08-07 16:45:37:924
-6.2271,-7.1404,0.758,-0.3256,-0.0998,0.1838,0.0048,0.1262,-0.0043,3284,2019-08-07 16:45:37:931
-6.2271,-7.1404,0.758,-0.0929,-0.1909,-0.0062,0.0048,0.1262,-0.0043,3288,2019-08-07 16:45:37:935
-6.3372,-7.1261,0.89,-0.0929,-0.1909,-0.0062,0.0017,0.0995,-0.0053,3294,2019-08-07 16:45:37:941
-6.3372,-7.1261,0.89,-0.0929,-0.1909,-0.0062,0.0017,0.0995,-0.0053,3298,2019-08-07 16:45:37:945
-6.3181,-7.0831,0.9371,-0.0929,-0.1909,-0.0062,-5.0E-4,0.0569,-0.0011,3304,2019-08-07 16:45:37:951
-6.3181,-7.0831,0.9371,-0.2088,-0.2148,-0.0573,-5.0E-4,0.0569,-0.0011,3308,2019-08-07 16:45:37:955
-6.3181,-7.0831,0.9371,-0.2088,-0.2148,-0.0573,-5.0E-4,0.0015,0.0064,3313,2019-08-07 16:45:37:960
-6.2224,-7.0783,0.9701,-0.2088,-0.2148,-0.0573,-5.0E-4,0.0015,0.0064,3318,2019-08-07 16:45:37:965
-6.2224,-7.0783,0.9701,-0.2088,-0.2148,-0.0573,-0.0047,-0.0379,0.0138,3323,2019-08-07 16:45:37:970
-6.1603,-7.0831,0.8664,-0.3055,-0.2421,0.0119,-0.0047,-0.0379,0.0138,3328,2019-08-07 16:45:37:975
-6.1603,-7.0831,0.8664,-0.3055,-0.2421,0.0119,-0.0058,-0.0602,0.0202,3334,2019-08-07 16:45:37:981
-6.1603,-7.0831,0.8664,-0.3055,-0.2421,0.0119,-0.0058,-0.0602,0.0202,3338,2019-08-07 16:45:37:985
-5.9402,-7.0783,0.7486,-0.3055,-0.2421,0.0119,-0.0037,-0.0645,0.0224,3342,2019-08-07 16:45:37:989
-5.9402,-7.0783,0.7486,-0.5506,-0.2595,0.2494,-0.0037,-0.0645,0.0224,3348,2019-08-07 16:45:37:995
-5.9498,-7.0592,0.6119,-0.5506,-0.2595,0.2494,-0.0058,-0.0432,0.017,3353,2019-08-07 16:45:38:000
-5.9498,-7.0592,0.6119,-0.5506,-0.2595,0.2494,-0.0058,-0.0432,0.017,3358,2019-08-07 16:45:38:005
-5.9498,-7.0592,0.6119,-0.4696,-0.2542,0.2928,-0.009,0.0101,0.0234,3362,2019-08-07 16:45:38:009
-5.9785,-7.1308,0.6779,-0.4696,-0.2542,0.2928,-0.009,0.0101,0.0234,3368,2019-08-07 16:45:38:015
-5.9785,-7.1308,0.6779,-0.4696,-0.2542,0.2928,0.0112,0.0665,0.0234,3373,2019-08-07 16:45:38:020
-5.9785,-7.1308,0.6779,-0.4696,-0.2542,0.2928,0.0112,0.0665,0.0234,3378,2019-08-07 16:45:38:025
-6.036,-7.0831,0.6543,-0.3956,-0.267,0.2446,0.0112,0.0665,0.0234,3383,2019-08-07 16:45:38:030
-6.036,-7.0831,0.6543,-0.3956,-0.267,0.2446,0.024,0.1017,0.0213,3388,2019-08-07 16:45:38:035
-6.2465,-7.0162,0.6731,-0.3956,-0.267,0.2446,0.024,0.1017,0.0213,3393,2019-08-07 16:45:38:040
-6.2465,-7.0162,0.6731,-0.3956,-0.267,0.2446,0.0123,0.0942,0.0245,3398,2019-08-07 16:45:38:045
-6.2465,-7.0162,0.6731,-0.2004,-0.3444,0.1004,0.0123,0.0942,0.0245,3403,2019-08-07 16:45:38:050
-6.2991,-7.0544,0.7627,-0.2004,-0.3444,0.1004,0.0123,0.0942,0.0245,3408,2019-08-07 16:45:38:055
-6.2991,-7.0544,0.7627,-0.2004,-0.3444,0.1004,0.0112,0.0527,0.0352,3413,2019-08-07 16:45:38:060
-6.2752,-7.0497,0.8475,-0.1731,-0.2872,0.0237,0.0112,0.0527,0.0352,3418,2019-08-07 16:45:38:065
-6.2752,-7.0497,0.8475,-0.1731,-0.2872,0.0237,0.0219,0.0047,0.0383,3423,2019-08-07 16:45:38:070
-6.2752,-7.0497,0.8475,-0.1731,-0.2872,0.0237,0.0219,0.0047,0.0383,3428,2019-08-07 16:45:38:075
-6.28,-7.0735,0.9182,-0.1731,-0.2872,0.0237,0.024,-0.0432,0.0501,3433,2019-08-07 16:45:38:080
-6.28,-7.0735,0.9182,-0.1731,-0.2872,0.0237,0.024,-0.0432,0.0501,3438,2019-08-07 16:45:38:085
-6.28,-7.0735,0.9182,-0.2226,-0.2472,0.0542,0.024,-0.0432,0.0501,3442,2019-08-07 16:45:38:089
-6.17,-7.0449,0.7344,-0.2226,-0.2472,0.0542,0.0198,-0.0666,0.0618,3448,2019-08-07 16:45:38:095
-6.17,-7.0449,0.7344,-0.2226,-0.2472,0.0542,0.0198,-0.0666,0.0618,3452,2019-08-07 16:45:38:099
-6.0217,-7.0831,0.7909,-0.2226,-0.2472,0.0542,0.0155,-0.0688,0.0607,3458,2019-08-07 16:45:38:105
-6.0217,-7.0831,0.7909,-0.5117,-0.173,0.1495,0.0155,-0.0688,0.0607,3463,2019-08-07 16:45:38:110
-6.0217,-7.0831,0.7909,-0.5117,-0.173,0.1495,0.0176,-0.0347,0.0607,3468,2019-08-07 16:45:38:115
-5.9739,-7.126,0.6872,-0.5117,-0.173,0.1495,0.0176,-0.0347,0.0607,3472,2019-08-07 16:45:38:119
-5.9739,-7.126,0.6872,-0.5117,-0.173,0.1495,0.023,0.0133,0.0533,3478,2019-08-07 16:45:38:125
-6.1031,-7.021,0.6165,-0.3989,-0.2715,0.2663,0.023,0.0133,0.0533,3483,2019-08-07 16:45:38:130
-6.1031,-7.021,0.6165,-0.3989,-0.2715,0.2663,0.023,0.0708,0.0501,3488,2019-08-07 16:45:38:135
-6.1031,-7.021,0.6165,-0.3989,-0.2715,0.2663,0.023,0.0708,0.0501,3494,2019-08-07 16:45:38:141
-6.1988,-7.1165,0.7249,-0.3989,-0.2715,0.2663,0.0219,0.0974,0.0383,3498,2019-08-07 16:45:38:145
-6.1988,-7.1165,0.7249,-0.2435,-0.18,0.117,0.0219,0.0974,0.0383,3503,2019-08-07 16:45:38:150
-6.1988,-7.1165,0.7249,-0.2435,-0.18,0.117,0.0251,0.1177,0.0266,3508,2019-08-07 16:45:38:155
-6.3663,-7.064,0.8334,-0.2435,-0.18,0.117,0.0251,0.1177,0.0266,3513,2019-08-07 16:45:38:160
-6.3663,-7.064,0.8334,-0.2435,-0.18,0.117,0.0251,0.1177,0.0266,3517,2019-08-07 16:45:38:164
-6.4812,-7.1069,0.97,-0.039,-0.1998,-0.0591,0.0208,0.0964,0.017,3523,2019-08-07 16:45:38:170
-6.4812,-7.1069,0.97,-0.039,-0.1998,-0.0591,0.0208,0.0964,0.017,3528,2019-08-07 16:45:38:175
-6.4812,-7.1069,0.97,-0.039,-0.1998,-0.0591,0.0017,0.0463,0.0117,3532,2019-08-07 16:45:38:179
-6.4238,-7.0926,0.9229,-0.039,-0.1998,-0.0591,0.0017,0.0463,0.0117,3538,2019-08-07 16:45:38:185
-6.4238,-7.0926,0.9229,-0.1091,-0.1593,-0.0117,-0.0069,-0.0038,0.0107,3543,2019-08-07 16:45:38:190
-6.309,-7.1212,0.8663,-0.1091,-0.1593,-0.0117,-0.0069,-0.0038,0.0107,3549,2019-08-07 16:45:38:196
-6.309,-7.1212,0.8663,-0.1091,-0.1593,-0.0117,-0.0015,-0.0208,0.0107,3553,2019-08-07 16:45:38:200
-6.309,-7.1212,0.8663,-0.1091,-0.1593,-0.0117,-0.0015,-0.0208,0.0107,3558,2019-08-07 16:45:38:205
-6.2946,-7.0449,0.7768,-0.2249,-0.2346,0.0841,-0.0015,-0.0208,0.0107,3563,2019-08-07 16:45:38:210
-6.2946,-7.0449,0.7768,-0.2249,-0.2346,0.0841,0.0017,-0.0336,0.0085,3568,2019-08-07 16:45:38:215
-6.2946,-7.0449,0.7768,-0.2249,-0.2346,0.0841,0.0017,-0.0336,0.0085,3573,2019-08-07 16:45:38:220
-6.2277,-7.0974,0.7485,-0.2249,-0.2346,0.0841,6.0E-4,-0.04,0.0117,3577,2019-08-07 16:45:38:224
-6.2277,-7.0974,0.7485,-0.2542,-0.1524,0.1542,6.0E-4,-0.04,0.0117,3583,2019-08-07 16:45:38:230
-6.2277,-7.0974,0.7485,-0.2542,-0.1524,0.1542,0.0059,-0.0315,0.0064,3587,2019-08-07 16:45:38:234
-6.2851,-7.0878,0.5835,-0.2542,-0.1524,0.1542,0.0059,-0.0315,0.0064,3593,2019-08-07 16:45:38:240
-6.2851,-7.0878,0.5835,-0.2542,-0.1524,0.1542,-0.0442,-0.0688,-0.0053,3598,2019-08-07 16:45:38:245
-6.2708,-7.0687,0.9134,-0.2488,-0.2099,-0.0457,-0.0442,-0.0688,-0.0053,3603,2019-08-07 16:45:38:250
-6.2708,-7.0687,0.9134,-0.2488,-0.2099,-0.0457,0.0038,-0.0208,-0.0075,3607,2019-08-07 16:45:38:254
-6.2708,-7.0687,0.9134,-0.2488,-0.2099,-0.0457,0.0038,-0.0208,-0.0075,3613,2019-08-07 16:45:38:260
-6.2038,-7.1069,0.6919,-0.2488,-0.2099,-0.0457,0.0443,-0.0176,-0.017,3617,2019-08-07 16:45:38:264
-6.2038,-7.1069,0.6919,-0.2557,-0.2356,0.2512,0.0443,-0.0176,-0.017,3623,2019-08-07 16:45:38:270
-6.3139,-6.9971,0.6259,-0.2557,-0.2356,0.2512,0.0272,0.0015,-0.0202,3628,2019-08-07 16:45:38:275
-6.3139,-6.9971,0.6259,-0.2557,-0.2356,0.2512,0.0272,0.0015,-0.0202,3632,2019-08-07 16:45:38:279
-6.3139,-6.9971,0.6259,-0.2557,-0.2356,0.2512,0.0262,-0.0017,-0.0181,3638,2019-08-07 16:45:38:285
-6.3426,-7.0067,0.8757,-0.2006,-0.2612,-0.0047,0.0262,-0.0017,-0.0181,3642,2019-08-07 16:45:38:289
-6.3426,-7.0067,0.8757,-0.2006,-0.2612,-0.0047,0.0464,-0.0198,-0.0107,3648,2019-08-07 16:45:38:295
-6.2805,-7.0257,0.9134,-0.2006,-0.2612,-0.0047,0.0464,-0.0198,-0.0107,3653,2019-08-07 16:45:38:300
-6.2805,-7.0257,0.9134,-0.2006,-0.2612,-0.0047,0.0464,-0.0198,-0.0107,3658,2019-08-07 16:45:38:305
-6.2805,-7.0257,0.9134,-0.2006,-0.2612,-0.0047,0.0709,-0.0187,-0.0064,3663,2019-08-07 16:45:38:310
-6.1598,-7.0927,1.0881,-0.3528,-0.1898,-0.2008,0.0709,-0.0187,-0.0064,3667,2019-08-07 16:45:38:314
-6.1598,-7.0927,1.0881,-0.3528,-0.1898,-0.2008,0.1018,0.0101,0.0096,3673,2019-08-07 16:45:38:320
-6.2364,-7.0784,1.0598,-0.3528,-0.1898,-0.2008,0.1018,0.0101,0.0096,3678,2019-08-07 16:45:38:325
-6.2364,-7.0784,1.0598,-0.3354,-0.2295,0.139,0.0901,-0.0059,0.0362,3682,2019-08-07 16:45:38:329
-6.2364,-7.0784,1.0598,-0.3354,-0.2295,0.139,0.0901,-0.0059,0.0362,3688,2019-08-07 16:45:38:335
-6.2029,-6.8253,0.7911,-0.3354,-0.2295,0.139,0.0208,-0.0187,0.0277,3693,2019-08-07 16:45:38:340
-6.2029,-6.8253,0.7911,-0.3354,-0.2295,0.139,0.0208,-0.0187,0.0277,3697,2019-08-07 16:45:38:344
-6.2364,-6.8301,1.0362,-0.2826,-0.4439,-0.1266,0.0048,-0.0379,0.0288,3703,2019-08-07 16:45:38:350
-6.2364,-6.8301,1.0362,-0.2826,-0.4439,-0.1266,0.0048,-0.0379,0.0288,3708,2019-08-07 16:45:38:355
-6.2364,-6.8301,1.0362,-0.2826,-0.4439,-0.1266,0.0048,-0.0379,0.0288,3713,2019-08-07 16:45:38:360
-6.1216,-6.9351,0.7817,-0.2826,-0.4439,-0.1266,-0.0037,-0.024,0.0256,3718,2019-08-07 16:45:38:365
-6.1216,-6.9351,0.7817,-0.3093,-0.3074,0.1306,-0.0037,-0.024,0.0256,3723,2019-08-07 16:45:38:370