ACCELEROMETER X (m/s²),ACCELEROMETER Y (m/s²),ACCELEROMETER Z (m/s²),LINEAR ACCELERATION X (m/s²),LINEAR ACCELERATION Y (m/s²),LINEAR ACCELERATION Z (m/s²),GYROSCOPE X (rad/s),GYROSCOPE Y (rad/s),GYROSCOPE Z (rad/s),Time since start in ms ,YYYY-MO-DD HH-MI-SS_SSS
-6.4415,-7.0078,0.6471,-0.1901,-0.1757,0.1624,0.0123,0.0399,-0.0117,3,2019-08-07 16:46:19:951
-6.5228,-6.9887,0.6424,-0.1901,-0.1757,0.1624,0.0123,0.0399,-0.0117,8,2019-08-07 16:46:19:956
-6.5228,-6.9887,0.6424,-0.0369,-0.1716,0.2006,0.0123,0.0399,-0.0117,13,2019-08-07 16:46:19:961
-6.5228,-6.9887,0.6424,-0.0369,-0.1716,0.2006,0.0176,0.0292,-0.0191,18,2019-08-07 16:46:19:966
-6.5372,-7.0459,0.7037,-0.0369,-0.1716,0.2006,0.0176,0.0292,-0.0191,23,2019-08-07 16:46:19:971
-6.5372,-7.0459,0.7037,-0.1027,-0.1919,0.0821,0.0219,-6.0E-4,-0.0276,28,2019-08-07 16:46:19:976
-6.4415,-7.003,0.7084,-0.1027,-0.1919,0.0821,0.0219,-6.0E-4,-0.0276,33,2019-08-07 16:46:19:981
-6.4415,-7.003,0.7084,-0.1027,-0.1919,0.0821,0.0261,-0.0251,-0.0276,38,2019-08-07 16:46:19:986
-6.4415,-7.003,0.7084,-0.1027,-0.1919,0.0821,0.0261,-0.0251,-0.0276,42,2019-08-07 16:46:19:990
-6.274,-6.9934,0.7508,-0.3518,-0.1954,0.0589,0.0272,-0.0294,-0.017,48,2019-08-07 16:46:19:996
-6.274,-6.9934,0.7508,-0.3518,-0.1954,0.0589,0.0272,-0.0294,-0.017,53,2019-08-07 16:46:20:001
-6.1783,-6.9362,0.7178,-0.3518,-0.1954,0.0589,0.0272,-0.0198,-0.0106,58,2019-08-07 16:46:20:006
-6.1783,-6.9362,0.7178,-0.3518,-0.1954,0.0589,0.0272,-0.0198,-0.0106,63,2019-08-07 16:46:20:011
-6.1783,-6.9362,0.7178,-0.4634,-0.2835,-3.0E-4,0.0197,-0.023,1.0E-4,68,2019-08-07 16:46:20:016
-6.1735,-6.9362,0.8262,-0.4634,-0.2835,-3.0E-4,0.0197,-0.023,1.0E-4,72,2019-08-07 16:46:20:020
-6.1735,-6.9362,0.8262,-0.4634,-0.2835,-3.0E-4,0.0197,-0.023,1.0E-4,78,2019-08-07 16:46:20:026
-6.1831,-6.9266,0.7037,-0.4634,-0.2835,-3.0E-4,0.024,-0.0059,0.0086,83,2019-08-07 16:46:20:031
-6.1831,-6.9266,0.7037,-0.3861,-0.2693,0.0994,0.024,-0.0059,0.0086,88,2019-08-07 16:46:20:036
-6.1831,-6.9266,0.7037,-0.3861,-0.2693,0.0994,0.0208,0.0047,0.0075,94,2019-08-07 16:46:20:042
-6.2979,-6.8932,0.7461,-0.3241,-0.2976,0.0769,0.0208,0.0047,0.0075,98,2019-08-07 16:46:20:046
-6.2979,-6.8932,0.7461,-0.3241,-0.2976,0.0769,0.0208,0.0186,0.0065,103,2019-08-07 16:46:20:051
-6.2979,-6.8932,0.7461,-0.3241,-0.2976,0.0769,0.0208,0.0186,0.0065,107,2019-08-07 16:46:20:055
-6.3027,-6.9314,0.7791,-0.3241,-0.2976,0.0769,0.0208,0.0196,-0.0042,113,2019-08-07 16:46:20:061
-6.3027,-6.9314,0.7791,-0.2432,-0.302,0.0443,0.0208,0.0196,-0.0042,117,2019-08-07 16:46:20:065
-6.3936,-6.898,0.7508,-0.2432,-0.302,0.0443,0.0144,0.0132,-0.0042,123,2019-08-07 16:46:20:071
-6.3936,-6.898,0.7508,-0.2432,-0.302,0.0443,0.0144,0.0132,-0.0042,128,2019-08-07 16:46:20:076
-6.3936,-6.898,0.7508,-0.2432,-0.302,0.0443,0.0144,0.0132,-0.0042,133,2019-08-07 16:46:20:081
-6.3792,-6.96,0.7131,-0.2429,-0.2307,0.11,0.0091,0.0132,-0.0138,137,2019-08-07 16:46:20:085
-6.3792,-6.96,0.7131,-0.2429,-0.2307,0.11,0.0091,0.0132,-0.0138,143,2019-08-07 16:46:20:091
-6.4175,-6.9409,0.7178,-0.2429,-0.2307,0.11,0.0112,5.0E-4,-0.0159,148,2019-08-07 16:46:20:096
-6.4175,-6.9409,0.7178,-0.2429,-0.2307,0.11,0.0112,5.0E-4,-0.0159,153,2019-08-07 16:46:20:101
-6.4175,-6.9409,0.7178,-0.2219,-0.2085,0.101,0.0112,5.0E-4,-0.0159,157,2019-08-07 16:46:20:105
-6.3505,-6.9505,0.6943,-0.2219,-0.2085,0.101,0.0165,-0.0059,-0.0127,163,2019-08-07 16:46:20:111
-6.3505,-6.9505,0.6943,-0.2219,-0.2085,0.101,0.0176,-0.0038,-0.017,168,2019-08-07 16:46:20:116
-6.2883,-6.9409,0.7603,-0.2219,-0.2085,0.101,0.0176,-0.0038,-0.017,173,2019-08-07 16:46:20:121
-6.2883,-6.9409,0.7603,-0.3198,-0.2249,0.0753,0.0176,-0.0038,-0.017,178,2019-08-07 16:46:20:126
-6.2883,-6.9409,0.7603,-0.3198,-0.2249,0.0753,0.0208,-0.007,-0.0138,184,2019-08-07 16:46:20:132
-6.2739,-6.9457,0.6896,-0.3198,-0.2249,0.0753,0.0155,-0.0049,-0.0042,188,2019-08-07 16:46:20:136
-6.2739,-6.9457,0.6896,-0.3198,-0.2249,0.0753,0.0155,-0.0049,-0.0042,193,2019-08-07 16:46:20:141
-6.2308,-6.9218,0.7555,-0.366,-0.2834,0.0829,0.0102,-0.0145,0.0033,198,2019-08-07 16:46:20:146
-6.2308,-6.9218,0.7555,-0.366,-0.2834,0.0829,0.0102,-0.0145,0.0033,203,2019-08-07 16:46:20:151
-6.2308,-6.9218,0.7555,-0.366,-0.2834,0.0829,0.0102,-0.0145,0.0033,207,2019-08-07 16:46:20:155
-6.25,-6.9266,0.7697,-0.366,-0.2834,0.0829,0.0102,-0.0177,0.0097,213,2019-08-07 16:46:20:161
-6.25,-6.9266,0.7697,-0.4045,-0.2351,0.0673,0.0102,-0.0177,0.0097,218,2019-08-07 16:46:20:166
-6.25,-6.9266,0.7697,-0.4045,-0.2351,0.0673,0.0038,-0.0038,0.0107,222,2019-08-07 16:46:20:170
-6.2308,-6.9314,0.7838,-0.4045,-0.2351,0.0673,0.0038,-0.0038,0.0107,228,2019-08-07 16:46:20:176
-6.2308,-6.9314,0.7838,-0.4045,-0.2351,0.0673,-0.008,0.01,0.0065,233,2019-08-07 16:46:20:181
-6.2308,-6.9314,0.7838,-0.2907,-0.2962,0.0483,-0.008,0.01,0.0065,238,2019-08-07 16:46:20:186
-6.3217,-6.8693,0.7603,-0.2907,-0.2962,0.0483,-0.008,0.01,0.0065,243,2019-08-07 16:46:20:191
-6.3217,-6.8693,0.7603,-0.2907,-0.2962,0.0483,-0.0069,0.0068,0.0054,248,2019-08-07 16:46:20:196
-6.3504,-6.9123,0.6896,-0.2907,-0.2962,0.0483,-0.0069,0.0068,0.0054,252,2019-08-07 16:46:20:200
-6.3504,-6.9123,0.6896,-0.2633,-0.2429,0.1345,-0.0112,0.01,0.0054,258,2019-08-07 16:46:20:206
-6.3504,-6.9123,0.6896,-0.2633,-0.2429,0.1345,-0.0112,0.01,0.0054,263,2019-08-07 16:46:20:211
-6.3265,-7.0173,0.7084,-0.2633,-0.2429,0.1345,-0.0143,0.0175,-0.0127,268,2019-08-07 16:46:20:216
-6.3265,-7.0173,0.7084,-0.2633,-0.2429,0.1345,-0.0143,0.0175,-0.0127,272,2019-08-07 16:46:20:220
-6.4126,-6.9744,0.7886,-0.2041,-0.2212,0.0356,-0.0112,0.0175,-0.0223,278,2019-08-07 16:46:20:226
-6.4126,-6.9744,0.7886,-0.2041,-0.2212,0.0356,-0.0112,0.0175,-0.0223,283,2019-08-07 16:46:20:231
-6.4126,-6.9744,0.7886,-0.2041,-0.2212,0.0356,-0.0026,0.0164,-0.0276,288,2019-08-07 16:46:20:236
-6.3552,-6.9887,0.7461,-0.2041,-0.2212,0.0356,-0.0026,0.0164,-0.0276,293,2019-08-07 16:46:20:241
-6.3552,-6.9887,0.7461,-0.2817,-0.2345,0.0702,-0.0058,0.0047,-0.0276,298,2019-08-07 16:46:20:246
-6.3934,-6.9839,0.7367,-0.2817,-0.2345,0.0702,-0.0058,0.0047,-0.0276,303,2019-08-07 16:46:20:251
-6.3934,-6.9839,0.7367,-0.2817,-0.2345,0.0702,-0.0112,-0.007,-0.0191,309,2019-08-07 16:46:20:257
-6.3934,-6.9839,0.7367,-0.2817,-0.2345,0.0702,-0.0112,-0.007,-0.0191,313,2019-08-07 16:46:20:261
-6.2451,-6.9887,0.798,-0.3642,-0.2284,0.0507,-0.0101,-0.0187,-0.0106,318,2019-08-07 16:46:20:266
-6.2451,-6.9887,0.798,-0.3642,-0.2284,0.0507,-0.0101,-0.0187,-0.0106,323,2019-08-07 16:46:20:271
-6.2451,-6.9887,0.798,-0.3642,-0.2284,0.0507,-0.0101,-0.0187,-0.0106,327,2019-08-07 16:46:20:275
-6.1973,-6.9266,0.7744,-0.3642,-0.2284,0.0507,-0.0026,-0.0219,0.0022,333,2019-08-07 16:46:20:281
-6.1973,-6.9266,0.7744,-0.4535,-0.3108,0.0624,-0.0026,-0.0219,0.0022,338,2019-08-07 16:46:20:286
-6.135,-6.9171,0.798,-0.4535,-0.3108,0.0624,6.0E-4,-0.0198,0.0118,343,2019-08-07 16:46:20:291
-6.135,-6.9171,0.798,-0.4535,-0.3108,0.0624,6.0E-4,-0.0198,0.0118,348,2019-08-07 16:46:20:296
-6.1207,-6.8311,0.7744,-0.4535,-0.3108,0.0624,-0.0048,-0.0059,0.0342,352,2019-08-07 16:46:20:300
-6.1207,-6.8311,0.7744,-0.5132,-0.3467,0.1064,-0.0048,-0.0059,0.0342,359,2019-08-07 16:46:20:307
-6.1207,-6.8311,0.7744,-0.5132,-0.3467,0.1064,-0.0133,0.0196,0.0416,363,2019-08-07 16:46:20:311
-6.2211,-6.8025,0.732,-0.5132,-0.3467,0.1064,-0.0133,0.0196,0.0416,368,2019-08-07 16:46:20:316
-6.2211,-6.8025,0.732,-0.5132,-0.3467,0.1064,-0.0133,0.0196,0.0416,373,2019-08-07 16:46:20:321
-6.2211,-6.8073,0.7556,-0.1898,-0.3888,0.0644,-0.0122,0.0175,0.0448,377,2019-08-07 16:46:20:325
-6.4269,-6.8073,0.7556,-0.1898,-0.3888,0.0644,-0.0122,0.0175,0.0448,382,2019-08-07 16:46:20:330
-6.4269,-6.8073,0.7556,-0.1898,-0.3888,0.0644,-0.0218,5.0E-4,0.048,388,2019-08-07 16:46:20:336
-6.3599,-6.8502,0.6754,-0.1898,-0.3888,0.0644,-0.0218,5.0E-4,0.048,393,2019-08-07 16:46:20:341
-6.3599,-6.8502,0.6754,-0.1898,-0.3888,0.0644,-0.0314,0.0047,0.0363,398,2019-08-07 16:46:20:346
-6.3599,-6.8502,0.6754,-0.2256,-0.3637,0.1495,-0.0314,0.0047,0.0363,403,2019-08-07 16:46:20:351
-6.4221,-6.898,0.6424,-0.2256,-0.3637,0.1495,-0.0399,0.0281,0.0288,408,2019-08-07 16:46:20:356
-6.4221,-6.898,0.6424,-0.2256,-0.3637,0.1495,-0.0399,0.0281,0.0288,414,2019-08-07 16:46:20:362
-6.5082,-6.9505,0.6566,-0.2256,-0.3637,0.1495,-0.0346,0.0473,0.0171,418,2019-08-07 16:46:20:366
-6.5082,-6.9505,0.6566,-0.12,-0.2224,0.1296,-0.0346,0.0473,0.0171,422,2019-08-07 16:46:20:370
-6.5082,-6.9505,0.6566,-0.12,-0.2224,0.1296,-0.0239,0.0431,0.0075,428,2019-08-07 16:46:20:376
-6.5847,-7.0317,0.6849,-0.12,-0.2224,0.1296,-0.0239,0.0431,0.0075,433,2019-08-07 16:46:20:381
-6.5847,-7.0317,0.6849,-0.12,-0.2224,0.1296,-0.0218,0.0239,0.0011,438,2019-08-07 16:46:20:386
-6.4842,-7.0651,0.7367,-0.1076,-0.1071,0.0632,-0.0218,0.0239,0.0011,443,2019-08-07 16:46:20:391
-6.4842,-7.0651,0.7367,-0.1076,-0.1071,0.0632,-0.0175,0.0015,-0.0042,448,2019-08-07 16:46:20:396
-6.4842,-7.0651,0.7367,-0.1076,-0.1071,0.0632,-0.0175,0.0015,-0.0042,452,2019-08-07 16:46:20:400
-6.4316,-6.96,0.7414,-0.1076,-0.1071,0.0632,-0.0154,-0.0187,-0.0063,459,2019-08-07 16:46:20:407
-6.4316,-6.96,0.7414,-0.2359,-0.2419,0.0318,-0.0154,-0.0187,-0.0063,463,2019-08-07 16:46:20:411
-6.2928,-6.9839,0.7132,-0.2359,-0.2419,0.0318,-0.0154,-0.0187,-0.0063,468,2019-08-07 16:46:20:416
-6.2928,-6.9839,0.7132,-0.2359,-0.2419,0.0318,-0.0186,-0.039,0.0033,473,2019-08-07 16:46:20:421
-6.2928,-6.9839,0.7132,-0.2359,-0.2419,0.0318,-0.0186,-0.039,0.0033,478,2019-08-07 16:46:20:426
-6.2641,-6.9744,0.7273,-0.3643,-0.2138,0.0669,-0.0207,-0.0443,0.0086,483,2019-08-07 16:46:20:431
-6.2641,-6.9744,0.7273,-0.3643,-0.2138,0.0669,-0.0207,-0.0443,0.0086,488,2019-08-07 16:46:20:436
-6.1971,-6.9887,0.7132,-0.3643,-0.2138,0.0669,-0.0229,-0.0304,0.0129,493,2019-08-07 16:46:20:441
-6.1971,-6.9887,0.7132,-0.3643,-0.2138,0.0669,-0.0229,-0.0304,0.0129,498,2019-08-07 16:46:20:446
-6.1971,-6.9887,0.7132,-0.4125,-0.2611,0.096,-0.0239,-0.0049,0.016,503,2019-08-07 16:46:20:451
-6.2402,-6.9123,0.6849,-0.4125,-0.2611,0.096,-0.0239,-0.0049,0.016,509,2019-08-07 16:46:20:457
-6.2402,-6.9123,0.6849,-0.4125,-0.2611,0.096,-0.0239,-0.0049,0.016,513,2019-08-07 16:46:20:461
-6.3646,-6.9266,0.7037,-0.4125,-0.2611,0.096,-0.0282,0.0196,0.0129,518,2019-08-07 16:46:20:466
-6.3646,-6.9266,0.7037,-0.2375,-0.2742,0.081,-0.0282,0.0196,0.0129,523,2019-08-07 16:46:20:471
-6.3646,-6.9266,0.7037,-0.2375,-0.2742,0.081,-0.0314,0.0303,0.0097,528,2019-08-07 16:46:20:476
-6.4794,-6.8932,0.7367,-0.2375,-0.2742,0.081,-0.0314,0.0303,0.0097,533,2019-08-07 16:46:20:481
-6.4794,-6.8932,0.7367,-0.2375,-0.2742,0.081,-0.0314,0.0303,0.0097,537,2019-08-07 16:46:20:485
-6.5081,-6.9171,0.8122,-0.1148,-0.2259,0.0248,-0.0346,0.026,-0.0031,543,2019-08-07 16:46:20:491
-6.5081,-6.9171,0.8122,-0.1148,-0.2259,0.0248,-0.0346,0.026,-0.0031,547,2019-08-07 16:46:20:495
-6.5081,-6.9171,0.8122,-0.1148,-0.2259,0.0248,-0.0335,0.0079,-0.0074,553,2019-08-07 16:46:20:501
-6.465,-6.898,0.7839,-0.1148,-0.2259,0.0248,-0.0335,0.0079,-0.0074,557,2019-08-07 16:46:20:505
-6.465,-6.898,0.7839,-0.2194,-0.2747,-0.0132,-0.0325,-0.0177,-0.0074,564,2019-08-07 16:46:20:512
-6.465,-6.898,0.7839,-0.2194,-0.2747,-0.0132,-0.0325,-0.0177,-0.0074,568,2019-08-07 16:46:20:516
-6.3263,-6.9314,0.7179,-0.2194,-0.2747,-0.0132,-0.0357,-0.0272,-0.0031,573,2019-08-07 16:46:20:521
-6.3263,-6.9314,0.7179,-0.2194,-0.2747,-0.0132,-0.0357,-0.0272,-0.0031,578,2019-08-07 16:46:20:526
-6.2593,-7.0221,0.7462,-0.3713,-0.1664,0.0272,-0.0346,-0.0294,0.0033,583,2019-08-07 16:46:20:531
-6.2593,-7.0221,0.7462,-0.3713,-0.1664,0.0272,-0.0346,-0.0294,0.0033,588,2019-08-07 16:46:20:536
-6.2593,-7.0221,0.7462,-0.3713,-0.1664,0.0272,-0.0261,-0.0283,0.0139,593,2019-08-07 16:46:20:541
-6.1636,-7.003,0.7745,-0.3713,-0.1664,0.0272,-0.0261,-0.0283,0.0139,598,2019-08-07 16:46:20:546
-6.1636,-7.003,0.7745,-0.4863,-0.1853,0.0746,-0.0186,-0.0209,0.0256,602,2019-08-07 16:46:20:550
-6.1588,-6.9792,0.7132,-0.4863,-0.1853,0.0746,-0.0186,-0.0209,0.0256,608,2019-08-07 16:46:20:556
-6.1588,-6.9792,0.7132,-0.4863,-0.1853,0.0746,-0.0186,-0.0209,0.0256,612,2019-08-07 16:46:20:560
-6.1588,-6.9792,0.7132,-0.4863,-0.1853,0.0746,-0.0133,-0.0081,0.0331,618,2019-08-07 16:46:20:566
-6.1875,-6.9553,0.7415,-0.4465,-0.2301,0.0315,-0.0133,-0.0081,0.0331,622,2019-08-07 16:46:20:570
-6.1875,-6.9553,0.7415,-0.4465,-0.2301,0.0315,-0.0143,0.0026,0.0405,628,2019-08-07 16:46:20:576
-6.1875,-6.9553,0.7415,-0.4465,-0.2301,0.0315,-0.0143,0.0026,0.0405,633,2019-08-07 16:46:20:581
-6.3406,-6.9744,0.6943,-0.4465,-0.2301,0.0315,-0.0165,0.0047,0.0374,637,2019-08-07 16:46:20:585
-6.3406,-6.9744,0.6943,-0.2507,-0.2065,0.1088,-0.0165,0.0047,0.0374,643,2019-08-07 16:46:20:591
-6.3693,-7.0221,0.6613,-0.2507,-0.2065,0.1088,-0.0197,-6.0E-4,0.0342,647,2019-08-07 16:46:20:595
-6.3693,-7.0221,0.6613,-0.2507,-0.2065,0.1088,-0.0197,-6.0E-4,0.0342,653,2019-08-07 16:46:20:601
-6.3693,-7.0221,0.6613,-0.2507,-0.2065,0.1088,-0.0261,0.0036,0.0235,657,2019-08-07 16:46:20:605
-6.4506,-7.0746,0.6189,-0.2115,-0.1319,0.142,-0.0261,0.0036,0.0235,663,2019-08-07 16:46:20:611
-6.4506,-7.0746,0.6189,-0.2115,-0.1319,0.142,-0.025,0.0079,0.0107,668,2019-08-07 16:46:20:616
-6.4888,-7.0699,0.6236,-0.2115,-0.1319,0.142,-0.025,0.0079,0.0107,672,2019-08-07 16:46:20:620
-6.4888,-7.0699,0.6236,-0.2115,-0.1319,0.142,-0.0143,0.0143,0.0022,678,2019-08-07 16:46:20:626
-6.4888,-7.0699,0.6236,-0.1833,-0.0937,0.0896,-0.0143,0.0143,0.0022,683,2019-08-07 16:46:20:631
-6.4601,-7.0412,0.6661,-0.1833,-0.0937,0.0896,-0.0058,0.0175,-0.0106,689,2019-08-07 16:46:20:637
-6.4601,-7.0412,0.6661,-0.1833,-0.0937,0.0896,-0.0058,0.0175,-0.0106,693,2019-08-07 16:46:20:641
-6.4123,-7.046,0.6802,-0.1833,-0.0937,0.0896,-0.0026,0.009,-0.0127,698,2019-08-07 16:46:20:646
-6.4123,-7.046,0.6802,-0.2296,-0.1433,0.1051,-0.0026,0.009,-0.0127,703,2019-08-07 16:46:20:651
-6.4123,-7.046,0.6802,-0.2296,-0.1433,0.1051,-0.0026,0.009,-0.0127,708,2019-08-07 16:46:20:656
-6.3596,-6.9935,0.6991,-0.2296,-0.1433,0.1051,-5.0E-4,0.0015,-0.0127,712,2019-08-07 16:46:20:660
-6.3596,-6.9935,0.6991,-0.2296,-0.1433,0.1051,0.0059,-0.0123,-0.0074,718,2019-08-07 16:46:20:666
-6.3596,-6.9935,0.6991,-0.2296,-0.1433,0.1051,0.0059,-0.0123,-0.0074,722,2019-08-07 16:46:20:670
-6.3022,-7.0078,0.8075,-0.3375,-0.1738,-0.0495,0.0059,-0.0123,-0.0074,728,2019-08-07 16:46:20:676
-6.3022,-7.0078,0.8075,-0.3375,-0.1738,-0.0495,0.008,-0.0304,0.0022,733,2019-08-07 16:46:20:681
-6.2065,-6.9648,0.7085,-0.3375,-0.1738,-0.0495,0.008,-0.0304,0.0022,737,2019-08-07 16:46:20:685
-6.2065,-6.9648,0.7085,-0.3375,-0.1738,-0.0495,0.0059,-0.0294,0.0097,743,2019-08-07 16:46:20:691
-6.2065,-6.9457,0.7132,-0.4371,-0.217,0.1304,0.0059,-0.0294,0.0097,747,2019-08-07 16:46:20:695
-6.2065,-6.9457,0.7132,-0.4371,-0.217,0.1304,0.0059,-0.0294,0.0097,753,2019-08-07 16:46:20:701
-6.2065,-6.9457,0.7132,-0.4371,-0.217,0.1304,0.0048,-0.0091,0.0097,758,2019-08-07 16:46:20:706
-6.2496,-6.9648,0.7038,-0.4371,-0.217,0.1304,0.0048,-0.0091,0.0097,763,2019-08-07 16:46:20:711
-6.2496,-6.9648,0.7038,-0.3465,-0.2117,0.0711,0.0091,0.0143,0.0075,768,2019-08-07 16:46:20:716
-6.3165,-6.9219,0.6991,-0.3465,-0.2117,0.0711,0.0091,0.0143,0.0075,772,2019-08-07 16:46:20:720
-6.3165,-6.9219,0.6991,-0.3372,-0.226,0.1127,0.0123,0.0324,-0.001,778,2019-08-07 16:46:20:726
-6.3165,-6.9219,0.6991,-0.3372,-0.226,0.1127,0.0123,0.0324,-0.001,782,2019-08-07 16:46:20:730
-6.4409,-6.898,0.7274,-0.3372,-0.226,0.1127,0.0133,0.0345,-0.0021,788,2019-08-07 16:46:20:736
-6.4409,-6.898,0.7274,-0.3372,-0.226,0.1127,0.0133,0.0345,-0.0021,792,2019-08-07 16:46:20:740
-6.46,-6.8885,0.7604,-0.1797,-0.2975,0.0389,0.0059,0.026,-0.0053,798,2019-08-07 16:46:20:746
-6.46,-6.8885,0.7604,-0.1797,-0.2975,0.0389,0.0059,0.026,-0.0053,802,2019-08-07 16:46:20:750
-6.46,-6.8885,0.7604,-0.1797,-0.2975,0.0389,0.0059,-6.0E-4,-0.0085,809,2019-08-07 16:46:20:757
-6.4457,-6.898,0.7792,-0.1797,-0.2975,0.0389,0.0059,-6.0E-4,-0.0085,813,2019-08-07 16:46:20:761
-6.4457,-6.898,0.7792,-0.1795,-0.2929,0.0388,0.0038,-0.024,1.0E-4,818,2019-08-07 16:46:20:766
-6.3548,-6.8741,0.7698,-0.1795,-0.2929,0.0388,0.0038,-0.024,1.0E-4,823,2019-08-07 16:46:20:771
-6.3548,-6.8741,0.7698,-0.1795,-0.2929,0.0388,0.0016,-0.0336,0.0043,828,2019-08-07 16:46:20:776
-6.3548,-6.8741,0.7698,-0.1795,-0.2929,0.0388,0.0016,-0.0336,0.0043,832,2019-08-07 16:46:20:780
-6.2926,-6.8598,0.6661,-0.3467,-0.3214,0.0996,-0.0026,-0.0262,0.0139,838,2019-08-07 16:46:20:786
-6.2926,-6.8598,0.6661,-0.3467,-0.3214,0.0996,-0.0026,-0.0262,0.0139,843,2019-08-07 16:46:20:791
-6.2686,-6.8741,0.6378,-0.3467,-0.3214,0.0996,-0.0048,-0.0123,0.0203,848,2019-08-07 16:46:20:796
-6.2686,-6.8741,0.6378,-0.3467,-0.3214,0.0996,-0.0048,-0.0123,0.0203,853,2019-08-07 16:46:20:801
-6.2686,-6.8741,0.6378,-0.315,-0.2862,0.0724,-0.0048,-0.0123,0.0203,857,2019-08-07 16:46:20:805
-6.3117,-6.898,0.6661,-0.315,-0.2862,0.0724,-0.0069,5.0E-4,0.0235,863,2019-08-07 16:46:20:811
-6.3117,-6.898,0.6661,-0.315,-0.2862,0.0724,-0.008,0.0143,0.0246,868,2019-08-07 16:46:20:816
-6.3691,-6.9171,0.6755,-0.315,-0.2862,0.0724,-0.008,0.0143,0.0246,873,2019-08-07 16:46:20:821
-6.3691,-6.9171,0.6755,-0.2847,-0.2215,0.0886,-0.008,0.0143,0.0246,877,2019-08-07 16:46:20:825
-6.3691,-6.9171,0.6755,-0.2847,-0.2215,0.0886,-0.0101,0.025,0.015,883,2019-08-07 16:46:20:831
-6.4121,-6.9553,0.6378,-0.2847,-0.2215,0.0886,-0.0101,0.025,0.015,887,2019-08-07 16:46:20:835
-6.4121,-6.9553,0.6378,-0.2847,-0.2215,0.0886,-0.0069,0.0281,0.0107,893,2019-08-07 16:46:20:841
-6.4121,-6.9553,0.6378,-0.2057,-0.2152,-0.0062,-0.0069,0.0281,0.0107,898,2019-08-07 16:46:20:846
-6.4552,-6.941,0.7509,-0.2057,-0.2152,-0.0062,-0.0048,0.0218,0.0033,902,2019-08-07 16:46:20:850
-6.4552,-6.941,0.7509,-0.2057,-0.2152,-0.0062,-0.0048,0.0218,0.0033,909,2019-08-07 16:46:20:857
-6.4504,-7.0174,0.7179,-0.2057,-0.2152,-0.0062,-0.0048,0.0218,0.0033,912,2019-08-07 16:46:20:860
-6.4504,-7.0174,0.7179,-0.2009,-0.2008,0.061,-5.0E-4,0.0164,-0.0021,918,2019-08-07 16:46:20:866
-6.4504,-7.0174,0.7179,-0.2009,-0.2008,0.061,-5.0E-4,0.0164,-0.0021,923,2019-08-07 16:46:20:871
-6.4269,-6.9982,0.6566,-0.2009,-0.2008,0.061,0.0027,0.009,-0.0074,927,2019-08-07 16:46:20:875
-6.4269,-6.9982,0.6566,-0.2009,-0.2008,0.061,0.0027,0.009,-0.0074,933,2019-08-07 16:46:20:881
-6.3599,-6.9935,0.7131,-0.2858,-0.183,0.0412,0.0133,-0.0027,-0.0053,937,2019-08-07 16:46:20:885
-6.3599,-6.9935,0.7131,-0.2858,-0.183,0.0412,0.0133,-0.0027,-0.0053,943,2019-08-07 16:46:20:891
-6.3599,-6.9935,0.7131,-0.2858,-0.183,0.0412,0.0197,-0.0102,-0.0042,948,2019-08-07 16:46:20:896
-6.3456,-6.9553,0.6754,-0.2858,-0.183,0.0412,0.0197,-0.0102,-0.0042,952,2019-08-07 16:46:20:900
-6.3456,-6.9553,0.6754,-0.342,-0.2935,0.0921,0.0208,-0.0134,-0.0021,958,2019-08-07 16:46:20:906
-6.3408,-6.8932,0.732,-0.342,-0.2935,0.0921,0.0208,-0.0134,-0.0021,964,2019-08-07 16:46:20:912
-6.3408,-6.8932,0.732,-0.342,-0.2935,0.0921,0.0208,-0.0134,-0.0021,968,2019-08-07 16:46:20:916
-6.3408,-6.8932,0.732,-0.342,-0.2935,0.0921,0.0208,-0.0134,0.0011,973,2019-08-07 16:46:20:921
-6.2977,-6.9314,0.7226,-0.3128,-0.2696,0.031,0.0208,-0.0134,0.0011,977,2019-08-07 16:46:20:925
-6.2977,-6.9314,0.7226,-0.3128,-0.2696,0.031,0.0197,-0.0059,-0.0021,983,2019-08-07 16:46:20:931
-6.269,-6.9218,0.7461,-0.3128,-0.2696,0.031,0.0197,-0.0059,-0.0021,987,2019-08-07 16:46:20:935
-6.269,-6.9218,0.7461,-0.3128,-0.2696,0.031,0.0165,0.0079,-0.0063,993,2019-08-07 16:46:20:941
-6.269,-6.9218,0.7461,-0.4166,-0.2611,0.029,0.0165,0.0079,-0.0063,998,2019-08-07 16:46:20:946
-6.1877,-6.9409,0.7273,-0.4166,-0.2611,0.029,0.0283,0.0239,-0.018,1002,2019-08-07 16:46:20:950
-6.1877,-6.9409,0.7273,-0.4166,-0.2611,0.029,0.0283,0.0239,-0.018,1009,2019-08-07 16:46:20:957
-6.2499,-6.9123,0.6613,-0.4166,-0.2611,0.029,0.024,0.0601,-0.0255,1013,2019-08-07 16:46:20:961
-6.2499,-6.9123,0.6613,-0.3128,-0.2502,0.1009,0.024,0.0601,-0.0255,1018,2019-08-07 16:46:20:966
-6.2499,-6.9123,0.6613,-0.3128,-0.2502,0.1009,0.008,0.075,-0.0255,1023,2019-08-07 16:46:20:971
-6.379,-6.9505,0.732,-0.3128,-0.2502,0.1009,0.008,0.075,-0.0255,1027,2019-08-07 16:46:20:975
-6.379,-6.9505,0.732,-0.3128,-0.2502,0.1009,0.0048,0.0718,-0.0223,1033,2019-08-07 16:46:20:981
-6.3886,-7.0126,0.7367,-0.2479,-0.1725,0.0164,0.0048,0.0718,-0.0223,1038,2019-08-07 16:46:20:986
-6.3886,-7.0126,0.7367,-0.2479,-0.1725,0.0164,6.0E-4,0.0537,-0.0191,1042,2019-08-07 16:46:20:990
-6.3886,-7.0126,0.7367,-0.2479,-0.1725,0.0164,6.0E-4,0.0537,-0.0191,1047,2019-08-07 16:46:20:995
-6.4221,-6.9887,0.7367,-0.2479,-0.1725,0.0164,-0.008,0.0143,-0.0053,1053,2019-08-07 16:46:21:001
-6.4221,-6.9887,0.7367,-0.2479,-0.1725,0.0164,-0.008,0.0143,-0.0053,1057,2019-08-07 16:46:21:005
-6.3647,-6.9839,0.6707,-0.2559,-0.27,0.0302,-0.0048,0.0026,-0.0063,1064,2019-08-07 16:46:21:012
-6.3647,-6.9839,0.6707,-0.2559,-0.27,0.0302,-0.0048,0.0026,-0.0063,1068,2019-08-07 16:46:21:016
-6.3647,-6.9839,0.6707,-0.2559,-0.27,0.0302,-0.0048,0.0026,-0.0063,1072,2019-08-07 16:46:21:020
-6.3455,-6.9457,0.7131,-0.2559,-0.27,0.0302,0.0038,-6.0E-4,-0.001,1077,2019-08-07 16:46:21:025
-6.3455,-6.9457,0.7131,-0.322,-0.2184,0.0153,0.0038,-6.0E-4,-0.001,1084,2019-08-07 16:46:21:032
-6.3455,-6.9457,0.7131,-0.322,-0.2184,0.0153,0.0038,-6.0E-4,-0.001,1088,2019-08-07 16:46:21:036
-6.3025,-6.898,0.6943,-0.322,-0.2184,0.0153,0.0048,-0.0038,0.0086,1093,2019-08-07 16:46:21:041
-6.3025,-6.898,0.6943,-0.2655,-0.3177,0.1294,0.0048,-0.0038,0.0086,1098,2019-08-07 16:46:21:046
-6.3503,-6.8455,0.666,-0.2655,-0.3177,0.1294,0.0133,0.0079,0.0129,1103,2019-08-07 16:46:21:051
-6.3503,-6.8455,0.666,-0.2655,-0.3177,0.1294,0.0133,0.0079,0.0129,1108,2019-08-07 16:46:21:056
-6.3503,-6.8455,0.666,-0.2655,-0.3177,0.1294,0.0133,0.0079,0.0129,1113,2019-08-07 16:46:21:061
-6.4412,-6.8121,0.6566,-0.2655,-0.3177,0.1294,0.0133,0.0079,0.0129,1118,2019-08-07 16:46:21:066
-6.4412,-6.8121,0.6566,-0.1868,-0.363,0.0777,0.0059,5.0E-4,0.0129,1122,2019-08-07 16:46:21:070
-6.4269,-6.8502,0.6613,-0.1868,-0.363,0.0777,0.0059,5.0E-4,0.0129,1128,2019-08-07 16:46:21:076
-6.4269,-6.8502,0.6613,-0.1868,-0.363,0.0777,0.0038,-0.0134,0.0129,1133,2019-08-07 16:46:21:081
-6.4269,-6.8502,0.6613,-0.1868,-0.363,0.0777,0.0038,-0.0134,0.0129,1138,2019-08-07 16:46:21:086
-6.4077,-6.855,0.6754,-0.2608,-0.3322,0.1168,-0.0016,-0.0219,0.0075,1143,2019-08-07 16:46:21:091
-6.4077,-6.855,0.6754,-0.2608,-0.3322,0.1168,-0.0016,-0.0219,0.0075,1148,2019-08-07 16:46:21:096
-6.4077,-6.855,0.6754,-0.2608,-0.3322,0.1168,-0.0048,-0.023,0.0054,1153,2019-08-07 16:46:21:101
-6.3838,-6.9075,0.7037,-0.2608,-0.3322,0.1168,-0.0048,-0.023,0.0054,1158,2019-08-07 16:46:21:106
-6.3838,-6.9075,0.7037,-0.2618,-0.2595,0.0904,-0.0048,-0.023,0.0054,1164,2019-08-07 16:46:21:112
-6.3359,-6.9219,0.6802,-0.2618,-0.2595,0.0904,-0.0133,-0.0272,0.0086,1168,2019-08-07 16:46:21:116
-6.3359,-6.9219,0.6802,-0.2618,-0.2595,0.0904,-0.0133,-0.0272,0.0086,1173,2019-08-07 16:46:21:121
-6.3359,-6.9219,0.6802,-0.2618,-0.2595,0.0904,-0.0165,-0.0198,0.0065,1177,2019-08-07 16:46:21:125
-6.2881,-6.9648,0.6189,-0.353,-0.2161,0.1336,-0.0165,-0.0198,0.0065,1183,2019-08-07 16:46:21:131
-6.2881,-6.9648,0.6189,-0.353,-0.2161,0.1336,-0.0186,-0.0166,0.0075,1188,2019-08-07 16:46:21:136
-6.2881,-6.9648,0.6189,-0.353,-0.2161,0.1336,-0.0186,-0.0166,0.0075,1193,2019-08-07 16:46:21:141
-6.3312,-6.9744,0.6802,-0.353,-0.2161,0.1336,-0.0133,-0.0123,0.0054,1198,2019-08-07 16:46:21:146
-6.3312,-6.9744,0.6802,-0.272,-0.2063,0.0715,-0.0133,-0.0123,0.0054,1203,2019-08-07 16:46:21:151
-6.3312,-6.9744,0.6802,-0.272,-0.2063,0.0715,-0.0133,-0.0123,0.0054,1208,2019-08-07 16:46:21:156
-6.3407,-6.9553,0.6802,-0.272,-0.2063,0.0715,-0.0154,-0.0145,0.0043,1213,2019-08-07 16:46:21:161
-6.3407,-6.9553,0.6802,-0.272,-0.2063,0.0715,-0.0154,-0.0145,0.0043,1218,2019-08-07 16:46:21:166
-6.3407,-6.9553,0.6802,-0.3008,-0.2159,0.0799,-0.0165,-0.0027,0.0043,1223,2019-08-07 16:46:21:171
-6.379,-6.9935,0.7084,-0.3008,-0.2159,0.0799,-0.0165,-0.0027,0.0043,1228,2019-08-07 16:46:21:176
-6.379,-6.9935,0.7084,-0.3008,-0.2159,0.0799,-0.008,0.0026,0.0011,1234,2019-08-07 16:46:21:182
-6.379,-6.9935,0.7084,-0.3008,-0.2159,0.0799,-0.008,0.0026,0.0011,1237,2019-08-07 16:46:21:185
-6.422,-6.9744,0.6896,-0.2292,-0.2207,0.026,-0.008,5.0E-4,-0.0021,1243,2019-08-07 16:46:21:191
-6.422,-6.9744,0.6896,-0.2292,-0.2207,0.026,-0.008,5.0E-4,-0.0021,1249,2019-08-07 16:46:21:197
-6.3551,-6.9553,0.6896,-0.2292,-0.2207,0.026,-0.008,-0.0081,-0.0031,1254,2019-08-07 16:46:21:202
-6.3551,-6.9553,0.6896,-0.2292,-0.2207,0.026,-0.008,-0.0081,-0.0031,1258,2019-08-07 16:46:21:206
-6.3551,-6.9553,0.6896,-0.2381,-0.1928,0.0536,-0.0037,-0.0145,-0.0095,1263,2019-08-07 16:46:21:211
-6.4507,-6.9935,0.6613,-0.2381,-0.1928,0.0536,-0.0037,-0.0145,-0.0095,1267,2019-08-07 16:46:21:215
-6.4507,-6.9935,0.6613,-0.2381,-0.1928,0.0536,-0.0048,-0.0209,-0.0095,1273,2019-08-07 16:46:21:221
-6.422,-6.9266,0.6754,-0.2381,-0.1928,0.0536,-0.0048,-0.0209,-0.0095,1279,2019-08-07 16:46:21:227
-6.422,-6.9266,0.6754,-0.2748,-0.2323,0.0738,-0.0101,-0.0251,-0.0031,1284,2019-08-07 16:46:21:232
-6.422,-6.9266,0.6754,-0.2748,-0.2323,0.0738,-0.0101,-0.0251,-0.0031,1287,2019-08-07 16:46:21:235
-6.3742,-6.9744,0.7179,-0.2748,-0.2323,0.0738,-0.0058,-0.0304,-0.0074,1293,2019-08-07 16:46:21:241
-6.3742,-6.9744,0.7179,-0.2748,-0.2323,0.0738,-0.0058,-0.0304,-0.0074,1298,2019-08-07 16:46:21:246
-6.3742,-6.9744,0.7179,-0.2877,-0.2095,0.0764,-0.0037,-0.0283,-0.0031,1303,2019-08-07 16:46:21:251
-6.3263,-7.003,0.6896,-0.2877,-0.2095,0.0764,-0.0037,-0.0283,-0.0031,1308,2019-08-07 16:46:21:256
-6.3263,-7.003,0.6896,-0.2877,-0.2095,0.0764,-0.0037,-0.0283,-0.0031,1312,2019-08-07 16:46:21:260
-6.3407,-6.9791,0.7273,-0.2877,-0.2095,0.0764,-0.0037,-0.0294,-0.001,1318,2019-08-07 16:46:21:266
-6.3407,-6.9791,0.7273,-0.2248,-0.1908,-4.0E-4,-0.0037,-0.0294,-0.001,1323,2019-08-07 16:46:21:271
-6.3407,-6.9791,0.7273,-0.2248,-0.1908,-4.0E-4,0.0016,-0.039,0.0011,1328,2019-08-07 16:46:21:276
-6.3455,-6.9696,0.7744,-0.2248,-0.1908,-4.0E-4,0.0016,-0.039,0.0011,1334,2019-08-07 16:46:21:282
-6.3455,-6.9696,0.7744,-0.2248,-0.1908,-4.0E-4,0.0048,-0.0507,0.0022,1338,2019-08-07 16:46:21:286
-6.3455,-6.9696,0.7744,-0.3244,-0.2529,0.0862,0.0048,-0.0507,0.0022,1343,2019-08-07 16:46:21:291
-6.2594,-6.9028,0.7179,-0.3244,-0.2529,0.0862,0.0048,-0.039,-0.0042,1348,2019-08-07 16:46:21:296
-6.2594,-6.9028,0.7179,-0.3244,-0.2529,0.0862,0.0048,-0.039,-0.0042,1353,2019-08-07 16:46:21:301
-6.2594,-6.9028,0.7179,-0.3244,-0.2529,0.0862,0.0048,-0.039,-0.0042,1358,2019-08-07 16:46:21:306
-6.2833,-6.8789,0.6566,-0.3468,-0.2825,0.0864,0.0048,-0.0219,-0.0063,1363,2019-08-07 16:46:21:311
-6.2833,-6.8789,0.6566,-0.3468,-0.2825,0.0864,0.0048,-0.0219,-0.0063,1367,2019-08-07 16:46:21:315
-6.2785,-6.9171,0.6519,-0.3468,-0.2825,0.0864,0.0048,0.0058,-0.0063,1373,2019-08-07 16:46:21:321
-6.2785,-6.9171,0.6519,-0.3468,-0.2825,0.0864,0.0048,0.0058,-0.0063,1378,2019-08-07 16:46:21:326
-6.2785,-6.9171,0.6519,-0.2832,-0.2694,0.0764,0.0016,0.0164,-0.0053,1383,2019-08-07 16:46:21:331
-6.3933,-6.9266,0.7037,-0.2832,-0.2694,0.0764,0.0016,0.0164,-0.0053,1387,2019-08-07 16:46:21:335
-6.3933,-6.9266,0.7037,-0.2832,-0.2694,0.0764,0.0016,0.0164,-0.0053,1393,2019-08-07 16:46:21:341
-6.3455,-7.003,0.7179,-0.2832,-0.2694,0.0764,-5.0E-4,0.0122,-0.0042,1398,2019-08-07 16:46:21:346
-6.3455,-7.003,0.7179,-0.2394,-0.2084,0.0555,-0.0037,0.0015,-0.0074,1403,2019-08-07 16:46:21:351
-6.3455,-7.003,0.7179,-0.2394,-0.2084,0.0555,-0.0037,0.0015,-0.0074,1408,2019-08-07 16:46:21:356
-6.3742,-6.9601,0.7085,-0.2394,-0.2084,0.0555,-0.0037,0.0015,-0.0074,1412,2019-08-07 16:46:21:360
-6.3742,-6.9601,0.7085,-0.2052,-0.2377,0.0175,-0.0037,-0.0113,-0.0074,1418,2019-08-07 16:46:21:366
-6.3742,-6.9601,0.7085,-0.2052,-0.2377,0.0175,-0.0037,-0.0113,-0.0074,1423,2019-08-07 16:46:21:371
-6.3407,-6.9839,0.7226,-0.2052,-0.2377,0.0175,-0.0037,-0.0209,-0.0095,1428,2019-08-07 16:46:21:376
-6.3407,-6.9839,0.7226,-0.342,-0.1295,0.01,-0.0037,-0.0209,-0.0095,1434,2019-08-07 16:46:21:382
-6.3024,-7.0126,0.6943,-0.342,-0.1295,0.01,-0.0058,-0.024,-0.0085,1438,2019-08-07 16:46:21:386
-6.3024,-7.0126,0.6943,-0.342,-0.1295,0.01,-0.0058,-0.024,-0.0085,1443,2019-08-07 16:46:21:391
-6.3024,-7.0126,0.6943,-0.342,-0.1295,0.01,-0.0058,-0.024,-0.0085,1448,2019-08-07 16:46:21:396
-6.3119,-7.046,0.6707,-0.342,-0.1295,0.01,-0.0037,-0.0166,-0.0106,1452,2019-08-07 16:46:21:400
-6.3119,-7.046,0.6707,-0.3444,-0.1792,0.0683,-0.0037,-0.0166,-0.0106,1458,2019-08-07 16:46:21:406
-6.288,-7.003,0.7179,-0.3444,-0.1792,0.0683,6.0E-4,-6.0E-4,-0.0116,1463,2019-08-07 16:46:21:411
-6.288,-7.003,0.7179,-0.3444,-0.1792,0.0683,6.0E-4,-6.0E-4,-0.0116,1468,2019-08-07 16:46:21:416
-6.288,-7.003,0.7179,-0.3444,-0.1792,0.0683,6.0E-4,-6.0E-4,-0.0116,1473,2019-08-07 16:46:21:421
-6.3933,-7.0221,0.732,-0.232,-0.1719,0.0355,6.0E-4,0.0079,-0.0116,1478,2019-08-07 16:46:21:426
-6.3933,-7.0221,0.732,-0.232,-0.1719,0.0355,6.0E-4,0.0079,-0.0116,1483,2019-08-07 16:46:21:431
-6.3933,-7.0221,0.732,-0.232,-0.1719,0.0355,0.0059,0.0026,-0.018,1487,2019-08-07 16:46:21:435
-6.3502,-6.9839,0.7792,-0.232,-0.1719,0.0355,0.0059,0.0026,-0.018,1493,2019-08-07 16:46:21:441
-6.3502,-6.9839,0.7792,-0.2485,-0.2554,-0.0213,0.0059,-0.007,-0.0159,1499,2019-08-07 16:46:21:447
-6.3741,-6.898,0.8027,-0.2485,-0.2554,-0.0213,0.0059,-0.007,-0.0159,1503,2019-08-07 16:46:21:451
-6.3741,-6.898,0.8027,-0.2485,-0.2554,-0.0213,0.0059,-0.007,-0.0159,1507,2019-08-07 16:46:21:455
-6.3741,-6.898,0.8027,-0.2485,-0.2554,-0.0213,0.007,-0.0198,-0.0159,1513,2019-08-07 16:46:21:461
-6.288,-6.9314,0.7226,-0.332,-0.2671,0.0475,0.007,-0.0198,-0.0159,1519,2019-08-07 16:46:21:467
-6.288,-6.9314,0.7226,-0.332,-0.2671,0.0475,0.0059,-0.0123,-0.0159,1523,2019-08-07 16:46:21:471
-6.3598,-6.9505,0.7367,-0.332,-0.2671,0.0475,0.0059,-0.0123,-0.0159,1528,2019-08-07 16:46:21:476
-6.3598,-6.9505,0.7367,-0.332,-0.2671,0.0475,0.0016,-0.0166,-0.0116,1534,2019-08-07 16:46:21:482
-6.3598,-6.9505,0.7367,-0.2912,-0.2453,0.0076,0.0016,-0.0166,-0.0116,1537,2019-08-07 16:46:21:485
-6.355,-6.9696,0.7037,-0.2912,-0.2453,0.0076,0.0091,-0.0113,-0.0106,1543,2019-08-07 16:46:21:491
-6.355,-6.9696,0.7037,-0.2912,-0.2453,0.0076,0.0091,-0.0113,-0.0106,1548,2019-08-07 16:46:21:496
-6.3071,-6.9553,0.7085,-0.2912,-0.2453,0.0076,0.0144,-0.0049,-0.0127,1554,2019-08-07 16:46:21:502
-6.3071,-6.9553,0.7085,-0.2841,-0.2376,0.095,0.0144,-0.0049,-0.0127,1557,2019-08-07 16:46:21:505
-6.3071,-6.9553,0.7085,-0.2841,-0.2376,0.095,0.0144,-0.0049,-0.0127,1563,2019-08-07 16:46:21:511
-6.3933,-7.0317,0.6896,-0.2841,-0.2376,0.095,0.0208,-0.0017,-0.0127,1568,2019-08-07 16:46:21:516
-6.3933,-7.0317,0.6896,-0.2841,-0.2376,0.095,0.0208,-0.0017,-0.0127,1573,2019-08-07 16:46:21:521
-6.3933,-7.0317,0.6896,-0.1908,-0.2156,0.0838,0.0251,-0.0027,-0.0212,1578,2019-08-07 16:46:21:526
-6.4124,-6.9505,0.7603,-0.1908,-0.2156,0.0838,0.0251,-0.0027,-0.0212,1583,2019-08-07 16:46:21:531
-6.4124,-6.9505,0.7603,-0.1908,-0.2156,0.0838,0.0229,-0.0113,-0.017,1588,2019-08-07 16:46:21:536
-6.4267,-7.0078,0.7179,-0.1908,-0.2156,0.0838,0.0229,-0.0113,-0.017,1593,2019-08-07 16:46:21:541
-6.4267,-7.0078,0.7179,-0.2026,-0.2509,0.0461,0.0219,-0.0219,-0.017,1598,2019-08-07 16:46:21:546
-6.3741,-6.9744,0.7037,-0.2026,-0.2509,0.0461,0.0219,-0.0219,-0.017,1604,2019-08-07 16:46:21:552
-6.3741,-6.9744,0.7037,-0.2026,-0.2509,0.0461,0.0219,-0.0219,-0.017,1608,2019-08-07 16:46:21:556
-6.3741,-6.9744,0.7037,-0.2026,-0.2509,0.0461,0.0176,-0.0283,-0.0212,1612,2019-08-07 16:46:21:560
-6.398,-6.9744,0.7697,-0.2086,-0.2343,0.0194,0.0176,-0.0283,-0.0212,1618,2019-08-07 16:46:21:566
-6.398,-6.9744,0.7697,-0.2086,-0.2343,0.0194,0.0155,-0.0347,-0.0191,1623,2019-08-07 16:46:21:571
-6.398,-6.9744,0.7697,-0.2086,-0.2343,0.0194,0.0155,-0.0347,-0.0191,1628,2019-08-07 16:46:21:576
-6.2975,-6.9553,0.7556,-0.2086,-0.2343,0.0194,0.0112,-0.039,-0.0202,1633,2019-08-07 16:46:21:581
-6.2975,-6.9553,0.7556,-0.2716,-0.2182,0.0217,0.0112,-0.039,-0.0202,1638,2019-08-07 16:46:21:586
-6.3071,-6.9887,0.732,-0.2716,-0.2182,0.0217,0.0038,-0.04,-0.0223,1643,2019-08-07 16:46:21:591
-6.3071,-6.9887,0.732,-0.2716,-0.2182,0.0217,0.0038,-0.04,-0.0223,1648,2019-08-07 16:46:21:596
-6.3071,-6.9887,0.732,-0.2716,-0.2182,0.0217,0.0016,-0.0304,-0.0223,1653,2019-08-07 16:46:21:601
-6.2353,-7.0126,0.7462,-0.3626,-0.2028,0.0552,0.0016,-0.0304,-0.0223,1658,2019-08-07 16:46:21:606
-6.2353,-7.0126,0.7462,-0.3626,-0.2028,0.0552,0.0091,-0.0209,-0.0287,1663,2019-08-07 16:46:21:611
-6.2353,-7.0126,0.7462,-0.3626,-0.2028,0.0552,0.0091,-0.0209,-0.0287,1667,2019-08-07 16:46:21:615
-6.2688,-6.9648,0.765,-0.3626,-0.2028,0.0552,0.0165,-0.0123,-0.0276,1673,2019-08-07 16:46:21:621
-6.2688,-6.9648,0.765,-0.3337,-0.245,0.0168,0.0165,-0.0123,-0.0276,1678,2019-08-07 16:46:21:626
-6.2497,-6.9648,0.7415,-0.3337,-0.245,0.0168,0.0165,-0.0059,-0.0191,1684,2019-08-07 16:46:21:632
-6.2497,-6.9648,0.7415,-0.3337,-0.245,0.0168,0.0165,-0.0059,-0.0191,1688,2019-08-07 16:46:21:636
-6.2497,-6.9648,0.7415,-0.3337,-0.245,0.0168,0.0155,-0.0219,-0.0148,1693,2019-08-07 16:46:21:641
-6.288,-6.9362,0.8075,-0.2829,-0.3476,0.0069,0.0155,-0.0219,-0.0148,1699,2019-08-07 16:46:21:647
-6.288,-6.9362,0.8075,-0.2829,-0.3476,0.0069,0.0155,-0.0422,-0.0042,1703,2019-08-07 16:46:21:651
-6.288,-6.9362,0.8075,-0.2829,-0.3476,0.0069,0.0155,-0.0422,-0.0042,1708,2019-08-07 16:46:21:656
-6.2736,-6.9219,0.7886,-0.2829,-0.3476,0.0069,0.0144,-0.0507,0.0043,1714,2019-08-07 16:46:21:662
-6.2736,-6.9219,0.7886,-0.3869,-0.3001,0.0905,0.0144,-0.0507,0.0043,1718,2019-08-07 16:46:21:666
-6.264,-6.9028,0.7509,-0.3869,-0.3001,0.0905,0.0144,-0.0507,0.0043,1723,2019-08-07 16:46:21:671
-6.264,-6.9028,0.7509,-0.3869,-0.3001,0.0905,0.0123,-0.0592,0.0075,1728,2019-08-07 16:46:21:676
-6.264,-6.9028,0.7509,-0.3869,-0.3001,0.0905,0.0123,-0.0592,0.0075,1733,2019-08-07 16:46:21:681
-6.221,-6.8407,0.7509,-0.3774,-0.3323,0.0573,0.0091,-0.0603,0.015,1738,2019-08-07 16:46:21:686
-6.221,-6.8407,0.7509,-0.3774,-0.3323,0.0573,0.0091,-0.0603,0.015,1743,2019-08-07 16:46:21:691
-6.1301,-6.8932,0.7226,-0.3774,-0.3323,0.0573,0.007,-0.0475,0.0203,1748,2019-08-07 16:46:21:696
-6.1301,-6.8932,0.7226,-0.3774,-0.3323,0.0573,0.007,-0.0475,0.0203,1753,2019-08-07 16:46:21:701
-6.1301,-6.8932,0.7226,-0.3774,-0.3323,0.0573,0.007,-0.0475,0.0203,1758,2019-08-07 16:46:21:706
-6.1157,-6.941,0.6849,-0.5079,-0.2635,0.1438,0.0016,-0.0166,0.0224,1764,2019-08-07 16:46:21:712
-6.1157,-6.941,0.6849,-0.5079,-0.2635,0.1438,0.0016,-0.0166,0.0224,1768,2019-08-07 16:46:21:716
-6.1157,-6.941,0.6849,-0.5079,-0.2635,0.1438,0.0038,0.0196,0.0278,1773,2019-08-07 16:46:21:721
-6.1635,-6.9266,0.7132,-0.5079,-0.2635,0.1438,0.0038,0.0196,0.0278,1778,2019-08-07 16:46:21:726
-6.1635,-6.9266,0.7132,-0.3867,-0.3085,0.0579,0.0059,0.0271,0.0374,1783,2019-08-07 16:46:21:731
-6.2592,-6.8789,0.732,-0.3867,-0.3085,0.0579,0.0059,0.0271,0.0374,1789,2019-08-07 16:46:21:737
-6.2592,-6.8789,0.732,-0.3867,-0.3085,0.0579,0.0027,0.0218,0.0448,1793,2019-08-07 16:46:21:741
-6.2592,-6.8789,0.732,-0.3867,-0.3085,0.0579,0.0027,0.0218,0.0448,1798,2019-08-07 16:46:21:746
-6.2927,-6.9075,0.7038,-0.2783,-0.3125,0.0833,-0.009,-0.0059,0.0544,1804,2019-08-07 16:46:21:752
-6.2927,-6.9075,0.7038,-0.2783,-0.3125,0.0833,-0.009,-0.0059,0.0544,1808,2019-08-07 16:46:21:756
-6.2162,-6.9171,0.8216,-0.2783,-0.3125,0.0833,-0.009,-0.0059,0.0544,1813,2019-08-07 16:46:21:761
-6.2162,-6.9171,0.8216,-0.2783,-0.3125,0.0833,-0.008,-0.0262,0.0587,1818,2019-08-07 16:46:21:766
-6.2162,-6.9171,0.8216,-0.4344,-0.3483,0.0225,-0.008,-0.0262,0.0587,1823,2019-08-07 16:46:21:771
-6.1396,-6.855,0.831,-0.4344,-0.3483,0.0225,-0.008,-0.0272,0.0682,1828,2019-08-07 16:46:21:776
-6.1396,-6.855,0.831,-0.4344,-0.3483,0.0225,-0.008,-0.0272,0.0682,1834,2019-08-07 16:46:21:782
-6.1396,-6.855,0.831,-0.4344,-0.3483,0.0225,-0.008,-0.0049,0.081,1838,2019-08-07 16:46:21:786
-6.0439,-6.8168,0.7556,-0.573,-0.3776,0.0762,-0.008,-0.0049,0.081,1844,2019-08-07 16:46:21:792
-6.0439,-6.8168,0.7556,-0.573,-0.3776,0.0762,-0.0112,0.0143,0.0927,1847,2019-08-07 16:46:21:795
-6.02,-6.6832,0.7698,-0.573,-0.3776,0.0762,-0.0112,0.0143,0.0927,1853,2019-08-07 16:46:21:801
-6.02,-6.6832,0.7698,-0.573,-0.3776,0.0762,-0.0112,0.0143,0.0927,1858,2019-08-07 16:46:21:806
-6.02,-6.6832,0.7698,-0.5243,-0.5136,-0.0071,-0.0165,0.0164,0.1098,1863,2019-08-07 16:46:21:811
-6.0726,-6.6354,0.8735,-0.5243,-0.5136,-0.0071,-0.0165,0.0164,0.1098,1868,2019-08-07 16:46:21:816
-6.0726,-6.6354,0.8735,-0.5243,-0.5136,-0.0071,-0.0207,0.0015,0.1386,1873,2019-08-07 16:46:21:821
-5.953,-6.4636,0.8405,-0.5243,-0.5136,-0.0071,-0.0325,-0.0198,0.1599,1879,2019-08-07 16:46:21:827
-5.953,-6.4636,0.8405,-0.7543,-0.6486,-2.0E-4,-0.0325,-0.0198,0.1599,1883,2019-08-07 16:46:21:831
-5.953,-6.4636,0.8405,-0.7543,-0.6486,-2.0E-4,-0.0325,-0.0198,0.1599,1887,2019-08-07 16:46:21:835
-5.776,-6.4158,0.7132,-0.7543,-0.6486,-2.0E-4,-0.0452,-0.0304,0.211,1893,2019-08-07 16:46:21:841
-5.776,-6.4158,0.7132,-0.7543,-0.6486,-2.0E-4,-0.0452,-0.0304,0.211,1898,2019-08-07 16:46:21:846
-5.776,-6.4158,0.7132,-0.9078,-0.9606,-0.0021,-0.0335,-0.0134,0.2824,1903,2019-08-07 16:46:21:851
-5.7234,-6.0196,0.9159,-0.9078,-0.9606,-0.0021,-0.0335,-0.0134,0.2824,1908,2019-08-07 16:46:21:856
-5.7234,-6.0196,0.9159,-0.9912,-1.2797,-0.2804,-0.0239,-0.0177,0.3473,1913,2019-08-07 16:46:21:861
-5.6994,-5.4086,1.3118,-0.9912,-1.2797,-0.2804,-0.0239,-0.0177,0.3473,1918,2019-08-07 16:46:21:866
-5.6994,-5.4086,1.3118,-0.9912,-1.2797,-0.2804,-0.0154,-0.088,0.5007,1923,2019-08-07 16:46:21:871
-5.6994,-5.4086,1.3118,-0.9912,-1.2797,-0.2804,-0.0154,-0.088,0.5007,1928,2019-08-07 16:46:21:876
-5.5081,-4.7928,1.4721,-1.2593,-2.2597,-0.6342,-0.025,-0.1679,0.6254,1933,2019-08-07 16:46:21:881
-5.5081,-4.7928,1.4721,-1.2593,-2.2597,-0.6342,-0.025,-0.1679,0.6254,1938,2019-08-07 16:46:21:886
-5.5081,-4.7928,1.4721,-1.2593,-2.2597,-0.6342,-0.025,-0.1679,0.6254,1943,2019-08-07 16:46:21:891
-4.5847,-3.9191,2.1038,-1.2593,-2.2597,-0.6342,-0.0676,-0.398,0.9077,1948,2019-08-07 16:46:21:896
-4.5847,-3.9191,2.1038,-2.7805,-3.3299,-1.2873,-0.0676,-0.398,0.9077,1953,2019-08-07 16:46:21:901
-4.5847,-3.9191,2.1038,-2.7805,-3.3299,-1.2873,-0.1145,-0.6749,1.3178,1958,2019-08-07 16:46:21:906
-3.1494,-3.2508,2.0566,-2.7805,-3.3299,-1.2873,-0.1145,-0.6749,1.3178,1963,2019-08-07 16:46:21:911
-3.1494,-3.2508,2.0566,-2.7805,-3.3299,-1.2873,-0.1592,-0.8784,1.7482,1969,2019-08-07 16:46:21:917
-3.1494,-3.2508,2.0566,-6.0725,-3.9725,-0.878,-0.1592,-0.8784,1.7482,1973,2019-08-07 16:46:21:921
-0.4846,-2.6398,1.8257,-6.0725,-3.9725,-0.878,-0.1912,-1.0211,2.2765,1978,2019-08-07 16:46:21:926
-0.4846,-2.6398,1.8257,-8.3683,-4.191,-0.2764,-0.1912,-1.0211,2.2765,1984,2019-08-07 16:46:21:932
-0.4846,-2.6398,1.8257,-8.3683,-4.191,-0.2764,-0.1912,-1.0211,2.2765,1988,2019-08-07 16:46:21:936
2.6491,-1.8616,0.6095,-8.3683,-4.191,-0.2764,-0.1922,-0.9423,3.019,1993,2019-08-07 16:46:21:941
2.6491,-1.8616,0.6095,-8.3683,-4.191,-0.2764,-0.1922,-0.9423,3.019,1998,2019-08-07 16:46:21:946
4.5102,-0.3197,-0.0976,-12.0297,-5.8635,1.3058,-0.1741,-0.6898,3.6891,2003,2019-08-07 16:46:21:951
4.5102,-0.3197,-0.0976,-12.0297,-5.8635,1.3058,-0.1741,-0.6898,3.6891,2008,2019-08-07 16:46:21:956
4.5102,-0.3197,-0.0976,-12.3382,-7.205,1.4614,-0.1145,-0.3852,4.2505,2013,2019-08-07 16:46:21:961
4.381,1.714,-0.0976,-12.3382,-7.205,1.4614,-0.1145,-0.3852,4.2505,2018,2019-08-07 16:46:21:966
4.381,1.714,-0.0976,-12.3382,-7.205,1.4614,0.0144,0.1869,5.2667,2023,2019-08-07 16:46:21:971
2.7783,2.9265,0.6284,-12.3382,-7.205,1.4614,0.0144,0.1869,5.2667,2027,2019-08-07 16:46:21:975
2.7783,2.9265,0.6284,-10.453,-8.1362,0.1331,0.0528,0.417,6.0156,2032,2019-08-07 16:46:21:980
2.7783,2.9265,0.6284,-10.453,-8.1362,0.1331,0.0528,0.417,6.0156,2038,2019-08-07 16:46:21:986
1.1947,3.3848,1.5664,-10.453,-8.1362,0.1331,0.0528,0.417,6.0156,2043,2019-08-07 16:46:21:991
1.1947,3.3848,1.5664,-8.7877,-8.1465,-0.7855,0.0293,0.1421,6.757,2049,2019-08-07 16:46:21:997
-2.1495,4.2489,2.2923,-8.7877,-8.1465,-0.7855,0.0293,0.1421,6.757,2052,2019-08-07 16:46:22:000
-2.1495,4.2489,2.2923,-8.7877,-8.1465,-0.7855,0.0283,-0.6941,7.5155,2058,2019-08-07 16:46:22:006
-2.1495,4.2489,2.2923,-8.7877,-8.1465,-0.7855,0.0283,-0.6941,7.5155,2062,2019-08-07 16:46:22:010
-4.1158,4.0818,2.5469,-5.1205,-7.1073,-1.2153,0.0442,-1.378,7.9895,2068,2019-08-07 16:46:22:016
-4.1158,4.0818,2.5469,-5.1205,-7.1073,-1.2153,0.0442,-1.378,7.9895,2073,2019-08-07 16:46:22:021
-4.1158,4.0818,2.5469,-5.1205,-7.1073,-1.2153,0.1209,-2.8161,8.7512,2078,2019-08-07 16:46:22:026
-5.6037,2.8549,2.9051,-3.8279,-3.6171,-0.7367,0.1209,-2.8161,8.7512,2083,2019-08-07 16:46:22:031
-5.6037,2.8549,2.9051,-3.8279,-3.6171,-0.7367,0.3628,-4.3501,9.4063,2088,2019-08-07 16:46:22:036
-5.642,1.4609,1.6701,-3.8279,-3.6171,-0.7367,0.3628,-4.3501,9.4063,2093,2019-08-07 16:46:22:041
-5.642,1.4609,1.6701,-3.8279,-3.6171,-0.7367,0.6259,-5.0393,9.743,2099,2019-08-07 16:46:22:047
-5.642,1.4609,1.6701,-4.759,0.5709,1.9803,0.6259,-5.0393,9.743,2103,2019-08-07 16:46:22:051
-4.4029,-0.229,0.5058,-4.759,0.5709,1.9803,0.6259,-5.0393,9.743,2109,2019-08-07 16:46:22:057
-4.4029,-0.229,0.5058,-4.759,0.5709,1.9803,1.4717,-5.5304,10.1169,2113,2019-08-07 16:46:22:061
-4.4029,-0.229,0.5058,-5.8993,2.0023,3.6826,1.4717,-5.5304,10.1169,2118,2019-08-07 16:46:22:066
-2.4222,-0.0285,-1.2336,-5.8993,2.0023,3.6826,2.4081,-5.0372,10.1659,2123,2019-08-07 16:46:22:071
-2.4222,-0.0285,-1.2336,-6.9291,1.3822,4.1285,2.4081,-5.0372,10.1659,2128,2019-08-07 16:46:22:076
-2.4222,-0.0285,-1.2336,-6.9291,1.3822,4.1285,3.3157,-4.055,10.0082,2133,2019-08-07 16:46:22:081
-3.1733,4.583,1.2977,-6.9291,1.3822,4.1285,3.3157,-4.055,10.0082,2137,2019-08-07 16:46:22:085
-3.1733,4.583,1.2977,-6.9291,1.3822,4.1285,4.1796,-3.3146,9.8452,2143,2019-08-07 16:46:22:091
-8.68,9.247,4.0553,-0.3757,-3.7246,0.5174,4.1796,-3.3146,9.8452,2149,2019-08-07 16:46:22:097
-8.68,9.247,4.0553,-0.3757,-3.7246,0.5174,4.1796,-3.3146,9.8452,2153,2019-08-07 16:46:22:101
-8.68,9.247,4.0553,-0.3757,-3.7246,0.5174,4.7506,-3.4798,9.6535,2158,2019-08-07 16:46:22:106
-15.5836,14.7322,8.8964,-0.3757,-3.7246,0.5174,4.7506,-3.4798,9.6535,2163,2019-08-07 16:46:22:111
-15.5836,14.7322,8.8964,11.4976,-11.7377,-5.9411,5.1202,-4.626,9.237,2167,2019-08-07 16:46:22:115
-20.9372,23.1532,10.4614,11.4976,-11.7377,-5.9411,5.1202,-4.626,9.237,2173,2019-08-07 16:46:22:121
-20.9372,23.1532,10.4614,11.4976,-11.7377,-5.9411,5.509,-6.5147,8.6926,2178,2019-08-07 16:46:22:126
-20.9372,23.1532,10.4614,11.4976,-11.7377,-5.9411,5.509,-6.5147,8.6926,2183,2019-08-07 16:46:22:131
-21.1477,27.5594,7.1806,16.4952,-19.8378,-3.3118,5.9522,-8.8721,8.2708,2188,2019-08-07 16:46:22:136
-21.1477,27.5594,7.1806,16.4952,-19.8378,-3.3118,5.9522,-8.8721,8.2708,2192,2019-08-07 16:46:22:140
-12.182,25.0961,0.2041,16.4952,-19.8378,-3.3118,5.7487,-9.1906,7.7754,2198,2019-08-07 16:46:22:146
-12.182,25.0961,0.2041,16.4952,-19.8378,-3.3118,5.7487,-9.1906,7.7754,2203,2019-08-07 16:46:22:151
-12.182,25.0961,0.2041,1.2166,-15.8313,5.4049,5.7487,-9.1906,7.7754,2207,2019-08-07 16:46:22:155
-1.4749,24.719,-1.4127,1.2166,-15.8313,5.4049,4.8262,-7.2167,6.6771,2213,2019-08-07 16:46:22:161
-1.4749,24.719,-1.4127,1.2166,-15.8313,5.4049,4.8262,-7.2167,6.6771,2218,2019-08-07 16:46:22:166
5.0891,24.6665,-1.4504,1.2166,-15.8313,5.4049,3.0323,-4.496,4.83,2223,2019-08-07 16:46:22:171
5.0891,24.6665,-1.4504,-7.1078,-14.6294,4.4124,3.0323,-4.496,4.83,2227,2019-08-07 16:46:22:175
5.0891,24.6665,-1.4504,-7.1078,-14.6294,4.4124,1.5292,-1.6912,3.4622,2233,2019-08-07 16:46:22:181
6.8162,19.5203,-0.4935,-7.1078,-14.6294,4.4124,1.5292,-1.6912,3.4622,2238,2019-08-07 16:46:22:186
6.8162,19.5203,-0.4935,-7.1078,-14.6294,4.4124,0.2232,1.5568,2.1508,2243,2019-08-07 16:46:22:191
5.8642,15.1809,6.5631,-6.4233,-5.8015,-3.7436,0.2232,1.5568,2.1508,2248,2019-08-07 16:46:22:196
5.8642,15.1809,6.5631,-6.4233,-5.8015,-3.7436,-0.5257,4.5086,0.1503,2253,2019-08-07 16:46:22:201
-1.3409,13.0995,16.858,-6.4233,-5.8015,-3.7436,-0.5257,4.5086,0.1503,2258,2019-08-07 16:46:22:206
-1.3409,13.0995,16.858,-6.4233,-5.8015,-3.7436,-0.1347,5.4141,-1.4647,2263,2019-08-07 16:46:22:211
-1.3409,13.0995,16.858,6.4387,-4.3371,-14.7576,-0.1347,5.4141,-1.4647,2268,2019-08-07 16:46:22:216
-11.8327,14.5508,16.0991,6.4387,-4.3371,-14.7576,-0.1347,5.4141,-1.4647,2272,2019-08-07 16:46:22:220
-11.8327,14.5508,16.0991,6.4387,-4.3371,-14.7576,-0.2381,4.7324,-2.7813,2278,2019-08-07 16:46:22:226
-18.612,17.3291,15.5759,6.4387,-4.3371,-14.7576,-0.2381,4.7324,-2.7813,2284,2019-08-07 16:46:22:232
-18.612,17.3291,15.5759,17.6438,-8.2749,-12.6482,-1.0018,2.9491,-3.1478,2287,2019-08-07 16:46:22:235
-18.612,17.3291,15.5759,17.6438,-8.2749,-12.6482,-1.0018,2.9491,-3.1478,2293,2019-08-07 16:46:22:241
-19.3201,17.2718,14.8028,17.6438,-8.2749,-12.6482,-1.7752,1.1019,-3.1574,2298,2019-08-07 16:46:22:246
-19.3201,17.2718,14.8028,17.6438,-8.2749,-12.6482,-1.7752,1.1019,-3.1574,2303,2019-08-07 16:46:22:251
-19.3201,17.2718,14.8028,11.4972,-6.2957,-9.8404,-2.9502,-1.5026,-3.0636,2308,2019-08-07 16:46:22:256
-12.1054,14.9231,12.7146,11.4972,-6.2957,-9.8404,-2.9502,-1.5026,-3.0636,2313,2019-08-07 16:46:22:261
-12.1054,14.9231,12.7146,4.8677,-5.4004,-8.9943,-3.2602,-1.8297,-3.2437,2318,2019-08-07 16:46:22:266
-12.1054,14.9231,12.7146,4.8677,-5.4004,-8.9943,-3.2602,-1.8297,-3.2437,2323,2019-08-07 16:46:22:271
-3.9435,13.7535,13.2991,4.8677,-5.4004,-8.9943,-3.2602,-1.8297,-3.2437,2328,2019-08-07 16:46:22:276
-3.9435,13.7535,13.2991,4.8677,-5.4004,-8.9943,-2.7159,-1.035,-3.7955,2333,2019-08-07 16:46:22:281
-3.9435,13.7535,13.2991,0.4798,-5.8827,-1.3507,-2.7159,-1.035,-3.7955,2338,2019-08-07 16:46:22:286
-3.2259,14.3216,4.2674,0.4798,-5.8827,-1.3507,-3.0024,0.614,-4.2439,2343,2019-08-07 16:46:22:291
-3.2259,14.3216,4.2674,0.4798,-5.8827,-1.3507,-3.0024,0.614,-4.2439,2349,2019-08-07 16:46:22:297
-2.3408,13.9684,1.524,0.4798,-5.8827,-1.3507,-3.6213,2.2609,-4.8629,2354,2019-08-07 16:46:22:302
-2.3408,13.9684,1.524,-0.7776,-5.4973,2.9504,-3.6213,2.2609,-4.8629,2358,2019-08-07 16:46:22:306
-2.3408,13.9684,1.524,-0.7776,-5.4973,2.9504,-3.6213,2.2609,-4.8629,2362,2019-08-07 16:46:22:310
-4.752,12.4932,2.2876,-0.7776,-5.4973,2.9504,-4.1614,3.8812,-5.714,2367,2019-08-07 16:46:22:315
-4.752,12.4932,2.2876,-0.7776,-5.4973,2.9504,-4.1614,3.8812,-5.714,2373,2019-08-07 16:46:22:321
-11.1151,10.5026,6.4829,5.9442,-3.6532,-1.7306,-4.3361,5.086,-6.5002,2377,2019-08-07 16:46:22:325
-11.1151,10.5026,6.4829,5.9442,-3.6532,-1.7306,-4.3361,5.086,-6.5002,2383,2019-08-07 16:46:22:331
-11.1151,10.5026,6.4829,5.9442,-3.6532,-1.7306,-3.8003,5.4035,-6.8442,2388,2019-08-07 16:46:22:336
-13.1819,8.2875,7.5482,5.9442,-3.6532,-1.7306,-3.8003,5.4035,-6.8442,2393,2019-08-07 16:46:22:341
-13.1819,8.2875,7.5482,7.0503,-1.5067,-2.2778,-3.2602,5.1169,-7.0573,2399,2019-08-07 16:46:22:347
-13.8134,6.7933,6.3368,7.0503,-1.5067,-2.2778,-3.2602,5.1169,-7.0573,2403,2019-08-07 16:46:22:351
-13.8134,6.7933,6.3368,7.0503,-1.5067,-2.2778,-3.2602,5.1169,-7.0573,2407,2019-08-07 16:46:22:355
-13.8134,6.7933,6.3368,7.0503,-1.5067,-2.2778,-2.9928,4.4256,-7.199,2413,2019-08-07 16:46:22:361
-13.1914,6.0629,4.8284,5.245,-1.5498,-0.1972,-2.9928,4.4256,-7.199,2418,2019-08-07 16:46:22:366
-13.1914,6.0629,4.8284,5.245,-1.5498,-0.1972,-2.9768,3.1451,-7.1766,2423,2019-08-07 16:46:22:371
-13.1914,6.0629,4.8284,5.245,-1.5498,-0.1972,-2.9768,3.1451,-7.1766,2427,2019-08-07 16:46:22:375
-11.45,5.1988,3.8149,5.245,-1.5498,-0.1972,-3.0269,2.2524,-7.0349,2433,2019-08-07 16:46:22:381
-11.45,5.1988,3.8149,1.1082,-1.5364,-0.1727,-3.0269,2.2524,-7.0349,2438,2019-08-07 16:46:22:386
-9.5506,4.4589,4.225,1.1082,-1.5364,-0.1727,-2.9715,1.6825,-6.9156,2443,2019-08-07 16:46:22:391
-9.5506,4.4589,4.225,1.1082,-1.5364,-0.1727,-2.9715,1.6825,-6.9156,2449,2019-08-07 16:46:22:397
-9.5506,4.4589,4.225,1.1082,-1.5364,-0.1727,-2.4687,1.2564,-6.694,2453,2019-08-07 16:46:22:401
-6.1394,3.6378,3.5887,1.1082,-1.5364,-0.1727,-2.4687,1.2564,-6.694,2457,2019-08-07 16:46:22:405
-6.1394,3.6378,3.5887,-3.0736,-2.0479,0.9052,-2.2035,1.1797,-6.6173,2463,2019-08-07 16:46:22:411
-4.2544,3.2702,0.619,-3.0736,-2.0479,0.9052,-2.2035,1.1797,-6.6173,2468,2019-08-07 16:46:22:416
-4.2544,3.2702,0.619,-3.0736,-2.0479,0.9052,-2.2035,1.1797,-6.6173,2472,2019-08-07 16:46:22:420
-4.2544,3.2702,0.619,-3.0736,-2.0479,0.9052,-2.0639,1.413,-6.5364,2478,2019-08-07 16:46:22:426
-2.8479,2.6448,-0.2107,-6.2238,-2.4376,3.9386,-2.0639,1.413,-6.5364,2482,2019-08-07 16:46:22:430
-2.8479,2.6448,-0.2107,-6.2238,-2.4376,3.9386,-1.9734,1.9648,-6.5321,2488,2019-08-07 16:46:22:436
-2.8574,0.8547,0.2136,-6.2238,-2.4376,3.9386,-1.9734,1.9648,-6.5321,2493,2019-08-07 16:46:22:441
-2.8574,0.8547,0.2136,-5.9907,-1.4957,2.7234,-1.6804,2.5219,-6.5247,2498,2019-08-07 16:46:22:446
-2.8574,0.8547,0.2136,-5.9907,-1.4957,2.7234,-1.6804,2.5219,-6.5247,2503,2019-08-07 16:46:22:451
-3.5799,-0.1765,0.6284,-5.9907,-1.4957,2.7234,-1.6804,2.5219,-6.5247,2508,2019-08-07 16:46:22:456
-3.5799,-0.1765,0.6284,-5.9907,-1.4957,2.7234,-1.135,3.0386,-6.4022,2514,2019-08-07 16:46:22:462
-3.5799,-0.1765,0.6284,-5.9907,-1.4957,2.7234,-1.135,3.0386,-6.4022,2517,2019-08-07 16:46:22:465
-3.9195,-0.6061,-0.3002,-5.2118,-1.755,2.9985,-0.7622,3.4157,-6.1785,2523,2019-08-07 16:46:22:471
-3.9195,-0.6061,-0.3002,-5.2118,-1.755,2.9985,-0.7622,3.4157,-6.1785,2528,2019-08-07 16:46:22:476
-3.9004,-0.6921,0.4068,-5.2118,-1.755,2.9985,-0.5278,3.6586,-6.0123,2533,2019-08-07 16:46:22:481
-3.9004,-0.6921,0.4068,-4.6678,-2.7847,1.2257,-0.5278,3.6586,-6.0123,2538,2019-08-07 16:46:22:486
-3.9004,-0.6921,0.4068,-4.6678,-2.7847,1.2257,-0.5278,3.6586,-6.0123,2542,2019-08-07 16:46:22:490
-4.7711,-0.6968,0.9018,-4.6678,-2.7847,1.2257,-0.2072,3.698,-5.7279,2549,2019-08-07 16:46:22:497
-4.7711,-0.6968,0.9018,-4.6678,-2.7847,1.2257,-0.2072,3.698,-5.7279,2552,2019-08-07 16:46:22:500
-4.7711,-0.6968,0.9018,-4.6678,-2.7847,1.2257,-0.2072,3.698,-5.7279,2558,2019-08-07 16:46:22:506
-5.6323,-0.7064,1.3732,-2.8246,-3.7459,-0.1795,0.0613,3.3443,-5.2591,2564,2019-08-07 16:46:22:512
-5.6323,-0.7064,1.3732,-2.8246,-3.7459,-0.1795,0.0613,3.3443,-5.2591,2568,2019-08-07 16:46:22:516
-5.9911,-0.4725,2.2924,-2.8246,-3.7459,-0.1795,0.2413,2.5965,-4.6945,2573,2019-08-07 16:46:22:521
-5.9911,-0.4725,2.2924,-2.8246,-3.7459,-0.1795,0.2413,2.5965,-4.6945,2579,2019-08-07 16:46:22:527
-5.9911,-0.4725,2.2924,-2.6839,-4.8939,-1.2839,0.3404,1.9019,-4.2567,2582,2019-08-07 16:46:22:530
-5.24,-0.3292,2.1085,-2.6839,-4.8939,-1.2839,0.3404,1.9019,-4.2567,2588,2019-08-07 16:46:22:536
-5.24,-0.3292,2.1085,-2.6839,-4.8939,-1.2839,0.3574,1.2362,-3.8466,2592,2019-08-07 16:46:22:540
-4.5415,-0.4152,1.557,-2.6839,-4.8939,-1.2839,0.3574,1.2362,-3.8466,2598,2019-08-07 16:46:22:546
-4.5415,-0.4152,1.557,-3.5884,-5.263,-0.5145,0.2594,0.6971,-3.3587,2603,2019-08-07 16:46:22:551
-3.8812,-0.9355,1.227,-3.5884,-5.263,-0.5145,0.2594,0.6971,-3.3587,2608,2019-08-07 16:46:22:556
-3.8812,-0.9355,1.227,-3.5884,-5.263,-0.5145,0.2594,0.6971,-3.3587,2613,2019-08-07 16:46:22:561
-3.8812,-0.9355,1.227,-3.5884,-5.263,-0.5145,0.1667,0.4958,-2.972,2618,2019-08-07 16:46:22:566
-3.1636,-2.1767,1.4156,-4.3065,-4.1401,-0.687,0.1667,0.4958,-2.972,2623,2019-08-07 16:46:22:571
-3.1636,-2.1767,1.4156,-4.3065,-4.1401,-0.687,0.1177,0.4298,-2.5203,2628,2019-08-07 16:46:22:576
-2.8861,-3.3272,0.7698,-4.3065,-4.1401,-0.687,0.1177,0.4298,-2.5203,2633,2019-08-07 16:46:22:581
-2.8861,-3.3272,0.7698,-4.3065,-4.1401,-0.687,0.1263,0.5682,-2.123,2638,2019-08-07 16:46:22:586
-2.8861,-3.3272,0.7698,-4.3548,-2.867,0.0526,0.1263,0.5682,-2.123,2643,2019-08-07 16:46:22:591
-3.0631,-3.9287,0.6567,-4.3548,-2.867,0.0526,0.1465,0.6556,-1.8183,2649,2019-08-07 16:46:22:597
-3.0631,-3.9287,0.6567,-4.3548,-2.867,0.0526,0.1465,0.6556,-1.8183,2653,2019-08-07 16:46:22:601
-3.0631,-3.9287,0.6567,-4.3548,-2.867,0.0526,0.1465,0.6556,-1.8183,2658,2019-08-07 16:46:22:606
-3.8286,-4.0958,0.52,-2.9307,-2.8235,-0.0264,0.1976,0.712,-1.5179,2663,2019-08-07 16:46:22:611
-3.8286,-4.0958,0.52,-2.9307,-2.8235,-0.0264,0.1976,0.712,-1.5179,2668,2019-08-07 16:46:22:616
-4.6706,-4.2724,0.6048,-2.9307,-2.8235,-0.0264,0.269,0.6577,-1.1909,2672,2019-08-07 16:46:22:620
-4.6706,-4.2724,0.6048,-2.9307,-2.8235,-0.0264,0.269,0.6577,-1.1909,2678,2019-08-07 16:46:22:626
-4.862,-4.5207,0.4446,-1.887,-2.5765,0.1192,0.3031,0.581,-0.9523,2683,2019-08-07 16:46:22:631
-4.862,-4.5207,0.4446,-1.887,-2.5765,0.1192,0.3031,0.581,-0.9523,2688,2019-08-07 16:46:22:636
-4.862,-4.5207,0.4446,-1.887,-2.5765,0.1192,0.3446,0.516,-0.7861,2693,2019-08-07 16:46:22:641
-5.2208,-5.2845,0.4068,-1.887,-2.5765,0.1192,0.3446,0.516,-0.7861,2698,2019-08-07 16:46:22:646
-5.2208,-5.2845,0.4068,-1.2079,-1.7119,0.0123,0.3446,0.516,-0.7861,2703,2019-08-07 16:46:22:651
-5.2208,-5.2845,0.4068,-1.2079,-1.7119,0.0123,0.3905,0.4585,-0.6338,2707,2019-08-07 16:46:22:655
-5.5653,-5.7714,0.718,-0.9075,-1.3829,-0.1857,0.4022,0.3978,-0.5421,2714,2019-08-07 16:46:22:662
-5.5653,-5.7714,0.718,-0.9075,-1.3829,-0.1857,0.4022,0.3978,-0.5421,2717,2019-08-07 16:46:22:665
-5.7662,-6.2154,0.8264,-0.9075,-1.3829,-0.1857,0.4022,0.3978,-0.5421,2723,2019-08-07 16:46:22:671
-5.7662,-6.2154,0.8264,-0.9075,-1.3829,-0.1857,0.3936,0.2902,-0.4196,2728,2019-08-07 16:46:22:676
-5.9528,-6.5209,1.2129,-0.6245,-0.8607,-0.5108,0.3936,0.2902,-0.4196,2733,2019-08-07 16:46:22:681
-5.9528,-6.5209,1.2129,-0.6245,-0.8607,-0.5108,0.3457,0.1389,-0.3195,2738,2019-08-07 16:46:22:686
-5.9528,-6.5209,1.2129,-0.6245,-0.8607,-0.5108,0.3457,0.1389,-0.3195,2743,2019-08-07 16:46:22:691
-5.9001,-6.5161,1.4957,-0.6245,-0.8607,-0.5108,0.2935,-0.0187,-0.2332,2748,2019-08-07 16:46:22:696
-5.9001,-6.5161,1.4957,-0.6647,-0.7791,-0.659,0.2935,-0.0187,-0.2332,2752,2019-08-07 16:46:22:700
-5.9001,-6.5161,1.4957,-0.6647,-0.7791,-0.659,0.2935,-0.0187,-0.2332,2758,2019-08-07 16:46:22:706
-5.637,-6.6546,1.0338,-0.6647,-0.7791,-0.659,0.2434,-0.1178,-0.1597,2763,2019-08-07 16:46:22:711
-5.637,-6.6546,1.0338,-0.6647,-0.7791,-0.659,0.2434,-0.1178,-0.1597,2768,2019-08-07 16:46:22:716
-5.637,-6.6546,1.0338,-0.8312,-0.5816,-0.5429,0.1753,-0.1604,-0.1118,2773,2019-08-07 16:46:22:721
-5.7279,-6.7596,1.1941,-0.8312,-0.5816,-0.5429,0.1753,-0.1604,-0.1118,2778,2019-08-07 16:46:22:726
-5.7279,-6.7596,1.1941,-0.7028,-0.5201,-0.5039,0.1444,-0.1711,-0.0862,2783,2019-08-07 16:46:22:731
-5.7279,-6.7596,1.1941,-0.7028,-0.5201,-0.5039,0.1444,-0.1711,-0.0862,2788,2019-08-07 16:46:22:736
-5.704,-6.9505,0.8735,-0.7028,-0.5201,-0.5039,0.0858,-0.1434,-0.0606,2793,2019-08-07 16:46:22:741
-5.704,-6.9505,0.8735,-0.7028,-0.5201,-0.5039,0.0858,-0.1434,-0.0606,2798,2019-08-07 16:46:22:746
-5.704,-6.9505,0.8735,-0.7468,-0.2186,-0.1331,0.0283,-0.088,-0.0734,2803,2019-08-07 16:46:22:751
-5.6801,-7.2036,0.8782,-0.7468,-0.2186,-0.1331,0.0283,-0.088,-0.0734,2807,2019-08-07 16:46:22:755
-5.6801,-7.2036,0.8782,-0.7468,-0.2186,-0.1331,0.0283,-0.088,-0.0734,2813,2019-08-07 16:46:22:761
-5.6466,-7.3993,0.7557,-0.7865,-0.0294,-0.1033,-0.0069,-0.0219,-0.0915,2818,2019-08-07 16:46:22:766
-5.6466,-7.3993,0.7557,-0.7865,-0.0294,-0.1033,-0.0069,-0.0219,-0.0915,2823,2019-08-07 16:46:22:771
-5.6466,-7.3993,0.7557,-0.7865,-0.0294,-0.1033,-0.041,0.0718,-0.1065,2828,2019-08-07 16:46:22:776
-5.7614,-7.5329,0.7368,-0.6386,0.144,-0.1624,-0.041,0.0718,-0.1065,2833,2019-08-07 16:46:22:781
-5.7614,-7.5329,0.7368,-0.6386,0.144,-0.1624,-0.0676,0.1453,-0.1203,2838,2019-08-07 16:46:22:786
-5.7614,-7.5329,0.7368,-0.6386,0.144,-0.1624,-0.0676,0.1453,-0.1203,2843,2019-08-07 16:46:22:791
-6.0963,-7.5998,1.0055,-0.6386,0.144,-0.1624,-0.0857,0.1144,-0.1214,2848,2019-08-07 16:46:22:796
-6.0963,-7.5998,1.0055,-0.6386,0.144,-0.1624,-0.0857,0.1144,-0.1214,2852,2019-08-07 16:46:22:800
-6.3977,-7.4375,1.2553,-0.0603,0.0683,-0.5596,-0.0985,0.0079,-0.1097,2858,2019-08-07 16:46:22:806
-6.3977,-7.4375,1.2553,-0.0603,0.0683,-0.5596,-0.0985,0.0079,-0.1097,2863,2019-08-07 16:46:22:811
-6.3977,-7.4375,1.2553,-0.0603,0.0683,-0.5596,-0.0985,0.0079,-0.1097,2868,2019-08-07 16:46:22:816
-6.3642,-7.2465,1.1941,-0.0603,0.0683,-0.5596,-0.1294,-0.203,-0.0777,2873,2019-08-07 16:46:22:821
-6.3642,-7.2465,1.1941,-0.0592,-0.1645,-0.5594,-0.1294,-0.203,-0.0777,2877,2019-08-07 16:46:22:825
-6.2924,-7.2083,1.2223,-0.0592,-0.1645,-0.5594,-0.1422,-0.3809,-0.0457,2883,2019-08-07 16:46:22:831
-6.2924,-7.2083,1.2223,-0.0592,-0.1645,-0.5594,-0.1422,-0.3809,-0.0457,2888,2019-08-07 16:46:22:836
-6.2924,-7.2083,1.2223,-0.0592,-0.1645,-0.5594,-0.1496,-0.5695,0.0139,2893,2019-08-07 16:46:22:841
-5.8379,-7.1176,0.85,-0.5364,-0.3039,-0.1248,-0.1496,-0.5695,0.0139,2898,2019-08-07 16:46:22:846
-5.8379,-7.1176,0.85,-0.5364,-0.3039,-0.1248,-0.1422,-0.6217,0.0491,2903,2019-08-07 16:46:22:851
-5.2351,-7.1701,0.4304,-0.5364,-0.3039,-0.1248,-0.1422,-0.6217,0.0491,2908,2019-08-07 16:46:22:856
-5.2351,-7.1701,0.4304,-0.5364,-0.3039,-0.1248,-0.1262,-0.5546,0.0661,2913,2019-08-07 16:46:22:861
-5.2351,-7.1701,0.4304,-1.5014,-0.1795,0.844,-0.1262,-0.5546,0.0661,2918,2019-08-07 16:46:22:866
-4.6371,-7.2895,-0.2861,-1.5014,-0.1795,0.844,-0.1102,-0.3639,0.0778,2923,2019-08-07 16:46:22:871
-4.6371,-7.2895,-0.2861,-1.8821,-0.0317,1.2222,-0.1102,-0.3639,0.0778,2928,2019-08-07 16:46:22:876
-4.4313,-7.5091,-0.4322,-1.8821,-0.0317,1.2222,-0.0506,-0.0571,0.0693,2933,2019-08-07 16:46:22:881
-4.4313,-7.5091,-0.4322,-1.8821,-0.0317,1.2222,-0.0506,-0.0571,0.0693,2937,2019-08-07 16:46:22:885
-4.4313,-7.5091,-0.4322,-1.8821,-0.0317,1.2222,-5.0E-4,0.1688,0.0597,2943,2019-08-07 16:46:22:891
-5.0676,-7.533,-0.1494,-1.2994,0.111,0.9315,-5.0E-4,0.1688,0.0597,2948,2019-08-07 16:46:22:896
-5.0676,-7.533,-0.1494,-1.2994,0.111,0.9315,0.0421,0.4084,0.0608,2952,2019-08-07 16:46:22:900
-5.7183,-7.3038,-0.1164,-1.2994,0.111,0.9315,0.0421,0.4084,0.0608,2958,2019-08-07 16:46:22:906
-5.7183,-7.3038,-0.1164,-1.2994,0.111,0.9315,0.0421,0.4084,0.0608,2963,2019-08-07 16:46:22:911
-5.7183,-7.3038,-0.1164,-0.2545,-0.089,0.6375,0.0378,0.4851,0.0619,2969,2019-08-07 16:46:22:917
-6.3881,-7.3659,0.4021,-0.2545,-0.089,0.6375,0.0378,0.4851,0.0619,2972,2019-08-07 16:46:22:920
-6.3881,-7.3659,0.4021,-0.2545,-0.089,0.6375,0.0389,0.4212,0.0501,2978,2019-08-07 16:46:22:926
-6.3881,-7.3659,0.4021,-0.2545,-0.089,0.6375,0.0389,0.4212,0.0501,2983,2019-08-07 16:46:22:931
-6.7756,-7.2847,0.8217,0.3811,-0.1234,-0.1385,0.0347,0.1922,0.064,2988,2019-08-07 16:46:22:936
-6.7756,-7.2847,0.8217,0.3811,-0.1234,-0.1385,0.0347,0.1922,0.064,2993,2019-08-07 16:46:22:941
-6.4897,-7.213,0.6894,0.0881,-0.1893,-0.0109,0.0123,-0.0081,0.0874,2998,2019-08-07 16:46:22:946
-6.4897,-7.213,0.6894,0.0881,-0.1893,-0.0109,0.0123,-0.0081,0.0874,3003,2019-08-07 16:46:22:951
-6.4897,-7.213,0.6894,0.0881,-0.1893,-0.0109,-0.0229,-0.1466,0.1077,3008,2019-08-07 16:46:22:956
-6.107,-7.1175,0.4726,0.0881,-0.1893,-0.0109,-0.0229,-0.1466,0.1077,3013,2019-08-07 16:46:22:961
-6.107,-7.1175,0.4726,0.0881,-0.1893,-0.0109,-0.0229,-0.1466,0.1077,3018,2019-08-07 16:46:22:966
-6.107,-7.1175,0.4726,-0.4281,-0.2718,0.0478,-0.0271,-0.1849,0.1119,3023,2019-08-07 16:46:22:971
-5.9156,-7.17,0.614,-0.4281,-0.2718,0.0478,-0.0271,-0.1849,0.1119,3028,2019-08-07 16:46:22:976
-5.9156,-7.17,0.614,-0.4281,-0.2718,0.0478,-0.0271,-0.2552,0.1471,3033,2019-08-07 16:46:22:981
-5.509,-7.2178,0.1898,-0.9209,-0.1565,0.5263,-0.0271,-0.2552,0.1471,3037,2019-08-07 16:46:22:985
-5.509,-7.2178,0.1898,-0.9209,-0.1565,0.5263,-0.0484,-0.1519,0.1535,3043,2019-08-07 16:46:22:991
-5.265,-7.3228,0.1096,-0.9209,-0.1565,0.5263,-0.0484,-0.1519,0.1535,3048,2019-08-07 16:46:22:996
-5.265,-7.3228,0.1096,-0.9209,-0.1565,0.5263,-0.0484,-0.1519,0.1535,3053,2019-08-07 16:46:23:001
-5.265,-7.3228,0.1096,-1.0702,-0.0137,0.5317,-0.0388,-0.0091,0.1322,3058,2019-08-07 16:46:23:006
-5.5233,-7.3801,0.2369,-1.0702,-0.0137,0.5317,-0.0207,0.1453,0.1098,3064,2019-08-07 16:46:23:012
-5.5233,-7.3801,0.2369,-1.0702,-0.0137,0.5317,-0.0207,0.1453,0.1098,3068,2019-08-07 16:46:23:016
-5.5233,-7.3801,0.2369,-1.0702,-0.0137,0.5317,-0.0207,0.1453,0.1098,3073,2019-08-07 16:46:23:021
-5.7865,-7.2369,0.3736,-0.6119,-0.1603,0.3589,-0.0229,0.254,0.1055,3078,2019-08-07 16:46:23:026
-5.7865,-7.2369,0.3736,-0.6119,-0.1603,0.3589,-0.0229,0.254,0.1055,3083,2019-08-07 16:46:23:031
-6.2123,-7.1414,0.4962,-0.6119,-0.1603,0.3589,-0.0314,0.3264,0.0927,3087,2019-08-07 16:46:23:035
-6.2123,-7.1414,0.4962,-0.6119,-0.1603,0.3589,-0.0314,0.3264,0.0927,3093,2019-08-07 16:46:23:041
-6.2123,-7.1414,0.4962,-0.0368,-0.1867,-0.1019,-0.0239,0.3019,0.0874,3098,2019-08-07 16:46:23:046
-6.5137,-7.1271,0.779,-0.0368,-0.1867,-0.1019,-0.0239,0.3019,0.0874,3103,2019-08-07 16:46:23:051
-6.5137,-7.1271,0.779,-0.0368,-0.1867,-0.1019,-0.0325,0.2082,0.0895,3108,2019-08-07 16:46:23:056
-6.6189,-7.1127,0.7319,-0.0368,-0.1867,-0.1019,-0.0325,0.2082,0.0895,3114,2019-08-07 16:46:23:062
-6.6189,-7.1127,0.7319,0.0889,-0.2072,-0.1015,-0.0527,0.1123,0.1034,3118,2019-08-07 16:46:23:066
-6.6189,-7.1127,0.7319,0.0889,-0.2072,-0.1015,-0.0527,0.1123,0.1034,3123,2019-08-07 16:46:23:071
-6.5185,-7.1318,0.7554,0.0889,-0.2072,-0.1015,-0.0633,0.0154,0.1013,3128,2019-08-07 16:46:23:076
-6.5185,-7.1318,0.7554,0.0889,-0.2072,-0.1015,-0.0633,0.0154,0.1013,3133,2019-08-07 16:46:23:081
-6.3989,-7.2798,0.845,-0.1137,-0.0316,-0.2404,-0.0623,-0.0613,0.0991,3138,2019-08-07 16:46:23:086
-6.3989,-7.2798,0.845,-0.1137,-0.0316,-0.2404,-0.0623,-0.0613,0.0991,3142,2019-08-07 16:46:23:090
-6.3989,-7.2798,0.845,-0.1137,-0.0316,-0.2404,-0.0644,-0.1093,0.1045,3149,2019-08-07 16:46:23:097
-6.2458,-7.2034,0.5857,-0.1137,-0.0316,-0.2404,-0.0644,-0.1093,0.1045,3153,2019-08-07 16:46:23:101
-6.2458,-7.2034,0.5857,-0.3759,-0.091,0.1257,-0.0761,-0.0944,0.1098,3159,2019-08-07 16:46:23:107
-6.2458,-7.2034,0.5857,-0.3759,-0.091,0.1257,-0.0761,-0.0944,0.1098,3163,2019-08-07 16:46:23:111
-6.0879,-7.1987,0.5339,-0.3759,-0.091,0.1257,-0.0687,-0.0656,0.1098,3168,2019-08-07 16:46:23:116
-6.0879,-7.1987,0.5339,-0.3759,-0.091,0.1257,-0.0687,-0.0656,0.1098,3173,2019-08-07 16:46:23:121
-6.0353,-7.2703,0.5244,-0.475,-0.0127,0.1004,-0.0495,-0.0219,0.097,3178,2019-08-07 16:46:23:126
-6.0353,-7.2703,0.5244,-0.475,-0.0127,0.1004,-0.0495,-0.0219,0.097,3183,2019-08-07 16:46:23:131
-6.0496,-7.3753,0.3123,-0.475,-0.0127,0.1004,-0.0474,0.0452,0.0832,3188,2019-08-07 16:46:23:136
-6.0496,-7.3753,0.3123,-0.475,-0.0127,0.1004,-0.0474,0.0452,0.0832,3193,2019-08-07 16:46:23:141
-6.0496,-7.3753,0.3123,-0.433,0.0483,0.1948,-0.0474,0.0452,0.0832,3197,2019-08-07 16:46:23:145
-6.1549,-7.3514,0.5009,-0.433,0.0483,0.1948,-0.0463,0.1144,0.0693,3203,2019-08-07 16:46:23:151
-6.1549,-7.3514,0.5009,-0.433,0.0483,0.1948,-0.0463,0.1144,0.0693,3208,2019-08-07 16:46:23:156
-6.1549,-7.3514,0.5009,-0.433,0.0483,0.1948,-0.0165,0.1549,0.0576,3212,2019-08-07 16:46:23:160
-6.3463,-7.3801,0.5999,-0.1119,0.0641,-0.0066,6.0E-4,0.1517,0.0533,3218,2019-08-07 16:46:23:166
-6.3463,-7.3801,0.5999,-0.1119,0.0641,-0.0066,6.0E-4,0.1517,0.0533,3223,2019-08-07 16:46:23:171
-6.552,-7.275,0.6046,-0.1119,0.0641,-0.0066,6.0E-4,0.1517,0.0533,3228,2019-08-07 16:46:23:176
-6.552,-7.275,0.6046,-0.1119,0.0641,-0.0066,0.0038,0.1102,0.0523,3233,2019-08-07 16:46:23:181
-6.552,-7.275,0.6046,0.0322,-0.0481,-0.19,0.0038,0.1102,0.0523,3238,2019-08-07 16:46:23:186
-6.5951,-7.213,0.7318,0.0322,-0.0481,-0.19,0.0059,0.0036,0.0501,3243,2019-08-07 16:46:23:191
-6.5951,-7.213,0.7318,0.0322,-0.0481,-0.19,0.0059,0.0036,0.0501,3247,2019-08-07 16:46:23:195
-6.4946,-7.275,0.6564,0.0322,-0.0481,-0.19,0.0016,-0.0933,0.0533,3253,2019-08-07 16:46:23:201
-6.4946,-7.275,0.6564,0.0322,-0.0481,-0.19,0.0016,-0.0933,0.0533,3257,2019-08-07 16:46:23:205
-6.4946,-7.275,0.6564,-0.1662,-0.0459,0.0118,-0.008,-0.1444,0.0555,3264,2019-08-07 16:46:23:212
-6.3224,-7.2846,0.6329,-0.1662,-0.0459,0.0118,-0.008,-0.1444,0.0555,3267,2019-08-07 16:46:23:215
-6.3224,-7.2846,0.6329,-0.1662,-0.0459,0.0118,-0.008,-0.1444,0.0555,3273,2019-08-07 16:46:23:221
-6.3224,-7.2846,0.6329,-0.1662,-0.0459,0.0118,-0.0048,-0.1774,0.0459,3277,2019-08-07 16:46:23:225
-6.265,-7.3037,0.5292,-0.314,0.0504,0.0566,-0.0048,-0.1774,0.0459,3283,2019-08-07 16:46:23:231
-6.265,-7.3037,0.5292,-0.314,0.0504,0.0566,0.0016,-0.1732,0.0395,3288,2019-08-07 16:46:23:236
-6.1645,-7.3132,0.3359,-0.4155,0.0617,0.2607,0.0016,-0.1732,0.0395,3293,2019-08-07 16:46:23:241
-6.1645,-7.3132,0.3359,-0.4155,0.0617,0.2607,-0.0037,-0.1529,0.032,3297,2019-08-07 16:46:23:245
-6.1645,-7.3132,0.3359,-0.4155,0.0617,0.2607,-0.0037,-0.1529,0.032,3303,2019-08-07 16:46:23:251
-6.0018,-7.3801,0.4207,-0.4155,0.0617,0.2607,0.0091,-0.1178,0.015,3308,2019-08-07 16:46:23:256
-6.0018,-7.3801,0.4207,-0.5631,0.1389,0.2449,0.0091,-0.1178,0.015,3314,2019-08-07 16:46:23:262
-6.0353,-7.3037,0.3924,-0.5631,0.1389,0.2449,0.024,-0.0677,-0.0031,3317,2019-08-07 16:46:23:265
-6.0353,-7.3037,0.3924,-0.5631,0.1389,0.2449,0.024,-0.0677,-0.0031,3323,2019-08-07 16:46:23:271
-6.0353,-7.3037,0.3924,-0.5631,0.1389,0.2449,0.0293,-0.0379,-0.0095,3327,2019-08-07 16:46:23:275
-6.1645,-7.1796,0.4962,-0.4107,-0.0739,0.1277,0.0293,-0.0379,-0.0095,3333,2019-08-07 16:46:23:281
-6.1645,-7.1796,0.4962,-0.4107,-0.0739,0.1277,0.0293,-0.0251,-0.0031,3338,2019-08-07 16:46:23:286
-6.1262,-7.0936,0.581,-0.4107,-0.0739,0.1277,0.0293,-0.0251,-0.0031,3343,2019-08-07 16:46:23:291
-6.1262,-7.0936,0.581,-0.4107,-0.0739,0.1277,0.0336,-0.0443,-0.0074,3347,2019-08-07 16:46:23:295
-6.1262,-7.0936,0.581,-0.4081,-0.1759,0.0084,0.0336,-0.0443,-0.0074,3353,2019-08-07 16:46:23:301
-6.1406,-7.0411,0.581,-0.4081,-0.1759,0.0084,0.0336,-0.0443,-0.0074,3357,2019-08-07 16:46:23:305
-6.1406,-7.0411,0.581,-0.4081,-0.1759,0.0084,0.0251,-0.0794,0.0065,3363,2019-08-07 16:46:23:311
-6.1406,-7.0411,0.581,-0.4081,-0.1759,0.0084,0.0091,-0.0805,0.016,3368,2019-08-07 16:46:23:316
-5.8488,-7.0698,0.4584,-0.7221,-0.1859,0.1861,0.0091,-0.0805,0.016,3373,2019-08-07 16:46:23:321
-5.8488,-7.0698,0.4584,-0.7221,-0.1859,0.1861,0.0091,-0.0805,0.016,3378,2019-08-07 16:46:23:326
-5.954,-7.022,0.4867,-0.7221,-0.1859,0.1861,0.007,-0.0677,0.0192,3383,2019-08-07 16:46:23:331
-5.954,-7.022,0.4867,-0.7221,-0.1859,0.1861,0.007,-0.0677,0.0192,3387,2019-08-07 16:46:23:335
-5.954,-7.022,0.4867,-0.5643,-0.1372,0.2565,0.0283,-0.0358,0.0224,3393,2019-08-07 16:46:23:341
-6.0641,-7.0984,0.3217,-0.5643,-0.1372,0.2565,0.0283,-0.0358,0.0224,3398,2019-08-07 16:46:23:346
-6.0641,-7.0984,0.3217,-0.5643,-0.1372,0.2565,0.0272,-0.0081,0.0139,3403,2019-08-07 16:46:23:351
-6.0641,-7.0984,0.3217,-0.5643,-0.1372,0.2565,0.0272,-0.0081,0.0139,3408,2019-08-07 16:46:23:356
-6.1932,-7.0172,0.3312,-0.4024,-0.2461,0.349,0.0251,0.0175,0.0086,3413,2019-08-07 16:46:23:361
-6.1932,-7.0172,0.3312,-0.4024,-0.2461,0.349,0.0251,0.0175,0.0086,3418,2019-08-07 16:46:23:366
-6.1263,-7.0698,0.3029,-0.4024,-0.2461,0.349,0.0251,0.0175,0.0086,3423,2019-08-07 16:46:23:371
-6.1263,-7.0698,0.3029,-0.4024,-0.2461,0.349,0.0379,0.058,-0.0021,3428,2019-08-07 16:46:23:376
-6.2698,-7.1605,0.3924,-0.3732,-0.1179,0.2939,0.0379,0.058,-0.0021,3434,2019-08-07 16:46:23:382
-6.2698,-7.1605,0.3924,-0.3732,-0.1179,0.2939,0.0453,0.074,-0.0244,3438,2019-08-07 16:46:23:386
-6.2698,-7.1605,0.3924,-0.3732,-0.1179,0.2939,0.0453,0.074,-0.0244,3443,2019-08-07 16:46:23:391
-6.375,-7.1127,0.3924,-0.3732,-0.1179,0.2939,0.0517,0.0644,-0.0276,3448,2019-08-07 16:46:23:396
-6.375,-7.1127,0.3924,-0.2456,-0.1212,0.2049,0.0517,0.0644,-0.0276,3452,2019-08-07 16:46:23:400
-6.375,-7.1127,0.3924,-0.2456,-0.1212,0.2049,0.0549,0.042,-0.0319,3458,2019-08-07 16:46:23:406
-6.3798,-7.1223,0.4584,-0.2456,-0.1212,0.2049,0.0549,0.042,-0.0319,3463,2019-08-07 16:46:23:411
-6.3798,-7.1223,0.4584,-0.2456,-0.1212,0.2049,0.0549,0.042,-0.0319,3468,2019-08-07 16:46:23:416
-6.3798,-7.1223,0.4584,-0.1739,-0.1968,0.0244,0.057,-0.0102,-0.0372,3473,2019-08-07 16:46:23:421
-6.4229,-7.0936,0.6187,-0.1739,-0.1968,0.0244,0.057,-0.0102,-0.0372,3478,2019-08-07 16:46:23:426
-6.4229,-7.0936,0.6187,-0.1739,-0.1968,0.0244,0.0517,-0.0688,-0.0266,3482,2019-08-07 16:46:23:430
-6.2746,-7.0459,0.5668,-0.1739,-0.1968,0.0244,0.0517,-0.0688,-0.0266,3488,2019-08-07 16:46:23:436
-6.2746,-7.0459,0.5668,-0.279,-0.2475,0.0739,0.0442,-0.1114,-0.017,3493,2019-08-07 16:46:23:441
-6.2746,-7.0459,0.5668,-0.279,-0.2475,0.0739,0.0442,-0.1114,-0.017,3498,2019-08-07 16:46:23:446
-6.2602,-7.0363,0.68,-0.279,-0.2475,0.0739,0.0347,-0.1529,-0.0042,3502,2019-08-07 16:46:23:450
-6.2602,-7.0363,0.68,-0.279,-0.2475,0.0739,0.0347,-0.1529,-0.0042,3508,2019-08-07 16:46:23:456
-6.2315,-7.0125,0.6988,-0.3235,-0.2527,-0.0025,0.0315,-0.2019,0.0097,3513,2019-08-07 16:46:23:461
-6.2315,-7.0125,0.6988,-0.3235,-0.2527,-0.0025,0.0315,-0.2019,0.0097,3517,2019-08-07 16:46:23:465
-6.2315,-7.0125,0.6988,-0.3235,-0.2527,-0.0025,0.0315,-0.2019,0.0097,3523,2019-08-07 16:46:23:471
-6.0737,-7.0268,0.6234,-0.3235,-0.2527,-0.0025,0.0197,-0.235,0.0256,3527,2019-08-07 16:46:23:475
-6.0737,-7.0268,0.6234,-0.49,-0.2454,0.0925,0.0134,-0.236,0.0267,3533,2019-08-07 16:46:23:481
-6.0497,-6.9982,0.6376,-0.49,-0.2454,0.0925,0.0134,-0.236,0.0267,3537,2019-08-07 16:46:23:485
-6.0497,-6.9982,0.6376,-0.49,-0.2454,0.0925,0.0134,-0.236,0.0267,3543,2019-08-07 16:46:23:491
-6.0497,-6.9982,0.6376,-0.5233,-0.2822,0.1038,0.0059,-0.2211,0.0342,3548,2019-08-07 16:46:23:496
-5.9684,-6.9886,0.6376,-0.5233,-0.2822,0.1038,0.0059,-0.2211,0.0342,3553,2019-08-07 16:46:23:501
-5.9684,-6.9886,0.6376,-0.5233,-0.2822,0.1038,0.007,-0.1838,0.0352,3558,2019-08-07 16:46:23:506
-5.978,-6.9361,0.6046,-0.5768,-0.3216,0.1679,0.007,-0.1838,0.0352,3563,2019-08-07 16:46:23:511
-5.978,-6.9361,0.6046,-0.5768,-0.3216,0.1679,0.0048,-0.1444,0.0427,3568,2019-08-07 16:46:23:516
-5.978,-6.9361,0.6046,-0.5768,-0.3216,0.1679,0.0048,-0.1444,0.0427,3573,2019-08-07 16:46:23:521
-6.045,-6.9456,0.6234,-0.5768,-0.3216,0.1679,-0.0037,-0.1061,0.0459,3578,2019-08-07 16:46:23:526
-6.045,-6.9456,0.6234,-0.5129,-0.2169,0.1217,-0.0037,-0.1061,0.0459,3583,2019-08-07 16:46:23:531
-6.045,-6.9456,0.6234,-0.5129,-0.2169,0.1217,-0.009,-0.0837,0.0501,3587,2019-08-07 16:46:23:535
-6.0354,-7.0793,0.6328,-0.5129,-0.2169,0.1217,-0.009,-0.0837,0.0501,3593,2019-08-07 16:46:23:541
-6.0354,-7.0793,0.6328,-0.5129,-0.2169,0.1217,-0.0133,-0.0571,0.0501,3597,2019-08-07 16:46:23:545
-6.0019,-7.1175,0.6234,-0.5129,-0.2169,0.1217,-0.0133,-0.0571,0.0501,3603,2019-08-07 16:46:23:551
-6.0019,-7.1175,0.6234,-0.5367,-0.1357,0.161,-0.0122,-0.024,0.0459,3608,2019-08-07 16:46:23:556
-6.0402,-7.1557,0.6847,-0.5367,-0.1357,0.161,-0.0122,-0.024,0.0459,3613,2019-08-07 16:46:23:561
-6.0402,-7.1557,0.6847,-0.5367,-0.1357,0.161,-0.0122,-0.024,0.0459,3618,2019-08-07 16:46:23:566
-6.0402,-7.1557,0.6847,-0.5367,-0.1357,0.161,-0.0101,0.0143,0.048,3622,2019-08-07 16:46:23:570
-6.1407,-7.1032,0.7412,-0.4316,-0.117,0.084,-0.0101,0.0143,0.048,3628,2019-08-07 16:46:23:576
-6.1407,-7.1032,0.7412,-0.4316,-0.117,0.084,-0.0122,0.0218,0.048,3633,2019-08-07 16:46:23:581
-6.1407,-7.1032,0.7412,-0.4316,-0.117,0.084,-0.0122,0.0218,0.048,3638,2019-08-07 16:46:23:586
-6.1502,-7.1079,0.7271,-0.4316,-0.117,0.084,-0.0197,0.0313,0.0416,3642,2019-08-07 16:46:23:590
-6.1502,-7.1079,0.7271,-0.3513,-0.1888,0.064,-0.0197,0.0313,0.0416,3648,2019-08-07 16:46:23:596
-6.2842,-7.1223,0.7365,-0.3513,-0.1888,0.064,-0.0197,0.0313,0.0416,3652,2019-08-07 16:46:23:600
-6.2842,-7.1223,0.7365,-0.3513,-0.1888,0.064,-0.0207,0.01,0.0459,3658,2019-08-07 16:46:23:606
-6.2794,-7.0602,0.6941,-0.3513,-0.1888,0.064,-0.0207,0.01,0.0459,3663,2019-08-07 16:46:23:611
-6.2794,-7.0602,0.6941,-0.3285,-0.1791,0.1063,-0.0261,-0.0134,0.048,3667,2019-08-07 16:46:23:615
-6.2794,-7.0602,0.6941,-0.3285,-0.1791,0.1063,-0.0261,-0.0134,0.048,3673,2019-08-07 16:46:23:621
-6.2412,-6.9695,0.6894,-0.3285,-0.1791,0.1063,-0.0325,-0.0454,0.0523,3678,2019-08-07 16:46:23:626
-6.2412,-6.9695,0.6894,-0.3285,-0.1791,0.1063,-0.0325,-0.0454,0.0523,3683,2019-08-07 16:46:23:631
-6.0976,-7.0459,0.6988,-0.4637,-0.1593,0.0406,-0.041,-0.0656,0.0533,3688,2019-08-07 16:46:23:636
-6.0976,-7.0459,0.6988,-0.4637,-0.1593,0.0406,-0.041,-0.0656,0.0533,3693,2019-08-07 16:46:23:641
-6.0976,-7.0459,0.6988,-0.4637,-0.1593,0.0406,-0.0431,-0.0539,0.0544,3698,2019-08-07 16:46:23:646
-6.0833,-7.0936,0.5386,-0.4637,-0.1593,0.0406,-0.0431,-0.0539,0.0544,3703,2019-08-07 16:46:23:651
-6.0833,-7.0936,0.5386,-0.4882,-0.0637,0.234,-0.0388,-0.0166,0.0427,3708,2019-08-07 16:46:23:656
-6.1742,-7.1461,0.5715,-0.4882,-0.0637,0.234,-0.0388,-0.0166,0.0427,3713,2019-08-07 16:46:23:661
-6.1742,-7.1461,0.5715,-0.4882,-0.0637,0.234,-0.0346,5.0E-4,0.0395,3718,2019-08-07 16:46:23:666
-6.1742,-7.1461,0.5715,-0.4882,-0.0637,0.234,-0.0346,5.0E-4,0.0395,3723,2019-08-07 16:46:23:671
-6.246,-7.1891,0.5998,-0.3492,-0.0602,0.1621,-0.0346,5.0E-4,0.0395,3728,2019-08-07 16:46:23:676
-6.246,-7.1891,0.5998,-0.3492,-0.0602,0.1621,-0.0282,0.0154,0.032,3733,2019-08-07 16:46:23:681
-6.3799,-7.1652,0.5715,-0.3492,-0.0602,0.1621,-0.0207,0.0282,0.0128,3738,2019-08-07 16:46:23:686
-6.3799,-7.1652,0.5715,-0.3492,-0.0602,0.1621,-0.0207,0.0282,0.0128,3743,2019-08-07 16:46:23:691
-6.3799,-7.1652,0.5715,-0.1413,-0.0443,0.1215,-0.0207,0.0282,0.0128,3748,2019-08-07 16:46:23:696
-6.49,-7.1461,0.6705,-0.1413,-0.0443,0.1215,-0.0197,0.01,0.0022,3753,2019-08-07 16:46:23:701
-6.49,-7.1461,0.6705,-0.1127,-0.0301,0.0295,-0.0197,0.01,0.0022,3758,2019-08-07 16:46:23:706
-6.49,-7.1461,0.6705,-0.1127,-0.0301,0.0295,-0.0207,-0.0294,-0.0053,3762,2019-08-07 16:46:23:710
-6.4373,-7.2368,0.779,-0.1127,-0.0301,0.0295,-0.0207,-0.0294,-0.0053,3768,2019-08-07 16:46:23:716
-6.4373,-7.2368,0.779,-0.1127,-0.0301,0.0295,-0.0207,-0.0294,-0.0053,3773,2019-08-07 16:46:23:721
-6.3656,-7.1939,0.746,-0.2296,-0.0275,0.023,-0.0143,-0.072,-0.0191,3778,2019-08-07 16:46:23:726
-6.3656,-7.1939,0.746,-0.2296,-0.0275,0.023,-0.0143,-0.072,-0.0191,3782,2019-08-07 16:46:23:730
-6.3656,-7.1939,0.746,-0.2296,-0.0275,0.023,-0.0133,-0.073,-0.0255,3787,2019-08-07 16:46:23:735
-6.2795,-7.1318,0.7224,-0.2296,-0.0275,0.023,-0.0133,-0.073,-0.0255,3793,2019-08-07 16:46:23:741
-6.2795,-7.1318,0.7224,-0.3435,-0.1321,0.0217,-0.0101,-0.0816,-0.0234,3798,2019-08-07 16:46:23:746
-6.2603,-7.1127,0.7978,-0.3435,-0.1321,0.0217,-0.0101,-0.0816,-0.0234,3803,2019-08-07 16:46:23:751
-6.2603,-7.1127,0.7978,-0.3435,-0.1321,0.0217,-0.008,-0.0944,-0.0095,3808,2019-08-07 16:46:23:756
-6.2603,-7.1127,0.7978,-0.3435,-0.1321,0.0217,-0.008,-0.0944,-0.0095,3813,2019-08-07 16:46:23:761
-6.2029,-7.1461,0.6752,-0.3868,-0.1303,0.1221,-0.008,-0.0944,-0.0095,3818,2019-08-07 16:46:23:766
-6.2029,-7.1461,0.6752,-0.3868,-0.1303,0.1221,-0.0058,-0.0965,-0.0042,3823,2019-08-07 16:46:23:771
-5.5666,-7.3323,0.7978,-1.0158,0.1021,-0.0036,-0.0058,-0.0965,-0.0042,3828,2019-08-07 16:46:23:776
-5.5666,-7.3323,0.7978,-1.0158,0.1021,-0.0036,0.0347,-0.039,-0.0543,3833,2019-08-07 16:46:23:781
-5.5666,-7.3323,0.7978,-1.0158,0.1021,-0.0036,0.0347,-0.039,-0.0543,3837,2019-08-07 16:46:23:785
-6.002,-7.0268,0.5715,-1.0158,0.1021,-0.0036,0.0347,-0.039,-0.0543,3843,2019-08-07 16:46:23:791
-6.002,-7.0268,0.5715,-0.5937,-0.2843,0.3115,0.0698,0.1112,-0.0351,3848,2019-08-07 16:46:23:796
-6.002,-7.0268,0.5715,-0.5937,-0.2843,0.3115,0.0698,0.1112,-0.0351,3852,2019-08-07 16:46:23:800
-5.7915,-7.0172,0.4725,-0.5937,-0.2843,0.3115,0.056,0.1656,-0.0053,3859,2019-08-07 16:46:23:807
-5.7915,-7.0172,0.4725,-0.5937,-0.2843,0.3115,0.056,0.1656,-0.0053,3862,2019-08-07 16:46:23:810
-6.136,-7.0554,0.5197,-0.4346,-0.187,0.2622,0.0506,0.2114,-0.0223,3869,2019-08-07 16:46:23:817
-6.136,-7.0554,0.5197,-0.4346,-0.187,0.2622,0.0506,0.2114,-0.0223,3873,2019-08-07 16:46:23:821
-6.136,-7.0554,0.5197,-0.4346,-0.187,0.2622,0.0496,0.2231,-0.0138,3878,2019-08-07 16:46:23:826
-6.2795,-7.0411,0.7695,-0.4346,-0.187,0.2622,0.0496,0.2231,-0.0138,3882,2019-08-07 16:46:23:830
-6.2795,-7.0411,0.7695,-0.2254,-0.212,-0.0092,0.0389,0.1602,0.0033,3888,2019-08-07 16:46:23:836
-6.2795,-7.0411,0.7695,-0.2254,-0.212,-0.0092,0.0389,0.1602,0.0033,3893,2019-08-07 16:46:23:841
-6.5331,-6.9265,0.7554,-0.2254,-0.212,-0.0092,0.0134,0.0867,0.0107,3898,2019-08-07 16:46:23:846
-6.5331,-6.9265,0.7554,-0.2254,-0.212,-0.0092,0.0134,0.0867,0.0107,3903,2019-08-07 16:46:23:851
-6.4996,-6.9218,0.8638,-0.0757,-0.3196,-0.1128,-0.0133,-0.0209,0.0139,3908,2019-08-07 16:46:23:856
-6.4996,-6.9218,0.8638,-0.0757,-0.3196,-0.1128,-0.0133,-0.0209,0.0139,3913,2019-08-07 16:46:23:861
-6.4996,-6.9218,0.8638,-0.0757,-0.3196,-0.1128,-0.0133,-0.0209,0.0139,3917,2019-08-07 16:46:23:865
-6.4709,-6.9981,0.7271,-0.0757,-0.3196,-0.1128,-0.0442,-0.1114,0.0246,3923,2019-08-07 16:46:23:871
-6.4709,-6.9981,0.7271,-0.2884,-0.1642,-0.0167,-0.0442,-0.1114,0.0246,3929,2019-08-07 16:46:23:877
-6.2795,-7.0984,0.7648,-0.2884,-0.1642,-0.0167,-0.0346,-0.1434,0.0299,3933,2019-08-07 16:46:23:881
-6.2795,-7.0984,0.7648,-0.2884,-0.1642,-0.0167,-0.0346,-0.1434,0.0299,3938,2019-08-07 16:46:23:886
-6.2795,-7.0984,0.7648,-0.2884,-0.1642,-0.0167,-0.0175,-0.1359,0.0278,3942,2019-08-07 16:46:23:890
-6.1216,-7.1175,0.5762,-0.4568,-0.138,0.2187,-0.0175,-0.1359,0.0278,3948,2019-08-07 16:46:23:896
-6.1216,-7.1175,0.5762,-0.4568,-0.138,0.2187,-0.0175,-0.1359,0.0278,3953,2019-08-07 16:46:23:901
-6.1025,-7.1032,0.6187,-0.4568,-0.138,0.2187,-0.0111,-0.0762,0.016,3958,2019-08-07 16:46:23:906
-6.1025,-7.1032,0.6187,-0.4568,-0.138,0.2187,0.0016,-0.0347,0.0043,3963,2019-08-07 16:46:23:911
-6.1025,-7.1032,0.6187,-0.4568,-0.138,0.2187,0.0016,-0.0347,0.0043,3968,2019-08-07 16:46:23:916
-5.8968,-7.1461,0.4065,-0.8233,-0.0579,0.2816,0.0016,-0.0347,0.0043,3973,2019-08-07 16:46:23:921
-5.8968,-7.1461,0.4065,-0.8233,-0.0579,0.2816,-0.0048,0.0079,-0.0244,3978,2019-08-07 16:46:23:926
-6.27,-7.1032,0.5904,-0.8233,-0.0579,0.2816,-0.0048,0.0079,-0.0244,3983,2019-08-07 16:46:23:931
-6.27,-7.1032,0.5904,-0.8233,-0.0579,0.2816,-0.0133,0.0825,-0.001,3988,2019-08-07 16:46:23:936
-6.27,-7.1032,0.5904,-0.4484,-0.018,0.0801,-0.0133,0.0825,-0.001,3993,2019-08-07 16:46:23:941
-6.0873,-7.2512,0.7555,-0.4484,-0.018,0.0801,0.0027,0.0889,-0.017,3997,2019-08-07 16:46:23:945
-6.0873,-7.2512,0.7555,-0.4484,-0.018,0.0801,0.0027,0.0889,-0.017,4002,2019-08-07 16:46:23:950
-6.2309,-7.2178,0.7414,-0.4484,-0.018,0.0801,0.0304,0.0942,-0.0191,4008,2019-08-07 16:46:23:956
-6.2309,-7.2178,0.7414,-0.3019,-0.0075,-0.0626,0.0304,0.0942,-0.0191,4012,2019-08-07 16:46:23:960
-6.2309,-7.2178,0.7414,-0.3019,-0.0075,-0.0626,0.0304,0.0942,-0.0191,4018,2019-08-07 16:46:23:966
-6.2069,-7.1749,0.8498,-0.3019,-0.0075,-0.0626,0.0261,0.0612,-0.0063,4023,2019-08-07 16:46:23:971
-6.2069,-7.1749,0.8498,-0.3019,-0.0075,-0.0626,0.0261,0.0612,-0.0063,4028,2019-08-07 16:46:23:976
-6.2739,-7.1558,0.732,-0.3151,-0.114,0.037,0.0144,0.0207,-0.0042,4032,2019-08-07 16:46:23:980
-6.2739,-7.1558,0.732,-0.3151,-0.114,0.037,0.0144,0.0207,-0.0042,4038,2019-08-07 16:46:23:986
-6.2739,-7.1558,0.732,-0.3151,-0.114,0.037,0.007,-0.0145,0.016,4042,2019-08-07 16:46:23:990
-6.1352,-7.2512,0.7414,-0.3151,-0.114,0.037,0.007,-0.0145,0.016,4048,2019-08-07 16:46:23:996
-6.1352,-7.2512,0.7414,-0.4535,-0.0282,-0.0218,0.0102,-0.0294,0.0203,4053,2019-08-07 16:46:24:001
-6.1495,-7.213,0.8922,-0.4535,-0.0282,-0.0218,0.0102,-0.0294,0.0203,4058,2019-08-07 16:46:24:006
-6.1495,-7.213,0.8922,-0.4535,-0.0282,-0.0218,0.0187,-0.0358,0.032,4063,2019-08-07 16:46:24:011
-6.1495,-7.213,0.8922,-0.4535,-0.0282,-0.0218,0.0187,-0.0358,0.032,4067,2019-08-07 16:46:24:015
-6.1734,-7.1032,0.6283,-0.3983,-0.14,0.1363,0.0102,-0.0347,0.0395,4073,2019-08-07 16:46:24:021
-6.1734,-7.1032,0.6283,-0.3983,-0.14,0.1363,0.0102,-0.0347,0.0395,4078,2019-08-07 16:46:24:026
-6.1925,-7.0746,0.6848,-0.3983,-0.14,0.1363,0.0027,-0.0145,0.0352,4083,2019-08-07 16:46:24:031
-6.1925,-7.0746,0.6848,-0.3983,-0.14,0.1363,0.0027,-0.0145,0.0352,4088,2019-08-07 16:46:24:036
-6.1925,-7.0746,0.6848,-0.3448,-0.1551,0.1066,0.0027,-0.0145,0.0352,4093,2019-08-07 16:46:24:041
-6.1734,-7.1558,0.6424,-0.3448,-0.1551,0.1066,0.008,0.0036,0.0203,4098,2019-08-07 16:46:24:046
-6.1734,-7.1558,0.6424,-0.3448,-0.1551,0.1066,0.008,0.0036,0.0203,4103,2019-08-07 16:46:24:051
-6.3265,-7.0842,0.6377,-0.3448,-0.1551,0.1066,0.0165,0.0356,0.0033,4108,2019-08-07 16:46:24:056
-6.3265,-7.0842,0.6377,-0.2884,-0.1544,0.1521,0.0165,0.0356,0.0033,4112,2019-08-07 16:46:24:060
-6.3265,-7.0842,0.6377,-0.2884,-0.1544,0.1521,0.0208,0.0441,-0.0053,4118,2019-08-07 16:46:24:066
-6.3361,-7.0698,0.666,-0.2884,-0.1544,0.1521,0.0208,0.0441,-0.0053,4123,2019-08-07 16:46:24:071
-6.3361,-7.0698,0.666,-0.2884,-0.1544,0.1521,0.0144,0.0324,-0.0031,4128,2019-08-07 16:46:24:076
-6.4222,-7.0364,0.6943,-0.1877,-0.1693,0.1017,0.0144,0.0324,-0.0031,4133,2019-08-07 16:46:24:081
-6.4222,-7.0364,0.6943,-0.1877,-0.1693,0.1017,0.0155,0.0026,-0.0053,4137,2019-08-07 16:46:24:085
-6.4222,-7.0364,0.6943,-0.1877,-0.1693,0.1017,0.0155,0.0026,-0.0053,4143,2019-08-07 16:46:24:091
-6.4078,-6.9887,0.6471,-0.1877,-0.1693,0.1017,0.0176,-0.0464,-0.001,4147,2019-08-07 16:46:24:095
-6.4078,-6.9887,0.6471,-0.2397,-0.179,0.0683,0.0176,-0.0464,-0.001,4153,2019-08-07 16:46:24:101
-6.5513,-7.0125,0.3737,-0.2397,-0.179,0.0683,-0.0186,-0.1391,0.0129,4158,2019-08-07 16:46:24:106
-6.5513,-7.0125,0.3737,-0.2397,-0.179,0.0683,-0.0186,-0.1391,0.0129,4163,2019-08-07 16:46:24:111
-6.5513,-7.0125,0.3737,-0.2397,-0.179,0.0683,-0.0186,-0.1391,0.0129,4168,2019-08-07 16:46:24:116
-6.0394,-7.0889,0.9535,-0.5362,-0.1491,-0.1741,-0.0378,-0.1391,0.0139,4173,2019-08-07 16:46:24:121
-6.0394,-7.0889,0.9535,-0.5362,-0.1491,-0.1741,-0.0378,-0.1391,0.0139,4179,2019-08-07 16:46:24:127
-6.0394,-7.0889,0.9535,-0.5362,-0.1491,-0.1741,0.0208,-0.1647,0.0214,4183,2019-08-07 16:46:24:131
-6.0681,-7.0889,0.4539,-0.5362,-0.1491,-0.1741,0.0208,-0.1647,0.0214,4187,2019-08-07 16:46:24:135
-6.0681,-7.0889,0.4539,-0.5738,-0.2096,0.4259,0.007,-0.1221,0.0299,4193,2019-08-07 16:46:24:141
-6.0107,-7.0078,0.4963,-0.5738,-0.2096,0.4259,0.007,-0.1221,0.0299,4198,2019-08-07 16:46:24:146
-6.0107,-7.0078,0.4963,-0.5738,-0.2096,0.4259,0.0048,-0.0731,0.031,4203,2019-08-07 16:46:24:151
-6.0824,-6.9935,0.6519,-0.5738,-0.2096,0.4259,0.0048,-0.0731,0.031,4208,2019-08-07 16:46:24:156
-6.0824,-6.9935,0.6519,-0.6045,-0.1352,0.214,0.0229,-0.0422,0.0246,4213,2019-08-07 16:46:24:161
-6.0824,-6.9935,0.6519,-0.6045,-0.1352,0.214,0.0229,-0.0422,0.0246,4218,2019-08-07 16:46:24:166
-5.8337,-7.2321,0.6283,-0.6045,-0.1352,0.214,0.073,0.0835,0.0065,4223,2019-08-07 16:46:24:171
-5.8337,-7.2321,0.6283,-0.6045,-0.1352,0.214,0.073,0.0835,0.0065,4228,2019-08-07 16:46:24:176
-6.0202,-7.2083,0.6471,-0.5567,-0.0253,0.1628,0.073,0.0835,0.0065,4232,2019-08-07 16:46:24:180
-6.0202,-7.2083,0.6471,-0.5567,-0.0253,0.1628,0.1039,0.1432,0.0097,4238,2019-08-07 16:46:24:186
-6.0202,-7.2083,0.6471,-0.5567,-0.0253,0.1628,0.1039,0.1432,0.0097,4242,2019-08-07 16:46:24:190
-6.2499,-7.108,0.3832,-0.5567,-0.0253,0.1628,0.04,0.1389,-0.0212,4248,2019-08-07 16:46:24:196
-6.2499,-7.108,0.3832,-0.1741,-0.1362,0.17,0.04,0.1389,-0.0212,4253,2019-08-07 16:46:24:201
-6.4843,-7.0316,0.7226,-0.1741,-0.1362,0.17,-0.008,0.107,-0.0244,4258,2019-08-07 16:46:24:206
-6.4843,-7.0316,0.7226,-0.1741,-0.1362,0.17,-0.008,0.107,-0.0244,4263,2019-08-07 16:46:24:211
-6.4843,-7.0316,0.7226,-0.1741,-0.1362,0.17,0.008,0.058,-0.0244,4268,2019-08-07 16:46:24:216
-6.4173,-7.0651,0.7886,-0.1741,-0.1362,0.17,0.008,0.058,-0.0244,4272,