ACCELEROMETER X (m/s²),ACCELEROMETER Y (m/s²),ACCELEROMETER Z (m/s²),LINEAR ACCELERATION X (m/s²),LINEAR ACCELERATION Y (m/s²),LINEAR ACCELERATION Z (m/s²),GYROSCOPE X (rad/s),GYROSCOPE Y (rad/s),GYROSCOPE Z (rad/s),Time since start in ms ,YYYY-MO-DD HH-MI-SS_SSS
-6.6968,-6.535,0.8259,-0.4097,-0.3712,0.0714,0.0283,-0.0134,0.0885,4,2019-08-07 16:45:57:027
-6.6968,-6.535,0.8259,-0.3114,-0.3298,-0.0307,0.0261,-0.0219,0.0959,9,2019-08-07 16:45:57:032
-6.6968,-6.535,0.8259,-0.3114,-0.3298,-0.0307,0.0261,-0.0219,0.0959,14,2019-08-07 16:45:57:037
-6.7207,-6.4156,0.8211,-0.3114,-0.3298,-0.0307,0.0208,-0.0304,0.1013,19,2019-08-07 16:45:57:042
-6.7207,-6.4156,0.8211,-0.3114,-0.3298,-0.0307,0.0208,-0.0304,0.1013,23,2019-08-07 16:45:57:046
-6.6442,-6.4586,0.8164,-0.382,-0.3392,-0.0048,0.0123,-0.0315,0.0949,29,2019-08-07 16:45:57:052
-6.6442,-6.4586,0.8164,-0.382,-0.3392,-0.0048,0.0123,-0.0315,0.0949,34,2019-08-07 16:45:57:057
-6.6442,-6.4586,0.8164,-0.382,-0.3392,-0.0048,0.0123,-0.0315,0.0949,39,2019-08-07 16:45:57:062
-6.472,-6.4347,0.7881,-0.382,-0.3392,-0.0048,-5.0E-4,-0.0134,0.0917,44,2019-08-07 16:45:57:067
-6.472,-6.4347,0.7881,-0.382,-0.3392,-0.0048,-5.0E-4,-0.0134,0.0917,48,2019-08-07 16:45:57:071
-6.5294,-6.5493,0.6656,-0.5516,-0.3219,0.1114,-0.008,0.0186,0.0927,54,2019-08-07 16:45:57:077
-6.5294,-6.5493,0.6656,-0.5516,-0.3219,0.1114,-0.008,0.0186,0.0927,59,2019-08-07 16:45:57:082
-6.5294,-6.5493,0.6656,-0.5516,-0.3219,0.1114,-0.0111,0.0431,0.097,64,2019-08-07 16:45:57:087
-6.5725,-6.5493,0.6891,-0.5516,-0.3219,0.1114,-0.0111,0.0431,0.097,69,2019-08-07 16:45:57:092
-6.5725,-6.5493,0.6891,-0.4686,-0.1998,0.1517,-0.0058,0.0601,0.113,74,2019-08-07 16:45:57:097
-6.6012,-6.5254,0.6844,-0.4686,-0.1998,0.1517,-0.0058,0.0601,0.113,79,2019-08-07 16:45:57:102
-6.6012,-6.5254,0.6844,-0.4686,-0.1998,0.1517,0.008,0.0718,0.1236,84,2019-08-07 16:45:57:107
-6.6012,-6.5254,0.6844,-0.3706,-0.2407,0.0899,0.008,0.0718,0.1236,89,2019-08-07 16:45:57:112
-6.7878,-6.5445,0.675,-0.3706,-0.2407,0.0899,0.008,0.0718,0.1236,94,2019-08-07 16:45:57:117
-6.7878,-6.5445,0.675,-0.3706,-0.2407,0.0899,0.0272,0.0835,0.1385,99,2019-08-07 16:45:57:122
-6.7878,-6.5445,0.675,-0.3706,-0.2407,0.0899,0.0272,0.0835,0.1385,103,2019-08-07 16:45:57:126
-7.137,-6.3727,0.7598,-0.3706,-0.2407,0.0899,0.04,0.0633,0.1343,109,2019-08-07 16:45:57:132
-7.137,-6.3727,0.7598,0.063,-0.3628,0.0025,0.04,0.0633,0.1343,114,2019-08-07 16:45:57:137
-7.137,-6.3727,0.7598,0.063,-0.3628,0.0025,0.0442,0.0175,0.1268,118,2019-08-07 16:45:57:141
-7.2662,-6.3106,0.7174,0.063,-0.3628,0.0025,0.0442,0.0175,0.1268,124,2019-08-07 16:45:57:147
-7.2662,-6.3106,0.7174,0.063,-0.3628,0.0025,0.0411,-0.0294,0.1055,129,2019-08-07 16:45:57:152
-7.2088,-6.2581,0.7033,0.1016,-0.3998,0.1098,0.0411,-0.0294,0.1055,134,2019-08-07 16:45:57:157
-7.2088,-6.2581,0.7033,0.1016,-0.3998,0.1098,0.0411,-0.0294,0.1055,139,2019-08-07 16:45:57:162
-7.2088,-6.2581,0.7033,0.1016,-0.3998,0.1098,0.0304,-0.0592,0.08,144,2019-08-07 16:45:57:167
-7.1036,-6.3822,0.5996,0.1016,-0.3998,0.1098,0.0304,-0.0592,0.08,148,2019-08-07 16:45:57:171
-7.1036,-6.3822,0.5996,-0.0731,-0.3762,0.2008,0.0208,-0.0571,0.0576,154,2019-08-07 16:45:57:177
-7.1036,-6.3822,0.5996,-0.0731,-0.3762,0.2008,0.0208,-0.0571,0.0576,159,2019-08-07 16:45:57:182
-6.8835,-6.4252,0.5949,-0.0731,-0.3762,0.2008,0.0144,-0.0315,0.0363,163,2019-08-07 16:45:57:186
-6.8835,-6.4252,0.5949,-0.0731,-0.3762,0.2008,0.0144,-0.0315,0.0363,169,2019-08-07 16:45:57:192
-6.7926,-6.535,0.6279,-0.3174,-0.1791,0.225,0.0134,0.0068,0.0214,173,2019-08-07 16:45:57:196
-6.7926,-6.535,0.6279,-0.3174,-0.1791,0.225,0.0134,0.0068,0.0214,179,2019-08-07 16:45:57:202
-6.7926,-6.535,0.6279,-0.3174,-0.1791,0.225,0.0112,0.0409,0.0192,184,2019-08-07 16:45:57:207
-6.7639,-6.5779,0.6561,-0.3174,-0.1791,0.225,0.0112,0.0409,0.0192,188,2019-08-07 16:45:57:211
-6.7639,-6.5779,0.6561,-0.3628,-0.1438,0.1778,0.008,0.0633,0.0214,195,2019-08-07 16:45:57:218
-6.8213,-6.6257,0.7268,-0.3628,-0.1438,0.1778,0.008,0.0633,0.0214,199,2019-08-07 16:45:57:222
-6.8213,-6.6257,0.7268,-0.3628,-0.1438,0.1778,0.0038,0.0537,0.015,204,2019-08-07 16:45:57:227
-6.8213,-6.6257,0.7268,-0.3628,-0.1438,0.1778,0.0038,0.0537,0.015,209,2019-08-07 16:45:57:232
-6.8931,-6.5445,0.8494,-0.2555,-0.1847,-0.0794,-0.0048,0.026,0.0203,213,2019-08-07 16:45:57:236
-6.8931,-6.5445,0.8494,-0.2555,-0.1847,-0.0794,-0.0048,0.026,0.0203,219,2019-08-07 16:45:57:242
-6.9218,-6.4204,0.8447,-0.2555,-0.1847,-0.0794,-0.0122,-0.0166,0.0224,223,2019-08-07 16:45:57:246
-6.9218,-6.4204,0.8447,-0.2555,-0.1847,-0.0794,-0.0122,-0.0166,0.0224,229,2019-08-07 16:45:57:252
-6.85,-6.3917,0.7268,-0.2439,-0.2582,0.0667,-0.0303,-0.0528,0.0128,234,2019-08-07 16:45:57:257
-6.85,-6.3917,0.7268,-0.2439,-0.2582,0.0667,-0.0303,-0.0528,0.0128,238,2019-08-07 16:45:57:261
-6.85,-6.3917,0.7268,-0.2439,-0.2582,0.0667,-0.041,-0.0677,1.0E-4,244,2019-08-07 16:45:57:267
-6.8166,-6.4634,0.7268,-0.2439,-0.2582,0.0667,-0.041,-0.0677,1.0E-4,250,2019-08-07 16:45:57:273
-6.8166,-6.4634,0.7268,-0.4245,-0.2256,0.1453,-0.041,-0.0677,1.0E-4,253,2019-08-07 16:45:57:276
-6.8166,-6.4634,0.7268,-0.4245,-0.2256,0.1453,-0.0527,-0.0528,-0.0191,259,2019-08-07 16:45:57:282
-6.6252,-6.5063,0.5901,-0.4245,-0.2256,0.1453,-0.0527,-0.0528,-0.0191,264,2019-08-07 16:45:57:287
-6.6252,-6.5063,0.5901,-0.4245,-0.2256,0.1453,-0.0601,-0.007,-0.0372,269,2019-08-07 16:45:57:292
-6.6587,-6.449,0.5854,-0.4671,-0.2462,0.2103,-0.0601,-0.007,-0.0372,273,2019-08-07 16:45:57:296
-6.6587,-6.449,0.5854,-0.4671,-0.2462,0.2103,-0.0655,0.0569,-0.05,279,2019-08-07 16:45:57:302
-6.6587,-6.449,0.5854,-0.4671,-0.2462,0.2103,-0.0655,0.0569,-0.05,283,2019-08-07 16:45:57:306
-6.7352,-6.5397,0.5901,-0.4671,-0.2462,0.2103,-0.0655,0.0804,-0.0532,289,2019-08-07 16:45:57:312
-6.7352,-6.5397,0.5901,-0.336,-0.1601,0.1487,-0.0655,0.0804,-0.0532,294,2019-08-07 16:45:57:317
-6.7018,-6.5493,0.6844,-0.336,-0.1601,0.1487,-0.0655,0.0825,-0.0521,299,2019-08-07 16:45:57:322
-6.7018,-6.5493,0.6844,-0.336,-0.1601,0.1487,-0.0655,0.0825,-0.0521,304,2019-08-07 16:45:57:327
-6.7018,-6.5493,0.6844,-0.336,-0.1601,0.1487,-0.0655,0.0825,-0.0521,309,2019-08-07 16:45:57:332
-6.7496,-6.5731,0.6514,-0.3825,-0.1641,0.105,-0.0548,0.0697,-0.0404,314,2019-08-07 16:45:57:337
-6.7496,-6.5731,0.6514,-0.3825,-0.1641,0.105,-0.0548,0.0697,-0.0404,319,2019-08-07 16:45:57:342
-6.7783,-6.5159,0.675,-0.3825,-0.1641,0.105,-0.0431,0.0527,-0.0202,323,2019-08-07 16:45:57:346
-6.7783,-6.5159,0.675,-0.3825,-0.1641,0.105,-0.0431,0.0527,-0.0202,329,2019-08-07 16:45:57:352
-6.7783,-6.5159,0.675,-0.3033,-0.2545,0.0856,-0.0431,0.0527,-0.0202,334,2019-08-07 16:45:57:357
-6.8166,-6.4681,0.6655,-0.3033,-0.2545,0.0856,-0.0293,0.0356,-0.0021,339,2019-08-07 16:45:57:362
-6.8166,-6.4681,0.6655,-0.3033,-0.2545,0.0856,-0.0293,0.0356,-0.0021,344,2019-08-07 16:45:57:367
-6.8692,-6.3965,0.6797,-0.3033,-0.2545,0.0856,-0.0197,0.0164,0.0075,349,2019-08-07 16:45:57:372
-6.8692,-6.3965,0.6797,-0.2803,-0.302,0.0314,-0.0197,0.0164,0.0075,354,2019-08-07 16:45:57:377
-6.8692,-6.3965,0.6797,-0.2803,-0.302,0.0314,-0.0069,-0.0017,0.015,359,2019-08-07 16:45:57:382
-6.8501,-6.4395,0.6373,-0.2958,-0.3009,0.0873,-0.0069,-0.0017,0.015,364,2019-08-07 16:45:57:387
-6.8501,-6.4395,0.6373,-0.2958,-0.3009,0.0873,0.0048,0.0037,0.0139,368,2019-08-07 16:45:57:391
-6.831,-6.4586,0.5995,-0.2958,-0.3009,0.0873,0.0048,0.0037,0.0139,374,2019-08-07 16:45:57:397
-6.831,-6.4586,0.5995,-0.2958,-0.3009,0.0873,0.0123,0.0175,0.0096,379,2019-08-07 16:45:57:402
-6.831,-6.4586,0.5995,-0.3021,-0.223,0.1002,0.0123,0.0175,0.0096,383,2019-08-07 16:45:57:406
-6.874,-6.5302,0.6184,-0.3021,-0.223,0.1002,0.0166,0.0303,0.0086,389,2019-08-07 16:45:57:412
-6.874,-6.5302,0.6184,-0.3021,-0.223,0.1002,0.0166,0.0303,0.0086,393,2019-08-07 16:45:57:416
-6.8501,-6.4347,0.6655,-0.3021,-0.223,0.1002,0.0261,0.0441,0.0107,400,2019-08-07 16:45:57:423
-6.8501,-6.4347,0.6655,-0.2133,-0.2783,0.0268,0.0261,0.0441,0.0107,404,2019-08-07 16:45:57:427
-6.8501,-6.4347,0.6655,-0.2133,-0.2783,0.0268,0.0261,0.0441,0.0107,409,2019-08-07 16:45:57:432
-6.9076,-6.3774,0.6797,-0.2133,-0.2783,0.0268,0.0315,0.0463,0.015,414,2019-08-07 16:45:57:437
-6.9076,-6.3774,0.6797,-0.2133,-0.2783,0.0268,0.0315,0.0463,0.015,419,2019-08-07 16:45:57:442
-6.9698,-6.3774,0.741,-0.15,-0.3319,-0.0132,0.0336,0.0345,0.0267,424,2019-08-07 16:45:57:447
-6.9698,-6.3774,0.741,-0.15,-0.3319,-0.0132,0.0336,0.0345,0.0267,429,2019-08-07 16:45:57:452
-6.9698,-6.3774,0.741,-0.15,-0.3319,-0.0132,0.0336,0.0345,0.0267,433,2019-08-07 16:45:57:456
-7.0224,-6.3154,0.741,-0.15,-0.3319,-0.0132,0.0283,0.0164,0.0341,439,2019-08-07 16:45:57:462
-7.0224,-6.3154,0.741,-0.15,-0.3319,-0.0132,0.0283,0.0164,0.0341,444,2019-08-07 16:45:57:467
-7.0224,-6.3154,0.741,-0.1799,-0.3731,0.012,0.0197,-0.0113,0.0416,449,2019-08-07 16:45:57:472
-6.9985,-6.2485,0.7834,-0.1799,-0.3731,0.012,0.0197,-0.0113,0.0416,453,2019-08-07 16:45:57:476
-6.9985,-6.2485,0.7834,-0.1799,-0.3731,0.012,0.008,-0.0304,0.0533,459,2019-08-07 16:45:57:482
-6.9793,-6.2915,0.6938,-0.1799,-0.3731,0.012,0.008,-0.0304,0.0533,464,2019-08-07 16:45:57:487
-6.9793,-6.2915,0.6938,-0.1636,-0.4361,-0.0014,-0.008,-0.0368,0.0523,468,2019-08-07 16:45:57:491
-6.9793,-6.2915,0.6938,-0.1636,-0.4361,-0.0014,-0.008,-0.0368,0.0523,474,2019-08-07 16:45:57:497
-6.9985,-6.2628,0.8022,-0.1636,-0.4361,-0.0014,-0.0133,-0.0304,0.0469,479,2019-08-07 16:45:57:502
-6.9985,-6.2628,0.8022,-0.1636,-0.4361,-0.0014,-0.0133,-0.0304,0.0469,484,2019-08-07 16:45:57:507
-6.9985,-6.2628,0.8022,-0.0609,-0.3992,0.0303,-0.0314,-0.0507,0.0427,488,2019-08-07 16:45:57:511
-7.0416,-6.301,0.675,-0.0609,-0.3992,0.0303,-0.0314,-0.0507,0.0427,494,2019-08-07 16:45:57:517
-7.0416,-6.301,0.675,-0.1403,-0.4294,-0.0107,-0.0388,-0.0517,0.0352,499,2019-08-07 16:45:57:522
-7.0033,-6.2676,0.7174,-0.1403,-0.4294,-0.0107,-0.0388,-0.0517,0.0352,504,2019-08-07 16:45:57:527
-7.0033,-6.2676,0.7174,-0.1403,-0.4294,-0.0107,-0.0612,-0.0624,0.0256,509,2019-08-07 16:45:57:532
-7.0033,-6.2676,0.7174,-0.1403,-0.4294,-0.0107,-0.0612,-0.0624,0.0256,515,2019-08-07 16:45:57:538
-6.8311,-6.3631,0.6702,-0.3161,-0.3157,0.0703,-0.0676,-0.0358,0.0171,518,2019-08-07 16:45:57:541
-6.8311,-6.3631,0.6702,-0.3161,-0.3157,0.0703,-0.0676,-0.0358,0.0171,524,2019-08-07 16:45:57:547
-6.8119,-6.4061,0.7362,-0.3161,-0.3157,0.0703,-0.0751,-0.0166,0.0224,529,2019-08-07 16:45:57:552
-6.8119,-6.4061,0.7362,-0.3161,-0.3157,0.0703,-0.0751,-0.0166,0.0224,534,2019-08-07 16:45:57:557
-6.8119,-6.4061,0.7362,-0.3899,-0.1853,0.0171,-0.0729,-0.0102,0.0331,538,2019-08-07 16:45:57:561
-6.7928,-6.5063,0.6514,-0.3899,-0.1853,0.0171,-0.0729,-0.0102,0.0331,544,2019-08-07 16:45:57:567
-6.7928,-6.5063,0.6514,-0.3899,-0.1853,0.0171,-0.0719,-0.0091,0.0459,549,2019-08-07 16:45:57:572
-6.8694,-6.4777,0.7315,-0.3899,-0.1853,0.0171,-0.0719,-0.0091,0.0459,554,2019-08-07 16:45:57:577
-6.8694,-6.4777,0.7315,-0.2132,-0.2046,0.009,-0.0729,-0.0272,0.0629,559,2019-08-07 16:45:57:582
-6.8694,-6.4777,0.7315,-0.2132,-0.2046,0.009,-0.0729,-0.0272,0.0629,564,2019-08-07 16:45:57:587
-6.9316,-6.4204,0.6749,-0.2132,-0.2046,0.009,-0.0772,-0.056,0.0746,569,2019-08-07 16:45:57:592
-6.9316,-6.4204,0.6749,-0.2132,-0.2046,0.009,-0.0772,-0.056,0.0746,573,2019-08-07 16:45:57:596
-6.8981,-6.3631,0.6655,-0.2701,-0.2476,0.0432,-0.0751,-0.0784,0.0789,579,2019-08-07 16:45:57:602
-6.8981,-6.3631,0.6655,-0.2701,-0.2476,0.0432,-0.0751,-0.0784,0.0789,583,2019-08-07 16:45:57:606
-6.8981,-6.3631,0.6655,-0.2701,-0.2476,0.0432,-0.0719,-0.0986,0.0746,589,2019-08-07 16:45:57:612
-6.9172,-6.3965,0.6467,-0.2701,-0.2476,0.0432,-0.0719,-0.0986,0.0746,594,2019-08-07 16:45:57:617
-6.9172,-6.3965,0.6467,-0.2506,-0.2613,0.1591,-0.0719,-0.0986,0.0746,598,2019-08-07 16:45:57:621
-6.9172,-6.3965,0.6467,-0.2506,-0.2613,0.1591,-0.0708,-0.1146,0.0725,604,2019-08-07 16:45:57:627
-6.7785,-6.3726,0.5948,-0.2506,-0.2613,0.1591,-0.0708,-0.1146,0.0725,609,2019-08-07 16:45:57:632
-6.7785,-6.3726,0.5948,-0.2506,-0.2613,0.1591,-0.0676,-0.1061,0.0629,614,2019-08-07 16:45:57:637
-6.7115,-6.2581,0.5995,-0.4397,-0.3483,0.118,-0.0676,-0.1061,0.0629,619,2019-08-07 16:45:57:642
-6.7115,-6.2581,0.5995,-0.4397,-0.3483,0.118,-0.0676,-0.0794,0.0555,623,2019-08-07 16:45:57:646
-6.7115,-6.2581,0.5995,-0.4397,-0.3483,0.118,-0.0676,-0.0794,0.0555,628,2019-08-07 16:45:57:651
-6.7211,-6.3297,0.4911,-0.4397,-0.3483,0.118,-0.0697,-0.0485,0.0416,634,2019-08-07 16:45:57:657
-6.7211,-6.3297,0.4911,-0.4021,-0.3138,0.2584,-0.0697,-0.0485,0.0416,639,2019-08-07 16:45:57:662
-6.7211,-6.3297,0.4911,-0.4021,-0.3138,0.2584,-0.0751,-0.0368,0.032,644,2019-08-07 16:45:57:667
-6.8838,-6.4013,0.4911,-0.4021,-0.3138,0.2584,-0.0751,-0.0368,0.032,649,2019-08-07 16:45:57:672
-6.8838,-6.4013,0.4911,-0.4021,-0.3138,0.2584,-0.0697,-0.0358,0.0352,654,2019-08-07 16:45:57:677
-6.8838,-6.4013,0.4911,-0.2865,-0.2099,0.1816,-0.0697,-0.0358,0.0352,659,2019-08-07 16:45:57:682
-6.8981,-6.4586,0.51,-0.2865,-0.2099,0.1816,-0.0633,-0.0432,0.0352,664,2019-08-07 16:45:57:687
-6.8981,-6.4586,0.51,-0.2865,-0.2099,0.1816,-0.0633,-0.0432,0.0352,669,2019-08-07 16:45:57:692
-6.8359,-6.449,0.4911,-0.2865,-0.2099,0.1816,-0.058,-0.0443,0.0373,673,2019-08-07 16:45:57:696
-6.8359,-6.449,0.4911,-0.3189,-0.106,0.2254,-0.058,-0.0443,0.0373,679,2019-08-07 16:45:57:702
-6.8359,-6.449,0.4911,-0.3189,-0.106,0.2254,-0.058,-0.04,0.0373,684,2019-08-07 16:45:57:707
-6.8646,-6.4681,0.5477,-0.3189,-0.106,0.2254,-0.058,-0.04,0.0373,688,2019-08-07 16:45:57:711
-6.8646,-6.4681,0.5477,-0.3189,-0.106,0.2254,-0.0538,-0.024,0.0363,694,2019-08-07 16:45:57:717
-6.9029,-6.4299,0.5194,-0.2941,-0.1976,0.1979,-0.0538,-0.024,0.0363,699,2019-08-07 16:45:57:722
-6.9029,-6.4299,0.5194,-0.2941,-0.1976,0.1979,-0.0538,-0.024,0.0363,704,2019-08-07 16:45:57:727
-6.9029,-6.4299,0.5194,-0.2941,-0.1976,0.1979,-0.0484,-0.0155,0.0352,709,2019-08-07 16:45:57:732
-6.9316,-6.5206,0.5524,-0.2941,-0.1976,0.1979,-0.0484,-0.0155,0.0352,714,2019-08-07 16:45:57:737
-6.9316,-6.5206,0.5524,-0.2025,-0.146,0.1927,-0.0378,-0.0155,0.0288,719,2019-08-07 16:45:57:742
-7.0171,-6.5016,0.5101,-0.2025,-0.146,0.1927,-0.0378,-0.0155,0.0288,724,2019-08-07 16:45:57:747
-7.0171,-6.5016,0.5101,-0.2025,-0.146,0.1927,-0.0378,-0.0155,0.0288,728,2019-08-07 16:45:57:751
-7.0171,-6.5016,0.5101,-0.2239,-0.1445,0.1765,-0.0282,-0.0166,0.0182,734,2019-08-07 16:45:57:757
-6.9692,-6.4873,0.5242,-0.2239,-0.1445,0.1765,-0.0282,-0.0166,0.0182,739,2019-08-07 16:45:57:762
-6.9692,-6.4873,0.5242,-0.2239,-0.1445,0.1765,-0.0154,-0.0102,0.0096,744,2019-08-07 16:45:57:767
-6.9405,-6.4873,0.5101,-0.2632,-0.134,0.1976,-0.0058,0.0058,-0.0031,749,2019-08-07 16:45:57:772
-6.9405,-6.4873,0.5101,-0.2632,-0.134,0.1976,-0.0058,0.0058,-0.0031,754,2019-08-07 16:45:57:777
-6.9405,-6.4873,0.5101,-0.2632,-0.134,0.1976,-0.0058,0.0058,-0.0031,759,2019-08-07 16:45:57:782
-6.9309,-6.4348,0.5384,-0.2632,-0.134,0.1976,0.0048,0.0239,-0.0085,764,2019-08-07 16:45:57:787
-6.9309,-6.4348,0.5384,-0.2674,-0.0969,0.1326,0.0155,0.0356,-0.0031,769,2019-08-07 16:45:57:792
-6.974,-6.4348,0.6279,-0.2674,-0.0969,0.1326,0.0155,0.0356,-0.0031,774,2019-08-07 16:45:57:797
-6.974,-6.4348,0.6279,-0.2674,-0.0969,0.1326,0.0155,0.0356,-0.0031,779,2019-08-07 16:45:57:802
-6.974,-6.4348,0.6279,-0.2674,-0.0969,0.1326,0.0293,0.0399,1.0E-4,783,2019-08-07 16:45:57:806
-7.041,-6.492,0.6704,-0.1338,-0.1063,-0.0201,0.0293,0.0399,1.0E-4,789,2019-08-07 16:45:57:812
-7.041,-6.492,0.6704,-0.1338,-0.1063,-0.0201,0.0442,0.0271,0.0075,794,2019-08-07 16:45:57:817
-7.108,-6.4157,0.7788,-0.1338,-0.1063,-0.0201,0.0442,-0.0027,0.0107,800,2019-08-07 16:45:57:823
-7.108,-6.4157,0.7788,-0.1338,-0.1063,-0.0201,0.0442,-0.0027,0.0107,804,2019-08-07 16:45:57:827
-7.108,-6.4157,0.7788,-0.1338,-0.1063,-0.0201,0.0442,-0.0027,0.0107,809,2019-08-07 16:45:57:832
-7.0745,-6.4157,0.8165,-0.1018,-0.209,-0.0703,0.0453,-0.0336,0.0128,814,2019-08-07 16:45:57:837
-7.0745,-6.4157,0.8165,-0.1018,-0.209,-0.0703,0.0453,-0.0336,0.0128,820,2019-08-07 16:45:57:843
-7.0745,-6.4157,0.8165,-0.1018,-0.209,-0.0703,0.0474,-0.0794,0.0065,824,2019-08-07 16:45:57:847
-7.0888,-6.3727,0.8919,-0.1018,-0.209,-0.0703,0.0474,-0.0794,0.0065,829,2019-08-07 16:45:57:852
-7.0888,-6.3727,0.8919,-0.1121,-0.34,-0.025,0.0464,-0.1029,0.0065,833,2019-08-07 16:45:57:856
-7.0888,-6.3727,0.8919,-0.1121,-0.34,-0.025,0.0464,-0.1029,0.0065,839,2019-08-07 16:45:57:862
-6.8113,-6.3202,0.8118,-0.1121,-0.34,-0.025,0.041,-0.1007,-0.0074,843,2019-08-07 16:45:57:866
-6.8113,-6.3202,0.8118,-0.4209,-0.34,-0.0744,0.041,-0.1007,-0.0074,850,2019-08-07 16:45:57:873
-6.7922,-6.3441,0.7646,-0.4209,-0.34,-0.0744,0.0336,-0.0848,-0.0181,854,2019-08-07 16:45:57:877
-6.7922,-6.3441,0.7646,-0.4209,-0.34,-0.0744,0.0336,-0.0848,-0.0181,859,2019-08-07 16:45:57:882
-6.7922,-6.3441,0.7646,-0.4209,-0.34,-0.0744,0.0293,-0.0645,-0.0202,863,2019-08-07 16:45:57:886
-6.6343,-6.3536,0.7458,-0.4209,-0.34,-0.0744,0.0293,-0.0645,-0.0202,869,2019-08-07 16:45:57:892
-6.6343,-6.3536,0.7458,-0.6168,-0.1863,0.0253,0.0293,-0.0645,-0.0202,873,2019-08-07 16:45:57:896
-6.5434,-6.4777,0.7458,-0.6168,-0.1863,0.0253,0.024,-0.0208,-0.0244,879,2019-08-07 16:45:57:902
-6.5434,-6.4777,0.7458,-0.6168,-0.1863,0.0253,0.024,-0.0208,-0.0244,883,2019-08-07 16:45:57:906
-6.5434,-6.4777,0.7458,-0.6168,-0.1863,0.0253,0.0261,0.0164,-0.0212,889,2019-08-07 16:45:57:912
-6.6582,-6.4443,0.7552,-0.5353,-0.1815,0.011,0.0261,0.0164,-0.0212,893,2019-08-07 16:45:57:916
-6.6582,-6.4443,0.7552,-0.5353,-0.1815,0.011,0.0293,0.0441,-0.0159,900,2019-08-07 16:45:57:923
-6.7396,-6.4825,0.8071,-0.5353,-0.1815,0.011,0.0293,0.0441,-0.0159,904,2019-08-07 16:45:57:927
-6.7396,-6.4825,0.8071,-0.5353,-0.1815,0.011,0.0304,0.0505,-0.0042,910,2019-08-07 16:45:57:933
-6.7396,-6.4825,0.8071,-0.3613,-0.179,0.0085,0.0304,0.0505,-0.0042,914,2019-08-07 16:45:57:937
-6.8783,-6.4443,0.8542,-0.3613,-0.179,0.0085,0.0229,0.0409,-0.001,919,2019-08-07 16:45:57:942
-6.8783,-6.4443,0.8542,-0.3613,-0.179,0.0085,0.0229,0.0409,-0.001,923,2019-08-07 16:45:57:946
-6.8783,-6.4443,0.8542,-0.3613,-0.179,0.0085,0.0208,0.0111,1.0E-4,929,2019-08-07 16:45:57:952
-6.9405,-6.3584,0.8071,-0.2467,-0.2934,-0.0348,0.0208,0.0111,1.0E-4,934,2019-08-07 16:45:57:957
-6.9405,-6.3584,0.8071,-0.2467,-0.2934,-0.0348,0.0155,-0.0177,-0.0021,939,2019-08-07 16:45:57:962
-6.8352,-6.3584,0.6657,-0.3566,-0.2695,0.0994,0.0155,-0.0177,-0.0021,945,2019-08-07 16:45:57:968
-6.8352,-6.3584,0.6657,-0.3566,-0.2695,0.0994,0.0059,-0.0155,-0.0074,948,2019-08-07 16:45:57:971
-6.8352,-6.3584,0.6657,-0.3566,-0.2695,0.0994,0.0059,-0.0155,-0.0074,954,2019-08-07 16:45:57:977
-6.8065,-6.282,0.5997,-0.3566,-0.2695,0.0994,0.0059,-0.0155,-0.0074,958,2019-08-07 16:45:57:981
-6.8065,-6.282,0.5997,-0.3932,-0.2664,0.1427,0.0048,0.0111,-0.017,964,2019-08-07 16:45:57:987
-6.8065,-6.3584,0.5808,-0.3932,-0.2664,0.1427,0.0112,0.0377,-0.0127,969,2019-08-07 16:45:57:992
-6.8065,-6.3584,0.5808,-0.3932,-0.2664,0.1427,0.0112,0.0377,-0.0127,974,2019-08-07 16:45:57:997
-6.8065,-6.3584,0.5808,-0.3932,-0.2664,0.1427,0.0112,0.0377,-0.0127,979,2019-08-07 16:45:58:002
-6.8448,-6.3727,0.5761,-0.3441,-0.2589,0.1846,0.0134,0.0537,-0.0106,984,2019-08-07 16:45:58:007
-6.8448,-6.3727,0.5761,-0.3441,-0.2589,0.1846,0.0134,0.0537,-0.0106,989,2019-08-07 16:45:58:012
-6.8448,-6.3727,0.5761,-0.3441,-0.2589,0.1846,0.0176,0.0633,0.0022,994,2019-08-07 16:45:58:017
-6.8783,-6.3631,0.6515,-0.3441,-0.2589,0.1846,0.0176,0.0633,0.0022,999,2019-08-07 16:45:58:022
-6.8783,-6.3631,0.6515,-0.2351,-0.2632,0.0598,0.0176,0.0633,0.0022,1003,2019-08-07 16:45:58:026
-6.9979,-6.3297,0.6939,-0.2351,-0.2632,0.0598,0.0272,0.0484,0.0118,1009,2019-08-07 16:45:58:032
-6.9979,-6.3297,0.6939,-0.2351,-0.2632,0.0598,0.0272,0.0484,0.0118,1014,2019-08-07 16:45:58:037
-6.9979,-6.3297,0.6939,-0.2351,-0.2632,0.0598,0.0293,0.0292,0.0203,1019,2019-08-07 16:45:58:042
-6.9548,-6.2581,0.7599,-0.1713,-0.3364,-0.0218,0.0293,0.0292,0.0203,1024,2019-08-07 16:45:58:047
-6.9548,-6.2581,0.7599,-0.1713,-0.3364,-0.0218,0.0293,-6.0E-4,0.0171,1029,2019-08-07 16:45:58:052
-6.95,-6.2581,0.7835,-0.1713,-0.3364,-0.0218,0.0293,-6.0E-4,0.0171,1034,2019-08-07 16:45:58:057
-6.95,-6.2581,0.7835,-0.1713,-0.3364,-0.0218,0.0251,-0.0262,0.0171,1039,2019-08-07 16:45:58:062
-6.95,-6.2581,0.7835,-0.2936,-0.3853,0.0405,0.0251,-0.0262,0.0171,1044,2019-08-07 16:45:58:067
-6.8639,-6.3059,0.7175,-0.2936,-0.3853,0.0405,0.0197,-0.0272,0.015,1050,2019-08-07 16:45:58:073
-6.8639,-6.3059,0.7175,-0.2936,-0.3853,0.0405,0.0197,-0.0272,0.015,1053,2019-08-07 16:45:58:076
-6.8352,-6.2677,0.6138,-0.2936,-0.3853,0.0405,0.0197,-0.0272,0.015,1059,2019-08-07 16:45:58:082
-6.8352,-6.2677,0.6138,-0.4194,-0.3402,0.0838,0.0144,-0.0102,0.0139,1065,2019-08-07 16:45:58:088
-6.8352,-6.2677,0.6138,-0.4194,-0.3402,0.0838,0.0144,-0.0102,0.0139,1069,2019-08-07 16:45:58:092
-6.7395,-6.3011,0.6987,-0.4194,-0.3402,0.0838,0.007,0.009,0.0171,1074,2019-08-07 16:45:58:097
-6.7395,-6.3011,0.6987,-0.4194,-0.3402,0.0838,0.007,0.009,0.0171,1079,2019-08-07 16:45:58:102
-6.7539,-6.3154,0.6704,-0.4455,-0.3045,0.0922,0.0059,0.0282,0.0171,1085,2019-08-07 16:45:58:108
-6.7539,-6.3154,0.6704,-0.4455,-0.3045,0.0922,0.0059,0.0282,0.0171,1089,2019-08-07 16:45:58:112
-6.7539,-6.3154,0.6704,-0.4455,-0.3045,0.0922,6.0E-4,0.0558,0.0203,1093,2019-08-07 16:45:58:116
-6.8639,-6.3441,0.7175,-0.4455,-0.3045,0.0922,6.0E-4,0.0558,0.0203,1099,2019-08-07 16:45:58:122
-6.8639,-6.3441,0.7175,-0.2912,-0.2873,0.0553,-0.0016,0.0718,0.0267,1104,2019-08-07 16:45:58:127
-6.8639,-6.3441,0.7175,-0.2912,-0.2873,0.0553,-0.0016,0.0718,0.0267,1109,2019-08-07 16:45:58:132
-6.9883,-6.3393,0.7788,-0.2912,-0.2873,0.0553,-0.0048,0.0633,0.031,1114,2019-08-07 16:45:58:137
-6.9883,-6.3393,0.7788,-0.1933,-0.2803,0.0832,-0.0048,0.0633,0.031,1119,2019-08-07 16:45:58:142
-7.0505,-6.3106,0.7741,-0.1933,-0.2803,0.0832,-0.0048,0.0633,0.031,1124,2019-08-07 16:45:58:147
-7.0505,-6.3106,0.7741,-0.1933,-0.2803,0.0832,-0.0037,0.0495,0.0299,1129,2019-08-07 16:45:58:152
-7.0505,-6.3106,0.7741,-0.1933,-0.2803,0.0832,-0.0037,0.0495,0.0299,1134,2019-08-07 16:45:58:157
-7.1079,-6.3393,0.7835,-0.0933,-0.242,-0.019,-0.0111,0.0313,0.0267,1139,2019-08-07 16:45:58:162
-7.1079,-6.3393,0.7835,-0.0933,-0.242,-0.019,-0.0111,0.0313,0.0267,1144,2019-08-07 16:45:58:167
-7.1414,-6.3631,0.7741,-0.0933,-0.242,-0.019,-0.0111,0.0111,0.0246,1148,2019-08-07 16:45:58:171
-7.1414,-6.3631,0.7741,-0.0933,-0.242,-0.019,-0.0111,0.0111,0.0246,1154,2019-08-07 16:45:58:177
-7.1414,-6.3631,0.7741,-0.0931,-0.2327,0.0104,-0.009,-0.0091,0.0203,1159,2019-08-07 16:45:58:182
-7.1031,-6.3011,0.7317,-0.0931,-0.2327,0.0104,-0.009,-0.0091,0.0203,1165,2019-08-07 16:45:58:188
-7.1031,-6.3011,0.7317,-0.0931,-0.2327,0.0104,-0.0058,-0.0123,0.0182,1168,2019-08-07 16:45:58:191
-7.0648,-6.3584,0.6704,-0.0931,-0.2327,0.0104,-0.0058,-0.0123,0.0182,1174,2019-08-07 16:45:58:197
-7.0648,-6.3584,0.6704,-0.1866,-0.2154,0.0295,-0.008,-0.0059,0.0096,1179,2019-08-07 16:45:58:202
-7.0648,-6.3584,0.6704,-0.1866,-0.2154,0.0295,-0.008,-0.0059,0.0096,1184,2019-08-07 16:45:58:207
-7.0361,-6.4013,0.6892,-0.1866,-0.2154,0.0295,6.0E-4,0.01,0.0054,1189,2019-08-07 16:45:58:212
-7.0361,-6.4013,0.6892,-0.1866,-0.2154,0.0295,6.0E-4,0.01,0.0054,1194,2019-08-07 16:45:58:217
-7.0648,-6.4491,0.6845,-0.1638,-0.2048,0.0143,6.0E-4,0.01,0.0054,1199,2019-08-07 16:45:58:222
-7.0648,-6.4491,0.6845,-0.1638,-0.2048,0.0143,0.0112,0.0282,-0.0095,1204,2019-08-07 16:45:58:227
-7.0648,-6.4491,0.6845,-0.1638,-0.2048,0.0143,0.0112,0.0282,-0.0095,1209,2019-08-07 16:45:58:232
-7.1462,-6.4348,0.7081,-0.1638,-0.2048,0.0143,0.0144,0.0356,-0.0181,1214,2019-08-07 16:45:58:237
-7.1462,-6.4348,0.7081,0.0715,-0.1631,-0.0779,0.0144,0.0356,-0.0181,1219,2019-08-07 16:45:58:242
-7.2036,-6.3822,0.8165,0.0715,-0.1631,-0.0779,0.0304,0.01,-0.0244,1224,2019-08-07 16:45:58:247
-7.2036,-6.3822,0.8165,0.0715,-0.1631,-0.0779,0.0304,0.01,-0.0244,1229,2019-08-07 16:45:58:252
-7.1318,-6.4443,0.8071,0.0715,-0.1631,-0.0779,0.0304,-0.024,-0.0287,1235,2019-08-07 16:45:58:258
-7.1318,-6.4443,0.8071,-0.0932,-0.1561,-0.068,0.0304,-0.024,-0.0287,1240,2019-08-07 16:45:58:263
-7.1318,-6.4443,0.8071,-0.0932,-0.1561,-0.068,0.0229,-0.0688,-0.0372,1244,2019-08-07 16:45:58:267
-7.0935,-6.3441,0.8259,-0.0932,-0.1561,-0.068,0.0229,-0.0688,-0.0372,1249,2019-08-07 16:45:58:272
-7.0935,-6.3441,0.8259,-0.0932,-0.1561,-0.068,0.0187,-0.0944,-0.033,1254,2019-08-07 16:45:58:277
-7.0935,-6.3441,0.8259,-0.3077,-0.2082,-0.0395,0.0187,-0.0944,-0.033,1259,2019-08-07 16:45:58:282
-6.8687,-6.4061,0.7741,-0.3077,-0.2082,-0.0395,0.0144,-0.0986,-0.0319,1264,2019-08-07 16:45:58:287
-6.8687,-6.4061,0.7741,-0.3077,-0.2082,-0.0395,0.0144,-0.0986,-0.0319,1269,2019-08-07 16:45:58:292
-6.8687,-6.4061,0.7741,-0.3077,-0.2082,-0.0395,0.0144,-0.0986,-0.0319,1274,2019-08-07 16:45:58:297
-6.7347,-6.4395,0.7128,-0.502,-0.1898,0.1124,0.0102,-0.0816,-0.0298,1279,2019-08-07 16:45:58:302
-6.7347,-6.4395,0.7128,-0.502,-0.1898,0.1124,0.0102,-0.0816,-0.0298,1284,2019-08-07 16:45:58:307
-6.7921,-6.4682,0.6562,-0.502,-0.1898,0.1124,0.0144,-0.039,-0.0298,1289,2019-08-07 16:45:58:312
-6.7921,-6.4682,0.6562,-0.502,-0.1898,0.1124,0.0144,-0.039,-0.0298,1294,2019-08-07 16:45:58:317
-6.7921,-6.4682,0.6562,-0.3148,-0.2091,0.1249,0.0165,-0.0177,-0.0276,1300,2019-08-07 16:45:58:323
-6.8687,-6.3822,0.7128,-0.3148,-0.2091,0.1249,0.0165,-0.0177,-0.0276,1304,2019-08-07 16:45:58:327
-6.8687,-6.3822,0.7128,-0.3148,-0.2091,0.1249,0.0165,-0.0177,-0.0276,1309,2019-08-07 16:45:58:332
-6.8687,-6.3822,0.7128,-0.3148,-0.2091,0.1249,0.0165,-0.0102,-0.0287,1314,2019-08-07 16:45:58:337
-6.883,-6.3202,0.6657,-0.3155,-0.2704,0.1613,0.0165,-0.0102,-0.0287,1319,2019-08-07 16:45:58:342
-6.883,-6.3202,0.6657,-0.3155,-0.2704,0.1613,0.0112,0.0037,-0.0319,1324,2019-08-07 16:45:58:347
-6.8543,-6.282,0.6704,-0.3155,-0.2704,0.1613,0.0112,0.0037,-0.0319,1328,2019-08-07 16:45:58:351
-6.8543,-6.282,0.6704,-0.3155,-0.2704,0.1613,0.0112,0.0047,-0.0319,1334,2019-08-07 16:45:58:357
-6.8543,-6.282,0.6704,-0.3879,-0.3609,0.0862,0.0112,0.0047,-0.0319,1339,2019-08-07 16:45:58:362
-6.7969,-6.3202,0.6704,-0.3879,-0.3609,0.0862,0.0197,-0.0017,-0.0202,1344,2019-08-07 16:45:58:367
-6.7969,-6.3202,0.6704,-0.4483,-0.2863,0.0401,0.0197,-0.0017,-0.0202,1350,2019-08-07 16:45:58:373
-6.7969,-6.3202,0.6704,-0.4483,-0.2863,0.0401,0.024,-0.0091,-0.017,1353,2019-08-07 16:45:58:376
-6.706,-6.2295,0.6562,-0.4483,-0.2863,0.0401,0.024,-0.0091,-0.017,1359,2019-08-07 16:45:58:382
-6.706,-6.2295,0.6562,-0.4483,-0.2863,0.0401,0.0315,-0.0081,-0.0106,1364,2019-08-07 16:45:58:387
-6.6773,-6.2008,0.6704,-0.5082,-0.4315,0.115,0.0315,-0.0081,-0.0106,1369,2019-08-07 16:45:58:392
-6.6773,-6.2008,0.6704,-0.5082,-0.4315,0.115,0.0315,-0.0081,-0.0106,1374,2019-08-07 16:45:58:397
-6.6773,-6.2008,0.6704,-0.5082,-0.4315,0.115,0.0379,-0.0113,0.0075,1379,2019-08-07 16:45:58:402
-6.6295,-6.2008,0.6657,-0.5082,-0.4315,0.115,0.0379,-0.0113,0.0075,1384,2019-08-07 16:45:58:407
-6.6295,-6.2008,0.6657,-0.6243,-0.5154,0.1346,0.0368,-0.0081,0.0288,1389,2019-08-07 16:45:58:412
-6.6295,-6.2008,0.6657,-0.6243,-0.5154,0.1346,0.0368,-0.0081,0.0288,1393,2019-08-07 16:45:58:416
-6.529,-6.1627,0.6515,-0.703,-0.4507,0.0947,0.0315,-0.0027,0.0512,1399,2019-08-07 16:45:58:422
-6.529,-6.1627,0.6515,-0.703,-0.4507,0.0947,0.0315,-0.0027,0.0512,1404,2019-08-07 16:45:58:427
-6.529,-6.1627,0.6515,-0.703,-0.4507,0.0947,0.0315,-0.0027,0.0512,1409,2019-08-07 16:45:58:432
-6.3998,-6.1722,0.6232,-0.703,-0.4507,0.0947,0.0304,0.0218,0.0682,1414,2019-08-07 16:45:58:437
-6.3998,-6.1722,0.6232,-0.821,-0.4229,0.1428,0.0304,0.0218,0.0682,1419,2019-08-07 16:45:58:442
-6.3663,-6.177,0.6562,-0.821,-0.4229,0.1428,0.0283,0.0537,0.0981,1424,2019-08-07 16:45:58:447
-6.3663,-6.177,0.6562,-0.821,-0.4229,0.1428,0.0283,0.0537,0.0981,1428,2019-08-07 16:45:58:451
-6.3663,-6.177,0.6562,-0.821,-0.4229,0.1428,0.0272,0.0761,0.1226,1434,2019-08-07 16:45:58:457
-6.3376,-6.1913,0.5572,-0.821,-0.4229,0.1428,0.0272,0.0761,0.1226,1438,2019-08-07 16:45:58:461
-6.3376,-6.1913,0.5572,-0.8692,-0.4123,0.1505,0.0283,0.0835,0.1471,1444,2019-08-07 16:45:58:467
-6.3376,-6.1913,0.5572,-0.8692,-0.4123,0.1505,0.0283,0.0835,0.1471,1449,2019-08-07 16:45:58:472
-6.328,-6.1436,0.6138,-0.8692,-0.4123,0.1505,0.0272,0.091,0.1801,1454,2019-08-07 16:45:58:477
-6.328,-6.1436,0.6138,-0.8692,-0.4123,0.1505,0.0272,0.091,0.1801,1459,2019-08-07 16:45:58:482
-6.3041,-5.9287,0.6185,-0.9635,-0.5703,0.1876,0.0315,0.0963,0.2099,1464,2019-08-07 16:45:58:487
-6.3041,-5.9287,0.6185,-0.9635,-0.5703,0.1876,0.0315,0.0963,0.2099,1469,2019-08-07 16:45:58:492
-6.3041,-5.9287,0.6185,-0.9635,-0.5703,0.1876,0.0379,0.0974,0.2749,1474,2019-08-07 16:45:58:497
-6.0888,-5.7521,0.6845,-0.9635,-0.5703,0.1876,0.0379,0.0974,0.2749,1479,2019-08-07 16:45:58:502
-6.0888,-5.7521,0.6845,-1.3516,-0.9443,0.0697,0.0474,0.0857,0.3495,1485,2019-08-07 16:45:58:508
-6.0888,-5.7521,0.6845,-1.3516,-0.9443,0.0697,0.0474,0.0857,0.3495,1488,2019-08-07 16:45:58:511
-5.2755,-5.2413,0.8872,-1.3516,-0.9443,0.0697,0.0794,0.0729,0.4773,1494,2019-08-07 16:45:58:517
-5.2755,-5.2413,0.8872,-1.3516,-0.9443,0.0697,0.0794,0.0729,0.4773,1499,2019-08-07 16:45:58:522
-3.9168,-4.8164,1.0758,-3.0712,-1.6037,-0.231,0.1167,0.0654,0.7372,1505,2019-08-07 16:45:58:528
-3.9168,-4.8164,1.0758,-3.0712,-1.6037,-0.231,0.1167,0.0654,0.7372,1508,2019-08-07 16:45:58:531
-3.9168,-4.8164,1.0758,-3.0712,-1.6037,-0.231,0.1167,0.0654,0.7372,1514,2019-08-07 16:45:58:537
-2.1227,-4.2818,1.731,-6.1111,-2.2905,-1.3204,0.1721,0.0271,1.0664,1520,2019-08-07 16:45:58:543
-2.1227,-4.2818,1.731,-6.1111,-2.2905,-1.3204,0.1721,0.0271,1.0664,1524,2019-08-07 16:45:58:547
-0.5152,-4.0001,2.3862,-6.1111,-2.2905,-1.3204,0.2253,-0.0208,1.5053,1529,2019-08-07 16:45:58:552
-0.5152,-4.0001,2.3862,-7.6225,-2.2584,-1.6455,0.2253,-0.0208,1.5053,1535,2019-08-07 16:45:58:558
-0.5152,-4.0001,2.3862,-7.6225,-2.2584,-1.6455,0.2253,-0.0848,2.1902,1538,2019-08-07 16:45:58:561
0.8053,-3.5848,2.0704,-7.6225,-2.2584,-1.6455,0.2253,-0.0848,2.1902,1544,2019-08-07 16:45:58:567
0.8053,-3.5848,2.0704,-7.6225,-2.2584,-1.6455,0.1817,-0.0794,2.8156,1549,2019-08-07 16:45:58:572
0.633,-2.5011,1.9431,-8.5423,-3.2371,-0.9987,0.1817,-0.0794,2.8156,1554,2019-08-07 16:45:58:577
0.633,-2.5011,1.9431,-8.5423,-3.2371,-0.9987,0.1817,-0.0794,2.8156,1559,2019-08-07 16:45:58:582
0.633,-2.5011,1.9431,-8.5423,-3.2371,-0.9987,0.1561,-0.2318,3.492,1564,2019-08-07 16:45:58:587
-0.0128,-1.3984,1.7923,-8.5423,-3.2371,-0.9987,0.1561,-0.2318,3.492,1569,2019-08-07 16:45:58:592
-0.0128,-1.3984,1.7923,-7.9609,-4.8145,-0.6499,0.1465,-0.9253,4.6233,1574,2019-08-07 16:45:58:597
0.1546,-0.0808,1.5,-7.9609,-4.8145,-0.6499,0.1465,-0.9253,4.6233,1579,2019-08-07 16:45:58:602
0.1546,-0.0808,1.5,-7.9609,-4.8145,-0.6499,0.1497,-1.5538,5.4084,1585,2019-08-07 16:45:58:608
0.1546,-0.0808,1.5,-7.9609,-4.8145,-0.6499,0.1497,-1.5538,5.4084,1588,2019-08-07 16:45:58:611
2.1449,0.4491,0.7128,-10.7338,-4.9968,0.6231,0.1497,-1.5538,5.4084,1594,2019-08-07 16:45:58:617
2.1449,0.4491,0.7128,-10.7338,-4.9968,0.6231,0.1742,-2.015,6.1349,1599,2019-08-07 16:45:58:622
2.1449,0.4491,0.7128,-10.7338,-4.9968,0.6231,0.1742,-2.015,6.1349,1604,2019-08-07 16:45:58:627
4.5992,0.8596,-0.3148,-10.7338,-4.9968,0.6231,0.1742,-2.015,6.1349,1609,2019-08-07 16:45:58:632
4.5992,0.8596,-0.3148,-14.5845,-4.6452,2.6149,0.2743,-2.0427,7.099,1615,2019-08-07 16:45:58:638
5.6134,1.7667,-0.9135,-14.5845,-4.6452,2.6149,0.2743,-2.0427,7.099,1619,2019-08-07 16:45:58:642
5.6134,1.7667,-0.9135,-14.5845,-4.6452,2.6149,0.4672,-1.59,7.8819,1624,2019-08-07 16:45:58:647
5.6134,1.7667,-0.9135,-14.5845,-4.6452,2.6149,0.4672,-1.59,7.8819,1629,2019-08-07 16:45:58:652
3.6615,2.5591,-1.3188,-13.0633,-4.454,3.3809,0.6642,-1.1628,8.519,1634,2019-08-07 16:45:58:657
3.6615,2.5591,-1.3188,-13.0633,-4.454,3.3809,0.6642,-1.1628,8.519,1639,2019-08-07 16:45:58:662
1.0636,2.836,0.0764,-10.5755,-3.8498,2.0991,0.8421,-1.0041,9.0686,1644,2019-08-07 16:45:58:667
1.0636,2.836,0.0764,-10.5755,-3.8498,2.0991,0.8421,-1.0041,9.0686,1649,2019-08-07 16:45:58:672
1.0636,2.836,0.0764,-10.5755,-3.8498,2.0991,0.8421,-1.0041,9.0686,1654,2019-08-07 16:45:58:677
-2.6202,4.3493,0.9249,-10.5755,-3.8498,2.0991,1.2576,-1.3652,9.7238,1659,2019-08-07 16:45:58:682
-2.6202,4.3493,0.9249,-6.2307,-3.9418,2.589,1.2576,-1.3652,9.7238,1664,2019-08-07 16:45:58:687
-2.7733,5.9724,-0.9794,-6.2307,-3.9418,2.589,1.5388,-1.4387,10.0167,1669,2019-08-07 16:45:58:692
-2.7733,5.9724,-0.9794,-6.2307,-3.9418,2.589,1.5388,-1.4387,10.0167,1674,2019-08-07 16:45:58:697
-2.7733,5.9724,-0.9794,-6.2307,-3.9418,2.589,2.0256,-0.9583,10.2362,1679,2019-08-07 16:45:58:702
-2.4623,8.5932,-3.2421,-6.5334,-5.5978,5.7599,2.0256,-0.9583,10.2362,1684,2019-08-07 16:45:58:707
-2.4623,8.5932,-3.2421,-6.5334,-5.5978,5.7599,2.7244,0.5448,10.2085,1689,2019-08-07 16:45:58:712
-2.4623,8.5932,-3.2421,-6.5334,-5.5978,5.7599,2.7244,0.5448,10.2085,1694,2019-08-07 16:45:58:717
-6.5959,14.5319,-0.6683,-6.5334,-5.5978,5.7599,2.7244,0.5448,10.2085,1698,2019-08-07 16:45:58:721
-6.5959,14.5319,-0.6683,2.7072,-12.4701,-0.2409,3.2773,1.4386,10.1605,1705,2019-08-07 16:45:58:728
-6.5959,14.5319,-0.6683,2.7072,-12.4701,-0.2409,3.2773,1.4386,10.1605,1709,2019-08-07 16:45:58:732
-14.6669,19.7449,4.5546,2.7072,-12.4701,-0.2409,3.9367,1.0892,10.2681,1714,2019-08-07 16:45:58:737
-14.6669,19.7449,4.5546,2.7072,-12.4701,-0.2409,3.9367,1.0892,10.2681,1719,2019-08-07 16:45:58:742
-27.1729,28.1754,11.4179,20.1928,-21.4551,-9.8848,4.5791,-1.606,10.4034,1724,2019-08-07 16:45:58:747
-27.1729,28.1754,11.4179,20.1928,-21.4551,-9.8848,4.5791,-1.606,10.4034,1730,2019-08-07 16:45:58:753
-27.1729,32.4289,10.8664,20.1928,-21.4551,-9.8848,4.5791,-1.606,10.4034,1734,2019-08-07 16:45:58:757
-34.7894,32.4289,10.8664,28.6031,-24.9455,-9.4649,4.349,-5.2907,10.5376,1738,2019-08-07 16:45:58:761
-34.7894,32.4289,10.8664,28.6031,-24.9455,-9.4649,3.4424,-10.0546,10.8988,1744,2019-08-07 16:45:58:767
-37.5308,29.1636,5.3512,28.6031,-24.9455,-9.4649,3.4424,-10.0546,10.8988,1749,2019-08-07 16:45:58:772
-37.5308,29.1636,5.3512,28.0165,-14.5828,2.129,3.4424,-10.0546,10.8988,1754,2019-08-07 16:45:58:777
-37.5308,29.1636,5.3512,28.0165,-14.5828,2.129,1.6176,-16.0094,11.3451,1759,2019-08-07 16:45:58:782
-25.5128,19.9788,-4.4629,28.0165,-14.5828,2.129,1.6176,-16.0094,11.3451,1764,2019-08-07 16:45:58:787
-25.5128,19.9788,-4.4629,28.0165,-14.5828,2.129,0.2711,-17.4731,10.6282,1769,2019-08-07 16:45:58:792
3.8529,14.2788,-21.8333,-5.2382,-4.9018,24.3608,0.2711,-17.4731,10.6282,1774,2019-08-07 16:45:58:797
3.8529,14.2788,-21.8333,-5.2382,-4.9018,24.3608,-0.2743,-13.8629,9.0058,1779,2019-08-07 16:45:58:802
3.8529,14.2788,-21.8333,-5.2382,-4.9018,24.3608,-0.2743,-13.8629,9.0058,1784,2019-08-07 16:45:58:807
31.3527,8.8319,-17.2232,-5.2382,-4.9018,24.3608,-0.2775,-8.8561,6.4875,1788,2019-08-07 16:45:58:811
31.3527,8.8319,-17.2232,-38.8904,4.5803,13.9425,-0.2775,-8.8561,6.4875,1794,2019-08-07 16:45:58:817
40.4954,3.6857,-8.6724,-38.8904,4.5803,13.9425,0.268,-1.6752,3.3013,1799,2019-08-07 16:45:58:822
40.4954,3.6857,-8.6724,-38.8904,4.5803,13.9425,0.268,-1.6752,3.3013,1804,2019-08-07 16:45:58:827
40.4954,3.6857,-8.6724,-38.8904,4.5803,13.9425,0.268,-1.6752,3.3013,1809,2019-08-07 16:45:58:832
24.8174,3.4136,7.3404,-38.8904,4.5803,13.9425,1.9521,8.7825,-0.3525,1815,2019-08-07 16:45:58:838
24.8174,3.4136,7.3404,-21.6259,4.2034,-17.0558,1.9521,8.7825,-0.3525,1818,2019-08-07 16:45:58:841
24.8174,3.4136,7.3404,-21.6259,4.2034,-17.0558,2.0959,10.0885,-2.2029,1824,2019-08-07 16:45:58:847
1.0637,12.4123,-2.4266,-21.6259,4.2034,-17.0558,2.0959,10.0885,-2.2029,1828,2019-08-07 16:45:58:851
1.0637,12.4123,-2.4266,16.2703,-8.7393,2.0168,1.6837,11.9506,-2.8357,1834,2019-08-07 16:45:58:857
-20.1879,19.8021,1.9148,16.2703,-8.7393,2.0168,1.6837,11.9506,-2.8357,1839,2019-08-07 16:45:58:862
-20.1879,19.8021,1.9148,16.2703,-8.7393,2.0168,0.6674,10.5167,-2.5331,1844,2019-08-07 16:45:58:867
-20.1879,19.8021,1.9148,16.2703,-8.7393,2.0168,0.6674,10.5167,-2.5331,1849,2019-08-07 16:45:58:872
-31.6031,21.2773,7.496,28.1714,-9.1373,-9.0781,-1.037,5.1521,-1.046,1854,2019-08-07 16:45:58:877
-31.6031,21.2773,7.496,28.1714,-9.1373,-9.0781,-1.037,5.1521,-1.046,1859,2019-08-07 16:45:58:882
-31.6031,21.2773,7.496,28.1714,-9.1373,-9.0781,-1.037,5.1521,-1.046,1864,2019-08-07 16:45:58:887
-19.8722,13.3098,15.0805,28.1714,-9.1373,-9.0781,-1.8296,0.5086,-0.3994,1869,2019-08-07 16:45:58:892
-19.8722,13.3098,15.0805,28.1714,-9.1373,-9.0781,-1.8296,0.5086,-0.3994,1874,2019-08-07 16:45:58:897
-9.366,9.0611,22.6367,6.6113,0.7552,-15.9536,-1.6655,-6.2292,-0.5645,1878,2019-08-07 16:45:58:901
-9.366,9.0611,22.6367,6.6113,0.7552,-15.9536,-1.6655,-6.2292,-0.5645,1884,2019-08-07 16:45:58:907
-9.366,9.0611,22.6367,6.6113,0.7552,-15.9536,0.4086,-1.4227,-1.2783,1889,2019-08-07 16:45:58:912
-0.8452,9.6482,6.096,6.6113,0.7552,-15.9536,0.4086,-1.4227,-1.2783,1893,2019-08-07 16:45:58:916
-0.8452,9.6482,6.096,-0.9909,-0.725,1.1552,0.1881,-2.0885,-1.7235,1898,2019-08-07 16:45:58:921
-0.8452,9.6482,6.096,-0.9909,-0.725,1.1552,0.1881,-2.0885,-1.7235,1904,2019-08-07 16:45:58:927
-0.8452,9.6482,6.096,-0.9909,-0.725,1.1552,0.1881,-2.0885,-1.7235,1909,2019-08-07 16:45:58:932
1.6904,12.398,-4.84,-0.9909,-0.725,1.1552,-0.5555,0.384,-2.499,1914,2019-08-07 16:45:58:937
1.6904,12.398,-4.84,-3.0284,-3.5856,3.6399,-0.5555,0.384,-2.499,1919,2019-08-07 16:45:58:942
-1.7016,12.7846,-1.2764,-3.0284,-3.5856,3.6399,-1.4482,2.2471,-3.7486,1924,2019-08-07 16:45:58:947
-1.7016,12.7846,-1.2764,1.3388,-3.4618,3.7174,-1.4482,2.2471,-3.7486,1929,2019-08-07 16:45:58:952
-1.7016,12.7846,-1.2764,1.3388,-3.4618,3.7174,-1.7806,3.6106,-4.6498,1935,2019-08-07 16:45:58:958
-9.3133,13.6439,4.3236,1.3388,-3.4618,3.7174,-1.7806,3.6106,-4.6498,1939,2019-08-07 16:45:58:962
-9.3133,13.6439,4.3236,1.3388,-3.4618,3.7174,-1.722,3.8919,-5.1366,1944,2019-08-07 16:45:58:967
-14.1215,14.8994,6.7041,10.4732,-5.7692,-3.797,-1.722,3.8919,-5.1366,1949,2019-08-07 16:45:58:972
-14.1215,14.8994,6.7041,10.4732,-5.7692,-3.797,-1.4695,3.274,-5.4338,1953,2019-08-07 16:45:58:976
-14.1215,14.8994,6.7041,10.4732,-5.7692,-3.797,-1.4695,3.274,-5.4338,1959,2019-08-07 16:45:58:982
-15.0114,15.7014,6.426,10.4732,-5.7692,-3.797,-1.4695,3.274,-5.4338,1963,2019-08-07 16:45:58:986
-15.0114,15.7014,6.426,10.5556,-7.4238,-2.7359,-1.478,2.3153,-5.6405,1969,2019-08-07 16:45:58:992
-15.0114,15.7014,6.426,10.5556,-7.4238,-2.7359,-1.478,2.3153,-5.6405,1974,2019-08-07 16:45:58:997
-13.777,15.7635,3.2253,10.5556,-7.4238,-2.7359,-1.8999,0.9954,-5.7811,1978,2019-08-07 16:45:59:001
-13.777,15.7635,3.2253,10.5556,-7.4238,-2.7359,-1.8999,0.9954,-5.7811,1984,2019-08-07 16:45:59:007
-11.16,14.1404,0.6185,6.5156,-6.8296,1.9949,-2.375,0.5182,-5.7779,1988,2019-08-07 16:45:59:011
-11.16,14.1404,0.6185,6.5156,-6.8296,1.9949,-2.375,0.5182,-5.7779,1994,2019-08-07 16:45:59:017
-11.16,14.1404,0.6185,3.3721,-5.3271,2.5457,-2.6903,0.7962,-5.8919,2000,2019-08-07 16:45:59:023
-8.4665,12.1354,0.6657,3.3721,-5.3271,2.5457,-2.6903,0.7962,-5.8919,2004,2019-08-07 16:45:59:027
-8.4665,12.1354,0.6657,3.3721,-5.3271,2.5457,-2.6903,0.7962,-5.8919,2009,2019-08-07 16:45:59:032
-8.4665,12.1354,0.6657,3.3721,-5.3271,2.5457,-2.6477,1.7592,-6.2743,2014,2019-08-07 16:45:59:037
-7.2226,8.7698,0.5667,0.6462,-1.7996,2.6057,-2.6477,1.7592,-6.2743,2019,2019-08-07 16:45:59:042
-7.2226,8.7698,0.5667,0.6462,-1.7996,2.6057,-2.245,3.2943,-6.6951,2024,2019-08-07 16:45:59:047
-7.2226,8.7698,0.5667,0.6462,-1.7996,2.6057,-2.245,3.2943,-6.6951,2029,2019-08-07 16:45:59:052
-8.5191,5.6764,-0.1027,0.6462,-1.7996,2.6057,-2.0064,4.318,-7.0211,2034,2019-08-07 16:45:59:057
-8.5191,5.6764,-0.1027,2.1545,0.9385,3.2215,-2.0064,4.318,-7.0211,2039,2019-08-07 16:45:59:062
-10.8012,3.7048,0.3829,2.1545,0.9385,3.2215,-1.9084,5.0381,-7.3226,2044,2019-08-07 16:45:59:067
-10.8012,3.7048,0.3829,2.1545,0.9385,3.2215,-1.9084,5.0381,-7.3226,2049,2019-08-07 16:45:59:072
-10.8012,3.7048,0.3829,2.1545,0.9385,3.2215,-1.9084,5.0381,-7.3226,2054,2019-08-07 16:45:59:077
-13.7914,2.7262,2.0893,5.5362,1.2495,-0.4179,-1.8082,5.1627,-7.6475,2059,2019-08-07 16:45:59:082
-13.7914,2.7262,2.0893,5.5362,1.2495,-0.4179,-1.8082,5.1627,-7.6475,2064,2019-08-07 16:45:59:087
-15.0305,2.4016,4.5876,5.5362,1.2495,-0.4179,-1.6474,4.5342,-7.7742,2069,2019-08-07 16:45:59:092
-15.0305,2.4016,4.5876,5.5362,1.2495,-0.4179,-1.6474,4.5342,-7.7742,2073,2019-08-07 16:45:59:096
-15.0305,2.4016,4.5876,4.8773,0.4395,-2.9637,-1.4897,3.4466,-7.7572,2079,2019-08-07 16:45:59:102
-13.8775,1.8908,4.3849,4.8773,0.4395,-2.9637,-1.4897,3.4466,-7.7572,2084,2019-08-07 16:45:59:107
-13.8775,1.8908,4.3849,4.8773,0.4395,-2.9637,-1.3992,2.2929,-7.7082,2088,2019-08-07 16:45:59:111
-13.8775,1.8908,4.3849,4.8773,0.4395,-2.9637,-1.3992,2.2929,-7.7082,2094,2019-08-07 16:45:59:117
-11.2031,1.8001,3.9041,1.1264,-1.016,-2.6786,-1.3438,1.5781,-7.6869,2100,2019-08-07 16:45:59:123
-11.2031,1.8001,3.9041,1.1264,-1.016,-2.6786,-1.3438,1.5781,-7.6869,2103,2019-08-07 16:45:59:126
-11.2031,1.8001,3.9041,1.1264,-1.016,-2.6786,-1.3438,1.5781,-7.6869,2109,2019-08-07 16:45:59:132
-9.7582,2.2202,3.7815,0.0066,-2.1016,-2.7197,-1.2692,0.9762,-7.623,2114,2019-08-07 16:45:59:137
-9.7582,2.2202,3.7815,0.0066,-2.1016,-2.7197,-1.2692,0.9762,-7.623,2120,2019-08-07 16:45:59:143
-7.9785,2.7214,3.3714,0.0066,-2.1016,-2.7197,-1.168,0.3413,-7.4429,2124,2019-08-07 16:45:59:147
-7.9785,2.7214,3.3714,-2.4258,-4.1326,-2.1487,-1.168,0.3413,-7.4429,2129,2019-08-07 16:45:59:152
-7.9785,2.7214,3.3714,-2.4258,-4.1326,-2.1487,-1.1265,-0.056,-7.2704,2134,2019-08-07 16:45:59:157
-6.1796,2.7644,2.3768,-2.4258,-4.1326,-2.1487,-1.1265,-0.056,-7.2704,2139,2019-08-07 16:45:59:162
-6.1796,2.7644,2.3768,-2.4258,-4.1326,-2.1487,-1.1233,-0.2754,-7.1042,2144,2019-08-07 16:45:59:167
-4.2755,2.4445,1.3398,-5.0995,-5.1655,-0.3698,-1.1233,-0.2754,-7.1042,2150,2019-08-07 16:45:59:173
-4.2755,2.4445,1.3398,-5.0995,-5.1655,-0.3698,-1.0679,-0.186,-6.8933,2154,2019-08-07 16:45:59:177
-4.2755,2.4445,1.3398,-5.0995,-5.1655,-0.3698,-1.0679,-0.186,-6.8933,2159,2019-08-07 16:45:59:182
-4.2755,2.4445,1.3398,-5.0995,-5.1655,-0.3698,-1.0679,-0.186,-6.8933,2164,2019-08-07 16:45:59:187
-2.4718,1.0363,0.6704,-6.767,-4.3825,0.5877,-0.9219,0.0601,-6.7068,2170,2019-08-07 16:45:59:193
-2.4718,1.0363,0.6704,-6.767,-4.3825,0.5877,-0.9219,0.0601,-6.7068,2174,2019-08-07 16:45:59:197
-2.4718,1.0363,0.6704,-6.767,-4.3825,0.5877,-0.6631,0.4191,-6.3947,2178,2019-08-07 16:45:59:201
-1.9217,-0.7253,0.3122,-6.767,-4.3825,0.5877,-0.6631,0.4191,-6.3947,2184,2019-08-07 16:45:59:207
-1.9217,-0.7253,0.3122,-5.7143,-3.6441,0.2671,-0.4021,0.5214,-6.0602,2190,2019-08-07 16:45:59:213
-2.9503,-1.6037,0.7458,-5.7143,-3.6441,0.2671,-0.4021,0.5214,-6.0602,2193,2019-08-07 16:45:59:216
-2.9503,-1.6037,0.7458,-5.7143,-3.6441,0.2671,-0.1123,0.3712,-5.5851,2199,2019-08-07 16:45:59:222
-2.9503,-1.6037,0.7458,-5.7143,-3.6441,0.2671,-0.1123,0.3712,-5.5851,2204,2019-08-07 16:45:59:227
-4.5338,-1.1788,1.5142,-5.7143,-3.6441,0.2671,0.1668,-0.0251,-4.98,2208,2019-08-07 16:45:59:231
-4.5338,-1.1788,1.5142,-3.1278,-4.9533,-0.7582,0.1668,-0.0251,-4.98,2214,2019-08-07 16:45:59:237
-4.5338,-1.1788,1.5142,-3.1278,-4.9533,-0.7582,0.3819,-0.6004,-4.3111,2219,2019-08-07 16:45:59:242
-4.4429,-0.3004,1.6792,-3.1278,-4.9533,-0.7582,0.3819,-0.6004,-4.3111,2224,2019-08-07 16:45:59:247
-4.4429,-0.3004,1.6792,-3.1278,-4.9533,-0.7582,0.4927,-1.1756,-3.6293,2229,2019-08-07 16:45:59:252
-3.4909,-0.2861,0.9108,-3.7445,-6.2715,0.0294,0.4927,-1.1756,-3.6293,2234,2019-08-07 16:45:59:257
-3.4909,-0.2861,0.9108,-3.7445,-6.2715,0.0294,0.4927,-1.1756,-3.6293,2238,2019-08-07 16:45:59:261
-3.4909,-0.2861,0.9108,-3.7445,-6.2715,0.0294,0.5439,-1.6507,-2.8282,2244,2019-08-07 16:45:59:267
-1.2806,-1.5989,0.0576,-3.7445,-6.2715,0.0294,0.5439,-1.6507,-2.8282,2249,2019-08-07 16:45:59:272
-1.2806,-1.5989,0.0576,-6.2595,-4.6864,1.4776,0.5961,-1.7913,-2.2732,2254,2019-08-07 16:45:59:277
-1.2806,-1.5989,0.0576,-6.2595,-4.6864,1.4776,0.5961,-1.7913,-2.2732,2258,2019-08-07 16:45:59:281
0.3509,-3.3079,-0.64,-6.2595,-4.6864,1.4776,0.6674,-1.7381,-1.9142,2264,2019-08-07 16:45:59:287
0.3509,-3.3079,-0.64,-6.2595,-4.6864,1.4776,0.6674,-1.7381,-1.9142,2269,2019-08-07 16:45:59:292
1.0876,-4.5157,-1.0407,-7.5246,-2.7983,2.7362,0.7889,-1.3567,-1.3603,2273,2019-08-07 16:45:59:296
1.0876,-4.5157,-1.0407,-7.5246,-2.7983,2.7362,0.7889,-1.3567,-1.3603,2279,2019-08-07 16:45:59:302
1.0876,-4.5157,-1.0407,-7.5246,-2.7983,2.7362,0.8858,-0.7814,-0.9374,2285,2019-08-07 16:45:59:308
0.1404,-4.6255,-0.1875,-7.5246,-2.7983,2.7362,0.8858,-0.7814,-0.9374,2289,2019-08-07 16:45:59:312
0.1404,-4.6255,-0.1875,-5.6478,-2.8645,1.635,0.9465,-0.2062,-0.4825,2294,2019-08-07 16:45:59:317
-1.4432,-4.2675,0.5478,-5.6478,-2.8645,1.635,0.9465,-0.2062,-0.4825,2300,2019-08-07 16:45:59:323
-1.4432,-4.2675,0.5478,-5.6478,-2.8645,1.635,0.8826,-0.0496,-0.1704,2304,2019-08-07 16:45:59:327
-1.4432,-4.2675,0.5478,-5.6478,-2.8645,1.635,0.8826,-0.0496,-0.1704,2309,2019-08-07 16:45:59:332
-3.2469,-4.0144,1.3398,-2.6371,-3.349,0.466,0.8826,-0.0496,-0.1704,2313,2019-08-07 16:45:59:336
-3.2469,-4.0144,1.3398,-2.6371,-3.349,0.466,0.7186,-0.1774,0.0842,2320,2019-08-07 16:45:59:343
-4.108,-4.3868,1.6697,-2.6371,-3.349,0.466,0.7186,-0.1774,0.0842,2323,2019-08-07 16:45:59:346
-4.108,-4.3868,1.6697,-2.6371,-3.349,0.466,0.4991,-0.4086,0.2973,2329,2019-08-07 16:45:59:352
-4.108,-4.3868,1.6697,-2.2109,-2.5103,0.9033,0.4991,-0.4086,0.2973,2334,2019-08-07 16:45:59:357
-4.041,-5.079,0.9815,-2.2109,-2.5103,0.9033,0.3436,-0.3894,0.4155,2339,2019-08-07 16:45:59:362
-4.041,-5.079,0.9815,-2.2109,-2.5103,0.9033,0.3436,-0.3894,0.4155,2343,2019-08-07 16:45:59:366
-3.9741,-5.4179,0.6845,-2.2109,-2.5103,0.9033,0.2797,-0.2733,0.4581,2349,2019-08-07 16:45:59:372
-3.9741,-5.4179,0.6845,-2.2984,-1.7792,1.5087,0.2797,-0.2733,0.4581,2354,2019-08-07 16:45:59:377
-3.9741,-5.4179,0.6845,-2.2984,-1.7792,1.5087,0.1646,0.0207,0.5359,2359,2019-08-07 16:45:59:382
-3.5674,-5.8906,0.5478,-2.7044,-1.3408,1.5988,0.1646,0.0207,0.5359,2365,2019-08-07 16:45:59:388
-3.5674,-5.8906,0.5478,-2.7044,-1.3408,1.5988,0.1028,0.4415,0.5093,2369,2019-08-07 16:45:59:392
-3.5674,-5.8906,0.5478,-2.7044,-1.3408,1.5988,0.1028,0.4415,0.5093,2374,2019-08-07 16:45:59:397
-3.5674,-5.8906,0.5478,-2.7044,-1.3408,1.5988,0.1028,0.4415,0.5093,2378,2019-08-07 16:45:59:401
-4.4668,-6.4586,0.4866,-1.5759,-0.7154,1.4787,0.0666,0.9496,0.4336,2384,2019-08-07 16:45:59:407
-4.4668,-6.4586,0.4866,-1.5759,-0.7154,1.4787,0.0666,0.9496,0.4336,2389,2019-08-07 16:45:59:412
-5.9834,-6.473,1.2502,-1.5759,-0.7154,1.4787,0.0187,1.3864,0.3686,2395,2019-08-07 16:45:59:418
-5.9834,-6.473,1.2502,-1.5759,-0.7154,1.4787,0.0187,1.3864,0.3686,2399,2019-08-07 16:45:59:422
-5.9834,-6.473,1.2502,0.4671,-0.5267,0.193,-0.0538,1.4876,0.3303,2404,2019-08-07 16:45:59:427
-5.9834,-6.473,1.2502,0.4671,-0.5267,0.193,-0.0538,1.4876,0.3303,2409,2019-08-07 16:45:59:432
-7.3517,-6.5637,1.863,0.4671,-0.5267,0.193,-0.0538,1.4876,0.3303,2414,2019-08-07 16:45:59:437
-7.3517,-6.5637,1.863,0.4671,-0.5267,0.193,-0.1198,1.381,0.276,2419,2019-08-07 16:45:59:442
-7.3517,-6.5637,1.863,1.8298,-0.4509,-0.9199,-0.1198,1.381,0.276,2424,2019-08-07 16:45:59:447
-8.5047,-6.6591,2.7492,1.8298,-0.4509,-0.9199,-0.1848,1.0977,0.2323,2429,2019-08-07 16:45:59:452
-8.5047,-6.6591,2.7492,1.8298,-0.4509,-0.9199,-0.1848,1.0977,0.2323,2435,2019-08-07 16:45:59:458
-8.5047,-6.6591,2.7492,1.8298,-0.4509,-0.9199,-0.2498,0.5789,0.2184,2438,2019-08-07 16:45:59:461
-8.61,-6.6687,2.8812,1.9289,-0.3852,-1.3012,-0.2498,0.5789,0.2184,2444,2019-08-07 16:45:59:467
-8.61,-6.6687,2.8812,1.9289,-0.3852,-1.3012,-0.2902,0.1666,0.2099,2449,2019-08-07 16:45:59:472
-8.2942,-6.6114,2.6219,1.9289,-0.3852,-1.3012,-0.2902,0.1666,0.2099,2453,2019-08-07 16:45:59:476
-8.2942,-6.6114,2.6219,1.9289,-0.3852,-1.3012,-0.2902,0.1666,0.2099,2459,2019-08-07 16:45:59:482
-8.2942,-6.6114,2.6219,1.9289,-0.3852,-1.3012,-0.3147,-0.1945,0.2238,2464,2019-08-07 16:45:59:487
-7.9689,-6.64,2.3957,1.2918,-0.3812,-0.8611,-0.3147,-0.1945,0.2238,2469,2019-08-07 16:45:59:492
-7.9689,-6.64,2.3957,1.2918,-0.3812,-0.8611,-0.3275,-0.4949,0.2792,2474,2019-08-07 16:45:59:497
-7.9689,-6.9169,2.1223,1.2918,-0.3812,-0.8611,-0.3275,-0.4949,0.2792,2479,2019-08-07 16:45:59:502
-6.7872,-6.9169,2.1223,-0.1982,0.0645,-0.3645,-0.3201,-0.5652,0.2919,2484,2019-08-07 16:45:59:507
-6.7872,-6.9169,2.1223,-0.1982,0.0645,-0.3645,-0.3201,-0.5652,0.2919,2488,2019-08-07 16:45:59:511
-6.3518,-7.1031,1.83,-0.1982,0.0645,-0.3645,-0.2956,-0.4693,0.2674,2494,2019-08-07 16:45:59:517
-6.3518,-7.1031,1.83,-0.1982,0.0645,-0.3645,-0.2956,-0.4693,0.2674,2499,2019-08-07 16:45:59:522
-6.3518,-7.1031,1.83,-0.3247,0.2472,-0.0231,-0.2434,-0.2712,0.2472,2505,2019-08-07 16:45:59:528
-6.4571,-7.2368,1.632,-0.3247,0.2472,-0.0231,-0.2434,-0.2712,0.2472,2509,2019-08-07 16:45:59:532
-6.4571,-7.2368,1.632,-0.3247,0.2472,-0.0231,-0.2082,-0.1636,0.2365,2515,2019-08-07 16:45:59:538
-6.6676,-7.275,1.5283,-0.3247,0.2472,-0.0231,-0.2082,-0.1636,0.2365,2519,2019-08-07 16:45:59:542
-6.6676,-7.275,1.5283,0.0557,0.3473,0.0681,-0.1432,-0.0358,0.2078,2524,2019-08-07 16:45:59:547
-6.6676,-7.275,1.5283,0.0557,0.3473,0.0681,-0.1432,-0.0358,0.2078,2529,2019-08-07 16:45:59:552
-7.0025,-7.189,1.4765,0.0557,0.3473,0.0681,-0.0942,0.0037,0.1833,2534,2019-08-07 16:45:59:557
-7.0025,-7.189,1.4765,0.0557,0.3473,0.0681,-0.0942,0.0037,0.1833,2539,2019-08-07 16:45:59:562
-7.2847,-7.1413,1.4152,0.5318,0.2312,0.1055,-0.0633,-0.0017,0.1673,2544,2019-08-07 16:45:59:567
-7.2847,-7.1413,1.4152,0.5318,0.2312,0.1055,-0.0633,-0.0017,0.1673,2549,2019-08-07 16:45:59:572
-7.2847,-7.1413,1.4152,0.5318,0.2312,0.1055,-0.0633,-0.0017,0.1673,2554,2019-08-07 16:45:59:577
-7.2847,-7.1413,1.4152,0.5318,0.2312,0.1055,0.0038,-0.0848,0.1375,2559,2019-08-07 16:45:59:582
-7.4187,-6.9647,1.6085,0.5318,0.2312,0.1055,0.0038,-0.0848,0.1375,2563,2019-08-07 16:45:59:586
-7.4187,-6.9647,1.6085,0.6121,0.009,-0.0817,0.04,-0.2062,0.1258,2569,2019-08-07 16:45:59:592
-7.3565,-6.7355,1.7687,0.6121,0.009,-0.0817,0.04,-0.2062,0.1258,2574,2019-08-07 16:45:59:597
-7.3565,-6.7355,1.7687,0.6121,0.009,-0.0817,0.057,-0.3244,0.1322,2579,2019-08-07 16:45:59:602
-7.3565,-6.7355,1.7687,0.6121,0.009,-0.0817,0.057,-0.3244,0.1322,2584,2019-08-07 16:45:59:607
-6.9211,-6.7069,1.7829,0.113,-0.1692,-0.1687,0.0528,-0.464,0.1471,2590,2019-08-07 16:45:59:613
-6.9211,-6.7069,1.7829,0.113,-0.1692,-0.1687,0.0528,-0.464,0.1471,2594,2019-08-07 16:45:59:617
-6.5288,-6.7689,1.7546,0.113,-0.1692,-0.1687,0.0325,-0.4992,0.1151,2599,2019-08-07 16:45:59:622
-6.5288,-6.7689,1.7546,0.113,-0.1692,-0.1687,0.0325,-0.4992,0.1151,2604,2019-08-07 16:45:59:627
-6.5288,-6.7689,1.7546,-0.4244,-0.0979,-0.0153,-0.0026,-0.4693,0.0874,2609,2019-08-07 16:45:59:632
-6.2986,-6.7642,1.6746,-0.4244,-0.0979,-0.0153,-0.0026,-0.4693,0.0874,2614,2019-08-07 16:45:59:637
-6.2986,-6.7642,1.6746,-0.4244,-0.0979,-0.0153,-0.025,-0.4033,0.065,2619,2019-08-07 16:45:59:642
-6.2986,-6.7642,1.6746,-0.4244,-0.0979,-0.0153,-0.025,-0.4033,0.065,2624,2019-08-07 16:45:59:647
-6.1312,-6.8692,1.5991,-0.671,0.0191,0.1449,-0.0261,-0.3234,0.0491,2629,2019-08-07 16:45:59:652
-6.1312,-6.8692,1.5991,-0.671,0.0191,0.1449,-0.0261,-0.3234,0.0491,2634,2019-08-07 16:45:59:657
-6.1312,-6.8692,1.5991,-0.671,0.0191,0.1449,-0.0197,-0.2446,0.0342,2639,2019-08-07 16:45:59:662
-6.0307,-6.8597,1.4624,-0.671,0.0191,0.1449,-0.0197,-0.2446,0.0342,2644,2019-08-07 16:45:59:667
-6.0307,-6.8597,1.4624,-0.8074,-0.0034,0.3617,-0.0197,-0.1529,0.0256,2649,2019-08-07 16:45:59:672
-6.002,-6.7499,1.354,-0.8074,-0.0034,0.3617,-0.0197,-0.1529,0.0256,2654,2019-08-07 16:45:59:677
-6.002,-6.7499,1.354,-0.8074,-0.0034,0.3617,-0.0197,-0.1529,0.0256,2658,2019-08-07 16:45:59:681
-6.002,-6.7499,1.354,-0.8074,-0.0034,0.3617,-0.0314,-0.0858,0.015,2664,2019-08-07 16:45:59:687
-6.0498,-6.6592,1.255,-0.7272,-0.1957,0.5259,-0.0314,-0.0858,0.015,2669,2019-08-07 16:45:59:692
-6.0498,-6.6592,1.255,-0.7272,-0.1957,0.5259,-0.0367,-0.0155,0.015,2674,2019-08-07 16:45:59:697
-6.1886,-6.6306,1.2928,-0.7272,-0.1957,0.5259,-0.0367,-0.0155,0.015,2679,2019-08-07 16:45:59:702
-6.1886,-6.6306,1.2928,-0.7272,-0.1957,0.5259,-0.0378,0.0228,0.0182,2684,2019-08-07 16:45:59:707
-6.1886,-6.6306,1.2928,-0.5272,-0.259,0.4567,-0.0378,0.0228,0.0182,2689,2019-08-07 16:45:59:712
-6.3082,-6.5876,1.3729,-0.5272,-0.259,0.4567,-0.0378,0.0228,0.0182,2693,2019-08-07 16:45:59:716
-6.3082,-6.5876,1.3729,-0.5272,-0.259,0.4567,-0.0346,0.0367,0.0256,2699,2019-08-07 16:45:59:722
-6.3082,-6.5876,1.3729,-0.5272,-0.259,0.4567,-0.0346,0.0367,0.0256,2704,2019-08-07 16:45:59:727
-6.2316,-6.621,1.2975,-0.565,-0.2293,0.4675,-0.0452,0.0612,0.0267,2709,2019-08-07 16:45:59:732
-6.2316,-6.621,1.2975,-0.565,-0.2293,0.4675,-0.0452,0.0612,0.0267,2714,2019-08-07 16:45:59:737
-6.2651,-6.6353,1.321,-0.565,-0.2293,0.4675,-0.0612,0.1155,0.0043,2719,2019-08-07 16:45:59:742
-6.2651,-6.6353,1.321,-0.565,-0.2293,0.4675,-0.0612,0.1155,0.0043,2724,2019-08-07 16:45:59:747
-6.2651,-6.6353,1.321,-0.5547,-0.232,0.3658,-0.0697,0.1805,-0.0095,2729,2019-08-07 16:45:59:752
-6.1981,-6.6497,1.3446,-0.5547,-0.232,0.3658,-0.0697,0.1805,-0.0095,2734,2019-08-07 16:45:59:757
-6.1981,-6.6497,1.3446,-0.5547,-0.232,0.3658,-0.0665,0.2369,-0.0149,2739,2019-08-07 16:45:59:762
-6.1981,-6.6497,1.3446,-0.5547,-0.232,0.3658,-0.0665,0.2369,-0.0149,2744,2019-08-07 16:45:59:767
-6.1263,-6.6831,1.1843,-0.679,-0.1716,0.4727,-0.0623,0.2902,-0.018,2749,2019-08-07 16:45:59:772
-6.1263,-6.6831,1.1843,-0.679,-0.1716,0.4727,-0.0623,0.2902,-0.018,2754,2019-08-07 16:45:59:777
-6.1263,-6.6831,1.1843,-0.679,-0.1716,0.4727,-0.0623,0.2902,-0.018,2759,2019-08-07 16:45:59:782
-6.1216,-6.6783,1.2032,-0.6871,-0.1846,0.4637,-0.0591,0.3456,-0.017,2764,2019-08-07 16:45:59:787
-6.1216,-6.6783,1.2032,-0.6871,-0.1846,0.4637,-0.0591,0.3456,-0.017,2770,2019-08-07 16:45:59:793
-6.1216,-6.6783,1.2032,-0.6871,-0.1846,0.4637,-0.0431,0.3445,0.0075,2774,2019-08-07 16:45:59:797
-6.3416,-6.7356,1.3776,-0.4718,-0.1363,0.251,-0.0431,0.3445,0.0075,2779,2019-08-07 16:45:59:802
-6.3416,-6.7356,1.3776,-0.4718,-0.1363,0.251,-0.0325,0.3062,0.0278,2784,2019-08-07 16:45:59:807
-6.3416,-6.7356,1.3776,-0.4718,-0.1363,0.251,-0.0325,0.3062,0.0278,2789,2019-08-07 16:45:59:812
-6.5521,-6.6306,1.4719,-0.4718,-0.1363,0.251,-0.0325,0.3062,0.0278,2794,2019-08-07 16:45:59:817
-6.5521,-6.6306,1.4719,-0.1986,-0.2279,0.0475,-0.0282,0.2391,0.0565,2799,2019-08-07 16:45:59:822
-6.6335,-6.559,1.5615,-0.1986,-0.2279,0.0475,-0.0282,0.2391,0.0565,2804,2019-08-07 16:45:59:827
-6.6335,-6.559,1.5615,-0.1986,-0.2279,0.0475,-0.0378,0.1262,0.0938,2809,2019-08-07 16:45:59:832
-6.6335,-6.559,1.5615,-0.1986,-0.2279,0.0475,-0.0378,0.1262,0.0938,2814,2019-08-07 16:45:59:837
-6.4277,-6.5876,1.453,-0.4165,-0.235,0.1818,-0.0452,0.0473,0.1098,2818,2019-08-07 16:45:59:841
-6.4277,-6.5876,1.453,-0.4165,-0.235,0.1818,-0.0452,0.0473,0.1098,2824,2019-08-07 16:45:59:847
-6.4277,-6.5876,1.453,-0.4165,-0.235,0.1818,-0.0548,0.0495,0.0938,2828,2019-08-07 16:45:59:851
-6.3416,-6.6401,1.1184,-0.4165,-0.235,0.1818,-0.0548,0.0495,0.0938,2834,2019-08-07 16:45:59:857
-6.3416,-6.6401,1.1184,-0.5735,-0.1159,0.5871,-0.058,0.1006,0.0757,2839,2019-08-07 16:45:59:862
-6.2363,-6.726,0.8497,-0.5735,-0.1159,0.5871,-0.058,0.1006,0.0757,2844,2019-08-07 16:45:59:867
-6.2363,-6.726,0.8497,-0.5735,-0.1159,0.5871,-0.0452,0.1805,0.0576,2849,2019-08-07 16:45:59:872
-6.2363,-6.726,0.8497,-0.5735,-0.1159,0.5871,-0.0452,0.1805,0.0576,2854,2019-08-07 16:45:59:877
-6.1694,-6.874,0.9251,-0.5735,-0.1159,0.5871,-0.0452,0.1805,0.0576,2858,2019-08-07 16:45:59:881
-6.1694,-6.874,0.9251,-0.7239,0.0164,0.5973,-0.0186,0.3094,0.0395,2864,2019-08-07 16:45:59:887
-6.4373,-6.8502,0.9298,-0.7239,0.0164,0.5973,-0.0186,0.3094,0.0395,2869,2019-08-07 16:45:59:892
-6.4373,-6.8502,0.9298,-0.7239,0.0164,0.5973,0.0123,0.4436,0.0128,2874,2019-08-07 16:45:59:897
-6.4373,-6.8502,0.9298,-0.1202,0.0126,0.3259,0.0123,0.4436,0.0128,2880,2019-08-07 16:45:59:903
-6.8631,-6.812,1.1419,-0.1202,0.0126,0.3259,0.0304,0.4851,0.0075,2884,2019-08-07 16:45:59:907
-6.8631,-6.812,1.1419,-0.1202,0.0126,0.3259,0.0304,0.4851,0.0075,2888,2019-08-07 16:45:59:911
-6.8631,-6.812,1.1419,-0.1202,0.0126,0.3259,0.0389,0.4532,-0.0021,2894,2019-08-07 16:45:59:917
-7.3032,-6.726,1.5237,-0.1202,0.0126,0.3259,0.0389,0.4532,-0.0021,2899,2019-08-07 16:45:59:922
-7.3032,-6.726,1.5237,0.5157,-0.2234,-0.2099,0.0389,0.4532,-0.0021,2903,2019-08-07 16:45:59:926
-7.5711,-6.5733,1.7312,0.5157,-0.2234,-0.2099,0.0315,0.2902,-0.0021,2909,2019-08-07 16:45:59:932
-7.5711,-6.5733,1.7312,0.6918,-0.2929,-0.3838,0.0315,0.2902,-0.0021,2914,2019-08-07 16:45:59:937
-7.4802,-6.5255,1.717,0.6918,-0.2929,-0.3838,0.0102,0.108,0.0043,2919,2019-08-07 16:45:59:942
-7.4802,-6.5255,1.717,0.6918,-0.2929,-0.3838,0.0102,0.108,0.0043,2923,2019-08-07 16:45:59:946
-7.4802,-6.5255,1.717,0.3084,-0.3072,-0.2412,-0.0112,-0.0656,0.0107,2929,2019-08-07 16:45:59:952
-7.1405,-6.5494,1.5615,0.3084,-0.3072,-0.2412,-0.0112,-0.0656,0.0107,2934,2019-08-07 16:45:59:957
-7.1405,-6.5494,1.5615,0.3084,-0.3072,-0.2412,-0.041,-0.2147,0.0065,2939,2019-08-07 16:45:59:962
-7.1405,-6.5494,1.5615,0.3084,-0.3072,-0.2412,-0.041,-0.2147,0.0065,2944,2019-08-07 16:45:59:967
-6.6477,-6.6735,1.3163,0.3084,-0.3072,-0.2412,-0.0548,-0.235,-0.0021,2949,2019-08-07 16:45:59:972
-6.6477,-6.6735,1.3163,-0.3518,-0.0829,0.1178,-0.0548,-0.235,-0.0021,2954,2019-08-07 16:45:59:977
-6.6477,-6.6735,1.3163,-0.3518,-0.0829,0.1178,-0.0548,-0.235,-0.0021,2959,2019-08-07 16:45:59:982
-6.3415,-6.8884,1.1561,-0.3518,-0.0829,0.1178,-0.0346,-0.1604,-0.0117,2964,2019-08-07 16:45:59:987
-6.3415,-6.8884,1.1561,-0.3518,-0.0829,0.1178,-0.0346,-0.1604,-0.0117,2969,2019-08-07 16:45:59:992
-6.3415,-6.9075,1.1231,-0.5204,0.0791,0.2431,-0.0154,-0.0688,-0.0117,2974,2019-08-07 16:45:59:997
-6.3415,-6.9075,1.1231,-0.5204,0.0791,0.2431,-0.0154,-0.0688,-0.0117,2979,2019-08-07 16:46:00:002
-6.4085,-6.8836,1.1137,-0.4891,0.0481,0.2772,6.0E-4,0.0164,-0.0138,2984,2019-08-07 16:46:00:007
-6.4085,-6.8836,1.1137,-0.4891,0.0481,0.2772,6.0E-4,0.0164,-0.0138,2989,2019-08-07 16:46:00:012
-6.4085,-6.8836,1.1137,-0.4891,0.0481,0.2772,0.007,0.075,-0.0159,2994,2019-08-07 16:46:00:017
-6.7482,-6.7595,1.3116,-0.4891,0.0481,0.2772,0.007,0.075,-0.0159,2999,2019-08-07 16:46:00:022
-6.7482,-6.7595,1.3116,-0.1148,-0.0932,0.019,0.007,0.075,-0.0159,3003,2019-08-07 16:46:00:026
-6.7482,-6.7595,1.3116,-0.1148,-0.0932,0.019,0.008,0.0686,-0.0095,3009,2019-08-07 16:46:00:032
-6.8439,-6.6735,1.3776,-0.1148,-0.0932,0.019,0.008,0.0686,-0.0095,3014,2019-08-07 16:46:00:037
-6.8439,-6.6735,1.3776,-0.1148,-0.0932,0.019,0.008,0.0399,-0.0106,3019,2019-08-07 16:46:00:042
-6.8487,-6.6497,1.3588,-0.0291,-0.1847,-0.0295,0.008,0.0399,-0.0106,3023,2019-08-07 16:46:00:046
-6.8487,-6.6497,1.3588,-0.0291,-0.1847,-0.0295,0.008,0.0399,-0.0106,3029,2019-08-07 16:46:00:052
-6.8487,-6.6497,1.3588,-0.0291,-0.1847,-0.0295,-0.0058,-0.0475,-0.0042,3034,2019-08-07 16:46:00:057
-6.8104,-6.6497,1.4012,-0.0291,-0.1847,-0.0295,-0.0058,-0.0475,-0.0042,3039,2019-08-07 16:46:00:062
-6.8104,-6.6497,1.4012,-0.1188,-0.2326,-0.0429,-0.0037,-0.088,0.0043,3044,2019-08-07 16:46:00:067
-6.686,-6.6353,1.3305,-0.1188,-0.2326,-0.0429,-0.0037,-0.088,0.0043,3049,2019-08-07 16:46:00:072
-6.686,-6.6353,1.3305,-0.1188,-0.2326,-0.0429,-0.0016,-0.1167,0.0182,3053,2019-08-07 16:46:00:076
-6.686,-6.6353,1.3305,-0.1188,-0.2326,-0.0429,-0.0016,-0.1167,0.0182,3059,2019-08-07 16:46:00:082
-6.4372,-6.6592,1.1419,-0.4568,-0.1789,0.2539,-0.0037,-0.0922,0.0086,3064,2019-08-07 16:46:00:087
-6.4372,-6.6592,1.1419,-0.4568,-0.1789,0.2539,-0.0037,-0.0922,0.0086,3069,2019-08-07 16:46:00:092
-6.4372,-6.6592,1.1419,-0.4568,-0.1789,0.2539,0.0016,-0.0635,0.0075,3074,2019-08-07 16:46:00:097
-6.4802,-6.5828,1.1608,-0.4568,-0.1789,0.2539,0.0016,-0.0635,0.0075,3078,2019-08-07 16:46:00:101
-6.4802,-6.5828,1.1608,-0.4938,-0.2263,0.2761,0.0176,-0.0272,0.0128,3084,2019-08-07 16:46:00:107
-6.4037,-6.6353,1.0712,-0.4938,-0.2263,0.2761,0.0176,-0.0272,0.0128,3089,2019-08-07 16:46:00:112
-6.4037,-6.6353,1.0712,-0.4795,-0.2259,0.3251,0.0229,-6.0E-4,0.0086,3094,2019-08-07 16:46:00:117
-6.4037,-6.6353,1.0712,-0.4795,-0.2259,0.3251,0.0229,-6.0E-4,0.0086,3099,2019-08-07 16:46:00:122
-6.4754,-6.6067,1.1372,-0.4795,-0.2259,0.3251,0.0229,-6.0E-4,0.0086,3104,2019-08-07 16:46:00:127
-6.4754,-6.6067,1.1372,-0.4795,-0.2259,0.3251,0.0325,0.0079,0.0097,3109,2019-08-07 16:46:00:132
-6.4754,-6.6067,1.1372,-0.38,-0.2867,0.2463,0.0325,0.0079,0.0097,3114,2019-08-07 16:46:00:137
-6.5376,-6.559,1.142,-0.38,-0.2867,0.2463,0.0336,-0.0049,0.0182,3118,2019-08-07 16:46:00:141
-6.5376,-6.559,1.142,-0.38,-0.2867,0.2463,0.0336,-0.0049,0.0182,3124,2019-08-07 16:46:00:147
-6.5807,-6.4826,1.1702,-0.38,-0.2867,0.2463,0.0347,-0.007,0.0065,3129,2019-08-07 16:46:00:152
-6.5807,-6.4826,1.1702,-0.2287,-0.394,0.2404,0.0347,-0.007,0.0065,3134,2019-08-07 16:46:00:157
-6.5807,-6.4826,1.1702,-0.2287,-0.394,0.2404,0.0325,-0.0272,0.0065,3138,2019-08-07 16:46:00:161
-6.7146,-6.3728,1.1561,-0.2287,-0.394,0.2404,0.0325,-0.0272,0.0065,3144,2019-08-07 16:46:00:167
-6.7146,-6.3728,1.1561,-0.2287,-0.394,0.2404,0.024,-0.0528,0.0086,3149,2019-08-07 16:46:00:172
-6.7146,-6.2964,1.0335,-0.1821,-0.5344,0.3847,0.024,-0.0528,0.0086,3154,2019-08-07 16:46:00:177
-6.7146,-6.2964,1.0335,-0.1821,-0.5344,0.3847,0.024,-0.0528,0.0086,3159,2019-08-07 16:46:00:182
-6.5902,-6.1723,1.1231,-0.1821,-0.5344,0.3847,0.0144,-0.0901,0.0065,3164,2019-08-07 16:46:00:187
-6.5902,-6.1723,1.1231,-0.1821,-0.5344,0.3847,0.0144,-0.0901,0.0065,3169,2019-08-07 16:46:00:192
-6.5902,-6.1723,1.1231,-0.4934,-0.6796,0.3824,0.0016,-0.0954,0.016,3173,2019-08-07 16:46:00:196
-6.2793,-6.1818,1.0053,-0.4934,-0.6796,0.3824,0.0016,-0.0954,0.016,3179,2019-08-07 16:46:00:202
-6.2793,-6.1818,1.0053,-0.4934,-0.6796,0.3824,-0.0165,-0.0645,0.0214,3183,2019-08-07 16:46:00:206
-6.2793,-6.1818,1.0053,-0.4934,-0.6796,0.3824,-0.0165,-0.0645,0.0214,3189,2019-08-07 16:46:00:212
-6.2697,-6.2009,1.1278,-0.6391,-0.6242,0.3481,-0.0357,-0.0219,0.0352,3193,2019-08-07 16:46:00:216
-6.2697,-6.2009,1.1278,-0.6391,-0.6242,0.3481,-0.0357,-0.0219,0.0352,3200,2019-08-07 16:46:00:223
-6.2697,-6.2009,1.1278,-0.6391,-0.6242,0.3481,-0.0516,0.0367,0.0587,3204,2019-08-07 16:46:00:227
-6.2075,-6.3632,1.142,-0.6391,-0.6242,0.3481,-0.0516,0.0367,0.0587,3209,2019-08-07 16:46:00:232
-6.2075,-6.3632,1.142,-0.6804,-0.3229,0.1756,-0.0644,0.0718,0.08,3215,2019-08-07 16:46:00:238
-6.2745,-6.5065,1.2787,-0.6804,-0.3229,0.1756,-0.0644,0.0718,0.08,3219,2019-08-07 16:46:00:242
-6.2745,-6.5065,1.2787,-0.6804,-0.3229,0.1756,-0.0644,0.0718,0.08,3224,2019-08-07 16:46:00:247
-6.2745,-6.5065,1.2787,-0.6533,-0.2326,0.0759,-0.0655,0.0889,0.1013,3228,2019-08-07 16:46:00:251
-6.2314,-6.7547,1.3494,-0.6533,-0.2326,0.0759,-0.0655,0.0889,0.1013,3234,2019-08-07 16:46:00:257
-6.2314,-6.7547,1.3494,-0.6533,-0.2326,0.0759,-0.058,0.0899,0.1258,3238,2019-08-07 16:46:00:261
-6.351,-6.855,1.3164,-0.5788,0.0519,0.0741,-0.058,0.0899,0.1258,3244,2019-08-07 16:46:00:267
-6.351,-6.855,1.3164,-0.5788,0.0519,0.0741,-0.0527,0.0931,0.1343,3249,2019-08-07 16:46:00:272
-6.351,-6.855,1.3164,-0.5788,0.0519,0.0741,-0.0527,0.0931,0.1343,3254,2019-08-07 16:46:00:277
-6.5232,-6.874,1.3258,-0.5788,0.0519,0.0741,-0.0399,0.0846,0.1428,3259,2019-08-07 16:46:00:282
-6.5232,-6.874,1.3258,-0.3449,0.0587,0.0224,-0.0399,0.0846,0.1428,3264,2019-08-07 16:46:00:287
-6.5902,-6.917,1.3211,-0.3449,0.0587,0.0224,-0.0239,0.0772,0.1375,3269,2019-08-07 16:46:00:292
-6.5902,-6.917,1.3211,-0.3449,0.0587,0.0224,-0.0239,0.0772,0.1375,3274,2019-08-07 16:46:00:297
-6.5902,-6.917,1.3211,-0.3449,0.0587,0.0224,-0.0239,0.0772,0.1375,3279,2019-08-07 16:46:00:302
-6.7194,-6.9122,1.2975,-0.2348,0.1424,0.0699,-0.0165,0.0697,0.1279,3284,2019-08-07 16:46:00:307
-6.7194,-6.9122,1.2975,-0.2348,0.1424,0.0699,-0.0069,0.0803,0.1098,3289,2019-08-07 16:46:00:312
-6.7194,-6.9122,1.2975,-0.2348,0.1424,0.0699,-0.0069,0.0803,0.1098,3293,2019-08-07 16:46:00:316
-6.7768,-6.8979,1.1891,-0.2348,0.1424,0.0699,-0.0069,0.0803,0.1098,3299,2019-08-07 16:46:00:322
-6.7768,-6.8979,1.1891,-0.2348,0.1424,0.0699,6.0E-4,0.0942,0.0853,3303,2019-08-07 16:46:00:326
-6.8677,-6.9266,1.1985,-0.1495,0.1695,0.1311,6.0E-4,0.0942,0.0853,3309,2019-08-07 16:46:00:332
-6.8677,-6.9266,1.1985,-0.1495,0.1695,0.1311,0.0133,0.0995,0.0597,3313,2019-08-07 16:46:00:336
-6.8677,-6.9266,1.1985,-0.1495,0.1695,0.1311,0.0133,0.0995,0.0597,3319,2019-08-07 16:46:00:342
-6.9968,-6.9218,1.2221,-0.1495,0.1695,0.1311,0.024,0.0921,0.0384,3324,2019-08-07 16:46:00:347
-6.9968,-6.9218,1.2221,0.0281,0.1715,0.128,0.024,0.0921,0.0384,3329,2019-08-07 16:46:00:352
-6.9968,-6.9218,1.2221,0.0281,0.1715,0.128,0.0368,0.0612,0.016,3334,2019-08-07 16:46:00:357
-7.0303,-6.8072,1.1797,0.0281,0.1715,0.128,0.0368,0.0612,0.016,3339,2019-08-07 16:46:00:362
-7.0303,-6.8072,1.1797,0.0281,0.1715,0.128,0.0485,0.0122,-0.001,3344,2019-08-07 16:46:00:367
-7.059,-6.7022,1.2598,0.1017,-0.055,0.0742,0.0485,0.0122,-0.001,3349,2019-08-07 16:46:00:372
-7.059,-6.7022,1.2598,0.1017,-0.055,0.0742,0.0485,0.0122,-0.001,3354,2019-08-07 16:46:00:377
-7.059,-6.7022,1.2598,0.1017,-0.055,0.0742,0.0464,-0.0379,-0.0223,3359,2019-08-07 16:46:00:382
-7.0399,-6.621,1.2174,0.1017,-0.055,0.0742,0.0464,-0.0379,-0.0223,3364,2019-08-07 16:46:00:387
-7.0399,-6.621,1.2174,0.0374,-0.1943,0.1403,0.041,-0.072,-0.034,3369,2019-08-07 16:46:00:392
-6.9585,-6.5208,1.1703,0.0374,-0.1943,0.1403,0.041,-0.072,-0.034,3375,2019-08-07 16:46:00:398
-6.9585,-6.5208,1.1703,0.0374,-0.1943,0.1403,0.0272,-0.0965,-0.0447,3379,2019-08-07 16:46:00:402
-6.9585,-6.5208,1.1703,0.0374,-0.1943,0.1403,0.0272,-0.0965,-0.0447,3384,2019-08-07 16:46:00:407
-6.7959,-6.5256,1.0571,-0.1889,-0.2284,0.2971,0.0208,-0.1007,-0.0639,3389,2019-08-07 16:46:00:412
-6.7959,-6.5256,1.0571,-0.1889,-0.2284,0.2971,0.0208,-0.1007,-0.0639,3394,2019-08-07 16:46:00:417
-6.6667,-6.5303,0.9723,-0.1889,-0.2284,0.2971,0.0208,-0.073,-0.082,3400,2019-08-07 16:46:00:423
-6.6667,-6.5303,0.9723,-0.1889,-0.2284,0.2971,0.0208,-0.073,-0.082,3404,2019-08-07 16:46:00:427
-6.6667,-6.5303,0.9723,-0.4057,-0.3157,0.3368,0.0229,-0.0443,-0.0947,3409,2019-08-07 16:46:00:432
-6.5184,-6.5447,0.9817,-0.4057,-0.3157,0.3368,0.0229,-0.0443,-0.0947,3414,2019-08-07 16:46:00:437
-6.5184,-6.5447,0.9817,-0.4057,-0.3157,0.3368,0.0272,0.01,-0.1086,3419,2019-08-07 16:46:00:442
-6.5184,-6.5447,0.9817,-0.4057,-0.3157,0.3368,0.0272,0.01,-0.1086,3423,2019-08-07 16:46:00:446
-6.5184,-6.4921,0.9204,-0.4436,-0.2684,0.4471,0.0272,0.01,-0.1086,3429,2019-08-07 16:46:00:452
-6.5184,-6.4921,0.9204,-0.4436,-0.2684,0.4471,0.0283,0.0644,-0.1118,3434,2019-08-07 16:46:00:457
-6.5184,-6.4921,0.9204,-0.4436,-0.2684,0.4471,0.0347,0.0857,-0.1001,3439,2019-08-07 16:46:00:462
-6.6284,-6.411,1.1373,-0.4436,-0.2684,0.4471,0.0347,0.0857,-0.1001,3443,2019-08-07 16:46:00:466
-6.6284,-6.411,1.1373,-0.2834,-0.4445,0.142,0.0293,0.075,-0.0809,3449,2019-08-07 16:46:00:472
-6.6284,-6.411,1.1373,-0.2834,-0.4445,0.142,0.0293,0.075,-0.0809,3454,2019-08-07 16:46:00:477
-6.6571,-6.3728,1.3965,-0.2834,-0.4445,0.142,0.0293,0.075,-0.0809,3458,2019-08-07 16:46:00:481
-6.6571,-6.3728,1.3965,-0.2834,-0.4445,0.142,0.0304,0.0409,-0.066,3465,2019-08-07 16:46:00:488
-6.7193,-6.3251,1.4342,-0.242,-0.5153,-0.0449,0.0208,-0.0059,-0.0532,3469,2019-08-07 16:46:00:492
-6.7193,-6.3251,1.4342,-0.242,-0.5153,-0.0449,0.0208,-0.0059,-0.0532,3474,2019-08-07 16:46:00:497
-6.7193,-6.3251,1.4342,-0.242,-0.5153,-0.0449,0.007,-0.0613,-0.0383,3480,2019-08-07 16:46:00:503
-6.7097,-6.3203,1.4248,-0.242,-0.5153,-0.0449,0.007,-0.0613,-0.0383,3484,2019-08-07 16:46:00:507
-6.7097,-6.3203,1.4248,-0.298,-0.4675,9.0E-4,0.007,-0.0613,-0.0383,3489,2019-08-07 16:46:00:512
-6.7097,-6.3203,1.4248,-0.298,-0.4675,9.0E-4,-0.0133,-0.1093,-0.0298,3494,2019-08-07 16:46:00:517
-6.6332,-6.3871,1.3023,-0.298,-0.4675,9.0E-4,-0.0133,-0.1093,-0.0298,3498,2019-08-07 16:46:00:521
-6.6332,-6.3871,1.3023,-0.298,-0.4675,9.0E-4,-0.0207,-0.1359,-0.0202,3503,2019-08-07 16:46:00:526
-6.4466,-6.3585,1.2787,-0.4783,-0.4519,0.1001,-0.0207,-0.1359,-0.0202,3509,2019-08-07 16:46:00:532
-6.4466,-6.3585,1.2787,-0.4783,-0.4519,0.1001,-0.0239,-0.1146,-0.0053,3514,2019-08-07 16:46:00:537
-6.4466,-6.3585,1.2787,-0.4783,-0.4519,0.1001,-0.0239,-0.1146,-0.0053,3519,2019-08-07 16:46:00:542
-6.2791,-6.4635,1.0289,-0.4783,-0.4519,0.1001,-0.0239,-0.1146,-0.0053,3523,2019-08-07 16:46:00:546
-6.2791,-6.4635,1.0289,-0.6084,-0.2539,0.3336,-0.0388,-0.04,0.0011,3529,2019-08-07 16:46:00:552
-6.3222,-6.5399,1.0524,-0.6084,-0.2539,0.3336,-0.0388,-0.04,0.0011,3534,2019-08-07 16:46:00:557
-6.3222,-6.5399,1.0524,-0.6084,-0.2539,0.3336,-0.0506,0.0452,0.0097,3538,2019-08-07 16:46:00:561
-6.3222,-6.5399,1.0524,-0.6084,-0.2539,0.3336,-0.0506,0.0452,0.0097,3544,2019-08-07 16:46:00:567
-6.4944,-6.5447,1.1703,-0.5045,-0.2026,0.1182,-0.0431,0.0761,0.0267,3549,2019-08-07 16:46:00:572
-6.4944,-6.5447,1.1703,-0.5045,-0.2026,0.1182,-0.0431,0.0761,0.0267,3553,2019-08-07 16:46:00:576
-6.3317,-6.7022,1.208,-0.5045,-0.2026,0.1182,-0.0282,0.1102,0.0288,3559,2019-08-07 16:46:00:582
-6.3317,-6.7022,1.208,-0.5045,-0.2026,0.1182,-0.0282,0.1102,0.0288,3564,2019-08-07 16:46:00:587
-6.3317,-6.7022,1.208,-0.7013,-0.1439,0.2105,-0.0282,0.1102,0.0288,3569,2019-08-07 16:46:00:592
-6.3413,-6.5829,1.1231,-0.7013,-0.1439,0.2105,-0.0186,0.1805,0.032,3574,2019-08-07 16:46:00:597
-6.3413,-6.5829,1.1231,-0.7013,-0.1439,0.2105,-0.0186,0.1805,0.032,3580,2019-08-07 16:46:00:603
-6.3413,-6.5829,1.1231,-0.7013,-0.1439,0.2105,-0.0186,0.2029,0.0501,3583,2019-08-07 16:46:00:606
-6.724,-6.4015,1.1656,-0.1382,-0.4013,0.1182,-0.0186,0.2029,0.0501,3589,2019-08-07 16:46:00:612
-6.724,-6.4015,1.1656,-0.1382,-0.4013,0.1182,-0.0303,0.1911,0.0714,3594,2019-08-07 16:46:00:617
-6.724,-6.4015,1.1656,-0.1382,-0.4013,0.1182,-0.0303,0.1911,0.0714,3599,2019-08-07 16:46:00:622
-6.0829,-6.9839,1.1184,-0.1382,-0.4013,0.1182,-0.042,0.1144,0.032,3604,2019-08-07 16:46:00:627
-6.0829,-6.9839,1.1184,0.0385,-0.11,0.5662,-0.042,0.1144,0.032,3609,2019-08-07 16:46:00:632
-7.1262,-6.6162,0.8827,0.0385,-0.11,0.5662,-0.0506,0.1592,0.0682,3614,2019-08-07 16:46:00:637
-7.1262,-6.6162,0.8827,0.0385,-0.11,0.5662,-0.0506,0.1592,0.0682,3618,2019-08-07 16:46:00:641
-7.1262,-6.6162,0.8827,0.0385,-0.11,0.5662,-0.0506,0.1592,0.0682,3624,2019-08-07 16:46:00:647
-6.6861,-6.6449,1.321,-0.4795,-0.0221,0.0988,0.0123,0.1336,0.1087,3629,2019-08-07 16:46:00:652
-6.6861,-6.6449,1.321,-0.4795,-0.0221,0.0988,0.0123,0.1336,0.1087,3634,2019-08-07 16:46:00:657
-6.6861,-6.6449,1.321,-0.4795,-0.0221,0.0988,0.0347,0.1017,0.0544,3639,2019-08-07 16:46:00:662
-6.7722,-6.8215,0.9958,-0.4795,-0.0221,0.0988,0.0347,0.1017,0.0544,3644,2019-08-07 16:46:00:667
-6.7722,-6.8215,0.9958,-0.4795,-0.0221,0.0988,0.0102,0.1198,0.0416,3648,2019-08-07 16:46:00:671
-6.9349,-6.8311,1.2598,-0.015,0.0228,0.0848,0.0155,0.1006,0.0501,3654,2019-08-07 16:46:00:677
-6.9349,-6.8311,1.2598,-0.015,0.0228,0.0848,0.0155,0.1006,0.0501,3660,2019-08-07 16:46:00:683
-6.9349,-6.8311,1.2598,-0.015,0.0228,0.0848,0.0155,0.1006,0.0501,3663,2019-08-07 16:46:00:686
-7.0545,-6.8979,1.321,-0.015,0.0228,0.0848,0.0464,0.0313,0.0288,3669,2019-08-07 16:46:00:692
-7.0545,-6.8979,1.321,0.0782,0.0387,0.0129,0.0464,0.0313,0.0288,3674,2019-08-07 16:46:00:697
-6.9971,-6.7976,1.1136,0.0782,0.0387,0.0129,0.0634,-0.0326,0.015,3680,2019-08-07 16:46:00:703
-6.9971,-6.7976,1.1136,0.0782,0.0387,0.0129,0.0634,-0.0326,0.015,3684,2019-08-07 16:46:00:707
-6.9971,-6.7976,1.1136,0.0782,0.0387,0.0129,0.0602,-0.0858,0.0075,3688,2019-08-07 16:46:00:711
-6.6765,-6.8024,1.1938,-0.3044,0.0271,0.0704,0.0602,-0.0858,0.0075,3694,2019-08-07 16:46:00:717
-6.6765,-6.8024,1.1938,-0.3044,0.0271,0.0704,0.0698,-0.1093,-0.0149,3699,2019-08-07 16:46:00:722
-6.5952,-6.7308,1.1985,-0.3044,0.0271,0.0704,0.0698,-0.1093,-0.0149,3704,2019-08-07 16:46:00:727
-6.5952,-6.7308,1.1985,-0.3044,0.0271,0.0704,0.0677,-0.0933,-0.0319,3709,2019-08-07 16:46:00:732
-6.5952,-6.7308,1.1985,-0.3504,-0.1472,0.1176,0.0677,-0.0933,-0.0319,3714,2019-08-07 16:46:00:737
-6.6622,-6.5208,1.2032,-0.3504,-0.1472,0.1176,0.0432,-0.088,-0.0394,3719,2019-08-07 16:46:00:742
-6.6622,-6.5208,1.2032,-0.3504,-0.1472,0.1176,0.0432,-0.088,-0.0394,3725,2019-08-07 16:46:00:748
-6.5665,-6.3919,1.2126,-0.3504,-0.1472,0.1176,0.0272,-0.0954,-0.05,3729,2019-08-07 16:46:00:752
-6.5665,-6.3919,1.2126,-0.4187,-0.3859,0.1691,0.0272,-0.0954,-0.05,3734,2019-08-07 16:46:00:757
-6.5665,-6.3919,1.2126,-0.4187,-0.3859,0.1691,-0.0037,-0.0805,-0.0596,3738,2019-08-07 16:46:00:761
-6.4134,-6.4587,0.9864,-0.4187,-0.3859,0.1691,-0.0037,-0.0805,-0.0596,3744,2019-08-07 16:46:00:767
-6.4134,-6.4587,0.9864,-0.4187,-0.3859,0.1691,-0.0325,-0.0262,-0.0788,3749,2019-08-07 16:46:00:772
-6.112,-6.5685,0.9251,-0.7946,-0.239,0.3695,-0.0325,-0.0262,-0.0788,3753,2019-08-07 16:46:00:776
-6.112,-6.5685,0.9251,-0.7946,-0.239,0.3695,-0.0346,0.0654,-0.0947,3759,2019-08-07 16:46:00:782
-6.112,-6.5685,0.9251,-0.7946,-0.239,0.3695,-0.0346,0.0654,-0.0947,3764,2019-08-07 16:46:00:787
-6.2077,-6.5733,0.8921,-0.7946,-0.239,0.3695,-0.0346,0.0654,-0.0947,3769,2019-08-07 16:46:00:792
-6.2077,-6.5733,0.8921,-0.6379,-0.2416,0.3841,-0.0261,0.1752,-0.1065,3774,2019-08-07 16:46:00:797
-6.466,-6.5208,0.9675,-0.6379,-0.2416,0.3841,-0.0261,0.1752,-0.1065,3779,2019-08-07 16:46:00:802
-6.466,-6.5208,0.9675,-0.6379,-0.2416,0.3841,-0.0239,0.2146,-0.0969,3784,2019-08-07 16:46:00:807
-6.466,-6.5208,0.9675,-0.6379,-0.2416,0.3841,-0.0239,0.2146,-0.0969,3789,2019-08-07 16:46:00:812
-6.5569,-6.5112,1.0194,-0.3754,-0.3143,0.242,-0.0239,0.2146,-0.0969,3793,2019-08-07 16:46:00:816
-6.5569,-6.5112,1.0194,-0.3754,-0.3143,0.242,-0.0282,0.1986,-0.0809,3799,2019-08-07 16:46:00:822
-6.6095,-6.3966,1.0194,-0.3754,-0.3143,0.242,-0.0282,0.1986,-0.0809,3804,2019-08-07 16:46:00:827
-6.6095,-6.3966,1.0194,-0.3754,-0.3143,0.242,-0.0303,0.1613,-0.0511,3809,2019-08-07 16:46:00:832
-6.6095,-6.3966,1.0194,-0.2707,-0.4245,0.1123,-0.0303,0.1613,-0.0511,3814,2019-08-07 16:46:00:837
-6.6909,-6.4348,1.0147,-0.2707,-0.4245,0.1123,-0.0271,0.1294,-0.0212,3819,2019-08-07 16:46:00:842
-6.6909,-6.4348,1.0147,-0.2707,-0.4245,0.1123,-0.0271,0.1294,-0.0212,3823,2019-08-07 16:46:00:846
-6.7483,-6.4396,1.1042,-0.2707,-0.4245,0.1123,-0.0271,0.0857,0.0075,3829,2019-08-07 16:46:00:852
-6.7483,-6.4396,1.1042,-0.1341,-0.3781,0.1111,-0.0271,0.0857,0.0075,3834,2019-08-07 16:46:00:857
-6.7483,-6.4396,1.1042,-0.1341,-0.3781,0.1111,-0.025,0.0399,0.032,3839,2019-08-07 16:46:00:862
-6.7961,-6.4873,1.1372,-0.1341,-0.3781,0.1111,-0.025,0.0399,0.032,3844,2019-08-07 16:46:00:867
-6.7961,-6.4873,1.1372,-0.1341,-0.3781,0.1111,-0.0101,-6.0E-4,0.0448,3850,2019-08-07 16:46:00:873
-6.6861,-6.4635,0.9864,-0.2174,-0.4202,0.1234,-0.0101,-6.0E-4,0.0448,3855,2019-08-07 16:46:00:878
-6.6861,-6.4635,0.9864,-0.2174,-0.4202,0.1234,0.0027,-0.0209,0.0544,3859,2019-08-07 16:46:00:882
-6.6861,-6.4635,0.9864,-0.2174,-0.4202,0.1234,0.0027,-0.0209,0.0544,3864,2019-08-07 16:46:00:887
-6.5521,-6.5303,0.8874,-0.2174,-0.4202,0.1234,0.0027,-0.0209,0.0544,3869,2019-08-07 16:46:00:892
-6.5521,-6.5303,0.8874,-0.354,-0.2264,0.383,0.0027,0.0015,0.0512,3874,2019-08-07 16:46:00:897
-6.5521,-6.5303,0.8874,-0.354,-0.2264,0.383,0.0027,0.0015,0.0512,3879,2019-08-07 16:46:00:902
-6.5952,-6.5876,0.7884,-0.354,-0.2264,0.383,0.007,0.0463,0.0342,3884,2019-08-07 16:46:00:907
-6.5952,-6.5876,0.7884,-0.354,-0.2264,0.383,0.007,0.0463,0.0342,3888,2019-08-07 16:46:00:911
-6.7435,-6.6831,0.9204,-0.2023,-0.15,0.3609,0.0251,0.0782,0.0352,3894,2019-08-07 16:46:00:917
-6.7435,-6.6831,0.9204,-0.2023,-0.15,0.3609,0.0251,0.0782,0.0352,3899,2019-08-07 16:46:00:922
-6.7435,-6.6831,0.9204,-0.2023,-0.15,0.3609,0.0432,0.091,0.0395,3903,2019-08-07 16:46:00:926
-6.7052,-6.7738,0.9062,-0.2023,-0.15,0.3609,0.0432,0.091,0.0395,3909,2019-08-07 16:46:00:932
-6.7052,-6.7738,0.9062,-0.1472,-0.0631,0.1727,0.0549,0.1006,0.0352,3914,2019-08-07 16:46:00:937
-6.8583,-6.7499,1.1042,-0.1472,-0.0631,0.1727,0.0549,0.1006,0.0352,3919,2019-08-07 16:46:00:942
-6.8583,-6.7499,1.1042,-0.1472,-0.0631,0.1727,0.0549,0.1006,0.0352,3924,2019-08-07 16:46:00:947
-6.8583,-6.7499,1.1042,-0.1472,-0.0631,0.1727,0.0528,0.0665,0.0384,3928,2019-08-07 16:46:00:951
-6.844,-6.6688,1.1655,-0.159,-0.0996,0.0464,0.0528,0.0665,0.0384,3934,2019-08-07 16:46:00:957
-6.844,-6.6688,1.1655,-0.159,-0.0996,0.0464,0.0485,0.042,0.0416,3939,2019-08-07 16:46:00:962
-6.7435,-6.6783,1.2032,-0.159,-0.0996,0.0464,0.0485,0.042,0.0416,3944,2019-08-07 16:46:00:967
-6.7435,-6.6783,1.2032,-0.159,-0.0996,0.0464,0.04,0.0313,0.0363,3949,2019-08-07 16:46:00:972
-6.7435,-6.6783,1.2032,-0.2268,-0.0887,0.0527,0.04,0.0313,0.0363,3953,2019-08-07 16:46:00:976
-6.8248,-6.6353,1.2032,-0.2268,-0.0887,0.0527,0.0347,-6.0E-4,0.0278,3959,2019-08-07 16:46:00:982
-6.8248,-6.6353,1.2032,-0.2268,-0.0887,0.0527,0.0347,-6.0E-4,0.0278,3964,2019-08-07 16:46:00:987
-6.7722,-6.516,1.1136,-0.2268,-0.0887,0.0527,0.0187,-0.0145,0.0246,3969,2019-08-07 16:46:00:992
-6.7722,-6.516,1.1136,-0.2268,-0.0887,0.0527,0.0187,-0.0145,0.0246,3974,2019-08-07 16:46:00:997
-6.7722,-6.516,1.1136,-0.2733,-0.242,0.0949,0.007,-0.0272,0.0171,3979,2019-08-07 16:46:01:002
-6.5808,-6.5446,1.0571,-0.2733,-0.242,0.0949,0.007,-0.0272,0.0171,3984,2019-08-07 16:46:01:007
-6.5808,-6.5446,1.0571,-0.2733,-0.242,0.0949,-0.0069,-0.0027,0.015,3989,2019-08-07 16:46:01:012
-6.5234,-6.6926,1.1042,-0.451,-0.1027,0.0864,-0.0069,-0.0027,0.015,3994,2019-08-07 16:46:01:017
-6.5234,-6.6926,1.1042,-0.451,-0.1027,0.0864,-5.0E-4,0.0441,-0.0021,3999,2019-08-07 16:46:01:022
-6.5234,-6.6926,1.1042,-0.451,-0.1027,0.0864,-5.0E-4,0.0441,-0.0021,4004,2019-08-07 16:46:01:027
-6.6191,-6.7213,1.0854,-0.451,-0.1027,0.0864,0.0133,0.074,0.0011,4009,2019-08-07 16:46:01:032
-6.6191,-6.7213,1.0854,-0.351,-0.094,0.0173,0.0133,0.074,0.0011,4014,2019-08-07 16:46:01:037
-6.6478,-6.6783,1.1985,-0.351,-0.094,0.0173,0.0208,0.0782,0.0086,4019,2019-08-07 16:46:01:042
-6.6478,-6.6783,1.1985,-0.351,-0.094,0.0173,0.0208,0.0782,0.0086,4023,2019-08-07 16:46:01:046
-6.6478,-6.6783,1.1985,-0.351,-0.094,0.0173,0.0304,0.0558,0.0118,4029,2019-08-07 16:46:01:052
-6.7339,-6.5303,1.2173,-0.351,-0.094,0.0173,0.0304,0.0558,0.0118,4034,2019-08-07 16:46:01:057
-6.7339,-6.5303,1.2173,-0.2196,-0.3022,-0.0391,0.0315,0.0175,0.0224,4039,2019-08-07 16:46:01:062
-6.7339,-6.5303,1.2173,-0.2196,-0.3022,-0.0391,0.0315,0.0175,0.0224,4044,2019-08-07 16:46:01:067
-6.7722,-6.4874,1.1891,-0.2196,-0.3022,-0.0391,0.0187,-0.0304,0.0342,4048,2019-08-07 16:46:01:071
-6.7722,-6.4874,1.1891,-0.2196,-0.3022,-0.0391,0.0187,-0.0304,0.0342,4054,2019-08-07 16:46:01:077
-6.7913,-6.4874,1.1655,-0.1616,-0.297,0.0228,-0.0026,-0.0773,0.0405,4059,2019-08-07 16:46:01:082
-6.7913,-6.4874,1.1655,-0.1616,-0.297,0.0228,-0.0026,-0.0773,0.0405,4064,2019-08-07 16:46:01:087
-6.7913,-6.4874,1.1655,-0.1616,-0.297,0.0228,-0.0026,-0.0773,0.0405,4069,2019-08-07 16:46:01:092
-6.6669,-6.5399,1.1136,-0.1616,-0.297,0.0228,-0.0207,-0.1114,0.0405,4074,2019-08-07 16:46:01:097
-6.6669,-6.5399,1.1136,-0.3611,-0.2533,0.0676,-0.0207,-0.1114,0.0405,4079,2019-08-07 16:46:01:102
-6.5712,-6.5303,0.9298,-0.3611,-0.2533,0.0676,-0.0271,-0.1082,0.0342,4084,2019-08-07 16:46:01:107
-6.5712,-6.5303,0.9298,-0.3611,-0.2533,0.0676,-0.0271,-0.1082,0.0342,4089,2019-08-07 16:46:01:112
-6.5712,-6.5303,0.9298,-0.3611,-0.2533,0.0676,-0.0793,-0.1402,0.031,4094,2019-08-07 16:46:01:117
-6.5234,-6.5112,0.911,-0.4631,-0.2695,0.2924,-0.0793,-0.1402,0.031,4099,2019-08-07 16:46:01:122
-6.5234,-6.5112,0.911,-0.4631,-0.2695,0.2924,-0.0591,-0.0517,0.0139,4103,2019-08-07 16:46:01:126
-6.4803,-6.6926,0.9722,-0.4631,-0.2695,0.2924,-0.0591,-0.0517,0.0139,4109,2019-08-07 16:46:01:132
-6.4803,-6.6926,0.9722,-0.4631,-0.2695,0.2924,-0.0261,-0.0091,0.0011,4114,2019-08-07 16:46:01:137
-6.4803,-6.6926,0.9722,-0.3955,-0.0413,0.3798,-0.0261,-0.0091,0.0011,4118,2019-08-07 16:46:01:141
-6.5952,-6.6879,0.8591,-0.3955,-0.0413,0.3798,-0.0261,-0.0091,0.0011,4124,2019-08-07 16:46:01:147
-6.5952,-6.6879,0.8591,-0.3955,-0.0413,0.3798,-0.0048,0.0537,-0.0042,4129,2019-08-07 16:46:01:152
-6.6526,-6.559,0.9817,-0.3955,-0.0413,0.3798,-0.0048,0.0537,-0.0042,4133,2019-08-07 16:46:01:156
-6.6526,-6.559,0.9817,-0.3286,-0.2384,0.1263,0.0133,0.0548,0.0054,4139,2019-08-07 16:46:01:162
-6.6526,-6.559,0.9817,-0.3286,-0.2384,0.1263,0.0133,0.0548,0.0054,4144,2019-08-07 16:46:01:167
-6.6669,-6.6067,1.0429,-0.3286,-0.2384,0.1263,0.0293,0.0516,0.0075,4149,2019-08-07 16:46:01:172
-6.6669,-6.6067,1.0429,-0.3286,-0.2384,0.1263,0.0293,0.0516,0.0075,4154,2019-08-07 16:46:01:177
-6.7004,-6.6974,1.2079,-0.3063,-0.0847,0.0087,0.0698,0.074,0.0224,4158,2019-08-07 16:46:01:181
-6.7004,-6.6974,1.2079,-0.3063,-0.0847,0.0087,0.0698,0.074,0.0224,4164,2019-08-07 16:46:01:187
-6.7004,-6.6974,1.2079,-0.3063,-0.0847,0.0087,0.0549,0.0324,0.0437,4169,2019-08-07 16:46:01:192
-6.6382,-6.6497,1.0477,-0.3063,-0.0847,0.0087,0.0549,0.0324,0.0437,4174,2019-08-07 16:46:01:197
-6.6382,-6.6497,1.0477,-0.3547,-0.2893,0.0989,0.0549,0.0324,0.0437,4179,2019-08-07 16:46:01:202
-6.777,-6.3966,1.0901,-0.3547,-0.2893,0.0989,0.0347,-6.0E-4,0.0278,4184,2019-08-07 16:46:01:207
-6.777,-6.3966,1.0901,-0.3547,-0.2893,0.0989,0.0283,-0.0272,0.0278,4189,2019-08-07 16:46:01:212
-6.777,-6.3966,1.0901,-0.3547,-0.2893,0.0989,0.0283,-0.0272,0.0278,4193,2019-08-07 16:46:01:216
-6.6813,-6.5303,1.0759,-0.3156,-0.2411,0.1191,0.0229,-0.0304,0.0342,4199,2019-08-07 16:46:01:222
-6.6813,-6.5303,1.0759,-0.3156,-0.2411,0.1191,0.0229,-0.0304,0.0342,4204,2019-08-07 16:46:01:227