ACCELEROMETER X (m/s²),ACCELEROMETER Y (m/s²),ACCELEROMETER Z (m/s²),LINEAR ACCELERATION X (m/s²),LINEAR ACCELERATION Y (m/s²),LINEAR ACCELERATION Z (m/s²),GYROSCOPE X (rad/s),GYROSCOPE Y (rad/s),GYROSCOPE Z (rad/s),Time since start in ms ,YYYY-MO-DD HH-MI-SS_SSS
-6.2664,-6.9885,0.7928,-0.217,-0.3058,0.0632,0.0155,0.0037,-0.0053,3,2019-08-07 16:46:08:437
-6.2664,-6.9885,0.7928,-0.217,-0.3058,0.0632,0.007,-0.0038,-0.0074,8,2019-08-07 16:46:08:442
-6.2186,-7.0219,0.7787,-0.217,-0.3058,0.0632,0.007,-0.0038,-0.0074,13,2019-08-07 16:46:08:447
-6.2186,-7.0219,0.7787,-0.2831,-0.2682,0.0274,0.0016,-0.0155,-0.0085,18,2019-08-07 16:46:08:452
-6.2186,-7.0219,0.7787,-0.2831,-0.2682,0.0274,0.0016,-0.0155,-0.0085,22,2019-08-07 16:46:08:456
-6.2234,-7.0362,0.6985,-0.2831,-0.2682,0.0274,-0.0101,-0.0166,-0.0063,28,2019-08-07 16:46:08:462
-6.2234,-7.0362,0.6985,-0.2831,-0.2682,0.0274,-0.0101,-0.0166,-0.0063,33,2019-08-07 16:46:08:467
-6.2234,-7.0362,0.6985,-0.3771,-0.2409,0.1317,-0.0069,-0.0049,1.0E-4,38,2019-08-07 16:46:08:472
-6.0942,-7.1317,0.6703,-0.3771,-0.2409,0.1317,-0.0069,-0.0049,1.0E-4,43,2019-08-07 16:46:08:477
-6.0942,-7.1317,0.6703,-0.3771,-0.2409,0.1317,-0.0026,0.009,-0.0031,49,2019-08-07 16:46:08:483
-6.1612,-7.0553,0.7504,-0.3771,-0.2409,0.1317,-0.0026,0.009,-0.0031,53,2019-08-07 16:46:08:487
-6.1612,-7.0553,0.7504,-0.2995,-0.242,0.0542,-0.0026,0.009,-0.0031,57,2019-08-07 16:46:08:491
-6.1612,-7.0553,0.7504,-0.2995,-0.242,0.0542,0.0016,0.0154,0.0011,64,2019-08-07 16:46:08:498
-6.1229,-7.0744,0.7551,-0.2995,-0.242,0.0542,0.0016,0.0154,0.0011,67,2019-08-07 16:46:08:501
-6.1229,-7.0744,0.7551,-0.2995,-0.242,0.0542,0.0048,0.0132,0.0096,73,2019-08-07 16:46:08:507
-6.1708,-7.0457,0.7551,-0.3098,-0.2749,0.048,0.0048,0.0132,0.0096,78,2019-08-07 16:46:08:512
-6.1708,-7.0457,0.7551,-0.3098,-0.2749,0.048,-0.0016,0.0132,0.0224,83,2019-08-07 16:46:08:517
-6.1708,-7.0457,0.7551,-0.3098,-0.2749,0.048,-0.0016,0.0132,0.0224,87,2019-08-07 16:46:08:521
-6.2426,-7.041,0.6797,-0.3098,-0.2749,0.048,-0.0037,0.0132,0.0246,94,2019-08-07 16:46:08:528
-6.2426,-7.041,0.6797,-0.1555,-0.2673,0.1113,-0.0037,0.0132,0.0246,98,2019-08-07 16:46:08:532
-6.3479,-7.0792,0.7551,-0.1555,-0.2673,0.1113,0.0016,-0.007,0.0256,103,2019-08-07 16:46:08:537
-6.3479,-7.0792,0.7551,-0.1555,-0.2673,0.1113,0.0016,-0.007,0.0256,108,2019-08-07 16:46:08:542
-6.3479,-7.0792,0.7551,-0.1555,-0.2673,0.1113,6.0E-4,-0.0326,0.0267,113,2019-08-07 16:46:08:547
-6.2522,-7.0457,0.6797,-0.2791,-0.2874,0.1272,6.0E-4,-0.0326,0.0267,117,2019-08-07 16:46:08:551
-6.2522,-7.0457,0.6797,-0.2791,-0.2874,0.1272,-0.0016,-0.0272,0.0246,123,2019-08-07 16:46:08:557
-6.2522,-7.0457,0.6797,-0.2791,-0.2874,0.1272,-0.0016,-0.0272,0.0246,127,2019-08-07 16:46:08:561
-6.19,-6.9025,0.6042,-0.2999,-0.4099,0.1993,-0.0079,0.0068,0.0235,133,2019-08-07 16:46:08:567
-6.19,-6.9025,0.6042,-0.2999,-0.4099,0.1993,-0.0079,0.0068,0.0235,138,2019-08-07 16:46:08:572
-6.3144,-6.9455,0.6325,-0.2999,-0.4099,0.1993,-0.0069,0.0356,0.0182,143,2019-08-07 16:46:08:577
-6.3144,-6.9455,0.6325,-0.0836,-0.3593,0.1243,-0.0069,0.0356,0.0182,148,2019-08-07 16:46:08:582
-6.3144,-6.9455,0.6325,-0.0836,-0.3593,0.1243,-0.0037,0.0452,0.0139,153,2019-08-07 16:46:08:587
-6.4484,-6.955,0.6608,-0.0836,-0.3593,0.1243,-0.0037,0.0452,0.0139,158,2019-08-07 16:46:08:592
-6.4484,-6.955,0.6608,-0.0836,-0.3593,0.1243,-0.0037,0.0452,0.0139,163,2019-08-07 16:46:08:597
-6.4484,-6.955,0.6608,-0.0836,-0.3593,0.1243,-0.0037,0.0314,0.0033,168,2019-08-07 16:46:08:602
-6.4293,-6.9741,0.6655,-0.0677,-0.3332,0.1271,-0.0037,0.0314,0.0033,172,2019-08-07 16:46:08:606
-6.4293,-6.9741,0.6655,-0.0677,-0.3332,0.1271,-0.0026,0.0164,-0.0053,178,2019-08-07 16:46:08:612
-6.3623,-6.9884,0.6938,-0.0677,-0.3332,0.1271,-0.0026,0.0164,-0.0053,183,2019-08-07 16:46:08:617
-6.3623,-6.9884,0.6938,-0.1582,-0.2814,0.1142,-0.0026,0.0218,-0.0181,188,2019-08-07 16:46:08:622
-6.3623,-6.9884,0.6938,-0.1582,-0.2814,0.1142,-0.0026,0.0218,-0.0181,193,2019-08-07 16:46:08:627
-6.3796,-7.0459,0.6848,-0.1582,-0.2814,0.1142,-0.0016,0.0175,-0.0244,197,2019-08-07 16:46:08:631
-6.3796,-7.0459,0.6848,-0.1582,-0.2814,0.1142,-0.0016,0.0175,-0.0244,203,2019-08-07 16:46:08:637
-6.3269,-7.0364,0.8545,-0.1582,-0.2814,0.1142,-5.0E-4,0.0058,-0.0276,207,2019-08-07 16:46:08:641
-6.3269,-7.0364,0.8545,-0.2236,-0.2607,-0.0342,-5.0E-4,0.0058,-0.0276,213,2019-08-07 16:46:08:647
-6.3269,-7.0364,0.8545,-0.2236,-0.2607,-0.0342,0.0027,-0.0134,-0.0244,217,2019-08-07 16:46:08:651
-6.169,-7.0173,0.779,-0.2236,-0.2607,-0.0342,0.0027,-0.0134,-0.0244,223,2019-08-07 16:46:08:657
-6.169,-7.0173,0.779,-0.2236,-0.2607,-0.0342,6.0E-4,-0.0219,-0.018,228,2019-08-07 16:46:08:662
-6.1403,-6.9791,0.7837,-0.3298,-0.2924,0.0296,6.0E-4,-0.0219,-0.018,233,2019-08-07 16:46:08:667
-6.1403,-6.9791,0.7837,-0.3298,-0.2924,0.0296,-0.0058,-0.0145,-0.0127,239,2019-08-07 16:46:08:673
-6.1116,-7.0411,0.746,-0.3298,-0.2924,0.0296,-0.0122,-0.0059,-0.0106,244,2019-08-07 16:46:08:678
-6.1116,-7.0411,0.746,-0.3466,-0.2992,0.0537,-0.0122,-0.0059,-0.0106,248,2019-08-07 16:46:08:682
-6.1116,-7.0411,0.746,-0.3466,-0.2992,0.0537,-0.0122,-0.0059,-0.0106,253,2019-08-07 16:46:08:687
-6.1451,-6.9648,0.746,-0.3466,-0.2992,0.0537,-0.0165,0.0036,-0.0042,258,2019-08-07 16:46:08:692
-6.1451,-6.9648,0.746,-0.3079,-0.3188,0.0291,-0.0165,0.0036,-0.0042,263,2019-08-07 16:46:08:697
-6.1451,-6.9648,0.746,-0.3079,-0.3188,0.0291,-0.0197,0.0047,-0.0021,269,2019-08-07 16:46:08:703
-6.1977,-6.9934,0.746,-0.3079,-0.3188,0.0291,-0.0197,0.0047,-0.0021,273,2019-08-07 16:46:08:707
-6.1977,-6.9934,0.746,-0.3079,-0.3188,0.0291,-0.0271,0.0154,-0.001,278,2019-08-07 16:46:08:712
-6.1786,-7.0602,0.7649,-0.2982,-0.2288,0.0292,-0.0271,0.0154,-0.001,283,2019-08-07 16:46:08:717
-6.1786,-7.0602,0.7649,-0.2982,-0.2288,0.0292,-0.0271,0.0186,-0.0074,287,2019-08-07 16:46:08:721
-6.1786,-7.0602,0.7649,-0.2982,-0.2288,0.0292,-0.0271,0.0186,-0.0074,293,2019-08-07 16:46:08:727
-6.2838,-7.0984,0.7036,-0.2982,-0.2288,0.0292,-0.025,0.0271,-0.0117,298,2019-08-07 16:46:08:732
-6.2838,-7.0984,0.7036,-0.2253,-0.178,0.0459,-0.025,0.0271,-0.0117,303,2019-08-07 16:46:08:737
-6.279,-7.1366,0.7131,-0.2253,-0.178,0.0459,-0.025,0.0271,-0.0117,308,2019-08-07 16:46:08:742
-6.279,-7.1366,0.7131,-0.2253,-0.178,0.0459,-0.0112,0.0111,-0.0106,313,2019-08-07 16:46:08:747
-6.279,-7.1366,0.7131,-0.2253,-0.178,0.0459,-0.0112,0.0111,-0.0106,318,2019-08-07 16:46:08:752
-6.2264,-7.0937,0.7838,-0.2575,-0.2273,-0.0099,-0.0069,-0.0049,-0.0053,323,2019-08-07 16:46:08:757
-6.2264,-7.0937,0.7838,-0.2575,-0.2273,-0.0099,-0.0069,-0.0049,-0.0053,328,2019-08-07 16:46:08:762
-6.2264,-7.0937,0.7838,-0.2575,-0.2273,-0.0099,-0.0069,-0.0049,-0.0053,332,2019-08-07 16:46:08:766
-6.1403,-7.1032,0.7272,-0.2575,-0.2273,-0.0099,-0.0048,-0.0113,1.0E-4,338,2019-08-07 16:46:08:772
-6.1403,-7.1032,0.7272,-0.3094,-0.2756,0.0424,-0.0048,-0.0113,1.0E-4,343,2019-08-07 16:46:08:777
-6.1785,-7.1128,0.7555,-0.3094,-0.2756,0.0424,0.0016,-0.0198,0.0075,348,2019-08-07 16:46:08:782
-6.1785,-7.1128,0.7555,-0.3094,-0.2756,0.0424,0.0016,-0.0198,0.0075,353,2019-08-07 16:46:08:787
-6.1785,-7.1128,0.7555,-0.3094,-0.2756,0.0424,0.0016,-0.0198,0.0075,358,2019-08-07 16:46:08:792
-6.1594,-7.108,0.7131,-0.2863,-0.2747,0.0921,0.0016,-0.0209,0.0128,362,2019-08-07 16:46:08:796
-6.1594,-7.108,0.7131,-0.2863,-0.2747,0.0921,0.0016,-0.0209,0.0128,368,2019-08-07 16:46:08:802
-6.1642,-7.0603,0.6659,-0.2863,-0.2747,0.0921,6.0E-4,-0.0134,0.0107,372,2019-08-07 16:46:08:806
-6.1642,-7.0603,0.6659,-0.2863,-0.2747,0.0921,6.0E-4,-0.0134,0.0107,378,2019-08-07 16:46:08:812
-6.1402,-7.0364,0.6754,-0.3354,-0.283,0.1403,-0.0016,-0.0027,0.0075,384,2019-08-07 16:46:08:818
-6.1402,-7.0364,0.6754,-0.3354,-0.283,0.1403,-0.0016,-0.0027,0.0075,388,2019-08-07 16:46:08:822
-6.1402,-7.0364,0.6754,-0.2971,-0.2353,0.1535,-0.0048,0.0122,-0.0021,393,2019-08-07 16:46:08:827
-6.1546,-7.0603,0.6329,-0.2971,-0.2353,0.1535,-0.0048,0.0122,-0.0021,398,2019-08-07 16:46:08:832
-6.1546,-7.0603,0.6329,-0.2971,-0.2353,0.1535,-0.0048,0.0122,-0.0021,403,2019-08-07 16:46:08:837
-6.1546,-7.0603,0.6329,-0.2971,-0.2353,0.1535,-0.0048,0.0388,-0.017,408,2019-08-07 16:46:08:842
-6.2742,-7.065,0.6329,-0.1764,-0.2417,0.1053,-0.0048,0.0388,-0.017,413,2019-08-07 16:46:08:847
-6.2742,-7.065,0.6329,-0.1764,-0.2417,0.1053,-0.0037,0.0452,-0.0255,418,2019-08-07 16:46:08:852
-6.389,-7.0364,0.6942,-0.1764,-0.2417,0.1053,-0.0037,0.0452,-0.0255,423,2019-08-07 16:46:08:857
-6.389,-7.0364,0.6942,-0.1764,-0.2417,0.1053,-0.0026,0.0292,-0.0234,428,2019-08-07 16:46:08:862
-6.389,-7.0364,0.6942,-0.1549,-0.3112,0.0434,-0.0026,0.0292,-0.0234,432,2019-08-07 16:46:08:866
-6.2885,-7.0077,0.6895,-0.1549,-0.3112,0.0434,-0.0037,0.0047,-0.0212,438,2019-08-07 16:46:08:872
-6.2885,-7.0077,0.6895,-0.1549,-0.3112,0.0434,-0.0037,0.0047,-0.0212,444,2019-08-07 16:46:08:878
-6.2359,-7.0364,0.7272,-0.1549,-0.3112,0.0434,-0.0048,-0.0102,-0.0159,448,2019-08-07 16:46:08:882
-6.2359,-7.0364,0.7272,-0.2385,-0.3469,-0.0461,-0.0048,-0.0102,-0.0159,454,2019-08-07 16:46:08:888
-6.2359,-7.0364,0.7272,-0.2385,-0.3469,-0.0461,-0.0016,-0.0219,-0.0074,458,2019-08-07 16:46:08:892
-6.1641,-6.9648,0.7885,-0.2385,-0.3469,-0.0461,-0.0016,-0.0219,-0.0074,463,2019-08-07 16:46:08:897
-6.1641,-6.9648,0.7885,-0.2385,-0.3469,-0.0461,-0.0048,-0.0283,0.0043,468,2019-08-07 16:46:08:902
-6.1641,-6.9648,0.7885,-0.3097,-0.3805,0.0372,-0.0048,-0.0283,0.0043,473,2019-08-07 16:46:08:907
-6.1689,-6.9552,0.7696,-0.3097,-0.3805,0.0372,-0.008,-0.0326,0.0192,479,2019-08-07 16:46:08:913
-6.1689,-6.9552,0.7696,-0.3097,-0.3805,0.0372,-0.008,-0.0326,0.0192,483,2019-08-07 16:46:08:917
-6.1689,-6.9552,0.7696,-0.3097,-0.3805,0.0372,-0.0154,-0.0219,0.0288,488,2019-08-07 16:46:08:922
-6.1258,-6.9982,0.7319,-0.3316,-0.3253,-0.0267,-0.0154,-0.0219,0.0288,493,2019-08-07 16:46:08:927
-6.1258,-6.9982,0.7319,-0.3316,-0.3253,-0.0267,-0.0165,-0.0049,0.0331,498,2019-08-07 16:46:08:932
-6.1258,-6.9982,0.7319,-0.3316,-0.3253,-0.0267,-0.0165,-0.0049,0.0331,503,2019-08-07 16:46:08:937
-6.1402,-7.0555,0.7131,-0.3316,-0.3253,-0.0267,-0.0165,-0.0049,0.0331,508,2019-08-07 16:46:08:942
-6.1402,-7.0555,0.7131,-0.3025,-0.336,0.0837,-0.0165,0.0154,0.0299,513,2019-08-07 16:46:08:947
-6.2358,-6.9791,0.6801,-0.3025,-0.336,0.0837,-0.0165,0.0154,0.0299,518,2019-08-07 16:46:08:952
-6.2358,-6.9791,0.6801,-0.3025,-0.336,0.0837,-0.0143,0.0399,0.0246,522,2019-08-07 16:46:08:956
-6.2358,-6.9791,0.6801,-0.3025,-0.336,0.0837,-0.0143,0.0399,0.0246,528,2019-08-07 16:46:08:962
-6.3459,-7.0268,0.7131,-0.3025,-0.336,0.0837,-0.0175,0.0356,0.0235,532,2019-08-07 16:46:08:966
-6.3459,-7.0268,0.7131,-0.1253,-0.3136,0.0389,-0.0175,0.0356,0.0235,538,2019-08-07 16:46:08:972
-6.3841,-6.9934,0.7791,-0.1253,-0.3136,0.0389,-0.0175,0.0356,0.0235,543,2019-08-07 16:46:08:977
-6.3841,-6.9934,0.7791,-0.1253,-0.3136,0.0389,-0.0186,0.0154,0.0224,548,2019-08-07 16:46:08:982
-6.3841,-6.9934,0.7791,-0.1253,-0.3136,0.0389,-0.0186,0.0154,0.0224,552,2019-08-07 16:46:08:986
-6.3793,-7.0364,0.7885,-0.1154,-0.2767,-0.0318,-0.0197,-0.0123,0.0235,558,2019-08-07 16:46:08:992
-6.3793,-7.0364,0.7885,-0.1154,-0.2767,-0.0318,-0.0197,-0.0123,0.0235,563,2019-08-07 16:46:08:997
-6.3554,-7.0412,0.7367,-0.1154,-0.2767,-0.0318,-0.025,-0.04,0.0288,568,2019-08-07 16:46:09:002
-6.3554,-7.0412,0.7367,-0.1154,-0.2767,-0.0318,-0.025,-0.04,0.0288,572,2019-08-07 16:46:09:006
-6.3554,-7.0412,0.7367,-0.1624,-0.3256,0.0263,-0.025,-0.0539,0.032,578,2019-08-07 16:46:09:012
-6.3315,-7.065,0.7744,-0.1624,-0.3256,0.0263,-0.025,-0.0539,0.032,583,2019-08-07 16:46:09:017
-6.3315,-7.065,0.7744,-0.1624,-0.3256,0.0263,-0.0239,-0.0784,0.0448,588,2019-08-07 16:46:09:022
-6.2262,-7.0316,0.7131,-0.1624,-0.3256,0.0263,-0.0239,-0.0784,0.0448,592,2019-08-07 16:46:09:026
-6.2262,-7.0316,0.7131,-0.2442,-0.2726,0.1269,-0.0239,-0.0965,0.0512,598,2019-08-07 16:46:09:032
-6.2262,-7.0316,0.7131,-0.2442,-0.2726,0.1269,-0.0239,-0.0965,0.0512,603,2019-08-07 16:46:09:037
-6.231,-7.0412,0.7791,-0.2442,-0.2726,0.1269,-0.0175,-0.0805,0.0469,608,2019-08-07 16:46:09:042
-6.231,-7.0412,0.7791,-0.2442,-0.2726,0.1269,-0.0175,-0.0805,0.0469,613,2019-08-07 16:46:09:047
-6.1927,-7.0794,0.6282,-0.317,-0.2188,0.1588,-0.0154,-0.0848,0.048,617,2019-08-07 16:46:09:051
-6.1927,-7.0794,0.6282,-0.317,-0.2188,0.1588,-0.0154,-0.0848,0.048,623,2019-08-07 16:46:09:057
-6.1927,-7.0794,0.6282,-0.317,-0.2188,0.1588,-0.0154,-0.0517,0.0363,627,2019-08-07 16:46:09:061
-6.2358,-7.0746,0.6754,-0.317,-0.2188,0.1588,-0.0154,-0.0517,0.0363,633,2019-08-07 16:46:09:067
-6.2358,-7.0746,0.6754,-0.2925,-0.2097,0.1257,-0.0133,-0.0219,0.0246,638,2019-08-07 16:46:09:072
-6.3601,-7.0746,0.7084,-0.2925,-0.2097,0.1257,-0.0133,-0.0219,0.0246,643,2019-08-07 16:46:09:077
-6.3601,-7.0746,0.7084,-0.2925,-0.2097,0.1257,-0.0048,-0.007,0.0224,647,2019-08-07 16:46:09:081
-6.3601,-7.0746,0.7084,-0.2925,-0.2097,0.1257,-0.0048,-0.007,0.0224,653,2019-08-07 16:46:09:087
-6.3171,-7.1366,0.6848,-0.1996,-0.1548,0.0924,-0.008,-0.0059,0.0139,658,2019-08-07 16:46:09:092
-6.3171,-7.1366,0.6848,-0.1996,-0.1548,0.0924,-0.008,-0.0059,0.0139,663,2019-08-07 16:46:09:097
-6.3936,-7.151,0.7697,-0.1996,-0.1548,0.0924,-0.0058,-0.0102,0.0065,668,2019-08-07 16:46:09:102
-6.3936,-7.151,0.7697,-0.1996,-0.1548,0.0924,-0.0058,-0.0102,0.0065,674,2019-08-07 16:46:09:108
-6.3936,-7.151,0.7697,-0.0952,-0.1825,0.0181,-5.0E-4,-0.039,0.0054,678,2019-08-07 16:46:09:112
-6.3218,-7.1605,0.7744,-0.0952,-0.1825,0.0181,-5.0E-4,-0.039,0.0054,682,2019-08-07 16:46:09:116
-6.3218,-7.1605,0.7744,-0.0952,-0.1825,0.0181,-0.0101,-0.0571,0.0011,688,2019-08-07 16:46:09:122
-6.3218,-7.1605,0.7744,-0.0952,-0.1825,0.0181,-0.0101,-0.0571,0.0011,693,2019-08-07 16:46:09:127
-6.2501,-7.1748,0.7084,-0.2813,-0.149,0.0752,-0.0101,-0.0571,0.0011,697,2019-08-07 16:46:09:131
-6.2501,-7.1748,0.7084,-0.2813,-0.149,0.0752,-0.0133,-0.0539,0.0033,703,2019-08-07 16:46:09:137
-6.1113,-7.1844,0.7084,-0.2813,-0.149,0.0752,-0.0133,-0.0539,0.0033,708,2019-08-07 16:46:09:142
-6.1113,-7.1844,0.7084,-0.2813,-0.149,0.0752,-0.0058,-0.0411,0.0065,712,2019-08-07 16:46:09:146
-6.1113,-7.1844,0.7084,-0.3997,-0.1354,0.0462,-0.0058,-0.0411,0.0065,718,2019-08-07 16:46:09:152
-6.1257,-7.1701,0.7461,-0.3997,-0.1354,0.0462,0.0048,-0.0091,0.0022,723,2019-08-07 16:46:09:157
-6.1257,-7.1701,0.7461,-0.3997,-0.1354,0.0462,0.0048,-0.0091,0.0022,728,2019-08-07 16:46:09:162
-6.1879,-7.1748,0.7225,-0.3997,-0.1354,0.0462,0.0187,0.0111,1.0E-4,733,2019-08-07 16:46:09:167
-6.1879,-7.1748,0.7225,-0.2843,-0.236,0.01,0.0187,0.0111,1.0E-4,738,2019-08-07 16:46:09:172
-6.1879,-7.1748,0.7225,-0.2843,-0.236,0.01,0.0187,0.0111,1.0E-4,743,2019-08-07 16:46:09:177
-6.3457,-6.9791,0.8545,-0.2843,-0.236,0.01,0.0219,0.0047,-0.0042,747,2019-08-07 16:46:09:181
-6.3457,-6.9791,0.8545,-0.2843,-0.236,0.01,0.0219,0.0047,-0.0042,753,2019-08-07 16:46:09:187
-6.3457,-6.9791,0.8545,-0.1452,-0.3219,-0.0054,0.0176,-0.0262,-0.0063,757,2019-08-07 16:46:09:191
-6.384,-7.0078,0.798,-0.1452,-0.3219,-0.0054,0.0176,-0.0262,-0.0063,763,2019-08-07 16:46:09:197
-6.384,-7.0078,0.798,-0.1452,-0.3219,-0.0054,0.0112,-0.0528,-0.0085,767,2019-08-07 16:46:09:201
-6.2979,-6.9409,0.7791,-0.1452,-0.3219,-0.0054,0.0112,-0.0528,-0.0085,773,2019-08-07 16:46:09:207
-6.2979,-6.9409,0.7791,-0.2823,-0.3511,-0.0066,0.0038,-0.0677,-0.0063,777,2019-08-07 16:46:09:211
-6.2979,-6.9409,0.7791,-0.2823,-0.3511,-0.0066,0.0038,-0.0677,-0.0063,783,2019-08-07 16:46:09:217
-6.183,-6.9266,0.7697,-0.2823,-0.3511,-0.0066,-0.0037,-0.0784,-0.0063,787,2019-08-07 16:46:09:221
-6.183,-6.9266,0.7697,-0.2823,-0.3511,-0.0066,-0.0037,-0.0784,-0.0063,793,2019-08-07 16:46:09:227
-6.0586,-6.9934,0.765,-0.452,-0.2998,0.0454,-0.0069,-0.0699,-0.001,799,2019-08-07 16:46:09:233
-6.0586,-6.9934,0.765,-0.452,-0.2998,0.0454,-0.0069,-0.0699,-0.001,803,2019-08-07 16:46:09:237
-6.0586,-6.9934,0.765,-0.452,-0.2998,0.0454,-0.0101,-0.0454,0.0033,808,2019-08-07 16:46:09:242
-6.1017,-7.0173,0.6848,-0.452,-0.2998,0.0454,-0.0101,-0.0454,0.0033,813,2019-08-07 16:46:09:247
-6.1017,-7.0173,0.6848,-0.4367,-0.3336,0.1153,-0.0143,-0.0219,0.0097,818,2019-08-07 16:46:09:252
-6.1017,-7.0173,0.7603,-0.4367,-0.3336,0.1153,-0.0143,-0.0219,0.0097,823,2019-08-07 16:46:09:257
-6.1017,-7.0173,0.7603,-0.4367,-0.3336,0.1153,-0.0186,-0.0027,0.0075,827,2019-08-07 16:46:09:261
-6.1017,-7.0173,0.7603,-0.4367,-0.3336,0.1153,-0.0186,-0.0027,0.0075,834,2019-08-07 16:46:09:268
-6.2069,-7.0125,0.6848,-0.2939,-0.3236,0.1181,-0.0186,-0.0027,0.0075,837,2019-08-07 16:46:09:271
-6.2069,-7.0125,0.6848,-0.2939,-0.3236,0.1181,-0.025,0.0015,0.0086,843,2019-08-07 16:46:09:277
-6.1974,-7.003,0.7037,-0.2939,-0.3236,0.1181,-0.0282,0.0015,0.0011,848,2019-08-07 16:46:09:282
-6.1974,-7.003,0.7037,-0.2939,-0.3236,0.1181,-0.0282,0.0015,0.0011,853,2019-08-07 16:46:09:287
-6.1974,-7.003,0.7037,-0.2939,-0.3236,0.1181,-0.0282,0.0015,0.0011,858,2019-08-07 16:46:09:292
-6.3122,-7.0555,0.7131,-0.189,-0.257,0.0944,-0.0271,0.0164,-0.0063,863,2019-08-07 16:46:09:297
-6.3122,-7.0555,0.7131,-0.189,-0.257,0.0944,-0.0271,0.0164,-0.0063,868,2019-08-07 16:46:09:302
-6.3122,-7.0555,0.7131,-0.189,-0.257,0.0944,-0.0218,0.0111,-0.0106,873,2019-08-07 16:46:09:307
-6.3839,-7.046,0.7226,-0.189,-0.257,0.0944,-0.0218,0.0111,-0.0106,878,2019-08-07 16:46:09:312
-6.3839,-7.046,0.7226,-0.0971,-0.2586,0.0648,-0.0207,-0.0017,-0.0159,883,2019-08-07 16:46:09:317
-6.4748,-7.0651,0.7084,-0.0971,-0.2586,0.0648,-0.0207,-0.0017,-0.0159,887,2019-08-07 16:46:09:321
-6.4748,-7.0651,0.7084,-0.0971,-0.2586,0.0648,-0.0207,-0.0017,-0.0159,893,2019-08-07 16:46:09:327
-6.3743,-7.0507,0.8027,-0.1328,-0.2467,-0.0021,-0.0186,-0.0347,-0.0223,898,2019-08-07 16:46:09:332
-6.3743,-7.0507,0.8027,-0.1328,-0.2467,-0.0021,-0.0186,-0.0347,-0.0223,903,2019-08-07 16:46:09:337
-6.3743,-7.0507,0.8027,-0.1328,-0.2467,-0.0021,-0.0186,-0.0624,-0.0276,907,2019-08-07 16:46:09:341
-6.3265,-7.0221,0.7508,-0.1328,-0.2467,-0.0021,-0.0186,-0.0624,-0.0276,912,2019-08-07 16:46:09:346
-6.3265,-7.0221,0.7508,-0.1328,-0.2467,-0.0021,-0.0175,-0.0731,-0.034,918,2019-08-07 16:46:09:352
-6.3265,-7.0221,0.7508,-0.2279,-0.2508,0.0928,-0.0175,-0.0731,-0.034,922,2019-08-07 16:46:09:356
-6.2643,-7.0698,0.7603,-0.2279,-0.2508,0.0928,-0.0175,-0.0645,-0.0383,928,2019-08-07 16:46:09:362
-6.2643,-7.0698,0.7603,-0.2279,-0.2508,0.0928,-0.0175,-0.0645,-0.0383,933,2019-08-07 16:46:09:367
-6.1782,-7.0412,0.7508,-0.2279,-0.2508,0.0928,-0.0175,-0.0645,-0.0383,937,2019-08-07 16:46:09:371
-6.1782,-7.0412,0.7508,-0.3117,-0.2662,0.0275,-0.0239,-0.0464,-0.0436,943,2019-08-07 16:46:09:377
-6.1877,-7.0842,0.765,-0.3117,-0.2662,0.0275,-0.0207,-0.0315,-0.0447,948,2019-08-07 16:46:09:382
-6.1877,-7.0842,0.765,-0.3117,-0.2662,0.0275,-0.0207,-0.0315,-0.0447,953,2019-08-07 16:46:09:387
-6.1877,-7.0842,0.765,-0.3117,-0.2662,0.0275,-0.0207,-0.0315,-0.0447,958,2019-08-07 16:46:09:392
-6.1829,-7.0794,0.7508,-0.304,-0.2347,0.0616,-0.0122,-0.0113,-0.0489,963,2019-08-07 16:46:09:397
-6.1829,-7.0794,0.7508,-0.304,-0.2347,0.0616,-0.0122,-0.0113,-0.0489,968,2019-08-07 16:46:09:402
-6.2355,-7.0889,0.8121,-0.304,-0.2347,0.0616,-0.0101,-0.007,-0.0489,973,2019-08-07 16:46:09:407
-6.2355,-7.0889,0.8121,-0.304,-0.2347,0.0616,-0.0101,-0.007,-0.0489,978,2019-08-07 16:46:09:412
-6.2355,-7.0889,0.8121,-0.263,-0.2461,0.0146,-0.0069,-0.0304,-0.0415,983,2019-08-07 16:46:09:417
-6.1973,-7.0555,0.8263,-0.263,-0.2461,0.0146,-0.0069,-0.0304,-0.0415,988,2019-08-07 16:46:09:422
-6.1973,-7.0555,0.8263,-0.263,-0.2461,0.0146,-0.0112,-0.0517,-0.0383,994,2019-08-07 16:46:09:428
-6.1351,-7.0412,0.798,-0.263,-0.2461,0.0146,-0.0112,-0.0517,-0.0383,998,2019-08-07 16:46:09:432
-6.1351,-7.0412,0.798,-0.3089,-0.2993,0.0146,-0.0133,-0.0624,-0.0319,1003,2019-08-07 16:46:09:437
-6.1351,-7.0412,0.798,-0.3089,-0.2993,0.0146,-0.0133,-0.0624,-0.0319,1008,2019-08-07 16:46:09:442
-6.025,-7.0221,0.8168,-0.3089,-0.2993,0.0146,-0.0143,-0.0667,-0.0202,1013,2019-08-07 16:46:09:447
-6.025,-7.0221,0.8168,-0.3089,-0.2993,0.0146,-0.0143,-0.0667,-0.0202,1017,2019-08-07 16:46:09:451
-6.0872,-7.1128,0.7791,-0.4191,-0.2693,0.0301,-0.0165,-0.0592,-0.0063,1023,2019-08-07 16:46:09:457
-6.0872,-7.1128,0.7791,-0.4191,-0.2693,0.0301,-0.0165,-0.0592,-0.0063,1027,2019-08-07 16:46:09:461
-6.0872,-7.1128,0.7791,-0.4191,-0.2693,0.0301,-0.0186,-0.0485,0.0022,1033,2019-08-07 16:46:09:467
-6.0537,-7.0842,0.7131,-0.4191,-0.2693,0.0301,-0.0186,-0.0485,0.0022,1038,2019-08-07 16:46:09:472
-6.0537,-7.0842,0.7131,-0.446,-0.2515,0.1699,-0.0165,-0.0283,0.0033,1043,2019-08-07 16:46:09:477
-6.0154,-7.1319,0.6849,-0.446,-0.2515,0.1699,-0.0165,-0.0283,0.0033,1048,2019-08-07 16:46:09:482
-6.0154,-7.1319,0.6849,-0.446,-0.2515,0.1699,-0.009,-0.0027,0.0043,1053,2019-08-07 16:46:09:487
-6.0154,-7.1319,0.6849,-0.446,-0.2515,0.1699,-0.009,-0.0027,0.0043,1058,2019-08-07 16:46:09:492
-6.1302,-7.0937,0.6424,-0.3401,-0.2093,0.1585,-0.0048,0.0196,-0.0021,1063,2019-08-07 16:46:09:497
-6.1302,-7.0937,0.6424,-0.3401,-0.2093,0.1585,-0.0048,0.0196,-0.0021,1068,2019-08-07 16:46:09:502
-6.2355,-7.0842,0.699,-0.3401,-0.2093,0.1585,6.0E-4,0.0281,-0.0074,1073,2019-08-07 16:46:09:507
-6.2355,-7.0842,0.699,-0.3401,-0.2093,0.1585,6.0E-4,0.0281,-0.0074,1078,2019-08-07 16:46:09:512
-6.2594,-7.0985,0.7084,-0.2152,-0.2627,0.1117,0.0038,0.0122,-0.001,1084,2019-08-07 16:46:09:518
-6.2594,-7.0985,0.7084,-0.2152,-0.2627,0.1117,0.0038,0.0122,-0.001,1087,2019-08-07 16:46:09:521
-6.2594,-7.0985,0.7084,-0.2152,-0.2627,0.1117,0.0038,0.0122,-0.001,1093,2019-08-07 16:46:09:527
-6.1781,-7.0603,0.798,-0.3011,-0.2487,0.1158,0.007,-0.0027,-0.0053,1097,2019-08-07 16:46:09:531
-6.1781,-7.0603,0.798,-0.3011,-0.2487,0.1158,0.007,-0.0027,-0.0053,1103,2019-08-07 16:46:09:537
-6.1781,-7.0603,0.798,-0.3011,-0.2487,0.1158,0.0112,-0.0219,1.0E-4,1108,2019-08-07 16:46:09:542
-6.1685,-7.1128,0.7226,-0.2955,-0.2682,0.0951,0.0112,-0.0219,1.0E-4,1113,2019-08-07 16:46:09:547
-6.1685,-7.1128,0.7226,-0.2955,-0.2682,0.0951,0.0133,-0.0294,0.0086,1118,2019-08-07 16:46:09:552
-6.1111,-7.1462,0.7697,-0.2955,-0.2682,0.0951,0.0133,-0.0294,0.0086,1123,2019-08-07 16:46:09:557
-6.1111,-7.1462,0.7697,-0.2955,-0.2682,0.0951,0.0133,-0.0294,0.0086,1128,2019-08-07 16:46:09:562
-6.1111,-7.1462,0.7697,-0.3772,-0.1813,0.0963,0.0165,-0.0368,0.0129,1133,2019-08-07 16:46:09:567
-6.1398,-7.1653,0.7462,-0.3772,-0.1813,0.0963,0.0165,-0.0368,0.0129,1138,2019-08-07 16:46:09:572
-6.1398,-7.1653,0.7462,-0.3772,-0.1813,0.0963,0.0176,-0.0272,0.0139,1143,2019-08-07 16:46:09:577
-6.0584,-7.108,0.6802,-0.3871,-0.2045,0.1512,0.0176,-0.0272,0.0139,1148,2019-08-07 16:46:09:582
-6.0584,-7.108,0.6802,-0.3871,-0.2045,0.1512,0.0176,-0.0272,0.0139,1153,2019-08-07 16:46:09:587
-6.0584,-7.108,0.6802,-0.3871,-0.2045,0.1512,0.0219,0.0015,0.0129,1158,2019-08-07 16:46:09:592
-6.111,-7.0508,0.7132,-0.3835,-0.2653,0.1205,0.0229,0.0324,0.0118,1163,2019-08-07 16:46:09:597
-6.111,-7.0508,0.7132,-0.3835,-0.2653,0.1205,0.0229,0.0324,0.0118,1168,2019-08-07 16:46:09:602
-6.111,-7.0508,0.7132,-0.3835,-0.2653,0.1205,0.0229,0.0324,0.0118,1172,2019-08-07 16:46:09:606
-6.1589,-7.0173,0.732,-0.3835,-0.2653,0.1205,0.0176,0.0516,0.0097,1178,2019-08-07 16:46:09:612
-6.1589,-7.0173,0.732,-0.2418,-0.2975,0.1076,0.0176,0.0516,0.0097,1184,2019-08-07 16:46:09:618
-6.1589,-7.0173,0.732,-0.2418,-0.2975,0.1076,0.0144,0.0495,0.0054,1188,2019-08-07 16:46:09:622
-6.2689,-7.0221,0.7697,-0.2418,-0.2975,0.1076,0.0144,0.0495,0.0054,1193,2019-08-07 16:46:09:627
-6.2689,-7.0221,0.7697,-0.2418,-0.2975,0.1076,0.0134,0.0271,0.0107,1198,2019-08-07 16:46:09:632
-6.2689,-7.0221,0.7697,-0.2418,-0.2975,0.1076,0.0134,0.0271,0.0107,1203,2019-08-07 16:46:09:637
-6.3134,-7.0649,0.8401,-0.1848,-0.2725,-0.0557,0.0134,0.0271,0.0107,1208,2019-08-07 16:46:09:642
-6.3134,-7.0649,0.8401,-0.1848,-0.2725,-0.0557,0.0208,0.0037,0.0171,1213,2019-08-07 16:46:09:647
-6.2226,-7.0315,0.8213,-0.1848,-0.2725,-0.0557,0.0208,0.0037,0.0171,1218,2019-08-07 16:46:09:652
-6.2226,-7.0315,0.8213,-0.1848,-0.2725,-0.0557,0.0176,-0.0059,0.0182,1223,2019-08-07 16:46:09:657
-6.2226,-7.0315,0.8213,-0.2545,-0.2889,0.0318,0.0176,-0.0059,0.0182,1228,2019-08-07 16:46:09:662
-6.1795,-7.0506,0.8024,-0.2545,-0.2889,0.0318,0.0187,-0.0113,0.0246,1234,2019-08-07 16:46:09:668
-6.1795,-7.0506,0.8024,-0.2545,-0.2889,0.0318,0.0187,-0.0113,0.0246,1239,2019-08-07 16:46:09:673
-6.1365,-7.0411,0.8118,-0.2545,-0.2889,0.0318,0.0187,-0.0113,0.0246,1243,2019-08-07 16:46:09:677
-6.1365,-7.0411,0.8118,-0.3152,-0.2903,0.0356,0.0176,5.0E-4,0.0278,1249,2019-08-07 16:46:09:683
-6.1365,-7.0411,0.8118,-0.3152,-0.2903,0.0356,0.0176,5.0E-4,0.0278,1253,2019-08-07 16:46:09:687
-6.1173,-6.9885,0.7741,-0.3152,-0.2903,0.0356,0.0219,0.0079,0.0299,1258,2019-08-07 16:46:09:692
-6.1173,-6.9885,0.7741,-0.3152,-0.2903,0.0356,0.0219,0.0079,0.0299,1264,2019-08-07 16:46:09:698
-6.0647,-6.9838,0.8024,-0.4152,-0.3339,0.0334,0.0123,0.0186,0.0373,1268,2019-08-07 16:46:09:702
-6.0647,-6.9838,0.8024,-0.4152,-0.3339,0.0334,0.0123,0.0186,0.0373,1273,2019-08-07 16:46:09:707
-6.0647,-6.9838,0.8024,-0.4152,-0.3339,0.0334,0.0123,0.0186,0.0373,1278,2019-08-07 16:46:09:712
-6.0695,-6.9599,0.7883,-0.4152,-0.3339,0.0334,0.0038,0.0367,0.0395,1283,2019-08-07 16:46:09:717
-6.0695,-6.9599,0.7883,-0.3063,-0.3098,0.0684,0.0038,0.0367,0.0395,1288,2019-08-07 16:46:09:722
-6.0695,-6.9599,0.7883,-0.3063,-0.3098,0.0684,0.0016,0.0484,0.0469,1293,2019-08-07 16:46:09:727
-6.1987,-7.0745,0.7505,-0.2716,-0.2831,0.0417,0.0016,0.0484,0.0469,1298,2019-08-07 16:46:09:732
-6.1987,-7.0745,0.7505,-0.2716,-0.2831,0.0417,0.0027,0.0463,0.0512,1303,2019-08-07 16:46:09:737
-6.237,-7.0697,0.7835,-0.2716,-0.2831,0.0417,0.0027,0.0463,0.0512,1308,2019-08-07 16:46:09:742
-6.237,-7.0697,0.7835,-0.2716,-0.2831,0.0417,0.0091,0.0377,0.0544,1313,2019-08-07 16:46:09:747
-6.2896,-7.0076,0.7977,-0.2561,-0.2715,0.0553,0.0091,0.0377,0.0544,1318,2019-08-07 16:46:09:752
-6.2896,-7.0076,0.7977,-0.2561,-0.2715,0.0553,0.0123,0.0271,0.0523,1322,2019-08-07 16:46:09:756
-6.2896,-7.0076,0.7977,-0.2125,-0.2678,0.0638,0.0123,0.0271,0.0523,1328,2019-08-07 16:46:09:762
-6.2801,-7.0315,0.7835,-0.2125,-0.2678,0.0638,0.0155,0.0175,0.0544,1334,2019-08-07 16:46:09:768
-6.2801,-7.0315,0.7835,-0.2125,-0.2678,0.0638,0.0155,0.0175,0.0544,1338,2019-08-07 16:46:09:772
-6.2801,-7.0315,0.7835,-0.2125,-0.2678,0.0638,0.0155,0.0175,0.0544,1343,2019-08-07 16:46:09:777
-6.2322,-6.9647,0.7977,-0.2786,-0.3269,0.0263,0.0197,0.0122,0.0608,1348,2019-08-07 16:46:09:782
-6.2322,-6.9647,0.7977,-0.2786,-0.3269,0.0263,0.0197,0.0122,0.0608,1352,2019-08-07 16:46:09:786
-6.2322,-6.9647,0.7977,-0.2786,-0.3269,0.0263,0.0176,0.0015,0.064,1358,2019-08-07 16:46:09:792
-6.1892,-6.9265,0.7364,-0.2786,-0.3269,0.0263,0.0176,0.0015,0.064,1364,2019-08-07 16:46:09:798
-6.1892,-6.9265,0.7364,-0.3503,-0.3707,0.0189,0.0165,-0.0038,0.0682,1368,2019-08-07 16:46:09:802
-6.1127,-6.9265,0.7977,-0.3503,-0.3707,0.0189,0.0165,-0.0038,0.0682,1373,2019-08-07 16:46:09:807
-6.1127,-6.9265,0.7977,-0.3503,-0.3707,0.0189,0.0134,-0.0123,0.0757,1379,2019-08-07 16:46:09:813
-6.1127,-6.9265,0.7977,-0.3503,-0.3707,0.0189,0.0134,-0.0123,0.0757,1383,2019-08-07 16:46:09:817
-6.0313,-6.8931,0.7835,-0.4759,-0.4036,0.0741,0.007,-0.0113,0.0949,1387,2019-08-07 16:46:09:821
-6.0313,-6.8931,0.7835,-0.4759,-0.4036,0.0741,0.007,-0.0113,0.0949,1393,2019-08-07 16:46:09:827
-5.9931,-6.9456,0.7835,-0.4759,-0.4036,0.0741,-5.0E-4,0.0026,0.1119,1399,2019-08-07 16:46:09:833
-5.9931,-6.9456,0.7835,-0.4759,-0.4036,0.0741,-5.0E-4,0.0026,0.1119,1402,2019-08-07 16:46:09:836
-5.9931,-6.9456,0.7835,-0.5475,-0.319,-0.0146,-5.0E-4,0.0026,0.1119,1408,2019-08-07 16:46:09:842
-5.9883,-6.8931,0.8401,-0.5475,-0.319,-0.0146,-0.0026,0.0068,0.1343,1413,2019-08-07 16:46:09:847
-5.9883,-6.8931,0.8401,-0.5475,-0.319,-0.0146,-0.0026,0.0068,0.1343,1419,2019-08-07 16:46:09:853
-5.9883,-6.8931,0.8401,-0.5475,-0.319,-0.0146,6.0E-4,0.0132,0.1673,1423,2019-08-07 16:46:09:857
-5.9596,-6.8358,0.8118,-0.6452,-0.3955,0.0833,6.0E-4,0.0132,0.1673,1428,2019-08-07 16:46:09:862
-5.9596,-6.8358,0.8118,-0.6452,-0.3955,0.0833,6.0E-4,0.0228,0.1875,1433,2019-08-07 16:46:09:867
-5.8974,-6.8119,0.7741,-0.6452,-0.3955,0.0833,6.0E-4,0.0228,0.1875,1438,2019-08-07 16:46:09:872
-5.8974,-6.8119,0.7741,-0.6452,-0.3955,0.0833,6.0E-4,0.0228,0.1875,1444,2019-08-07 16:46:09:878
-5.6486,-6.7403,0.6987,-0.9467,-0.4748,0.1259,-0.0069,0.0409,0.2227,1449,2019-08-07 16:46:09:883
-5.6486,-6.7403,0.6987,-0.9467,-0.4748,0.1259,-0.0069,0.0409,0.2227,1453,2019-08-07 16:46:09:887
-5.6486,-6.7403,0.6987,-0.9467,-0.4748,0.1259,-0.0111,0.0761,0.2738,1458,2019-08-07 16:46:09:892
-5.2898,-6.5159,0.7552,-0.9467,-0.4748,0.1259,-0.0111,0.0761,0.2738,1463,2019-08-07 16:46:09:897
-5.2898,-6.5159,0.7552,-1.3693,-0.7928,0.2077,-0.0037,0.1102,0.3409,1469,2019-08-07 16:46:09:903
-5.2898,-6.5159,0.7552,-1.3693,-0.7928,0.2077,-0.0037,0.1102,0.3409,1472,2019-08-07 16:46:09:906
-5.1033,-6.2486,0.7929,-1.3693,-0.7928,0.2077,0.0102,0.1496,0.4603,1478,2019-08-07 16:46:09:912
-5.1033,-6.2486,0.7929,-1.3693,-0.7928,0.2077,0.0102,0.1496,0.4603,1484,2019-08-07 16:46:09:918
-5.1033,-6.2486,0.7929,-1.6532,-1.1743,-0.1667,0.0102,0.1496,0.4603,1487,2019-08-07 16:46:09:921
-5.0507,-5.9049,1.0616,-1.6532,-1.1743,-0.1667,0.0123,0.1176,0.6073,1493,2019-08-07 16:46:09:927
-5.0507,-5.9049,1.0616,-1.6532,-1.1743,-0.1667,0.0123,0.1176,0.6073,1498,2019-08-07 16:46:09:932
-4.7971,-5.4752,1.2549,-1.7647,-1.4285,-0.4482,0.0059,0.0122,0.7521,1503,2019-08-07 16:46:09:937
-4.7971,-5.4752,1.2549,-1.7647,-1.4285,-0.4482,0.0059,0.0122,0.7521,1508,2019-08-07 16:46:09:942
-4.7971,-5.4752,1.2549,-1.7647,-1.4285,-0.4482,-0.0058,-0.0922,0.9109,1513,2019-08-07 16:46:09:947
-4.1895,-4.931,1.2266,-2.7856,-2.2113,-0.2832,-0.0058,-0.0922,0.9109,1519,2019-08-07 16:46:09:953
-4.1895,-4.931,1.2266,-2.7856,-2.2113,-0.2832,-0.0186,-0.1668,1.1505,1522,2019-08-07 16:46:09:956
-4.1895,-4.931,1.2266,-2.7856,-2.2113,-0.2832,-0.0186,-0.1668,1.1505,1528,2019-08-07 16:46:09:962
-2.8978,-3.6134,0.3687,-2.7856,-2.2113,-0.2832,-0.0133,-0.138,1.3423,1533,2019-08-07 16:46:09:967
-2.8978,-3.6134,0.3687,-5.4339,-4.0094,1.143,-0.0133,-0.138,1.3423,1538,2019-08-07 16:46:09:972
-2.8978,-3.6134,0.3687,-5.4339,-4.0094,1.143,-0.0133,-0.138,1.3423,1543,2019-08-07 16:46:09:977
-0.6157,-2.2672,-0.6071,-5.4339,-4.0094,1.143,0.0368,-0.0059,1.7631,1548,2019-08-07 16:46:09:982
-0.6157,-2.2672,-0.6071,-7.4068,-4.7337,1.2386,0.0368,-0.0059,1.7631,1553,2019-08-07 16:46:09:987
-0.6157,-2.2672,-0.6071,-7.4068,-4.7337,1.2386,0.2317,0.1134,2.3916,1558,2019-08-07 16:46:09:992
1.6185,-1.8471,0.3875,-8.8685,-4.7107,0.4301,0.2317,0.1134,2.3916,1563,2019-08-07 16:46:09:997
1.6185,-1.8471,0.3875,-8.8685,-4.7107,0.4301,0.4245,0.0026,3.0861,1568,2019-08-07 16:46:10:002
0.1162,-0.5295,2.9754,-8.8685,-4.7107,0.4301,0.4245,0.0026,3.0861,1573,2019-08-07 16:46:10:007
0.1162,-0.5295,2.9754,-8.8685,-4.7107,0.4301,0.4661,-0.6067,4.161,1578,2019-08-07 16:46:10:012
0.1162,-0.5295,2.9754,-7.5076,-6.1654,-1.8191,0.4661,-0.6067,4.161,1583,2019-08-07 16:46:10:017
0.4176,0.979,2.966,-7.5076,-6.1654,-1.8191,0.4661,-0.6067,4.161,1588,2019-08-07 16:46:10:022
0.4176,0.979,2.966,-7.5076,-6.1654,-1.8191,0.2903,-1.9202,5.6758,1593,2019-08-07 16:46:10:027
0.4176,0.979,2.966,-7.5076,-6.1654,-1.8191,0.2903,-1.9202,5.6758,1597,2019-08-07 16:46:10:031
1.5132,1.3084,2.0232,-10.1371,-6.4061,-0.3107,0.2562,-2.8949,6.5429,1603,2019-08-07 16:46:10:037
1.5132,1.3084,2.0232,-10.1371,-6.4061,-0.3107,0.2562,-2.8949,6.5429,1608,2019-08-07 16:46:10:042
3.6709,0.6114,0.1613,-12.1917,-5.1684,1.5315,0.4874,-4.2127,7.8574,1613,2019-08-07 16:46:10:047
3.6709,0.6114,0.1613,-12.1917,-5.1684,1.5315,0.4874,-4.2127,7.8574,1618,2019-08-07 16:46:10:052
3.6709,0.6114,0.1613,-12.1917,-5.1684,1.5315,0.4874,-4.2127,7.8574,1623,2019-08-07 16:46:10:057
6.0152,-0.0951,-1.4084,-12.1917,-5.1684,1.5315,1.199,-4.7762,9.0931,1628,2019-08-07 16:46:10:062
6.0152,-0.0951,-1.4084,-15.198,-2.9658,4.2897,1.199,-4.7762,9.0931,1633,2019-08-07 16:46:10:067
5.9147,0.1149,-2.0071,-15.198,-2.9658,4.2897,1.8403,-4.4545,9.6183,1638,2019-08-07 16:46:10:072
5.9147,0.1149,-2.0071,-15.198,-2.9658,4.2897,1.8403,-4.4545,9.6183,1643,2019-08-07 16:46:10:077
5.9147,0.1149,-2.0071,-15.198,-2.9658,4.2897,2.4645,-3.8888,9.9081,1647,2019-08-07 16:46:10:081
3.0154,0.9838,-0.6071,-12.1348,-2.0866,4.0506,2.4645,-3.8888,9.9081,1652,2019-08-07 16:46:10:086
3.0154,0.9838,-0.6071,-12.1348,-2.0866,4.0506,2.9908,-3.6854,10.0519,1658,2019-08-07 16:46:10:092
-1.6301,2.6928,1.7498,-8.4102,-2.4002,2.1598,2.9908,-3.6854,10.0519,1663,2019-08-07 16:46:10:097
-1.6301,2.6928,1.7498,-8.4102,-2.4002,2.1598,3.6065,-4.0699,10.2074,1668,2019-08-07 16:46:10:102
-1.6301,2.6928,1.7498,-8.4102,-2.4002,2.1598,3.6065,-4.0699,10.2074,1673,2019-08-07 16:46:10:107
-4.9025,3.9244,1.6697,-8.4102,-2.4002,2.1598,4.3245,-4.6302,10.4343,1678,2019-08-07 16:46:10:112
-4.9025,3.9244,1.6697,-2.678,-2.0639,2.6552,4.3245,-4.6302,10.4343,1683,2019-08-07 16:46:10:117
-4.9025,3.9244,1.6697,-2.678,-2.0639,2.6552,5.2491,-5.3078,10.527,1688,2019-08-07 16:46:10:122
-7.4908,5.2945,1.9242,-2.678,-2.0639,2.6552,5.2491,-5.3078,10.527,1693,2019-08-07 16:46:10:127
-7.4908,5.2945,1.9242,-2.678,-2.0639,2.6552,5.2491,-5.3078,10.527,1698,2019-08-07 16:46:10:132
-9.8255,8.8749,4.036,2.2396,-3.6142,1.4604,6.0523,-5.8798,10.3693,1703,2019-08-07 16:46:10:137
-9.8255,8.8749,4.036,2.2396,-3.6142,1.4604,6.0523,-5.8798,10.3693,1708,2019-08-07 16:46:10:142
-9.8255,8.8749,4.036,2.2396,-3.6142,1.4604,7.1432,-7.0857,10.0508,1713,2019-08-07 16:46:10:147
-9.6676,15.1095,6.3505,2.2396,-3.6142,1.4604,7.1432,-7.0857,10.0508,1718,2019-08-07 16:46:10:152
-9.6676,15.1095,6.3505,3.1658,-12.0716,-1.233,8.2723,-7.9496,9.3169,1723,2019-08-07 16:46:10:157
-9.6676,15.1095,6.3505,3.1658,-12.0716,-1.233,8.2723,-7.9496,9.3169,1728,2019-08-07 16:46:10:162
-5.6441,23.8981,5.4313,3.1658,-12.0716,-1.233,8.2723,-7.9496,9.3169,1733,2019-08-07 16:46:10:167
-5.6441,23.8981,5.4313,-0.1584,-18.699,-0.6509,8.87,-7.2274,8.5786,1738,2019-08-07 16:46:10:172
-5.6441,23.8981,5.4313,-0.1584,-18.699,-0.6509,8.87,-7.2274,8.5786,1743,2019-08-07 16:46:10:177
1.3313,37.7088,5.3417,-0.1584,-18.699,-0.6509,9.2854,-4.986,7.0734,1748,2019-08-07 16:46:10:182
1.3313,37.7088,5.3417,-2.8643,-32.3735,4.2036,9.2854,-4.986,7.0734,1753,2019-08-07 16:46:10:187
1.3313,37.7088,5.3417,-2.8643,-32.3735,4.2036,8.3022,-2.0939,5.8228,1758,2019-08-07 16:46:10:192
-2.9841,39.4799,-7.0509,-2.8643,-32.3735,4.2036,8.3022,-2.0939,5.8228,1763,2019-08-07 16:46:10:197
-2.9841,39.4799,-7.0509,-2.8643,-32.3735,4.2036,5.3311,0.6854,4.7021,1769,2019-08-07 16:46:10:203
-2.9841,39.4799,-7.0509,2.8369,-22.8479,13.1378,5.3311,0.6854,4.7021,1773,2019-08-07 16:46:10:207
-4.0941,30.4001,-10.1337,2.8369,-22.8479,13.1378,0.1572,1.5984,3.2672,1777,2019-08-07 16:46:10:211
-4.0941,30.4001,-10.1337,2.8369,-22.8479,13.1378,0.1572,1.5984,3.2672,1784,2019-08-07 16:46:10:218
-3.1516,21.7929,-2.4832,2.8369,-22.8479,13.1378,0.1572,1.5984,3.2672,1788,2019-08-07 16:46:10:222
-3.1516,21.7929,-2.4832,2.8369,-22.8479,13.1378,-3.4285,3.0919,1.6011,1793,2019-08-07 16:46:10:227
-3.1516,21.7929,-2.4832,2.4782,-8.972,-1.7595,-3.4285,3.0919,1.6011,1798,2019-08-07 16:46:10:232
-2.9267,18.4846,36.0475,2.4782,-8.972,-1.7595,-3.7705,5.1915,0.6808,1803,2019-08-07 16:46:10:237
-2.9267,18.4846,36.0475,2.4782,-8.972,-1.7595,-3.7705,5.1915,0.6808,1808,2019-08-07 16:46:10:242
-5.7877,9.6817,24.7673,4.7656,1.0377,-22.5135,1.3907,5.3023,-0.6817,1812,2019-08-07 16:46:10:246
-5.7877,9.6817,24.7673,4.7656,1.0377,-22.5135,1.3907,5.3023,-0.6817,1819,2019-08-07 16:46:10:253
-10.4571,11.0518,4.2575,4.7656,1.0377,-22.5135,2.0991,4.4756,-2.2381,1823,2019-08-07 16:46:10:257
-10.4571,11.0518,4.2575,4.7656,1.0377,-22.5135,2.0991,4.4756,-2.2381,1828,2019-08-07 16:46:10:262
-10.4571,11.0518,4.2575,12.0448,-9.0219,-3.33,0.3308,3.7481,-3.0317,1834,2019-08-07 16:46:10:268
-14.9304,19.5492,5.0966,12.0448,-9.0219,-3.33,0.3308,3.7481,-3.0317,1838,2019-08-07 16:46:10:272
-14.9304,19.5492,5.0966,12.0448,-9.0219,-3.33,0.3308,3.7481,-3.0317,1843,2019-08-07 16:46:10:277
-15.0452,17.9786,2.9377,12.0448,-9.0219,-3.33,-1.8104,1.6463,-2.8783,1848,2019-08-07 16:46:10:282
-15.0452,17.9786,2.9377,9.4834,-5.8729,-2.2432,-1.8104,1.6463,-2.8783,1853,2019-08-07 16:46:10:287
-15.0452,17.9786,2.9377,9.4834,-5.8729,-2.2432,-3.8195,1.5142,-2.58,1858,2019-08-07 16:46:10:292
-7.1991,11.238,15.5094,9.4834,-5.8729,-2.2432,-3.8195,1.5142,-2.58,1863,2019-08-07 16:46:10:297
-7.1991,11.238,15.5094,9.4834,-5.8729,-2.2432,-3.5936,1.4311,-3.1318,1869,2019-08-07 16:46:10:303
-7.1991,11.238,15.5094,3.4633,-0.1751,-14.8009,-3.5936,1.4311,-3.1318,1873,2019-08-07 16:46:10:307
-7.7732,8.7222,13.9821,3.4633,-0.1751,-14.8009,-1.4269,1.7486,-3.8775,1878,2019-08-07 16:46:10:312
-7.7732,8.7222,13.9821,3.4633,-0.1751,-14.8009,-1.4269,1.7486,-3.8775,1883,2019-08-07 16:46:10:317
-7.7732,8.7222,13.9821,5.582,-1.6494,-1.5256,-1.7102,2.2247,-4.5465,1888,2019-08-07 16:46:10:322
-9.1128,12.9136,2.537,5.582,-1.6494,-1.5256,-1.7102,2.2247,-4.5465,1893,2019-08-07 16:46:10:327
-9.1128,12.9136,2.537,5.582,-1.6494,-1.5256,-1.7102,2.2247,-5.1377,1898,2019-08-07 16:46:10:332
-8.5292,13.897,1.203,3.7495,-6.0137,2.1503,-2.4762,2.5784,-5.1377,1903,2019-08-07 16:46:10:337
-8.5292,13.897,1.203,3.7495,-6.0137,2.1503,-2.4762,2.5784,-5.1377,1908,2019-08-07 16:46:10:342
-8.5292,13.897,1.203,3.7495,-6.0137,2.1503,-3.1505,3.3731,-5.8877,1913,2019-08-07 16:46:10:347
-10.218,11.9588,3.9228,3.7495,-6.0137,2.1503,-3.1505,3.3731,-5.8877,1918,2019-08-07 16:46:10:352
-10.218,11.9588,3.9228,3.7495,-6.0137,2.1503,-3.3838,4.27,-6.5971,1922,2019-08-07 16:46:10:356
-10.218,11.9588,3.9228,5.96,-3.7989,-2.1985,-3.3838,4.27,-6.5971,1928,2019-08-07 16:46:10:362
-12.6819,10.1448,6.1949,5.96,-3.7989,-2.1985,-2.9097,4.8655,-6.9007,1933,2019-08-07 16:46:10:367
-12.6819,10.1448,6.1949,5.96,-3.7989,-2.1985,-2.9097,4.8655,-6.9007,1938,2019-08-07 16:46:10:372
-13.5526,7.691,5.1767,5.96,-3.7989,-2.1985,-2.9097,4.8655,-6.9007,1943,2019-08-07 16:46:10:377
-13.5526,7.691,5.1767,6.5236,-1.4776,-1.4937,-2.0628,5.1244,-7.2501,1948,2019-08-07 16:46:10:382
-13.5526,7.691,5.1767,6.5236,-1.4776,-1.4937,-2.0628,5.1244,-7.2501,1953,2019-08-07 16:46:10:387
-14.2799,6.2493,3.2582,6.5236,-1.4776,-1.4937,-2.0628,5.1244,-7.2501,1958,2019-08-07 16:46:10:392
-14.2799,6.2493,3.2582,6.5236,-1.4776,-1.4937,-1.8178,4.6439,-7.5292,1963,2019-08-07 16:46:10:397
-14.8157,5.0559,2.5511,6.4202,-0.7159,0.013,-1.8178,4.6439,-7.5292,1968,2019-08-07 16:46:10:402
-14.8157,5.0559,2.5511,6.4202,-0.7159,0.013,-2.0607,3.5648,-7.4195,1973,2019-08-07 16:46:10:407
-14.8157,5.0559,2.5511,6.4202,-0.7159,0.013,-2.0607,3.5648,-7.4195,1978,2019-08-07 16:46:10:412
-14.0359,4.0581,3.7484,6.4202,-0.7159,0.013,-2.1779,2.5922,-7.1894,1983,2019-08-07 16:46:10:417
-14.0359,4.0581,3.7484,4.0015,-0.5888,-2.9601,-2.1779,2.5922,-7.1894,1988,2019-08-07 16:46:10:422
-14.0359,4.0581,3.7484,4.0015,-0.5888,-2.9601,-2.1779,2.5922,-7.1894,1992,2019-08-07 16:46:10:426
-11.285,3.1559,5.9262,4.0015,-0.5888,-2.9601,-1.9382,1.6548,-6.9689,1998,2019-08-07 16:46:10:432
-11.285,3.1559,5.9262,4.0015,-0.5888,-2.9601,-1.9382,1.6548,-6.9689,2003,2019-08-07 16:46:10:437
-7.9791,2.1677,3.6117,-1.0483,-0.419,-2.2632,-1.2224,1.0242,-6.7793,2008,2019-08-07 16:46:10:442
-7.9791,2.1677,3.6117,-1.0483,-0.419,-2.2632,-1.2224,1.0242,-6.7793,2013,2019-08-07 16:46:10:447
-7.9791,2.1677,3.6117,-1.0483,-0.419,-2.2632,-1.0018,0.6556,-6.612,2018,2019-08-07 16:46:10:452
-5.8931,2.2871,0.4063,-1.0483,-0.419,-2.2632,-1.0018,0.6556,-6.612,2023,2019-08-07 16:46:10:457
-5.8931,2.2871,0.4063,-4.6005,-1.875,1.8841,-0.9933,0.6055,-6.4576,2028,2019-08-07 16:46:10:462
-4.0034,2.2966,0.4252,-4.6005,-1.875,1.8841,-0.9933,0.6055,-6.4576,2034,2019-08-07 16:46:10:468
-4.0034,2.2966,0.4252,-4.6005,-1.875,1.8841,-0.8218,0.9603,-6.367,2038,2019-08-07 16:46:10:472
-4.0034,2.2966,0.4252,-4.6005,-1.875,1.8841,-0.8218,0.9603,-6.367,2043,2019-08-07 16:46:10:477
-3.7594,1.5996,0.8494,-5.881,-2.3594,0.8004,-0.5161,1.2415,-6.2456,2048,2019-08-07 16:46:10:482
-3.7594,1.5996,0.8494,-5.881,-2.3594,0.8004,-0.5161,1.2415,-6.2456,2052,2019-08-07 16:46:10:486
-4.0799,0.8263,0.1895,-5.881,-2.3594,0.8004,-0.2945,1.4652,-6.0389,2058,2019-08-07 16:46:10:492
-4.0799,0.8263,0.1895,-5.881,-2.3594,0.8004,-0.2945,1.4652,-6.0389,2063,2019-08-07 16:46:10:497
-4.0799,0.8263,0.1895,-5.2584,-2.4014,1.5205,-0.1475,1.6878,-5.7896,2068,2019-08-07 16:46:10:502
-4.3431,0.2773,-0.1688,-5.2584,-2.4014,1.5205,-0.1475,1.6878,-5.7896,2072,2019-08-07 16:46:10:506
-4.3431,0.2773,-0.1688,-5.2584,-2.4014,1.5205,0.089,1.9478,-5.5691,2078,2019-08-07 16:46:10:512
-4.4484,0.1006,0.7645,-5.2584,-2.4014,1.5205,0.089,1.9478,-5.5691,2083,2019-08-07 16:46:10:517
-4.4484,0.1006,0.7645,-4.7107,-3.0431,0.2565,0.089,1.9478,-5.5691,2088,2019-08-07 16:46:10:522
-4.4484,0.1006,0.7645,-4.7107,-3.0431,0.2565,0.4469,1.9605,-5.2698,2093,2019-08-07 16:46:10:527
-4.8407,0.0768,0.4487,-4.7107,-3.0431,0.2565,0.4469,1.9605,-5.2698,2098,2019-08-07 16:46:10:532
-4.8407,0.0768,0.4487,-4.7107,-3.0431,0.2565,0.6131,1.9339,-4.9747,2103,2019-08-07 16:46:10:537
-4.8407,0.0768,0.4487,-3.8285,-3.7634,0.5712,0.6131,1.9339,-4.9747,2108,2019-08-07 16:46:10:542
-5.2856,-0.2287,0.1517,-3.8285,-3.7634,0.5712,0.6877,1.8817,-4.7574,2113,2019-08-07 16:46:10:547
-5.2856,-0.2287,0.1517,-3.8285,-3.7634,0.5712,0.6877,1.8817,-4.7574,2118,2019-08-07 16:46:10:552
-5.2856,-0.2287,0.1517,-3.8285,-3.7634,0.5712,0.7878,1.6676,-4.4187,2123,2019-08-07 16:46:10:557
-6.5726,-0.3003,0.7504,-1.8541,-4.4926,-0.4789,0.7878,1.6676,-4.4187,2128,2019-08-07 16:46:10:562
-6.5726,-0.3003,0.7504,-1.8541,-4.4926,-0.4789,0.7793,1.2766,-4.114,2134,2019-08-07 16:46:10:568
-6.8692,-0.2335,1.1511,-1.8541,-4.4926,-0.4789,0.7793,1.2766,-4.114,2137,2019-08-07 16:46:10:571
-6.8692,-0.2335,1.1511,-1.8541,-4.4926,-0.4789,0.7793,1.2766,-4.114,2143,2019-08-07 16:46:10:577
-6.0368,-0.6488,0.807,-2.1886,-4.6863,-0.4659,0.71,0.7089,-3.7646,2148,2019-08-07 16:46:10:582
-6.0368,-0.6488,0.807,-2.1886,-4.6863,-0.4659,0.5971,0.2529,-3.3662,2153,2019-08-07 16:46:10:587
-6.0368,-0.6488,0.807,-2.1886,-4.6863,-0.4659,0.5971,0.2529,-3.3662,2158,2019-08-07 16:46:10:592
-4.6876,-1.4604,0.9908,-2.1886,-4.6863,-0.4659,0.5971,0.2529,-3.3662,2163,2019-08-07 16:46:10:597
-4.6876,-1.4604,0.9908,-3.598,-4.1522,-0.4489,0.5343,-0.0166,-3.0583,2168,2019-08-07 16:46:10:602
-4.6876,-1.4604,0.9908,-3.598,-4.1522,-0.4489,0.5343,-0.0166,-3.0583,2173,2019-08-07 16:46:10:607
-3.8887,-1.9378,0.5807,-3.598,-4.1522,-0.4489,0.4874,-0.2083,-2.7228,2178,2019-08-07 16:46:10:612
-3.8887,-1.9378,0.5807,-3.598,-4.1522,-0.4489,0.4874,-0.2083,-2.7228,2183,2019-08-07 16:46:10:617
-3.3959,-2.4342,0.1612,-4.1449,-3.8223,0.3156,0.432,-0.2776,-2.3808,2188,2019-08-07 16:46:10:622
-3.3959,-2.4342,0.1612,-4.1449,-3.8223,0.3156,0.432,-0.2776,-2.3808,2193,2019-08-07 16:46:10:627
-3.3959,-2.4342,0.1612,-4.1449,-3.8223,0.3156,0.3702,-0.3031,-2.0857,2198,2019-08-07 16:46:10:632
-3.5921,-2.8687,0.444,-4.1449,-3.8223,0.3156,0.3702,-0.3031,-2.0857,2203,2019-08-07 16:46:10:637
-3.5921,-2.8687,0.444,-3.6331,-3.5274,0.2411,0.2893,-0.3426,-1.7246,2208,2019-08-07 16:46:10:642
-3.5921,-2.8687,0.444,-3.6331,-3.5274,0.2411,0.2893,-0.3426,-1.7246,2212,2019-08-07 16:46:10:646
-3.6351,-3.2553,0.1187,-3.6331,-3.5274,0.2411,0.2104,-0.3213,-1.4668,2218,2019-08-07 16:46:10:652
-3.6351,-3.2553,0.1187,-3.6331,-3.5274,0.2411,0.2104,-0.3213,-1.4668,2223,2019-08-07 16:46:10:657
-3.6639,-3.7232,0.1941,-3.3585,-2.9276,0.3947,0.155,-0.2786,-1.3017,2227,2019-08-07 16:46:10:661
-3.6639,-3.7232,0.1941,-3.3585,-2.9276,0.3947,0.155,-0.2786,-1.3017,2234,2019-08-07 16:46:10:668
-3.6639,-3.7232,0.1941,-3.3585,-2.9276,0.3947,0.0794,-0.1785,-1.062,2238,2019-08-07 16:46:10:672
-3.7643,-4.2913,-0.1217,-3.3585,-2.9276,0.3947,0.0794,-0.1785,-1.062,2243,2019-08-07 16:46:10:677
-3.7643,-4.2913,-0.1217,-3.3585,-2.9276,0.3947,0.0794,-0.1785,-1.062,2248,2019-08-07 16:46:10:682
-4.0466,-4.6732,-0.15,-3.0007,-2.4352,0.861,0.0251,-0.0549,-0.9054,2253,2019-08-07 16:46:10:687
-4.0466,-4.6732,-0.15,-3.0007,-2.4352,0.861,0.0251,-0.0549,-0.9054,2257,2019-08-07 16:46:10:691
-4.0466,-4.6732,-0.15,-3.0007,-2.4352,0.861,-0.0197,0.1017,-0.7307,2263,2019-08-07 16:46:10:697
-4.1949,-4.95,-0.0887,-2.4852,-1.9179,0.7137,-0.0197,0.1017,-0.7307,2268,2019-08-07 16:46:10:702
-4.1949,-4.95,-0.0887,-2.4852,-1.9179,0.7137,-0.0335,0.221,-0.5976,2272,2019-08-07 16:46:10:706
-4.5011,-5.2365,0.1329,-2.4852,-1.9179,0.7137,-0.0335,0.221,-0.5976,2278,2019-08-07 16:46:10:712
-4.5011,-5.2365,0.1329,-2.4852,-1.9179,0.7137,-0.0335,0.221,-0.5976,2283,2019-08-07 16:46:10:717
-4.5011,-5.2365,0.1329,-2.4852,-1.9179,0.7137,-0.0346,0.3147,-0.4697,2288,2019-08-07 16:46:10:722
-5.0992,-5.6661,0.2931,-1.7324,-1.5481,0.3567,-0.0346,0.3147,-0.4697,2293,2019-08-07 16:46:10:727
-5.0992,-5.6661,0.2931,-1.7324,-1.5481,0.3567,-0.0346,0.3147,-0.4697,2297,2019-08-07 16:46:10:731
-5.0992,-5.6661,0.2931,-1.7324,-1.5481,0.3567,-0.0303,0.3499,-0.2737,2303,2019-08-07 16:46:10:737
-5.8312,-5.9955,0.4958,-1.7324,-1.5481,0.3567,-0.0303,0.3499,-0.2737,2308,2019-08-07 16:46:10:742
-5.8312,-5.9955,0.4958,-0.5899,-1.0002,-0.0529,-0.0165,0.2614,-0.1821,2313,2019-08-07 16:46:10:747
-6.257,-6.2772,0.7362,-0.5899,-1.0002,-0.0529,-0.0165,0.2614,-0.1821,2318,2019-08-07 16:46:10:752
-6.257,-6.2772,0.7362,-0.5899,-1.0002,-0.0529,-0.0069,0.0686,-0.0724,2322,2019-08-07 16:46:10:756
-6.2427,-6.6065,0.5618,-0.5899,-1.0002,-0.0529,-0.0069,0.0686,-0.0724,2328,2019-08-07 16:46:10:762
-6.2427,-6.6065,0.5618,-0.4575,-0.5505,-0.0188,-0.0133,-0.0283,-0.0095,2333,2019-08-07 16:46:10:767
-6.2427,-6.6065,0.5618,-0.4575,-0.5505,-0.0188,-0.0133,-0.0283,-0.0095,2338,2019-08-07 16:46:10:772
-6.2379,-6.6686,0.8352,-0.4575,-0.5505,-0.0188,-0.0133,-0.0283,-0.0095,2343,2019-08-07 16:46:10:777
-6.2379,-6.6686,0.8352,-0.4575,-0.5505,-0.0188,-0.009,-0.0869,0.0501,2348,2019-08-07 16:46:10:782
-6.1948,-6.7498,0.9813,-0.4799,-0.4178,-0.4238,-0.009,-0.0869,0.0501,2353,2019-08-07 16:46:10:787
-6.1948,-6.7498,0.9813,-0.4799,-0.4178,-0.4238,-0.0101,-0.1348,0.1204,2358,2019-08-07 16:46:10:792
-6.1948,-6.7498,0.9813,-0.4799,-0.4178,-0.4238,-0.0101,-0.1348,0.1204,2363,2019-08-07 16:46:10:797
-6.1087,-6.8691,0.8729,-0.4799,-0.4178,-0.4238,-0.0271,-0.1391,0.1471,2368,2019-08-07 16:46:10:802
-6.1087,-6.8691,0.8729,-0.611,-0.2436,-0.1796,-0.0271,-0.1391,0.1471,2373,2019-08-07 16:46:10:807
-6.08,-6.9359,0.9295,-0.611,-0.2436,-0.1796,-0.0633,-0.0933,0.1716,2377,2019-08-07 16:46:10:811
-6.08,-6.9359,0.9295,-0.593,-0.1855,-0.3408,-0.0633,-0.0933,0.1716,2384,2019-08-07 16:46:10:818
-6.08,-6.9359,0.9295,-0.593,-0.1855,-0.3408,-0.0601,-0.0432,0.1865,2388,2019-08-07 16:46:10:822
-6.1327,-7.0601,0.9389,-0.593,-0.1855,-0.3408,-0.0601,-0.0432,0.1865,2393,2019-08-07 16:46:10:827
-6.1327,-7.0601,0.9389,-0.593,-0.1855,-0.3408,-0.0655,0.025,0.195,2399,2019-08-07 16:46:10:833
-6.2906,-7.1126,0.5854,-0.4603,0.0479,-0.0248,-0.0655,0.025,0.195,2403,2019-08-07 16:46:10:837
-6.2906,-7.1126,0.5854,-0.4603,0.0479,-0.0248,-0.0655,0.025,0.195,2408,2019-08-07 16:46:10:842
-6.2906,-7.1126,0.5854,-0.4603,0.0479,-0.0248,-0.0719,0.1091,0.1822,2412,2019-08-07 16:46:10:846
-6.5154,-7.1412,0.953,-0.4603,0.0479,-0.0248,-0.0719,0.1091,0.1822,2418,2019-08-07 16:46:10:852
-6.5154,-7.1412,0.953,-0.0266,0.0752,-0.4431,-0.0452,0.1517,0.1503,2423,2019-08-07 16:46:10:857
-6.9173,-7.1269,0.7692,-0.0266,0.0752,-0.4431,-0.0431,0.1485,0.1343,2428,2019-08-07 16:46:10:862
-6.9173,-7.1269,0.7692,-0.0266,0.0752,-0.4431,-0.0431,0.1485,0.1343,2433,2019-08-07 16:46:10:867
-6.9173,-7.1269,0.7692,-0.0266,0.0752,-0.4431,-0.0431,0.1485,0.1343,2438,2019-08-07 16:46:10:872
-6.9173,-7.1269,0.7692,0.431,0.1075,-0.1468,-0.0431,0.1485,0.1343,2442,2019-08-07 16:46:10:876
-7.2044,-7.1842,0.6749,0.431,0.1075,-0.1468,-0.0474,0.0942,0.0938,2448,2019-08-07 16:46:10:882
-7.2044,-7.1842,0.6749,0.431,0.1075,-0.1468,-0.0452,-0.024,0.0437,2453,2019-08-07 16:46:10:887
-7.3001,-7.2987,0.8493,0.431,0.1075,-0.1468,-0.0452,-0.024,0.0437,2458,2019-08-07 16:46:10:892
-7.3001,-7.2987,0.8493,0.4547,0.1547,-0.2852,-0.0452,-0.024,0.0437,2464,2019-08-07 16:46:10:898
-7.1661,-7.1794,0.7315,0.4547,0.1547,-0.2852,-0.0463,-0.1306,0.015,2468,2019-08-07 16:46:10:902
-7.1661,-7.1794,0.7315,0.4547,0.1547,-0.2852,-0.0463,-0.1306,0.015,2473,2019-08-07 16:46:10:907
-7.1661,-7.1794,0.7315,0.4547,0.1547,-0.2852,-0.0591,-0.2179,0.0086,2478,2019-08-07 16:46:10:912
-6.903,-7.1507,0.3968,0.0476,0.1468,0.0427,-0.0591,-0.2179,0.0086,2483,2019-08-07 16:46:10:917
-6.903,-7.1507,0.3968,0.0476,0.1468,0.0427,-0.0516,-0.2712,-0.0149,2488,2019-08-07 16:46:10:922
-6.6877,-7.2033,0.5853,0.0476,0.1468,0.0427,-0.0516,-0.2712,-0.0149,2495,2019-08-07 16:46:10:929
-6.6877,-7.2033,0.5853,0.0476,0.1468,0.0427,-0.042,-0.2776,-0.0244,2498,2019-08-07 16:46:10:932
-6.6877,-7.2033,0.5853,-0.3001,0.1049,0.1008,-0.042,-0.2776,-0.0244,2504,2019-08-07 16:46:10:938
-6.6877,-7.2033,0.5853,-0.3001,0.1049,0.1008,-0.042,-0.2776,-0.0244,2508,2019-08-07 16:46:10:942
-6.2859,-7.103,0.4251,-0.3001,0.1049,0.1008,-0.0356,-0.2659,-0.0202,2513,2019-08-07 16:46:10:947
-6.2859,-7.103,0.4251,-0.3001,0.1049,0.1008,-0.0356,-0.2659,-0.0202,2519,2019-08-07 16:46:10:953
-6.1136,-6.9884,0.2271,-0.618,-0.0576,0.4382,-0.0463,-0.187,-0.0031,2524,2019-08-07 16:46:10:958
-6.1136,-6.9884,0.2271,-0.618,-0.0576,0.4382,-0.0463,-0.187,-0.0031,2528,2019-08-07 16:46:10:962
-6.1136,-6.9884,0.2271,-0.618,-0.0576,0.4382,-0.0325,-0.1423,0.0075,2533,2019-08-07 16:46:10:967
-6.085,-6.9455,0.4675,-0.618,-0.0576,0.4382,-0.0325,-0.1423,0.0075,2538,2019-08-07 16:46:10:972
-6.085,-6.9455,0.4675,-0.618,-0.0576,0.4382,-0.0325,-0.1423,0.0075,2543,2019-08-07 16:46:10:977
-6.085,-6.9455,0.4675,-0.6719,-0.1839,0.2354,-0.0122,-0.1029,0.0128,2548,2019-08-07 16:46:10:982
-6.1519,-6.7879,0.2035,-0.6719,-0.1839,0.2354,-0.0122,-0.1029,0.0128,2553,2019-08-07 16:46:10:987
-6.1519,-6.7879,0.2035,-0.6719,-0.1839,0.2354,-0.0133,-0.0379,0.031,2558,2019-08-07 16:46:10:992
-6.3223,-6.7022,0.1568,-0.446,-0.3726,0.4552,-0.0133,-0.0379,0.031,2562,2019-08-07 16:46:10:996
-6.3223,-6.7022,0.1568,-0.446,-0.3726,0.4552,-0.009,0.0047,0.0363,2569,2019-08-07 16:46:11:003
-6.3223,-6.7022,0.1568,-0.446,-0.3726,0.4552,-0.009,0.0047,0.0363,2572,2019-08-07 16:46:11:006
-6.6285,-6.7308,0.449,-0.446,-0.3726,0.4552,0.0123,0.0111,0.0203,2578,2019-08-07 16:46:11:012
-6.6285,-6.7308,0.449,-0.446,-0.3726,0.4552,0.0123,0.0111,0.0203,2583,2019-08-07 16:46:11:017
-6.6285,-6.7308,0.449,-0.0106,-0.3778,0.2789,0.0048,-0.0294,0.0246,2588,2019-08-07 16:46:11:022
-6.7576,-6.6019,0.2133,-0.0106,-0.3778,0.2789,0.0048,-0.0294,0.0246,2592,2019-08-07 16:46:11:026
-6.7576,-6.6019,0.2133,-0.0106,-0.3778,0.2789,0.0048,-0.0294,0.0246,2598,2019-08-07 16:46:11:032
-6.6189,-6.7261,0.1756,-0.1585,-0.34,0.4367,-0.0058,-0.0517,0.0267,2603,2019-08-07 16:46:11:037
-6.6189,-6.7261,0.1756,-0.1585,-0.34,0.4367,-0.0058,-0.0517,0.0267,2608,2019-08-07 16:46:11:042
-6.6189,-6.7261,0.1756,-0.1585,-0.34,0.4367,-0.0101,-0.0528,0.0086,2613,2019-08-07 16:46:11:047
-6.638,-6.8263,0.3218,-0.14,-0.2389,0.2924,-0.0101,-0.0528,0.0086,2618,2019-08-07 16:46:11:052
-6.638,-6.8263,0.3218,-0.14,-0.2389,0.2924,-0.0026,-0.0699,-0.001,2623,2019-08-07 16:46:11:057
-6.4466,-6.8884,0.3783,-0.14,-0.2389,0.2924,-0.0026,-0.0699,-0.001,2628,2019-08-07 16:46:11:062
-6.4466,-6.8884,0.3783,-0.4024,-0.196,0.3133,-0.0016,-0.0677,0.0075,2634,2019-08-07 16:46:11:068
-6.4466,-6.8884,0.3783,-0.4024,-0.196,0.3133,-0.0016,-0.0677,0.0075,2637,2019-08-07 16:46:11:071
-6.3653,-6.8884,0.2982,-0.4024,-0.196,0.3133,-0.0016,-0.0677,0.0075,2643,2019-08-07 16:46:11:077
-6.3653,-6.8884,0.2982,-0.4024,-0.196,0.3133,-0.0112,-0.0635,0.0097,2649,2019-08-07 16:46:11:083
-6.3653,-6.8884,0.2982,-0.4024,-0.196,0.3133,-0.0112,-0.0635,0.0097,2653,2019-08-07 16:46:11:087
-6.3844,-6.9695,0.4443,-0.3923,-0.0959,0.1819,-0.0175,-0.0709,0.015,2658,2019-08-07 16:46:11:092
-6.3844,-6.9695,0.4443,-0.3923,-0.0959,0.1819,-0.0175,-0.0709,0.015,2662,2019-08-07 16:46:11:096
-6.2935,-6.8788,0.3548,-0.4833,-0.1862,0.2744,-0.0175,-0.0699,0.0235,2668,2019-08-07 16:46:11:102
-6.2935,-6.8788,0.3548,-0.4833,-0.1862,0.2744,-0.0175,-0.0699,0.0235,2673,2019-08-07 16:46:11:107
-6.2935,-6.8788,0.3548,-0.4833,-0.1862,0.2744,-0.0197,-0.0411,0.0246,2678,2019-08-07 16:46:11:112
-6.193,-6.8979,0.3831,-0.5416,-0.1803,0.3193,-0.0197,-0.0411,0.0246,2683,2019-08-07 16:46:11:117
-6.193,-6.8979,0.3831,-0.5416,-0.1803,0.3193,-0.025,0.0036,0.0086,2688,2019-08-07 16:46:11:122
-6.193,-6.8979,0.3831,-0.5416,-0.1803,0.3193,-0.025,0.0036,0.0086,2693,2019-08-07 16:46:11:127
-6.3653,-6.8406,0.2181,-0.3218,-0.2282,0.3295,-0.025,0.0036,0.0086,2698,2019-08-07 16:46:11:132
-6.3653,-6.8406,0.2181,-0.3218,-0.2282,0.3295,-0.042,0.0377,-0.0031,2703,2019-08-07 16:46:11:137
-6.4897,-6.8693,0.4868,-0.3218,-0.2282,0.3295,-0.042,0.0377,-0.0031,2709,2019-08-07 16:46:11:143
-6.4897,-6.8693,0.4868,-0.3218,-0.2282,0.3295,-0.041,0.0516,-0.0159,2713,2019-08-07 16:46:11:147
-6.4897,-6.8693,0.4868,-0.2109,-0.1013,0.0902,-0.041,0.0516,-0.0159,2718,2019-08-07 16:46:11:152
-6.6093,-6.9218,0.4868,-0.2109,-0.1013,0.0902,-0.0442,0.0367,-0.0276,2723,2019-08-07 16:46:11:157
-6.6093,-6.9218,0.4868,-0.171,-0.1559,0.1072,-0.0442,0.0367,-0.0276,2727,2019-08-07 16:46:11:161
-6.6332,-6.8836,0.4585,-0.171,-0.1559,0.1072,-0.0548,0.0143,-0.0191,2733,2019-08-07 16:46:11:167
-6.6332,-6.8836,0.4585,-0.171,-0.1559,0.1072,-0.0548,0.0143,-0.0191,2738,2019-08-07 16:46:11:172
-6.6332,-6.8836,0.4585,-0.171,-0.1559,0.1072,-0.0548,0.0143,-0.0191,2743,2019-08-07 16:46:11:177
-6.547,-6.9027,0.6329,-0.2066,-0.1832,-0.0106,-0.0602,-0.0294,-0.017,2747,2019-08-07 16:46:11:181
-6.547,-6.9027,0.6329,-0.2066,-0.1832,-0.0106,-0.0602,-0.0294,-0.017,2753,2019-08-07 16:46:11:187
-6.547,-6.9027,0.6329,-0.2066,-0.1832,-0.0106,-0.0484,-0.0741,-0.001,2758,2019-08-07 16:46:11:192
-6.4322,-6.9027,0.4538,-0.2066,-0.1832,-0.0106,-0.0484,-0.0741,-0.001,2763,2019-08-07 16:46:11:197
-6.4322,-6.9027,0.4538,-0.4388,-0.1899,0.1935,-0.0431,-0.0699,0.0107,2768,2019-08-07 16:46:11:202
-6.3413,-6.9266,0.4443,-0.4388,-0.1899,0.1935,-0.0431,-0.0699,0.0107,2773,2019-08-07 16:46:11:207
-6.3413,-6.9266,0.4443,-0.4388,-0.1899,0.1935,-0.0346,-0.0517,0.0171,2778,2019-08-07 16:46:11:212
-6.3413,-6.9266,0.4443,-0.4388,-0.1899,0.1935,-0.0346,-0.0517,0.0171,2783,2019-08-07 16:46:11:217
-6.2648,-6.9409,0.3878,-0.506,-0.1324,0.2131,-0.0197,-0.0081,0.0203,2788,2019-08-07 16:46:11:222
-6.2648,-6.9409,0.3878,-0.506,-0.1324,0.2131,-0.0197,-0.0081,0.0203,2793,2019-08-07 16:46:11:227
-6.2647,-6.9648,0.2746,-0.506,-0.1324,0.2131,-0.0037,0.0388,0.0288,2799,2019-08-07 16:46:11:233
-6.2647,-6.9648,0.2746,-0.506,-0.1324,0.2131,-0.0037,0.0388,0.0288,2803,2019-08-07 16:46:11:237
-6.2647,-6.9648,0.2746,-0.4749,-0.0592,0.1489,-0.0037,0.0388,0.0288,2808,2019-08-07 16:46:11:242
-6.3126,-6.9934,0.4632,-0.4749,-0.0592,0.1489,0.0176,0.1027,0.0235,2813,2019-08-07 16:46:11:247
-6.3126,-6.9934,0.4632,-0.3427,-0.1105,0.0252,0.0176,0.1027,0.0235,2818,2019-08-07 16:46:11:252
-6.3126,-6.9934,0.4632,-0.3427,-0.1105,0.0252,0.0187,0.107,0.0278,2823,2019-08-07 16:46:11:257
-6.5326,-6.8502,0.5056,-0.3427,-0.1105,0.0252,0.0187,0.107,0.0278,2828,2019-08-07 16:46:11:262
-6.5326,-6.8502,0.5056,-0.3427,-0.1105,0.0252,0.0133,0.0921,0.0352,2833,2019-08-07 16:46:11:267
-6.6714,-6.9361,0.5669,-0.109,-0.1301,0.0086,0.0133,0.0921,0.0352,2838,2019-08-07 16:46:11:272
-6.6714,-6.9361,0.5669,-0.109,-0.1301,0.0086,0.0133,0.0921,0.0352,2843,2019-08-07 16:46:11:277
-6.7623,-6.9266,0.7083,-0.0214,-0.1366,-0.134,0.0176,0.0345,0.0384,2848,2019-08-07 16:46:11:282
-6.7623,-6.9266,0.7083,-0.0214,-0.1366,-0.134,0.0176,0.0345,0.0384,2853,2019-08-07 16:46:11:287
-6.7623,-6.9266,0.7083,-0.0214,-0.1366,-0.134,0.0176,-0.0976,0.0533,2858,2019-08-07 16:46:11:292
-6.59,-6.917,0.647,-0.0214,-0.1366,-0.134,0.0176,-0.0976,0.0533,2863,2019-08-07 16:46:11:297
-6.59,-6.917,0.647,-0.3771,-0.1675,0.0967,0.0123,-0.1316,0.064,2868,2019-08-07 16:46:11:302
-6.59,-6.917,0.647,-0.3771,-0.1675,0.0967,0.0123,-0.1316,0.064,2873,2019-08-07 16:46:11:307
-6.2695,-6.917,0.4255,-0.3771,-0.1675,0.0967,0.0027,-0.1189,0.0672,2878,2019-08-07 16:46:11:312
-6.2695,-6.917,0.4255,-0.3771,-0.1675,0.0967,0.0027,-0.1189,0.0672,2883,2019-08-07 16:46:11:317
-6.2121,-7.0555,0.5104,-0.5844,0.0072,0.0942,0.0027,-0.1189,0.0672,2888,2019-08-07 16:46:11:322
-6.2121,-7.0555,0.5104,-0.5844,0.0072,0.0942,0.008,-0.0826,0.0608,2893,2019-08-07 16:46:11:327
-6.1738,-7.0173,0.4444,-0.6254,-0.028,0.1658,0.0123,-0.0507,0.0629,2898,2019-08-07 16:46:11:332
-6.1738,-7.0173,0.4444,-0.6254,-0.028,0.1658,0.0123,-0.0507,0.0629,2903,2019-08-07 16:46:11:337
-6.1738,-7.0173,0.4444,-0.6254,-0.028,0.1658,0.0123,-0.0507,0.0629,2908,2019-08-07 16:46:11:342
-6.1594,-6.9314,0.3124,-0.6254,-0.028,0.1658,0.0155,0.0367,0.0608,2912,2019-08-07 16:46:11:346
-6.1594,-6.9314,0.3124,-0.5696,-0.0839,0.1131,0.0155,0.0367,0.0608,2918,2019-08-07 16:46:11:352
-6.3556,-6.8836,0.5575,-0.5696,-0.0839,0.1131,0.0272,0.1091,0.0427,2923,2019-08-07 16:46:11:357
-6.3556,-6.8836,0.5575,-0.5696,-0.0839,0.1131,0.0272,0.1091,0.0427,2928,2019-08-07 16:46:11:362
-6.3556,-6.8836,0.5575,-0.5696,-0.0839,0.1131,0.024,0.0995,0.0373,2933,2019-08-07 16:46:11:367
-6.5565,-6.8788,0.5858,-0.1979,-0.1694,0.0033,0.024,0.0995,0.0373,2938,2019-08-07 16:46:11:372
-6.5565,-6.8788,0.5858,-0.1979,-0.1694,0.0033,0.024,0.0995,0.0373,2942,2019-08-07 16:46:11:376
-6.6761,-6.8072,0.6471,-0.1979,-0.1694,0.0033,0.0144,0.074,0.0363,2948,2019-08-07 16:46:11:382
-6.6761,-6.8072,0.6471,-0.1979,-0.1694,0.0033,0.0144,0.074,0.0363,2954,2019-08-07 16:46:11:388
-6.6761,-6.8072,0.6471,-0.1979,-0.1694,0.0033,0.0102,0.0228,0.0331,2958,2019-08-07 16:46:11:392
-6.7383,-6.7834,0.6518,-0.0795,-0.2454,-0.0591,0.0102,0.0228,0.0331,2963,2019-08-07 16:46:11:397
-6.7383,-6.7834,0.6518,-0.0795,-0.2454,-0.0591,0.007,-0.0145,0.0352,2968,2019-08-07 16:46:11:402
-6.6043,-6.8263,0.6282,-0.0795,-0.2454,-0.0591,0.007,-0.0145,0.0352,2973,2019-08-07 16:46:11:407
-6.6043,-6.8263,0.6282,-0.0795,-0.2454,-0.0591,0.0027,-0.088,0.0448,2978,2019-08-07 16:46:11:412
-6.6043,-6.8263,0.6282,-0.2138,-0.1968,-0.0427,0.0027,-0.088,0.0448,2983,2019-08-07 16:46:11:417
-6.5326,-6.8407,0.4019,-0.2138,-0.1968,-0.0427,0.0038,-0.1093,0.0576,2987,2019-08-07 16:46:11:421
-6.5326,-6.8407,0.4019,-0.2138,-0.1968,-0.0427,0.0038,-0.1093,0.0576,2993,2019-08-07 16:46:11:427
-6.5326,-6.8407,0.4019,-0.2138,-0.1968,-0.0427,0.0038,-0.1093,0.0576,2999,2019-08-07 16:46:11:433
-6.5086,-6.7786,0.5151,-0.3204,-0.2373,0.0994,0.0208,-0.1061,0.0608,3003,2019-08-07 16:46:11:437
-6.5086,-6.7786,0.5151,-0.3204,-0.2373,0.0994,0.0208,-0.1061,0.0608,3007,2019-08-07 16:46:11:441
-6.4799,-6.7309,0.4208,-0.3204,-0.2373,0.0994,0.0368,-0.088,0.0587,3012,2019-08-07 16:46:11:446
-6.4799,-6.7309,0.4208,-0.3525,-0.281,0.202,0.0368,-0.088,0.0587,3018,2019-08-07 16:46:11:452
-6.4799,-6.7309,0.4208,-0.3525,-0.281,0.202,0.0368,-0.088,0.0587,3023,2019-08-07 16:46:11:457
-6.3603,-6.8263,0.2888,-0.4885,-0.1683,0.3926,0.0368,-0.0336,0.0587,3028,2019-08-07 16:46:11:462
-6.3603,-6.8263,0.2888,-0.4885,-0.1683,0.3926,0.0368,-0.0336,0.0587,3033,2019-08-07 16:46:11:467
-6.3603,-6.8263,0.2888,-0.4885,-0.1683,0.3926,0.0389,0.0303,0.031,3038,2019-08-07 16:46:11:472
-6.4895,-6.8454,0.3878,-0.4885,-0.1683,0.3926,0.0389,0.0303,0.031,3043,2019-08-07 16:46:11:477
-6.4895,-6.8454,0.3878,-0.4885,-0.1683,0.3926,0.0538,0.0761,0.015,3048,2019-08-07 16:46:11:482
-6.5995,-6.8407,0.4915,-0.2576,-0.165,0.1364,0.0538,0.0761,0.015,3053,2019-08-07 16:46:11:487
-6.5995,-6.8407,0.4915,-0.2576,-0.165,0.1364,0.057,0.1006,-0.001,3057,2019-08-07 16:46:11:491
-6.5995,-6.8407,0.4915,-0.2576,-0.165,0.1364,0.057,0.1006,-0.001,3063,2019-08-07 16:46:11:497
-6.6808,-6.7452,0.5905,-0.2576,-0.165,0.1364,0.0474,0.0857,-0.0095,3068,2019-08-07 16:46:11:502
-6.6808,-6.7452,0.5905,-0.1155,-0.3025,-0.0342,0.0474,0.0857,-0.0095,3073,2019-08-07 16:46:11:507
-6.7526,-6.6927,0.6848,-0.1155,-0.3025,-0.0342,0.0325,0.0484,-0.0053,3078,2019-08-07 16:46:11:512
-6.7526,-6.6927,0.6848,-0.1155,-0.3025,-0.0342,0.0325,0.0484,-0.0053,3083,2019-08-07 16:46:11:517
-6.7526,-6.6927,0.6848,-0.1155,-0.3025,-0.0342,0.024,-0.0027,-0.001,3087,2019-08-07 16:46:11:521
-6.6617,-6.7404,0.6942,-0.183,-0.2591,-0.0677,0.024,-0.0027,-0.001,3093,2019-08-07 16:46:11:527
-6.6617,-6.7404,0.6942,-0.183,-0.2591,-0.0677,0.0187,-0.0517,0.0011,3097,2019-08-07 16:46:11:531
-6.676,-6.7309,0.6141,-0.183,-0.2591,-0.0677,0.0187,-0.0517,0.0011,3103,2019-08-07 16:46:11:537
-6.676,-6.7309,0.6141,-0.183,-0.2591,-0.0677,0.0187,-0.0517,0.0011,3107,2019-08-07 16:46:11:541
-6.676,-6.7309,0.6141,-0.2352,-0.2635,-0.001,0.0165,-0.0912,-0.001,3113,2019-08-07 16:46:11:547
-6.4894,-6.7452,0.5292,-0.2352,-0.2635,-0.001,0.0165,-0.0912,-0.001,3117,2019-08-07 16:46:11:551
-6.4894,-6.7452,0.5292,-0.2352,-0.2635,-0.001,0.0102,-0.0965,-0.0074,3123,2019-08-07 16:46:11:557
-6.4894,-6.7452,0.5292,-0.2352,-0.2635,-0.001,0.0102,-0.0965,-0.0074,3127,2019-08-07 16:46:11:561
-6.4894,-6.7643,0.468,-0.3429,-0.2072,0.1494,0.007,-0.0752,-0.0127,3133,2019-08-07 16:46:11:567
-6.4894,-6.7643,0.468,-0.3429,-0.2072,0.1494,0.007,-0.0752,-0.0127,3138,2019-08-07 16:46:11:572
-6.389,-6.7834,0.468,-0.3429,-0.2072,0.1494,0.0102,-0.039,-0.0212,3143,2019-08-07 16:46:11:577
-6.389,-6.7834,0.468,-0.3429,-0.2072,0.1494,0.0102,-0.039,-0.0212,3148,2019-08-07 16:46:11:582
-6.389,-6.7834,0.468,-0.4108,-0.2963,0.152,0.0112,-0.0102,-0.0308,3152,2019-08-07 16:46:11:586
-6.4368,-6.7118,0.5057,-0.4108,-0.2963,0.152,0.0112,-0.0102,-0.0308,3158,2019-08-07 16:46:11:592
-6.4368,-6.7118,0.5057,-0.4108,-0.2963,0.152,0.0112,-0.0102,-0.0308,3163,2019-08-07 16:46:11:597
-6.4176,-6.6593,0.5764,-0.4108,-0.2963,0.152,0.0038,0.0132,-0.0362,3168,2019-08-07 16:46:11:602
-6.4176,-6.6593,0.5764,-0.4629,-0.354,0.0573,0.0038,0.0132,-0.0362,3173,2019-08-07 16:46:11:607
-6.4176,-6.6593,0.5764,-0.4629,-0.354,0.0573,-0.0101,0.0239,-0.0351,3178,2019-08-07 16:46:11:612
-6.4033,-6.6593,0.6518,-0.4629,-0.354,0.0573,-0.0101,0.0239,-0.0351,3183,2019-08-07 16:46:11:617
-6.4033,-6.6593,0.6518,-0.4629,-0.354,0.0573,-0.0197,0.0143,-0.0138,3188,2019-08-07 16:46:11:622
-6.4033,-6.6593,0.6518,-0.4636,-0.3679,0.0151,-0.0197,0.0143,-0.0138,3194,2019-08-07 16:46:11:628
-6.3937,-6.7022,0.6141,-0.4636,-0.3679,0.0151,-0.0197,0.0143,-0.0138,3198,2019-08-07 16:46:11:632
-6.3937,-6.7022,0.6141,-0.4636,-0.3679,0.0151,-0.025,0.0036,0.0033,3202,2019-08-07 16:46:11:636
-6.4033,-6.707,0.6754,-0.4636,-0.3679,0.0151,-0.0282,0.0015,0.0288,3208,2019-08-07 16:46:11:642
-6.4033,-6.707,0.6754,-0.4309,-0.315,-0.0455,-0.0282,0.0015,0.0288,3213,2019-08-07 16:46:11:647
-6.4033,-6.707,0.6754,-0.4309,-0.315,-0.0455,-0.0282,0.0015,0.0288,3217,2019-08-07 16:46:11:651
-6.4272,-6.7356,0.6235,-0.4309,-0.315,-0.0455,-0.0271,-0.0102,0.0395,3223,2019-08-07 16:46:11:657
-6.4272,-6.7356,0.6235,-0.4309,-0.315,-0.0455,-0.0271,-0.0102,0.0395,3228,2019-08-07 16:46:11:662
-6.4272,-6.7356,0.6235,-0.3637,-0.2297,0.1541,-0.0261,0.0015,0.0384,3232,2019-08-07 16:46:11:666
-6.4272,-6.7786,0.4821,-0.3637,-0.2297,0.1541,-0.0261,0.0015,0.0384,3238,2019-08-07 16:46:11:672
-6.4272,-6.7786,0.4821,-0.3637,-0.2297,0.1541,-0.0293,0.0175,0.0395,3243,2019-08-07 16:46:11:677
-6.5563,-6.8263,0.5387,-0.3637,-0.2297,0.1541,-0.0293,0.0175,0.0395,3248,2019-08-07 16:46:11:682
-6.5563,-6.8263,0.5387,-0.2298,-0.1635,0.0668,-0.0197,0.0335,0.0256,3253,2019-08-07 16:46:11:687
-6.5563,-6.8263,0.5387,-0.2298,-0.1635,0.0668,-0.0197,0.0335,0.0256,3259,2019-08-07 16:46:11:693
-6.609,-6.8502,0.6,-0.2298,-0.1635,0.0668,-0.0197,0.0335,0.0256,3263,2019-08-07 16:46:11:697
-6.609,-6.8502,0.6,-0.2298,-0.1635,0.0668,-0.0133,0.0463,0.0118,3268,2019-08-07 16:46:11:702
-6.6568,-6.7738,0.5811,-0.1846,-0.2286,0.049,-0.0133,0.0463,0.0118,3272,2019-08-07 16:46:11:706
-6.6568,-6.7738,0.5811,-0.1846,-0.2286,0.049,-0.0207,0.0473,1.0E-4,3278,2019-08-07 16:46:11:712
-6.6568,-6.7738,0.5811,-0.1846,-0.2286,0.049,-0.0207,0.0473,1.0E-4,3283,2019-08-07 16:46:11:717
-6.6472,-6.7691,0.6565,-0.1846,-0.2286,0.049,-0.025,0.0303,-0.0085,3288,2019-08-07 16:46:11:722
-6.6472,-6.7691,0.6565,-0.1751,-0.1911,-0.0488,-0.025,0.0303,-0.0085,3293,2019-08-07 16:46:11:727
-6.6568,-6.7882,0.666,-0.1751,-0.1911,-0.0488,-0.0218,0.0068,-0.0095,3298,2019-08-07 16:46:11:732
-6.6568,-6.7882,0.666,-0.1751,-0.1911,-0.0488,-0.0218,0.0068,-0.0095,3303,2019-08-07 16:46:11:737
-6.6568,-6.7882,0.666,-0.1751,-0.1911,-0.0488,-0.0271,-0.0155,-0.0021,3308,2019-08-07 16:46:11:742
-6.6042,-6.8263,0.6188,-0.284,-0.1496,-0.0093,-0.0271,-0.0155,-0.0021,3313,2019-08-07 16:46:11:747
-6.6042,-6.8263,0.6188,-0.284,-0.1496,-0.0093,-0.0303,-0.04,0.0086,3317,2019-08-07 16:46:11:751
-6.5324,-6.9266,0.7414,-0.284,-0.1496,-0.0093,-0.0303,-0.04,0.0086,3323,2019-08-07 16:46:11:757
-6.5324,-6.9266,0.7414,-0.284,-0.1496,-0.0093,-0.0325,-0.0752,0.0214,3328,2019-08-07 16:46:11:762
-6.5324,-6.9266,0.7414,-0.4087,-0.1346,-0.0383,-0.0325,-0.0752,0.0214,3333,2019-08-07 16:46:11:767
-6.4032,-6.8454,0.6141,-0.4087,-0.1346,-0.0383,-0.0325,-0.0752,0.0214,3338,2019-08-07 16:46:11:772
-6.4032,-6.8454,0.6141,-0.4087,-0.1346,-0.0383,-0.0346,-0.0837,0.0416,3344,2019-08-07 16:46:11:778
-6.4032,-6.8454,0.6141,-0.4087,-0.1346,-0.0383,-0.0346,-0.0837,0.0416,3348,2019-08-07 16:46:11:782
-6.3458,-6.8311,0.534,-0.4551,-0.1451,0.1135,-0.0303,-0.0656,0.0427,3352,2019-08-07 16:46:11:786
-6.3458,-6.8311,0.534,-0.4551,-0.1451,0.1135,-0.0303,-0.0656,0.0427,3358,2019-08-07 16:46:11:792
-6.451,-6.898,0.534,-0.4551,-0.1451,0.1135,-0.0303,-0.0656,0.0427,3363,2019-08-07 16:46:11:797
-6.451,-6.898,0.534,-0.4551,-0.1451,0.1135,-0.0197,-0.0358,0.031,3368,2019-08-07 16:46:11:802
-6.5228,-6.855,0.369,-0.3243,-0.1419,0.2602,-0.0175,5.0E-4,0.0224,3373,2019-08-07 16:46:11:807
-6.5228,-6.855,0.369,-0.3243,-0.1419,0.2602,-0.0175,5.0E-4,0.0224,3378,2019-08-07 16:46:11:812
-6.5228,-6.855,0.369,-0.3243,-0.1419,0.2602,-0.0165,0.0303,0.0097,3383,2019-08-07 16:46:11:817
-6.6185,-6.8741,0.4114,-0.3243,-0.1419,0.2602,-0.0165,0.0303,0.0097,3388,2019-08-07 16:46:11:822
-6.6185,-6.8741,0.4114,-0.0719,-0.1559,0.1014,-5.0E-4,0.0622,-0.018,3393,2019-08-07 16:46:11:827
-6.6185,-6.8741,0.4114,-0.0719,-0.1559,0.1014,-5.0E-4,0.0622,-0.018,3399,2019-08-07 16:46:11:833
-6.8577,-6.812,0.5151,-0.0719,-0.1559,0.1014,0.0027,0.042,-0.0298,3403,2019-08-07 16:46:11:837
-6.8577,-6.812,0.5151,-0.0719,-0.1559,0.1014,0.0027,0.042,-0.0298,3408,2019-08-07 16:46:11:842
-6.762,-6.75,0.5057,-0.0719,-0.1559,0.1014,0.0027,0.042,-0.0298,3412,2019-08-07 16:46:11:846
-6.762,-6.75,0.5057,-0.0742,-0.2687,0.0761,-0.0026,0.01,-0.033,3418,2019-08-07 16:46:11:852
-6.762,-6.75,0.5057,-0.0742,-0.2687,0.0761,-0.0026,0.01,-0.033,3423,2019-08-07 16:46:11:857
-6.6663,-6.7834,0.6,-0.0742,-0.2687,0.0761,-0.0069,-0.0315,-0.034,3428,2019-08-07 16:46:11:862
-6.6663,-6.7834,0.6,-0.0742,-0.2687,0.0761,-0.0069,-0.0315,-0.034,3433,2019-08-07 16:46:11:867
-6.4845,-6.812,0.6235,-0.2799,-0.2207,-0.03,-0.0058,-0.0699,-0.0255,3437,2019-08-07 16:46:11:871
-6.4845,-6.812,0.6235,-0.2799,-0.2207,-0.03,-0.0058,-0.0699,-0.0255,3443,2019-08-07 16:46:11:877
-6.3457,-6.7738,0.5764,-0.2799,-0.2207,-0.03,-0.0101,-0.0933,-0.0127,3449,2019-08-07 16:46:11:883
-6.3457,-6.7738,0.5764,-0.2799,-0.2207,-0.03,-0.0101,-0.0933,-0.0127,3452,2019-08-07 16:46:11:886
-6.3457,-6.7738,0.5764,-0.5675,-0.2525,0.1082,-0.009,-0.0901,0.0033,3458,2019-08-07 16:46:11:892
-6.274,-6.75,0.5293,-0.5675,-0.2525,0.1082,-0.009,-0.0901,0.0033,3463,2019-08-07 16:46:11:897
-6.274,-6.75,0.5293,-0.5675,-0.2525,0.1082,-0.0122,-0.0762,0.0192,3468,2019-08-07 16:46:11:902
-6.274,-6.75,0.5293,-0.5675,-0.2525,0.1082,-0.0122,-0.0762,0.0192,3473,2019-08-07 16:46:11:907
-6.2261,-6.7643,0.4916,-0.6102,-0.2425,0.1446,-0.0175,-0.04,0.0246,3478,2019-08-07 16:46:11:912
-6.2261,-6.7643,0.4916,-0.6102,-0.2425,0.1446,-0.0175,-0.04,0.0246,3483,2019-08-07 16:46:11:917
-6.2739,-6.7643,0.468,-0.6102,-0.2425,0.1446,-0.0112,0.0164,0.031,3487,2019-08-07 16:46:11:921
-6.2739,-6.7643,0.468,-0.6102,-0.2425,0.1446,-0.0112,0.0164,0.031,3493,2019-08-07 16:46:11:927
-6.2739,-6.7643,0.468,-0.5648,-0.2405,0.2168,-0.0112,0.0164,0.031,3498,2019-08-07 16:46:11:932
-6.3218,-6.8264,0.4067,-0.5648,-0.2405,0.2168,-0.0058,0.074,0.0192,3503,2019-08-07 16:46:11:937
-6.3218,-6.8264,0.4067,-0.5648,-0.2405,0.2168,-0.0058,0.074,0.0192,3507,2019-08-07 16:46:11:941
-6.5323,-6.7595,0.4916,-0.5648,-0.2405,0.2168,-0.0058,0.1251,0.0043,3514,2019-08-07 16:46:11:948
-6.5323,-6.7595,0.4916,-0.3372,-0.2448,0.115,-0.0058,0.1251,0.0043,3517,2019-08-07 16:46:11:951
-6.5323,-6.7595,0.4916,-0.3372,-0.2448,0.115,-0.0058,0.1602,-0.0063,3522,2019-08-07 16:46:11:956
-6.4796,-6.75,0.4727,-0.3372,-0.2448,0.115,-0.0058,0.1602,-0.0063,3528,2019-08-07 16:46:11:962
-6.4796,-6.75,0.4727,-0.3372,-0.2448,0.115,-0.0058,0.1784,-0.0117,3533,2019-08-07 16:46:11:967
-6.4796,-6.75,0.4727,-0.2899,-0.1891,0.1093,-0.0058,0.1784,-0.0117,3537,2019-08-07 16:46:11:971
-6.5323,-6.8073,0.5293,-0.2899,-0.1891,0.1093,-0.0101,0.1837,-0.0191,3543,2019-08-07 16:46:11:977
-6.5323,-6.8073,0.5293,-0.2899,-0.1891,0.1093,-0.0101,0.1837,-0.0191,3548,2019-08-07 16:46:11:982
-6.6662,-6.7786,0.5387,-0.2899,-0.1891,0.1093,-0.0154,0.1507,-0.0117,3553,2019-08-07 16:46:11:987
-6.6662,-6.7786,0.5387,-0.1554,-0.2345,-0.0248,-0.0154,0.1507,-0.0117,3558,2019-08-07 16:46:11:992
-6.6662,-6.7786,0.5387,-0.1554,-0.2345,-0.0248,-0.0154,0.1507,-0.0117,3563,2019-08-07 16:46:11:997
-6.7574,-6.8072,0.6895,-0.1554,-0.2345,-0.0248,-0.0175,0.1027,-0.001,3567,2019-08-07 16:46:12:001
-6.7574,-6.8072,0.6895,-0.1554,-0.2345,-0.0248,-0.0175,0.1027,-0.001,3573,2019-08-07 16:46:12:007
-6.7574,-6.8072,0.6895,-0.0997,-0.2005,-0.147,-0.0165,0.0303,0.016,3578,2019-08-07 16:46:12:012
-6.7718,-6.8502,0.6471,-0.0997,-0.2005,-0.147,-0.0165,0.0303,0.016,3583,2019-08-07 16:46:12:017
-6.7718,-6.8502,0.6471,-0.0997,-0.2005,-0.147,-0.0133,-0.0283,0.031,3588,2019-08-07 16:46:12:022
-6.7287,-6.8407,0.5811,-0.0997,-0.2005,-0.147,-0.0133,-0.0283,0.031,3593,2019-08-07 16:46:12:027
-6.7287,-6.8407,0.5811,-0.1372,-0.139,-0.0116,-0.009,-0.0762,0.0352,3597,2019-08-07 16:46:12:031
-6.7287,-6.8407,0.5811,-0.1372,-0.139,-0.0116,-0.009,-0.0762,0.0352,3603,2019-08-07 16:46:12:037
-6.5947,-6.8311,0.5481,-0.1372,-0.139,-0.0116,-0.0037,-0.1093,0.0437,3607,2019-08-07 16:46:12:041
-6.5947,-6.8311,0.5481,-0.1372,-0.139,-0.0116,-0.0037,-0.1093,0.0437,3612,2019-08-07 16:46:12:046
-6.4847,-6.8072,0.3595,-0.3664,-0.1911,0.2084,-0.0026,-0.089,0.0405,3618,2019-08-07 16:46:12:052
-6.4847,-6.8072,0.3595,-0.3664,-0.1911,0.2084,-0.0026,-0.089,0.0405,3622,2019-08-07 16:46:12:056
-6.4847,-6.8072,0.3595,-0.3664,-0.1911,0.2084,0.0027,-0.056,0.0033,3628,2019-08-07 16:46:12:062
-6.2646,-6.8502,0.0626,-0.3664,-0.1911,0.2084,0.0027,-0.056,0.0033,3633,2019-08-07 16:46:12:067
-6.2646,-6.8502,0.0626,-0.1751,-0.3243,0.2368,0.0027,-0.056,0.0033,3638,2019-08-07 16:46:12:072
-6.5899,-6.7165,0.3454,-0.1751,-0.3243,0.2368,0.008,0.025,0.0192,3643,2019-08-07 16:46:12:077
-6.5899,-6.7165,0.3454,-0.1751,-0.3243,0.2368,0.008,0.025,0.0192,3648,2019-08-07 16:46:12:082
-6.5899,-6.7165,0.3454,-0.1751,-0.3243,0.2368,0.0091,0.0207,0.0278,3653,2019-08-07 16:46:12:087
-6.4655,-6.8645,0.3548,-0.1751,-0.3243,0.2368,0.0091,0.0207,0.0278,3657,2019-08-07 16:46:12:091
-6.4655,-6.8645,0.3548,-0.3887,-0.121,0.163,0.0219,0.059,0.0203,3663,2019-08-07 16:46:12:097
-6.5899,-6.8359,0.5434,-0.3887,-0.121,0.163,0.0219,0.059,0.0203,3668,2019-08-07 16:46:12:102
-6.5899,-6.8359,0.5434,-0.3887,-0.121,0.163,0.0219,0.059,0.0203,3673,2019-08-07 16:46:12:107
-6.5899,-6.8359,0.5434,-0.249,-0.1939,0.0125,0.0336,0.0537,0.0342,3678,2019-08-07 16:46:12:112
-6.6282,-6.7452,0.5905,-0.249,-0.1939,0.0125,0.0336,0.0537,0.0342,3682,2019-08-07 16:46:12:116
-6.6282,-6.7452,0.5905,-0.249,-0.1939,0.0125,0.0325,0.0292,0.032,3688,2019-08-07 16:46:12:122
-6.8004,-6.6211,0.4632,-0.249,-0.1939,0.0125,0.0325,0.0292,0.032,3693,2019-08-07 16:46:12:127
-6.8004,-6.6211,0.4632,-0.1016,-0.2981,0.0745,0.0197,-0.0219,0.0299,3698,2019-08-07 16:46:12:132
-6.8004,-6.6211,0.4632,-0.1016,-0.2981,0.0745,0.0197,-0.0219,0.0299,3703,2019-08-07 16:46:12:137
-6.6904,-6.8025,0.5528,-0.1016,-0.2981,0.0745,0.008,-0.0741,0.0331,3708,2019-08-07 16:46:12:142
-6.6904,-6.8025,0.5528,-0.1016,-0.2981,0.0745,0.008,-0.0741,0.0331,3714,2019-08-07 16:46:12:148
-6.5708,-6.8932,0.5387,-0.2966,-0.0884,0.0389,0.0144,-0.0922,0.0331,3718,2019-08-07 16:46:12:152
-6.5708,-6.8932,0.5387,-0.2966,-0.0884,0.0389,0.0144,-0.0922,0.0331,3723,2019-08-07 16:46:12:157
-6.5708,-6.8932,0.5387,-0.2966,-0.0884,0.0389,0.0347,-0.0837,0.031,3728,2019-08-07 16:46:12:162
-6.5325,-6.8025,0.4491,-0.2966,-0.0884,0.0389,0.0347,-0.0837,0.031,3732,2019-08-07 16:46:12:166
-6.5325,-6.8025,0.4491,-0.4331,-0.2278,0.12,0.0347,-0.0645,0.0299,3738,2019-08-07 16:46:12:172
-6.5325,-6.8025,0.4491,-0.4331,-0.2278,0.12,0.0347,-0.0645,0.0299,3743,2019-08-07 16:46:12:177
-6.432,-6.812,0.3878,-0.4331,-0.2278,0.12,0.0304,-0.0315,0.0203,3747,2019-08-07 16:46:12:181
-6.432,-6.812,0.3878,-0.4331,-0.2278,0.12,0.0304,-0.0315,0.0203,3753,2019-08-07 16:46:12:187
-6.3938,-6.8168,0.4727,-0.4331,-0.2278,0.12,0.0442,0.0356,0.0075,3758,2019-08-07 16:46:12:192
-6.3938,-6.8168,0.4727,-0.4913,-0.1978,0.1594,0.0442,0.0356,0.0075,3763,2019-08-07 16:46:12:197
-6.3938,-6.8168,0.4727,-0.4913,-0.1978,0.1594,0.0506,0.0782,0.0097,3768,2019-08-07 16:46:12:202
-6.3555,-6.7643,0.3925,-0.4913,-0.1978,0.1594,0.0506,0.0782,0.0097,3772,2019-08-07 16:46:12:206
-6.3555,-6.7643,0.3925,-0.4913,-0.1978,0.1594,0.0421,0.1155,0.0086,3778,2019-08-07 16:46:12:212
-6.5038,-6.7452,0.4632,-0.4018,-0.1779,0.13,0.0421,0.1155,0.0086,3782,2019-08-07 16:46:12:216
-6.5038,-6.7452,0.4632,-0.4018,-0.1779,0.13,0.0347,0.1272,0.0075,3788,2019-08-07 16:46:12:222
-6.5038,-6.7452,0.4632,-0.4018,-0.1779,0.13,0.0347,0.1272,0.0075,3793,2019-08-07 16:46:12:227
-6.7526,-6.7881,0.5905,-0.4018,-0.1779,0.13,0.0283,0.0921,0.0139,3798,2019-08-07 16:46:12:232
-6.7526,-6.7881,0.5905,-0.1986,-0.1716,3.0E-4,0.0283,0.0921,0.0139,3802,2019-08-07 16:46:12:236
-6.7286,-6.7691,0.5999,-0.1986,-0.1716,3.0E-4,0.0283,0.0921,0.0139,3808,2019-08-07 16:46:12:242
-6.7286,-6.7691,0.5999,-0.1986,-0.1716,3.0E-4,0.0187,0.0271,0.0182,3812,2019-08-07 16:46:12:246
-6.7286,-6.7691,0.5999,-0.1986,-0.1716,3.0E-4,0.0187,0.0271,0.0182,3818,2019-08-07 16:46:12:252
-6.7191,-6.707,0.5622,-0.1588,-0.264,0.0174,0.0123,-0.0209,0.031,3824,2019-08-07 16:46:12:258
-6.7191,-6.707,0.5622,-0.1588,-0.264,0.0174,0.0123,-0.0209,0.031,3827,2019-08-07 16:46:12:261
-6.5803,-6.7452,0.5434,-0.1588,-0.264,0.0174,0.0112,-0.0272,0.0278,3833,2019-08-07 16:46:12:267
-6.5803,-6.7452,0.5434,-0.1588,-0.264,0.0174,0.0112,-0.0272,0.0278,3837,2019-08-07 16:46:12:271
-6.5803,-6.7452,0.5434,-0.2819,-0.2554,0.0178,0.0133,-0.0379,0.0235,3843,2019-08-07 16:46:12:277
-6.5755,-6.7022,0.5481,-0.2819,-0.2554,0.0178,0.0133,-0.0379,0.0235,3848,2019-08-07 16:46:12:282
-6.5755,-6.7022,0.5481,-0.2819,-0.2554,0.0178,0.007,-0.0443,0.0214,3852,2019-08-07 16:46:12:286
-6.5755,-6.6784,0.3548,-0.2819,-0.2554,0.0178,0.007,-0.0443,0.0214,3858,2019-08-07 16:46:12:292
-6.5755,-6.6784,0.3548,-0.3133,-0.257,0.1983,0.0059,-0.023,0.0256,3864,2019-08-07 16:46:12:298
-6.5755,-6.6784,0.3548,-0.3133,-0.257,0.1983,0.0059,-0.023,0.0256,3867,2019-08-07 16:46:12:301
-6.5707,-6.7643,0.3878,-0.3133,-0.257,0.1983,0.0133,0.0068,0.0182,3873,2019-08-07 16:46:12:307
-6.5707,-6.7643,0.3878,-0.3133,-0.257,0.1983,0.0133,0.0068,0.0182,3878,2019-08-07 16:46:12:312
-6.8339,-6.7738,0.4962,-0.0623,-0.2592,0.0814,0.0208,0.0228,0.0107,3882,2019-08-07 16:46:12:316
-6.8339,-6.7738,0.4962,-0.0623,-0.2592,0.0814,0.0208,0.0228,0.0107,3888,2019-08-07 16:46:12:322
-6.8339,-6.7738,0.4962,-0.0623,-0.2592,0.0814,0.0229,0.0058,1.0E-4,3893,2019-08-07 16:46:12:327
-6.6521,-6.707,0.3972,-0.0623,-0.2592,0.0814,0.0229,0.0058,1.0E-4,3899,2019-08-07 16:46:12:333
-6.6521,-6.707,0.3972,-0.1588,-0.3347,0.1385,0.0251,0.0122,0.0011,3903,2019-08-07 16:46:12:337
-6.6521,-6.707,0.3972,-0.1588,-0.3347,0.1385,0.0251,0.0122,0.0011,3908,2019-08-07 16:46:12:342
-6.6903,-6.7547,0.4632,-0.1588,-0.3347,0.1385,0.0219,0.0058,0.0033,3913,2019-08-07 16:46:12:347
-6.6903,-6.7547,0.4632,-0.1588,-0.3347,0.1385,0.0219,0.0058,0.0033,3918,2019-08-07 16:46:12:352
-6.6903,-6.7547,0.4632,-0.2596,-0.2052,0.0227,0.0219,0.0058,0.0033,3923,2019-08-07 16:46:12:357
-6.6903,-6.7786,0.5387,-0.2596,-0.2052,0.0227,0.0283,-0.0177,0.0011,3927,2019-08-07 16:46:12:361
-6.6903,-6.7786,0.5387,-0.2596,-0.2052,0.0227,0.041,-0.0315,0.0139,3933,2019-08-07 16:46:12:367
-6.6281,-6.7118,0.4255,-0.2596,-0.2052,0.0227,0.041,-0.0315,0.0139,3937,2019-08-07 16:46:12:371
-6.6281,-6.7118,0.4255,-0.2798,-0.2608,0.1675,0.0379,-0.0443,0.0267,3943,2019-08-07 16:46:12:377
-6.676,-6.6593,0.4208,-0.2798,-0.2608,0.1675,0.0379,-0.0443,0.0267,3949,2019-08-07 16:46:12:383
-6.676,-6.6593,0.4208,-0.2798,-0.2608,0.1675,0.024,-0.0464,0.0278,3953,2019-08-07 16:46:12:387
-6.676,-6.6593,0.4208,-0.2798,-0.2608,0.1675,0.024,-0.0464,0.0278,3958,2019-08-07 16:46:12:392
-6.5468,-6.7261,0.6424,-0.3452,-0.2281,-0.0295,0.024,-0.0464,0.0278,3962,2019-08-07 16:46:12:396
-6.5468,-6.7261,0.6424,-0.3452,-0.2281,-0.0295,0.0442,-0.0592,0.0256,3968,2019-08-07 16:46:12:402
-6.5468,-6.7261,0.6424,-0.3452,-0.2281,-0.0295,0.0442,-0.0592,0.0256,3972,2019-08-07 16:46:12:406
-6.5755,-6.7309,0.4868,-0.3452,-0.2281,-0.0295,0.056,-0.0347,0.0203,3978,2019-08-07 16:46:12:412
-6.5755,-6.7309,0.4868,-0.3041,-0.2489,0.0537,0.056,-0.0347,0.0203,3982,2019-08-07 16:46:12:416
-6.5755,-6.6831,0.6094,-0.3041,-0.2489,0.0537,0.0698,0.0026,0.0128,3988,2019-08-07 16:46:12:422
-6.5755,-6.6831,0.6094,-0.3041,-0.2489,0.0537,0.0698,0.0026,0.0128,3993,2019-08-07 16:46:12:427
-6.5755,-6.6831,0.6094,-0.3041,-0.2489,0.0537,0.0634,-0.0038,-0.0021,3998,2019-08-07 16:46:12:432
-6.6903,-6.5924,0.435,-0.233,-0.3764,0.1706,0.0634,-0.0038,-0.0021,4003,2019-08-07 16:46:12:437
-6.6903,-6.5924,0.435,-0.233,-0.3764,0.1706,0.0634,-0.0038,-0.0021,4008,2019-08-07 16:46:12:442
-6.6616,-6.6067,0.5528,-0.233,-0.3764,0.1706,0.0208,-0.0145,-0.0117,4013,2019-08-07 16:46:12:447
-6.6616,-6.6067,0.5528,-0.233,-0.3764,0.1706,0.0208,-0.0145,-0.0117,4018,2019-08-07 16:46:12:452
-6.6616,-6.6067,0.5528,-0.2942,-0.21,-0.0047,0.0155,-0.0059,-0.0053,4023,2019-08-07 16:46:12:457
-6.5946,-6.8263,0.6518,-0.2942,-0.21,-0.0047,0.0155,-0.0059,-0.0053,4027,2019-08-07 16:46:12:461
-6.5946,-6.8263,0.6518,-0.2942,-0.21,-0.0047,0.0347,0.009,-0.0053,4033,2019-08-07 16:46:12:467
-6.5707,-6.7356,0.6848,-0.2942,-0.21,-0.0047,0.0347,0.009,-0.0053,4037,2019-08-07 16:46:12:471