ACCELEROMETER X (m/s²),ACCELEROMETER Y (m/s²),ACCELEROMETER Z (m/s²),LINEAR ACCELERATION X (m/s²),LINEAR ACCELERATION Y (m/s²),LINEAR ACCELERATION Z (m/s²),GYROSCOPE X (rad/s),GYROSCOPE Y (rad/s),GYROSCOPE Z (rad/s),Time since start in ms ,YYYY-MO-DD HH-MI-SS_SSS
-6.1958,-7.0604,0.5673,-0.4057,-0.1996,0.109,-0.008,4.0E-4,0.0097,4,2019-08-07 16:46:25:918
-6.1958,-7.0604,0.5673,-0.4057,-0.1996,0.109,-0.008,4.0E-4,0.0097,9,2019-08-07 16:46:25:923
-6.2676,-7.0366,0.6003,-0.3009,-0.2137,0.0795,6.0E-4,0.0058,0.0075,15,2019-08-07 16:46:25:929
-6.2676,-7.0366,0.6003,-0.3009,-0.2137,0.0795,6.0E-4,0.0058,0.0075,19,2019-08-07 16:46:25:933
-6.2436,-7.027,0.6145,-0.3009,-0.2137,0.0795,-5.0E-4,0.0164,0.0033,24,2019-08-07 16:46:25:938
-6.2436,-7.027,0.6145,-0.3009,-0.2137,0.0795,-5.0E-4,0.0164,0.0033,29,2019-08-07 16:46:25:943
-6.2436,-7.027,0.6145,-0.3042,-0.228,0.0725,-5.0E-4,0.0303,-0.001,34,2019-08-07 16:46:25:948
-6.2983,-7.0268,0.6093,-0.3042,-0.228,0.0725,-5.0E-4,0.0303,-0.001,39,2019-08-07 16:46:25:953
-6.2983,-7.0268,0.6093,-0.3042,-0.228,0.0725,-0.0016,0.0431,-0.0117,44,2019-08-07 16:46:25:958
-6.3701,-7.0125,0.614,-0.3042,-0.228,0.0725,-0.0016,0.0431,-0.0117,49,2019-08-07 16:46:25:963
-6.3701,-7.0125,0.614,-0.2071,-0.1821,0.0755,-0.0016,0.0452,-0.0191,53,2019-08-07 16:46:25:967
-6.3701,-7.0125,0.614,-0.2071,-0.1821,0.0755,-0.0016,0.0452,-0.0191,59,2019-08-07 16:46:25:973
-6.3988,-7.022,0.6282,-0.2071,-0.1821,0.0755,0.0048,0.026,-0.0212,63,2019-08-07 16:46:25:977
-6.3988,-7.022,0.6282,-0.2071,-0.1821,0.0755,0.0048,0.026,-0.0212,69,2019-08-07 16:46:25:983
-6.3557,-7.0316,0.68,-0.2282,-0.2088,0.0017,0.0048,0.026,-0.0212,73,2019-08-07 16:46:25:987
-6.3557,-7.0316,0.68,-0.2282,-0.2088,0.0017,0.007,-6.0E-4,-0.0244,79,2019-08-07 16:46:25:993
-6.3557,-7.0316,0.68,-0.2282,-0.2088,0.0017,0.007,-6.0E-4,-0.0244,84,2019-08-07 16:46:25:998
-6.2409,-7.0459,0.6706,-0.2282,-0.2088,0.0017,0.008,-0.0251,-0.0191,88,2019-08-07 16:46:26:002
-6.2409,-7.0459,0.6706,-0.3824,-0.2833,0.0055,0.008,-0.0251,-0.0191,94,2019-08-07 16:46:26:008
-6.1692,-6.9838,0.6847,-0.3824,-0.2833,0.0055,0.0112,-0.0304,-0.0117,99,2019-08-07 16:46:26:013
-6.1692,-6.9838,0.6847,-0.3824,-0.2833,0.0055,0.0112,-0.0304,-0.0117,103,2019-08-07 16:46:26:017
-6.1692,-6.9838,0.6847,-0.3824,-0.2833,0.0055,0.0038,-0.0304,0.0022,109,2019-08-07 16:46:26:023
-6.1166,-6.9982,0.6564,-0.4571,-0.3036,0.0487,0.0038,-0.0304,0.0022,114,2019-08-07 16:46:26:028
-6.1166,-6.9982,0.6564,-0.4571,-0.3036,0.0487,-5.0E-4,-0.0251,0.0118,118,2019-08-07 16:46:26:032
-6.1166,-6.9982,0.6564,-0.4571,-0.3036,0.0487,-5.0E-4,-0.0251,0.0118,124,2019-08-07 16:46:26:038
-6.107,-6.9313,0.6093,-0.4718,-0.3127,0.083,-0.0048,-0.0123,0.016,128,2019-08-07 16:46:26:042
-6.107,-6.9313,0.6093,-0.4718,-0.3127,0.083,-0.0048,-0.0123,0.016,134,2019-08-07 16:46:26:048
-6.1357,-6.9266,0.5999,-0.4718,-0.3127,0.083,-0.0069,0.0068,0.0224,138,2019-08-07 16:46:26:052
-6.1357,-6.9266,0.5999,-0.3833,-0.3441,0.0533,-0.0069,0.0068,0.0224,144,2019-08-07 16:46:26:058
-6.1357,-6.9266,0.5999,-0.3833,-0.3441,0.0533,-0.0112,0.026,0.0235,149,2019-08-07 16:46:26:063
-6.2458,-6.9552,0.5622,-0.3833,-0.3441,0.0533,-0.0112,0.026,0.0235,154,2019-08-07 16:46:26:068
-6.2458,-6.9552,0.5622,-0.3833,-0.3441,0.0533,-0.0165,0.042,0.0182,159,2019-08-07 16:46:26:073
-6.3798,-6.9409,0.5904,-0.2051,-0.2985,0.0928,-0.0165,0.042,0.0182,164,2019-08-07 16:46:26:078
-6.3798,-6.9409,0.5904,-0.2051,-0.2985,0.0928,-0.0175,0.0399,0.0182,168,2019-08-07 16:46:26:082
-6.3798,-6.9409,0.5904,-0.2051,-0.2985,0.0928,-0.0175,0.0399,0.0182,174,2019-08-07 16:46:26:088
-6.3846,-7.0411,0.6093,-0.2051,-0.2985,0.0928,-0.0197,0.0303,0.0118,179,2019-08-07 16:46:26:093
-6.3846,-7.0411,0.6093,-0.2051,-0.2985,0.0928,-0.0197,0.0303,0.0118,184,2019-08-07 16:46:26:098
-6.3511,-6.9695,0.5904,-0.2361,-0.2542,0.0569,-0.0165,0.0367,0.0022,189,2019-08-07 16:46:26:103
-6.3511,-6.9695,0.5904,-0.2361,-0.2542,0.0569,-0.0165,0.0367,0.0022,194,2019-08-07 16:46:26:108
-6.3511,-6.9695,0.5904,-0.2361,-0.2542,0.0569,-0.0112,0.0313,0.0033,199,2019-08-07 16:46:26:113
-6.3846,-6.9504,0.5857,-0.2361,-0.2542,0.0569,-0.0112,0.0313,0.0033,203,2019-08-07 16:46:26:117
-6.3846,-6.9504,0.5857,-0.2226,-0.2301,0.0692,-0.009,0.0068,0.0033,209,2019-08-07 16:46:26:123
-6.3846,-6.9504,0.5857,-0.2226,-0.2301,0.0692,-0.009,0.0068,0.0033,214,2019-08-07 16:46:26:128
-6.3463,-7.022,0.6376,-0.2226,-0.2301,0.0692,-0.0101,-0.0219,0.0139,219,2019-08-07 16:46:26:133
-6.3463,-7.022,0.6376,-0.3143,-0.1864,0.0451,-0.0101,-0.0219,0.0139,224,2019-08-07 16:46:26:138
-6.2794,-7.0363,0.6611,-0.3143,-0.1864,0.0451,-0.0101,-0.0219,0.0139,229,2019-08-07 16:46:26:143
-6.2794,-7.0363,0.6611,-0.3143,-0.1864,0.0451,-0.0058,-0.0358,0.0203,234,2019-08-07 16:46:26:148
-6.2794,-7.0363,0.6611,-0.3143,-0.1864,0.0451,-0.0058,-0.0358,0.0203,238,2019-08-07 16:46:26:152
-6.1837,-6.9838,0.6753,-0.3143,-0.1864,0.0451,0.0038,-0.0294,0.031,245,2019-08-07 16:46:26:159
-6.1837,-6.9838,0.6753,-0.4649,-0.2603,0.0354,0.0038,-0.0294,0.031,249,2019-08-07 16:46:26:163
-6.1837,-6.9838,0.6753,-0.4649,-0.2603,0.0354,0.0059,-0.0166,0.0395,254,2019-08-07 16:46:26:168
-6.1502,-6.9122,0.68,-0.4649,-0.2603,0.0354,0.0059,-0.0166,0.0395,259,2019-08-07 16:46:26:173
-6.1502,-6.9122,0.68,-0.4649,-0.2603,0.0354,6.0E-4,-0.0049,0.0512,264,2019-08-07 16:46:26:178
-6.1837,-6.917,0.6847,-0.4221,-0.3223,0.0662,6.0E-4,-0.0049,0.0512,269,2019-08-07 16:46:26:183
-6.1837,-6.917,0.6847,-0.4221,-0.3223,0.0662,6.0E-4,-0.0049,0.0512,274,2019-08-07 16:46:26:188
-6.1837,-6.917,0.6847,-0.4221,-0.3223,0.0662,-0.009,0.0068,0.0576,278,2019-08-07 16:46:26:192
-6.2603,-6.9361,0.6187,-0.4221,-0.3223,0.0662,-0.009,0.0068,0.0576,284,2019-08-07 16:46:26:198
-6.2603,-6.9361,0.6187,-0.3292,-0.3012,0.0221,-0.0133,0.0047,0.0555,288,2019-08-07 16:46:26:202
-6.2986,-6.96,0.6517,-0.3292,-0.3012,0.0221,-0.0133,0.0047,0.0555,294,2019-08-07 16:46:26:208
-6.2986,-6.96,0.6517,-0.3292,-0.3012,0.0221,-0.0207,0.0068,0.0597,299,2019-08-07 16:46:26:213
-6.2986,-6.96,0.6517,-0.3292,-0.3012,0.0221,-0.0207,0.0068,0.0597,303,2019-08-07 16:46:26:217
-6.2747,-7.0077,0.5197,-0.3371,-0.2084,0.1496,-0.0282,0.0356,0.0501,309,2019-08-07 16:46:26:223
-6.2747,-7.0077,0.5197,-0.3371,-0.2084,0.1496,-0.0282,0.0356,0.0501,314,2019-08-07 16:46:26:228
-6.4421,-7.0793,0.5574,-0.3371,-0.2084,0.1496,-0.0282,0.0644,0.0342,318,2019-08-07 16:46:26:232
-6.4421,-7.0793,0.5574,-0.3371,-0.2084,0.1496,-0.0282,0.0644,0.0342,324,2019-08-07 16:46:26:238
-6.4421,-7.0793,0.5574,-0.123,-0.0799,0.0856,-0.0229,0.0558,0.0235,328,2019-08-07 16:46:26:242
-6.5283,-7.1318,0.5763,-0.123,-0.0799,0.0856,-0.0229,0.0558,0.0235,334,2019-08-07 16:46:26:248
-6.5283,-7.1318,0.5763,-0.123,-0.0799,0.0856,-0.0197,0.0388,0.0107,338,2019-08-07 16:46:26:252
-6.5283,-7.1318,0.5763,-0.123,-0.0799,0.0856,-0.0197,0.0388,0.0107,344,2019-08-07 16:46:26:258
-6.4804,-7.0888,0.5951,-0.1639,-0.107,0.0012,-0.0175,0.0207,0.0075,349,2019-08-07 16:46:26:263
-6.4804,-7.0888,0.5951,-0.1639,-0.107,0.0012,-0.0175,0.0207,0.0075,354,2019-08-07 16:46:26:268
-6.4087,-7.0077,0.6375,-0.2122,-0.2022,0.0085,-0.0154,0.0122,0.0075,358,2019-08-07 16:46:26:272
-6.4087,-7.0077,0.6375,-0.2122,-0.2022,0.0085,-0.0154,0.0122,0.0075,364,2019-08-07 16:46:26:278
-6.4087,-7.0077,0.6375,-0.2122,-0.2022,0.0085,-0.0154,0.0122,0.0075,368,2019-08-07 16:46:26:282
-6.3944,-7.0936,0.6469,-0.2122,-0.2022,0.0085,-0.0048,0.0037,1.0E-4,374,2019-08-07 16:46:26:288
-6.3944,-7.0936,0.6469,-0.2407,-0.0975,-0.0022,0.0027,-0.0155,0.0054,379,2019-08-07 16:46:26:293
-6.3944,-7.0936,0.6469,-0.2407,-0.0975,-0.0022,0.0027,-0.0155,0.0054,384,2019-08-07 16:46:26:298
-6.3561,-7.1127,0.6799,-0.2407,-0.0975,-0.0022,0.0027,-0.0155,0.0054,389,2019-08-07 16:46:26:303
-6.3561,-7.1127,0.6799,-0.2407,-0.0975,-0.0022,0.0219,-0.0209,0.0107,394,2019-08-07 16:46:26:308
-6.2987,-6.9838,0.7271,-0.3699,-0.2354,-0.035,0.0219,-0.0209,0.0107,399,2019-08-07 16:46:26:313
-6.2987,-6.9838,0.7271,-0.3699,-0.2354,-0.035,0.0304,-0.0251,0.0182,403,2019-08-07 16:46:26:317
-6.2987,-6.9838,0.7271,-0.3699,-0.2354,-0.035,0.0304,-0.0251,0.0182,409,2019-08-07 16:46:26:323
-6.2317,-6.8645,0.6328,-0.3699,-0.2354,-0.035,0.0208,-0.0294,0.0288,414,2019-08-07 16:46:26:328
-6.2317,-6.8645,0.6328,-0.315,-0.3852,0.0621,0.0208,-0.0294,0.0288,418,2019-08-07 16:46:26:332
-6.27,-6.8167,0.6375,-0.315,-0.3852,0.0621,0.0208,-0.0294,0.0288,424,2019-08-07 16:46:26:338
-6.27,-6.8167,0.6375,-0.315,-0.3852,0.0621,0.0059,-0.0262,0.0342,429,2019-08-07 16:46:26:343
-6.27,-6.8167,0.6375,-0.315,-0.3852,0.0621,0.0059,-0.0262,0.0342,434,2019-08-07 16:46:26:348
-6.2844,-6.9217,0.5762,-0.3528,-0.2996,0.0287,-5.0E-4,-0.0315,0.0363,439,2019-08-07 16:46:26:353
-6.2844,-6.9217,0.5762,-0.3528,-0.2996,0.0287,-5.0E-4,-0.0315,0.0363,444,2019-08-07 16:46:26:358
-6.2222,-6.8788,0.5715,-0.3528,-0.2996,0.0287,-0.0037,-0.0134,0.0395,449,2019-08-07 16:46:26:363
-6.2222,-6.8788,0.5715,-0.3528,-0.2996,0.0287,-0.0037,-0.0134,0.0395,454,2019-08-07 16:46:26:368
-6.2222,-6.8788,0.5715,-0.3103,-0.352,0.128,-0.0069,0.0154,0.0384,459,2019-08-07 16:46:26:373
-6.3801,-6.8501,0.5055,-0.3103,-0.352,0.128,-0.0069,0.0154,0.0384,464,2019-08-07 16:46:26:378
-6.3801,-6.8501,0.5055,-0.3103,-0.352,0.128,-0.0122,0.0431,0.0352,468,2019-08-07 16:46:26:382
-6.4471,-6.9122,0.6092,-0.3103,-0.352,0.128,-0.0122,0.0431,0.0352,475,2019-08-07 16:46:26:389
-6.4471,-6.9122,0.6092,-0.1628,-0.1756,0.097,-0.0165,0.042,0.0256,479,2019-08-07 16:46:26:393
-6.4471,-6.9122,0.6092,-0.1628,-0.1756,0.097,-0.0165,0.042,0.0256,484,2019-08-07 16:46:26:398
-6.5189,-6.9933,0.5621,-0.1628,-0.1756,0.097,-0.0165,0.042,0.0256,489,2019-08-07 16:46:26:403
-6.5189,-6.9933,0.5621,-0.1628,-0.1756,0.097,-0.0165,0.0218,0.0139,494,2019-08-07 16:46:26:408
-6.5189,-6.9933,0.5621,-0.118,-0.1925,0.0291,-0.0165,0.0218,0.0139,499,2019-08-07 16:46:26:413
-6.5141,-7.0172,0.6045,-0.118,-0.1925,0.0291,-0.0133,0.0015,0.0065,504,2019-08-07 16:46:26:418
-6.5141,-7.0172,0.6045,-0.118,-0.1925,0.0291,-0.0133,0.0015,0.0065,509,2019-08-07 16:46:26:423
-6.4615,-6.9695,0.5715,-0.118,-0.1925,0.0291,-0.0111,-0.0123,-0.001,514,2019-08-07 16:46:26:428
-6.4615,-6.9695,0.5715,-0.2233,-0.2259,0.0467,-0.0111,-0.0123,-0.001,519,2019-08-07 16:46:26:433
-6.4615,-6.9695,0.5715,-0.2233,-0.2259,0.0467,-0.0133,-0.023,-0.0031,525,2019-08-07 16:46:26:439
-6.3324,-6.9933,0.5809,-0.2233,-0.2259,0.0467,-0.0133,-0.023,-0.0031,529,2019-08-07 16:46:26:443
-6.3324,-6.9933,0.5809,-0.2233,-0.2259,0.0467,-0.0122,-0.0187,-0.0063,534,2019-08-07 16:46:26:448
-6.3515,-7.022,0.5668,-0.2889,-0.1698,0.0801,-0.0122,-0.0187,-0.0063,539,2019-08-07 16:46:26:453
-6.3515,-7.022,0.5668,-0.2889,-0.1698,0.0801,-0.0122,-0.0187,-0.0063,544,2019-08-07 16:46:26:458
-6.3515,-7.022,0.5668,-0.2889,-0.1698,0.0801,-0.0048,-0.0038,-0.0085,549,2019-08-07 16:46:26:463
-6.4233,-6.979,0.5338,-0.2889,-0.1698,0.0801,-0.0037,-0.0049,-0.0106,554,2019-08-07 16:46:26:468
-6.4233,-6.979,0.5338,-0.2889,-0.1698,0.0801,-0.0037,-0.0049,-0.0106,559,2019-08-07 16:46:26:473
-6.4233,-6.979,0.5338,-0.2062,-0.1999,0.0413,-0.0037,-0.0049,-0.0106,564,2019-08-07 16:46:26:478
-6.385,-6.9504,0.5479,-0.2062,-0.1999,0.0413,-0.0058,-0.0091,-0.017,568,2019-08-07 16:46:26:482
-6.385,-6.9504,0.5479,-0.2062,-0.1999,0.0413,-0.0058,-0.0091,-0.017,574,2019-08-07 16:46:26:488
-6.3946,-6.8883,0.5479,-0.2086,-0.3405,0.1113,-0.0048,0.0015,-0.0191,580,2019-08-07 16:46:26:494
-6.3946,-6.8883,0.5479,-0.2086,-0.3405,0.1113,-0.0048,0.0015,-0.0191,584,2019-08-07 16:46:26:498
-6.3946,-6.8883,0.5479,-0.2086,-0.3405,0.1113,-0.0058,0.0026,-0.017,589,2019-08-07 16:46:26:503
-6.3611,-6.8979,0.595,-0.2086,-0.3405,0.1113,-0.0058,0.0026,-0.017,594,2019-08-07 16:46:26:508
-6.3611,-6.8979,0.595,-0.3114,-0.2474,-0.022,-0.0058,0.0026,-0.017,599,2019-08-07 16:46:26:513
-6.2894,-6.9313,0.661,-0.3114,-0.2474,-0.022,-0.0143,0.0026,-0.0191,604,2019-08-07 16:46:26:518
-6.2894,-6.9313,0.661,-0.3114,-0.2474,-0.022,-0.0143,0.0026,-0.0191,609,2019-08-07 16:46:26:523
-6.3325,-6.917,0.7223,-0.2808,-0.2493,0.0143,-0.0101,0.0015,-0.0191,615,2019-08-07 16:46:26:529
-6.3325,-6.917,0.7223,-0.2808,-0.2493,0.0143,-0.0101,0.0015,-0.0191,619,2019-08-07 16:46:26:533
-6.3325,-6.917,0.7223,-0.2808,-0.2493,0.0143,-0.0101,0.0015,-0.0191,624,2019-08-07 16:46:26:538
-6.2129,-6.9504,0.6375,-0.2808,-0.2493,0.0143,-0.0016,-0.0102,-0.0031,630,2019-08-07 16:46:26:544
-6.2129,-6.9504,0.6375,-0.4464,-0.2796,0.0575,-0.0016,-0.0102,-0.0031,634,2019-08-07 16:46:26:548
-6.2129,-6.9504,0.6375,-0.4464,-0.2796,0.0575,-0.0016,-0.0123,0.0065,638,2019-08-07 16:46:26:552
-6.2464,-6.9456,0.7317,-0.4464,-0.2796,0.0575,-0.0016,-0.0123,0.0065,644,2019-08-07 16:46:26:558
-6.2464,-6.9456,0.7317,-0.4464,-0.2796,0.0575,-5.0E-4,-0.0219,0.0171,648,2019-08-07 16:46:26:562
-6.2464,-6.9456,0.7317,-0.4899,-0.2168,-0.0061,-5.0E-4,-0.0219,0.0171,654,2019-08-07 16:46:26:568
-6.1316,-7.0029,0.6893,-0.4899,-0.2168,-0.0061,0.0038,-0.0208,0.0299,659,2019-08-07 16:46:26:573
-6.1316,-7.0029,0.6893,-0.4899,-0.2168,-0.0061,0.0038,-0.0208,0.0299,664,2019-08-07 16:46:26:578
-6.1316,-6.9695,0.7223,-0.4899,-0.2168,-0.0061,-0.0026,-0.0155,0.0395,668,2019-08-07 16:46:26:582
-6.1316,-6.9695,0.7223,-0.5312,-0.2471,-0.0452,-0.0026,-0.0155,0.0395,674,2019-08-07 16:46:26:588
-6.1316,-6.9695,0.7223,-0.5312,-0.2471,-0.0452,-0.0058,-0.0177,0.0555,679,2019-08-07 16:46:26:593
-6.0838,-6.9313,0.7223,-0.5312,-0.2471,-0.0452,-0.0058,-0.0177,0.0555,684,2019-08-07 16:46:26:598
-6.0838,-6.9313,0.7223,-0.5312,-0.2471,-0.0452,-0.0058,-0.0177,0.0555,688,2019-08-07 16:46:26:602
-6.1316,-6.874,0.6327,-0.5667,-0.3028,0.0037,-0.0143,-0.0134,0.0757,694,2019-08-07 16:46:26:608
-6.1316,-6.874,0.6327,-0.5667,-0.3028,0.0037,-0.0143,-0.0134,0.0757,699,2019-08-07 16:46:26:613
-6.1316,-6.874,0.6327,-0.5667,-0.3028,0.0037,-0.0186,5.0E-4,0.0895,704,2019-08-07 16:46:26:618
-6.2656,-6.9122,0.4866,-0.5667,-0.3028,0.0037,-0.0186,5.0E-4,0.0895,709,2019-08-07 16:46:26:623
-6.2656,-6.9122,0.4866,-0.3009,-0.2731,0.1985,-0.0239,0.01,0.0874,714,2019-08-07 16:46:26:628
-6.2656,-6.9122,0.4866,-0.3009,-0.2731,0.1985,-0.0239,0.01,0.0874,719,2019-08-07 16:46:26:633
-6.3852,-6.8597,0.4724,-0.3009,-0.2731,0.1985,-0.025,0.0122,0.0821,724,2019-08-07 16:46:26:638
-6.3852,-6.8597,0.4724,-0.3009,-0.2731,0.1985,-0.025,0.0122,0.0821,730,2019-08-07 16:46:26:644
-6.4235,-6.9551,0.298,-0.2414,-0.2145,0.3428,-0.025,0.0122,0.0821,734,2019-08-07 16:46:26:648
-6.4235,-6.9551,0.298,-0.2414,-0.2145,0.3428,-0.0261,0.0377,0.0608,739,2019-08-07 16:46:26:653
-6.4235,-6.9551,0.298,-0.2414,-0.2145,0.3428,-0.0261,0.0377,0.0608,744,2019-08-07 16:46:26:658
-6.6197,-6.9265,0.3829,-0.2414,-0.2145,0.3428,-0.0261,0.0793,0.0363,749,2019-08-07 16:46:26:663
-6.6197,-6.9265,0.3829,0.0424,-0.175,0.243,-0.0261,0.0793,0.0363,754,2019-08-07 16:46:26:668
-6.7489,-7.022,0.4394,0.0424,-0.175,0.243,-0.0207,0.1006,0.0075,759,2019-08-07 16:46:26:673
-6.7489,-7.022,0.4394,0.0424,-0.175,0.243,-0.0207,0.1006,0.0075,764,2019-08-07 16:46:26:678
-6.8781,-7.1031,0.3782,0.0424,-0.175,0.243,-0.0026,0.0697,-0.0255,769,2019-08-07 16:46:26:683
-6.8781,-7.1031,0.3782,0.1986,-0.0888,0.1141,-0.0026,0.0697,-0.0255,773,2019-08-07 16:46:26:687
-6.8781,-7.1031,0.3782,0.1986,-0.0888,0.1141,-0.0026,0.0697,-0.0255,779,2019-08-07 16:46:26:693
-6.7632,-7.084,0.5337,0.1986,-0.0888,0.1141,0.008,0.0271,-0.0415,783,2019-08-07 16:46:26:697
-6.7632,-7.084,0.5337,0.1986,-0.0888,0.1141,0.008,0.0271,-0.0415,789,2019-08-07 16:46:26:703
-6.7632,-7.084,0.5337,-0.0449,-0.0987,0.003,0.0144,-0.0027,-0.0521,793,2019-08-07 16:46:26:707
-6.6245,-7.0601,0.595,-0.0449,-0.0987,0.003,0.0144,-0.0027,-0.0521,799,2019-08-07 16:46:26:713
-6.6245,-7.0601,0.595,-0.0449,-0.0987,0.003,0.0261,-0.0326,-0.0575,803,2019-08-07 16:46:26:717
-6.4284,-7.0363,0.6186,-0.0449,-0.0987,0.003,0.0261,-0.0326,-0.0575,809,2019-08-07 16:46:26:723
-6.4284,-7.0363,0.6186,-0.2656,-0.1112,-0.0555,0.0347,-0.0422,-0.0596,814,2019-08-07 16:46:26:728
-6.4284,-7.0363,0.6186,-0.2656,-0.1112,-0.0555,0.0347,-0.0422,-0.0596,819,2019-08-07 16:46:26:733
-6.4284,-7.0363,0.6186,-0.2656,-0.1112,-0.0555,0.0389,-0.0464,-0.0511,824,2019-08-07 16:46:26:738
-6.3423,-7.0029,0.6751,-0.2656,-0.1112,-0.0555,0.0389,-0.0464,-0.0511,829,2019-08-07 16:46:26:743
-6.3423,-7.0029,0.6751,-0.4001,-0.1376,-0.0295,0.0368,-0.0411,-0.0436,834,2019-08-07 16:46:26:748
-6.2514,-7.0124,0.6987,-0.4001,-0.1376,-0.0295,0.0368,-0.0411,-0.0436,839,2019-08-07 16:46:26:753
-6.2514,-7.0124,0.6987,-0.4001,-0.1376,-0.0295,0.0336,-0.023,-0.0415,844,2019-08-07 16:46:26:758
-6.2562,-6.8883,0.694,-0.4001,-0.1376,-0.0295,0.0336,-0.023,-0.0415,848,2019-08-07 16:46:26:762
-6.2562,-6.8883,0.694,-0.3642,-0.3391,-0.0484,0.0336,-0.0145,-0.0404,854,2019-08-07 16:46:26:768
-6.2562,-6.8883,0.694,-0.3642,-0.3391,-0.0484,0.0336,-0.0145,-0.0404,859,2019-08-07 16:46:26:773
-6.3041,-6.8214,0.6798,-0.3642,-0.3391,-0.0484,0.0272,-0.0049,-0.0362,864,2019-08-07 16:46:26:778
-6.3041,-6.8214,0.6798,-0.3642,-0.3391,-0.0484,0.0272,-0.0049,-0.0362,868,2019-08-07 16:46:26:782
-6.3041,-6.8214,0.6798,-0.2774,-0.3628,-0.0485,0.0102,0.0143,-0.0351,875,2019-08-07 16:46:26:789
-6.3423,-6.8644,0.7175,-0.2774,-0.3628,-0.0485,0.0102,0.0143,-0.0351,879,2019-08-07 16:46:26:793
-6.3423,-6.8644,0.7175,-0.2774,-0.3628,-0.0485,0.0027,0.0079,-0.0351,884,2019-08-07 16:46:26:798
-6.3423,-6.8644,0.7175,-0.2774,-0.3628,-0.0485,0.0027,0.0079,-0.0351,888,2019-08-07 16:46:26:802
-6.4524,-6.8596,0.6798,-0.2774,-0.3628,-0.0485,0.0027,0.0079,-0.0351,893,2019-08-07 16:46:26:807
-6.4524,-6.8596,0.6798,-0.2587,-0.3191,-0.0106,-0.0026,-0.0102,-0.0276,899,2019-08-07 16:46:26:813
-6.3807,-6.9121,0.6374,-0.2587,-0.3191,-0.0106,-0.0026,-0.0102,-0.0276,904,2019-08-07 16:46:26:818
-6.3807,-6.9121,0.6374,-0.2587,-0.3191,-0.0106,-0.0026,-0.0198,-0.0255,909,2019-08-07 16:46:26:823
-6.3807,-6.9121,0.6374,-0.2587,-0.3191,-0.0106,-0.0026,-0.0198,-0.0255,914,2019-08-07 16:46:26:828
-6.3233,-6.8883,0.5761,-0.3075,-0.3129,0.0667,-0.0037,-0.0208,-0.017,918,2019-08-07 16:46:26:832
-6.3233,-6.8883,0.5761,-0.3075,-0.3129,0.0667,-0.0037,-0.0208,-0.017,924,2019-08-07 16:46:26:838
-6.285,-6.9121,0.5997,-0.3075,-0.3129,0.0667,6.0E-4,-0.0177,-0.0095,929,2019-08-07 16:46:26:843
-6.285,-6.9121,0.5997,-0.3075,-0.3129,0.0667,6.0E-4,-0.0177,-0.0095,933,2019-08-07 16:46:26:847
-6.285,-6.9121,0.5997,-0.3098,-0.2863,-0.0158,6.0E-4,-0.0177,-0.0095,939,2019-08-07 16:46:26:853
-6.3185,-6.9503,0.6327,-0.3098,-0.2863,-0.0158,6.0E-4,-0.0177,-0.0074,943,2019-08-07 16:46:26:857
-6.3185,-6.9503,0.6327,-0.3098,-0.2863,-0.0158,6.0E-4,-0.0177,-0.0074,949,2019-08-07 16:46:26:863
-6.3185,-6.9503,0.6327,-0.3098,-0.2863,-0.0158,-0.0016,-0.024,0.0022,954,2019-08-07 16:46:26:868
-6.2946,-6.936,0.529,-0.3323,-0.2682,0.1186,-0.0016,-0.024,0.0022,959,2019-08-07 16:46:26:873
-6.2946,-6.936,0.529,-0.3323,-0.2682,0.1186,-0.0048,-0.0198,-0.0031,964,2019-08-07 16:46:26:878
-6.2755,-6.9837,0.5431,-0.3323,-0.2682,0.1186,-0.0048,-0.0198,-0.0031,969,2019-08-07 16:46:26:883
-6.2755,-6.9837,0.5431,-0.3323,-0.2682,0.1186,-0.0048,-0.0198,-0.0031,973,2019-08-07 16:46:26:887
-6.2755,-6.9837,0.5431,-0.3745,-0.245,0.1528,-0.0026,-0.0102,1.0E-4,979,2019-08-07 16:46:26:893
-6.3138,-6.9742,0.5195,-0.3745,-0.245,0.1528,-0.0026,-0.0102,1.0E-4,984,2019-08-07 16:46:26:898
-6.3138,-6.9742,0.5195,-0.3745,-0.245,0.1528,-0.0037,0.009,-0.0063,988,2019-08-07 16:46:26:902
-6.3855,-6.9456,0.5337,-0.3745,-0.245,0.1528,-0.0037,0.009,-0.0063,994,2019-08-07 16:46:26:908
-6.3855,-6.9456,0.5337,-0.2873,-0.2604,0.0804,-0.0037,0.0143,-0.0117,998,2019-08-07 16:46:26:912
-6.3855,-6.9456,0.5337,-0.2873,-0.2604,0.0804,-0.0037,0.0143,-0.0117,1004,2019-08-07 16:46:26:918
-6.3951,-6.9646,0.5572,-0.2873,-0.2604,0.0804,-0.0016,0.009,-0.0149,1009,2019-08-07 16:46:26:923
-6.3951,-6.9646,0.5572,-0.2873,-0.2604,0.0804,-0.0016,0.009,-0.0149,1014,2019-08-07 16:46:26:928
-6.4669,-6.9074,0.6091,-0.1662,-0.2668,0.0311,-5.0E-4,-0.0049,-0.0159,1018,2019-08-07 16:46:26:932
-6.4669,-6.9074,0.6091,-0.1662,-0.2668,0.0311,-5.0E-4,-0.0049,-0.0159,1024,2019-08-07 16:46:26:938
-6.4669,-6.9074,0.6091,-0.1662,-0.2668,0.0311,-5.0E-4,-0.023,-0.0159,1029,2019-08-07 16:46:26:943
-6.3665,-6.936,0.6185,-0.1662,-0.2668,0.0311,-5.0E-4,-0.023,-0.0159,1034,2019-08-07 16:46:26:948
-6.3665,-6.936,0.6185,-0.2885,-0.2637,0.0517,-5.0E-4,-0.023,-0.0159,1039,2019-08-07 16:46:26:953
-6.3665,-6.936,0.6185,-0.2885,-0.2637,0.0517,-0.0058,-0.0368,-0.0106,1043,2019-08-07 16:46:26:957
-6.2804,-6.9408,0.5714,-0.2885,-0.2637,0.0517,-0.0058,-0.0368,-0.0106,1049,2019-08-07 16:46:26:963
-6.2804,-6.9408,0.5714,-0.2885,-0.2637,0.0517,-0.0058,-0.0336,-0.0063,1053,2019-08-07 16:46:26:967
-6.1608,-7.0362,0.5572,-0.4581,-0.1751,0.0932,-0.0058,-0.0336,-0.0063,1059,2019-08-07 16:46:26:973
-6.1608,-7.0362,0.5572,-0.4581,-0.1751,0.0932,-0.0016,-0.0145,-0.0031,1064,2019-08-07 16:46:26:978
-6.1608,-7.0362,0.5572,-0.4581,-0.1751,0.0932,-0.0016,-0.0145,-0.0031,1068,2019-08-07 16:46:26:982
-6.1895,-7.0219,0.5949,-0.4581,-0.1751,0.0932,0.0027,0.0068,-0.001,1074,2019-08-07 16:46:26:988
-6.1895,-7.0219,0.5949,-0.4181,-0.2196,0.0325,0.0027,0.0068,-0.001,1079,2019-08-07 16:46:26:993
-6.2326,-7.0458,0.5902,-0.4181,-0.2196,0.0325,0.0059,0.0271,0.0022,1084,2019-08-07 16:46:26:998
-6.2326,-7.0458,0.5902,-0.4181,-0.2196,0.0325,0.0059,0.0271,0.0022,1089,2019-08-07 16:46:27:003
-6.333,-6.9885,0.6091,-0.4181,-0.2196,0.0325,0.0038,0.0356,0.0033,1094,2019-08-07 16:46:27:008
-6.333,-6.9885,0.6091,-0.2221,-0.2007,0.034,0.0038,0.0356,0.0033,1100,2019-08-07 16:46:27:014
-6.333,-6.9885,0.6091,-0.2221,-0.2007,0.034,0.0038,0.0356,0.0033,1104,2019-08-07 16:46:27:018
-6.4287,-6.9551,0.6373,-0.2221,-0.2007,0.034,0.0038,0.0239,0.0011,1108,2019-08-07 16:46:27:022
-6.4287,-6.9551,0.6373,-0.2221,-0.2007,0.034,0.0038,0.0239,0.0011,1114,2019-08-07 16:46:27:028
-6.4287,-6.9551,0.6373,-0.2275,-0.267,-0.0245,0.0048,0.0132,0.0022,1118,2019-08-07 16:46:27:032
-6.3809,-6.9455,0.6468,-0.2275,-0.267,-0.0245,0.0048,0.0132,0.0022,1124,2019-08-07 16:46:27:038
-6.3809,-6.9455,0.6468,-0.2275,-0.267,-0.0245,0.0038,-0.0059,-0.0053,1129,2019-08-07 16:46:27:043
-6.3809,-6.9408,0.642,-0.2275,-0.267,-0.0245,0.0038,-0.0059,-0.0053,1135,2019-08-07 16:46:27:049
-6.3809,-6.9408,0.642,-0.3273,-0.2914,-0.028,0.0048,-0.0049,-0.0053,1139,2019-08-07 16:46:27:053
-6.3809,-6.9408,0.642,-0.3273,-0.2914,-0.028,0.0048,-0.0049,-0.0053,1144,2019-08-07 16:46:27:058
-6.3475,-6.9217,0.6326,-0.2836,-0.2394,-0.0133,0.0102,0.0068,-0.0117,1149,2019-08-07 16:46:27:063
-6.3475,-6.9217,0.6326,-0.2836,-0.2394,-0.0133,0.0102,0.0068,-0.0117,1154,2019-08-07 16:46:27:068
-6.4049,-6.9121,0.6562,-0.2836,-0.2394,-0.0133,0.0102,0.0068,-0.0117,1159,2019-08-07 16:46:27:073
-6.4049,-6.9121,0.6562,-0.2836,-0.2394,-0.0133,0.0059,-0.0038,-0.0095,1164,2019-08-07 16:46:27:078
-6.4049,-6.9121,0.6562,-0.239,-0.3028,0.0445,0.0059,-0.0038,-0.0095,1169,2019-08-07 16:46:27:083
-6.3762,-6.8691,0.6656,-0.239,-0.3028,0.0445,0.0059,-0.0038,-0.0095,1174,2019-08-07 16:46:27:088
-6.3762,-6.8691,0.6656,-0.239,-0.3028,0.0445,0.0059,-0.0208,-0.0095,1179,2019-08-07 16:46:27:093
-6.3092,-6.8882,0.675,-0.239,-0.3028,0.0445,0.0059,-0.0208,-0.0095,1184,2019-08-07 16:46:27:098
-6.3092,-6.8882,0.675,-0.3234,-0.2993,0.0335,-0.0069,-0.0262,-0.0085,1189,2019-08-07 16:46:27:103
-6.3092,-6.8882,0.675,-0.3234,-0.2993,0.0335,-0.0069,-0.0262,-0.0085,1193,2019-08-07 16:46:27:107
-6.2423,-6.9217,0.5949,-0.3234,-0.2993,0.0335,-0.0111,-0.0187,-0.001,1199,2019-08-07 16:46:27:113
-6.2423,-6.9217,0.5949,-0.3234,-0.2993,0.0335,-0.0111,-0.0187,-0.001,1204,2019-08-07 16:46:27:118
-6.2423,-6.9217,0.5949,-0.3234,-0.2993,0.0335,-0.0111,-0.0187,-0.001,1209,2019-08-07 16:46:27:123
-6.2375,-7.0171,0.6043,-0.375,-0.1999,0.0483,-0.0165,-0.0038,0.0022,1214,2019-08-07 16:46:27:128
-6.2375,-7.0171,0.6043,-0.375,-0.1999,0.0483,-0.0165,-0.0038,0.0022,1219,2019-08-07 16:46:27:133
-6.2614,-6.9312,0.5713,-0.375,-0.1999,0.0483,-0.0207,0.0037,0.0096,1224,2019-08-07 16:46:27:138
-6.2614,-6.9312,0.5713,-0.375,-0.1999,0.0483,-0.0207,0.0037,0.0096,1230,2019-08-07 16:46:27:144
-6.2471,-6.936,0.6373,-0.4138,-0.2713,0.0498,-0.0271,0.0058,0.0139,1234,2019-08-07 16:46:27:148
-6.2471,-6.936,0.6373,-0.4138,-0.2713,0.0498,-0.0271,0.0058,0.0139,1239,2019-08-07 16:46:27:153
-6.2471,-6.936,0.6373,-0.4138,-0.2713,0.0498,-0.0325,0.0047,0.0192,1244,2019-08-07 16:46:27:158
-6.2136,-6.893,0.6279,-0.4207,-0.2936,0.0214,-0.0325,0.0047,0.0192,1250,2019-08-07 16:46:27:164
-6.2136,-6.893,0.6279,-0.4207,-0.2936,0.0214,-0.0356,-0.0091,0.0299,1254,2019-08-07 16:46:27:168
-6.228,-6.893,0.6467,-0.4207,-0.2936,0.0214,-0.0356,-0.0091,0.0299,1259,2019-08-07 16:46:27:173
-6.228,-6.893,0.6467,-0.4207,-0.2936,0.0214,-0.0388,-0.0166,0.0395,1265,2019-08-07 16:46:27:179
-6.228,-6.893,0.6467,-0.4584,-0.3378,-0.0107,-0.0388,-0.0166,0.0395,1269,2019-08-07 16:46:27:183
-6.1802,-6.8787,0.642,-0.4584,-0.3378,-0.0107,-0.0388,-0.0166,0.0395,1274,2019-08-07 16:46:27:188
-6.1802,-6.8787,0.642,-0.4584,-0.3378,-0.0107,-0.0378,-0.0251,0.0491,1279,2019-08-07 16:46:27:193
-6.1802,-6.8787,0.642,-0.495,-0.3876,0.0542,-0.0378,-0.0251,0.0491,1284,2019-08-07 16:46:27:198
-6.0988,-6.8262,0.5713,-0.495,-0.3876,0.0542,-0.0399,-0.0262,0.065,1289,2019-08-07 16:46:27:203
-6.0988,-6.8262,0.5713,-0.495,-0.3876,0.0542,-0.0399,-0.0262,0.065,1294,2019-08-07 16:46:27:208
-6.0319,-6.7737,0.5854,-0.495,-0.3876,0.0542,-0.0463,-0.0102,0.08,1300,2019-08-07 16:46:27:214
-6.0319,-6.7737,0.5854,-0.6045,-0.4655,0.055,-0.0463,-0.0102,0.08,1304,2019-08-07 16:46:27:218
-6.0319,-6.7737,0.5854,-0.6045,-0.4655,0.055,-0.0474,-0.0027,0.1013,1308,2019-08-07 16:46:27:222
-6.1324,-6.7689,0.6231,-0.6045,-0.4655,0.055,-0.0474,-0.0027,0.1013,1314,2019-08-07 16:46:27:228
-6.1324,-6.7689,0.6231,-0.6045,-0.4655,0.055,-0.0463,5.0E-4,0.1183,1319,2019-08-07 16:46:27:233
-6.1324,-6.7689,0.6231,-0.4903,-0.4475,-0.0082,-0.0463,5.0E-4,0.1183,1324,2019-08-07 16:46:27:238
-6.1754,-6.6591,0.5949,-0.4903,-0.4475,-0.0082,-0.0559,-0.0123,0.1364,1329,2019-08-07 16:46:27:243
-6.1754,-6.6591,0.5949,-0.4903,-0.4475,-0.0082,-0.0559,-0.0123,0.1364,1334,2019-08-07 16:46:27:248
-6.0989,-6.64,0.6797,-0.4903,-0.4475,-0.0082,-0.0719,-0.0379,0.1737,1339,2019-08-07 16:46:27:253
-6.0989,-6.64,0.6797,-0.574,-0.533,-0.0323,-0.0719,-0.0379,0.1737,1343,2019-08-07 16:46:27:257
-6.0989,-6.64,0.6797,-0.574,-0.533,-0.0323,-0.0761,-0.0485,0.1982,1349,2019-08-07 16:46:27:263
-6.0798,-6.5445,0.7551,-0.574,-0.533,-0.0323,-0.0761,-0.0485,0.1982,1354,2019-08-07 16:46:27:268
-6.0798,-6.5445,0.7551,-0.574,-0.533,-0.0323,-0.0878,-0.089,0.2387,1359,2019-08-07 16:46:27:273
-6.386,-6.3917,0.939,-0.3926,-0.6778,-0.2604,-0.0878,-0.089,0.2387,1364,2019-08-07 16:46:27:278
-6.386,-6.3917,0.939,-0.3926,-0.6778,-0.2604,-0.091,-0.1689,0.2973,1369,2019-08-07 16:46:27:283
-6.386,-6.3917,0.939,-0.3926,-0.6778,-0.2604,-0.091,-0.1689,0.2973,1374,2019-08-07 16:46:27:288
-6.3956,-6.2103,1.2689,-0.3926,-0.6778,-0.2604,-0.091,-0.1689,0.2973,1380,2019-08-07 16:46:27:294
-6.3956,-6.2103,1.2689,-0.3221,-1.1689,-0.6792,-0.0942,-0.3298,0.375,1384,2019-08-07 16:46:27:298
-6.2999,-5.6709,1.3868,-0.3221,-1.1689,-0.6792,-0.0942,-0.3298,0.375,1389,2019-08-07 16:46:27:303
-6.2999,-5.6709,1.3868,-0.3221,-1.1689,-0.6792,-0.1049,-0.5364,0.5103,1394,2019-08-07 16:46:27:308
-6.1277,-5.4131,1.5093,-0.3221,-1.1689,-0.6792,-0.1049,-0.5364,0.5103,1399,2019-08-07 16:46:27:313
-6.1277,-5.4131,1.5093,-0.7204,-1.6463,-0.8268,-0.1358,-0.7719,0.6882,1404,2019-08-07 16:46:27:318
-6.1277,-5.4131,1.5093,-0.7204,-1.6463,-0.8268,-0.1358,-0.7719,0.6882,1409,2019-08-07 16:46:27:323
-5.6684,-5.1505,1.5706,-0.7204,-1.6463,-0.8268,-0.1358,-0.7719,0.6882,1415,2019-08-07 16:46:27:329
-5.6684,-5.1505,1.5706,-0.7204,-1.6463,-0.8268,-0.1571,-0.9636,0.8587,1420,2019-08-07 16:46:27:334
-5.6684,-5.1505,1.5706,-1.5539,-2.0019,-0.6769,-0.1571,-0.9636,0.8587,1424,2019-08-07 16:46:27:338
-5.2378,-4.8641,1.5706,-1.5539,-2.0019,-0.6769,-0.1773,-1.1191,1.0504,1429,2019-08-07 16:46:27:343
-5.2378,-4.8641,1.5706,-1.5539,-2.0019,-0.6769,-0.1773,-1.1191,1.0504,1435,2019-08-07 16:46:27:349
-4.7451,-4.5681,1.5423,-1.5539,-2.0019,-0.6769,-0.1944,-1.297,1.3316,1438,2019-08-07 16:46:27:352
-4.7451,-4.5681,1.5423,-2.5296,-2.298,-0.4457,-0.1944,-1.297,1.3316,1444,2019-08-07 16:46:27:358
-4.2475,-4.1433,1.2265,-2.5296,-2.298,-0.4457,-0.1986,-1.3833,1.5671,1449,2019-08-07 16:46:27:363
-4.2475,-4.1433,1.2265,-2.5296,-2.298,-0.4457,-0.1986,-1.3833,1.5671,1454,2019-08-07 16:46:27:368
-4.2475,-4.1433,1.2265,-2.5296,-2.298,-0.4457,-0.1805,-1.4131,1.8355,1459,2019-08-07 16:46:27:373
-3.6495,-3.6993,0.8494,-3.803,-2.9208,0.4057,-0.1805,-1.4131,1.8355,1465,2019-08-07 16:46:27:379
-3.6495,-3.6993,0.8494,-3.803,-2.9208,0.4057,-0.1145,-1.3567,2.2062,1470,2019-08-07 16:46:27:384
-3.6495,-3.6993,0.8494,-3.803,-2.9208,0.4057,-0.1145,-1.3567,2.2062,1474,2019-08-07 16:46:27:388
-2.2621,-3.0644,0.1753,-3.803,-2.9208,0.4057,-0.1145,-1.3567,2.2062,1480,2019-08-07 16:46:27:394
-2.2621,-3.0644,0.1753,-5.8003,-3.4399,1.3816,-0.0101,-1.1745,2.5279,1484,2019-08-07 16:46:27:398
-1.3436,-2.5488,-0.216,-5.8003,-3.4399,1.3816,-0.0101,-1.1745,2.5279,1489,2019-08-07 16:46:27:403
-1.3436,-2.5488,-0.216,-5.8003,-3.4399,1.3816,0.1412,-0.8784,2.872,1494,2019-08-07 16:46:27:408
-0.8986,-2.081,-0.1358,-5.8003,-3.4399,1.3816,0.1412,-0.8784,2.872,1499,2019-08-07 16:46:27:413
-0.8986,-2.081,-0.1358,-6.9866,-4.0273,1.4073,0.3564,-0.4512,3.3429,1504,2019-08-07 16:46:27:418
-0.8986,-2.081,-0.1358,-6.9866,-4.0273,1.4073,0.3564,-0.4512,3.3429,1509,2019-08-07 16:46:27:423
-0.8077,-1.1644,0.2696,-6.9866,-4.0273,1.4073,0.4906,-0.2019,3.7658,1514,2019-08-07 16:46:27:428
-0.8077,-1.1644,0.2696,-6.9866,-4.0273,1.4073,0.4906,-0.2019,3.7658,1519,2019-08-07 16:46:27:433
-0.8077,-1.1644,0.2696,-6.9866,-4.0273,1.4073,0.4906,-0.2019,3.7658,1524,2019-08-07 16:46:27:438
-0.9417,-0.3719,0.5854,-7.2568,-4.7806,0.9866,0.5801,-0.0944,4.2334,1529,2019-08-07 16:46:27:443
-0.9417,-0.3719,0.5854,-7.2568,-4.7806,0.9866,0.5801,-0.0944,4.2334,1534,2019-08-07 16:46:27:448
-1.0374,0.2916,0.8493,-7.2568,-4.7806,0.9866,0.6632,-0.1679,4.8662,1539,2019-08-07 16:46:27:453
-1.0374,0.2916,0.8493,-7.698,-4.6652,0.8563,0.6632,-0.1679,4.8662,1544,2019-08-07 16:46:27:458
-1.0374,0.2916,0.8493,-7.698,-4.6652,0.8563,0.726,-0.3095,5.3956,1549,2019-08-07 16:46:27:463
-0.9465,0.4778,1.1086,-7.698,-4.6652,0.8563,0.726,-0.3095,5.3956,1553,2019-08-07 16:46:27:467
-0.9465,0.4778,1.1086,-7.698,-4.6652,0.8563,0.8027,-0.5013,6.0284,1559,2019-08-07 16:46:27:473
-1.004,0.7022,0.9059,-8.0798,-3.8979,0.9672,0.8027,-0.5013,6.0284,1565,2019-08-07 16:46:27:479
-1.004,0.7022,0.9059,-8.0798,-3.8979,0.9672,0.8027,-0.5013,6.0284,1569,2019-08-07 16:46:27:483
-1.004,0.7022,0.9059,-8.0798,-3.8979,0.9672,0.8507,-0.6504,6.4843,1574,2019-08-07 16:46:27:488
-1.1236,1.5567,1.0285,-8.0798,-3.8979,0.9672,0.9295,-0.7846,6.904,1579,2019-08-07 16:46:27:493
-1.1236,1.5567,1.0285,-8.0798,-3.8979,0.9672,0.9295,-0.7846,6.904,1584,2019-08-07 16:46:27:498
-1.1236,1.5567,1.0285,-8.0725,-3.975,0.9387,0.9295,-0.7846,6.904,1589,2019-08-07 16:46:27:503
-1.602,2.5974,1.0944,-8.0725,-3.975,0.9387,1.0552,-0.9221,7.3855,1594,2019-08-07 16:46:27:508
-1.602,2.5974,1.0944,-8.0725,-3.975,0.9387,1.0552,-0.9221,7.3855,1599,2019-08-07 16:46:27:513
-2.5813,3.0507,1.7264,-6.9494,-3.36,0.5773,1.1532,-1.0797,7.8138,1604,2019-08-07 16:46:27:518
-2.5813,3.0507,1.7264,-6.9494,-3.36,0.5773,1.1532,-1.0797,7.8138,1608,2019-08-07 16:46:27:522
-2.5813,3.0507,1.7264,-6.9494,-3.36,0.5773,1.1532,-1.0797,7.8138,1614,2019-08-07 16:46:27:528
-3.9065,3.3945,3.1029,-6.9494,-3.36,0.5773,1.2214,-1.3673,8.1493,1619,2019-08-07 16:46:27:533
-3.9065,3.3945,3.1029,-6.9494,-3.36,0.5773,1.2214,-1.3673,8.1493,1624,2019-08-07 16:46:27:538
-3.9065,3.3945,3.1029,-4.769,-2.2418,-0.9065,1.3481,-1.8499,8.5382,1629,2019-08-07 16:46:27:543
-4.9399,3.7191,3.6921,-4.769,-2.2418,-0.9065,1.3481,-1.8499,8.5382,1634,2019-08-07 16:46:27:548
-4.9399,3.7191,3.6921,-4.769,-2.2418,-0.9065,1.5484,-2.4252,8.9845,1639,2019-08-07 16:46:27:553
-5.2509,4.0151,2.919,-4.769,-2.2418,-0.9065,1.5484,-2.4252,8.9845,1643,2019-08-07 16:46:27:557
-5.2509,4.0151,2.919,-3.5563,-0.9926,0.4633,1.8286,-2.8534,9.4468,1649,2019-08-07 16:46:27:563
-5.2509,4.0151,2.919,-3.5563,-0.9926,0.4633,1.8286,-2.8534,9.4468,1654,2019-08-07 16:46:27:568
-4.916,4.7836,2.113,-3.5563,-0.9926,0.4633,2.3015,-3.1144,9.9922,1659,2019-08-07 16:46:27:573
-4.916,4.7836,2.113,-3.5563,-0.9926,0.4633,2.3015,-3.1144,9.9922,1665,2019-08-07 16:46:27:579
-4.3036,7.0799,0.6422,-3.406,-1.4536,2.5102,2.9077,-2.7607,10.2969,1669,2019-08-07 16:46:27:583
-4.3036,7.0799,0.6422,-3.406,-1.4536,2.5102,2.9077,-2.7607,10.2969,1674,2019-08-07 16:46:27:588
-4.2127,12.5936,1.0288,-3.1044,-4.067,3.192,3.4818,-2.1205,10.3459,1680,2019-08-07 16:46:27:594
-4.2127,12.5936,1.0288,-3.1044,-4.067,3.192,3.4818,-2.1205,10.3459,1684,2019-08-07 16:46:27:598
-4.2127,12.5936,1.0288,-3.1044,-4.067,3.192,4.317,-1.1149,10.0785,1689,2019-08-07 16:46:27:603
-6.5761,19.53,4.3662,-3.1044,-4.067,3.192,4.317,-1.1149,10.0785,1694,2019-08-07 16:46:27:608
-6.5761,19.53,4.3662,2.7272,-15.7707,-2.9588,4.7783,-0.7974,9.6886,1699,2019-08-07 16:46:27:613
-6.5761,19.53,4.3662,2.7272,-15.7707,-2.9588,4.7783,-0.7974,9.6886,1704,2019-08-07 16:46:27:618
-13.4176,30.8583,8.6321,2.7272,-15.7707,-2.9588,4.7783,-0.7974,9.6886,1708,2019-08-07 16:46:27:622
-13.4176,30.8583,8.6321,2.7272,-15.7707,-2.9588,4.9423,-1.0382,9.1315,1714,2019-08-07 16:46:27:628
-21.4551,38.0142,7.9675,16.1294,-28.8927,-6.2592,4.9423,-1.0382,9.1315,1719,2019-08-07 16:46:27:633
-21.4551,38.0142,7.9675,16.1294,-28.8927,-6.2592,4.2052,-2.2973,8.1877,1724,2019-08-07 16:46:27:638
-21.4551,38.0142,7.9675,16.1294,-28.8927,-6.2592,4.2052,-2.2973,8.1877,1728,2019-08-07 16:46:27:642
-23.9094,33.966,-1.0359,16.1294,-28.8927,-6.2592,2.5007,-4.1967,7.572,1734,2019-08-07 16:46:27:648
-23.9094,33.966,-1.0359,18.5256,-20.0797,7.4252,2.5007,-4.1967,7.572,1739,2019-08-07 16:46:27:653
-12.3411,21.8644,-9.9497,18.5256,-20.0797,7.4252,0.1188,-6.0098,7.2705,1744,2019-08-07 16:46:27:658
-12.3411,21.8644,-9.9497,7.234,-10.2936,12.3394,0.1188,-6.0098,7.2705,1749,2019-08-07 16:46:27:663
-12.3411,21.8644,-9.9497,7.234,-10.2936,12.3394,-2.1992,-6.2835,6.005,1754,2019-08-07 16:46:27:668
1.8728,13.8109,-9.5914,7.234,-10.2936,12.3394,-2.1992,-6.2835,6.005,1758,2019-08-07 16:46:27:672
1.8728,13.8109,-9.5914,-17.9079,1.2579,-27.242,-2.2173,-1.1064,4.1322,1765,2019-08-07 16:46:27:679
1.8728,13.8109,-9.5914,-17.9079,1.2579,-27.242,-2.2173,-1.1064,4.1322,1769,2019-08-07 16:46:27:683
18.3115,5.0462,25.8941,-17.9079,1.2579,-27.242,-2.2173,-1.1064,4.1322,1774,2019-08-07 16:46:27:688
18.3115,5.0462,25.8941,-9.3382,4.2579,-11.0905,1.2341,0.3754,0.945,1779,2019-08-07 16:46:27:693
2.557,7.2899,11.1823,-9.3382,4.2579,-11.0905,1.2341,0.3754,0.945,1784,2019-08-07 16:46:27:698
2.557,7.2899,11.1823,-9.3382,4.2579,-11.0905,2.7639,3.6266,-1.1099,1789,2019-08-07 16:46:27:703
2.557,7.2899,11.1823,-9.3382,4.2579,-11.0905,2.7639,3.6266,-1.1099,1794,2019-08-07 16:46:27:708
-6.1216,13.3049,-3.0487,6.7037,-4.9684,3.9504,1.3758,5.2405,-2.1358,1799,2019-08-07 16:46:27:713
-6.1216,13.3049,-3.0487,6.7037,-4.9684,3.9504,1.3758,5.2405,-2.1358,1804,2019-08-07 16:46:27:718
-12.5756,18.3986,2.8012,6.7037,-4.9684,3.9504,-0.3371,5.0264,-3.2458,1808,2019-08-07 16:46:27:722
-12.5756,18.3986,2.8012,6.7037,-4.9684,3.9504,-0.3371,5.0264,-3.2458,1814,2019-08-07 16:46:27:728
-12.5756,18.3986,2.8012,16.5652,-8.5796,-5.8396,-0.3371,5.0264,-3.2458,1818,2019-08-07 16:46:27:732
-12.5756,18.3986,2.8012,16.5652,-8.5796,-5.8396,-2.0309,3.0684,-4.081,1824,2019-08-07 16:46:27:738
-19.2113,16.7659,9.8389,16.5652,-8.5796,-5.8396,-2.0309,3.0684,-4.081,1829,2019-08-07 16:46:27:743
-19.2113,16.7659,9.8389,16.5652,-8.5796,-5.8396,-2.6285,1.6101,-4.1939,1834,2019-08-07 16:46:27:748
-15.2356,13.7966,17.2348,12.9952,-4.4984,-15.0533,-2.6285,1.6101,-4.1939,1839,2019-08-07 16:46:27:753
-15.2356,13.7966,17.2348,12.9952,-4.4984,-15.0533,-1.9158,1.0423,-4.3558,1844,2019-08-07 16:46:27:758
-11.8867,13.0853,9.8436,12.9952,-4.4984,-15.0533,-1.9158,1.0423,-4.3558,1850,2019-08-07 16:46:27:764
-11.8867,13.0853,9.8436,12.9952,-4.4984,-15.0533,-0.9518,0.5704,-5.0354,1853,2019-08-07 16:46:27:767
-11.8867,13.0853,9.8436,7.8849,-5.6508,-2.1425,-0.9518,0.5704,-5.0354,1859,2019-08-07 16:46:27:773
-10.2265,15.2861,2.688,7.8849,-5.6508,-2.1425,-1.3257,0.907,-5.501,1865,2019-08-07 16:46:27:779
-10.2265,15.2861,2.688,7.8849,-5.6508,-2.1425,-1.3257,0.907,-5.501,1868,2019-08-07 16:46:27:782
-10.2265,15.2861,2.688,7.8849,-5.6508,-2.1425,-1.3257,0.907,-5.501,1874,2019-08-07 16:46:27:788
-9.1309,15.1715,-0.013,4.9862,-6.4887,2.7648,-2.1864,1.3981,-6.2253,1879,2019-08-07 16:46:27:793
-9.1309,15.1715,-0.013,4.9862,-6.4887,2.7648,-2.1864,1.3981,-6.2253,1884,2019-08-07 16:46:27:798
-9.1309,15.1715,-0.013,4.9862,-6.4887,2.7648,-2.881,2.3589,-6.8901,1889,2019-08-07 16:46:27:803
-10.6093,13.9207,2.6409,4.9862,-6.4887,2.7648,-2.881,2.3589,-6.8901,1894,2019-08-07 16:46:27:808
-10.6093,13.9207,2.6409,5.4387,-5.0894,-1.0018,-2.9438,2.8788,-7.1074,1899,2019-08-07 16:46:27:813
-10.7145,11.6102,4.3237,5.4387,-5.0894,-1.0018,-2.9438,2.8788,-7.1074,1904,2019-08-07 16:46:27:818
-10.7145,11.6102,4.3237,5.4387,-5.0894,-1.0018,-2.9438,2.8788,-7.1074,1908,2019-08-07 16:46:27:822
-10.7145,11.6102,4.3237,5.4387,-5.0894,-1.0018,-2.6828,3.3784,-7.1873,1914,2019-08-07 16:46:27:828
-9.6572,8.8319,4.6065,2.974,-1.1155,-0.7817,-2.6828,3.3784,-7.1873,1919,2019-08-07 16:46:27:833
-9.6572,8.8319,4.6065,2.974,-1.1155,-0.7817,-1.9212,3.9196,-7.4419,1924,2019-08-07 16:46:27:838
-9.6572,8.8319,4.6065,2.974,-1.1155,-0.7817,-1.9212,3.9196,-7.4419,1928,2019-08-07 16:46:27:842
-10.6428,6.464,2.1554,2.974,-1.1155,-0.7817,-1.7529,4.0261,-7.51,1934,2019-08-07 16:46:27:848
-10.6428,6.464,2.1554,2.974,-1.1155,-0.7817,-1.7529,4.0261,-7.51,1939,2019-08-07 16:46:27:853
-11.3508,5.705,1.8395,3.4956,-0.3419,0.5623,-1.7529,4.0261,-7.51,1944,2019-08-07 16:46:27:858
-11.3508,5.705,1.8395,3.4956,-0.3419,0.5623,-1.8136,3.5936,-7.3566,1949,2019-08-07 16:46:27:863
-10.8102,4.3779,2.3486,3.4956,-0.3419,0.5623,-1.8136,3.5936,-7.3566,1954,2019-08-07 16:46:27:868
-10.8102,4.3779,2.3486,3.4956,-0.3419,0.5623,-1.8573,2.9789,-7.1319,1959,2019-08-07 16:46:27:873
-10.8102,4.3779,2.3486,1.6324,0.1382,-1.1871,-1.8573,2.9789,-7.1319,1964,2019-08-07 16:46:27:878
-9.7386,3.3801,3.6826,1.6324,0.1382,-1.1871,-1.5696,2.3589,-6.9859,1969,2019-08-07 16:46:27:883
-9.7386,3.3801,3.6826,1.6324,0.1382,-1.1871,-1.5696,2.3589,-6.9859,1974,2019-08-07 16:46:27:888
-8.9826,2.9601,2.754,1.6324,0.1382,-1.1871,-1.2532,2.2237,-6.9071,1979,2019-08-07 16:46:27:893
-8.9826,2.9601,2.754,-0.6369,-0.1863,-0.6729,-1.2532,2.2237,-6.9071,1985,2019-08-07 16:46:27:899
-8.9826,2.9601,2.754,-0.6369,-0.1863,-0.6729,-1.2532,2.2237,-6.9071,1989,2019-08-07 16:46:27:903
-7.9732,2.9171,0.5291,-1.5064,-0.8753,0.9556,-0.8325,2.2301,-6.8166,1993,2019-08-07 16:46:27:907
-7.9732,2.9171,0.5291,-1.5064,-0.8753,0.9556,-0.8325,2.2301,-6.8166,1998,2019-08-07 16:46:27:912
-7.9732,2.9171,0.5291,-1.5064,-0.8753,0.9556,-0.6727,2.4005,-6.775,2003,2019-08-07 16:46:27:917
-6.8106,2.707,0.0247,-1.5064,-0.8753,0.9556,-0.6727,2.4005,-6.775,2009,2019-08-07 16:46:27:923
-6.8106,2.707,0.0247,-3.2051,-1.6597,1.0592,-0.5693,2.6146,-6.7537,2015,2019-08-07 16:46:27:929
-6.3035,1.5756,0.4725,-3.2051,-1.6597,1.0592,-0.5693,2.6146,-6.7537,2019,2019-08-07 16:46:27:933
-6.3035,1.5756,0.4725,-3.2051,-1.6597,1.0592,-0.5693,2.6146,-6.7537,2024,2019-08-07 16:46:27:938
-6.3035,1.5756,0.4725,-3.2051,-1.6597,1.0592,-0.3478,2.849,-6.6941,2030,2019-08-07 16:46:27:944
-6.6336,0.1196,0.8496,-3.1452,-0.7254,-0.3561,-0.3478,2.849,-6.6941,2033,2019-08-07 16:46:27:947
-6.6336,0.1196,0.8496,-3.1452,-0.7254,-0.3561,0.0741,2.9203,-6.5066,2039,2019-08-07 16:46:27:953
-6.6336,0.1196,0.8496,-3.1452,-0.7254,-0.3561,0.0741,2.9203,-6.5066,2044,2019-08-07 16:46:27:958
-7.5283,-0.7206,1.0995,-3.1452,-0.7254,-0.3561,0.3574,2.7946,-6.253,2049,2019-08-07 16:46:27:963
-7.5283,-0.7206,1.0995,-1.8158,-1.2676,-1.0956,0.3574,2.7946,-6.253,2054,2019-08-07 16:46:27:968
-7.5283,-0.7206,1.0995,-1.8158,-1.2676,-1.0956,0.3574,2.7946,-6.253,2058,2019-08-07 16:46:27:972
-7.978,-0.31,1.4954,-1.8158,-1.2676,-1.0956,0.5918,2.3323,-5.8727,2064,2019-08-07 16:46:27:978
-7.978,-0.31,1.4954,-1.8158,-1.2676,-1.0956,0.5918,2.3323,-5.8727,2069,2019-08-07 16:46:27:983
-7.978,-0.31,1.4954,-1.3991,-3.497,-2.306,0.759,1.5323,-5.4669,2074,2019-08-07 16:46:27:988
-7.9349,0.6352,1.7735,-1.3991,-3.497,-2.306,0.759,1.5323,-5.4669,2078,2019-08-07 16:46:27:992
-7.9349,0.6352,1.7735,-1.3991,-3.497,-2.306,0.7974,1.0125,-5.2112,2084,2019-08-07 16:46:27:998
-7.0833,1.0792,1.2126,-1.3991,-3.497,-2.306,0.7974,1.0125,-5.2112,2088,2019-08-07 16:46:28:002
-7.0833,1.0792,1.2126,-2.2386,-5.024,-1.7018,0.7548,0.2572,-4.7755,2093,2019-08-07 16:46:28:007
-7.0833,1.0792,1.2126,-2.2386,-5.024,-1.7018,0.7548,0.2572,-4.7755,2099,2019-08-07 16:46:28:013
-5.6815,0.8882,0.4442,-2.2386,-5.024,-1.7018,0.6525,-0.1966,-4.3814,2104,2019-08-07 16:46:28:018
-5.6815,0.8882,0.4442,-2.2386,-5.024,-1.7018,0.6525,-0.1966,-4.3814,2109,2019-08-07 16:46:28:023
-4.2176,0.091,0.3123,-4.1539,-4.9978,-0.8376,0.6259,-0.2861,-4.13,2114,2019-08-07 16:46:28:028
-4.2176,0.091,0.3123,-4.1539,-4.9978,-0.8376,0.6259,-0.2861,-4.13,2118,2019-08-07 16:46:28:032
-4.2176,0.091,0.3123,-4.1539,-4.9978,-0.8376,0.6259,-0.2861,-4.13,2123,2019-08-07 16:46:28:037
-3.677,-0.9211,-0.5079,-4.1539,-4.9978,-0.8376,0.5801,-0.2264,-3.8924,2129,2019-08-07 16:46:28:043
-3.677,-0.9211,-0.5079,-4.7705,-3.954,0.4486,0.4799,0.0111,-3.6634,2134,2019-08-07 16:46:28:048
-3.677,-0.9211,-0.5079,-4.7705,-3.954,0.4486,0.4799,0.0111,-3.6634,2139,2019-08-07 16:46:28:053
-3.0694,-1.809,-0.9935,-4.7705,-3.954,0.4486,0.4799,0.0111,-3.6634,2144,2019-08-07 16:46:28:058
-3.0694,-1.809,-0.9935,-4.7705,-3.954,0.4486,0.3905,0.2891,-3.4407,2149,2019-08-07 16:46:28:063
-2.634,-1.8901,-1.5497,-5.1909,-3.9405,0.9925,0.3905,0.2891,-3.4407,2154,2019-08-07 16:46:28:068
-2.634,-1.8901,-1.5497,-5.1909,-3.9405,0.9925,0.3553,0.7323,-3.1318,2159,2019-08-07 16:46:28:073
-2.634,-1.8901,-1.5497,-5.1909,-3.9405,0.9925,0.3553,0.7323,-3.1318,2164,2019-08-07 16:46:28:078
-3.0742,-1.4891,-1.8184,-5.1909,-3.9405,0.9925,0.3553,0.7323,-3.1318,2168,2019-08-07 16:46:28:082
-3.0742,-1.4891,-1.8184,-3.8921,-4.9092,0.9665,0.2893,1.119,-2.7142,2174,2019-08-07 16:46:28:088
-3.0742,-1.4891,-1.8184,-3.8921,-4.9092,0.9665,0.2893,1.119,-2.7142,2179,2019-08-07 16:46:28:093
-4.3228,-1.9045,-0.6069,-3.8921,-4.9092,0.9665,0.203,1.1424,-2.3201,2184,2019-08-07 16:46:28:098
-4.3228,-1.9045,-0.6069,-3.8921,-4.9092,0.9665,0.203,1.1424,-2.3201,2189,2019-08-07 16:46:28:103
-5.4136,-2.8974,1.2173,-1.7345,-3.7926,-1.8359,0.1689,0.8516,-1.894,2194,2019-08-07 16:46:28:108
-5.4136,-2.8974,1.2173,-1.7345,-3.7926,-1.8359,0.1689,0.8516,-1.894,2199,2019-08-07 16:46:28:113
-5.4136,-2.8974,1.2173,-1.7345,-3.7926,-1.8359,0.204,0.2071,-1.3699,2204,2019-08-07 16:46:28:118
-5.5667,-3.1122,1.3729,-1.7345,-3.7926,-1.8359,0.204,0.2071,-1.3699,2209,2019-08-07 16:46:28:123
-5.5667,-3.1122,1.3729,-1.8359,-4.2442,-1.3468,0.2019,-0.2744,-1.0364,2214,2019-08-07 16:46:28:128
-4.8587,-2.358,0.35,-1.8359,-4.2442,-1.3468,0.2019,-0.2744,-1.0364,2219,2019-08-07 16:46:28:133
-4.8587,-2.358,0.35,-1.8359,-4.2442,-1.3468,0.2019,-0.2744,-1.0364,2224,2019-08-07 16:46:28:138
-4.8587,-2.358,0.35,-1.8359,-4.2442,-1.3468,0.1135,-0.6462,-0.7968,2229,2019-08-07 16:46:28:143
-4.2894,-2.6014,-0.8143,-2.6997,-4.0823,0.3577,0.1135,-0.6462,-0.7968,2233,2019-08-07 16:46:28:147
-4.2894,-2.6014,-0.8143,-2.6997,-4.0823,0.3577,-0.0644,-0.8411,-0.4995,2239,2019-08-07 16:46:28:153
-3.6531,-4.3678,-0.4844,-2.6997,-4.0823,0.3577,-0.0644,-0.8411,-0.4995,2244,2019-08-07 16:46:28:158
-3.6531,-4.3678,-0.4844,-2.6997,-4.0823,0.3577,-0.0985,-0.7495,-0.2939,2249,2019-08-07 16:46:28:163
-3.6531,-4.3678,-0.4844,-3.2335,-1.7741,0.1057,-0.0985,-0.7495,-0.2939,2255,2019-08-07 16:46:28:169
-3.6722,-5.4037,-0.6541,-3.2335,-1.7741,0.1057,-0.0229,-0.546,-0.1395,2259,2019-08-07 16:46:28:173
-3.6722,-5.4037,-0.6541,-3.2335,-1.7741,0.1057,-0.0229,-0.546,-0.1395,2264,2019-08-07 16:46:28:178
-3.6722,-5.4037,-0.6541,-3.2335,-1.7741,0.1057,0.041,-0.3351,0.0065,2269,2019-08-07 16:46:28:183
-4.6338,-5.7474,-0.7012,-3.2335,-1.7741,0.1057,0.041,-0.3351,0.0065,2274,2019-08-07 16:46:28:188
-4.6338,-5.7474,-0.7012,-1.9427,-1.3032,0.2943,0.041,-0.3351,0.0065,2279,2019-08-07 16:46:28:193
-5.4806,-5.8667,-0.7484,-1.9427,-1.3032,0.2943,0.0336,-0.317,0.1055,2284,2019-08-07 16:46:28:198
-5.4806,-5.8667,-0.7484,-1.9427,-1.3032,0.2943,0.0336,-0.317,0.1055,2289,2019-08-07 16:46:28:203
-5.4806,-5.8667,-0.7484,-0.9919,-0.7701,0.4467,-0.0058,-0.3639,0.2014,2294,2019-08-07 16:46:28:208
-5.9208,-6.3346,-0.7955,-0.9919,-0.7701,0.4467,-0.0058,-0.3639,0.2014,2298,2019-08-07 16:46:28:212
-5.9208,-6.3346,-0.7955,-0.9919,-0.7701,0.4467,-0.0303,-0.4022,0.2248,2304,2019-08-07 16:46:28:218
-5.9208,-6.3346,-0.7955,-0.9919,-0.7701,0.4467,-0.0303,-0.4022,0.2248,2308,2019-08-07 16:46:28:222
-5.7534,-6.9074,-1.1113,-0.9919,-0.7701,0.4467,-0.058,-0.3511,0.2131,2314,2019-08-07 16:46:28:228
-5.7534,-6.9074,-1.1113,-1.266,0.1263,1.0828,-0.058,-0.3511,0.2131,2318,2019-08-07 16:46:28:232
-5.452,-7.4278,-1.5026,-1.266,0.1263,1.0828,-0.074,-0.1732,0.1588,2324,2019-08-07 16:46:28:238
-5.452,-7.4278,-1.5026,-1.266,0.1263,1.0828,-0.074,-0.1732,0.1588,2329,2019-08-07 16:46:28:243
-5.452,-7.4278,-1.5026,-1.266,0.1263,1.0828,-0.0612,0.0665,0.0959,2334,2019-08-07 16:46:28:248
-5.7247,-7.8526,-1.4413,-1.1462,0.8562,1.162,-0.0612,0.0665,0.0959,2339,2019-08-07 16:46:28:253
-5.7247,-7.8526,-1.4413,-1.1462,0.8562,1.162,-0.0623,0.2529,0.0395,2344,2019-08-07 16:46:28:258
-6.0069,-8.1057,-1.4696,-0.8635,1.1098,1.1677,-0.0623,0.2529,0.0395,2349,2019-08-07 16:46:28:263
-6.0069,-8.1057,-1.4696,-0.8635,1.1098,1.1677,-0.0612,0.3456,-0.0021,2354,2019-08-07 16:46:28:268
-6.0069,-8.1057,-1.4696,-0.8635,1.1098,1.1677,-0.0612,0.3456,-0.0021,2358,2019-08-07 16:46:28:272
-6.4423,-8.2441,-0.9086,-0.8635,1.1098,1.1677,-0.0452,0.3467,-0.0287,2364,2019-08-07 16:46:28:278
-6.4423,-8.2441,-0.9086,-0.2272,1.2131,0.2876,-0.0452,0.3467,-0.0287,2369,2019-08-07 16:46:28:283
-6.4423,-8.2441,-0.9086,-0.2272,1.2131,0.2876,-0.0452,0.3467,-0.0287,2374,2019-08-07 16:46:28:288
-6.7341,-8.0006,-0.2628,-0.2272,1.2131,0.2876,-0.0229,0.2572,-0.0319,2379,2019-08-07 16:46:28:293
-6.7341,-8.0006,-0.2628,0.3558,0.5903,-0.4529,-0.0186,0.042,-0.0063,2385,2019-08-07 16:46:28:299
-7.2269,-7.4946,0.1331,0.3558,0.5903,-0.4529,-0.0186,0.042,-0.0063,2389,2019-08-07 16:46:28:303
-7.2269,-7.4946,0.1331,0.3558,0.5903,-0.4529,-0.0186,0.042,-0.0063,2394,2019-08-07 16:46:28:308
-7.2269,-7.4946,0.1331,0.3558,0.5903,-0.4529,-0.0346,-0.2094,0.0363,2399,2019-08-07 16:46:28:313
-7.1647,-7.318,-0.0837,0.3558,0.5903,-0.4529,-0.0346,-0.2094,0.0363,2404,2019-08-07 16:46:28:318
-7.1647,-7.318,-0.0837,8.0E-4,0.3321,-0.3122,-0.0452,-0.4107,0.0778,2409,2019-08-07 16:46:28:323
-7.1647,-7.318,-0.0837,8.0E-4,0.3321,-0.3122,-0.0452,-0.4107,0.0778,2414,2019-08-07 16:46:28:328
-6.1457,-7.4946,-0.6164,8.0E-4,0.3321,-0.3122,-0.0154,-0.4789,0.08,2419,2019-08-07 16:46:28:333
-6.1457,-7.4946,-0.6164,8.0E-4,0.3321,-0.3122,-0.0154,-0.4789,0.08,2423,2019-08-07 16:46:28:337
-5.5716,-7.5376,-0.8238,-1.2526,0.5534,0.5003,0.0421,-0.3138,0.048,2430,2019-08-07 16:46:28:344
-5.5716,-7.5376,-0.8238,-1.2526,0.5534,0.5003,0.0421,-0.3138,0.048,2433,2019-08-07 16:46:28:347
-5.5716,-7.5376,-0.8238,-1.2526,0.5534,0.5003,0.0421,-0.3138,0.048,2439,2019-08-07 16:46:28:353
-5.6146,-7.4134,-0.8803,-1.2526,0.5534,0.5003,0.1135,0.0037,1.0E-4,2444,2019-08-07 16:46:28:358
-5.6146,-7.4134,-0.8803,-1.1296,0.315,0.5376,0.1135,0.0037,1.0E-4,2449,2019-08-07 16:46:28:363
-5.6146,-7.4134,-0.8803,-1.1296,0.315,0.5376,0.1668,0.287,-0.0468,2453,2019-08-07 16:46:28:367
-6.1792,-7.3371,-0.8049,-1.1296,0.315,0.5376,0.1668,0.287,-0.0468,2459,2019-08-07 16:46:28:373
-6.1792,-7.3371,-0.8049,-1.1296,0.315,0.5376,0.1785,0.3871,-0.0756,2464,2019-08-07 16:46:28:378
-6.916,-7.1843,-0.3053,-0.0643,0.1888,0.0744,0.1785,0.3871,-0.0756,2469,2019-08-07 16:46:28:383
-6.916,-7.1843,-0.3053,-0.0643,0.1888,0.0744,0.1785,0.3871,-0.0756,2473,2019-08-07 16:46:28:387
-6.916,-7.1843,-0.3053,-0.0643,0.1888,0.0744,0.1827,0.3637,-0.0937,2479,2019-08-07 16:46:28:393
-7.2222,-7.0841,0.2085,-0.0643,0.1888,0.0744,0.1827,0.3637,-0.0937,2484,2019-08-07 16:46:28:398
-7.2222,-7.0841,0.2085,0.5198,0.0224,-0.6032,0.1817,0.1752,-0.0979,2489,2019-08-07 16:46:28:403
-7.4518,-7.0077,0.35,0.5198,0.0224,-0.6032,0.1817,0.1752,-0.0979,2494,2019-08-07 16:46:28:408
-7.4518,-7.0077,0.35,0.5198,0.0224,-0.6032,0.1529,-0.0581,-0.0766,2499,2019-08-07 16:46:28:413
-7.4518,-7.0077,0.35,0.5198,0.0224,-0.6032,0.1529,-0.0581,-0.0766,2504,2019-08-07 16:46:28:418
-7.4518,-6.8788,0.5621,0.6231,-0.1583,-0.8536,0.1209,-0.3276,-0.034,2508,2019-08-07 16:46:28:422
-7.4518,-6.8788,0.5621,0.6231,-0.1583,-0.8536,0.1209,-0.3276,-0.034,2514,2019-08-07 16:46:28:428
-7.4518,-6.8788,0.5621,0.6231,-0.1583,-0.8536,0.1209,-0.3276,-0.034,2518,2019-08-07 16:46:28:432
-7.4518,-6.8788,0.5621,0.6231,-0.1583,-0.8536,0.0858,-0.6142,0.0288,2524,2019-08-07 16:46:28:438
-6.8681,-6.831,0.1048,0.6231,-0.1583,-0.8536,0.0858,-0.6142,0.0288,2528,2019-08-07 16:46:28:442
-6.8681,-6.831,0.1048,-0.2629,-0.1654,-0.14,0.0613,-0.7154,0.0576,2534,2019-08-07 16:46:28:448
-5.9448,-6.9456,-0.3336,-0.2629,-0.1654,-0.14,0.0613,-0.7154,0.0576,2538,2019-08-07 16:46:28:452
-5.9448,-6.9456,-0.3336,-0.2629,-0.1654,-0.14,0.0347,-0.7165,0.0618,2544,2019-08-07 16:46:28:458
-5.9448,-6.9456,-0.3336,-1.5516,0.0392,0.6838,0.0347,-0.7165,0.0618,2549,2019-08-07 16:46:28:463
-5.1745,-7.1079,-0.9039,-1.5516,0.0392,0.6838,0.0293,-0.5279,0.0448,2553,2019-08-07 16:46:28:467
-5.1745,-7.1079,-0.9039,-1.5516,0.0392,0.6838,0.0293,-0.5279,0.0448,2559,2019-08-07 16:46:28:473
-5.1458,-7.0936,-1.0218,-1.5516,0.0392,0.6838,0.04,-0.2009,0.0065,2564,2019-08-07 16:46:28:478
-5.1458,-7.0936,-1.0218,-1.5133,0.0293,0.8007,0.04,-0.2009,0.0065,2569,2019-08-07 16:46:28:483
-5.1458,-7.0936,-1.0218,-1.5133,0.0293,0.8007,0.04,-0.2009,0.0065,2574,2019-08-07 16:46:28:488
-5.7438,-7.0602,-0.7059,-0.9527,-0.0286,0.5101,0.0815,0.1869,-0.0436,2579,2019-08-07 16:46:28:493
-5.7438,-7.0602,-0.7059,-0.9527,-0.0286,0.5101,0.0815,0.1869,-0.0436,2584,2019-08-07 16:46:28:498
-6.4041,-6.8883,-0.475,-0.9527,-0.0286,0.5101,0.0879,0.3935,-0.0681,2589,2019-08-07 16:46:28:503
-6.4041,-6.8883,-0.475,-0.9527,-0.0286,0.5101,0.0879,0.3935,-0.0681,2594,2019-08-07 16:46:28:508
-6.9303,-6.8215,0.086,-0.0081,-0.1922,-0.0899,0.0656,0.4085,-0.083,2600,2019-08-07 16:46:28:514
-6.9303,-6.8215,0.086,-0.0081,-0.1922,-0.0899,0.0656,0.4085,-0.083,2603,2019-08-07 16:46:28:517
-6.9303,-6.8215,0.086,-0.0081,-0.1922,-0.0899,0.0496,0.2977,-0.0841,2609,2019-08-07 16:46:28:523
-7.1074,-6.7976,0.5102,-0.0081,-0.1922,-0.0899,0.0496,0.2977,-0.0841,2614,2019-08-07 16:46:28:528
-7.1074,-6.7976,0.5102,0.2746,-0.2825,-0.7277,0.0325,0.0463,-0.0596,2619,2019-08-07 16:46:28:533
-7.1074,-6.7976,0.5102,0.2746,-0.2825,-0.7277,0.0325,0.0463,-0.0596,2624,2019-08-07 16:46:28:538
-6.9495,-6.7738,0.5668,-0.0054,-0.2657,-0.5423,0.0123,-0.1423,-0.0244,2630,2019-08-07 16:46:28:544
-6.9495,-6.7738,0.5668,-0.0054,-0.2657,-0.5423,0.0123,-0.1423,-0.0244,2635,2019-08-07 16:46:28:549
-6.9495,-6.7738,0.5668,-0.0054,-0.2657,-0.5423,0.0123,-0.1423,-0.0244,2638,2019-08-07 16:46:28:552
-6.3467,-6.7738,0.2557,-0.0054,-0.2657,-0.5423,-0.0122,-0.2691,0.0065,2644,2019-08-07 16:46:28:558
-6.3467,-6.7738,0.2557,-0.7662,-0.1802,-0.1248,-0.0122,-0.2691,0.0065,2649,2019-08-07 16:46:28:563
-5.8061,-6.979,-0.1261,-0.7662,-0.1802,-0.1248,-0.0165,-0.3362,0.0501,2653,2019-08-07 16:46:28:567
-5.8061,-6.979,-0.1261,-0.7662,-0.1802,-0.1248,-0.0165,-0.3362,0.0501,2659,2019-08-07 16:46:28:573
-5.5812,-7.0602,-0.3854,-0.7662,-0.1802,-0.1248,-0.0165,-0.2765,0.0629,2664,2019-08-07 16:46:28:578
-5.5812,-7.0602,-0.3854,-1.1529,0.0189,0.3785,-0.0165,-0.2765,0.0629,2669,2019-08-07 16:46:28:583
-5.5812,-7.0602,-0.3854,-1.1529,0.0189,0.3785,-0.0069,-0.1561,0.064,2674,2019-08-07 16:46:28:588
-5.6434,-7.0745,-0.5221,-1.1529,0.0189,0.3785,-0.0069,-0.1561,0.064,2679,2019-08-07 16:46:28:593
-5.6434,-7.0745,-0.5221,-1.1741,0.0065,0.4914,0.0016,-0.0443,0.0555,2684,2019-08-07 16:46:28:598
-5.7152,-7.127,-0.442,-1.1741,0.0065,0.4914,0.0016,-0.0443,0.0555,2690,2019-08-07 16:46:28:604
-5.7152,-7.127,-0.442,-1.1741,0.0065,0.4914,0.0016,-0.0443,0.0555,2694,2019-08-07 16:46:28:608
-5.7152,-7.127,-0.442,-0.9222,-0.0634,0.2851,-0.0048,0.0718,0.032,2699,2019-08-07 16:46:28:613
-5.9592,-6.9552,-0.2911,-0.9222,-0.0634,0.2851,-0.0048,0.0718,0.032,2704,2019-08-07 16:46:28:618
-5.9592,-6.9552,-0.2911,-0.9222,-0.0634,0.2851,-0.0165,0.1602,0.0256,2709,2019-08-07 16:46:28:623
-6.2893,-6.9695,-0.2252,-0.6737,-0.0821,0.2068,-0.0165,0.1602,0.0256,2715,2019-08-07 16:46:28:629
-6.2893,-6.9695,-0.2252,-0.6737,-0.0821,0.2068,-0.0261,0.1986,0.0065,2719,2019-08-07 16:46:28:633
-6.2893,-6.9695,-0.2252,-0.6737,-0.0821,0.2068,-0.0261,0.1986,0.0065,2724,2019-08-07 16:46:28:638
-6.6434,-6.9599,-0.0366,-0.152,-0.1155,-0.0398,-0.0335,0.1464,1.0E-4,2730,2019-08-07 16:46:28:644
-6.6434,-6.9599,-0.0366,-0.152,-0.1155,-0.0398,-0.0335,0.1464,1.0E-4,2734,2019-08-07 16:46:28:648
-6.6434,-6.9599,-0.0366,-0.152,-0.1155,-0.0398,-0.0335,0.1464,1.0E-4,2739,2019-08-07 16:46:28:653
-6.5668,-6.9981,-0.079,-0.152,-0.1155,-0.0398,-0.0388,0.0132,0.0128,2744,2019-08-07 16:46:28:658
-6.5668,-6.9981,-0.079,-0.152,-0.1155,-0.0398,-0.0388,0.0132,0.0128,2749,2019-08-07 16:46:28:663
-6.5668,-6.9981,-0.079,-0.2772,-0.0381,0.1294,-0.0399,-0.0592,0.016,2754,2019-08-07 16:46:28:668
-6.4759,-7.0077,-0.1686,-0.2772,-0.0381,0.1294,-0.0399,-0.0592,0.016,2759,2019-08-07 16:46:28:673
-6.4759,-7.0077,-0.1686,-0.3302,-0.0043,0.0474,-0.0367,-0.121,0.0128,2764,2019-08-07 16:46:28:678
-6.3276,-7.1079,-0.1356,-0.3302,-0.0043,0.0474,-0.0367,-0.121,0.0128,2769,2019-08-07 16:46:28:683
-6.3276,-7.1079,-0.1356,-0.3302,-0.0043,0.0474,-0.0367,-0.121,0.0128,2774,2019-08-07 16:46:28:688
-6.3276,-7.1079,-0.1356,-0.3302,-0.0043,0.0474,-0.0399,-0.1647,0.0235,2779,2019-08-07 16:46:28:693
-6.0262,-7.1318,-0.2487,-0.7894,0.0765,0.1656,-0.0399,-0.1647,0.0235,2784,2019-08-07 16:46:28:698
-6.0262,-7.1318,-0.2487,-0.7894,0.0765,0.1656,-0.0335,-0.1338,0.0288,2789,2019-08-07 16:46:28:703
-5.8396,-7.2559,-0.4986,-0.7894,0.0765,0.1656,-0.0335,-0.1338,0.0288,2794,2019-08-07 16:46:28:708
-5.8396,-7.2559,-0.4986,-0.7894,0.0765,0.1656,-0.0261,-0.0539,0.0203,2799,2019-08-07 16:46:28:713
-5.8396,-7.2559,-0.4986,-0.9507,0.2852,0.4361,-0.0261,-0.0539,0.0203,2803,2019-08-07 16:46:28:717
-5.9784,-7.3275,-0.4561,-0.9507,0.2852,0.4361,-0.0197,0.0186,0.0086,2809,2019-08-07 16:46:28:723
-5.9784,-7.3275,-0.4561,-0.9507,0.2852,0.4361,-0.0197,0.0186,0.0086,2814,2019-08-07 16:46:28:728
-6.2032,-7.2607,-0.2959,-0.9507,0.2852,0.4361,-0.0037,0.0558,0.0107,2819,2019-08-07 16:46:28:733
-6.2032,-7.2607,-0.2959,-0.9507,0.2852,0.4361,-0.0037,0.0558,0.0107,2824,2019-08-07 16:46:28:738
-6.2032,-7.2607,-0.2959,-0.5894,0.1587,0.2011,-0.0037,0.0558,0.0107,2829,2019-08-07 16:46:28:743
-6.4903,-7.1175,-0.0932,-0.5894,0.1587,0.2011,0.0134,0.0697,0.0043,2833,2019-08-07 16:46:28:747
-6.4903,-7.1175,-0.0932,-0.5894,0.1587,0.2011,0.0134,0.0697,0.0043,2839,2019-08-07 16:46:28:753
-6.629,-7.0124,-0.0932,-0.2104,-0.0283,-0.0455,0.0112,0.0122,0.0075,2844,2019-08-07 16:46:28:758
-6.629,-7.0124,-0.0932,-0.2104,-0.0283,-0.0455,0.0112,0.0122,0.0075,2849,2019-08-07 16:46:28:763
-6.629,-7.0124,-0.0932,-0.2104,-0.0283,-0.0455,0.0102,-0.0752,0.0118,2854,2019-08-07 16:46:28:768
-6.629,-7.0602,-0.1073,-0.2104,-0.0283,-0.0455,0.0102,-0.0752,0.0118,2859,2019-08-07 16:46:28:773
-6.629,-7.0602,-0.1073,-0.1828,-0.0226,0.0024,0.0261,-0.1359,0.0118,2864,2019-08-07 16:46:28:778
-6.629,-7.0602,-0.1073,-0.1828,-0.0226,0.0024,0.0261,-0.1359,0.0118,2868,2019-08-07 16:46:28:782
-6.5238,-7.0936,-0.1403,-0.1828,-0.0226,0.0024,0.0261,-0.1359,0.0118,2874,2019-08-07 16:46:28:788
-6.5238,-7.0936,-0.1403,-0.2982,0.0017,0.053,0.0442,-0.1849,0.0192,2880,2019-08-07 16:46:28:794
-6.3324,-7.0936,-0.178,-0.2982,0.0017,0.053,0.0442,-0.1849,0.0192,2884,2019-08-07 16:46:28:798
-6.3324,-7.0936,-0.178,-0.2982,0.0017,0.053,0.0528,-0.1945,0.0192,2889,2019-08-07 16:46:28:803
-6.3324,-7.0936,-0.178,-0.5907,0.0403,0.1895,0.0528,-0.1945,0.0192,2894,2019-08-07 16:46:28:808
-6.1171,-7.1127,-0.1969,-0.5907,0.0403,0.1895,0.0624,-0.1742,0.0214,2898,2019-08-07 16:46:28:812
-6.1171,-7.1127,-0.1969,-0.5907,0.0403,0.1895,0.0624,-0.1742,0.0214,2904,2019-08-07 16:46:28:818
-5.9401,-7.1747,-0.1639,-0.5907,0.0403,0.1895,0.0719,-0.1199,0.0139,2909,2019-08-07 16:46:28:823
-5.9401,-7.1747,-0.1639,-0.8716,0.1105,0.2276,0.0719,-0.1199,0.0139,2914,2019-08-07 16:46:28:828
-5.9401,-7.1747,-0.1639,-0.8716,0.1105,0.2276,0.0719,-0.0496,-0.001,2919,2019-08-07 16:46:28:833
-5.9736,-7.0745,-0.1403,-0.8716,0.1105,0.2276,0.0719,-0.0496,-0.001,2924,2019-08-07 16:46:28:838
-5.9736,-7.0745,-0.1403,-0.8716,0.1105,0.2276,0.0624,0.0132,0.0022,2929,2019-08-07 16:46:28:843
-5.964,-7.1031,-0.1026,-0.8437,0.0398,0.1078,0.0624,0.0132,0.0022,2934,2019-08-07 16:46:28:848
-5.964,-7.1031,-0.1026,-0.8437,0.0398,0.1078,0.0624,0.0132,0.0022,2939,2019-08-07 16:46:28:853
-5.964,-7.1031,-0.1026,-0.8437,0.0398,0.1078,0.0432,0.0985,-0.001,2944,2019-08-07 16:46:28:858
-6.1554,-7.1222,0.1237,-0.8437,0.0398,0.1078,0.0432,0.0985,-0.001,2949,2019-08-07 16:46:28:863
-6.1554,-7.1222,0.1237,-0.4913,-0.0349,-0.1809,0.0336,0.1102,-0.0042,2954,2019-08-07 16:46:28:868
-6.3755,-7.0172,0.1189,-0.4913,-0.0349,-0.1809,0.0336,0.1102,-0.0042,2959,2019-08-07 16:46:28:873
-6.3755,-7.0172,0.1189,-0.4913,-0.0349,-0.1809,0.0272,0.0867,0.0011,2965,2019-08-07 16:46:28:879
-6.3755,-7.0172,0.1189,-0.4913,-0.0349,-0.1809,0.0272,0.0867,0.0011,2968,2019-08-07 16:46:28:882
-6.5764,-6.9504,0.1189,-0.4913,-0.0349,-0.1809,0.0272,0.0867,0.0011,2974,2019-08-07 16:46:28:888
-6.5764,-6.9504,0.1189,-0.1888,-0.0836,-0.1593,0.0176,0.0239,0.0022,2979,2019-08-07 16:46:28:893
-6.5621,-7.0268,0.1708,-0.1888,-0.0836,-0.1593,0.0176,0.0239,0.0022,2984,2019-08-07 16:46:28:898
-6.5621,-7.0268,0.1708,-0.1888,-0.0836,-0.1593,0.0016,-0.0624,0.0022,2989,2019-08-07 16:46:28:903
-6.5621,-7.0268,0.1708,-0.1888,-0.0836,-0.1593,0.0016,-0.0624,0.0022,2994,2019-08-07 16:46:28:908
-6.4616,-7.0268,-0.0508,-0.3413,-0.0412,0.0501,0.0016,-0.0901,-0.0085,2999,2019-08-07 16:46:28:913
-6.4616,-7.0268,-0.0508,-0.3413,-0.0412,0.0501,0.0016,-0.0901,-0.0085,3004,2019-08-07 16:46:28:918
-6.3325,-7.0172,-0.1309,-0.3413,-0.0412,0.0501,0.008,-0.0912,-0.018,3009,2019-08-07 16:46:28:923
-6.3325,-7.0172,-0.1309,-0.3413,-0.0412,0.0501,0.008,-0.0912,-0.018,3014,2019-08-07 16:46:28:928
-6.3325,-7.0172,-0.1309,-0.4906,-0.021,0.1377,0.0112,-0.0848,-0.0159,3019,2019-08-07 16:46:28:933
-6.2798,-7.0411,-0.2346,-0.4906,-0.021,0.1377,0.0112,-0.0848,-0.0159,3024,2019-08-07 16:46:28:938
-6.2798,-7.0411,-0.2346,-0.4906,-0.021,0.1377,0.0112,-0.0848,-0.0159,3028,2019-08-07 16:46:28:942
-6.1076,-7.0697,-0.2487,-0.6856,-0.0076,0.2692,0.0123,-0.0517,-0.0287,3034,2019-08-07 16:46:28:948
-6.1076,-7.0697,-0.2487,-0.6856,-0.0076,0.2692,0.0123,-0.0517,-0.0287,3038,2019-08-07 16:46:28:952
-6.1076,-7.0697,-0.2487,-0.6856,-0.0076,0.2692,0.0176,-0.0187,-0.0298,3044,2019-08-07 16:46:28:958
-5.9784,-7.0888,-0.2535,-0.6856,-0.0076,0.2692,0.0176,-0.0187,-0.0298,3048,2019-08-07 16:46:28:962
-5.9784,-7.0888,-0.2535,-0.8262,-0.0102,0.2742,0.0304,0.0495,-0.0319,3054,2019-08-07 16:46:28:968
-5.9784,-7.0888,-0.2535,-0.8262,-0.0102,0.2742,0.0304,0.0495,-0.0319,3059,2019-08-07 16:46:28:973
-5.9545,-6.9695,-0.1639,-0.8262,-0.0102,0.2742,0.0325,0.1059,-0.0191,3064,2019-08-07 16:46:28:978
-5.9545,-6.9695,-0.1639,-0.8262,-0.0102,0.2742,0.0325,0.1059,-0.0191,3069,2019-08-07 16:46:28:983
-6.0167,-6.917,-0.112,-0.8262,-0.0102,0.2742,0.0293,0.1421,-0.0063,3074,2019-08-07 16:46:28:988
-6.0167,-6.917,-0.112,-0.7103,-0.1447,0.1492,0.0293,0.1421,-0.0063,3078,2019-08-07 16:46:28:992
-6.0167,-6.917,-0.112,-0.7103,-0.1447,0.1492,0.0293,0.1421,-0.0063,3084,2019-08-07 16:46:28:998
-6.2129,-6.9408,-0.1309,-0.7103,-0.1447,0.1492,0.0155,0.1496,0.0139,3088,2019-08-07 16:46:29:002
-6.2129,-6.9408,-0.1309,-0.7103,-0.1447,0.1492,0.0155,0.1496,0.0139,3094,2019-08-07 16:46:29:008
-6.3708,-6.8979,-0.046,-0.4471,-0.1973,0.0742,0.0091,0.1251,0.0224,3098,2019-08-07 16:46:29:012
-6.3708,-6.8979,-0.046,-0.4471,-0.1973,0.0742,0.0091,0.1251,0.0224,3104,2019-08-07 16:46:29:018
-6.3708,-6.8979,-0.046,-0.4471,-0.1973,0.0742,0.0123,0.0846,0.0384,3109,2019-08-07 16:46:29:023
-6.3803,-6.8835,-0.1309,-0.4471,-0.1973,0.0742,0.0123,0.0846,0.0384,3114,2019-08-07 16:46:29:028
-6.3803,-6.8835,-0.1309,-0.4562,-0.1836,0.1332,0.0144,0.058,0.0448,3119,2019-08-07 16:46:29:033
-6.3516,-6.9599,-0.1969,-0.4562,-0.1836,0.1332,0.0144,0.058,0.0448,3124,2019-08-07 16:46:29:038
-6.3516,-6.9599,-0.1969,-0.4562,-0.1836,0.1332,0.0134,0.0516,0.0395,3129,2019-08-07 16:46:29:043
-6.3516,-6.9599,-0.1969,-0.4562,-0.1836,0.1332,0.0134,0.0516,0.0395,3134,2019-08-07 16:46:29:048
-6.4138,-6.874,-0.2299,-0.375,-0.2075,0.2016,0.0165,0.0537,0.0437,3139,2019-08-07 16:46:29:053
-6.4138,-6.874,-0.2299,-0.375,-0.2075,0.2016,0.0165,0.0537,0.0437,3144,2019-08-07 16:46:29:058
-6.3038,-6.9504,-0.211,-0.375,-0.2075,0.2016,0.0187,0.0452,0.0437,3149,2019-08-07 16:46:29:063
-6.3038,-6.9504,-0.211,-0.375,-0.2075,0.2016,0.0187,0.0452,0.0437,3153,2019-08-07 16:46:29:067
-6.3038,-6.9504,-0.211,-0.4615,-0.15,0.1962,0.0197,0.0463,0.0491,3159,2019-08-07 16:46:29:073
-6.3373,-6.9551,-0.2959,-0.4615,-0.15,0.1962,0.0197,0.0463,0.0491,3164,2019-08-07 16:46:29:078
-6.3373,-6.9551,-0.2959,-0.4615,-0.15,0.1962,0.0229,0.0548,0.0416,3168,2019-08-07 16:46:29:082
-6.299,-6.9504,-0.1639,-0.4615,-0.15,0.1962,0.0229,0.0548,0.0416,3174,2019-08-07 16:46:29:088
-6.299,-6.9504,-0.1639,-0.5427,-0.1121,0.0444,0.024,0.0622,0.0448,3179,2019-08-07 16:46:29:093
-6.299,-6.9504,-0.1639,-0.5427,-0.1121,0.0444,0.024,0.0622,0.0448,3183,2019-08-07 16:46:29:097
-6.2799,-6.9933,-0.1168,-0.5427,-0.1121,0.0444,0.024,0.0622,0.0448,3189,2019-08-07 16:46:29:103
-6.2799,-6.9933,-0.1168,-0.5427,-0.1121,0.0444,0.0219,0.074,0.0491,3194,2019-08-07 16:46:29:108
-6.3134,-6.9265,-0.2299,-0.4568,-0.1359,0.1452,0.0219,0.074,0.0491,3199,2019-08-07 16:46:29:113
-6.3134,-6.9265,-0.2299,-0.4568,-0.1359,0.1452,0.0102,0.0953,0.0576,3204,2019-08-07 16:46:29:118
-6.3134,-6.9265,-0.2299,-0.4568,-0.1359,0.1452,0.0102,0.0953,0.0576,3209,2019-08-07 16:46:29:123
-6.3803,-7.0458,-0.145,-0.4568,-0.1359,0.1452,0.0123,0.1059,0.0501,3214,2019-08-07 16:46:29:128
-6.3803,-7.0458,-0.145,-0.348,-0.0488,0.0144,0.0123,0.1059,0.0501,3219,2019-08-07 16:46:29:133
-6.5239,-6.979,-0.0131,-0.348,-0.0488,0.0144,0.0176,0.0963,0.0491,3225,2019-08-07 16:46:29:139
-6.5239,-6.979,-0.0131,-0.348,-0.0488,0.0144,0.0176,0.0963,0.0491,3229,2019-08-07 16:46:29:143
-6.5239,-6.979,-0.0131,-0.348,-0.0488,0.0144,0.0112,0.0878,0.0523,3234,2019-08-07 16:46:29:148
-6.4521,-6.979,-0.2346,-0.3636,-0.0763,0.1637,0.0112,0.0878,0.0523,3239,2019-08-07 16:46:29:153
-6.4521,-6.979,-0.2346,-0.3636,-0.0763,0.1637,0.0112,0.0878,0.0523,3244,2019-08-07 16:46:29:158
-6.4521,-6.979,-0.2346,-0.3636,-0.0763,0.1637,6.0E-4,0.0846,0.031,3248,2019-08-07 16:46:29:162
-6.61,-6.9981,-0.1215,-0.3636,-0.0763,0.1637,6.0E-4,0.0846,0.031,3254,2019-08-07 16:46:29:168
-6.61,-6.9981,-0.1215,-0.214,-0.0059,-0.0508,-0.0037,0.0665,0.0171,3259,2019-08-07 16:46:29:173
-6.6004,-7.0363,-0.0225,-0.214,-0.0059,-0.0508,-0.0037,0.0665,0.0171,3264,2019-08-07 16:46:29:178
-6.6004,-7.0363,-0.0225,-0.214,-0.0059,-0.0508,-0.0037,0.0665,0.0171,3268,2019-08-07 16:46:29:182
-6.6004,-7.0363,-0.0225,-0.214,-0.0059,-0.0508,-0.0037,0.0377,0.0075,3274,2019-08-07 16:46:29:188
-6.4856,-7.022,-0.1922,-0.3241,-0.0392,0.0976,-0.0037,0.0377,0.0075,3279,2019-08-07 16:46:29:193
-6.4856,-7.022,-0.1922,-0.3241,-0.0392,0.0976,-0.0058,0.0271,-0.0063,3284,2019-08-07 16:46:29:198
-6.433,-7.0315,-0.0743,-0.3241,-0.0392,0.0976,-0.0058,0.0271,-0.0063,3289,2019-08-07 16:46:29:203
-6.433,-7.0315,-0.0743,-0.3241,-0.0392,0.0976,-0.008,0.0111,-0.0106,3294,2019-08-07 16:46:29:208
-6.433,-7.0315,-0.0743,-0.4981,-0.023,-0.0095,-0.008,0.0111,-0.0106,3298,2019-08-07 16:46:29:212
-6.256,-7.0363,-0.0885,-0.4981,-0.023,-0.0095,-0.0048,0.01,-0.0074,3304,2019-08-07 16:46:29:218
-6.256,-7.0363,-0.0885,-0.4981,-0.023,-0.0095,-0.0048,0.01,-0.0074,3308,2019-08-07 16:46:29:222
-6.2177,-6.9886,-0.1121,-0.4981,-0.023,-0.0095,-0.0101,0.0164,0.0011,3315,2019-08-07 16:46:29:229
-6.2177,-6.9886,-0.1121,-0.6482,-0.0497,-0.0503,-0.0101,0.0164,0.0011,3318,2019-08-07 16:46:29:232
-6.2177,-6.9886,-0.1121,-0.6482,-0.0497,-0.0503,-0.0101,0.0164,0.0011,3324,2019-08-07 16:46:29:238
-6.1603,-7.0124,-0.1639,-0.6482,-0.0497,-0.0503,-0.0207,0.0303,0.0182,3329,2019-08-07 16:46:29:243
-6.1603,-7.0124,-0.1639,-0.6482,-0.0497,-0.0503,-0.0207,0.0303,0.0182,3334,2019-08-07 16:46:29:248
-6.1603,-7.0124,-0.1639,-0.6958,-0.0689,0.0587,-0.0207,0.0303,0.0182,3339,2019-08-07 16:46:29:253
-6.1747,-6.9933,-0.1639,-0.6958,-0.0689,0.0587,-0.0303,0.075,0.0256,3344,2019-08-07 16:46:29:258
-6.1747,-6.9933,-0.1639,-0.6958,-0.0689,0.0587,-0.0303,0.075,0.0256,3349,2019-08-07 16:46:29:263
-6.1747,-6.9933,-0.1639,-0.6958,-0.0689,0.0587,-0.0239,0.1144,0.0299,3354,2019-08-07 16:46:29:268
-6.3612,-6.9408,-0.1828,-0.3962,-0.1528,-0.0022,-0.0239,0.1144,0.0299,3359,2019-08-07 16:46:29:273
-6.3612,-6.9408,-0.1828,-0.3962,-0.1528,-0.0022,-0.0282,0.1357,0.0267,3364,2019-08-07 16:46:29:278
-6.6627,-6.8883,-0.0178,-0.3962,-0.1528,-0.0022,-0.0282,0.1357,0.0267,3369,2019-08-07 16:46:29:283
-6.6627,-6.8883,-0.0178,-0.3962,-0.1528,-0.0022,-0.0346,0.1059,0.0373,3374,2019-08-07 16:46:29:288
-6.6627,-6.8883,-0.0178,-0.1087,-0.153,-0.0599,-0.0346,0.1059,0.0373,3379,2019-08-07 16:46:29:293
-6.7823,-6.8931,-0.0413,-0.1087,-0.153,-0.0599,-0.0293,0.0569,0.032,3384,2019-08-07 16:46:29:298
-6.7823,-6.8931,-0.0413,-0.1087,-0.153,-0.0599,-0.0293,0.0569,0.032,3389,2019-08-07 16:46:29:303
-6.8062,-6.9169,-0.277,-0.1087,-0.153,-0.0599,-0.0218,-0.0123,0.0299,3394,2019-08-07 16:46:29:308
-6.8062,-6.9169,-0.277,-0.0894,-0.0815,0.0849,-0.0218,-0.0123,0.0299,3399,2019-08-07 16:46:29:313
-6.8062,-6.9169,-0.277,-0.0894,-0.0815,0.0849,-0.0111,-0.0794,0.032,3404,2019-08-07 16:46:29:318
-6.5622,-7.0124,-0.2865,-0.0894,-0.0815,0.0849,-0.0111,-0.0794,0.032,3409,2019-08-07 16:46:29:323
-6.5622,-7.0124,-0.2865,-0.0894,-0.0815,0.0849,-0.0016,-0.1167,0.0278,3414,2019-08-07 16:46:29:328
-6.5622,-7.0124,-0.2865,-0.0894,-0.0815,0.0849,-0.0016,-0.1167,0.0278,3419,2019-08-07 16:46:29:333
-6.3852,-6.9933,-0.376,-0.442,-0.0498,0.2376,0.0038,-0.1135,0.031,3425,2019-08-07 16:46:29:339
-6.3852,-6.9933,-0.376,-0.442,-0.0498,0.2376,0.0038,-0.1135,0.031,3429,2019-08-07 16:46:29:343
-6.256,-6.9647,-0.4703,-0.442,-0.0498,0.2376,0.0038,-0.1135,0.031,3433,2019-08-07 16:46:29:347
-6.256,-6.9647,-0.4703,-0.442,-0.0498,0.2376,-5.0E-4,-0.0794,0.0405,3439,2019-08-07 16:46:29:353
-6.256,-6.9647,-0.4703,-0.6699,-0.0472,0.2679,-5.0E-4,-0.0794,0.0405,3444,2019-08-07 16:46:29:358
-6.213,-7.0267,-0.3619,-0.6699,-0.0472,0.2679,-0.0026,-0.0539,0.0363,3449,2019-08-07 16:46:29:363
-6.213,-7.0267,-0.3619,-0.6699,-0.0472,0.2679,-0.0026,-0.0539,0.0363,3453,2019-08-07 16:46:29:367
-6.213,-7.0267,-0.3619,-0.6699,-0.0472,0.2679,-0.0143,-0.0113,0.0331,3459,2019-08-07 16:46:29:373
-6.2465,-6.9551,-0.3807,-0.5866,-0.0826,0.2562,-0.0143,-0.0113,0.0331,3463,2019-08-07 16:46:29:377
-6.2465,-6.9551,-0.3807,-0.5866,-0.0826,0.2562,-0.0154,0.0143,0.0256,3469,2019-08-07 16:46:29:383
-6.2704,-6.9313,-0.376,-0.5866,-0.0826,0.2562,-0.0154,0.0143,0.0256,3473,2019-08-07 16:46:29:387
-6.2704,-6.9313,-0.376,-0.4733,-0.124,0.2577,-0.0261,0.0463,0.0139,3480,2019-08-07 16:46:29:394
-6.2704,-6.9313,-0.376,-0.4733,-0.124,0.2577,-0.0261,0.0463,0.0139,3483,2019-08-07 16:46:29:397
-6.4713,-6.9695,-0.3195,-0.4733,-0.124,0.2577,-0.0335,0.0612,0.0022,3489,2019-08-07 16:46:29:403
-6.4713,-6.9695,-0.3195,-0.4733,-0.124,0.2577,-0.0335,0.0612,0.0022,3494,2019-08-07 16:46:29:408
-6.5909,-6.9695,-0.2723,-0.4733,-0.124,0.2577,-0.0293,0.0367,-0.0053,3499,2019-08-07 16:46:29:413
-6.5909,-6.9695,-0.2723,-0.2332,-0.0387,0.1033,-0.0293,0.0367,-0.0053,3504,2019-08-07 16:46:29:418
-6.5909,-6.9695,-0.2723,-0.2332,-0.0387,0.1033,-0.0229,0.0015,-0.017,3509,2019-08-07 16:46:29:423
-6.6053,-6.9933,-0.2111,-0.2332,-0.0387,0.1033,-0.0229,0.0015,-0.017,3513,2019-08-07 16:46:29:427
-6.6053,-6.9933,-0.2111,-0.2332,-0.0387,0.1033,-0.0186,-0.0379,-0.017,3519,2019-08-07 16:46:29:433
-6.5,-6.9551,-0.1592,-0.3117,-0.1368,0.0104,-0.0186,-0.0379,-0.017,3524,2019-08-07 16:46:29:438
-6.5,-6.9551,-0.1592,-0.3117,-0.1368,0.0104,-0.0175,-0.0837,-0.0053,3529,2019-08-07 16:46:29:443
-6.5,-6.9551,-0.1592,-0.3117,-0.1368,0.0104,-0.0175,-0.0837,-0.0053,3534,2019-08-07 16:46:29:448
-6.4283,-6.9599,-0.1686,-0.3117,-0.1368,0.0104,-0.0175,-0.0837,-0.0053,3538,2019-08-07 16:46:29:452
-6.4283,-6.9599,-0.1686,-0.4825,-0.0667,0.0853,-0.0197,-0.1189,0.0086,3544,2019-08-07 16:46:29:458
-6.2465,-6.9885,-0.2535,-0.4825,-0.0667,0.0853,-0.0197,-0.1189,0.0086,3549,2019-08-07 16:46:29:463
-6.2465,-6.9885,-0.2535,-0.4825,-0.0667,0.0853,-0.0207,-0.1402,0.031,3553,2019-08-07 16:46:29:467
-6.2465,-6.9885,-0.2535,-0.4825,-0.0667,0.0853,-0.0207,-0.1402,0.031,3559,2019-08-07 16:46:29:473
-6.0551,-6.9742,-0.277,-0.7759,-0.0655,0.1518,-0.0186,-0.1252,0.0416,3564,2019-08-07 16:46:29:478
-6.0551,-6.9742,-0.277,-0.7759,-0.0655,0.1518,-0.0186,-0.1252,0.0416,3569,2019-08-07 16:46:29:483
-5.9881,-6.9265,-0.3572,-0.7759,-0.0655,0.1518,-0.0122,-0.0677,0.0469,3574,2019-08-07 16:46:29:488
-5.9881,-6.9265,-0.3572,-0.7759,-0.0655,0.1518,-0.0122,-0.0677,0.0469,3579,2019-08-07 16:46:29:493
-5.9881,-6.9265,-0.3572,-0.8127,-0.1054,0.2285,-0.0154,0.0122,0.0437,3584,2019-08-07 16:46:29:498
-6.1077,-6.9456,-0.3336,-0.8127,-0.1054,0.2285,-0.0154,0.0122,0.0437,3588,2019-08-07 16:46:29:502
-6.1077,-6.9456,-0.3336,-0.8127,-0.1054,0.2285,-0.0197,0.0878,0.0363,3594,2019-08-07 16:46:29:508
-6.1077,-6.9456,-0.3336,-0.8127,-0.1054,0.2285,-0.0197,0.0878,0.0363,3599,2019-08-07 16:46:29:513
-6.4139,-6.8262,-0.2582,-0.3374,-0.1832,0.1716,-0.0186,0.1347,0.0288,3604,2019-08-07 16:46:29:518
-6.4139,-6.8262,-0.2582,-0.3374,-0.1832,0.1716,-0.0186,0.1347,0.0288,3608,2019-08-07 16:46:29:522
-6.7823,-6.8406,-0.2346,-0.3374,-0.1832,0.1716,-0.0186,0.1262,0.015,3614,2019-08-07 16:46:29:528
-6.7823,-6.8406,-0.2346,-0.3374,-0.1832,0.1716,-0.0186,0.1262,0.015,3618,2019-08-07 16:46:29:532
-6.7823,-6.8406,-0.2346,0.062,-0.1326,-0.0083,-0.0197,0.0676,0.0054,3624,2019-08-07 16:46:29:538
-6.9019,-6.9313,-0.1828,0.062,-0.1326,-0.0083,-0.0197,0.0676,0.0054,3629,2019-08-07 16:46:29:543
-6.9019,-6.9313,-0.1828,0.062,-0.1326,-0.0083,-0.0197,0.0676,0.0054,3634,2019-08-07 16:46:29:548
-6.6005,-7.0076,-0.1969,0.062,-0.1326,-0.0083,0.0027,0.0292,-0.0298,3638,2019-08-07 16:46:29:552
-6.6005,-7.0076,-0.1969,-0.1359,-0.04,0.1317,0.0027,0.0292,-0.0298,3644,2019-08-07 16:46:29:558
-6.6005,-7.0076,-0.1969,-0.1359,-0.04,0.1317,0.0102,0.0068,-0.0276,3648,2019-08-07 16:46:29:562
-6.6579,-6.9408,-0.3336,-0.1359,-0.04,0.1317,0.0102,0.0068,-0.0276,3654,2019-08-07 16:46:29:568
-6.6579,-6.9408,-0.3336,-0.1359,-0.04,0.1317,-0.0165,-0.04,-0.0106,3659,2019-08-07 16:46:29:573
-6.1747,-7.1604,-0.3006,-0.658,0.123,0.1426,-0.0165,-0.04,-0.0106,3664,2019-08-07 16:46:29:578
-6.1747,-7.1604,-0.3006,-0.658,0.123,0.1426,-0.0101,-0.0347,-0.0276,3669,2019-08-07 16:46:29:583
-6.1747,-7.1604,-0.3006,-0.658,0.123,0.1426,-0.0101,-0.0347,-0.0276,3674,2019-08-07 16:46:29:588
-6.2369,-7.0792,-0.1498,-0.658,0.123,0.1426,0.0123,-0.0198,0.0054,3679,2019-08-07 16:46:29:593
-6.2369,-7.0792,-0.1498,-0.7219,0.0375,0.0239,0.0123,-0.0198,0.0054,3684,2019-08-07 16:46:29:598
-6.1015,-7.0746,-0.206,-0.7219,0.0375,0.0239,0.0123,-0.0198,0.0054,3689,2019-08-07 16:46:29:603
-6.1015,-7.0746,-0.206,-0.7219,0.0375,0.0239,0.0187,-0.0145,0.0107,3694,2019-08-07 16:46:29:608
-6.1398,-6.9839,-0.3239,-0.7219,0.0375,0.0239,0.0187,-0.0145,0.0107,3699,2019-08-07 16:46:29:613
-6.1398,-6.9839,-0.3239,-0.6399,-0.1256,0.1302,-0.0016,-0.0038,0.0224,3704,2019-08-07 16:46:29:618
-6.1398,-6.9839,-0.3239,-0.6399,-0.1256,0.1302,-0.0016,-0.0038,0.0224,3709,2019-08-07 16:46:29:623
-6.1876,-6.9505,-0.173,-0.6399,-0.1256,0.1302,-0.0016,-0.0038,0.0224,3713,2019-08-07 16:46:29:627
-6.1876,-6.9505,-0.173,-0.6399,-0.1256,0.1302,-0.0165,0.0047,0.0331,3719,2019-08-07 16:46:29:633
-6.422,-6.9266,-0.2107,-0.4075,-0.114,0.0565,-0.0261,0.0058,0.031,3724,2019-08-07 16:46:29:638
-6.422,-6.9266,-0.2107,-0.4075,-0.114,0.0565,-0.0261,0.0058,0.031,3729,2019-08-07 16:46:29:643
-6.422,-6.9266,-0.2107,-0.4075,-0.114,0.0565,-0.0261,0.0058,0.031,3734,2019-08-07 16:46:29:648
-6.4746,-6.9696,-0.2343,-0.4075,-0.114,0.0565,-0.0218,5.0E-4,0.0235,3739,2019-08-07 16:46:29:653
-6.4746,-6.9696,-0.2343,-0.2904,-0.0112,0.1416,-0.0218,5.0E-4,0.0235,3744,2019-08-07 16:46:29:658
-6.5607,-7.003,-0.2532,-0.2904,-0.0112,0.1416,-0.0122,-0.0017,0.0022,3749,2019-08-07 16:46:29:663
-6.5607,-7.003,-0.2532,-0.2904,-0.0112,0.1416,-0.0122,-0.0017,0.0022,3754,2019-08-07 16:46:29:668
-6.5607,-7.003,-0.2532,-0.2904,-0.0112,0.1416,-0.0069,-0.0145,-0.0021,3759,2019-08-07 16:46:29:673
-6.5177,-6.9648,-0.2814,-0.3468,-0.0265,0.1967,-0.0069,-0.0145,-0.0021,3764,2019-08-07 16:46:29:678
-6.5177,-6.9648,-0.2814,-0.3468,-0.0265,0.1967,6.0E-4,-0.0145,-0.0085,3769,2019-08-07 16:46:29:683
-6.3885,-7.0412,-0.2956,-0.3468,-0.0265,0.1967,6.0E-4,-0.0145,-0.0085,3774,2019-08-07 16:46:29:688
-6.3885,-7.0412,-0.2956,-0.3468,-0.0265,0.1967,0.0102,-0.0017,-0.0127,3779,2019-08-07 16:46:29:693
-6.3885,-7.0412,-0.2956,-0.5251,0.0656,0.0842,0.0102,-0.0017,-0.0127,3784,2019-08-07 16:46:29:698
-6.3119,-7.1176,-0.2202,-0.5251,0.0656,0.0842,0.0102,-0.0017,-0.0127,3789,2019-08-07 16:46:29:703
-6.3119,-7.1176,-0.2202,-0.5251,0.0656,0.0842,0.0229,0.0154,-0.0159,3794,2019-08-07 16:46:29:708
-6.3119,-7.1176,-0.2202,-0.5251,0.0656,0.0842,0.0229,0.0154,-0.0159,3799,2019-08-07 16:46:29:713
-6.3071,-7.0651,-0.239,-0.5251,0.0656,0.0842,0.0304,0.025,-0.0021,3804,2019-08-07 16:46:29:718
-6.3071,-7.0651,-0.239,-0.478,0.033,0.0611,0.0304,0.025,-0.0021,3809,2019-08-07 16:46:29:723
-6.3358,-6.9935,-0.2296,-0.478,0.033,0.0611,0.0347,0.009,1.0E-4,3813,2019-08-07 16:46:29:727
-6.3358,-6.9935,-0.2296,-0.478,0.033,0.0611,0.0347,0.009,1.0E-4,3819,2019-08-07 16:46:29:733
-6.3358,-6.9935,-0.2296,-0.478,0.033,0.0611,0.0347,-0.0059,1.0E-4,3824,2019-08-07 16:46:29:738
-6.4075,-6.9553,-0.2201,-0.4139,-0.0931,0.0643,0.0347,-0.0059,1.0E-4,3829,2019-08-07 16:46:29:743
-6.4075,-6.9553,-0.2201,-0.4139,-0.0931,0.0643,0.0251,-0.0177,0.0033,3834,2019-08-07 16:46:29:748
-6.374,-6.9171,-0.239,-0.4139,-0.0931,0.0643,0.0251,-0.0177,0.0033,3839,2019-08-07 16:46:29:753
-6.374,-6.9171,-0.239,-0.4139,-0.0931,0.0643,0.0208,-0.0209,-0.0042,3844,2019-08-07 16:46:29:758
-6.374,-6.9171,-0.239,-0.4462,-0.1183,0.0556,0.0208,-0.0209,-0.0042,3849,2019-08-07 16:46:29:763
-6.4171,-6.8598,-0.2673,-0.4462,-0.1183,0.0556,0.0208,-0.0209,-0.0042,3854,2019-08-07 16:46:29:768
-6.4171,-6.8598,-0.2673,-0.4462,-0.1183,0.0556,0.0219,-0.0177,-0.0074,3858,2019-08-07 16:46:29:772
-6.2783,-6.9123,-0.3757,-0.4462,-0.1183,0.0556,0.0219,-0.0177,-0.0074,3864,2019-08-07 16:46:29:778
-6.2783,-6.9123,-0.3757,-0.5441,-0.1447,0.2621,0.0283,0.0196,-0.017,3869,2019-08-07 16:46:29:783
-6.2783,-6.9123,-0.3757,-0.5441,-0.1447,0.2621,0.0283,0.0196,-0.017,3875,2019-08-07 16:46:29:789
-6.3883,-6.8789,-0.3615,-0.5441,-0.1447,0.2621,0.0293,0.0548,-0.0202,3880,2019-08-07 16:46:29:794
-6.3883,-6.8789,-0.3615,-0.5441,-0.1447,0.2621,0.0293,0.0548,-0.0202,3884,2019-08-07 16:46:29:798
-6.3883,-6.8789,-0.3615,-0.4732,-0.1676,0.0986,0.0293,0.0548,-0.0202,3889,2019-08-07 16:46:29:803
-6.3453,-6.9267,-0.2956,-0.4732,-0.1676,0.0986,0.0325,0.0718,-0.0191,3895,2019-08-07 16:46:29:809
-6.3453,-6.9267,-0.2956,-0.4732,-0.1676,0.0986,0.0325,0.0718,-0.0191,3899,2019-08-07 16:46:29:813
-6.4457,-6.9601,-0.2531,-0.4732,-0.1676,0.0986,0.0229,0.0867,-0.0212,3904,2019-08-07 16:46:29:818
-6.4457,-6.9601,-0.2531,-0.3681,-0.0812,0.0293,0.0229,0.0867,-0.0212,3909,2019-08-07 16:46:29:823
-6.4457,-6.9601,-0.2531,-0.3681,-0.0812,0.0293,0.0325,0.0612,-0.0063,3914,2019-08-07 16:46:29:828
-6.3979,-7.0126,-0.1966,-0.3681,-0.0812,0.0293,0.0325,0.0612,-0.0063,3919,2019-08-07 16:46:29:833
-6.3979,-7.0126,-0.1966,-0.3681,-0.0812,0.0293,0.0272,0.0196,-0.0031,3924,2019-08-07 16:46:29:838
-6.4313,-6.9792,-0.2437,-0.3658,-0.0642,0.1676,0.0272,0.0196,-0.0031,3929,2019-08-07 16:46:29:843
-6.4313,-6.9792,-0.2437,-0.3658,-0.0642,0.1676,-0.0048,-0.0155,0.0192,3934,2019-08-07 16:46:29:848
-6.4313,-6.9792,-0.2437,-0.3658,-0.0642,0.1676,-0.0048,-0.0155,0.0192,3939,2019-08-07 16:46:29:853
-6.2591,-7.0078,-0.1258,-0.3658,-0.0642,0.1676,0.0048,-0.0422,0.0246,3944,2019-08-07 16:46:29:858
-6.2591,-7.0078,-0.1258,-0.6104,-0.0637,0.0338,0.0048,-0.0422,0.0246,3949,2019-08-07 16:46:29:863
-6.2591,-7.0078,-0.1258,-0.6104,-0.0637,0.0338,0.0048,-0.0422,0.0246,3953,2019-08-07 16:46:29:867
-6.2543,-6.9887,-0.2154,-0.6104,-0.0637,0.0338,0.0187,-0.0304,0.0267,3958,2019-08-07 16:46:29:872
-6.2543,-6.9887,-0.2154,-0.6104,-0.0637,0.0338,0.0187,-0.0304,0.0267,3964,2019-08-07 16:46:29:878
-6.2638,-6.9171,-0.1588,-0.5453,-0.1432,0.0067,0.0208,-0.0155,0.0299,3969,2019-08-07 16:46:29:883
-6.2638,-6.9171,-0.1588,-0.5453,-0.1432,0.0067,0.0208,-0.0155,0.0299,3974,2019-08-07 16:46:29:888
-6.2638,-6.9171,-0.1588,-0.5453,-0.1432,0.0067,0.0219,0.0047,0.0288,3979,2019-08-07 16:46:29:893
-6.4026,-6.9123,-0.2201,-0.5453,-0.1432,0.0067,0.0219,0.0047,0.0288,3984,2019-08-07 16:46:29:898
-6.4026,-6.9123,-0.2201,-0.3238,-0.1592,0.0229,0.0315,0.0356,0.0224,3989,2019-08-07 16:46:29:903
-6.4935,-6.9505,-0.107,-0.3238,-0.1592,0.0229,0.0315,0.0356,0.0224,3994,2019-08-07 16:46:29:908
-6.4935,-6.9505,-0.107,-0.3238,-0.1592,0.0229,0.0592,0.0708,0.0171,3999,2019-08-07 16:46:29:913
-6.4935,-6.9505,-0.107,-0.3238,-0.1592,0.0229,0.0592,0.0708,0.0171,4004,2019-08-07 16:46:29:918
-6.5556,-7.0365,-0.2012,-0.2535,0.0141,0.2245,0.0624,0.0718,0.016,4009,2019-08-07 16:46:29:923
-6.5556,-7.0365,-0.2012,-0.2535,0.0141,0.2245,0.0624,0.0718,0.016,4013,2019-08-07 16:46:29:927
-6.5556,-7.0365,-0.2012,-0.2535,0.0141,0.2245,0.0208,0.0558,0.0086,4019,2019-08-07 16:46:29:933
-6.5987,-6.898,-0.1635,-0.2535,0.0141,0.2245,0.0208,0.0558,0.0086,4024,2019-08-07 16:46:29:938
-6.5987,-6.898,-0.1635,-0.2111,-0.3146,-0.1939,0.0155,0.0239,-0.0074,4028,2019-08-07 16:46:29:942
-6.5412,-6.7835,-0.008,-0.2111,-0.3146,-0.1939,0.0155,0.0239,-0.0074,4034,2019-08-07 16:46:29:948
-6.5412,-6.7835,-0.008,-0.2111,-0.3146,-0.1939,0.0155,0.0239,-0.0074,4039,2019-08-07 16:46:29:953
-6.5412,-6.7835,-0.008,-0.2487,-0.11,0.0058,0.0197,-0.0198,-0.0074,4044,2019-08-07 16:46:29:958
-6.4455,-7.151,-0.1824,-0.2487,-0.11,0.0058,0.0197,-0.0198,-0.0074,4049,2019-08-07 16:46:29:963
-6.4455,-7.151,-0.1824,-0.2487,-0.11,0.0058,0.0059,-0.0304,0.0065,4054,2019-08-07 16:46:29:968