ACCELEROMETER X (m/s²),ACCELEROMETER Y (m/s²),ACCELEROMETER Z (m/s²),LINEAR ACCELERATION X (m/s²),LINEAR ACCELERATION Y (m/s²),LINEAR ACCELERATION Z (m/s²),GYROSCOPE X (rad/s),GYROSCOPE Y (rad/s),GYROSCOPE Z (rad/s),Time since start in ms ,YYYY-MO-DD HH-MI-SS_SSS
-5.9837,-7.0892,0.8882,-0.3362,-0.3146,-0.04,-5.0E-4,-0.0475,0.0107,3,2019-08-07 16:44:29:958
-5.9837,-7.0892,0.8882,-0.3362,-0.3146,-0.04,-5.0E-4,-0.0475,0.0107,9,2019-08-07 16:44:29:964
-5.9837,-7.0892,0.8882,-0.3362,-0.3146,-0.04,-0.0058,-0.0358,0.015,14,2019-08-07 16:44:29:969
-5.9262,-7.094,0.8693,-0.3469,-0.3084,0.1288,-0.0058,-0.0358,0.015,18,2019-08-07 16:44:29:973
-5.9262,-7.094,0.8693,-0.3469,-0.3084,0.1288,-0.0112,-0.0155,0.015,24,2019-08-07 16:44:29:979
-5.9262,-7.094,0.8693,-0.3469,-0.3084,0.1288,-0.0112,-0.0155,0.015,28,2019-08-07 16:44:29:983
-5.9645,-7.1752,0.8458,-0.3469,-0.3084,0.1288,-0.0133,0.0079,0.0193,34,2019-08-07 16:44:29:989
-5.9645,-7.1752,0.8458,-0.2963,-0.2592,0.0748,-0.0133,0.0079,0.0193,39,2019-08-07 16:44:29:994
-6.0219,-7.2277,0.8505,-0.2963,-0.2592,0.0748,-0.0133,0.0249,0.0107,44,2019-08-07 16:44:29:999
-6.0219,-7.2277,0.8505,-0.2963,-0.2592,0.0748,-0.0133,0.0249,0.0107,49,2019-08-07 16:44:30:004
-6.0219,-7.2277,0.8505,-0.2963,-0.2592,0.0748,-0.0144,0.0484,0.0118,54,2019-08-07 16:44:30:009
-6.0602,-7.2372,0.8269,-0.2963,-0.2592,0.0748,-0.0144,0.0484,0.0118,59,2019-08-07 16:44:30:014
-6.0602,-7.2372,0.8269,-0.1787,-0.2251,0.0011,-0.0186,0.0526,0.0065,64,2019-08-07 16:44:30:019
-6.1511,-7.1656,0.8882,-0.1787,-0.2251,0.0011,-0.0186,0.0526,0.0065,68,2019-08-07 16:44:30:023
-6.1511,-7.1656,0.8882,-0.1787,-0.2251,0.0011,-0.0165,0.0441,0.0044,74,2019-08-07 16:44:30:029
-6.1511,-7.1656,0.8882,-0.1787,-0.2251,0.0011,-0.0165,0.0441,0.0044,78,2019-08-07 16:44:30:033
-6.175,-7.242,0.9306,-0.1376,-0.2102,-0.0075,-0.0165,0.0249,-0.001,84,2019-08-07 16:44:30:039
-6.175,-7.242,0.9306,-0.1376,-0.2102,-0.0075,-0.0165,0.0249,-0.001,89,2019-08-07 16:44:30:044
-6.1511,-7.2086,0.9259,-0.1376,-0.2102,-0.0075,-0.0133,0.0036,-0.001,95,2019-08-07 16:44:30:050
-6.1511,-7.2086,0.9259,-0.2241,-0.2963,-0.0635,-0.0133,0.0036,-0.001,99,2019-08-07 16:44:30:054
-6.1511,-7.2086,0.9259,-0.2241,-0.2963,-0.0635,-0.0133,0.0036,-0.001,104,2019-08-07 16:44:30:059
-6.0937,-7.1847,0.9919,-0.2241,-0.2963,-0.0635,-0.009,-0.0209,0.0033,109,2019-08-07 16:44:30:064
-6.0937,-7.1847,0.9919,-0.2241,-0.2963,-0.0635,-0.009,-0.0209,0.0033,114,2019-08-07 16:44:30:069
-5.9884,-7.1752,0.9872,-0.2241,-0.2963,-0.0635,-0.0037,-0.0336,0.0054,118,2019-08-07 16:44:30:073
-5.9884,-7.1752,0.9872,-0.3291,-0.2198,-0.009,-0.0037,-0.0336,0.0054,124,2019-08-07 16:44:30:079
-5.9884,-7.1752,0.9872,-0.3291,-0.2198,-0.009,6.0E-4,-0.0336,0.0097,129,2019-08-07 16:44:30:084
-5.9358,-7.2325,0.9259,-0.3291,-0.2198,-0.009,6.0E-4,-0.0336,0.0097,135,2019-08-07 16:44:30:090
-5.9358,-7.2325,0.9259,-0.3291,-0.2198,-0.009,0.0038,-0.0209,0.0129,139,2019-08-07 16:44:30:094
-5.9358,-7.2325,0.9259,-0.3865,-0.1763,-0.0283,0.0038,-0.0209,0.0129,144,2019-08-07 16:44:30:099
-5.9166,-7.2897,0.9071,-0.3865,-0.1763,-0.0283,0.008,0.0058,0.0139,149,2019-08-07 16:44:30:104
-5.9166,-7.2897,0.9071,-0.3865,-0.1763,-0.0283,0.008,0.0058,0.0139,154,2019-08-07 16:44:30:109
-5.9692,-7.2516,0.9071,-0.3865,-0.1763,-0.0283,0.008,0.0058,0.0139,158,2019-08-07 16:44:30:113
-5.9692,-7.2516,0.9071,-0.3016,-0.2039,-0.0183,0.0197,0.0271,0.0097,164,2019-08-07 16:44:30:119
-5.9692,-7.2516,0.9071,-0.3016,-0.2039,-0.0183,0.0197,0.0271,0.0097,168,2019-08-07 16:44:30:123
-6.0888,-7.1895,0.9731,-0.3016,-0.2039,-0.0183,0.0208,0.0388,0.0086,174,2019-08-07 16:44:30:129
-6.0888,-7.1895,0.9731,-0.3016,-0.2039,-0.0183,0.0208,0.0388,0.0086,179,2019-08-07 16:44:30:134
-6.1367,-7.1513,0.9872,-0.1933,-0.2694,-0.0849,0.0155,0.0356,0.0022,184,2019-08-07 16:44:30:139
-6.1367,-7.1513,0.9872,-0.1933,-0.2694,-0.0849,0.0155,0.0356,0.0022,189,2019-08-07 16:44:30:144
-6.1367,-7.1513,0.9872,-0.1933,-0.2694,-0.0849,0.0059,0.0154,-0.002,194,2019-08-07 16:44:30:149
-6.1606,-7.1704,1.0061,-0.1933,-0.2694,-0.0849,0.0059,0.0154,-0.002,200,2019-08-07 16:44:30:155
-6.1606,-7.1704,1.0061,-0.1176,-0.2591,-0.0992,0.0038,-0.0187,-0.002,204,2019-08-07 16:44:30:159
-6.1271,-7.1513,0.9919,-0.1176,-0.2591,-0.0992,0.0038,-0.0187,-0.002,209,2019-08-07 16:44:30:164
-6.1271,-7.1513,0.9919,-0.1176,-0.2591,-0.0992,-0.0016,-0.0379,0.0012,214,2019-08-07 16:44:30:169
-6.1271,-7.1513,0.9919,-0.1176,-0.2591,-0.0992,-0.0016,-0.0379,0.0012,219,2019-08-07 16:44:30:174
-6.0505,-7.1752,0.9825,-0.2655,-0.2732,-0.0521,-0.0016,-0.0379,0.0012,223,2019-08-07 16:44:30:178
-6.0505,-7.1752,0.9825,-0.2655,-0.2732,-0.0521,-0.009,-0.0411,0.0022,228,2019-08-07 16:44:30:183
-6.0123,-7.2372,0.9354,-0.2655,-0.2732,-0.0521,-0.009,-0.0411,0.0022,234,2019-08-07 16:44:30:189
-6.0123,-7.2372,0.9354,-0.2655,-0.2732,-0.0521,-0.0144,-0.0336,0.0033,239,2019-08-07 16:44:30:194
-6.0123,-7.2372,0.9354,-0.3604,-0.2066,-0.0058,-0.0144,-0.0336,0.0033,244,2019-08-07 16:44:30:199
-5.9501,-7.2611,0.8741,-0.3604,-0.2066,-0.0058,-0.0101,-0.007,0.0022,250,2019-08-07 16:44:30:205
-5.9501,-7.2611,0.8741,-0.3604,-0.2066,-0.0058,-0.0101,-0.007,0.0022,254,2019-08-07 16:44:30:209
-5.9501,-7.2611,0.8741,-0.3604,-0.2066,-0.0058,-0.0037,0.0196,-0.0042,259,2019-08-07 16:44:30:214
-5.9501,-7.2611,0.8741,-0.2926,-0.1454,-0.0448,-0.0037,0.0196,-0.0042,264,2019-08-07 16:44:30:219
-6.0601,-7.2516,0.9542,-0.2926,-0.1454,-0.0448,-0.0016,0.0367,-0.0116,269,2019-08-07 16:44:30:224
-6.0601,-7.2516,0.9542,-0.2926,-0.1454,-0.0448,-0.0016,0.0367,-0.0116,274,2019-08-07 16:44:30:229
-6.0697,-7.242,0.9542,-0.2926,-0.1454,-0.0448,0.008,0.0463,-0.018,279,2019-08-07 16:44:30:234
-6.0697,-7.242,0.9542,-0.1521,-0.1951,0.0122,0.008,0.0463,-0.018,284,2019-08-07 16:44:30:239
-6.0697,-7.242,0.9542,-0.1521,-0.1951,0.0122,0.0101,0.0377,-0.0308,289,2019-08-07 16:44:30:244
-6.2084,-7.2038,1.0108,-0.1521,-0.1951,0.0122,0.0101,0.0377,-0.0308,294,2019-08-07 16:44:30:249
-6.2084,-7.2038,1.0108,-0.1521,-0.1951,0.0122,0.0101,0.0377,-0.0308,299,2019-08-07 16:44:30:254
-6.2084,-7.2038,1.0108,-0.139,-0.2699,-0.0323,0.0091,0.0154,-0.0329,304,2019-08-07 16:44:30:259
-6.1653,-7.1895,0.9637,-0.139,-0.2699,-0.0323,0.0091,0.0154,-0.0329,309,2019-08-07 16:44:30:264
-6.1653,-7.1895,0.9637,-0.139,-0.2699,-0.0323,0.0133,-0.0049,-0.034,314,2019-08-07 16:44:30:269
-6.1653,-7.1895,0.9637,-0.139,-0.2699,-0.0323,0.0133,-0.0049,-0.034,319,2019-08-07 16:44:30:274
-6.1462,-7.1895,0.9872,-0.1628,-0.2689,-0.0193,0.0165,-0.0187,-0.0319,323,2019-08-07 16:44:30:278
-6.1462,-7.1895,0.9872,-0.1628,-0.2689,-0.0193,0.0165,-0.0187,-0.0319,329,2019-08-07 16:44:30:284
-6.0792,-7.1465,1.0249,-0.1628,-0.2689,-0.0193,0.0208,-0.0294,-0.0223,334,2019-08-07 16:44:30:289
-6.0792,-7.1465,1.0249,-0.1628,-0.2689,-0.0193,0.0208,-0.0294,-0.0223,339,2019-08-07 16:44:30:294
-6.0792,-7.1465,1.0249,-0.317,-0.2709,-0.0012,0.0251,-0.0475,-0.0042,344,2019-08-07 16:44:30:299
-5.9118,-7.1847,0.9919,-0.317,-0.2709,-0.0012,0.0251,-0.0475,-0.0042,350,2019-08-07 16:44:30:305
-5.9118,-7.1847,0.9919,-0.317,-0.2709,-0.0012,0.0315,-0.0422,0.0022,354,2019-08-07 16:44:30:309
-5.8687,-7.2038,0.9495,-0.317,-0.2709,-0.0012,0.0315,-0.0422,0.0022,359,2019-08-07 16:44:30:314
-5.8687,-7.2038,0.9495,-0.435,-0.3044,0.0327,0.0357,-0.0262,0.0097,364,2019-08-07 16:44:30:319
-5.8687,-7.2038,0.9495,-0.435,-0.3044,0.0327,0.0357,-0.0262,0.0097,369,2019-08-07 16:44:30:324
-5.8735,-7.1609,0.9778,-0.435,-0.3044,0.0327,0.0368,-0.0049,0.0139,374,2019-08-07 16:44:30:329
-5.8735,-7.1609,0.9778,-0.435,-0.3044,0.0327,0.0368,-0.0049,0.0139,379,2019-08-07 16:44:30:334
-5.95,-7.1943,0.9495,-0.3499,-0.2644,0.0069,0.04,0.0132,0.0182,383,2019-08-07 16:44:30:338
-5.95,-7.1943,0.9495,-0.3499,-0.2644,0.0069,0.04,0.0132,0.0182,389,2019-08-07 16:44:30:344
-5.95,-7.1943,0.9495,-0.3499,-0.2644,0.0069,0.04,0.0132,0.0182,393,2019-08-07 16:44:30:348
-5.9978,-7.1561,0.9354,-0.3499,-0.2644,0.0069,0.041,0.0217,0.0129,399,2019-08-07 16:44:30:354
-5.9978,-7.1561,0.9354,-0.2184,-0.2715,0.0059,0.0336,0.0228,0.0129,404,2019-08-07 16:44:30:359
-6.06,-7.1847,0.9448,-0.2184,-0.2715,0.0059,0.0336,0.0228,0.0129,409,2019-08-07 16:44:30:364
-6.06,-7.1847,0.9448,-0.2184,-0.2715,0.0059,0.0336,0.0228,0.0129,413,2019-08-07 16:44:30:368
-6.06,-7.1847,0.9448,-0.2184,-0.2715,0.0059,0.0261,0.0175,0.0075,419,2019-08-07 16:44:30:374
-6.0744,-7.1943,0.9165,-0.172,-0.2842,0.0317,0.0261,0.0175,0.0075,424,2019-08-07 16:44:30:379
-6.0744,-7.1943,0.9165,-0.172,-0.2842,0.0317,0.0229,0.0079,-0.002,428,2019-08-07 16:44:30:383
-6.0505,-7.1227,0.9495,-0.172,-0.2842,0.0317,0.0229,0.0079,-0.002,434,2019-08-07 16:44:30:389
-6.0505,-7.1227,0.9495,-0.172,-0.2842,0.0317,0.0187,-0.007,-0.0052,439,2019-08-07 16:44:30:394
-6.0505,-7.1227,0.9495,-0.172,-0.2842,0.0317,0.0187,-0.007,-0.0052,444,2019-08-07 16:44:30:399
-6.0505,-7.1227,0.9495,-0.172,-0.2842,0.0317,0.0187,-0.007,-0.0052,449,2019-08-07 16:44:30:404
-6.0505,-7.1227,0.9495,-0.172,-0.2842,0.0317,0.0187,-0.007,-0.0052,454,2019-08-07 16:44:30:409
-6.0505,-7.1227,0.9495,-0.172,-0.2842,0.0317,0.0187,-0.007,-0.0052,459,2019-08-07 16:44:30:414
-6.0505,-7.1227,0.9495,-0.172,-0.2842,0.0317,0.0187,-0.007,-0.0052,464,2019-08-07 16:44:30:419
-6.0505,-7.1227,0.9495,-0.172,-0.2842,0.0317,0.0187,-0.007,-0.0052,469,2019-08-07 16:44:30:424
-6.06,-7.0845,0.9542,-0.2437,-0.3698,0.0115,0.0144,-0.0134,-0.002,474,2019-08-07 16:44:30:429
-6.06,-7.0845,0.9542,-0.2437,-0.3698,0.0115,0.0144,-0.0134,-0.002,479,2019-08-07 16:44:30:434
-5.9739,-7.1227,0.893,-0.2437,-0.3698,0.0115,0.0016,-0.0038,0.0086,484,2019-08-07 16:44:30:439
-5.9739,-7.1227,0.893,-0.3116,-0.2872,0.0493,0.0016,-0.0038,0.0086,488,2019-08-07 16:44:30:443
-5.9739,-7.1227,0.893,-0.3116,-0.2872,0.0493,6.0E-4,0.0111,0.0044,494,2019-08-07 16:44:30:449
-6.0026,-7.137,0.9024,-0.3116,-0.2872,0.0493,6.0E-4,0.0111,0.0044,499,2019-08-07 16:44:30:454
-6.0026,-7.137,0.9024,-0.3116,-0.2872,0.0493,0.0027,0.0292,0.0044,504,2019-08-07 16:44:30:459
-6.0409,-7.137,0.9165,-0.2697,-0.3535,0.0611,0.0027,0.0292,0.0044,509,2019-08-07 16:44:30:464
-6.0409,-7.137,0.9165,-0.2697,-0.3535,0.0611,0.0101,0.0431,0.0044,514,2019-08-07 16:44:30:469
-6.0409,-7.137,0.9165,-0.2697,-0.3535,0.0611,0.0101,0.0431,0.0044,518,2019-08-07 16:44:30:473
-6.1078,-7.1513,0.959,-0.2697,-0.3535,0.0611,0.0133,0.0452,0.0044,524,2019-08-07 16:44:30:479
-6.1078,-7.1513,0.959,-0.2235,-0.3383,-0.056,0.0133,0.0452,0.0044,529,2019-08-07 16:44:30:484
-6.17,-7.1179,1.0155,-0.2235,-0.3383,-0.056,0.0101,0.0356,0.0086,534,2019-08-07 16:44:30:489
-6.17,-7.1179,1.0155,-0.2235,-0.3383,-0.056,0.0101,0.0356,0.0086,539,2019-08-07 16:44:30:494
-6.17,-7.1179,1.0155,-0.2235,-0.3383,-0.056,0.0101,0.0356,0.0086,543,2019-08-07 16:44:30:498
-6.1174,-7.1418,1.0061,-0.2161,-0.3126,-0.0475,0.0048,0.0068,0.0171,549,2019-08-07 16:44:30:504
-6.1174,-7.1418,1.0061,-0.2161,-0.3126,-0.0475,0.0048,0.0068,0.0171,554,2019-08-07 16:44:30:509
-6.0313,-7.1418,1.0438,-0.2161,-0.3126,-0.0475,0.008,-0.0209,0.0203,560,2019-08-07 16:44:30:515
-6.0313,-7.1418,1.0438,-0.2161,-0.3126,-0.0475,0.008,-0.0209,0.0203,564,2019-08-07 16:44:30:519
-6.0026,-7.1656,1.0297,-0.3336,-0.2144,-0.0197,0.0112,-0.0294,0.0289,569,2019-08-07 16:44:30:524
-6.0026,-7.1656,1.0297,-0.3336,-0.2144,-0.0197,0.0112,-0.0294,0.0289,574,2019-08-07 16:44:30:529
-6.0026,-7.1656,1.0297,-0.3336,-0.2144,-0.0197,0.0123,-0.0262,0.032,579,2019-08-07 16:44:30:534
-5.9691,-7.1656,0.9542,-0.3336,-0.2144,-0.0197,0.0123,-0.0262,0.032,584,2019-08-07 16:44:30:539
-5.9691,-7.1656,0.9542,-0.3326,-0.2869,0.056,0.0112,-0.0091,0.0363,589,2019-08-07 16:44:30:544
-6.0217,-7.1561,0.959,-0.3326,-0.2869,0.056,0.0112,-0.0091,0.0363,593,2019-08-07 16:44:30:548
-6.0217,-7.1561,0.959,-0.3326,-0.2869,0.056,0.007,0.0047,0.0374,599,2019-08-07 16:44:30:554
-6.0217,-7.1561,0.959,-0.3326,-0.2869,0.056,0.007,0.0047,0.0374,604,2019-08-07 16:44:30:559
-6.0552,-7.2038,0.9213,-0.2661,-0.2347,0.0516,0.007,0.0047,0.0374,609,2019-08-07 16:44:30:564
-6.0552,-7.2038,0.9213,-0.2661,-0.2347,0.0516,0.0038,0.0324,0.0363,614,2019-08-07 16:44:30:569
-6.0552,-7.2038,0.9213,-0.2661,-0.2347,0.0516,0.0038,0.0324,0.0363,619,2019-08-07 16:44:30:574
-6.1365,-7.2038,0.9071,-0.2661,-0.2347,0.0516,0.008,0.0505,0.0267,624,2019-08-07 16:44:30:579
-6.1365,-7.2038,0.9071,-0.1903,-0.2783,0.0421,0.008,0.0505,0.0267,629,2019-08-07 16:44:30:584
-6.17,-7.1704,0.9778,-0.1903,-0.2783,0.0421,0.008,0.0537,0.0246,634,2019-08-07 16:44:30:589
-6.17,-7.1704,0.9778,-0.1903,-0.2783,0.0421,0.008,0.0537,0.0246,639,2019-08-07 16:44:30:594
-6.2035,-7.1227,1.0297,-0.1903,-0.2783,0.0421,0.0123,0.042,0.0214,644,2019-08-07 16:44:30:599
-6.2035,-7.1227,1.0297,-0.1379,-0.308,0.0143,0.0123,0.042,0.0214,649,2019-08-07 16:44:30:604
-6.2035,-7.1227,1.0297,-0.1379,-0.308,0.0143,0.0123,0.042,0.0214,654,2019-08-07 16:44:30:609
-6.2226,-7.1036,0.9873,-0.1379,-0.308,0.0143,0.0133,0.0217,0.0193,659,2019-08-07 16:44:30:614
-6.2226,-7.1036,0.9873,-0.1379,-0.308,0.0143,0.0133,0.0217,0.0193,665,2019-08-07 16:44:30:620
-6.2226,-7.1036,0.9873,-0.0989,-0.2902,-0.07,0.0155,-0.0049,0.0203,669,2019-08-07 16:44:30:624
-6.2035,-7.1084,1.0202,-0.0989,-0.2902,-0.07,0.0155,-0.0049,0.0203,674,2019-08-07 16:44:30:629
-6.2035,-7.1084,1.0202,-0.0989,-0.2902,-0.07,0.0187,-0.0304,0.0203,679,2019-08-07 16:44:30:634
-6.1939,-7.0845,1.0108,-0.0989,-0.2902,-0.07,0.0187,-0.0304,0.0203,684,2019-08-07 16:44:30:639
-6.1939,-7.0845,1.0108,-0.1978,-0.3294,-0.0527,0.0197,-0.0549,0.0214,688,2019-08-07 16:44:30:643
-6.1939,-7.0845,1.0108,-0.1978,-0.3294,-0.0527,0.0197,-0.0549,0.0214,693,2019-08-07 16:44:30:648
-6.1125,-7.0845,0.9495,-0.242,-0.3421,0.0325,0.0165,-0.0539,0.0182,699,2019-08-07 16:44:30:654
-6.1125,-7.0845,0.9495,-0.242,-0.3421,0.0325,0.0165,-0.0539,0.0182,703,2019-08-07 16:44:30:658
-6.0312,-7.1609,1.0391,-0.242,-0.3421,0.0325,0.0165,-0.0539,0.0182,709,2019-08-07 16:44:30:664
-6.0312,-7.1609,1.0391,-0.242,-0.3421,0.0325,0.0112,-0.0336,0.0129,713,2019-08-07 16:44:30:668
-6.0312,-7.1609,1.0391,-0.3484,-0.2447,0.021,0.0112,-0.0336,0.0129,719,2019-08-07 16:44:30:674
-5.9834,-7.18,0.9543,-0.3484,-0.2447,0.021,0.0091,-0.007,0.0086,724,2019-08-07 16:44:30:679
-5.9834,-7.18,0.9543,-0.3484,-0.2447,0.021,0.0091,-0.007,0.0086,729,2019-08-07 16:44:30:684
-6.0599,-7.1466,0.9213,-0.3484,-0.2447,0.021,0.0038,0.0143,0.0065,734,2019-08-07 16:44:30:689
-6.0599,-7.1466,0.9213,-0.2728,-0.2772,0.0448,0.0038,0.0143,0.0065,739,2019-08-07 16:44:30:694
-6.0599,-7.1466,0.9213,-0.2728,-0.2772,0.0448,0.0027,0.0175,0.0097,744,2019-08-07 16:44:30:699
-6.103,-7.1513,0.9684,-0.2728,-0.2772,0.0448,0.0027,0.0175,0.0097,749,2019-08-07 16:44:30:704
-6.103,-7.1513,0.9684,-0.2728,-0.2772,0.0448,-0.0016,0.0143,0.0086,754,2019-08-07 16:44:30:709
-6.103,-7.1513,0.9684,-0.2728,-0.2772,0.0448,-0.0016,0.0143,0.0086,759,2019-08-07 16:44:30:714
-6.0408,-7.0415,0.9495,-0.3032,-0.3763,0.0339,-0.008,0.0036,0.0129,764,2019-08-07 16:44:30:719
-6.0408,-7.0415,0.9495,-0.3032,-0.3763,0.0339,-0.008,0.0036,0.0129,769,2019-08-07 16:44:30:724
-6.1125,-7.1036,0.9825,-0.3032,-0.3763,0.0339,-0.0165,0.0068,0.015,773,2019-08-07 16:44:30:728
-6.1125,-7.1036,0.9825,-0.2622,-0.2889,-0.0063,-0.0165,0.0068,0.015,779,2019-08-07 16:44:30:734
-6.1125,-7.1036,0.9825,-0.2622,-0.2889,-0.0063,-0.0165,0.0068,0.015,783,2019-08-07 16:44:30:738
-6.0982,-7.0749,1.0297,-0.2622,-0.2889,-0.0063,-0.0133,0.0036,0.0182,789,2019-08-07 16:44:30:744
-6.0982,-7.0749,1.0297,-0.2622,-0.2889,-0.0063,-0.0133,0.0036,0.0182,794,2019-08-07 16:44:30:749
-6.1699,-7.1561,0.9967,-0.2622,-0.2889,-0.0063,-0.0112,-0.0081,0.0161,798,2019-08-07 16:44:30:753
-6.1699,-7.1561,0.9967,-0.1692,-0.2199,0.0255,-0.0112,-0.0081,0.0161,804,2019-08-07 16:44:30:759
-6.1699,-7.1561,0.9967,-0.1692,-0.2199,0.0255,-0.0133,-0.0177,0.0139,808,2019-08-07 16:44:30:763
-6.1603,-7.2038,0.9401,-0.1692,-0.2199,0.0255,-0.0133,-0.0177,0.0139,814,2019-08-07 16:44:30:769
-6.1603,-7.2038,0.9401,-0.1692,-0.2199,0.0255,-0.0144,-0.0187,0.0086,819,2019-08-07 16:44:30:774
-6.1173,-7.2134,0.9354,-0.2377,-0.2616,0.0488,-0.0144,-0.0187,0.0086,824,2019-08-07 16:44:30:779
-6.1173,-7.2134,0.9354,-0.2377,-0.2616,0.0488,-0.0112,-0.0081,-0.002,828,2019-08-07 16:44:30:783
-6.0981,-7.2086,0.8176,-0.2377,-0.2616,0.0488,-0.0112,-0.0081,-0.002,835,2019-08-07 16:44:30:790
-6.0981,-7.2086,0.8176,-0.2377,-0.2616,0.0488,-0.0112,0.0132,-0.0106,838,2019-08-07 16:44:30:793
-6.0981,-7.2086,0.8176,-0.2322,-0.2386,0.028,-0.0112,0.0132,-0.0106,844,2019-08-07 16:44:30:799
-6.1173,-7.1466,0.9496,-0.2322,-0.2386,0.028,-0.008,0.0196,-0.0159,849,2019-08-07 16:44:30:804
-6.1173,-7.1466,0.9496,-0.2322,-0.2386,0.028,-0.008,0.0196,-0.0159,854,2019-08-07 16:44:30:809
-6.1173,-7.1466,0.9496,-0.2322,-0.2386,0.028,-0.008,0.0196,-0.0159,859,2019-08-07 16:44:30:814
-6.1507,-7.1322,0.9401,-0.2114,-0.2882,-0.055,-0.0037,0.0111,-0.0116,864,2019-08-07 16:44:30:819
-6.1507,-7.1322,0.9401,-0.2114,-0.2882,-0.055,-0.0037,0.0111,-0.0116,869,2019-08-07 16:44:30:824
-6.1507,-7.1322,0.9401,-0.2114,-0.2882,-0.055,-0.0037,-0.0017,-0.0095,874,2019-08-07 16:44:30:829
-6.1364,-7.137,1.0108,-0.2114,-0.2882,-0.055,-0.0037,-0.0017,-0.0095,878,2019-08-07 16:44:30:833
-6.1364,-7.137,1.0108,-0.2387,-0.2656,-0.0081,-0.0016,-0.0177,-0.0042,884,2019-08-07 16:44:30:839
-6.0838,-7.1418,0.9967,-0.2387,-0.2656,-0.0081,-0.0016,-0.0177,-0.0042,888,2019-08-07 16:44:30:843
-6.0838,-7.1418,0.9967,-0.2387,-0.2656,-0.0081,0.0016,-0.0336,-0.001,894,2019-08-07 16:44:30:849
-6.0838,-7.1418,0.9967,-0.2387,-0.2656,-0.0081,0.0016,-0.0336,-0.001,900,2019-08-07 16:44:30:855
-6.0407,-7.1418,0.9778,-0.3046,-0.2754,0.0011,0.008,-0.0315,-0.001,903,2019-08-07 16:44:30:858
-6.0407,-7.1418,0.9778,-0.3046,-0.2754,0.0011,0.008,-0.0315,-0.001,909,2019-08-07 16:44:30:864
-6.0503,-7.1275,0.959,-0.3046,-0.2754,0.0011,0.0112,-0.0241,-0.0063,914,2019-08-07 16:44:30:869
-6.0503,-7.1275,0.959,-0.3046,-0.2754,0.0011,0.0112,-0.0241,-0.0063,919,2019-08-07 16:44:30:874
-6.0503,-7.1275,0.959,-0.3128,-0.3618,-0.0031,0.0112,-0.0241,-0.0063,924,2019-08-07 16:44:30:879
-6.0503,-7.0702,1.0156,-0.3128,-0.3618,-0.0031,0.0091,-0.0038,-0.0095,929,2019-08-07 16:44:30:884
-6.0503,-7.0702,1.0156,-0.3128,-0.3618,-0.0031,0.0091,-0.0038,-0.0095,934,2019-08-07 16:44:30:889
-6.0742,-7.1227,0.9684,-0.3128,-0.3618,-0.0031,0.0059,0.0143,-0.0074,939,2019-08-07 16:44:30:894
-6.0742,-7.1227,0.9684,-0.2783,-0.3101,-0.0068,0.0059,0.0143,-0.0074,945,2019-08-07 16:44:30:900
-6.0742,-7.1227,0.9684,-0.2783,-0.3101,-0.0068,0.0059,0.0143,-0.0074,948,2019-08-07 16:44:30:903
-6.1124,-7.1418,1.0391,-0.2783,-0.3101,-0.0068,0.0038,0.0122,-0.0063,954,2019-08-07 16:44:30:909
-6.1124,-7.1418,1.0391,-0.2783,-0.3101,-0.0068,0.0038,0.0122,-0.0063,959,2019-08-07 16:44:30:914
-6.1172,-7.1227,1.0297,-0.2153,-0.2391,-0.1012,0.0016,-0.0017,-0.0052,964,2019-08-07 16:44:30:919
-6.1172,-7.1227,1.0297,-0.2153,-0.2391,-0.1012,0.0016,-0.0017,-0.0052,969,2019-08-07 16:44:30:924
-6.1172,-7.1227,1.0297,-0.2153,-0.2391,-0.1012,0.0016,-0.0017,-0.0052,975,2019-08-07 16:44:30:930
-6.1126,-7.1513,1.0438,-0.2153,-0.2391,-0.1012,-0.0037,-0.0219,-0.001,978,2019-08-07 16:44:30:933
-6.1126,-7.1513,1.0438,-0.3196,-0.2538,-0.0421,-0.0037,-0.0219,-0.001,984,2019-08-07 16:44:30:939
-6.1126,-7.1513,1.0438,-0.3196,-0.2538,-0.0421,-0.0069,-0.0368,0.0065,988,2019-08-07 16:44:30:943
-5.993,-7.137,0.9872,-0.3196,-0.2538,-0.0421,-0.0069,-0.0368,0.0065,994,2019-08-07 16:44:30:949
-5.993,-7.137,0.9872,-0.3196,-0.2538,-0.0421,-0.0112,-0.0326,0.0107,999,2019-08-07 16:44:30:954
-5.9738,-7.1895,1.0155,-0.3674,-0.2296,-0.0245,-0.0112,-0.0326,0.0107,1004,2019-08-07 16:44:30:959
-5.9738,-7.1895,1.0155,-0.3674,-0.2296,-0.0245,-0.009,-0.0241,0.0171,1009,2019-08-07 16:44:30:964
-5.9738,-7.1895,1.0155,-0.3674,-0.2296,-0.0245,-0.009,-0.0241,0.0171,1014,2019-08-07 16:44:30:969
-5.9929,-7.18,0.9637,-0.3674,-0.2296,-0.0245,-0.0058,-0.0134,0.0214,1018,2019-08-07 16:44:30:973
-5.9929,-7.18,0.9637,-0.3304,-0.2284,0.057,-0.0058,-0.0134,0.0214,1024,2019-08-07 16:44:30:979
-5.9929,-7.18,0.9637,-0.3304,-0.2284,0.057,-0.0058,-0.0134,0.0214,1028,2019-08-07 16:44:30:983
-6.0169,-7.1227,0.9213,-0.3304,-0.2284,0.057,-0.0037,-0.0017,0.0214,1034,2019-08-07 16:44:30:989
-6.0169,-7.1227,0.9213,-0.3304,-0.2284,0.057,-0.0037,-0.0017,0.0214,1038,2019-08-07 16:44:30:993
-6.0264,-7.1131,0.9307,-0.3194,-0.302,0.0601,-0.009,0.0143,0.0267,1044,2019-08-07 16:44:30:999
-6.0264,-7.1131,0.9307,-0.3194,-0.302,0.0601,-0.009,0.0143,0.0267,1049,2019-08-07 16:44:31:004
-6.0264,-7.1131,0.9307,-0.3194,-0.302,0.0601,-0.009,0.0143,0.0267,1054,2019-08-07 16:44:31:009
-6.0264,-7.1131,0.9307,-0.3194,-0.302,0.0601,-0.009,0.0143,0.0267,1059,2019-08-07 16:44:31:014
-5.9977,-7.1322,0.926,-0.3552,-0.2812,0.11,-0.0101,0.0154,0.031,1064,2019-08-07 16:44:31:019
-5.9977,-7.1322,0.926,-0.3552,-0.2812,0.11,-0.0101,0.0154,0.031,1069,2019-08-07 16:44:31:024
-5.9977,-7.1322,0.926,-0.3552,-0.2812,0.11,-0.0101,0.0154,0.031,1074,2019-08-07 16:44:31:029
-5.7729,-7.2086,0.6667,-0.6429,-0.2203,0.3902,-0.0154,0.0431,0.0523,1079,2019-08-07 16:44:31:034
-5.7729,-7.2086,0.6667,-0.6429,-0.2203,0.3902,-0.0154,0.0431,0.0523,1083,2019-08-07 16:44:31:038
-5.3471,-7.2659,0.4122,-0.6429,-0.2203,0.3902,0.0197,0.1283,0.0789,1089,2019-08-07 16:44:31:044
-5.3471,-7.2659,0.4122,-0.6429,-0.2203,0.3902,0.0197,0.1283,0.0789,1093,2019-08-07 16:44:31:048
-5.3471,-7.2659,0.4122,-1.1056,-0.1056,0.6003,0.0826,0.238,0.1151,1098,2019-08-07 16:44:31:053
-5.194,-7.2373,0.4027,-1.1056,-0.1056,0.6003,0.0826,0.238,0.1151,1104,2019-08-07 16:44:31:059
-5.194,-7.2373,0.4027,-1.1056,-0.1056,0.6003,0.0826,0.238,0.1151,1108,2019-08-07 16:44:31:063
-5.194,-7.2373,0.4027,-1.1056,-0.1056,0.6003,0.1603,0.3339,0.1631,1113,2019-08-07 16:44:31:068
-5.1796,-6.9604,0.6149,-1.2029,-0.4294,0.3286,0.1603,0.3339,0.1631,1119,2019-08-07 16:44:31:074
-5.1796,-6.9604,0.6149,-1.2029,-0.4294,0.3286,0.2584,0.3807,0.2664,1123,2019-08-07 16:44:31:078
-4.8351,-6.4066,0.8553,-1.2029,-0.4294,0.3286,0.2584,0.3807,0.2664,1129,2019-08-07 16:44:31:084
-4.8351,-6.4066,0.8553,-1.2029,-0.4294,0.3286,0.351,0.3626,0.4102,1133,2019-08-07 16:44:31:088
-4.8351,-6.4066,0.8553,-2.1816,-1.0972,0.2499,0.351,0.3626,0.4102,1139,2019-08-07 16:44:31:094
-3.4573,-6.1775,0.1293,-2.1816,-1.0972,0.2499,0.4576,0.4074,0.5988,1143,2019-08-07 16:44:31:098
-3.4573,-6.1775,0.1293,-2.1816,-1.0972,0.2499,0.4576,0.4074,0.5988,1149,2019-08-07 16:44:31:104
-3.4573,-6.1775,0.1293,-2.1816,-1.0972,0.2499,0.596,0.6098,0.815,1153,2019-08-07 16:44:31:108
-2.2181,-5.9245,-0.8323,-4.2972,-1.3493,1.77,0.596,0.6098,0.815,1159,2019-08-07 16:44:31:114
-2.2181,-5.9245,-0.8323,-4.2972,-1.3493,1.77,0.8123,0.9198,1.1037,1164,2019-08-07 16:44:31:119
-1.4383,-5.2132,-0.7474,-4.2972,-1.3493,1.77,0.8123,0.9198,1.1037,1169,2019-08-07 16:44:31:124
-1.4383,-5.2132,-0.7474,-4.2972,-1.3493,1.77,1.118,1.1776,1.467,1173,2019-08-07 16:44:31:128
-1.4383,-5.2132,-0.7474,-5.3019,-2.3291,1.4646,1.118,1.1776,1.467,1179,2019-08-07 16:44:31:134
-1.644,-4.3873,-0.3138,-5.3019,-2.3291,1.4646,1.4227,1.3725,1.925,1184,2019-08-07 16:44:31:139
-1.644,-4.3873,-0.3138,-5.3019,-2.3291,1.4646,1.4227,1.3725,1.925,1188,2019-08-07 16:44:31:143
-1.644,-4.3873,-0.3138,-5.3019,-2.3291,1.4646,1.4227,1.3725,1.925,1194,2019-08-07 16:44:31:149
-1.9311,-3.2798,0.4687,-5.0962,-3.6752,0.3017,1.6453,1.4268,2.4811,1198,2019-08-07 16:44:31:153
-1.9311,-3.2798,0.4687,-5.0962,-3.6752,0.3017,1.6453,1.4268,2.4811,1204,2019-08-07 16:44:31:159
-1.8354,-2.3489,1.1051,-5.0962,-3.6752,0.3017,1.7977,1.1424,3.2779,1208,2019-08-07 16:44:31:163
-1.8354,-2.3489,1.1051,-5.0962,-3.6752,0.3017,1.7977,1.1424,3.2779,1214,2019-08-07 16:44:31:169
-1.8354,-2.3489,1.1051,-5.6515,-4.4417,-0.1025,1.8477,0.776,3.8223,1218,2019-08-07 16:44:31:173
-1.5627,-1.628,1.1381,-5.6515,-4.4417,-0.1025,1.8477,0.776,3.8223,1224,2019-08-07 16:44:31:179
-1.5627,-1.628,1.1381,-5.6515,-4.4417,-0.1025,1.9383,0.3754,4.4113,1229,2019-08-07 16:44:31:184
-0.7207,-0.9358,0.4829,-5.6515,-4.4417,-0.1025,1.9383,0.3754,4.4113,1234,2019-08-07 16:44:31:189
-0.7207,-0.9358,0.4829,-7.4878,-4.8568,0.8649,1.9383,0.3754,4.4113,1239,2019-08-07 16:44:31:194
-0.7207,-0.9358,0.4829,-7.4878,-4.8568,0.8649,2.1311,0.1411,5.1826,1243,2019-08-07 16:44:31:198
0.4323,-0.32,-0.1959,-8.6287,-4.9146,1.4827,2.1311,0.1411,5.1826,1249,2019-08-07 16:44:31:204
0.4323,-0.32,-0.1959,-8.6287,-4.9146,1.4827,2.309,0.1144,5.8175,1254,2019-08-07 16:44:31:209
0.4323,-0.32,-0.1959,-8.6287,-4.9146,1.4827,2.309,0.1144,5.8175,1259,2019-08-07 16:44:31:214
1.3988,0.7875,0.6997,-8.6287,-4.9146,1.4827,2.4613,0.0452,6.3352,1263,2019-08-07 16:44:31:218
1.3988,0.7875,0.6997,-10.3198,-5.5028,0.1597,2.4613,0.0452,6.3352,1269,2019-08-07 16:44:31:224
1.3414,1.7327,2.062,-10.3198,-5.5028,0.1597,2.7085,-0.252,7.294,1273,2019-08-07 16:44:31:228
1.3414,1.7327,2.062,-10.2471,-5.2233,-0.6354,2.7085,-0.252,7.294,1279,2019-08-07 16:44:31:234
1.3414,1.7327,2.062,-10.2471,-5.2233,-0.6354,2.7085,-0.252,7.294,1283,2019-08-07 16:44:31:238
0.4467,2.0335,3.7024,-10.2471,-5.2233,-0.6354,2.8427,-0.4598,7.8404,1289,2019-08-07 16:44:31:244
0.4467,2.0335,3.7024,-10.2471,-5.2233,-0.6354,2.8427,-0.4598,7.8404,1294,2019-08-07 16:44:31:249
-1.2947,2.3629,4.2209,-8.409,-3.9498,-2.2183,3.011,-1.1969,8.7427,1299,2019-08-07 16:44:31:254
-1.2947,2.3629,4.2209,-8.409,-3.9498,-2.2183,3.1133,-1.8925,9.2615,1304,2019-08-07 16:44:31:259
-1.2947,2.3629,4.2209,-8.409,-3.9498,-2.2183,3.1133,-1.8925,9.2615,1309,2019-08-07 16:44:31:264
-2.2659,2.7591,3.8156,-8.409,-3.9498,-2.2183,3.1133,-1.8925,9.2615,1314,2019-08-07 16:44:31:269
-2.2659,2.7591,3.8156,-6.9953,-3.0497,-0.8416,3.288,-2.5732,9.7228,1319,2019-08-07 16:44:31:274
-2.2659,2.7591,3.8156,-6.9953,-3.0497,-0.8416,3.288,-2.5732,9.7228,1323,2019-08-07 16:44:31:278
-2.3568,4.2151,2.7785,-6.9953,-3.0497,-0.8416,3.5958,-3.2507,10.1457,1329,2019-08-07 16:44:31:284
-2.3568,4.2151,2.7785,-6.9953,-3.0497,-0.8416,3.5958,-3.2507,10.1457,1333,2019-08-07 16:44:31:288
-0.9024,5.6139,1.2088,-8.092,-3.1557,1.8398,4.0305,-3.5927,10.5089,1339,2019-08-07 16:44:31:294
-0.9024,5.6139,1.2088,-8.092,-3.1557,1.8398,4.0305,-3.5927,10.5089,1344,2019-08-07 16:44:31:299
-0.9024,5.6139,1.2088,-8.092,-3.1557,1.8398,4.0305,-3.5927,10.5089,1349,2019-08-07 16:44:31:304
-0.9024,5.6139,1.2088,-8.092,-3.1557,1.8398,4.0305,-3.5927,10.5089,1354,2019-08-07 16:44:31:309
-0.9024,5.6139,1.2088,-8.092,-3.1557,1.8398,4.0305,-3.5927,10.5089,1359,2019-08-07 16:44:31:314
-0.2948,7.0317,0.7563,-8.3976,-3.9092,2.5964,4.4789,-3.6353,10.7667,1363,2019-08-07 16:44:31:318
-0.2948,7.0317,0.7563,-8.3976,-3.9092,2.5964,4.4789,-3.6353,10.7667,1369,2019-08-07 16:44:31:324
-0.2948,7.0317,0.7563,-8.3976,-3.9092,2.5964,4.4789,-3.6353,10.7667,1374,2019-08-07 16:44:31:329
-0.2948,7.0317,0.7563,-8.3976,-3.9092,2.5964,5.4259,-3.5533,11.1257,1378,2019-08-07 16:44:31:333
-2.1559,11.5955,1.4115,-2.3788,-7.4271,0.5308,5.4259,-3.5533,11.1257,1384,2019-08-07 16:44:31:339
-2.1559,11.5955,1.4115,-2.3788,-7.4271,0.5308,5.4259,-3.5533,11.1257,1388,2019-08-07 16:44:31:343
-6.3995,18.9949,4.0795,0.9568,-11.424,-1.0308,6.0214,-4.5738,11.2045,1394,2019-08-07 16:44:31:349
-6.3995,18.9949,4.0795,0.9568,-11.424,-1.0308,6.0214,-4.5738,11.2045,1398,2019-08-07 16:44:31:353
-6.3995,18.9949,4.0795,0.9568,-11.424,-1.0308,6.5477,-5.247,10.9883,1404,2019-08-07 16:44:31:359
-6.7583,33.8796,6.6438,3.5613,-28.6613,-5.9428,6.5477,-5.247,10.9883,1408,2019-08-07 16:44:31:363
-6.7583,33.8796,6.6438,3.5613,-28.6613,-5.9428,6.4539,-5.4356,10.3992,1414,2019-08-07 16:44:31:369
-6.8779,46.6735,10.1698,3.5613,-28.6613,-5.9428,6.4539,-5.4356,10.3992,1419,2019-08-07 16:44:31:374
-6.8779,46.6735,10.1698,3.5613,-28.6613,-5.9428,6.4539,-5.4356,10.3992,1423,2019-08-07 16:44:31:378
-6.8779,46.6735,10.1698,4.9133,-32.5724,13.382,4.4267,-3.6864,8.7246,1429,2019-08-07 16:44:31:384
-4.7729,38.0138,-19.1313,4.9133,-32.5724,13.382,4.4267,-3.6864,8.7246,1433,2019-08-07 16:44:31:388
-4.7729,38.0138,-19.1313,4.9133,-32.5724,13.382,0.7335,-0.4821,6.8018,1439,2019-08-07 16:44:31:394
-1.7971,21.735,-23.369,4.9133,-32.5724,13.382,0.7335,-0.4821,6.8018,1443,2019-08-07 16:44:31:398
-1.7971,21.735,-23.369,0.0653,-8.2605,16.4101,-3.0749,0.2188,5.3701,1449,2019-08-07 16:44:31:404
-1.7971,21.735,-23.369,0.0653,-8.2605,16.4101,-3.0749,0.2188,5.3701,1453,2019-08-07 16:44:31:408
2.1212,11.3759,-11.2403,0.0653,-8.2605,16.4101,-3.0749,0.2188,5.3701,1459,2019-08-07 16:44:31:414
2.1212,11.3759,-11.2403,0.0653,-8.2605,16.4101,-5.4941,0.7664,3.3365,1463,2019-08-07 16:44:31:418
7.1591,6.3299,42.9307,-6.3318,3.1864,-40.6967,-5.4941,0.7664,3.3365,1469,2019-08-07 16:44:31:424
7.1591,6.3299,42.9307,-6.3318,3.1864,-40.6967,-1.6325,3.8674,-0.0734,1473,2019-08-07 16:44:31:428
7.1591,6.3299,42.9307,-6.3318,3.1864,-40.6967,-1.6325,3.8674,-0.0734,1479,2019-08-07 16:44:31:434
-7.8969,10.1108,25.6358,-6.3318,3.1864,-40.6967,3.0142,3.8578,-1.9472,1483,2019-08-07 16:44:31:438
-7.8969,10.1108,25.6358,-6.3318,3.1864,-40.6967,3.0142,3.8578,-1.9472,1489,2019-08-07 16:44:31:444
-12.6142,10.1967,17.4997,9.8155,0.4618,-28.2555,5.2076,1.2894,-2.6013,1494,2019-08-07 16:44:31:449
-12.6142,10.1967,17.4997,9.8155,0.4618,-28.2555,5.2076,1.2894,-2.6013,1498,2019-08-07 16:44:31:453
-12.6142,10.1967,17.4997,9.8155,0.4618,-28.2555,2.6073,1.4119,-3.2713,1504,2019-08-07 16:44:31:459
-13.394,21.1431,-2.5245,9.8155,0.4618,-28.2555,2.6073,1.4119,-3.2713,1509,2019-08-07 16:44:31:464
-13.394,21.1431,-2.5245,12.7215,-12.5462,4.2956,-0.401,-1.2438,-3.0008,1514,2019-08-07 16:44:31:469
-13.394,21.1431,-3.2646,12.7215,-12.5462,4.2956,-0.401,-1.2438,-3.0008,1519,2019-08-07 16:44:31:474
-9.0882,22.1026,-3.2646,12.7215,-12.5462,4.2956,-0.401,-1.2438,-3.0008,1523,2019-08-07 16:44:31:478
-9.0882,22.1026,-3.2646,12.7215,-12.5462,4.2956,-2.9449,-2.1162,-2.6982,1529,2019-08-07 16:44:31:484
-9.0882,22.1026,-3.2646,2.0151,-5.8515,3.7971,-2.9449,-2.1162,-2.6982,1533,2019-08-07 16:44:31:488
0.5233,12.6171,10.4102,2.0151,-5.8515,3.7971,-4.0549,0.0718,-2.8921,1539,2019-08-07 16:44:31:494
0.5233,12.6171,10.4102,2.0151,-5.8515,3.7971,-4.0549,0.0718,-2.8921,1544,2019-08-07 16:44:31:499
0.8869,7.3277,17.5893,2.0151,-5.8515,3.7971,-1.9808,0.1762,-3.5408,1549,2019-08-07 16:44:31:504
0.8869,7.3277,17.5893,-0.6405,2.4655,-13.3012,-1.9808,0.1762,-3.5408,1554,2019-08-07 16:44:31:509
0.8869,7.3277,17.5893,-0.6405,2.4655,-13.3012,-0.2583,0.9816,-3.7699,1559,2019-08-07 16:44:31:514
-4.5097,8.9412,2.656,-0.6405,2.4655,-13.3012,-0.2583,0.9816,-3.7699,1563,2019-08-07 16:44:31:518
-4.5097,8.9412,2.656,-0.6405,2.4655,-13.3012,-0.9326,1.7762,-3.6207,1569,2019-08-07 16:44:31:524
-3.8016,13.4,-0.276,1.6503,-3.3783,3.3456,-0.9326,1.7762,-3.6207,1574,2019-08-07 16:44:31:529
-3.8016,13.4,-0.276,1.6503,-3.3783,3.3456,-1.9244,2.572,-4.016,1579,2019-08-07 16:44:31:534
-3.8016,13.4,-0.276,2.4201,-5.7317,1.4781,-1.9244,2.572,-4.016,1584,2019-08-07 16:44:31:539
-6.9114,15.0422,1.6708,2.4201,-5.7317,1.4781,-2.8053,2.85,-4.9395,1588,2019-08-07 16:44:31:543
-6.9114,15.0422,1.6708,2.4201,-5.7317,1.4781,-2.8053,2.85,-4.9395,1594,2019-08-07 16:44:31:549
-11.4229,13.863,4.8667,2.4201,-5.7317,1.4781,-3.1249,2.8447,-5.3316,1598,2019-08-07 16:44:31:553
-11.4229,13.863,4.8667,8.122,-4.878,-2.6789,-3.1249,2.8447,-5.3316,1604,2019-08-07 16:44:31:559
-11.4229,13.863,4.8667,8.122,-4.878,-2.6789,-3.1249,2.8447,-5.3316,1609,2019-08-07 16:44:31:564
-11.6191,12.3879,6.4035,8.122,-4.878,-2.6789,-3.1643,2.6487,-5.4722,1614,2019-08-07 16:44:31:569
-11.6191,12.3879,6.4035,8.122,-4.878,-2.6789,-3.1643,2.6487,-5.4722,1619,2019-08-07 16:44:31:574
-10.5378,11.7291,6.6533,5.7145,-3.701,-3.8266,-2.9502,2.4857,-5.8152,1624,2019-08-07 16:44:31:579
-10.5378,11.7291,6.6533,5.7145,-3.701,-3.8266,-2.9502,2.4857,-5.8152,1629,2019-08-07 16:44:31:584
-10.5378,11.7291,6.6533,5.9078,-4.1004,-2.3515,-2.9002,2.2737,-6.0165,1634,2019-08-07 16:44:31:589
-11.7099,11.414,4.6405,5.9078,-4.1004,-2.3515,-2.9002,2.2737,-6.0165,1639,2019-08-07 16:44:31:594
-11.7099,11.414,4.6405,5.9078,-4.1004,-2.3515,-2.9002,2.2737,-6.0165,1643,2019-08-07 16:44:31:598
-11.7434,10.5166,3.4196,5.9078,-4.1004,-2.3515,-3.1579,1.919,-6.0197,1649,2019-08-07 16:44:31:604
-11.7434,10.5166,3.4196,5.1266,-3.482,-0.1965,-3.1579,1.919,-6.0197,1654,2019-08-07 16:44:31:609
-11.7434,10.5166,3.4196,5.1266,-3.482,-0.1965,-3.8525,1.1637,-6.0101,1659,2019-08-07 16:44:31:614
-10.3369,9.0844,3.9146,5.1266,-3.482,-0.1965,-3.8525,1.1637,-6.0101,1664,2019-08-07 16:44:31:619
-10.3369,9.0844,3.9146,5.1266,-3.482,-0.1965,-4.1614,0.7461,-6.0293,1669,2019-08-07 16:44:31:624
-8.5045,7.4709,4.3718,1.7157,-2.259,-0.4259,-4.1614,0.7461,-6.0293,1674,2019-08-07 16:44:31:629
-8.5045,7.4709,4.3718,1.7157,-2.259,-0.4259,-4.1646,0.7355,-6.0613,1679,2019-08-07 16:44:31:634
-8.5045,7.4709,4.3718,1.7157,-2.259,-0.4259,-4.1646,0.7355,-6.0613,1684,2019-08-07 16:44:31:639
-6.7152,5.6998,4.1644,1.7157,-2.259,-0.4259,-3.893,1.0039,-6.1071,1689,2019-08-07 16:44:31:644
-6.7152,5.6998,4.1644,-1.6107,-0.7331,0.7046,-3.893,1.0039,-6.1071,1694,2019-08-07 16:44:31:649
-6.7152,5.6998,4.1644,-1.6107,-0.7331,0.7046,-3.6874,1.2436,-6.171,1698,2019-08-07 16:44:31:653
-5.9688,4.3297,1.7132,-1.6107,-0.7331,0.7046,-3.6874,1.2436,-6.171,1704,2019-08-07 16:44:31:659
-5.9688,4.3297,1.7132,-1.6107,-0.7331,0.7046,-3.6639,1.528,-6.2147,1709,2019-08-07 16:44:31:664
-5.5765,3.4847,1.2418,-2.8372,-0.4748,2.8061,-3.6639,1.528,-6.2147,1713,2019-08-07 16:44:31:668
-5.5765,3.4847,1.2418,-2.8372,-0.4748,2.8061,-3.6554,1.7176,-6.2658,1719,2019-08-07 16:44:31:674
-5.5765,3.4847,1.2418,-2.8372,-0.4748,2.8061,-3.6554,1.7176,-6.2658,1723,2019-08-07 16:44:31:678
-5.5335,2.4679,2.4203,-2.8372,-0.4748,2.8061,-3.5031,1.9701,-6.3446,1729,2019-08-07 16:44:31:684
-5.5335,2.4679,2.4203,-3.2694,-0.5125,0.8978,-3.5031,1.9701,-6.3446,1734,2019-08-07 16:44:31:689
-5.5335,2.4679,2.4203,-3.2694,-0.5125,0.8978,-3.1654,2.1107,-6.4096,1739,2019-08-07 16:44:31:694
-5.7583,1.8043,3.1556,-3.2694,-0.5125,0.8978,-3.1654,2.1107,-6.4096,1744,2019-08-07 16:44:31:699
-5.7583,1.8043,3.1556,-3.2694,-0.5125,0.8978,-2.8543,2.0521,-6.4277,1750,2019-08-07 16:44:31:705
-6.1171,1.2172,2.0762,-3.015,-0.9781,1.4991,-2.8543,2.0521,-6.4277,1754,2019-08-07 16:44:31:709
-6.1171,1.2172,2.0762,-3.015,-0.9781,1.4991,-2.8543,2.0521,-6.4277,1759,2019-08-07 16:44:31:714
-6.1171,1.2172,2.0762,-3.015,-0.9781,1.4991,-2.6626,1.936,-6.4139,1764,2019-08-07 16:44:31:719
-6.1793,0.8544,2.1375,-3.015,-0.9781,1.4991,-2.6626,1.936,-6.4139,1769,2019-08-07 16:44:31:724
-6.1793,0.8544,2.1375,-2.8934,-1.8338,0.8144,-2.3824,1.5131,-6.3563,1774,2019-08-07 16:44:31:729
-6.2989,0.6204,2.5476,-2.8934,-1.8338,0.8144,-2.3824,1.5131,-6.3563,1779,2019-08-07 16:44:31:734
-6.2989,0.6204,2.5476,-2.8934,-1.8338,0.8144,-2.1151,1.233,-6.2274,1784,2019-08-07 16:44:31:739
-6.2989,0.6204,2.5476,-2.8934,-1.8338,0.8144,-2.1151,1.233,-6.2274,1789,2019-08-07 16:44:31:744
-5.3804,0.291,2.3402,-2.8934,-1.8338,0.8144,-2.1151,1.233,-6.2274,1794,2019-08-07 16:44:31:749
-5.3804,0.291,2.3402,-3.9039,-2.5651,0.7521,-1.8818,0.9336,-6.0282,1799,2019-08-07 16:44:31:754
-5.3804,0.291,2.3402,-3.9039,-2.5651,0.7521,-1.8818,0.9336,-6.0282,1804,2019-08-07 16:44:31:759
-4.1317,-0.3105,1.4775,-3.9039,-2.5651,0.7521,-1.6783,0.7227,-5.7587,1809,2019-08-07 16:44:31:764
-4.1317,-0.3105,1.4775,-3.9039,-2.5651,0.7521,-1.6783,0.7227,-5.7587,1814,2019-08-07 16:44:31:769
-3.3853,-1.0886,0.8365,-5.3383,-2.5729,1.7863,-1.5036,0.7088,-5.5702,1819,2019-08-07 16:44:31:774
-3.3853,-1.0886,0.8365,-5.3383,-2.5729,1.7863,-1.5036,0.7088,-5.5702,1823,2019-08-07 16:44:31:778
-3.8207,-1.5421,0.8035,-5.3383,-2.5729,1.7863,-1.3758,0.711,-5.421,1829,2019-08-07 16:44:31:784
-3.8207,-1.5421,0.8035,-5.3383,-2.5729,1.7863,-1.3758,0.711,-5.421,1834,2019-08-07 16:44:31:789
-3.8207,-1.5421,0.8035,-4.345,-2.7591,1.491,-1.1915,0.7387,-5.0173,1839,2019-08-07 16:44:31:794
-3.8207,-1.5421,0.8035,-4.345,-2.7591,1.491,-1.1915,0.7387,-5.0173,1843,2019-08-07 16:44:31:798
-4.0695,-1.8954,1.5388,-4.345,-2.7591,1.491,-1.0945,0.6748,-4.719,1849,2019-08-07 16:44:31:804
-4.0695,-1.8954,1.5388,-4.1535,-3.0622,0.6648,-1.0945,0.6748,-4.719,1855,2019-08-07 16:44:31:810
-4.0695,-1.8954,1.5388,-4.1535,-3.0622,0.6648,-1.0945,0.6748,-4.719,1859,2019-08-07 16:44:31:814
-3.6197,-2.5637,1.0769,-4.1535,-3.0622,0.6648,-1.0221,0.6226,-4.4335,1863,2019-08-07 16:44:31:818
-3.6197,-2.5637,1.0769,-4.1535,-3.0622,0.6648,-1.0221,0.6226,-4.4335,1869,2019-08-07 16:44:31:824
-3.6197,-2.5637,1.0769,-4.1535,-3.0622,0.6648,-0.9678,0.6183,-4.1203,1874,2019-08-07 16:44:31:829
-3.8589,-2.9122,1.4021,-3.5526,-3.201,0.5812,-0.9678,0.6183,-4.1203,1879,2019-08-07 16:44:31:834
-3.8589,-2.9122,1.4021,-3.5526,-3.201,0.5812,-0.9166,0.5597,-3.8146,1884,2019-08-07 16:44:31:839
-3.8589,-2.9122,1.4021,-3.5526,-3.201,0.5812,-0.9166,0.5597,-3.8146,1889,2019-08-07 16:44:31:844
-4.1221,-3.2464,1.8876,-3.5526,-3.201,0.5812,-0.9166,0.5597,-3.8146,1894,2019-08-07 16:44:31:849
-4.1221,-3.2464,1.8876,-2.7311,-3.3591,-0.3464,-0.8644,0.3467,-3.4695,1898,2019-08-07 16:44:31:853
-4.2034,-3.2464,2.3496,-2.7311,-3.3591,-0.3464,-0.8644,0.3467,-3.4695,1904,2019-08-07 16:44:31:859
-4.2034,-3.2464,2.3496,-2.7311,-3.3591,-0.3464,-0.7931,-0.0933,-2.9741,1908,2019-08-07 16:44:31:863
-4.2034,-3.2464,2.3496,-2.7311,-3.3591,-0.3464,-0.7931,-0.0933,-2.9741,1914,2019-08-07 16:44:31:869
-3.8254,-3.3084,2.0149,-2.6973,-3.8164,-0.3041,-0.7398,-0.4161,-2.5715,1919,2019-08-07 16:44:31:874
-3.8254,-3.3084,2.0149,-2.6973,-3.8164,-0.3041,-0.7398,-0.4161,-2.5715,1923,2019-08-07 16:44:31:878
-3.3183,-3.4373,1.6849,-2.6973,-3.8164,-0.3041,-0.71,-0.6803,-2.1123,1929,2019-08-07 16:44:31:884
-3.3183,-3.4373,1.6849,-2.6973,-3.8164,-0.3041,-0.71,-0.6803,-2.1123,1934,2019-08-07 16:44:31:889
-3.3183,-3.4373,1.6849,-3.1215,-3.7872,0.2545,-0.71,-0.6803,-2.1123,1939,2019-08-07 16:44:31:894
-2.8207,-3.7667,1.1429,-3.1215,-3.7872,0.2545,-0.7132,-0.7452,-1.683,1944,2019-08-07 16:44:31:899
-2.8207,-3.7667,1.1429,-3.1215,-3.7872,0.2545,-0.7132,-0.7452,-1.683,1949,2019-08-07 16:44:31:904
-2.0792,-4.4064,0.7705,-3.1215,-3.7872,0.2545,-0.7174,-0.5588,-1.373,1955,2019-08-07 16:44:31:910
-2.0792,-4.4064,0.7705,-4.0368,-3.0838,0.9685,-0.7174,-0.5588,-1.373,1959,2019-08-07 16:44:31:914
-2.0792,-4.4064,0.7705,-4.0368,-3.0838,0.9685,-0.6599,-0.1956,-1.1088,1964,2019-08-07 16:44:31:919
-1.5481,-5.2323,0.3557,-4.0368,-3.0838,0.9685,-0.6599,-0.1956,-1.1088,1969,2019-08-07 16:44:31:924
-1.5481,-5.2323,0.3557,-4.0368,-3.0838,0.9685,-0.5459,0.4926,-0.8266,1974,2019-08-07 16:44:31:929
-1.5481,-5.2323,0.3557,-3.8941,-1.8719,1.3759,-0.5459,0.4926,-0.8266,1978,2019-08-07 16:44:31:933
-2.2131,-6.2109,0.2378,-3.8941,-1.8719,1.3759,-0.4745,0.908,-0.6774,1984,2019-08-07 16:44:31:939
-2.2131,-6.2109,0.2378,-3.8941,-1.8719,1.3759,-0.4745,0.908,-0.6774,1989,2019-08-07 16:44:31:944
-2.2131,-6.2109,0.2378,-3.8941,-1.8719,1.3759,-0.3488,1.2969,-0.4676,1994,2019-08-07 16:44:31:949
-4.7775,-6.335,1.4304,-0.8681,-1.5699,-0.0609,-0.3488,1.2969,-0.4676,1999,2019-08-07 16:44:31:954
-4.7775,-6.335,1.4304,-0.8681,-1.5699,-0.0609,-0.1624,1.3246,-0.1618,2005,2019-08-07 16:44:31:960
-4.7775,-6.335,1.4304,-0.8681,-1.5699,-0.0609,-0.1624,1.3246,-0.1618,2008,2019-08-07 16:44:31:963
-7.0021,-6.421,2.3637,-0.8681,-1.5699,-0.0609,-0.0783,0.9741,0.0629,2014,2019-08-07 16:44:31:969
-7.0021,-6.421,2.3637,1.695,-1.3667,-1.1924,-0.0783,0.9741,0.0629,2019,2019-08-07 16:44:31:974
-7.0021,-6.421,2.3637,1.695,-1.3667,-1.1924,-0.0783,0.9741,0.0629,2024,2019-08-07 16:44:31:979
-7.4566,-6.8363,2.6041,1.695,-1.3667,-1.1924,-0.0772,0.336,0.2163,2029,2019-08-07 16:44:31:984
-7.4566,-6.8363,2.6041,1.695,-1.3667,-1.1924,-0.0772,0.336,0.2163,2035,2019-08-07 16:44:31:990
-7.4566,-6.8363,2.6041,1.2369,-0.6162,-1.0441,-0.0772,0.336,0.2163,2038,2019-08-07 16:44:31:993
-7.4566,-6.8363,2.6041,1.2369,-0.6162,-1.0441,-0.1092,-0.2787,0.2526,2044,2019-08-07 16:44:31:999
-6.5955,-7.4998,1.8358,0.4474,-0.1517,-0.1932,-0.0974,-0.4864,0.2675,2049,2019-08-07 16:44:32:004
-6.5955,-7.4998,1.8358,0.4474,-0.1517,-0.1932,-0.0974,-0.4864,0.2675,2055,2019-08-07 16:44:32:010
-5.1889,-7.9581,0.8789,0.4474,-0.1517,-0.1932,-0.0974,-0.4864,0.2675,2059,2019-08-07 16:44:32:014
-5.1889,-7.9581,0.8789,0.4474,-0.1517,-0.1932,-0.0176,-0.4448,0.2728,2064,2019-08-07 16:44:32:019
-5.1889,-7.9581,0.8789,-1.2606,0.296,0.7745,-0.0176,-0.4448,0.2728,2069,2019-08-07 16:44:32:024
-4.3804,-8.1729,0.3038,-1.2606,0.296,0.7745,0.0591,-0.1679,0.2781,2074,2019-08-07 16:44:32:029
-4.3804,-8.1729,0.3038,-1.2606,0.296,0.7745,0.0591,-0.1679,0.2781,2079,2019-08-07 16:44:32:034
-4.1938,-8.2637,0.2567,-1.2606,0.296,0.7745,0.1028,0.2455,0.2685,2084,2019-08-07 16:44:32:039
-4.1938,-8.2637,0.2567,-1.3729,0.4269,0.7517,0.1028,0.2455,0.2685,2089,2019-08-07 16:44:32:044
-4.7487,-8.1729,0.6903,-1.3729,0.4269,0.7517,0.1263,0.613,0.2611,2094,2019-08-07 16:44:32:049
-4.7487,-8.1729,0.6903,-1.3729,0.4269,0.7517,0.1263,0.613,0.2611,2099,2019-08-07 16:44:32:054
-4.7487,-8.1729,0.6903,-1.3729,0.4269,0.7517,0.1454,0.8068,0.2696,2103,2019-08-07 16:44:32:058
-5.897,-8.0202,1.6331,0.3418,0.2247,-0.6414,0.1454,0.8068,0.2696,2109,2019-08-07 16:44:32:064
-5.897,-8.0202,1.6331,0.3418,0.2247,-0.6414,0.1529,0.7589,0.2856,2114,2019-08-07 16:44:32:069
-7.0835,-7.8388,2.1893,0.3418,0.2247,-0.6414,0.1529,0.7589,0.2856,2118,2019-08-07 16:44:32:073
-7.0835,-7.8388,2.1893,0.3418,0.2247,-0.6414,0.1103,0.5022,0.3133,2124,2019-08-07 16:44:32:079
-7.0835,-7.8388,2.1893,1.5107,0.1344,-1.2743,0.1103,0.5022,0.3133,2128,2019-08-07 16:44:32:083
-7.3849,-7.8722,2.2695,1.5107,0.1344,-1.2743,0.0293,0.1198,0.308,2134,2019-08-07 16:44:32:089
-7.3849,-7.8722,2.2695,1.5107,0.1344,-1.2743,0.0293,0.1198,0.308,2139,2019-08-07 16:44:32:094
-7.3849,-7.8722,2.2695,1.5107,0.1344,-1.2743,-0.0548,-0.236,0.2483,2144,2019-08-07 16:44:32:099
-7.0021,-8.192,1.7132,0.6061,0.6662,-0.4267,-0.0548,-0.236,0.2483,2149,2019-08-07 16:44:32:104
-7.0021,-8.192,1.7132,0.6061,0.6662,-0.4267,-0.1156,-0.4502,0.1492,2154,2019-08-07 16:44:32:109
-6.0835,-8.5167,1.2371,0.6061,0.6662,-0.4267,-0.1156,-0.4502,0.1492,2159,2019-08-07 16:44:32:114
-6.0835,-8.5167,1.2371,0.6061,0.6662,-0.4267,-0.1337,-0.5141,0.0597,2164,2019-08-07 16:44:32:119
-5.452,-8.531,0.7092,-0.5112,0.8274,0.4442,-0.1337,-0.5141,0.0597,2169,2019-08-07 16:44:32:124
-5.452,-8.531,0.7092,-0.5112,0.8274,0.4442,-0.1315,-0.3713,-0.0617,2174,2019-08-07 16:44:32:129
-5.452,-8.531,0.7092,-0.5112,0.8274,0.4442,-0.1315,-0.3713,-0.0617,2179,2019-08-07 16:44:32:134
-5.1697,-8.2255,0.6149,-0.5112,0.8274,0.4442,-0.1209,-0.187,-0.1224,2184,2019-08-07 16:44:32:139
-5.1697,-8.2255,0.6149,-0.7856,0.2826,0.5228,-0.1209,-0.187,-0.1224,2189,2019-08-07 16:44:32:144
-5.141,-7.9295,0.6621,-0.7856,0.2826,0.5228,-0.1145,-0.0315,-0.1554,2194,2019-08-07 16:44:32:149
-5.141,-7.9295,0.6621,-0.7856,0.2826,0.5228,-0.1145,-0.0315,-0.1554,2199,2019-08-07 16:44:32:154
-5.141,-7.9295,0.6621,-0.6706,0.017,0.3533,-0.1145,-0.0315,-0.1554,2204,2019-08-07 16:44:32:159
-5.3755,-7.6192,0.8318,-0.6706,0.017,0.3533,-0.0964,0.0718,-0.1554,2208,2019-08-07 16:44:32:163
-5.3755,-7.6192,0.8318,-0.6706,0.017,0.3533,-0.0964,0.0718,-0.1554,2214,2019-08-07 16:44:32:169
-5.4472,-7.3948,1.0062,-0.4507,-0.3626,0.1221,-0.074,0.0569,-0.1245,2219,2019-08-07 16:44:32:174
-5.4472,-7.3948,1.0062,-0.4507,-0.3626,0.1221,-0.074,0.0569,-0.1245,2224,2019-08-07 16:44:32:179
-5.4472,-7.3948,1.0062,-0.4507,-0.3626,0.1221,-0.0442,0.0036,-0.0777,2229,2019-08-07 16:44:32:184
-5.385,-7.3041,0.8223,-0.4507,-0.3626,0.1221,-0.0442,0.0036,-0.0777,2233,2019-08-07 16:44:32:188
-5.385,-7.3041,0.8223,-0.4507,-0.3626,0.1221,-0.0154,-0.0273,-0.0265,2239,2019-08-07 16:44:32:194
-5.3994,-7.1895,0.7516,-0.5015,-0.5492,0.3396,-0.0154,-0.0273,-0.0265,2244,2019-08-07 16:44:32:199
-5.3994,-7.1895,0.7516,-0.5015,-0.5492,0.3396,0.0197,-0.0294,0.0161,2249,2019-08-07 16:44:32:204
-5.3994,-7.1895,0.7516,-0.5015,-0.5492,0.3396,0.0197,-0.0294,0.0161,2254,2019-08-07 16:44:32:209
-5.3132,-7.223,0.5631,-0.5015,-0.5492,0.3396,0.0197,-0.0294,0.0161,2259,2019-08-07 16:44:32:214
-5.3132,-7.223,0.5631,-0.5274,-0.5282,0.5689,0.0474,-0.0209,0.047,2264,2019-08-07 16:44:32:219
-5.3132,-7.223,0.5631,-0.5274,-0.5282,0.5689,0.0474,-0.0209,0.047,2269,2019-08-07 16:44:32:224
-5.2845,-7.4426,0.4311,-0.5274,-0.5282,0.5689,0.0709,0.0164,0.0555,2274,2019-08-07 16:44:32:229
-5.2845,-7.4426,0.4311,-0.5274,-0.5282,0.5689,0.0709,0.0164,0.0555,2279,2019-08-07 16:44:32:234
-5.2845,-7.4426,0.4311,-0.4726,-0.3167,0.7801,0.1082,0.0899,0.0406,2283,2019-08-07 16:44:32:238
-5.5812,-7.4282,0.45,-0.4726,-0.3167,0.7801,0.1082,0.0899,0.0406,2289,2019-08-07 16:44:32:244
-5.5812,-7.4282,0.45,-0.4726,-0.3167,0.7801,0.1263,0.1091,0.0523,2293,2019-08-07 16:44:32:248
-5.7773,-7.3853,0.6196,-0.4726,-0.3167,0.7801,0.1263,0.1091,0.0523,2299,2019-08-07 16:44:32:254
-5.7773,-7.3853,0.6196,-0.1051,-0.3037,0.4474,0.1231,0.0633,0.0651,2305,2019-08-07 16:44:32:260
-5.7773,-7.3853,0.6196,-0.1051,-0.3037,0.4474,0.1231,0.0633,0.0651,2309,2019-08-07 16:44:32:264
-5.8778,-7.4282,0.7563,-0.1051,-0.3037,0.4474,0.1007,-0.0198,0.0736,2313,2019-08-07 16:44:32:268
-5.8778,-7.4282,0.7563,-0.1051,-0.3037,0.4474,0.1007,-0.0198,0.0736,2319,2019-08-07 16:44:32:274
-5.8778,-7.4282,0.7563,-0.1032,-0.3161,0.3237,0.0741,-0.1008,0.0832,2324,2019-08-07 16:44:32:279
-5.7629,-7.4951,0.7658,-0.1032,-0.3161,0.3237,0.0741,-0.1008,0.0832,2329,2019-08-07 16:44:32:284
-5.7629,-7.4951,0.7658,-0.1032,-0.3161,0.3237,0.0442,-0.153,0.0917,2334,2019-08-07 16:44:32:289
-5.4424,-7.6335,0.6856,-0.1032,-0.3161,0.3237,0.0442,-0.153,0.0917,2339,2019-08-07 16:44:32:294
-5.4424,-7.6335,0.6856,-0.5531,-0.0573,0.5663,0.0208,-0.1551,0.0821,2344,2019-08-07 16:44:32:299
-5.4424,-7.6335,0.6856,-0.5531,-0.0573,0.5663,0.0208,-0.1551,0.0821,2349,2019-08-07 16:44:32:304
-5.2558,-7.7863,0.4971,-0.5531,-0.0573,0.5663,0.0208,-0.1551,0.0821,2354,2019-08-07 16:44:32:309
-5.2558,-7.7863,0.4971,-0.5531,-0.0573,0.5663,0.0016,-0.088,0.0576,2359,2019-08-07 16:44:32:314
-5.2558,-7.7863,0.4971,-0.6867,0.1289,0.6699,0.0016,-0.088,0.0576,2364,2019-08-07 16:44:32:319
-5.2032,-7.8436,0.4924,-0.6867,0.1289,0.6699,-0.0037,0.0132,0.0246,2368,2019-08-07 16:44:32:323
-5.2032,-7.8436,0.4924,-0.6867,0.1289,0.6699,-0.0037,0.0132,0.0246,2374,2019-08-07 16:44:32:329
-5.4064,-7.7765,0.5296,-0.6867,0.1289,0.6699,-0.0101,0.14,-0.0212,2379,2019-08-07 16:44:32:334
-5.4064,-7.7765,0.5296,-0.4731,0.0207,0.5747,-0.0101,0.14,-0.0212,2384,2019-08-07 16:44:32:339
-5.4064,-7.7765,0.5296,-0.4731,0.0207,0.5747,-0.0186,0.2369,-0.0681,2388,2019-08-07 16:44:32:343
-5.6265,-7.7574,0.6145,-0.4731,0.0207,0.5747,-0.0186,0.2369,-0.0681,2394,2019-08-07 16:44:32:349
-5.6265,-7.7574,0.6145,-0.4731,0.0207,0.5747,-0.0218,0.2668,-0.099,2399,2019-08-07 16:44:32:354
-5.7461,-7.6667,0.7182,-0.1932,-0.0138,0.3937,-0.0218,0.2668,-0.099,2404,2019-08-07 16:44:32:359
-5.7461,-7.6667,0.7182,-0.1932,-0.0138,0.3937,-0.0218,0.2668,-0.099,2409,2019-08-07 16:44:32:364
-5.7461,-7.6667,0.7182,-0.1932,-0.0138,0.3937,-0.0229,0.2732,-0.1128,2414,2019-08-07 16:44:32:369
-5.7461,-7.6667,0.7182,-0.1932,-0.0138,0.3937,-0.0229,0.2732,-0.1128,2419,2019-08-07 16:44:32:374
-5.8275,-7.6476,0.8737,-0.0919,-0.0972,0.2282,-0.0175,0.2657,-0.1171,2424,2019-08-07 16:44:32:379
-5.8275,-7.6476,0.8737,-0.0919,-0.0972,0.2282,-0.0175,0.2657,-0.1171,2429,2019-08-07 16:44:32:384
-6.0954,-7.5665,1.232,0.1887,-0.1917,-0.1558,-0.0058,0.1304,-0.1064,2434,2019-08-07 16:44:32:389
-6.0954,-7.5665,1.232,0.1887,-0.1917,-0.1558,-0.0058,0.1304,-0.1064,2439,2019-08-07 16:44:32:394
-6.0954,-7.5665,1.232,0.1887,-0.1917,-0.1558,-0.0165,0.0015,-0.0862,2444,2019-08-07 16:44:32:399
-6.0141,-7.4805,1.2697,0.1887,-0.1917,-0.1558,-0.0165,0.0015,-0.0862,2448,2019-08-07 16:44:32:403
-6.0141,-7.4805,1.2697,-0.0102,-0.234,-0.1228,-0.0282,-0.1231,-0.0649,2454,2019-08-07 16:44:32:409
-6.0141,-7.4805,1.2697,-0.0102,-0.234,-0.1228,-0.0282,-0.1231,-0.0649,2459,2019-08-07 16:44:32:414
-5.684,-7.5092,1.1235,-0.0102,-0.234,-0.1228,-0.0293,-0.1934,-0.0489,2464,2019-08-07 16:44:32:419
-5.684,-7.5092,1.1235,-0.0102,-0.234,-0.1228,-0.0293,-0.1934,-0.0489,2468,2019-08-07 16:44:32:423
-5.1577,-7.6333,0.7323,-0.7241,-0.141,0.3633,-0.0143,-0.2105,-0.0372,2474,2019-08-07 16:44:32:429
-5.1577,-7.6333,0.7323,-0.7241,-0.141,0.3633,-0.0143,-0.2105,-0.0372,2479,2019-08-07 16:44:32:434
-5.1577,-7.6333,0.7323,-0.7241,-0.141,0.3633,0.0027,-0.1306,-0.0319,2484,2019-08-07 16:44:32:439
-4.9712,-7.619,0.704,-0.7241,-0.141,0.3633,0.0027,-0.1306,-0.0319,2489,2019-08-07 16:44:32:444
-4.9712,-7.619,0.704,-0.7241,-0.141,0.3633,0.0027,-0.1306,-0.0319,2494,2019-08-07 16:44:32:449
-5.1434,-7.5187,0.7606,-0.8611,-0.1958,0.4357,0.0293,0.0399,-0.0297,2499,2019-08-07 16:44:32:454
-5.1434,-7.5187,0.7606,-0.8611,-0.1958,0.4357,0.0421,0.1496,-0.018,2503,2019-08-07 16:44:32:458
-5.1434,-7.5187,0.7606,-0.8611,-0.1958,0.4357,0.0421,0.1496,-0.018,2509,2019-08-07 16:44:32:464
-5.4018,-7.4566,0.77,-0.3806,-0.3516,0.2122,0.0453,0.2039,-0.0031,2514,2019-08-07 16:44:32:469
-5.4018,-7.4566,0.77,-0.3806,-0.3516,0.2122,0.0453,0.2039,-0.0031,2519,2019-08-07 16:44:32:474
-5.7271,-7.3994,1.0009,-0.3806,-0.3516,0.2122,0.0453,0.2039,-0.0031,2524,2019-08-07 16:44:32:479
-5.7271,-7.3994,1.0009,-0.3806,-0.3516,0.2122,0.0453,0.1901,0.0171,2529,2019-08-07 16:44:32:484
-5.7271,-7.3994,1.0009,-0.3806,-0.3516,0.2122,0.0453,0.1901,0.0171,2534,2019-08-07 16:44:32:489
-5.8898,-7.3755,1.1518,1.0E-4,-0.3917,-0.0348,0.0421,0.0985,0.0363,2539,2019-08-07 16:44:32:494
-5.8898,-7.3755,1.1518,1.0E-4,-0.3917,-0.0348,0.0421,0.0985,0.0363,2544,2019-08-07 16:44:32:499
-5.8898,-7.3755,1.1518,1.0E-4,-0.3917,-0.0348,0.0421,0.0985,0.0363,2549,2019-08-07 16:44:32:504
-5.8707,-7.3946,1.1424,-0.0194,-0.3701,0.0297,0.0293,0.0111,0.0533,2554,2019-08-07 16:44:32:509
-5.8707,-7.3946,1.1424,-0.0194,-0.3701,0.0297,0.0293,0.0111,0.0533,2559,2019-08-07 16:44:32:514
-5.799,-7.4041,1.0622,-0.0194,-0.3701,0.0297,0.0102,-0.0709,0.0715,2564,2019-08-07 16:44:32:519
-5.799,-7.4041,1.0622,-0.0194,-0.3701,0.0297,0.0102,-0.0709,0.0715,2569,2019-08-07 16:44:32:524
-5.799,-7.4041,1.0622,-0.0194,-0.3701,0.0297,0.0038,-0.1167,0.0821,2574,2019-08-07 16:44:32:529
-5.5167,-7.4614,0.8265,-0.379,-0.3034,0.2622,0.0038,-0.1167,0.0821,2579,2019-08-07 16:44:32:534
-5.5167,-7.4614,0.8265,-0.379,-0.3034,0.2622,-0.0058,-0.0965,0.0821,2584,2019-08-07 16:44:32:539
-5.2727,-7.5855,0.5767,-0.379,-0.3034,0.2622,-0.0058,-0.0965,0.0821,2589,2019-08-07 16:44:32:544
-5.2727,-7.5855,0.5767,-0.379,-0.3034,0.2622,-0.0048,-0.0187,0.0736,2594,2019-08-07 16:44:32:549
-5.2727,-7.5855,0.5767,-0.5886,-0.1719,0.5362,-0.0048,-0.0187,0.0736,2598,2019-08-07 16:44:32:553
-5.3206,-7.5807,0.5955,-0.5886,-0.1719,0.5362,0.0144,0.0867,0.0661,2604,2019-08-07 16:44:32:559
-5.3206,-7.5807,0.5955,-0.5886,-0.1719,0.5362,0.0144,0.0867,0.0661,2609,2019-08-07 16:44:32:564
-5.3206,-7.5807,0.5955,-0.5886,-0.1719,0.5362,0.0144,0.0867,0.0661,2613,2019-08-07 16:44:32:568
-5.4928,-7.6237,0.5295,-0.4217,-0.1276,0.5532,0.0272,0.1677,0.0587,2619,2019-08-07 16:44:32:574
-5.4928,-7.6237,0.5295,-0.4217,-0.1276,0.5532,0.0272,0.1677,0.0587,2624,2019-08-07 16:44:32:579
-5.7416,-7.5139,0.7134,-0.4217,-0.1276,0.5532,0.0315,0.2082,0.0448,2629,2019-08-07 16:44:32:584
-5.7416,-7.5139,0.7134,-0.4217,-0.1276,0.5532,0.0315,0.2082,0.0448,2634,2019-08-07 16:44:32:589
-5.7416,-7.5139,0.7134,-0.0651,-0.2648,0.2581,0.0357,0.206,0.0469,2638,2019-08-07 16:44:32:593
-5.9235,-7.4948,0.8312,-0.0651,-0.2648,0.2581,0.0357,0.206,0.0469,2644,2019-08-07 16:44:32:599
-5.9235,-7.4948,0.8312,-0.0651,-0.2648,0.2581,0.0389,0.1677,0.0363,2649,2019-08-07 16:44:32:604
-5.9235,-7.4948,0.8312,-0.0651,-0.2648,0.2581,0.0389,0.1677,0.0363,2654,2019-08-07 16:44:32:609
-6.0383,-7.4996,1.1518,0.101,-0.2395,-0.1072,0.0389,0.1677,0.0363,2658,2019-08-07 16:44:32:613
-6.0383,-7.4996,1.1518,0.101,-0.2395,-0.1072,0.0378,0.1006,0.0278,2664,2019-08-07 16:44:32:619
-6.024,-7.5139,1.0716,0.101,-0.2395,-0.1072,0.0378,0.1006,0.0278,2669,2019-08-07 16:44:32:624
-6.024,-7.5139,1.0716,0.101,-0.2395,-0.1072,0.0219,0.0079,0.032,2674,2019-08-07 16:44:32:629
-6.024,-7.5139,1.0716,-0.107,-0.2295,0.113,0.0219,0.0079,0.032,2679,2019-08-07 16:44:32:634
-5.7991,-7.576,0.9255,-0.107,-0.2295,0.113,0.0102,-0.0464,0.0331,2684,2019-08-07 16:44:32:639
-5.7991,-7.576,0.9255,-0.107,-0.2295,0.113,0.0102,-0.0464,0.0331,2689,2019-08-07 16:44:32:644
-5.6317,-7.6046,0.8878,-0.107,-0.2295,0.113,0.0102,-0.0464,0.0331,2694,2019-08-07 16:44:32:649
-5.6317,-7.6046,0.8878,-0.2921,-0.1449,0.2426,0.0102,-0.0688,0.0278,2699,2019-08-07 16:44:32:654
-5.6317,-7.6046,0.8878,-0.2921,-0.1449,0.2426,0.0102,-0.0688,0.0278,2704,2019-08-07 16:44:32:659
-5.5647,-7.6332,0.7888,-0.2921,-0.1449,0.2426,0.0176,-0.0358,0.0214,2709,2019-08-07 16:44:32:664
-5.5647,-7.6332,0.7888,-0.2921,-0.1449,0.2426,0.0176,-0.0358,0.0214,2713,2019-08-07 16:44:32:668
-5.5312,-7.5855,0.7605,-0.4175,-0.1433,0.2952,0.0261,0.0068,0.0129,2720,2019-08-07 16:44:32:675
-5.5312,-7.5855,0.7605,-0.4175,-0.1433,0.2952,0.0261,0.0068,0.0129,2723,2019-08-07 16:44:32:678
-5.5312,-7.5855,0.7605,-0.4175,-0.1433,0.2952,0.0283,0.0388,0.0097,2729,2019-08-07 16:44:32:684
-5.5935,-7.4614,0.8642,-0.4175,-0.1433,0.2952,0.0283,0.0388,0.0097,2734,2019-08-07 16:44:32:689
-5.5935,-7.4614,0.8642,-0.2949,-0.2805,0.1476,0.0261,0.0558,0.015,2738,2019-08-07 16:44:32:693
-5.5935,-7.4614,0.8642,-0.2949,-0.2805,0.1476,0.0261,0.0558,0.015,2744,2019-08-07 16:44:32:699
-5.7179,-7.4184,0.9255,-0.2109,-0.3316,0.0941,0.0187,0.0388,0.0256,2749,2019-08-07 16:44:32:704
-5.7179,-7.4184,0.9255,-0.2109,-0.3316,0.0941,0.0187,0.0388,0.0256,2754,2019-08-07 16:44:32:709
-5.7705,-7.3516,0.9537,-0.2109,-0.3316,0.0941,0.0187,0.0388,0.0256,2759,2019-08-07 16:44:32:714
-5.7705,-7.3516,0.9537,-0.2109,-0.3316,0.0941,0.0155,0.0026,0.0395,2764,2019-08-07 16:44:32:719
-5.7705,-7.3516,0.9537,-0.1693,-0.3553,0.0522,0.0155,0.0026,0.0395,2768,2019-08-07 16:44:32:723
-5.7562,-7.3945,1.0339,-0.1693,-0.3553,0.0522,0.007,-0.0443,0.0544,2774,2019-08-07 16:44:32:729
-5.7562,-7.3945,1.0339,-0.1693,-0.3553,0.0522,0.007,-0.0443,0.0544,2779,2019-08-07 16:44:32:734
-5.6844,-7.4566,1.015,-0.1693,-0.3553,0.0522,-0.0016,-0.072,0.0565,2784,2019-08-07 16:44:32:739
-5.6844,-7.4566,1.015,-0.3867,-0.2297,0.1155,-0.0016,-0.072,0.0565,2788,2019-08-07 16:44:32:743
-5.6222,-7.5234,0.8783,-0.3867,-0.2297,0.1155,-0.0122,-0.0709,0.0587,2794,2019-08-07 16:44:32:749
-5.6222,-7.5234,0.8783,-0.3867,-0.2297,0.1155,-0.0122,-0.0709,0.0587,2799,2019-08-07 16:44:32:754
-5.6222,-7.5234,0.8783,-0.4188,-0.222,0.1889,-0.0122,-0.0709,0.0587,2804,2019-08-07 16:44:32:759
-5.5409,-7.5807,0.817,-0.4188,-0.222,0.1889,-0.0197,-0.0507,0.0619,2808,2019-08-07 16:44:32:763
-5.5409,-7.5807,0.817,-0.4188,-0.222,0.1889,-0.0197,-0.0507,0.0619,2814,2019-08-07 16:44:32:769
-5.5409,-7.5807,0.817,-0.4308,-0.1256,0.2693,-0.0207,-0.0134,0.0619,2819,2019-08-07 16:44:32:774
-5.5505,-7.6141,0.817,-0.4308,-0.1256,0.2693,-0.0207,-0.0134,0.0619,2824,2019-08-07 16:44:32:779
-5.5505,-7.6141,0.817,-0.4308,-0.1256,0.2693,-0.0165,0.0154,0.0587,2829,2019-08-07 16:44:32:784
-5.6127,-7.6237,0.8029,-0.4308,-0.1256,0.2693,-0.0165,0.0154,0.0587,2833,2019-08-07 16:44:32:788
-5.6127,-7.6237,0.8029,-0.3239,-0.0822,0.3423,-0.0143,0.0526,0.0555,2839,2019-08-07 16:44:32:794
-5.6127,-7.6237,0.8029,-0.3239,-0.0822,0.3423,-0.0143,0.0526,0.0555,2844,2019-08-07 16:44:32:799
-5.7324,-7.6046,0.8029,-0.3239,-0.0822,0.3423,-0.0143,0.0718,0.048,2849,2019-08-07 16:44:32:804
-5.7324,-7.6046,0.8029,-0.3239,-0.0822,0.3423,-0.0143,0.0718,0.048,2854,2019-08-07 16:44:32:809
-5.7324,-7.6046,0.8029,-0.3239,-0.0822,0.3423,-0.0143,0.0718,0.048,2859,2019-08-07 16:44:32:814
-5.8376,-7.5855,0.8264,-0.155,-0.111,0.2172,6.0E-4,0.0654,0.0406,2864,2019-08-07 16:44:32:819
-5.8376,-7.5855,0.8264,-0.155,-0.111,0.2172,0.0038,0.0473,0.0342,2868,2019-08-07 16:44:32:823
-5.9477,-7.6141,0.7416,-0.155,-0.111,0.2172,0.0038,0.0473,0.0342,2874,2019-08-07 16:44:32:829
-5.9477,-7.6141,0.7416,0.0154,-0.1115,0.2476,0.0038,0.0473,0.0342,2878,2019-08-07 16:44:32:833
-5.9955,-7.5712,0.7934,0.0154,-0.1115,0.2476,0.0091,0.01,0.0235,2884,2019-08-07 16:44:32:839
-5.9955,-7.5712,0.7934,0.0154,-0.1115,0.2476,0.0091,0.01,0.0235,2889,2019-08-07 16:44:32:844
-5.9955,-7.5712,0.7934,0.0154,-0.1115,0.2476,0.0187,-0.0347,0.0161,2894,2019-08-07 16:44:32:849
-5.8377,-7.6523,0.7699,0.0154,-0.0137,0.2739,0.0187,-0.0347,0.0161,2899,2019-08-07 16:44:32:854
-5.8377,-7.6523,0.7699,-0.1594,-0.0137,0.2739,0.0187,-0.0347,0.0161,2904,2019-08-07 16:44:32:859
-5.8377,-7.6523,0.7699,-0.1594,-0.0137,0.2739,0.0187,-0.0528,-0.0031,2909,2019-08-07 16:44:32:864
-5.7372,-7.6666,0.718,-0.1594,-0.0137,0.2739,0.0187,-0.0528,-0.0031,2913,2019-08-07 16:44:32:868
-5.7372,-7.6666,0.718,-0.3478,-0.0532,0.3847,0.0251,-0.0517,-0.0106,2919,2019-08-07 16:44:32:874
-5.7372,-7.6666,0.718,-0.3478,-0.0532,0.3847,0.0251,-0.0517,-0.0106,2924,2019-08-07 16:44:32:879
-5.5698,-7.5903,0.7086,-0.3478,-0.0532,0.3847,0.0347,-0.0422,-0.0127,2929,2019-08-07 16:44:32:884
-5.5698,-7.5903,0.7086,-0.3478,-0.0532,0.3847,0.0347,-0.0422,-0.0127,2934,2019-08-07 16:44:32:889
-5.5698,-7.5903,0.7086,-0.3478,-0.0532,0.3847,0.0453,-0.0198,-0.0116,2938,2019-08-07 16:44:32:893
-5.4741,-7.5712,0.619,-0.5205,-0.1224,0.4349,0.0453,-0.0198,-0.0116,2944,2019-08-07 16:44:32:899
-5.4741,-7.5712,0.619,-0.5205,-0.1224,0.4349,0.0421,0.0164,-0.0063,2949,2019-08-07 16:44:32:904
-5.4933,-7.4805,0.7321,-0.5205,-0.1224,0.4349,0.0421,0.0164,-0.0063,2953,2019-08-07 16:44:32:908
-5.4933,-7.4805,0.7321,-0.5205,-0.1224,0.4349,0.0421,0.0164,-0.0063,2960,2019-08-07 16:44:32:915
-5.4933,-7.4805,0.7321,-0.4802,-0.2191,0.3095,0.0432,0.0399,0.0022,2964,2019-08-07 16:44:32:919
-5.5316,-7.49,0.7934,-0.4802,-0.2191,0.3095,0.0432,0.0399,0.0022,2969,2019-08-07 16:44:32:924
-5.5316,-7.49,0.7934,-0.4802,-0.2191,0.3095,0.0528,0.0399,0.0129,2974,2019-08-07 16:44:32:929
-5.6225,-7.4995,0.7416,-0.4802,-0.2191,0.3095,0.0528,0.0399,0.0129,2978,2019-08-07 16:44:32:933
-5.6225,-7.4995,0.7416,-0.3097,-0.2654,0.301,0.0474,0.0388,0.0193,2984,2019-08-07 16:44:32:939
-5.6225,-7.4995,0.7416,-0.3097,-0.2654,0.301,0.0474,0.0388,0.0193,2988,2019-08-07 16:44:32:943
-5.7756,-7.3754,0.8877,-0.3097,-0.2654,0.301,0.0432,0.0132,0.0235,2994,2019-08-07 16:44:32:949
-5.7756,-7.3754,0.8877,-0.3097,-0.2654,0.301,0.0432,0.0132,0.0235,2999,2019-08-07 16:44:32:954
-5.656,-7.3945,0.9113,-0.3374,-0.3574,0.1014,0.0432,0.0132,0.0235,3004,2019-08-07 16:44:32:959
-5.656,-7.3945,0.9113,-0.3374,-0.3574,0.1014,0.04,5.0E-4,0.0235,3009,2019-08-07 16:44:32:964
-5.656,-7.3945,0.9113,-0.3374,-0.3574,0.1014,0.04,5.0E-4,0.0235,3015,2019-08-07 16:44:32:970
-5.656,-7.3945,0.9113,-0.3374,-0.3574,0.1014,0.04,5.0E-4,0.0235,3018,2019-08-07 16:44:32:973
-5.656,-7.3945,0.9113,-0.3374,-0.3574,0.1014,0.04,5.0E-4,0.0235,3024,2019-08-07 16:44:32:979
-5.6513,-7.4375,0.8358,-0.3448,-0.2834,0.2598,0.0304,0.0218,0.0129,3029,2019-08-07 16:44:32:984
-5.6513,-7.4375,0.8358,-0.3448,-0.2834,0.2598,0.0304,0.0218,0.0129,3034,2019-08-07 16:44:32:989
-5.6513,-7.4375,0.8358,-0.3448,-0.2834,0.2598,0.0304,0.0218,0.0129,3039,2019-08-07 16:44:32:994
-5.6896,-7.4804,0.8547,-0.3128,-0.206,0.2071,0.0464,0.0558,1.0E-4,3044,2019-08-07 16:44:32:999
-5.6896,-7.4804,0.8547,-0.3128,-0.206,0.2071,0.0464,0.0558,1.0E-4,3052,2019-08-07 16:44:33:007
-5.6896,-7.4804,0.8547,-0.3128,-0.206,0.2071,0.0421,0.0558,0.0033,3053,2019-08-07 16:44:33:008
-5.7613,-7.3945,0.8264,-0.3128,-0.206,0.2071,0.0421,0.0558,0.0033,3059,2019-08-07 16:44:33:014
-5.7613,-7.3945,0.8264,-0.2566,-0.2768,0.1536,0.0389,0.0431,0.0033,3064,2019-08-07 16:44:33:019
-5.8283,-7.3468,1.0526,-0.2566,-0.2768,0.1536,0.0389,0.0431,0.0033,3069,2019-08-07 16:44:33:024
-5.8283,-7.3468,1.0526,-0.2566,-0.2768,0.1536,0.0357,-0.0017,0.0129,3074,2019-08-07 16:44:33:029
-5.8283,-7.3468,1.0526,-0.2566,-0.2768,0.1536,0.0357,-0.0017,0.0129,3078,2019-08-07 16:44:33:033
-5.8379,-7.3372,0.9819,-0.168,-0.3461,0.0817,0.0283,-0.0368,0.0278,3084,2019-08-07 16:44:33:039
-5.8379,-7.3372,0.9819,-0.168,-0.3461,0.0817,0.0283,-0.0368,0.0278,3089,2019-08-07 16:44:33:044
-5.6657,-7.3611,0.7651,-0.342,-0.3204,0.302,0.0123,-0.0347,0.0299,3094,2019-08-07 16:44:33:049
-5.6657,-7.3611,0.7651,-0.342,-0.3204,0.302,0.0123,-0.0347,0.0299,3101,2019-08-07 16:44:33:056
-5.6657,-7.3611,0.7651,-0.342,-0.3204,0.302,0.0123,-0.0347,0.0299,3103,2019-08-07 16:44:33:058
-5.7375,-7.3754,0.8641,-0.342,-0.3204,0.302,0.0048,-0.023,0.0235,3109,2019-08-07 16:44:33:064
-5.7375,-7.3754,0.8641,-0.2976,-0.2982,0.2341,0.0048,-0.023,0.0235,3113,2019-08-07 16:44:33:068
-5.6897,-7.4184,0.7792,-0.2976,-0.2982,0.2341,0.008,-0.0155,0.0267,3119,2019-08-07 16:44:33:074
-5.6897,-7.4184,0.7792,-0.2976,-0.2982,0.2341,0.008,-0.0155,0.0267,3124,2019-08-07 16:44:33:079
-5.6897,-7.4184,0.7792,-0.2976,-0.2982,0.2341,0.0091,-0.0027,0.0214,3129,2019-08-07 16:44:33:084
-5.661,-7.3993,0.8122,-0.3531,-0.2768,0.2581,0.0091,-0.0027,0.0214,3134,2019-08-07 16:44:33:089
-5.661,-7.3993,0.8122,-0.3531,-0.2768,0.2581,-0.0026,0.0207,0.0214,3139,2019-08-07 16:44:33:094
-5.661,-7.3993,0.8122,-0.3531,-0.2768,0.2581,-0.0026,0.0207,0.0214,3144,2019-08-07 16:44:33:099
-5.7041,-7.4327,0.7368,-0.3531,-0.2768,0.2581,-0.009,0.0409,0.0288,3152,2019-08-07 16:44:33:107
-5.7041,-7.4327,0.7368,-0.2804,-0.2173,0.3227,-0.009,0.0409,0.0288,3154,2019-08-07 16:44:33:109
-5.7041,-7.4327,0.7368,-0.2804,-0.2173,0.3227,-0.009,0.0409,0.0288,3159,2019-08-07 16:44:33:114
-5.7663,-7.4613,0.7368,-0.2804,-0.2173,0.3227,-0.0026,0.0484,0.0214,3164,2019-08-07 16:44:33:119
-5.7663,-7.4613,0.7368,-0.2804,-0.2173,0.3227,-0.0026,0.0484,0.0214,3168,2019-08-07 16:44:33:123
-5.9194,-7.552,0.7274,-0.1026,-0.1198,0.329,0.0102,0.0388,0.0171,3174,2019-08-07 16:44:33:129
-5.9194,-7.552,0.7274,-0.1026,-0.1198,0.329,0.0102,0.0388,0.0171,3178,2019-08-07 16:44:33:133
-5.9194,-7.552,0.7274,-0.1026,-0.1198,0.329,0.0165,0.0292,0.0139,3184,2019-08-07 16:44:33:139
-5.7854,-7.5759,0.7934,-0.1026,-0.1198,0.329,0.0165,0.0292,0.0139,3189,2019-08-07 16:44:33:144
-5.7854,-7.5759,0.7934,-0.2768,-0.1044,0.2684,0.0229,0.0441,0.0043,3193,2019-08-07 16:44:33:148
-5.795,-7.4756,0.7745,-0.2768,-0.1044,0.2684,0.0229,0.0441,0.0043,3199,2019-08-07 16:44:33:154
-5.795,-7.4756,0.7745,-0.2768,-0.1044,0.2684,0.0229,0.059,-0.001,3204,2019-08-07 16:44:33:159
-5.795,-7.4756,0.7745,-0.2768,-0.1044,0.2684,0.0229,0.059,-0.001,3209,2019-08-07 16:44:33:164
-5.7568,-7.4947,0.7651,-0.2058,-0.1905,0.2865,0.0251,0.0665,-0.001,3214,2019-08-07 16:44:33:169
-5.7568,-7.4947,0.7651,-0.2058,-0.1905,0.2865,0.0251,0.0665,-0.001,3219,2019-08-07 16:44:33:174
-5.7998,-7.447,0.9253,-0.2058,-0.1905,0.2865,0.0261,0.0495,-0.0021,3224,2019-08-07 16:44:33:179
-5.7998,-7.447,0.9253,-0.2058,-0.1905,0.2865,0.0261,0.0495,-0.0021,3228,2019-08-07 16:44:33:183
-5.7998,-7.447,0.9253,-0.2875,-0.2238,0.1528,0.0315,-0.0017,0.0065,3234,2019-08-07 16:44:33:189
-5.7137,-7.4613,0.8358,-0.2875,-0.2238,0.1528,0.0315,-0.0017,0.0065,3239,2019-08-07 16:44:33:194
-5.7137,-7.4613,0.8358,-0.2875,-0.2238,0.1528,0.0304,-0.0081,0.0086,3244,2019-08-07 16:44:33:199
-5.5798,-7.4661,0.6708,-0.2875,-0.2238,0.1528,0.0304,-0.0081,0.0086,3251,2019-08-07 16:44:33:206
-5.5798,-7.4661,0.6708,-0.4787,-0.2091,0.3634,0.0304,-0.0081,0.0086,3254,2019-08-07 16:44:33:209
-5.5798,-7.4661,0.6708,-0.4787,-0.2091,0.3634,0.041,0.0154,0.0086,3259,2019-08-07 16:44:33:214
-5.4985,-7.4947,0.7085,-0.4787,-0.2091,0.3634,0.041,0.0154,0.0086,3264,2019-08-07 16:44:33:219
-5.4985,-7.4947,0.7085,-0.4787,-0.2091,0.3634,0.041,0.0154,0.0086,3269,2019-08-07 16:44:33:224
-5.5129,-7.5902,0.5859,-0.5126,-0.0798,0.4633,0.0538,0.0463,0.0097,3274,2019-08-07 16:44:33:229
-5.5129,-7.5902,0.5859,-0.5126,-0.0798,0.4633,0.0613,0.0974,0.0033,3280,2019-08-07 16:44:33:235
-5.5129,-7.5902,0.5859,-0.5126,-0.0798,0.4633,0.0613,0.0974,0.0033,3284,2019-08-07 16:44:33:239
-5.7043,-7.5043,0.7368,-0.5126,-0.0798,0.4633,0.0613,0.0974,0.0033,3289,2019-08-07 16:44:33:244
-5.7043,-7.5043,0.7368,-0.3709,-0.2033,0.198,0.0687,0.1325,0.0086,3294,2019-08-07 16:44:33:249
-5.7043,-7.5043,0.7368,-0.3709,-0.2033,0.198,0.0687,0.1325,0.0086,3299,2019-08-07 16:44:33:254
-5.7043,-7.4852,0.8216,-0.3709,-0.2033,0.198,0.0762,0.1421,0.0022,3304,2019-08-07 16:44:33:259
-5.7043,-7.4852,0.8216,-0.3709,-0.2033,0.198,0.0762,0.1421,0.0022,3309,2019-08-07 16:44:33:264
-5.7043,-7.4852,0.8216,-0.3709,-0.2033,0.198,0.073,0.124,-0.001,3313,2019-08-07 16:44:33:268
-5.8287,-7.4183,0.9536,-0.2014,-0.2497,0.0834,0.073,0.124,-0.001,3319,2019-08-07 16:44:33:274
-5.8287,-7.4183,0.9536,-0.2014,-0.2497,0.0834,0.0602,0.0889,0.0065,3324,2019-08-07 16:44:33:279
-5.8287,-7.3611,1.0196,-0.2014,-0.2497,0.0834,0.0602,0.0889,0.0065,3329,2019-08-07 16:44:33:284
-5.8287,-7.3611,1.0196,-0.2014,-0.2497,0.0834,0.0496,0.0558,0.0107,3334,2019-08-07 16:44:33:289
-5.8287,-7.3611,1.0196,-0.1996,-0.2762,0.148,0.0496,0.0558,0.0107,3339,2019-08-07 16:44:33:294
-5.8431,-7.4088,0.9442,-0.1996,-0.2762,0.148,0.0368,0.0175,0.0203,3344,2019-08-07 16:44:33:299
-5.8431,-7.4088,0.9442,-0.1996,-0.2762,0.148,0.0368,0.0175,0.0203,3349,2019-08-07 16:44:33:304
-5.8431,-7.4136,0.8452,-0.1996,-0.2762,0.148,0.0368,0.0175,0.0203,3354,2019-08-07 16:44:33:309
-5.8431,-7.4136,0.8452,-0.2268,-0.2207,0.188,0.0261,-0.0145,0.0246,3361,2019-08-07 16:44:33:316
-5.8431,-7.4136,0.8452,-0.2268,-0.2207,0.188,0.0261,-0.0145,0.0246,3363,2019-08-07 16:44:33:318
-5.6661,-7.4947,0.7933,-0.2268,-0.2207,0.188,0.0261,-0.0272,0.0224,3369,2019-08-07 16:44:33:324
-5.6661,-7.4947,0.7933,-0.2268,-0.2207,0.188,0.0261,-0.0272,0.0224,3373,2019-08-07 16:44:33:328
-5.527,-7.4947,0.7462,-0.4681,-0.1614,0.2778,0.0261,0.0154,0.0097,3379,2019-08-07 16:44:33:334
-5.527,-7.4947,0.7462,-0.4681,-0.1614,0.2778,0.0261,0.0154,0.0097,3384,2019-08-07 16:44:33:339
-5.527,-7.4947,0.7462,-0.4681,-0.1614,0.2778,0.0187,0.0697,0.0075,3389,2019-08-07 16:44:33:344
-5.594,-7.5091,0.7557,-0.4681,-0.1614,0.2778,0.0187,0.0697,0.0075,3394,2019-08-07 16:44:33:349
-5.594,-7.5091,0.7557,-0.4496,-0.1567,0.3106,0.0187,0.1166,0.0065,3399,2019-08-07 16:44:33:354
-5.594,-7.5091,0.7557,-0.4496,-0.1567,0.3106,0.0187,0.1166,0.0065,3404,2019-08-07 16:44:33:359
-5.6897,-7.4709,0.8641,-0.4496,-0.1567,0.3106,0.0187,0.1166,0.0065,3409,2019-08-07 16:44:33:364
-5.6897,-7.4709,0.8641,-0.4496,-0.1567,0.3106,0.024,0.1325,0.0161,3414,2019-08-07 16:44:33:369
-5.8763,-7.4231,0.9678,-0.219,-0.3178,0.0525,0.024,0.1325,0.0161,3419,2019-08-07 16:44:33:374
-5.8763,-7.4231,0.9678,-0.219,-0.3178,0.0525,0.0261,0.1102,0.0246,3424,2019-08-07 16:44:33:379
-5.8763,-7.4231,0.9678,-0.219,-0.3178,0.0525,0.0261,0.1102,0.0246,3429,2019-08-07 16:44:33:384
-6.0103,-7.3038,1.0338,-0.219,-0.3178,0.0525,0.024,0.0612,0.0352,3434,2019-08-07 16:44:33:389
-6.0103,-7.3038,1.0338,-0.0204,-0.3942,-0.0865,0.024,0.0612,0.0352,3438,2019-08-07 16:44:33:393
-6.0199,-7.3038,1.0432,-0.0204,-0.3942,-0.0865,0.0165,-0.0027,0.0427,3444,2019-08-07 16:44:33:399
-6.0199,-7.3038,1.0432,-0.0204,-0.3942,-0.0865,0.0165,-0.0027,0.0427,3449,2019-08-07 16:44:33:404
-6.0199,-7.3038,1.0432,-0.0204,-0.3942,-0.0865,0.0048,-0.072,0.0491,3454,2019-08-07 16:44:33:409
-5.9481,-7.2847,1.0432,-0.1094,-0.3635,-0.0199,0.0048,-0.072,0.0491,3459,2019-08-07 16:44:33:414
-5.9481,-7.2847,1.0432,-0.1094,-0.3635,-0.0199,0.0048,-0.072,0.0491,3464,2019-08-07 16:44:33:419
-5.7807,-7.447,0.8641,-0.1094,-0.3635,-0.0199,6.0E-4,-0.0997,0.0437,3469,2019-08-07 16:44:33:424
-5.7807,-7.447,0.8641,-0.1094,-0.3635,-0.0199,6.0E-4,-0.0997,0.0437,3474,2019-08-07 16:44:33:429
-5.7807,-7.447,0.8641,-0.3484,-0.1437,0.3345,-0.0016,-0.0858,0.0342,3479,2019-08-07 16:44:33:434
-5.6994,-7.5091,0.7603,-0.3484,-0.1437,0.3345,-0.0016,-0.0858,0.0342,3484,2019-08-07 16:44:33:439
-5.6994,-7.5091,0.7603,-0.3484,-0.1437,0.3345,0.0048,-0.0177,0.015,3490,2019-08-07 16:44:33:445
-5.7137,-7.5091,0.8263,-0.3484,-0.1437,0.3345,0.0048,-0.0177,0.015,3494,2019-08-07 16:44:33:449
-5.7137,-7.5091,0.8263,-0.3492,-0.1283,0.2193,0.0133,0.0218,0.0065,3499,2019-08-07 16:44:33:454
-5.7137,-7.5091,0.8263,-0.3492,-0.1283,0.2193,0.0133,0.0218,0.0065,3504,2019-08-07 16:44:33:459
-5.7425,-7.4852,0.8216,-0.3492,-0.1283,0.2193,0.0133,0.0558,-0.0042,3509,2019-08-07 16:44:33:464
-5.7425,-7.4852,0.8216,-0.3492,-0.1283,0.2193,0.0133,0.0558,-0.0042,3514,2019-08-07 16:44:33:469
-5.7425,-7.4852,0.8216,-0.2154,-0.1624,0.1714,0.0102,0.058,0.0022,3519,2019-08-07 16:44:33:474
-5.8286,-7.447,0.9583,-0.2154,-0.1624,0.1714,0.0102,0.058,0.0022,3524,2019-08-07 16:44:33:479
-5.8286,-7.447,0.9583,-0.2154,-0.1624,0.1714,0.0102,0.058,0.0022,3529,2019-08-07 16:44:33:484
-5.8525,-7.3754,0.9489,-0.2154,-0.1624,0.1714,0.0059,0.0186,0.0139,3534,2019-08-07 16:44:33:489
-5.8525,-7.3754,0.9489,-0.2224,-0.2135,-0.006,0.0059,0.0186,0.0139,3539,2019-08-07 16:44:33:494
-5.8525,-7.3754,0.9489,-0.2224,-0.2135,-0.006,0.007,-0.0294,0.0288,3545,2019-08-07 16:44:33:500
-5.7664,-7.4136,1.0102,-0.2224,-0.2135,-0.006,0.007,-0.0294,0.0288,3549,2019-08-07 16:44:33:504
-5.7664,-7.4136,1.0102,-0.2224,-0.2135,-0.006,0.008,-0.0805,0.0459,3553,2019-08-07 16:44:33:508
-5.7664,-7.4136,1.0102,-0.3939,-0.2236,0.2141,0.008,-0.0805,0.0459,3559,2019-08-07 16:44:33:514
-5.7186,-7.447,0.8358,-0.3939,-0.2236,0.2141,0.0048,-0.0922,0.0565,3564,2019-08-07 16:44:33:519
-5.7186,-7.447,0.8358,-0.3939,-0.2236,0.2141,0.0048,-0.0922,0.0565,3568,2019-08-07 16:44:33:523
-5.6373,-7.4231,0.8169,-0.3939,-0.2236,0.2141,0.0048,-0.0922,0.0565,3574,2019-08-07 16:44:33:529
-5.6373,-7.4231,0.8169,-0.4663,-0.2131,0.2432,0.0123,-0.0709,0.0544,3579,2019-08-07 16:44:33:534
-5.6373,-7.4231,0.8169,-0.4663,-0.2131,0.2432,0.0123,-0.0709,0.0544,3583,2019-08-07 16:44:33:538
-5.6229,-7.3897,0.7933,-0.4663,-0.2131,0.2432,0.0155,-0.0358,0.0469,3589,2019-08-07 16:44:33:544
-5.6229,-7.3897,0.7933,-0.4663,-0.2131,0.2432,0.0155,-0.0358,0.0469,3594,2019-08-07 16:44:33:549
-5.5942,-7.3945,0.831,-0.4857,-0.2321,0.2207,0.0197,-0.007,0.0395,3599,2019-08-07 16:44:33:554
-5.5942,-7.3945,0.831,-0.4857,-0.2321,0.2207,0.0197,-0.007,0.0395,3604,2019-08-07 16:44:33:559
-5.5942,-7.3945,0.831,-0.4857,-0.2321,0.2207,0.0197,-0.007,0.0395,3608,2019-08-07 16:44:33:563
-5.6947,-7.4088,0.8263,-0.4857,-0.2321,0.2207,0.0197,0.0175,0.0299,3615,2019-08-07 16:44:33:570
-5.6947,-7.4088,0.8263,-0.4857,-0.2321,0.2207,0.0197,0.0175,0.0299,3618,2019-08-07 16:44:33:573
-5.7617,-7.3563,0.9489,-0.3129,-0.243,0.2208,0.0176,0.0207,0.0288,3624,2019-08-07 16:44:33:579
-5.7617,-7.3563,0.9489,-0.3129,-0.243,0.2208,0.0123,5.0E-4,0.0374,3628,2019-08-07 16:44:33:583
-5.7617,-7.3563,0.9489,-0.3129,-0.243,0.2208,0.0123,5.0E-4,0.0374,3634,2019-08-07 16:44:33:589
-5.6995,-7.3754,0.9489,-0.4231,-0.2342,0.1601,0.0123,5.0E-4,0.0374,3638,2019-08-07 16:44:33:593
-5.6995,-7.3754,0.9489,-0.4231,-0.2342,0.1601,0.0155,-0.0091,0.0491,3644,2019-08-07 16:44:33:599
-5.6995,-7.3754,0.9489,-0.4231,-0.2342,0.1601,0.0155,-0.0091,0.0491,3649,2019-08-07 16:44:33:604
-5.6469,-7.404,0.9394,-0.4231,-0.2342,0.1601,0.0197,0.0015,0.0597,3654,2019-08-07 16:44:33:609
-5.6469,-7.404,0.9394,-0.4231,-0.2342,0.1601,0.0197,0.0015,0.0597,3659,2019-08-07 16:44:33:614
-5.7187,-7.4327,0.8546,-0.4111,-0.1852,0.2517,0.024,0.0207,0.0693,3664,2019-08-07 16:44:33:619
-5.7187,-7.4327,0.8546,-0.4111,-0.1852,0.2517,0.024,0.0207,0.0693,3669,2019-08-07 16:44:33:624
-5.7187,-7.4327,0.8546,-0.4111,-0.1852,0.2517,0.024,0.0207,0.0693,3674,2019-08-07 16:44:33:629
-5.7331,-7.4804,0.9394,-0.4111,-0.1852,0.2517,0.0347,0.0281,0.0714,3679,2019-08-07 16:44:33:634
-5.7331,-7.4804,0.9394,-0.4017,-0.0866,0.1299,0.0347,0.0281,0.0714,3684,2019-08-07 16:44:33:639
-5.824,-7.4279,0.8876,-0.4017,-0.0866,0.1299,0.0432,0.0452,0.0523,3689,2019-08-07 16:44:33:644
-5.824,-7.4279,0.8876,-0.4017,-0.0866,0.1299,0.0432,0.0452,0.0523,3693,2019-08-07 16:44:33:648
-5.824,-7.4279,0.8876,-0.4017,-0.0866,0.1299,0.0506,0.0537,0.0629,3699,2019-08-07 16:44:33:654
-5.9675,-7.4804,0.8876,-0.1481,-0.1171,0.1678,0.0506,0.0537,0.0629,3703,2019-08-07 16:44:33:658
-5.9675,-7.4804,0.8876,-0.1481,-0.1171,0.1678,0.0506,0.0537,0.0629,3709,2019-08-07 16:44:33:664
-5.9675,-7.4804,0.8876,-0.1481,-0.1171,0.1678,0.056,0.0441,0.0416,3713,2019-08-07 16:44:33:668
-5.9628,-7.4565,0.897,-0.1481,-0.1171,0.1678,0.056,0.0441,0.0416,3719,2019-08-07 16:44:33:674
-5.9628,-7.4565,0.897,-0.065,-0.1105,0.1839,0.0677,0.0207,0.0256,3723,2019-08-07 16:44:33:678
-5.9867,-7.3992,0.9253,-0.065,-0.1105,0.1839,0.0677,0.0207,0.0256,3729,2019-08-07 16:44:33:684
-5.9867,-7.3992,0.9253,-0.065,-0.1105,0.1839,0.0645,-0.0027,0.0192,3734,2019-08-07 16:44:33:689
-5.9867,-7.3992,0.9253,-0.065,-0.1105,0.1839,0.0645,-0.0027,0.0192,3739,2019-08-07 16:44:33:694
-5.8958,-7.4136,0.963,-0.2306,-0.1737,0.1032,0.0634,-0.0155,0.0075,3744,2019-08-07 16:44:33:699
-5.8958,-7.4136,0.963,-0.2306,-0.1737,0.1032,0.0634,-0.0155,0.0075,3749,2019-08-07 16:44:33:704
-5.8958,-7.4136,0.963,-0.2306,-0.1737,0.1032,0.0592,-0.0283,0.0011,3754,2019-08-07 16:44:33:709
-5.9341,-7.3181,0.9017,-0.2306,-0.1737,0.1032,0.0592,-0.0283,0.0011,3758,2019-08-07 16:44:33:713
-5.9341,-7.3181,0.9017,-0.2402,-0.2628,0.19,0.057,-0.0347,0.0033,3764,2019-08-07 16:44:33:719
-5.7427,-7.3515,0.93,-0.2402,-0.2628,0.19,0.057,-0.0347,0.0033,3769,2019-08-07 16:44:33:724
-5.7427,-7.3515,0.93,-0.2402,-0.2628,0.19,0.0602,-0.023,0.0065,3774,2019-08-07 16:44:33:729
-5.7427,-7.3515,0.93,-0.2402,-0.2628,0.19,0.0602,-0.023,0.0065,3779,2019-08-07 16:44:33:734
-5.7332,-7.3085,0.897,-0.3927,-0.2759,0.1916,0.0592,0.0068,0.0129,3785,2019-08-07 16:44:33:740
-5.7332,-7.3085,0.897,-0.3927,-0.2759,0.1916,0.0592,0.0068,0.0129,3789,2019-08-07 16:44:33:744
-5.6471,-7.3038,0.8876,-0.3927,-0.2759,0.1916,0.0528,0.0335,0.0214,3794,2019-08-07 16:44:33:749
-5.6471,-7.3038,0.8876,-0.3927,-0.2759,0.1916,0.0528,0.0335,0.0214,3799,2019-08-07 16:44:33:754
-5.6471,-7.3038,0.8876,-0.3712,-0.2686,0.229,0.0528,0.0335,0.0214,3804,2019-08-07 16:44:33:759
-5.6471,-7.3038,0.8876,-0.3712,-0.2686,0.229,0.0517,0.0569,0.0224,3809,2019-08-07 16:44:33:764
-5.8289,-7.299,0.93,-0.3712,-0.2686,0.229,0.041,0.058,0.0246,3814,2019-08-07 16:44:33:769
-5.8289,-7.299,0.93,-0.3712,-0.2686,0.229,0.041,0.058,0.0246,3819,2019-08-07 16:44:33:774
-5.9294,-7.2894,1.0572,-0.2031,-0.2893,0.0346,0.041,0.058,0.0246,3823,2019-08-07 16:44:33:778
-5.9294,-7.2894,1.0572,-0.2031,-0.2893,0.0346,0.0474,0.0708,0.0214,3829,2019-08-07 16:44:33:784
-6.0059,-7.1414,1.0714,-0.2031,-0.2893,0.0346,0.0474,0.0708,0.0214,3834,2019-08-07 16:44:33:789
-6.0059,-7.1414,1.0714,-0.2031,-0.2893,0.0346,0.0464,0.0324,0.0246,3839,2019-08-07 16:44:33:794
-6.0059,-7.1414,1.0714,-0.1988,-0.4614,0.0265,0.0464,0.0324,0.0246,3843,2019-08-07 16:44:33:798
-5.9055,-7.108,1.0431,-0.1988,-0.4614,0.0265,0.0304,-0.0113,0.0203,3849,2019-08-07 16:44:33:804
-5.9055,-7.108,1.0431,-0.1988,-0.4614,0.0265,0.0304,-0.0113,0.0203,3853,2019-08-07 16:44:33:808
-5.9055,-7.108,1.0431,-0.1988,-0.4614,0.0265,0.0016,-0.0667,0.0214,3859,2019-08-07 16:44:33:814
-5.9868,-7.1462,0.9205,-0.2547,-0.3958,0.1131,0.0016,-0.0667,0.0214,3863,2019-08-07 16:44:33:818
-5.9868,-7.1462,0.9205,-0.2547,-0.3958,0.1131,0.0016,-0.0667,0.0214,3869,2019-08-07 16:44:33:824
-5.6806,-7.1939,1.1468,-0.2547,-0.3958,0.1131,-0.0271,-0.0901,0.0299,3873,2019-08-07 16:44:33:828
-5.6806,-7.1939,1.1468,-0.2547,-0.3958,0.1131,-0.0271,-0.0901,0.0299,3879,2019-08-07 16:44:33:834
-5.6806,-7.1939,1.1468,-0.4332,-0.2597,0.1541,-0.0101,-0.0944,0.0299,3883,2019-08-07 16:44:33:838
-5.695,-7.3133,0.9488,-0.4332,-0.2597,0.1541,-0.0101,-0.0944,0.0299,3889,2019-08-07 16:44:33:844
-5.695,-7.3133,0.9488,-0.4332,-0.2597,0.1541,-0.0143,-0.0699,0.0395,3893,2019-08-07 16:44:33:848
-5.628,-7.3372,0.9158,-0.4332,-0.2597,0.1541,-0.0143,-0.0699,0.0395,3899,2019-08-07 16:44:33:854
-5.628,-7.3372,0.9158,-0.5465,-0.2182,0.1401,-0.0143,-0.0358,0.0469,3903,2019-08-07 16:44:33:858
-5.628,-7.3372,0.9158,-0.5465,-0.2182,0.1401,-0.0143,-0.0358,0.0469,3909,2019-08-07 16:44:33:864
-5.6281,-7.3085,0.8687,-0.5465,-0.2182,0.1401,-0.009,0.0154,0.048,3913,2019-08-07 16:44:33:868
-5.6281,-7.3085,0.8687,-0.5465,-0.2182,0.1401,-0.009,0.0154,0.048,3919,2019-08-07 16:44:33:874
-5.5563,-7.2608,0.798,-0.5952,-0.3002,0.3097,-0.009,0.0154,0.048,3924,2019-08-07 16:44:33:879
-5.5563,-7.2608,0.798,-0.5952,-0.3002,0.3097,-0.009,0.0814,0.0427,3929,2019-08-07 16:44:33:884
-5.5563,-7.2608,0.798,-0.5952,-0.3002,0.3097,-0.009,0.0814,0.0427,3934,2019-08-07 16:44:33:889
-5.8338,-7.2321,0.7791,-0.5952,-0.3002,0.3097,-0.0271,0.1134,0.048,3938,2019-08-07 16:44:33:893
-5.8338,-7.2321,0.7791,-0.2357,-0.3767,0.1602,-0.0271,0.1134,0.048,3944,2019-08-07 16:44:33:899
-6.006,-7.151,0.9629,-0.2357,-0.3767,0.1602,-0.025,0.1219,0.0448,3949,2019-08-07 16:44:33:904
-6.006,-7.151,0.9629,-0.2357,-0.3767,0.1602,-0.025,0.1219,0.0448,3954,2019-08-07 16:44:33:909
-6.006,-7.151,0.9629,-0.2357,-0.3767,0.1602,-0.0218,0.0814,0.048,3959,2019-08-07 16:44:33:914
-6.0491,-7.1844,0.9158,-0.1549,-0.366,0.1338,-0.0218,0.0814,0.048,3964,2019-08-07 16:44:33:919
-6.0491,-7.1844,0.9158,-0.1549,-0.366,0.1338,-0.0218,0.0814,0.048,3969,2019-08-07 16:44:33:924
-6.0491,-7.1844,0.9158,-0.1549,-0.366,0.1338,-0.0399,0.042,0.0395,3974,2019-08-07 16:44:33:929