ACCELEROMETER X (m/s²),ACCELEROMETER Y (m/s²),ACCELEROMETER Z (m/s²),LINEAR ACCELERATION X (m/s²),LINEAR ACCELERATION Y (m/s²),LINEAR ACCELERATION Z (m/s²),GYROSCOPE X (rad/s),GYROSCOPE Y (rad/s),GYROSCOPE Z (rad/s),Time since start in ms ,YYYY-MO-DD HH-MI-SS_SSS
-5.6766,-7.4717,0.682,-0.2175,-0.3424,-0.0221,0.0112,-0.0028,-0.0073,2,2019-08-07 16:44:08:315
-5.6766,-7.4717,0.682,-0.2175,-0.3424,-0.0221,0.0112,-0.0028,-0.0073,8,2019-08-07 16:44:08:321
-5.6336,-7.5672,0.6301,-0.2175,-0.3424,-0.0221,0.0048,-0.0145,1.0E-4,12,2019-08-07 16:44:08:325
-5.6336,-7.5672,0.6301,-0.2978,-0.2666,0.0039,0.0048,-0.0145,1.0E-4,18,2019-08-07 16:44:08:331
-5.5522,-7.5528,0.6961,-0.2978,-0.2666,0.0039,0.0027,-0.0294,0.0044,23,2019-08-07 16:44:08:336
-5.5522,-7.5528,0.6961,-0.2978,-0.2666,0.0039,0.0027,-0.0294,0.0044,28,2019-08-07 16:44:08:341
-5.5522,-7.5528,0.6961,-0.2978,-0.2666,0.0039,0.0069,-0.0379,0.0129,32,2019-08-07 16:44:08:345
-5.4853,-7.4956,0.6678,-0.4273,-0.3279,0.028,0.0069,-0.0379,0.0129,38,2019-08-07 16:44:08:351
-5.4853,-7.4956,0.6678,-0.4273,-0.3279,0.028,0.0069,-0.0379,0.0129,42,2019-08-07 16:44:08:355
-5.4566,-7.5003,0.5971,-0.4273,-0.3279,0.028,6.0E-4,-0.0241,0.0257,48,2019-08-07 16:44:08:361
-5.4566,-7.5003,0.5971,-0.4273,-0.3279,0.028,6.0E-4,-0.0241,0.0257,53,2019-08-07 16:44:08:366
-5.4566,-7.5003,0.5971,-0.3346,-0.3255,0.0488,-5.0E-4,4.0E-4,0.0257,58,2019-08-07 16:44:08:371
-5.5762,-7.4669,0.6348,-0.3346,-0.3255,0.0488,-5.0E-4,4.0E-4,0.0257,64,2019-08-07 16:44:08:377
-5.5762,-7.4669,0.6348,-0.3346,-0.3255,0.0488,-5.0E-4,0.009,0.03,68,2019-08-07 16:44:08:381
-5.5762,-7.486,0.5924,-0.3346,-0.3255,0.0488,-5.0E-4,0.009,0.03,73,2019-08-07 16:44:08:386
-5.5762,-7.486,0.5924,-0.2867,-0.2648,0.118,-0.0058,0.0121,0.0342,78,2019-08-07 16:44:08:391
-5.5762,-7.486,0.5924,-0.2867,-0.2648,0.118,-0.0058,0.0121,0.0342,82,2019-08-07 16:44:08:395
-5.6479,-7.4478,0.55,-0.2867,-0.2648,0.118,-0.0133,0.0335,0.0268,88,2019-08-07 16:44:08:401
-5.6479,-7.4478,0.55,-0.2867,-0.2648,0.118,-0.0133,0.0335,0.0268,92,2019-08-07 16:44:08:405
-5.801,-7.486,0.5736,-0.1048,-0.319,0.0884,-0.0165,0.0484,0.0214,98,2019-08-07 16:44:08:411
-5.801,-7.486,0.5736,-0.1048,-0.319,0.0884,-0.0165,0.0484,0.0214,103,2019-08-07 16:44:08:416
-5.801,-7.486,0.5736,-0.1048,-0.319,0.0884,-0.0165,0.0484,0.0214,108,2019-08-07 16:44:08:421
-5.868,-7.529,0.5406,-0.1048,-0.319,0.0884,-0.0154,0.0537,0.0118,113,2019-08-07 16:44:08:426
-5.868,-7.529,0.5406,-0.1048,-0.319,0.0884,-0.0154,0.0537,0.0118,118,2019-08-07 16:44:08:431
-5.868,-7.529,0.5406,0.0014,-0.2501,0.1119,-0.0165,0.0409,1.0E-4,123,2019-08-07 16:44:08:436
-5.8919,-7.5624,0.5641,0.0014,-0.2501,0.1119,-0.0165,0.0409,1.0E-4,128,2019-08-07 16:44:08:441
-5.8919,-7.5624,0.5641,0.0014,-0.2501,0.1119,-0.0165,0.0239,-0.0073,133,2019-08-07 16:44:08:446
-5.8393,-7.6292,0.5877,0.0014,-0.2501,0.1119,-0.0165,0.0239,-0.0073,137,2019-08-07 16:44:08:450
-5.8393,-7.6292,0.5877,-0.1376,-0.2457,-0.0125,-0.0037,0.0068,-0.0148,143,2019-08-07 16:44:08:456
-5.8393,-7.6292,0.5877,-0.1376,-0.2457,-0.0125,-0.0037,0.0068,-0.0148,148,2019-08-07 16:44:08:461
-5.6767,-7.5481,0.6207,-0.1376,-0.2457,-0.0125,-0.0037,0.0068,-0.0148,153,2019-08-07 16:44:08:466
-5.6767,-7.5481,0.6207,-0.2407,-0.1853,-0.0134,0.0016,0.0026,-0.0116,158,2019-08-07 16:44:08:471
-5.6671,-7.6197,0.6584,-0.2407,-0.1853,-0.0134,0.0016,0.0026,-0.0116,163,2019-08-07 16:44:08:476
-5.6671,-7.6197,0.6584,-0.2407,-0.1853,-0.0134,0.0027,-0.0038,-0.0105,168,2019-08-07 16:44:08:481
-5.6671,-7.6197,0.6584,-0.2407,-0.1853,-0.0134,0.0027,-0.0038,-0.0105,172,2019-08-07 16:44:08:485
-5.6288,-7.5481,0.6113,-0.2407,-0.1853,-0.0134,6.0E-4,-0.0241,-0.002,178,2019-08-07 16:44:08:491
-5.6288,-7.5481,0.6113,-0.2915,-0.1723,0.0638,6.0E-4,-0.0241,-0.002,183,2019-08-07 16:44:08:496
-5.5905,-7.6292,0.6395,-0.2915,-0.1723,0.0638,6.0E-4,-0.0241,-0.002,188,2019-08-07 16:44:08:501
-5.5905,-7.6292,0.6395,-0.2915,-0.1723,0.0638,0.0048,-0.0198,1.0E-4,193,2019-08-07 16:44:08:506
-5.6384,-7.5481,0.6725,-0.3525,-0.2349,-0.0126,0.0123,-0.0155,1.0E-4,199,2019-08-07 16:44:08:512
-5.6384,-7.5481,0.6725,-0.3525,-0.2349,-0.0126,0.0123,-0.0155,1.0E-4,203,2019-08-07 16:44:08:516
-5.6384,-7.5481,0.6725,-0.3525,-0.2349,-0.0126,0.0123,-0.0155,1.0E-4,208,2019-08-07 16:44:08:521
-5.5331,-7.4908,0.6065,-0.3525,-0.2349,-0.0126,0.008,-0.0038,0.0044,213,2019-08-07 16:44:08:526
-5.5331,-7.4908,0.6065,-0.3525,-0.2349,-0.0126,0.008,-0.0038,0.0044,218,2019-08-07 16:44:08:531
-5.6336,-7.4765,0.5736,-0.3285,-0.3589,0.0786,-0.0016,0.0249,0.0044,223,2019-08-07 16:44:08:536
-5.6336,-7.4765,0.5736,-0.3285,-0.3589,0.0786,-0.0016,0.0249,0.0044,228,2019-08-07 16:44:08:541
-5.6336,-7.4765,0.5736,-0.3001,-0.3398,0.053,-0.0037,0.0473,1.0E-4,233,2019-08-07 16:44:08:546
-5.6719,-7.5147,0.583,-0.3001,-0.3398,0.053,-0.0037,0.0473,1.0E-4,238,2019-08-07 16:44:08:551
-5.6719,-7.5147,0.583,-0.3001,-0.3398,0.053,-0.0048,0.0484,-0.002,244,2019-08-07 16:44:08:557
-5.7293,-7.529,0.6443,-0.3001,-0.3398,0.053,-0.0048,0.0484,-0.002,248,2019-08-07 16:44:08:561
-5.7293,-7.529,0.6443,-0.1285,-0.2682,-0.0142,-0.0048,0.0484,-0.002,252,2019-08-07 16:44:08:565
-5.7293,-7.529,0.6443,-0.1285,-0.2682,-0.0142,-0.0026,0.0175,0.0012,258,2019-08-07 16:44:08:571
-5.7006,-7.4765,0.7103,-0.1285,-0.2682,-0.0142,-0.0026,0.0175,0.0012,262,2019-08-07 16:44:08:575
-5.7006,-7.4765,0.7103,-0.1285,-0.2682,-0.0142,-0.0058,-0.007,0.0055,268,2019-08-07 16:44:08:581
-5.7006,-7.4765,0.7103,-0.2487,-0.2821,0.0267,-0.0058,-0.007,0.0055,272,2019-08-07 16:44:08:585
-5.648,-7.5242,0.6301,-0.2487,-0.2821,0.0267,-0.0058,-0.0219,0.0044,278,2019-08-07 16:44:08:591
-5.648,-7.5242,0.6301,-0.2487,-0.2821,0.0267,-0.0058,-0.0219,0.0044,283,2019-08-07 16:44:08:596
-5.5619,-7.5051,0.6018,-0.2487,-0.2821,0.0267,-0.0069,-0.0219,0.0108,288,2019-08-07 16:44:08:601
-5.5619,-7.5051,0.6018,-0.3065,-0.3247,0.0753,-0.0069,-0.0219,0.0108,293,2019-08-07 16:44:08:606
-5.5619,-7.5051,0.6018,-0.3065,-0.3247,0.0753,-0.0069,-0.0219,0.0108,298,2019-08-07 16:44:08:611
-5.5666,-7.5194,0.5547,-0.3065,-0.3247,0.0753,-0.0058,-0.0038,0.0108,303,2019-08-07 16:44:08:616
-5.5666,-7.5194,0.5547,-0.3065,-0.3247,0.0753,-0.0058,-0.0038,0.0108,308,2019-08-07 16:44:08:621
-5.6958,-7.4765,0.5971,-0.212,-0.3287,0.046,-5.0E-4,0.0143,0.0076,313,2019-08-07 16:44:08:626
-5.6958,-7.4765,0.5971,-0.212,-0.3287,0.046,-5.0E-4,0.0143,0.0076,318,2019-08-07 16:44:08:631
-5.6958,-7.4765,0.5971,-0.212,-0.3287,0.046,-0.0026,0.0217,0.0108,323,2019-08-07 16:44:08:636
-5.7197,-7.4908,0.5406,-0.212,-0.3287,0.046,-0.0026,0.0217,0.0108,328,2019-08-07 16:44:08:641
-5.7197,-7.4908,0.5406,-0.1661,-0.2942,0.0702,-0.009,0.0324,0.0023,333,2019-08-07 16:44:08:646
-5.8154,-7.5242,0.5406,-0.1661,-0.2942,0.0702,-0.009,0.0324,0.0023,338,2019-08-07 16:44:08:651
-5.8154,-7.5242,0.5406,-0.1661,-0.2942,0.0702,-0.0112,0.0377,-0.0041,343,2019-08-07 16:44:08:656
-5.8154,-7.5242,0.5406,-0.1661,-0.2942,0.0702,-0.0112,0.0377,-0.0041,348,2019-08-07 16:44:08:661
-5.8202,-7.5624,0.5971,-0.1184,-0.2181,0.0543,-0.0112,0.0324,-0.0095,352,2019-08-07 16:44:08:665
-5.8202,-7.5624,0.5971,-0.1184,-0.2181,0.0543,-0.0112,0.0324,-0.0095,358,2019-08-07 16:44:08:671
-5.7915,-7.6054,0.583,-0.1184,-0.2181,0.0543,-0.0122,0.0303,-0.018,364,2019-08-07 16:44:08:677
-5.7915,-7.6054,0.583,-0.1184,-0.2181,0.0543,-0.0122,0.0303,-0.018,367,2019-08-07 16:44:08:680
-5.7915,-7.6054,0.583,-0.1691,-0.2535,0.0162,-0.0058,0.0153,-0.0201,372,2019-08-07 16:44:08:685
-5.7628,-7.5433,0.6537,-0.1691,-0.2535,0.0162,-0.0058,0.0153,-0.0201,378,2019-08-07 16:44:08:691
-5.7628,-7.5433,0.6537,-0.1691,-0.2535,0.0162,0.0016,-0.006,-0.0148,382,2019-08-07 16:44:08:695
-5.7628,-7.5433,0.6537,-0.1691,-0.2535,0.0162,0.0016,-0.006,-0.0148,388,2019-08-07 16:44:08:701
-5.6288,-7.5481,0.6348,-0.1691,-0.2535,0.0162,0.0016,-0.006,-0.0148,392,2019-08-07 16:44:08:705
-5.6288,-7.5481,0.6348,-0.2428,-0.2889,0.0028,0.0069,-0.0283,-0.0116,398,2019-08-07 16:44:08:711
-5.581,-7.5242,0.649,-0.2428,-0.2889,0.0028,0.0069,-0.0283,-0.0116,403,2019-08-07 16:44:08:716
-5.581,-7.5242,0.649,-0.2428,-0.2889,0.0028,0.0069,-0.0337,-0.0041,408,2019-08-07 16:44:08:721
-5.581,-7.5242,0.649,-0.3366,-0.247,0.0454,0.0069,-0.0337,-0.0041,413,2019-08-07 16:44:08:726
-5.5379,-7.5672,0.5877,-0.3366,-0.247,0.0454,0.0059,-0.0326,0.0055,418,2019-08-07 16:44:08:731
-5.5379,-7.5672,0.5877,-0.3366,-0.247,0.0454,0.0059,-0.0326,0.0055,423,2019-08-07 16:44:08:736
-5.5379,-7.5672,0.5877,-0.3366,-0.247,0.0454,0.0091,-0.0198,0.014,427,2019-08-07 16:44:08:740
-5.5427,-7.5528,0.6065,-0.3657,-0.256,0.0069,0.0091,-0.0198,0.014,434,2019-08-07 16:44:08:747
-5.5427,-7.5528,0.6065,-0.3657,-0.256,0.0069,0.0144,0.0058,0.014,438,2019-08-07 16:44:08:751
-5.5954,-7.4956,0.5971,-0.3657,-0.256,0.0069,0.0144,0.0058,0.014,442,2019-08-07 16:44:08:755
-5.5954,-7.4956,0.5971,-0.3657,-0.256,0.0069,0.0123,0.0217,0.0193,448,2019-08-07 16:44:08:761
-5.6623,-7.4621,0.6537,-0.2438,-0.3447,-0.0159,0.0123,0.0217,0.0193,453,2019-08-07 16:44:08:766
-5.6623,-7.4621,0.6537,-0.2438,-0.3447,-0.0159,0.0123,0.0217,0.0193,458,2019-08-07 16:44:08:771
-5.6623,-7.4621,0.6537,-0.2438,-0.3447,-0.0159,6.0E-4,0.0377,0.0193,463,2019-08-07 16:44:08:776
-5.715,-7.4335,0.6301,-0.2438,-0.3447,-0.0159,6.0E-4,0.0377,0.0193,468,2019-08-07 16:44:08:781
-5.715,-7.4335,0.6301,-0.2438,-0.3447,-0.0159,-0.0069,0.043,0.015,472,2019-08-07 16:44:08:785
-5.715,-7.4335,0.6301,-0.1378,-0.3563,0.0078,-0.0069,0.043,0.015,478,2019-08-07 16:44:08:791
-5.7915,-7.4669,0.6443,-0.1378,-0.3563,0.0078,-0.0133,0.0303,0.0172,482,2019-08-07 16:44:08:795
-5.7915,-7.4669,0.6443,-0.1378,-0.3563,0.0078,-0.0133,0.0303,0.0172,488,2019-08-07 16:44:08:801
-5.7915,-7.4669,0.6443,-0.1378,-0.3563,0.0078,-0.0133,0.0303,0.0172,492,2019-08-07 16:44:08:805
-5.7628,-7.5672,0.6301,-0.1318,-0.2347,-0.0065,-0.0176,0.0047,0.0193,497,2019-08-07 16:44:08:810
-5.7628,-7.5672,0.6301,-0.1318,-0.2347,-0.0065,-0.0176,0.0047,0.0193,503,2019-08-07 16:44:08:816
-5.7293,-7.5481,0.649,-0.1318,-0.2347,-0.0065,-0.0154,-0.0124,0.0204,508,2019-08-07 16:44:08:821
-5.7293,-7.5481,0.649,-0.1318,-0.2347,-0.0065,-0.0154,-0.0124,0.0204,513,2019-08-07 16:44:08:826
-5.7293,-7.5481,0.649,-0.1919,-0.2232,-0.0213,-0.0133,-0.0251,0.0161,518,2019-08-07 16:44:08:831
-5.6432,-7.5624,0.6395,-0.1919,-0.2232,-0.0213,-0.0133,-0.0251,0.0161,522,2019-08-07 16:44:08:835
-5.6432,-7.5624,0.6395,-0.1919,-0.2232,-0.0213,-0.0122,-0.0337,0.0225,528,2019-08-07 16:44:08:841
-5.6528,-7.5337,0.5641,-0.1919,-0.2232,-0.0213,-0.0122,-0.0337,0.0225,533,2019-08-07 16:44:08:846
-5.6528,-7.5337,0.5641,-0.2947,-0.2451,0.0652,-0.0165,-0.023,0.0225,537,2019-08-07 16:44:08:850
-5.6528,-7.5337,0.5641,-0.2947,-0.2451,0.0652,-0.0165,-0.023,0.0225,543,2019-08-07 16:44:08:856
-5.6289,-7.5815,0.55,-0.2947,-0.2451,0.0652,-0.0122,-0.0049,0.0204,548,2019-08-07 16:44:08:861
-5.6289,-7.5815,0.55,-0.2947,-0.2451,0.0652,-0.0122,-0.0049,0.0204,553,2019-08-07 16:44:08:866
-5.7592,-7.5289,0.5544,-0.2248,-0.2097,0.0874,-0.0101,0.0015,0.0182,557,2019-08-07 16:44:08:870
-5.7592,-7.5289,0.5544,-0.2248,-0.2097,0.0874,-0.0101,0.0015,0.0182,563,2019-08-07 16:44:08:876
-5.7592,-7.5289,0.5544,-0.2248,-0.2097,0.0874,-0.0069,0.009,0.014,567,2019-08-07 16:44:08:880
-5.7401,-7.4907,0.5214,-0.2248,-0.2097,0.0874,-0.0069,0.009,0.014,573,2019-08-07 16:44:08:886
-5.7401,-7.4907,0.5214,-0.1362,-0.3036,0.084,-0.0112,0.0175,0.0022,579,2019-08-07 16:44:08:892
-5.8166,-7.4907,0.6063,-0.1362,-0.3036,0.084,-0.0112,0.0175,0.0022,582,2019-08-07 16:44:08:895
-5.8166,-7.4907,0.6063,-0.1362,-0.3036,0.084,-0.0176,0.0143,-0.002,588,2019-08-07 16:44:08:901
-5.8166,-7.4907,0.6063,-0.1362,-0.3036,0.084,-0.0176,0.0143,-0.002,593,2019-08-07 16:44:08:906
-5.8071,-7.5527,0.6251,-0.1226,-0.227,-0.0093,-0.0176,0.0143,-0.002,598,2019-08-07 16:44:08:911
-5.8071,-7.5527,0.6251,-0.1226,-0.227,-0.0093,-0.0154,0.009,-0.0105,603,2019-08-07 16:44:08:916
-5.8071,-7.5527,0.6251,-0.1226,-0.227,-0.0093,-0.0154,0.009,-0.0105,608,2019-08-07 16:44:08:921
-5.8167,-7.5432,0.6063,-0.1226,-0.227,-0.0093,-0.0154,-0.007,-0.0116,612,2019-08-07 16:44:08:925
-5.8167,-7.5432,0.6063,-0.1876,-0.2144,0.002,-0.0154,-0.007,-0.0116,618,2019-08-07 16:44:08:931
-5.7162,-7.5766,0.611,-0.1876,-0.2144,0.002,-0.009,-0.0198,-0.0127,622,2019-08-07 16:44:08:935
-5.7162,-7.5766,0.611,-0.1876,-0.2144,0.002,-0.009,-0.0198,-0.0127,628,2019-08-07 16:44:08:941
-5.7162,-7.5766,0.611,-0.1876,-0.2144,0.002,-0.0069,-0.0262,-0.0116,634,2019-08-07 16:44:08:947
-5.6588,-7.6005,0.6157,-0.2617,-0.197,0.0036,-0.0069,-0.0262,-0.0116,638,2019-08-07 16:44:08:951
-5.6588,-7.6005,0.6157,-0.2617,-0.197,0.0036,6.0E-4,-0.0294,-0.0073,643,2019-08-07 16:44:08:956
-5.5919,-7.5432,0.6204,-0.3276,-0.255,7.0E-4,6.0E-4,-0.0294,-0.0073,649,2019-08-07 16:44:08:962
-5.5919,-7.5432,0.6204,-0.3276,-0.255,7.0E-4,0.0059,-0.0326,0.0012,653,2019-08-07 16:44:08:966
-5.5919,-7.5432,0.6204,-0.3276,-0.255,7.0E-4,0.0059,-0.0326,0.0012,658,2019-08-07 16:44:08:971
-5.6014,-7.5145,0.6157,-0.3276,-0.255,7.0E-4,0.0059,-0.0283,0.0118,663,2019-08-07 16:44:08:976
-5.6014,-7.5145,0.6157,-0.3704,-0.3072,-0.0086,0.0059,-0.0283,0.0118,668,2019-08-07 16:44:08:981
-5.6014,-7.5145,0.6157,-0.3704,-0.3072,-0.0086,0.0069,-0.0177,0.0161,673,2019-08-07 16:44:08:986
-5.5775,-7.462,0.6346,-0.3704,-0.3072,-0.0086,0.0069,-0.0177,0.0161,678,2019-08-07 16:44:08:991
-5.5775,-7.462,0.6346,-0.3704,-0.3072,-0.0086,0.0038,-0.007,0.0246,683,2019-08-07 16:44:08:996
-5.6397,-7.4429,0.6298,-0.2819,-0.3529,-0.001,0.0038,-0.007,0.0246,688,2019-08-07 16:44:09:001
-5.6397,-7.4429,0.6298,-0.2819,-0.3529,-0.001,0.0038,4.0E-4,0.0257,693,2019-08-07 16:44:09:006
-5.6397,-7.4429,0.6298,-0.2819,-0.3529,-0.001,0.0038,4.0E-4,0.0257,697,2019-08-07 16:44:09:010
-5.6972,-7.4525,0.5308,-0.2819,-0.3529,-0.001,0.0038,4.0E-4,0.0257,703,2019-08-07 16:44:09:016
-5.6972,-7.4525,0.5308,-0.1662,-0.3689,0.0279,0.0016,-6.0E-4,0.0204,707,2019-08-07 16:44:09:020
-5.6972,-7.4525,0.5308,-0.1662,-0.3689,0.0279,0.0016,-6.0E-4,0.0204,713,2019-08-07 16:44:09:026
-5.8024,-7.4572,0.5827,-0.1662,-0.3689,0.0279,-5.0E-4,0.0026,0.0161,718,2019-08-07 16:44:09:031
-5.8024,-7.4572,0.5827,-0.1662,-0.3689,0.0279,-5.0E-4,0.0026,0.0161,723,2019-08-07 16:44:09:036
-5.7116,-7.4525,0.6157,-0.2265,-0.3143,0.0554,-0.0069,4.0E-4,0.0118,727,2019-08-07 16:44:09:040
-5.7116,-7.4525,0.6157,-0.2265,-0.3143,0.0554,-0.0069,4.0E-4,0.0118,733,2019-08-07 16:44:09:046
-5.7116,-7.4525,0.6157,-0.2265,-0.3143,0.0554,-0.009,0.0153,0.0065,738,2019-08-07 16:44:09:051
-5.7546,-7.4906,0.578,-0.2265,-0.3143,0.0554,-0.009,0.0153,0.0065,744,2019-08-07 16:44:09:057
-5.7546,-7.4906,0.578,-0.1516,-0.2656,0.0428,-0.0144,0.0122,0.0044,749,2019-08-07 16:44:09:062
-5.769,-7.5432,0.5968,-0.1516,-0.2656,0.0428,-0.0144,0.0122,0.0044,752,2019-08-07 16:44:09:065
-5.769,-7.5432,0.5968,-0.1516,-0.2656,0.0428,-0.0144,0.0122,0.0044,758,2019-08-07 16:44:09:071
-5.769,-7.5432,0.5968,-0.1516,-0.2656,0.0428,-0.0112,-0.0092,0.0076,762,2019-08-07 16:44:09:075
-5.7403,-7.5336,0.6251,-0.2006,-0.2409,-0.0107,-0.0112,-0.0092,0.0076,768,2019-08-07 16:44:09:081
-5.7403,-7.5336,0.6251,-0.2006,-0.2409,-0.0107,-0.0112,-0.0273,0.0108,772,2019-08-07 16:44:09:085
-5.6781,-7.5241,0.578,-0.2006,-0.2409,-0.0107,-0.0112,-0.0273,0.0108,778,2019-08-07 16:44:09:091
-5.6781,-7.5241,0.578,-0.2006,-0.2409,-0.0107,-0.0101,-0.0315,0.0065,783,2019-08-07 16:44:09:096
-5.6781,-7.5241,0.578,-0.2006,-0.2409,-0.0107,-0.0101,-0.0315,0.0065,787,2019-08-07 16:44:09:100
-5.6734,-7.5145,0.5732,-0.2775,-0.2691,0.0288,-0.008,-0.0219,0.0054,794,2019-08-07 16:44:09:107
-5.6734,-7.5145,0.5732,-0.2775,-0.2691,0.0288,-0.008,-0.0219,0.0054,797,2019-08-07 16:44:09:110
-5.6734,-7.5145,0.5732,-0.2775,-0.2691,0.0288,-0.008,-0.0113,0.0044,803,2019-08-07 16:44:09:116
-5.683,-7.4811,0.6157,-0.2775,-0.2691,0.0288,-0.008,-0.0113,0.0044,808,2019-08-07 16:44:09:121
-5.683,-7.4811,0.6157,-0.2826,-0.3213,0.0297,-0.009,-6.0E-4,0.0012,813,2019-08-07 16:44:09:126
-5.683,-7.4954,0.5685,-0.2826,-0.3213,0.0297,-0.009,-6.0E-4,0.0012,818,2019-08-07 16:44:09:131
-5.683,-7.4954,0.5685,-0.2826,-0.3213,0.0297,-0.009,-6.0E-4,0.0012,823,2019-08-07 16:44:09:136
-5.683,-7.4954,0.5685,-0.2826,-0.3213,0.0297,-0.009,0.0132,-9.0E-4,827,2019-08-07 16:44:09:140
-5.7069,-7.5145,0.5968,-0.2157,-0.2737,0.0746,-0.009,0.0132,-9.0E-4,833,2019-08-07 16:44:09:146
-5.7069,-7.5145,0.5968,-0.2157,-0.2737,0.0746,-0.008,0.0153,-0.0041,838,2019-08-07 16:44:09:151
-5.7069,-7.5145,0.5968,-0.2157,-0.2737,0.0746,-0.008,0.0153,-0.0041,843,2019-08-07 16:44:09:156
-5.7308,-7.5479,0.6062,-0.2157,-0.2737,0.0746,-0.009,0.0026,-0.0052,848,2019-08-07 16:44:09:161
-5.7308,-7.5479,0.6062,-0.239,-0.2409,-0.0085,-0.009,0.0026,-0.0052,852,2019-08-07 16:44:09:165
-5.6352,-7.5479,0.6439,-0.239,-0.2409,-0.0085,-0.009,0.0026,-0.0052,858,2019-08-07 16:44:09:171
-5.6352,-7.5479,0.6439,-0.239,-0.2409,-0.0085,-0.0069,-0.0113,-0.0063,863,2019-08-07 16:44:09:176
-5.6017,-7.5431,0.6204,-0.3284,-0.2468,0.0015,-0.0069,-0.0113,-0.0063,868,2019-08-07 16:44:09:181
-5.6017,-7.5431,0.6204,-0.3284,-0.2468,0.0015,-0.0037,-0.0198,1.0E-4,873,2019-08-07 16:44:09:186
-5.6017,-7.5431,0.6204,-0.3284,-0.2468,0.0015,-0.0037,-0.0198,1.0E-4,878,2019-08-07 16:44:09:191
-5.5778,-7.5288,0.5544,-0.3284,-0.2468,0.0015,6.0E-4,-0.0166,0.0076,883,2019-08-07 16:44:09:196
-5.5778,-7.5288,0.5544,-0.3284,-0.2468,0.0015,6.0E-4,-0.0166,0.0076,887,2019-08-07 16:44:09:200
-5.5778,-7.5288,0.5544,-0.3758,-0.2279,0.0219,-0.0016,-0.0017,0.0129,894,2019-08-07 16:44:09:207
-5.6352,-7.5575,0.5874,-0.3758,-0.2279,0.0219,-0.0016,-0.0017,0.0129,898,2019-08-07 16:44:09:211
-5.6352,-7.5575,0.5874,-0.3758,-0.2279,0.0219,-0.0016,-0.0017,0.0129,902,2019-08-07 16:44:09:215
-5.6783,-7.5384,0.6345,-0.3758,-0.2279,0.0219,0.0027,0.0047,0.0161,908,2019-08-07 16:44:09:221
-5.6783,-7.5384,0.6345,-0.2483,-0.2553,0.0313,0.0027,0.0047,0.0161,913,2019-08-07 16:44:09:226
-5.6783,-7.5384,0.6345,-0.2483,-0.2553,0.0313,6.0E-4,4.0E-4,0.014,918,2019-08-07 16:44:09:231
-5.6927,-7.5097,0.5402,-0.2483,-0.2553,0.0313,6.0E-4,4.0E-4,0.014,922,2019-08-07 16:44:09:235
-5.6927,-7.5097,0.5402,-0.2483,-0.2553,0.0313,-0.0037,0.01,0.0054,928,2019-08-07 16:44:09:241
-5.7932,-7.524,0.4978,-0.1591,-0.2779,0.0582,-0.0037,0.01,0.0054,933,2019-08-07 16:44:09:246
-5.7932,-7.524,0.4978,-0.1591,-0.2779,0.0582,-0.008,0.0132,0.0054,938,2019-08-07 16:44:09:251
-5.7932,-7.524,0.4978,-0.1591,-0.2779,0.0582,-0.008,0.0132,0.0054,944,2019-08-07 16:44:09:257
-5.7597,-7.5097,0.5355,-0.1591,-0.2779,0.0582,-0.0165,0.0196,0.0033,948,2019-08-07 16:44:09:261
-5.7597,-7.5097,0.5355,-0.1842,-0.2678,0.0772,-0.0165,0.0196,0.0033,953,2019-08-07 16:44:09:266
-5.7597,-7.5097,0.5355,-0.1842,-0.2678,0.0772,-0.0186,0.0217,1.0E-4,958,2019-08-07 16:44:09:271
-5.7358,-7.5336,0.5308,-0.1842,-0.2678,0.0772,-0.0186,0.0217,1.0E-4,963,2019-08-07 16:44:09:276
-5.7358,-7.5336,0.5308,-0.1842,-0.2678,0.0772,-0.0207,0.0122,0.0044,968,2019-08-07 16:44:09:281
-5.5636,-7.4477,0.4931,-0.3711,-0.3396,0.1187,-0.0207,0.0122,0.0044,973,2019-08-07 16:44:09:286
-5.5636,-7.4477,0.4931,-0.3711,-0.3396,0.1187,-0.0218,0.0122,0.014,978,2019-08-07 16:44:09:291
-5.4392,-7.5049,0.5685,-0.3711,-0.3396,0.1187,-0.0218,0.0122,0.014,983,2019-08-07 16:44:09:296
-5.4392,-7.5049,0.5685,-0.3711,-0.3396,0.1187,-0.0122,0.0132,0.0246,988,2019-08-07 16:44:09:301
-5.4392,-7.5049,0.5685,-0.5354,-0.248,0.0341,-0.0122,0.0132,0.0246,994,2019-08-07 16:44:09:307
-5.3244,-7.5049,0.5779,-0.5354,-0.248,0.0341,6.0E-4,0.0281,0.0406,997,2019-08-07 16:44:09:310
-5.3244,-7.5049,0.5779,-0.5354,-0.248,0.0341,6.0E-4,0.0281,0.0406,1002,2019-08-07 16:44:09:315
-5.3244,-7.5049,0.5779,-0.5354,-0.248,0.0341,0.0187,0.0494,0.0662,1008,2019-08-07 16:44:09:321
-5.267,-7.5813,0.4836,-0.6748,-0.2011,0.1206,0.0187,0.0494,0.0662,1012,2019-08-07 16:44:09:325
-5.267,-7.5813,0.4836,-0.6748,-0.2011,0.1206,0.0187,0.0494,0.0662,1018,2019-08-07 16:44:09:331
-5.267,-7.5813,0.4836,-0.6748,-0.2011,0.1206,0.0389,0.0707,0.0885,1022,2019-08-07 16:44:09:335
-5.2861,-7.4667,0.559,-0.6748,-0.2011,0.1206,0.0389,0.0707,0.0885,1028,2019-08-07 16:44:09:341
-5.2861,-7.4667,0.559,-0.7166,-0.3393,0.0948,0.0613,0.0803,0.1141,1033,2019-08-07 16:44:09:346
-5.2335,-7.3999,0.4695,-0.7166,-0.3393,0.0948,0.0613,0.0803,0.1141,1038,2019-08-07 16:44:09:351
-5.2335,-7.3999,0.4695,-0.7166,-0.3393,0.0948,0.0719,0.0931,0.1407,1044,2019-08-07 16:44:09:357
-5.1092,-7.3999,0.1536,-0.7166,-0.3393,0.0948,0.0719,0.0931,0.1407,1048,2019-08-07 16:44:09:361
-5.1092,-7.3999,0.1536,-0.9434,-0.3901,0.5589,0.0773,0.1219,0.1738,1053,2019-08-07 16:44:09:366
-5.1092,-7.3999,0.1536,-0.9434,-0.3901,0.5589,0.0773,0.1219,0.1738,1058,2019-08-07 16:44:09:371
-4.7073,-7.4095,-0.1905,-0.9434,-0.3901,0.5589,0.0773,0.1219,0.1738,1063,2019-08-07 16:44:09:376
-4.7073,-7.4095,-0.1905,-0.9434,-0.3901,0.5589,0.0964,0.1826,0.2068,1068,2019-08-07 16:44:09:381
-4.7073,-7.4095,-0.1905,-1.6406,-0.4558,1.0365,0.0964,0.1826,0.2068,1073,2019-08-07 16:44:09:386
-4.1954,-7.1755,-0.3555,-1.6406,-0.4558,1.0365,0.1934,0.3147,0.2771,1078,2019-08-07 16:44:09:391
-4.1954,-7.1755,-0.3555,-2.195,-1.0052,0.7368,0.1934,0.3147,0.2771,1083,2019-08-07 16:44:09:396
-4.1954,-7.1755,-0.3555,-2.195,-1.0052,0.7368,0.1934,0.3147,0.2771,1087,2019-08-07 16:44:09:400
-3.4874,-6.1921,0.0971,-2.195,-1.0052,0.7368,0.3436,0.3946,0.4326,1093,2019-08-07 16:44:09:406
-3.4874,-6.1921,0.0971,-2.195,-1.0052,0.7368,0.5236,0.4894,0.7,1098,2019-08-07 16:44:09:411
-1.8416,-5.1228,0.229,-4.6526,-2.8072,0.3541,0.5236,0.4894,0.7,1103,2019-08-07 16:44:09:416
-1.8416,-5.1228,0.229,-4.6526,-2.8072,0.3541,0.5236,0.4894,0.7,1108,2019-08-07 16:44:09:421
3.0E-4,-3.9389,0.7853,-4.6526,-2.8072,0.3541,0.6962,0.5895,1.0654,1113,2019-08-07 16:44:09:426
3.0E-4,-3.9389,0.7853,-4.6526,-2.8072,0.3541,0.6962,0.5895,1.0654,1118,2019-08-07 16:44:09:431
3.0E-4,-3.9389,0.7853,-7.4001,-4.4007,-0.1632,0.9859,0.3243,1.8452,1123,2019-08-07 16:44:09:436
1.2729,-2.8934,0.8748,-7.4001,-4.4007,-0.1632,0.9859,0.3243,1.8452,1127,2019-08-07 16:44:09:440
1.2729,-2.8934,0.8748,-7.4001,-4.4007,-0.1632,1.2277,0.0974,2.5536,1134,2019-08-07 16:44:09:447
1.2729,-2.8934,0.8748,-7.4001,-4.4007,-0.1632,1.2277,0.0974,2.5536,1138,2019-08-07 16:44:09:451
2.3398,-1.5854,1.6338,-7.4001,-4.4007,-0.1632,1.2277,0.0974,2.5536,1143,2019-08-07 16:44:09:456
2.3398,-1.5854,1.6338,-9.0782,-5.9461,-0.8227,1.4674,-0.2893,3.4484,1147,2019-08-07 16:44:09:460
3.6937,-0.01,1.1624,-9.0782,-5.9461,-0.8227,1.4674,-0.2893,3.4484,1153,2019-08-07 16:44:09:466
3.6937,-0.01,1.1624,-9.0782,-5.9461,-0.8227,1.6794,-1.1224,4.8002,1158,2019-08-07 16:44:09:471
3.6937,-0.01,1.1624,-13.2173,-8.128,1.2587,1.6794,-1.1224,4.8002,1164,2019-08-07 16:44:09:477
6.7843,1.7754,-0.3743,-13.2173,-8.128,1.2587,1.804,-1.8648,5.9933,1169,2019-08-07 16:44:09:482
6.7843,1.7754,-0.3743,-13.2173,-8.128,1.2587,1.804,-1.8648,5.9933,1174,2019-08-07 16:44:09:487
6.7843,1.7754,-0.3743,-13.2173,-8.128,1.2587,1.804,-1.8648,5.9933,1178,2019-08-07 16:44:09:491
11.4441,2.6729,-1.1191,-19.9838,-8.1851,3.1703,2.0363,-2.8119,7.458,1184,2019-08-07 16:44:09:497
11.4441,2.6729,-1.1191,-19.9838,-8.1851,3.1703,2.0363,-2.8119,7.458,1188,2019-08-07 16:44:09:501
11.4441,2.6729,-1.1191,-19.9838,-8.1851,3.1703,2.0363,-2.8119,7.458,1193,2019-08-07 16:44:09:506
13.7262,2.1812,-2.2222,-19.9838,-8.1851,3.1703,2.5135,-3.353,8.8961,1198,2019-08-07 16:44:09:511
13.7262,2.1812,-2.2222,-23.2365,-5.0177,6.1678,2.5135,-3.353,8.8961,1203,2019-08-07 16:44:09:516
14.4151,0.9782,-3.8908,-23.2365,-5.0177,6.1678,3.3284,-2.8641,10.5654,1208,2019-08-07 16:44:09:521
14.4151,0.9782,-3.8908,-23.2365,-5.0177,6.1678,3.3284,-2.8641,10.5654,1213,2019-08-07 16:44:09:526
10.7599,1.1643,-4.5932,-23.2365,-5.0177,6.1678,3.9271,-1.8425,11.4442,1219,2019-08-07 16:44:09:532
10.7599,1.1643,-4.5932,-23.2365,-5.0177,6.1678,3.9271,-1.8425,11.4442,1223,2019-08-07 16:44:09:536
10.7599,1.1643,-4.5932,-17.6617,-3.3546,6.8782,4.5205,-0.8667,12.0717,1228,2019-08-07 16:44:09:541
5.2963,2.5249,3.2647,-17.6617,-3.3546,6.8782,4.5205,-0.8667,12.0717,1233,2019-08-07 16:44:09:546
5.2963,2.5249,3.2647,-17.6617,-3.3546,6.8782,4.9274,-2.1312,12.6523,1238,2019-08-07 16:44:09:551
5.2963,2.5249,3.2647,-17.6617,-3.3546,6.8782,4.9274,-2.1312,12.6523,1242,2019-08-07 16:44:09:555
-1.727,3.7995,1.2331,-7.3455,-2.8709,2.3816,5.6614,-3.8995,13.1497,1248,2019-08-07 16:44:09:561
-1.727,3.7995,1.2331,-7.3455,-2.8709,2.3816,5.6614,-3.8995,13.1497,1253,2019-08-07 16:44:09:566
-1.727,3.7995,1.2331,-7.3455,-2.8709,2.3816,5.6614,-3.8995,13.1497,1258,2019-08-07 16:44:09:571
-5.2769,8.0721,-3.3771,-7.3455,-2.8709,2.3816,6.7607,-3.6151,13.1987,1262,2019-08-07 16:44:09:575
-5.2769,8.0721,-3.3771,-2.1588,-8.5243,6.9929,6.7607,-3.6151,13.1987,1268,2019-08-07 16:44:09:581
-5.2769,8.0721,-3.3771,-2.1588,-8.5243,6.9929,8.0092,-2.5839,12.5628,1273,2019-08-07 16:44:09:586
-5.1669,23.9021,7.4176,-2.1588,-8.5243,6.9929,8.0092,-2.5839,12.5628,1277,2019-08-07 16:44:09:590
-5.1669,23.9021,7.4176,-2.1588,-8.5243,6.9929,9.1352,-3.4255,11.8778,1283,2019-08-07 16:44:09:596
-5.1669,23.9021,7.4176,-3.1813,-27.3346,-3.1802,9.1352,-3.4255,11.8778,1288,2019-08-07 16:44:09:601
-3.856,39.9135,3.0856,-3.1813,-27.3346,-3.1802,9.1352,-3.4255,11.8778,1293,2019-08-07 16:44:09:606
-3.856,39.9135,3.0856,-3.1813,-27.3346,-3.1802,10.0268,-3.1954,10.1595,1298,2019-08-07 16:44:09:611
-18.3475,53.3374,-7.0161,-3.1813,-27.3346,-3.1802,10.0268,-3.1954,10.1595,1303,2019-08-07 16:44:09:616
-18.3475,53.3374,-7.0161,18.5298,-45.3606,10.3672,9.1725,-0.1711,7.3068,1308,2019-08-07 16:44:09:621
-18.3475,53.3374,-7.0161,18.5298,-45.3606,10.3672,9.1725,-0.1711,7.3068,1313,2019-08-07 16:44:09:626
-38.2499,48.0862,-14.6902,33.833,-39.4832,16.3378,5.4835,0.2934,6.2766,1318,2019-08-07 16:44:09:631
-38.2499,48.0862,-14.6902,33.833,-39.4832,16.3378,5.4835,0.2934,6.2766,1323,2019-08-07 16:44:09:636
-38.2499,48.0862,-14.6902,33.833,-39.4832,16.3378,0.2317,-2.4529,6.2969,1327,2019-08-07 16:44:09:640
-29.7675,34.3472,-11.9562,33.833,-39.4832,16.3378,0.2317,-2.4529,6.2969,1333,2019-08-07 16:44:09:646
-29.7675,34.3472,-11.9562,11.5555,-17.4564,10.2906,-4.5151,-8.0423,5.1102,1338,2019-08-07 16:44:09:651
-29.7675,34.3472,-11.9562,11.5555,-17.4564,10.2906,-4.5151,-8.0423,5.1102,1343,2019-08-07 16:44:09:656
-6.43,21.9209,-5.3852,11.5555,-17.4564,10.2906,-4.5151,-8.0423,5.1102,1348,2019-08-07 16:44:09:661
-6.43,21.9209,-5.3852,11.5555,-17.4564,10.2906,-5.8733,-8.5046,3.0137,1353,2019-08-07 16:44:09:666
16.697,9.2035,19.0795,-18.9107,-0.1072,-16.148,-5.8733,-8.5046,3.0137,1358,2019-08-07 16:44:09:671
16.697,9.2035,19.0795,-18.9107,-0.1072,-16.148,-2.5124,2.9406,-0.1543,1363,2019-08-07 16:44:09:676
16.697,9.2035,19.0795,-18.9107,-0.1072,-16.148,-2.5124,2.9406,-0.1543,1368,2019-08-07 16:44:09:681
-1.1243,7.695,22.1953,-18.9107,-0.1072,-16.148,3.9474,2.7808,-3.4844,1373,2019-08-07 16:44:09:686
-1.1243,7.695,22.1953,6.1947,-1.6112,-20.6965,3.9474,2.7808,-3.4844,1377,2019-08-07 16:44:09:690
-11.664,13.5954,3.0714,6.1947,-1.6112,-20.6965,4.4747,4.9752,-3.0615,1384,2019-08-07 16:44:09:697
-11.664,13.5954,3.0714,6.1947,-1.6112,-20.6965,4.4747,4.9752,-3.0615,1388,2019-08-07 16:44:09:701
-11.664,13.5954,3.0714,6.1947,-1.6112,-20.6965,4.4747,4.9752,-3.0615,1392,2019-08-07 16:44:09:705
-11.0947,20.1642,-4.4518,8.0373,-12.0704,5.2202,1.8168,5.2778,-2.9358,1398,2019-08-07 16:44:09:711
-11.0947,20.1642,-4.4518,8.0373,-12.0704,5.2202,1.8168,5.2778,-2.9358,1402,2019-08-07 16:44:09:715
-15.8359,20.8993,3.8256,8.0373,-12.0704,5.2202,-2.0927,3.7704,-3.7017,1408,2019-08-07 16:44:09:721
-15.8359,20.8993,3.8256,8.0373,-12.0704,5.2202,-2.0927,3.7704,-3.7017,1413,2019-08-07 16:44:09:726
-15.8359,20.8993,3.8256,14.5681,-7.5653,-10.7382,-4.2903,1.7943,-3.8071,1418,2019-08-07 16:44:09:731
-17.6204,13.6861,18.7542,14.5681,-7.5653,-10.7382,-4.2903,1.7943,-3.8071,1423,2019-08-07 16:44:09:736
-17.6204,13.6861,18.7542,14.5681,-7.5653,-10.7382,-4.9295,0.5682,-3.3949,1427,2019-08-07 16:44:09:740
-17.6204,13.6861,18.7542,14.5681,-7.5653,-10.7382,-4.9295,0.5682,-3.3949,1433,2019-08-07 16:44:09:746
-7.6836,8.0912,26.8007,1.9593,1.21,-18.722,-4.9295,0.5682,-3.3949,1437,2019-08-07 16:44:09:750
-7.6836,8.0912,26.8007,1.9593,1.21,-18.722,-1.3087,0.206,-3.7326,1443,2019-08-07 16:44:09:756
-5.7555,9.213,5.3576,0.4979,-1.3592,-2.7289,-1.543,0.6204,-4.311,1449,2019-08-07 16:44:09:762
-5.7555,9.213,5.3576,0.4979,-1.3592,-2.7289,-1.543,0.6204,-4.311,1453,2019-08-07 16:44:09:766
-5.7555,9.213,5.3576,0.4979,-1.3592,-2.7289,-1.543,0.6204,-4.311,1458,2019-08-07 16:44:09:771
-5.7555,9.213,5.3576,0.4979,-1.3592,-2.7289,-2.7968,1.5877,-5.1771,1462,2019-08-07 16:44:09:775
-6.4732,15.567,-0.2801,1.3209,-8.6075,3.9814,-2.7968,1.5877,-5.1771,1469,2019-08-07 16:44:09:782
-6.4732,15.567,-0.2801,1.3209,-8.6075,3.9814,-3.7438,2.8745,-5.747,1473,2019-08-07 16:44:09:786
-8.8749,14.1062,0.6343,1.3209,-8.6075,3.9814,-3.7438,2.8745,-5.747,1478,2019-08-07 16:44:09:791
-8.8749,14.1062,0.6343,2.8668,-6.4378,1.5712,-4.3617,3.8876,-6.1699,1482,2019-08-07 16:44:09:795
-11.645,8.855,4.5091,2.8668,-6.4378,1.5712,-4.3617,3.8876,-6.1699,1488,2019-08-07 16:44:09:801
-11.645,8.855,4.5091,2.8668,-6.4378,1.5712,-4.579,4.1155,-6.4735,1493,2019-08-07 16:44:09:806
-11.645,8.855,4.5091,2.8668,-6.4378,1.5712,-4.579,4.1155,-6.4735,1498,2019-08-07 16:44:09:811
-14.927,6.406,10.0761,6.6739,-1.1592,-6.4447,-4.2264,3.6884,-6.629,1503,2019-08-07 16:44:09:816
-14.927,6.406,10.0761,6.6739,-1.1592,-6.4447,-4.2264,3.6884,-6.629,1508,2019-08-07 16:44:09:821
-14.927,6.406,10.0761,8.3157,-0.8223,-7.592,-3.6256,3.1653,-6.5715,1513,2019-08-07 16:44:09:826
-16.3958,5.4131,10.2034,8.3157,-0.8223,-7.592,-3.6256,3.1653,-6.5715,1518,2019-08-07 16:44:09:831
-16.3958,5.4131,10.2034,8.3157,-0.8223,-7.592,-3.6256,3.1653,-6.5715,1522,2019-08-07 16:44:09:835
-15.0131,5.2078,7.1865,8.3157,-0.8223,-7.592,-3.0376,1.1413,-6.2295,1528,2019-08-07 16:44:09:841
-15.0131,5.2078,7.1865,5.869,-1.6318,-3.8227,-3.2325,-0.5088,-5.9792,1533,2019-08-07 16:44:09:846
-15.0131,5.2078,7.1865,5.869,-1.6318,-3.8227,-3.2325,-0.5088,-5.9792,1538,2019-08-07 16:44:09:851
-11.5255,5.3844,4.099,5.869,-1.6318,-3.8227,-3.2325,-0.5088,-5.9792,1543,2019-08-07 16:44:09:856
-11.5255,5.3844,4.099,5.869,-3.0414,-0.1794,-3.534,-1.7796,-5.7576,1548,2019-08-07 16:44:09:861
-11.5255,5.3844,4.099,0.5572,-3.0414,-0.1794,-3.534,-1.7796,-5.7576,1553,2019-08-07 16:44:09:866
-8.1765,5.3081,3.2552,0.5572,-3.0414,-0.1794,-3.6203,-2.1056,-5.6426,1557,2019-08-07 16:44:09:870
-8.1765,5.3081,3.2552,-2.3425,-3.3408,-0.3332,-3.6203,-2.1056,-5.6426,1563,2019-08-07 16:44:09:876
-5.6169,4.5347,3.7171,-2.3425,-3.3408,-0.3332,-3.2368,-1.7232,-5.6713,1568,2019-08-07 16:44:09:881
-5.6169,4.5347,3.7171,-2.3425,-3.3408,-0.3332,-3.2368,-1.7232,-5.6713,1573,2019-08-07 16:44:09:886
-4.9711,3.6325,0.4505,-2.3425,-3.3408,-0.3332,-3.0067,-1.3993,-5.6682,1578,2019-08-07 16:44:09:891
-4.9711,3.6325,0.4505,-4.2394,-2.9039,3.7889,-3.0067,-1.3993,-5.6682,1584,2019-08-07 16:44:09:897
-4.9711,3.6325,0.4505,-4.2394,-2.9039,3.7889,-3.0067,-1.3993,-5.6682,1587,2019-08-07 16:44:09:900
-3.4162,1.6561,-0.3462,-4.2394,-2.9039,3.7889,-3.1569,-0.708,-5.584,1593,2019-08-07 16:44:09:906
-3.4162,1.6561,-0.3462,-4.2394,-2.9039,3.7889,-3.1569,-0.708,-5.584,1599,2019-08-07 16:44:09:912
-3.4162,1.6561,-0.3462,-5.9697,-1.5158,3.1206,-3.1207,-0.0837,-5.6213,1604,2019-08-07 16:44:09:917
-3.1483,0.329,1.4498,-5.9697,-1.5158,3.1206,-3.1207,-0.0837,-5.6213,1608,2019-08-07 16:44:09:921
-3.1483,0.329,1.4498,-5.9697,-1.5158,3.1206,-2.75,0.4894,-5.6809,1613,2019-08-07 16:44:09:926
-4.2248,-0.3775,1.5111,-5.9697,-1.5158,3.1206,-2.75,0.4894,-5.6809,1618,2019-08-07 16:44:09:931
-4.2248,-0.3775,1.5111,-4.5108,-1.4699,2.0399,-2.3931,0.8825,-5.5946,1622,2019-08-07 16:44:09:935
-4.2248,-0.3775,1.5111,-4.5108,-1.4699,2.0399,-2.3931,0.8825,-5.5946,1627,2019-08-07 16:44:09:940
-4.6937,-0.8502,0.4882,-4.5108,-1.4699,2.0399,-2.1055,1.1552,-5.4881,1633,2019-08-07 16:44:09:946
-4.6937,-0.8502,0.4882,-4.5108,-1.4699,2.0399,-2.1055,1.1552,-5.4881,1638,2019-08-07 16:44:09:951
-4.6937,-0.8502,0.4882,-4.4301,-2.254,2.5238,-1.788,1.5355,-5.4572,1642,2019-08-07 16:44:09:955
-4.2153,-0.9456,0.7239,-4.4301,-2.254,2.5238,-1.788,1.5355,-5.4572,1648,2019-08-07 16:44:09:961
-4.2153,-0.9456,0.7239,-4.4301,-2.254,2.5238,-1.5377,1.6484,-5.4508,1653,2019-08-07 16:44:09:966
-4.2153,-0.9456,0.7239,-4.4301,-2.254,2.5238,-1.5377,1.6484,-5.4508,1658,2019-08-07 16:44:09:971
-4.4354,-1.0841,0.1818,-3.9342,-2.9486,2.9864,-1.3949,1.6942,-5.4189,1663,2019-08-07 16:44:09:976
-4.4354,-1.0841,0.1818,-3.9342,-2.9486,2.9864,-1.3949,1.6942,-5.4189,1668,2019-08-07 16:44:09:981
-4.5646,-1.7381,-0.3226,-3.9342,-2.9486,2.9864,-1.1861,1.8231,-5.3219,1673,2019-08-07 16:44:09:986
-4.5646,-1.7381,-0.3226,-3.9342,-2.9486,2.9864,-1.1861,1.8231,-5.3219,1678,2019-08-07 16:44:09:991
-4.5646,-1.7381,-0.3226,-3.3516,-3.2255,2.3954,-1.0594,1.8263,-5.2122,1683,2019-08-07 16:44:09:996
-4.5741,-2.1295,0.408,-3.3516,-3.2255,2.3954,-1.0594,1.8263,-5.2122,1688,2019-08-07 16:44:10:001
-4.5741,-2.1295,0.408,-3.3516,-3.2255,2.3954,-1.0594,1.8263,-5.2122,1693,2019-08-07 16:44:10:006
-4.5167,-2.4207,0.6956,-3.2232,-3.228,1.7086,-0.9539,1.5962,-5.0183,1699,2019-08-07 16:44:10:012
-4.5167,-2.4207,0.6956,-3.2232,-3.228,1.7086,-0.9539,1.5962,-5.0183,1703,2019-08-07 16:44:10:016
-4.5167,-2.4207,0.6956,-3.2232,-3.228,1.7086,-0.8208,1.1957,-4.6668,1708,2019-08-07 16:44:10:021
-4.3876,-2.6355,1.2188,-2.8567,-3.6217,0.7795,-0.8208,1.1957,-4.6668,1713,2019-08-07 16:44:10:026
-4.3876,-2.6355,1.2188,-2.8567,-3.6217,0.7795,-0.7121,0.858,-4.3419,1719,2019-08-07 16:44:10:032
-4.2728,-2.6069,1.4686,-2.8567,-3.6217,0.7795,-0.7121,0.858,-4.3419,1723,2019-08-07 16:44:10:036
-4.2728,-2.6069,1.4686,-2.8567,-3.6217,0.7795,-0.6311,0.385,-3.919,1728,2019-08-07 16:44:10:041
-4.2728,-2.6069,1.4686,-2.3972,-4.4133,0.4093,-0.6311,0.385,-3.919,1734,2019-08-07 16:44:10:047
-4.335,-2.4064,1.5252,-2.3972,-4.4133,0.4093,-0.6248,-0.0102,-3.5536,1738,2019-08-07 16:44:10:051
-4.335,-2.4064,1.5252,-2.2841,-4.8199,0.2776,-0.6248,-0.0102,-3.5536,1743,2019-08-07 16:44:10:056
-3.9475,-2.3396,1.3649,-2.2841,-4.8199,0.2776,-0.6397,-0.3681,-3.1563,1748,2019-08-07 16:44:10:061
-3.9475,-2.3396,1.3649,-2.2841,-4.8199,0.2776,-0.6397,-0.3681,-3.1563,1753,2019-08-07 16:44:10:066
-3.9475,-2.3396,1.3649,-2.2841,-4.8199,0.2776,-0.6397,-0.3681,-3.1563,1758,2019-08-07 16:44:10:071
-2.7132,-2.8647,0.21,-3.3237,-4.6587,1.5763,-0.6972,-0.6249,-2.7248,1762,2019-08-07 16:44:10:075
-2.7132,-2.8647,0.21,-3.3237,-4.6587,1.5763,-0.6972,-0.6249,-2.7248,1768,2019-08-07 16:44:10:081
-2.7132,-2.8647,0.21,-3.3237,-4.6587,1.5763,-0.7696,-0.6377,-2.4628,1773,2019-08-07 16:44:10:086
-1.8855,-3.7144,-1.0439,-3.3237,-4.6587,1.5763,-0.7696,-0.6377,-2.4628,1779,2019-08-07 16:44:10:092
-1.8855,-3.7144,-1.0439,-3.9646,-3.6532,2.8707,-0.8069,-0.4651,-2.2465,1783,2019-08-07 16:44:10:096
-1.5411,-4.3589,-1.2183,-3.9646,-3.6532,2.8707,-0.8069,-0.4651,-2.2465,1788,2019-08-07 16:44:10:101
-1.5411,-4.3589,-1.2183,-3.9646,-3.6532,2.8707,-0.8069,-0.4651,-2.2465,1793,2019-08-07 16:44:10:106
-1.5411,-4.3589,-1.2183,-4.0416,-3.2014,3.0384,-0.7451,-0.0763,-1.9536,1798,2019-08-07 16:44:10:111
-1.3975,-5.0845,-1.4917,-4.0416,-3.2014,3.0384,-0.7451,-0.0763,-1.9536,1803,2019-08-07 16:44:10:116
-1.3975,-5.0845,-1.4917,-4.0416,-3.2014,3.0384,-0.6194,0.4244,-1.618,1808,2019-08-07 16:44:10:121
-1.9143,-5.7146,-0.9732,-4.0416,-3.2014,3.0384,-0.6194,0.4244,-1.618,1813,2019-08-07 16:44:10:126
-1.9143,-5.7146,-0.9732,-3.192,-2.3775,2.3975,-0.5321,0.6662,-1.4039,1818,2019-08-07 16:44:10:131
-1.9143,-5.7146,-0.9732,-3.192,-2.3775,2.3975,-0.5321,0.6662,-1.4039,1823,2019-08-07 16:44:10:136
-2.7276,-6.5501,0.2666,-3.192,-2.3775,2.3975,-0.3808,0.9485,-1.0673,1828,2019-08-07 16:44:10:141
-2.7276,-6.5501,0.2666,-1.6421,-1.5721,0.3606,-0.3808,0.9485,-1.0673,1833,2019-08-07 16:44:10:146
-3.8041,-6.8079,1.3979,-1.6421,-1.5721,0.3606,-0.2615,0.9975,-0.834,1838,2019-08-07 16:44:10:151
-3.8041,-6.8079,1.3979,-1.6421,-1.5721,0.3606,-0.2615,0.9975,-0.834,1843,2019-08-07 16:44:10:156
-3.8041,-6.8079,1.3979,-0.6669,-1.5826,-0.4429,-0.156,0.8665,-0.6401,1848,2019-08-07 16:44:10:161
-4.7514,-6.7649,1.841,-0.6669,-1.5826,-0.4429,-0.156,0.8665,-0.6401,1853,2019-08-07 16:44:10:166
-4.7514,-6.7649,1.841,-0.6669,-1.5826,-0.4429,-0.156,0.8665,-0.6401,1858,2019-08-07 16:44:10:171
-4.7514,-6.7649,1.841,-0.6669,-1.5826,-0.4429,-0.0857,0.5043,-0.4579,1863,2019-08-07 16:44:10:176
-4.9284,-6.9749,1.8221,0.0787,-1.473,-0.6605,-0.0857,0.5043,-0.4579,1869,2019-08-07 16:44:10:182
-4.9284,-6.9749,1.8221,0.0787,-1.473,-0.6605,-0.0687,0.1102,-0.3706,1872,2019-08-07 16:44:10:185
-4.3017,-7.4666,1.2706,0.0787,-1.473,-0.6605,-0.0687,0.1102,-0.3706,1878,2019-08-07 16:44:10:191
-4.3017,-7.4666,1.2706,0.0787,-1.473,-0.6605,-0.0655,-0.0219,-0.3472,1883,2019-08-07 16:44:10:196
-3.785,-7.882,0.9076,-0.8325,-0.7411,0.1641,-0.0655,-0.0219,-0.3472,1888,2019-08-07 16:44:10:201
-3.785,-7.882,0.9076,-0.8325,-0.7411,0.1641,-0.0175,0.0217,-0.2737,1893,2019-08-07 16:44:10:206
-3.785,-7.882,0.9076,-0.8325,-0.7411,0.1641,-0.0175,0.0217,-0.2737,1898,2019-08-07 16:44:10:211
-3.3257,-8.2448,1.1197,-1.4185,-0.2308,0.0022,-0.0175,0.0217,-0.2737,1902,2019-08-07 16:44:10:215
-3.3257,-8.2448,1.1197,-1.4185,-0.2308,0.0022,0.0922,0.287,-0.1448,1908,2019-08-07 16:44:10:221
-3.3257,-8.2448,1.1197,-1.4185,-0.2308,0.0022,0.0922,0.287,-0.1448,1914,2019-08-07 16:44:10:227
-3.5171,-8.2257,1.4921,-1.2104,-0.2953,-0.3607,0.0922,0.287,-0.1448,1917,2019-08-07 16:44:10:230
-3.5171,-8.2257,1.4921,-1.2104,-0.2953,-0.3607,0.1518,0.4766,-0.0169,1923,2019-08-07 16:44:10:236
-3.9094,-8.0872,1.6901,-0.8179,-0.4347,-0.5652,0.1518,0.4766,-0.0169,1928,2019-08-07 16:44:10:241
-3.9094,-8.0872,1.6901,-0.8179,-0.4347,-0.5652,0.1518,0.5363,0.08,1933,2019-08-07 16:44:10:246
-3.9094,-8.0872,1.6901,-0.8179,-0.4347,-0.5652,0.1518,0.5363,0.08,1938,2019-08-07 16:44:10:251
-4.9859,-7.8247,2.317,-0.8179,-0.4347,-0.5652,0.1518,0.5363,0.08,1943,2019-08-07 16:44:10:256
-4.9859,-7.8247,2.317,0.4511,-0.7433,-1.4336,0.1188,0.417,0.1929,1947,2019-08-07 16:44:10:260
-5.5313,-7.7244,2.5999,0.4511,-0.7433,-1.4336,0.1188,0.417,0.1929,1953,2019-08-07 16:44:10:266
-5.5313,-7.7244,2.5999,0.4511,-0.7433,-1.4336,0.0837,0.1112,0.2877,1958,2019-08-07 16:44:10:271
-5.5313,-7.7244,2.5999,0.4511,-0.7433,-1.4336,0.0837,0.1112,0.2877,1964,2019-08-07 16:44:10:277
-5.3448,-8.0347,2.1049,0.5286,-0.4379,-0.9839,0.0421,-0.1231,0.3186,1968,2019-08-07 16:44:10:281
-5.3448,-8.0347,2.1049,0.5286,-0.4379,-0.9839,0.0421,-0.1231,0.3186,1972,2019-08-07 16:44:10:285
-5.3448,-8.0347,2.1049,0.5286,-0.4379,-0.9839,-0.0026,-0.2787,0.2888,1978,2019-08-07 16:44:10:291
-4.8089,-8.197,1.5345,0.5286,-0.4379,-0.9839,-0.0026,-0.2787,0.2888,1983,2019-08-07 16:44:10:296
-4.8089,-8.197,1.5345,-0.4729,-0.0981,0.011,-0.0207,-0.2392,0.2174,1988,2019-08-07 16:44:10:301
-4.1918,-8.3259,0.9265,-0.4729,-0.0981,0.011,-0.0207,-0.2392,0.2174,1993,2019-08-07 16:44:10:306
-4.1918,-8.3259,0.9265,-0.4729,-0.0981,0.011,-0.0207,-0.2392,0.2174,1998,2019-08-07 16:44:10:311
-3.8378,-8.345,0.5823,-0.4729,-0.0981,0.011,-0.0186,-0.0251,0.1535,2003,2019-08-07 16:44:10:316
-3.8378,-8.345,0.5823,-1.0988,-0.0939,0.6416,-0.0186,-0.0251,0.1535,2008,2019-08-07 16:44:10:321
-3.8378,-8.345,0.5823,-1.0988,-0.0939,0.6416,-0.0144,0.2806,0.1024,2013,2019-08-07 16:44:10:326
-3.7612,-8.2495,0.6248,-1.0988,-0.0939,0.6416,-0.0144,0.2806,0.1024,2019,2019-08-07 16:44:10:332
-3.7612,-8.2495,0.6248,-1.0988,-0.0939,0.6416,-0.0229,0.6833,0.064,2024,2019-08-07 16:44:10:337
-3.9957,-8.2543,0.7803,-0.9071,-0.171,0.3216,-0.0229,0.6833,0.064,2028,2019-08-07 16:44:10:341
-3.9957,-8.2543,0.7803,-0.9071,-0.171,0.3216,-0.0303,0.8345,0.0651,2034,2019-08-07 16:44:10:347
-4.5507,-8.1779,1.1621,-0.9071,-0.171,0.3216,-0.0303,0.8345,0.0651,2038,2019-08-07 16:44:10:351
-4.5507,-8.1779,1.1621,-0.9071,-0.171,0.3216,-0.0303,0.8345,0.0651,2042,2019-08-07 16:44:10:355
-4.5507,-8.1779,1.1621,0.1326,-0.2948,-0.4719,-0.0357,0.8399,0.0853,2048,2019-08-07 16:44:10:361
-5.3305,-8.1397,1.5722,0.1326,-0.2948,-0.4719,-0.0357,0.8399,0.0853,2053,2019-08-07 16:44:10:366
-5.3305,-8.1397,1.5722,0.1326,-0.2948,-0.4719,-0.0357,0.8399,0.0853,2058,2019-08-07 16:44:10:371
-5.3305,-8.1397,1.5722,0.1326,-0.2948,-0.4719,-0.0431,0.6353,0.1205,2063,2019-08-07 16:44:10:376
-5.9908,-7.9965,1.8881,1.1091,-0.4719,-0.9108,-0.0431,0.6353,0.1205,2067,2019-08-07 16:44:10:380
-5.9908,-7.9965,1.8881,1.1091,-0.4719,-0.9108,-0.0719,0.2678,0.1429,2073,2019-08-07 16:44:10:386
-6.2395,-7.8485,1.6476,1.2526,-0.5484,-0.7216,-0.0719,0.2678,0.1429,2078,2019-08-07 16:44:10:391
-6.2395,-7.8485,1.6476,1.2526,-0.5484,-0.7216,-0.1113,-0.0486,0.1482,2083,2019-08-07 16:44:10:396
-6.2395,-8.0108,1.2187,1.2526,-0.5484,-0.7216,-0.1113,-0.0486,0.1482,2088,2019-08-07 16:44:10:401
-5.8568,-8.0108,1.2187,1.2526,-0.5484,-0.7216,-0.1411,-0.3064,0.1333,2093,2019-08-07 16:44:10:406
-5.8568,-8.0108,1.2187,0.3683,-0.2219,8.0E-4,-0.1411,-0.3064,0.1333,2098,2019-08-07 16:44:10:411
-5.034,-8.2543,0.719,0.3683,-0.2219,8.0E-4,-0.1411,-0.3064,0.1333,2103,2019-08-07 16:44:10:416
-5.034,-8.2543,0.719,0.3683,-0.2219,8.0E-4,-0.1475,-0.4139,0.0811,2109,2019-08-07 16:44:10:422
-5.034,-8.2543,0.719,0.3683,-0.2219,8.0E-4,-0.1475,-0.4139,0.0811,2113,2019-08-07 16:44:10:426
-4.3833,-8.302,0.3419,-0.7128,-0.0603,0.6861,-0.1283,-0.3042,0.0395,2118,2019-08-07 16:44:10:431
-4.3833,-8.302,0.3419,-0.7128,-0.0603,0.6861,-0.1283,-0.3042,0.0395,2122,2019-08-07 16:44:10:435
-4.1489,-8.3211,0.1298,-0.7128,-0.0603,0.6861,-0.1081,-0.0869,0.0033,2128,2019-08-07 16:44:10:441
-4.1489,-8.3211,0.1298,-0.7128,-0.0603,0.6861,-0.1081,-0.0869,0.0033,2134,2019-08-07 16:44:10:447
-4.1489,-8.3211,0.1298,-0.8894,-0.1131,0.6169,-0.0942,0.1656,-0.0169,2138,2019-08-07 16:44:10:451
-4.2159,-8.2638,0.2759,-0.8894,-0.1131,0.6169,-0.0942,0.1656,-0.0169,2143,2019-08-07 16:44:10:456
-4.2159,-8.2638,0.2759,-0.8894,-0.1131,0.6169,-0.0889,0.3062,-0.018,2148,2019-08-07 16:44:10:461
-4.3403,-8.2065,0.6059,-0.8894,-0.1131,0.6169,-0.0889,0.3062,-0.018,2153,2019-08-07 16:44:10:466
-4.3403,-8.2065,0.6059,-0.8894,-0.1131,0.6169,-0.0889,0.3062,-0.018,2158,2019-08-07 16:44:10:471
-4.3403,-8.2065,0.6059,-0.6008,-0.2287,0.2404,-0.074,0.3807,-0.0116,2162,2019-08-07 16:44:10:475
-4.5939,-8.0824,0.8368,-0.6008,-0.2287,0.2404,-0.074,0.3807,-0.0116,2169,2019-08-07 16:44:10:482
-4.5939,-8.0824,0.8368,-0.6008,-0.2287,0.2404,-0.0655,0.3871,0.0214,2173,2019-08-07 16:44:10:486
-4.7784,-8.0731,0.941,-0.1937,-0.3202,-0.1227,-0.0655,0.3871,0.0214,2178,2019-08-07 16:44:10:491
-4.7784,-8.0731,0.941,-0.1937,-0.3202,-0.1227,-0.0698,0.32,0.0406,2184,2019-08-07 16:44:10:497
-4.7784,-8.0731,0.941,-0.1937,-0.3202,-0.1227,-0.0698,0.32,0.0406,2188,2019-08-07 16:44:10:501
-4.9889,-8.0397,0.9834,-0.1937,-0.3202,-0.1227,-0.074,0.2167,0.064,2193,2019-08-07 16:44:10:506
-4.9889,-8.0397,0.9834,0.0506,-0.4014,-0.2181,-0.074,0.2167,0.064,2198,2019-08-07 16:44:10:511
-5.1276,-8.0301,0.8986,0.0506,-0.4014,-0.2181,-0.0804,0.1091,0.0811,2203,2019-08-07 16:44:10:516
-5.1276,-8.0301,0.8986,0.0506,-0.4014,-0.2181,-0.0804,0.1091,0.0811,2208,2019-08-07 16:44:10:521
-5.1276,-8.0301,0.8986,0.0757,-0.3641,-0.0563,-0.09,0.0335,0.0917,2213,2019-08-07 16:44:10:526
-5.1324,-8.011,0.809,0.0757,-0.3641,-0.0563,-0.09,0.0335,0.0917,2218,2019-08-07 16:44:10:531
-5.1324,-8.011,0.809,0.0757,-0.3641,-0.0563,-0.1006,-0.04,0.0971,2223,2019-08-07 16:44:10:536
-5.1324,-8.011,0.809,0.0757,-0.3641,-0.0563,-0.1006,-0.04,0.0971,2228,2019-08-07 16:44:10:541
-4.898,-8.0158,0.6582,-0.1614,-0.3552,0.0932,-0.107,-0.0443,0.0917,2234,2019-08-07 16:44:10:547
-4.898,-8.0158,0.6582,-0.1614,-0.3552,0.0932,-0.107,-0.0443,0.0917,2238,2019-08-07 16:44:10:551
-4.5727,-8.0444,0.4508,-0.1614,-0.3552,0.0932,-0.107,-0.0443,0.0917,2243,2019-08-07 16:44:10:556
-4.5727,-8.0444,0.4508,-0.6058,-0.2769,0.2634,-0.1156,0.0058,0.0928,2248,2019-08-07 16:44:10:561
-4.5727,-8.0444,0.4508,-0.6058,-0.2769,0.2634,-0.1156,0.0058,0.0928,2253,2019-08-07 16:44:10:566
-4.4148,-8.0922,0.3706,-0.6058,-0.2769,0.2634,-0.1241,0.107,0.0917,2258,2019-08-07 16:44:10:571
-4.4148,-8.0922,0.3706,-0.6058,-0.2769,0.2634,-0.1241,0.107,0.0917,2263,2019-08-07 16:44:10:576
-4.4148,-8.0922,0.3706,-0.6058,-0.2769,0.2634,-0.1166,0.1869,0.1045,2268,2019-08-07 16:44:10:581
-4.52,-8.1065,0.3706,-0.5684,-0.2515,0.3277,-0.1166,0.1869,0.1045,2273,2019-08-07 16:44:10:586
-4.52,-8.1065,0.3706,-0.5684,-0.2515,0.3277,-0.1166,0.1869,0.1045,2278,2019-08-07 16:44:10:591
-4.764,-8.054,0.4837,-0.5684,-0.2515,0.3277,-0.1102,0.2614,0.1141,2283,2019-08-07 16:44:10:596
-4.764,-8.054,0.4837,-0.5684,-0.2515,0.3277,-0.1102,0.2614,0.1141,2287,2019-08-07 16:44:10:600
-4.764,-8.054,0.4837,-0.1593,-0.3328,0.0511,-0.0975,0.2667,0.1269,2293,2019-08-07 16:44:10:606
-5.0798,-8.0922,0.6299,-0.1593,-0.3328,0.0511,-0.0975,0.2667,0.1269,2299,2019-08-07 16:44:10:612
-5.0798,-8.0922,0.6299,-0.1593,-0.3328,0.0511,-0.0975,0.2667,0.1269,2303,2019-08-07 16:44:10:616
-5.0798,-8.0922,0.6299,-0.1593,-0.3328,0.0511,-0.1017,0.2231,0.1386,2308,2019-08-07 16:44:10:621
-5.3621,-7.9442,0.71,0.2246,-0.3907,-0.0996,-0.1017,0.2231,0.1386,2313,2019-08-07 16:44:10:626
-5.3621,-7.9442,0.71,0.2246,-0.3907,-0.0996,-0.1081,0.1432,0.1439,2318,2019-08-07 16:44:10:631
-5.429,-7.9633,0.644,0.2246,-0.3907,-0.0996,-0.1081,0.1432,0.1439,2322,2019-08-07 16:44:10:635
-5.429,-7.9633,0.644,0.2246,-0.3907,-0.0996,-0.1177,0.0697,0.1461,2328,2019-08-07 16:44:10:641
-5.429,-7.9633,0.644,0.2058,-0.2512,0.0064,-0.1177,0.0697,0.1461,2334,2019-08-07 16:44:10:647
-5.2903,-8.1304,0.5026,0.2058,-0.2512,0.0064,-0.123,0.0122,0.1322,2338,2019-08-07 16:44:10:651
-5.2903,-8.1304,0.5026,0.2058,-0.2512,0.0064,-0.123,0.0122,0.1322,2343,2019-08-07 16:44:10:656
-5.0989,-8.1304,0.3659,0.2058,-0.2512,0.0064,-0.1241,0.0111,0.1216,2347,2019-08-07 16:44:10:660
-5.0989,-8.1304,0.3659,-0.1566,-0.1576,0.2275,-0.1241,0.0111,0.1216,2353,2019-08-07 16:44:10:666
-5.0989,-8.1304,0.3659,-0.1566,-0.1576,0.2275,-0.1241,0.0111,0.1216,2358,2019-08-07 16:44:10:671
-4.9028,-8.2211,0.1962,-0.1566,-0.1576,0.2275,-0.106,0.0782,0.0949,2362,2019-08-07 16:44:10:675
-4.9028,-8.2211,0.1962,-0.1566,-0.1576,0.2275,-0.106,0.0782,0.0949,2368,2019-08-07 16:44:10:681
-4.7449,-8.2974,0.2339,-0.4167,-0.0347,0.3639,-0.0868,0.1773,0.0875,2373,2019-08-07 16:44:10:686
-4.7449,-8.2974,0.2339,-0.4167,-0.0347,0.3639,-0.0868,0.1773,0.0875,2378,2019-08-07 16:44:10:691
-4.7449,-8.2974,0.2339,-0.4167,-0.0347,0.3639,-0.0868,0.1773,0.0875,2384,2019-08-07 16:44:10:697
-4.8693,-8.3022,0.3565,-0.4167,-0.0347,0.3639,-0.0559,0.2721,0.0885,2388,2019-08-07 16:44:10:701
-4.8693,-8.3022,0.3565,-0.2692,-0.0323,0.143,-0.0559,0.2721,0.0885,2394,2019-08-07 16:44:10:707
-4.8693,-8.3022,0.3565,-0.2692,-0.0323,0.143,-0.0335,0.2944,0.0939,2397,2019-08-07 16:44:10:710
-5.2281,-8.159,0.4979,-0.2692,-0.0323,0.143,-0.0335,0.2944,0.0939,2403,2019-08-07 16:44:10:716
-5.2281,-8.159,0.4979,-0.2692,-0.0323,0.143,-0.0154,0.2582,0.112,2408,2019-08-07 16:44:10:721
-5.5343,-8.0874,0.7147,0.2939,-0.193,-0.2577,-0.0154,0.2582,0.112,2414,2019-08-07 16:44:10:727
-5.5343,-8.0874,0.7147,0.2939,-0.193,-0.2577,-0.0122,0.1528,0.1216,2419,2019-08-07 16:44:10:732
-5.5343,-8.0874,0.7147,0.2939,-0.193,-0.2577,-0.0122,0.1528,0.1216,2422,2019-08-07 16:44:10:735
-5.6395,-8.0062,0.7006,0.2939,-0.193,-0.2577,-0.0122,0.1528,0.1216,2428,2019-08-07 16:44:10:741
-5.6395,-8.0062,0.7006,0.346,-0.2354,-0.2635,-0.0208,-0.0305,0.1258,2434,2019-08-07 16:44:10:747
-5.6395,-8.0062,0.7006,0.346,-0.2354,-0.2635,-0.0208,-0.0305,0.1258,2438,2019-08-07 16:44:10:751
-5.4864,-8.054,0.5922,0.346,-0.2354,-0.2635,-0.0314,-0.153,0.1162,2443,2019-08-07 16:44:10:756
-5.4864,-8.054,0.5922,0.346,-0.2354,-0.2635,-0.0303,-0.2052,0.112,2448,2019-08-07 16:44:10:761
-5.0798,-8.0397,0.4036,-0.2046,-0.2126,0.0553,-0.0303,-0.2052,0.112,2453,2019-08-07 16:44:10:766
-5.0798,-8.0397,0.4036,-0.2046,-0.2126,0.0553,-0.0303,-0.2052,0.112,2458,2019-08-07 16:44:10:771
-4.831,-8.1304,0.1161,-0.2046,-0.2126,0.0553,-0.0165,-0.1902,0.1098,2463,2019-08-07 16:44:10:776
-4.831,-8.1304,0.1161,-0.2046,-0.2126,0.0553,-0.0165,-0.1902,0.1098,2468,2019-08-07 16:44:10:781
-4.831,-8.1304,0.1161,-0.5058,-0.0835,0.3939,0.0048,-0.0784,0.0971,2473,2019-08-07 16:44:10:786
-4.7736,-8.1304,0.0407,-0.5058,-0.0835,0.3939,0.0048,-0.0784,0.0971,2478,2019-08-07 16:44:10:791
-4.7736,-8.1304,0.0407,-0.5058,-0.0835,0.3939,0.0112,-0.0113,0.0917,2483,2019-08-07 16:44:10:796
-4.7736,-8.1304,0.0407,-0.5058,-0.0835,0.3939,0.0112,-0.0113,0.0917,2487,2019-08-07 16:44:10:800
-4.8358,-8.0874,0.1679,-0.433,-0.1513,0.2527,0.0229,0.0718,0.0949,2493,2019-08-07 16:44:10:806
-4.8358,-8.0874,0.1679,-0.433,-0.1513,0.2527,0.0229,0.0718,0.0949,2499,2019-08-07 16:44:10:812
-4.9506,-8.0349,0.2245,-0.433,-0.1513,0.2527,0.0304,0.1144,0.1013,2503,2019-08-07 16:44:10:816
-4.9506,-8.0349,0.2245,-0.433,-0.1513,0.2527,0.0304,0.1144,0.1013,2508,2019-08-07 16:44:10:821
-4.9506,-8.0349,0.2245,-0.2581,-0.2365,0.0754,0.0304,0.1144,0.1013,2512,2019-08-07 16:44:10:825
-5.1659,-8.0635,0.4319,-0.2581,-0.2365,0.0754,0.0453,0.1304,0.1066,2518,2019-08-07 16:44:10:831
-5.1659,-8.0635,0.4319,-0.2581,-0.2365,0.0754,0.0453,0.1304,0.1066,2523,2019-08-07 16:44:10:836
-5.1659,-8.0635,0.4319,-0.2581,-0.2365,0.0754,0.0549,0.1038,0.1141,2528,2019-08-07 16:44:10:841
-5.3046,-7.9633,0.5309,0.014,-0.1953,-0.0884,0.0549,0.1038,0.1141,2533,2019-08-07 16:44:10:846
-5.3046,-7.9633,0.5309,0.014,-0.1953,-0.0884,0.0581,0.058,0.112,2537,2019-08-07 16:44:10:850
-5.4147,-7.906,0.5497,0.014,-0.1953,-0.0884,0.0581,0.058,0.112,2543,2019-08-07 16:44:10:856
-5.4147,-7.906,0.5497,0.014,-0.1953,-0.0884,0.0581,0.0079,0.1088,2548,2019-08-07 16:44:10:861
-5.4147,-7.906,0.5497,0.0611,-0.3108,-0.0384,0.0581,0.0079,0.1088,2554,2019-08-07 16:44:10:867
-5.4386,-7.9108,0.4602,0.0611,-0.3108,-0.0384,0.0485,-0.0422,0.1003,2558,2019-08-07 16:44:10:871
-5.4386,-7.9108,0.4602,0.0611,-0.3108,-0.0384,0.0485,-0.0422,0.1003,2562,2019-08-07 16:44:10:875
-5.2999,-7.9394,0.4555,0.0611,-0.3108,-0.0384,0.0378,-0.0699,0.0896,2568,2019-08-07 16:44:10:881
-5.2999,-7.9394,0.4555,-0.1936,-0.2807,0.055,0.0378,-0.0699,0.0896,2573,2019-08-07 16:44:10:886
-5.2999,-7.9394,0.4555,-0.1936,-0.2807,0.055,0.0336,-0.0688,0.0726,2578,2019-08-07 16:44:10:891
-5.1659,-7.9728,0.4178,-0.1936,-0.2807,0.055,0.0336,-0.0688,0.0726,2584,2019-08-07 16:44:10:897
-5.1659,-7.9728,0.4178,-0.1936,-0.2807,0.055,0.0272,-0.0358,0.0619,2588,2019-08-07 16:44:10:901
-5.0846,-7.9346,0.3046,-0.1936,-0.2807,0.055,0.0272,-0.0358,0.0619,2593,2019-08-07 16:44:10:906
-5.0846,-7.9346,0.3046,-0.3615,-0.2258,0.2251,0.0272,-0.0358,0.0619,2597,2019-08-07 16:44:10:910
-5.0846,-7.9346,0.3046,-0.3615,-0.2258,0.2251,0.0229,0.0185,0.0566,2604,2019-08-07 16:44:10:917
-5.0606,-7.9824,0.3235,-0.3615,-0.2258,0.2251,0.0229,0.0185,0.0566,2608,2019-08-07 16:44:10:921
-5.0606,-7.9824,0.3235,-0.3615,-0.2258,0.2251,0.0229,0.058,0.0555,2613,2019-08-07 16:44:10:926
-5.1324,-7.9299,0.3329,-0.2601,-0.2536,0.125,0.0229,0.058,0.0555,2619,2019-08-07 16:44:10:932
-5.1324,-7.9299,0.3329,-0.2601,-0.2536,0.125,0.0304,0.0931,0.0662,2623,2019-08-07 16:44:10:936
-5.1324,-7.9299,0.3329,-0.2601,-0.2536,0.125,0.0304,0.0931,0.0662,2628,2019-08-07 16:44:10:941
-5.2137,-7.8964,0.4413,-0.1807,-0.2655,-0.0176,0.0357,0.108,0.0715,2634,2019-08-07 16:44:10:947
-5.2137,-7.8964,0.4413,-0.1807,-0.2655,-0.0176,0.0357,0.108,0.0715,2638,2019-08-07 16:44:10:951
-5.2998,-7.8821,0.4838,-0.1807,-0.2655,-0.0176,0.041,0.1027,0.0726,2644,2019-08-07 16:44:10:957
-5.2998,-7.8821,0.4838,-0.1807,-0.2655,-0.0176,0.041,0.1027,0.0726,2648,2019-08-07 16:44:10:961
-5.2998,-7.8821,0.4838,-0.1807,-0.2655,-0.0176,0.041,0.1027,0.0726,2653,2019-08-07 16:44:10:966
-5.2998,-7.8821,0.4838,-0.1416,-0.2901,0.0068,0.0421,0.0825,0.0747,2658,2019-08-07 16:44:10:971
-5.2903,-7.8535,0.5309,-0.1416,-0.2901,0.0068,0.0421,0.0825,0.0747,2664,2019-08-07 16:44:10:977
-5.2903,-7.8535,0.5309,-0.0957,-0.2952,-0.022,0.0474,0.0665,0.0694,2668,2019-08-07 16:44:10:981
-5.2903,-7.8535,0.5309,-0.0957,-0.2952,-0.022,0.0474,0.0665,0.0694,2672,2019-08-07 16:44:10:985
-5.319,-7.8678,0.578,-0.0957,-0.2952,-0.022,0.0496,0.0452,0.0683,2678,2019-08-07 16:44:10:991
-5.319,-7.8678,0.578,-0.0957,-0.2952,-0.022,0.0496,0.0452,0.0683,2684,2019-08-07 16:44:10:997
-5.319,-7.8678,0.578,-0.003,-0.2961,-0.0139,0.0485,0.0164,0.063,2688,2019-08-07 16:44:11:001
-5.4434,-7.8821,0.5215,-0.003,-0.2961,-0.0139,0.0485,0.0164,0.063,2693,2019-08-07 16:44:11:006
-5.4434,-7.8821,0.5215,-0.003,-0.2961,-0.0139,0.0496,-0.0081,0.0619,2698,2019-08-07 16:44:11:011
-5.3525,-7.8057,0.512,-0.003,-0.2961,-0.0139,0.0496,-0.0081,0.0619,2703,2019-08-07 16:44:11:016
-5.3525,-7.8057,0.512,-0.1625,-0.3598,-0.0433,0.0496,-0.0081,0.0619,2708,2019-08-07 16:44:11:021
-5.3525,-7.8057,0.512,-0.1625,-0.3598,-0.0433,0.0528,-0.0209,0.063,2712,2019-08-07 16:44:11:025
-5.1659,-7.7437,0.4508,-0.1625,-0.3598,-0.0433,0.0528,-0.0209,0.063,2718,2019-08-07 16:44:11:031
-5.1659,-7.7437,0.4508,-0.1625,-0.3598,-0.0433,0.0474,4.0E-4,0.0608,2723,2019-08-07 16:44:11:036
-5.1659,-7.7437,0.4508,-0.3017,-0.3859,0.0986,0.0474,4.0E-4,0.0608,2728,2019-08-07 16:44:11:041
-5.1659,-7.6959,0.4366,-0.3017,-0.3859,0.0986,0.0378,0.0271,0.0672,2733,2019-08-07 16:44:11:046
-5.1659,-7.6959,0.4366,-0.3017,-0.3859,0.0986,0.0378,0.0271,0.0672,2738,2019-08-07 16:44:11:051
-5.1276,-7.7771,0.4979,-0.3017,-0.3859,0.0986,0.0421,0.0409,0.0672,2743,2019-08-07 16:44:11:056
-5.1276,-7.7771,0.4979,-0.3077,-0.3545,0.055,0.0421,0.0409,0.0672,2749,2019-08-07 16:44:11:062
-5.1276,-7.7771,0.4979,-0.3077,-0.3545,0.055,0.0442,0.0665,0.0747,2753,2019-08-07 16:44:11:066
-5.2042,-7.8153,0.4366,-0.3077,-0.3545,0.055,0.0442,0.0665,0.0747,2758,2019-08-07 16:44:11:071
-5.2042,-7.8153,0.4366,-0.3077,-0.3545,0.055,0.04,0.0814,0.0747,2763,2019-08-07 16:44:11:076
-5.3142,-7.8535,0.5545,-0.1815,-0.2602,0.0025,0.04,0.0814,0.0747,2768,2019-08-07 16:44:11:081
-5.3142,-7.8535,0.5545,-0.1815,-0.2602,0.0025,0.04,0.0814,0.0747,2773,2019-08-07 16:44:11:086
-5.3142,-7.8535,0.5545,-0.1815,-0.2602,0.0025,0.0389,0.0686,0.0747,2778,2019-08-07 16:44:11:091
-5.4003,-7.8201,0.5686,-0.1815,-0.2602,0.0025,0.0389,0.0686,0.0747,2783,2019-08-07 16:44:11:096
-5.4003,-7.8201,0.5686,-0.1272,-0.2802,0.0579,0.0346,0.0612,0.0662,2787,2019-08-07 16:44:11:100
-5.4099,-7.8439,0.4555,-0.1272,-0.2802,0.0579,0.0346,0.0612,0.0662,2793,2019-08-07 16:44:11:106
-5.4099,-7.8439,0.4555,-0.1272,-0.2802,0.0579,0.0261,0.0612,0.0438,2798,2019-08-07 16:44:11:111
-5.4099,-7.8439,0.4555,-0.1272,-0.2802,0.0579,0.0261,0.0612,0.0438,2803,2019-08-07 16:44:11:116
-5.4769,-7.8487,0.5497,-0.0358,-0.2503,-0.0481,0.0261,0.0612,0.0438,2808,2019-08-07 16:44:11:121
-5.4769,-7.8487,0.5497,-0.0358,-0.2503,-0.0481,0.0176,0.0452,0.0321,2813,2019-08-07 16:44:11:126
-5.4769,-7.8487,0.5497,-0.0358,-0.2503,-0.0481,0.0176,0.0452,0.0321,2818,2019-08-07 16:44:11:131
-5.3429,-7.8917,0.5167,-0.0358,-0.2503,-0.0481,0.0059,0.0409,0.015,2823,2019-08-07 16:44:11:136
-5.3429,-7.8917,0.5167,-0.1409,-0.2235,0.0341,0.0059,0.0409,0.015,2827,2019-08-07 16:44:11:140
-5.4051,-7.8439,0.4743,-0.1409,-0.2235,0.0341,-5.0E-4,0.0526,0.0054,2833,2019-08-07 16:44:11:146
-5.4051,-7.8439,0.4743,-0.1409,-0.2235,0.0341,-5.0E-4,0.0526,0.0054,2838,2019-08-07 16:44:11:151
-5.4051,-7.8439,0.4743,-0.1409,-0.2235,0.0341,-0.0026,0.0558,0.0054,2842,2019-08-07 16:44:11:155
-5.3573,-7.8678,0.5686,-0.1952,-0.2705,-0.0329,-0.0026,0.0558,0.0054,2848,2019-08-07 16:44:11:161
-5.3573,-7.8678,0.5686,-0.1952,-0.2705,-0.0329,-5.0E-4,0.0398,0.0097,2853,2019-08-07 16:44:11:166
-5.2424,-7.8487,0.512,-0.1952,-0.2705,-0.0329,-5.0E-4,0.0398,0.0097,2858,2019-08-07 16:44:11:171
-5.2424,-7.8487,0.512,-0.1952,-0.2705,-0.0329,6.0E-4,0.0324,0.0076,2864,2019-08-07 16:44:11:177
-5.2424,-7.8487,0.512,-0.2301,-0.2458,-0.0977,6.0E-4,0.0324,0.0076,2867,2019-08-07 16:44:11:180
-5.2664,-7.8153,0.5969,-0.2301,-0.2458,-0.0977,6.0E-4,0.0324,0.0076,2873,2019-08-07 16:44:11:186
-5.2664,-7.8153,0.5969,-0.2301,-0.2458,-0.0977,-0.0026,0.0249,0.0172,2878,2019-08-07 16:44:11:191
-5.3285,-7.801,0.5167,-0.2301,-0.2458,-0.0977,-0.0026,0.0249,0.0172,2883,2019-08-07 16:44:11:196
-5.3285,-7.801,0.5167,-0.1615,-0.2964,0.0415,-0.0016,0.01,0.0246,2888,2019-08-07 16:44:11:201
-5.3285,-7.801,0.5167,-0.1615,-0.2964,0.0415,-0.0016,0.01,0.0246,2893,2019-08-07 16:44:11:206
-5.4099,-7.7771,0.4743,-0.1615,-0.2964,0.0415,-0.0058,0.0026,0.0257,2898,2019-08-07 16:44:11:211
-5.4099,-7.7771,0.4743,-0.1615,-0.2964,0.0415,-0.0058,0.0026,0.0257,2903,2019-08-07 16:44:11:216
-5.4099,-7.7771,0.4743,-0.1615,-0.2964,0.0415,-0.0058,0.0026,0.0257,2908,2019-08-07 16:44:11:221
-5.3142,-7.8678,0.3895,-0.2139,-0.2551,0.107,-5.0E-4,-0.0134,0.0268,2914,2019-08-07 16:44:11:227
-5.3142,-7.8678,0.3895,-0.2139,-0.2551,0.107,-5.0E-4,-0.0134,0.0268,2917,2019-08-07 16:44:11:230
-5.3381,-7.8964,0.3942,-0.2139,-0.2551,0.107,-0.0016,0.0015,0.0182,2923,2019-08-07 16:44:11:236
-5.3381,-7.8964,0.3942,-0.2139,-0.2551,0.107,-0.0016,0.0015,0.0182,2928,2019-08-07 16:44:11:241
-5.3381,-7.8964,0.3942,-0.2024,-0.2198,0.0684,0.0069,0.026,0.0118,2933,2019-08-07 16:44:11:246
-5.3381,-7.9012,0.5215,-0.2024,-0.2198,0.0684,0.0069,0.026,0.0118,2938,2019-08-07 16:44:11:251
-5.3381,-7.9012,0.5215,-0.2024,-0.2198,0.0684,0.0208,0.0462,0.0023,2943,2019-08-07 16:44:11:256
-5.3381,-7.9012,0.5215,-0.2273,-0.2669,0.0238,0.0208,0.0462,0.0023,2949,2019-08-07 16:44:11:262
-5.3668,-7.7771,0.446,-0.2273,-0.2669,0.0238,0.0219,0.0569,-0.002,2953,2019-08-07 16:44:11:266
-5.3668,-7.7771,0.446,-0.2273,-0.2669,0.0238,0.0219,0.0569,-0.002,2958,2019-08-07 16:44:11:271
-5.3668,-7.7771,0.446,-0.2273,-0.2669,0.0238,0.0219,0.0569,-0.002,2963,2019-08-07 16:44:11:276
-5.4912,-7.6959,0.5309,0.0103,-0.3758,-0.0832,0.0187,0.058,0.0065,2968,2019-08-07 16:44:11:281
-5.4912,-7.6959,0.5309,0.0103,-0.3758,-0.0832,0.0187,0.058,0.0065,2973,2019-08-07 16:44:11:286
-5.4912,-7.6959,0.5309,0.0103,-0.3758,-0.0832,0.0208,0.0143,0.0204,2978,2019-08-07 16:44:11:291
-5.5103,-7.7294,0.6299,0.0103,-0.3758,-0.0832,0.0208,0.0143,0.0204,2983,2019-08-07 16:44:11:296
-5.5103,-7.7294,0.6299,0.0103,-0.3758,-0.0832,0.0208,-0.023,0.0257,2988,2019-08-07 16:44:11:301
-5.3955,-7.7676,0.5403,-0.0897,-0.3106,-0.042,0.0208,-0.023,0.0257,2993,2019-08-07 16:44:11:306
-5.3955,-7.7676,0.5403,-0.0897,-0.3106,-0.042,0.0165,-0.0358,0.0236,2999,2019-08-07 16:44:11:312
-5.3955,-7.7676,0.5403,-0.0897,-0.3106,-0.042,0.0165,-0.0358,0.0236,3003,2019-08-07 16:44:11:316
-5.3955,-7.7676,0.5403,-0.0897,-0.3106,-0.042,0.0165,-0.0358,0.0236,3008,2019-08-07 16:44:11:321
-5.3716,-7.8344,0.5215,-0.2129,-0.2743,0.022,0.0176,-0.0422,0.0214,3012,2019-08-07 16:44:11:325
-5.3716,-7.8344,0.5215,-0.2129,-0.2743,0.022,0.0176,-0.0422,0.0214,3018,2019-08-07 16:44:11:331
-5.3716,-7.8344,0.5215,-0.2129,-0.2743,0.022,0.0176,-0.0422,0.0214,3022,2019-08-07 16:44:11:335
-5.3238,-7.8821,0.479,-0.3284,-0.2068,0.0769,0.0144,-0.0347,0.015,3028,2019-08-07 16:44:11:341
-5.3238,-7.8821,0.479,-0.3284,-0.2068,0.0769,0.0144,-0.0347,0.015,3033,2019-08-07 16:44:11:346
-5.2329,-7.8439,0.3612,-0.3284,-0.2068,0.0769,0.0037,0.0462,-0.0031,3038,2019-08-07 16:44:11:351
-5.2329,-7.8439,0.3612,-0.3373,-0.2504,0.1224,0.0037,0.0462,-0.0031,3043,2019-08-07 16:44:11:356
-5.2329,-7.8439,0.3612,-0.3373,-0.2504,0.1224,0.0091,0.1016,-0.0095,3047,2019-08-07 16:44:11:360
-5.2472,-7.8964,0.4508,-0.3373,-0.2504,0.1224,0.0091,0.1016,-0.0095,3053,2019-08-07 16:44:11:366
-5.2472,-7.8964,0.4508,-0.3373,-0.2504,0.1224,0.0091,0.1016,-0.0095,3058,2019-08-07 16:44:11:371
-5.4434,-7.7819,0.5403,-0.1158,-0.3141,0.0022,0.0027,0.1347,-0.0191,3063,2019-08-07 16:44:11:376
-5.4434,-7.7819,0.5403,-0.1158,-0.3141,0.0022,0.0027,0.1347,-0.0191,3068,2019-08-07 16:44:11:381
-5.4434,-7.7819,0.5403,-0.1158,-0.3141,0.0022,-0.008,0.1059,-0.0201,3073,2019-08-07 16:44:11:386
-5.4194,-7.7819,0.4649,-0.1158,-0.3141,0.0022,-0.008,0.1059,-0.0201,3078,2019-08-07 16:44:11:391
-5.4194,-7.7819,0.4649,-0.1809,-0.2541,-0.0303,-0.0208,0.0857,-0.0191,3083,2019-08-07 16:44:11:396
-5.386,-7.8105,0.5026,-0.1809,-0.2541,-0.0303,-0.0208,0.0857,-0.0191,3087,2019-08-07 16:44:11:400
-5.386,-7.8105,0.5026,-0.1809,-0.2541,-0.0303,-0.0197,0.0675,-0.0137,3093,2019-08-07 16:44:11:406
-5.4386,-7.7246,0.5309,-0.1809,-0.2541,-0.0303,-0.0197,0.0675,-0.0137,3099,2019-08-07 16:44:11:412
-5.4386,-7.7246,0.5309,-0.1171,-0.3847,-0.0695,-0.009,0.0473,0.0023,3103,2019-08-07 16:44:11:416
-5.4386,-7.7246,0.5309,-0.1171,-0.3847,-0.0695,-0.009,0.0473,0.0023,3108,2019-08-07 16:44:11:421
-5.4099,-7.7628,0.4696,-0.1171,-0.3847,-0.0695,-0.0069,0.0345,0.0076,3113,2019-08-07 16:44:11:426
-5.4099,-7.7628,0.4696,-0.1171,-0.3847,-0.0695,-0.0069,0.0345,0.0076,3118,2019-08-07 16:44:11:431
-5.4099,-7.7628,0.4696,-0.0668,-0.4073,-0.084,-0.0069,0.0345,0.0076,3123,2019-08-07 16:44:11:436
-5.4434,-7.7198,0.5497,-0.0668,-0.4073,-0.084,-0.009,-0.0134,0.0246,3128,2019-08-07 16:44:11:441
-5.4434,-7.7198,0.5497,-0.0668,-0.4073,-0.084,-0.009,-0.0134,0.0246,3133,2019-08-07 16:44:11:446
-5.386,-7.8392,0.3471,-0.0668,-0.4073,-0.084,-0.009,-0.0337,0.0246,3138,2019-08-07 16:44:11:451
-5.386,-7.8392,0.3471,-0.2098,-0.2563,0.1385,-0.009,-0.0337,0.0246,3142,2019-08-07 16:44:11:455
-5.386,-7.8392,0.3471,-0.2098,-0.2563,0.1385,-0.009,-0.0283,0.0204,3148,2019-08-07 16:44:11:461
-5.3094,-7.863,0.2716,-0.2098,-0.2563,0.1385,-0.009,-0.0283,0.0204,3153,2019-08-07 16:44:11:466
-5.3094,-7.863,0.2716,-0.2098,-0.2563,0.1385,0.0091,0.0122,0.0097,3157,2019-08-07 16:44:11:470
-5.3094,-7.863,0.2716,-0.1833,-0.1784,0.1292,0.0091,0.0122,0.0097,3163,2019-08-07 16:44:11:476
-5.3572,-7.906,0.3093,-0.1833,-0.1784,0.1292,0.0091,0.0122,0.0097,3168,2019-08-07 16:44:11:481
-5.3572,-7.906,0.3093,-0.1833,-0.1784,0.1292,0.0027,0.0015,0.0054,3172,2019-08-07 16:44:11:485
-5.3572,-7.906,0.3093,-0.1833,-0.1784,0.1292,0.0027,0.0015,0.0054,3178,2019-08-07 16:44:11:491
-5.4068,-7.8199,0.2854,-0.1205,-0.2926,0.1032,-0.0133,0.0399,1.0E-4,3182,2019-08-07 16:44:11:495
-5.4068,-7.8199,0.2854,-0.1205,-0.2926,0.1032,-0.0133,0.0399,1.0E-4,3188,2019-08-07 16:44:11:501
-5.3733,-7.8294,0.4033,-0.1205,-0.2926,0.1032,-0.0037,0.0377,-0.0031,3193,2019-08-07 16:44:11:506
-5.3733,-7.8294,0.4033,-0.1205,-0.2926,0.1032,-0.0037,0.0377,-0.0031,3198,2019-08-07 16:44:11:511
-5.3733,-7.8294,0.4033,-0.1065,-0.2544,0.0368,0.0144,0.0345,1.0E-4,3203,2019-08-07 16:44:11:516
-5.4307,-7.8533,0.5305,-0.1065,-0.2544,0.0368,0.0144,0.0345,1.0E-4,3208,2019-08-07 16:44:11:521
-5.4307,-7.8533,0.5305,-0.1065,-0.2544,0.0368,0.0336,0.0281,0.0065,3213,2019-08-07 16:44:11:526
-5.292,-7.7913,0.5871,-0.1065,-0.2544,0.0368,0.0336,0.0281,0.0065,3218,2019-08-07 16:44:11:531
-5.292,-7.7913,0.5871,-0.3418,-0.3109,-0.0265,0.0666,0.0526,0.0022,3223,2019-08-07 16:44:11:536
-5.292,-7.7913,0.5871,-0.3418,-0.3109,-0.0265,0.0666,0.0526,0.0022,3228,2019-08-07 16:44:11:541
-5.1676,-7.7196,0.6107,-0.3418,-0.3109,-0.0265,0.0986,0.1091,0.0033,3234,2019-08-07 16:44:11:547
-5.1676,-7.7196,0.6107,-0.3418,-0.3109,-0.0265,0.0986,0.1091,0.0033,3237,2019-08-07 16:44:11:550
-5.3112,-7.6624,0.4268,-0.2375,-0.415,0.0255,0.09,0.1208,0.0097,3243,2019-08-07 16:44:11:556
-5.3112,-7.6624,0.4268,-0.2375,-0.415,0.0255,0.09,0.1208,0.0097,3247,2019-08-07 16:44:11:560
-5.3112,-7.6624,0.4268,-0.2375,-0.415,0.0255,0.0112,0.0889,0.015,3253,2019-08-07 16:44:11:566
-5.4978,-7.6146,0.309,-0.2375,-0.415,0.0255,0.0112,0.0889,0.015,3257,2019-08-07 16:44:11:570
-5.4978,-7.6146,0.309,0.0308,-0.4648,-0.1845,-0.0261,0.0782,0.0118,3264,2019-08-07 16:44:11:577
-5.6318,-7.6767,0.6672,0.0308,-0.4648,-0.1845,-0.0261,0.0782,0.0118,3268,2019-08-07 16:44:11:581
-5.6318,-7.6767,0.6672,0.0308,-0.4648,-0.1845,-0.009,0.0441,0.015,3273,2019-08-07 16:44:11:586
-5.5648,-7.8008,0.6389,0.0308,-0.4648,-0.1845,-0.009,0.0441,0.015,3278,2019-08-07 16:44:11:591
-5.5648,-7.8008,0.6389,0.0362,-0.2093,-0.0492,-0.0026,0.0228,0.0108,3283,2019-08-07 16:44:11:596
-5.5648,-7.8008,0.6389,0.0362,-0.2093,-0.0492,-0.0026,0.0228,0.0108,3288,2019-08-07 16:44:11:601