ACCELEROMETER X (m/s²),ACCELEROMETER Y (m/s²),ACCELEROMETER Z (m/s²),LINEAR ACCELERATION X (m/s²),LINEAR ACCELERATION Y (m/s²),LINEAR ACCELERATION Z (m/s²),GYROSCOPE X (rad/s),GYROSCOPE Y (rad/s),GYROSCOPE Z (rad/s),Time since start in ms ,YYYY-MO-DD HH-MI-SS_SSS
-6.7432,-6.6163,1.1326,-0.3008,-0.1891,0.0948,-0.0026,0.026,-0.0117,2,2019-08-07 16:46:02:988
-6.7432,-6.6163,1.1326,-0.252,-0.2338,0.0246,-0.0026,0.026,-0.0117,8,2019-08-07 16:46:02:994
-6.6954,-6.5685,1.1985,-0.252,-0.2338,0.0246,-0.0069,0.0164,-0.0095,13,2019-08-07 16:46:02:999
-6.6954,-6.5685,1.1985,-0.252,-0.2338,0.0246,-0.0069,0.0164,-0.0095,17,2019-08-07 16:46:03:003
-6.5901,-6.5017,1.241,-0.252,-0.2338,0.0246,-0.0048,-0.0049,-0.0095,23,2019-08-07 16:46:03:009
-6.5901,-6.5017,1.241,-0.252,-0.2338,0.0246,-0.0048,-0.0049,-0.0095,27,2019-08-07 16:46:03:013
-6.5901,-6.5017,1.241,-0.4082,-0.2596,0.0142,-0.0048,-0.0049,-0.0095,33,2019-08-07 16:46:03:019
-6.5231,-6.5017,1.0807,-0.4082,-0.2596,0.0142,-0.0069,-0.0166,0.0022,38,2019-08-07 16:46:03:024
-6.5231,-6.5017,1.0807,-0.4082,-0.2596,0.0142,-0.0069,-0.0166,0.0022,43,2019-08-07 16:46:03:029
-6.5231,-6.5017,1.0807,-0.4082,-0.2596,0.0142,-0.0186,-0.0059,0.0128,48,2019-08-07 16:46:03:034
-6.4657,-6.5685,1.1231,-0.5085,-0.2264,0.0706,-0.0186,-0.0059,0.0128,53,2019-08-07 16:46:03:039
-6.4657,-6.5685,1.1231,-0.5085,-0.2264,0.0706,-0.0239,0.0079,0.0214,58,2019-08-07 16:46:03:044
-6.4657,-6.5685,1.1231,-0.5085,-0.2264,0.0706,-0.0239,0.0079,0.0214,63,2019-08-07 16:46:03:049
-6.6092,-6.5638,1.1326,-0.5085,-0.2264,0.0706,-0.0186,0.0132,0.0331,67,2019-08-07 16:46:03:053
-6.6092,-6.5638,1.1326,-0.3587,-0.2287,0.1131,-0.0186,0.0132,0.0331,73,2019-08-07 16:46:03:059
-6.681,-6.5494,0.9487,-0.3587,-0.2287,0.1131,-0.0154,0.0207,0.0437,78,2019-08-07 16:46:03:064
-6.681,-6.5494,0.9487,-0.3587,-0.2287,0.1131,-0.0154,0.0207,0.0437,83,2019-08-07 16:46:03:069
-6.681,-6.5494,0.9487,-0.3587,-0.2287,0.1131,-0.0165,0.0303,0.0395,87,2019-08-07 16:46:03:073
-6.6714,-6.5733,1.0524,-0.3119,-0.2142,0.1304,-0.0165,0.0303,0.0395,93,2019-08-07 16:46:03:079
-6.6714,-6.5733,1.0524,-0.3119,-0.2142,0.1304,-0.0101,0.042,0.0299,98,2019-08-07 16:46:03:084
-6.7193,-6.5733,1.0713,-0.3119,-0.2142,0.1304,-0.0101,0.042,0.0299,103,2019-08-07 16:46:03:089
-6.7193,-6.5733,1.0713,-0.3119,-0.2142,0.1304,-0.0101,0.042,0.0299,108,2019-08-07 16:46:03:094
-6.7193,-6.5733,1.0713,-0.1969,-0.1249,0.1653,-0.0048,0.0441,0.0192,113,2019-08-07 16:46:03:099
-6.8341,-6.5829,0.9534,-0.1969,-0.1249,0.1653,-0.0048,0.0441,0.0192,117,2019-08-07 16:46:03:103
-6.8341,-6.5829,0.9534,-0.1969,-0.1249,0.1653,-0.0016,0.0441,0.0065,123,2019-08-07 16:46:03:109
-6.8867,-6.602,1.0241,-0.1969,-0.1249,0.1653,-0.0016,0.0441,0.0065,127,2019-08-07 16:46:03:113
-6.8867,-6.602,1.0241,-0.1324,-0.1713,0.0919,-0.0037,0.025,1.0E-4,133,2019-08-07 16:46:03:119
-6.8867,-6.602,1.0241,-0.1324,-0.1713,0.0919,-0.0037,0.025,1.0E-4,137,2019-08-07 16:46:03:123
-6.7958,-6.5303,1.0477,-0.1324,-0.1713,0.0919,0.0038,5.0E-4,-0.0053,143,2019-08-07 16:46:03:129
-6.7958,-6.5303,1.0477,-0.1324,-0.1713,0.0919,0.0038,5.0E-4,-0.0053,148,2019-08-07 16:46:03:134
-6.7097,-6.5542,1.0477,-0.2566,-0.2625,0.09,0.0038,5.0E-4,-0.0053,153,2019-08-07 16:46:03:139
-6.7097,-6.5542,1.0477,-0.2566,-0.2625,0.09,0.007,-0.0091,-0.0063,157,2019-08-07 16:46:03:143
-6.7097,-6.5542,1.0477,-0.2566,-0.2625,0.09,0.007,-0.0091,-0.0063,163,2019-08-07 16:46:03:149
-6.6523,-6.5638,1.0241,-0.2566,-0.2625,0.09,6.0E-4,-0.0038,-0.0021,168,2019-08-07 16:46:03:154
-6.6523,-6.5638,1.0241,-0.3513,-0.2444,0.1284,6.0E-4,-0.0038,-0.0021,173,2019-08-07 16:46:03:159
-6.6523,-6.5638,1.0241,-0.3513,-0.2444,0.1284,0.0038,0.009,0.0022,178,2019-08-07 16:46:03:164
-6.6905,-6.5065,1.109,-0.3323,-0.3015,0.0526,0.0038,0.009,0.0022,183,2019-08-07 16:46:03:169
-6.6905,-6.5065,1.109,-0.3323,-0.3015,0.0526,0.0123,-0.0049,0.0139,188,2019-08-07 16:46:03:174
-6.6666,-6.4922,1.0289,-0.3323,-0.3015,0.0526,0.0123,-0.0049,0.0139,194,2019-08-07 16:46:03:180
-6.6666,-6.4922,1.0289,-0.3323,-0.3015,0.0526,0.0123,-0.0049,0.0139,198,2019-08-07 16:46:03:184
-6.6666,-6.4922,1.0289,-0.31,-0.3093,0.1718,0.0123,0.0026,0.0182,203,2019-08-07 16:46:03:189
-6.6905,-6.4778,1.0807,-0.31,-0.3093,0.1718,0.0123,0.0026,0.0182,207,2019-08-07 16:46:03:193
-6.6905,-6.4778,1.0807,-0.31,-0.3093,0.1718,0.0102,0.0132,0.0182,213,2019-08-07 16:46:03:199
-6.6953,-6.4158,1.0949,-0.31,-0.3093,0.1718,0.0102,0.0132,0.0182,218,2019-08-07 16:46:03:204
-6.6953,-6.4158,1.0949,-0.3319,-0.3017,0.0201,0.0112,0.0228,0.0214,223,2019-08-07 16:46:03:209
-6.6953,-6.4158,1.0949,-0.3319,-0.3017,0.0201,0.0112,0.0228,0.0214,228,2019-08-07 16:46:03:214
-6.6666,-6.454,1.0477,-0.3319,-0.3017,0.0201,0.008,0.0377,0.0139,233,2019-08-07 16:46:03:219
-6.6666,-6.454,1.0477,-0.3319,-0.3017,0.0201,0.008,0.0377,0.0139,238,2019-08-07 16:46:03:224
-6.6666,-6.454,1.0477,-0.1725,-0.3421,0.1102,0.0048,0.0452,0.0107,243,2019-08-07 16:46:03:229
-6.8627,-6.4349,0.9959,-0.1725,-0.3421,0.1102,0.0048,0.0452,0.0107,248,2019-08-07 16:46:03:234
-6.8627,-6.4349,0.9959,-0.1725,-0.3421,0.1102,0.0048,0.0452,0.0107,253,2019-08-07 16:46:03:239
-6.7862,-6.5256,1.0949,-0.1725,-0.3421,0.1102,-5.0E-4,0.0335,0.015,257,2019-08-07 16:46:03:243
-6.7862,-6.5256,1.0949,-0.214,-0.2108,0.0341,-5.0E-4,0.0335,0.015,263,2019-08-07 16:46:03:249
-6.7862,-6.5256,1.0949,-0.214,-0.2108,0.0341,-0.0016,0.0111,0.0097,268,2019-08-07 16:46:03:254
-6.7527,-6.4969,1.1986,-0.214,-0.2108,0.0341,-0.0016,0.0111,0.0097,273,2019-08-07 16:46:03:259
-6.7527,-6.4969,1.1986,-0.214,-0.2108,0.0341,0.0016,-0.0027,0.0171,278,2019-08-07 16:46:03:264
-6.6809,-6.5256,1.1467,-0.3208,-0.2475,0.0099,0.0016,-0.0027,0.0171,283,2019-08-07 16:46:03:269
-6.6809,-6.5256,1.1467,-0.3208,-0.2475,0.0099,-5.0E-4,-0.0038,0.0214,287,2019-08-07 16:46:03:273
-6.6618,-6.5017,1.2127,-0.3412,-0.27,-0.0554,-5.0E-4,-0.0038,0.0214,293,2019-08-07 16:46:03:279
-6.6618,-6.5017,1.2127,-0.3412,-0.27,-0.0554,-0.0058,-0.0134,0.0278,298,2019-08-07 16:46:03:284
-6.6618,-6.5017,1.2127,-0.3412,-0.27,-0.0554,-0.0058,-0.0134,0.0278,302,2019-08-07 16:46:03:288
-6.6474,-6.5351,1.1797,-0.3412,-0.27,-0.0554,-0.0058,-0.0134,0.0278,308,2019-08-07 16:46:03:294
-6.6474,-6.5351,1.1797,-0.4019,-0.2422,0.0552,-0.009,-0.0272,0.0405,313,2019-08-07 16:46:03:299
-6.6474,-6.5351,1.1797,-0.4019,-0.2422,0.0552,-0.009,-0.0272,0.0405,318,2019-08-07 16:46:03:304
-6.6857,-6.5208,1.1797,-0.4019,-0.2422,0.0552,-0.008,-0.0134,0.0352,322,2019-08-07 16:46:03:308
-6.6857,-6.5208,1.1797,-0.4019,-0.2422,0.0552,-0.008,-0.0134,0.0352,328,2019-08-07 16:46:03:314
-6.6953,-6.4683,1.1467,-0.3159,-0.2943,0.0136,-0.0069,-0.0027,0.0427,332,2019-08-07 16:46:03:318
-6.6953,-6.4683,1.1467,-0.3159,-0.2943,0.0136,-0.0069,-0.0027,0.0427,338,2019-08-07 16:46:03:324
-6.6953,-6.4683,1.1467,-0.3159,-0.2943,0.0136,-0.0058,0.0047,0.0416,344,2019-08-07 16:46:03:330
-6.6331,-6.4922,1.0194,-0.3159,-0.2943,0.0136,-0.0058,0.0047,0.0416,348,2019-08-07 16:46:03:334
-6.6331,-6.4922,1.0194,-0.2546,-0.2605,0.1985,-0.0186,0.0303,0.032,353,2019-08-07 16:46:03:339
-6.6331,-6.4922,1.0194,-0.2546,-0.2605,0.1985,-0.0186,0.0303,0.032,357,2019-08-07 16:46:03:343
-6.8675,-6.4587,0.9582,-0.2546,-0.2605,0.1985,-0.0207,0.0377,0.0256,363,2019-08-07 16:46:03:349
-6.8675,-6.4587,0.9582,-0.2546,-0.2605,0.1985,-0.0207,0.0377,0.0256,368,2019-08-07 16:46:03:354
-6.8436,-6.5256,1.0949,-0.202,-0.1997,0.0486,-0.0229,0.0271,0.0235,373,2019-08-07 16:46:03:359
-6.8436,-6.5256,1.0949,-0.202,-0.1997,0.0486,-0.0229,0.0271,0.0235,378,2019-08-07 16:46:03:364
-6.8244,-6.5733,1.0289,-0.202,-0.1997,0.0486,-0.0229,0.0271,0.0235,383,2019-08-07 16:46:03:369
-6.8244,-6.5733,1.0289,-0.202,-0.1997,0.0486,-0.0282,0.0239,0.0097,387,2019-08-07 16:46:03:373
-6.8244,-6.5733,1.0289,-0.1998,-0.2126,0.0975,-0.0271,0.0164,0.0139,393,2019-08-07 16:46:03:379
-6.8053,-6.559,0.9723,-0.1998,-0.2126,0.0975,-0.0271,0.0164,0.0139,398,2019-08-07 16:46:03:384
-6.8053,-6.559,0.9723,-0.1998,-0.2126,0.0975,-0.0207,0.0132,0.0139,404,2019-08-07 16:46:03:390
-6.8053,-6.559,0.9723,-0.1998,-0.2126,0.0975,-0.0207,0.0132,0.0139,408,2019-08-07 16:46:03:394
-6.6952,-6.6258,1.043,-0.1998,-0.2126,0.0975,-0.0207,0.0132,0.0139,413,2019-08-07 16:46:03:399
-6.6952,-6.6258,1.043,-0.326,-0.2164,0.1013,-0.0122,0.0111,0.0139,417,2019-08-07 16:46:03:403
-6.6857,-6.5304,1.0713,-0.326,-0.2164,0.1013,-0.0122,0.0111,0.0139,423,2019-08-07 16:46:03:409
-6.6857,-6.5304,1.0713,-0.326,-0.2164,0.1013,-0.0026,0.0111,0.0107,428,2019-08-07 16:46:03:414
-6.6857,-6.5304,1.0713,-0.326,-0.2164,0.1013,-0.0026,0.0111,0.0107,433,2019-08-07 16:46:03:419
-6.7335,-6.516,1.0854,-0.2941,-0.2342,0.047,0.0038,0.01,0.0086,438,2019-08-07 16:46:03:424
-6.7335,-6.516,1.0854,-0.2941,-0.2342,0.047,0.0038,0.01,0.0086,443,2019-08-07 16:46:03:429
-6.8627,-6.4301,1.0619,-0.2941,-0.2342,0.047,0.0059,0.0122,0.0033,449,2019-08-07 16:46:03:435
-6.8627,-6.4301,1.0619,-0.2941,-0.2342,0.047,0.0059,0.0122,0.0033,452,2019-08-07 16:46:03:438
-6.8627,-6.4301,1.0619,-0.1665,-0.3284,0.0737,0.0059,0.0026,-0.001,458,2019-08-07 16:46:03:444
-6.9153,-6.4062,1.0336,-0.1665,-0.3284,0.0737,0.0059,0.0026,-0.001,463,2019-08-07 16:46:03:449
-6.9153,-6.4062,1.0336,-0.1665,-0.3284,0.0737,0.008,-0.0049,-0.0085,468,2019-08-07 16:46:03:454
-6.8244,-6.4731,0.9676,-0.1665,-0.3284,0.0737,0.008,-0.0049,-0.0085,472,2019-08-07 16:46:03:458
-6.8244,-6.4731,0.9676,-0.1904,-0.2377,0.1213,0.0038,-0.0102,-0.0117,478,2019-08-07 16:46:03:464
-6.8244,-6.4731,0.9676,-0.1904,-0.2377,0.1213,0.0038,-0.0102,-0.0117,483,2019-08-07 16:46:03:469
-6.8387,-6.4349,0.9346,-0.1904,-0.2377,0.1213,-5.0E-4,-0.0049,-0.0234,488,2019-08-07 16:46:03:474
-6.8387,-6.4349,0.9346,-0.1904,-0.2377,0.1213,-5.0E-4,-0.0049,-0.0234,492,2019-08-07 16:46:03:478
-6.8387,-6.4349,0.9346,-0.2646,-0.2497,0.1777,-5.0E-4,-0.0049,-0.0234,498,2019-08-07 16:46:03:484
-6.7813,-6.516,0.9959,-0.2646,-0.2497,0.1777,0.0027,0.0111,-0.0244,502,2019-08-07 16:46:03:488
-6.7813,-6.516,0.9959,-0.2646,-0.2497,0.1777,0.0027,0.0111,-0.0244,508,2019-08-07 16:46:03:494
-6.7574,-6.5876,1.0713,-0.2646,-0.2497,0.1777,0.0038,0.0143,-0.0255,513,2019-08-07 16:46:03:499
-6.7574,-6.5876,1.0713,-0.2756,-0.2009,0.1051,0.0038,0.0143,-0.0255,517,2019-08-07 16:46:03:503
-6.7191,-6.4874,1.1043,-0.2756,-0.2009,0.1051,0.0016,0.0068,-0.0234,523,2019-08-07 16:46:03:509
-6.7191,-6.4874,1.1043,-0.2756,-0.2009,0.1051,0.0016,0.0068,-0.0234,528,2019-08-07 16:46:03:514
-6.7191,-6.4874,1.1043,-0.2756,-0.2009,0.1051,-5.0E-4,-0.0049,-0.017,533,2019-08-07 16:46:03:519
-6.6665,-6.4683,1.1326,-0.3539,-0.29,-0.0032,-5.0E-4,-0.0049,-0.017,538,2019-08-07 16:46:03:524
-6.6665,-6.4683,1.1326,-0.3539,-0.29,-0.0032,-0.0037,-0.0177,-0.0106,544,2019-08-07 16:46:03:530
-6.5995,-6.5113,1.1185,-0.3539,-0.29,-0.0032,-0.0037,-0.0177,-0.0106,548,2019-08-07 16:46:03:534
-6.5995,-6.5113,1.1185,-0.3539,-0.29,-0.0032,-0.0037,-0.0177,-0.0106,553,2019-08-07 16:46:03:539
-6.5995,-6.5113,1.1185,-0.4474,-0.2347,0.0085,-0.0037,-0.0187,-0.001,557,2019-08-07 16:46:03:543
-6.6234,-6.4969,1.1232,-0.4474,-0.2347,0.0085,-0.0037,-0.0187,-0.001,562,2019-08-07 16:46:03:548
-6.6234,-6.4969,1.1232,-0.4474,-0.2347,0.0085,-0.0069,-0.0091,0.0054,568,2019-08-07 16:46:03:554
-6.6521,-6.4062,1.0713,-0.4474,-0.2347,0.0085,-0.0069,-0.0091,0.0054,573,2019-08-07 16:46:03:559
-6.6521,-6.4062,1.0713,-0.3327,-0.3347,0.0655,-0.009,0.0015,0.0033,578,2019-08-07 16:46:03:564
-6.6521,-6.4062,1.0713,-0.3327,-0.3347,0.0655,-0.009,0.0015,0.0033,582,2019-08-07 16:46:03:568
-6.7047,-6.4683,1.043,-0.3327,-0.3347,0.0655,-0.009,0.0015,0.0033,588,2019-08-07 16:46:03:574
-6.7047,-6.4683,1.043,-0.3327,-0.3347,0.0655,-0.0143,0.009,0.0086,593,2019-08-07 16:46:03:579
-6.7047,-6.4683,1.043,-0.3292,-0.31,0.2272,-0.0143,0.009,0.0086,598,2019-08-07 16:46:03:584
-6.7621,-6.4778,0.944,-0.3292,-0.31,0.2272,-0.0165,0.025,1.0E-4,603,2019-08-07 16:46:03:589
-6.7621,-6.4778,0.944,-0.3292,-0.31,0.2272,-0.0165,0.025,1.0E-4,608,2019-08-07 16:46:03:594
-6.8291,-6.4349,0.9818,-0.3292,-0.31,0.2272,-0.0197,0.0335,-0.0053,613,2019-08-07 16:46:03:599
-6.8291,-6.4349,0.9818,-0.172,-0.2343,0.1108,-0.0197,0.0335,-0.0053,617,2019-08-07 16:46:03:603
-6.8291,-6.4349,0.9818,-0.172,-0.2343,0.1108,-0.0239,0.0377,-0.0159,623,2019-08-07 16:46:03:609
-6.8339,-6.4969,1.0572,-0.172,-0.2343,0.1108,-0.0239,0.0377,-0.0159,628,2019-08-07 16:46:03:614
-6.8339,-6.4969,1.0572,-0.172,-0.2343,0.1108,-0.0186,0.0271,-0.0191,634,2019-08-07 16:46:03:620
-6.8865,-6.4301,1.0336,-0.133,-0.3319,0.0792,-0.0186,0.0271,-0.0191,637,2019-08-07 16:46:03:623
-6.8865,-6.4301,1.0336,-0.133,-0.3319,0.0792,-0.0218,0.009,-0.0138,642,2019-08-07 16:46:03:628
-6.7955,-6.4635,0.9959,-0.2233,-0.2995,0.1146,-0.0218,0.009,-0.0138,648,2019-08-07 16:46:03:634
-6.7955,-6.4635,0.9959,-0.2233,-0.2995,0.1146,-0.0218,0.009,-0.0138,653,2019-08-07 16:46:03:639
-6.7955,-6.4635,0.9959,-0.2233,-0.2995,0.1146,-0.0186,-0.0166,-0.0106,658,2019-08-07 16:46:03:644
-6.719,-6.5161,1.1091,-0.2233,-0.2995,0.1146,-0.0186,-0.0166,-0.0106,663,2019-08-07 16:46:03:649
-6.719,-6.5161,1.1091,-0.3604,-0.2965,0.1196,-0.0175,-0.0379,1.0E-4,668,2019-08-07 16:46:03:654
-6.719,-6.5161,1.1091,-0.3604,-0.2965,0.1196,-0.0175,-0.0379,1.0E-4,672,2019-08-07 16:46:03:658
-6.5563,-6.497,1.0478,-0.3604,-0.2965,0.1196,-0.0058,-0.0336,0.0097,678,2019-08-07 16:46:03:664
-6.5563,-6.497,1.0478,-0.3604,-0.2965,0.1196,-0.0058,-0.0336,0.0097,683,2019-08-07 16:46:03:669
-6.5563,-6.497,1.0478,-0.4515,-0.2527,0.057,-0.0048,-0.0209,0.0182,687,2019-08-07 16:46:03:673
-6.5946,-6.5065,1.0431,-0.4515,-0.2527,0.057,-0.0048,-0.0209,0.0182,693,2019-08-07 16:46:03:679
-6.5946,-6.5065,1.0431,-0.4515,-0.2527,0.057,-0.0016,-0.0027,0.0299,697,2019-08-07 16:46:03:683
-6.628,-6.4015,1.0478,-0.4515,-0.2527,0.057,-0.0016,-0.0027,0.0299,703,2019-08-07 16:46:03:689
-6.628,-6.4015,1.0478,-0.3448,-0.3446,0.058,-0.0016,-6.0E-4,0.0363,708,2019-08-07 16:46:03:694
-6.628,-6.4015,1.0478,-0.3448,-0.3446,0.058,-0.0016,-6.0E-4,0.0363,713,2019-08-07 16:46:03:699
-6.695,-6.4349,1.0996,-0.3448,-0.3446,0.058,-0.0101,0.009,0.0363,718,2019-08-07 16:46:03:704
-6.695,-6.4349,1.0996,-0.3448,-0.3446,0.058,-0.0101,0.009,0.0363,723,2019-08-07 16:46:03:709
-6.695,-6.4349,1.0996,-0.2447,-0.2823,0.0751,-0.0101,0.009,0.0363,728,2019-08-07 16:46:03:714
-6.7811,-6.4731,1.0384,-0.2447,-0.2823,0.0751,-0.0101,0.0068,0.0342,733,2019-08-07 16:46:03:719
-6.7811,-6.4731,1.0384,-0.2447,-0.2823,0.0751,-0.0154,0.0079,0.0384,738,2019-08-07 16:46:03:724
-6.7715,-6.5638,0.9347,-0.2447,-0.2823,0.0751,-0.0154,0.0079,0.0384,743,2019-08-07 16:46:03:729
-6.7715,-6.5638,0.9347,-0.2452,-0.1771,0.1233,-0.0186,0.0143,0.0342,748,2019-08-07 16:46:03:734
-6.7763,-6.5877,1.0242,-0.2452,-0.1771,0.1233,-0.0186,0.0143,0.0342,753,2019-08-07 16:46:03:739
-6.7763,-6.5877,1.0242,-0.2452,-0.1771,0.1233,-0.0186,0.0143,0.0342,758,2019-08-07 16:46:03:744
-6.7763,-6.5877,1.0242,-0.2452,-0.1771,0.1233,-0.0197,0.0207,0.0278,763,2019-08-07 16:46:03:749
-6.7715,-6.602,1.0525,-0.2065,-0.1352,0.0802,-0.0197,0.0207,0.0278,768,2019-08-07 16:46:03:754
-6.7715,-6.602,1.0525,-0.2065,-0.1352,0.0802,-0.0175,0.0186,0.0299,773,2019-08-07 16:46:03:759
-6.7715,-6.602,1.0525,-0.2065,-0.1352,0.0802,-0.0175,0.0186,0.0299,778,2019-08-07 16:46:03:764
-6.7333,-6.5972,1.1044,-0.2065,-0.1352,0.0802,-0.008,0.0122,0.0246,783,2019-08-07 16:46:03:769
-6.7333,-6.5972,1.1044,-0.2065,-0.1352,0.0802,-0.008,0.0122,0.0246,787,2019-08-07 16:46:03:773
-6.7333,-6.5972,1.1044,-0.2579,-0.1514,0.1607,-0.0101,0.0281,0.0171,793,2019-08-07 16:46:03:779
-6.762,-6.5781,0.9535,-0.2579,-0.1514,0.1607,-0.0101,0.0281,0.0171,798,2019-08-07 16:46:03:784
-6.762,-6.5781,0.9535,-0.2579,-0.1514,0.1607,-5.0E-4,0.0207,0.0097,802,2019-08-07 16:46:03:788
-6.915,-6.5495,1.1468,-0.2579,-0.1514,0.1607,-5.0E-4,0.0207,0.0097,808,2019-08-07 16:46:03:794
-6.915,-6.5495,1.1468,-0.1024,-0.1686,-0.0504,0.0133,-0.0059,0.0043,813,2019-08-07 16:46:03:799
-6.915,-6.5495,1.1468,-0.1024,-0.1686,-0.0504,0.0133,-0.0059,0.0043,817,2019-08-07 16:46:03:803
-6.8098,-6.5686,1.1044,-0.1024,-0.1686,-0.0504,0.0133,-0.0059,0.0043,823,2019-08-07 16:46:03:809
-6.8098,-6.5686,1.1044,-0.1024,-0.1686,-0.0504,0.0251,-0.0251,-0.0021,828,2019-08-07 16:46:03:814
-6.8098,-6.5686,1.1044,-0.2075,-0.1918,0.068,0.0251,-0.0251,-0.0021,833,2019-08-07 16:46:03:819
-6.8433,-6.5399,1.0289,-0.2075,-0.1918,0.068,0.0251,-0.0123,-0.0106,838,2019-08-07 16:46:03:824
-6.8433,-6.5399,1.0289,-0.2075,-0.1918,0.068,0.0251,-0.0123,-0.0106,843,2019-08-07 16:46:03:829
-6.9198,-6.4588,1.0808,-0.2075,-0.1918,0.068,0.0283,-0.0134,-0.018,848,2019-08-07 16:46:03:834
-6.9198,-6.4588,1.0808,-0.0624,-0.2832,0.0499,0.0283,-0.0134,-0.018,853,2019-08-07 16:46:03:839
-6.9198,-6.4588,1.0808,-0.0624,-0.2832,0.0499,0.0283,-0.0134,-0.018,858,2019-08-07 16:46:03:844
-6.9246,-6.4683,0.9771,-0.0624,-0.2832,0.0499,0.0261,-0.0326,-0.0266,863,2019-08-07 16:46:03:849
-6.9246,-6.4683,0.9771,-0.0624,-0.2832,0.0499,0.0261,-0.0326,-0.0266,867,2019-08-07 16:46:03:853
-6.8576,-6.4015,0.9677,-0.212,-0.2953,0.1181,0.0176,-0.0379,-0.0393,873,2019-08-07 16:46:03:859
-6.8576,-6.4015,0.9677,-0.212,-0.2953,0.1181,0.0176,-0.0379,-0.0393,878,2019-08-07 16:46:03:864
-6.8576,-6.4015,0.9677,-0.212,-0.2953,0.1181,0.0112,-0.023,-0.0468,883,2019-08-07 16:46:03:869
-6.6662,-6.4683,0.9865,-0.212,-0.2953,0.1181,0.0112,-0.023,-0.0468,888,2019-08-07 16:46:03:874
-6.6662,-6.4683,0.9865,-0.33,-0.3202,0.1091,0.0112,-0.023,-0.0468,894,2019-08-07 16:46:03:880
-6.6662,-6.4015,1.0148,-0.33,-0.3202,0.1091,0.0027,-0.0027,-0.0489,898,2019-08-07 16:46:03:884
-6.6662,-6.4015,1.0148,-0.33,-0.3202,0.1091,0.0027,-0.0027,-0.0489,902,2019-08-07 16:46:03:888
-6.6662,-6.4015,1.0148,-0.33,-0.3202,0.1091,-0.0058,-0.0038,-0.0372,908,2019-08-07 16:46:03:894
-6.6184,-6.4445,1.0997,-0.4049,-0.3124,0.0199,-0.0058,-0.0038,-0.0372,913,2019-08-07 16:46:03:899
-6.6184,-6.4445,1.0997,-0.4049,-0.3124,0.0199,-0.0058,-0.0038,-0.0372,918,2019-08-07 16:46:03:904
-6.5657,-6.454,1.1138,-0.4049,-0.3124,0.0199,-0.009,-0.0123,-0.0234,923,2019-08-07 16:46:03:909
-6.5657,-6.454,1.1138,-0.4049,-0.3124,0.0199,-0.009,-0.0123,-0.0234,928,2019-08-07 16:46:03:914
-6.5657,-6.454,1.1138,-0.4683,-0.3876,0.0589,-0.0069,-0.0177,-0.0074,932,2019-08-07 16:46:03:918
-6.561,-6.3919,1.0007,-0.4683,-0.3876,0.0589,-0.008,-0.0017,0.0011,938,2019-08-07 16:46:03:924
-6.561,-6.3919,1.0007,-0.4683,-0.3876,0.0589,-0.008,-0.0017,0.0011,943,2019-08-07 16:46:03:929
-6.6614,-6.3919,1.1468,-0.4683,-0.3876,0.0589,-0.008,-0.0017,0.0011,947,2019-08-07 16:46:03:933
-6.6614,-6.3919,1.1468,-0.3251,-0.4063,-0.0115,-0.0058,-0.0081,0.0139,953,2019-08-07 16:46:03:939
-6.6614,-6.3919,1.1468,-0.3251,-0.4063,-0.0115,-0.0058,-0.0081,0.0139,957,2019-08-07 16:46:03:943
-6.7045,-6.349,1.0525,-0.3251,-0.4063,-0.0115,6.0E-4,-0.0059,0.0224,963,2019-08-07 16:46:03:949
-6.7045,-6.349,1.0525,-0.3251,-0.4063,-0.0115,6.0E-4,-0.0059,0.0224,968,2019-08-07 16:46:03:954
-6.7332,-6.3538,0.9677,-0.2901,-0.4029,0.1536,0.0016,-6.0E-4,0.015,973,2019-08-07 16:46:03:959
-6.7332,-6.3538,0.9677,-0.2901,-0.4029,0.1536,0.0016,-6.0E-4,0.015,978,2019-08-07 16:46:03:964
-6.7332,-6.3538,0.9677,-0.2901,-0.4029,0.1536,-0.0026,0.0122,0.0171,983,2019-08-07 16:46:03:969
-6.8001,-6.4349,0.9818,-0.2901,-0.4029,0.1536,-0.0026,0.0122,0.0171,987,2019-08-07 16:46:03:973
-6.8001,-6.4349,0.9818,-0.2305,-0.2525,0.0949,-0.008,0.0164,0.0086,993,2019-08-07 16:46:03:979
-6.8528,-6.4922,1.0195,-0.2305,-0.2525,0.0949,-0.008,0.0164,0.0086,998,2019-08-07 16:46:03:984
-6.8528,-6.4922,1.0195,-0.2305,-0.2525,0.0949,-0.008,0.0164,0.0086,1003,2019-08-07 16:46:03:989
-6.8528,-6.4922,1.0195,-0.2305,-0.2525,0.0949,-0.0058,0.0175,-0.0074,1007,2019-08-07 16:46:03:993
-6.8336,-6.5638,0.9912,-0.2068,-0.2149,0.1283,-0.0058,0.0175,-0.0074,1013,2019-08-07 16:46:03:999
-6.8336,-6.5638,0.9912,-0.2068,-0.2149,0.1283,-0.0026,0.01,-0.0117,1018,2019-08-07 16:46:04:004
-6.714,-6.5972,1.0148,-0.2068,-0.2149,0.1283,-0.0026,0.01,-0.0117,1023,2019-08-07 16:46:04:009
-6.714,-6.5972,1.0148,-0.2068,-0.2149,0.1283,-0.0016,-6.0E-4,-0.0127,1028,2019-08-07 16:46:04:014
-6.714,-6.5972,1.0148,-0.3244,-0.1599,0.1551,-0.0016,-6.0E-4,-0.0127,1033,2019-08-07 16:46:04:019
-6.6757,-6.6306,1.0101,-0.3244,-0.1599,0.1551,0.007,-0.0081,-0.0053,1038,2019-08-07 16:46:04:024
-6.6757,-6.6306,1.0101,-0.3244,-0.1599,0.1551,0.007,-0.0081,-0.0053,1043,2019-08-07 16:46:04:029
-6.6757,-6.5877,1.0902,-0.3244,-0.1599,0.1551,0.007,-0.0081,-0.0053,1048,2019-08-07 16:46:04:034
-6.6949,-6.5877,1.0902,-0.3229,-0.1803,0.0106,0.0059,-0.0059,-0.001,1053,2019-08-07 16:46:04:039
-6.6949,-6.5877,1.0902,-0.3229,-0.1803,0.0106,0.0059,-0.0059,-0.001,1058,2019-08-07 16:46:04:044
-6.7427,-6.5161,1.0997,-0.3229,-0.1803,0.0106,0.0048,-0.0166,0.0054,1063,2019-08-07 16:46:04:049
-6.7427,-6.5161,1.0997,-0.3229,-0.1803,0.0106,0.0048,-0.0166,0.0054,1068,2019-08-07 16:46:04:054
-6.7379,-6.5017,1.0148,-0.2847,-0.2561,0.1032,0.0016,-0.0198,0.0075,1073,2019-08-07 16:46:04:059
-6.7379,-6.5017,1.0148,-0.2847,-0.2561,0.1032,0.0016,-0.0198,0.0075,1077,2019-08-07 16:46:04:063
-6.7379,-6.5017,1.0148,-0.2847,-0.2561,0.1032,0.0027,-0.024,1.0E-4,1083,2019-08-07 16:46:04:069
-6.6757,-6.4731,0.9818,-0.2847,-0.2561,0.1032,0.0027,-0.024,1.0E-4,1088,2019-08-07 16:46:04:074
-6.6757,-6.4731,0.9818,-0.2847,-0.2561,0.1032,0.0027,-0.024,1.0E-4,1093,2019-08-07 16:46:04:079
-6.6422,-6.4492,0.9394,-0.38,-0.2991,0.1764,0.0027,-0.0113,-0.0031,1098,2019-08-07 16:46:04:084
-6.6422,-6.4492,0.9394,-0.38,-0.2991,0.1764,0.0027,-0.0113,-0.0031,1103,2019-08-07 16:46:04:089
-6.6422,-6.4492,0.9394,-0.38,-0.2991,0.1764,0.0059,0.0196,-0.018,1108,2019-08-07 16:46:04:094
-6.6039,-6.4636,0.9394,-0.38,-0.2991,0.1764,0.0059,0.0196,-0.018,1113,2019-08-07 16:46:04:099
-6.6039,-6.4636,0.9394,-0.4021,-0.3061,0.1651,0.007,0.0409,-0.0202,1119,2019-08-07 16:46:04:105
-6.6039,-6.4636,0.9394,-0.4021,-0.3061,0.1651,0.007,0.0409,-0.0202,1123,2019-08-07 16:46:04:109
-6.6709,-6.4779,1.0997,-0.4021,-0.3061,0.1651,0.007,0.0345,-0.0202,1128,2019-08-07 16:46:04:114
-6.6709,-6.4779,1.0997,-0.3381,-0.4137,0.0712,0.007,0.0345,-0.0202,1134,2019-08-07 16:46:04:120
-6.6326,-6.3538,1.0667,-0.3381,-0.4137,0.0712,0.0038,0.0186,-0.0085,1138,2019-08-07 16:46:04:124
-6.6326,-6.3538,1.0667,-0.3381,-0.4137,0.0712,0.0038,0.0186,-0.0085,1143,2019-08-07 16:46:04:129
-6.6326,-6.3538,1.0667,-0.3381,-0.4137,0.0712,-0.0037,-0.0123,0.0139,1147,2019-08-07 16:46:04:133
-6.5752,-6.3394,1.0761,-0.3381,-0.4137,0.0712,-0.0037,-0.0123,0.0139,1153,2019-08-07 16:46:04:139
-6.5752,-6.3394,1.0761,-0.5204,-0.375,0.0148,-0.0037,-0.0123,0.0139,1158,2019-08-07 16:46:04:144
-6.3934,-6.3776,1.0997,-0.5204,-0.375,0.0148,-0.0122,-0.0336,0.0416,1163,2019-08-07 16:46:04:149
-6.3934,-6.3776,1.0997,-0.5204,-0.375,0.0148,-0.0122,-0.0336,0.0416,1168,2019-08-07 16:46:04:154
-6.3934,-6.3776,1.0997,-0.5204,-0.375,0.0148,-0.0133,-0.0315,0.0714,1173,2019-08-07 16:46:04:159
-6.336,-6.392,1.0101,-0.6884,-0.3642,0.1074,-0.0133,-0.0315,0.0714,1178,2019-08-07 16:46:04:164
-6.336,-6.392,1.0101,-0.6884,-0.3642,0.1074,-0.0133,-0.0145,0.0981,1183,2019-08-07 16:46:04:169
-6.3312,-6.3013,0.9583,-0.6884,-0.3642,0.1074,-0.0133,-0.0145,0.0981,1188,2019-08-07 16:46:04:174
-6.3312,-6.3013,0.9583,-0.6884,-0.3642,0.1074,-0.0133,-0.0145,0.0981,1193,2019-08-07 16:46:04:179
-6.3312,-6.3013,0.9583,-0.672,-0.4089,0.158,-0.0165,0.0122,0.1162,1198,2019-08-07 16:46:04:184
-6.3551,-6.2583,0.9111,-0.672,-0.4089,0.158,-0.0165,0.0122,0.1162,1203,2019-08-07 16:46:04:189
-6.3551,-6.2583,0.9111,-0.672,-0.4089,0.158,-0.0122,0.0431,0.1311,1208,2019-08-07 16:46:04:194
-6.3551,-6.2583,0.9111,-0.672,-0.4089,0.158,-0.0122,0.0431,0.1311,1213,2019-08-07 16:46:04:199
-6.4077,-6.3204,0.8263,-0.637,-0.3823,0.2809,-0.0175,0.0772,0.1364,1218,2019-08-07 16:46:04:204
-6.4077,-6.3204,0.8263,-0.637,-0.3823,0.2809,-0.0175,0.0772,0.1364,1222,2019-08-07 16:46:04:208
-6.4843,-6.3585,0.9111,-0.637,-0.3823,0.2809,-0.0175,0.0931,0.1396,1228,2019-08-07 16:46:04:214
-6.4843,-6.3585,0.9111,-0.637,-0.3823,0.2809,-0.0175,0.0931,0.1396,1233,2019-08-07 16:46:04:219
-6.4843,-6.3585,0.9111,-0.5237,-0.3205,0.2405,-0.0165,0.1038,0.1524,1238,2019-08-07 16:46:04:224
-6.513,-6.3108,0.7933,-0.5237,-0.3205,0.2405,-0.0165,0.1038,0.1524,1243,2019-08-07 16:46:04:229
-6.513,-6.3108,0.7933,-0.5237,-0.3205,0.2405,-0.009,0.0963,0.1652,1248,2019-08-07 16:46:04:234
-6.3886,-6.1533,0.6236,-0.5237,-0.3205,0.2405,-0.009,0.0963,0.1652,1253,2019-08-07 16:46:04:239
-6.3886,-6.1533,0.6236,-0.7295,-0.5844,0.4579,-0.0037,0.1038,0.1918,1258,2019-08-07 16:46:04:244
-6.3886,-6.1533,0.6236,-0.7295,-0.5844,0.4579,-0.0037,0.1038,0.1918,1263,2019-08-07 16:46:04:249
-6.2116,-5.7714,0.5812,-0.7295,-0.5844,0.4579,0.0464,0.1304,0.2621,1268,2019-08-07 16:46:04:254
-6.2116,-5.7714,0.5812,-0.7295,-0.5844,0.4579,0.0464,0.1304,0.2621,1273,2019-08-07 16:46:04:259
-5.714,-5.2128,0.7462,-1.4236,-1.4334,0.3116,0.1295,0.1485,0.3921,1278,2019-08-07 16:46:04:264
-5.714,-5.2128,0.7462,-1.4236,-1.4334,0.3116,0.1295,0.1485,0.3921,1283,2019-08-07 16:46:04:269
-5.714,-5.2128,0.7462,-1.4236,-1.4334,0.3116,0.1295,0.1485,0.3921,1288,2019-08-07 16:46:04:274
-4.671,-4.5922,0.8451,-1.4236,-1.4334,0.3116,0.2285,0.205,0.6254,1293,2019-08-07 16:46:04:279
-4.671,-4.5922,0.8451,-3.2562,-2.2092,0.1752,0.2285,0.205,0.6254,1298,2019-08-07 16:46:04:284
-3.762,-4.3201,1.1185,-3.2562,-2.2092,0.1752,0.302,0.2934,0.8661,1303,2019-08-07 16:46:04:289
-3.762,-4.3201,1.1185,-3.2562,-2.2092,0.1752,0.302,0.2934,0.8661,1308,2019-08-07 16:46:04:294
-3.762,-4.3201,1.1185,-3.2562,-2.2092,0.1752,0.3926,0.271,1.2731,1313,2019-08-07 16:46:04:299
-2.9295,-3.7807,2.0566,-4.5173,-2.668,-1.1285,0.3926,0.271,1.2731,1319,2019-08-07 16:46:04:305
-2.9295,-3.7807,2.0566,-4.5173,-2.668,-1.1285,0.3926,0.271,1.2731,1323,2019-08-07 16:46:04:309
-2.9295,-3.7807,2.0566,-4.5173,-2.668,-1.1285,0.432,-0.024,1.844,1327,2019-08-07 16:46:04:313
-2.2071,-2.9357,2.6977,-4.5173,-2.668,-1.1285,0.432,-0.024,1.844,1333,2019-08-07 16:46:04:319
-2.2071,-2.9357,2.6977,-5.9723,-3.8102,-2.0506,0.4309,-0.5141,2.4598,1339,2019-08-07 16:46:04:325
-2.2071,-2.9357,2.6977,-5.9723,-3.8102,-2.0506,0.4309,-0.5141,2.4598,1342,2019-08-07 16:46:04:328
-0.8436,-1.9284,2.9287,-5.9723,-3.8102,-2.0506,0.4011,-1.1788,3.2289,1348,2019-08-07 16:46:04:334
-0.8436,-1.9284,2.9287,-5.9723,-3.8102,-2.0506,0.4011,-1.1788,3.2289,1352,2019-08-07 16:46:04:338
2.0222,-1.2458,1.2317,-9.9348,-4.3607,0.2491,0.3127,-1.8765,4.2462,1358,2019-08-07 16:46:04:344
2.0222,-1.2458,1.2317,-9.9348,-4.3607,0.2491,0.3127,-1.8765,4.2462,1363,2019-08-07 16:46:04:349
2.0222,-1.2458,1.2317,-9.9348,-4.3607,0.2491,0.2914,-2.1769,5.0729,1368,2019-08-07 16:46:04:354
4.3282,-0.7159,-0.2343,-9.9348,-4.3607,0.2491,0.2914,-2.1769,5.0729,1374,2019-08-07 16:46:04:360
4.3282,-0.7159,-0.2343,-13.5821,-4.5792,2.7467,0.4011,-2.275,5.6524,1377,2019-08-07 16:46:04:363
5.5338,-0.1048,-1.0498,-13.5821,-4.5792,2.7467,0.4011,-2.275,5.6524,1384,2019-08-07 16:46:04:370
5.5338,-0.1048,-1.0498,-13.5821,-4.5792,2.7467,0.4011,-2.275,5.6524,1387,2019-08-07 16:46:04:373
5.5338,-0.1048,-1.0498,-13.5821,-4.5792,2.7467,0.8421,-2.0417,6.7634,1393,2019-08-07 16:46:04:379
6.218,0.7019,-2.1953,-13.5821,-4.5792,2.7467,0.8421,-2.0417,6.7634,1398,2019-08-07 16:46:04:384
6.218,0.7019,-2.1953,-15.1619,-4.6778,4.4702,1.1628,-1.5612,7.3706,1403,2019-08-07 16:46:04:389
5.2994,1.7426,-1.573,-15.1619,-4.6778,4.4702,1.1628,-1.5612,7.3706,1408,2019-08-07 16:46:04:394
5.2994,1.7426,-1.573,-15.1619,-4.6778,4.4702,1.4877,-1.1404,7.8287,1413,2019-08-07 16:46:04:399
5.2994,1.7426,-1.573,-11.5827,-4.8068,2.6795,1.4877,-1.1404,7.8287,1418,2019-08-07 16:46:04:404
1.3668,2.8788,0.3219,-11.5827,-4.8068,2.6795,1.4877,-1.1404,7.8287,1423,2019-08-07 16:46:04:409
1.3668,2.8788,0.3219,-11.5827,-4.8068,2.6795,1.8808,-1.166,8.3603,1428,2019-08-07 16:46:04:414
-3.0491,3.2321,2.4196,-11.5827,-4.8068,2.6795,2.1045,-1.95,8.9185,1433,2019-08-07 16:46:04:419
-3.0491,3.2321,2.4196,-11.5827,-4.8068,2.6795,2.1045,-1.95,8.9185,1438,2019-08-07 16:46:04:424
-3.0491,3.2321,2.4196,-4.8033,-3.3369,0.4739,2.1045,-1.95,8.9185,1443,2019-08-07 16:46:04:429
-5.9436,2.1341,2.6458,-4.8033,-3.3369,0.4739,2.3441,-3.3455,9.5395,1448,2019-08-07 16:46:04:434
-5.9436,2.1341,2.6458,-4.8033,-3.3369,0.4739,2.7979,-4.8582,10.1243,1454,2019-08-07 16:46:04:440
-5.9436,2.1341,2.6458,-4.8033,-3.3369,0.4739,2.7979,-4.8582,10.1243,1458,2019-08-07 16:46:04:444
-6.8573,-0.3053,1.7455,-2.1026,1.8818,1.9246,2.7979,-4.8582,10.1243,1463,2019-08-07 16:46:04:449
-6.8573,-0.3053,1.7455,-2.1026,1.8818,1.9246,3.8121,-6.373,10.6175,1467,2019-08-07 16:46:04:453
-6.8573,-0.3053,1.7455,-2.1026,1.8818,1.9246,3.8121,-6.373,10.6175,1473,2019-08-07 16:46:04:459
-4.6183,-1.9428,-0.5171,-2.1026,1.8818,1.9246,4.9807,-6.7597,10.6815,1478,2019-08-07 16:46:04:464
-4.6183,-1.9428,-0.5171,-4.3645,4.7646,6.4023,4.9807,-6.7597,10.6815,1483,2019-08-07 16:46:04:469
-2.1736,2.2868,-1.3326,-4.3645,4.7646,6.4023,6.5104,-5.9842,10.3033,1488,2019-08-07 16:46:04:474
-2.1736,2.2868,-1.3326,-4.3645,4.7646,6.4023,6.5104,-5.9842,10.3033,1493,2019-08-07 16:46:04:479
-2.1736,2.2868,-1.3326,-4.3645,4.7646,6.4023,6.5104,-5.9842,10.3033,1498,2019-08-07 16:46:04:484
-4.0777,12.9372,6.2849,-2.2234,-7.115,-1.5274,7.5682,-5.8351,9.9209,1502,2019-08-07 16:46:04:488
-4.0777,12.9372,6.2849,-2.2234,-7.115,-1.5274,7.5682,-5.8351,9.9209,1508,2019-08-07 16:46:04:494
-7.13,22.6949,8.6418,1.7421,-15.9082,-4.0431,8.3671,-5.9064,9.3339,1513,2019-08-07 16:46:04:499
-7.13,22.6949,8.6418,1.7421,-15.9082,-4.0431,8.3671,-5.9064,9.3339,1518,2019-08-07 16:46:04:504
-12.1152,36.434,10.2822,1.7421,-15.9082,-4.0431,8.7208,-5.7445,8.2537,1524,2019-08-07 16:46:04:510
-12.1152,36.434,10.2822,1.7421,-15.9082,-4.0431,8.7208,-5.7445,8.2537,1527,2019-08-07 16:46:04:513
-12.1152,36.434,10.2822,13.9202,-34.2649,-3.0633,8.4183,-6.4604,7.3664,1533,2019-08-07 16:46:04:519
-20.7268,43.0075,1.6607,13.9202,-34.2649,-3.0633,8.4183,-6.4604,7.3664,1538,2019-08-07 16:46:04:524
-20.7268,43.0075,1.6607,13.9202,-34.2649,-3.0633,6.4997,-7.1166,7.5869,1543,2019-08-07 16:46:04:529
-15.2345,32.6531,-11.5851,9.4055,-20.9465,15.7584,6.4997,-7.1166,7.5869,1549,2019-08-07 16:46:04:535
-15.2345,32.6531,-11.5851,9.4055,-20.9465,15.7584,3.5873,-6.8045,7.8223,1553,2019-08-07 16:46:04:539
-15.2345,32.6531,-11.5851,9.4055,-20.9465,15.7584,3.5873,-6.8045,7.8223,1558,2019-08-07 16:46:04:544
9.5192,22.6138,-10.8404,9.4055,-20.9465,15.7584,0.7878,-5.4633,6.4918,1563,2019-08-07 16:46:04:549
9.5192,22.6138,-10.8404,9.4055,-20.9465,15.7584,0.7878,-5.4633,6.4918,1569,2019-08-07 16:46:04:555
9.5192,22.6138,-10.8404,-17.4567,-9.5156,8.0773,0.7878,-5.4633,6.4918,1573,2019-08-07 16:46:04:559
19.2647,16.0641,2.2546,-17.4567,-9.5156,8.0773,-0.7196,-0.0762,3.3098,1578,2019-08-07 16:46:04:564
19.2647,16.0641,2.2546,-20.2566,-7.236,-37.5934,-0.7196,-0.0762,3.3098,1583,2019-08-07 16:46:04:569
19.2647,16.0641,2.2546,-20.2566,-7.236,-37.5934,-0.7196,-0.0762,3.3098,1588,2019-08-07 16:46:04:574
6.8544,10.7078,17.0182,-20.2566,-7.236,-37.5934,2.3143,1.903,0.162,1593,2019-08-07 16:46:04:579
6.8544,10.7078,17.0182,-20.2566,-7.236,-37.5934,3.1154,3.3986,-0.947,1598,2019-08-07 16:46:04:584
6.8544,10.7078,17.0182,0.7326,-2.1324,-3.2887,3.1154,3.3986,-0.947,1603,2019-08-07 16:46:04:589
-1.9152,12.4073,2.6081,0.7326,-2.1324,-3.2887,3.1154,3.3986,-0.947,1608,2019-08-07 16:46:04:594
-1.9152,12.4073,2.6081,0.7326,-2.1324,-3.2887,1.5921,4.4746,-1.6426,1613,2019-08-07 16:46:04:599
-5.4124,16.0402,3.3623,0.7326,-2.1324,-3.2887,1.5921,4.4746,-1.6426,1618,2019-08-07 16:46:04:604
-5.4124,16.0402,3.3623,6.5326,-7.9996,-3.9241,-1.184,3.7118,-2.3478,1622,2019-08-07 16:46:04:608
-8.2303,17.5105,8.3401,6.5326,-7.9996,-3.9241,-1.184,3.7118,-2.3478,1628,2019-08-07 16:46:04:614
-8.2303,17.5105,8.3401,6.5326,-7.9996,-3.9241,-2.9907,2.5539,-2.7707,1633,2019-08-07 16:46:04:619
-8.2303,17.5105,8.3401,6.5326,-7.9996,-3.9241,-2.9907,2.5539,-2.7707,1638,2019-08-07 16:46:04:624
-7.8341,15.4101,17.8713,6.8345,-5.9966,-15.2981,-3.73,1.7102,-2.8751,1643,2019-08-07 16:46:04:629
-7.8341,15.4101,17.8713,6.8345,-5.9966,-15.2981,-3.73,1.7102,-2.8751,1648,2019-08-07 16:46:04:634
-7.8341,15.4101,17.8713,6.8345,-5.9966,-15.2981,-2.4229,1.494,-2.8357,1653,2019-08-07 16:46:04:639
-4.9445,11.8727,19.1251,6.8345,-5.9966,-15.2981,-2.4229,1.494,-2.8357,1658,2019-08-07 16:46:04:644
-4.9445,11.8727,19.1251,3.094,-2.7076,-7.0223,-1.8626,0.8324,-2.9592,1663,2019-08-07 16:46:04:649
-4.5713,12.2928,7.9864,3.094,-2.7076,-7.0223,-1.8626,0.8324,-2.9592,1668,2019-08-07 16:46:04:654
-4.5713,12.2928,7.9864,3.094,-2.7076,-7.0223,-1.8626,0.8324,-2.9592,1672,2019-08-07 16:46:04:658
-4.5713,12.2928,7.9864,1.7404,-5.1989,-2.337,-2.4623,0.8346,-3.1861,1678,2019-08-07 16:46:04:664
-3.3657,15.329,4.2861,1.7404,-5.1989,-2.337,-2.4623,0.8346,-3.1861,1683,2019-08-07 16:46:04:669
-3.3657,15.329,4.2861,1.7404,-5.1989,-2.337,-3.6512,1.4716,-3.5792,1687,2019-08-07 16:46:04:673
-3.3657,15.329,4.2861,1.7404,-5.1989,-2.337,-3.6512,1.4716,-3.5792,1693,2019-08-07 16:46:04:679
-3.2652,15.0091,4.979,0.632,-6.3488,-1.1974,-3.6512,1.4716,-3.5792,1698,2019-08-07 16:46:04:684
-3.2652,15.0091,4.979,0.632,-6.3488,-1.1974,-4.1944,2.7648,-3.9883,1703,2019-08-07 16:46:04:689
-4.6383,13.5961,8.5002,0.632,-6.3488,-1.1974,-4.1944,2.7648,-3.9883,1708,2019-08-07 16:46:04:694
-4.6383,13.5961,8.5002,0.632,-6.3488,-1.1974,-4.0847,3.8748,-4.5028,1712,2019-08-07 16:46:04:698
-4.6383,13.5961,8.5002,2.3153,-5.2103,-4.5916,-4.0847,3.8748,-4.5028,1718,2019-08-07 16:46:04:704
-8.3557,12.9803,7.5433,2.3153,-5.2103,-4.5916,-3.8418,4.7856,-5.3571,1723,2019-08-07 16:46:04:709
-8.3557,12.9803,7.5433,2.3153,-5.2103,-4.5916,-3.8418,4.7856,-5.3571,1727,2019-08-07 16:46:04:713
-12.6854,12.9182,6.1716,7.8766,-5.6527,-1.6633,-3.8823,5.0988,-6.0155,1733,2019-08-07 16:46:04:719
-12.6854,12.9182,6.1716,7.8766,-5.6527,-1.6633,-3.8823,5.0988,-6.0155,1738,2019-08-07 16:46:04:724
-12.6854,12.9182,6.1716,7.8766,-5.6527,-1.6633,-3.8823,5.0988,-6.0155,1743,2019-08-07 16:46:04:729
-15.5464,11.8202,5.9925,7.8766,-5.6527,-1.6633,-4.0517,4.8304,-6.4938,1748,2019-08-07 16:46:04:734
-15.5464,11.8202,5.9925,10.0662,-4.3939,-1.6982,-4.2562,4.0495,-6.7388,1754,2019-08-07 16:46:04:740
-15.5464,11.8202,5.9925,10.0662,-4.3939,-1.6982,-4.2562,4.0495,-6.7388,1757,2019-08-07 16:46:04:743
-16.1157,9.5813,6.5911,10.0662,-4.3939,-1.6982,-4.2562,4.0495,-6.7388,1763,2019-08-07 16:46:04:749
-16.1157,9.5813,6.5911,10.0662,-4.3939,-1.6982,-4.3596,2.7243,-6.709,1769,2019-08-07 16:46:04:755
-13.3504,7.1896,7.8073,6.158,-2.3324,-3.2343,-4.3596,2.7243,-6.709,1772,2019-08-07 16:46:04:758
-13.3504,7.1896,7.8073,6.158,-2.3324,-3.2343,-4.1348,1.8316,-6.5502,1778,2019-08-07 16:46:04:764
-13.3504,7.1896,7.8073,6.158,-2.3324,-3.2343,-4.1348,1.8316,-6.5502,1783,2019-08-07 16:46:04:769
-9.2599,5.6525,6.6477,6.158,-2.3324,-3.2343,-4.1348,1.8316,-6.5502,1788,2019-08-07 16:46:04:774
-9.2599,5.6525,6.6477,6.158,-2.3324,-3.2343,-3.452,1.4812,-6.4448,1793,2019-08-07 16:46:04:779
-9.2599,5.6525,6.6477,-0.3819,-1.4571,0.0447,-3.452,1.4812,-6.4448,1798,2019-08-07 16:46:04:784
-6.6334,4.5067,2.7918,-0.3819,-1.4571,0.0447,-3.2059,1.2532,-6.4341,1803,2019-08-07 16:46:04:789
-6.6334,4.5067,2.7918,-0.3819,-1.4571,0.0447,-3.2059,1.2532,-6.4341,1808,2019-08-07 16:46:04:794
-4.6383,3.5759,0.9958,-0.3819,-1.4571,0.0447,-3.2272,1.3928,-6.4277,1813,2019-08-07 16:46:04:799
-4.6383,3.5759,0.9958,-4.0923,-1.1388,3.687,-3.2272,1.3928,-6.4277,1818,2019-08-07 16:46:04:804
-4.6383,3.5759,0.9958,-4.0923,-1.1388,3.687,-3.1835,1.9211,-6.5087,1823,2019-08-07 16:46:04:809
-3.1409,1.5899,2.2591,-4.0923,-1.1388,3.687,-3.1835,1.9211,-6.5087,1828,2019-08-07 16:46:04:814
-3.1409,1.5899,2.2591,-5.3605,0.1355,1.8875,-2.8213,2.3419,-6.6344,1833,2019-08-07 16:46:04:819
-3.1409,1.5899,2.2591,-5.3605,0.1355,1.8875,-2.8213,2.3419,-6.6344,1838,2019-08-07 16:46:04:824
-3.8298,0.1053,2.0517,-5.3605,0.1355,1.8875,-2.8213,2.3419,-6.6344,1843,2019-08-07 16:46:04:829
-3.8298,0.1053,2.0517,-5.3605,0.1355,1.8875,-2.3547,2.687,-6.6898,1849,2019-08-07 16:46:04:835
-5.0594,-0.4198,1.5379,-5.3605,0.1355,1.8875,-2.3547,2.687,-6.6898,1852,2019-08-07 16:46:04:838
-5.0594,-0.4198,1.5379,-3.7763,-0.2857,2.206,-1.8892,2.9438,-6.5747,1858,2019-08-07 16:46:04:844
-5.0594,-0.4198,1.5379,-3.7763,-0.2857,2.206,-1.8892,2.9438,-6.5747,1863,2019-08-07 16:46:04:849
-5.3177,0.1483,2.3157,-3.7763,-0.2857,2.206,-1.5366,3.0631,-6.4778,1868,2019-08-07 16:46:04:854
-5.3177,0.1483,2.3157,-3.7763,-0.2857,2.206,-1.5366,3.0631,-6.4778,1873,2019-08-07 16:46:04:859
-4.9924,0.6591,2.311,-3.9486,-2.5803,0.6977,-1.2064,2.9012,-6.3436,1878,2019-08-07 16:46:04:864
-4.9924,0.6591,2.311,-3.9486,-2.5803,0.6977,-1.2064,2.9012,-6.3436,1883,2019-08-07 16:46:04:869
-4.9924,0.6591,2.311,-3.9486,-2.5803,0.6977,-0.9678,2.8713,-6.1667,1888,2019-08-07 16:46:04:874
-3.8585,0.5206,0.7601,-3.9486,-2.5803,0.6977,-0.9678,2.8713,-6.1667,1892,2019-08-07 16:46:04:878
-3.8585,0.5206,0.7601,-5.4633,-3.3795,2.0684,-0.8101,2.9512,-6.0347,1898,2019-08-07 16:46:04:884
-3.0261,-0.2146,0.3547,-5.4633,-3.3795,2.0684,-0.8101,2.9512,-6.0347,1903,2019-08-07 16:46:04:889
-3.0261,-0.2146,0.3547,-5.4633,-3.3795,2.0684,-0.5193,3.127,-5.7822,1908,2019-08-07 16:46:04:894
-3.0261,-0.2146,0.3547,-5.4633,-3.3795,2.0684,-0.5193,3.127,-5.7822,1913,2019-08-07 16:46:04:899
-3.0835,-1.0882,0.7648,-5.5467,-3.0754,1.3375,-0.2274,3.2165,-5.5244,1918,2019-08-07 16:46:04:904
-3.0835,-1.0882,0.7648,-5.5467,-3.0754,1.3375,-0.2274,3.2165,-5.5244,1923,2019-08-07 16:46:04:909
-3.8251,-1.6467,1.2315,-4.6252,-2.9921,0.5881,-0.0357,3.1494,-5.2687,1928,2019-08-07 16:46:04:914
-3.8251,-1.6467,1.2315,-4.6252,-2.9921,0.5881,-0.0357,3.1494,-5.2687,1933,2019-08-07 16:46:04:919
-3.8251,-1.6467,1.2315,-4.6252,-2.9921,0.5881,0.1636,2.8223,-4.7936,1938,2019-08-07 16:46:04:924
-5.3991,-1.6658,1.9197,-4.6252,-2.9921,0.5881,0.1636,2.8223,-4.7936,1942,2019-08-07 16:46:04:928
-5.3991,-1.6658,1.9197,-1.8431,-4.2058,-0.8871,0.1636,2.8223,-4.7936,1948,2019-08-07 16:46:04:934
-6.643,-0.9068,2.5042,-1.8431,-4.2058,-0.8871,0.236,2.3238,-4.3963,1953,2019-08-07 16:46:04:939
-6.643,-0.9068,2.5042,-1.8431,-4.2058,-0.8871,0.236,2.3238,-4.3963,1957,2019-08-07 16:46:04:943
-6.643,-0.9068,2.5042,-1.8431,-4.2058,-0.8871,0.1998,1.6836,-3.9627,1963,2019-08-07 16:46:04:949
-5.4087,-0.8017,1.75,-2.2225,-5.2658,-0.661,0.1998,1.6836,-3.9627,1967,2019-08-07 16:46:04:953
-5.4087,-0.8017,1.75,-2.2225,-5.2658,-0.661,0.0208,0.9677,-3.4716,1973,2019-08-07 16:46:04:959
-3.8012,-1.1645,1.5662,-3.6299,-5.1576,-0.5436,0.0208,0.9677,-3.4716,1978,2019-08-07 16:46:04:964
-3.8012,-1.1645,1.5662,-3.6299,-5.1576,-0.5436,-0.1049,0.7259,-3.1254,1983,2019-08-07 16:46:04:969
-3.8012,-1.1645,1.5662,-3.6299,-5.1576,-0.5436,-0.1049,0.7259,-3.1254,1987,2019-08-07 16:46:04:973
-1.3804,-2.6444,1.0147,-3.6299,-5.1576,-0.5436,-0.1049,0.7259,-3.1254,1993,2019-08-07 16:46:04:979
-1.3804,-2.6444,1.0147,-5.8246,-3.6217,0.372,-0.0868,0.7674,-2.7568,1998,2019-08-07 16:46:04:984
-1.3804,-2.6444,1.0147,-5.8246,-3.6217,0.372,-0.0868,0.7674,-2.7568,2003,2019-08-07 16:46:04:989
-1.8588,-3.8665,0.3217,-5.8246,-3.6217,0.372,-0.0463,0.9698,-2.4532,2008,2019-08-07 16:46:04:994
-1.8588,-3.8665,0.3217,-5.8246,-3.6217,0.372,-0.0218,0.9986,-2.1155,2014,2019-08-07 16:46:05:000
-4.8442,-4.1386,1.8631,-1.8599,-2.9799,-1.0771,-0.0218,0.9986,-2.1155,2018,2019-08-07 16:46:05:004
-4.8442,-4.1386,1.8631,-1.8599,-2.9799,-1.0771,-0.0218,0.9986,-2.1155,2023,2019-08-07 16:46:05:009
-4.8442,-4.1386,1.8631,-1.8599,-2.9799,-1.0771,-0.0101,0.3946,-1.6447,2027,2019-08-07 16:46:05:013
-7.6238,-3.8188,2.9426,-1.8599,-2.9799,-1.0771,-0.0101,0.3946,-1.6447,2033,2019-08-07 16:46:05:019
-7.6238,-3.8188,2.9426,1.074,-3.2193,-1.5012,-0.1422,-0.4502,-1.3571,2038,2019-08-07 16:46:05:024
-7.6238,-3.8188,2.9426,1.074,-3.2193,-1.5012,-0.1422,-0.4502,-1.3571,2043,2019-08-07 16:46:05:029
-6.7674,-4.3391,1.9386,1.074,-3.2193,-1.5012,-0.1422,-0.4502,-1.3571,2048,2019-08-07 16:46:05:034
-6.7674,-4.3391,1.9386,-0.4275,-2.9126,-0.514,-0.4096,-1.3684,-1.2463,2053,2019-08-07 16:46:05:039
-4.227,-4.4728,0.1332,-0.4275,-2.9126,-0.514,-0.4096,-1.3684,-1.2463,2057,2019-08-07 16:46:05:043
-4.227,-4.4728,0.1332,-0.4275,-2.9126,-0.514,-0.6652,-1.7839,-1.0471,2063,2019-08-07 16:46:05:049
-4.227,-4.4728,0.1332,-4.5102,-2.4742,1.5204,-0.6652,-1.7839,-1.0471,2068,2019-08-07 16:46:05:054
-1.1555,-5.2748,-1.1961,-4.5102,-2.4742,1.5204,-0.5683,-1.264,-0.7627,2072,2019-08-07 16:46:05:058
-1.1555,-5.2748,-1.1961,-4.5102,-2.4742,1.5204,-0.5683,-1.264,-0.7627,2078,2019-08-07 16:46:05:064
0.6816,-6.6735,-2.4971,-4.5102,-2.4742,1.5204,-0.4841,-0.317,-0.6135,2084,2019-08-07 16:46:05:070
0.6816,-6.6735,-2.4971,-6.732,-0.5504,3.4361,-0.4841,-0.317,-0.6135,2088,2019-08-07 16:46:05:074
0.6816,-6.6735,-2.4971,-6.732,-0.5504,3.4361,-0.4841,-0.317,-0.6135,2093,2019-08-07 16:46:05:079
-0.0073,-7.4517,-2.2379,-6.732,-0.5504,3.4361,-0.3776,0.727,-0.5368,2098,2019-08-07 16:46:05:084
-0.0073,-7.4517,-2.2379,-5.476,-0.3015,2.9356,-0.3776,0.727,-0.5368,2103,2019-08-07 16:46:05:089
-0.0073,-7.4517,-2.2379,-5.476,-0.3015,2.9356,-0.1102,1.7549,-0.4069,2108,2019-08-07 16:46:05:094
-4.0835,-7.17,-0.7153,-5.476,-0.3015,2.9356,-0.1102,1.7549,-0.4069,2113,2019-08-07 16:46:05:099
-4.0835,-7.17,-0.7153,0.2493,-0.8308,0.2784,0.1071,1.9968,-0.2364,2118,2019-08-07 16:46:05:104
-7.2937,-6.7881,0.8025,0.2493,-0.8308,0.2784,0.1071,1.9968,-0.2364,2122,2019-08-07 16:46:05:108
-7.2937,-6.7881,0.8025,0.2493,-0.8308,0.2784,0.204,1.5707,-0.0745,2128,2019-08-07 16:46:05:114
-7.2937,-6.7881,0.8025,0.2493,-0.8308,0.2784,0.204,1.5707,-0.0745,2133,2019-08-07 16:46:05:119
-8.9874,-6.3537,1.5332,3.0306,-1.3623,-1.0727,0.2179,0.5288,0.1726,2137,2019-08-07 16:46:05:123
-8.9874,-6.3537,1.5332,3.0306,-1.3623,-1.0727,0.2179,0.5288,0.1726,2143,2019-08-07 16:46:05:129
-8.9874,-6.3537,1.5332,3.0306,-1.3623,-1.0727,0.1987,-0.2861,0.3207,2148,2019-08-07 16:46:05:134
-8.2506,-6.8406,1.585,3.0306,-1.3623,-1.0727,0.1987,-0.2861,0.3207,2153,2019-08-07 16:46:05:139
-8.2506,-6.8406,1.585,3.0306,-1.3623,-1.0727,0.1987,-0.2861,0.3207,2158,2019-08-07 16:46:05:144
-7.1789,-7.1366,1.0335,1.1793,-0.6083,-0.5255,0.1902,-0.8198,0.3825,2163,2019-08-07 16:46:05:149
-7.1789,-7.1366,1.0335,1.1793,-0.6083,-0.5255,0.1902,-0.8198,0.3825,2168,2019-08-07 16:46:05:154
-5.3083,-7.3037,0.0766,1.1793,-0.6083,-0.5255,0.2179,-1.0371,0.4315,2173,2019-08-07 16:46:05:159
-5.3083,-7.3037,0.0766,1.1793,-0.6083,-0.5255,0.2179,-1.0371,0.4315,2178,2019-08-07 16:46:05:164
-5.3083,-7.3037,0.0766,-1.2955,-0.2923,0.8824,0.2243,-0.9125,0.424,2184,2019-08-07 16:46:05:170
-4.1744,-7.5137,-0.3477,-1.2955,-0.2923,0.8824,0.2243,-0.9125,0.424,2188,2019-08-07 16:46:05:174
-4.1744,-7.5137,-0.3477,-1.2955,-0.2923,0.8824,0.2136,-0.4342,0.3505,2192,2019-08-07 16:46:05:178
-4.1744,-7.5137,-0.3477,-1.2955,-0.2923,0.8824,0.2136,-0.4342,0.3505,2199,2019-08-07 16:46:05:185
-4.0022,-7.824,-0.4278,-2.0906,0.1724,1.1812,0.2136,-0.4342,0.3505,2203,2019-08-07 16:46:05:189
-4.0022,-7.824,-0.4278,-2.0906,0.1724,1.1812,0.2008,0.2295,0.2366,2208,2019-08-07 16:46:05:194
-4.0022,-7.824,-0.4278,-2.0906,0.1724,1.1812,0.2008,0.2295,0.2366,2212,2019-08-07 16:46:05:198
-5.2126,-7.8431,0.482,-2.0906,0.1724,1.1812,0.171,0.6375,0.1449,2218,2019-08-07 16:46:05:204
-5.2126,-7.8431,0.482,-0.2927,0.1464,-0.0844,0.171,0.6375,0.1449,2222,2019-08-07 16:46:05:208
-5.2126,-7.8431,0.482,-0.2927,0.1464,-0.0844,0.105,0.7824,0.0661,2228,2019-08-07 16:46:05:214
-6.8441,-7.5614,1.3163,-0.2927,0.1464,-0.0844,0.105,0.7824,0.0661,2234,2019-08-07 16:46:05:220
-6.8441,-7.5614,1.3163,-0.2927,0.1464,-0.0844,0.0261,0.6396,0.0203,2238,2019-08-07 16:46:05:224
-7.5952,-7.4182,1.7735,1.363,-0.2041,-1.0296,0.0261,0.6396,0.0203,2243,2019-08-07 16:46:05:229
-7.5952,-7.4182,1.7735,1.363,-0.2041,-1.0296,-0.0623,0.3158,-0.0148,2249,2019-08-07 16:46:05:235
-7.5952,-7.4182,1.7735,1.4667,-0.249,-1.3666,-0.0623,0.3158,-0.0148,2253,2019-08-07 16:46:05:239
-7.4852,-7.423,1.948,1.4667,-0.249,-1.3666,-0.139,-0.0368,-0.0394,2258,2019-08-07 16:46:05:244
-7.4852,-7.423,1.948,1.4667,-0.249,-1.3666,-0.139,-0.0368,-0.0394,2263,2019-08-07 16:46:05:249
-6.7053,-7.5137,1.3634,1.4667,-0.249,-1.3666,-0.1922,-0.284,-0.0489,2268,2019-08-07 16:46:05:254
-6.7053,-7.5137,1.3634,0.3492,-0.1462,-0.6344,-0.1922,-0.284,-0.0489,2273,2019-08-07 16:46:05:259
-6.7053,-7.5137,1.3634,0.3492,-0.1462,-0.6344,-0.2061,-0.3852,-0.0564,2278,2019-08-07 16:46:05:264
-5.9542,-7.4803,0.9486,-0.1899,-0.141,-0.3151,-0.2061,-0.3852,-0.0564,2284,2019-08-07 16:46:05:270
-5.9542,-7.4803,0.9486,-0.1899,-0.141,-0.3151,-0.2061,-0.3852,-0.0564,2287,2019-08-07 16:46:05:273
-5.9542,-7.4803,0.9486,-0.1899,-0.141,-0.3151,-0.1859,-0.3436,-0.0394,2293,2019-08-07 16:46:05:279
-5.3371,-7.5233,0.4018,-0.1899,-0.141,-0.3151,-0.1859,-0.3436,-0.0394,2298,2019-08-07 16:46:05:284
-5.3371,-7.5233,0.4018,-1.0418,-0.137,0.5357,-0.1582,-0.1774,-0.0383,2303,2019-08-07 16:46:05:289
-5.1026,-7.528,0.0577,-1.0418,-0.137,0.5357,-0.1582,-0.1774,-0.0383,2308,2019-08-07 16:46:05:294
-5.1026,-7.528,0.0577,-1.0418,-0.137,0.5357,-0.1145,-0.0123,-0.0436,2313,2019-08-07 16:46:05:299
-5.5476,-7.4469,0.416,-1.0418,-0.137,0.5357,-0.1145,-0.0123,-0.0436,2318,2019-08-07 16:46:05:304
-5.5476,-7.4469,0.416,-0.4055,-0.2084,0.12,-0.0239,0.2124,-0.0298,2322,2019-08-07 16:46:05:308
-5.5476,-7.4469,0.416,-0.4055,-0.2084,0.12,-0.0239,0.2124,-0.0298,2328,2019-08-07 16:46:05:314
-6.2365,-7.2607,0.548,0.116,-0.3815,0.0616,6.0E-4,0.2519,-0.0138,2333,2019-08-07 16:46:05:319
-6.2365,-7.2607,0.548,0.116,-0.3815,0.0616,6.0E-4,0.2519,-0.0138,2338,2019-08-07 16:46:05:324
-6.2365,-7.2607,0.548,0.116,-0.3815,0.0616,6.0E-4,0.2519,-0.0138,2343,2019-08-07 16:46:05:329
-6.9207,-7.1604,0.9863,0.116,-0.3815,0.0616,-0.0133,0.124,0.0107,2348,2019-08-07 16:46:05:334
-6.9207,-7.1604,0.9863,0.8215,-0.4298,-0.3968,-0.0133,0.124,0.0107,2352,2019-08-07 16:46:05:338
-6.9207,-7.1604,0.9863,0.8215,-0.4298,-0.3968,-0.0442,-0.0848,0.0342,2358,2019-08-07 16:46:05:344
-6.8489,-7.2941,0.8968,0.8215,-0.4298,-0.3968,-0.0442,-0.0848,0.0342,2362,2019-08-07 16:46:05:348
-6.8489,-7.2941,0.8968,0.8215,-0.4298,-0.3968,-0.0793,-0.301,0.0544,2367,2019-08-07 16:46:05:353
-6.3514,-7.3991,0.6234,0.2154,-0.2308,-0.0154,-0.0793,-0.301,0.0544,2373,2019-08-07 16:46:05:359
-6.3514,-7.3991,0.6234,0.2154,-0.2308,-0.0154,-0.107,-0.4672,0.0725,2378,2019-08-07 16:46:05:364
-6.3514,-7.3991,0.6234,0.2154,-0.2308,-0.0154,-0.107,-0.4672,0.0725,2383,2019-08-07 16:46:05:369
-5.7916,-7.5423,0.3075,0.2154,-0.2308,-0.0154,-0.107,-0.4672,0.0725,2388,2019-08-07 16:46:05:374
-5.7916,-7.5423,0.3075,-0.6314,-0.0662,0.4818,-0.0942,-0.4821,0.0789,2393,2019-08-07 16:46:05:379
-5.3036,-7.571,-0.0696,-0.6314,-0.0662,0.4818,-0.0942,-0.4821,0.0789,2399,2019-08-07 16:46:05:385
-5.3036,-7.571,-0.0696,-0.6314,-0.0662,0.4818,-0.0665,-0.4043,0.0789,2403,2019-08-07 16:46:05:389
-5.3036,-7.571,-0.0696,-0.6314,-0.0662,0.4818,-0.0665,-0.4043,0.0789,2408,2019-08-07 16:46:05:394
-5.0596,-7.5185,-0.2534,-1.0598,-0.1473,0.9514,-0.0314,-0.2573,0.0714,2413,2019-08-07 16:46:05:399
-5.0596,-7.5185,-0.2534,-1.0598,-0.1473,0.9514,-0.0314,-0.2573,0.0714,2419,2019-08-07 16:46:05:405
-5.0596,-7.5185,-0.2534,-1.0598,-0.1473,0.9514,0.0155,-0.0315,0.0459,2423,2019-08-07 16:46:05:409
-5.1984,-7.4755,-0.2251,-1.0598,-0.1473,0.9514,0.0155,-0.0315,0.0459,2428,2019-08-07 16:46:05:414
-5.1984,-7.4755,-0.2251,-0.6034,-0.2164,0.7735,0.0379,0.1283,0.0267,2433,2019-08-07 16:46:05:419
-5.1984,-7.4755,-0.2251,-0.6034,-0.2164,0.7735,0.0379,0.1283,0.0267,2438,2019-08-07 16:46:05:424
-5.806,-7.423,0.0624,-0.6034,-0.2164,0.7735,0.0485,0.2071,0.0097,2443,2019-08-07 16:46:05:429
-5.806,-7.423,0.0624,-0.6034,-0.2164,0.7735,0.0485,0.2071,0.0097,2448,2019-08-07 16:46:05:434
-6.2079,-7.3562,0.4018,0.0574,-0.2578,0.2583,0.0485,0.2071,0.0097,2453,2019-08-07 16:46:05:439
-6.2079,-7.3562,0.4018,0.0574,-0.2578,0.2583,0.0528,0.1879,-0.0138,2458,2019-08-07 16:46:05:444
-6.2079,-7.3562,0.4018,0.0574,-0.2578,0.2583,0.0528,0.1879,-0.0138,2463,2019-08-07 16:46:05:449
-6.4519,-7.3418,0.6516,0.0574,-0.2578,0.2583,0.0453,0.0974,-0.0138,2468,2019-08-07 16:46:05:454
-6.4519,-7.3418,0.6516,0.2277,-0.2522,0.0324,0.0453,0.0974,-0.0138,2473,2019-08-07 16:46:05:459
-6.3801,-7.318,0.6941,0.2277,-0.2522,0.0324,0.0261,-0.0123,-0.0127,2478,2019-08-07 16:46:05:464
-6.3801,-7.318,0.6941,0.2277,-0.2522,0.0324,0.0261,-0.0123,-0.0127,2484,2019-08-07 16:46:05:470
-6.3801,-7.318,0.6941,0.2277,-0.2522,0.0324,0.0016,-0.1231,-0.0042,2487,2019-08-07 16:46:05:473
-6.0261,-7.2846,0.7035,-0.2165,-0.2995,0.054,0.0016,-0.1231,-0.0042,2493,2019-08-07 16:46:05:479
-6.0261,-7.2846,0.7035,-0.2165,-0.2995,0.054,-0.008,-0.1902,0.0065,2498,2019-08-07 16:46:05:484
-6.0261,-7.2846,0.7035,-0.2165,-0.2995,0.054,-0.008,-0.1902,0.0065,2503,2019-08-07 16:46:05:489
-5.696,-7.3705,0.4159,-0.2165,-0.2995,0.054,-0.008,-0.1902,0.0065,2507,2019-08-07 16:46:05:493
-5.696,-7.3705,0.4159,-0.2165,-0.2995,0.054,-0.0101,-0.1636,0.0182,2513,2019-08-07 16:46:05:499
-5.4903,-7.3514,0.35,-0.6308,-0.2325,0.3278,-0.0101,-0.1636,0.0182,2518,2019-08-07 16:46:05:504
-5.4903,-7.3514,0.35,-0.6308,-0.2325,0.3278,-0.0048,-0.0869,0.0192,2522,2019-08-07 16:46:05:508
-5.4903,-7.3514,0.35,-0.6308,-0.2325,0.3278,-0.0048,-0.0869,0.0192,2528,2019-08-07 16:46:05:514
-5.4424,-7.2989,0.3311,-0.7791,-0.3275,0.4422,-0.0026,-0.023,0.0256,2534,2019-08-07 16:46:05:520
-5.4424,-7.2989,0.3311,-0.7791,-0.3275,0.4422,-0.0026,-0.023,0.0256,2537,2019-08-07 16:46:05:523
-5.4711,-7.3084,0.3641,-0.7791,-0.3275,0.4422,0.0144,0.1144,0.0267,2543,2019-08-07 16:46:05:529
-5.4711,-7.3084,0.3641,-0.7791,-0.3275,0.4422,0.0144,0.1144,0.0267,2548,2019-08-07 16:46:05:534
-5.4711,-7.3084,0.3641,-0.7791,-0.3275,0.4422,0.0144,0.1144,0.0267,2553,2019-08-07 16:46:05:539
-5.7295,-7.3275,0.4819,-0.4246,-0.2824,0.1908,0.0293,0.222,0.0278,2558,2019-08-07 16:46:05:544
-5.7295,-7.3275,0.4819,-0.4246,-0.2824,0.1908,0.0293,0.222,0.0278,2563,2019-08-07 16:46:05:549
-6.0022,-7.2082,0.5856,-0.4246,-0.2824,0.1908,0.0336,0.2519,0.0427,2568,2019-08-07 16:46:05:554
-6.0022,-7.2082,0.5856,-0.4246,-0.2824,0.1908,0.0336,0.2519,0.0427,2572,2019-08-07 16:46:05:558
-6.0022,-7.2082,0.5856,-0.0133,-0.3531,-0.0613,0.041,0.2306,0.0491,2578,2019-08-07 16:46:05:564
-6.318,-7.2034,0.76,-0.0133,-0.3531,-0.0613,0.041,0.2306,0.0491,2583,2019-08-07 16:46:05:569
-6.318,-7.2034,0.76,-0.0133,-0.3531,-0.0613,0.0421,0.14,0.0693,2588,2019-08-07 16:46:05:574
-6.5859,-7.2368,0.9297,-0.0133,-0.3531,-0.0613,0.0421,0.14,0.0693,2593,2019-08-07 16:46:05:579
-6.5859,-7.2368,0.9297,0.393,-0.3567,-0.2871,0.0251,0.0282,0.0853,2598,2019-08-07 16:46:05:584
-6.5859,-7.2368,0.9297,0.393,-0.3567,-0.2871,0.0251,0.0282,0.0853,2602,2019-08-07 16:46:05:588
-6.5285,-7.2082,0.9769,0.393,-0.3567,-0.2871,0.0251,0.0282,0.0853,2608,2019-08-07 16:46:05:594
-6.5285,-7.2082,0.9769,0.393,-0.3567,-0.2871,-0.0048,-0.1444,0.097,2613,2019-08-07 16:46:05:599
-6.1936,-7.2464,0.859,0.1232,-0.4283,-0.2707,-0.0048,-0.1444,0.097,2617,2019-08-07 16:46:05:603
-6.1936,-7.2464,0.859,0.1232,-0.4283,-0.2707,-0.025,-0.2435,0.1034,2623,2019-08-07 16:46:05:609
-6.1936,-7.2464,0.859,0.1232,-0.4283,-0.2707,-0.025,-0.2435,0.1034,2628,2019-08-07 16:46:05:614
-5.7965,-7.318,0.5526,0.1232,-0.4283,-0.2707,-0.0314,-0.219,0.1023,2633,2019-08-07 16:46:05:619
-5.7965,-7.318,0.5526,-0.5447,-0.2202,0.1036,-0.0314,-0.219,0.1023,2638,2019-08-07 16:46:05:624
-5.7965,-7.318,0.5526,-0.5447,-0.2202,0.1036,-0.0314,-0.219,0.1023,2643,2019-08-07 16:46:05:629
-5.5287,-7.3991,0.4961,-0.5447,-0.2202,0.1036,-0.0293,-0.1348,0.0959,2648,2019-08-07 16:46:05:634
-5.5287,-7.3991,0.4961,-0.5447,-0.2202,0.1036,-0.0239,-0.0155,0.0821,2653,2019-08-07 16:46:05:639
-5.5047,-7.4039,0.2085,-0.7126,-0.1539,0.4701,-0.0239,-0.0155,0.0821,2658,2019-08-07 16:46:05:644
-5.5047,-7.4039,0.2085,-0.7126,-0.1539,0.4701,-0.0239,-0.0155,0.0821,2664,2019-08-07 16:46:05:650
-5.6578,-7.4278,0.1991,-0.7126,-0.1539,0.4701,-0.0069,0.1453,0.0672,2667,2019-08-07 16:46:05:653
-5.6578,-7.4278,0.1991,-0.7126,-0.1539,0.4701,-0.0069,0.1453,0.0672,2673,2019-08-07 16:46:05:659
-5.6578,-7.4278,0.1991,-0.5022,-0.0761,0.3699,0.0197,0.2465,0.0523,2678,2019-08-07 16:46:05:664
-5.7153,-7.5041,0.3264,-0.5022,-0.0761,0.3699,0.0197,0.2465,0.0523,2683,2019-08-07 16:46:05:669
-5.7153,-7.5041,0.3264,-0.5022,-0.0761,0.3699,0.0421,0.3275,0.0352,2688,2019-08-07 16:46:05:674
-5.7153,-7.5041,0.3264,-0.5022,-0.0761,0.3699,0.0421,0.3275,0.0352,2693,2019-08-07 16:46:05:679
-6.0789,-7.3705,0.5008,-0.0857,-0.205,0.0809,0.0421,0.3275,0.0352,2697,2019-08-07 16:46:05:683
-6.0789,-7.3705,0.5008,-0.0857,-0.205,0.0809,0.0517,0.336,0.031,2703,2019-08-07 16:46:05:689
-6.4616,-7.1986,0.7223,-0.0857,-0.205,0.0809,0.0517,0.336,0.031,2708,2019-08-07 16:46:05:694
-6.4616,-7.1986,0.7223,-0.0857,-0.205,0.0809,0.0464,0.2678,0.0331,2713,2019-08-07 16:46:05:699
-6.4616,-7.1986,0.7223,0.401,-0.3368,-0.188,0.0464,0.2678,0.0331,2717,2019-08-07 16:46:05:703
-6.653,-7.2273,0.793,0.401,-0.3368,-0.188,0.0208,0.091,0.0427,2723,2019-08-07 16:46:05:709
-6.653,-7.2273,0.793,0.401,-0.3368,-0.188,0.0208,0.091,0.0427,2727,2019-08-07 16:46:05:713
-6.4808,-7.2034,0.6563,0.401,-0.3368,-0.188,-0.0026,-0.0411,0.0491,2733,2019-08-07 16:46:05:719
-6.4808,-7.2034,0.6563,0.0897,-0.2762,-0.0587,-0.0026,-0.0411,0.0491,2738,2019-08-07 16:46:05:724
-6.4808,-7.2034,0.6563,0.0897,-0.2762,-0.0587,-0.0154,-0.1157,0.0469,2743,2019-08-07 16:46:05:729
-6.1267,-7.2893,0.5997,0.0897,-0.2762,-0.0587,-0.0154,-0.1157,0.0469,2748,2019-08-07 16:46:05:734
-6.1267,-7.2893,0.5997,0.0897,-0.2762,-0.0587,-0.0154,-0.1157,0.0469,2753,2019-08-07 16:46:05:739
-5.7823,-7.3036,0.496,-0.4802,-0.223,0.1099,-0.0218,-0.1487,0.0437,2758,2019-08-07 16:46:05:744
-5.7823,-7.3036,0.496,-0.4802,-0.223,0.1099,-0.0218,-0.1487,0.0437,2763,2019-08-07 16:46:05:749
-5.7823,-7.3036,0.496,-0.4802,-0.223,0.1099,-0.0165,-0.1274,0.0501,2768,2019-08-07 16:46:05:754
-5.6053,-7.2225,0.3735,-0.4802,-0.223,0.1099,-0.0165,-0.1274,0.0501,2773,2019-08-07 16:46:05:759
-5.6053,-7.2225,0.3735,-0.7908,-0.29,0.3189,-0.0037,-0.073,0.0576,2778,2019-08-07 16:46:05:764
-5.4713,-7.2607,0.2321,-0.7908,-0.29,0.3189,-0.0037,-0.073,0.0576,2783,2019-08-07 16:46:05:769
-5.4713,-7.2607,0.2321,-0.7908,-0.29,0.3189,0.0091,0.0431,0.0469,2787,2019-08-07 16:46:05:773
-5.4713,-7.2607,0.2321,-0.7908,-0.29,0.3189,0.0091,0.0431,0.0469,2793,2019-08-07 16:46:05:779
-5.8158,-7.2463,0.3688,-0.4521,-0.2617,0.3098,0.0219,0.1027,0.0405,2798,2019-08-07 16:46:05:784
-5.8158,-7.2463,0.3688,-0.4521,-0.2617,0.3098,0.0219,0.1027,0.0405,2803,2019-08-07 16:46:05:789
-5.9354,-7.17,0.4583,-0.4521,-0.2617,0.3098,0.0272,0.1251,0.0448,2808,2019-08-07 16:46:05:794
-5.9354,-7.17,0.4583,-0.4521,-0.2617,0.3098,0.0272,0.1251,0.0448,2813,2019-08-07 16:46:05:799
-5.9354,-7.17,0.4583,-0.197,-0.2846,0.0949,0.0304,0.1187,0.0437,2818,2019-08-07 16:46:05:804
-6.1507,-7.1938,0.5526,-0.197,-0.2846,0.0949,0.0304,0.1187,0.0437,2823,2019-08-07 16:46:05:809
-6.1507,-7.1938,0.5526,-0.197,-0.2846,0.0949,0.0283,0.0899,0.0437,2828,2019-08-07 16:46:05:814
-6.232,-7.1938,0.6092,-0.197,-0.2846,0.0949,0.0283,0.0899,0.0437,2834,2019-08-07 16:46:05:820
-6.232,-7.1938,0.6092,-3.0E-4,-0.3063,-0.0154,0.0283,0.0899,0.0437,2837,2019-08-07 16:46:05:823
-6.232,-7.1938,0.6092,-3.0E-4,-0.3063,-0.0154,0.0283,0.0367,0.0523,2843,2019-08-07 16:46:05:829
-6.299,-7.2129,0.5432,-3.0E-4,-0.3063,-0.0154,0.0283,0.0367,0.0523,2848,2019-08-07 16:46:05:834
-6.299,-7.2129,0.5432,0.0092,-0.3164,0.014,0.0336,-0.0145,0.0555,2853,2019-08-07 16:46:05:839
-6.299,-7.2129,0.5432,0.0092,-0.3164,0.014,0.0336,-0.0145,0.0555,2858,2019-08-07 16:46:05:844
-6.2416,-7.232,0.661,0.0092,-0.3164,0.014,0.0315,-0.0741,0.0565,2863,2019-08-07 16:46:05:849
-6.2416,-7.232,0.661,-0.1331,-0.1938,-0.015,0.0315,-0.0741,0.0565,2868,2019-08-07 16:46:05:854
-6.0742,-7.2654,0.5903,-0.1331,-0.1938,-0.015,0.0251,-0.1231,0.0533,2873,2019-08-07 16:46:05:859
-6.0742,-7.2654,0.5903,-0.1331,-0.1938,-0.015,0.0251,-0.1231,0.0533,2878,2019-08-07 16:46:05:864
-6.0742,-7.2654,0.5903,-0.1331,-0.1938,-0.015,0.0165,-0.1348,0.0501,2883,2019-08-07 16:46:05:869
-5.9929,-7.2941,0.4536,-0.3733,-0.1538,0.2208,0.0165,-0.1348,0.0501,2889,2019-08-07 16:46:05:875
-5.9929,-7.2941,0.4536,-0.3733,-0.1538,0.2208,0.0165,-0.1348,0.0501,2892,2019-08-07 16:46:05:878
-5.9929,-7.2941,0.4536,-0.3733,-0.1538,0.2208,0.007,-0.1167,0.0491,2898,2019-08-07 16:46:05:884
-5.8589,-7.38,0.562,-0.3733,-0.1538,0.2208,0.007,-0.1167,0.0491,2903,2019-08-07 16:46:05:889
-5.8589,-7.38,0.562,-0.3733,-0.1538,0.2208,0.0123,-0.0677,0.032,2908,2019-08-07 16:46:05:894
-5.7106,-7.3848,0.5714,-0.5346,-0.0783,0.0597,0.0123,-0.0677,0.032,2913,2019-08-07 16:46:05:899
-5.7106,-7.3848,0.5714,-0.5346,-0.0783,0.0597,0.0123,-0.0336,0.0235,2918,2019-08-07 16:46:05:904
-5.7106,-7.3848,0.5714,-0.5346,-0.0783,0.0597,0.0123,-0.0336,0.0235,2923,2019-08-07 16:46:05:909
-5.7776,-7.3657,0.6233,-0.5346,-0.0783,0.0597,0.0038,0.0058,0.0171,2928,2019-08-07 16:46:05:914
-5.7776,-7.3657,0.6233,-0.5305,-0.1489,-0.0072,0.0038,0.0058,0.0171,2932,2019-08-07 16:46:05:918
-5.7776,-7.3657,0.6233,-0.5305,-0.1489,-0.0072,-0.0058,0.0207,0.0214,2938,2019-08-07 16:46:05:924
-5.8781,-7.2559,0.5526,-0.5305,-0.1489,-0.0072,-0.0058,0.0207,0.0214,2942,2019-08-07 16:46:05:928
-5.8781,-7.2559,0.5526,-0.3176,-0.195,-0.0118,-0.0111,0.0441,0.0256,2949,2019-08-07 16:46:05:935
-6.0886,-7.2893,0.6799,-0.3176,-0.195,-0.0118,-0.0111,0.0441,0.0256,2952,2019-08-07 16:46:05:938
-6.0886,-7.2893,0.6799,-0.3176,-0.195,-0.0118,-0.0111,0.0441,0.0256,2958,2019-08-07 16:46:05:944
-6.0886,-7.2893,0.6799,-0.3176,-0.195,-0.0118,-0.0048,0.0026,0.0299,2963,2019-08-07 16:46:05:949
-6.1316,-7.275,0.7034,-0.3176,-0.195,-0.0118,-0.0048,0.0026,0.0299,2968,2019-08-07 16:46:05:954
-6.1316,-7.275,0.7034,-0.183,-0.1869,-0.008,0.0027,-0.0422,0.031,2973,2019-08-07 16:46:05:959
-6.1077,-7.2272,0.5667,-0.183,-0.1869,-0.008,0.0027,-0.0422,0.031,2978,2019-08-07 16:46:05:964
-6.1077,-7.2272,0.5667,-0.183,-0.1869,-0.008,-0.0069,-0.0752,0.0267,2983,2019-08-07 16:46:05:969
-6.1077,-7.2272,0.5667,-0.183,-0.1869,-0.008,-0.0069,-0.0752,0.0267,2988,2019-08-07 16:46:05:974
-6.079,-7.1938,0.4819,-0.2437,-0.2789,0.1641,-0.0069,-0.0752,0.0267,2993,2019-08-07 16:46:05:979
-6.079,-7.1938,0.4819,-0.2437,-0.2789,0.1641,-0.008,-0.0805,0.0235,2998,2019-08-07 16:46:05:984
-5.9833,-7.2797,0.5054,-0.2437,-0.2789,0.1641,-0.008,-0.0805,0.0235,3003,2019-08-07 16:46:05:989
-5.9833,-7.2797,0.5054,-0.2437,-0.2789,0.1641,0.0016,-0.0592,0.0203,3007,2019-08-07 16:46:05:993
-5.9833,-7.2797,0.5054,-0.3268,-0.1479,0.195,0.0016,-0.0592,0.0203,3013,2019-08-07 16:46:05:999
-5.9833,-7.2797,0.5054,-0.3268,-0.1479,0.195,0.0016,-0.0592,0.0203,3018,2019-08-07 16:46:06:004
-6.0503,-7.2702,0.3687,-0.3268,-0.1479,0.195,0.008,-0.0411,0.0086,3022,2019-08-07 16:46:06:008
-6.0503,-7.2702,0.3687,-0.3268,-0.1479,0.195,0.008,-0.0411,0.0086,3028,2019-08-07 16:46:06:014
-6.0503,-7.2702,0.3687,-0.2743,-0.1572,0.2861,0.0187,0.0164,-0.0031,3032,2019-08-07 16:46:06:018
-5.9977,-7.38,0.3499,-0.2743,-0.1572,0.2861,0.0187,0.0164,-0.0031,3038,2019-08-07 16:46:06:024
-5.9977,-7.38,0.3499,-0.2743,-0.1572,0.2861,0.0293,0.0377,-0.0202,3042,2019-08-07 16:46:06:028
-6.0599,-7.3609,0.4394,-0.2743,-0.1572,0.2861,0.0293,0.0377,-0.0202,3049,2019-08-07 16:46:06:035
-6.0599,-7.3609,0.4394,-0.2667,-0.2313,0.1103,0.0357,0.0452,-0.0244,3053,2019-08-07 16:46:06:039
-6.0408,-7.275,0.5054,-0.2667,-0.2313,0.1103,0.0357,0.0452,-0.0244,3058,2019-08-07 16:46:06:044
-6.0408,-7.275,0.5054,-0.2667,-0.2313,0.1103,0.0347,0.0505,-0.0287,3063,2019-08-07 16:46:06:049
-6.0408,-7.275,0.5054,-0.2667,-0.2313,0.1103,0.0347,0.0505,-0.0287,3067,2019-08-07 16:46:06:053
-6.1891,-7.2607,0.6233,-0.158,-0.2057,0.0852,0.0347,0.0505,-0.0287,3073,2019-08-07 16:46:06:059
-6.1891,-7.2607,0.6233,-0.158,-0.2057,0.0852,0.024,0.0143,-0.0255,3078,2019-08-07 16:46:06:064
-6.1891,-7.2607,0.6233,-0.1275,-0.2644,-0.0883,0.024,0.0143,-0.0255,3083,2019-08-07 16:46:06:069
-6.1604,-7.2368,0.7176,-0.1275,-0.2644,-0.0883,0.0219,-0.04,-0.018,3088,2019-08-07 16:46:06:074
-6.1604,-7.2368,0.7176,-0.1275,-0.2644,-0.0883,0.0219,-0.04,-0.018,3093,2019-08-07 16:46:06:079
-5.9547,-7.1938,0.529,-0.1275,-0.2644,-0.0883,0.0187,-0.0741,-0.0106,3098,2019-08-07 16:46:06:084
-5.9547,-7.1938,0.529,-0.3684,-0.3187,0.1853,0.0187,-0.0741,-0.0106,3103,2019-08-07 16:46:06:089
-5.9547,-7.1938,0.529,-0.3684,-0.3187,0.1853,0.0112,-0.0667,-0.0085,3108,2019-08-07 16:46:06:094
-5.9738,-7.1365,0.5903,-0.3684,-0.3187,0.1853,0.0112,-0.0667,-0.0085,3112,2019-08-07 16:46:06:098
-5.9738,-7.1365,0.5903,-0.3684,-0.3187,0.1853,0.0155,-0.0581,-0.0042,3118,2019-08-07 16:46:06:104
-5.9738,-7.1365,0.5903,-0.3949,-0.3054,0.1191,0.0155,-0.0581,-0.0042,3122,2019-08-07 16:46:06:108
-5.8782,-7.1843,0.5007,-0.3949,-0.3054,0.1191,0.0165,-0.0368,0.0011,3128,2019-08-07 16:46:06:114
-5.8782,-7.1843,0.5007,-0.3949,-0.3054,0.1191,0.0165,-0.0368,0.0011,3133,2019-08-07 16:46:06:119
-5.8782,-7.1843,0.5007,-0.3949,-0.3054,0.1191,0.0165,0.0143,-0.0085,3137,2019-08-07 16:46:06:123
-5.9356,-7.1652,0.4677,-0.3791,-0.3207,0.2304,0.0165,0.0143,-0.0085,3143,2019-08-07 16:46:06:129
-5.9356,-7.1652,0.4677,-0.3791,-0.3207,0.2304,0.0144,0.0484,-0.0106,3148,2019-08-07 16:46:06:134
-5.9547,-7.2129,0.562,-0.3791,-0.3207,0.2304,0.0144,0.0484,-0.0106,3152,2019-08-07 16:46:06:138
-5.9547,-7.2129,0.562,-0.3791,-0.3207,0.2304,0.0165,0.0814,-0.017,3158,2019-08-07 16:46:06:144
-5.9547,-7.2129,0.562,-0.3676,-0.1988,0.1294,0.0165,0.0814,-0.017,3163,2019-08-07 16:46:06:149
-5.9834,-7.2606,0.5149,-0.3676,-0.1988,0.1294,0.0187,0.1006,-0.0234,3168,2019-08-07 16:46:06:154
-5.9834,-7.2606,0.5149,-0.3676,-0.1988,0.1294,0.0187,0.1006,-0.0234,3172,2019-08-07 16:46:06:158
-5.9786,-7.3609,0.5667,-0.3676,-0.1988,0.1294,0.0304,0.1262,-0.0191,3178,2019-08-07 16:46:06:164
-5.9786,-7.3609,0.5667,-0.3552,-0.1448,0.0806,0.0304,0.1262,-0.0191,3182,2019-08-07 16:46:06:168
-5.9786,-7.3609,0.5667,-0.3552,-0.1448,0.0806,0.0357,0.1304,-0.0138,3188,2019-08-07 16:46:06:174
-5.9404,-7.337,0.6091,-0.3552,-0.1448,0.0806,0.0357,0.1304,-0.0138,3193,2019-08-07 16:46:06:179
-5.9404,-7.337,0.6091,-0.3552,-0.1448,0.0806,0.04,0.1187,-0.0042,3197,2019-08-07 16:46:06:183
-6.0504,-7.3132,0.6516,-0.2539,-0.1751,-0.0057,0.04,0.1187,-0.0042,3203,2019-08-07 16:46:06:189
-6.0504,-7.3132,0.6516,-0.2539,-0.1751,-0.0057,0.04,0.1187,-0.0042,3208,2019-08-07 16:46:06:194
-6.0504,-7.3132,0.6516,-0.2539,-0.1751,-0.0057,0.0474,0.1102,0.0054,3212,2019-08-07 16:46:06:198
-6.1653,-7.2941,0.6845,-0.2539,-0.1751,-0.0057,0.0474,0.1102,0.0054,3218,2019-08-07 16:46:06:204
-6.1653,-7.2941,0.6845,-0.0604,-0.2401,-0.138,0.04,0.0612,0.0192,3222,2019-08-07 16:46:06:208
-6.2322,-7.2845,0.727,-0.0604,-0.2401,-0.138,0.04,0.0612,0.0192,3228,2019-08-07 16:46:06:214
-6.2322,-7.2845,0.727,-0.0604,-0.2401,-0.138,0.0379,-0.0027,0.0256,3233,2019-08-07 16:46:06:219
-6.2322,-7.2845,0.727,-0.0604,-0.2401,-0.138,0.0379,-0.0027,0.0256,3238,2019-08-07 16:46:06:224
-6.0792,-7.3084,0.6374,-0.2984,-0.1888,0.0388,0.0283,-0.0517,0.0224,3243,2019-08-07 16:46:06:229
-6.0792,-7.3084,0.6374,-0.2984,-0.1888,0.0388,0.0283,-0.0517,0.0224,3248,2019-08-07 16:46:06:234
-6.0792,-7.3084,0.6374,-0.2984,-0.1888,0.0388,0.0283,-0.0517,0.0224,3252,2019-08-07 16:46:06:238
-5.8591,-7.3132,0.595,-0.2984,-0.1888,0.0388,0.0144,-0.0592,0.0182,3258,2019-08-07 16:46:06:244
-5.8591,-7.3132,0.595,-0.2984,-0.1888,0.0388,0.0144,-0.0592,0.0182,3262,2019-08-07 16:46:06:248
-5.7921,-7.3132,0.4771,-0.519,-0.1446,0.1753,0.0219,0.0015,0.0075,3268,2019-08-07 16:46:06:254
-5.7921,-7.3132,0.4771,-0.519,-0.1446,0.1753,0.0219,0.0015,0.0075,3273,2019-08-07 16:46:06:259
-5.7921,-7.3132,0.4771,-0.519,-0.1446,0.1753,0.0336,0.0452,0.0022,3278,2019-08-07 16:46:06:264
-5.8974,-7.2463,0.5054,-0.3131,-0.2498,0.1699,0.0336,0.0452,0.0022,3283,2019-08-07 16:46:06:269
-5.8974,-7.2463,0.5054,-0.3131,-0.2498,0.1699,0.0379,0.0686,0.0054,3288,2019-08-07 16:46:06:274
-5.9883,-7.2559,0.5007,-0.3131,-0.2498,0.1699,0.0379,0.0686,0.0054,3293,2019-08-07 16:46:06:279
-5.9883,-7.2559,0.5007,-0.3131,-0.2498,0.1699,0.0368,0.0782,0.0054,3299,2019-08-07 16:46:06:285
-5.9883,-7.2559,0.5007,-0.3131,-0.2498,0.1699,0.0368,0.0782,0.0054,3302,2019-08-07 16:46:06:288
-5.9644,-7.2511,0.5903,-0.3477,-0.2302,0.061,0.0368,0.0782,0.0054,3308,2019-08-07 16:46:06:294
-5.9644,-7.2511,0.5903,-0.3477,-0.2302,0.061,0.0677,0.1059,1.0E-4,3313,2019-08-07 16:46:06:299
-6.3423,-7.232,0.496,-0.3477,-0.2302,0.061,0.0677,0.1059,1.0E-4,3318,2019-08-07 16:46:06:304
-6.3423,-7.232,0.496,-0.3477,-0.2302,0.061,0.0592,0.0814,0.0288,3323,2019-08-07 16:46:06:309
-6.2371,-7.1652,0.628,-0.05,-0.275,0.0298,0.0592,0.0814,0.0288,3328,2019-08-07 16:46:06:314
-6.2371,-7.1652,0.628,-0.05,-0.275,0.0298,0.0389,0.0271,0.0235,3332,2019-08-07 16:46:06:318
-6.2371,-7.1652,0.628,-0.05,-0.275,0.0298,0.0389,0.0271,0.0235,3338,2019-08-07 16:46:06:324
-6.2945,-7.1795,0.6562,-0.05,-0.275,0.0298,0.0464,-0.0134,0.0033,3343,2019-08-07 16:46:06:329
-6.2945,-7.1795,0.6562,-0.1967,-0.1097,0.011,0.0464,-0.0134,0.0033,3348,2019-08-07 16:46:06:334
-5.9692,-7.4086,0.364,-0.1967,-0.1097,0.011,0.0464,-0.0432,-0.0031,3353,2019-08-07 16:46:06:339
-5.9692,-7.4086,0.364,-0.1967,-0.1097,0.011,0.0464,-0.0432,-0.0031,3358,2019-08-07 16:46:06:344
-5.9692,-7.4086,0.364,-0.1967,-0.1097,0.011,0.0602,0.0303,-0.0042,3363,2019-08-07 16:46:06:349
-5.9453,-7.2177,0.5573,-0.3718,-0.2585,0.104,0.0602,0.0303,-0.0042,3367,2019-08-07 16:46:06:353
-5.9453,-7.2177,0.5573,-0.3718,-0.2585,0.104,0.0602,0.0303,-0.0042,3372,2019-08-07 16:46:06:358
-5.9453,-7.2177,0.5573,-0.3718,-0.2585,0.104,0.0677,0.0622,-0.0191,3378,2019-08-07 16:46:06:364
-6.0362,-7.2463,0.4206,-0.3718,-0.2585,0.104,0.0677,0.0622,-0.0191,3383,2019-08-07 16:46:06:369
-6.0362,-7.2463,0.4206,-0.2691,-0.2316,0.1573,0.0613,0.0835,-0.0212,3389,2019-08-07 16:46:06:375
-6.0936,-7.2224,0.6138,-0.2691,-0.2316,0.1573,0.0613,0.0835,-0.0212,3393,2019-08-07 16:46:06:379
-6.0936,-7.2224,0.6138,-0.2691,-0.2316,0.1573,0.0528,0.0772,-0.0117,3398,2019-08-07 16:46:06:384
-6.0936,-7.2224,0.6138,-0.2691,-0.2316,0.1573,0.0528,0.0772,-0.0117,3403,2019-08-07 16:46:06:389
-6.2467,-7.1317,0.694,-0.067,-0.3473,-0.0327,0.0411,0.0377,-0.0085,3408,2019-08-07 16:46:06:394
-6.2467,-7.1317,0.694,-0.067,-0.3473,-0.0327,0.0411,0.0377,-0.0085,3412,2019-08-07 16:46:06:398
-6.1319,-7.1413,0.661,-0.067,-0.3473,-0.0327,0.0304,-0.0081,-0.0042,3418,2019-08-07 16:46:06:404
-6.1319,-7.1413,0.661,-0.067,-0.3473,-0.0327,0.0304,-0.0081,-0.0042,3423,2019-08-07 16:46:06:409
-6.1319,-7.1413,0.661,-0.1818,-0.3755,-0.056,0.0325,-0.0368,0.0033,3428,2019-08-07 16:46:06:414
-6.1749,-7.0935,0.6562,-0.1818,-0.3755,-0.056,0.0325,-0.0368,0.0033,3432,2019-08-07 16:46:06:418
-6.1749,-7.0935,0.6562,-0.1818,-0.3755,-0.056,0.0293,-0.073,0.0246,3438,2019-08-07 16:46:06:424
-6.1749,-7.0935,0.6562,-0.1818,-0.3755,-0.056,0.0293,-0.073,0.0246,3443,2019-08-07 16:46:06:429
-5.9788,-7.1795,0.6374,-0.3375,-0.2958,0.0423,0.0347,-0.089,0.0384,3448,2019-08-07 16:46:06:434
-5.9788,-7.1795,0.6374,-0.3375,-0.2958,0.0423,0.0347,-0.089,0.0384,3452,2019-08-07 16:46:06:438
-6.0936,-7.0792,0.628,-0.3375,-0.2958,0.0423,0.0315,-0.073,0.0437,3458,2019-08-07 16:46:06:444
-6.0936,-7.0792,0.628,-0.3375,-0.2958,0.0423,0.0315,-0.073,0.0437,3463,2019-08-07 16:46:06:449
-6.0936,-7.0792,0.628,-0.3763,-0.2994,0.1413,0.0315,-0.073,0.0437,3467,2019-08-07 16:46:06:453
-5.8209,-7.1986,0.5007,-0.3763,-0.2994,0.1413,0.0368,-0.056,0.0427,3473,2019-08-07 16:46:06:459
-5.8209,-7.1986,0.5007,-0.3763,-0.2994,0.1413,0.0368,-0.056,0.0427,3478,2019-08-07 16:46:06:464
-5.8209,-7.1986,0.5007,-0.3763,-0.2994,0.1413,0.0325,-6.0E-4,0.0214,3483,2019-08-07 16:46:06:469
-6.0314,-7.1079,0.5337,-0.2653,-0.329,0.1536,0.0325,-6.0E-4,0.0214,3488,2019-08-07 16:46:06:474
-6.0314,-7.1079,0.5337,-0.2653,-0.329,0.1536,0.0347,0.0313,0.0182,3493,2019-08-07 16:46:06:479
-6.0362,-7.1317,0.6279,-0.2907,-0.3324,0.0737,0.0347,0.0313,0.0182,3499,2019-08-07 16:46:06:485
-6.0362,-7.1317,0.6279,-0.2907,-0.3324,0.0737,0.0347,0.0313,0.0182,3503,2019-08-07 16:46:06:489
-6.0362,-7.1317,0.6279,-0.2907,-0.3324,0.0737,0.0347,0.0356,0.0065,3508,2019-08-07 16:46:06:494
-6.1989,-7.0744,0.6138,-0.2907,-0.3324,0.0737,0.0347,0.0356,0.0065,3514,2019-08-07 16:46:06:500
-6.1989,-7.0744,0.6138,-0.1876,-0.3593,0.0733,0.024,0.0388,0.0118,3518,2019-08-07 16:46:06:504
-6.1989,-7.0744,0.6138,-0.1876,-0.3593,0.0733,0.024,0.0388,0.0118,3522,2019-08-07 16:46:06:508
-6.0841,-7.1222,0.7552,-0.1876,-0.3593,0.0733,0.0219,0.0143,0.0182,3528,2019-08-07 16:46:06:514
-6.0841,-7.1222,0.7552,-0.1876,-0.3593,0.0733,0.0219,0.0143,0.0182,3532,2019-08-07 16:46:06:518
-6.0315,-7.1747,0.6657,-0.3009,-0.2846,0.0379,0.0176,-0.0262,0.0299,3538,2019-08-07 16:46:06:524
-6.0315,-7.1747,0.6657,-0.3009,-0.2846,0.0379,0.0176,-0.0262,0.0299,3542,2019-08-07 16:46:06:528
-6.0315,-7.1747,0.6657,-0.3009,-0.2846,0.0379,-0.008,-0.0592,0.0405,3548,2019-08-07 16:46:06:534
-5.9071,-7.127,0.6704,-0.3009,-0.2846,0.0379,-0.008,-0.0592,0.0405,3553,2019-08-07 16:46:06:539
-5.9071,-7.127,0.6704,-0.3009,-0.2846,0.0379,-0.008,-0.0592,0.0405,3557,2019-08-07 16:46:06:543
-5.9071,-7.127,0.6704,-0.5063,-0.3089,0.1339,-0.0261,-0.0762,0.0512,3562,2019-08-07 16:46:06:548
-5.8258,-7.1651,0.5007,-0.5063,-0.3089,0.1339,-0.0239,-0.0379,0.0512,3568,2019-08-07 16:46:06:554
-5.8258,-7.1651,0.5007,-0.5063,-0.3089,0.1339,-0.0239,-0.0379,0.0512,3572,2019-08-07 16:46:06:558
-5.8497,-7.2272,0.4865,-0.4978,-0.2179,0.2525,-0.0239,-0.0379,0.0512,3578,2019-08-07 16:46:06:564
-5.8497,-7.2272,0.4865,-0.4978,-0.2179,0.2525,-0.0154,-0.0038,0.0533,3582,2019-08-07 16:46:06:568
-5.888,-7.2702,0.4818,-0.4978,-0.2179,0.2525,-0.0154,-0.0038,0.0533,3588,2019-08-07 16:46:06:574
-5.888,-7.2702,0.4818,-0.4978,-0.2179,0.2525,-0.0069,0.0441,0.0512,3593,2019-08-07 16:46:06:579
-5.998,-7.3084,0.4158,-0.3517,-0.1362,0.2879,-0.0069,0.0441,0.0512,3599,2019-08-07 16:46:06:585
-5.998,-7.3084,0.4158,-0.3517,-0.1362,0.2879,-0.0026,0.0804,0.0395,3603,2019-08-07 16:46:06:589
-5.998,-7.3084,0.4158,-0.3517,-0.1362,0.2879,-0.0026,0.0804,0.0395,3607,2019-08-07 16:46:06:593
-6.2037,-7.2511,0.5384,-0.3517,-0.1362,0.2879,0.0155,0.0931,0.0363,3613,2019-08-07 16:46:06:599
-6.2037,-7.2511,0.5384,-0.1144,-0.1363,0.0835,0.0155,0.0931,0.0363,3618,2019-08-07 16:46:06:604
-6.2037,-7.2511,0.5384,-0.1144,-0.1363,0.0835,0.0155,0.0931,0.0363,3623,2019-08-07 16:46:06:609
-6.2659,-7.2463,0.5902,-0.1144,-0.1363,0.0835,0.0293,0.0814,0.0224,3627,2019-08-07 16:46:06:613
-6.2659,-7.2463,0.5902,-0.1144,-0.1363,0.0835,0.0293,0.0814,0.0224,3633,2019-08-07 16:46:06:619
-6.2468,-7.2272,0.6374,-0.1141,-0.2093,0.0504,0.0347,0.0473,0.0171,3637,2019-08-07 16:46:06:623
-6.2468,-7.2272,0.6374,-0.1141,-0.2093,0.0504,0.0347,0.0473,0.0171,3643,2019-08-07 16:46:06:629
-6.2468,-7.2272,0.6374,-0.1141,-0.2093,0.0504,0.0421,0.0271,0.0097,3648,2019-08-07 16:46:06:634
-6.2449,-7.2035,0.6566,-0.1141,-0.2093,0.0504,0.0421,0.0271,0.0097,3652,2019-08-07 16:46:06:638
-6.2449,-7.2035,0.6566,-0.1141,-0.2093,0.0504,0.0368,-0.0017,0.0065,3658,2019-08-07 16:46:06:644
-6.2449,-7.2035,0.6566,-0.1803,-0.2739,0.0295,0.0368,-0.0017,0.0065,3663,2019-08-07 16:46:06:649
-6.1492,-7.2178,0.7367,-0.1803,-0.2739,0.0295,0.0293,-0.0326,0.0097,3668,2019-08-07 16:46:06:654
-6.1492,-7.2178,0.7367,-0.1803,-0.2739,0.0295,0.0293,-0.0326,0.0097,3673,2019-08-07 16:46:06:659
-6.1683,-7.0794,0.4209,-0.1803,-0.2739,0.0295,-0.0293,-0.1125,0.0065,3678,2019-08-07 16:46:06:664
-6.1683,-7.0794,0.4209,-0.2098,-0.3011,0.2216,-0.0293,-0.1125,0.0065,3682,2019-08-07 16:46:06:668
-6.1683,-7.0794,0.4209,-0.2098,-0.3011,0.2216,-0.0282,-0.0677,0.0129,3688,2019-08-07 16:46:06:674
-5.9674,-7.1558,0.798,-0.2098,-0.3011,0.2216,-0.0282,-0.0677,0.0129,3692,2019-08-07 16:46:06:678
-5.9674,-7.1558,0.798,-0.2098,-0.3011,0.2216,0.0112,-0.0635,0.0203,3698,2019-08-07 16:46:06:684
-6.02,-7.2178,0.6519,-0.3489,-0.1665,0.0777,0.0112,-0.0635,0.0203,3702,2019-08-07 16:46:06:688
-6.02,-7.2178,0.6519,-0.3489,-0.1665,0.0777,0.0187,-0.0294,0.0224,3709,2019-08-07 16:46:06:695
-6.02,-7.2178,0.6519,-0.3489,-0.1665,0.0777,0.0187,-0.0294,0.0224,3713,2019-08-07 16:46:06:699
-6.0439,-7.1319,0.6331,-0.3489,-0.1665,0.0777,0.0187,-0.0294,0.0224,3718,2019-08-07 16:46:06:704
-6.0439,-7.1319,0.6331,-0.2891,-0.2833,-0.0066,0.0432,0.0388,0.0129,3722,2019-08-07 16:46:06:708
-6.1826,-7.194,0.6943,-0.2891,-0.2833,-0.0066,0.0432,0.0388,0.0129,3728,2019-08-07 16:46:06:714
-6.1826,-7.194,0.6943,-0.2891,-0.2833,-0.0066,0.0698,0.0558,0.0086,3733,2019-08-07 16:46:06:719
-6.1826,-7.194,0.6943,-0.2891,-0.2833,-0.0066,0.0698,0.0558,0.0086,3737,2019-08-07 16:46:06:723
-6.2879,-7.1128,0.6613,-0.0808,-0.3146,0.0522,0.0549,0.0537,-0.0021,3743,2019-08-07 16:46:06:729
-6.2879,-7.1128,0.6613,-0.0808,-0.3146,0.0522,0.0549,0.0537,-0.0021,3747,2019-08-07 16:46:06:733
-6.3835,-7.2417,0.6755,-0.0808,-0.3146,0.0522,0.007,0.0036,0.0011,3753,2019-08-07 16:46:06:739
-6.3835,-7.2417,0.6755,-0.0808,-0.3146,0.0522,0.007,0.0036,0.0011,3758,2019-08-07 16:46:06:744
-6.3835,-7.2417,0.6755,-0.1013,-0.2704,-0.2253,0.0091,-0.0102,-0.001,3763,2019-08-07 16:46:06:749
-6.2161,-7.1558,0.9442,-0.1013,-0.2704,-0.2253,0.0091,-0.0102,-0.001,3768,2019-08-07 16:46:06:754
-6.2161,-7.1558,0.9442,-0.1013,-0.2704,-0.2253,0.0091,-0.0102,-0.001,3773,2019-08-07 16:46:06:759
-6.2161,-7.1558,0.9442,-0.1013,-0.2704,-0.2253,0.0272,-0.0549,-0.001,3777,2019-08-07 16:46:06:763
-6.1921,-7.1415,0.7132,-0.2156,-0.2653,0.0565,0.0272,-0.0549,-0.001,3783,2019-08-07 16:46:06:769
-6.1921,-7.1415,0.7132,-0.2156,-0.2653,0.0565,0.0027,-0.0571,0.0054,3788,2019-08-07 16:46:06:774