ACCELEROMETER X (m/s²),ACCELEROMETER Y (m/s²),ACCELEROMETER Z (m/s²),LINEAR ACCELERATION X (m/s²),LINEAR ACCELERATION Y (m/s²),LINEAR ACCELERATION Z (m/s²),GYROSCOPE X (rad/s),GYROSCOPE Y (rad/s),GYROSCOPE Z (rad/s),Time since start in ms ,YYYY-MO-DD HH-MI-SS_SSS
-6.5787,-6.6398,0.8302,-0.3554,-0.2554,-0.0498,0.0091,-0.0219,-0.0138,2,2019-08-07 16:45:45:629
-6.5931,-6.5444,0.7407,-0.3554,-0.2554,-0.0498,0.0016,-0.0326,0.0022,8,2019-08-07 16:45:45:635
-6.5931,-6.5444,0.7407,-0.3554,-0.2554,-0.0498,0.0016,-0.0326,0.0022,12,2019-08-07 16:45:45:639
-6.5931,-6.5444,0.7407,-0.36,-0.3744,-0.0165,-0.0026,-0.0358,0.015,18,2019-08-07 16:45:45:645
-6.5691,-6.5157,0.7454,-0.36,-0.3744,-0.0165,-0.0026,-0.0358,0.015,22,2019-08-07 16:45:45:649
-6.5691,-6.5157,0.7454,-0.36,-0.3744,-0.0165,-0.0058,-0.0304,0.0192,28,2019-08-07 16:45:45:655
-6.5691,-6.5157,0.7454,-0.36,-0.3744,-0.0165,-0.0058,-0.0304,0.0192,33,2019-08-07 16:45:45:660
-6.5165,-6.4775,0.5946,-0.4196,-0.4149,0.1937,-0.0111,0.0122,0.016,38,2019-08-07 16:45:45:665
-6.5165,-6.4775,0.5946,-0.4196,-0.4149,0.1937,-0.0111,0.0122,0.016,43,2019-08-07 16:45:45:670
-6.66,-6.5444,0.703,-0.4196,-0.4149,0.1937,-0.0165,0.0484,0.0107,47,2019-08-07 16:45:45:674
-6.66,-6.5444,0.703,-0.4196,-0.4149,0.1937,-0.0165,0.0484,0.0107,53,2019-08-07 16:45:45:680
-6.66,-6.5444,0.703,-0.1737,-0.3794,0.0452,-0.0165,0.0484,0.0107,57,2019-08-07 16:45:45:684
-6.8083,-6.5539,0.7077,-0.1737,-0.3794,0.0452,-0.0111,0.0527,0.0096,63,2019-08-07 16:45:45:690
-6.8083,-6.5539,0.7077,-0.1464,-0.2736,0.1017,-0.0111,0.0527,0.0096,68,2019-08-07 16:45:45:695
-6.8704,-6.5396,0.6983,-0.1464,-0.2736,0.1017,-0.0111,0.0335,0.0,73,2019-08-07 16:45:45:700
-6.8704,-6.5396,0.6983,-0.1464,-0.2736,0.1017,-0.0111,0.0335,0.0,78,2019-08-07 16:45:45:705
-6.8704,-6.5396,0.6983,-0.1464,-0.2736,0.1017,-0.0111,-0.0027,-0.001,83,2019-08-07 16:45:45:710
-6.7987,-6.6208,0.7596,-0.143,-0.2681,0.0111,-0.0154,-0.0027,-0.001,88,2019-08-07 16:45:45:715
-6.7987,-6.6208,0.7596,-0.143,-0.2681,0.0111,-0.0133,-0.0315,0.0043,93,2019-08-07 16:45:45:720
-6.6982,-6.616,0.7266,-0.143,-0.2681,0.0111,-0.0133,-0.0315,0.0043,98,2019-08-07 16:45:45:725
-6.6982,-6.616,0.7266,-0.143,-0.2681,0.0111,-0.0133,-0.0315,0.0043,103,2019-08-07 16:45:45:730
-6.6982,-6.616,0.7266,-0.2868,-0.2388,2.0E-4,-0.0133,-0.0656,0.0118,108,2019-08-07 16:45:45:735
-6.636,-6.6064,0.6983,-0.2868,-0.2388,2.0E-4,-0.0133,-0.0656,0.0118,112,2019-08-07 16:45:45:739
-6.636,-6.6064,0.6983,-0.2868,-0.2388,2.0E-4,-0.0101,-0.0698,0.0213,118,2019-08-07 16:45:45:745
-6.618,-6.6254,0.7546,-0.2868,-0.2388,2.0E-4,-0.0101,-0.0698,0.0213,123,2019-08-07 16:45:45:750
-6.618,-6.6254,0.7546,-0.3638,-0.3176,0.06,-0.009,-0.0656,0.0288,128,2019-08-07 16:45:45:755
-6.618,-6.6254,0.7546,-0.3638,-0.3176,0.06,-0.009,-0.0656,0.0288,133,2019-08-07 16:45:45:760
-6.5749,-6.6111,0.7216,-0.3638,-0.3176,0.06,-0.0058,-0.056,0.032,138,2019-08-07 16:45:45:765
-6.5749,-6.6111,0.7216,-0.3638,-0.3176,0.06,-0.0058,-0.056,0.032,142,2019-08-07 16:45:45:769
-6.5414,-6.5634,0.6038,-0.3815,-0.2705,0.1607,-0.0058,-0.0304,0.0331,149,2019-08-07 16:45:45:776
-6.5414,-6.5634,0.6038,-0.3815,-0.2705,0.1607,-0.0058,-0.0304,0.0331,153,2019-08-07 16:45:45:780
-6.5414,-6.5634,0.6038,-0.3815,-0.2705,0.1607,-0.009,0.0026,0.0245,158,2019-08-07 16:45:45:785
-6.6897,-6.5061,0.6651,-0.3815,-0.2705,0.1607,-0.009,0.0026,0.0245,162,2019-08-07 16:45:45:789
-6.6897,-6.5061,0.6651,-0.28,-0.3958,0.0981,-0.0079,0.0271,0.0128,168,2019-08-07 16:45:45:795
-6.6897,-6.5061,0.6651,-0.28,-0.3958,0.0981,-0.0079,0.0271,0.0128,172,2019-08-07 16:45:45:799
-6.7471,-6.5204,0.7593,-0.28,-0.3958,0.0981,-0.009,0.0303,0.0096,178,2019-08-07 16:45:45:805
-6.7471,-6.5204,0.7593,-0.28,-0.3958,0.0981,-0.009,0.0303,0.0096,182,2019-08-07 16:45:45:809
-6.7854,-6.4918,0.7122,-0.1677,-0.3843,0.0689,-0.009,0.0303,0.0096,188,2019-08-07 16:45:45:815
-6.7854,-6.4918,0.7122,-0.1677,-0.3843,0.0689,-0.0143,0.025,0.0011,194,2019-08-07 16:45:45:821
-6.7854,-6.6016,0.7923,-0.1677,-0.3843,0.0689,-0.0229,0.0015,0.0043,199,2019-08-07 16:45:45:826
-6.7854,-6.6016,0.7923,-0.1677,-0.3843,0.0689,-0.0229,0.0015,0.0043,202,2019-08-07 16:45:45:829
-6.7854,-6.6016,0.7923,-0.1928,-0.269,-0.0102,-0.0229,0.0015,0.0043,208,2019-08-07 16:45:45:835
-6.7854,-6.6016,0.7923,-0.1928,-0.269,-0.0102,-0.0271,-0.0283,0.0043,213,2019-08-07 16:45:45:840
-6.728,-6.592,0.7923,-0.1928,-0.269,-0.0102,-0.0271,-0.0283,0.0043,217,2019-08-07 16:45:45:844
-6.728,-6.592,0.7923,-0.1928,-0.269,-0.0102,-0.0271,-0.0475,0.0086,223,2019-08-07 16:45:45:850
-6.6514,-6.6254,0.7829,-0.2888,-0.2159,0.02,-0.0271,-0.0475,0.0086,228,2019-08-07 16:45:45:855
-6.6514,-6.6254,0.7829,-0.2888,-0.2159,0.02,-0.025,-0.0571,0.0192,232,2019-08-07 16:45:45:859
-6.594,-6.6445,0.7075,-0.2888,-0.2159,0.02,-0.025,-0.0571,0.0192,238,2019-08-07 16:45:45:865
-6.594,-6.6445,0.7075,-0.2888,-0.2159,0.02,-0.0207,-0.0485,0.0245,243,2019-08-07 16:45:45:870
-6.594,-6.6445,0.7075,-0.3859,-0.1759,0.0806,-0.0207,-0.0485,0.0245,248,2019-08-07 16:45:45:875
-6.5797,-6.697,0.7075,-0.3859,-0.1759,0.0806,-0.0165,-0.0251,0.0224,253,2019-08-07 16:45:45:880
-6.5797,-6.697,0.7075,-0.3859,-0.1759,0.0806,-0.0165,-0.0251,0.0224,257,2019-08-07 16:45:45:884
-6.5797,-6.697,0.7075,-0.3487,-0.2177,0.1048,-0.0122,-0.0081,0.0192,263,2019-08-07 16:45:45:890
-6.6084,-6.6398,0.7169,-0.3487,-0.2177,0.1048,-0.0122,-0.0081,0.0192,267,2019-08-07 16:45:45:894
-6.6084,-6.6398,0.7169,-0.3487,-0.2177,0.1048,-0.0122,-0.0081,0.0192,273,2019-08-07 16:45:45:900
-6.6801,-6.6063,0.7358,-0.2743,-0.23,0.089,-0.009,0.0143,0.0139,278,2019-08-07 16:45:45:905
-6.6801,-6.6063,0.7358,-0.2743,-0.23,0.089,-0.009,0.0143,0.0139,282,2019-08-07 16:45:45:909
-6.6801,-6.6063,0.7358,-0.2743,-0.23,0.089,-0.0122,0.0346,0.0054,288,2019-08-07 16:45:45:915
-6.7758,-6.6398,0.6839,-0.2743,-0.23,0.089,-0.0122,0.0346,0.0054,293,2019-08-07 16:45:45:920
-6.7758,-6.6398,0.6839,-0.0893,-0.1957,0.0123,-0.0111,0.0335,-0.001,298,2019-08-07 16:45:45:925
-6.8284,-6.6111,0.7735,-0.0893,-0.1957,0.0123,-0.0111,0.0335,-0.001,303,2019-08-07 16:45:45:930
-6.8284,-6.6111,0.7735,-0.0893,-0.1957,0.0123,-0.0111,0.0335,-0.001,308,2019-08-07 16:45:45:935
-6.8284,-6.6111,0.7735,-0.0893,-0.1957,0.0123,-0.0111,0.0175,-0.0085,313,2019-08-07 16:45:45:940
-6.8141,-6.6732,0.7593,-0.175,-0.1727,0.0599,-0.0111,0.0175,-0.0085,318,2019-08-07 16:45:45:945
-6.8141,-6.6732,0.7593,-0.175,-0.1727,0.0599,-0.0111,-0.0049,-0.0138,323,2019-08-07 16:45:45:950
-6.8141,-6.6732,0.7593,-0.175,-0.1727,0.0599,-0.0111,-0.0049,-0.0138,328,2019-08-07 16:45:45:955
-6.7423,-6.6159,0.7028,-0.175,-0.1727,0.0599,-0.0069,-0.0145,-0.0106,333,2019-08-07 16:45:45:960
-6.7423,-6.6159,0.7028,-0.3119,-0.2222,0.0133,-0.0069,-0.0145,-0.0106,338,2019-08-07 16:45:45:965
-6.6418,-6.6827,0.7452,-0.3119,-0.2222,0.0133,-0.0048,-0.0187,-0.0053,343,2019-08-07 16:45:45:970
-6.6418,-6.6827,0.7452,-0.3119,-0.2222,0.0133,-0.0048,-0.0187,-0.0053,348,2019-08-07 16:45:45:975
-6.6418,-6.6827,0.7452,-0.3119,-0.2222,0.0133,-0.0048,-0.0187,-0.0053,353,2019-08-07 16:45:45:980
-6.6227,-6.6732,0.7358,-0.3119,-0.2222,0.0133,0.0038,-0.0134,-0.0042,358,2019-08-07 16:45:45:985
-6.6227,-6.6732,0.7358,-0.3347,-0.2566,0.0721,0.0038,-0.0134,-0.0042,362,2019-08-07 16:45:45:989
-6.6179,-6.6254,0.7594,-0.3347,-0.2566,0.0721,0.007,-0.0027,-0.001,368,2019-08-07 16:45:45:995
-6.6179,-6.6254,0.7594,-0.3347,-0.2566,0.0721,0.007,-0.0027,-0.001,372,2019-08-07 16:45:45:999
-6.6849,-6.635,0.7829,-0.3347,-0.2566,0.0721,0.0144,-0.0017,0.0043,378,2019-08-07 16:45:46:005
-6.6849,-6.635,0.7829,-0.2916,-0.2659,0.0125,0.0144,-0.0017,0.0043,383,2019-08-07 16:45:46:010
-6.6849,-6.635,0.7829,-0.2916,-0.2659,0.0125,0.0134,0.0037,0.0064,387,2019-08-07 16:45:46:014
-6.6992,-6.6254,0.6981,-0.2916,-0.2659,0.0125,0.0134,0.0037,0.0064,393,2019-08-07 16:45:46:020
-6.6992,-6.6254,0.6981,-0.2916,-0.2659,0.0125,0.0091,0.0143,-0.0064,398,2019-08-07 16:45:46:025
-6.6992,-6.6254,0.6981,-0.1726,-0.3655,0.0693,0.0091,0.0143,-0.0064,403,2019-08-07 16:45:46:030
-6.7949,-6.5729,0.6698,-0.1726,-0.3655,0.0693,0.008,0.0079,-0.0106,407,2019-08-07 16:45:46:034
-6.7949,-6.5729,0.6698,-0.1726,-0.3655,0.0693,0.008,0.0079,-0.0106,413,2019-08-07 16:45:46:040
-6.6944,-6.5968,0.6745,-0.1726,-0.3655,0.0693,0.008,5.0E-4,-0.017,418,2019-08-07 16:45:46:045
-6.6944,-6.5968,0.6745,-0.2241,-0.276,0.0833,0.008,5.0E-4,-0.017,423,2019-08-07 16:45:46:050
-6.6944,-6.5968,0.6745,-0.2241,-0.276,0.0833,0.0027,0.0037,-0.0255,428,2019-08-07 16:45:46:055
-6.7471,-6.6111,0.6651,-0.2241,-0.276,0.0833,0.0027,0.0037,-0.0255,434,2019-08-07 16:45:46:061
-6.7471,-6.6111,0.6651,-0.2241,-0.276,0.0833,-0.0069,0.0111,-0.0277,437,2019-08-07 16:45:46:064
-6.7231,-6.5777,0.7264,-0.2162,-0.2841,0.0536,-0.0069,0.0111,-0.0277,443,2019-08-07 16:45:46:070
-6.7231,-6.5777,0.7264,-0.2162,-0.2841,0.0536,-0.0079,0.0015,-0.0298,448,2019-08-07 16:45:46:075
-6.7231,-6.5777,0.7264,-0.2162,-0.2841,0.0536,-0.0079,0.0015,-0.0298,453,2019-08-07 16:45:46:080
-6.6896,-6.5634,0.7216,-0.2162,-0.2841,0.0536,-0.009,-0.0059,-0.0277,458,2019-08-07 16:45:46:085
-6.6896,-6.5634,0.7216,-0.3032,-0.2739,0.0195,-0.009,-0.0059,-0.0277,463,2019-08-07 16:45:46:090
-6.6226,-6.6254,0.7122,-0.3032,-0.2739,0.0195,-0.009,-0.0059,-0.0277,468,2019-08-07 16:45:46:095
-6.6226,-6.6254,0.7122,-0.3032,-0.2739,0.0195,-0.0058,-0.0081,-0.0234,473,2019-08-07 16:45:46:100
-6.6226,-6.6254,0.7122,-0.3032,-0.2739,0.0195,-0.0058,-0.0081,-0.0234,477,2019-08-07 16:45:46:104
-6.6801,-6.5968,0.7405,-0.2662,-0.287,0.0336,-0.009,-0.0102,-0.017,483,2019-08-07 16:45:46:110
-6.6801,-6.5968,0.7405,-0.2662,-0.287,0.0336,-0.009,-0.0102,-0.017,487,2019-08-07 16:45:46:114
-6.6801,-6.5968,0.7405,-0.2662,-0.287,0.0336,-0.009,-0.0102,-0.017,493,2019-08-07 16:45:46:120
-6.6513,-6.592,0.7688,-0.2662,-0.287,0.0336,-0.0079,-0.0208,-0.0138,498,2019-08-07 16:45:46:125
-6.6513,-6.592,0.7688,-0.3067,-0.3658,0.0915,-0.0111,-0.0145,-0.0106,503,2019-08-07 16:45:46:130
-6.6705,-6.4965,0.6557,-0.3067,-0.3658,0.0915,-0.0111,-0.0145,-0.0106,508,2019-08-07 16:45:46:135
-6.6705,-6.4965,0.6557,-0.3067,-0.3658,0.0915,-0.0165,-6.0E-4,-0.0149,513,2019-08-07 16:45:46:140
-6.6609,-6.6398,0.7075,-0.3067,-0.3658,0.0915,-0.0165,-6.0E-4,-0.0149,518,2019-08-07 16:45:46:145
-6.6609,-6.6398,0.7075,-0.3332,-0.1963,0.076,-0.0165,-6.0E-4,-0.0149,522,2019-08-07 16:45:46:149
-6.6609,-6.6398,0.7075,-0.3332,-0.1963,0.076,-0.009,0.0058,-0.0159,528,2019-08-07 16:45:46:155
-6.6274,-6.7114,0.7028,-0.3332,-0.1963,0.076,-0.009,0.0058,-0.0159,532,2019-08-07 16:45:46:159
-6.6274,-6.7114,0.7028,-0.3332,-0.1963,0.076,-0.0026,0.0175,-0.0234,538,2019-08-07 16:45:46:165
-6.7183,-6.6302,0.6462,-0.2206,-0.2614,0.1246,-0.0026,0.0175,-0.0234,544,2019-08-07 16:45:46:171
-6.7183,-6.6302,0.6462,-0.2206,-0.2614,0.1246,6.0E-4,0.0228,-0.0213,548,2019-08-07 16:45:46:175
-6.7183,-6.6302,0.6462,-0.2206,-0.2614,0.1246,6.0E-4,0.0228,-0.0213,553,2019-08-07 16:45:46:180
-6.7374,-6.6398,0.7075,-0.2206,-0.2614,0.1246,6.0E-4,0.0228,-0.0213,558,2019-08-07 16:45:46:185
-6.7374,-6.6398,0.7075,-0.2564,-0.3119,0.0511,0.007,0.0132,-0.0213,563,2019-08-07 16:45:46:190
-6.7374,-6.6398,0.7075,-0.2564,-0.3119,0.0511,0.007,0.0132,-0.0213,567,2019-08-07 16:45:46:194
-6.6657,-6.5777,0.7641,-0.2564,-0.3119,0.0511,0.008,-0.007,-0.0149,573,2019-08-07 16:45:46:200
-6.6657,-6.5777,0.7641,-0.2564,-0.3119,0.0511,0.008,-0.007,-0.0149,578,2019-08-07 16:45:46:205
-6.5843,-6.6207,0.7217,-0.35,-0.2756,0.0482,0.0048,-0.0123,-0.0095,583,2019-08-07 16:45:46:210
-6.5843,-6.6207,0.7217,-0.35,-0.2756,0.0482,0.0048,-0.0123,-0.0095,587,2019-08-07 16:45:46:214
-6.5843,-6.6207,0.7217,-0.35,-0.2756,0.0482,0.0016,-0.0145,0.0011,593,2019-08-07 16:45:46:220
-6.5508,-6.6398,0.7547,-0.35,-0.2756,0.0482,0.0016,-0.0145,0.0011,598,2019-08-07 16:45:46:225
-6.5508,-6.6398,0.7547,-0.3542,-0.2568,0.0132,0.0027,-0.0198,0.0086,603,2019-08-07 16:45:46:230
-6.5221,-6.6493,0.7405,-0.3542,-0.2568,0.0132,0.0027,-0.0198,0.0086,608,2019-08-07 16:45:46:235
-6.5221,-6.6493,0.7405,-0.3542,-0.2568,0.0132,0.0038,-0.0091,0.0118,613,2019-08-07 16:45:46:240
-6.5221,-6.6493,0.7405,-0.3542,-0.2568,0.0132,0.0038,-0.0091,0.0118,617,2019-08-07 16:45:46:244
-6.5795,-6.6064,0.7169,-0.3552,-0.3033,0.0573,-5.0E-4,-6.0E-4,0.015,623,2019-08-07 16:45:46:250
-6.5795,-6.6064,0.7169,-0.3552,-0.3033,0.0573,-5.0E-4,-6.0E-4,0.015,627,2019-08-07 16:45:46:254
-6.5843,-6.6445,0.6792,-0.3552,-0.3033,0.0573,0.0027,0.0101,0.0171,633,2019-08-07 16:45:46:260
-6.5843,-6.6445,0.6792,-0.3552,-0.3033,0.0573,0.0027,0.0101,0.0171,637,2019-08-07 16:45:46:264
-6.5843,-6.6445,0.6792,-0.324,-0.2249,0.1685,-0.0016,0.0239,0.0171,643,2019-08-07 16:45:46:270
-6.6369,-6.6923,0.6038,-0.324,-0.2249,0.1685,-0.0016,0.0239,0.0171,648,2019-08-07 16:45:46:275
-6.6369,-6.6923,0.6038,-0.324,-0.2249,0.1685,0.0027,0.0516,0.0075,653,2019-08-07 16:45:46:280
-6.6369,-6.6923,0.6038,-0.324,-0.2249,0.1685,0.0027,0.0516,0.0075,658,2019-08-07 16:45:46:285
-6.7852,-6.635,0.7075,-0.324,-0.2249,0.1685,0.007,0.0452,0.0064,663,2019-08-07 16:45:46:290
-6.7852,-6.635,0.7075,-0.1015,-0.1898,0.0771,0.007,0.0452,0.0064,668,2019-08-07 16:45:46:295
-6.7852,-6.635,0.7075,-0.1015,-0.1898,0.0771,0.007,0.0452,0.0064,672,2019-08-07 16:45:46:299
-6.7805,-6.6541,0.7028,-0.1015,-0.1898,0.0771,0.008,0.0303,-0.0032,678,2019-08-07 16:45:46:305
-6.7805,-6.6541,0.7028,-0.1644,-0.223,0.1016,0.0123,0.0292,-0.0095,683,2019-08-07 16:45:46:310
-6.747,-6.7209,0.7075,-0.1644,-0.223,0.1016,0.0123,0.0292,-0.0095,688,2019-08-07 16:45:46:315
-6.747,-6.7209,0.7075,-0.1644,-0.223,0.1016,0.0123,0.0292,-0.0095,693,2019-08-07 16:45:46:320
-6.723,-6.7018,0.7547,-0.1644,-0.223,0.1016,0.0144,0.0228,-0.0138,698,2019-08-07 16:45:46:325
-6.723,-6.7018,0.7547,-0.1644,-0.223,0.1016,0.0144,0.0228,-0.0138,703,2019-08-07 16:45:46:330
-6.723,-6.7018,0.7547,-0.2344,-0.1819,-0.0173,0.0272,0.0079,-0.0181,707,2019-08-07 16:45:46:334
-6.6943,-6.7114,0.7782,-0.2344,-0.1819,-0.0173,0.0272,0.0079,-0.0181,713,2019-08-07 16:45:46:340
-6.6943,-6.7114,0.7782,-0.2344,-0.1819,-0.0173,0.0336,-0.0049,-0.0117,718,2019-08-07 16:45:46:345
-6.6943,-6.7114,0.7782,-0.2344,-0.1819,-0.0173,0.0336,-0.0049,-0.0117,722,2019-08-07 16:45:46:349
-6.6848,-6.5968,0.7735,-0.2324,-0.2885,-0.0127,0.0336,-0.0049,-0.0117,728,2019-08-07 16:45:46:355
-6.6848,-6.5968,0.7735,-0.2324,-0.2885,-0.0127,0.0368,-0.0113,-0.001,732,2019-08-07 16:45:46:359
-6.6848,-6.5968,0.7735,-0.2324,-0.2885,-0.0127,0.0368,-0.0113,-0.001,738,2019-08-07 16:45:46:365
-6.6895,-6.5395,0.7547,-0.2324,-0.2885,-0.0127,0.0325,-0.0294,0.0075,743,2019-08-07 16:45:46:370
-6.6895,-6.5395,0.7547,-0.2231,-0.3589,-0.0141,0.0325,-0.0294,0.0075,749,2019-08-07 16:45:46:376
-6.6991,-6.5204,0.6981,-0.2231,-0.3589,-0.0141,0.0229,-0.0379,0.0107,753,2019-08-07 16:45:46:380
-6.6991,-6.5204,0.6981,-0.2231,-0.3589,-0.0141,0.0229,-0.0379,0.0107,758,2019-08-07 16:45:46:385
-6.6991,-6.5204,0.6981,-0.2231,-0.3589,-0.0141,0.0197,-0.0251,0.0043,763,2019-08-07 16:45:46:390
-6.6847,-6.5347,0.6651,-0.253,-0.3568,0.1164,0.0197,-0.0251,0.0043,768,2019-08-07 16:45:46:395
-6.6847,-6.5347,0.6651,-0.253,-0.3568,0.1164,0.0197,-0.0251,0.0043,772,2019-08-07 16:45:46:399
-6.656,-6.5682,0.6698,-0.253,-0.3568,0.1164,0.0112,0.009,-0.0053,778,2019-08-07 16:45:46:405
-6.656,-6.5682,0.6698,-0.253,-0.3568,0.1164,0.0112,0.009,-0.0053,783,2019-08-07 16:45:46:410
-6.656,-6.5682,0.6698,-0.2146,-0.3377,0.1312,0.007,0.0314,-0.0095,788,2019-08-07 16:45:46:415
-6.7469,-6.5682,0.6745,-0.2146,-0.3377,0.1312,0.007,0.0314,-0.0095,793,2019-08-07 16:45:46:420
-6.7469,-6.5682,0.6745,-0.2146,-0.3377,0.1312,0.0038,0.042,-0.0202,798,2019-08-07 16:45:46:425
-6.7613,-6.5873,0.7452,-0.2146,-0.3377,0.1312,0.0038,0.042,-0.0202,803,2019-08-07 16:45:46:430
-6.7613,-6.5873,0.7452,-0.1271,-0.2968,0.0738,0.0038,0.042,-0.0202,807,2019-08-07 16:45:46:434
-6.7613,-6.5873,0.7452,-0.1271,-0.2968,0.0738,-0.0037,0.0399,-0.0277,813,2019-08-07 16:45:46:440
-6.7756,-6.6207,0.7311,-0.1271,-0.2968,0.0738,-0.0037,0.0399,-0.0277,817,2019-08-07 16:45:46:444
-6.7756,-6.6207,0.7311,-0.1271,-0.2968,0.0738,-0.009,0.0207,-0.0266,823,2019-08-07 16:45:46:450
-6.6704,-6.6493,0.7735,-0.2438,-0.2525,-0.0301,-0.009,0.0207,-0.0266,828,2019-08-07 16:45:46:455
-6.6704,-6.6493,0.7735,-0.2438,-0.2525,-0.0301,-0.0101,-0.0038,-0.0234,833,2019-08-07 16:45:46:460
-6.6704,-6.6493,0.7735,-0.2438,-0.2525,-0.0301,-0.0101,-0.0038,-0.0234,837,2019-08-07 16:45:46:464
-6.723,-6.6589,0.7924,-0.2438,-0.2525,-0.0301,-0.0037,-0.024,-0.0138,844,2019-08-07 16:45:46:471
-6.723,-6.6589,0.7924,-0.2601,-0.2076,0.0695,-0.0037,-0.024,-0.0138,849,2019-08-07 16:45:46:476
-6.723,-6.6589,0.7924,-0.2601,-0.2076,0.0695,-0.0037,-0.024,-0.0138,852,2019-08-07 16:45:46:479
-6.656,-6.6684,0.6887,-0.2601,-0.2076,0.0695,-5.0E-4,-0.0294,-0.0074,858,2019-08-07 16:45:46:485
-6.656,-6.6684,0.6887,-0.2601,-0.2076,0.0695,-5.0E-4,-0.0294,-0.0074,862,2019-08-07 16:45:46:489
-6.6608,-6.6111,0.6934,-0.2684,-0.2897,0.0821,6.0E-4,-0.0251,-0.001,868,2019-08-07 16:45:46:495
-6.6608,-6.6111,0.6934,-0.2684,-0.2897,0.0821,6.0E-4,-0.0251,-0.001,872,2019-08-07 16:45:46:499
-6.6608,-6.6111,0.6934,-0.2684,-0.2897,0.0821,0.008,-0.0176,0.0,878,2019-08-07 16:45:46:505
-6.589,-6.6016,0.6085,-0.2684,-0.2897,0.0821,0.0091,0.0069,-0.0064,884,2019-08-07 16:45:46:511
-6.589,-6.6016,0.6085,-0.3013,-0.2852,0.1787,0.0091,0.0069,-0.0064,888,2019-08-07 16:45:46:515
-6.6608,-6.6159,0.5991,-0.3013,-0.2852,0.1787,0.0091,0.0069,-0.0064,893,2019-08-07 16:45:46:520
-6.6608,-6.6159,0.5991,-0.3013,-0.2852,0.1787,0.007,0.0335,-0.0127,898,2019-08-07 16:45:46:525
-6.6608,-6.6159,0.5991,-0.3013,-0.2852,0.1787,0.007,0.0335,-0.0127,903,2019-08-07 16:45:46:530
-6.7325,-6.5873,0.651,-0.1902,-0.2868,0.0753,0.0134,0.0463,-0.0138,908,2019-08-07 16:45:46:535
-6.7325,-6.5873,0.651,-0.1902,-0.2868,0.0753,0.0134,0.0463,-0.0138,913,2019-08-07 16:45:46:540
-6.7517,-6.6302,0.7075,-0.1902,-0.2868,0.0753,0.0134,0.0399,-0.0181,918,2019-08-07 16:45:46:545
-6.7517,-6.6302,0.7075,-0.1902,-0.2868,0.0753,0.0134,0.0399,-0.0181,922,2019-08-07 16:45:46:549
-6.7517,-6.6302,0.7075,-0.184,-0.2885,0.0061,0.0123,0.0132,-0.0159,928,2019-08-07 16:45:46:555
-6.699,-6.5968,0.7877,-0.184,-0.2885,0.0061,0.0123,0.0132,-0.0159,933,2019-08-07 16:45:46:560
-6.699,-6.5968,0.7877,-0.184,-0.2885,0.0061,0.0144,-0.0219,-0.0074,937,2019-08-07 16:45:46:564
-6.5938,-6.5873,0.8112,-0.184,-0.2885,0.0061,0.0144,-0.0219,-0.0074,943,2019-08-07 16:45:46:570
-6.5938,-6.5873,0.8112,-0.3358,-0.2893,-0.0173,0.0112,-0.0368,0.0,948,2019-08-07 16:45:46:575
-6.5938,-6.5873,0.8112,-0.3358,-0.2893,-0.0173,0.0112,-0.0368,0.0,952,2019-08-07 16:45:46:579
-6.5507,-6.5825,0.8065,-0.3358,-0.2893,-0.0173,0.0091,-0.0475,0.0128,958,2019-08-07 16:45:46:585
-6.5507,-6.5825,0.8065,-0.3358,-0.2893,-0.0173,0.0091,-0.0475,0.0128,962,2019-08-07 16:45:46:589
-6.4933,-6.5729,0.7971,-0.432,-0.3309,-0.0142,0.007,-0.0421,0.0213,968,2019-08-07 16:45:46:595
-6.4933,-6.5729,0.7971,-0.432,-0.3309,-0.0142,0.007,-0.0421,0.0213,972,2019-08-07 16:45:46:599
-6.4933,-6.5729,0.7971,-0.432,-0.3309,-0.0142,0.0059,-0.0304,0.0267,978,2019-08-07 16:45:46:605
-6.4981,-6.5634,0.7123,-0.432,-0.3309,-0.0142,0.0059,-0.0304,0.0267,983,2019-08-07 16:45:46:610
-6.4981,-6.5634,0.7123,-0.4111,-0.399,0.0333,0.0038,-0.0123,0.0277,988,2019-08-07 16:45:46:615
-6.5172,-6.5825,0.6416,-0.4111,-0.399,0.0333,0.0038,-0.0123,0.0277,993,2019-08-07 16:45:46:620
-6.5172,-6.5825,0.6416,-0.4111,-0.399,0.0333,-0.0026,0.0132,0.0256,998,2019-08-07 16:45:46:625
-6.5172,-6.5825,0.6416,-0.4111,-0.399,0.0333,-0.0026,0.0132,0.0256,1003,2019-08-07 16:45:46:630
-6.5507,-6.5968,0.6981,-0.4111,-0.399,0.0333,-0.0026,0.0132,0.0256,1008,2019-08-07 16:45:46:635
-6.5507,-6.5968,0.6981,-0.3525,-0.3049,0.0686,-0.009,0.0495,0.015,1013,2019-08-07 16:45:46:640
-6.6751,-6.6207,0.7594,-0.3525,-0.3049,0.0686,-0.009,0.0495,0.015,1018,2019-08-07 16:45:46:645
-6.6751,-6.6207,0.7594,-0.3525,-0.3049,0.0686,-0.0122,0.0559,0.0128,1023,2019-08-07 16:45:46:650
-6.6751,-6.6207,0.7594,-0.3525,-0.3049,0.0686,-0.0122,0.0559,0.0128,1028,2019-08-07 16:45:46:655
-6.7373,-6.6446,0.7311,-0.1929,-0.2647,0.0073,-0.0154,0.0431,0.0107,1032,2019-08-07 16:45:46:659
-6.7373,-6.6446,0.7311,-0.1929,-0.2647,0.0073,-0.0154,0.0431,0.0107,1038,2019-08-07 16:45:46:665
-6.7373,-6.6446,0.7311,-0.1929,-0.2647,0.0073,-0.0175,0.0186,0.016,1043,2019-08-07 16:45:46:670
-6.7038,-6.6302,0.8254,-0.2482,-0.2865,-0.0168,-0.0175,0.0186,0.016,1048,2019-08-07 16:45:46:675
-6.7038,-6.6302,0.8254,-0.2482,-0.2865,-0.0168,-0.0218,-0.0176,0.0267,1053,2019-08-07 16:45:46:680
-6.7038,-6.6302,0.8254,-0.2482,-0.2865,-0.0168,-0.0218,-0.0176,0.0267,1058,2019-08-07 16:45:46:685
-6.5315,-6.6159,0.7735,-0.2482,-0.2865,-0.0168,-0.0218,-0.0176,0.0267,1062,2019-08-07 16:45:46:689
-6.5315,-6.6159,0.7735,-0.2482,-0.2865,-0.0168,-0.0186,-0.0304,0.0448,1068,2019-08-07 16:45:46:695
-6.4215,-6.5873,0.783,-0.5199,-0.3017,-0.0113,-0.0186,-0.0304,0.0448,1073,2019-08-07 16:45:46:700
-6.4215,-6.5873,0.783,-0.5199,-0.3017,-0.0113,-0.0154,-0.0315,0.065,1079,2019-08-07 16:45:46:706
-6.4215,-6.5873,0.783,-0.5199,-0.3017,-0.0113,-0.0154,-0.0315,0.065,1083,2019-08-07 16:45:46:710
-6.3593,-6.5061,0.6746,-0.5199,-0.3017,-0.0113,-0.009,-0.0208,0.0885,1087,2019-08-07 16:45:46:714
-6.3593,-6.5061,0.6746,-0.5903,-0.3456,0.0898,-0.009,-0.0208,0.0885,1093,2019-08-07 16:45:46:720
-6.2971,-6.4154,0.6887,-0.5903,-0.3456,0.0898,-0.0069,-0.0134,0.1066,1098,2019-08-07 16:45:46:725
-6.2971,-6.4154,0.6887,-0.5903,-0.3456,0.0898,-0.0069,-0.0134,0.1066,1103,2019-08-07 16:45:46:730
-6.2971,-6.4154,0.6887,-0.5903,-0.3456,0.0898,-0.0069,-0.0134,0.1066,1107,2019-08-07 16:45:46:734
-6.278,-6.4059,0.6604,-0.6336,-0.4694,0.1785,-0.008,0.0164,0.1236,1114,2019-08-07 16:45:46:741
-6.278,-6.4059,0.6604,-0.6336,-0.4694,0.1785,-0.008,0.0164,0.1236,1118,2019-08-07 16:45:46:745
-6.4305,-6.2723,0.604,-0.6336,-0.4694,0.1785,-0.009,0.0697,0.1343,1123,2019-08-07 16:45:46:750
-6.4305,-6.2723,0.604,-0.6336,-0.4694,0.1785,-0.009,0.0697,0.1343,1128,2019-08-07 16:45:46:755
-6.4305,-6.2723,0.604,-0.539,-0.5652,0.1254,-0.0037,0.0899,0.1481,1133,2019-08-07 16:45:46:760
-6.4687,-6.2484,0.5945,-0.539,-0.5652,0.1254,-0.0037,0.0899,0.1481,1138,2019-08-07 16:45:46:765
-6.4687,-6.2484,0.5945,-0.539,-0.5652,0.1254,-0.0037,0.0899,0.1481,1142,2019-08-07 16:45:46:769
-6.4304,-6.1768,0.5144,-0.539,-0.5652,0.1254,-5.0E-4,0.1017,0.1609,1148,2019-08-07 16:45:46:775
-6.4304,-6.1768,0.5144,-0.5387,-0.6286,0.2095,-5.0E-4,0.1017,0.1609,1153,2019-08-07 16:45:46:780
-6.4304,-6.1768,0.5144,-0.5387,-0.6286,0.2095,0.0048,0.1027,0.1822,1158,2019-08-07 16:45:46:785
-6.4352,-6.1625,0.5851,-0.5387,-0.6286,0.2095,0.0048,0.1027,0.1822,1164,2019-08-07 16:45:46:791
-6.4352,-6.1625,0.5851,-0.5387,-0.6286,0.2095,0.008,0.0942,0.2099,1168,2019-08-07 16:45:46:795
-6.3012,-6.1243,0.6464,-0.6963,-0.6725,0.1009,0.008,0.0942,0.2099,1173,2019-08-07 16:45:46:800
-6.3012,-6.1243,0.6464,-0.6963,-0.6725,0.1009,0.0123,0.0846,0.244,1177,2019-08-07 16:45:46:804
-6.3012,-6.1243,0.6464,-0.6963,-0.6725,0.1009,0.0123,0.0846,0.244,1183,2019-08-07 16:45:46:810
-6.2677,-5.9906,0.6841,-0.6963,-0.6725,0.1009,0.0144,0.0505,0.2994,1188,2019-08-07 16:45:46:815
-6.2677,-5.9906,0.6841,-0.9103,-0.845,0.0122,0.0144,0.0505,0.2994,1193,2019-08-07 16:45:46:820
-6.2677,-5.9906,0.6841,-0.9103,-0.845,0.0122,0.0144,0.0505,0.2994,1198,2019-08-07 16:45:46:825
-6.0668,-5.7853,0.6794,-0.9103,-0.845,0.0122,0.007,0.0239,0.3548,1203,2019-08-07 16:45:46:830
-6.0668,-5.7853,0.6794,-0.9103,-0.845,0.0122,0.007,0.0239,0.3548,1208,2019-08-07 16:45:46:835
-5.8754,-5.4178,0.6087,-1.2478,-1.2885,0.1142,-0.0037,0.0015,0.4283,1213,2019-08-07 16:45:46:840
-5.8754,-5.4178,0.6087,-1.2478,-1.2885,0.1142,-0.0037,0.0015,0.4283,1218,2019-08-07 16:45:46:845
-5.8754,-5.4178,0.6087,-1.2478,-1.2885,0.1142,-0.0111,-0.0294,0.5593,1223,2019-08-07 16:45:46:850
-5.2391,-4.7828,0.5521,-1.2478,-1.2885,0.1142,-0.0111,-0.0294,0.5593,1228,2019-08-07 16:45:46:855
-5.2391,-4.7828,0.5521,-2.1933,-2.0959,0.192,0.0048,-0.0347,0.7159,1233,2019-08-07 16:45:46:860
-5.2391,-4.7828,0.5521,-2.1933,-2.0959,0.192,0.0048,-0.0347,0.7159,1238,2019-08-07 16:45:46:865
-4.5358,-4.315,0.5663,-2.1933,-2.0959,0.192,0.0048,-0.0347,0.7159,1243,2019-08-07 16:45:46:870
-4.5358,-4.315,0.5663,-2.1933,-2.0959,0.192,0.0421,5.0E-4,0.9226,1248,2019-08-07 16:45:46:875
-3.9712,-3.9188,0.5899,-3.3447,-2.5756,0.1421,0.0421,5.0E-4,0.9226,1253,2019-08-07 16:45:46:880
-3.9712,-3.9188,0.5899,-3.3447,-2.5756,0.1421,0.0964,0.0867,1.2326,1257,2019-08-07 16:45:46:884
-3.9712,-3.9188,0.5899,-3.3447,-2.5756,0.1421,0.0964,0.0867,1.2326,1263,2019-08-07 16:45:46:890
-3.4976,-3.5655,1.1084,-3.3447,-2.5756,0.1421,0.1348,0.1304,1.5298,1268,2019-08-07 16:45:46:895
-3.4976,-3.5655,1.1084,-4.1954,-2.9138,-0.7161,0.1348,0.1304,1.5298,1273,2019-08-07 16:45:46:900
-3.4976,-3.5655,1.1084,-4.1954,-2.9138,-0.7161,0.1348,0.1304,1.5298,1277,2019-08-07 16:45:46:904
-3.2488,-3.4223,1.5279,-4.1954,-2.9138,-0.7161,0.1689,0.1049,1.8728,1283,2019-08-07 16:45:46:910
-3.2488,-3.4223,1.5279,-4.1954,-2.9138,-0.7161,0.1689,0.1049,1.8728,1288,2019-08-07 16:45:46:915
-3.2488,-3.4223,1.5279,-5.3383,-3.0573,-1.0556,0.1689,-0.089,2.5439,1293,2019-08-07 16:45:46:920
-2.1963,-2.7874,1.773,-5.3383,-3.0573,-1.0556,0.1689,-0.089,2.5439,1298,2019-08-07 16:45:46:925
-2.1963,-2.7874,1.773,-5.3383,-3.0573,-1.0556,0.1572,-0.2254,3.0179,1303,2019-08-07 16:45:46:930
-0.6892,-2.3482,0.769,-5.3383,-3.0573,-1.0556,0.1572,-0.2254,3.0179,1308,2019-08-07 16:45:46:935
-0.6892,-2.3482,0.769,-8.0444,-3.3431,0.6325,0.1678,-0.2083,3.5325,1313,2019-08-07 16:45:46:940
-0.6892,-2.3482,0.769,-8.0444,-3.3431,0.6325,0.1678,-0.2083,3.5325,1317,2019-08-07 16:45:46:944
1.1527,-1.8517,-0.9751,-8.0444,-3.3431,0.6325,0.1678,-0.2083,3.5325,1323,2019-08-07 16:45:46:950
1.1527,-1.8517,-0.9751,-8.0444,-3.3431,0.6325,0.2711,0.1507,4.1908,1327,2019-08-07 16:45:46:954
1.1527,-1.8517,-0.9751,-10.3127,-3.7986,1.9836,0.2711,0.1507,4.1908,1333,2019-08-07 16:45:46:960
1.8704,-0.7824,-0.8526,-10.3127,-3.7986,1.9836,0.4416,0.6492,4.6979,1338,2019-08-07 16:45:46:965
1.8704,-0.7824,-0.8526,-10.3127,-3.7986,1.9836,0.4416,0.6492,4.6979,1342,2019-08-07 16:45:46:969
0.7126,0.54,-0.466,-10.3127,-3.7986,1.9836,0.6333,0.9816,5.304,1348,2019-08-07 16:45:46:975
0.7126,0.54,-0.466,-8.7157,-5.0359,0.6225,0.6333,0.9816,5.304,1352,2019-08-07 16:45:46:979
0.7126,0.54,-0.466,-8.7157,-5.0359,0.6225,0.6333,0.9816,5.304,1358,2019-08-07 16:45:46:985
-1.0958,1.3229,0.7407,-8.7157,-5.0359,0.6225,0.7814,1.25,6.0348,1363,2019-08-07 16:45:46:990
-1.0958,1.3229,0.7407,-6.7648,-5.1054,-0.8569,0.7814,1.25,6.0348,1369,2019-08-07 16:45:46:996
-1.0958,1.3229,0.7407,-6.7648,-5.1054,-0.8569,0.8336,0.8559,6.5983,1372,2019-08-07 16:45:46:999
-5.8992,2.2108,3.6539,-6.7648,-5.1054,-0.8569,0.8336,0.8559,6.5983,1378,2019-08-07 16:45:47:005
-5.8992,2.2108,3.6539,-6.7648,-5.1054,-0.8569,0.8443,-0.1892,7.1064,1383,2019-08-07 16:45:47:010
-10.248,2.4877,5.8222,-0.0374,-4.6069,-4.8187,0.8443,-0.1892,7.1064,1388,2019-08-07 16:45:47:015
-10.248,2.4877,5.8222,-0.0374,-4.6069,-4.8187,0.8645,-1.6731,7.655,1393,2019-08-07 16:45:47:020
-10.248,2.4877,5.8222,-0.0374,-4.6069,-4.8187,0.8645,-1.6731,7.655,1397,2019-08-07 16:45:47:024
-12.0086,1.6618,6.1993,2.7924,-1.1992,-4.7803,0.922,-4.0443,8.2516,1404,2019-08-07 16:45:47:031
-12.0086,1.6618,6.1993,2.7924,-1.1992,-4.7803,0.922,-4.0443,8.2516,1408,2019-08-07 16:45:47:035
-12.3339,-0.3575,4.7569,2.7924,-1.1992,-4.7803,0.922,-4.0443,8.2516,1413,2019-08-07 16:45:47:040
-12.3339,-0.3575,4.7569,2.7924,-1.1992,-4.7803,1.0935,-6.0098,8.6468,1418,2019-08-07 16:45:47:045
-12.3339,-0.3575,4.7569,2.7924,-1.1992,-4.7803,1.0935,-6.0098,8.6468,1423,2019-08-07 16:45:47:050
-9.9418,-2.057,2.2774,0.4466,3.2126,-0.1,1.5686,-7.6705,8.9515,1427,2019-08-07 16:45:47:054
-9.9418,-2.057,2.2774,0.4466,3.2126,-0.1,1.5686,-7.6705,8.9515,1433,2019-08-07 16:45:47:060
-9.9418,-2.057,2.2774,0.4466,3.2126,-0.1,2.6818,-8.5504,9.1784,1437,2019-08-07 16:45:47:064
-3.9184,-2.9067,-2.3845,0.4466,3.2126,-0.1,2.6818,-8.5504,9.1784,1443,2019-08-07 16:45:47:070
-3.9184,-2.9067,-2.3845,-5.7383,5.6031,6.4126,3.7759,-7.9102,9.2561,1448,2019-08-07 16:45:47:075
-3.9184,-2.9067,-2.3845,-5.7383,5.6031,6.4126,3.7759,-7.9102,9.2561,1453,2019-08-07 16:45:47:080
2.5834,-0.2525,-4.6236,-5.7383,5.6031,6.4126,3.7759,-7.9102,9.2561,1457,2019-08-07 16:45:47:084
2.5834,-0.2525,-4.6236,-5.7383,5.6031,6.4126,4.9711,-5.7999,9.1943,1463,2019-08-07 16:45:47:090
3.7364,4.1967,-2.8323,-11.3731,1.924,7.9404,4.9711,-5.7999,9.1943,1468,2019-08-07 16:45:47:095
3.7364,4.1967,-2.8323,-11.3731,1.924,7.9404,5.786,-3.8611,8.928,1473,2019-08-07 16:45:47:100
3.7364,4.1967,-2.8323,-11.3731,1.924,7.9404,5.786,-3.8611,8.928,1477,2019-08-07 16:45:47:104
-1.665,11.3001,2.8007,-11.3731,1.924,7.9404,6.0598,-3.3402,8.911,1482,2019-08-07 16:45:47:109
-1.665,11.3001,2.8007,-1.2851,-7.7956,-1.0169,6.0598,-3.3402,8.911,1488,2019-08-07 16:45:47:115
-1.665,11.3001,2.8007,-1.2851,-7.7956,-1.0169,6.0598,-3.3402,8.911,1493,2019-08-07 16:45:47:120
-9.5973,20.2033,8.9333,-1.2851,-7.7956,-1.0169,6.3453,-3.7695,9.1624,1497,2019-08-07 16:45:47:124
-9.5973,20.2033,8.9333,-1.2851,-7.7956,-1.0169,6.3453,-3.7695,9.1624,1503,2019-08-07 16:45:47:130
-9.5973,20.2033,8.9333,8.1515,-19.1718,-6.7367,6.4049,-5.3919,9.1357,1508,2019-08-07 16:45:47:135
-13.4342,28.8917,10.8943,8.1515,-19.1718,-6.7367,6.4049,-5.3919,9.1357,1513,2019-08-07 16:45:47:140
-13.4342,28.8917,10.8943,11.9163,-23.6339,-5.9183,6.1642,-7.5011,9.091,1518,2019-08-07 16:45:47:145
-15.6637,32.959,4.4411,11.9163,-23.6339,-5.9183,6.1642,-7.5011,9.091,1523,2019-08-07 16:45:47:150
-15.6637,32.959,4.4411,11.9163,-23.6339,-5.9183,5.4537,-8.9605,9.2306,1528,2019-08-07 16:45:47:155
-15.6637,32.959,4.4411,11.9163,-23.6339,-5.9183,5.4537,-8.9605,9.2306,1534,2019-08-07 16:45:47:161
-7.7314,26.8103,-5.4061,6.6273,-17.4364,8.0796,3.7428,-8.6314,8.9834,1538,2019-08-07 16:45:47:165
-7.7314,26.8103,-5.4061,6.6273,-17.4364,8.0796,3.7428,-8.6314,8.9834,1542,2019-08-07 16:45:47:169
5.32,20.7237,-10.7185,6.6273,-17.4364,8.0796,2.0001,-7.5533,7.7403,1549,2019-08-07 16:45:47:176
5.32,20.7237,-10.7185,6.6273,-17.4364,8.0796,2.0001,-7.5533,7.7403,1552,2019-08-07 16:45:47:179
5.32,20.7237,-10.7185,-11.5107,-8.3763,13.2685,2.0001,-7.5533,7.7403,1558,2019-08-07 16:45:47:185
14.5823,17.0048,-10.6761,-11.5107,-8.3763,13.2685,0.4757,-4.8156,5.8228,1563,2019-08-07 16:45:47:190
14.5823,17.0048,-10.6761,-18.2305,-3.8902,8.0179,0.4757,-4.8156,5.8228,1567,2019-08-07 16:45:47:194
14.5823,17.0048,-10.6761,-18.2305,-3.8902,8.0179,-0.4255,1.054,2.8624,1573,2019-08-07 16:45:47:200
21.9788,9.1424,7.3731,-18.2305,-3.8902,8.0179,-0.4255,1.054,2.8624,1577,2019-08-07 16:45:47:204
21.9788,9.1424,7.3731,-18.2305,-3.8902,8.0179,0.3201,3.4828,0.2206,1583,2019-08-07 16:45:47:210
21.9788,9.1424,7.3731,-10.8206,3.0816,-8.1491,0.3201,3.4828,0.2206,1588,2019-08-07 16:45:47:215
10.865,6.9321,9.862,-10.8206,3.0816,-8.1491,1.6049,5.836,-1.8002,1593,2019-08-07 16:45:47:220
10.865,6.9321,9.862,-10.8206,3.0816,-8.1491,1.6049,5.836,-1.8002,1598,2019-08-07 16:45:47:225
-1.6745,14.1262,5.0256,-2.0135,-0.9995,-4.709,1.2491,6.3398,-3.02,1603,2019-08-07 16:45:47:230
-1.6745,14.1262,5.0256,-2.0135,-0.9995,-4.709,1.2491,6.3398,-3.02,1608,2019-08-07 16:45:47:235
-1.6745,14.1262,5.0256,-2.0135,-0.9995,-4.709,1.2491,6.3398,-3.02,1613,2019-08-07 16:45:47:240
-10.8124,20.4659,5.1623,12.4393,-11.3349,-3.2768,-0.0058,5.6346,-3.1286,1618,2019-08-07 16:45:47:245
-10.8124,20.4659,5.1623,12.4393,-11.3349,-3.2768,-0.0058,5.6346,-3.1286,1622,2019-08-07 16:45:47:249
-11.6448,19.0051,6.4916,12.4393,-11.3349,-3.2768,-1.3172,4.0421,-2.4096,1628,2019-08-07 16:45:47:255
-11.6448,19.0051,6.4916,12.4393,-11.3349,-3.2768,-1.3172,4.0421,-2.4096,1634,2019-08-07 16:45:47:261
-11.6448,19.0051,6.4916,6.183,-4.8925,-6.4769,-2.6807,2.3036,-1.6511,1638,2019-08-07 16:45:47:265
-11.6448,19.0051,6.4916,6.183,-4.8925,-6.4769,-2.6807,2.3036,-1.6511,1643,2019-08-07 16:45:47:270
-3.4016,12.7179,10.9415,6.183,-4.8925,-6.4769,-2.8565,2.1267,-1.6064,1648,2019-08-07 16:45:47:275
-3.4016,12.7179,10.9415,6.183,-4.8925,-6.4769,-2.8565,2.1267,-1.6064,1653,2019-08-07 16:45:47:280
0.6029,10.1926,11.8277,6.183,-4.8925,-6.4769,-2.8565,2.1267,-1.6064,1658,2019-08-07 16:45:47:285
0.6029,10.1926,11.8277,-0.5677,-0.5854,-6.7323,-1.3864,2.7179,-2.0144,1663,2019-08-07 16:45:47:290
-0.7032,10.4504,2.7819,-0.5677,-0.5854,-6.7323,-1.3864,2.7179,-2.0144,1668,2019-08-07 16:45:47:295
-0.7032,10.4504,2.7819,-0.5677,-0.5854,-6.7323,-1.5973,3.7651,-2.5608,1673,2019-08-07 16:45:47:300
-0.7032,10.4504,2.7819,0.8759,-2.2943,1.8368,-1.5973,3.7651,-2.5608,1678,2019-08-07 16:45:47:305
-2.526,11.7154,1.6176,0.8759,-2.2943,1.8368,-2.3142,4.6898,-3.4216,1683,2019-08-07 16:45:47:310
-2.526,11.7154,1.6176,0.8759,-2.2943,1.8368,-2.3142,4.6898,-3.4216,1688,2019-08-07 16:45:47:315
-2.526,11.7154,1.6176,0.8759,-2.2943,1.8368,-3.0184,5.0029,-4.5497,1693,2019-08-07 16:45:47:320
-8.9417,13.4722,4.6627,0.8759,-2.2943,1.8368,-3.0184,5.0029,-4.5497,1698,2019-08-07 16:45:47:325
-8.9417,13.4722,4.6627,8.0583,-4.9559,-1.8033,-3.0184,5.0029,-4.5497,1702,2019-08-07 16:45:47:329
-8.9417,13.4722,4.6627,8.0583,-4.9559,-1.8033,-3.5169,4.4554,-5.762,1708,2019-08-07 16:45:47:335
-13.6876,15.1335,7.3495,8.0583,-4.9559,-1.8033,-3.5169,4.4554,-5.762,1713,2019-08-07 16:45:47:340
-13.6876,15.1335,7.3495,8.0583,-4.9559,-1.8033,-3.4658,3.6628,-6.1678,1718,2019-08-07 16:45:47:345
-13.9172,15.5488,8.132,10.8994,-7.3185,-4.4272,-3.4658,3.6628,-6.1678,1723,2019-08-07 16:45:47:350
-13.9172,15.5488,8.132,10.8994,-7.3185,-4.4272,-3.3252,2.7339,-6.4214,1728,2019-08-07 16:45:47:355
-13.9172,15.5488,8.132,10.8994,-7.3185,-4.4272,-3.3252,2.7339,-6.4214,1733,2019-08-07 16:45:47:360
-11.5538,14.4222,5.4075,10.8994,-7.3185,-4.4272,-3.3273,1.9829,-6.5513,1738,2019-08-07 16:45:47:365
-11.5538,14.4222,5.4075,6.2667,-6.6897,-0.4945,-3.3273,1.9829,-6.5513,1743,2019-08-07 16:45:47:370
-9.3052,12.5556,3.1071,6.2667,-6.6897,-0.4945,-3.5127,1.7379,-6.514,1749,2019-08-07 16:45:47:376
-9.3052,12.5556,3.1071,6.2667,-6.6897,-0.4945,-3.5127,1.7379,-6.514,1753,2019-08-07 16:45:47:380
-9.3052,12.5556,3.1071,6.2667,-6.6897,-0.4945,-3.5127,1.7379,-6.514,1757,2019-08-07 16:45:47:384
-7.8508,10.4933,2.3058,1.9707,-4.0248,2.1461,-3.7854,1.9424,-6.3585,1764,2019-08-07 16:45:47:391
-7.8508,10.4933,2.3058,1.9707,-4.0248,2.1461,-3.7854,1.9424,-6.3585,1768,2019-08-07 16:45:47:395
-7.8508,10.4933,2.3058,1.9707,-4.0248,2.1461,-3.8525,2.3259,-6.2818,1772,2019-08-07 16:45:47:399
-6.3629,7.018,3.027,1.9707,-4.0248,2.1461,-3.8525,2.3259,-6.2818,1778,2019-08-07 16:45:47:405
-6.3629,7.018,3.027,-0.668,-0.6575,1.0007,-3.698,2.7829,-6.2733,1784,2019-08-07 16:45:47:411
-6.3629,7.018,3.027,-0.668,-0.6575,1.0007,-3.698,2.7829,-6.2733,1788,2019-08-07 16:45:47:415
-6.1571,4.1298,3.8048,-0.668,-0.6575,1.0007,-3.3752,3.1654,-6.2893,1793,2019-08-07 16:45:47:420
-6.1571,4.1298,3.8048,-0.668,-0.6575,1.0007,-3.3752,3.1654,-6.2893,1798,2019-08-07 16:45:47:425
-6.1571,4.1298,3.8048,-0.9996,0.9565,1.0438,-3.0546,3.4455,-6.318,1803,2019-08-07 16:45:47:430
-6.9417,2.9841,3.357,-0.9996,0.9565,1.0438,-3.0546,3.4455,-6.318,1808,2019-08-07 16:45:47:435
-6.9417,2.9841,3.357,-0.9996,0.9565,1.0438,-2.8288,3.4785,-6.3074,1813,2019-08-07 16:45:47:440
-6.9417,2.9841,3.357,-0.9996,0.9565,1.0438,-2.8288,3.4785,-6.3074,1818,2019-08-07 16:45:47:445
-7.3149,2.1391,3.423,-1.1569,0.6408,0.6681,-2.5795,3.2282,-6.2552,1822,2019-08-07 16:45:47:449
-7.3149,2.1391,3.423,-1.1569,0.6408,0.6681,-2.5795,3.2282,-6.2552,1828,2019-08-07 16:45:47:455
-6.8269,1.4231,3.1307,-1.7912,0.5397,0.6879,-2.3835,3.078,-6.2349,1833,2019-08-07 16:45:47:460
-6.8269,1.4231,3.1307,-1.7912,0.5397,0.6879,-2.3835,3.078,-6.2349,1838,2019-08-07 16:45:47:465
-6.8269,1.4231,3.1307,-1.7912,0.5397,0.6879,-2.0543,2.9321,-6.2211,1843,2019-08-07 16:45:47:470
-6.5494,0.8168,1.9758,-1.7912,0.5397,0.6879,-2.0543,2.9321,-6.2211,1848,2019-08-07 16:45:47:475
-6.5494,0.8168,1.9758,-2.8543,0.1153,1.5815,-1.6687,2.9544,-6.1753,1853,2019-08-07 16:45:47:480
-6.5494,0.8168,1.9758,-2.8543,0.1153,1.5815,-1.6687,2.9544,-6.1753,1858,2019-08-07 16:45:47:485
-6.1045,0.5304,1.5752,-2.8543,0.1153,1.5815,-1.6687,2.9544,-6.1753,1863,2019-08-07 16:45:47:490
-6.1045,0.5304,1.5752,-2.8543,0.1153,1.5815,-1.4003,2.9672,-6.1071,1868,2019-08-07 16:45:47:495
-5.5255,0.1819,1.7684,-3.7589,-0.6487,1.0846,-1.4003,2.9672,-6.1071,1873,2019-08-07 16:45:47:500
-5.5255,0.1819,1.7684,-3.7589,-0.6487,1.0846,-1.1052,2.9768,-5.9708,1878,2019-08-07 16:45:47:505
-4.9275,-0.4149,1.6883,-3.7589,-0.6487,1.0846,-1.1052,2.9768,-5.9708,1884,2019-08-07 16:45:47:511
-4.9275,-0.4149,1.6883,-3.7589,-0.6487,1.0846,-0.8048,3.1206,-5.8003,1888,2019-08-07 16:45:47:515
-4.9275,-0.4149,1.6883,-3.7589,-0.6487,1.0846,-0.8048,3.1206,-5.8003,1893,2019-08-07 16:45:47:520
-4.9275,-0.4149,1.6883,-4.804,-0.5831,0.5017,-0.8048,3.1206,-5.8003,1897,2019-08-07 16:45:47:524
-4.6644,-1.3314,1.6317,-4.804,-0.5831,0.5017,-0.5949,3.1686,-5.6906,1903,2019-08-07 16:45:47:530
-4.6644,-1.3314,1.6317,-4.804,-0.5831,0.5017,-0.5949,3.1686,-5.6906,1908,2019-08-07 16:45:47:535
-5.1619,-1.9473,1.1651,-4.1332,-0.7309,0.4675,-0.2444,3.2112,-5.4392,1913,2019-08-07 16:45:47:540
-5.1619,-1.9473,1.1651,-4.1332,-0.7309,0.4675,-0.2444,3.2112,-5.4392,1918,2019-08-07 16:45:47:545
-5.1619,-1.9473,1.1651,-4.1332,-0.7309,0.4675,0.0666,3.0514,-5.1345,1923,2019-08-07 16:45:47:550
-5.5638,-2.1334,1.6553,-4.1332,-0.7309,0.4675,0.0666,3.0514,-5.1345,1928,2019-08-07 16:45:47:555
-5.5638,-2.1334,1.6553,-3.1902,-1.6022,-0.5597,0.2701,2.6828,-4.8693,1933,2019-08-07 16:45:47:560
-5.5638,-2.1334,1.6553,-3.1902,-1.6022,-0.5597,0.2701,2.6828,-4.8693,1938,2019-08-07 16:45:47:565
-6.2718,-2.0284,1.2028,-3.1902,-1.6022,-0.5597,0.3564,2.2993,-4.5603,1943,2019-08-07 16:45:47:570
-6.2718,-2.0284,1.2028,-3.1902,-1.6022,-0.5597,0.3564,2.2993,-4.5603,1949,2019-08-07 16:45:47:576
-6.2718,-2.0284,1.2028,-2.3647,-2.3833,-0.4533,0.351,1.9648,-4.2567,1953,2019-08-07 16:45:47:580
-6.2909,-2.0571,1.2546,-2.3647,-2.3833,-0.4533,0.351,1.9648,-4.2567,1958,2019-08-07 16:45:47:585
-6.2909,-2.0571,1.2546,-2.3647,-2.3833,-0.4533,0.3404,1.6229,-3.9649,1963,2019-08-07 16:45:47:590
-6.1857,-1.9711,1.9994,-2.3647,-2.3833,-0.4533,0.3404,1.6229,-3.9649,1968,2019-08-07 16:45:47:595
-6.1857,-1.9711,1.9994,-2.3895,-3.1196,-1.5869,0.3404,1.6229,-3.9649,1973,2019-08-07 16:45:47:600
-6.1857,-1.9711,1.9994,-2.3895,-3.1196,-1.5869,0.2967,1.168,-3.5611,1977,2019-08-07 16:45:47:604
-5.1523,-2.2194,1.4715,-2.3895,-3.1196,-1.5869,0.2967,1.168,-3.5611,1983,2019-08-07 16:45:47:610
-5.1523,-2.2194,1.4715,-2.3895,-3.1196,-1.5869,0.22,0.875,-3.2085,1987,2019-08-07 16:45:47:614
-4.1045,-2.9402,0.5193,-3.8873,-2.7399,-0.1964,0.22,0.875,-3.2085,1993,2019-08-07 16:45:47:620
-4.1045,-2.9402,0.5193,-3.8873,-2.7399,-0.1964,0.22,0.875,-3.2085,1998,2019-08-07 16:45:47:625
-4.1045,-2.9402,0.5193,-3.8873,-2.7399,-0.1964,0.2317,0.825,-2.9454,2003,2019-08-07 16:45:47:630
-3.9849,-3.6706,-0.1171,-3.8873,-2.7399,-0.1964,0.2317,0.825,-2.9454,2008,2019-08-07 16:45:47:635
-3.9849,-3.6706,-0.1171,-3.3693,-2.1984,0.5504,0.3297,0.8985,-2.7004,2013,2019-08-07 16:45:47:640
-4.5446,-4.0286,-0.0888,-3.3693,-2.1984,0.5504,0.3297,0.8985,-2.7004,2019,2019-08-07 16:45:47:646
-4.5446,-4.0286,-0.0888,-3.3693,-2.1984,0.5504,0.4597,0.972,-2.3936,2023,2019-08-07 16:45:47:650
-4.5446,-4.0286,-0.0888,-3.3693,-2.1984,0.5504,0.4597,0.972,-2.3936,2028,2019-08-07 16:45:47:655
-4.9609,-4.1146,0.5429,-2.2898,-2.4087,-0.4134,0.5055,0.8601,-2.1486,2033,2019-08-07 16:45:47:660
-4.9609,-4.1146,0.5429,-2.2898,-2.4087,-0.4134,0.5055,0.8601,-2.1486,2038,2019-08-07 16:45:47:665
-4.9609,-4.1146,0.5429,-2.2898,-2.4087,-0.4134,0.5055,0.8601,-2.1486,2043,2019-08-07 16:45:47:670
-5.3962,-3.9761,0.5193,-2.2898,-2.4087,-0.4134,0.5151,0.6897,-1.9078,2048,2019-08-07 16:45:47:675
-5.3962,-3.9761,0.5193,-1.4266,-2.7203,-0.5311,0.5151,0.6897,-1.9078,2052,2019-08-07 16:45:47:679
-5.3962,-3.9761,0.5193,-1.4266,-2.7203,-0.5311,0.4789,0.3989,-1.5872,2058,2019-08-07 16:45:47:685
-5.9033,-4.1671,0.6984,-1.4266,-2.7203,-0.5311,0.4789,0.3989,-1.5872,2063,2019-08-07 16:45:47:690
-5.9033,-4.1671,0.6984,-1.4266,-2.7203,-0.5311,0.4235,0.173,-1.3923,2069,2019-08-07 16:45:47:696
-5.9033,-4.1671,0.6984,-1.4266,-2.7203,-0.5311,0.4235,0.173,-1.3923,2073,2019-08-07 16:45:47:700
-5.5254,-4.401,0.4297,-1.3836,-2.562,-0.2898,0.3628,0.0686,-1.2602,2078,2019-08-07 16:45:47:705
-5.5254,-4.401,0.4297,-1.3836,-2.562,-0.2898,0.3628,0.0686,-1.2602,2083,2019-08-07 16:45:47:710
-5.5254,-4.401,0.4297,-1.3836,-2.562,-0.2898,0.2978,0.0953,-1.0705,2088,2019-08-07 16:45:47:715
-4.9225,-4.7781,0.4298,-1.3836,-2.562,-0.2898,0.2978,0.0953,-1.0705,2093,2019-08-07 16:45:47:720
-4.9225,-4.7781,0.4298,-1.9822,-2.2125,-0.1253,0.269,0.1997,-0.964,2099,2019-08-07 16:45:47:726
-4.6594,-5.1553,0.1234,-1.9822,-2.2125,-0.1253,0.269,0.1997,-0.964,2103,2019-08-07 16:45:47:730
-4.6594,-5.1553,0.1234,-1.9822,-2.2125,-0.1253,0.269,0.1997,-0.964,2108,2019-08-07 16:45:47:735
-4.6594,-5.1553,0.1234,-1.9822,-2.2125,-0.1253,0.2168,0.5033,-0.7733,2112,2019-08-07 16:45:47:739
-4.9034,-5.3462,0.4628,-1.7248,-1.8841,-0.3009,0.2168,0.5033,-0.7733,2118,2019-08-07 16:45:47:745
-4.9034,-5.3462,0.4628,-1.7248,-1.8841,-0.3009,0.2232,0.6705,-0.5869,2123,2019-08-07 16:45:47:750
-5.6646,-5.5992,0.6606,-1.7248,-1.8841,-0.3009,0.2232,0.6705,-0.5869,2128,2019-08-07 16:45:47:755
-5.6646,-5.5992,0.6606,-1.7248,-1.8841,-0.3009,0.2328,0.6641,-0.4282,2133,2019-08-07 16:45:47:760
-5.6646,-5.5992,0.6606,-0.3111,-1.7365,-0.7595,0.2328,0.6641,-0.4282,2138,2019-08-07 16:45:47:765
-6.8176,-5.5658,1.297,-0.3111,-1.7365,-0.7595,0.2392,0.4841,-0.2673,2143,2019-08-07 16:45:47:770
-6.8176,-5.5658,1.297,-0.3111,-1.7365,-0.7595,0.2392,0.4841,-0.2673,2149,2019-08-07 16:45:47:776
-6.8176,-5.5658,1.297,-0.3111,-1.7365,-0.7595,0.2392,0.4841,-0.2673,2153,2019-08-07 16:45:47:780
-7.2147,-5.6374,1.2687,0.6912,-1.6885,-1.1667,0.2264,0.1208,-0.0767,2158,2019-08-07 16:45:47:785
-7.2147,-5.6374,1.2687,0.6912,-1.6885,-1.1667,0.2264,0.1208,-0.0767,2162,2019-08-07 16:45:47:789
-6.8463,-6.0336,1.0471,0.6912,-1.6885,-1.1667,0.1817,-0.072,0.0022,2168,2019-08-07 16:45:47:795
-6.8463,-6.0336,1.0471,0.6912,-1.6885,-1.1667,0.1817,-0.072,0.0022,2173,2019-08-07 16:45:47:800
-6.8463,-6.0336,1.0471,-0.0436,-0.8695,-0.4998,0.1039,-0.2509,0.0661,2177,2019-08-07 16:45:47:804
-6.3392,-6.6256,0.5522,-0.0436,-0.8695,-0.4998,0.1039,-0.2509,0.0661,2184,2019-08-07 16:45:47:811
-6.3392,-6.6256,0.5522,-0.0436,-0.8695,-0.4998,0.0932,-0.1434,0.0522,2187,2019-08-07 16:45:47:814
-6.2148,-6.869,0.4344,-0.0436,-0.8695,-0.4998,0.0932,-0.1434,0.0522,2193,2019-08-07 16:45:47:820
-6.2148,-6.869,0.4344,-0.3441,-0.3309,-0.1487,0.0996,-0.0038,0.0277,2198,2019-08-07 16:45:47:825
-6.2148,-6.869,0.4344,-0.3441,-0.3309,-0.1487,0.0996,-0.0038,0.0277,2203,2019-08-07 16:45:47:830
-6.1909,-6.8977,0.2977,-0.3441,-0.3309,-0.1487,0.0996,-0.0038,0.0277,2208,2019-08-07 16:45:47:835
-6.1909,-6.8977,0.2977,-0.3441,-0.3309,-0.1487,0.0762,0.27,-0.034,2213,2019-08-07 16:45:47:840
-6.6597,-6.8738,0.5711,-0.0276,-0.4656,-0.3433,0.0762,0.27,-0.034,2218,2019-08-07 16:45:47:845
-6.6597,-6.8738,0.5711,-0.0276,-0.4656,-0.3433,0.0336,0.4404,-0.0862,2223,2019-08-07 16:45:47:850
-6.6597,-6.8738,0.5711,-0.0276,-0.4656,-0.3433,0.0336,0.4404,-0.0862,2228,2019-08-07 16:45:47:855
-7.2769,-6.9597,1.0189,-0.0276,-0.4656,-0.3433,0.0134,0.4202,-0.1012,2234,2019-08-07 16:45:47:861
-7.2769,-6.9597,1.0189,0.9137,-0.3594,-1.078,0.0134,0.4202,-0.1012,2237,2019-08-07 16:45:47:864
-7.2769,-6.9597,1.0189,0.9137,-0.3594,-1.078,-0.0026,0.2231,-0.0767,2243,2019-08-07 16:45:47:870
-7.6214,-6.9931,1.2404,0.9137,-0.3594,-1.078,-0.0026,0.2231,-0.0767,2248,2019-08-07 16:45:47:875
-7.6214,-6.9931,1.2404,0.9137,-0.3594,-1.078,-0.025,-0.1348,-0.0042,2252,2019-08-07 16:45:47:879
-7.1525,-6.9931,1.0802,0.6245,-0.3285,-0.9586,-0.025,-0.1348,-0.0042,2258,2019-08-07 16:45:47:885
-7.1525,-6.9931,1.0802,0.6245,-0.3285,-0.9586,-0.025,-0.1348,-0.0042,2263,2019-08-07 16:45:47:890
-6.3583,-7.2318,0.5993,0.6245,-0.3285,-0.9586,-0.0314,-0.3724,0.065,2268,2019-08-07 16:45:47:895
-6.3583,-7.2318,0.5993,0.6245,-0.3285,-0.9586,-0.0314,-0.3724,0.065,2273,2019-08-07 16:45:47:900
-6.3583,-7.2318,0.5993,-0.5045,0.0438,0.0097,-0.0218,-0.4853,0.1236,2278,2019-08-07 16:45:47:905
-5.9373,-7.3894,0.0148,-0.5045,0.0438,0.0097,-0.0218,-0.4853,0.1236,2283,2019-08-07 16:45:47:910
-5.9373,-7.3894,0.0148,-0.5045,0.0438,0.0097,0.0134,-0.4555,0.1577,2288,2019-08-07 16:45:47:915
-5.7029,-7.5135,-0.301,-0.5045,0.0438,0.0097,0.0134,-0.4555,0.1577,2293,2019-08-07 16:45:47:920
-5.7029,-7.5135,-0.301,-0.9132,0.2415,0.6578,0.0634,-0.3404,0.1609,2298,2019-08-07 16:45:47:925
-5.588,-7.5326,-0.5603,-0.9132,0.2415,0.6578,0.0634,-0.3404,0.1609,2304,2019-08-07 16:45:47:931
-5.588,-7.5326,-0.5603,-0.9132,0.2415,0.6578,0.0634,-0.3404,0.1609,2307,2019-08-07 16:45:47:934
-5.588,-7.5326,-0.5603,-0.9213,0.2351,0.8198,0.1018,-0.154,0.1385,2313,2019-08-07 16:45:47:940
-5.7459,-7.4514,-0.5084,-0.9213,0.2351,0.8198,0.1018,-0.154,0.1385,2318,2019-08-07 16:45:47:945
-5.7459,-7.4514,-0.5084,-0.9213,0.2351,0.8198,0.1199,0.1262,0.0853,2323,2019-08-07 16:45:47:950
-5.7459,-7.4514,-0.5084,-0.4454,0.2225,0.5226,0.1199,0.1262,0.0853,2327,2019-08-07 16:45:47:954
-6.2148,-7.4562,-0.2067,-0.4454,0.2225,0.5226,0.1252,0.2284,0.0544,2332,2019-08-07 16:45:47:959
-6.2148,-7.4562,-0.2067,-0.4454,0.2225,0.5226,0.1252,0.2284,0.0544,2338,2019-08-07 16:45:47:965
-6.2148,-7.4562,-0.2067,-0.4454,0.2225,0.5226,0.1231,0.2039,0.0224,2342,2019-08-07 16:45:47:969
-6.808,-7.3082,0.1515,0.3896,-0.039,-0.1397,0.1231,0.2039,0.0224,2348,2019-08-07 16:45:47:975
-6.808,-7.3082,0.1515,0.3896,-0.039,-0.1397,0.1167,0.075,0.0139,2352,2019-08-07 16:45:47:979
-6.808,-7.3082,0.1515,0.3896,-0.039,-0.1397,0.1167,0.075,0.0139,2358,2019-08-07 16:45:47:985
-6.8941,-7.0982,0.3542,0.3896,-0.039,-0.1397,0.0922,-0.0869,0.015,2364,2019-08-07 16:45:47:991
-6.8941,-7.0982,0.3542,0.0747,-0.2115,-0.1622,0.0922,-0.0869,0.015,2369,2019-08-07 16:45:47:996
-6.5592,-7.017,0.4108,0.0747,-0.2115,-0.1622,0.0922,-0.0869,0.015,2373,2019-08-07 16:45:48:000
-6.5592,-7.017,0.4108,0.0747,-0.2115,-0.1622,0.0687,-0.2467,0.0256,2378,2019-08-07 16:45:48:005
-6.5592,-7.017,0.4108,0.0747,-0.2115,-0.1622,0.0687,-0.2467,0.0256,2383,2019-08-07 16:45:48:010
-6.2913,-7.0361,0.3778,-0.3496,-0.2163,-0.0375,0.0592,-0.3415,0.0448,2388,2019-08-07 16:45:48:015
-6.2913,-7.0361,0.3778,-0.3496,-0.2163,-0.0375,0.0592,-0.3415,0.0448,2392,2019-08-07 16:45:48:019
-6.1621,-7.0027,0.1185,-0.3496,-0.2163,-0.0375,0.0496,-0.3703,0.048,2398,2019-08-07 16:45:48:025
-6.1621,-7.0027,0.1185,-0.3496,-0.2163,-0.0375,0.0496,-0.3703,0.048,2403,2019-08-07 16:45:48:030
-6.1621,-7.0027,0.1185,-0.3496,-0.2163,-0.0375,0.0496,-0.3703,0.048,2408,2019-08-07 16:45:48:035
-5.8416,-6.9884,-0.0134,-0.7495,-0.2686,0.3749,0.0357,-0.366,0.0384,2413,2019-08-07 16:45:48:040
-5.8416,-6.9884,-0.0134,-0.7495,-0.2686,0.3749,0.0357,-0.366,0.0384,2418,2019-08-07 16:45:48:045
-5.8416,-6.9884,-0.0134,-0.7495,-0.2686,0.3749,0.0261,-0.2392,0.0203,2423,2019-08-07 16:45:48:050
-5.5401,-7.0027,-0.2256,-0.7495,-0.2686,0.3749,0.0261,-0.2392,0.0203,2428,2019-08-07 16:45:48:055
-5.5401,-7.0027,-0.2256,-1.0489,-0.3067,0.5956,0.0219,-0.0858,-0.0042,2433,2019-08-07 16:45:48:060
-5.8128,-6.8738,-0.169,-1.0489,-0.3067,0.5956,0.0219,-0.0858,-0.0042,2438,2019-08-07 16:45:48:065
-5.8128,-6.8738,-0.169,-1.0489,-0.3067,0.5956,0.0208,0.0431,-0.0095,2443,2019-08-07 16:45:48:070
-5.8128,-6.8738,-0.169,-1.0489,-0.3067,0.5956,0.0208,0.0431,-0.0095,2448,2019-08-07 16:45:48:075
-6.1142,-6.807,-0.0229,-0.4957,-0.3763,0.4348,0.0208,0.0431,-0.0095,2453,2019-08-07 16:45:48:080
-6.1142,-6.807,-0.0229,-0.4957,-0.3763,0.4348,0.0134,0.123,-0.0106,2457,2019-08-07 16:45:48:084
-6.1142,-6.807,-0.0229,-0.4957,-0.3763,0.4348,0.0134,0.123,-0.0106,2463,2019-08-07 16:45:48:090
-6.4204,-6.721,0.161,-0.4957,-0.3763,0.4348,0.0102,0.1176,0.0011,2468,2019-08-07 16:45:48:095
-6.4204,-6.721,0.161,-0.0901,-0.5194,0.0889,0.0102,0.1176,0.0011,2473,2019-08-07 16:45:48:100
-6.4204,-6.721,0.161,-0.0901,-0.5194,0.0889,-0.0111,0.0644,0.0182,2477,2019-08-07 16:45:48:104
-6.6357,-6.7306,0.4391,0.046,-0.5268,-0.0626,-0.0111,0.0644,0.0182,2483,2019-08-07 16:45:48:110
-6.6357,-6.7306,0.4391,0.046,-0.5268,-0.0626,-0.0356,-0.0315,0.0469,2488,2019-08-07 16:45:48:115
-6.5735,-6.7545,0.194,0.046,-0.5268,-0.0626,-0.0356,-0.0315,0.0469,2493,2019-08-07 16:45:48:120
-6.5735,-6.7545,0.194,0.046,-0.5268,-0.0626,-0.0356,-0.0315,0.0469,2498,2019-08-07 16:45:48:125
-6.5735,-6.7545,0.194,-0.0828,-0.4899,0.252,-0.0442,-0.089,0.0661,2503,2019-08-07 16:45:48:130
-6.5735,-6.7545,0.194,-0.0828,-0.4899,0.252,-0.0442,-0.089,0.0661,2508,2019-08-07 16:45:48:135
-6.4778,-6.807,0.0337,-0.0828,-0.4899,0.252,-0.0431,-0.1444,0.0853,2513,2019-08-07 16:45:48:140
-6.4778,-6.807,0.0337,-0.0828,-0.4899,0.252,-0.0431,-0.1444,0.0853,2518,2019-08-07 16:45:48:145
-6.4778,-6.807,0.0337,-0.3104,-0.3205,0.3662,-0.0261,-0.1583,0.0981,2523,2019-08-07 16:45:48:150
-6.2051,-6.9645,-0.0653,-0.3104,-0.3205,0.3662,-0.0261,-0.1583,0.0981,2528,2019-08-07 16:45:48:155
-6.2051,-6.9645,-0.0653,-0.3104,-0.3205,0.3662,-0.0069,-0.1039,0.0895,2533,2019-08-07 16:45:48:160
-6.1621,-6.9741,-0.1171,-0.3104,-0.3205,0.3662,-0.0069,-0.1039,0.0895,2537,2019-08-07 16:45:48:164
-6.1621,-6.9741,-0.1171,-0.4034,-0.2617,0.4741,0.008,-0.0176,0.0736,2543,2019-08-07 16:45:48:170
-6.1621,-6.9741,-0.1171,-0.4034,-0.2617,0.4741,0.008,-0.0176,0.0736,2548,2019-08-07 16:45:48:175
-6.3152,-6.9359,-0.0134,-0.4034,-0.2617,0.4741,0.0197,0.0654,0.064,2553,2019-08-07 16:45:48:180
-6.3152,-6.9359,-0.0134,-0.4034,-0.2617,0.4741,0.0197,0.0654,0.064,2557,2019-08-07 16:45:48:184
-6.363,-6.9932,0.0101,-0.2697,-0.2244,0.3781,0.0283,0.1027,0.0522,2563,2019-08-07 16:45:48:190
-6.363,-6.9932,0.0101,-0.2697,-0.2244,0.3781,0.0283,0.1027,0.0522,2568,2019-08-07 16:45:48:195
-6.363,-6.9932,0.0101,-0.2697,-0.2244,0.3781,0.0357,0.0942,0.0405,2573,2019-08-07 16:45:48:200
-6.54,-6.9741,0.3118,-0.2697,-0.2244,0.3781,0.0357,0.0942,0.0405,2578,2019-08-07 16:45:48:205
-6.54,-6.9741,0.3118,-0.0623,-0.3274,0.0814,0.0432,0.059,0.0416,2583,2019-08-07 16:45:48:210
-6.54,-6.9741,0.3118,-0.0623,-0.3274,0.0814,0.0432,0.059,0.0416,2587,2019-08-07 16:45:48:214
-6.6596,-6.8977,0.5192,0.0104,-0.3239,-0.1777,0.0421,0.0111,0.0416,2593,2019-08-07 16:45:48:220
-6.6596,-6.8977,0.5192,0.0104,-0.3239,-0.1777,0.0421,0.0111,0.0416,2598,2019-08-07 16:45:48:225
-6.6692,-6.9025,0.6135,0.0104,-0.3239,-0.1777,0.0293,-0.088,0.0565,2603,2019-08-07 16:45:48:230
-6.6692,-6.9025,0.6135,0.0104,-0.3239,-0.1777,0.0293,-0.088,0.0565,2608,2019-08-07 16:45:48:235
-6.6692,-6.9025,0.6135,-0.0551,-0.2823,-0.1401,0.0293,-0.088,0.0565,2613,2019-08-07 16:45:48:240
-6.5591,-6.9025,0.4862,-0.0551,-0.2823,-0.1401,0.008,-0.154,0.0576,2618,2019-08-07 16:45:48:245
-6.5591,-6.9025,0.4862,-0.0551,-0.2823,-0.1401,0.008,-0.154,0.0576,2623,2019-08-07 16:45:48:250
-6.4395,-7.0123,0.5004,-0.0551,-0.2823,-0.1401,-0.0069,-0.2137,0.0533,2628,2019-08-07 16:45:48:255
-6.4395,-7.0123,0.5004,-0.2197,-0.2078,-0.02,-0.0069,-0.2137,0.0533,2633,2019-08-07 16:45:48:260
-6.4395,-7.0123,0.5004,-0.2197,-0.2078,-0.02,-0.0154,-0.2318,0.048,2638,2019-08-07 16:45:48:265
-6.1955,-7.0266,0.3731,-0.2197,-0.2078,-0.02,-0.0154,-0.2318,0.048,2643,2019-08-07 16:45:48:270
-6.1955,-7.0266,0.3731,-0.2197,-0.2078,-0.02,-0.0229,-0.2019,0.0341,2649,2019-08-07 16:45:48:276
-6.1955,-7.0266,0.3731,-0.6582,-0.079,0.2622,-0.0229,-0.2019,0.0341,2654,2019-08-07 16:45:48:281
-6.1955,-7.0266,0.3731,-0.6582,-0.079,0.2622,-0.0229,-0.2019,0.0341,2657,2019-08-07 16:45:48:284
-5.9659,-7.1507,0.1421,-0.6582,-0.079,0.2622,-0.0271,-0.1039,0.0118,2662,2019-08-07 16:45:48:289
-5.9659,-7.1507,0.1421,-0.6582,-0.079,0.2622,-0.0271,-0.1039,0.0118,2667,2019-08-07 16:45:48:294
-6.0615,-7.1125,0.2694,-0.599,-0.0754,0.187,-0.0282,-0.0155,-0.0042,2673,2019-08-07 16:45:48:300
-6.0615,-7.1125,0.2694,-0.599,-0.0754,0.187,-0.0282,-0.0155,-0.0042,2678,2019-08-07 16:45:48:305
-6.0615,-7.1125,0.2694,-0.599,-0.0754,0.187,-0.0293,0.058,-0.0085,2684,2019-08-07 16:45:48:311
-6.1429,-7.0218,0.3495,-0.599,-0.0754,0.187,-0.0293,0.058,-0.0085,2687,2019-08-07 16:45:48:314
-6.1429,-7.0218,0.3495,-0.3718,-0.1784,0.0767,-0.0314,0.1155,-0.0106,2693,2019-08-07 16:45:48:320
-6.3247,-6.955,0.458,-0.3718,-0.1784,0.0767,-0.0314,0.1155,-0.0106,2699,2019-08-07 16:45:48:326
-6.3247,-6.955,0.458,-0.3718,-0.1784,0.0767,-0.041,0.124,-0.0063,2704,2019-08-07 16:45:48:331
-6.3247,-6.955,0.458,-0.3718,-0.1784,0.0767,-0.041,0.124,-0.0063,2707,2019-08-07 16:45:48:334
-6.4682,-6.9406,0.5334,-0.0422,-0.2891,-0.1752,-0.0506,0.0846,0.0064,2713,2019-08-07 16:45:48:340
-6.4682,-6.9406,0.5334,-0.0422,-0.2891,-0.1752,-0.0506,0.0846,0.0064,2718,2019-08-07 16:45:48:345
-6.6883,-6.9216,0.6041,-0.0422,-0.2891,-0.1752,-0.0484,0.0228,0.0096,2722,2019-08-07 16:45:48:349
-6.6883,-6.9216,0.6041,-0.0422,-0.2891,-0.1752,-0.0484,0.0228,0.0096,2727,2019-08-07 16:45:48:354
-6.6883,-6.9216,0.6041,0.0219,-0.2678,-0.184,-0.0442,-0.0645,0.0182,2733,2019-08-07 16:45:48:360
-6.6978,-6.869,0.5475,0.0219,-0.2678,-0.184,-0.0442,-0.0645,0.0182,2738,2019-08-07 16:45:48:365
-6.6978,-6.869,0.5475,0.0219,-0.2678,-0.184,-0.0442,-0.0645,0.0182,2742,2019-08-07 16:45:48:369
-6.6978,-6.869,0.5475,0.0219,-0.2678,-0.184,-0.041,-0.1402,0.0288,2748,2019-08-07 16:45:48:375
-6.3821,-6.8595,0.3024,-0.3258,-0.2881,0.1474,-0.041,-0.1402,0.0288,2752,2019-08-07 16:45:48:379
-6.3821,-6.8595,0.3024,-0.3258,-0.2881,0.1474,-0.041,-0.1508,0.0245,2758,2019-08-07 16:45:48:385
-6.2577,-6.955,0.1987,-0.3258,-0.2881,0.1474,-0.041,-0.1508,0.0245,2763,2019-08-07 16:45:48:390
-6.2577,-6.955,0.1987,-0.3258,-0.2881,0.1474,-0.0346,-0.1167,0.015,2769,2019-08-07 16:45:48:396
-6.2577,-6.955,0.1987,-0.3258,-0.2881,0.1474,-0.0346,-0.1167,0.015,2773,2019-08-07 16:45:48:400
-6.1955,-7.017,0.1091,-0.4698,-0.1676,0.3273,-0.0271,-0.0826,0.0107,2778,2019-08-07 16:45:48:405
-6.1955,-7.017,0.1091,-0.4698,-0.1676,0.3273,-0.0271,-0.0826,0.0107,2783,2019-08-07 16:45:48:410
-6.2242,-7.0314,0.1374,-0.4698,-0.1676,0.3273,-0.0101,-0.0049,-0.0063,2788,2019-08-07 16:45:48:415
-6.2242,-7.0314,0.1374,-0.3816,-0.1887,0.2277,-0.0101,-0.0049,-0.0063,2793,2019-08-07 16:45:48:420
-6.2242,-7.0314,0.1374,-0.3816,-0.1887,0.2277,-0.0058,0.026,-0.017,2798,2019-08-07 16:45:48:425
-6.3725,-6.9216,0.3401,-0.3816,-0.1887,0.2277,-0.0058,0.026,-0.017,2803,2019-08-07 16:45:48:430
-6.3725,-6.9216,0.3401,-0.3816,-0.1887,0.2277,-0.0058,0.026,-0.017,2808,2019-08-07 16:45:48:435
-6.3725,-6.9216,0.3401,-0.3816,-0.1887,0.2277,-0.0058,0.0207,-0.0085,2813,2019-08-07 16:45:48:440
-6.449,-6.8977,0.392,-0.2123,-0.291,0.0393,-0.0122,-0.0155,0.0011,2819,2019-08-07 16:45:48:446
-6.449,-6.8977,0.392,-0.2123,-0.291,0.0393,-0.0122,-0.0155,0.0011,2823,2019-08-07 16:45:48:450
-6.4921,-6.8834,0.5145,-0.2123,-0.291,0.0393,-0.0122,-0.0155,0.0011,2828,2019-08-07 16:45:48:455
-6.4921,-6.8834,0.5145,-0.2123,-0.291,0.0393,-0.0218,-0.0603,0.0107,2833,2019-08-07 16:45:48:460
-6.4921,-6.8834,0.5145,-0.1649,-0.2665,-0.043,-0.0218,-0.0603,0.0107,2838,2019-08-07 16:45:48:465
-6.4586,-6.9263,0.4297,-0.1649,-0.2665,-0.043,-0.0261,-0.1071,0.0267,2844,2019-08-07 16:45:48:471
-6.4586,-6.9263,0.4297,-0.1649,-0.2665,-0.043,-0.0261,-0.1071,0.0267,2848,2019-08-07 16:45:48:475
-6.4347,-6.8977,0.4674,-0.1649,-0.2665,-0.043,-0.0282,-0.1274,0.032,2853,2019-08-07 16:45:48:480
-6.4347,-6.8977,0.4674,-0.1872,-0.3298,-0.0268,-0.0282,-0.1274,0.032,2858,2019-08-07 16:45:48:485
-6.4347,-6.8977,0.4674,-0.1872,-0.3298,-0.0268,-0.0303,-0.1615,0.0395,2863,2019-08-07 16:45:48:490
-6.4251,-6.8404,0.4344,-0.1872,-0.3298,-0.0268,-0.0303,-0.1615,0.0395,2868,2019-08-07 16:45:48:495
-6.4251,-6.8404,0.4344,-0.1872,-0.3298,-0.0268,-0.0303,-0.1615,0.0395,2873,2019-08-07 16:45:48:500
-6.1237,-6.9693,0.1893,-0.5021,-0.2344,0.24,-0.0356,-0.1689,0.0331,2878,2019-08-07 16:45:48:505
-6.1237,-6.9693,0.1893,-0.5021,-0.2344,0.24,-0.0356,-0.1689,0.0331,2883,2019-08-07 16:45:48:510
-6.1237,-6.9693,0.1893,-0.5021,-0.2344,0.24,-0.0335,-0.0975,0.0086,2888,2019-08-07 16:45:48:515
-5.9993,-6.9741,0.1421,-0.5021,-0.2344,0.24,-0.0335,-0.0975,0.0086,2894,2019-08-07 16:45:48:521
-5.9993,-6.9741,0.1421,-0.6497,-0.1199,0.2959,-0.0197,-0.0081,-0.0053,2898,2019-08-07 16:45:48:525
-6.0375,-7.0695,0.2129,-0.6497,-0.1199,0.2959,-0.0197,-0.0081,-0.0053,2903,2019-08-07 16:45:48:530
-6.0375,-7.0695,0.2129,-0.6497,-0.1199,0.2959,-0.0197,-0.0081,-0.0053,2907,2019-08-07 16:45:48:534
-6.0375,-7.0695,0.2129,-0.6497,-0.1199,0.2959,-0.0143,0.0718,-0.0159,2913,2019-08-07 16:45:48:540
-6.2193,-7.0839,0.2836,-0.3929,-0.114,0.2388,-0.0143,0.0718,-0.0159,2918,2019-08-07 16:45:48:545
-6.2193,-7.0839,0.2836,-0.3929,-0.114,0.2388,-0.0197,0.1176,-0.0181,2922,2019-08-07 16:45:48:549
-6.2193,-7.0839,0.2836,-0.3929,-0.114,0.2388,-0.0197,0.1176,-0.0181,2928,2019-08-07 16:45:48:555
-6.5016,-6.9932,0.4627,-0.3929,-0.114,0.2388,-0.025,0.0995,-0.0149,2933,2019-08-07 16:45:48:560
-6.5016,-6.9932,0.4627,-0.0995,-0.1691,-0.1656,-0.025,0.0995,-0.0149,2937,2019-08-07 16:45:48:564
-6.516,-6.9836,0.6371,-0.0995,-0.1691,-0.1656,-0.0239,0.026,-0.0042,2943,2019-08-07 16:45:48:570
-6.516,-6.9836,0.6371,-0.0995,-0.1691,-0.1656,-0.0239,0.026,-0.0042,2948,2019-08-07 16:45:48:575
-6.516,-6.9836,0.6371,-0.0995,-0.1691,-0.1656,-0.0314,-0.0571,0.0128,2954,2019-08-07 16:45:48:581
-6.449,-6.9693,0.4391,-0.2148,-0.2165,0.0016,-0.0314,-0.0571,0.0128,2958,2019-08-07 16:45:48:585
-6.449,-6.9693,0.4391,-0.2148,-0.2165,0.0016,-0.0314,-0.0571,0.0128,2963,2019-08-07 16:45:48:590
-6.3724,-6.9598,0.5193,-0.2923,-0.225,-0.0759,-0.0367,-0.0784,0.0224,2968,2019-08-07 16:45:48:595
-6.3724,-6.9598,0.5193,-0.2923,-0.225,-0.0759,-0.0367,-0.0784,0.0224,2973,2019-08-07 16:45:48:600
-6.3724,-6.9598,0.5193,-0.2923,-0.225,-0.0759,-0.0367,-0.1135,0.0384,2978,2019-08-07 16:45:48:605
-6.2576,-7.0409,0.4061,-0.2923,-0.225,-0.0759,-0.0367,-0.1135,0.0384,2983,2019-08-07 16:45:48:610
-6.2576,-7.0409,0.4061,-0.4582,-0.188,0.1924,-0.0218,-0.0858,0.0331,2988,2019-08-07 16:45:48:615
-6.2576,-6.9693,0.194,-0.4582,-0.188,0.1924,-0.0218,-0.0858,0.0331,2993,2019-08-07 16:45:48:620
-6.2576,-6.9693,0.194,-0.4118,-0.2199,0.2092,-0.0154,-0.0613,0.0309,2998,2019-08-07 16:45:48:625
-6.2576,-6.9693,0.194,-0.4118,-0.2199,0.2092,-0.0154,-0.0613,0.0309,3002,2019-08-07 16:45:48:629
-6.3006,-7.0409,0.3213,-0.4118,-0.2199,0.2092,-0.0048,-0.0102,0.016,3008,2019-08-07 16:45:48:635
-6.3006,-7.0409,0.3213,-0.4118,-0.2199,0.2092,-0.0048,-0.0102,0.016,3014,2019-08-07 16:45:48:641
-6.2815,-7.06,0.3354,-0.3561,-0.0991,0.0869,-0.0037,0.026,0.0,3018,2019-08-07 16:45:48:645
-6.2815,-7.06,0.3354,-0.3561,-0.0991,0.0869,-0.0037,0.026,0.0,3023,2019-08-07 16:45:48:650
-6.2815,-7.06,0.3354,-0.3561,-0.0991,0.0869,-0.0037,0.026,0.0,3027,2019-08-07 16:45:48:654
-6.4824,-7.06,0.1752,-0.3561,-0.0991,0.0869,6.0E-4,0.0548,-0.0127,3033,2019-08-07 16:45:48:660
-6.4824,-7.06,0.1752,-0.1489,-0.1248,0.1641,6.0E-4,0.0548,-0.0127,3037,2019-08-07 16:45:48:664
-6.5494,-7.0505,0.3873,-0.1489,-0.1248,0.1641,0.0027,0.0665,-0.0255,3043,2019-08-07 16:45:48:670
-6.5494,-7.0505,0.3873,-0.1489,-0.1248,0.1641,0.0027,0.0665,-0.0255,3048,2019-08-07 16:45:48:675
-6.4633,-7.0266,0.4108,-0.1489,-0.1248,0.1641,0.0048,0.0505,-0.0234,3053,2019-08-07 16:45:48:680
-6.4633,-7.0266,0.4108,-0.1318,-0.1564,-0.0222,0.0048,0.0505,-0.0234,3057,2019-08-07 16:45:48:684
-6.4633,-7.0266,0.4108,-0.1318,-0.1564,-0.0222,0.0112,0.026,-0.0213,3063,2019-08-07 16:45:48:690
-6.4489,-6.9693,0.4627,-0.1318,-0.1564,-0.0222,0.0112,0.026,-0.0213,3067,2019-08-07 16:45:48:694
-6.4489,-6.9693,0.4627,-0.1318,-0.1564,-0.0222,0.0102,-0.0059,-0.0063,3073,2019-08-07 16:45:48:700
-6.4489,-6.9693,0.4627,-0.2544,-0.2345,0.1805,0.0102,-0.0059,-0.0063,3078,2019-08-07 16:45:48:705
-6.4011,-6.9788,0.3637,-0.2544,-0.2345,0.1805,0.0102,-0.0059,-0.0063,3083,2019-08-07 16:45:48:710
-6.4011,-6.9788,0.3637,-0.2544,-0.2345,0.1805,0.0144,-0.0198,0.0054,3087,2019-08-07 16:45:48:714
-6.4537,-6.9311,0.5098,-0.2544,-0.2345,0.1805,0.0144,-0.0198,0.0054,3093,2019-08-07 16:45:48:720
-6.4537,-6.9311,0.5098,-0.2792,-0.3144,-0.0819,0.0176,-0.0613,0.0203,3098,2019-08-07 16:45:48:725
-6.4537,-6.9311,0.5098,-0.2792,-0.3144,-0.0819,0.0176,-0.0613,0.0203,3103,2019-08-07 16:45:48:730
-6.2958,-6.8786,0.4014,-0.2792,-0.3144,-0.0819,0.0176,-0.0613,0.0203,3107,2019-08-07 16:45:48:734
-6.2958,-6.8786,0.4014,-0.2792,-0.3144,-0.0819,0.0176,-0.0805,0.0299,3113,2019-08-07 16:45:48:740
-6.3052,-6.8166,0.2883,-0.3637,-0.3633,0.1706,0.0155,-0.0752,0.0352,3118,2019-08-07 16:45:48:745
-6.3052,-6.8166,0.2883,-0.3637,-0.3633,0.1706,0.0155,-0.0752,0.0352,3123,2019-08-07 16:45:48:750
-6.3052,-6.8166,0.2883,-0.3637,-0.3633,0.1706,0.0155,-0.0752,0.0352,3127,2019-08-07 16:45:48:754
-6.3004,-6.8166,0.4863,-0.3637,-0.3633,0.1706,0.0176,-0.0752,0.0405,3133,2019-08-07 16:45:48:760
-6.3004,-6.8166,0.4863,-0.7604,-0.1914,0.4799,0.0176,-0.0752,0.0405,3138,2019-08-07 16:45:48:765
-6.4774,-6.7306,-0.2019,-0.7604,-0.1914,0.4799,-0.0452,-0.1465,0.0107,3144,2019-08-07 16:45:48:771
-6.4774,-6.7306,-0.2019,-0.7604,-0.1914,0.4799,-0.0452,-0.1465,0.0107,3148,2019-08-07 16:45:48:775
-6.4774,-6.7306,-0.2019,-0.7604,-0.1914,0.4799,0.0165,0.0186,0.0395,3153,2019-08-07 16:45:48:780
-6.4726,-6.9264,0.6089,-0.7604,-0.1914,0.4799,0.0165,0.0186,0.0395,3158,2019-08-07 16:45:48:785
-6.4726,-6.9264,0.6089,-0.1852,-0.2069,-0.0884,0.0911,0.042,0.0544,3163,2019-08-07 16:45:48:790
-6.4726,-6.9264,0.6089,-0.1852,-0.2069,-0.0884,0.0911,0.042,0.0544,3168,2019-08-07 16:45:48:795
-6.3578,-7.0457,0.0809,-0.1852,-0.2069,-0.0884,0.0911,0.042,0.0544,3172,2019-08-07 16:45:48:799
-6.3578,-7.0457,0.0809,-0.1852,-0.2069,-0.0884,0.0496,0.0314,0.0171,3178,2019-08-07 16:45:48:805
-6.487,-6.7354,0.2695,-0.2191,-0.4405,0.3118,0.0496,0.0314,0.0171,3183,2019-08-07 16:45:48:810
-6.487,-6.7354,0.2695,-0.2191,-0.4405,0.3118,-0.0101,0.0367,0.0075,3188,2019-08-07 16:45:48:815
-6.487,-6.7354,0.2695,-0.2191,-0.4405,0.3118,-0.0101,0.0367,0.0075,3193,2019-08-07 16:45:48:820
-6.4774,-6.8548,0.5287,-0.2171,-0.1804,-0.0367,0.0016,0.026,0.0182,3198,2019-08-07 16:45:48:825
-6.4774,-6.8548,0.5287,-0.2171,-0.1804,-0.0367,0.0016,0.026,0.0182,3203,2019-08-07 16:45:48:830
-6.4774,-6.8548,0.5287,-0.2171,-0.1804,-0.0367,0.0187,0.0345,0.0235,3207,2019-08-07 16:45:48:834
-6.4343,-6.9884,0.5193,-0.2171,-0.1804,-0.0367,0.0187,0.0345,0.0235,3213,2019-08-07 16:45:48:840
-6.4343,-6.9884,0.5193,-0.2171,-0.1804,-0.0367,0.0059,0.0164,0.0224,3217,2019-08-07 16:45:48:844
-6.4583,-6.8548,0.557,-0.2347,-0.2825,-0.0617,0.0059,0.0164,0.0224,3223,2019-08-07 16:45:48:850
-6.4583,-6.8548,0.557,-0.2347,-0.2825,-0.0617,0.0016,-0.0081,0.0352,3227,2019-08-07 16:45:48:854
-6.4583,-6.8548,0.557,-0.2347,-0.2825,-0.0617,0.0016,-0.0081,0.0352,3233,2019-08-07 16:45:48:860
-6.3913,-6.8834,0.392,-0.2347,-0.2825,-0.0617,-0.0016,-0.0134,0.0352,3237,2019-08-07 16:45:48:864
-6.3913,-6.8834,0.392,-0.2682,-0.297,-0.0131,-0.0016,-0.0134,0.0352,3243,2019-08-07 16:45:48:870
-6.4439,-6.912,0.5052,-0.2682,-0.297,-0.0131,-0.0069,-0.0262,0.0448,3247,2019-08-07 16:45:48:874
-6.4439,-6.912,0.5052,-0.2682,-0.297,-0.0131,-0.0069,-0.0262,0.0448,3253,2019-08-07 16:45:48:880
-6.4439,-6.912,0.5052,-0.2682,-0.297,-0.0131,-0.0101,-0.0251,0.0459,3258,2019-08-07 16:45:48:885
-6.4247,-6.955,0.3873,-0.2743,-0.1958,0.0878,-0.0101,-0.0251,0.0459,3263,2019-08-07 16:45:48:890
-6.4247,-6.955,0.3873,-0.2743,-0.1958,0.0878,-0.0111,-0.0177,0.0309,3268,2019-08-07 16:45:48:895
-6.53,-6.9264,0.2742,-0.2743,-0.1958,0.0878,-0.0111,-0.0177,0.0309,3272,2019-08-07 16:45:48:899
-6.53,-6.9264,0.2742,-0.2743,-0.1958,0.0878,-0.0101,-0.0081,0.0309,3278,2019-08-07 16:45:48:905
-6.53,-6.9264,0.2742,-0.2215,-0.1915,0.0825,-0.0101,-0.0081,0.0309,3283,2019-08-07 16:45:48:910
-6.4821,-6.9455,0.3261,-0.2215,-0.1915,0.0825,-0.0026,0.009,0.0214,3288,2019-08-07 16:45:48:915
-6.4821,-6.9455,0.3261,-0.2215,-0.1915,0.0825,-0.0026,0.009,0.0214,3293,2019-08-07 16:45:48:920
-6.4726,-6.9073,0.3779,-0.2215,-0.1915,0.0825,0.0016,0.0324,0.0064,3298,2019-08-07 16:45:48:925
-6.4726,-6.9073,0.3779,-0.1854,-0.2231,0.1781,0.0016,0.0324,0.0064,3303,2019-08-07 16:45:48:930
-6.4726,-6.9073,0.3779,-0.1854,-0.2231,0.1781,0.0059,0.0495,0.0118,3307,2019-08-07 16:45:48:934
-6.5013,-6.9073,0.4628,-0.1854,-0.2231,0.1781,0.0059,0.0495,0.0118,3314,2019-08-07 16:45:48:941
-6.5013,-6.9073,0.4628,-0.1854,-0.2231,0.1781,0.0059,0.0495,0.0118,3317,2019-08-07 16:45:48:944
-6.5013,-6.9073,0.4628,-0.1682,-0.3601,-0.0581,0.0091,0.0377,0.0075,3323,2019-08-07 16:45:48:950
-6.5826,-6.8548,0.5335,-0.1682,-0.3601,-0.0581,0.0102,0.0047,0.0182,3328,2019-08-07 16:45:48:955
-6.5826,-6.8548,0.5335,-0.1682,-0.3601,-0.0581,0.0102,0.0047,0.0182,3333,2019-08-07 16:45:48:960
-6.4917,-6.8404,0.4958,-0.1682,-0.3601,-0.0581,0.007,-0.0283,0.0256,3338,2019-08-07 16:45:48:965
-6.4917,-6.8404,0.4958,-0.2143,-0.3237,0.0098,0.007,-0.0283,0.0256,3342,2019-08-07 16:45:48:969
-6.4917,-6.8404,0.4958,-0.2143,-0.3237,0.0098,-0.0048,-0.0571,0.0299,3348,2019-08-07 16:45:48:975
-6.4869,-6.7832,0.5382,-0.2143,-0.3237,0.0098,-0.0048,-0.0571,0.0299,3353,2019-08-07 16:45:48:980
-6.4869,-6.7832,0.5382,-0.2143,-0.3237,0.0098,-0.0048,-0.0571,0.0299,3357,2019-08-07 16:45:48:984
-6.4056,-6.8213,0.5146,-0.2475,-0.3189,-0.0478,-0.0037,-0.0784,0.0363,3363,2019-08-07 16:45:48:990
-6.4056,-6.8213,0.5146,-0.2475,-0.3189,-0.0478,-0.0037,-0.0784,0.0363,3368,2019-08-07 16:45:48:995
-6.4056,-6.8213,0.5146,-0.2475,-0.3189,-0.0478,-0.0101,-0.0752,0.0299,3372,2019-08-07 16:45:48:999
-6.4534,-6.8404,0.4486,-0.2475,-0.3189,-0.0478,-0.0133,-0.072,0.0246,3378,2019-08-07 16:45:49:005
-6.4534,-6.8404,0.4486,-0.227,-0.2769,0.0552,-0.0133,-0.072,0.0246,3383,2019-08-07 16:45:49:010
-6.4534,-6.8404,0.4486,-0.227,-0.2769,0.0552,-0.0143,-0.0624,0.0214,3388,2019-08-07 16:45:49:015
-6.3577,-6.912,0.5099,-0.227,-0.2769,0.0552,-0.0143,-0.0624,0.0214,3394,2019-08-07 16:45:49:021
-6.3577,-6.912,0.5099,-0.227,-0.2769,0.0552,-0.0143,-0.0624,0.0214,3398,2019-08-07 16:45:49:025
-6.3577,-6.912,0.5099,-0.783,-0.1132,0.0423,-0.0143,-0.0379,0.0096,3402,2019-08-07 16:45:49:029
-6.0037,-7.0218,0.4156,-0.783,-0.1132,0.0423,-0.0143,-0.0379,0.0096,3408,2019-08-07 16:45:49:035
-6.0037,-7.0218,0.4156,-0.783,-0.1132,0.0423,-5.0E-4,0.0431,-0.0181,3413,2019-08-07 16:45:49:040
-6.372,-6.8261,0.1988,-0.783,-0.1132,0.0423,-5.0E-4,0.0431,-0.0181,3418,2019-08-07 16:45:49:045
-6.372,-6.8261,0.1988,-0.3357,-0.2878,0.2082,-0.0111,0.0899,-0.0063,3423,2019-08-07 16:45:49:050
-6.372,-6.8261,0.1988,-0.3357,-0.2878,0.2082,-0.0111,0.0899,-0.0063,3428,2019-08-07 16:45:49:055
-6.3481,-6.8977,0.4203,-0.3357,-0.2878,0.2082,-0.0229,0.0921,0.0032,3433,2019-08-07 16:45:49:060
-6.3481,-6.8977,0.4203,-0.3357,-0.2878,0.2082,-0.0229,0.0921,0.0032,3438,2019-08-07 16:45:49:065
-6.3864,-6.9025,0.4863,-0.3121,-0.217,0.028,-0.0175,0.0793,-0.0031,3443,2019-08-07 16:45:49:070
-6.3864,-6.9025,0.4863,-0.3121,-0.217,0.028,-0.0175,0.0793,-0.0031,3448,2019-08-07 16:45:49:075
-6.3864,-6.9025,0.4863,-0.3121,-0.217,0.028,-0.0229,0.0814,0.0118,3452,2019-08-07 16:45:49:079
-6.4629,-6.893,0.4251,-0.3121,-0.217,0.028,-0.0229,0.0814,0.0118,3458,2019-08-07 16:45:49:085
-6.4629,-6.893,0.4251,-0.2085,-0.2736,-0.0518,-0.0207,0.0644,0.015,3463,2019-08-07 16:45:49:090
-6.4916,-6.8643,0.4958,-0.2085,-0.2736,-0.0518,-0.0207,0.0644,0.015,3467,2019-08-07 16:45:49:094
-6.4916,-6.8643,0.4958,-0.2085,-0.2736,-0.0518,-0.0165,0.0239,0.0224,3473,2019-08-07 16:45:49:100
-6.4916,-6.8643,0.4958,-0.2085,-0.2736,-0.0518,-0.0165,0.0239,0.0224,3478,2019-08-07 16:45:49:105
-5.9893,-6.9407,0.3167,-0.416,-0.3058,0.3759,-0.0303,-0.0219,-0.0074,3483,2019-08-07 16:45:49:110
-5.9893,-6.9407,0.3167,-0.416,-0.3058,0.3759,-0.0303,-0.0219,-0.0074,3488,2019-08-07 16:45:49:115
-5.9893,-6.9407,0.3167,-0.416,-0.3058,0.3759,-0.0303,-0.0219,-0.0074,3493,2019-08-07 16:45:49:120
-6.6591,-6.6781,0.3779,-0.416,-0.3058,0.3759,-0.0538,0.0122,0.0341,3498,2019-08-07 16:45:49:125
-6.6591,-6.6781,0.3779,-0.4772,-0.1976,0.0051,-0.0399,-0.0081,0.0384,3503,2019-08-07 16:45:49:130
-6.2763,-6.9025,0.4628,-0.4772,-0.1976,0.0051,-0.0399,-0.0081,0.0384,3509,2019-08-07 16:45:49:136
-6.2763,-6.9025,0.4628,-0.4772,-0.1976,0.0051,-0.0399,-0.0081,0.0384,3513,2019-08-07 16:45:49:140
-6.4246,-6.8643,0.1328,-0.4772,-0.1976,0.0051,-0.0133,0.0143,0.0235,3518,2019-08-07 16:45:49:145
-6.4246,-6.8643,0.1328,-0.4772,-0.1976,0.0051,-0.0133,0.0143,0.0235,3523,2019-08-07 16:45:49:150
-6.4246,-6.8643,0.1328,-0.3036,-0.2139,0.3713,-0.0175,0.0484,0.0256,3528,2019-08-07 16:45:49:155
-6.4103,-6.8118,0.2365,-0.3036,-0.2139,0.3713,-0.0175,0.0484,0.0256,3533,2019-08-07 16:45:49:160
-6.4103,-6.8118,0.2365,-0.3036,-0.2139,0.3713,-0.0143,0.074,0.0064,3537,2019-08-07 16:45:49:164
-6.4103,-6.8118,0.2365,-0.3036,-0.2139,0.3713,-0.0143,0.074,0.0064,3543,2019-08-07 16:45:49:170
-6.6686,-6.8118,0.2601,-0.0627,-0.312,0.1606,-0.0037,0.0772,0.0054,3547,2019-08-07 16:45:49:174
-6.6686,-6.8118,0.2601,-0.0627,-0.312,0.1606,-0.0037,0.0772,0.0054,3553,2019-08-07 16:45:49:180
-6.6686,-6.8118,0.2601,-0.0627,-0.312,0.1606,-0.0037,0.0772,0.0054,3558,2019-08-07 16:45:49:185
-6.6112,-6.9646,0.3119,-0.0627,-0.312,0.1606,-0.009,0.058,-0.0053,3563,2019-08-07 16:45:49:190
-6.6112,-6.9646,0.3119,-0.0782,-0.1732,0.0455,-0.009,0.058,-0.0053,3568,2019-08-07 16:45:49:195
-6.6207,-6.9264,0.4204,-0.0782,-0.1732,0.0455,-5.0E-4,0.0292,-0.017,3573,2019-08-07 16:45:49:200
-6.6207,-6.9264,0.4204,-0.0782,-0.1732,0.0455,-5.0E-4,0.0292,-0.017,3578,2019-08-07 16:45:49:205
-6.6207,-6.9264,0.4204,-0.0782,-0.1732,0.0455,0.0048,0.0037,-0.0127,3582,2019-08-07 16:45:49:209
-6.5394,-6.9168,0.4864,-0.1914,-0.2082,-0.0792,0.0048,0.0037,-0.0127,3588,2019-08-07 16:45:49:215
-6.5394,-6.9168,0.4864,-0.1914,-0.2082,-0.0792,0.0016,-0.0177,-0.0031,3593,2019-08-07 16:45:49:220
-6.5394,-6.9168,0.4864,-0.1914,-0.2082,-0.0792,0.0016,-0.0177,-0.0031,3598,2019-08-07 16:45:49:225
-6.5155,-6.8691,0.4062,-0.1914,-0.2082,-0.0792,-0.0069,-0.0251,-0.0031,3603,2019-08-07 16:45:49:230
-6.5155,-6.8691,0.4062,-0.1239,-0.2803,-0.0768,-0.0069,-0.0251,-0.0031,3608,2019-08-07 16:45:49:235
-6.5298,-6.85,0.5241,-0.1239,-0.2803,-0.0768,6.0E-4,-0.0475,0.0107,3614,2019-08-07 16:45:49:241
-6.5298,-6.85,0.5241,-0.1239,-0.2803,-0.0768,6.0E-4,-0.0475,0.0107,3618,2019-08-07 16:45:49:245
-6.5298,-6.85,0.5241,-0.1239,-0.2803,-0.0768,6.0E-4,-0.0475,0.0107,3623,2019-08-07 16:45:49:250
-6.4485,-6.9025,0.3968,-0.2826,-0.2218,0.0192,0.0016,-0.0432,0.0086,3628,2019-08-07 16:45:49:255
-6.4485,-6.9025,0.3968,-0.2826,-0.2218,0.0192,0.0016,-0.0432,0.0086,3633,2019-08-07 16:45:49:260
-6.4485,-6.9025,0.3968,-0.2826,-0.2218,0.0192,0.0016,-0.0432,0.0086,3637,2019-08-07 16:45:49:264
-6.4198,-6.8118,0.4439,-0.2826,-0.2218,0.0192,-0.0048,-0.0358,0.0086,3643,2019-08-07 16:45:49:270
-6.4198,-6.8118,0.4439,-0.3166,-0.221,0.0148,-0.009,-0.0187,-0.0063,3648,2019-08-07 16:45:49:275
-6.3719,-6.9073,0.3261,-0.3166,-0.221,0.0148,-0.009,-0.0187,-0.0063,3653,2019-08-07 16:45:49:280
-6.3719,-6.9073,0.3261,-0.3166,-0.221,0.0148,-0.0154,0.0079,-0.0127,3658,2019-08-07 16:45:49:285
-6.4389,-6.9312,0.3355,-0.3166,-0.221,0.0148,-0.0154,0.0079,-0.0127,3664,2019-08-07 16:45:49:291
-6.4389,-6.9312,0.3355,-0.3146,-0.204,0.116,-0.0122,0.0399,-0.0138,3667,2019-08-07 16:45:49:294
-6.4389,-6.9312,0.3355,-0.3146,-0.204,0.116,-0.0122,0.0399,-0.0138,3673,2019-08-07 16:45:49:300
-6.3432,-6.9455,0.3968,-0.3146,-0.204,0.116,-0.0122,0.0399,-0.0138,3677,2019-08-07 16:45:49:304
-6.3432,-6.9455,0.3968,-0.3146,-0.204,0.116,-0.0058,0.0505,-0.0213,3683,2019-08-07 16:45:49:310
-6.5393,-6.9121,0.4439,-0.1922,-0.2357,-0.085,-0.0058,0.0505,-0.0213,3688,2019-08-07 16:45:49:315
-6.5393,-6.9121,0.4439,-0.1922,-0.2357,-0.085,-0.0048,0.0409,-0.0181,3693,2019-08-07 16:45:49:320
-6.5393,-6.9121,0.4439,-0.1922,-0.2357,-0.085,-0.0048,0.0409,-0.0181,3698,2019-08-07 16:45:49:325
-6.5011,-6.9503,0.5241,-0.1922,-0.2357,-0.085,-0.0143,0.0122,-0.0085,3703,2019-08-07 16:45:49:330
-6.5011,-6.9503,0.5241,-0.2477,-0.2091,-0.1696,-0.0143,0.0122,-0.0085,3707,2019-08-07 16:45:49:334
-6.4771,-6.9216,0.5712,-0.2477,-0.2091,-0.1696,-0.0133,-0.024,0.0011,3714,2019-08-07 16:45:49:341
-6.4771,-6.9216,0.5712,-0.2477,-0.2091,-0.1696,-0.0133,-0.024,0.0011,3718,2019-08-07 16:45:49:345
-6.4771,-6.9216,0.5712,-0.2477,-0.2091,-0.1696,-0.0133,-0.024,0.0011,3723,2019-08-07 16:45:49:350
-6.5106,-6.9073,0.015,-0.2142,-0.2232,0.3958,-0.0293,-0.1167,0.0171,3728,2019-08-07 16:45:49:355
-6.5106,-6.9073,0.015,-0.2142,-0.2232,0.3958,-0.0293,-0.1167,0.0171,3733,2019-08-07 16:45:49:360
-6.5106,-6.9073,0.015,-0.2142,-0.2232,0.3958,-0.0815,-0.1306,0.0256,3737,2019-08-07 16:45:49:364
-6.2714,-6.9312,0.5712,-0.2142,-0.2232,0.3958,-0.0815,-0.1306,0.0256,3743,2019-08-07 16:45:49:370
-6.2714,-6.9312,0.5712,-0.5552,-0.0782,0.0379,0.008,-0.1167,0.0267,3748,2019-08-07 16:45:49:375
-6.1374,-7.0028,0.1046,-0.5552,-0.0782,0.0379,0.008,-0.1167,0.0267,3753,2019-08-07 16:45:49:380
-6.1374,-7.0028,0.1046,-0.5606,-0.1726,0.4457,0.0187,-0.0752,0.0256,3759,2019-08-07 16:45:49:386
-6.1374,-6.807,0.0574,-0.5606,-0.1726,0.4457,0.0187,-0.0752,0.0256,3763,2019-08-07 16:45:49:390
-6.1661,-6.807,0.0574,-0.5606,-0.1726,0.4457,0.0187,-0.0752,0.0256,3768,2019-08-07 16:45:49:395
-6.1661,-6.807,0.0574,-0.5606,-0.1726,0.4457,0.0155,0.0239,0.0246,3773,2019-08-07 16:45:49:400
-6.3049,-6.9312,0.1658,-0.4242,-0.1943,0.2624,0.0155,0.0239,0.0246,3778,2019-08-07 16:45:49:405
-6.3049,-6.9312,0.1658,-0.4242,-0.1943,0.2624,0.0357,0.0708,0.0118,3782,2019-08-07 16:45:49:409
-6.3049,-6.9312,0.1658,-0.4242,-0.1943,0.2624,0.0357,0.0708,0.0118,3788,2019-08-07 16:45:49:415
-6.458,-6.9359,0.1706,-0.4242,-0.1943,0.2624,0.0453,0.1038,0.0086,3793,2019-08-07 16:45:49:420
-6.458,-6.9359,0.1706,-0.2203,-0.2217,0.0939,0.0453,0.1038,0.0086,3798,2019-08-07 16:45:49:425
-6.5728,-6.9885,0.51,-0.2203,-0.2217,0.0939,0.0879,0.1634,-0.0095,3803,2019-08-07 16:45:49:430
-6.5728,-6.9885,0.51,-0.2203,-0.2217,0.0939,0.0879,0.1634,-0.0095,3807,2019-08-07 16:45:49:434
-6.5728,-6.9885,0.51,-0.2203,-0.2217,0.0939,0.1241,0.1613,0.0011,3813,2019-08-07 16:45:49:440
-6.7307,-7.0601,0.5005,-0.0203,-0.0589,0.0026,0.1241,0.1613,0.0011,3818,2019-08-07 16:45:49:445
-6.7307,-7.0601,0.5005,-0.0203,-0.0589,0.0026,0.1241,0.1613,0.0011,3823,2019-08-07 16:45:49:450
-6.7307,-7.0601,0.5005,-0.0203,-0.0589,0.0026,0.0741,0.075,0.0011,3828,2019-08-07 16:45:49:455
-6.5967,-6.8118,0.2931,-0.0203,-0.0589,0.0026,0.0741,0.075,0.0011,3833,2019-08-07 16:45:49:460
-6.5967,-6.8118,0.2931,-0.0312,-0.4587,-0.13,0.0165,0.0228,-0.0138,3837,2019-08-07 16:45:49:464
-6.6924,-6.6543,0.6278,-0.0312,-0.4587,-0.13,0.0165,0.0228,-0.0138,3843,2019-08-07 16:45:49:470
-6.6924,-6.6543,0.6278,-0.0312,-0.4587,-0.13,0.0027,-0.0326,0.0064,3848,2019-08-07 16:45:49:475
-6.6924,-6.6543,0.6278,-0.0312,-0.4587,-0.13,0.0027,-0.0326,0.0064,3852,2019-08-07 16:45:49:479
-6.3718,-6.8978,0.6278,-0.3762,-0.2334,-0.1281,0.0048,-0.0517,0.0096,3858,2019-08-07 16:45:49:485
-6.3718,-6.8978,0.6278,-0.3762,-0.2334,-0.1281,0.0048,-0.0517,0.0096,3863,2019-08-07 16:45:49:490
-6.3957,-6.8261,0.5005,-0.3762,-0.2334,-0.1281,0.0016,-0.0336,0.0096,3868,2019-08-07 16:45:49:495
-6.3957,-6.8261,0.5005,-0.3762,-0.2334,-0.1281,0.0016,-0.0336,0.0096,3873,2019-08-07 16:45:49:500