ACCELEROMETER X (m/s²),ACCELEROMETER Y (m/s²),ACCELEROMETER Z (m/s²),LINEAR ACCELERATION X (m/s²),LINEAR ACCELERATION Y (m/s²),LINEAR ACCELERATION Z (m/s²),GYROSCOPE X (rad/s),GYROSCOPE Y (rad/s),GYROSCOPE Z (rad/s),Time since start in ms ,YYYY-MO-DD HH-MI-SS_SSS
-6.3638,-6.8074,0.7322,-0.3008,-0.3598,0.0529,-5.0E-4,-0.0219,0.0043,2,2019-08-07 16:45:15:555
-6.3829,-6.836,0.751,-0.3008,-0.3598,0.0529,-5.0E-4,-0.0219,0.0043,8,2019-08-07 16:45:15:561
-6.3829,-6.836,0.751,-0.3008,-0.3598,0.0529,0.0038,-0.0347,0.0129,13,2019-08-07 16:45:15:566
-6.3829,-6.836,0.751,-0.3352,-0.3252,0.0941,0.0038,-0.0347,0.0129,18,2019-08-07 16:45:15:571
-6.3447,-6.8742,0.7322,-0.3352,-0.3252,0.0941,0.0038,-0.0347,0.0129,23,2019-08-07 16:45:15:576
-6.3447,-6.8742,0.7322,-0.3352,-0.3252,0.0941,-5.0E-4,-0.0464,0.0246,28,2019-08-07 16:45:15:581
-6.2538,-6.8742,0.6191,-0.3352,-0.3252,0.0941,-5.0E-4,-0.0464,0.0246,32,2019-08-07 16:45:15:585
-6.2538,-6.8742,0.6191,-0.3571,-0.2792,0.15,0.0038,-0.0294,0.0299,38,2019-08-07 16:45:15:591
-6.2538,-6.8742,0.6191,-0.3571,-0.2792,0.15,0.0038,-0.0294,0.0299,43,2019-08-07 16:45:15:596
-6.3399,-6.8599,0.6756,-0.3571,-0.2792,0.15,0.0102,0.0015,0.0278,48,2019-08-07 16:45:15:601
-6.3399,-6.8599,0.6756,-0.3571,-0.2792,0.15,0.0102,0.0015,0.0278,53,2019-08-07 16:45:15:606
-6.3686,-6.9028,0.6992,-0.3571,-0.2792,0.15,0.024,0.0218,0.0214,57,2019-08-07 16:45:15:610
-6.3686,-6.9028,0.6992,-0.2797,-0.2706,0.1131,0.024,0.0218,0.0214,63,2019-08-07 16:45:15:616
-6.3686,-6.9028,0.6992,-0.2797,-0.2706,0.1131,0.0272,0.0271,0.0193,68,2019-08-07 16:45:15:621
-6.4404,-6.7692,0.685,-0.2797,-0.2706,0.1131,0.0272,0.0271,0.0193,72,2019-08-07 16:45:15:625
-6.4404,-6.7692,0.685,-0.2797,-0.2706,0.1131,0.0219,0.026,0.0182,78,2019-08-07 16:45:15:631
-6.5361,-6.8121,0.7275,-0.1879,-0.3483,0.0984,0.0219,0.026,0.0182,83,2019-08-07 16:45:15:636
-6.5361,-6.8121,0.7275,-0.1879,-0.3483,0.0984,0.0133,0.0154,0.0235,88,2019-08-07 16:45:15:641
-6.5361,-6.8121,0.7275,-0.1879,-0.3483,0.0984,0.0133,0.0154,0.0235,92,2019-08-07 16:45:15:645
-6.517,-6.8169,0.7652,-0.1879,-0.3483,0.0984,0.0133,0.0154,0.0235,98,2019-08-07 16:45:15:651
-6.517,-6.8169,0.7652,-0.1294,-0.3924,-0.0093,0.0144,-0.0209,0.0161,102,2019-08-07 16:45:15:655
-6.517,-6.8169,0.7652,-0.1294,-0.3924,-0.0093,0.0144,-0.0209,0.0161,108,2019-08-07 16:45:15:661
-6.4165,-6.793,0.8264,-0.1294,-0.3924,-0.0093,0.0155,-0.0475,0.0203,112,2019-08-07 16:45:15:665
-6.4165,-6.793,0.8264,-0.1294,-0.3924,-0.0093,0.0155,-0.0475,0.0203,118,2019-08-07 16:45:15:671
-6.2921,-6.7883,0.7227,-0.3997,-0.3415,0.107,0.0091,-0.0464,0.031,122,2019-08-07 16:45:15:675
-6.2921,-6.7883,0.7227,-0.3997,-0.3415,0.107,0.0091,-0.0464,0.031,128,2019-08-07 16:45:15:681
-6.2921,-6.7883,0.7227,-0.3997,-0.3415,0.107,-5.0E-4,-0.0251,0.0374,133,2019-08-07 16:45:15:686
-6.2347,-6.7692,0.7463,-0.3997,-0.3415,0.107,-5.0E-4,-0.0251,0.0374,138,2019-08-07 16:45:15:691
-6.2347,-6.7692,0.7463,-0.4612,-0.3515,0.1163,-5.0E-4,-0.0251,0.0374,143,2019-08-07 16:45:15:696
-6.2587,-6.8742,0.7416,-0.4612,-0.3515,0.1163,6.0E-4,-0.0113,0.0501,148,2019-08-07 16:45:15:701
-6.2587,-6.8742,0.7416,-0.4612,-0.3515,0.1163,6.0E-4,-0.0113,0.0501,152,2019-08-07 16:45:15:705
-6.2587,-6.8742,0.7416,-0.4612,-0.3515,0.1163,-0.0069,0.0132,0.0512,158,2019-08-07 16:45:15:711
-6.3209,-6.879,0.7557,-0.3625,-0.2548,0.0679,-0.0069,0.0132,0.0512,163,2019-08-07 16:45:15:716
-6.3209,-6.879,0.7557,-0.3625,-0.2548,0.0679,-0.0048,0.0335,0.0523,168,2019-08-07 16:45:15:721
-6.4261,-6.8837,0.784,-0.3625,-0.2548,0.0679,-0.008,0.0431,0.0459,173,2019-08-07 16:45:15:726
-6.4261,-6.8837,0.784,-0.3625,-0.2548,0.0679,-0.008,0.0431,0.0459,178,2019-08-07 16:45:15:731
-6.4261,-6.8837,0.784,-0.1833,-0.2391,0.0567,-0.0122,0.0463,0.0448,183,2019-08-07 16:45:15:736
-6.5122,-6.8837,0.7934,-0.1833,-0.2391,0.0567,-0.0122,0.0463,0.0448,188,2019-08-07 16:45:15:741
-6.5122,-6.8837,0.7934,-0.1833,-0.2391,0.0567,-0.0122,0.0463,0.0448,192,2019-08-07 16:45:15:745
-6.5122,-6.8837,0.7934,-0.1833,-0.2391,0.0567,-0.0069,0.0281,0.0331,198,2019-08-07 16:45:15:751
-6.6175,-6.8933,0.7652,-0.0939,-0.2195,0.0647,-0.0069,0.0281,0.0331,203,2019-08-07 16:45:15:756
-6.6175,-6.8933,0.7652,-0.0939,-0.2195,0.0647,-0.0122,0.01,0.0214,207,2019-08-07 16:45:15:760
-6.5792,-6.9028,0.7746,-0.0939,-0.2195,0.0647,-0.0122,0.01,0.0214,213,2019-08-07 16:45:15:766
-6.5792,-6.9028,0.7746,-0.0939,-0.2195,0.0647,-0.008,-0.0038,0.0171,218,2019-08-07 16:45:15:771
-6.5792,-6.9028,0.7746,-0.1643,-0.2261,0.0812,-0.008,-0.0038,0.0171,223,2019-08-07 16:45:15:776
-6.5458,-6.9076,0.685,-0.1643,-0.2261,0.0812,-0.0069,-0.0134,0.015,228,2019-08-07 16:45:15:781
-6.5458,-6.9076,0.685,-0.1643,-0.2261,0.0812,-0.0069,-0.0134,0.015,233,2019-08-07 16:45:15:786
-6.4357,-6.9219,0.8029,-0.1643,-0.2261,0.0812,-0.0069,-0.0134,0.015,237,2019-08-07 16:45:15:790
-6.4357,-6.9219,0.8029,-0.2617,-0.2482,0.0349,-0.0058,-0.0166,0.0139,243,2019-08-07 16:45:15:796
-6.4357,-6.9219,0.8029,-0.2617,-0.2482,0.0349,-0.0058,-0.0166,0.0139,248,2019-08-07 16:45:15:801
-6.431,-6.8503,0.784,-0.2617,-0.2482,0.0349,0.0027,-0.0177,0.0214,253,2019-08-07 16:45:15:806
-6.431,-6.8503,0.784,-0.2617,-0.2482,0.0349,0.0027,-0.0177,0.0214,258,2019-08-07 16:45:15:811
-6.3114,-6.8503,0.8029,-0.3934,-0.2646,0.01,0.0091,-0.0198,0.0288,263,2019-08-07 16:45:15:816
-6.3114,-6.8503,0.8029,-0.3934,-0.2646,0.01,0.0091,-0.0198,0.0288,267,2019-08-07 16:45:15:820
-6.3114,-6.8503,0.8029,-0.3934,-0.2646,0.01,0.0112,-0.0038,0.0363,273,2019-08-07 16:45:15:826
-6.3736,-6.7978,0.8736,-0.3934,-0.2646,0.01,0.0112,-0.0038,0.0363,278,2019-08-07 16:45:15:831
-6.3736,-6.7978,0.8736,-0.2832,-0.3076,-0.0673,0.0155,-0.0091,0.0384,283,2019-08-07 16:45:15:836
-6.4262,-6.8312,0.8406,-0.2832,-0.3076,-0.0673,0.0155,-0.0091,0.0384,288,2019-08-07 16:45:15:841
-6.4262,-6.8312,0.8406,-0.2832,-0.3076,-0.0673,0.0155,-0.0091,0.0384,293,2019-08-07 16:45:15:846
-6.3975,-6.8169,0.7321,-0.2832,-0.3076,-0.0673,0.0197,-0.0187,0.0448,299,2019-08-07 16:45:15:852
-6.3975,-6.8169,0.7321,-0.2415,-0.2297,0.0785,0.0197,-0.0187,0.0448,303,2019-08-07 16:45:15:856
-6.3975,-6.8169,0.7321,-0.2415,-0.2297,0.0785,0.0197,-0.0091,0.0416,307,2019-08-07 16:45:15:860
-6.5123,-6.8026,0.7416,-0.2415,-0.2297,0.0785,0.0197,-0.0091,0.0416,313,2019-08-07 16:45:15:866
-6.5123,-6.8026,0.7416,-0.2415,-0.2297,0.0785,0.0155,5.0E-4,0.0459,318,2019-08-07 16:45:15:871
-6.5123,-6.8026,0.7416,-0.2002,-0.3139,0.0618,0.0155,5.0E-4,0.0459,323,2019-08-07 16:45:15:876
-6.5554,-6.8169,0.7557,-0.2002,-0.3139,0.0618,0.0144,5.0E-4,0.0416,329,2019-08-07 16:45:15:882
-6.5554,-6.8169,0.7557,-0.2002,-0.3139,0.0618,0.0144,5.0E-4,0.0416,333,2019-08-07 16:45:15:886
-6.6033,-6.7978,0.6991,-0.2002,-0.3139,0.0618,0.0133,0.0015,0.0299,338,2019-08-07 16:45:15:891
-6.6033,-6.7978,0.6991,-0.2002,-0.3139,0.0618,0.0133,0.0015,0.0299,343,2019-08-07 16:45:15:896
-6.6033,-6.7978,0.6991,-0.1195,-0.2896,0.1479,0.0059,-0.0027,0.0193,348,2019-08-07 16:45:15:901
-6.6128,-6.7787,0.6756,-0.1195,-0.2896,0.1479,0.0059,-0.0027,0.0193,353,2019-08-07 16:45:15:906
-6.6128,-6.7787,0.6756,-0.1195,-0.2896,0.1479,0.0027,-0.0123,0.0139,358,2019-08-07 16:45:15:911
-6.6128,-6.7787,0.6756,-0.1195,-0.2896,0.1479,0.0027,-0.0123,0.0139,363,2019-08-07 16:45:15:916
-6.5602,-6.8217,0.7793,-0.1699,-0.2679,0.0452,0.0027,-0.0198,0.0086,367,2019-08-07 16:45:15:920
-6.5602,-6.8217,0.7793,-0.1699,-0.2679,0.0452,0.0027,-0.0198,0.0086,373,2019-08-07 16:45:15:926
-6.5028,-6.7596,0.7793,-0.1699,-0.2679,0.0452,0.0027,-0.0241,0.0139,378,2019-08-07 16:45:15:931
-6.5028,-6.7596,0.7793,-0.1699,-0.2679,0.0452,0.0027,-0.0241,0.0139,383,2019-08-07 16:45:15:936
-6.5028,-6.7596,0.7793,-0.3386,-0.2854,0.0434,-0.0037,-0.0187,0.0171,387,2019-08-07 16:45:15:940
-6.4071,-6.7501,0.7981,-0.3386,-0.2854,0.0434,-0.0037,-0.0187,0.0171,393,2019-08-07 16:45:15:946
-6.4071,-6.7501,0.7981,-0.3386,-0.2854,0.0434,-0.0037,-0.0187,0.0171,398,2019-08-07 16:45:15:951
-6.4071,-6.7501,0.7981,-0.3386,-0.2854,0.0434,-0.0058,-0.0177,0.0224,402,2019-08-07 16:45:15:955
-6.4072,-6.8217,0.8358,-0.3264,-0.2641,-0.0064,-0.0058,-0.0177,0.0224,408,2019-08-07 16:45:15:961
-6.4072,-6.8217,0.8358,-0.3264,-0.2641,-0.0064,-0.0026,-0.0251,0.032,413,2019-08-07 16:45:15:966
-6.3832,-6.836,0.784,-0.3521,-0.2479,0.0468,-0.0026,-0.0251,0.032,418,2019-08-07 16:45:15:971
-6.3832,-6.836,0.784,-0.3521,-0.2479,0.0468,-0.0026,-0.0198,0.0352,422,2019-08-07 16:45:15:975
-6.4359,-6.7691,0.7463,-0.3521,-0.2479,0.0468,-0.0026,-0.0198,0.0352,428,2019-08-07 16:45:15:981
-6.4359,-6.7691,0.7463,-0.3521,-0.2479,0.0468,-0.0048,-0.0134,0.0374,433,2019-08-07 16:45:15:986
-6.4359,-6.7691,0.7463,-0.2514,-0.3293,0.1143,-0.0048,-0.0134,0.0374,438,2019-08-07 16:45:15:991
-6.4598,-6.793,0.7745,-0.2514,-0.3293,0.1143,-0.0048,-0.0134,0.0374,442,2019-08-07 16:45:15:995
-6.4598,-6.793,0.7745,-0.2514,-0.3293,0.1143,-0.0048,-6.0E-4,0.0342,448,2019-08-07 16:45:16:001
-6.5029,-6.8121,0.718,-0.2514,-0.3293,0.1143,-0.0048,-6.0E-4,0.0342,452,2019-08-07 16:45:16:005
-6.5029,-6.8121,0.718,-0.2274,-0.2629,0.1979,-0.0026,0.0228,0.0182,458,2019-08-07 16:45:16:011
-6.5029,-6.8121,0.718,-0.2274,-0.2629,0.1979,-0.0026,0.0228,0.0182,463,2019-08-07 16:45:16:016
-6.5842,-6.836,0.7038,-0.2274,-0.2629,0.1979,-0.0058,0.0292,0.0129,468,2019-08-07 16:45:16:021
-6.5842,-6.836,0.7038,-0.2274,-0.2629,0.1979,-0.0058,0.0292,0.0129,473,2019-08-07 16:45:16:026
-6.589,-6.8073,0.7557,-0.1581,-0.2229,0.0795,-0.0048,0.0239,-0.0021,478,2019-08-07 16:45:16:031
-6.589,-6.8073,0.7557,-0.1581,-0.2229,0.0795,-0.0048,0.0239,-0.0021,483,2019-08-07 16:45:16:036
-6.589,-6.8073,0.7557,-0.1581,-0.2229,0.0795,-0.0026,0.0026,-0.0074,488,2019-08-07 16:45:16:041
-6.5986,-6.7978,0.7604,-0.1581,-0.2229,0.0795,-0.0026,0.0026,-0.0074,494,2019-08-07 16:45:16:047
-6.5986,-6.7978,0.7604,-0.2295,-0.2379,0.0959,-0.0037,-0.0155,-0.0106,498,2019-08-07 16:45:16:051
-6.4886,-6.8455,0.7604,-0.2295,-0.2379,0.0959,-0.0037,-0.0155,-0.0106,503,2019-08-07 16:45:16:056
-6.4886,-6.8455,0.7604,-0.2295,-0.2379,0.0959,-0.0037,-0.0155,-0.0106,508,2019-08-07 16:45:16:061
-6.4886,-6.8455,0.7604,-0.2295,-0.2379,0.0959,-0.008,-0.0251,-0.0063,512,2019-08-07 16:45:16:065
-6.3594,-6.8026,0.8075,-0.3856,-0.2728,0.0171,-0.008,-0.0251,-0.0063,518,2019-08-07 16:45:16:071
-6.3594,-6.8026,0.8075,-0.3856,-0.2728,0.0171,-0.0069,-0.0219,0.0033,523,2019-08-07 16:45:16:076
-6.3594,-6.8121,0.817,-0.3856,-0.2728,0.0171,-0.0069,-0.0219,0.0033,528,2019-08-07 16:45:16:081
-6.3594,-6.8121,0.817,-0.3856,-0.2728,0.0171,-5.0E-4,-0.0166,0.0118,533,2019-08-07 16:45:16:086
-6.3594,-6.8121,0.817,-0.3662,-0.2537,0.0241,-5.0E-4,-0.0166,0.0118,538,2019-08-07 16:45:16:091
-6.4216,-6.7978,0.7745,-0.3662,-0.2537,0.0241,-5.0E-4,-0.0166,0.0118,543,2019-08-07 16:45:16:096
-6.4216,-6.7978,0.7745,-0.3662,-0.2537,0.0241,-0.0037,-0.0091,0.0214,549,2019-08-07 16:45:16:102
-6.4264,-6.8169,0.7462,-0.3662,-0.2537,0.0241,-0.0026,0.0015,0.0214,553,2019-08-07 16:45:16:106
-6.4264,-6.8169,0.7462,-0.2825,-0.218,0.0668,-0.0026,0.0015,0.0214,558,2019-08-07 16:45:16:111
-6.4264,-6.8169,0.7462,-0.2825,-0.218,0.0668,-0.0026,0.0015,0.0214,562,2019-08-07 16:45:16:115
-6.5412,-6.8121,0.8217,-0.2825,-0.218,0.0668,0.0027,0.0143,0.0171,568,2019-08-07 16:45:16:121
-6.5412,-6.8121,0.8217,-0.2825,-0.218,0.0668,0.0112,0.0271,0.0139,573,2019-08-07 16:45:16:126
-6.5412,-6.8121,0.8217,-0.185,-0.3203,0.1216,0.0112,0.0271,0.0139,578,2019-08-07 16:45:16:131
-6.6082,-6.7691,0.7274,-0.185,-0.3203,0.1216,0.0112,0.0271,0.0139,583,2019-08-07 16:45:16:136
-6.6082,-6.7691,0.7274,-0.185,-0.3203,0.1216,0.0102,0.0356,0.0022,588,2019-08-07 16:45:16:141
-6.6848,-6.7548,0.7462,-0.185,-0.3203,0.1216,0.0091,0.0345,-0.0138,593,2019-08-07 16:45:16:146
-6.6848,-6.7548,0.7462,-0.0474,-0.2337,0.0376,0.0091,0.0345,-0.0138,598,2019-08-07 16:45:16:151
-6.6848,-6.7548,0.7462,-0.0474,-0.2337,0.0376,0.0091,0.0345,-0.0138,602,2019-08-07 16:45:16:155
-6.6609,-6.8503,0.7792,-0.0474,-0.2337,0.0376,0.0134,0.0218,-0.0234,608,2019-08-07 16:45:16:161
-6.6609,-6.8503,0.7792,-0.0474,-0.2337,0.0376,0.0134,0.0218,-0.0234,613,2019-08-07 16:45:16:166
-6.5604,-6.8073,0.7839,-0.1886,-0.2647,0.0369,0.0134,5.0E-4,-0.0287,617,2019-08-07 16:45:16:170
-6.5604,-6.8073,0.7839,-0.1886,-0.2647,0.0369,0.0134,5.0E-4,-0.0287,623,2019-08-07 16:45:16:176
-6.5604,-6.8073,0.7839,-0.1886,-0.2647,0.0369,0.0155,-0.0262,-0.0255,628,2019-08-07 16:45:16:181
-6.4887,-6.7644,0.8311,-0.1886,-0.2647,0.0369,0.0155,-0.0262,-0.0255,633,2019-08-07 16:45:16:186
-6.4887,-6.7644,0.8311,-0.3186,-0.3012,-0.0092,0.0123,-0.0432,-0.018,638,2019-08-07 16:45:16:191
-6.4026,-6.7596,0.8546,-0.3186,-0.3012,-0.0092,0.0123,-0.0432,-0.018,643,2019-08-07 16:45:16:196
-6.4026,-6.7596,0.8546,-0.3186,-0.3012,-0.0092,0.0144,-0.0507,-0.0053,647,2019-08-07 16:45:16:200
-6.4026,-6.7596,0.8546,-0.3186,-0.3012,-0.0092,0.0144,-0.0507,-0.0053,653,2019-08-07 16:45:16:206
-6.3404,-6.7644,0.9159,-0.4024,-0.3119,-0.08,0.0091,-0.0581,0.0097,658,2019-08-07 16:45:16:211
-6.3404,-6.7644,0.9159,-0.4024,-0.3119,-0.08,0.0091,-0.0581,0.0097,663,2019-08-07 16:45:16:216
-6.3404,-6.7644,0.9159,-0.4024,-0.3119,-0.08,0.0048,-0.0507,0.0193,667,2019-08-07 16:45:16:220
-6.3165,-6.688,0.9065,-0.4024,-0.3119,-0.08,0.0048,-0.0507,0.0193,673,2019-08-07 16:45:16:226
-6.3165,-6.688,0.9065,-0.3323,-0.3856,0.0228,-5.0E-4,-0.0517,0.031,678,2019-08-07 16:45:16:231
-6.4015,-6.7119,0.77,-0.3323,-0.3856,0.0228,-5.0E-4,-0.0517,0.031,684,2019-08-07 16:45:16:237
-6.4015,-6.7119,0.77,-0.3323,-0.3856,0.0228,-0.0037,-0.0368,0.0374,688,2019-08-07 16:45:16:241
-6.4015,-6.7119,0.77,-0.3323,-0.3856,0.0228,-0.0037,-0.0368,0.0374,693,2019-08-07 16:45:16:246
-6.4111,-6.7072,0.7653,-0.3426,-0.3473,0.0978,-0.0165,-0.0294,0.0352,699,2019-08-07 16:45:16:252
-6.4111,-6.7072,0.7653,-0.3426,-0.3473,0.0978,-0.0165,-0.0294,0.0352,703,2019-08-07 16:45:16:256
-6.4111,-6.7072,0.7653,-0.3426,-0.3473,0.0978,-0.0165,-0.0294,0.0352,707,2019-08-07 16:45:16:260
-6.4733,-6.7215,0.6805,-0.3426,-0.3473,0.0978,-0.0197,-0.0134,0.0288,713,2019-08-07 16:45:16:266
-6.4733,-6.7215,0.6805,-0.2128,-0.2767,0.1528,-0.0197,-0.0134,0.0288,718,2019-08-07 16:45:16:271
-6.502,-6.7931,0.7135,-0.2128,-0.2767,0.1528,-0.0239,0.0132,0.0203,723,2019-08-07 16:45:16:276
-6.502,-6.7931,0.7135,-0.2128,-0.2767,0.1528,-0.0239,0.0132,0.0203,728,2019-08-07 16:45:16:281
-6.5163,-6.8552,0.671,-0.2128,-0.2767,0.1528,-0.0197,0.0313,0.015,733,2019-08-07 16:45:16:286
-6.5163,-6.8552,0.671,-0.225,-0.1748,0.1498,-0.0197,0.0313,0.015,738,2019-08-07 16:45:16:291
-6.5163,-6.8552,0.671,-0.225,-0.1748,0.1498,-0.0133,0.0526,0.0033,743,2019-08-07 16:45:16:296
-6.5833,-6.8695,0.7464,-0.225,-0.1748,0.1498,-0.0133,0.0526,0.0033,748,2019-08-07 16:45:16:301
-6.5833,-6.8695,0.7464,-0.225,-0.1748,0.1498,-0.009,0.0431,1.0E-4,754,2019-08-07 16:45:16:307
-6.5833,-6.8695,0.7464,-0.225,-0.1748,0.1498,-0.009,0.0431,1.0E-4,758,2019-08-07 16:45:16:311
-6.6742,-6.8647,0.7417,-0.0829,-0.1984,0.089,-0.009,0.0431,1.0E-4,763,2019-08-07 16:45:16:316
-6.6742,-6.8647,0.7417,-0.0829,-0.1984,0.089,-0.0069,0.0249,1.0E-4,768,2019-08-07 16:45:16:321
-6.6742,-6.8647,0.7417,-0.0829,-0.1984,0.089,-0.0069,0.0249,1.0E-4,772,2019-08-07 16:45:16:325
-6.6072,-6.8695,0.8266,-0.0829,-0.1984,0.089,6.0E-4,-0.0081,0.0054,778,2019-08-07 16:45:16:331
-6.6072,-6.8695,0.8266,-0.1462,-0.2263,0.0252,6.0E-4,-0.0081,0.0054,783,2019-08-07 16:45:16:336
-6.5594,-6.8217,0.8549,-0.1462,-0.2263,0.0252,0.0059,-0.0262,0.0043,788,2019-08-07 16:45:16:341
-6.5594,-6.8217,0.8549,-0.1462,-0.2263,0.0252,0.0059,-0.0262,0.0043,793,2019-08-07 16:45:16:346
-6.5833,-6.8265,0.7983,-0.1462,-0.2263,0.0252,0.0123,-0.0294,0.0065,798,2019-08-07 16:45:16:351
-6.5833,-6.8265,0.7983,-0.1756,-0.2443,0.0765,0.0123,-0.0294,0.0065,803,2019-08-07 16:45:16:356
-6.5833,-6.8265,0.7983,-0.1756,-0.2443,0.0765,0.0123,-0.0294,0.0065,808,2019-08-07 16:45:16:361
-6.5402,-6.8408,0.7135,-0.2186,-0.2201,0.1218,0.0219,-0.0219,1.0E-4,813,2019-08-07 16:45:16:366
-6.5402,-6.8408,0.7135,-0.2186,-0.2201,0.1218,0.0219,-0.0219,1.0E-4,817,2019-08-07 16:45:16:370
-6.5402,-6.8408,0.7135,-0.2186,-0.2201,0.1218,0.0229,-0.0049,-0.0116,823,2019-08-07 16:45:16:376
-6.5737,-6.7931,0.6946,-0.2186,-0.2201,0.1218,0.0229,-0.0049,-0.0116,827,2019-08-07 16:45:16:380
-6.5737,-6.7931,0.6946,-0.2029,-0.2257,0.1209,0.0304,0.0079,-0.0223,832,2019-08-07 16:45:16:385
-6.5785,-6.8313,0.6852,-0.2029,-0.2257,0.1209,0.0304,0.0079,-0.0223,838,2019-08-07 16:45:16:391
-6.5785,-6.8313,0.6852,-0.2029,-0.2257,0.1209,0.0304,0.0079,-0.0223,842,2019-08-07 16:45:16:395
-6.5785,-6.8313,0.6852,-0.2029,-0.2257,0.1209,0.0293,0.026,-0.0383,848,2019-08-07 16:45:16:401
-6.6215,-6.8027,0.8172,-0.1319,-0.2629,0.0228,0.0293,0.026,-0.0383,852,2019-08-07 16:45:16:405
-6.6215,-6.8027,0.8172,-0.1319,-0.2629,0.0228,0.0261,0.0239,-0.0425,858,2019-08-07 16:45:16:411
-6.6215,-6.8027,0.8172,-0.1319,-0.2629,0.0228,0.0261,0.0239,-0.0425,863,2019-08-07 16:45:16:416
-6.5354,-6.8552,0.7889,-0.1319,-0.2629,0.0228,0.024,0.0164,-0.0404,868,2019-08-07 16:45:16:421
-6.5354,-6.8552,0.7889,-0.2366,-0.2822,-0.0328,0.024,0.0164,-0.0404,873,2019-08-07 16:45:16:426
-6.478,-6.8217,0.9162,-0.2366,-0.2822,-0.0328,0.0197,-0.0102,-0.0383,878,2019-08-07 16:45:16:431
-6.478,-6.8217,0.9162,-0.2366,-0.2822,-0.0328,0.0197,-0.0102,-0.0383,883,2019-08-07 16:45:16:436
-6.478,-6.8217,0.9162,-0.2366,-0.2822,-0.0328,0.0187,-0.0411,-0.0223,888,2019-08-07 16:45:16:441
-6.3775,-6.8313,0.9067,-0.3651,-0.2437,-0.0594,0.0187,-0.0411,-0.0223,894,2019-08-07 16:45:16:447
-6.3775,-6.8313,0.9067,-0.3651,-0.2437,-0.0594,0.0197,-0.0592,-0.0063,898,2019-08-07 16:45:16:451
-6.3775,-6.8313,0.9067,-0.3651,-0.2437,-0.0594,0.0197,-0.0592,-0.0063,903,2019-08-07 16:45:16:456
-6.2531,-6.8217,0.9114,-0.3651,-0.2437,-0.0594,0.0208,-0.0581,0.0054,908,2019-08-07 16:45:16:461
-6.2531,-6.8217,0.9114,-0.5105,-0.2546,-0.0479,0.0208,-0.0581,0.0054,913,2019-08-07 16:45:16:466
-6.2101,-6.7836,0.8926,-0.5105,-0.2546,-0.0479,0.0165,-0.0422,0.0224,918,2019-08-07 16:45:16:471
-6.2101,-6.7836,0.8926,-0.5105,-0.2546,-0.0479,0.0165,-0.0422,0.0224,923,2019-08-07 16:45:16:476
-6.2101,-6.7836,0.8926,-0.5105,-0.2546,-0.0479,0.0165,-0.0422,0.0224,928,2019-08-07 16:45:16:481
-6.3632,-6.7454,0.8219,-0.3783,-0.3283,0.0448,0.0176,-0.0177,0.032,934,2019-08-07 16:45:16:487
-6.3632,-6.7454,0.8219,-0.3783,-0.3283,0.0448,0.0176,-0.0177,0.032,938,2019-08-07 16:45:16:491
-6.3632,-6.7454,0.8219,-0.3783,-0.3283,0.0448,0.0091,0.0079,0.0352,942,2019-08-07 16:45:16:495
-6.4493,-6.7645,0.8125,-0.3783,-0.3283,0.0448,0.0091,0.0079,0.0352,948,2019-08-07 16:45:16:501
-6.4493,-6.7645,0.8125,-0.2446,-0.3092,0.1584,0.007,0.0324,0.0246,952,2019-08-07 16:45:16:505
-6.5593,-6.7454,0.7135,-0.2446,-0.3092,0.1584,0.007,0.0324,0.0246,958,2019-08-07 16:45:16:511
-6.5593,-6.7454,0.7135,-0.2446,-0.3092,0.1584,0.0038,0.0516,0.0043,963,2019-08-07 16:45:16:516
-6.5593,-6.7454,0.7135,-0.2446,-0.3092,0.1584,0.0038,0.0516,0.0043,968,2019-08-07 16:45:16:521
-6.7124,-6.7788,0.7653,-0.0226,-0.3168,0.0767,0.0038,0.0516,0.0043,972,2019-08-07 16:45:16:525
-6.7124,-6.7788,0.7653,-0.0226,-0.3168,0.0767,0.0091,0.0558,-0.0084,978,2019-08-07 16:45:16:531
-6.7124,-6.8456,0.737,-0.0226,-0.3168,0.0767,0.0091,0.0558,-0.0084,983,2019-08-07 16:45:16:536
-6.7124,-6.8456,0.737,-0.0226,-0.3168,0.0767,0.0133,0.0441,-0.0234,988,2019-08-07 16:45:16:541
-6.7124,-6.8456,0.737,-0.0226,-0.3168,0.0767,0.0133,0.0441,-0.0234,992,2019-08-07 16:45:16:545
-6.7076,-6.8313,0.7936,-0.0409,-0.237,0.062,0.0133,0.0175,-0.0308,998,2019-08-07 16:45:16:551
-6.7076,-6.8313,0.7936,-0.0409,-0.237,0.062,0.0133,0.0175,-0.0308,1003,2019-08-07 16:45:16:556
-6.6263,-6.8456,0.8455,-0.0409,-0.237,0.062,0.0133,-0.0113,-0.0287,1007,2019-08-07 16:45:16:560
-6.6263,-6.8456,0.8455,-0.1807,-0.2356,0.0073,0.0133,-0.0113,-0.0287,1013,2019-08-07 16:45:16:566
-6.6263,-6.8456,0.8455,-0.1807,-0.2356,0.0073,0.0197,-0.0262,-0.0308,1018,2019-08-07 16:45:16:571
-6.5449,-6.7788,0.8077,-0.1807,-0.2356,0.0073,0.0197,-0.0262,-0.0308,1023,2019-08-07 16:45:16:576
-6.5449,-6.7788,0.8077,-0.1807,-0.2356,0.0073,0.0197,-0.0454,-0.0297,1028,2019-08-07 16:45:16:581
-6.4588,-6.879,0.7559,-0.281,-0.1964,0.1091,0.0197,-0.0454,-0.0297,1033,2019-08-07 16:45:16:586
-6.4588,-6.879,0.7559,-0.281,-0.1964,0.1091,0.0165,-0.0368,-0.0308,1037,2019-08-07 16:45:16:590
-6.4588,-6.879,0.7559,-0.281,-0.1964,0.1091,0.0165,-0.0368,-0.0308,1043,2019-08-07 16:45:16:596
-6.4397,-6.8647,0.836,-0.281,-0.1964,0.1091,0.0208,-0.0209,-0.0319,1049,2019-08-07 16:45:16:602
-6.4397,-6.8647,0.836,-0.3187,-0.2677,0.0446,0.0208,-0.0209,-0.0319,1052,2019-08-07 16:45:16:605
-6.411,-6.8265,0.8313,-0.3187,-0.2677,0.0446,0.024,0.0047,-0.0383,1058,2019-08-07 16:45:16:611
-6.411,-6.8265,0.8313,-0.3187,-0.2677,0.0446,0.024,0.0047,-0.0383,1062,2019-08-07 16:45:16:615
-6.411,-6.8265,0.8313,-0.3016,-0.232,0.1068,0.0229,0.0281,-0.0436,1068,2019-08-07 16:45:16:621
-6.5545,-6.7836,0.7748,-0.3016,-0.232,0.1068,0.0229,0.0281,-0.0436,1074,2019-08-07 16:45:16:627
-6.5545,-6.7836,0.7748,-0.3016,-0.232,0.1068,0.0208,0.0388,-0.0574,1078,2019-08-07 16:45:16:631
-6.6645,-6.8218,0.8219,-0.0608,-0.2669,0.0483,0.0208,0.0388,-0.0574,1084,2019-08-07 16:45:16:637
-6.6645,-6.8218,0.8219,-0.0608,-0.2669,0.0483,0.0208,0.0388,-0.0574,1088,2019-08-07 16:45:16:641
-6.6645,-6.8218,0.8219,-0.0608,-0.2669,0.0483,0.0219,0.0164,-0.0649,1093,2019-08-07 16:45:16:646
-6.588,-6.8599,0.8926,-0.0608,-0.2669,0.0483,0.0261,-0.0155,-0.0681,1099,2019-08-07 16:45:16:652
-6.588,-6.8599,0.8926,-0.2337,-0.2177,0.0183,0.0261,-0.0155,-0.0681,1104,2019-08-07 16:45:16:657
-6.588,-6.8599,0.8926,-0.2337,-0.2177,0.0183,0.0261,-0.0155,-0.0681,1108,2019-08-07 16:45:16:661
-6.5019,-6.7836,0.8973,-0.2337,-0.2177,0.0183,0.0219,-0.0411,-0.0702,1113,2019-08-07 16:45:16:666
-6.5019,-6.7836,0.8973,-0.2337,-0.2177,0.0183,0.0219,-0.0411,-0.0702,1118,2019-08-07 16:45:16:671
-6.5019,-6.7836,0.8973,-0.2337,-0.2177,0.0183,0.0219,-0.0411,-0.0702,1123,2019-08-07 16:45:16:676
-6.3775,-6.774,0.8973,-0.3666,-0.3172,0.0135,0.0176,-0.0539,-0.0638,1128,2019-08-07 16:45:16:681
-6.3775,-6.774,0.8973,-0.3666,-0.3172,0.0135,0.0176,-0.0539,-0.0638,1134,2019-08-07 16:45:16:687
-6.2626,-6.8265,0.8125,-0.3666,-0.3172,0.0135,0.0123,-0.0571,-0.0511,1137,2019-08-07 16:45:16:690
-6.2626,-6.8265,0.8125,-0.3666,-0.3172,0.0135,0.0123,-0.0571,-0.0511,1143,2019-08-07 16:45:16:696
-6.2626,-6.8265,0.8125,-0.4531,-0.2913,0.1032,0.0112,-0.0411,-0.0404,1148,2019-08-07 16:45:16:701
-6.2244,-6.8265,0.7889,-0.4531,-0.2913,0.1032,0.0112,-0.0411,-0.0404,1153,2019-08-07 16:45:16:706
-6.2244,-6.8265,0.7889,-0.4531,-0.2913,0.1032,0.0102,-0.0209,-0.0372,1158,2019-08-07 16:45:16:711
-6.2052,-6.7883,0.8266,-0.4531,-0.2913,0.1032,0.0102,-0.0209,-0.0372,1163,2019-08-07 16:45:16:716
-6.2052,-6.7883,0.8266,-0.4847,-0.34,0.08,0.0102,4.0E-4,-0.0276,1168,2019-08-07 16:45:16:721
-6.2052,-6.7883,0.8266,-0.4847,-0.34,0.08,0.0102,4.0E-4,-0.0276,1173,2019-08-07 16:45:16:726
-6.2196,-6.8122,0.8078,-0.468,-0.3087,0.0897,0.0102,0.0218,-0.0266,1178,2019-08-07 16:45:16:731
-6.2196,-6.8122,0.8078,-0.468,-0.3087,0.0897,0.0102,0.0218,-0.0266,1184,2019-08-07 16:45:16:737
-6.2196,-6.8122,0.8078,-0.468,-0.3087,0.0897,6.0E-4,0.0431,-0.0308,1187,2019-08-07 16:45:16:740
-6.4014,-6.7167,0.8078,-0.468,-0.3087,0.0897,6.0E-4,0.0431,-0.0308,1193,2019-08-07 16:45:16:746
-6.4014,-6.7167,0.8078,-0.2541,-0.3554,0.0474,6.0E-4,0.0335,-0.0212,1198,2019-08-07 16:45:16:751
-6.4731,-6.7645,0.8172,-0.2541,-0.3554,0.0474,6.0E-4,0.0335,-0.0212,1203,2019-08-07 16:45:16:756
-6.4731,-6.7645,0.8172,-0.2541,-0.3554,0.0474,6.0E-4,0.0335,-0.0212,1208,2019-08-07 16:45:16:761
-6.4731,-6.7645,0.8172,-0.2541,-0.3554,0.0474,-0.0026,0.009,-0.0148,1213,2019-08-07 16:45:16:766
-6.4492,-6.8027,0.8455,-0.233,-0.3242,0.0443,-0.0026,0.009,-0.0148,1218,2019-08-07 16:45:16:771
-6.4492,-6.8027,0.8455,-0.233,-0.3242,0.0443,-0.0026,0.009,-0.0148,1223,2019-08-07 16:45:16:776
-6.454,-6.7263,0.8078,-0.233,-0.3242,0.0443,-0.0016,-0.0081,-0.0127,1228,2019-08-07 16:45:16:781
-6.454,-6.7263,0.8078,-0.233,-0.3242,0.0443,-0.0016,-0.0081,-0.0127,1234,2019-08-07 16:45:16:787
-6.454,-6.7263,0.8078,-0.2506,-0.3638,0.1111,-0.0037,-0.0187,-0.0063,1239,2019-08-07 16:45:16:792
-6.4444,-6.8122,0.7276,-0.2506,-0.3638,0.1111,-0.0037,-0.0187,-0.0063,1243,2019-08-07 16:45:16:796
-6.4444,-6.8122,0.7276,-0.2506,-0.3638,0.1111,-0.0101,-0.0177,-0.0106,1249,2019-08-07 16:45:16:802
-6.3966,-6.8934,0.7512,-0.2506,-0.3638,0.1111,-0.0101,-0.0177,-0.0106,1253,2019-08-07 16:45:16:806
-6.3966,-6.8934,0.7512,-0.2922,-0.2505,0.14,-0.0101,-0.0177,-0.0106,1258,2019-08-07 16:45:16:811
-6.3966,-6.8934,0.7512,-0.2922,-0.2505,0.14,-0.008,-0.0027,-0.0116,1262,2019-08-07 16:45:16:815
-6.3774,-6.879,0.8078,-0.2922,-0.2505,0.14,-0.008,-0.0027,-0.0116,1269,2019-08-07 16:45:16:822
-6.3774,-6.879,0.8078,-0.2922,-0.2505,0.14,-0.008,-0.0027,-0.0116,1273,2019-08-07 16:45:16:826
-6.3152,-6.8695,0.8455,-0.3614,-0.2627,0.0443,-0.0016,0.0132,-0.017,1278,2019-08-07 16:45:16:831
-6.3152,-6.8695,0.8455,-0.3614,-0.2627,0.0443,-0.0016,0.0132,-0.017,1283,2019-08-07 16:45:16:836
-6.3152,-6.8695,0.8455,-0.3614,-0.2627,0.0443,0.0016,0.026,-0.0191,1288,2019-08-07 16:45:16:841
-6.3391,-6.8122,0.9115,-0.3614,-0.2627,0.0443,0.0016,0.026,-0.0191,1293,2019-08-07 16:45:16:846
-6.3391,-6.8122,0.9115,-0.3303,-0.3465,0.0125,0.0016,0.0356,-0.0148,1298,2019-08-07 16:45:16:851
-6.3391,-6.8122,0.9115,-0.3303,-0.3465,0.0125,0.0016,0.0356,-0.0148,1303,2019-08-07 16:45:16:856
-6.3822,-6.7931,0.9115,-0.3303,-0.3465,0.0125,-0.0048,0.0281,-0.0116,1308,2019-08-07 16:45:16:861
-6.3822,-6.7931,0.9115,-0.3303,-0.3465,0.0125,-0.0048,0.0281,-0.0116,1312,2019-08-07 16:45:16:865
-6.4252,-6.7931,0.9303,-0.2528,-0.3717,-0.0384,-0.0058,0.01,-0.001,1318,2019-08-07 16:45:16:871
-6.4252,-6.7931,0.9303,-0.2528,-0.3717,-0.0384,-0.0058,0.01,-0.001,1323,2019-08-07 16:45:16:876
-6.3965,-6.7788,0.8832,-0.2528,-0.3717,-0.0384,-0.008,-0.0091,0.0065,1327,2019-08-07 16:45:16:880
-6.3965,-6.7788,0.8832,-0.2528,-0.3717,-0.0384,-0.008,-0.0091,0.0065,1333,2019-08-07 16:45:16:886
-6.3965,-6.7788,0.8832,-0.2727,-0.3471,-0.0146,-0.0048,-0.0209,0.0107,1338,2019-08-07 16:45:16:891
-6.3583,-6.7883,0.8219,-0.2727,-0.3471,-0.0146,-0.0048,-0.0209,0.0107,1343,2019-08-07 16:45:16:896
-6.3583,-6.7883,0.8219,-0.2727,-0.3471,-0.0146,-0.0048,-0.0209,0.0107,1347,2019-08-07 16:45:16:900
-6.3152,-6.8456,0.8266,-0.2727,-0.3471,-0.0146,-0.008,-0.0102,0.0139,1353,2019-08-07 16:45:16:906
-6.3152,-6.8456,0.8266,-0.3508,-0.2835,0.0615,-0.008,-0.0102,0.0139,1358,2019-08-07 16:45:16:911
-6.3152,-6.8456,0.8266,-0.3508,-0.2835,0.0615,-0.008,-0.0102,0.0139,1363,2019-08-07 16:45:16:916
-6.3774,-6.8743,0.7748,-0.3508,-0.2835,0.0615,-0.0101,0.0154,0.0075,1368,2019-08-07 16:45:16:921
-6.3774,-6.8743,0.7748,-0.3508,-0.2835,0.0615,-0.0048,0.0335,0.0043,1373,2019-08-07 16:45:16:926
-6.4396,-6.9172,0.902,-0.2371,-0.2161,-0.0228,-0.0048,0.0335,0.0043,1378,2019-08-07 16:45:16:931
-6.4396,-6.9172,0.902,-0.2371,-0.2161,-0.0228,-0.0048,0.0335,0.0043,1383,2019-08-07 16:45:16:936
-6.4396,-6.9172,0.902,-0.2371,-0.2161,-0.0228,-0.0037,0.0431,-0.001,1388,2019-08-07 16:45:16:941
-6.5448,-6.8074,0.9303,-0.2371,-0.2161,-0.0228,-0.0037,0.0431,-0.001,1393,2019-08-07 16:45:16:946
-6.5448,-6.8074,0.9303,-0.2371,-0.2161,-0.0228,-0.0069,0.0335,-0.0042,1397,2019-08-07 16:45:16:950
-6.5448,-6.8074,0.9303,-0.1185,-0.3018,-0.0939,-0.0069,0.0335,-0.0042,1402,2019-08-07 16:45:16:955
-6.5018,-6.7931,0.9633,-0.1185,-0.3018,-0.0939,-0.0165,-0.0038,-0.0021,1408,2019-08-07 16:45:16:961
-6.5018,-6.7931,0.9633,-0.1185,-0.3018,-0.0939,-0.0165,-0.0038,-0.0021,1412,2019-08-07 16:45:16:965
-6.5018,-6.7979,0.8361,-0.229,-0.3396,-0.0284,-0.0175,-0.0304,0.0054,1418,2019-08-07 16:45:16:971
-6.5018,-6.7979,0.8361,-0.229,-0.3396,-0.0284,-0.0175,-0.0304,0.0054,1423,2019-08-07 16:45:16:976
-6.5018,-6.7979,0.8361,-0.229,-0.3396,-0.0284,-0.0218,-0.0475,0.0118,1428,2019-08-07 16:45:16:981
-6.3391,-6.7931,0.8172,-0.3395,-0.339,0.0581,-0.0218,-0.0475,0.0118,1433,2019-08-07 16:45:16:986
-6.3391,-6.7931,0.8172,-0.3395,-0.339,0.0581,-0.0218,-0.0475,0.0118,1438,2019-08-07 16:45:16:991
-6.3391,-6.7931,0.8172,-0.3395,-0.339,0.0581,-0.0325,-0.0336,0.0193,1443,2019-08-07 16:45:16:996
-6.3821,-6.7693,0.7418,-0.3395,-0.339,0.0581,-0.0325,-0.0336,0.0193,1448,2019-08-07 16:45:17:001
-6.3821,-6.7693,0.7418,-0.3275,-0.3464,0.1144,-0.0335,-0.0155,0.0235,1453,2019-08-07 16:45:17:006
-6.3821,-6.8074,0.7559,-0.3275,-0.3464,0.1144,-0.0335,-0.0155,0.0235,1458,2019-08-07 16:45:17:011
-6.3821,-6.8074,0.7559,-0.3275,-0.3464,0.1144,-0.0303,0.0058,0.0225,1463,2019-08-07 16:45:17:016
-6.3821,-6.8074,0.7559,-0.3275,-0.3464,0.1144,-0.0303,0.0058,0.0225,1468,2019-08-07 16:45:17:021
-6.4156,-6.9029,0.7135,-0.2686,-0.2247,0.1554,-0.0314,0.0473,0.0097,1473,2019-08-07 16:45:17:026
-6.4156,-6.9029,0.7135,-0.2686,-0.2247,0.1554,-0.0314,0.0473,0.0097,1478,2019-08-07 16:45:17:031
-6.5735,-6.922,0.7371,-0.2686,-0.2247,0.1554,-0.0239,0.0633,0.0107,1483,2019-08-07 16:45:17:036
-6.5735,-6.922,0.7371,-0.2686,-0.2247,0.1554,-0.0239,0.0633,0.0107,1488,2019-08-07 16:45:17:041
-6.5735,-6.922,0.7371,-0.0894,-0.1569,0.0865,-0.0239,0.0633,0.0107,1492,2019-08-07 16:45:17:045
-6.6261,-6.9841,0.8031,-0.0894,-0.1569,0.0865,-0.0122,0.059,-0.0021,1498,2019-08-07 16:45:17:051
-6.6261,-6.9841,0.8031,-0.0137,-0.2045,-0.0459,-0.0122,0.059,-0.0021,1503,2019-08-07 16:45:17:056
-6.6979,-6.8647,0.9256,-0.0137,-0.2045,-0.0459,-0.0016,0.0356,-0.0063,1508,2019-08-07 16:45:17:061
-6.6979,-6.8647,0.9256,-0.0137,-0.2045,-0.0459,-0.0016,0.0356,-0.0063,1513,2019-08-07 16:45:17:066
-6.6979,-6.8647,0.9256,-0.0137,-0.2045,-0.0459,-0.0069,-0.0198,-0.001,1518,2019-08-07 16:45:17:071
-6.6118,-6.8981,0.9303,-0.0765,-0.228,-0.0808,-0.0069,-0.0198,-0.001,1522,2019-08-07 16:45:17:075
-6.6118,-6.8981,0.9303,-0.0765,-0.228,-0.0808,-0.0101,-0.0454,0.0011,1528,2019-08-07 16:45:17:081
-6.4922,-6.8981,0.8879,-0.0765,-0.228,-0.0808,-0.0101,-0.0454,0.0011,1534,2019-08-07 16:45:17:087
-6.4922,-6.8981,0.8879,-0.0765,-0.228,-0.0808,-0.008,-0.0635,-0.0063,1537,2019-08-07 16:45:17:090
-6.4922,-6.8981,0.8879,-0.1998,-0.1997,-0.0234,-0.008,-0.0635,-0.0063,1543,2019-08-07 16:45:17:096
-6.5591,-6.9316,0.8832,-0.1998,-0.1997,-0.0234,-0.0026,-0.0677,0.0033,1548,2019-08-07 16:45:17:101
-6.5591,-6.9316,0.8832,-0.1998,-0.1997,-0.0234,-0.0026,-0.0677,0.0033,1553,2019-08-07 16:45:17:106
-6.4252,-6.8886,0.8408,-0.1998,-0.1997,-0.0234,-0.0048,-0.0688,1.0E-4,1557,2019-08-07 16:45:17:110
-6.4252,-6.8886,0.8408,-0.2323,-0.1805,0.0046,-0.0048,-0.0688,1.0E-4,1563,2019-08-07 16:45:17:116
-6.5017,-6.8982,0.8973,-0.2323,-0.1805,0.0046,-0.0112,-0.0603,-0.0042,1568,2019-08-07 16:45:17:121
-6.5017,-6.8982,0.8973,-0.2323,-0.1805,0.0046,-0.0112,-0.0603,-0.0042,1574,2019-08-07 16:45:17:127
-6.5017,-6.8982,0.8973,-0.2323,-0.1805,0.0046,-0.0112,-0.0603,-0.0042,1579,2019-08-07 16:45:17:132
-6.4443,-7.0079,0.8078,-0.2501,-0.157,0.0726,-0.0133,-0.0592,0.0011,1583,2019-08-07 16:45:17:136
-6.4443,-7.0079,0.8078,-0.2501,-0.157,0.0726,-0.0133,-0.0592,0.0011,1588,2019-08-07 16:45:17:141
-6.4443,-7.0079,0.8078,-0.2501,-0.157,0.0726,-0.0165,-0.0486,-0.0159,1592,2019-08-07 16:45:17:145
-6.4204,-6.9841,0.8455,-0.2501,-0.157,0.0726,-0.0165,-0.0486,-0.0159,1598,2019-08-07 16:45:17:151
-6.4204,-6.9841,0.8455,-0.2564,-0.1022,0.0256,-0.0165,-0.0443,-0.0212,1603,2019-08-07 16:45:17:156
-6.4204,-6.9841,0.8455,-0.2564,-0.1022,0.0256,-0.0165,-0.0443,-0.0212,1608,2019-08-07 16:45:17:161
-6.4252,-7.0748,0.8596,-0.2564,-0.1022,0.0256,-0.0122,-0.0475,-0.0255,1612,2019-08-07 16:45:17:165
-6.4252,-7.0748,0.8596,-0.2564,-0.1022,0.0256,-0.0122,-0.0475,-0.0255,1618,2019-08-07 16:45:17:171
-6.4252,-7.0748,0.8596,-0.2989,-0.0876,-0.003,-0.0122,-0.0475,-0.0255,1623,2019-08-07 16:45:17:176
-6.363,-7.0175,0.8644,-0.2989,-0.0876,-0.003,-0.0112,-0.0581,-0.0287,1628,2019-08-07 16:45:17:181
-6.363,-7.0175,0.8644,-0.2989,-0.0876,-0.003,-0.0112,-0.0581,-0.0287,1633,2019-08-07 16:45:17:186
-6.3247,-7.0032,0.7748,-0.2989,-0.0876,-0.003,-0.0048,-0.0603,-0.0287,1638,2019-08-07 16:45:17:191
-6.3247,-7.0032,0.7748,-0.2989,-0.0876,-0.003,-0.0048,-0.0603,-0.0287,1643,2019-08-07 16:45:17:196
-6.3247,-7.0032,0.7748,-0.3452,-0.15,0.0885,-0.0016,-0.0581,-0.0287,1648,2019-08-07 16:45:17:201
-6.3534,-6.9411,0.8408,-0.3452,-0.15,0.0885,-0.0016,-0.0581,-0.0287,1653,2019-08-07 16:45:17:206
-6.3534,-6.9411,0.8408,-0.3452,-0.15,0.0885,0.0038,-0.0496,-0.0266,1658,2019-08-07 16:45:17:211
-6.4825,-6.9507,0.7701,-0.182,-0.1922,0.1243,0.0038,-0.0496,-0.0266,1663,2019-08-07 16:45:17:216
-6.4825,-6.9507,0.7701,-0.182,-0.1922,0.1243,0.0133,-0.0486,-0.0308,1668,2019-08-07 16:45:17:221
-6.4825,-6.9507,0.7701,-0.182,-0.1922,0.1243,0.0133,-0.0486,-0.0308,1673,2019-08-07 16:45:17:226
-6.6165,-6.9172,0.8879,-0.182,-0.1922,0.1243,0.0187,-0.0603,-0.0425,1679,2019-08-07 16:45:17:232
-6.6165,-6.9172,0.8879,0.0679,-0.2251,-0.0169,0.0336,-0.0816,-0.0585,1684,2019-08-07 16:45:17:237
-6.76,-6.8743,0.9115,0.0679,-0.2251,-0.0169,0.0336,-0.0816,-0.0585,1687,2019-08-07 16:45:17:240
-6.76,-6.8743,0.9115,0.0679,-0.2251,-0.0169,0.0336,-0.0816,-0.0585,1693,2019-08-07 16:45:17:246
-6.76,-6.8743,0.9115,0.0484,-0.3093,0.0665,0.04,-0.0986,-0.0756,1698,2019-08-07 16:45:17:251
-6.6691,-6.817,0.9681,0.0484,-0.3093,0.0665,0.04,-0.0986,-0.0756,1703,2019-08-07 16:45:17:256
-6.6691,-6.817,0.9681,0.0484,-0.3093,0.0665,0.0464,-0.121,-0.0979,1708,2019-08-07 16:45:17:261
-6.5495,-6.8504,0.9398,-0.1671,-0.3292,-0.0385,0.0464,-0.121,-0.0979,1713,2019-08-07 16:45:17:266
-6.5495,-6.8504,0.9398,-0.1671,-0.3292,-0.0385,0.0506,-0.1359,-0.1043,1718,2019-08-07 16:45:17:271
-6.3629,-6.8122,0.9445,-0.1671,-0.3292,-0.0385,0.0506,-0.1359,-0.1043,1723,2019-08-07 16:45:17:276
-6.3629,-6.8122,0.9445,-0.1671,-0.3292,-0.0385,0.0496,-0.1498,-0.1086,1728,2019-08-07 16:45:17:281
-6.3629,-6.8122,0.9445,-0.4645,-0.4334,0.1859,0.0496,-0.1498,-0.1086,1734,2019-08-07 16:45:17:287
-6.1046,-6.7693,0.7607,-0.4645,-0.4334,0.1859,0.057,-0.1732,-0.0969,1739,2019-08-07 16:45:17:292
-6.1046,-6.7693,0.7607,-0.4645,-0.4334,0.1859,0.057,-0.1732,-0.0969,1743,2019-08-07 16:45:17:296
-6.1046,-6.7693,0.7607,-0.4645,-0.4334,0.1859,0.0645,-0.1838,-0.0649,1747,2019-08-07 16:45:17:300
-5.5257,-6.6451,0.6664,-1.2756,-0.6353,0.3163,0.0645,-0.1838,-0.0649,1753,2019-08-07 16:45:17:306
-5.5257,-6.6451,0.6664,-1.2756,-0.6353,0.3163,0.0996,-0.1593,-0.0138,1758,2019-08-07 16:45:17:311
-5.0807,-6.2537,0.657,-1.2756,-0.6353,0.3163,0.0996,-0.1593,-0.0138,1763,2019-08-07 16:45:17:316
-5.0807,-6.2537,0.657,-1.2756,-0.6353,0.3163,0.1476,-0.0922,0.0693,1767,2019-08-07 16:45:17:320
-4.7315,-5.7142,0.9021,-1.8733,-1.4663,0.1239,0.1476,-0.0922,0.0693,1773,2019-08-07 16:45:17:326
-4.7315,-5.7142,0.9021,-1.8733,-1.4663,0.1239,0.1476,-0.0922,0.0693,1778,2019-08-07 16:45:17:331
-4.7315,-5.7142,0.9021,-1.8733,-1.4663,0.1239,0.22,0.0015,0.211,1784,2019-08-07 16:45:17:337
-4.6549,-5.3419,1.0953,-1.8733,-1.4663,0.1239,0.22,0.0015,0.211,1787,2019-08-07 16:45:17:340
-4.6549,-5.3419,1.0953,-1.8733,-1.4663,0.1239,0.2616,0.0526,0.3996,1793,2019-08-07 16:45:17:346
-4.6549,-5.3419,1.0953,-2.0159,-2.0378,-0.1856,0.2616,0.0526,0.3996,1798,2019-08-07 16:45:17:351
-4.6454,-4.9122,1.4347,-2.0159,-2.0378,-0.1856,0.2754,0.0154,0.5732,1803,2019-08-07 16:45:17:356
-4.6454,-4.9122,1.4347,-2.0159,-2.0378,-0.1856,0.2754,0.0154,0.5732,1808,2019-08-07 16:45:17:361
-4.3439,-4.454,1.4819,-2.0159,-2.0378,-0.1856,0.2669,-0.0571,0.782,1812,2019-08-07 16:45:17:365
-4.3439,-4.454,1.4819,-2.4857,-2.6885,-0.3973,0.2669,-0.0571,0.782,1818,2019-08-07 16:45:17:371
-4.3439,-4.454,1.4819,-2.4857,-2.6885,-0.3973,0.2669,-0.0571,0.782,1823,2019-08-07 16:45:17:376
-3.234,-3.6997,0.9304,-2.4857,-2.6885,-0.3973,0.2498,-0.203,1.093,1828,2019-08-07 16:45:17:381
-3.234,-3.6997,0.9304,-4.7094,-3.4121,0.6315,0.2445,-0.2605,1.4169,1833,2019-08-07 16:45:17:386
-3.234,-3.6997,0.9304,-4.7094,-3.4121,0.6315,0.2445,-0.2605,1.4169,1838,2019-08-07 16:45:17:391
-1.4543,-3.4515,0.228,-4.7094,-3.4121,0.6315,0.2445,-0.2605,1.4169,1843,2019-08-07 16:45:17:396
-1.4543,-3.4515,0.228,-6.3769,-3.3593,1.1993,0.3031,-0.2787,1.8345,1848,2019-08-07 16:45:17:401
0.7082,-3.3226,0.459,-6.3769,-3.3593,1.1993,0.3031,-0.2787,1.8345,1854,2019-08-07 16:45:17:407
0.7082,-3.3226,0.459,-6.3769,-3.3593,1.1993,0.5076,-0.3117,2.4779,1857,2019-08-07 16:45:17:410
0.7082,-3.3226,0.459,-6.3769,-3.3593,1.1993,0.5076,-0.3117,2.4779,1863,2019-08-07 16:45:17:416
2.2957,-2.8069,0.9585,-9.5131,-3.705,0.3609,0.7612,-0.3106,3.1053,1868,2019-08-07 16:45:17:421
2.2957,-2.8069,0.9585,-9.5131,-3.705,0.3609,0.7612,-0.3106,3.1053,1873,2019-08-07 16:45:17:426
2.3866,-1.5848,1.6891,-9.5131,-3.705,0.3609,0.9987,-0.4193,3.9714,1878,2019-08-07 16:45:17:431
2.3866,-1.5848,1.6891,-9.5131,-3.705,0.3609,0.9987,-0.4193,3.9714,1883,2019-08-07 16:45:17:436
2.3866,-1.5848,1.6891,-10.2779,-5.2366,-0.9074,0.9987,-0.4193,3.9714,1888,2019-08-07 16:45:17:441
3.1138,-0.2768,3.1975,-10.2779,-5.2366,-0.9074,1.1958,-0.8198,5.2923,1893,2019-08-07 16:45:17:446
3.1138,-0.2768,3.1975,-10.2779,-5.2366,-0.9074,1.1958,-0.8198,5.2923,1897,2019-08-07 16:45:17:450
3.1138,-0.2768,3.1975,-10.2779,-5.2366,-0.9074,1.2831,-1.4462,6.3405,1903,2019-08-07 16:45:17:456
4.4917,0.5443,3.7255,-13.0506,-5.7233,-1.6583,1.2831,-1.4462,6.3405,1908,2019-08-07 16:45:17:461
4.4917,0.5443,3.7255,-13.0506,-5.7233,-1.6583,1.2586,-2.1887,7.376,1913,2019-08-07 16:45:17:466
6.9125,0.8976,1.8305,-15.4019,-5.3125,0.3318,1.2586,-2.1887,7.376,1918,2019-08-07 16:45:17:471
6.9125,0.8976,1.8305,-15.4019,-5.3125,0.3318,1.232,-2.9823,8.6766,1923,2019-08-07 16:45:17:476
6.9125,0.8976,1.8305,-15.4019,-5.3125,0.3318,1.232,-2.9823,8.6766,1927,2019-08-07 16:45:17:480
9.8165,0.6207,-1.4126,-15.4019,-5.3125,0.3318,1.428,-3.1996,9.6386,1933,2019-08-07 16:45:17:486
9.8165,0.6207,-1.4126,-19.6178,-3.6124,5.7396,1.428,-3.1996,9.6386,1938,2019-08-07 16:45:17:491
9.8165,0.6207,-1.4126,-19.6178,-3.6124,5.7396,1.428,-3.1996,9.6386,1943,2019-08-07 16:45:17:496
10.1705,1.4036,-3.9628,-19.6178,-3.6124,5.7396,1.8871,-3.0856,10.5473,1948,2019-08-07 16:45:17:501
10.1705,1.4036,-3.9628,-19.6178,-3.6124,5.7396,1.8871,-3.0856,10.5473,1953,2019-08-07 16:45:17:506
6.3527,1.924,-6.0604,-15.5263,-2.6422,9.4613,2.6509,-2.3591,11.5848,1958,2019-08-07 16:45:17:511
6.3527,1.924,-6.0604,-15.5263,-2.6422,9.4613,2.6509,-2.3591,11.5848,1963,2019-08-07 16:45:17:516
2.6449,2.6305,-2.4496,-15.5263,-2.6422,9.4613,3.2454,-1.4952,12.1132,1968,2019-08-07 16:45:17:521
2.6449,2.6305,-2.4496,-15.5263,-2.6422,9.4613,3.2454,-1.4952,12.1132,1972,2019-08-07 16:45:17:525
2.6449,2.6305,-2.4496,-8.1545,-3.2229,-7.7087,3.8717,-2.8885,12.4083,1978,2019-08-07 16:45:17:531
-4.0913,5.9865,5.7807,-8.1545,-3.2229,-7.7087,3.8717,-2.8885,12.4083,1983,2019-08-07 16:45:17:536
-4.0913,5.9865,5.7807,-8.1545,-3.2229,-7.7087,3.8717,-2.8885,12.4083,1988,2019-08-07 16:45:17:541
-4.0913,5.9865,5.7807,-8.1545,-3.2229,-7.7087,5.622,-5.2449,12.7939,1993,2019-08-07 16:45:17:546
-10.3826,10.5073,1.4157,3.197,-7.2515,2.0742,5.622,-5.2449,12.7939,1998,2019-08-07 16:45:17:551
-10.3826,10.5073,1.4157,3.197,-7.2515,2.0742,7.222,-5.1,12.6064,2004,2019-08-07 16:45:17:557
-10.9806,16.0306,6.3982,3.197,-7.2515,2.0742,7.222,-5.1,12.6064,2008,2019-08-07 16:45:17:561
-10.9806,16.0306,6.3982,3.197,-7.2515,2.0742,8.659,-5.6209,11.8277,2013,2019-08-07 16:45:17:566
-10.9806,16.0306,6.3982,6.7063,-15.8152,-2.2865,8.659,-5.6209,11.8277,2019,2019-08-07 16:45:17:572
-13.588,24.8287,6.0965,6.7063,-15.8152,-2.2865,9.7978,-7.2753,10.6367,2022,2019-08-07 16:45:17:575
-13.588,24.8287,6.0965,6.7063,-15.8152,-2.2865,9.7978,-7.2753,10.6367,2028,2019-08-07 16:45:17:581
-19.9941,41.2602,4.852,6.7063,-15.8152,-2.2865,10.6138,-9.817,9.8303,2033,2019-08-07 16:45:17:586
-19.9941,41.2602,4.852,18.0877,-37.5176,-1.04,10.6138,-9.817,9.8303,2038,2019-08-07 16:45:17:591
-19.9941,41.2602,4.852,18.0877,-37.5176,-1.04,10.6138,-9.817,9.8303,2043,2019-08-07 16:45:17:596
-14.7123,44.621,-21.4557,18.0877,-37.5176,-1.04,10.405,-12.0413,9.6482,2048,2019-08-07 16:45:17:601
-14.7123,44.621,-21.4557,18.0877,-37.5176,-1.04,10.405,-12.0413,9.6482,2053,2019-08-07 16:45:17:606
-14.7123,44.621,-21.4557,-5.9977,-27.559,34.8711,6.6872,-5.866,9.2071,2057,2019-08-07 16:45:17:610
9.4481,34.7535,-32.7877,-5.9977,-27.559,34.8711,6.6872,-5.866,9.2071,2063,2019-08-07 16:45:17:616
9.4481,34.7535,-32.7877,-5.9977,-27.559,34.8711,1.6453,-1.5548,7.5251,2069,2019-08-07 16:45:17:622
23.2123,22.8094,-26.6315,-5.9977,-27.559,34.8711,1.6453,-1.5548,7.5251,2073,2019-08-07 16:45:17:626
23.2123,22.8094,-26.6315,-5.9977,-27.559,34.8711,1.6453,-1.5548,7.5251,2077,2019-08-07 16:45:17:630
23.2123,22.8094,-26.6315,-20.4341,-8.2129,21.7754,-3.8067,4.5672,2.9157,2083,2019-08-07 16:45:17:636
9.2519,11.9681,2.0473,-20.4341,-8.2129,21.7754,-3.8067,4.5672,2.9157,2088,2019-08-07 16:45:17:641
9.2519,11.9681,2.0473,-20.4341,-8.2129,21.7754,-4.3116,11.0728,-1.601,2093,2019-08-07 16:45:17:646
9.2519,11.9681,2.0473,14.2032,-1.8304,-32.1416,-4.3116,11.0728,-1.601,2097,2019-08-07 16:45:17:650
-14.6167,11.3045,34.6527,14.2032,-1.8304,-32.1416,1.1969,9.5367,-2.9582,2103,2019-08-07 16:45:17:656
-14.6167,11.3045,34.6527,14.2032,-1.8304,-32.1416,1.1969,9.5367,-2.9582,2108,2019-08-07 16:45:17:661
-22.4724,10.6171,23.3302,14.2032,-1.8304,-32.1416,3.3647,6.2504,-3.4205,2113,2019-08-07 16:45:17:666
-22.4724,10.6171,23.3302,14.2032,-1.8304,-32.1416,3.3647,6.2504,-3.4205,2119,2019-08-07 16:45:17:672
-26.8596,20.9238,12.4413,24.1793,-6.2595,-4.0598,0.9689,3.6895,-4.6349,2123,2019-08-07 16:45:17:676
-26.8596,20.9238,12.4413,24.1793,-6.2595,-4.0598,0.9689,3.6895,-4.6349,2128,2019-08-07 16:45:17:681
-26.8596,20.9238,12.4413,24.1793,-6.2595,-4.0598,-1.8754,-1.7381,-4.2439,2133,2019-08-07 16:45:17:686
-22.2954,26.9483,9.7214,17.5118,-17.0954,-8.2073,-1.8754,-1.7381,-4.2439,2138,2019-08-07 16:45:17:691
-22.2954,26.9483,9.7214,17.5118,-17.0954,-8.2073,-1.8754,-1.7381,-4.2439,2143,2019-08-07 16:45:17:696
-22.2954,26.9483,9.7214,17.5118,-17.0954,-8.2073,-4.3489,-5.6114,-3.1765,2148,2019-08-07 16:45:17:701
-8.6795,20.4321,-1.6389,17.5118,-17.0954,-8.2073,-4.3489,-5.6114,-3.1765,2153,2019-08-07 16:45:17:706
-8.6795,20.4321,-1.6389,17.5118,-17.0954,-8.2073,-4.9114,-0.2158,-3.3353,2158,2019-08-07 16:45:17:711
7.5152,15.9303,34.2521,-10.3329,-7.0195,-31.2699,-4.9114,-0.2158,-3.3353,2163,2019-08-07 16:45:17:716
7.5152,15.9303,34.2521,-10.3329,-7.0195,-31.2699,-2.6189,-0.7133,-4.3153,2168,2019-08-07 16:45:17:721
7.5152,15.9303,34.2521,-10.3329,-7.0195,-31.2699,-2.6189,-0.7133,-4.3153,2173,2019-08-07 16:45:17:726
-3.3355,11.9203,6.0635,-10.3329,-7.0195,-31.2699,-2.6306,1.3342,-4.375,2178,2019-08-07 16:45:17:731
-3.3355,11.9203,6.0635,0.8226,-4.5731,1.2485,-2.6306,1.3342,-4.375,2183,2019-08-07 16:45:17:736
-4.278,13.9635,0.916,0.8226,-4.5731,1.2485,-2.6306,1.3342,-4.375,2188,2019-08-07 16:45:17:741
-4.278,13.9635,0.916,0.8226,-4.5731,1.2485,-3.7406,3.3113,-4.8394,2193,2019-08-07 16:45:17:746
-4.278,13.9635,0.916,0.8226,-4.5731,1.2485,-3.7406,3.3113,-4.8394,2197,2019-08-07 16:45:17:750
-7.3925,13.5243,3.8339,2.836,-5.735,0.0132,-4.4916,4.1592,-5.7065,2204,2019-08-07 16:45:17:757
-7.3925,13.5243,3.8339,2.836,-5.735,0.0132,-4.4916,4.1592,-5.7065,2208,2019-08-07 16:45:17:761
-12.3155,11.7962,5.9833,2.836,-5.735,0.0132,-4.8272,4.6333,-6.3446,2212,2019-08-07 16:45:17:765
-12.3155,11.7962,5.9833,7.5377,-3.7378,-3.3262,-4.8272,4.6333,-6.3446,2219,2019-08-07 16:45:17:772
-12.3155,11.7962,5.9833,7.5377,-3.7378,-3.3262,-4.5151,5.02,-6.7622,2222,2019-08-07 16:45:17:775
-13.4685,8.8651,7.2985,7.5377,-3.7378,-3.3262,-4.5151,5.02,-6.7622,2228,2019-08-07 16:45:17:781
-13.4685,8.8651,7.2985,7.5377,-3.7378,-3.3262,-4.5151,5.02,-6.7622,2233,2019-08-07 16:45:17:786
-13.4685,8.8651,7.2985,7.5377,-3.7378,-3.3262,-3.9047,4.955,-7.1255,2238,2019-08-07 16:45:17:791
-13.4685,8.8651,7.2985,6.7289,-1.224,-1.3688,-3.9047,4.955,-7.1255,2243,2019-08-07 16:45:17:796
-14.1,6.4973,4.9982,6.7289,-1.224,-1.3688,-3.4349,4.6077,-7.5249,2248,2019-08-07 16:45:17:801
-14.1,6.4973,4.9982,6.7289,-1.224,-1.3688,-3.4349,4.6077,-7.5249,2254,2019-08-07 16:45:17:807
-15.1239,5.5425,3.7537,6.7289,-1.224,-1.3688,-3.2506,3.4647,-7.738,2258,2019-08-07 16:45:17:811
-15.1239,5.5425,3.7537,6.7779,-1.4289,-0.1102,-3.2506,3.4647,-7.738,2262,2019-08-07 16:45:17:815
-15.1239,5.5425,3.7537,6.7779,-1.4289,-0.1102,-3.3348,2.1022,-7.5505,2267,2019-08-07 16:45:17:820
-13.3154,5.046,3.947,6.7779,-1.4289,-0.1102,-3.3348,2.1022,-7.5505,2273,2019-08-07 16:45:17:826
-13.3154,5.046,3.947,6.7779,-1.4289,-0.1102,-3.3689,0.7461,-7.2,2278,2019-08-07 16:45:17:831
-9.3493,4.5018,4.1685,1.381,-2.1237,-0.7915,-3.3689,0.7461,-7.2,2283,2019-08-07 16:45:17:836
-9.3493,4.5018,4.1685,1.381,-2.1237,-0.7915,-3.028,-0.2414,-6.8538,2288,2019-08-07 16:45:17:841
-9.3493,4.5018,4.1685,1.381,-2.1237,-0.7915,-3.028,-0.2414,-6.8538,2293,2019-08-07 16:45:17:846
-5.5506,4.0531,2.9948,1.381,-2.1237,-0.7915,-2.4485,-0.2488,-6.7207,2298,2019-08-07 16:45:17:851
-5.5506,4.0531,2.9948,-4.4854,-2.8319,1.6216,-2.4485,-0.2488,-6.7207,2303,2019-08-07 16:45:17:856
-5.5506,4.0531,2.9948,-4.4854,-2.8319,1.6216,-2.4485,-0.2488,-6.7207,2308,2019-08-07 16:45:17:861
-2.8667,3.6998,-0.5076,-4.4854,-2.8319,1.6216,-2.2226,-0.3596,-6.5332,2313,2019-08-07 16:45:17:866
-2.8667,3.6998,-0.5076,-4.4854,-2.8319,1.6216,-2.2226,-0.3596,-6.5332,2319,2019-08-07 16:45:17:872
-1.1013,3.0601,-1.2382,-7.7542,-3.4656,5.0931,-2.2642,0.0026,-6.4746,2323,2019-08-07 16:45:17:876
-1.1013,3.0601,-1.2382,-7.7542,-3.4656,5.0931,-2.2642,0.0026,-6.4746,2328,2019-08-07 16:45:17:881
-1.1013,3.0601,-1.2382,-8.1289,-3.451,4.2805,-2.2301,0.5171,-6.4735,2333,2019-08-07 16:45:17:886
-1.1157,2.0433,-0.253,-8.1289,-3.451,4.2805,-2.2301,0.5171,-6.4735,2338,2019-08-07 16:45:17:891
-1.1157,2.0433,-0.253,-8.1289,-3.451,4.2805,-2.2301,0.5171,-6.4735,2343,2019-08-07 16:45:17:896
-1.1157,2.0433,-0.253,-8.1289,-3.451,4.2805,-1.9915,1.135,-6.3649,2347,2019-08-07 16:45:17:900
-1.4601,0.8164,0.0581,-7.4708,-2.6932,3.3824,-1.9915,1.135,-6.3649,2353,2019-08-07 16:45:17:906
-1.4601,0.8164,0.0581,-7.4708,-2.6932,3.3824,-1.706,1.6495,-6.1167,2358,2019-08-07 16:45:17:911
-1.307,-0.1335,-0.3002,-7.4708,-2.6932,3.3824,-1.706,1.6495,-6.1167,2363,2019-08-07 16:45:17:916
-1.307,-0.1335,-0.3002,-7.4708,-2.6932,3.3824,-1.5036,2.0692,-5.9004,2368,2019-08-07 16:45:17:921
-1.307,-0.1335,-0.3002,-8.0778,-2.4183,3.4493,-1.5036,2.0692,-5.9004,2372,2019-08-07 16:45:17:925
-0.4794,-1.1695,-0.4557,-8.0778,-2.4183,3.4493,-1.2841,2.5123,-5.7129,2378,2019-08-07 16:45:17:931
-0.4794,-1.1695,-0.4557,-8.0778,-2.4183,3.4493,-1.2841,2.5123,-5.7129,2384,2019-08-07 16:45:17:937
-0.4794,-1.1695,-0.4557,-8.0778,-2.4183,3.4493,-1.0114,2.8287,-5.5095,2387,2019-08-07 16:45:17:940
-0.6133,-1.7041,-0.0928,-7.6685,-2.6956,2.6423,-1.0114,2.8287,-5.5095,2393,2019-08-07 16:45:17:946
-0.6133,-1.7041,-0.0928,-7.6685,-2.6956,2.6423,-0.7409,3.0727,-5.2261,2398,2019-08-07 16:45:17:951
-1.4697,-1.7901,-0.0221,-6.7538,-3.1312,2.1175,-0.7409,3.0727,-5.2261,2403,2019-08-07 16:45:17:956
-1.4697,-1.7901,-0.0221,-6.7538,-3.1312,2.1175,-0.5203,3.2314,-4.8607,2408,2019-08-07 16:45:17:961
-1.4697,-1.7901,-0.0221,-6.7538,-3.1312,2.1175,-0.5203,3.2314,-4.8607,2413,2019-08-07 16:45:17:966
-3.2399,-1.4273,1.147,-6.7538,-3.1312,2.1175,-0.3808,3.1195,-4.4122,2419,2019-08-07 16:45:17:972
-3.2399,-1.4273,1.147,-4.0793,-4.4161,0.0918,-0.3808,3.1195,-4.4122,2423,2019-08-07 16:45:17:976
-3.2399,-1.4273,1.147,-4.0793,-4.4161,0.0918,-0.3808,3.1195,-4.4122,2428,2019-08-07 16:45:17:981
-4.5603,-1.1026,1.7833,-4.0793,-4.4161,0.0918,-0.3307,2.4836,-3.7965,2433,2019-08-07 16:45:17:986
-4.5603,-1.1026,1.7833,-2.9132,-4.9078,-0.6077,-0.3307,2.4836,-3.7965,2438,2019-08-07 16:45:17:991
-4.5603,-1.1026,1.7833,-2.9132,-4.9078,-0.6077,-0.3307,2.4836,-3.7965,2443,2019-08-07 16:45:17:996
-4.9335,-1.2363,1.6466,-2.9132,-4.9078,-0.6077,-0.3946,1.6218,-3.1936,2448,2019-08-07 16:45:18:001
-4.9335,-1.2363,1.6466,-2.9132,-4.9078,-0.6077,-0.3946,1.6218,-3.1936,2453,2019-08-07 16:45:18:006
-4.0006,-2.1672,0.8641,-2.7984,-4.6746,-0.082,-0.5374,0.8154,-2.5896,2458,2019-08-07 16:45:18:011
-4.0006,-2.1672,0.8641,-2.7984,-4.6746,-0.082,-0.5374,0.8154,-2.5896,2463,2019-08-07 16:45:18:016
-4.0006,-2.1672,0.8641,-2.7984,-4.6746,-0.082,-0.6056,0.5118,-2.2572,2468,2019-08-07 16:45:18:021
-3.0581,-3.332,0.289,-4.0615,-3.2515,0.6897,-0.6056,0.5118,-2.2572,2472,2019-08-07 16:45:18:025
-3.0581,-3.332,0.289,-4.0615,-3.2515,0.6897,-0.6056,0.5118,-2.2572,2478,2019-08-07 16:45:18:031
-2.5558,-4.3202,0.0392,-4.0615,-3.2515,0.6897,-0.6066,0.4479,-1.8695,2483,2019-08-07 16:45:18:036
-2.5558,-4.3202,0.0392,-4.0615,-3.2515,0.6897,-0.6066,0.4479,-1.8695,2488,2019-08-07 16:45:18:041
-2.5558,-4.3202,0.0392,-4.0615,-3.2515,0.6897,-0.5267,0.5693,-1.5691,2492,2019-08-07 16:45:18:045
-3.0964,-4.3536,0.1523,-3.85,-2.6965,0.5633,-0.5267,0.5693,-1.5691,2498,2019-08-07 16:45:18:051
-3.0964,-4.3536,0.1523,-3.85,-2.6965,0.5633,-0.401,0.7557,-1.144,2503,2019-08-07 16:45:18:056
-3.0964,-4.3536,0.1523,-3.85,-2.6965,0.5633,-0.401,0.7557,-1.144,2508,2019-08-07 16:45:18:061
-4.3116,-4.0433,0.3315,-1.8783,-3.3279,-0.0565,-0.3169,0.761,-0.7818,2513,2019-08-07 16:45:18:066
-4.3116,-4.0433,0.3315,-1.8783,-3.3279,-0.0565,-0.3169,0.761,-0.7818,2518,2019-08-07 16:45:18:071
-4.3116,-4.0433,0.3315,-1.8783,-3.3279,-0.0565,-0.3169,0.761,-0.7818,2522,2019-08-07 16:45:18:075
-5.168,-4.1626,0.718,-1.8783,-3.3279,-0.0565,-0.2562,0.6151,-0.4782,2528,2019-08-07 16:45:18:081
-5.168,-4.1626,0.718,-1.074,-2.68,-0.2784,-0.2125,0.4425,-0.246,2533,2019-08-07 16:45:18:086
-5.3929,-4.8262,0.6426,-1.074,-2.68,-0.2784,-0.2125,0.4425,-0.246,2538,2019-08-07 16:45:18:091
-5.3929,-4.8262,0.6426,-1.074,-2.68,-0.2784,-0.2125,0.4425,-0.246,2543,2019-08-07 16:45:18:096
-5.2876,-5.5852,0.7698,-1.074,-2.68,-0.2784,-0.156,0.3541,-0.0724,2547,2019-08-07 16:45:18:100
-5.2876,-5.5852,0.7698,-1.074,-2.68,-0.2784,-0.156,0.3541,-0.0724,2552,2019-08-07 16:45:18:105
-5.2876,-5.5852,0.7698,-1.0835,-1.2359,-0.4557,-0.0879,0.3712,0.048,2558,2019-08-07 16:45:18:111
-5.4551,-6.4732,0.7321,-1.0835,-1.2359,-0.4557,-0.0879,0.3712,0.048,2563,2019-08-07 16:45:18:116
-5.4551,-6.4732,0.7321,-1.0835,-1.2359,-0.4557,-0.0484,0.4969,0.0896,2569,2019-08-07 16:45:18:122
-5.4551,-6.4732,0.7321,-1.0835,-1.2359,-0.4557,-0.0484,0.4969,0.0896,2573,2019-08-07 16:45:18:126
-5.9861,-6.836,0.8688,-0.5027,-0.5164,-0.596,-0.0484,0.4969,0.0896,2578,2019-08-07 16:45:18:131
-5.9861,-6.836,0.8688,-0.5027,-0.5164,-0.596,-0.0303,0.6204,0.1183,2583,2019-08-07 16:45:18:136
-6.809,-6.984,1.1988,-0.5027,-0.5164,-0.596,-0.0303,0.6204,0.1183,2588,2019-08-07 16:45:18:141
-6.809,-6.984,1.1988,-0.5027,-0.5164,-0.596,-0.0069,0.5895,0.1599,2592,2019-08-07 16:45:18:145
-6.809,-6.984,1.1988,0.7449,-0.1672,-1.3351,-0.0069,0.5895,0.1599,2598,2019-08-07 16:45:18:151
-7.6654,-7.1845,1.6796,0.7449,-0.1672,-1.3351,0.0102,0.4329,0.2046,2603,2019-08-07 16:45:18:156
-7.6654,-7.1845,1.6796,0.7449,-0.1672,-1.3351,0.0102,0.4329,0.2046,2608,2019-08-07 16:45:18:161
-7.6654,-7.1845,1.6796,0.7449,-0.1672,-1.3351,0.0038,0.0835,0.2462,2613,2019-08-07 16:45:18:166
-8.3591,-7.3563,2.2028,1.8296,0.0919,-2.115,0.0038,0.0835,0.2462,2618,2019-08-07 16:45:18:171
-8.3591,-7.3563,2.2028,1.8296,0.0919,-2.115,-0.0143,-0.3628,0.2994,2623,2019-08-07 16:45:18:176
-8.0721,-7.342,2.1133,1.4946,0.0665,-1.914,-0.0143,-0.3628,0.2994,2628,2019-08-07 16:45:18:181
-8.0721,-7.342,2.1133,1.4946,0.0665,-1.914,-0.041,-0.7527,0.3399,2633,2019-08-07 16:45:18:186
-8.0721,-7.342,2.1133,1.4946,0.0665,-1.914,-0.041,-0.7527,0.3399,2638,2019-08-07 16:45:18:191
-6.7373,-7.3802,0.8358,1.4946,0.0665,-1.914,-0.0708,-0.9625,0.3623,2643,2019-08-07 16:45:18:196
-6.7373,-7.3802,0.8358,-0.4195,0.3291,-0.2065,-0.0708,-0.9625,0.3623,2647,2019-08-07 16:45:18:200
-5.6895,-7.7621,0.0439,-0.4195,0.3291,-0.2065,-0.0804,-0.8965,0.3495,2653,2019-08-07 16:45:18:206
-5.6895,-7.7621,0.0439,-0.4195,0.3291,-0.2065,-0.0804,-0.8965,0.3495,2658,2019-08-07 16:45:18:211
-5.6895,-7.7621,0.0439,-0.4195,0.3291,-0.2065,-0.0463,-0.6291,0.3133,2663,2019-08-07 16:45:18:216
-5.1585,-8.0724,-0.5453,-1.503,0.8821,0.9462,-0.0463,-0.6291,0.3133,2668,2019-08-07 16:45:18:221
-5.1585,-8.0724,-0.5453,-1.503,0.8821,0.9462,0.0048,-0.3255,0.2643,2672,2019-08-07 16:45:18:225
-5.1585,-8.0724,-0.5453,-1.503,0.8821,0.9462,0.0048,-0.3255,0.2643,2678,2019-08-07 16:45:18:231
-5.5269,-8.0151,-0.5642,-1.503,0.8821,0.9462,0.0922,0.1837,0.1705,2684,2019-08-07 16:45:18:237
-5.5269,-8.0151,-0.5642,-0.7748,0.6653,0.7482,0.0922,0.1837,0.1705,2688,2019-08-07 16:45:18:241
-5.5269,-8.0151,-0.5642,-0.7748,0.6653,0.7482,0.0922,0.1837,0.1705,2692,2019-08-07 16:45:18:245
-6.455,-7.4757,-0.1117,-0.7748,0.6653,0.7482,0.138,0.5065,0.0714,2698,2019-08-07 16:45:18:251
-6.455,-7.4757,-0.1117,-0.7748,0.6653,0.7482,0.138,0.5065,0.0714,2703,2019-08-07 16:45:18:256
-7.2396,-7.1558,0.3362,0.5425,-0.0035,0.0235,0.1369,0.5682,0.0033,2708,2019-08-07 16:45:18:261
-7.2396,-7.1558,0.3362,0.5425,-0.0035,0.0235,0.1369,0.5682,0.0033,2713,2019-08-07 16:45:18:266
-7.2396,-7.1558,0.3362,0.5425,-0.0035,0.0235,0.1231,0.417,-0.0308,2718,2019-08-07 16:45:18:271
-7.8903,-7.0222,1.0055,0.5425,-0.0035,0.0235,0.1231,0.417,-0.0308,2723,2019-08-07 16:45:18:276
-7.8903,-7.0222,1.0055,1.3519,-0.2496,-1.0433,0.1114,0.1198,-0.0351,2729,2019-08-07 16:45:18:282
-7.9956,-6.8742,1.4392,1.3519,-0.2496,-1.0433,0.1114,0.1198,-0.0351,2733,2019-08-07 16:45:18:286
-7.9956,-6.8742,1.4392,1.3519,-0.2496,-1.0433,0.1114,0.1198,-0.0351,2737,2019-08-07 16:45:18:290
-7.9956,-6.8742,1.4392,1.3519,-0.2496,-1.0433,0.0677,-0.3255,-0.0127,2743,2019-08-07 16:45:18:296
-7.5363,-6.7835,1.1234,0.6525,-0.3994,-0.6169,0.0677,-0.3255,-0.0127,2748,2019-08-07 16:45:18:301
-7.5363,-6.7835,1.1234,0.6525,-0.3994,-0.6169,0.0208,-0.6185,0.0118,2752,2019-08-07 16:45:18:305
-7.5363,-6.7835,1.1234,0.6525,-0.3994,-0.6169,0.0208,-0.6185,0.0118,2758,2019-08-07 16:45:18:311
-6.3594,-6.8694,0.7415,0.6525,-0.3994,-0.6169,-0.0016,-0.7846,0.032,2763,2019-08-07 16:45:18:316
-6.3594,-6.8694,0.7415,-0.9187,-0.2004,0.0072,-0.0016,-0.7846,0.032,2769,2019-08-07 16:45:18:322
-5.3355,-7.0031,0.1287,-0.9187,-0.2004,0.0072,-0.0016,-0.741,0.0427,2772,2019-08-07 16:45:18:325
-5.3355,-7.0031,0.1287,-0.9187,-0.2004,0.0072,-0.0016,-0.741,0.0427,2778,2019-08-07 16:45:18:331
-5.3355,-7.0031,0.1287,-1.6229,-0.0717,0.674,0.0048,-0.5055,0.0288,2784,2019-08-07 16:45:18:337
-4.7854,-7.0747,-0.3945,-1.6229,-0.0717,0.674,0.0048,-0.5055,0.0288,2787,2019-08-07 16:45:18:340
-4.7854,-7.0747,-0.3945,-1.6229,-0.0717,0.674,0.0048,-0.5055,0.0288,2793,2019-08-07 16:45:18:346
-4.8906,-7.1463,-0.2342,-1.7954,-0.0101,0.7991,0.0293,-0.1604,0.0161,2797,2019-08-07 16:45:18:350
-4.8906,-7.1463,-0.2342,-1.7954,-0.0101,0.7991,0.0293,-0.1604,0.0161,2804,2019-08-07 16:45:18:357
-4.8906,-7.1463,-0.2342,-1.7954,-0.0101,0.7991,0.0751,0.2657,-0.0202,2807,2019-08-07 16:45:18:360
-5.7518,-7.0794,-0.1965,-1.7954,-0.0101,0.7991,0.0751,0.2657,-0.0202,2813,2019-08-07 16:45:18:366
-5.7518,-7.0794,-0.1965,-0.5568,-0.222,0.5904,0.0879,0.5065,-0.0372,2818,2019-08-07 16:45:18:371
-6.4168,-6.8264,0.2042,-0.5568,-0.222,0.5904,0.0879,0.5065,-0.0372,2823,2019-08-07 16:45:18:376
-6.4168,-6.8264,0.2042,-0.5568,-0.222,0.5904,0.073,0.5789,-0.0553,2827,2019-08-07 16:45:18:380
-6.4168,-6.8264,0.2042,-0.5568,-0.222,0.5904,0.073,0.5789,-0.0553,2834,2019-08-07 16:45:18:387
-6.9813,-6.7405,0.553,0.5485,-0.4654,-0.1264,0.0602,0.5001,-0.0681,2838,2019-08-07 16:45:18:391
-6.9813,-6.7405,0.553,0.5485,-0.4654,-0.1264,0.0602,0.5001,-0.0681,2843,2019-08-07 16:45:18:396
-6.9813,-6.7405,0.553,0.5485,-0.4654,-0.1264,0.0602,0.5001,-0.0681,2848,2019-08-07 16:45:18:401
-7.5602,-6.7357,0.7274,0.8791,-0.4341,-0.2887,0.0325,0.3328,-0.0681,2853,2019-08-07 16:45:18:406
-7.5602,-6.7357,0.7274,0.8791,-0.4341,-0.2887,0.0325,0.3328,-0.0681,2858,2019-08-07 16:45:18:411
-7.5602,-6.7357,0.7274,0.8791,-0.4341,-0.2887,6.0E-4,0.0271,-0.0638,2863,2019-08-07 16:45:18:416
-7.6081,-6.7739,0.8405,0.8791,-0.4341,-0.2887,6.0E-4,0.0271,-0.0638,2868,2019-08-07 16:45:18:421
-7.6081,-6.7739,0.8405,0.7579,-0.3805,-0.3242,6.0E-4,0.0271,-0.0638,2873,2019-08-07 16:45:18:426
-7.0723,-6.8694,0.6095,0.7579,-0.3805,-0.3242,-0.0314,-0.2456,-0.0713,2878,2019-08-07 16:45:18:431
-7.0723,-6.8694,0.6095,0.7579,-0.3805,-0.3242,-0.0314,-0.2456,-0.0713,2883,2019-08-07 16:45:18:436
-7.0723,-6.8694,0.6095,0.7579,-0.3805,-0.3242,-0.0548,-0.3649,-0.0756,2888,2019-08-07 16:45:18:441
-6.2159,-6.9314,0.3361,-0.3456,-0.217,0.0537,-0.0548,-0.3649,-0.0756,2893,2019-08-07 16:45:18:446
-6.2159,-6.9314,0.3361,-0.3456,-0.217,0.0537,-0.058,-0.3671,-0.0809,2897,2019-08-07 16:45:18:450
-5.7805,-7.0842,0.0957,-0.3456,-0.217,0.0537,-0.058,-0.3671,-0.0809,2903,2019-08-07 16:45:18:456
-5.7805,-7.0842,0.0957,-0.3456,-0.217,0.0537,-0.0495,-0.268,-0.0937,2908,2019-08-07 16:45:18:461
-5.7805,-7.0842,0.0957,-0.8773,-0.1364,0.4642,-0.0495,-0.268,-0.0937,2913,2019-08-07 16:45:18:466
-5.7614,-7.0651,-0.0457,-0.8773,-0.1364,0.4642,-0.0325,-0.0965,-0.0926,2918,2019-08-07 16:45:18:471
-5.7614,-7.0651,-0.0457,-0.8773,-0.1364,0.4642,-0.0325,-0.0965,-0.0926,2922,2019-08-07 16:45:18:475
-5.7614,-7.0651,-0.0457,-0.8773,-0.1364,0.4642,-0.0144,0.0324,-0.0883,2928,2019-08-07 16:45:18:481
-5.87,-7.0318,-0.003,-0.7606,-0.181,0.4995,-0.0144,0.0324,-0.0883,2933,2019-08-07 16:45:18:486
-5.87,-7.0318,-0.003,-0.7606,-0.181,0.4995,-0.0144,0.0324,-0.0883,2938,2019-08-07 16:45:18:491
-5.87,-7.0318,-0.003,-0.7606,-0.181,0.4995,0.008,0.1464,-0.0809,2942,2019-08-07 16:45:18:495
-6.2145,-6.9125,0.2233,-0.7606,-0.181,0.4995,0.008,0.1464,-0.0809,2948,2019-08-07 16:45:18:501
-6.2145,-6.9125,0.2233,-0.2181,-0.3216,0.1272,0.0112,0.1698,-0.0681,2953,2019-08-07 16:45:18:506
-6.602,-6.8982,0.3789,-0.2181,-0.3216,0.1272,0.0112,0.1698,-0.0681,2958,2019-08-07 16:45:18:511
-6.602,-6.8982,0.3789,-0.2181,-0.3216,0.1272,0.0155,0.1464,-0.0542,2962,2019-08-07 16:45:18:515
-6.602,-6.8982,0.3789,-0.2181,-0.3216,0.1272,0.0155,0.1464,-0.0542,2968,2019-08-07 16:45:18:521
-6.8603,-6.8838,0.4307,0.2464,-0.3467,0.0294,0.0165,0.0612,-0.0436,2972,2019-08-07 16:45:18:525
-6.8603,-6.8838,0.4307,0.2464,-0.3467,0.0294,0.0165,0.0612,-0.0436,2978,2019-08-07 16:45:18:531
-6.8412,-6.8743,0.4779,0.2464,-0.3467,0.0294,0.0197,-0.0198,-0.0308,2984,2019-08-07 16:45:18:537
-6.8412,-6.8743,0.4779,0.2464,-0.3467,0.0294,0.0197,-0.0198,-0.0308,2988,2019-08-07 16:45:18:541
-6.8412,-6.8743,0.4779,0.1582,-0.2679,0.017,0.0197,-0.0198,-0.0308,2993,2019-08-07 16:45:18:546
-6.6498,-6.9984,0.36,0.1582,-0.2679,0.017,0.0229,-0.0912,-0.0287,2997,2019-08-07 16:45:18:550
-6.6498,-6.9984,0.36,0.1582,-0.2679,0.017,0.0229,-0.0912,-0.0287,3003,2019-08-07 16:45:18:556
-6.6498,-6.9984,0.36,0.1582,-0.2679,0.017,0.0208,-0.1412,-0.0255,3008,2019-08-07 16:45:18:561
-6.3723,-7.0939,0.3647,-0.2342,-0.1421,0.1156,0.0208,-0.1412,-0.0255,3012,2019-08-07 16:45:18:565
-6.3723,-7.0939,0.3647,-0.2342,-0.1421,0.1156,0.0208,-0.1412,-0.0255,3018,2019-08-07 16:45:18:571
-6.3723,-7.0939,0.3647,-0.2342,-0.1421,0.1156,0.0251,-0.138,-0.0297,3023,2019-08-07 16:45:18:576
-6.2192,-7.07,0.3506,-0.2342,-0.1421,0.1156,0.0251,-0.138,-0.0297,3029,2019-08-07 16:45:18:582
-6.2192,-7.07,0.3506,-0.3856,-0.1992,0.1167,0.0623,-0.0603,-0.0255,3033,2019-08-07 16:45:18:586
-6.2479,-6.965,0.393,-0.3856,-0.1992,0.1167,0.0623,-0.0603,-0.0255,3038,2019-08-07 16:45:18:591
-6.2479,-6.965,0.393,-0.3856,-0.1992,0.1167,0.0623,-0.0603,-0.0255,3042,2019-08-07 16:45:18:595
-6.2479,-6.965,0.393,-0.3856,-0.1992,0.1167,0.0666,-0.0304,-0.0138,3048,2019-08-07 16:45:18:601
-6.2813,-6.9173,0.4496,-0.2769,-0.3588,0.0792,0.0666,-0.0304,-0.0138,3053,2019-08-07 16:45:18:606
-6.2813,-6.9173,0.4496,-0.2769,-0.3588,0.0792,0.0655,-0.0091,-0.0052,3058,2019-08-07 16:45:18:611
-6.4392,-6.8361,0.5439,-0.2769,-0.3588,0.0792,0.0655,-0.0091,-0.0052,3062,2019-08-07 16:45:18:615
-6.4392,-6.8361,0.5439,-0.2769,-0.3588,0.0792,0.0528,-0.0368,0.0139,3068,2019-08-07 16:45:18:621
-6.5971,-6.8552,0.6806,-0.0294,-0.4094,-0.1347,0.0528,-0.0368,0.0139,3073,2019-08-07 16:45:18:626
-6.5971,-6.8552,0.6806,-0.0294,-0.4094,-0.1347,0.0432,-0.0837,0.0214,3078,2019-08-07 16:45:18:631
-6.5971,-6.8552,0.6806,-0.0294,-0.4094,-0.1347,0.0432,-0.0837,0.0214,3083,2019-08-07 16:45:18:636
-6.5875,-6.9125,0.6052,-0.0294,-0.4094,-0.1347,0.0261,-0.1327,0.0235,3087,2019-08-07 16:45:18:640
-6.5875,-6.9125,0.6052,0.0102,-0.3141,0.0406,0.0261,-0.1327,0.0235,3093,2019-08-07 16:45:18:646
-6.5875,-6.9125,0.6052,0.0102,-0.3141,0.0406,0.0112,-0.1593,0.0171,3098,2019-08-07 16:45:18:651
-6.4535,-6.965,0.4732,0.0102,-0.3141,0.0406,0.0112,-0.1593,0.0171,3103,2019-08-07 16:45:18:656
-6.4535,-6.965,0.4732,0.0102,-0.3141,0.0406,0.0112,-0.1593,0.0171,3108,2019-08-07 16:45:18:661
-6.3196,-7.0939,0.459,-0.2822,-0.14,0.1103,0.0155,-0.1561,0.0022,3113,2019-08-07 16:45:18:666
-6.3196,-7.0939,0.459,-0.2822,-0.14,0.1103,0.0155,-0.1561,0.0022,3117,2019-08-07 16:45:18:670
-6.3196,-7.0939,0.459,-0.2822,-0.14,0.1103,0.024,-0.0869,-0.0223,3123,2019-08-07 16:45:18:676
-6.109,-7.1846,0.2988,-0.2822,-0.14,0.1103,0.024,-0.0869,-0.0223,3128,2019-08-07 16:45:18:681
-6.109,-7.1846,0.2988,-0.4535,-0.1297,0.3601,0.041,-0.0017,-0.0468,3133,2019-08-07 16:45:18:686
-6.1473,-7.113,0.3695,-0.4535,-0.1297,0.3601,0.041,-0.0017,-0.0468,3138,2019-08-07 16:45:18:691
-6.1473,-7.113,0.3695,-0.4535,-0.1297,0.3601,0.0528,0.0878,-0.0511,3143,2019-08-07 16:45:18:696
-6.1473,-7.113,0.3695,-0.4535,-0.1297,0.3601,0.0528,0.0878,-0.0511,3148,2019-08-07 16:45:18:701
-6.2095,-7.0557,0.4779,-0.2972,-0.1802,0.0976,0.0528,0.0878,-0.0511,3153,2019-08-07 16:45:18:706
-6.2095,-7.0557,0.4779,-0.2972,-0.1802,0.0976,0.0655,0.1411,-0.0532,3158,2019-08-07 16:45:18:711
-6.2095,-7.0557,0.4779,-0.2972,-0.1802,0.0976,0.0655,0.1411,-0.0532,3162,2019-08-07 16:45:18:715
-6.3626,-6.9841,0.5722,-0.2223,-0.2647,0.0033,0.0666,0.1464,-0.05,3168,2019-08-07 16:45:18:721
-6.3626,-6.9841,0.5722,-0.2223,-0.2647,0.0033,0.0666,0.1464,-0.05,3173,2019-08-07 16:45:18:726
-6.5348,-6.8982,0.6995,-0.2223,-0.2647,0.0033,0.0613,0.091,-0.0308,3178,2019-08-07 16:45:18:731
-6.5348,-6.8982,0.6995,0.0583,-0.4015,-0.199,0.0613,0.091,-0.0308,3183,2019-08-07 16:45:18:736
-6.5348,-6.8982,0.6995,0.0583,-0.4015,-0.199,0.0538,-0.0219,-0.0031,3188,2019-08-07 16:45:18:741
-6.6209,-6.8123,0.8267,0.0583,-0.4015,-0.199,0.0538,-0.0219,-0.0031,3193,2019-08-07 16:45:18:746
-6.6209,-6.8123,0.8267,0.0583,-0.4015,-0.199,0.0538,-0.0219,-0.0031,3198,2019-08-07 16:45:18:751
-6.6113,-6.7979,0.8173,0.0281,-0.4512,-0.2288,0.0389,-0.1295,0.0129,3203,2019-08-07 16:45:18:756
-6.6113,-6.7979,0.8173,0.0281,-0.4512,-0.2288,0.0389,-0.1295,0.0129,3207,2019-08-07 16:45:18:760
-6.6113,-6.7979,0.8173,0.0281,-0.4512,-0.2288,0.0155,-0.2382,0.0363,3213,2019-08-07 16:45:18:766
-6.329,-6.7979,0.657,0.0281,-0.4512,-0.2288,0.0155,-0.2382,0.0363,3218,2019-08-07 16:45:18:771
-6.329,-6.7979,0.657,-0.4061,-0.4738,0.0701,0.0059,-0.2755,0.0501,3223,2019-08-07 16:45:18:776
-6.329,-6.7979,0.657,-0.4061,-0.4738,0.0701,0.0059,-0.2755,0.0501,3228,2019-08-07 16:45:18:781
-6.1042,-6.8457,0.4685,-0.4061,-0.4738,0.0701,0.0059,-0.2531,0.0565,3233,2019-08-07 16:45:18:786
-6.1042,-6.8457,0.4685,-0.4061,-0.4738,0.0701,0.0059,-0.2531,0.0565,3238,2019-08-07 16:45:18:791
-6.1042,-6.8457,0.4685,-0.4061,-0.4738,0.0701,0.0059,-0.2531,0.0565,3242,2019-08-07 16:45:18:795
-5.9845,-6.8743,0.3176,-0.6016,-0.3669,0.3047,0.0101,-0.1689,0.048,3249,2019-08-07 16:45:18:802
-5.9845,-6.8743,0.3176,-0.6016,-0.3669,0.3047,0.0101,-0.1689,0.048,3252,2019-08-07 16:45:18:805
-5.9845,-6.8743,0.3176,-0.6016,-0.3669,0.3047,0.0165,-0.0571,0.047,3258,2019-08-07 16:45:18:811
-6.0276,-6.8743,0.3271,-0.6016,-0.3669,0.3047,0.0165,-0.0571,0.047,3263,2019-08-07 16:45:18:816
-6.0276,-6.8743,0.3271,-0.5443,-0.3948,0.2835,0.0229,0.0228,0.047,3268,2019-08-07 16:45:18:821
-6.1185,-6.8696,0.3978,-0.5443,-0.3948,0.2835,0.0229,0.0228,0.047,3272,2019-08-07 16:45:18:825
-6.1185,-6.8696,0.3978,-0.5443,-0.3948,0.2835,0.0251,0.0857,0.0438,3278,2019-08-07 16:45:18:831
-6.3146,-6.8457,0.4874,-0.2694,-0.3696,0.1738,0.0251,0.0857,0.0438,3284,2019-08-07 16:45:18:837
-6.3146,-6.8457,0.4874,-0.2694,-0.3696,0.1738,0.024,0.1102,0.047,3287,2019-08-07 16:45:18:840
-6.3146,-6.8457,0.4874,-0.2694,-0.3696,0.1738,0.024,0.1102,0.047,3293,2019-08-07 16:45:18:846
-6.5155,-6.8314,0.6806,-0.2694,-0.3696,0.1738,0.0261,0.0899,0.0544,3299,2019-08-07 16:45:18:852
-6.5155,-6.8314,0.6806,-0.2694,-0.3696,0.1738,0.0261,0.0899,0.0544,3303,2019-08-07 16:45:18:856
-6.5155,-6.8314,0.6806,-0.0546,-0.3707,-0.137,0.0261,0.0899,0.0544,3308,2019-08-07 16:45:18:861
-6.6016,-6.7884,0.6853,-0.0546,-0.3707,-0.137,0.0219,0.0239,0.064,3314,2019-08-07 16:45:18:867
-6.6016,-6.7884,0.6853,-0.0546,-0.3707,-0.137,0.0219,0.0239,0.064,3318,2019-08-07 16:45:18:871
-6.6016,-6.8266,0.6759,-0.0546,-0.3707,-0.137,0.0091,-0.0145,0.0608,3322,2019-08-07 16:45:18:875
-6.6016,-6.8266,0.6759,-0.0271,-0.356,-0.0981,0.0091,-0.0145,0.0608,3328,2019-08-07 16:45:18:881
-6.6016,-6.8266,0.6759,-0.0271,-0.356,-0.0981,0.0048,-0.0592,0.064,3333,2019-08-07 16:45:18:886
-6.5394,-6.8648,0.6853,-0.0271,-0.356,-0.0981,0.0048,-0.0592,0.064,3337,2019-08-07 16:45:18:890
-6.5394,-6.8648,0.6853,-0.0271,-0.356,-0.0981,0.0038,-0.0858,0.0608,3343,2019-08-07 16:45:18:896
-6.4342,-6.965,0.6288,-0.2322,-0.2704,0.0443,0.0038,-0.0858,0.0608,3348,2019-08-07 16:45:18:901
-6.4342,-6.965,0.6288,-0.2322,-0.2704,0.0443,0.0016,-0.0773,0.0427,3353,2019-08-07 16:45:18:906
-6.4342,-6.965,0.6288,-0.2322,-0.2704,0.0443,0.0016,-0.0773,0.0427,3358,2019-08-07 16:45:18:911
-6.3098,-6.9412,0.3931,-0.2322,-0.2704,0.0443,0.0038,-0.0411,0.0363,3363,2019-08-07 16:45:18:916
-6.3098,-6.9412,0.3931,-0.314,-0.2361,0.2228,0.0038,-0.0411,0.0363,3367,2019-08-07 16:45:18:920
-6.3098,-6.9412,0.3931,-0.314,-0.2361,0.2228,0.0038,-0.0411,0.0363,3373,2019-08-07 16:45:18:926
-6.2954,-6.9269,0.5439,-0.314,-0.2361,0.2228,0.0251,0.0292,0.0161,3378,2019-08-07 16:45:18:931
-6.2954,-6.9269,0.5439,-0.314,-0.2361,0.2228,0.0251,0.0292,0.0161,3383,2019-08-07 16:45:18:936
-6.2954,-6.9269,0.5439,-0.202,-0.3004,0.0483,0.0261,0.0622,0.0043,3388,2019-08-07 16:45:18:941
-6.4293,-6.86,0.7089,-0.202,-0.3004,0.0483,0.0261,0.0622,0.0043,3392,2019-08-07 16:45:18:945
-6.4293,-6.86,0.7089,-0.202,-0.3004,0.0483,0.0176,0.0697,0.0075,3398,2019-08-07 16:45:18:951
-6.4389,-6.8027,0.7513,-0.202,-0.3004,0.0483,0.0176,0.0697,0.0075,3403,2019-08-07 16:45:18:956
-6.4389,-6.8027,0.7513,-0.1902,-0.3559,-0.0703,0.0176,0.0697,0.0075,3408,2019-08-07 16:45:18:961
-6.4389,-6.8027,0.7513,-0.1902,-0.3559,-0.0703,0.0112,0.0569,0.0097,3413,2019-08-07 16:45:18:966
-6.5441,-6.8409,0.8739,-0.1902,-0.3559,-0.0703,0.0112,0.0569,0.0097,3418,2019-08-07 16:45:18:971
-6.5441,-6.8409,0.8739,-0.1902,-0.3559,-0.0703,0.0048,0.0058,0.0214,3422,2019-08-07 16:45:18:975
-6.5441,-6.8409,0.8739,-0.1221,-0.3191,-0.1463,0.0048,0.0058,0.0214,3428,2019-08-07 16:45:18:981
-6.4963,-6.8457,0.8221,-0.1221,-0.3191,-0.1463,-0.0058,-0.0507,0.0352,3433,2019-08-07 16:45:18:986
-6.4963,-6.8457,0.8221,-0.1221,-0.3191,-0.1463,-0.0058,-0.0507,0.0352,3438,2019-08-07 16:45:18:991
-6.4054,-6.8934,0.7702,-0.1221,-0.3191,-0.1463,-0.0165,-0.0816,0.0438,3443,2019-08-07 16:45:18:996
-6.4054,-6.8934,0.7702,-0.2852,-0.2896,-0.0623,-0.0165,-0.1008,0.047,3449,2019-08-07 16:45:19:002
-6.4054,-6.8934,0.7702,-0.2852,-0.2896,-0.0623,-0.0165,-0.1008,0.047,3453,2019-08-07 16:45:19:006
-6.3001,-6.9603,0.6759,-0.2852,-0.2896,-0.0623,-0.0165,-0.1008,0.047,3458,2019-08-07 16:45:19:011
-6.3001,-6.9603,0.6759,-0.2852,-0.2896,-0.0623,-0.0186,-0.0837,0.048,3463,2019-08-07 16:45:19:016
-6.2331,-6.9078,0.6005,-0.4238,-0.2653,0.0838,-0.0186,-0.0837,0.048,3468,2019-08-07 16:45:19:021
-6.2331,-6.9078,0.6005,-0.4238,-0.2653,0.0838,-0.0165,-0.0358,0.0406,3472,2019-08-07 16:45:19:025
-6.2331,-6.9078,0.6005,-0.4238,-0.2653,0.0838,-0.0165,-0.0358,0.0406,3478,2019-08-07 16:45:19:031
-6.3001,-6.8648,0.6571,-0.4238,-0.2653,0.0838,-0.0112,0.0079,0.0427,3483,2019-08-07 16:45:19:036
-6.3001,-6.8648,0.6571,-0.3766,-0.3177,0.0453,-0.0112,0.0079,0.0427,3488,2019-08-07 16:45:19:041
-6.3001,-6.8648,0.6571,-0.3766,-0.3177,0.0453,-0.0112,0.0079,0.0427,3492,2019-08-07 16:45:19:045
-6.3049,-6.903,0.6995,-0.3766,-0.3177,0.0453,-0.0026,0.0526,0.0267,3498,2019-08-07 16:45:19:051
-6.3049,-6.903,0.6995,-0.3766,-0.3177,0.0453,-0.0026,0.0526,0.0267,3502,2019-08-07 16:45:19:055
-6.5154,-6.8027,0.6571,-0.1516,-0.3618,0.0188,-0.0016,0.0569,0.0225,3508,2019-08-07 16:45:19:061
-6.5154,-6.8027,0.6571,-0.1516,-0.3618,0.0188,-0.0016,0.0569,0.0225,3512,2019-08-07 16:45:19:065
-6.5154,-6.8027,0.6571,-0.1516,-0.3618,0.0188,-0.0112,0.042,0.0225,3518,2019-08-07 16:45:19:071
-6.5106,-6.8791,0.6665,-0.1516,-0.3618,0.0188,-0.0112,0.042,0.0225,3522,2019-08-07 16:45:19:075
-6.5106,-6.8791,0.6665,-0.1225,-0.2961,-0.1134,-0.008,-0.0081,0.0225,3528,2019-08-07 16:45:19:081
-6.5058,-6.8791,0.8456,-0.1225,-0.2961,-0.1134,-0.008,-0.0081,0.0225,3533,2019-08-07 16:45:19:086
-6.5058,-6.8791,0.8456,-0.1225,-0.2961,-0.1134,-5.0E-4,-0.0635,0.0331,3538,2019-08-07 16:45:19:091
-6.5058,-6.8791,0.8456,-0.1225,-0.2961,-0.1134,-5.0E-4,-0.0635,0.0331,3542,2019-08-07 16:45:19:095
-6.3814,-6.8505,0.7184,-0.3799,-0.2871,0.0124,-0.008,-0.0731,0.0342,3548,2019-08-07 16:45:19:101
-6.3814,-6.8505,0.7184,-0.3799,-0.2871,0.0124,-0.008,-0.0731,0.0342,3553,2019-08-07 16:45:19:106
-6.3239,-6.8839,0.5911,-0.3799,-0.2871,0.0124,-0.008,-0.0731,0.0342,3558,2019-08-07 16:45:19:111
-6.3239,-6.8839,0.5911,-0.3799,-0.2871,0.0124,-0.0207,-0.0613,0.0374,3562,2019-08-07 16:45:19:115
-6.3239,-6.8839,0.5911,-0.3027,-0.2349,0.0474,-0.0207,-0.0613,0.0374,3568,2019-08-07 16:45:19:121
-6.3191,-6.9364,0.643,-0.3027,-0.2349,0.0474,-0.0122,-0.0667,0.0384,3573,2019-08-07 16:45:19:126
-6.3191,-6.9364,0.643,-0.3027,-0.2349,0.0474,-0.0122,-0.0667,0.0384,3577,2019-08-07 16:45:19:130
-6.2569,-7.0128,0.577,-0.3027,-0.2349,0.0474,-0.0122,-0.0464,0.0331,3583,2019-08-07 16:45:19:136
-6.2569,-7.0128,0.577,-0.3027,-0.2349,0.0474,-0.0122,-0.0464,0.0331,3588,2019-08-07 16:45:19:141
-6.2569,-7.0128,0.577,-0.4734,-0.1119,0.2085,-0.0133,-0.0017,0.0161,3594,2019-08-07 16:45:19:147
-6.2091,-6.9603,0.511,-0.4734,-0.1119,0.2085,-0.0133,-0.0017,0.0161,3598,2019-08-07 16:45:19:151
-6.2091,-6.9603,0.511,-0.4734,-0.1119,0.2085,-0.0133,-0.0017,0.0161,3603,2019-08-07 16:45:19:156
-6.2091,-6.9603,0.511,-0.4734,-0.1119,0.2085,-0.0058,0.0526,0.0043,3608,2019-08-07 16:45:19:161
-6.3622,-6.9889,0.5675,-0.3216,-0.159,0.1184,-0.0058,0.0526,0.0043,3613,2019-08-07 16:45:19:166
-6.3622,-6.9889,0.5675,-0.3216,-0.159,0.1184,-5.0E-4,0.0825,-0.0042,3617,2019-08-07 16:45:19:170
-6.4722,-6.9412,0.5723,-0.3216,-0.159,0.1184,-5.0E-4,0.0825,-0.0042,3623,2019-08-07 16:45:19:176
-6.4722,-6.9412,0.5723,-0.3216,-0.159,0.1184,-0.0026,0.0814,-0.017,3627,2019-08-07 16:45:19:180
-6.4722,-6.9412,0.5723,-0.111,-0.208,0.0307,-0.0026,0.0814,-0.017,3632,2019-08-07 16:45:19:185
-6.5535,-6.8744,0.61,-0.111,-0.208,0.0307,-0.0016,0.0484,-0.0212,3638,2019-08-07 16:45:19:191
-6.5535,-6.8744,0.61,-0.111,-0.208,0.0307,-0.0016,0.0484,-0.0212,3642,2019-08-07 16:45:19:195
-6.5248,-6.8791,0.6571,-0.111,-0.208,0.0307,-0.0037,0.01,-0.0202,3648,2019-08-07 16:45:19:201
-6.5248,-6.8791,0.6571,-0.1951,-0.2821,-0.0134,-0.0037,0.01,-0.0202,3652,2019-08-07 16:45:19:205
-6.5248,-6.8791,0.6571,-0.1951,-0.2821,-0.0134,-0.0037,0.01,-0.0202,3658,2019-08-07 16:45:19:211
-6.4052,-6.903,0.6901,-0.1951,-0.2821,-0.0134,-0.0026,-0.0486,-0.0148,3662,2019-08-07 16:45:19:215
-6.4052,-6.903,0.6901,-0.1951,-0.2821,-0.0134,-0.0026,-0.0486,-0.0148,3668,2019-08-07 16:45:19:221
-6.2903,-6.9078,0.5581,-0.3838,-0.2364,0.128,-0.008,-0.0486,-0.002,3672,2019-08-07 16:45:19:225
-6.2903,-6.9078,0.5581,-0.3838,-0.2364,0.128,-0.008,-0.0486,-0.002,3678,2019-08-07 16:45:19:231
-6.2903,-6.9078,0.5581,-0.3838,-0.2364,0.128,-0.0037,-0.04,0.0033,3683,2019-08-07 16:45:19:236
-6.3095,-6.8887,0.676,-0.3838,-0.2364,0.128,-0.0037,-0.04,0.0033,3688,2019-08-07 16:45:19:241
-6.3095,-6.8887,0.676,-0.3875,-0.2752,0.0341,-0.0037,-0.04,0.0033,3692,2019-08-07 16:45:19:245
-6.252,-6.8935,0.5864,-0.3875,-0.2752,0.0341,0.008,-0.0336,0.0161,3698,2019-08-07 16:45:19:251
-6.252,-6.8935,0.5864,-0.3875,-0.2752,0.0341,0.008,-0.0336,0.0161,3703,2019-08-07 16:45:19:256
-6.252,-6.8935,0.5864,-0.3875,-0.2752,0.0341,0.0155,-0.0059,0.015,3708,2019-08-07 16:45:19:261
-6.2999,-6.8219,0.61,-0.3792,-0.3309,0.0709,0.0155,-0.0059,0.015,3713,2019-08-07 16:45:19:266
-6.2999,-6.8219,0.61,-0.3792,-0.3309,0.0709,0.0155,0.0143,0.0129,3718,2019-08-07 16:45:19:271
-6.386,-6.8219,0.6241,-0.3792,-0.3309,0.0709,0.0155,0.0143,0.0129,3723,2019-08-07 16:45:19:276
-6.386,-6.8219,0.6241,-0.3792,-0.3309,0.0709,0.0155,0.0345,0.0203,3728,2019-08-07 16:45:19:281
-6.386,-6.8219,0.6241,-0.2911,-0.2855,-0.0148,0.0155,0.0345,0.0203,3732,2019-08-07 16:45:19:285
-6.4721,-6.8744,0.6901,-0.2911,-0.2855,-0.0148,0.0208,0.0431,0.0075,3738,2019-08-07 16:45:19:291
-6.4721,-6.8744,0.6901,-0.2911,-0.2855,-0.0148,0.0208,0.0431,0.0075,3742,2019-08-07 16:45:19:295
-6.6156,-6.7693,0.6713,-0.2911,-0.2855,-0.0148,0.0187,0.0356,0.0097,3748,2019-08-07 16:45:19:301
-6.6156,-6.7693,0.6713,-0.0877,-0.3169,0.011,0.0187,0.0356,0.0097,3753,2019-08-07 16:45:19:306
-6.6156,-6.7693,0.6713,-0.0877,-0.3169,0.011,0.0187,0.0356,0.0097,3758,2019-08-07 16:45:19:311
-6.5534,-6.8553,0.6477,-0.0877,-0.3169,0.011,0.0101,0.0196,0.0129,3763,2019-08-07 16:45:19:316
-6.5534,-6.8553,0.6477,-0.0877,-0.3169,0.011,0.0101,0.0196,0.0129,3768,2019-08-07 16:45:19:321
-6.5534,-6.8553,0.6477,-0.1288,-0.3478,-0.0835,0.0091,-0.0017,0.0129,3772,2019-08-07 16:45:19:325
-6.5103,-6.8171,0.7703,-0.1288,-0.3478,-0.0835,0.0091,-0.0017,0.0129,3777,2019-08-07 16:45:19:330
-6.5103,-6.8171,0.7703,-0.1288,-0.3478,-0.0835,0.0091,-0.0198,0.0193,3783,2019-08-07 16:45:19:336
-6.4625,-6.8553,0.6666,-0.1288,-0.3478,-0.0835,0.0091,-0.0198,0.0193,3787,2019-08-07 16:45:19:340
-6.4625,-6.8553,0.6666,-0.3082,-0.2927,0.0051,0.008,-0.0155,0.0193,3793,2019-08-07 16:45:19:346
-6.4625,-6.8553,0.6666,-0.3082,-0.2927,0.0051,0.008,-0.0155,0.0193,3798,2019-08-07 16:45:19:351
-6.3955,-6.8792,0.6996,-0.3082,-0.2927,0.0051,6.0E-4,-0.0209,0.0235,3803,2019-08-07 16:45:19:356
-6.3955,-6.8792,0.6996,-0.3082,-0.2927,0.0051,6.0E-4,-0.0209,0.0235,3808,2019-08-07 16:45:19:361
-6.3859,-6.9364,0.7467,-0.3061,-0.2039,-0.062,6.0E-4,-0.0209,0.0235,3813,2019-08-07 16:45:19:366
-6.3859,-6.9364,0.7467,-0.3061,-0.2039,-0.062,-0.0016,-0.0251,0.0267,3818,2019-08-07 16:45:19:371
-6.4242,-6.8696,0.6572,-0.3061,-0.2039,-0.062,-0.0016,-0.0251,0.0267,3823,2019-08-07 16:45:19:376
-6.4242,-6.8696,0.6572,-0.3061,-0.2039,-0.062,6.0E-4,-0.0219,0.0288,3828,2019-08-07 16:45:19:381
-6.4242,-6.8696,0.6572,-0.2475,-0.2623,0.0542,6.0E-4,-0.0219,0.0288,3833,2019-08-07 16:45:19:386
-6.4433,-6.8887,0.6619,-0.2475,-0.2623,0.0542,0.0027,-0.0134,0.0299,3838,2019-08-07 16:45:19:391
-6.4433,-6.8887,0.6619,-0.2475,-0.2623,0.0542,0.0027,-0.0134,0.0299,3843,2019-08-07 16:45:19:396
-6.4433,-6.8887,0.6619,-0.2475,-0.2623,0.0542,0.0016,-0.0049,0.0214,3848,2019-08-07 16:45:19:401
-6.4385,-6.946,0.6336,-0.2651,-0.1732,0.0935,0.0016,-0.0049,0.0214,3852,2019-08-07 16:45:19:405
-6.4385,-6.946,0.6336,-0.2651,-0.1732,0.0935,0.0016,-0.0049,0.0214,3858,2019-08-07 16:45:19:411
-6.5055,-6.9555,0.5817,-0.2651,-0.1732,0.0935,-0.0026,0.0271,0.0086,3863,2019-08-07 16:45:19:416
-6.5055,-6.9555,0.5817,-0.2651,-0.1732,0.0935,-0.0026,0.0271,0.0086,3868,2019-08-07 16:45:19:421
-6.5055,-6.9555,0.5817,-0.1088,-0.2104,0.0557,-5.0E-4,0.0431,1.0E-4,3872,2019-08-07 16:45:19:425
-6.5676,-6.9699,0.6383,-0.1088,-0.2104,0.0557,-5.0E-4,0.0431,1.0E-4,3878,2019-08-07 16:45:19:431
-6.5676,-6.9699,0.6383,-0.1088,-0.2104,0.0557,0.008,0.0441,-0.0116,3883,2019-08-07 16:45:19:436
-6.5676,-6.9699,0.6383,-0.1088,-0.2104,0.0557,0.008,0.0441,-0.0116,3887,2019-08-07 16:45:19:440
-6.5916,-6.9794,0.643,-0.1554,-0.1452,0.0133,0.0091,0.0303,-0.0276,3893,2019-08-07 16:45:19:446
-6.5916,-6.9794,0.643,-0.1554,-0.1452,0.0133,0.0091,0.0303,-0.0276,3898,2019-08-07 16:45:19:451
-6.558,-6.9364,0.6902,-0.1554,-0.1452,0.0133,0.0091,0.0303,-0.0276,3902,2019-08-07 16:45:19:455
-6.558,-6.9364,0.6902,-0.1554,-0.1452,0.0133,0.0091,0.0111,-0.0297,3908,2019-08-07 16:45:19:461
-6.558,-6.9364,0.6902,-0.1993,-0.1872,-0.0018,0.0091,0.0111,-0.0297,3912,2019-08-07 16:45:19:465
-6.5006,-6.989,0.6902,-0.1993,-0.1872,-0.0018,0.0165,-0.007,-0.0319,3918,2019-08-07 16:45:19:471
-6.5006,-6.989,0.6902,-0.1993,-0.1872,-0.0018,0.0165,-0.007,-0.0319,3922,2019-08-07 16:45:19:475
-6.4734,-6.9793,0.7323,-0.1993,-0.1872,-0.0018,0.0208,-0.0326,-0.0329,3928,2019-08-07 16:45:19:481
-6.4734,-6.9793,0.7323,-0.2641,-0.1585,-0.0575,0.0208,-0.0326,-0.0329,3933,2019-08-07 16:45:19:486
-6.4734,-6.9793,0.7323,-0.2641,-0.1585,-0.0575,0.0208,-0.0326,-0.0329,3937,2019-08-07 16:45:19:490
-6.349,-6.9888,0.6851,-0.2641,-0.1585,-0.0575,0.0251,-0.0496,-0.0234,3943,2019-08-07 16:45:19:496
-6.349,-6.9888,0.6851,-0.2641,-0.1585,-0.0575,0.0293,-0.0379,-0.0212,3948,2019-08-07 16:45:19:501
-6.2486,-6.8886,0.6521,-0.3599,-0.2908,-0.01,0.0293,-0.0379,-0.0212,3953,2019-08-07 16:45:19:506
-6.2486,-6.8886,0.6521,-0.3599,-0.2908,-0.01,0.0293,-0.0379,-0.0212,3958,2019-08-07 16:45:19:511
-6.2486,-6.8886,0.6521,-0.3599,-0.2908,-0.01,0.0283,-0.0315,-0.0116,3963,2019-08-07 16:45:19:516
-6.2964,-6.9029,0.5673,-0.3599,-0.2908,-0.01,0.0283,-0.0315,-0.0116,3968,2019-08-07 16:45:19:521
-6.2964,-6.9029,0.5673,-0.3599,-0.2908,-0.01,0.0283,-0.0134,-0.0138,3973,2019-08-07 16:45:19:526
-6.373,-6.7931,0.6097,-0.2949,-0.2498,0.0678,0.0283,-0.0134,-0.0138,3978,2019-08-07 16:45:19:531
-6.373,-6.7931,0.6097,-0.2949,-0.2498,0.0678,0.0304,4.0E-4,-0.0116,3983,2019-08-07 16:45:19:536
-6.373,-6.7931,0.6097,-0.2949,-0.2498,0.0678,0.0304,4.0E-4,-0.0116,3988,2019-08-07 16:45:19:541
-6.4256,-6.8551,0.5626,-0.2949,-0.2498,0.0678,0.0304,4.0E-4,-0.0116,3992,2019-08-07 16:45:19:545
-6.4256,-6.8551,0.5626,-0.3505,-0.2989,0.1037,0.0251,0.0218,-0.0148,3998,2019-08-07 16:45:19:551
-6.4208,-6.879,0.5531,-0.3505,-0.2989,0.1037,0.0251,0.0218,-0.0148,4003,2019-08-07 16:45:19:556
-6.4208,-6.879,0.5531,-0.3505,-0.2989,0.1037,0.0219,0.0569,-0.0287,4008,2019-08-07 16:45:19:561
-6.4208,-6.879,0.5531,-0.3505,-0.2989,0.1037,0.0219,0.0569,-0.0287,4013,2019-08-07 16:45:19:566
-6.4974,-6.8838,0.572,-0.1802,-0.2686,0.1279,0.0251,0.0612,-0.0287,4017,2019-08-07 16:45:19:570
-6.4974,-6.8838,0.572,-0.1802,-0.2686,0.1279,0.0251,0.0612,-0.0287,4023,2019-08-07 16:45:19:576
-6.4113,-6.9458,0.6663,-0.1802,-0.2686,0.1279,0.0315,0.0537,-0.0255,4027,2019-08-07 16:45:19:580
-6.4113,-6.9458,0.6663,-0.1802,-0.2686,0.1279,0.0315,0.0537,-0.0255,4033,2019-08-07 16:45:19:586
-6.4113,-6.9458,0.6663,-0.3207,-0.329,0.1196,0.0325,0.058,-0.0255,4037,2019-08-07 16:45:19:590
-6.3347,-6.8456,0.6521,-0.3207,-0.329,0.1196,0.0325,0.058,-0.0255,4043,2019-08-07 16:45:19:596
-6.3347,-6.8456,0.6521,-0.3207,-0.329,0.1196,0.0315,0.0665,-0.0148,4048,2019-08-07 16:45:19:601
-6.3539,-6.8647,0.7134,-0.3207,-0.329,0.1196,0.0315,0.0665,-0.0148,4052,2019-08-07 16:45:19:605
-6.3539,-6.8647,0.7134,-0.3281,-0.3218,0.0123,0.0315,0.0665,-0.0148,4058,2019-08-07 16:45:19:611
-6.3539,-6.8647,0.7134,-0.3281,-0.3218,0.0123,0.0229,0.0558,-0.0042,4063,2019-08-07 16:45:19:616
-6.4017,-6.879,0.6427,-0.3281,-0.3218,0.0123,0.0229,0.0558,-0.0042,4068,2019-08-07 16:45:19:621
-6.4017,-6.879,0.6427,-0.3281,-0.3218,0.0123,0.0208,0.0313,1.0E-4,4072,2019-08-07 16:45:19:625
-6.3874,-6.879,0.6993,-0.2852,-0.279,-0.0095,0.0208,0.0313,1.0E-4,4078,2019-08-07 16:45:19:631
-6.3874,-6.879,0.6993,-0.2852,-0.279,-0.0095,0.0155,0.0132,0.0054,4083,2019-08-07 16:45:19:636
-6.3874,-6.879,0.6993,-0.2852,-0.279,-0.0095,0.0155,0.0132,0.0054,4087,2019-08-07 16:45:19:640
-6.373,-6.8647,0.6238,-0.2852,-0.279,-0.0095,0.0091,0.009,1.0E-4,4093,2019-08-07 16:45:19:646
-6.373,-6.8647,0.6238,-0.2953,-0.3071,0.0755,0.0091,0.009,1.0E-4,4098,2019-08-07 16:45:19:651
-6.3539,-6.8504,0.6285,-0.2953,-0.3071,0.0755,0.0059,0.0132,0.0011,4103,2019-08-07 16:45:19:656
-6.3539,-6.8504,0.6285,-0.2953,-0.3071,0.0755,0.0059,0.0132,0.0011,4108,2019-08-07 16:45:19:661
-6.3539,-6.8504,0.6285,-0.2953,-0.3071,0.0755,0.0059,0.0132,0.0011,4112,2019-08-07 16:45:19:665
-6.3683,-6.8504,0.6191,-0.305,-0.3072,0.0692,0.0027,0.0271,-0.001,4118,2019-08-07 16:45:19:671
-6.3683,-6.8504,0.6191,-0.305,-0.3072,0.0692,0.0027,0.0271,-0.001,4122,2019-08-07 16:45:19:675
-6.3683,-6.8504,0.6191,-0.305,-0.3072,0.0692,-5.0E-4,0.0526,-0.0052,4128,2019-08-07 16:45:19:681
-6.4209,-6.8981,0.5908,-0.305,-0.3072,0.0692,0.0016,0.0612,-0.0063,4133,2019-08-07 16:45:19:686
-6.4209,-6.8981,0.5908,-0.2903,-0.2461,0.0856,0.0016,0.0612,-0.0063,4138,2019-08-07 16:45:19:691
-6.3587,-6.9363,0.5673,-0.2903,-0.2461,0.0856,0.0016,0.0612,-0.0063,4143,2019-08-07 16:45:19:696
-6.3587,-6.9363,0.5673,-0.2903,-0.2461,0.0856,0.0102,0.0729,-0.0074,4149,2019-08-07 16:45:19:702
-6.3587,-6.9363,0.5673,-0.2903,-0.2461,0.0856,0.0102,0.0729,-0.0074,4152,2019-08-07 16:45:19:705
-6.3492,-6.9267,0.6144,-0.3327,-0.2619,0.0671,0.0176,0.0867,-0.0095,4158,2019-08-07 16:45:19:711
-6.3492,-6.9267,0.6144,-0.3327,-0.2619,0.0671,0.0176,0.0867,-0.0095,4163,2019-08-07 16:45:19:716
-6.4353,-6.8933,0.6945,-0.3327,-0.2619,0.0671,0.0197,0.0857,-0.0052,4168,2019-08-07 16:45:19:721
-6.4353,-6.8933,0.6945,-0.3327,-0.2619,0.0671,0.0197,0.0857,-0.0052,4173,2019-08-07 16:45:19:726
-6.4353,-6.8933,0.6945,-0.1423,-0.2952,-0.045,0.0176,0.0686,0.0097,4178,2019-08-07 16:45:19:731
-6.5836,-6.8313,0.6898,-0.1423,-0.2952,-0.045,0.0176,0.0686,0.0097,4183,2019-08-07 16:45:19:736
-6.5836,-6.8313,0.6898,-0.1423,-0.2952,-0.045,0.0144,0.0313,0.0139,4187,2019-08-07 16:45:19:740
-6.5884,-6.8122,0.6851,-0.1423,-0.2952,-0.045,0.0144,0.0313,0.0139,4193,2019-08-07 16:45:19:746
-6.5884,-6.8122,0.6851,-0.1502,-0.2877,0.0425,0.0059,-0.0145,0.0235,4198,2019-08-07 16:45:19:751
-6.5884,-6.8122,0.6851,-0.1502,-0.2877,0.0425,0.0059,-0.0145,0.0235,4203,2019-08-07 16:45:19:756
-6.4544,-6.8981,0.5861,-0.1502,-0.2877,0.0425,0.0059,-0.0145,0.0235,4208,2019-08-07 16:45:19:761
-6.4544,-6.8981,0.5861,-0.1502,-0.2877,0.0425,0.0112,-0.0326,0.0203,4213,2019-08-07 16:45:19:766
-6.4544,-6.8981,0.5861,-0.3061,-0.2703,0.085,0.0112,-0.0326,0.0203,4218,2019-08-07 16:45:19:771
-6.3827,-6.9315,0.5861,-0.3061,-0.2703,0.085,0.0208,-0.0219,0.0161,4223,2019-08-07 16:45:19:776
-6.3827,-6.9315,0.5861,-0.3061,-0.2703,0.085,0.0208,-0.0219,0.0161,4228,2019-08-07 16:45:19:781
-6.3444,-6.8885,0.5201,-0.3061,-0.2703,0.085,0.0293,0.0047,0.0118,4233,2019-08-07 16:45:19:786
-6.3444,-6.8885,0.5201,-0.3603,-0.2827,0.1363,0.0293,0.0047,0.0118,4238,2019-08-07 16:45:19:791
-6.3444,-6.8885,0.5201,-0.3603,-0.2827,0.1363,0.0357,0.042,0.0086,4244,2019-08-07 16:45:19:797
-6.4066,-6.8313,0.539,-0.2702,-0.282,0.0702,0.0357,0.042,0.0086,4249,2019-08-07 16:45:19:802
-6.4066,-6.8313,0.539,-0.2702,-0.282,0.0702,0.0357,0.042,0.0086,4252,2019-08-07 16:45:19:805
-6.3875,-6.8838,0.704,-0.2702,-0.282,0.0702,0.0496,0.075,1.0E-4,4258,2019-08-07 16:45:19:811
-6.3875,-6.8838,0.704,-0.2702,-0.282,0.0702,0.0496,0.075,1.0E-4,4263,2019-08-07 16:45:19:816
-6.3875,-6.8838,0.704,-0.2135,-0.3387,-0.0208,0.0655,0.0697,-0.0042,4268,2019-08-07 16:45:19:821
-6.5502,-6.8217,0.6615,-0.2135,-0.3387,-0.0208,0.0655,0.0697,-0.0042,4272,2019-08-07 16:45:19:825
-6.5502,-6.8217,0.6615,-0.2135,-0.3387,-0.0208,0.0549,0.0473,0.0107,4278,2019-08-07 16:45:19:831
-6.5693,-6.7692,0.7039,-0.2135,-0.3387,-0.0208,0.0549,0.0473,0.0107,4283,2019-08-07 16:45:19:836
-6.5693,-6.7692,0.7039,-0.1163,-0.3832,-0.0753,0.0315,0.0026,0.0267,4288,2019-08-07 16:45:19:841
-6.5693,-6.7692,0.7039,-0.1163,-0.3832,-0.0753,0.0315,0.0026,0.0267,4293,2019-08-07 16:45:19:846
-6.5645,-6.7596,0.8501,-0.1163,-0.3832,-0.0753,0.0315,0.0026,0.0267,4297,2019-08-07 16:45:19:850
-6.5645,-6.7596,0.8501,-0.1163,-0.3832,-0.0753,0.0336,-0.0347,0.0374,4303,2019-08-07 16:45:19:856
-6.5645,-6.7596,0.8501,-0.1163,-0.3832,-0.0753,0.0336,-0.0347,0.0374,4307,2019-08-07 16:45:19:860
-6.3827,-6.836,0.6804,-0.3082,-0.3057,4.0E-4,0.0378,-0.0517,0.0438,4313,2019-08-07 16:45:19:866
-6.3827,-6.836,0.6804,-0.3082,-0.3057,4.0E-4,0.0378,-0.0517,0.0438,4318,2019-08-07 16:45:19:871
-6.3445,-6.8313,0.5955,-0.3082,-0.3057,4.0E-4,0.0315,-0.0496,0.0352,4323,2019-08-07 16:45:19:876
-6.3445,-6.8313,0.5955,-0.3082,-0.3057,4.0E-4,0.0315,-0.0496,0.0352,4327,2019-08-07 16:45:19:880
-6.3445,-6.8313,0.5955,-0.4079,-0.2961,0.1099,0.0155,-0.0177,0.0224,4333,2019-08-07 16:45:19:886
-6.2919,-6.8456,0.5531,-0.4079,-0.2961,0.1099,0.0155,-0.0177,0.0224,4337,2019-08-07 16:45:19:890
-6.2919,-6.8456,0.5531,-0.4079,-0.2961,0.1099,0.0038,0.0207,0.0129,4343,2019-08-07 16:45:19:896
-6.4019,-6.8981,0.5342,-0.2948,-0.2373,0.1564,0.0038,0.0207,0.0129,4348,2019-08-07 16:45:19:901
-6.4019,-6.8981,0.5342,-0.2948,-0.2373,0.1564,-0.0016,0.0526,-0.0042,4353,2019-08-07 16:45:19:906
-6.4019,-6.8981,0.5342,-0.2948,-0.2373,0.1564,-0.0016,0.0526,-0.0042,4357,2019-08-07 16:45:19:910
-6.4928,-6.8503,0.5767,-0.2948,-0.2373,0.1564,-0.0026,0.0718,-0.0052,4363,2019-08-07 16:45:19:916
-6.4928,-6.8503,0.5767,-0.2948,-0.2373,0.1564,-0.0026,0.0718,-0.0052,4368,2019-08-07 16:45:19:921
-6.4928,-6.8503,0.5767,-0.1374,-0.2616,0.0856,6.0E-4,0.0676,-0.0084,4373,2019-08-07 16:45:19:926
-6.5789,-6.8933,0.6568,-0.1374,-0.2616,0.0856,6.0E-4,0.0676,-0.0084,4378,2019-08-07 16:45:19:931
-6.5789,-6.8933,0.6568,-0.1374,-0.2616,0.0856,-0.0303,-0.0177,-0.0191,4384,2019-08-07 16:45:19:937
-6.7942,-6.8981,0.3174,-0.1374,-0.2616,0.0856,-0.0303,-0.0177,-0.0191,4388,2019-08-07 16:45:19:941
-6.7942,-6.8981,0.3174,0.0311,-0.2633,0.1299,-0.0772,-0.0443,-0.0212,4393,2019-08-07 16:45:19:946
-6.7942,-6.8981,0.3174,0.0311,-0.2633,0.1299,-0.0772,-0.0443,-0.0212,4398,2019-08-07 16:45:19:951
-6.5215,-6.9554,0.9443,0.0311,-0.2633,0.1299,0.008,-0.0667,-0.0116,4402,2019-08-07 16:45:19:955
-6.5215,-6.9554,0.9443,0.0311,-0.2633,0.1299,0.008,-0.0667,-0.0116,4408,2019-08-07 16:45:19:961
-6.3445,-7.0461,0.5955,-0.3484,-0.094,0.0834,0.0485,-0.072,-0.0106,4412,2019-08-07 16:45:19:965
-6.3445,-7.0461,0.5955,-0.3484,-0.094,0.0834,0.0485,-0.072,-0.0106,4418,2019-08-07 16:45:19:971
-6.3445,-7.0461,0.5955,-0.3484,-0.094,0.0834,0.0304,-0.0379,-0.0042,4422,2019-08-07 16:45:19:975
-6.2728,-6.8503,0.5295,-0.3484,-0.094,0.0834,0.0304,-0.0379,-0.0042,4428,2019-08-07 16:45:19:981
-6.2728,-6.8503,0.5295,-0.5706,-0.2863,0.0616,0.0421,0.0068,0.0022,4433,2019-08-07 16:45:19:986
-6.158,-6.8885,0.5672,-0.5706,-0.2863,0.0616,0.0421,0.0068,0.0022,4437,2019-08-07 16:45:19:990
-6.158,-6.8885,0.5672,-0.5706,-0.2863,0.0616,0.0837,0.0974,-0.001,4444,2019-08-07 16:45:19:997
-6.158,-6.8885,0.5672,-0.5706,-0.2863,0.0616,0.0837,0.0974,-0.001,4449,2019-08-07 16:45:20:002
-6.1819,-6.9219,0.7699,-0.5079,-0.2197,-0.0782,0.1316,0.1826,0.0118,4453,2019-08-07 16:45:20:006
-6.1819,-6.9219,0.7699,-0.5079,-0.2197,-0.0782,0.1316,0.1826,0.0118,4460,2019-08-07 16:45:20:013
-6.1819,-6.9219,0.7699,-0.5079,-0.2197,-0.0782,0.1316,0.1826,0.0118,4462,2019-08-07 16:45:20:015
-6.3733,-6.9458,0.5955,-0.5079,-0.2197,-0.0782,0.1369,0.2242,0.0139,4468,2019-08-07 16:45:20:021
-6.3733,-6.9458,0.5955,-0.2486,-0.2839,-0.0028,0.1369,0.2242,0.0139,4472,2019-08-07 16:45:20:025
-6.5024,-6.7835,0.8453,-0.2486,-0.2839,-0.0028,0.1273,0.27,-0.0106,4478,2019-08-07 16:45:20:031
-6.5024,-6.7835,0.8453,-0.2486,-0.2839,-0.0028,0.1273,0.27,-0.0106,4483,2019-08-07 16:45:20:036
-6.7799,-6.6928,0.6521,-0.2486,-0.2839,-0.0028,0.1071,0.1975,-0.0095,4488,2019-08-07 16:45:20:041
-6.7799,-6.6928,0.6521,0.1356,-0.4397,0.0441,0.1071,0.1975,-0.0095,4493,2019-08-07 16:45:20:046
-6.7799,-6.6928,0.6521,0.1356,-0.4397,0.0441,0.0432,0.0899,-0.001,4498,2019-08-07 16:45:20:051
-6.8278,-6.6976,0.6756,0.1356,-0.4397,0.0441,0.0432,0.0899,-0.001,4503,2019-08-07 16:45:20:056
-6.8278,-6.6976,0.6756,0.1356,-0.4397,0.0441,0.0432,0.0899,-0.001,4508,2019-08-07 16:45:20:061