ACCELEROMETER X (m/s²),ACCELEROMETER Y (m/s²),ACCELEROMETER Z (m/s²),LINEAR ACCELERATION X (m/s²),LINEAR ACCELERATION Y (m/s²),LINEAR ACCELERATION Z (m/s²),GYROSCOPE X (rad/s),GYROSCOPE Y (rad/s),GYROSCOPE Z (rad/s),Time since start in ms ,YYYY-MO-DD HH-MI-SS_SSS
-5.4431,-7.6817,0.3471,-0.236,-0.307,0.0596,0.0016,0.01,0.0108,3,2019-08-07 16:44:13:147
-5.4431,-7.6817,0.3471,-0.236,-0.307,0.0596,0.0016,0.01,0.0108,7,2019-08-07 16:44:13:151
-5.5388,-7.6817,0.3848,-0.236,-0.307,0.0596,-5.0E-4,0.0132,0.0065,13,2019-08-07 16:44:13:157
-5.5388,-7.6817,0.3848,-0.1664,-0.2865,-0.0267,-5.0E-4,0.0132,0.0065,19,2019-08-07 16:44:13:163
-5.5483,-7.7246,0.4555,-0.1664,-0.2865,-0.0267,0.0048,0.009,0.0012,23,2019-08-07 16:44:13:167
-5.5483,-7.7246,0.4555,-0.1664,-0.2865,-0.0267,0.0048,0.009,0.0012,27,2019-08-07 16:44:13:171
-5.5148,-7.7151,0.465,-0.1664,-0.2865,-0.0267,0.0016,-0.006,0.0044,33,2019-08-07 16:44:13:177
-5.5148,-7.7151,0.465,-0.2054,-0.2764,0.0023,0.0016,-0.006,0.0044,37,2019-08-07 16:44:13:181
-5.5148,-7.7151,0.465,-0.2054,-0.2764,0.0023,0.0016,-0.006,0.0044,43,2019-08-07 16:44:13:187
-5.4,-7.758,0.4555,-0.2054,-0.2764,0.0023,-0.0016,-0.0305,0.0065,48,2019-08-07 16:44:13:192
-5.4,-7.758,0.4555,-0.2054,-0.2764,0.0023,-0.0016,-0.0305,0.0065,52,2019-08-07 16:44:13:196
-5.3473,-7.7819,0.3943,-0.3352,-0.1946,-0.0316,-0.0016,-0.0454,0.0172,58,2019-08-07 16:44:13:202
-5.3473,-7.7819,0.3943,-0.3352,-0.1946,-0.0316,-0.0016,-0.0454,0.0172,63,2019-08-07 16:44:13:207
-5.3473,-7.7819,0.3943,-0.3352,-0.1946,-0.0316,-0.0037,-0.0443,0.0246,67,2019-08-07 16:44:13:211
-5.2804,-7.7915,0.3518,-0.3352,-0.1946,-0.0316,-0.0037,-0.0443,0.0246,73,2019-08-07 16:44:13:217
-5.2804,-7.7915,0.3518,-0.3757,-0.231,0.001,-0.0026,-0.0305,0.0268,78,2019-08-07 16:44:13:222
-5.3234,-7.7628,0.4131,-0.3757,-0.231,0.001,-0.0026,-0.0305,0.0268,83,2019-08-07 16:44:13:227
-5.3234,-7.7628,0.4131,-0.3757,-0.231,0.001,-0.0037,-0.0134,0.0353,88,2019-08-07 16:44:13:232
-5.3234,-7.7628,0.4131,-0.3757,-0.231,0.001,-0.0037,-0.0134,0.0353,93,2019-08-07 16:44:13:237
-5.4191,-7.7485,0.4084,-0.2701,-0.2326,0.0067,-0.009,0.0047,0.0385,98,2019-08-07 16:44:13:242
-5.4191,-7.7485,0.4084,-0.2701,-0.2326,0.0067,-0.009,0.0047,0.0385,103,2019-08-07 16:44:13:247
-5.4382,-7.739,0.399,-0.2701,-0.2326,0.0067,-0.0101,0.009,0.0331,107,2019-08-07 16:44:13:251
-5.4382,-7.739,0.399,-0.2701,-0.2326,0.0067,-0.0101,0.009,0.0331,113,2019-08-07 16:44:13:257
-5.4382,-7.739,0.399,-0.1989,-0.2623,-0.0097,-0.008,0.0153,0.0278,119,2019-08-07 16:44:13:263
-5.5099,-7.7103,0.3377,-0.1989,-0.2623,-0.0097,-0.008,0.0153,0.0278,123,2019-08-07 16:44:13:267
-5.5099,-7.7103,0.3377,-0.1989,-0.2623,-0.0097,-0.009,0.0185,0.0225,127,2019-08-07 16:44:13:271
-5.5434,-7.696,0.267,-0.1989,-0.2623,-0.0097,-0.009,0.0185,0.0225,134,2019-08-07 16:44:13:278
-5.5434,-7.696,0.267,-0.1119,-0.2598,0.113,-0.009,0.0185,0.0225,137,2019-08-07 16:44:13:281
-5.5434,-7.696,0.267,-0.1119,-0.2598,0.113,-0.0058,0.0303,0.0108,143,2019-08-07 16:44:13:287
-5.6391,-7.7724,0.3943,-0.1119,-0.2598,0.113,-0.0058,0.0303,0.0108,148,2019-08-07 16:44:13:292
-5.6391,-7.7724,0.3943,-0.1119,-0.2598,0.113,0.0027,0.0207,0.0054,152,2019-08-07 16:44:13:296
-5.6391,-7.7724,0.3943,-0.1188,-0.2871,-0.0409,0.0027,0.0207,0.0054,158,2019-08-07 16:44:13:302
-5.5482,-7.6339,0.4226,-0.1188,-0.2871,-0.0409,0.0112,0.009,0.0076,163,2019-08-07 16:44:13:307
-5.5482,-7.6339,0.4226,-0.1188,-0.2871,-0.0409,0.0112,0.009,0.0076,168,2019-08-07 16:44:13:312
-5.5003,-7.6864,0.3943,-0.1188,-0.2871,-0.0409,0.0176,-0.0081,0.0097,172,2019-08-07 16:44:13:316
-5.5003,-7.6864,0.3943,-0.2495,-0.3241,0.0275,0.0176,-0.0081,0.0097,178,2019-08-07 16:44:13:322
-5.5003,-7.6864,0.3943,-0.2495,-0.3241,0.0275,0.0197,-0.0113,0.015,183,2019-08-07 16:44:13:327
-5.4477,-7.6674,0.465,-0.2495,-0.3241,0.0275,0.0197,-0.0113,0.015,187,2019-08-07 16:44:13:331
-5.4477,-7.6674,0.465,-0.2495,-0.3241,0.0275,0.0272,-0.0166,0.0278,193,2019-08-07 16:44:13:337
-5.4477,-7.5385,0.5027,-0.2577,-0.4311,-0.0887,0.0272,-0.0166,0.0278,198,2019-08-07 16:44:13:342
-5.4477,-7.5385,0.5027,-0.2577,-0.4311,-0.0887,0.0421,-0.0283,0.0395,202,2019-08-07 16:44:13:346
-5.4477,-7.5385,0.5027,-0.2577,-0.4311,-0.0887,0.0421,-0.0283,0.0395,208,2019-08-07 16:44:13:352
-5.4046,-7.3952,0.4933,-0.2577,-0.4311,-0.0887,0.0421,-0.0369,0.0491,213,2019-08-07 16:44:13:357
-5.4046,-7.3952,0.4933,-0.3275,-0.616,-0.1054,0.0421,-0.0369,0.0491,218,2019-08-07 16:44:13:362
-5.3902,-7.3141,0.5169,-0.3275,-0.616,-0.1054,0.0368,-0.0454,0.0662,223,2019-08-07 16:44:13:367
-5.3902,-7.3141,0.5169,-0.3275,-0.616,-0.1054,0.0368,-0.0454,0.0662,229,2019-08-07 16:44:13:373
-5.3902,-7.3141,0.5169,-0.3275,-0.616,-0.1054,0.0187,-0.0464,0.0821,234,2019-08-07 16:44:13:378
-5.3137,-7.4812,0.5263,-0.4736,-0.4492,-0.0857,0.0187,-0.0464,0.0821,237,2019-08-07 16:44:13:381
-5.3137,-7.4812,0.5263,-0.4736,-0.4492,-0.0857,0.0091,-0.0337,0.0971,243,2019-08-07 16:44:13:387
-5.3137,-7.4812,0.5263,-0.4736,-0.4492,-0.0857,0.0091,-0.0337,0.0971,248,2019-08-07 16:44:13:392
-5.2706,-7.6674,0.5216,-0.4736,-0.4492,-0.0857,6.0E-4,-0.0113,0.1109,253,2019-08-07 16:44:13:397
-5.2706,-7.6674,0.5216,-0.4736,-0.4492,-0.0857,6.0E-4,-0.0113,0.1109,258,2019-08-07 16:44:13:402
-5.2514,-7.7819,0.465,-0.4458,-0.1325,-0.068,-0.0048,0.0153,0.1248,263,2019-08-07 16:44:13:407
-5.2514,-7.7819,0.465,-0.4458,-0.1325,-0.068,-0.0048,0.0153,0.1248,268,2019-08-07 16:44:13:412
-5.3614,-7.949,0.4415,-0.4458,-0.1325,-0.068,-0.009,0.0377,0.1333,273,2019-08-07 16:44:13:417
-5.3614,-7.949,0.4415,-0.4458,-0.1325,-0.068,-0.009,0.0377,0.1333,278,2019-08-07 16:44:13:422
-5.3614,-7.949,0.4415,-0.3308,4.0E-4,0.0224,-0.009,0.0558,0.1365,284,2019-08-07 16:44:13:428
-5.505,-7.9777,0.4603,-0.3308,4.0E-4,0.0224,-0.009,0.0558,0.1365,287,2019-08-07 16:44:13:431
-5.505,-7.9777,0.4603,-0.3308,4.0E-4,0.0224,-0.009,0.0558,0.1365,293,2019-08-07 16:44:13:437
-5.615,-7.8822,0.5452,-0.1663,-0.0318,-0.1178,-0.009,0.0665,0.145,298,2019-08-07 16:44:13:442
-5.615,-7.8822,0.5452,-0.1663,-0.0318,-0.1178,-0.0048,0.0558,0.1397,303,2019-08-07 16:44:13:447
-5.615,-7.8822,0.5452,-0.1663,-0.0318,-0.1178,-0.0048,0.0558,0.1397,308,2019-08-07 16:44:13:452
-5.8255,-7.8917,0.5546,-0.1663,-0.0318,-0.1178,-0.0048,0.0558,0.1397,312,2019-08-07 16:44:13:456
-5.8255,-7.8917,0.5546,0.1322,-0.078,-0.0906,-0.0048,0.0377,0.1269,318,2019-08-07 16:44:13:462
-5.8255,-7.8917,0.5546,0.1322,-0.078,-0.0906,-0.0048,0.0377,0.1269,322,2019-08-07 16:44:13:466
-5.9403,-7.8249,0.5263,0.1322,-0.078,-0.0906,-0.0048,0.0121,0.1056,328,2019-08-07 16:44:13:472
-5.9403,-7.8249,0.5263,0.1322,-0.078,-0.0906,0.0016,-0.0155,0.08,334,2019-08-07 16:44:13:478
-6.012,-7.7819,0.4839,0.1921,-0.0991,-0.062,0.0016,-0.0155,0.08,338,2019-08-07 16:44:13:482
-6.012,-7.7819,0.4839,0.1921,-0.0991,-0.062,0.0016,-0.0155,0.08,343,2019-08-07 16:44:13:487
-6.012,-7.7819,0.4839,0.1921,-0.0991,-0.062,0.0069,-0.0358,0.0544,348,2019-08-07 16:44:13:492
-5.9942,-7.7054,0.427,0.1921,-0.0991,-0.062,0.0069,-0.0358,0.0544,353,2019-08-07 16:44:13:497
-5.9942,-7.7054,0.427,0.1921,-0.0991,-0.062,0.0144,-0.0496,0.0299,357,2019-08-07 16:44:13:501
-6.0229,-7.7007,0.4978,0.1945,-0.1785,-0.069,0.0144,-0.0496,0.0299,363,2019-08-07 16:44:13:507
-6.0229,-7.7007,0.4978,0.1945,-0.1785,-0.069,0.0272,-0.0656,0.015,368,2019-08-07 16:44:13:512
-6.0229,-7.7007,0.4978,0.1945,-0.1785,-0.069,0.0272,-0.0656,0.015,372,2019-08-07 16:44:13:516
-5.932,-7.715,0.4742,0.1945,-0.1785,-0.069,0.0336,-0.0773,0.0022,378,2019-08-07 16:44:13:522
-5.932,-7.715,0.4742,0.0914,-0.3143,-0.07,0.0336,-0.0773,0.0022,384,2019-08-07 16:44:13:528
-5.8794,-7.6052,0.4459,0.0914,-0.3143,-0.07,0.0421,-0.0922,-0.0041,387,2019-08-07 16:44:13:531
-5.8794,-7.6052,0.4459,0.0914,-0.3143,-0.07,0.0421,-0.0922,-0.0041,393,2019-08-07 16:44:13:537
-5.8794,-7.6052,0.4459,0.0914,-0.3143,-0.07,0.0506,-0.1018,-0.0084,398,2019-08-07 16:44:13:542
-5.889,-7.5479,0.4978,0.0584,-0.3279,-0.0372,0.0506,-0.1018,-0.0084,403,2019-08-07 16:44:13:547
-5.889,-7.5479,0.4978,0.0584,-0.3279,-0.0372,0.0623,-0.1146,-0.0041,407,2019-08-07 16:44:13:551
-5.8124,-7.6481,0.4883,0.0584,-0.3279,-0.0372,0.0623,-0.1146,-0.0041,413,2019-08-07 16:44:13:557
-5.8124,-7.6481,0.4883,0.0584,-0.3279,-0.0372,0.0677,-0.1306,0.0033,419,2019-08-07 16:44:13:563
-5.8124,-7.6481,0.4883,-0.0323,-0.2788,0.0111,0.0677,-0.1306,0.0033,423,2019-08-07 16:44:13:567
-5.8077,-7.567,0.4695,-0.0323,-0.2788,0.0111,0.0677,-0.1327,0.0054,428,2019-08-07 16:44:13:572
-5.8077,-7.567,0.4695,-0.0323,-0.2788,0.0111,0.0677,-0.1327,0.0054,434,2019-08-07 16:44:13:578
-5.7359,-7.5336,0.4836,-0.0323,-0.2788,0.0111,0.0719,-0.1327,0.0097,438,2019-08-07 16:44:13:582
-5.7359,-7.5336,0.4836,-0.1285,-0.3006,0.0377,0.0719,-0.1327,0.0097,443,2019-08-07 16:44:13:587
-5.7359,-7.5336,0.4836,-0.1285,-0.3006,0.0377,0.0666,-0.1274,0.0076,448,2019-08-07 16:44:13:592
-5.6833,-7.5002,0.4459,-0.1285,-0.3006,0.0377,0.0666,-0.1274,0.0076,453,2019-08-07 16:44:13:597
-5.6833,-7.5002,0.4459,-0.1285,-0.3006,0.0377,0.0613,-0.1135,0.0065,457,2019-08-07 16:44:13:601
-5.6833,-7.5002,0.4459,-0.1578,-0.3988,0.0291,0.0613,-0.1135,0.0065,463,2019-08-07 16:44:13:607
-5.6737,-7.5049,0.5213,-0.1578,-0.3988,0.0291,0.0623,-0.1029,0.0022,468,2019-08-07 16:44:13:612
-5.6737,-7.5049,0.5213,-0.1578,-0.3988,0.0291,0.0623,-0.1029,0.0022,472,2019-08-07 16:44:13:616
-5.6737,-7.4333,0.5307,-0.1578,-0.3988,0.0291,0.0613,-0.0997,-0.0031,478,2019-08-07 16:44:13:622
-5.6737,-7.4333,0.5307,-0.1959,-0.4404,0.0977,0.0613,-0.0997,-0.0031,483,2019-08-07 16:44:13:627
-5.6737,-7.4333,0.5307,-0.1959,-0.4404,0.0977,0.0506,-0.0976,-0.0031,488,2019-08-07 16:44:13:632
-5.6498,-7.3951,0.46,-0.1959,-0.4404,0.0977,0.0506,-0.0976,-0.0031,493,2019-08-07 16:44:13:637
-5.6498,-7.3951,0.46,-0.1959,-0.4404,0.0977,0.04,-0.0986,-0.0041,499,2019-08-07 16:44:13:643
-5.6498,-7.3951,0.46,-0.2284,-0.4541,0.0511,0.04,-0.0986,-0.0041,502,2019-08-07 16:44:13:646
-5.6019,-7.4095,0.5072,-0.2284,-0.4541,0.0511,0.04,-0.0986,-0.0041,508,2019-08-07 16:44:13:652
-5.6019,-7.4095,0.5072,-0.2284,-0.4541,0.0511,0.0389,-0.1029,-9.0E-4,513,2019-08-07 16:44:13:657
-5.535,-7.3856,0.5637,-0.2284,-0.4541,0.0511,0.0389,-0.1029,-9.0E-4,518,2019-08-07 16:44:13:662
-5.535,-7.3856,0.5637,-0.2231,-0.4913,0.0883,0.0336,-0.1029,0.0054,523,2019-08-07 16:44:13:667
-5.5924,-7.3904,0.4742,-0.2231,-0.4913,0.0883,0.0336,-0.1029,0.0054,529,2019-08-07 16:44:13:673
-5.5924,-7.3904,0.4742,-0.2231,-0.4913,0.0883,0.0261,-0.0997,0.0118,533,2019-08-07 16:44:13:677
-5.5924,-7.3904,0.4742,-0.2231,-0.4913,0.0883,0.0261,-0.0997,0.0118,537,2019-08-07 16:44:13:681
-5.5924,-7.4476,0.5637,-0.2382,-0.4179,0.0476,0.0261,-0.0997,0.0118,543,2019-08-07 16:44:13:687
-5.5924,-7.4476,0.5637,-0.2382,-0.4179,0.0476,0.0165,-0.0986,0.0172,548,2019-08-07 16:44:13:692
-5.5924,-7.4476,0.5637,-0.2382,-0.4179,0.0476,0.0165,-0.0986,0.0172,553,2019-08-07 16:44:13:697
-5.4967,-7.4906,0.5307,-0.2382,-0.4179,0.0476,0.0059,-0.0869,0.0182,557,2019-08-07 16:44:13:701
-5.4967,-7.4906,0.5307,-0.2926,-0.3297,0.1398,0.0059,-0.0869,0.0182,563,2019-08-07 16:44:13:707
-5.4871,-7.5097,0.5119,-0.2926,-0.3297,0.1398,0.0027,-0.0709,0.0204,567,2019-08-07 16:44:13:711
-5.4871,-7.5097,0.5119,-0.2926,-0.3297,0.1398,0.0027,-0.0709,0.0204,573,2019-08-07 16:44:13:717
-5.4824,-7.4763,0.4836,-0.2926,-0.3297,0.1398,6.0E-4,-0.0475,0.0214,578,2019-08-07 16:44:13:722
-5.4824,-7.4763,0.4836,-0.3666,-0.3944,0.0993,6.0E-4,-0.0475,0.0214,583,2019-08-07 16:44:13:727
-5.4824,-7.4763,0.4836,-0.3666,-0.3944,0.0993,6.0E-4,-0.0475,0.0214,588,2019-08-07 16:44:13:732
-5.4824,-7.4763,0.4836,-0.3666,-0.3944,0.0993,-0.0026,-0.0337,0.0236,593,2019-08-07 16:44:13:737
-5.5206,-7.4524,0.493,-0.3666,-0.3944,0.0993,-0.0026,-0.0337,0.0236,597,2019-08-07 16:44:13:741
-5.5206,-7.4524,0.493,-0.3412,-0.3678,0.0688,-0.0069,-0.0283,0.0289,603,2019-08-07 16:44:13:747
-5.5015,-7.462,0.5355,-0.3412,-0.3678,0.0688,-0.0069,-0.0283,0.0289,607,2019-08-07 16:44:13:751
-5.5015,-7.462,0.5355,-0.3412,-0.3678,0.0688,-0.0112,-0.0337,0.0374,613,2019-08-07 16:44:13:757
-5.5015,-7.462,0.5355,-0.3412,-0.3678,0.0688,-0.0112,-0.0337,0.0374,618,2019-08-07 16:44:13:762
-5.5493,-7.5002,0.592,-0.3132,-0.3015,0.0666,-0.0048,-0.0443,0.0491,623,2019-08-07 16:44:13:767
-5.5493,-7.5002,0.592,-0.3132,-0.3015,0.0666,-0.0048,-0.0443,0.0491,627,2019-08-07 16:44:13:771
-5.6307,-7.567,0.5967,-0.3132,-0.3015,0.0666,-0.0069,-0.0475,0.0566,633,2019-08-07 16:44:13:777
-5.6307,-7.567,0.5967,-0.3132,-0.3015,0.0666,-0.0069,-0.0475,0.0566,638,2019-08-07 16:44:13:782
-5.6307,-7.567,0.5967,-0.3132,-0.3015,0.0666,-0.0069,-0.0571,0.0747,643,2019-08-07 16:44:13:787
-5.7311,-7.5145,0.592,-0.1358,-0.3277,0.0665,-0.0069,-0.0571,0.0747,648,2019-08-07 16:44:13:792
-5.7311,-7.5145,0.592,-0.1358,-0.3277,0.0665,-0.0069,-0.0709,0.0811,653,2019-08-07 16:44:13:797
-5.7311,-7.5145,0.592,-0.1358,-0.3277,0.0665,-0.0069,-0.0709,0.0811,657,2019-08-07 16:44:13:801
-5.7646,-7.5622,0.592,-0.1358,-0.3277,0.0665,-0.0058,-0.0848,0.0939,662,2019-08-07 16:44:13:806
-5.7646,-7.5622,0.592,-0.1297,-0.2601,0.0642,-0.0058,-0.0848,0.0939,668,2019-08-07 16:44:13:812
-5.6881,-7.5718,0.4789,-0.1297,-0.2601,0.0642,-0.0016,-0.0741,0.1003,673,2019-08-07 16:44:13:817
-5.6881,-7.5718,0.4789,-0.1297,-0.2601,0.0642,-0.0016,-0.0741,0.1003,678,2019-08-07 16:44:13:822
-5.6881,-7.5718,0.4789,-0.1297,-0.2601,0.0642,0.0112,-0.0454,0.1088,683,2019-08-07 16:44:13:827
-5.6929,-7.4954,0.5496,-0.1884,-0.3289,0.1043,0.0112,-0.0454,0.1088,688,2019-08-07 16:44:13:832
-5.6929,-7.4954,0.5496,-0.1884,-0.3289,0.1043,0.0112,-0.0454,0.1088,693,2019-08-07 16:44:13:837
-5.7407,-7.4142,0.5449,-0.1884,-0.3289,0.1043,0.0368,-0.0113,0.1248,698,2019-08-07 16:44:13:842
-5.7407,-7.4142,0.5449,-0.1884,-0.3289,0.1043,0.0368,-0.0113,0.1248,702,2019-08-07 16:44:13:846
-5.7407,-7.4142,0.5449,-0.1415,-0.5041,0.0692,0.0645,0.0026,0.1524,708,2019-08-07 16:44:13:852
-5.8316,-7.2519,0.5826,-0.1415,-0.5041,0.0692,0.0645,0.0026,0.1524,712,2019-08-07 16:44:13:856
-5.8316,-7.2519,0.5826,-0.1415,-0.5041,0.0692,0.0879,0.009,0.178,718,2019-08-07 16:44:13:862
-5.913,-7.228,0.6863,-0.1415,-0.5041,0.0692,0.0879,0.009,0.178,723,2019-08-07 16:44:13:867
-5.913,-7.228,0.6863,0.0118,-0.596,-0.0131,0.1071,-0.007,0.2036,728,2019-08-07 16:44:13:872
-5.913,-7.228,0.6863,0.0118,-0.596,-0.0131,0.1071,-0.007,0.2036,734,2019-08-07 16:44:13:878
-6.0517,-7.1994,0.8513,0.0118,-0.596,-0.0131,0.1177,-0.0454,0.2238,738,2019-08-07 16:44:13:882
-6.0517,-7.1994,0.8513,0.0118,-0.596,-0.0131,0.1177,-0.0454,0.2238,743,2019-08-07 16:44:13:887
-6.1857,-7.3187,0.7664,0.1668,-0.4468,-0.1127,0.1167,-0.1157,0.2441,748,2019-08-07 16:44:13:892
-6.1857,-7.3187,0.7664,0.1668,-0.4468,-0.1127,0.1167,-0.1157,0.2441,753,2019-08-07 16:44:13:897
-6.1857,-7.3187,0.7664,0.1668,-0.4468,-0.1127,0.1124,-0.1657,0.2462,758,2019-08-07 16:44:13:902
-6.1235,-7.4381,0.724,0.1668,-0.4468,-0.1127,0.1124,-0.1657,0.2462,763,2019-08-07 16:44:13:907
-6.1235,-7.4381,0.724,0.1,-0.2278,0.0038,0.1124,-0.2116,0.2494,768,2019-08-07 16:44:13:912
-6.0374,-7.5097,0.6156,0.1,-0.2278,0.0038,0.1124,-0.2116,0.2494,773,2019-08-07 16:44:13:917
-6.0374,-7.5097,0.6156,0.1,-0.2278,0.0038,0.1167,-0.2084,0.2409,778,2019-08-07 16:44:13:922
-6.0374,-7.5097,0.6156,0.1,-0.2278,0.0038,0.1167,-0.2084,0.2409,784,2019-08-07 16:44:13:928
-5.8651,-7.5813,0.5826,-0.1746,-0.11,0.1925,0.1188,-0.1711,0.2419,788,2019-08-07 16:44:13:932
-5.8651,-7.5813,0.5826,-0.1746,-0.11,0.1925,0.1188,-0.1711,0.2419,793,2019-08-07 16:44:13:937
-5.7312,-7.5383,0.4412,-0.3255,-0.1378,0.3522,0.1188,-0.1711,0.2419,798,2019-08-07 16:44:13:942
-5.7312,-7.5383,0.4412,-0.3255,-0.1378,0.3522,0.1305,-0.0922,0.2377,803,2019-08-07 16:44:13:947
-5.7312,-7.5383,0.4412,-0.3255,-0.1378,0.3522,0.1305,-0.0922,0.2377,807,2019-08-07 16:44:13:951
-5.7647,-7.4811,0.5307,-0.3255,-0.1378,0.3522,0.1476,0.0164,0.2291,813,2019-08-07 16:44:13:957
-5.7647,-7.4811,0.5307,-0.231,-0.1507,0.1974,0.1476,0.0164,0.2291,818,2019-08-07 16:44:13:962
-6.0565,-7.4954,0.6533,-0.231,-0.1507,0.1974,0.1454,0.0729,0.2121,823,2019-08-07 16:44:13:967
-6.0565,-7.4954,0.6533,-0.231,-0.1507,0.1974,0.1454,0.0729,0.2121,828,2019-08-07 16:44:13:972
-6.0565,-7.4954,0.6533,-0.231,-0.1507,0.1974,0.1326,0.0707,0.1919,833,2019-08-07 16:44:13:977
-6.3149,-7.4094,0.9267,0.1897,-0.2082,-0.0957,0.1326,0.0707,0.1919,838,2019-08-07 16:44:13:982
-6.3149,-7.4094,0.9267,0.1897,-0.2082,-0.0957,0.1326,0.0707,0.1919,843,2019-08-07 16:44:13:987
-6.4249,-7.4142,0.9738,0.1897,-0.2082,-0.0957,0.1145,-0.0038,0.162,848,2019-08-07 16:44:13:992
-6.4249,-7.4142,0.9738,0.1897,-0.2082,-0.0957,0.1145,-0.0038,0.162,853,2019-08-07 16:44:13:997
-6.4249,-7.4142,0.9738,0.2213,-0.2041,-0.0422,0.0805,-0.1157,0.1226,857,2019-08-07 16:44:14:001
-6.3292,-7.4476,0.9597,0.2213,-0.2041,-0.0422,0.0805,-0.1157,0.1226,863,2019-08-07 16:44:14:007
-6.3292,-7.4476,0.9597,0.2213,-0.2041,-0.0422,0.0464,-0.1839,0.1013,867,2019-08-07 16:44:14:011
-6.3292,-7.4476,0.9597,0.2213,-0.2041,-0.0422,0.0464,-0.1839,0.1013,873,2019-08-07 16:44:14:017
-6.1713,-7.4333,0.8654,-0.0272,-0.1511,0.0494,0.0283,-0.2243,0.0811,878,2019-08-07 16:44:14:022
-6.1713,-7.4333,0.8654,-0.0272,-0.1511,0.0494,0.0283,-0.2243,0.0811,884,2019-08-07 16:44:14:028
-5.9608,-7.3617,0.6957,-0.0272,-0.1511,0.0494,0.0283,-0.2243,0.0811,888,2019-08-07 16:44:14:032
-5.9608,-7.3617,0.6957,-0.0272,-0.1511,0.0494,0.0144,-0.2286,0.0619,893,2019-08-07 16:44:14:037
-5.9608,-7.3617,0.6957,-0.3824,-0.2764,0.3338,0.0144,-0.2286,0.0619,898,2019-08-07 16:44:14:042
-5.7647,-7.2758,0.5826,-0.3824,-0.2764,0.3338,0.0112,-0.1988,0.0481,903,2019-08-07 16:44:14:047
-5.7647,-7.2758,0.5826,-0.3824,-0.2764,0.3338,0.0112,-0.1988,0.0481,908,2019-08-07 16:44:14:052
-5.5063,-7.1182,0.526,-0.3824,-0.2764,0.3338,0.0069,-0.1327,0.0331,913,2019-08-07 16:44:14:057
-5.5063,-7.1182,0.526,-0.7333,-0.4542,0.404,0.0069,-0.1327,0.0331,918,2019-08-07 16:44:14:062
-5.5063,-7.1182,0.526,-0.7333,-0.4542,0.404,0.0187,-0.0209,0.0246,923,2019-08-07 16:44:14:067
-5.4298,-7.0275,0.5402,-0.7333,-0.4542,0.404,0.0187,-0.0209,0.0246,928,2019-08-07 16:44:14:072
-5.4298,-7.0275,0.5402,-0.7333,-0.4542,0.404,0.0453,0.0718,0.0321,932,2019-08-07 16:44:14:076
-5.602,-6.9846,0.8324,-0.574,-0.5802,0.0985,0.0453,0.0718,0.0321,938,2019-08-07 16:44:14:082
-5.602,-6.9846,0.8324,-0.574,-0.5802,0.0985,0.0623,0.1176,0.0417,943,2019-08-07 16:44:14:087
-5.602,-6.9846,0.8324,-0.574,-0.5802,0.0985,0.0623,0.1176,0.0417,948,2019-08-07 16:44:14:092
-6.047,-6.913,1.1247,-0.574,-0.5802,0.0985,0.0538,0.0867,0.0534,953,2019-08-07 16:44:14:097
-6.047,-6.913,1.1247,-0.114,-0.6306,-0.2244,0.0538,0.0867,0.0534,958,2019-08-07 16:44:14:102
-6.047,-6.913,1.1247,-0.114,-0.6306,-0.2244,0.0325,-0.0123,0.0704,963,2019-08-07 16:44:14:107
-6.0613,-6.9512,1.1482,-0.1308,-0.5955,-0.2301,0.0325,-0.0123,0.0704,967,2019-08-07 16:44:14:111
-6.0613,-6.9512,1.1482,-0.1308,-0.5955,-0.2301,0.0123,-0.1157,0.0789,973,2019-08-07 16:44:14:117
-6.0613,-6.9512,1.1482,-0.1308,-0.5955,-0.2301,0.0123,-0.1157,0.0789,977,2019-08-07 16:44:14:121
-5.9321,-7.0514,1.1105,-0.1308,-0.5955,-0.2301,6.0E-4,-0.186,0.0853,983,2019-08-07 16:44:14:127
-5.9321,-7.0514,1.1105,-0.4948,-0.3509,-0.1245,6.0E-4,-0.186,0.0853,988,2019-08-07 16:44:14:132
-5.6547,-7.2424,1.0681,-0.4948,-0.3509,-0.1245,6.0E-4,-0.186,0.0853,993,2019-08-07 16:44:14:137
-5.6547,-7.2424,1.0681,-0.4948,-0.3509,-0.1245,-0.0026,-0.2041,0.0896,997,2019-08-07 16:44:14:141
-5.6547,-7.2424,1.0681,-0.4948,-0.3509,-0.1245,-0.0026,-0.2041,0.0896,1003,2019-08-07 16:44:14:147
-5.5925,-7.1946,0.9125,-0.661,-0.3027,0.0832,-0.0058,-0.1657,0.0928,1008,2019-08-07 16:44:14:152
-5.5925,-7.1946,0.9125,-0.661,-0.3027,0.0832,-0.0058,-0.1657,0.0928,1012,2019-08-07 16:44:14:156
-5.5398,-7.2424,0.8371,-0.661,-0.3027,0.0832,-0.008,-0.105,0.1013,1018,2019-08-07 16:44:14:162
-5.5398,-7.2424,0.8371,-0.661,-0.3027,0.0832,-0.008,-0.105,0.1013,1023,2019-08-07 16:44:14:167
-5.559,-7.2328,0.823,-0.6621,-0.2879,0.1639,-0.0112,-0.0347,0.0949,1028,2019-08-07 16:44:14:172
-5.559,-7.2328,0.823,-0.6621,-0.2879,0.1639,-0.0112,-0.0347,0.0949,1034,2019-08-07 16:44:14:178
-5.559,-7.2328,0.823,-0.6621,-0.2879,0.1639,-0.009,0.0409,0.0885,1038,2019-08-07 16:44:14:182
-5.7551,-7.2137,0.8654,-0.6621,-0.2879,0.1639,-0.009,0.0409,0.0885,1043,2019-08-07 16:44:14:187
-5.7551,-7.2137,0.8654,-0.3735,-0.2923,0.0592,-0.0069,0.0729,0.0853,1049,2019-08-07 16:44:14:193
-5.7551,-7.2137,0.8654,-0.3735,-0.2923,0.0592,-0.0069,0.0729,0.0853,1052,2019-08-07 16:44:14:196
-5.9513,-7.2137,1.0634,-0.3735,-0.2923,0.0592,-0.0069,0.0729,0.0853,1057,2019-08-07 16:44:14:201
-5.9513,-7.2137,1.0634,-0.3735,-0.2923,0.0592,-0.0101,0.0814,0.0821,1063,2019-08-07 16:44:14:207
-6.1474,-7.1898,1.087,-0.3735,-0.2923,0.0592,-0.0101,0.0814,0.0821,1068,2019-08-07 16:44:14:212
-6.1474,-7.1898,1.087,-0.0719,-0.3535,-0.1348,-0.0165,0.0548,0.0747,1072,2019-08-07 16:44:14:216
-6.1474,-7.1898,1.087,-0.0719,-0.3535,-0.1348,-0.0165,0.0548,0.0747,1078,2019-08-07 16:44:14:222
-6.1905,-7.1469,1.2048,-0.0719,-0.3535,-0.1348,-0.025,0.0122,0.0662,1083,2019-08-07 16:44:14:227
-6.1905,-7.1469,1.2048,-0.0719,-0.3535,-0.1348,-0.025,0.0122,0.0662,1088,2019-08-07 16:44:14:232
-6.1666,-7.1803,1.0257,-0.0973,-0.3255,-0.0902,-0.0389,-0.0571,0.0534,1092,2019-08-07 16:44:14:236
-6.1666,-7.1803,1.0257,-0.0973,-0.3255,-0.0902,-0.0389,-0.0571,0.0534,1099,2019-08-07 16:44:14:243
-6.1666,-7.1803,1.0257,-0.0973,-0.3255,-0.0902,-0.0516,-0.0976,0.0459,1102,2019-08-07 16:44:14:246
-6.0757,-7.1994,0.9408,-0.0973,-0.3255,-0.0902,-0.0516,-0.0976,0.0459,1108,2019-08-07 16:44:14:252
-6.0757,-7.1994,0.9408,-0.2323,-0.2676,0.0978,-0.0559,-0.1125,0.0363,1113,2019-08-07 16:44:14:257
-5.937,-7.2615,0.8418,-0.2323,-0.2676,0.0978,-0.0559,-0.1125,0.0363,1118,2019-08-07 16:44:14:262
-5.937,-7.2615,0.8418,-0.2323,-0.2676,0.0978,-0.0634,-0.089,0.0278,1123,2019-08-07 16:44:14:267
-5.937,-7.2615,0.8418,-0.2323,-0.2676,0.0978,-0.0634,-0.089,0.0278,1127,2019-08-07 16:44:14:271
-5.9561,-7.376,0.7523,-0.3107,-0.1082,0.222,-0.0687,-0.0486,0.0236,1133,2019-08-07 16:44:14:277
-5.9561,-7.376,0.7523,-0.3107,-0.1082,0.222,-0.0687,-0.0486,0.0236,1138,2019-08-07 16:44:14:282
-5.9561,-7.376,0.7523,-0.3107,-0.1082,0.222,-0.0687,-0.0486,0.0236,1143,2019-08-07 16:44:14:287
-5.9848,-7.376,0.7994,-0.3107,-0.1082,0.222,-0.0698,-0.0102,0.0246,1148,2019-08-07 16:44:14:292
-5.9848,-7.376,0.7994,-0.2078,-0.0406,0.1705,-0.0698,-0.0102,0.0246,1153,2019-08-07 16:44:14:297
-6.1379,-7.4142,0.8513,-0.2078,-0.0406,0.1705,-0.0676,0.0271,0.0236,1158,2019-08-07 16:44:14:302
-6.1379,-7.4142,0.8513,-0.1855,-0.0258,0.1396,-0.0676,0.0271,0.0236,1163,2019-08-07 16:44:14:307
-6.1379,-7.4142,0.8513,-0.1855,-0.0258,0.1396,-0.0602,0.0313,0.0182,1168,2019-08-07 16:44:14:312
-6.1953,-7.4142,0.9927,-0.1855,-0.0258,0.1396,-0.0602,0.0313,0.0182,1173,2019-08-07 16:44:14:317
-6.1953,-7.4142,0.9927,-0.1855,-0.0258,0.1396,-0.0602,0.0313,0.0182,1178,2019-08-07 16:44:14:322
-6.1953,-7.4142,0.9927,-0.0975,-0.1825,0.0146,-0.0548,0.0015,0.014,1183,2019-08-07 16:44:14:327
-6.1714,-7.3044,0.9267,-0.0975,-0.1825,0.0146,-0.0548,0.0015,0.014,1187,2019-08-07 16:44:14:331
-6.1714,-7.3044,0.9267,-0.0975,-0.1825,0.0146,-0.0527,-0.0241,0.0022,1193,2019-08-07 16:44:14:337
-6.181,-7.2424,0.9408,-0.0975,-0.1825,0.0146,-0.0527,-0.0241,0.0022,1197,2019-08-07 16:44:14:341
-6.181,-7.2424,0.9408,-0.1978,-0.3121,-0.0083,-0.0484,-0.0475,-0.0095,1203,2019-08-07 16:44:14:347
-6.181,-7.2424,0.9408,-0.1978,-0.3121,-0.0083,-0.0484,-0.0475,-0.0095,1208,2019-08-07 16:44:14:352
-6.1044,-7.1898,0.9267,-0.1978,-0.3121,-0.0083,-0.0474,-0.0752,-0.0169,1213,2019-08-07 16:44:14:357
-6.1044,-7.1898,0.9267,-0.1978,-0.3121,-0.0083,-0.0474,-0.0752,-0.0169,1218,2019-08-07 16:44:14:362
-5.9418,-7.1803,0.8701,-0.3279,-0.3055,0.074,-0.0357,-0.0816,-0.0244,1223,2019-08-07 16:44:14:367
-5.9418,-7.1803,0.8701,-0.3279,-0.3055,0.074,-0.0357,-0.0816,-0.0244,1227,2019-08-07 16:44:14:371
-5.9418,-7.1803,0.8701,-0.3279,-0.3055,0.074,-0.0314,-0.0709,-0.0265,1233,2019-08-07 16:44:14:377
-5.7456,-7.1898,0.7853,-0.3279,-0.3055,0.074,-0.0314,-0.0709,-0.0265,1238,2019-08-07 16:44:14:382
-5.7456,-7.1898,0.7853,-0.5176,-0.2483,0.139,-0.0314,-0.0709,-0.0265,1243,2019-08-07 16:44:14:387
-5.7456,-7.1898,0.7853,-0.5176,-0.2483,0.139,-0.0282,-0.0464,-0.0265,1248,2019-08-07 16:44:14:392
-5.7073,-7.2996,0.7947,-0.5176,-0.2483,0.139,-0.0282,-0.0464,-0.0265,1252,2019-08-07 16:44:14:396
-5.7073,-7.2996,0.7947,-0.5176,-0.2483,0.139,-0.0197,-0.0123,-0.0201,1258,2019-08-07 16:44:14:402
-5.7073,-7.2996,0.7947,-0.5933,-0.2007,0.147,-0.0197,-0.0123,-0.0201,1263,2019-08-07 16:44:14:407
-5.6499,-7.3092,0.8041,-0.5933,-0.2007,0.147,-0.0101,0.0058,-0.0063,1268,2019-08-07 16:44:14:412
-5.6499,-7.3092,0.8041,-0.5933,-0.2007,0.147,-0.0101,0.0058,-0.0063,1273,2019-08-07 16:44:14:417
-5.6499,-7.3092,0.8041,-0.5933,-0.2007,0.147,-0.0016,0.0249,0.0065,1277,2019-08-07 16:44:14:421
-5.6547,-7.2758,0.823,-0.6398,-0.2739,0.1577,-0.0016,0.0249,0.0065,1283,2019-08-07 16:44:14:427
-5.6547,-7.2758,0.823,-0.6398,-0.2739,0.1577,0.0059,0.0409,0.0267,1288,2019-08-07 16:44:14:432
-5.6643,-7.1707,0.8041,-0.6398,-0.2739,0.1577,0.0059,0.0409,0.0267,1293,2019-08-07 16:44:14:437
-5.6643,-7.1707,0.8041,-0.6398,-0.2739,0.1577,0.0123,0.0484,0.047,1298,2019-08-07 16:44:14:442
-5.6834,-7.123,0.8088,-0.5781,-0.3703,0.129,0.0123,0.0484,0.047,1303,2019-08-07 16:44:14:447
-5.6834,-7.123,0.8088,-0.5781,-0.3703,0.129,0.0123,0.0484,0.047,1307,2019-08-07 16:44:14:451
-5.6834,-7.123,0.8088,-0.5781,-0.3703,0.129,0.0219,0.059,0.0736,1313,2019-08-07 16:44:14:457
-5.736,-7.0323,0.7711,-0.5781,-0.3703,0.129,0.0251,0.0675,0.0949,1319,2019-08-07 16:44:14:463
-5.736,-7.0323,0.7711,-0.4808,-0.4128,0.1522,0.0251,0.0675,0.0949,1323,2019-08-07 16:44:14:467
-5.736,-7.0466,0.7428,-0.4808,-0.4128,0.1522,0.0251,0.0675,0.0949,1328,2019-08-07 16:44:14:472
-5.7887,-7.0466,0.7428,-0.4808,-0.4128,0.1522,0.0272,0.0707,0.1141,1333,2019-08-07 16:44:14:477
-5.7887,-7.0466,0.7428,-0.4808,-0.4128,0.1522,0.0272,0.0707,0.1141,1338,2019-08-07 16:44:14:482
-5.8413,-7.0132,0.7947,-0.4808,-0.4128,0.1522,0.0283,0.0729,0.129,1343,2019-08-07 16:44:14:487
-5.8413,-7.0132,0.7947,-0.4085,-0.417,0.2078,0.0283,0.0729,0.129,1348,2019-08-07 16:44:14:492
-5.8413,-7.0132,0.7947,-0.4085,-0.417,0.2078,0.0325,0.0782,0.1439,1352,2019-08-07 16:44:14:496
-5.9083,-7.018,0.7758,-0.4085,-0.417,0.2078,0.0325,0.0782,0.1439,1358,2019-08-07 16:44:14:502
-5.9083,-7.018,0.7758,-0.4085,-0.417,0.2078,0.0314,0.0793,0.1556,1363,2019-08-07 16:44:14:507
-5.7983,-7.0228,0.7193,-0.4747,-0.465,0.1829,0.0314,0.0793,0.1556,1368,2019-08-07 16:44:14:512
-5.7983,-7.0228,0.7193,-0.4747,-0.465,0.1829,0.0357,0.0878,0.1738,1373,2019-08-07 16:44:14:517
-5.7983,-7.0228,0.7193,-0.4747,-0.465,0.1829,0.0357,0.0878,0.1738,1378,2019-08-07 16:44:14:522
-5.6117,-6.9511,0.5024,-0.4747,-0.465,0.1829,0.0325,0.1155,0.1897,1383,2019-08-07 16:44:14:527
-5.6117,-6.9511,0.5024,-0.8128,-0.5003,0.4146,0.0325,0.1155,0.1897,1388,2019-08-07 16:44:14:532
-5.6117,-6.9511,0.5024,-0.8128,-0.5003,0.4146,0.0314,0.1624,0.2164,1393,2019-08-07 16:44:14:537
-5.4155,-6.9225,0.2903,-0.8128,-0.5003,0.4146,0.0314,0.1624,0.2164,1398,2019-08-07 16:44:14:542
-5.4155,-6.9225,0.2903,-0.8128,-0.5003,0.4146,0.0602,0.2401,0.2536,1404,2019-08-07 16:44:14:548
-5.4155,-6.9225,0.2903,-1.1434,-0.5357,0.4077,0.0602,0.2401,0.2536,1408,2019-08-07 16:44:14:552
-5.2672,-6.8032,0.5637,-1.1434,-0.5357,0.4077,0.0602,0.2401,0.2536,1413,2019-08-07 16:44:14:557
-5.2672,-6.8032,0.5637,-1.1475,-0.7462,0.212,0.1188,0.303,0.325,1418,2019-08-07 16:44:14:562
-5.1907,-6.426,0.6863,-1.1475,-0.7462,0.212,0.1188,0.303,0.325,1422,2019-08-07 16:44:14:566
-5.1907,-6.426,0.6863,-1.1475,-0.7462,0.212,0.1923,0.3541,0.4433,1428,2019-08-07 16:44:14:572
-4.9849,-5.9534,0.7853,-1.1475,-0.7462,0.212,0.1923,0.3541,0.4433,1433,2019-08-07 16:44:14:577
-4.9849,-5.9534,0.7853,-1.5081,-1.4471,0.0489,0.2157,0.3328,0.5636,1437,2019-08-07 16:44:14:581
-4.9849,-5.9534,0.7853,-1.5081,-1.4471,0.0489,0.2157,0.3328,0.5636,1443,2019-08-07 16:44:14:587
-4.5496,-5.5381,0.6014,-1.9674,-1.744,0.2568,0.2221,0.303,0.6808,1448,2019-08-07 16:44:14:592
-4.5496,-5.5381,0.6014,-1.9674,-1.744,0.2568,0.2221,0.303,0.6808,1453,2019-08-07 16:44:14:597
-4.5496,-5.5381,0.6014,-1.9674,-1.744,0.2568,0.2509,0.2795,0.9109,1458,2019-08-07 16:44:14:602
-3.2674,-4.8889,-0.0585,-1.9674,-1.744,0.2568,0.2509,0.2795,0.9109,1463,2019-08-07 16:44:14:607
-3.2674,-4.8889,-0.0585,-3.8283,-2.6153,1.1605,0.3489,0.303,1.1889,1468,2019-08-07 16:44:14:612
-3.2674,-4.8889,-0.0585,-3.8283,-2.6153,1.1605,0.3489,0.303,1.1889,1473,2019-08-07 16:44:14:617
-1.5212,-3.7002,-0.4592,-3.8283,-2.6153,1.1605,0.5343,0.4191,1.5746,1478,2019-08-07 16:44:14:622
-1.5212,-3.7002,-0.4592,-3.8283,-2.6153,1.1605,0.5343,0.4191,1.5746,1483,2019-08-07 16:44:14:627
0.0672,-2.12,0.3846,-6.8386,-4.4834,0.4509,0.791,0.5086,2.0113,1488,2019-08-07 16:44:14:632
0.0672,-2.12,0.3846,-6.8386,-4.4834,0.4509,0.791,0.5086,2.0113,1493,2019-08-07 16:44:14:637
0.0672,-2.12,0.3846,-6.8386,-4.4834,0.4509,1.0051,0.549,2.6132,1498,2019-08-07 16:44:14:642
0.56,-0.4588,0.7051,-6.8386,-4.4834,0.4509,1.0051,0.549,2.6132,1503,2019-08-07 16:44:14:647
0.56,-0.4588,0.7051,-7.9542,-6.5931,-9.0E-4,1.134,0.5512,3.573,1508,2019-08-07 16:44:14:652
1.0049,0.2048,1.2284,-7.9542,-6.5931,-9.0E-4,1.134,0.5512,3.573,1512,2019-08-07 16:44:14:656
1.0049,0.2048,1.2284,-7.9542,-6.5931,-9.0E-4,1.134,0.5512,3.573,1518,2019-08-07 16:44:14:662
1.0049,0.2048,1.2284,-7.9542,-6.5931,-9.0E-4,1.1606,0.4734,4.2857,1522,2019-08-07 16:44:14:666
1.0049,0.2048,1.2284,-7.9542,-6.5931,-9.0E-4,1.1606,0.4734,4.2857,1528,2019-08-07 16:44:14:672
1.0097,0.644,1.7469,-8.6867,-6.6518,-0.6483,1.1415,0.3126,4.7555,1534,2019-08-07 16:44:14:678
1.0097,0.644,1.7469,-8.6867,-6.6518,-0.6483,1.0136,-0.055,5.5363,1538,2019-08-07 16:44:14:682
0.3973,1.3219,1.1105,-8.6867,-6.6518,-0.6483,1.0136,-0.055,5.5363,1543,2019-08-07 16:44:14:687
0.3973,1.3219,1.1105,-8.6537,-6.643,0.109,1.0136,-0.055,5.5363,1548,2019-08-07 16:44:14:692
0.2825,1.6656,1.0257,-8.6537,-6.643,0.109,0.9018,-0.4949,6.1989,1553,2019-08-07 16:44:14:697
0.2825,1.6656,1.0257,-8.6537,-6.643,0.109,0.9018,-0.4949,6.1989,1558,2019-08-07 16:44:14:702
0.2825,1.6656,1.0257,-8.6537,-6.643,0.109,0.9199,-0.9903,7.0213,1563,2019-08-07 16:44:14:707
0.3399,1.6274,0.7287,-9.1833,-5.5739,0.8341,0.9199,-0.9903,7.0213,1568,2019-08-07 16:44:14:712
0.3399,1.6274,0.7287,-9.1833,-5.5739,0.8341,0.9902,-1.3844,7.6743,1573,2019-08-07 16:44:14:717
0.3399,1.6274,0.7287,-9.1833,-5.5739,0.8341,0.9902,-1.3844,7.6743,1577,2019-08-07 16:44:14:721
0.1342,1.6322,0.6815,-9.1833,-5.5739,0.8341,1.1031,-1.72,8.2676,1584,2019-08-07 16:44:14:728
0.1342,1.6322,0.6815,-9.218,-4.2039,0.0504,1.1031,-1.72,8.2676,1588,2019-08-07 16:44:14:732
-0.3921,2.0666,2.19,-9.218,-4.2039,0.0504,1.1031,-1.72,8.2676,1593,2019-08-07 16:44:14:737
-0.3921,2.0666,2.19,-9.218,-4.2039,0.0504,1.3556,-2.3389,8.9803,1598,2019-08-07 16:44:14:742
-0.3921,2.0666,2.19,-9.218,-4.2039,0.0504,1.3556,-2.3389,8.9803,1604,2019-08-07 16:44:14:748
-0.3921,2.4867,1.7657,-9.106,-3.0584,0.741,1.6965,-2.831,9.677,1608,2019-08-07 16:44:14:752
-0.3921,2.4867,1.7657,-9.106,-3.0584,0.741,1.6965,-2.831,9.677,1613,2019-08-07 16:44:14:757
-0.2773,2.8829,1.1105,-9.106,-3.0584,0.741,1.9937,-3.1336,10.1798,1618,2019-08-07 16:44:14:762
-0.2773,2.8829,1.1105,-9.106,-3.0584,0.741,1.9937,-3.1336,10.1798,1624,2019-08-07 16:44:14:768
-0.2773,2.8829,1.1105,-9.106,-3.0584,0.741,1.9937,-3.1336,10.1798,1628,2019-08-07 16:44:14:772
-0.5596,3.2171,0.328,-8.9533,-1.4785,2.5206,2.3345,-3.2241,10.6101,1633,2019-08-07 16:44:14:777
-0.5596,3.2171,0.328,-8.9533,-1.4785,2.5206,2.3345,-3.2241,10.6101,1637,2019-08-07 16:44:14:781
-0.5596,3.2171,0.328,-8.9533,-1.4785,2.5206,2.9801,-3.3722,11.0341,1643,2019-08-07 16:44:14:787
-3.6454,4.6397,1.629,-2.7399,-1.6698,0.5797,2.9801,-3.3722,11.0341,1649,2019-08-07 16:44:14:793
-3.6454,4.6397,1.629,-2.7399,-1.6698,0.5797,3.9356,-3.9677,11.3494,1653,2019-08-07 16:44:14:797
-10.1472,7.4467,4.9334,-2.7399,-1.6698,0.5797,3.9356,-3.9677,11.3494,1658,2019-08-07 16:44:14:802
-10.1472,7.4467,4.9334,-2.7399,-1.6698,0.5797,3.9356,-3.9677,11.3494,1662,2019-08-07 16:44:14:806
-10.1472,7.4467,4.9334,7.8302,-6.268,-3.7267,4.7431,-4.9062,11.4655,1668,2019-08-07 16:44:14:812
-15.8213,13.7338,7.823,7.8302,-6.268,-3.7267,4.7431,-4.9062,11.4655,1673,2019-08-07 16:44:14:817
-15.8213,13.7338,7.823,7.8302,-6.268,-3.7267,5.9671,-6.4263,11.2429,1677,2019-08-07 16:44:14:821
-15.7065,18.8514,7.8701,7.8302,-6.268,-3.7267,5.9671,-6.4263,11.2429,1683,2019-08-07 16:44:14:827
-15.7065,18.8514,7.8701,8.6138,-15.5282,-6.1716,7.2784,-7.7067,10.5111,1688,2019-08-07 16:44:14:832
-15.7065,18.8514,7.8701,8.6138,-15.5282,-6.1716,7.2784,-7.7067,10.5111,1693,2019-08-07 16:44:14:837
-12.0848,26.7329,9.1711,8.6138,-15.5282,-6.1716,8.2095,-9.0628,9.6748,1698,2019-08-07 16:44:14:842
-12.0848,26.7329,9.1711,8.6138,-15.5282,-6.1716,8.2095,-9.0628,9.6748,1703,2019-08-07 16:44:14:847
-3.0809,37.9323,-6.8558,0.4122,-28.9329,9.7064,8.7304,-8.3512,8.2825,1708,2019-08-07 16:44:14:852
-3.0809,37.9323,-6.8558,0.4122,-28.9329,9.7064,8.7304,-8.3512,8.2825,1712,2019-08-07 16:44:14:856
-3.0809,37.9323,-6.8558,0.4122,-28.9329,9.7064,7.4808,-3.6289,7.2908,1718,2019-08-07 16:44:14:862
1.5598,37.2306,-17.608,0.4122,-28.9329,9.7064,7.4808,-3.6289,7.2908,1723,2019-08-07 16:44:14:867
1.5598,37.2306,-17.608,0.4122,-28.9329,9.7064,4.1519,0.3275,6.2095,1727,2019-08-07 16:44:14:871
1.5598,37.2306,-17.608,-3.4273,-21.8617,21.4812,4.1519,0.3275,6.2095,1733,2019-08-07 16:44:14:877
2.6076,28.0887,-16.604,-3.4273,-21.8617,21.4812,4.1519,0.3275,6.2095,1738,2019-08-07 16:44:14:882
2.6076,28.0887,-16.604,-3.4273,-21.8617,21.4812,-1.0892,2.2822,3.7743,1742,2019-08-07 16:44:14:886
-3.1144,22.4604,1.8411,-3.4273,-21.8617,21.4812,-1.0892,2.2822,3.7743,1748,2019-08-07 16:44:14:892
-3.1144,22.4604,1.8411,4.6907,-11.9734,-4.2746,-3.8557,2.4942,1.7972,1753,2019-08-07 16:44:14:897
-3.1144,22.4604,1.8411,4.6907,-11.9734,-4.2746,-3.8557,2.4942,1.7972,1757,2019-08-07 16:44:14:901
-11.0993,20.3026,46.1274,10.7618,-10.7266,-44.0245,-3.4296,3.3848,0.7703,1763,2019-08-07 16:44:14:907
-11.0993,20.3026,46.1274,10.7618,-10.7266,-44.0245,-3.4296,3.3848,0.7703,1769,2019-08-07 16:44:14:913
-11.0993,20.3026,46.1274,10.7618,-10.7266,-44.0245,1.754,1.9158,-0.0787,1773,2019-08-07 16:44:14:917
-7.7503,5.5658,26.6829,10.7618,-10.7266,-44.0245,1.754,1.9158,-0.0787,1778,2019-08-07 16:44:14:922
-7.7503,5.5658,26.6829,10.2221,2.5198,-8.7876,1.7614,0.6151,-1.0375,1784,2019-08-07 16:44:14:928
-7.3436,9.9721,4.4714,10.2221,2.5198,-8.7876,1.7614,0.6151,-1.0375,1787,2019-08-07 16:44:14:931
-7.3436,9.9721,4.4714,10.2221,2.5198,-8.7876,1.7614,0.6151,-1.0375,1793,2019-08-07 16:44:14:937
-7.3436,9.9721,4.4714,10.2221,2.5198,-8.7876,-0.449,-0.6771,-1.8758,1797,2019-08-07 16:44:14:941
-4.5114,18.1114,3.1987,3.7532,-8.5403,-1.1851,-0.449,-0.6771,-1.8758,1803,2019-08-07 16:44:14:947
-4.5114,18.1114,3.1987,3.7532,-8.5403,-1.1851,-2.4368,-0.284,-2.221,1808,2019-08-07 16:44:14:952
-1.2581,19.9971,2.3267,0.3123,-10.4846,-0.1234,-2.4368,-0.284,-2.221,1813,2019-08-07 16:44:14:957
-1.2581,19.9971,2.3267,0.3123,-10.4846,-0.1234,-3.1132,1.8124,-2.6833,1818,2019-08-07 16:44:14:962
-1.2581,19.9971,2.3267,0.3123,-10.4846,-0.1234,-3.1132,1.8124,-2.6833,1823,2019-08-07 16:44:14:967
0.1533,15.5336,8.1718,0.3123,-10.4846,-0.1234,-3.2229,2.9587,-3.4844,1828,2019-08-07 16:44:14:972
0.1533,15.5336,8.1718,0.1456,-4.8846,-5.2557,-3.2229,2.9587,-3.4844,1833,2019-08-07 16:44:14:977
-5.0759,13.3567,7.8324,0.1456,-4.8846,-5.2557,-3.338,4.0005,-4.4122,1838,2019-08-07 16:44:14:982
-5.0759,13.3567,7.8324,0.1456,-4.8846,-5.2557,-3.338,4.0005,-4.4122,1843,2019-08-07 16:44:14:987
-5.0759,13.3567,7.8324,0.1456,-4.8846,-5.2557,-3.5979,4.3116,-5.356,1848,2019-08-07 16:44:14:992
-5.0759,13.3567,7.8324,0.1456,-4.8846,-5.2557,-3.5979,4.3116,-5.356,1853,2019-08-07 16:44:14:997
-10.329,15.3999,7.6815,7.6712,-6.5238,-4.4586,-3.5979,4.3116,-5.356,1858,2019-08-07 16:44:15:002
-10.329,15.3999,7.6815,7.6712,-6.5238,-4.4586,-3.8919,3.8386,-6.3819,1863,2019-08-07 16:44:15:007
-15.0511,17.9491,7.3657,7.6712,-6.5238,-4.4586,-3.8919,3.8386,-6.3819,1868,2019-08-07 16:44:15:012
-15.0511,17.9491,7.3657,11.8593,-9.838,-3.4351,-4.1785,3.0982,-6.8911,1872,2019-08-07 16:44:15:016
-16.1371,17.5147,6.8943,11.8593,-9.838,-3.4351,-4.1785,3.0982,-6.8911,1878,2019-08-07 16:44:15:022
-16.1371,17.5147,6.8943,11.8593,-9.838,-3.4351,-4.5513,2.1682,-7.0594,1883,2019-08-07 16:44:15:027
-16.1371,17.5147,6.8943,11.8593,-9.838,-3.4351,-4.5513,2.1682,-7.0594,1888,2019-08-07 16:44:15:032
-14.0177,14.0346,6.1213,8.7031,-6.8875,-2.0091,-4.5513,2.1682,-7.0594,1893,2019-08-07 16:44:15:037
-14.0177,14.0346,6.1213,8.7031,-6.8875,-2.0091,-4.9604,1.1531,-6.9369,1898,2019-08-07 16:44:15:042
-11.1758,11.1798,6.7859,8.7031,-6.8875,-2.0091,-4.9604,1.1531,-6.9369,1903,2019-08-07 16:44:15:047
-11.1758,11.1798,6.7859,8.7031,-6.8875,-2.0091,-4.8645,0.8228,-6.7015,1907,2019-08-07 16:44:15:051
-11.1758,11.1798,6.7859,3.4165,-3.9168,-2.6774,-4.8645,0.8228,-6.7015,1913,2019-08-07 16:44:15:057
-9.1282,9.4231,7.4176,3.4165,-3.9168,-2.6774,-4.4427,0.9304,-6.5896,1918,2019-08-07 16:44:15:062
-9.1282,9.4231,7.4176,3.4165,-3.9168,-2.6774,-4.4427,0.9304,-6.5896,1922,2019-08-07 16:44:15:066
-7.1666,7.3512,4.2122,3.4165,-3.9168,-2.6774,-3.7843,1.0178,-6.5278,1928,2019-08-07 16:44:15:072
-7.1666,7.3512,4.2122,-0.7097,-2.0968,2.2287,-3.7843,1.0178,-6.5278,1934,2019-08-07 16:44:15:078
-7.1666,7.3512,4.2122,-0.7097,-2.0968,2.2287,-3.7843,1.0178,-6.5278,1938,2019-08-07 16:44:15:082
-5.119,5.7806,1.5017,-0.7097,-2.0968,2.2287,-3.7779,1.3693,-6.5427,1943,2019-08-07 16:44:15:087
-5.119,5.7806,1.5017,-0.7097,-2.0968,2.2287,-3.7779,1.3693,-6.5427,1949,2019-08-07 16:44:15:093
-4.2722,3.9761,0.9031,-3.4962,-0.7037,4.1148,-3.9239,1.6548,-6.6162,1953,2019-08-07 16:44:15:097
-4.2722,3.9761,0.9031,-3.4962,-0.7037,4.1148,-3.9239,1.6548,-6.6162,1957,2019-08-07 16:44:15:101
-4.2722,3.9761,0.9031,-3.4962,-0.7037,4.1148,-3.9548,2.1864,-6.6205,1963,2019-08-07 16:44:15:107
-4.631,2.3387,2.6519,-3.4962,-0.7037,4.1148,-3.9548,2.1864,-6.6205,1968,2019-08-07 16:44:15:112
-4.631,2.3387,2.6519,-3.4707,0.3098,1.08,-3.5446,2.4868,-6.58,1973,2019-08-07 16:44:15:117
-4.631,2.3387,2.6519,-3.4707,0.3098,1.08,-3.5446,2.4868,-6.58,1978,2019-08-07 16:44:15:122
-5.2147,0.9495,3.2694,-3.4707,0.3098,1.08,-3.5446,2.4868,-6.58,1983,2019-08-07 16:44:15:127
-5.2147,0.9495,3.2694,-3.2546,0.2224,1.7,-2.9886,2.6434,-6.547,1988,2019-08-07 16:44:15:132
-5.2147,0.9495,3.2694,-3.2546,0.2224,1.7,-2.9886,2.6434,-6.547,1993,2019-08-07 16:44:15:137
-5.2482,0.8302,1.728,-3.2546,0.2224,1.7,-2.6349,2.6785,-6.5193,1998,2019-08-07 16:44:15:142
-5.2482,0.8302,1.728,-3.8106,-1.2181,2.5412,-2.6349,2.6785,-6.5193,2003,2019-08-07 16:44:15:147
-5.2482,0.8302,1.728,-3.8106,-1.2181,2.5412,-2.3366,2.5347,-6.4937,2008,2019-08-07 16:44:15:152
-4.7889,0.9734,1.8364,-3.8106,-1.2181,2.5412,-2.3366,2.5347,-6.4937,2013,2019-08-07 16:44:15:157
-4.7889,0.9734,1.8364,-3.8106,-1.2181,2.5412,-2.0533,2.3738,-6.4298,2018,2019-08-07 16:44:15:162
-4.7889,0.9734,1.8364,-4.4714,-2.131,2.2481,-2.0533,2.3738,-6.4298,2023,2019-08-07 16:44:15:167
-4.4205,0.3528,1.3697,-4.4714,-2.131,2.2481,-1.6751,2.2652,-6.2935,2028,2019-08-07 16:44:15:172
-4.4205,0.3528,1.3697,-4.4714,-2.131,2.2481,-1.6751,2.2652,-6.2935,2033,2019-08-07 16:44:15:177
-4.0617,-0.3489,0.8324,-4.4714,-2.131,2.2481,-1.6751,2.2652,-6.2935,2037,2019-08-07 16:44:15:181
-4.0617,-0.3489,0.8324,-4.4714,-2.131,2.2481,-1.3566,2.2886,-6.1092,2043,2019-08-07 16:44:15:187
-4.0617,-0.3489,0.8324,-4.8627,-2.2577,1.9675,-1.3566,2.2886,-6.1092,2048,2019-08-07 16:44:15:192
-4.0186,-0.7977,1.5536,-4.8627,-2.2577,1.9675,-1.1893,2.099,-5.9771,2052,2019-08-07 16:44:15:196
-4.0186,-0.7977,1.5536,-4.8627,-2.2577,1.9675,-1.1893,2.099,-5.9771,2058,2019-08-07 16:44:15:202
-4.2339,-1.0889,1.4357,-4.8627,-2.2577,1.9675,-0.8825,1.8955,-5.6756,2063,2019-08-07 16:44:15:207
-4.2339,-1.0889,1.4357,-4.2769,-2.7541,1.2958,-0.8825,1.8955,-5.6756,2068,2019-08-07 16:44:15:212
-4.2339,-1.0889,1.4357,-4.2769,-2.7541,1.2958,-0.6525,1.6953,-5.3933,2073,2019-08-07 16:44:15:217
-4.1957,-1.2512,1.497,-4.2769,-2.7541,1.2958,-0.6525,1.6953,-5.3933,2078,2019-08-07 16:44:15:222
-4.1957,-1.2512,1.497,-4.1536,-3.6476,0.9628,-0.466,1.4673,-5.0823,2083,2019-08-07 16:44:15:227
-4.033,-1.17,1.6054,-4.1536,-3.6476,0.9628,-0.466,1.4673,-5.0823,2088,2019-08-07 16:44:15:232
-4.033,-1.17,1.6054,-4.1536,-3.6476,0.9628,-0.3116,1.1626,-4.7339,2093,2019-08-07 16:44:15:237
-4.033,-1.17,1.6054,-3.9357,-4.1919,0.7269,-0.3116,1.1626,-4.7339,2097,2019-08-07 16:44:15:241
-4.0665,-1.0459,1.6431,-3.9357,-4.1919,0.7269,-0.3116,1.1626,-4.7339,2104,2019-08-07 16:44:15:248
-4.0665,-1.0459,1.6431,-3.9357,-4.1919,0.7269,-0.2391,0.8068,-4.2695,2107,2019-08-07 16:44:15:251
-4.0186,-1.1319,1.6337,-3.9357,-4.1919,0.7269,-0.2391,0.8068,-4.2695,2113,2019-08-07 16:44:15:257
-4.0186,-1.1319,1.6337,-3.5226,-4.6952,0.5255,-0.269,0.5586,-3.9115,2118,2019-08-07 16:44:15:262
-4.0186,-1.1319,1.6337,-3.5226,-4.6952,0.5255,-0.269,0.5586,-3.9115,2123,2019-08-07 16:44:15:267
-3.6933,-1.4421,1.6337,-3.5226,-4.6952,0.5255,-0.3371,0.2359,-3.4535,2128,2019-08-07 16:44:15:272
-3.6933,-1.4421,1.6337,-3.5226,-4.6952,0.5255,-0.3371,0.2359,-3.4535,2133,2019-08-07 16:44:15:277
-3.3393,-1.972,1.6667,-3.5825,-4.6045,0.4806,-0.3819,-0.104,-3.0678,2138,2019-08-07 16:44:15:282
-3.3393,-1.972,1.6667,-3.5825,-4.6045,0.4806,-0.3819,-0.104,-3.0678,2143,2019-08-07 16:44:15:287
-3.3393,-1.972,1.6667,-3.5825,-4.6045,0.4806,-0.4319,-0.3607,-2.663,2148,2019-08-07 16:44:15:292
-3.0379,-2.6022,1.2943,-3.5825,-4.6045,0.4806,-0.4319,-0.3607,-2.663,2154,2019-08-07 16:44:15:298
-3.0379,-2.6022,1.2943,-3.7222,-3.9386,0.9045,-0.4841,-0.5652,-2.2572,2158,2019-08-07 16:44:15:302
-2.99,-3.175,1.1011,-3.7222,-3.9386,0.9045,-0.4841,-0.5652,-2.2572,2163,2019-08-07 16:44:15:307
-2.99,-3.175,1.1011,-3.7222,-3.9386,0.9045,-0.5118,-0.7197,-1.8662,2168,2019-08-07 16:44:15:312
-2.99,-3.175,1.1011,-3.7222,-3.9386,0.9045,-0.5118,-0.7197,-1.8662,2173,2019-08-07 16:44:15:317
-3.2484,-3.6333,1.332,-3.1245,-3.502,0.8381,-0.5118,-0.7197,-1.8662,2178,2019-08-07 16:44:15:322
-3.2484,-3.6333,1.332,-3.1245,-3.502,0.8381,-0.4916,-0.8443,-1.4955,2183,2019-08-07 16:44:15:327
-3.3536,-3.872,1.5206,-3.1245,-3.502,0.8381,-0.4916,-0.8443,-1.4955,2188,2019-08-07 16:44:15:332
-3.3536,-3.872,1.5206,-3.1245,-3.502,0.8381,-0.4554,-0.986,-1.0715,2193,2019-08-07 16:44:15:337
-3.3536,-3.872,1.5206,-3.0002,-3.3082,0.9172,-0.4554,-0.986,-1.0715,2198,2019-08-07 16:44:15:342
-2.9805,-4.1203,0.9031,-3.0002,-3.3082,0.9172,-0.4543,-1.0009,-0.7786,2203,2019-08-07 16:44:15:347
-2.9805,-4.1203,0.9031,-3.0002,-3.3082,0.9172,-0.4543,-1.0009,-0.7786,2208,2019-08-07 16:44:15:352
-2.3537,-4.6358,0.3421,-3.0002,-3.3082,0.9172,-0.4799,-0.7655,-0.4984,2213,2019-08-07 16:44:15:357
-2.3537,-4.6358,0.3421,-3.7032,-2.6643,1.9719,-0.4799,-0.7655,-0.4984,2217,2019-08-07 16:44:15:361
-2.3537,-4.6358,0.3421,-3.7032,-2.6643,1.9719,-0.4799,-0.7655,-0.4984,2223,2019-08-07 16:44:15:367
-2.1624,-5.3949,0.0216,-3.7032,-2.6643,1.9719,-0.4511,-0.2776,-0.279,2228,2019-08-07 16:44:15:372
-2.1624,-5.3949,0.0216,-3.7032,-2.6643,1.9719,-0.4511,-0.2776,-0.279,2233,2019-08-07 16:44:15:377
-2.1624,-5.3949,0.0216,-3.5461,-1.4398,2.1807,-0.3574,0.3413,-0.1139,2238,2019-08-07 16:44:15:382
-2.636,-6.3019,0.2431,-3.5461,-1.4398,2.1807,-0.3574,0.3413,-0.1139,2243,2019-08-07 16:44:15:387
-2.636,-6.3019,0.2431,-3.5461,-1.4398,2.1807,-0.3574,0.3413,-0.1139,2248,2019-08-07 16:44:15:392
-2.636,-6.3019,0.2431,-3.5461,-1.4398,2.1807,-0.253,0.7504,0.0065,2253,2019-08-07 16:44:15:397
-3.5642,-6.6552,0.6627,-2.0515,-0.8208,1.3608,-0.253,0.7504,0.0065,2258,2019-08-07 16:44:15:402
-3.5642,-6.6552,0.6627,-2.0515,-0.8208,1.3608,-0.1443,0.9954,0.1279,2263,2019-08-07 16:44:15:407
-4.8463,-6.6743,1.299,-2.0515,-0.8208,1.3608,-0.1443,0.9954,0.1279,2269,2019-08-07 16:44:15:413
-4.8463,-6.6743,1.299,-2.0515,-0.8208,1.3608,-0.0367,1.0476,0.2675,2273,2019-08-07 16:44:15:417
-4.8463,-6.6743,1.299,-2.0515,-0.8208,1.3608,-0.0367,1.0476,0.2675,2278,2019-08-07 16:44:15:422
-6.1477,-6.5263,1.8317,0.1541,-0.9929,0.1113,0.0187,0.94,0.3453,2284,2019-08-07 16:44:15:428
-6.1477,-6.5263,1.8317,0.1541,-0.9929,0.1113,0.0187,0.94,0.3453,2288,2019-08-07 16:44:15:432
-7.2911,-6.5119,2.7367,0.1541,-0.9929,0.1113,0.0528,0.5107,0.4497,2294,2019-08-07 16:44:15:438
-7.2911,-6.5119,2.7367,1.3397,-0.8206,-0.8638,0.0528,0.5107,0.4497,2299,2019-08-07 16:44:15:443
-7.2911,-6.5119,2.7367,1.3397,-0.8206,-0.8638,0.0229,0.0814,0.4805,2303,2019-08-07 16:44:15:447
-7.3102,-6.9273,2.6378,1.3397,-0.8206,-0.8638,0.0229,0.0814,0.4805,2308,2019-08-07 16:44:15:452
-7.3102,-6.9273,2.6378,1.3397,-0.8206,-0.8638,-0.0335,-0.2946,0.4358,2313,2019-08-07 16:44:15:457
-6.7935,-7.1564,2.0391,0.6303,-0.2419,-0.1644,-0.0335,-0.2946,0.4358,2318,2019-08-07 16:44:15:462
-6.7935,-7.1564,2.0391,0.6303,-0.2419,-0.1644,-0.0857,-0.5173,0.358,2323,2019-08-07 16:44:15:467
-6.7935,-7.1564,2.0391,0.6303,-0.2419,-0.1644,-0.0857,-0.5173,0.358,2327,2019-08-07 16:44:15:471
-6.1764,-7.3999,1.7516,0.6303,-0.2419,-0.1644,-0.1017,-0.5567,0.2984,2334,2019-08-07 16:44:15:478
-6.1764,-7.3999,1.7516,-0.462,0.1736,0.4383,-0.1017,-0.5567,0.2984,2338,2019-08-07 16:44:15:482
-6.1764,-7.3999,1.7516,-0.462,0.1736,0.4383,-0.1017,-0.5567,0.2984,2343,2019-08-07 16:44:15:487
-5.4587,-7.7818,1.3839,-0.462,0.1736,0.4383,-0.0847,-0.4054,0.2547,2348,2019-08-07 16:44:15:492
-5.4587,-7.7818,1.3839,-0.8867,0.4815,0.7439,-0.0847,-0.4054,0.2547,2353,2019-08-07 16:44:15:497
-5.3248,-8.0587,1.101,-0.8867,0.4815,0.7439,-0.0559,-0.0539,0.1887,2357,2019-08-07 16:44:15:501
-5.3248,-8.0587,1.101,-0.8867,0.4815,0.7439,-0.0559,-0.0539,0.1887,2363,2019-08-07 16:44:15:507
-5.3248,-8.0587,1.101,-0.6394,0.7871,0.5625,-0.0452,0.2199,0.1439,2368,2019-08-07 16:44:15:512
-5.6884,-8.1589,1.4593,-0.6394,0.7871,0.5625,-0.0452,0.2199,0.1439,2373,2019-08-07 16:44:15:517
-5.6884,-8.1589,1.4593,-0.6394,0.7871,0.5625,-0.0282,0.3871,0.112,2378,2019-08-07 16:44:15:522
-5.6884,-8.1589,1.4593,-0.2747,0.7345,0.1555,-0.0282,0.3871,0.112,2383,2019-08-07 16:44:15:527
-6.1716,-8.0061,1.8977,-0.2747,0.7345,0.1555,-0.0037,0.4255,0.0939,2388,2019-08-07 16:44:15:532
-6.1716,-8.0061,1.8977,-0.2747,0.7345,0.1555,-0.0037,0.4255,0.0939,2393,2019-08-07 16:44:15:537
-6.4874,-7.7961,2.3832,0.3249,0.4678,-0.5829,0.0123,0.3445,0.0811,2398,2019-08-07 16:44:15:542
-6.4874,-7.7961,2.3832,0.3249,0.4678,-0.5829,0.0123,0.3445,0.0811,2402,2019-08-07 16:44:15:546
-6.7218,-7.6195,2.501,0.3249,0.4678,-0.5829,0.0059,0.1826,0.0789,2408,2019-08-07 16:44:15:552
-6.7218,-7.6195,2.501,0.3249,0.4678,-0.5829,0.0059,0.1826,0.0789,2413,2019-08-07 16:44:15:557
-6.7218,-7.6195,2.501,0.604,0.1829,-0.6691,-0.0186,-0.0187,0.0704,2418,2019-08-07 16:44:15:562
-6.894,-7.4906,2.4916,0.604,0.1829,-0.6691,-0.0186,-0.0187,0.0704,2423,2019-08-07 16:44:15:567
-6.894,-7.4906,2.4916,0.604,0.1829,-0.6691,-0.0421,-0.2392,0.064,2428,2019-08-07 16:44:15:572
-6.9227,-7.4333,2.3266,0.604,0.1829,-0.6691,-0.0421,-0.2392,0.064,2433,2019-08-07 16:44:15:577
-6.9227,-7.4333,2.3266,0.4831,0.1632,-0.4686,-0.0591,-0.5088,0.0651,2438,2019-08-07 16:44:15:582
-6.9227,-7.4333,2.3266,0.4831,0.1632,-0.4686,-0.0591,-0.5088,0.0651,2443,2019-08-07 16:44:15:587
-6.4826,-7.5288,2.2088,0.4831,0.1632,-0.4686,-0.0591,-0.5088,0.0651,2448,2019-08-07 16:44:15:592
-6.4826,-7.5288,2.2088,0.4831,0.1632,-0.4686,-0.0538,-0.6717,0.0587,2453,2019-08-07 16:44:15:597
-6.4826,-7.5288,2.2088,0.4831,0.1632,-0.4686,-0.0538,-0.6717,0.0587,2457,2019-08-07 16:44:15:601
-6.0137,-7.4906,1.8835,-0.2507,0.1964,0.0628,-0.0548,-0.725,0.0331,2463,2019-08-07 16:44:15:607
-6.0137,-7.4906,1.8835,-0.2507,0.1964,0.0628,-0.0548,-0.725,0.0331,2468,2019-08-07 16:44:15:612
-6.0137,-7.4906,1.8835,-0.2507,0.1964,0.0628,-0.0527,-0.6462,0.0246,2473,2019-08-07 16:44:15:617
-5.4923,-7.5097,1.5913,-0.2507,0.1964,0.0628,-0.0527,-0.6462,0.0246,2477,2019-08-07 16:44:15:621
-5.4923,-7.5097,1.5913,-0.9272,0.2511,0.5146,-0.0484,-0.4896,0.0225,2484,2019-08-07 16:44:15:628
-5.1669,-7.5431,1.3933,-0.9272,0.2511,0.5146,-0.0484,-0.4896,0.0225,2488,2019-08-07 16:44:15:632
-5.1669,-7.5431,1.3933,-0.9272,0.2511,0.5146,-0.0484,-0.4896,0.0225,2492,2019-08-07 16:44:15:636
-5.1669,-7.5431,1.3933,-0.9272,0.2511,0.5146,-0.0303,-0.2914,0.0204,2498,2019-08-07 16:44:15:642
-5.2004,-7.4763,1.4593,-1.0199,0.175,0.5987,-0.0303,-0.2914,0.0204,2502,2019-08-07 16:44:15:646
-5.2004,-7.4763,1.4593,-1.0199,0.175,0.5987,-0.0026,-0.056,0.0363,2508,2019-08-07 16:44:15:652
-5.253,-7.4858,1.4546,-1.0199,0.175,0.5987,-0.0026,-0.056,0.0363,2513,2019-08-07 16:44:15:657
-5.253,-7.4858,1.4546,-1.0199,0.175,0.5987,0.0219,0.0952,0.0374,2518,2019-08-07 16:44:15:662
-5.253,-7.4858,1.4546,-0.7286,0.0411,0.4926,0.0219,0.0952,0.0374,2523,2019-08-07 16:44:15:667
-5.5449,-7.3187,1.6196,-0.7286,0.0411,0.4926,0.057,0.205,0.0438,2528,2019-08-07 16:44:15:672
-5.5449,-7.3187,1.6196,-0.7286,0.0411,0.4926,0.057,0.205,0.0438,2533,2019-08-07 16:44:15:677
-5.9228,-7.1325,1.7327,-0.3109,-0.1636,0.3027,0.0677,0.2295,0.0502,2539,2019-08-07 16:44:15:683
-5.9228,-7.1325,1.7327,-0.3109,-0.1636,0.3027,0.0677,0.2295,0.0502,2542,2019-08-07 16:44:15:686
-5.9228,-7.1325,1.7327,-0.3109,-0.1636,0.3027,0.0677,0.2295,0.0502,2548,2019-08-07 16:44:15:692
-6.1764,-7.1325,1.7798,-0.3109,-0.1636,0.3027,0.0741,0.1954,0.047,2553,2019-08-07 16:44:15:697
-6.1764,-7.1325,1.7798,-0.3109,-0.1636,0.3027,0.0741,0.1954,0.047,2558,2019-08-07 16:44:15:702
-6.1764,-7.1325,1.7798,-0.063,-0.1931,0.1881,0.0719,0.1208,0.0395,2563,2019-08-07 16:44:15:707
-6.2243,-7.0418,1.8081,-0.063,-0.1931,0.1881,0.0719,0.1208,0.0395,2568,2019-08-07 16:44:15:712
-6.2243,-7.0418,1.8081,-0.063,-0.1931,0.1881,0.0645,-0.006,0.0395,2572,2019-08-07 16:44:15:716
-6.186,-6.9798,1.8081,-0.063,-0.1931,0.1881,0.0645,-0.006,0.0395,2578,2019-08-07 16:44:15:722
-6.186,-6.9798,1.8081,-0.1907,-0.3042,0.353,0.0496,-0.0954,0.0363,2584,2019-08-07 16:44:15:728
-6.186,-6.9798,1.8081,-0.1907,-0.3042,0.353,0.0496,-0.0954,0.0363,2588,2019-08-07 16:44:15:732
-5.8941,-6.9845,1.5394,-0.1907,-0.3042,0.353,0.0496,-0.0954,0.0363,2593,2019-08-07 16:44:15:737
-5.8941,-6.9845,1.5394,-0.1907,-0.3042,0.353,0.0304,-0.1327,0.0267,2598,2019-08-07 16:44:15:742
-5.8941,-6.9845,1.5394,-0.4822,-0.3046,0.6903,0.0304,-0.1327,0.0267,2602,2019-08-07 16:44:15:746
-5.7889,-6.9845,1.3273,-0.4822,-0.3046,0.6903,0.0123,-0.1253,0.0363,2608,2019-08-07 16:44:15:752
-5.7889,-6.9845,1.3273,-0.4822,-0.3046,0.6903,0.0123,-0.1253,0.0363,2613,2019-08-07 16:44:15:757
-5.6406,-6.9989,1.3273,-0.4822,-0.3046,0.6903,0.0123,-0.0933,0.0491,2618,2019-08-07 16:44:15:762
-5.6406,-6.9989,1.3273,-0.5786,-0.258,0.7765,0.0123,-0.0933,0.0491,2623,2019-08-07 16:44:15:767
-5.6406,-6.9989,1.3273,-0.5786,-0.258,0.7765,0.0197,-0.0454,0.0683,2628,2019-08-07 16:44:15:772
-5.6693,-7.018,1.2754,-0.5786,-0.258,0.7765,0.0197,-0.0454,0.0683,2633,2019-08-07 16:44:15:777
-5.6693,-7.018,1.2754,-0.5786,-0.258,0.7765,0.0197,-0.0454,0.0683,2637,2019-08-07 16:44:15:781
-5.6693,-7.018,1.2754,-0.453,-0.3745,0.8202,0.024,0.01,0.0779,2643,2019-08-07 16:44:15:787
-5.8702,-6.8652,1.2802,-0.453,-0.3745,0.8202,0.024,0.01,0.0779,2648,2019-08-07 16:44:15:792
-5.8702,-6.8652,1.2802,-0.3112,-0.3837,0.7794,0.0176,0.0473,0.0832,2653,2019-08-07 16:44:15:797
-6.0095,-6.8461,1.2753,-0.3112,-0.3837,0.7794,0.0176,0.0473,0.0832,2657,2019-08-07 16:44:15:801
-6.0095,-6.8461,1.2753,-0.3112,-0.3837,0.7794,0.0101,0.0793,0.0725,2664,2019-08-07 16:44:15:808
-6.0095,-6.8461,1.2753,-0.3112,-0.3837,0.7794,0.0101,0.0793,0.0725,2668,2019-08-07 16:44:15:812
-6.2679,-6.889,1.3696,0.0085,-0.3028,0.6432,0.0059,0.0782,0.0576,2672,2019-08-07 16:44:15:816
-6.2679,-6.889,1.3696,0.0085,-0.3028,0.6432,0.0059,0.0782,0.0576,2678,2019-08-07 16:44:15:822
-6.3349,-6.9797,1.4167,0.0085,-0.3028,0.6432,0.0059,0.058,0.0385,2684,2019-08-07 16:44:15:828
-6.3349,-6.9797,1.4167,0.0085,-0.3028,0.6432,0.0059,0.058,0.0385,2688,2019-08-07 16:44:15:832
-6.3349,-6.9797,1.4167,0.0085,-0.3028,0.6432,0.0059,0.058,0.0385,2693,2019-08-07 16:44:15:837
-6.244,-7.0561,1.4167,-0.0546,-0.1871,0.6082,0.0059,0.043,0.0225,2698,2019-08-07 16:44:15:842
-6.244,-7.0561,1.4167,-0.0546,-0.1871,0.6082,0.0059,0.043,0.0225,2703,2019-08-07 16:44:15:847
-6.244,-7.0561,1.4167,-0.0546,-0.1871,0.6082,0.008,0.0644,1.0E-4,2708,2019-08-07 16:44:15:852
-6.1339,-7.0609,1.5346,-0.1924,-0.1388,0.4333,0.008,0.0644,1.0E-4,2714,2019-08-07 16:44:15:858
-6.1339,-7.0609,1.5346,-0.1924,-0.1388,0.4333,0.0155,0.0835,-0.0105,2717,2019-08-07 16:44:15:861
-6.0526,-7.1277,1.5817,-0.1924,-0.1388,0.4333,0.0155,0.0835,-0.0105,2723,2019-08-07 16:44:15:867
-6.0526,-7.1277,1.5817,-0.1924,-0.1388,0.4333,0.0155,0.0835,-0.0105,2727,2019-08-07 16:44:15:871
-6.0526,-7.1277,1.5817,-0.1924,-0.1388,0.4333,0.0176,0.1016,-0.0159,2734,2019-08-07 16:44:15:878
-6.0574,-7.1563,1.6571,-0.2468,-0.0881,0.3457,0.0176,0.1016,-0.0159,2737,2019-08-07 16:44:15:881
-6.0574,-7.1563,1.6571,-0.2468,-0.0881,0.3457,0.0261,0.0857,-0.018,2743,2019-08-07 16:44:15:887
-6.0574,-7.1563,1.6571,-0.2468,-0.0881,0.3457,0.0261,0.0857,-0.018,2748,2019-08-07 16:44:15:892
-6.0096,-7.0704,1.8033,-0.3428,-0.1422,0.0893,0.0346,0.0473,-0.0073,2753,2019-08-07 16:44:15:897
-6.0096,-7.0704,1.8033,-0.3428,-0.1422,0.0893,0.0346,0.0473,-0.0073,2758,2019-08-07 16:44:15:902
-5.9856,-7.0895,1.8975,-0.3428,-0.1422,0.0893,0.0336,0.0132,-0.0084,2763,2019-08-07 16:44:15:907
-5.9856,-7.0895,1.8975,-0.3428,-0.1422,0.0893,0.0336,0.0132,-0.0084,2768,2019-08-07 16:44:15:912
-5.9856,-7.0895,1.8975,-0.298,-0.1762,0.0173,0.0304,-0.0102,-0.0116,2773,2019-08-07 16:44:15:917
-6.0191,-7.0131,1.9494,-0.298,-0.1762,0.0173,0.0304,-0.0102,-0.0116,2778,2019-08-07 16:44:15:922
-6.0191,-7.0131,1.9494,-0.298,-0.1762,0.0173,0.0336,-0.0368,-0.0137,2783,2019-08-07 16:44:15:927
-6.0191,-7.0131,1.9494,-0.298,-0.1762,0.0173,0.0336,-0.0368,-0.0137,2788,2019-08-07 16:44:15:932
-5.9952,-6.9797,1.9447,-0.298,-0.1762,0.0173,0.0283,-0.0677,-0.0105,2792,2019-08-07 16:44:15:936
-5.9952,-6.9797,1.9447,-0.3131,-0.2723,0.0511,0.0283,-0.0677,-0.0105,2798,2019-08-07 16:44:15:942
-5.9952,-6.9797,1.9447,-0.3131,-0.2723,0.0511,0.0144,-0.0773,-0.0169,2803,2019-08-07 16:44:15:947
-5.9426,-7.0227,1.9117,-0.3131,-0.2723,0.0511,0.0144,-0.0773,-0.0169,2808,2019-08-07 16:44:15:952
-5.9426,-7.0227,1.9117,-0.3131,-0.2723,0.0511,0.0091,-0.0528,-0.0244,2814,2019-08-07 16:44:15:958
-5.8373,-6.9654,1.8457,-0.4552,-0.2842,0.1753,0.0091,-0.0528,-0.0244,2818,2019-08-07 16:44:15:962
-5.8373,-6.9654,1.8457,-0.4552,-0.2842,0.1753,0.008,-0.0166,-0.0255,2823,2019-08-07 16:44:15:967
-5.8373,-6.9654,1.8457,-0.4552,-0.2842,0.1753,0.008,-0.0166,-0.0255,2828,2019-08-07 16:44:15:972
-5.7465,-7.0704,1.8174,-0.6169,-0.1789,0.2945,0.0069,0.0324,-0.0265,2834,2019-08-07 16:44:15:978
-5.7465,-7.0704,1.8174,-0.6169,-0.1789,0.2945,0.0069,0.0324,-0.0265,2839,2019-08-07 16:44:15:983
-5.7465,-7.0704,1.8174,-0.6169,-0.1789,0.2945,0.0069,0.0324,-0.0265,2843,2019-08-07 16:44:15:987
-5.7608,-7.0847,1.6948,-0.6169,-0.1789,0.2945,0.0069,0.0867,-0.0212,2848,2019-08-07 16:44:15:992
-5.7608,-7.0847,1.6948,-0.4914,-0.1785,0.1928,0.0069,0.0867,-0.0212,2853,2019-08-07 16:44:15:997
-5.8039,-7.0895,1.9164,-0.4914,-0.1785,0.1928,0.0133,0.1442,-0.0052,2858,2019-08-07 16:44:16:002
-5.8039,-7.0895,1.9164,-0.4914,-0.1785,0.1928,0.0133,0.1442,-0.0052,2863,2019-08-07 16:44:16:007
-5.8039,-7.0895,1.9164,-0.3646,-0.1882,-0.0321,0.0261,0.1528,0.0118,2868,2019-08-07 16:44:16:012
-6.0096,-7.0609,1.9777,-0.3646,-0.1882,-0.0321,0.0261,0.1528,0.0118,2873,2019-08-07 16:44:16:017
-6.0096,-7.0609,1.9777,-0.3646,-0.1882,-0.0321,0.0176,0.1251,0.0342,2878,2019-08-07 16:44:16:022
-6.1053,-7.0227,2.0154,-0.3646,-0.1882,-0.0321,0.0176,0.1251,0.0342,2883,2019-08-07 16:44:16:027
-6.1053,-7.0227,2.0154,-0.0245,-0.2508,-0.0833,0.0176,0.1251,0.0342,2888,2019-08-07 16:44:16:032
-6.1053,-7.0227,2.0154,-0.0245,-0.2508,-0.0833,-0.0026,0.0494,0.0534,2892,2019-08-07 16:44:16:036
-6.311,-6.9224,2.0201,-0.0245,-0.2508,-0.0833,-0.0026,0.0494,0.0534,2898,2019-08-07 16:44:16:042
-6.311,-6.9224,2.0201,-0.0245,-0.2508,-0.0833,-0.0154,-0.0283,0.0683,2903,2019-08-07 16:44:16:047
-6.2775,-7.0179,1.8787,0.022,-0.271,0.1299,-0.0154,-0.0283,0.0683,2907,2019-08-07 16:44:16:051
-6.2775,-7.0179,1.8787,0.022,-0.271,0.1299,-0.0282,-0.089,0.0757,2913,2019-08-07 16:44:16:057
-6.1675,-7.0752,1.6996,0.022,-0.271,0.1299,-0.0282,-0.089,0.0757,2919,2019-08-07 16:44:16:063
-6.1675,-7.0752,1.6996,0.022,-0.271,0.1299,-0.0335,-0.1018,0.0555,2923,2019-08-07 16:44:16:067
-6.1675,-7.0752,1.6996,-0.1715,-0.168,0.4228,-0.0335,-0.1018,0.0555,2927,2019-08-07 16:44:16:071
-6.0527,-7.037,1.544,-0.1715,-0.168,0.4228,-0.0346,-0.0741,0.0491,2934,2019-08-07 16:44:16:078
-6.0527,-7.037,1.544,-0.1715,-0.168,0.4228,-0.0346,-0.0741,0.0491,2938,2019-08-07 16:44:16:082
-6.0527,-7.037,1.544,-0.1715,-0.168,0.4228,-0.0346,-0.0741,0.0491,2943,2019-08-07 16:44:16:087
-5.9714,-7.0895,1.4544,-0.3861,-0.1214,0.5077,-0.0346,-0.0219,0.0406,2948,2019-08-07 16:44:16:092
-5.9714,-7.0895,1.4544,-0.3861,-0.1214,0.5077,-0.0346,-0.0219,0.0406,2953,2019-08-07 16:44:16:097
-5.9714,-7.0895,1.4544,-0.3861,-0.1214,0.5077,-0.0303,0.0452,0.0278,2958,2019-08-07 16:44:16:102
-6.0575,-7.0895,1.5346,-0.3861,-0.1214,0.5077,-0.0303,0.0452,0.0278,2962,2019-08-07 16:44:16:106
-6.0575,-7.0895,1.5346,-0.1763,-0.1963,0.4201,-0.025,0.0633,0.0214,2969,2019-08-07 16:44:16:113
-6.0575,-7.0895,1.5346,-0.1763,-0.1963,0.4201,-0.025,0.0633,0.0214,2973,2019-08-07 16:44:16:117
-6.1819,-7.0083,1.6901,-0.1763,-0.1963,0.4201,-0.0261,0.0462,0.0193,2979,2019-08-07 16:44:16:123
-6.1819,-7.0083,1.6901,-0.1763,-0.1963,0.4201,-0.0261,0.0462,0.0193,2982,2019-08-07 16:44:16:126
-6.268,-7.0227,1.7325,-0.062,-0.2091,0.2343,-0.0303,4.0E-4,0.0193,2988,2019-08-07 16:44:16:132
-6.268,-7.0227,1.7325,-0.062,-0.2091,0.2343,-0.0303,4.0E-4,0.0193,2993,2019-08-07 16:44:16:137
-6.268,-7.0227,1.7325,-0.062,-0.2091,0.2343,-0.0303,4.0E-4,0.0193,2999,2019-08-07 16:44:16:143
-6.2489,-7.0274,1.6995,-0.062,-0.2091,0.2343,-0.0389,-0.0667,0.0076,3003,2019-08-07 16:44:16:147
-6.2489,-7.0274,1.6995,-0.0913,-0.1469,0.2235,-0.0389,-0.0667,0.0076,3007,2019-08-07 16:44:16:151
-6.2106,-7.0656,1.6807,-0.0913,-0.1469,0.2235,-0.0559,-0.1317,0.0065,3013,2019-08-07 16:44:16:157
-6.2106,-7.0656,1.6807,-0.0913,-0.1469,0.2235,-0.0559,-0.1317,0.0065,3017,2019-08-07 16:44:16:161
-6.2106,-7.0656,1.6807,-0.2326,-0.1431,0.331,-0.0559,-0.1317,0.0065,3023,2019-08-07 16:44:16:167
-6.0001,-7.1325,1.6053,-0.2326,-0.1431,0.331,-0.0591,-0.1839,-0.0084,3028,2019-08-07 16:44:16:172
-6.0001,-7.1325,1.6053,-0.2326,-0.1431,0.331,-0.0591,-0.1839,-0.0084,3033,2019-08-07 16:44:16:177
-5.7178,-7.1993,1.4544,-0.6008,-0.0385,0.5268,-0.0559,-0.1796,-0.0191,3037,2019-08-07 16:44:16:181
-5.7178,-7.1993,1.4544,-0.6008,-0.0385,0.5268,-0.0559,-0.1796,-0.0191,3044,2019-08-07 16:44:16:188
-5.7178,-7.1993,1.4544,-0.6008,-0.0385,0.5268,-0.0559,-0.1199,-0.0318,3048,2019-08-07 16:44:16:192
-5.56,-7.2518,1.3224,-0.6008,-0.0385,0.5268,-0.0559,-0.1199,-0.0318,3054,2019-08-07 16:44:16:198
-5.56,-7.2518,1.3224,-0.7128,0.0042,0.5962,-0.0559,-0.1199,-0.0318,3058,2019-08-07 16:44:16:202
-5.6556,-7.2375,1.3884,-0.7128,0.0042,0.5962,-0.0463,-0.0219,-0.0372,3063,2019-08-07 16:44:16:207
-5.6556,-7.2375,1.3884,-0.7128,0.0042,0.5962,-0.0463,-0.0219,-0.0372,3068,2019-08-07 16:44:16:212
-5.6556,-7.2375,1.3884,-0.7128,0.0042,0.5962,-0.0346,0.0335,-0.0255,3073,2019-08-07 16:44:16:217
-5.6317,-7.2661,1.4686,-0.6725,0.0047,0.4858,-0.0346,0.0335,-0.0255,3078,2019-08-07 16:44:16:222
-5.6317,-7.2661,1.4686,-0.6725,0.0047,0.4858,-0.0218,0.0739,-0.0212,3083,2019-08-07 16:44:16:227
-5.7418,-7.2566,1.5723,-0.6725,0.0047,0.4858,-0.0218,0.0739,-0.0212,3088,2019-08-07 16:44:16:232
-5.7418,-7.2566,1.5723,-0.6725,0.0047,0.4858,-0.0112,0.0921,-0.0105,3094,2019-08-07 16:44:16:238
-5.7418,-7.2566,1.5723,-0.6725,0.0047,0.4858,-0.0112,0.0921,-0.0105,3098,2019-08-07 16:44:16:242
-5.8805,-7.2614,1.6477,-0.418,0.014,0.2818,-0.0016,0.0889,0.0012,3103,2019-08-07 16:44:16:247
-5.8805,-7.2614,1.6477,-0.418,0.014,0.2818,-0.0016,0.0889,0.0012,3108,2019-08-07 16:44:16:252
-6.0049,-7.2518,1.6948,-0.418,0.014,0.2818,0.0027,0.0612,0.0022,3112,2019-08-07 16:44:16:256
-6.0049,-7.2518,1.6948,-0.233,0.003,0.257,0.0027,0.0612,0.0022,3118,2019-08-07 16:44:16:262
-6.0049,-7.2518,1.6948,-0.233,0.003,0.257,0.0048,0.0132,-0.0063,3123,2019-08-07 16:44:16:267
-6.0432,-7.3234,1.7184,-0.233,0.003,0.257,0.0048,0.0132,-0.0063,3128,2019-08-07 16:44:16:272
-6.0432,-7.3234,1.7184,-0.233,0.003,0.257,0.0059,-0.0198,-0.0169,3133,2019-08-07 16:44:16:277
-5.9427,-7.3759,1.6901,-0.3547,0.1102,0.2561,0.0059,-0.0198,-0.0169,3138,2019-08-07 16:44:16:282
-5.9427,-7.3759,1.6901,-0.3547,0.1102,0.2561,0.0176,-0.0379,-0.0244,3142,2019-08-07 16:44:16:286
-5.9427,-7.3759,1.6901,-0.3547,0.1102,0.2561,0.0176,-0.0379,-0.0244,3148,2019-08-07 16:44:16:292
-5.8375,-7.4523,1.6854,-0.3547,0.1102,0.2561,0.0272,-0.0411,-0.0297,3153,2019-08-07 16:44:16:297
-5.8375,-7.4523,1.6854,-0.3547,0.1102,0.2561,0.0272,-0.0411,-0.0297,3158,2019-08-07 16:44:16:302
-5.8375,-7.4523,1.6854,-0.5574,0.1529,0.3001,0.0272,-0.0411,-0.0297,3163,2019-08-07 16:44:16:307
-5.6796,-7.4666,1.676,-0.5574,0.1529,0.3001,0.0378,-0.007,-0.0297,3168,2019-08-07 16:44:16:312
-5.6796,-7.4666,1.676,-0.5574,0.1529,0.3001,0.0378,-0.007,-0.0297,3172,2019-08-07 16:44:16:316
-5.694,-7.4093,1.7325,-0.5574,0.1529,0.3001,0.0496,0.0335,-0.034,3178,2019-08-07 16:44:16:322
-5.694,-7.4093,1.7325,-0.5736,0.1615,0.2801,0.0496,0.0335,-0.034,3183,2019-08-07 16:44:16:327
-5.7131,-7.395,1.6995,-0.5736,0.1615,0.2801,0.0645,0.0601,-0.0201,3188,2019-08-07 16:44:16:332
-5.7131,-7.395,1.6995,-0.5736,0.1615,0.2801,0.0645,0.0601,-0.0201,3194,2019-08-07 16:44:16:338
-5.7131,-7.395,1.6995,-0.5736,0.1615,0.2801,0.0751,0.0761,-0.0127,3198,2019-08-07 16:44:16:342
-5.7944,-7.3568,1.8079,-0.4937,0.087,0.1435,0.0751,0.0761,-0.0127,3203,2019-08-07 16:44:16:347
-5.7944,-7.3568,1.8079,-0.4937,0.087,0.1435,0.0879,0.075,-0.0042,3208,2019-08-07 16:44:16:352
-5.7944,-7.3568,1.8079,-0.4937,0.087,0.1435,0.0879,0.075,-0.0042,3212,2019-08-07 16:44:16:356
-5.9236,-7.3616,1.8834,-0.4937,0.087,0.1435,0.1007,0.0644,0.0054,3218,2019-08-07 16:44:16:362
-5.9236,-7.3616,1.8834,-0.3314,0.0406,0.0388,0.1007,0.0644,0.0054,3222,2019-08-07 16:44:16:366
-6.0002,-7.2948,1.9871,-0.3314,0.0406,0.0388,0.1103,0.0462,1.0E-4,3228,2019-08-07 16:44:16:372
-6.0002,-7.2948,1.9871,-0.3314,0.0406,0.0388,0.1103,0.0462,1.0E-4,3233,2019-08-07 16:44:16:377
-6.0002,-7.2948,1.9871,-0.3314,0.0406,0.0388,0.1124,4.0E-4,-0.0116,3238,2019-08-07 16:44:16:382
-6.0815,-7.3043,2.0483,-0.197,0.0293,-0.076,0.1124,4.0E-4,-0.0116,3244,2019-08-07 16:44:16:388
-6.0815,-7.3043,2.0483,-0.197,0.0293,-0.076,0.1071,-0.0273,-0.0287,3249,2019-08-07 16:44:16:393
-6.0289,-7.2184,1.9116,-0.197,0.0293,-0.076,0.1071,-0.0273,-0.0287,3254,2019-08-07 16:44:16:398
-6.0289,-7.2184,1.9116,-0.197,0.0293,-0.076,0.1071,-0.0273,-0.0287,3258,2019-08-07 16:44:16:402
-6.0289,-7.2184,1.9116,-0.3188,-0.0911,0.0895,0.0975,-0.056,-0.0585,3263,2019-08-07 16:44:16:407
-5.8567,-7.1516,1.8787,-0.3188,-0.0911,0.0895,0.0975,-0.056,-0.0585,3267,2019-08-07 16:44:16:411
-5.8567,-7.1516,1.8787,-0.3188,-0.0911,0.0895,0.0868,-0.0539,-0.0798,3273,2019-08-07 16:44:16:417
-5.6844,-7.1754,1.7514,-0.3188,-0.0911,0.0895,0.0868,-0.0539,-0.0798,3277,2019-08-07 16:44:16:421
-5.6844,-7.1754,1.7514,-0.5815,-0.1223,0.2363,0.0805,-0.0315,-0.0947,3283,2019-08-07 16:44:16:427
-5.6844,-7.1754,1.7514,-0.5815,-0.1223,0.2363,0.0805,-0.0315,-0.0947,3288,2019-08-07 16:44:16:432
-5.6749,-7.1181,1.6712,-0.5815,-0.1223,0.2363,0.0805,-0.0315,-0.0947,3292,2019-08-07 16:44:16:436
-5.6749,-7.1181,1.6712,-0.5815,-0.1223,0.2363,0.0655,-0.0134,-0.1011,3298,2019-08-07 16:44:16:442
-5.6749,-7.1181,1.6712,-0.579,-0.2338,0.2572,0.0655,-0.0134,-0.1011,3302,2019-08-07 16:44:16:446
-5.6701,-7.0513,1.7702,-0.579,-0.2338,0.2572,0.056,0.0036,-0.0936,3308,2019-08-07 16:44:16:452
-5.6701,-7.0513,1.7702,-0.579,-0.2338,0.2572,0.056,0.0036,-0.0936,3312,2019-08-07 16:44:16:456
-5.6797,-7.0036,1.7467,-0.579,-0.2338,0.2572,0.0442,0.0036,-0.0798,3318,2019-08-07 16:44:16:462
-5.6797,-7.0036,1.7467,-0.5987,-0.3253,0.3146,0.0336,-0.0017,-0.0585,3323,2019-08-07 16:44:16:467
-5.6797,-7.0036,1.7467,-0.5987,-0.3253,0.3146,0.0336,-0.0017,-0.0585,3328,2019-08-07 16:44:16:472
-5.6701,-6.9224,1.7137,-0.5987,-0.3253,0.3146,0.0336,-0.0017,-0.0585,3333,2019-08-07 16:44:16:477
-5.6701,-6.9224,1.7137,-0.5987,-0.3253,0.3146,0.0251,4.0E-4,-0.034,3338,2019-08-07 16:44:16:482
-5.6701,-6.932,1.6288,-0.5481,-0.3786,0.4023,0.0251,4.0E-4,-0.034,3342,2019-08-07 16:44:16:486
-5.6701,-6.932,1.6288,-0.5481,-0.3786,0.4023,0.0219,4.0E-4,-0.0137,3348,2019-08-07 16:44:16:492
-5.6701,-6.932,1.6288,-0.5481,-0.3786,0.4023,0.0219,4.0E-4,-0.0137,3352,2019-08-07 16:44:16:496
-5.6749,-6.9129,1.6241,-0.5481,-0.3786,0.4023,0.0144,0.0122,0.0033,3358,2019-08-07 16:44:16:502
-5.6749,-6.9129,1.6241,-0.509,-0.4272,0.4066,0.0144,0.0122,0.0033,3363,2019-08-07 16:44:16:507
-5.7323,-6.8508,1.5958,-0.509,-0.4272,0.4066,0.0091,0.0058,0.0172,3368,2019-08-07 16:44:16:512
-5.7323,-6.8508,1.5958,-0.509,-0.4272,0.4066,0.0091,0.0058,0.0172,3372,2019-08-07 16:44:16:516
-5.7323,-6.8508,1.5958,-0.509,-0.4272,0.4066,0.0059,0.0143,0.0278,3378,2019-08-07 16:44:16:522
-5.761,-6.8747,1.6147,-0.4406,-0.4202,0.4373,0.0059,0.0143,0.0278,3383,2019-08-07 16:44:16:527
-5.761,-6.8747,1.6147,-0.4406,-0.4202,0.4373,0.0016,0.0239,0.0257,3388,2019-08-07 16:44:16:532
-5.7945,-6.951,1.6382,-0.4284,-0.3568,0.3882,0.0016,0.0239,0.0257,3393,2019-08-07 16:44:16:537
-5.7945,-6.951,1.6382,-0.4284,-0.3568,0.3882,-5.0E-4,0.0271,0.0289,3398,2019-08-07 16:44:16:542
-5.7945,-6.951,1.6382,-0.4284,-0.3568,0.3882,-5.0E-4,0.0271,0.0289,3403,2019-08-07 16:44:16:547
-5.8519,-6.9272,1.577,-0.4284,-0.3568,0.3882,-5.0E-4,0.0271,0.0289,3408,2019-08-07 16:44:16:552
-5.8519,-6.9272,1.577,-0.4201,-0.3251,0.4512,-0.0069,0.0516,0.0353,3413,2019-08-07 16:44:16:557
-5.8519,-6.9272,1.577,-0.4201,-0.3251,0.4512,-0.0069,0.0516,0.0353,3417,2019-08-07 16:44:16:561
-5.8663,-6.9606,1.577,-0.4201,-0.3251,0.4512,-0.0026,0.0729,0.0395,3423,2019-08-07 16:44:16:567
-5.8663,-6.9606,1.577,-0.4201,-0.3251,0.4512,-0.0026,0.0729,0.0395,3428,2019-08-07 16:44:16:572
-5.9141,-7.0322,1.6429,-0.324,-0.2681,0.3639,-0.0026,0.0793,0.0523,3433,2019-08-07 16:44:16:577
-5.9141,-7.0322,1.6429,-0.324,-0.2681,0.3639,-0.0026,0.0793,0.0523,3438,2019-08-07 16:44:16:582
-5.9763,-7.0847,1.6854,-0.2678,-0.2123,0.3147,-0.0058,0.0921,0.0598,3444,2019-08-07 16:44:16:588
-5.9763,-7.0847,1.6854,-0.2678,-0.2123,0.3147,-0.0058,0.0921,0.0598,3448,2019-08-07 16:44:16:592
-5.9763,-7.0847,1.6854,-0.2678,-0.2123,0.3147,-0.0058,0.0921,0.0598,3453,2019-08-07 16:44:16:597
-6.0816,-7.142,1.7231,-0.2678,-0.2123,0.3147,0.0016,0.0793,0.0598,3457,2019-08-07 16:44:16:601
-6.0816,-7.142,1.7231,-0.0748,-0.1476,0.2786,0.0016,0.0793,0.0598,3463,2019-08-07 16:44:16:607
-6.1629,-7.1324,1.6901,-0.0748,-0.1476,0.2786,0.0038,0.059,0.0576,3468,2019-08-07 16:44:16:612
-6.1629,-7.1324,1.6901,-0.0748,-0.1476,0.2786,0.0038,0.059,0.0576,3473,2019-08-07 16:44:16:617
-6.1629,-7.1324,1.6901,-0.0748,-0.1476,0.2786,0.0038,0.0505,0.0459,3477,2019-08-07 16:44:16:621
-6.1677,-7.0943,1.7231,-0.066,-0.16,0.2611,0.0038,0.0505,0.0459,3483,2019-08-07 16:44:16:627
-6.1677,-7.0943,1.7231,-0.066,-0.16,0.2611,0.0016,0.0313,0.0299,3488,2019-08-07 16:44:16:632
-6.1677,-7.0943,1.7231,-0.066,-0.16,0.2611,0.0016,0.0313,0.0299,3492,2019-08-07 16:44:16:636
-6.2108,-7.1038,1.7184,-0.0596,-0.177,0.2583,-0.0016,0.0292,0.0182,3498,2019-08-07 16:44:16:642
-6.2108,-7.1038,1.7184,-0.0596,-0.177,0.2583,-0.0016,0.0292,0.0182,3502,2019-08-07 16:44:16:646
-6.2108,-7.1038,1.7184,-0.0596,-0.177,0.2583,-0.0016,0.0292,0.0182,3508,2019-08-07 16:44:16:652
-6.1438,-7.0465,1.6618,-0.202,-0.1612,0.2947,-0.0037,0.0303,0.0033,3513,2019-08-07 16:44:16:657
-6.1438,-7.0465,1.6618,-0.202,-0.1612,0.2947,-0.0037,0.0303,0.0033,3518,2019-08-07 16:44:16:662
-6.1438,-7.0465,1.6618,-0.202,-0.1612,0.2947,-5.0E-4,0.0388,-0.0137,3522,2019-08-07 16:44:16:666
-6.1056,-7.0608,1.7608,-0.202,-0.1612,0.2947,-5.0E-4,0.0388,-0.0137,3528,2019-08-07 16:44:16:672
-6.1056,-7.0608,1.7608,-0.202,-0.1612,0.2947,0.0027,0.0356,-0.0095,3532,2019-08-07 16:44:16:676
-5.9477,-6.9606,1.7561,-0.3265,-0.2773,0.1662,0.0027,0.0356,-0.0095,3538,2019-08-07 16:44:16:682
-5.9477,-6.9606,1.7561,-0.3265,-0.2773,0.1662,0.0027,0.0356,-0.0095,3543,2019-08-07 16:44:16:687
-5.9046,-7.0274,1.8221,-0.3265,-0.2773,0.1662,0.0038,0.0217,0.0012,3548,2019-08-07 16:44:16:692
-5.9046,-7.0274,1.8221,-0.3265,-0.2773,0.1662,0.0038,0.0217,0.0012,3552,2019-08-07 16:44:16:696
-5.9046,-7.0274,1.8221,-0.3653,-0.2921,0.0969,0.0016,0.0143,0.014,3558,2019-08-07 16:44:16:702
-5.8664,-7.0226,1.8833,-0.3653,-0.2921,0.0969,0.0016,0.0143,0.014,3563,2019-08-07 16:44:16:707
-5.8664,-7.0226,1.8833,-0.3653,-0.2921,0.0969,-0.0016,0.0058,0.0278,3568,2019-08-07 16:44:16:712
-5.8664,-7.0226,1.8833,-0.3653,-0.2921,0.0969,-0.0016,0.0058,0.0278,3572,2019-08-07 16:44:16:716
-5.8089,-7.1133,1.9729,-0.468,-0.1663,-0.0124,-0.0101,-0.0145,0.031,3578,2019-08-07 16:44:16:722
-5.8089,-7.1133,1.9729,-0.468,-0.1663,-0.0124,-0.0101,-0.0145,0.031,3583,2019-08-07 16:44:16:727
-5.7611,-7.2757,1.8032,-0.468,-0.1663,-0.0124,-0.0101,-0.0145,0.031,3587,2019-08-07 16:44:16:731
-5.7611,-7.2757,1.8032,-0.468,-0.1663,-0.0124,-0.0207,-0.0113,0.0246,3594,2019-08-07 16:44:16:738
-5.7611,-7.2757,1.8032,-0.4741,0.0113,0.246,-0.0207,-0.0113,0.0246,3598,2019-08-07 16:44:16:742
-5.8616,-7.1802,1.7089,-0.4741,0.0113,0.246,-0.0165,0.0026,0.0278,3603,2019-08-07 16:44:16:747
-5.8616,-7.1802,1.7089,-0.4741,0.0113,0.246,-0.0165,0.0026,0.0278,3608,2019-08-07 16:44:16:752
-5.785,-7.1706,1.6429,-0.4741,0.0113,0.246,-0.0112,0.0399,0.031,3612,2019-08-07 16:44:16:756
-5.785,-7.1706,1.6429,-0.4776,-0.1067,0.2824,-0.0112,0.0399,0.031,3618,2019-08-07 16:44:16:762
-5.785,-7.1706,1.6429,-0.4776,-0.1067,0.2824,-0.0186,0.0622,0.0193,3622,2019-08-07 16:44:16:766
-5.852,-7.1563,1.6476,-0.4317,-0.1208,0.3002,-0.0186,0.0622,0.0193,3628,2019-08-07 16:44:16:772
-5.852,-7.1563,1.6476,-0.4317,-0.1208,0.3002,-0.0378,0.0771,0.0108,3633,2019-08-07 16:44:16:777
-5.852,-7.1563,1.6476,-0.4317,-0.1208,0.3002,-0.0378,0.0771,0.0108,3637,2019-08-07 16:44:16:781
-5.9142,-7.1993,1.7513,-0.4317,-0.1208,0.3002,-0.0399,0.0675,0.0022,3644,2019-08-07 16:44:16:788
-5.9142,-7.1993,1.7513,-0.3148,-0.1037,0.171,-0.0399,0.0675,0.0022,3648,2019-08-07 16:44:16:792
-5.957,-7.1945,1.6807,-0.3148,-0.1037,0.171,-0.0357,0.0526,-0.0042,3653,2019-08-07 16:44:16:797
-5.957,-7.1945,1.6807,-0.3148,-0.1037,0.171,-0.0357,0.0526,-0.0042,3657,2019-08-07 16:44:16:801
-5.957,-7.1945,1.6807,-0.3148,-0.1037,0.171,-0.0357,0.042,1.0E-4,3663,2019-08-07 16:44:16:807
-5.8996,-7.1229,1.5911,-0.3877,-0.159,0.3274,-0.0357,0.042,1.0E-4,3668,2019-08-07 16:44:16:812
-5.8996,-7.1229,1.5911,-0.3877,-0.159,0.3274,-0.0357,0.042,1.0E-4,3672,2019-08-07 16:44:16:816
-5.8996,-7.1229,1.5911,-0.3877,-0.159,0.3274,-0.0325,0.0409,0.0012,3678,2019-08-07 16:44:16:822
-5.9139,-7.142,1.6666,-0.3877,-0.159,0.3274,-0.0325,0.0409,0.0012,3683,2019-08-07 16:44:16:827
-5.9139,-7.142,1.6666,-0.3595,-0.1281,0.3159,-0.0357,0.0324,-0.002,3688,2019-08-07 16:44:16:832
-5.9809,-7.1611,1.6288,-0.3595,-0.1281,0.3159,-0.0357,0.0324,-0.002,3693,2019-08-07 16:44:16:837
-5.9809,-7.1611,1.6288,-0.3595,-0.1281,0.3159,-0.0378,0.0281,-0.0042,3698,2019-08-07 16:44:16:842
-5.9809,-7.1611,1.6288,-0.3595,-0.1281,0.3159,-0.0378,0.0281,-0.0042,3703,2019-08-07 16:44:16:847
-6.0718,-7.1468,1.6288,-0.2017,-0.1215,0.2716,-0.0378,0.0281,-0.0042,3708,2019-08-07 16:44:16:852
-6.0718,-7.1468,1.6288,-0.2017,-0.1215,0.2716,-0.0346,0.0185,-0.0073,3713,2019-08-07 16:44:16:857
-6.335,-7.0561,1.2753,-0.2017,-0.1215,0.2716,-0.0346,0.0185,-0.0073,3717,2019-08-07 16:44:16:861
-6.335,-7.0561,1.2753,-0.2017,-0.1215,0.2716,-0.1081,-0.0954,-0.0105,3723,2019-08-07 16:44:16:867
-6.1723,-7.1468,1.8363,-0.1133,-0.1443,0.0527,-0.1081,-0.0954,-0.0105,3727,2019-08-07 16:44:16:871
-6.1723,-7.1468,1.8363,-0.1133,-0.1443,0.0527,-0.0708,-0.1093,-0.0265,3734,2019-08-07 16:44:16:878
-6.1723,-7.1468,1.8363,-0.1133,-0.1443,0.0527,-0.0708,-0.1093,-0.0265,3739,2019-08-07 16:44:16:883
-6.0048,-7.2232,1.6006,-0.1133,-0.1443,0.0527,-0.0176,-0.121,-0.0446,3743,2019-08-07 16:44:16:887
-6.0048,-7.2232,1.6006,-0.4477,-0.0131,0.3318,-0.0176,-0.121,-0.0446,3748,2019-08-07 16:44:16:892
-5.6078,-7.2279,1.4403,-0.4477,-0.0131,0.3318,-0.0176,-0.121,-0.0446,3753,2019-08-07 16:44:16:897
-5.6078,-7.2279,1.4403,-0.4477,-0.0131,0.3318,0.0144,-0.0326,-0.0468,3758,2019-08-07 16:44:16:902
-5.6078,-7.2279,1.4403,-0.4477,-0.0131,0.3318,0.0144,-0.0326,-0.0468,3763,2019-08-07 16:44:16:907
-5.5408,-7.2518,1.4733,-0.7056,-0.0641,0.3948,0.0293,0.0665,-0.0361,3767,2019-08-07 16:44:16:911
-5.5408,-7.2518,1.4733,-0.7056,-0.0641,0.3948,0.0293,0.0665,-0.0361,3773,2019-08-07 16:44:16:917
-5.5025,-7.2184,1.577,-0.7056,-0.0641,0.3948,0.0666,0.1645,-0.0244,3777,2019-08-07 16:44:16:921
-5.5025,-7.2184,1.577,-0.7056,-0.0641,0.3948,0.0666,0.1645,-0.0244,3784,2019-08-07 16:44:16:928
-5.5025,-7.2184,1.577,-0.5003,-0.2249,0.395,0.0602,0.2178,-0.0116,3788,2019-08-07 16:44:16:932
-5.8422,-7.0131,1.5581,-0.5003,-0.2249,0.395,0.0602,0.2178,-0.0116,3794,2019-08-07 16:44:16:938
-5.8422,-7.0131,1.5581,-0.5003,-0.2249,0.395,0.0293,0.2092,-0.001,3798,2019-08-07 16:44:16:942
-5.9618,-6.9511,1.6194,-0.5003,-0.2249,0.395,0.0293,0.2092,-0.001,3802,2019-08-07 16:44:16:946
-5.9618,-6.9511,1.6194,-0.2392,-0.3202,0.1229,0.0112,0.1656,-0.0063,3808,2019-08-07 16:44:16:952
-5.9618,-6.9511,1.6194,-0.2392,-0.3202,0.1229,0.0112,0.1656,-0.0063,3812,2019-08-07 16:44:16:956
-6.1675,-7.0083,1.7467,-0.2392,-0.3202,0.1229,-0.0026,0.1091,-0.0031,3818,2019-08-07 16:44:16:962
-6.1675,-7.0083,1.7467,-0.2392,-0.3202,0.1229,-0.0026,0.1091,-0.0031,3822,2019-08-07 16:44:16:966