ACCELEROMETER X (m/s²),ACCELEROMETER Y (m/s²),ACCELEROMETER Z (m/s²),LINEAR ACCELERATION X (m/s²),LINEAR ACCELERATION Y (m/s²),LINEAR ACCELERATION Z (m/s²),GYROSCOPE X (rad/s),GYROSCOPE Y (rad/s),GYROSCOPE Z (rad/s),Time since start in ms ,YYYY-MO-DD HH-MI-SS_SSS
-5.82,-7.2793,0.3207,-0.537,-0.268,0.0744,-0.0048,-0.024,0.0171,2,2019-08-07 16:46:37:210
-5.82,-7.2793,0.3207,-0.537,-0.268,0.0744,-0.0079,-0.0113,0.0288,8,2019-08-07 16:46:37:216
-5.8008,-7.2937,0.283,-0.537,-0.268,0.0744,-0.0079,-0.0113,0.0288,12,2019-08-07 16:46:37:220
-5.8008,-7.2937,0.283,-0.5105,-0.228,0.1596,-0.0101,0.009,0.0299,18,2019-08-07 16:46:37:226
-5.8008,-7.2937,0.283,-0.5105,-0.228,0.1596,-0.0101,0.009,0.0299,23,2019-08-07 16:46:37:231
-5.9109,-7.2459,0.1935,-0.3925,-0.2602,0.2093,-0.0069,0.0314,0.0224,28,2019-08-07 16:46:37:236
-5.9109,-7.2459,0.1935,-0.3925,-0.2602,0.2093,-0.0069,0.0314,0.0224,33,2019-08-07 16:46:37:241
-5.9109,-7.2459,0.1935,-0.3925,-0.2602,0.2093,-0.0079,0.0633,0.0203,38,2019-08-07 16:46:37:246
-5.997,-7.2364,0.2453,-0.3925,-0.2602,0.2093,-0.0079,0.0633,0.0203,43,2019-08-07 16:46:37:251
-5.997,-7.2364,0.2453,-0.2762,-0.3104,0.1811,-0.009,0.0761,0.0171,48,2019-08-07 16:46:37:256
-6.0879,-7.2459,0.2076,-0.2762,-0.3104,0.1811,-0.009,0.0761,0.0171,54,2019-08-07 16:46:37:262
-6.0879,-7.2459,0.2076,-0.2762,-0.3104,0.1811,-0.009,0.0761,0.0171,58,2019-08-07 16:46:37:266
-6.0879,-7.2459,0.2076,-0.2762,-0.3104,0.1811,-0.0058,0.0825,0.0,63,2019-08-07 16:46:37:271
-6.1931,-7.2555,0.3726,-0.115,-0.2478,0.0087,-0.0058,0.0825,0.0,68,2019-08-07 16:46:37:276
-6.1931,-7.2555,0.3726,-0.115,-0.2478,0.0087,0.0048,0.075,-0.0053,72,2019-08-07 16:46:37:280
-6.1931,-7.2556,0.2926,-0.115,-0.2478,0.0087,0.0048,0.075,-0.0053,78,2019-08-07 16:46:37:286
-6.0872,-7.2556,0.2926,-0.115,-0.2478,0.0087,0.0123,0.0697,-0.0095,83,2019-08-07 16:46:37:291
-6.0872,-7.2556,0.2926,-0.2346,-0.2057,-0.0612,0.0123,0.0697,-0.0095,87,2019-08-07 16:46:37:295
-6.0872,-7.2556,0.2926,-0.2346,-0.2057,-0.0612,0.0123,0.0697,-0.0095,93,2019-08-07 16:46:37:301
-6.1302,-7.3033,0.3775,-0.2346,-0.2057,-0.0612,0.0166,0.042,-0.0042,98,2019-08-07 16:46:37:306
-6.1302,-7.3033,0.3775,-0.2346,-0.2057,-0.0612,0.0166,0.042,-0.0042,103,2019-08-07 16:46:37:311
-6.1302,-7.3033,0.3775,-0.2634,-0.2391,-0.0803,0.0272,-0.0091,0.0075,107,2019-08-07 16:46:37:315
-6.068,-7.2842,0.4765,-0.2634,-0.2391,-0.0803,0.0272,-0.0091,0.0075,113,2019-08-07 16:46:37:321
-6.068,-7.2842,0.4765,-0.2634,-0.2391,-0.0803,0.0208,-0.0262,0.0192,118,2019-08-07 16:46:37:326
-6.068,-7.2842,0.4765,-0.2634,-0.2391,-0.0803,0.0208,-0.0262,0.0192,122,2019-08-07 16:46:37:330
-6.0106,-7.2556,0.401,-0.2941,-0.2466,-0.0029,0.0187,-0.0304,0.0224,128,2019-08-07 16:46:37:336
-6.0106,-7.2556,0.401,-0.2941,-0.2466,-0.0029,0.0187,-0.0304,0.0224,133,2019-08-07 16:46:37:341
-6.0106,-7.2556,0.401,-0.2941,-0.2466,-0.0029,0.0187,-0.0304,0.0224,138,2019-08-07 16:46:37:346
-5.934,-7.2556,0.4105,-0.2941,-0.2466,-0.0029,0.0123,-0.0326,0.0245,142,2019-08-07 16:46:37:350
-5.934,-7.2556,0.4105,-0.3732,-0.2728,0.1257,0.0027,-0.0038,0.0171,149,2019-08-07 16:46:37:357
-5.9388,-7.2556,0.2549,-0.3732,-0.2728,0.1257,0.0027,-0.0038,0.0171,153,2019-08-07 16:46:37:361
-5.9388,-7.2556,0.2549,-0.3732,-0.2728,0.1257,0.0027,-0.0038,0.0171,157,2019-08-07 16:46:37:365
-5.9388,-7.2556,0.2549,-0.3732,-0.2728,0.1257,-5.0E-4,0.0324,0.0128,163,2019-08-07 16:46:37:371
-5.9962,-7.2317,0.3162,-0.2888,-0.2668,0.066,-5.0E-4,0.0324,0.0128,168,2019-08-07 16:46:37:376
-5.9962,-7.2317,0.3162,-0.2888,-0.2668,0.066,-5.0E-4,0.0686,0.0,173,2019-08-07 16:46:37:381
-6.0727,-7.289,0.3209,-0.2888,-0.2668,0.066,-5.0E-4,0.0686,0.0,178,2019-08-07 16:46:37:386
-6.0727,-7.289,0.3209,-0.2888,-0.2668,0.066,-0.0069,0.074,-0.0053,183,2019-08-07 16:46:37:391
-6.0727,-7.289,0.3209,-0.222,-0.2051,-0.0146,-0.0069,0.074,-0.0053,187,2019-08-07 16:46:37:395
-6.1636,-7.2365,0.4623,-0.222,-0.2051,-0.0146,-0.0069,0.074,-0.0053,193,2019-08-07 16:46:37:401
-6.1636,-7.2365,0.4623,-0.222,-0.2051,-0.0146,-0.009,0.0686,-0.0117,198,2019-08-07 16:46:37:406
-6.1827,-7.2985,0.4718,-0.222,-0.2051,-0.0146,-0.009,0.0686,-0.0117,203,2019-08-07 16:46:37:411
-6.1827,-7.2985,0.4718,-0.222,-0.2051,-0.0146,-0.0079,0.0282,-0.0117,208,2019-08-07 16:46:37:416
-6.1827,-7.2985,0.4718,-0.1061,-0.1395,-0.0788,-0.0079,0.0282,-0.0117,213,2019-08-07 16:46:37:421
-6.1205,-7.3606,0.4859,-0.1061,-0.1395,-0.0788,-0.009,-0.007,-0.0085,218,2019-08-07 16:46:37:426
-6.1205,-7.3606,0.4859,-0.1061,-0.1395,-0.0788,-0.009,-0.007,-0.0085,224,2019-08-07 16:46:37:432
-6.0392,-7.3701,0.4152,-0.2288,-0.1171,-0.0213,-0.0026,-0.0358,-0.0053,229,2019-08-07 16:46:37:437
-6.0392,-7.3701,0.4152,-0.2288,-0.1171,-0.0213,-0.0026,-0.0358,-0.0053,232,2019-08-07 16:46:37:440
-6.0392,-7.3701,0.4152,-0.2288,-0.1171,-0.0213,6.0E-4,-0.0464,0.0011,238,2019-08-07 16:46:37:446
-6.0392,-7.3701,0.4152,-0.2288,-0.1171,-0.0213,6.0E-4,-0.0464,0.0011,242,2019-08-07 16:46:37:450
-5.9148,-7.3272,0.3869,-0.4186,-0.1945,0.1072,6.0E-4,-0.0368,0.0032,249,2019-08-07 16:46:37:457
-5.9148,-7.3272,0.3869,-0.4186,-0.1945,0.1072,6.0E-4,-0.0368,0.0032,253,2019-08-07 16:46:37:461
-5.9004,-7.289,0.2597,-0.4186,-0.1945,0.1072,6.0E-4,-0.0368,0.0032,257,2019-08-07 16:46:37:465
-5.9004,-7.289,0.2597,-0.4186,-0.1945,0.1072,-0.0016,-0.0102,0.0043,263,2019-08-07 16:46:37:471
-5.9004,-7.289,0.2597,-0.4186,-0.1945,0.1072,-0.0016,-0.0102,0.0043,268,2019-08-07 16:46:37:476
-5.91,-7.2985,0.2644,-0.3989,-0.2045,0.1083,-0.0026,0.0186,0.0011,273,2019-08-07 16:46:37:481
-5.91,-7.2985,0.2644,-0.3989,-0.2045,0.1083,-0.0026,0.0186,0.0011,278,2019-08-07 16:46:37:486
-5.9626,-7.3033,0.2502,-0.3989,-0.2045,0.1083,0.0027,0.0399,-0.0042,283,2019-08-07 16:46:37:491
-5.9626,-7.3033,0.2502,-0.3989,-0.2045,0.1083,0.0027,0.0399,-0.0042,287,2019-08-07 16:46:37:495
-5.9626,-7.3033,0.2502,-0.2402,-0.234,0.1271,0.0038,0.0516,-0.0085,293,2019-08-07 16:46:37:501
-6.1252,-7.2747,0.2502,-0.2402,-0.234,0.1271,0.0038,0.0516,-0.0085,298,2019-08-07 16:46:37:506
-6.1252,-7.2747,0.2502,-0.2402,-0.234,0.1271,0.0038,0.0516,-0.0085,302,2019-08-07 16:46:37:510
-6.1635,-7.1935,0.3304,-0.2402,-0.234,0.1271,0.0059,0.0399,-0.0106,308,2019-08-07 16:46:37:516
-6.1635,-7.1935,0.3304,-0.1583,-0.3017,-0.0105,0.0059,0.0399,-0.0106,313,2019-08-07 16:46:37:521
-6.1635,-7.1935,0.3304,-0.1583,-0.3017,-0.0105,0.0027,0.0132,-0.0095,317,2019-08-07 16:46:37:525
-6.1444,-7.2269,0.3351,-0.1583,-0.3017,-0.0105,0.0027,0.0132,-0.0095,323,2019-08-07 16:46:37:531
-6.1444,-7.2269,0.3351,-0.1583,-0.3017,-0.0105,0.0016,-0.0113,-0.0085,328,2019-08-07 16:46:37:536
-6.0343,-7.2603,0.288,-0.2718,-0.2455,0.0743,0.0016,-0.0113,-0.0085,333,2019-08-07 16:46:37:541
-6.0343,-7.2603,0.288,-0.2718,-0.2455,0.0743,0.0016,-0.0113,-0.0085,337,2019-08-07 16:46:37:545
-5.886,-7.2842,0.2832,-0.2718,-0.2455,0.0743,0.0027,-0.024,0.0043,343,2019-08-07 16:46:37:551
-5.886,-7.2842,0.2832,-0.2718,-0.2455,0.0743,0.0027,-0.024,0.0043,347,2019-08-07 16:46:37:555
-5.886,-7.2842,0.2832,-0.4145,-0.2175,0.0772,0.0027,-0.0155,0.0096,353,2019-08-07 16:46:37:561
-5.8333,-7.2699,0.3964,-0.4145,-0.2175,0.0772,0.0027,-0.0155,0.0096,357,2019-08-07 16:46:37:565
-5.8333,-7.2699,0.3964,-0.4145,-0.2175,0.0772,0.007,-0.0155,0.0213,363,2019-08-07 16:46:37:571
-5.8333,-7.2699,0.3964,-0.4145,-0.2175,0.0772,0.007,-0.0155,0.0213,368,2019-08-07 16:46:37:576
-5.8812,-7.2413,0.2738,-0.4257,-0.2637,0.0939,0.0048,0.0079,0.0277,372,2019-08-07 16:46:37:580
-5.8812,-7.2413,0.2738,-0.4257,-0.2637,0.0939,0.0048,0.0079,0.0277,378,2019-08-07 16:46:37:586
-5.9338,-7.1744,0.2738,-0.4257,-0.2637,0.0939,-0.0037,0.0239,0.0331,383,2019-08-07 16:46:37:591
-5.9338,-7.1744,0.2738,-0.4257,-0.2637,0.0939,-0.0037,0.0239,0.0331,388,2019-08-07 16:46:37:596
-5.9338,-7.1744,0.2738,-0.3106,-0.2887,0.0723,-0.0037,0.0239,0.0331,393,2019-08-07 16:46:37:601
-5.9529,-7.2604,0.321,-0.3106,-0.2887,0.0723,-0.0079,0.0282,0.0405,398,2019-08-07 16:46:37:606
-5.9529,-7.2604,0.321,-0.3106,-0.2887,0.0723,-0.0079,0.0282,0.0405,402,2019-08-07 16:46:37:610
-5.9529,-7.2604,0.321,-0.3106,-0.2887,0.0723,-0.0037,0.0409,0.0373,408,2019-08-07 16:46:37:616
-6.0582,-7.2031,0.2785,-0.2637,-0.2746,0.0285,-0.0037,0.0505,0.0363,413,2019-08-07 16:46:37:621
-6.0582,-7.2031,0.2785,-0.2637,-0.2746,0.0285,-0.0037,0.0505,0.0363,418,2019-08-07 16:46:37:626
-6.1203,-7.2842,0.3445,-0.2637,-0.2746,0.0285,-0.0037,0.0505,0.0363,423,2019-08-07 16:46:37:631
-6.1203,-7.2842,0.3445,-0.2637,-0.2746,0.0285,0.0059,0.058,0.0245,427,2019-08-07 16:46:37:635
-6.1203,-7.2842,0.3445,-0.1684,-0.2658,-0.0302,0.0059,0.058,0.0245,433,2019-08-07 16:46:37:641
-6.173,-7.2078,0.354,-0.1684,-0.2658,-0.0302,0.0134,0.0452,0.0213,438,2019-08-07 16:46:37:646
-6.173,-7.2078,0.354,-0.075,-0.2974,4.0E-4,0.0134,0.0452,0.0213,444,2019-08-07 16:46:37:652
-6.173,-7.2078,0.354,-0.075,-0.2974,4.0E-4,0.0134,0.0452,0.0213,448,2019-08-07 16:46:37:656
-6.2973,-7.1983,0.387,-0.075,-0.2974,4.0E-4,0.0123,0.0207,0.0235,453,2019-08-07 16:46:37:661
-6.2973,-7.1983,0.387,-0.075,-0.2974,4.0E-4,0.0123,0.0207,0.0235,458,2019-08-07 16:46:37:666
-6.1729,-7.184,0.3445,-0.1317,-0.3083,-0.0468,0.0112,-0.007,0.0181,463,2019-08-07 16:46:37:671
-6.1729,-7.184,0.3445,-0.1317,-0.3083,-0.0468,0.0112,-0.007,0.0181,468,2019-08-07 16:46:37:676
-6.1203,-7.2126,0.3964,-0.1317,-0.3083,-0.0468,0.0038,-0.0272,0.0213,472,2019-08-07 16:46:37:680
-6.1203,-7.2126,0.3964,-0.1317,-0.3083,-0.0468,0.0038,-0.0272,0.0213,478,2019-08-07 16:46:37:686
-6.1203,-7.2126,0.3964,-0.3023,-0.1813,0.0092,-5.0E-4,-0.0262,0.0224,484,2019-08-07 16:46:37:692
-6.0581,-7.289,0.387,-0.3023,-0.1813,0.0092,-5.0E-4,-0.0262,0.0224,488,2019-08-07 16:46:37:696
-6.0581,-7.289,0.387,-0.3023,-0.1813,0.0092,-5.0E-4,-0.0262,0.0224,493,2019-08-07 16:46:37:701
-6.0485,-7.332,0.288,-0.318,-0.1754,0.0532,-5.0E-4,-0.023,0.0235,497,2019-08-07 16:46:37:705
-6.0485,-7.332,0.288,-0.318,-0.1754,0.0532,-5.0E-4,-0.023,0.0235,503,2019-08-07 16:46:37:711
-6.0485,-7.332,0.288,-0.318,-0.1754,0.0532,0.0016,-0.0081,0.016,508,2019-08-07 16:46:37:716
-5.9911,-7.3272,0.2927,-0.3679,-0.1784,0.0545,0.0016,-0.0081,0.016,513,2019-08-07 16:46:37:721
-5.9911,-7.3272,0.2927,-0.3679,-0.1784,0.0545,-5.0E-4,0.0058,0.0139,518,2019-08-07 16:46:37:726
-5.9911,-7.3272,0.2927,-0.3679,-0.1784,0.0545,-5.0E-4,0.0058,0.0139,523,2019-08-07 16:46:37:731
-6.0102,-7.3081,0.2267,-0.3679,-0.1784,0.0545,-0.0058,0.0303,0.0054,528,2019-08-07 16:46:37:736
-6.0102,-7.3081,0.2267,-0.1963,-0.1637,0.0602,-0.0058,0.0303,0.0054,533,2019-08-07 16:46:37:741
-6.0102,-7.3081,0.2267,-0.1963,-0.1637,0.0602,-0.0058,0.0314,-0.0032,538,2019-08-07 16:46:37:746
-6.1537,-7.2795,0.4058,-0.1963,-0.1637,0.0602,-0.0058,0.0314,-0.0032,543,2019-08-07 16:46:37:751
-6.1537,-7.2795,0.4058,-0.1963,-0.1637,0.0602,-0.0037,0.0143,0.0,548,2019-08-07 16:46:37:756
-6.1154,-7.289,0.3493,-0.22,-0.1927,-1.0E-4,-0.0037,0.0143,0.0,553,2019-08-07 16:46:37:761
-6.1154,-7.289,0.3493,-0.22,-0.1927,-1.0E-4,-0.0037,0.0143,0.0,558,2019-08-07 16:46:37:766
-6.1154,-7.289,0.3493,-0.22,-0.1927,-1.0E-4,-0.0048,-0.0038,-0.0053,563,2019-08-07 16:46:37:771
-6.1106,-7.3129,0.3069,-0.22,-0.1927,-1.0E-4,-0.0048,-0.0038,-0.0053,568,2019-08-07 16:46:37:776
-6.1106,-7.3129,0.3069,-0.2422,-0.1465,0.009,-0.0026,-0.0102,-0.0149,573,2019-08-07 16:46:37:781
-6.1106,-7.2795,0.3069,-0.2422,-0.1465,0.009,-0.0026,-0.0102,-0.0149,579,2019-08-07 16:46:37:787
-6.1106,-7.2795,0.3069,-0.2422,-0.1465,0.009,0.0027,-0.0198,-0.0138,584,2019-08-07 16:46:37:792
-6.1106,-7.2795,0.3069,-0.2422,-0.1465,0.009,0.0027,-0.0198,-0.0138,588,2019-08-07 16:46:37:796
-6.1106,-7.2795,0.3069,-0.2422,-0.1465,0.009,0.0027,-0.0198,-0.0138,593,2019-08-07 16:46:37:801
-6.0006,-7.3033,0.3069,-0.3114,-0.1867,0.0064,0.0048,-0.0208,-0.0095,597,2019-08-07 16:46:37:805
-6.0006,-7.3033,0.3069,-0.3114,-0.1867,0.0064,0.0048,-0.0208,-0.0095,603,2019-08-07 16:46:37:811
-6.0006,-7.2747,0.3681,-0.3114,-0.1867,0.0064,6.0E-4,-0.0187,-0.0032,608,2019-08-07 16:46:37:816
-6.0006,-7.2747,0.3681,-0.482,-0.2071,-0.0047,0.0016,-0.0219,0.0011,613,2019-08-07 16:46:37:821
-5.8905,-7.2842,0.3163,-0.482,-0.2071,-0.0047,0.0016,-0.0219,0.0011,618,2019-08-07 16:46:37:826
-5.8905,-7.2842,0.3163,-0.482,-0.2071,-0.0047,0.0016,-0.0219,0.0011,623,2019-08-07 16:46:37:831
-5.8905,-7.2842,0.3163,-0.482,-0.2071,-0.0047,0.007,-0.0091,0.0022,628,2019-08-07 16:46:37:836
-5.991,-7.2126,0.3446,-0.482,-0.2071,-0.0047,0.007,-0.0091,0.0022,633,2019-08-07 16:46:37:841
-5.991,-7.2126,0.3446,-0.3428,-0.2694,0.0733,0.0048,-0.0176,0.0118,637,2019-08-07 16:46:37:845
-5.9096,-7.2413,0.321,-0.3428,-0.2694,0.0733,0.0048,-0.0187,0.0224,643,2019-08-07 16:46:37:851
-5.9096,-7.2413,0.321,-0.3428,-0.2694,0.0733,0.0048,-0.0187,0.0224,648,2019-08-07 16:46:37:856
-5.9096,-7.2413,0.321,-0.3428,-0.2694,0.0733,0.0048,-0.0187,0.0224,653,2019-08-07 16:46:37:861
-5.9814,-7.2317,0.2692,-0.364,-0.2819,0.0805,0.0059,-0.0017,0.0267,658,2019-08-07 16:46:37:866
-5.9814,-7.2317,0.2692,-0.364,-0.2819,0.0805,0.0059,-0.0017,0.0267,663,2019-08-07 16:46:37:871
-5.9814,-7.2317,0.2692,-0.364,-0.2819,0.0805,0.0048,0.0111,0.0299,668,2019-08-07 16:46:37:876
-6.0531,-7.1267,0.3116,-0.364,-0.2819,0.0805,0.0048,0.0111,0.0299,673,2019-08-07 16:46:37:881
-6.0531,-7.1267,0.3116,-0.2771,-0.3454,0.0331,0.008,0.026,0.0277,678,2019-08-07 16:46:37:886
-6.1488,-7.1649,0.3069,-0.2771,-0.3454,0.0331,0.008,0.026,0.0277,682,2019-08-07 16:46:37:890
-6.1488,-7.1649,0.3069,-0.2771,-0.3454,0.0331,0.0027,0.025,0.0181,688,2019-08-07 16:46:37:896
-6.1488,-7.1649,0.3069,-0.2771,-0.3454,0.0331,0.0027,0.025,0.0181,692,2019-08-07 16:46:37:900
-6.211,-7.1219,0.3964,-0.0756,-0.3324,0.021,-0.0037,0.0101,0.0171,699,2019-08-07 16:46:37:907
-6.211,-7.1219,0.3964,-0.0756,-0.3324,0.021,-0.0037,0.0101,0.0171,703,2019-08-07 16:46:37:911
-6.211,-7.1219,0.3964,-0.0756,-0.3324,0.021,-0.0037,0.0101,0.0171,708,2019-08-07 16:46:37:916
-6.211,-7.1649,0.2739,-0.0756,-0.3324,0.021,-0.0058,0.0037,0.0096,713,2019-08-07 16:46:37:921
-6.211,-7.1649,0.2739,-0.1212,-0.2826,0.076,-0.0058,0.0037,0.0096,718,2019-08-07 16:46:37:926
-6.211,-7.2079,0.3304,-0.1212,-0.2826,0.076,-0.0079,-0.0081,0.0022,723,2019-08-07 16:46:37:931
-6.211,-7.2079,0.3304,-0.1212,-0.2826,0.076,-0.0079,-0.0081,0.0022,728,2019-08-07 16:46:37:936
-6.211,-7.2079,0.3304,-0.1212,-0.2826,0.076,-0.0133,-0.0187,-0.001,733,2019-08-07 16:46:37:941
-6.1775,-7.1792,0.3163,-0.1647,-0.2966,0.0379,-0.0133,-0.0187,-0.001,738,2019-08-07 16:46:37:946
-6.1775,-7.1792,0.3163,-0.1647,-0.2966,0.0379,-0.0133,-0.0187,-0.001,743,2019-08-07 16:46:37:951
-6.0866,-7.2652,0.2597,-0.1647,-0.2966,0.0379,-0.0186,-0.0315,-0.0032,748,2019-08-07 16:46:37:956
-6.0866,-7.2652,0.2597,-0.1647,-0.2966,0.0379,-0.0186,-0.0315,-0.0032,753,2019-08-07 16:46:37:961
-6.0866,-7.3559,0.2645,-0.3356,-0.1449,0.1186,-0.0165,-0.0251,-0.0095,759,2019-08-07 16:46:37:967
-5.9574,-7.3559,0.2645,-0.3356,-0.1449,0.1186,-0.0165,-0.0251,-0.0095,763,2019-08-07 16:46:37:971
-5.9574,-7.3559,0.2645,-0.3356,-0.1449,0.1186,-0.009,-0.0187,-0.0106,768,2019-08-07 16:46:37:976
-5.9861,-7.3606,0.321,-0.3356,-0.1449,0.1186,-0.009,-0.0187,-0.0106,772,2019-08-07 16:46:37:980
-5.9861,-7.3606,0.321,-0.3897,-0.1239,0.1277,-0.0048,0.0015,-0.0149,779,2019-08-07 16:46:37:987
-5.9861,-7.3606,0.321,-0.3897,-0.1239,0.1277,-0.0048,0.0015,-0.0149,783,2019-08-07 16:46:37:991
-6.0052,-7.3368,0.2315,-0.3897,-0.1239,0.1277,0.0059,0.0196,-0.0191,789,2019-08-07 16:46:37:997
-6.0052,-7.3368,0.2315,-0.3897,-0.1239,0.1277,0.0059,0.0196,-0.0191,793,2019-08-07 16:46:38:001
-6.0052,-7.3368,0.2315,-0.2618,-0.1555,-0.0291,0.0059,0.0196,-0.0191,797,2019-08-07 16:46:38:005
-6.0817,-7.3129,0.4012,-0.2618,-0.1555,-0.0291,0.0134,0.0164,-0.017,803,2019-08-07 16:46:38:011
-6.0817,-7.3129,0.4012,-0.2618,-0.1555,-0.0291,0.0134,0.0164,-0.017,807,2019-08-07 16:46:38:015
-6.0865,-7.3034,0.387,-0.2618,-0.1555,-0.0291,0.0166,0.0047,-0.0234,813,2019-08-07 16:46:38:021
-6.0865,-7.3034,0.387,-0.1914,-0.1775,-0.0466,0.0166,0.0047,-0.0234,818,2019-08-07 16:46:38:026
-6.0865,-7.3034,0.387,-0.1914,-0.1775,-0.0466,0.0219,-0.0155,-0.0213,823,2019-08-07 16:46:38:031
-6.0913,-7.2604,0.3446,-0.2851,-0.2029,-0.0111,0.0219,-0.0155,-0.0213,828,2019-08-07 16:46:38:036
-6.0913,-7.2604,0.3446,-0.2851,-0.2029,-0.0111,0.0176,-0.0219,-0.0287,833,2019-08-07 16:46:38:041
-6.0865,-7.2604,0.3399,-0.2851,-0.2029,-0.0111,0.0176,-0.0219,-0.0287,838,2019-08-07 16:46:38:046
-6.0865,-7.2604,0.3399,-0.2851,-0.2029,-0.0111,0.0176,-0.0219,-0.0287,843,2019-08-07 16:46:38:051
-6.0865,-7.2604,0.3399,-0.3234,-0.2401,0.0132,0.0166,-0.0219,-0.0298,848,2019-08-07 16:46:38:056
-6.0291,-7.2747,0.354,-0.3234,-0.2401,0.0132,0.0166,-0.0219,-0.0298,852,2019-08-07 16:46:38:060
-6.0291,-7.2747,0.354,-0.3234,-0.2401,0.0132,0.0134,-0.0145,-0.0362,858,2019-08-07 16:46:38:066
-6.0003,-7.2843,0.2598,-0.3234,-0.2401,0.0132,0.0134,-0.0145,-0.0362,863,2019-08-07 16:46:38:071
-6.0003,-7.2843,0.2598,-0.2842,-0.2544,0.0636,0.0112,-0.0017,-0.0394,867,2019-08-07 16:46:38:075
-6.0003,-7.2843,0.2598,-0.2842,-0.2544,0.0636,0.0112,-0.0017,-0.0394,873,2019-08-07 16:46:38:081
-6.0769,-7.2747,0.3352,-0.2842,-0.2544,0.0636,0.0091,0.009,-0.0394,878,2019-08-07 16:46:38:086
-6.0769,-7.2747,0.3352,-0.2842,-0.2544,0.0636,0.0091,0.009,-0.0394,884,2019-08-07 16:46:38:092
-6.0769,-7.2747,0.3352,-0.3019,-0.2405,-0.0115,0.0091,0.009,-0.0372,887,2019-08-07 16:46:38:095
-6.0434,-7.2556,0.3918,-0.3019,-0.2405,-0.0115,0.0091,0.009,-0.0372,893,2019-08-07 16:46:38:101
-6.0434,-7.2556,0.3918,-0.3019,-0.2405,-0.0115,0.0091,0.0047,-0.0372,898,2019-08-07 16:46:38:106
-6.0242,-7.227,0.4059,-0.3019,-0.2405,-0.0115,0.0091,0.0047,-0.0372,903,2019-08-07 16:46:38:111
-6.0242,-7.227,0.4059,-0.3019,-0.2405,-0.0115,0.0091,0.0047,-0.0372,908,2019-08-07 16:46:38:116
-6.0242,-7.227,0.4059,-0.2819,-0.3264,-0.0341,0.0048,-0.007,-0.0287,913,2019-08-07 16:46:38:121
-6.0147,-7.2031,0.3871,-0.2819,-0.3264,-0.0341,0.0048,-0.007,-0.0287,918,2019-08-07 16:46:38:126
-6.0147,-7.2031,0.3871,-0.2819,-0.3264,-0.0341,-5.0E-4,-0.0145,-0.0223,922,2019-08-07 16:46:38:130
-5.9955,-7.2031,0.3588,-0.3063,-0.2583,0.0104,-5.0E-4,-0.0145,-0.0223,929,2019-08-07 16:46:38:137
-5.9955,-7.2031,0.3588,-0.3063,-0.2583,0.0104,-5.0E-4,-0.0176,-0.0202,932,2019-08-07 16:46:38:140
-5.9955,-7.2031,0.3588,-0.3063,-0.2583,0.0104,-5.0E-4,-0.0176,-0.0202,938,2019-08-07 16:46:38:146
-5.9764,-7.2127,0.3635,-0.3063,-0.2583,0.0104,-5.0E-4,-0.0187,-0.017,943,2019-08-07 16:46:38:151
-5.9764,-7.2127,0.3635,-0.3795,-0.2992,0.0221,-5.0E-4,-0.0187,-0.017,948,2019-08-07 16:46:38:156
-5.9764,-7.2127,0.3635,-0.3795,-0.2992,0.0221,-0.0058,-0.0091,-0.0138,953,2019-08-07 16:46:38:161
-5.9046,-7.2556,0.3211,-0.3795,-0.2992,0.0221,-0.0058,-0.0091,-0.0138,958,2019-08-07 16:46:38:166
-5.9046,-7.2556,0.3211,-0.3795,-0.2992,0.0221,-0.0122,0.0069,-0.0149,963,2019-08-07 16:46:38:171
-5.9046,-7.2556,0.3211,-0.3795,-0.2992,0.0221,-0.0122,0.0069,-0.0149,968,2019-08-07 16:46:38:176
-5.9333,-7.2365,0.2834,-0.3621,-0.2779,0.0868,-0.0122,0.0069,-0.0149,973,2019-08-07 16:46:38:181
-5.9333,-7.2365,0.2834,-0.3621,-0.2779,0.0868,-0.009,0.0186,-0.0095,978,2019-08-07 16:46:38:186
-6.0098,-7.2365,0.3211,-0.3621,-0.2779,0.0868,-0.009,0.0186,-0.0095,983,2019-08-07 16:46:38:191
-6.0098,-7.2365,0.3211,-0.3271,-0.289,0.0412,-0.008,0.0132,-0.0042,988,2019-08-07 16:46:38:196
-6.0194,-7.2222,0.3022,-0.3271,-0.289,0.0412,-0.008,0.0132,-0.0042,992,2019-08-07 16:46:38:200
-6.0194,-7.2222,0.3022,-0.3271,-0.289,0.0412,-0.008,0.0132,-0.0042,997,2019-08-07 16:46:38:205
-6.0194,-7.2222,0.3022,-0.3271,-0.289,0.0412,-0.0069,0.0037,-0.0032,1003,2019-08-07 16:46:38:211
-5.9954,-7.2652,0.2268,-0.3271,-0.289,0.0412,-0.0069,0.0037,-0.0032,1008,2019-08-07 16:46:38:216
-5.9954,-7.2652,0.2268,-0.3216,-0.2372,0.1224,-0.008,0.0069,0.0,1013,2019-08-07 16:46:38:221
-5.9954,-7.2652,0.2268,-0.3216,-0.2372,0.1224,-0.008,0.0069,0.0,1017,2019-08-07 16:46:38:225
-6.0193,-7.2222,0.3682,-0.3216,-0.2372,0.1224,-0.008,0.0069,0.0,1023,2019-08-07 16:46:38:231
-6.0193,-7.2222,0.3682,-0.3216,-0.2372,0.1224,-0.0101,-6.0E-4,0.0086,1027,2019-08-07 16:46:38:235
-5.9954,-7.3034,0.3022,-0.3125,-0.2225,0.0313,-0.0101,-6.0E-4,0.0086,1033,2019-08-07 16:46:38:241
-5.9954,-7.3034,0.3022,-0.3125,-0.2225,0.0313,-0.0048,0.0058,0.0075,1038,2019-08-07 16:46:38:246
-5.9954,-7.3034,0.3022,-0.3125,-0.2225,0.0313,-0.0048,0.0058,0.0075,1042,2019-08-07 16:46:38:250
-6.0576,-7.2795,0.2787,-0.3125,-0.2225,0.0313,-0.0048,0.0122,0.0075,1048,2019-08-07 16:46:38:256
-6.0576,-7.2795,0.2787,-0.2132,-0.2456,0.0574,-0.0048,0.0122,0.0075,1053,2019-08-07 16:46:38:261
-6.0576,-7.2795,0.2787,-0.2132,-0.2456,0.0574,-0.0048,0.0122,0.0075,1059,2019-08-07 16:46:38:267
-6.0097,-7.3034,0.2975,-0.2132,-0.2456,0.0574,-0.0069,0.0015,0.0086,1062,2019-08-07 16:46:38:270
-6.0097,-7.3034,0.2975,-0.2132,-0.2456,0.0574,-0.0069,0.0015,0.0086,1068,2019-08-07 16:46:38:276
-5.9954,-7.3129,0.3871,-0.2478,-0.24,-5.0E-4,-0.009,-6.0E-4,0.0054,1072,2019-08-07 16:46:38:280
-5.9954,-7.3129,0.3871,-0.2478,-0.24,-5.0E-4,-0.009,-6.0E-4,0.0054,1078,2019-08-07 16:46:38:286
-5.9954,-7.3129,0.3871,-0.2478,-0.24,-5.0E-4,-0.0058,0.0047,0.0043,1083,2019-08-07 16:46:38:291
-5.9954,-7.2365,0.3682,-0.2478,-0.24,-5.0E-4,-0.0058,0.0047,0.0043,1089,2019-08-07 16:46:38:297
-5.9954,-7.2365,0.3682,-0.2772,-0.2872,-0.0112,-0.0058,0.0047,0.0043,1093,2019-08-07 16:46:38:301
-5.9906,-7.2079,0.3352,-0.2772,-0.2872,-0.0112,-0.0133,0.0058,0.0043,1098,2019-08-07 16:46:38:306
-5.9906,-7.2079,0.3352,-0.2772,-0.2872,-0.0112,-0.0133,0.0058,0.0043,1103,2019-08-07 16:46:38:311
-5.9906,-7.2079,0.3352,-0.2772,-0.2872,-0.0112,-0.0143,-0.0027,0.0064,1108,2019-08-07 16:46:38:316
-5.9571,-7.2413,0.307,-0.2967,-0.2154,0.0101,-0.0143,-0.0027,0.0064,1113,2019-08-07 16:46:38:321
-5.9571,-7.2413,0.307,-0.2967,-0.2154,0.0101,-0.0143,0.009,0.0107,1118,2019-08-07 16:46:38:326
-5.9618,-7.2938,0.3447,-0.2967,-0.2154,0.0101,-0.0143,0.009,0.0107,1123,2019-08-07 16:46:38:331
-5.9618,-7.2938,0.3447,-0.2967,-0.2154,0.0101,-0.0101,0.0186,0.0064,1128,2019-08-07 16:46:38:336
-5.9618,-7.2938,0.3447,-0.2591,-0.2246,0.0488,-0.0101,0.0186,0.0064,1133,2019-08-07 16:46:38:341
-6.0862,-7.2652,0.274,-0.2591,-0.2246,0.0488,-0.0101,0.0186,0.0064,1137,2019-08-07 16:46:38:345
-6.0862,-7.2652,0.274,-0.2591,-0.2246,0.0488,-0.0058,0.0164,0.0075,1143,2019-08-07 16:46:38:351
-6.024,-7.2604,0.3871,-0.2405,-0.2719,0.075,-0.0069,0.0122,0.0107,1149,2019-08-07 16:46:38:357
-6.024,-7.2604,0.3871,-0.2405,-0.2719,0.075,-0.0069,0.0122,0.0107,1153,2019-08-07 16:46:38:361
-6.024,-7.2604,0.3871,-0.2405,-0.2719,0.075,-0.0069,0.0122,0.0107,1157,2019-08-07 16:46:38:365
-5.9666,-7.2031,0.3541,-0.3188,-0.2944,0.0115,-0.0016,0.009,0.0182,1163,2019-08-07 16:46:38:371
-5.9666,-7.2031,0.3541,-0.3188,-0.2944,0.0115,-0.0016,0.009,0.0182,1167,2019-08-07 16:46:38:375
-5.8374,-7.1602,0.3588,-0.3188,-0.2944,0.0115,0.0027,0.0132,0.0352,1173,2019-08-07 16:46:38:381
-5.8374,-7.1602,0.3588,-0.3188,-0.2944,0.0115,0.0027,0.0132,0.0352,1177,2019-08-07 16:46:38:385
-5.7465,-7.1268,0.2363,-0.4858,-0.3864,0.1465,0.0027,0.0154,0.0512,1184,2019-08-07 16:46:38:392
-5.7465,-7.1268,0.2363,-0.4858,-0.3864,0.1465,0.0027,0.0154,0.0512,1189,2019-08-07 16:46:38:397
-5.7465,-7.1268,0.2363,-0.4858,-0.3864,0.1465,0.0027,0.0154,0.0512,1193,2019-08-07 16:46:38:401
-5.6317,-7.0886,0.0948,-0.662,-0.3736,0.2392,0.008,0.0282,0.0757,1198,2019-08-07 16:46:38:406
-5.6317,-7.0886,0.0948,-0.662,-0.3736,0.2392,0.008,0.0282,0.0757,1202,2019-08-07 16:46:38:410
-5.6317,-7.0886,0.0948,-0.662,-0.3736,0.2392,0.024,0.0601,0.1247,1208,2019-08-07 16:46:38:416
-5.536,-6.9597,0.0901,-0.7864,-0.5527,0.2289,0.024,0.0601,0.1247,1213,2019-08-07 16:46:38:421
-5.536,-6.9597,0.0901,-0.7864,-0.5527,0.2289,0.0464,0.0985,0.1684,1218,2019-08-07 16:46:38:426
-5.536,-6.9597,0.0901,-0.7864,-0.5527,0.2289,0.0464,0.0985,0.1684,1222,2019-08-07 16:46:38:430
-5.6699,-6.783,0.208,-0.7864,-0.5527,0.2289,0.0592,0.1091,0.2003,1228,2019-08-07 16:46:38:436
-5.6699,-6.783,0.208,-0.6182,-0.7537,0.1662,0.0592,0.1091,0.2003,1233,2019-08-07 16:46:38:441
-5.6699,-6.783,0.208,-0.6182,-0.7537,0.1662,0.0592,0.107,0.2578,1237,2019-08-07 16:46:38:445
-5.6077,-6.6398,-0.023,-0.6182,-0.7537,0.1662,0.0592,0.107,0.2578,1243,2019-08-07 16:46:38:451
-5.6077,-6.6398,-0.023,-0.6182,-0.7537,0.1662,0.0613,0.1262,0.2941,1248,2019-08-07 16:46:38:456
-5.3637,-6.6446,-0.3812,-1.0276,-0.7907,0.7034,0.0613,0.1262,0.2941,1252,2019-08-07 16:46:38:460
-5.3637,-6.6446,-0.3812,-1.0276,-0.7907,0.7034,0.0613,0.1262,0.2941,1258,2019-08-07 16:46:38:466
-5.3637,-6.6446,-0.3812,-1.0276,-0.7907,0.7034,0.0815,0.1848,0.3505,1262,2019-08-07 16:46:38:470
-4.9762,-6.3916,-0.8809,-1.3017,-0.9316,1.0661,0.0815,0.1848,0.3505,1269,2019-08-07 16:46:38:477
-4.9762,-6.3916,-0.8809,-1.3017,-0.9316,1.0661,0.1785,0.3967,0.4815,1272,2019-08-07 16:46:38:480
-4.5791,-6.0765,-1.1637,-1.3017,-0.9316,1.0661,0.1785,0.3967,0.4815,1277,2019-08-07 16:46:38:485
-4.5791,-6.0765,-1.1637,-2.3278,-1.5839,1.594,0.2733,0.5864,0.6136,1283,2019-08-07 16:46:38:491
-4.5791,-6.0765,-1.1637,-2.3278,-1.5839,1.594,0.2733,0.5864,0.6136,1288,2019-08-07 16:46:38:496
-4.5791,-6.0765,-1.1637,-2.3278,-1.5839,1.594,0.2733,0.5864,0.6136,1292,2019-08-07 16:46:38:500
-3.5935,-5.4464,-1.5644,-3.0171,-1.9575,1.9305,0.3649,0.7792,0.7372,1297,2019-08-07 16:46:38:505
-3.5935,-5.4464,-1.5644,-3.0171,-1.9575,1.9305,0.3649,0.7792,0.7372,1304,2019-08-07 16:46:38:512
-3.5935,-5.4464,-1.5644,-3.0171,-1.9575,1.9305,0.5375,1.2511,1.0461,1308,2019-08-07 16:46:38:516
-3.6126,-4.9213,-1.1826,-3.0171,-1.9575,1.9305,0.5375,1.2511,1.0461,1313,2019-08-07 16:46:38:521
-3.6126,-4.9213,-1.1826,-2.8654,-2.5056,0.9529,0.612,1.3928,1.2272,1318,2019-08-07 16:46:38:526
-4.3685,-4.2482,0.0572,-2.8654,-2.5056,0.9529,0.612,1.3928,1.2272,1323,2019-08-07 16:46:38:531
-4.3685,-4.2482,0.0572,-2.8654,-2.5056,0.9529,0.6866,1.3832,1.566,1327,2019-08-07 16:46:38:535
-4.3685,-4.2482,0.0572,-2.2157,-3.2739,-0.5939,0.6866,1.3832,1.566,1333,2019-08-07 16:46:38:541
-4.6555,-3.5082,0.7737,-2.2157,-3.2739,-0.5939,0.6685,1.1659,1.877,1338,2019-08-07 16:46:38:546
-4.6555,-3.5082,0.7737,-2.2157,-3.2739,-0.5939,0.6685,1.1659,1.877,1342,2019-08-07 16:46:38:550
-4.6555,-3.5082,0.7737,-2.2157,-3.2739,-0.5939,0.5939,0.8378,2.235,1348,2019-08-07 16:46:38:556
-4.0623,-2.7158,1.2686,-2.2157,-3.2739,-0.5939,0.5939,0.8378,2.235,1352,2019-08-07 16:46:38:560
-4.0623,-2.7158,1.2686,-3.5688,-4.2053,-1.2128,0.5939,0.8378,2.235,1358,2019-08-07 16:46:38:566
-2.9476,-2.2002,1.2168,-3.5688,-4.2053,-1.2128,0.5044,0.5278,2.7463,1363,2019-08-07 16:46:38:571
-2.9476,-2.2002,1.2168,-3.5688,-4.2053,-1.2128,0.5044,0.5278,2.7463,1367,2019-08-07 16:46:38:575
-2.9476,-2.2002,1.2168,-3.5688,-4.2053,-1.2128,0.4714,0.3595,3.313,1373,2019-08-07 16:46:38:581
-2.1773,-1.7037,1.311,-5.3989,-4.5281,-1.2711,0.4714,0.3595,3.313,1378,2019-08-07 16:46:38:586
-2.1773,-1.7037,1.311,-5.3989,-4.5281,-1.2711,0.4693,0.3019,3.7817,1383,2019-08-07 16:46:38:591
-2.1773,-1.7037,1.311,-5.3989,-4.5281,-1.2711,0.4693,0.3019,3.7817,1388,2019-08-07 16:46:38:596
-2.1773,-1.7037,1.311,-5.3989,-4.5281,-1.2711,0.4693,0.3019,3.7817,1393,2019-08-07 16:46:38:601
-1.7993,-0.6726,1.0424,-6.2689,-5.1038,-0.9922,0.4437,0.2998,4.2526,1398,2019-08-07 16:46:38:606
-1.7993,-0.6726,1.0424,-6.2689,-5.1038,-0.9922,0.4437,0.2998,4.2526,1403,2019-08-07 16:46:38:611
-1.7993,-0.6726,1.0424,-6.2689,-5.1038,-0.9922,0.3968,0.3275,4.8214,1408,2019-08-07 16:46:38:616
-1.718,0.3204,1.377,-6.2689,-5.1038,-0.9922,0.3968,0.3275,4.8214,1413,2019-08-07 16:46:38:621
-1.718,0.3204,1.377,-6.5529,-5.4984,-1.5883,0.3937,0.3126,5.2688,1418,2019-08-07 16:46:38:626
-1.718,0.3204,1.377,-6.5529,-5.4984,-1.5883,0.3937,0.3126,5.2688,1422,2019-08-07 16:46:38:630
-2.627,1.0508,2.2585,-6.2011,-5.3267,-2.1233,0.4128,0.2561,5.7269,1428,2019-08-07 16:46:38:636
-2.627,1.0508,2.2585,-6.2011,-5.3267,-2.1233,0.4128,0.2561,5.7269,1432,2019-08-07 16:46:38:640
-2.627,1.0508,2.2585,-6.2011,-5.3267,-2.1233,0.4437,-0.0187,6.349,1438,2019-08-07 16:46:38:646
-4.5263,1.2035,3.9979,-6.2011,-5.3267,-2.1233,0.4437,-0.0187,6.349,1443,2019-08-07 16:46:38:651
-4.5263,1.2035,3.9979,-4.036,-4.3024,-4.1115,0.4299,-0.6227,6.8902,1449,2019-08-07 16:46:38:657
-6.3778,1.151,4.4363,-4.036,-4.3024,-4.1115,0.4299,-0.6227,6.8902,1453,2019-08-07 16:46:38:661
-6.3778,1.151,4.4363,-4.036,-4.3024,-4.1115,0.4299,-0.6227,6.8902,1457,2019-08-07 16:46:38:665
-6.3778,1.151,4.4363,-4.036,-4.3024,-4.1115,0.4245,-1.5111,7.458,1463,2019-08-07 16:46:38:671
-7.282,0.9219,4.6343,-2.3701,-2.6022,-4.134,0.4245,-1.5111,7.458,1467,2019-08-07 16:46:38:675
-7.282,0.9219,4.6343,-2.3701,-2.6022,-4.134,0.5172,-3.2401,8.2622,1473,2019-08-07 16:46:38:681
-7.2006,0.5113,3.8801,-2.5375,-1.3877,-3.082,0.5172,-3.2401,8.2622,1478,2019-08-07 16:46:38:686
-7.2006,0.5113,3.8801,-2.5375,-1.3877,-3.082,0.7303,-4.2851,8.7448,1483,2019-08-07 16:46:38:691
-7.2006,0.5113,3.8801,-2.5375,-1.3877,-3.082,0.7303,-4.2851,8.7448,1488,2019-08-07 16:46:38:696
-7.2006,0.5113,3.8801,-2.5375,-1.3877,-3.082,0.7303,-4.2851,8.7448,1493,2019-08-07 16:46:38:701
-5.3396,0.1151,1.4101,-5.4078,0.6865,1.0275,1.0009,-4.8273,9.0644,1498,2019-08-07 16:46:38:706
-5.3396,0.1151,1.4101,-5.4078,0.6865,1.0275,1.0009,-4.8273,9.0644,1503,2019-08-07 16:46:38:711
-5.3396,0.1151,1.4101,-5.4078,0.6865,1.0275,1.656,-4.9072,9.418,1508,2019-08-07 16:46:38:716
-1.6509,1.3945,-1.3192,-5.4078,0.6865,1.0275,1.656,-4.9072,9.418,1513,2019-08-07 16:46:38:721
-1.6509,1.3945,-1.3192,-8.435,0.1113,4.2577,2.3825,-3.9623,9.5778,1518,2019-08-07 16:46:38:726
-1.6509,1.3945,-1.3192,-8.435,0.1113,4.2577,2.3825,-3.9623,9.5778,1522,2019-08-07 16:46:38:730
-0.3304,4.2779,-1.7576,-8.435,0.1113,4.2577,2.7756,-3.1389,9.597,1528,2019-08-07 16:46:38:736
-0.3304,4.2779,-1.7576,-8.435,0.1113,4.2577,2.7756,-3.1389,9.597,1533,2019-08-07 16:46:38:741
-0.3304,4.2779,-1.7576,-4.3657,-3.4119,3.1746,2.7756,-3.1389,9.597,1537,2019-08-07 16:46:38:745
-0.3304,4.2779,-1.7576,-4.3657,-3.4119,3.1746,3.4531,-1.5367,9.4415,1543,2019-08-07 16:46:38:751
-6.4925,9.825,1.0235,-4.3657,-3.4119,3.1746,3.4531,-1.5367,9.4415,1548,2019-08-07 16:46:38:756
-6.4925,9.825,1.0235,-4.3657,-3.4119,3.1746,3.7865,-1.4323,9.4798,1553,2019-08-07 16:46:38:761
-14.2286,14.0737,6.7932,7.1987,-7.7276,-4.2356,3.7865,-1.4323,9.4798,1557,2019-08-07 16:46:38:765
-14.2286,14.0737,6.7932,7.1987,-7.7276,-4.2356,4.0347,-2.4923,9.6439,1563,2019-08-07 16:46:38:771
-14.2286,14.0737,6.7932,7.1987,-7.7276,-4.2356,4.0347,-2.4923,9.6439,1568,2019-08-07 16:46:38:776
-18.1373,16.0835,5.7044,7.1987,-7.7276,-4.2356,4.0571,-4.6974,9.7674,1573,2019-08-07 16:46:38:781
-18.1373,16.0835,5.7044,13.2935,-9.663,-2.0845,4.0571,-4.6974,9.7674,1578,2019-08-07 16:46:38:786
-18.3574,18.6089,4.0545,13.2935,-9.663,-2.0845,3.8206,-6.862,9.7302,1583,2019-08-07 16:46:38:791
-18.3574,18.6089,4.0545,13.2935,-9.663,-2.0845,3.8206,-6.862,9.7302,1587,2019-08-07 16:46:38:795
-18.3574,18.6089,4.0545,13.2935,-9.663,-2.0845,3.8206,-6.862,9.7302,1594,2019-08-07 16:46:38:802
-15.3768,20.843,4.2666,13.2935,-9.663,-2.0845,3.4467,-9.1874,9.5874,1598,2019-08-07 16:46:38:806
-15.3768,20.843,4.2666,9.0508,-13.0924,0.1023,3.4467,-9.1874,9.5874,1603,2019-08-07 16:46:38:811
-4.263,22.8385,-6.561,9.0508,-13.0924,0.1023,2.7287,-9.1182,8.7054,1608,2019-08-07 16:46:38:816
-4.263,22.8385,-6.561,9.0508,-13.0924,0.1023,2.7287,-9.1182,8.7054,1613,2019-08-07 16:46:38:821
-4.263,22.8385,-6.561,-0.4064,-12.7239,4.2591,2.4081,-6.7459,7.5293,1618,2019-08-07 16:46:38:826
0.8753,23.1058,7.0619,-0.4064,-12.7239,4.2591,2.4081,-6.7459,7.5293,1622,2019-08-07 16:46:38:830
0.8753,23.1058,7.0619,-0.4064,-12.7239,4.2591,1.3598,-5.3781,6.3469,1628,2019-08-07 16:46:38:836
7.3245,23.2872,-1.0081,-0.4064,-12.7239,4.2591,1.3598,-5.3781,6.3469,1633,2019-08-07 16:46:38:841
7.3245,23.2872,-1.0081,-10.6269,-11.9656,7.7315,1.3598,-5.3781,6.3469,1638,2019-08-07 16:46:38:846
7.3245,23.2872,-1.0081,-10.6269,-11.9656,7.7315,1.3598,-5.3781,6.3469,1642,2019-08-07 16:46:38:850
11.7068,17.9644,0.0761,-10.6269,-11.9656,7.7315,0.3937,-0.3916,3.2896,1648,2019-08-07 16:46:38:856
11.7068,17.9644,0.0761,-10.6269,-11.9656,7.7315,0.3937,-0.3916,3.2896,1652,2019-08-07 16:46:38:860
11.7068,17.9644,0.0761,-10.6269,-11.9656,7.7315,-0.1496,2.9939,0.4389,1658,2019-08-07 16:46:38:866
0.2582,12.9614,1.9757,0.0366,-3.3944,0.1738,-0.1496,2.9939,0.4389,1662,2019-08-07 16:46:38:870
0.2582,12.9614,1.9757,0.0366,-3.3944,0.1738,-0.1187,5.4557,-1.0034,1667,2019-08-07 16:46:38:875
0.2582,12.9614,1.9757,0.0366,-3.3944,0.1738,-0.1187,5.4557,-1.0034,1673,2019-08-07 16:46:38:881
-10.7312,15.4677,13.6519,0.0366,-3.3944,0.1738,0.8943,5.1414,-2.4106,1677,2019-08-07 16:46:38:885
-10.7312,15.4677,13.6519,12.1161,-6.2232,-11.1601,0.8943,5.1414,-2.4106,1684,2019-08-07 16:46:38:892
-10.7312,15.4677,13.6519,12.1161,-6.2232,-11.1601,0.9657,3.4498,-3.3918,1688,2019-08-07 16:46:38:896
-10.7312,15.4677,13.6519,12.1161,-6.2232,-11.1601,0.9657,3.4498,-3.3918,1693,2019-08-07 16:46:38:901
-17.0321,17.3343,9.9845,12.1161,-6.2232,-11.1601,0.9657,3.4498,-3.3918,1699,2019-08-07 16:46:38:907
-17.0321,17.3343,9.9845,16.072,-7.54,-5.7031,0.171,1.2276,-3.4163,1703,2019-08-07 16:46:38:911
-17.0321,17.3343,9.9845,16.072,-7.54,-5.7031,0.171,1.2276,-3.4163,1708,2019-08-07 16:46:38:916
-12.7071,15.5441,4.9266,11.3024,-6.0391,-2.9472,-1.0935,-0.5748,-3.119,1713,2019-08-07 16:46:38:921
-12.7071,15.5441,4.9266,11.3024,-6.0391,-2.9472,-1.0935,-0.5748,-3.119,1718,2019-08-07 16:46:38:926
-12.7071,15.5441,4.9266,11.3024,-6.0391,-2.9472,-1.0935,-0.5748,-3.119,1723,2019-08-07 16:46:38:931
-12.7071,15.5441,4.9266,11.3024,-6.0391,-2.9472,-1.0935,-0.5748,-3.119,1728,2019-08-07 16:46:38:936
-3.9663,13.1094,9.9562,1.4392,-3.4308,-8.5502,-2.3153,-0.8464,-3.4471,1733,2019-08-07 16:46:38:941
-3.9663,13.1094,9.9562,1.4392,-3.4308,-8.5502,-2.3153,-0.8464,-3.4471,1738,2019-08-07 16:46:38:946
-3.9663,13.1094,9.9562,1.4392,-3.4308,-8.5502,-1.6144,0.0335,-3.8519,1742,2019-08-07 16:46:38:950
-3.2151,10.7607,8.2687,1.4392,-3.4308,-8.5502,-1.6144,0.0335,-3.8519,1749,2019-08-07 16:46:38:957
-3.2151,10.7607,8.2687,0.3052,-1.867,-1.8677,-1.739,0.6694,-3.9755,1753,2019-08-07 16:46:38:961
-3.3395,12.0401,3.4182,0.3052,-1.867,-1.8677,-1.739,0.6694,-3.9755,1758,2019-08-07 16:46:38:966
-3.3395,12.0401,3.4182,0.5866,-3.5789,-0.6218,-2.3132,1.3747,-4.228,1763,2019-08-07 16:46:38:971
-3.3395,12.0401,3.4182,0.5866,-3.5789,-0.6218,-2.3132,1.3747,-4.228,1768,2019-08-07 16:46:38:976
-6.1813,13.3147,4.8041,0.5866,-3.5789,-0.6218,-3.0525,1.5749,-4.5976,1773,2019-08-07 16:46:38:981
-6.1813,13.3147,4.8041,0.5866,-3.5789,-0.6218,-3.0525,1.5749,-4.5976,1777,2019-08-07 16:46:38:985
-8.473,13.0999,6.2795,4.3561,-4.892,-2.7927,-3.4914,1.3278,-4.7233,1783,2019-08-07 16:46:38:991
-8.473,13.0999,6.2795,4.3561,-4.892,-2.7927,-3.4914,1.3278,-4.7233,1788,2019-08-07 16:46:38:996
-8.473,13.0999,6.2795,4.3561,-4.892,-2.7927,-3.4914,1.3278,-4.7233,1793,2019-08-07 16:46:39:001
-8.0998,12.6941,6.5387,3.6725,-4.6778,-3.0212,-3.6586,1.1552,-4.767,1797,2019-08-07 16:46:39:005
-8.0998,12.6941,6.5387,3.6725,-4.6778,-3.0212,-3.6586,1.1552,-4.767,1803,2019-08-07 16:46:39:011
-8.0998,12.6941,6.5387,3.6725,-4.6778,-3.0212,-3.5116,1.5717,-5.1132,1808,2019-08-07 16:46:39:016
-5.2579,11.219,4.7758,-0.1868,-3.779,-0.3142,-3.5116,1.5717,-5.1132,1812,2019-08-07 16:46:39:020
-5.2579,11.219,4.7758,-0.1868,-3.779,-0.3142,-3.3518,2.3163,-5.517,1818,2019-08-07 16:46:39:026
-5.2579,11.219,4.7758,-0.1868,-3.779,-0.3142,-3.3518,2.3163,-5.517,1823,2019-08-07 16:46:39:031
-5.2579,11.219,4.7758,-0.1868,-3.779,-0.3142,-3.3795,3.1931,-5.8909,1828,2019-08-07 16:46:39:036
-6.0043,9.0182,1.1273,0.1641,-1.8642,3.2333,-3.3795,3.1931,-5.8909,1833,2019-08-07 16:46:39:041
-6.0043,9.0182,1.1273,0.1641,-1.8642,3.2333,-3.3795,3.1931,-5.8909,1839,2019-08-07 16:46:39:047
-7.3534,6.1826,1.0472,0.5285,-0.3975,2.9764,-3.4892,4.2104,-6.3606,1843,2019-08-07 16:46:39:051
-7.3534,6.1826,1.0472,0.5285,-0.3975,2.9764,-3.4892,4.2104,-6.3606,1848,2019-08-07 16:46:39:056
-7.3534,6.1826,1.0472,0.5285,-0.3975,2.9764,-3.4892,4.2104,-6.3606,1853,2019-08-07 16:46:39:061
-9.7694,4.5022,3.8519,0.5285,-0.3975,2.9764,-3.2474,4.6919,-6.7079,1857,2019-08-07 16:46:39:065
-9.7694,4.5022,3.8519,2.7095,0.3455,-0.6978,-3.2474,4.6919,-6.7079,1863,2019-08-07 16:46:39:071
-9.7694,4.5022,3.8519,2.7095,0.3455,-0.6978,-2.8554,4.563,-6.7793,1868,2019-08-07 16:46:39:076
-11.2334,3.7909,4.4505,2.7095,0.3455,-0.6978,-2.8554,4.563,-6.7793,1873,2019-08-07 16:46:39:081
-11.2334,3.7909,4.4505,2.7095,0.3455,-0.6978,-2.6189,4.3137,-6.7654,1878,2019-08-07 16:46:39:086
-11.0085,3.3278,3.1071,2.2876,-0.1371,0.0552,-2.6189,4.3137,-6.7654,1883,2019-08-07 16:46:39:091
-11.0085,3.3278,3.1071,2.2876,-0.1371,0.0552,-2.4485,3.6373,-6.8219,1888,2019-08-07 16:46:39:096
-11.0085,3.3278,3.1071,2.2876,-0.1371,0.0552,-2.4485,3.6373,-6.8219,1892,2019-08-07 16:46:39:100
-10.4296,3.3278,2.598,1.3947,-0.8246,0.2899,-2.4069,3.2538,-6.9114,1898,2019-08-07 16:46:39:106
-10.4296,3.3278,2.598,1.3947,-0.8246,0.2899,-2.4069,3.2538,-6.9114,1903,2019-08-07 16:46:39:111
-10.4296,3.3278,2.598,1.3947,-0.8246,0.2899,-2.4069,3.2538,-6.9114,1908,2019-08-07 16:46:39:116
-9.7598,3.1035,2.5273,-0.02,-1.7913,-0.1051,-2.327,2.9012,-7.0296,1913,2019-08-07 16:46:39:121
-9.7598,3.1035,2.5273,-0.02,-1.7913,-0.1051,-2.327,2.9012,-7.0296,1918,2019-08-07 16:46:39:126
-9.7598,3.1035,2.5273,-0.02,-1.7913,-0.1051,-2.327,2.9012,-7.0296,1922,2019-08-07 16:46:39:130
-9.7598,3.1035,2.5273,-0.02,-1.7913,-0.1051,-2.327,2.9012,-7.0296,1928,2019-08-07 16:46:39:136
-7.9179,1.9005,2.1832,-0.02,-1.7913,-0.1051,-1.9883,2.7435,-7.0925,1932,2019-08-07 16:46:39:140
-7.9179,1.9005,2.1832,-2.5047,-1.5541,0.0894,-1.9883,2.7435,-7.0925,1938,2019-08-07 16:46:39:146
-7.9179,1.9005,2.1832,-2.5047,-1.5541,0.0894,-1.5707,2.8277,-7.0978,1943,2019-08-07 16:46:39:151
-6.7744,0.1867,1.6411,-2.5047,-1.5541,0.0894,-1.5707,2.8277,-7.0978,1948,2019-08-07 16:46:39:156
-6.7744,0.1867,1.6411,-2.5397,-1.1732,-0.4061,-1.3001,2.703,-7.0041,1952,2019-08-07 16:46:39:160
-6.7744,0.1867,1.6411,-2.5397,-1.1732,-0.4061,-1.3001,2.703,-7.0041,1958,2019-08-07 16:46:39:166
-7.1571,-0.8349,1.891,-2.5397,-1.1732,-0.4061,-1.0647,2.4996,-6.8464,1962,2019-08-07 16:46:39:170
-7.1571,-0.8349,1.891,-2.5397,-1.1732,-0.4061,-1.0647,2.4996,-6.8464,1968,2019-08-07 16:46:39:176
-7.1571,-0.8349,1.891,-1.7063,-2.3353,-1.3878,-0.531,1.8199,-6.4416,1973,2019-08-07 16:46:39:181
-7.5925,-0.5819,2.1549,-1.7063,-2.3353,-1.3878,-0.531,1.8199,-6.4416,1978,2019-08-07 16:46:39:186
-7.5925,-0.5819,2.1549,-1.563,-3.6406,-1.0513,-0.531,1.8199,-6.4416,1983,2019-08-07 16:46:39:191
-7.5925,-0.5819,2.1549,-1.563,-3.6406,-1.0513,-0.3116,1.2809,-6.0997,1988,2019-08-07 16:46:39:196
-7.5925,-0.5819,2.1549,-1.563,-3.6406,-1.0513,-0.3116,1.2809,-6.0997,1993,2019-08-07 16:46:39:201
-7.0614,0.3442,1.7071,-1.9219,-4.5219,-1.1959,-0.2402,0.8782,-5.8238,1998,2019-08-07 16:46:39:206
-7.0614,0.3442,1.7071,-1.9219,-4.5219,-1.1959,-0.2402,0.8782,-5.8238,2003,2019-08-07 16:46:39:211
-7.0614,0.3442,1.7071,-1.9219,-4.5219,-1.1959,-0.1859,0.0473,-5.2411,2007,2019-08-07 16:46:39:215
-5.8223,-0.1236,2.6027,-1.9219,-4.5219,-1.1959,-0.1859,0.0473,-5.2411,2013,2019-08-07 16:46:39:221
-5.8223,-0.1236,2.6027,-3.0055,-4.8081,-2.2203,-0.1113,-0.4129,-4.8608,2017,2019-08-07 16:46:39:225
-5.8223,-0.1236,2.6027,-3.0055,-4.8081,-2.2203,-0.1113,-0.4129,-4.8608,2023,2019-08-07 16:46:39:231
-3.9899,-0.5628,1.5563,-4.1157,-4.934,-0.9906,-0.058,-0.6259,-4.5763,2028,2019-08-07 16:46:39:236
-3.9899,-0.5628,1.5563,-4.1157,-4.934,-0.9906,-0.058,-0.6259,-4.5763,2033,2019-08-07 16:46:39:241
-3.9899,-0.5628,1.5563,-4.1157,-4.934,-0.9906,-0.058,-0.6259,-4.5763,2038,2019-08-07 16:46:39:246
-1.2964,-1.8231,-0.5131,-4.1157,-4.1176,1.2832,0.0091,-0.5631,-4.0181,2043,2019-08-07 16:46:39:251
-1.2964,-1.8231,-0.5131,-6.6322,-4.1176,1.2832,0.0091,-0.5631,-4.0181,2047,2019-08-07 16:46:39:255
-1.2964,-1.8231,-0.5131,-6.6322,-4.1176,1.2832,0.1209,-0.2872,-3.6346,2053,2019-08-07 16:46:39:261
-0.7653,-3.4414,-1.2626,-6.6322,-4.1176,1.2832,0.1209,-0.2872,-3.6346,2057,2019-08-07 16:46:39:265
-0.7653,-3.4414,-1.2626,-6.6322,-4.1176,1.2832,0.3351,0.0974,-3.1862,2063,2019-08-07 16:46:39:271
-0.7653,-3.4414,-1.2626,-5.7025,-2.8737,1.5008,0.3351,0.0974,-3.1862,2067,2019-08-07 16:46:39:275
-2.0953,-3.9713,-0.2491,-5.7025,-2.8737,1.5008,0.661,0.3903,-2.5342,2073,2019-08-07 16:46:39:281
-2.0953,-3.9713,-0.2491,-5.7025,-2.8737,1.5008,0.661,0.3903,-2.5342,2077,2019-08-07 16:46:39:285
-3.1526,-3.7947,0.4344,-4.3691,-2.9157,0.7571,0.8698,0.3818,-2.0229,2084,2019-08-07 16:46:39:292
-3.1526,-3.7947,0.4344,-4.3691,-2.9157,0.7571,0.8698,0.3818,-2.0229,2088,2019-08-07 16:46:39:296
-3.1526,-3.7947,0.4344,-4.3691,-2.9157,0.7571,0.8698,0.3818,-2.0229,2093,2019-08-07 16:46:39:301
-4.1717,-3.5417,1.2216,-2.2771,-3.6623,-0.6622,0.9561,0.1357,-1.5968,2098,2019-08-07 16:46:39:306
-4.1717,-3.5417,1.2216,-2.2771,-3.6623,-0.6622,0.9561,0.1357,-1.5968,2103,2019-08-07 16:46:39:311
-4.1717,-3.5417,1.2216,-2.2771,-3.6623,-0.6622,0.9561,0.1357,-1.5968,2108,2019-08-07 16:46:39:316
-4.9563,-3.6992,1.8156,-2.2771,-3.6623,-0.6622,0.8741,-0.4629,-1.0546,2113,2019-08-07 16:46:39:321
-4.9563,-3.6992,1.8156,-1.9001,-3.2461,-0.8518,0.8741,-0.4629,-1.0546,2119,2019-08-07 16:46:39:327
-4.9563,-3.6992,1.8156,-1.9001,-3.2461,-0.8518,0.6397,-0.8731,-0.7073,2123,2019-08-07 16:46:39:331
-3.6119,-4.5824,1.4809,-2.7955,-2.7684,-0.4102,0.6397,-0.8731,-0.7073,2128,2019-08-07 16:46:39:336
-3.6119,-4.5824,1.4809,-2.7955,-2.7684,-0.4102,0.465,-0.7782,-0.5859,2134,2019-08-07 16:46:39:342
-3.6119,-4.5824,1.4809,-2.7955,-2.7684,-0.4102,0.465,-0.7782,-0.5859,2138,2019-08-07 16:46:39:346
-2.3297,-5.5037,0.5428,-2.7955,-2.7684,-0.4102,0.465,-0.7782,-0.5859,2142,2019-08-07 16:46:39:350
-2.3297,-5.5037,0.5428,-4.1755,-1.6178,0.9789,0.301,-0.415,-0.5028,2149,2019-08-07 16:46:39:357
-2.0283,-6.1291,-0.0181,-4.1755,-1.6178,0.9789,0.301,-0.415,-0.5028,2152,2019-08-07 16:46:39:360
-2.0283,-6.1291,-0.0181,-4.1755,-1.6178,0.9789,0.1529,0.2263,-0.4506,2158,2019-08-07 16:46:39:366
-2.0283,-6.1291,-0.0181,-4.1755,-1.6178,0.9789,0.1529,0.2263,-0.4506,2162,2019-08-07 16:46:39:370
-2.966,-6.3248,0.128,-3.2394,-1.1734,1.0989,0.0709,0.6844,-0.4058,2168,2019-08-07 16:46:39:376
-2.966,-6.3248,0.128,-3.2394,-1.1734,1.0989,0.0709,0.6844,-0.4058,2173,2019-08-07 16:46:39:381
-2.966,-6.3248,0.128,-3.2394,-1.1734,1.0989,0.0709,0.6844,-0.4058,2178,2019-08-07 16:46:39:386
-4.4443,-6.2294,0.5428,-1.7379,-1.2958,0.6351,0.0283,0.8878,-0.3451,2183,2019-08-07 16:46:39:391
-4.4443,-6.2294,0.5428,-1.7379,-1.2958,0.6351,0.0283,0.8878,-0.3451,2188,2019-08-07 16:46:39:396
-6.6594,-6.0527,1.8439,-1.7379,-1.2958,0.6351,-0.0495,0.6343,-0.1683,2193,2019-08-07 16:46:39:401
-6.6594,-6.0527,1.8439,0.8297,-1.4454,-0.8035,-0.0495,0.6343,-0.1683,2198,2019-08-07 16:46:39:406
-6.6594,-6.0527,1.8439,0.8297,-1.4454,-0.8035,-0.0495,0.6343,-0.1683,2202,2019-08-07 16:46:39:410
-7.0421,-6.2485,1.5987,0.8297,-1.4454,-0.8035,-0.1454,-0.0943,-0.0213,2208,2019-08-07 16:46:39:416
-7.0421,-6.2485,1.5987,0.8297,-1.4454,-0.8035,-0.1454,-0.0943,-0.0213,2213,2019-08-07 16:46:39:421
-6.2431,-6.9216,1.1085,0.2342,-0.844,-0.2417,-0.2327,-0.5215,0.0192,2218,2019-08-07 16:46:39:426
-6.2431,-6.9216,1.1085,0.2342,-0.844,-0.2417,-0.2327,-0.5215,0.0192,2223,2019-08-07 16:46:39:431
-6.2431,-6.9216,1.1085,-0.5605,-0.3103,0.2853,-0.2753,-0.6781,0.0267,2228,2019-08-07 16:46:39:436
-5.4633,-7.3512,0.6937,-0.5605,-0.3103,0.2853,-0.2753,-0.6781,0.0267,2234,2019-08-07 16:46:39:442
-5.4633,-7.3512,0.6937,-0.5605,-0.3103,0.2853,-0.2732,-0.595,0.0064,2238,2019-08-07 16:46:39:446
-5.4633,-7.3512,0.6937,-0.5605,-0.3103,0.2853,-0.2732,-0.595,0.0064,2243,2019-08-07 16:46:39:451
-4.7074,-7.6663,0.5051,-1.6569,0.1758,0.9056,-0.2732,-0.595,0.0064,2248,2019-08-07 16:46:39:456
-4.7074,-7.6663,0.5051,-1.6569,0.1758,0.9056,-0.2753,-0.3628,-0.0223,2252,2019-08-07 16:46:39:460
-4.2768,-7.8143,0.0338,-1.6569,0.1758,0.9056,-0.2753,-0.3628,-0.0223,2258,2019-08-07 16:46:39:466
-4.2768,-7.8143,0.0338,-1.6569,0.1758,0.9056,-0.2945,-0.0667,-0.0585,2262,2019-08-07 16:46:39:470
-4.5303,-7.7713,0.5146,-1.6838,0.2167,0.6694,-0.2945,-0.0667,-0.0585,2269,2019-08-07 16:46:39:477
-4.5303,-7.7713,0.5146,-1.6838,0.2167,0.6694,-0.2902,0.2678,-0.0809,2273,2019-08-07 16:46:39:481
-4.5303,-7.7713,0.5146,-1.6838,0.2167,0.6694,-0.2902,0.2678,-0.0809,2277,2019-08-07 16:46:39:485
-5.2097,-7.5469,0.7503,-1.6838,0.2167,0.6694,-0.2711,0.4308,-0.0724,2283,2019-08-07 16:46:39:491
-5.2097,-7.5469,0.7503,-0.6159,-0.1522,0.0979,-0.2711,0.4308,-0.0724,2287,2019-08-07 16:46:39:495
-5.2097,-7.5469,0.7503,-0.6159,-0.1522,0.0979,-0.2711,0.4308,-0.0724,2293,2019-08-07 16:46:39:501
-5.9704,-7.2796,0.8728,-0.6159,-0.1522,0.0979,-0.27,0.4468,-0.0426,2297,2019-08-07 16:46:39:505
-5.9704,-7.2796,0.8728,-0.6159,-0.1522,0.0979,-0.27,0.4468,-0.0426,2303,2019-08-07 16:46:39:511
-5.9704,-7.2796,0.8728,-0.6159,-0.1522,0.0979,-0.2572,0.3147,0.0203,2308,2019-08-07 16:46:39:516
-6.2909,-7.2605,1.0755,0.1682,-0.3503,-0.1676,-0.2572,0.3147,0.0203,2313,2019-08-07 16:46:39:521
-6.2909,-7.2605,1.0755,0.1682,-0.3503,-0.1676,-0.2157,0.1549,0.0565,2318,2019-08-07 16:46:39:526
-6.2909,-7.2605,1.0755,0.1682,-0.3503,-0.1676,-0.2157,0.1549,0.0565,2322,2019-08-07 16:46:39:530
-6.2909,-7.2605,1.0755,0.1682,-0.3503,-0.1676,-0.2157,0.1549,0.0565,2328,2019-08-07 16:46:39:536
-6.1378,-7.3894,0.7409,-0.0987,-0.2068,0.226,-0.1805,0.0143,0.0949,2333,2019-08-07 16:46:39:541
-6.1378,-7.3894,0.7409,-0.0987,-0.2068,0.226,-0.1805,0.0143,0.0949,2337,2019-08-07 16:46:39:545
-5.5971,-7.7856,0.2978,-0.0987,-0.2068,0.226,-0.1049,0.0111,0.114,2343,2019-08-07 16:46:39:551
-5.5971,-7.7856,0.2978,-0.5441,0.2799,0.6123,-0.1049,0.0111,0.114,2348,2019-08-07 16:46:39:556
-5.5971,-7.7856,0.2978,-0.5441,0.2799,0.6123,-0.0538,0.1187,0.097,2353,2019-08-07 16:46:39:561
-5.5636,-7.9575,0.2978,-0.5441,0.2799,0.6123,-0.0538,0.1187,0.097,2357,2019-08-07 16:46:39:565
-5.5636,-7.9575,0.2978,-0.6371,0.3412,0.5604,-0.0143,0.1933,0.1002,2363,2019-08-07 16:46:39:571
-5.5541,-8.0625,0.2506,-0.6371,0.3412,0.5604,-0.0143,0.1933,0.1002,2368,2019-08-07 16:46:39:576
-5.5541,-8.0625,0.2506,-0.6371,0.3412,0.5604,0.0325,0.3275,0.0917,2373,2019-08-07 16:46:39:581
-5.5541,-8.0625,0.2506,-0.6371,0.3412,0.5604,0.0325,0.3275,0.0917,2378,2019-08-07 16:46:39:586
-5.7024,-8.0339,0.491,-0.3461,0.4165,0.2793,0.0496,0.3776,0.0863,2382,2019-08-07 16:46:39:590
-5.7024,-8.0339,0.491,-0.3461,0.4165,0.2793,0.0496,0.3776,0.0863,2388,2019-08-07 16:46:39:596
-5.7024,-8.0339,0.491,-0.3461,0.4165,0.2793,0.0496,0.3776,0.0863,2393,2019-08-07 16:46:39:601
-6.2812,-7.7475,0.9106,0.2528,0.1509,-0.317,0.0442,0.3264,0.0906,2398,2019-08-07 16:46:39:606
-6.2812,-7.7475,0.9106,0.2528,0.1509,-0.317,0.0442,0.3264,0.0906,2403,2019-08-07 16:46:39:611
-6.2812,-7.7475,0.9106,0.2528,0.1509,-0.317,0.0442,0.3264,0.0906,2408,2019-08-07 16:46:39:616
-6.6257,-7.5183,1.151,0.425,-0.0473,-0.4104,-0.0112,0.0665,0.1012,2412,2019-08-07 16:46:39:620
-6.6257,-7.5183,1.151,0.425,-0.0473,-0.4104,-0.0112,0.0665,0.1012,2418,2019-08-07 16:46:39:626
-6.6257,-7.5183,1.151,0.425,-0.0473,-0.4104,-0.0623,-0.1476,0.1055,2423,2019-08-07 16:46:39:631
-6.3338,-7.5183,0.953,0.425,-0.0473,-0.4104,-0.0623,-0.1476,0.1055,2428,2019-08-07 16:46:39:636
-6.3338,-7.5183,0.953,-0.0739,-0.053,-0.0327,-0.09,-0.2424,0.0917,2433,2019-08-07 16:46:39:641
-6.3338,-7.5183,0.953,-0.0739,-0.053,-0.0327,-0.09,-0.2424,0.0917,2438,2019-08-07 16:46:39:646
-6.3338,-7.5183,0.953,-0.0739,-0.053,-0.0327,-0.09,-0.2424,0.0917,2443,2019-08-07 16:46:39:651
-5.8123,-7.6329,0.5193,-0.0739,-0.053,-0.0327,-0.1038,-0.2382,0.0501,2448,2019-08-07 16:46:39:656
-5.8123,-7.6329,0.5193,-0.5903,0.0761,0.4002,-0.1038,-0.2382,0.0501,2453,2019-08-07 16:46:39:661
-5.8123,-7.6329,0.5193,-0.5903,0.0761,0.4002,-0.1017,-0.1306,-0.0159,2458,2019-08-07 16:46:39:666
-5.5157,-7.6233,0.0385,-0.5903,0.0761,0.4002,-0.1017,-0.1306,-0.0159,2463,2019-08-07 16:46:39:671
-5.5157,-7.6233,0.0385,-0.5903,0.0761,0.4002,-0.0964,0.0132,-0.0745,2467,2019-08-07 16:46:39:675
-5.5157,-7.6233,0.0385,-0.7709,0.0947,0.822,-0.0964,0.0132,-0.0745,2473,2019-08-07 16:46:39:681
-5.5157,-7.6711,0.0621,-0.7709,0.0947,0.822,-0.0868,0.1762,-0.1203,2478,2019-08-07 16:46:39:686
-5.5157,-7.6711,0.0621,-0.7709,0.0947,0.822,-0.0868,0.1762,-0.1203,2482,2019-08-07 16:46:39:690
-5.5157,-7.6711,0.0621,-0.7709,0.0947,0.822,-0.057,0.3147,-0.1619,2488,2019-08-07 16:46:39:696
-5.5157,-7.6711,0.0621,-0.7709,0.0947,0.822,-0.057,0.3147,-0.1619,2492,2019-08-07 16:46:39:700
-5.7788,-7.5136,0.2931,-0.4108,-0.0647,0.4103,-0.0506,0.3339,-0.1715,2499,2019-08-07 16:46:39:707
-5.7788,-7.5136,0.2931,-0.4108,-0.0647,0.4103,-0.0506,0.3339,-0.1715,2503,2019-08-07 16:46:39:711
-5.7788,-7.5136,0.2931,-0.4108,-0.0647,0.4103,-0.0506,0.3339,-0.1715,2507,2019-08-07 16:46:39:715
-6.178,-7.3081,0.599,0.0432,-0.292,0.002,-0.0612,0.2934,-0.1587,2513,2019-08-07 16:46:39:721
-6.178,-7.3081,0.599,0.0432,-0.292,0.002,-0.0612,0.2934,-0.1587,2518,2019-08-07 16:46:39:726
-6.2115,-7.1553,0.7122,0.0432,-0.292,0.002,-0.0942,0.0857,-0.1022,2523,2019-08-07 16:46:39:731
-6.2115,-7.1553,0.7122,0.0432,-0.292,0.002,-0.0942,0.0857,-0.1022,2527,2019-08-07 16:46:39:735
-6.2115,-7.1553,0.7122,0.0428,-0.5063,0.0285,-0.1102,-0.0805,-0.0575,2533,2019-08-07 16:46:39:741
-6.1158,-7.1696,0.5519,0.0428,-0.5063,0.0285,-0.1102,-0.0805,-0.0575,2538,2019-08-07 16:46:39:746
-6.1158,-7.1696,0.5519,-0.2165,-0.4524,0.1153,-0.1102,-0.0805,-0.0575,2543,2019-08-07 16:46:39:751
-5.6279,-7.3033,0.2502,-0.2165,-0.4524,0.1153,-0.1177,-0.2126,-0.0085,2548,2019-08-07 16:46:39:756
-5.6279,-7.3033,0.2502,-0.2165,-0.4524,0.1153,-0.1177,-0.2126,-0.0085,2552,2019-08-07 16:46:39:760
-5.6279,-7.3033,0.2502,-0.2165,-0.4524,0.1153,-0.0996,-0.2126,0.0181,2558,2019-08-07 16:46:39:766
-5.1973,-7.3988,-0.0279,-1.0018,-0.2213,0.7297,-0.0996,-0.2126,0.0181,2563,2019-08-07 16:46:39:771
-5.1973,-7.3988,-0.0279,-1.0018,-0.2213,0.7297,-0.09,-0.1103,0.0224,2567,2019-08-07 16:46:39:775
-5.1973,-7.3988,-0.0279,-1.0018,-0.2213,0.7297,-0.09,-0.1103,0.0224,2573,2019-08-07 16:46:39:781
-5.1973,-7.3988,-0.0279,-1.0018,-0.2213,0.7297,-0.09,-0.1103,0.0224,2577,2019-08-07 16:46:39:785
-5.025,-7.5181,-0.3673,-0.9471,0.0049,0.9924,-0.0676,0.0314,0.0203,2583,2019-08-07 16:46:39:791
-5.025,-7.5181,-0.3673,-0.9471,0.0049,0.9924,-0.0133,0.2892,-0.0021,2588,2019-08-07 16:46:39:796
-5.025,-7.5181,-0.3673,-0.9471,0.0049,0.9924,-0.0133,0.2892,-0.0021,2592,2019-08-07 16:46:39:800
-5.6709,-7.6375,-0.1599,-0.4735,0.0129,0.7501,0.0187,0.3509,-0.0064,2598,2019-08-07 16:46:39:806
-5.6709,-7.6375,-0.1599,-0.4735,0.0129,0.7501,0.0187,0.3509,-0.0064,2602,2019-08-07 16:46:39:810
-6.0632,-7.5993,0.0946,-0.4735,0.0129,0.7501,0.0187,0.3509,-0.0064,2608,2019-08-07 16:46:39:816
-6.0632,-7.5993,0.0946,0.0746,-0.0507,0.2548,0.0347,0.3254,-0.0085,2613,2019-08-07 16:46:39:821
-6.0632,-7.5993,0.0946,0.0746,-0.0507,0.2548,0.0347,0.3254,-0.0085,2617,2019-08-07 16:46:39:825
-6.3646,-7.5324,0.5047,0.0746,-0.0507,0.2548,0.0389,0.2274,-0.0032,2623,2019-08-07 16:46:39:831
-6.3646,-7.5324,0.5047,0.0746,-0.0507,0.2548,0.0389,0.2274,-0.0032,2628,2019-08-07 16:46:39:836
-6.5273,-7.5659,0.7404,0.4154,-0.0589,-0.2208,0.0293,0.1219,0.0032,2633,2019-08-07 16:46:39:841
-6.5273,-7.5659,0.7404,0.4154,-0.0589,-0.2208,0.0293,0.1219,0.0032,2638,2019-08-07 16:46:39:846
-6.5273,-7.5659,0.7404,0.4154,-0.0589,-0.2208,0.0293,0.1219,0.0032,2642,2019-08-07 16:46:39:850
-6.4699,-7.6136,0.8017,0.3178,-0.0095,-0.2754,0.0166,-0.0986,0.0224,2648,2019-08-07 16:46:39:856
-6.4699,-7.6136,0.8017,0.3178,-0.0095,-0.2754,0.0166,-0.0986,0.0224,2653,2019-08-07 16:46:39:861
-6.4699,-7.6136,0.8017,0.3178,-0.0095,-0.2754,0.0027,-0.2414,0.0331,2658,2019-08-07 16:46:39:866
-6.0728,-7.5611,0.4388,-0.1206,-0.0386,0.1748,0.0027,-0.2414,0.0331,2663,2019-08-07 16:46:39:871
-6.0728,-7.5611,0.4388,-0.1206,-0.0386,0.1748,0.0059,-0.2904,0.0352,2668,2019-08-07 16:46:39:876
-5.7809,-7.5945,0.3775,-0.1206,-0.0386,0.1748,0.0059,-0.2904,0.0352,2673,2019-08-07 16:46:39:881
-5.7809,-7.5945,0.3775,-0.1206,-0.0386,0.1748,0.0187,-0.2659,0.0256,2678,2019-08-07 16:46:39:886
-5.7809,-7.5945,0.3775,-0.4842,-0.1554,0.3407,0.0187,-0.2659,0.0256,2683,2019-08-07 16:46:39:891
-5.6279,-7.4513,0.2361,-0.4842,-0.1554,0.3407,0.0229,-0.1668,0.015,2688,2019-08-07 16:46:39:896
-5.6279,-7.4513,0.2361,-0.4842,-0.1554,0.3407,0.0229,-0.1668,0.015,2693,2019-08-07 16:46:39:901
-5.4413,-7.3892,0.1465,-0.67,-0.2841,0.5639,0.0251,-0.0517,0.0022,2697,2019-08-07 16:46:39:905
-5.4413,-7.3892,0.1465,-0.67,-0.2841,0.5639,0.0251,-0.0517,0.0022,2704,2019-08-07 16:46:39:912
-5.4413,-7.3892,0.1465,-0.67,-0.2841,0.5639,0.0251,-0.0517,0.0022,2707,2019-08-07 16:46:39:915
-5.5561,-7.4131,0.3256,-0.4563,-0.2339,0.1757,0.0379,0.0665,-0.0181,2713,2019-08-07 16:46:39:921
-5.5561,-7.4131,0.3256,-0.4563,-0.2339,0.1757,0.0379,0.0665,-0.0181,2718,2019-08-07 16:46:39:926
-5.8575,-7.3319,0.5377,-0.4563,-0.2339,0.1757,0.0432,0.1283,-0.0245,2723,2019-08-07 16:46:39:931
-5.8575,-7.3319,0.5377,-0.4563,-0.2339,0.1757,0.0432,0.1283,-0.0245,2728,2019-08-07 16:46:39:936
-5.8575,-7.3319,0.5377,-0.2387,-0.3128,-0.1345,0.0411,0.1134,-0.0159,2733,2019-08-07 16:46:39:941
-5.934,-7.3176,0.764,-0.2387,-0.3128,-0.1345,0.0411,0.1134,-0.0159,2738,2019-08-07 16:46:39:946
-5.934,-7.3176,0.764,-0.2387,-0.3128,-0.1345,0.0411,0.1134,-0.0159,2743,2019-08-07 16:46:39:951
-5.8766,-7.2937,0.8017,-0.2387,-0.3128,-0.1345,0.0304,0.042,-0.0074,2748,2019-08-07 16:46:39:956
-5.8766,-7.2937,0.8017,-0.344,-0.2123,-0.2731,0.0304,0.042,-0.0074,2753,2019-08-07 16:46:39:961
-5.8766,-7.2937,0.8017,-0.344,-0.2123,-0.2731,0.0112,-0.0858,0.0352,2758,2019-08-07 16:46:39:966
-5.7331,-7.3892,0.698,-0.344,-0.2123,-0.2731,0.0112,-0.0858,0.0352,2763,2019-08-07 16:46:39:971
-5.7331,-7.3892,0.698,-0.4653,-0.1913,-0.0728,6.0E-4,-0.1391,0.0618,2768,2019-08-07 16:46:39:976
-5.7331,-7.3892,0.698,-0.4653,-0.1913,-0.0728,6.0E-4,-0.1391,0.0618,2773,2019-08-07 16:46:39:981
-5.7331,-7.3892,0.698,-0.4653,-0.1913,-0.0728,6.0E-4,-0.1391,0.0618,2778,2019-08-07 16:46:39:986
-5.6326,-7.4656,0.731,-0.5212,-0.1497,-0.1196,-0.009,-0.1817,0.081,2783,2019-08-07 16:46:39:991
-5.6326,-7.4656,0.731,-0.5212,-0.1497,-0.1196,-0.009,-0.1817,0.081,2787,2019-08-07 16:46:39:995
-5.6326,-7.4656,0.731,-0.5212,-0.1497,-0.1196,-0.009,-0.1817,0.081,2793,2019-08-07 16:46:40:001
-5.4556,-7.6231,0.3916,-0.7753,0.0607,0.3066,-0.0165,-0.1764,0.1151,2797,2019-08-07 16:46:40:005
-5.4556,-7.6231,0.3916,-0.7753,0.0607,0.3066,-0.0165,-0.1764,0.1151,2803,2019-08-07 16:46:40:011
-5.4556,-7.6231,0.3916,-0.7753,0.0607,0.3066,-0.009,-0.0688,0.1023,2807,2019-08-07 16:46:40:015
-5.3982,-7.8475,-0.0138,-0.7753,0.0607,0.3066,-0.009,-0.0688,0.1023,2813,2019-08-07 16:46:40:021
-5.3982,-7.8475,-0.0138,-0.623,0.184,0.6406,0.008,0.0452,0.0789,2818,2019-08-07 16:46:40:026
-5.3982,-7.8475,-0.0138,-0.623,0.184,0.6406,0.008,0.0452,0.0789,2822,2019-08-07 16:46:40:030
-5.8001,-7.7568,0.1842,-0.3787,0.1633,0.4463,0.0304,0.1294,0.0565,2829,2019-08-07 16:46:40:037
-5.8001,-7.7568,0.1842,-0.3787,0.1633,0.4463,0.0304,0.1294,0.0565,2832,2019-08-07 16:46:40:040
-5.8001,-7.7568,0.1842,-0.3787,0.1633,0.4463,0.0304,0.1294,0.0565,2838,2019-08-07 16:46:40:046
-6.2307,-7.5897,0.4388,-0.3787,0.1633,0.4463,0.0304,0.1294,0.0565,2843,2019-08-07 16:46:40:051
-6.2307,-7.5897,0.4388,0.1887,0.0196,0.0587,0.0474,0.1603,0.0192,2848,2019-08-07 16:46:40:056
-6.4938,-7.4608,0.6084,0.1887,0.0196,0.0587,0.0474,0.1603,0.0192,2853,2019-08-07 16:46:40:061
-6.4938,-7.4608,0.6084,0.1887,0.0196,0.0587,0.0379,0.0282,0.0011,2857,2019-08-07 16:46:40:065
-6.4938,-7.4608,0.6084,0.1887,0.0196,0.0587,0.0379,0.0282,0.0011,2863,2019-08-07 16:46:40:071
-6.5177,-7.3701,0.6839,0.3294,-0.2167,-0.0665,0.0411,-0.1295,-0.001,2868,2019-08-07 16:46:40:076
-6.5177,-7.3701,0.6839,0.3294,-0.2167,-0.0665,0.0411,-0.1295,-0.001,2873,2019-08-07 16:46:40:081
-6.2833,-7.3606,0.5707,0.0947,-0.2248,0.0613,0.0453,-0.2712,0.0213,2878,2019-08-07 16:46:40:086
-6.2833,-7.3606,0.5707,0.0947,-0.2248,0.0613,0.0453,-0.2712,0.0213,2883,2019-08-07 16:46:40:091
-6.2833,-7.3606,0.5707,0.0947,-0.2248,0.0613,0.0549,-0.3756,0.049,2888,2019-08-07 16:46:40:096
-6.2833,-7.3606,0.5707,0.0947,-0.2248,0.0613,0.0549,-0.3756,0.049,2892,2019-08-07 16:46:40:100
-5.7953,-7.4513,0.2738,-0.6286,-0.1052,0.3604,0.0773,-0.3777,0.0671,2898,2019-08-07 16:46:40:106
-5.7953,-7.4513,0.2738,-0.6286,-0.1052,0.3604,0.0773,-0.3777,0.0671,2902,2019-08-07 16:46:40:110
-5.2977,-7.5038,0.1371,-0.6286,-0.1052,0.3604,0.0773,-0.3777,0.0671,2908,2019-08-07 16:46:40:116
-5.2977,-7.5038,0.1371,-0.6286,-0.1052,0.3604,0.105,-0.3244,0.0746,2913,2019-08-07 16:46:40:121
-4.9772,-7.4513,0.0569,-1.176,-0.1082,0.6397,0.105,-0.3244,0.0746,2918,2019-08-07 16:46:40:126
-4.9772,-7.4513,0.0569,-1.176,-0.1082,0.6397,0.1188,-0.1231,0.064,2923,2019-08-07 16:46:40:131
-4.9772,-7.4513,0.0569,-1.176,-0.1082,0.6397,0.1188,-0.1231,0.064,2927,2019-08-07 16:46:40:135
-4.9389,-7.4322,0.0051,-1.2585,-0.1294,0.7799,0.1188,-0.1231,0.064,2933,2019-08-07 16:46:40:141
-4.9389,-7.4322,0.0051,-1.2585,-0.1294,0.7799,0.1178,0.0633,0.0469,2938,2019-08-07 16:46:40:146
-4.9389,-7.4322,0.0051,-1.2585,-0.1294,0.7799,0.1178,0.0633,0.0469,2942,2019-08-07 16:46:40:150
-5.2642,-7.4083,0.1559,-0.7549,-0.1643,0.5338,0.1263,0.237,0.0267,2948,2019-08-07 16:46:40:156
-5.2642,-7.4083,0.1559,-0.7549,-0.1643,0.5338,0.1263,0.237,0.0267,2952,2019-08-07 16:46:40:160
-5.8192,-7.3367,0.5472,-0.7549,-0.1643,0.5338,0.1284,0.2955,0.015,2958,2019-08-07 16:46:40:166
-5.8192,-7.3367,0.5472,-0.7549,-0.1643,0.5338,0.1284,0.2955,0.015,2963,2019-08-07 16:46:40:171
-6.1302,-7.203,0.7027,-0.115,-0.3139,0.0546,0.1135,0.2615,0.0096,2968,2019-08-07 16:46:40:176
-6.1302,-7.203,0.7027,-0.115,-0.3139,0.0546,0.1135,0.2615,0.0096,2973,2019-08-07 16:46:40:181
-6.1302,-7.203,0.7027,-0.115,-0.3139,0.0546,0.0975,0.2093,0.0086,2977,2019-08-07 16:46:40:185
-6.2163,-7.1839,0.9148,-0.115,-0.3139,0.0546,0.0975,0.2093,0.0086,2984,2019-08-07 16:46:40:192
-6.2163,-7.1839,0.9148,0.0512,-0.3957,-0.1991,0.0975,0.2093,0.0086,2987,2019-08-07 16:46:40:195
-6.2163,-7.1839,0.9148,0.0512,-0.3957,-0.1991,0.0975,0.2093,0.0086,2993,2019-08-07 16:46:40:201
-6.2546,-7.2508,0.9384,0.0512,-0.3957,-0.1991,0.0602,0.0335,0.0245,2998,2019-08-07 16:46:40:206
-6.2546,-7.2508,0.9384,0.0512,-0.3957,-0.1991,0.0602,0.0335,0.0245,3003,2019-08-07 16:46:40:211
-6.2546,-7.2508,0.9384,0.0512,-0.3957,-0.1991,0.0602,0.0335,0.0245,3008,2019-08-07 16:46:40:216
-5.8958,-7.3319,0.7923,-0.3127,-0.1755,-0.0219,0.0325,-0.0933,0.0426,3013,2019-08-07 16:46:40:221
-5.8958,-7.3319,0.7923,-0.3127,-0.1755,-0.0219,0.0325,-0.0933,0.0426,3018,2019-08-07 16:46:40:226
-5.5082,-7.4513,0.599,-0.3127,-0.1755,-0.0219,0.0016,-0.1295,0.0671,3023,2019-08-07 16:46:40:231
-5.5082,-7.4513,0.599,-0.7479,-0.0887,0.1284,0.0016,-0.1295,0.0671,3028,2019-08-07 16:46:40:236
-5.5082,-7.4513,0.599,-0.7479,-0.0887,0.1284,0.0016,-0.1295,0.0671,3032,2019-08-07 16:46:40:240
-5.4891,-7.4561,0.5425,-0.7479,-0.0887,0.1284,0.0048,-0.0496,0.0682,3038,2019-08-07 16:46:40:246
-5.4891,-7.4561,0.5425,-0.7479,-0.0887,0.1284,0.0048,-0.0496,0.0682,3043,2019-08-07 16:46:40:251
-5.6135,-7.4513,0.6132,-0.5968,-0.0971,0.1796,0.0038,0.0303,0.065,3048,2019-08-07 16:46:40:256
-5.6135,-7.4513,0.6132,-0.5968,-0.0971,0.1796,0.0038,0.0303,0.065,3053,2019-08-07 16:46:40:261
-5.6135,-7.4513,0.6132,-0.5968,-0.0971,0.1796,0.0038,0.0303,0.065,3058,2019-08-07 16:46:40:266
-5.8096,-7.3415,0.5755,-0.4194,-0.199,0.1835,-0.0048,0.1081,0.0618,3064,2019-08-07 16:46:40:272
-5.8096,-7.3415,0.5755,-0.4194,-0.199,0.1835,-0.0048,0.1081,0.0618,3068,2019-08-07 16:46:40:276
-6.1158,-7.3176,0.764,-0.4194,-0.199,0.1835,-0.0101,0.1091,0.0586,3072,2019-08-07 16:46:40:280
-6.1158,-7.3176,0.764,-0.0953,-0.2107,-0.0154,-0.0101,0.1091,0.0586,3078,2019-08-07 16:46:40:286
-6.1158,-7.3176,0.764,-0.0953,-0.2107,-0.0154,-0.0111,0.0676,0.0608,3083,2019-08-07 16:46:40:291
-6.2163,-7.3272,0.7074,-0.0953,-0.2107,-0.0154,-0.0111,0.0676,0.0608,3087,2019-08-07 16:46:40:295
-6.2163,-7.3272,0.7074,-0.0953,-0.2107,-0.0154,-0.0133,0.0314,0.0661,3093,2019-08-07 16:46:40:301
-6.1876,-7.4035,0.6414,-0.0633,-0.1211,0.0947,-0.0133,0.0314,0.0661,3098,2019-08-07 16:46:40:306
-6.1876,-7.4035,0.6414,-0.0633,-0.1211,0.0947,-0.0133,0.0314,0.0661,3103,2019-08-07 16:46:40:311
-6.1876,-7.4035,0.6414,-0.0633,-0.1211,0.0947,-0.0058,-0.0187,0.0671,3108,2019-08-07 16:46:40:316
-6.1206,-7.4274,0.7169,-0.0633,-0.1211,0.0947,0.0091,-0.0507,0.0757,3113,2019-08-07 16:46:40:321
-6.1206,-7.4274,0.7169,-0.1694,-0.0645,0.1966,0.0091,-0.0507,0.0757,3118,2019-08-07 16:46:40:326
-6.1206,-7.4274,0.7169,-0.1694,-0.0645,0.1966,0.0091,-0.0507,0.0757,3123,2019-08-07 16:46:40:331
-6.0536,-7.4895,0.5519,-0.1694,-0.0645,0.1966,0.0272,-0.0336,0.0831,3128,2019-08-07 16:46:40:336
-6.0536,-7.4895,0.5519,-0.1694,-0.0645,0.1966,0.0272,-0.0336,0.0831,3133,2019-08-07 16:46:40:341
-6.1445,-7.4561,0.5707,-0.1282,-0.0494,0.1759,0.0453,-0.0272,0.081,3138,2019-08-07 16:46:40:346
-6.1445,-7.4561,0.5707,-0.1282,-0.0494,0.1759,0.0453,-0.0272,0.081,3143,2019-08-07 16:46:40:351
-6.1445,-7.4561,0.5707,-0.1282,-0.0494,0.1759,0.0666,-0.0443,0.0746,3149,2019-08-07 16:46:40:357
-6.1111,-7.4847,0.599,-0.1282,-0.0494,0.1759,0.0666,-0.0443,0.0746,3153,2019-08-07 16:46:40:361
-6.1111,-7.4847,0.599,-0.1282,-0.0494,0.1759,0.0666,-0.0443,0.0746,3157,2019-08-07 16:46:40:365
-6.0297,-7.4131,0.5802,-0.1905,-0.0827,0.1861,0.0783,-0.0645,0.0618,3164,2019-08-07 16:46:40:372
-6.0297,-7.4131,0.5802,-0.1905,-0.0827,0.1861,0.0783,-0.0645,0.0618,3168,2019-08-07 16:46:40:376
-6.0297,-7.4131,0.5802,-0.1905,-0.0827,0.1861,0.0783,-0.0571,0.049,3172,2019-08-07 16:46:40:380
-5.9149,-7.3367,0.5142,-0.1905,-0.0827,0.1861,0.0783,-0.0571,0.049,3178,2019-08-07 16:46:40:386
-5.9149,-7.3367,0.5142,-0.416,-0.1289,0.2131,0.073,-0.0517,0.032,3183,2019-08-07 16:46:40:391
-5.9149,-7.3367,0.5142,-0.416,-0.1289,0.2131,0.073,-0.0517,0.032,3188,2019-08-07 16:46:40:396
-5.7905,-7.4131,0.6179,-0.416,-0.1289,0.2131,0.0677,-0.0315,0.0181,3193,2019-08-07 16:46:40:401
-5.7905,-7.4131,0.6179,-0.416,-0.1289,0.2131,0.0677,-0.0315,0.0181,3198,2019-08-07 16:46:40:406
-5.7905,-7.4131,0.6179,-0.503,-0.1745,0.175,0.0656,-0.0091,0.0203,3203,2019-08-07 16:46:40:411
-5.7475,-7.2746,0.599,-0.503,-0.1745,0.175,0.0656,-0.0091,0.0203,3208,2019-08-07 16:46:40:416
-5.7475,-7.2746,0.599,-0.5037,-0.2354,0.1985,0.0496,0.0047,0.0288,3213,2019-08-07 16:46:40:421
-5.8001,-7.2556,0.6792,-0.5037,-0.2354,0.1985,0.0496,0.0047,0.0288,3218,2019-08-07 16:46:40:426
-5.8001,-7.2556,0.6792,-0.5037,-0.2354,0.1985,0.0496,0.0047,0.0288,3222,2019-08-07 16:46:40:430
-5.8001,-7.2556,0.6792,-0.5037,-0.2354,0.1985,0.0304,-0.0262,0.0448,3228,2019-08-07 16:46:40:436
-5.8096,-7.1744,0.731,-0.4837,-0.3077,0.0733,0.0304,-0.0262,0.0448,3233,2019-08-07 16:46:40:441
-5.8096,-7.1744,0.731,-0.4837,-0.3077,0.0733,0.008,-0.0613,0.064,3237,2019-08-07 16:46:40:445
-5.6996,-7.2078,0.5896,-0.597,-0.2712,0.2189,0.008,-0.0613,0.064,3243,2019-08-07 16:46:40:451
-5.6996,-7.2078,0.5896,-0.597,-0.2712,0.2189,0.0016,-0.0677,0.0693,3248,2019-08-07 16:46:40:456
-5.6996,-7.2078,0.5896,-0.597,-0.2712,0.2189,0.0016,-0.0677,0.0693,3253,2019-08-07 16:46:40:461
-5.647,-7.2078,0.6792,-0.597,-0.2712,0.2189,0.0016,-0.0677,0.0693,3258,2019-08-07 16:46:40:466
-5.647,-7.2078,0.6792,-0.6624,-0.2731,0.2316,0.0091,-0.0613,0.0821,3263,2019-08-07 16:46:40:471
-5.6135,-7.2221,0.4246,-0.6624,-0.2731,0.2316,0.0091,-0.0613,0.0821,3268,2019-08-07 16:46:40:476
-5.6135,-7.2221,0.4246,-0.6624,-0.2731,0.2316,0.0134,-0.0166,0.0778,3272,2019-08-07 16:46:40:480
-5.6135,-7.2221,0.4246,-0.6624,-0.2731,0.2316,0.0134,-0.0166,0.0778,3278,2019-08-07 16:46:40:486
-5.6805,-7.2412,0.401,-0.6336,-0.222,0.4166,0.0102,0.0335,0.0746,3283,2019-08-07 16:46:40:491
-5.6805,-7.2412,0.401,-0.6336,-0.222,0.4166,0.0102,0.0335,0.0746,3288,2019-08-07 16:46:40:496
-5.6805,-7.2412,0.401,-0.6336,-0.222,0.4166,0.0197,0.0644,0.0682,3293,2019-08-07 16:46:40:501
-5.757,-7.289,0.4576,-0.6336,-0.222,0.4166,0.0197,0.0644,0.0682,3297,2019-08-07 16:46:40:505
-5.757,-7.289,0.4576,-0.4664,-0.1621,0.3713,0.0197,0.0644,0.0682,3303,2019-08-07 16:46:40:511
-5.757,-7.289,0.4576,-0.4664,-0.1621,0.3713,0.0336,0.1027,0.0586,3308,2019-08-07 16:46:40:516
-5.9053,-7.2126,0.4812,-0.4664,-0.1621,0.3713,0.0325,0.1059,0.064,3313,2019-08-07 16:46:40:521
-5.9053,-7.2126,0.4812,-0.4664,-0.1621,0.3713,0.0325,0.1059,0.064,3318,2019-08-07 16:46:40:526
-6.0249,-7.2221,0.5802,-0.3091,-0.2262,0.2194,0.0325,0.1059,0.064,3324,2019-08-07 16:46:40:532
-6.0249,-7.2221,0.5802,-0.3091,-0.2262,0.2194,0.0208,0.0931,0.0618,3327,2019-08-07 16:46:40:535
-6.0249,-7.2221,0.5802,-0.3091,-0.2262,0.2194,0.0208,0.0931,0.0618,3333,2019-08-07 16:46:40:541
-6.1111,-7.2174,0.7216,-0.3091,-0.2262,0.2194,0.007,0.0516,0.0671,3338,2019-08-07 16:46:40:546
-6.1111,-7.2174,0.7216,-0.1953,-0.2704,0.1175,0.007,0.0516,0.0671,3343,2019-08-07 16:46:40:551
-6.1541,-7.2269,0.5707,-0.1953,-0.2704,0.1175,0.0038,0.0186,0.0703,3349,2019-08-07 16:46:40:557
-6.1541,-7.2269,0.5707,-0.1953,-0.2704,0.1175,0.0038,0.0186,0.0703,3353,2019-08-07 16:46:40:561
-6.1541,-7.2269,0.5707,-0.1953,-0.2704,0.1175,0.0038,0.0186,0.0703,3358,2019-08-07 16:46:40:566
-6.111,-7.2651,0.632,-0.2437,-0.1665,0.1578,6.0E-4,-0.0049,0.064,3363,2019-08-07 16:46:40:571
-6.111,-7.2651,0.632,-0.2437,-0.1665,0.1578,6.0E-4,-0.0049,0.064,3367,2019-08-07 16:46:40:575
-6.111,-7.2651,0.632,-0.2437,-0.1665,0.1578,6.0E-4,-0.0134,0.0576,3373,2019-08-07 16:46:40:581
-5.9819,-7.2842,0.6085,-0.2437,-0.1665,0.1578,6.0E-4,-0.0134,0.0576,3377,2019-08-07 16:46:40:585
-5.9819,-7.2842,0.6085,-0.3609,-0.1509,0.2,0.0123,0.0207,0.0405,3383,2019-08-07 16:46:40:591
-5.9819,-7.2842,0.6085,-0.3609,-0.1509,0.2,0.0123,0.0207,0.0405,3387,2019-08-07 16:46:40:595
-6.0776,-7.2794,0.5472,-0.3609,-0.1509,0.2,0.0144,0.0665,0.0213,3393,2019-08-07 16:46:40:601
-6.0776,-7.2794,0.5472,-0.3609,-0.1509,0.2,0.0144,0.0665,0.0213,3398,2019-08-07 16:46:40:606
-6.1493,-7.2651,0.6744,-0.2167,-0.1576,0.108,0.007,0.0772,0.0107,3403,2019-08-07 16:46:40:611
-6.1493,-7.2651,0.6744,-0.2167,-0.1576,0.108,0.007,0.0772,0.0107,3407,2019-08-07 16:46:40:615
-6.1493,-7.2651,0.6744,-0.2167,-0.1576,0.108,0.0048,0.0718,0.0043,3413,2019-08-07 16:46:40:621
-6.1541,-7.2794,0.7027,-0.2167,-0.1576,0.108,0.0048,0.0718,0.0043,3418,2019-08-07 16:46:40:626
-6.1541,-7.2794,0.7027,-0.1948,-0.195,-0.0038,0.0048,0.0718,0.0043,3423,2019-08-07 16:46:40:631
-6.1541,-7.2794,0.7027,-0.1948,-0.195,-0.0038,0.0102,0.0516,0.0086,3428,2019-08-07 16:46:40:636
-6.1876,-7.2078,0.8819,-0.1948,-0.195,-0.0038,0.0102,0.0516,0.0086,3433,2019-08-07 16:46:40:641
-6.1876,-7.2078,0.8819,-0.1948,-0.195,-0.0038,0.0091,-0.0038,0.0192,3438,2019-08-07 16:46:40:646
-6.068,-7.1792,0.9526,-0.3029,-0.2928,-0.1451,0.0091,-0.0038,0.0192,3443,2019-08-07 16:46:40:651
-6.068,-7.1792,0.9526,-0.3029,-0.2928,-0.1451,0.0027,-0.0315,0.0395,3448,2019-08-07 16:46:40:656
-6.068,-7.1792,0.9526,-0.3029,-0.2928,-0.1451,0.0027,-0.0315,0.0395,3453,2019-08-07 16:46:40:661
-5.7905,-7.2174,0.7829,-0.3029,-0.2928,-0.1451,-0.0111,-0.0464,0.0565,3458,2019-08-07 16:46:40:666
-5.7905,-7.2174,0.7829,-0.8866,-0.0972,-0.0038,-0.0111,-0.0464,0.0565,3463,2019-08-07 16:46:40:671
-5.6183,-7.3176,0.6603,-0.8866,-0.0972,-0.0038,0.0144,0.0079,0.0458,3468,2019-08-07 16:46:40:676
-5.6183,-7.3176,0.6603,-0.8866,-0.0972,-0.0038,0.0144,0.0079,0.0458,3472,2019-08-07 16:46:40:680
-5.6183,-7.3176,0.6603,-0.8866,-0.0972,-0.0038,0.0144,0.0079,0.0458,3478,2019-08-07 16:46:40:686
-5.8862,-7.1267,0.6226,-0.8866,-0.0972,-0.0038,0.0315,0.1027,0.0725,3483,2019-08-07 16:46:40:691
-5.8862,-7.1267,0.6226,-0.4636,-0.2869,0.0998,0.0315,0.1027,0.0725,3487,2019-08-07 16:46:40:695
-5.8862,-7.1267,0.6226,-0.4636,-0.2869,0.0998,0.0155,0.1219,0.0831,3493,2019-08-07 16:46:40:701
-5.9053,-7.1839,0.6414,-0.4636,-0.2869,0.0998,-0.0069,0.123,0.0661,3498,2019-08-07 16:46:40:706
-5.9053,-7.1839,0.6414,-0.4636,-0.2869,0.0998,-0.0069,0.123,0.0661,3504,2019-08-07 16:46:40:712
-5.9053,-7.1839,0.6414,-0.0889,-0.2584,0.1547,-0.0335,0.0985,0.0671,3508,2019-08-07 16:46:40:716
-6.4559,-7.1744,0.6791,-0.0889,-0.2584,0.1547,-0.0335,0.0985,0.0671,3513,2019-08-07 16:46:40:721
-6.4559,-7.1744,0.6791,-0.0889,-0.2584,0.1547,-0.0335,0.0985,0.0671,3518,2019-08-07 16:46:40:726
-6.4033,-7.3462,0.7545,-0.0889,-0.2584,0.1547,-0.025,0.0271,0.049,3523,2019-08-07 16:46:40:731
-6.4033,-7.3462,0.7545,-0.0468,-0.0308,0.0082,-0.025,0.0271,0.049,3528,2019-08-07 16:46:40:736
-6.4033,-7.3462,0.7545,-0.0468,-0.0308,0.0082,-0.0101,-0.0208,0.0341,3533,2019-08-07 16:46:40:741
-6.2215,-7.2746,0.6225,-0.0468,-0.0308,0.0082,-0.0101,-0.0208,0.0341,3537,2019-08-07 16:46:40:745
-6.2215,-7.2746,0.6225,-0.0468,-0.0308,0.0082,-0.0101,-0.0315,0.0235,3544,2019-08-07 16:46:40:752
-6.2311,-7.2603,0.5518,-0.1993,-0.1132,0.1869,-0.0101,-0.0315,0.0235,3548,2019-08-07 16:46:40:756
-6.2311,-7.2603,0.5518,-0.1993,-0.1132,0.1869,-0.0101,-0.0315,0.0235,3552,2019-08-07 16:46:40:760
-6.2311,-7.2603,0.5518,-0.1993,-0.1132,0.1869,-0.0143,-0.056,0.0256,3558,2019-08-07 16:46:40:766
-6.0876,-7.2364,0.5895,-0.1993,-0.1132,0.1869,-0.0143,-0.056,0.0256,3563,2019-08-07 16:46:40:771
-6.0876,-7.2364,0.5895,-0.3836,-0.1393,0.1429,-0.009,-0.0698,0.0363,3567,2019-08-07 16:46:40:775
-5.9871,-7.1362,0.5989,-0.3836,-0.1393,0.1429,-0.009,-0.0698,0.0363,3573,2019-08-07 16:46:40:781
-5.9871,-7.1362,0.5989,-0.3836,-0.1393,0.1429,0.0016,-0.0698,0.0533,3579,2019-08-07 16:46:40:787
-5.9871,-7.1362,0.5989,-0.3836,-0.1393,0.1429,0.0016,-0.0698,0.0533,3582,2019-08-07 16:46:40:790
-5.9823,-7.1027,0.5424,-0.4366,-0.2773,0.2118,-0.0037,-0.0624,0.064,3588,2019-08-07 16:46:40:796
-5.9823,-7.1027,0.5424,-0.4366,-0.2773,0.2118,-0.0037,-0.0624,0.064,3594,2019-08-07 16:46:40:802
-5.9441,-7.0311,0.5942,-0.4366,-0.2773,0.2118,-0.0111,-0.0624,0.0703,3598,2019-08-07 16:46:40:806
-5.9441,-7.0311,0.5942,-0.4366,-0.2773,0.2118,-0.0111,-0.0624,0.0703,3602,2019-08-07 16:46:40:810
-5.9441,-7.0311,0.5942,-0.493,-0.2979,0.1797,-0.0111,-0.056,0.0735,3608,2019-08-07 16:46:40:816
-5.9201,-7.1314,0.4952,-0.493,-0.2979,0.1797,-0.0111,-0.056,0.0735,3612,2019-08-07 16:46:40:820
-5.9201,-7.1314,0.4952,-0.493,-0.2979,0.1797,-0.0154,-0.023,0.0682,3618,2019-08-07 16:46:40:826
-5.9201,-7.1314,0.4952,-0.493,-0.2979,0.1797,-0.0154,-0.023,0.0682,3622,2019-08-07 16:46:40:830
-5.9393,-7.1409,0.4811,-0.4776,-0.2141,0.2782,-0.0133,0.0069,0.0629,3628,2019-08-07 16:46:40:836
-5.9393,-7.1409,0.4811,-0.4776,-0.2141,0.2782,-0.0133,0.0069,0.0629,3632,2019-08-07 16:46:40:840
-6.0685,-7.1362,0.4339,-0.4776,-0.2141,0.2782,-5.0E-4,0.0804,0.0416,3638,2019-08-07 16:46:40:846
-6.0685,-7.1362,0.4339,-0.4776,-0.2141,0.2782,-5.0E-4,0.0804,0.0416,3643,2019-08-07 16:46:40:851
-6.0685,-7.1362,0.4339,-0.3077,-0.166,0.239,0.008,0.1006,0.0373,3648,2019-08-07 16:46:40:856
-6.1833,-7.2125,0.5706,-0.3077,-0.166,0.239,0.008,0.1006,0.0373,3653,2019-08-07 16:46:40:861
-6.1833,-7.2125,0.5706,-0.3077,-0.166,0.239,0.008,0.1006,0.0373,3658,2019-08-07 16:46:40:866
-6.346,-7.1553,0.5942,-0.3077,-0.166,0.239,0.0166,0.0985,0.0299,3663,2019-08-07 16:46:40:871
-6.346,-7.1553,0.5942,-0.0652,-0.2046,0.0673,0.0166,0.0985,0.0299,3668,2019-08-07 16:46:40:876
-6.346,-7.1553,0.5942,-0.0652,-0.2046,0.0673,0.0198,0.0463,0.0363,3674,2019-08-07 16:46:40:882
-6.3268,-7.1648,0.6131,-0.0652,-0.2046,0.0673,0.0198,0.0463,0.0363,3678,2019-08-07 16:46:40:886
-6.3268,-7.1648,0.6131,-0.0652,-0.2046,0.0673,0.0155,-0.0134,0.0363,3683,2019-08-07 16:46:40:891
-6.2694,-7.1696,0.712,-0.186,-0.1803,0.0246,0.0155,-0.0134,0.0363,3688,2019-08-07 16:46:40:896
-6.2694,-7.1696,0.712,-0.186,-0.1803,0.0246,0.0144,-0.0613,0.0458,3693,2019-08-07 16:46:40:901
-6.2694,-7.1696,0.712,-0.186,-0.1803,0.0246,0.0144,-0.0613,0.0458,3698,2019-08-07 16:46:40:906
-6.0972,-7.1553,0.6838,-0.186,-0.1803,0.0246,0.0144,-0.0613,0.0458,3703,2019-08-07 16:46:40:911
-6.0972,-7.1553,0.6838,-0.186,-0.1803,0.0246,0.0123,-0.0741,0.0469,3708,2019-08-07 16:46:40:916
-5.8915,-7.1266,0.6036,-0.5639,-0.2133,0.1102,0.0123,-0.0741,0.0469,3714,2019-08-07 16:46:40:922
-5.8915,-7.1266,0.6036,-0.5639,-0.2133,0.1102,6.0E-4,-0.0485,0.0448,3718,2019-08-07 16:46:40:926
-5.8915,-7.1266,0.6036,-0.5639,-0.2133,0.1102,6.0E-4,-0.0485,0.0448,3722,2019-08-07 16:46:40:930
-5.8915,-7.2364,0.5376,-0.5392,-0.0995,0.2089,-0.009,-0.0102,0.048,3728,2019-08-07 16:46:40:936
-5.8915,-7.2364,0.5376,-0.5392,-0.0995,0.2089,-0.009,-0.0102,0.048,3734,2019-08-07 16:46:40:942
-5.8915,-7.2364,0.5376,-0.5392,-0.0995,0.2089,-0.0016,0.0537,0.0373,3738,2019-08-07 16:46:40:946
-5.8915,-7.2364,0.5376,-0.5392,-0.0995,0.2089,-0.0016,0.0537,0.0373,3743,2019-08-07 16:46:40:951
-5.9059,-7.246,0.6461,-0.3714,-0.1346,0.1547,-0.0037,0.0772,0.0139,3748,2019-08-07 16:46:40:956
-5.9059,-7.246,0.6461,-0.3714,-0.1346,0.1547,-0.0037,0.0772,0.0139,3752,2019-08-07 16:46:40:960
-5.9059,-7.246,0.6461,-0.3714,-0.1346,0.1547,-0.0037,0.0772,0.0139,3758,2019-08-07 16:46:40:966
-6.2886,-7.1743,0.6131,-0.1812,-0.1628,0.1245,-0.0154,0.0931,0.0107,3763,2019-08-07 16:46:40:971
-6.2886,-7.1743,0.6131,-0.1812,-0.1628,0.1245,-0.0154,0.0931,0.0107,3768,2019-08-07 16:46:40:976
-6.3412,-7.203,0.7498,-0.1812,-0.1628,0.1245,-0.0165,0.0644,-0.0032,3772,2019-08-07 16:46:40:980
-6.3412,-7.203,0.7498,-0.1631,-0.101,-0.0428,-0.0165,0.0644,-0.0032,3778,2019-08-07 16:46:40:986
-6.3412,-7.203,0.7498,-0.1631,-0.101,-0.0428,-0.0079,0.0207,-0.0032,3782,2019-08-07 16:46:40:990
-6.2168,-7.1887,0.712,-0.1631,-0.101,-0.0428,-0.0079,0.0207,-0.0032,3788,2019-08-07 16:46:40:996
-6.2168,-7.1887,0.712,-0.1631,-0.101,-0.0428,-0.009,0.0015,0.0022,3793,2019-08-07 16:46:41:001
-6.1259,-7.2078,0.646,-0.3492,-0.1399,0.0442,-0.009,0.0015,0.0022,3798,2019-08-07 16:46:41:006
-6.1259,-7.2078,0.646,-0.3492,-0.1399,0.0442,-0.009,0.0015,0.0022,3803,2019-08-07 16:46:41:011
-6.1259,-7.2078,0.646,-0.3492,-0.1399,0.0442,-0.0069,-0.0283,0.0075,3808,2019-08-07 16:46:41:016
-6.1212,-7.2221,0.6649,-0.3492,-0.1399,0.0442,-0.0069,-0.0283,0.0075,3813,2019-08-07 16:46:41:021
-6.1212,-7.2221,0.6649,-0.3684,-0.2397,0.1418,-0.0111,-0.0613,0.0171,3818,2019-08-07 16:46:41:026
-6.1212,-7.2221,0.6649,-0.3684,-0.2397,0.1418,-0.0111,-0.0613,0.0171,3822,2019-08-07 16:46:41:030
-6.0159,-7.1934,0.6508,-0.3684,-0.2397,0.1418,-0.0016,-0.0485,0.0331,3828,2019-08-07 16:46:41:036
-6.0159,-7.1934,0.6508,-0.4127,-0.1095,0.2008,-0.0016,-0.0485,0.0331,3833,2019-08-07 16:46:41:041
-6.0159,-7.1934,0.6508,-0.4127,-0.1095,0.2008,0.007,-0.0198,0.0363,3838,2019-08-07 16:46:41:046
-6.0686,-7.2794,0.6272,-0.4127,-0.1095,0.2008,0.007,-0.0198,0.0363,3843,2019-08-07 16:46:41:051
-6.0686,-7.2794,0.6272,-0.339,-0.0684,0.1242,0.0134,-0.0144,0.0245,3848,2019-08-07 16:46:41:056
-6.126,-7.1887,0.6036,-0.339,-0.0684,0.1242,0.0134,-0.0144,0.0245,3853,2019-08-07 16:46:41:061
-6.126,-7.1887,0.6036,-0.339,-0.0684,0.1242,0.0134,-0.0144,0.0245,3858,2019-08-07 16:46:41:066
-6.193,-7.1552,0.5046,-0.339,-0.0684,0.1242,0.0176,0.0015,0.0107,3863,2019-08-07 16:46:41:071
-6.193,-7.1552,0.5046,-0.339,-0.0684,0.1242,0.0176,0.0015,0.0107,3868,2019-08-07 16:46:41:076
-6.193,-7.1552,0.5046,-0.3018,-0.1724,0.1537,0.0198,0.0154,-0.0053,3873,2019-08-07 16:46:41:081
-6.1738,-7.1839,0.5706,-0.3018,-0.1724,0.1537,0.0198,0.0154,-0.0053,3878,2019-08-07 16:46:41:086
-6.1738,-7.1839,0.5706,-0.3018,-0.1724,0.1537,0.0176,0.0037,-0.0255,3883,2019-08-07 16:46:41:091
-6.1738,-7.1839,0.5706,-0.3018,-0.1724,0.1537,0.0176,0.0037,-0.0255,3888,2019-08-07 16:46:41:096
-6.5661,-7.1027,0.2359,0.0929,-0.2317,0.4981,-0.0655,-0.1178,-0.0223,3893,2019-08-07 16:46:41:101
-6.5661,-7.1027,0.2359,0.0929,-0.2317,0.4981,-0.0655,-0.1178,-0.0223,3898,2019-08-07 16:46:41:106
-6.5661,-7.1027,0.2359,0.0929,-0.2317,0.4981,-0.0655,-0.1178,-0.0223,3903,2019-08-07 16:46:41:111
-6.0255,-7.3128,0.7733,0.0929,-0.2317,0.4981,0.0176,-0.0741,-0.0277,3908,2019-08-07 16:46:41:116
-6.0255,-7.3128,0.7733,-0.4128,-0.0791,0.2163,0.0176,-0.0741,-0.0277,3913,2019-08-07 16:46:41:121
-5.949,-7.0836,0.4245,-0.4128,-0.0791,0.2163,0.0357,-0.0528,-0.017,3917,2019-08-07 16:46:41:125
-5.949,-7.0836,0.4245,-0.4128,-0.0791,0.2163,0.0357,-0.0528,-0.017,3923,2019-08-07 16:46:41:131
-5.949,-7.0836,0.4245,-0.4128,-0.0791,0.2163,0.0315,0.0058,-0.0021,3928,2019-08-07 16:46:41:136
-5.7768,-7.0216,0.7874,-0.6863,-0.3205,-0.0399,0.0315,0.0058,-0.0021,3932,2019-08-07 16:46:41:140
-5.7768,-7.0216,0.7874,-0.6863,-0.3205,-0.0399,0.0634,0.0601,0.0213,3938,2019-08-07 16:46:41:146
-5.7959,-7.2269,0.6837,-0.6678,-0.1146,0.0648,0.0634,0.0601,0.0213,3943,2019-08-07 16:46:41:151
-5.7959,-7.2269,0.6837,-0.6678,-0.1146,0.0648,0.0709,0.1091,0.049,3948,2019-08-07 16:46:41:156
-5.7959,-7.2269,0.6837,-0.6678,-0.1146,0.0648,0.0709,0.1091,0.049,3953,2019-08-07 16:46:41:161
-5.9729,-7.0311,0.5848,-0.6678,-0.1146,0.0648,0.0485,0.1187,0.0522,3958,2019-08-07 16:46:41:166
-5.9729,-7.0311,0.5848,-0.3737,-0.4477,0.1247,0.0485,0.1187,0.0522,3963,2019-08-07 16:46:41:171
-6.2695,-6.8831,0.5848,-0.3737,-0.4477,0.1247,-0.0016,0.0793,0.0405,3967,2019-08-07 16:46:41:175
-6.2695,-6.8831,0.5848,-0.3737,-0.4477,0.1247,-0.0016,0.0793,0.0405,3973,2019-08-07 16:46:41:181
-6.2695,-6.8831,0.5848,-0.3737,-0.4477,0.1247,-0.0335,0.0399,0.0373,3978,2019-08-07 16:46:41:186
-6.3844,-7.0407,0.7403,-0.0946,-0.289,-0.0084,-0.0335,0.0399,0.0373,3983,2019-08-07 16:46:41:191
-6.3844,-7.0407,0.7403,-0.0946,-0.289,-0.0084,-0.0463,-0.0038,0.0267,3988,2019-08-07 16:46:41:196
-6.303,-7.2173,0.6837,-0.1779,-0.1109,0.0448,-0.0463,-0.0038,0.0267,3993,2019-08-07 16:46:41:201
-6.303,-7.2173,0.6837,-0.1779,-0.1109,0.0448,-0.0346,-0.0134,0.0,3998,2019-08-07 16:46:41:206
-6.303,-7.2173,0.6837,-0.1779,-0.1109,0.0448,-0.0346,-0.0134,0.0,4002,2019-08-07 16:46:41:210
-6.303,-7.2173,0.6837,-0.1779,-0.1109,0.0448,-0.0346,-0.0134,0.0,4008,2019-08-07 16:46:41:216