ACCELEROMETER X (m/s²),ACCELEROMETER Y (m/s²),ACCELEROMETER Z (m/s²),LINEAR ACCELERATION X (m/s²),LINEAR ACCELERATION Y (m/s²),LINEAR ACCELERATION Z (m/s²),GYROSCOPE X (rad/s),GYROSCOPE Y (rad/s),GYROSCOPE Z (rad/s),Time since start in ms ,YYYY-MO-DD HH-MI-SS_SSS
-5.8451,-7.2515,0.5959,-0.4087,-0.2883,0.1158,0.0048,0.0079,0.0086,3,2019-08-07 16:44:24:126
-5.9503,-7.2229,0.6195,-0.4087,-0.2883,0.1158,0.0048,0.0164,0.0118,8,2019-08-07 16:44:24:131
-5.9503,-7.2229,0.6195,-0.4087,-0.2883,0.1158,0.0048,0.0164,0.0118,13,2019-08-07 16:44:24:136
-5.9503,-7.2229,0.6195,-0.3003,-0.3348,0.0387,-5.0E-4,0.026,0.0129,18,2019-08-07 16:44:24:141
-5.9742,-7.1561,0.6478,-0.3003,-0.3348,0.0387,-5.0E-4,0.026,0.0129,23,2019-08-07 16:44:24:146
-5.9742,-7.1561,0.6478,-0.3003,-0.3348,0.0387,-0.009,0.0324,0.0118,28,2019-08-07 16:44:24:151
-5.9742,-7.1561,0.6478,-0.3003,-0.3348,0.0387,-0.009,0.0324,0.0118,32,2019-08-07 16:44:24:155
-6.0603,-7.1942,0.5488,-0.164,-0.3477,0.1268,-0.0175,0.0473,0.0065,38,2019-08-07 16:44:24:161
-6.0603,-7.1942,0.5488,-0.164,-0.3477,0.1268,-0.0175,0.0473,0.0065,43,2019-08-07 16:44:24:166
-6.1273,-7.1942,0.6289,-0.164,-0.3477,0.1268,-0.0207,0.0388,0.0054,48,2019-08-07 16:44:24:171
-6.1273,-7.1942,0.6289,-0.164,-0.3477,0.1268,-0.0207,0.0388,0.0054,54,2019-08-07 16:44:24:177
-6.1273,-7.1942,0.6289,-0.1897,-0.2897,0.0808,-0.0207,0.0388,0.0054,58,2019-08-07 16:44:24:181
-6.0842,-7.2372,0.6384,-0.1897,-0.2897,0.0808,-0.0144,0.0207,0.0012,63,2019-08-07 16:44:24:186
-6.0842,-7.2372,0.6384,-0.1897,-0.2897,0.0808,-0.0144,0.0207,0.0012,68,2019-08-07 16:44:24:191
-6.0842,-7.2372,0.6384,-0.1949,-0.2944,0.0733,-0.0165,0.0175,0.0033,73,2019-08-07 16:44:24:196
-6.0077,-7.2563,0.6148,-0.1949,-0.2944,0.0733,-0.0165,0.0175,0.0033,78,2019-08-07 16:44:24:201
-6.0077,-7.2563,0.6148,-0.2767,-0.28,0.0474,-0.0112,0.0154,0.0075,83,2019-08-07 16:44:24:206
-6.0459,-7.2706,0.6148,-0.2767,-0.28,0.0474,-0.0112,0.0154,0.0075,87,2019-08-07 16:44:24:210
-6.0459,-7.2706,0.6148,-0.2767,-0.28,0.0474,-0.008,0.0143,0.0107,93,2019-08-07 16:44:24:216
-6.0459,-7.2706,0.6148,-0.2767,-0.28,0.0474,-0.008,0.0143,0.0107,97,2019-08-07 16:44:24:220
-6.0268,-7.2993,0.6572,-0.2351,-0.2217,0.0204,0.0027,0.01,0.0118,103,2019-08-07 16:44:24:226
-6.0268,-7.2993,0.6572,-0.2351,-0.2217,0.0204,0.0027,0.01,0.0118,108,2019-08-07 16:44:24:231
-6.0315,-7.285,0.6714,-0.2351,-0.2217,0.0204,0.0133,0.0068,0.0193,113,2019-08-07 16:44:24:236
-6.0315,-7.285,0.6714,-0.2351,-0.2217,0.0204,0.0133,0.0068,0.0193,118,2019-08-07 16:44:24:241
-6.0315,-7.285,0.6714,-0.2615,-0.2579,-0.0172,0.0133,0.0058,0.0203,122,2019-08-07 16:44:24:245
-5.9885,-7.3041,0.6619,-0.2615,-0.2579,-0.0172,0.0133,0.0058,0.0203,128,2019-08-07 16:44:24:251
-5.9885,-7.3041,0.6619,-0.2615,-0.2579,-0.0172,0.007,0.0207,0.0203,133,2019-08-07 16:44:24:256
-6.0315,-7.2515,0.6384,-0.2615,-0.2579,-0.0172,0.007,0.0207,0.0203,138,2019-08-07 16:44:24:261
-6.0315,-7.2515,0.6384,-0.1833,-0.3126,0.0153,0.007,0.0207,0.0203,143,2019-08-07 16:44:24:266
-6.0315,-7.2515,0.6384,-0.1833,-0.3126,0.0153,0.0027,0.0175,0.0193,149,2019-08-07 16:44:24:272
-6.1033,-7.2468,0.6572,-0.1833,-0.3126,0.0153,0.0027,0.0175,0.0193,152,2019-08-07 16:44:24:275
-6.1033,-7.2468,0.6572,-0.1833,-0.3126,0.0153,0.0038,0.0079,0.0203,158,2019-08-07 16:44:24:281
-6.0841,-7.2372,0.6054,-0.1822,-0.2572,0.0709,0.0038,0.0079,0.0203,163,2019-08-07 16:44:24:286
-6.0841,-7.2372,0.6054,-0.1822,-0.2572,0.0709,0.0038,0.0015,0.015,167,2019-08-07 16:44:24:290
-6.0841,-7.2372,0.6054,-0.1822,-0.2572,0.0709,0.0038,0.0015,0.015,173,2019-08-07 16:44:24:296
-6.0985,-7.2372,0.6714,-0.1822,-0.2572,0.0709,-5.0E-4,0.0111,-0.001,178,2019-08-07 16:44:24:301
-6.0985,-7.2372,0.6714,-0.1982,-0.3084,0.0371,-5.0E-4,0.0111,-0.001,183,2019-08-07 16:44:24:306
-6.0841,-7.1847,0.6148,-0.1982,-0.3084,0.0371,-0.008,0.0196,1.0E-4,188,2019-08-07 16:44:24:311
-6.0841,-7.1847,0.6148,-0.1982,-0.3084,0.0371,-0.008,0.0196,1.0E-4,194,2019-08-07 16:44:24:317
-6.0841,-7.1847,0.6148,-0.1982,-0.3084,0.0371,-0.0101,0.0207,-0.001,198,2019-08-07 16:44:24:321
-6.0458,-7.2181,0.6431,-0.2273,-0.2941,0.0287,-0.0101,0.0207,-0.001,203,2019-08-07 16:44:24:326
-6.0458,-7.2181,0.6431,-0.2273,-0.2941,0.0287,-0.0186,0.0281,-0.0052,208,2019-08-07 16:44:24:331
-6.0554,-7.2325,0.6431,-0.2273,-0.2941,0.0287,-0.0186,0.0281,-0.0052,213,2019-08-07 16:44:24:336
-6.0554,-7.2325,0.6431,-0.2273,-0.2941,0.0287,-0.0207,0.0175,-0.0031,218,2019-08-07 16:44:24:341
-6.0554,-7.2325,0.6431,-0.2176,-0.2756,-0.0053,-0.0207,0.0175,-0.0031,222,2019-08-07 16:44:24:345
-6.0314,-7.2659,0.7185,-0.2176,-0.2756,-0.0053,-0.0122,0.0058,1.0E-4,228,2019-08-07 16:44:24:351
-6.0314,-7.2659,0.7185,-0.2177,-0.2852,0.0499,-0.0122,0.0058,1.0E-4,233,2019-08-07 16:44:24:356
-6.0314,-7.2659,0.7185,-0.2177,-0.2852,0.0499,-0.0122,0.0058,1.0E-4,238,2019-08-07 16:44:24:361
-5.9692,-7.2897,0.6101,-0.2177,-0.2852,0.0499,-0.0101,-0.0091,0.0065,243,2019-08-07 16:44:24:366
-5.9692,-7.2897,0.6101,-0.2177,-0.2852,0.0499,-0.0112,0.0015,0.0086,249,2019-08-07 16:44:24:372
-5.9692,-7.2897,0.6101,-0.2325,-0.2229,0.0064,-0.0112,0.0015,0.0086,253,2019-08-07 16:44:24:376
-6.0505,-7.242,0.6714,-0.2325,-0.2229,0.0064,-0.0112,0.0015,0.0086,257,2019-08-07 16:44:24:380
-6.0505,-7.242,0.6714,-0.2325,-0.2229,0.0064,-0.0122,0.0036,0.0107,263,2019-08-07 16:44:24:386
-6.0457,-7.2372,0.6478,-0.2325,-0.2229,0.0064,-0.0122,0.0036,0.0107,267,2019-08-07 16:44:24:390
-6.0457,-7.2372,0.6478,-0.2054,-0.2503,0.0748,-0.008,0.0058,0.0097,273,2019-08-07 16:44:24:396
-6.0457,-7.2372,0.6478,-0.2054,-0.2503,0.0748,-0.008,0.0058,0.0097,278,2019-08-07 16:44:24:401
-6.1318,-7.2611,0.5017,-0.2054,-0.2503,0.0748,-0.0058,0.01,1.0E-4,284,2019-08-07 16:44:24:407
-6.1318,-7.2611,0.5017,-0.2054,-0.2503,0.0748,-0.0058,0.01,1.0E-4,288,2019-08-07 16:44:24:411
-6.1318,-7.2611,0.5017,-0.1631,-0.2978,0.1519,-0.0058,0.01,1.0E-4,292,2019-08-07 16:44:24:415
-6.1366,-7.2086,0.5771,-0.1631,-0.2978,0.1519,-0.008,0.0207,-0.0063,298,2019-08-07 16:44:24:421
-6.1366,-7.2086,0.5771,-0.1631,-0.2978,0.1519,-0.008,0.0207,-0.0063,303,2019-08-07 16:44:24:426
-6.1366,-7.2086,0.5771,-0.1631,-0.2978,0.1519,-0.009,0.0217,-0.0106,307,2019-08-07 16:44:24:430
-6.1175,-7.242,0.6054,-0.1434,-0.3178,0.0157,-0.009,0.0217,-0.0106,313,2019-08-07 16:44:24:436
-6.1175,-7.242,0.6054,-0.1434,-0.3178,0.0157,-0.0101,0.0239,-0.0138,318,2019-08-07 16:44:24:441
-6.1175,-7.242,0.6054,-0.1434,-0.3178,0.0157,-0.0101,0.0239,-0.0138,322,2019-08-07 16:44:24:445
-6.1461,-7.2181,0.5536,-0.1434,-0.3178,0.0157,-0.0175,0.0079,-0.0148,328,2019-08-07 16:44:24:451
-6.1461,-7.2181,0.5536,-0.1802,-0.2669,-0.0029,-0.0175,0.0079,-0.0148,333,2019-08-07 16:44:24:456
-6.1126,-7.2898,0.563,-0.1802,-0.2669,-0.0029,-0.0122,-0.0102,-0.0127,337,2019-08-07 16:44:24:460
-6.1126,-7.2898,0.563,-0.1802,-0.2669,-0.0029,-0.0122,-0.0102,-0.0127,343,2019-08-07 16:44:24:466
-6.1126,-7.2898,0.563,-0.1802,-0.2669,-0.0029,-0.0122,-0.0102,-0.0127,347,2019-08-07 16:44:24:470
-5.95,-7.2277,0.6667,-0.3029,-0.3016,0.0167,-0.008,-0.0251,-0.0052,353,2019-08-07 16:44:24:476
-5.95,-7.2277,0.6667,-0.3029,-0.3016,0.0167,-0.008,-0.0251,-0.0052,357,2019-08-07 16:44:24:480
-5.9165,-7.2325,0.596,-0.3029,-0.3016,0.0167,-0.0016,-0.0294,0.0033,363,2019-08-07 16:44:24:486
-5.9165,-7.2325,0.596,-0.3029,-0.3016,0.0167,-0.0016,-0.0294,0.0033,368,2019-08-07 16:44:24:491
-5.9165,-7.2325,0.596,-0.3605,-0.2488,0.117,-0.0037,0.0036,0.0161,373,2019-08-07 16:44:24:496
-5.9547,-7.2277,0.5441,-0.3605,-0.2488,0.117,-0.0037,0.0036,0.0161,378,2019-08-07 16:44:24:501
-5.9547,-7.2277,0.5441,-0.3605,-0.2488,0.117,-0.0016,0.0164,0.0225,383,2019-08-07 16:44:24:506
-6.0169,-7.3089,0.6573,-0.3605,-0.2488,0.117,-0.0016,0.0164,0.0225,388,2019-08-07 16:44:24:511
-6.0169,-7.3089,0.6573,-0.3605,-0.2488,0.117,-0.0016,0.0164,0.0225,393,2019-08-07 16:44:24:516
-6.0169,-7.3089,0.6573,-0.2296,-0.2178,-0.0023,0.0133,0.0175,0.0278,398,2019-08-07 16:44:24:521
-6.036,-7.2659,0.5394,-0.2296,-0.2178,-0.0023,0.0133,0.0175,0.0278,403,2019-08-07 16:44:24:526
-6.036,-7.2659,0.5394,-0.2296,-0.2178,-0.0023,0.0165,0.0377,0.0214,408,2019-08-07 16:44:24:531
-6.036,-7.2659,0.5394,-0.2296,-0.2178,-0.0023,0.0165,0.0377,0.0214,413,2019-08-07 16:44:24:536
-6.2226,-7.2229,0.5677,-0.0566,-0.2863,0.0803,0.0165,0.0473,0.015,417,2019-08-07 16:44:24:540
-6.2226,-7.2229,0.5677,-0.0566,-0.2863,0.0803,0.0165,0.0473,0.015,423,2019-08-07 16:44:24:546
-6.2704,-7.1895,0.6337,-0.0566,-0.2863,0.0803,0.0197,0.0399,0.0129,428,2019-08-07 16:44:24:551
-6.2704,-7.1895,0.6337,-0.0566,-0.2863,0.0803,0.0197,0.0399,0.0129,433,2019-08-07 16:44:24:556
-6.2704,-7.1895,0.6337,-0.0361,-0.2788,-0.0067,0.0197,0.0175,0.0022,437,2019-08-07 16:44:24:560
-6.2561,-7.2086,0.6054,-0.0361,-0.2788,-0.0067,0.0197,0.0175,0.0022,443,2019-08-07 16:44:24:566
-6.2561,-7.2086,0.6054,-0.0361,-0.2788,-0.0067,0.0208,4.0E-4,-0.0052,448,2019-08-07 16:44:24:571
-6.2034,-7.285,0.6102,-0.0361,-0.2788,-0.0067,0.0208,4.0E-4,-0.0052,453,2019-08-07 16:44:24:576
-6.2034,-7.285,0.6102,-0.1082,-0.2736,0.0432,0.024,-0.0091,-0.0084,458,2019-08-07 16:44:24:581
-6.2034,-7.285,0.6102,-0.1082,-0.2736,0.0432,0.024,-0.0091,-0.0084,463,2019-08-07 16:44:24:586
-6.1173,-7.2373,0.6667,-0.1082,-0.2736,0.0432,0.0272,-0.0219,-0.0063,469,2019-08-07 16:44:24:592
-6.1173,-7.2373,0.6667,-0.1082,-0.2736,0.0432,0.0272,-0.0219,-0.0063,473,2019-08-07 16:44:24:596
-6.0503,-7.18,0.6762,-0.2174,-0.3119,-0.0114,0.0336,-0.0294,-0.002,477,2019-08-07 16:44:24:600
-6.0503,-7.18,0.6762,-0.2174,-0.3119,-0.0114,0.0336,-0.0294,-0.002,484,2019-08-07 16:44:24:607
-6.0503,-7.18,0.6762,-0.2174,-0.3119,-0.0114,0.0346,-0.0358,0.0075,488,2019-08-07 16:44:24:611
-5.9211,-7.1752,0.6762,-0.2174,-0.3119,-0.0114,0.0346,-0.0358,0.0075,493,2019-08-07 16:44:24:616
-5.9211,-7.1752,0.6762,-0.3419,-0.3443,0.0361,0.0325,-0.0326,0.0139,498,2019-08-07 16:44:24:621
-5.945,-7.1943,0.6762,-0.3419,-0.3443,0.0361,0.0325,-0.0326,0.0139,502,2019-08-07 16:44:24:625
-5.945,-7.1943,0.6762,-0.3419,-0.3443,0.0361,0.0272,-0.0241,0.0161,508,2019-08-07 16:44:24:631
-5.945,-7.1943,0.6762,-0.3419,-0.3443,0.0361,0.0272,-0.0241,0.0161,513,2019-08-07 16:44:24:636
-6.0263,-7.1513,0.6856,-0.2577,-0.3517,-0.0127,0.0187,-0.0155,0.0171,518,2019-08-07 16:44:24:641
-6.0263,-7.1513,0.6856,-0.2577,-0.3517,-0.0127,0.0187,-0.0155,0.0171,523,2019-08-07 16:44:24:646
-6.1124,-7.1466,0.6432,-0.1729,-0.3551,0.0316,0.0059,-0.0102,0.0171,528,2019-08-07 16:44:24:651
-6.1124,-7.1466,0.6432,-0.1729,-0.3551,0.0316,0.0059,-0.0102,0.0171,533,2019-08-07 16:44:24:656
-6.1124,-7.1466,0.6432,-0.1729,-0.3551,0.0316,-0.0048,-0.007,0.0107,538,2019-08-07 16:44:24:661
-6.0646,-7.18,0.596,-0.1729,-0.3551,0.0316,-0.0048,-0.007,0.0107,543,2019-08-07 16:44:24:666
-6.0646,-7.18,0.596,-0.1751,-0.296,0.1592,-0.0112,0.0111,-0.0042,549,2019-08-07 16:44:24:672
-6.0646,-7.18,0.596,-0.1751,-0.296,0.1592,-0.0112,0.0111,-0.0042,553,2019-08-07 16:44:24:676
-6.165,-7.2277,0.5772,-0.1751,-0.296,0.1592,-0.0112,0.0111,-0.0042,558,2019-08-07 16:44:24:681
-6.165,-7.2277,0.5772,-0.1751,-0.296,0.1592,-0.0207,0.0196,-0.0148,563,2019-08-07 16:44:24:686
-6.1555,-7.1561,0.5348,-0.1411,-0.3017,0.1114,-0.0207,0.0196,-0.0148,568,2019-08-07 16:44:24:691
-6.1555,-7.1561,0.5348,-0.1411,-0.3017,0.1114,-0.0229,0.0132,-0.0212,573,2019-08-07 16:44:24:696
-6.0789,-7.2468,0.6243,-0.2067,-0.2553,0.0427,-0.0229,0.0132,-0.0212,578,2019-08-07 16:44:24:701
-6.0789,-7.2468,0.6243,-0.2067,-0.2553,0.0427,-0.0186,0.0026,-0.0233,583,2019-08-07 16:44:24:706
-6.0789,-7.2468,0.6243,-0.2067,-0.2553,0.0427,-0.0186,0.0026,-0.0233,588,2019-08-07 16:44:24:711
-6.0215,-7.2468,0.6008,-0.2067,-0.2553,0.0427,-0.0186,0.0026,-0.0233,592,2019-08-07 16:44:24:715
-6.0215,-7.2468,0.6008,-0.2662,-0.2483,0.0822,-0.0144,-0.0134,-0.0106,598,2019-08-07 16:44:24:721
-6.0215,-7.2468,0.6008,-0.2662,-0.2483,0.0822,-0.0144,-0.0134,-0.0106,603,2019-08-07 16:44:24:726
-5.9449,-7.2516,0.5913,-0.2662,-0.2483,0.0822,-0.0058,-0.0294,-0.001,608,2019-08-07 16:44:24:731
-5.9449,-7.2516,0.5913,-0.2662,-0.2483,0.0822,-0.0058,-0.0294,-0.001,613,2019-08-07 16:44:24:736
-5.9114,-7.2659,0.6385,-0.3702,-0.2396,0.028,0.0038,-0.0379,0.0075,617,2019-08-07 16:44:24:740
-5.9114,-7.2659,0.6385,-0.3702,-0.2396,0.028,0.0038,-0.0379,0.0075,623,2019-08-07 16:44:24:746
-5.9545,-7.2134,0.6149,-0.3702,-0.2396,0.028,0.0123,-0.0358,0.015,628,2019-08-07 16:44:24:751
-5.9545,-7.2134,0.6149,-0.3702,-0.2396,0.028,0.0123,-0.0358,0.015,633,2019-08-07 16:44:24:756
-5.9545,-7.2134,0.6149,-0.3234,-0.3003,0.062,0.0123,-0.0358,0.015,637,2019-08-07 16:44:24:760
-5.9736,-7.1991,0.6008,-0.3234,-0.3003,0.062,0.0219,-0.0177,0.0225,643,2019-08-07 16:44:24:766
-5.9736,-7.1991,0.6008,-0.3234,-0.3003,0.062,0.0219,-0.0177,0.0225,649,2019-08-07 16:44:24:772
-5.9736,-7.1991,0.6008,-0.3234,-0.3003,0.062,0.0261,-0.0028,0.0246,652,2019-08-07 16:44:24:775
-6.0597,-7.1466,0.5772,-0.2267,-0.3541,0.099,0.0261,-0.0028,0.0246,658,2019-08-07 16:44:24:781
-6.0597,-7.1466,0.5772,-0.2267,-0.3541,0.099,0.0229,0.0122,0.0267,662,2019-08-07 16:44:24:785
-6.0597,-7.1466,0.5772,-0.2267,-0.3541,0.099,0.0229,0.0122,0.0267,668,2019-08-07 16:44:24:791
-6.1266,-7.1227,0.6149,-0.2267,-0.3541,0.099,0.0165,0.0228,0.0225,672,2019-08-07 16:44:24:795
-6.1266,-7.1227,0.6149,-0.1166,-0.3787,0.0427,0.0165,0.0228,0.0225,678,2019-08-07 16:44:24:801
-6.1745,-7.1275,0.6243,-0.1166,-0.3787,0.0427,0.0123,0.0228,0.0161,682,2019-08-07 16:44:24:805
-6.1745,-7.1275,0.6243,-0.1166,-0.3787,0.0427,0.0123,0.0228,0.0161,688,2019-08-07 16:44:24:811
-6.1745,-7.1275,0.6243,-0.1166,-0.3787,0.0427,0.0048,0.01,0.0097,694,2019-08-07 16:44:24:817
-6.141,-7.1418,0.6526,-0.1389,-0.3571,-0.0148,0.0048,0.01,0.0097,698,2019-08-07 16:44:24:821
-6.141,-7.1418,0.6526,-0.1389,-0.3571,-0.0148,0.0048,0.01,0.0097,702,2019-08-07 16:44:24:825
-6.117,-7.18,0.6668,-0.1389,-0.3571,-0.0148,-5.0E-4,-0.0102,0.0075,708,2019-08-07 16:44:24:831
-6.117,-7.18,0.6668,-0.1389,-0.3571,-0.0148,-5.0E-4,-0.0102,0.0075,712,2019-08-07 16:44:24:835
-6.117,-7.18,0.6668,-0.2694,-0.3225,-0.0227,-0.0037,-0.0209,0.0075,718,2019-08-07 16:44:24:841
-6.0213,-7.1704,0.6809,-0.2694,-0.3225,-0.0227,-0.0037,-0.0209,0.0075,723,2019-08-07 16:44:24:846
-6.0213,-7.1704,0.6809,-0.2694,-0.3225,-0.0227,-0.0058,-0.0283,0.0129,728,2019-08-07 16:44:24:851
-5.9161,-7.1752,0.6856,-0.2694,-0.3225,-0.0227,-0.0058,-0.0283,0.0129,733,2019-08-07 16:44:24:856
-5.9161,-7.1752,0.6856,-0.2694,-0.3225,-0.0227,-0.0058,-0.0283,0.0129,737,2019-08-07 16:44:24:860
-5.9161,-7.1752,0.6856,-0.4096,-0.3163,0.0368,-0.0069,-0.0273,0.0246,743,2019-08-07 16:44:24:866
-5.8921,-7.223,0.6102,-0.4096,-0.3163,0.0368,-0.0112,-0.007,0.0267,748,2019-08-07 16:44:24:871
-5.8921,-7.223,0.6102,-0.4096,-0.3163,0.0368,-0.0112,-0.007,0.0267,753,2019-08-07 16:44:24:876
-5.8969,-7.1991,0.6338,-0.403,-0.2899,0.0457,-0.009,0.0079,0.0331,758,2019-08-07 16:44:24:881
-5.8969,-7.1991,0.6338,-0.403,-0.2899,0.0457,-0.009,0.0079,0.0331,763,2019-08-07 16:44:24:886
-5.8969,-7.1991,0.6338,-0.403,-0.2899,0.0457,-0.0069,0.0175,0.0395,768,2019-08-07 16:44:24:891
-6.0022,-7.2612,0.6762,-0.403,-0.2899,0.0457,-0.0069,0.0175,0.0395,773,2019-08-07 16:44:24:896
-6.0022,-7.2612,0.6762,-0.2409,-0.324,0.0236,-0.009,0.0335,0.0342,778,2019-08-07 16:44:24:901
-6.0022,-7.2612,0.6762,-0.2409,-0.324,0.0236,-0.009,0.0335,0.0342,783,2019-08-07 16:44:24:906
-6.1122,-7.1418,0.6244,-0.2409,-0.324,0.0236,-0.009,0.0335,0.0342,788,2019-08-07 16:44:24:911
-6.1122,-7.1418,0.6244,-0.2409,-0.324,0.0236,-0.0144,0.0345,0.0384,793,2019-08-07 16:44:24:916
-6.1983,-7.1323,0.6197,-0.1039,-0.319,0.0124,-0.0197,0.0271,0.0299,799,2019-08-07 16:44:24:922
-6.1983,-7.1323,0.6197,-0.1039,-0.319,0.0124,-0.0197,0.0271,0.0299,802,2019-08-07 16:44:24:925
-6.1983,-7.1323,0.6197,-0.1039,-0.319,0.0124,-0.0197,0.0271,0.0299,808,2019-08-07 16:44:24:931
-6.3131,-7.1705,0.6291,-0.1039,-0.319,0.0124,-0.0186,0.0196,0.0235,812,2019-08-07 16:44:24:935
-6.3131,-7.1705,0.6291,-0.1039,-0.319,0.0124,-0.0186,0.0196,0.0235,818,2019-08-07 16:44:24:941
-6.3131,-7.1705,0.6291,-0.0324,-0.3057,0.0496,-0.0165,0.0015,0.0171,823,2019-08-07 16:44:24:946
-6.227,-7.1752,0.6244,-0.0324,-0.3057,0.0496,-0.0165,0.0015,0.0171,828,2019-08-07 16:44:24:951
-6.227,-7.1752,0.6244,-0.0324,-0.3057,0.0496,-0.0112,-0.0059,0.0161,833,2019-08-07 16:44:24:956
-6.1408,-7.18,0.6008,-0.0324,-0.3057,0.0496,-0.0112,-0.0059,0.0161,838,2019-08-07 16:44:24:961
-6.1408,-7.18,0.6008,-0.1838,-0.2794,0.0475,-0.0101,-0.0113,0.0139,844,2019-08-07 16:44:24:967
-6.1408,-7.18,0.6008,-0.1838,-0.2794,0.0475,-0.0101,-0.0113,0.0139,848,2019-08-07 16:44:24:971
-6.1217,-7.1848,0.6338,-0.1838,-0.2794,0.0475,-0.0101,-0.0113,0.0139,853,2019-08-07 16:44:24:976
-6.1217,-7.1848,0.6338,-0.1838,-0.2794,0.0475,-0.0037,-0.0134,0.0203,858,2019-08-07 16:44:24:981
-6.0451,-7.2182,0.681,-0.2486,-0.2533,0.0197,-0.0037,-0.0134,0.0203,863,2019-08-07 16:44:24:986
-6.0451,-7.2182,0.681,-0.2486,-0.2533,0.0197,0.0027,-0.0177,0.0246,867,2019-08-07 16:44:24:990
-6.0451,-7.2182,0.681,-0.2486,-0.2533,0.0197,0.0027,-0.0177,0.0246,873,2019-08-07 16:44:24:996
-6.0499,-7.2087,0.6857,-0.2486,-0.2533,0.0197,0.0069,-0.0187,0.0278,878,2019-08-07 16:44:25:001
-6.0499,-7.2087,0.6857,-0.252,-0.2645,0.0042,0.0069,-0.0187,0.0278,883,2019-08-07 16:44:25:006
-6.0499,-7.2087,0.6857,-0.252,-0.2645,0.0042,0.0112,-0.0209,0.031,888,2019-08-07 16:44:25:011
-6.0786,-7.1896,0.6385,-0.252,-0.2645,0.0042,0.0112,-0.0209,0.031,894,2019-08-07 16:44:25:017
-6.0786,-7.1896,0.6385,-0.252,-0.2645,0.0042,0.0069,-0.023,0.031,898,2019-08-07 16:44:25:021
-6.1216,-7.1752,0.6621,-0.2085,-0.3655,0.0038,0.0069,-0.023,0.031,903,2019-08-07 16:44:25:026
-6.1216,-7.1752,0.6621,-0.2085,-0.3655,0.0038,0.0069,-0.023,0.031,908,2019-08-07 16:44:25:031
-6.1216,-7.1752,0.6621,-0.2085,-0.3655,0.0038,6.0E-4,-0.0081,0.0267,913,2019-08-07 16:44:25:036
-6.1168,-7.1752,0.5914,-0.2085,-0.3655,0.0038,6.0E-4,-0.0081,0.0267,918,2019-08-07 16:44:25:041
-6.1168,-7.1752,0.5914,-0.2077,-0.2665,0.0285,-0.0037,0.0079,0.0203,923,2019-08-07 16:44:25:046
-6.1168,-7.1752,0.5914,-0.2077,-0.2665,0.0285,-0.0037,0.0079,0.0203,928,2019-08-07 16:44:25:051
-6.2077,-7.2325,0.6574,-0.2077,-0.2665,0.0285,-0.008,0.0164,0.0129,933,2019-08-07 16:44:25:056
-6.2077,-7.2325,0.6574,-0.2077,-0.2665,0.0285,-0.008,0.0164,0.0129,937,2019-08-07 16:44:25:060
-6.2316,-7.2421,0.6574,-0.105,-0.2168,0.0114,-0.008,0.0111,0.0022,943,2019-08-07 16:44:25:066
-6.2316,-7.2421,0.6574,-0.105,-0.2168,0.0114,-0.008,0.0111,0.0022,947,2019-08-07 16:44:25:070
-6.2316,-7.2421,0.6574,-0.105,-0.2168,0.0114,-0.009,-0.0038,0.0033,953,2019-08-07 16:44:25:076
-6.1838,-7.285,0.6904,-0.105,-0.2168,0.0114,-0.009,-0.0038,0.0033,957,2019-08-07 16:44:25:080
-6.1838,-7.285,0.6904,-0.2299,-0.1879,0.029,-0.0101,-0.0145,0.0012,963,2019-08-07 16:44:25:086
-6.1407,-7.2469,0.6904,-0.2299,-0.1879,0.029,-0.0101,-0.0145,0.0012,968,2019-08-07 16:44:25:091
-6.1407,-7.2469,0.6904,-0.2299,-0.1879,0.029,-0.0112,-0.0219,1.0E-4,973,2019-08-07 16:44:25:096
-6.1407,-7.2469,0.6904,-0.2299,-0.1879,0.029,-0.0112,-0.0219,1.0E-4,978,2019-08-07 16:44:25:101
-6.0402,-7.2516,0.7045,-0.2917,-0.2503,0.0395,-0.0133,-0.0315,0.0044,983,2019-08-07 16:44:25:106
-6.0402,-7.2516,0.7045,-0.2917,-0.2503,0.0395,-0.0133,-0.0315,0.0044,987,2019-08-07 16:44:25:110
-6.0402,-7.2612,0.6668,-0.2917,-0.2503,0.0395,-0.0133,-0.0315,0.0044,993,2019-08-07 16:44:25:116
-6.0402,-7.2612,0.6668,-0.2917,-0.2503,0.0395,-0.008,-0.0379,0.0075,998,2019-08-07 16:44:25:121
-6.0402,-7.2612,0.6668,-0.3492,-0.2261,0.0378,-0.008,-0.0379,0.0075,1003,2019-08-07 16:44:25:126
-5.978,-7.2516,0.5961,-0.3492,-0.2261,0.0378,-0.0016,-0.0219,0.0107,1007,2019-08-07 16:44:25:130
-5.978,-7.2516,0.5961,-0.3492,-0.2261,0.0378,-0.0016,-0.0219,0.0107,1013,2019-08-07 16:44:25:136
-6.0593,-7.1991,0.6338,-0.3492,-0.2261,0.0378,0.0027,-0.0091,0.0086,1017,2019-08-07 16:44:25:140
-6.0593,-7.1991,0.6338,-0.3023,-0.2681,0.1151,0.0027,-0.0091,0.0086,1023,2019-08-07 16:44:25:146
-6.0593,-7.1991,0.6338,-0.3023,-0.2681,0.1151,0.0038,0.009,0.0075,1028,2019-08-07 16:44:25:151
-6.1311,-7.18,0.5726,-0.3023,-0.2681,0.1151,0.0038,0.009,0.0075,1033,2019-08-07 16:44:25:156
-6.1311,-7.18,0.5726,-0.3023,-0.2681,0.1151,6.0E-4,0.0164,-0.001,1038,2019-08-07 16:44:25:161
-6.1311,-7.18,0.5726,-0.3023,-0.2681,0.1151,6.0E-4,0.0164,-0.001,1042,2019-08-07 16:44:25:165
-6.1837,-7.1944,0.5679,-0.1549,-0.2627,0.104,0.0027,0.0207,-0.0106,1048,2019-08-07 16:44:25:171
-6.1837,-7.1944,0.5679,-0.1549,-0.2627,0.104,0.0027,0.0207,-0.0106,1053,2019-08-07 16:44:25:176
-6.2459,-7.2134,0.6197,-0.1549,-0.2627,0.104,0.0027,0.0207,-0.0106,1058,2019-08-07 16:44:25:181
-6.2459,-7.2134,0.6197,-0.1256,-0.23,0.0552,0.0048,0.0058,-0.0159,1063,2019-08-07 16:44:25:186
-6.2267,-7.2134,0.6197,-0.1256,-0.23,0.0552,0.0048,0.0058,-0.0159,1068,2019-08-07 16:44:25:191
-6.2267,-7.2134,0.6197,-0.1256,-0.23,0.0552,0.0048,-0.0123,-0.0191,1073,2019-08-07 16:44:25:196
-6.2267,-7.2134,0.6197,-0.1256,-0.23,0.0552,0.0048,-0.0123,-0.0191,1078,2019-08-07 16:44:25:201
-6.1549,-7.2039,0.6339,-0.1993,-0.256,0.034,0.0048,-0.0273,-0.0233,1084,2019-08-07 16:44:25:207
-6.1549,-7.2039,0.6339,-0.1993,-0.256,0.034,0.0048,-0.0273,-0.0233,1087,2019-08-07 16:44:25:210
-6.1549,-7.2039,0.6339,-0.1993,-0.256,0.034,0.0048,-0.0273,-0.0233,1092,2019-08-07 16:44:25:215
-6.0544,-7.223,0.6716,-0.1993,-0.256,0.034,0.0091,-0.0422,-0.0191,1098,2019-08-07 16:44:25:221
-6.0544,-7.223,0.6716,-0.344,-0.2109,0.0448,0.0091,-0.0422,-0.0191,1103,2019-08-07 16:44:25:226
-5.9683,-7.2469,0.6056,-0.344,-0.2109,0.0448,0.0123,-0.0358,-0.0138,1108,2019-08-07 16:44:25:231
-5.9683,-7.2469,0.6056,-0.344,-0.2109,0.0448,0.0123,-0.0358,-0.0138,1113,2019-08-07 16:44:25:236
-5.9874,-7.1896,0.6433,-0.344,-0.2109,0.0448,0.0133,-0.023,-0.0042,1119,2019-08-07 16:44:25:242
-5.9874,-7.1896,0.6433,-0.344,-0.2109,0.0448,0.0133,-0.023,-0.0042,1123,2019-08-07 16:44:25:246
-5.9874,-7.1896,0.6433,-0.3508,-0.2079,-0.0015,0.0144,-0.0209,-0.0042,1128,2019-08-07 16:44:25:251
-5.9731,-7.2469,0.6527,-0.3508,-0.2079,-0.0015,0.0144,-0.0209,-0.0042,1134,2019-08-07 16:44:25:257
-5.9731,-7.2469,0.6527,-0.3508,-0.2079,-0.0015,0.0144,-0.0209,-0.0042,1138,2019-08-07 16:44:25:261
-5.9731,-7.2469,0.6527,-0.3508,-0.2079,-0.0015,0.0133,-0.007,1.0E-4,1143,2019-08-07 16:44:25:266
-5.9587,-7.266,0.582,-0.335,-0.2231,0.073,0.0133,-0.007,1.0E-4,1148,2019-08-07 16:44:25:271
-5.9587,-7.266,0.582,-0.335,-0.2231,0.073,0.0133,0.0036,1.0E-4,1154,2019-08-07 16:44:25:277
-5.9587,-7.266,0.582,-0.335,-0.2231,0.073,0.0133,0.0036,1.0E-4,1157,2019-08-07 16:44:25:280
-6.0783,-7.2469,0.6103,-0.335,-0.2231,0.073,0.0165,0.0228,-0.002,1163,2019-08-07 16:44:25:286
-6.0783,-7.2469,0.6103,-0.2435,-0.238,0.0873,0.0165,0.0228,-0.002,1169,2019-08-07 16:44:25:292
-6.0783,-7.2469,0.6103,-0.2435,-0.238,0.0873,0.0155,0.026,-0.0106,1173,2019-08-07 16:44:25:296
-6.1883,-7.2087,0.6433,-0.2435,-0.238,0.0873,0.0155,0.026,-0.0106,1177,2019-08-07 16:44:25:300
-6.1883,-7.2087,0.6433,-0.2435,-0.238,0.0873,0.0133,0.0164,-0.0106,1183,2019-08-07 16:44:25:306
-6.1548,-7.2087,0.6952,-0.1754,-0.2294,0.0017,0.0133,0.0164,-0.0106,1188,2019-08-07 16:44:25:311
-6.1548,-7.2087,0.6952,-0.1754,-0.2294,0.0017,0.0133,0.0164,-0.0106,1193,2019-08-07 16:44:25:316
-6.1548,-7.2087,0.6952,-0.1754,-0.2294,0.0017,0.0165,-0.0049,-0.0116,1198,2019-08-07 16:44:25:321
-6.1452,-7.1562,0.714,-0.1754,-0.2294,0.0017,0.0165,-0.0049,-0.0116,1203,2019-08-07 16:44:25:326
-6.1452,-7.1562,0.714,-0.2549,-0.3261,0.0054,0.0219,-0.0294,-0.0095,1208,2019-08-07 16:44:25:331
-6.0687,-7.1562,0.7093,-0.2549,-0.3261,0.0054,0.0219,-0.0294,-0.0095,1213,2019-08-07 16:44:25:336
-6.0687,-7.1562,0.7093,-0.2549,-0.3261,0.0054,0.0197,-0.0368,-0.0063,1219,2019-08-07 16:44:25:342
-6.0687,-7.1562,0.7093,-0.2549,-0.3261,0.0054,0.0197,-0.0368,-0.0063,1222,2019-08-07 16:44:25:345
-6.0113,-7.1371,0.6905,-0.311,-0.3312,0.0092,0.0219,-0.0454,0.0012,1228,2019-08-07 16:44:25:351
-6.0113,-7.1371,0.6905,-0.311,-0.3312,0.0092,0.0219,-0.0454,0.0012,1234,2019-08-07 16:44:25:357
-5.9825,-7.161,0.6339,-0.311,-0.3312,0.0092,0.0219,-0.0368,0.0054,1238,2019-08-07 16:44:25:361
-5.9825,-7.161,0.6339,-0.311,-0.3312,0.0092,0.0219,-0.0368,0.0054,1243,2019-08-07 16:44:25:366
-5.9825,-7.161,0.6339,-0.3351,-0.3781,0.1021,0.0187,-0.0305,0.0107,1248,2019-08-07 16:44:25:371
-5.9825,-7.0607,0.6056,-0.3351,-0.3781,0.1021,0.0187,-0.0305,0.0107,1253,2019-08-07 16:44:25:376
-5.9825,-7.0607,0.6056,-0.3351,-0.3781,0.1021,0.0176,-0.0113,0.0097,1257,2019-08-07 16:44:25:380
-5.9825,-7.0607,0.6056,-0.3351,-0.3781,0.1021,0.0176,-0.0113,0.0097,1263,2019-08-07 16:44:25:386
-6.0351,-7.0798,0.6339,-0.3033,-0.3907,0.082,0.008,0.0143,0.0107,1268,2019-08-07 16:44:25:391
-6.0351,-7.0798,0.6339,-0.3033,-0.3907,0.082,0.008,0.0143,0.0107,1273,2019-08-07 16:44:25:396
-6.0877,-7.0846,0.6103,-0.3033,-0.3907,0.082,0.0027,0.0324,0.0097,1278,2019-08-07 16:44:25:401
-6.0877,-7.0846,0.6103,-0.3033,-0.3907,0.082,0.0027,0.0324,0.0097,1283,2019-08-07 16:44:25:406
-6.0877,-7.0846,0.6103,-0.1331,-0.3654,0.0691,-0.0026,0.0356,0.0097,1288,2019-08-07 16:44:25:411
-6.1404,-7.1371,0.6669,-0.1331,-0.3654,0.0691,-0.0026,0.0356,0.0097,1294,2019-08-07 16:44:25:417
-6.1404,-7.1371,0.6669,-0.1331,-0.3654,0.0691,-0.0026,0.0356,0.0097,1298,2019-08-07 16:44:25:421
-6.1404,-7.1371,0.6669,-0.1331,-0.3654,0.0691,-0.0016,0.0186,0.0065,1303,2019-08-07 16:44:25:426
-6.1547,-7.1419,0.7046,-0.145,-0.3208,-0.0099,-0.0016,0.0186,0.0065,1308,2019-08-07 16:44:25:431
-6.1547,-7.1419,0.7046,-0.145,-0.3208,-0.0099,-0.0058,-0.0049,0.0118,1313,2019-08-07 16:44:25:436
-6.126,-7.1657,0.6763,-0.145,-0.3208,-0.0099,-0.0058,-0.0049,0.0118,1318,2019-08-07 16:44:25:441
-6.126,-7.1657,0.6763,-0.145,-0.3208,-0.0099,-5.0E-4,-0.0305,0.015,1324,2019-08-07 16:44:25:447
-6.126,-7.1657,0.6763,-0.2763,-0.3188,0.0251,-5.0E-4,-0.0305,0.015,1327,2019-08-07 16:44:25:450
-6.0877,-7.0846,0.6716,-0.2763,-0.3188,0.0251,-5.0E-4,-0.0305,0.015,1333,2019-08-07 16:44:25:456
-6.0877,-7.0846,0.6716,-0.2763,-0.3188,0.0251,-0.0037,-0.039,0.015,1338,2019-08-07 16:44:25:461
-6.0494,-7.161,0.6528,-0.2763,-0.3188,0.0251,-0.0037,-0.039,0.015,1343,2019-08-07 16:44:25:466
-6.0494,-7.161,0.6528,-0.2831,-0.2785,0.067,-0.0026,-0.0368,0.0182,1348,2019-08-07 16:44:25:471
-6.0494,-7.161,0.6528,-0.2831,-0.2785,0.067,-0.0026,-0.0368,0.0182,1353,2019-08-07 16:44:25:476
-6.0063,-7.1657,0.6292,-0.2831,-0.2785,0.067,-5.0E-4,-0.0177,0.0171,1358,2019-08-07 16:44:25:481
-6.0063,-7.1657,0.6292,-0.2831,-0.2785,0.067,-5.0E-4,-0.0177,0.0171,1363,2019-08-07 16:44:25:486
-6.1068,-7.2087,0.6386,-0.2277,-0.2481,0.0735,-5.0E-4,-0.0177,0.0171,1367,2019-08-07 16:44:25:490
-6.1068,-7.2087,0.6386,-0.2277,-0.2481,0.0735,6.0E-4,0.0058,0.0107,1373,2019-08-07 16:44:25:496
-6.1068,-7.2087,0.6386,-0.2277,-0.2481,0.0735,6.0E-4,0.0058,0.0107,1378,2019-08-07 16:44:25:501
-6.0841,-7.2611,0.6007,-0.2277,-0.2481,0.0735,-0.0016,0.0271,0.0086,1383,2019-08-07 16:44:25:506
-6.0841,-7.2611,0.6007,-0.1898,-0.2328,0.1227,-0.0016,0.0271,0.0086,1388,2019-08-07 16:44:25:511
-6.0841,-7.2611,0.6007,-0.1898,-0.2328,0.1227,-0.0016,0.0271,0.0086,1393,2019-08-07 16:44:25:516
-6.1702,-7.2372,0.6478,-0.1898,-0.2328,0.1227,-0.0058,0.0377,0.0022,1399,2019-08-07 16:44:25:522
-6.1702,-7.2372,0.6478,-0.1898,-0.2328,0.1227,-0.0058,0.0377,0.0022,1403,2019-08-07 16:44:25:526
-6.175,-7.2134,0.7044,-0.1619,-0.2421,0.0,-0.0016,0.0217,1.0E-4,1408,2019-08-07 16:44:25:531
-6.175,-7.2134,0.7044,-0.1619,-0.2421,0.0,-0.0016,0.0217,1.0E-4,1413,2019-08-07 16:44:25:536
-6.1702,-7.2229,0.7374,-0.1619,-0.2421,0.0,0.0016,0.0047,0.0012,1419,2019-08-07 16:44:25:542
-6.1702,-7.2229,0.7374,-0.1619,-0.2421,0.0,0.0016,0.0047,0.0012,1423,2019-08-07 16:44:25:546
-6.1702,-7.2229,0.7374,-0.1954,-0.2754,-0.0326,0.0027,-0.0145,-0.001,1428,2019-08-07 16:44:25:551
-6.1463,-7.1799,0.7232,-0.1954,-0.2754,-0.0326,0.0027,-0.0145,-0.001,1433,2019-08-07 16:44:25:556
-6.1463,-7.1799,0.7232,-0.1954,-0.2754,-0.0326,0.0048,-0.0432,0.0012,1438,2019-08-07 16:44:25:561
-6.1463,-7.1799,0.7232,-0.1954,-0.2754,-0.0326,0.0048,-0.0432,0.0012,1443,2019-08-07 16:44:25:566
-6.0937,-7.2325,0.7185,-0.1954,-0.2754,-0.0326,0.0048,-0.0432,0.0012,1448,2019-08-07 16:44:25:571
-6.0937,-7.2325,0.7185,-0.2619,-0.2658,0.0439,0.0091,-0.0486,0.0012,1453,2019-08-07 16:44:25:576
-6.0411,-7.2038,0.6619,-0.2619,-0.2658,0.0439,0.0091,-0.0486,0.0012,1458,2019-08-07 16:44:25:581
-6.0411,-7.2038,0.6619,-0.3091,-0.2373,0.0568,0.0101,-0.0358,-0.002,1463,2019-08-07 16:44:25:586
-6.0411,-7.2038,0.6619,-0.3091,-0.2373,0.0568,0.0101,-0.0358,-0.002,1468,2019-08-07 16:44:25:591
-6.0315,-7.1656,0.6855,-0.3091,-0.2373,0.0568,0.0112,-0.0198,-0.0042,1473,2019-08-07 16:44:25:596
-6.0315,-7.1656,0.6855,-0.3091,-0.2373,0.0568,0.0112,-0.0198,-0.0042,1478,2019-08-07 16:44:25:601
-6.0458,-7.2038,0.6667,-0.303,-0.2571,0.0566,0.0112,-0.0081,-0.0116,1483,2019-08-07 16:44:25:606
-6.0458,-7.2038,0.6667,-0.303,-0.2571,0.0566,0.0112,-0.0081,-0.0116,1488,2019-08-07 16:44:25:611
-6.0458,-7.2038,0.6667,-0.303,-0.2571,0.0566,0.0112,-0.0081,-0.0116,1493,2019-08-07 16:44:25:616
-6.0411,-7.1179,0.6714,-0.303,-0.2571,0.0566,0.0123,0.0047,-0.0138,1498,2019-08-07 16:44:25:621
-6.0411,-7.1179,0.6714,-0.2532,-0.354,0.0161,0.0123,0.0047,-0.0138,1503,2019-08-07 16:44:25:626
-6.0554,-7.1131,0.6572,-0.2532,-0.354,0.0161,0.0059,0.0026,-0.0095,1508,2019-08-07 16:44:25:631
-6.0554,-7.1131,0.6572,-0.2956,-0.3498,0.0588,0.0059,0.0026,-0.0095,1513,2019-08-07 16:44:25:636
-6.0554,-7.1131,0.6572,-0.2956,-0.3498,0.0588,0.0016,-0.0081,1.0E-4,1518,2019-08-07 16:44:25:641
-6.0076,-7.1322,0.7327,-0.2956,-0.3498,0.0588,0.0016,-0.0081,1.0E-4,1522,2019-08-07 16:44:25:645
-6.0076,-7.1322,0.7327,-0.2956,-0.3498,0.0588,-0.0026,-0.0262,0.015,1528,2019-08-07 16:44:25:651
-6.0076,-7.1322,0.7327,-0.3482,-0.3592,0.0279,-0.0026,-0.0262,0.015,1534,2019-08-07 16:44:25:657
-5.9358,-7.0988,0.7185,-0.3482,-0.3592,0.0279,-0.0026,-0.0262,0.015,1537,2019-08-07 16:44:25:660
-5.9358,-7.0988,0.7185,-0.3482,-0.3592,0.0279,-0.0037,-0.0336,0.0299,1543,2019-08-07 16:44:25:666
-5.9214,-7.0749,0.6997,-0.3482,-0.3592,0.0279,-0.0037,-0.0336,0.0299,1548,2019-08-07 16:44:25:671
-5.9214,-7.0749,0.6997,-0.4231,-0.3609,0.0179,-0.0069,-0.0411,0.0416,1553,2019-08-07 16:44:25:676
-5.9214,-7.0749,0.6997,-0.4231,-0.3609,0.0179,-0.0069,-0.0411,0.0416,1557,2019-08-07 16:44:25:680
-5.8688,-7.0272,0.6619,-0.4231,-0.3609,0.0179,-0.008,-0.0326,0.0555,1563,2019-08-07 16:44:25:686
-5.8688,-7.0272,0.6619,-0.4231,-0.3609,0.0179,-0.008,-0.0326,0.0555,1568,2019-08-07 16:44:25:691
-5.9023,-6.9842,0.7185,-0.4204,-0.4645,0.0679,-0.0112,-0.023,0.0683,1573,2019-08-07 16:44:25:696
-5.9023,-6.9842,0.7185,-0.4204,-0.4645,0.0679,-0.0112,-0.023,0.0683,1577,2019-08-07 16:44:25:700
-5.9023,-6.9842,0.7185,-0.3632,-0.4746,0.1016,-0.0133,-0.0219,0.0757,1583,2019-08-07 16:44:25:706
-5.9645,-6.9651,0.6525,-0.3632,-0.4746,0.1016,-0.0133,-0.0219,0.0757,1588,2019-08-07 16:44:25:711
-5.9645,-6.9651,0.6525,-0.3632,-0.4746,0.1016,-0.0133,-0.0219,0.0757,1593,2019-08-07 16:44:25:716
-5.9645,-6.9651,0.6525,-0.3632,-0.4746,0.1016,-0.0197,-0.0209,0.0992,1598,2019-08-07 16:44:25:721
-5.9501,-6.884,0.6761,-0.3625,-0.525,0.078,-0.0197,-0.0209,0.0992,1603,2019-08-07 16:44:25:726
-5.9501,-6.884,0.6761,-0.3625,-0.525,0.078,-0.0144,-0.0177,0.1151,1608,2019-08-07 16:44:25:731
-5.931,-6.8458,0.6855,-0.3625,-0.525,0.078,-0.0144,-0.0177,0.1151,1613,2019-08-07 16:44:25:736
-5.931,-6.8458,0.6855,-0.3625,-0.525,0.078,-0.0058,-0.0166,0.1354,1619,2019-08-07 16:44:25:742
-5.931,-6.8458,0.6855,-0.4432,-0.614,-0.006,-0.0058,-0.0166,0.1354,1623,2019-08-07 16:44:25:746
-5.8784,-6.7646,0.6431,-0.4432,-0.614,-0.006,-0.0048,-0.0134,0.1567,1628,2019-08-07 16:44:25:751
-5.8784,-6.7646,0.6431,-0.4432,-0.614,-0.006,-0.0048,-0.0134,0.1567,1634,2019-08-07 16:44:25:757
-5.8784,-6.7646,0.6431,-0.4432,-0.614,-0.006,-0.0048,-0.0134,0.1567,1638,2019-08-07 16:44:25:761
-5.8305,-6.6214,0.4498,-0.5741,-0.7733,0.2822,-0.0016,-0.0113,0.1929,1643,2019-08-07 16:44:25:766
-5.8305,-6.6214,0.4498,-0.5741,-0.7733,0.2822,0.0091,-0.0028,0.244,1648,2019-08-07 16:44:25:771
-5.8305,-6.1488,0.6855,-0.5741,-0.7733,0.2822,0.0091,-0.0028,0.244,1653,2019-08-07 16:44:25:776
-5.6918,-6.1488,0.6855,-0.5741,-0.7733,0.2822,0.0091,-0.0028,0.244,1658,2019-08-07 16:44:25:781
-5.6918,-6.1488,0.6855,-0.9347,-1.5687,0.0358,0.0485,-0.0091,0.3303,1663,2019-08-07 16:44:25:786
-5.3282,-5.447,0.6242,-0.9347,-1.5687,0.0358,0.0485,-0.0091,0.3303,1669,2019-08-07 16:44:25:792
-5.3282,-5.447,0.6242,-0.9347,-1.5687,0.0358,0.0868,-0.0081,0.5104,1673,2019-08-07 16:44:25:796
-5.3282,-5.447,0.6242,-0.9347,-1.5687,0.0358,0.0868,-0.0081,0.5104,1678,2019-08-07 16:44:25:801
-4.8593,-4.7644,0.7657,-1.739,-2.5921,-0.0576,0.0986,0.0026,0.7117,1683,2019-08-07 16:44:25:806
-4.8593,-4.7644,0.7657,-1.739,-2.5921,-0.0576,0.0986,0.0026,0.7117,1687,2019-08-07 16:44:25:810
-4.8593,-4.7644,0.7657,-1.739,-2.5921,-0.0576,0.0986,0.0026,0.7117,1693,2019-08-07 16:44:25:816
-4.2756,-4.3586,1.105,-2.3062,-2.8758,-0.3441,0.1082,-0.0145,0.9482,1698,2019-08-07 16:44:25:821
-4.2756,-4.3586,1.105,-2.3062,-2.8758,-0.3441,0.1082,-0.0145,0.9482,1702,2019-08-07 16:44:25:825
-3.5149,-4.0244,1.5623,-2.3062,-2.8758,-0.3441,0.1603,-0.0858,1.2901,1708,2019-08-07 16:44:25:831
-3.5149,-4.0244,1.5623,-3.5182,-3.2338,-0.7577,0.1603,-0.0858,1.2901,1713,2019-08-07 16:44:25:836
-3.5149,-4.0244,1.5623,-3.5182,-3.2338,-0.7577,0.204,-0.1508,1.5714,1718,2019-08-07 16:44:25:841
-2.9073,-3.3752,1.1239,-3.5182,-3.2338,-0.7577,0.204,-0.1508,1.5714,1722,2019-08-07 16:44:25:845
-2.9073,-3.3752,1.1239,-3.5182,-3.2338,-0.7577,0.204,-0.1508,1.5714,1728,2019-08-07 16:44:25:851
-2.0892,-2.2343,0.2848,-4.9024,-4.5922,0.5825,0.2136,-0.1817,1.9442,1733,2019-08-07 16:44:25:856
-2.0892,-2.2343,0.2848,-4.9024,-4.5922,0.5825,0.2136,-0.1817,1.9442,1737,2019-08-07 16:44:25:860
-2.0892,-2.2343,0.2848,-4.9024,-4.5922,0.5825,0.2594,-0.1029,2.3735,1743,2019-08-07 16:44:25:866
-0.8645,-1.3511,-0.804,-4.9024,-4.5922,0.5825,0.2594,-0.1029,2.3735,1748,2019-08-07 16:44:25:871
-0.8645,-1.3511,-0.804,-7.2142,-5.4391,1.933,0.3478,0.1038,2.7644,1753,2019-08-07 16:44:25:876
-0.8645,-1.3511,-0.804,-7.2142,-5.4391,1.933,0.3478,0.1038,2.7644,1758,2019-08-07 16:44:25:881
0.4034,-0.826,-1.1246,-7.2142,-5.4391,1.933,0.4735,0.3978,3.1852,1763,2019-08-07 16:44:25:886
0.4034,-0.826,-1.1246,-7.9877,-5.5047,1.9791,0.4735,0.3978,3.1852,1768,2019-08-07 16:44:25:891
0.4034,-0.826,-1.1246,-7.9877,-5.5047,1.9791,0.6323,0.8569,3.8063,1773,2019-08-07 16:44:25:896
0.6139,-0.32,-0.1724,-7.9877,-5.5047,1.9791,0.6323,0.8569,3.8063,1778,2019-08-07 16:44:25:901
0.6139,-0.32,-0.1724,-7.9877,-5.5047,1.9791,0.6323,0.8569,3.8063,1783,2019-08-07 16:44:25:906
0.6139,-0.32,-0.1724,-8.4624,-5.6748,-0.1009,0.7122,1.0188,4.406,1788,2019-08-07 16:44:25:911
-0.3765,0.3627,2.1609,-8.4624,-5.6748,-0.1009,0.7122,1.0188,4.406,1793,2019-08-07 16:44:25:916
-0.3765,0.3627,2.1609,-8.4624,-5.6748,-0.1009,0.7377,0.7035,5.0952,1797,2019-08-07 16:44:25:920
-2.271,0.3579,2.2458,-5.7703,-5.2596,-1.5742,0.7377,0.7035,5.0952,1803,2019-08-07 16:44:25:926
-2.271,0.3579,2.2458,-5.7703,-5.2596,-1.5742,0.7175,0.3211,5.6684,1808,2019-08-07 16:44:25:931
-2.271,0.3579,2.2458,-5.7703,-5.2596,-1.5742,0.7175,0.3211,5.6684,1813,2019-08-07 16:44:25:936
-5.3042,0.2338,2.6983,-5.7703,-5.2596,-1.5742,0.5886,-0.8198,6.5717,1818,2019-08-07 16:44:25:941
-5.3042,0.2338,2.6983,-5.7703,-5.2596,-1.5742,0.5886,-0.8198,6.5717,1823,2019-08-07 16:44:25:946
-7.017,-0.0717,2.3919,-2.3374,-3.6754,-1.2508,0.53,-2.4965,7.5145,1828,2019-08-07 16:44:25:951
-7.017,-0.0717,2.3919,-2.3374,-3.6754,-1.2508,0.53,-2.4965,7.5145,1833,2019-08-07 16:44:25:956
-7.017,-0.0717,2.3919,-2.3374,-3.6754,-1.2508,0.7122,-4.2052,8.2569,1837,2019-08-07 16:44:25:960
-6.7969,-1.0504,0.9448,-2.3374,-3.6754,-1.2508,0.7122,-4.2052,8.2569,1843,2019-08-07 16:44:25:966
-6.7969,-1.0504,0.9448,-3.6171,-0.5553,1.6504,0.7122,-4.2052,8.2569,1848,2019-08-07 16:44:25:971
-4.6536,-2.0338,-0.5118,-3.6171,-0.5553,1.6504,1.2725,-6.1525,8.9345,1853,2019-08-07 16:44:25:976
-4.6536,-2.0338,-0.5118,-3.6171,-0.5553,1.6504,1.2725,-6.1525,8.9345,1858,2019-08-07 16:44:25:981
-4.6536,-2.0338,-0.5118,-3.6171,-0.5553,1.6504,2.2206,-7.1272,9.3094,1863,2019-08-07 16:44:25:986
0.2455,-4.1581,-3.4202,-9.5853,3.8319,6.4033,2.2206,-7.1272,9.3094,1868,2019-08-07 16:44:25:991
0.2455,-4.1581,-3.4202,-9.5853,3.8319,6.4033,3.272,-6.6415,9.2775,1873,2019-08-07 16:44:25:996
3.5323,-4.5162,-3.1044,-9.5853,3.8319,6.4033,3.272,-6.6415,9.2775,1878,2019-08-07 16:44:26:001
3.5323,-4.5162,-3.1044,-9.5853,3.8319,6.4033,4.3607,-5.8713,9.1954,1883,2019-08-07 16:44:26:006
3.5323,-4.5162,-3.1044,-12.2764,5.1728,7.3989,4.3607,-5.8713,9.1954,1888,2019-08-07 16:44:26:011
2.7955,-2.5732,-2.7744,-12.2764,5.1728,7.3989,4.3607,-5.8713,9.1954,1892,2019-08-07 16:44:26:015
2.7955,-2.5732,-2.7744,-12.2764,5.1728,7.3989,5.427,-4.9189,9.2903,1898,2019-08-07 16:44:26:021
-0.3669,0.1144,0.8647,-12.2764,5.1728,7.3989,5.427,-4.9189,9.2903,1903,2019-08-07 16:44:26:026
-0.3669,0.1144,0.8647,-6.8656,3.0461,2.9293,6.766,-4.3299,9.6737,1907,2019-08-07 16:44:26:030
-0.3669,0.1144,0.8647,-6.8656,3.0461,2.9293,6.766,-4.3299,9.6737,1913,2019-08-07 16:44:26:036
-3.424,3.2795,3.132,-6.8656,3.0461,2.9293,7.7024,-4.854,9.9773,1918,2019-08-07 16:44:26:041
-3.424,3.2795,3.132,-6.8656,3.0461,2.9293,7.7024,-4.854,9.9773,1923,2019-08-07 16:44:26:046
-3.7637,8.2061,0.8882,-2.6617,-2.3856,3.7023,8.6675,-5.2034,10.0327,1927,2019-08-07 16:44:26:050
-3.7637,8.2061,0.8882,-2.6617,-2.3856,3.7023,8.6675,-5.2034,10.0327,1933,2019-08-07 16:44:26:056
-3.7637,8.2061,0.8882,-2.6617,-2.3856,3.7023,9.9682,-4.4374,9.4724,1938,2019-08-07 16:44:26:061
0.2694,25.8215,9.1327,-2.6617,-2.3856,3.7023,9.9682,-4.4374,9.4724,1943,2019-08-07 16:44:26:066
0.2694,25.8215,9.1327,-6.4798,-26.0248,-6.6876,9.9682,-4.4374,9.4724,1947,2019-08-07 16:44:26:070
3.494,47.5901,9.967,-6.4798,-26.0248,-6.6876,10.8439,-3.8782,8.7065,1953,2019-08-07 16:44:26:076
3.494,47.5901,9.967,-6.4798,-26.0248,-6.6876,10.8439,-3.8782,8.7065,1958,2019-08-07 16:44:26:081
3.494,47.5901,9.967,-6.4798,-26.0248,-6.6876,10.4391,-0.6813,6.9776,1963,2019-08-07 16:44:26:086
-6.682,52.7458,-11.2734,3.5592,-43.6914,13.3949,10.4391,-0.6813,6.9776,1968,2019-08-07 16:44:26:091
-6.682,52.7458,-11.2734,3.5592,-43.6914,13.3949,5.9213,4.3041,5.6044,1974,2019-08-07 16:44:26:097
-6.682,52.7458,-11.2734,3.5592,-43.6914,13.3949,5.9213,4.3041,5.6044,1979,2019-08-07 16:44:26:102
-14.7913,37.8038,-32.3441,3.5592,-43.6914,13.3949,1.526,5.8828,4.9802,1983,2019-08-07 16:44:26:106
-14.7913,37.8038,-32.3441,7.3208,-18.0608,31.9804,1.526,5.8828,4.9802,1988,2019-08-07 16:44:26:111
-14.7913,37.8038,-32.3441,7.3208,-18.0608,31.9804,1.526,5.8828,4.9802,1993,2019-08-07 16:44:26:116
-5.486,20.4127,-17.9811,7.3208,-18.0608,31.9804,-5.2075,5.4418,2.6856,1997,2019-08-07 16:44:26:120
-5.486,20.4127,-17.9811,7.3208,-18.0608,31.9804,-5.2075,5.4418,2.6856,2004,2019-08-07 16:44:26:127
-5.486,20.4127,-17.9811,17.4584,-2.1843,-14.4969,-8.3362,7.1505,-0.2034,2007,2019-08-07 16:44:26:130
-19.5803,14.0301,64.1428,17.4584,-2.1843,-14.4969,-8.3362,7.1505,-0.2034,2013,2019-08-07 16:44:26:136
-19.5803,14.0301,64.1428,17.4584,-2.1843,-14.4969,-8.3362,7.1505,-0.2034,2019,2019-08-07 16:44:26:142
-20.0588,9.0845,33.4936,15.5993,1.3956,-42.1302,-3.7769,10.5423,-1.1717,2023,2019-08-07 16:44:26:146
-20.0588,9.0845,33.4936,15.5993,1.3956,-42.1302,-3.7769,10.5423,-1.1717,2027,2019-08-07 16:44:26:150
-20.0588,9.0845,33.4936,15.5993,1.3956,-42.1302,3.681,6.8789,-2.8388,2033,2019-08-07 16:44:26:156
-20.1927,7.3659,23.9529,17.9341,1.0963,-15.4948,3.681,6.8789,-2.8388,2038,2019-08-07 16:44:26:161
-20.1927,7.3659,23.9529,17.9341,1.0963,-15.4948,3.681,6.8789,-2.8388,2043,2019-08-07 16:44:26:166
-24.0297,16.1449,-4.6788,17.9341,1.0963,-15.4948,3.7098,0.5128,-5.1206,2048,2019-08-07 16:44:26:171
-24.0297,16.1449,-4.6788,17.9341,1.0963,-15.4948,3.7098,0.5128,-5.1206,2053,2019-08-07 16:44:26:176
-24.0297,16.1449,-4.6788,19.2971,-17.4764,5.9462,-1.2863,-1.2353,-6.6919,2058,2019-08-07 16:44:26:181
-22.3983,28.1654,-2.5481,19.2971,-17.4764,5.9462,-1.2863,-1.2353,-6.6919,2063,2019-08-07 16:44:26:186
-22.3983,28.1654,-2.5481,19.2971,-17.4764,5.9462,-4.0687,-2.553,-6.3499,2068,2019-08-07 16:44:26:191
-22.3983,28.1654,-2.5481,19.2971,-17.4764,5.9462,-4.0687,-2.553,-6.3499,2073,2019-08-07 16:44:26:196
-12.0308,28.4089,4.4943,5.6183,-18.7951,-2.5311,-5.1628,-1.5506,-6.53,2078,2019-08-07 16:44:26:201
-12.0308,28.4089,4.4943,5.6183,-18.7951,-2.5311,-5.1628,-1.5506,-6.53,2084,2019-08-07 16:44:26:207
-7.5719,20.1502,18.0795,5.6183,-18.7951,-2.5311,-4.3755,0.9208,-7.3034,2087,2019-08-07 16:44:26:210
-7.5719,20.1502,18.0795,5.6183,-18.7951,-2.5311,-4.3755,0.9208,-7.3034,2093,2019-08-07 16:44:26:216
-7.5719,20.1502,18.0795,5.6183,-18.7951,-2.5311,-3.3081,1.1754,-7.6996,2098,2019-08-07 16:44:26:221
-11.471,12.66,8.3926,5.2374,-5.5002,-5.9199,-3.3081,1.1754,-7.6996,2103,2019-08-07 16:44:26:226
-11.471,12.66,8.3926,5.2374,-5.5002,-5.9199,-3.0472,2.2023,-7.8147,2108,2019-08-07 16:44:26:231
-12.0404,9.9867,3.1461,5.2374,-5.5002,-5.9199,-3.0472,2.2023,-7.8147,2113,2019-08-07 16:44:26:236
-12.0404,9.9867,3.1461,4.2478,-3.6463,-0.3621,-3.2687,2.3792,-7.9244,2118,2019-08-07 16:44:26:241
-12.0404,9.9867,3.1461,4.2478,-3.6463,-0.3621,-3.2687,2.3792,-7.9244,2123,2019-08-07 16:44:26:246
-11.849,8.6309,2.5145,4.2478,-3.6463,-0.3621,-3.4775,2.3664,-8.0831,2128,2019-08-07 16:44:26:251
-11.849,8.6309,2.5145,4.2478,-3.6463,-0.3621,-3.4775,2.3664,-8.0831,2134,2019-08-07 16:44:26:257
-11.849,8.6309,2.5145,4.1659,-1.9286,-1.9435,-3.6682,2.2588,-8.1694,2138,2019-08-07 16:44:26:261
-12.4805,5.886,5.2626,4.1659,-1.9286,-1.9435,-3.6682,2.2588,-8.1694,2143,2019-08-07 16:44:26:266
-12.4805,5.886,5.2626,4.1659,-1.9286,-1.9435,-3.6682,2.2588,-8.1694,2148,2019-08-07 16:44:26:271
-11.7629,4.0099,7.5677,4.1659,-1.9286,-1.9435,-3.5659,1.6175,-8.0331,2152,2019-08-07 16:44:26:275
-11.7629,4.0099,7.5677,4.1659,-1.9286,-1.9435,-3.5659,1.6175,-8.0331,2158,2019-08-07 16:44:26:281
-11.7629,4.0099,7.5677,2.077,-0.8131,-5.2066,-3.1867,0.7781,-7.7987,2163,2019-08-07 16:44:26:286
-10.0118,3.3177,6.7994,2.077,-0.8131,-5.2066,-3.1867,0.7781,-7.7987,2168,2019-08-07 16:44:26:291
-10.0118,3.3177,6.7994,2.077,-0.8131,-5.2066,-2.6168,-0.2627,-7.51,2172,2019-08-07 16:44:26:295
-10.0118,3.3177,6.7994,2.077,-0.8131,-5.2066,-2.6168,-0.2627,-7.51,2178,2019-08-07 16:44:26:301
-7.6915,3.9478,3.5421,-1.6549,-2.6777,-0.8461,-2.4453,-1.0318,-7.298,2184,2019-08-07 16:44:26:307
-7.6915,3.9478,3.5421,-1.6549,-2.6777,-0.8461,-2.4453,-1.0318,-7.298,2188,2019-08-07 16:44:26:311
-7.6915,3.9478,3.5421,-1.6549,-2.6777,-0.8461,-2.4453,-1.0318,-7.298,2193,2019-08-07 16:44:26:316
-4.4765,4.9933,0.8364,-1.6549,-2.6777,-0.8461,-2.4229,-1.6209,-7.0679,2198,2019-08-07 16:44:26:321
-4.4765,4.9933,0.8364,-5.913,-5.3599,2.8211,-2.4229,-1.6209,-7.0679,2203,2019-08-07 16:44:26:326
-2.2327,5.0553,-1.3225,-5.913,-5.3599,2.8211,-2.3782,-1.5783,-6.8943,2208,2019-08-07 16:44:26:331
-2.2327,5.0553,-1.3225,-7.5399,-5.8739,4.3301,-2.3782,-1.5783,-6.8943,2213,2019-08-07 16:44:26:336
-2.2327,5.0553,-1.3225,-7.5399,-5.8739,4.3301,-2.1971,-0.9945,-6.7185,2218,2019-08-07 16:44:26:341
-0.3237,4.2295,-1.0539,-7.5399,-5.8739,4.3301,-2.1971,-0.9945,-6.7185,2222,2019-08-07 16:44:26:345
-0.3237,4.2295,-1.0539,-7.5399,-5.8739,4.3301,-2.0053,-0.4651,-6.432,2228,2019-08-07 16:44:26:351
0.2791,2.4632,-1.4828,-9.26,-5.0787,4.7204,-2.0053,-0.4651,-6.432,2233,2019-08-07 16:44:26:356
0.2791,2.4632,-1.4828,-9.26,-5.0787,4.7204,-2.0053,-0.4651,-6.432,2238,2019-08-07 16:44:26:361
0.2791,2.4632,-1.4828,-9.26,-5.0787,4.7204,-1.8061,0.1858,-6.1316,2243,2019-08-07 16:44:26:366
0.2025,0.5345,-1.5299,-9.26,-5.0787,4.7204,-1.8061,0.1858,-6.1316,2248,2019-08-07 16:44:26:371
0.2025,0.5345,-1.5299,-8.6598,-3.166,4.3265,-1.5909,0.7749,-5.8908,2253,2019-08-07 16:44:26:376
0.2025,0.5345,-1.5299,-8.6598,-3.166,4.3265,-1.5909,0.7749,-5.8908,2258,2019-08-07 16:44:26:381
-0.8069,-1.5994,-0.2902,-7.716,-2.3407,3.1312,-1.3331,1.1318,-5.6213,2263,2019-08-07 16:44:26:386
-0.8069,-1.5994,-0.2902,-7.716,-2.3407,3.1312,-1.3331,1.1318,-5.6213,2268,2019-08-07 16:44:26:391
-0.8069,-1.5994,-0.2902,-7.716,-2.3407,3.1312,-0.9529,1.1701,-5.2101,2273,2019-08-07 16:44:26:396
-2.6441,-2.7737,0.4169,-7.716,-2.3407,3.1312,-0.9529,1.1701,-5.2101,2278,2019-08-07 16:44:26:401
-2.6441,-2.7737,0.4169,-4.8438,-2.0287,1.8263,-0.7377,1.0146,-4.9225,2284,2019-08-07 16:44:26:407
-2.6441,-2.7737,0.4169,-4.8438,-2.0287,1.8263,-0.7377,1.0146,-4.9225,2288,2019-08-07 16:44:26:411
-4.2994,-2.7403,1.1381,-4.8438,-2.0287,1.8263,-0.7377,1.0146,-4.9225,2293,2019-08-07 16:44:26:416
-4.2994,-2.7403,1.1381,-4.8438,-2.0287,1.8263,-0.4543,0.5629,-4.408,2298,2019-08-07 16:44:26:421
-4.7444,-1.8428,1.7084,-2.8635,-3.6309,0.6803,-0.4543,0.5629,-4.408,2302,2019-08-07 16:44:26:425
-4.7444,-1.8428,1.7084,-2.8635,-3.6309,0.6803,-0.3052,-0.186,-3.8775,2308,2019-08-07 16:44:26:431
-4.7444,-1.8428,1.7084,-2.8635,-3.6309,0.6803,-0.3052,-0.186,-3.8775,2314,2019-08-07 16:44:26:437
-4.4621,-1.0742,1.2795,-2.8635,-3.6309,0.6803,-0.2828,-0.6632,-3.544,2319,2019-08-07 16:44:26:442
-4.4621,-1.0742,1.2795,-3.4849,-5.3023,1.7601,-0.2828,-0.6632,-3.544,2322,2019-08-07 16:44:26:445
-3.1034,-0.9788,0.2519,-3.4849,-5.3023,1.7601,-0.352,-1.1511,-3.0466,2328,2019-08-07 16:44:26:451
-3.1034,-0.9788,0.2519,-3.4849,-5.3023,1.7601,-0.352,-1.1511,-3.0466,2333,2019-08-07 16:44:26:456
-3.1034,-0.9788,0.2519,-3.4849,-5.3023,1.7601,-0.465,-1.214,-2.613,2339,2019-08-07 16:44:26:462
-1.7398,-1.9192,-0.6013,-5.0292,-4.7319,3.0872,-0.465,-1.214,-2.613,2343,2019-08-07 16:44:26:466
-1.7398,-1.9192,-0.6013,-5.0292,-4.7319,3.0872,-0.465,-1.214,-2.613,2348,2019-08-07 16:44:26:471
-1.3045,-2.8453,-0.969,-5.2684,-3.993,3.4731,-0.5502,-0.9892,-2.3126,2353,2019-08-07 16:44:26:476
-1.3045,-2.8453,-0.969,-5.2684,-3.993,3.4731,-0.5502,-0.9892,-2.3126,2358,2019-08-07 16:44:26:481
-1.3045,-2.8453,-0.969,-5.2684,-3.993,3.4731,-0.5789,-0.6142,-2.0367,2363,2019-08-07 16:44:26:486
-1.1083,-3.9242,-0.9831,-5.2684,-3.993,3.4731,-0.5789,-0.6142,-2.0367,2368,2019-08-07 16:44:26:491
-1.1083,-3.9242,-0.9831,-5.1376,-2.7417,3.269,-0.5502,-0.0443,-1.7288,2373,2019-08-07 16:44:26:496
-1.2279,-4.6403,-0.771,-5.1376,-2.7417,3.269,-0.5502,-0.0443,-1.7288,2378,2019-08-07 16:44:26:501
-1.2279,-4.6403,-0.771,-5.1376,-2.7417,3.269,-0.4916,0.4606,-1.4913,2383,2019-08-07 16:44:26:506
-1.2279,-4.6403,-0.771,-5.1376,-2.7417,3.269,-0.4916,0.4606,-1.4913,2388,2019-08-07 16:44:26:511
-1.2279,-4.6403,-0.771,-5.1376,-2.7417,3.269,-0.4916,0.4606,-1.4913,2393,2019-08-07 16:44:26:516
-1.9264,-4.984,-0.441,-4.0896,-2.4124,2.7512,-0.4405,0.9539,-1.2761,2398,2019-08-07 16:44:26:521
-1.9264,-4.984,-0.441,-4.0896,-2.4124,2.7512,-0.4405,0.9539,-1.2761,2403,2019-08-07 16:44:26:526
-3.0746,-4.8551,0.6384,-4.0896,-2.4124,2.7512,-0.3765,1.4322,-0.9693,2408,2019-08-07 16:44:26:531
-3.0746,-4.8551,0.6384,-2.4643,-2.7874,1.2072,-0.3765,1.4322,-0.9693,2413,2019-08-07 16:44:26:536
-3.0746,-4.8551,0.6384,-2.4643,-2.7874,1.2072,-0.3393,1.4939,-0.7882,2418,2019-08-07 16:44:26:541
-3.8736,-4.7119,1.3172,-2.4643,-2.7874,1.2072,-0.3393,1.4939,-0.7882,2423,2019-08-07 16:44:26:546
-3.8736,-4.7119,1.3172,-2.4643,-2.7874,1.2072,-0.3393,1.4939,-0.7882,2427,2019-08-07 16:44:26:550
-4.2994,-4.9076,1.6142,-1.5473,-2.746,0.2499,-0.3201,1.3864,-0.6124,2433,2019-08-07 16:44:26:556
-4.2994,-4.9076,1.6142,-1.5473,-2.746,0.2499,-0.3201,1.3864,-0.6124,2439,2019-08-07 16:44:26:562
-4.2994,-4.9076,1.6142,-1.5473,-2.746,0.2499,-0.3222,1.1733,-0.4175,2443,2019-08-07 16:44:26:566
-4.2994,-4.9076,1.6142,-1.5473,-2.746,0.2499,-0.3222,1.1733,-0.4175,2448,2019-08-07 16:44:26:571
-4.8161,-5.2657,1.831,-1.5473,-2.746,0.2499,-0.3222,1.1733,-0.4175,2452,2019-08-07 16:44:26:575
-4.8161,-5.2657,1.831,-0.847,-2.2703,-0.2333,-0.3009,1.0178,-0.2289,2458,2019-08-07 16:44:26:581
-5.0457,-5.7239,1.9441,-0.847,-2.2703,-0.2333,-0.2647,0.8878,-0.0819,2463,2019-08-07 16:44:26:586
-5.0457,-5.7239,1.9441,-0.847,-2.2703,-0.2333,-0.2647,0.8878,-0.0819,2468,2019-08-07 16:44:26:591
-5.0457,-5.7239,1.9441,-0.8871,-1.4048,-0.2354,-0.2647,0.8878,-0.0819,2473,2019-08-07 16:44:26:596
-5.0409,-6.3875,1.8074,-0.8871,-1.4048,-0.2354,-0.2391,0.7536,0.0544,2477,2019-08-07 16:44:26:600
-5.0409,-6.3875,1.8074,-0.8871,-1.4048,-0.2354,-0.2391,0.7536,0.0544,2483,2019-08-07 16:44:26:606
-5.0409,-6.3875,1.8074,-0.7122,-1.0318,-0.3339,-0.2061,0.7046,0.1364,2488,2019-08-07 16:44:26:611
-5.4859,-6.779,2.0667,-0.7122,-1.0318,-0.3339,-0.2061,0.7046,0.1364,2493,2019-08-07 16:44:26:616
-5.4859,-6.779,2.0667,-0.7122,-1.0318,-0.3339,-0.1699,0.6684,0.1982,2498,2019-08-07 16:44:26:621
-5.9356,-7.0463,2.1798,0.026,-0.6629,-0.8079,-0.1699,0.6684,0.1982,2503,2019-08-07 16:44:26:626
-5.9356,-7.0463,2.1798,0.026,-0.6629,-0.8079,-0.1699,0.6684,0.1982,2508,2019-08-07 16:44:26:631
-5.9356,-7.0463,2.1798,0.026,-0.6629,-0.8079,-0.1411,0.6055,0.2344,2512,2019-08-07 16:44:26:635
-6.4714,-7.1274,2.6559,0.026,-0.6629,-0.8079,-0.1411,0.6055,0.2344,2518,2019-08-07 16:44:26:641
-6.4714,-7.1274,2.6559,0.677,-0.5226,-1.3904,-0.1145,0.4489,0.2696,2523,2019-08-07 16:44:26:646
-6.4714,-7.1274,2.6559,0.677,-0.5226,-1.3904,-0.1145,0.4489,0.2696,2528,2019-08-07 16:44:26:651
-6.6771,-7.1513,2.5758,0.677,-0.5226,-1.3904,-0.1219,0.2945,0.2824,2533,2019-08-07 16:44:26:656
-6.6771,-7.1513,2.5758,0.677,-0.5226,-1.3904,-0.1219,0.2945,0.2824,2538,2019-08-07 16:44:26:661
-6.6771,-7.1513,2.5758,0.677,-0.5226,-1.3904,-0.1219,0.2945,0.2824,2543,2019-08-07 16:44:26:666
-6.5767,-7.3136,2.1044,0.5412,-0.2488,-0.7669,-0.1422,0.1741,0.276,2548,2019-08-07 16:44:26:671
-6.5767,-7.3136,2.1044,0.5412,-0.2488,-0.7669,-0.1326,0.1261,0.2451,2553,2019-08-07 16:44:26:676
-6.5767,-7.3136,2.1044,0.5412,-0.2488,-0.7669,-0.1326,0.1261,0.2451,2558,2019-08-07 16:44:26:681
-6.4188,-7.7289,1.7415,0.5412,-0.2488,-0.7669,-0.1326,0.1261,0.2451,2563,2019-08-07 16:44:26:686
-6.4188,-7.7289,1.7415,0.345,0.2193,-0.5874,-0.1017,0.1176,0.2174,2567,2019-08-07 16:44:26:690
-6.4188,-7.7289,1.7415,0.345,0.2193,-0.5874,-0.1017,0.1176,0.2174,2573,2019-08-07 16:44:26:696
-6.4236,-7.8769,1.8216,0.345,0.2193,-0.5874,-0.058,0.1155,0.1982,2578,2019-08-07 16:44:26:701
-6.4236,-7.8769,1.8216,0.345,0.2193,-0.5874,-0.058,0.1155,0.1982,2583,2019-08-07 16:44:26:706
-6.6006,-7.7433,1.7933,0.3676,0.196,-0.5428,-0.0282,0.0974,0.1886,2587,2019-08-07 16:44:26:710
-6.6006,-7.7433,1.7933,0.3676,0.196,-0.5428,-0.0282,0.0974,0.1886,2593,2019-08-07 16:44:26:716
-6.6006,-7.7433,1.7933,0.3676,0.196,-0.5428,-0.0282,0.0974,0.1886,2598,2019-08-07 16:44:26:721
-6.8685,-7.6955,2.1563,0.3676,0.196,-0.5428,-0.0016,0.0345,0.1854,2603,2019-08-07 16:44:26:726
-6.8685,-7.6955,2.1563,0.9521,0.0118,-1.1063,-0.0016,0.0345,0.1854,2608,2019-08-07 16:44:26:731
-7.0934,-7.5428,2.2694,0.9521,0.0118,-1.1063,0.0197,-0.1956,0.1961,2613,2019-08-07 16:44:26:736
-7.0934,-7.5428,2.2694,0.9521,0.0118,-1.1063,0.0197,-0.1956,0.1961,2618,2019-08-07 16:44:26:741
-7.0934,-7.5428,2.2694,0.9521,0.0118,-1.1063,0.0187,-0.4555,0.1886,2623,2019-08-07 16:44:26:746
-6.7154,-7.5189,1.9112,0.5576,-0.0171,-0.6758,0.0187,-0.4555,0.1886,2628,2019-08-07 16:44:26:751
-6.7154,-7.5189,1.9112,0.5576,-0.0171,-0.6758,0.0027,-0.5823,0.1524,2633,2019-08-07 16:44:26:756
-6.7154,-7.5189,1.9112,0.5576,-0.0171,-0.6758,0.0027,-0.5823,0.1524,2638,2019-08-07 16:44:26:761
-5.9691,-7.581,1.4398,0.5576,-0.0171,-0.6758,0.0027,-0.5823,0.1524,2643,2019-08-07 16:44:26:766
-5.9691,-7.581,1.4398,-0.4586,0.1249,0.0198,-0.0026,-0.5748,0.0981,2649,2019-08-07 16:44:26:772
-5.3423,-7.791,1.1004,-0.4586,0.1249,0.0198,-0.0026,-0.5748,0.0981,2653,2019-08-07 16:44:26:776
-5.3423,-7.791,1.1004,-0.4586,0.1249,0.0198,0.0112,-0.3916,0.0342,2658,2019-08-07 16:44:26:781
-5.3423,-7.791,1.1004,-0.4586,0.1249,0.0198,0.0112,-0.3916,0.0342,2663,2019-08-07 16:44:26:786
-5.017,-7.8388,0.7704,-1.1372,0.3209,0.5876,0.0219,-0.1423,-0.0191,2669,2019-08-07 16:44:26:792
-5.017,-7.8388,0.7704,-1.1372,0.3209,0.5876,0.0219,-0.1423,-0.0191,2672,2019-08-07 16:44:26:795
-5.1653,-7.8483,0.7563,-0.9822,0.3254,0.6042,0.0357,0.1144,-0.0649,2678,2019-08-07 16:44:26:801
-5.1653,-7.8483,0.7563,-0.9822,0.3254,0.6042,0.0357,0.1144,-0.0649,2683,2019-08-07 16:44:26:806
-5.1653,-7.8483,0.7563,-0.9822,0.3254,0.6042,0.0357,0.1144,-0.0649,2688,2019-08-07 16:44:26:811
-5.6533,-7.7767,1.1192,-0.9822,0.3254,0.6042,0.0549,0.3456,-0.1022,2692,2019-08-07 16:44:26:815
-5.6533,-7.7767,1.1192,-0.2544,0.14,-0.0049,0.0549,0.3456,-0.1022,2697,2019-08-07 16:44:26:820
-6.2417,-7.4759,1.5199,-0.2544,0.14,-0.0049,0.0623,0.3989,-0.1224,2703,2019-08-07 16:44:26:826
-6.2417,-7.4759,1.5199,-0.2544,0.14,-0.0049,0.0623,0.3989,-0.1224,2708,2019-08-07 16:44:26:831
-6.2417,-7.4759,1.5199,-0.2544,0.14,-0.0049,0.0517,0.3275,-0.1203,2713,2019-08-07 16:44:26:836
-6.6532,-7.3232,1.963,0.5237,-0.2252,-0.664,0.0517,0.3275,-0.1203,2718,2019-08-07 16:44:26:841
-6.6532,-7.3232,1.963,0.5237,-0.2252,-0.664,0.0261,0.0761,-0.1043,2723,2019-08-07 16:44:26:846
-6.6532,-7.3232,1.963,0.5237,-0.2252,-0.664,0.0261,0.0761,-0.1043,2727,2019-08-07 16:44:26:850
-6.6867,-7.1752,2.1751,0.5237,-0.2252,-0.664,-0.0207,-0.1753,-0.0968,2733,2019-08-07 16:44:26:856
-6.6867,-7.1752,2.1751,0.4502,-0.482,-0.7912,-0.0207,-0.1753,-0.0968,2738,2019-08-07 16:44:26:861
-6.6867,-7.1752,2.1751,0.4502,-0.482,-0.7912,-0.0207,-0.1753,-0.0968,2743,2019-08-07 16:44:26:866
-6.3757,-7.0606,1.9394,0.4502,-0.482,-0.7912,-0.0591,-0.4139,-0.0851,2748,2019-08-07 16:44:26:871
-6.3757,-7.0606,1.9394,0.4502,-0.482,-0.7912,-0.0591,-0.4139,-0.0851,2753,2019-08-07 16:44:26:876
-5.548,-7.1656,1.3691,-0.5454,-0.4015,-0.011,-0.0985,-0.5705,-0.067,2758,2019-08-07 16:44:26:881
-5.548,-7.1656,1.3691,-0.5454,-0.4015,-0.011,-0.0985,-0.5705,-0.067,2763,2019-08-07 16:44:26:886
-5.548,-7.1656,1.3691,-0.5454,-0.4015,-0.011,-0.0985,-0.5546,-0.0681,2768,2019-08-07 16:44:26:891
-5.1174,-7.3184,1.0344,-0.5454,-0.4015,-0.011,-0.0985,-0.5546,-0.0681,2772,2019-08-07 16:44:26:895
-5.1174,-7.3184,1.0344,-1.0617,-0.268,0.4338,-0.0729,-0.3852,-0.0745,2778,2019-08-07 16:44:26:901
-4.9261,-7.2945,0.9543,-1.0617,-0.268,0.4338,-0.0729,-0.3852,-0.0745,2784,2019-08-07 16:44:26:907
-4.9261,-7.2945,0.9543,-1.0617,-0.268,0.4338,-0.0452,-0.2041,-0.0681,2788,2019-08-07 16:44:26:911
-4.9261,-7.2945,0.9543,-1.0617,-0.268,0.4338,-0.0452,-0.2041,-0.0681,2793,2019-08-07 16:44:26:916
-4.9643,-7.2802,0.8883,-1.1072,-0.3534,0.5314,-0.0186,-0.0113,-0.0585,2798,2019-08-07 16:44:26:921
-4.9643,-7.2802,0.8883,-1.1072,-0.3534,0.5314,-0.0186,-0.0113,-0.0585,2803,2019-08-07 16:44:26:926
-4.9643,-7.2802,0.8883,-1.1072,-0.3534,0.5314,-0.0186,-0.0113,-0.0585,2808,2019-08-07 16:44:26:931
-5.1649,-7.1275,0.9826,-0.8728,-0.4732,0.4357,-0.0037,0.157,-0.0542,2813,2019-08-07 16:44:26:936
-5.1649,-7.1275,0.9826,-0.8728,-0.4732,0.4357,-0.0037,0.157,-0.0542,2818,2019-08-07 16:44:26:941
-5.7438,-7.1036,1.3833,-0.8728,-0.4732,0.4357,6.0E-4,0.2657,-0.0361,2823,2019-08-07 16:44:26:946
-5.7438,-7.1036,1.3833,-0.0262,-0.4736,-0.173,6.0E-4,0.2657,-0.0361,2828,2019-08-07 16:44:26:951
-5.7438,-7.1036,1.3833,-0.0262,-0.4736,-0.173,0.0059,0.2348,-0.0074,2833,2019-08-07 16:44:26:956
-6.1409,-7.1179,1.6944,-0.0262,-0.4736,-0.173,0.0059,0.2348,-0.0074,2838,2019-08-07 16:44:26:961
-6.1409,-7.1179,1.6944,-0.0262,-0.4736,-0.173,0.0059,0.2348,-0.0074,2843,2019-08-07 16:44:26:966
-6.3131,-7.0893,1.6708,0.2671,-0.5131,-0.2978,0.0027,0.0825,0.0203,2848,2019-08-07 16:44:26:971
-6.3131,-7.0893,1.6708,0.2671,-0.5131,-0.2978,-0.008,-0.0518,0.0352,2853,2019-08-07 16:44:26:976
-6.3131,-7.0893,1.6708,0.2671,-0.5131,-0.2978,-0.008,-0.0518,0.0352,2858,2019-08-07 16:44:26:981
-6.0978,-7.1179,1.5247,0.2671,-0.5131,-0.2978,-0.008,-0.0518,0.0352,2862,2019-08-07 16:44:26:985
-6.0978,-7.1179,1.5247,-0.0973,-0.4444,-0.0782,-0.0154,-0.1711,0.0459,2868,2019-08-07 16:44:26:991
-6.0978,-7.1179,1.5247,-0.0973,-0.4444,-0.0782,-0.0229,-0.2126,0.0523,2873,2019-08-07 16:44:26:996
-5.6481,-7.1991,1.3503,-0.0973,-0.4444,-0.0782,-0.0229,-0.2126,0.0523,2878,2019-08-07 16:44:27:001
-5.6481,-7.1991,1.3503,-0.0973,-0.4444,-0.0782,-0.0346,-0.1743,0.0491,2883,2019-08-07 16:44:27:006
-5.6481,-7.1991,1.3503,-0.0973,-0.4444,-0.0782,-0.0346,-0.1743,0.0491,2887,2019-08-07 16:44:27:010
-5.6481,-7.1991,1.3503,-0.625,-0.3012,0.21,-0.0346,-0.1743,0.0491,2893,2019-08-07 16:44:27:016
-5.3324,-7.2803,1.2089,-0.625,-0.3012,0.21,-0.0367,-0.1029,0.0438,2898,2019-08-07 16:44:27:021
-5.3324,-7.2803,1.2089,-0.625,-0.3012,0.21,-0.0367,-0.1029,0.0438,2902,2019-08-07 16:44:27:025
-5.3658,-7.3328,1.2136,-0.625,-0.3012,0.21,-0.0239,0.0409,0.0352,2908,2019-08-07 16:44:27:031
-5.3658,-7.3328,1.2136,-0.6659,-0.2613,0.2175,-0.0197,0.1474,0.0352,2913,2019-08-07 16:44:27:036
-5.3658,-7.3328,1.2136,-0.6659,-0.2613,0.2175,-0.0197,0.1474,0.0352,2918,2019-08-07 16:44:27:041
-5.4711,-7.2898,1.2089,-0.6659,-0.2613,0.2175,-0.0197,0.1474,0.0352,2923,2019-08-07 16:44:27:046
-5.4711,-7.2898,1.2089,-0.6659,-0.2613,0.2175,-0.0207,0.2369,0.0352,2928,2019-08-07 16:44:27:051
-5.629,-7.2612,1.3173,-0.4402,-0.2973,0.1019,-0.0207,0.2369,0.0352,2933,2019-08-07 16:44:27:056
-5.629,-7.2612,1.3173,-0.4402,-0.2973,0.1019,-0.0197,0.2827,0.0321,2937,2019-08-07 16:44:27:060
-5.629,-7.2612,1.3173,-0.4402,-0.2973,0.1019,-0.0197,0.2827,0.0321,2944,2019-08-07 16:44:27:067
-5.8155,-7.2612,1.4304,-0.4402,-0.2973,0.1019,-0.025,0.2774,0.0374,2948,2019-08-07 16:44:27:071
-5.8155,-7.2612,1.4304,-0.1659,-0.3558,-0.0575,-0.025,0.2774,0.0374,2953,2019-08-07 16:44:27:076
-5.9734,-7.2325,1.4964,-0.1659,-0.3558,-0.0575,-0.0367,0.2678,0.0438,2958,2019-08-07 16:44:27:081
-5.9734,-7.2325,1.4964,-0.1659,-0.3558,-0.0575,-0.0367,0.2678,0.0438,2963,2019-08-07 16:44:27:086
-5.9734,-7.2325,1.4964,-0.1659,-0.3558,-0.0575,-0.0452,0.2252,0.0438,2968,2019-08-07 16:44:27:091
-6.1935,-7.2373,1.7227,0.102,-0.3407,-0.4174,-0.0452,0.2252,0.0438,2973,2019-08-07 16:44:27:096
-6.1935,-7.2373,1.7227,0.102,-0.3407,-0.4174,-0.0506,0.1304,0.0502,2978,2019-08-07 16:44:27:101
-6.2078,-7.3041,1.6567,0.102,-0.3407,-0.4174,-0.0506,0.1304,0.0502,2983,2019-08-07 16:44:27:106
-6.2078,-7.3041,1.6567,0.102,-0.3407,-0.4174,-0.0612,0.0143,0.0576,2988,2019-08-07 16:44:27:111
-6.2078,-7.3041,1.6567,0.0324,-0.2383,-0.3163,-0.0612,0.0143,0.0576,2993,2019-08-07 16:44:27:116
-6.1121,-7.2994,1.6001,0.0324,-0.2383,-0.3163,-0.0644,-0.0496,0.0502,2998,2019-08-07 16:44:27:121
-6.1121,-7.2994,1.6001,0.0324,-0.2383,-0.3163,-0.0644,-0.0496,0.0502,3003,2019-08-07 16:44:27:126
-5.8442,-7.3853,1.388,0.0324,-0.2383,-0.3163,-0.0644,-0.0496,0.0502,3008,2019-08-07 16:44:27:131
-5.8442,-7.3853,1.388,-0.3229,-0.1717,-0.045,-0.0666,-0.0688,0.0384,3013,2019-08-07 16:44:27:136
-5.8442,-7.3853,1.388,-0.3229,-0.1717,-0.045,-0.0666,-0.0688,0.0384,3017,2019-08-07 16:44:27:140
-5.7103,-7.3805,1.3597,-0.3229,-0.1717,-0.045,-0.0676,-0.0667,0.0363,3023,2019-08-07 16:44:27:146
-5.7103,-7.3805,1.3597,-0.3229,-0.1717,-0.045,-0.0676,-0.0667,0.0363,3028,2019-08-07 16:44:27:151
-5.605,-7.4521,1.223,-0.4498,-0.1371,0.0447,-0.0538,0.0154,0.0299,3033,2019-08-07 16:44:27:156
-5.605,-7.4521,1.223,-0.4498,-0.1371,0.0447,-0.0538,0.0154,0.0299,3038,2019-08-07 16:44:27:161
-5.605,-7.4521,1.223,-0.4498,-0.1371,0.0447,-0.0389,0.0697,0.0246,3043,2019-08-07 16:44:27:166
-5.672,-7.4473,1.3173,-0.4498,-0.1371,0.0447,-0.0389,0.0697,0.0246,3048,2019-08-07 16:44:27:171
-5.672,-7.4473,1.3173,-0.4345,-0.1458,-0.0256,-0.0325,0.1016,0.0321,3053,2019-08-07 16:44:27:176
-5.672,-7.4473,1.3173,-0.4345,-0.1458,-0.0256,-0.0325,0.1016,0.0321,3058,2019-08-07 16:44:27:181
-5.7724,-7.3662,1.3126,-0.4345,-0.1458,-0.0256,-0.0303,0.1176,0.0395,3063,2019-08-07 16:44:27:186
-5.7724,-7.3662,1.3126,-0.4345,-0.1458,-0.0256,-0.0303,0.1176,0.0395,3069,2019-08-07 16:44:27:192
-5.7724,-7.3662,1.3126,-0.2411,-0.2191,-0.0859,-0.0207,0.1134,0.0363,3073,2019-08-07 16:44:27:196
-5.9255,-7.3232,1.3597,-0.2411,-0.2191,-0.0859,-0.0207,0.1134,0.0363,3078,2019-08-07 16:44:27:201
-5.9255,-7.3232,1.3597,-0.1353,-0.2456,-0.1267,-0.0165,0.091,0.0384,3083,2019-08-07 16:44:27:206
-5.9638,-7.3375,1.3173,-0.1353,-0.2456,-0.1267,-0.0165,0.091,0.0384,3088,2019-08-07 16:44:27:211
-5.9638,-7.3375,1.3173,-0.1353,-0.2456,-0.1267,-0.0165,0.091,0.0384,3093,2019-08-07 16:44:27:216
-5.9638,-7.3375,1.3173,-0.1353,-0.2456,-0.1267,-0.0154,0.0612,0.0395,3097,2019-08-07 16:44:27:220
-5.8729,-7.3232,1.2607,-0.2626,-0.2315,-0.0286,-0.0154,0.0612,0.0395,3103,2019-08-07 16:44:27:226
-5.8729,-7.3232,1.2607,-0.2626,-0.2315,-0.0286,-0.009,0.0569,0.0299,3108,2019-08-07 16:44:27:231
-5.8729,-7.3232,1.2607,-0.2626,-0.2315,-0.0286,-0.009,0.0569,0.0299,3113,2019-08-07 16:44:27:236
-5.7915,-7.3423,1.124,-0.2626,-0.2315,-0.0286,-0.0058,0.0793,0.0171,3117,2019-08-07 16:44:27:240
-5.7915,-7.3423,1.124,-0.3487,-0.1625,0.2061,-0.0058,0.0793,0.0171,3123,2019-08-07 16:44:27:246
-5.7724,-7.3423,1.0251,-0.3487,-0.1625,0.2061,-0.0069,0.1379,-0.002,3128,2019-08-07 16:44:27:251
-5.7724,-7.3423,1.0251,-0.3487,-0.1625,0.2061,-0.0069,0.1379,-0.002,3132,2019-08-07 16:44:27:255
-5.7724,-7.3423,1.0251,-0.3487,-0.1625,0.2061,0.0016,0.189,-0.0233,3138,2019-08-07 16:44:27:261
-5.8633,-7.3137,1.157,-0.2833,-0.26,0.0487,0.0016,0.189,-0.0233,3143,2019-08-07 16:44:27:266
-5.8633,-7.3137,1.157,-0.2833,-0.26,0.0487,0.007,0.2263,-0.0393,3149,2019-08-07 16:44:27:272
-5.9398,-7.3041,1.157,-0.2833,-0.26,0.0487,0.007,0.2263,-0.0393,3153,2019-08-07 16:44:27:276
-5.9398,-7.3041,1.157,-0.2833,-0.26,0.0487,0.007,0.2263,-0.0393,3158,2019-08-07 16:44:27:281
-5.9398,-7.3041,1.157,-0.1816,-0.1843,-0.0738,0.0016,0.2455,-0.0489,3163,2019-08-07 16:44:27:286
-5.9733,-7.3137,1.2749,-0.1816,-0.1843,-0.0738,0.0016,0.2455,-0.0489,3168,2019-08-07 16:44:27:291
-5.9733,-7.3137,1.2749,-0.1816,-0.1843,-0.0738,-5.0E-4,0.2178,-0.0457,3172,2019-08-07 16:44:27:295
-6.1599,-7.2755,1.4257,-0.1816,-0.1843,-0.0738,-5.0E-4,0.2178,-0.0457,3178,2019-08-07 16:44:27:301
-6.1599,-7.2755,1.4257,0.0776,-0.3318,-0.3705,0.007,0.1506,-0.0351,3183,2019-08-07 16:44:27:306
-6.1599,-7.2755,1.4257,0.0776,-0.3318,-0.3705,0.007,0.1506,-0.0351,3188,2019-08-07 16:44:27:311
-6.2508,-7.1943,1.5672,0.0776,-0.3318,-0.3705,0.0144,0.0122,-0.0084,3193,2019-08-07 16:44:27:316
-6.2508,-7.1943,1.5672,0.0776,-0.3318,-0.3705,0.0144,0.0122,-0.0084,3198,2019-08-07 16:44:27:321
-6.2508,-7.1943,1.5672,-0.028,-0.3838,-0.3878,0.0059,-0.0986,0.0086,3202,2019-08-07 16:44:27:325
-6.0594,-7.1561,1.5577,-0.028,-0.3838,-0.3878,0.0059,-0.0986,0.0086,3208,2019-08-07 16:44:27:331
-6.0594,-7.1561,1.5577,-0.028,-0.3838,-0.3878,0.0059,-0.0986,0.0086,3212,2019-08-07 16:44:27:335
-5.8298,-7.2182,1.388,-0.028,-0.3838,-0.3878,-0.0069,-0.1796,0.0193,3218,2019-08-07 16:44:27:341
-5.8298,-7.2182,1.388,-0.4147,-0.3619,-0.1249,-0.0122,-0.2115,0.0289,3223,2019-08-07 16:44:27:346
-5.8298,-7.2182,1.388,-0.4147,-0.3619,-0.1249,-0.0122,-0.2115,0.0289,3228,2019-08-07 16:44:27:351
-5.5188,-7.3471,1.1288,-0.4147,-0.3619,-0.1249,-0.0122,-0.2115,0.0289,3233,2019-08-07 16:44:27:356
-5.5188,-7.3471,1.1288,-0.4147,-0.3619,-0.1249,-0.009,-0.1551,0.0182,3237,2019-08-07 16:44:27:360
-5.5188,-7.3471,1.1288,-0.4147,-0.3619,-0.1249,-0.009,-0.1551,0.0182,3243,2019-08-07 16:44:27:366
-5.4327,-7.3137,1.0298,-0.6844,-0.2466,0.1545,0.0027,-0.0624,0.0054,3248,2019-08-07 16:44:27:371
-5.4327,-7.3137,1.0298,-0.6844,-0.2466,0.1545,0.0027,-0.0624,0.0054,3253,2019-08-07 16:44:27:376
-5.4327,-7.3137,1.0298,-0.6844,-0.2466,0.1545,0.008,0.0431,0.0012,3258,2019-08-07 16:44:27:381
-5.5188,-7.3423,1.0109,-0.6844,-0.2466,0.1545,0.008,0.0431,0.0012,3263,2019-08-07 16:44:27:386
-5.5188,-7.3423,1.0109,-0.5965,-0.3006,0.1257,0.0112,0.1464,-0.002,3268,2019-08-07 16:44:27:391
-5.6814,-7.328,1.1146,-0.5965,-0.3006,0.1257,0.0112,0.1464,-0.002,3273,2019-08-07 16:44:27:396
-5.6814,-7.328,1.1146,-0.5965,-0.3006,0.1257,0.0144,0.1996,-0.0031,3278,2019-08-07 16:44:27:401
-5.9398,-7.2278,1.3409,-0.1977,-0.3346,-0.167,0.0144,0.1996,-0.0031,3283,2019-08-07 16:44:27:406
-5.9398,-7.2278,1.3409,-0.1977,-0.3346,-0.167,0.0091,0.1943,1.0E-4,3288,2019-08-07 16:44:27:411
-5.9398,-7.2278,1.3409,-0.1977,-0.3346,-0.167,0.0091,0.1943,1.0E-4,3293,2019-08-07 16:44:27:416
-6.0785,-7.1991,1.3833,-0.1977,-0.3346,-0.167,0.007,0.1528,0.0076,3297,2019-08-07 16:44:27:420
-6.0785,-7.1991,1.3833,-0.1977,-0.3346,-0.167,0.007,0.1528,0.0076,3303,2019-08-07 16:44:27:426
-6.0785,-7.1991,1.3833,0.0164,-0.3898,-0.2979,0.007,0.1528,0.0076,3308,2019-08-07 16:44:27:431
-6.1981,-7.1752,1.4163,0.0164,-0.3898,-0.2979,0.0048,0.0676,0.0139,3313,2019-08-07 16:44:27:436
-6.1981,-7.1752,1.4163,0.0164,-0.3898,-0.2979,0.0048,0.0676,0.0139,3318,2019-08-07 16:44:27:441
-6.0642,-7.1562,1.3456,0.0164,-0.3898,-0.2979,-5.0E-4,-0.0145,0.0267,3323,2019-08-07 16:44:27:446
-6.0642,-7.1562,1.3456,-0.0894,-0.3475,-0.1863,-5.0E-4,-0.0145,0.0267,3328,2019-08-07 16:44:27:451
-6.0642,-7.1562,1.3456,-0.0894,-0.3475,-0.1863,-0.0058,-0.0656,0.0289,3333,2019-08-07 16:44:27:456
-5.8967,-7.1991,1.1901,-0.0894,-0.3475,-0.1863,-0.0058,-0.0656,0.0289,3338,2019-08-07 16:44:27:461
-5.8967,-7.1991,1.1901,-0.0894,-0.3475,-0.1863,-0.0112,-0.0784,0.0289,3343,2019-08-07 16:44:27:466
-5.6718,-7.2898,1.0958,-0.4317,-0.2725,0.034,-0.0112,-0.0784,0.0289,3348,2019-08-07 16:44:27:471
-5.6718,-7.2898,1.0958,-0.4317,-0.2725,0.034,-0.008,-0.055,0.0235,3353,2019-08-07 16:44:27:476
-5.6718,-7.2898,1.0958,-0.4317,-0.2725,0.034,-0.008,-0.055,0.0235,3358,2019-08-07 16:44:27:481
-5.5953,-7.3614,1.0392,-0.4317,-0.2725,0.034,-0.0026,0.0068,0.0161,3363,2019-08-07 16:44:27:486
-5.5953,-7.3614,1.0392,-0.5761,-0.1759,0.1447,-0.0026,0.0068,0.0161,3368,2019-08-07 16:44:27:491
-5.6192,-7.3471,0.9874,-0.5761,-0.1759,0.1447,-5.0E-4,0.0707,0.0076,3373,2019-08-07 16:44:27:496
-5.6192,-7.3471,0.9874,-0.5761,-0.1759,0.1447,-5.0E-4,0.0707,0.0076,3378,2019-08-07 16:44:27:501
-5.6192,-7.3471,0.9874,-0.5761,-0.1759,0.1447,6.0E-4,0.1293,0.0054,3383,2019-08-07 16:44:27:506
-5.801,-7.3376,1.0864,-0.3529,-0.2146,0.0666,6.0E-4,0.1293,0.0054,3387,2019-08-07 16:44:27:510
-5.801,-7.3376,1.0864,-0.3529,-0.2146,0.0666,0.008,0.157,0.0033,3393,2019-08-07 16:44:27:516
-5.801,-7.3376,1.0864,-0.3529,-0.2146,0.0666,0.008,0.157,0.0033,3398,2019-08-07 16:44:27:521
-5.9397,-7.3614,1.1005,-0.3529,-0.2146,0.0666,0.0112,0.1474,0.0044,3403,2019-08-07 16:44:27:526
-5.9397,-7.3614,1.1005,-0.1607,-0.3049,-0.0363,0.0112,0.1474,0.0044,3407,2019-08-07 16:44:27:530
-6.0737,-7.2946,1.2419,-0.1607,-0.3049,-0.0363,0.0123,0.1155,0.0086,3413,2019-08-07 16:44:27:536
-6.0737,-7.2946,1.2419,-0.1607,-0.3049,-0.0363,0.0123,0.1155,0.0086,3417,2019-08-07 16:44:27:540
-6.0737,-7.2946,1.2419,-0.1607,-0.3049,-0.0363,0.0123,0.0793,0.0139,3423,2019-08-07 16:44:27:546
-6.088,-7.2182,1.3079,-0.0747,-0.3313,-0.1843,0.0123,0.0793,0.0139,3427,2019-08-07 16:44:27:550
-6.088,-7.2182,1.3079,-0.0747,-0.3313,-0.1843,0.0144,0.0484,0.0139,3433,2019-08-07 16:44:27:556
-6.0402,-7.2421,1.2089,-0.0747,-0.3313,-0.1843,0.0144,0.0484,0.0139,3438,2019-08-07 16:44:27:561
-6.0402,-7.2421,1.2089,-0.0747,-0.3313,-0.1843,0.0144,0.0484,0.0118,3443,2019-08-07 16:44:27:566
-6.0402,-7.2421,1.2089,-0.2167,-0.2667,-0.0954,0.0133,0.0068,0.0118,3448,2019-08-07 16:44:27:571
-5.8967,-7.2994,1.2042,-0.2167,-0.2667,-0.0954,0.0133,0.0068,0.0118,3452,2019-08-07 16:44:27:575
-5.8967,-7.2994,1.2042,-0.2167,-0.2667,-0.0954,0.0112,0.0015,0.0033,3458,2019-08-07 16:44:27:581
-5.8105,-7.3758,1.0864,-0.2167,-0.2667,-0.0954,0.0155,0.0239,-0.0074,3463,2019-08-07 16:44:27:586
-5.8105,-7.3758,1.0864,-0.3695,-0.1854,0.0525,0.0155,0.0239,-0.0074,3468,2019-08-07 16:44:27:591
-5.8105,-7.3758,1.0864,-0.3695,-0.1854,0.0525,0.0155,0.0239,-0.0074,3472,2019-08-07 16:44:27:595
-5.8057,-7.3471,1.0769,-0.3695,-0.1854,0.0525,0.0165,0.0665,-0.0244,3478,2019-08-07 16:44:27:601
-5.8057,-7.3471,1.0769,-0.3695,-0.1854,0.0525,0.0208,0.1091,-0.0383,3483,2019-08-07 16:44:27:606
-5.8057,-7.3471,1.0769,-0.3135,-0.2035,-0.1,0.0208,0.1091,-0.0383,3488,2019-08-07 16:44:27:611
-5.8966,-7.3423,1.1712,-0.3135,-0.2035,-0.1,0.0208,0.1091,-0.0383,3492,2019-08-07 16:44:27:615
-5.8966,-7.3423,1.1712,-0.3135,-0.2035,-0.1,0.0251,0.1229,-0.0468,3499,2019-08-07 16:44:27:622
-5.8966,-7.2946,1.1901,-0.3135,-0.2035,-0.1,0.0251,0.1229,-0.0468,3502,2019-08-07 16:44:27:625
-5.8966,-7.2946,1.1901,-0.2706,-0.2947,-0.1335,0.024,0.1134,-0.0468,3509,2019-08-07 16:44:27:632
-5.8966,-7.2946,1.1901,-0.2706,-0.2947,-0.1335,0.024,0.1134,-0.0468,3514,2019-08-07 16:44:27:637
-5.9301,-7.2134,1.2042,-0.2706,-0.2947,-0.1335,0.024,0.1134,-0.0468,3518,2019-08-07 16:44:27:641
-5.9301,-7.2134,1.2042,-0.2706,-0.2947,-0.1335,0.0112,0.0793,-0.0361,3523,2019-08-07 16:44:27:646
-5.9492,-7.223,1.3409,-0.2048,-0.3368,-0.2394,0.0112,0.0793,-0.0361,3528,2019-08-07 16:44:27:651
-5.9492,-7.223,1.3409,-0.2048,-0.3368,-0.2394,0.007,0.0367,-0.0138,3533,2019-08-07 16:44:27:656
-5.9492,-7.223,1.3409,-0.2048,-0.3368,-0.2394,0.007,0.0367,-0.0138,3538,2019-08-07 16:44:27:661
-5.8488,-7.1753,1.3174,-0.2048,-0.3368,-0.2394,0.008,-0.0091,0.0033,3542,2019-08-07 16:44:27:665
-5.8488,-7.1753,1.3174,-0.3001,-0.4227,-0.1806,0.008,-0.0091,0.0033,3549,2019-08-07 16:44:27:672
-5.8009,-7.1562,1.1759,-0.3001,-0.4227,-0.1806,-0.0026,-0.0422,0.0203,3552,2019-08-07 16:44:27:675
-5.8009,-7.1562,1.1759,-0.3001,-0.4227,-0.1806,-0.0026,-0.0422,0.0203,3558,2019-08-07 16:44:27:681
-5.8009,-7.1562,1.1759,-0.3001,-0.4227,-0.1806,-0.0058,-0.0507,0.0299,3563,2019-08-07 16:44:27:686
-5.6861,-7.18,1.1052,-0.4748,-0.3722,0.0091,-0.0058,-0.0507,0.0299,3568,2019-08-07 16:44:27:691
-5.6861,-7.18,1.1052,-0.4748,-0.3722,0.0091,-0.0069,-0.0358,0.0321,3573,2019-08-07 16:44:27:696
-5.6574,-7.2373,1.0062,-0.4748,-0.3722,0.0091,-0.0069,-0.0358,0.0321,3578,2019-08-07 16:44:27:701
-5.6574,-7.2373,1.0062,-0.4748,-0.3722,0.0091,-0.009,0.0228,0.031,3582,2019-08-07 16:44:27:705
-5.6574,-7.2373,1.0062,-0.3874,-0.2501,0.0264,-0.009,0.0228,0.031,3588,2019-08-07 16:44:27:711
-5.777,-7.2994,1.0675,-0.3874,-0.2501,0.0264,-0.009,0.0228,0.031,3592,2019-08-07 16:44:27:715
-5.777,-7.2994,1.0675,-0.3874,-0.2501,0.0264,-0.0058,0.091,0.0129,3598,2019-08-07 16:44:27:721
-5.9062,-7.266,1.0911,-0.3874,-0.2501,0.0264,-0.0058,0.091,0.0129,3603,2019-08-07 16:44:27:726
-5.9062,-7.266,1.0911,-0.3874,-0.2501,0.0264,-0.0069,0.1315,0.0054,3608,2019-08-07 16:44:27:731
-5.9062,-7.266,1.0911,-0.2286,-0.268,-0.0621,-0.0069,0.1315,0.0054,3613,2019-08-07 16:44:27:736
-5.9923,-7.2707,1.1618,-0.2286,-0.268,-0.0621,-0.0133,0.1368,-0.002,3618,2019-08-07 16:44:27:741
-5.9923,-7.2707,1.1618,-0.2286,-0.268,-0.0621,-0.0133,0.1368,-0.002,3622,2019-08-07 16:44:27:745
-5.9923,-7.2707,1.1618,-0.0925,-0.2351,-0.0288,-0.0197,0.1315,-0.0116,3628,2019-08-07 16:44:27:751
-6.0736,-7.3185,1.1052,-0.0925,-0.2351,-0.0288,-0.0197,0.1315,-0.0116,3632,2019-08-07 16:44:27:755
-6.0736,-7.3185,1.1052,-0.0925,-0.2351,-0.0288,-0.0112,0.1176,-0.0052,3638,2019-08-07 16:44:27:761
-6.0879,-7.2278,1.2325,-0.0925,-0.2351,-0.0288,-0.0112,0.1176,-0.0052,3643,2019-08-07 16:44:27:766
-6.0879,-7.2278,1.2325,-0.0995,-0.3689,-0.1131,-0.0048,0.0697,0.0033,3649,2019-08-07 16:44:27:772
-6.0879,-7.2278,1.2325,-0.0995,-0.3689,-0.1131,-0.0048,0.0697,0.0033,3654,2019-08-07 16:44:27:777
-6.0497,-7.2278,1.1948,-0.0995,-0.3689,-0.1131,-0.0101,0.0186,0.0097,3658,2019-08-07 16:44:27:781
-6.0497,-7.2278,1.1948,-0.0995,-0.3689,-0.1131,-0.0101,0.0186,0.0097,3664,2019-08-07 16:44:27:787
-6.0497,-7.2278,1.1948,-0.0995,-0.3689,-0.1131,-0.0101,0.0186,0.0097,3667,2019-08-07 16:44:27:790
-6.0018,-7.2564,1.1665,-0.1689,-0.2958,-0.1071,-0.0229,-0.0049,0.015,3672,2019-08-07 16:44:27:795
-6.0018,-7.2564,1.1665,-0.1689,-0.2958,-0.1071,-0.0229,-0.0049,0.015,3678,2019-08-07 16:44:27:801
-5.9157,-7.2755,1.0251,-0.1689,-0.2958,-0.1071,-0.025,-0.0123,0.0086,3682,2019-08-07 16:44:27:805
-5.9157,-7.2755,1.0251,-0.1689,-0.2958,-0.1071,-0.025,-0.0123,0.0086,3688,2019-08-07 16:44:27:811
-5.9157,-7.2755,1.0251,-0.2752,-0.1854,0.0231,-0.0239,-0.0113,0.0054,3693,2019-08-07 16:44:27:816
-5.9013,-7.4235,1.0534,-0.2752,-0.1854,0.0231,-0.0239,-0.0113,0.0054,3699,2019-08-07 16:44:27:822
-5.9013,-7.4235,1.0534,-0.2752,-0.1854,0.0231,-0.0239,-0.0113,0.0054,3703,2019-08-07 16:44:27:826
-5.8583,-7.4235,1.0298,-0.2752,-0.1854,0.0231,-0.009,0.0175,-0.0074,3707,2019-08-07 16:44:27:830
-5.8583,-7.4235,1.0298,-0.3604,-0.072,0.0579,-0.009,0.0175,-0.0074,3713,2019-08-07 16:44:27:836
-5.8583,-7.4235,1.0298,-0.3604,-0.072,0.0579,0.0059,0.0494,-0.0169,3718,2019-08-07 16:44:27:841
-5.8439,-7.4187,1.0015,-0.3604,-0.072,0.0579,0.0059,0.0494,-0.0169,3723,2019-08-07 16:44:27:846
-5.8439,-7.4187,1.0015,-0.3604,-0.072,0.0579,0.0091,0.0846,-0.0223,3727,2019-08-07 16:44:27:850
-5.8487,-7.3328,1.0393,-0.2956,-0.1849,-0.0102,0.0091,0.0846,-0.0223,3733,2019-08-07 16:44:27:856
-5.8487,-7.3328,1.0393,-0.2956,-0.1849,-0.0102,0.0133,0.0995,-0.0276,3738,2019-08-07 16:44:27:861
-5.8487,-7.3328,1.0393,-0.2956,-0.1849,-0.0102,0.0133,0.0995,-0.0276,3743,2019-08-07 16:44:27:866
-5.8726,-7.3233,1.0534,-0.2956,-0.1849,-0.0102,0.0155,0.0921,-0.0223,3748,2019-08-07 16:44:27:871
-5.8726,-7.3233,1.0534,-0.2217,-0.2881,-0.1232,0.0155,0.0921,-0.0223,3753,2019-08-07 16:44:27:876
-5.8726,-7.3233,1.0534,-0.2217,-0.2881,-0.1232,0.0155,0.0921,-0.0223,3758,2019-08-07 16:44:27:881
-5.9491,-7.2612,1.143,-0.2217,-0.2881,-0.1232,0.0155,0.0697,-0.0106,3762,2019-08-07 16:44:27:885
-5.9491,-7.2612,1.143,-0.2217,-0.2881,-0.1232,0.0155,0.0697,-0.0106,3768,2019-08-07 16:44:27:891
-6.0257,-7.2421,1.2372,-0.1979,-0.322,-0.1791,0.0165,0.0196,0.0054,3772,2019-08-07 16:44:27:895
-6.0257,-7.2421,1.2372,-0.1979,-0.322,-0.1791,0.0165,0.0196,0.0054,3778,2019-08-07 16:44:27:901
-6.0257,-7.2421,1.2372,-0.1979,-0.322,-0.1791,0.0176,-0.0177,0.0107,3783,2019-08-07 16:44:27:906
-5.5425,-7.2803,1.1665,-0.1979,-0.322,-0.1791,0.0176,-0.0177,0.0107,3787,2019-08-07 16:44:27:910
-5.5425,-7.2803,1.1665,-0.542,-0.2834,0.034,0.0176,-0.007,-0.0138,3793,2019-08-07 16:44:27:916
-5.7195,-7.2612,0.8931,-0.542,-0.2834,0.034,0.0176,-0.007,-0.0138,3798,2019-08-07 16:44:27:921
-5.7195,-7.2612,0.8931,-0.542,-0.2834,0.034,-0.0069,0.0548,0.0161,3802,2019-08-07 16:44:27:925
-5.7195,-7.2612,0.8931,-0.542,-0.2834,0.034,-0.0069,0.0548,0.0161,3808,2019-08-07 16:44:27:931
-5.7167,-7.409,1.0153,-0.4494,-0.1503,0.0205,-0.0069,0.0548,0.0161,3812,2019-08-07 16:44:27:935
-5.7167,-7.409,1.0153,-0.4494,-0.1503,0.0205,0.0016,0.1048,0.0203,3818,2019-08-07 16:44:27:941
-5.7167,-7.409,1.0153,-0.4494,-0.1503,0.0205,0.0016,0.1048,0.0203,3823,2019-08-07 16:44:27:946
-5.865,-7.3613,1.0011,-0.4494,-0.1503,0.0205,0.0229,0.1347,0.0043,3828,2019-08-07 16:44:27:951
-5.865,-7.3613,1.0011,-0.2231,-0.2113,0.0552,0.0229,0.1347,0.0043,3832,2019-08-07 16:44:27:955
-5.865,-7.3613,1.0011,-0.2231,-0.2113,0.0552,-5.0E-4,0.108,0.0011,3838,2019-08-07 16:44:27:961
-5.9798,-7.3231,0.9964,-0.2231,-0.2113,0.0552,-5.0E-4,0.108,0.0011,3843,2019-08-07 16:44:27:966
-5.9798,-7.3231,0.9964,-0.2231,-0.2113,0.0552,-0.0186,0.0921,-0.0074,3848,2019-08-07 16:44:27:971
-6.0038,-7.2801,1.0813,-0.1675,-0.2784,-0.0712,-0.0186,0.0921,-0.0074,3853,2019-08-07 16:44:27:976
-6.0038,-7.2801,1.0813,-0.1675,-0.2784,-0.0712,-0.0175,0.0676,-0.0074,3858,2019-08-07 16:44:27:981
-6.0038,-7.2801,1.0813,-0.1675,-0.2784,-0.0712,-0.0175,0.0676,-0.0074,3863,2019-08-07 16:44:27:986
-5.9655,-7.3183,1.152,-0.1675,-0.2784,-0.0712,-0.009,0.0473,-0.0052,3868,2019-08-07 16:44:27:991
-5.9655,-7.3183,1.152,-0.2538,-0.2507,-0.1318,-0.009,0.0473,-0.0052,3873,2019-08-07 16:44:27:996
-5.956,-7.2896,1.0153,-0.2538,-0.2507,-0.1318,-0.0026,0.0367,-0.0042,3877,2019-08-07 16:44:28:000
-5.956,-7.2896,1.0153,-0.2538,-0.2507,-0.1318,-0.0026,0.0367,-0.0042,3883,2019-08-07 16:44:28:006
-5.956,-7.2896,1.0153,-0.2538,-0.2507,-0.1318,-0.0016,0.0367,0.0011,3888,2019-08-07 16:44:28:011
-5.9368,-7.2276,1.086,-0.2017,-0.3321,-0.1129,-0.0016,0.0367,0.0011,3893,2019-08-07 16:44:28:016
-5.9368,-7.2276,1.086,-0.2017,-0.3321,-0.1129,0.007,0.0388,0.0086,3898,2019-08-07 16:44:28:021
-5.9895,-7.2705,1.0624,-0.2017,-0.3321,-0.1129,0.007,0.0388,0.0086,3903,2019-08-07 16:44:28:026
-5.9895,-7.2705,1.0624,-0.2017,-0.3321,-0.1129,0.007,0.0388,0.0086,3907,2019-08-07 16:44:28:030
-5.9895,-7.2705,1.0624,-0.271,-0.2638,-0.0121,0.0144,0.0441,0.0097,3913,2019-08-07 16:44:28:036
-5.9273,-7.304,1.0247,-0.271,-0.2638,-0.0121,0.0144,0.0441,0.0097,3917,2019-08-07 16:44:28:040
-5.9273,-7.304,1.0247,-0.271,-0.2638,-0.0121,0.0187,0.0505,-0.0084,3923,2019-08-07 16:44:28:046
-5.8795,-7.3612,0.8785,-0.271,-0.2638,-0.0121,0.0187,0.0505,-0.0084,3928,2019-08-07 16:44:28:051
-5.8795,-7.3612,0.8785,-0.271,-0.2638,-0.0121,0.0165,0.0644,-0.0191,3932,2019-08-07 16:44:28:055
-5.8795,-7.3612,0.8785,-0.3133,-0.1837,0.0359,0.0165,0.0644,-0.0191,3938,2019-08-07 16:44:28:061
-5.9274,-7.3612,0.9351,-0.3133,-0.1837,0.0359,0.0123,0.0931,-0.0329,3942,2019-08-07 16:44:28:065
-5.9274,-7.3612,0.9351,-0.3133,-0.1837,0.0359,0.0123,0.0931,-0.0329,3949,2019-08-07 16:44:28:072
-5.8747,-7.3421,0.9917,-0.2953,-0.2213,-0.0113,0.0208,0.1155,-0.0351,3953,2019-08-07 16:44:28:076
-5.8747,-7.3421,0.9917,-0.2953,-0.2213,-0.0113,0.0208,0.1155,-0.0351,3958,2019-08-07 16:44:28:081
-5.8747,-7.3421,0.9917,-0.2953,-0.2213,-0.0113,0.0251,0.1198,-0.0351,3963,2019-08-07 16:44:28:086
-5.8508,-7.3326,0.9822,-0.2953,-0.2213,-0.0113,0.0251,0.1198,-0.0351,3968,2019-08-07 16:44:28:091
-5.8508,-7.3326,0.9822,-0.2953,-0.2213,-0.0113,0.0208,0.1176,-0.0308,3972,2019-08-07 16:44:28:095
-5.8508,-7.3326,0.9822,-0.2152,-0.302,0.02,0.0208,0.1176,-0.0308,3978,2019-08-07 16:44:28:101
-5.937,-7.1989,0.888,-0.2152,-0.302,0.02,-0.0207,0.0431,-0.0159,3983,2019-08-07 16:44:28:106
-5.937,-7.1989,0.888,-0.2152,-0.302,0.02,-0.0207,0.0431,-0.0159,3988,2019-08-07 16:44:28:111
-5.9848,-7.2228,1.3028,-0.2433,-0.3512,-0.3652,-0.0175,0.0281,-0.0042,3993,2019-08-07 16:44:28:116
-5.9848,-7.2228,1.3028,-0.2433,-0.3512,-0.3652,-0.0175,0.0281,-0.0042,3997,2019-08-07 16:44:28:120
-5.9848,-7.2228,1.3028,-0.2433,-0.3512,-0.3652,0.0357,-0.0241,0.0235,4004,2019-08-07 16:44:28:127
-5.9466,-7.2753,1.0954,-0.2433,-0.3512,-0.3652,0.0357,-0.0241,0.0235,4008,2019-08-07 16:44:28:131
-5.9466,-7.2753,1.0954,-0.2433,-0.3512,-0.3652,0.0357,-0.0241,0.0235,4013,2019-08-07 16:44:28:136
-5.9466,-7.2753,1.0954,-0.265,-0.2764,-0.074,0.0378,-0.0571,0.0438,4017,2019-08-07 16:44:28:140
-5.7983,-7.1798,1.0105,-0.265,-0.2764,-0.074,0.0378,-0.0571,0.0438,4023,2019-08-07 16:44:28:146
-5.7983,-7.1798,1.0105,-0.265,-0.2764,-0.074,0.0229,-0.0709,0.0438,4028,2019-08-07 16:44:28:151
-5.9036,-7.1416,1.0341,-0.265,-0.2764,-0.074,0.0229,-0.0709,0.0438,4032,2019-08-07 16:44:28:155
-5.9036,-7.1416,1.0341,-0.2753,-0.3848,0.0289,0.0347,-0.0518,0.0502,4038,2019-08-07 16:44:28:161
-5.9036,-7.1416,1.0341,-0.2753,-0.3848,0.0289,0.0347,-0.0518,0.0502,4044,2019-08-07 16:44:28:167
-5.6739,-7.4615,1.0623,-0.2753,-0.3848,0.0289,0.0869,0.059,0.0448,4048,2019-08-07 16:44:28:171
-5.6739,-7.4615,1.0623,-0.2753,-0.3848,0.0289,0.0869,0.059,0.0448,4053,2019-08-07 16:44:28:176
-5.6548,-7.5378,0.7795,-0.5629,0.0789,0.2069,0.0964,0.1347,0.031,4058,2019-08-07 16:44:28:181
-5.6548,-7.5378,0.7795,-0.5629,0.0789,0.2069,0.0964,0.1347,0.031,4062,2019-08-07 16:44:28:185
-5.6548,-7.5378,0.7795,-0.5629,0.0789,0.2069,0.0645,0.2124,-0.002,4068,2019-08-07 16:44:28:191
-5.8701,-7.1989,0.8926,-0.5629,0.0789,0.2069,0.0645,0.2124,-0.002,4073,2019-08-07 16:44:28:196
-5.8701,-7.1989,0.8926,-0.1511,-0.4393,-0.0028,0.0645,0.2348,-0.0148,4078,2019-08-07 16:44:28:201
-6.3055,-7.0366,1.1048,-0.1511,-0.4393,-0.0028,0.0453,0.2348,-0.0148,4082,2019-08-07 16:44:28:205
-6.3055,-7.0366,1.1048,-0.1511,-0.4393,-0.0028,0.0453,0.2348,-0.0148,4088,2019-08-07 16:44:28:211