ACCELEROMETER X (m/s²),ACCELEROMETER Y (m/s²),ACCELEROMETER Z (m/s²),LINEAR ACCELERATION X (m/s²),LINEAR ACCELERATION Y (m/s²),LINEAR ACCELERATION Z (m/s²),GYROSCOPE X (rad/s),GYROSCOPE Y (rad/s),GYROSCOPE Z (rad/s),Time since start in ms ,YYYY-MO-DD HH-MI-SS_SSS
3.437,-9.2098,1.3476,0.0189,0.1647,-0.1068,0.0197,0.0643,-0.0126,5,2019-08-07 16:21:06:469
3.437,-9.2098,1.3476,0.0189,0.1647,-0.1068,0.0197,0.0643,-0.0126,9,2019-08-07 16:21:06:473
3.3988,-9.1716,1.3806,0.0721,0.0755,-0.1075,0.0293,0.0505,-0.0243,14,2019-08-07 16:21:06:478
3.3988,-9.1716,1.3806,0.0721,0.0755,-0.1075,0.0293,0.0505,-0.0243,19,2019-08-07 16:21:06:483
3.4131,-9.0666,1.5031,0.0721,0.0755,-0.1075,0.0336,0.0377,-0.0339,24,2019-08-07 16:21:06:488
3.4131,-9.0666,1.5031,0.0721,0.0755,-0.1075,0.0336,0.0377,-0.0339,28,2019-08-07 16:21:06:492
3.4131,-9.0666,1.5031,0.0668,0.0117,-0.0886,0.0357,0.0196,-0.0329,34,2019-08-07 16:21:06:498
3.4418,-9.0618,1.3994,0.0668,0.0117,-0.0886,0.0357,0.0196,-0.0329,38,2019-08-07 16:21:06:502
3.4418,-9.0618,1.3994,0.0668,0.0117,-0.0886,0.0282,-6.0E-4,-0.0339,44,2019-08-07 16:21:06:508
3.571,-9.0332,1.3994,0.0668,0.0117,-0.0886,0.0282,-6.0E-4,-0.0339,49,2019-08-07 16:21:06:513
3.571,-9.0332,1.3994,-0.1228,-0.028,-0.0452,0.025,-0.0145,-0.0307,53,2019-08-07 16:21:06:517
3.571,-9.0332,1.3994,-0.1228,-0.028,-0.0452,0.025,-0.0145,-0.0307,60,2019-08-07 16:21:06:524
3.6762,-8.9854,1.4324,-0.1228,-0.028,-0.0452,0.0272,-0.0145,-0.0233,65,2019-08-07 16:21:06:529
3.6762,-8.9854,1.4324,-0.1228,-0.028,-0.0452,0.0272,-0.0145,-0.0233,68,2019-08-07 16:21:06:532
3.6762,-8.9854,1.4324,-0.2744,-0.0679,0.1616,0.0229,0.0068,-0.0126,74,2019-08-07 16:21:06:538
3.7289,-8.9902,1.1779,-0.2744,-0.0679,0.1616,0.0229,0.0068,-0.0126,78,2019-08-07 16:21:06:542
3.7289,-8.9902,1.1779,-0.2744,-0.0679,0.1616,0.0091,0.0366,-9.0E-4,84,2019-08-07 16:21:06:548
3.6475,-9.0379,1.1779,-0.2744,-0.0679,0.1616,0.0091,0.0366,-9.0E-4,89,2019-08-07 16:21:06:553
3.6475,-9.0379,1.1779,-0.1487,-0.0622,0.0894,0.0091,0.0633,0.0055,94,2019-08-07 16:21:06:558
3.6475,-9.0379,1.1779,-0.1487,-0.0622,0.0894,0.0091,0.0633,0.0055,98,2019-08-07 16:21:06:562
3.571,-9.0952,1.2533,-0.1487,-0.0622,0.0894,0.0091,0.0633,0.0055,104,2019-08-07 16:21:06:568
3.571,-9.0952,1.2533,-0.1487,-0.0622,0.0894,0.0101,0.0782,0.0108,110,2019-08-07 16:21:06:574
3.571,-9.0952,1.2533,-0.1487,-0.0622,0.0894,0.0101,0.0782,0.0108,113,2019-08-07 16:21:06:577
3.4227,-9.1,1.2391,0.0585,0.0282,0.1097,0.0091,0.0686,-9.0E-4,119,2019-08-07 16:21:06:583
3.4227,-9.1,1.2391,0.0585,0.0282,0.1097,0.0091,0.0686,-9.0E-4,124,2019-08-07 16:21:06:588
3.2887,-9.0284,1.3381,0.0585,0.0282,0.1097,0.0208,0.059,-0.0073,129,2019-08-07 16:21:06:593
3.2887,-9.0284,1.3381,0.2001,-0.0956,-0.0055,0.0208,0.059,-0.0073,134,2019-08-07 16:21:06:598
3.2887,-9.0284,1.3381,0.2001,-0.0956,-0.0055,0.0208,0.059,-0.0073,139,2019-08-07 16:21:06:603
3.2792,-8.9472,1.291,0.2001,-0.0956,-0.0055,0.0282,0.0366,-0.0158,144,2019-08-07 16:21:06:608
3.2792,-8.9472,1.291,0.2001,-0.0956,-0.0055,0.0282,0.0366,-0.0158,148,2019-08-07 16:21:06:612
3.3174,-8.9091,1.3381,0.1304,-0.1084,0.0089,0.0144,-0.0017,-0.0265,154,2019-08-07 16:21:06:618
3.3174,-8.9091,1.3381,0.1304,-0.1084,0.0089,0.0144,-0.0017,-0.0265,159,2019-08-07 16:21:06:623
3.4083,-9.0284,1.324,0.1304,-0.1084,0.0089,0.0059,-0.0188,-0.035,164,2019-08-07 16:21:06:628
3.4083,-9.0284,1.324,0.1304,-0.1084,0.0089,0.0059,-0.0188,-0.035,169,2019-08-07 16:21:06:633
3.4083,-9.0284,1.324,0.1304,-0.1084,0.0089,0.0048,-0.0326,-0.0446,174,2019-08-07 16:21:06:638
3.461,-9.1048,1.3806,0.0276,0.0375,-0.0203,0.0048,-0.0326,-0.0446,179,2019-08-07 16:21:06:643
3.461,-9.1048,1.3806,0.0276,0.0375,-0.0203,0.0112,-0.0454,-0.0446,184,2019-08-07 16:21:06:648
3.461,-9.1048,1.3806,0.0276,0.0375,-0.0203,0.0112,-0.0454,-0.0446,189,2019-08-07 16:21:06:653
3.5758,-9.0809,1.2014,0.0276,0.0375,-0.0203,0.0144,-0.0486,-0.0552,194,2019-08-07 16:21:06:658
3.5758,-9.0809,1.2014,-0.1148,0.0222,0.0673,0.0144,-0.0486,-0.0552,198,2019-08-07 16:21:06:662
3.6475,-9.0284,1.3806,-0.1148,0.0222,0.0673,0.0218,-0.0305,-0.052,204,2019-08-07 16:21:06:668
3.6475,-9.0284,1.3806,-0.1148,0.0222,0.0673,0.0218,-0.0305,-0.052,208,2019-08-07 16:21:06:672
3.6762,-8.9568,1.2674,-0.1148,0.0222,0.0673,0.0272,-0.0273,-0.0446,214,2019-08-07 16:21:06:678
3.6762,-8.9568,1.2674,-0.1708,-0.0401,0.1115,0.0272,-0.0273,-0.0446,219,2019-08-07 16:21:06:683
3.6762,-8.9568,1.2674,-0.1708,-0.0401,0.1115,0.0325,-0.0049,-0.0361,224,2019-08-07 16:21:06:688
3.7145,-8.9854,1.3051,-0.1999,-0.0715,0.057,0.0325,-0.0049,-0.0361,229,2019-08-07 16:21:06:693
3.7145,-8.9854,1.3051,-0.1999,-0.0715,0.057,0.0432,0.0089,-0.0307,234,2019-08-07 16:21:06:698
3.6523,-8.952,1.3476,-0.1999,-0.0715,0.057,0.0432,0.0089,-0.0307,238,2019-08-07 16:21:06:702
3.6523,-8.952,1.3476,-0.1999,-0.0715,0.057,0.0495,0.0132,-0.0307,244,2019-08-07 16:21:06:708
3.6523,-8.952,1.3476,-0.0926,-0.0771,-0.0194,0.0495,0.0132,-0.0307,248,2019-08-07 16:21:06:712
3.6093,-8.9425,1.4607,-0.0926,-0.0771,-0.0194,0.0527,0.0121,-0.0254,254,2019-08-07 16:21:06:718
3.6093,-8.9425,1.4607,-0.0926,-0.0771,-0.0194,0.0527,0.0121,-0.0254,258,2019-08-07 16:21:06:722
3.5519,-8.8852,1.4984,-0.0926,-0.0771,-0.0194,0.0464,0.0015,-0.0222,265,2019-08-07 16:21:06:729
3.5519,-8.8852,1.4984,-0.0015,-0.1643,-0.1172,0.0464,0.0015,-0.0222,269,2019-08-07 16:21:06:733
3.5519,-8.8852,1.4984,-0.0015,-0.1643,-0.1172,0.0464,0.0015,-0.0222,274,2019-08-07 16:21:06:738
3.6093,-8.8374,1.4466,-0.0015,-0.1643,-0.1172,0.0293,-0.0145,-0.0169,279,2019-08-07 16:21:06:743
3.6093,-8.8374,1.4466,-0.0015,-0.1643,-0.1172,0.0293,-0.0145,-0.0169,284,2019-08-07 16:21:06:748
3.638,-8.847,1.4136,-0.1452,-0.1998,-0.0267,0.0165,-0.0251,-0.0158,288,2019-08-07 16:21:06:752
3.638,-8.847,1.4136,-0.1452,-0.1998,-0.0267,0.0165,-0.0251,-0.0158,294,2019-08-07 16:21:06:758
3.638,-8.847,1.4136,-0.1452,-0.1998,-0.0267,0.0048,-0.0294,-0.0222,298,2019-08-07 16:21:06:762
3.681,-8.8947,1.4324,-0.1452,-0.1998,-0.0267,0.0048,-0.0294,-0.0222,304,2019-08-07 16:21:06:768
3.681,-8.8947,1.4324,-0.1729,-0.1546,-0.0269,0.0048,-0.0294,-0.0222,308,2019-08-07 16:21:06:772
3.681,-8.8947,1.4324,-0.1729,-0.1546,-0.0269,5.0E-4,-0.0262,-0.019,314,2019-08-07 16:21:06:778
3.7671,-8.9616,1.3476,-0.1729,-0.1546,-0.0269,0.0016,-0.0145,-0.0137,319,2019-08-07 16:21:06:783
3.7671,-8.9616,1.3476,-0.1729,-0.1546,-0.0269,0.0016,-0.0145,-0.0137,323,2019-08-07 16:21:06:787
3.7193,-9.0427,1.2769,-0.1774,0.0,0.1087,0.0016,-0.0145,-0.0137,329,2019-08-07 16:21:06:793
3.7193,-9.0427,1.2769,-0.1774,0.0,0.1087,0.0069,0.0079,-0.0126,333,2019-08-07 16:21:06:797
3.5806,-8.9807,1.3617,-0.1774,0.0,0.1087,0.0123,0.0324,-0.0137,339,2019-08-07 16:21:06:803
3.5806,-8.9807,1.3617,-0.1774,0.0,0.1087,0.0123,0.0324,-0.0137,344,2019-08-07 16:21:06:808
3.5806,-8.9807,1.3617,0.0022,-0.0844,-0.0484,0.0123,0.0324,-0.0137,348,2019-08-07 16:21:06:812
3.4801,-8.9616,1.4041,0.0022,-0.0844,-0.0484,0.0261,0.0313,-0.0137,354,2019-08-07 16:21:06:818
3.4801,-8.9616,1.4041,0.0022,-0.0844,-0.0484,0.0261,0.0313,-0.0137,359,2019-08-07 16:21:06:823
3.4466,-8.9186,1.4183,0.0022,-0.0844,-0.0484,0.0304,0.0196,-0.0211,365,2019-08-07 16:21:06:829
3.4466,-8.9186,1.4183,0.0812,-0.1397,-0.0083,0.0304,0.0196,-0.0211,369,2019-08-07 16:21:06:833
3.4466,-8.9186,1.4183,0.0812,-0.1397,-0.0083,0.0218,-0.007,-0.0329,374,2019-08-07 16:21:06:838
3.4657,-8.89,1.4418,0.0812,-0.1397,-0.0083,0.0218,-0.007,-0.0329,378,2019-08-07 16:21:06:842
3.4657,-8.89,1.4418,0.0812,-0.1397,-0.0083,0.0155,-0.0251,-0.0446,384,2019-08-07 16:21:06:848
3.4657,-8.89,1.4418,-0.0072,-0.1793,-0.0147,0.0155,-0.0251,-0.0446,388,2019-08-07 16:21:06:852
3.5566,-8.847,1.4183,-0.0072,-0.1793,-0.0147,0.0037,-0.0443,-0.0499,394,2019-08-07 16:21:06:858
3.5566,-8.847,1.4183,-0.0072,-0.1793,-0.0147,0.0037,-0.0443,-0.0499,399,2019-08-07 16:21:06:863
3.681,-8.9377,1.4371,-0.0072,-0.1793,-0.0147,-0.0016,-0.0539,-0.0488,404,2019-08-07 16:21:06:868
3.681,-8.9377,1.4371,-0.1968,-0.0941,-0.0316,-0.0016,-0.0539,-0.0488,409,2019-08-07 16:21:06:873
3.8437,-8.9807,1.4136,-0.1968,-0.0941,-0.0316,-0.0037,-0.0486,-0.0499,414,2019-08-07 16:21:06:878
3.8437,-8.9807,1.4136,-0.1968,-0.0941,-0.0316,-0.0037,-0.0486,-0.0499,419,2019-08-07 16:21:06:883
3.8437,-8.9807,1.4136,-0.1968,-0.0941,-0.0316,-0.0037,-0.0486,-0.0499,424,2019-08-07 16:21:06:888
3.8485,-8.9854,1.3429,-0.2326,-0.0565,0.0779,0.0016,-0.0166,-0.0425,429,2019-08-07 16:21:06:893
3.8485,-8.9854,1.3429,-0.2326,-0.0565,0.0779,0.0016,-0.0166,-0.0425,434,2019-08-07 16:21:06:898
3.7719,-9.0475,1.291,-0.2326,-0.0565,0.0779,0.008,0.0015,-0.0233,439,2019-08-07 16:21:06:903
3.7719,-9.0475,1.291,-0.2326,-0.0565,0.0779,0.008,0.0015,-0.0233,444,2019-08-07 16:21:06:908
3.7719,-9.0475,1.291,-0.1502,0.0224,0.0084,0.0187,0.0132,-0.0137,449,2019-08-07 16:21:06:913
3.748,-9.0618,1.4041,-0.1502,0.0224,0.0084,0.0187,0.0132,-0.0137,454,2019-08-07 16:21:06:918
3.748,-9.0618,1.4041,-0.1502,0.0224,0.0084,0.0261,0.0217,-0.0084,459,2019-08-07 16:21:06:923
3.7145,-8.9425,1.4277,-0.1502,0.0224,0.0084,0.0261,0.0217,-0.0084,464,2019-08-07 16:21:06:928
3.7145,-8.9425,1.4277,-0.0669,-0.0666,-0.0135,0.0261,0.0302,-0.0052,468,2019-08-07 16:21:06:932
3.7145,-8.9425,1.4277,-0.0669,-0.0666,-0.0135,0.0261,0.0302,-0.0052,474,2019-08-07 16:21:06:938
3.6619,-8.9138,1.39,-0.0669,-0.0666,-0.0135,0.0112,0.0324,2.0E-4,479,2019-08-07 16:21:06:943
3.6619,-8.9138,1.39,-0.0669,-0.0666,-0.0135,0.0112,0.0324,2.0E-4,484,2019-08-07 16:21:06:948
3.6045,-8.9186,1.489,-0.0195,-0.1042,-0.0842,-0.0058,0.0302,0.0087,489,2019-08-07 16:21:06:953
3.6045,-8.9186,1.489,-0.0195,-0.1042,-0.0842,-0.0058,0.0302,0.0087,494,2019-08-07 16:21:06:958
3.6045,-8.9186,1.489,-0.0195,-0.1042,-0.0842,-0.0176,0.0271,0.0097,499,2019-08-07 16:21:06:963
3.681,-8.952,1.4324,-0.0195,-0.1042,-0.0842,-0.0176,0.0271,0.0097,504,2019-08-07 16:21:06:968
3.681,-8.952,1.4324,-0.0195,-0.1042,-0.0842,-0.0176,0.0271,0.0097,509,2019-08-07 16:21:06:973
3.681,-8.952,1.4324,-0.16,-0.0859,0.0046,-0.0325,0.0089,0.0183,514,2019-08-07 16:21:06:978
3.7384,-8.9902,1.3947,-0.16,-0.0859,0.0046,-0.0325,0.0089,0.0183,519,2019-08-07 16:21:06:983
3.7384,-8.9902,1.3947,-0.16,-0.0859,0.0046,-0.041,0.0143,0.0151,524,2019-08-07 16:21:06:988
3.7719,-8.9854,1.324,-0.16,-0.0859,0.0046,-0.041,0.0143,0.0151,529,2019-08-07 16:21:06:993
3.7719,-8.9854,1.324,-0.1905,-0.0399,0.0923,-0.0421,0.0207,0.0129,533,2019-08-07 16:21:06:997
3.7719,-8.9854,1.324,-0.1905,-0.0399,0.0923,-0.0421,0.0207,0.0129,539,2019-08-07 16:21:07:003
3.7528,-8.952,1.3476,-0.1905,-0.0399,0.0923,-0.0335,0.0271,0.0204,544,2019-08-07 16:21:07:008
3.7528,-8.952,1.3476,-0.1905,-0.0399,0.0923,-0.0335,0.0271,0.0204,549,2019-08-07 16:21:07:013
3.7719,-8.9854,1.3476,-0.1931,-0.0368,0.0549,-0.0165,0.0398,0.0193,554,2019-08-07 16:21:07:018
3.7719,-8.9854,1.3476,-0.1931,-0.0368,0.0549,-0.0165,0.0398,0.0193,558,2019-08-07 16:21:07:022
3.7719,-8.9854,1.3476,-0.1931,-0.0368,0.0549,-0.0037,0.0462,0.0172,564,2019-08-07 16:21:07:028
3.7815,-8.847,1.2816,-0.1931,-0.0368,0.0549,-0.0037,0.0462,0.0172,569,2019-08-07 16:21:07:033
3.7815,-8.847,1.2816,-0.172,-0.1712,0.0432,0.0048,0.0697,0.0097,574,2019-08-07 16:21:07:038
3.6428,-8.8422,1.3617,-0.172,-0.1712,0.0432,0.0048,0.0697,0.0097,578,2019-08-07 16:21:07:042
3.6428,-8.8422,1.3617,-0.172,-0.1712,0.0432,0.0037,0.0803,0.0044,584,2019-08-07 16:21:07:048
3.6428,-8.8422,1.3617,-0.172,-0.1712,0.0432,0.0037,0.0803,0.0044,588,2019-08-07 16:21:07:052
3.5901,-8.804,1.4324,-0.0166,-0.2237,-0.0306,-0.009,0.0803,0.0044,594,2019-08-07 16:21:07:058
3.5901,-8.804,1.4324,-0.0166,-0.2237,-0.0306,-0.009,0.0803,0.0044,599,2019-08-07 16:21:07:063
3.571,-8.9091,1.4418,-0.0166,-0.2237,-0.0306,-0.0229,0.0665,-0.0084,605,2019-08-07 16:21:07:069
3.571,-8.9091,1.4418,-0.0166,-0.2237,-0.0306,-0.0229,0.0665,-0.0084,609,2019-08-07 16:21:07:073
3.571,-8.9091,1.4418,0.0349,-0.0711,-0.052,-0.0293,0.0516,-0.0169,614,2019-08-07 16:21:07:078
3.5662,-8.9043,1.4371,0.0349,-0.0711,-0.052,-0.0293,0.0516,-0.0169,618,2019-08-07 16:21:07:082
3.5662,-8.9043,1.4371,0.0349,-0.0711,-0.052,-0.0399,0.0452,-0.0275,624,2019-08-07 16:21:07:088
3.5662,-8.9043,1.4371,0.0349,-0.0711,-0.052,-0.0399,0.0452,-0.0275,628,2019-08-07 16:21:07:092
3.6045,-8.9281,1.4748,-0.0287,-0.1275,-0.0357,-0.0453,0.0441,-0.0329,634,2019-08-07 16:21:07:098
3.6045,-8.9281,1.4748,-0.0287,-0.1275,-0.0357,-0.0453,0.0441,-0.0329,639,2019-08-07 16:21:07:103
3.6284,-8.9425,1.3994,-0.0287,-0.1275,-0.0357,-0.0421,0.0441,-0.035,644,2019-08-07 16:21:07:108
3.6284,-8.9425,1.3994,-0.0287,-0.1275,-0.0357,-0.0421,0.0441,-0.035,649,2019-08-07 16:21:07:113
3.6284,-8.9425,1.3994,-0.1234,-0.1259,0.0161,-0.0421,0.0441,-0.035,654,2019-08-07 16:21:07:118
3.6906,-8.847,1.3617,-0.1234,-0.1259,0.0161,-0.0421,0.0569,-0.0425,659,2019-08-07 16:21:07:123
3.6906,-8.847,1.3617,-0.1234,-0.1259,0.0161,-0.0421,0.0569,-0.0425,665,2019-08-07 16:21:07:129
3.6906,-8.847,1.3617,-0.1234,-0.1259,0.0161,-0.0421,0.0537,-0.0403,668,2019-08-07 16:21:07:132
3.681,-8.8613,1.4088,-0.1115,-0.1619,0.0121,-0.0421,0.0537,-0.0403,674,2019-08-07 16:21:07:138
3.681,-8.8613,1.4088,-0.1115,-0.1619,0.0121,-0.041,0.0547,-0.0371,678,2019-08-07 16:21:07:142
3.7289,-8.89,1.2957,-0.1115,-0.1619,0.0121,-0.041,0.0547,-0.0371,684,2019-08-07 16:21:07:148
3.7289,-8.89,1.2957,-0.1115,-0.1619,0.0121,-0.0442,0.0697,-0.035,689,2019-08-07 16:21:07:153
3.7289,-8.89,1.2957,-0.1387,-0.1123,0.0691,-0.0442,0.0697,-0.035,694,2019-08-07 16:21:07:158
3.7241,-8.9377,1.291,-0.1387,-0.1123,0.0691,-0.0442,0.0697,-0.035,699,2019-08-07 16:21:07:163
3.7241,-8.9377,1.291,-0.1387,-0.1123,0.0691,-0.0506,0.0761,-0.0222,703,2019-08-07 16:21:07:167
3.6715,-8.9472,1.2816,-0.1387,-0.1123,0.0691,-0.0506,0.0761,-0.0222,709,2019-08-07 16:21:07:173
3.6715,-8.9472,1.2816,-0.0205,-0.0544,0.1117,-0.0559,0.0771,-0.018,714,2019-08-07 16:21:07:178
3.6284,-8.9759,1.291,-0.0205,-0.0544,0.1117,-0.0559,0.0771,-0.018,719,2019-08-07 16:21:07:183
3.6284,-8.9759,1.291,-0.0205,-0.0544,0.1117,-0.0548,0.0856,-0.0233,724,2019-08-07 16:21:07:188
3.6284,-8.9759,1.291,-0.0205,-0.0544,0.1117,-0.0548,0.0856,-0.0233,729,2019-08-07 16:21:07:193
3.5758,-8.9711,1.2816,0.0244,-0.0496,0.0973,-0.058,0.0856,-0.0211,734,2019-08-07 16:21:07:198
3.5758,-8.9711,1.2816,0.0244,-0.0496,0.0973,-0.058,0.0856,-0.0211,738,2019-08-07 16:21:07:202
3.5758,-8.9711,1.2816,0.0244,-0.0496,0.0973,-0.0485,0.0942,-0.0211,744,2019-08-07 16:21:07:208
3.5279,-9.0236,1.2769,0.0244,-0.0496,0.0973,-0.0485,0.0942,-0.0211,748,2019-08-07 16:21:07:212
3.5279,-9.0236,1.2769,0.1165,-0.0496,0.0658,-0.0485,0.0942,-0.0211,754,2019-08-07 16:21:07:218
3.4466,-8.9472,1.3429,0.1165,-0.0496,0.0658,-0.0367,0.1027,-0.0265,758,2019-08-07 16:21:07:222
3.4466,-8.9472,1.3429,0.1508,-0.0493,0.0376,-0.0367,0.1027,-0.0265,765,2019-08-07 16:21:07:229
3.4466,-8.9472,1.3429,0.1508,-0.0493,0.0376,-0.0389,0.0963,-0.035,768,2019-08-07 16:21:07:232
3.4322,-8.9425,1.2721,0.1508,-0.0493,0.0376,-0.0389,0.0963,-0.035,774,2019-08-07 16:21:07:238
3.4322,-8.9425,1.2721,0.1508,-0.0493,0.0376,-0.0325,0.0803,-0.0414,778,2019-08-07 16:21:07:242
3.394,-8.8374,1.2769,0.212,-0.1815,0.0985,-0.0325,0.0803,-0.0414,784,2019-08-07 16:21:07:248
3.394,-8.8374,1.2769,0.212,-0.1815,0.0985,-0.0335,0.0643,-0.052,788,2019-08-07 16:21:07:252
3.394,-8.8374,1.2769,0.212,-0.1815,0.0985,-0.0335,0.0643,-0.052,794,2019-08-07 16:21:07:258
3.4514,-8.8231,1.2156,0.212,-0.1815,0.0985,-0.0367,0.0611,-0.0552,799,2019-08-07 16:21:07:263
3.4514,-8.8231,1.2156,0.1428,-0.2028,0.1995,-0.0367,0.0611,-0.0552,803,2019-08-07 16:21:07:267
3.4514,-8.8231,1.2156,0.1428,-0.2028,0.1995,-0.0431,0.0654,-0.0542,809,2019-08-07 16:21:07:273
3.504,-8.8613,1.1072,0.1428,-0.2028,0.1995,-0.0431,0.0654,-0.0542,814,2019-08-07 16:21:07:278
3.504,-8.8613,1.1072,0.1428,-0.2028,0.1995,-0.0474,0.075,-0.0499,819,2019-08-07 16:21:07:283
3.504,-9.0905,1.0742,0.1357,0.0762,0.2938,-0.0474,0.075,-0.0499,825,2019-08-07 16:21:07:289
3.4849,-9.0905,1.0742,0.1357,0.0762,0.2938,-0.0474,0.075,-0.0499,829,2019-08-07 16:21:07:293
3.4849,-9.0905,1.0742,0.1357,0.0762,0.2938,-0.0495,0.0856,-0.0435,834,2019-08-07 16:21:07:298
3.3031,-9.4151,1.1166,0.1357,0.0762,0.2938,-0.0495,0.0856,-0.0435,839,2019-08-07 16:21:07:303
3.3031,-9.4151,1.1166,0.3296,0.468,0.2275,-0.0463,0.092,-0.0361,844,2019-08-07 16:21:07:308
3.3031,-9.4151,1.1166,0.3296,0.468,0.2275,-0.0463,0.092,-0.0361,849,2019-08-07 16:21:07:313
3.1787,-9.7588,1.1543,0.3296,0.468,0.2275,-0.0314,0.0878,-0.0286,854,2019-08-07 16:21:07:318
3.1787,-9.7588,1.1543,0.3296,0.468,0.2275,-0.0314,0.0878,-0.0286,859,2019-08-07 16:21:07:323
3.1308,-9.9879,1.1779,0.4846,0.9918,0.1139,-0.008,0.0803,-0.0073,865,2019-08-07 16:21:07:329
3.1308,-9.9879,1.1779,0.4846,0.9918,0.1139,-0.008,0.0803,-0.0073,868,2019-08-07 16:21:07:332
3.1308,-9.9879,1.1779,0.4846,0.9918,0.1139,-0.008,0.0803,-0.0073,874,2019-08-07 16:21:07:338
3.1069,-10.1598,1.3146,0.4846,0.9918,0.1139,0.04,0.0792,0.0225,879,2019-08-07 16:21:07:343
3.1069,-10.1598,1.3146,0.4491,1.2896,0.0916,0.04,0.0792,0.0225,884,2019-08-07 16:21:07:348
3.1356,-10.3746,1.2627,0.4491,1.2896,0.0916,0.0826,0.0856,0.0492,889,2019-08-07 16:21:07:353
3.1356,-10.3746,1.2627,0.4491,1.2896,0.0916,0.0826,0.0856,0.0492,894,2019-08-07 16:21:07:358
3.1356,-10.3746,1.2627,0.4491,1.2896,0.0916,0.1135,0.1048,0.0801,898,2019-08-07 16:21:07:362
3.0878,-10.6419,1.1637,0.4491,1.2896,0.0916,0.1135,0.1048,0.0801,904,2019-08-07 16:21:07:368
3.0878,-10.6419,1.1637,0.4783,1.7185,0.2015,0.1316,0.1368,0.1173,908,2019-08-07 16:21:07:372
3.0878,-10.8854,1.2721,0.4783,1.7185,0.2015,0.1316,0.1368,0.1173,914,2019-08-07 16:21:07:378
3.0352,-10.8854,1.2721,0.4783,1.7185,0.2015,0.1518,0.1602,0.1568,919,2019-08-07 16:21:07:383
3.0352,-10.8854,1.2721,0.4783,1.7185,0.2015,0.1518,0.1602,0.1568,924,2019-08-07 16:21:07:388
2.839,-11.2291,1.2062,0.6104,2.1714,0.1721,0.1752,0.1677,0.2004,929,2019-08-07 16:21:07:393
2.839,-11.2291,1.2062,0.6104,2.1714,0.1721,0.1752,0.1677,0.2004,933,2019-08-07 16:21:07:397
2.839,-11.2291,1.2062,0.6104,2.1714,0.1721,0.1774,0.1762,0.2409,939,2019-08-07 16:21:07:403
2.5185,-11.6206,1.3051,0.6104,2.1714,0.1721,0.1774,0.1762,0.2409,943,2019-08-07 16:21:07:407
2.5185,-11.6206,1.3051,1.1879,2.7185,0.1286,0.171,0.1368,0.2771,949,2019-08-07 16:21:07:413
1.9683,-12.2316,1.5078,1.1879,2.7185,0.1286,0.171,0.1368,0.2771,954,2019-08-07 16:21:07:418
1.9683,-12.2316,1.5078,1.1879,2.7185,0.1286,0.1763,0.075,0.3261,959,2019-08-07 16:21:07:423
1.9683,-12.2316,1.5078,1.1879,2.7185,0.1286,0.1763,0.075,0.3261,964,2019-08-07 16:21:07:428
1.4181,-13.5397,2.1772,1.9904,4.4663,-0.6629,0.2424,0.0153,0.389,968,2019-08-07 16:21:07:432
1.4181,-13.5397,2.1772,1.9904,4.4663,-0.6629,0.2424,0.0153,0.389,974,2019-08-07 16:21:07:438
1.4181,-13.5397,2.1772,1.9904,4.4663,-0.6629,0.3659,-0.0241,0.4731,979,2019-08-07 16:21:07:443
0.9492,-15.7022,3.5819,1.9904,4.4663,-0.6629,0.3659,-0.0241,0.4731,983,2019-08-07 16:21:07:447
0.9492,-15.7022,3.5819,2.5492,8.2773,-2.9349,0.645,-0.0049,0.6191,989,2019-08-07 16:21:07:453
0.667,-18.5474,5.0856,2.5492,8.2773,-2.9349,0.645,-0.0049,0.6191,993,2019-08-07 16:21:07:457
0.667,-18.5474,5.0856,2.5492,8.2773,-2.9349,0.9284,0.1283,0.8023,999,2019-08-07 16:21:07:463
0.667,-21.6361,6.1321,2.5492,8.2773,-2.9349,0.9284,0.1283,0.8023,1004,2019-08-07 16:21:07:468
0.667,-21.6361,6.1321,2.4645,13.1677,-4.5603,1.1926,0.3637,1.0441,1009,2019-08-07 16:21:07:473
0.667,-21.6361,6.1321,2.4645,13.1677,-4.5603,1.1926,0.3637,1.0441,1014,2019-08-07 16:21:07:478
0.7722,-25.2307,6.9806,2.4645,13.1677,-4.5603,1.4376,0.6907,1.3403,1019,2019-08-07 16:21:07:483
0.7722,-25.2307,6.9806,2.4645,13.1677,-4.5603,1.4376,0.6907,1.3403,1024,2019-08-07 16:21:07:488
0.7722,-25.2307,6.9806,2.3459,19.0106,-5.033,1.4376,0.6907,1.3403,1029,2019-08-07 16:21:07:493
0.4277,-28.94,6.9429,2.3459,19.0106,-5.033,1.6954,1.1946,1.6652,1033,2019-08-07 16:21:07:497
0.4277,-28.94,6.9429,2.3459,19.0106,-5.033,1.9351,1.8401,2.0199,1039,2019-08-07 16:21:07:503
-0.9358,-32.9261,6.2782,2.3459,19.0106,-5.033,1.9351,1.8401,2.0199,1044,2019-08-07 16:21:07:508
-0.9358,-32.9261,6.2782,3.8607,24.825,-3.5881,2.1428,2.5485,2.4609,1049,2019-08-07 16:21:07:513
-0.9358,-32.9261,6.2782,3.8607,24.825,-3.5881,2.1428,2.5485,2.4609,1054,2019-08-07 16:21:07:518
-1.1176,-35.0218,5.722,3.8607,24.825,-3.5881,2.3303,3.568,2.8764,1059,2019-08-07 16:21:07:523
-1.1176,-35.0218,5.722,3.8607,24.825,-3.5881,2.3303,3.568,2.8764,1064,2019-08-07 16:21:07:528
1.9922,-33.4465,4.1853,-0.27,24.2707,-1.1727,2.3303,3.568,2.8764,1069,2019-08-07 16:21:07:533
1.9922,-33.4465,4.1853,-0.27,24.2707,-1.1727,2.3175,4.7068,3.1395,1074,2019-08-07 16:21:07:538
1.9922,-33.4465,4.1853,-0.27,24.2707,-1.1727,2.3175,4.7068,3.1395,1079,2019-08-07 16:21:07:543
4.3508,-30.353,-1.4901,-0.27,24.2707,-1.1727,1.8637,6.3462,3.2524,1083,2019-08-07 16:21:07:547
4.3508,-30.353,-1.4901,-2.9525,19.114,7.0229,1.8637,6.3462,3.2524,1089,2019-08-07 16:21:07:553
2.6046,-27.4935,-4.6955,-2.9525,19.114,7.0229,0.8613,8.5172,3.3994,1094,2019-08-07 16:21:07:558
2.6046,-27.4935,-4.6955,-2.9525,19.114,7.0229,0.8613,8.5172,3.3994,1099,2019-08-07 16:21:07:563
-0.0602,-27.5938,-6.7366,-2.9525,19.114,7.0229,0.8613,8.5172,3.3994,1105,2019-08-07 16:21:07:569
-0.0602,-27.5938,-6.7366,-2.9525,19.114,7.0229,0.0655,10.7521,3.4857,1109,2019-08-07 16:21:07:573
-0.0602,-27.5938,-6.7366,0.396,18.5815,10.5431,0.0655,10.7521,3.4857,1114,2019-08-07 16:21:07:578
-5.0119,-28.4197,-7.6087,0.396,18.5815,10.5431,-0.4075,11.99,3.3632,1119,2019-08-07 16:21:07:583
-5.0119,-28.4197,-7.6087,0.396,18.5815,10.5431,-0.4075,11.99,3.3632,1124,2019-08-07 16:21:07:588
-5.0119,-28.4197,-7.6087,7.6125,20.1172,12.6448,-0.6812,12.8081,3.0521,1129,2019-08-07 16:21:07:593
-10.4755,-29.9282,-9.7582,7.6125,20.1172,12.6448,-0.6812,12.8081,3.0521,1134,2019-08-07 16:21:07:598
-10.4755,-29.9282,-9.7582,7.6125,20.1172,12.6448,-0.2349,14.2046,1.8782,1139,2019-08-07 16:21:07:603
-10.4755,-29.9282,-9.7582,7.6125,20.1172,12.6448,-0.2349,14.2046,1.8782,1143,2019-08-07 16:21:07:607
-10.1837,-29.7468,0.32,5.0472,19.4271,-2.5596,-0.2349,14.2046,1.8782,1149,2019-08-07 16:21:07:613
-10.1837,-29.7468,0.32,5.0472,19.4271,-2.5596,2.0043,13.6124,-0.6923,1153,2019-08-07 16:21:07:617
-10.1837,-29.7468,0.32,5.0472,19.4271,-2.5596,2.0043,13.6124,-0.6923,1159,2019-08-07 16:21:07:623
-4.3326,-23.4787,8.4937,0.9927,14.5035,-6.3662,4.4672,10.8139,-3.0156,1164,2019-08-07 16:21:07:628
-4.3326,-23.4787,8.4937,0.9927,14.5035,-6.3662,4.4672,10.8139,-3.0156,1169,2019-08-07 16:21:07:633
-4.4283,-13.468,-4.6248,0.9927,14.5035,-6.3662,6.7117,7.7119,-5.1184,1174,2019-08-07 16:21:07:638
-4.4283,-13.468,-4.6248,0.9927,14.5035,-6.3662,6.7117,7.7119,-5.1184,1179,2019-08-07 16:21:07:643
-4.4283,-13.468,-4.6248,2.3509,-0.0049,11.7544,7.7983,7.2804,-6.1752,1185,2019-08-07 16:21:07:649
-12.772,16.946,-17.3474,2.3509,-0.0049,11.7544,7.7983,7.2804,-6.1752,1189,2019-08-07 16:21:07:653
-12.772,16.946,-17.3474,2.3509,-0.0049,11.7544,7.7983,7.2804,-6.1752,1194,2019-08-07 16:21:07:658
-12.772,16.946,-17.3474,19.8354,-64.9545,-10.8996,0.6653,2.9331,-5.3794,1199,2019-08-07 16:21:07:663
-22.1587,55.9385,13.99,19.8354,-64.9545,-10.8996,0.6653,2.9331,-5.3794,1204,2019-08-07 16:21:07:668
-22.1587,55.9385,13.99,19.8354,-64.9545,-10.8996,5.411,2.0766,-2.9719,1208,2019-08-07 16:21:07:672
-7.5715,77.3539,32.9678,19.8354,-64.9545,-10.8996,10.0215,-3.9134,-0.917,1214,2019-08-07 16:21:07:678
-7.5715,77.3539,32.9678,-6.9692,-66.334,5.7656,10.0215,-3.9134,-0.917,1219,2019-08-07 16:21:07:683
-7.5715,77.3539,32.9678,-6.9692,-66.334,5.7656,10.0215,-3.9134,-0.917,1224,2019-08-07 16:21:07:688
17.608,56.1868,7.1833,-6.9692,-66.334,5.7656,7.8643,-6.5531,-0.3034,1229,2019-08-07 16:21:07:693
17.608,56.1868,7.1833,-6.9692,-66.334,5.7656,7.8643,-6.5531,-0.3034,1234,2019-08-07 16:21:07:698
17.608,56.1868,7.1833,-6.9692,-66.334,5.7656,6.4049,-3.7919,2.7475,1239,2019-08-07 16:21:07:703
35.7306,47.36,-12.3743,-37.1228,-55.0807,18.264,6.4049,-3.7919,2.7475,1244,2019-08-07 16:21:07:708
35.7306,47.36,-12.3743,-37.1228,-55.0807,18.264,3.1729,1.3384,3.1651,1249,2019-08-07 16:21:07:713
35.8885,31.2913,-32.8134,-37.1228,-55.0807,18.264,3.1729,1.3384,3.1651,1253,2019-08-07 16:21:07:717
35.8885,31.2913,-32.8134,-37.1228,-55.0807,18.264,-0.9507,6.8064,1.5384,1259,2019-08-07 16:21:07:723
35.8885,31.2913,-32.8134,-16.6733,-40.6698,40.7633,-0.9507,6.8064,1.5384,1265,2019-08-07 16:21:07:729
4.834,32.6996,-28.6087,-16.6733,-40.6698,40.7633,-0.9507,6.8064,1.5384,1269,2019-08-07 16:21:07:733
4.834,32.6996,-28.6087,-16.6733,-40.6698,40.7633,-4.7825,11.3657,0.7299,1274,2019-08-07 16:21:07:738
4.834,32.6996,-28.6087,-16.6733,-40.6698,40.7633,-4.7825,11.3657,0.7299,1279,2019-08-07 16:21:07:743
-12.8724,27.6918,38.4264,12.5891,-35.5745,-34.9551,-5.5921,10.3015,0.3442,1285,2019-08-07 16:21:07:749
-12.8724,27.6918,38.4264,12.5891,-35.5745,-34.9551,-5.5921,10.3015,0.3442,1289,2019-08-07 16:21:07:753
-21.9577,18.3924,5.4297,18.2447,-26.3142,-0.9919,-3.7492,3.5211,0.928,1294,2019-08-07 16:21:07:758
-21.9577,18.3924,5.4297,18.2447,-26.3142,-0.9919,-3.7492,3.5211,0.928,1300,2019-08-07 16:21:07:764
-21.9577,18.3924,5.4297,18.2447,-26.3142,-0.9919,-2.6903,1.1967,1.5736,1303,2019-08-07 16:21:07:767
-13.8197,8.9355,8.1025,18.2447,-26.3142,-0.9919,-2.6903,1.1967,1.5736,1309,2019-08-07 16:21:07:773
-13.8197,8.9355,8.1025,6.1781,-15.5957,-0.2732,-3.1335,-3.1954,1.1261,1314,2019-08-07 16:21:07:778
-8.0356,6.6536,-4.1346,6.1781,-15.5957,-0.2732,-3.1335,-3.1954,1.1261,1319,2019-08-07 16:21:07:783
-8.0356,6.6536,-4.1346,6.1781,-15.5957,-0.2732,-3.1335,-3.1954,1.1261,1324,2019-08-07 16:21:07:788
-8.0356,6.6536,-4.1346,6.1781,-15.5957,-0.2732,-4.3905,-6.8631,0.3687,1329,2019-08-07 16:21:07:793
-7.6098,7.3028,-4.9925,3.6497,-15.5191,8.6046,-4.3905,-6.8631,0.3687,1334,2019-08-07 16:21:07:798
-7.6098,7.3028,-4.9925,3.6497,-15.5191,8.6046,-5.2171,-8.0285,0.3368,1339,2019-08-07 16:21:07:803
-6.1075,5.5318,-4.7474,2.3718,-13.9103,8.2232,-5.2171,-8.0285,0.3368,1344,2019-08-07 16:21:07:808
-6.1075,5.5318,-4.7474,2.3718,-13.9103,8.2232,-5.2661,-6.6021,0.4859,1349,2019-08-07 16:21:07:813
-6.1075,5.5318,-4.7474,2.3718,-13.9103,8.2232,-5.2661,-6.6021,0.4859,1354,2019-08-07 16:21:07:818
-6.1075,5.5318,-4.7474,2.3718,-13.9103,8.2232,-5.2661,-6.6021,0.4859,1359,2019-08-07 16:21:07:823
0.0881,-1.3044,1.8944,-4.064,-5.221,3.1229,-4.2605,-6.5531,0.1291,1365,2019-08-07 16:21:07:829
0.0881,-1.3044,1.8944,-4.064,-5.221,3.1229,-4.2605,-6.5531,0.1291,1368,2019-08-07 16:21:07:832
1.796,-7.8015,0.4944,-4.064,-5.221,3.1229,-3.9814,-6.5435,-0.2843,1374,2019-08-07 16:21:07:838
1.796,-7.8015,0.4944,-4.064,-5.221,3.1229,-3.9814,-6.5435,-0.2843,1379,2019-08-07 16:21:07:843
1.796,-7.8015,0.4944,-5.9765,4.4248,-0.7623,-3.5159,-6.2537,-0.5602,1384,2019-08-07 16:21:07:848
3.437,-15.8645,2.7664,-5.9765,4.4248,-0.7623,-3.5159,-6.2537,-0.5602,1388,2019-08-07 16:21:07:852
3.437,-15.8645,2.7664,-5.9765,4.4248,-0.7623,-2.5209,-4.5525,-1.0672,1394,2019-08-07 16:21:07:858
4.724,-43.7818,-4.9972,-5.9765,4.4248,-0.7623,-2.5209,-4.5525,-1.0672,1400,2019-08-07 16:21:07:864
4.724,-43.7818,-4.9972,-5.3777,40.2524,4.5129,-2.5209,-4.5525,-1.0672,1404,2019-08-07 16:21:07:868
4.724,-43.7818,-4.9972,-5.3777,40.2524,4.5129,-2.7606,-3.0899,-1.2909,1409,2019-08-07 16:21:07:873
4.724,-43.7818,-4.9972,-5.3777,13.7331,-4.4018,-2.7606,-3.0899,-1.2909,1414,2019-08-07 16:21:07:878
-8.4422,-22.987,6.8109,6.2521,13.7331,-4.4018,-1.9915,-2.9908,-0.7285,1419,2019-08-07 16:21:07:883
-8.4422,-22.987,6.8109,6.2521,13.7331,-4.4018,-1.9915,-2.9908,-0.7285,1424,2019-08-07 16:21:07:888
-7.8873,-18.915,13.5846,6.2521,13.7331,-4.4018,1.2448,-3.7717,-0.165,1429,2019-08-07 16:21:07:893
-7.8873,-18.915,13.5846,6.1779,13.2905,-10.0082,1.2448,-3.7717,-0.165,1434,2019-08-07 16:21:07:898
-7.8873,-18.915,13.5846,6.1779,13.2905,-10.0082,3.1495,-6.0631,-0.7956,1439,2019-08-07 16:21:07:903
-10.7626,-30.797,-0.2834,6.1779,13.2905,-10.0082,3.1495,-6.0631,-0.7956,1443,2019-08-07 16:21:07:907
-10.7626,-30.797,-0.2834,6.1779,13.2905,-10.0082,2.1481,-8.7827,-1.6329,1448,2019-08-07 16:21:07:912
-10.7626,-30.797,-0.2834,10.3832,12.7559,14.0109,2.1481,-8.7827,-1.6329,1454,2019-08-07 16:21:07:918
-10.8296,-19.9557,-10.5784,10.3832,12.7559,14.0109,2.1481,-8.7827,-1.6329,1458,2019-08-07 16:21:07:922
-10.8296,-19.9557,-10.5784,10.3832,12.7559,14.0109,-1.6666,-7.6631,-1.4976,1464,2019-08-07 16:21:07:928
-3.6245,-21.1873,-0.1231,6.1704,9.5913,9.0512,-1.6666,-7.6631,-1.4976,1470,2019-08-07 16:21:07:934
-3.6245,-21.1873,-0.1231,6.1704,9.5913,9.0512,-4.3574,-9.9193,-0.9533,1474,2019-08-07 16:21:07:938
-3.6245,-21.1873,-0.1231,6.1704,9.5913,9.0512,-4.3574,-9.9193,-0.9533,1478,2019-08-07 16:21:07:942
0.7244,-29.1739,1.3476,-1.9078,19.8527,3.1548,-3.3359,-8.6751,-1.1461,1484,2019-08-07 16:21:07:948
0.7244,-29.1739,1.3476,-1.9078,19.8527,3.1548,-3.3359,-8.6751,-1.1461,1489,2019-08-07 16:21:07:953
2.8581,-26.6677,1.3523,-1.9078,19.8527,3.1548,-2.1364,-6.5669,-1.5605,1493,2019-08-07 16:21:07:957
2.8581,-26.6677,1.3523,-1.9078,19.8527,3.1548,-2.1364,-6.5669,-1.5605,1499,2019-08-07 16:21:07:963
2.8581,-26.6677,1.3523,2.1095,9.9793,-1.9314,0.0975,-4.3736,-1.2664,1504,2019-08-07 16:21:07:968
-2.3854,-18.8434,3.2095,2.1095,9.9793,-1.9314,0.0975,-4.3736,-1.2664,1508,2019-08-07 16:21:07:972
-2.3854,-18.8434,3.2095,2.1095,9.9793,-1.9314,0.0975,-4.3736,-1.2664,1514,2019-08-07 16:21:07:978
-2.5911,-19.9986,-4.2572,2.1095,9.9793,-1.9314,1.4504,-2.3496,-0.2534,1519,2019-08-07 16:21:07:983
-2.5911,-19.9986,-4.2572,2.2226,9.5856,6.296,1.4504,-2.3496,-0.2534,1523,2019-08-07 16:21:07:987
-2.5911,-19.9986,-4.2572,2.2226,9.5856,6.296,0.1774,-1.7892,0.0971,1529,2019-08-07 16:21:07:993
-2.2084,-17.9602,-3.4794,2.2226,9.5856,6.296,0.1774,-1.7892,0.0971,1534,2019-08-07 16:21:07:998
-2.2084,-17.9602,-3.4794,2.2226,9.5856,6.296,-1.1755,-0.7538,0.0076,1539,2019-08-07 16:21:08:003
-2.2084,-17.9602,-3.4794,2.2226,9.5856,6.296,-1.1755,-0.7538,0.0076,1544,2019-08-07 16:21:08:008
-5.5956,-16.2942,6.2216,6.3238,6.7637,-4.0134,-1.2224,-0.5674,-0.018,1549,2019-08-07 16:21:08:013
-5.5956,-16.2942,6.2216,6.3238,6.7637,-4.0134,-1.2224,-0.5674,-0.018,1554,2019-08-07 16:21:08:018
-6.586,-17.6117,5.7927,6.3238,6.7637,-4.0134,-0.5555,-1.0308,0.1876,1558,2019-08-07 16:21:08:022
-6.586,-17.6117,5.7927,5.675,8.379,-3.3194,-0.5555,-1.0308,0.1876,1564,2019-08-07 16:21:08:028
-6.586,-17.6117,5.7927,5.675,8.379,-3.3194,0.269,-1.9884,-0.1319,1569,2019-08-07 16:21:08:033
-3.8685,-16.6808,2.691,5.675,8.379,-3.3194,0.269,-1.9884,-0.1319,1574,2019-08-07 16:21:08:038
-3.8685,-16.6808,2.691,4.6718,6.1627,0.4365,0.4416,-2.4476,-0.4345,1580,2019-08-07 16:21:08:044
-3.8685,-16.6808,2.691,4.6718,6.1627,0.4365,0.4416,-2.4476,-0.4345,1584,2019-08-07 16:21:08:048
-3.2513,-12.0693,1.0082,4.6718,6.1627,0.4365,0.3862,-3.1773,-0.4803,1589,2019-08-07 16:21:08:053
-3.2513,-12.0693,1.0082,4.6718,6.1627,0.4365,0.3862,-3.1773,-0.4803,1593,2019-08-07 16:21:08:057
0.2125,-9.8399,0.7395,1.4371,0.5415,1.1527,0.4362,-3.4169,-0.4739,1599,2019-08-07 16:21:08:063
0.2125,-9.8399,0.7395,1.4371,0.5415,1.1527,0.4362,-3.4169,-0.4739,1604,2019-08-07 16:21:08:068
0.2125,-9.8399,0.7395,1.4371,0.5415,1.1527,0.4362,-3.4169,-0.4739,1609,2019-08-07 16:21:08:073
3.8293,-8.8088,-0.3023,1.4371,0.5415,1.1527,0.5587,-3.0888,-0.6113,1614,2019-08-07 16:21:08:078
3.8293,-8.8088,-0.3023,-3.6425,-1.0513,2.1653,0.5587,-3.0888,-0.6113,1619,2019-08-07 16:21:08:083
3.8293,-8.8088,-0.3023,-3.6425,-1.0513,2.1653,0.6876,-2.52,-0.7828,1623,2019-08-07 16:21:08:087
5.7335,-7.6058,-0.0807,-3.6425,-1.0513,2.1653,0.6876,-2.52,-0.7828,1629,2019-08-07 16:21:08:093
5.7335,-7.6058,-0.0807,-3.6425,-1.0513,2.1653,0.7643,-1.7988,-0.8148,1634,2019-08-07 16:21:08:098
5.7335,-7.6058,-0.0807,-4.3761,-2.4537,2.6451,0.7643,-1.7988,-0.8148,1638,2019-08-07 16:21:08:102
5.2981,-6.4553,-0.6935,-4.3761,-2.4537,2.6451,0.6812,-0.969,-0.672,1644,2019-08-07 16:21:08:108
5.2981,-6.4553,-0.6935,-4.3761,-2.4537,2.6451,0.6812,-0.969,-0.672,1650,2019-08-07 16:21:08:114
5.2981,-6.4553,-0.6935,-4.3761,-2.4537,2.6451,0.3244,-0.0017,-0.2853,1653,2019-08-07 16:21:08:117
3.7624,-5.8634,-0.241,-2.1132,-3.5507,2.4526,0.3244,-0.0017,-0.2853,1659,2019-08-07 16:21:08:123
3.7624,-5.8634,-0.241,-2.1132,-3.5507,2.4526,-0.0165,0.5693,-0.0638,1664,2019-08-07 16:21:08:128
2.973,-6.8324,1.1213,-2.1132,-3.5507,2.4526,-0.0165,0.5693,-0.0638,1668,2019-08-07 16:21:08:132
2.973,-6.8324,1.1213,-2.1132,-3.5507,2.4526,-0.0165,0.5693,-0.0638,1674,2019-08-07 16:21:08:138
2.973,-6.8324,1.1213,-0.0584,-2.1867,-0.3605,-0.2413,0.6896,-0.068,1679,2019-08-07 16:21:08:143
1.2554,-7.305,2.8466,-0.0584,-2.1867,-0.3605,-0.2413,0.6896,-0.068,1684,2019-08-07 16:21:08:148
1.2554,-7.305,2.8466,-0.0584,-2.1867,-0.3605,-0.2466,0.548,-0.116,1689,2019-08-07 16:21:08:153
1.1549,-8.4603,2.79,-0.0584,-2.1867,-0.3605,-0.2466,0.548,-0.116,1694,2019-08-07 16:21:08:158
1.1549,-8.4603,2.79,0.2679,-0.5836,-0.3958,-0.2136,0.4116,-0.2768,1700,2019-08-07 16:21:08:164
1.1549,-8.4603,2.79,0.2679,-0.5836,-0.3958,-0.2136,0.4116,-0.2768,1703,2019-08-07 16:21:08:167
0.954,-8.8136,2.3516,0.2679,-0.5836,-0.3958,-0.2104,0.2305,-0.4462,1709,2019-08-07 16:21:08:173
0.954,-8.8136,2.3516,0.2679,-0.5836,-0.3958,-0.2104,0.2305,-0.4462,1714,2019-08-07 16:21:08:178
1.0497,-9.1191,1.9934,0.8729,-0.4746,0.07,-0.221,0.1251,-0.4377,1718,2019-08-07 16:21:08:182
1.0497,-9.1191,1.9934,0.8729,-0.4746,0.07,-0.221,0.1251,-0.4377,1724,2019-08-07 16:21:08:188
1.0497,-9.1191,1.9934,0.8729,-0.4746,0.07,-0.2157,0.0867,-0.4046,1729,2019-08-07 16:21:08:193
1.753,-9.7779,1.9651,0.8729,-0.4746,0.07,-0.2157,0.0867,-0.4046,1735,2019-08-07 16:21:08:199
1.753,-9.7779,1.9651,-0.0167,0.6617,0.2593,-0.1592,0.1815,-0.41,1739,2019-08-07 16:21:08:203
1.7195,-10.1932,1.8378,-0.0167,0.6617,0.2593,-0.1592,0.1815,-0.41,1744,2019-08-07 16:21:08:208
1.7195,-10.1932,1.8378,0.1218,0.89,0.1589,-0.1102,0.2976,-0.4078,1749,2019-08-07 16:21:08:213
1.5473,-10.303,2.1866,0.1218,0.89,0.1589,-0.1102,0.2976,-0.4078,1754,2019-08-07 16:21:08:218
1.5473,-10.303,2.1866,0.1218,0.89,0.1589,-0.1102,0.2976,-0.4078,1759,2019-08-07 16:21:08:223
1.5473,-10.303,2.1866,0.1218,0.89,0.1589,-0.074,0.336,-0.4281,1764,2019-08-07 16:21:08:228
1.1119,-9.9306,2.3657,0.7735,0.5389,-0.25,-0.074,0.336,-0.4281,1768,2019-08-07 16:21:08:232
1.1119,-9.9306,2.3657,0.7735,0.5389,-0.25,-0.0506,0.2145,-0.4664,1774,2019-08-07 16:21:08:238
1.1119,-9.9306,2.3657,0.7735,0.5389,-0.25,-0.0506,0.2145,-0.4664,1779,2019-08-07 16:21:08:243
1.2411,-9.5965,2.394,0.7735,0.5389,-0.25,-0.0591,0.0654,-0.5037,1784,2019-08-07 16:21:08:248
1.2411,-9.5965,2.394,0.487,0.0344,-0.3248,-0.0591,0.0654,-0.5037,1788,2019-08-07 16:21:08:252
1.7243,-9.4055,2.3422,0.487,0.0344,-0.3248,-0.0698,-0.0955,-0.5144,1794,2019-08-07 16:21:08:258
1.7243,-9.4055,2.3422,0.0056,0.0672,-0.0449,-0.0698,-0.0955,-0.5144,1800,2019-08-07 16:21:08:264
1.7243,-9.4055,2.3422,0.0056,0.0672,-0.0449,-0.0698,-0.0955,-0.5144,1804,2019-08-07 16:21:08:268
2.4754,-9.5535,1.7765,0.0056,0.0672,-0.0449,-0.0623,-0.0965,-0.5005,1809,2019-08-07 16:21:08:273
2.4754,-9.5535,1.7765,0.0056,0.0672,-0.0449,-0.0623,-0.0965,-0.5005,1814,2019-08-07 16:21:08:278
2.6572,-9.6585,1.5455,-0.5387,0.3099,0.5406,-0.0559,-0.0028,-0.4931,1819,2019-08-07 16:21:08:283
2.6572,-9.6585,1.5455,-0.5387,0.3099,0.5406,-0.0559,-0.0028,-0.4931,1824,2019-08-07 16:21:08:288
2.6572,-9.6585,1.5455,-0.5387,0.3099,0.5406,-0.0314,0.1485,-0.4398,1829,2019-08-07 16:21:08:293
2.5328,-9.8113,1.3051,-0.5387,0.3099,0.5406,-0.0314,0.1485,-0.4398,1834,2019-08-07 16:21:08:298
2.5328,-9.8113,1.3051,-0.2656,0.5707,0.8116,-0.0314,0.1485,-0.4398,1838,2019-08-07 16:21:08:302
2.3606,-9.9068,1.1732,-0.2656,0.5707,0.8116,0.0027,0.2678,-0.4036,1844,2019-08-07 16:21:08:308
2.3606,-9.9068,1.1732,-0.2656,0.5707,0.8116,0.0027,0.2678,-0.4036,1849,2019-08-07 16:21:08:313
2.0113,-9.711,1.3381,0.0441,0.5361,0.8713,0.0304,0.3275,-0.3961,1854,2019-08-07 16:21:08:318
2.0113,-9.711,1.3381,0.0441,0.5361,0.8713,0.0304,0.3275,-0.3961,1859,2019-08-07 16:21:08:323
2.0113,-9.711,1.3381,0.0441,0.5361,0.8713,0.0645,0.3104,-0.394,1864,2019-08-07 16:21:08:328
1.5855,-9.4724,1.5267,0.7239,0.1203,0.4485,0.0645,0.3104,-0.394,1869,2019-08-07 16:21:08:333
1.5855,-9.4724,1.5267,0.7239,0.1203,0.4485,0.1156,0.189,-0.4089,1873,2019-08-07 16:21:08:337
1.3845,-9.1764,2.2856,0.7239,0.1203,0.4485,0.1156,0.189,-0.4089,1879,2019-08-07 16:21:08:343
1.3845,-9.1764,2.2856,0.7239,0.1203,0.4485,0.1539,0.0015,-0.4238,1884,2019-08-07 16:21:08:348
1.3845,-9.1764,2.2856,0.7456,-0.3136,-0.2041,0.1539,0.0015,-0.4238,1889,2019-08-07 16:21:08:353
1.7098,-8.9043,2.4034,0.7456,-0.3136,-0.2041,0.1422,-0.1423,-0.4515,1894,2019-08-07 16:21:08:358
1.7098,-8.9043,2.4034,0.7456,-0.3136,-0.2041,0.1422,-0.1423,-0.4515,1899,2019-08-07 16:21:08:363
2.1404,-8.5319,2.13,0.4025,-0.5862,-0.109,0.057,-0.2435,-0.4696,1904,2019-08-07 16:21:08:368
2.1404,-8.5319,2.13,0.4025,-0.5862,-0.109,0.057,-0.2435,-0.4696,1909,2019-08-07 16:21:08:373
2.1404,-8.5319,2.13,0.4025,-0.5862,-0.109,0.057,-0.2435,-0.4696,1914,2019-08-07 16:21:08:378
2.8676,-8.7372,1.9179,-0.4739,-0.4178,0.2394,-0.0048,-0.2254,-0.4686,1919,2019-08-07 16:21:08:383
2.8676,-8.7372,1.9179,-0.4739,-0.4178,0.2394,-0.0048,-0.2254,-0.4686,1924,2019-08-07 16:21:08:388
2.8676,-8.7372,1.9179,-0.4739,-0.4178,0.2394,-0.0208,-0.1221,-0.4739,1929,2019-08-07 16:21:08:393
3.0638,-8.9711,1.7388,-0.4739,-0.4178,0.2394,-0.0208,-0.1221,-0.4739,1934,2019-08-07 16:21:08:398
3.0638,-8.9711,1.7388,-0.4739,-0.4178,0.2394,-0.009,0.0175,-0.4739,1938,2019-08-07 16:21:08:402
3.2169,-8.9902,1.8331,-0.6162,-0.1975,0.3052,-0.009,0.0175,-0.4739,1944,2019-08-07 16:21:08:408
3.2169,-8.9902,1.8331,-0.6162,-0.1975,0.3052,-0.0133,0.0516,-0.4675,1950,2019-08-07 16:21:08:414
3.2169,-8.9902,1.8331,-0.6162,-0.1975,0.3052,-0.0133,0.0516,-0.4675,1954,2019-08-07 16:21:08:418
3.1308,-9.0714,1.588,-0.6162,-0.1975,0.3052,-0.0272,0.124,-0.4632,1959,2019-08-07 16:21:08:423
3.1308,-9.0714,1.588,-0.4367,-0.0439,0.2549,-0.0272,0.124,-0.4632,1964,2019-08-07 16:21:08:428
3.0064,-9.2432,2.328,-0.4367,-0.0439,0.2549,-0.0272,0.124,-0.4632,1968,2019-08-07 16:21:08:432
3.0064,-9.2432,2.328,-0.4367,-0.0439,0.2549,-0.0218,0.1538,-0.4664,1974,2019-08-07 16:21:08:438
3.0064,-9.2432,2.328,-0.4367,-0.0439,0.2549,-0.0218,0.1538,-0.4664,1979,2019-08-07 16:21:08:443
2.9155,-9.2766,2.3186,-0.1445,0.1104,-0.1885,-0.0303,0.1442,-0.4483,1984,2019-08-07 16:21:08:448
2.9155,-9.2766,2.3186,-0.1445,0.1104,-0.1885,-0.0303,0.1442,-0.4483,1988,2019-08-07 16:21:08:452
2.8533,-9.353,2.4694,-0.0446,0.1985,-0.3381,-0.0517,0.124,-0.4164,1994,2019-08-07 16:21:08:458
2.8533,-9.353,2.4694,-0.0446,0.1985,-0.3381,-0.0517,0.124,-0.4164,1999,2019-08-07 16:21:08:463
2.8533,-9.353,2.4694,-0.0446,0.1985,-0.3381,-0.0517,0.124,-0.4164,2004,2019-08-07 16:21:08:468
2.7528,-9.3148,2.5307,-0.0446,0.1985,-0.3381,-0.0911,0.1389,-0.3599,2008,2019-08-07 16:21:08:472
2.7528,-9.3148,2.5307,0.2632,0.208,-0.3415,-0.0911,0.1389,-0.3599,2014,2019-08-07 16:21:08:478
2.5806,-9.353,2.5024,0.2632,0.208,-0.3415,-0.1262,0.0888,-0.3311,2019,2019-08-07 16:21:08:483
2.5806,-9.353,2.5024,0.2632,0.208,-0.3415,-0.1262,0.0888,-0.3311,2024,2019-08-07 16:21:08:488
2.5806,-9.353,2.5024,0.2632,0.208,-0.3415,-0.1422,0.0409,-0.3109,2028,2019-08-07 16:21:08:492
2.7145,-9.5058,2.3893,0.2121,0.3832,-0.28,-0.1422,0.0409,-0.3109,2035,2019-08-07 16:21:08:499
2.7145,-9.5058,2.3893,0.2121,0.3832,-0.28,-0.155,-0.0443,-0.2896,2038,2019-08-07 16:21:08:502
2.9968,-9.5583,2.1065,0.2121,0.3832,-0.28,-0.155,-0.0443,-0.2896,2044,2019-08-07 16:21:08:508
2.9968,-9.5583,2.1065,0.2121,0.3832,-0.28,-0.1539,-0.0912,-0.2704,2049,2019-08-07 16:21:08:513
2.9968,-9.5583,2.1065,-0.1118,0.4601,0.1781,-0.1539,-0.0912,-0.2704,2054,2019-08-07 16:21:08:518
3.1308,-9.606,1.7058,-0.1118,0.4601,0.1781,-0.1539,-0.0912,-0.2704,2058,2019-08-07 16:21:08:522
3.1308,-9.606,1.7058,-0.1118,0.4601,0.1781,-0.122,-0.1093,-0.2353,2064,2019-08-07 16:21:08:528
3.346,-9.8304,1.8001,-0.1118,0.4601,0.1781,-0.0634,-0.0571,-0.2129,2070,2019-08-07 16:21:08:534
3.346,-9.8304,1.8001,-0.3367,0.7174,0.2424,-0.0634,-0.0571,-0.2129,2074,2019-08-07 16:21:08:538
3.346,-9.8304,1.8001,-0.3367,0.7174,0.2424,-0.0634,-0.0571,-0.2129,2079,2019-08-07 16:21:08:543
3.2934,-9.797,1.8802,-0.3367,0.7174,0.2424,0.0165,-0.0347,-0.1852,2084,2019-08-07 16:21:08:548
3.2934,-9.797,1.8802,-0.3367,0.7174,0.2424,0.0165,-0.0347,-0.1852,2088,2019-08-07 16:21:08:552
3.2934,-9.797,1.8802,-0.2139,0.576,0.3752,0.0559,-0.0156,-0.1458,2094,2019-08-07 16:21:08:558
3.2695,-9.6633,1.6492,-0.2139,0.576,0.3752,0.0559,-0.0156,-0.1458,2099,2019-08-07 16:21:08:563
3.2695,-9.6633,1.6492,-0.2139,0.576,0.3752,0.0559,-0.0156,-0.1458,2104,2019-08-07 16:21:08:568
3.1308,-9.5631,1.6775,-0.2139,0.576,0.3752,0.0858,0.0611,-0.1277,2109,2019-08-07 16:21:08:573
3.1308,-9.5631,1.6775,0.0574,0.4386,0.2847,0.0858,0.0611,-0.1277,2114,2019-08-07 16:21:08:578
3.1308,-9.5631,1.6775,0.0574,0.4386,0.2847,0.0996,0.0888,-0.1181,2119,2019-08-07 16:21:08:583
2.8963,-9.5296,1.8849,0.0574,0.4386,0.2847,0.0996,0.0888,-0.1181,2124,2019-08-07 16:21:08:588
2.8963,-9.5296,1.8849,0.0574,0.4386,0.2847,0.1199,0.059,-0.1128,2129,2019-08-07 16:21:08:593
2.8963,-9.5296,1.8849,0.2123,0.4638,0.0724,0.1199,0.059,-0.1128,2134,2019-08-07 16:21:08:598
2.8868,-9.5153,2.0546,0.2123,0.4638,0.0724,0.1571,-0.0017,-0.1117,2139,2019-08-07 16:21:08:603
2.8868,-9.5153,2.0546,0.2123,0.4638,0.0724,0.1571,-0.0017,-0.1117,2144,2019-08-07 16:21:08:608
2.9872,-9.3626,2.2196,0.2123,0.4638,0.0724,0.1859,-0.056,-0.1138,2149,2019-08-07 16:21:08:613
2.9872,-9.3626,2.2196,0.122,0.1768,-0.0953,0.1859,-0.056,-0.1138,2153,2019-08-07 16:21:08:617
2.9872,-9.3626,2.2196,0.122,0.1768,-0.0953,0.1774,-0.1157,-0.1032,2159,2019-08-07 16:21:08:623
3.1355,-9.1239,2.2196,0.122,0.1768,-0.0953,0.1774,-0.1157,-0.1032,2164,2019-08-07 16:21:08:628
3.1355,-9.1239,2.2196,0.122,0.1768,-0.0953,0.1433,-0.1189,-0.0936,2169,2019-08-07 16:21:08:633
3.1355,-9.1239,2.2196,0.122,0.1768,-0.0953,0.1433,-0.1189,-0.0936,2174,2019-08-07 16:21:08:638
3.4417,-9.0618,2.2667,-0.2944,0.0187,-0.1331,0.1071,-0.0741,-0.0808,2178,2019-08-07 16:21:08:642
3.4417,-9.0618,2.2667,-0.2944,0.0187,-0.1331,0.1071,-0.0741,-0.0808,2184,2019-08-07 16:21:08:648
3.5039,-8.9711,2.1018,-0.2944,0.0187,-0.1331,0.0538,-0.0443,-0.0425,2189,2019-08-07 16:21:08:653
3.5039,-8.9711,2.1018,-0.2437,-0.049,0.0764,0.0538,-0.0443,-0.0425,2194,2019-08-07 16:21:08:658
3.5039,-8.9711,2.1018,-0.2437,-0.049,0.0764,0.0197,0.0143,0.0023,2199,2019-08-07 16:21:08:663
3.3939,-8.9616,2.1206,-0.2437,-0.049,0.0764,0.0197,0.0143,0.0023,2203,2019-08-07 16:21:08:667
3.3939,-8.9616,2.1206,-0.2437,-0.049,0.0764,0.0197,0.0143,0.0023,2209,2019-08-07 16:21:08:673
3.1977,-8.995,2.2432,-0.0255,-0.0246,-0.1592,0.0091,0.0526,0.031,2215,2019-08-07 16:21:08:679
3.1977,-8.995,2.2432,-0.0255,-0.0246,-0.1592,0.0091,0.0526,0.031,2218,2019-08-07 16:21:08:682
3.1977,-8.995,2.2432,-0.0255,-0.0246,-0.1592,0.0112,0.0271,0.0513,2224,2019-08-07 16:21:08:688
3.1547,-8.9425,2.0782,0.003,-0.0927,0.0739,0.0112,0.0271,0.0513,2229,2019-08-07 16:21:08:693
3.1547,-8.9425,2.0782,0.003,-0.0927,0.0739,0.0069,0.0164,0.0492,2234,2019-08-07 16:21:08:698
3.2312,-8.9281,2.3092,0.003,-0.0927,0.0739,0.0069,0.0164,0.0492,2239,2019-08-07 16:21:08:703
3.2312,-8.9281,2.3092,-0.0631,-0.157,-0.149,0.0155,4.0E-4,0.047,2244,2019-08-07 16:21:08:708
3.2312,-8.9281,2.3092,-0.0631,-0.157,-0.149,0.0155,4.0E-4,0.047,2249,2019-08-07 16:21:08:713
3.303,-8.8279,2.1583,-0.0631,-0.157,-0.149,0.024,-0.0198,0.0513,2254,2019-08-07 16:21:08:718
3.303,-8.8279,2.1583,-0.0631,-0.157,-0.149,0.024,-0.0198,0.0513,2259,2019-08-07 16:21:08:723
3.3508,-8.7849,2.1159,-0.2517,-0.2254,0.0665,0.025,-0.0156,0.0556,2265,2019-08-07 16:21:08:729
3.3508,-8.7849,2.1159,-0.2517,-0.2254,0.0665,0.025,-0.0156,0.0556,2269,2019-08-07 16:21:08:733
3.3508,-8.7849,2.1159,-0.2517,-0.2254,0.0665,0.025,-0.0156,0.0556,2274,2019-08-07 16:21:08:738
3.4178,-8.699,2.1253,-0.2517,-0.2254,0.0665,0.025,-0.0081,0.0598,2279,2019-08-07 16:21:08:743
3.4178,-8.699,2.1253,-0.2517,-0.2254,0.0665,0.025,-0.0081,0.0598,2284,2019-08-07 16:21:08:748
3.5135,-8.6513,1.9886,-0.388,-0.3558,0.179,0.025,0.0047,0.0534,2289,2019-08-07 16:21:08:753
3.5135,-8.6513,1.9886,-0.388,-0.3558,0.179,0.025,0.0047,0.0534,2294,2019-08-07 16:21:08:758
3.5135,-8.6513,1.9886,-0.388,-0.3558,0.179,0.0165,0.0153,0.0428,2300,2019-08-07 16:21:08:764
3.4704,-8.5367,1.9273,-0.388,-0.3558,0.179,0.0165,0.0153,0.0428,2303,2019-08-07 16:21:08:767
3.4704,-8.5367,1.9273,-0.3062,-0.4759,0.2432,0.0069,0.0036,0.014,2309,2019-08-07 16:21:08:773
3.4704,-8.5367,1.9273,-0.3062,-0.4759,0.2432,0.0069,0.0036,0.014,2314,2019-08-07 16:21:08:778
3.37,-8.6035,1.8425,-0.3062,-0.4759,0.2432,0.0069,0.0036,0.014,2319,2019-08-07 16:21:08:783
3.37,-8.6035,1.8425,-0.3062,-0.4759,0.2432,0.0112,-0.0049,-0.0254,2324,2019-08-07 16:21:08:788
3.2312,-8.7849,2.0735,-0.1213,-0.3556,0.2521,0.0112,-0.0049,-0.0254,2329,2019-08-07 16:21:08:793
3.2312,-8.7849,2.0735,-0.1213,-0.3556,0.2521,0.0293,-0.055,-0.0478,2334,2019-08-07 16:21:08:798
3.2312,-8.7849,2.0735,-0.1213,-0.3556,0.2521,0.0293,-0.055,-0.0478,2338,2019-08-07 16:21:08:802
3.303,-8.8231,2.064,-0.1213,-0.3556,0.2521,0.0634,-0.0869,-0.0595,2344,2019-08-07 16:21:08:808
3.303,-8.8231,2.064,-0.2787,-0.2017,0.0998,0.0634,-0.0869,-0.0595,2350,2019-08-07 16:21:08:814
3.303,-8.8231,2.064,-0.2787,-0.2017,0.0998,0.09,-0.072,-0.0829,2353,2019-08-07 16:21:08:817
3.4608,-8.7038,1.9792,-0.2787,-0.2017,0.0998,0.09,-0.072,-0.0829,2359,2019-08-07 16:21:08:823
3.4608,-8.7038,1.9792,-0.2787,-0.2017,0.0998,0.0922,-0.023,-0.0989,2365,2019-08-07 16:21:08:829
3.4274,-8.594,2.1489,-0.2862,-0.4541,0.0876,0.0922,-0.023,-0.0989,2369,2019-08-07 16:21:08:833
3.4274,-8.594,2.1489,-0.2862,-0.4541,0.0876,0.0922,-0.023,-0.0989,2374,2019-08-07 16:21:08:838
3.4274,-8.594,2.1489,-0.2862,-0.4541,0.0876,0.073,0.0494,-0.0978,2379,2019-08-07 16:21:08:843
3.3269,-8.5415,2.328,-0.2862,-0.4541,0.0876,0.073,0.0494,-0.0978,2384,2019-08-07 16:21:08:848
3.3269,-8.5415,2.328,-0.0569,-0.4815,-0.15,0.0432,0.0441,-0.0904,2389,2019-08-07 16:21:08:853
3.2025,-8.5749,2.3799,-0.0569,-0.4815,-0.15,0.0432,0.0441,-0.0904,2393,2019-08-07 16:21:08:857
3.2025,-8.5749,2.3799,-0.0569,-0.4815,-0.15,0.0272,0.0249,-0.0904,2399,2019-08-07 16:21:08:863
3.2025,-8.5749,2.3799,-0.0569,-0.4815,-0.15,0.0272,0.0249,-0.0904,2404,2019-08-07 16:21:08:868
3.2264,-8.6704,2.4553,-0.0219,-0.335,-0.2483,0.0272,0.0249,-0.0904,2408,2019-08-07 16:21:08:872
3.2264,-8.6704,2.4553,-0.0219,-0.335,-0.2483,0.008,-0.0326,-0.0904,2414,2019-08-07 16:21:08:878
3.2264,-8.6704,2.4553,-0.0219,-0.335,-0.2483,0.008,-0.0326,-0.0904,2419,2019-08-07 16:21:08:883
3.3795,-8.7181,2.1395,-0.0219,-0.335,-0.2483,-0.0186,-0.1082,-0.0829,2424,2019-08-07 16:21:08:888
3.3795,-8.7181,2.1395,-0.2597,-0.1904,0.0202,-0.0186,-0.1082,-0.0829,2429,2019-08-07 16:21:08:893
3.3795,-8.7181,2.1395,-0.2597,-0.1904,0.0202,-0.0272,-0.1093,-0.0765,2433,2019-08-07 16:21:08:897
3.5613,-8.8231,2.2432,-0.2597,-0.1904,0.0202,-0.0272,-0.1093,-0.0765,2439,2019-08-07 16:21:08:903
3.5613,-8.8231,2.2432,-0.2597,-0.1904,0.0202,-0.025,-0.0891,-0.0595,2444,2019-08-07 16:21:08:908
3.6857,-8.8804,2.064,-0.4404,-0.1143,0.1269,-0.025,-0.0891,-0.0595,2449,2019-08-07 16:21:08:913
3.6857,-8.8804,2.064,-0.4404,-0.1143,0.1269,-0.025,-0.0891,-0.0595,2454,2019-08-07 16:21:08:918
3.6857,-8.8804,2.064,-0.4404,-0.1143,0.1269,-0.0346,-0.039,-0.0499,2458,2019-08-07 16:21:08:922
3.7575,-8.9472,2.0169,-0.4404,-0.1143,0.1269,-0.0346,-0.039,-0.0499,2465,2019-08-07 16:21:08:929
3.7575,-8.9472,2.0169,-0.4113,-0.035,0.1076,-0.0346,0.026,-0.0542,2469,2019-08-07 16:21:08:933
3.6092,-8.9997,2.1442,-0.4113,-0.035,0.1076,-0.0346,0.026,-0.0542,2474,2019-08-07 16:21:08:938
3.6092,-8.9997,2.1442,-0.4113,-0.035,0.1076,-0.0165,0.1144,-0.0563,2479,2019-08-07 16:21:08:943
3.6092,-8.9997,2.1442,-0.4113,-0.035,0.1076,-0.0165,0.1144,-0.0563,2484,2019-08-07 16:21:08:948
3.3077,-8.9806,2.2243,0.0307,-0.0029,-0.1002,-0.008,0.1368,-0.0574,2489,2019-08-07 16:21:08:953
3.3077,-8.9806,2.2243,0.0307,-0.0029,-0.1002,-0.008,0.1368,-0.0574,2493,2019-08-07 16:21:08:957
3.1594,-8.8708,2.3186,0.0307,-0.0029,-0.1002,-0.0144,0.0888,-0.067,2499,2019-08-07 16:21:08:963
3.1594,-8.8708,2.3186,0.0307,-0.0029,-0.1002,-0.0144,0.0888,-0.067,2504,2019-08-07 16:21:08:968
3.1594,-8.8708,2.3186,0.0624,-0.1662,-0.1577,-0.0133,-0.0049,-0.0616,2509,2019-08-07 16:21:08:973
3.2886,-8.8899,2.3563,0.0624,-0.1662,-0.1577,-0.0133,-0.0049,-0.0616,2514,2019-08-07 16:21:08:978
3.2886,-8.8899,2.3563,0.0624,-0.1662,-0.1577,0.0037,-0.0752,-0.0595,2519,2019-08-07 16:21:08:983
3.2886,-8.8899,2.3563,0.0624,-0.1662,-0.1577,0.0037,-0.0752,-0.0595,2524,2019-08-07 16:21:08:988
3.6044,-8.8327,2.3422,-0.4188,-0.2278,-0.0805,0.0144,-0.1157,-0.0627,2528,2019-08-07 16:21:08:992
3.6044,-8.8327,2.3422,-0.4188,-0.2278,-0.0805,0.0144,-0.1157,-0.0627,2534,2019-08-07 16:21:08:998
3.9488,-8.7133,2.0782,-0.4188,-0.2278,-0.0805,0.0187,-0.1263,-0.052,2539,2019-08-07 16:21:09:003
3.9488,-8.7133,2.0782,-0.4188,-0.2278,-0.0805,0.0187,-0.1263,-0.052,2544,2019-08-07 16:21:09:008
3.9488,-8.7133,2.0782,-0.7815,-0.3123,0.0514,0.0133,-0.0603,-0.051,2548,2019-08-07 16:21:09:012
4.0589,-8.6178,2.1583,-0.7815,-0.3123,0.0514,0.0133,-0.0603,-0.051,2554,2019-08-07 16:21:09:018
4.0589,-8.6178,2.1583,-0.7815,-0.3123,0.0514,0.0112,0.042,-0.0542,2559,2019-08-07 16:21:09:023
3.7909,-8.6083,2.2856,-0.7815,-0.3123,0.0514,0.0112,0.042,-0.0542,2564,2019-08-07 16:21:09:028
3.7909,-8.6083,2.2856,-0.3491,-0.3592,0.0052,-0.0037,0.1378,-0.0297,2569,2019-08-07 16:21:09:033
3.7909,-8.6083,2.2856,-0.3491,-0.3592,0.0052,-0.0037,0.1378,-0.0297,2574,2019-08-07 16:21:09:038
3.4656,-8.6799,2.229,-0.3491,-0.3592,0.0052,-0.0037,0.1378,-0.0297,2578,2019-08-07 16:21:09:042
3.4656,-8.6799,2.229,-0.1001,-0.2674,0.0188,-0.0399,0.1794,-0.0307,2584,2019-08-07 16:21:09:048
3.4656,-8.6799,2.229,-0.1001,-0.2674,0.0188,-0.0399,0.1794,-0.0307,2589,2019-08-07 16:21:09:053
3.169,-8.7897,2.4553,-0.1001,-0.2674,0.0188,-0.0666,0.1879,-0.0499,2594,2019-08-07 16:21:09:058
3.169,-8.7897,2.4553,0.3392,-0.0855,-0.3033,-0.0666,0.1879,-0.0499,2599,2019-08-07 16:21:09:063
2.9489,-8.9186,2.526,0.3392,-0.0855,-0.3033,-0.0825,0.1368,-0.0712,2603,2019-08-07 16:21:09:067
2.9489,-8.9186,2.526,0.3392,-0.0855,-0.3033,-0.0825,0.1368,-0.0712,2609,2019-08-07 16:21:09:073
2.9968,-8.8518,2.493,0.3392,-0.0855,-0.3033,-0.0857,0.0537,-0.0808,2615,2019-08-07 16:21:09:079
2.9968,-8.8518,2.493,0.3392,-0.0855,-0.3033,-0.0857,0.0537,-0.0808,2619,2019-08-07 16:21:09:083
2.9968,-8.8518,2.493,0.2081,-0.1274,-0.2444,-0.0857,0.0537,-0.0808,2623,2019-08-07 16:21:09:087
3.2838,-8.8183,2.3846,0.2081,-0.1274,-0.2444,-0.0975,-0.0262,-0.0819,2629,2019-08-07 16:21:09:093
3.2838,-8.8183,2.3846,0.2081,-0.1274,-0.2444,-0.0975,-0.0262,-0.0819,2634,2019-08-07 16:21:09:098
3.2838,-8.8183,2.3846,-0.2494,-0.2024,-0.0516,-0.1092,-0.0486,-0.0733,2639,2019-08-07 16:21:09:103
3.6187,-8.7563,2.1347,-0.2494,-0.2024,-0.0516,-0.1092,-0.0486,-0.0733,2644,2019-08-07 16:21:09:108
3.6187,-8.7563,2.1347,-0.2494,-0.2024,-0.0516,-0.122,-0.0305,-0.0627,2649,2019-08-07 16:21:09:113
3.6187,-8.7563,2.1347,-0.3942,-0.1928,0.1905,-0.122,-0.0305,-0.0627,2654,2019-08-07 16:21:09:118
3.7431,-8.8279,2.031,-0.3942,-0.1928,0.1905,-0.1284,0.0175,-0.0606,2658,2019-08-07 16:21:09:122
3.7431,-8.8279,2.031,-0.3942,-0.1928,0.1905,-0.1284,0.0175,-0.0606,2665,2019-08-07 16:21:09:129
3.7575,-8.9186,2.0499,-0.3942,-0.1928,0.1905,-0.1284,0.0175,-0.0606,2669,2019-08-07 16:21:09:133
3.7575,-8.9186,2.0499,-0.4007,-0.0976,0.0657,-0.1081,0.0771,-0.0435,2674,2019-08-07 16:21:09:138
3.7575,-8.9186,2.0499,-0.4007,-0.0976,0.0657,-0.1081,0.0771,-0.0435,2680,2019-08-07 16:21:09:144
3.7287,-8.9854,1.9415,-0.4007,-0.0976,0.0657,-0.0975,0.092,-0.035,2683,2019-08-07 16:21:09:147
3.7287,-8.9854,1.9415,-0.4007,-0.0976,0.0657,-0.0975,0.092,-0.035,2689,2019-08-07 16:21:09:153
3.5422,-9.0904,1.8896,-0.2138,0.1019,0.2044,-0.0708,0.1155,-0.0371,2694,2019-08-07 16:21:09:158
3.5422,-9.0904,1.8896,-0.2138,0.1019,0.2044,-0.0708,0.1155,-0.0371,2699,2019-08-07 16:21:09:163
3.5422,-9.0904,1.8896,-0.2138,0.1019,0.2044,-0.0485,0.1112,-0.0318,2704,2019-08-07 16:21:09:168
3.4034,-9.1621,2.1772,-0.2138,0.1019,0.2044,-0.0485,0.1112,-0.0318,2710,2019-08-07 16:21:09:174
3.4034,-9.1621,2.1772,-0.0066,0.1591,-0.1284,-0.024,0.0665,-0.0318,2714,2019-08-07 16:21:09:178
3.4034,-9.1621,2.1772,-0.0066,0.1591,-0.1284,-0.024,0.0665,-0.0318,2719,2019-08-07 16:21:09:183
3.4082,-9.0761,2.0876,-0.0066,0.1591,-0.1284,-0.024,0.0665,-0.0318,2724,2019-08-07 16:21:09:188
3.4082,-9.0761,2.0876,-0.0066,0.1591,-0.1284,-0.0165,0.026,-0.0211,2729,2019-08-07 16:21:09:193
3.5134,-8.9759,2.1112,-0.0802,0.074,0.0829,-0.0165,0.026,-0.0211,2734,2019-08-07 16:21:09:198
3.5134,-8.9759,2.1112,-0.0802,0.074,0.0829,-0.0176,0.0366,-0.0137,2739,2019-08-07 16:21:09:203
3.5134,-8.9759,2.1112,-0.0802,0.074,0.0829,-0.0176,0.0366,-0.0137,2744,2019-08-07 16:21:09:208
3.48,-8.9902,2.1112,-0.0802,0.074,0.0829,-0.0176,0.0569,-0.0052,2748,2019-08-07 16:21:09:212
3.48,-8.9902,2.1112,-0.0224,-0.0165,-0.0114,-0.0176,0.0569,-0.0052,2754,2019-08-07 16:21:09:218
3.48,-8.9902,2.1112,-0.0224,-0.0165,-0.0114,-0.0122,0.0771,-0.0052,2758,2019-08-07 16:21:09:222
3.3316,-8.8899,2.1112,0.0624,-0.0405,-0.0241,-0.0122,0.0771,-0.0052,2764,2019-08-07 16:21:09:228
3.3316,-8.8899,2.1112,0.0624,-0.0405,-0.0241,-0.0165,0.0654,-0.0062,2769,2019-08-07 16:21:09:233
3.2407,-8.9568,2.1536,0.0624,-0.0405,-0.0241,-0.0165,0.0654,-0.0062,2773,2019-08-07 16:21:09:237
3.2407,-8.9568,2.1536,0.0624,-0.0405,-0.0241,-0.0165,0.0654,-0.0062,2779,2019-08-07 16:21:09:243
3.2982,-8.9806,2.1206,0.0653,0.0354,-0.0229,-0.0208,0.0484,-0.0137,2784,2019-08-07 16:21:09:248
3.2982,-8.9806,2.1206,0.0653,0.0354,-0.0229,-0.0208,0.0484,-0.0137,2788,2019-08-07 16:21:09:252
3.2982,-8.9806,2.1206,0.0653,0.0354,-0.0229,-0.0176,0.0196,-0.0265,2794,2019-08-07 16:21:09:258
3.3221,-8.9759,2.064,0.0653,0.0354,-0.0229,-0.0176,0.0196,-0.0265,2799,2019-08-07 16:21:09:263
3.3221,-8.9759,2.064,-0.0177,0.0218,0.0835,-0.0027,0.0026,-0.0286,2805,2019-08-07 16:21:09:269
3.4512,-8.9472,1.9085,-0.0177,0.0218,0.0835,-0.0027,0.0026,-0.0286,2808,2019-08-07 16:21:09:272
3.4512,-8.9472,1.9085,-0.1583,-0.0346,0.2146,0.0027,0.0089,-0.0286,2814,2019-08-07 16:21:09:278
3.4512,-8.9472,1.9085,-0.1583,-0.0346,0.2146,0.0027,0.0089,-0.0286,2819,2019-08-07 16:21:09:283
3.6283,-8.8804,1.8991,-0.1583,-0.0346,0.2146,0.0027,0.0089,-0.0286,2824,2019-08-07 16:21:09:288
3.6283,-8.8804,1.8991,-0.1583,-0.0346,0.2146,0.0027,0.0185,-0.0329,2829,2019-08-07 16:21:09:293
3.6283,-8.8804,1.8991,-0.2806,-0.1466,0.1909,0.0027,0.0185,-0.0329,2834,2019-08-07 16:21:09:298
3.7,-8.8374,1.9038,-0.2806,-0.1466,0.1909,0.0091,0.0366,-0.0371,2838,2019-08-07 16:21:09:302
3.7,-8.8374,1.9038,-0.2806,-0.1466,0.1909,0.0091,0.0366,-0.0371,2844,2019-08-07 16:21:09:308
3.5996,-8.7467,1.8425,-0.2806,-0.1466,0.1909,0.0037,0.0452,-0.0478,2848,2019-08-07 16:21:09:312
3.5996,-8.7467,1.8425,-0.1817,-0.2195,0.2353,0.0037,0.0452,-0.0478,2854,2019-08-07 16:21:09:318
3.5996,-8.7467,1.8425,-0.1817,-0.2195,0.2353,5.0E-4,0.0334,-0.0435,2859,2019-08-07 16:21:09:323
3.5279,-8.7324,1.9509,-0.1817,-0.2195,0.2353,5.0E-4,0.0334,-0.0435,2864,2019-08-07 16:21:09:328
3.5279,-8.7324,1.9509,-0.1817,-0.2195,0.2353,-5.0E-4,0.01,-0.0456,2868,2019-08-07 16:21:09:332
3.5279,-8.7324,1.9509,-0.1817,-0.2195,0.2353,-5.0E-4,0.01,-0.0456,2874,2019-08-07 16:21:09:338
3.4609,-8.8613,2.0829,-0.0586,-0.0921,0.0379,-5.0E-4,0.01,-0.0456,2879,2019-08-07 16:21:09:343
3.4609,-8.8613,2.0829,-0.0586,-0.0921,0.0379,0.0027,-0.0294,-0.0467,2884,2019-08-07 16:21:09:348
3.4609,-8.8613,2.0829,-0.0586,-0.0921,0.0379,0.0027,-0.0294,-0.0467,2889,2019-08-07 16:21:09:353
3.547,-8.9043,2.0829,-0.1388,-0.0406,0.06,0.0155,-0.0571,-0.0574,2894,2019-08-07 16:21:09:358
3.547,-8.9043,2.0829,-0.1388,-0.0406,0.06,0.0155,-0.0571,-0.0574,2899,2019-08-07 16:21:09:363
3.5948,-8.8565,2.163,-0.1388,-0.0406,0.06,0.0314,-0.0582,-0.0574,2904,2019-08-07 16:21:09:368
3.5948,-8.8565,2.163,-0.1388,-0.0406,0.06,0.0314,-0.0582,-0.0574,2909,2019-08-07 16:21:09:373
3.5948,-8.8565,2.163,-0.2396,-0.1256,0.0098,0.0314,-0.0582,-0.0574,2914,2019-08-07 16:21:09:378
3.6857,-8.8279,2.0216,-0.2396,-0.1256,0.0098,0.0442,-0.0198,-0.0563,2919,2019-08-07 16:21:09:383
3.6857,-8.8279,2.0216,-0.2396,-0.1256,0.0098,0.0442,-0.0198,-0.0563,2924,2019-08-07 16:21:09:388
3.7049,-8.7658,2.13,-0.2665,-0.1271,0.0316,0.0314,0.0036,-0.0606,2930,2019-08-07 16:21:09:394
3.7049,-8.7658,2.13,-0.2665,-0.1271,0.0316,0.0314,0.0036,-0.0606,2933,2019-08-07 16:21:09:397
3.7049,-8.7658,2.13,-0.2665,-0.1271,0.0316,0.024,0.0132,-0.0659,2939,2019-08-07 16:21:09:403
3.6714,-8.8088,2.1819,-0.2665,-0.1271,0.0316,0.024,0.0132,-0.0659,2944,2019-08-07 16:21:09:408
3.6714,-8.8088,2.1819,-0.2055,-0.1349,-0.0613,0.0218,0.0249,-0.0627,2949,2019-08-07 16:21:09:413
3.6714,-8.8088,2.1819,-0.2055,-0.1349,-0.0613,0.0218,0.0249,-0.0627,2953,2019-08-07 16:21:09:417
3.5614,-8.8709,2.1489,-0.2055,-0.1349,-0.0613,0.0112,-0.0134,-0.0552,2959,2019-08-07 16:21:09:423
3.5614,-8.8709,2.1489,-0.1363,-0.0244,-0.0198,0.0112,-0.0134,-0.0552,2964,2019-08-07 16:21:09:428
3.6044,-8.9281,2.1678,-0.1363,-0.0244,-0.0198,0.0112,-0.0134,-0.0552,2969,2019-08-07 16:21:09:433
3.6044,-8.9281,2.1678,-0.1363,-0.0244,-0.0198,0.0112,-0.0571,-0.0499,2974,2019-08-07 16:21:09:438
3.6905,-8.9281,2.1913,-0.1363,-0.0244,-0.0198,0.0112,-0.0571,-0.0499,2980,2019-08-07 16:21:09:444
3.6905,-8.9281,2.1913,-0.3336,-0.0101,-0.0211,0.024,-0.0731,-0.0467,2985,2019-08-07 16:21:09:449
3.6905,-8.9281,2.1913,-0.3336,-0.0101,-0.0211,0.024,-0.0731,-0.0467,2989,2019-08-07 16:21:09:453
3.6905,-8.9281,2.1913,-0.3336,-0.0101,-0.0211,0.0357,-0.0603,-0.0425,2994,2019-08-07 16:21:09:458
3.901,-8.8995,2.1112,-0.3336,-0.0101,-0.0211,0.0357,-0.0603,-0.0425,2999,2019-08-07 16:21:09:463
3.901,-8.8995,2.1112,-0.3336,-0.0101,-0.0211,0.0357,-0.0262,-0.0414,3004,2019-08-07 16:21:09:468
3.9297,-8.8613,2.0688,-0.4114,-0.0618,0.0374,0.0357,-0.0262,-0.0414,3008,2019-08-07 16:21:09:472
3.9297,-8.8613,2.0688,-0.4114,-0.0618,0.0374,0.0357,-0.0262,-0.0414,3014,2019-08-07 16:21:09:478
3.9297,-8.8613,2.0688,-0.4114,-0.0618,0.0374,0.0357,-0.0262,-0.0414,3019,2019-08-07 16:21:09:483
3.7575,-8.7563,2.229,-0.3921,-0.1021,-0.0538,0.0314,0.0228,-0.0371,3024,2019-08-07 16:21:09:488
3.7575,-8.7563,2.229,-0.3921,-0.1021,-0.0538,0.0314,0.0228,-0.0371,3029,2019-08-07 16:21:09:493
3.7575,-8.7563,2.229,-0.3921,-0.1021,-0.0538,0.0314,0.0601,-0.0297,3033,2019-08-07 16:21:09:497
3.681,-8.7754,2.2337,-0.1852,-0.1355,-0.0863,0.0314,0.0601,-0.0297,3039,2019-08-07 16:21:09:503
3.681,-8.7754,2.2337,-0.1852,-0.1355,-0.0863,0.0218,0.0643,-0.0286,3043,2019-08-07 16:21:09:507
3.614,-8.7658,2.2903,-0.1852,-0.1355,-0.0863,0.0218,0.0643,-0.0286,3049,2019-08-07 16:21:09:513
3.614,-8.7658,2.2903,-0.1852,-0.1355,-0.0863,0.0059,0.0494,-0.0371,3054,2019-08-07 16:21:09:518
3.614,-8.7658,2.2903,-0.1327,-0.1795,-0.0641,0.0059,0.0494,-0.0371,3059,2019-08-07 16:21:09:523
3.6666,-8.7563,2.1819,-0.1327,-0.1795,-0.0641,-0.0069,0.042,-0.0414,3064,2019-08-07 16:21:09:528
3.6666,-8.7563,2.1819,-0.1327,-0.1795,-0.0641,-0.0069,0.042,-0.0414,3068,2019-08-07 16:21:09:532
3.7192,-8.7897,2.196,-0.1327,-0.1795,-0.0641,-0.008,0.0324,-0.0393,3074,2019-08-07 16:21:09:538
3.7192,-8.7897,2.196,-0.2305,-0.1044,-0.0428,-0.008,0.0324,-0.0393,3079,2019-08-07 16:21:09:543
3.7192,-8.7897,2.196,-0.2305,-0.1044,-0.0428,-0.008,0.0324,-0.0393,3084,2019-08-07 16:21:09:548
3.7144,-8.847,2.1253,-0.2305,-0.1044,-0.0428,0.0048,0.0388,-0.0307,3088,2019-08-07 16:21:09:552
3.7144,-8.847,2.1253,-0.2305,-0.1044,-0.0428,0.0048,0.0388,-0.0307,3094,2019-08-07 16:21:09:558
3.7144,-8.847,2.1253,-0.1916,-0.1348,-0.0018,0.0133,0.0579,-0.0158,3099,2019-08-07 16:21:09:563
3.6857,-8.7563,2.196,-0.1916,-0.1348,-0.0018,0.0133,0.0579,-0.0158,3104,2019-08-07 16:21:09:568
3.6857,-8.7563,2.196,-0.1916,-0.1348,-0.0018,0.0112,0.0505,0.0023,3108,2019-08-07 16:21:09:572
3.6523,-8.7372,2.1866,-0.1916,-0.1348,-0.0018,0.0112,0.0505,0.0023,3114,2019-08-07 16:21:09:578
3.6523,-8.7372,2.1866,-0.1539,-0.1719,0.0038,-0.0027,0.0462,0.0151,3119,2019-08-07 16:21:09:583
3.6523,-8.7372,2.1866,-0.1539,-0.1719,0.0038,-0.0027,0.0462,0.0151,3123,2019-08-07 16:21:09:587
3.6762,-8.7467,2.0876,-0.1652,-0.1532,0.0804,-0.0165,0.0473,0.0172,3129,2019-08-07 16:21:09:593
3.6762,-8.7467,2.0876,-0.1652,-0.1532,0.0804,-0.0165,0.0473,0.0172,3133,2019-08-07 16:21:09:597
3.6762,-8.7467,2.0876,-0.1652,-0.1532,0.0804,-0.0165,0.0473,0.0172,3139,2019-08-07 16:21:09:603
3.5326,-8.7611,2.0782,-0.1652,-0.1532,0.0804,-0.0303,0.0462,0.0193,3144,2019-08-07 16:21:09:608
3.5326,-8.7611,2.0782,0.007,-0.1029,0.0226,-0.0303,0.0462,0.0193,3148,2019-08-07 16:21:09:612
3.5326,-8.7611,2.0782,0.007,-0.1029,0.0226,-0.0346,0.0398,0.0204,3154,2019-08-07 16:21:09:618
3.5135,-8.8709,2.0829,0.007,-0.1029,0.0226,-0.0346,0.0398,0.0204,3158,2019-08-07 16:21:09:622
3.5135,-8.8709,2.0829,0.007,-0.1029,0.0226,-0.0378,0.0516,0.0129,3165,2019-08-07 16:21:09:629
3.5135,-8.8709,2.0829,0.0447,-0.0868,0.1037,-0.0378,0.0516,0.0129,3168,2019-08-07 16:21:09:632
3.4657,-8.8661,2.1442,0.0447,-0.0868,0.1037,-0.0378,0.0516,0.0129,3174,2019-08-07 16:21:09:638
3.4657,-8.8661,2.1442,0.0447,-0.0868,0.1037,-0.0325,0.0579,2.0E-4,3179,2019-08-07 16:21:09:643
3.4083,-8.7802,2.1772,0.0447,-0.0868,0.1037,-0.0325,0.0579,2.0E-4,3184,2019-08-07 16:21:09:648
3.4083,-8.7802,2.1772,0.0854,-0.1452,-0.0056,-0.0165,0.0633,-0.019,3189,2019-08-07 16:21:09:653
3.4083,-8.7802,2.1772,0.0854,-0.1452,-0.0056,-0.0165,0.0633,-0.019,3194,2019-08-07 16:21:09:658
3.4465,-8.7085,2.2102,0.0854,-0.1452,-0.0056,-0.0154,0.0462,-0.0318,3198,2019-08-07 16:21:09:662
3.4465,-8.7085,2.2102,0.0854,-0.1452,-0.0056,-0.0154,0.0462,-0.0318,3204,2019-08-07 16:21:09:668
3.437,-8.6178,2.262,0.0072,-0.2201,-0.0234,-0.0165,0.0366,-0.0371,3210,2019-08-07 16:21:09:674
3.437,-8.6178,2.262,0.0072,-0.2201,-0.0234,-0.0165,0.0366,-0.0371,3214,2019-08-07 16:21:09:678
3.437,-8.6178,2.262,0.0072,-0.2201,-0.0234,-0.0229,0.0068,-0.0318,3219,2019-08-07 16:21:09:683
3.5518,-8.594,2.1819,0.0072,-0.2201,-0.0234,-0.0229,0.0068,-0.0318,3224,2019-08-07 16:21:09:688
3.5518,-8.594,2.1819,-0.0866,-0.3373,0.083,-0.0303,-0.0124,-0.0307,3228,2019-08-07 16:21:09:692
3.5518,-8.594,2.1819,-0.0866,-0.3373,0.083,-0.0303,-0.0124,-0.0307,3234,2019-08-07 16:21:09:698
3.6427,-8.6131,2.0499,-0.0866,-0.3373,0.083,-0.0303,-0.0124,-0.0307,3239,2019-08-07 16:21:09:703
3.6427,-8.6131,2.0499,-0.0866,-0.3373,0.083,-0.0421,0.0015,-0.0286,3244,2019-08-07 16:21:09:708
3.6427,-8.6131,2.0499,-0.1321,-0.1694,0.0186,-0.0421,0.0015,-0.0286,3249,2019-08-07 16:21:09:713
3.6523,-8.7563,2.0593,-0.1321,-0.1694,0.0186,-0.0463,-0.006,-0.0222,3253,2019-08-07 16:21:09:717
3.6523,-8.7563,2.0593,-0.1321,-0.1694,0.0186,-0.0463,-0.006,-0.0222,3259,2019-08-07 16:21:09:723
3.614,-8.7754,2.0075,-0.1321,-0.1694,0.0186,-0.0442,0.01,-0.0265,3264,2019-08-07 16:21:09:728
3.614,-8.7754,2.0075,-0.0691,-0.088,0.109,-0.0442,0.01,-0.0265,3269,2019-08-07 16:21:09:733
3.614,-8.7754,2.0075,-0.0691,-0.088,0.109,-0.0474,0.01,-0.0265,3274,2019-08-07 16:21:09:738
3.5422,-8.7849,1.9745,-0.0691,-0.088,0.109,-0.0474,0.01,-0.0265,3279,2019-08-07 16:21:09:743
3.5422,-8.7849,1.9745,-0.0691,-0.088,0.109,-0.2903,-0.594,-0.0371,3283,2019-08-07 16:21:09:747
3.5422,-8.7849,1.9745,1.0252,-0.2698,-0.0047,-0.2903,-0.594,-0.0371,3289,2019-08-07 16:21:09:753
2.6284,-8.6847,2.0546,1.0252,-0.2698,-0.0047,-0.2743,-0.4694,-0.0116,3294,2019-08-07 16:21:09:758
2.6284,-8.6847,2.0546,1.0252,-0.2698,-0.0047,-0.2743,-0.4694,-0.0116,3298,2019-08-07 16:21:09:762
3.858,-9.2337,2.6863,1.0252,-0.2698,-0.0047,-0.0815,-0.3021,-0.0627,3304,2019-08-07 16:21:09:768
3.858,-9.2337,2.6863,-0.2919,0.2734,-0.5256,-0.0815,-0.3021,-0.0627,3309,2019-08-07 16:21:09:773
3.858,-9.2337,2.6863,-0.2919,0.2734,-0.5256,0.1113,-0.2307,-0.0765,3315,2019-08-07 16:21:09:779
4.0398,-9.0952,1.7247,-0.2919,0.2734,-0.5256,0.1113,-0.2307,-0.0765,3319,2019-08-07 16:21:09:783
4.0398,-9.0952,1.7247,-0.2919,0.2734,-0.5256,0.2115,0.0292,-0.051,3324,2019-08-07 16:21:09:788
4.7191,-8.9568,1.5267,-1.1413,0.056,0.5255,0.2115,0.0292,-0.051,3329,2019-08-07 16:21:09:793
4.7191,-8.9568,1.5267,-1.1413,0.056,0.5255,0.1934,0.2135,-0.0542,3334,2019-08-07 16:21:09:798
4.7191,-8.9568,1.5267,-1.1413,0.056,0.5255,0.1934,0.2135,-0.0542,3339,2019-08-07 16:21:09:803
4.7909,-8.5797,1.3947,-1.2074,-0.3137,0.6798,0.1934,0.2135,-0.0542,3344,2019-08-07 16:21:09:808
4.7909,-8.5797,1.3947,-1.2074,-0.3137,0.6798,0.057,0.2667,-0.052,3349,2019-08-07 16:21:09:813
3.5614,-8.3982,2.1065,-1.2074,-0.3137,0.6798,0.057,0.2667,-0.052,3354,2019-08-07 16:21:09:818
3.5614,-8.3982,2.1065,-1.2074,-0.3137,0.6798,-0.0548,0.3573,0.0481,3359,2019-08-07 16:21:09:823
3.5614,-8.3982,2.1065,-0.0469,-0.1769,-0.4691,-0.0548,0.3573,0.0481,3364,2019-08-07 16:21:09:828
3.4848,-8.9807,2.8843,-0.0469,-0.1769,-0.4691,-0.0548,0.3573,0.0481,3369,2019-08-07 16:21:09:833
3.4848,-8.9807,2.8843,-0.0469,-0.1769,-0.4691,-0.0272,0.255,0.014,3374,2019-08-07 16:21:09:838
3.0734,-9.1573,2.7947,0.5383,0.312,-0.6111,-0.0272,0.255,0.014,3379,2019-08-07 16:21:09:843
3.0734,-9.1573,2.7947,0.5383,0.312,-0.6111,-0.009,0.0931,-0.0084,3384,2019-08-07 16:21:09:848
3.0734,-9.1573,2.7947,0.5383,0.312,-0.6111,-0.009,0.0931,-0.0084,3389,2019-08-07 16:21:09:853