ACCELEROMETER X (m/s²),ACCELEROMETER Y (m/s²),ACCELEROMETER Z (m/s²),LINEAR ACCELERATION X (m/s²),LINEAR ACCELERATION Y (m/s²),LINEAR ACCELERATION Z (m/s²),GYROSCOPE X (rad/s),GYROSCOPE Y (rad/s),GYROSCOPE Z (rad/s),Time since start in ms ,YYYY-MO-DD HH-MI-SS_SSS
3.2086,-8.7898,2.6865,-0.1724,-0.08,0.1315,0.0069,0.0313,-0.0147,4,2019-08-07 16:20:29:658
3.2086,-8.7898,2.6865,0.0202,-0.1075,-0.0549,0.0069,0.0515,-0.0126,9,2019-08-07 16:20:29:663
3.0937,-8.7612,2.7761,0.0202,-0.1075,-0.0549,0.0069,0.0515,-0.0126,14,2019-08-07 16:20:29:668
3.0937,-8.7612,2.7761,0.0202,-0.1075,-0.0549,0.008,0.0473,-0.0126,19,2019-08-07 16:20:29:673
3.0555,-8.7612,2.8751,0.0202,-0.1075,-0.0549,0.008,0.0473,-0.0126,24,2019-08-07 16:20:29:678
3.0555,-8.7612,2.8751,0.0588,-0.1777,-0.1025,-0.0027,0.01,-0.0179,29,2019-08-07 16:20:29:683
3.0555,-8.7612,2.8751,0.0588,-0.1777,-0.1025,-0.0027,0.01,-0.0179,34,2019-08-07 16:20:29:688
3.1416,-8.7612,2.8986,0.0588,-0.1777,-0.1025,-0.0101,-0.023,-0.0169,39,2019-08-07 16:20:29:693
3.1416,-8.7612,2.8986,0.0588,-0.1777,-0.1025,-0.0101,-0.023,-0.0169,43,2019-08-07 16:20:29:697
3.199,-8.785,2.9364,-0.0563,-0.0764,-0.1372,-0.0176,-0.0443,-0.0084,49,2019-08-07 16:20:29:703
3.199,-8.785,2.9364,-0.0563,-0.0764,-0.1372,-0.0176,-0.0443,-0.0084,54,2019-08-07 16:20:29:708
3.199,-8.785,2.9364,-0.0563,-0.0764,-0.1372,-0.0218,-0.056,0.0012,59,2019-08-07 16:20:29:713
3.2851,-8.7516,2.8327,-0.0563,-0.0764,-0.1372,-0.0218,-0.056,0.0012,64,2019-08-07 16:20:29:718
3.2851,-8.7516,2.8327,-0.0563,-0.0764,-0.1372,-0.0218,-0.056,0.0012,69,2019-08-07 16:20:29:723
3.2851,-8.7516,2.8327,-0.1524,-0.1055,-0.073,-0.024,-0.0507,0.0055,74,2019-08-07 16:20:29:728
3.309,-8.7612,2.8562,-0.1524,-0.1055,-0.073,-0.024,-0.0507,0.0055,79,2019-08-07 16:20:29:733
3.309,-8.7612,2.8562,-0.1524,-0.1055,-0.073,-0.0272,-0.0337,0.0087,83,2019-08-07 16:20:29:737
3.2707,-8.7707,2.7195,-0.122,-0.0928,0.0662,-0.0325,-0.006,0.0098,89,2019-08-07 16:20:29:743
3.2707,-8.7707,2.7195,-0.122,-0.0928,0.0662,-0.0325,-0.006,0.0098,94,2019-08-07 16:20:29:748
3.2707,-8.7707,2.7195,-0.122,-0.0928,0.0662,-0.0346,0.027,0.0076,99,2019-08-07 16:20:29:753
3.175,-8.7612,2.7242,-0.122,-0.0928,0.0662,-0.0346,0.027,0.0076,104,2019-08-07 16:20:29:758
3.175,-8.7612,2.7242,-0.122,-0.0928,0.0662,-0.0346,0.027,0.0076,109,2019-08-07 16:20:29:763
3.175,-8.7612,2.7242,0.0287,-0.0617,-0.0141,-0.0325,0.0537,0.0066,113,2019-08-07 16:20:29:767
3.041,-8.8423,2.7337,0.0287,-0.0617,-0.0141,-0.0325,0.0537,0.0066,119,2019-08-07 16:20:29:773
3.041,-8.8423,2.7337,0.0287,-0.0617,-0.0141,-0.0314,0.0622,0.0012,123,2019-08-07 16:20:29:777
3.041,-8.8423,2.7337,0.0287,-0.0617,-0.0141,-0.0314,0.0622,0.0012,129,2019-08-07 16:20:29:783
2.9549,-8.8901,2.8279,0.1864,0.0219,-0.0486,-0.0314,0.0611,-0.0062,134,2019-08-07 16:20:29:788
2.9549,-8.8901,2.8279,0.1864,0.0219,-0.0486,-0.0314,0.0611,-0.0062,139,2019-08-07 16:20:29:793
2.9788,-8.8328,2.8939,0.1864,0.0219,-0.0486,-0.0229,0.0239,-0.0126,143,2019-08-07 16:20:29:797
2.9788,-8.8328,2.8939,0.1864,0.0219,-0.0486,-0.0229,0.0239,-0.0126,148,2019-08-07 16:20:29:802
2.9788,-8.8328,2.8939,0.1136,-0.0361,-0.1536,-0.0112,-0.0188,-0.0116,154,2019-08-07 16:20:29:808
3.108,-8.8662,2.8845,0.1136,-0.0361,-0.1536,-0.0112,-0.0188,-0.0116,160,2019-08-07 16:20:29:814
3.108,-8.8662,2.8845,0.1136,-0.0361,-0.1536,-0.0058,-0.0486,-0.0126,163,2019-08-07 16:20:29:817
3.108,-8.8662,2.8845,0.1136,-0.0361,-0.1536,-0.0058,-0.0486,-0.0126,169,2019-08-07 16:20:29:823
3.3137,-8.7803,2.8232,-0.1543,-0.0928,-0.0061,-0.0058,-0.0486,-0.0126,174,2019-08-07 16:20:29:828
3.3137,-8.7803,2.8232,-0.1543,-0.0928,-0.0061,-0.0048,-0.0678,2.0E-4,179,2019-08-07 16:20:29:833
3.3137,-8.7803,2.8232,-0.1543,-0.0928,-0.0061,-0.0048,-0.0678,2.0E-4,183,2019-08-07 16:20:29:837
3.4381,-8.6991,2.7006,-0.1543,-0.0928,-0.0061,-0.0027,-0.0507,-0.002,189,2019-08-07 16:20:29:843
3.4381,-8.6991,2.7006,-0.3017,-0.1447,0.0741,-0.0027,-0.0507,-0.002,194,2019-08-07 16:20:29:848
3.4285,-8.6609,2.7242,-0.3017,-0.1447,0.0741,-0.0048,-0.022,0.0076,199,2019-08-07 16:20:29:853
3.4285,-8.6609,2.7242,-0.3017,-0.1447,0.0741,-0.0048,-0.022,0.0076,204,2019-08-07 16:20:29:858
3.4285,-8.6609,2.7242,-0.3017,-0.1447,0.0741,-0.009,0.0175,0.0119,209,2019-08-07 16:20:29:863
3.4285,-8.6084,2.7572,-0.276,-0.2594,0.0107,-0.009,0.0175,0.0119,214,2019-08-07 16:20:29:868
3.4285,-8.6084,2.7572,-0.276,-0.2594,0.0107,-0.009,0.0175,0.0119,219,2019-08-07 16:20:29:873
3.4285,-8.6084,2.7572,-0.276,-0.2594,0.0107,-0.0101,0.0654,0.0129,224,2019-08-07 16:20:29:878
3.2467,-8.6179,2.7054,-0.276,-0.2594,0.0107,-0.0101,0.0654,0.0129,229,2019-08-07 16:20:29:883
3.2467,-8.6179,2.7054,0.0019,-0.2508,0.0831,-0.024,0.0835,0.0119,234,2019-08-07 16:20:29:888
3.0648,-8.6418,2.7761,0.0019,-0.2508,0.0831,-0.024,0.0835,0.0119,239,2019-08-07 16:20:29:893
3.0648,-8.6418,2.7761,0.0019,-0.2508,0.0831,-0.0421,0.0718,0.0066,243,2019-08-07 16:20:29:897
3.0648,-8.6418,2.7761,0.0019,-0.2508,0.0831,-0.0421,0.0718,0.0066,249,2019-08-07 16:20:29:903
2.9739,-8.8519,2.7713,0.1686,-0.0196,-0.004,-0.0538,0.0452,-0.002,254,2019-08-07 16:20:29:908
2.9739,-8.8519,2.7713,0.1686,-0.0196,-0.004,-0.0538,0.0452,-0.002,260,2019-08-07 16:20:29:914
2.9739,-8.8519,2.7713,0.1686,-0.0196,-0.004,-0.0549,0.0143,-0.0126,264,2019-08-07 16:20:29:918
2.9548,-8.8853,2.8562,0.1686,-0.0196,-0.004,-0.0549,0.0143,-0.0126,268,2019-08-07 16:20:29:922
2.9548,-8.8853,2.8562,0.154,0.0302,-0.017,-0.0495,-0.0241,-0.0158,274,2019-08-07 16:20:29:928
3.0505,-8.9569,2.7808,0.154,0.0302,-0.017,-0.0495,-0.0241,-0.0158,279,2019-08-07 16:20:29:933
3.0505,-8.9569,2.7808,0.154,0.0302,-0.017,-0.0378,-0.0518,-0.0147,283,2019-08-07 16:20:29:937
3.0505,-8.9569,2.7808,0.154,0.0302,-0.017,-0.0378,-0.0518,-0.0147,289,2019-08-07 16:20:29:943
3.1605,-8.8757,2.7713,-0.0037,0.0192,0.0669,-0.0293,-0.0635,-0.0126,293,2019-08-07 16:20:29:947
3.1605,-8.8757,2.7713,-0.0037,0.0192,0.0669,-0.0293,-0.0635,-0.0126,299,2019-08-07 16:20:29:953
3.3184,-8.8041,2.6865,-0.0037,0.0192,0.0669,-0.0293,-0.0635,-0.0126,303,2019-08-07 16:20:29:957
3.3184,-8.8041,2.6865,-0.0037,0.0192,0.0669,-0.0144,-0.0465,-0.0126,309,2019-08-07 16:20:29:963
3.3184,-8.8041,2.6865,-0.2555,-0.1716,0.0785,-0.0144,-0.0465,-0.0126,314,2019-08-07 16:20:29:968
3.4284,-8.7421,2.6865,-0.2555,-0.1716,0.0785,-0.008,-0.0113,-0.0169,319,2019-08-07 16:20:29:973
3.4284,-8.7421,2.6865,-0.2555,-0.1716,0.0785,-0.008,-0.0113,-0.0169,323,2019-08-07 16:20:29:977
3.3279,-8.6132,2.6016,-0.2555,-0.1716,0.0785,-0.0048,0.0281,-0.0222,329,2019-08-07 16:20:29:983
3.3279,-8.6132,2.6016,-0.155,-0.237,0.1203,-0.0048,0.0281,-0.0222,334,2019-08-07 16:20:29:988
3.3279,-8.6132,2.6016,-0.155,-0.237,0.1203,-0.0165,0.0579,-0.0254,339,2019-08-07 16:20:29:993
3.2753,-8.6561,2.6393,-0.1106,-0.203,0.0594,-0.0165,0.0579,-0.0254,343,2019-08-07 16:20:29:997
3.2753,-8.6561,2.6393,-0.1106,-0.203,0.0594,-0.0293,0.0729,-0.0275,349,2019-08-07 16:20:30:003
3.2753,-8.6561,2.6393,-0.1106,-0.203,0.0594,-0.0293,0.0729,-0.0275,354,2019-08-07 16:20:30:008
3.1844,-8.7421,2.7619,-0.1106,-0.203,0.0594,-0.0303,0.0633,-0.035,359,2019-08-07 16:20:30:013
3.1844,-8.7421,2.7619,0.0304,-0.0829,-0.0069,-0.0303,0.0633,-0.035,364,2019-08-07 16:20:30:018
3.1174,-8.785,2.7478,0.0304,-0.0829,-0.0069,-0.0229,0.0388,-0.0371,369,2019-08-07 16:20:30:023
3.1174,-8.785,2.7478,0.0304,-0.0829,-0.0069,-0.0229,0.0388,-0.0371,375,2019-08-07 16:20:30:029
3.1174,-8.785,2.7478,0.0304,-0.0829,-0.0069,-0.008,0.0121,-0.0467,379,2019-08-07 16:20:30:033
3.0934,-8.785,2.8986,0.0792,-0.1097,-0.1487,-0.008,0.0121,-0.0467,384,2019-08-07 16:20:30:038
3.0934,-8.785,2.8986,0.0792,-0.1097,-0.1487,-0.008,0.0121,-0.0467,388,2019-08-07 16:20:30:042
3.0934,-8.785,2.8986,0.0792,-0.1097,-0.1487,0.0069,-0.0347,-0.0488,394,2019-08-07 16:20:30:048
3.1891,-8.68,2.8467,0.0792,-0.1097,-0.1487,0.0069,-0.0347,-0.0488,400,2019-08-07 16:20:30:054
3.1891,-8.68,2.8467,-0.1912,-0.2439,-0.0688,0.0101,-0.0539,-0.0542,404,2019-08-07 16:20:30:058
3.4044,-8.5941,2.842,-0.1912,-0.2439,-0.0688,0.0101,-0.0539,-0.0542,408,2019-08-07 16:20:30:062
3.4044,-8.5941,2.842,-0.1912,-0.2439,-0.0688,0.0059,-0.0443,-0.0499,414,2019-08-07 16:20:30:068
3.4379,-8.5893,2.7383,-0.1912,-0.2439,-0.0688,0.0059,-0.0443,-0.0499,419,2019-08-07 16:20:30:073
3.4379,-8.5893,2.7383,-0.1912,-0.2439,-0.0688,0.0059,-0.0443,-0.0499,424,2019-08-07 16:20:30:078
3.4379,-8.5893,2.7383,-0.2635,-0.2153,-0.0411,-0.0016,-0.0038,-0.0435,429,2019-08-07 16:20:30:083
3.4618,-8.6943,2.7713,-0.2635,-0.2153,-0.0411,-0.0016,-0.0038,-0.0435,434,2019-08-07 16:20:30:088
3.4618,-8.6943,2.7713,-0.2635,-0.2153,-0.0411,-0.024,0.0345,-0.035,438,2019-08-07 16:20:30:092
3.4618,-8.6943,2.7713,-0.2635,-0.2153,-0.0411,-0.024,0.0345,-0.035,444,2019-08-07 16:20:30:098
3.3469,-8.7993,2.7195,-0.1459,-0.0602,0.0187,-0.0431,0.0515,-0.0286,449,2019-08-07 16:20:30:103
3.3469,-8.7993,2.7195,-0.1459,-0.0602,0.0187,-0.0431,0.0515,-0.0286,454,2019-08-07 16:20:30:108
3.213,-8.976,2.8184,-0.1459,-0.0602,0.0187,-0.0517,0.0547,-0.0179,460,2019-08-07 16:20:30:114
3.213,-8.976,2.8184,-0.1459,-0.0602,0.0187,-0.0517,0.0547,-0.0179,464,2019-08-07 16:20:30:118
3.213,-8.976,2.8184,0.0563,0.206,-0.0382,-0.0517,0.0547,-0.0179,469,2019-08-07 16:20:30:123
3.1268,-9.0237,2.8184,0.0563,0.206,-0.0382,-0.0538,0.0452,-0.0147,474,2019-08-07 16:20:30:128
3.1268,-9.0237,2.8184,0.0563,0.206,-0.0382,-0.0538,0.0452,-0.0147,478,2019-08-07 16:20:30:132
3.1268,-9.0237,2.8184,0.0563,0.206,-0.0382,-0.0506,0.0302,-0.0073,484,2019-08-07 16:20:30:138
3.1173,-9.0428,2.7194,0.0841,0.1796,0.0067,-0.0506,0.0302,-0.0073,488,2019-08-07 16:20:30:142
3.1173,-9.0428,2.7194,0.0841,0.1796,0.0067,-0.0453,0.0313,-0.0062,494,2019-08-07 16:20:30:148
3.122,-8.9807,2.7147,0.0841,0.1796,0.0067,-0.0453,0.0313,-0.0062,500,2019-08-07 16:20:30:154
3.122,-8.9807,2.7147,0.0841,0.1796,0.0067,-0.0303,0.0345,-0.0041,503,2019-08-07 16:20:30:157
3.122,-8.9807,2.7147,0.0684,0.1345,0.0343,-0.0303,0.0345,-0.0041,509,2019-08-07 16:20:30:163
3.1555,-8.9903,2.7053,0.0684,0.1345,0.0343,-0.025,0.0484,0.0012,514,2019-08-07 16:20:30:168
3.1555,-8.9903,2.7053,0.0684,0.1345,0.0343,-0.025,0.0484,0.0012,518,2019-08-07 16:20:30:172
3.1507,-8.9807,2.7383,0.0684,0.1345,0.0343,-0.025,0.0484,0.0012,524,2019-08-07 16:20:30:178
3.1507,-8.9807,2.7383,0.0315,0.0706,0.0135,-0.0229,0.0452,0.0066,529,2019-08-07 16:20:30:183
3.1507,-8.9807,2.7383,0.0315,0.0706,0.0135,-0.0229,0.0452,0.0066,534,2019-08-07 16:20:30:188
3.2129,-8.9234,2.7666,0.0315,0.0706,0.0135,-0.0197,0.042,0.0151,538,2019-08-07 16:20:30:192
3.2129,-8.9234,2.7666,0.0315,0.0706,0.0135,-0.0197,0.042,0.0151,544,2019-08-07 16:20:30:198
3.2894,-8.89,2.7336,-0.0595,0.0114,-0.0107,-0.0165,0.0324,0.0289,548,2019-08-07 16:20:30:202
3.2894,-8.89,2.7336,-0.0595,0.0114,-0.0107,-0.0165,0.0324,0.0289,554,2019-08-07 16:20:30:208
3.2894,-8.89,2.7336,-0.0595,0.0114,-0.0107,-0.025,0.0228,0.0374,559,2019-08-07 16:20:30:213
3.3277,-8.8518,2.7619,-0.0595,0.0114,-0.0107,-0.025,0.0228,0.0374,565,2019-08-07 16:20:30:219
3.3277,-8.8518,2.7619,-0.124,-0.0252,-0.0316,-0.024,0.0249,0.0513,569,2019-08-07 16:20:30:223
3.3277,-8.8518,2.7619,-0.124,-0.0252,-0.0316,-0.024,0.0249,0.0513,574,2019-08-07 16:20:30:228
3.3181,-8.828,2.7053,-0.124,-0.0252,-0.0316,-0.0272,0.0441,0.0673,579,2019-08-07 16:20:30:233
3.3181,-8.828,2.7053,-0.124,-0.0252,-0.0316,-0.0272,0.0441,0.0673,584,2019-08-07 16:20:30:238
3.3038,-8.8423,2.6817,-0.1552,-0.0685,0.0554,-0.0357,0.0622,0.0747,589,2019-08-07 16:20:30:243
3.3038,-8.8423,2.6817,-0.1552,-0.0685,0.0554,-0.0357,0.0622,0.0747,594,2019-08-07 16:20:30:248
3.3038,-8.8423,2.6817,-0.1552,-0.0685,0.0554,-0.0357,0.0622,0.0747,599,2019-08-07 16:20:30:253
3.2176,-8.8518,2.644,-0.1552,-0.0685,0.0554,-0.0357,0.0782,0.0779,604,2019-08-07 16:20:30:258
3.2176,-8.8518,2.644,-0.0335,0.0202,0.0485,-0.0357,0.0782,0.0779,610,2019-08-07 16:20:30:264
3.2176,-8.8518,2.644,-0.0335,0.0202,0.0485,-0.0389,0.0963,0.0747,613,2019-08-07 16:20:30:267
3.0837,-8.9234,2.743,-0.0335,0.0202,0.0485,-0.0389,0.0963,0.0747,619,2019-08-07 16:20:30:273
3.0837,-8.9234,2.743,-0.0335,0.0202,0.0485,-0.0303,0.0899,0.0662,624,2019-08-07 16:20:30:278
3.0119,-8.8184,2.7571,0.1248,-0.0724,-0.0459,-0.0303,0.0899,0.0662,629,2019-08-07 16:20:30:283
3.0119,-8.8184,2.7571,0.1248,-0.0724,-0.0459,-0.0303,0.0899,0.0662,634,2019-08-07 16:20:30:288
3.0119,-8.8184,2.7571,0.1248,-0.0724,-0.0459,-0.0186,0.0622,0.0534,639,2019-08-07 16:20:30:293
2.9066,-8.7754,2.7854,0.1248,-0.0724,-0.0459,-0.0186,0.0622,0.0534,644,2019-08-07 16:20:30:298
2.9066,-8.7754,2.7854,0.1112,-0.1533,-0.0356,-0.0165,0.0292,0.0406,649,2019-08-07 16:20:30:303
3.0167,-8.6847,2.7948,0.1112,-0.1533,-0.0356,-0.0165,0.0292,0.0406,653,2019-08-07 16:20:30:307
3.0167,-8.6847,2.7948,0.1112,-0.1533,-0.0356,-0.0133,-0.0092,0.03,659,2019-08-07 16:20:30:313
3.1267,-8.6895,2.6911,0.1112,-0.1533,-0.0356,-0.0133,-0.0092,0.03,664,2019-08-07 16:20:30:318
3.1267,-8.6895,2.6911,-0.0136,-0.1461,0.0476,-0.0058,-0.022,0.0215,668,2019-08-07 16:20:30:322
3.1267,-8.6895,2.6911,-0.0136,-0.1461,0.0476,-0.0058,-0.022,0.0215,674,2019-08-07 16:20:30:328
3.2032,-8.7277,2.6393,-0.0136,-0.1461,0.0476,0.0027,-0.0188,0.0161,679,2019-08-07 16:20:30:333
3.2032,-8.7277,2.6393,-0.0136,-0.1461,0.0476,0.0027,-0.0188,0.0161,684,2019-08-07 16:20:30:338
3.2032,-8.7277,2.6393,-0.2053,-0.2085,-0.0096,0.0027,-0.0188,0.0161,688,2019-08-07 16:20:30:342
3.3133,-8.6847,2.7288,-0.2053,-0.2085,-0.0096,0.0187,-0.0028,0.0055,694,2019-08-07 16:20:30:348
3.3133,-8.6847,2.7288,-0.2053,-0.2085,-0.0096,0.0187,-0.0028,0.0055,699,2019-08-07 16:20:30:353
3.3085,-8.5558,2.578,-0.2053,-0.2085,-0.0096,0.0208,0.0345,-0.003,704,2019-08-07 16:20:30:358
3.3085,-8.5558,2.578,-0.1664,-0.2879,0.0755,0.0208,0.0345,-0.003,709,2019-08-07 16:20:30:363
3.3085,-8.5558,2.578,-0.1664,-0.2879,0.0755,0.0144,0.0633,-0.003,714,2019-08-07 16:20:30:368
3.2415,-8.6131,2.644,-0.1664,-0.2879,0.0755,0.0144,0.0633,-0.003,719,2019-08-07 16:20:30:373
3.2415,-8.6131,2.644,-0.1664,-0.2879,0.0755,0.0144,0.0633,-0.003,724,2019-08-07 16:20:30:378
3.1218,-8.5558,2.7807,-0.0048,-0.3388,-0.0593,0.0027,0.0856,-0.0148,729,2019-08-07 16:20:30:383
3.1218,-8.5558,2.7807,-0.0048,-0.3388,-0.0593,0.0027,0.0856,-0.0148,734,2019-08-07 16:20:30:388
3.1218,-8.5558,2.7807,-0.0048,-0.3388,-0.0593,0.0016,0.0856,-0.0169,739,2019-08-07 16:20:30:393
3.0309,-8.5368,2.8561,-0.0048,-0.3388,-0.0593,0.0016,0.0856,-0.0169,744,2019-08-07 16:20:30:398
3.0309,-8.5368,2.8561,-0.0048,-0.3388,-0.0593,0.0069,0.0654,-0.0361,748,2019-08-07 16:20:30:402
2.9448,-8.5129,2.8561,0.1202,-0.3365,-0.0901,0.0069,0.0654,-0.0361,754,2019-08-07 16:20:30:408
2.9448,-8.5129,2.8561,0.1202,-0.3365,-0.0901,0.008,0.0324,-0.0467,758,2019-08-07 16:20:30:412
2.9448,-8.5129,2.8561,0.1202,-0.3365,-0.0901,0.008,0.0324,-0.0467,764,2019-08-07 16:20:30:418
3.0931,-8.532,2.8184,0.0508,-0.3851,-0.0668,0.0048,-0.023,-0.0531,769,2019-08-07 16:20:30:423
3.0931,-8.532,2.8184,0.0508,-0.3851,-0.0668,0.0048,-0.023,-0.0531,774,2019-08-07 16:20:30:428
3.2031,-8.5272,2.8137,0.0508,-0.3851,-0.0668,0.0048,-0.0454,-0.052,779,2019-08-07 16:20:30:433
3.2031,-8.5272,2.8137,0.0508,-0.3851,-0.0668,0.0048,-0.0454,-0.052,784,2019-08-07 16:20:30:438
3.2031,-8.5272,2.8137,0.0508,-0.3851,-0.0668,0.0048,-0.0454,-0.052,788,2019-08-07 16:20:30:442
3.3275,-8.446,2.7571,-0.2269,-0.3757,-0.0633,0.0048,-0.0592,-0.0563,794,2019-08-07 16:20:30:448
3.3275,-8.446,2.7571,-0.2269,-0.3757,-0.0633,0.0016,-0.0539,-0.0467,799,2019-08-07 16:20:30:453
3.3275,-8.446,2.7571,-0.2269,-0.3757,-0.0633,0.0016,-0.0539,-0.0467,803,2019-08-07 16:20:30:457
3.2462,-8.4079,2.545,-0.2269,-0.3757,-0.0633,0.0016,-0.0539,-0.0467,809,2019-08-07 16:20:30:463
3.2462,-8.4079,2.545,-0.0604,-0.4294,0.3807,-0.0229,-0.0582,-0.0286,814,2019-08-07 16:20:30:468
3.1409,-8.5224,2.38,-0.0604,-0.4294,0.3807,-0.0229,-0.0582,-0.0286,819,2019-08-07 16:20:30:473
3.1409,-8.5224,2.38,-0.0604,-0.4294,0.3807,-0.0644,-0.0912,-0.0179,824,2019-08-07 16:20:30:478
3.1409,-8.5224,2.38,0.0059,-0.183,0.3363,-0.0644,-0.0912,-0.0179,830,2019-08-07 16:20:30:484
3.1553,-8.6991,2.3753,0.0059,-0.183,0.3363,-0.09,-0.0987,-0.0179,834,2019-08-07 16:20:30:488
3.1553,-8.6991,2.3753,0.0059,-0.183,0.3363,-0.09,-0.0987,-0.0179,838,2019-08-07 16:20:30:492
3.2844,-8.8232,2.3611,0.0059,-0.183,0.3363,-0.0953,-0.0805,-0.0403,844,2019-08-07 16:20:30:498
3.2844,-8.8232,2.3611,0.0059,-0.183,0.3363,-0.0953,-0.0805,-0.0403,848,2019-08-07 16:20:30:502
3.2844,-8.8232,2.3611,-0.2312,-0.0384,0.5329,-0.1017,-0.0251,-0.0691,854,2019-08-07 16:20:30:508
3.5188,-8.847,2.1396,-0.2312,-0.0384,0.5329,-0.1017,-0.0251,-0.0691,859,2019-08-07 16:20:30:513
3.5188,-8.847,2.1396,-0.2312,-0.0384,0.5329,-0.0975,0.0697,-0.0968,863,2019-08-07 16:20:30:517
3.5188,-8.6704,2.0265,-0.2312,-0.0384,0.5329,-0.0975,0.0697,-0.0968,869,2019-08-07 16:20:30:523
3.5188,-8.6704,2.0265,-0.3531,-0.2818,0.6029,-0.0975,0.0697,-0.0968,874,2019-08-07 16:20:30:528
3.5188,-8.6704,2.0265,-0.3531,-0.2818,0.6029,-0.0793,0.189,-0.1128,879,2019-08-07 16:20:30:533
3.4136,-8.4413,2.0217,-0.3531,-0.2818,0.6029,-0.0793,0.189,-0.1128,884,2019-08-07 16:20:30:538
3.4136,-8.4413,2.0217,-0.3531,-0.2818,0.6029,-0.0719,0.2998,-0.116,888,2019-08-07 16:20:30:542
3.1026,-8.4317,2.1066,0.0636,-0.4554,0.6385,-0.0719,0.2998,-0.116,894,2019-08-07 16:20:30:548
3.1026,-8.4317,2.1066,0.0636,-0.4554,0.6385,-0.0793,0.3179,-0.1138,899,2019-08-07 16:20:30:553
3.1026,-8.4317,2.1066,0.0636,-0.4554,0.6385,-0.0793,0.3179,-0.1138,903,2019-08-07 16:20:30:557
2.9112,-8.8566,2.3187,0.0636,-0.4554,0.6385,-0.0911,0.2699,-0.1191,909,2019-08-07 16:20:30:563
2.9112,-8.8566,2.3187,0.3114,-0.0142,0.3437,-0.0911,0.2699,-0.1191,914,2019-08-07 16:20:30:568
2.9112,-8.8566,2.3187,0.3114,-0.0142,0.3437,-0.0911,0.2699,-0.1191,919,2019-08-07 16:20:30:573
2.9495,-9.1096,2.3517,0.3114,-0.0142,0.3437,-0.0943,0.2081,-0.149,924,2019-08-07 16:20:30:578
2.9495,-9.1096,2.3517,0.3114,-0.0142,0.3437,-0.0943,0.2081,-0.149,930,2019-08-07 16:20:30:584
3.0212,-9.3483,2.0594,0.1803,0.4133,0.5451,-0.107,0.206,-0.1745,934,2019-08-07 16:20:30:588
3.0212,-9.3483,2.0594,0.1803,0.4133,0.5451,-0.107,0.206,-0.1745,939,2019-08-07 16:20:30:593
3.0212,-9.3483,2.0594,0.1803,0.4133,0.5451,-0.123,0.2348,-0.1948,944,2019-08-07 16:20:30:598
2.9159,-9.3244,1.8143,0.1803,0.4133,0.5451,-0.123,0.2348,-0.1948,949,2019-08-07 16:20:30:603
2.9159,-9.3244,1.8143,0.4478,0.5166,0.8389,-0.1284,0.2763,-0.1927,954,2019-08-07 16:20:30:608
2.6863,-9.5058,1.918,0.4478,0.5166,0.8389,-0.1284,0.2763,-0.1927,959,2019-08-07 16:20:30:613
2.6863,-9.5058,1.918,0.4478,0.5166,0.8389,-0.123,0.2689,-0.1831,964,2019-08-07 16:20:30:618
2.6863,-9.5058,1.918,0.4478,0.5166,0.8389,-0.123,0.2689,-0.1831,969,2019-08-07 16:20:30:623
2.5762,-9.7397,1.8897,0.672,0.8667,0.7474,-0.123,0.2689,-0.1831,974,2019-08-07 16:20:30:628
2.5762,-9.7397,1.8897,0.672,0.8667,0.7474,-0.1273,0.2028,-0.1703,978,2019-08-07 16:20:30:632
2.5762,-9.7397,1.8897,0.672,0.8667,0.7474,-0.1273,0.2028,-0.1703,984,2019-08-07 16:20:30:638
2.7533,-10.0166,1.8897,0.672,0.8667,0.7474,-0.1315,0.0952,-0.165,988,2019-08-07 16:20:30:642
2.7533,-10.0166,1.8897,0.4869,1.3537,0.7751,-0.1315,0.0952,-0.165,994,2019-08-07 16:20:30:648
2.8681,-10.2792,1.8473,0.4869,1.3537,0.7751,-0.1262,0.0164,-0.1543,999,2019-08-07 16:20:30:653
2.8681,-10.2792,1.8473,0.4869,1.3537,0.7751,-0.1262,0.0164,-0.1543,1004,2019-08-07 16:20:30:658
2.8681,-10.2792,1.8473,0.4869,1.3537,0.7751,-0.106,-0.0422,-0.1245,1009,2019-08-07 16:20:30:663
3.0259,-10.5083,1.8473,0.2207,1.711,0.7794,-0.106,-0.0422,-0.1245,1014,2019-08-07 16:20:30:668
3.0259,-10.5083,1.8473,0.2207,1.711,0.7794,-0.074,-0.0337,-0.068,1019,2019-08-07 16:20:30:673
3.1694,-10.7661,1.7719,0.2207,1.711,0.7794,-0.074,-0.0337,-0.068,1024,2019-08-07 16:20:30:678
3.1694,-10.7661,1.7719,0.2207,1.711,0.7794,-0.041,0.0484,-0.0137,1029,2019-08-07 16:20:30:683
3.1694,-10.7661,1.7719,0.3137,2.1656,0.7909,-0.041,0.0484,-0.0137,1034,2019-08-07 16:20:30:688
2.9111,-11.1766,1.8709,0.3137,2.1656,0.7909,-0.041,0.0484,-0.0137,1038,2019-08-07 16:20:30:692
2.9111,-11.1766,1.8709,0.3137,2.1656,0.7909,0.0037,0.1783,0.0513,1044,2019-08-07 16:20:30:698
2.2604,-12.0789,2.2998,0.3137,2.1656,0.7909,0.0037,0.1783,0.0513,1049,2019-08-07 16:20:30:703
2.2604,-12.0789,2.2998,1.3163,3.5649,0.0215,0.0591,0.3615,0.1323,1054,2019-08-07 16:20:30:708
2.2604,-12.0789,2.2998,1.3163,3.5649,0.0215,0.0591,0.3615,0.1323,1059,2019-08-07 16:20:30:713
1.4088,-13.2151,3.0352,1.3163,3.5649,0.0215,0.1081,0.4585,0.2175,1064,2019-08-07 16:20:30:718
1.4088,-13.2151,3.0352,1.3163,3.5649,0.0215,0.1081,0.4585,0.2175,1069,2019-08-07 16:20:30:723
1.4088,-13.2151,3.0352,1.3163,3.5649,0.0215,0.1081,0.4585,0.2175,1074,2019-08-07 16:20:30:728
0.5524,-14.6568,3.2426,2.6287,5.7545,-0.6222,0.1518,0.5256,0.3432,1079,2019-08-07 16:20:30:733
0.5524,-14.6568,3.2426,2.6287,5.7545,-0.6222,0.1518,0.5256,0.3432,1084,2019-08-07 16:20:30:738
-0.347,-16.0841,3.9072,2.6287,5.7545,-0.6222,0.2637,0.6023,0.5232,1089,2019-08-07 16:20:30:743
-0.347,-16.0841,3.9072,2.6287,5.7545,-0.6222,0.2637,0.6023,0.5232,1094,2019-08-07 16:20:30:748
-1.1077,-17.0723,4.8123,4.0332,7.9719,-1.8088,0.432,0.6694,0.7203,1099,2019-08-07 16:20:30:753
-1.1077,-17.0723,4.8123,4.0332,7.9719,-1.8088,0.432,0.6694,0.7203,1104,2019-08-07 16:20:30:758
-1.1077,-17.0723,4.8123,4.0332,7.9719,-1.8088,0.432,0.6694,0.7203,1108,2019-08-07 16:20:30:762
-1.5909,-19.1394,6.0661,4.639,10.5514,-3.349,0.7121,0.8782,0.9983,1114,2019-08-07 16:20:30:768
-1.5909,-19.1394,6.0661,4.639,10.5514,-3.349,0.7121,0.8782,0.9983,1119,2019-08-07 16:20:30:773
-1.5909,-19.1394,6.0661,4.639,10.5514,-3.349,0.9188,1.0699,1.369,1124,2019-08-07 16:20:30:778
-2.1842,-21.5454,5.2082,4.639,10.5514,-3.349,0.9188,1.0699,1.369,1129,2019-08-07 16:20:30:783
-2.1842,-21.5454,5.2082,4.639,10.5514,-3.349,0.9188,1.0699,1.369,1134,2019-08-07 16:20:30:788
-2.1842,-21.5454,5.2082,5.0968,14.121,-1.2696,0.9572,1.4268,1.7781,1139,2019-08-07 16:20:30:793
-3.0597,-24.5147,3.6432,5.0968,14.121,-1.2696,0.9572,1.4268,1.7781,1145,2019-08-07 16:20:30:799
-3.0597,-24.5147,3.6432,5.0968,14.121,-1.2696,0.9614,1.9158,2.1595,1148,2019-08-07 16:20:30:802
-3.0597,-24.5147,3.6432,5.0968,14.121,-1.2696,0.9614,1.9158,2.1595,1154,2019-08-07 16:20:30:808
-5.3705,-32.5777,1.0836,7.2982,23.5476,2.2296,0.9614,1.9158,2.1595,1159,2019-08-07 16:20:30:813
-5.3705,-32.5777,1.0836,7.2982,23.5476,2.2296,0.9241,2.7978,2.7347,1164,2019-08-07 16:20:30:818
-6.4135,-37.3419,0.8951,7.2982,23.5476,2.2296,0.9241,2.7978,2.7347,1169,2019-08-07 16:20:30:823
-6.4135,-37.3419,0.8951,7.2982,23.5476,2.2296,0.9721,3.6692,3.3611,1174,2019-08-07 16:20:30:828
-6.4135,-37.3419,0.8951,6.6262,26.1277,0.4027,0.9721,3.6692,3.3611,1179,2019-08-07 16:20:30:833
-4.4568,-34.0432,4.4493,6.6262,26.1277,0.4027,1.3928,4.1592,3.6721,1184,2019-08-07 16:20:30:838
-4.4568,-34.0432,4.4493,6.6262,26.1277,0.4027,1.3928,4.1592,3.6721,1188,2019-08-07 16:20:30:842
-1.0839,-33.141,3.9449,6.6262,26.1277,0.4027,2.0512,4.8751,3.6657,1194,2019-08-07 16:20:30:848
-1.0839,-33.141,3.9449,0.7515,23.7847,1.9818,2.0512,4.8751,3.6657,1199,2019-08-07 16:20:30:853
-1.0839,-33.141,3.9449,0.7515,23.7847,1.9818,2.0512,4.8751,3.6657,1204,2019-08-07 16:20:30:858
1.0547,-28.3719,-0.4625,0.7515,23.7847,1.9818,1.3321,5.7347,3.3728,1209,2019-08-07 16:20:30:863
1.0547,-28.3719,-0.4625,0.7515,23.7847,1.9818,0.661,6.3142,2.9999,1214,2019-08-07 16:20:30:868
1.0547,-28.3719,-0.4625,-1.9566,18.461,6.7734,0.661,6.3142,2.9999,1219,2019-08-07 16:20:30:873
0.1552,-27.0544,-4.4127,-1.9566,18.461,6.7734,0.661,6.3142,2.9999,1224,2019-08-07 16:20:30:878
0.1552,-27.0544,-4.4127,-1.9566,18.461,6.7734,0.025,7.2165,2.2649,1229,2019-08-07 16:20:30:883
-2.7058,-28.1523,-11.8746,-1.9566,18.461,6.7734,0.025,7.2165,2.2649,1235,2019-08-07 16:20:30:889
-2.7058,-28.1523,-11.8746,0.8416,19.4982,16.5741,-0.3414,8.1998,1.3136,1239,2019-08-07 16:20:30:893
-2.7058,-28.1523,-11.8746,0.8416,19.4982,16.5741,-0.3414,8.1998,1.3136,1244,2019-08-07 16:20:30:898
-6.3753,-28.5963,-13.6423,0.8416,19.4982,16.5741,-0.1933,9.5452,0.2857,1249,2019-08-07 16:20:30:903
-6.3753,-28.5963,-13.6423,0.8416,19.4982,16.5741,-0.1933,9.5452,0.2857,1254,2019-08-07 16:20:30:908
-6.3753,-28.5963,-13.6423,5.1308,15.4993,15.3481,-0.1933,9.5452,0.2857,1259,2019-08-07 16:20:30:913
-7.9398,-22.672,-10.7999,5.1308,15.4993,15.3481,1.5281,11.5894,-1.3005,1265,2019-08-07 16:20:30:919
-7.9398,-22.672,-10.7999,5.1308,15.4993,15.3481,4.4022,12.2509,-2.5938,1269,2019-08-07 16:20:30:923
-8.0929,-15.9791,11.0156,5.1308,15.4993,15.3481,4.4022,12.2509,-2.5938,1275,2019-08-07 16:20:30:929
-8.0929,-15.9791,11.0156,4.7919,5.649,-12.0792,4.4022,12.2509,-2.5938,1279,2019-08-07 16:20:30:933
-8.0929,-15.9791,11.0156,4.7919,5.649,-12.0792,8.5024,10.4102,-3.7059,1283,2019-08-07 16:20:30:937
-8.1742,-3.2187,7.8008,4.7919,5.649,-12.0792,8.5024,10.4102,-3.7059,1289,2019-08-07 16:20:30:943
-8.1742,-3.2187,7.8008,4.7919,5.649,-12.0792,13.3121,7.1398,-4.4825,1294,2019-08-07 16:20:30:948
-15.2932,21.123,20.4574,9.1312,-16.8515,1.7745,13.3121,7.1398,-4.4825,1300,2019-08-07 16:20:30:954
-15.2932,21.123,20.4574,9.1312,-16.8515,1.7745,15.1635,3.5978,-3.577,1304,2019-08-07 16:20:30:958
-15.2932,21.123,20.4574,9.1312,-16.8515,1.7745,15.1635,3.5978,-3.577,1309,2019-08-07 16:20:30:963
-18.4795,119.8647,-1.0612,9.1312,-16.8515,1.7745,9.4484,-4.3395,-0.4504,1315,2019-08-07 16:20:30:969
-18.4795,119.8647,-1.0612,4.5908,-124.1392,12.9092,9.4484,-4.3395,-0.4504,1319,2019-08-07 16:20:30:973
-18.4795,119.8647,-1.0612,4.5908,-124.1392,12.9092,9.4484,-4.3395,-0.4504,1324,2019-08-07 16:20:30:978
10.8814,69.5964,-58.8289,4.5908,-124.1392,12.9092,9.4761,-3.1613,0.9855,1329,2019-08-07 16:20:30:983
10.8814,69.5964,-58.8289,4.5908,-124.1392,12.9092,9.4761,-3.1613,0.9855,1334,2019-08-07 16:20:30:988
22.177,54.2629,-36.1319,-24.6861,-60.742,48.9888,-1.38,-5.7382,2.0849,1339,2019-08-07 16:20:30:993
22.177,54.2629,-36.1319,-24.6861,-60.742,48.9888,-1.38,-5.7382,2.0849,1344,2019-08-07 16:20:30:998
22.177,54.2629,-36.1319,-31.1762,-48.5611,10.7835,-6.1812,1.1147,3.3121,1349,2019-08-07 16:20:31:003
33.9701,30.5991,14.485,-31.1762,-48.5611,10.7835,-6.1812,1.1147,3.3121,1354,2019-08-07 16:20:31:008
33.9701,30.5991,14.485,-31.1762,-48.5611,10.7835,-6.1812,1.1147,3.3121,1359,2019-08-07 16:20:31:013
33.9701,30.5991,14.485,-31.1762,-48.5611,10.7835,-5.835,-1.524,1.3839,1365,2019-08-07 16:20:31:019
5.59,23.911,5.7786,-4.8542,-28.8998,1.86,-5.835,-1.524,1.3839,1369,2019-08-07 16:20:31:023
5.59,23.911,5.7786,-4.8542,-28.8998,1.86,-3.8397,1.283,0.8982,1374,2019-08-07 16:20:31:028
5.59,23.911,5.7786,-4.8542,-28.8998,1.86,-3.8397,1.283,0.8982,1378,2019-08-07 16:20:31:032
-2.4858,18.6693,11.9065,-4.8542,-28.8998,1.86,-3.1569,2.4367,0.4604,1384,2019-08-07 16:20:31:038
-2.4858,18.6693,11.9065,3.5827,-23.2966,5.7378,-3.1569,2.4367,0.4604,1388,2019-08-07 16:20:31:042
-7.294,15.6427,-1.2874,3.5827,-23.2966,5.7378,-3.8685,0.3413,0.3133,1394,2019-08-07 16:20:31:048
-7.294,15.6427,-1.2874,3.5827,-23.2966,5.7378,-3.8685,0.3413,0.3133,1399,2019-08-07 16:20:31:053
-7.294,15.6427,-1.2874,3.5827,-23.2966,5.7378,-4.9678,-1.149,0.3112,1404,2019-08-07 16:20:31:058
-9.2747,11.7138,2.6816,3.5827,-23.2966,5.7378,-4.9678,-1.149,0.3112,1408,2019-08-07 16:20:31:062
-9.2747,11.7138,2.6816,6.2768,-18.3142,1.6474,-5.6826,-3.4873,0.5019,1414,2019-08-07 16:20:31:068
-8.1695,6.2383,8.4984,6.2768,-18.3142,1.6474,-5.6826,-3.4873,0.5019,1419,2019-08-07 16:20:31:073
-8.1695,6.2383,8.4984,6.2768,-18.3142,1.6474,-5.6826,-3.4873,0.5019,1424,2019-08-07 16:20:31:078
-8.1695,6.2383,8.4984,4.112,-9.6795,-5.6683,-5.3386,-6.8301,0.7927,1430,2019-08-07 16:20:31:084
-5.8348,0.4667,10.0115,4.112,-9.6795,-5.6683,-5.3386,-6.8301,0.7927,1434,2019-08-07 16:20:31:088
-5.8348,0.4667,10.0115,4.112,-9.6795,-5.6683,-4.1199,-7.7973,0.7363,1439,2019-08-07 16:20:31:093
-5.8348,0.4667,10.0115,4.112,-9.6795,-5.6683,-4.1199,-7.7973,0.7363,1444,2019-08-07 16:20:31:098
-3.1892,-3.8202,2.1913,4.112,-9.6795,-5.6683,-4.1199,-7.7973,0.7363,1449,2019-08-07 16:20:31:103
-3.1892,-3.8202,2.1913,1.0493,-3.3966,3.6929,-4.2925,-8.9584,0.618,1454,2019-08-07 16:20:31:108
-3.1892,-3.8202,2.1913,1.0493,-3.3966,3.6929,-4.2925,-8.9584,0.618,1459,2019-08-07 16:20:31:113
-3.3231,-7.4483,0.1314,1.7852,-1.1812,4.2735,-4.7644,-9.784,0.683,1465,2019-08-07 16:20:31:119
-3.3231,-7.4483,0.1314,1.7852,-1.1812,4.2735,-4.7644,-9.784,0.683,1468,2019-08-07 16:20:31:122
-3.3231,-7.4483,0.1314,1.7852,-1.1812,4.2735,-4.7644,-9.784,0.683,1474,2019-08-07 16:20:31:128
-1.4047,-16.5472,-2.2538,-0.1605,19.9942,6.506,-4.5204,-9.3292,0.8449,1479,2019-08-07 16:20:31:133
-1.4047,-16.5472,-2.2538,-0.1605,19.9942,6.506,-4.5396,-8.7113,0.8407,1485,2019-08-07 16:20:31:139
2.992,-39.705,-1.6646,-0.1605,19.9942,6.506,-4.5396,-8.7113,0.8407,1489,2019-08-07 16:20:31:143
2.992,-39.705,-1.6646,-0.1605,19.9942,6.506,-4.5396,-8.7113,0.8407,1495,2019-08-07 16:20:31:149
2.992,-39.705,-1.6646,-0.1605,19.9942,6.506,-4.1721,-7.4681,0.3315,1499,2019-08-07 16:20:31:153
6.0635,-32.4726,1.4748,-6.481,23.1557,1.5677,-4.1721,-7.4681,0.3315,1504,2019-08-07 16:20:31:158
6.0635,-32.4726,1.4748,-6.481,23.1557,1.5677,-4.1721,-7.4681,0.3315,1509,2019-08-07 16:20:31:163
1.2458,-16.2512,3.5819,-6.481,23.1557,1.5677,-2.0522,-5.1853,-0.6081,1514,2019-08-07 16:20:31:168
1.2458,-16.2512,3.5819,1.9444,8.0673,-0.7879,0.8474,-3.0217,-0.7519,1519,2019-08-07 16:20:31:173
1.2458,-16.2512,3.5819,1.9444,8.0673,-0.7879,0.8474,-3.0217,-0.7519,1524,2019-08-07 16:20:31:178
-2.9787,-20.5763,6.4526,1.9444,8.0673,-0.7879,0.8474,-3.0217,-0.7519,1529,2019-08-07 16:20:31:183
-2.9787,-20.5763,6.4526,1.9444,8.0673,-0.7879,0.9465,-3.2635,-0.3056,1534,2019-08-07 16:20:31:188
-3.6342,-24.2521,-6.171,1.9444,8.0673,-0.7879,0.9465,-3.2635,-0.3056,1539,2019-08-07 16:20:31:193
-3.6342,-24.2521,-6.171,5.1082,13.9321,9.288,-0.6546,-3.4063,-0.2331,1543,2019-08-07 16:20:31:197
-3.6342,-24.2521,-6.171,5.1082,13.9321,9.288,-0.6546,-3.4063,-0.2331,1550,2019-08-07 16:20:31:204
-5.3613,-20.7911,-1.6929,5.1082,13.9321,9.288,-0.6546,-3.4063,-0.2331,1554,2019-08-07 16:20:31:208
-5.3613,-20.7911,-1.6929,5.1082,13.9321,9.288,-2.8576,-3.107,-0.4718,1559,2019-08-07 16:20:31:213
-5.3852,-21.2589,3.7233,6.428,10.9851,-2.8058,-2.3803,-3.304,-0.7338,1565,2019-08-07 16:20:31:219
-5.3852,-21.2589,3.7233,6.428,10.9851,-2.8058,-2.3803,-3.304,-0.7338,1569,2019-08-07 16:20:31:223
-5.3852,-21.2589,3.7233,6.428,10.9851,-2.8058,-2.3803,-3.304,-0.7338,1574,2019-08-07 16:20:31:228
-1.9406,-23.6792,1.7246,6.428,10.9851,-2.8058,-1.8264,-3.0047,-1.2622,1579,2019-08-07 16:20:31:233
-1.9406,-23.6792,1.7246,3.0776,12.8717,1.1708,-1.8264,-3.0047,-1.2622,1584,2019-08-07 16:20:31:238
-4.1653,-19.631,0.2539,3.0776,12.8717,1.1708,-1.2842,-2.1109,-1.5413,1589,2019-08-07 16:20:31:243
-4.1653,-19.631,0.2539,5.9175,9.0993,1.4665,-1.2842,-2.1109,-1.5413,1594,2019-08-07 16:20:31:248
-4.1653,-19.631,0.2539,5.9175,9.0993,1.4665,-0.9113,-1.5389,-1.2036,1599,2019-08-07 16:20:31:253
-7.0693,-17.1343,1.2485,5.9175,9.0993,1.4665,-0.9113,-1.5389,-1.2036,1604,2019-08-07 16:20:31:258
-7.0693,-17.1343,1.2485,5.9175,9.0993,1.4665,-0.9113,-1.5389,-1.2036,1609,2019-08-07 16:20:31:263
-7.0693,-17.1343,1.2485,8.0082,8.7103,0.638,-0.5246,-1.2001,-0.607,1614,2019-08-07 16:20:31:268
-6.8301,-18.6476,1.159,8.0082,8.7103,0.638,-0.5246,-1.2001,-0.607,1619,2019-08-07 16:20:31:273
-6.8301,-18.6476,1.159,8.0082,8.7103,0.638,-0.5246,-1.2001,-0.607,1624,2019-08-07 16:20:31:278
-6.3852,-19.6024,3.6526,7.9298,9.8013,-0.971,-0.2178,-1.1352,-0.6102,1629,2019-08-07 16:20:31:283
-6.3852,-19.6024,3.6526,7.9298,9.8013,-0.971,-0.2178,-1.1352,-0.6102,1634,2019-08-07 16:20:31:288
-6.3852,-19.6024,3.6526,7.9298,9.8013,-0.971,0.4171,-1.2449,-0.9671,1639,2019-08-07 16:20:31:293
-4.5863,-17.9411,3.728,5.9562,8.3581,-2.139,0.4171,-1.2449,-0.9671,1645,2019-08-07 16:20:31:299
-4.5863,-17.9411,3.728,5.9562,8.3581,-2.139,0.6173,-1.3866,-1.0118,1649,2019-08-07 16:20:31:303
-4.5863,-17.9411,3.728,5.9562,8.3581,-2.139,0.6173,-1.3866,-1.0118,1653,2019-08-07 16:20:31:307
-1.1369,-15.4396,1.3051,5.9562,8.3581,-2.139,0.6056,-1.2875,-0.9181,1659,2019-08-07 16:20:31:313
-1.1369,-15.4396,1.3051,1.4934,5.4434,0.9088,0.6056,-1.2875,-0.9181,1664,2019-08-07 16:20:31:318
-1.1369,-15.4396,1.3051,1.4934,5.4434,0.9088,0.5374,-0.8571,-0.8819,1669,2019-08-07 16:20:31:323
2.0925,-13.7545,1.1165,1.4934,5.4434,0.9088,0.5374,-0.8571,-0.8819,1674,2019-08-07 16:20:31:328
2.0925,-13.7545,1.1165,1.4934,5.4434,0.9088,0.5374,-0.8571,-0.8819,1679,2019-08-07 16:20:31:333
2.4704,-11.7208,0.9798,-0.7522,2.6457,0.5064,0.5513,-0.6888,-0.8968,1685,2019-08-07 16:20:31:339
2.4704,-11.7208,0.9798,-0.7522,2.6457,0.5064,0.5513,-0.6888,-0.8968,1689,2019-08-07 16:20:31:343
2.4704,-11.7208,0.9798,-0.7522,2.6457,0.5064,0.5577,-0.6057,-0.7604,1694,2019-08-07 16:20:31:348
2.5278,-9.6012,0.7394,-0.7522,2.6457,0.5064,0.5577,-0.6057,-0.7604,1699,2019-08-07 16:20:31:353
2.5278,-9.6012,0.7394,-0.6781,-0.3232,1.0511,0.4757,-0.6387,-0.5644,1705,2019-08-07 16:20:31:359
2.5278,-9.6012,0.7394,-0.6781,-0.3232,1.0511,0.4757,-0.6387,-0.5644,1709,2019-08-07 16:20:31:363
2.9345,-8.5605,0.9327,-0.9059,-1.0194,0.8858,0.4757,-0.6387,-0.5644,1714,2019-08-07 16:20:31:368
2.9345,-8.5605,0.9327,-0.9059,-1.0194,0.8858,0.3713,-0.594,-0.4654,1719,2019-08-07 16:20:31:373
2.9345,-8.5605,0.9327,-0.9059,-1.0194,0.8858,0.3713,-0.594,-0.4654,1724,2019-08-07 16:20:31:378
3.1354,-8.0306,0.5886,-1.0515,-1.3752,1.2614,0.2551,-0.5407,-0.4089,1729,2019-08-07 16:20:31:383
3.1354,-8.0306,0.5886,-1.0515,-1.3752,1.2614,0.2551,-0.5407,-0.4089,1734,2019-08-07 16:20:31:388
3.1354,-8.0306,0.5886,-1.0515,-1.3752,1.2614,0.0112,-0.2819,-0.2907,1738,2019-08-07 16:20:31:392
3.0588,-8.002,0.433,-0.95,-1.3032,1.4338,0.0112,-0.2819,-0.2907,1744,2019-08-07 16:20:31:398
3.0588,-8.002,0.433,-0.95,-1.3032,1.4338,-0.0708,-0.0976,-0.2395,1750,2019-08-07 16:20:31:404
3.0588,-8.002,0.433,-0.95,-1.3032,1.4338,-0.0708,-0.0976,-0.2395,1754,2019-08-07 16:20:31:408
3.3172,-8.5987,0.5744,-0.95,-1.3032,1.4338,-0.1454,0.1485,-0.2012,1759,2019-08-07 16:20:31:413
3.3172,-8.5987,0.5744,-0.8985,-0.538,1.3142,-0.1454,0.1485,-0.2012,1764,2019-08-07 16:20:31:418
2.9488,-8.9615,0.5933,-0.8985,-0.538,1.3142,-0.1454,0.1485,-0.2012,1769,2019-08-07 16:20:31:423
2.9488,-8.9615,0.5933,-0.8985,-0.538,1.3142,-0.123,0.3956,-0.1618,1774,2019-08-07 16:20:31:428
2.9488,-8.9615,0.5933,-0.8985,-0.538,1.3142,-0.123,0.3956,-0.1618,1778,2019-08-07 16:20:31:432
2.3603,-9.1525,0.9704,0.0296,-0.278,0.7694,-0.074,0.4595,-0.1064,1784,2019-08-07 16:20:31:438
2.3603,-9.1525,0.9704,0.0296,-0.278,0.7694,-0.074,0.4595,-0.1064,1789,2019-08-07 16:20:31:443
2.0364,-9.1335,1.4798,0.0296,-0.278,0.7694,5.0E-4,0.3946,-0.0499,1794,2019-08-07 16:20:31:448
2.0364,-9.1335,1.4798,0.2418,-0.1913,0.256,5.0E-4,0.3946,-0.0499,1799,2019-08-07 16:20:31:453
2.0364,-9.1335,1.4798,0.2418,-0.1913,0.256,0.106,0.2209,-0.0488,1804,2019-08-07 16:20:31:458
1.888,-9.2624,2.0077,0.2418,-0.1913,0.256,0.106,0.2209,-0.0488,1809,2019-08-07 16:20:31:463
1.888,-9.2624,2.0077,0.2418,-0.1913,0.256,0.106,0.2209,-0.0488,1814,2019-08-07 16:20:31:468
1.8402,-9.0667,2.2623,0.4174,-0.2574,-0.5059,0.1721,0.0494,-0.0819,1818,2019-08-07 16:20:31:472
1.8402,-9.0667,2.2623,0.4174,-0.2574,-0.5059,0.1721,0.0494,-0.0819,1824,2019-08-07 16:20:31:478
1.8402,-9.0667,2.2623,0.3101,-0.3188,-0.0633,0.1848,-0.0944,-0.0946,1829,2019-08-07 16:20:31:483
2.1225,-9.0953,1.9606,0.3101,-0.3188,-0.0633,0.1848,-0.0944,-0.0946,1834,2019-08-07 16:20:31:488
2.1225,-9.0953,1.9606,0.3101,-0.3188,-0.0633,0.1614,-0.1338,-0.101,1839,2019-08-07 16:20:31:493
2.1225,-9.0953,1.9606,0.3101,-0.3188,-0.0633,0.1614,-0.1338,-0.101,1844,2019-08-07 16:20:31:498
2.333,-9.272,2.069,-0.059,-0.0833,-0.1863,0.1731,-0.0987,-0.1032,1850,2019-08-07 16:20:31:504
2.333,-9.272,2.069,-0.059,-0.0833,-0.1863,0.1731,-0.0987,-0.1032,1854,2019-08-07 16:20:31:508
2.4669,-9.4581,2.1256,-0.059,-0.0833,-0.1863,0.204,0.0036,-0.117,1858,2019-08-07 16:20:31:512
2.4669,-9.4581,2.1256,-0.2745,0.0683,-0.2446,0.204,0.0036,-0.117,1865,2019-08-07 16:20:31:519
2.4669,-9.4581,2.1256,-0.2745,0.0683,-0.2446,0.204,0.0036,-0.117,1868,2019-08-07 16:20:31:522
2.5435,-9.2767,2.1633,-0.2745,0.0683,-0.2446,0.1816,0.1155,-0.1618,1874,2019-08-07 16:20:31:528
2.5435,-9.2767,2.1633,-0.2745,0.0683,-0.2446,0.1816,0.1155,-0.1618,1879,2019-08-07 16:20:31:533
2.5435,-9.2767,2.1633,-0.2745,0.0683,-0.2446,0.1348,0.2039,-0.2054,1884,2019-08-07 16:20:31:538
2.5052,-9.1192,2.0077,-0.1779,-0.2075,-0.05,0.1348,0.2039,-0.2054,1888,2019-08-07 16:20:31:542
2.5052,-9.1192,2.0077,-0.1779,-0.2075,-0.05,0.0634,0.2774,-0.2576,1894,2019-08-07 16:20:31:548
2.4908,-9.0524,2.2246,-0.1446,-0.2666,-0.253,0.0634,0.2774,-0.2576,1899,2019-08-07 16:20:31:553
2.4908,-9.0524,2.2246,-0.1446,-0.2666,-0.253,-0.008,0.2433,-0.3024,1904,2019-08-07 16:20:31:558
2.333,-9.1383,2.6394,-0.1446,-0.2666,-0.253,-0.008,0.2433,-0.3024,1909,2019-08-07 16:20:31:563
2.333,-9.1383,2.6394,-0.1446,-0.2666,-0.253,-0.0112,0.1762,-0.312,1915,2019-08-07 16:20:31:569
2.333,-9.1383,2.6394,0.1705,-0.127,-0.8164,-0.0112,0.1762,-0.312,1918,2019-08-07 16:20:31:572
2.1655,-9.1526,2.7525,0.1705,-0.127,-0.8164,-0.0112,0.1762,-0.312,1924,2019-08-07 16:20:31:578
2.1655,-9.1526,2.7525,0.1705,-0.127,-0.8164,-0.0144,0.0047,-0.2832,1929,2019-08-07 16:20:31:583
2.3569,-9.0762,2.4131,0.1705,-0.127,-0.8164,-0.0144,0.0047,-0.2832,1934,2019-08-07 16:20:31:588
2.3569,-9.0762,2.4131,0.0979,-0.2178,-0.2847,-0.0272,-0.1487,-0.2544,1939,2019-08-07 16:20:31:593
2.3569,-9.0762,2.4131,0.0979,-0.2178,-0.2847,-0.0272,-0.1487,-0.2544,1944,2019-08-07 16:20:31:598
2.6487,-9.1526,1.9794,0.0979,-0.2178,-0.2847,-0.0367,-0.2552,-0.215,1949,2019-08-07 16:20:31:603
2.6487,-9.1526,1.9794,0.0979,-0.2178,-0.2847,-0.0367,-0.2552,-0.215,1954,2019-08-07 16:20:31:608
2.6487,-9.1526,1.9794,-0.4762,0.0264,0.3291,-0.0165,-0.2606,-0.1884,1959,2019-08-07 16:20:31:613
3.0028,-9.334,1.5081,-0.4762,0.0264,0.3291,-0.0165,-0.2606,-0.1884,1965,2019-08-07 16:20:31:619
3.0028,-9.334,1.5081,-0.4762,0.0264,0.3291,0.0293,-0.1583,-0.165,1969,2019-08-07 16:20:31:623
3.0028,-9.3149,1.3478,-0.4762,0.0264,0.3291,0.0293,-0.1583,-0.165,1974,2019-08-07 16:20:31:628
3.0028,-9.3149,1.3478,-0.4474,0.05,0.6476,0.0751,-0.0528,-0.1298,1979,2019-08-07 16:20:31:633
3.0123,-9.2433,1.1451,-0.4474,0.05,0.6476,0.0751,-0.0528,-0.1298,1984,2019-08-07 16:20:31:638
3.0123,-9.2433,1.1451,-0.4474,0.05,0.6476,0.0751,-0.0528,-0.1298,1989,2019-08-07 16:20:31:643
3.0123,-9.2433,1.1451,-0.4474,0.05,0.6476,0.1252,0.0931,-0.1032,1993,2019-08-07 16:20:31:647
3.0075,-9.1335,1.164,-0.4419,-0.1265,0.8123,0.1252,0.0931,-0.1032,1999,2019-08-07 16:20:31:653
3.0075,-9.1335,1.164,-0.4419,-0.1265,0.8123,0.1454,0.2007,-0.1117,2003,2019-08-07 16:20:31:657
3.0075,-9.1335,1.164,-0.4419,-0.1265,0.8123,0.1454,0.2007,-0.1117,2009,2019-08-07 16:20:31:663
2.9262,-9.0237,1.2535,-0.4419,-0.1265,0.8123,0.1635,0.3093,-0.133,2014,2019-08-07 16:20:31:668
2.9262,-9.0237,1.2535,-0.1246,-0.2434,0.5694,0.1635,0.3093,-0.133,2018,2019-08-07 16:20:31:672
2.9262,-9.0237,1.2535,-0.1246,-0.2434,0.5694,0.1635,0.3093,-0.133,2024,2019-08-07 16:20:31:678
2.4861,-8.9235,1.7108,-0.1246,-0.2434,0.5694,0.171,0.3828,-0.1458,2029,2019-08-07 16:20:31:683
2.4861,-8.9235,1.7108,-0.1246,-0.2434,0.5694,0.171,0.3828,-0.1458,2035,2019-08-07 16:20:31:689
2.4861,-8.9235,1.7108,0.512,-0.2583,-0.0454,0.1614,0.3232,-0.1255,2039,2019-08-07 16:20:31:693
2.0507,-8.9617,2.1774,0.512,-0.2583,-0.0454,0.1614,0.3232,-0.1255,2044,2019-08-07 16:20:31:698
2.0507,-8.9617,2.1774,0.512,-0.2583,-0.0454,0.1209,0.1975,-0.1223,2050,2019-08-07 16:20:31:704
2.0507,-8.9617,2.1774,0.512,-0.2583,-0.0454,0.1209,0.1975,-0.1223,2054,2019-08-07 16:20:31:708
1.9359,-8.8614,2.333,0.6079,-0.4001,-0.2589,0.0549,-0.0134,-0.1106,2059,2019-08-07 16:20:31:713
1.9359,-8.8614,2.333,0.6079,-0.4001,-0.2589,0.0549,-0.0134,-0.1106,2065,2019-08-07 16:20:31:719
2.3999,-8.8805,2.2293,0.6079,-0.4001,-0.2589,0.0549,-0.0134,-0.1106,2068,2019-08-07 16:20:31:722
2.3999,-8.8805,2.2293,0.6079,-0.4001,-0.2589,-0.008,-0.2094,-0.1053,2074,2019-08-07 16:20:31:728
2.3999,-8.8805,2.2293,0.6079,-0.4001,-0.2589,-0.008,-0.2094,-0.1053,2079,2019-08-07 16:20:31:733
2.8784,-8.8853,2.036,-0.2515,-0.3318,0.0572,-0.0293,-0.2478,-0.1138,2084,2019-08-07 16:20:31:738
2.8784,-8.8853,2.036,-0.2515,-0.3318,0.0572,-0.0293,-0.2478,-0.1138,2089,2019-08-07 16:20:31:743
3.2802,-8.8948,1.8569,-0.2515,-0.3318,0.0572,-0.0389,-0.2265,-0.1436,2093,2019-08-07 16:20:31:747
3.2802,-8.8948,1.8569,-0.6568,-0.3155,0.2721,-0.0389,-0.2265,-0.1436,2099,2019-08-07 16:20:31:753
3.2802,-8.8948,1.8569,-0.6568,-0.3155,0.2721,-0.025,-0.1349,-0.1277,2103,2019-08-07 16:20:31:757
3.4333,-8.9378,1.7438,-0.6568,-0.3155,0.2721,-0.025,-0.1349,-0.1277,2109,2019-08-07 16:20:31:763
3.4333,-8.9378,1.7438,-0.6568,-0.3155,0.2721,-0.0176,-6.0E-4,-0.1032,2115,2019-08-07 16:20:31:769
3.4333,-8.9378,1.7438,-0.6568,-0.3155,0.2721,-0.0176,-6.0E-4,-0.1032,2119,2019-08-07 16:20:31:773
3.462,-8.8757,1.7202,-0.7635,-0.3278,0.3411,-0.0176,-6.0E-4,-0.1032,2124,2019-08-07 16:20:31:778
3.462,-8.8757,1.7202,-0.7635,-0.3278,0.3411,-0.0314,0.1048,-0.0765,2129,2019-08-07 16:20:31:783
3.1224,-8.9473,1.8993,-0.7635,-0.3278,0.3411,-0.0314,0.1048,-0.0765,2134,2019-08-07 16:20:31:788
3.1224,-8.9473,1.8993,-0.2915,-0.2669,0.0718,-0.0431,0.173,-0.0584,2139,2019-08-07 16:20:31:793
3.1224,-8.9473,1.8993,-0.2915,-0.2669,0.0718,-0.0431,0.173,-0.0584,2144,2019-08-07 16:20:31:798
2.6966,-9.0715,2.0266,-0.2915,-0.2669,0.0718,-0.0474,0.1666,-0.0542,2149,2019-08-07 16:20:31:803
2.6966,-9.0715,2.0266,-0.2915,-0.2669,0.0718,-0.0474,0.1666,-0.0542,2154,2019-08-07 16:20:31:808
2.3521,-9.2338,2.2151,0.3628,0.0349,-0.1547,-0.057,0.0888,-0.0574,2159,2019-08-07 16:20:31:813
2.3521,-9.2338,2.2151,0.3628,0.0349,-0.1547,-0.057,0.0888,-0.0574,2164,2019-08-07 16:20:31:818
2.3521,-9.2338,2.2151,0.3628,0.0349,-0.1547,-0.0698,-0.1168,-0.0446,2169,2019-08-07 16:20:31:823
2.4095,-9.2576,2.3188,0.3628,0.0349,-0.1547,-0.0698,-0.1168,-0.0446,2174,2019-08-07 16:20:31:828
2.4095,-9.2576,2.3188,0.3628,0.0349,-0.1547,-0.0698,-0.1168,-0.0446,2179,2019-08-07 16:20:31:833
2.7827,-9.2338,2.1963,0.1005,0.0489,-0.1557,-0.058,-0.2552,-0.051,2184,2019-08-07 16:20:31:838
2.7827,-9.2338,2.1963,0.1005,0.0489,-0.1557,-0.0399,-0.3192,-0.0616,2189,2019-08-07 16:20:31:843
2.7827,-9.2338,2.1963,0.1005,0.0489,-0.1557,-0.0399,-0.3192,-0.0616,2194,2019-08-07 16:20:31:848
3.2276,-9.186,2.0266,-0.5869,-0.0444,0.0557,-0.0282,-0.2989,-0.0659,2200,2019-08-07 16:20:31:854
3.2276,-9.186,2.0266,-0.5869,-0.0444,0.0557,-0.0282,-0.2989,-0.0659,2203,2019-08-07 16:20:31:857
3.2276,-9.186,2.0266,-0.5869,-0.0444,0.0557,-0.0282,-0.2989,-0.0659,2209,2019-08-07 16:20:31:863
3.5147,-9.1526,1.7579,-0.5869,-0.0444,0.0557,-0.0282,-0.2105,-0.0584,2215,2019-08-07 16:20:31:869
3.5147,-9.1526,1.7579,-0.5869,-0.0444,0.0557,-0.0282,-0.2105,-0.0584,2219,2019-08-07 16:20:31:873
3.462,-9.1526,1.8899,-0.7101,-0.0458,0.1402,-0.0325,-0.0603,-0.0329,2224,2019-08-07 16:20:31:878
3.462,-9.1526,1.8899,-0.7101,-0.0458,0.1402,-0.0325,-0.0603,-0.0329,2230,2019-08-07 16:20:31:884
3.2037,-9.2672,2.0549,-0.5272,-0.0165,0.022,-0.0378,0.0356,0.0066,2233,2019-08-07 16:20:31:887
3.2037,-9.2672,2.0549,-0.5272,-0.0165,0.022,-0.0378,0.0356,0.0066,2239,2019-08-07 16:20:31:893
3.2037,-9.2672,2.0549,-0.5272,-0.0165,0.022,-0.041,0.1016,0.0364,2244,2019-08-07 16:20:31:898
2.9501,-9.3006,2.1161,-0.5272,-0.0165,0.022,-0.041,0.1016,0.0364,2250,2019-08-07 16:20:31:904
2.9501,-9.3006,2.1161,-0.0685,0.0529,-0.1409,-0.041,0.1016,0.0364,2254,2019-08-07 16:20:31:908
2.9501,-9.3006,2.1161,-0.0685,0.0529,-0.1409,-0.0506,0.0814,0.0598,2259,2019-08-07 16:20:31:913
2.6152,-9.272,2.2057,-0.0685,0.0529,-0.1409,-0.0506,0.0814,0.0598,2264,2019-08-07 16:20:31:918
2.6152,-9.272,2.2057,-0.0685,0.0529,-0.1409,-0.058,0.0334,0.0609,2269,2019-08-07 16:20:31:923
2.6152,-9.272,2.2057,0.2323,0.0331,-0.2683,-0.058,0.0334,0.0609,2274,2019-08-07 16:20:31:928
2.5147,-9.229,2.1868,0.2323,0.0331,-0.2683,-0.0538,-0.0624,0.0545,2280,2019-08-07 16:20:31:934
2.5147,-9.229,2.1868,0.2323,0.0331,-0.2683,-0.0538,-0.0624,0.0545,2284,2019-08-07 16:20:31:938
2.6965,-9.2004,2.1397,0.2323,0.0331,-0.2683,-0.0538,-0.0624,0.0545,2289,2019-08-07 16:20:31:943
2.6965,-9.2004,2.1397,0.0704,0.0039,-0.125,-0.0431,-0.1146,0.0406,2294,2019-08-07 16:20:31:948
2.6965,-9.2004,2.1397,0.0704,0.0039,-0.125,-0.0431,-0.1146,0.0406,2300,2019-08-07 16:20:31:954
2.8496,-9.1622,1.8757,0.0704,0.0039,-0.125,-0.0282,-0.1082,0.0204,2304,2019-08-07 16:20:31:958
2.8496,-9.1622,1.8757,0.0704,0.0039,-0.125,-0.0282,-0.1082,0.0204,2309,2019-08-07 16:20:31:963
2.998,-9.0953,1.8286,-0.2443,-0.1129,0.1368,-0.0122,-0.0624,-9.0E-4,2314,2019-08-07 16:20:31:968
2.998,-9.0953,1.8286,-0.2443,-0.1129,0.1368,-0.0122,-0.0624,-9.0E-4,2319,2019-08-07 16:20:31:973
2.998,-9.0953,1.8286,-0.2443,-0.1129,0.1368,-0.0122,-0.0624,-9.0E-4,2323,2019-08-07 16:20:31:977
3.1367,-9.0237,1.7249,-0.2443,-0.1129,0.1368,-0.0069,-0.0038,-0.0073,2329,2019-08-07 16:20:31:983
3.1367,-9.0237,1.7249,-0.5551,-0.1743,0.0149,-0.008,0.043,-0.0137,2335,2019-08-07 16:20:31:989
3.3376,-8.9712,2.0266,-0.5551,-0.1743,0.0149,-0.008,0.043,-0.0137,2339,2019-08-07 16:20:31:993
3.3376,-8.9712,2.0266,-0.5551,-0.1743,0.0149,-0.008,0.043,-0.0137,2344,2019-08-07 16:20:31:998
3.3711,-8.7564,1.9276,-0.5551,-0.1743,0.0149,-0.0122,0.0569,-0.0084,2349,2019-08-07 16:20:32:003
3.3711,-8.7564,1.9276,-0.6221,-0.4257,-0.0172,-0.024,0.0537,0.0108,2355,2019-08-07 16:20:32:009
3.3711,-8.7564,1.9276,-0.6221,-0.4257,-0.0172,-0.024,0.0537,0.0108,2358,2019-08-07 16:20:32:012
3.3807,-8.723,2.1586,-0.6221,-0.4257,-0.0172,-0.0367,0.0132,0.0385,2365,2019-08-07 16:20:32:019
3.3807,-8.723,2.1586,-0.6221,-0.4257,-0.0172,-0.0367,0.0132,0.0385,2370,2019-08-07 16:20:32:024
3.3807,-8.723,2.1586,-0.6234,-0.4506,-0.1427,-0.0367,0.0132,0.0385,2373,2019-08-07 16:20:32:027
3.3759,-8.7659,2.0737,-0.6234,-0.4506,-0.1427,-0.0506,-0.0603,0.0843,2379,2019-08-07 16:20:32:033
3.3759,-8.7659,2.0737,-0.6234,-0.4506,-0.1427,-0.0506,-0.0603,0.0843,2384,2019-08-07 16:20:32:038
3.5577,-8.9139,1.8427,-0.6234,-0.4506,-0.1427,-0.0687,-0.1008,0.1067,2389,2019-08-07 16:20:32:043
3.5577,-8.9139,1.8427,-0.8236,-0.1749,0.1102,-0.0687,-0.1008,0.1067,2393,2019-08-07 16:20:32:047
3.5577,-8.9139,1.8427,-0.8236,-0.1749,0.1102,-0.058,-0.0742,0.1003,2399,2019-08-07 16:20:32:053
3.5386,-9.1049,1.772,-0.8236,-0.1749,0.1102,-0.058,-0.0742,0.1003,2404,2019-08-07 16:20:32:058
3.5386,-9.1049,1.772,-0.8236,-0.1749,0.1102,-0.0303,0.0047,0.0801,2409,2019-08-07 16:20:32:063
3.3041,-9.1001,1.7815,-0.5611,-0.1185,0.1498,-0.0303,0.0047,0.0801,2414,2019-08-07 16:20:32:068
3.3041,-9.1001,1.7815,-0.5611,-0.1185,0.1498,-0.0058,0.0835,0.0524,2419,2019-08-07 16:20:32:073
3.3041,-9.1001,1.7815,-0.5611,-0.1185,0.1498,-0.0058,0.0835,0.0524,2423,2019-08-07 16:20:32:077
3.0697,-9.0619,1.8097,-0.3317,-0.158,0.1221,-0.0058,0.1389,0.0343,2429,2019-08-07 16:20:32:083
3.0697,-9.0619,1.8097,-0.3317,-0.158,0.1221,-0.0058,0.1389,0.0343,2435,2019-08-07 16:20:32:089
2.6918,-8.9855,1.904,-0.3317,-0.158,0.1221,-0.0122,0.1868,0.0183,2439,2019-08-07 16:20:32:093
2.6918,-8.9855,1.904,0.1313,-0.198,-0.041,-0.0122,0.1868,0.0183,2444,2019-08-07 16:20:32:098
2.6918,-8.9855,1.904,0.1313,-0.198,-0.041,-0.0325,0.1719,-0.002,2450,2019-08-07 16:20:32:104
2.4573,-9.0046,1.9842,0.1313,-0.198,-0.041,-0.0325,0.1719,-0.002,2453,2019-08-07 16:20:32:107
2.4573,-9.0046,1.9842,0.1313,-0.198,-0.041,-0.0453,0.1304,-0.0243,2459,2019-08-07 16:20:32:113
2.4573,-9.0046,1.9842,0.3744,-0.223,-0.2081,-0.0453,0.1304,-0.0243,2464,2019-08-07 16:20:32:118
2.3329,-9.081,2.1444,0.3744,-0.223,-0.2081,-0.0453,0.0537,-0.0488,2469,2019-08-07 16:20:32:123
2.3329,-9.081,2.1444,0.3744,-0.223,-0.2081,-0.0453,0.0537,-0.0488,2474,2019-08-07 16:20:32:128
2.3903,-9.0476,2.1491,0.3744,-0.223,-0.2081,-0.0463,-0.0635,-0.0552,2479,2019-08-07 16:20:32:133
2.3903,-9.0476,2.1491,0.2088,-0.1507,-0.0916,-0.0463,-0.0635,-0.0552,2484,2019-08-07 16:20:32:138
2.3903,-9.0476,2.1491,0.2088,-0.1507,-0.0916,-0.0644,-0.1807,-0.052,2489,2019-08-07 16:20:32:143
2.6965,-9.1956,1.8993,0.2088,-0.1507,-0.0916,-0.0644,-0.1807,-0.052,2494,2019-08-07 16:20:32:148
2.6965,-9.1956,1.8993,0.2088,-0.1507,-0.0916,-0.0666,-0.218,-0.0488,2500,2019-08-07 16:20:32:154
3.0171,-9.2576,1.8239,-0.271,0.0359,0.0881,-0.0666,-0.218,-0.0488,2504,2019-08-07 16:20:32:158
3.0171,-9.2576,1.8239,-0.271,0.0359,0.0881,-0.0666,-0.218,-0.0488,2509,2019-08-07 16:20:32:163
3.0171,-9.2576,1.8239,-0.271,0.0359,0.0881,-0.0399,-0.2041,-0.0297,2515,2019-08-07 16:20:32:169
3.2515,-9.2911,1.8097,-0.271,0.0359,0.0881,-0.0399,-0.2041,-0.0297,2518,2019-08-07 16:20:32:172
3.2515,-9.2911,1.8097,-0.271,0.0359,0.0881,-0.0399,-0.2041,-0.0297,2524,2019-08-07 16:20:32:178
3.2515,-9.2911,1.8097,-0.5851,0.1181,0.1027,-0.0133,-0.1232,-0.0116,2530,2019-08-07 16:20:32:184
3.3041,-9.2481,1.6825,-0.5851,0.1181,0.1027,-0.0133,-0.1232,-0.0116,2534,2019-08-07 16:20:32:188
3.3041,-9.2481,1.6825,-0.5851,0.1181,0.1027,-0.0144,-0.0411,0.0044,2539,2019-08-07 16:20:32:193
3.3041,-9.2481,1.6825,-0.5851,0.1181,0.1027,-0.0144,-0.0411,0.0044,2544,2019-08-07 16:20:32:198
3.1415,-9.1431,1.9229,-0.3741,-0.0774,-0.036,-0.0208,0.0185,0.0172,2549,2019-08-07 16:20:32:203
3.1415,-9.1431,1.9229,-0.3741,-0.0774,-0.036,-0.0208,0.0185,0.0172,2553,2019-08-07 16:20:32:207
2.9166,-9.1622,2.0784,-0.3741,-0.0774,-0.036,-0.0367,0.0313,0.0385,2559,2019-08-07 16:20:32:213
2.9166,-9.1622,2.0784,-0.3741,-0.0774,-0.036,-0.0367,0.0313,0.0385,2564,2019-08-07 16:20:32:218
2.9166,-9.1622,2.0784,-0.0396,-0.1034,-0.2979,-0.0367,0.0313,0.0385,2568,2019-08-07 16:20:32:222
2.8018,-9.0858,2.1067,-0.0396,-0.1034,-0.2979,-0.0485,-0.0081,0.0385,2574,2019-08-07 16:20:32:228
2.8018,-9.0858,2.1067,-0.0396,-0.1034,-0.2979,-0.0485,-0.0081,0.0385,2579,2019-08-07 16:20:32:233
2.7826,-9.1192,1.9747,-0.0833,-0.069,-0.0916,-0.0655,-0.0635,0.0353,2584,2019-08-07 16:20:32:238
2.7826,-9.1192,1.9747,-0.0833,-0.069,-0.0916,-0.0655,-0.0635,0.0353,2589,2019-08-07 16:20:32:243
2.7826,-9.1192,1.9747,-0.0833,-0.069,-0.0916,-0.0655,-0.0837,0.0225,2595,2019-08-07 16:20:32:249
2.9166,-9.1335,2.036,-0.0833,-0.069,-0.0916,-0.0655,-0.0837,0.0225,2599,2019-08-07 16:20:32:253
2.9166,-9.1335,2.036,-0.2602,-0.0673,-0.0126,-0.0485,-0.0965,0.0204,2604,2019-08-07 16:20:32:258
2.9166,-9.1335,2.036,-0.2602,-0.0673,-0.0126,-0.0485,-0.0965,0.0204,2609,2019-08-07 16:20:32:263
3.0745,-9.1478,1.9417,-0.2602,-0.0673,-0.0126,-0.0261,-0.0816,0.0247,2614,2019-08-07 16:20:32:268
3.0745,-9.1478,1.9417,-0.2602,-0.0673,-0.0126,-0.0261,-0.0816,0.0247,2618,2019-08-07 16:20:32:272
3.0745,-9.1478,1.9417,-0.2602,-0.0673,-0.0126,-0.0261,-0.0816,0.0247,2624,2019-08-07 16:20:32:278
3.1941,-9.229,1.8192,-0.4453,-0.0065,-0.0168,-0.009,-0.0422,0.0225,2629,2019-08-07 16:20:32:283
3.1941,-9.229,1.8192,-0.4453,-0.0065,-0.0168,-0.009,-0.0422,0.0225,2633,2019-08-07 16:20:32:287
3.0745,-9.1383,1.9087,-0.4453,-0.0065,-0.0168,-0.0112,-0.0049,0.0321,2639,2019-08-07 16:20:32:293
3.0745,-9.1383,1.9087,-0.4453,-0.0065,-0.0168,-0.0112,-0.0049,0.0321,2644,2019-08-07 16:20:32:298
3.0745,-9.1383,1.9087,-0.1998,-0.0795,-0.0613,-0.0112,0.026,0.0428,2649,2019-08-07 16:20:32:303
2.9357,-9.1717,1.9936,-0.1998,-0.0795,-0.0613,-0.0112,0.026,0.0428,2653,2019-08-07 16:20:32:307
2.9357,-9.1717,1.9936,-0.1998,-0.0795,-0.0613,-0.0186,0.0068,0.0449,2659,2019-08-07 16:20:32:313
2.7157,-9.2338,2.036,-0.1998,-0.0795,-0.0613,-0.0186,0.0068,0.0449,2664,2019-08-07 16:20:32:318
2.7157,-9.2338,2.036,0.1028,-0.0202,-0.2226,-0.0346,-0.0251,0.0438,2668,2019-08-07 16:20:32:322
2.7157,-9.2338,2.036,0.1028,-0.0202,-0.2226,-0.0346,-0.0251,0.0438,2674,2019-08-07 16:20:32:328
2.5769,-9.2051,2.0549,0.1658,-0.0316,-0.2119,-0.0346,-0.0251,0.0438,2679,2019-08-07 16:20:32:333
2.5769,-9.2051,2.0549,0.1658,-0.0316,-0.2119,-0.0453,-0.0646,0.0353,2684,2019-08-07 16:20:32:338
2.5769,-9.2051,2.0549,0.1658,-0.0316,-0.2119,-0.0453,-0.0646,0.0353,2689,2019-08-07 16:20:32:343
2.6535,-9.2004,1.9889,0.1658,-0.0316,-0.2119,-0.0453,-0.1136,0.0204,2693,2019-08-07 16:20:32:347
2.6535,-9.2004,1.9889,0.0242,-0.0349,-0.0685,-0.0453,-0.1136,0.0204,2700,2019-08-07 16:20:32:354
2.864,-9.2195,1.8616,0.0242,-0.0349,-0.0685,-0.0442,-0.1093,-0.0041,2704,2019-08-07 16:20:32:358
2.864,-9.2195,1.8616,-0.16,-0.0833,-0.0568,-0.0442,-0.1093,-0.0041,2709,2019-08-07 16:20:32:363
2.864,-9.2195,1.8616,-0.16,-0.0833,-0.0568,-0.0389,-0.0816,-0.0286,2714,2019-08-07 16:20:32:368
3.041,-9.0428,1.7343,-0.16,-0.0833,-0.0568,-0.0389,-0.0816,-0.0286,2719,2019-08-07 16:20:32:373
3.041,-9.0428,1.7343,-0.16,-0.0833,-0.0568,-0.0389,-0.0816,-0.0286,2724,2019-08-07 16:20:32:378
3.041,-9.0428,1.7343,-0.3498,-0.2584,0.0853,-0.0122,0.0057,-0.0531,2730,2019-08-07 16:20:32:384
3.1128,-8.9617,1.6966,-0.3498,-0.2584,0.0853,-0.0122,0.0057,-0.0531,2733,2019-08-07 16:20:32:387
3.1128,-8.9617,1.6966,-0.3498,-0.2584,0.0853,-0.0037,0.0537,-0.0616,2739,2019-08-07 16:20:32:393
2.974,-8.933,1.7296,-0.3498,-0.2584,0.0853,-0.0037,0.0537,-0.0616,2745,2019-08-07 16:20:32:399
2.974,-8.933,1.7296,-0.1416,-0.2736,0.0581,-0.008,0.042,-0.0488,2749,2019-08-07 16:20:32:403
2.974,-8.933,1.7296,-0.1416,-0.2736,0.0581,-0.008,0.042,-0.0488,2754,2019-08-07 16:20:32:408
2.8544,-9.0667,1.8333,-0.1416,-0.2736,0.0581,-0.009,0.0239,-0.0403,2758,2019-08-07 16:20:32:412
2.8544,-9.0667,1.8333,-0.1416,-0.2736,0.0581,-0.009,0.0239,-0.0403,2764,2019-08-07 16:20:32:418
2.7874,-9.1526,1.8097,-0.0139,-0.0804,0.0055,-0.0229,-0.0624,-0.035,2769,2019-08-07 16:20:32:423
2.7874,-9.1526,1.8097,-0.0139,-0.0804,0.0055,-0.0229,-0.0624,-0.035,2774,2019-08-07 16:20:32:428
2.7874,-9.2147,1.8145,-0.0095,-0.0178,-0.0032,-0.0197,-0.1221,-0.0339,2779,2019-08-07 16:20:32:433
2.7874,-9.2147,1.8145,-0.0095,-0.0178,-0.0032,-0.0197,-0.1221,-0.0339,2784,2019-08-07 16:20:32:438
2.7874,-9.2147,1.8145,-0.0095,-0.0178,-0.0032,-0.0197,-0.1221,-0.0339,2789,2019-08-07 16:20:32:443
2.86,-9.2577,1.8099,-0.0095,-0.0178,-0.0032,-0.0197,-0.1764,-0.0382,2794,2019-08-07 16:20:32:448
2.86,-9.2577,1.8099,-0.1598,0.0458,0.0732,-0.0197,-0.1764,-0.0382,2799,2019-08-07 16:20:32:453
3.0466,-9.2625,1.6119,-0.1598,0.0458,0.0732,-0.024,-0.1775,-0.0446,2804,2019-08-07 16:20:32:458
3.0466,-9.2625,1.6119,-0.1598,0.0458,0.0732,-0.024,-0.1775,-0.0446,2809,2019-08-07 16:20:32:463
3.0466,-9.2625,1.6119,-0.1598,0.0458,0.0732,-0.0218,-0.1178,-0.0435,2814,2019-08-07 16:20:32:468
3.2811,-9.253,1.5742,-0.4404,0.0717,0.1718,-0.0218,-0.1178,-0.0435,2819,2019-08-07 16:20:32:473
3.2811,-9.253,1.5742,-0.4404,0.0717,0.1718,-0.0218,-0.1178,-0.0435,2824,2019-08-07 16:20:32:478
3.2045,-9.21,1.6921,-0.4404,0.0717,0.1718,0.0037,-0.0156,-0.051,2829,2019-08-07 16:20:32:483
3.2045,-9.21,1.6921,-0.4404,0.0717,0.1718,0.0037,-0.0156,-0.051,2834,2019-08-07 16:20:32:488
3.2045,-9.21,1.6921,-0.4404,0.0717,0.1718,0.0304,0.0899,-0.052,2839,2019-08-07 16:20:32:493
3.0227,-9.1527,1.6638,-0.3042,-0.0484,0.0654,0.0304,0.0899,-0.052,2844,2019-08-07 16:20:32:498
3.0227,-9.1527,1.6638,-0.3042,-0.0484,0.0654,0.0336,0.1293,-0.0563,2849,2019-08-07 16:20:32:503
2.8314,-9.1002,1.9136,-0.3042,-0.0484,0.0654,0.0336,0.1293,-0.0563,2854,2019-08-07 16:20:32:508
2.8314,-9.1002,1.9136,0.0525,-0.1341,-0.2224,0.0389,0.1155,-0.0637,2859,2019-08-07 16:20:32:513
2.8314,-9.1002,1.9136,0.0525,-0.1341,-0.2224,0.0389,0.1155,-0.0637,2863,2019-08-07 16:20:32:517
2.64,-9.019,2.0032,0.0525,-0.1341,-0.2224,0.0272,0.0111,-0.0574,2869,2019-08-07 16:20:32:523
2.64,-9.019,2.0032,0.0525,-0.1341,-0.2224,0.0272,0.0111,-0.0574,2874,2019-08-07 16:20:32:528
2.774,-9.0429,2.0928,0.0618,-0.1725,-0.2845,0.0101,-0.0763,-0.0446,2880,2019-08-07 16:20:32:534
2.774,-9.0429,2.0928,0.0618,-0.1725,-0.2845,0.0101,-0.0763,-0.0446,2884,2019-08-07 16:20:32:538
2.774,-9.0429,2.0928,0.0618,-0.1725,-0.2845,0.0101,-0.0763,-0.0446,2889,2019-08-07 16:20:32:543
2.9941,-9.1145,1.8854,0.0618,-0.1725,-0.2845,-0.009,-0.153,-0.0339,2894,2019-08-07 16:20:32:548
2.9941,-9.1145,1.8854,-0.3698,-0.1175,-0.0662,-0.009,-0.153,-0.0339,2899,2019-08-07 16:20:32:553
2.9941,-9.1145,1.8854,-0.3698,-0.1175,-0.0662,-0.0229,-0.1903,-0.0222,2904,2019-08-07 16:20:32:558
3.3481,-9.105,1.8052,-0.3698,-0.1175,-0.0662,-0.0229,-0.1903,-0.0222,2909,2019-08-07 16:20:32:563
3.3481,-9.105,1.8052,-0.3698,-0.1175,-0.0662,-0.0122,-0.1594,-0.0094,2914,2019-08-07 16:20:32:568
3.3481,-9.105,1.8052,-0.3698,-0.1175,-0.0662,-0.0122,-0.1594,-0.0094,2919,2019-08-07 16:20:32:573
3.3481,-9.105,1.8052,-0.5963,-0.0398,0.0899,-0.0122,-0.1594,-0.0094,2924,2019-08-07 16:20:32:578
3.4773,-9.1432,1.7581,-0.5963,-0.0398,0.0899,-0.0048,-0.0923,2.0E-4,2929,2019-08-07 16:20:32:583
3.4773,-9.1432,1.7581,-0.5963,-0.0398,0.0899,-0.0048,-0.0923,2.0E-4,2935,2019-08-07 16:20:32:589
3.3721,-9.0716,1.6308,-0.5963,-0.0398,0.0899,0.008,0.0207,-0.003,2939,2019-08-07 16:20:32:593
3.3721,-9.0716,1.6308,-0.447,-0.115,0.1669,0.008,0.0207,-0.003,2944,2019-08-07 16:20:32:598
3.3721,-9.0716,1.6308,-0.447,-0.115,0.1669,0.008,0.0207,-0.003,2949,2019-08-07 16:20:32:603
2.6592,-8.8615,1.1924,-0.447,-0.115,0.1669,-0.1049,-0.2062,-0.0201,2954,2019-08-07 16:20:32:608
2.6592,-8.8615,1.1924,-0.447,-0.115,0.1669,-0.1614,-0.2712,-0.0115,2959,2019-08-07 16:20:32:613
2.5205,-9.0907,2.0645,0.4539,-0.2464,-0.1534,-0.1614,-0.2712,-0.0115,2963,2019-08-07 16:20:32:617
2.5205,-9.0907,2.0645,0.4539,-0.2464,-0.1534,-0.1614,-0.2712,-0.0115,2969,2019-08-07 16:20:32:623
3.0468,-9.3198,2.4227,0.4539,-0.2464,-0.1534,-0.0186,-0.17,-0.0403,2975,2019-08-07 16:20:32:629
3.0468,-9.3198,2.4227,0.4539,-0.2464,-0.1534,-0.0186,-0.17,-0.0403,2978,2019-08-07 16:20:32:632
3.0468,-9.3198,2.4227,-0.2649,0.1229,-0.3264,0.1124,-0.1903,-0.0563,2984,2019-08-07 16:20:32:638
3.353,-9.253,1.447,-0.2649,0.1229,-0.3264,0.1124,-0.1903,-0.0563,2989,2019-08-07 16:20:32:643
3.353,-9.253,1.447,-0.2649,0.1229,-0.3264,0.1177,-0.1647,-0.0403,2994,2019-08-07 16:20:32:648
3.353,-9.253,1.447,-0.2649,0.1229,-0.3264,0.1177,-0.1647,-0.0403,2999,2019-08-07 16:20:32:653
3.4869,-9.0,1.447,-0.5822,-0.2042,0.3087,0.0453,-0.0987,-0.0211,3004,2019-08-07 16:20:32:658
3.4869,-9.0,1.447,-0.5822,-0.2042,0.3087,0.0453,-0.0987,-0.0211,3008,2019-08-07 16:20:32:662
3.4869,-9.0,1.447,-0.5822,-0.2042,0.3087,0.0453,-0.0987,-0.0211,3014,2019-08-07 16:20:32:668
3.5826,-8.957,1.744,-0.6721,-0.2452,0.0126,0.0325,-0.0369,2.0E-4,3019,2019-08-07 16:20:32:673
3.5826,-8.957,1.744,-0.6721,-0.2452,0.0126,0.0325,-0.0369,2.0E-4,3024,2019-08-07 16:20:32:678
3.5826,-8.957,1.744,-0.6721,-0.2452,0.0126,0.0442,0.1421,0.014,3029,2019-08-07 16:20:32:683
3.3913,-9.1623,1.5743,-0.4796,-0.0375,0.1929,0.0442,0.1421,0.014,3034,2019-08-07 16:20:32:688
3.3913,-9.1623,1.5743,-0.4796,-0.0375,0.1929,0.0314,0.2145,0.0257,3039,2019-08-07 16:20:32:693
3.3913,-9.1623,1.5743,-0.4796,-0.0375,0.1929,0.0314,0.2145,0.0257,3044,2019-08-07 16:20:32:698
3.0612,-9.1336,1.843,-0.4796,-0.0375,0.1929,0.0453,0.2231,0.0193,3049,2019-08-07 16:20:32:703
3.0612,-9.1336,1.843,0.0318,-0.0416,-0.2588,0.0453,0.2231,0.0193,3053,2019-08-07 16:20:32:707
2.7167,-9.1432,2.0975,0.0318,-0.0416,-0.2588,0.0666,0.157,0.0087,3061,2019-08-07 16:20:32:715
2.7167,-9.1432,2.0975,0.0318,-0.0416,-0.2588,0.0666,0.157,0.0087,3064,2019-08-07 16:20:32:718
2.7167,-9.1432,2.0975,0.0318,-0.0416,-0.2588,0.0666,0.157,0.0087,3069,2019-08-07 16:20:32:723