ACCELEROMETER X (m/s²),ACCELEROMETER Y (m/s²),ACCELEROMETER Z (m/s²),LINEAR ACCELERATION X (m/s²),LINEAR ACCELERATION Y (m/s²),LINEAR ACCELERATION Z (m/s²),GYROSCOPE X (rad/s),GYROSCOPE Y (rad/s),GYROSCOPE Z (rad/s),Time since start in ms ,YYYY-MO-DD HH-MI-SS_SSS
3.8159,-8.7129,2.2754,-0.1326,-0.0177,0.0493,0.0069,0.0217,-0.0137,3,2019-08-07 16:21:31:118
3.8159,-8.7129,2.2754,-0.0019,-0.0259,-0.0093,0.0069,0.0217,-0.0137,8,2019-08-07 16:21:31:123
3.8159,-8.7129,2.2754,-0.0019,-0.0259,-0.0093,0.0101,0.01,-0.0116,12,2019-08-07 16:21:31:127
3.7824,-8.7368,2.3319,-0.0019,-0.0259,-0.0093,0.0101,0.01,-0.0116,18,2019-08-07 16:21:31:133
3.7824,-8.7368,2.3319,-0.0019,-0.0259,-0.0093,0.0069,-0.006,-0.0073,23,2019-08-07 16:21:31:138
3.7776,-8.7273,2.3272,0.0188,0.0136,-0.0212,0.0069,-0.006,-0.0073,28,2019-08-07 16:21:31:143
3.7776,-8.7273,2.3272,0.0188,0.0136,-0.0212,0.0069,0.0058,-0.0158,33,2019-08-07 16:21:31:148
3.7776,-8.7273,2.3272,0.0188,0.0136,-0.0212,0.0069,0.0058,-0.0158,38,2019-08-07 16:21:31:153
3.7776,-8.7273,2.3272,0.0188,0.0136,-0.0212,0.0069,0.0058,-0.0158,42,2019-08-07 16:21:31:157
3.8016,-8.6843,2.3037,-0.0261,-0.0801,0.042,0.0069,0.0068,-0.0233,48,2019-08-07 16:21:31:163
3.8016,-8.6843,2.3037,-0.0261,-0.0801,0.042,0.0069,0.0068,-0.0233,53,2019-08-07 16:21:31:168
3.8016,-8.6843,2.3037,-0.0261,-0.0801,0.042,0.0069,0.0068,-0.0233,57,2019-08-07 16:21:31:172
3.9497,-8.6795,2.313,-0.0971,-0.1011,-0.0503,0.0027,0.0121,-0.0265,63,2019-08-07 16:21:31:178
3.9497,-8.6795,2.313,-0.0971,-0.1011,-0.0503,0.0027,0.0121,-0.0265,68,2019-08-07 16:21:31:183
3.9497,-8.6795,2.313,-0.0971,-0.1011,-0.0503,0.0027,0.0121,-0.0265,73,2019-08-07 16:21:31:188
3.9305,-8.6795,2.28,-0.0994,-0.0519,0.0267,0.0037,0.0313,-0.0276,78,2019-08-07 16:21:31:193
3.9305,-8.6795,2.28,-0.0994,-0.0519,0.0267,0.0037,0.0313,-0.0276,82,2019-08-07 16:21:31:197
3.9305,-8.6795,2.28,-0.0994,-0.0519,0.0267,0.0037,0.0313,-0.0276,88,2019-08-07 16:21:31:203
3.8731,-8.6652,2.346,-0.0994,-0.0519,0.0267,-0.0016,0.026,-0.0233,93,2019-08-07 16:21:31:208
3.8731,-8.6652,2.346,-0.0578,-0.0068,-0.0321,-5.0E-4,0.0164,-0.0159,98,2019-08-07 16:21:31:213
3.8731,-8.6652,2.346,-0.0578,-0.0068,-0.0321,-5.0E-4,0.0164,-0.0159,103,2019-08-07 16:21:31:218
3.9162,-8.775,2.3036,-0.0578,-0.0068,-0.0321,-5.0E-4,0.0164,-0.0159,108,2019-08-07 16:21:31:223
3.9162,-8.775,2.3036,-0.0578,-0.0068,-0.0321,-0.0026,0.01,-0.0116,113,2019-08-07 16:21:31:228
3.9162,-8.775,2.3036,-0.0363,0.0325,0.0532,-0.0026,0.01,-0.0116,117,2019-08-07 16:21:31:232
3.9018,-8.8132,2.2706,-0.0363,0.0325,0.0532,0.0027,0.009,-0.0084,123,2019-08-07 16:21:31:238
3.9018,-8.8132,2.2706,-0.0363,0.0325,0.0532,0.0027,0.009,-0.0084,128,2019-08-07 16:21:31:243
3.8636,-8.8323,2.2848,-0.0363,0.0325,0.0532,0.0123,0.0281,1.0E-4,133,2019-08-07 16:21:31:248
3.8636,-8.8323,2.2848,-0.0743,0.0857,0.1211,0.0123,0.0281,1.0E-4,138,2019-08-07 16:21:31:253
3.8636,-8.8323,2.2848,-0.0743,0.0857,0.1211,0.0123,0.0281,1.0E-4,143,2019-08-07 16:21:31:258
3.8396,-8.7893,2.28,-0.0743,0.0857,0.1211,0.0176,0.0537,-0.0063,147,2019-08-07 16:21:31:262
3.8396,-8.7893,2.28,-0.0743,0.0857,0.1211,0.0176,0.0537,-0.0063,153,2019-08-07 16:21:31:268
3.8396,-8.7893,2.28,0.0723,-0.0135,0.01,0.0176,0.0622,-0.0052,158,2019-08-07 16:21:31:273
3.7631,-8.7129,2.3083,0.0723,-0.0135,0.01,0.0176,0.0622,-0.0052,162,2019-08-07 16:21:31:277
3.7631,-8.7129,2.3083,0.0723,-0.0135,0.01,0.0197,0.043,-0.0041,168,2019-08-07 16:21:31:283
3.8061,-8.6461,2.3696,0.0723,-0.0135,0.01,0.0197,0.043,-0.0041,172,2019-08-07 16:21:31:287
3.8061,-8.6461,2.3696,-0.0343,-0.1651,-0.068,0.0144,0.0217,-0.0031,178,2019-08-07 16:21:31:293
3.8061,-8.6461,2.3696,-0.0343,-0.1651,-0.068,0.0144,0.0217,-0.0031,183,2019-08-07 16:21:31:298
3.8636,-8.5697,2.3743,-0.0343,-0.1651,-0.068,0.0016,-0.0113,-0.002,188,2019-08-07 16:21:31:303
3.8636,-8.5697,2.3743,-0.0343,-0.1651,-0.068,0.0016,-0.0113,-0.002,193,2019-08-07 16:21:31:308
3.8636,-8.5697,2.3743,-0.0343,-0.1651,-0.068,0.0016,-0.0113,-0.002,197,2019-08-07 16:21:31:312
3.9975,-8.5888,2.3319,-0.1621,-0.1356,-0.0058,-0.0037,-0.0219,0.0012,203,2019-08-07 16:21:31:318
3.9975,-8.5888,2.3319,-0.1621,-0.1356,-0.0058,-0.0037,-0.0219,0.0012,208,2019-08-07 16:21:31:323
4.1219,-8.6509,2.2093,-0.1621,-0.1356,-0.0058,-0.0069,0.0015,1.0E-4,213,2019-08-07 16:21:31:328
4.1219,-8.6509,2.2093,-0.1842,-0.0349,0.1201,-0.0069,0.0015,1.0E-4,218,2019-08-07 16:21:31:333
4.0262,-8.6413,2.1999,-0.1842,-0.0349,0.1201,-0.0026,0.0473,-0.0031,222,2019-08-07 16:21:31:337
4.0262,-8.6413,2.1999,-0.1842,-0.0349,0.1201,-0.0026,0.0473,-0.0031,228,2019-08-07 16:21:31:343
4.0262,-8.6413,2.1999,-0.0795,-0.0252,0.1356,0.0027,0.0729,0.0023,232,2019-08-07 16:21:31:347
3.8683,-8.6795,2.2989,-0.0795,-0.0252,0.1356,0.0027,0.0729,0.0023,238,2019-08-07 16:21:31:353
3.8683,-8.6795,2.2989,-0.0795,-0.0252,0.1356,0.0123,0.107,0.0012,243,2019-08-07 16:21:31:358
3.8109,-8.6795,2.3036,0.031,-0.0677,-0.0581,0.0123,0.107,0.0012,248,2019-08-07 16:21:31:363
3.8109,-8.6795,2.3036,0.031,-0.0677,-0.0581,0.0091,0.1091,-0.0201,253,2019-08-07 16:21:31:368
3.8109,-8.6795,2.3036,0.031,-0.0677,-0.0581,0.0091,0.1091,-0.0201,258,2019-08-07 16:21:31:373
3.7105,-8.6461,2.346,0.1206,-0.0763,-0.0054,0.0091,0.1091,-0.0201,263,2019-08-07 16:21:31:378
3.7105,-8.6461,2.346,0.1206,-0.0763,-0.0054,0.0069,0.0984,-0.0308,268,2019-08-07 16:21:31:383
3.7631,-8.5315,2.412,0.1206,-0.0763,-0.0054,0.0069,0.0984,-0.0308,273,2019-08-07 16:21:31:388
3.7631,-8.5315,2.412,0.1206,-0.0763,-0.0054,-5.0E-4,0.0739,-0.0404,278,2019-08-07 16:21:31:393
3.7631,-8.5315,2.412,0.0407,-0.2166,0.0033,-5.0E-4,0.0739,-0.0404,283,2019-08-07 16:21:31:398
3.8636,-8.5315,2.3178,0.0407,-0.2166,0.0033,-0.0016,0.0601,-0.0446,288,2019-08-07 16:21:31:403
3.8636,-8.5315,2.3178,0.0407,-0.2166,0.0033,-0.0016,0.0601,-0.0446,293,2019-08-07 16:21:31:408
3.8636,-8.5315,2.3178,0.0407,-0.2166,0.0033,-0.0037,0.0548,-0.0457,298,2019-08-07 16:21:31:413
3.9975,-8.5172,2.2942,-0.1591,-0.1984,0.0596,-0.0037,0.0548,-0.0457,303,2019-08-07 16:21:31:418
3.9975,-8.5172,2.2942,-0.1591,-0.1984,0.0596,-0.0037,0.0548,-0.0457,308,2019-08-07 16:21:31:423
4.0358,-8.4265,2.2848,-0.1591,-0.1984,0.0596,-0.0037,0.0654,-0.0414,313,2019-08-07 16:21:31:428
4.0358,-8.4265,2.2848,-0.1591,-0.1984,0.0596,-0.0037,0.0654,-0.0414,318,2019-08-07 16:21:31:433
4.0358,-8.4265,2.2848,-0.1002,-0.2805,0.1156,-0.0058,0.0761,-0.0318,323,2019-08-07 16:21:31:438
3.9497,-8.4647,2.2659,-0.1002,-0.2805,0.1156,-0.0058,0.0761,-0.0318,329,2019-08-07 16:21:31:444
3.9497,-8.4647,2.2659,-0.1002,-0.2805,0.1156,-0.0101,0.0558,-0.0212,333,2019-08-07 16:21:31:448
3.9497,-8.4647,2.2659,-0.1002,-0.2805,0.1156,-0.0101,0.0558,-0.0212,338,2019-08-07 16:21:31:453
3.8444,-8.5267,2.3272,0.003,-0.1829,0.0339,-0.0058,0.0345,-0.0137,345,2019-08-07 16:21:31:460
3.8444,-8.5267,2.3272,0.003,-0.1829,0.0339,-0.0058,0.0345,-0.0137,348,2019-08-07 16:21:31:463
3.8588,-8.5554,2.2376,0.003,-0.1829,0.0339,0.0048,0.0377,-0.0201,353,2019-08-07 16:21:31:468
3.8588,-8.5554,2.2376,0.003,-0.1829,0.0339,0.0048,0.0377,-0.0201,357,2019-08-07 16:21:31:472
3.8588,-8.5554,2.2376,0.01,-0.1813,0.2109,0.0091,0.0643,-0.0329,363,2019-08-07 16:21:31:478
3.8157,-8.5029,2.1433,0.01,-0.1813,0.2109,0.0091,0.0643,-0.0329,368,2019-08-07 16:21:31:483
3.8157,-8.5029,2.1433,0.01,-0.1813,0.2109,0.0091,0.0643,-0.0329,373,2019-08-07 16:21:31:488
3.7631,-8.5077,2.2376,0.01,-0.1813,0.2109,-0.0016,0.1006,-0.051,378,2019-08-07 16:21:31:493
3.7631,-8.5077,2.2376,0.0902,-0.2019,0.1272,-0.0016,0.1006,-0.051,383,2019-08-07 16:21:31:498
3.7631,-8.5077,2.2376,0.0902,-0.2019,0.1272,-0.0208,0.1293,-0.068,388,2019-08-07 16:21:31:503
3.6674,-8.5267,2.3508,0.1881,-0.1762,0.0222,-0.0208,0.1293,-0.068,393,2019-08-07 16:21:31:508
3.6674,-8.5267,2.3508,0.1881,-0.1762,0.0222,-0.0303,0.1133,-0.0734,398,2019-08-07 16:21:31:513
3.6674,-8.5267,2.3508,0.1881,-0.1762,0.0222,-0.0303,0.1133,-0.0734,402,2019-08-07 16:21:31:517
3.4665,-8.584,2.544,0.1881,-0.1762,0.0222,-0.0303,0.1133,-0.0734,408,2019-08-07 16:21:31:523
3.4665,-8.584,2.544,0.4047,-0.177,-0.1291,-0.0335,0.0643,-0.0819,413,2019-08-07 16:21:31:528
3.433,-8.6365,2.4639,0.4047,-0.177,-0.1291,-0.0335,0.0643,-0.0819,418,2019-08-07 16:21:31:533
3.433,-8.6365,2.4639,0.4047,-0.177,-0.1291,-0.0463,-0.0305,-0.0894,423,2019-08-07 16:21:31:538
3.433,-8.6365,2.4639,0.4047,-0.177,-0.1291,-0.0463,-0.0305,-0.0894,428,2019-08-07 16:21:31:543
3.4617,-8.7082,2.5157,0.4135,0.013,-0.1464,-0.0495,-0.1082,-0.0925,433,2019-08-07 16:21:31:548
3.4617,-8.7082,2.5157,0.4135,0.013,-0.1464,-0.0495,-0.1082,-0.0925,438,2019-08-07 16:21:31:553
3.4617,-8.8036,2.3979,0.2416,0.1105,-0.0376,-0.0367,-0.1604,-0.0904,443,2019-08-07 16:21:31:558
3.6435,-8.8036,2.3979,0.2416,0.1105,-0.0376,-0.0367,-0.1604,-0.0904,449,2019-08-07 16:21:31:564
3.6435,-8.8036,2.3979,0.2416,0.1105,-0.0376,-0.0367,-0.1604,-0.0904,452,2019-08-07 16:21:31:567
4.0071,-8.8466,2.2895,0.2416,0.1105,-0.0376,-0.0133,-0.1668,-0.0883,458,2019-08-07 16:21:31:573
4.0071,-8.8466,2.2895,-0.1848,0.1164,0.1199,0.0048,-0.105,-0.0851,463,2019-08-07 16:21:31:578
4.0071,-8.8466,2.2895,-0.1848,0.1164,0.1199,0.0048,-0.105,-0.0851,468,2019-08-07 16:21:31:583
4.1889,-8.6795,2.1433,-0.1848,0.1164,0.1199,0.0048,-0.105,-0.0851,472,2019-08-07 16:21:31:587
4.1889,-8.6795,2.1433,-0.1848,0.1164,0.1199,0.0165,0.0068,-0.0787,478,2019-08-07 16:21:31:593
4.0071,-8.5984,2.1056,-0.0812,-0.0817,0.2354,0.0165,0.0068,-0.0787,483,2019-08-07 16:21:31:598
4.0071,-8.5984,2.1056,-0.0812,-0.0817,0.2354,0.0165,0.0068,-0.0787,487,2019-08-07 16:21:31:602
4.0071,-8.5984,2.1056,-0.0812,-0.0817,0.2354,0.0208,0.1357,-0.0606,493,2019-08-07 16:21:31:608
3.6387,-8.5793,2.3743,-0.0812,-0.0817,0.2354,0.0208,0.1357,-0.0606,498,2019-08-07 16:21:31:613
3.6387,-8.5793,2.3743,0.4814,-0.0625,-0.1284,0.0037,0.1442,-0.0489,503,2019-08-07 16:21:31:618
3.6387,-8.5793,2.3743,0.4814,-0.0625,-0.1284,0.0037,0.1442,-0.0489,508,2019-08-07 16:21:31:623
3.3564,-8.7034,2.6336,0.4814,-0.0625,-0.1284,-0.0101,0.0942,-0.0435,513,2019-08-07 16:21:31:628
3.3564,-8.7034,2.6336,0.4814,-0.0625,-0.1284,-0.0101,0.0942,-0.0435,518,2019-08-07 16:21:31:633
3.256,-8.8084,2.5959,0.6724,0.1341,-0.2377,-0.0293,-0.0294,-0.0318,523,2019-08-07 16:21:31:638
3.256,-8.8084,2.5959,0.6724,0.1341,-0.2377,-0.0293,-0.0294,-0.0318,529,2019-08-07 16:21:31:644
3.256,-8.8084,2.5959,0.6724,0.1341,-0.2377,-0.0367,-0.1391,-0.0276,533,2019-08-07 16:21:31:648
3.3517,-8.9325,2.4545,0.6724,0.1341,-0.2377,-0.0367,-0.1391,-0.0276,538,2019-08-07 16:21:31:653
3.3517,-8.9325,2.4545,0.5024,0.3571,0.0801,-0.0367,-0.1391,-0.0276,542,2019-08-07 16:21:31:657
3.5143,-9.0375,2.1575,0.5024,0.3571,0.0801,-0.0399,-0.2393,-0.0148,548,2019-08-07 16:21:31:663
3.5143,-9.0375,2.1575,0.5024,0.3571,0.0801,-0.0399,-0.2393,-0.0148,553,2019-08-07 16:21:31:668
3.5143,-9.0375,2.1575,0.5024,0.3571,0.0801,-0.0399,-0.2393,-0.0148,558,2019-08-07 16:21:31:673
3.7679,-9.3097,1.9265,0.5024,0.3571,0.0801,-0.0655,-0.2499,0.0055,563,2019-08-07 16:21:31:678
3.7679,-9.3097,1.9265,0.0624,0.7395,0.4576,-0.0655,-0.2499,0.0055,568,2019-08-07 16:21:31:683
3.7679,-9.3097,1.9265,0.0624,0.7395,0.4576,-0.0687,-0.17,0.0076,573,2019-08-07 16:21:31:688
3.811,-9.8252,1.705,0.0624,0.7395,0.4576,-0.0687,-0.17,0.0076,577,2019-08-07 16:21:31:692
3.811,-9.8252,1.705,0.3004,1.4439,0.5812,-0.0644,-0.0997,0.0118,583,2019-08-07 16:21:31:698
3.811,-9.8252,1.705,0.3004,1.4439,0.5812,-0.0644,-0.0997,0.0118,588,2019-08-07 16:21:31:703
3.811,-9.8252,1.705,0.3004,1.4439,0.5812,-0.0644,-0.0997,0.0118,593,2019-08-07 16:21:31:708
3.4569,-10.6416,1.7521,0.3004,1.4439,0.5812,-0.0485,-0.0592,0.0278,598,2019-08-07 16:21:31:713
3.4569,-10.6416,1.7521,0.3004,1.4439,0.5812,-0.0485,-0.0592,0.0278,602,2019-08-07 16:21:31:717
3.4569,-10.6416,1.7521,1.0921,2.866,0.0919,0.0219,-0.0784,0.0907,609,2019-08-07 16:21:31:724
2.5623,-12.0212,2.3178,1.0921,2.866,0.0919,0.0219,-0.0784,0.0907,613,2019-08-07 16:21:31:728
2.5623,-12.0212,2.3178,1.0921,2.866,0.0919,0.1039,-0.1487,0.1631,618,2019-08-07 16:21:31:733
2.0264,-13.6777,3.3077,1.875,4.9654,-1.047,0.1039,-0.1487,0.1631,623,2019-08-07 16:21:31:738
2.0264,-13.6777,3.3077,1.875,4.9654,-1.047,0.1859,-0.2148,0.2228,628,2019-08-07 16:21:31:743
2.0264,-13.6777,3.3077,1.875,4.9654,-1.047,0.1859,-0.2148,0.2228,632,2019-08-07 16:21:31:747
1.792,-15.0908,4.2834,1.875,4.9654,-1.047,0.1859,-0.2148,0.2228,638,2019-08-07 16:21:31:753
1.792,-15.0908,4.2834,2.1259,7.201,-2.455,0.3958,-0.3458,0.3613,643,2019-08-07 16:21:31:758
1.6437,-16.5372,5.0848,2.1259,7.201,-2.455,0.5353,-0.3394,0.5072,649,2019-08-07 16:21:31:764
1.6437,-16.5372,5.0848,2.1259,7.201,-2.455,0.5353,-0.3394,0.5072,652,2019-08-07 16:21:31:767
1.6437,-16.5372,5.0848,2.1259,7.201,-2.455,0.5353,-0.3394,0.5072,658,2019-08-07 16:21:31:773
1.4667,-18.6902,6.0841,2.1259,7.201,-2.455,0.6525,-0.2137,0.733,663,2019-08-07 16:21:31:778
1.4667,-18.6902,6.0841,2.222,10.5114,-4.0751,0.6525,-0.2137,0.733,668,2019-08-07 16:21:31:783
1.4667,-18.6902,6.0841,2.222,10.5114,-4.0751,0.7825,0.0643,1.0505,672,2019-08-07 16:21:31:787
1.2753,-23.4927,7.3898,2.3494,14.7133,-4.9361,0.7825,0.0643,1.0505,678,2019-08-07 16:21:31:793
1.2753,-23.4927,7.3898,2.3494,14.7133,-4.9361,0.8783,0.6375,1.6044,683,2019-08-07 16:21:31:798
1.2753,-23.4927,7.3898,2.3494,14.7133,-4.9361,0.8783,0.6375,1.6044,688,2019-08-07 16:21:31:803
0.529,-36.1624,5.4713,2.3494,14.7133,-4.9361,0.6738,1.3714,2.2084,693,2019-08-07 16:21:31:808
0.529,-36.1624,5.4713,3.1011,30.5711,-1.8506,0.6738,1.3714,2.2084,698,2019-08-07 16:21:31:813
-0.0021,-38.7021,4.3258,3.1011,30.5711,-1.8506,0.6738,1.3714,2.2084,703,2019-08-07 16:21:31:818
-0.0021,-38.7021,4.3258,3.1011,30.5711,-1.8506,0.497,2.0862,3.051,708,2019-08-07 16:21:31:823
-0.0021,-38.7021,4.3258,3.1011,30.5711,-1.8506,0.497,2.0862,3.051,713,2019-08-07 16:21:31:828
-0.16,-35.0119,4.5427,2.7417,25.9895,-1.6848,0.8602,2.5645,3.7669,718,2019-08-07 16:21:31:833
-0.16,-35.0119,4.5427,2.7417,25.9895,-1.6848,0.8602,2.5645,3.7669,722,2019-08-07 16:21:31:837
1.3375,-33.174,4.34,0.7817,24.0848,-1.3181,1.542,3.5861,4.3741,728,2019-08-07 16:21:31:843
1.3375,-33.174,4.34,0.7817,24.0848,-1.3181,1.542,3.5861,4.3741,733,2019-08-07 16:21:31:848
1.3375,-33.174,4.34,0.7817,24.0848,-1.3181,1.8413,6.0554,4.4785,737,2019-08-07 16:21:31:852
3.787,-31.8278,-0.7651,0.7817,24.0848,-1.3181,1.8413,6.0554,4.4785,743,2019-08-07 16:21:31:858
3.787,-31.8278,-0.7651,-2.1029,21.5198,5.1969,1.8413,6.0554,4.4785,748,2019-08-07 16:21:31:863
3.787,-31.8278,-0.7651,-2.1029,21.5198,5.1969,0.8602,8.1987,4.0971,752,2019-08-07 16:21:31:867
0.1319,-30.1474,-4.4937,-2.1029,21.5198,5.1969,0.8602,8.1987,4.0971,758,2019-08-07 16:21:31:873
0.1319,-30.1474,-4.4937,-2.1029,21.5198,5.1969,-0.368,10.276,3.3706,763,2019-08-07 16:21:31:878
-5.901,-30.4625,-4.423,4.1754,21.5144,8.073,-0.368,10.276,3.3706,768,2019-08-07 16:21:31:883
-5.901,-30.4625,-4.423,4.1754,21.5144,8.073,-1.3598,11.2667,2.4662,773,2019-08-07 16:21:31:888
-5.901,-30.4625,-4.423,4.1754,21.5144,8.073,-1.3598,11.2667,2.4662,777,2019-08-07 16:21:31:892
-5.9393,-30.0996,-5.0075,4.1754,21.5144,8.073,-1.3832,11.7609,1.5288,783,2019-08-07 16:21:31:898
-5.9393,-30.0996,-5.0075,1.4226,20.6524,4.6486,-1.3832,11.7609,1.5288,788,2019-08-07 16:21:31:903
-5.9393,-30.0996,-5.0075,1.4226,20.6524,4.6486,-1.3832,11.7609,1.5288,793,2019-08-07 16:21:31:908
-0.6097,-29.2308,2.1198,1.4226,20.6524,4.6486,-0.3073,12.268,-0.3056,797,2019-08-07 16:21:31:912
-0.6097,-29.2308,2.1198,1.4226,20.6524,4.6486,-0.3073,12.268,-0.3056,803,2019-08-07 16:21:31:918
-0.6097,-29.2308,2.1198,-3.2537,13.3855,-3.4571,3.207,11.9431,-3.1786,808,2019-08-07 16:21:31:923
1.2753,-21.1774,4.3211,-3.2537,13.3855,-3.4571,3.207,11.9431,-3.1786,813,2019-08-07 16:21:31:928
1.2753,-21.1774,4.3211,-3.2537,13.3855,-3.4571,5.4185,12.4779,-4.2503,818,2019-08-07 16:21:31:933
1.2753,-21.1774,4.3211,-3.2537,13.3855,-3.4571,5.4185,12.4779,-4.2503,822,2019-08-07 16:21:31:937
-1.1024,-8.7129,-7.2984,0.8901,-4.4749,6.4577,6.5764,13.5932,-4.7296,828,2019-08-07 16:21:31:943
-1.1024,-8.7129,-7.2984,0.8901,-4.4749,6.4577,6.5764,13.5932,-4.7296,833,2019-08-07 16:21:31:948
-1.1024,-8.7129,-7.2984,0.8901,-4.4749,6.4577,6.5764,13.5932,-4.7296,838,2019-08-07 16:21:31:953
-20.981,56.8077,-17.8573,0.8901,-4.4749,6.4577,7.4563,9.6709,-3.5067,843,2019-08-07 16:21:31:958
-20.981,56.8077,-17.8573,11.711,-74.4152,9.3794,7.4563,9.6709,-3.5067,848,2019-08-07 16:21:31:963
-20.981,56.8077,-17.8573,11.711,-74.4152,9.3794,-0.5417,2.7328,-1.8449,853,2019-08-07 16:21:31:968
-20.981,56.8077,-17.8573,11.711,-74.4152,9.3794,-0.5417,2.7328,-1.8449,858,2019-08-07 16:21:31:973
-32.3962,92.4157,62.3198,11.711,-74.4152,9.3794,3.6107,1.8061,0.2142,863,2019-08-07 16:21:31:978
-32.3962,92.4157,62.3198,6.69,-49.3856,-2.0251,3.6107,1.8061,0.2142,868,2019-08-07 16:21:31:983
-32.3962,92.4157,62.3198,6.69,-49.3856,-2.0251,4.7229,-11.3233,0.4827,872,2019-08-07 16:21:31:987
9.155,26.7279,-5.6721,6.69,-49.3856,-2.0251,4.7229,-11.3233,0.4827,879,2019-08-07 16:21:31:994
9.155,26.7279,-5.6721,6.69,-49.3856,-2.0251,4.4171,-10.0077,0.6691,883,2019-08-07 16:21:31:998
9.155,26.7279,-5.6721,-25.6043,-37.6488,12.0166,4.4171,-10.0077,0.6691,887,2019-08-07 16:21:32:002
25.7419,30.8429,-11.8991,-25.6043,-37.6488,12.0166,4.4171,-10.0077,0.6691,893,2019-08-07 16:21:32:008
25.7419,30.8429,-11.8991,-25.6043,-37.6488,12.0166,4.9711,-2.0268,0.3133,898,2019-08-07 16:21:32:013
18.9435,29.702,-30.594,-25.6043,-37.6488,12.0166,4.9711,-2.0268,0.3133,903,2019-08-07 16:21:32:018
18.9435,29.702,-30.594,-25.6043,-37.6488,12.0166,2.3558,3.2719,-0.2523,909,2019-08-07 16:21:32:024
18.9435,29.702,-30.594,-12.8711,-35.285,39.8209,2.3558,3.2719,-0.2523,913,2019-08-07 16:21:32:028
1.5337,26.9618,-29.194,-12.8711,-35.285,39.8209,0.1571,8.155,-1.095,918,2019-08-07 16:21:32:033
1.5337,26.9618,-29.194,-12.8711,-35.285,39.8209,0.1571,8.155,-1.095,923,2019-08-07 16:21:32:038
1.5337,26.9618,-29.194,-12.8711,-35.285,39.8209,0.1571,8.155,-1.095,927,2019-08-07 16:21:32:042
-9.7763,24.6036,4.4908,10.5601,-35.8606,-12.0183,-1.8615,10.1907,-1.0705,933,2019-08-07 16:21:32:048
-9.7763,24.6036,4.4908,10.5601,-35.8606,-12.0183,-1.8615,10.1907,-1.0705,938,2019-08-07 16:21:32:053
-9.7763,24.6036,4.4908,10.5601,-35.8606,-12.0183,-1.8615,10.1907,-1.0705,943,2019-08-07 16:21:32:058
-15.4408,17.7197,2.7656,10.5601,-35.8606,-12.0183,-2.2994,2.7701,0.0172,947,2019-08-07 16:21:32:062
-15.4408,17.7197,2.7656,12.4267,-22.1644,-0.9406,-2.2994,2.7701,0.0172,953,2019-08-07 16:21:32:068
-15.4408,17.7197,2.7656,12.4267,-22.1644,-0.9406,-1.82,-3.4116,0.9695,958,2019-08-07 16:21:32:073
-8.9773,12.9125,12.7683,6.6461,-20.871,-7.5276,-1.82,-3.4116,0.9695,962,2019-08-07 16:21:32:077
-8.9773,12.9125,12.7683,6.6461,-20.871,-7.5276,-1.7561,-8.0828,1.0942,968,2019-08-07 16:21:32:083
-8.9773,12.9125,12.7683,6.6461,-20.871,-7.5276,-1.7561,-8.0828,1.0942,973,2019-08-07 16:21:32:088
-6.2311,14.0439,-3.3954,6.6461,-20.871,-7.5276,-2.1694,-8.1925,1.3615,977,2019-08-07 16:21:32:092
-6.2311,14.0439,-3.3954,1.8982,-21.3,8.7171,-2.1694,-8.1925,1.3615,983,2019-08-07 16:21:32:098
-6.2311,14.0439,-3.3954,1.8982,-21.3,8.7171,-2.1694,-8.1925,1.3615,987,2019-08-07 16:21:32:102
2.3948,9.6233,4.2457,1.8982,-21.3,8.7171,-2.7457,-8.0977,2.0199,993,2019-08-07 16:21:32:108
2.3948,9.6233,4.2457,-5.6261,-14.018,0.9512,-2.7457,-8.0977,2.0199,998,2019-08-07 16:21:32:113
2.3948,9.6233,4.2457,-5.6261,-14.018,0.9512,-2.7414,-10.0652,2.0923,1003,2019-08-07 16:21:32:118
6.1218,1.7226,5.0848,-5.6261,-14.018,0.9512,-2.7414,-10.0652,2.0923,1008,2019-08-07 16:21:32:123
6.1218,1.7226,5.0848,-5.6261,-14.018,0.9512,-2.5337,-10.7289,1.6385,1013,2019-08-07 16:21:32:128
6.1218,1.7226,5.0848,-5.6261,-14.018,0.9512,-2.5337,-10.7289,1.6385,1017,2019-08-07 16:21:32:132
6.6911,-3.7243,4.3918,-7.0685,-4.7626,0.5139,-2.1598,-10.5712,0.8161,1023,2019-08-07 16:21:32:138
6.6911,-3.7243,4.3918,-7.0685,-4.7626,0.5139,-2.1598,-10.5712,0.8161,1027,2019-08-07 16:21:32:142
7.825,-9.2142,3.3218,-7.0685,-4.7626,0.5139,-2.0533,-9.4101,0.0417,1033,2019-08-07 16:21:32:148
7.825,-9.2142,3.3218,-7.0685,-4.7626,0.5139,-2.0533,-9.4101,0.0417,1037,2019-08-07 16:21:32:152
7.825,-9.2142,3.3218,-9.7419,5.6302,2.2324,-1.9659,-8.07,-0.671,1043,2019-08-07 16:21:32:158
10.2888,-17.6495,1.8841,-9.7419,5.6302,2.2324,-1.9659,-8.07,-0.671,1048,2019-08-07 16:21:32:163
10.2888,-17.6495,1.8841,-9.7419,5.6302,2.2324,-2.0075,-6.6873,-0.8361,1052,2019-08-07 16:21:32:167
10.2888,-17.6495,1.8841,-9.7419,5.6302,2.2324,-2.0075,-6.6873,-0.8361,1059,2019-08-07 16:21:32:174
11.9966,-37.0837,2.6006,-10.2584,29.2314,1.2885,-2.0341,-5.8021,-0.4515,1063,2019-08-07 16:21:32:178
11.9966,-37.0837,2.6006,-10.2584,29.2314,1.2885,-2.0341,-5.8021,-0.4515,1068,2019-08-07 16:21:32:183
5.8489,-23.4831,8.8463,-10.2584,29.2314,1.2885,-1.1787,-4.9552,-0.0489,1073,2019-08-07 16:21:32:188
5.8489,-23.4831,8.8463,-10.2584,29.2314,1.2885,-1.1787,-4.9552,-0.0489,1077,2019-08-07 16:21:32:192
5.8489,-23.4831,8.8463,-2.5074,11.9663,-5.1937,0.5002,-4.6068,-0.1767,1083,2019-08-07 16:21:32:198
4.3514,-23.0678,6.9703,-2.5074,11.9663,-5.1937,0.5002,-4.6068,-0.1767,1088,2019-08-07 16:21:32:203
4.3514,-23.0678,6.9703,-2.5074,11.9663,-5.1937,0.5002,-4.6068,-0.1767,1093,2019-08-07 16:21:32:208
2.7774,-28.1376,-1.0432,-2.3727,17.3332,4.1203,1.1553,-4.7517,-0.8446,1098,2019-08-07 16:21:32:213
2.7774,-28.1376,-1.0432,-2.3727,17.3332,4.1203,1.1553,-4.7517,-0.8446,1103,2019-08-07 16:21:32:218
2.7774,-28.1376,-1.0432,-2.3727,17.3332,4.1203,-1.4067,-5.4388,-1.6553,1108,2019-08-07 16:21:32:223
-1.471,-28.0803,4.175,4.0167,18.3666,-3.6992,-1.4067,-5.4388,-1.6553,1113,2019-08-07 16:21:32:228
-1.471,-28.0803,4.175,4.0167,18.3666,-3.6992,-2.1694,-5.8361,-1.5221,1118,2019-08-07 16:21:32:233
-1.471,-28.0803,4.175,4.0167,18.3666,-3.6992,-2.1694,-5.8361,-1.5221,1124,2019-08-07 16:21:32:239
3.4472,-28.572,3.5763,4.0167,18.3666,-3.6992,-2.0852,-5.8905,-1.4124,1128,2019-08-07 16:21:32:243
3.4472,-28.572,3.5763,-1.9573,20.7288,0.3832,-2.0852,-5.8905,-1.4124,1133,2019-08-07 16:21:32:248
3.4472,-28.572,3.5763,-1.9573,20.7288,0.3832,-1.5984,-4.3171,-1.1844,1138,2019-08-07 16:21:32:253
3.4472,-28.572,3.5763,-1.9573,20.7288,0.3832,-1.5984,-4.3171,-1.1844,1143,2019-08-07 16:21:32:258
3.9495,-27.9419,0.913,-0.5798,19.0147,1.3643,-1.5984,-4.3171,-1.1844,1148,2019-08-07 16:21:32:263
3.9495,-27.9419,0.913,-0.5798,19.0147,1.3643,-1.1915,-3.0899,-0.6561,1153,2019-08-07 16:21:32:268
3.9495,-27.9419,0.913,-0.5798,19.0147,1.3643,-1.1915,-3.0899,-0.6561,1158,2019-08-07 16:21:32:273
0.213,-25.6695,3.2086,3.6624,16.6308,-1.4322,-0.7526,-2.4049,-0.182,1163,2019-08-07 16:21:32:278
0.213,-25.6695,3.2086,3.6624,16.6308,-1.4322,-0.7526,-2.4049,-0.182,1167,2019-08-07 16:21:32:282
0.213,-25.6695,3.2086,3.6624,16.6308,-1.4322,-0.7526,-2.4049,-0.182,1173,2019-08-07 16:21:32:288
-1.2845,-24.0512,3.7083,3.6624,16.6308,-1.4322,-0.3403,-1.8798,-0.002,1178,2019-08-07 16:21:32:293
-1.2845,-24.0512,3.7083,3.6592,14.1627,-2.9827,-0.3403,-1.8798,-0.002,1184,2019-08-07 16:21:32:299
-1.2845,-24.0512,3.7083,3.6592,14.1627,-2.9827,0.3073,-1.1256,0.0108,1188,2019-08-07 16:21:32:303
-1.2845,-24.0512,3.7083,3.6592,14.1627,-2.9827,0.3073,-1.1256,0.0108,1193,2019-08-07 16:21:32:308
0.8732,-20.7954,5.6551,2.7677,11.8258,-4.066,0.3073,-1.1256,0.0108,1198,2019-08-07 16:21:32:313
0.8732,-20.7954,5.6551,2.7677,11.8258,-4.066,0.628,-0.6036,0.1876,1203,2019-08-07 16:21:32:318
0.8732,-20.7954,5.6551,2.7677,11.8258,-4.066,0.628,-0.6036,0.1876,1208,2019-08-07 16:21:32:323
1.5335,-16.4513,4.0053,2.1548,6.0699,-2.2722,0.6589,-0.0614,0.3272,1213,2019-08-07 16:21:32:328
1.5335,-16.4513,4.0053,2.1548,6.0699,-2.2722,0.6589,-0.0614,0.3272,1218,2019-08-07 16:21:32:333
0.5575,-12.4651,4.1231,2.1548,6.0699,-2.2722,0.3425,0.3829,0.4071,1222,2019-08-07 16:21:32:337
0.5575,-12.4651,4.1231,2.1548,6.0699,-2.2722,0.3425,0.3829,0.4071,1228,2019-08-07 16:21:32:343
0.5575,-12.4651,4.1231,3.174,1.8813,-2.2416,0.0485,0.3253,0.438,1233,2019-08-07 16:21:32:348
0.39,-10.6988,3.8638,3.174,1.8813,-2.2416,0.0485,0.3253,0.438,1238,2019-08-07 16:21:32:353
0.39,-10.6988,3.8638,3.174,1.8813,-2.2416,0.0485,0.3253,0.438,1242,2019-08-07 16:21:32:357
1.1699,-10.2358,2.1292,3.174,1.8813,-2.2416,-0.1422,-0.0901,0.4113,1248,2019-08-07 16:21:32:363
1.1699,-10.2358,2.1292,1.9278,1.0217,0.1846,-0.1422,-0.0901,0.4113,1253,2019-08-07 16:21:32:368
1.1699,-10.2358,2.1292,1.9278,1.0217,0.1846,-0.1124,-0.3884,0.2792,1258,2019-08-07 16:21:32:373
1.7105,-9.9589,1.5352,1.9278,1.0217,0.1846,-0.1124,-0.3884,0.2792,1263,2019-08-07 16:21:32:378
1.7105,-9.9589,1.5352,1.9278,1.0217,0.1846,0.0836,-0.5716,0.1855,1268,2019-08-07 16:21:32:383
1.7105,-9.9589,1.5352,0.8694,0.2576,0.5517,0.0836,-0.5716,0.1855,1273,2019-08-07 16:21:32:388
2.6051,-9.1998,1.177,0.8694,0.2576,0.5517,0.2903,-0.5759,0.1248,1278,2019-08-07 16:21:32:393
2.6051,-9.1998,1.177,0.8694,0.2576,0.5517,0.2903,-0.5759,0.1248,1283,2019-08-07 16:21:32:398
2.6051,-9.1998,1.177,0.8694,0.2576,0.5517,0.5257,-0.4363,0.0395,1288,2019-08-07 16:21:32:403
2.6051,-9.1998,1.177,0.8694,0.2576,0.5517,0.5257,-0.4363,0.0395,1293,2019-08-07 16:21:32:408
3.1697,-8.0446,0.2719,0.16,-1.1514,1.4914,0.4916,-0.2297,0.0023,1298,2019-08-07 16:21:32:413
3.1697,-8.0446,0.2719,0.16,-1.1514,1.4914,0.4916,-0.2297,0.0023,1303,2019-08-07 16:21:32:418
3.1457,-7.3237,0.5736,0.16,-1.1514,1.4914,0.4916,-0.2297,0.0023,1308,2019-08-07 16:21:32:423
3.1457,-7.3237,0.5736,0.16,-1.1514,1.4914,0.4054,-0.0486,-0.0265,1313,2019-08-07 16:21:32:428
3.2797,-7.3762,1.045,0.1571,-1.7122,1.0176,0.4054,-0.0486,-0.0265,1318,2019-08-07 16:21:32:433
3.2797,-7.3762,1.045,0.1571,-1.7122,1.0176,0.2988,0.0675,-0.0531,1323,2019-08-07 16:21:32:438
3.2797,-7.3762,1.045,0.0244,-1.5322,0.5802,0.2988,0.0675,-0.0531,1328,2019-08-07 16:21:32:443
3.495,-7.6722,1.4268,0.0244,-1.5322,0.5802,0.2456,0.14,-0.0606,1334,2019-08-07 16:21:32:449
3.495,-7.6722,1.4268,0.0244,-1.5322,0.5802,0.2456,0.14,-0.0606,1338,2019-08-07 16:21:32:453
3.495,-7.6722,1.4268,0.0244,-1.5322,0.5802,0.2456,0.14,-0.0606,1343,2019-08-07 16:21:32:458
3.6768,-7.7868,1.4645,-0.3521,-1.2737,0.4208,0.2093,0.2103,-0.067,1348,2019-08-07 16:21:32:463
3.6768,-7.7868,1.4645,-0.3521,-1.2737,0.4208,0.2093,0.2103,-0.067,1354,2019-08-07 16:21:32:469
3.7581,-7.529,1.6389,-0.3521,-1.2737,0.4208,0.1316,0.1975,-0.0776,1358,2019-08-07 16:21:32:473
3.7581,-7.529,1.6389,-0.3521,-1.2737,0.4208,0.1316,0.1975,-0.0776,1363,2019-08-07 16:21:32:478
3.7581,-7.529,1.6389,-0.3487,-1.4796,0.4292,0.0836,0.1943,-0.084,1368,2019-08-07 16:21:32:483
3.806,-7.6245,1.6342,-0.3487,-1.4796,0.4292,0.0836,0.1943,-0.084,1373,2019-08-07 16:21:32:488
3.806,-7.6245,1.6342,-0.427,-1.2683,0.1413,0.0645,0.1996,-0.1011,1378,2019-08-07 16:21:32:493
3.7007,-7.9586,1.7992,-0.427,-1.2683,0.1413,0.0645,0.1996,-0.1011,1383,2019-08-07 16:21:32:498
3.7007,-7.9586,1.7992,-0.427,-1.2683,0.1413,0.0645,0.1996,-0.1011,1388,2019-08-07 16:21:32:503
3.7007,-7.9586,1.7992,-0.427,-1.2683,0.1413,0.0336,0.1442,-0.1213,1393,2019-08-07 16:21:32:508
3.6337,-8.3453,1.6672,-0.1685,-0.536,0.1887,0.0336,0.1442,-0.1213,1398,2019-08-07 16:21:32:513
3.6337,-8.3453,1.6672,-0.1685,-0.536,0.1887,0.0346,0.1165,-0.1277,1403,2019-08-07 16:21:32:518
3.6337,-8.3453,1.6672,-0.1685,-0.536,0.1887,0.0346,0.1165,-0.1277,1408,2019-08-07 16:21:32:523
3.7055,-8.9373,1.9736,-0.1685,-0.536,0.1887,0.0677,0.1272,-0.1479,1412,2019-08-07 16:21:32:527
3.7055,-8.9373,1.9736,-0.1557,0.0066,-0.0145,0.0677,0.1272,-0.1479,1418,2019-08-07 16:21:32:533
3.7055,-8.9373,1.9736,-0.1557,0.0066,-0.0145,0.0762,0.1112,-0.1831,1423,2019-08-07 16:21:32:538
3.5045,-8.8561,1.9312,-0.0364,-0.1,0.0678,0.0762,0.1112,-0.1831,1428,2019-08-07 16:21:32:543
3.5045,-8.8561,1.9312,-0.0364,-0.1,0.0678,0.0634,0.1304,-0.1937,1433,2019-08-07 16:21:32:548
3.5045,-8.8561,1.9312,-0.0364,-0.1,0.0678,0.0634,0.1304,-0.1937,1437,2019-08-07 16:21:32:552
3.5045,-8.8561,1.9312,-0.0364,-0.1,0.0678,0.0634,0.1304,-0.1937,1443,2019-08-07 16:21:32:558
3.5428,-9.0137,2.1244,0.0089,0.184,-0.1142,0.0581,0.1378,-0.2119,1448,2019-08-07 16:21:32:563
3.5428,-9.0137,2.1244,0.0089,0.184,-0.1142,0.0581,0.1378,-0.2119,1453,2019-08-07 16:21:32:568
3.5428,-9.0137,2.1244,0.0089,0.184,-0.1142,0.057,0.1304,-0.2523,1457,2019-08-07 16:21:32:572
3.5332,-9.2762,1.9642,0.0089,0.184,-0.1142,0.057,0.1304,-0.2523,1463,2019-08-07 16:21:32:578
3.5332,-9.2762,1.9642,0.0903,0.4759,-0.1974,0.1071,0.1538,-0.2641,1468,2019-08-07 16:21:32:583
3.5332,-9.2762,1.9642,0.0903,0.4759,-0.1974,0.1071,0.1538,-0.2641,1473,2019-08-07 16:21:32:588
3.227,-9.386,2.2894,0.3299,0.4784,-0.2307,0.1827,0.1677,-0.2694,1478,2019-08-07 16:21:32:593
3.227,-9.386,2.2894,0.3299,0.4784,-0.2307,0.1827,0.1677,-0.2694,1483,2019-08-07 16:21:32:598
3.227,-9.386,2.2894,0.3299,0.4784,-0.2307,0.2424,0.0718,-0.2459,1487,2019-08-07 16:21:32:602
3.1888,-9.2476,2.4497,0.3299,0.4784,-0.2307,0.2424,0.0718,-0.2459,1493,2019-08-07 16:21:32:608
3.1888,-9.2476,2.4497,0.3099,0.3,-0.2556,0.2583,0.0079,-0.2353,1497,2019-08-07 16:21:32:612
3.1888,-9.2476,2.4497,0.3099,0.3,-0.2556,0.2583,0.0079,-0.2353,1502,2019-08-07 16:21:32:617
3.5572,-9.1855,2.346,0.3099,0.3,-0.2556,0.2583,0.0079,-0.2353,1508,2019-08-07 16:21:32:623
3.5572,-9.1855,2.346,0.3099,0.3,-0.2556,0.2615,0.0196,-0.2332,1513,2019-08-07 16:21:32:628
3.5572,-9.1855,2.346,0.0148,0.3136,-0.136,0.2615,0.0196,-0.2332,1517,2019-08-07 16:21:32:632
3.5715,-9.176,2.3224,0.0148,0.3136,-0.136,0.252,0.0303,-0.1969,1523,2019-08-07 16:21:32:638
3.5715,-9.176,2.3224,0.0148,0.3136,-0.136,0.252,0.0303,-0.1969,1527,2019-08-07 16:21:32:642
3.6672,-9.2285,2.1339,0.0148,0.3136,-0.136,0.2456,0.0612,-0.1437,1533,2019-08-07 16:21:32:648
3.6672,-9.2285,2.1339,-0.0765,0.3848,0.0059,0.2456,0.0612,-0.1437,1538,2019-08-07 16:21:32:653
3.6672,-9.2285,2.1339,-0.0765,0.3848,0.0059,0.2456,0.0612,-0.1437,1543,2019-08-07 16:21:32:658
3.7055,-9.238,2.1622,-0.0765,0.3848,0.0059,0.2488,0.0942,-0.1053,1548,2019-08-07 16:21:32:663
3.7055,-9.238,2.1622,-0.0765,0.3848,0.0059,0.2488,0.0942,-0.1053,1553,2019-08-07 16:21:32:668
3.7055,-9.238,2.1622,-0.0765,0.3848,0.0059,0.2488,0.0942,-0.1053,1558,2019-08-07 16:21:32:673
3.7294,-9.0423,2.1244,-0.0564,0.2304,0.1328,0.2381,0.1464,-0.0542,1563,2019-08-07 16:21:32:678
3.7294,-9.0423,2.1244,-0.0564,0.2304,0.1328,0.2381,0.1464,-0.0542,1568,2019-08-07 16:21:32:683
3.7294,-9.0423,2.1244,-0.0564,0.2304,0.1328,0.2243,0.1634,-0.0254,1572,2019-08-07 16:21:32:687
3.6289,-8.689,2.2847,0.0107,-0.1334,-0.0234,0.2243,0.1634,-0.0254,1578,2019-08-07 16:21:32:693
3.6289,-8.689,2.2847,0.0107,-0.1334,-0.0234,0.2221,0.1869,-0.0265,1583,2019-08-07 16:21:32:698
3.6289,-8.689,2.2847,0.0107,-0.1334,-0.0234,0.2221,0.1869,-0.0265,1587,2019-08-07 16:21:32:702
3.6289,-8.689,2.2847,0.0107,-0.1334,-0.0234,0.2221,0.1869,-0.0265,1593,2019-08-07 16:21:32:708
3.5189,-8.4885,2.3931,0.1065,-0.3843,-0.1276,0.1955,0.1794,-0.018,1598,2019-08-07 16:21:32:713
3.5189,-8.4885,2.3931,0.1065,-0.3843,-0.1276,0.1955,0.1794,-0.018,1603,2019-08-07 16:21:32:718
3.6767,-8.4122,2.5063,0.1065,-0.3843,-0.1276,0.1369,0.1794,0.0044,1607,2019-08-07 16:21:32:722
3.6767,-8.4122,2.5063,-0.0314,-0.3232,-0.0932,0.1369,0.1794,0.0044,1613,2019-08-07 16:21:32:728
3.7246,-8.3501,2.3884,-0.0314,-0.3232,-0.0932,0.1039,0.2327,-0.0137,1618,2019-08-07 16:21:32:733
3.7246,-8.3501,2.3884,-0.0314,-0.3232,-0.0932,0.1039,0.2327,-0.0137,1623,2019-08-07 16:21:32:738
3.7246,-8.3501,2.3884,-0.0314,-0.3232,-0.0932,0.1039,0.2327,-0.0137,1628,2019-08-07 16:21:32:743
3.6672,-8.2737,2.214,-0.0535,-0.5649,0.1501,0.0655,0.2273,1.0E-4,1633,2019-08-07 16:21:32:748
3.6672,-8.2737,2.214,-0.0535,-0.5649,0.1501,0.0655,0.2273,1.0E-4,1638,2019-08-07 16:21:32:753
3.7342,-8.3405,2.2611,-0.0535,-0.5649,0.1501,0.0559,0.2359,0.0108,1642,2019-08-07 16:21:32:757
3.7342,-8.3405,2.2611,-0.0024,-0.3472,0.0688,0.0559,0.2359,0.0108,1647,2019-08-07 16:21:32:762
3.7342,-8.3405,2.2611,-0.0024,-0.3472,0.0688,0.0549,0.2209,0.0161,1653,2019-08-07 16:21:32:768
3.5428,-8.4169,2.5675,-0.0024,-0.3472,0.0688,0.0549,0.2209,0.0161,1657,2019-08-07 16:21:32:772
3.5428,-8.4169,2.5675,0.0962,-0.3174,-0.1577,0.0634,0.1655,0.0182,1664,2019-08-07 16:21:32:779
3.5763,-8.4265,2.5958,0.0962,-0.3174,-0.1577,0.0634,0.1655,0.0182,1668,2019-08-07 16:21:32:783
3.5763,-8.4265,2.5958,0.0962,-0.3174,-0.1577,0.0634,0.1655,0.0182,1673,2019-08-07 16:21:32:788
3.5763,-8.4265,2.5958,-0.1176,-0.3386,-0.023,0.0517,0.0888,0.0118,1678,2019-08-07 16:21:32:793
3.8155,-8.4122,2.4921,-0.1176,-0.3386,-0.023,0.0517,0.0888,0.0118,1683,2019-08-07 16:21:32:798
3.8155,-8.4122,2.4921,-0.1176,-0.3386,-0.023,0.0059,0.0899,-0.0127,1688,2019-08-07 16:21:32:803
3.959,-8.5363,2.4497,-0.1176,-0.3386,-0.023,0.0059,0.0899,-0.0127,1693,2019-08-07 16:21:32:808
3.959,-8.5363,2.4497,-0.4623,-0.2024,0.0946,-0.0154,0.1709,-0.0201,1698,2019-08-07 16:21:32:813
3.959,-8.5363,2.4497,-0.4623,-0.2024,0.0946,-0.0154,0.1709,-0.0201,1703,2019-08-07 16:21:32:818
3.959,-8.5363,2.4497,-0.4623,-0.2024,0.0946,-0.0154,0.1709,-0.0201,1707,2019-08-07 16:21:32:822
4.1265,-8.5745,2.3366,-0.4829,-0.1537,0.1141,-0.0261,0.2486,-0.0222,1714,2019-08-07 16:21:32:829
4.1265,-8.5745,2.3366,-0.4829,-0.1537,0.1141,-0.0261,0.2486,-0.0222,1717,2019-08-07 16:21:32:832
4.1265,-8.5745,2.3366,-0.4829,-0.1537,0.1141,-0.0271,0.4532,-0.018,1723,2019-08-07 16:21:32:838
4.1312,-8.5936,2.2941,-0.4829,-0.1537,0.1141,-0.0271,0.4532,-0.018,1727,2019-08-07 16:21:32:842
4.1312,-8.5936,2.2941,-0.4383,-0.1812,0.2264,-0.0282,0.5661,-0.0308,1733,2019-08-07 16:21:32:848
4.1312,-8.5936,2.2941,-0.4383,-0.1812,0.2264,-0.0282,0.5661,-0.0308,1737,2019-08-07 16:21:32:852
3.9686,-8.5888,2.3366,-0.4383,-0.1812,0.2264,-0.0282,0.5661,-0.0308,1743,2019-08-07 16:21:32:858
3.9686,-8.5888,2.3366,-0.4383,-0.1812,0.2264,-0.0154,0.6407,-0.0372,1747,2019-08-07 16:21:32:862
3.8155,-8.6031,2.676,-0.2552,-0.1454,-0.0822,-0.0154,0.6407,-0.0372,1753,2019-08-07 16:21:32:868
3.8155,-8.6031,2.676,-0.2552,-0.1454,-0.0822,0.0197,0.6801,-0.0499,1757,2019-08-07 16:21:32:872
3.8155,-8.6031,2.676,-0.234,-0.0949,-0.1969,0.0197,0.6801,-0.0499,1763,2019-08-07 16:21:32:878
3.8059,-8.5363,2.6477,-0.234,-0.0949,-0.1969,0.0442,0.6822,-0.0627,1768,2019-08-07 16:21:32:883
3.8059,-8.5363,2.6477,-0.234,-0.0949,-0.1969,0.0442,0.6822,-0.0627,1773,2019-08-07 16:21:32:888
3.7868,-8.5076,2.7325,-0.234,-0.0949,-0.1969,0.0421,0.663,-0.0649,1778,2019-08-07 16:21:32:893
3.7868,-8.5076,2.7325,-0.156,-0.2255,-0.1068,0.0421,0.663,-0.0649,1783,2019-08-07 16:21:32:898
3.7868,-8.5076,2.7325,-0.156,-0.2255,-0.1068,0.0261,0.613,-0.0425,1787,2019-08-07 16:21:32:902
3.6193,-8.584,2.8975,-0.156,-0.2255,-0.1068,0.0261,0.613,-0.0425,1793,2019-08-07 16:21:32:908
3.6193,-8.584,2.8975,-0.156,-0.2255,-0.1068,0.0261,0.5501,-0.0244,1797,2019-08-07 16:21:32:912
3.3323,-8.7272,2.9494,0.1921,-0.0341,-0.2404,0.0261,0.5501,-0.0244,1803,2019-08-07 16:21:32:918
3.3323,-8.7272,2.9494,0.1921,-0.0341,-0.2404,0.0261,0.5501,-0.0244,1807,2019-08-07 16:21:32:922
3.3323,-8.7272,2.9494,0.1921,-0.0341,-0.2404,0.0144,0.4159,-0.0063,1814,2019-08-07 16:21:32:929
2.9878,-8.88,3.1473,0.1921,-0.0341,-0.2404,0.0144,0.4159,-0.0063,1818,2019-08-07 16:21:32:933
2.9878,-8.88,3.1473,0.6316,0.1432,-0.4558,0.0197,0.1975,0.0214,1823,2019-08-07 16:21:32:938
2.9878,-8.88,3.1473,0.6316,0.1432,-0.4558,0.0197,0.1975,0.0214,1828,2019-08-07 16:21:32:943
2.8873,-9.0137,3.2793,0.6316,0.1432,-0.4558,0.0229,0.0153,0.0363,1833,2019-08-07 16:21:32:948
2.8873,-9.0137,3.2793,0.6316,0.1432,-0.4558,0.0229,0.0153,0.0363,1838,2019-08-07 16:21:32:953
2.8873,-9.0137,3.2793,0.6316,0.1432,-0.4558,0.0229,0.0153,0.0363,1843,2019-08-07 16:21:32:958
3.0595,-8.9707,3.3689,0.4366,0.2226,-0.6331,0.0272,-0.1221,0.0342,1848,2019-08-07 16:21:32:963
3.0595,-8.9707,3.3689,0.4366,0.2226,-0.6331,0.0272,-0.1221,0.0342,1853,2019-08-07 16:21:32:968
3.0595,-8.9707,3.3689,0.4366,0.2226,-0.6331,0.0282,-0.2169,0.0161,1858,2019-08-07 16:21:32:973
3.5475,-8.5649,2.9776,-0.1276,-0.24,-0.1951,0.0282,-0.2169,0.0161,1863,2019-08-07 16:21:32:978
3.5475,-8.5649,2.9776,-0.1276,-0.24,-0.1951,0.0133,-0.1796,0.0023,1868,2019-08-07 16:21:32:983
3.5475,-8.5649,2.9776,-0.1276,-0.24,-0.1951,0.0133,-0.1796,0.0023,1873,2019-08-07 16:21:32:988
3.5475,-8.5649,2.9776,-0.1276,-0.24,-0.1951,0.0133,-0.1796,0.0023,1877,2019-08-07 16:21:32:992
3.8107,-8.2307,2.7891,-0.3794,-0.6056,-0.1187,-0.0069,-0.1157,-0.0063,1884,2019-08-07 16:21:32:999
3.8107,-8.2307,2.7891,-0.3794,-0.6056,-0.1187,-0.0442,-0.0017,-0.0073,1888,2019-08-07 16:21:33:003
3.9303,-8.1114,2.9635,-0.4137,-0.6337,-0.2443,-0.0442,-0.0017,-0.0073,1893,2019-08-07 16:21:33:008
3.9303,-8.1114,2.9635,-0.4137,-0.6337,-0.2443,-0.0442,-0.0017,-0.0073,1898,2019-08-07 16:21:33:013
3.9303,-8.1114,2.9635,-0.4137,-0.6337,-0.2443,-0.0612,0.0739,-0.0063,1903,2019-08-07 16:21:33:018
3.9303,-8.1114,2.9635,-0.4137,-0.6337,-0.2443,-0.0612,0.0739,-0.0063,1908,2019-08-07 16:21:33:023
3.8442,-8.0875,2.7467,-0.2543,-0.5868,0.0857,-0.0804,0.1048,-0.0041,1913,2019-08-07 16:21:33:028
3.8442,-8.0875,2.7467,-0.2543,-0.5868,0.0857,-0.0804,0.1048,-0.0041,1917,2019-08-07 16:21:33:032
3.8442,-8.0875,2.7467,-0.2543,-0.5868,0.0857,-0.1134,0.0888,0.0161,1923,2019-08-07 16:21:33:038
3.5619,-8.331,2.8032,-0.2543,-0.5868,0.0857,-0.1134,0.0888,0.0161,1927,2019-08-07 16:21:33:042
3.5619,-8.331,2.8032,0.099,-0.2439,-0.3167,-0.0879,0.0356,0.014,1933,2019-08-07 16:21:33:048
3.5619,-8.331,2.8032,0.099,-0.2439,-0.3167,-0.0879,0.0356,0.014,1937,2019-08-07 16:21:33:052
3.3179,-8.6127,2.8598,0.099,-0.2439,-0.3167,-0.0879,0.0356,0.014,1943,2019-08-07 16:21:33:058
3.3179,-8.6127,2.8598,0.099,-0.2439,-0.3167,-0.057,-0.0571,0.0172,1948,2019-08-07 16:21:33:063
3.2557,-8.5745,2.8032,0.2556,-0.1814,-0.1122,-0.057,-0.0571,0.0172,1953,2019-08-07 16:21:33:068
3.2557,-8.5745,2.8032,0.2556,-0.1814,-0.1122,-0.0325,-0.1594,0.0012,1958,2019-08-07 16:21:33:073
3.2557,-8.5745,2.8032,0.2556,-0.1814,-0.1122,-0.0325,-0.1594,0.0012,1962,2019-08-07 16:21:33:077
3.4231,-8.5601,2.6807,0.2556,-0.1814,-0.1122,-0.0293,-0.1881,-0.0265,1968,2019-08-07 16:21:33:083
3.4231,-8.5601,2.6807,-0.0338,-0.2106,0.0871,-0.0293,-0.1881,-0.0265,1973,2019-08-07 16:21:33:088
3.6336,-8.5601,2.5251,-0.0338,-0.2106,0.0871,-0.0357,-0.1498,-0.0606,1977,2019-08-07 16:21:33:092
3.6336,-8.5601,2.5251,-0.0338,-0.2106,0.0871,-0.0357,-0.1498,-0.0606,1983,2019-08-07 16:21:33:098
3.6336,-8.5601,2.5251,-0.0338,-0.2106,0.0871,-0.0495,-0.0166,-0.0968,1987,2019-08-07 16:21:33:102
3.6336,-8.5601,2.5251,-0.0338,-0.2106,0.0871,-0.0495,-0.0166,-0.0968,1993,2019-08-07 16:21:33:108
3.8346,-8.5697,2.3177,-0.2474,-0.1591,0.2888,-0.0495,-0.0166,-0.0968,1998,2019-08-07 16:21:33:113
3.8346,-8.5697,2.3177,-0.2474,-0.1591,0.2888,-0.0538,0.0984,-0.1171,2003,2019-08-07 16:21:33:118
3.8346,-8.5697,2.3177,-0.2474,-0.1591,0.2888,-0.0538,0.0984,-0.1171,2008,2019-08-07 16:21:33:123
3.5714,-8.6508,2.511,0.0457,-0.115,0.0093,-0.0538,0.1794,-0.1234,2012,2019-08-07 16:21:33:127
3.5714,-8.6508,2.511,0.0457,-0.115,0.0093,-0.0538,0.1794,-0.1234,2018,2019-08-07 16:21:33:133
3.5714,-8.6508,2.511,0.0457,-0.115,0.0093,-0.0612,0.1634,-0.1213,2023,2019-08-07 16:21:33:138
3.3801,-8.7368,2.7184,0.1853,-0.0072,-0.0598,-0.0612,0.1634,-0.1213,2028,2019-08-07 16:21:33:143
3.3801,-8.7368,2.7184,0.1853,-0.0072,-0.0598,-0.0719,0.0846,-0.1171,2033,2019-08-07 16:21:33:148
3.3896,-8.8609,2.8975,0.1853,-0.0072,-0.0598,-0.0719,0.0846,-0.1171,2038,2019-08-07 16:21:33:153
3.3896,-8.8609,2.8975,0.1853,-0.0072,-0.0598,-0.0612,0.0164,-0.1117,2043,2019-08-07 16:21:33:158
3.3896,-8.8609,2.8975,0.1661,0.131,-0.2811,-0.0612,0.0164,-0.1117,2048,2019-08-07 16:21:33:163
3.5619,-8.8179,2.7702,0.1661,0.131,-0.2811,-0.0612,0.0164,-0.1117,2053,2019-08-07 16:21:33:168
3.5619,-8.8179,2.7702,0.1661,0.131,-0.2811,-0.0314,-0.1189,-0.0691,2058,2019-08-07 16:21:33:173
3.5619,-8.8179,2.7702,-0.2205,0.0634,0.0926,-0.0314,-0.1189,-0.0691,2063,2019-08-07 16:21:33:178
3.8339,-8.8083,2.5627,-0.2205,0.0634,0.0926,-0.0261,-0.1476,-0.0563,2068,2019-08-07 16:21:33:183
3.8339,-8.8083,2.5627,-0.2205,0.0634,0.0926,-0.0261,-0.1476,-0.0563,2073,2019-08-07 16:21:33:188
3.8339,-8.8083,2.5627,-0.2537,0.0076,0.0985,-0.0218,-0.1519,-0.0478,2077,2019-08-07 16:21:33:192
3.8817,-8.7653,2.5061,-0.2537,0.0076,0.0985,-0.0218,-0.1519,-0.0478,2083,2019-08-07 16:21:33:198
3.8817,-8.7653,2.5061,-0.2537,0.0076,0.0985,-0.0165,-0.1061,-0.0318,2087,2019-08-07 16:21:33:202
3.8817,-8.7653,2.5061,-0.2537,0.0076,0.0985,-0.0165,-0.1061,-0.0318,2093,2019-08-07 16:21:33:208
3.8769,-8.7988,2.5155,-0.2385,0.0194,0.0331,-0.0144,-0.0954,-0.0254,2098,2019-08-07 16:21:33:213
3.8769,-8.7988,2.5155,-0.2385,0.0194,0.0331,-0.0144,-0.0954,-0.0254,2103,2019-08-07 16:21:33:218
3.8769,-8.7988,2.5155,-0.2385,0.0194,0.0331,-0.0144,-0.0954,-0.0254,2108,2019-08-07 16:21:33:223
3.8147,-8.8179,2.5721,-0.2385,0.0194,0.0331,-0.0048,-0.072,-0.0105,2113,2019-08-07 16:21:33:228
3.8147,-8.8179,2.5721,-0.2398,0.0491,-0.0549,-0.0048,-0.072,-0.0105,2118,2019-08-07 16:21:33:233
3.8147,-8.8179,2.5721,-0.2398,0.0491,-0.0549,-0.0048,-0.072,-0.0105,2123,2019-08-07 16:21:33:238
3.8386,-8.794,2.5627,-0.2038,0.0637,0.0463,0.0016,-0.0592,0.0044,2128,2019-08-07 16:21:33:243
3.8386,-8.794,2.5627,-0.2038,0.0637,0.0463,0.0016,-0.0592,0.0044,2133,2019-08-07 16:21:33:248
3.8386,-8.794,2.5627,-0.2038,0.0637,0.0463,6.0E-4,-0.088,0.015,2138,2019-08-07 16:21:33:253
3.7477,-8.7415,2.6145,-0.2038,0.0637,0.0463,6.0E-4,-0.088,0.015,2143,2019-08-07 16:21:33:258
3.7477,-8.7415,2.6145,-0.1627,0.0155,-0.1479,6.0E-4,-0.1136,0.0321,2148,2019-08-07 16:21:33:263
3.7477,-8.7415,2.6145,-0.1627,0.0155,-0.1479,6.0E-4,-0.1136,0.0321,2153,2019-08-07 16:21:33:268
3.7477,-8.7415,2.6145,-0.1627,0.0155,-0.1479,6.0E-4,-0.1136,0.0321,2157,2019-08-07 16:21:33:272
3.8147,-8.7415,2.8361,-0.1627,0.0155,-0.1479,0.0229,-0.1519,0.0555,2163,2019-08-07 16:21:33:278
3.8147,-8.7415,2.8361,-0.2153,-0.0246,-0.1778,0.0229,-0.1519,0.0555,2167,2019-08-07 16:21:33:282
3.8147,-8.7415,2.8361,-0.2153,-0.0246,-0.1778,0.0325,-0.1412,0.0683,2173,2019-08-07 16:21:33:288
3.8673,-8.6173,2.8455,-0.2153,-0.0246,-0.1778,0.0325,-0.1412,0.0683,2177,2019-08-07 16:21:33:292
3.8673,-8.6173,2.8455,-0.2153,-0.0246,-0.1778,0.0304,-0.1167,0.0736,2183,2019-08-07 16:21:33:298
3.8673,-8.6173,2.8455,-0.1761,-0.2752,-0.265,0.0304,-0.1167,0.0736,2188,2019-08-07 16:21:33:303
3.8673,-8.6173,2.8455,-0.1761,-0.2752,-0.265,0.0304,-0.1167,0.0736,2193,2019-08-07 16:21:33:308
3.8338,-8.5028,2.8973,-0.1761,-0.2752,-0.265,0.0293,-0.0837,0.079,2198,2019-08-07 16:21:33:313
3.8338,-8.5028,2.8973,-0.1761,-0.2752,-0.265,0.0144,-0.0155,0.0726,2203,2019-08-07 16:21:33:318
3.8338,-8.5028,2.8973,-0.1761,-0.2752,-0.265,0.0144,-0.0155,0.0726,2208,2019-08-07 16:21:33:323
3.6663,-8.393,2.8549,-0.0413,-0.3448,-0.2576,0.0144,-0.0155,0.0726,2213,2019-08-07 16:21:33:328
3.6663,-8.393,2.8549,-0.0413,-0.3448,-0.2576,-0.009,0.0111,0.0672,2218,2019-08-07 16:21:33:333
3.6663,-8.393,2.8549,-0.0413,-0.3448,-0.2576,-0.009,0.0111,0.0672,2223,2019-08-07 16:21:33:338
3.4367,-8.4885,2.8643,0.1952,-0.2349,-0.2798,-0.0293,0.0153,0.0576,2228,2019-08-07 16:21:33:343
3.4367,-8.4885,2.8643,0.1952,-0.2349,-0.2798,-0.0293,0.0153,0.0576,2232,2019-08-07 16:21:33:347
3.4367,-8.4885,2.8643,0.1952,-0.2349,-0.2798,-0.0474,-0.0283,0.0449,2237,2019-08-07 16:21:33:352
3.3936,-8.6603,2.8455,0.1952,-0.2349,-0.2798,-0.0474,-0.0283,0.0449,2243,2019-08-07 16:21:33:358
3.3936,-8.6603,2.8455,0.1965,-0.0401,-0.2403,-0.0506,-0.0805,0.0321,2248,2019-08-07 16:21:33:363
3.4558,-8.7558,2.8219,0.1965,-0.0401,-0.2403,-0.0506,-0.0805,0.0321,2253,2019-08-07 16:21:33:368
3.4558,-8.7558,2.8219,0.1965,-0.0401,-0.2403,-0.0506,-0.0805,0.0321,2257,2019-08-07 16:21:33:372
3.4845,-8.6651,2.7041,0.1626,-0.0424,-0.2191,-0.0474,-0.1338,0.0193,2264,2019-08-07 16:21:33:379
3.4845,-8.6651,2.7041,0.1626,-0.0424,-0.2191,-0.0474,-0.1338,0.0193,2267,2019-08-07 16:21:33:382
3.4845,-8.6651,2.7041,0.1626,-0.0424,-0.2191,-0.0367,-0.1934,0.0076,2273,2019-08-07 16:21:33:388
3.6854,-8.646,2.5815,-0.1267,-0.1262,0.0539,-0.0367,-0.1934,0.0076,2277,2019-08-07 16:21:33:392
3.6854,-8.646,2.5815,-0.1267,-0.1262,0.0539,-0.0367,-0.2052,0.0065,2283,2019-08-07 16:21:33:398
3.6854,-8.646,2.5815,-0.1267,-0.1262,0.0539,-0.0367,-0.2052,0.0065,2288,2019-08-07 16:21:33:403
3.9581,-8.603,2.4872,-0.1267,-0.1262,0.0539,-0.0335,-0.1881,-0.0073,2293,2019-08-07 16:21:33:408
3.9581,-8.603,2.4872,-0.3719,-0.208,0.2121,-0.0335,-0.1881,-0.0073,2298,2019-08-07 16:21:33:413
3.9581,-8.603,2.4872,-0.3719,-0.208,0.2121,-0.0335,-0.1881,-0.0073,2302,2019-08-07 16:21:33:417
4.0825,-8.5219,2.3552,-0.3719,-0.208,0.2121,-0.0314,-0.105,-0.0212,2308,2019-08-07 16:21:33:423
4.0825,-8.5219,2.3552,-0.4032,-0.2123,0.1898,-0.0314,-0.105,-0.0212,2313,2019-08-07 16:21:33:428
4.0155,-8.4789,2.3081,-0.4032,-0.2123,0.1898,-0.025,-0.0603,-0.0286,2318,2019-08-07 16:21:33:433
4.0155,-8.4789,2.3081,-0.4032,-0.2123,0.1898,-0.025,-0.0603,-0.0286,2323,2019-08-07 16:21:33:438
4.0155,-8.4789,2.3081,-0.2245,-0.2771,0.1713,-0.0144,-0.0198,-0.034,2328,2019-08-07 16:21:33:443
3.8193,-8.498,2.3788,-0.2245,-0.2771,0.1713,-0.0144,-0.0198,-0.034,2332,2019-08-07 16:21:33:447
3.8193,-8.498,2.3788,-0.2245,-0.2771,0.1713,-0.0037,-0.0166,-0.034,2338,2019-08-07 16:21:33:453
3.8193,-8.498,2.3788,-0.2245,-0.2771,0.1713,-0.0037,-0.0166,-0.034,2342,2019-08-07 16:21:33:457
3.6758,-8.498,2.6475,0.0659,-0.1452,-0.212,0.0069,-0.0624,-0.035,2348,2019-08-07 16:21:33:463
3.6758,-8.498,2.6475,0.0659,-0.1452,-0.212,0.0069,-0.0624,-0.035,2352,2019-08-07 16:21:33:467
3.5514,-8.6173,2.6946,0.0659,-0.1452,-0.212,0.0069,-0.0624,-0.035,2358,2019-08-07 16:21:33:473
3.5514,-8.6173,2.6946,0.0566,-0.1149,-0.1617,0.008,-0.1295,-0.0308,2363,2019-08-07 16:21:33:478
3.738,-8.6126,2.6852,0.0566,-0.1149,-0.1617,0.008,-0.1295,-0.0308,2367,2019-08-07 16:21:33:482
3.738,-8.6126,2.6852,0.0566,-0.1149,-0.1617,0.008,-0.1295,-0.0308,2373,2019-08-07 16:21:33:488
3.738,-8.6126,2.6852,0.0566,-0.1149,-0.1617,0.0123,-0.1956,-0.0329,2377,2019-08-07 16:21:33:492
3.915,-8.5648,2.6899,-0.2055,-0.1829,-0.2138,0.0123,-0.1956,-0.0329,2384,2019-08-07 16:21:33:499
3.915,-8.5648,2.6899,-0.2055,-0.1829,-0.2138,0.0123,-0.1956,-0.0329,2387,2019-08-07 16:21:33:502
3.915,-8.5648,2.6899,-0.2055,-0.1829,-0.2138,0.0123,-0.1839,-0.0191,2393,2019-08-07 16:21:33:508
4.1111,-8.498,2.5485,-0.4428,-0.2412,-0.0547,0.0069,-0.1253,-0.0116,2399,2019-08-07 16:21:33:514
4.1111,-8.498,2.5485,-0.4428,-0.2412,-0.0547,0.0069,-0.1253,-0.0116,2403,2019-08-07 16:21:33:518
4.1111,-8.498,2.5485,-0.4428,-0.2412,-0.0547,0.0069,-0.1253,-0.0116,2408,2019-08-07 16:21:33:523
4.1494,-8.4693,2.6098,-0.4428,-0.2412,-0.0547,0.0038,-0.0816,-0.0063,2413,2019-08-07 16:21:33:528
4.1494,-8.4693,2.6098,-0.3724,-0.2773,-0.0029,0.0038,-0.0816,-0.0063,2418,2019-08-07 16:21:33:533
4.0633,-8.4789,2.4165,-0.3724,-0.2773,-0.0029,-0.0048,-0.0081,0.0118,2422,2019-08-07 16:21:33:537
4.0633,-8.4789,2.4165,-0.3724,-0.2773,-0.0029,-0.0048,-0.0081,0.0118,2428,2019-08-07 16:21:33:543
3.8575,-8.5839,2.6522,-0.2909,-0.2105,-0.0647,-0.0144,0.0196,0.0182,2434,2019-08-07 16:21:33:549
3.8575,-8.5839,2.6522,-0.2909,-0.2105,-0.0647,-0.0144,0.0196,0.0182,2437,2019-08-07 16:21:33:552
3.8575,-8.5839,2.6522,-0.2909,-0.2105,-0.0647,-0.0144,0.0196,0.0182,2442,2019-08-07 16:21:33:557
3.6949,-8.6126,2.5343,-0.0722,-0.1729,-0.1353,-0.0176,0.0164,0.0225,2448,2019-08-07 16:21:33:563
3.6949,-8.6126,2.5343,-0.0722,-0.1729,-0.1353,-0.0271,0.0015,0.0236,2453,2019-08-07 16:21:33:568
3.6949,-8.6126,2.5343,-0.0722,-0.1729,-0.1353,-0.0271,0.0015,0.0236,2458,2019-08-07 16:21:33:573
3.5848,-8.7224,2.671,0.2197,-0.0133,-0.1945,-0.0271,0.0015,0.0236,2462,2019-08-07 16:21:33:577
3.5848,-8.7224,2.671,0.2197,-0.0133,-0.1945,-0.041,-0.0187,0.0076,2468,2019-08-07 16:21:33:583
3.4078,-8.7892,2.6522,0.2197,-0.0133,-0.1945,-0.041,-0.0187,0.0076,2473,2019-08-07 16:21:33:588
3.4078,-8.7892,2.6522,0.2197,-0.0133,-0.1945,-0.0442,-0.0496,-0.0084,2478,2019-08-07 16:21:33:593
3.4078,-8.7892,2.6522,0.2669,-0.0064,-0.1603,-0.0442,-0.0496,-0.0084,2483,2019-08-07 16:21:33:598
3.3264,-8.7749,2.5815,0.2669,-0.0064,-0.1603,-0.0474,-0.0837,-0.0297,2488,2019-08-07 16:21:33:603
3.3264,-8.7749,2.5815,0.2219,-0.0117,-0.0815,-0.0474,-0.0837,-0.0297,2493,2019-08-07 16:21:33:608
3.513,-8.7271,2.5767,0.2219,-0.0117,-0.0815,-0.0431,-0.088,-0.0531,2499,2019-08-07 16:21:33:614
3.513,-8.7271,2.5767,0.2219,-0.0117,-0.0815,-0.0431,-0.088,-0.0531,2503,2019-08-07 16:21:33:618
3.513,-8.7271,2.5767,0.2219,-0.0117,-0.0815,-0.0431,-0.088,-0.0531,2508,2019-08-07 16:21:33:623
3.647,-8.646,2.4872,0.0675,-0.1198,-0.0149,-0.0421,-0.0848,-0.0691,2513,2019-08-07 16:21:33:628
3.647,-8.646,2.4872,0.0675,-0.1198,-0.0149,-0.0421,-0.0848,-0.0691,2517,2019-08-07 16:21:33:632
3.647,-8.646,2.4872,0.0675,-0.1198,-0.0149,-0.0484,-0.0741,-0.0776,2523,2019-08-07 16:21:33:638
3.7283,-8.5266,2.3929,0.0675,-0.1198,-0.0149,-0.0484,-0.0741,-0.0776,2528,2019-08-07 16:21:33:643
3.7283,-8.5266,2.3929,-0.0725,-0.2308,-0.0338,-0.0484,-0.0763,-0.0755,2532,2019-08-07 16:21:33:647
3.8431,-8.4837,2.5013,-0.0725,-0.2308,-0.0338,-0.0484,-0.0763,-0.0755,2538,2019-08-07 16:21:33:653
3.8431,-8.4837,2.5013,-0.159,-0.2528,-0.0174,-0.0484,-0.1125,-0.0606,2543,2019-08-07 16:21:33:658
3.8431,-8.4837,2.5013,-0.159,-0.2528,-0.0174,-0.0484,-0.1125,-0.0606,2548,2019-08-07 16:21:33:663
4.0727,-8.5266,2.3175,-0.159,-0.2528,-0.0174,-0.057,-0.1306,-0.0489,2553,2019-08-07 16:21:33:668
4.0727,-8.5266,2.3175,-0.159,-0.2528,-0.0174,-0.057,-0.1306,-0.0489,2557,2019-08-07 16:21:33:672
4.1588,-8.5887,2.3175,-0.4275,-0.1741,0.0709,-0.0516,-0.1029,-0.0436,2563,2019-08-07 16:21:33:678
4.1588,-8.5887,2.3175,-0.4275,-0.1741,0.0709,-0.0516,-0.1029,-0.0436,2568,2019-08-07 16:21:33:683
4.1588,-8.5887,2.3175,-0.4275,-0.1741,0.0709,-0.0516,-0.1029,-0.0436,2573,2019-08-07 16:21:33:688
4.1397,-8.6603,2.1713,-0.4275,-0.1741,0.0709,-0.0367,-0.0614,-0.0308,2578,2019-08-07 16:21:33:693
4.1397,-8.6603,2.1713,-0.2995,0.0232,0.1832,-0.0367,-0.0614,-0.0308,2583,2019-08-07 16:21:33:698
3.8765,-8.7128,2.3929,-0.2995,0.0232,0.1832,-0.0271,-0.007,-0.0308,2588,2019-08-07 16:21:33:703
3.8765,-8.7128,2.3929,-0.0997,0.0382,0.1188,-0.0271,-0.007,-0.0308,2593,2019-08-07 16:21:33:708
3.8765,-8.7128,2.3929,-0.0997,0.0382,0.1188,-0.0271,-0.007,-0.0308,2598,2019-08-07 16:21:33:713
3.7761,-8.8035,2.2939,-0.0997,0.0382,0.1188,-0.0154,0.0345,-0.0276,2603,2019-08-07 16:21:33:718
3.7761,-8.8035,2.2939,-0.0997,0.0382,0.1188,-0.0154,0.0345,-0.0276,2608,2019-08-07 16:21:33:723
3.5847,-8.7701,2.407,0.1859,0.0398,0.0014,-0.0037,0.0462,-0.0318,2614,2019-08-07 16:21:33:729
3.5847,-8.7701,2.407,0.1859,0.0398,0.0014,-0.0037,0.0462,-0.0318,2618,2019-08-07 16:21:33:733
3.5847,-8.7701,2.407,0.1859,0.0398,0.0014,-0.0026,-0.007,-0.0542,2623,2019-08-07 16:21:33:738
3.489,-8.6841,2.473,0.1859,0.0398,0.0014,-0.0026,-0.007,-0.0542,2628,2019-08-07 16:21:33:743
3.489,-8.6841,2.473,0.3319,-0.0095,-0.0926,-0.0069,-0.0635,-0.0574,2632,2019-08-07 16:21:33:747
3.489,-8.6841,2.473,0.3319,-0.0095,-0.0926,-0.0069,-0.0635,-0.0574,2638,2019-08-07 16:21:33:753
3.489,-8.6841,2.473,0.3319,-0.0095,-0.0926,-0.0069,-0.0635,-0.0574,2642,2019-08-07 16:21:33:757
3.5655,-8.708,2.44,0.3319,-0.0095,-0.0926,-0.0133,-0.0986,-0.0627,2648,2019-08-07 16:21:33:763
3.5655,-8.708,2.44,0.0888,0.0133,0.0619,-0.0133,-0.0986,-0.0627,2653,2019-08-07 16:21:33:768
3.5655,-8.708,2.44,0.0888,0.0133,0.0619,-0.0208,-0.1924,-0.0595,2657,2019-08-07 16:21:33:772
3.7425,-8.751,2.341,0.0888,0.0133,0.0619,-0.0208,-0.1924,-0.0595,2664,2019-08-07 16:21:33:779
3.7425,-8.751,2.341,0.0888,0.0133,0.0619,-0.0144,-0.2041,-0.0574,2667,2019-08-07 16:21:33:782
3.7425,-8.751,2.341,0.0888,0.0133,0.0619,-0.0144,-0.2041,-0.0574,2673,2019-08-07 16:21:33:788
3.886,-8.856,2.3269,-0.0733,0.136,0.0525,-0.0069,-0.2062,-0.0457,2678,2019-08-07 16:21:33:793
3.886,-8.856,2.3269,-0.0733,0.136,0.0525,-0.0069,-0.2062,-0.0457,2683,2019-08-07 16:21:33:798
3.886,-8.856,2.3269,-0.0733,0.136,0.0525,0.0048,-0.1977,-0.035,2687,2019-08-07 16:21:33:802
4.0248,-8.7844,2.2845,-0.185,0.0629,0.0457,0.0048,-0.1977,-0.035,2693,2019-08-07 16:21:33:808
4.0248,-8.7844,2.2845,-0.185,0.0629,0.0457,0.0144,-0.1849,-0.0276,2698,2019-08-07 16:21:33:813
4.0248,-8.7844,2.2845,-0.185,0.0629,0.0457,0.0144,-0.1849,-0.0276,2703,2019-08-07 16:21:33:818
4.1779,-8.6841,2.2562,-0.185,0.0629,0.0457,0.0144,-0.1849,-0.0276,2708,2019-08-07 16:21:33:823
4.1779,-8.6841,2.2562,-0.3526,-0.0057,0.1847,0.0101,-0.1285,-0.0159,2713,2019-08-07 16:21:33:828
4.1539,-8.665,2.1949,-0.3526,-0.0057,0.1847,0.0101,-0.1285,-0.0159,2718,2019-08-07 16:21:33:833
4.1539,-8.665,2.1949,-0.3526,-0.0057,0.1847,-5.0E-4,-0.0369,-0.0052,2722,2019-08-07 16:21:33:837
4.1539,-8.665,2.1949,-0.2963,-0.0764,0.1018,-5.0E-4,-0.0369,-0.0052,2728,2019-08-07 16:21:33:843
4.0535,-8.5982,2.341,-0.2963,-0.0764,0.1018,-0.0037,0.0015,0.0033,2733,2019-08-07 16:21:33:848
4.0535,-8.5982,2.341,-0.2963,-0.0764,0.1018,-0.0037,0.0015,0.0033,2738,2019-08-07 16:21:33:853
3.9147,-8.6889,2.3363,-0.0618,-0.0193,0.0353,-0.0016,0.0249,0.0172,2743,2019-08-07 16:21:33:858
3.9147,-8.6889,2.3363,-0.0618,-0.0193,0.0353,-0.0016,0.0249,0.0172,2748,2019-08-07 16:21:33:863
3.9147,-8.6889,2.3363,-0.0618,-0.0193,0.0353,-0.0239,0.0239,0.0236,2753,2019-08-07 16:21:33:868
3.9147,-8.6889,2.3363,-0.0618,-0.0193,0.0353,-0.0239,0.0239,0.0236,2758,2019-08-07 16:21:33:873
3.8573,-8.7223,2.3316,-0.0618,-0.0193,0.0353,-0.0239,0.0239,0.0236,2762,2019-08-07 16:21:33:877
3.8573,-8.7223,2.3316,0.0238,-0.0317,0.0284,-0.0378,-0.0124,0.0268,2768,2019-08-07 16:21:33:883
3.7903,-8.6937,2.4023,0.0238,-0.0317,0.0284,-0.0378,-0.0124,0.0268,2772,2019-08-07 16:21:33:887
3.7903,-8.6937,2.4023,0.0505,-0.0338,-0.0468,-0.0367,-0.0656,0.0331,2778,2019-08-07 16:21:33:893
3.7903,-8.6937,2.4023,0.0505,-0.0338,-0.0468,-0.0367,-0.0656,0.0331,2783,2019-08-07 16:21:33:898
3.7903,-8.7319,2.3551,0.0505,-0.0338,-0.0468,-0.0207,-0.1157,0.0427,2788,2019-08-07 16:21:33:903
3.7903,-8.7319,2.3551,0.0505,-0.0338,-0.0468,-0.0207,-0.1157,0.0427,2793,2019-08-07 16:21:33:908
4.0486,-8.7319,2.209,-0.114,-0.0045,0.0776,-0.0207,-0.1157,0.0427,2798,2019-08-07 16:21:33:913
4.0486,-8.7319,2.209,-0.114,-0.0045,0.0776,-0.0154,-0.1061,0.0331,2802,2019-08-07 16:21:33:917
4.0486,-8.7319,2.209,-0.114,-0.0045,0.0776,-0.0154,-0.1061,0.0331,2808,2019-08-07 16:21:33:923
4.0773,-8.5696,2.2562,-0.114,-0.0045,0.0776,-0.0133,-0.0997,0.0246,2812,2019-08-07 16:21:33:927
4.0773,-8.5696,2.2562,-0.2036,-0.0976,0.0853,-0.0133,-0.0997,0.0246,2818,2019-08-07 16:21:33:933
4.0821,-8.5791,2.2373,-0.2036,-0.0976,0.0853,0.0091,-0.0677,0.0278,2823,2019-08-07 16:21:33:938
4.0821,-8.5791,2.2373,-0.2511,-0.1172,0.0874,0.0091,-0.0677,0.0278,2828,2019-08-07 16:21:33:943
4.0821,-8.5791,2.2373,-0.2511,-0.1172,0.0874,0.0144,-0.0262,0.0278,2834,2019-08-07 16:21:33:949
4.0342,-8.5791,2.2891,-0.2511,-0.1172,0.0874,0.0144,-0.0262,0.0278,2837,2019-08-07 16:21:33:952
4.0342,-8.5791,2.2891,-0.2511,-0.1172,0.0874,0.0165,0.0132,0.0172,2843,2019-08-07 16:21:33:958
3.8285,-8.5887,2.3834,-0.0091,-0.1225,0.037,0.0165,0.0132,0.0172,2848,2019-08-07 16:21:33:963
3.8285,-8.5887,2.3834,-0.0091,-0.1225,0.037,0.0165,0.0132,0.0172,2853,2019-08-07 16:21:33:968
3.8285,-8.5887,2.3834,-0.0091,-0.1225,0.037,0.0165,0.0185,-0.0095,2857,2019-08-07 16:21:33:972
3.7232,-8.5409,2.506,0.1587,-0.1449,-0.1415,0.0165,0.0185,-0.0095,2863,2019-08-07 16:21:33:978
3.7232,-8.5409,2.506,0.1587,-0.1449,-0.1415,0.008,-0.0145,-0.0222,2868,2019-08-07 16:21:33:983
3.7232,-8.5409,2.506,0.1587,-0.1449,-0.1415,0.008,-0.0145,-0.0222,2872,2019-08-07 16:21:33:987
3.6945,-8.5361,2.4117,0.1463,-0.1629,-0.0985,-0.0058,-0.0369,-0.034,2878,2019-08-07 16:21:33:993
3.6945,-8.5361,2.4117,0.1463,-0.1629,-0.0985,-0.0058,-0.0369,-0.034,2882,2019-08-07 16:21:33:997
3.6897,-8.5648,2.4258,0.1463,-0.1629,-0.0985,-0.0197,-0.0752,-0.0414,2888,2019-08-07 16:21:34:003
3.6897,-8.5648,2.4258,0.1463,-0.1629,-0.0985,-0.0197,-0.0752,-0.0414,2893,2019-08-07 16:21:34:008
3.6897,-8.5648,2.4258,0.0788,-0.1176,-0.0619,-0.0239,-0.1093,-0.0446,2898,2019-08-07 16:21:34:013
3.8667,-8.6125,2.4164,0.0788,-0.1176,-0.0619,-0.0239,-0.1093,-0.0446,2903,2019-08-07 16:21:34:018
3.8667,-8.6125,2.4164,0.0788,-0.1176,-0.0619,-0.0239,-0.1093,-0.0446,2907,2019-08-07 16:21:34:022
3.8667,-8.6125,2.4164,0.0788,-0.1176,-0.0619,-0.025,-0.1231,-0.0393,2913,2019-08-07 16:21:34:028
3.9672,-8.6889,2.3033,-0.1041,-0.0054,-0.0514,-0.025,-0.1231,-0.0393,2918,2019-08-07 16:21:34:033
3.9672,-8.6889,2.3033,-0.1041,-0.0054,-0.0514,-0.0218,-0.0933,-0.0382,2922,2019-08-07 16:21:34:037
4.1011,-8.6889,2.3174,-0.1041,-0.0054,-0.0514,-0.0218,-0.0933,-0.0382,2928,2019-08-07 16:21:34:043
4.1011,-8.6889,2.3174,-0.1041,-0.0054,-0.0514,-0.0176,-0.0763,-0.0382,2933,2019-08-07 16:21:34:048
4.1011,-8.6889,2.3174,-0.2548,-0.0315,0.1219,-0.0176,-0.0763,-0.0382,2937,2019-08-07 16:21:34:052
4.1442,-8.6412,2.2278,-0.2548,-0.0315,0.1219,-0.0133,-0.039,-0.0244,2943,2019-08-07 16:21:34:058
4.1442,-8.6412,2.2278,-0.2548,-0.0315,0.1219,-0.0133,-0.039,-0.0244,2948,2019-08-07 16:21:34:063
4.1537,-8.7366,2.3033,-0.2548,-0.0315,0.1219,-0.0026,0.0175,-0.0244,2953,2019-08-07 16:21:34:068
4.1537,-8.7366,2.3033,-0.2548,-0.0315,0.1219,-0.0026,0.0175,-0.0244,2958,2019-08-07 16:21:34:073
4.1537,-8.6984,2.2561,-0.2428,0.0185,0.0147,0.0038,0.0473,-0.0265,2963,2019-08-07 16:21:34:078
4.0389,-8.6984,2.2561,-0.2428,0.0185,0.0147,0.0038,0.0473,-0.0265,2967,2019-08-07 16:21:34:082
4.0389,-8.6984,2.2561,-0.2428,0.0185,0.0147,0.0038,0.0473,-0.0265,2973,2019-08-07 16:21:34:088
3.9241,-8.6316,2.3363,-0.0047,-0.1027,-0.0467,0.0048,0.0462,-0.0329,2978,2019-08-07 16:21:34:093
3.9241,-8.6316,2.3363,-0.0047,-0.1027,-0.0467,0.0048,0.0462,-0.0329,2983,2019-08-07 16:21:34:098
3.9241,-8.6316,2.3363,-0.0047,-0.1027,-0.0467,0.0101,0.0132,-0.0361,2987,2019-08-07 16:21:34:102
3.9193,-8.6316,2.4682,-0.0047,-0.1027,-0.0467,0.0101,0.0132,-0.0361,2993,2019-08-07 16:21:34:108
3.9193,-8.6316,2.4682,-0.0084,-0.104,-0.1422,0.0101,0.0132,-0.0361,2997,2019-08-07 16:21:34:112
3.9193,-8.6316,2.4682,-0.0084,-0.104,-0.1422,0.0059,-0.0347,-0.0329,3003,2019-08-07 16:21:34:118
3.9958,-8.5648,2.3457,-0.0084,-0.104,-0.1422,-0.0058,-0.0784,-0.0297,3008,2019-08-07 16:21:34:123
3.9958,-8.5648,2.3457,-0.0084,-0.104,-0.1422,-0.0058,-0.0784,-0.0297,3012,2019-08-07 16:21:34:127
3.9958,-8.5648,2.3457,-0.1808,-0.0821,-0.0253,-0.0058,-0.0784,-0.0297,3018,2019-08-07 16:21:34:133
4.1441,-8.6268,2.2985,-0.1808,-0.0821,-0.0253,-0.0144,-0.1008,-0.018,3023,2019-08-07 16:21:34:138
4.1441,-8.6268,2.2985,-0.1808,-0.0821,-0.0253,-0.0144,-0.1008,-0.018,3027,2019-08-07 16:21:34:142
4.2637,-8.7319,2.209,-0.1808,-0.0821,-0.0253,-0.0133,-0.0709,-0.0063,3033,2019-08-07 16:21:34:148
4.2637,-8.7319,2.209,-0.34,-0.0094,0.0689,-0.0133,-0.0709,-0.0063,3038,2019-08-07 16:21:34:153
4.2637,-8.7319,2.209,-0.34,-0.0094,0.0689,-0.0133,-0.0273,-0.0084,3042,2019-08-07 16:21:34:157
4.2207,-8.7462,2.176,-0.34,-0.0094,0.0689,-0.0133,-0.0273,-0.0084,3049,2019-08-07 16:21:34:164
4.2207,-8.7462,2.176,-0.34,-0.0094,0.0689,-0.0133,-0.0273,-0.0084,3052,2019-08-07 16:21:34:167
4.2207,-8.7462,2.176,-0.34,-0.0094,0.0689,-0.0144,0.0324,-0.002,3058,2019-08-07 16:21:34:173
4.0252,-8.7558,2.261,-0.113,0.0531,0.0178,-0.0144,0.0324,-0.002,3063,2019-08-07 16:21:34:178
4.0252,-8.7558,2.261,-0.113,0.0531,0.0178,-0.0048,0.0633,0.0065,3067,2019-08-07 16:21:34:182
3.9152,-8.8656,2.294,-0.113,0.0531,0.0178,-0.0048,0.0633,0.0065,3073,2019-08-07 16:21:34:188
3.9152,-8.8656,2.294,-0.113,0.0531,0.0178,0.0027,0.0793,-0.0031,3077,2019-08-07 16:21:34:192
3.6903,-8.8083,2.4967,0.0939,0.1481,-0.0956,0.0027,0.0793,-0.0031,3083,2019-08-07 16:21:34:198
3.6903,-8.8083,2.4967,0.0939,0.1481,-0.0956,0.0208,0.0462,-0.0159,3088,2019-08-07 16:21:34:203
3.6903,-8.8083,2.4967,0.0939,0.1481,-0.0956,0.0208,0.0462,-0.0159,3093,2019-08-07 16:21:34:208
3.7047,-8.6555,2.4637,0.1884,-0.0125,-0.1859,0.0314,0.0196,-0.0201,3098,2019-08-07 16:21:34:213
3.7047,-8.6555,2.4637,0.1884,-0.0125,-0.1859,0.0314,0.0196,-0.0201,3103,2019-08-07 16:21:34:218
3.7191,-8.603,2.3977,0.1884,-0.0125,-0.1859,0.0389,4.0E-4,-0.0265,3108,2019-08-07 16:21:34:223
3.7191,-8.603,2.3977,0.1884,-0.0125,-0.1859,0.0389,4.0E-4,-0.0265,3114,2019-08-07 16:21:34:229
3.7191,-8.603,2.3977,0.0971,-0.2522,-0.099,0.0229,-0.0337,-0.034,3118,2019-08-07 16:21:34:233
3.8195,-8.4312,2.3458,0.0971,-0.2522,-0.099,0.0229,-0.0337,-0.034,3123,2019-08-07 16:21:34:238
3.8195,-8.4312,2.3458,7.0E-4,-0.3027,-0.0419,0.0176,-0.0496,-0.0308,3129,2019-08-07 16:21:34:244
4.0061,-8.4121,2.3788,7.0E-4,-0.3027,-0.0419,0.0176,-0.0496,-0.0308,3133,2019-08-07 16:21:34:248
4.0061,-8.4121,2.3788,7.0E-4,-0.3027,-0.0419,0.0176,-0.0496,-0.0308,3137,2019-08-07 16:21:34:252
4.0061,-8.4121,2.3788,-0.1483,-0.2341,0.0049,0.0091,-0.0454,-0.019,3143,2019-08-07 16:21:34:258
4.097,-8.5314,2.2563,-0.1483,-0.2341,0.0049,0.0091,-0.0454,-0.019,3148,2019-08-07 16:21:34:263
4.097,-8.5314,2.2563,-0.1483,-0.2341,0.0049,-0.009,-0.007,-0.0159,3153,2019-08-07 16:21:34:268
4.097,-8.5314,2.2563,-0.1483,-0.2341,0.0049,-0.009,-0.007,-0.0159,3157,2019-08-07 16:21:34:272
3.987,-8.5887,2.2138,-0.0617,-0.1035,0.0825,-0.0197,0.0143,-0.0201,3163,2019-08-07 16:21:34:278
3.987,-8.5887,2.2138,-0.0617,-0.1035,0.0825,-0.0197,0.0143,-0.0201,3167,2019-08-07 16:21:34:282
3.9248,-8.6842,2.1997,-0.0617,-0.1035,0.0825,-0.0197,0.0239,-0.0233,3173,2019-08-07 16:21:34:288
3.9248,-8.6842,2.1997,-0.0617,-0.1035,0.0825,-0.0197,0.0239,-0.0233,3178,2019-08-07 16:21:34:293
3.9248,-8.6842,2.1997,0.0468,-0.0168,0.0188,-0.0218,0.0047,-0.0233,3182,2019-08-07 16:21:34:297
3.8721,-8.7558,2.2987,0.0468,-0.0168,0.0188,-0.0218,0.0047,-0.0233,3188,2019-08-07 16:21:34:303
3.8721,-8.7558,2.2987,0.0468,-0.0168,0.0188,-0.0122,-0.0028,-0.0212,3192,2019-08-07 16:21:34:307
3.8339,-8.7988,2.1997,0.0468,-0.0168,0.0188,-0.0122,-0.0028,-0.0212,3198,2019-08-07 16:21:34:313
3.8339,-8.7988,2.1997,0.079,0.1176,0.0769,-0.0058,-0.0113,-0.0265,3203,2019-08-07 16:21:34:318
3.8339,-8.7988,2.1997,0.079,0.1176,0.0769,-0.0058,-0.0113,-0.0265,3208,2019-08-07 16:21:34:323
3.8147,-8.7797,2.2846,0.079,0.1176,0.0769,0.0027,-0.0273,-0.0286,3213,2019-08-07 16:21:34:328
3.8147,-8.7797,2.2846,0.079,0.1176,0.0769,0.0027,-0.0273,-0.0286,3218,2019-08-07 16:21:34:333
3.8147,-8.7797,2.2846,0.0409,0.0477,0.0087,0.0027,-0.0273,-0.0286,3222,2019-08-07 16:21:34:337
3.9104,-8.7462,2.3034,0.0409,0.0477,0.0087,0.0112,-0.0305,-0.034,3228,2019-08-07 16:21:34:343
3.9104,-8.7462,2.3034,0.0409,0.0477,0.0087,0.0112,-0.0305,-0.034,3233,2019-08-07 16:21:34:348
3.9104,-8.7462,2.3034,0.0409,0.0477,0.0087,0.0059,-0.0614,-0.0329,3238,2019-08-07 16:21:34:353
3.963,-8.5983,2.2516,-0.0179,-0.0874,0.0357,0.0059,-0.0614,-0.0329,3243,2019-08-07 16:21:34:358
3.963,-8.5983,2.2516,-0.0179,-0.0874,0.0357,0.0016,-0.0496,-0.0233,3248,2019-08-07 16:21:34:363
3.963,-8.5983,2.2516,-0.0179,-0.0874,0.0357,0.0016,-0.0496,-0.0233,3252,2019-08-07 16:21:34:367
4.2023,-8.5362,2.4071,-0.0179,-0.0874,0.0357,-0.0026,-0.0454,-0.0222,3258,2019-08-07 16:21:34:373
4.2023,-8.5362,2.4071,-0.2536,-0.1943,-0.0339,-0.0026,-0.0454,-0.0222,3262,2019-08-07 16:21:34:377
4.2023,-8.5362,2.4071,-0.2536,-0.1943,-0.0339,-0.0026,-0.0454,-0.0222,3268,2019-08-07 16:21:34:383
4.231,-8.498,2.3505,-0.2536,-0.1943,-0.0339,-0.0165,-0.0443,-0.0105,3272,2019-08-07 16:21:34:387
4.231,-8.498,2.3505,-0.2536,-0.1943,-0.0339,-0.0165,-0.0443,-0.0105,3278,2019-08-07 16:21:34:393
4.1353,-8.646,2.2987,-0.1999,-0.0881,-0.1055,-0.0218,-0.0443,0.0076,3283,2019-08-07 16:21:34:398
4.1353,-8.646,2.2987,-0.1999,-0.0881,-0.1055,-0.0218,-0.0443,0.0076,3288,2019-08-07 16:21:34:403
4.1353,-8.646,2.2987,-0.1999,-0.0881,-0.1055,-0.0208,-0.0411,0.015,3293,2019-08-07 16:21:34:408
4.1114,-8.751,2.4354,-0.1999,-0.0881,-0.1055,-0.0208,-0.0411,0.015,3297,2019-08-07 16:21:34:412
4.1114,-8.751,2.4354,-0.1607,0.0872,-0.1119,-0.0208,-0.0411,0.015,3303,2019-08-07 16:21:34:418
4.0635,-8.7272,2.3694,-0.1607,0.0872,-0.1119,-0.0069,-0.0539,0.014,3309,2019-08-07 16:21:34:424
4.0635,-8.7272,2.3694,-0.1607,0.0872,-0.1119,0.0144,-0.056,0.0129,3313,2019-08-07 16:21:34:428
4.0635,-8.7272,2.3694,-0.1607,0.0872,-0.1119,0.0144,-0.056,0.0129,3319,2019-08-07 16:21:34:434
4.1066,-8.6794,2.3081,-0.1167,0.0153,-0.0441,0.0144,-0.056,0.0129,3323,2019-08-07 16:21:34:438
4.1066,-8.6794,2.3081,-0.1167,0.0153,-0.0441,0.0314,-0.0262,0.014,3328,2019-08-07 16:21:34:443
4.1066,-8.6794,2.3081,-0.1167,0.0153,-0.0441,0.0314,-0.0262,0.014,3333,2019-08-07 16:21:34:448
4.1305,-8.646,2.3317,-0.1167,0.0153,-0.0441,0.0378,0.0239,0.0065,3338,2019-08-07 16:21:34:453
4.1305,-8.646,2.3317,-0.0842,-0.0838,-0.0474,0.0378,0.0239,0.0065,3342,2019-08-07 16:21:34:457
4.0205,-8.5887,2.3505,-0.0842,-0.0838,-0.0474,0.0453,0.042,-0.0041,3349,2019-08-07 16:21:34:464
4.0205,-8.5887,2.3505,-0.0842,-0.0838,-0.0474,0.0453,0.042,-0.0041,3353,2019-08-07 16:21:34:468
4.0205,-8.5887,2.3505,-0.0842,-0.0838,-0.0474,0.0453,0.042,-0.0041,3358,2019-08-07 16:21:34:473
3.8721,-8.5457,2.4967,0.1252,-0.1857,-0.222,0.0559,0.0633,-0.0137,3363,2019-08-07 16:21:34:478
3.8721,-8.5457,2.4967,0.1252,-0.1857,-0.222,0.0559,0.0633,-0.0137,3367,2019-08-07 16:21:34:482
3.8721,-8.5457,2.4967,0.1252,-0.1857,-0.222,0.0442,0.0569,-0.0254,3373,2019-08-07 16:21:34:488
3.7908,-8.4121,2.5108,0.1683,-0.2647,-0.2142,0.0442,0.0569,-0.0254,3378,2019-08-07 16:21:34:493
3.7908,-8.4121,2.5108,0.1683,-0.2647,-0.2142,0.0251,0.0164,-0.035,3383,2019-08-07 16:21:34:498
3.8004,-8.3166,2.5344,0.1683,-0.2647,-0.2142,0.0251,0.0164,-0.035,3387,2019-08-07 16:21:34:502
3.8004,-8.3166,2.5344,0.1639,-0.3509,-0.3002,0.0133,-0.0017,-0.0478,3394,2019-08-07 16:21:34:509
3.8004,-8.3166,2.5344,0.1639,-0.3509,-0.3002,0.0133,-0.0017,-0.0478,3398,2019-08-07 16:21:34:513
3.8721,-8.3882,2.426,0.1639,-0.3509,-0.3002,-0.0069,-0.0475,-0.0467,3402,2019-08-07 16:21:34:517
3.8721,-8.3882,2.426,0.1639,-0.3509,-0.3002,-0.0069,-0.0475,-0.0467,3408,2019-08-07 16:21:34:523
4.0731,-8.4503,2.1808,-0.0982,-0.2179,0.1211,-0.0314,-0.0475,-0.0553,3413,2019-08-07 16:21:34:528
4.0731,-8.4503,2.1808,-0.0982,-0.2179,0.1211,-0.0314,-0.0475,-0.0553,3418,2019-08-07 16:21:34:533
4.0731,-8.4503,2.1808,-0.0982,-0.2179,0.1211,-0.0314,-0.0475,-0.0553,3423,2019-08-07 16:21:34:538
4.0539,-8.4789,2.294,-0.0722,-0.1873,0.0036,-0.0303,-0.0486,-0.0595,3429,2019-08-07 16:21:34:544
4.0539,-8.4789,2.294,-0.0722,-0.1873,0.0036,-0.0303,-0.0486,-0.0595,3433,2019-08-07 16:21:34:548
4.207,-8.5696,2.1573,-0.0722,-0.1873,0.0036,-0.0176,-0.0241,-0.0467,3438,2019-08-07 16:21:34:553
4.207,-8.5696,2.1573,-0.1894,-0.0691,0.1048,-0.0176,-0.0241,-0.0467,3444,2019-08-07 16:21:34:559
4.207,-8.5696,2.1573,-0.1894,-0.0691,0.1048,-0.0122,-0.007,-0.0467,3447,2019-08-07 16:21:34:562
4.1353,-8.5648,2.1431,-0.1894,-0.0691,0.1048,-0.0122,-0.007,-0.0467,3453,2019-08-07 16:21:34:568
4.1353,-8.5648,2.1431,-0.1894,-0.0691,0.1048,-0.0154,0.0175,-0.0425,3459,2019-08-07 16:21:34:574
4.1353,-8.5648,2.1431,-0.1894,-0.0691,0.1048,-0.0154,0.0175,-0.0425,3463,2019-08-07 16:21:34:578
4.1496,-8.646,2.2563,-0.1471,-0.0133,0.0314,-0.0037,0.0335,-0.0414,3468,2019-08-07 16:21:34:583
4.1496,-8.646,2.2563,-0.1471,-0.0133,0.0314,-0.0037,0.0335,-0.0414,3473,2019-08-07 16:21:34:588
4.0252,-8.6078,2.3505,-0.1471,-0.0133,0.0314,6.0E-4,0.0281,-0.0361,3478,2019-08-07 16:21:34:593
4.0252,-8.6078,2.3505,-0.1471,-0.0133,0.0314,6.0E-4,0.0281,-0.0361,3483,2019-08-07 16:21:34:598
4.0252,-8.6078,2.3505,0.0404,-0.0387,0.0287,6.0E-4,0.0281,-0.0361,3488,2019-08-07 16:21:34:603
3.9678,-8.6078,2.2987,0.0404,-0.0387,0.0287,-0.0037,0.0132,-0.0254,3493,2019-08-07 16:21:34:608
3.9678,-8.6078,2.2987,0.0404,-0.0387,0.0287,-0.0037,0.0132,-0.0254,3497,2019-08-07 16:21:34:612
3.4272,-8.4073,1.6718,0.5863,-0.248,0.6116,-0.1741,-0.4651,-0.0265,3503,2019-08-07 16:21:34:618
3.4272,-8.4073,1.6718,0.5863,-0.248,0.6116,-0.1741,-0.4651,-0.0265,3507,2019-08-07 16:21:34:622
3.4272,-8.4073,1.6718,0.5863,-0.248,0.6116,-0.1741,-0.4651,-0.0265,3513,2019-08-07 16:21:34:628
3.542,-8.7367,2.5909,0.5863,-0.248,0.6116,-0.2327,-0.5269,-0.0084,3517,2019-08-07 16:21:34:632
3.542,-8.7367,2.5909,0.5863,-0.248,0.6116,-0.2327,-0.5269,-0.0084,3523,2019-08-07 16:21:34:638
3.542,-8.7367,2.5909,-0.2471,0.2347,-0.7511,-0.0474,-0.3703,-0.035,3528,2019-08-07 16:21:34:643
4.3745,-8.9515,2.7512,-0.2471,0.2347,-0.7511,-0.0474,-0.3703,-0.035,3533,2019-08-07 16:21:34:648
4.3745,-8.9515,2.7512,-0.2471,0.2347,-0.7511,0.1635,-0.2179,-0.0276,3537,2019-08-07 16:21:34:652
4.6185,-8.9038,1.5586,-0.7152,0.1659,0.8634,0.1635,-0.2179,-0.0276,3544,2019-08-07 16:21:34:659
4.6185,-8.9038,1.5586,-0.7152,0.1659,0.8634,0.1625,-0.0102,-0.0084,3549,2019-08-07 16:21:34:664
4.6185,-8.9038,1.5586,-0.7152,0.1659,0.8634,0.1625,-0.0102,-0.0084,3552,2019-08-07 16:21:34:667
4.8864,-8.8083,1.865,-0.7152,0.1659,0.8634,0.1167,0.1751,-0.0095,3559,2019-08-07 16:21:34:674
4.8864,-8.8083,1.865,-0.5937,-0.1268,0.0621,0.1167,0.1751,-0.0095,3563,2019-08-07 16:21:34:678
4.4606,-8.4789,2.2186,-0.5937,-0.1268,0.0621,0.1167,0.1751,-0.0095,3568,2019-08-07 16:21:34:683
4.4606,-8.4789,2.2186,-0.5937,-0.1268,0.0621,0.0591,0.2849,-0.0095,3574,2019-08-07 16:21:34:689
4.4606,-8.4789,2.2186,-0.0526,-0.2675,-0.1092,0.0591,0.2849,-0.0095,3578,2019-08-07 16:21:34:693
3.8913,-8.4025,2.4872,-0.0526,-0.2675,-0.1092,0.0251,0.3466,-0.0169,3583,2019-08-07 16:21:34:698
3.8913,-8.4025,2.4872,-0.0526,-0.2675,-0.1092,0.0251,0.3466,-0.0169,3588,2019-08-07 16:21:34:703
3.5516,-8.5696,2.8643,-0.0526,-0.2675,-0.1092,-0.0026,0.2689,-0.0244,3593,2019-08-07 16:21:34:708
3.5516,-8.5696,2.8643,0.6137,-0.0552,-0.7511,-0.0026,0.2689,-0.0244,3599,2019-08-07 16:21:34:714
3.5516,-8.5696,2.8643,0.6137,-0.0552,-0.7511,-0.0133,0.0686,-0.0137,3603,2019-08-07 16:21:34:718
3.542,-8.794,2.9492,0.6137,-0.0552,-0.7511,-0.0133,0.0686,-0.0137,3607,2019-08-07 16:21:34:722