ACCELEROMETER X (m/s²),ACCELEROMETER Y (m/s²),ACCELEROMETER Z (m/s²),LINEAR ACCELERATION X (m/s²),LINEAR ACCELERATION Y (m/s²),LINEAR ACCELERATION Z (m/s²),GYROSCOPE X (rad/s),GYROSCOPE Y (rad/s),GYROSCOPE Z (rad/s),Time since start in ms ,YYYY-MO-DD HH-MI-SS_SSS
3.3121,-8.9854,1.7576,-1.0E-4,-0.0937,0.1062,0.0155,-0.0124,0.0193,3,2019-08-07 16:21:16:478
3.3121,-8.9854,1.7576,-1.0E-4,-0.0937,0.1062,0.0155,-0.0124,0.0193,9,2019-08-07 16:21:16:484
3.3121,-8.9854,1.7576,-1.0E-4,-0.0937,0.1062,0.0133,-0.0188,0.0215,14,2019-08-07 16:21:16:489
3.4461,-8.9806,1.7387,-1.0E-4,-0.0937,0.1062,0.0133,-0.0188,0.0215,19,2019-08-07 16:21:16:494
3.4461,-8.9806,1.7387,-0.1458,-0.0753,0.1723,0.0091,-0.0241,0.0257,24,2019-08-07 16:21:16:499
3.4557,-8.9186,1.701,-0.1458,-0.0753,0.1723,0.0091,-0.0241,0.0257,29,2019-08-07 16:21:16:504
3.4557,-8.9186,1.701,-0.1458,-0.0753,0.1723,0.0069,4.0E-4,0.0332,34,2019-08-07 16:21:16:509
3.4557,-8.9186,1.701,-0.1458,-0.0753,0.1723,0.0069,4.0E-4,0.0332,38,2019-08-07 16:21:16:513
3.4078,-8.9186,1.6963,-0.1021,-0.1199,0.205,0.0048,0.0228,0.0428,44,2019-08-07 16:21:16:519
3.4078,-8.9186,1.6963,-0.1021,-0.1199,0.205,0.0048,0.0228,0.0428,49,2019-08-07 16:21:16:524
3.3456,-8.9424,1.7387,-0.1021,-0.1199,0.205,0.0048,0.0484,0.0492,54,2019-08-07 16:21:16:529
3.3456,-8.9424,1.7387,-0.1021,-0.1199,0.205,0.0048,0.0484,0.0492,59,2019-08-07 16:21:16:534
3.3456,-8.9424,1.7387,0.0845,-0.075,0.1513,0.0069,0.0579,0.0449,64,2019-08-07 16:21:16:539
3.2117,-8.952,1.7858,0.0845,-0.075,0.1513,0.0069,0.0579,0.0449,68,2019-08-07 16:21:16:543
3.2117,-8.952,1.7858,0.0845,-0.075,0.1513,0.0069,0.0579,0.0449,74,2019-08-07 16:21:16:549
3.2117,-8.952,1.7858,0.0845,-0.075,0.1513,0.0059,0.0462,0.0385,79,2019-08-07 16:21:16:554
3.0969,-8.9567,1.8471,0.2227,-0.0492,0.0421,0.0059,0.0462,0.0385,83,2019-08-07 16:21:16:558
3.0969,-8.9567,1.8471,0.2227,-0.0492,0.0421,-5.0E-4,0.0185,0.031,89,2019-08-07 16:21:16:564
3.0969,-8.9424,1.8801,0.2227,-0.0492,0.0421,-5.0E-4,0.0185,0.031,94,2019-08-07 16:21:16:569
3.0969,-8.9424,1.8801,0.2227,-0.0492,0.0421,-0.0037,-0.0198,0.0225,99,2019-08-07 16:21:16:574
3.0969,-8.9424,1.8801,0.0643,-0.1086,-0.0057,-0.0037,-0.0198,0.0225,104,2019-08-07 16:21:16:579
3.226,-8.9711,1.8848,0.0643,-0.1086,-0.0057,-0.0101,-0.0603,0.0172,109,2019-08-07 16:21:16:584
3.226,-8.9711,1.8848,0.0643,-0.1086,-0.0057,-0.0101,-0.0603,0.0172,115,2019-08-07 16:21:16:590
3.3887,-9.014,1.8141,0.0643,-0.1086,-0.0057,-0.0069,-0.0699,0.0129,118,2019-08-07 16:21:16:593
3.3887,-9.014,1.8141,-0.1025,-0.124,0.106,-0.0069,-0.0699,0.0129,124,2019-08-07 16:21:16:599
3.3887,-9.014,1.8141,-0.1025,-0.124,0.106,-0.0027,-0.0699,0.0129,129,2019-08-07 16:21:16:604
3.5131,-8.9281,1.7623,-0.1025,-0.124,0.106,-0.0027,-0.0699,0.0129,134,2019-08-07 16:21:16:609
3.5131,-8.9281,1.7623,-0.1025,-0.124,0.106,0.0059,-0.0528,0.0193,139,2019-08-07 16:21:16:614
3.5562,-8.9042,1.8,-0.2732,-0.1386,0.1865,0.0059,-0.0528,0.0193,143,2019-08-07 16:21:16:618
3.5562,-8.9042,1.8,-0.2732,-0.1386,0.1865,0.0112,-0.0347,0.0172,149,2019-08-07 16:21:16:624
3.5562,-8.9042,1.8,-0.2732,-0.1386,0.1865,0.0112,-0.0347,0.0172,153,2019-08-07 16:21:16:628
3.4461,-8.9042,1.8094,-0.2732,-0.1386,0.1865,0.0187,-0.0081,0.0151,159,2019-08-07 16:21:16:634
3.4461,-8.9042,1.8094,-0.1727,-0.1097,-7.0E-4,0.0187,-0.0081,0.0151,164,2019-08-07 16:21:16:639
3.4127,-8.9042,1.8801,-0.1727,-0.1097,-7.0E-4,0.0293,-0.0038,0.0097,169,2019-08-07 16:21:16:644
3.4127,-8.9042,1.8801,-0.1727,-0.1097,-7.0E-4,0.0293,-0.0038,0.0097,173,2019-08-07 16:21:16:648
3.4127,-8.9042,1.8801,-0.1727,-0.1097,-7.0E-4,0.0346,-0.0081,0.0097,179,2019-08-07 16:21:16:654
3.3887,-8.9615,1.8943,-0.025,-0.1183,0.0426,0.0346,-0.0081,0.0097,184,2019-08-07 16:21:16:659
3.3887,-8.9615,1.8943,-0.025,-0.1183,0.0426,0.0346,-0.0081,0.0097,189,2019-08-07 16:21:16:664
3.3313,-8.9472,1.932,-0.025,-0.1183,0.0426,0.0368,-0.0017,2.0E-4,194,2019-08-07 16:21:16:669
3.3313,-8.9472,1.932,-0.025,-0.1183,0.0426,0.0368,-0.0017,2.0E-4,200,2019-08-07 16:21:16:675
3.3313,-8.9472,1.932,-0.0139,-0.1258,-0.0449,0.0378,-0.0124,-0.018,204,2019-08-07 16:21:16:679
3.2691,-8.952,1.9273,-0.0139,-0.1258,-0.0449,0.0378,-0.0124,-0.018,209,2019-08-07 16:21:16:684
3.2691,-8.952,1.9273,-0.0139,-0.1258,-0.0449,0.0368,-0.006,-0.0254,214,2019-08-07 16:21:16:689
3.1926,-8.909,2.031,-0.0139,-0.1258,-0.0449,0.0368,-0.006,-0.0254,219,2019-08-07 16:21:16:694
3.1926,-8.909,2.031,-0.0139,-0.1258,-0.0449,0.0368,-0.006,-0.0254,223,2019-08-07 16:21:16:698
3.1926,-8.909,2.031,0.0192,-0.1658,-0.1843,0.0346,-0.0145,-0.0265,229,2019-08-07 16:21:16:704
3.2739,-8.909,1.9556,0.0192,-0.1658,-0.1843,0.0346,-0.0145,-0.0265,234,2019-08-07 16:21:16:709
3.2739,-8.909,1.9556,0.0192,-0.1658,-0.1843,0.0218,-0.0337,-0.0318,239,2019-08-07 16:21:16:714
3.2739,-8.909,1.9556,0.0192,-0.1658,-0.1843,0.0218,-0.0337,-0.0318,244,2019-08-07 16:21:16:719
3.3553,-8.8899,1.965,-0.06,-0.1482,-0.0439,0.0165,-0.0443,-0.0318,249,2019-08-07 16:21:16:724
3.3553,-8.8899,1.965,-0.06,-0.1482,-0.0439,0.0165,-0.0443,-0.0318,253,2019-08-07 16:21:16:728
3.4222,-8.9042,1.965,-0.06,-0.1482,-0.0439,0.008,-0.0507,-0.0286,259,2019-08-07 16:21:16:734
3.4222,-8.9042,1.965,-0.06,-0.1482,-0.0439,0.008,-0.0507,-0.0286,264,2019-08-07 16:21:16:739
3.4222,-8.9042,1.965,-0.2092,-0.0831,-0.007,0.008,-0.0507,-0.0286,269,2019-08-07 16:21:16:744
3.5371,-8.9854,1.866,-0.2092,-0.0831,-0.007,0.0027,-0.0443,-0.0265,274,2019-08-07 16:21:16:749
3.5371,-8.9854,1.866,-0.2092,-0.0831,-0.007,0.0027,-0.0443,-0.0265,279,2019-08-07 16:21:16:754
3.5084,-8.9902,1.8848,-0.2092,-0.0831,-0.007,0.0016,-0.0273,-0.0222,284,2019-08-07 16:21:16:759
3.5084,-8.9902,1.8848,-0.1539,-0.0045,0.0705,0.0016,-0.0273,-0.0222,288,2019-08-07 16:21:16:763
3.5084,-8.9902,1.8848,-0.1539,-0.0045,0.0705,0.0027,-0.0049,-0.0137,294,2019-08-07 16:21:16:769
3.4318,-8.9854,1.8283,-0.1539,-0.0045,0.0705,0.0027,-0.0049,-0.0137,299,2019-08-07 16:21:16:774
3.4318,-8.9854,1.8283,-0.1539,-0.0045,0.0705,0.0059,0.0185,-0.0073,304,2019-08-07 16:21:16:779
3.3792,-9.0045,1.866,-0.0409,0.0205,0.0424,0.0059,0.0185,-0.0073,310,2019-08-07 16:21:16:785
3.3792,-9.0045,1.866,-0.0409,0.0205,0.0424,0.0112,0.0313,-0.0041,314,2019-08-07 16:21:16:789
3.3792,-9.0045,1.866,-0.0409,0.0205,0.0424,0.0112,0.0313,-0.0041,319,2019-08-07 16:21:16:794
3.2405,-8.9615,1.8849,-0.0409,0.0205,0.0424,0.0155,0.0271,-0.0084,324,2019-08-07 16:21:16:799
3.2405,-8.9615,1.8849,0.1073,-0.0456,-0.0101,0.0155,0.0271,-0.0084,329,2019-08-07 16:21:16:804
3.1448,-8.9472,1.9273,0.1073,-0.0456,-0.0101,0.0155,0.0196,-0.0084,334,2019-08-07 16:21:16:809
3.1448,-8.9472,1.9273,0.1073,-0.0456,-0.0101,0.0155,0.0196,-0.0084,339,2019-08-07 16:21:16:814
3.1448,-8.9472,1.9273,0.1073,-0.0456,-0.0101,0.0165,0.0153,-0.0137,344,2019-08-07 16:21:16:819
3.1639,-8.9806,1.9697,0.1503,-0.0494,-0.0435,0.0165,0.0153,-0.0137,350,2019-08-07 16:21:16:825
3.1639,-8.9806,1.9697,0.1503,-0.0494,-0.0435,0.0165,0.0153,-0.0137,353,2019-08-07 16:21:16:828
3.1639,-8.9806,1.9697,0.1503,-0.0494,-0.0435,0.0069,-0.0262,-0.0212,359,2019-08-07 16:21:16:834
3.2309,-8.9042,1.932,0.1503,-0.0494,-0.0435,0.0069,-0.0262,-0.0212,364,2019-08-07 16:21:16:839
3.2309,-8.9042,1.932,0.0632,-0.0909,-0.0429,0.0037,-0.0454,-0.0265,369,2019-08-07 16:21:16:844
3.2309,-8.9042,1.932,0.0632,-0.0909,-0.0429,0.0037,-0.0454,-0.0265,374,2019-08-07 16:21:16:849
3.3649,-8.9042,1.9933,0.0632,-0.0909,-0.0429,-0.0016,-0.0614,-0.0275,379,2019-08-07 16:21:16:854
3.3649,-8.9042,1.9933,0.0632,-0.0909,-0.0429,-0.0016,-0.0614,-0.0275,384,2019-08-07 16:21:16:859
3.5897,-8.9186,1.734,-0.206,-0.0887,0.1461,-0.0101,-0.072,-0.0265,389,2019-08-07 16:21:16:864
3.5897,-8.9186,1.734,-0.206,-0.0887,0.1461,-0.0101,-0.072,-0.0265,394,2019-08-07 16:21:16:869
3.5897,-8.9186,1.734,-0.206,-0.0887,0.1461,-0.009,-0.0507,-0.0222,399,2019-08-07 16:21:16:874
3.561,-8.9424,1.8189,-0.206,-0.0887,0.1461,-0.009,-0.0507,-0.0222,404,2019-08-07 16:21:16:879
3.561,-8.9424,1.8189,-0.265,-0.0106,0.1355,0.0016,-0.0177,-0.0158,409,2019-08-07 16:21:16:884
3.5084,-8.9568,1.767,-0.265,-0.0106,0.1355,0.0016,-0.0177,-0.0158,415,2019-08-07 16:21:16:890
3.5084,-8.9568,1.767,-0.265,-0.0106,0.1355,0.0016,-0.0177,-0.0158,418,2019-08-07 16:21:16:893
3.5084,-8.9568,1.767,-0.265,-0.0106,0.1355,0.008,0.0068,-0.0052,424,2019-08-07 16:21:16:899
3.4366,-8.9711,1.8094,-0.0994,-0.0524,0.1076,0.008,0.0068,-0.0052,429,2019-08-07 16:21:16:904
3.4366,-8.9711,1.8094,-0.0994,-0.0524,0.1076,0.0187,0.0153,-0.0041,435,2019-08-07 16:21:16:910
3.3362,-8.9854,1.8424,-0.0994,-0.0524,0.1076,0.0187,0.0153,-0.0041,439,2019-08-07 16:21:16:914
3.3362,-8.9854,1.8424,-0.0994,-0.0524,0.1076,0.0261,0.0121,-0.002,444,2019-08-07 16:21:16:919
3.3362,-8.9854,1.8424,0.1255,-0.0467,0.0978,0.0261,0.0121,-0.002,449,2019-08-07 16:21:16:924
3.2357,-8.9854,1.8094,0.1255,-0.0467,0.0978,0.025,0.01,-0.0126,454,2019-08-07 16:21:16:929
3.2357,-8.9854,1.8094,0.1255,-0.0467,0.0978,0.025,0.01,-0.0126,459,2019-08-07 16:21:16:934
3.164,-8.9233,1.9084,0.1255,-0.0467,0.0978,0.0208,-0.0156,-0.0243,465,2019-08-07 16:21:16:940
3.164,-8.9233,1.9084,0.1659,-0.0404,-0.0303,0.0208,-0.0156,-0.0243,468,2019-08-07 16:21:16:943
3.164,-8.9233,1.9084,0.1659,-0.0404,-0.0303,0.0208,-0.0156,-0.0243,474,2019-08-07 16:21:16:949
3.2501,-9.0093,1.9744,0.1659,-0.0404,-0.0303,0.0314,-0.0433,-0.0307,479,2019-08-07 16:21:16:954
3.2501,-9.0093,1.9744,0.1659,-0.0404,-0.0303,0.0314,-0.0433,-0.0307,484,2019-08-07 16:21:16:959
3.2501,-9.0093,1.9744,-0.0564,-0.0897,0.0945,0.0261,-0.0571,-0.0361,488,2019-08-07 16:21:16:963
3.4175,-8.8851,1.8566,-0.0564,-0.0897,0.0945,0.0261,-0.0571,-0.0361,494,2019-08-07 16:21:16:969
3.4175,-8.8851,1.8566,-0.0564,-0.0897,0.0945,0.0208,-0.0614,-0.0414,499,2019-08-07 16:21:16:974
3.4175,-8.8851,1.8566,-0.0564,-0.0897,0.0945,0.0208,-0.0614,-0.0414,504,2019-08-07 16:21:16:979
3.5276,-8.8613,1.9037,-0.1987,-0.1383,0.0561,0.0187,-0.0656,-0.0361,509,2019-08-07 16:21:16:984
3.5276,-8.8613,1.9037,-0.1987,-0.1383,0.0561,0.0187,-0.0656,-0.0361,514,2019-08-07 16:21:16:989
3.6472,-8.8374,1.8142,-0.1987,-0.1383,0.0561,0.0176,-0.0582,-0.0307,519,2019-08-07 16:21:16:994
3.6472,-8.8374,1.8142,-0.1987,-0.1383,0.0561,0.0176,-0.0582,-0.0307,524,2019-08-07 16:21:16:999
3.6472,-8.8374,1.8142,-0.2555,-0.1491,0.0122,0.0208,-0.0454,-0.0297,528,2019-08-07 16:21:17:003
3.6376,-8.8613,1.9273,-0.2555,-0.1491,0.0122,0.0208,-0.0454,-0.0297,534,2019-08-07 16:21:17:009
3.6376,-8.8613,1.9273,-0.2555,-0.1491,0.0122,0.0208,-0.0454,-0.0297,539,2019-08-07 16:21:17:014
3.6185,-8.8279,1.8802,-0.2555,-0.1491,0.0122,0.0368,-0.0209,-0.019,544,2019-08-07 16:21:17:019
3.6185,-8.8279,1.8802,-0.2242,-0.2029,0.1008,0.0368,-0.0209,-0.019,549,2019-08-07 16:21:17:024
3.6185,-8.8279,1.8802,-0.2242,-0.2029,0.1008,0.0336,0.0026,-0.019,554,2019-08-07 16:21:17:029
3.5228,-8.8088,1.899,-0.2242,-0.2029,0.1008,0.0336,0.0026,-0.019,559,2019-08-07 16:21:17:034
3.5228,-8.8088,1.899,-0.2242,-0.2029,0.1008,0.0272,0.0249,-0.019,564,2019-08-07 16:21:17:039
3.4558,-8.8517,2.0074,-0.0763,-0.1521,-0.0718,0.0272,0.0249,-0.019,569,2019-08-07 16:21:17:044
3.4558,-8.8517,2.0074,-0.0763,-0.1521,-0.0718,0.0272,0.0249,-0.019,574,2019-08-07 16:21:17:049
3.4558,-8.8517,2.0074,-0.0763,-0.1521,-0.0718,0.0218,0.0302,-0.0243,579,2019-08-07 16:21:17:054
3.3601,-8.909,1.998,-0.0763,-0.1521,-0.0718,0.0218,0.0302,-0.0243,584,2019-08-07 16:21:17:059
3.3601,-8.909,1.998,0.0564,-0.0778,-0.0987,0.0091,0.0153,-0.0307,589,2019-08-07 16:21:17:064
3.3314,-8.952,2.1064,0.0564,-0.0778,-0.0987,0.0091,0.0153,-0.0307,594,2019-08-07 16:21:17:069
3.3314,-8.952,2.1064,0.0564,-0.0778,-0.0987,-5.0E-4,-0.0145,-0.0403,599,2019-08-07 16:21:17:074
3.3314,-8.952,2.1064,0.0564,-0.0778,-0.0987,-5.0E-4,-0.0145,-0.0403,604,2019-08-07 16:21:17:079
3.3554,-9.0236,2.0593,0.0449,0.0253,-0.0844,5.0E-4,-0.0326,-0.0457,609,2019-08-07 16:21:17:084
3.3554,-9.0236,2.0593,0.0449,0.0253,-0.0844,5.0E-4,-0.0326,-0.0457,613,2019-08-07 16:21:17:088
3.3554,-9.0236,2.0593,0.0449,0.0253,-0.0844,0.0101,-0.0475,-0.0488,619,2019-08-07 16:21:17:094
3.3601,-8.952,1.9414,0.0449,0.0253,-0.0844,0.0101,-0.0475,-0.0488,623,2019-08-07 16:21:17:098
3.3601,-8.952,1.9414,0.0449,0.0253,-0.0844,0.0187,-0.0592,-0.0499,629,2019-08-07 16:21:17:104
3.4606,-8.9186,2.0121,-0.0687,-0.0854,-0.0665,0.0187,-0.0592,-0.0499,634,2019-08-07 16:21:17:109
3.4606,-8.9186,2.0121,-0.0687,-0.0854,-0.0665,0.0314,-0.0752,-0.051,639,2019-08-07 16:21:17:114
3.4606,-8.9186,2.0121,-0.0687,-0.0854,-0.0665,0.0314,-0.0752,-0.051,643,2019-08-07 16:21:17:118
3.5802,-8.9424,1.9273,-0.0687,-0.0854,-0.0665,0.0368,-0.0443,-0.0584,649,2019-08-07 16:21:17:124
3.5802,-8.9424,1.9273,-0.237,-0.1229,0.0387,0.0368,-0.0443,-0.0584,653,2019-08-07 16:21:17:128
3.6376,-8.7515,1.8802,-0.237,-0.1229,0.0387,0.0282,-0.0102,-0.0595,659,2019-08-07 16:21:17:134
3.6376,-8.7515,1.8802,-0.237,-0.1229,0.0387,0.0282,-0.0102,-0.0595,665,2019-08-07 16:21:17:140
3.6376,-8.7515,1.8802,-0.237,-0.1229,0.0387,0.0282,-0.0102,-0.0595,668,2019-08-07 16:21:17:143
3.5228,-8.8517,1.9791,-0.0952,-0.1314,-0.0319,0.0187,0.0249,-0.0606,674,2019-08-07 16:21:17:149
3.5228,-8.8517,1.9791,-0.0952,-0.1314,-0.0319,0.0187,0.0249,-0.0606,679,2019-08-07 16:21:17:154
3.4463,-8.9377,2.0216,-0.0138,-0.043,-0.0715,0.0112,0.0441,-0.0595,684,2019-08-07 16:21:17:159
3.4463,-8.9377,2.0216,-0.0138,-0.043,-0.0715,0.0112,0.0441,-0.0595,689,2019-08-07 16:21:17:164
3.4463,-8.9377,2.0216,-0.0138,-0.043,-0.0715,5.0E-4,0.0366,-0.0563,694,2019-08-07 16:21:17:169
3.3171,-8.8852,2.0357,-0.0138,-0.043,-0.0715,5.0E-4,0.0366,-0.0563,699,2019-08-07 16:21:17:174
3.3171,-8.8852,2.0357,0.1287,-0.0723,-0.1101,-0.009,0.0015,-0.0499,704,2019-08-07 16:21:17:179
3.3219,-8.9329,1.965,0.1287,-0.0723,-0.1101,-0.009,0.0015,-0.0499,710,2019-08-07 16:21:17:185
3.3219,-8.9329,1.965,0.109,-0.0231,-0.0354,-0.0069,-0.0283,-0.0457,715,2019-08-07 16:21:17:190
3.3219,-8.9329,1.965,0.109,-0.0231,-0.0354,-0.0069,-0.0283,-0.0457,718,2019-08-07 16:21:17:193
3.4606,-8.9424,1.8707,0.109,-0.0231,-0.0354,-0.0069,-0.0283,-0.0457,724,2019-08-07 16:21:17:199
3.4606,-8.9424,1.8707,0.109,-0.0231,-0.0354,-0.0069,-0.0507,-0.0414,728,2019-08-07 16:21:17:203
3.5707,-8.8804,1.8472,-0.1301,-0.0871,0.078,-0.0069,-0.0507,-0.0414,734,2019-08-07 16:21:17:209
3.5707,-8.8804,1.8472,-0.1301,-0.0871,0.078,0.0048,-0.0465,-0.0329,738,2019-08-07 16:21:17:213
3.5707,-8.8804,1.8472,-0.1301,-0.0871,0.078,0.0048,-0.0465,-0.0329,744,2019-08-07 16:21:17:219
3.6999,-8.8517,1.7482,-0.1301,-0.0871,0.078,0.0155,-0.0209,-0.0329,749,2019-08-07 16:21:17:224
3.6999,-8.8517,1.7482,-0.2114,-0.1746,0.2267,0.0155,-0.0209,-0.0329,754,2019-08-07 16:21:17:229
3.6999,-8.8517,1.7482,-0.2114,-0.1746,0.2267,0.0155,-0.0209,-0.0329,758,2019-08-07 16:21:17:233
3.6759,-8.8088,1.6916,-0.1749,-0.135,0.2087,0.0123,0.0271,-0.0222,764,2019-08-07 16:21:17:239
3.6759,-8.8088,1.6916,-0.1749,-0.135,0.2087,0.0123,0.0271,-0.0222,769,2019-08-07 16:21:17:244
3.5229,-8.8517,1.8472,-0.1749,-0.135,0.2087,0.0101,0.0633,-0.019,774,2019-08-07 16:21:17:249
3.5229,-8.8517,1.8472,-0.1749,-0.135,0.2087,0.0101,0.0633,-0.019,779,2019-08-07 16:21:17:254
3.5229,-8.8517,1.8472,0.1237,-0.0901,0.054,0.0059,0.0707,-0.0297,784,2019-08-07 16:21:17:259
3.3267,-8.8947,1.9414,0.1237,-0.0901,0.054,0.0059,0.0707,-0.0297,790,2019-08-07 16:21:17:265
3.3267,-8.8947,1.9414,0.1237,-0.0901,0.054,-0.0037,0.0441,-0.0371,794,2019-08-07 16:21:17:269
3.2836,-8.8326,1.9367,0.1237,-0.0901,0.054,-0.0037,0.0441,-0.0371,799,2019-08-07 16:21:17:274
3.2836,-8.8326,1.9367,0.2136,-0.0831,0.0196,-0.0037,0.0441,-0.0371,803,2019-08-07 16:21:17:278
3.2836,-8.8326,1.9367,0.2136,-0.0831,0.0196,-0.0048,0.01,-0.0542,809,2019-08-07 16:21:17:284
3.2454,-8.8517,1.9839,0.2136,-0.0831,0.0196,-0.0048,0.01,-0.0542,814,2019-08-07 16:21:17:289
3.2454,-8.8517,1.9839,0.2136,-0.0831,0.0196,-0.0101,-0.023,-0.068,819,2019-08-07 16:21:17:294
3.2789,-8.7945,1.8707,0.2053,-0.1653,0.0836,-0.0101,-0.023,-0.068,824,2019-08-07 16:21:17:299
3.2789,-8.7945,1.8707,0.2053,-0.1653,0.0836,-0.009,-0.056,-0.0702,830,2019-08-07 16:21:17:305
3.2789,-8.7945,1.8707,0.2053,-0.1653,0.0836,-0.009,-0.056,-0.0702,834,2019-08-07 16:21:17:309
3.4511,-8.7801,1.9037,0.2053,-0.1653,0.0836,-5.0E-4,-0.072,-0.0765,838,2019-08-07 16:21:17:313
3.4511,-8.7801,1.9037,-0.1468,-0.1792,0.1063,-5.0E-4,-0.072,-0.0765,844,2019-08-07 16:21:17:319
3.7334,-8.8231,1.8519,-0.1468,-0.1792,0.1063,-5.0E-4,-0.072,-0.0765,848,2019-08-07 16:21:17:323
3.7334,-8.8231,1.8519,-0.1468,-0.1792,0.1063,0.0027,-0.0603,-0.0797,854,2019-08-07 16:21:17:329
3.7334,-8.8231,1.8519,-0.1468,-0.1792,0.1063,0.0027,-0.0603,-0.0797,859,2019-08-07 16:21:17:334
3.8099,-8.7467,1.7812,-0.2946,-0.2156,0.1815,-0.0027,-0.0283,-0.0851,864,2019-08-07 16:21:17:339
3.8099,-8.7467,1.7812,-0.2946,-0.2156,0.1815,-0.0027,-0.0283,-0.0851,869,2019-08-07 16:21:17:344
3.8099,-8.7467,1.7812,-0.2946,-0.2156,0.1815,-0.0027,-0.0283,-0.0851,874,2019-08-07 16:21:17:349
3.8386,-8.8231,1.8519,-0.3095,-0.1216,0.0908,-0.0058,0.01,-0.0808,879,2019-08-07 16:21:17:354
3.8386,-8.8231,1.8519,-0.3095,-0.1216,0.0908,-0.0058,0.01,-0.0808,884,2019-08-07 16:21:17:359
3.7143,-8.8231,1.8896,-0.3095,-0.1216,0.0908,-0.0058,0.0313,-0.0872,889,2019-08-07 16:21:17:364
3.7143,-8.8231,1.8896,-0.1309,-0.0246,0.0578,-0.0058,0.0313,-0.0872,894,2019-08-07 16:21:17:369
3.7143,-8.8231,1.8896,-0.1309,-0.0246,0.0578,-0.008,0.0302,-0.0915,899,2019-08-07 16:21:17:374
3.6903,-8.8995,1.9085,-0.1309,-0.0246,0.0578,-0.008,0.0302,-0.0915,904,2019-08-07 16:21:17:379
3.6903,-8.8995,1.9085,-0.1309,-0.0246,0.0578,-0.0027,0.0164,-0.1,909,2019-08-07 16:21:17:384
3.6903,-8.8995,1.9085,-0.0846,-0.0461,-0.0312,-0.0027,0.0164,-0.1,914,2019-08-07 16:21:17:389
3.6473,-8.8852,1.9744,-0.0846,-0.0461,-0.0312,0.0027,-0.0017,-0.1149,919,2019-08-07 16:21:17:394
3.6473,-8.8852,1.9744,-0.0846,-0.0461,-0.0312,0.0027,-0.0017,-0.1149,924,2019-08-07 16:21:17:399
3.6569,-8.7706,2.0074,-0.0846,-0.0461,-0.0312,0.0144,-0.0102,-0.1224,929,2019-08-07 16:21:17:404
3.6569,-8.7706,2.0074,-0.1,-0.1941,-0.1141,0.0144,-0.0102,-0.1224,934,2019-08-07 16:21:17:409
3.7717,-8.7706,2.0216,-0.1,-0.1941,-0.1141,0.0187,-0.0177,-0.1298,939,2019-08-07 16:21:17:414
3.7717,-8.7706,2.0216,-0.1,-0.1941,-0.1141,0.0187,-0.0177,-0.1298,944,2019-08-07 16:21:17:419
3.7717,-8.7706,2.0216,-0.1,-0.1941,-0.1141,0.024,-6.0E-4,-0.1394,949,2019-08-07 16:21:17:424
3.7717,-8.6703,2.0593,-0.1,-0.1941,-0.1141,0.024,-6.0E-4,-0.1394,953,2019-08-07 16:21:17:428
3.7717,-8.6703,2.0593,-0.1359,-0.2542,-0.0867,0.024,-6.0E-4,-0.1394,959,2019-08-07 16:21:17:434
3.7717,-8.6703,2.0593,-0.1359,-0.2542,-0.0867,0.025,0.0217,-0.1383,964,2019-08-07 16:21:17:439
3.7143,-8.6751,1.998,-0.1359,-0.2542,-0.0867,0.025,0.0217,-0.1383,968,2019-08-07 16:21:17:443
3.7143,-8.6751,1.998,-0.0395,-0.1614,0.0148,0.0229,0.0462,-0.1309,974,2019-08-07 16:21:17:449
3.6617,-8.7706,1.965,-0.0395,-0.1614,0.0148,0.0229,0.0462,-0.1309,979,2019-08-07 16:21:17:454
3.6617,-8.7706,1.965,-0.0395,-0.1614,0.0148,0.0197,0.0537,-0.1234,984,2019-08-07 16:21:17:459
3.6617,-8.7706,1.965,-0.0395,-0.1614,0.0148,0.0197,0.0537,-0.1234,989,2019-08-07 16:21:17:464
3.5564,-8.7467,1.9179,-0.0395,-0.1614,0.0148,0.0208,0.0494,-0.1181,994,2019-08-07 16:21:17:469
3.5564,-8.7467,1.9179,0.1199,-0.1752,0.0833,0.0208,0.0494,-0.1181,998,2019-08-07 16:21:17:473
3.5803,-8.7467,1.8472,0.1199,-0.1752,0.0833,0.0176,0.0366,-0.1085,1003,2019-08-07 16:21:17:478
3.5803,-8.7467,1.8472,0.1199,-0.1752,0.0833,0.0176,0.0366,-0.1085,1009,2019-08-07 16:21:17:484
3.5803,-8.7467,1.8472,0.1199,-0.1752,0.0833,0.024,0.0388,-0.0989,1014,2019-08-07 16:21:17:489
3.6282,-8.7849,1.8425,0.0467,-0.095,0.1271,0.024,0.0388,-0.0989,1019,2019-08-07 16:21:17:494
3.6282,-8.7849,1.8425,0.0467,-0.095,0.1271,0.024,0.0388,-0.0989,1024,2019-08-07 16:21:17:499
3.5756,-8.8279,1.7765,0.0467,-0.095,0.1271,0.024,0.0547,-0.0904,1028,2019-08-07 16:21:17:503
3.5756,-8.8279,1.7765,0.0467,-0.095,0.1271,0.024,0.0547,-0.0904,1034,2019-08-07 16:21:17:509
3.5756,-8.8279,1.7765,0.0657,0.0033,0.2475,0.0197,0.0846,-0.0872,1038,2019-08-07 16:21:17:513
3.5229,-8.9138,1.767,0.0657,0.0033,0.2475,0.0197,0.0846,-0.0872,1044,2019-08-07 16:21:17:519
3.5229,-8.9138,1.767,0.0657,0.0033,0.2475,0.0112,0.1006,-0.084,1049,2019-08-07 16:21:17:524
3.5229,-8.9138,1.767,0.0657,0.0033,0.2475,0.0112,0.1006,-0.084,1053,2019-08-07 16:21:17:528
3.3172,-8.9854,1.8425,0.3816,0.1188,0.1423,0.008,0.1048,-0.0787,1059,2019-08-07 16:21:17:534
3.3172,-8.9854,1.8425,0.3816,0.1188,0.1423,0.008,0.1048,-0.0787,1064,2019-08-07 16:21:17:539
3.1641,-9.0904,1.8189,0.5376,0.226,0.1698,0.008,0.1048,-0.0787,1069,2019-08-07 16:21:17:544
3.1641,-9.0904,1.8189,0.5376,0.226,0.1698,0.008,0.1048,-0.0787,1074,2019-08-07 16:21:17:549
3.1641,-9.0904,1.8189,0.5376,0.226,0.1698,0.0037,0.0899,-0.0733,1079,2019-08-07 16:21:17:554
3.0302,-9.2909,1.8849,0.5376,0.226,0.1698,0.0037,0.0899,-0.0733,1083,2019-08-07 16:21:17:558
3.0302,-9.2909,1.8849,0.7145,0.5774,0.0987,-0.0016,0.0409,-0.0691,1089,2019-08-07 16:21:17:564
2.9393,-9.6251,1.8378,0.7145,0.5774,0.0987,-0.0016,0.0409,-0.0691,1094,2019-08-07 16:21:17:569
2.9393,-9.6251,1.8378,0.7145,0.5774,0.0987,0.0155,0.0239,-0.067,1098,2019-08-07 16:21:17:573
2.9393,-9.6251,1.8378,0.7145,0.5774,0.0987,0.0155,0.0239,-0.067,1104,2019-08-07 16:21:17:579
2.8914,-10.26,1.9603,0.8703,1.6055,0.0164,0.0346,0.0239,-0.0552,1108,2019-08-07 16:21:17:583
2.8914,-10.26,1.9603,0.8703,1.6055,0.0164,0.0346,0.0239,-0.0552,1114,2019-08-07 16:21:17:589
2.7718,-11.2005,2.3893,0.8703,1.6055,0.0164,0.0346,0.0239,-0.0552,1119,2019-08-07 16:21:17:594
2.7718,-11.2005,2.3893,0.8703,1.6055,0.0164,0.1071,0.0388,-0.0414,1124,2019-08-07 16:21:17:599
2.7718,-11.2005,2.3893,0.9614,3.2356,-0.795,0.1071,0.0388,-0.0414,1129,2019-08-07 16:21:17:604
2.7575,-12.3128,2.9408,0.9614,3.2356,-0.795,0.204,0.0537,-0.0233,1133,2019-08-07 16:21:17:608
2.7575,-12.3128,2.9408,0.9614,3.2356,-0.795,0.204,0.0537,-0.0233,1139,2019-08-07 16:21:17:614
2.724,-13.3869,3.332,0.9614,3.2356,-0.795,0.3105,0.0814,0.0161,1144,2019-08-07 16:21:17:619
2.724,-13.3869,3.332,0.9636,5.1033,-1.474,0.3105,0.0814,0.0161,1149,2019-08-07 16:21:17:624
2.724,-13.3869,3.332,0.9636,5.1033,-1.474,0.4128,0.14,0.0758,1154,2019-08-07 16:21:17:629
2.6474,-15.2678,4.4539,0.9636,5.1033,-1.474,0.4128,0.14,0.0758,1159,2019-08-07 16:21:17:634
2.6474,-15.2678,4.4539,0.9636,5.1033,-1.474,0.5321,0.2231,0.1599,1164,2019-08-07 16:21:17:639
2.6474,-15.2678,4.4539,0.8108,8.451,-3.304,0.5321,0.2231,0.1599,1169,2019-08-07 16:21:17:644
2.9297,-17.8743,5.7502,0.8108,8.451,-3.304,0.6844,0.4233,0.2739,1173,2019-08-07 16:21:17:648
2.9297,-17.8743,5.7502,0.8108,8.451,-3.304,0.6844,0.4233,0.2739,1179,2019-08-07 16:21:17:654
3.4608,-21.3926,6.8203,0.8108,8.451,-3.304,0.8986,0.7962,0.4188,1184,2019-08-07 16:21:17:659
3.4608,-21.3926,6.8203,-0.5651,14.2384,-4.7424,0.8986,0.7962,0.4188,1189,2019-08-07 16:21:17:664
3.4608,-21.3926,6.8203,-0.5651,14.2384,-4.7424,1.2096,1.4673,0.5775,1193,2019-08-07 16:21:17:668
4.9248,-25.942,7.4095,-0.5651,14.2384,-4.7424,1.2096,1.4673,0.5775,1199,2019-08-07 16:21:17:674
4.9248,-25.942,7.4095,-0.5651,14.2384,-4.7424,1.7913,2.8915,0.8183,1203,2019-08-07 16:21:17:678
4.9248,-25.942,7.4095,-0.5651,14.2384,-4.7424,1.7913,2.8915,0.8183,1209,2019-08-07 16:21:17:684
5.9438,-31.5751,5.8162,-2.6681,22.7612,-3.0198,2.2227,4.482,1.2146,1214,2019-08-07 16:21:17:689
5.9438,-31.5751,5.8162,-2.6681,22.7612,-3.0198,2.2227,4.482,1.2146,1219,2019-08-07 16:21:17:694
4.5612,-34.2437,0.796,-2.6681,22.7612,-3.0198,2.2227,4.482,1.2146,1224,2019-08-07 16:21:17:699
4.5612,-34.2437,0.796,-2.6681,22.7612,-3.0198,2.4869,6.8277,2.1403,1228,2019-08-07 16:21:17:703
4.5612,-34.2437,0.796,-0.8119,24.4825,4.7985,2.4869,6.8277,2.1403,1234,2019-08-07 16:21:17:709
0.8725,-31.9809,-3.6821,-0.8119,24.4825,4.7985,2.4006,9.1691,3.3142,1239,2019-08-07 16:21:17:714
0.8725,-31.9809,-3.6821,-0.8119,24.4825,4.7985,2.4006,9.1691,3.3142,1244,2019-08-07 16:21:17:719
-3.6725,-31.6467,-5.4356,5.0416,22.9165,9.6954,2.0767,11.3029,4.1888,1250,2019-08-07 16:21:17:725
-3.6725,-31.6467,-5.4356,5.0416,22.9165,9.6954,2.0767,11.3029,4.1888,1254,2019-08-07 16:21:17:729
-3.6725,-31.6467,-5.4356,5.0416,22.9165,9.6954,1.4269,12.4747,4.7704,1259,2019-08-07 16:21:17:734
-6.3947,-30.9211,-4.4269,5.0416,22.9165,9.6954,1.4269,12.4747,4.7704,1264,2019-08-07 16:21:17:739
-6.3947,-30.9211,-4.4269,7.554,21.4809,9.9655,1.4269,12.4747,4.7704,1269,2019-08-07 16:21:17:744
-6.3947,-30.9211,-4.4269,7.554,21.4809,9.9655,0.073,12.8454,4.8631,1274,2019-08-07 16:21:17:749
-8.9878,-29.9043,-6.1474,8.2055,21.3018,12.1716,0.073,12.8454,4.8631,1280,2019-08-07 16:21:17:755
-8.9878,-29.9043,-6.1474,8.2055,21.3018,12.1716,-0.939,12.8731,4.4679,1284,2019-08-07 16:21:17:759
-12.2124,-32.0573,-10.5595,8.2055,21.3018,12.1716,-0.939,12.8731,4.4679,1289,2019-08-07 16:21:17:764
-12.2124,-32.0573,-10.5595,8.2055,21.3018,12.1716,-1.6101,13.4643,3.4047,1294,2019-08-07 16:21:17:769
-12.2124,-32.0573,-10.5595,8.2055,21.3018,12.1716,-1.6101,13.4643,3.4047,1300,2019-08-07 16:21:17:775
-17.1019,-33.351,-8.0942,12.6705,24.792,12.5294,-1.6101,13.4643,3.4047,1303,2019-08-07 16:21:17:778
-17.1019,-33.351,-8.0942,12.6705,24.792,12.5294,-1.2543,14.0257,1.4638,1309,2019-08-07 16:21:17:784
-17.1019,-33.351,-8.0942,12.6705,24.792,12.5294,0.1667,12.448,0.1099,1314,2019-08-07 16:21:17:789
-19.0777,-30.7111,3.8506,12.6705,24.792,12.5294,0.1667,12.448,0.1099,1319,2019-08-07 16:21:17:794
-19.0777,-30.7111,3.8506,13.1311,20.0726,-6.7997,0.1667,12.448,0.1099,1324,2019-08-07 16:21:17:799
-19.0777,-30.7111,3.8506,13.1311,20.0726,-6.7997,2.4198,7.7928,-0.8851,1329,2019-08-07 16:21:17:804
-13.0161,-24.9443,14.9563,13.1311,20.0726,-6.7997,2.4198,7.7928,-0.8851,1334,2019-08-07 16:21:17:809
-13.0161,-24.9443,14.9563,13.1311,20.0726,-6.7997,5.77,0.9006,-2.4776,1339,2019-08-07 16:21:17:814
-5.8589,-19.125,12.9246,1.5659,10.6323,-10.5411,5.77,0.9006,-2.4776,1344,2019-08-07 16:21:17:819
-5.8589,-19.125,12.9246,1.5659,10.6323,-10.5411,8.2425,-1.3983,-4.4473,1350,2019-08-07 16:21:17:825
-5.8589,-19.125,12.9246,1.5659,10.6323,-10.5411,8.2425,-1.3983,-4.4473,1353,2019-08-07 16:21:17:828
-5.0695,-8.3887,-8.0659,1.5659,10.6323,-10.5411,10.1557,0.9549,-6.0505,1359,2019-08-07 16:21:17:834
-5.0695,-8.3887,-8.0659,4.4844,-12.6997,16.4449,10.1557,0.9549,-6.0505,1365,2019-08-07 16:21:17:840
-8.5333,60.0249,-8.7212,4.4844,-12.6997,16.4449,10.1557,0.9549,-6.0505,1368,2019-08-07 16:21:17:843
-8.5333,60.0249,-8.7212,4.4844,-12.6997,16.4449,1.5675,-0.0209,-5.4806,1374,2019-08-07 16:21:17:849
-8.5333,60.0249,-8.7212,4.4844,-12.6997,16.4449,1.5675,-0.0209,-5.4806,1379,2019-08-07 16:21:17:854
-1.4956,111.1048,48.9806,-1.0786,-119.3222,-44.2813,8.3661,-2.5029,-4.964,1383,2019-08-07 16:21:17:858
-1.4956,111.1048,48.9806,-1.0786,-119.3222,-44.2813,8.3661,-2.5029,-4.964,1389,2019-08-07 16:21:17:864
-1.4956,111.1048,48.9806,-1.0786,-119.3222,-44.2813,12.3022,-5.4921,-3.2766,1394,2019-08-07 16:21:17:869
-7.8013,57.1893,-21.1232,-1.0786,-119.3222,-44.2813,12.3022,-5.4921,-3.2766,1399,2019-08-07 16:21:17:874
-7.8013,57.1893,-21.1232,-10.0313,-55.8628,19.3796,5.7913,-3.1538,1.5544,1404,2019-08-07 16:21:17:879
-7.8013,57.1893,-21.1232,-10.0313,-55.8628,19.3796,5.7913,-3.1538,1.5544,1408,2019-08-07 16:21:17:883
20.9042,52.4059,-14.3872,-25.4519,-59.989,23.2995,5.7913,-3.1538,1.5544,1414,2019-08-07 16:21:17:889
20.9042,52.4059,-14.3872,-25.4519,-59.989,23.2995,3.1782,0.026,3.3099,1419,2019-08-07 16:21:17:894
20.9042,52.4059,-14.3872,-25.4519,-59.989,23.2995,3.1782,0.026,3.3099,1424,2019-08-07 16:21:17:899
32.2141,38.137,-20.4538,-25.4519,-59.989,23.2995,-1.0967,1.0976,3.0149,1429,2019-08-07 16:21:17:904
32.2141,38.137,-20.4538,-20.9151,-38.4792,31.2396,-1.0967,1.0976,3.0149,1434,2019-08-07 16:21:17:909
4.1593,29.5298,-19.2047,-20.9151,-38.4792,31.2396,-5.0573,3.5403,1.2135,1439,2019-08-07 16:21:17:914
4.1593,29.5298,-19.2047,-20.9151,-38.4792,31.2396,-5.0573,3.5403,1.2135,1444,2019-08-07 16:21:17:919
4.1593,29.5298,-19.2047,-20.9151,-38.4792,31.2396,-6.8789,5.2511,1.0132,1450,2019-08-07 16:21:17:925
-11.8966,25.8014,12.3779,9.2051,-33.0662,-6.36,-6.8789,5.2511,1.0132,1453,2019-08-07 16:21:17:928
-11.8966,25.8014,12.3779,9.2051,-33.0662,-6.36,-6.8789,5.2511,1.0132,1459,2019-08-07 16:21:17:934
-11.8966,25.8014,12.3779,9.2051,-33.0662,-6.36,-7.1815,2.3333,1.7355,1464,2019-08-07 16:21:17:939
-14.9585,17.3708,18.7839,11.961,-24.9782,-13.3637,-7.1815,2.3333,1.7355,1469,2019-08-07 16:21:17:944
-14.9585,17.3708,18.7839,11.961,-24.9782,-13.3637,-3.7055,1.1903,2.8029,1474,2019-08-07 16:21:17:949
-6.366,7.3172,8.2957,11.961,-24.9782,-13.3637,-3.7055,1.1903,2.8029,1479,2019-08-07 16:21:17:954
-6.366,7.3172,8.2957,-1.932,-14.0384,-3.7283,-2.0075,-0.0305,1.8303,1484,2019-08-07 16:21:17:959
-6.366,7.3172,8.2957,-1.932,-14.0384,-3.7283,-2.0075,-0.0305,1.8303,1489,2019-08-07 16:21:17:964
-2.7634,7.2217,2.2762,-1.932,-14.0384,-3.7283,-2.0991,-2.9248,0.6414,1494,2019-08-07 16:21:17:969
-2.7634,7.2217,2.2762,-1.932,-14.0384,-3.7283,-2.0991,-2.9248,0.6414,1499,2019-08-07 16:21:17:974
-8.9542,7.828,-8.3723,5.4639,-15.7697,12.9529,-3.5063,-4.6835,0.34,1503,2019-08-07 16:21:17:978
-8.9542,7.828,-8.3723,5.4639,-15.7697,12.9529,-3.5063,-4.6835,0.34,1509,2019-08-07 16:21:17:984
-8.9542,7.828,-8.3723,5.4639,-15.7697,12.9529,-4.7718,-5.6476,0.8023,1514,2019-08-07 16:21:17:989
-10.0738,4.1903,-1.7494,5.4639,-15.7697,12.9529,-4.7718,-5.6476,0.8023,1519,2019-08-07 16:21:17:994
-10.0738,4.1903,-1.7494,4.1559,-8.5943,-5.9777,-4.7718,-5.6476,0.8023,1524,2019-08-07 16:21:17:999
-6.5765,-2.0443,17.6149,4.1559,-8.5943,-5.9777,-5.7402,-8.8455,1.891,1529,2019-08-07 16:21:18:004
-6.5765,-2.0443,17.6149,4.1559,-8.5943,-5.9777,-5.7402,-8.8455,1.891,1534,2019-08-07 16:21:18:009
-6.5765,-2.0443,17.6149,4.1559,-8.5943,-5.9777,-3.5585,-9.6338,2.0465,1539,2019-08-07 16:21:18:014
-7.9256,-8.8804,0.6735,4.5542,2.1679,3.9696,-3.5585,-9.6338,2.0465,1544,2019-08-07 16:21:18:019
-7.9256,-8.8804,0.6735,4.5542,2.1679,3.9696,-3.1761,-9.7808,2.1009,1549,2019-08-07 16:21:18:024
-7.9256,-8.8804,0.6735,4.5542,2.1679,3.9696,-3.1761,-9.7808,2.1009,1554,2019-08-07 16:21:18:029
-1.1368,-26.3383,-3.7387,4.5542,2.1679,3.9696,-2.9811,-9.5529,1.3882,1559,2019-08-07 16:21:18:034
-1.1368,-26.3383,-3.7387,-6.6278,39.2713,11.4232,-2.9811,-9.5529,1.3882,1564,2019-08-07 16:21:18:039
8.2738,-56.9575,-4.4363,-6.6278,39.2713,11.4232,-3.2229,-6.9781,-0.4803,1568,2019-08-07 16:21:18:043
8.2738,-56.9575,-4.4363,-6.6278,39.2713,11.4232,-3.2229,-6.9781,-0.4803,1574,2019-08-07 16:21:18:049
8.2738,-56.9575,-4.4363,-11.9903,44.8184,2.0711,-2.604,-5.4154,-2.1133,1578,2019-08-07 16:21:18:053
2.9633,-29.2169,13.2593,-11.9903,44.8184,2.0711,-2.604,-5.4154,-2.1133,1584,2019-08-07 16:21:18:059
2.9633,-29.2169,13.2593,-11.9903,44.8184,2.0711,0.2999,-3.5458,-2.1155,1588,2019-08-07 16:21:18:063
-5.9354,-19.1059,9.1442,4.6792,10.0987,-5.4662,0.2999,-3.5458,-2.1155,1594,2019-08-07 16:21:18:069
-5.9354,-19.1059,9.1442,4.6792,10.0987,-5.4662,2.8278,-1.5069,-1.0257,1599,2019-08-07 16:21:18:074
-5.9354,-19.1059,9.1442,4.6792,10.0987,-5.4662,2.8278,-1.5069,-1.0257,1604,2019-08-07 16:21:18:079
-3.8399,-32.8736,-1.2403,4.6792,10.0987,-5.4662,2.1257,-2.0129,-0.3823,1609,2019-08-07 16:21:18:084
-3.8399,-32.8736,-1.2403,6.4645,22.0115,7.7938,2.1257,-2.0129,-0.3823,1614,2019-08-07 16:21:18:089
-10.49,-28.138,-2.5696,6.4645,22.0115,7.7938,-0.726,-2.0374,-0.5698,1619,2019-08-07 16:21:18:094
-10.49,-28.138,-2.5696,6.4645,22.0115,7.7938,-0.726,-2.0374,-0.5698,1624,2019-08-07 16:21:18:099
-10.49,-28.138,-2.5696,13.2768,16.8684,0.804,-0.726,-2.0374,-0.5698,1629,2019-08-07 16:21:18:104
-18.2308,-23.283,13.6082,13.2768,16.8684,0.804,-2.7468,-3.695,-0.7296,1635,2019-08-07 16:21:18:110
-18.2308,-23.283,13.6082,13.2768,16.8684,0.804,-2.7468,-3.695,-0.7296,1638,2019-08-07 16:21:18:113
-20.0489,-22.9727,10.4782,14.1377,14.544,-5.7309,-2.2003,-5.6923,-0.2832,1644,2019-08-07 16:21:18:119
-20.0489,-22.9727,10.4782,14.1377,14.544,-5.7309,-2.2003,-5.6923,-0.2832,1649,2019-08-07 16:21:18:124
-20.0489,-22.9727,10.4782,14.1377,14.544,-5.7309,-1.1414,-7.2945,-0.8616,1654,2019-08-07 16:21:18:129
-6.2368,-24.3619,6.7684,14.1377,14.544,-5.7309,-1.1414,-7.2945,-0.8616,1659,2019-08-07 16:21:18:134
-6.2368,-24.3619,6.7684,6.237,14.6214,6.9066,-0.6695,-5.7254,-1.2696,1664,2019-08-07 16:21:18:139
-4.3422,-23.7986,-1.6646,6.237,14.6214,6.9066,-0.6695,-5.7254,-1.2696,1669,2019-08-07 16:21:18:144
-4.3422,-23.7986,-1.6646,6.237,14.6214,6.9066,-0.6695,-5.7254,-1.2696,1674,2019-08-07 16:21:18:149
-4.3422,-23.7986,-1.6646,2.6725,12.6819,1.0663,-1.1499,-2.9014,-0.8222,1680,2019-08-07 16:21:18:155
-2.8543,-20.1705,3.4971,2.6725,12.6819,1.0663,-1.1499,-2.9014,-0.8222,1684,2019-08-07 16:21:18:159
-2.8543,-20.1705,3.4971,2.6725,12.6819,1.0663,-0.6993,-0.5098,-0.2427,1689,2019-08-07 16:21:18:164
-2.8543,-20.1705,3.4971,2.6725,12.6819,1.0663,-0.6993,-0.5098,-0.2427,1694,2019-08-07 16:21:18:169
-4.3422,-17.4828,5.5994,4.9245,8.242,-2.3585,-0.22,0.4617,0.1653,1700,2019-08-07 16:21:18:175
-4.3422,-17.4828,5.5994,4.9245,8.242,-2.3585,-0.22,0.4617,0.1653,1704,2019-08-07 16:21:18:179
-4.223,-16.3753,4.0202,4.9245,8.242,-2.3585,-0.1688,0.565,0.1322,1709,2019-08-07 16:21:18:184
-4.223,-16.3753,4.0202,4.9245,8.242,-2.3585,-0.1688,0.565,0.1322,1714,2019-08-07 16:21:18:189
-4.223,-16.3753,4.0202,4.7818,5.2645,-0.7174,-0.1688,0.565,0.1322,1718,2019-08-07 16:21:18:193
-4.1369,-12.9763,4.2229,4.7818,5.2645,-0.7174,-0.3925,-0.0965,-0.1245,1724,2019-08-07 16:21:18:199
-4.1369,-12.9763,4.2229,4.7818,5.2645,-0.7174,-0.3925,-0.0965,-0.1245,1729,2019-08-07 16:21:18:204
-1.8452,-10.2123,2.9219,4.7818,5.2645,-0.7174,-0.3766,-0.7921,-0.2257,1734,2019-08-07 16:21:18:209
-1.8452,-10.2123,2.9219,1.7678,0.4769,1.0557,-0.3766,-0.7921,-0.2257,1739,2019-08-07 16:21:18:214
-1.8452,-10.2123,2.9219,1.7678,0.4769,1.0557,-0.2029,-1.7104,-0.4068,1744,2019-08-07 16:21:18:219
1.2311,-8.5176,0.1077,1.7678,0.4769,1.0557,-0.2029,-1.7104,-0.4068,1750,2019-08-07 16:21:18:225
1.2311,-8.5176,0.1077,1.7678,0.4769,1.0557,0.0559,-2.0832,-0.6284,1753,2019-08-07 16:21:18:228
3.0156,-7.009,-0.8822,-2.0489,-1.9663,3.6919,0.0559,-2.0832,-0.6284,1759,2019-08-07 16:21:18:234
3.0156,-7.009,-0.8822,-2.0489,-1.9663,3.6919,0.3073,-2.1152,-0.6774,1765,2019-08-07 16:21:18:240
3.0156,-7.009,-0.8822,-2.0489,-1.9663,3.6919,0.3073,-2.1152,-0.6774,1769,2019-08-07 16:21:18:244
4.0346,-6.1497,-0.3495,-2.0489,-1.9663,3.6919,0.3073,-2.1152,-0.6774,1774,2019-08-07 16:21:18:249
4.0346,-6.1497,-0.3495,-3.1612,-3.4143,3.9836,0.8421,-1.9,-0.5943,1778,2019-08-07 16:21:18:253
4.5226,-5.6198,-1.3724,-3.1612,-3.4143,3.9836,0.8421,-1.9,-0.5943,1784,2019-08-07 16:21:18:259
4.5226,-5.6198,-1.3724,-3.1612,-3.4143,3.9836,0.8805,-1.3738,-0.3897,1789,2019-08-07 16:21:18:264
4.5226,-5.6198,-1.3724,-3.1612,-3.4143,3.9836,0.8805,-1.3738,-0.3897,1794,2019-08-07 16:21:18:269
4.0059,-5.2236,-1.5138,-2.761,-3.9736,4.6915,0.4916,-0.8795,-0.2214,1799,2019-08-07 16:21:18:274
4.0059,-5.2236,-1.5138,-2.761,-3.9736,4.6915,0.4916,-0.8795,-0.2214,1804,2019-08-07 16:21:18:279
4.0059,-5.2236,-1.5138,-2.761,-3.9736,4.6915,0.0176,-0.2361,-0.0691,1809,2019-08-07 16:21:18:284
3.9342,-5.7105,0.3953,-2.761,-3.9736,4.6915,0.0176,-0.2361,-0.0691,1814,2019-08-07 16:21:18:289
3.9342,-5.7105,0.3953,-2.4198,-3.0081,1.9244,-0.2423,0.3754,-0.1245,1819,2019-08-07 16:21:18:294
3.9342,-5.7105,0.3953,-2.4198,-3.0081,1.9244,-0.2423,0.3754,-0.1245,1824,2019-08-07 16:21:18:299
3.0443,-6.8133,1.932,-2.4198,-3.0081,1.9244,-0.2423,0.3754,-0.1245,1829,2019-08-07 16:21:18:304
3.0443,-6.8133,1.932,-2.4198,-3.0081,1.9244,-0.1837,0.712,-0.2598,1834,2019-08-07 16:21:18:309
3.0443,-6.8133,1.932,-0.0251,-1.6539,0.6212,-0.1837,0.712,-0.2598,1839,2019-08-07 16:21:18:314
1.0923,-7.5867,2.5542,-0.0251,-1.6539,0.6212,-0.1092,0.8707,-0.3674,1844,2019-08-07 16:21:18:319
1.0923,-7.5867,2.5542,-0.0251,-1.6539,0.6212,-0.1092,0.8707,-0.3674,1849,2019-08-07 16:21:18:324
1.0923,-7.5867,2.5542,-0.0251,-1.6539,0.6212,-0.0932,0.8207,-0.459,1854,2019-08-07 16:21:18:329
-0.5439,-8.0545,3.332,2.0408,-1.0434,-0.3338,-0.0932,0.8207,-0.459,1859,2019-08-07 16:21:18:334
-0.5439,-8.0545,3.332,2.0408,-1.0434,-0.3338,-0.074,0.6556,-0.5186,1864,2019-08-07 16:21:18:339
-1.1276,-8.7419,4.2653,2.0408,-1.0434,-0.3338,-0.074,0.6556,-0.5186,1869,2019-08-07 16:21:18:344
-1.1276,-8.7419,4.2653,2.0408,-1.0434,-0.3338,-0.0293,0.337,-0.5932,1873,2019-08-07 16:21:18:348
-1.1228,-9.4198,4.765,2.5254,0.2388,-1.6061,-0.0293,0.337,-0.5932,1879,2019-08-07 16:21:18:354
-1.1228,-9.4198,4.765,2.5254,0.2388,-1.6061,-0.0293,0.337,-0.5932,1884,2019-08-07 16:21:18:359
-1.1228,-9.4198,4.765,2.5254,0.2388,-1.6061,0.0218,-0.1146,-0.7264,1889,2019-08-07 16:21:18:364
-0.7448,-9.902,4.8687,2.5254,0.2388,-1.6061,0.0218,-0.1146,-0.7264,1894,2019-08-07 16:21:18:369
-0.7448,-9.902,4.8687,1.9349,0.7913,-1.5194,-0.0176,-0.4608,-0.7466,1899,2019-08-07 16:21:18:374
-0.7448,-9.902,4.8687,1.9349,0.7913,-1.5194,-0.0176,-0.4608,-0.7466,1904,2019-08-07 16:21:18:379
0.3747,-10.0165,4.4397,1.9349,0.7913,-1.5194,-0.0772,-0.7559,-0.6465,1908,2019-08-07 16:21:18:383
0.3747,-10.0165,4.4397,1.9349,0.7913,-1.5194,-0.0772,-0.7559,-0.6465,1914,2019-08-07 16:21:18:389
1.9774,-10.6515,3.9354,-0.2859,1.5111,-0.8003,-0.0772,-0.7559,-0.6465,1919,2019-08-07 16:21:18:394
1.9774,-10.6515,3.9354,-0.2859,1.5111,-0.8003,-0.0953,-0.7911,-0.5911,1924,2019-08-07 16:21:18:399
1.9774,-10.6515,3.9354,-0.2859,1.5111,-0.8003,-0.0953,-0.7911,-0.5911,1928,2019-08-07 16:21:18:403
2.6281,-10.8615,3.3461,-0.2859,1.5111,-0.8003,-0.1326,-0.6888,-0.5453,1934,2019-08-07 16:21:18:409
2.6281,-10.8615,3.3461,-1.2563,1.9198,0.0587,-0.1326,-0.6888,-0.5453,1939,2019-08-07 16:21:18:414
3.2022,-11.0715,2.9643,-1.2563,1.9198,0.0587,-0.172,-0.529,-0.4526,1944,2019-08-07 16:21:18:419
3.2022,-11.0715,2.9643,-1.2563,1.9198,0.0587,-0.172,-0.529,-0.4526,1949,2019-08-07 16:21:18:424
3.2022,-11.0715,2.9643,-1.2563,1.9198,0.0587,-0.1688,-0.2425,-0.2651,1954,2019-08-07 16:21:18:429
3.3696,-10.9665,2.3468,-1.2563,1.9198,0.0587,-0.1688,-0.2425,-0.2651,1958,2019-08-07 16:21:18:433
3.3696,-10.9665,2.3468,-1.4603,1.7837,0.8207,-0.1688,-0.2425,-0.2651,1964,2019-08-07 16:21:18:439
3.0586,-10.7278,2.2054,-1.4603,1.7837,0.8207,-0.1497,0.0217,-0.1426,1969,2019-08-07 16:21:18:444
3.0586,-10.7278,2.2054,-1.4603,1.7837,0.8207,-0.1497,0.0217,-0.1426,1973,2019-08-07 16:21:18:448
3.0586,-10.7278,2.2054,-0.3536,1.3067,0.4829,-0.0868,0.2444,-0.0765,1979,2019-08-07 16:21:18:454
2.207,-10.3412,2.5966,-0.3536,1.3067,0.4829,-0.0868,0.2444,-0.0765,1984,2019-08-07 16:21:18:459
2.207,-10.3412,2.5966,-0.3536,1.3067,0.4829,0.0027,0.3552,-0.0329,1989,2019-08-07 16:21:18:464
2.207,-10.3412,2.5966,-0.3536,1.3067,0.4829,0.0027,0.3552,-0.0329,1993,2019-08-07 16:21:18:468
1.5277,-9.8447,2.7758,0.5279,0.4616,0.2348,0.0517,0.3253,-0.0084,1999,2019-08-07 16:21:18:474
1.5277,-9.8447,2.7758,0.5279,0.4616,0.2348,0.0517,0.3253,-0.0084,2004,2019-08-07 16:21:18:479
1.2933,-9.3434,2.4741,0.5279,0.4616,0.2348,0.0719,0.2593,0.0044,2008,2019-08-07 16:21:18:483
1.2933,-9.3434,2.4741,0.5279,0.4616,0.2348,0.0719,0.2593,0.0044,2014,2019-08-07 16:21:18:489
1.2933,-9.3434,2.4741,0.5279,0.4616,0.2348,0.0719,0.2593,0.0044,2019,2019-08-07 16:21:18:494
1.3172,-8.7324,2.4741,0.6028,-0.3241,0.6407,0.0858,0.1932,2.0E-4,2024,2019-08-07 16:21:18:499
1.3172,-8.7324,2.4741,0.6028,-0.3241,0.6407,0.0858,0.1932,2.0E-4,2028,2019-08-07 16:21:18:503
1.4511,-8.4507,2.4929,0.6028,-0.3241,0.6407,0.1156,0.0878,0.0076,2034,2019-08-07 16:21:18:509
1.4511,-8.4507,2.4929,0.4101,-0.7724,0.4795,0.1156,0.0878,0.0076,2039,2019-08-07 16:21:18:514
1.4511,-8.4507,2.4929,0.4101,-0.7724,0.4795,0.1486,0.0036,0.0055,2044,2019-08-07 16:21:18:519
1.5851,-8.1834,2.6013,0.4101,-0.7724,0.4795,0.1486,0.0036,0.0055,2050,2019-08-07 16:21:18:525
1.5851,-8.1834,2.6013,0.4101,-0.7724,0.4795,0.1603,-0.1157,-0.0052,2054,2019-08-07 16:21:18:529
1.5851,-8.1834,2.6013,0.4101,-0.7724,0.4795,0.1603,-0.1157,-0.0052,2058,2019-08-07 16:21:18:533
1.5947,-8.0115,2.771,0.3234,-1.1018,0.3119,0.1561,-0.1775,-0.019,2065,2019-08-07 16:21:18:540
1.5947,-8.0115,2.771,0.3234,-1.1018,0.3119,0.1561,-0.1775,-0.019,2068,2019-08-07 16:21:18:543
1.5947,-8.0115,2.771,0.3234,-1.1018,0.3119,0.1401,-0.3149,-0.0478,2074,2019-08-07 16:21:18:549
1.3985,-8.0163,3.0822,0.3234,-1.1018,0.3119,0.1401,-0.3149,-0.0478,2079,2019-08-07 16:21:18:554
1.3985,-8.0163,3.0822,0.3234,-1.1018,0.3119,0.1401,-0.3149,-0.0478,2085,2019-08-07 16:21:18:560
1.3985,-8.0163,3.0822,0.3234,-1.1018,0.3119,0.1401,-0.3149,-0.0478,2089,2019-08-07 16:21:18:564
1.3985,-8.0163,3.0822,0.3234,-1.1018,0.3119,0.1401,-0.3149,-0.0478,2094,2019-08-07 16:21:18:569
1.3985,-8.0163,3.0822,0.3234,-1.1018,0.3119,0.1401,-0.3149,-0.0478,2099,2019-08-07 16:21:18:574
1.3985,-8.0163,3.0822,0.3234,-1.1018,0.3119,0.1401,-0.3149,-0.0478,2104,2019-08-07 16:21:18:579
1.3985,-8.0163,3.0822,0.3234,-1.1018,0.3119,0.1401,-0.3149,-0.0478,2109,2019-08-07 16:21:18:584
1.3602,-8.1118,3.2283,0.58,-0.9908,-0.1274,0.1316,-0.4236,-0.0638,2114,2019-08-07 16:21:18:589
1.3602,-8.1118,3.2283,0.58,-0.9908,-0.1274,0.025,-0.4662,-0.2246,2119,2019-08-07 16:21:18:594
2.8816,-9.014,2.4929,0.58,-0.9908,-0.1274,0.025,-0.4662,-0.2246,2124,2019-08-07 16:21:18:599
2.8816,-9.014,2.4929,0.58,-0.9908,-0.1274,0.025,-0.4662,-0.2246,2129,2019-08-07 16:21:18:604
2.8816,-9.014,2.4929,-0.8958,0.0962,0.6522,0.0527,-0.1753,-0.2246,2134,2019-08-07 16:21:18:609
3.0491,-9.2909,2.4317,-0.8958,0.0962,0.6522,0.0527,-0.1753,-0.2246,2138,2019-08-07 16:21:18:613
3.0491,-9.2909,2.4317,-0.8958,0.0962,0.6522,0.0762,0.0505,-0.2022,2144,2019-08-07 16:21:18:619
2.6759,-9.2432,2.9926,-0.8958,0.0962,0.6522,0.0762,0.0505,-0.2022,2148,2019-08-07 16:21:18:623
2.6759,-9.2432,2.9926,-0.3456,0.1765,9.0E-4,0.0932,0.3445,-0.1767,2154,2019-08-07 16:21:18:629
2.6759,-9.2432,2.9926,-0.3456,0.1765,9.0E-4,0.0932,0.3445,-0.1767,2159,2019-08-07 16:21:18:634
1.7956,-9.0045,3.4121,-0.3456,0.1765,9.0E-4,0.0783,0.3583,-0.1543,2165,2019-08-07 16:21:18:640
1.7956,-9.0045,3.4121,-0.3456,0.1765,9.0E-4,0.0783,0.3583,-0.1543,2168,2019-08-07 16:21:18:643
1.7956,-9.0045,3.4121,0.9128,-0.2786,-0.7009,0.0783,0.3583,-0.1543,2174,2019-08-07 16:21:18:649
1.1115,-8.8088,3.9684,0.9128,-0.2786,-0.7009,0.0432,0.1996,-0.1469,2179,2019-08-07 16:21:18:654
1.1115,-8.8088,3.9684,0.9128,-0.2786,-0.7009,0.0432,0.1996,-0.1469,2184,2019-08-07 16:21:18:659
1.0923,-8.9424,4.0673,0.9128,-0.2786,-0.7009,-0.0027,-0.1466,-0.1469,2189,2019-08-07 16:21:18:664
1.0923,-8.9424,4.0673,0.9392,-0.1033,-0.8487,-0.0027,-0.1466,-0.1469,2193,2019-08-07 16:21:18:668
1.0923,-8.9424,4.0673,0.9392,-0.1033,-0.8487,-0.0431,-0.4086,-0.1618,2199,2019-08-07 16:21:18:674
1.6282,-9.2432,3.7421,0.9392,-0.1033,-0.8487,-0.0431,-0.4086,-0.1618,2203,2019-08-07 16:21:18:678
1.6282,-9.2432,3.7421,0.9392,-0.1033,-0.8487,-0.0431,-0.4086,-0.1618,2209,2019-08-07 16:21:18:684
1.6282,-9.2432,3.7421,0.091,0.3922,-0.3539,-0.1028,-0.6217,-0.1703,2213,2019-08-07 16:21:18:688
2.2549,-9.4723,3.3791,0.091,0.3922,-0.3539,-0.1156,-0.6451,-0.1469,2219,2019-08-07 16:21:18:694
2.2549,-9.4723,3.3791,0.091,0.3922,-0.3539,-0.1156,-0.6451,-0.1469,2224,2019-08-07 16:21:18:699
3.03,-9.7158,3.0209,0.091,0.3922,-0.3539,-0.1156,-0.6451,-0.1469,2229,2019-08-07 16:21:18:704
3.03,-9.7158,3.0209,-1.0182,0.7499,0.2088,-0.1028,-0.5546,-0.1138,2234,2019-08-07 16:21:18:709
3.03,-9.7158,3.0209,-1.0182,0.7499,0.2088,-0.1028,-0.5546,-0.1138,2239,2019-08-07 16:21:18:714
3.5419,-9.7683,2.7003,-1.0182,0.7499,0.2088,-0.0698,-0.2979,-0.0904,2244,2019-08-07 16:21:18:719
3.5419,-9.7683,2.7003,-1.0182,0.7499,0.2088,-0.0698,-0.2979,-0.0904,2249,2019-08-07 16:21:18:724
3.5419,-9.7683,2.7003,-1.0267,0.397,0.3461,-0.0357,-0.0422,-0.068,2253,2019-08-07 16:21:18:728
3.2548,-9.3673,2.7098,-1.0267,0.397,0.3461,-0.0357,-0.0422,-0.068,2259,2019-08-07 16:21:18:734
3.2548,-9.3673,2.7098,-1.0267,0.397,0.3461,-0.0133,0.1464,-0.0414,2264,2019-08-07 16:21:18:739
2.7668,-9.0045,2.9125,-1.0267,0.397,0.3461,-0.0133,0.1464,-0.0414,2269,2019-08-07 16:21:18:744
2.7668,-9.0045,2.9125,-0.1642,-0.1647,-0.1158,-0.009,0.2177,-0.0307,2273,2019-08-07 16:21:18:748
2.7668,-9.0045,2.9125,-0.1642,-0.1647,-0.1158,-0.009,0.2177,-0.0307,2279,2019-08-07 16:21:18:754
2.1162,-8.7658,3.497,-0.1642,-0.1647,-0.1158,-0.0069,0.1378,-0.0307,2284,2019-08-07 16:21:18:759
2.1162,-8.7658,3.497,-0.1642,-0.1647,-0.1158,-0.0069,0.1378,-0.0307,2289,2019-08-07 16:21:18:764
1.7908,-8.6274,3.4593,0.534,-0.4062,-0.422,5.0E-4,-0.0081,-0.035,2294,2019-08-07 16:21:18:769
1.7908,-8.6274,3.4593,0.534,-0.4062,-0.422,5.0E-4,-0.0081,-0.035,2300,2019-08-07 16:21:18:775
1.7908,-8.6274,3.4593,0.534,-0.4062,-0.422,5.0E-4,-0.0081,-0.035,2303,2019-08-07 16:21:18:778
2.0492,-8.6655,3.332,0.534,-0.4062,-0.422,-0.0112,-0.2489,-0.0552,2309,2019-08-07 16:21:18:784
2.0492,-8.6655,3.332,0.534,-0.4062,-0.422,-0.0112,-0.2489,-0.0552,2314,2019-08-07 16:21:18:789
2.719,-8.613,2.7993,-0.0555,-0.413,-0.0081,-0.0282,-0.3266,-0.0861,2319,2019-08-07 16:21:18:794
2.719,-8.613,2.7993,-0.0555,-0.413,-0.0081,-0.0282,-0.3266,-0.0861,2324,2019-08-07 16:21:18:799
2.719,-8.613,2.7993,-0.0555,-0.413,-0.0081,-0.0389,-0.2606,-0.1149,2330,2019-08-07 16:21:18:805
3.1256,-8.6035,2.4552,-0.7555,-0.4429,0.6534,-0.0389,-0.2606,-0.1149,2334,2019-08-07 16:21:18:809
3.1256,-8.6035,2.4552,-0.7555,-0.4429,0.6534,-0.0314,-0.1285,-0.116,2339,2019-08-07 16:21:18:814
3.2979,-8.6274,2.229,-0.7555,-0.4429,0.6534,-0.0314,-0.1285,-0.116,2345,2019-08-07 16:21:18:820
3.2979,-8.6274,2.229,-0.7555,-0.4429,0.6534,-0.0133,0.0111,-0.116,2349,2019-08-07 16:21:18:824
3.2979,-8.6274,2.229,-0.7829,-0.4663,0.6123,-0.0133,0.0111,-0.116,2354,2019-08-07 16:21:18:829
3.2979,-8.6274,2.229,-0.7829,-0.4663,0.6123,-0.0133,0.0111,-0.116,2359,2019-08-07 16:21:18:834
3.1256,-8.5939,2.4081,-0.7829,-0.4663,0.6123,0.0282,0.2263,-0.1362,2364,2019-08-07 16:21:18:839
3.1256,-8.5939,2.4081,-0.4156,-0.6096,0.3744,0.0549,0.303,-0.1628,2370,2019-08-07 16:21:18:845
2.5276,-8.2836,2.7993,-0.4156,-0.6096,0.3744,0.0549,0.303,-0.1628,2374,2019-08-07 16:21:18:849
2.5276,-8.2836,2.7993,-0.4156,-0.6096,0.3744,0.0549,0.303,-0.1628,2378,2019-08-07 16:21:18:853
2.5276,-8.2836,2.7993,-0.4156,-0.6096,0.3744,0.0602,0.255,-0.1767,2383,2019-08-07 16:21:18:858
2.1018,-8.1929,3.233,0.3356,-0.812,-0.199,0.0602,0.255,-0.1767,2389,2019-08-07 16:21:18:864
2.1018,-8.1929,3.233,0.3356,-0.812,-0.199,0.0677,0.14,-0.1959,2394,2019-08-07 16:21:18:869
1.9631,-8.1595,3.4687,0.3356,-0.812,-0.199,0.0677,0.14,-0.1959,2400,2019-08-07 16:21:18:875
1.9631,-8.1595,3.4687,0.3356,-0.812,-0.199,0.0464,-0.0944,-0.2193,2404,2019-08-07 16:21:18:879
1.9631,-8.1595,3.4687,0.4522,-0.697,-0.3164,0.0464,-0.0944,-0.2193,2409,2019-08-07 16:21:18:884
2.097,-8.465,3.3179,0.4522,-0.697,-0.3164,0.0101,-0.2382,-0.2331,2415,2019-08-07 16:21:18:890
2.097,-8.465,3.3179,0.4522,-0.697,-0.3164,0.0101,-0.2382,-0.2331,2419,2019-08-07 16:21:18:894
2.4463,-8.7276,3.0303,0.4522,-0.697,-0.3164,0.0101,-0.2382,-0.2331,2424,2019-08-07 16:21:18:899
2.4463,-8.7276,3.0303,0.0688,-0.1541,-0.0087,-0.0154,-0.2883,-0.2534,2428,2019-08-07 16:21:18:903
2.4463,-8.7276,3.0303,0.0688,-0.1541,-0.0087,-0.0154,-0.2883,-0.2534,2435,2019-08-07 16:21:18:910
2.652,-8.9854,2.8842,0.0688,-0.1541,-0.0087,0.0037,-0.2425,-0.2576,2438,2019-08-07 16:21:18:913
2.652,-8.9854,2.8842,0.0688,-0.1541,-0.0087,0.0037,-0.2425,-0.2576,2444,2019-08-07 16:21:18:919
2.896,-9.0665,2.804,-0.2644,0.1025,0.2874,0.0346,-0.1679,-0.2576,2450,2019-08-07 16:21:18:925
2.896,-9.0665,2.804,-0.2644,0.1025,0.2874,0.0346,-0.1679,-0.2576,2453,2019-08-07 16:21:18:928
2.896,-9.0665,2.804,-0.2644,0.1025,0.2874,0.0346,-0.1679,-0.2576,2459,2019-08-07 16:21:18:934
2.896,-8.9377,2.9172,-0.2644,0.1025,0.2874,0.0623,-0.0667,-0.2587,2464,2019-08-07 16:21:18:939
2.896,-8.9377,2.9172,-0.2039,-0.1477,0.0165,0.0623,-0.0667,-0.2587,2469,2019-08-07 16:21:18:944
2.896,-8.9377,2.9172,-0.2039,-0.1477,0.0165,0.0677,0.0175,-0.2608,2474,2019-08-07 16:21:18:949
2.829,-8.7133,3.1434,-0.132,-0.2098,-0.1462,0.0677,0.0175,-0.2608,2479,2019-08-07 16:21:18:954
2.829,-8.7133,3.1434,-0.132,-0.2098,-0.1462,0.0442,-0.0038,-0.2555,2485,2019-08-07 16:21:18:960
2.6616,-8.8804,3.3697,-0.132,-0.2098,-0.1462,0.0442,-0.0038,-0.2555,2488,2019-08-07 16:21:18:963
2.6616,-8.8804,3.3697,-0.132,-0.2098,-0.1462,0.0059,-0.0518,-0.2427,2494,2019-08-07 16:21:18:969
2.6616,-8.8804,3.3697,-0.0136,0.0594,-0.3523,0.0059,-0.0518,-0.2427,2500,2019-08-07 16:21:18:975
2.6807,-9.1477,3.3886,-0.0136,0.0594,-0.3523,-0.0346,-0.137,-0.2129,2503,2019-08-07 16:21:18:978
2.6807,-9.1477,3.3886,-0.0136,0.0594,-0.3523,-0.0346,-0.137,-0.2129,2509,2019-08-07 16:21:18:984
2.9678,-9.2814,3.2,-0.0136,0.0594,-0.3523,-0.0517,-0.219,-0.1745,2515,2019-08-07 16:21:18:990
2.9678,-9.2814,3.2,-0.288,0.3691,-0.1555,-0.0517,-0.219,-0.1745,2519,2019-08-07 16:21:18:994
2.9678,-9.2814,3.2,-0.288,0.3691,-0.1555,-0.057,-0.2606,-0.1287,2524,2019-08-07 16:21:18:999
3.3457,-9.2861,3.0586,-0.5631,0.3762,-0.041,-0.057,-0.2606,-0.1287,2530,2019-08-07 16:21:19:005
3.3457,-9.2861,3.0586,-0.5631,0.3762,-0.041,-0.0506,-0.251,-0.0883,2534,2019-08-07 16:21:19:009
3.3457,-9.2861,3.0586,-0.5631,0.3762,-0.041,-0.0506,-0.251,-0.0883,2539,2019-08-07 16:21:19:014
3.5515,-9.1573,2.7711,-0.5631,0.3762,-0.041,-0.0495,-0.1924,-0.0563,2544,2019-08-07 16:21:19:019
3.5515,-9.1573,2.7711,-0.8238,0.1155,0.2701,-0.0495,-0.1924,-0.0563,2548,2019-08-07 16:21:19:023
3.5419,-8.8995,2.6862,-0.8238,0.1155,0.2701,-0.0346,-0.0571,0.0012,2554,2019-08-07 16:21:19:029
3.5419,-8.8995,2.6862,-0.8238,0.1155,0.2701,-0.0346,-0.0571,0.0012,2559,2019-08-07 16:21:19:034
3.5419,-8.8995,2.6862,-0.8238,0.1155,0.2701,-0.0208,0.0207,0.031,2564,2019-08-07 16:21:19:039
3.5036,-8.8995,2.7805,-0.683,-0.01,0.203,-0.0208,0.0207,0.031,2569,2019-08-07 16:21:19:044
3.5036,-8.8995,2.7805,-0.683,-0.01,0.203,-0.0208,0.0207,0.031,2575,2019-08-07 16:21:19:050
3.5036,-8.8995,2.7805,-0.683,-0.01,0.203,-0.0048,0.1389,0.0449,2580,2019-08-07 16:21:19:055
3.3122,-8.8851,2.9785,-0.4966,-0.0253,0.0069,-0.0048,0.1389,0.0449,2585,2019-08-07 16:21:19:060
3.3122,-8.8851,2.9785,-0.4966,-0.0253,0.0069,-0.0165,0.1826,0.0492,2589,2019-08-07 16:21:19:064
3.0348,-8.8565,2.936,-0.4966,-0.0253,0.0069,-0.0165,0.1826,0.0492,2594,2019-08-07 16:21:19:069
3.0348,-8.8565,2.936,-0.0633,-0.0521,-0.0666,-0.0367,0.1634,0.0374,2600,2019-08-07 16:21:19:075
3.0348,-8.8565,2.936,-0.0633,-0.0521,-0.0666,-0.0367,0.1634,0.0374,2604,2019-08-07 16:21:19:079
2.7621,-8.8422,3.0586,-0.0633,-0.0521,-0.0666,-0.0431,0.1229,0.0257,2608,2019-08-07 16:21:19:083
2.7621,-8.8422,3.0586,-0.0633,-0.0521,-0.0666,-0.0431,0.1229,0.0257,2614,2019-08-07 16:21:19:089
2.7621,-8.8422,3.0586,0.0398,-0.0605,-0.156,-0.0378,0.026,0.0119,2619,2019-08-07 16:21:19:094
2.8051,-8.8183,3.1529,0.0398,-0.0605,-0.156,-0.0378,0.026,0.0119,2623,2019-08-07 16:21:19:098
2.8051,-8.8183,3.1529,0.0398,-0.0605,-0.156,-0.0357,-0.0379,-9.0E-4,2630,2019-08-07 16:21:19:105
2.8051,-8.8183,3.1529,0.0398,-0.0605,-0.156,-0.0357,-0.0379,-9.0E-4,2634,2019-08-07 16:21:19:109
2.8817,-8.7944,2.9407,-0.1158,-0.12,0.1182,-0.0357,-0.0379,-9.0E-4,2639,2019-08-07 16:21:19:114
2.8817,-8.7944,2.9407,-0.1158,-0.12,0.1182,-0.0453,-0.0869,-0.0105,2644,2019-08-07 16:21:19:119
3.0061,-8.8135,2.8512,-0.1158,-0.12,0.1182,-0.0453,-0.0869,-0.0105,2649,2019-08-07 16:21:19:124
3.0061,-8.8135,2.8512,-0.1158,-0.12,0.1182,-0.0378,-0.0805,-0.0137,2653,2019-08-07 16:21:19:128
3.1352,-8.8851,2.7852,-0.3362,-0.0355,0.1853,-0.0378,-0.0805,-0.0137,2659,2019-08-07 16:21:19:134
3.1352,-8.8851,2.7852,-0.3362,-0.0355,0.1853,-0.0261,-0.0496,-0.019,2663,2019-08-07 16:21:19:138
3.1352,-8.8851,2.7852,-0.3362,-0.0355,0.1853,-0.0261,-0.0496,-0.019,2669,2019-08-07 16:21:19:144
3.097,-8.8995,2.9078,-0.3362,-0.0355,0.1853,-0.0261,-0.0496,-0.019,2674,2019-08-07 16:21:19:149
3.097,-8.8995,2.9078,-0.2894,-0.1015,-0.0512,-0.0165,0.0026,-0.035,2679,2019-08-07 16:21:19:154
3.03,-8.7658,2.9596,-0.2894,-0.1015,-0.0512,-0.0165,0.0026,-0.035,2684,2019-08-07 16:21:19:159
3.03,-8.7658,2.9596,-0.2894,-0.1015,-0.0512,-0.0154,0.0579,-0.0467,2689,2019-08-07 16:21:19:164
3.03,-8.7658,2.9596,-0.2894,-0.1015,-0.0512,-0.0154,0.0579,-0.0467,2694,2019-08-07 16:21:19:169
2.9056,-8.6465,3.0209,-0.0576,-0.2996,0.0061,-0.024,0.0878,-0.0574,2699,2019-08-07 16:21:19:174
2.9056,-8.6465,3.0209,-0.0576,-0.2996,0.0061,-0.024,0.0878,-0.0574,2704,2019-08-07 16:21:19:179
2.9056,-8.6465,3.0209,-0.0576,-0.2996,0.0061,-0.0389,0.1059,-0.068,2709,2019-08-07 16:21:19:184
2.7141,-8.5844,3.0397,-0.0576,-0.2996,0.0061,-0.0389,0.1059,-0.068,2715,2019-08-07 16:21:19:190
2.7141,-8.5844,3.0397,0.1881,-0.3072,-0.1404,-0.0506,0.0494,-0.0765,2719,2019-08-07 16:21:19:194
2.5897,-8.6321,3.1481,0.1881,-0.3072,-0.1404,-0.0506,0.0494,-0.0765,2724,2019-08-07 16:21:19:199
2.5897,-8.6321,3.1481,0.1881,-0.3072,-0.1404,-0.0506,0.0494,-0.0765,2729,2019-08-07 16:21:19:204
2.5897,-8.6321,3.1481,0.213,-0.2203,-0.1618,-0.0485,-0.0028,-0.0893,2733,2019-08-07 16:21:19:208
2.6806,-8.6369,3.0774,0.213,-0.2203,-0.1618,-0.0485,-0.0028,-0.0893,2739,2019-08-07 16:21:19:214
2.6806,-8.6369,3.0774,0.213,-0.2203,-0.1618,-0.0442,-0.0752,-0.1064,2744,2019-08-07 16:21:19:219
2.8433,-8.6751,2.8889,0.213,-0.2203,-0.1618,-0.0442,-0.0752,-0.1064,2750,2019-08-07 16:21:19:225
2.8433,-8.6751,2.8889,-0.071,-0.255,0.0397,-0.0431,-0.1317,-0.1149,2753,2019-08-07 16:21:19:228
2.8433,-8.6751,2.8889,-0.071,-0.255,0.0397,-0.0431,-0.1317,-0.1149,2759,2019-08-07 16:21:19:234
3.0395,-8.6512,2.8417,-0.071,-0.255,0.0397,-0.0431,-0.1317,-0.1149,2764,2019-08-07 16:21:19:239
3.0395,-8.6512,2.8417,-0.071,-0.255,0.0397,-0.0303,-0.1817,-0.1064,2769,2019-08-07 16:21:19:244
3.183,-8.7037,2.8606,-0.2934,-0.1929,0.0946,-0.0303,-0.1817,-0.1064,2774,2019-08-07 16:21:19:249
3.183,-8.7037,2.8606,-0.2934,-0.1929,0.0946,-0.0218,-0.186,-0.0957,2780,2019-08-07 16:21:19:255
3.183,-8.7037,2.8606,-0.2934,-0.1929,0.0946,-0.0218,-0.186,-0.0957,2784,2019-08-07 16:21:19:259
3.5322,-8.7037,2.804,-0.2934,-0.1929,0.0946,-0.0261,-0.1956,-0.084,2789,2019-08-07 16:21:19:264
3.5322,-8.7037,2.804,-0.6348,-0.2548,0.13,-0.0261,-0.1956,-0.084,2794,2019-08-07 16:21:19:269
3.5322,-8.7037,2.804,-0.6348,-0.2548,0.13,-0.0314,-0.1413,-0.0765,2799,2019-08-07 16:21:19:274
3.7858,-8.6751,2.6956,-0.6348,-0.2548,0.13,-0.0314,-0.1413,-0.0765,2804,2019-08-07 16:21:19:279
3.7858,-8.6751,2.6956,-0.6348,-0.2548,0.13,-0.0314,-0.1413,-0.0765,2809,2019-08-07 16:21:19:284
3.8432,-8.656,2.7098,-0.9034,-0.2406,0.1961,-0.0293,-0.0113,-0.0712,2814,2019-08-07 16:21:19:289
3.8432,-8.656,2.7098,-0.9034,-0.2406,0.1961,-0.0293,-0.0113,-0.0712,2818,2019-08-07 16:21:19:293
3.8432,-8.656,2.7098,-0.9034,-0.2406,0.1961,-0.0293,-0.0113,-0.0712,2824,2019-08-07 16:21:19:299
3.5944,-8.5796,2.7522,-0.9034,-0.2406,0.1961,-0.0389,0.108,-0.0457,2829,2019-08-07 16:21:19:304
3.5944,-8.5796,2.7522,-0.5048,-0.2858,0.0513,-0.0389,0.108,-0.0457,2834,2019-08-07 16:21:19:309
3.2787,-8.6608,2.8889,-0.5048,-0.2858,0.0513,-0.0463,0.1805,-0.0212,2839,2019-08-07 16:21:19:314
3.2787,-8.6608,2.8889,-0.5048,-0.2858,0.0513,-0.0463,0.1805,-0.0212,2844,2019-08-07 16:21:19:319
3.2787,-8.6608,2.8889,-0.5048,-0.2858,0.0513,-0.0463,0.1805,-0.0212,2849,2019-08-07 16:21:19:324
3.2787,-8.6608,2.8889,-0.5048,-0.2858,0.0513,-0.0463,0.1805,-0.0212,2853,2019-08-07 16:21:19:328
3.2787,-8.6608,2.8889,-0.5048,-0.2858,0.0513,-0.0463,0.1805,-0.0212,2860,2019-08-07 16:21:19:335
3.2787,-8.6608,2.8889,-0.5048,-0.2858,0.0513,-0.0463,0.1805,-0.0212,2864,2019-08-07 16:21:19:339
3.226,-8.7562,2.9407,-0.2767,-0.138,-0.0372,-0.0538,0.1847,-0.019,2869,2019-08-07 16:21:19:344
3.226,-8.7562,2.9407,-0.2767,-0.138,-0.0372,-0.0538,0.1847,-0.019,2874,2019-08-07 16:21:19:349
3.226,-8.7562,2.9407,-0.2767,-0.138,-0.0372,-0.0762,-0.0592,-0.0414,2878,2019-08-07 16:21:19:353
3.0203,-8.8517,3.0067,-0.071,-0.0456,-0.1127,-0.0762,-0.0592,-0.0414,2884,2019-08-07 16:21:19:359
3.0203,-8.8517,3.0067,-0.071,-0.0456,-0.1127,-0.0762,-0.0592,-0.0414,2889,2019-08-07 16:21:19:364
3.0203,-8.8517,3.0067,-0.071,-0.0456,-0.1127,-0.0655,-0.071,-0.0403,2893,2019-08-07 16:21:19:368
3.2643,-8.9138,2.9879,-0.071,-0.0456,-0.1127,-0.0655,-0.071,-0.0403,2899,2019-08-07 16:21:19:374
3.2643,-8.9138,2.9879,-0.3787,0.0061,-0.02,-0.057,-0.0603,-0.0222,2903,2019-08-07 16:21:19:378
3.3361,-8.9138,2.8323,-0.3787,0.0061,-0.02,-0.057,-0.0603,-0.0222,2909,2019-08-07 16:21:19:384
3.3361,-8.9138,2.8323,-0.3787,0.0061,-0.02,-0.057,-0.0603,-0.0222,2914,2019-08-07 16:21:19:389
3.3361,-8.9138,2.8323,-0.3787,0.0061,-0.02,-0.0453,0.0239,-0.0062,2918,2019-08-07 16:21:19:393
3.3265,-8.8804,2.8417,-0.359,-0.0191,0.0269,-0.0453,0.0239,-0.0062,2924,2019-08-07 16:21:19:399
3.3265,-8.8804,2.8417,-0.359,-0.0191,0.0269,-0.0293,0.0814,0.0012,2929,2019-08-07 16:21:19:404
3.3265,-8.8804,2.8417,-0.359,-0.0191,0.0269,-0.0293,0.0814,0.0012,2934,2019-08-07 16:21:19:409
3.2356,-8.9138,2.9407,-0.359,-0.0191,0.0269,-0.0112,0.1346,0.0097,2939,2019-08-07 16:21:19:414
3.2356,-8.9138,2.9407,-0.1303,-0.0248,0.0253,-0.0112,0.1346,0.0097,2944,2019-08-07 16:21:19:419
2.9868,-8.8326,2.9172,-0.1303,-0.0248,0.0253,-0.008,0.1805,0.0055,2949,2019-08-07 16:21:19:424
2.9868,-8.8326,2.9172,-0.1303,-0.0248,0.0253,-0.008,0.1805,0.0055,2953,2019-08-07 16:21:19:428
2.9868,-8.8326,2.9172,-0.1303,-0.0248,0.0253,-0.0122,0.1677,2.0E-4,2959,2019-08-07 16:21:19:434
2.7572,-8.7371,2.969,0.1746,-0.1591,-0.0974,-0.0122,0.1677,2.0E-4,2963,2019-08-07 16:21:19:438
2.7572,-8.7371,2.969,0.1746,-0.1591,-0.0974,-0.0208,0.1048,-9.0E-4,2969,2019-08-07 16:21:19:444
2.7859,-8.7658,3.0114,0.1613,-0.1358,-0.1285,-0.0208,0.1048,-9.0E-4,2974,2019-08-07 16:21:19:449
2.7859,-8.7658,3.0114,0.1613,-0.1358,-0.1285,-0.0272,0.0729,-0.0084,2979,2019-08-07 16:21:19:454
2.7859,-8.7658,3.0114,0.1613,-0.1358,-0.1285,-0.0272,0.0729,-0.0084,2984,2019-08-07 16:21:19:459
2.8385,-8.7562,2.9219,0.1613,-0.1358,-0.1285,-0.0346,0.0132,-0.0126,2989,2019-08-07 16:21:19:464
2.8385,-8.7562,2.9219,-0.0083,-0.0893,0.0256,-0.0346,0.0132,-0.0126,2993,2019-08-07 16:21:19:468
2.8385,-8.7562,2.9219,-0.0083,-0.0893,0.0256,-0.0453,-0.0315,-0.0148,2999,2019-08-07 16:21:19:474
3.0394,-8.7658,2.7522,-0.0083,-0.0893,0.0256,-0.0453,-0.0315,-0.0148,3004,2019-08-07 16:21:19:479
3.0394,-8.7658,2.7522,-0.0083,-0.0893,0.0256,-0.0421,-0.0347,-0.0137,3008,2019-08-07 16:21:19:483
3.0394,-8.7658,2.7522,-0.0083,-0.0893,0.0256,-0.0421,-0.0347,-0.0137,3014,2019-08-07 16:21:19:489
3.0873,-8.7753,2.7993,-0.1369,-0.1289,0.0722,-0.0378,-0.0124,0.0044,3019,2019-08-07 16:21:19:494
3.0873,-8.7753,2.7993,-0.1369,-0.1289,0.0722,-0.0378,-0.0124,0.0044,3026,2019-08-07 16:21:19:501
3.0873,-8.7753,2.7993,-0.1369,-0.1289,0.0722,-0.0378,-0.0124,0.0044,3029,2019-08-07 16:21:19:504
3.2069,-8.8135,2.5589,-0.2457,-0.1121,0.2901,-0.0367,0.0228,0.0129,3034,2019-08-07 16:21:19:509
3.2069,-8.8135,2.5589,-0.2457,-0.1121,0.2901,-0.0367,0.0228,0.0129,3038,2019-08-07 16:21:19:513
3.2069,-8.8135,2.5589,-0.2457,-0.1121,0.2901,-0.0303,0.0324,0.0129,3044,2019-08-07 16:21:19:519
3.1112,-8.7706,2.6768,-0.2457,-0.1121,0.2901,-0.0303,0.0324,0.0129,3049,2019-08-07 16:21:19:524
3.1112,-8.7706,2.6768,-0.1151,-0.0859,0.1445,-0.0186,0.0377,0.0268,3054,2019-08-07 16:21:19:529
3.0442,-8.8469,2.7475,-0.1151,-0.0859,0.1445,-0.0186,0.0377,0.0268,3059,2019-08-07 16:21:19:534
3.0442,-8.8469,2.7475,-0.1151,-0.0859,0.1445,-0.0112,0.0569,0.0225,3064,2019-08-07 16:21:19:539
3.0634,-8.7658,2.8276,-0.1151,-0.0859,0.1445,-0.0112,0.0569,0.0225,3069,2019-08-07 16:21:19:544
3.0634,-8.7658,2.8276,-0.1151,-0.0859,0.1445,-0.0112,0.0569,0.0225,3074,2019-08-07 16:21:19:549
3.0634,-8.7658,2.8276,-0.0491,-0.1687,0.0604,-0.008,0.0579,0.0129,3079,2019-08-07 16:21:19:554
2.9151,-8.6846,2.7663,-0.0491,-0.1687,0.0604,-0.0176,0.0505,0.0151,3084,2019-08-07 16:21:19:559
2.9151,-8.6846,2.7663,-0.0491,-0.1687,0.0604,-0.0176,0.0505,0.0151,3089,2019-08-07 16:21:19:564
2.9151,-8.6846,2.7663,-0.0491,-0.1687,0.0604,-0.0176,0.0505,0.0151,3094,2019-08-07 16:21:19:569
2.939,-8.7085,2.8512,-0.0015,-0.2038,0.0087,-0.0282,0.0473,0.0119,3099,2019-08-07 16:21:19:574
2.939,-8.7085,2.8512,-0.0015,-0.2038,0.0087,-0.0442,0.0345,0.0087,3104,2019-08-07 16:21:19:579
2.8816,-8.7085,2.8559,-0.0015,-0.2038,0.0087,-0.0442,0.0345,0.0087,3109,2019-08-07 16:21:19:584
2.8816,-8.7085,2.8559,-0.0015,-0.2038,0.0087,-0.0442,0.0345,0.0087,3114,2019-08-07 16:21:19:589
2.8816,-8.7085,2.8559,-0.0015,-0.2038,0.0087,-0.0442,0.0345,0.0087,3118,2019-08-07 16:21:19:593
2.8816,-8.7085,2.8559,-0.0015,-0.2038,0.0087,-0.0442,0.0345,0.0087,3124,2019-08-07 16:21:19:599
2.8911,-8.8183,2.8276,0.048,-0.1777,-0.001,-0.0474,0.0185,0.0055,3129,2019-08-07 16:21:19:604
2.8911,-8.8183,2.8276,0.048,-0.1777,-0.001,-0.0474,0.0185,0.0055,3135,2019-08-07 16:21:19:610
2.9198,-8.804,2.7899,0.0201,-0.066,0.046,-0.0527,-0.0124,-0.0052,3143,2019-08-07 16:21:19:618
2.9198,-8.804,2.7899,0.0201,-0.066,0.046,-0.0527,-0.0124,-0.0052,3144,2019-08-07 16:21:19:619
2.9198,-8.804,2.7899,0.0201,-0.066,0.046,-0.0527,-0.0124,-0.0052,3149,2019-08-07 16:21:19:624
2.9198,-8.804,2.7899,0.0201,-0.066,0.046,-0.0517,-0.0049,-0.0243,3154,2019-08-07 16:21:19:629
2.9629,-8.8326,2.6862,0.005,-0.073,0.0914,-0.0517,-0.0049,-0.0243,3159,2019-08-07 16:21:19:634
2.9629,-8.8326,2.6862,0.005,-0.073,0.0914,-0.0431,0.0153,-0.0339,3164,2019-08-07 16:21:19:639
2.9581,-8.8613,2.9124,0.005,-0.073,0.0914,-0.0431,0.0153,-0.0339,3169,2019-08-07 16:21:19:644
2.9581,-8.8613,2.9124,0.005,-0.073,0.0914,-0.0431,0.0153,-0.0339,3174,2019-08-07 16:21:19:649
2.9581,-8.8613,2.9124,0.0258,-0.1156,-0.0085,-0.0272,0.0132,-0.0488,3178,2019-08-07 16:21:19:653
3.0107,-8.7562,2.9596,0.0258,-0.1156,-0.0085,-0.0272,0.0132,-0.0488,3184,2019-08-07 16:21:19:659
3.0107,-8.7562,2.9596,0.0258,-0.1156,-0.0085,-0.0282,0.0026,-0.052,3188,2019-08-07 16:21:19:663
3.0107,-8.7562,2.9596,0.0258,-0.1156,-0.0085,-0.0282,0.0026,-0.052,3194,2019-08-07 16:21:19:669
3.0107,-8.6942,2.9784,-0.1032,-0.2233,-0.1534,-0.0272,-0.0038,-0.052,3199,2019-08-07 16:21:19:674
3.0107,-8.6942,2.9784,-0.1032,-0.2233,-0.1534,-0.0272,-0.0038,-0.052,3204,2019-08-07 16:21:19:679
3.0107,-8.6942,2.9784,-0.1032,-0.2233,-0.1534,-0.0506,-0.0624,-0.0435,3209,2019-08-07 16:21:19:684
3.1734,-8.699,2.9313,-0.1032,-0.2233,-0.1534,-0.0506,-0.0624,-0.0435,3214,2019-08-07 16:21:19:689
3.1734,-8.699,2.9313,-0.2718,-0.1935,-0.1402,-0.0506,-0.0624,-0.0435,3219,2019-08-07 16:21:19:694
3.1734,-8.699,2.9313,-0.2718,-0.1935,-0.1402,-0.0559,-0.071,-0.035,3223,2019-08-07 16:21:19:698
3.3026,-8.7562,2.8653,-0.2718,-0.1935,-0.1402,-0.0559,-0.071,-0.035,3229,2019-08-07 16:21:19:704
3.3026,-8.7562,2.8653,-0.2718,-0.1935,-0.1402,-0.0517,-0.0678,-0.019,3233,2019-08-07 16:21:19:708
3.3887,-8.8183,2.7616,-0.4087,-0.0986,0.0392,-0.0517,-0.0678,-0.019,3239,2019-08-07 16:21:19:714
3.3887,-8.8183,2.7616,-0.4087,-0.0986,0.0392,-0.0442,-0.039,-0.0041,3244,2019-08-07 16:21:19:719
3.3217,-8.9186,2.7239,-0.4087,-0.0986,0.0392,-0.0442,-0.039,-0.0041,3249,2019-08-07 16:21:19:724
3.3217,-8.9186,2.7239,-0.4087,-0.0986,0.0392,-0.0272,0.0132,-9.0E-4,3253,2019-08-07 16:21:19:728
3.3217,-8.9186,2.7239,-0.2178,-0.076,0.0118,-0.0272,0.0132,-9.0E-4,3259,2019-08-07 16:21:19:734
3.116,-8.8565,2.7805,-0.2178,-0.076,0.0118,-0.0122,0.0558,0.0012,3265,2019-08-07 16:21:19:740
3.116,-8.8565,2.7805,-0.2178,-0.076,0.0118,-0.0122,0.0558,0.0012,3268,2019-08-07 16:21:19:743
3.116,-8.8565,2.7805,-0.2178,-0.076,0.0118,-0.0122,0.0558,0.0012,3274,2019-08-07 16:21:19:749
3.0251,-8.7944,2.7899,0.0091,-0.1333,-0.1314,-0.0048,0.0846,-0.0062,3279,2019-08-07 16:21:19:754
3.0251,-8.7944,2.7899,0.0091,-0.1333,-0.1314,-0.0154,0.108,-0.0148,3284,2019-08-07 16:21:19:759
2.805,-8.7419,2.9973,0.0091,-0.1333,-0.1314,-0.0154,0.108,-0.0148,3289,2019-08-07 16:21:19:764
2.805,-8.7419,2.9973,0.0091,-0.1333,-0.1314,-0.025,0.0782,-0.0286,3294,2019-08-07 16:21:19:769
2.805,-8.7419,2.9973,0.3311,-0.1996,-0.3102,-0.025,0.0782,-0.0286,3299,2019-08-07 16:21:19:774
2.671,-8.7037,3.0963,0.3311,-0.1996,-0.3102,-0.0453,-0.0092,-0.0286,3304,2019-08-07 16:21:19:779
2.671,-8.7037,3.0963,0.3311,-0.1996,-0.3102,-0.0453,-0.0092,-0.0286,3309,2019-08-07 16:21:19:784
2.6184,-8.7515,3.0727,0.3311,-0.1996,-0.3102,-0.0453,-0.0092,-0.0286,3313,2019-08-07 16:21:19:788
2.6184,-8.7515,3.0727,0.3448,-0.1528,-0.2797,-0.0698,-0.1072,-0.0307,3319,2019-08-07 16:21:19:794
2.7141,-8.761,2.936,0.3448,-0.1528,-0.2797,-0.0698,-0.1072,-0.0307,3323,2019-08-07 16:21:19:798
2.7141,-8.761,2.936,0.3448,-0.1528,-0.2797,-0.1284,-0.3234,-0.0339,3329,2019-08-07 16:21:19:804
2.7141,-8.761,2.936,0.3448,-0.1528,-0.2797,-0.1284,-0.3234,-0.0339,3334,2019-08-07 16:21:19:809
2.0922,-8.8135,3.0633,0.9185,-0.117,-0.3397,-0.3798,-0.9125,2.0E-4,3339,2019-08-07 16:21:19:814
2.0922,-8.8135,3.0633,0.9185,-0.117,-0.3397,-0.3798,-0.9125,2.0E-4,3344,2019-08-07 16:21:19:819
2.0922,-8.8135,3.0633,0.9185,-0.117,-0.3397,-0.1603,-0.5088,0.0044,3348,2019-08-07 16:21:19:823
3.4987,-9.2957,3.4781,0.9185,-0.117,-0.3397,-0.1603,-0.5088,0.0044,3354,2019-08-07 16:21:19:829
3.4987,-9.2957,3.4781,-0.4795,0.2542,-0.1271,0.0666,-0.4459,-0.035,3359,2019-08-07 16:21:19:834
3.7331,-9.057,2.0875,-0.4795,0.2542,-0.1271,0.0666,-0.4459,-0.035,3364,2019-08-07 16:21:19:839
3.7331,-9.057,2.0875,-0.4795,0.2542,-0.1271,0.1593,-0.1722,-0.0243,3369,2019-08-07 16:21:19:844
3.7331,-9.057,2.0875,-0.4795,0.2542,-0.1271,0.1593,-0.1722,-0.0243,3373,2019-08-07 16:21:19:848
4.5752,-8.8278,1.3757,-1.5123,-0.1658,1.2487,0.0464,0.0505,-0.0659,3380,2019-08-07 16:21:19:855
4.5752,-8.8278,1.3757,-1.5123,-0.1658,1.2487,0.0464,0.0505,-0.0659,3384,2019-08-07 16:21:19:859
4.5752,-8.8278,1.3757,-1.5123,-0.1658,1.2487,0.0464,0.0505,-0.0659,3389,2019-08-07 16:21:19:864
3.7714,-8.2168,2.3279,-0.6956,-0.7065,0.3461,-0.0325,0.2998,-0.084,3393,2019-08-07 16:21:19:868
3.7714,-8.2168,2.3279,-0.6956,-0.7065,0.3461,-0.0325,0.2998,-0.084,3399,2019-08-07 16:21:19:874
3.1112,-8.718,2.7192,-0.6956,-0.7065,0.3461,-0.0101,0.4532,0.0076,3403,2019-08-07 16:21:19:878
3.1112,-8.718,2.7192,-0.6956,-0.7065,0.3461,-0.0101,0.4532,0.0076,3409,2019-08-07 16:21:19:884
3.1112,-8.718,2.7192,0.1398,-0.0226,-0.1123,-0.0176,0.4372,-0.0062,3416,2019-08-07 16:21:19:891
2.5562,-9.0188,3.0539,0.1398,-0.0226,-0.1123,-0.0176,0.4372,-0.0062,3418,2019-08-07 16:21:19:893
2.5562,-9.0188,3.0539,0.1398,-0.0226,-0.1123,-0.0474,0.2742,-0.0339,3424,2019-08-07 16:21:19:899
2.0874,-8.9376,3.3697,0.1398,-0.0226,-0.1123,-0.0474,0.2742,-0.0339,3429,2019-08-07 16:21:19:904
2.0874,-8.9376,3.3697,0.9193,0.0333,-0.6132,-0.0591,-0.0379,-0.0212,3435,2019-08-07 16:21:19:910
2.0874,-8.9376,3.3697,0.9193,0.0333,-0.6132,-0.0591,-0.0379,-0.0212,3438,2019-08-07 16:21:19:913