ACCELEROMETER X (m/s²),ACCELEROMETER Y (m/s²),ACCELEROMETER Z (m/s²),LINEAR ACCELERATION X (m/s²),LINEAR ACCELERATION Y (m/s²),LINEAR ACCELERATION Z (m/s²),GYROSCOPE X (rad/s),GYROSCOPE Y (rad/s),GYROSCOPE Z (rad/s),Time since start in ms ,YYYY-MO-DD HH-MI-SS_SSS
4.4186,-8.1672,2.8339,-0.0769,-0.1021,0.0433,0.0123,0.0247,0.0131,5,2019-08-07 16:19:17:237
4.4186,-8.1672,2.8339,-0.0769,-0.1021,0.0433,0.0123,0.0247,0.0131,9,2019-08-07 16:19:17:241
4.4186,-8.1672,2.8339,-0.0769,-0.1021,0.0433,0.0177,0.0236,0.0088,15,2019-08-07 16:19:17:247
4.3516,-8.1434,2.914,-0.0363,-0.1638,-0.0697,0.0177,0.0236,0.0088,19,2019-08-07 16:19:17:251
4.3516,-8.1434,2.914,-0.0363,-0.1638,-0.0697,0.0198,0.0236,0.0056,25,2019-08-07 16:19:17:257
4.3611,-8.1338,2.8999,-0.0363,-0.1638,-0.0697,0.0198,0.0236,0.0056,29,2019-08-07 16:19:17:261
4.3611,-8.1338,2.8999,-0.0363,-0.1638,-0.0697,0.0123,0.0109,0.0046,35,2019-08-07 16:19:17:267
4.3611,-8.1338,2.8999,-0.0183,-0.1819,0.0246,0.0123,0.0109,0.0046,40,2019-08-07 16:19:17:272
4.3516,-8.1099,2.8056,-0.0183,-0.1819,0.0246,0.0123,0.0109,0.0046,45,2019-08-07 16:19:17:277
4.3516,-8.1099,2.8056,-0.0183,-0.1819,0.0246,-0.0015,0.0013,3.0E-4,49,2019-08-07 16:19:17:281
4.4568,-8.1815,2.8622,-0.0183,-0.1819,0.0246,-0.0015,0.0013,3.0E-4,55,2019-08-07 16:19:17:287
4.4568,-8.1815,2.8622,-0.0183,-0.1819,0.0246,-0.0122,-0.0105,3.0E-4,59,2019-08-07 16:19:17:291
4.4568,-8.1815,2.8622,-0.0508,-0.1149,0.0047,-0.0122,-0.0105,3.0E-4,65,2019-08-07 16:19:17:297
4.3803,-8.215,2.8905,-0.0508,-0.1149,0.0047,-0.0068,-0.0051,-0.0039,69,2019-08-07 16:19:17:301
4.3803,-8.215,2.8905,-0.0508,-0.1149,0.0047,-0.0068,-0.0051,-0.0039,75,2019-08-07 16:19:17:307
4.3803,-8.215,2.8905,-0.0508,-0.1149,0.0047,-0.0079,0.0066,-0.005,79,2019-08-07 16:19:17:311
4.409,-8.215,2.7773,-0.0637,-0.1004,0.0879,-0.0079,0.0066,-0.005,85,2019-08-07 16:19:17:317
4.409,-8.215,2.7773,-0.0637,-0.1004,0.0879,-0.0068,0.013,-0.0103,89,2019-08-07 16:19:17:321
4.3659,-8.2484,2.8575,-0.0637,-0.1004,0.0879,-0.0068,0.013,-0.0103,95,2019-08-07 16:19:17:327
4.3659,-8.2484,2.8575,-0.0147,-0.0471,-0.0484,-0.0068,0.0204,-0.0157,100,2019-08-07 16:19:17:332
4.3037,-8.2722,2.881,-0.0147,-0.0471,-0.0484,-0.0068,0.0204,-0.0157,105,2019-08-07 16:19:17:337
4.3037,-8.2722,2.881,-0.0147,-0.0471,-0.0484,-0.0058,0.0162,-0.0199,110,2019-08-07 16:19:17:342
4.3037,-8.2722,2.881,-0.0147,-0.0471,-0.0484,-0.0058,0.0162,-0.0199,114,2019-08-07 16:19:17:346
4.3372,-8.2054,2.9046,0.0025,-0.0932,-0.0195,-0.0058,0.0162,-0.0199,120,2019-08-07 16:19:17:352
4.3372,-8.2054,2.9046,0.0025,-0.0932,-0.0195,-0.0036,0.0066,-0.0263,124,2019-08-07 16:19:17:356
4.3372,-8.2054,2.9046,0.0025,-0.0932,-0.0195,-0.0036,0.0066,-0.0263,130,2019-08-07 16:19:17:362
4.3754,-8.2054,2.8716,0.0025,-0.0932,-0.0195,-0.0026,-0.0105,-0.021,134,2019-08-07 16:19:17:366
4.3754,-8.2054,2.8716,0.0025,-0.0932,-0.0195,-0.0026,-0.0105,-0.021,140,2019-08-07 16:19:17:372
4.4233,-8.1911,2.8245,-0.0456,-0.0958,-0.0059,-0.0068,-0.0232,-0.022,145,2019-08-07 16:19:17:377
4.4233,-8.1911,2.8245,-0.0456,-0.0958,-0.0059,-0.0175,-0.0275,-0.0242,150,2019-08-07 16:19:17:382
4.4233,-8.1911,2.8245,-0.0456,-0.0958,-0.0059,-0.0175,-0.0275,-0.0242,156,2019-08-07 16:19:17:388
4.495,-8.2341,2.7962,-0.2019,-0.0179,0.1773,-0.0175,-0.0275,-0.0242,160,2019-08-07 16:19:17:392
4.495,-8.2341,2.7962,-0.2019,-0.0179,0.1773,-0.0292,-0.0264,-0.0199,166,2019-08-07 16:19:17:398
4.5333,-8.3725,2.7113,-0.2019,-0.0179,0.1773,-0.0292,-0.0264,-0.0199,170,2019-08-07 16:19:17:402
4.5333,-8.3725,2.7113,-0.2019,-0.0179,0.1773,-0.0281,-0.0051,-0.0135,174,2019-08-07 16:19:17:406
4.5333,-8.3725,2.7113,-0.2019,-0.0179,0.1773,-0.0281,-0.0051,-0.0135,180,2019-08-07 16:19:17:412
4.5285,-8.3916,2.782,-0.1636,0.0826,0.0717,-0.0154,0.0066,-0.0135,184,2019-08-07 16:19:17:416
4.5285,-8.3916,2.782,-0.1636,0.0826,0.0717,-0.0154,0.0066,-0.0135,190,2019-08-07 16:19:17:422
4.495,-8.3964,2.8669,-0.1636,0.0826,0.0717,-0.009,0.0215,-0.0082,195,2019-08-07 16:19:17:427
4.495,-8.3964,2.8669,-0.0616,0.0068,-0.0702,-0.009,0.0215,-0.0082,200,2019-08-07 16:19:17:432
4.495,-8.3964,2.8669,-0.0616,0.0068,-0.0702,-0.009,0.0215,-0.0082,204,2019-08-07 16:19:17:436
4.4272,-8.296,2.9751,-0.0616,0.0068,-0.0702,0.0017,0.0151,-0.0114,210,2019-08-07 16:19:17:442
4.4272,-8.296,2.9751,-0.0315,-0.0451,-0.1066,0.0037,0.0099,-0.0114,215,2019-08-07 16:19:17:447
4.4272,-8.296,2.9751,-0.0315,-0.0451,-0.1066,0.0037,0.0099,-0.0114,220,2019-08-07 16:19:17:452
4.3746,-8.2292,2.8761,-0.0315,-0.0451,-0.1066,0.0037,0.0099,-0.0114,225,2019-08-07 16:19:17:457
4.3746,-8.2292,2.8761,-0.0315,-0.0451,-0.1066,-0.0027,3.0E-4,-0.0114,230,2019-08-07 16:19:17:462
4.3746,-8.2292,2.8761,-0.0315,-0.0451,-0.1066,-0.0027,3.0E-4,-0.0114,235,2019-08-07 16:19:17:467
4.3746,-8.2292,2.8761,-0.0315,-0.0451,-0.1066,-0.0027,3.0E-4,-0.0114,239,2019-08-07 16:19:17:471
4.3746,-8.2292,2.8761,-0.0315,-0.0451,-0.1066,-0.0027,3.0E-4,-0.0114,244,2019-08-07 16:19:17:476
4.3746,-8.2292,2.8761,-0.0315,-0.0451,-0.1066,-0.0027,3.0E-4,-0.0114,249,2019-08-07 16:19:17:481
4.3746,-8.2292,2.8761,-0.0315,-0.0451,-0.1066,-0.0027,3.0E-4,-0.0114,255,2019-08-07 16:19:17:487
4.4081,-8.2101,2.8761,-0.0537,-0.0964,-0.0539,-0.0038,-7.0E-4,-0.0114,259,2019-08-07 16:19:17:491
4.4081,-8.2101,2.8761,-0.0537,-0.0964,-0.0539,-0.0134,-0.005,-0.0039,265,2019-08-07 16:19:17:497
4.4846,-8.2101,2.8761,-0.0537,-0.0964,-0.0539,-0.0134,-0.005,-0.0039,270,2019-08-07 16:19:17:502
4.4846,-8.2101,2.8761,-0.0642,-0.0713,6.0E-4,-0.0219,-0.0018,-0.0028,275,2019-08-07 16:19:17:507
4.4559,-8.3008,2.7488,-0.0642,-0.0713,6.0E-4,-0.0219,-0.0018,-0.0028,281,2019-08-07 16:19:17:513
4.4559,-8.3008,2.7488,-0.0642,-0.0713,6.0E-4,-0.0261,0.0046,-0.005,285,2019-08-07 16:19:17:517
4.4559,-8.3008,2.7488,-0.0642,-0.0713,6.0E-4,-0.0261,0.0046,-0.005,290,2019-08-07 16:19:17:522
4.4941,-8.3199,2.8667,-0.1203,0.0139,-0.0177,-0.0261,0.0046,-0.005,295,2019-08-07 16:19:17:527
4.4941,-8.3199,2.8667,-0.1203,0.0139,-0.0177,-0.0165,0.0014,-0.0018,300,2019-08-07 16:19:17:532
4.4941,-8.3199,2.8667,-0.1203,0.0139,-0.0177,-0.0165,0.0014,-0.0018,304,2019-08-07 16:19:17:536
4.3745,-8.339,2.895,-0.1203,0.0139,-0.0177,5.0E-4,0.0131,-0.0039,311,2019-08-07 16:19:17:543
4.3745,-8.339,2.895,-0.0051,-0.0386,-0.0513,5.0E-4,0.0131,-0.0039,315,2019-08-07 16:19:17:547
4.4032,-8.2531,2.7865,-0.0051,-0.0386,-0.0513,0.0026,0.0163,-0.0092,320,2019-08-07 16:19:17:552
4.4032,-8.2531,2.7865,-0.0051,-0.0386,-0.0513,0.0026,0.0163,-0.0092,325,2019-08-07 16:19:17:557
4.4032,-8.2531,2.7865,-0.0051,-0.0386,-0.0513,0.008,0.0153,-0.0082,330,2019-08-07 16:19:17:562
4.3936,-8.2387,2.9374,-0.0522,-0.1041,-0.1052,0.008,0.0153,-0.0082,335,2019-08-07 16:19:17:567
4.3936,-8.2387,2.9374,-0.0522,-0.1041,-0.1052,0.0026,0.0099,-0.0114,339,2019-08-07 16:19:17:571
4.3936,-8.2387,2.9374,-0.0522,-0.1041,-0.1052,0.0026,0.0099,-0.0114,345,2019-08-07 16:19:17:577
4.3649,-8.1814,2.9091,-0.0522,-0.1041,-0.1052,0.0026,0.0057,-0.0103,350,2019-08-07 16:19:17:582
4.3649,-8.1814,2.9091,-0.0171,-0.0454,-0.0045,0.0026,0.0057,-0.0103,355,2019-08-07 16:19:17:587
4.4606,-8.2483,2.9091,-0.0171,-0.0454,-0.0045,0.0026,0.0057,-0.0103,360,2019-08-07 16:19:17:592
4.4606,-8.2483,2.9091,-0.0171,-0.0454,-0.0045,5.0E-4,-0.0071,-0.0082,366,2019-08-07 16:19:17:598
4.4606,-8.2483,2.9091,-0.0171,-0.0454,-0.0045,5.0E-4,-0.0071,-0.0082,370,2019-08-07 16:19:17:602
4.4845,-8.2578,2.8384,-0.053,-0.0349,0.0183,-6.0E-4,-0.0135,-0.0071,375,2019-08-07 16:19:17:607
4.4845,-8.2578,2.8384,-0.053,-0.0349,0.0183,-6.0E-4,-0.0135,-0.0071,381,2019-08-07 16:19:17:613
4.4701,-8.2769,2.8148,-0.053,-0.0349,0.0183,-6.0E-4,-0.0028,-0.0028,385,2019-08-07 16:19:17:617
4.4701,-8.2769,2.8148,-0.053,-0.0349,0.0183,-6.0E-4,-0.0028,-0.0028,389,2019-08-07 16:19:17:621
4.4701,-8.2769,2.8148,-0.1898,-0.0059,0.0118,-0.008,-7.0E-4,3.0E-4,395,2019-08-07 16:19:17:627
4.5466,-8.2721,2.8337,-0.1898,-0.0059,0.0118,-0.008,-7.0E-4,3.0E-4,399,2019-08-07 16:19:17:631
4.5466,-8.2721,2.8337,-0.1898,-0.0059,0.0118,-0.008,0.0067,3.0E-4,405,2019-08-07 16:19:17:637
4.5466,-8.2721,2.8337,-0.1898,-0.0059,0.0118,-0.008,0.0067,3.0E-4,409,2019-08-07 16:19:17:641
4.5036,-8.3056,2.8902,-0.0836,0.0134,0.0108,-0.0038,0.0163,3.0E-4,416,2019-08-07 16:19:17:648
4.5036,-8.3056,2.8902,-0.0836,0.0134,0.0108,-0.0038,0.0163,3.0E-4,420,2019-08-07 16:19:17:652
4.4701,-8.2912,2.8242,-0.0836,0.0134,0.0108,-0.0038,0.0163,3.0E-4,425,2019-08-07 16:19:17:657
4.4701,-8.2912,2.8242,-0.0359,0.0229,0.0064,-0.0038,0.0163,0.0014,430,2019-08-07 16:19:17:662
4.4366,-8.2721,2.9609,-0.0359,0.0229,0.0064,-0.0038,0.0163,0.0014,435,2019-08-07 16:19:17:667
4.4366,-8.2721,2.9609,-0.0359,0.0229,0.0064,0.0048,0.0206,0.0046,440,2019-08-07 16:19:17:672
4.4366,-8.2721,2.9609,-0.0359,0.0229,0.0064,0.0048,0.0206,0.0046,445,2019-08-07 16:19:17:677
4.3696,-8.2912,2.8902,-0.0086,-0.039,-0.0665,0.008,0.0227,-7.0E-4,450,2019-08-07 16:19:17:682
4.3696,-8.2912,2.8902,-0.0086,-0.039,-0.0665,0.008,0.0227,-7.0E-4,455,2019-08-07 16:19:17:687
4.3696,-8.2912,2.8902,-0.0086,-0.039,-0.0665,0.008,0.0227,-7.0E-4,460,2019-08-07 16:19:17:692
4.3504,-8.2196,2.8714,0.0143,-0.053,-0.0546,0.0016,0.0142,-7.0E-4,465,2019-08-07 16:19:17:697
4.3504,-8.2196,2.8714,0.0143,-0.053,-0.0546,0.0016,0.0142,-7.0E-4,470,2019-08-07 16:19:17:702
4.3743,-8.2626,2.8808,0.0143,-0.053,-0.0546,-6.0E-4,0.011,0.0014,475,2019-08-07 16:19:17:707
4.3743,-8.2626,2.8808,0.0143,-0.053,-0.0546,-6.0E-4,0.011,0.0014,480,2019-08-07 16:19:17:712
4.3743,-8.2483,2.8572,0.0039,-0.0531,-0.0016,5.0E-4,0.0046,0.0046,485,2019-08-07 16:19:17:717
4.3743,-8.2483,2.8572,0.0039,-0.0531,-0.0016,5.0E-4,0.0046,0.0046,490,2019-08-07 16:19:17:722
4.3743,-8.2483,2.8572,0.0039,-0.0531,-0.0016,-0.0027,-7.0E-4,0.0142,495,2019-08-07 16:19:17:727
4.4174,-8.2339,2.8148,0.0039,-0.0531,-0.0016,-0.0027,-7.0E-4,0.0142,500,2019-08-07 16:19:17:732
4.4174,-8.2339,2.8148,0.0039,-0.0531,-0.0016,-0.0016,0.0078,0.0142,505,2019-08-07 16:19:17:737
4.4174,-8.2339,2.8148,-0.0217,-0.0207,0.031,-0.0016,0.0078,0.0142,510,2019-08-07 16:19:17:742
4.3695,-8.2339,2.8289,-0.0217,-0.0207,0.031,5.0E-4,0.0131,0.0142,515,2019-08-07 16:19:17:747
4.3695,-8.2339,2.8289,-0.0217,-0.0207,0.031,5.0E-4,0.0131,0.0142,520,2019-08-07 16:19:17:752
4.3695,-8.2339,2.8289,-0.0217,-0.0207,0.031,5.0E-4,0.0131,0.0142,524,2019-08-07 16:19:17:756
4.3503,-8.2626,2.9043,0.023,-0.0411,-0.0478,5.0E-4,0.0099,0.0174,531,2019-08-07 16:19:17:763
4.3503,-8.2626,2.9043,0.023,-0.0411,-0.0478,5.0E-4,0.0099,0.0174,535,2019-08-07 16:19:17:767
4.379,-8.2148,2.8761,0.023,-0.0411,-0.0478,-0.0027,0.0089,0.0131,539,2019-08-07 16:19:17:771
4.379,-8.2148,2.8761,0.023,-0.0411,-0.0478,-0.0027,0.0089,0.0131,545,2019-08-07 16:19:17:777
4.379,-8.2148,2.8761,0.0059,-0.0948,0.0283,-0.0091,0.0067,0.0121,549,2019-08-07 16:19:17:781
4.3742,-8.1719,2.8242,0.0059,-0.0948,0.0283,-0.0091,0.0067,0.0121,555,2019-08-07 16:19:17:787
4.3742,-8.1719,2.8242,0.0059,-0.0948,0.0283,-0.0123,0.0025,0.0078,560,2019-08-07 16:19:17:792
4.4125,-8.2483,2.7771,0.0059,-0.0948,0.0283,-0.0123,0.0025,0.0078,565,2019-08-07 16:19:17:797
4.4125,-8.2483,2.7771,-0.0096,-0.0959,0.0221,-0.0112,0.0153,0.0025,570,2019-08-07 16:19:17:802
4.4125,-8.2483,2.7771,-0.0096,-0.0959,0.0221,-0.0112,0.0153,0.0025,575,2019-08-07 16:19:17:807
4.4221,-8.3055,2.7016,-0.0096,-0.0959,0.0221,-0.0197,0.0195,-7.0E-4,580,2019-08-07 16:19:17:812
4.4221,-8.3055,2.7016,-0.0096,-0.0959,0.0221,-0.0197,0.0195,-7.0E-4,585,2019-08-07 16:19:17:817
4.4221,-8.3055,2.7016,0.0184,-0.0063,0.119,-0.0176,0.0195,-0.0103,590,2019-08-07 16:19:17:822
4.3838,-8.3008,2.7582,0.0184,-0.0063,0.119,-0.0176,0.0195,-0.0103,595,2019-08-07 16:19:17:827
4.3838,-8.3008,2.7582,0.0184,-0.0063,0.119,-0.0112,0.0142,-0.0146,599,2019-08-07 16:19:17:831
4.3311,-8.3915,2.8478,0.0184,-0.0063,0.119,-0.0112,0.0142,-0.0146,605,2019-08-07 16:19:17:837
4.3311,-8.3915,2.8478,0.0672,0.0367,0.0234,-0.0016,0.0057,-0.0146,610,2019-08-07 16:19:17:842
4.3311,-8.3915,2.8478,0.0672,0.0367,0.0234,-0.0016,0.0057,-0.0146,615,2019-08-07 16:19:17:847
4.2833,-8.3151,2.8996,0.0672,0.0367,0.0234,-0.0016,0.0057,-0.0146,620,2019-08-07 16:19:17:852
4.2833,-8.3151,2.8996,0.0672,0.0367,0.0234,0.0058,-0.0167,-0.0146,625,2019-08-07 16:19:17:857
4.2833,-8.3151,2.8996,0.0363,0.0046,-0.0426,0.0058,-0.0167,-0.0146,629,2019-08-07 16:19:17:861
4.3215,-8.296,2.8666,0.0363,0.0046,-0.0426,0.0175,-0.0369,-0.0188,635,2019-08-07 16:19:17:867
4.3215,-8.296,2.8666,0.0363,0.0046,-0.0426,0.0175,-0.0369,-0.0188,640,2019-08-07 16:19:17:872
4.4603,-8.2673,2.8572,0.0363,0.0046,-0.0426,0.0186,-0.0455,-0.021,644,2019-08-07 16:19:17:876
4.4603,-8.2673,2.8572,-0.0968,-0.0594,-0.0383,0.0186,-0.0455,-0.021,650,2019-08-07 16:19:17:882
4.5942,-8.1671,2.843,-0.0968,-0.0594,-0.0383,0.0165,-0.0348,-0.0146,655,2019-08-07 16:19:17:887
4.5942,-8.1671,2.843,-0.0968,-0.0594,-0.0383,0.0165,-0.0348,-0.0146,660,2019-08-07 16:19:17:892
4.5942,-8.1671,2.843,-0.0968,-0.0594,-0.0383,0.0026,-0.021,-0.0135,665,2019-08-07 16:19:17:897
4.5798,-8.2053,2.8572,-0.1964,-0.0948,-0.006,0.0026,-0.021,-0.0135,670,2019-08-07 16:19:17:902
4.5798,-8.2053,2.8572,-0.1964,-0.0948,-0.006,0.0026,-0.021,-0.0135,675,2019-08-07 16:19:17:907
4.5798,-8.2053,2.8572,-0.1964,-0.0948,-0.006,-6.0E-4,-0.005,-0.006,680,2019-08-07 16:19:17:912
4.5655,-8.2148,2.876,-0.1964,-0.0948,-0.006,-6.0E-4,-0.005,-0.006,684,2019-08-07 16:19:17:916
4.5655,-8.2148,2.876,-0.1699,-0.0791,-0.0341,-0.0016,0.0067,3.0E-4,690,2019-08-07 16:19:17:922
4.575,-8.2101,2.942,-0.1699,-0.0791,-0.0341,-0.0016,0.0067,3.0E-4,695,2019-08-07 16:19:17:927
4.575,-8.2101,2.942,-0.1699,-0.0791,-0.0341,-0.0048,0.0195,0.0089,699,2019-08-07 16:19:17:931
4.575,-8.2101,2.942,-0.1699,-0.0791,-0.0341,-0.0048,0.0195,0.0089,705,2019-08-07 16:19:17:937
4.4889,-8.2196,2.8289,-0.0756,-0.1176,0.0286,-0.0048,0.0312,0.0131,710,2019-08-07 16:19:17:942
4.4889,-8.2196,2.8289,-0.0756,-0.1176,0.0286,-0.0048,0.0312,0.0131,716,2019-08-07 16:19:17:948
4.3693,-8.148,2.8807,-0.0756,-0.1176,0.0286,-0.0048,0.0387,0.0142,720,2019-08-07 16:19:17:952
4.3693,-8.148,2.8807,-0.0756,-0.1176,0.0286,-0.0048,0.0387,0.0142,725,2019-08-07 16:19:17:957
4.3693,-8.148,2.8807,0.0641,-0.133,-0.0347,-0.0123,0.0366,0.0099,730,2019-08-07 16:19:17:962
4.2688,-8.2482,2.8996,0.0641,-0.133,-0.0347,-0.0123,0.0366,0.0099,734,2019-08-07 16:19:17:966
4.2688,-8.2482,2.8996,0.0641,-0.133,-0.0347,-0.0112,0.0323,0.0057,740,2019-08-07 16:19:17:972
4.2401,-8.1814,2.8807,0.0641,-0.133,-0.0347,-0.0112,0.0323,0.0057,745,2019-08-07 16:19:17:977
4.2401,-8.1814,2.8807,0.1282,-0.0913,-0.0291,-0.0187,0.0121,0.0025,749,2019-08-07 16:19:17:981
4.2401,-8.1814,2.8807,0.1282,-0.0913,-0.0291,-0.0187,0.0121,0.0025,755,2019-08-07 16:19:17:987
4.2879,-8.2244,2.8289,0.1282,-0.0913,-0.0291,-0.0187,0.0121,0.0025,759,2019-08-07 16:19:17:991
4.2879,-8.2244,2.8289,0.1282,-0.0913,-0.0291,-0.024,-0.005,-7.0E-4,765,2019-08-07 16:19:17:997
4.3979,-8.2673,2.7864,-0.02,-0.0352,0.0661,-0.024,-0.005,-7.0E-4,770,2019-08-07 16:19:18:002
4.3979,-8.2673,2.7864,-0.02,-0.0352,0.0661,-0.0261,-0.0028,0.0025,775,2019-08-07 16:19:18:007
4.3979,-8.2673,2.7864,-0.02,-0.0352,0.0661,-0.0261,-0.0028,0.0025,780,2019-08-07 16:19:18:012
4.4936,-8.3103,2.7393,-0.02,-0.0352,0.0661,-0.0229,0.011,0.0046,785,2019-08-07 16:19:18:017
4.4936,-8.3103,2.7393,-0.1827,-0.0559,0.0805,-0.0229,0.011,0.0046,789,2019-08-07 16:19:18:021
4.4936,-8.3103,2.7393,-0.1827,-0.0559,0.0805,-0.0144,0.0344,0.0057,795,2019-08-07 16:19:18:027
4.4649,-8.2626,2.6592,-0.1827,-0.0559,0.0805,-0.0144,0.0344,0.0057,800,2019-08-07 16:19:18:032
4.4649,-8.2626,2.6592,-0.1827,-0.0559,0.0805,-0.007,0.0547,0.0078,805,2019-08-07 16:19:18:037
4.3835,-8.2148,2.7063,-0.1827,-0.0559,0.0805,-0.007,0.0547,0.0078,810,2019-08-07 16:19:18:042
4.3835,-8.2148,2.7063,-0.0137,-0.0762,0.1764,-6.0E-4,0.0728,0.0131,815,2019-08-07 16:19:18:047
4.3835,-8.2148,2.7063,-0.0137,-0.0762,0.1764,-6.0E-4,0.0728,0.0131,820,2019-08-07 16:19:18:052
4.3596,-8.2626,2.7629,-0.0137,-0.0762,0.1764,0.0058,0.0888,0.0057,826,2019-08-07 16:19:18:058
4.3596,-8.2626,2.7629,-0.0387,-0.0815,0.113,0.0058,0.0888,0.0057,830,2019-08-07 16:19:18:062
4.3596,-8.2626,2.7629,-0.0387,-0.0815,0.113,0.0058,0.0888,0.0057,834,2019-08-07 16:19:18:066
4.3883,-8.2721,2.7676,-0.0387,-0.0815,0.113,0.0026,0.0952,3.0E-4,840,2019-08-07 16:19:18:072
4.3883,-8.2721,2.7676,-0.0387,-0.0815,0.113,0.0026,0.0952,3.0E-4,845,2019-08-07 16:19:18:077
4.4074,-8.3628,2.7629,-0.0387,-0.0815,0.113,-0.0059,0.1101,-0.0082,849,2019-08-07 16:19:18:081
4.4074,-8.3628,2.7629,0.0232,0.1048,-0.0483,-0.0059,0.1101,-0.0082,855,2019-08-07 16:19:18:087
4.3356,-8.5776,2.8713,0.0232,0.1048,-0.0483,-0.0219,0.1154,-0.0082,860,2019-08-07 16:19:18:092
4.3356,-8.5776,2.8713,0.0232,0.1048,-0.0483,-0.0219,0.1154,-0.0082,865,2019-08-07 16:19:18:097
4.3356,-8.5776,2.8713,0.0232,0.1048,-0.0483,-0.0219,0.1154,-0.0082,870,2019-08-07 16:19:18:102
4.3739,-8.802,2.8666,-0.017,0.4947,0.0043,-0.0283,0.1005,0.0035,874,2019-08-07 16:19:18:106
4.3739,-8.802,2.8666,-0.017,0.4947,0.0043,-0.0283,0.1005,0.0035,880,2019-08-07 16:19:18:112
4.4552,-8.8354,2.9467,-0.017,0.4947,0.0043,-0.0272,0.0877,0.0206,884,2019-08-07 16:19:18:116
4.4552,-8.8354,2.9467,-0.017,0.4947,0.0043,-0.0272,0.0877,0.0206,890,2019-08-07 16:19:18:122
4.4552,-8.8354,2.9467,-0.198,0.424,-0.0217,-0.0123,0.1015,0.0408,895,2019-08-07 16:19:18:127
4.5413,-8.6874,2.7628,-0.198,0.424,-0.0217,-0.0123,0.1015,0.0408,900,2019-08-07 16:19:18:132
4.5413,-8.6874,2.7628,-0.198,0.424,-0.0217,-0.0123,0.1015,0.0408,905,2019-08-07 16:19:18:137
4.5126,-8.6254,2.6686,-0.198,0.424,-0.0217,-0.0048,0.1601,0.0664,910,2019-08-07 16:19:18:142
4.5126,-8.6254,2.6686,-0.2048,0.3562,0.1655,-0.0048,0.1601,0.0664,915,2019-08-07 16:19:18:147
4.5126,-8.6254,2.6686,-0.2048,0.3562,0.1655,-0.0133,0.2209,0.0802,919,2019-08-07 16:19:18:151
4.3404,-8.802,2.7393,-0.2048,0.3562,0.1655,-0.0133,0.2209,0.0802,925,2019-08-07 16:19:18:157
4.3404,-8.802,2.7393,-0.2048,0.3562,0.1655,-0.0123,0.2773,0.0856,930,2019-08-07 16:19:18:162
4.0916,-9.0216,2.8618,0.1583,0.581,0.0699,-0.0123,0.2773,0.0856,934,2019-08-07 16:19:18:166
4.0916,-9.0216,2.8618,0.1583,0.581,0.0699,-0.0038,0.3125,0.092,941,2019-08-07 16:19:18:173
4.0916,-9.0216,2.8618,0.1583,0.581,0.0699,-0.0038,0.3125,0.092,945,2019-08-07 16:19:18:177
3.6179,-9.604,2.9561,0.1583,0.581,0.0699,0.0218,0.3199,0.1165,950,2019-08-07 16:19:18:182
3.6179,-9.604,2.9561,0.8535,1.5713,-0.2527,0.0218,0.3199,0.1165,954,2019-08-07 16:19:18:186
3.1299,-10.6447,3.3285,0.8535,1.5713,-0.2527,0.0655,0.2922,0.1644,960,2019-08-07 16:19:18:192
3.1299,-10.6447,3.3285,1.1611,2.5754,-0.4667,0.0655,0.2922,0.1644,965,2019-08-07 16:19:18:197
3.1299,-10.6447,3.3285,1.1611,2.5754,-0.4667,0.0655,0.2922,0.1644,969,2019-08-07 16:19:18:201
2.8093,-12.0339,3.7622,1.1611,2.5754,-0.4667,0.1294,0.2123,0.2496,975,2019-08-07 16:19:18:207
2.8093,-12.0339,3.7622,1.1611,2.5754,-0.4667,0.1294,0.2123,0.2496,980,2019-08-07 16:19:18:212
2.8093,-13.5137,4.1534,1.4685,4.8642,-1.0548,0.1741,0.1442,0.3444,985,2019-08-07 16:19:18:217
2.7376,-13.5137,4.1534,1.4685,4.8642,-1.0548,0.1741,0.1442,0.3444,989,2019-08-07 16:19:18:221
2.7376,-13.5137,4.1534,1.4685,4.8642,-1.0548,0.2285,0.1633,0.4541,995,2019-08-07 16:19:18:227
2.7423,-15.1941,5.2423,1.4685,4.8642,-1.0548,0.2285,0.1633,0.4541,999,2019-08-07 16:19:18:231
2.7423,-15.1941,5.2423,1.3499,7.4962,-2.6555,0.2285,0.1633,0.4541,1004,2019-08-07 16:19:18:236
2.7423,-15.1941,5.2423,1.3499,7.4962,-2.6555,0.3765,0.3263,0.6363,1010,2019-08-07 16:19:18:242
2.7423,-15.1941,5.2423,1.3499,7.4962,-2.6555,0.3765,0.3263,0.6363,1015,2019-08-07 16:19:18:247
2.7423,-15.1941,5.2423,1.3499,7.4962,-2.6555,0.3765,0.3263,0.6363,1020,2019-08-07 16:19:18:252
2.7423,-15.1941,5.2423,1.3499,7.4962,-2.6555,0.3765,0.3263,0.6363,1025,2019-08-07 16:19:18:257
2.7854,-17.0416,6.3783,1.2488,9.0148,-3.4303,0.4532,0.4392,0.7354,1030,2019-08-07 16:19:18:262
2.7854,-17.0416,6.3783,1.2488,9.0148,-3.4303,0.4532,0.4392,0.7354,1034,2019-08-07 16:19:18:266
2.7854,-17.0416,6.3783,1.2488,9.0148,-3.4303,0.4532,0.4392,0.7354,1040,2019-08-07 16:19:18:272
3.0724,-22.0111,6.9628,0.673,14.178,-3.363,0.7014,1.6845,1.659,1045,2019-08-07 16:19:18:277
3.0724,-22.0111,6.9628,0.673,14.178,-3.363,0.7014,1.6845,1.659,1049,2019-08-07 16:19:18:281
3.0724,-22.0111,6.9628,0.673,14.178,-3.363,0.6833,2.6486,2.2779,1055,2019-08-07 16:19:18:287
4.0962,-28.2601,4.5729,0.673,14.178,-3.363,0.6833,2.6486,2.2779,1060,2019-08-07 16:19:18:292
4.0962,-28.2601,4.5729,-1.8423,22.4186,0.0184,0.6833,2.6486,2.2779,1064,2019-08-07 16:19:18:296
4.0962,-28.2601,4.5729,-1.8423,22.4186,0.0184,0.597,3.9184,2.7178,1070,2019-08-07 16:19:18:302
5.12,-30.8188,2.7911,-1.8423,22.4186,0.0184,0.597,3.9184,2.7178,1074,2019-08-07 16:19:18:306
5.12,-30.8188,2.7911,-1.756,22.4369,1.3369,0.6684,5.463,3.0566,1080,2019-08-07 16:19:18:312
1.7854,-29.9357,1.9897,-1.756,22.4369,1.3369,0.6684,5.463,3.0566,1084,2019-08-07 16:19:18:316
1.7854,-29.9357,1.9897,-1.756,22.4369,1.3369,1.0114,8.0015,3.5072,1090,2019-08-07 16:19:18:322
1.7854,-29.9357,1.9897,1.5516,17.856,2.563,1.0114,8.0015,3.5072,1095,2019-08-07 16:19:18:327
-0.7933,-25.7729,1.6079,1.5516,17.856,2.563,0.9145,9.3598,3.683,1100,2019-08-07 16:19:18:332
-0.7933,-25.7729,1.6079,1.5516,17.856,2.563,0.9145,9.3598,3.683,1105,2019-08-07 16:19:18:337
-3.5443,-23.4242,-1.1308,1.5516,17.856,2.563,0.4863,10.2983,3.5711,1111,2019-08-07 16:19:18:343
-3.5443,-23.4242,-1.1308,4.388,14.6054,7.1516,0.4863,10.2983,3.5711,1115,2019-08-07 16:19:18:347
-3.5443,-23.4242,-1.1308,4.388,14.6054,7.1516,-0.1891,11.1515,3.1663,1120,2019-08-07 16:19:18:352
-3.5443,-23.4242,-1.1308,4.388,14.6054,7.1516,-0.1891,11.1515,3.1663,1124,2019-08-07 16:19:18:356
-7.4626,-23.4528,-7.0419,6.4907,14.6907,11.345,-1.2672,11.4711,2.6582,1130,2019-08-07 16:19:18:362
-7.4626,-23.4528,-7.0419,6.4907,14.6907,11.345,-1.2672,11.4711,2.6582,1135,2019-08-07 16:19:18:367
-18.8204,-31.0289,-19.5005,6.4907,14.6907,11.345,-1.8903,12.8741,2.1554,1139,2019-08-07 16:19:18:371
-18.8204,-31.0289,-19.5005,19.8562,25.5196,25.023,-1.8903,12.8741,2.1554,1145,2019-08-07 16:19:18:377
-18.8204,-31.0289,-19.5005,19.8562,25.5196,25.023,-1.7551,15.0515,1.2084,1150,2019-08-07 16:19:18:382
-26.9536,-35.4017,-19.8163,19.8562,25.5196,25.023,-1.7551,15.0515,1.2084,1154,2019-08-07 16:19:18:386
-26.9536,-35.4017,-19.8163,19.8562,25.5196,25.023,-0.66,15.8046,0.3977,1160,2019-08-07 16:19:18:392
-21.2986,-28.2266,20.2793,17.8123,19.3861,-17.8449,-0.66,15.8046,0.3977,1165,2019-08-07 16:19:18:397
-21.2986,-28.2266,20.2793,17.8123,19.3861,-17.8449,4.1252,8.3456,-0.5483,1169,2019-08-07 16:19:18:401
-21.2986,-28.2266,20.2793,17.8123,19.3861,-17.8449,4.1252,8.3456,-0.5483,1175,2019-08-07 16:19:18:407
-14.0697,-24.5842,24.9507,10.3956,15.8179,-22.5239,7.4957,1.8305,-1.0628,1179,2019-08-07 16:19:18:411
-14.0697,-24.5842,24.9507,10.3956,15.8179,-22.5239,7.4957,1.8305,-1.0628,1185,2019-08-07 16:19:18:417
-14.0697,-24.5842,24.9507,10.3956,15.8179,-22.5239,7.4957,1.8305,-1.0628,1190,2019-08-07 16:19:18:422
-3.664,-19.6815,3.3143,10.3956,15.8179,-22.5239,11.3424,-2.797,-3.2178,1194,2019-08-07 16:19:18:426
-3.664,-19.6815,3.3143,-0.8386,9.6779,-0.8387,11.3424,-2.797,-3.2178,1200,2019-08-07 16:19:18:432
-3.664,-19.6815,3.3143,-0.8386,9.6779,-0.8387,11.3424,-2.797,-3.2178,1204,2019-08-07 16:19:18:436
-6.7977,-4.1045,-21.8952,-0.8386,9.6779,-0.8387,12.0827,2.8851,-5.3707,1210,2019-08-07 16:19:18:442
-6.7977,-4.1045,-21.8952,-0.8386,9.6779,-0.8387,12.0827,2.8851,-5.3707,1215,2019-08-07 16:19:18:447
-12.1991,32.2624,-15.7955,13.5148,-42.7141,32.2484,3.4956,1.366,-4.0381,1220,2019-08-07 16:19:18:452
-12.1991,32.2624,-15.7955,13.5148,-42.7141,32.2484,3.4956,1.366,-4.0381,1225,2019-08-07 16:19:18:457
-12.1991,32.2624,-15.7955,1.9385,-70.9717,3.5549,4.6131,1.7932,-3.2966,1230,2019-08-07 16:19:18:462
-2.5062,82.1298,43.1318,1.9385,-70.9717,3.5549,4.6131,1.7932,-3.2966,1235,2019-08-07 16:19:18:467
-2.5062,82.1298,43.1318,1.9385,-70.9717,3.5549,10.8374,-4.3513,-3.6833,1240,2019-08-07 16:19:18:472
1.0437,51.9879,17.5264,1.9385,-70.9717,3.5549,10.8374,-4.3513,-3.6833,1244,2019-08-07 16:19:18:476
1.0437,51.9879,17.5264,0.337,-57.813,31.5466,4.5193,-9.7862,-3.6556,1250,2019-08-07 16:19:18:482
7.0814,40.9651,-4.2797,0.337,-57.813,31.5466,4.5193,-9.7862,-3.6556,1255,2019-08-07 16:19:18:487
7.0814,40.9651,-4.2797,0.337,-57.813,31.5466,5.8861,1.5919,-3.5885,1260,2019-08-07 16:19:18:492
7.0814,40.9651,-4.2797,0.337,-57.813,31.5466,5.8861,1.5919,-3.5885,1265,2019-08-07 16:19:18:497
20.1184,33.0501,0.8348,-17.5531,-45.9813,7.0955,1.2415,-0.7592,-0.7272,1270,2019-08-07 16:19:18:502
20.1184,33.0501,0.8348,-17.5531,-45.9813,7.0955,1.2415,-0.7592,-0.7272,1275,2019-08-07 16:19:18:507
20.1184,33.0501,0.8348,-17.5531,-45.9813,7.0955,-1.4206,0.4297,-0.4087,1280,2019-08-07 16:19:18:512
10.6265,24.1613,-8.2581,-17.5531,-45.9813,7.0955,-1.4206,0.4297,-0.4087,1285,2019-08-07 16:19:18:517
10.6265,24.1613,-8.2581,-5.0681,-30.2395,9.373,-3.9186,1.8603,0.2635,1290,2019-08-07 16:19:18:522
1.0819,24.7867,12.5816,-5.0681,-30.2395,9.373,-3.9186,1.8603,0.2635,1295,2019-08-07 16:19:18:527
1.0819,24.7867,12.5816,-5.0681,-30.2395,9.373,-3.9186,1.8603,0.2635,1300,2019-08-07 16:19:18:532
1.0819,24.7867,12.5816,-5.0681,-30.2395,9.373,-3.9186,1.8603,0.2635,1305,2019-08-07 16:19:18:537
1.0819,24.7867,12.5816,-5.0681,-30.2395,9.373,-3.9186,1.8603,0.2635,1310,2019-08-07 16:19:18:542
-2.1905,23.4977,12.6335,1.4206,-29.3063,-4.7656,-4.3724,0.68,1.1242,1315,2019-08-07 16:19:18:547
-2.1905,23.4977,12.6335,1.4206,-29.3063,-4.7656,-4.3724,0.68,1.1242,1320,2019-08-07 16:19:18:552
-2.1905,23.4977,12.6335,1.4206,-29.3063,-4.7656,-4.3724,0.68,1.1242,1325,2019-08-07 16:19:18:557
-4.0708,15.9933,-5.0433,3.0065,-22.3793,12.4137,-4.6781,-0.577,3.3453,1330,2019-08-07 16:19:18:562
-4.0708,15.9933,-5.0433,3.0065,-22.3793,12.4137,-4.6781,-0.577,3.3453,1335,2019-08-07 16:19:18:567
-4.0708,15.9933,-5.0433,3.0065,-22.3793,12.4137,-5.1873,-1.0958,3.145,1339,2019-08-07 16:19:18:571
3.3017,9.2861,-1.9086,3.0065,-22.3793,12.4137,-5.1873,-1.0958,3.145,1344,2019-08-07 16:19:18:576
3.3017,9.2861,-1.9086,-4.2847,-16.0641,5.4019,-4.8411,-0.7251,2.329,1350,2019-08-07 16:19:18:582
3.3017,9.2861,-1.9086,-4.2847,-16.0641,5.4019,-4.8411,-0.7251,2.329,1355,2019-08-07 16:19:18:587
1.9143,8.6082,0.5803,-4.2847,-16.0641,5.4019,-4.8411,-0.7251,2.329,1360,2019-08-07 16:19:18:592
1.9143,8.6082,0.5803,-4.2847,-16.0641,5.4019,-4.8411,-0.7251,2.329,1364,2019-08-07 16:19:18:596
1.9143,8.6082,0.5803,-4.2847,-16.0641,5.4019,-4.8411,-0.7251,2.329,1370,2019-08-07 16:19:18:602
1.1057,8.317,-0.848,-2.2779,-15.511,8.4879,-3.7599,-0.1115,1.4385,1375,2019-08-07 16:19:18:607
1.1057,8.317,-0.848,-2.2779,-15.511,8.4879,-3.7599,-0.1115,1.4385,1380,2019-08-07 16:19:18:612
1.1057,8.317,-0.848,-2.2779,-15.511,8.4879,-3.8366,0.1314,0.7641,1385,2019-08-07 16:19:18:617
-2.0328,4.7844,-1.5221,0.0963,-12.8479,6.7628,-3.8366,0.1314,0.7641,1390,2019-08-07 16:19:18:622
-2.0328,4.7844,-1.5221,0.0963,-12.8479,6.7628,-3.8366,0.1314,0.7641,1395,2019-08-07 16:19:18:627
-2.0328,4.7844,-1.5221,0.0963,-12.8479,6.7628,-3.99,-0.2947,0.7269,1400,2019-08-07 16:19:18:632
-2.3868,1.352,3.1116,0.0963,-12.8479,6.7628,-3.99,-0.2947,0.7269,1405,2019-08-07 16:19:18:637
-2.3868,1.352,3.1116,0.7109,-7.7032,0.6505,-4.1285,-2.3273,0.8536,1410,2019-08-07 16:19:18:642
-1.9993,-2.3,3.4557,0.7109,-7.7032,0.6505,-4.1285,-2.3273,0.8536,1415,2019-08-07 16:19:18:647
-1.9993,-2.3,3.4557,0.7109,-7.7032,0.6505,-4.1285,-2.3273,0.8536,1419,2019-08-07 16:19:18:651
-1.9993,-2.3,3.4557,0.7109,-7.7032,0.6505,-3.6214,-2.9281,1.089,1425,2019-08-07 16:19:18:657
0.1584,-5.5605,5.2469,-3.1436,-1.3263,-1.5623,-3.6214,-2.9281,1.089,1430,2019-08-07 16:19:18:662
0.1584,-5.5605,5.2469,-3.1436,-1.3263,-1.5623,-2.7969,-3.2881,1.1775,1435,2019-08-07 16:19:18:667
2.895,-10.6494,3.2341,-3.1436,-1.3263,-1.5623,-2.7969,-3.2881,1.1775,1440,2019-08-07 16:19:18:672
2.895,-10.6494,3.2341,-3.1436,-1.3263,-1.5623,-1.8861,-3.0602,1.0486,1445,2019-08-07 16:19:18:677
2.895,-10.6494,3.2341,-4.5002,5.7619,2.1393,-1.8861,-3.0602,1.0486,1449,2019-08-07 16:19:18:681
2.4596,-18.5262,0.1843,-4.5002,5.7619,2.1393,-1.2597,-2.2005,0.6054,1455,2019-08-07 16:19:18:687
2.4596,-18.5262,0.1843,-4.5002,5.7619,2.1393,-1.2597,-2.2005,0.6054,1460,2019-08-07 16:19:18:692
2.4596,-18.5262,0.1843,-4.5002,5.7619,2.1393,-1.3875,-1.3206,0.1559,1464,2019-08-07 16:19:18:696
-2.1237,-23.8442,1.259,0.9454,15.8742,1.173,-1.3875,-1.3206,0.1559,1470,2019-08-07 16:19:18:702
-2.1237,-23.8442,1.259,0.9454,15.8742,1.173,-1.3875,-1.3206,0.1559,1474,2019-08-07 16:19:18:706
-5.2144,-26.0545,4.8556,0.9454,15.8742,1.173,-1.3428,-1.1927,-0.0966,1480,2019-08-07 16:19:18:712
-5.2144,-26.0545,4.8556,0.9454,15.8742,1.173,-1.3428,-1.1927,-0.0966,1485,2019-08-07 16:19:18:717
-5.2144,-26.0545,4.8556,5.0721,13.6224,-2.4128,-0.7548,-2.1888,-0.331,1490,2019-08-07 16:19:18:722
-6.3387,-21.8631,6.6752,5.0721,13.6224,-2.4128,-0.7548,-2.1888,-0.331,1495,2019-08-07 16:19:18:727
-6.3387,-21.8631,6.6752,5.0721,13.6224,-2.4128,-0.1305,-2.9451,-0.5568,1500,2019-08-07 16:19:18:732
-6.3387,-21.8631,6.6752,5.0721,13.6224,-2.4128,-0.1305,-2.9451,-0.5568,1505,2019-08-07 16:19:18:737
-6.3387,-21.8631,6.6752,5.0721,13.6224,-2.4128,-0.1305,-2.9451,-0.5568,1509,2019-08-07 16:19:18:741
-6.2669,-20.1397,6.9391,5.6611,11.3028,-2.7286,0.8421,-4.8402,-1.229,1515,2019-08-07 16:19:18:747
-6.2669,-20.1397,6.9391,5.6611,11.3028,-2.7286,0.8421,-4.8402,-1.229,1519,2019-08-07 16:19:18:751
-8.3672,-20.0872,2.0321,5.6611,11.3028,-2.7286,0.6258,-5.6903,-1.3419,1525,2019-08-07 16:19:18:757
-8.3672,-20.0872,2.0321,5.6611,11.3028,-2.7286,0.6258,-5.6903,-1.3419,1529,2019-08-07 16:19:18:761
-8.3672,-20.0872,2.0321,7.277,10.4988,-0.1454,-0.0517,-6.6959,-1.2055,1535,2019-08-07 16:19:18:767
-8.0658,-19.333,2.9513,7.277,10.4988,-0.1454,-0.0517,-6.6959,-1.2055,1540,2019-08-07 16:19:18:772
-8.0658,-19.333,2.9513,7.3668,10.7878,2.8144,-0.4171,-7.8698,-1.1523,1545,2019-08-07 16:19:18:777
-5.4967,-21.3809,-1.244,7.3668,10.7878,2.8144,-0.4171,-7.8698,-1.1523,1549,2019-08-07 16:19:18:781
-5.4967,-21.3809,-1.244,7.3668,10.7878,2.8144,-0.562,-8.2554,-1.4175,1555,2019-08-07 16:19:18:787
-5.4967,-21.3809,-1.244,7.3668,10.7878,2.8144,-0.562,-8.2554,-1.4175,1559,2019-08-07 16:19:18:791
-2.009,-22.7033,-2.4696,1.9541,13.6579,6.2161,-0.6387,-8.1042,-1.654,1565,2019-08-07 16:19:18:797
-2.009,-22.7033,-2.4696,1.9541,13.6579,6.2161,-0.6387,-8.1042,-1.654,1570,2019-08-07 16:19:18:802
-2.009,-22.7033,-2.4696,1.9541,13.6579,6.2161,-0.6387,-8.1042,-1.654,1575,2019-08-07 16:19:18:807
2.3255,-22.4694,0.7028,1.9541,13.6579,6.2161,-0.3393,-6.4562,-1.8809,1580,2019-08-07 16:19:18:812
2.3255,-22.4694,0.7028,-2.5204,12.3152,-0.63,-0.3393,-6.4562,-1.8809,1585,2019-08-07 16:19:18:817
2.3255,-22.4694,0.7028,-2.5204,12.3152,-0.63,-0.3393,-6.4562,-1.8809,1590,2019-08-07 16:19:18:822
2.0288,-18.7935,5.0489,-0.2236,9.7511,-1.7005,0.8346,-3.7558,-1.8926,1594,2019-08-07 16:19:18:826
2.0288,-18.7935,5.0489,-0.2236,9.7511,-1.7005,0.8346,-3.7558,-1.8926,1600,2019-08-07 16:19:18:832
2.0288,-18.7935,5.0489,-0.2236,9.7511,-1.7005,0.8346,-3.7558,-1.8926,1605,2019-08-07 16:19:18:837
-1.8225,-15.6953,4.6341,-0.2236,9.7511,-1.7005,0.6205,-1.7936,-1.0383,1609,2019-08-07 16:19:18:841
-1.8225,-15.6953,4.6341,4.4621,6.4877,-1.8349,0.6205,-1.7936,-1.0383,1615,2019-08-07 16:19:18:847
-2.9564,-15.8242,6.1048,4.4621,6.4877,-1.8349,-0.2008,-0.8881,-0.5589,1620,2019-08-07 16:19:18:852
-2.9564,-15.8242,6.1048,4.4621,6.4877,-1.8349,-0.2008,-0.8881,-0.5589,1625,2019-08-07 16:19:18:857
-2.9564,-15.8242,6.1048,4.4621,6.4877,-1.8349,-0.808,-0.7421,-0.4045,1629,2019-08-07 16:19:18:861
-3.1764,-18.6933,6.4112,5.5203,9.7408,-3.1559,-0.808,-0.7421,-0.4045,1635,2019-08-07 16:19:18:867
-3.1764,-18.6933,6.4112,5.5203,9.7408,-3.1559,-1.2586,-1.3866,-0.2979,1640,2019-08-07 16:19:18:872
-1.7077,-20.6171,7.5661,4.104,11.6279,-4.4535,-1.2586,-1.3866,-0.2979,1644,2019-08-07 16:19:18:876
-1.7077,-20.6171,7.5661,4.104,11.6279,-4.4535,-0.6525,-1.6785,-0.3043,1651,2019-08-07 16:19:18:883
-1.7077,-20.6171,7.5661,4.104,11.6279,-4.4535,-0.6525,-1.6785,-0.3043,1655,2019-08-07 16:19:18:887
-1.7077,-20.6171,7.5661,4.104,11.6279,-4.4535,-0.6525,-1.6785,-0.3043,1660,2019-08-07 16:19:18:892
1.9666,-18.5548,4.7472,0.6615,7.6476,-1.2614,-0.0602,-1.6519,-0.3352,1666,2019-08-07 16:19:18:898
1.9666,-18.5548,4.7472,0.6615,7.6476,-1.2614,-0.0602,-1.6519,-0.3352,1670,2019-08-07 16:19:18:902
1.9666,-18.5548,4.7472,0.6615,7.6476,-1.2614,0.8687,-1.5709,0.077,1675,2019-08-07 16:19:18:907
1.78,-12.8835,3.0879,0.6615,7.6476,-1.2614,0.8687,-1.5709,0.077,1680,2019-08-07 16:19:18:912
1.78,-12.8835,3.0879,0.3258,2.2151,0.1143,0.9369,-1.7978,0.4733,1685,2019-08-07 16:19:18:917
1.78,-9.6851,2.3007,0.3258,2.2151,0.1143,0.9369,-1.7978,0.4733,1690,2019-08-07 16:19:18:922
2.8564,-9.6851,2.3007,-0.4608,0.3485,0.758,0.7228,-1.9544,0.7535,1695,2019-08-07 16:19:18:927
2.8564,-9.6851,2.3007,-0.4608,0.3485,0.758,0.7228,-1.9544,0.7535,1700,2019-08-07 16:19:18:932
3.7223,-7.9187,2.2347,-0.4608,0.3485,0.758,0.4575,-2.0055,0.8685,1705,2019-08-07 16:19:18:937
3.7223,-7.9187,2.2347,-0.4608,0.3485,0.758,0.4575,-2.0055,0.8685,1709,2019-08-07 16:19:18:941
3.7223,-7.9187,2.2347,-1.7183,-1.6953,1.8986,0.4575,-2.0055,0.8685,1715,2019-08-07 16:19:18:947
4.6457,-7.2791,0.8111,-1.7183,-1.6953,1.8986,0.3211,-1.8585,0.8515,1720,2019-08-07 16:19:18:952
4.6457,-7.2791,0.8111,-1.7183,-1.6953,1.8986,0.3211,-1.8585,0.8515,1724,2019-08-07 16:19:18:956
5.8513,-7.5321,1.3249,-1.7183,-1.6953,1.8986,0.2562,-1.5464,0.7801,1730,2019-08-07 16:19:18:962
5.8513,-7.5321,1.3249,-3.6043,-1.3491,1.6767,0.2562,-1.5464,0.7801,1735,2019-08-07 16:19:18:967
5.8513,-7.5321,1.3249,-3.6043,-1.3491,1.6767,0.2562,-1.5464,0.7801,1740,2019-08-07 16:19:18:972
6.2771,-7.4557,0.0758,-3.6043,-1.3491,1.6767,0.3606,-0.5302,0.6821,1745,2019-08-07 16:19:18:977
6.2771,-7.4557,0.0758,-3.6043,-1.3491,1.6767,0.3606,-0.5302,0.6821,1750,2019-08-07 16:19:18:982
6.2771,-7.4557,0.0758,-2.5959,-2.5882,3.264,0.2306,0.5852,0.5042,1755,2019-08-07 16:19:18:987
4.6887,-6.2479,0.0381,-2.5959,-2.5882,3.264,0.2306,0.5852,0.5042,1759,2019-08-07 16:19:18:991
4.6887,-6.2479,0.0381,-2.5959,-2.5882,3.264,0.0591,0.991,0.3583,1765,2019-08-07 16:19:18:997
2.464,-6.0522,1.8057,-2.5959,-2.5882,3.264,0.0591,0.991,0.3583,1770,2019-08-07 16:19:19:002
2.464,-6.0522,1.8057,-2.5959,-2.5882,3.264,0.0591,0.991,0.3583,1775,2019-08-07 16:19:19:007
2.464,-6.0522,1.8057,0.6173,-2.8242,0.6494,-0.0336,1.0603,0.1964,1779,2019-08-07 16:19:19:011
0.8948,-6.477,3.3424,0.6173,-2.8242,0.6494,-0.0336,1.0603,0.1964,1785,2019-08-07 16:19:19:017
0.8948,-6.477,3.3424,0.6173,-2.8242,0.6494,-0.1422,0.4861,0.0312,1790,2019-08-07 16:19:19:022
0.8948,-6.477,3.3424,0.6173,-2.8242,0.6494,-0.1422,0.4861,0.0312,1795,2019-08-07 16:19:19:027
-0.0764,-6.7253,3.4461,2.4313,-2.218,-0.3428,-0.1422,0.4861,0.0312,1799,2019-08-07 16:19:19:031
-0.0764,-6.7253,3.4461,2.4313,-2.218,-0.3428,-0.2147,-0.0327,-0.0337,1805,2019-08-07 16:19:19:037
-0.0764,-6.7253,3.4461,2.4313,-2.218,-0.3428,-0.2147,-0.0327,-0.0337,1810,2019-08-07 16:19:19:042
0.3637,-7.3316,3.3424,1.3848,-1.4467,-0.2822,-0.2498,-0.4247,-0.0966,1815,2019-08-07 16:19:19:047
0.3637,-7.3316,3.3424,1.3848,-1.4467,-0.2822,-0.2498,-0.4247,-0.0966,1820,2019-08-07 16:19:19:052
0.3637,-7.3316,3.3424,1.3848,-1.4467,-0.2822,-0.2083,-0.9115,-0.2053,1825,2019-08-07 16:19:19:057
1.9186,-7.9474,2.7532,0.4682,-1.0959,0.2062,-0.2083,-0.9115,-0.2053,1830,2019-08-07 16:19:19:062
1.9186,-7.9474,2.7532,0.4682,-1.0959,0.2062,-0.1476,-0.8859,-0.2308,1835,2019-08-07 16:19:19:067
3.1912,-8.4582,1.8953,0.4682,-1.0959,0.2062,-0.1476,-0.8859,-0.2308,1840,2019-08-07 16:19:19:072
3.1912,-8.4582,1.8953,-0.8939,-0.3481,1.0777,-0.1007,-0.6015,-0.2606,1844,2019-08-07 16:19:19:076
3.1912,-8.4582,1.8953,-0.8939,-0.3481,1.0777,-0.1007,-0.6015,-0.2606,1850,2019-08-07 16:19:19:082
3.4399,-8.926,2.1828,-0.8939,-0.3481,1.0777,-0.0634,-0.1765,-0.3022,1855,2019-08-07 16:19:19:087
3.4399,-8.926,2.1828,-0.8939,-0.3481,1.0777,-0.0634,-0.1765,-0.3022,1860,2019-08-07 16:19:19:092
3.4399,-8.926,2.1828,-0.8939,-0.3481,1.0777,-0.0634,-0.1765,-0.3022,1864,2019-08-07 16:19:19:096
3.1576,-9.3747,2.6872,-0.601,0.3461,0.1735,0.0037,0.1463,-0.3065,1870,2019-08-07 16:19:19:102
3.1576,-9.3747,2.6872,-0.601,0.3461,0.1735,0.0037,0.1463,-0.3065,1875,2019-08-07 16:19:19:107
2.6314,-9.623,3.069,-0.0535,0.6029,-0.2003,0.0378,0.3391,-0.2947,1880,2019-08-07 16:19:19:112
2.6314,-9.623,3.069,-0.0535,0.6029,-0.2003,0.0378,0.3391,-0.2947,1886,2019-08-07 16:19:19:118
2.6314,-9.623,3.069,-0.0535,0.6029,-0.2003,0.0207,0.3135,-0.2457,1890,2019-08-07 16:19:19:122
1.8324,-9.728,3.6535,-0.0535,0.6029,-0.2003,0.0207,0.3135,-0.2457,1894,2019-08-07 16:19:19:126
1.8324,-9.728,3.6535,0.7641,0.7274,-0.6986,-0.0123,0.1335,-0.1935,1900,2019-08-07 16:19:19:132
1.8324,-9.728,3.6535,0.7641,0.7274,-0.6986,-0.0123,0.1335,-0.1935,1905,2019-08-07 16:19:19:137
1.8324,-9.728,3.6535,0.7641,0.7274,-0.6986,-0.0123,0.1335,-0.1935,1910,2019-08-07 16:19:19:142
2.0907,-9.8426,3.3377,0.1677,0.9578,-0.1419,-0.0453,-0.0849,-0.1573,1915,2019-08-07 16:19:19:147
2.0907,-9.8426,3.3377,0.1677,0.9578,-0.1419,-0.0453,-0.0849,-0.1573,1920,2019-08-07 16:19:19:152
2.837,-9.9858,2.6401,0.1677,0.9578,-0.1419,-0.0336,-0.2596,-0.1211,1925,2019-08-07 16:19:19:157
2.837,-9.9858,2.6401,-0.3159,0.9881,0.3033,-0.0336,-0.2596,-0.1211,1930,2019-08-07 16:19:19:162
2.837,-9.9858,2.6401,-0.3159,0.9881,0.3033,0.0175,-0.1797,-0.0891,1935,2019-08-07 16:19:19:167
3.2819,-9.8808,2.4091,-0.3159,0.9881,0.3033,0.0175,-0.1797,-0.0891,1939,2019-08-07 16:19:19:171
3.2819,-9.8808,2.4091,-0.3159,0.9881,0.3033,0.057,-0.0636,-0.0646,1945,2019-08-07 16:19:19:177
3.1623,-9.5084,2.4656,-0.6188,0.6545,0.3656,0.057,-0.0636,-0.0646,1950,2019-08-07 16:19:19:182
3.1623,-9.5084,2.4656,-0.6188,0.6545,0.3656,0.0804,0.1484,-0.0284,1955,2019-08-07 16:19:19:187
3.1623,-9.5084,2.4656,-0.6188,0.6545,0.3656,0.0804,0.1484,-0.0284,1960,2019-08-07 16:19:19:192
2.947,-9.0835,2.8145,-0.6188,0.6545,0.3656,0.0804,0.1484,-0.0284,1964,2019-08-07 16:19:19:196
2.947,-9.0835,2.8145,-0.2426,0.0444,0.0174,0.0325,0.3625,-0.0242,1970,2019-08-07 16:19:19:202
2.947,-9.0835,2.8145,-0.2426,0.0444,0.0174,0.0325,0.3625,-0.0242,1975,2019-08-07 16:19:19:207
2.7509,-8.8353,2.9559,-0.2426,0.0444,0.0174,-0.0091,0.4328,-0.021,1980,2019-08-07 16:19:19:212
2.7509,-8.8353,2.9559,-0.2426,0.0444,0.0174,-0.0091,0.4328,-0.021,1985,2019-08-07 16:19:19:217
2.2963,-8.6443,3.003,0.2379,-0.3654,-0.0641,-0.0698,0.5181,-0.0135,1990,2019-08-07 16:19:19:222
2.2963,-8.6443,3.003,0.2379,-0.3654,-0.0641,-0.0698,0.5181,-0.0135,1995,2019-08-07 16:19:19:227
2.2963,-8.6443,3.003,0.2379,-0.3654,-0.0641,-0.09,0.5021,-0.005,2000,2019-08-07 16:19:19:232
1.8705,-8.5489,3.2198,0.2379,-0.3654,-0.0641,-0.09,0.5021,-0.005,2005,2019-08-07 16:19:19:237
1.8705,-8.5489,3.2198,0.2379,-0.3654,-0.0641,-0.09,0.5021,-0.005,2010,2019-08-07 16:19:19:242
1.5787,-8.5441,3.3235,0.909,-0.4468,-0.3992,-0.105,0.386,0.0078,2016,2019-08-07 16:19:19:248
1.5787,-8.5441,3.3235,0.909,-0.4468,-0.3992,-0.105,0.386,0.0078,2020,2019-08-07 16:19:19:252
1.5787,-8.5441,3.3235,0.909,-0.4468,-0.3992,-0.1103,0.1356,0.028,2024,2019-08-07 16:19:19:256
1.4447,-8.6205,3.0454,1.1366,-0.3743,-0.1292,-0.1103,0.1356,0.028,2030,2019-08-07 16:19:19:262
1.4447,-8.6205,3.0454,1.1366,-0.3743,-0.1292,-0.1231,-0.0636,0.0174,2035,2019-08-07 16:19:19:267
1.483,-8.7541,2.9983,1.1366,-0.3743,-0.1292,-0.1231,-0.0636,0.0174,2039,2019-08-07 16:19:19:271
1.483,-8.7541,2.9983,1.1366,-0.3743,-0.1292,-0.1018,-0.267,0.0174,2045,2019-08-07 16:19:19:277
1.483,-8.7541,2.9983,0.7843,-0.0925,0.0896,-0.1018,-0.267,0.0174,2050,2019-08-07 16:19:19:282
2.1268,-9.0499,2.6962,0.7843,-0.0925,0.0896,-0.1018,-0.267,0.0174,2055,2019-08-07 16:19:19:287
2.1268,-9.0499,2.6962,0.7843,-0.0925,0.0896,-0.0432,-0.3874,-0.005,2060,2019-08-07 16:19:19:292
2.7487,-9.0642,2.583,0.2305,0.1434,0.1449,0.0016,-0.3704,-0.0242,2065,2019-08-07 16:19:19:297
2.7487,-9.0642,2.583,0.2305,0.1434,0.1449,0.0016,-0.3704,-0.0242,2070,2019-08-07 16:19:19:302
2.7487,-9.0642,2.583,0.2305,0.1434,0.1449,0.0016,-0.3704,-0.0242,2075,2019-08-07 16:19:19:307
3.3371,-8.8208,2.2766,-0.7139,-0.1895,0.5817,0.025,-0.2063,-0.0434,2079,2019-08-07 16:19:19:311
3.3371,-8.8208,2.2766,-0.7139,-0.1895,0.5817,0.0293,0.0067,-0.0583,2086,2019-08-07 16:19:19:318
3.3371,-8.8208,2.2766,-0.7139,-0.1895,0.5817,0.0293,0.0067,-0.0583,2089,2019-08-07 16:19:19:321
3.2462,-8.4532,2.2295,-0.7139,-0.1895,0.5817,0.0293,0.0067,-0.0583,2095,2019-08-07 16:19:19:327
3.2462,-8.4532,2.2295,-0.3981,-0.6286,0.6309,0.009,0.2155,-0.0551,2101,2019-08-07 16:19:19:333
3.2462,-8.4532,2.2295,-0.3981,-0.6286,0.6309,0.009,0.2155,-0.0551,2105,2019-08-07 16:19:19:337
3.2462,-8.4532,2.2295,-0.3981,-0.6286,0.6309,0.009,0.2155,-0.0551,2110,2019-08-07 16:19:19:342
2.5811,-8.4579,2.715,0.0537,-0.5466,0.1506,-0.0442,0.3167,-0.0444,2115,2019-08-07 16:19:19:347
2.5811,-8.4579,2.715,0.0537,-0.5466,0.1506,-0.0442,0.3167,-0.0444,2119,2019-08-07 16:19:19:351
2.5811,-8.4579,2.715,0.0537,-0.5466,0.1506,-0.0442,0.3167,-0.0444,2125,2019-08-07 16:19:19:357
2.2127,-8.7491,3.1439,0.4849,-0.104,-0.2647,-0.0677,0.1665,-0.037,2130,2019-08-07 16:19:19:362
2.2127,-8.7491,3.1439,0.4849,-0.104,-0.2647,-0.0677,0.1665,-0.037,2135,2019-08-07 16:19:19:367
2.2127,-8.7491,3.1439,0.4849,-0.104,-0.2647,-0.0549,-0.038,-0.0583,2140,2019-08-07 16:19:19:372
2.1935,-8.8446,2.9224,0.4849,-0.104,-0.2647,-0.0549,-0.038,-0.0583,2145,2019-08-07 16:19:19:377
2.1935,-8.8446,2.9224,0.3254,-0.1764,0.1307,-0.0709,-0.1669,-0.0583,2150,2019-08-07 16:19:19:382
2.1935,-8.8446,2.9224,0.3254,-0.1764,0.1307,-0.0709,-0.1669,-0.0583,2155,2019-08-07 16:19:19:387
2.4232,-8.9162,2.6867,0.3254,-0.1764,0.1307,-0.0709,-0.1669,-0.0583,2160,2019-08-07 16:19:19:392
2.4232,-8.9162,2.6867,0.3254,-0.1764,0.1307,-0.0932,-0.2223,-0.0561,2165,2019-08-07 16:19:19:397
2.6958,-8.9735,2.5358,-0.0396,-0.036,0.2942,-0.0932,-0.2223,-0.0561,2170,2019-08-07 16:19:19:402
2.6958,-8.9735,2.5358,-0.0396,-0.036,0.2942,-0.1082,-0.2542,-0.0551,2175,2019-08-07 16:19:19:407
2.6958,-8.9735,2.5358,-0.0396,-0.036,0.2942,-0.1082,-0.2542,-0.0551,2180,2019-08-07 16:19:19:412
2.9924,-9.131,2.3614,-0.0396,-0.036,0.2942,-0.106,-0.2116,-0.0583,2185,2019-08-07 16:19:19:417
2.9924,-9.131,2.3614,-0.5115,0.1421,0.3348,-0.106,-0.2116,-0.0583,2190,2019-08-07 16:19:19:422
2.9924,-9.131,2.3614,-0.5115,0.1421,0.3348,-0.106,-0.2116,-0.0583,2195,2019-08-07 16:19:19:427
3.2316,-9.1358,2.4321,-0.5115,0.1421,0.3348,-0.0858,-0.1232,-0.0647,2199,2019-08-07 16:19:19:431
3.2316,-9.1358,2.4321,-0.5115,0.1421,0.3348,-0.0858,-0.1232,-0.0647,2205,2019-08-07 16:19:19:437
3.2316,-9.1358,2.4321,-0.5115,0.1421,0.3348,-0.0858,-0.1232,-0.0647,2210,2019-08-07 16:19:19:442
3.1359,-8.9257,2.6442,-0.3825,-0.1053,0.0883,-0.0261,0.0558,-0.0711,2215,2019-08-07 16:19:19:447
3.1359,-8.9257,2.6442,-0.3825,-0.1053,0.0883,-0.0261,0.0558,-0.0711,2220,2019-08-07 16:19:19:452
3.1359,-8.9257,2.6442,-0.3825,-0.1053,0.0883,-0.0261,0.1846,-0.0742,2224,2019-08-07 16:19:19:456
2.6239,-8.6775,2.8705,0.1683,-0.3504,-0.232,-0.0261,0.1846,-0.0742,2230,2019-08-07 16:19:19:462
2.6239,-8.6775,2.8705,0.1683,-0.3504,-0.232,-0.0538,0.1655,-0.0785,2235,2019-08-07 16:19:19:467
2.6239,-8.6775,2.8705,0.1683,-0.3504,-0.232,-0.0538,0.1655,-0.0785,2240,2019-08-07 16:19:19:472
2.6239,-8.6775,2.8705,0.1683,-0.3504,-0.232,-0.0538,0.1655,-0.0785,2244,2019-08-07 16:19:19:476
2.466,-8.7396,3.0308,0.2422,-0.2685,-0.2457,-0.0719,0.1133,-0.0817,2250,2019-08-07 16:19:19:482
2.466,-8.7396,3.0308,0.2422,-0.2685,-0.2457,-0.0719,0.1133,-0.0817,2255,2019-08-07 16:19:19:487
2.466,-8.7396,3.0308,0.2422,-0.2685,-0.2457,-0.0719,0.1133,-0.0817,2260,2019-08-07 16:19:19:492
2.5856,-9.069,3.0779,0.085,0.0558,-0.2756,-0.0932,-0.0231,-0.0753,2265,2019-08-07 16:19:19:497
2.5856,-9.069,3.0779,0.085,0.0558,-0.2756,-0.0932,-0.0231,-0.0753,2270,2019-08-07 16:19:19:502
2.8965,-9.1024,2.828,0.085,0.0558,-0.2756,-0.0837,-0.1285,-0.0593,2275,2019-08-07 16:19:19:507
2.8965,-9.1024,2.828,0.085,0.0558,-0.2756,-0.0837,-0.1285,-0.0593,2280,2019-08-07 16:19:19:512
3.0496,-9.0642,2.6536,-0.3127,0.0548,0.0988,-0.0773,-0.1264,-0.054,2285,2019-08-07 16:19:19:517
3.0496,-9.0642,2.6536,-0.3127,0.0548,0.0988,-0.0773,-0.1264,-0.054,2289,2019-08-07 16:19:19:521
3.0496,-9.0642,2.6536,-0.3127,0.0548,0.0988,-0.0602,-0.0934,-0.0487,2295,2019-08-07 16:19:19:527
3.1788,-9.0021,2.3849,-0.3127,0.0548,0.0988,-0.0602,-0.0934,-0.0487,2300,2019-08-07 16:19:19:532
3.1788,-9.0021,2.3849,-0.3911,0.0351,0.4098,-0.0602,-0.0934,-0.0487,2305,2019-08-07 16:19:19:537
3.1788,-9.0021,2.3849,-0.3911,0.0351,0.4098,-0.041,0.0099,-0.038,2309,2019-08-07 16:19:19:541
3.1452,-8.9973,2.3944,-0.3911,0.0351,0.4098,-0.041,0.0099,-0.038,2315,2019-08-07 16:19:19:547
3.1452,-8.9973,2.3944,-0.3911,0.0351,0.4098,-0.0272,0.0451,-0.0306,2319,2019-08-07 16:19:19:551
3.1452,-8.9973,2.3944,-0.1972,0.0066,0.0491,-0.0272,0.0451,-0.0306,2325,2019-08-07 16:19:19:557
2.8916,-8.9973,2.7385,-0.1972,0.0066,0.0491,-0.0059,0.0707,-0.0348,2330,2019-08-07 16:19:19:562
2.8916,-8.9973,2.7385,-0.1972,0.0066,0.0491,-0.0059,0.0707,-0.0348,2335,2019-08-07 16:19:19:567
2.5998,-9.0307,2.7715,-0.1972,0.0066,0.0491,-0.0197,0.0739,-0.0476,2339,2019-08-07 16:19:19:571
2.5998,-9.0307,2.7715,0.1838,-0.0014,-0.1089,-0.0197,0.0739,-0.0476,2345,2019-08-07 16:19:19:577
2.5998,-9.0307,2.7715,0.1838,-0.0014,-0.1089,-0.0368,0.0281,-0.0466,2349,2019-08-07 16:19:19:581
2.5232,-9.0785,2.8751,0.1838,-0.0014,-0.1089,-0.0368,0.0281,-0.0466,2355,2019-08-07 16:19:19:587
2.5232,-9.0785,2.8751,0.1838,-0.0014,-0.1089,-0.0464,-0.0359,-0.0402,2360,2019-08-07 16:19:19:592
2.6236,-9.1692,2.8657,0.2092,0.1228,-0.162,-0.0464,-0.0359,-0.0402,2365,2019-08-07 16:19:19:597
2.6236,-9.1692,2.8657,0.2092,0.1228,-0.162,-0.0464,-0.0359,-0.0402,2370,2019-08-07 16:19:19:602
2.6236,-9.1692,2.8657,0.2092,0.1228,-0.162,-0.0378,-0.0944,-0.0338,2375,2019-08-07 16:19:19:607
2.7193,-9.2074,2.6724,0.2092,0.1228,-0.162,-0.0378,-0.0944,-0.0338,2380,2019-08-07 16:19:19:612
2.7193,-9.2074,2.6724,-0.0106,0.1173,0.0708,-0.0261,-0.1019,-0.0284,2384,2019-08-07 16:19:19:616
2.7193,-9.2074,2.6724,-0.0106,0.1173,0.0708,-0.0261,-0.1019,-0.0284,2390,2019-08-07 16:19:19:622
2.8532,-9.1071,2.6064,-0.0677,0.0887,0.1269,-0.0123,-0.0976,-0.0178,2395,2019-08-07 16:19:19:627
2.8532,-9.1071,2.6064,-0.0677,0.0887,0.1269,-0.0123,-0.0976,-0.0178,2400,2019-08-07 16:19:19:632
2.8532,-9.1071,2.6064,-0.0677,0.0887,0.1269,0.0303,-0.0774,-0.0135,2405,2019-08-07 16:19:19:637
2.8532,-9.1071,2.6064,-0.0677,0.0887,0.1269,0.0303,-0.0774,-0.0135,2409,2019-08-07 16:19:19:641
2.9632,-9.0069,2.7761,-0.1793,-0.0189,-0.1333,0.0303,-0.0774,-0.0135,2415,2019-08-07 16:19:19:647
2.9632,-9.0069,2.7761,-0.1793,-0.0189,-0.1333,0.0452,-0.0646,-0.0135,2419,2019-08-07 16:19:19:651
2.9297,-8.8875,2.7478,-0.1793,-0.0189,-0.1333,0.0452,-0.0646,-0.0135,2425,2019-08-07 16:19:19:657
2.9297,-8.8875,2.7478,-0.1793,-0.0189,-0.1333,0.0346,-0.0369,-0.0157,2429,2019-08-07 16:19:19:661
2.8531,-8.7968,2.696,-0.0438,-0.1825,-0.0056,0.0346,-0.0369,-0.0157,2435,2019-08-07 16:19:19:667
2.8531,-8.7968,2.696,-0.0438,-0.1825,-0.0056,-6.0E-4,-0.0305,-0.0103,2440,2019-08-07 16:19:19:672
2.8531,-8.7968,2.696,-0.0438,-0.1825,-0.0056,-6.0E-4,-0.0305,-0.0103,2445,2019-08-07 16:19:19:677
2.7957,-8.8875,2.7761,-0.0438,-0.1825,-0.0056,-0.0101,-0.0327,-0.0114,2450,2019-08-07 16:19:19:682
2.7957,-8.8875,2.7761,0.0226,-0.029,-0.0452,-0.0101,-0.0327,-0.0114,2454,2019-08-07 16:19:19:686
2.7957,-8.8875,2.7761,0.0226,-0.029,-0.0452,-0.0101,-0.0327,-0.0114,2461,2019-08-07 16:19:19:693
2.8387,-9.0307,2.6536,-0.0277,0.0755,0.0639,-0.0229,-0.0625,-0.0039,2465,2019-08-07 16:19:19:697
2.8387,-9.0307,2.6536,-0.0277,0.0755,0.0639,-0.0229,-0.0625,-0.0039,2471,2019-08-07 16:19:19:703
2.8387,-9.0307,2.6536,-0.0277,0.0755,0.0639,-0.0101,-0.0817,0.0024,2475,2019-08-07 16:19:19:707
2.9439,-9.193,2.5404,-0.0277,0.0755,0.0639,-0.0101,-0.0817,0.0024,2479,2019-08-07 16:19:19:711
2.9439,-9.193,2.5404,-0.1669,0.1126,0.1362,0.0197,-0.055,0.0099,2485,2019-08-07 16:19:19:717
2.9439,-9.193,2.5404,-0.1669,0.1126,0.1362,0.0197,-0.055,0.0099,2490,2019-08-07 16:19:19:722
3.03,-9.0546,2.4838,-0.1669,0.1126,0.1362,0.0399,-0.0359,0.012,2495,2019-08-07 16:19:19:727
3.03,-9.0546,2.4838,-0.1669,0.1126,0.1362,0.0399,-0.0359,0.012,2500,2019-08-07 16:19:19:732
3.03,-9.0546,2.4838,-0.1468,-0.0767,0.0369,0.0559,0.0068,0.0099,2504,2019-08-07 16:19:19:736
2.9774,-8.8636,2.6677,-0.1468,-0.0767,0.0369,0.0559,0.0068,0.0099,2510,2019-08-07 16:19:19:742
2.9774,-8.8636,2.6677,-0.1468,-0.0767,0.0369,0.0559,0.0068,0.0099,2515,2019-08-07 16:19:19:747
2.9774,-8.8636,2.6677,-0.1468,-0.0767,0.0369,0.0506,0.0281,0.0067,2520,2019-08-07 16:19:19:752
2.9774,-8.8636,2.6677,-0.1468,-0.0767,0.0369,0.0506,0.0281,0.0067,2525,2019-08-07 16:19:19:757
2.8529,-8.7538,2.6677,-0.043,-0.2457,0.0434,0.0335,0.0376,0.0067,2530,2019-08-07 16:19:19:762
2.8529,-8.7538,2.6677,-0.043,-0.2457,0.0434,0.0335,0.0376,0.0067,2535,2019-08-07 16:19:19:767
2.8529,-8.7538,2.6677,-0.043,-0.2457,0.0434,-0.0101,0.0259,0.0024,2539,2019-08-07 16:19:19:771
2.7716,-8.8016,2.6771,-0.043,-0.2457,0.0434,-0.0101,0.0259,0.0024,2545,2019-08-07 16:19:19:777
2.7716,-8.8016,2.6771,0.0552,-0.1404,0.0514,-0.0261,-0.006,-7.0E-4,2550,2019-08-07 16:19:19:782
2.7716,-8.8016,2.6771,0.0552,-0.1404,0.0514,-0.0261,-0.006,-7.0E-4,2554,2019-08-07 16:19:19:786
2.8098,-8.9304,2.6912,0.0552,-0.1404,0.0514,-0.0346,-0.038,0.0024,2560,2019-08-07 16:19:19:792
2.8098,-8.9304,2.6912,-0.0302,0.001,0.2944,-0.0346,-0.038,0.0024,2565,2019-08-07 16:19:19:797
2.8098,-8.9304,2.6912,-0.0302,0.001,0.2944,-0.0346,-0.038,0.0024,2570,2019-08-07 16:19:19:802
2.8528,-8.9113,2.4508,-0.0302,0.001,0.2944,-0.0464,-0.0572,0.0099,2575,2019-08-07 16:19:19:807
2.8528,-8.9113,2.4508,-0.0302,0.001,0.2944,-0.0464,-0.0572,0.0099,2580,2019-08-07 16:19:19:812
2.8528,-8.9113,2.4508,-0.0302,0.001,0.2944,-0.0485,-0.0657,0.0248,2584,2019-08-07 16:19:19:816
2.9389,-8.9257,2.3659,-0.1289,-0.0789,0.3279,-0.0485,-0.0657,0.0248,2590,2019-08-07 16:19:19:822
2.9389,-8.9257,2.3659,-0.1289,-0.0789,0.3279,-0.0442,-0.0529,0.0301,2594,2019-08-07 16:19:19:826
3.0346,-8.9304,2.3989,-0.1289,-0.0789,0.3279,-0.0442,-0.0529,0.0301,2600,2019-08-07 16:19:19:832
3.0346,-8.9304,2.3989,-0.2208,-0.1355,0.4146,-0.0293,-0.0103,0.0312,2604,2019-08-07 16:19:19:836
3.0298,-8.8732,2.1538,-0.2208,-0.1355,0.4146,-0.0293,-0.0103,0.0312,2610,2019-08-07 16:19:19:842
3.0298,-8.8732,2.1538,-0.2208,-0.1355,0.4146,-0.0165,0.0515,0.0323,2614,2019-08-07 16:19:19:846
3.0298,-8.8732,2.1538,-0.2208,-0.1355,0.4146,-0.0165,0.0515,0.0323,2620,2019-08-07 16:19:19:852
3.0298,-8.8732,2.1538,-0.2208,-0.1355,0.4146,-0.0165,0.0515,0.0323,2624,2019-08-07 16:19:19:856
2.9628,-8.8397,2.2858,-0.1317,-0.1671,0.3927,-0.0069,0.1037,0.0248,2630,2019-08-07 16:19:19:862
2.9628,-8.8397,2.2858,-0.1317,-0.1671,0.3927,-0.0069,0.1037,0.0248,2634,2019-08-07 16:19:19:866
2.6565,-8.854,2.4696,-0.1317,-0.1671,0.3927,0.0122,0.1356,0.0046,2640,2019-08-07 16:19:19:872
2.6565,-8.854,2.4696,-0.1317,-0.1671,0.3927,0.0122,0.1356,0.0046,2646,2019-08-07 16:19:19:878
2.6565,-8.854,2.4696,0.3427,-0.1677,0.2114,0.0133,0.0813,0.0046,2650,2019-08-07 16:19:19:882
2.3695,-8.9018,2.4932,0.3427,-0.1677,0.2114,0.0133,0.0813,0.0046,2655,2019-08-07 16:19:19:887
2.3695,-8.9018,2.4932,0.3427,-0.1677,0.2114,0.0133,0.0089,-7.0E-4,2660,2019-08-07 16:19:19:892
2.379,-8.9543,2.809,0.4446,-0.0582,0.0394,0.0133,0.0089,-7.0E-4,2665,2019-08-07 16:19:19:897
2.379,-8.9543,2.809,0.4446,-0.0582,0.0394,0.0133,0.0089,-7.0E-4,2670,2019-08-07 16:19:19:902
2.379,-8.9543,2.809,0.4446,-0.0582,0.0394,0.0314,-0.1711,-0.0103,2675,2019-08-07 16:19:19:907
2.5225,-8.9256,2.908,0.2572,-0.1143,-0.1256,0.0314,-0.1711,-0.0103,2680,2019-08-07 16:19:19:912
2.5225,-8.9256,2.908,0.2572,-0.1143,-0.1256,0.0399,-0.2276,-0.0231,2685,2019-08-07 16:19:19:917
2.5225,-8.9256,2.908,0.2572,-0.1143,-0.1256,0.0399,-0.2276,-0.0231,2690,2019-08-07 16:19:19:922
2.8478,-8.7586,2.8231,0.2572,-0.1143,-0.1256,0.0452,-0.2766,-0.037,2695,2019-08-07 16:19:19:927
2.8478,-8.7586,2.8231,-0.1824,-0.2767,-0.0975,0.0452,-0.2766,-0.037,2700,2019-08-07 16:19:19:932
2.8478,-8.7586,2.8231,-0.1824,-0.2767,-0.0975,0.0452,-0.2766,-0.037,2706,2019-08-07 16:19:19:938
2.8478,-8.7586,2.8231,-0.1824,-0.2767,-0.0975,0.0452,-0.2766,-0.037,2710,2019-08-07 16:19:19:942
3.1922,-8.7204,2.6346,-0.3664,-0.2836,0.0449,0.0399,-0.2393,-0.0391,2714,2019-08-07 16:19:19:946
3.1922,-8.7204,2.6346,-0.3664,-0.2836,0.0449,0.0399,-0.2393,-0.0391,2720,2019-08-07 16:19:19:952
3.1922,-8.7204,2.6346,-0.3664,-0.2836,0.0449,0.0399,-0.0881,-0.0647,2725,2019-08-07 16:19:19:957
3.2161,-8.7586,2.7288,-0.378,-0.2722,-0.1353,0.0399,-0.0881,-0.0647,2729,2019-08-07 16:19:19:961
3.2161,-8.7586,2.7288,-0.378,-0.2722,-0.1353,0.0367,-0.0146,-0.0636,2735,2019-08-07 16:19:19:967
3.0965,-8.8063,2.5733,-0.378,-0.2722,-0.1353,0.0367,-0.0146,-0.0636,2740,2019-08-07 16:19:19:972
3.0965,-8.8063,2.5733,-0.378,-0.2722,-0.1353,0.0186,0.044,-0.0711,2745,2019-08-07 16:19:19:977
3.0965,-8.8063,2.5733,-0.1243,-0.156,-0.0583,0.0186,0.044,-0.0711,2750,2019-08-07 16:19:19:982
3.0965,-8.8063,2.5733,-0.1243,-0.156,-0.0583,0.0186,0.044,-0.0711,2755,2019-08-07 16:19:19:987
2.9768,-8.8493,2.9268,-0.1243,-0.156,-0.0583,0.0016,0.0387,-0.0774,2760,2019-08-07 16:19:19:992
2.9768,-8.8493,2.9268,-0.0128,-0.1151,-0.3103,-0.0059,-0.0146,-0.0668,2765,2019-08-07 16:19:19:997
3.0294,-8.9829,2.9362,-0.0128,-0.1151,-0.3103,-0.0059,-0.0146,-0.0668,2770,2019-08-07 16:19:20:002
3.0294,-8.9829,2.9362,-0.0128,-0.1151,-0.3103,-0.0059,-0.0146,-0.0668,2775,2019-08-07 16:19:20:007
3.0294,-8.9829,2.9362,-0.1849,-0.0014,-0.209,-0.0251,-0.0849,-0.0593,2779,2019-08-07 16:19:20:011
3.0485,-8.9925,2.9457,-0.1849,-0.0014,-0.209,-0.0251,-0.0849,-0.0593,2785,2019-08-07 16:19:20:017
3.0485,-8.9925,2.9457,-0.1849,-0.0014,-0.209,-0.0346,-0.1413,-0.0412,2789,2019-08-07 16:19:20:021
3.2064,-8.959,2.8467,-0.1849,-0.0014,-0.209,-0.0346,-0.1413,-0.0412,2795,2019-08-07 16:19:20:027
3.2064,-8.959,2.8467,-0.3978,-0.0285,-0.0664,-0.0325,-0.1488,-0.0199,2800,2019-08-07 16:19:20:032
3.3834,-9.0068,2.677,-0.3978,-0.0285,-0.0664,-0.0325,-0.1488,-0.0199,2805,2019-08-07 16:19:20:037
3.3834,-9.0068,2.677,-0.3978,-0.0285,-0.0664,-0.0272,-0.1158,-0.0039,2809,2019-08-07 16:19:20:041
3.3834,-9.0068,2.677,-0.3978,-0.0285,-0.0664,-0.0272,-0.1158,-0.0039,2815,2019-08-07 16:19:20:047
3.3642,-8.9208,2.5733,-0.4537,-0.062,0.0864,-0.0272,-0.1158,-0.0039,2820,2019-08-07 16:19:20:052
3.3642,-8.9208,2.5733,-0.4537,-0.062,0.0864,-0.0112,-0.0391,0.0099,2825,2019-08-07 16:19:20:057
3.3642,-8.9208,2.5733,-0.4537,-0.062,0.0864,-0.0112,-0.0391,0.0099,2830,2019-08-07 16:19:20:062
3.2207,-8.8922,2.4931,-0.4537,-0.062,0.0864,-0.0059,0.0259,0.012,2836,2019-08-07 16:19:20:068
3.2207,-8.8922,2.4931,-0.2139,-0.0578,0.1169,-0.0059,0.0259,0.012,2839,2019-08-07 16:19:20:071
3.2207,-8.8922,2.4931,-0.2139,-0.0578,0.1169,-0.0059,0.0259,0.012,2845,2019-08-07 16:19:20:077
3.1106,-8.8826,2.479,-0.0446,-0.0966,0.1086,-0.0101,0.0845,0.012,2850,2019-08-07 16:19:20:082
3.1106,-8.8826,2.479,-0.0446,-0.0966,0.1086,-0.0101,0.0845,0.012,2855,2019-08-07 16:19:20:087
3.1106,-8.8826,2.479,-0.0446,-0.0966,0.1086,-0.0187,0.1207,0.0142,2860,2019-08-07 16:19:20:092
2.7661,-8.8779,2.6722,0.1376,-0.107,-0.012,-0.0187,0.1207,0.0142,2865,2019-08-07 16:19:20:097
2.7661,-8.8779,2.6722,0.1376,-0.107,-0.012,-0.0197,0.1101,0.0131,2870,2019-08-07 16:19:20:102
2.7661,-8.8779,2.6722,0.1376,-0.107,-0.012,-0.0197,0.1101,0.0131,2875,2019-08-07 16:19:20:107
2.5699,-8.8301,2.7288,0.3675,-0.1474,-0.1601,-0.024,0.0696,0.0099,2880,2019-08-07 16:19:20:112
2.5699,-8.8301,2.7288,0.3675,-0.1474,-0.1601,-0.024,0.0696,0.0099,2885,2019-08-07 16:19:20:117
2.5699,-8.8301,2.7288,0.3675,-0.1474,-0.1601,-0.0368,-0.0359,0.0248,2890,2019-08-07 16:19:20:122
2.5555,-8.9447,2.6628,0.3675,-0.1474,-0.1601,-0.0368,-0.0359,0.0248,2895,2019-08-07 16:19:20:127
2.5555,-8.9447,2.6628,1.0474,-0.1145,1.024,-0.2243,-0.5419,0.0323,2899,2019-08-07 16:19:20:131
2.5555,-8.9447,2.6628,1.0474,-0.1145,1.024,-0.2243,-0.5419,0.0323,2905,2019-08-07 16:19:20:137
2.5555,-8.9447,2.6628,1.0474,-0.1145,1.024,-0.2243,-0.5419,0.0323,2910,2019-08-07 16:19:20:142
1.6704,-8.9877,3.2049,1.0474,-0.1145,1.024,-0.2605,-0.6143,0.0621,2914,2019-08-07 16:19:20:146
1.6704,-8.9877,3.2049,-0.6377,0.417,-0.5097,-0.2605,-0.6143,0.0621,2920,2019-08-07 16:19:20:152
1.6704,-8.9877,3.2049,-0.6377,0.417,-0.5097,0.1337,-0.2425,-0.0039,2924,2019-08-07 16:19:20:156
3.5266,-9.4173,2.6109,-0.6377,0.417,-0.5097,0.1337,-0.2425,-0.0039,2930,2019-08-07 16:19:20:162
3.5266,-9.4173,2.6109,-0.6377,0.417,-0.5097,0.2274,-0.0785,-0.0018,2935,2019-08-07 16:19:20:167
3.5266,-9.4173,2.6109,-0.6377,0.417,-0.5097,0.2274,-0.0785,-0.0018,2939,2019-08-07 16:19:20:171
3.8041,-9.0211,1.0412,-0.8877,0.0255,1.5686,0.1262,0.0163,-0.0018,2945,2019-08-07 16:19:20:177
3.8041,-9.0211,1.0412,-0.8877,0.0255,1.5686,0.1262,0.0163,-0.0018,2949,2019-08-07 16:19:20:181
3.1678,-8.6917,2.4553,-0.8877,0.0255,1.5686,-0.041,0.2582,-0.0029,2955,2019-08-07 16:19:20:187
3.1678,-8.6917,2.4553,-0.8877,0.0255,1.5686,-0.041,0.2582,-0.0029,2960,2019-08-07 16:19:20:192
3.1678,-8.6917,2.4553,-0.1444,-0.2314,-0.1645,-0.0016,0.3242,-0.0061,2965,2019-08-07 16:19:20:197
2.7946,-9.0163,2.7382,-0.1444,-0.2314,-0.1645,-0.0016,0.3242,-0.0061,2970,2019-08-07 16:19:20:202
2.7946,-9.0163,2.7382,-0.1444,-0.2314,-0.1645,-0.0016,0.3242,-0.0061,2975,2019-08-07 16:19:20:207
2.4214,-9.1022,2.8277,0.5421,0.0746,-0.2856,0.0208,0.2773,-0.0093,2980,2019-08-07 16:19:20:212
2.4214,-9.1022,2.8277,0.5421,0.0746,-0.2856,0.0208,0.2773,-0.0093,2985,2019-08-07 16:19:20:217
2.4214,-9.1022,2.8277,0.5421,0.0746,-0.2856,0.0101,0.0781,-0.0071,2989,2019-08-07 16:19:20:221