ACCELEROMETER X (m/s²),ACCELEROMETER Y (m/s²),ACCELEROMETER Z (m/s²),LINEAR ACCELERATION X (m/s²),LINEAR ACCELERATION Y (m/s²),LINEAR ACCELERATION Z (m/s²),GYROSCOPE X (rad/s),GYROSCOPE Y (rad/s),GYROSCOPE Z (rad/s),Time since start in ms ,YYYY-MO-DD HH-MI-SS_SSS
4.211,-8.5504,2.1854,-0.0599,-0.1321,-0.0758,-0.0069,-0.0219,-0.0137,3,2019-08-07 16:21:36:350
4.2683,-8.5695,2.1712,-0.1108,-0.055,-0.034,0.0027,-0.0219,-0.0052,9,2019-08-07 16:21:36:356
4.2683,-8.5695,2.1712,-0.1108,-0.055,-0.034,-0.0048,0.0036,-0.0063,14,2019-08-07 16:21:36:361
4.2683,-8.5695,2.1712,-0.1108,-0.055,-0.034,-0.0048,0.0036,-0.0063,18,2019-08-07 16:21:36:365
4.2157,-8.5457,2.1571,-0.1108,-0.055,-0.034,-0.0048,0.0036,-0.0063,24,2019-08-07 16:21:36:371
4.2157,-8.5457,2.1571,-0.0221,-0.0874,-0.0397,-0.0144,0.0122,-0.0159,28,2019-08-07 16:21:36:375
4.2157,-8.5457,2.1571,-0.0221,-0.0874,-0.0397,-0.0144,0.0122,-0.0159,34,2019-08-07 16:21:36:381
4.1726,-8.5552,2.2042,-0.0221,-0.0874,-0.0397,-0.0144,0.0228,-0.0159,39,2019-08-07 16:21:36:386
4.1726,-8.5552,2.2042,-0.0221,-0.0874,-0.0397,-0.0144,0.0228,-0.0159,44,2019-08-07 16:21:36:391
4.1535,-8.5838,2.1995,0.0181,-0.0246,-0.0353,-0.0101,0.026,-0.0191,48,2019-08-07 16:21:36:395
4.1535,-8.5838,2.1995,0.0181,-0.0246,-0.0353,-0.0101,0.026,-0.0191,54,2019-08-07 16:21:36:401
4.1535,-8.5838,2.1995,0.0181,-0.0246,-0.0353,-0.0101,0.026,-0.0191,59,2019-08-07 16:21:36:406
4.0626,-8.5886,2.1948,0.1006,-0.0335,-0.0587,-0.0101,0.0164,-0.0244,64,2019-08-07 16:21:36:411
4.0626,-8.5886,2.1948,0.1006,-0.0335,-0.0587,-0.0101,0.0164,-0.0244,69,2019-08-07 16:21:36:416
4.0626,-8.5886,2.1948,0.1006,-0.0335,-0.0587,-0.0101,4.0E-4,-0.0286,74,2019-08-07 16:21:36:421
4.1056,-8.5027,2.1194,0.0572,-0.1652,-0.017,-0.0101,4.0E-4,-0.0286,78,2019-08-07 16:21:36:425
4.1056,-8.5027,2.1194,0.0572,-0.1652,-0.017,-0.0208,-0.006,-0.0318,85,2019-08-07 16:21:36:432
4.1773,-8.517,2.1618,0.0572,-0.1652,-0.017,-0.0208,-0.006,-0.0318,89,2019-08-07 16:21:36:436
4.1773,-8.517,2.1618,0.0572,-0.1652,-0.017,-0.0229,-0.0081,-0.0361,94,2019-08-07 16:21:36:441
4.2108,-8.5838,2.1241,-0.0368,-0.0343,0.007,-0.0229,-0.0081,-0.0361,99,2019-08-07 16:21:36:446
4.2108,-8.5838,2.1241,-0.0368,-0.0343,0.007,-0.0303,-0.0134,-0.035,104,2019-08-07 16:21:36:451
4.2108,-8.5838,2.1241,-0.0368,-0.0343,0.007,-0.0303,-0.0134,-0.035,109,2019-08-07 16:21:36:456
4.2921,-8.665,2.1005,-0.0368,-0.0343,0.007,-0.0335,-0.0102,-0.0308,114,2019-08-07 16:21:36:461
4.2921,-8.665,2.1005,-0.1161,0.0724,0.038,-0.0335,-0.0102,-0.0308,119,2019-08-07 16:21:36:466
4.2921,-8.665,2.1005,-0.1161,0.0724,0.038,-0.0335,-0.0102,-0.0308,124,2019-08-07 16:21:36:471
4.3208,-8.6841,2.0816,-0.1161,0.0724,0.038,-0.0282,-0.0017,-0.0265,129,2019-08-07 16:21:36:476
4.3208,-8.6841,2.0816,-0.1161,0.0724,0.038,-0.0282,-0.0017,-0.0265,134,2019-08-07 16:21:36:481
4.3351,-8.6698,2.1288,-0.1495,0.0545,-0.0088,-0.0186,0.0026,-0.018,138,2019-08-07 16:21:36:485
4.3351,-8.6698,2.1288,-0.1495,0.0545,-0.0088,-0.0186,0.0026,-0.018,144,2019-08-07 16:21:36:491
4.3351,-8.6698,2.1288,-0.1495,0.0545,-0.0088,-0.0165,-0.0028,-0.0052,149,2019-08-07 16:21:36:496
4.3303,-8.6936,2.1193,-0.1495,0.0545,-0.0088,-0.0165,-0.0028,-0.0052,154,2019-08-07 16:21:36:501
4.3303,-8.6936,2.1193,-0.1667,0.0404,-0.0355,-0.0207,0.009,0.0012,159,2019-08-07 16:21:36:506
4.316,-8.6793,2.1146,-0.1667,0.0404,-0.0355,-0.0207,0.009,0.0012,164,2019-08-07 16:21:36:511
4.316,-8.6793,2.1146,-0.1667,0.0404,-0.0355,-0.0112,0.0207,0.0097,169,2019-08-07 16:21:36:516
4.316,-8.6793,2.1146,-0.1667,0.0404,-0.0355,-0.0112,0.0207,0.0097,173,2019-08-07 16:21:36:520
4.316,-8.6889,2.1853,-0.1013,0.0488,-0.0178,-0.008,0.0281,0.0129,180,2019-08-07 16:21:36:527
4.316,-8.6889,2.1853,-0.1013,0.0488,-0.0178,-0.008,0.0281,0.0129,184,2019-08-07 16:21:36:531
4.316,-8.6889,2.1853,-0.1013,0.0488,-0.0178,-0.008,0.0281,0.0129,189,2019-08-07 16:21:36:536
4.2681,-8.6889,2.1429,-0.1013,0.0488,-0.0178,-0.0016,0.0377,0.0161,194,2019-08-07 16:21:36:541
4.2681,-8.6889,2.1429,0.019,-2.0E-4,-0.0386,-0.0016,0.0377,0.0161,199,2019-08-07 16:21:36:546
4.2681,-8.6889,2.1429,0.019,-2.0E-4,-0.0386,-0.0026,0.0548,0.0172,204,2019-08-07 16:21:36:551
4.1389,-8.5313,2.1665,0.019,-2.0E-4,-0.0386,-0.0026,0.0548,0.0172,209,2019-08-07 16:21:36:556
4.1389,-8.5313,2.1665,0.019,-2.0E-4,-0.0386,-0.008,0.0548,0.015,214,2019-08-07 16:21:36:561
4.1102,-8.517,2.1759,0.019,-2.0E-4,-0.0386,-0.008,0.0548,0.015,218,2019-08-07 16:21:36:565
4.1102,-8.517,2.1759,0.0522,-0.1067,-0.0675,-0.0122,0.0441,0.0108,224,2019-08-07 16:21:36:571
4.1102,-8.517,2.1759,0.0522,-0.1067,-0.0675,-0.0122,0.0441,0.0108,229,2019-08-07 16:21:36:576
4.1149,-8.6077,2.1382,0.0522,-0.1067,-0.0675,-0.0229,0.0398,0.0086,234,2019-08-07 16:21:36:581
4.1149,-8.6077,2.1382,0.0522,-0.1067,-0.0675,-0.0229,0.0398,0.0086,239,2019-08-07 16:21:36:586
4.1628,-8.5934,2.1287,0.0103,-0.0273,-0.0061,-0.0325,0.0249,0.0076,244,2019-08-07 16:21:36:591
4.1628,-8.5934,2.1287,0.0103,-0.0273,-0.0061,-0.0325,0.0249,0.0076,250,2019-08-07 16:21:36:597
4.1628,-8.5934,2.1287,0.0103,-0.0273,-0.0061,-0.0314,0.0111,0.014,254,2019-08-07 16:21:36:601
4.1532,-8.6363,2.1476,0.0103,-0.0273,-0.0061,-0.0314,0.0111,0.014,259,2019-08-07 16:21:36:606
4.1532,-8.6363,2.1476,0.0126,0.0229,-0.0151,-0.0239,-0.0081,0.0118,264,2019-08-07 16:21:36:611
4.2345,-8.6936,2.1146,0.0126,0.0229,-0.0151,-0.0239,-0.0081,0.0118,269,2019-08-07 16:21:36:616
4.2345,-8.6936,2.1146,0.0126,0.0229,-0.0151,-0.0239,-0.0081,0.0118,274,2019-08-07 16:21:36:621
4.2345,-8.6936,2.1146,0.0126,0.0229,-0.0151,-0.0176,-0.0155,0.014,279,2019-08-07 16:21:36:626
4.2775,-8.7175,2.0486,-0.1084,0.0927,0.0648,-0.0176,-0.0155,0.014,283,2019-08-07 16:21:36:630
4.2775,-8.7175,2.0486,-0.1084,0.0927,0.0648,-0.0026,-0.0134,0.0086,289,2019-08-07 16:21:36:636
4.2775,-8.7175,2.0486,-0.1084,0.0927,0.0648,-0.0026,-0.0134,0.0086,294,2019-08-07 16:21:36:641
4.2536,-8.6602,1.959,-0.1084,0.0927,0.0648,0.0048,0.0058,0.0086,299,2019-08-07 16:21:36:646
4.2536,-8.6602,1.959,-0.0899,-0.0034,0.0684,0.0048,0.0058,0.0086,304,2019-08-07 16:21:36:651
4.2536,-8.6602,1.959,-0.0899,-0.0034,0.0684,0.0048,0.0058,0.0086,308,2019-08-07 16:21:36:655
4.244,-8.6363,2.0344,-0.0899,-0.0034,0.0684,0.0155,0.0398,0.0129,314,2019-08-07 16:21:36:661
4.244,-8.6363,2.0344,-0.0899,-0.0034,0.0684,0.0155,0.0398,0.0129,319,2019-08-07 16:21:36:666
4.1387,-8.6077,2.1334,0.0257,-0.0181,-0.0145,0.0251,0.0707,0.0129,324,2019-08-07 16:21:36:671
4.1387,-8.6077,2.1334,0.0257,-0.0181,-0.0145,0.0251,0.0707,0.0129,329,2019-08-07 16:21:36:676
4.1387,-8.6077,2.1334,0.0257,-0.0181,-0.0145,0.0165,0.0686,0.014,334,2019-08-07 16:21:36:681
4.0478,-8.5647,2.1853,0.0257,-0.0181,-0.0145,0.0165,0.0686,0.014,338,2019-08-07 16:21:36:685
4.0478,-8.5647,2.1853,0.1348,-0.0234,-0.0338,0.0165,0.0686,0.014,344,2019-08-07 16:21:36:691
4.0382,-8.5934,2.1994,0.1348,-0.0234,-0.0338,6.0E-4,0.0281,0.014,348,2019-08-07 16:21:36:695
4.0382,-8.5934,2.1994,0.1348,-0.0234,-0.0338,6.0E-4,0.0281,0.014,354,2019-08-07 16:21:36:701
4.0622,-8.6172,2.2607,0.1348,-0.0234,-0.0338,-0.0037,-0.0145,0.0193,360,2019-08-07 16:21:36:707
4.0622,-8.6172,2.2607,0.0399,-0.0299,-0.0565,-0.0037,-0.0145,0.0193,365,2019-08-07 16:21:36:712
4.0622,-8.6172,2.2607,0.0399,-0.0299,-0.0565,-0.0037,-0.0145,0.0193,368,2019-08-07 16:21:36:715
4.1961,-8.6315,2.1004,0.0399,-0.0299,-0.0565,-0.009,-0.0422,0.0193,374,2019-08-07 16:21:36:721
4.1961,-8.6315,2.1004,0.0399,-0.0299,-0.0565,-0.009,-0.0422,0.0193,379,2019-08-07 16:21:36:726
4.1961,-8.6315,2.1004,-0.0859,0.0014,0.1123,-0.0144,-0.039,0.0204,384,2019-08-07 16:21:36:731
4.287,-8.5981,1.9637,-0.0859,0.0014,0.1123,-0.0144,-0.039,0.0204,389,2019-08-07 16:21:36:736
4.287,-8.5981,1.9637,-0.0859,0.0014,0.1123,-0.0112,-0.0092,0.0257,394,2019-08-07 16:21:36:741
4.2152,-8.6697,1.9401,-0.0859,0.0014,0.1123,-0.0112,-0.0092,0.0257,399,2019-08-07 16:21:36:746
4.2152,-8.6697,1.9401,-0.0608,0.0466,0.1374,-5.0E-4,0.0377,0.0246,404,2019-08-07 16:21:36:751
4.1147,-8.7127,1.9731,-0.0608,0.0466,0.1374,-5.0E-4,0.0377,0.0246,409,2019-08-07 16:21:36:756
4.1147,-8.7127,1.9731,-0.0608,0.0466,0.1374,0.0059,0.0473,0.0161,413,2019-08-07 16:21:36:760
4.1147,-8.7127,1.9731,-0.0608,0.0466,0.1374,0.0059,0.0473,0.0161,419,2019-08-07 16:21:36:766
4.1147,-8.7127,1.9731,-0.0608,0.0466,0.1374,0.0059,0.0473,0.0161,423,2019-08-07 16:21:36:770
4.0908,-8.684,2.1475,0.0538,0.0499,-0.0239,0.0187,0.0452,0.0054,430,2019-08-07 16:21:36:777
4.0908,-8.684,2.1475,0.0538,0.0499,-0.0239,0.0187,0.0452,0.0054,434,2019-08-07 16:21:36:781
4.0142,-8.6077,2.1334,0.0538,0.0499,-0.0239,0.0336,0.0239,-0.0031,438,2019-08-07 16:21:36:785
4.0142,-8.6077,2.1334,0.0713,-0.054,0.0169,0.0336,0.0239,-0.0031,444,2019-08-07 16:21:36:791
4.0142,-8.6077,2.1334,0.0713,-0.054,0.0169,0.0378,-0.0017,-0.0137,449,2019-08-07 16:21:36:796
4.1338,-8.4835,2.1287,0.0713,-0.054,0.0169,0.0378,-0.0017,-0.0137,454,2019-08-07 16:21:36:801
4.1338,-8.4835,2.1287,0.0713,-0.054,0.0169,0.0368,-0.0187,-0.0223,458,2019-08-07 16:21:36:805
4.1816,-8.4167,2.0768,-0.0349,-0.2131,0.0602,0.0368,-0.0187,-0.0223,463,2019-08-07 16:21:36:810
4.1816,-8.4167,2.0768,-0.0349,-0.2131,0.0602,0.0378,-0.0315,-0.0159,469,2019-08-07 16:21:36:816
4.1816,-8.4167,2.0768,-0.0349,-0.2131,0.0602,0.0378,-0.0315,-0.0159,473,2019-08-07 16:21:36:820
4.3108,-8.3881,2.025,-0.1612,-0.24,0.1138,0.0368,-0.0347,-0.0105,479,2019-08-07 16:21:36:826
4.3108,-8.3881,2.025,-0.1612,-0.24,0.1138,0.0368,-0.0347,-0.0105,484,2019-08-07 16:21:36:831
4.282,-8.4263,2.0014,-0.1612,-0.24,0.1138,0.0325,-0.0262,-0.0116,488,2019-08-07 16:21:36:835
4.282,-8.4263,2.0014,-0.1227,-0.1795,0.0933,0.0325,-0.0262,-0.0116,494,2019-08-07 16:21:36:841
4.282,-8.4263,2.0014,-0.1227,-0.1795,0.0933,0.0314,-0.0123,-0.0116,498,2019-08-07 16:21:36:845
4.2629,-8.4215,2.0061,-0.1227,-0.1795,0.0933,0.0314,-0.0123,-0.0116,504,2019-08-07 16:21:36:851
4.2629,-8.4215,2.0061,-0.1227,-0.1795,0.0933,0.0325,0.0079,-0.0159,509,2019-08-07 16:21:36:856
4.1576,-8.4883,2.0391,5.0E-4,-0.1336,0.1076,0.0325,0.0079,-0.0159,514,2019-08-07 16:21:36:861
4.1576,-8.4883,2.0391,5.0E-4,-0.1336,0.1076,0.0219,0.0207,-0.0201,519,2019-08-07 16:21:36:866
4.1576,-8.4883,2.0391,5.0E-4,-0.1336,0.1076,0.0219,0.0207,-0.0201,523,2019-08-07 16:21:36:870
4.1002,-8.5217,2.1664,0.0593,-0.0988,-0.0168,0.0219,0.0207,-0.0201,528,2019-08-07 16:21:36:875
4.1002,-8.5217,2.1664,0.0593,-0.0988,-0.0168,0.0187,0.0175,-0.0255,534,2019-08-07 16:21:36:881
4.1002,-8.5217,2.1664,0.0593,-0.0988,-0.0168,0.0187,0.0175,-0.0255,539,2019-08-07 16:21:36:886
4.1193,-8.5504,2.2088,0.0593,-0.0988,-0.0168,0.0165,0.0217,-0.0297,544,2019-08-07 16:21:36:891
4.1193,-8.5504,2.2088,0.0728,-0.086,-0.0915,0.0165,0.0217,-0.0297,549,2019-08-07 16:21:36:896
4.1193,-8.5504,2.2088,0.0728,-0.086,-0.0915,0.0027,-0.0017,-0.0382,553,2019-08-07 16:21:36:900
4.1528,-8.4549,2.1805,0.0728,-0.086,-0.0915,0.0027,-0.0017,-0.0382,559,2019-08-07 16:21:36:906
4.1528,-8.4549,2.1805,-0.0637,-0.1589,-0.0295,-0.008,-0.0187,-0.0414,564,2019-08-07 16:21:36:911
4.2245,-8.4215,2.2088,-0.0637,-0.1589,-0.0295,-0.008,-0.0187,-0.0414,569,2019-08-07 16:21:36:916
4.2245,-8.4215,2.2088,-0.0637,-0.1589,-0.0295,-0.008,-0.0187,-0.0414,574,2019-08-07 16:21:36:921
4.2245,-8.4215,2.2088,-0.0975,-0.1763,-0.0082,-0.0144,-0.0315,-0.0382,579,2019-08-07 16:21:36:926
4.3393,-8.3785,2.0815,-0.0975,-0.1763,-0.0082,-0.0144,-0.0315,-0.0382,584,2019-08-07 16:21:36:931
4.3393,-8.3785,2.0815,-0.0975,-0.1763,-0.0082,-0.0133,-0.0294,-0.034,589,2019-08-07 16:21:36:936
4.3441,-8.4358,2.0862,-0.0975,-0.1763,-0.0082,-0.0133,-0.0294,-0.034,594,2019-08-07 16:21:36:941
4.3441,-8.4358,2.0862,-0.1219,-0.2257,0.0668,-0.0037,-0.0166,-0.0265,598,2019-08-07 16:21:36:945
4.3441,-8.4358,2.0862,-0.1219,-0.2257,0.0668,-0.0037,-0.0166,-0.0265,604,2019-08-07 16:21:36:951
4.3345,-8.3499,2.0532,-0.1219,-0.2257,0.0668,-0.0037,-0.0166,-0.0265,608,2019-08-07 16:21:36:955
4.3345,-8.3499,2.0532,-0.1219,-0.2257,0.0668,0.0038,-6.0E-4,-0.0201,614,2019-08-07 16:21:36:961
4.2819,-8.3928,2.0061,-0.1205,-0.2134,0.1039,0.0038,-6.0E-4,-0.0201,618,2019-08-07 16:21:36:965
4.2819,-8.3928,2.0061,-0.1205,-0.2134,0.1039,0.0155,0.0228,-0.0244,624,2019-08-07 16:21:36:971
4.2819,-8.3928,2.0061,-0.1205,-0.2134,0.1039,0.0155,0.0228,-0.0244,629,2019-08-07 16:21:36:976
4.1766,-8.3308,2.0674,-0.1205,-0.2134,0.1039,0.0176,0.0303,-0.0286,633,2019-08-07 16:21:36:980
4.1766,-8.3308,2.0674,0.0469,-0.2243,0.0705,0.0176,0.0303,-0.0286,639,2019-08-07 16:21:36:986
4.1383,-8.3355,2.1758,0.0469,-0.2243,0.0705,0.0197,0.0271,-0.0308,645,2019-08-07 16:21:36:992
4.1383,-8.3355,2.1758,0.1304,-0.2369,0.0452,0.0197,0.0271,-0.0308,649,2019-08-07 16:21:36:996
4.1383,-8.3355,2.1758,0.1304,-0.2369,0.0452,0.0112,0.0143,-0.0393,653,2019-08-07 16:21:37:000
4.033,-8.2926,2.1192,0.1304,-0.2369,0.0452,0.0112,0.0143,-0.0393,660,2019-08-07 16:21:37:007
4.033,-8.2926,2.1192,0.1304,-0.2369,0.0452,6.0E-4,-0.0092,-0.0468,664,2019-08-07 16:21:37:011
4.033,-8.2926,2.1192,0.1703,-0.2855,0.0622,6.0E-4,-0.0092,-0.0468,668,2019-08-07 16:21:37:015
4.1,-8.326,2.0626,0.1703,-0.2855,0.0622,6.0E-4,-0.0092,-0.0468,674,2019-08-07 16:21:37:021
4.1,-8.326,2.0626,0.1703,-0.2855,0.0622,-0.0069,-0.0326,-0.0585,679,2019-08-07 16:21:37:026
4.1048,-8.2544,2.1003,0.1703,-0.2855,0.0622,-0.0069,-0.0326,-0.0585,684,2019-08-07 16:21:37:031
4.1048,-8.2544,2.1003,0.0341,-0.357,0.0723,-0.0122,-0.0635,-0.0659,690,2019-08-07 16:21:37:037
4.1048,-8.2544,2.1003,0.0341,-0.357,0.0723,-0.0122,-0.0635,-0.0659,694,2019-08-07 16:21:37:041
4.2435,-8.283,2.072,0.0341,-0.357,0.0723,-0.0197,-0.0795,-0.0595,699,2019-08-07 16:21:37:046
4.2435,-8.283,2.072,0.0341,-0.357,0.0723,-0.0197,-0.0795,-0.0595,704,2019-08-07 16:21:37:051
4.2435,-8.283,2.072,0.0341,-0.357,0.0723,-0.0197,-0.0795,-0.0595,708,2019-08-07 16:21:37:055
4.3392,-8.2162,2.0626,-0.108,-0.3709,0.0811,-0.0186,-0.0965,-0.0595,714,2019-08-07 16:21:37:061
4.3392,-8.2162,2.0626,-0.108,-0.3709,0.0811,-0.0186,-0.0965,-0.0595,719,2019-08-07 16:21:37:066
4.4492,-8.178,2.0155,-0.108,-0.3709,0.0811,-0.0186,-0.1008,-0.0478,724,2019-08-07 16:21:37:071
4.4492,-8.178,2.0155,-0.2973,-0.4232,0.1443,-0.0186,-0.1008,-0.0478,729,2019-08-07 16:21:37:076
4.5401,-8.1159,1.973,-0.2973,-0.4232,0.1443,-0.0271,-0.0582,-0.0382,734,2019-08-07 16:21:37:081
4.5401,-8.1159,1.973,-0.2973,-0.4232,0.1443,-0.0271,-0.0582,-0.0382,739,2019-08-07 16:21:37:086
4.5401,-8.1159,1.973,-0.2973,-0.4232,0.1443,-0.0271,-0.0582,-0.0382,744,2019-08-07 16:21:37:091
4.5209,-8.0539,1.9448,-0.2613,-0.5248,0.1763,-0.0442,-0.007,-0.0276,749,2019-08-07 16:21:37:096
4.5209,-8.0539,1.9448,-0.2613,-0.5248,0.1763,-0.0442,-0.007,-0.0276,753,2019-08-07 16:21:37:100
4.5209,-8.0539,1.9448,-0.2613,-0.5248,0.1763,-0.0442,-0.007,-0.0276,759,2019-08-07 16:21:37:106
4.5018,-8.1159,1.9589,-0.2395,-0.4624,0.1581,-0.0687,0.0686,-0.0095,763,2019-08-07 16:21:37:110
4.5018,-8.1159,1.9589,-0.2395,-0.4624,0.1581,-0.0687,0.0686,-0.0095,769,2019-08-07 16:21:37:116
4.5018,-8.1159,1.9589,-0.2395,-0.4624,0.1581,-0.0974,0.1272,-0.0041,774,2019-08-07 16:21:37:121
4.229,-8.2448,1.9353,0.1222,-0.2598,0.1745,-0.0974,0.1272,-0.0041,779,2019-08-07 16:21:37:126
4.229,-8.2448,1.9353,0.1222,-0.2598,0.1745,-0.1283,0.1283,-0.0095,784,2019-08-07 16:21:37:131
3.9994,-8.4549,1.9919,0.1222,-0.2598,0.1745,-0.1283,0.1283,-0.0095,788,2019-08-07 16:21:37:135
3.9994,-8.4549,1.9919,0.1222,-0.2598,0.1745,-0.1464,0.0942,-0.0191,794,2019-08-07 16:21:37:141
3.9994,-8.4549,1.9919,0.2484,0.026,0.0739,-0.1464,0.0942,-0.0191,799,2019-08-07 16:21:37:146
4.0424,-8.6888,1.8976,0.2484,0.026,0.0739,-0.1635,0.0388,-0.0318,803,2019-08-07 16:21:37:150
4.0424,-8.6888,1.8976,0.2484,0.026,0.0739,-0.1635,0.0388,-0.0318,809,2019-08-07 16:21:37:156
4.1142,-8.8224,1.8505,0.2484,0.026,0.0739,-0.1656,0.0111,-0.0489,814,2019-08-07 16:21:37:161
4.1142,-8.8224,1.8505,0.1234,0.2171,0.1501,-0.1656,0.0111,-0.0489,819,2019-08-07 16:21:37:166
4.1142,-8.8224,1.8505,0.1234,0.2171,0.1501,-0.1656,0.0111,-0.0489,824,2019-08-07 16:21:37:171
4.2098,-8.8081,1.9825,0.046,0.1775,0.1879,-0.1539,0.0058,-0.051,830,2019-08-07 16:21:37:177
4.2098,-8.8081,1.9825,0.046,0.1775,0.1879,-0.1539,0.0058,-0.051,834,2019-08-07 16:21:37:181
4.3773,-8.7413,1.7845,0.046,0.1775,0.1879,-0.1433,0.0154,-0.0436,839,2019-08-07 16:21:37:186
4.3773,-8.7413,1.7845,0.046,0.1775,0.1879,-0.1433,0.0154,-0.0436,844,2019-08-07 16:21:37:191
4.4394,-8.7222,1.7138,-0.1673,0.127,0.3131,-0.1496,0.0516,-0.0393,849,2019-08-07 16:21:37:196
4.4394,-8.7222,1.7138,-0.1673,0.127,0.3131,-0.1496,0.0516,-0.0393,854,2019-08-07 16:21:37:201
4.4394,-8.7222,1.7138,-0.1673,0.127,0.3131,-0.1496,0.0516,-0.0393,858,2019-08-07 16:21:37:205
4.272,-8.8081,1.8269,-0.1673,0.127,0.3131,-0.1528,0.0835,-0.035,864,2019-08-07 16:21:37:211
4.272,-8.8081,1.8269,0.0789,0.2615,0.1974,-0.1528,0.0835,-0.035,869,2019-08-07 16:21:37:216
4.272,-8.8081,1.8269,0.0789,0.2615,0.1974,-0.1496,0.0878,-0.0137,874,2019-08-07 16:21:37:221
4.2193,-8.9275,1.9589,0.0789,0.2615,0.1974,-0.1496,0.0878,-0.0137,879,2019-08-07 16:21:37:226
4.2193,-8.9275,1.9589,0.0789,0.2615,0.1974,-0.1411,0.0665,0.0044,884,2019-08-07 16:21:37:231
4.2193,-8.9275,1.9589,0.0789,0.2615,0.1974,-0.1411,0.0665,0.0044,889,2019-08-07 16:21:37:236
4.1571,-9.0898,1.8174,0.1131,0.484,0.168,-0.1347,0.0345,0.0076,894,2019-08-07 16:21:37:241
4.1571,-9.0898,1.8174,0.1131,0.484,0.168,-0.1347,0.0345,0.0076,900,2019-08-07 16:21:37:247
4.2671,-9.0754,1.8552,0.1131,0.484,0.168,-0.1198,-0.0187,0.0172,904,2019-08-07 16:21:37:251
4.2671,-9.0754,1.8552,0.1131,0.484,0.168,-0.1198,-0.0187,0.0172,908,2019-08-07 16:21:37:255
4.2671,-9.0754,1.8552,0.0087,0.3956,0.0839,-0.0911,-0.0294,0.0214,914,2019-08-07 16:21:37:261
4.3341,-8.9561,1.8646,0.0087,0.3956,0.0839,-0.0911,-0.0294,0.0214,918,2019-08-07 16:21:37:265
4.3341,-8.9561,1.8646,0.0087,0.3956,0.0839,-0.0697,-0.0113,0.0299,924,2019-08-07 16:21:37:271
4.3341,-8.9561,1.8646,0.0087,0.3956,0.0839,-0.0697,-0.0113,0.0299,929,2019-08-07 16:21:37:276
4.3245,-8.7795,1.8646,-0.0628,0.1606,0.0818,-0.057,0.0175,0.0385,934,2019-08-07 16:21:37:281
4.3245,-8.7795,1.8646,-0.0628,0.1606,0.0818,-0.057,0.0175,0.0385,939,2019-08-07 16:21:37:286
4.3341,-8.684,1.94,-0.0759,0.0624,0.0021,-0.0506,0.0441,0.0374,944,2019-08-07 16:21:37:291
4.3341,-8.684,1.94,-0.0759,0.0624,0.0021,-0.0506,0.0441,0.0374,949,2019-08-07 16:21:37:296
4.3341,-8.684,1.94,-0.0759,0.0624,0.0021,-0.0452,0.0644,0.0491,953,2019-08-07 16:21:37:300
4.2766,-8.579,1.9918,-0.0759,0.0624,0.0021,-0.0452,0.0644,0.0491,959,2019-08-07 16:21:37:306
4.2766,-8.579,1.9918,3.0E-4,-0.1388,-0.1181,-0.0325,0.0761,0.0555,963,2019-08-07 16:21:37:310
4.2001,-8.5073,2.0531,3.0E-4,-0.1388,-0.1181,-0.0325,0.0761,0.0555,969,2019-08-07 16:21:37:316
4.2001,-8.5073,2.0531,3.0E-4,-0.1388,-0.1181,-0.0325,0.0761,0.0555,974,2019-08-07 16:21:37:321
4.2001,-8.5073,2.0531,3.0E-4,-0.1388,-0.1181,-0.0271,0.0718,0.0619,979,2019-08-07 16:21:37:326
4.1809,-8.4644,2.006,0.054,-0.1687,-0.0638,-0.0271,0.0718,0.0619,984,2019-08-07 16:21:37:331
4.1809,-8.4644,2.006,0.054,-0.1687,-0.0638,-0.0239,0.0612,0.0683,989,2019-08-07 16:21:37:336
4.2192,-8.5837,2.0248,0.0084,-0.0527,-0.0814,-0.0239,0.0612,0.0683,994,2019-08-07 16:21:37:341
4.2192,-8.5837,2.0248,0.0084,-0.0527,-0.0814,-0.0229,0.0622,0.0694,999,2019-08-07 16:21:37:346
4.2192,-8.5837,2.0248,0.0084,-0.0527,-0.0814,-0.0229,0.0622,0.0694,1004,2019-08-07 16:21:37:351
4.2192,-8.5837,2.0248,0.0084,-0.0527,-0.0814,-0.0229,0.0622,0.0694,1008,2019-08-07 16:21:37:355
4.2048,-8.684,1.8976,0.0275,0.0171,-0.004,-0.0197,0.0793,0.064,1014,2019-08-07 16:21:37:361
4.2048,-8.684,1.8976,0.0275,0.0171,-0.004,-0.0197,0.0793,0.064,1018,2019-08-07 16:21:37:365
4.1522,-8.7317,1.94,0.0275,0.0171,-0.004,-0.0112,0.1208,0.063,1026,2019-08-07 16:21:37:373
4.1522,-8.7317,1.94,0.0275,0.0171,-0.004,-0.0112,0.1208,0.063,1028,2019-08-07 16:21:37:375
4.1139,-8.8176,1.8975,0.1165,0.1492,0.0736,-0.0186,0.14,0.0576,1034,2019-08-07 16:21:37:381
4.1139,-8.8176,1.8975,0.1165,0.1492,0.0736,-0.0186,0.14,0.0576,1038,2019-08-07 16:21:37:385
4.1139,-8.8176,1.8975,0.1165,0.1492,0.0736,-0.0389,0.1581,0.0502,1044,2019-08-07 16:21:37:391
4.0612,-8.851,1.9447,0.1165,0.1492,0.0736,-0.0389,0.1581,0.0502,1049,2019-08-07 16:21:37:396
4.0612,-8.851,1.9447,0.167,0.2286,0.0375,-0.0559,0.1645,0.0417,1054,2019-08-07 16:21:37:401
4.0612,-8.851,1.9447,0.167,0.2286,0.0375,-0.0559,0.1645,0.0417,1058,2019-08-07 16:21:37:405
3.9225,-8.9417,1.8504,0.167,0.2286,0.0375,-0.0729,0.1592,0.0321,1064,2019-08-07 16:21:37:411
3.9225,-8.9417,1.8504,0.167,0.2286,0.0375,-0.0729,0.1592,0.0321,1068,2019-08-07 16:21:37:415
3.8124,-9.252,1.8692,0.3528,0.5889,0.0895,-0.0729,0.1592,0.0321,1074,2019-08-07 16:21:37:421
3.8124,-9.252,1.8692,0.3528,0.5889,0.0895,-0.09,0.1208,0.0278,1079,2019-08-07 16:21:37:426
3.8028,-9.4382,1.8928,0.3557,0.7709,0.0618,-0.09,0.1208,0.0278,1084,2019-08-07 16:21:37:431
3.8028,-9.4382,1.8928,0.3557,0.7709,0.0618,-0.09,0.1208,0.0278,1090,2019-08-07 16:21:37:437
3.8028,-9.4382,1.8928,0.3557,0.7709,0.0618,-0.0953,0.0217,0.0299,1094,2019-08-07 16:21:37:441
3.6832,-9.7915,1.775,0.3557,0.7709,0.0618,-0.0953,0.0217,0.0299,1099,2019-08-07 16:21:37:446
3.6832,-9.7915,1.775,0.4012,1.3149,0.1852,-0.0953,0.0217,0.0299,1103,2019-08-07 16:21:37:450
3.6832,-9.7915,1.775,0.4012,1.3149,0.1852,-0.0932,-0.056,0.0544,1109,2019-08-07 16:21:37:456
3.7071,-10.3166,1.709,0.4012,1.3149,0.1852,-0.0932,-0.056,0.0544,1114,2019-08-07 16:21:37:461
3.7071,-10.3166,1.709,0.4012,1.3149,0.1852,-0.0836,-0.0944,0.1034,1118,2019-08-07 16:21:37:465
3.7071,-10.3166,1.709,0.4012,1.3149,0.1852,-0.0836,-0.0944,0.1034,1124,2019-08-07 16:21:37:471
3.7071,-10.3166,1.709,0.4012,1.3149,0.1852,-0.0836,-0.0944,0.1034,1129,2019-08-07 16:21:37:476
3.6784,-10.856,1.5958,0.4504,2.1648,0.3151,-0.0793,-0.0869,0.1247,1134,2019-08-07 16:21:37:481
3.6784,-10.856,1.5958,0.4504,2.1648,0.3151,-0.0793,-0.0869,0.1247,1138,2019-08-07 16:21:37:485
3.2573,-12.0447,1.7184,0.9645,3.4779,0.1117,-0.0325,-0.0049,0.2462,1144,2019-08-07 16:21:37:491
3.2573,-12.0447,1.7184,0.9645,3.4779,0.1117,-0.0325,-0.0049,0.2462,1148,2019-08-07 16:21:37:495
3.2573,-12.0447,1.7184,0.9645,3.4779,0.1117,0.0474,0.0867,0.3495,1154,2019-08-07 16:21:37:501
2.5971,-13.2573,1.9541,0.9645,3.4779,0.1117,0.0474,0.0867,0.3495,1159,2019-08-07 16:21:37:506
2.5971,-13.2573,1.9541,1.809,5.0618,-0.1609,0.1348,0.1506,0.4401,1164,2019-08-07 16:21:37:511
1.9034,-14.2645,2.2605,1.809,5.0618,-0.1609,0.1348,0.1506,0.4401,1169,2019-08-07 16:21:37:516
1.9034,-14.2645,2.2605,1.809,5.0618,-0.1609,0.1348,0.1506,0.4401,1174,2019-08-07 16:21:37:521
1.9034,-14.2645,2.2605,1.809,5.0618,-0.1609,0.2339,0.1421,0.5583,1179,2019-08-07 16:21:37:526
1.9034,-14.2645,2.2605,2.6563,6.8499,-0.6591,0.2339,0.1421,0.5583,1184,2019-08-07 16:21:37:531
1.2288,-15.6442,2.6093,2.6563,6.8499,-0.6591,0.3606,0.0899,0.7181,1189,2019-08-07 16:21:37:536
1.2288,-15.6442,2.6093,2.6563,6.8499,-0.6591,0.3606,0.0899,0.7181,1193,2019-08-07 16:21:37:540
0.5303,-17.1336,3.1419,2.6563,6.8499,-0.6591,0.4352,-0.0049,0.8896,1199,2019-08-07 16:21:37:546
0.5303,-17.1336,3.1419,3.6393,9.4409,-1.7346,0.4352,-0.0049,0.8896,1204,2019-08-07 16:21:37:551
0.5303,-17.1336,3.1419,3.6393,9.4409,-1.7346,0.5066,-0.0997,1.1165,1209,2019-08-07 16:21:37:556
-0.173,-19.2532,4.344,3.6393,9.4409,-1.7346,0.5066,-0.0997,1.1165,1214,2019-08-07 16:21:37:561
-0.173,-19.2532,4.344,3.8396,11.6091,-2.9445,0.6333,-0.1242,1.517,1219,2019-08-07 16:21:37:566
-0.173,-19.2532,4.344,3.8396,11.6091,-2.9445,0.6333,-0.1242,1.517,1224,2019-08-07 16:21:37:571
-0.6228,-23.7119,5.4847,3.8396,11.6091,-2.9445,0.6333,-0.1242,1.517,1229,2019-08-07 16:21:37:576
-0.6228,-23.7119,5.4847,3.4053,19.6924,-2.4783,0.7473,0.1283,1.9783,1234,2019-08-07 16:21:37:581
-0.6228,-23.7119,5.4847,3.4053,19.6924,-2.4783,0.7473,0.1283,1.9783,1239,2019-08-07 16:21:37:586
0.2623,-31.5362,3.3776,3.4053,19.6924,-2.4783,0.775,0.7802,2.5408,1244,2019-08-07 16:21:37:591
0.2623,-31.5362,3.3776,3.4053,19.6924,-2.4783,0.775,0.7802,2.5408,1248,2019-08-07 16:21:37:595
0.2623,-31.5362,3.3776,1.6942,27.0262,4.1128,0.7793,3.1632,3.4111,1254,2019-08-07 16:21:37:601
0.9177,-36.3721,-2.6325,1.6942,27.0262,4.1128,0.7793,3.1632,3.4111,1259,2019-08-07 16:21:37:606
0.9177,-36.3721,-2.6325,1.6942,27.0262,4.1128,0.7793,3.1632,3.4111,1263,2019-08-07 16:21:37:610
0.9177,-36.3721,-2.6325,1.6942,27.0262,4.1128,0.8027,5.4855,3.9395,1269,2019-08-07 16:21:37:616
-3.2207,-36.5153,-8.4116,1.6942,27.0262,4.1128,0.8027,5.4855,3.9395,1274,2019-08-07 16:21:37:621
-3.2207,-36.5153,-8.4116,7.7018,27.2403,12.7372,0.7399,7.6789,4.3592,1279,2019-08-07 16:21:37:626
-10.4306,-36.5201,-8.8264,7.7018,27.2403,12.7372,0.7399,7.6789,4.3592,1283,2019-08-07 16:21:37:630
-10.4306,-36.5201,-8.8264,7.7018,27.2403,12.7372,0.5694,12.0241,5.0686,1289,2019-08-07 16:21:37:636
-10.4306,-36.5201,-8.8264,7.7018,27.2403,12.7372,0.5694,12.0241,5.0686,1294,2019-08-07 16:21:37:641
-15.3392,-37.007,-1.2844,15.3924,27.6688,4.2894,0.7313,13.3343,5.0825,1299,2019-08-07 16:21:37:646
-15.3392,-37.007,-1.2844,15.3924,27.6688,4.2894,0.7313,13.3343,5.0825,1305,2019-08-07 16:21:37:652
-15.3392,-37.007,-1.2844,15.3924,27.6688,4.2894,1.7369,13.7509,3.7296,1308,2019-08-07 16:21:37:655
-11.8659,-36.8351,3.8443,15.3924,27.6688,4.2894,1.7369,13.7509,3.7296,1314,2019-08-07 16:21:37:661
-11.8659,-36.8351,3.8443,8.5351,27.0922,-1.0521,1.7369,13.7509,3.7296,1319,2019-08-07 16:21:37:666
-11.8659,-36.8351,3.8443,8.5351,27.0922,-1.0521,2.6637,12.4246,1.5128,1325,2019-08-07 16:21:37:672
-7.9906,-34.3098,4.8672,8.5351,27.0922,-1.0521,3.3604,9.5633,-0.8127,1330,2019-08-07 16:21:37:677
-7.9906,-34.3098,4.8672,8.5351,27.0922,-1.0521,3.3604,9.5633,-0.8127,1334,2019-08-07 16:21:37:681
-7.9906,-34.3098,4.8672,4.421,19.3066,-1.5192,3.3604,9.5633,-0.8127,1339,2019-08-07 16:21:37:686
-5.3546,-26.1036,6.6914,4.421,19.3066,-1.5192,3.7386,5.6282,-2.7611,1344,2019-08-07 16:21:37:691
-5.3546,-26.1036,6.6914,4.421,19.3066,-1.5192,3.7386,5.6282,-2.7611,1349,2019-08-07 16:21:37:696
-5.3546,-26.1036,6.6914,4.421,19.3066,-1.5192,4.9285,7.991,-3.8135,1354,2019-08-07 16:21:37:701
-5.3546,-26.1036,6.6914,4.421,19.3066,-1.5192,4.9285,7.991,-3.8135,1358,2019-08-07 16:21:37:705
-0.2259,-19.7831,-3.4339,-1.9163,10.9138,7.0372,5.5122,9.5697,-4.7584,1364,2019-08-07 16:21:37:711
-0.2259,-19.7831,-3.4339,-1.9163,10.9138,7.0372,5.5122,9.5697,-4.7584,1369,2019-08-07 16:21:37:716
-0.2259,-19.7831,-3.4339,-1.9163,10.9138,7.0372,5.5122,9.5697,-4.7584,1374,2019-08-07 16:21:37:721
-4.5652,1.5321,6.5311,6.8694,-26.6582,-13.2197,7.5448,8.7175,-5.3741,1379,2019-08-07 16:21:37:726
-4.5652,1.5321,6.5311,6.8694,-26.6582,-13.2197,7.5448,8.7175,-5.3741,1384,2019-08-07 16:21:37:731
-4.5652,1.5321,6.5311,6.8694,-26.6582,-13.2197,-0.0357,-0.1146,-0.6295,1389,2019-08-07 16:21:37:736
-12.8276,82.6488,23.614,6.8694,-26.6582,-13.2197,-0.0357,-0.1146,-0.6295,1394,2019-08-07 16:21:37:741
-12.8276,82.6488,23.614,-0.7386,-104.4907,-50.7488,7.9038,0.5427,1.2028,1399,2019-08-07 16:21:37:746
13.0503,63.1621,-8.6615,-0.7386,-104.4907,-50.7488,7.9038,0.5427,1.2028,1404,2019-08-07 16:21:37:751
13.0503,63.1621,-8.6615,-0.7386,-104.4907,-50.7488,7.1059,-3.0707,-1.3219,1409,2019-08-07 16:21:37:756
13.0503,63.1621,-8.6615,-0.7386,-104.4907,-50.7488,7.1059,-3.0707,-1.3219,1414,2019-08-07 16:21:37:761
16.0835,57.2569,7.9405,-17.5733,-64.6767,-1.6985,5.4675,-6.8961,-1.4369,1419,2019-08-07 16:21:37:766
16.0835,57.2569,7.9405,-17.5733,-64.6767,-1.6985,5.4675,-6.8961,-1.4369,1424,2019-08-07 16:21:37:771
16.0835,57.2569,7.9405,-17.5733,-64.6767,-1.6985,5.4675,-6.8961,-1.4369,1429,2019-08-07 16:21:37:776
24.9439,49.1223,-17.4622,-17.5733,-64.6767,-1.6985,4.4608,-0.4289,1.5948,1434,2019-08-07 16:21:37:781
24.9439,49.1223,-17.4622,-22.6883,-49.1599,45.336,4.4608,-0.4289,1.5948,1439,2019-08-07 16:21:37:786
15.275,39.9327,-44.0056,-22.6883,-49.1599,45.336,0.8496,2.719,1.582,1444,2019-08-07 16:21:37:791
15.275,39.9327,-44.0056,-22.6883,-49.1599,45.336,0.8496,2.719,1.582,1449,2019-08-07 16:21:37:796
15.275,39.9327,-44.0056,-22.6883,-49.1599,45.336,-3.2528,8.1849,0.3698,1454,2019-08-07 16:21:37:801
-9.871,30.0222,-34.578,7.823,-36.9257,41.2401,-3.2528,8.1849,0.3698,1458,2019-08-07 16:21:37:805
-9.871,30.0222,-34.578,7.823,-36.9257,41.2401,-5.2246,11.2283,-0.0883,1464,2019-08-07 16:21:37:811
-11.1724,29.2536,28.0826,7.823,-36.9257,41.2401,-5.2246,11.2283,-0.0883,1470,2019-08-07 16:21:37:817
-11.1724,29.2536,28.0826,7.823,-36.9257,41.2401,-5.2246,11.2283,-0.0883,1474,2019-08-07 16:21:37:821
-11.1724,29.2536,28.0826,8.1548,-26.8754,-2.8581,-6.2525,3.2676,0.2291,1479,2019-08-07 16:21:37:826
-11.6795,16.6985,3.5331,8.1548,-26.8754,-2.8581,-6.2525,3.2676,0.2291,1484,2019-08-07 16:21:37:831
-11.6795,16.6985,3.5331,8.1548,-26.8754,-2.8581,-5.5143,-3.0856,0.6702,1489,2019-08-07 16:21:37:836
-11.6795,16.6985,3.5331,8.1548,-26.8754,-2.8581,-5.5143,-3.0856,0.6702,1494,2019-08-07 16:21:37:841
-3.2258,13.1515,17.0712,-0.3824,-20.5728,-11.2806,-2.995,-6.8769,0.472,1499,2019-08-07 16:21:37:846
-3.2258,13.1515,17.0712,-0.3824,-20.5728,-11.2806,-2.995,-6.8769,0.472,1504,2019-08-07 16:21:37:851
-3.9482,11.9485,1.4355,-0.3824,-20.5728,-11.2806,-2.995,-6.8769,0.472,1509,2019-08-07 16:21:37:856
-3.9482,11.9485,1.4355,-0.3824,-20.5728,-11.2806,-2.1555,-6.8343,0.7181,1514,2019-08-07 16:21:37:861
-3.9482,11.9485,1.4355,-2.7286,-15.2019,13.679,-2.1555,-6.8343,0.7181,1519,2019-08-07 16:21:37:866
2.3,5.0504,-8.8784,-2.7286,-15.2019,13.679,-3.012,-6.1674,1.2901,1524,2019-08-07 16:21:37:871
2.3,5.0504,-8.8784,-2.7286,-15.2019,13.679,-3.012,-6.1674,1.2901,1529,2019-08-07 16:21:37:876
11.2513,-5.6477,0.2759,-2.7286,-15.2019,13.679,-3.9292,-6.8183,1.288,1534,2019-08-07 16:21:37:881
11.2513,-5.6477,0.2759,-2.7286,-15.2019,13.679,-3.9292,-6.8183,1.288,1539,2019-08-07 16:21:37:886
11.2513,-5.6477,0.2759,-14.4915,-0.0757,-8.1408,-4.1678,-7.8729,0.6819,1544,2019-08-07 16:21:37:891
8.2755,-12.1736,8.8738,-14.4915,-0.0757,-8.1408,-4.1678,-7.8729,0.6819,1549,2019-08-07 16:21:37:896
8.2755,-12.1736,8.8738,-14.4915,-0.0757,-8.1408,-1.787,-4.7858,-0.4942,1554,2019-08-07 16:21:37:901
8.2755,-12.1736,8.8738,-14.4915,-0.0757,-8.1408,-1.787,-4.7858,-0.4942,1558,2019-08-07 16:21:37:905
4.4768,-36.1238,1.0348,-5.6791,27.3904,3.2685,-1.4663,-1.6731,-0.4143,1564,2019-08-07 16:21:37:911
4.4768,-36.1238,1.0348,-5.6791,27.3904,3.2685,-1.4663,-1.6731,-0.4143,1569,2019-08-07 16:21:37:916
4.4768,-36.1238,1.0348,-5.6791,27.3904,3.2685,-1.4663,-1.6731,-0.4143,1574,2019-08-07 16:21:37:921
-2.5322,-52.4789,10.3351,11.9319,22.508,-6.6134,-2.2237,-1.1969,-0.4484,1579,2019-08-07 16:21:37:926
-2.5322,-52.4789,10.3351,11.9319,22.508,-6.6134,-2.2237,-1.1969,-0.4484,1584,2019-08-07 16:21:37:931
-2.5322,-52.4789,10.3351,11.9319,22.508,-6.6134,-0.7046,-1.5634,0.5232,1589,2019-08-07 16:21:37:936
-8.9909,-25.5068,18.2449,7.9966,16.5689,-14.3255,-0.7046,-1.5634,0.5232,1594,2019-08-07 16:21:37:941
-8.9909,-25.5068,18.2449,7.9966,16.5689,-14.3255,1.5814,-3.4318,-0.0468,1598,2019-08-07 16:21:37:945
-8.9909,-25.5068,18.2449,7.9966,16.5689,-14.3255,1.5814,-3.4318,-0.0468,1604,2019-08-07 16:21:37:951
-10.2444,-33.8515,6.0785,11.7798,24.0374,4.598,2.0885,-8.5803,-2.1368,1609,2019-08-07 16:21:37:956
-10.2444,-33.8515,6.0785,11.7798,24.0374,4.598,2.0885,-8.5803,-2.1368,1615,2019-08-07 16:21:37:962
-10.2444,-33.8515,6.0785,11.7798,24.0374,4.598,2.0885,-8.5803,-2.1368,1619,2019-08-07 16:21:37:966
-10.2444,-33.8515,6.0785,11.7798,24.0374,4.598,-1.1329,-9.229,-2.1624,1624,2019-08-07 16:21:37:971
-10.8425,-19.7639,-5.3619,11.7798,24.0374,4.598,-1.1329,-9.229,-2.1624,1629,2019-08-07 16:21:37:976
-10.8425,-19.7639,-5.3619,1.2318,12.9094,-3.4018,-2.8448,-10.3486,-1.3432,1633,2019-08-07 16:21:37:980
3.1514,-26.3709,3.2361,1.2318,12.9094,-3.4018,-2.8448,-10.3486,-1.3432,1639,2019-08-07 16:21:37:986
3.1514,-26.3709,3.2361,1.2318,12.9094,-3.4018,-2.032,-9.4218,-1.5637,1644,2019-08-07 16:21:37:991
3.1514,-26.3709,3.2361,1.2318,12.9094,-3.4018,-2.032,-9.4218,-1.5637,1649,2019-08-07 16:21:37:996
5.6823,-25.8505,0.6482,-3.9455,16.8485,2.8423,-0.4713,-5.5965,-1.9717,1654,2019-08-07 16:21:38:001
5.6823,-25.8505,0.6482,-3.9455,16.8485,2.8423,-0.4713,-5.5965,-1.9717,1659,2019-08-07 16:21:38:006
-2.25,-18.6612,5.8711,-3.9455,16.8485,2.8423,1.3875,-2.521,-1.4668,1664,2019-08-07 16:21:38:011
-2.25,-18.6612,5.8711,-3.9455,16.8485,2.8423,1.3875,-2.521,-1.4668,1668,2019-08-07 16:21:38:015
-2.25,-18.6612,5.8711,6.8008,12.4242,-6.0657,1.3875,-2.521,-1.4668,1674,2019-08-07 16:21:38:021
-5.1254,-20.838,1.2893,6.8008,12.4242,-6.0657,2.1822,-1.8457,-0.4963,1680,2019-08-07 16:21:38:027
-5.1254,-20.838,1.2893,6.8008,12.4242,-6.0657,2.1822,-1.8457,-0.4963,1684,2019-08-07 16:21:38:031
-8.7136,-19.5204,3.5943,6.8008,12.4242,-6.0657,0.0464,-2.178,0.0321,1689,2019-08-07 16:21:38:036
-8.7136,-19.5204,3.5943,10.9861,9.9032,0.5287,0.0464,-2.178,0.0321,1694,2019-08-07 16:21:38:041
-8.7136,-19.5204,3.5943,10.9861,9.9032,0.5287,-1.9627,-2.5935,-0.2875,1699,2019-08-07 16:21:38:046
-5.4603,-16.1883,6.6206,10.9861,9.9032,0.5287,-1.9627,-2.5935,-0.2875,1704,2019-08-07 16:21:38:051
-5.4603,-16.1883,6.6206,10.9861,9.9032,0.5287,-2.2099,-3.4478,-0.6177,1709,2019-08-07 16:21:38:056
0.3095,-17.0428,5.3997,3.4749,7.7582,-4.5682,-2.2099,-3.4478,-0.6177,1714,2019-08-07 16:21:38:061
0.3095,-17.0428,5.3997,3.4749,7.7582,-4.5682,-1.2948,-3.1549,-1.0801,1719,2019-08-07 16:21:38:066
0.3095,-17.0428,5.3997,3.4749,7.7582,-4.5682,-1.2948,-3.1549,-1.0801,1724,2019-08-07 16:21:38:071
0.3095,-17.0428,5.3997,3.4749,7.7582,-4.5682,-1.2948,-3.1549,-1.0801,1728,2019-08-07 16:21:38:075
5.2133,-17.3006,-0.799,-2.1576,7.5796,3.1787,-0.9827,-2.2206,-1.3315,1734,2019-08-07 16:21:38:081
5.2133,-17.3006,-0.799,-2.1576,7.5796,3.1787,-0.9827,-2.2206,-1.3315,1738,2019-08-07 16:21:38:085
3.3809,-13.2667,0.2004,-2.1576,7.5796,3.1787,-0.3851,-1.3823,-1.1259,1744,2019-08-07 16:21:38:091
3.3809,-13.2667,0.2004,-2.1576,7.5796,3.1787,-0.3851,-1.3823,-1.1259,1749,2019-08-07 16:21:38:096
1.8691,-9.5575,2.9297,1.3633,0.6417,-0.4203,0.7473,-0.529,-0.1256,1754,2019-08-07 16:21:38:101
1.8691,-9.5575,2.9297,1.3633,0.6417,-0.4203,0.7473,-0.529,-0.1256,1759,2019-08-07 16:21:38:106
1.8691,-9.5575,2.9297,-0.4889,0.9081,1.617,1.3108,-0.5514,0.3932,1764,2019-08-07 16:21:38:111
4.4478,-9.4668,0.667,-0.4889,0.9081,1.617,1.3108,-0.5514,0.3932,1769,2019-08-07 16:21:38:116
4.4478,-9.4668,0.667,-0.4889,0.9081,1.617,1.3108,-0.5514,0.3932,1774,2019-08-07 16:21:38:121
4.4478,-9.4668,0.667,-0.4889,0.9081,1.617,0.7303,-0.6867,0.3122,1779,2019-08-07 16:21:38:126
4.3856,-8.1349,1.2091,-1.1047,-1.3569,1.1571,0.7303,-0.6867,0.3122,1785,2019-08-07 16:21:38:132
4.3856,-8.1349,1.2091,-1.1047,-1.3569,1.1571,0.0773,-0.8124,0.1354,1789,2019-08-07 16:21:38:136
4.9692,-7.6193,3.3539,-1.1047,-1.3569,1.1571,0.0773,-0.8124,0.1354,1793,2019-08-07 16:21:38:140
4.9692,-7.6193,3.3539,-1.1047,-1.3569,1.1571,-0.0101,-0.8923,0.1492,1800,2019-08-07 16:21:38:147
4.9692,-7.6193,3.3539,-2.6651,-0.0108,0.4902,-0.0101,-0.8923,0.1492,1804,2019-08-07 16:21:38:151
6.4045,-9.505,1.3034,-2.6651,-0.0108,0.4902,0.1305,-0.5002,0.2867,1808,2019-08-07 16:21:38:155
6.4045,-9.505,1.3034,-2.6651,-0.0108,0.4902,0.1305,-0.5002,0.2867,1814,2019-08-07 16:21:38:161
6.4045,-9.505,1.3034,-2.6651,-0.0108,0.4902,0.1305,-0.5002,0.2867,1819,2019-08-07 16:21:38:166
5.6055,-9.8678,0.5869,-2.6651,-0.0108,0.4902,0.0868,0.2582,0.3719,1824,2019-08-07 16:21:38:171
5.6055,-9.8678,0.5869,-1.9442,0.8024,1.8222,0.0868,0.2582,0.3719,1829,2019-08-07 16:21:38:176
3.3952,-8.9035,2.232,-1.9442,0.8024,1.8222,-0.0122,0.6385,0.4049,1835,2019-08-07 16:21:38:182
3.3952,-8.9035,2.232,-1.9442,0.8024,1.8222,-0.0122,0.6385,0.4049,1839,2019-08-07 16:21:38:186
3.3952,-8.9035,2.232,1.3065,-0.3948,-0.2871,-0.0857,0.5725,0.4017,1843,2019-08-07 16:21:38:190
1.5245,-8.4261,3.0569,1.3065,-0.3948,-0.2871,-0.0857,0.5725,0.4017,1849,2019-08-07 16:21:38:196
1.5245,-8.4261,3.0569,1.3065,-0.3948,-0.2871,-0.1443,0.2476,0.341,1854,2019-08-07 16:21:38:201
0.936,-8.3927,3.0428,1.3065,-0.3948,-0.2871,-0.1443,0.2476,0.341,1859,2019-08-07 16:21:38:206
0.936,-8.3927,3.0428,2.0036,-0.5684,-1.1749,-0.1582,-0.1199,0.2153,1864,2019-08-07 16:21:38:211
0.936,-8.3927,3.0428,2.0036,-0.5684,-1.1749,-0.1582,-0.1199,0.2153,1868,2019-08-07 16:21:38:215
1.4049,-8.364,3.1323,2.0036,-0.5684,-1.1749,-0.1582,-0.1199,0.2153,1874,2019-08-07 16:21:38:221
1.4049,-8.364,3.1323,1.5079,-0.5899,0.0355,-0.042,-0.4427,0.0129,1880,2019-08-07 16:21:38:227
2.5148,-8.3258,2.1754,1.5079,-0.5899,0.0355,-0.042,-0.4427,0.0129,1885,2019-08-07 16:21:38:232
2.5148,-8.3258,2.1754,1.5079,-0.5899,0.0355,-0.0282,-0.4619,-0.1373,1889,2019-08-07 16:21:38:236
2.5148,-8.3258,2.1754,1.5079,-0.5899,0.0355,-0.0282,-0.4619,-0.1373,1894,2019-08-07 16:21:38:241
3.2946,-8.6457,1.737,-0.0951,-0.406,0.7165,0.0059,-0.2371,-0.1778,1899,2019-08-07 16:21:38:246
3.2946,-8.6457,1.737,-0.0951,-0.406,0.7165,0.0059,-0.2371,-0.1778,1904,2019-08-07 16:21:38:251
3.5434,-8.8175,1.9869,-0.0951,-0.406,0.7165,0.0378,0.1432,-0.2396,1909,2019-08-07 16:21:38:256
3.5434,-8.8175,1.9869,-0.1717,-0.2054,0.536,0.0378,0.1432,-0.2396,1913,2019-08-07 16:21:38:260
3.5434,-8.8175,1.9869,-0.1717,-0.2054,0.536,0.0421,0.4351,-0.2641,1919,2019-08-07 16:21:38:266
2.8927,-8.5979,2.4064,-0.1717,-0.2054,0.536,0.0421,0.4351,-0.2641,1924,2019-08-07 16:21:38:271
2.8927,-8.5979,2.4064,-0.1717,-0.2054,0.536,0.0421,0.4351,-0.2641,1928,2019-08-07 16:21:38:275
2.8927,-8.5979,2.4064,-0.1717,-0.2054,0.536,0.0464,0.4969,-0.2428,1934,2019-08-07 16:21:38:281
1.9932,-8.5215,3.0946,1.1336,-0.3885,-0.4356,0.0464,0.4969,-0.2428,1939,2019-08-07 16:21:38:286
1.9932,-8.5215,3.0946,1.1336,-0.3885,-0.4356,0.0315,0.3296,-0.2023,1943,2019-08-07 16:21:38:290
1.4909,-8.5311,3.5188,1.1336,-0.3885,-0.4356,0.0315,0.3296,-0.2023,1949,2019-08-07 16:21:38:296
1.4909,-8.5311,3.5188,1.6492,-0.3333,-0.7356,0.0304,-0.1114,-0.1789,1953,2019-08-07 16:21:38:300
1.4909,-8.5311,3.5188,1.6492,-0.3333,-0.7356,0.0304,-0.1114,-0.1789,1959,2019-08-07 16:21:38:306
1.7588,-8.6552,3.1653,1.6492,-0.3333,-0.7356,0.057,-0.4502,-0.165,1964,2019-08-07 16:21:38:311
1.7588,-8.6552,3.1653,1.6492,-0.3333,-0.7356,0.057,-0.4502,-0.165,1969,2019-08-07 16:21:38:316
3.0553,-8.6313,2.7033,0.1338,-0.2534,-0.0336,0.0986,-0.6483,-0.1586,1974,2019-08-07 16:21:38:321
3.0553,-8.6313,2.7033,0.1338,-0.2534,-0.0336,0.0986,-0.6483,-0.1586,1979,2019-08-07 16:21:38:326
3.0553,-8.6313,2.7033,0.1338,-0.2534,-0.0336,0.0986,-0.6483,-0.1586,1984,2019-08-07 16:21:38:331
3.7968,-8.5024,1.9774,0.1338,-0.2534,-0.0336,0.0996,-0.5737,-0.1362,1989,2019-08-07 16:21:38:336
3.7968,-8.5024,1.9774,0.1338,-0.2534,-0.0336,0.0996,-0.5737,-0.1362,1994,2019-08-07 16:21:38:341
3.7968,-8.5024,1.9774,-0.9011,-0.2624,0.9844,0.0506,-0.3181,-0.1309,1999,2019-08-07 16:21:38:346
4.1126,-8.6838,1.7511,-0.9011,-0.2624,0.9844,0.0506,-0.3181,-0.1309,2004,2019-08-07 16:21:38:351
4.1126,-8.6838,1.7511,-0.7981,-0.1375,0.8678,-0.0165,-0.039,-0.1458,2009,2019-08-07 16:21:38:356
3.7968,-8.9512,1.9538,-0.7981,-0.1375,0.8678,-0.0165,-0.039,-0.1458,2014,2019-08-07 16:21:38:361
3.7968,-8.9512,1.9538,-0.7981,-0.1375,0.8678,-0.0623,0.2465,-0.1512,2019,2019-08-07 16:21:38:366
3.7968,-8.9512,1.9538,-0.7981,-0.1375,0.8678,-0.0623,0.2465,-0.1512,2024,2019-08-07 16:21:38:371
3.3375,-9.2328,2.3121,0.0219,0.4854,0.3187,-0.0623,0.2465,-0.1512,2028,2019-08-07 16:21:38:375
3.3375,-9.2328,2.3121,0.0219,0.4854,0.3187,-0.0559,0.3637,-0.1565,2034,2019-08-07 16:21:38:381
2.6055,-9.3187,2.9154,0.0219,0.4854,0.3187,-0.0559,0.3637,-0.1565,2039,2019-08-07 16:21:38:386
2.6055,-9.3187,2.9154,0.0219,0.4854,0.3187,-0.0506,0.2359,-0.1597,2044,2019-08-07 16:21:38:391
2.6055,-9.3187,2.9154,0.9902,0.458,-0.5368,-0.0506,0.2359,-0.1597,2049,2019-08-07 16:21:38:396
2.3375,-9.1994,3.2548,0.9902,0.458,-0.5368,-0.008,-0.0816,-0.1565,2054,2019-08-07 16:21:38:401
2.3375,-9.1994,3.2548,0.8274,0.3138,-0.6724,-0.008,-0.0816,-0.1565,2059,2019-08-07 16:21:38:406
2.8064,-8.9559,3.2501,0.8274,0.3138,-0.6724,0.0165,-0.3756,-0.1714,2064,2019-08-07 16:21:38:411
2.8064,-8.9559,3.2501,0.8274,0.3138,-0.6724,0.0165,-0.3756,-0.1714,2069,2019-08-07 16:21:38:416
2.8064,-8.9559,3.2501,0.8274,0.3138,-0.6724,0.0165,-0.3756,-0.1714,2074,2019-08-07 16:21:38:421
3.39,-8.7793,2.8777,-0.2008,-0.1651,-0.1108,0.0474,-0.5503,-0.1725,2079,2019-08-07 16:21:38:426
3.39,-8.7793,2.8777,-0.2008,-0.1651,-0.1108,0.0474,-0.5503,-0.1725,2084,2019-08-07 16:21:38:431
3.39,-8.7793,2.8777,-0.2008,-0.1651,-0.1108,0.0773,-0.5311,-0.149,2089,2019-08-07 16:21:38:436
4.4043,-8.617,2.3168,-0.2008,-0.1651,-0.1108,0.0773,-0.5311,-0.149,2095,2019-08-07 16:21:38:442
4.4043,-8.617,2.3168,-1.3305,-0.1489,0.6044,0.106,-0.3415,-0.1373,2099,2019-08-07 16:21:38:446
4.4043,-8.617,2.3168,-1.3305,-0.1489,0.6044,0.106,-0.3415,-0.1373,2104,2019-08-07 16:21:38:451
4.7583,-8.6122,2.3451,-1.3305,-0.1489,0.6044,0.1199,-0.1114,-0.1224,2109,2019-08-07 16:21:38:456
4.7583,-8.6122,2.3451,-1.3305,-0.1489,0.6044,0.1199,-0.1114,-0.1224,2114,2019-08-07 16:21:38:461
4.4664,-8.6027,2.4252,-1.0957,-0.2076,0.1653,0.1337,0.1666,-0.083,2119,2019-08-07 16:21:38:466
4.4664,-8.6027,2.4252,-1.0957,-0.2076,0.1653,0.1337,0.1666,-0.083,2124,2019-08-07 16:21:38:471
4.4664,-8.6027,2.4252,-1.0957,-0.2076,0.1653,0.1337,0.1666,-0.083,2129,2019-08-07 16:21:38:476
3.7918,-8.5645,2.8164,-1.0957,-0.2076,0.1653,0.0879,0.2902,-0.0755,2134,2019-08-07 16:21:38:481
3.7918,-8.5645,2.8164,-0.0185,-0.2282,-0.4024,0.0879,0.2902,-0.0755,2139,2019-08-07 16:21:38:486
3.7918,-8.5645,2.8164,-0.0185,-0.2282,-0.4024,0.0336,0.2827,-0.05,2143,2019-08-07 16:21:38:490
3.189,-8.6504,3.4151,-0.0185,-0.2282,-0.4024,0.0336,0.2827,-0.05,2149,2019-08-07 16:21:38:496
3.189,-8.6504,3.4151,-0.0185,-0.2282,-0.4024,0.0347,0.1645,-0.0137,2154,2019-08-07 16:21:38:501
2.9354,-8.722,3.4716,0.5178,-0.0611,-0.7944,0.0347,0.1645,-0.0137,2159,2019-08-07 16:21:38:506
2.9354,-8.722,3.4716,0.5178,-0.0611,-0.7944,0.0347,0.1645,-0.0137,2164,2019-08-07 16:21:38:511
2.9354,-8.722,3.4716,0.5178,-0.0611,-0.7944,0.0283,-6.0E-4,-0.001,2169,2019-08-07 16:21:38:516
3.0263,-8.6456,3.4386,0.5178,-0.0611,-0.7944,0.0283,-6.0E-4,-0.001,2173,2019-08-07 16:21:38:520
3.0263,-8.6456,3.4386,0.1951,-0.2024,-0.5777,0.0102,-0.1189,0.0054,2179,2019-08-07 16:21:38:526
3.3947,-8.5645,3.104,0.1951,-0.2024,-0.5777,0.0102,-0.1189,0.0054,2184,2019-08-07 16:21:38:531
3.3947,-8.5645,3.104,0.1951,-0.2024,-0.5777,-0.0101,-0.1412,0.0044,2189,2019-08-07 16:21:38:536
3.3947,-8.5645,3.104,0.1951,-0.2024,-0.5777,-0.0101,-0.1412,0.0044,2194,2019-08-07 16:21:38:541
3.7391,-8.4547,2.8023,-0.2953,-0.3406,0.022,-0.0335,-0.0613,-0.0052,2199,2019-08-07 16:21:38:546
3.7391,-8.4547,2.8023,-0.2953,-0.3406,0.022,-0.0335,-0.0613,-0.0052,2204,2019-08-07 16:21:38:551
3.763,-8.5215,2.4534,-0.2953,-0.3406,0.022,-0.0538,0.0409,-0.0169,2209,2019-08-07 16:21:38:556
3.763,-8.5215,2.4534,-0.2953,-0.3406,0.022,-0.0538,0.0409,-0.0169,2214,2019-08-07 16:21:38:561
3.763,-8.5215,2.4534,-0.2013,-0.0503,-0.0273,-0.058,0.1293,-0.0233,2219,2019-08-07 16:21:38:566
3.633,-8.7463,2.6805,-0.2013,-0.0503,-0.0273,-0.058,0.1293,-0.0233,2224,2019-08-07 16:21:38:571
3.633,-8.7463,2.6805,-0.2013,-0.0503,-0.0273,-0.0474,0.1453,-0.0212,2229,2019-08-07 16:21:38:576
3.5517,-8.837,2.8455,-0.2013,-0.0503,-0.0273,-0.0474,0.1453,-0.0212,2234,2019-08-07 16:21:38:581
3.5517,-8.837,2.8455,-0.2013,-0.0503,-0.0273,-0.0474,0.1453,-0.0212,2239,2019-08-07 16:21:38:586
3.5517,-8.837,2.8455,-0.0359,0.0259,-0.1724,-0.0389,0.0846,-0.0233,2244,2019-08-07 16:21:38:591
3.4512,-8.689,2.9021,-0.0359,0.0259,-0.1724,-0.0389,0.0846,-0.0233,2249,2019-08-07 16:21:38:596
3.4512,-8.689,2.9021,-0.0359,0.0259,-0.1724,-0.0495,-0.0273,-0.0116,2254,2019-08-07 16:21:38:601
3.4512,-8.689,2.9021,-0.0359,0.0259,-0.1724,-0.0495,-0.0273,-0.0116,2258,2019-08-07 16:21:38:605
3.5804,-8.7033,2.8549,-0.1199,-0.0799,-0.1874,-0.0655,-0.1583,0.0055,2264,2019-08-07 16:21:38:611
3.5804,-8.7033,2.8549,-0.1199,-0.0799,-0.1874,-0.0655,-0.1583,0.0055,2269,2019-08-07 16:21:38:616
3.8675,-8.794,2.7418,-0.1199,-0.0799,-0.1874,-0.0463,-0.2286,0.0108,2273,2019-08-07 16:21:38:620
3.8675,-8.794,2.7418,-0.4719,-0.0776,0.0251,-0.0463,-0.2286,0.0108,2279,2019-08-07 16:21:38:626
3.9871,-8.7176,2.4496,-0.4719,-0.0776,0.0251,-0.0186,-0.2488,0.0278,2285,2019-08-07 16:21:38:632
3.9871,-8.7176,2.4496,-0.4719,-0.0776,0.0251,-0.0186,-0.2488,0.0278,2289,2019-08-07 16:21:38:636
3.9871,-8.7176,2.4496,-0.514,-0.1979,0.2359,0.0027,-0.1966,0.0438,2293,2019-08-07 16:21:38:640
3.9584,-8.5362,2.4401,-0.514,-0.1979,0.2359,0.0027,-0.1966,0.0438,2299,2019-08-07 16:21:38:646
3.9584,-8.5362,2.4401,-0.514,-0.1979,0.2359,0.0165,-0.121,0.0513,2304,2019-08-07 16:21:38:651
3.7622,-8.4264,2.3364,-0.2807,-0.362,0.2864,0.0165,-0.121,0.0513,2309,2019-08-07 16:21:38:656
3.7622,-8.4264,2.3364,-0.2807,-0.362,0.2864,0.0155,-0.0784,0.0331,2314,2019-08-07 16:21:38:661
3.7622,-8.4264,2.3364,-0.2807,-0.362,0.2864,0.0155,-0.0784,0.0331,2319,2019-08-07 16:21:38:666
3.6187,-8.4121,2.5156,-0.2807,-0.362,0.2864,0.0155,-0.0784,0.0331,2324,2019-08-07 16:21:38:671
3.6187,-8.4121,2.5156,-0.2807,-0.362,0.2864,0.0336,-0.0113,1.0E-4,2329,2019-08-07 16:21:38:676
3.6187,-8.4121,2.5156,-0.021,-0.4282,0.1925,0.0336,-0.0113,1.0E-4,2334,2019-08-07 16:21:38:681
3.3316,-8.2498,2.4826,-0.021,-0.4282,0.1925,0.04,0.0196,-0.0372,2339,2019-08-07 16:21:38:686
3.3316,-8.2498,2.4826,-0.021,-0.4282,0.1925,0.04,0.0196,-0.0372,2344,2019-08-07 16:21:38:691
3.3316,-8.2498,2.4826,-0.021,-0.4282,0.1925,0.041,-0.0486,-0.0478,2349,2019-08-07 16:21:38:696
3.2647,-8.1734,2.8597,0.2247,-0.6092,-0.2279,0.041,-0.0486,-0.0478,2354,2019-08-07 16:21:38:701
3.2647,-8.1734,2.8597,0.2247,-0.6092,-0.2279,0.041,-0.1402,-0.0542,2359,2019-08-07 16:21:38:706
3.5996,-8.2737,2.7088,0.2247,-0.6092,-0.2279,0.041,-0.1402,-0.0542,2364,2019-08-07 16:21:38:711
3.5996,-8.2737,2.7088,-0.2533,-0.497,-0.0225,0.0229,-0.1977,-0.0755,2369,2019-08-07 16:21:38:716
3.5996,-8.2737,2.7088,-0.2533,-0.497,-0.0225,0.0229,-0.1977,-0.0755,2374,2019-08-07 16:21:38:721
3.877,-8.2259,2.6475,-0.2533,-0.497,-0.0225,0.0165,-0.1934,-0.0926,2379,2019-08-07 16:21:38:726
3.877,-8.2259,2.6475,-0.2533,-0.497,-0.0225,0.0165,-0.1934,-0.0926,2384,2019-08-07 16:21:38:731
3.877,-8.2259,2.6475,-0.2533,-0.497,-0.0225,0.0165,-0.1934,-0.0926,2389,2019-08-07 16:21:38:736
3.9823,-8.2259,2.3129,-0.4426,-0.5403,0.3064,0.008,-0.1189,-0.1,2394,2019-08-07 16:21:38:741
3.9823,-8.2259,2.3129,-0.4426,-0.5403,0.3064,0.008,-0.1189,-0.1,2398,2019-08-07 16:21:38:745
3.9201,-8.2641,2.6004,-0.4426,-0.5403,0.3064,-0.0016,-0.0411,-0.0947,2404,2019-08-07 16:21:38:751
3.9201,-8.2641,2.6004,-0.4426,-0.5403,0.3064,-0.0016,-0.0411,-0.0947,2409,2019-08-07 16:21:38:756
3.9201,-8.2641,2.6004,-0.2272,-0.3838,-0.0701,-0.0016,0.0175,-0.0989,2414,2019-08-07 16:21:38:761
3.6666,-8.4551,2.6994,-0.2272,-0.3838,-0.0701,-0.0016,0.0175,-0.0989,2418,2019-08-07 16:21:38:765
3.6666,-8.4551,2.6994,-0.2272,-0.3838,-0.0701,6.0E-4,0.0292,-0.1203,2424,2019-08-07 16:21:38:771
3.6666,-8.4551,2.6994,-0.2272,-0.3838,-0.0701,6.0E-4,0.0292,-0.1203,2429,2019-08-07 16:21:38:776
3.3795,-8.7081,2.7041,0.2517,-0.0266,-0.0397,-0.0144,-0.006,-0.149,2434,2019-08-07 16:21:38:781
3.3795,-8.7081,2.7041,0.2517,-0.0266,-0.0397,-0.0144,-0.006,-0.149,2438,2019-08-07 16:21:38:785
3.1499,-8.9802,2.8691,0.2517,-0.0266,-0.0397,-0.0101,-0.072,-0.1629,2444,2019-08-07 16:21:38:791
3.1499,-8.9802,2.8691,0.2517,-0.0266,-0.0397,-0.0101,-0.072,-0.1629,2449,2019-08-07 16:21:38:796
3.1499,-8.9802,2.8691,0.3439,0.4233,-0.4268,0.0187,-0.1924,-0.1799,2454,2019-08-07 16:21:38:801
3.3556,-9.1664,2.9398,0.3439,0.4233,-0.4268,0.0187,-0.1924,-0.1799,2458,2019-08-07 16:21:38:805
3.3556,-9.1664,2.9398,0.3439,0.4233,-0.4268,0.0442,-0.2968,-0.1916,2464,2019-08-07 16:21:38:811
3.3556,-9.1664,2.9398,0.3439,0.4233,-0.4268,0.0442,-0.2968,-0.1916,2469,2019-08-07 16:21:38:816
3.3556,-9.1664,2.9398,-0.0983,0.3958,-0.2078,0.0442,-0.2968,-0.1916,2474,2019-08-07 16:21:38:821
3.7575,-9.1186,2.8078,-0.0983,0.3958,-0.2078,0.0496,-0.3607,-0.1863,2481,2019-08-07 16:21:38:828
3.7575,-9.1186,2.8078,-0.0983,0.3958,-0.2078,0.0421,-0.3458,-0.1618,2484,2019-08-07 16:21:38:831
4.3316,-9.1568,2.7513,-0.0983,0.3958,-0.2078,0.0421,-0.3458,-0.1618,2489,2019-08-07 16:21:38:836
4.3316,-9.1568,2.7513,-0.6989,0.4402,-0.2168,0.0421,-0.3458,-0.1618,2495,2019-08-07 16:21:38:842
4.3316,-9.1568,2.7513,-0.6989,0.4402,-0.2168,0.0219,-0.3032,-0.132,2499,2019-08-07 16:21:38:846
4.3938,-9.1138,2.7465,-0.6989,0.4402,-0.2168,0.0219,-0.3032,-0.132,2504,2019-08-07 16:21:38:851
4.3938,-9.1138,2.7465,-0.6989,0.4402,-0.2168,-0.0186,-0.2286,-0.0617,2509,2019-08-07 16:21:38:856
4.3364,-9.0804,2.6664,-0.5931,0.3821,-0.1045,-0.0186,-0.2286,-0.0617,2514,2019-08-07 16:21:38:861
4.3364,-9.0804,2.6664,-0.5931,0.3821,-0.1045,-0.057,-0.1732,0.0044,2518,2019-08-07 16:21:38:865
4.3364,-9.0804,2.6664,-0.5931,0.3821,-0.1045,-0.057,-0.1732,0.0044,2524,2019-08-07 16:21:38:871
4.3651,-9.1759,2.657,-0.6156,0.4768,-0.1068,-0.057,-0.1732,0.0044,2529,2019-08-07 16:21:38:876
4.3651,-9.1759,2.657,-0.6156,0.4768,-0.1068,-0.0666,-0.1093,0.0704,2534,2019-08-07 16:21:38:881
4.0924,-9.2475,2.7465,-0.6156,0.4768,-0.1068,-0.0666,-0.1093,0.0704,2539,2019-08-07 16:21:38:886
4.0924,-9.2475,2.7465,-0.2832,0.4969,-0.2197,-0.0527,-0.0699,0.1248,2543,2019-08-07 16:21:38:890
4.0924,-9.2475,2.7465,-0.2832,0.4969,-0.2197,-0.0527,-0.0699,0.1248,2549,2019-08-07 16:21:38:896
3.901,-9.1282,2.7324,-0.2832,0.4969,-0.2197,-0.0421,-0.0315,0.1759,2554,2019-08-07 16:21:38:901
3.901,-9.1282,2.7324,-0.2832,0.4969,-0.2197,-0.0421,-0.0315,0.1759,2559,2019-08-07 16:21:38:906
3.6953,-8.9468,2.7041,0.0186,0.2241,-0.1825,-0.0389,-0.0081,0.1983,2564,2019-08-07 16:21:38:911
3.6953,-8.9468,2.7041,0.0186,0.2241,-0.1825,-0.0389,-0.0081,0.1983,2569,2019-08-07 16:21:38:916
3.6953,-8.9468,2.7041,0.0186,0.2241,-0.1825,-0.0389,-0.0081,0.1983,2574,2019-08-07 16:21:38:921
3.6331,-8.7988,2.525,0.0625,0.0674,-0.0067,-0.0442,0.0047,0.2057,2578,2019-08-07 16:21:38:925
3.6331,-8.7988,2.525,0.0625,0.0674,-0.0067,-0.0442,0.0047,0.2057,2585,2019-08-07 16:21:38:932
3.7145,-8.6508,2.6287,0.0625,0.0674,-0.0067,-0.041,0.0452,0.1876,2589,2019-08-07 16:21:38:936
3.7145,-8.6508,2.6287,0.0023,-0.1066,0.0409,-0.041,0.0452,0.1876,2594,2019-08-07 16:21:38:941
3.7145,-8.6508,2.6287,0.0023,-0.1066,0.0409,-0.0133,0.1187,0.1578,2599,2019-08-07 16:21:38:946
3.5327,-8.5744,2.4166,0.0023,-0.1066,0.0409,-0.0133,0.1187,0.1578,2603,2019-08-07 16:21:38:950
3.5327,-8.5744,2.4166,0.0023,-0.1066,0.0409,0.0069,0.1815,0.1322,2609,2019-08-07 16:21:38:956
3.3222,-8.4169,2.459,0.3033,-0.3423,0.0646,0.0069,0.1815,0.1322,2614,2019-08-07 16:21:38:961
3.3222,-8.4169,2.459,0.3033,-0.3423,0.0646,0.0176,0.1954,0.0971,2619,2019-08-07 16:21:38:966
3.3222,-8.4169,2.459,0.3033,-0.3423,0.0646,0.0176,0.1954,0.0971,2624,2019-08-07 16:21:38:971
3.2121,-8.3262,2.6523,0.3984,-0.4364,-0.1192,0.0176,0.1954,0.0971,2629,2019-08-07 16:21:38:976
3.2121,-8.3262,2.6523,0.3984,-0.4364,-0.1192,0.0304,0.1442,0.0672,2633,2019-08-07 16:21:38:980
3.2743,-8.2211,2.723,0.3984,-0.4364,-0.1192,0.0304,0.1442,0.0672,2639,2019-08-07 16:21:38:986
3.2743,-8.2211,2.723,0.2911,-0.6149,-0.1823,0.0357,0.0729,0.0289,2644,2019-08-07 16:21:38:991
3.3796,-8.0923,2.657,0.2911,-0.6149,-0.1823,0.0357,0.0729,0.0289,2649,2019-08-07 16:21:38:996
3.3796,-8.0923,2.657,0.2911,-0.6149,-0.1823,0.0314,-0.0464,-0.0148,2653,2019-08-07 16:21:39:000
3.3796,-8.0923,2.657,0.2911,-0.6149,-0.1823,0.0314,-0.0464,-0.0148,2659,2019-08-07 16:21:39:006
3.6379,-8.0493,2.5014,-0.1179,-0.6733,0.1264,0.0123,-0.137,-0.0361,2664,2019-08-07 16:21:39:011
3.6379,-8.0493,2.5014,-0.1179,-0.6733,0.1264,0.0123,-0.137,-0.0361,2669,2019-08-07 16:21:39:016
3.6379,-8.0493,2.5014,-0.1179,-0.6733,0.1264,-0.0058,-0.1892,-0.051,2674,2019-08-07 16:21:39:021
3.9967,-8.0923,2.3789,-0.1179,-0.6733,0.1264,-0.0058,-0.1892,-0.051,2679,2019-08-07 16:21:39:026
3.9967,-8.0923,2.3789,-0.6353,-0.4915,0.3138,-0.0229,-0.1679,-0.0617,2684,2019-08-07 16:21:39:031
3.9967,-8.0923,2.3789,-0.6353,-0.4915,0.3138,-0.0229,-0.1679,-0.0617,2689,2019-08-07 16:21:39:036
4.2982,-8.3596,2.1997,-0.6353,-0.4915,0.3138,-0.0229,-0.1679,-0.0617,2694,2019-08-07 16:21:39:041
4.2982,-8.3596,2.1997,-0.6353,-0.4915,0.3138,-0.025,-0.0954,-0.0681,2699,2019-08-07 16:21:39:046
4.2982,-8.3596,2.1997,-0.6353,-0.4915,0.3138,-0.025,-0.0954,-0.0681,2704,2019-08-07 16:21:39:051
4.2838,-8.3739,2.1526,-0.6358,-0.3761,0.3706,-0.0144,-0.0081,-0.0659,2709,2019-08-07 16:21:39:056
4.2838,-8.3739,2.1526,-0.6358,-0.3761,0.3706,-0.0144,-0.0081,-0.0659,2714,2019-08-07 16:21:39:061
4.2838,-8.3739,2.1526,-0.6358,-0.3761,0.3706,0.0048,0.0782,-0.0649,2719,2019-08-07 16:21:39:066
3.9441,-8.4264,2.492,-0.6358,-0.3761,0.3706,0.0048,0.0782,-0.0649,2724,2019-08-07 16:21:39:071
3.9441,-8.4264,2.492,-0.1784,-0.3414,-0.0274,0.0037,0.0771,-0.0649,2729,2019-08-07 16:21:39:076
3.681,-8.4694,2.5486,-0.1784,-0.3414,-0.0274,0.0037,0.0771,-0.0649,2734,2019-08-07 16:21:39:081
3.681,-8.4694,2.5486,-0.1784,-0.3414,-0.0274,0.0037,0.0771,-0.0649,2739,2019-08-07 16:21:39:086
3.681,-8.4694,2.5486,-0.1784,-0.3414,-0.0274,-0.008,0.0473,-0.0659,2744,2019-08-07 16:21:39:091
3.6762,-8.5458,2.8125,-0.016,-0.2119,-0.3098,-0.008,0.0473,-0.0659,2749,2019-08-07 16:21:39:096
3.6762,-8.5458,2.8125,-0.016,-0.2119,-0.3098,-0.009,-0.0166,-0.0723,2754,2019-08-07 16:21:39:101
3.6475,-8.5887,2.8173,0.0285,-0.147,-0.2857,-0.009,-0.0166,-0.0723,2759,2019-08-07 16:21:39:106
3.6475,-8.5887,2.8173,0.0285,-0.147,-0.2857,-0.0144,-0.0443,-0.0681,2764,2019-08-07 16:21:39:111
3.6475,-8.5887,2.8173,0.0285,-0.147,-0.2857,-0.0144,-0.0443,-0.0681,2769,2019-08-07 16:21:39:116
3.7384,-8.6603,2.6994,0.0285,-0.147,-0.2857,-0.0144,-0.0443,-0.0681,2773,2019-08-07 16:21:39:120
3.7384,-8.6603,2.6994,-0.0858,-0.0704,-0.2286,-0.0197,-0.0582,-0.0691,2779,2019-08-07 16:21:39:126
3.748,-8.6651,2.7796,-0.0858,-0.0704,-0.2286,-0.0197,-0.0582,-0.0691,2784,2019-08-07 16:21:39:131
3.748,-8.6651,2.7796,-0.0858,-0.0704,-0.2286,-0.0282,-0.0656,-0.0585,2789,2019-08-07 16:21:39:136
3.748,-8.6651,2.7796,-0.0858,-0.0704,-0.2286,-0.0282,-0.0656,-0.0585,2794,2019-08-07 16:21:39:141
3.9346,-8.7463,2.6287,-0.229,0.0194,-0.1097,-0.041,-0.0518,-0.051,2799,2019-08-07 16:21:39:146
3.9346,-8.7463,2.6287,-0.229,0.0194,-0.1097,-0.041,-0.0518,-0.051,2803,2019-08-07 16:21:39:150
3.9585,-8.7558,2.5627,-0.229,0.0194,-0.1097,-0.058,-0.023,-0.0457,2809,2019-08-07 16:21:39:156
3.9585,-8.7558,2.5627,-0.229,0.0194,-0.1097,-0.058,-0.023,-0.0457,2813,2019-08-07 16:21:39:160
3.9585,-8.7558,2.5627,-0.1892,0.0161,-0.2152,-0.058,4.0E-4,-0.0393,2819,2019-08-07 16:21:39:166
3.925,-8.7081,2.7418,-0.1892,0.0161,-0.2152,-0.058,4.0E-4,-0.0393,2824,2019-08-07 16:21:39:171
3.925,-8.7081,2.7418,-0.1892,0.0161,-0.2152,-0.0431,0.0175,-0.0212,2830,2019-08-07 16:21:39:177
3.925,-8.7081,2.7418,-0.1892,0.0161,-0.2152,-0.0431,0.0175,-0.0212,2834,2019-08-07 16:21:39:181
3.8389,-8.7797,2.789,-0.117,0.0547,-0.2872,-0.0431,0.0175,-0.0212,2839,2019-08-07 16:21:39:186
3.8389,-8.7797,2.789,-0.117,0.0547,-0.2872,-0.0357,0.0175,-0.0137,2844,2019-08-07 16:21:39:191
3.8389,-8.7797,2.789,-0.117,0.0547,-0.2872,-0.0357,0.0175,-0.0137,2849,2019-08-07 16:21:39:196
3.8341,-8.6508,2.8503,-0.117,0.0547,-0.2872,-0.0314,0.0015,-0.0073,2854,2019-08-07 16:21:39:201
3.8341,-8.6508,2.8503,-0.0387,-0.0932,-0.3039,-0.0314,0.0015,-0.0073,2859,2019-08-07 16:21:39:206
3.8054,-8.6269,2.8974,-0.0387,-0.0932,-0.3039,-0.0229,-0.0049,-0.0084,2864,2019-08-07 16:21:39:211
3.8054,-8.6269,2.8974,-0.0387,-0.0932,-0.3039,-0.0229,-0.0049,-0.0084,2868,2019-08-07 16:21:39:215
3.8054,-8.6269,2.8974,-0.0387,-0.0932,-0.3039,-0.0271,-0.0315,0.0086,2874,2019-08-07 16:21:39:221
3.815,-8.6747,2.7277,-0.0993,-0.0171,-0.1846,-0.0271,-0.0315,0.0086,2879,2019-08-07 16:21:39:226
3.815,-8.6747,2.7277,-0.0993,-0.0171,-0.1846,-0.0261,-0.0209,0.014,2884,2019-08-07 16:21:39:231
3.815,-8.6747,2.7277,-0.0993,-0.0171,-0.1846,-0.0261,-0.0209,0.014,2889,2019-08-07 16:21:39:236
3.8485,-8.6747,2.6004,-0.0993,-0.0171,-0.1846,-0.0218,-0.0251,0.0118,2894,2019-08-07 16:21:39:241
3.8485,-8.6747,2.6004,-0.0759,-0.0473,-0.1801,-0.0218,-0.0251,0.0118,2899,2019-08-07 16:21:39:246
3.8629,-8.7081,2.6994,-0.0759,-0.0473,-0.1801,-0.0218,-0.0251,0.0118,2904,2019-08-07 16:21:39:251
3.8629,-8.7081,2.6994,-0.0759,-0.0473,-0.1801,-0.0026,-0.0486,0.0225,2909,2019-08-07 16:21:39:256
3.8629,-8.7081,2.6994,-0.0759,-0.0473,-0.1801,-0.0026,-0.0486,0.0225,2914,2019-08-07 16:21:39:261
3.882,-8.8227,2.492,-0.21,0.0517,-3.0E-4,-0.0016,-0.0518,0.0246,2919,2019-08-07 16:21:39:266
3.882,-8.8227,2.492,-0.21,0.0517,-3.0E-4,-0.0016,-0.0518,0.0246,2924,2019-08-07 16:21:39:271
3.8724,-8.6794,2.5014,-0.21,0.0517,-3.0E-4,-5.0E-4,-0.0262,0.031,2929,2019-08-07 16:21:39:276
3.8724,-8.6794,2.5014,-0.21,0.0517,-3.0E-4,-5.0E-4,-0.0262,0.031,2934,2019-08-07 16:21:39:281
3.8724,-8.6794,2.5014,-0.1127,-0.06,0.0497,-5.0E-4,-0.0262,0.031,2939,2019-08-07 16:21:39:286
3.8389,-8.6747,2.4732,-0.1127,-0.06,0.0497,0.0112,-0.0177,0.0406,2944,2019-08-07 16:21:39:291
3.8389,-8.6747,2.4732,-0.1127,-0.06,0.0497,0.0112,-0.0177,0.0406,2950,2019-08-07 16:21:39:297
3.8581,-8.646,2.6052,-0.1127,-0.06,0.0497,0.0325,-0.0262,0.0363,2954,2019-08-07 16:21:39:301
3.8581,-8.646,2.6052,-0.1606,-0.0709,-0.0374,0.0325,-0.0262,0.0363,2959,2019-08-07 16:21:39:306
3.8581,-8.646,2.6052,-0.1606,-0.0709,-0.0374,0.04,-0.0134,0.0342,2965,2019-08-07 16:21:39:312
3.9059,-8.5553,2.4166,-0.1606,-0.0709,-0.0374,0.04,-0.0134,0.0342,2969,2019-08-07 16:21:39:316
3.9059,-8.5553,2.4166,-0.1606,-0.0709,-0.0374,0.0336,-0.0038,0.0331,2974,2019-08-07 16:21:39:321
3.9155,-8.3835,2.4496,-0.2023,-0.3475,0.0439,0.0336,-0.0038,0.0331,2979,2019-08-07 16:21:39:326
3.9155,-8.3835,2.4496,-0.2023,-0.3475,0.0439,0.0336,0.0271,0.03,2984,2019-08-07 16:21:39:331
3.9155,-8.3835,2.4496,-0.2023,-0.3475,0.0439,0.0336,0.0271,0.03,2989,2019-08-07 16:21:39:336
3.8437,-8.4169,2.5015,-0.1328,-0.3139,-0.0039,0.0336,0.0271,0.03,2995,2019-08-07 16:21:39:342
3.8437,-8.4169,2.5015,-0.1328,-0.3139,-0.0039,0.0314,0.0484,0.0268,2999,2019-08-07 16:21:39:346
3.6476,-8.5219,2.4543,-0.1328,-0.3139,-0.0039,0.0314,0.0484,0.0268,3004,2019-08-07 16:21:39:351
3.6476,-8.5219,2.4543,0.1249,-0.2374,0.0753,0.0144,0.0601,0.0108,3009,2019-08-07 16:21:39:356
3.6476,-8.5219,2.4543,0.1249,-0.2374,0.0753,0.0144,0.0601,0.0108,3014,2019-08-07 16:21:39:361
3.6476,-8.5219,2.4543,0.1249,-0.2374,0.0753,0.0144,0.0601,0.0108,3019,2019-08-07 16:21:39:366
3.6476,-8.5219,2.4543,0.1249,-0.2374,0.0753,0.0144,0.0601,0.0108,3025,2019-08-07 16:21:39:372
3.6476,-8.5219,2.4543,0.1249,-0.2374,0.0753,0.0144,0.0601,0.0108,3028,2019-08-07 16:21:39:375
3.528,-8.541,2.4685,0.1948,-0.2089,-0.0073,0.0059,0.0462,0.0055,3035,2019-08-07 16:21:39:382
3.528,-8.541,2.4685,0.1948,-0.2089,-0.0073,0.0059,0.0462,0.0055,3038,2019-08-07 16:21:39:385
3.528,-8.541,2.4685,0.1948,-0.2089,-0.0073,-0.0069,-0.0763,-0.0329,3044,2019-08-07 16:21:39:391
3.5663,-8.6031,2.6994,0.1948,-0.2089,-0.0073,-0.0069,-0.0763,-0.0329,3048,2019-08-07 16:21:39:395
3.5663,-8.6031,2.6994,0.0877,-0.1405,-0.1073,-0.0069,-0.0763,-0.0329,3054,2019-08-07 16:21:39:401
3.7194,-8.4694,2.4402,0.0877,-0.1405,-0.1073,-0.0154,-0.1508,-0.0382,3059,2019-08-07 16:21:39:406
3.7194,-8.4694,2.4402,0.0877,-0.1405,-0.1073,-0.0154,-0.1508,-0.0382,3064,2019-08-07 16:21:39:411
3.9634,-8.5553,2.5533,-0.2367,-0.1713,-0.0644,-0.0176,-0.1572,-0.0382,3069,2019-08-07 16:21:39:416
3.9634,-8.5553,2.5533,-0.2367,-0.1713,-0.0644,-0.0176,-0.1572,-0.0382,3074,2019-08-07 16:21:39:421
3.9634,-8.5553,2.5533,-0.2367,-0.1713,-0.0644,-0.0165,-0.1572,-0.0382,3079,2019-08-07 16:21:39:426
4.1308,-8.541,2.5062,-0.3956,-0.184,-0.0246,-0.0165,-0.1572,-0.0382,3084,2019-08-07 16:21:39:431
4.1308,-8.541,2.5062,-0.3956,-0.184,-0.0246,-0.008,-0.1381,-0.035,3089,2019-08-07 16:21:39:436
4.1308,-8.541,2.5062,-0.3956,-0.184,-0.0246,-0.008,-0.1381,-0.035,3093,2019-08-07 16:21:39:440
4.1548,-8.4503,2.5533,-0.3956,-0.184,-0.0246,0.0027,-0.104,-0.0276,3099,2019-08-07 16:21:39:446
4.1548,-8.4503,2.5533,-0.3795,-0.3233,-0.068,0.0027,-0.104,-0.0276,3103,2019-08-07 16:21:39:450
4.1548,-8.4503,2.5533,-0.3795,-0.3233,-0.068,-0.0026,-0.0805,-0.0148,3109,2019-08-07 16:21:39:456
4.1835,-8.4169,2.4685,-0.3795,-0.3233,-0.068,-0.0026,-0.0805,-0.0148,3114,2019-08-07 16:21:39:461
4.1835,-8.4169,2.4685,-0.3795,-0.3233,-0.068,-0.0101,-0.0454,-0.0127,3119,2019-08-07 16:21:39:466
4.0926,-8.5506,2.4826,-0.3361,-0.1823,0.0153,-0.0101,-0.0454,-0.0127,3124,2019-08-07 16:21:39:471
4.0926,-8.5506,2.4826,-0.3361,-0.1823,0.0153,-0.0144,-0.0124,-0.0127,3129,2019-08-07 16:21:39:476
4.0926,-8.5506,2.4826,-0.3361,-0.1823,0.0153,-0.0144,-0.0124,-0.0127,3134,2019-08-07 16:21:39:481
3.949,-8.7129,2.5675,-0.1637,0.0624,-0.0444,-0.0058,-6.0E-4,-0.0137,3141,2019-08-07 16:21:39:488
3.949,-8.7129,2.5675,-0.1637,0.0624,-0.0444,-0.0058,-6.0E-4,-0.0137,3144,2019-08-07 16:21:39:491
3.8916,-8.7749,2.5345,-0.1637,0.0624,-0.0444,-0.0058,-6.0E-4,-0.0137,3148,2019-08-07 16:21:39:495
3.8916,-8.7749,2.5345,-0.1637,0.0624,-0.0444,0.0091,0.0121,-0.019,3154,2019-08-07 16:21:39:501
3.8916,-8.7749,2.5345,-0.1637,0.0624,-0.0444,0.0091,0.0121,-0.019,3159,2019-08-07 16:21:39:506
3.729,-8.7081,2.5627,0.0402,-0.0073,-0.0989,0.0197,4.0E-4,-0.0212,3164,2019-08-07 16:21:39:511
3.729,-8.7081,2.5627,0.0402,-0.0073,-0.0989,0.0197,4.0E-4,-0.0212,3169,2019-08-07 16:21:39:516
3.729,-8.6747,2.6476,0.0402,-0.0073,-0.0989,0.0282,-0.0251,-0.0244,3174,2019-08-07 16:21:39:521
3.729,-8.6747,2.6476,0.0402,-0.0073,-0.0989,0.0282,-0.0251,-0.0244,3179,2019-08-07 16:21:39:526
3.729,-8.6747,2.6476,0.0596,-0.0611,-0.1837,0.0368,-0.0656,-0.0297,3183,2019-08-07 16:21:39:530
3.8199,-8.6413,2.6664,0.0596,-0.0611,-0.1837,0.0368,-0.0656,-0.0297,3189,2019-08-07 16:21:39:536
3.8199,-8.6413,2.6664,0.0596,-0.0611,-0.1837,0.0357,-0.0997,-0.0297,3194,2019-08-07 16:21:39:541
3.8821,-8.541,2.6335,0.0596,-0.0611,-0.1837,0.0357,-0.0997,-0.0297,3199,2019-08-07 16:21:39:546
3.8821,-8.541,2.6335,-0.1453,-0.2088,-0.1489,0.0432,-0.0912,-0.0265,3204,2019-08-07 16:21:39:551
3.8821,-8.541,2.6335,-0.1453,-0.2088,-0.1489,0.0432,-0.0912,-0.0265,3209,2019-08-07 16:21:39:556
3.9778,-8.5649,2.6947,-0.1453,-0.2088,-0.1489,0.0389,-0.0667,-0.0276,3213,2019-08-07 16:21:39:560
3.9778,-8.5649,2.6947,-0.1453,-0.2088,-0.1489,0.0389,-0.0667,-0.0276,3219,2019-08-07 16:21:39:566
3.919,-8.474,2.6049,-0.1626,-0.2085,-0.1032,0.0197,-0.0656,-0.0169,3224,2019-08-07 16:21:39:571
3.919,-8.474,2.6049,-0.1626,-0.2085,-0.1032,0.0197,-0.0656,-0.0169,3229,2019-08-07 16:21:39:576
3.919,-8.474,2.6049,-0.1626,-0.2085,-0.1032,0.0016,-0.0496,-0.0191,3234,2019-08-07 16:21:39:581
3.9381,-8.5266,2.6237,-0.1626,-0.2085,-0.1032,0.0016,-0.0496,-0.0191,3239,2019-08-07 16:21:39:586
3.9381,-8.5266,2.6237,-0.1455,-0.0672,-0.2272,0.0016,-0.0496,-0.0191,3243,2019-08-07 16:21:39:590
3.9381,-8.5266,2.6237,-0.1455,-0.0672,-0.2272,-0.0037,-0.0326,-0.0191,3249,2019-08-07 16:21:39:596
3.962,-8.6316,2.6992,-0.1455,-0.0672,-0.2272,-0.0037,-0.0326,-0.0191,3253,2019-08-07 16:21:39:600
3.962,-8.6316,2.6992,-0.1455,-0.0672,-0.2272,-0.0037,-0.0454,-0.018,3259,2019-08-07 16:21:39:606
4.0625,-8.665,2.4587,-0.2536,-0.0317,0.0104,-0.0037,-0.0454,-0.018,3263,2019-08-07 16:21:39:610
4.0625,-8.665,2.4587,-0.2536,-0.0317,0.0104,-5.0E-4,-0.0166,-0.0212,3269,2019-08-07 16:21:39:616
4.0625,-8.665,2.4587,-0.2536,-0.0317,0.0104,-5.0E-4,-0.0166,-0.0212,3274,2019-08-07 16:21:39:621
3.9716,-8.6029,2.4635,-0.2536,-0.0317,0.0104,-0.0026,0.009,-0.0159,3279,2019-08-07 16:21:39:626
3.9716,-8.6029,2.4635,-0.1056,-0.1014,-0.0748,-0.0026,0.009,-0.0159,3284,2019-08-07 16:21:39:631
3.9716,-8.6029,2.4635,-0.1056,-0.1014,-0.0748,-0.0016,0.0132,-0.0031,3288,2019-08-07 16:21:39:635
3.9428,-8.5743,2.4964,-0.1056,-0.1014,-0.0748,-0.0016,0.0132,-0.0031,3294,2019-08-07 16:21:39:641
3.9428,-8.5743,2.4964,-0.1056,-0.1014,-0.0748,6.0E-4,-0.0028,0.0012,3298,2019-08-07 16:21:39:645
3.8328,-8.5934,2.5342,-0.0184,-0.1008,-0.0649,6.0E-4,-0.0028,0.0012,3304,2019-08-07 16:21:39:651
3.8328,-8.5934,2.5342,-0.0184,-0.1008,-0.0649,0.0048,-0.0326,0.0065,3309,2019-08-07 16:21:39:656
3.8328,-8.5934,2.5342,-0.0184,-0.1008,-0.0649,0.0048,-0.0326,0.0065,3314,2019-08-07 16:21:39:661
3.828,-8.5552,2.652,-0.0184,-0.1008,-0.0649,0.0176,-0.0518,0.0044,3319,2019-08-07 16:21:39:666
3.828,-8.5552,2.652,0.0314,-0.2242,-0.15,0.0176,-0.0518,0.0044,3323,2019-08-07 16:21:39:670
3.828,-8.5361,2.4917,0.0314,-0.2242,-0.15,0.024,-0.1242,0.0097,3329,2019-08-07 16:21:39:676
3.828,-8.5361,2.4917,0.0314,-0.2242,-0.15,0.024,-0.1242,0.0097,3334,2019-08-07 16:21:39:681
3.828,-8.5361,2.4917,0.0314,-0.2242,-0.15,0.024,-0.1242,0.0097,3338,2019-08-07 16:21:39:685
4.005,-8.5552,2.4446,-0.2499,-0.1466,-0.0323,0.0283,-0.1412,0.0065,3344,2019-08-07 16:21:39:691
4.005,-8.5552,2.4446,-0.2499,-0.1466,-0.0323,0.0283,-0.1412,0.0065,3348,2019-08-07 16:21:39:695
4.1963,-8.6602,2.3692,-0.2499,-0.1466,-0.0323,0.0378,-0.1114,-0.0031,3354,2019-08-07 16:21:39:701
4.1963,-8.6602,2.3692,-0.2499,-0.1466,-0.0323,0.0378,-0.1114,-0.0031,3358,2019-08-07 16:21:39:705
4.1963,-8.6602,2.3692,-0.4471,-0.0861,0.2158,0.04,-0.0368,-0.0137,3364,2019-08-07 16:21:39:711
4.1772,-8.5695,2.2419,-0.4471,-0.0861,0.2158,0.04,-0.0368,-0.0137,3369,2019-08-07 16:21:39:716
4.1772,-8.5695,2.2419,-0.4471,-0.0861,0.2158,0.0314,0.0569,-0.0137,3374,2019-08-07 16:21:39:721
4.1772,-8.5695,2.2419,-0.4471,-0.0861,0.2158,0.0314,0.0569,-0.0137,3379,2019-08-07 16:21:39:726
3.9236,-8.5074,2.3173,-0.0052,-0.1499,0.0164,0.0229,0.0878,-0.0073,3384,2019-08-07 16:21:39:731
3.9236,-8.5074,2.3173,-0.0052,-0.1499,0.0164,0.0229,0.0878,-0.0073,3388,2019-08-07 16:21:39:735
3.9236,-8.5074,2.3173,-0.0052,-0.1499,0.0164,0.0229,0.0878,-0.0073,3394,2019-08-07 16:21:39:741
3.6796,-8.622,2.619,-0.0052,-0.1499,0.0164,0.0176,0.0675,-0.0148,3398,2019-08-07 16:21:39:745
3.6796,-8.622,2.619,-0.0052,-0.1499,0.0164,0.0176,0.0675,-0.0148,3404,2019-08-07 16:21:39:751
3.0194,-8.4836,2.3409,0.6923,-0.2066,0.3032,-0.0953,-0.2382,-0.0212,3409,2019-08-07 16:21:39:756
3.0194,-8.4836,2.3409,0.6923,-0.2066,0.3032,-0.0953,-0.2382,-0.0212,3414,2019-08-07 16:21:39:761
3.0194,-8.4836,2.3409,0.6923,-0.2066,0.3032,-0.0687,-0.2904,-0.0276,3419,2019-08-07 16:21:39:766
3.6269,-8.622,3.0809,0.0151,-0.0325,-0.2642,-0.0687,-0.2904,-0.0276,3424,2019-08-07 16:21:39:771
3.6269,-8.622,3.0809,0.0151,-0.0325,-0.2642,0.0165,-0.398,-0.034,3429,2019-08-07 16:21:39:776
4.0814,-8.6936,2.1052,0.0151,-0.0325,-0.2642,0.0165,-0.398,-0.034,3434,2019-08-07 16:21:39:781
4.0814,-8.6936,2.1052,0.0151,-0.0325,-0.2642,0.0485,-0.3799,-0.0212,3438,2019-08-07 16:21:39:785
4.0814,-8.6936,2.1052,0.0151,-0.0325,-0.2642,0.0485,-0.3799,-0.0212,3444,2019-08-07 16:21:39:791
4.4689,-8.7032,1.8035,-0.595,0.0193,0.6088,0.0283,-0.2936,-0.0223,3449,2019-08-07 16:21:39:796
4.4689,-8.7032,1.8035,-0.595,0.0193,0.6088,0.0283,-0.2936,-0.0223,3454,2019-08-07 16:21:39:801
4.4402,-8.5695,2.2372,-0.595,0.0193,0.6088,0.0357,-0.137,-0.0105,3459,2019-08-07 16:21:39:806
4.4402,-8.5695,2.2372,-0.595,0.0193,0.6088,0.0357,-0.137,-0.0105,3463,2019-08-07 16:21:39:810
4.4402,-8.5695,2.2372,-0.4956,-0.0815,0.0764,0.0357,-0.137,-0.0105,3469,2019-08-07 16:21:39:816
4.4259,-8.6411,2.5341,-0.4956,-0.0815,0.0764,0.0964,0.1016,-0.0063,3473,2019-08-07 16:21:39:820
4.4259,-8.6411,2.5341,-0.4956,-0.0815,0.0764,0.0964,0.1016,-0.0063,3479,2019-08-07 16:21:39:826
4.4259,-8.6411,2.5341,-0.4956,-0.0815,0.0764,0.1689,0.3424,-0.0223,3484,2019-08-07 16:21:39:831
4.6842,-8.579,2.0015,-0.7945,-0.0916,0.4331,0.1689,0.3424,-0.0223,3488,2019-08-07 16:21:39:835
4.6842,-8.579,2.0015,-0.7945,-0.0916,0.4331,0.0634,0.3147,-0.0659,3494,2019-08-07 16:21:39:841
3.3876,-8.2496,2.7839,-0.7945,-0.0916,0.4331,0.0634,0.3147,-0.0659,3499,2019-08-07 16:21:39:846
3.3876,-8.2496,2.7839,-0.7945,-0.0916,0.4331,-0.0346,0.2998,-0.0233,3504,2019-08-07 16:21:39:851
3.3876,-8.2496,2.7839,0.4363,-0.2534,-0.7278,-0.0346,0.2998,-0.0233,3508,2019-08-07 16:21:39:855
3.4163,-8.5934,3.392,0.4363,-0.2534,-0.7278,-0.0453,0.1698,-0.0201,3514,2019-08-07 16:21:39:861
3.4163,-8.5934,3.392,0.4363,-0.2534,-0.7278,-0.0453,0.1698,-0.0201,3519,2019-08-07 16:21:39:866