ACCELEROMETER X (m/s²),ACCELEROMETER Y (m/s²),ACCELEROMETER Z (m/s²),LINEAR ACCELERATION X (m/s²),LINEAR ACCELERATION Y (m/s²),LINEAR ACCELERATION Z (m/s²),GYROSCOPE X (rad/s),GYROSCOPE Y (rad/s),GYROSCOPE Z (rad/s),Time since start in ms ,YYYY-MO-DD HH-MI-SS_SSS
4.0271,-8.6805,2.1173,-0.1228,0.0126,0.1695,0.0176,0.0281,-0.0222,4,2019-08-07 16:20:10:252
3.9697,-8.7426,2.1833,-0.1228,0.0126,0.1695,0.0176,0.0281,-0.0222,8,2019-08-07 16:20:10:256
3.9697,-8.7426,2.1833,-0.1228,0.0126,0.1695,0.0208,0.0398,-0.0264,14,2019-08-07 16:20:10:262
3.9697,-8.7426,2.1833,-0.1228,0.0126,0.1695,0.0208,0.0398,-0.0264,18,2019-08-07 16:20:10:266
3.8932,-8.7187,2.2398,0.0285,0.0203,0.0153,0.0229,0.0302,-0.0254,24,2019-08-07 16:20:10:272
3.8932,-8.7187,2.2398,0.0285,0.0203,0.0153,0.0229,0.0302,-0.0254,28,2019-08-07 16:20:10:276
3.9028,-8.6614,2.254,0.0285,0.0203,0.0153,0.024,0.0185,-0.0222,34,2019-08-07 16:20:10:282
3.9028,-8.6614,2.254,0.0285,0.0203,0.0153,0.024,0.0185,-0.0222,38,2019-08-07 16:20:10:286
3.9028,-8.6614,2.254,0.0417,-0.0293,-0.1296,0.0272,-0.0039,-0.0232,44,2019-08-07 16:20:10:292
3.8881,-8.6948,2.4047,0.0417,-0.0293,-0.1296,0.0272,-0.0039,-0.0232,49,2019-08-07 16:20:10:297
3.8881,-8.6948,2.4047,0.0417,-0.0293,-0.1296,0.0314,-0.0124,-0.0168,54,2019-08-07 16:20:10:302
3.8881,-8.6948,2.4047,0.0417,-0.0293,-0.1296,0.0314,-0.0124,-0.0168,59,2019-08-07 16:20:10:307
3.9359,-8.5994,2.4047,0.0417,-0.0293,-0.1296,0.0314,-0.0124,-0.0168,63,2019-08-07 16:20:10:311
3.9359,-8.5994,2.4047,-0.0787,-0.093,-0.0682,0.0101,-0.0262,-0.0137,69,2019-08-07 16:20:10:317
4.0125,-8.5803,2.4047,-0.0787,-0.093,-0.0682,0.0101,-0.0262,-0.0137,74,2019-08-07 16:20:10:322
4.0125,-8.5803,2.4047,-0.0787,-0.093,-0.0682,-0.0133,-0.0284,-0.0073,79,2019-08-07 16:20:10:327
4.0125,-8.5803,2.4047,-0.0787,-0.093,-0.0682,-0.0133,-0.0284,-0.0073,84,2019-08-07 16:20:10:332
4.0699,-8.5659,2.3105,-0.1653,-0.1442,-0.0468,-0.0229,-0.0049,0.0013,89,2019-08-07 16:20:10:337
4.0699,-8.5659,2.3105,-0.1653,-0.1442,-0.0468,-0.0229,-0.0049,0.0013,94,2019-08-07 16:20:10:342
4.1129,-8.671,2.301,-0.1653,-0.1442,-0.0468,-0.0229,-0.0049,0.0013,99,2019-08-07 16:20:10:347
4.1129,-8.671,2.301,-0.2886,0.0369,0.0253,-0.0208,0.0228,0.0066,104,2019-08-07 16:20:10:352
4.1129,-8.671,2.301,-0.2886,0.0369,0.0253,-0.0208,0.0228,0.0066,109,2019-08-07 16:20:10:357
4.1799,-8.733,2.2586,-0.2886,0.0369,0.0253,-0.0112,0.0675,0.0119,113,2019-08-07 16:20:10:361
4.1799,-8.733,2.2586,-0.2886,0.0369,0.0253,-0.0112,0.0675,0.0119,119,2019-08-07 16:20:10:367
4.1034,-8.7712,2.2256,-0.2886,0.0369,0.0253,0.0016,0.1059,0.0119,123,2019-08-07 16:20:10:371
4.1034,-8.7712,2.2256,-0.1492,0.0266,0.0581,0.0016,0.1059,0.0119,129,2019-08-07 16:20:10:377
4.1034,-8.7712,2.2256,-0.1492,0.0266,0.0581,0.0069,0.1208,0.0066,134,2019-08-07 16:20:10:382
3.9359,-8.7521,2.2869,-0.1492,0.0266,0.0581,0.0069,0.1208,0.0066,138,2019-08-07 16:20:10:386
3.9359,-8.7521,2.2869,-0.1492,0.0266,0.0581,5.0E-4,0.0963,0.0034,145,2019-08-07 16:20:10:393
3.845,-8.7139,2.3576,0.0552,-0.0119,-0.0128,5.0E-4,0.0963,0.0034,150,2019-08-07 16:20:10:398
3.845,-8.7139,2.3576,0.0552,-0.0119,-0.0128,0.008,0.0665,0.0045,153,2019-08-07 16:20:10:401
3.845,-8.7139,2.3576,0.0552,-0.0119,-0.0128,0.008,0.0665,0.0045,159,2019-08-07 16:20:10:407
3.8403,-8.6996,2.2728,0.0552,-0.0119,-0.0128,0.0069,0.0345,0.0023,164,2019-08-07 16:20:10:412
3.8403,-8.6996,2.2728,0.0706,-0.0071,0.0125,0.0069,0.0345,0.0023,169,2019-08-07 16:20:10:417
3.9168,-8.6662,2.2916,0.0706,-0.0071,0.0125,0.0069,0.0345,0.0023,174,2019-08-07 16:20:10:422
3.9168,-8.6662,2.2916,0.0706,-0.0071,0.0125,-5.0E-4,0.0068,-0.0019,179,2019-08-07 16:20:10:427
3.9168,-8.6662,2.2916,0.0706,-0.0071,0.0125,-5.0E-4,0.0068,-0.0019,184,2019-08-07 16:20:10:432
3.9838,-8.6519,2.2445,-0.0919,-0.0593,0.0369,0.0016,-0.0039,-0.0062,189,2019-08-07 16:20:10:437
3.9838,-8.6519,2.2445,-0.0919,-0.0593,0.0369,0.0016,-0.0039,-0.0062,194,2019-08-07 16:20:10:442
4.0269,-8.5898,2.2586,-0.1337,-0.1208,0.0228,0.0091,0.0121,-0.0115,199,2019-08-07 16:20:10:447
4.0269,-8.5898,2.2586,-0.1337,-0.1208,0.0228,0.0091,0.0121,-0.0115,204,2019-08-07 16:20:10:452
4.0269,-8.5898,2.2586,-0.1337,-0.1208,0.0228,0.0091,0.0121,-0.0115,209,2019-08-07 16:20:10:457
4.0556,-8.5277,2.1266,-0.1337,-0.1208,0.0228,0.0154,0.027,-0.003,214,2019-08-07 16:20:10:462
4.0556,-8.5277,2.1266,-0.2658,-0.1812,0.1439,0.0154,0.027,-0.003,219,2019-08-07 16:20:10:467
4.0556,-8.5277,2.1266,-0.2658,-0.1812,0.1439,0.0218,0.0707,-0.0051,223,2019-08-07 16:20:10:471
4.0412,-8.4943,2.1738,-0.2658,-0.1812,0.1439,0.0218,0.0707,-0.0051,229,2019-08-07 16:20:10:477
4.0412,-8.4943,2.1738,-0.2658,-0.1812,0.1439,0.0336,0.0973,-0.0051,234,2019-08-07 16:20:10:482
3.9455,-8.4561,2.2445,-0.0518,-0.2506,0.0508,0.0336,0.0973,-0.0051,239,2019-08-07 16:20:10:487
3.9455,-8.4561,2.2445,-0.0518,-0.2506,0.0508,0.0314,0.0931,-0.0041,244,2019-08-07 16:20:10:492
3.8499,-8.4275,2.2162,-0.0518,-0.2506,0.0508,0.0314,0.0931,-0.0041,249,2019-08-07 16:20:10:497
3.8499,-8.4275,2.2162,-0.0518,-0.2506,0.0508,0.024,0.0878,-0.0126,254,2019-08-07 16:20:10:502
3.8499,-8.4275,2.2162,0.1277,-0.296,-0.0168,0.024,0.0878,-0.0126,259,2019-08-07 16:20:10:507
3.7781,-8.437,2.3246,0.1277,-0.296,-0.0168,0.0112,0.0579,-0.0179,264,2019-08-07 16:20:10:512
3.7781,-8.437,2.3246,0.1277,-0.296,-0.0168,0.0112,0.0579,-0.0179,269,2019-08-07 16:20:10:517
3.7446,-8.5468,2.2822,0.1277,-0.296,-0.0168,0.0027,0.0228,-0.0168,274,2019-08-07 16:20:10:522
3.7446,-8.5468,2.2822,0.0952,-0.1366,0.0405,0.0027,0.0228,-0.0168,279,2019-08-07 16:20:10:527
3.7446,-8.5468,2.2822,0.0952,-0.1366,0.0405,-0.0059,-0.0071,-0.0243,283,2019-08-07 16:20:10:531
3.8259,-8.5707,2.2728,0.0952,-0.1366,0.0405,-0.0059,-0.0071,-0.0243,289,2019-08-07 16:20:10:537
3.8259,-8.5707,2.2728,0.0952,-0.1366,0.0405,-0.008,-0.0294,-0.0254,295,2019-08-07 16:20:10:543
3.9168,-8.6089,2.2351,-0.0196,-0.0922,0.0757,-0.008,-0.0294,-0.0254,298,2019-08-07 16:20:10:546
3.9168,-8.6089,2.2351,-0.0196,-0.0922,0.0757,-0.008,-0.0294,-0.0254,304,2019-08-07 16:20:10:552
3.9168,-8.6089,2.2351,-0.0196,-0.0922,0.0757,0.0027,-0.0252,-0.0232,308,2019-08-07 16:20:10:556
4.0652,-8.5373,2.1691,-0.0196,-0.0922,0.0757,0.0027,-0.0252,-0.0232,314,2019-08-07 16:20:10:562
4.0652,-8.5373,2.1691,-0.2232,-0.2183,0.1779,0.0133,-7.0E-4,-0.0275,319,2019-08-07 16:20:10:567
4.113,-8.4036,2.1455,-0.2232,-0.2183,0.1779,0.0133,-7.0E-4,-0.0275,324,2019-08-07 16:20:10:572
4.113,-8.4036,2.1455,-0.201,-0.2737,0.1046,0.0261,0.027,-0.0222,329,2019-08-07 16:20:10:577
4.113,-8.4036,2.1455,-0.201,-0.2737,0.1046,0.0261,0.027,-0.0222,334,2019-08-07 16:20:10:582
4.0843,-8.3702,2.2728,-0.201,-0.2737,0.1046,0.0314,0.0505,-0.019,339,2019-08-07 16:20:10:587
4.0843,-8.3702,2.2728,-0.201,-0.2737,0.1046,0.0314,0.0505,-0.019,345,2019-08-07 16:20:10:593
4.0078,-8.3416,2.2351,-0.097,-0.3507,0.0859,0.0378,0.0633,-0.02,350,2019-08-07 16:20:10:598
4.0078,-8.3416,2.2351,-0.097,-0.3507,0.0859,0.0378,0.0633,-0.02,353,2019-08-07 16:20:10:601
4.0078,-8.3416,2.2351,-0.097,-0.3507,0.0859,0.0186,0.0601,-0.0158,359,2019-08-07 16:20:10:607
3.9695,-8.332,2.1691,-0.097,-0.3507,0.0859,0.0186,0.0601,-0.0158,364,2019-08-07 16:20:10:612
3.9695,-8.332,2.1691,4.0E-4,-0.2381,0.1264,5.0E-4,0.0515,-0.0168,369,2019-08-07 16:20:10:617
3.8977,-8.4514,2.2445,4.0E-4,-0.2381,0.1264,5.0E-4,0.0515,-0.0168,373,2019-08-07 16:20:10:621
3.8977,-8.4514,2.2445,4.0E-4,-0.2381,0.1264,-0.0037,0.0441,-0.02,379,2019-08-07 16:20:10:627
3.8977,-8.4514,2.2445,4.0E-4,-0.2381,0.1264,-0.0037,0.0441,-0.02,384,2019-08-07 16:20:10:632
3.9695,-8.6996,2.1974,-0.0406,0.0451,0.1287,0.0027,0.0462,-0.0339,389,2019-08-07 16:20:10:637
3.9695,-8.6996,2.1974,-0.0406,0.0451,0.1287,0.0027,0.0462,-0.0339,393,2019-08-07 16:20:10:641
3.9982,-8.819,2.1502,-0.0406,0.0451,0.1287,0.0112,0.0409,-0.0541,399,2019-08-07 16:20:10:647
3.9982,-8.819,2.1502,-0.0406,0.0451,0.1287,0.0112,0.0409,-0.0541,404,2019-08-07 16:20:10:652
3.9982,-8.819,2.1502,-0.2005,0.2499,0.1743,0.0208,0.0334,-0.0765,409,2019-08-07 16:20:10:657
4.0556,-9.0004,2.1408,-0.2005,0.2499,0.1743,0.0208,0.0334,-0.0765,414,2019-08-07 16:20:10:662
4.0556,-9.0004,2.1408,-0.2005,0.2499,0.1743,0.0208,0.0334,-0.0765,418,2019-08-07 16:20:10:666
4.2613,-9.2104,2.1408,-0.2005,0.2499,0.1743,0.0378,0.043,-0.1127,424,2019-08-07 16:20:10:672
4.2613,-9.2104,2.1408,-0.2926,0.7087,0.172,0.0378,0.043,-0.1127,429,2019-08-07 16:20:10:677
4.2613,-9.2104,2.1408,-0.2926,0.7087,0.172,0.0549,0.0547,-0.1734,434,2019-08-07 16:20:10:682
4.1992,-9.6353,2.0842,-0.2926,0.7087,0.172,0.0549,0.0547,-0.1734,438,2019-08-07 16:20:10:686
4.1992,-9.6353,2.0842,-0.2926,0.7087,0.172,0.0559,0.0633,-0.2107,444,2019-08-07 16:20:10:692
4.1992,-9.6353,2.0842,-0.2926,0.7087,0.172,0.0559,0.0633,-0.2107,448,2019-08-07 16:20:10:696
4.0126,-10.0554,2.0654,-0.0427,1.3983,0.2865,0.0602,0.0696,-0.2427,454,2019-08-07 16:20:10:702
4.0126,-10.0554,2.0654,-0.0427,1.3983,0.2865,0.0602,0.0696,-0.2427,459,2019-08-07 16:20:10:707
3.7303,-10.4134,2.0937,-0.0427,1.3983,0.2865,0.0815,0.0771,-0.2565,463,2019-08-07 16:20:10:711
3.7303,-10.4134,2.0937,-0.0427,1.3983,0.2865,0.0815,0.0771,-0.2565,469,2019-08-07 16:20:10:717
3.3524,-10.7237,2.2539,0.456,2.0294,0.2074,0.1145,0.0931,-0.2437,475,2019-08-07 16:20:10:723
3.3524,-10.7237,2.2539,0.456,2.0294,0.2074,0.1145,0.0931,-0.2437,479,2019-08-07 16:20:10:727
3.3524,-10.7237,2.2539,0.456,2.0294,0.2074,0.1667,0.1229,-0.2161,484,2019-08-07 16:20:10:732
2.8548,-11.3157,2.5415,0.456,2.0294,0.2074,0.1667,0.1229,-0.2161,489,2019-08-07 16:20:10:737
2.8548,-11.3157,2.5415,1.2972,2.9131,-0.1709,0.2189,0.1687,-0.1702,494,2019-08-07 16:20:10:742
2.8548,-11.3157,2.5415,1.2972,2.9131,-0.1709,0.2189,0.1687,-0.1702,499,2019-08-07 16:20:10:747
2.3237,-12.3993,3.2438,1.2972,2.9131,-0.1709,0.2668,0.2156,-0.1127,504,2019-08-07 16:20:10:752
2.3237,-12.3993,3.2438,1.2972,2.9131,-0.1709,0.2668,0.2156,-0.1127,509,2019-08-07 16:20:10:757
1.697,-14.3279,3.9085,2.2355,5.2577,-1.3647,0.3169,0.287,-0.0211,514,2019-08-07 16:20:10:762
1.697,-14.3279,3.9085,2.2355,5.2577,-1.3647,0.3169,0.287,-0.0211,519,2019-08-07 16:20:10:767
1.697,-14.3279,3.9085,2.2355,5.2577,-1.3647,0.3169,0.287,-0.0211,524,2019-08-07 16:20:10:772
0.9602,-16.9106,4.5354,2.2355,5.2577,-1.3647,0.3883,0.4361,0.177,528,2019-08-07 16:20:10:776
0.9602,-16.9106,4.5354,3.3467,9.3831,-2.3658,0.3883,0.4361,0.177,534,2019-08-07 16:20:10:782
0.1804,-19.4455,5.5253,3.3467,9.3831,-2.3658,0.5726,0.6577,0.5126,538,2019-08-07 16:20:10:786
0.1804,-19.4455,5.5253,3.3467,9.3831,-2.3658,0.5726,0.6577,0.5126,544,2019-08-07 16:20:10:792
0.1804,-19.4455,5.5253,3.3467,9.3831,-2.3658,0.8847,0.9006,0.8897,549,2019-08-07 16:20:10:797
-0.2741,-21.1784,6.9536,4.0756,12.5535,-4.2341,0.8847,0.9006,0.8897,554,2019-08-07 16:20:10:802
-0.2741,-21.1784,6.9536,4.0756,12.5535,-4.2341,0.8847,0.9006,0.8897,559,2019-08-07 16:20:10:807
-0.0827,-22.1809,6.8452,4.0756,12.5535,-4.2341,1.2948,1.1658,1.3307,564,2019-08-07 16:20:10:812
-0.0827,-22.1809,6.8452,4.0756,12.5535,-4.2341,1.2948,1.1658,1.3307,569,2019-08-07 16:20:10:817
-0.0827,-22.1809,6.8452,3.436,15.0416,-2.8106,1.5697,1.6079,1.9368,573,2019-08-07 16:20:10:821
-0.0971,-25.7231,4.9172,3.436,15.0416,-2.8106,1.5697,1.6079,1.9368,579,2019-08-07 16:20:10:827
-0.0971,-25.7231,4.9172,3.436,15.0416,-2.8106,1.395,2.3184,2.4759,585,2019-08-07 16:20:10:833
0.2283,-32.2632,2.3152,3.436,15.0416,-2.8106,1.395,2.3184,2.4759,589,2019-08-07 16:20:10:837
0.2283,-32.2632,2.3152,2.3787,24.1683,1.3424,1.0008,3.4849,2.9968,593,2019-08-07 16:20:10:841
0.2283,-32.2632,2.3152,2.3787,24.1683,1.3424,1.0008,3.4849,2.9968,599,2019-08-07 16:20:10:847
1.5105,-31.9195,0.0526,2.3787,24.1683,1.3424,0.7686,4.6673,3.3281,604,2019-08-07 16:20:10:852
1.5105,-31.9195,0.0526,2.3787,24.1683,1.3424,0.7686,4.6673,3.3281,608,2019-08-07 16:20:10:856
1.5105,-31.9195,0.0526,1.7901,24.0494,7.0897,0.8602,7.0461,3.5571,614,2019-08-07 16:20:10:862
-0.1688,-33.0795,-4.5717,1.7901,24.0494,7.0897,0.8602,7.0461,3.5571,619,2019-08-07 16:20:10:867
-0.1688,-33.0795,-4.5717,1.7901,24.0494,7.0897,0.7558,9.7848,3.6178,623,2019-08-07 16:20:10:871
-4.91,-30.6544,-6.6787,1.7901,24.0494,7.0897,0.7558,9.7848,3.6178,629,2019-08-07 16:20:10:877
-4.91,-30.6544,-6.6787,7.9671,20.1223,10.6249,0.5161,12.0666,3.6413,634,2019-08-07 16:20:10:882
-4.91,-30.6544,-6.6787,7.9671,20.1223,10.6249,0.5161,12.0666,3.6413,639,2019-08-07 16:20:10:887
-11.0912,-28.4155,-9.4693,7.9671,20.1223,10.6249,0.1486,13.3993,3.5145,644,2019-08-07 16:20:10:892
-11.0912,-28.4155,-9.4693,7.9671,20.1223,10.6249,0.1486,13.3993,3.5145,649,2019-08-07 16:20:10:897
-19.344,-33.4185,-16.2949,18.0822,24.5328,20.2559,0.1486,13.3993,3.5145,654,2019-08-07 16:20:10:902
-19.344,-33.4185,-16.2949,18.0822,24.5328,20.2559,-0.4597,15.3785,2.5739,659,2019-08-07 16:20:10:907
-25.5109,-34.4066,-12.7878,18.0822,24.5328,20.2559,-0.0676,16.888,0.846,665,2019-08-07 16:20:10:913
-25.5109,-34.4066,-12.7878,18.0822,24.5328,20.2559,-0.0676,16.888,0.846,668,2019-08-07 16:20:10:916
-25.5109,-34.4066,-12.7878,18.6648,22.9601,-1.12,-0.0676,16.888,0.846,674,2019-08-07 16:20:10:922
-17.6408,-28.826,15.3678,18.6648,22.9601,-1.12,1.8679,14.6073,-1.2312,678,2019-08-07 16:20:10:926
-17.6408,-28.826,15.3678,18.6648,22.9601,-1.12,1.8679,14.6073,-1.2312,684,2019-08-07 16:20:10:932
-17.6408,-28.826,15.3678,18.6648,22.9601,-1.12,4.8358,6.7733,-2.7492,689,2019-08-07 16:20:10:937
-8.4025,-24.2289,8.1368,5.4289,15.4814,-4.8389,4.8358,6.7733,-2.7492,695,2019-08-07 16:20:10:943
-8.4025,-24.2289,8.1368,5.4289,15.4814,-4.8389,7.0781,0.4212,-4.0595,699,2019-08-07 16:20:10:947
-8.4025,-24.2289,8.1368,5.4289,15.4814,-4.8389,7.0781,0.4212,-4.0595,704,2019-08-07 16:20:10:952
-1.1735,-18.8965,16.1738,5.4289,15.4814,-4.8389,9.9757,1.0859,-6.1006,709,2019-08-07 16:20:10:957
-1.1735,-18.8965,16.1738,3.1807,-3.3708,19.9606,9.9757,1.0859,-6.1006,715,2019-08-07 16:20:10:963
-6.1443,5.2781,-13.2026,3.1807,-3.3708,19.9606,11.1347,7.3571,-6.2028,719,2019-08-07 16:20:10:967
-6.1443,5.2781,-13.2026,3.1807,-3.3708,19.9606,11.1347,7.3571,-6.2028,723,2019-08-07 16:20:10:971
-6.1443,5.2781,-13.2026,3.1807,-3.3708,19.9606,9.4015,-0.7293,-1.7681,729,2019-08-07 16:20:10:977
-28.7833,114.4745,-1.7905,19.2671,-121.2221,10.3748,9.4015,-0.7293,-1.7681,733,2019-08-07 16:20:10:981
-28.7833,114.4745,-1.7905,19.2671,-121.2221,10.3748,7.6896,-6.2985,2.4855,739,2019-08-07 16:20:10:987
0.7259,100.2246,-0.9373,19.2671,-121.2221,10.3748,7.6896,-6.2985,2.4855,744,2019-08-07 16:20:10:992
0.7259,100.2246,-0.9373,19.2671,-121.2221,10.3748,7.7961,-8.9585,3.0703,750,2019-08-07 16:20:10:998
0.7259,100.2246,-0.9373,-41.3622,-50.6765,29.8286,7.7961,-8.9585,3.0703,754,2019-08-07 16:20:11:002
49.5299,42.132,-20.9521,-41.3622,-50.6765,29.8286,7.7961,-8.9585,3.0703,759,2019-08-07 16:20:11:007
49.5299,42.132,-20.9521,-41.3622,-50.6765,29.8286,1.8999,-9.6147,1.597,764,2019-08-07 16:20:11:012
49.5299,42.132,-20.9521,-41.3622,-50.6765,29.8286,1.8999,-9.6147,1.597,769,2019-08-07 16:20:11:017
45.1858,34.7374,-20.1508,-27.471,-49.7601,28.9474,-0.3808,2.3632,-0.7252,774,2019-08-07 16:20:11:022
45.1858,34.7374,-20.1508,-27.471,-49.7601,28.9474,-0.3808,2.3632,-0.7252,778,2019-08-07 16:20:11:026
2.6444,43.5021,-17.9212,-27.471,-49.7601,28.9474,-4.8113,6.3813,0.4391,785,2019-08-07 16:20:11:033
2.6444,43.5021,-17.9212,-27.471,-49.7601,28.9474,-4.8113,6.3813,0.4391,789,2019-08-07 16:20:11:037
2.6444,43.5021,-17.9212,-27.471,-49.7601,28.9474,-6.4656,7.6245,1.3254,794,2019-08-07 16:20:11:042
-10.3688,25.9822,10.0412,8.322,-36.9762,1.9042,-6.4656,7.6245,1.3254,799,2019-08-07 16:20:11:047
-10.3688,25.9822,10.0412,8.322,-36.9762,1.9042,-6.4656,7.6245,1.3254,803,2019-08-07 16:20:11:051
-10.3688,25.9822,10.0412,8.322,-36.9762,1.9042,-7.484,3.8439,1.1869,808,2019-08-07 16:20:11:056
-14.7511,17.6232,18.1206,8.322,-36.9762,1.9042,-7.484,3.8439,1.1869,814,2019-08-07 16:20:11:062
-14.7511,17.6232,18.1206,12.1223,-24.1971,-11.5371,-5.9319,-0.0763,1.0772,819,2019-08-07 16:20:11:067
-14.7511,17.6232,18.1206,12.1223,-24.1971,-11.5371,-5.9319,-0.0763,1.0772,824,2019-08-07 16:20:11:072
-9.7516,14.019,17.5031,12.1223,-24.1971,-11.5371,-3.6118,-4.1339,0.4061,828,2019-08-07 16:20:11:076
-9.7516,14.019,17.5031,12.1223,-24.1971,-11.5371,-3.6118,-4.1339,0.4061,834,2019-08-07 16:20:11:082
-8.589,12.5343,1.3206,6.1589,-20.9002,-0.5452,-3.8824,-8.5324,0.225,838,2019-08-07 16:20:11:086
-8.589,12.5343,1.3206,6.1589,-20.9002,-0.5452,-3.8824,-8.5324,0.225,844,2019-08-07 16:20:11:092
-8.589,12.5343,1.3206,6.1589,-20.9002,-0.5452,-5.2661,-10.0738,0.928,849,2019-08-07 16:20:11:097
-6.5796,7.7748,-12.6888,6.1589,-20.9002,-0.5452,-5.2661,-10.0738,0.928,854,2019-08-07 16:20:11:102
-6.5796,7.7748,-12.6888,2.1308,-12.8534,17.0892,-5.2661,-10.0738,0.928,859,2019-08-07 16:20:11:107
1.8981,-0.4743,-4.7366,2.1308,-12.8534,17.0892,-6.5114,-9.4559,1.7664,863,2019-08-07 16:20:11:111
1.8981,-0.4743,-4.7366,2.1308,-12.8534,17.0892,-6.5114,-9.4559,1.7664,869,2019-08-07 16:20:11:117
1.8981,-0.4743,-4.7366,2.1308,-12.8534,17.0892,-6.3388,-10.2996,1.4841,873,2019-08-07 16:20:11:121
4.8499,-6.5657,5.8364,-5.5309,-2.2936,-1.6789,-6.3388,-10.2996,1.4841,879,2019-08-07 16:20:11:127
4.8499,-6.5657,5.8364,-5.5309,-2.2936,-1.6789,-4.9679,-10.2538,0.7672,884,2019-08-07 16:20:11:132
4.8499,-6.5657,5.8364,-5.5309,-2.2936,-1.6789,-4.9679,-10.2538,0.7672,888,2019-08-07 16:20:11:136
5.3284,-15.4498,-4.5292,-5.5309,-2.2936,-1.6789,-4.0358,-8.168,0.0481,894,2019-08-07 16:20:11:142
5.3284,-15.4498,-4.5292,-5.4455,10.4595,6.7686,-4.0358,-8.168,0.0481,899,2019-08-07 16:20:11:147
2.9506,-29.0838,-0.1265,-5.4455,10.4595,6.7686,-4.0358,-8.168,0.0481,903,2019-08-07 16:20:11:151
2.9506,-29.0838,-0.1265,-5.4455,10.4595,6.7686,-3.208,-6.6799,-0.6219,909,2019-08-07 16:20:11:157
2.9506,-29.0838,-0.1265,-5.4455,10.4595,6.7686,-3.208,-6.6799,-0.6219,914,2019-08-07 16:20:11:162
3.4195,-47.1862,-7.7723,-2.9359,37.7559,10.4319,-3.126,-5.7669,-0.3481,919,2019-08-07 16:20:11:167
3.4195,-47.1862,-7.7723,-2.9359,37.7559,10.4319,-3.126,-5.7669,-0.3481,923,2019-08-07 16:20:11:171
0.8647,-26.7876,2.9893,-2.9359,37.7559,10.4319,-2.4624,-4.6196,-0.0318,929,2019-08-07 16:20:11:177
0.8647,-26.7876,2.9893,-2.9359,37.7559,10.4319,-2.4624,-4.6196,-0.0318,934,2019-08-07 16:20:11:182
0.8647,-26.7876,2.9893,-0.9599,13.6426,-3.3377,-2.4624,-4.6196,-0.0318,938,2019-08-07 16:20:11:186
1.8933,-25.5321,6.4917,-0.9599,13.6426,-3.3377,0.7526,-3.0399,-0.1447,944,2019-08-07 16:20:11:192
1.8933,-25.5321,6.4917,-0.9599,13.6426,-3.3377,3.1399,-1.9618,-0.5015,949,2019-08-07 16:20:11:197
1.8933,-25.5321,6.4917,-0.9599,13.6426,-3.3377,3.1399,-1.9618,-0.5015,953,2019-08-07 16:20:11:201
-1.9102,-30.4444,3.6162,3.4321,21.0114,-0.836,3.1399,-1.9618,-0.5015,959,2019-08-07 16:20:11:207
-1.9102,-30.4444,3.6162,3.4321,21.0114,-0.836,3.8728,-0.594,-0.4834,964,2019-08-07 16:20:11:212
-5.1682,-24.2289,-3.8033,3.4321,21.0114,-0.836,3.8728,-0.594,-0.4834,968,2019-08-07 16:20:11:216
-5.1682,-24.2289,-3.8033,3.4321,21.0114,-0.836,1.2373,-0.0539,-0.5718,974,2019-08-07 16:20:11:222
-5.1682,-24.2289,-3.8033,12.4491,12.9825,4.6457,1.2373,-0.0539,-0.5718,978,2019-08-07 16:20:11:226
-13.8708,-22.3337,0.4627,12.4491,12.9825,4.6457,-0.6418,0.1836,-0.6059,984,2019-08-07 16:20:11:232
-13.8708,-22.3337,0.4627,12.4491,12.9825,4.6457,-0.6418,0.1836,-0.6059,988,2019-08-07 16:20:11:236
-20.2721,-24.4341,3.2439,12.4491,12.9825,4.6457,-1.2352,-1.3802,-0.2597,994,2019-08-07 16:20:11:242
-20.2721,-24.4341,3.2439,20.0551,16.5124,1.737,-1.2352,-1.3802,-0.2597,999,2019-08-07 16:20:11:247
-20.2721,-24.4341,3.2439,20.0551,16.5124,1.737,-0.9412,-1.9778,-0.6645,1003,2019-08-07 16:20:11:251
-9.5123,-27.2316,4.757,20.0551,16.5124,1.737,-0.9412,-1.9778,-0.6645,1009,2019-08-07 16:20:11:257
-9.5123,-27.2316,4.757,20.0551,16.5124,1.737,-0.2828,-3.5512,-2.2827,1014,2019-08-07 16:20:11:262
-4.618,-23.6369,3.7624,6.0363,14.2826,-1.1697,-0.2828,-3.5512,-2.2827,1019,2019-08-07 16:20:11:267
-4.618,-23.6369,3.7624,6.0363,14.2826,-1.1697,0.1625,-5.2332,-3.2286,1024,2019-08-07 16:20:11:272
-4.618,-23.6369,3.7624,6.0363,14.2826,-1.1697,0.1625,-5.2332,-3.2286,1029,2019-08-07 16:20:11:277
-6.3595,-16.3234,-3.5723,6.0363,14.2826,-1.1697,0.8378,-2.8012,-2.9197,1033,2019-08-07 16:20:11:281
-6.3595,-16.3234,-3.5723,4.3583,6.6774,1.6685,0.8378,-2.8012,-2.9197,1039,2019-08-07 16:20:11:287
-6.3595,-16.3234,-3.5723,4.3583,6.6774,1.6685,0.8527,-2.5647,-2.2816,1044,2019-08-07 16:20:11:292
1.0397,-13.9936,6.6657,4.3583,6.6774,1.6685,0.8527,-2.5647,-2.2816,1049,2019-08-07 16:20:11:297
1.0397,-13.9936,6.6657,4.3583,6.6774,1.6685,0.8527,-2.5647,-2.2816,1054,2019-08-07 16:20:11:302
1.7621,-11.473,4.304,0.933,2.3975,-1.7336,1.3545,-2.8577,-1.6456,1059,2019-08-07 16:20:11:307
1.7621,-11.473,4.304,0.933,2.3975,-1.7336,1.3545,-2.8577,-1.6456,1064,2019-08-07 16:20:11:312
1.7621,-11.473,4.304,0.933,2.3975,-1.7336,1.6794,-2.2185,-1.0406,1069,2019-08-07 16:20:11:317
5.3837,-10.8142,3.3188,0.933,2.3975,-1.7336,1.6794,-2.2185,-1.0406,1074,2019-08-07 16:20:11:322
5.3837,-10.8142,3.3188,-3.0698,1.4667,0.3662,1.5707,-1.7317,-0.623,1079,2019-08-07 16:20:11:327
5.3837,-10.8142,3.3188,-3.0698,1.4667,0.3662,1.5707,-1.7317,-0.623,1084,2019-08-07 16:20:11:332
6.7042,-9.6637,1.8811,-3.0698,1.4667,0.3662,1.0392,-1.034,-0.297,1089,2019-08-07 16:20:11:337
6.7042,-9.6637,1.8811,-3.0698,1.4667,0.3662,1.0392,-1.034,-0.297,1094,2019-08-07 16:20:11:342
6.8525,-8.8379,1.5417,-3.7266,-0.0146,1.3043,0.4256,-0.3458,0.0044,1099,2019-08-07 16:20:11:347
6.8525,-8.8379,1.5417,-3.7266,-0.0146,1.3043,0.4256,-0.3458,0.0044,1104,2019-08-07 16:20:11:352
6.8525,-8.8379,1.5417,-3.7266,-0.0146,1.3043,-0.0431,0.2912,0.2271,1109,2019-08-07 16:20:11:357
6.4506,-8.9429,1.4616,-3.7266,-0.0146,1.3043,-0.0431,0.2912,0.2271,1114,2019-08-07 16:20:11:362
6.4506,-8.9429,1.4616,-2.468,0.4214,1.4521,-0.27,0.8143,0.3176,1119,2019-08-07 16:20:11:367
6.4506,-8.9429,1.4616,-2.468,0.4214,1.4521,-0.27,0.8143,0.3176,1124,2019-08-07 16:20:11:372
4.8574,-9.4585,1.273,-2.468,0.4214,1.4521,-0.3169,1.1956,0.3539,1129,2019-08-07 16:20:11:377
4.8574,-9.4585,1.273,-2.468,0.4214,1.4521,-0.3169,1.1956,0.3539,1134,2019-08-07 16:20:11:382
3.2738,-9.5587,2.1451,-2.468,0.4214,1.4521,-0.2636,1.3618,0.3794,1139,2019-08-07 16:20:11:387
3.2738,-9.5587,2.1451,-0.0495,0.6008,0.3865,-0.2636,1.3618,0.3794,1144,2019-08-07 16:20:11:392
2.5418,-9.0718,2.9936,-0.0495,0.6008,0.3865,-0.1102,1.2851,0.3869,1149,2019-08-07 16:20:11:397
2.5418,-9.0718,2.9936,-0.0495,0.6008,0.3865,-0.1102,1.2851,0.3869,1154,2019-08-07 16:20:11:402
2.5418,-9.0718,2.9936,-0.0495,0.6008,0.3865,-0.1102,1.2851,0.3869,1159,2019-08-07 16:20:11:407
1.805,-7.9833,2.9653,0.8737,-0.7348,0.0115,0.1092,1.071,0.3017,1164,2019-08-07 16:20:11:412
1.805,-7.9833,2.9653,0.8737,-0.7348,0.0115,0.1092,1.071,0.3017,1169,2019-08-07 16:20:11:417
1.805,-7.9833,2.9653,0.8737,-0.7348,0.0115,0.2232,0.8281,0.2292,1174,2019-08-07 16:20:11:422
1.1926,-6.9761,3.0313,0.8737,-0.7348,0.0115,0.2232,0.8281,0.2292,1179,2019-08-07 16:20:11:427
1.1926,-6.9761,3.0313,1.6216,-2.1646,0.1955,0.2445,0.5213,0.2111,1184,2019-08-07 16:20:11:432
1.1926,-6.9761,3.0313,1.6216,-2.1646,0.1955,0.2445,0.5213,0.2111,1189,2019-08-07 16:20:11:437
1.3074,-6.809,2.9511,1.6216,-2.1646,0.1955,0.1561,0.2199,0.2154,1194,2019-08-07 16:20:11:442
1.3074,-6.809,2.9511,1.6216,-2.1646,0.1955,0.1561,0.2199,0.2154,1199,2019-08-07 16:20:11:447
1.8958,-7.2959,3.3518,0.895,-1.7551,-0.2433,0.0559,-0.0433,0.1983,1204,2019-08-07 16:20:11:452
1.8958,-7.2959,3.3518,0.895,-1.7551,-0.2433,0.0559,-0.0433,0.1983,1209,2019-08-07 16:20:11:457
1.8958,-7.2959,3.3518,0.895,-1.7551,-0.2433,0.0069,-0.1317,0.1589,1213,2019-08-07 16:20:11:461
2.4316,-7.7112,3.1444,0.895,-1.7551,-0.2433,0.0069,-0.1317,0.1589,1219,2019-08-07 16:20:11:467
2.4316,-7.7112,3.1444,0.0047,-1.1591,0.0214,-0.024,-0.1445,0.0737,1224,2019-08-07 16:20:11:472
2.7713,-7.9356,2.805,0.0047,-1.1591,0.0214,-0.024,-0.1445,0.0737,1229,2019-08-07 16:20:11:477
2.7713,-7.9356,2.805,0.0047,-1.1591,0.0214,-0.0272,-0.088,-0.0222,1234,2019-08-07 16:20:11:482
2.7713,-7.9356,2.805,0.0047,-1.1591,0.0214,-0.0272,-0.088,-0.0222,1239,2019-08-07 16:20:11:487
3.0105,-7.8544,3.0171,-0.3657,-1.0868,0.0319,-0.0133,-0.0039,-0.1436,1243,2019-08-07 16:20:11:491
3.0105,-7.8544,3.0171,-0.3657,-1.0868,0.0319,-0.0133,-0.0039,-0.1436,1249,2019-08-07 16:20:11:497
2.9196,-7.5823,3.2952,-0.3657,-1.0868,0.0319,0.0229,0.1123,-0.2842,1254,2019-08-07 16:20:11:502
2.9196,-7.5823,3.2952,-0.3657,-1.0868,0.0319,0.0229,0.1123,-0.2842,1259,2019-08-07 16:20:11:507
2.9196,-7.5823,3.2952,-0.2018,-1.4901,-0.1698,0.0144,0.1794,-0.3769,1263,2019-08-07 16:20:11:511
2.8143,-7.3389,3.1208,-0.2018,-1.4901,-0.1698,0.0144,0.1794,-0.3769,1269,2019-08-07 16:20:11:517
2.8143,-7.3389,3.1208,-0.2018,-1.4901,-0.1698,-0.0378,0.2284,-0.4494,1273,2019-08-07 16:20:11:521
2.5033,-7.463,3.1632,-0.2018,-1.4901,-0.1698,-0.0378,0.2284,-0.4494,1279,2019-08-07 16:20:11:527
2.5033,-7.463,3.1632,0.3286,-1.3652,-0.0864,-0.1081,0.174,-0.4813,1284,2019-08-07 16:20:11:532
2.5033,-7.463,3.1632,0.3286,-1.3652,-0.0864,-0.1081,0.174,-0.4813,1288,2019-08-07 16:20:11:536
2.2688,-8.0549,2.8332,0.5242,-0.8348,0.2341,-0.1603,0.108,-0.4834,1294,2019-08-07 16:20:11:542
2.2688,-8.0549,2.8332,0.5242,-0.8348,0.2341,-0.1603,0.108,-0.4834,1299,2019-08-07 16:20:11:547
2.2688,-8.0549,2.8332,0.5242,-0.8348,0.2341,-0.1603,0.108,-0.4834,1303,2019-08-07 16:20:11:551
2.1205,-9.129,2.8427,0.5242,-0.8348,0.2341,-0.2178,-0.0859,-0.4941,1309,2019-08-07 16:20:11:557
2.1205,-9.129,2.8427,0.7526,0.5206,0.0261,-0.2178,-0.0859,-0.4941,1313,2019-08-07 16:20:11:561
2.1205,-9.129,2.8427,0.7526,0.5206,0.0261,-0.2093,-0.2648,-0.4984,1318,2019-08-07 16:20:11:566
2.2066,-9.7258,3.0972,0.7526,0.5206,0.0261,-0.2093,-0.2648,-0.4984,1324,2019-08-07 16:20:11:572
2.2066,-9.7258,3.0972,0.7526,0.5206,0.0261,-0.1614,-0.4875,-0.4941,1329,2019-08-07 16:20:11:577
2.5415,-9.8737,2.9746,0.3329,1.0376,0.0582,-0.1614,-0.4875,-0.4941,1334,2019-08-07 16:20:11:582
2.5415,-9.8737,2.9746,0.3329,1.0376,0.0582,-0.1614,-0.4875,-0.4941,1338,2019-08-07 16:20:11:586
3.0294,-9.721,2.7719,0.015,0.872,0.1714,-0.0996,-0.529,-0.5101,1344,2019-08-07 16:20:11:592
3.0294,-9.721,2.7719,0.015,0.872,0.1714,-0.0996,-0.529,-0.5101,1349,2019-08-07 16:20:11:597
3.0294,-9.721,2.7719,0.015,0.872,0.1714,-0.0666,-0.496,-0.5037,1354,2019-08-07 16:20:11:602
3.3882,-9.4871,2.9558,0.015,0.872,0.1714,-0.0666,-0.496,-0.5037,1359,2019-08-07 16:20:11:607
3.3882,-9.4871,2.9558,-0.2839,0.6315,-0.103,-0.0421,-0.4193,-0.4685,1364,2019-08-07 16:20:11:612
3.3882,-9.4871,2.9558,-0.2839,0.6315,-0.103,-0.0421,-0.4193,-0.4685,1369,2019-08-07 16:20:11:617
3.5939,-9.4584,2.9699,-0.2839,0.6315,-0.103,-0.0527,-0.267,-0.3865,1373,2019-08-07 16:20:11:621
3.5939,-9.4584,2.9699,-0.2839,0.6315,-0.103,-0.0527,-0.267,-0.3865,1379,2019-08-07 16:20:11:627
3.5939,-9.5014,2.9841,-0.3443,0.7015,-0.1137,-0.0964,-0.1647,-0.3055,1383,2019-08-07 16:20:11:631
3.5939,-9.5014,2.9841,-0.3443,0.7015,-0.1137,-0.0964,-0.1647,-0.3055,1389,2019-08-07 16:20:11:637
3.5939,-9.5014,2.9841,-0.3443,0.7015,-0.1137,-0.1305,-0.1114,-0.1969,1394,2019-08-07 16:20:11:642
3.7183,-9.5252,2.8756,-0.3443,0.7015,-0.1137,-0.1305,-0.1114,-0.1969,1399,2019-08-07 16:20:11:647
3.7183,-9.5252,2.8756,-0.6564,0.7613,-0.0881,-0.122,-0.0795,-0.1095,1403,2019-08-07 16:20:11:651
3.7183,-9.5252,2.8756,-0.6564,0.7613,-0.0881,-0.122,-0.0795,-0.1095,1409,2019-08-07 16:20:11:657
4.0579,-9.5921,2.8285,-0.6564,0.7613,-0.0881,-0.0826,-0.023,-0.0414,1414,2019-08-07 16:20:11:662
4.0579,-9.5921,2.8285,-0.6564,0.7613,-0.0881,-0.0826,-0.023,-0.0414,1419,2019-08-07 16:20:11:667
4.3402,-9.1767,2.4844,-1.0289,0.3833,0.3346,-0.0474,0.0515,0.0172,1424,2019-08-07 16:20:11:672
4.3402,-9.1767,2.4844,-1.0289,0.3833,0.3346,-0.0474,0.0515,0.0172,1429,2019-08-07 16:20:11:677
4.3402,-9.1767,2.4844,-1.0289,0.3833,0.3346,-0.0048,0.1453,0.0545,1434,2019-08-07 16:20:11:682
4.2301,-8.6469,2.3571,-1.0289,0.3833,0.3346,-0.0048,0.1453,0.0545,1439,2019-08-07 16:20:11:687
4.2301,-8.6469,2.3571,-0.6694,-0.421,0.3992,0.024,0.2486,0.0524,1444,2019-08-07 16:20:11:692
3.8952,-8.2793,2.4797,-0.6694,-0.421,0.3992,0.024,0.2486,0.0524,1450,2019-08-07 16:20:11:698
3.8952,-8.2793,2.4797,-0.6694,-0.421,0.3992,0.024,0.2486,0.0524,1453,2019-08-07 16:20:11:701
3.8952,-8.2793,2.4797,-0.6694,-0.421,0.3992,0.0506,0.2561,0.0098,1459,2019-08-07 16:20:11:707
3.2397,-7.9928,3.0736,-0.6694,-0.8241,-0.334,0.0506,0.2561,0.0098,1463,2019-08-07 16:20:11:711
3.2397,-7.9928,3.0736,0.0715,-0.8241,-0.334,0.0549,0.1421,-0.0275,1469,2019-08-07 16:20:11:717
3.2397,-7.9928,3.0736,0.0715,-0.8241,-0.334,0.0549,0.1421,-0.0275,1473,2019-08-07 16:20:11:721
3.0483,-8.031,3.1961,0.0715,-0.8241,-0.334,0.0421,0.0015,-0.0573,1479,2019-08-07 16:20:11:727
3.0483,-8.031,3.1961,0.2057,-0.7024,-0.3836,0.0421,0.0015,-0.0573,1484,2019-08-07 16:20:11:732
3.1823,-8.1742,3.1254,0.2057,-0.7024,-0.3836,0.0101,-0.1722,-0.0904,1489,2019-08-07 16:20:11:737
3.1823,-8.1742,3.1254,0.2057,-0.7024,-0.3836,0.0101,-0.1722,-0.0904,1494,2019-08-07 16:20:11:742
3.1823,-8.1742,3.1254,0.2057,-0.7024,-0.3836,-0.0154,-0.2265,-0.101,1499,2019-08-07 16:20:11:747
3.5794,-8.4177,2.8049,0.2057,-0.7024,-0.3836,-0.0154,-0.2265,-0.101,1503,2019-08-07 16:20:11:751
3.5794,-8.4177,2.8049,-0.3582,-0.3225,0.1192,-0.0154,-0.2265,-0.101,1509,2019-08-07 16:20:11:757
3.5794,-8.4177,2.8049,-0.3582,-0.3225,0.1192,-0.0229,-0.1796,-0.1255,1514,2019-08-07 16:20:11:762
3.7707,-8.4845,2.4796,-0.3582,-0.3225,0.1192,-0.0229,-0.1796,-0.1255,1519,2019-08-07 16:20:11:767
3.7707,-8.4845,2.4796,-0.3582,-0.3225,0.1192,-0.0186,-0.0901,-0.1287,1523,2019-08-07 16:20:11:771
3.8424,-8.537,2.4325,-0.4475,-0.2332,0.3768,-0.0186,-0.0901,-0.1287,1529,2019-08-07 16:20:11:777
3.8424,-8.537,2.4325,-0.4475,-0.2332,0.3768,0.0037,0.0494,-0.1372,1534,2019-08-07 16:20:11:782
3.8424,-8.537,2.4325,-0.4475,-0.2332,0.3768,0.0037,0.0494,-0.1372,1539,2019-08-07 16:20:11:787
3.5601,-8.4988,2.6682,-0.4475,-0.2332,0.3768,0.024,0.1165,-0.1532,1544,2019-08-07 16:20:11:792
3.5601,-8.4988,2.6682,-0.0252,-0.3322,0.1068,0.024,0.1165,-0.1532,1550,2019-08-07 16:20:11:798
3.3018,-8.4272,2.8379,-0.0252,-0.3322,0.1068,0.024,0.1165,-0.1532,1553,2019-08-07 16:20:11:801
3.3018,-8.4272,2.8379,-0.0252,-0.3322,0.1068,0.0133,0.0643,-0.1649,1559,2019-08-07 16:20:11:807
3.3018,-8.4272,2.8379,-0.0252,-0.3322,0.1068,0.0133,0.0643,-0.1649,1564,2019-08-07 16:20:11:812
3.2443,-8.6277,3.2951,0.1628,-0.1189,-0.4447,0.0123,-0.0145,-0.1852,1569,2019-08-07 16:20:11:817
3.2443,-8.6277,3.2951,0.1628,-0.1189,-0.4447,0.0123,-0.0145,-0.1852,1574,2019-08-07 16:20:11:822
3.3161,-8.7184,3.1678,0.1628,-0.1189,-0.4447,-0.0027,-0.1051,-0.1926,1579,2019-08-07 16:20:11:827
3.3161,-8.7184,3.1678,0.1628,-0.1189,-0.4447,-0.0027,-0.1051,-0.1926,1584,2019-08-07 16:20:11:832
3.3161,-8.7184,3.1678,0.0139,0.0186,-0.1661,-0.041,-0.153,-0.1788,1589,2019-08-07 16:20:11:837
3.45,-8.7089,2.9934,0.0139,0.0186,-0.1661,-0.041,-0.153,-0.1788,1594,2019-08-07 16:20:11:842
3.45,-8.7089,2.9934,0.0139,0.0186,-0.1661,-0.0815,-0.1775,-0.1564,1599,2019-08-07 16:20:11:847
3.6509,-8.7757,2.7671,0.0139,0.0186,-0.1661,-0.0815,-0.1775,-0.1564,1604,2019-08-07 16:20:11:852
3.6509,-8.7757,2.7671,-0.1917,0.0687,0.0728,-0.0815,-0.1775,-0.1564,1608,2019-08-07 16:20:11:856
3.6509,-8.7757,2.7671,-0.1917,0.0687,0.0728,-0.122,-0.1477,-0.1213,1614,2019-08-07 16:20:11:862
3.7944,-8.7948,2.7106,-0.1917,0.0687,0.0728,-0.122,-0.1477,-0.1213,1619,2019-08-07 16:20:11:867
3.7944,-8.7948,2.7106,-0.1917,0.0687,0.0728,-0.1411,-0.088,-0.0946,1624,2019-08-07 16:20:11:872
3.8662,-8.8187,2.6917,-0.3547,0.0934,0.0965,-0.1411,-0.088,-0.0946,1629,2019-08-07 16:20:11:877
3.8662,-8.8187,2.6917,-0.3547,0.0934,0.0965,-0.1369,-0.0252,-0.0797,1634,2019-08-07 16:20:11:882
3.8662,-8.8187,2.6917,-0.3547,0.0934,0.0965,-0.1369,-0.0252,-0.0797,1639,2019-08-07 16:20:11:887
3.8949,-8.6755,2.6116,-0.3547,0.0934,0.0965,-0.123,0.0175,-0.0659,1643,2019-08-07 16:20:11:891
3.8949,-8.6755,2.6116,-0.3525,-0.0893,0.1092,-0.123,0.0175,-0.0659,1649,2019-08-07 16:20:11:897
3.8949,-8.6755,2.6116,-0.3525,-0.0893,0.1092,-0.0857,0.0345,-0.0563,1654,2019-08-07 16:20:11:902
3.9331,-8.6802,2.8567,-0.3525,-0.0893,0.1092,-0.0857,0.0345,-0.0563,1659,2019-08-07 16:20:11:907
3.9331,-8.6802,2.8567,-0.3525,-0.0893,0.1092,-0.0857,0.0345,-0.0563,1664,2019-08-07 16:20:11:912
3.8565,-8.5131,3.1961,-0.351,-0.1408,-0.4106,-0.0517,0.0356,-0.0595,1669,2019-08-07 16:20:11:917
3.8565,-8.5131,3.1961,-0.351,-0.1408,-0.4106,-0.0367,0.0153,-0.0478,1674,2019-08-07 16:20:11:922
3.8565,-8.5131,3.1961,-0.351,-0.1408,-0.4106,-0.0367,0.0153,-0.0478,1679,2019-08-07 16:20:11:927
3.823,-8.389,3.1065,-0.351,-0.1408,-0.4106,-0.0367,0.0153,-0.0478,1684,2019-08-07 16:20:11:932
3.823,-8.389,3.1065,-0.3987,-0.3342,-0.0479,-0.0538,-0.0507,-0.0051,1688,2019-08-07 16:20:11:936
3.9953,-8.475,2.7247,-0.3987,-0.3342,-0.0479,-0.0538,-0.0507,-0.0051,1694,2019-08-07 16:20:11:942
3.9953,-8.475,2.7247,-0.3987,-0.3342,-0.0479,-0.073,-0.0656,0.0226,1699,2019-08-07 16:20:11:947
3.9953,-8.475,2.7247,-0.3987,-0.3342,-0.0479,-0.073,-0.0656,0.0226,1704,2019-08-07 16:20:11:952
3.9378,-8.728,2.6493,-0.3987,-0.3342,-0.0479,-0.073,-0.0656,0.0226,1709,2019-08-07 16:20:11:957
3.9378,-8.728,2.6493,-0.4057,0.0771,0.1197,-0.0517,-0.0315,0.0343,1713,2019-08-07 16:20:11:961
3.8134,-8.9141,2.6492,-0.4057,0.0771,0.1197,-0.0517,-0.0315,0.0343,1719,2019-08-07 16:20:11:967
3.8134,-8.9141,2.6492,-0.4057,0.0771,0.1197,-0.0101,0.0079,0.0268,1724,2019-08-07 16:20:11:972
3.8134,-8.9141,2.6492,-0.0938,0.1549,0.1189,-0.0101,0.0079,0.0268,1728,2019-08-07 16:20:11:976
3.6077,-8.8187,2.6398,-0.0938,0.1549,0.1189,0.0272,0.0302,0.0108,1734,2019-08-07 16:20:11:982
3.6077,-8.8187,2.6398,-0.0938,0.1549,0.1189,0.0272,0.0302,0.0108,1739,2019-08-07 16:20:11:987
3.4163,-8.6898,2.4654,-0.0938,0.1549,0.1189,0.0506,0.059,-0.0158,1744,2019-08-07 16:20:11:992
3.4163,-8.6898,2.4654,0.1476,-0.0676,0.1376,0.0506,0.059,-0.0158,1749,2019-08-07 16:20:11:997
3.4163,-8.6898,2.4654,0.1476,-0.0676,0.1376,0.0506,0.059,-0.0158,1754,2019-08-07 16:20:12:002
3.2584,-8.5847,2.7105,0.1476,-0.0676,0.1376,0.0495,0.0803,-0.0627,1759,2019-08-07 16:20:12:007
3.2584,-8.5847,2.7105,0.2638,-0.1888,0.0508,0.0495,0.0803,-0.0627,1764,2019-08-07 16:20:12:012
3.1674,-8.5561,2.8802,0.2638,-0.1888,0.0508,0.0336,0.027,-0.0989,1770,2019-08-07 16:20:12:018
3.1674,-8.5561,2.8802,0.2638,-0.1888,0.0508,0.0336,0.027,-0.0989,1773,2019-08-07 16:20:12:021
3.1674,-8.5561,2.8802,0.3434,-0.1185,-0.1373,0.0187,-0.0177,-0.1255,1779,2019-08-07 16:20:12:027
3.2296,-8.6134,2.8849,0.3434,-0.1185,-0.1373,0.0187,-0.0177,-0.1255,1784,2019-08-07 16:20:12:032
3.2296,-8.6134,2.8849,0.3434,-0.1185,-0.1373,0.0187,-0.0177,-0.1255,1788,2019-08-07 16:20:12:036
3.244,-8.5513,3.0122,0.3434,-0.1185,-0.1373,-5.0E-4,-0.0816,-0.1639,1794,2019-08-07 16:20:12:042
3.244,-8.5513,3.0122,0.3334,-0.1504,-0.2424,-5.0E-4,-0.0816,-0.1639,1799,2019-08-07 16:20:12:047
3.244,-8.5513,3.0122,0.3334,-0.1504,-0.2424,-0.0325,-0.1413,-0.1543,1804,2019-08-07 16:20:12:052
3.4688,-8.6181,2.8331,0.3334,-0.1504,-0.2424,-0.0325,-0.1413,-0.1543,1809,2019-08-07 16:20:12:057
3.4688,-8.6181,2.8331,0.3334,-0.1504,-0.2424,-0.0634,-0.1338,-0.1394,1814,2019-08-07 16:20:12:062
3.7271,-8.7184,2.6822,-0.1067,0.0204,0.0515,-0.0634,-0.1338,-0.1394,1819,2019-08-07 16:20:12:067
3.7271,-8.7184,2.6822,-0.1067,0.0204,0.0515,-0.0634,-0.1338,-0.1394,1823,2019-08-07 16:20:12:071
3.7271,-8.7184,2.6822,-0.1067,0.0204,0.0515,-0.0879,-0.0891,-0.1234,1829,2019-08-07 16:20:12:077
3.8228,-8.7518,2.6634,-0.1067,0.0204,0.0515,-0.0879,-0.0891,-0.1234,1834,2019-08-07 16:20:12:082
3.8228,-8.7518,2.6634,-0.3018,0.1674,0.1295,-0.0836,-0.007,-0.0946,1839,2019-08-07 16:20:12:087
3.9424,-8.8091,2.6351,-0.3018,0.1674,0.1295,-0.0836,-0.007,-0.0946,1844,2019-08-07 16:20:12:092
3.9424,-8.8091,2.6351,-0.3018,0.1674,0.1295,-0.074,0.0526,-0.0723,1849,2019-08-07 16:20:12:097
3.9424,-8.8091,2.6351,-0.3018,0.1674,0.1295,-0.074,0.0526,-0.0723,1854,2019-08-07 16:20:12:102
3.9136,-8.5847,2.6256,-0.3018,0.1674,0.1295,-0.074,0.0526,-0.0723,1858,2019-08-07 16:20:12:106
3.9136,-8.5847,2.6256,-0.2091,-0.1506,0.1435,-0.058,0.0974,-0.0382,1864,2019-08-07 16:20:12:112
3.9136,-8.5847,2.6256,-0.2091,-0.1506,0.1435,-0.058,0.0974,-0.0382,1869,2019-08-07 16:20:12:117
3.9088,-8.3556,2.701,-0.2091,-0.1506,0.1435,-0.0549,0.091,-0.0051,1873,2019-08-07 16:20:12:121
3.9088,-8.3556,2.701,-0.2091,-0.1506,0.1435,-0.0549,0.091,-0.0051,1879,2019-08-07 16:20:12:127
3.9088,-8.3365,2.6398,-0.248,-0.3382,0.0363,-0.0602,0.043,0.0364,1884,2019-08-07 16:20:12:132
3.9088,-8.3365,2.6398,-0.248,-0.3382,0.0363,-0.0602,0.043,0.0364,1889,2019-08-07 16:20:12:137
3.9088,-8.3365,2.6398,-0.248,-0.3382,0.0363,-0.0644,-0.0262,0.079,1894,2019-08-07 16:20:12:142
3.9806,-8.5083,2.7576,-0.248,-0.3382,0.0363,-0.0644,-0.0262,0.079,1898,2019-08-07 16:20:12:146
3.9806,-8.5083,2.7576,-0.4768,-0.1163,-0.1308,-0.0527,-0.1008,0.1216,1904,2019-08-07 16:20:12:152
3.9806,-8.5083,2.7576,-0.4768,-0.1163,-0.1308,-0.0527,-0.1008,0.1216,1909,2019-08-07 16:20:12:157
4.2628,-8.6659,2.7906,-0.6645,-0.0401,-0.101,-0.0346,-0.1125,0.1397,1914,2019-08-07 16:20:12:162
4.2628,-8.6659,2.7906,-0.6645,-0.0401,-0.101,-0.0346,-0.1125,0.1397,1919,2019-08-07 16:20:12:167
4.4541,-8.5895,2.602,-0.6645,-0.0401,-0.101,-0.0346,-0.1125,0.1397,1924,2019-08-07 16:20:12:172
4.4541,-8.5895,2.602,-0.6645,-0.0401,-0.101,-0.0186,-0.0262,0.1504,1929,2019-08-07 16:20:12:177
4.4541,-8.5895,2.602,-0.7571,-0.1932,0.2184,-0.0186,-0.0262,0.1504,1934,2019-08-07 16:20:12:182
4.3537,-8.5036,2.4889,-0.7571,-0.1932,0.2184,-0.025,0.0952,0.1525,1938,2019-08-07 16:20:12:186
4.3537,-8.5036,2.4889,-0.7571,-0.1932,0.2184,-0.025,0.0952,0.1525,1944,2019-08-07 16:20:12:192
4.1431,-8.4988,2.6115,-0.7571,-0.1932,0.2184,-0.0304,0.1932,0.1248,1949,2019-08-07 16:20:12:197
4.1431,-8.4988,2.6115,-0.444,-0.2656,-0.0197,-0.0304,0.1932,0.1248,1954,2019-08-07 16:20:12:202
4.1431,-8.4988,2.6115,-0.444,-0.2656,-0.0197,-0.0304,0.1932,0.1248,1959,2019-08-07 16:20:12:207
3.8895,-8.4797,2.7859,-0.444,-0.2656,-0.0197,-0.0304,0.2603,0.0811,1964,2019-08-07 16:20:12:212
3.8895,-8.4797,2.7859,-0.444,-0.2656,-0.0197,-0.0304,0.2603,0.0811,1969,2019-08-07 16:20:12:217
3.4733,-8.4749,3.0121,0.0517,-0.2285,-0.3248,-0.0229,0.2752,0.0151,1974,2019-08-07 16:20:12:222
3.4733,-8.4749,3.0121,0.0517,-0.2285,-0.3248,-0.0229,0.2752,0.0151,1979,2019-08-07 16:20:12:227
3.4733,-8.4749,3.0121,0.0517,-0.2285,-0.3248,-0.0176,0.2316,-0.0211,1984,2019-08-07 16:20:12:232
3.2962,-8.4892,3.1017,0.0517,-0.2285,-0.3248,-0.0176,0.2316,-0.0211,1989,2019-08-07 16:20:12:237
3.2962,-8.4892,3.1017,0.2848,-0.2756,-0.459,-0.0186,0.1538,-0.0573,1993,2019-08-07 16:20:12:241
3.2771,-8.3985,3.2007,0.2848,-0.2756,-0.459,-0.0186,0.1538,-0.0573,1999,2019-08-07 16:20:12:247
3.2771,-8.3985,3.2007,0.2848,-0.2756,-0.459,-0.0208,0.0143,-0.0872,2004,2019-08-07 16:20:12:252
3.2771,-8.3985,3.2007,0.2848,-0.2756,-0.459,-0.0208,0.0143,-0.0872,2009,2019-08-07 16:20:12:257
3.4206,-8.494,3.1441,0.1506,-0.232,-0.435,-0.0272,-0.0837,-0.1063,2014,2019-08-07 16:20:12:262
3.4206,-8.494,3.1441,0.1506,-0.232,-0.435,-0.0272,-0.0837,-0.1063,2019,2019-08-07 16:20:12:267
3.4206,-8.494,3.1441,0.1506,-0.232,-0.435,-0.0272,-0.0837,-0.1063,2024,2019-08-07 16:20:12:272
3.6311,-8.5322,3.0262,0.1506,-0.232,-0.435,-0.0474,-0.1477,-0.1159,2028,2019-08-07 16:20:12:276
3.6311,-8.5322,3.0262,-0.1576,-0.2107,-0.2451,-0.0474,-0.1477,-0.1159,2035,2019-08-07 16:20:12:283
3.8882,-8.5607,2.8091,-0.1576,-0.2107,-0.2451,-0.073,-0.1551,-0.0978,2038,2019-08-07 16:20:12:286
3.8882,-8.5607,2.8091,-0.4004,-0.1369,0.0735,-0.073,-0.1551,-0.0978,2044,2019-08-07 16:20:12:292
3.8882,-8.5607,2.8091,-0.4004,-0.1369,0.0735,-0.0772,-0.0742,-0.0893,2049,2019-08-07 16:20:12:297
4.0651,-8.6609,2.5216,-0.4004,-0.1369,0.0735,-0.0772,-0.0742,-0.0893,2054,2019-08-07 16:20:12:302
4.0651,-8.6609,2.5216,-0.4004,-0.1369,0.0735,-0.0772,-0.0742,-0.0893,2059,2019-08-07 16:20:12:307
3.9216,-8.6562,2.5546,-0.2939,-0.0621,0.0235,-0.0687,0.0633,-0.0829,2064,2019-08-07 16:20:12:312
3.9216,-8.6562,2.5546,-0.2939,-0.0621,0.0235,-0.0687,0.0633,-0.0829,2069,2019-08-07 16:20:12:317
3.9216,-8.6562,2.5546,-0.2939,-0.0621,0.0235,-0.0517,0.1613,-0.0765,2074,2019-08-07 16:20:12:322
3.6632,-8.6371,2.6441,-0.2939,-0.0621,0.0235,-0.0517,0.1613,-0.0765,2078,2019-08-07 16:20:12:326
3.6632,-8.6371,2.6441,0.0716,-0.1209,-0.0692,-0.0399,0.1826,-0.0787,2084,2019-08-07 16:20:12:332
3.6632,-8.6371,2.6441,0.0716,-0.1209,-0.0692,-0.0399,0.1826,-0.0787,2089,2019-08-07 16:20:12:337
3.5005,-8.532,2.9788,0.0716,-0.1209,-0.0692,-0.0282,0.1378,-0.0744,2094,2019-08-07 16:20:12:342
3.5005,-8.532,2.9788,0.0716,-0.1209,-0.0692,-0.0282,0.1378,-0.0744,2100,2019-08-07 16:20:12:348
3.5052,-8.47,3.0259,0.1386,-0.2359,-0.3489,-0.0272,0.0505,-0.0669,2103,2019-08-07 16:20:12:351
3.5052,-8.47,3.0259,0.1386,-0.2359,-0.3489,-0.0272,0.0505,-0.0669,2109,2019-08-07 16:20:12:357
3.5052,-8.47,3.0259,0.1386,-0.2359,-0.3489,-0.0378,-0.0486,-0.0606,2114,2019-08-07 16:20:12:362
3.687,-8.4318,2.9646,0.1386,-0.2359,-0.3489,-0.0378,-0.0486,-0.0606,2119,2019-08-07 16:20:12:367
3.687,-8.4318,2.9646,-0.14,-0.2323,-0.2938,-0.0378,-0.0486,-0.0606,2124,2019-08-07 16:20:12:372
3.8735,-8.5273,2.8185,-0.14,-0.2323,-0.2938,-0.0602,-0.1445,-0.0435,2128,2019-08-07 16:20:12:376
3.8735,-8.5273,2.8185,-0.14,-0.2323,-0.2938,-0.0602,-0.1445,-0.0435,2134,2019-08-07 16:20:12:382
3.8735,-8.5273,2.8185,-0.14,-0.2323,-0.2938,-0.0921,-0.1807,-0.0094,2139,2019-08-07 16:20:12:387
4.0027,-8.6752,2.3801,-0.325,0.0147,0.2741,-0.0921,-0.1807,-0.0094,2144,2019-08-07 16:20:12:392
4.0027,-8.6752,2.3801,-0.325,0.0147,0.2741,-0.0996,-0.154,0.0268,2149,2019-08-07 16:20:12:397
4.0983,-8.9283,2.3943,-0.325,0.0147,0.2741,-0.0996,-0.154,0.0268,2154,2019-08-07 16:20:12:402
4.0983,-8.9283,2.3943,-0.325,0.0147,0.2741,-0.0996,-0.154,0.0268,2159,2019-08-07 16:20:12:407
4.0983,-8.9283,2.3943,-0.4563,0.3893,0.1332,-0.0687,-0.1114,0.063,2164,2019-08-07 16:20:12:412
4.1557,-9.1144,2.4178,-0.4563,0.3893,0.1332,-0.0687,-0.1114,0.063,2169,2019-08-07 16:20:12:417
4.1557,-9.1144,2.4178,-0.4563,0.3893,0.1332,-0.0112,-0.0124,0.0769,2174,2019-08-07 16:20:12:422
4.1557,-9.1144,2.4178,-0.4563,0.3893,0.1332,-0.0112,-0.0124,0.0769,2179,2019-08-07 16:20:12:427
4.0265,-9.0046,2.3895,-0.2563,0.1162,0.1995,0.0165,0.0835,0.0588,2184,2019-08-07 16:20:12:432
4.0265,-9.0046,2.3895,-0.2563,0.1162,0.1995,0.0165,0.0835,0.0588,2188,2019-08-07 16:20:12:436
3.7729,-8.6943,2.4178,-0.2563,0.1162,0.1995,0.0229,0.1282,0.046,2194,2019-08-07 16:20:12:442
3.7729,-8.6943,2.4178,-0.0384,-0.0188,0.1814,0.0229,0.1282,0.046,2199,2019-08-07 16:20:12:447
3.7729,-8.6943,2.4178,-0.0384,-0.0188,0.1814,0.0176,0.1368,0.0343,2204,2019-08-07 16:20:12:452
3.5623,-8.5511,2.6252,-0.0384,-0.0188,0.1814,0.0176,0.1368,0.0343,2209,2019-08-07 16:20:12:457
3.5623,-8.5511,2.6252,-0.0384,-0.0188,0.1814,0.0176,0.1368,0.0343,2213,2019-08-07 16:20:12:461
3.5623,-8.5511,2.6252,0.1204,-0.1446,-0.0696,0.0037,0.1006,0.0204,2219,2019-08-07 16:20:12:467
3.4905,-8.575,2.743,0.1204,-0.1446,-0.0696,0.0037,0.1006,0.0204,2224,2019-08-07 16:20:12:472
3.4905,-8.575,2.743,0.1213,-0.1454,-0.1277,-0.0112,0.0249,0.0129,2228,2019-08-07 16:20:12:476
3.567,-8.4938,2.6817,0.1213,-0.1454,-0.1277,-0.0112,0.0249,0.0129,2234,2019-08-07 16:20:12:482
3.567,-8.4938,2.6817,0.1213,-0.1454,-0.1277,-0.0442,-0.0742,0.0119,2239,2019-08-07 16:20:12:487
3.567,-8.4938,2.6817,0.1213,-0.1454,-0.1277,-0.0442,-0.0742,0.0119,2244,2019-08-07 16:20:12:492
3.7823,-8.5081,2.5827,-0.1411,-0.2144,0.0431,-0.0634,-0.1263,0.0151,2249,2019-08-07 16:20:12:497
3.7823,-8.5081,2.5827,-0.1411,-0.2144,0.0431,-0.0634,-0.1263,0.0151,2254,2019-08-07 16:20:12:502
3.9497,-8.3792,2.4508,-0.1411,-0.2144,0.0431,-0.074,-0.1498,0.0183,2259,2019-08-07 16:20:12:507
3.9497,-8.3792,2.4508,-0.3585,-0.3615,0.2602,-0.074,-0.1498,0.0183,2264,2019-08-07 16:20:12:512
3.9497,-8.3792,2.4508,-0.3585,-0.3615,0.2602,-0.074,-0.1498,0.0183,2269,2019-08-07 16:20:12:517
4.0549,-8.4461,2.3188,-0.3585,-0.3615,0.2602,-0.0751,-0.1253,0.0353,2274,2019-08-07 16:20:12:522
4.0549,-8.4461,2.3188,-0.3585,-0.3615,0.2602,-0.0751,-0.1253,0.0353,2279,2019-08-07 16:20:12:527
4.031,-8.6131,2.1915,-0.3585,-0.3615,0.2602,-0.0644,-0.0837,0.0449,2284,2019-08-07 16:20:12:532
4.031,-8.6131,2.1915,-0.3847,-0.1096,0.3361,-0.0644,-0.0837,0.0449,2289,2019-08-07 16:20:12:537
4.0166,-8.68,2.2716,-0.3847,-0.1096,0.3361,-0.0357,-0.023,0.0449,2294,2019-08-07 16:20:12:542
4.0166,-8.68,2.2716,-0.3575,-0.0025,0.2962,-0.0357,-0.023,0.0449,2299,2019-08-07 16:20:12:547
4.0166,-8.68,2.2716,-0.3575,-0.0025,0.2962,-0.0357,-0.023,0.0449,2304,2019-08-07 16:20:12:552
4.0166,-8.68,2.2716,-0.3575,-0.0025,0.2962,-0.0037,0.0366,0.0247,2308,2019-08-07 16:20:12:556
3.7773,-8.8089,2.5827,-0.3575,-0.0025,0.2962,-0.0037,0.0366,0.0247,2314,2019-08-07 16:20:12:562
3.7773,-8.8089,2.5827,0.0578,0.0142,-0.015,0.0197,0.0473,0.014,2319,2019-08-07 16:20:12:567
3.4759,-8.68,2.644,0.0578,0.0142,-0.015,0.0197,0.0473,0.014,2323,2019-08-07 16:20:12:571
3.4759,-8.68,2.644,0.0578,0.0142,-0.015,0.0229,0.0239,0.0012,2329,2019-08-07 16:20:12:577
3.4759,-8.68,2.644,0.0578,0.0142,-0.015,0.0229,0.0239,0.0012,2334,2019-08-07 16:20:12:582
3.3897,-8.5654,2.7147,0.2514,-0.1713,-0.136,0.0165,-0.0358,-0.0147,2339,2019-08-07 16:20:12:587
3.3897,-8.5654,2.7147,0.2514,-0.1713,-0.136,0.0165,-0.0358,-0.0147,2343,2019-08-07 16:20:12:591
3.471,-8.4317,2.7854,0.2514,-0.1713,-0.136,0.0187,-0.1082,-0.0243,2349,2019-08-07 16:20:12:597
3.471,-8.4317,2.7854,0.2514,-0.1713,-0.136,0.0187,-0.1082,-0.0243,2355,2019-08-07 16:20:12:603
3.471,-8.4317,2.7854,0.0498,-0.2922,-0.0999,0.0293,-0.1551,-0.0435,2359,2019-08-07 16:20:12:607
3.6815,-8.3792,2.7288,0.0498,-0.2922,-0.0999,0.0293,-0.1551,-0.0435,2364,2019-08-07 16:20:12:612
3.6815,-8.3792,2.7288,0.0498,-0.2922,-0.0999,0.0421,-0.1636,-0.0552,2369,2019-08-07 16:20:12:617
3.6815,-8.3792,2.7288,0.0498,-0.2922,-0.0999,0.0421,-0.1636,-0.0552,2374,2019-08-07 16:20:12:622
3.8345,-8.2885,2.7382,-0.189,-0.4474,-0.1366,0.0432,-0.1892,-0.0478,2379,2019-08-07 16:20:12:627
3.8345,-8.2885,2.7382,-0.189,-0.4474,-0.1366,0.0432,-0.1892,-0.0478,2384,2019-08-07 16:20:12:632
4.155,-8.3649,2.4554,-0.189,-0.4474,-0.1366,0.0314,-0.1935,-0.019,2389,2019-08-07 16:20:12:637
4.155,-8.3649,2.4554,-0.189,-0.4474,-0.1366,0.0314,-0.1935,-0.019,2394,2019-08-07 16:20:12:642
4.155,-8.3649,2.4554,-0.5633,-0.2275,0.0764,0.0016,-0.1615,-0.0116,2400,2019-08-07 16:20:12:648
4.2555,-8.5176,2.5968,-0.5633,-0.2275,0.0764,0.0016,-0.1615,-0.0116,2404,2019-08-07 16:20:12:652
4.2555,-8.5176,2.5968,-0.5633,-0.2275,0.0764,0.0016,-0.1615,-0.0116,2409,2019-08-07 16:20:12:657
4.2555,-8.5176,2.5968,-0.5561,-0.1594,-0.0379,-0.0176,-0.1157,0.0012,2415,2019-08-07 16:20:12:663
4.1741,-8.6847,2.5308,-0.5561,-0.1594,-0.0379,-0.0176,-0.1157,0.0012,2419,2019-08-07 16:20:12:667
4.1741,-8.6847,2.5308,-0.5561,-0.1594,-0.0379,-0.0176,-0.1157,0.0012,2424,2019-08-07 16:20:12:672
4.0592,-8.7993,2.6345,-0.3573,0.0791,-0.0868,-0.0314,-0.055,0.014,2428,2019-08-07 16:20:12:676
4.0592,-8.7993,2.6345,-0.3573,0.0791,-0.0868,-0.0314,-0.055,0.014,2434,2019-08-07 16:20:12:682
4.0592,-8.7993,2.6345,-0.3573,0.0791,-0.0868,-0.0293,-0.0049,0.03,2438,2019-08-07 16:20:12:686
3.8008,-8.7659,2.724,-0.3573,0.0791,-0.0868,-0.0293,-0.0049,0.03,2444,2019-08-07 16:20:12:692
3.8008,-8.7659,2.724,-0.0831,0.0524,-0.1153,-0.0165,0.0228,0.0332,2450,2019-08-07 16:20:12:698
3.8008,-8.7659,2.724,-0.0831,0.0524,-0.1153,-0.0165,0.0228,0.0332,2454,2019-08-07 16:20:12:702
3.5807,-8.7706,2.7287,-0.0831,0.0524,-0.1153,5.0E-4,0.0185,0.0225,2459,2019-08-07 16:20:12:707
3.5807,-8.7706,2.7287,-0.0831,0.0524,-0.1153,5.0E-4,0.0185,0.0225,2464,2019-08-07 16:20:12:712
3.5424,-8.742,2.7429,0.1497,0.0169,-0.1976,5.0E-4,0.0185,0.0225,2469,2019-08-07 16:20:12:717
3.5424,-8.742,2.7429,0.1497,0.0169,-0.1976,0.0229,0.0036,0.0151,2474,2019-08-07 16:20:12:722
3.5424,-8.742,2.7429,0.1497,0.0169,-0.1976,0.0389,-0.0081,-9.0E-4,2479,2019-08-07 16:20:12:727
3.6094,-8.7372,2.7334,0.1497,0.0169,-0.1976,0.0389,-0.0081,-9.0E-4,2484,2019-08-07 16:20:12:732
3.6094,-8.7372,2.7334,0.0528,-0.0913,-0.1246,0.0389,-0.0081,-9.0E-4,2489,2019-08-07 16:20:12:737
3.6811,-8.5749,2.6816,0.0528,-0.0913,-0.1246,0.0517,-0.039,-0.0062,2494,2019-08-07 16:20:12:742
3.6811,-8.5749,2.6816,0.0528,-0.0913,-0.1246,0.0517,-0.039,-0.0062,2499,2019-08-07 16:20:12:747
3.6811,-8.5749,2.6816,0.0528,-0.0913,-0.1246,0.0453,-0.0731,0.0023,2504,2019-08-07 16:20:12:752
3.8485,-8.5319,2.7287,-0.2156,-0.1739,-0.0626,0.0453,-0.0731,0.0023,2509,2019-08-07 16:20:12:757
3.8485,-8.5319,2.7287,-0.2156,-0.1739,-0.0626,0.0219,-0.0997,0.0087,2514,2019-08-07 16:20:12:762
3.9776,-8.6083,2.5967,-0.2156,-0.1739,-0.0626,0.0219,-0.0997,0.0087,2519,2019-08-07 16:20:12:767
3.9776,-8.6083,2.5967,-0.2156,-0.1739,-0.0626,0.0219,-0.0997,0.0087,2524,2019-08-07 16:20:12:772
3.9776,-8.6083,2.5967,-0.3784,-0.0923,0.0502,-5.0E-4,-0.1018,0.0236,2528,2019-08-07 16:20:12:776
4.0876,-8.656,2.4977,-0.3784,-0.0923,0.0502,-5.0E-4,-0.1018,0.0236,2534,2019-08-07 16:20:12:782
4.0876,-8.656,2.4977,-0.3784,-0.0923,0.0502,-0.0101,-0.105,0.0406,2539,2019-08-07 16:20:12:787
4.0876,-8.656,2.4977,-0.3784,-0.0923,0.0502,-0.0101,-0.105,0.0406,2543,2019-08-07 16:20:12:791
4.145,-8.7563,2.6438,-0.4827,0.0725,0.0221,-0.0016,-0.0976,0.0534,2549,2019-08-07 16:20:12:797
4.145,-8.7563,2.6438,-0.4827,0.0725,0.0221,-0.0016,-0.0976,0.0534,2554,2019-08-07 16:20:12:802
4.145,-8.7563,2.6438,-0.4827,0.0725,0.0221,-0.0016,-0.0976,0.0534,2558,2019-08-07 16:20:12:806
4.1163,-8.7658,2.5354,-0.4827,0.0725,0.0221,0.0144,-0.0571,0.0641,2564,2019-08-07 16:20:12:812
4.1163,-8.7658,2.5354,-0.3018,-0.0833,-0.0035,0.0304,-0.0166,0.0673,2569,2019-08-07 16:20:12:817
3.944,-8.6656,2.526,-0.3018,-0.0833,-0.0035,0.0304,-0.0166,0.0673,2574,2019-08-07 16:20:12:822
3.944,-8.6656,2.526,-0.3018,-0.0833,-0.0035,0.0304,-0.0166,0.0673,2579,2019-08-07 16:20:12:827
3.944,-8.6656,2.526,-0.3018,-0.0833,-0.0035,0.0368,0.0196,0.0619,2584,2019-08-07 16:20:12:832
3.853,-8.6226,2.658,-0.3018,-0.0833,-0.0035,0.0368,0.0196,0.0619,2589,2019-08-07 16:20:12:837
3.853,-8.6226,2.658,-0.0683,-0.1143,-0.18,0.0325,0.0313,0.0524,2594,2019-08-07 16:20:12:842
3.6712,-8.5319,2.6485,-0.0683,-0.1143,-0.18,0.0261,0.0345,0.0406,2600,2019-08-07 16:20:12:848
3.6712,-8.5319,2.6485,-0.0683,-0.1143,-0.18,0.0261,0.0345,0.0406,2603,2019-08-07 16:20:12:851
3.6712,-8.5319,2.6485,-0.0683,-0.1143,-0.18,0.0261,0.0345,0.0406,2609,2019-08-07 16:20:12:857
3.6425,-8.4889,2.6391,0.0475,-0.2205,-0.148,0.0208,0.0324,0.03,2614,2019-08-07 16:20:12:862
3.6425,-8.4889,2.6391,0.0475,-0.2205,-0.148,0.0208,0.0324,0.03,2619,2019-08-07 16:20:12:867
3.6472,-8.5796,2.6626,0.0475,-0.2205,-0.148,0.0155,-0.0017,0.03,2624,2019-08-07 16:20:12:872
3.6472,-8.5796,2.6626,0.0475,-0.2205,-0.148,0.0155,-0.0017,0.03,2629,2019-08-07 16:20:12:877
3.6472,-8.5796,2.6626,-0.0388,-0.2119,-0.1156,0.0144,-0.0273,0.0247,2634,2019-08-07 16:20:12:882
3.7333,-8.5367,2.7192,-0.0388,-0.2119,-0.1156,0.0144,-0.0273,0.0247,2639,2019-08-07 16:20:12:887
3.7333,-8.5367,2.7192,-0.0968,-0.1738,-0.1432,0.0176,-0.0646,0.0193,2643,2019-08-07 16:20:12:891
3.8146,-8.5176,2.7333,-0.0968,-0.1738,-0.1432,0.0176,-0.0646,0.0193,2650,2019-08-07 16:20:12:898
3.8146,-8.5176,2.7333,-0.0968,-0.1738,-0.1432,0.0208,-0.1178,0.0215,2653,2019-08-07 16:20:12:901
3.8146,-8.5176,2.7333,-0.0968,-0.1738,-0.1432,0.0208,-0.1178,0.0215,2659,2019-08-07 16:20:12:907
3.9963,-8.4698,2.6626,-0.3229,-0.259,-0.1035,0.0346,-0.1402,0.0311,2664,2019-08-07 16:20:12:912
3.9963,-8.4698,2.6626,-0.3229,-0.259,-0.1035,0.0346,-0.1402,0.0311,2669,2019-08-07 16:20:12:917
4.1638,-8.3743,2.5306,-0.3229,-0.259,-0.1035,0.0346,-0.1402,0.0311,2673,2019-08-07 16:20:12:921
4.1638,-8.3743,2.5306,-0.3229,-0.259,-0.1035,0.0538,-0.1029,0.0311,2680,2019-08-07 16:20:12:928
4.1638,-8.3743,2.5306,-0.5234,-0.472,0.1029,0.0538,-0.1029,0.0311,2684,2019-08-07 16:20:12:932
4.1446,-8.2216,2.4128,-0.5234,-0.472,0.1029,0.0666,-0.0124,0.0311,2689,2019-08-07 16:20:12:937
4.1446,-8.2216,2.4128,-0.4605,-0.4658,0.1398,0.0666,-0.0124,0.0311,2694,2019-08-07 16:20:12:942
3.9867,-8.2979,2.3703,-0.4605,-0.4658,0.1398,0.0496,0.0633,0.0342,2699,2019-08-07 16:20:12:947
3.9867,-8.2979,2.3703,-0.4605,-0.4658,0.1398,0.0496,0.0633,0.0342,2704,2019-08-07 16:20:12:952
3.9867,-8.2979,2.3703,-0.4605,-0.4658,0.1398,0.0496,0.0633,0.0342,2708,2019-08-07 16:20:12:956
3.6996,-8.4746,2.5353,-0.0266,-0.2499,0.0394,0.0208,0.1261,0.0215,2714,2019-08-07 16:20:12:962
3.6996,-8.4746,2.5353,-0.0266,-0.2499,0.0394,0.0208,0.1261,0.0215,2718,2019-08-07 16:20:12:966
3.6996,-8.4746,2.5353,-0.0266,-0.2499,0.0394,-0.0037,0.1293,-0.002,2724,2019-08-07 16:20:12:972
3.4125,-8.6942,2.6484,-0.0266,-0.2499,0.0394,-0.0037,0.1293,-0.002,2729,2019-08-07 16:20:12:977
3.4125,-8.6942,2.6484,0.401,0.0602,-0.2,-0.008,0.0846,-0.019,2734,2019-08-07 16:20:12:982
3.4125,-8.6942,2.6484,0.401,0.0602,-0.2,-0.008,0.0846,-0.019,2738,2019-08-07 16:20:12:986
3.245,-8.8517,2.6909,0.401,0.0602,-0.2,-0.009,0.0132,-0.0425,2744,2019-08-07 16:20:12:992
3.245,-8.8517,2.6909,0.401,0.0602,-0.2,-0.009,0.0132,-0.0425,2749,2019-08-07 16:20:12:997
3.3789,-8.8183,2.7286,0.2889,0.0951,-0.142,-0.009,-0.0443,-0.0595,2753,2019-08-07 16:20:13:001
3.3789,-8.8183,2.7286,0.2889,0.0951,-0.142,-0.009,-0.0443,-0.0595,2759,2019-08-07 16:20:13:007
3.5511,-8.7658,2.7616,0.2889,0.0951,-0.142,-0.009,-0.0997,-0.0638,2764,2019-08-07 16:20:13:012
3.5511,-8.7658,2.7616,0.2889,0.0951,-0.142,-0.009,-0.0997,-0.0638,2769,2019-08-07 16:20:13:017
3.5511,-8.7658,2.7616,-0.0505,-0.0062,-0.0418,-0.009,-0.0997,-0.0638,2774,2019-08-07 16:20:13:022
3.9386,-8.7419,2.54,-0.0505,-0.0062,-0.0418,-0.0367,-0.1477,-0.0467,2779,2019-08-07 16:20:13:027
3.9386,-8.7419,2.54,-0.0505,-0.0062,-0.0418,-0.0367,-0.1477,-0.0467,2784,2019-08-07 16:20:13:032
3.9386,-8.7419,2.54,-0.0505,-0.0062,-0.0418,-0.0538,-0.1274,-0.0339,2788,2019-08-07 16:20:13:036
4.1873,-8.7467,2.6013,-0.5272,0.0286,-0.032,-0.0538,-0.1274,-0.0339,2794,2019-08-07 16:20:13:042
4.1873,-8.7467,2.6013,-0.5272,0.0286,-0.032,-0.058,-0.0816,-0.0158,2799,2019-08-07 16:20:13:047
4.283,-8.7705,2.4363,-0.5272,0.0286,-0.032,-0.058,-0.0816,-0.0158,2804,2019-08-07 16:20:13:052
4.283,-8.7705,2.4363,-0.5272,0.0286,-0.032,-0.0751,-0.0422,0.0172,2808,2019-08-07 16:20:13:056
4.283,-8.7705,2.4363,-0.5786,0.1023,0.1482,-0.0751,-0.0422,0.0172,2814,2019-08-07 16:20:13:062
4.2973,-8.8039,2.375,-0.5786,0.1023,0.1482,-0.0857,4.0E-4,0.046,2818,2019-08-07 16:20:13:066
4.2973,-8.8039,2.375,-0.5786,0.1023,0.1482,-0.0857,4.0E-4,0.046,2824,2019-08-07 16:20:13:072
4.1298,-8.7419,2.4598,-0.4711,0.0798,0.0084,-0.0783,0.0207,0.0651,2829,2019-08-07 16:20:13:077
4.1298,-8.7419,2.4598,-0.4711,0.0798,0.0084,-0.0783,0.0207,0.0651,2835,2019-08-07 16:20:13:083
4.1298,-8.7419,2.4598,-0.4711,0.0798,0.0084,-0.1252,-0.1636,0.0982,2838,2019-08-07 16:20:13:086
3.6179,-8.675,2.3797,0.1075,-0.0894,-0.0125,-0.1252,-0.1636,0.0982,2844,2019-08-07 16:20:13:092
3.6179,-8.675,2.3797,0.1075,-0.0894,-0.0125,-0.1283,-0.2084,0.1109,2848,2019-08-07 16:20:13:096
3.6179,-8.675,2.3797,0.1075,-0.0894,-0.0125,-0.1283,-0.2084,0.1109,2854,2019-08-07 16:20:13:102
3.7613,-8.6655,2.7568,0.1075,-0.0894,-0.0125,-0.0506,-0.218,0.0928,2859,2019-08-07 16:20:13:107
3.7613,-8.6655,2.7568,-0.1619,-0.0141,-0.2527,-0.0506,-0.218,0.0928,2864,2019-08-07 16:20:13:112
3.9957,-8.675,2.6154,-0.1619,-0.0141,-0.2527,0.0783,-0.1722,0.0811,2870,2019-08-07 16:20:13:118
3.9957,-8.675,2.6154,-0.1619,-0.0141,-0.2527,0.0783,-0.1722,0.0811,2873,2019-08-07 16:20:13:121
4.1775,-8.5318,2.3608,-0.1619,-0.0141,-0.2527,0.155,-0.055,0.063,2879,2019-08-07 16:20:13:127
4.1775,-8.5318,2.3608,-0.5768,-0.2659,0.2139,0.155,-0.055,0.063,2883,2019-08-07 16:20:13:131
4.1775,-8.5318,2.3608,-0.5768,-0.2659,0.2139,0.155,-0.055,0.063,2889,2019-08-07 16:20:13:137
4.4167,-8.3934,2.0921,-0.5768,-0.2659,0.2139,0.1582,0.0952,0.0396,2893,2019-08-07 16:20:13:141
4.4167,-8.3934,2.0921,-0.5768,-0.2659,0.2139,0.1582,0.0952,0.0396,2900,2019-08-07 16:20:13:148
4.4167,-8.3934,2.0921,-0.1433,-0.5748,0.2785,0.0858,0.1996,0.0236,2903,2019-08-07 16:20:13:151
3.7373,-8.1069,2.3231,-0.1433,-0.5748,0.2785,0.0858,0.1996,0.0236,2909,2019-08-07 16:20:13:157
3.7373,-8.1069,2.3231,0.0886,-0.383,-0.2029,0.0282,0.2156,0.0332,2914,2019-08-07 16:20:13:162
3.7373,-8.1069,2.3231,0.0886,-0.383,-0.2029,0.0282,0.2156,0.0332,2919,2019-08-07 16:20:13:167
3.4167,-8.5986,2.9123,0.0886,-0.383,-0.2029,0.0282,0.2156,0.0332,2924,2019-08-07 16:20:13:172
3.4167,-8.5986,2.9123,0.0886,-0.383,-0.2029,0.0048,0.1847,0.0172,2929,2019-08-07 16:20:13:177
3.4167,-8.5986,2.9123,0.3467,0.0078,-0.4905,0.0048,0.1847,0.0172,2934,2019-08-07 16:20:13:182
3.3066,-8.7609,3.0867,0.3467,0.0078,-0.4905,0.0027,0.0761,-0.003,2938,2019-08-07 16:20:13:186