ACCELEROMETER X (m/s²),ACCELEROMETER Y (m/s²),ACCELEROMETER Z (m/s²),LINEAR ACCELERATION X (m/s²),LINEAR ACCELERATION Y (m/s²),LINEAR ACCELERATION Z (m/s²),GYROSCOPE X (rad/s),GYROSCOPE Y (rad/s),GYROSCOPE Z (rad/s),Time since start in ms ,YYYY-MO-DD HH-MI-SS_SSS
4.5958,-8.3177,2.0228,-0.2091,-0.133,0.214,-0.0112,0.027,0.0013,3,2019-08-07 16:20:05:403
4.5958,-8.3177,2.0228,-0.2091,-0.133,0.214,-0.0016,0.059,-0.0041,8,2019-08-07 16:20:05:408
4.5958,-8.3177,2.0228,-0.0566,-0.1281,0.1829,-0.0016,0.059,-0.0041,13,2019-08-07 16:20:05:413
4.4235,-8.3702,2.0511,-0.0566,-0.1281,0.1829,5.0E-4,0.0771,-0.0094,18,2019-08-07 16:20:05:418
4.4235,-8.3702,2.0511,-0.0566,-0.1281,0.1829,5.0E-4,0.0771,-0.0094,23,2019-08-07 16:20:05:423
4.4235,-8.3702,2.0511,-0.0566,-0.1281,0.1829,-5.0E-4,0.0611,-0.0168,28,2019-08-07 16:20:05:428
4.2465,-8.4704,2.2632,-0.0566,-0.1281,0.1829,-5.0E-4,0.0611,-0.0168,32,2019-08-07 16:20:05:432
4.2465,-8.4704,2.2632,0.2388,0.0207,0.0326,-0.0069,0.0174,-0.0254,38,2019-08-07 16:20:05:438
4.1987,-8.5373,2.3292,0.2388,0.0207,0.0326,-0.0069,0.0174,-0.0254,43,2019-08-07 16:20:05:443
4.1987,-8.5373,2.3292,0.2388,0.0207,0.0326,-0.0069,0.0174,-0.0254,47,2019-08-07 16:20:05:447
4.1987,-8.5373,2.3292,0.2388,0.0207,0.0326,-0.0133,-0.0284,-0.0339,53,2019-08-07 16:20:05:453
4.2465,-8.4847,2.3575,0.1756,0.0176,-0.1241,-0.0133,-0.0284,-0.0339,58,2019-08-07 16:20:05:458
4.2465,-8.4847,2.3575,0.1756,0.0176,-0.1241,-0.0218,-0.0688,-0.0392,64,2019-08-07 16:20:05:464
4.4331,-8.4418,2.2208,0.1756,0.0176,-0.1241,-0.0218,-0.0688,-0.0392,68,2019-08-07 16:20:05:468
4.4331,-8.4418,2.2208,0.1756,0.0176,-0.1241,-0.0282,-0.0848,-0.0371,72,2019-08-07 16:20:05:472
4.4331,-8.4418,2.2208,-0.1114,-0.0278,-0.0637,-0.0282,-0.0848,-0.0371,78,2019-08-07 16:20:05:478
4.591,-8.3893,2.2727,-0.1114,-0.0278,-0.0637,-0.0165,-0.0592,-0.0382,83,2019-08-07 16:20:05:483
4.591,-8.3893,2.2727,-0.1114,-0.0278,-0.0637,-0.0165,-0.0592,-0.0382,87,2019-08-07 16:20:05:487
4.6436,-8.3415,2.268,-0.1114,-0.0278,-0.0637,-0.0165,-0.0592,-0.0382,93,2019-08-07 16:20:05:493
4.6436,-8.3415,2.268,-0.2066,-0.1297,-0.0668,-0.0208,-0.0262,-0.0232,98,2019-08-07 16:20:05:498
4.6436,-8.3415,2.268,-0.2066,-0.1297,-0.0668,-0.0208,-0.0262,-0.0232,102,2019-08-07 16:20:05:502
4.6819,-8.3368,2.2821,-0.2066,-0.1297,-0.0668,-0.0378,-0.0039,-0.0062,108,2019-08-07 16:20:05:508
4.6819,-8.3368,2.2821,-0.2066,-0.1297,-0.0668,-0.0378,-0.0039,-0.0062,113,2019-08-07 16:20:05:513
4.5766,-8.3749,2.3245,-0.1599,-0.1053,-0.1055,-0.0538,0.0164,0.0023,118,2019-08-07 16:20:05:518
4.5766,-8.3749,2.3245,-0.1599,-0.1053,-0.1055,-0.0538,0.0164,0.0023,123,2019-08-07 16:20:05:523
4.5766,-8.3749,2.3245,-0.1599,-0.1053,-0.1055,-0.074,0.0185,0.0098,128,2019-08-07 16:20:05:528
4.4714,-8.4513,2.2491,-0.1599,-0.1053,-0.1055,-0.074,0.0185,0.0098,133,2019-08-07 16:20:05:533
4.4714,-8.4513,2.2491,-0.0419,0.0392,-0.1013,-0.0868,0.0089,0.0151,137,2019-08-07 16:20:05:537
4.4714,-8.4513,2.2491,-0.0419,0.0392,-0.1013,-0.0868,0.0089,0.0151,143,2019-08-07 16:20:05:543
4.4235,-8.5754,2.3528,-0.0419,0.0392,-0.1013,-0.0911,-0.0166,0.0172,149,2019-08-07 16:20:05:549
4.4235,-8.5754,2.3528,-0.0419,0.0392,-0.1013,-0.0911,-0.0166,0.0172,153,2019-08-07 16:20:05:553
4.4618,-8.6375,2.2585,0.0077,0.1911,-0.1031,-0.0879,-0.0379,0.0268,157,2019-08-07 16:20:05:557
4.4618,-8.6375,2.2585,0.0077,0.1911,-0.1031,-0.0879,-0.0379,0.0268,163,2019-08-07 16:20:05:563
4.4618,-8.6375,2.2585,0.0077,0.1911,-0.1031,-0.0708,-0.0475,0.029,167,2019-08-07 16:20:05:567
4.4762,-8.6471,2.1407,0.0077,0.1911,-0.1031,-0.0708,-0.0475,0.029,173,2019-08-07 16:20:05:573
4.4762,-8.6471,2.1407,-0.0529,0.1613,-0.0395,-0.0474,-0.0411,0.03,177,2019-08-07 16:20:05:577
4.4714,-8.5277,2.1171,-0.0529,0.1613,-0.0395,-0.0474,-0.0411,0.03,184,2019-08-07 16:20:05:584
4.4714,-8.5277,2.1171,-0.0529,0.1613,-0.0395,-0.0261,-0.0305,0.0236,188,2019-08-07 16:20:05:588
4.4714,-8.5277,2.1171,-0.0529,0.1613,-0.0395,-0.0261,-0.0305,0.0236,194,2019-08-07 16:20:05:594
4.5144,-8.4752,2.1878,-0.0794,-0.0047,-0.0296,-0.0112,-0.0198,0.013,199,2019-08-07 16:20:05:599
4.5144,-8.4752,2.1878,-0.0794,-0.0047,-0.0296,-0.0112,-0.0198,0.013,202,2019-08-07 16:20:05:602
4.5144,-8.4752,2.1878,-0.0794,-0.0047,-0.0296,-0.0112,-0.0198,0.013,208,2019-08-07 16:20:05:608
4.4379,-8.4275,2.103,-0.0794,-0.0047,-0.0296,0.0037,0.0047,0.0108,213,2019-08-07 16:20:05:613
4.4379,-8.4275,2.103,0.0051,-0.1061,-0.0071,0.0037,0.0047,0.0108,218,2019-08-07 16:20:05:618
4.4283,-8.332,2.1831,0.0051,-0.1061,-0.0071,0.0101,0.0057,0.0087,223,2019-08-07 16:20:05:623
4.4283,-8.332,2.1831,0.0051,-0.1061,-0.0071,0.0101,0.0057,0.0087,228,2019-08-07 16:20:05:628
4.3805,-8.4084,2.1973,0.0051,-0.1061,-0.0071,0.0112,0.0047,0.0023,233,2019-08-07 16:20:05:633
4.3805,-8.4084,2.1973,0.0852,-0.0774,-0.0234,0.0112,0.0047,0.0023,237,2019-08-07 16:20:05:637
4.3805,-8.4084,2.1973,0.0852,-0.0774,-0.0234,5.0E-4,-0.006,-0.0041,243,2019-08-07 16:20:05:643
4.3326,-8.5134,2.2821,0.0852,-0.0774,-0.0234,5.0E-4,-0.006,-0.0041,248,2019-08-07 16:20:05:648
4.3326,-8.5134,2.2821,0.0852,-0.0774,-0.0234,-0.0059,-0.0241,-0.0158,253,2019-08-07 16:20:05:653
4.3326,-8.5134,2.2821,0.1438,0.0663,-0.076,-0.0059,-0.0241,-0.0158,257,2019-08-07 16:20:05:657
4.3087,-8.5229,2.1548,0.1438,0.0663,-0.076,-0.0122,-0.0433,-0.0211,263,2019-08-07 16:20:05:663
4.3087,-8.5229,2.1548,0.1438,0.0663,-0.076,-0.0122,-0.0433,-0.0211,268,2019-08-07 16:20:05:668
4.3757,-8.5898,2.1973,0.1438,0.0663,-0.076,-0.0122,-0.0433,-0.0211,272,2019-08-07 16:20:05:672
4.3757,-8.5898,2.1973,-0.0139,0.0675,0.0129,-0.0122,-0.0347,-0.0275,278,2019-08-07 16:20:05:678
4.3757,-8.5898,2.1973,-0.0139,0.0675,0.0129,-0.0122,-0.0347,-0.0275,283,2019-08-07 16:20:05:683
4.4331,-8.5802,2.1124,-0.0139,0.0675,0.0129,-0.0027,-0.0081,-0.0382,288,2019-08-07 16:20:05:688
4.4331,-8.5802,2.1124,-0.0139,0.0675,0.0129,-0.0027,-0.0081,-0.0382,293,2019-08-07 16:20:05:693
4.3661,-8.5229,2.1595,0.0788,0.0466,-0.0078,0.0059,0.0068,-0.0445,298,2019-08-07 16:20:05:698
4.3661,-8.5229,2.1595,0.0788,0.0466,-0.0078,0.0059,0.0068,-0.0445,303,2019-08-07 16:20:05:703
4.3661,-8.5229,2.1595,0.0788,0.0466,-0.0078,0.0059,0.0068,-0.0445,308,2019-08-07 16:20:05:708
4.414,-8.4752,2.1124,0.0788,0.0466,-0.0078,0.0176,0.0132,-0.0445,313,2019-08-07 16:20:05:713
4.414,-8.4752,2.1124,-0.0053,-0.0636,0.019,0.0176,0.0132,-0.0445,318,2019-08-07 16:20:05:718
4.414,-8.4752,2.1124,-0.0053,-0.0636,0.019,0.025,0.0047,-0.0435,323,2019-08-07 16:20:05:723
4.4953,-8.5134,2.1266,-0.0053,-0.0636,0.019,0.025,0.0047,-0.0435,328,2019-08-07 16:20:05:728
4.4953,-8.5134,2.1266,-0.0053,-0.0636,0.019,0.024,-0.0113,-0.0445,333,2019-08-07 16:20:05:733
4.5192,-8.4513,2.2067,-0.0595,-0.0154,-0.0477,0.024,-0.0113,-0.0445,338,2019-08-07 16:20:05:738
4.5192,-8.4513,2.2067,-0.0595,-0.0154,-0.0477,0.0208,-0.0411,-0.0382,342,2019-08-07 16:20:05:742
4.5192,-8.4513,2.2067,-0.0595,-0.0154,-0.0477,0.0208,-0.0411,-0.0382,349,2019-08-07 16:20:05:749
4.6006,-8.4657,2.1124,-0.0595,-0.0154,-0.0477,0.0208,-0.0411,-0.0382,353,2019-08-07 16:20:05:753
4.6006,-8.4657,2.1124,-0.161,0.0317,0.0639,0.0112,-0.0656,-0.0264,358,2019-08-07 16:20:05:758
4.7106,-8.4895,2.1171,-0.161,0.0317,0.0639,0.0112,-0.0656,-0.0264,363,2019-08-07 16:20:05:763
4.7106,-8.4895,2.1171,-0.161,0.0317,0.0639,0.0069,-0.0646,-0.0137,368,2019-08-07 16:20:05:768
4.7106,-8.4895,2.1171,-0.161,0.0317,0.0639,0.0069,-0.0646,-0.0137,373,2019-08-07 16:20:05:773
4.7297,-8.5516,2.1407,-0.2746,0.0718,0.0401,0.0027,-0.0433,-9.0E-4,378,2019-08-07 16:20:05:778
4.7297,-8.5516,2.1407,-0.2746,0.0718,0.0401,0.0027,-0.0433,-9.0E-4,383,2019-08-07 16:20:05:783
4.7154,-8.4752,2.0888,-0.2746,0.0718,0.0401,5.0E-4,-0.0028,0.0045,388,2019-08-07 16:20:05:788
4.7154,-8.4752,2.0888,-0.2746,0.0718,0.0401,5.0E-4,-0.0028,0.0045,393,2019-08-07 16:20:05:793
4.7154,-8.4752,2.0888,-0.2207,0.0293,0.0816,-0.0016,0.0281,0.0023,399,2019-08-07 16:20:05:799
4.6723,-8.4752,2.0841,-0.2207,0.0293,0.0816,-0.0016,0.0281,0.0023,402,2019-08-07 16:20:05:802
4.6723,-8.4752,2.0841,-0.2207,0.0293,0.0816,-0.0016,0.0281,0.0023,408,2019-08-07 16:20:05:808
4.6723,-8.4752,2.0841,-0.1208,-0.0518,0.0171,0.0048,0.0547,-9.0E-4,413,2019-08-07 16:20:05:813
4.5671,-8.3845,2.1973,-0.1208,-0.0518,0.0171,0.0048,0.0547,-9.0E-4,418,2019-08-07 16:20:05:818
4.5671,-8.3845,2.1973,-0.1208,-0.0518,0.0171,0.0186,0.075,-0.0115,423,2019-08-07 16:20:05:823
4.4618,-8.2699,2.1407,-0.1208,-0.0518,0.0171,0.0186,0.075,-0.0115,428,2019-08-07 16:20:05:828
4.4618,-8.2699,2.1407,-0.0072,-0.2028,-0.0346,0.0218,0.0931,-0.0211,433,2019-08-07 16:20:05:833
4.4618,-8.2699,2.1407,-0.0072,-0.2028,-0.0346,0.0218,0.0931,-0.0211,437,2019-08-07 16:20:05:837
4.3614,-8.2317,2.1124,-0.0072,-0.2028,-0.0346,0.0101,0.0824,-0.0318,443,2019-08-07 16:20:05:843
4.3614,-8.2317,2.1124,0.1753,-0.1473,0.1074,0.0101,0.0824,-0.0318,449,2019-08-07 16:20:05:849
4.237,-8.2938,2.1313,0.1753,-0.1473,0.1074,-0.0027,0.0377,-0.0371,453,2019-08-07 16:20:05:853
4.237,-8.2938,2.1313,0.1753,-0.1473,0.1074,-0.0027,0.0377,-0.0371,458,2019-08-07 16:20:05:858
4.237,-8.2938,2.1313,0.1753,-0.1473,0.1074,-0.0069,-0.0177,-0.0371,463,2019-08-07 16:20:05:863
4.3279,-8.5038,2.1171,0.1753,-0.1473,0.1074,-0.0069,-0.0177,-0.0371,468,2019-08-07 16:20:05:868
4.3279,-8.5038,2.1171,0.1181,0.0701,-0.0155,5.0E-4,-0.0614,-0.0392,472,2019-08-07 16:20:05:872
4.4331,-8.5611,2.0794,0.1181,0.0701,-0.0155,5.0E-4,-0.0614,-0.0392,478,2019-08-07 16:20:05:878
4.4331,-8.5611,2.0794,0.1181,0.0701,-0.0155,0.0059,-0.0827,-0.0382,483,2019-08-07 16:20:05:883
4.4331,-8.5611,2.0794,0.1181,0.0701,-0.0155,0.0059,-0.0827,-0.0382,488,2019-08-07 16:20:05:888
4.5288,-8.437,1.905,-0.0398,-0.0126,0.2602,0.0123,-0.0752,-0.0275,494,2019-08-07 16:20:05:894
4.5288,-8.437,1.905,-0.0398,-0.0126,0.2602,0.0123,-0.0752,-0.0275,497,2019-08-07 16:20:05:897
4.6341,-8.3606,1.872,-0.0398,-0.0126,0.2602,0.0197,-0.0433,-0.02,504,2019-08-07 16:20:05:904
4.6341,-8.3606,1.872,-0.0398,-0.0126,0.2602,0.0197,-0.0433,-0.02,508,2019-08-07 16:20:05:908
4.6341,-8.3606,1.872,-0.1518,-0.0907,0.228,0.0336,-0.0145,-0.0158,513,2019-08-07 16:20:05:913
4.6245,-8.3654,2.004,-0.1518,-0.0907,0.228,0.0336,-0.0145,-0.0158,518,2019-08-07 16:20:05:918
4.6245,-8.3654,2.004,-0.1518,-0.0907,0.228,0.0336,-0.0145,-0.0158,523,2019-08-07 16:20:05:923
4.6389,-8.2842,2.0606,-0.1518,-0.0907,0.228,0.0463,0.0217,-0.0147,528,2019-08-07 16:20:05:928
4.6389,-8.2842,2.0606,-0.0905,-0.2064,0.0882,0.0463,0.0217,-0.0147,533,2019-08-07 16:20:05:933
4.6389,-8.2842,2.0606,-0.0905,-0.2064,0.0882,0.0378,0.0388,-0.0126,538,2019-08-07 16:20:05:938
4.5336,-8.1983,2.0936,-0.0905,-0.2064,0.0882,0.0378,0.0388,-0.0126,544,2019-08-07 16:20:05:944
4.5336,-8.1983,2.0936,-0.0905,-0.2064,0.0882,0.0091,0.0377,-0.0137,548,2019-08-07 16:20:05:948
4.4571,-8.3893,2.1266,0.0305,-0.1367,0.0118,0.0091,0.0377,-0.0137,553,2019-08-07 16:20:05:953
4.4571,-8.3893,2.1266,0.0305,-0.1367,0.0118,0.0091,0.0377,-0.0137,557,2019-08-07 16:20:05:957
4.4571,-8.3893,2.1266,0.0305,-0.1367,0.0118,-0.0186,0.0302,-0.0147,563,2019-08-07 16:20:05:963
4.3087,-8.5707,2.2444,0.0305,-0.1367,0.0118,-0.0186,0.0302,-0.0147,568,2019-08-07 16:20:05:968
4.3087,-8.5707,2.2444,0.1646,0.212,-0.0254,-0.024,0.0047,-0.0126,573,2019-08-07 16:20:05:973
4.3087,-8.5707,2.2444,0.1646,0.212,-0.0254,-0.024,0.0047,-0.0126,578,2019-08-07 16:20:05:978
4.3087,-8.628,2.1501,0.2124,0.2018,0.0335,-0.0165,-0.0209,0.0023,583,2019-08-07 16:20:05:983
4.3087,-8.628,2.1501,0.2124,0.2018,0.0335,-0.0165,-0.0209,0.0023,588,2019-08-07 16:20:05:988
4.3853,-8.5182,2.1454,0.2124,0.2018,0.0335,-0.0165,-0.0209,0.0023,593,2019-08-07 16:20:05:993
4.3853,-8.5182,2.1454,0.2124,0.2018,0.0335,0.0133,-0.0198,0.0268,598,2019-08-07 16:20:05:998
4.3853,-8.5182,2.1454,0.123,0.042,0.2012,0.0133,-0.0198,0.0268,603,2019-08-07 16:20:06:003
4.3949,-8.4609,1.9851,0.123,0.042,0.2012,0.0208,-0.0028,0.0471,607,2019-08-07 16:20:06:007
4.3949,-8.4609,1.9851,0.123,0.042,0.2012,0.0208,-0.0028,0.0471,613,2019-08-07 16:20:06:013
4.4331,-8.4704,2.0936,0.123,0.042,0.2012,0.0165,0.0036,0.063,618,2019-08-07 16:20:06:018
4.4331,-8.4704,2.0936,0.0981,0.1515,0.1042,0.0165,0.0036,0.063,623,2019-08-07 16:20:06:023
4.4331,-8.4704,2.0936,0.0981,0.1515,0.1042,-0.0069,-7.0E-4,0.0684,628,2019-08-07 16:20:06:028
4.3805,-8.8332,2.1643,0.0721,0.4724,-0.0048,-0.0069,-7.0E-4,0.0684,633,2019-08-07 16:20:06:033
4.3805,-8.8332,2.1643,0.0721,0.4724,-0.0048,-0.0399,-0.0134,0.0748,637,2019-08-07 16:20:06:037
4.3662,-9.3154,2.0276,0.0721,0.4724,-0.0048,-0.0399,-0.0134,0.0748,643,2019-08-07 16:20:06:043
4.3662,-9.3154,2.0276,0.0721,0.4724,-0.0048,-0.0804,-0.0166,0.0801,648,2019-08-07 16:20:06:048
4.3662,-9.3154,2.0276,0.2186,1.3628,0.1477,-0.0804,-0.0166,0.0801,653,2019-08-07 16:20:06:053
4.1891,-9.9599,2.004,0.2186,1.3628,0.1477,-0.0804,-0.0166,0.0801,658,2019-08-07 16:20:06:058
4.1891,-9.9599,2.004,0.2186,1.3628,0.1477,-0.1039,-0.006,0.0886,663,2019-08-07 16:20:06:063
3.8686,-10.4898,2.1548,0.2186,1.3628,0.1477,-0.1039,-0.006,0.0886,667,2019-08-07 16:20:06:067
3.8686,-10.4898,2.1548,0.7453,2.3336,0.0992,-0.0953,0.0036,0.1067,673,2019-08-07 16:20:06:073
3.8686,-10.4898,2.1548,0.7453,2.3336,0.0992,-0.0953,0.0036,0.1067,677,2019-08-07 16:20:06:077
3.3902,-11.2631,2.1973,0.7453,2.3336,0.0992,-0.0826,0.0196,0.1355,684,2019-08-07 16:20:06:084
3.3902,-11.2631,2.1973,0.7453,2.3336,0.0992,-0.0826,0.0196,0.1355,687,2019-08-07 16:20:06:087
2.8209,-12.3897,2.5791,1.5815,3.8852,-0.4512,-0.0293,0.0292,0.1856,692,2019-08-07 16:20:06:092
2.8209,-12.3897,2.5791,1.5815,3.8852,-0.4512,-0.0293,0.0292,0.1856,698,2019-08-07 16:20:06:098
2.8209,-12.3897,2.5791,1.5815,3.8852,-0.4512,-0.0293,0.0292,0.1856,702,2019-08-07 16:20:06:102
2.2324,-14.0701,3.0363,1.5815,3.8852,-0.4512,0.0655,0.091,0.2452,708,2019-08-07 16:20:06:108
2.2324,-14.0701,3.0363,2.5701,6.7389,-1.207,0.0655,0.091,0.2452,712,2019-08-07 16:20:06:112
1.4334,-16.1611,3.7245,2.5701,6.7389,-1.207,0.1603,0.1506,0.3326,718,2019-08-07 16:20:06:118
1.4334,-16.1611,3.7245,2.5701,6.7389,-1.207,0.1603,0.1506,0.3326,722,2019-08-07 16:20:06:122
1.4334,-16.1611,3.7245,2.5701,6.7389,-1.207,0.2882,0.2188,0.4828,728,2019-08-07 16:20:06:128
0.7636,-18.4334,4.6673,3.5412,10.3179,-2.6776,0.2882,0.2188,0.4828,733,2019-08-07 16:20:06:133
0.7636,-18.4334,4.6673,3.5412,10.3179,-2.6776,0.5257,0.336,0.7672,738,2019-08-07 16:20:06:138
0.7636,-18.4334,4.6673,3.5412,10.3179,-2.6776,0.5257,0.336,0.7672,742,2019-08-07 16:20:06:142
0.4766,-20.3143,5.3555,3.5412,10.3179,-2.6776,0.7238,0.5011,1.0655,748,2019-08-07 16:20:06:148
0.4766,-20.3143,5.3555,3.4119,12.9941,-2.97,0.7238,0.5011,1.0655,753,2019-08-07 16:20:06:153
0.6297,-21.9803,5.2707,3.4119,12.9941,-2.97,0.7238,0.5011,1.0655,758,2019-08-07 16:20:06:158
0.6297,-21.9803,5.2707,3.4119,12.9941,-2.97,0.8858,0.8814,1.499,763,2019-08-07 16:20:06:163
0.6297,-21.9803,5.2707,3.1792,15.0685,-2.2771,0.8858,0.8814,1.499,767,2019-08-07 16:20:06:167
0.9167,-25.766,4.2383,3.1792,15.0685,-2.2771,0.8858,0.8814,1.499,773,2019-08-07 16:20:06:173
0.9167,-25.766,4.2383,3.1792,15.0685,-2.2771,0.8996,1.7378,2.0231,778,2019-08-07 16:20:06:178
1.8688,-32.7978,2.3387,1.4982,25.1627,0.766,0.8996,1.7378,2.0231,783,2019-08-07 16:20:06:183
1.8688,-32.7978,2.3387,1.4982,25.1627,0.766,0.8272,3.1312,2.5877,788,2019-08-07 16:20:06:188
1.8688,-32.7978,2.3387,1.4982,25.1627,0.766,0.8272,3.1312,2.5877,792,2019-08-07 16:20:06:192
1.7444,-35.4043,1.0094,1.3289,26.5485,1.8829,0.9252,4.3946,3.1853,798,2019-08-07 16:20:06:198
1.7444,-35.4043,1.0094,1.3289,26.5485,1.8829,0.9252,4.3946,3.1853,803,2019-08-07 16:20:06:203
1.0985,-32.3013,-0.0512,1.3289,26.5485,1.8829,1.1574,5.7603,3.9012,807,2019-08-07 16:20:06:207
1.0985,-32.3013,-0.0512,1.3289,26.5485,1.8829,1.1574,5.7603,3.9012,813,2019-08-07 16:20:06:213
1.5865,-28.9692,-0.3293,0.7916,20.9864,3.3042,1.5654,7.666,4.5318,818,2019-08-07 16:20:06:218
1.5865,-28.9692,-0.3293,0.7916,20.9864,3.3042,1.5654,7.666,4.5318,822,2019-08-07 16:20:06:222
1.5865,-28.9692,-0.3293,0.7916,20.9864,3.3042,1.5654,7.666,4.5318,828,2019-08-07 16:20:06:228
2.0458,-26.9928,-1.9462,0.7916,20.9864,3.3042,1.6943,9.4557,4.4658,832,2019-08-07 16:20:06:232
2.0458,-26.9928,-1.9462,-1.4991,17.5614,7.4353,1.6943,9.4557,4.4658,838,2019-08-07 16:20:06:238
2.0458,-26.9928,-1.9462,-1.4991,17.5614,7.4353,1.183,11.0429,3.9012,842,2019-08-07 16:20:06:242
-1.6046,-23.9185,-7.8149,-1.4991,17.5614,7.4353,0.3787,12.6302,3.0959,849,2019-08-07 16:20:06:249
-1.6046,-23.9185,-7.8149,-1.4991,17.5614,7.4353,0.3787,12.6302,3.0959,852,2019-08-07 16:20:06:252
-1.6046,-23.9185,-7.8149,7.3683,15.9613,16.0186,0.3787,12.6302,3.0959,858,2019-08-07 16:20:06:258
-13.1968,-27.8139,-17.3556,7.3683,15.9613,16.0186,-0.3542,13.9479,2.3555,862,2019-08-07 16:20:06:262
-13.1968,-27.8139,-17.3556,7.3683,15.9613,16.0186,-0.3542,13.9479,2.3555,868,2019-08-07 16:20:06:268
-21.7606,-31.6998,-9.3186,7.3683,15.9613,16.0186,-0.2796,16.6281,0.9366,872,2019-08-07 16:20:06:272
-21.7606,-31.6998,-9.3186,19.1099,22.0841,8.658,-0.2796,16.6281,0.9366,878,2019-08-07 16:20:06:278
-21.7606,-31.6998,-9.3186,19.1099,22.0841,8.658,1.7273,16.3756,-0.8424,883,2019-08-07 16:20:06:283
-15.0483,-25.1597,12.8505,19.1099,22.0841,8.658,1.7273,16.3756,-0.8424,888,2019-08-07 16:20:06:288
-15.0483,-25.1597,12.8505,19.1099,22.0841,8.658,1.7273,16.3756,-0.8424,893,2019-08-07 16:20:06:293
-7.9628,-19.0062,8.8013,5.8158,11.1953,-9.4959,5.7061,9.999,-2.7066,898,2019-08-07 16:20:06:298
-7.9628,-19.0062,8.8013,5.8158,11.1953,-9.4959,5.7061,9.999,-2.7066,903,2019-08-07 16:20:06:303
-7.9628,-19.0062,8.8013,5.8158,11.1953,-9.4959,7.9218,5.2319,-3.5716,907,2019-08-07 16:20:06:307
-4.3364,-10.7046,-10.3745,5.8158,11.1953,-9.4959,7.9218,5.2319,-3.5716,913,2019-08-07 16:20:06:313
-4.3364,-10.7046,-10.3745,1.5538,-3.4353,14.4099,9.2694,3.9536,-4.3972,917,2019-08-07 16:20:06:317
-10.6037,5.3402,-8.9745,1.5538,-3.4353,14.4099,9.2694,3.9536,-4.3972,923,2019-08-07 16:20:06:323
-10.6037,5.3402,-8.9745,1.5538,-3.4353,14.4099,10.7799,4.237,-4.296,927,2019-08-07 16:20:06:327
-10.6037,5.3402,-8.9745,1.5538,-3.4353,14.4099,10.7799,4.237,-4.296,933,2019-08-07 16:20:06:333
-39.7636,114.5175,72.4896,37.1131,-122.3583,-67.2234,13.0489,-2.4039,-0.7029,938,2019-08-07 16:20:06:338
-39.7636,114.5175,72.4896,37.1131,-122.3583,-67.2234,13.0489,-2.4039,-0.7029,942,2019-08-07 16:20:06:342
-18.7943,89.4358,-13.9192,37.1131,-122.3583,-67.2234,6.9844,-10.6682,2.0998,949,2019-08-07 16:20:06:349
-18.7943,89.4358,-13.9192,37.1131,-122.3583,-67.2234,6.9844,-10.6682,2.0998,952,2019-08-07 16:20:06:352
-18.7943,89.4358,-13.9192,-17.8037,-50.7077,49.4126,8.8923,-9.1577,1.955,958,2019-08-07 16:20:06:358
23.0391,38.2509,-46.7886,-17.8037,-50.7077,49.4126,8.8923,-9.1577,1.955,963,2019-08-07 16:20:06:363
23.0391,38.2509,-46.7886,-17.8037,-50.7077,49.4126,1.3822,-11.301,1.2764,968,2019-08-07 16:20:06:368
23.0391,38.2509,-46.7886,-17.8037,-50.7077,49.4126,1.3822,-11.301,1.2764,973,2019-08-07 16:20:06:373
50.5915,30.6224,-14.0229,-51.1689,-36.7785,21.639,-0.4724,5.0306,-0.4579,978,2019-08-07 16:20:06:378
50.5915,30.6224,-14.0229,-51.1689,-36.7785,21.639,-0.4724,5.0306,-0.4579,983,2019-08-07 16:20:06:383
50.5915,30.6224,-14.0229,-51.1689,-36.7785,21.639,-0.4724,5.0306,-0.4579,987,2019-08-07 16:20:06:387
17.4319,41.1296,24.2532,-51.1689,-36.7785,21.639,-1.5537,4.6034,-1.5466,993,2019-08-07 16:20:06:393
17.4319,41.1296,24.2532,-2.3514,-40.8111,6.4483,-1.5537,4.6034,-1.5466,999,2019-08-07 16:20:06:399
-7.6805,32.5271,-3.0633,-2.3514,-40.8111,6.4483,-2.8608,1.7549,-0.3716,1002,2019-08-07 16:20:06:402
-7.6805,32.5271,-3.0633,-2.3514,-40.8111,6.4483,-2.8608,1.7549,-0.3716,1008,2019-08-07 16:20:06:408
-7.6805,32.5271,-3.0633,-2.3514,-40.8111,6.4483,-3.876,3.2985,0.9238,1014,2019-08-07 16:20:06:414
-11.3931,24.426,4.8229,8.8061,-30.0688,-1.3518,-3.876,3.2985,0.9238,1017,2019-08-07 16:20:06:417
-11.3931,24.426,4.8229,8.8061,-30.0688,-1.3518,-4.9125,1.8007,1.7408,1023,2019-08-07 16:20:06:423
-6.4797,19.2034,10.734,8.8061,-30.0688,-1.3518,-4.9125,1.8007,1.7408,1029,2019-08-07 16:20:06:429
-6.4797,19.2034,10.734,8.8061,-30.0688,-1.3518,-5.2395,-2.5946,1.939,1032,2019-08-07 16:20:06:432
-6.4797,19.2034,10.734,1.2159,-21.6868,-2.3127,-5.2395,-2.5946,1.939,1038,2019-08-07 16:20:06:438
-2.4035,13.1025,6.765,1.2159,-21.6868,-2.3127,-5.0669,-5.7616,1.5672,1043,2019-08-07 16:20:06:443
-2.4035,13.1025,6.765,1.2159,-21.6868,-2.3127,-5.0669,-5.7616,1.5672,1049,2019-08-07 16:20:06:449
-0.0353,7.2832,5.2895,1.2159,-21.6868,-2.3127,-4.9178,-6.0301,1.0687,1052,2019-08-07 16:20:06:452
-0.0353,7.2832,5.2895,-1.3142,-13.3781,0.0438,-4.9178,-6.0301,1.0687,1058,2019-08-07 16:20:06:458
-0.0353,7.2832,5.2895,-1.3142,-13.3781,0.0438,-4.4629,-6.7044,0.846,1063,2019-08-07 16:20:06:463
0.467,2.9008,5.2848,-1.3142,-13.3781,0.0438,-4.4629,-6.7044,0.846,1068,2019-08-07 16:20:06:468
0.467,2.9008,5.2848,-1.3142,-13.3781,0.0438,-3.8078,-7.0463,0.781,1072,2019-08-07 16:20:06:472
1.0603,-0.4027,2.9515,-2.0711,-7.1668,2.425,-3.8078,-7.0463,0.781,1078,2019-08-07 16:20:06:478
1.0603,-0.4027,2.9515,-2.0711,-7.1668,2.425,-3.5543,-7.0538,0.7086,1083,2019-08-07 16:20:06:483
3.2802,-4.7134,3.1636,-3.538,-3.7324,1.8201,-3.5543,-7.0538,0.7086,1088,2019-08-07 16:20:06:488
3.2802,-4.7134,3.1636,-3.538,-3.7324,1.8201,-3.5543,-7.0538,0.7086,1093,2019-08-07 16:20:06:493
3.2802,-4.7134,3.1636,-3.538,-3.7324,1.8201,-3.5021,-7.0953,0.3816,1098,2019-08-07 16:20:06:498
4.0122,-8.5516,3.8518,-3.538,-3.7324,1.8201,-3.5021,-7.0953,0.3816,1103,2019-08-07 16:20:06:503
4.0122,-8.5516,3.8518,-3.538,-3.7324,1.8201,-3.1132,-6.1408,-0.0904,1108,2019-08-07 16:20:06:508
4.0122,-8.5516,3.8518,-5.0022,2.5606,2.0704,-3.1132,-6.1408,-0.0904,1112,2019-08-07 16:20:06:512
5.0025,-17.1826,2.1219,-5.0022,2.5606,2.0704,-2.9513,-5.6828,-0.4142,1118,2019-08-07 16:20:06:518
5.0025,-17.1826,2.1219,-5.0022,2.5606,2.0704,-2.9513,-5.6828,-0.4142,1123,2019-08-07 16:20:06:523
4.2179,-26.8449,3.5973,-5.0022,2.5606,2.0704,-2.783,-5.4111,-0.134,1128,2019-08-07 16:20:06:528
4.2179,-26.8449,3.5973,-3.0296,20.6483,1.5227,-2.783,-5.4111,-0.134,1134,2019-08-07 16:20:06:534
4.2179,-26.8449,3.5973,-3.0296,20.6483,1.5227,-2.783,-5.4111,-0.134,1137,2019-08-07 16:20:06:537
3.3041,-36.8126,1.5703,-3.0296,20.6483,1.5227,-2.1428,-4.4854,0.5573,1143,2019-08-07 16:20:06:543
3.3041,-36.8126,1.5703,-0.7151,17.3573,-2.0575,-1.0221,-3.9347,0.7427,1149,2019-08-07 16:20:06:549
1.8306,-24.4007,5.7468,-0.7151,17.3573,-2.0575,-1.0221,-3.9347,0.7427,1152,2019-08-07 16:20:06:552
1.8306,-24.4007,5.7468,-0.7151,17.3573,-2.0575,-1.0221,-3.9347,0.7427,1158,2019-08-07 16:20:06:558
1.8306,-24.4007,5.7468,-0.7151,17.3573,-2.0575,0.7249,-3.336,0.2708,1163,2019-08-07 16:20:06:563
1.1608,-23.3838,7.0714,0.6456,17.262,-0.892,0.7249,-3.336,0.2708,1169,2019-08-07 16:20:06:569
1.1608,-23.3838,7.0714,0.6456,17.262,-0.892,1.7486,-3.2518,-0.6858,1173,2019-08-07 16:20:06:573
-1.6954,-26.6826,-2.658,0.6456,17.262,-0.892,1.7486,-3.2518,-0.6858,1178,2019-08-07 16:20:06:578
-1.6954,-26.6826,-2.658,0.6456,17.262,-0.892,-0.0613,-3.3424,-1.0502,1183,2019-08-07 16:20:06:583
-1.6954,-26.6826,-2.658,4.957,14.6792,6.0324,-0.0613,-3.3424,-1.0502,1188,2019-08-07 16:20:06:588
-3.1642,-23.5748,-1.1212,4.957,14.6792,6.0324,-1.9457,-3.2391,-1.2589,1193,2019-08-07 16:20:06:593
-3.1642,-23.5748,-1.1212,4.957,14.6792,6.0324,-1.9457,-3.2391,-1.2589,1198,2019-08-07 16:20:06:598
-3.1642,-23.5748,-1.1212,5.7526,14.9582,-2.9658,-1.9457,-3.2391,-1.2589,1203,2019-08-07 16:20:06:603
-4.4703,-26.5966,0.4532,5.7526,14.9582,-2.9658,-2.3899,-4.0987,-1.4741,1208,2019-08-07 16:20:06:608
-4.4703,-26.5966,0.4532,5.7526,14.9582,-2.9658,-2.3899,-4.0987,-1.4741,1213,2019-08-07 16:20:06:613
-4.4703,-26.5966,0.4532,5.7526,14.9582,-2.9658,-2.2046,-4.2404,-1.5604,1218,2019-08-07 16:20:06:618
-4.5803,-28.0383,-1.9933,6.9523,18.8061,4.3118,-2.2046,-4.2404,-1.5604,1222,2019-08-07 16:20:06:622
-4.5803,-28.0383,-1.9933,6.9523,18.8061,4.3118,-1.7156,-4.0529,-1.6329,1228,2019-08-07 16:20:06:628
-4.5803,-28.0383,-1.9933,6.9523,18.8061,4.3118,-1.7156,-4.0529,-1.6329,1233,2019-08-07 16:20:06:633
-5.5611,-24.7301,4.0262,6.9523,18.8061,4.3118,-0.0783,-3.6364,-1.5817,1238,2019-08-07 16:20:06:638
-5.5611,-24.7301,4.0262,7.7644,14.9705,-4.2035,-0.0783,-3.6364,-1.5817,1243,2019-08-07 16:20:06:643
-5.5611,-24.7301,4.0262,7.7644,14.9705,-4.2035,-0.0783,-3.6364,-1.5817,1248,2019-08-07 16:20:06:648
-3.6857,-23.4125,8.4431,6.2548,13.845,-6.2949,1.6623,-3.0612,-1.4102,1252,2019-08-07 16:20:06:652
-3.6857,-23.4125,8.4431,6.2548,13.845,-6.2949,1.6623,-3.0612,-1.4102,1258,2019-08-07 16:20:06:658
-3.6857,-23.4125,8.4431,6.2548,13.845,-6.2949,3.1857,-1.0915,-1.1609,1263,2019-08-07 16:20:06:663
1.2708,-20.2427,-0.2539,6.2548,13.845,-6.2949,3.1857,-1.0915,-1.1609,1268,2019-08-07 16:20:06:668
1.2708,-20.2427,-0.2539,2.7615,6.4017,-1.5319,2.2685,-0.2915,-1.2685,1273,2019-08-07 16:20:06:673
-0.7769,-12.385,5.6431,2.7615,6.4017,-1.5319,2.2685,-0.2915,-1.2685,1277,2019-08-07 16:20:06:677
-0.7769,-12.385,5.6431,2.7615,6.4017,-1.5319,1.4472,0.484,-1.0981,1284,2019-08-07 16:20:06:684
-0.7769,-12.385,5.6431,2.7615,6.4017,-1.5319,1.4472,0.484,-1.0981,1287,2019-08-07 16:20:06:687
-0.9012,-8.9001,6.2087,2.7615,6.4017,-1.5319,1.4472,0.484,-1.0981,1293,2019-08-07 16:20:06:693
-0.9012,-8.9001,6.2087,4.0058,0.033,-3.1947,0.7739,0.6257,-0.7838,1297,2019-08-07 16:20:06:697
0.6919,-9.936,4.8511,4.0058,0.033,-3.1947,0.7739,0.6257,-0.7838,1303,2019-08-07 16:20:06:703
0.6919,-9.936,4.8511,4.0058,0.033,-3.1947,-0.0975,-0.1583,-0.6123,1308,2019-08-07 16:20:06:708
0.6919,-9.936,4.8511,1.4379,2.7709,-1.0518,-0.0975,-0.1583,-0.6123,1313,2019-08-07 16:20:06:713
2.376,-11.8169,3.5077,1.4379,2.7709,-1.0518,-0.3979,-0.7762,-0.6624,1319,2019-08-07 16:20:06:719
2.376,-11.8169,3.5077,1.4379,2.7709,-1.0518,-0.3979,-0.7762,-0.6624,1322,2019-08-07 16:20:06:722
4.06,-11.5018,2.1973,1.4379,2.7709,-1.0518,-0.4501,-1.2225,-0.6699,1328,2019-08-07 16:20:06:728
4.06,-11.5018,2.1973,-1.1135,2.1922,0.369,-0.4501,-1.2225,-0.6699,1333,2019-08-07 16:20:06:733
4.06,-11.5018,2.1973,-1.1135,2.1922,0.369,-0.2402,-1.3834,-0.5495,1338,2019-08-07 16:20:06:738
5.6293,-9.8357,1.6316,-1.1135,2.1922,0.369,-0.2402,-1.3834,-0.5495,1343,2019-08-07 16:20:06:743
5.6293,-9.8357,1.6316,-1.1135,2.1922,0.369,-0.0336,-1.2907,-0.3631,1349,2019-08-07 16:20:06:749
6.2416,-7.974,-0.6781,-2.4307,-0.7398,3.0828,-0.0336,-1.2907,-0.3631,1352,2019-08-07 16:20:06:752
6.2416,-7.974,-0.6781,-2.4307,-0.7398,3.0828,0.0634,-0.7165,0.0961,1358,2019-08-07 16:20:06:758
6.2416,-7.974,-0.6781,-2.4307,-0.7398,3.0828,0.0634,-0.7165,0.0961,1362,2019-08-07 16:20:06:762
6.2847,-7.1099,-1.6398,-2.4307,-0.7398,3.0828,-0.106,-0.0252,0.405,1368,2019-08-07 16:20:06:768
6.2847,-7.1099,-1.6398,-2.5364,-1.6224,3.7058,-0.106,-0.0252,0.405,1373,2019-08-07 16:20:06:773
6.2847,-7.1099,-1.6398,-2.5364,-1.6224,3.7058,-0.106,-0.0252,0.405,1377,2019-08-07 16:20:06:777
5.9976,-7.1481,-0.8007,-2.5364,-1.6224,3.7058,-0.3009,0.6332,0.486,1384,2019-08-07 16:20:06:784
5.9976,-7.1481,-0.8007,-2.5364,-1.6224,3.7058,-0.3009,0.6332,0.486,1387,2019-08-07 16:20:06:787
4.2179,-7.7448,0.8161,-0.2635,-0.7983,1.2948,-0.3361,1.0071,0.4955,1393,2019-08-07 16:20:06:793
4.2179,-7.7448,0.8161,-0.2635,-0.7983,1.2948,-0.3361,1.0071,0.4955,1399,2019-08-07 16:20:06:799
3.3615,-8.733,1.2828,-0.2635,-0.7983,1.2948,-0.2019,1.055,0.5467,1403,2019-08-07 16:20:06:803
3.3615,-8.733,1.2828,-0.2635,-0.7983,1.2948,-0.2019,1.055,0.5467,1408,2019-08-07 16:20:06:808
3.3615,-8.733,1.2828,0.5919,0.1247,0.7018,-0.1071,0.9602,0.5382,1412,2019-08-07 16:20:06:812
2.864,-8.9383,1.8155,0.5919,0.1247,0.7018,-0.1071,0.9602,0.5382,1418,2019-08-07 16:20:06:818
2.864,-8.9383,1.8155,0.5919,0.1247,0.7018,0.0186,0.6183,0.4551,1423,2019-08-07 16:20:06:823
2.864,-8.9383,1.8155,0.5919,0.1247,0.7018,0.0186,0.6183,0.4551,1428,2019-08-07 16:20:06:828
2.3616,-8.5182,2.4848,1.0361,-0.4293,-0.2097,0.0868,0.2944,0.405,1433,2019-08-07 16:20:06:833
2.3616,-8.5182,2.4848,1.0361,-0.4293,-0.2097,0.0868,0.2944,0.405,1438,2019-08-07 16:20:06:838
2.3616,-8.5182,2.4848,1.0361,-0.4293,-0.2097,0.0985,0.0025,0.3485,1442,2019-08-07 16:20:06:842
2.7348,-8.375,2.5084,1.0361,-0.4293,-0.2097,0.0985,0.0025,0.3485,1448,2019-08-07 16:20:06:848
2.7348,-8.375,2.5084,0.3307,-0.5353,0.1802,0.073,-0.1328,0.3006,1453,2019-08-07 16:20:06:853
3.1797,-8.4179,2.1313,0.3307,-0.5353,0.1802,0.073,-0.1328,0.3006,1458,2019-08-07 16:20:06:858
3.1797,-8.4179,2.1313,0.3307,-0.5353,0.1802,0.0261,-0.1839,0.2335,1463,2019-08-07 16:20:06:863
3.1797,-8.4179,2.1313,0.3307,-0.5353,0.1802,0.0261,-0.1839,0.2335,1469,2019-08-07 16:20:06:869
3.5146,-8.6375,2.1878,0.3307,-0.5353,0.1802,0.0218,-0.0763,0.1451,1472,2019-08-07 16:20:06:872
3.5146,-8.6375,2.1878,-0.2147,-0.1902,0.201,0.0218,-0.0763,0.1451,1478,2019-08-07 16:20:06:878
3.5146,-8.6375,2.1878,-0.2147,-0.1902,0.201,0.0431,0.0174,0.079,1483,2019-08-07 16:20:06:883
3.4381,-8.7091,2.3151,-0.2147,-0.1902,0.201,0.0431,0.0174,0.079,1488,2019-08-07 16:20:06:888
3.4381,-8.7091,2.3151,-0.0039,-0.2933,0.2053,0.0506,0.1037,0.0364,1493,2019-08-07 16:20:06:893
3.3472,-8.5659,2.235,-0.0039,-0.2933,0.2053,0.0506,0.1037,0.0364,1499,2019-08-07 16:20:06:899
3.3472,-8.5659,2.235,-0.0039,-0.2933,0.2053,0.0506,0.1037,0.0364,1503,2019-08-07 16:20:06:903
3.3472,-8.5659,2.235,-0.0039,-0.2933,0.2053,0.0123,0.1261,-0.0158,1508,2019-08-07 16:20:06:908
3.2993,-8.4704,2.4801,-0.0039,-0.2933,0.2053,0.0123,0.1261,-0.0158,1513,2019-08-07 16:20:06:913
3.2993,-8.4704,2.4801,0.117,-0.4631,-0.2067,-0.0027,0.0803,-0.0541,1518,2019-08-07 16:20:06:918
3.2993,-8.4704,2.4801,0.117,-0.4631,-0.2067,-0.0027,0.0803,-0.0541,1522,2019-08-07 16:20:06:922
3.084,-8.4657,2.6687,0.117,-0.4631,-0.2067,0.0016,0.0547,-0.1021,1528,2019-08-07 16:20:06:928
3.084,-8.4657,2.6687,0.117,-0.4631,-0.2067,0.0016,0.0547,-0.1021,1534,2019-08-07 16:20:06:934
2.9214,-8.4322,2.6639,0.4217,-0.4852,-0.224,0.0027,0.0143,-0.1308,1538,2019-08-07 16:20:06:938
2.9214,-8.4322,2.6639,0.4217,-0.4852,-0.224,0.0027,0.0143,-0.1308,1543,2019-08-07 16:20:06:943
2.9214,-8.4322,2.6639,0.4217,-0.4852,-0.224,0.0229,-0.0401,-0.133,1548,2019-08-07 16:20:06:948
2.8401,-8.5659,2.4848,0.4217,-0.4852,-0.224,0.0229,-0.0401,-0.133,1553,2019-08-07 16:20:06:953
2.8401,-8.5659,2.4848,0.4778,-0.2655,0.0156,0.0538,-0.0624,-0.1426,1558,2019-08-07 16:20:06:958
2.8975,-8.6471,2.499,0.4778,-0.2655,0.0156,0.0538,-0.0624,-0.1426,1563,2019-08-07 16:20:06:963
2.8975,-8.6471,2.499,0.4778,-0.2655,0.0156,0.0858,-0.0869,-0.166,1568,2019-08-07 16:20:06:968
2.8975,-8.6471,2.499,0.4778,-0.2655,0.0156,0.0858,-0.0869,-0.166,1573,2019-08-07 16:20:06:973
2.8496,-8.5086,2.5508,0.5602,-0.3561,-0.0961,0.1241,-0.1349,-0.1649,1578,2019-08-07 16:20:06:978
2.8496,-8.5086,2.5508,0.5602,-0.3561,-0.0961,0.1241,-0.1349,-0.1649,1584,2019-08-07 16:20:06:984
2.8496,-8.5086,2.5508,0.5602,-0.3561,-0.0961,0.1411,-0.2212,-0.1575,1588,2019-08-07 16:20:06:988
3.0075,-8.4704,2.6357,0.5602,-0.3561,-0.0961,0.1411,-0.2212,-0.1575,1592,2019-08-07 16:20:06:992
3.0075,-8.4704,2.6357,0.3759,-0.4055,-0.2481,0.1305,-0.2989,-0.1436,1598,2019-08-07 16:20:06:998
3.328,-8.5182,2.7771,0.3759,-0.4055,-0.2481,0.1305,-0.2989,-0.1436,1603,2019-08-07 16:20:07:003
3.328,-8.5182,2.7771,0.3759,-0.4055,-0.2481,0.1305,-0.2989,-0.1436,1608,2019-08-07 16:20:07:008
3.328,-8.5182,2.7771,0.3759,-0.4055,-0.2481,0.1166,-0.3298,-0.1234,1613,2019-08-07 16:20:07:013
3.9069,-8.7091,2.4895,-0.4212,-0.122,-0.0205,0.1166,-0.3298,-0.1234,1618,2019-08-07 16:20:07:018
3.9069,-8.7091,2.4895,-0.4212,-0.122,-0.0205,0.0687,-0.2425,-0.1042,1623,2019-08-07 16:20:07:023
3.9069,-8.7091,2.4895,-0.4212,-0.122,-0.0205,0.0687,-0.2425,-0.1042,1628,2019-08-07 16:20:07:028
4.4045,-8.8189,2.4094,-0.4212,-0.122,-0.0205,0.0229,-0.1232,-0.0722,1633,2019-08-07 16:20:07:033
4.4045,-8.8189,2.4094,-1.1022,0.0895,0.233,0.0229,-0.1232,-0.0722,1639,2019-08-07 16:20:07:039
4.4045,-8.8189,2.4094,-1.1022,0.0895,0.233,0.0229,-0.1232,-0.0722,1642,2019-08-07 16:20:07:042
4.7251,-8.9669,2.3104,-1.1022,0.0895,0.233,-0.0272,0.1016,-0.0307,1648,2019-08-07 16:20:07:048
4.7251,-8.9669,2.3104,-1.1022,0.0895,0.233,-0.0272,0.1016,-0.0307,1653,2019-08-07 16:20:07:053
4.4332,-8.8332,2.5131,-0.9102,0.0157,-0.0484,-0.0634,0.2774,0.0258,1658,2019-08-07 16:20:07:058
4.4332,-8.8332,2.5131,-0.9102,0.0157,-0.0484,-0.0634,0.2774,0.0258,1663,2019-08-07 16:20:07:063
4.0026,-8.7903,2.7535,-0.9102,0.0157,-0.0484,-0.0847,0.3402,0.0769,1669,2019-08-07 16:20:07:069
4.0026,-8.7903,2.7535,-0.9102,0.0157,-0.0484,-0.0847,0.3402,0.0769,1672,2019-08-07 16:20:07:072
4.0026,-8.7903,2.7535,-0.1412,-0.0821,-0.4857,-0.0815,0.3072,0.1184,1678,2019-08-07 16:20:07:078
3.4333,-8.7807,2.9703,-0.1412,-0.0821,-0.4857,-0.0815,0.3072,0.1184,1683,2019-08-07 16:20:07:083
3.4333,-8.7807,2.9703,-0.1412,-0.0821,-0.4857,-0.0634,0.1922,0.1504,1688,2019-08-07 16:20:07:088
3.4333,-8.7807,2.9703,-0.1412,-0.0821,-0.4857,-0.0634,0.1922,0.1504,1693,2019-08-07 16:20:07:093
3.1606,-8.6662,3.2343,0.2992,-0.171,-0.7504,-0.0495,0.0718,0.1547,1698,2019-08-07 16:20:07:098
3.1606,-8.6662,3.2343,0.2992,-0.171,-0.7504,-0.0495,0.0718,0.1547,1703,2019-08-07 16:20:07:103
3.1606,-8.6662,3.2343,0.2992,-0.171,-0.7504,-0.0495,0.0718,0.1547,1708,2019-08-07 16:20:07:108
3.2324,-8.542,2.9986,0.2992,-0.171,-0.7504,-0.0517,-0.0646,0.1504,1713,2019-08-07 16:20:07:113
3.2324,-8.542,2.9986,0.1282,-0.3696,-0.2569,-0.0517,-0.0646,0.1504,1717,2019-08-07 16:20:07:117
3.2324,-8.542,2.9986,0.1282,-0.3696,-0.2569,-0.0783,-0.0614,0.1227,1723,2019-08-07 16:20:07:123
3.3376,-8.5516,2.4754,0.1282,-0.3696,-0.2569,-0.0783,-0.0614,0.1227,1728,2019-08-07 16:20:07:128
3.3376,-8.5516,2.4754,0.1282,-0.3696,-0.2569,-0.122,-0.0241,0.1003,1733,2019-08-07 16:20:07:133
3.3376,-8.5516,2.4754,0.034,-0.0528,-0.1032,-0.122,-0.0241,0.1003,1738,2019-08-07 16:20:07:138
3.4237,-8.8762,2.4754,0.034,-0.0528,-0.1032,-0.1539,0.0111,0.079,1743,2019-08-07 16:20:07:143
3.4237,-8.8762,2.4754,0.034,-0.0528,-0.1032,-0.1539,0.0111,0.079,1748,2019-08-07 16:20:07:148
3.5386,-9.2533,2.2916,0.034,-0.0528,-0.1032,-0.1678,0.0984,0.0503,1753,2019-08-07 16:20:07:153
3.5386,-9.2533,2.2916,0.034,-0.0528,-0.1032,-0.1678,0.0984,0.0503,1759,2019-08-07 16:20:07:159
3.5386,-9.2533,2.2916,-0.1571,0.4024,0.0829,-0.1603,0.1783,0.029,1762,2019-08-07 16:20:07:162
3.6055,-9.2915,2.3057,-0.1571,0.4024,0.0829,-0.1603,0.1783,0.029,1768,2019-08-07 16:20:07:168
3.6055,-9.2915,2.3057,-0.1571,0.4024,0.0829,-0.1262,0.2507,0.0108,1773,2019-08-07 16:20:07:173
3.6055,-9.2915,2.3057,-0.1571,0.4024,0.0829,-0.1262,0.2507,0.0108,1778,2019-08-07 16:20:07:178
3.3711,-9.0147,2.3293,-0.0753,0.1646,0.1364,-0.0921,0.2305,0.0066,1783,2019-08-07 16:20:07:183
3.3711,-9.0147,2.3293,-0.0753,0.1646,0.1364,-0.0921,0.2305,0.0066,1788,2019-08-07 16:20:07:188
3.3711,-9.0147,2.3293,-0.0753,0.1646,0.1364,-0.0921,0.2305,0.0066,1792,2019-08-07 16:20:07:192
3.1558,-8.7951,2.6734,0.1716,-0.2074,-0.1372,-0.0549,0.1133,0.014,1799,2019-08-07 16:20:07:199
3.1558,-8.7951,2.6734,0.1716,-0.2074,-0.1372,-0.0549,0.1133,0.014,1803,2019-08-07 16:20:07:203
3.3281,-8.6996,2.5037,0.1716,-0.2074,-0.1372,-0.0208,-0.0827,0.0385,1809,2019-08-07 16:20:07:209
3.3281,-8.6996,2.5037,0.1716,-0.2074,-0.1372,-0.0208,-0.0827,0.0385,1813,2019-08-07 16:20:07:213
3.3281,-8.6996,2.5037,0.1716,-0.2074,-0.1372,0.0048,-0.2116,0.0439,1817,2019-08-07 16:20:07:217
3.6103,-8.5946,2.2209,-0.2358,-0.2963,0.188,0.0048,-0.2116,0.0439,1823,2019-08-07 16:20:07:223
3.6103,-8.5946,2.2209,-0.2358,-0.2963,0.188,0.0336,-0.2947,0.0481,1828,2019-08-07 16:20:07:228
3.8113,-8.6757,2.0889,-0.2358,-0.2963,0.188,0.0336,-0.2947,0.0481,1834,2019-08-07 16:20:07:234
3.8113,-8.6757,2.0889,-0.2358,-0.2963,0.188,0.0336,-0.2947,0.0481,1838,2019-08-07 16:20:07:238
3.9548,-8.6853,1.8673,-0.49,-0.2063,0.4459,0.0613,-0.3181,0.0609,1843,2019-08-07 16:20:07:243
3.9548,-8.6853,1.8673,-0.49,-0.2063,0.4459,0.0613,-0.3181,0.0609,1849,2019-08-07 16:20:07:249
3.9548,-8.6853,1.8673,-0.49,-0.2063,0.4459,0.0581,-0.2627,0.0588,1853,2019-08-07 16:20:07:253
4.0983,-8.776,1.8343,-0.49,-0.2063,0.4459,0.0581,-0.2627,0.0588,1858,2019-08-07 16:20:07:258
4.0983,-8.776,1.8343,-0.7214,-0.1018,0.5793,0.0474,-0.1743,0.0503,1863,2019-08-07 16:20:07:263
4.0983,-8.776,1.8343,-0.7214,-0.1018,0.5793,0.0474,-0.1743,0.0503,1869,2019-08-07 16:20:07:269
4.0409,-8.8523,1.7683,-0.7214,-0.1018,0.5793,0.0453,-0.0071,0.0385,1872,2019-08-07 16:20:07:272
4.0409,-8.8523,1.7683,-0.7214,-0.1018,0.5793,0.0453,-0.0071,0.0385,1878,2019-08-07 16:20:07:278
4.0409,-8.8523,1.7683,-0.4103,-0.078,0.4796,0.0431,0.0782,0.0247,1883,2019-08-07 16:20:07:283
3.5965,-8.7951,1.9617,-0.4103,-0.078,0.4796,0.0431,0.0782,0.0247,1888,2019-08-07 16:20:07:288
3.5965,-8.7951,1.9617,-0.4103,-0.078,0.4796,0.0431,0.0782,0.0247,1893,2019-08-07 16:20:07:293
3.2186,-8.8428,2.4755,-0.4103,-0.078,0.4796,0.0655,0.1218,0.0151,1898,2019-08-07 16:20:07:298
3.2186,-8.8428,2.4755,0.2414,-0.0291,-0.2358,0.0655,0.1218,0.0151,1903,2019-08-07 16:20:07:303
3.2186,-8.8428,2.4755,0.2414,-0.0291,-0.2358,0.0836,0.0824,0.0077,1908,2019-08-07 16:20:07:308
2.9985,-8.8381,2.6829,0.2414,-0.0291,-0.2358,0.0836,0.0824,0.0077,1913,2019-08-07 16:20:07:313
2.9985,-8.8381,2.6829,0.2414,-0.0291,-0.2358,0.0804,-0.0071,2.0E-4,1918,2019-08-07 16:20:07:318
2.9985,-8.8381,2.6829,0.3123,-0.107,-0.2298,0.0804,-0.0071,2.0E-4,1923,2019-08-07 16:20:07:323
3.0846,-8.776,2.6311,0.3123,-0.107,-0.2298,0.0676,-0.0827,-0.0222,1928,2019-08-07 16:20:07:328
3.0846,-8.776,2.6311,0.3123,-0.107,-0.2298,0.0676,-0.0827,-0.0222,1933,2019-08-07 16:20:07:333
3.0846,-8.776,2.6311,0.3123,-0.107,-0.2298,0.0538,-0.121,-0.036,1938,2019-08-07 16:20:07:338
3.1181,-8.7999,2.7159,0.267,-0.0829,-0.2927,0.0538,-0.121,-0.036,1943,2019-08-07 16:20:07:343
3.1181,-8.7999,2.7159,0.267,-0.0829,-0.2927,0.0378,-0.1636,-0.0371,1948,2019-08-07 16:20:07:348
3.2473,-8.7808,2.6264,0.267,-0.0829,-0.2927,0.0378,-0.1636,-0.0371,1953,2019-08-07 16:20:07:353
3.2473,-8.7808,2.6264,0.267,-0.0829,-0.2927,0.0378,-0.1636,-0.0371,1958,2019-08-07 16:20:07:358
3.2473,-8.7808,2.6264,0.0225,-0.0164,-0.1684,0.0229,-0.1999,-0.0307,1963,2019-08-07 16:20:07:363
3.5057,-8.8285,2.5792,0.0225,-0.0164,-0.1684,0.0229,-0.1999,-0.0307,1968,2019-08-07 16:20:07:368
3.5057,-8.8285,2.5792,0.0225,-0.0164,-0.1684,0.0293,-0.2158,-0.035,1973,2019-08-07 16:20:07:373
3.7688,-8.819,2.5368,0.0225,-0.0164,-0.1684,0.0293,-0.2158,-0.035,1978,2019-08-07 16:20:07:378
3.7688,-8.819,2.5368,-0.3898,-0.0832,-0.0398,0.0421,-0.2009,-0.0381,1983,2019-08-07 16:20:07:383
3.7688,-8.819,2.5368,-0.3898,-0.0832,-0.0398,0.0421,-0.2009,-0.0381,1988,2019-08-07 16:20:07:388
3.9123,-8.6662,2.419,-0.3898,-0.0832,-0.0398,0.0527,-0.1466,-0.0392,1993,2019-08-07 16:20:07:393
3.9123,-8.6662,2.419,-0.3898,-0.0832,-0.0398,0.0527,-0.1466,-0.0392,1999,2019-08-07 16:20:07:399
3.9123,-8.6662,2.419,-0.5433,-0.2723,-0.0561,0.0527,-0.1466,-0.0392,2002,2019-08-07 16:20:07:402
4.0463,-8.5994,2.5038,-0.5433,-0.2723,-0.0561,0.0591,-0.1189,-0.0264,2008,2019-08-07 16:20:07:408
4.0463,-8.5994,2.5038,-0.5979,-0.2259,-0.1202,0.0591,-0.0603,-0.0254,2013,2019-08-07 16:20:07:413
4.0367,-8.6328,2.5462,-0.5979,-0.2259,-0.1202,0.0655,-0.0603,-0.0254,2018,2019-08-07 16:20:07:418
4.0367,-8.6328,2.5462,-0.5979,-0.2259,-0.1202,0.0634,-0.0134,-0.02,2023,2019-08-07 16:20:07:423
4.0367,-8.6328,2.5462,-0.5979,-0.2259,-0.1202,0.0634,-0.0134,-0.02,2028,2019-08-07 16:20:07:428
3.8645,-8.6567,2.4001,-0.3588,-0.1241,0.0777,0.0634,-0.0134,-0.02,2034,2019-08-07 16:20:07:434
3.8645,-8.6567,2.4001,-0.3588,-0.1241,0.0777,0.0357,0.0185,0.0023,2038,2019-08-07 16:20:07:438
3.7066,-8.9765,2.5368,-0.2532,0.1204,-0.112,0.0357,0.0185,0.0023,2043,2019-08-07 16:20:07:443
3.7066,-8.9765,2.5368,-0.2532,0.1204,-0.112,0.0197,0.0366,-9.0E-4,2048,2019-08-07 16:20:07:448
3.7066,-8.9765,2.5368,-0.2532,0.1204,-0.112,0.0197,0.0366,-9.0E-4,2054,2019-08-07 16:20:07:454
3.4005,-9.1866,2.6971,-0.2532,0.1204,-0.112,0.0293,0.0132,-0.0041,2058,2019-08-07 16:20:07:458
3.4005,-9.1866,2.6971,0.1376,0.3414,-0.3169,0.0293,0.0132,-0.0041,2062,2019-08-07 16:20:07:462
3.4005,-9.1866,2.6971,0.1376,0.3414,-0.3169,0.0336,-0.0316,-9.0E-4,2068,2019-08-07 16:20:07:468
3.3,-9.0672,2.6169,0.1376,0.3414,-0.3169,0.0336,-0.0316,-9.0E-4,2073,2019-08-07 16:20:07:473
3.3,-9.0672,2.6169,0.1376,0.3414,-0.3169,0.024,-0.0838,0.0077,2077,2019-08-07 16:20:07:477
3.4148,-8.9336,2.6169,0.0376,0.0799,-0.182,0.024,-0.0838,0.0077,2084,2019-08-07 16:20:07:484
3.4148,-8.9336,2.6169,0.0376,0.0799,-0.182,0.024,-0.0838,0.0077,2087,2019-08-07 16:20:07:487
3.4148,-8.9336,2.6169,0.0376,0.0799,-0.182,0.0272,-0.1253,0.0162,2093,2019-08-07 16:20:07:493
3.5966,-8.8476,2.5981,0.0376,0.0799,-0.182,0.0272,-0.1253,0.0162,2098,2019-08-07 16:20:07:498
3.5966,-8.8476,2.5981,-0.2932,-0.1005,-0.1699,0.0272,-0.1253,0.0162,2103,2019-08-07 16:20:07:503
3.5966,-8.8476,2.5981,-0.2932,-0.1005,-0.1699,0.0378,-0.1338,0.0268,2108,2019-08-07 16:20:07:508
3.7641,-8.628,2.4284,-0.2932,-0.1005,-0.1699,0.0399,-0.1285,0.0407,2114,2019-08-07 16:20:07:514
3.7641,-8.628,2.4284,-0.2932,-0.1005,-0.1699,0.0399,-0.1285,0.0407,2117,2019-08-07 16:20:07:517
3.9124,-8.6471,2.6735,-0.4535,-0.2048,-0.2415,0.0399,-0.1285,0.0407,2123,2019-08-07 16:20:07:523
3.9124,-8.6471,2.6735,-0.4535,-0.2048,-0.2415,0.0421,-0.0869,0.0449,2128,2019-08-07 16:20:07:528
3.9124,-8.6471,2.6735,-0.4535,-0.2048,-0.2415,0.0421,-0.0869,0.0449,2133,2019-08-07 16:20:07:533
3.8933,-8.6376,2.4614,-0.4535,-0.2048,-0.2415,0.0325,-0.0156,0.0545,2138,2019-08-07 16:20:07:538
3.8933,-8.6376,2.4614,-0.3416,-0.2432,0.1673,0.0325,-0.0156,0.0545,2143,2019-08-07 16:20:07:543
3.8933,-8.6376,2.4614,-0.3416,-0.2432,0.1673,0.0325,-0.0156,0.0545,2148,2019-08-07 16:20:07:548
3.7498,-8.671,2.2257,-0.3416,-0.2432,0.1673,0.0154,0.0643,0.062,2152,2019-08-07 16:20:07:552
3.7498,-8.671,2.2257,-0.3416,-0.2432,0.1673,0.0154,0.0643,0.062,2158,2019-08-07 16:20:07:558
3.4818,-8.776,2.3813,-0.3416,-0.2432,0.1673,0.0101,0.124,0.0545,2163,2019-08-07 16:20:07:563
3.4818,-8.776,2.3813,0.1092,-0.0743,0.0291,0.0101,0.124,0.0545,2169,2019-08-07 16:20:07:569
3.4818,-8.776,2.3813,0.1092,-0.0743,0.0291,0.0101,0.124,0.0545,2172,2019-08-07 16:20:07:572
3.0513,-8.862,2.419,0.1092,-0.0743,0.0291,0.0272,0.1495,0.0343,2178,2019-08-07 16:20:07:578
3.0513,-8.862,2.419,0.4953,-0.0192,-0.126,0.0272,0.1495,0.0343,2183,2019-08-07 16:20:07:583
2.8551,-8.7903,2.7065,0.4953,-0.0192,-0.126,0.0325,0.0792,0.0013,2188,2019-08-07 16:20:07:588
2.8551,-8.7903,2.7065,0.4953,-0.0192,-0.126,0.0325,0.0792,0.0013,2193,2019-08-07 16:20:07:593
2.8551,-8.7903,2.7065,0.4953,-0.0192,-0.126,0.041,-0.0102,-0.0286,2198,2019-08-07 16:20:07:598
3.0226,-8.5946,2.8432,0.3266,-0.2789,-0.2653,0.041,-0.0102,-0.0286,2203,2019-08-07 16:20:07:603
3.0226,-8.5946,2.8432,0.3266,-0.2789,-0.2653,0.041,-0.0102,-0.0286,2208,2019-08-07 16:20:07:608
3.0226,-8.5946,2.8432,0.3266,-0.2789,-0.2653,0.0399,-0.1083,-0.0648,2212,2019-08-07 16:20:07:612
3.3336,-8.3989,2.6971,0.0999,-0.4521,-0.2259,0.0399,-0.1083,-0.0648,2219,2019-08-07 16:20:07:619
3.3336,-8.3989,2.6971,0.0999,-0.4521,-0.2259,0.0133,-0.1636,-0.0818,2222,2019-08-07 16:20:07:622
3.6254,-8.3225,2.6547,0.0999,-0.4521,-0.2259,0.0133,-0.1636,-0.0818,2228,2019-08-07 16:20:07:628
3.6254,-8.3225,2.6547,0.0999,-0.4521,-0.2259,-0.0101,-0.1775,-0.0701,2234,2019-08-07 16:20:07:634
3.6254,-8.3225,2.6547,-0.292,-0.4973,-0.078,-0.0101,-0.1775,-0.0701,2237,2019-08-07 16:20:07:637
3.8503,-8.3559,2.584,-0.292,-0.4973,-0.078,-0.0368,-0.1881,-0.0477,2243,2019-08-07 16:20:07:643
3.8503,-8.3559,2.584,-0.292,-0.4973,-0.078,-0.0368,-0.1881,-0.0477,2248,2019-08-07 16:20:07:648
3.9029,-8.5851,2.353,-0.292,-0.4973,-0.078,-0.0368,-0.1881,-0.0477,2252,2019-08-07 16:20:07:652
3.9029,-8.5851,2.353,-0.5097,-0.2366,0.1191,-0.0602,-0.202,-0.02,2258,2019-08-07 16:20:07:658
3.9029,-8.5851,2.353,-0.5097,-0.2366,0.1191,-0.0602,-0.202,-0.02,2263,2019-08-07 16:20:07:663
4.1661,-8.7999,2.287,-0.5097,-0.2366,0.1191,-0.0602,-0.1786,-0.0105,2268,2019-08-07 16:20:07:668
4.1661,-8.7999,2.287,-0.5097,-0.2366,0.1191,-0.0602,-0.1786,-0.0105,2273,2019-08-07 16:20:07:673
4.3431,-8.8715,2.0042,-0.8385,0.0636,0.415,-0.0399,-0.0816,-0.0051,2278,2019-08-07 16:20:07:678
4.3431,-8.8715,2.0042,-0.8385,0.0636,0.415,-0.0399,-0.0816,-0.0051,2283,2019-08-07 16:20:07:683
4.3431,-8.8715,2.0042,-0.8385,0.0636,0.415,-5.0E-4,0.1048,0.0023,2288,2019-08-07 16:20:07:688
4.3431,-8.8715,2.0042,-0.8385,0.0636,0.415,-5.0E-4,0.1048,0.0023,2292,2019-08-07 16:20:07:692
4.0178,-8.7235,1.9523,-0.4525,-0.1411,0.4311,0.0197,0.2177,0.0045,2299,2019-08-07 16:20:07:699
4.0178,-8.7235,1.9523,-0.4525,-0.1411,0.4311,0.0197,0.2177,0.0045,2303,2019-08-07 16:20:07:703
4.0178,-8.7235,1.9523,-0.4525,-0.1411,0.4311,0.0197,0.2177,0.0045,2308,2019-08-07 16:20:07:708
3.4963,-8.6806,2.32,-0.4525,-0.1411,0.4311,0.0304,0.2571,0.0034,2313,2019-08-07 16:20:07:713
3.4963,-8.6806,2.32,0.2061,-0.116,-0.0858,0.0304,0.2571,0.0034,2318,2019-08-07 16:20:07:718
3.1327,-8.6901,2.6735,0.2061,-0.116,-0.0858,0.0197,0.1783,-0.0136,2323,2019-08-07 16:20:07:723
3.1327,-8.6901,2.6735,0.2061,-0.116,-0.0858,0.0197,0.1783,-0.0136,2328,2019-08-07 16:20:07:728
3.1327,-8.6901,2.6735,0.2061,-0.116,-0.0858,0.0069,0.0462,-0.0296,2333,2019-08-07 16:20:07:733
3.0753,-8.6185,2.8668,0.4067,-0.2189,-0.4149,0.0069,0.0462,-0.0296,2338,2019-08-07 16:20:07:738
3.0753,-8.6185,2.8668,0.4067,-0.2189,-0.4149,5.0E-4,-0.0923,-0.0413,2343,2019-08-07 16:20:07:743
3.0753,-8.6185,2.8668,0.4067,-0.2189,-0.4149,5.0E-4,-0.0923,-0.0413,2349,2019-08-07 16:20:07:749
3.2427,-8.5851,2.6641,0.4067,-0.2189,-0.4149,-0.0314,-0.2148,-0.0445,2353,2019-08-07 16:20:07:753
3.2427,-8.5851,2.6641,0.0604,-0.2687,-0.1259,-0.0314,-0.2148,-0.0445,2358,2019-08-07 16:20:07:758
3.5681,-8.6137,2.4379,0.0604,-0.2687,-0.1259,-0.0314,-0.2148,-0.0445,2364,2019-08-07 16:20:07:764
3.5681,-8.6137,2.4379,0.0604,-0.2687,-0.1259,-0.0602,-0.2467,-0.036,2368,2019-08-07 16:20:07:768
3.5681,-8.6137,2.4379,0.0604,-0.2687,-0.1259,-0.0602,-0.2467,-0.036,2373,2019-08-07 16:20:07:773
3.9604,-8.6997,2.2634,-0.4457,-0.1347,0.1527,-0.0666,-0.1903,-0.0254,2378,2019-08-07 16:20:07:778
3.9604,-8.6997,2.2634,-0.4457,-0.1347,0.1527,-0.0666,-0.1903,-0.0254,2384,2019-08-07 16:20:07:784
3.9604,-8.6997,2.2634,-0.4457,-0.1347,0.1527,-0.0666,-0.1903,-0.0254,2387,2019-08-07 16:20:07:787
4.08,-8.8238,2.1456,-0.4457,-0.1347,0.1527,-0.0602,-0.0774,2.0E-4,2393,2019-08-07 16:20:07:793
4.08,-8.8238,2.1456,-0.5734,0.0357,0.3622,-0.0485,0.0505,0.0013,2399,2019-08-07 16:20:07:799
4.013,-8.8286,2.0655,-0.5734,0.0357,0.3622,-0.0485,0.0505,0.0013,2403,2019-08-07 16:20:07:803
4.013,-8.8286,2.0655,-0.5734,0.0357,0.3622,-0.0485,0.0505,0.0013,2408,2019-08-07 16:20:07:808
4.013,-8.8286,2.0655,-0.5734,0.0357,0.3622,-0.0346,0.1165,-0.003,2413,2019-08-07 16:20:07:813
3.659,-8.7092,2.3059,-0.1395,-0.123,0.1242,-0.0197,0.1293,-0.0019,2419,2019-08-07 16:20:07:819
3.659,-8.7092,2.3059,-0.1395,-0.123,0.1242,-0.0197,0.1293,-0.0019,2422,2019-08-07 16:20:07:822
3.5011,-8.7522,2.4284,-0.1395,-0.123,0.1242,-0.0197,0.1293,-0.0019,2428,2019-08-07 16:20:07:828
3.5011,-8.7522,2.4284,0.0255,-0.128,-0.0287,-0.0101,0.1027,-0.0115,2433,2019-08-07 16:20:07:833
3.5011,-8.7522,2.4284,0.0255,-0.128,-0.0287,-0.0101,0.1027,-0.0115,2438,2019-08-07 16:20:07:838
3.3624,-8.7283,2.7254,0.0255,-0.128,-0.0287,-0.0101,0.1027,-0.0115,2443,2019-08-07 16:20:07:843
3.3624,-8.7283,2.7254,0.1976,-0.2029,-0.2822,-0.0037,0.0356,-0.036,2448,2019-08-07 16:20:07:848
3.372,-8.6471,2.5604,0.1976,-0.2029,-0.2822,-0.0037,0.0356,-0.036,2453,2019-08-07 16:20:07:853
3.372,-8.6471,2.5604,0.1976,-0.2029,-0.2822,-0.0112,-0.0411,-0.0477,2457,2019-08-07 16:20:07:857
3.372,-8.6471,2.5604,0.0394,-0.1917,-0.08,-0.0112,-0.0411,-0.0477,2463,2019-08-07 16:20:07:863
3.5586,-8.6615,2.4944,0.0394,-0.1917,-0.08,-0.0314,-0.0646,-0.0552,2468,2019-08-07 16:20:07:868
3.5586,-8.6615,2.4944,0.0394,-0.1917,-0.08,-0.0314,-0.0646,-0.0552,2473,2019-08-07 16:20:07:873
3.5586,-8.6615,2.4944,0.0394,-0.1917,-0.08,-0.0474,-0.0614,-0.0541,2478,2019-08-07 16:20:07:878
3.726,-8.6281,2.419,-0.1861,-0.203,-0.028,-0.0474,-0.0614,-0.0541,2483,2019-08-07 16:20:07:883
3.726,-8.6281,2.419,-0.1861,-0.203,-0.028,-0.0517,-0.0401,-0.0392,2488,2019-08-07 16:20:07:888
3.8696,-8.8047,2.3247,-0.1861,-0.203,-0.028,-0.0517,-0.0401,-0.0392,2493,2019-08-07 16:20:07:893
3.8696,-8.8047,2.3247,-0.3271,-0.1158,0.0343,-0.0559,-0.0156,-0.0467,2498,2019-08-07 16:20:07:898
3.8696,-8.8047,2.3247,-0.3271,-0.1158,0.0343,-0.0559,-0.0156,-0.0467,2503,2019-08-07 16:20:07:903
3.8074,-8.6949,2.4284,-0.3271,-0.1158,0.0343,-0.0559,-0.0156,-0.0467,2508,2019-08-07 16:20:07:908
3.8074,-8.6949,2.4284,-0.226,-0.1294,-0.0326,-0.0517,-0.0284,-0.0307,2513,2019-08-07 16:20:07:913
3.8074,-8.6949,2.4284,-0.226,-0.1294,-0.0326,-0.0517,-0.0284,-0.0307,2518,2019-08-07 16:20:07:918
3.8696,-8.7474,2.3295,-0.226,-0.1294,-0.0326,-0.0293,-0.0358,-0.0147,2523,2019-08-07 16:20:07:923
3.8696,-8.7474,2.3295,-0.2523,-0.1387,0.1036,-0.0293,-0.0358,-0.0147,2528,2019-08-07 16:20:07:928
3.817,-8.7092,2.2493,-0.2523,-0.1387,0.1036,-0.0133,-0.023,-0.0105,2533,2019-08-07 16:20:07:933
3.817,-8.7092,2.2493,-0.2523,-0.1387,0.1036,-0.0133,-0.023,-0.0105,2538,2019-08-07 16:20:07:938
3.817,-8.7092,2.2493,-0.2523,-0.1387,0.1036,-0.0133,-0.023,-0.0105,2543,2019-08-07 16:20:07:943
3.8457,-8.7044,2.3247,-0.2376,-0.0992,0.0064,0.008,-0.0134,-0.0115,2549,2019-08-07 16:20:07:949
3.8457,-8.7044,2.3247,-0.2376,-0.0992,0.0064,0.008,-0.0134,-0.0115,2553,2019-08-07 16:20:07:953
3.75,-8.6758,2.2965,-0.2376,-0.0992,0.0064,0.0133,0.0217,-0.0211,2558,2019-08-07 16:20:07:958
3.75,-8.6758,2.2965,-0.2376,-0.0992,0.0064,0.0133,0.0217,-0.0211,2564,2019-08-07 16:20:07:964
3.75,-8.6758,2.2965,-0.2376,-0.0992,0.0064,0.0133,0.0217,-0.0211,2568,2019-08-07 16:20:07:968
3.5969,-8.6567,2.3247,-0.0235,-0.1686,0.0378,-0.0048,0.0515,-0.02,2573,2019-08-07 16:20:07:973
3.5969,-8.6567,2.3247,-0.0235,-0.1686,0.0378,-0.0048,0.0515,-0.02,2578,2019-08-07 16:20:07:978
3.506,-8.7379,2.5133,-0.0235,-0.1686,0.0378,-0.0208,0.0345,-0.0243,2583,2019-08-07 16:20:07:983
3.506,-8.7379,2.5133,0.1031,-0.0147,-0.1925,-0.0208,0.0345,-0.0243,2588,2019-08-07 16:20:07:988
3.4534,-8.8333,2.4992,0.1031,-0.0147,-0.1925,-0.0261,-0.0039,-0.0318,2593,2019-08-07 16:20:07:993
3.4534,-8.8333,2.4992,0.1031,-0.0147,-0.1925,-0.0261,-0.0039,-0.0318,2598,2019-08-07 16:20:07:998
3.4534,-8.8333,2.4992,0.0916,0.0336,-0.1475,-0.0261,-0.0039,-0.0318,2603,2019-08-07 16:20:08:003
3.4869,-8.8763,2.419,0.0916,0.0336,-0.1475,-0.0282,-0.0475,-0.0403,2608,2019-08-07 16:20:08:008
3.4869,-8.8763,2.419,0.0916,0.0336,-0.1475,-0.0282,-0.0475,-0.0403,2613,2019-08-07 16:20:08:013
3.5874,-8.8429,2.386,0.0916,0.0336,-0.1475,-0.0272,-0.1125,-0.0413,2618,2019-08-07 16:20:08:018
3.5874,-8.8429,2.386,-0.0415,-0.022,0.0032,-0.0272,-0.1125,-0.0413,2623,2019-08-07 16:20:08:023
3.5874,-8.8429,2.386,-0.0415,-0.022,0.0032,-0.0101,-0.1317,-0.0413,2628,2019-08-07 16:20:08:028
3.8266,-8.862,2.3248,-0.2303,0.0413,0.0201,-0.0101,-0.1317,-0.0413,2634,2019-08-07 16:20:08:034
3.8266,-8.862,2.3248,-0.2303,0.0413,0.0201,-0.0101,-0.1317,-0.0413,2637,2019-08-07 16:20:08:037
3.8266,-8.862,2.3248,-0.2303,0.0413,0.0201,0.0176,-0.1274,-0.0488,2643,2019-08-07 16:20:08:043
3.9031,-8.7426,2.2588,-0.2303,0.0413,0.0201,0.0176,-0.1274,-0.0488,2648,2019-08-07 16:20:08:048
3.9031,-8.7426,2.2588,-0.3814,-0.1591,-0.001,0.0399,-0.1083,-0.0445,2653,2019-08-07 16:20:08:053
3.9031,-8.7426,2.2588,-0.3814,-0.1591,-0.001,0.0399,-0.1083,-0.0445,2658,2019-08-07 16:20:08:058
4.0084,-8.6472,2.2776,-0.3814,-0.1591,-0.001,0.0517,-0.0763,-0.0424,2663,2019-08-07 16:20:08:063
4.0084,-8.6472,2.2776,-0.3814,-0.1591,-0.001,0.0517,-0.0763,-0.0424,2668,2019-08-07 16:20:08:068
4.0515,-8.6328,2.2918,-0.4201,-0.1713,0.0505,0.057,0.0025,-0.035,2673,2019-08-07 16:20:08:073
4.0515,-8.6328,2.2918,-0.4201,-0.1713,0.0505,0.057,0.0025,-0.035,2678,2019-08-07 16:20:08:078
3.8936,-8.6328,2.386,-0.4201,-0.1713,0.0505,0.0431,0.0579,-0.0275,2684,2019-08-07 16:20:08:084
3.8936,-8.6328,2.386,-0.4201,-0.1713,0.0505,0.0431,0.0579,-0.0275,2688,2019-08-07 16:20:08:088
3.8936,-8.6328,2.386,-0.1614,-0.1278,-0.1591,0.0272,0.0867,-0.0179,2693,2019-08-07 16:20:08:093
3.64,-8.6901,2.5935,-0.1614,-0.1278,-0.1591,0.0272,0.0867,-0.0179,2698,2019-08-07 16:20:08:098
3.64,-8.6901,2.5935,-0.1614,-0.1278,-0.1591,0.0091,0.0664,-0.0051,2703,2019-08-07 16:20:08:103
3.64,-8.6901,2.5935,-0.1614,-0.1278,-0.1591,0.0091,0.0664,-0.0051,2708,2019-08-07 16:20:08:108
3.5539,-8.7808,2.6594,0.0278,0.0217,-0.3056,-0.0133,0.027,0.0045,2714,2019-08-07 16:20:08:114
3.5539,-8.7808,2.6594,0.0278,0.0217,-0.3056,-0.0133,0.027,0.0045,2717,2019-08-07 16:20:08:117
3.6448,-8.7713,2.5463,0.0278,0.0217,-0.3056,-0.0325,-0.0156,0.0077,2723,2019-08-07 16:20:08:123
3.6448,-8.7713,2.5463,0.0278,0.0217,-0.3056,-0.0325,-0.0156,0.0077,2728,2019-08-07 16:20:08:128
3.6448,-8.7713,2.5463,-0.0879,-0.0702,-0.0588,-0.0336,-0.0156,0.0055,2733,2019-08-07 16:20:08:133
3.7166,-8.7474,2.4662,-0.0879,-0.0702,-0.0588,-0.0336,-0.0156,0.0055,2738,2019-08-07 16:20:08:138
3.7166,-8.7474,2.4662,-0.0879,-0.0702,-0.0588,-0.0336,-0.0156,0.0055,2743,2019-08-07 16:20:08:143
3.7166,-8.7474,2.4662,-0.0879,-0.0702,-0.0588,-0.0261,-0.0124,0.0013,2748,2019-08-07 16:20:08:148
3.7692,-8.7045,2.3625,-0.1349,-0.0569,-0.0214,-0.0261,-0.0124,0.0013,2753,2019-08-07 16:20:08:153
3.7692,-8.7045,2.3625,-0.1349,-0.0569,-0.0214,-0.0123,-0.0071,0.0023,2758,2019-08-07 16:20:08:158
3.7071,-8.7952,2.3483,-0.1349,-0.0569,-0.0214,-0.0123,-0.0071,0.0023,2764,2019-08-07 16:20:08:164
3.7071,-8.7952,2.3483,-0.1349,-0.0569,-0.0214,-5.0E-4,0.0079,0.0034,2767,2019-08-07 16:20:08:167
3.7071,-8.7952,2.3483,-0.039,-0.0332,0.0578,-5.0E-4,0.0079,0.0034,2773,2019-08-07 16:20:08:173
3.6401,-8.7379,2.3389,-0.039,-0.0332,0.0578,0.0133,0.0174,-0.0062,2778,2019-08-07 16:20:08:178
3.6401,-8.7379,2.3389,-0.039,-0.0332,0.0578,0.0133,0.0174,-0.0062,2784,2019-08-07 16:20:08:184
3.6401,-8.7379,2.3389,-0.039,-0.0332,0.0578,0.025,-0.0103,-0.0094,2788,2019-08-07 16:20:08:188
3.5492,-8.7808,2.3389,0.0814,-0.027,-0.014,0.025,-0.0103,-0.0094,2793,2019-08-07 16:20:08:193
3.5492,-8.7808,2.3389,0.0814,-0.027,-0.014,0.0293,-0.0337,-0.0126,2799,2019-08-07 16:20:08:199
3.5301,-8.7045,2.4615,0.0814,-0.027,-0.014,0.0293,-0.0337,-0.0126,2803,2019-08-07 16:20:08:203
3.5301,-8.7045,2.4615,0.0814,-0.027,-0.014,0.0293,-0.0337,-0.0126,2808,2019-08-07 16:20:08:208
3.5301,-8.7045,2.4615,0.0615,-0.1679,-0.0727,0.0304,-0.0774,-0.0062,2814,2019-08-07 16:20:08:214
3.5923,-8.6472,2.4002,0.0615,-0.1679,-0.0727,0.0304,-0.0774,-0.0062,2818,2019-08-07 16:20:08:218
3.5923,-8.6472,2.4002,0.0615,-0.1679,-0.0727,0.0272,-0.0869,-0.0019,2823,2019-08-07 16:20:08:223
3.7358,-8.6472,2.3389,0.0615,-0.1679,-0.0727,0.0272,-0.0869,-0.0019,2828,2019-08-07 16:20:08:228
3.7358,-8.6472,2.3389,-0.0908,-0.1899,-0.0129,0.0208,-0.0859,-0.0041,2833,2019-08-07 16:20:08:233
3.7358,-8.6472,2.3389,-0.0908,-0.1899,-0.0129,0.0208,-0.0859,-0.0041,2838,2019-08-07 16:20:08:238
3.688,-8.6281,2.3248,-0.0908,-0.1899,-0.0129,0.0208,-0.0859,-0.0041,2843,2019-08-07 16:20:08:243
3.688,-8.6281,2.3248,-0.0908,-0.1899,-0.0129,0.0165,-0.088,0.0034,2848,2019-08-07 16:20:08:248
3.688,-8.6281,2.3248,0.0338,-0.2313,-0.1989,0.0165,-0.088,0.0034,2853,2019-08-07 16:20:08:253
3.6114,-8.566,2.5558,0.0338,-0.2313,-0.1989,0.0197,-0.1083,0.0013,2858,2019-08-07 16:20:08:258
3.6114,-8.566,2.5558,0.0338,-0.2313,-0.1989,0.0197,-0.1083,0.0013,2863,2019-08-07 16:20:08:263
3.6019,-8.5994,2.5558,0.0338,-0.2313,-0.1989,0.0112,-0.1423,-0.0073,2868,2019-08-07 16:20:08:268
3.6019,-8.5994,2.5558,0.0338,-0.2313,-0.1989,0.0112,-0.1423,-0.0073,2873,2019-08-07 16:20:08:273
3.6019,-8.5994,2.5558,-0.0261,-0.2394,-0.176,-0.0154,-0.1636,-0.02,2878,2019-08-07 16:20:08:278
3.8267,-8.6138,2.4238,-0.0261,-0.2394,-0.176,-0.0154,-0.1636,-0.02,2883,2019-08-07 16:20:08:283
3.8267,-8.6138,2.4238,-0.0261,-0.2394,-0.176,-0.0314,-0.1349,-0.0232,2888,2019-08-07 16:20:08:288
3.9924,-8.6422,2.3244,-0.3654,-0.1139,0.088,-0.0314,-0.1349,-0.0232,2893,2019-08-07 16:20:08:293
3.9924,-8.6422,2.3244,-0.3654,-0.1139,0.088,-0.0367,-0.0827,-0.0232,2898,2019-08-07 16:20:08:298
3.9924,-8.6422,2.3244,-0.3654,-0.1139,0.088,-0.0367,-0.0827,-0.0232,2903,2019-08-07 16:20:08:303
4.0355,-8.6375,2.1971,-0.3654,-0.1139,0.088,-0.0367,-0.0827,-0.0232,2908,2019-08-07 16:20:08:308
4.0355,-8.6375,2.1971,-0.3654,-0.1139,0.088,-0.0389,0.0079,-0.0158,2913,2019-08-07 16:20:08:313
4.0355,-8.6375,2.1971,-0.2857,-0.1183,0.1385,-0.0389,0.0079,-0.0158,2918,2019-08-07 16:20:08:318
3.868,-8.6565,2.2348,-0.2857,-0.1183,0.1385,-0.0378,0.0505,-0.0169,2923,2019-08-07 16:20:08:323
3.868,-8.6565,2.2348,-0.2857,-0.1183,0.1385,-0.0378,0.0505,-0.0169,2928,2019-08-07 16:20:08:328
3.868,-8.6565,2.2348,-0.2857,-0.1183,0.1385,-0.0304,0.0505,-0.019,2933,2019-08-07 16:20:08:333
3.7197,-8.6756,2.3763,-0.0445,-0.1181,-0.0525,-0.0304,0.0505,-0.019,2938,2019-08-07 16:20:08:338
3.7197,-8.6756,2.3763,-0.0445,-0.1181,-0.0525,-0.0208,0.0206,-0.0243,2943,2019-08-07 16:20:08:343
3.6766,-8.5802,2.4705,-0.0378,-0.1842,-0.1238,-0.0208,0.0206,-0.0243,2948,2019-08-07 16:20:08:348
3.6766,-8.5802,2.4705,-0.0378,-0.1842,-0.1238,-0.0122,-0.0454,-0.019,2953,2019-08-07 16:20:08:353
3.6766,-8.5802,2.4705,-0.0378,-0.1842,-0.1238,-0.0122,-0.0454,-0.019,2958,2019-08-07 16:20:08:358
3.8201,-8.6422,2.447,-0.0378,-0.1842,-0.1238,-0.0016,-0.0987,-0.0179,2963,2019-08-07 16:20:08:363
3.8201,-8.6422,2.447,-0.1929,-0.1013,-0.143,-0.0016,-0.0987,-0.0179,2968,2019-08-07 16:20:08:368
3.8201,-8.6422,2.447,-0.1929,-0.1013,-0.143,0.0037,-0.1381,-0.0211,2973,2019-08-07 16:20:08:373
3.9732,-8.69,2.3857,-0.1929,-0.1013,-0.143,0.0037,-0.1381,-0.0211,2978,2019-08-07 16:20:08:378
3.9732,-8.69,2.3857,-0.1929,-0.1013,-0.143,0.0037,-0.1338,-0.0137,2983,2019-08-07 16:20:08:383
3.9158,-8.7138,2.4045,-0.2197,-0.0893,-0.0343,0.0037,-0.1338,-0.0137,2988,2019-08-07 16:20:08:388
3.9158,-8.7138,2.4045,-0.2197,-0.0893,-0.0343,0.0037,-0.1338,-0.0137,2993,2019-08-07 16:20:08:393
3.9158,-8.7138,2.4045,-0.2197,-0.0893,-0.0343,0.0027,-0.1338,0.0023,2997,2019-08-07 16:20:08:397
3.3416,-8.6231,1.8342,-0.2197,-0.0893,-0.0343,0.0027,-0.1338,0.0023,3002,2019-08-07 16:20:08:402
3.3416,-8.6231,1.8342,0.4919,-0.0825,-0.0249,-0.1582,-0.4587,0.029,3008,2019-08-07 16:20:08:408
3.3416,-8.6231,1.8342,0.4919,-0.0825,-0.0249,-0.1582,-0.4587,0.029,3013,2019-08-07 16:20:08:413
3.3416,-8.6231,1.8342,0.4919,-0.0825,-0.0249,-0.1582,-0.4587,0.029,3018,2019-08-07 16:20:08:418
3.5138,-8.8618,2.7345,0.0871,0.0993,-0.5099,-0.1262,-0.4182,0.0215,3023,2019-08-07 16:20:08:423
3.5138,-8.8618,2.7345,0.0871,0.0993,-0.5099,-0.1262,-0.4182,0.0215,3028,2019-08-07 16:20:08:428
4.0353,-8.9955,1.985,0.0871,0.0993,-0.5099,0.0272,-0.3426,0.0034,3033,2019-08-07 16:20:08:433
4.0353,-8.9955,1.985,-0.3401,0.1979,0.2981,0.0272,-0.3426,0.0034,3038,2019-08-07 16:20:08:438
4.0353,-8.9955,1.985,-0.3401,0.1979,0.2981,0.0676,-0.1604,0.0045,3043,2019-08-07 16:20:08:443
4.3032,-8.8809,1.9661,-0.3401,0.1979,0.2981,0.0676,-0.1604,0.0045,3049,2019-08-07 16:20:08:449
4.3032,-8.8809,1.9661,-0.3401,0.1979,0.2981,0.0676,-0.1604,0.0045,3052,2019-08-07 16:20:08:452
4.3032,-8.8809,1.9661,-0.7658,-0.0128,0.2134,0.1135,0.0867,-0.0073,3058,2019-08-07 16:20:08:458
4.5472,-8.7902,1.9944,-0.7658,-0.0128,0.2134,0.1135,0.0867,-0.0073,3062,2019-08-07 16:20:08:462
4.5472,-8.7902,1.9944,-0.7658,-0.0128,0.2134,0.1316,0.3168,-0.0243,3068,2019-08-07 16:20:08:468
4.6572,-8.6613,2.0085,-0.7658,-0.0128,0.2134,0.1316,0.3168,-0.0243,3072,2019-08-07 16:20:08:472
4.6572,-8.6613,2.0085,-0.5389,-0.2851,0.2735,0.1039,0.4723,-0.0445,3078,2019-08-07 16:20:08:478
3.5377,-8.4417,2.3715,-0.5389,-0.2851,0.2735,0.1039,0.4723,-0.0445,3082,2019-08-07 16:20:08:482
3.5377,-8.4417,2.3715,-0.5389,-0.2851,0.2735,0.0112,0.4446,-0.02,3088,2019-08-07 16:20:08:488
3.5377,-8.4417,2.3715,-0.5389,-0.2851,0.2735,0.0112,0.4446,-0.02,3093,2019-08-07 16:20:08:493
3.2076,-8.6518,3.1351,0.5107,-0.1287,-0.8297,-0.0133,0.3424,-0.0083,3097,2019-08-07 16:20:08:497
3.2076,-8.6518,3.1351,0.5107,-0.1287,-0.8297,-0.0133,0.3424,-0.0083,3103,2019-08-07 16:20:08:503
3.2076,-8.6518,3.1351,0.5107,-0.1287,-0.8297,-0.0101,0.1165,-0.0169,3107,2019-08-07 16:20:08:507