ACCELEROMETER X (m/s²),ACCELEROMETER Y (m/s²),ACCELEROMETER Z (m/s²),LINEAR ACCELERATION X (m/s²),LINEAR ACCELERATION Y (m/s²),LINEAR ACCELERATION Z (m/s²),GYROSCOPE X (rad/s),GYROSCOPE Y (rad/s),GYROSCOPE Z (rad/s),Time since start in ms ,YYYY-MO-DD HH-MI-SS_SSS
4.1783,-8.5147,2.1576,0.018,-0.0649,0.094,0.0208,4.0E-4,-0.004,3,2019-08-07 16:19:26:515
4.1783,-8.5147,2.1576,0.018,-0.0649,0.094,0.0239,4.0E-4,-0.005,8,2019-08-07 16:19:26:520
4.1783,-8.5147,2.1576,-0.0432,-0.0444,0.0834,0.0239,4.0E-4,-0.005,13,2019-08-07 16:19:26:525
4.1639,-8.5147,2.2943,-0.0432,-0.0444,0.0834,0.0239,0.0089,-0.0114,17,2019-08-07 16:19:26:529
4.1639,-8.5147,2.2943,-0.0432,-0.0444,0.0834,0.0239,0.0089,-0.0114,23,2019-08-07 16:19:26:535
4.1879,-8.5051,2.2566,-0.0432,-0.0444,0.0834,0.0208,4.0E-4,-0.0072,27,2019-08-07 16:19:26:539
4.1879,-8.5051,2.2566,-0.0605,-0.0567,0.0028,0.0208,4.0E-4,-0.0072,33,2019-08-07 16:19:26:545
4.1879,-8.5051,2.2566,-0.0605,-0.0567,0.0028,0.0176,0.0068,-0.0093,38,2019-08-07 16:19:26:550
4.1591,-8.5147,2.3084,-0.0605,-0.0567,0.0028,0.0176,0.0068,-0.0093,43,2019-08-07 16:19:26:555
4.1591,-8.5147,2.3084,-0.0605,-0.0567,0.0028,5.0E-4,-0.0071,-0.0114,49,2019-08-07 16:19:26:561
4.1591,-8.5147,2.3084,-0.0156,-0.0694,-0.0088,5.0E-4,-0.0071,-0.0114,52,2019-08-07 16:19:26:564
4.1783,-8.5242,2.2377,-0.0156,-0.0694,-0.0088,5.0E-4,-0.0071,-0.0114,58,2019-08-07 16:19:26:570
4.1783,-8.5242,2.2377,-0.0156,-0.0694,-0.0088,-0.008,-0.0188,-0.005,63,2019-08-07 16:19:26:575
4.1926,-8.529,2.2471,-0.0156,-0.0694,-0.0088,-0.008,-0.0188,-0.005,68,2019-08-07 16:19:26:580
4.1926,-8.529,2.2471,-0.0376,-0.0548,0.0548,-0.0059,-0.0092,-8.0E-4,73,2019-08-07 16:19:26:585
4.1926,-8.529,2.2471,-0.0376,-0.0548,0.0548,-0.0059,-0.0092,-8.0E-4,78,2019-08-07 16:19:26:590
4.2022,-8.5481,2.2236,-0.0376,-0.0548,0.0548,-0.0059,-0.0018,0.0056,83,2019-08-07 16:19:26:595
4.2022,-8.5481,2.2236,-0.0376,-0.0548,0.0548,-0.0059,-0.0018,0.0056,87,2019-08-07 16:19:26:599
4.2022,-8.5481,2.2236,-0.0376,-0.0548,0.0548,-0.0059,-0.0018,0.0056,93,2019-08-07 16:19:26:605
4.2787,-8.5194,2.266,-0.1044,-0.06,0.0153,-0.0059,0.0014,0.0067,98,2019-08-07 16:19:26:610
4.2787,-8.5194,2.266,-0.1044,-0.06,0.0153,-0.0059,0.0014,0.0067,103,2019-08-07 16:19:26:615
4.1878,-8.5099,2.1906,-0.1044,-0.06,0.0153,5.0E-4,0.0132,0.0045,108,2019-08-07 16:19:26:620
4.1878,-8.5099,2.1906,-0.0474,-0.0506,0.0814,5.0E-4,0.0132,0.0045,113,2019-08-07 16:19:26:625
4.1878,-8.5099,2.1906,-0.0474,-0.0506,0.0814,-0.0037,0.0185,0.0013,118,2019-08-07 16:19:26:630
4.2452,-8.5576,2.2283,-0.0474,-0.0506,0.0814,-0.0037,0.0185,0.0013,123,2019-08-07 16:19:26:635
4.2452,-8.5576,2.2283,-0.0474,-0.0506,0.0814,5.0E-4,0.0089,0.0013,128,2019-08-07 16:19:26:640
4.1735,-8.5051,2.3084,-3.0E-4,-0.0746,-0.0261,5.0E-4,0.0089,0.0013,133,2019-08-07 16:19:26:645
4.1735,-8.5051,2.3084,-3.0E-4,-0.0746,-0.0261,0.0037,0.0132,3.0E-4,141,2019-08-07 16:19:26:653
4.1735,-8.5051,2.3084,-3.0E-4,-0.0746,-0.0261,0.0037,0.0132,3.0E-4,143,2019-08-07 16:19:26:655
4.1735,-8.486,2.2566,-4.0E-4,-0.0935,0.0268,0.0101,0.0142,-0.0029,148,2019-08-07 16:19:26:660
4.1735,-8.486,2.2566,-4.0E-4,-0.0935,0.0268,0.0101,0.0142,-0.0029,152,2019-08-07 16:19:26:664
4.1735,-8.486,2.2566,-4.0E-4,-0.0935,0.0268,0.0101,0.0142,-0.0029,158,2019-08-07 16:19:26:670
4.2261,-8.5624,2.3037,-0.019,-0.0498,0.0286,0.0016,0.0057,-0.0072,163,2019-08-07 16:19:26:675
4.2261,-8.5624,2.3037,-0.019,-0.0498,0.0286,0.0016,0.0057,-0.0072,167,2019-08-07 16:19:26:679
4.2261,-8.5624,2.3037,-0.019,-0.0498,0.0286,-0.0016,0.0164,-0.004,173,2019-08-07 16:19:26:685
4.1591,-8.5099,2.3367,-0.019,-0.0498,0.0286,-0.0016,0.0164,-0.004,177,2019-08-07 16:19:26:689
4.1591,-8.5099,2.3367,0.0103,-0.0778,-0.0221,-0.0016,0.0046,-0.005,182,2019-08-07 16:19:26:694
4.1591,-8.5099,2.3367,0.0103,-0.0778,-0.0221,-0.0016,0.0046,-0.005,188,2019-08-07 16:19:26:700
4.1017,-8.5338,2.3037,0.0103,-0.0778,-0.0221,-0.0016,0.0046,-0.005,192,2019-08-07 16:19:26:704
4.1017,-8.5338,2.3037,0.0396,-0.0681,0.0198,-0.0091,-0.006,-0.0093,198,2019-08-07 16:19:26:710
4.1304,-8.634,2.2707,0.0396,-0.0681,0.0198,-0.0091,-0.006,-0.0093,203,2019-08-07 16:19:26:715
4.1304,-8.634,2.2707,0.0396,-0.0681,0.0198,-0.0123,-0.0231,-0.0093,208,2019-08-07 16:19:26:720
4.1304,-8.634,2.2707,0.0895,0.0132,-0.0448,-0.0123,-0.0231,-0.0093,213,2019-08-07 16:19:26:725
4.0873,-8.5911,2.3273,0.0895,0.0132,-0.0448,-0.008,-0.039,-0.0072,218,2019-08-07 16:19:26:730
4.0873,-8.5911,2.3273,0.0895,0.0132,-0.0448,-0.008,-0.039,-0.0072,223,2019-08-07 16:19:26:735
4.0634,-8.5672,2.3556,0.0895,0.0132,-0.0448,-0.0059,-0.0625,3.0E-4,228,2019-08-07 16:19:26:740
4.0634,-8.5672,2.3556,0.0201,-0.011,-0.0315,-0.0059,-0.0625,3.0E-4,233,2019-08-07 16:19:26:745
4.0634,-8.5672,2.3556,0.0201,-0.011,-0.0315,-0.0155,-0.0667,0.0024,238,2019-08-07 16:19:26:750
4.25,-8.5147,2.3273,0.0201,-0.011,-0.0315,-0.0155,-0.0667,0.0024,243,2019-08-07 16:19:26:755
4.25,-8.5147,2.3273,0.0201,-0.011,-0.0315,-0.0144,-0.0454,0.0024,249,2019-08-07 16:19:26:761
4.3505,-8.5767,2.1953,-0.168,-0.0019,0.0741,-0.0144,-0.0454,0.0024,253,2019-08-07 16:19:26:765
4.3505,-8.5767,2.1953,-0.168,-0.0019,0.0741,-0.0144,-0.0454,0.0024,258,2019-08-07 16:19:26:770
4.3505,-8.5767,2.1953,-0.168,-0.0019,0.0741,-0.0144,-0.0028,-8.0E-4,264,2019-08-07 16:19:26:776
4.2978,-8.5099,2.1576,-0.168,-0.0019,0.0741,-0.0144,-0.0028,-8.0E-4,268,2019-08-07 16:19:26:780
4.2978,-8.5099,2.1576,-0.0815,-0.0358,0.0858,-0.0133,0.0355,0.0045,273,2019-08-07 16:19:26:785
4.2978,-8.5099,2.1576,-0.0815,-0.0358,0.0858,-0.0133,0.0355,0.0045,277,2019-08-07 16:19:26:789
4.2069,-8.529,2.2,-0.0815,-0.0358,0.0858,-0.0101,0.0472,0.0045,283,2019-08-07 16:19:26:795
4.2069,-8.529,2.2,-0.0815,-0.0358,0.0858,-0.0101,0.0472,0.0045,288,2019-08-07 16:19:26:800
4.14,-8.5958,2.3037,-0.0815,-0.0358,0.0858,-0.0059,0.0366,0.0088,293,2019-08-07 16:19:26:805
4.14,-8.5958,2.3037,0.0683,0.0013,-0.0017,-0.0059,0.0366,0.0088,298,2019-08-07 16:19:26:810
4.14,-8.5958,2.3037,0.0683,0.0013,-0.0017,-0.0059,0.0366,0.0088,303,2019-08-07 16:19:26:815
4.0825,-8.5529,2.3603,0.0683,0.0013,-0.0017,-6.0E-4,0.0068,-0.0018,308,2019-08-07 16:19:26:820
4.0825,-8.5529,2.3603,0.0683,0.0013,-0.0017,-6.0E-4,0.0068,-0.0018,313,2019-08-07 16:19:26:825
4.0825,-8.5529,2.3603,0.091,-0.0275,0.0045,0.0058,-0.0177,-0.0029,317,2019-08-07 16:19:26:829
4.0969,-8.572,2.2471,0.091,-0.0275,0.0045,0.0058,-0.0177,-0.0029,323,2019-08-07 16:19:26:835
4.0969,-8.572,2.2471,8.0E-4,0.0491,0.0419,0.008,-0.0241,-0.0072,328,2019-08-07 16:19:26:840
4.1974,-8.6245,2.2424,8.0E-4,0.0491,0.0419,0.008,-0.0241,-0.0072,333,2019-08-07 16:19:26:845
4.1974,-8.6245,2.2424,8.0E-4,0.0491,0.0419,0.0112,-0.0401,-0.0029,338,2019-08-07 16:19:26:850
4.2069,-8.6388,2.2848,-0.0159,0.0309,0.036,0.0112,-0.0401,-0.0029,344,2019-08-07 16:19:26:856
4.2069,-8.6388,2.2848,-0.0159,0.0309,0.036,0.0154,-0.0348,0.0024,348,2019-08-07 16:19:26:860
4.2069,-8.6388,2.2848,-0.0159,0.0309,0.036,0.0154,-0.0348,0.0024,352,2019-08-07 16:19:26:864
4.2069,-8.6388,2.2848,-0.0159,0.0309,0.036,0.0154,-0.0348,0.0024,358,2019-08-07 16:19:26:870
4.2548,-8.5433,2.2424,-0.0159,0.0309,0.036,0.008,-0.038,-0.0018,363,2019-08-07 16:19:26:875
4.2548,-8.5433,2.2424,-0.1145,0.0267,0.0109,0.008,-0.038,-0.0018,368,2019-08-07 16:19:26:880
4.3265,-8.5481,2.2943,-0.1145,0.0267,0.0109,5.0E-4,-0.0209,-0.005,373,2019-08-07 16:19:26:885
4.3265,-8.5481,2.2943,-0.1145,0.0267,0.0109,5.0E-4,-0.0209,-0.005,378,2019-08-07 16:19:26:890
4.3265,-8.5481,2.2943,-0.1145,0.0267,0.0109,0.0016,0.0089,-0.005,383,2019-08-07 16:19:26:895
4.2595,-8.4669,2.2943,-0.0743,-0.1111,-0.0276,0.0016,0.0089,-0.005,388,2019-08-07 16:19:26:900
4.2595,-8.4669,2.2943,-0.0743,-0.1111,-0.0276,0.0048,0.0238,0.0077,393,2019-08-07 16:19:26:905
4.2404,-8.4908,2.3461,-0.0511,-0.1158,-0.0261,0.0048,0.0238,0.0077,398,2019-08-07 16:19:26:910
4.2404,-8.4908,2.3461,-0.0511,-0.1158,-0.0261,0.0026,0.0377,0.0141,402,2019-08-07 16:19:26:914
4.2404,-8.4908,2.3461,-0.0511,-0.1158,-0.0261,0.0026,0.0377,0.0141,409,2019-08-07 16:19:26:921
4.1591,-8.486,2.299,-0.0511,-0.1158,-0.0261,-0.0016,0.0366,0.0163,413,2019-08-07 16:19:26:925
4.1591,-8.486,2.299,0.1027,-0.0644,-0.0037,-0.0016,0.0366,0.0163,418,2019-08-07 16:19:26:930
4.0538,-8.5863,2.332,0.1027,-0.0644,-0.0037,-0.008,0.0323,0.0184,423,2019-08-07 16:19:26:935
4.0538,-8.5863,2.332,0.1027,-0.0644,-0.0037,-0.008,0.0323,0.0184,428,2019-08-07 16:19:26:940
4.0538,-8.5863,2.332,0.1027,-0.0644,-0.0037,-0.0144,0.0238,0.0141,433,2019-08-07 16:19:26:945
4.0538,-8.5863,2.2613,0.1216,0.0051,0.0116,-0.0144,0.0238,0.0141,437,2019-08-07 16:19:26:949
4.0538,-8.5863,2.2613,0.1216,0.0051,0.0116,-0.0165,0.0227,0.0163,443,2019-08-07 16:19:26:955
4.0108,-8.6006,2.2566,0.1216,0.0051,0.0116,-0.0165,0.0227,0.0163,448,2019-08-07 16:19:26:960
4.0108,-8.6006,2.2566,0.1216,0.0051,0.0116,-0.0133,0.0057,0.0141,452,2019-08-07 16:19:26:964
4.0108,-8.6006,2.2566,0.0743,0.0314,0.0434,-0.0133,0.0057,0.0141,458,2019-08-07 16:19:26:970
4.0682,-8.6101,2.2,0.0743,0.0314,0.0434,-0.0123,-0.005,0.0088,463,2019-08-07 16:19:26:975
4.0682,-8.6101,2.2,0.0743,0.0314,0.0434,-0.0123,-0.005,0.0088,468,2019-08-07 16:19:26:980
4.0682,-8.6101,2.2,0.0743,0.0314,0.0434,-0.0123,-0.005,0.0088,473,2019-08-07 16:19:26:985
4.1351,-8.634,2.0916,0.0103,0.0584,0.1867,-0.0112,-0.0071,0.0088,477,2019-08-07 16:19:26:989
4.1351,-8.634,2.0916,0.0103,0.0584,0.1867,-0.0112,-0.0071,0.0088,484,2019-08-07 16:19:26:996
4.1351,-8.634,2.0916,0.0103,0.0584,0.1867,-0.0112,-0.0071,0.0088,488,2019-08-07 16:19:27:000
4.1495,-8.6149,2.2377,0.0103,0.0584,0.1867,-6.0E-4,-0.0018,-0.004,492,2019-08-07 16:19:27:004
4.1495,-8.6149,2.2377,-0.0086,0.0485,0.0861,0.0101,-0.0177,-0.0018,498,2019-08-07 16:19:27:010
4.2117,-8.6006,2.2471,-0.0086,0.0485,0.0861,0.0101,-0.0177,-0.0018,503,2019-08-07 16:19:27:015
4.2117,-8.6006,2.2471,-0.0086,0.0485,0.0861,0.0101,-0.0177,-0.0018,508,2019-08-07 16:19:27:020
4.2691,-8.5958,2.2283,-0.0086,0.0485,0.0861,0.0122,-0.0284,-0.005,514,2019-08-07 16:19:27:026
4.2691,-8.5958,2.2283,-0.0641,-0.0079,-0.0131,0.0122,-0.0284,-0.005,518,2019-08-07 16:19:27:030
4.2691,-8.5958,2.2283,-0.0641,-0.0079,-0.0131,0.0133,-0.0273,-0.004,523,2019-08-07 16:19:27:035
4.226,-8.5863,2.2566,-0.0641,-0.0079,-0.0131,0.0133,-0.0273,-0.004,527,2019-08-07 16:19:27:039
4.226,-8.5863,2.2566,-0.0641,-0.0079,-0.0131,0.0144,-0.022,0.0056,534,2019-08-07 16:19:27:046
4.226,-8.5863,2.2566,-0.1102,-0.0213,0.0058,0.0144,-0.022,0.0056,537,2019-08-07 16:19:27:049
4.2739,-8.5051,2.2566,-0.1102,-0.0213,0.0058,0.0144,-0.022,0.0056,542,2019-08-07 16:19:27:054
4.2739,-8.5051,2.2566,-0.1102,-0.0213,0.0058,0.0058,-0.005,0.0056,548,2019-08-07 16:19:27:060
4.2069,-8.4669,2.2801,-0.1102,-0.0213,0.0058,0.0058,-0.005,0.0056,552,2019-08-07 16:19:27:064
4.2069,-8.4669,2.2801,-0.1102,-0.0213,0.0058,0.0016,0.0174,0.0163,558,2019-08-07 16:19:27:070
4.1877,-8.5385,2.2707,-0.0397,-0.0408,0.0163,0.0016,0.0174,0.0163,563,2019-08-07 16:19:27:075
4.1877,-8.5385,2.2707,-0.0397,-0.0408,0.0163,0.0069,0.027,0.0195,567,2019-08-07 16:19:27:079
4.1877,-8.5385,2.2707,-0.0397,-0.0408,0.0163,0.0069,0.027,0.0195,573,2019-08-07 16:19:27:085
4.1255,-8.5338,2.3555,0.0759,-0.0895,-0.0554,0.0122,0.0174,0.0163,578,2019-08-07 16:19:27:090
4.1255,-8.5338,2.3555,0.0759,-0.0895,-0.0554,0.0122,0.0174,0.0163,582,2019-08-07 16:19:27:094
4.1255,-8.5338,2.3555,0.0759,-0.0895,-0.0554,0.0165,-0.0018,0.012,588,2019-08-07 16:19:27:100
4.0873,-8.4383,2.3131,0.0759,-0.0895,-0.0554,0.0165,-0.0018,0.012,592,2019-08-07 16:19:27:104
4.0873,-8.4383,2.3131,0.0207,-0.1328,-0.019,0.0122,-0.0156,0.0141,598,2019-08-07 16:19:27:110
4.1686,-8.4526,2.3084,0.0207,-0.1328,-0.019,0.0122,-0.0156,0.0141,603,2019-08-07 16:19:27:115
4.1686,-8.4526,2.3084,0.0207,-0.1328,-0.019,0.0122,-0.0156,0.0141,608,2019-08-07 16:19:27:120
4.1686,-8.4526,2.3084,0.0252,-0.1616,-0.0239,5.0E-4,-0.038,0.012,613,2019-08-07 16:19:27:125
4.2164,-8.4478,2.2377,0.0252,-0.1616,-0.0239,5.0E-4,-0.038,0.012,618,2019-08-07 16:19:27:130
4.2164,-8.4478,2.2377,0.0252,-0.1616,-0.0239,-0.0048,-0.0433,0.0184,623,2019-08-07 16:19:27:135
4.3026,-8.5624,2.1953,-0.1372,-0.0242,0.0755,-0.0048,-0.0433,0.0184,628,2019-08-07 16:19:27:140
4.3026,-8.5624,2.1953,-0.1372,-0.0242,0.0755,-0.0144,-0.0337,0.0088,632,2019-08-07 16:19:27:144
4.3026,-8.5624,2.1953,-0.1372,-0.0242,0.0755,-0.0144,-0.0337,0.0088,638,2019-08-07 16:19:27:150
4.336,-8.6006,2.1387,-0.1372,-0.0242,0.0755,-0.0219,-0.005,0.0077,643,2019-08-07 16:19:27:155
4.336,-8.6006,2.1387,-0.1175,0.0128,0.0559,-0.0219,-0.005,0.0077,648,2019-08-07 16:19:27:160
4.336,-8.6006,2.1387,-0.1175,0.0128,0.0559,-0.0219,-0.005,0.0077,652,2019-08-07 16:19:27:164
4.2212,-8.6054,2.1434,-0.1175,0.0128,0.0559,-0.0144,0.0302,-0.0018,658,2019-08-07 16:19:27:170
4.2212,-8.6054,2.1434,-0.0557,0.0316,0.0977,-0.0144,0.0302,-0.0018,663,2019-08-07 16:19:27:175
4.2212,-8.6054,2.1434,-0.0557,0.0316,0.0977,-0.0048,0.0387,-0.004,668,2019-08-07 16:19:27:180
4.092,-8.6054,2.2424,-0.0557,0.0316,0.0977,-0.0048,0.0387,-0.004,674,2019-08-07 16:19:27:186
4.092,-8.6054,2.2424,-0.0557,0.0316,0.0977,-0.0048,0.0387,-0.004,677,2019-08-07 16:19:27:189
4.0394,-8.5099,2.2895,0.0914,-0.0114,0.0244,0.0037,0.0185,-0.0061,683,2019-08-07 16:19:27:195
4.0394,-8.5099,2.2895,0.0914,-0.0114,0.0244,0.0037,0.0185,-0.0061,688,2019-08-07 16:19:27:200
4.0394,-8.5099,2.2895,0.0914,-0.0114,0.0244,0.0186,-0.0252,-0.0018,693,2019-08-07 16:19:27:205
4.1303,-8.4096,2.3555,0.0015,-0.2347,0.0456,0.0186,-0.0252,-0.0018,699,2019-08-07 16:19:27:211
4.1303,-8.4096,2.3555,0.0015,-0.2347,0.0456,0.0186,-0.0401,0.0056,703,2019-08-07 16:19:27:215
4.1303,-8.4096,2.3555,0.0015,-0.2347,0.0456,0.0186,-0.0401,0.0056,708,2019-08-07 16:19:27:220
4.2834,-8.3619,2.1104,0.0015,-0.2347,0.0456,0.008,-0.039,0.012,713,2019-08-07 16:19:27:225
4.2834,-8.3619,2.1104,0.0015,-0.2347,0.0456,0.008,-0.039,0.012,717,2019-08-07 16:19:27:229
4.3743,-8.4908,2.035,-0.1931,-0.1294,0.1708,5.0E-4,-0.0103,0.0195,723,2019-08-07 16:19:27:235
4.3743,-8.4908,2.035,-0.1931,-0.1294,0.1708,5.0E-4,-0.0103,0.0195,728,2019-08-07 16:19:27:240
4.3743,-8.4908,2.035,-0.1931,-0.1294,0.1708,0.0016,0.0291,0.028,733,2019-08-07 16:19:27:245
4.3121,-8.5624,2.0916,-0.1931,-0.1294,0.1708,0.0016,0.0291,0.028,738,2019-08-07 16:19:27:250
4.3121,-8.5624,2.0916,-0.1058,0.0263,0.1707,0.009,0.0675,0.0259,743,2019-08-07 16:19:27:255
4.1494,-8.6626,2.0633,-0.1058,0.0263,0.1707,0.009,0.0675,0.0259,748,2019-08-07 16:19:27:260
4.1494,-8.6626,2.0633,-0.1058,0.0263,0.1707,0.009,0.0931,0.0248,753,2019-08-07 16:19:27:265
4.0681,-8.7008,2.2377,-0.1058,0.0263,0.1707,0.009,0.0931,0.0248,758,2019-08-07 16:19:27:270
4.0681,-8.7008,2.2377,0.1439,0.1053,0.0228,0.0058,0.0952,0.0184,763,2019-08-07 16:19:27:275
4.0681,-8.7008,2.2377,0.1439,0.1053,0.0228,0.0058,0.0952,0.0184,768,2019-08-07 16:19:27:280
3.8903,-8.7437,2.3224,0.1439,0.1053,0.0228,0.0058,0.0952,0.0184,773,2019-08-07 16:19:27:285
3.8903,-8.7437,2.3224,0.1439,0.1053,0.0228,-0.0027,0.0867,0.0056,778,2019-08-07 16:19:27:290
3.8903,-8.7437,2.3224,0.404,0.1414,-0.1008,-0.0027,0.0867,0.0056,782,2019-08-07 16:19:27:294
3.7707,-8.8249,2.2705,0.404,0.1414,-0.1008,-0.0208,0.0547,0.0109,788,2019-08-07 16:19:27:300
3.7707,-8.8249,2.2705,0.3814,0.3548,-0.0386,-0.0208,0.0547,0.0109,793,2019-08-07 16:19:27:305
3.675,-9.1925,2.1951,0.3814,0.3548,-0.0386,-0.0538,0.0153,0.0141,798,2019-08-07 16:19:27:310
3.675,-9.1925,2.1951,0.3814,0.3548,-0.0386,-0.0538,0.0153,0.0141,802,2019-08-07 16:19:27:314
3.675,-9.1925,2.1951,0.3814,0.3548,-0.0386,-0.0943,-0.0113,0.0237,808,2019-08-07 16:19:27:320
3.675,-9.8703,2.1103,0.4587,1.2684,0.1602,-0.0943,-0.0113,0.0237,813,2019-08-07 16:19:27:325
3.675,-9.8703,2.1103,0.4587,1.2684,0.1602,-0.1103,0.0078,0.0599,818,2019-08-07 16:19:27:330
3.675,-9.8703,2.1103,0.4587,1.2684,0.1602,-0.1103,0.0078,0.0599,823,2019-08-07 16:19:27:335
3.4453,-10.7678,2.2469,0.4587,1.2684,0.1602,-0.0964,0.0387,0.1143,828,2019-08-07 16:19:27:340
3.4453,-10.7678,2.2469,0.8872,2.7693,-0.0887,-0.0964,0.0387,0.1143,833,2019-08-07 16:19:27:345
2.9382,-12.1809,2.5015,0.8872,2.7693,-0.0887,0.0165,0.1037,0.2911,838,2019-08-07 16:19:27:350
2.9382,-12.1809,2.5015,1.2355,3.8629,-0.3519,0.0165,0.1037,0.2911,843,2019-08-07 16:19:27:355
2.9382,-12.1809,2.5015,1.2355,3.8629,-0.3519,0.1379,0.1932,0.4424,848,2019-08-07 16:19:27:360
2.3641,-14.0283,3.35,1.2355,3.8629,-0.3519,0.1379,0.1932,0.4424,852,2019-08-07 16:19:27:364
2.3641,-14.0283,3.35,1.2355,3.8629,-0.3519,0.1379,0.1932,0.4424,858,2019-08-07 16:19:27:370
2.3641,-14.0283,3.35,2.053,7.5571,-2.1427,0.3126,0.32,0.6224,862,2019-08-07 16:19:27:374
1.7852,-16.8783,4.6557,2.053,7.5571,-2.1427,0.3126,0.32,0.6224,868,2019-08-07 16:19:27:380
1.7852,-16.8783,4.6557,2.053,7.5571,-2.1427,0.5427,0.6001,0.9196,873,2019-08-07 16:19:27:385
1.2541,-19.7092,5.4052,2.053,7.5571,-2.1427,0.5427,0.6001,0.9196,878,2019-08-07 16:19:27:390
1.2541,-19.7092,5.4052,3.2338,13.6357,-3.1484,0.6876,0.9911,1.2722,883,2019-08-07 16:19:27:395
1.2541,-19.7092,5.4052,3.2338,13.6357,-3.1484,0.6876,0.9911,1.2722,888,2019-08-07 16:19:27:400
-0.0424,-25.4139,4.849,3.2338,13.6357,-3.1484,0.7047,1.5141,1.7185,893,2019-08-07 16:19:27:405
-0.0424,-25.4139,4.849,3.2338,13.6357,-3.1484,0.7047,1.5141,1.7185,899,2019-08-07 16:19:27:411
-1.9274,-29.7437,3.9156,5.2831,20.919,-1.2512,0.6386,2.2374,2.1596,902,2019-08-07 16:19:27:414
-1.9274,-29.7437,3.9156,5.2831,20.919,-1.2512,0.6386,2.2374,2.1596,908,2019-08-07 16:19:27:420
-1.9274,-29.7437,3.9156,5.2831,20.919,-1.2512,0.6365,3.0907,2.5931,913,2019-08-07 16:19:27:425
-2.6594,-33.052,3.1614,5.2831,20.919,-1.2512,0.6365,3.0907,2.5931,918,2019-08-07 16:19:27:430
-2.6594,-33.052,3.1614,4.6283,25.5413,0.5725,0.6365,3.0907,2.5931,922,2019-08-07 16:19:27:434
-0.8654,-35.0188,1.983,4.6283,25.5413,0.5725,0.76,4.4308,2.9628,928,2019-08-07 16:19:27:440
-0.8654,-35.0188,1.983,4.6283,25.5413,0.5725,0.76,4.4308,2.9628,933,2019-08-07 16:19:27:445
-0.8654,-35.0188,1.983,4.6283,25.5413,0.5725,1.0775,6.6966,3.0821,938,2019-08-07 16:19:27:450
2.1056,-33.7681,0.5782,-0.5768,23.9942,3.3159,1.0775,6.6966,3.0821,942,2019-08-07 16:19:27:454
2.1056,-33.7681,0.5782,-0.5768,23.9942,3.3159,1.1414,8.8836,3.1002,948,2019-08-07 16:19:27:460
2.962,-29.7867,-3.0325,-0.5768,23.9942,3.3159,1.1414,8.8836,3.1002,953,2019-08-07 16:19:27:465
2.962,-29.7867,-3.0325,-0.5768,23.9942,3.3159,1.1414,8.8836,3.1002,958,2019-08-07 16:19:27:470
2.962,-29.7867,-3.0325,-0.983,18.4554,11.0403,0.824,11.029,3.0416,963,2019-08-07 16:19:27:475
0.8474,-27.29,-8.5477,-0.983,18.4554,11.0403,0.824,11.029,3.0416,968,2019-08-07 16:19:27:480
0.8474,-27.29,-8.5477,-0.983,18.4554,11.0403,-0.0634,13.1979,2.7231,972,2019-08-07 16:19:27:484
-4.9607,-28.2066,-12.6157,2.3041,18.2681,14.6644,-0.0634,13.1979,2.7231,978,2019-08-07 16:19:27:490
-4.9607,-28.2066,-12.6157,2.3041,18.2681,14.6644,-0.8165,14.031,2.4344,983,2019-08-07 16:19:27:495
-4.9607,-28.2066,-12.6157,2.3041,18.2681,14.6644,-0.8165,14.031,2.4344,988,2019-08-07 16:19:27:500
-13.0126,-29.6005,-14.9349,2.3041,18.2681,14.6644,-1.2916,15.0312,2.1542,993,2019-08-07 16:19:27:505
-13.0126,-29.6005,-14.9349,12.6168,20.809,17.9506,-1.2916,15.0312,2.1542,997,2019-08-07 16:19:27:509
-13.0126,-29.6005,-14.9349,12.6168,20.809,17.9506,-1.2916,15.0312,2.1542,1002,2019-08-07 16:19:27:514
-19.4809,-28.8081,-9.1652,12.6168,20.809,17.9506,-0.5289,16.6004,1.5438,1008,2019-08-07 16:19:27:520
-19.4809,-28.8081,-9.1652,14.3627,16.3572,-3.7206,1.689,15.5735,0.9452,1013,2019-08-07 16:19:27:525
-19.4809,-28.8081,-9.1652,14.3627,16.3572,-3.7206,1.689,15.5735,0.9452,1017,2019-08-07 16:19:27:529
-14.4718,-22.2202,11.0429,14.3627,16.3572,-3.7206,1.689,15.5735,0.9452,1023,2019-08-07 16:19:27:535
-14.4718,-22.2202,11.0429,8.6502,9.9115,-8.7607,5.2949,10.5199,0.3912,1028,2019-08-07 16:19:27:540
-9.4675,-14.9735,4.6981,8.6502,9.9115,-8.7607,5.2949,10.5199,0.3912,1033,2019-08-07 16:19:27:545
-9.4675,-14.9735,4.6981,8.6502,9.9115,-8.7607,10.4721,3.3858,-0.6165,1038,2019-08-07 16:19:27:550
-9.4675,-14.9735,4.6981,8.6502,9.9115,-8.7607,10.4721,3.3858,-0.6165,1043,2019-08-07 16:19:27:555
-7.9318,-8.4334,0.1634,4.3109,-0.0943,3.062,10.4721,3.3858,-0.6165,1048,2019-08-07 16:19:27:560
-7.9318,-8.4334,0.1634,4.3109,-0.0943,3.062,12.9903,0.7269,-1.5539,1053,2019-08-07 16:19:27:565
-7.9318,-8.4334,0.1634,4.3109,-0.0943,3.062,12.9903,0.7269,-1.5539,1058,2019-08-07 16:19:27:570
-16.8305,16.0897,11.9149,4.3109,-0.0943,3.062,14.1877,-1.5773,-1.8096,1063,2019-08-07 16:19:27:575
-16.8305,16.0897,11.9149,14.7105,-56.1652,25.7342,14.1877,-1.5773,-1.8096,1067,2019-08-07 16:19:27:579
-11.4865,74.8984,-4.1262,14.7105,-56.1652,25.7342,8.7144,-5.5209,-1.8203,1073,2019-08-07 16:19:27:585
-11.4865,74.8984,-4.1262,6.7271,-90.9239,5.8674,8.7144,-5.5209,-1.8203,1078,2019-08-07 16:19:27:590
-6.664,95.9653,-21.5296,6.7271,-90.9239,5.8674,12.6527,-3.744,-2.6096,1083,2019-08-07 16:19:27:595
-6.664,95.9653,-21.5296,6.7271,-90.9239,5.8674,12.6527,-3.744,-2.6096,1088,2019-08-07 16:19:27:600
-6.664,95.9653,-21.5296,6.7271,-90.9239,5.8674,5.982,-7.6429,1.0964,1092,2019-08-07 16:19:27:604
15.4392,58.2569,-20.4737,-17.3736,-64.0068,28.1829,5.982,-7.6429,1.0964,1098,2019-08-07 16:19:27:610
15.4392,58.2569,-20.4737,-17.3736,-64.0068,28.1829,1.8818,-2.1632,2.411,1103,2019-08-07 16:19:27:615
15.4392,58.2569,-20.4737,-17.3736,-64.0068,28.1829,1.8818,-2.1632,2.411,1108,2019-08-07 16:19:27:620
44.4029,33.7003,-11.9558,-17.3736,-64.0068,28.1829,-1.4163,1.1477,1.6024,1112,2019-08-07 16:19:27:624
44.4029,33.7003,-11.9558,-38.8993,-34.4588,2.5665,-1.4163,1.1477,1.6024,1118,2019-08-07 16:19:27:630
44.4029,33.7003,-11.9558,-38.8993,-34.4588,2.5665,-1.4163,1.1477,1.6024,1123,2019-08-07 16:19:27:635
18.2523,29.1366,17.2038,-13.5977,-34.6828,-10.1755,-4.9785,2.247,-1.0277,1128,2019-08-07 16:19:27:640
18.2523,29.1366,17.2038,-13.5977,-34.6828,-10.1755,-4.9785,2.247,-1.0277,1134,2019-08-07 16:19:27:646
18.2523,29.1366,17.2038,-13.5977,-34.6828,-10.1755,-4.137,1.2414,-0.2565,1138,2019-08-07 16:19:27:650
18.2523,29.1366,17.2038,-13.5977,-34.6828,-10.1755,-4.137,1.2414,-0.2565,1143,2019-08-07 16:19:27:655
-9.4341,22.7444,2.7465,8.0967,-26.7697,6.1279,-4.3415,0.4318,1.1199,1148,2019-08-07 16:19:27:660
-9.4341,22.7444,2.7465,8.0967,-26.7697,6.1279,-4.3415,0.4318,1.1199,1153,2019-08-07 16:19:27:665
-5.3054,16.6817,1.4597,8.0967,-26.7697,6.1279,-4.3415,0.4318,1.1199,1158,2019-08-07 16:19:27:670
-5.3054,16.6817,1.4597,8.0967,-26.7697,6.1279,-4.5002,-1.051,1.6717,1163,2019-08-07 16:19:27:675
-5.3054,16.6817,1.4597,-2.3165,-22.5571,3.8395,-4.5002,-1.051,1.6717,1169,2019-08-07 16:19:27:681
0.8137,15.4405,0.9412,-2.3165,-22.5571,3.8395,-4.7687,-3.2892,1.04,1172,2019-08-07 16:19:27:684
0.8137,15.4405,0.9412,-2.8807,-22.4178,7.2679,-4.7687,-3.2892,1.04,1178,2019-08-07 16:19:27:690
0.8137,15.4405,0.9412,-2.8807,-22.4178,7.2679,-4.7687,-3.2892,1.04,1184,2019-08-07 16:19:27:696
-0.5355,14.648,-0.4353,-2.8807,-22.4178,7.2679,-5.068,-3.3744,0.5734,1188,2019-08-07 16:19:27:700
-0.5355,14.648,-0.4353,-2.8807,-22.4178,7.2679,-5.068,-3.3744,0.5734,1192,2019-08-07 16:19:27:704
-0.3346,10.5616,3.5385,-1.6484,-18.423,1.9845,-5.2736,-3.743,0.5308,1198,2019-08-07 16:19:27:710
-0.3346,10.5616,3.5385,-1.6484,-18.423,1.9845,-5.2736,-3.743,0.5308,1204,2019-08-07 16:19:27:716
-0.3346,10.5616,3.5385,-1.6484,-18.423,1.9845,-5.1916,-4.7592,0.4243,1208,2019-08-07 16:19:27:720
1.3877,3.7064,5.8482,-1.6484,-18.423,1.9845,-5.1916,-4.7592,0.4243,1214,2019-08-07 16:19:27:726
1.3877,3.7064,5.8482,-3.468,-8.2087,-0.3409,-4.6334,-5.4698,0.0269,1218,2019-08-07 16:19:27:730
1.3877,3.7064,5.8482,-3.468,-8.2087,-0.3409,-4.6334,-5.4698,0.0269,1223,2019-08-07 16:19:27:735
1.7322,-3.2013,2.3317,-2.479,-4.5178,3.4435,-4.497,-6.2559,-0.3363,1228,2019-08-07 16:19:27:740
1.7322,-3.2013,2.3317,-2.479,-4.5178,3.4435,-4.497,-6.2559,-0.3363,1234,2019-08-07 16:19:27:746
1.7322,-3.2013,2.3317,-2.479,-4.5178,3.4435,-4.497,-6.2559,-0.3363,1237,2019-08-07 16:19:27:749
1.7322,-3.2013,2.3317,-2.479,-4.5178,3.4435,-5.0105,-7.5087,-0.4493,1243,2019-08-07 16:19:27:755
-1.9852,-8.5766,-3.339,0.7713,2.7575,6.7685,-5.0105,-7.5087,-0.4493,1247,2019-08-07 16:19:27:759
-1.9852,-8.5766,-3.339,0.7713,2.7575,6.7685,-4.5535,-6.959,-0.1499,1253,2019-08-07 16:19:27:765
-1.9852,-8.5766,-3.339,0.7713,2.7575,6.7685,-4.5535,-6.959,-0.1499,1258,2019-08-07 16:19:27:770
0.938,-22.3491,-4.6872,-1.2031,13.1591,8.1091,-3.8941,-6.5361,-0.1563,1262,2019-08-07 16:19:27:774
0.938,-22.3491,-4.6872,-1.2031,13.1591,8.1091,-3.8941,-6.5361,-0.1563,1267,2019-08-07 16:19:27:779
0.6844,-34.5796,-0.4824,-1.2031,13.1591,8.1091,-2.195,-5.6849,-0.4567,1273,2019-08-07 16:19:27:785
0.6844,-34.5796,-0.4824,-1.2031,13.1591,8.1091,-2.195,-5.6849,-0.4567,1277,2019-08-07 16:19:27:789
0.6844,-34.5796,-0.4824,2.3164,19.6798,1.1094,-2.195,-5.6849,-0.4567,1283,2019-08-07 16:19:27:795
-2.8368,-21.8096,6.7155,2.3164,19.6798,1.1094,0.5257,-4.7113,-0.9457,1288,2019-08-07 16:19:27:800
-2.8368,-21.8096,6.7155,2.3164,19.6798,1.1094,0.5257,-4.7113,-0.9457,1293,2019-08-07 16:19:27:805
-4.7075,-24.5068,7.8516,5.3746,15.1757,-4.8984,1.7188,-4.9627,-1.3281,1298,2019-08-07 16:19:27:810
-4.7075,-24.5068,7.8516,5.3746,15.1757,-4.8984,1.7188,-4.9627,-1.3281,1303,2019-08-07 16:19:27:815
-4.7075,-24.5068,7.8516,5.3746,15.1757,-4.8984,2.1044,-9.4389,-2.6118,1307,2019-08-07 16:19:27:819
-12.0465,-29.8153,-11.2676,13.1712,20.5792,14.3765,2.1044,-9.4389,-2.6118,1312,2019-08-07 16:19:27:824
-12.0465,-29.8153,-11.2676,13.1712,20.5792,14.3765,-1.0136,-9.5476,-2.4562,1318,2019-08-07 16:19:27:830
-12.0465,-29.8153,-11.2676,13.1712,20.5792,14.3765,-1.0136,-9.5476,-2.4562,1323,2019-08-07 16:19:27:835
-4.4635,-27.1945,-20.6528,13.1712,20.5792,14.3765,-3.2826,-8.705,-2.0855,1328,2019-08-07 16:19:27:840
-4.4635,-27.1945,-20.6528,-0.9589,18.9684,18.3491,-3.2826,-8.705,-2.0855,1333,2019-08-07 16:19:27:845
-4.4635,-27.1945,-20.6528,-0.9589,18.9684,18.3491,-3.2826,-8.705,-2.0855,1338,2019-08-07 16:19:27:850
15.3767,-34.8421,2.9445,-0.9589,18.9684,18.3491,-4.0933,-8.8328,-3.1178,1343,2019-08-07 16:19:27:855
15.3767,-34.8421,2.9445,-0.9589,18.9684,18.3491,-4.0933,-8.8328,-3.1178,1348,2019-08-07 16:19:27:860
15.3767,-34.8421,2.9445,-8.9976,21.9757,3.9789,-2.0256,-5.9672,-3.8698,1353,2019-08-07 16:19:27:865
4.1481,-24.3875,-3.9094,-8.9976,21.9757,3.9789,-2.0256,-5.9672,-3.8698,1357,2019-08-07 16:19:27:869
4.1481,-24.3875,-3.9094,1.6249,13.9764,5.0038,1.1063,-0.8913,-3.1529,1363,2019-08-07 16:19:27:875
-2.7029,-22.5352,1.2145,1.6249,13.9764,5.0038,1.1063,-0.8913,-3.1529,1368,2019-08-07 16:19:27:880
-2.7029,-22.5352,1.2145,1.6249,13.9764,5.0038,4.5162,4.5693,-0.8487,1373,2019-08-07 16:19:27:885
-2.7029,-22.5352,1.2145,1.6249,13.9764,5.0038,4.5162,4.5693,-0.8487,1378,2019-08-07 16:19:27:890
3.2295,-29.653,16.4213,0.3354,20.7172,-14.5034,4.9785,1.0987,-0.1734,1384,2019-08-07 16:19:27:896
3.2295,-29.653,16.4213,0.3354,20.7172,-14.5034,4.9785,1.0987,-0.1734,1389,2019-08-07 16:19:27:901
-3.545,-19.5039,-4.8616,0.3354,20.7172,-14.5034,2.0714,0.4201,-0.6474,1393,2019-08-07 16:19:27:905
-3.545,-19.5039,-4.8616,0.3354,20.7172,-14.5034,2.0714,0.4201,-0.6474,1398,2019-08-07 16:19:27:910
-3.545,-19.5039,-4.8616,8.9641,5.4768,4.4242,2.0714,0.4201,-0.6474,1403,2019-08-07 16:19:27:915
-3.545,-19.5039,-4.8616,8.9641,5.4768,4.4242,-1.4035,0.8835,-1.0906,1408,2019-08-07 16:19:27:920
-5.3008,-12.2715,10.4819,8.9641,5.4768,4.4242,-1.4035,0.8835,-1.0906,1413,2019-08-07 16:19:27:925
-5.3008,-12.2715,10.4819,8.9641,5.4768,4.4242,-1.6208,-1.9096,-0.6602,1419,2019-08-07 16:19:27:931
-5.3008,-12.2715,10.4819,8.477,6.3672,-5.3814,-1.6208,-1.9096,-0.6602,1423,2019-08-07 16:19:27:935
-5.3008,-12.2715,10.4819,8.477,6.3672,-5.3814,-1.6208,-1.9096,-0.6602,1428,2019-08-07 16:19:27:940
-0.6027,-18.4966,2.1667,1.0931,11.5221,-0.713,-0.3926,-2.2963,-0.1531,1432,2019-08-07 16:19:27:944
-0.6027,-18.4966,2.1667,1.0931,11.5221,-0.713,-0.3926,-2.2963,-0.1531,1438,2019-08-07 16:19:27:950
-0.6027,-18.4966,2.1667,1.0931,11.5221,-0.713,0.6716,-3.0505,-0.527,1443,2019-08-07 16:19:27:955
4.4686,-17.2697,2.3034,1.0931,11.5221,-0.713,0.6716,-3.0505,-0.527,1448,2019-08-07 16:19:27:960
4.4686,-17.2697,2.3034,-1.1128,4.8623,-0.0556,1.4109,-2.3688,-0.4812,1453,2019-08-07 16:19:27:965
4.4686,-17.2697,2.3034,-1.1128,4.8623,-0.0556,1.4109,-2.3688,-0.4812,1458,2019-08-07 16:19:27:970
5.9899,-10.467,1.3983,-1.1128,4.8623,-0.0556,1.5238,-2.3347,-0.2202,1463,2019-08-07 16:19:27:975
5.9899,-10.467,1.3983,-1.1128,4.8623,-0.0556,1.5238,-2.3347,-0.2202,1468,2019-08-07 16:19:27:980
7.4108,-6.3329,-0.7276,-2.9694,-1.9045,2.7364,1.1819,-2.0023,0.3987,1472,2019-08-07 16:19:27:984
7.4108,-6.3329,-0.7276,-2.9694,-1.9045,2.7364,1.1819,-2.0023,0.3987,1478,2019-08-07 16:19:27:990
7.4108,-6.3329,-0.7276,-2.9694,-1.9045,2.7364,0.6343,-0.9189,0.8844,1483,2019-08-07 16:19:27:995
8.9035,-5.6502,-1.001,-2.9694,-1.9045,2.7364,0.6343,-0.9189,0.8844,1488,2019-08-07 16:19:28:000
8.9035,-5.6502,-1.001,-2.9694,-1.9045,2.7364,0.6343,-0.9189,0.8844,1493,2019-08-07 16:19:28:005
8.5877,-6.3711,-0.0064,-5.0276,-2.778,2.9473,0.3798,-0.2137,0.9803,1498,2019-08-07 16:19:28:010
8.5877,-6.3711,-0.0064,-5.0276,-2.778,2.9473,0.3798,-0.2137,0.9803,1503,2019-08-07 16:19:28:015
8.5877,-6.3711,-0.0064,-5.0276,-2.778,2.9473,0.254,0.761,0.9164,1508,2019-08-07 16:19:28:020
5.6502,-7.6218,1.37,-1.2584,-0.8037,0.7707,0.254,0.761,0.9164,1513,2019-08-07 16:19:28:025
5.6502,-7.6218,1.37,-1.2584,-0.8037,0.7707,0.204,0.9698,0.9036,1518,2019-08-07 16:19:28:030
5.6502,-7.6218,1.37,-1.2584,-0.8037,0.7707,0.204,0.9698,0.9036,1523,2019-08-07 16:19:28:035
3.2198,-8.4286,1.4266,-1.2584,-0.8037,0.7707,0.1241,0.9495,0.8749,1528,2019-08-07 16:19:28:040
3.2198,-8.4286,1.4266,1.2825,-0.6656,0.6026,0.1241,0.9495,0.8749,1533,2019-08-07 16:19:28:045
3.2198,-8.4286,1.4266,1.2825,-0.6656,0.6026,0.1102,0.6491,0.7662,1538,2019-08-07 16:19:28:050
3.2198,-8.4286,1.4266,1.2825,-0.6656,0.6026,0.1102,0.6491,0.7662,1543,2019-08-07 16:19:28:055
1.8754,-7.6743,2.7889,1.7151,-1.1625,-0.4964,0.2093,0.4275,0.6714,1548,2019-08-07 16:19:28:060
1.8754,-7.6743,2.7889,1.7151,-1.1625,-0.4964,0.2093,0.4275,0.6714,1553,2019-08-07 16:19:28:065
1.8754,-7.6743,2.7889,1.7151,-1.1625,-0.4964,0.2093,0.4275,0.6714,1557,2019-08-07 16:19:28:069
2.0572,-7.0776,2.77,1.3309,-2.055,0.037,0.2636,0.0771,0.4999,1563,2019-08-07 16:19:28:075
2.0572,-7.0776,2.77,1.3309,-2.055,0.037,0.2636,0.0771,0.4999,1568,2019-08-07 16:19:28:080
2.6409,-6.605,2.1572,1.3309,-2.055,0.037,0.0325,-0.3522,0.3603,1574,2019-08-07 16:19:28:086
2.6409,-6.605,2.1572,1.3309,-2.055,0.037,0.0325,-0.3522,0.3603,1578,2019-08-07 16:19:28:090
2.6409,-6.605,2.1572,-0.146,-1.9759,0.0791,-0.1007,-0.4257,0.323,1582,2019-08-07 16:19:28:094
3.9374,-7.1301,2.1619,-0.146,-1.9759,0.0791,-0.1007,-0.4257,0.323,1588,2019-08-07 16:19:28:100
3.9374,-7.1301,2.1619,-0.146,-1.9759,0.0791,-0.1007,-0.4257,0.323,1592,2019-08-07 16:19:28:104
3.9374,-7.1301,2.1619,-0.7799,-1.629,0.337,-0.1305,-0.4343,0.2804,1598,2019-08-07 16:19:28:110
4.4636,-7.5788,1.6293,-0.7799,-1.629,0.337,-0.1305,-0.4343,0.2804,1603,2019-08-07 16:19:28:115
4.4636,-7.5788,1.6293,-0.7799,-1.629,0.337,-0.1316,-0.3086,0.1835,1607,2019-08-07 16:19:28:119
4.4636,-7.5788,1.6293,-0.7799,-1.629,0.337,-0.1316,-0.3086,0.1835,1613,2019-08-07 16:19:28:125
4.5641,-7.8175,1.7094,-1.1762,-1.1016,0.5727,-0.0986,-0.1924,0.11,1617,2019-08-07 16:19:28:129
4.5641,-7.8175,1.7094,-1.1762,-1.1016,0.5727,-0.0986,-0.1924,0.11,1623,2019-08-07 16:19:28:135
4.1191,-7.7746,1.7895,-1.1762,-1.1016,0.5727,-0.0549,-0.0689,0.0759,1628,2019-08-07 16:19:28:140
4.1191,-7.7746,1.7895,-0.5361,-1.1222,0.2241,-0.0549,-0.0689,0.0759,1634,2019-08-07 16:19:28:146
4.1191,-7.7746,1.7895,-0.5361,-1.1222,0.2241,0.0165,0.0153,0.0131,1638,2019-08-07 16:19:28:150
4.1191,-7.7746,1.7895,-0.5361,-1.1222,0.2241,0.0165,0.0153,0.0131,1643,2019-08-07 16:19:28:155
3.7412,-7.9273,2.1666,-0.2147,-1.0308,-7.0E-4,0.0548,0.0707,-0.0381,1649,2019-08-07 16:19:28:161
3.7412,-7.9273,2.1666,-0.2147,-1.0308,-7.0E-4,0.0548,0.0707,-0.0381,1653,2019-08-07 16:19:28:165
3.7412,-7.9273,2.1666,-0.2147,-1.0308,-7.0E-4,0.0548,0.0707,-0.0381,1658,2019-08-07 16:19:28:170
3.2292,-8.1135,1.8932,-0.2147,-1.0308,-7.0E-4,0.0485,0.1314,-0.0807,1663,2019-08-07 16:19:28:175
3.2292,-8.1135,1.8932,0.2995,-0.7235,0.0616,0.0485,0.1314,-0.0807,1668,2019-08-07 16:19:28:180
3.2292,-8.1135,1.8932,0.2995,-0.7235,0.0616,0.058,0.1367,-0.1265,1672,2019-08-07 16:19:28:184
3.2292,-8.1135,1.8932,0.2995,-0.7235,0.0616,0.058,0.1367,-0.1265,1678,2019-08-07 16:19:28:190
2.8513,-8.505,2.5909,0.2995,-0.7235,0.0616,0.058,0.1367,-0.1265,1683,2019-08-07 16:19:28:195
2.8513,-8.505,2.5909,0.6941,-0.2358,-0.3398,0.0559,0.1325,-0.1286,1688,2019-08-07 16:19:28:200
2.8513,-8.505,2.5909,0.6941,-0.2358,-0.3398,0.0559,0.1325,-0.1286,1693,2019-08-07 16:19:28:205
2.6503,-8.7007,2.8784,0.6941,-0.2358,-0.3398,0.0335,0.0717,-0.1265,1697,2019-08-07 16:19:28:209
2.6503,-8.7007,2.8784,0.3885,-0.0256,-0.4894,0.0335,0.0717,-0.1265,1703,2019-08-07 16:19:28:215
2.6503,-8.7007,2.8784,0.3885,-0.0256,-0.4894,0.0144,-0.0018,-0.1414,1708,2019-08-07 16:19:28:220
3.1096,-8.925,2.5532,0.3885,-0.0256,-0.4894,0.0144,-0.0018,-0.1414,1713,2019-08-07 16:19:28:225
3.1096,-8.925,2.5532,0.3885,-0.0256,-0.4894,0.009,0.0206,-0.1585,1718,2019-08-07 16:19:28:230
3.1096,-8.925,2.5532,0.3885,-0.0256,-0.4894,0.009,0.0206,-0.1585,1723,2019-08-07 16:19:28:235
3.3584,-8.7436,2.5532,0.0878,-0.1437,-0.2347,0.0058,0.027,-0.1393,1727,2019-08-07 16:19:28:239
3.3584,-8.7436,2.5532,0.0878,-0.1437,-0.2347,0.0058,0.027,-0.1393,1733,2019-08-07 16:19:28:245
3.3584,-8.7436,2.5532,0.0878,-0.1437,-0.2347,-0.024,0.0824,-0.0828,1738,2019-08-07 16:19:28:250
3.7985,-8.9585,2.6899,0.0878,-0.1437,-0.2347,-0.024,0.0824,-0.0828,1743,2019-08-07 16:19:28:255
3.7985,-8.9585,2.6899,-0.3822,0.0694,-0.3305,-0.024,0.0824,-0.0828,1747,2019-08-07 16:19:28:259
3.7985,-8.9585,2.6899,-0.3822,0.0694,-0.3305,-0.0538,0.1719,-0.0636,1753,2019-08-07 16:19:28:265
3.8942,-8.9728,2.2656,-0.3822,0.0694,-0.3305,-0.0538,0.1719,-0.0636,1757,2019-08-07 16:19:28:269
3.8942,-8.9728,2.2656,-0.3822,0.0694,-0.3305,-0.0975,0.2198,-0.0519,1763,2019-08-07 16:19:28:275
3.6023,-9.1924,2.2185,-0.1922,0.2472,0.1496,-0.0975,0.2198,-0.0519,1768,2019-08-07 16:19:28:280
3.6023,-9.1924,2.2185,-0.1922,0.2472,0.1496,-0.1412,0.3029,-0.0317,1773,2019-08-07 16:19:28:285
3.6023,-9.1924,2.2185,-0.0092,0.3596,0.0335,-0.1412,0.3029,-0.0317,1777,2019-08-07 16:19:28:289
3.368,-9.2401,2.1714,-0.0092,0.3596,0.0335,-0.138,0.2699,-0.004,1782,2019-08-07 16:19:28:294
3.368,-9.2401,2.1714,-0.0092,0.3596,0.0335,-0.138,0.2699,-0.004,1788,2019-08-07 16:19:28:300
3.368,-9.2401,2.1714,-0.0092,0.3596,0.0335,-0.138,0.2699,-0.004,1793,2019-08-07 16:19:28:305
3.4732,-9.2592,2.3929,-0.0504,0.3385,-0.0213,-0.1252,0.1836,0.0173,1798,2019-08-07 16:19:28:310
3.4732,-9.2592,2.3929,-0.0504,0.3385,-0.0213,-0.1252,0.1836,0.0173,1803,2019-08-07 16:19:28:315
3.4732,-9.2592,2.3929,-0.0504,0.3385,-0.0213,-0.0943,0.1122,0.0216,1807,2019-08-07 16:19:28:319
3.6933,-9.0301,2.2798,-0.0504,0.3385,-0.0213,-0.0943,0.1122,0.0216,1813,2019-08-07 16:19:28:325
3.6933,-9.0301,2.2798,-0.3319,-0.0019,0.2083,-0.0815,0.0739,0.0408,1818,2019-08-07 16:19:28:330
3.6933,-9.0301,2.2798,-0.3319,-0.0019,0.2083,-0.0815,0.0739,0.0408,1822,2019-08-07 16:19:28:334
3.7603,-8.8582,2.3411,-0.3227,-0.0385,-0.0461,-0.0666,0.0888,0.0695,1828,2019-08-07 16:19:28:340
3.7603,-8.8582,2.3411,-0.3227,-0.0385,-0.0461,-0.0666,0.0888,0.0695,1833,2019-08-07 16:19:28:345
3.7603,-8.8582,2.3411,-0.3227,-0.0385,-0.0461,-0.0517,0.0792,0.1153,1838,2019-08-07 16:19:28:350
3.7603,-8.8582,2.3411,-0.3227,-0.0385,-0.0461,-0.0517,0.0792,0.1153,1843,2019-08-07 16:19:28:355
3.5402,-8.9776,2.341,-0.0996,0.1051,-0.0501,-0.0591,0.0792,0.1217,1848,2019-08-07 16:19:28:360
3.5402,-8.9776,2.341,-0.0996,0.1051,-0.0501,-0.0591,0.0792,0.1217,1852,2019-08-07 16:19:28:364
3.3871,-9.0778,2.4683,-0.0996,0.1051,-0.0501,-0.0591,0.0792,0.1217,1858,2019-08-07 16:19:28:370
3.3871,-9.0778,2.4683,-0.0996,0.1051,-0.0501,-0.0506,0.092,0.1057,1863,2019-08-07 16:19:28:375
3.2722,-9.0635,2.2043,0.1005,0.1377,0.102,-0.0506,0.092,0.1057,1868,2019-08-07 16:19:28:380
3.2722,-9.0635,2.2043,0.1005,0.1377,0.102,-0.0282,0.1303,0.078,1873,2019-08-07 16:19:28:385
3.2722,-9.0635,2.2043,0.1327,0.1004,0.1878,-0.0282,0.1303,0.078,1877,2019-08-07 16:19:28:389
3.2627,-9.0826,2.0535,0.1327,0.1004,0.1878,-0.0059,0.1761,0.045,1882,2019-08-07 16:19:28:394
3.2627,-9.0826,2.0535,0.1327,0.1004,0.1878,-0.0059,0.1761,0.045,1889,2019-08-07 16:19:28:401
3.3536,-9.0253,2.1666,0.1327,0.1004,0.1878,0.0293,0.2528,-8.0E-4,1893,2019-08-07 16:19:28:405
3.3536,-9.0253,2.1666,-0.0256,0.0364,0.084,0.0293,0.2528,-8.0E-4,1898,2019-08-07 16:19:28:410
3.3536,-9.0253,2.1666,-0.0256,0.0364,0.084,0.0612,0.2678,-0.0359,1904,2019-08-07 16:19:28:416
3.3536,-9.0253,2.1666,-0.0256,0.0364,0.084,0.0612,0.2678,-0.0359,1908,2019-08-07 16:19:28:420
3.2674,-8.7007,2.1808,0.0954,-0.2191,0.1355,0.0612,0.2678,-0.0359,1913,2019-08-07 16:19:28:425
3.2674,-8.7007,2.1808,0.0954,-0.2191,0.1355,0.0612,0.2603,-0.0296,1918,2019-08-07 16:19:28:430
3.2674,-8.7007,2.1808,0.0954,-0.2191,0.1355,0.0612,0.2603,-0.0296,1923,2019-08-07 16:19:28:435
3.0473,-8.5813,2.7558,0.3273,-0.3293,-0.4734,0.0495,0.1463,-0.0061,1928,2019-08-07 16:19:28:440
3.0473,-8.5813,2.7558,0.3273,-0.3293,-0.4734,0.0495,0.1463,-0.0061,1933,2019-08-07 16:19:28:445
3.0473,-8.5813,2.7558,0.3273,-0.3293,-0.4734,0.0495,0.1463,-0.0061,1938,2019-08-07 16:19:28:450
3.1956,-8.672,2.5296,0.3273,-0.3293,-0.4734,0.0197,-0.1072,0.0546,1943,2019-08-07 16:19:28:455
3.1956,-8.672,2.5296,-0.1093,-0.1774,-0.1949,0.0197,-0.1072,0.0546,1948,2019-08-07 16:19:28:460
3.5592,-8.7961,2.4777,-0.1093,-0.1774,-0.1949,-0.0187,-0.2137,0.0631,1952,2019-08-07 16:19:28:464
3.5592,-8.7961,2.4777,-0.1093,-0.1774,-0.1949,-0.0187,-0.2137,0.0631,1958,2019-08-07 16:19:28:470
3.5592,-8.7961,2.4777,-0.2862,-0.1318,0.0516,-0.0336,-0.2063,0.0834,1963,2019-08-07 16:19:28:475
3.7841,-8.8582,1.8272,-0.2862,-0.1318,0.0516,-0.0336,-0.2063,0.0834,1968,2019-08-07 16:19:28:480
3.7841,-8.8582,1.8272,-0.2862,-0.1318,0.0516,-0.0336,-0.2063,0.0834,1972,2019-08-07 16:19:28:484
3.8798,-9.0396,1.7612,-0.2862,-0.1318,0.0516,-0.0527,-0.0646,0.1057,1978,2019-08-07 16:19:28:490
3.8798,-9.0396,1.7612,-0.5548,0.1801,0.5852,-0.0527,-0.0646,0.1057,1983,2019-08-07 16:19:28:495
3.8798,-9.0396,1.7612,-0.5548,0.1801,0.5852,-0.0314,0.1357,0.0929,1988,2019-08-07 16:19:28:500
3.6884,-9.2735,1.8649,-0.5548,0.1801,0.5852,-0.0314,0.1357,0.0929,1993,2019-08-07 16:19:28:505
3.6884,-9.2735,1.8649,-0.5548,0.1801,0.5852,-0.0314,0.1357,0.0929,1998,2019-08-07 16:19:28:510
3.2339,-9.1303,2.1713,-0.1824,0.2915,0.2767,-0.0123,0.271,0.0599,2003,2019-08-07 16:19:28:515
3.2339,-9.1303,2.1713,-0.1824,0.2915,0.2767,-0.0123,0.271,0.0599,2008,2019-08-07 16:19:28:520
3.2339,-9.1303,2.1713,-0.1824,0.2915,0.2767,-0.0048,0.337,0.0322,2013,2019-08-07 16:19:28:525
3.009,-8.8582,2.4353,-0.1824,0.2915,0.2767,-0.0048,0.337,0.0322,2018,2019-08-07 16:19:28:530
3.009,-8.8582,2.4353,0.3832,-0.1032,-0.1369,-0.0144,0.3434,-0.0051,2023,2019-08-07 16:19:28:535
2.8607,-8.7293,2.539,0.3832,-0.1032,-0.1369,-0.0144,0.3434,-0.0051,2028,2019-08-07 16:19:28:540
2.8607,-8.7293,2.539,0.3832,-0.1032,-0.1369,-0.041,0.2582,-0.02,2033,2019-08-07 16:19:28:545
2.8607,-8.7293,2.539,0.6318,-0.472,-0.1208,-0.041,0.2582,-0.02,2038,2019-08-07 16:19:28:550
2.8607,-8.7293,2.539,0.6318,-0.472,-0.1208,-0.041,0.2582,-0.02,2042,2019-08-07 16:19:28:554
2.631,-8.4715,2.5908,0.6318,-0.472,-0.1208,-0.0687,0.1399,-0.0189,2048,2019-08-07 16:19:28:560
2.631,-8.4715,2.5908,0.6318,-0.472,-0.1208,-0.0687,0.1399,-0.0189,2053,2019-08-07 16:19:28:565
2.8463,-8.672,2.8595,0.6318,-0.472,-0.1208,-0.0634,-0.1147,0.0088,2058,2019-08-07 16:19:28:570
2.8463,-8.672,2.8595,0.3023,-0.2314,-0.3475,-0.0634,-0.1147,0.0088,2063,2019-08-07 16:19:28:575
3.3247,-8.7245,2.3787,0.3023,-0.2314,-0.3475,-0.0655,-0.2233,0.0109,2068,2019-08-07 16:19:28:580
3.3247,-8.7245,2.3787,0.3023,-0.2314,-0.3475,-0.0655,-0.2233,0.0109,2072,2019-08-07 16:19:28:584
3.3247,-8.7245,2.3787,0.3023,-0.2314,-0.3475,-0.0655,-0.2233,0.0109,2078,2019-08-07 16:19:28:590
3.7122,-8.7245,2.1006,-0.4196,-0.2202,0.2202,-0.0719,-0.2201,0.0077,2083,2019-08-07 16:19:28:595
3.7122,-8.7245,2.1006,-0.4196,-0.2202,0.2202,-0.0719,-0.2201,0.0077,2088,2019-08-07 16:19:28:600
3.9562,-8.8677,1.8838,-0.4196,-0.2202,0.2202,-0.0581,-0.0848,0.0162,2093,2019-08-07 16:19:28:605
3.9562,-8.8677,1.8838,-0.5549,-0.0465,0.3998,-0.0581,-0.0848,0.0162,2099,2019-08-07 16:19:28:611
3.9562,-8.8677,1.8838,-0.5549,-0.0465,0.3998,-0.0581,-0.0848,0.0162,2102,2019-08-07 16:19:28:614
3.9562,-8.8677,1.8838,-0.5549,-0.0465,0.3998,-0.0506,0.0845,0.012,2108,2019-08-07 16:19:28:620
3.6213,-8.9966,2.1006,-0.2833,0.0429,0.2078,-0.0506,0.0845,0.012,2113,2019-08-07 16:19:28:625
3.6213,-8.9966,2.1006,-0.2833,0.0429,0.2078,-0.04,0.1538,0.0035,2117,2019-08-07 16:19:28:629
3.6213,-8.9966,2.1006,-0.2833,0.0429,0.2078,-0.04,0.1538,0.0035,2123,2019-08-07 16:19:28:635
2.9945,-8.9346,2.3174,-0.2833,0.0429,0.2078,-0.0549,0.1634,-0.0168,2128,2019-08-07 16:19:28:640
2.9945,-8.9346,2.3174,0.4508,-0.0071,-0.1106,-0.0549,0.1634,-0.0168,2133,2019-08-07 16:19:28:645
2.9945,-8.9346,2.3174,0.4508,-0.0071,-0.1106,-0.0677,0.076,-0.0359,2138,2019-08-07 16:19:28:650
2.7936,-8.9298,2.5154,0.497,-0.0223,-0.2203,-0.0677,0.076,-0.0359,2143,2019-08-07 16:19:28:655
2.7936,-8.9298,2.5154,0.497,-0.0223,-0.2203,-0.0687,-0.054,-0.0455,2148,2019-08-07 16:19:28:660
2.7936,-8.9298,2.5154,0.497,-0.0223,-0.2203,-0.0687,-0.054,-0.0455,2152,2019-08-07 16:19:28:664
2.7936,-8.9298,2.5154,0.497,-0.0223,-0.2203,-0.0687,-0.054,-0.0455,2158,2019-08-07 16:19:28:670
3.0615,-9.0157,2.4824,0.1706,0.1013,-0.1446,-0.0506,-0.1253,-0.0594,2163,2019-08-07 16:19:28:675
3.0615,-9.0157,2.4824,0.1706,0.1013,-0.1446,-0.0506,-0.1253,-0.0594,2168,2019-08-07 16:19:28:680
3.3629,-8.9107,2.2279,0.1706,0.1013,-0.1446,-0.008,-0.1797,-0.0338,2173,2019-08-07 16:19:28:685
3.3629,-8.9107,2.2279,0.1706,0.1013,-0.1446,-0.008,-0.1797,-0.0338,2178,2019-08-07 16:19:28:690
3.3629,-8.9107,2.2279,-0.1057,-0.0114,0.2314,0.0058,-0.1797,-0.02,2183,2019-08-07 16:19:28:695
3.5351,-8.8916,2.0723,-0.1057,-0.0114,0.2314,0.0058,-0.1797,-0.02,2188,2019-08-07 16:19:28:700
3.5351,-8.8916,2.0723,-0.3286,-0.0437,0.0796,0.0165,-0.1594,-0.0157,2193,2019-08-07 16:19:28:705
3.7217,-8.8677,2.1666,-0.3286,-0.0437,0.0796,0.0165,-0.1594,-0.0157,2197,2019-08-07 16:19:28:709
3.7217,-8.8677,2.1666,-0.3286,-0.0437,0.0796,0.0282,-0.1008,-0.004,2203,2019-08-07 16:19:28:715
3.7217,-8.8677,2.1666,-0.3286,-0.0437,0.0796,0.0282,-0.1008,-0.004,2207,2019-08-07 16:19:28:719
3.8174,-8.8343,1.8979,-0.5768,-0.0843,0.3523,0.0144,0.0014,0.0088,2213,2019-08-07 16:19:28:725
3.8174,-8.8343,1.8979,-0.5768,-0.0843,0.3523,0.0144,0.0014,0.0088,2217,2019-08-07 16:19:28:729
3.7647,-8.8343,2.0487,-0.5768,-0.0843,0.3523,0.0144,0.0014,0.0088,2223,2019-08-07 16:19:28:735
3.7647,-8.8343,2.0487,-0.5768,-0.0843,0.3523,0.0026,0.0984,0.0226,2228,2019-08-07 16:19:28:740
3.7647,-8.8343,2.0487,-0.1396,-0.1656,0.1439,0.0026,0.0984,0.0226,2233,2019-08-07 16:19:28:745
3.3246,-8.8391,2.2137,-0.1396,-0.1656,0.1439,-0.008,0.1453,0.0322,2238,2019-08-07 16:19:28:750
3.3246,-8.8391,2.2137,-0.1396,-0.1656,0.1439,-0.008,0.1453,0.0322,2242,2019-08-07 16:19:28:754
3.3246,-8.8391,2.2137,0.1604,-0.1144,0.0771,-0.0368,0.0941,0.028,2248,2019-08-07 16:19:28:760
2.9849,-8.8868,2.3928,0.1604,-0.1144,0.0771,-0.0368,0.0941,0.028,2253,2019-08-07 16:19:28:765
2.9849,-8.8868,2.3928,0.1604,-0.1144,0.0771,-0.0368,0.0941,0.028,2257,2019-08-07 16:19:28:769
2.9131,-8.9632,2.2986,0.3996,0.0106,-0.0375,-0.0442,0.0132,0.0152,2263,2019-08-07 16:19:28:775
2.9131,-8.9632,2.2986,0.3996,0.0106,-0.0375,-0.0442,0.0132,0.0152,2268,2019-08-07 16:19:28:780
2.9131,-8.9632,2.2986,0.3996,0.0106,-0.0375,-0.0538,-0.1221,-0.0019,2273,2019-08-07 16:19:28:785
3.0518,-8.9059,2.3268,0.3996,0.0106,-0.0375,-0.0538,-0.1221,-0.0019,2277,2019-08-07 16:19:28:789
3.0518,-8.9059,2.3268,0.1586,-0.0687,0.008,-0.0421,-0.1679,-0.0051,2282,2019-08-07 16:19:28:794
3.0518,-8.9059,2.3268,0.1586,-0.0687,0.008,-0.0421,-0.1679,-0.0051,2288,2019-08-07 16:19:28:800
3.0518,-8.9059,2.3268,0.1586,-0.0687,0.008,-0.0421,-0.1679,-0.0051,2292,2019-08-07 16:19:28:804
3.3532,-8.9011,2.0723,-0.1095,-0.0504,0.1961,-0.0378,-0.1722,-0.0083,2298,2019-08-07 16:19:28:810
3.3532,-8.9011,2.0723,-0.1095,-0.0504,0.1961,-0.0378,-0.1722,-0.0083,2303,2019-08-07 16:19:28:815
3.3532,-8.9011,2.0723,-0.1095,-0.0504,0.1961,-0.0421,-0.1232,-0.0296,2307,2019-08-07 16:19:28:819
3.602,-8.8295,1.945,-0.2646,-0.0122,0.2386,-0.0421,-0.1232,-0.0296,2313,2019-08-07 16:19:28:825
3.602,-8.8295,1.945,-0.2646,-0.0122,0.2386,-0.0314,-0.0625,-0.0328,2318,2019-08-07 16:19:28:830
3.5733,-8.8868,2.0581,-0.2646,-0.0122,0.2386,-0.0314,-0.0625,-0.0328,2323,2019-08-07 16:19:28:835
3.5733,-8.8868,2.0581,-0.2646,-0.0122,0.2386,-0.0176,-0.0252,-0.0338,2327,2019-08-07 16:19:28:839
3.5733,-8.8868,2.0581,-0.1736,-0.0727,0.1787,-0.0176,-0.0252,-0.0338,2333,2019-08-07 16:19:28:845
3.5254,-8.9155,2.0723,-0.1736,-0.0727,0.1787,-0.0059,-0.0145,-0.0328,2338,2019-08-07 16:19:28:850
3.5254,-8.9155,2.0723,-0.1027,-0.0812,0.05,-0.0059,-0.0145,-0.0328,2343,2019-08-07 16:19:28:855
3.4297,-8.8868,2.209,-0.1027,-0.0812,0.05,-0.0027,-0.0284,-0.0274,2348,2019-08-07 16:19:28:860
3.4297,-8.8868,2.209,-0.1027,-0.0812,0.05,-0.0027,-0.0284,-0.0274,2353,2019-08-07 16:19:28:865
3.4297,-8.8868,2.209,-0.1027,-0.0812,0.05,-0.0027,-0.0284,-0.0274,2358,2019-08-07 16:19:28:870
3.4871,-8.882,2.308,-0.1346,-0.1029,-0.0168,0.0037,-0.0209,-0.0189,2362,2019-08-07 16:19:28:874
3.4871,-8.882,2.308,-0.1346,-0.1029,-0.0168,0.0037,-0.0209,-0.0189,2368,2019-08-07 16:19:28:880
3.4871,-8.882,2.308,-0.1346,-0.1029,-0.0168,-0.0016,-0.0071,-0.0093,2373,2019-08-07 16:19:28:885
3.4297,-8.8057,2.2467,-0.0752,-0.1451,-0.0405,-0.0016,-0.0071,-0.0093,2377,2019-08-07 16:19:28:889
3.4297,-8.8057,2.2467,-0.0752,-0.1451,-0.0405,-0.0155,-0.0039,0.0045,2383,2019-08-07 16:19:28:895
3.4728,-8.8964,2.2608,-0.0752,-0.1451,-0.0405,-0.0155,-0.0039,0.0045,2388,2019-08-07 16:19:28:900
3.4728,-8.8964,2.2608,-0.1268,-0.0213,-0.0905,-0.0272,-0.0039,0.0013,2393,2019-08-07 16:19:28:905
3.4728,-8.8964,2.2608,-0.1268,-0.0213,-0.0905,-0.0272,-0.0039,0.0013,2398,2019-08-07 16:19:28:910
3.5445,-8.968,2.2184,-0.1268,-0.0213,-0.0905,-0.0442,-0.006,-0.0136,2403,2019-08-07 16:19:28:915
3.5445,-8.968,2.2184,-0.1268,-0.0213,-0.0905,-0.0442,-0.006,-0.0136,2408,2019-08-07 16:19:28:920
3.5062,-8.968,2.2702,-0.1476,0.0162,-0.0744,-0.0453,0.0068,-0.02,2413,2019-08-07 16:19:28:925
3.5062,-8.968,2.2702,-0.1476,0.0162,-0.0744,-0.0453,0.0068,-0.02,2418,2019-08-07 16:19:28:930
3.5062,-8.968,2.2702,-0.1476,0.0162,-0.0744,-0.0453,0.0068,-0.02,2423,2019-08-07 16:19:28:935
3.4823,-8.9345,2.1053,-0.1215,-0.0174,0.0865,-0.0442,-0.0049,-0.0146,2428,2019-08-07 16:19:28:940
3.4823,-8.9345,2.1053,-0.1215,-0.0174,0.0865,-0.0442,-0.0049,-0.0146,2433,2019-08-07 16:19:28:945
3.4631,-8.9775,2.2467,-0.1215,-0.0174,0.0865,-0.0378,-0.0135,-0.0072,2438,2019-08-07 16:19:28:950
3.4631,-8.9775,2.2467,-0.1215,-0.0174,0.0865,-0.0378,-0.0135,-0.0072,2443,2019-08-07 16:19:28:955
3.4631,-8.9775,2.2467,-0.066,0.0103,-0.1576,-0.0272,-0.0167,-0.0083,2448,2019-08-07 16:19:28:960
3.4536,-8.8916,2.2702,-0.066,0.0103,-0.1576,-0.0272,-0.0167,-0.0083,2452,2019-08-07 16:19:28:964
3.4536,-8.8916,2.2702,-0.066,0.0103,-0.1576,-0.0133,-0.0358,-0.0061,2458,2019-08-07 16:19:28:970
3.4727,-8.8868,2.1948,-0.066,0.0103,-0.1576,-0.0133,-0.0358,-0.0061,2463,2019-08-07 16:19:28:975
3.4727,-8.8868,2.1948,-0.1492,-0.0996,0.0026,-0.0133,-0.0358,-0.0061,2468,2019-08-07 16:19:28:980
3.4727,-8.8868,2.1948,-0.1492,-0.0996,0.0026,-0.0229,-0.0433,-0.0114,2472,2019-08-07 16:19:28:984
3.5444,-8.7722,2.2278,-0.1755,-0.1806,-0.0522,-0.0229,-0.0433,-0.0114,2478,2019-08-07 16:19:28:990
3.5444,-8.7722,2.2278,-0.1755,-0.1806,-0.0522,-0.0229,-0.0167,-0.0093,2483,2019-08-07 16:19:28:995
3.5444,-8.7722,2.2278,-0.1755,-0.1806,-0.0522,-0.0229,-0.0167,-0.0093,2487,2019-08-07 16:19:28:999
3.4775,-8.8295,2.1477,-0.1755,-0.1806,-0.0522,-0.0272,0.0206,-0.0125,2493,2019-08-07 16:19:29:005
3.4775,-8.8295,2.1477,-0.0188,-0.0801,-0.0286,-0.0272,0.0206,-0.0125,2498,2019-08-07 16:19:29:010
3.4775,-8.8295,2.1477,-0.0188,-0.0801,-0.0286,-0.0272,0.0206,-0.0125,2502,2019-08-07 16:19:29:014
3.4775,-8.8295,2.1477,-0.0188,-0.0801,-0.0286,-0.0314,0.0164,-0.0146,2508,2019-08-07 16:19:29:020
3.3052,-8.9298,2.2184,-0.0188,-0.0801,-0.0286,-0.0314,0.0164,-0.0146,2513,2019-08-07 16:19:29:025
3.3052,-8.9298,2.2184,0.036,-0.0326,-0.1082,-0.0272,-0.0167,-0.0253,2518,2019-08-07 16:19:29:030
3.377,-8.9107,2.0958,0.036,-0.0326,-0.1082,-0.0272,-0.0167,-0.0253,2523,2019-08-07 16:19:29:035
3.377,-8.9107,2.0958,0.036,-0.0326,-0.1082,-0.0229,-0.039,-0.0232,2528,2019-08-07 16:19:29:040
3.377,-8.9107,2.0958,0.036,-0.0326,-0.1082,-0.0229,-0.039,-0.0232,2532,2019-08-07 16:19:29:044
3.4726,-8.925,2.0204,-0.0921,-0.0274,0.1391,-0.024,-0.0699,-0.0146,2538,2019-08-07 16:19:29:050
3.4726,-8.925,2.0204,-0.0921,-0.0274,0.1391,-0.024,-0.0699,-0.0146,2542,2019-08-07 16:19:29:054
3.5635,-8.9154,2.0864,-0.1796,-0.0368,0.0681,-0.0187,-0.0785,-0.0114,2548,2019-08-07 16:19:29:060
3.5635,-8.9154,2.0864,-0.1796,-0.0368,0.0681,-0.0187,-0.0785,-0.0114,2553,2019-08-07 16:19:29:065
3.5635,-8.9154,2.0864,-0.1796,-0.0368,0.0681,-0.0187,-0.0785,-0.0114,2557,2019-08-07 16:19:29:069
3.6161,-8.8247,2.0581,-0.1796,-0.0368,0.0681,-0.0037,-0.0785,-0.0104,2563,2019-08-07 16:19:29:075
3.6161,-8.8247,2.0581,-0.2968,-0.1362,0.117,-0.0037,-0.0785,-0.0104,2568,2019-08-07 16:19:29:080
3.6161,-8.8247,2.0581,-0.2968,-0.1362,0.117,-0.0048,-0.0742,-0.0114,2572,2019-08-07 16:19:29:084
3.6927,-8.8009,2.0157,-0.2968,-0.1362,0.117,-0.0048,-0.0742,-0.0114,2579,2019-08-07 16:19:29:091
3.6927,-8.8009,2.0157,-0.2968,-0.1362,0.117,-0.0048,-0.0412,-0.0146,2583,2019-08-07 16:19:29:095
3.6592,-8.8295,2.0157,-0.2848,-0.1349,0.1629,-0.0048,-0.0412,-0.0146,2588,2019-08-07 16:19:29:100
3.6592,-8.8295,2.0157,-0.2848,-0.1349,0.1629,-5.0E-4,-0.0071,-0.0178,2593,2019-08-07 16:19:29:105
3.6592,-8.8295,2.0157,-0.1099,-0.1103,0.162,-5.0E-4,-0.0071,-0.0178,2598,2019-08-07 16:19:29:110
3.5539,-8.82,1.9167,-0.1099,-0.1103,0.162,0.008,0.01,-0.02,2602,2019-08-07 16:19:29:114
3.5539,-8.82,1.9167,-0.1099,-0.1103,0.162,0.008,0.01,-0.02,2608,2019-08-07 16:19:29:120
3.5539,-8.82,1.9167,-0.098,-0.0807,0.0254,0.008,0.01,-0.02,2612,2019-08-07 16:19:29:124
3.4534,-8.8725,2.2231,-0.098,-0.0807,0.0254,0.0208,0.0174,-0.0242,2618,2019-08-07 16:19:29:130
3.4534,-8.8725,2.2231,-0.098,-0.0807,0.0254,0.0208,0.0174,-0.0242,2623,2019-08-07 16:19:29:135
3.4247,-8.8247,2.1194,0.0212,-0.1064,0.0309,0.025,0.0142,-0.0285,2628,2019-08-07 16:19:29:140
3.4247,-8.8247,2.1194,0.0212,-0.1064,0.0309,0.025,0.0142,-0.0285,2633,2019-08-07 16:19:29:145
3.4151,-8.7531,2.1335,0.0212,-0.1064,0.0309,0.008,-0.0167,-0.0349,2638,2019-08-07 16:19:29:150
3.4151,-8.7531,2.1335,0.0212,-0.1064,0.0309,0.008,-0.0167,-0.0349,2643,2019-08-07 16:19:29:155
3.4151,-8.7531,2.1335,-0.0533,-0.1512,-0.1328,-0.0037,-0.0284,-0.0296,2648,2019-08-07 16:19:29:160
3.4773,-8.8295,2.1571,-0.0533,-0.1512,-0.1328,-0.0037,-0.0284,-0.0296,2653,2019-08-07 16:19:29:165
3.4773,-8.8295,2.1571,-0.0533,-0.1512,-0.1328,-0.0037,-0.0284,-0.0296,2658,2019-08-07 16:19:29:170
3.4773,-8.8295,2.1571,-0.1216,-0.1216,0.0119,-0.008,-0.0273,-0.0253,2663,2019-08-07 16:19:29:175
3.5299,-8.82,2.1005,-0.1216,-0.1216,0.0119,-0.008,-0.0273,-0.0253,2668,2019-08-07 16:19:29:180
3.5299,-8.82,2.1005,-0.1216,-0.1216,0.0119,-0.0304,-0.0018,-0.0221,2672,2019-08-07 16:19:29:184
3.5826,-8.8247,2.1618,-0.159,-0.1158,-0.0211,-0.0304,-0.0018,-0.0221,2679,2019-08-07 16:19:29:191
3.5826,-8.8247,2.1618,-0.159,-0.1158,-0.0211,-0.0282,0.0313,-0.0189,2683,2019-08-07 16:19:29:195
3.5826,-8.8247,2.1618,-0.159,-0.1158,-0.0211,-0.0282,0.0313,-0.0189,2688,2019-08-07 16:19:29:200
3.6878,-8.8677,1.9402,-0.159,-0.1158,-0.0211,-0.0293,0.0622,-0.0296,2693,2019-08-07 16:19:29:205
3.6878,-8.8677,1.9402,-0.1881,-0.0671,0.2493,-0.0293,0.0622,-0.0296,2698,2019-08-07 16:19:29:210
3.6878,-8.8677,1.9402,-0.1881,-0.0671,0.2493,-0.0293,0.0622,-0.0296,2703,2019-08-07 16:19:29:215
3.573,-8.8486,1.9402,-0.1881,-0.0671,0.2493,-0.0432,0.1016,-0.0423,2708,2019-08-07 16:19:29:220
3.573,-8.8486,1.9402,-0.0615,-0.0904,0.0736,-0.0432,0.1016,-0.0423,2712,2019-08-07 16:19:29:224
3.4964,-8.9202,2.1523,-0.0615,-0.0904,0.0736,-0.025,0.0941,-0.0402,2718,2019-08-07 16:19:29:230
3.4964,-8.9202,2.1523,-0.0615,-0.0904,0.0736,-0.025,0.0941,-0.0402,2723,2019-08-07 16:19:29:235
3.4964,-8.9202,2.1523,-0.0477,-0.007,-0.018,-0.008,0.0952,-0.0466,2728,2019-08-07 16:19:29:240
3.4055,-8.8868,2.1288,-0.0477,-0.007,-0.018,-0.008,0.0952,-0.0466,2733,2019-08-07 16:19:29:245
3.4055,-8.8868,2.1288,-0.0477,-0.007,-0.018,0.0037,0.0696,-0.053,2738,2019-08-07 16:19:29:250
3.4055,-8.8868,2.1288,-0.0477,-0.007,-0.018,0.0037,0.0696,-0.053,2743,2019-08-07 16:19:29:255
3.3863,-8.8009,2.1193,0.0447,-0.118,0.0293,-5.0E-4,0.0345,-0.0445,2749,2019-08-07 16:19:29:261
3.3863,-8.8009,2.1193,0.0447,-0.118,0.0293,-5.0E-4,0.0345,-0.0445,2753,2019-08-07 16:19:29:265
3.3863,-8.8009,2.1193,0.0447,-0.118,0.0293,-5.0E-4,0.0345,-0.0445,2758,2019-08-07 16:19:29:270
3.4772,-8.8295,2.1948,-0.024,-0.0881,-0.0553,-0.0027,-0.0039,-0.0328,2763,2019-08-07 16:19:29:275
3.4772,-8.8295,2.1948,-0.024,-0.0881,-0.0553,-0.0027,-0.0039,-0.0328,2769,2019-08-07 16:19:29:281
3.4772,-8.8295,2.1948,-0.024,-0.0881,-0.0553,-0.0197,-0.0486,-0.0391,2773,2019-08-07 16:19:29:285
3.6213,-8.8964,2.011,-0.024,-0.0881,-0.0553,-0.0197,-0.0486,-0.0391,2778,2019-08-07 16:19:29:290
3.6213,-8.8964,2.011,-0.2159,-0.0286,0.0988,-0.0282,-0.0465,-0.0445,2784,2019-08-07 16:19:29:296
3.6213,-8.8964,2.011,-0.2159,-0.0286,0.0988,-0.0282,-0.0465,-0.0445,2787,2019-08-07 16:19:29:299
3.7265,-8.9537,2.0723,-0.2159,-0.0286,0.0988,-0.0261,-0.0124,-0.0487,2793,2019-08-07 16:19:29:305
3.7265,-8.9537,2.0723,-0.2192,0.0408,-0.0264,-0.0261,-0.0124,-0.0487,2799,2019-08-07 16:19:29:311
3.7265,-8.9537,2.0723,-0.2192,0.0408,-0.0264,-0.0261,-0.0124,-0.0487,2803,2019-08-07 16:19:29:315
3.6356,-8.9059,2.0959,-0.2192,0.0408,-0.0264,-0.0069,0.0121,-0.0466,2807,2019-08-07 16:19:29:319
3.6356,-8.9059,2.0959,-0.2192,0.0408,-0.0264,5.0E-4,0.0302,-0.0391,2813,2019-08-07 16:19:29:325
3.6021,-8.9012,2.1666,-0.1343,-0.0276,-0.1252,5.0E-4,0.0302,-0.0391,2818,2019-08-07 16:19:29:330
3.6021,-8.9012,2.1666,-0.1343,-0.0276,-0.1252,5.0E-4,0.0302,-0.0391,2823,2019-08-07 16:19:29:335
3.6021,-8.9012,2.1666,-0.1343,-0.0276,-0.1252,0.0016,0.0249,-0.0328,2828,2019-08-07 16:19:29:340
3.5208,-8.8152,2.2797,-0.1343,-0.0276,-0.1252,0.0016,0.0249,-0.0328,2833,2019-08-07 16:19:29:345
3.5208,-8.8152,2.2797,-0.1343,-0.0276,-0.1252,-0.0037,0.0196,-0.0232,2838,2019-08-07 16:19:29:350
3.5064,-8.8391,2.1854,-0.0291,-0.0824,-0.0518,-0.0037,0.0196,-0.0232,2843,2019-08-07 16:19:29:355
3.5064,-8.8391,2.1854,-0.0291,-0.0824,-0.0518,-0.0219,0.0121,-0.0125,2848,2019-08-07 16:19:29:360
3.5064,-8.8391,2.1854,-0.0291,-0.0824,-0.0518,-0.0219,0.0121,-0.0125,2853,2019-08-07 16:19:29:365
3.5064,-8.8391,2.1854,-0.0291,-0.0824,-0.0518,-0.0219,0.0121,-0.0125,2858,2019-08-07 16:19:29:370
3.5447,-8.8439,2.2231,-0.0696,-0.0628,-0.0258,-0.0293,0.0036,-0.0104,2863,2019-08-07 16:19:29:375
3.5447,-8.8439,2.2231,-0.0696,-0.0628,-0.0258,-0.0293,0.0036,-0.0104,2867,2019-08-07 16:19:29:379
3.5447,-8.8486,2.0534,-0.0696,-0.0628,-0.0258,-0.0325,0.0323,-0.0104,2873,2019-08-07 16:19:29:385
3.5447,-8.8486,2.0534,-0.0696,-0.0628,-0.0258,-0.0325,0.0323,-0.0104,2878,2019-08-07 16:19:29:390
3.5447,-8.8486,2.0534,-0.0397,-0.0489,0.0505,-0.0282,0.0451,-0.0061,2882,2019-08-07 16:19:29:394
3.4299,-8.863,2.0063,-0.0397,-0.0489,0.0505,-0.0282,0.0451,-0.0061,2888,2019-08-07 16:19:29:400
3.4299,-8.863,2.0063,0.022,0.0079,0.0164,-0.0219,0.0483,-0.0083,2892,2019-08-07 16:19:29:404
3.4059,-8.9059,2.1854,0.022,0.0079,0.0164,-0.0219,0.0483,-0.0083,2898,2019-08-07 16:19:29:410
3.4059,-8.9059,2.1854,0.022,0.0079,0.0164,-0.0219,0.0483,-0.0083,2903,2019-08-07 16:19:29:415
3.4059,-8.9059,2.1854,0.022,0.0079,0.0164,-0.0016,0.0217,-0.02,2908,2019-08-07 16:19:29:420
3.3533,-8.8725,2.1477,0.0994,-0.025,-0.0299,-0.0016,0.0217,-0.02,2912,2019-08-07 16:19:29:424
3.3533,-8.8725,2.1477,0.0994,-0.025,-0.0299,0.0026,-0.0124,-0.0274,2918,2019-08-07 16:19:29:430
3.3533,-8.8725,2.1477,0.0994,-0.025,-0.0299,0.0026,-0.0124,-0.0274,2922,2019-08-07 16:19:29:434
3.559,-8.8391,2.1854,0.0994,-0.025,-0.0299,0.008,-0.0263,-0.0317,2929,2019-08-07 16:19:29:441
3.559,-8.8391,2.1854,-0.1337,-0.1229,-0.0867,0.008,-0.0263,-0.0317,2932,2019-08-07 16:19:29:444
3.6499,-8.7293,2.077,-0.1337,-0.1229,-0.0867,0.008,-0.0263,-0.0317,2938,2019-08-07 16:19:29:450
3.6499,-8.7293,2.077,-0.1347,-0.1263,0.0167,-0.0037,-0.006,-0.0274,2942,2019-08-07 16:19:29:454
3.6499,-8.7293,2.077,-0.1347,-0.1263,0.0167,-0.0037,-0.006,-0.0274,2947,2019-08-07 16:19:29:459
2.9131,-8.6577,1.2804,-0.1347,-0.1263,0.0167,-0.2498,-0.5184,-0.0083,2953,2019-08-07 16:19:29:465
2.9131,-8.6577,1.2804,-0.1347,-0.1263,0.0167,-0.2498,-0.5184,-0.0083,2957,2019-08-07 16:19:29:469
3.1763,-8.9584,2.6568,0.6562,-0.1085,-0.532,-0.1742,-0.3309,-0.0146,2963,2019-08-07 16:19:29:475
3.1763,-8.9584,2.6568,0.6562,-0.1085,-0.532,-0.1742,-0.3309,-0.0146,2968,2019-08-07 16:19:29:480
3.1763,-8.9584,2.6568,0.6562,-0.1085,-0.532,-0.1742,-0.3309,-0.0146,2973,2019-08-07 16:19:29:485
3.6164,-9.1542,2.3787,0.6562,-0.1085,-0.532,0.0197,-0.2532,-0.0402,2978,2019-08-07 16:19:29:490
3.6164,-9.1542,2.3787,-0.3466,0.2924,0.3969,0.0197,-0.2532,-0.0402,2983,2019-08-07 16:19:29:495
3.6164,-9.1542,2.3787,-0.3466,0.2924,0.3969,0.1774,-0.0273,-0.0061,2987,2019-08-07 16:19:29:499
4.334,-9.221,1.3039,-0.3466,0.2924,0.3969,0.1774,-0.0273,-0.0061,2993,2019-08-07 16:19:29:505
4.334,-9.221,1.3039,-0.3466,0.2924,0.3969,0.1678,0.1208,-0.0253,2997,2019-08-07 16:19:29:509
4.334,-9.221,1.3039,-0.9696,-0.3043,0.4522,0.1678,0.1208,-0.0253,3003,2019-08-07 16:19:29:515
4.2718,-8.4238,1.6481,-0.9696,-0.3043,0.4522,0.0847,0.3743,-0.0658,3008,2019-08-07 16:19:29:520
4.2718,-8.4238,1.6481,-0.9696,-0.3043,0.4522,0.0847,0.3743,-0.0658,3013,2019-08-07 16:19:29:525
3.5303,-8.1803,1.8366,-0.0023,-0.729,0.2644,0.0346,0.4137,-0.0455,3018,2019-08-07 16:19:29:530
3.5303,-8.1803,1.8366,-0.0023,-0.729,0.2644,0.0346,0.4137,-0.0455,3023,2019-08-07 16:19:29:535
3.5303,-8.1803,1.8366,-0.0023,-0.729,0.2644,-0.0826,0.3317,-0.0168,3029,2019-08-07 16:19:29:541
3.0662,-8.8534,2.7794,0.524,-0.0084,-0.8016,-0.0826,0.3317,-0.0168,3032,2019-08-07 16:19:29:544
3.0662,-8.8534,2.7794,0.524,-0.0084,-0.8016,-0.0826,0.3317,-0.0168,3038,2019-08-07 16:19:29:550
2.8414,-8.9823,3.0339,0.524,-0.0084,-0.8016,-0.0495,0.0781,-0.0413,3043,2019-08-07 16:19:29:555
2.8414,-8.9823,3.0339,0.524,-0.0084,-0.8016,-0.0495,0.0781,-0.0413,3047,2019-08-07 16:19:29:559
2.8414,-8.9823,3.0339,0.3175,0.0583,-0.2494,-0.0187,-0.169,-0.02,3053,2019-08-07 16:19:29:565