ACCELEROMETER X (m/s²),ACCELEROMETER Y (m/s²),ACCELEROMETER Z (m/s²),LINEAR ACCELERATION X (m/s²),LINEAR ACCELERATION Y (m/s²),LINEAR ACCELERATION Z (m/s²),GYROSCOPE X (rad/s),GYROSCOPE Y (rad/s),GYROSCOPE Z (rad/s),Time since start in ms ,YYYY-MO-DD HH-MI-SS_SSS
3.0758,-9.0382,1.8619,-0.0278,-0.1131,0.0017,0.0123,0.1474,0.0257,2,2019-08-07 16:20:34:585
3.0758,-9.0382,1.8619,-0.0278,-0.1131,0.0017,0.0123,0.1474,0.0257,8,2019-08-07 16:20:34:591
3.0758,-9.0382,1.8619,0.0914,-0.0707,-0.0206,0.0091,0.1496,0.0204,12,2019-08-07 16:20:34:595
2.9514,-9.0,1.8572,0.0914,-0.0707,-0.0206,0.0091,0.1496,0.0204,18,2019-08-07 16:20:34:601
2.9514,-9.0,1.8572,0.0914,-0.0707,-0.0206,0.0112,0.1176,0.0066,23,2019-08-07 16:20:34:606
2.9514,-9.0,1.8572,0.0914,-0.0707,-0.0206,0.0112,0.1176,0.0066,28,2019-08-07 16:20:34:611
2.8701,-8.9761,1.876,0.2554,-0.1288,0.013,0.008,0.0835,-0.003,32,2019-08-07 16:20:34:615
2.8701,-8.9761,1.876,0.2554,-0.1288,0.013,0.008,0.0835,-0.003,38,2019-08-07 16:20:34:621
2.9036,-9.0095,1.9137,0.2554,-0.1288,0.013,0.0101,0.043,-0.0126,42,2019-08-07 16:20:34:625
2.9036,-9.0095,1.9137,0.2554,-0.1288,0.013,0.0101,0.043,-0.0126,48,2019-08-07 16:20:34:631
2.9036,-9.0095,1.9137,0.1721,-0.0901,0.0424,0.0091,0.0068,-0.0233,52,2019-08-07 16:20:34:635
2.9993,-8.9952,1.7723,0.1721,-0.0901,0.0424,0.0091,0.0068,-0.0233,58,2019-08-07 16:20:34:641
2.9993,-8.9952,1.7723,0.1721,-0.0901,0.0424,0.0091,-0.0134,-0.035,63,2019-08-07 16:20:34:646
3.1619,-8.957,1.8147,0.1721,-0.0901,0.0424,0.0091,-0.0134,-0.035,67,2019-08-07 16:20:34:650
3.1619,-8.957,1.8147,-0.0755,-0.1259,0.1143,0.0091,-0.0134,-0.035,73,2019-08-07 16:20:34:656
3.1619,-8.957,1.8147,-0.0755,-0.1259,0.1143,0.0101,0.0047,-0.0403,77,2019-08-07 16:20:34:660
3.2624,-8.9809,1.7346,-0.0755,-0.1259,0.1143,0.0101,0.0047,-0.0403,83,2019-08-07 16:20:34:666
3.2624,-8.9809,1.7346,-0.0755,-0.1259,0.1143,0.0027,0.0356,-0.0307,87,2019-08-07 16:20:34:670
3.3007,-9.043,1.7959,-0.1542,-0.1136,0.1579,0.0027,0.0356,-0.0307,94,2019-08-07 16:20:34:677
3.3007,-9.043,1.7959,-0.1542,-0.1136,0.1579,-0.0037,0.0601,-0.019,99,2019-08-07 16:20:34:682
3.3007,-9.043,1.7959,-0.1542,-0.1136,0.1579,-0.0037,0.0601,-0.019,102,2019-08-07 16:20:34:685
3.205,-9.0764,1.8383,-0.1542,-0.1136,0.1579,-0.0016,0.0697,-0.0147,108,2019-08-07 16:20:34:691
3.205,-9.0764,1.8383,-0.0661,-0.0073,0.1183,-0.0016,0.0697,-0.0147,112,2019-08-07 16:20:34:695
3.205,-9.0764,1.8383,-0.0661,-0.0073,0.1183,0.0048,0.0739,-0.0105,118,2019-08-07 16:20:34:701
3.1093,-9.062,1.8619,-0.0661,-0.0073,0.1183,0.0048,0.0739,-0.0105,123,2019-08-07 16:20:34:706
3.1093,-9.062,1.8619,-0.0661,-0.0073,0.1183,0.0091,0.0558,-0.0094,128,2019-08-07 16:20:34:711
3.0328,-9.1623,1.9232,0.0812,-0.0113,-0.0039,0.0091,0.0558,-0.0094,132,2019-08-07 16:20:34:715
3.0328,-9.1623,1.9232,0.0812,-0.0113,-0.0039,0.0133,0.0153,-0.0137,138,2019-08-07 16:20:34:721
3.0328,-9.1623,1.9232,0.0812,-0.0113,-0.0039,0.0133,0.0153,-0.0137,144,2019-08-07 16:20:34:727
2.9897,-9.0668,1.9326,0.0812,-0.0113,-0.0039,0.0176,-0.0081,-0.0211,149,2019-08-07 16:20:34:732
2.9897,-9.0668,1.9326,0.073,0.0041,0.0136,0.0176,-0.0081,-0.0211,153,2019-08-07 16:20:34:736
2.9897,-9.0668,1.9326,0.073,0.0041,0.0136,0.0176,-0.0081,-0.0211,158,2019-08-07 16:20:34:741
3.0854,-9.0573,1.9184,0.073,0.0041,0.0136,0.0186,-0.0337,-0.0211,163,2019-08-07 16:20:34:746
3.0854,-9.0573,1.9184,0.073,0.0041,0.0136,0.0186,-0.0337,-0.0211,167,2019-08-07 16:20:34:750
3.2146,-8.9809,1.975,-0.0181,-0.0846,0.0013,0.0176,-0.0305,-0.0179,173,2019-08-07 16:20:34:756
3.2146,-8.9809,1.975,-0.0181,-0.0846,0.0013,0.0176,-0.0305,-0.0179,178,2019-08-07 16:20:34:761
3.2146,-8.9809,1.975,-0.0181,-0.0846,0.0013,0.0144,-0.0241,-0.0147,183,2019-08-07 16:20:34:766
3.2242,-9.0048,1.9137,-0.0181,-0.0846,0.0013,0.0144,-0.0241,-0.0147,188,2019-08-07 16:20:34:771
3.2242,-9.0048,1.9137,-0.0996,-0.1638,0.0027,0.0144,-0.0241,-0.0147,192,2019-08-07 16:20:34:775
3.2289,-8.9045,1.909,-0.0996,-0.1638,0.0027,0.008,-0.0038,-0.0126,198,2019-08-07 16:20:34:781
3.2289,-8.9045,1.909,-0.0996,-0.1638,0.0027,0.0059,0.0302,-0.0158,203,2019-08-07 16:20:34:786
3.2289,-8.9045,1.909,-0.0996,-0.1638,0.0027,0.0059,0.0302,-0.0158,208,2019-08-07 16:20:34:791
3.2002,-8.9141,1.8383,-0.0487,-0.1765,0.0761,0.0059,0.0302,-0.0158,212,2019-08-07 16:20:34:795
3.2002,-8.9141,1.8383,-0.0487,-0.1765,0.0761,0.0123,0.0484,-0.0147,218,2019-08-07 16:20:34:801
3.2002,-8.9141,1.8383,-0.0487,-0.1765,0.0761,0.0123,0.0484,-0.0147,222,2019-08-07 16:20:34:805
3.1572,-8.9523,1.8807,-0.0487,-0.1765,0.0761,0.0123,0.0515,-0.0137,228,2019-08-07 16:20:34:811
3.1572,-8.9523,1.8807,0.0244,-0.1462,-0.0503,0.0123,0.0515,-0.0137,233,2019-08-07 16:20:34:816
3.138,-8.9427,1.9373,0.0244,-0.1462,-0.0503,0.0165,0.0494,-0.0169,237,2019-08-07 16:20:34:820
3.138,-8.9427,1.9373,0.0244,-0.1462,-0.0503,0.0144,0.0334,-0.0147,243,2019-08-07 16:20:34:826
3.0998,-8.957,1.8996,0.0244,-0.1462,-0.0503,0.0144,0.0334,-0.0147,248,2019-08-07 16:20:34:831
3.0998,-8.957,1.8996,0.0354,-0.1589,-0.0399,0.0144,0.0334,-0.0147,253,2019-08-07 16:20:34:836
3.0998,-8.957,1.8996,0.0354,-0.1589,-0.0399,0.0101,-0.0038,-0.0105,258,2019-08-07 16:20:34:841
3.0998,-8.9523,1.9609,0.0354,-0.1589,-0.0399,0.0101,-0.0038,-0.0105,263,2019-08-07 16:20:34:846
3.0998,-8.9523,1.9609,0.0354,-0.1589,-0.0399,0.0027,-0.0241,-0.0105,267,2019-08-07 16:20:34:850
3.1524,-8.9332,1.9137,0.0048,-0.1531,0.0121,0.0027,-0.0241,-0.0105,273,2019-08-07 16:20:34:856
3.1524,-8.9332,1.9137,0.0048,-0.1531,0.0121,-0.0133,-0.0422,-0.0126,277,2019-08-07 16:20:34:860
3.1524,-8.9332,1.9137,0.0048,-0.1531,0.0121,-0.0133,-0.0422,-0.0126,283,2019-08-07 16:20:34:866
3.2337,-8.9666,1.7629,0.0048,-0.1531,0.0121,-0.0272,-0.0497,-0.0115,288,2019-08-07 16:20:34:871
3.2337,-8.9666,1.7629,-0.0816,-0.0575,0.1228,-0.0272,-0.0497,-0.0115,293,2019-08-07 16:20:34:876
3.2624,-9.0764,1.8477,-0.0816,-0.0575,0.1228,-0.025,-0.0411,-0.0115,298,2019-08-07 16:20:34:881
3.2624,-9.0764,1.8477,-0.0816,-0.0575,0.1228,-0.025,-0.0411,-0.0115,303,2019-08-07 16:20:34:886
3.2624,-9.0764,1.8477,-0.0816,-0.0575,0.1228,-0.0133,-0.022,-0.0094,307,2019-08-07 16:20:34:890
3.272,-8.9475,1.7959,-0.0816,-0.0575,0.1228,-0.0133,-0.022,-0.0094,313,2019-08-07 16:20:34:896
3.272,-8.9475,1.7959,-0.1156,-0.148,0.1026,-0.0027,-0.0188,-0.003,318,2019-08-07 16:20:34:901
3.3294,-8.9045,1.7205,-0.1156,-0.148,0.1026,-0.0027,-0.0188,-0.003,323,2019-08-07 16:20:34:906
3.3294,-8.9045,1.7205,-0.1156,-0.148,0.1026,0.0091,-7.0E-4,-0.002,328,2019-08-07 16:20:34:911
3.3294,-8.9045,1.7205,-0.1156,-0.148,0.1026,0.0091,-7.0E-4,-0.002,333,2019-08-07 16:20:34:916
3.2529,-8.852,1.7959,-0.1274,-0.2238,0.1485,0.0165,0.0079,-0.002,338,2019-08-07 16:20:34:921
3.2529,-8.852,1.7959,-0.1274,-0.2238,0.1485,0.0165,0.0079,-0.002,342,2019-08-07 16:20:34:925
3.2625,-8.8711,1.9043,-0.1274,-0.2238,0.1485,0.0133,-0.0092,-0.0041,348,2019-08-07 16:20:34:931
3.2625,-8.8711,1.9043,-0.0876,-0.2132,0.0614,0.0133,-0.0092,-0.0041,353,2019-08-07 16:20:34:936
3.2625,-8.8711,1.9043,-0.0876,-0.2132,0.0614,0.0133,-0.0092,-0.0041,358,2019-08-07 16:20:34:941
3.2338,-8.9379,1.8383,-0.0876,-0.2132,0.0614,0.0091,-0.022,0.0012,363,2019-08-07 16:20:34:946
3.2338,-8.9379,1.8383,-0.0876,-0.2132,0.0614,0.0091,-0.022,0.0012,368,2019-08-07 16:20:34:951
3.2003,-8.9666,1.8713,-0.0284,-0.1171,0.0421,0.0027,-0.023,-0.003,373,2019-08-07 16:20:34:956
3.2003,-8.9666,1.8713,-0.0284,-0.1171,0.0421,0.0027,-0.023,-0.003,377,2019-08-07 16:20:34:960
3.2003,-8.9666,1.8713,-0.0284,-0.1171,0.0421,-0.0101,-0.0411,0.0023,383,2019-08-07 16:20:34:966
3.1524,-9.0573,1.9609,-0.0284,-0.1171,0.0421,-0.0101,-0.0411,0.0023,388,2019-08-07 16:20:34:971
3.1524,-9.0573,1.9609,-0.0284,-0.1171,0.0421,-0.0101,-0.0411,0.0023,392,2019-08-07 16:20:34:975
3.1524,-9.0573,1.9609,-0.0175,0.0113,0.0047,-0.0144,-0.0433,0.0034,398,2019-08-07 16:20:34:981
3.2098,-9.0668,1.777,-0.0175,0.0113,0.0047,-0.0144,-0.0433,0.0034,402,2019-08-07 16:20:34:985
3.2098,-9.0668,1.777,-0.0175,0.0113,0.0047,-0.0186,-0.039,-0.0115,408,2019-08-07 16:20:34:991
3.1907,-9.0573,1.8902,-0.0175,0.0113,0.0047,-0.0186,-0.039,-0.0115,413,2019-08-07 16:20:34:996
3.1907,-9.0573,1.8902,-0.0051,-0.0033,0.0221,-0.009,-0.0347,-0.0083,418,2019-08-07 16:20:35:001
3.1907,-9.0573,1.8902,-0.0051,-0.0033,0.0221,-0.009,-0.0347,-0.0083,422,2019-08-07 16:20:35:005
3.229,-9.0907,1.9137,-0.0051,-0.0033,0.0221,0.0048,-0.023,-0.0083,428,2019-08-07 16:20:35:011
3.229,-9.0907,1.9137,-0.0881,-0.0695,-0.0175,0.0048,-0.023,-0.0083,434,2019-08-07 16:20:35:017
3.3008,-8.9857,1.975,-0.0881,-0.0695,-0.0175,0.0133,-0.0124,-0.0115,437,2019-08-07 16:20:35:020
3.3008,-8.9857,1.975,-0.0881,-0.0695,-0.0175,0.0133,-0.0124,-0.0115,443,2019-08-07 16:20:35:026
3.3008,-8.9857,1.975,-0.0881,-0.0695,-0.0175,0.0059,-0.0156,-0.0137,449,2019-08-07 16:20:35:032
3.272,-8.8807,1.8807,-0.0881,-0.0695,-0.0175,0.0059,-0.0156,-0.0137,452,2019-08-07 16:20:35:035
3.272,-8.8807,1.8807,-0.1221,-0.1585,-0.0072,0.0059,-0.0156,-0.0137,458,2019-08-07 16:20:35:041
3.3438,-8.9475,1.8996,-0.1221,-0.1585,-0.0072,-0.0112,-0.022,-0.0126,462,2019-08-07 16:20:35:045
3.3438,-8.9475,1.8996,-0.1221,-0.1585,-0.0072,-0.0112,-0.022,-0.0126,468,2019-08-07 16:20:35:051
3.3438,-8.9475,1.8996,-0.1221,-0.1585,-0.0072,-0.0186,-0.0102,-0.0115,472,2019-08-07 16:20:35:055
3.3008,-8.9952,1.9137,-0.1128,-0.086,-0.0153,-0.0186,-0.0102,-0.0115,478,2019-08-07 16:20:35:061
3.3008,-8.9952,1.9137,-0.1128,-0.086,-0.0153,-0.0186,-0.0113,-0.0041,483,2019-08-07 16:20:35:066
3.2816,-9.0573,1.8996,-0.1128,-0.086,-0.0153,-0.0186,-0.0113,-0.0041,487,2019-08-07 16:20:35:070
3.2816,-9.0573,1.8996,-0.1128,-0.086,-0.0153,-0.024,-0.0113,0.0066,493,2019-08-07 16:20:35:076
3.2816,-9.0573,1.8996,-0.1069,0.0279,0.0505,-0.024,-0.0113,0.0066,498,2019-08-07 16:20:35:081
3.296,-9.1146,1.8619,-0.1069,0.0279,0.0505,-0.024,-0.0113,0.0066,503,2019-08-07 16:20:35:086
3.296,-9.1146,1.8619,-0.1069,0.0279,0.0505,-0.0186,-0.0102,0.0108,508,2019-08-07 16:20:35:091
3.2194,-9.1193,1.8477,-0.1069,0.0279,0.0505,-0.0176,-0.0038,0.0108,513,2019-08-07 16:20:35:096
3.2194,-9.1193,1.8477,-0.0268,-0.0021,-0.0058,-0.0176,-0.0038,0.0108,518,2019-08-07 16:20:35:101
3.2194,-9.1193,1.8477,-0.0268,-0.0021,-0.0058,-0.0144,0.0015,0.0098,523,2019-08-07 16:20:35:106
3.1525,-9.0573,1.8902,-0.0268,-0.0021,-0.0058,-0.0144,0.0015,0.0098,528,2019-08-07 16:20:35:111
3.1525,-9.0573,1.8902,-0.0268,-0.0021,-0.0058,-0.008,0.0025,0.0055,533,2019-08-07 16:20:35:116
3.1525,-9.0573,1.8902,0.0098,-0.0223,-0.0224,-0.008,0.0025,0.0055,538,2019-08-07 16:20:35:121
3.1812,-9.0573,1.8572,0.0098,-0.0223,-0.0224,-0.008,0.0025,0.0055,542,2019-08-07 16:20:35:125
3.1812,-9.0573,1.8572,0.0098,-0.0223,-0.0224,-0.0059,0.0025,0.0012,548,2019-08-07 16:20:35:131
3.2386,-8.9952,1.9137,0.0098,-0.0223,-0.0224,0.0027,0.0036,-0.0083,553,2019-08-07 16:20:35:136
3.2386,-8.9952,1.9137,-0.0807,-0.108,-0.0695,0.0027,0.0036,-0.0083,558,2019-08-07 16:20:35:141
3.2386,-8.9952,1.9137,-0.0807,-0.108,-0.0695,0.0027,0.0036,-0.0083,563,2019-08-07 16:20:35:146
3.2816,-8.9379,1.9892,-0.0807,-0.108,-0.0695,0.0059,0.0015,-0.0158,568,2019-08-07 16:20:35:151
3.2816,-8.9379,1.9892,-0.0807,-0.108,-0.0695,0.0059,0.0015,-0.0158,572,2019-08-07 16:20:35:155
3.2816,-8.9379,1.9892,-0.1726,-0.1971,0.0359,5.0E-4,-0.007,-0.0115,578,2019-08-07 16:20:35:161
3.3343,-8.8568,1.8949,-0.1726,-0.1971,0.0359,5.0E-4,-0.007,-0.0115,583,2019-08-07 16:20:35:166
3.3343,-8.8568,1.8949,-0.1726,-0.1971,0.0359,-0.0144,-0.0166,-0.0073,588,2019-08-07 16:20:35:171
3.3725,-8.9284,1.8336,-0.1726,-0.1971,0.0359,-0.0144,-0.0166,-0.0073,593,2019-08-07 16:20:35:176
3.3725,-8.9284,1.8336,-0.188,-0.1105,0.0516,-0.0261,-0.0113,-0.0041,598,2019-08-07 16:20:35:181
3.3725,-8.9284,1.8336,-0.188,-0.1105,0.0516,-0.0261,-0.0113,-0.0041,603,2019-08-07 16:20:35:186
3.3486,-9.0668,1.9137,-0.188,-0.1105,0.0516,-0.0335,-0.0028,2.0E-4,608,2019-08-07 16:20:35:191
3.3486,-9.0668,1.9137,-0.188,-0.1105,0.0516,-0.0335,-0.0028,2.0E-4,612,2019-08-07 16:20:35:195
3.3486,-9.0668,1.9137,-0.1435,-0.0063,0.017,-0.0325,0.0036,0.0055,618,2019-08-07 16:20:35:201
3.296,-9.0907,1.8148,-0.1435,-0.0063,0.017,-0.0325,0.0036,0.0055,622,2019-08-07 16:20:35:205
3.296,-9.0907,1.8148,-0.1435,-0.0063,0.017,-0.0325,0.0036,0.0055,628,2019-08-07 16:20:35:211
3.2147,-9.1193,1.8996,-0.1435,-0.0063,0.017,-0.0208,0.0324,0.0055,633,2019-08-07 16:20:35:216
3.2147,-9.1193,1.8996,-0.0158,0.026,-0.0051,-0.0208,0.0324,0.0055,637,2019-08-07 16:20:35:220
3.1812,-9.0573,1.909,-0.0158,0.026,-0.0051,-0.0069,0.0483,0.0076,643,2019-08-07 16:20:35:226
3.1812,-9.0573,1.909,-0.0158,0.026,-0.0051,-0.0069,0.0483,0.0076,648,2019-08-07 16:20:35:231
3.1812,-9.0573,1.909,-0.0158,0.026,-0.0051,-0.0037,0.0601,0.0044,653,2019-08-07 16:20:35:236
3.1812,-9.0,1.8902,0.0097,-0.0843,-0.0117,-0.0037,0.0601,0.0044,658,2019-08-07 16:20:35:241
3.1812,-9.0,1.8902,0.0097,-0.0843,-0.0117,5.0E-4,0.0601,-0.0041,663,2019-08-07 16:20:35:246
3.1812,-9.0,1.8902,0.0097,-0.0843,-0.0117,5.0E-4,0.0601,-0.0041,668,2019-08-07 16:20:35:251
3.1142,-8.8711,2.0316,0.0097,-0.0843,-0.0117,0.0037,0.0388,-0.0126,673,2019-08-07 16:20:35:256
3.1142,-8.8711,2.0316,0.0431,-0.1407,-0.1154,0.0037,0.0388,-0.0126,678,2019-08-07 16:20:35:261
3.1668,-8.8902,1.9562,0.0431,-0.1407,-0.1154,-5.0E-4,0.0153,-0.0126,682,2019-08-07 16:20:35:265
3.1668,-8.8902,1.9562,0.0431,-0.1407,-0.1154,-5.0E-4,0.0153,-0.0126,688,2019-08-07 16:20:35:271
3.1668,-8.8902,1.9562,0.0431,-0.1407,-0.1154,-0.0176,-0.0177,-0.0115,693,2019-08-07 16:20:35:276
3.2865,-8.9475,1.8619,-0.1453,-0.1541,-0.022,-0.0176,-0.0177,-0.0115,698,2019-08-07 16:20:35:281
3.2865,-8.9475,1.8619,-0.1453,-0.1541,-0.022,-0.025,-0.0326,-0.0083,703,2019-08-07 16:20:35:286
3.4013,-9.0143,1.876,-0.1453,-0.1541,-0.022,-0.025,-0.0326,-0.0083,708,2019-08-07 16:20:35:291
3.4013,-9.0143,1.876,-0.1453,-0.1541,-0.022,-0.0261,-0.0315,-0.0062,713,2019-08-07 16:20:35:296
3.4013,-9.0143,1.876,-0.1453,-0.1541,-0.022,-0.0261,-0.0315,-0.0062,718,2019-08-07 16:20:35:301
3.4348,-9.0907,1.7393,-0.165,-0.0491,0.1219,-0.0208,-0.0038,0.0055,723,2019-08-07 16:20:35:306
3.4348,-9.0907,1.7393,-0.165,-0.0491,0.1219,-0.0208,-0.0038,0.0055,728,2019-08-07 16:20:35:311
3.4348,-9.0907,1.7393,-0.165,-0.0491,0.1219,-0.0208,-0.0038,0.0055,733,2019-08-07 16:20:35:316
3.363,-9.1241,1.81,-0.123,0.0216,0.0908,-0.009,0.0334,0.0172,738,2019-08-07 16:20:35:321
3.363,-9.1241,1.81,-0.123,0.0216,0.0908,0.0027,0.0697,0.0225,743,2019-08-07 16:20:35:326
3.253,-9.0477,1.7723,-0.123,0.0216,0.0908,0.0027,0.0697,0.0225,747,2019-08-07 16:20:35:330
3.253,-9.0477,1.7723,-0.123,0.0216,0.0908,0.0101,0.0984,0.0193,753,2019-08-07 16:20:35:336
3.253,-9.0477,1.7723,-0.123,0.0216,0.0908,0.0101,0.0984,0.0193,758,2019-08-07 16:20:35:341
3.1094,-8.9666,1.8619,0.0808,-0.118,0.0163,0.0101,0.0984,0.0193,762,2019-08-07 16:20:35:345
3.1094,-8.9666,1.8619,0.0808,-0.118,0.0163,0.0069,0.0984,0.014,768,2019-08-07 16:20:35:351
3.0233,-8.9618,1.9562,0.0808,-0.118,0.0163,0.0069,0.0984,0.014,772,2019-08-07 16:20:35:355
3.0233,-8.9618,1.9562,0.0808,-0.118,0.0163,0.0027,0.0739,0.0076,778,2019-08-07 16:20:35:361
3.0233,-8.9618,1.9562,0.1368,-0.1377,-0.0797,0.0027,0.0739,0.0076,783,2019-08-07 16:20:35:366
3.0425,-8.9332,2.0175,0.1368,-0.1377,-0.0797,-0.0101,0.0302,-9.0E-4,788,2019-08-07 16:20:35:371
3.0425,-8.9332,2.0175,0.1368,-0.1377,-0.0797,-0.0101,0.0302,-9.0E-4,793,2019-08-07 16:20:35:376
3.0903,-8.9379,1.9232,0.1368,-0.1377,-0.0797,-0.025,-0.0049,-0.0062,799,2019-08-07 16:20:35:382
3.0903,-8.9379,1.9232,0.0646,-0.1286,-0.0243,-0.025,-0.0049,-0.0062,802,2019-08-07 16:20:35:385
3.0903,-8.9379,1.9232,0.0646,-0.1286,-0.0243,-0.0357,-0.0369,-0.0115,808,2019-08-07 16:20:35:391
3.2338,-9.0143,1.8006,0.0646,-0.1286,-0.0243,-0.0357,-0.0369,-0.0115,813,2019-08-07 16:20:35:396
3.2338,-9.0143,1.8006,0.0646,-0.1286,-0.0243,-0.0399,-0.0518,-0.0062,818,2019-08-07 16:20:35:401
3.3248,-9.0286,1.7912,-0.118,-0.0672,0.0646,-0.0399,-0.0518,-0.0062,822,2019-08-07 16:20:35:405
3.3248,-9.0286,1.7912,-0.118,-0.0672,0.0646,-0.0346,-0.0443,-0.003,828,2019-08-07 16:20:35:411
3.3248,-9.0286,1.7912,-0.118,-0.0672,0.0646,-0.0346,-0.0443,-0.003,833,2019-08-07 16:20:35:416
3.3248,-9.0573,1.7771,-0.118,-0.0672,0.0646,-0.0122,-7.0E-4,0.0044,838,2019-08-07 16:20:35:421
3.3248,-9.0573,1.7771,-0.1251,0.0131,0.1366,-0.0122,-7.0E-4,0.0044,843,2019-08-07 16:20:35:426
3.2339,-9.0382,1.7959,-0.1251,0.0131,0.1366,0.0069,0.0292,0.0055,848,2019-08-07 16:20:35:431
3.2339,-9.0382,1.7959,-0.1251,0.0131,0.1366,0.0069,0.0292,0.0055,852,2019-08-07 16:20:35:435
3.2339,-9.0382,1.7959,-0.1251,0.0131,0.1366,0.0069,0.0292,0.0055,858,2019-08-07 16:20:35:441
3.1331,-8.9522,1.7817,0.0559,-0.1347,0.0873,0.0197,0.0569,-0.003,863,2019-08-07 16:20:35:446
3.1331,-8.9522,1.7817,0.0559,-0.1347,0.0873,0.0197,0.0569,-0.003,867,2019-08-07 16:20:35:450
2.9991,-9.0238,1.8053,0.0559,-0.1347,0.0873,0.0176,0.0771,-0.0115,873,2019-08-07 16:20:35:456
2.9991,-9.0238,1.8053,0.0559,-0.1347,0.0873,0.0176,0.0771,-0.0115,878,2019-08-07 16:20:35:461
2.9991,-9.0238,1.8053,0.2219,-0.0764,-0.0465,0.0059,0.0622,-0.0254,883,2019-08-07 16:20:35:466
2.9561,-9.0477,1.8901,0.2219,-0.0764,-0.0465,0.0059,0.0622,-0.0254,888,2019-08-07 16:20:35:471
2.9561,-9.0477,1.8901,0.2219,-0.0764,-0.0465,0.0016,0.0228,-0.035,893,2019-08-07 16:20:35:476
2.9752,-9.0716,2.0363,0.2219,-0.0764,-0.0465,0.0016,0.0228,-0.035,898,2019-08-07 16:20:35:481
2.9752,-9.0716,2.0363,0.1589,0.002,-0.1567,-0.0037,-0.023,-0.0478,903,2019-08-07 16:20:35:486
2.9752,-9.0716,2.0363,0.1589,0.002,-0.1567,-0.0037,-0.023,-0.0478,907,2019-08-07 16:20:35:490
3.1092,-9.1241,2.0268,0.1589,0.002,-0.1567,-0.0165,-0.0742,-0.052,913,2019-08-07 16:20:35:496
3.1092,-9.1241,2.0268,0.1589,0.002,-0.1567,-0.0165,-0.0742,-0.052,918,2019-08-07 16:20:35:501
3.1092,-9.1241,2.0268,-0.0931,-0.0144,-0.0445,-0.0229,-0.1029,-0.0446,923,2019-08-07 16:20:35:506
3.3292,-9.0525,1.8807,-0.0931,-0.0144,-0.0445,-0.0229,-0.1029,-0.0446,928,2019-08-07 16:20:35:511
3.3292,-9.0525,1.8807,-0.0931,-0.0144,-0.0445,-0.0208,-0.0955,-0.035,934,2019-08-07 16:20:35:517
3.5732,-9.0668,1.9231,-0.0931,-0.0144,-0.0445,-0.0208,-0.0955,-0.035,937,2019-08-07 16:20:35:520
3.5732,-9.0668,1.9231,-0.3442,-0.0646,-0.0023,-0.0101,-0.071,-0.0211,943,2019-08-07 16:20:35:526
3.5732,-9.0668,1.9231,-0.3442,-0.0646,-0.0023,-0.0101,-0.071,-0.0211,948,2019-08-07 16:20:35:531
3.6067,-9.0334,1.8194,-0.3442,-0.0646,-0.0023,5.0E-4,-0.0177,-0.0073,953,2019-08-07 16:20:35:536
3.6067,-9.0334,1.8194,-0.3442,-0.0646,-0.0023,5.0E-4,-0.0177,-0.0073,958,2019-08-07 16:20:35:541
3.5828,-8.9809,1.8194,-0.3624,-0.0965,0.0427,0.0144,0.0441,2.0E-4,963,2019-08-07 16:20:35:546
3.5828,-8.9809,1.8194,-0.3624,-0.0965,0.0427,0.0144,0.0441,2.0E-4,967,2019-08-07 16:20:35:550
3.5828,-8.9809,1.8194,-0.3624,-0.0965,0.0427,0.0144,0.0441,2.0E-4,973,2019-08-07 16:20:35:556
3.4153,-9.0191,1.8995,-0.3624,-0.0965,0.0427,0.0261,0.1037,0.0108,978,2019-08-07 16:20:35:561
3.4153,-9.0191,1.8995,-0.0737,-0.1289,-0.1169,0.0261,0.1037,0.0108,983,2019-08-07 16:20:35:566
3.2144,-8.9761,1.9703,-0.0737,-0.1289,-0.1169,0.025,0.1144,0.013,988,2019-08-07 16:20:35:571
3.2144,-8.9761,1.9703,-0.0737,-0.1289,-0.1169,0.025,0.1144,0.013,993,2019-08-07 16:20:35:576
3.0804,-8.9952,1.9985,-0.0737,-0.1289,-0.1169,0.0176,0.0899,0.0119,998,2019-08-07 16:20:35:581
3.0804,-8.9952,1.9985,0.1875,-0.1527,-0.1761,0.0176,0.0899,0.0119,1002,2019-08-07 16:20:35:585
3.0804,-8.9952,1.9985,0.1875,-0.1527,-0.1761,0.0059,0.0452,0.0087,1008,2019-08-07 16:20:35:591
3.0613,-8.9522,1.9938,0.1875,-0.1527,-0.1761,0.0059,0.0452,0.0087,1013,2019-08-07 16:20:35:596
3.0613,-8.9522,1.9938,0.1875,-0.1527,-0.1761,-0.0059,-0.0166,0.0076,1018,2019-08-07 16:20:35:601
3.0613,-8.9522,1.9938,0.0176,-0.1342,-0.0616,-0.0059,-0.0166,0.0076,1023,2019-08-07 16:20:35:606
3.2335,-8.914,1.9703,0.0176,-0.1342,-0.0616,-0.0122,-0.0571,0.0055,1028,2019-08-07 16:20:35:611
3.2335,-8.914,1.9703,0.0176,-0.1342,-0.0616,-0.0122,-0.0571,0.0055,1033,2019-08-07 16:20:35:616
3.2335,-8.914,1.9703,-0.1105,-0.1869,-0.0595,-0.0069,-0.0752,0.0044,1038,2019-08-07 16:20:35:621
3.3818,-8.9331,1.7911,-0.1105,-0.1869,-0.0595,-0.0069,-0.0752,0.0044,1042,2019-08-07 16:20:35:625
3.3818,-8.9331,1.7911,-0.1105,-0.1869,-0.0595,0.0048,-0.0624,0.0204,1048,2019-08-07 16:20:35:631
3.3818,-8.9331,1.7346,-0.3236,-0.1444,0.1422,0.0048,-0.0624,0.0204,1053,2019-08-07 16:20:35:636
3.5349,-8.9331,1.7346,-0.3236,-0.1444,0.1422,0.0048,-0.0624,0.0204,1057,2019-08-07 16:20:35:640
3.5349,-8.9331,1.7346,-0.3236,-0.1444,0.1422,0.024,-0.0241,0.0268,1063,2019-08-07 16:20:35:646
3.5445,-8.9188,1.6591,-0.3236,-0.1444,0.1422,0.024,-0.0241,0.0268,1068,2019-08-07 16:20:35:651
3.5445,-8.9188,1.6591,-0.3236,-0.1444,0.1422,0.0421,0.0388,0.0247,1072,2019-08-07 16:20:35:655
3.4919,-8.8711,1.7016,-0.3108,-0.1967,0.1457,0.0421,0.0388,0.0247,1078,2019-08-07 16:20:35:661
3.4919,-8.8711,1.7016,-0.3108,-0.1967,0.1457,0.0517,0.0888,0.0172,1083,2019-08-07 16:20:35:666
3.4919,-8.8711,1.7016,-0.3108,-0.1967,0.1457,0.0517,0.0888,0.0172,1088,2019-08-07 16:20:35:671
3.2527,-8.7947,1.8006,-0.3108,-0.1967,0.1457,0.0602,0.1176,0.0034,1093,2019-08-07 16:20:35:676
3.2527,-8.7947,1.8006,-0.0183,-0.2857,0.1325,0.0602,0.1176,0.0034,1098,2019-08-07 16:20:35:681
3.2527,-8.7947,1.8006,-0.0183,-0.2857,0.1325,0.0602,0.1176,0.0034,1103,2019-08-07 16:20:35:686
3.0709,-8.7374,1.7958,-0.0183,-0.2857,0.1325,0.0432,0.1133,-0.0084,1108,2019-08-07 16:20:35:691
3.0709,-8.7374,1.7958,-0.0183,-0.2857,0.1325,0.0432,0.1133,-0.0084,1113,2019-08-07 16:20:35:696
3.0278,-8.7661,1.9137,0.175,-0.3074,-0.003,0.0261,0.0771,-0.0179,1118,2019-08-07 16:20:35:701
3.0278,-8.7661,1.9137,0.175,-0.3074,-0.003,0.0261,0.0771,-0.0179,1123,2019-08-07 16:20:35:706
3.0278,-8.7661,1.9137,0.175,-0.3074,-0.003,0.0133,0.0132,-0.0339,1127,2019-08-07 16:20:35:710
2.9847,-8.8138,1.8383,0.175,-0.3074,-0.003,0.0133,0.0132,-0.0339,1133,2019-08-07 16:20:35:716
2.9847,-8.8138,1.8383,0.1495,-0.2813,0.134,0.0059,-0.0401,-0.0403,1137,2019-08-07 16:20:35:720
2.9847,-8.8138,1.8383,0.1495,-0.2813,0.134,0.0059,-0.0401,-0.0403,1143,2019-08-07 16:20:35:726
3.1043,-8.7995,1.8053,0.1495,-0.2813,0.134,-5.0E-4,-0.0827,-0.0446,1148,2019-08-07 16:20:35:731
3.1043,-8.7995,1.8053,0.1495,-0.2813,0.134,-5.0E-4,-0.0827,-0.0446,1153,2019-08-07 16:20:35:736
3.1043,-8.7995,1.8053,-0.1458,-0.2594,0.2141,-5.0E-4,-0.0827,-0.0446,1158,2019-08-07 16:20:35:741
3.4871,-8.8233,1.7063,-0.1458,-0.2594,0.2141,-0.0016,-0.0987,-0.0435,1163,2019-08-07 16:20:35:746
3.4871,-8.8233,1.7063,-0.3825,-0.2147,0.2054,-0.0016,-0.0987,-0.0435,1168,2019-08-07 16:20:35:751
3.6641,-8.809,1.6591,-0.3825,-0.2147,0.2054,5.0E-4,-0.0699,-0.0499,1173,2019-08-07 16:20:35:756
3.6641,-8.809,1.6591,-0.3825,-0.2147,0.2054,5.0E-4,-0.0699,-0.0499,1177,2019-08-07 16:20:35:760
3.6641,-8.809,1.6591,-0.3825,-0.2147,0.2054,-0.008,-0.0198,-0.0392,1184,2019-08-07 16:20:35:767
3.7072,-8.7995,1.6026,-0.4065,-0.2299,0.3223,-0.008,-0.0198,-0.0392,1188,2019-08-07 16:20:35:771
3.7072,-8.7995,1.6026,-0.4065,-0.2299,0.3223,-0.0165,0.0473,-0.035,1193,2019-08-07 16:20:35:776
3.5971,-8.8806,1.5979,-0.4065,-0.2299,0.3223,-0.0165,0.0473,-0.035,1198,2019-08-07 16:20:35:781
3.5971,-8.8806,1.5979,-0.4065,-0.2299,0.3223,-0.0325,0.108,-0.0307,1203,2019-08-07 16:20:35:786
3.5971,-8.8806,1.5979,-0.2226,-0.1849,0.207,-0.0325,0.108,-0.0307,1208,2019-08-07 16:20:35:791
3.3866,-8.9475,1.711,-0.2226,-0.1849,0.207,-0.0442,0.1623,-0.0286,1212,2019-08-07 16:20:35:795
3.3866,-8.9475,1.711,-0.0737,-0.1321,0.1791,-0.0442,0.1623,-0.0286,1218,2019-08-07 16:20:35:801
3.157,-8.914,1.7157,-0.0737,-0.1321,0.1791,-0.0442,0.1623,-0.0286,1223,2019-08-07 16:20:35:806
3.157,-8.914,1.7157,-0.0737,-0.1321,0.1791,-0.0485,0.1932,-0.0307,1228,2019-08-07 16:20:35:811
3.157,-8.914,1.7157,-0.0737,-0.1321,0.1791,-0.0485,0.1932,-0.0307,1233,2019-08-07 16:20:35:816
2.8364,-8.8997,1.7911,0.4069,-0.161,0.1114,-0.0506,0.1655,-0.0414,1238,2019-08-07 16:20:35:821
2.8364,-8.8997,1.7911,0.4069,-0.161,0.1114,-0.0506,0.1655,-0.0414,1243,2019-08-07 16:20:35:826
2.8364,-8.8997,1.7911,0.4069,-0.161,0.1114,-0.0506,0.1655,-0.0414,1248,2019-08-07 16:20:35:831
2.779,-9.0334,1.7534,0.4069,-0.161,0.1114,-0.0602,0.1155,-0.051,1253,2019-08-07 16:20:35:836
2.779,-9.0334,1.7534,0.4263,0.0343,0.0858,-0.0602,0.1155,-0.051,1258,2019-08-07 16:20:35:841
2.8556,-9.1336,1.7817,0.4263,0.0343,0.0858,-0.0666,0.0665,-0.0691,1263,2019-08-07 16:20:35:846
2.8556,-9.1336,1.7817,0.4263,0.0343,0.0858,-0.0666,0.0665,-0.0691,1269,2019-08-07 16:20:35:852
3.0326,-9.2864,1.7628,0.4263,0.0343,0.0858,-0.0623,0.0015,-0.0882,1273,2019-08-07 16:20:35:856
3.0326,-9.2864,1.7628,0.4263,0.0343,0.0858,-0.0623,0.0015,-0.0882,1278,2019-08-07 16:20:35:861
3.0326,-9.2864,1.7628,0.1548,0.3129,0.1839,-0.0602,-0.0315,-0.0978,1283,2019-08-07 16:20:35:866
3.3627,-9.4296,1.579,0.1548,0.3129,0.1839,-0.0602,-0.0315,-0.0978,1288,2019-08-07 16:20:35:871
3.3627,-9.4296,1.579,0.1548,0.3129,0.1839,-0.0623,-0.0294,-0.0989,1293,2019-08-07 16:20:35:876
3.3627,-9.4296,1.579,-0.2285,0.4261,0.3235,-0.0623,-0.0294,-0.0989,1298,2019-08-07 16:20:35:881
3.4727,-9.5346,1.4989,-0.2285,0.4261,0.3235,-0.0623,-0.0294,-0.0989,1303,2019-08-07 16:20:35:886
3.4727,-9.5346,1.4989,-0.2285,0.4261,0.3235,-0.0463,0.0111,-0.0861,1308,2019-08-07 16:20:35:891
3.4727,-9.5346,1.4989,-0.2285,0.4261,0.3235,-0.0463,0.0111,-0.0861,1313,2019-08-07 16:20:35:896
3.3962,-9.6779,1.3716,-0.0328,0.6437,0.5389,-0.024,0.0686,-0.0595,1318,2019-08-07 16:20:35:901
3.3962,-9.6779,1.3716,-0.0328,0.6437,0.5389,-0.024,0.0686,-0.0595,1322,2019-08-07 16:20:35:905
3.0517,-9.9738,1.216,-0.0328,0.6437,0.5389,-0.0272,0.1112,-0.0414,1328,2019-08-07 16:20:35:911
3.0517,-9.9738,1.216,-0.0328,0.6437,0.5389,-0.0272,0.1112,-0.0414,1332,2019-08-07 16:20:35:915
3.0517,-9.9738,1.216,0.6356,1.2869,0.5919,-0.0378,0.1421,-0.0265,1338,2019-08-07 16:20:35:921
2.5685,-10.4178,1.2962,0.6356,1.2869,0.5919,-0.0378,0.1421,-0.0265,1342,2019-08-07 16:20:35:925
2.5685,-10.4178,1.2962,0.6356,1.2869,0.5919,-0.0421,0.1655,-0.0233,1348,2019-08-07 16:20:35:931
1.9322,-10.9907,1.4517,0.6356,1.2869,0.5919,-0.0421,0.1655,-0.0233,1353,2019-08-07 16:20:35:936
1.9322,-10.9907,1.4517,1.6231,2.1272,0.3645,-0.0304,0.1506,-0.0254,1358,2019-08-07 16:20:35:941
1.9322,-10.9907,1.4517,1.6231,2.1272,0.3645,-0.0304,0.1506,-0.0254,1363,2019-08-07 16:20:35:946
1.3102,-11.5969,1.5554,1.6231,2.1272,0.3645,-0.0144,0.092,-0.0179,1368,2019-08-07 16:20:35:951
1.3102,-11.5969,1.5554,1.6231,2.1272,0.3645,-0.0144,0.092,-0.0179,1373,2019-08-07 16:20:35:956
0.8653,-12.3512,1.5979,2.3889,3.2852,0.2605,-0.0027,0.0494,2.0E-4,1378,2019-08-07 16:20:35:961
0.8653,-12.3512,1.5979,2.3889,3.2852,0.2605,-0.0027,0.0494,2.0E-4,1383,2019-08-07 16:20:35:966
0.8653,-12.3512,1.5979,2.3889,3.2852,0.2605,0.0208,-0.0273,0.0087,1388,2019-08-07 16:20:35:971
0.296,-13.621,1.7298,2.3889,3.2852,0.2605,0.0208,-0.0273,0.0087,1393,2019-08-07 16:20:35:976
0.296,-13.621,1.7298,2.3889,3.2852,0.2605,0.0208,-0.0273,0.0087,1398,2019-08-07 16:20:35:981
0.296,-13.621,1.7298,3.3079,5.6681,-0.1039,0.0655,-0.0784,0.0321,1402,2019-08-07 16:20:35:985
-0.637,-15.9602,2.4086,3.3079,5.6681,-0.1039,0.0655,-0.0784,0.0321,1408,2019-08-07 16:20:35:991
-0.637,-15.9602,2.4086,3.9896,7.3339,-0.6511,0.1689,-0.1572,0.1131,1412,2019-08-07 16:20:35:995
-1.4933,-18.1848,3.1723,3.9896,7.3339,-0.6511,0.1689,-0.1572,0.1131,1418,2019-08-07 16:20:36:001
-1.4933,-18.1848,3.1723,3.9896,7.3339,-0.6511,0.4139,-0.2979,0.3251,1423,2019-08-07 16:20:36:006
-1.4933,-18.1848,3.1723,5.0409,10.8522,-1.9532,0.4139,-0.2979,0.3251,1428,2019-08-07 16:20:36:011
-1.9478,-20.2614,3.9925,5.0409,10.8522,-1.9532,0.7239,-0.3639,0.552,1433,2019-08-07 16:20:36:016
-1.9478,-20.2614,3.9925,5.0409,10.8522,-1.9532,0.7239,-0.3639,0.552,1438,2019-08-07 16:20:36:021
-1.9478,-20.2614,3.9925,5.0409,10.8522,-1.9532,1.0988,-0.3383,0.7991,1443,2019-08-07 16:20:36:026
-1.766,-21.5265,4.4733,4.5833,12.7798,-2.3436,1.0988,-0.3383,0.7991,1448,2019-08-07 16:20:36:031
-1.766,-21.5265,4.4733,4.5833,12.7798,-2.3436,1.4152,-0.1636,1.0953,1453,2019-08-07 16:20:36:036
-1.3929,-22.5481,3.8511,4.5833,12.7798,-2.3436,1.4152,-0.1636,1.0953,1458,2019-08-07 16:20:36:041
-1.3929,-22.5481,3.8511,4.2275,13.7745,-1.4568,1.5484,0.1879,1.4862,1462,2019-08-07 16:20:36:045
-1.3929,-22.5481,3.8511,4.2275,13.7745,-1.4568,1.5484,0.1879,1.4862,1468,2019-08-07 16:20:36:051
-1.479,-25.2262,2.8376,4.2275,13.7745,-1.4568,1.5356,0.7589,1.9688,1473,2019-08-07 16:20:36:056
-1.479,-25.2262,2.8376,4.2275,13.7745,-1.4568,1.5356,0.7589,1.9688,1477,2019-08-07 16:20:36:060
-2.0244,-29.8472,2.1305,4.5327,19.9412,0.2443,1.5153,1.544,2.5302,1483,2019-08-07 16:20:36:066
-2.0244,-29.8472,2.1305,4.5327,19.9412,0.2443,1.5153,1.544,2.5302,1488,2019-08-07 16:20:36:071
-2.0244,-29.8472,2.1305,4.5327,19.9412,0.2443,1.5153,1.544,2.5302,1493,2019-08-07 16:20:36:076
-2.4358,-33.165,1.6827,4.5327,19.9412,0.2443,1.6528,2.5507,3.1129,1498,2019-08-07 16:20:36:081
-2.4358,-33.165,1.6827,4.4313,23.9067,1.2165,1.6528,2.5507,3.1129,1502,2019-08-07 16:20:36:085
-2.4358,-33.165,1.6827,4.4313,23.9067,1.2165,1.9851,3.9323,3.8479,1508,2019-08-07 16:20:36:091
-1.2541,-32.4537,2.7292,4.4313,23.9067,1.2165,1.9851,3.9323,3.8479,1513,2019-08-07 16:20:36:096
-1.2541,-32.4537,2.7292,4.4313,23.9067,1.2165,2.3729,5.4929,4.208,1518,2019-08-07 16:20:36:101
2.1905,-30.5633,0.179,-0.9301,22.3769,2.2504,2.3729,5.4929,4.208,1523,2019-08-07 16:20:36:106
2.1905,-30.5633,0.179,-0.9301,22.3769,2.2504,2.2482,7.1483,4.1632,1528,2019-08-07 16:20:36:111
2.1905,-30.5633,0.179,-0.9301,22.3769,2.2504,2.2482,7.1483,4.1632,1533,2019-08-07 16:20:36:116
3.6736,-28.9641,-3.2857,-0.9301,22.3769,2.2504,1.1702,9.0221,3.686,1537,2019-08-07 16:20:36:120
3.6736,-28.9641,-3.2857,-3.5256,19.4491,7.9813,1.1702,9.0221,3.686,1543,2019-08-07 16:20:36:126
1.5638,-28.0427,-5.2325,-3.5256,19.4491,7.9813,0.1891,10.2206,3.1906,1548,2019-08-07 16:20:36:131
1.5638,-28.0427,-5.2325,-3.5256,19.4491,7.9813,0.1891,10.2206,3.1906,1552,2019-08-07 16:20:36:135
1.5638,-28.0427,-5.2325,-3.5256,19.4491,7.9813,0.1891,10.2206,3.1906,1558,2019-08-07 16:20:36:141
-3.5075,-27.3553,-7.8345,2.4745,18.3496,11.7691,-0.3478,10.9801,2.7613,1563,2019-08-07 16:20:36:146
-3.5075,-27.3553,-7.8345,2.4745,18.3496,11.7691,-0.3478,10.9801,2.7613,1568,2019-08-07 16:20:36:151
-7.4402,-27.2073,-8.6028,2.4745,18.3496,11.7691,-0.5055,11.8142,2.0018,1573,2019-08-07 16:20:36:156
-7.4402,-27.2073,-8.6028,2.4745,18.3496,11.7691,-0.5055,11.8142,2.0018,1578,2019-08-07 16:20:36:161
-7.4402,-27.2073,-8.6028,4.688,16.9988,10.1541,0.0218,12.4789,1.1379,1584,2019-08-07 16:20:36:167
-6.9426,-24.3526,-4.8931,4.688,16.9988,10.1541,0.0218,12.4789,1.1379,1587,2019-08-07 16:20:36:170
-6.9426,-24.3526,-4.8931,4.688,16.9988,10.1541,0.0218,12.4789,1.1379,1593,2019-08-07 16:20:36:176
-6.9426,-24.3526,-4.8931,4.688,16.9988,10.1541,2.8778,12.7314,-1.3271,1598,2019-08-07 16:20:36:181
-3.5745,-18.1466,1.4517,0.1157,9.2508,0.815,5.705,11.1452,-2.9037,1603,2019-08-07 16:20:36:186
-3.5745,-18.1466,1.4517,0.1157,9.2508,0.815,5.705,11.1452,-2.9037,1607,2019-08-07 16:20:36:190
-3.5745,-18.1466,1.4517,0.1157,9.2508,0.815,5.705,11.1452,-2.9037,1613,2019-08-07 16:20:36:196
-3.187,-10.3175,-4.4217,0.1157,9.2508,0.815,8.332,9.7785,-4.2034,1618,2019-08-07 16:20:36:201
-3.187,-10.3175,-4.4217,4.0682,-8.1592,5.4117,8.332,9.7785,-4.2034,1622,2019-08-07 16:20:36:205
-12.4349,6.8539,0.8154,4.0682,-8.1592,5.4117,10.9717,8.7217,-4.7008,1628,2019-08-07 16:20:36:211
-12.4349,6.8539,0.8154,4.0682,-8.1592,5.4117,10.9717,8.7217,-4.7008,1633,2019-08-07 16:20:36:216
-12.4349,6.8539,0.8154,4.0682,-8.1592,5.4117,3.9527,-5.7691,-2.4787,1638,2019-08-07 16:20:36:221
-12.4349,6.8539,0.8154,4.0682,-8.1592,5.4117,3.9527,-5.7691,-2.4787,1642,2019-08-07 16:20:36:225
-26.1705,97.1316,4.181,23.2417,-105.4752,0.0667,7.4435,-2.6851,-2.0995,1648,2019-08-07 16:20:36:231
-26.1705,97.1316,4.181,23.2417,-105.4752,0.0667,7.4435,-2.6851,-2.0995,1653,2019-08-07 16:20:36:236
0.5112,39.2681,28.4053,23.2417,-105.4752,0.0667,7.4435,-2.6851,-2.0995,1658,2019-08-07 16:20:36:241
0.5112,39.2681,28.4053,5.5358,-55.6356,1.3272,13.0543,-3.6609,-2.2358,1663,2019-08-07 16:20:36:246
0.5112,39.2681,28.4053,5.5358,-55.6356,1.3272,13.0543,-3.6609,-2.2358,1668,2019-08-07 16:20:36:251
1.1954,41.6503,-9.9463,5.5358,-55.6356,1.3272,7.8036,-6.3209,1.0388,1672,2019-08-07 16:20:36:255
1.1954,41.6503,-9.9463,5.5358,-55.6356,1.3272,7.8036,-6.3209,1.0388,1678,2019-08-07 16:20:36:261
20.318,50.6728,-20.1611,-21.8862,-56.9101,27.5687,5.3162,-4.3554,2.6889,1682,2019-08-07 16:20:36:265
20.318,50.6728,-20.1611,-21.8862,-56.9101,27.5687,5.3162,-4.3554,2.6889,1688,2019-08-07 16:20:36:271
20.318,50.6728,-20.1611,-21.8862,-56.9101,27.5687,0.8069,-2.7032,3.1587,1693,2019-08-07 16:20:36:276
28.7143,40.7576,-38.7099,-21.8862,-56.9101,27.5687,0.8069,-2.7032,3.1587,1698,2019-08-07 16:20:36:281
28.7143,40.7576,-38.7099,-18.4064,-43.182,48.9132,-4.2392,0.0185,2.2894,1703,2019-08-07 16:20:36:286
28.7143,40.7576,-38.7099,-18.4064,-43.182,48.9132,-4.2392,0.0185,2.2894,1708,2019-08-07 16:20:36:291
6.1279,33.7353,-30.885,-18.4064,-43.182,48.9132,-7.3636,5.2277,2.3906,1713,2019-08-07 16:20:36:296
6.1279,33.7353,-30.885,-18.4064,-43.182,48.9132,-7.3636,5.2277,2.3906,1717,2019-08-07 16:20:36:300
3.4009,21.8723,48.5992,-5.7683,-28.7021,-41.967,-7.3636,5.2277,2.3906,1723,2019-08-07 16:20:36:306
3.4009,21.8723,48.5992,-5.7683,-28.7021,-41.967,-9.1245,1.969,2.3054,1727,2019-08-07 16:20:36:310
3.4009,21.8723,48.5992,-5.7683,-28.7021,-41.967,-9.1245,1.969,2.3054,1733,2019-08-07 16:20:36:316
-7.0909,11.9046,19.2935,-5.7683,-28.7021,-41.967,-5.1564,-2.3975,2.3469,1738,2019-08-07 16:20:36:321
-7.0909,11.9046,19.2935,-5.7683,-28.7021,-41.967,-5.1564,-2.3975,2.3469,1743,2019-08-07 16:20:36:326
-4.5553,7.5079,7.7682,3.4617,-16.3208,-2.1207,-5.1564,-2.3975,2.3469,1748,2019-08-07 16:20:36:331
-4.5553,7.5079,7.7682,3.4617,-16.3208,-2.1207,-1.9638,-0.3831,1.9176,1753,2019-08-07 16:20:36:336
-4.5553,7.5079,7.7682,3.4617,-16.3208,-2.1207,-1.9638,-0.3831,1.9176,1758,2019-08-07 16:20:36:341
-2.4024,5.3931,2.6302,3.4617,-16.3208,-2.1207,-1.8754,-4.0604,0.9632,1763,2019-08-07 16:20:36:346
-2.4024,5.3931,2.6302,-0.0858,-11.9986,9.017,-1.8754,-4.0604,0.9632,1768,2019-08-07 16:20:36:351
-2.4024,5.3931,2.6302,-0.0858,-11.9986,9.017,-3.8557,-4.3831,0.3251,1773,2019-08-07 16:20:36:356
-2.9143,1.8318,-8.0749,-0.0858,-11.9986,9.017,-3.8557,-4.3831,0.3251,1778,2019-08-07 16:20:36:361
-2.9143,1.8318,-8.0749,-0.0858,-11.9986,9.017,-5.6443,-4.8252,0.0034,1782,2019-08-07 16:20:36:365
-2.9143,1.8318,-8.0749,0.6346,-7.6402,0.2976,-5.6443,-4.8252,0.0034,1788,2019-08-07 16:20:36:371
-3.1439,-1.2616,9.0174,0.6346,-7.6402,0.2976,-5.6443,-4.8252,0.0034,1793,2019-08-07 16:20:36:376
-3.1439,-1.2616,9.0174,0.6346,-7.6402,0.2976,-5.6187,-7.1773,0.0012,1798,2019-08-07 16:20:36:381
-9.0573,-4.8038,5.9298,0.6346,-7.6402,0.2976,-5.6187,-7.1773,0.0012,1803,2019-08-07 16:20:36:386
-9.0573,-4.8038,5.9298,7.4432,-2.23,1.3389,-4.2776,-7.5672,0.5882,1807,2019-08-07 16:20:36:390
-9.0573,-4.8038,5.9298,7.4432,-2.23,1.3389,-4.2776,-7.5672,0.5882,1813,2019-08-07 16:20:36:396
-7.2105,-13.5924,4.8127,7.4432,-2.23,1.3389,-3.8451,-8.6154,1.0484,1817,2019-08-07 16:20:36:400
-7.2105,-13.5924,4.8127,7.4432,-2.23,1.3389,-3.8451,-8.6154,1.0484,1823,2019-08-07 16:20:36:406
-2.8856,-49.5536,-0.3442,2.5035,32.5006,3.1673,-3.8131,-9.5614,0.4561,1828,2019-08-07 16:20:36:411
-2.8856,-49.5536,-0.3442,2.5035,32.5006,3.1673,-3.8131,-9.5614,0.4561,1834,2019-08-07 16:20:36:417
-2.8856,-49.5536,-0.3442,2.5035,32.5006,3.1673,-3.8131,-9.5614,0.4561,1838,2019-08-07 16:20:36:421
-0.9815,-44.6031,0.509,2.5035,32.5006,3.1673,-4.6174,-9.6562,-0.982,1843,2019-08-07 16:20:36:426
-0.9815,-44.6031,0.509,-0.677,19.5656,-1.6986,-4.6174,-9.6562,-0.982,1847,2019-08-07 16:20:36:430
-0.881,-20.8963,5.8497,-0.677,19.5656,-1.6986,-2.4805,-8.7582,-2.4009,1853,2019-08-07 16:20:36:436
-0.881,-20.8963,5.8497,-0.677,19.5656,-1.6986,-2.4805,-8.7582,-2.4009,1857,2019-08-07 16:20:36:440
-0.881,-20.8963,5.8497,-0.677,19.5656,-1.6986,-2.4805,-8.7582,-2.4009,1863,2019-08-07 16:20:36:446
-3.6941,-27.1787,6.1467,4.3003,17.8122,-3.2939,-0.4991,-8.6112,-2.8185,1868,2019-08-07 16:20:36:451
-3.6941,-27.1787,6.1467,4.3003,17.8122,-3.2939,-0.4991,-8.6112,-2.8185,1872,2019-08-07 16:20:36:455
-2.9095,-29.5178,-9.9887,3.9947,20.1726,12.7682,0.0687,-7.0889,-2.2699,1878,2019-08-07 16:20:36:461
-2.9095,-29.5178,-9.9887,3.9947,20.1726,12.7682,0.0687,-7.0889,-2.2699,1883,2019-08-07 16:20:36:466
-2.9095,-29.5178,-9.9887,3.9947,20.1726,12.7682,-1.7923,-6.0002,-1.9833,1888,2019-08-07 16:20:36:471
3.7884,-21.8606,-0.8439,3.9947,20.1726,12.7682,-1.7923,-6.0002,-1.9833,1892,2019-08-07 16:20:36:475
3.7884,-21.8606,-0.8439,-1.399,12.7577,5.1839,-2.3675,-4.381,-1.6414,1898,2019-08-07 16:20:36:481
2.8698,-25.1259,-4.1483,-1.399,12.7577,5.1839,-2.3675,-4.381,-1.6414,1903,2019-08-07 16:20:36:486
2.8698,-25.1259,-4.1483,-1.399,12.7577,5.1839,-2.4741,-2.1546,-1.1088,1907,2019-08-07 16:20:36:490
2.8698,-25.1259,-4.1483,-1.399,12.7577,5.1839,-2.4741,-2.1546,-1.1088,1913,2019-08-07 16:20:36:496
-0.7662,-28.6872,-0.4951,2.9351,19.278,2.2271,-2.0586,-0.8273,-0.6102,1918,2019-08-07 16:20:36:501
-0.7662,-28.6872,-0.4951,2.9351,19.278,2.2271,-2.0586,-0.8273,-0.6102,1923,2019-08-07 16:20:36:506
-6.4834,-26.4483,3.1628,2.9351,19.278,2.2271,-1.1041,-0.0603,-0.1181,1928,2019-08-07 16:20:36:511
-6.4834,-26.4483,3.1628,2.9351,19.278,2.2271,-1.1041,-0.0603,-0.1181,1933,2019-08-07 16:20:36:516
-6.4834,-26.4483,3.1628,9.0246,16.0067,-7.2059,0.3169,-0.1679,-0.0403,1938,2019-08-07 16:20:36:521
-6.1676,-24.534,9.2248,9.0246,16.0067,-7.2059,0.3169,-0.1679,-0.0403,1942,2019-08-07 16:20:36:525
-6.1676,-24.534,9.2248,9.0246,16.0067,-7.2059,1.7114,-1.4973,-0.574,1948,2019-08-07 16:20:36:531
-3.8999,-19.9081,8.5837,9.0246,16.0067,-7.2059,1.7114,-1.4973,-0.574,1953,2019-08-07 16:20:36:536
-3.8999,-19.9081,8.5837,6.2174,9.8547,-5.5028,1.7114,-1.4973,-0.574,1958,2019-08-07 16:20:36:541
-3.8999,-19.9081,8.5837,6.2174,9.8547,-5.5028,2.4624,-2.651,-1.1429,1963,2019-08-07 16:20:36:546
-2.3785,-14.676,-2.9887,6.2174,9.8547,-5.5028,2.4624,-2.651,-1.1429,1968,2019-08-07 16:20:36:551
-2.3785,-14.676,-2.9887,6.2174,9.8547,-5.5028,1.1734,-1.4952,-1.0704,1973,2019-08-07 16:20:36:556
-2.3785,-14.676,-2.9887,1.6157,2.5255,-1.3849,1.1734,-1.4952,-1.0704,1978,2019-08-07 16:20:36:561
1.425,-11.2914,4.3978,1.6157,2.5255,-1.3849,0.5555,-1.6305,-0.9426,1984,2019-08-07 16:20:36:567
1.425,-11.2914,4.3978,1.6157,2.5255,-1.3849,0.5555,-1.6305,-0.9426,1988,2019-08-07 16:20:36:571
1.425,-11.2914,4.3978,1.6157,2.5255,-1.3849,0.5555,-1.6305,-0.9426,1993,2019-08-07 16:20:36:576
2.3436,-9.4535,4.3648,0.143,-0.3082,-1.7985,0.6173,-1.2268,-0.7221,1998,2019-08-07 16:20:36:581
2.3436,-9.4535,4.3648,0.143,-0.3082,-1.7985,0.6173,-1.2268,-0.7221,2002,2019-08-07 16:20:36:585
2.9894,-8.3937,2.4369,0.143,-0.3082,-1.7985,0.775,-1.0947,-0.3737,2008,2019-08-07 16:20:36:591
2.9894,-8.3937,2.4369,0.143,-0.3082,-1.7985,0.775,-1.0947,-0.3737,2013,2019-08-07 16:20:36:596
2.9894,-8.3937,2.4369,-0.6353,-0.9454,1.2054,0.6333,-1.0819,-0.1213,2018,2019-08-07 16:20:36:601
3.6784,-8.303,0.6645,-0.6353,-0.9454,1.2054,0.6333,-1.0819,-0.1213,2023,2019-08-07 16:20:36:606
3.6784,-8.303,0.6645,-1.5766,-0.6577,0.9009,0.3095,-0.9541,-0.0169,2028,2019-08-07 16:20:36:611
4.9558,-8.7135,1.5036,-1.5766,-0.6577,0.9009,0.3095,-0.9541,-0.0169,2033,2019-08-07 16:20:36:616
4.9558,-8.7135,1.5036,-1.5766,-0.6577,0.9009,0.0751,-0.7826,-0.1287,2038,2019-08-07 16:20:36:621
4.9558,-8.7135,1.5036,-1.5766,-0.6577,0.9009,0.0751,-0.7826,-0.1287,2042,2019-08-07 16:20:36:625
5.6686,-9.0429,1.3009,-2.7934,-0.1213,0.6924,0.0591,-0.3927,-0.2555,2048,2019-08-07 16:20:36:631
5.6686,-9.0429,1.3009,-2.7934,-0.1213,0.6924,0.0591,-0.3927,-0.2555,2053,2019-08-07 16:20:36:636
5.3337,-8.6706,0.8201,-2.7934,-0.1213,0.6924,0.0527,0.1453,-0.3098,2057,2019-08-07 16:20:36:640
5.3337,-8.6706,0.8201,-2.7934,-0.1213,0.6924,0.0527,0.1453,-0.3098,2063,2019-08-07 16:20:36:646
5.3337,-8.6706,0.8201,-1.6635,-0.9239,1.5035,-0.0304,0.8185,-0.2725,2068,2019-08-07 16:20:36:651
4.4965,-8.0834,0.5608,-1.6635,-0.9239,1.5035,-0.0304,0.8185,-0.2725,2073,2019-08-07 16:20:36:656
4.4965,-8.0834,0.5608,-1.6635,-0.9239,1.5035,-0.1923,1.3256,-0.247,2078,2019-08-07 16:20:36:661
3.42,-7.7492,0.7588,-1.6635,-0.9239,1.5035,-0.1923,1.3256,-0.247,2084,2019-08-07 16:20:36:667
3.42,-7.7492,0.7588,0.4136,-1.3917,0.6152,-0.368,1.5546,-0.2661,2088,2019-08-07 16:20:36:671
3.42,-7.7492,0.7588,0.4136,-1.3917,0.6152,-0.368,1.5546,-0.2661,2092,2019-08-07 16:20:36:675
2.0948,-7.8208,1.9514,0.4136,-1.3917,0.6152,-0.368,1.5546,-0.2661,2098,2019-08-07 16:20:36:681
2.0948,-7.8208,1.9514,0.4136,-1.3917,0.6152,-0.4533,1.3565,-0.3194,2103,2019-08-07 16:20:36:686
1.1092,-8.2839,3.4221,0.4136,-1.3917,0.6152,-0.4533,1.3565,-0.3194,2108,2019-08-07 16:20:36:691
1.1092,-8.2839,3.4221,2.0287,-0.7759,-1.4655,-0.4075,1.0476,-0.3471,2113,2019-08-07 16:20:36:696
0.9513,-8.556,3.5635,2.0287,-0.7759,-1.4655,-0.4075,1.0476,-0.3471,2118,2019-08-07 16:20:36:701
0.9513,-8.556,3.5635,2.0287,-0.7759,-1.4655,-0.3063,0.3658,-0.3855,2122,2019-08-07 16:20:36:705
0.9513,-8.556,3.5635,2.0287,-0.7759,-1.4655,-0.3063,0.3658,-0.3855,2128,2019-08-07 16:20:36:711
1.5685,-8.5369,2.9978,1.4813,-0.5679,-0.9884,-0.2636,-0.1913,-0.4174,2133,2019-08-07 16:20:36:716
1.5685,-8.5369,2.9978,1.4813,-0.5679,-0.9884,-0.2636,-0.1913,-0.4174,2137,2019-08-07 16:20:36:720
2.8698,-8.6085,1.7675,1.4813,-0.5679,-0.9884,-0.2519,-0.5237,-0.4121,2143,2019-08-07 16:20:36:726
2.8698,-8.6085,1.7675,-0.5576,-0.309,0.6432,-0.2519,-0.5237,-0.4121,2148,2019-08-07 16:20:36:731
2.8698,-8.6085,1.7675,-0.5576,-0.309,0.6432,-0.2519,-0.5237,-0.4121,2153,2019-08-07 16:20:36:736
4.4008,-9.1145,1.0605,-0.5576,-0.309,0.6432,-0.2051,-0.48,-0.3855,2157,2019-08-07 16:20:36:740
4.4008,-9.1145,1.0605,-0.5576,-0.309,0.6432,-0.2051,-0.48,-0.3855,2163,2019-08-07 16:20:36:746
4.4008,-9.1145,1.0605,-0.5576,-0.309,0.6432,-0.1465,-0.2116,-0.345,2168,2019-08-07 16:20:36:751
4.8744,-9.2959,1.1547,-1.6425,0.2255,0.7207,-0.1465,-0.2116,-0.345,2173,2019-08-07 16:20:36:756
4.8744,-9.2959,1.1547,-1.6425,0.2255,0.7207,-0.1007,0.2774,-0.2629,2178,2019-08-07 16:20:36:761
4.4677,-9.0334,1.0652,-1.6425,0.2255,0.7207,-0.1007,0.2774,-0.2629,2183,2019-08-07 16:20:36:766
4.4677,-9.0334,1.0652,-1.6425,0.2255,0.7207,-0.1454,0.6342,-0.1894,2188,2019-08-07 16:20:36:771
4.4677,-9.0334,1.0652,-0.6569,-0.1185,0.8178,-0.1454,0.6342,-0.1894,2193,2019-08-07 16:20:36:776
3.4296,-8.9665,1.117,-0.6569,-0.1185,0.8178,-0.1454,0.6342,-0.1894,2198,2019-08-07 16:20:36:781
3.4296,-8.9665,1.117,-0.6569,-0.1185,0.8178,-0.2977,0.8601,-0.1351,2202,2019-08-07 16:20:36:785
3.4296,-8.9665,1.117,-0.6569,-0.1185,0.8178,-0.2977,0.8601,-0.1351,2208,2019-08-07 16:20:36:791
2.6354,-9.3294,2.0221,0.635,0.2712,-0.1539,-0.3691,0.8047,-0.1522,2213,2019-08-07 16:20:36:796
2.6354,-9.3294,2.0221,0.635,0.2712,-0.1539,-0.3691,0.8047,-0.1522,2218,2019-08-07 16:20:36:801
2.1426,-9.654,2.1824,0.635,0.2712,-0.1539,-0.3499,0.5522,-0.1564,2222,2019-08-07 16:20:36:805
2.1426,-9.654,2.1824,0.635,0.2712,-0.1539,-0.3499,0.5522,-0.1564,2228,2019-08-07 16:20:36:811
2.1426,-9.654,2.1824,1.0352,0.7529,-0.2614,-0.2775,0.2678,-0.1692,2233,2019-08-07 16:20:36:816
2.3818,-9.7972,2.0598,1.0352,0.7529,-0.2614,-0.2775,0.2678,-0.1692,2238,2019-08-07 16:20:36:821
2.3818,-9.7972,2.0598,1.0352,0.7529,-0.2614,-0.1848,-0.0038,-0.2171,2242,2019-08-07 16:20:36:825
2.5636,-9.5633,1.579,1.0352,0.7529,-0.2614,-0.1848,-0.0038,-0.2171,2249,2019-08-07 16:20:36:832
2.5636,-9.5633,1.579,0.7271,0.4358,0.2699,-0.1401,-0.17,-0.2118,2252,2019-08-07 16:20:36:835
2.5636,-9.5633,1.579,0.7271,0.4358,0.2699,-0.1401,-0.17,-0.2118,2258,2019-08-07 16:20:36:841
2.9559,-9.2959,1.4187,0.7271,0.4358,0.2699,-0.0836,-0.2616,-0.1639,2262,2019-08-07 16:20:36:845
2.9559,-9.2959,1.4187,0.7271,0.4358,0.2699,-0.0836,-0.2616,-0.1639,2268,2019-08-07 16:20:36:851
3.4104,-9.3294,0.8908,0.0095,0.2274,0.7786,-0.0421,-0.219,-0.1245,2273,2019-08-07 16:20:36:856
3.4104,-9.3294,0.8908,0.0095,0.2274,0.7786,-0.0421,-0.219,-0.1245,2277,2019-08-07 16:20:36:860
3.4104,-9.3294,0.8908,0.0095,0.2274,0.7786,-0.024,-0.1189,-0.1149,2283,2019-08-07 16:20:36:866
3.5539,-9.4057,0.7494,0.0095,0.2274,0.7786,-0.024,-0.1189,-0.1149,2288,2019-08-07 16:20:36:871
3.5539,-9.4057,0.7494,-0.2064,0.4383,1.0557,-0.024,-0.1189,-0.1149,2292,2019-08-07 16:20:36:875
3.4774,-9.5251,0.7399,-0.2064,0.4383,1.0557,-0.0208,0.0484,-0.1191,2299,2019-08-07 16:20:36:882
3.4774,-9.5251,0.7399,-0.2064,0.4383,1.0557,-0.0208,0.0484,-0.1191,2303,2019-08-07 16:20:36:886
3.4774,-9.5251,0.7399,-0.2064,0.4383,1.0557,-0.0208,0.0484,-0.1191,2307,2019-08-07 16:20:36:890
3.219,-9.5633,1.1359,0.1621,0.5214,0.61,0.0133,0.1836,-0.133,2313,2019-08-07 16:20:36:896
3.219,-9.5633,1.1359,0.1621,0.5214,0.61,0.0133,0.1836,-0.133,2318,2019-08-07 16:20:36:901
3.219,-9.5633,1.1359,0.1621,0.5214,0.61,0.0645,0.2518,-0.1436,2323,2019-08-07 16:20:36:906
2.798,-9.3484,1.4658,0.1621,0.5214,0.61,0.0645,0.2518,-0.1436,2328,2019-08-07 16:20:36:911
2.798,-9.3484,1.4658,0.7501,0.2354,0.1677,0.0932,0.2316,-0.1628,2333,2019-08-07 16:20:36:916
2.5397,-9.0334,1.8052,0.7501,0.2354,0.1677,0.0932,0.2316,-0.1628,2338,2019-08-07 16:20:36:921
2.5397,-9.0334,1.8052,0.7501,0.2354,0.1677,0.1145,0.1719,-0.2076,2343,2019-08-07 16:20:36:926
2.5397,-9.0334,1.8052,0.8458,-0.0394,-0.0797,0.1145,0.1719,-0.2076,2348,2019-08-07 16:20:36:931
2.6976,-8.6992,2.1446,0.8458,-0.0394,-0.0797,0.1145,0.1719,-0.2076,2352,2019-08-07 16:20:36:935
2.6976,-8.6992,2.1446,0.8458,-0.0394,-0.0797,0.1135,0.0718,-0.2704,2358,2019-08-07 16:20:36:941
2.6976,-8.6992,2.1446,0.5243,-0.5775,-0.4536,0.1135,0.0718,-0.2704,2363,2019-08-07 16:20:36:946
3.0038,-8.3459,2.2719,0.5243,-0.5775,-0.4536,0.0868,0.0047,-0.296,2367,2019-08-07 16:20:36:950
3.0038,-8.3459,2.2719,0.5243,-0.5775,-0.4536,0.0868,0.0047,-0.296,2373,2019-08-07 16:20:36:956
3.3626,-8.3078,2.1635,0.5243,-0.5775,-0.4536,0.0368,0.0025,-0.2981,2378,2019-08-07 16:20:36:961
3.3626,-8.3078,2.1635,-0.0957,-0.5914,-0.2775,0.0368,0.0025,-0.2981,2382,2019-08-07 16:20:36:965
3.3626,-8.3078,2.1635,-0.0957,-0.5914,-0.2775,0.0368,0.0025,-0.2981,2388,2019-08-07 16:20:36:971
3.8075,-8.4987,2.1116,-0.0957,-0.5914,-0.2775,-0.0335,0.0143,-0.2651,2393,2019-08-07 16:20:36:976
3.8075,-8.4987,2.1116,-0.0957,-0.5914,-0.2775,-0.0335,0.0143,-0.2651,2398,2019-08-07 16:20:36:981
3.9462,-8.6992,1.8759,-0.4006,-0.263,-0.0475,-0.1081,0.0036,-0.2033,2403,2019-08-07 16:20:36:986
3.9462,-8.6992,1.8759,-0.4006,-0.263,-0.0475,-0.1081,0.0036,-0.2033,2407,2019-08-07 16:20:36:990
3.9462,-8.6992,1.8759,-0.4006,-0.263,-0.0475,-0.1806,0.0175,-0.1309,2413,2019-08-07 16:20:36:996
4.128,-8.8758,1.6261,-0.4006,-0.263,-0.0475,-0.1806,0.0175,-0.1309,2417,2019-08-07 16:20:37:000
4.128,-8.8758,1.6261,-0.5181,0.0365,0.1216,-0.2402,0.0334,-0.0701,2423,2019-08-07 16:20:37:006
4.0611,-9.0095,1.7063,-0.5181,0.0365,0.1216,-0.2402,0.0334,-0.0701,2428,2019-08-07 16:20:37:011
4.0611,-9.0095,1.7063,-0.5181,0.0365,0.1216,-0.2328,0.0047,-0.0403,2434,2019-08-07 16:20:37:017
4.0611,-9.0095,1.7063,-0.5181,0.0365,0.1216,-0.2328,0.0047,-0.0403,2437,2019-08-07 16:20:37:020
4.0084,-9.3532,1.711,-0.3834,0.3998,0.0882,-0.2328,0.0047,-0.0403,2443,2019-08-07 16:20:37:026
4.0084,-9.3532,1.711,-0.3834,0.3998,0.0882,-0.1891,-0.0305,-0.0297,2448,2019-08-07 16:20:37:031
3.9702,-9.4582,1.6025,-0.3834,0.3998,0.0882,-0.1891,-0.0305,-0.0297,2453,2019-08-07 16:20:37:036
3.9702,-9.4582,1.6025,-0.3834,0.3998,0.0882,-0.1891,-0.0305,-0.0297,2457,2019-08-07 16:20:37:040
3.9702,-9.4582,1.6025,-0.3834,0.3998,0.0882,-0.1316,-0.0166,-0.0435,2463,2019-08-07 16:20:37:046
3.9367,-9.3198,1.4988,-0.3504,0.4018,0.2158,-0.1316,-0.0166,-0.0435,2468,2019-08-07 16:20:37:051
3.9367,-9.3198,1.4988,-0.3504,0.4018,0.2158,-0.0836,0.042,-0.0467,2472,2019-08-07 16:20:37:055
3.9367,-9.3198,1.4988,-0.3504,0.4018,0.2158,-0.0836,0.042,-0.0467,2478,2019-08-07 16:20:37:061
3.8736,-9.2338,1.4515,-0.2028,0.2449,0.2922,-0.0591,0.0888,-0.0488,2484,2019-08-07 16:20:37:067
3.8736,-9.2338,1.4515,-0.2028,0.2449,0.2922,-0.0591,0.0888,-0.0488,2488,2019-08-07 16:20:37:071
3.6727,-9.1956,1.5364,-0.2028,0.2449,0.2922,-0.0367,0.1655,-0.0478,2493,2019-08-07 16:20:37:076
3.6727,-9.1956,1.5364,-0.2028,0.2449,0.2922,-0.0367,0.1655,-0.0478,2499,2019-08-07 16:20:37:082
3.6727,-9.1956,1.5364,0.1102,0.2273,0.1874,-0.0186,0.1762,-0.0318,2503,2019-08-07 16:20:37:086
3.4574,-9.2195,1.5411,0.1102,0.2273,0.1874,-0.0186,0.1762,-0.0318,2508,2019-08-07 16:20:37:091
3.4574,-9.2195,1.5411,0.1102,0.2273,0.1874,-0.0186,0.1762,-0.0318,2512,2019-08-07 16:20:37:095
3.4,-9.1335,1.7721,0.1102,0.2273,0.1874,-0.0027,0.1346,-0.0265,2519,2019-08-07 16:20:37:102
3.4,-9.1335,1.7721,0.137,0.0946,-0.1288,-0.0027,0.1346,-0.0265,2523,2019-08-07 16:20:37:106
3.4,-9.1335,1.7721,0.137,0.0946,-0.1288,0.0325,0.0132,-0.0052,2528,2019-08-07 16:20:37:111
3.5483,-8.9951,1.8145,0.137,0.0946,-0.1288,0.0325,0.0132,-0.0052,2533,2019-08-07 16:20:37:116
3.5483,-8.9951,1.8145,0.137,0.0946,-0.1288,0.0325,0.0132,-0.0052,2538,2019-08-07 16:20:37:121
3.8784,-8.933,1.6401,0.137,0.0946,-0.1288,0.0474,-0.0571,0.0066,2543,2019-08-07 16:20:37:126
3.8784,-8.933,1.6401,-0.3399,-0.09,0.065,0.0485,-0.0614,0.0034,2549,2019-08-07 16:20:37:132
3.8784,-8.933,1.6401,-0.3399,-0.09,0.065,0.0485,-0.0614,0.0034,2553,2019-08-07 16:20:37:136
4.1224,-8.766,1.7532,-0.3399,-0.09,0.065,0.0485,-0.0614,0.0034,2558,2019-08-07 16:20:37:141
4.1224,-8.766,1.7532,-0.3399,-0.09,0.065,0.0453,-0.0347,0.0087,2563,2019-08-07 16:20:37:146
4.1224,-8.766,1.7532,-0.5559,-0.1543,0.0649,0.0453,-0.0347,0.0087,2569,2019-08-07 16:20:37:152
4.108,-8.871,1.6118,-0.5559,-0.1543,0.0649,0.0346,0.0302,0.0257,2573,2019-08-07 16:20:37:156
4.108,-8.871,1.6118,-0.5559,-0.1543,0.0649,0.0346,0.0302,0.0257,2578,2019-08-07 16:20:37:161
4.0362,-9.0428,1.6024,-0.5559,-0.1543,0.0649,0.0091,0.1006,0.0364,2583,2019-08-07 16:20:37:166
4.0362,-9.0428,1.6024,-0.3674,0.0606,0.1142,0.0091,0.1006,0.0364,2588,2019-08-07 16:20:37:171
4.0362,-9.0428,1.6024,-0.3674,0.0606,0.1142,0.0027,0.1165,0.0492,2593,2019-08-07 16:20:37:176
3.8209,-8.9903,1.8522,-0.3674,0.0606,0.1142,0.0027,0.1165,0.0492,2599,2019-08-07 16:20:37:182
3.8209,-8.9903,1.8522,-0.3674,0.0606,0.1142,0.0027,0.1165,0.0492,2603,2019-08-07 16:20:37:186
3.7061,-8.9521,1.8993,-0.1587,0.0294,-0.0877,0.0229,0.1059,0.0502,2608,2019-08-07 16:20:37:191
3.7061,-8.9521,1.8993,-0.1587,0.0294,-0.0877,0.0229,0.1059,0.0502,2613,2019-08-07 16:20:37:196
3.7061,-8.9521,1.8993,-0.0202,-0.1432,-0.3263,0.0272,0.0281,0.0332,2618,2019-08-07 16:20:37:201
3.6343,-8.7325,2.1114,-0.0202,-0.1432,-0.3263,0.0272,0.0281,0.0332,2622,2019-08-07 16:20:37:205
3.6343,-8.7325,2.1114,-0.0202,-0.1432,-0.3263,0.0314,-0.0773,0.0193,2629,2019-08-07 16:20:37:212
3.7779,-8.5464,1.9936,-0.0202,-0.1432,-0.3263,0.0314,-0.0773,0.0193,2633,2019-08-07 16:20:37:216
3.7779,-8.5464,1.9936,-0.3497,-0.4715,-0.2183,0.0282,-0.137,-0.0052,2638,2019-08-07 16:20:37:221
3.7779,-8.5464,1.9936,-0.3497,-0.4715,-0.2183,0.0282,-0.137,-0.0052,2642,2019-08-07 16:20:37:225
4.0506,-8.3984,1.9653,-0.55,-0.5889,-0.2054,0.0282,-0.137,-0.0052,2648,2019-08-07 16:20:37:231
4.0506,-8.3984,1.9653,-0.55,-0.5889,-0.2054,0.024,-0.1562,-0.0147,2653,2019-08-07 16:20:37:236
4.0506,-8.3984,1.9653,-0.55,-0.5889,-0.2054,0.024,-0.1562,-0.0147,2658,2019-08-07 16:20:37:241
4.2706,-8.3936,1.7155,-0.55,-0.5889,-0.2054,0.0091,-0.1274,-0.0094,2663,2019-08-07 16:20:37:246
4.2706,-8.3936,1.7155,-0.714,-0.4466,0.1035,0.0091,-0.1274,-0.0094,2668,2019-08-07 16:20:37:251
4.2132,-8.6466,1.6212,-0.714,-0.4466,0.1035,-0.0165,-0.023,-0.0116,2673,2019-08-07 16:20:37:256
4.2132,-8.6466,1.6212,-0.714,-0.4466,0.1035,-0.0165,-0.023,-0.0116,2679,2019-08-07 16:20:37:262
4.2132,-8.6466,1.6212,-0.714,-0.4466,0.1035,-0.0261,0.0409,-0.0041,2682,2019-08-07 16:20:37:265
4.0505,-8.8566,1.6731,-0.44,-0.0965,0.071,-0.0261,0.0409,-0.0041,2688,2019-08-07 16:20:37:271
4.0505,-8.8566,1.6731,-0.44,-0.0965,0.071,-0.0261,0.1006,0.0023,2693,2019-08-07 16:20:37:276
4.0505,-8.8566,1.6731,-0.44,-0.0965,0.071,-0.0261,0.1006,0.0023,2698,2019-08-07 16:20:37:281
3.95,-9.0667,1.6401,-0.44,-0.0965,0.071,-0.0261,0.1006,0.0023,2703,2019-08-07 16:20:37:286
3.95,-9.0667,1.6401,-0.2121,0.1327,0.0657,-0.009,0.1773,-0.0105,2708,2019-08-07 16:20:37:291
3.95,-9.0667,1.6401,-0.2121,0.1327,0.0657,-0.009,0.1773,-0.0105,2713,2019-08-07 16:20:37:296
3.6151,-9.0762,1.805,-0.2121,0.1327,0.0657,0.0048,0.2039,-0.0158,2718,2019-08-07 16:20:37:301
3.6151,-9.0762,1.805,-0.2121,0.1327,0.0657,0.0048,0.2039,-0.0158,2722,2019-08-07 16:20:37:305
3.5051,-8.8901,1.8239,0.0993,-0.0616,-0.0596,0.024,0.1954,-0.0179,2728,2019-08-07 16:20:37:311
3.5051,-8.8901,1.8239,0.0993,-0.0616,-0.0596,0.024,0.1954,-0.0179,2732,2019-08-07 16:20:37:315
3.5051,-8.8901,1.8239,0.0993,-0.0616,-0.0596,0.0325,0.1549,-0.0307,2738,2019-08-07 16:20:37:321
3.4238,-8.8089,2.003,0.0993,-0.0616,-0.0596,0.0325,0.1549,-0.0307,2743,2019-08-07 16:20:37:326
3.4238,-8.8089,2.003,0.189,-0.2255,-0.2485,0.0336,0.0974,-0.0318,2748,2019-08-07 16:20:37:331
3.4812,-8.7707,1.9087,0.189,-0.2255,-0.2485,0.0336,0.0974,-0.0318,2752,2019-08-07 16:20:37:335
3.4812,-8.7707,1.9087,0.189,-0.2255,-0.2485,0.0336,0.0974,-0.0318,2758,2019-08-07 16:20:37:341
3.4812,-8.7707,1.9087,0.189,-0.2255,-0.2485,0.0155,0.0217,-0.0339,2763,2019-08-07 16:20:37:346
3.5912,-8.7803,1.7862,0.0457,-0.1507,-0.0117,0.0155,0.0217,-0.0339,2768,2019-08-07 16:20:37:351
3.5912,-8.7803,1.7862,0.0457,-0.1507,-0.0117,-0.0325,-0.0347,-0.0329,2772,2019-08-07 16:20:37:355
3.6247,-8.8519,1.6495,0.0457,-0.1507,-0.0117,-0.0325,-0.0347,-0.0329,2778,2019-08-07 16:20:37:361
3.6247,-8.8519,1.6495,0.0457,-0.1507,-0.0117,-0.0644,-0.0475,-0.0179,2783,2019-08-07 16:20:37:366
3.6247,-8.8519,1.6495,-0.0199,-0.0077,0.0361,-0.0644,-0.0475,-0.0179,2788,2019-08-07 16:20:37:371
3.639,-8.9712,1.7437,-0.0199,-0.0077,0.0361,-0.0868,-0.0997,0.0183,2792,2019-08-07 16:20:37:375
3.639,-8.9712,1.7437,-0.0199,-0.0077,0.0361,-0.0868,-0.0997,0.0183,2798,2019-08-07 16:20:37:381
3.706,-9.1526,1.6872,-0.0199,-0.0077,0.0361,-0.0847,-0.1242,0.0524,2803,2019-08-07 16:20:37:386
3.706,-9.1526,1.6872,-0.0199,-0.0077,0.0361,-0.0847,-0.1242,0.0524,2808,2019-08-07 16:20:37:391
3.706,-9.1526,1.6872,-0.1653,0.1587,0.078,-0.0847,-0.1242,0.0524,2813,2019-08-07 16:20:37:396
3.8112,-9.1097,1.6683,-0.1653,0.1587,0.078,-0.073,-0.1455,0.0598,2818,2019-08-07 16:20:37:401
3.8112,-9.1097,1.6683,-0.1653,0.1587,0.078,-0.073,-0.1455,0.0598,2823,2019-08-07 16:20:37:406
3.8926,-9.0428,1.5269,-0.1653,0.1587,0.078,-0.0612,-0.1253,0.0556,2828,2019-08-07 16:20:37:411
3.8926,-9.0428,1.5269,-0.3037,0.0615,0.2188,-0.0612,-0.1253,0.0556,2834,2019-08-07 16:20:37:417
3.8926,-9.0428,1.5269,-0.3037,0.0615,0.2188,-0.0612,-0.1253,0.0556,2837,2019-08-07 16:20:37:420
3.9452,-8.9426,1.4798,-0.3037,0.0615,0.2188,-0.0495,-0.0731,0.0396,2843,2019-08-07 16:20:37:426
3.9452,-8.9426,1.4798,-0.2585,-0.043,0.1697,-0.0218,-0.0241,0.0279,2848,2019-08-07 16:20:37:431
3.8399,-8.9139,1.5788,-0.2585,-0.043,0.1697,-0.0218,-0.0241,0.0279,2853,2019-08-07 16:20:37:436
3.8399,-8.9139,1.5788,-0.2585,-0.043,0.1697,-0.0218,-0.0241,0.0279,2858,2019-08-07 16:20:37:441
3.8399,-8.9139,1.5788,-0.2585,-0.043,0.1697,0.0037,0.0153,0.0215,2863,2019-08-07 16:20:37:446
3.7155,-8.9282,1.5505,-0.2585,-0.043,0.1697,0.0037,0.0153,0.0215,2868,2019-08-07 16:20:37:451
3.7155,-8.9282,1.5505,-0.1089,-0.035,0.1782,0.025,0.0452,0.0257,2873,2019-08-07 16:20:37:456
3.7155,-8.9282,1.5505,-0.1089,-0.035,0.1782,0.025,0.0452,0.0257,2879,2019-08-07 16:20:37:462
3.7012,-8.9426,1.6023,-0.1089,-0.035,0.1782,0.0336,0.0569,0.0193,2883,2019-08-07 16:20:37:466
3.7012,-8.9426,1.6023,-0.1089,-0.035,0.1782,0.0336,0.0569,0.0193,2888,2019-08-07 16:20:37:471
3.7251,-8.9091,1.6542,-0.1468,-0.0209,0.1064,0.0474,0.0356,0.0108,2893,2019-08-07 16:20:37:476
3.7251,-8.9091,1.6542,-0.1468,-0.0209,0.1064,0.0474,0.0356,0.0108,2899,2019-08-07 16:20:37:482
3.7251,-8.9091,1.6542,-0.1468,-0.0209,0.1064,0.0474,0.0356,0.0108,2903,2019-08-07 16:20:37:486
3.792,-8.8137,1.6212,-0.1468,-0.0209,0.1064,0.0495,0.0334,0.0066,2908,2019-08-07 16:20:37:491
3.792,-8.8137,1.6212,-0.2006,-0.1864,0.1452,0.0495,0.0334,0.0066,2913,2019-08-07 16:20:37:496
3.7538,-8.6943,1.6306,-0.2006,-0.1864,0.1452,0.04,0.0239,-0.003,2918,2019-08-07 16:20:37:501
3.7538,-8.6943,1.6306,-0.2006,-0.1864,0.1452,0.04,0.0239,-0.003,2922,2019-08-07 16:20:37:505
3.792,-8.5702,1.6636,-0.2006,-0.1864,0.1452,0.0357,-0.0081,-9.0E-4,2928,2019-08-07 16:20:37:511
3.792,-8.5702,1.6636,-0.2415,-0.3798,0.0587,0.0357,-0.0081,-9.0E-4,2933,2019-08-07 16:20:37:516
3.792,-8.5702,1.6636,-0.2415,-0.3798,0.0587,0.0463,-0.0518,-0.0062,2938,2019-08-07 16:20:37:521
3.8686,-8.5607,1.7013,-0.2415,-0.3798,0.0587,0.0463,-0.0518,-0.0062,2943,2019-08-07 16:20:37:526
3.8686,-8.5607,1.7013,-0.2415,-0.3798,0.0587,0.0527,-0.0454,-0.0147,2948,2019-08-07 16:20:37:531
3.8686,-8.5607,1.7013,-0.2976,-0.486,-0.0208,0.0527,-0.0454,-0.0147,2953,2019-08-07 16:20:37:536
3.9403,-8.47,1.6777,-0.2976,-0.486,-0.0208,0.0527,-0.0454,-0.0147,2958,2019-08-07 16:20:37:541
3.9403,-8.47,1.6777,-0.2976,-0.486,-0.0208,0.0474,-0.0401,-0.0179,2963,2019-08-07 16:20:37:546
3.8016,-8.4509,1.6636,-0.2976,-0.486,-0.0208,0.0474,-0.0401,-0.0179,2968,2019-08-07 16:20:37:551
3.8016,-8.4509,1.6636,-0.222,-0.4195,0.1636,0.025,-0.0198,-0.0275,2973,2019-08-07 16:20:37:556
3.8016,-8.4509,1.6636,-0.222,-0.4195,0.1636,0.025,-0.0198,-0.0275,2978,2019-08-07 16:20:37:561
3.7633,-8.6514,1.6353,-0.1461,-0.2985,0.112,0.0027,-0.0102,-0.0318,2984,2019-08-07 16:20:37:567
3.7633,-8.6514,1.6353,-0.1461,-0.2985,0.112,0.0027,-0.0102,-0.0318,2988,2019-08-07 16:20:37:571
3.7107,-8.8328,1.706,-0.1461,-0.2985,0.112,-5.0E-4,-0.0156,-0.0456,2993,2019-08-07 16:20:37:576
3.7107,-8.8328,1.706,-0.1461,-0.2985,0.112,-5.0E-4,-0.0156,-0.0456,2998,2019-08-07 16:20:37:581
3.7107,-8.8328,1.706,-0.1371,-0.1136,-0.0304,-5.0E-4,-0.0156,-0.0456,3003,2019-08-07 16:20:37:586
3.7298,-8.8137,1.8616,-0.1371,-0.1136,-0.0304,0.0048,-0.0294,-0.0574,3008,2019-08-07 16:20:37:591
3.7298,-8.8137,1.8616,-0.1371,-0.1136,-0.0304,0.0048,-0.0294,-0.0574,3014,2019-08-07 16:20:37:597
3.7298,-8.8137,1.8616,-0.1371,-0.1136,-0.0304,0.0048,-0.0294,-0.0574,3018,2019-08-07 16:20:37:601
3.7824,-8.7468,1.6824,-0.2579,-0.2277,0.002,0.0091,-0.039,-0.0552,3023,2019-08-07 16:20:37:606
3.7824,-8.7468,1.6824,-0.2579,-0.2277,0.002,0.0091,-0.039,-0.0552,3028,2019-08-07 16:20:37:611
3.7824,-8.6227,1.706,-0.2579,-0.2277,0.002,0.0048,-0.0188,-0.0616,3033,2019-08-07 16:20:37:616
3.9116,-8.6227,1.706,-0.2579,-0.2277,0.002,0.0048,-0.0188,-0.0616,3038,2019-08-07 16:20:37:621
3.9116,-8.6227,1.706,-0.2388,-0.3413,-0.0738,-0.0058,-0.022,-0.0584,3042,2019-08-07 16:20:37:625
3.8589,-8.5893,1.7767,-0.2388,-0.3413,-0.0738,-0.0058,-0.022,-0.0584,3049,2019-08-07 16:20:37:632
3.8589,-8.5893,1.7767,-0.2388,-0.3413,-0.0738,-0.0112,-0.0539,-0.0542,3053,2019-08-07 16:20:37:636
3.8589,-8.5893,1.7767,-0.2388,-0.3413,-0.0738,-0.0112,-0.0539,-0.0542,3057,2019-08-07 16:20:37:640
3.8302,-8.723,1.8286,-0.168,-0.1743,-0.0639,-0.0112,-0.0539,-0.0542,3062,2019-08-07 16:20:37:645
3.8302,-8.723,1.8286,-0.168,-0.1743,-0.0639,-0.008,-0.0816,-0.0414,3068,2019-08-07 16:20:37:651
3.8685,-8.89,1.5457,-0.168,-0.1743,-0.0639,-0.008,-0.0816,-0.0414,3072,2019-08-07 16:20:37:655
3.8685,-8.89,1.5457,-0.168,-0.1743,-0.0639,-0.0144,-0.0933,-0.0478,3078,2019-08-07 16:20:37:661
3.8685,-8.89,1.5457,-0.2749,0.1107,0.1482,-0.0144,-0.0933,-0.0478,3082,2019-08-07 16:20:37:665
3.9642,-9.0953,1.5269,-0.2749,0.1107,0.1482,-0.0027,-0.1189,-0.0499,3088,2019-08-07 16:20:37:671
3.9642,-9.0953,1.5269,-0.2749,0.1107,0.1482,-0.0027,-0.1189,-0.0499,3094,2019-08-07 16:20:37:677
4.0072,-9.2099,1.5881,-0.2749,0.1107,0.1482,0.0208,-0.1306,-0.0403,3098,2019-08-07 16:20:37:681
4.0072,-9.2099,1.5881,-0.3377,0.2577,0.0679,0.0208,-0.1306,-0.0403,3102,2019-08-07 16:20:37:685
4.0072,-9.2099,1.5881,-0.3377,0.2577,0.0679,0.0581,-0.1423,-0.0307,3108,2019-08-07 16:20:37:691
4.1077,-9.1431,1.64,-0.4031,0.2125,0.1048,0.0581,-0.1423,-0.0307,3113,2019-08-07 16:20:37:696
4.1077,-9.1431,1.64,-0.4031,0.2125,0.1048,0.0858,-0.1295,-0.0201,3118,2019-08-07 16:20:37:701
4.1077,-9.1431,1.64,-0.4031,0.2125,0.1048,0.0858,-0.1295,-0.0201,3123,2019-08-07 16:20:37:706
4.2847,-8.8805,1.5881,-0.4031,0.2125,0.1048,0.0826,-0.0944,-0.0073,3128,2019-08-07 16:20:37:711
4.2847,-8.8805,1.5881,-0.5361,-0.1594,0.1424,0.0826,-0.0944,-0.0073,3132,2019-08-07 16:20:37:715
4.2847,-8.8805,1.5881,-0.5361,-0.1594,0.1424,0.0826,-0.0944,-0.0073,3138,2019-08-07 16:20:37:721
4.232,-8.7039,1.6589,-0.5361,-0.1594,0.1424,0.074,-0.0337,0.0076,3142,2019-08-07 16:20:37:725
4.232,-8.7039,1.6589,-0.5361,-0.1594,0.1424,0.074,-0.0337,0.0076,3149,2019-08-07 16:20:37:732
4.0455,-8.68,1.7437,-0.3326,-0.2328,-0.0076,0.057,0.0089,0.0289,3153,2019-08-07 16:20:37:736
4.0455,-8.68,1.7437,-0.3326,-0.2328,-0.0076,0.057,0.0089,0.0289,3158,2019-08-07 16:20:37:741
4.0455,-8.68,1.7437,-0.3326,-0.2328,-0.0076,0.04,0.0207,0.0492,3164,2019-08-07 16:20:37:747
3.8158,-8.7086,2.0642,-0.3326,-0.2328,-0.0076,0.04,0.0207,0.0492,3168,2019-08-07 16:20:37:751
3.8158,-8.7086,2.0642,-0.0296,-0.153,-0.4266,0.0208,-0.0102,0.0641,3172,2019-08-07 16:20:37:755
3.7392,-8.7611,2.1302,-0.0296,-0.153,-0.4266,0.0208,-0.0102,0.0641,3178,2019-08-07 16:20:37:761
3.7392,-8.7611,2.1302,-0.0296,-0.153,-0.4266,0.0016,-0.0592,0.0619,3183,2019-08-07 16:20:37:766
3.7392,-8.7611,2.1302,-0.0296,-0.153,-0.4266,0.0016,-0.0592,0.0619,3187,2019-08-07 16:20:37:770
3.7057,-8.6991,2.1255,-0.0236,-0.1901,-0.3571,-0.0186,-0.104,0.0524,3193,2019-08-07 16:20:37:776
3.7057,-8.6991,2.1255,-0.0236,-0.1901,-0.3571,-0.0186,-0.104,0.0524,3198,2019-08-07 16:20:37:781
3.6962,-8.6991,1.8615,-0.0236,-0.1901,-0.3571,-0.0431,-0.1359,0.0449,3203,2019-08-07 16:20:37:786
3.6962,-8.6991,1.8615,-0.0236,-0.1901,-0.3571,-0.0431,-0.1359,0.0449,3208,2019-08-07 16:20:37:791
3.6962,-8.6991,1.8615,-0.1696,-0.1753,-0.1006,-0.0687,-0.1402,0.0353,3213,2019-08-07 16:20:37:796
3.8493,-8.7659,1.7908,-0.1696,-0.1753,-0.1006,-0.0687,-0.1402,0.0353,3217,2019-08-07 16:20:37:800
3.8493,-8.7659,1.7908,-0.1696,-0.1753,-0.1006,-0.0783,-0.1136,0.03,3223,2019-08-07 16:20:37:806
3.8493,-8.7659,1.7908,-0.1696,-0.1753,-0.1006,-0.0783,-0.1136,0.03,3227,2019-08-07 16:20:37:810
3.9736,-8.7707,1.739,-0.327,-0.1791,-0.0272,-0.0676,-0.0592,0.0279,3233,2019-08-07 16:20:37:816
3.9736,-8.7707,1.739,-0.327,-0.1791,-0.0272,-0.0676,-0.0592,0.0279,3238,2019-08-07 16:20:37:821
4.055,-8.7182,1.739,-0.327,-0.1791,-0.0272,-0.0431,-0.0028,0.0236,3243,2019-08-07 16:20:37:826
4.055,-8.7182,1.739,-0.327,-0.1791,-0.0272,-0.0431,-0.0028,0.0236,3248,2019-08-07 16:20:37:831
4.055,-8.7182,1.739,-0.327,-0.1791,-0.0272,-0.0208,0.043,0.0215,3252,2019-08-07 16:20:37:835
4.0263,-8.6704,1.7625,-0.3332,-0.2573,-0.0619,-0.0208,0.043,0.0215,3259,2019-08-07 16:20:37:842
4.0263,-8.6704,1.7625,-0.3332,-0.2573,-0.0619,-0.0112,0.0697,0.0129,3264,2019-08-07 16:20:37:847
3.921,-8.6322,1.805,-0.3332,-0.2573,-0.0619,-0.0112,0.0697,0.0129,3267,2019-08-07 16:20:37:850
3.921,-8.6322,1.805,-0.3332,-0.2573,-0.0619,-0.0112,0.0707,0.0151,3273,2019-08-07 16:20:37:856
3.921,-8.6322,1.805,-0.0871,-0.2912,-0.0958,-0.0112,0.0707,0.0151,3278,2019-08-07 16:20:37:861
3.7775,-8.7086,1.7908,-0.0871,-0.2912,-0.0958,-0.0144,0.0622,0.0161,3282,2019-08-07 16:20:37:865
3.7775,-8.7086,1.7908,-0.0871,-0.2912,-0.0958,-0.0144,0.0622,0.0161,3288,2019-08-07 16:20:37:871
3.7487,-8.8232,1.8615,-0.0871,-0.2912,-0.0958,-0.0165,0.0441,0.014,3292,2019-08-07 16:20:37:875
3.7487,-8.8232,1.8615,-0.0192,-0.1252,-0.0792,-0.0165,0.0441,0.014,3298,2019-08-07 16:20:37:881
3.7487,-8.8232,1.8615,-0.0192,-0.1252,-0.0792,-0.025,-0.0145,0.0098,3303,2019-08-07 16:20:37:886
3.7152,-8.9043,1.6871,-0.0192,-0.1252,-0.0792,-0.025,-0.0145,0.0098,3308,2019-08-07 16:20:37:891
3.7152,-8.9043,1.6871,-0.0192,-0.1252,-0.0792,-0.0314,-0.0507,0.0023,3313,2019-08-07 16:20:37:896
3.7535,-8.9139,1.6635,-0.0247,-0.0501,0.0191,-0.0314,-0.0507,0.0023,3317,2019-08-07 16:20:37:900
3.7535,-8.9139,1.6635,-0.0247,-0.0501,0.0191,-0.0314,-0.0507,0.0023,3323,2019-08-07 16:20:37:906
3.7535,-8.9139,1.6635,-0.0247,-0.0501,0.0191,-0.0538,-0.1029,0.0161,3327,2019-08-07 16:20:37:910
3.897,-8.8948,1.5975,-0.0247,-0.0501,0.0191,-0.0538,-0.1029,0.0161,3333,2019-08-07 16:20:37:916
3.897,-8.8948,1.5975,-0.281,-0.0047,0.0731,-0.0527,-0.1317,0.0268,3338,2019-08-07 16:20:37:921
4.098,-8.976,1.5316,-0.281,-0.0047,0.0731,-0.0527,-0.1317,0.0268,3343,2019-08-07 16:20:37:926
4.098,-8.976,1.5316,-0.281,-0.0047,0.0731,-0.0463,-0.1178,0.0374,3348,2019-08-07 16:20:37:931
4.098,-8.976,1.5316,-0.281,-0.0047,0.0731,-0.0463,-0.1178,0.0374,3353,2019-08-07 16:20:37:936
4.208,-8.9425,1.5834,-0.5197,0.0063,0.0829,-0.0453,-0.0912,0.0481,3357,2019-08-07 16:20:37:940
4.208,-8.9425,1.5834,-0.5197,0.0063,0.0829,-0.0453,-0.0912,0.0481,3363,2019-08-07 16:20:37:946
4.2223,-8.8853,1.5221,-0.5197,0.0063,0.0829,-0.0367,-0.0592,0.063,3368,2019-08-07 16:20:37:951
4.2223,-8.8853,1.5221,-0.5197,0.0063,0.0829,-0.0367,-0.0592,0.063,3373,2019-08-07 16:20:37:956
4.2223,-8.8853,1.5221,-0.5388,-0.0362,0.0794,-0.0346,-0.0124,0.0737,3378,2019-08-07 16:20:37:961
4.1841,-8.8996,1.6211,-0.5388,-0.0362,0.0794,-0.0346,-0.0124,0.0737,3383,2019-08-07 16:20:37:966
4.1841,-8.8996,1.6211,-0.5388,-0.0362,0.0794,-0.0367,0.0366,0.0801,3388,2019-08-07 16:20:37:971
4.1841,-8.8996,1.6211,-0.5388,-0.0362,0.0794,-0.0367,0.0366,0.0801,3393,2019-08-07 16:20:37:976
4.0166,-8.8757,1.6352,-0.3066,-0.0612,-0.039,-0.0367,0.0366,0.0801,3398,2019-08-07 16:20:37:981
4.0166,-8.8757,1.6352,-0.3066,-0.0612,-0.039,-0.0399,0.0633,0.0843,3403,2019-08-07 16:20:37:986
4.0166,-8.8757,1.6352,-0.3066,-0.0612,-0.039,-0.0399,0.0633,0.0843,3408,2019-08-07 16:20:37:991
3.7726,-8.8709,1.7861,-0.3066,-0.0612,-0.039,-0.0389,0.0633,0.0811,3413,2019-08-07 16:20:37:996
3.7726,-8.8709,1.7861,0.0314,-0.1015,-0.1353,-0.0389,0.0633,0.0811,3418,2019-08-07 16:20:38:001
3.5908,-8.8709,1.7861,0.0314,-0.1015,-0.1353,-0.0335,0.0366,0.0726,3423,2019-08-07 16:20:38:006
3.5908,-8.8709,1.7861,0.0314,-0.1015,-0.1353,-0.0335,0.0366,0.0726,3428,2019-08-07 16:20:38:011
3.5908,-8.8709,1.7861,0.0314,-0.1015,-0.1353,-0.0303,-0.0166,0.0673,3433,2019-08-07 16:20:38:016
3.5716,-8.8709,1.7908,0.0997,-0.1124,-0.1583,-0.0303,-0.0166,0.0673,3437,2019-08-07 16:20:38:020
3.5716,-8.8709,1.7908,0.0997,-0.1124,-0.1583,-0.0261,-0.0795,0.0513,3443,2019-08-07 16:20:38:026
3.6434,-8.8662,1.8049,0.0997,-0.1124,-0.1583,-0.0261,-0.0795,0.0513,3447,2019-08-07 16:20:38:030
3.6434,-8.8662,1.8049,0.0997,-0.1124,-0.1583,-0.0112,-0.1146,0.0332,3453,2019-08-07 16:20:38:036
3.6434,-8.8662,1.8049,-0.186,-0.1155,-0.111,-0.0027,-0.12,0.0225,3458,2019-08-07 16:20:38:041
3.8682,-8.8518,1.7767,-0.186,-0.1155,-0.111,-0.0027,-0.12,0.0225,3463,2019-08-07 16:20:38:046
3.8682,-8.8518,1.7767,-0.186,-0.1155,-0.111,-0.0027,-0.12,0.0225,3468,2019-08-07 16:20:38:051
3.8682,-8.8518,1.7767,-0.186,-0.1155,-0.111,0.0069,-0.0848,0.0087,3473,2019-08-07 16:20:38:056
4.1122,-8.8327,1.6447,-0.5397,-0.1342,0.0147,0.0069,-0.0848,0.0087,3478,2019-08-07 16:20:38:061
4.1122,-8.8327,1.6447,-0.5397,-0.1342,0.0147,0.0101,-0.0113,-0.003,3482,2019-08-07 16:20:38:065
4.1829,-8.8708,1.6162,-0.5397,-0.1342,0.0147,0.0101,-0.0113,-0.003,3488,2019-08-07 16:20:38:071
4.1829,-8.8708,1.6162,-0.5397,-0.1342,0.0147,0.0069,0.0579,-0.003,3492,2019-08-07 16:20:38:075
4.0011,-8.8517,1.6114,-0.3543,-0.1084,0.0173,0.0069,0.0579,-0.003,3498,2019-08-07 16:20:38:081
4.0011,-8.8517,1.6114,-0.3543,-0.1084,0.0173,0.008,0.0856,-9.0E-4,3502,2019-08-07 16:20:38:085
4.0011,-8.8517,1.6114,-0.3543,-0.1084,0.0173,0.008,0.0856,-9.0E-4,3508,2019-08-07 16:20:38:091
3.8145,-8.9233,1.6869,-0.3543,-0.1084,0.0173,0.0187,0.0782,-0.003,3514,2019-08-07 16:20:38:097
3.8145,-8.9233,1.6869,-0.0539,-0.0453,-0.0309,0.0187,0.0782,-0.003,3517,2019-08-07 16:20:38:100
3.6231,-8.8756,1.6727,-0.0539,-0.0453,-0.0309,0.0261,0.0452,-0.0094,3523,2019-08-07 16:20:38:106
3.6231,-8.8756,1.6727,-0.0539,-0.0453,-0.0309,0.0261,0.0452,-0.0094,3529,2019-08-07 16:20:38:112
3.6231,-8.8756,1.6727,-0.0539,-0.0453,-0.0309,0.0261,0.0452,-0.0094,3533,2019-08-07 16:20:38:116
3.5848,-8.8613,1.7057,0.0197,-0.1434,-0.0656,0.0346,-0.0294,-0.018,3538,2019-08-07 16:20:38:121
3.5848,-8.8613,1.7057,0.0197,-0.1434,-0.0656,0.0346,-0.0294,-0.018,3543,2019-08-07 16:20:38:126
3.7522,-8.718,1.5973,0.0197,-0.1434,-0.0656,0.0325,-0.0816,-0.0212,3548,2019-08-07 16:20:38:131
3.7522,-8.718,1.5973,0.0197,-0.1434,-0.0656,0.0325,-0.0816,-0.0212,3553,2019-08-07 16:20:38:136
3.7522,-8.718,1.5973,-0.1542,-0.2357,0.0853,0.0325,-0.1104,-0.0243,3558,2019-08-07 16:20:38:141
3.8192,-8.7085,1.5784,-0.1542,-0.2357,0.0853,0.0325,-0.1104,-0.0243,3563,2019-08-07 16:20:38:146
3.8192,-8.7085,1.5784,-0.1542,-0.2357,0.0853,0.0314,-0.1093,-0.0233,3567,2019-08-07 16:20:38:150
3.8192,-8.7085,1.5784,-0.1542,-0.2357,0.0853,0.0314,-0.1093,-0.0233,3573,2019-08-07 16:20:38:156
3.8766,-8.7562,1.569,-0.2738,-0.1319,0.0357,0.0304,-0.0912,-0.0201,3580,2019-08-07 16:20:38:163
3.8766,-8.7562,1.569,-0.2738,-0.1319,0.0357,0.0304,-0.0912,-0.0201,3582,2019-08-07 16:20:38:165
3.8766,-8.7562,1.569,-0.2738,-0.1319,0.0357,0.024,-0.0752,-0.0201,3587,2019-08-07 16:20:38:170
3.9483,-8.8899,1.5501,-0.2738,-0.1319,0.0357,0.024,-0.0752,-0.0201,3593,2019-08-07 16:20:38:176
3.9483,-8.8899,1.5501,-0.2274,-0.043,0.0625,0.025,-0.056,-0.0212,3597,2019-08-07 16:20:38:180
3.9004,-8.9329,1.635,-0.2274,-0.043,0.0625,0.025,-0.056,-0.0212,3603,2019-08-07 16:20:38:186
3.9004,-8.9329,1.635,-0.2274,-0.043,0.0625,0.0432,-0.0347,-0.0233,3609,2019-08-07 16:20:38:192
3.8765,-8.9663,1.5973,-0.2274,-0.043,0.0625,0.0432,-0.0347,-0.0233,3613,2019-08-07 16:20:38:196
3.8765,-8.9663,1.5973,-0.2274,-0.043,0.0625,0.0432,-0.0347,-0.0233,3617,2019-08-07 16:20:38:200
3.8765,-8.9663,1.5973,-0.1208,-0.0111,0.0476,0.0581,-0.0198,-0.0137,3623,2019-08-07 16:20:38:206
3.8047,-8.9281,1.6208,-0.1208,-0.0111,0.0476,0.0581,-0.0198,-0.0137,3628,2019-08-07 16:20:38:211
3.8047,-8.9281,1.6208,-0.1208,-0.0111,0.0476,0.073,-0.0038,-0.0084,3632,2019-08-07 16:20:38:215
3.8047,-8.9281,1.6208,-0.1208,-0.0111,0.0476,0.073,-0.0038,-0.0084,3638,2019-08-07 16:20:38:221
3.7664,-8.8612,1.7575,-0.0842,-0.0793,-0.101,0.0783,-0.0028,-0.0094,3643,2019-08-07 16:20:38:226
3.7664,-8.8612,1.7575,-0.0842,-0.0793,-0.101,0.0783,-0.0028,-0.0094,3648,2019-08-07 16:20:38:231
3.8477,-8.8231,1.7999,-0.0842,-0.0793,-0.101,0.0783,-0.0028,-0.0094,3652,2019-08-07 16:20:38:235
3.8477,-8.8231,1.7999,-0.0842,-0.0793,-0.101,0.0634,-0.0028,-0.019,3658,2019-08-07 16:20:38:241
3.7712,-8.7132,1.8801,-0.1618,-0.1803,-0.1392,0.0517,0.0036,-0.0275,3663,2019-08-07 16:20:38:246
3.7712,-8.7132,1.8801,-0.1618,-0.1803,-0.1392,0.0517,0.0036,-0.0275,3668,2019-08-07 16:20:38:251
3.7712,-8.7132,1.8801,-0.1618,-0.1803,-0.1392,0.0517,0.0036,-0.0275,3672,2019-08-07 16:20:38:255
3.7472,-8.7419,1.9178,-0.1618,-0.1803,-0.1392,0.024,-0.0134,-0.0329,3678,2019-08-07 16:20:38:261
3.7472,-8.7419,1.9178,-0.069,-0.1616,-0.2202,0.024,-0.0134,-0.0329,3682,2019-08-07 16:20:38:265
3.7472,-8.7419,1.9178,-0.069,-0.1616,-0.2202,0.008,-0.039,-0.0297,3688,2019-08-07 16:20:38:271
3.7759,-8.7753,1.8706,-0.0797,-0.1553,-0.1916,0.008,-0.039,-0.0297,3692,2019-08-07 16:20:38:275
3.7759,-8.7753,1.8706,-0.0797,-0.1553,-0.1916,0.0027,-0.0465,-0.0286,3699,2019-08-07 16:20:38:282
3.7759,-8.7753,1.8706,-0.0797,-0.1553,-0.1916,0.0027,-0.0465,-0.0286,3702,2019-08-07 16:20:38:285
3.8189,-8.7849,1.9178,-0.0797,-0.1553,-0.1916,0.0112,-0.0795,-0.0148,3708,2019-08-07 16:20:38:291
3.8189,-8.7849,1.9178,-0.1679,-0.1431,-0.1892,0.0112,-0.0795,-0.0148,3713,2019-08-07 16:20:38:296
3.9002,-8.7514,1.8282,-0.1679,-0.1431,-0.1892,0.0219,-0.0848,-0.0105,3717,2019-08-07 16:20:38:300
3.9002,-8.7514,1.8282,-0.1679,-0.1431,-0.1892,0.0219,-0.0848,-0.0105,3723,2019-08-07 16:20:38:306
3.9002,-8.7514,1.8282,-0.1679,-0.1431,-0.1892,0.0282,-0.0848,-0.019,3727,2019-08-07 16:20:38:310
3.9385,-8.6321,1.7622,-0.2276,-0.2931,-0.087,0.0282,-0.0848,-0.019,3733,2019-08-07 16:20:38:316
3.9385,-8.6321,1.7622,-0.2276,-0.2931,-0.087,0.0219,-0.0773,-0.0233,3737,2019-08-07 16:20:38:320
4.0198,-8.5939,1.7198,-0.2276,-0.2931,-0.087,0.0219,-0.0773,-0.0233,3743,2019-08-07 16:20:38:326
4.0198,-8.5939,1.7198,-0.2276,-0.2931,-0.087,0.0048,-0.0614,-0.0254,3748,2019-08-07 16:20:38:331
4.0198,-8.5939,1.7198,-0.3231,-0.2607,0.048,0.0048,-0.0614,-0.0254,3753,2019-08-07 16:20:38:336
4.0054,-8.7323,1.6396,-0.3231,-0.2607,0.048,0.0048,-0.0614,-0.0254,3757,2019-08-07 16:20:38:340
4.0054,-8.7323,1.6396,-0.3231,-0.2607,0.048,-0.0144,-0.0411,-0.0393,3763,2019-08-07 16:20:38:346
3.9911,-8.8469,1.6632,-0.3231,-0.2607,0.048,-0.024,-0.0188,-0.0425,3768,2019-08-07 16:20:38:351
3.9911,-8.8469,1.6632,-0.2074,-0.014,0.0139,-0.024,-0.0188,-0.0425,3773,2019-08-07 16:20:38:356
3.9911,-8.8469,1.6632,-0.2074,-0.014,0.0139,-0.024,-0.0188,-0.0425,3778,2019-08-07 16:20:38:361
3.771,-8.9519,1.5076,-0.2074,-0.014,0.0139,-0.0293,-0.0081,-0.0339,3783,2019-08-07 16:20:38:366
3.771,-8.9519,1.5076,-0.2074,-0.014,0.0139,-0.0293,-0.0081,-0.0339,3788,2019-08-07 16:20:38:371
3.771,-8.9519,1.5076,0.4708,-0.009,0.0623,-0.1369,-0.2659,-0.0169,3793,2019-08-07 16:20:38:376
3.2638,-8.971,1.7527,0.4708,-0.009,0.0623,-0.1369,-0.2659,-0.0169,3798,2019-08-07 16:20:38:381
3.2638,-8.971,1.7527,0.4708,-0.009,0.0623,-0.1369,-0.2659,-0.0169,3803,2019-08-07 16:20:38:386
3.7566,-9.1715,2.0686,0.4708,-0.009,0.0623,-0.0602,-0.2691,-0.0158,3808,2019-08-07 16:20:38:391
3.7566,-9.1715,2.0686,-0.0027,0.2085,-0.4047,0.0155,-0.3639,-0.0275,3814,2019-08-07 16:20:38:397
3.7566,-9.1715,2.0686,-0.0027,0.2085,-0.4047,0.0155,-0.3639,-0.0275,3818,2019-08-07 16:20:38:401
3.991,-8.8851,1.583,-0.0027,0.2085,-0.4047,0.0155,-0.3639,-0.0275,3823,2019-08-07 16:20:38:406
3.991,-8.8851,1.583,-0.0027,0.2085,-0.4047,0.0442,-0.3831,-0.0212,3828,2019-08-07 16:20:38:411
4.4598,-8.6989,1.3945,-0.6251,-0.1935,0.1809,0.0442,-0.3831,-0.0212,3833,2019-08-07 16:20:38:416
4.4598,-8.6989,1.3945,-0.6251,-0.1935,0.1809,0.0613,-0.2542,-0.0243,3838,2019-08-07 16:20:38:421
4.4598,-8.6989,1.3945,-0.6251,-0.1935,0.1809,0.0613,-0.2542,-0.0243,3843,2019-08-07 16:20:38:426
5.1391,-8.5891,1.4982,-0.6251,-0.1935,0.1809,0.0986,-6.0E-4,-0.0318,3847,2019-08-07 16:20:38:430
5.1391,-8.5891,1.4982,-1.6066,-0.3096,0.3183,0.0986,-6.0E-4,-0.0318,3853,2019-08-07 16:20:38:436
5.1391,-8.5891,1.4982,-1.6066,-0.3096,0.3183,0.073,0.2167,-0.0574,3857,2019-08-07 16:20:38:440
4.8042,-8.4984,1.0221,-1.6066,-0.3096,0.3183,0.073,0.2167,-0.0574,3864,2019-08-07 16:20:38:447
4.8042,-8.4984,1.0221,-1.6066,-0.3096,0.3183,0.073,0.2167,-0.0574,3867,2019-08-07 16:20:38:450
4.0196,-8.7323,1.4699,-0.23,-0.1709,0.1451,-0.0506,0.3253,0.0247,3873,2019-08-07 16:20:38:456
4.0196,-8.7323,1.4699,-0.23,-0.1709,0.1451,-0.0506,0.3253,0.0247,3877,2019-08-07 16:20:38:460
4.0196,-8.7323,1.4699,-0.23,-0.1709,0.1451,-0.057,0.3978,0.0523,3883,2019-08-07 16:20:38:466
3.7373,-9.1142,2.0308,-0.23,-0.1709,0.1451,-0.057,0.3978,0.0523,3887,2019-08-07 16:20:38:470