ACCELEROMETER X (m/s²),ACCELEROMETER Y (m/s²),ACCELEROMETER Z (m/s²),LINEAR ACCELERATION X (m/s²),LINEAR ACCELERATION Y (m/s²),LINEAR ACCELERATION Z (m/s²),GYROSCOPE X (rad/s),GYROSCOPE Y (rad/s),GYROSCOPE Z (rad/s),Time since start in ms ,YYYY-MO-DD HH-MI-SS_SSS
3.8293,-8.8136,1.9556,-0.3632,-0.1211,0.0571,5.0E-4,0.0036,0.0108,4,2019-08-07 16:20:56:192
3.7863,-8.8518,1.9132,-0.3691,-0.1109,0.1436,5.0E-4,0.0036,0.0108,8,2019-08-07 16:20:56:196
3.7863,-8.8518,1.9132,-0.3691,-0.1109,0.1436,0.0091,0.0729,0.0161,14,2019-08-07 16:20:56:202
3.6044,-8.909,2.0075,-0.3691,-0.1109,0.1436,0.0091,0.0729,0.0161,19,2019-08-07 16:20:56:207
3.6044,-8.909,2.0075,-0.3691,-0.1109,0.1436,0.0059,0.1048,0.0225,24,2019-08-07 16:20:56:212
3.4609,-8.89,2.0122,-0.077,-0.0683,0.0834,0.0059,0.1048,0.0225,29,2019-08-07 16:20:56:217
3.4609,-8.89,2.0122,-0.077,-0.0683,0.0834,0.0037,0.1069,0.0193,33,2019-08-07 16:20:56:221
3.4609,-8.89,2.0122,-0.077,-0.0683,0.0834,0.0037,0.1069,0.0193,39,2019-08-07 16:20:56:227
3.2647,-8.9138,2.1913,-0.077,-0.0683,0.0834,0.008,0.0888,0.0119,43,2019-08-07 16:20:56:231
3.2647,-8.9138,2.1913,0.2071,-0.0788,-0.0729,0.008,0.0888,0.0119,49,2019-08-07 16:20:56:237
3.2647,-8.9138,2.1913,0.2071,-0.0788,-0.0729,0.0027,0.0526,0.0012,53,2019-08-07 16:20:56:241
3.1164,-8.9043,2.1913,0.2071,-0.0788,-0.0729,0.0027,0.0526,0.0012,59,2019-08-07 16:20:56:247
3.1164,-8.9043,2.1913,0.2071,-0.0788,-0.0729,-0.0037,0.0036,-0.0126,64,2019-08-07 16:20:56:252
3.1834,-8.8709,2.2243,0.2564,-0.1411,-0.1531,-0.0037,0.0036,-0.0126,69,2019-08-07 16:20:56:257
3.1834,-8.8709,2.2243,0.2564,-0.1411,-0.1531,-0.0037,0.0036,-0.0126,74,2019-08-07 16:20:56:262
3.1834,-8.8709,2.2243,0.2564,-0.1411,-0.1531,-0.0165,-0.0667,-0.0254,78,2019-08-07 16:20:56:266
3.3748,-8.8613,2.0593,0.2564,-0.1411,-0.1531,-0.0165,-0.0667,-0.0254,84,2019-08-07 16:20:56:272
3.3748,-8.8613,2.0593,-0.0773,-0.1735,-0.0219,-0.0208,-0.0741,-0.0329,88,2019-08-07 16:20:56:276
3.5805,-8.7802,1.9886,-0.0773,-0.1735,-0.0219,-0.0208,-0.0741,-0.0329,94,2019-08-07 16:20:56:282
3.5805,-8.7802,1.9886,-0.0773,-0.1735,-0.0219,-0.0186,-0.0624,-0.0297,99,2019-08-07 16:20:56:287
3.5805,-8.7802,1.9886,-0.0773,-0.1735,-0.0219,-0.0186,-0.0624,-0.0297,104,2019-08-07 16:20:56:292
3.7527,-8.7563,1.9132,-0.3349,-0.2049,0.1488,-0.0133,-0.039,-0.0265,109,2019-08-07 16:20:56:297
3.7527,-8.7563,1.9132,-0.3349,-0.2049,0.1488,-0.0133,-0.039,-0.0265,114,2019-08-07 16:20:56:302
3.7048,-8.7611,1.9745,-0.3349,-0.2049,0.1488,-0.0122,-0.007,-0.019,119,2019-08-07 16:20:56:307
3.7048,-8.7611,1.9745,-0.3349,-0.2049,0.1488,-0.0122,-0.007,-0.019,124,2019-08-07 16:20:56:312
3.7048,-8.7611,1.9745,-0.2472,-0.2032,0.1123,-0.0133,0.0164,-0.003,129,2019-08-07 16:20:56:317
3.6333,-8.804,1.8661,-0.2472,-0.2032,0.1123,-0.0133,0.0164,-0.003,133,2019-08-07 16:20:56:321
3.6333,-8.804,1.8661,-0.2472,-0.2032,0.1123,-0.0186,0.0313,0.0076,139,2019-08-07 16:20:56:327
3.6333,-8.804,1.8661,-0.2472,-0.2032,0.1123,-0.0186,0.0313,0.0076,144,2019-08-07 16:20:56:332
3.595,-8.8947,1.9415,-0.0896,-0.0796,0.0917,-0.0186,0.0313,0.0076,148,2019-08-07 16:20:56:336
3.595,-8.8947,1.9415,-0.0896,-0.0796,0.0917,-0.0048,0.0462,0.0023,154,2019-08-07 16:20:56:342
3.3319,-8.9186,2.017,0.0913,-0.0415,0.0406,-0.0048,0.0462,0.0023,159,2019-08-07 16:20:56:347
3.3319,-8.9186,2.017,0.0913,-0.0415,0.0406,-0.0027,0.0302,0.0034,163,2019-08-07 16:20:56:351
3.3319,-8.9186,2.017,0.0913,-0.0415,0.0406,-0.0027,0.0302,0.0034,169,2019-08-07 16:20:56:357
3.2984,-8.9234,2.0405,0.0913,-0.0415,0.0406,-5.0E-4,0.0057,-0.003,173,2019-08-07 16:20:56:361
3.2984,-8.9234,2.0405,0.1185,-0.0419,0.037,-5.0E-4,0.0057,-0.003,179,2019-08-07 16:20:56:367
3.2984,-8.9234,2.0405,0.1185,-0.0419,0.037,-5.0E-4,-0.006,-0.0211,184,2019-08-07 16:20:56:372
3.2553,-8.8709,2.1442,0.1185,-0.0419,0.037,-5.0E-4,-0.006,-0.0211,189,2019-08-07 16:20:56:377
3.2553,-8.8709,2.1442,0.1185,-0.0419,0.037,5.0E-4,-0.0443,-0.0318,193,2019-08-07 16:20:56:381
3.3175,-8.8709,2.0405,0.0562,-0.0451,0.0311,5.0E-4,-0.0443,-0.0318,199,2019-08-07 16:20:56:387
3.3175,-8.8709,2.0405,0.0562,-0.0451,0.0311,-0.0016,-0.0528,-0.0339,203,2019-08-07 16:20:56:391
3.528,-8.8661,2.1065,0.0562,-0.0451,0.0311,-0.0016,-0.0528,-0.0339,209,2019-08-07 16:20:56:397
3.528,-8.8661,2.1065,0.0562,-0.0451,0.0311,-0.0048,-0.0624,-0.035,214,2019-08-07 16:20:56:402
3.528,-8.8661,2.1065,-0.1974,-0.1569,-0.0198,-0.0048,-0.0624,-0.035,219,2019-08-07 16:20:56:407
3.6476,-8.7802,2.0547,-0.1974,-0.1569,-0.0198,-0.0048,-0.0624,-0.035,224,2019-08-07 16:20:56:412
3.6476,-8.7802,2.0547,-0.1974,-0.1569,-0.0198,-0.0048,-0.0422,-0.0286,228,2019-08-07 16:20:56:416
3.7337,-8.7563,2.0971,-0.1974,-0.1569,-0.0198,-0.0048,-0.0422,-0.0286,234,2019-08-07 16:20:56:422
3.7337,-8.7563,2.0971,-0.2741,-0.2639,0.005,-0.008,-0.0283,-0.0222,238,2019-08-07 16:20:56:426
3.7337,-8.7563,2.0971,-0.2741,-0.2639,0.005,-0.008,-0.0283,-0.0222,244,2019-08-07 16:20:56:432
3.7768,-8.7849,2.0688,-0.2741,-0.2639,0.005,-0.0218,-0.0124,-0.0148,249,2019-08-07 16:20:56:437
3.7768,-8.7849,2.0688,-0.2741,-0.2639,0.005,-0.0218,-0.0124,-0.0148,253,2019-08-07 16:20:56:441
3.6859,-8.8518,2.0641,-0.2353,-0.1005,-0.0182,-0.0325,0.01,-0.0084,259,2019-08-07 16:20:56:447
3.6859,-8.8518,2.0641,-0.2353,-0.1005,-0.0182,-0.0325,0.01,-0.0084,265,2019-08-07 16:20:56:453
3.6859,-8.8518,2.0641,-0.2353,-0.1005,-0.0182,-0.0325,0.01,-0.0084,268,2019-08-07 16:20:56:456
3.6428,-8.9425,1.9887,-0.2353,-0.1005,-0.0182,-0.025,0.0249,-0.003,274,2019-08-07 16:20:56:462
3.6428,-8.9425,1.9887,-0.1715,0.0184,0.0153,-0.025,0.0249,-0.003,279,2019-08-07 16:20:56:467
3.5137,-8.9854,2.1018,-0.1715,0.0184,0.0153,-0.0186,0.0377,-0.0116,284,2019-08-07 16:20:56:472
3.5137,-8.9854,2.1018,-0.1715,0.0184,0.0153,-0.0186,0.0377,-0.0116,289,2019-08-07 16:20:56:477
3.5137,-8.9854,2.1018,-0.1715,0.0184,0.0153,-0.009,0.0452,-0.0179,294,2019-08-07 16:20:56:482
3.4514,-8.9186,2.1018,0.0451,-0.0286,-0.0594,-0.009,0.0452,-0.0179,299,2019-08-07 16:20:56:487
3.4514,-8.9186,2.1018,0.0451,-0.0286,-0.0594,-0.0016,0.0473,-0.0211,304,2019-08-07 16:20:56:492
3.3749,-8.9043,2.1206,0.0451,-0.0286,-0.0594,-0.0016,0.0473,-0.0211,310,2019-08-07 16:20:56:498
3.3749,-8.9043,2.1206,0.0451,-0.0286,-0.0594,-0.0016,0.0452,-0.0329,314,2019-08-07 16:20:56:502
3.3749,-8.9043,2.1206,0.0451,-0.0286,-0.0594,-0.0016,0.0452,-0.0329,318,2019-08-07 16:20:56:506
3.3797,-8.89,2.1584,0.1101,-0.0888,-0.0604,-0.0037,0.0292,-0.0414,324,2019-08-07 16:20:56:512
3.3797,-8.89,2.1584,0.1101,-0.0888,-0.0604,-0.0037,0.0292,-0.0414,328,2019-08-07 16:20:56:516
3.4323,-8.7945,2.1819,0.1101,-0.0888,-0.0604,5.0E-4,0.0143,-0.0531,334,2019-08-07 16:20:56:522
3.4323,-8.7945,2.1819,0.1101,-0.0888,-0.0604,5.0E-4,0.0143,-0.0531,338,2019-08-07 16:20:56:526
3.4323,-8.7945,2.1819,0.008,-0.0947,-0.1333,-5.0E-4,0.0025,-0.0616,344,2019-08-07 16:20:56:532
3.5041,-8.8088,2.0358,0.008,-0.0947,-0.1333,-5.0E-4,0.0025,-0.0616,349,2019-08-07 16:20:56:537
3.5041,-8.8088,2.0358,0.008,-0.0947,-0.1333,-5.0E-4,0.0025,-0.0616,354,2019-08-07 16:20:56:542
3.5041,-8.8088,2.0358,0.008,-0.0947,-0.1333,-0.0144,-0.0209,-0.0574,359,2019-08-07 16:20:56:547
3.6093,-8.7467,2.0499,-0.1333,-0.1955,-0.003,-0.0229,-0.0198,-0.0478,365,2019-08-07 16:20:56:553
3.6093,-8.7467,2.0499,-0.1333,-0.1955,-0.003,-0.0229,-0.0198,-0.0478,368,2019-08-07 16:20:56:556
3.7193,-8.8422,1.9462,-0.1333,-0.1955,-0.003,-0.0229,-0.0198,-0.0478,374,2019-08-07 16:20:56:562
3.7193,-8.8422,1.9462,-0.1333,-0.1955,-0.003,-0.0293,-0.0177,-0.0414,379,2019-08-07 16:20:56:567
3.7193,-8.8422,1.9462,-0.2325,-0.0591,0.1271,-0.0293,-0.0177,-0.0414,384,2019-08-07 16:20:56:572
3.7385,-8.9472,1.9085,-0.2325,-0.0591,0.1271,-0.024,0.0047,-0.035,389,2019-08-07 16:20:56:577
3.7385,-8.9472,1.9085,-0.2325,-0.0591,0.1271,-0.024,0.0047,-0.035,394,2019-08-07 16:20:56:582
3.6858,-8.9186,1.8661,-0.2325,-0.0591,0.1271,-0.0144,0.0228,-0.0318,399,2019-08-07 16:20:56:587
3.6858,-8.9186,1.8661,-0.1769,-0.0333,0.1788,-0.0144,0.0228,-0.0318,404,2019-08-07 16:20:56:592
3.5901,-8.8947,1.9274,-0.1769,-0.0333,0.1788,-0.009,0.0313,-0.0201,409,2019-08-07 16:20:56:597
3.5901,-8.8947,1.9274,-0.1769,-0.0333,0.1788,-0.009,0.0313,-0.0201,414,2019-08-07 16:20:56:602
3.5901,-8.8947,1.9274,-0.1769,-0.0333,0.1788,-0.0048,0.0324,-0.0201,419,2019-08-07 16:20:56:607
3.5184,-8.8852,2.0499,-0.0201,-0.051,-0.0147,-0.0048,0.0324,-0.0201,424,2019-08-07 16:20:56:612
3.5184,-8.8852,2.0499,-0.0201,-0.051,-0.0147,0.0016,0.0239,-0.0265,430,2019-08-07 16:20:56:618
3.504,-8.7611,2.0405,-0.0201,-0.051,-0.0147,0.0016,0.0239,-0.0265,434,2019-08-07 16:20:56:622
3.504,-8.7611,2.0405,-0.0201,-0.051,-0.0147,0.0016,0.0239,-0.0265,439,2019-08-07 16:20:56:627
3.5136,-8.7324,1.9934,-0.0062,-0.173,0.0296,-0.0048,0.0271,-0.0307,444,2019-08-07 16:20:56:632
3.5136,-8.7324,1.9934,-0.0062,-0.173,0.0296,-0.0048,0.0271,-0.0307,448,2019-08-07 16:20:56:636
3.5136,-8.7324,1.9934,-0.0062,-0.173,0.0296,-0.0208,0.0334,-0.0329,454,2019-08-07 16:20:56:642
3.504,-8.7133,1.9934,-0.0062,-0.173,0.0296,-0.0208,0.0334,-0.0329,459,2019-08-07 16:20:56:647
3.504,-8.7133,1.9934,0.0376,-0.1853,-0.0464,-0.0314,0.0302,-0.035,464,2019-08-07 16:20:56:652
3.4514,-8.7706,2.1489,0.0376,-0.1853,-0.0464,-0.0314,0.0302,-0.035,469,2019-08-07 16:20:56:657
3.4514,-8.7706,2.1489,0.0376,-0.1853,-0.0464,-0.0314,0.0302,-0.035,473,2019-08-07 16:20:56:661
3.4514,-8.7706,2.1489,0.0376,-0.1853,-0.0464,-0.0495,0.0036,-0.0382,479,2019-08-07 16:20:56:667
3.5184,-8.847,2.0452,-0.0037,-0.0839,-0.0149,-0.0548,-0.0124,-0.0446,484,2019-08-07 16:20:56:672
3.5184,-8.847,2.0452,-0.0037,-0.0839,-0.0149,-0.0548,-0.0124,-0.0446,488,2019-08-07 16:20:56:676
3.5423,-8.8804,1.9321,-0.0037,-0.0839,-0.0149,-0.0548,-0.0124,-0.0446,494,2019-08-07 16:20:56:682
3.5423,-8.8804,1.9321,-0.0037,-0.0839,-0.0149,-0.0548,-0.0251,-0.0467,499,2019-08-07 16:20:56:687
3.5423,-8.8804,1.9321,-0.047,0.0268,0.1614,-0.0548,-0.0251,-0.0467,504,2019-08-07 16:20:56:692
3.5901,-8.9616,1.8425,-0.047,0.0268,0.1614,-0.0474,-0.023,-0.0403,509,2019-08-07 16:20:56:697
3.5901,-8.9616,1.8425,-0.0807,0.0273,0.0613,-0.0474,-0.023,-0.0403,514,2019-08-07 16:20:56:702
3.5901,-8.9616,1.8425,-0.0807,0.0273,0.0613,-0.0474,-0.023,-0.0403,518,2019-08-07 16:20:56:706
3.5566,-8.952,1.9085,-0.0807,0.0273,0.0613,-0.0272,-0.0081,-0.0435,524,2019-08-07 16:20:56:712
3.5566,-8.952,1.9085,-0.0807,0.0273,0.0613,-0.0272,-0.0081,-0.0435,529,2019-08-07 16:20:56:717
3.5566,-8.952,1.9085,0.0136,-0.028,0.0464,-0.008,0.01,-0.0478,533,2019-08-07 16:20:56:721
3.5279,-8.8852,2.0358,0.0136,-0.028,0.0464,-0.008,0.01,-0.0478,539,2019-08-07 16:20:56:727
3.5279,-8.8852,2.0358,0.0136,-0.028,0.0464,0.0133,0.0143,-0.0531,544,2019-08-07 16:20:56:732
3.5231,-8.8183,1.9792,0.0136,-0.028,0.0464,0.0133,0.0143,-0.0531,549,2019-08-07 16:20:56:737
3.5231,-8.8183,1.9792,0.0224,-0.1718,0.0354,0.0187,0.0196,-0.0606,553,2019-08-07 16:20:56:741
3.5231,-8.8183,1.9792,0.0224,-0.1718,0.0354,0.0187,0.0196,-0.0606,559,2019-08-07 16:20:56:747
3.5231,-8.7849,1.9509,0.0224,-0.1718,0.0354,0.0112,0.0207,-0.0659,564,2019-08-07 16:20:56:752
3.5231,-8.7849,1.9509,0.0224,-0.1718,0.0354,0.0112,0.0207,-0.0659,569,2019-08-07 16:20:56:757
3.4753,-8.804,2.0169,0.0811,-0.1142,-0.0035,0.0016,0.0111,-0.0616,574,2019-08-07 16:20:56:762
3.4753,-8.804,2.0169,0.0811,-0.1142,-0.0035,0.0016,0.0111,-0.0616,580,2019-08-07 16:20:56:768
3.4753,-8.804,2.0169,0.0811,-0.1142,-0.0035,0.0016,0.0111,-0.0616,584,2019-08-07 16:20:56:772
3.4513,-8.9138,2.097,0.0811,-0.1142,-0.0035,-0.009,-0.0166,-0.0552,589,2019-08-07 16:20:56:777
3.4513,-8.9138,2.097,0.0627,-0.0196,-0.0942,-0.009,-0.0166,-0.0552,594,2019-08-07 16:20:56:782
3.4513,-8.9138,2.097,0.0627,-0.0196,-0.0942,-0.009,-0.0411,-0.052,599,2019-08-07 16:20:56:787
3.5231,-8.909,2.0735,0.0627,-0.0196,-0.0942,-0.009,-0.0411,-0.052,604,2019-08-07 16:20:56:792
3.5231,-8.909,2.0735,0.0627,-0.0196,-0.0942,-0.009,-0.0614,-0.0456,609,2019-08-07 16:20:56:797
3.5853,-8.8852,1.9368,-0.0079,-0.0261,0.0703,-0.009,-0.0614,-0.0456,613,2019-08-07 16:20:56:801
3.5853,-8.8852,1.9368,-0.0079,-0.0261,0.0703,-0.0122,-0.0582,-0.0371,619,2019-08-07 16:20:56:807
3.5853,-8.8852,1.9368,-0.0079,-0.0261,0.0703,-0.0122,-0.0582,-0.0371,624,2019-08-07 16:20:56:812
3.5948,-8.9425,1.8331,-0.0079,-0.0261,0.0703,-0.0069,-0.0294,-0.035,629,2019-08-07 16:20:56:817
3.5948,-8.9425,1.8331,-0.0133,-0.0095,0.1161,-0.0069,-0.0294,-0.035,633,2019-08-07 16:20:56:821
3.614,-8.8422,1.9085,-0.0133,-0.0095,0.1161,0.0027,-0.0124,-0.0329,639,2019-08-07 16:20:56:827
3.614,-8.8422,1.9085,-0.0133,-0.0095,0.1161,0.0027,-0.0124,-0.0329,643,2019-08-07 16:20:56:831
3.614,-8.8422,1.9085,-0.0133,-0.0095,0.1161,0.0027,-0.0124,-0.0329,649,2019-08-07 16:20:56:837
3.5422,-8.8565,2.0499,0.041,-0.107,-0.0104,0.0197,-0.0017,-0.0371,653,2019-08-07 16:20:56:841
3.5422,-8.8565,2.0499,0.041,-0.107,-0.0104,0.0197,-0.0017,-0.0371,659,2019-08-07 16:20:56:847
3.5805,-8.804,1.9651,0.041,-0.107,-0.0104,0.0304,-0.0081,-0.0393,664,2019-08-07 16:20:56:852
3.5805,-8.804,1.9651,0.041,-0.107,-0.0104,0.0304,-0.0081,-0.0393,669,2019-08-07 16:20:56:857
3.5805,-8.804,1.9651,0.041,-0.107,-0.0104,0.0304,-0.0081,-0.0393,673,2019-08-07 16:20:56:861
3.6474,-8.6942,1.9462,-0.066,-0.1888,0.0691,0.0229,-0.0177,-0.035,679,2019-08-07 16:20:56:867
3.6474,-8.6942,1.9462,-0.066,-0.1888,0.0691,0.0197,-0.0209,-0.0275,684,2019-08-07 16:20:56:872
3.6474,-8.6942,1.9462,-0.066,-0.1888,0.0691,0.0197,-0.0209,-0.0275,689,2019-08-07 16:20:56:877
3.6857,-8.7372,1.9839,-0.066,-0.1888,0.0691,0.0197,-0.0209,-0.0275,694,2019-08-07 16:20:56:882
3.6857,-8.7372,1.9839,-0.0972,-0.1235,0.0237,0.008,-0.0305,-0.0211,698,2019-08-07 16:20:56:886
3.7144,-8.7897,1.9509,-0.0972,-0.1235,0.0237,0.008,-0.0305,-0.0211,704,2019-08-07 16:20:56:892
3.7144,-8.7897,1.9509,-0.0972,-0.1235,0.0237,0.0059,-0.0315,-0.0201,708,2019-08-07 16:20:56:896
3.7144,-8.7897,1.9509,-0.0972,-0.1235,0.0237,0.0059,-0.0315,-0.0201,714,2019-08-07 16:20:56:902
3.6331,-8.7611,1.8802,-0.0194,-0.1357,0.1259,5.0E-4,-0.0369,-0.0169,719,2019-08-07 16:20:56:907
3.6331,-8.7611,1.8802,-0.0194,-0.1357,0.1259,5.0E-4,-0.0369,-0.0169,724,2019-08-07 16:20:56:912
3.6187,-8.8136,1.8896,-0.0194,-0.1357,0.1259,-0.008,-0.0305,-0.0126,729,2019-08-07 16:20:56:917
3.6187,-8.8136,1.8896,-0.0194,-0.1357,0.1259,-0.008,-0.0305,-0.0126,733,2019-08-07 16:20:56:921
3.6187,-8.8136,1.8896,0.0519,0.0275,0.0939,-0.0122,-0.022,-0.0201,739,2019-08-07 16:20:56:927
3.5326,-8.9663,1.8613,0.0519,0.0275,0.0939,-0.0122,-0.022,-0.0201,743,2019-08-07 16:20:56:931
3.5326,-8.9663,1.8613,0.0519,0.0275,0.0939,-0.0101,-0.0241,-0.0254,749,2019-08-07 16:20:56:937
3.5326,-8.9663,1.8613,0.0519,0.0275,0.0939,-0.0101,-0.0241,-0.0254,753,2019-08-07 16:20:56:941
3.3891,-9.1668,1.7954,0.2326,0.2713,0.2021,-0.0144,-0.023,-0.035,759,2019-08-07 16:20:56:947
3.3891,-9.1668,1.7954,0.2326,0.2713,0.2021,-0.0144,-0.023,-0.035,765,2019-08-07 16:20:56:953
3.1786,-9.4151,1.7859,0.2326,0.2713,0.2021,-0.0197,-0.0443,-0.0393,768,2019-08-07 16:20:56:956
3.1786,-9.4151,1.7859,0.2326,0.2713,0.2021,-0.0197,-0.0443,-0.0393,774,2019-08-07 16:20:56:962
3.1786,-9.4151,1.7859,0.4669,0.8156,0.1892,-0.0293,-0.0667,-0.0488,779,2019-08-07 16:20:56:967
3.1164,-9.8638,1.7529,0.4669,0.8156,0.1892,-0.0293,-0.0667,-0.0488,784,2019-08-07 16:20:56:972
3.1164,-9.8638,1.7529,0.4669,0.8156,0.1892,-0.0293,-0.0667,-0.0488,788,2019-08-07 16:20:56:976
3.0063,-10.3698,1.7529,0.4669,0.8156,0.1892,-0.0357,-0.0933,-0.0563,794,2019-08-07 16:20:56:982
3.0063,-10.3698,1.7529,0.7268,1.5978,0.2216,-0.0357,-0.0933,-0.0563,799,2019-08-07 16:20:56:987
3.0063,-10.3698,1.7529,0.7268,1.5978,0.2216,-0.0389,-0.1072,-0.0393,803,2019-08-07 16:20:56:991
2.5853,-11.1193,1.8048,0.7268,1.5978,0.2216,-0.0389,-0.1072,-0.0393,809,2019-08-07 16:20:56:997
2.5853,-11.1193,1.8048,0.7268,1.5978,0.2216,-0.0474,-0.137,0.014,814,2019-08-07 16:20:57:002
2.5853,-11.1193,1.8048,1.3645,3.2057,-0.1512,-0.0474,-0.137,0.014,819,2019-08-07 16:20:57:007
2.1738,-12.6995,2.4034,1.3645,3.2057,-0.1512,-0.0399,-0.186,0.0939,824,2019-08-07 16:20:57:012
2.1738,-12.6995,2.4034,1.3645,3.2057,-0.1512,-0.0399,-0.186,0.0939,829,2019-08-07 16:20:57:017
2.1738,-12.6995,2.4034,1.3645,3.2057,-0.1512,-0.0144,-0.2286,0.2068,834,2019-08-07 16:20:57:022
1.8007,-14.6615,2.9738,1.8996,6.171,-1.2417,-0.0144,-0.2286,0.2068,839,2019-08-07 16:20:57:027
1.8007,-14.6615,2.9738,1.8996,6.171,-1.2417,0.0432,-0.2435,0.3645,844,2019-08-07 16:20:57:032
1.4227,-17.4064,3.5819,1.8996,6.171,-1.2417,0.0432,-0.2435,0.3645,849,2019-08-07 16:20:57:037
1.4227,-17.4064,3.5819,1.8996,6.171,-1.2417,0.1539,-0.1178,0.6361,854,2019-08-07 16:20:57:042
1.1691,-20.0893,4.6943,2.3321,11.1321,-2.7591,0.1539,-0.1178,0.6361,858,2019-08-07 16:20:57:046
1.1691,-20.0893,4.6943,2.3321,11.1321,-2.7591,0.1539,-0.1178,0.6361,865,2019-08-07 16:20:57:053
1.1691,-20.0893,4.6943,2.3321,11.1321,-2.7591,0.3808,0.1283,1.0122,869,2019-08-07 16:20:57:057
1.1883,-23.7079,6.3913,2.3321,11.1321,-2.7591,0.3808,0.1283,1.0122,874,2019-08-07 16:20:57:062
1.1883,-23.7079,6.3913,1.9782,15.5067,-4.4379,0.693,0.6087,1.4979,879,2019-08-07 16:20:57:067
1.5375,-25.3644,5.9293,1.9782,15.5067,-4.4379,0.693,0.6087,1.4979,885,2019-08-07 16:20:57:073
1.5375,-25.3644,5.9293,1.9782,15.5067,-4.4379,0.8112,1.2233,1.9517,889,2019-08-07 16:20:57:077
1.5375,-25.3644,5.9293,1.9782,15.5067,-4.4379,0.8112,1.2233,1.9517,894,2019-08-07 16:20:57:082
1.5806,-26.5769,4.0815,1.3248,17.473,-1.8651,0.8112,1.2233,1.9517,898,2019-08-07 16:20:57:086
1.5806,-26.5769,4.0815,1.3248,17.473,-1.8651,0.7462,1.9733,2.4268,904,2019-08-07 16:20:57:092
1.5806,-26.5769,4.0815,1.3248,17.473,-1.8651,0.7462,1.9733,2.4268,909,2019-08-07 16:20:57:097
-0.668,-29.5033,1.0977,1.3248,17.473,-1.8651,0.5417,2.833,2.9882,914,2019-08-07 16:20:57:102
-0.668,-29.5033,1.0977,4.2321,22.0162,2.4871,0.5417,2.833,2.9882,918,2019-08-07 16:20:57:106
-3.6486,-32.1623,-1.0565,4.2321,22.0162,2.4871,0.3862,3.7842,3.572,924,2019-08-07 16:20:57:112
-3.6486,-32.1623,-1.0565,4.2321,22.0162,2.4871,0.3862,3.7842,3.572,929,2019-08-07 16:20:57:117
-3.6486,-32.1623,-1.0565,4.2321,22.0162,2.4871,0.3052,4.2849,4.2346,934,2019-08-07 16:20:57:122
-6.4618,-33.9,-0.3542,7.5884,24.7557,2.1071,0.3052,4.2849,4.2346,938,2019-08-07 16:20:57:126
-6.4618,-33.9,-0.3542,7.5884,24.7557,2.1071,0.5268,4.5587,4.8386,944,2019-08-07 16:20:57:132
-2.1129,-35.1173,4.1617,7.5884,24.7557,2.1071,0.5268,4.5587,4.8386,949,2019-08-07 16:20:57:137
-2.1129,-35.1173,4.1617,7.5884,24.7557,2.1071,1.5644,5.3257,4.5808,953,2019-08-07 16:20:57:141
-2.1129,-35.1173,4.1617,-1.6689,23.5599,0.5198,1.5644,5.3257,4.5808,959,2019-08-07 16:20:57:147
2.1786,-32.2817,0.8856,-1.6689,23.5599,0.5198,2.4826,7.1909,3.5677,965,2019-08-07 16:20:57:153
2.1786,-32.2817,0.8856,-1.6689,23.5599,0.5198,2.4826,7.1909,3.5677,968,2019-08-07 16:20:57:156
2.1786,-32.2817,0.8856,-1.6689,23.5599,0.5198,2.4826,7.1909,3.5677,974,2019-08-07 16:20:57:162
0.2075,-30.7349,-10.1919,0.323,20.473,15.7238,2.4038,9.7114,2.4918,979,2019-08-07 16:20:57:167
0.2075,-30.7349,-10.1919,0.323,20.473,15.7238,2.4038,9.7114,2.4918,983,2019-08-07 16:20:57:171
-7.9688,-28.7538,-13.4774,0.323,20.473,15.7238,0.7111,11.4541,1.2135,989,2019-08-07 16:20:57:177
-7.9688,-28.7538,-13.4774,0.323,20.473,15.7238,0.7111,11.4541,1.2135,994,2019-08-07 16:20:57:182
-7.9688,-28.7538,-13.4774,11.6763,21.2291,18.4245,0.1635,13.0499,0.2452,999,2019-08-07 16:20:57:187
-13.7865,-30.5201,-13.765,11.6763,21.2291,18.4245,0.1635,13.0499,0.2452,1004,2019-08-07 16:20:57:192
-13.7865,-30.5201,-13.765,11.6763,21.2291,18.4245,0.5918,14.962,-1.0246,1009,2019-08-07 16:20:57:197
-10.2988,-26.744,0.1832,11.6763,21.2291,18.4245,0.5918,14.962,-1.0246,1014,2019-08-07 16:20:57:202
-10.2988,-26.744,0.1832,6.571,14.4546,-0.1795,3.2688,14.749,-2.875,1019,2019-08-07 16:20:57:207
-10.2988,-26.744,0.1832,6.571,14.4546,-0.1795,3.2688,14.749,-2.875,1024,2019-08-07 16:20:57:212
-7.9162,-17.8934,0.2539,6.571,14.4546,-0.1795,3.2688,14.749,-2.875,1029,2019-08-07 16:20:57:217
-7.9162,-17.8934,0.2539,6.571,14.4546,-0.1795,6.2377,13.5005,-3.7805,1033,2019-08-07 16:20:57:221
-7.7775,-6.2405,-5.5299,6.571,14.4546,-0.1795,9.1086,12.9764,-4.1682,1039,2019-08-07 16:20:57:227
-7.7775,-6.2405,-5.5299,5.1818,-2.8172,8.2606,9.1086,12.9764,-4.1682,1043,2019-08-07 16:20:57:231
-7.7775,-6.2405,-5.5299,5.1818,-2.8172,8.2606,11.6002,12.3575,-3.7762,1049,2019-08-07 16:20:57:237
-20.9006,64.4694,-2.9468,5.1818,-2.8172,8.2606,11.6002,12.3575,-3.7762,1054,2019-08-07 16:20:57:242
-20.9006,64.4694,-2.9468,5.1818,-2.8172,8.2606,11.6002,12.3575,-3.7762,1059,2019-08-07 16:20:57:247
-34.3157,81.9893,39.9725,24.7141,-80.8974,-8.7891,2.7457,2.6923,-1.9855,1064,2019-08-07 16:20:57:252
-34.3157,81.9893,39.9725,24.7141,-80.8974,-8.7891,2.7457,2.6923,-1.9855,1068,2019-08-07 16:20:57:256
-34.3157,81.9893,39.9725,24.7141,-80.8974,-8.7891,11.2646,-8.1052,1.7642,1074,2019-08-07 16:20:57:262
-16.6331,78.1177,-18.6673,24.7141,-80.8974,-8.7891,11.2646,-8.1052,1.7642,1079,2019-08-07 16:20:57:267
-16.6331,78.1177,-18.6673,-6.6956,-68.335,15.0304,5.8456,-11.4011,2.0614,1084,2019-08-07 16:20:57:272
-16.6331,78.1177,-18.6673,-6.6956,-68.335,15.0304,5.8456,-11.4011,2.0614,1089,2019-08-07 16:20:57:277
30.4438,53.5087,2.1159,-32.3338,-61.0656,3.847,5.8456,-11.4011,2.0614,1094,2019-08-07 16:20:57:282
30.4438,53.5087,2.1159,-32.3338,-61.0656,3.847,3.6714,-7.8634,3.3525,1099,2019-08-07 16:20:57:287
30.4438,53.5087,2.1159,-32.3338,-61.0656,3.847,3.6714,-7.8634,3.3525,1104,2019-08-07 16:20:57:292
47.3082,32.7903,-30.1737,-32.3338,-61.0656,3.847,0.5928,-1.7434,2.6122,1108,2019-08-07 16:20:57:296
47.3082,32.7903,-30.1737,-33.351,-38.8944,45.9328,0.5928,-1.7434,2.6122,1114,2019-08-07 16:20:57:302
47.3082,32.7903,-30.1737,-33.351,-38.8944,45.9328,-3.0994,8.4703,0.6521,1119,2019-08-07 16:20:57:307
5.0873,31.172,-34.7226,-33.351,-38.8944,45.9328,-3.0994,8.4703,0.6521,1124,2019-08-07 16:20:57:312
5.0873,31.172,-34.7226,-33.351,-38.8944,45.9328,-5.2192,12.9934,-0.0169,1129,2019-08-07 16:20:57:317
-15.9045,18.0056,53.3694,15.0972,-26.6281,12.413,-5.2192,12.9934,-0.0169,1134,2019-08-07 16:20:57:322
-15.9045,18.0056,53.3694,15.0972,-26.6281,12.413,-5.2192,12.9934,-0.0169,1139,2019-08-07 16:20:57:327
-15.9045,18.0056,53.3694,15.0972,-26.6281,12.413,-3.5372,5.9318,0.0108,1144,2019-08-07 16:20:57:332
-18.0765,13.3273,-0.8064,15.0972,-26.6281,12.413,-3.5372,5.9318,0.0108,1149,2019-08-07 16:20:57:337
-18.0765,13.3273,-0.8064,17.5802,-17.306,7.0731,-2.4006,2.7882,0.0779,1154,2019-08-07 16:20:57:342
-15.9379,7.064,2.7902,17.5802,-17.306,7.0731,-2.4006,2.7882,0.0779,1159,2019-08-07 16:20:57:347
-15.9379,7.064,2.7902,17.5802,-17.306,7.0731,-2.4006,2.7882,0.0779,1164,2019-08-07 16:20:57:352
-15.9379,7.064,2.7902,17.5802,-17.306,7.0731,-3.4211,-3.0494,-0.3439,1169,2019-08-07 16:20:57:357
-12.5602,9.871,-0.6744,8.9526,-18.017,4.781,-3.4211,-3.0494,-0.3439,1174,2019-08-07 16:20:57:362
-12.5602,9.871,-0.6744,8.9526,-18.017,4.781,-3.991,-8.2948,0.112,1180,2019-08-07 16:20:57:368
-10.0868,10.0477,-1.1835,8.9526,-18.017,4.781,-3.991,-8.2948,0.112,1185,2019-08-07 16:20:57:373
-10.0868,10.0477,-1.1835,8.9526,-18.017,4.781,-4.1657,-11.8847,0.9813,1188,2019-08-07 16:20:57:376
-10.0868,10.0477,-1.1835,3.2236,-15.1982,12.0567,-4.1657,-11.8847,0.9813,1194,2019-08-07 16:20:57:382
-5.2021,5.5364,-7.2502,3.2236,-15.1982,12.0567,-3.9292,-9.4272,1.483,1200,2019-08-07 16:20:57:388
-5.2021,5.5364,-7.2502,3.2236,-15.1982,12.0567,-3.9292,-9.4272,1.483,1204,2019-08-07 16:20:57:392
2.3905,-1.0276,-0.6555,3.2236,-15.1982,12.0567,-3.7428,-8.7465,1.418,1209,2019-08-07 16:20:57:397
2.3905,-1.0276,-0.6555,-6.9031,-4.9556,3.1509,-3.7428,-8.7465,1.418,1214,2019-08-07 16:20:57:402
2.3905,-1.0276,-0.6555,-6.9031,-4.9556,3.1509,-3.7311,-10.5382,0.6787,1219,2019-08-07 16:20:57:407
2.3905,-1.0276,-0.6555,-6.9031,-4.9556,3.1509,-3.7311,-10.5382,0.6787,1224,2019-08-07 16:20:57:412
3.2948,-7.2861,-0.6885,-6.9031,-4.9556,3.1509,-3.7311,-10.5382,0.6787,1229,2019-08-07 16:20:57:417
3.2948,-7.2861,-0.6885,-3.7023,1.7175,3.8509,-3.4541,-10.1633,0.0982,1234,2019-08-07 16:20:57:422
2.5389,-13.0147,-0.0946,-3.7023,1.7175,3.8509,-3.4541,-10.1633,0.0982,1239,2019-08-07 16:20:57:427
2.5389,-13.0147,-0.0946,-3.7023,1.7175,3.8509,-2.6935,-8.6378,-0.394,1244,2019-08-07 16:20:57:432
3.2374,-22.1709,0.0374,-3.7023,1.7175,3.8509,-2.6935,-8.6378,-0.394,1250,2019-08-07 16:20:57:438
3.2374,-22.1709,0.0374,-5.1037,17.2835,2.4819,-1.9563,-7.8708,-0.9415,1253,2019-08-07 16:20:57:441
3.2374,-22.1709,0.0374,-5.1037,17.2835,2.4819,-1.9563,-7.8708,-0.9415,1259,2019-08-07 16:20:57:447
6.4716,-30.1861,0.1317,-7.9295,21.2232,2.9,-1.6155,-7.0697,-0.9809,1264,2019-08-07 16:20:57:452
6.4716,-30.1861,0.1317,-7.9295,21.2232,2.9,-1.6155,-7.0697,-0.9809,1269,2019-08-07 16:20:57:457
6.4716,-30.1861,0.1317,-7.9295,21.2232,2.9,-1.6155,-7.0697,-0.9809,1274,2019-08-07 16:20:57:462
7.5241,-21.3545,1.2017,-7.9295,21.2232,2.9,-0.889,-5.719,-1.0907,1278,2019-08-07 16:20:57:466
7.5241,-21.3545,1.2017,-5.221,9.9889,2.1694,-0.889,-5.719,-1.0907,1283,2019-08-07 16:20:57:471
4.1273,-20.9058,3.1344,-5.221,9.9889,2.1694,0.5545,-3.1123,-1.0608,1289,2019-08-07 16:20:57:477
4.1273,-20.9058,3.1344,-5.221,9.9889,2.1694,0.5545,-3.1123,-1.0608,1294,2019-08-07 16:20:57:482
4.1273,-20.9058,3.1344,-5.221,9.9889,2.1694,0.7824,-2.4433,-0.9192,1299,2019-08-07 16:20:57:487
2.3954,-24.7583,0.3862,-0.2294,14.8103,2.9261,0.7824,-2.4433,-0.9192,1304,2019-08-07 16:20:57:492
2.3954,-24.7583,0.3862,-0.2294,14.8103,2.9261,0.7824,-2.4433,-0.9192,1309,2019-08-07 16:20:57:497
2.3954,-24.7583,0.3862,-0.2294,14.8103,2.9261,-0.8059,-2.2025,-0.6837,1313,2019-08-07 16:20:57:501
-2.7189,-22.2234,6.8536,3.2134,12.934,-3.7392,-0.8059,-2.2025,-0.6837,1319,2019-08-07 16:20:57:507
-2.7189,-22.2234,6.8536,3.2134,12.934,-3.7392,-1.2863,-2.6638,-0.329,1324,2019-08-07 16:20:57:512
-4.7187,-22.1995,7.0798,5.3167,12.8736,-4.0954,-1.2863,-2.6638,-0.329,1329,2019-08-07 16:20:57:517
-4.7187,-22.1995,7.0798,5.3167,12.8736,-4.0954,-1.2203,-3.5256,-0.3258,1334,2019-08-07 16:20:57:522
-4.6517,-22.9347,4.9681,5.3167,12.8736,-4.0954,-1.2203,-3.5256,-0.3258,1338,2019-08-07 16:20:57:526
-4.6517,-22.9347,4.9681,4.9666,13.1848,-1.4448,-1.1457,-4.2787,-0.7551,1344,2019-08-07 16:20:57:532
-4.6517,-22.9347,4.9681,4.9666,13.1848,-1.4448,-1.1457,-4.2787,-0.7551,1349,2019-08-07 16:20:57:537
-4.2116,-21.5694,2.3755,4.9666,13.1848,-1.4448,-1.2724,-4.9381,-1.4369,1354,2019-08-07 16:20:57:542
-4.2116,-21.5694,2.3755,4.9666,13.1848,-1.4448,-1.2724,-4.9381,-1.4369,1359,2019-08-07 16:20:57:547
-4.8383,-20.5287,3.0166,6.1965,11.0966,-0.687,-1.4663,-5.1299,-1.6308,1364,2019-08-07 16:20:57:552
-4.8383,-20.5287,3.0166,6.1965,11.0966,-0.687,-1.4663,-5.1299,-1.6308,1369,2019-08-07 16:20:57:557
-4.8383,-20.5287,3.0166,6.1965,11.0966,-0.687,-1.4599,-4.9445,-1.3133,1374,2019-08-07 16:20:57:562
-3.1112,-22.3475,2.6583,4.7091,12.901,-0.5497,-1.4599,-4.9445,-1.3133,1378,2019-08-07 16:20:57:566
-3.1112,-22.3475,2.6583,4.7091,12.901,-0.5497,-1.2288,-4.3309,-1.0108,1384,2019-08-07 16:20:57:572
-3.1112,-22.3475,2.6583,4.7091,12.901,-0.5497,-1.2288,-4.3309,-1.0108,1388,2019-08-07 16:20:57:576
-1.5945,-22.5146,2.0832,4.7091,12.901,-0.5497,-0.792,-3.5299,-0.7487,1394,2019-08-07 16:20:57:582
-1.5945,-22.5146,2.0832,3.1655,12.6998,-0.0757,-0.792,-3.5299,-0.7487,1399,2019-08-07 16:20:57:587
-0.4415,-21.4834,2.1916,3.1655,12.6998,-0.0757,-0.3073,-2.5626,-0.5793,1404,2019-08-07 16:20:57:592
-0.4415,-21.4834,2.1916,3.1655,12.6998,-0.0757,-0.3073,-2.5626,-0.5793,1409,2019-08-07 16:20:57:597
0.0226,-19.7458,2.8422,2.0725,9.7273,-1.1457,0.1092,-1.8009,-0.558,1415,2019-08-07 16:20:57:603
0.0226,-19.7458,2.8422,2.0725,9.7273,-1.1457,0.1092,-1.8009,-0.558,1419,2019-08-07 16:20:57:607
0.0226,-19.7458,2.8422,2.0725,9.7273,-1.1457,0.1092,-1.8009,-0.558,1424,2019-08-07 16:20:57:612
0.0226,-19.7458,2.8422,2.0725,9.7273,-1.1457,0.4543,-1.2129,-0.6411,1428,2019-08-07 16:20:57:616
-0.1066,-15.7262,3.0354,2.0725,9.7273,-1.1457,0.4543,-1.2129,-0.6411,1434,2019-08-07 16:20:57:622
-0.1066,-15.7262,3.0354,2.5033,4.5517,-1.7809,0.7473,-1.1117,-0.6827,1439,2019-08-07 16:20:57:627
-0.1066,-15.7262,3.0354,2.5033,4.5517,-1.7809,0.7473,-1.1117,-0.6827,1443,2019-08-07 16:20:57:631
0.2283,-11.9024,4.0065,2.5033,4.5517,-1.7809,0.9582,-1.312,-0.7114,1449,2019-08-07 16:20:57:637
0.2283,-11.9024,4.0065,2.5033,4.5517,-1.7809,0.9582,-1.312,-0.7114,1454,2019-08-07 16:20:57:642
0.2283,-11.9024,4.0065,1.4522,0.8696,-1.5302,0.9582,-1.312,-0.7114,1458,2019-08-07 16:20:57:646
1.0512,-9.7303,2.9694,1.4522,0.8696,-1.5302,1.0115,-1.6135,-0.7658,1464,2019-08-07 16:20:57:652
1.0512,-9.7303,2.9694,1.4522,0.8696,-1.5302,1.0115,-1.6135,-0.7658,1469,2019-08-07 16:20:57:657
2.2186,-8.3172,2.3614,1.4522,0.8696,-1.5302,0.8112,-1.8723,-0.7626,1474,2019-08-07 16:20:57:662
2.2186,-8.3172,2.3614,-0.1914,-1.4547,-0.5052,0.8112,-1.8723,-0.7626,1478,2019-08-07 16:20:57:666
4.0797,-7.5009,1.428,-0.1914,-1.4547,-0.5052,0.4693,-2.0705,-0.6976,1484,2019-08-07 16:20:57:672
4.0797,-7.5009,1.428,-0.1914,-1.4547,-0.5052,0.4693,-2.0705,-0.6976,1489,2019-08-07 16:20:57:677
4.0797,-7.5009,1.428,-0.1914,-1.4547,-0.5052,0.4693,-2.0705,-0.6976,1494,2019-08-07 16:20:57:682
6.5388,-7.3482,0.5418,-3.4627,-1.8714,1.1369,0.1699,-1.7647,-0.6891,1500,2019-08-07 16:20:57:688
6.5388,-7.3482,0.5418,-3.4627,-1.8714,1.1369,0.1699,-1.7647,-0.6891,1504,2019-08-07 16:20:57:692
6.5388,-7.3482,0.5418,-3.7905,-1.9553,1.8921,0.0186,-1.1831,-0.6283,1509,2019-08-07 16:20:57:697
6.7302,-7.162,-0.4622,-3.7905,-1.9553,1.8921,0.0186,-1.1831,-0.6283,1514,2019-08-07 16:20:57:702
6.7302,-7.162,-0.4622,-3.7905,-1.9553,1.8921,-0.1113,-0.219,-0.3556,1519,2019-08-07 16:20:57:707
6.7302,-7.162,-0.4622,-3.7905,-1.9553,1.8921,-0.1113,-0.219,-0.3556,1524,2019-08-07 16:20:57:712
6.2565,-7.267,-1.1127,-2.9947,-1.6903,2.9641,-0.1113,-0.219,-0.3556,1529,2019-08-07 16:20:57:717
6.2565,-7.267,-1.1127,-2.9947,-1.6903,2.9641,-0.2264,0.7749,-0.0893,1533,2019-08-07 16:20:57:721
4.7208,-8.3125,0.292,-2.9947,-1.6903,2.9641,-0.2264,0.7749,-0.0893,1539,2019-08-07 16:20:57:727
4.7208,-8.3125,0.292,-2.9947,-1.6903,2.9641,-0.2477,1.2287,-0.0904,1544,2019-08-07 16:20:57:732
4.7208,-8.3125,0.292,-0.1363,-0.7249,0.0813,-0.2477,1.2287,-0.0904,1549,2019-08-07 16:20:57:737
2.5201,-8.618,1.7014,-0.1363,-0.7249,0.0813,-0.188,1.0486,-0.1159,1554,2019-08-07 16:20:57:742
2.5201,-8.618,1.7014,1.0578,-0.3726,-0.002,-0.188,1.0486,-0.1159,1559,2019-08-07 16:20:57:747
1.8216,-8.9235,1.8617,1.0578,-0.3726,-0.002,-0.1124,0.843,-0.199,1564,2019-08-07 16:20:57:752
1.8216,-8.9235,1.8617,1.0578,-0.3726,-0.002,-0.1124,0.843,-0.199,1569,2019-08-07 16:20:57:757
1.8216,-8.9235,1.8617,1.0578,-0.3726,-0.002,-0.1124,0.843,-0.199,1574,2019-08-07 16:20:57:762
1.6781,-8.8662,2.0597,1.4289,-0.3663,-0.5103,-0.0985,0.4691,-0.2949,1578,2019-08-07 16:20:57:766
1.6781,-8.8662,2.0597,1.4289,-0.3663,-0.5103,-0.0985,0.4691,-0.2949,1584,2019-08-07 16:20:57:772
1.6781,-8.8662,2.0597,1.4289,-0.3663,-0.5103,-0.1326,-0.0507,-0.3045,1589,2019-08-07 16:20:57:777
2.2953,-8.4366,2.5735,1.4289,-0.3663,-0.5103,-0.1326,-0.0507,-0.3045,1594,2019-08-07 16:20:57:782
2.2953,-8.4366,2.5735,0.0675,-0.653,-0.488,-0.1827,-0.2957,-0.264,1600,2019-08-07 16:20:57:788
2.2953,-8.4366,2.5735,0.0675,-0.653,-0.488,-0.1827,-0.2957,-0.264,1603,2019-08-07 16:20:57:791
3.6492,-8.6085,1.9136,0.0675,-0.653,-0.488,-0.2498,-0.3181,-0.2406,1609,2019-08-07 16:20:57:797
3.6492,-8.6085,1.9136,0.0675,-0.653,-0.488,-0.2498,-0.3181,-0.2406,1614,2019-08-07 16:20:57:802
4.0607,-8.9951,1.6355,-0.8765,-0.1373,0.0065,-0.2924,-0.2073,-0.2108,1619,2019-08-07 16:20:57:807
4.0607,-8.9951,1.6355,-0.8765,-0.1373,0.0065,-0.2924,-0.2073,-0.2108,1624,2019-08-07 16:20:57:812
4.0607,-8.9951,1.6355,-0.8765,-0.1373,0.0065,-0.2924,-0.2073,-0.2108,1628,2019-08-07 16:20:57:816
4.252,-9.6062,1.4469,-0.8765,-0.1373,0.0065,-0.3031,0.0462,-0.1447,1634,2019-08-07 16:20:57:822
4.252,-9.6062,1.4469,-1.0014,0.7153,0.0557,-0.3031,0.0462,-0.1447,1639,2019-08-07 16:20:57:827
4.0368,-9.9547,1.5836,-1.0014,0.7153,0.0557,-0.2722,0.2923,-0.1191,1644,2019-08-07 16:20:57:832
4.0368,-9.9547,1.5836,-1.0014,0.7153,0.0557,-0.2722,0.2923,-0.1191,1649,2019-08-07 16:20:57:837
4.0368,-9.9547,1.5836,-1.0014,0.7153,0.0557,-0.2061,0.516,-0.1106,1653,2019-08-07 16:20:57:841
3.41,-9.8544,1.8806,-0.0017,0.654,-0.2842,-0.2061,0.516,-0.1106,1659,2019-08-07 16:20:57:847
3.41,-9.8544,1.8806,-0.0017,0.654,-0.2842,-0.1454,0.6268,-0.1202,1664,2019-08-07 16:20:57:852
3.41,-9.8544,1.8806,-0.0017,0.654,-0.2842,-0.1454,0.6268,-0.1202,1669,2019-08-07 16:20:57:857
2.6542,-9.5967,1.7627,-0.0017,0.654,-0.2842,-0.1454,0.5852,-0.15,1674,2019-08-07 16:20:57:862
2.6542,-9.5967,1.7627,-0.0017,0.654,-0.2842,-0.1454,0.5852,-0.15,1678,2019-08-07 16:20:57:866
2.2762,-9.5441,1.6213,0.8946,0.4085,-0.0215,-0.1795,0.467,-0.1809,1684,2019-08-07 16:20:57:872
2.2762,-9.5441,1.6213,0.8946,0.4085,-0.0215,-0.1795,0.467,-0.1809,1689,2019-08-07 16:20:57:877
2.2762,-9.5441,1.6213,0.8946,0.4085,-0.0215,-0.1795,0.3179,-0.2022,1694,2019-08-07 16:20:57:882
2.2762,-9.6014,2.0739,0.9633,0.4657,-0.4097,-0.1795,0.3179,-0.2022,1699,2019-08-07 16:20:57:887
2.2762,-9.6014,2.0739,0.9633,0.4657,-0.4097,-0.1571,0.0643,-0.2086,1704,2019-08-07 16:20:57:892
2.4389,-9.5537,1.7062,0.9633,0.4657,-0.4097,-0.1571,0.0643,-0.2086,1709,2019-08-07 16:20:57:897
2.4389,-9.5537,1.7062,0.9633,0.4657,-0.4097,-0.1571,0.0643,-0.2086,1714,2019-08-07 16:20:57:902
2.4389,-9.5537,1.7062,0.3206,0.3342,-0.1626,-0.1433,-0.104,-0.198,1718,2019-08-07 16:20:57:906
3.0752,-9.4391,1.6685,0.3206,0.3342,-0.1626,-0.1145,-0.2041,-0.1884,1724,2019-08-07 16:20:57:912
3.0752,-9.4391,1.6685,0.3206,0.3342,-0.1626,-0.1145,-0.2041,-0.1884,1729,2019-08-07 16:20:57:917
3.0752,-9.4391,1.6685,0.3206,0.3342,-0.1626,-0.1145,-0.2041,-0.1884,1734,2019-08-07 16:20:57:922
3.5871,-9.3341,1.2678,0.3206,0.3342,-0.1626,-0.0836,-0.2201,-0.1735,1739,2019-08-07 16:20:57:927
3.5871,-9.3341,1.2678,-0.5331,0.1953,0.3689,-0.0836,-0.2201,-0.1735,1744,2019-08-07 16:20:57:932
4.1278,-9.2386,1.3762,-0.5331,0.1953,0.3689,-0.0165,-0.088,-0.1649,1749,2019-08-07 16:20:57:937
4.1278,-9.2386,1.3762,-0.5331,0.1953,0.3689,-0.0165,-0.088,-0.1649,1754,2019-08-07 16:20:57:942
4.1278,-9.2386,1.3762,-0.5331,0.1953,0.3689,0.0581,0.0792,-0.1383,1759,2019-08-07 16:20:57:947
4.1613,-9.0954,1.1971,-0.8555,0.0308,0.2343,0.0581,0.0792,-0.1383,1764,2019-08-07 16:20:57:952
4.1613,-9.0954,1.1971,-0.8555,0.0308,0.2343,0.0581,0.0792,-0.1383,1769,2019-08-07 16:20:57:957
4.1613,-9.0954,1.1971,-0.8555,0.0308,0.2343,0.0964,0.353,-0.1074,1773,2019-08-07 16:20:57:961
3.8025,-8.9808,1.15,-0.8555,0.0308,0.2343,0.0964,0.353,-0.1074,1779,2019-08-07 16:20:57:967
3.8025,-8.9808,1.15,-0.3045,-0.0627,0.3021,0.0783,0.4979,-0.0914,1783,2019-08-07 16:20:57:971
3.8025,-8.9808,1.15,-0.3045,-0.0627,0.3021,0.0783,0.4979,-0.0914,1789,2019-08-07 16:20:57:977
3.2571,-9.1241,1.6166,-0.3045,-0.0627,0.3021,0.074,0.6044,-0.0883,1793,2019-08-07 16:20:57:981
3.2571,-9.1241,1.6166,0.539,0.1172,-0.2524,0.074,0.6044,-0.0883,1799,2019-08-07 16:20:57:987
2.7452,-9.167,1.8712,0.539,0.1172,-0.2524,0.0655,0.5522,-0.0872,1804,2019-08-07 16:20:57:992
2.7452,-9.167,1.8712,0.539,0.1172,-0.2524,0.0655,0.5522,-0.0872,1809,2019-08-07 16:20:57:997
2.7452,-9.167,1.8712,0.539,0.1172,-0.2524,0.0485,0.4233,-0.0733,1814,2019-08-07 16:20:58:002
2.5778,-9.21,1.9419,0.539,0.1172,-0.2524,0.0485,0.4233,-0.0733,1819,2019-08-07 16:20:58:007
2.5778,-9.21,1.9419,0.7429,0.0559,-0.5328,0.0485,0.4233,-0.0733,1823,2019-08-07 16:20:58:011
2.6208,-9.0047,2.3756,0.7429,0.0559,-0.5328,0.0431,0.2241,-0.0627,1829,2019-08-07 16:20:58:017
2.6208,-9.0047,2.3756,0.7429,0.0559,-0.5328,0.0431,0.2241,-0.0627,1834,2019-08-07 16:20:58:022
2.6208,-9.0047,2.3756,0.7429,0.0559,-0.5328,0.0463,-0.0955,-0.0382,1839,2019-08-07 16:20:58:027
3.1567,-8.8424,2.1446,0.2099,-0.2214,-0.4861,0.0463,-0.0955,-0.0382,1844,2019-08-07 16:20:58:032
3.1567,-8.8424,2.1446,0.2099,-0.2214,-0.4861,0.025,-0.2552,-0.0243,1850,2019-08-07 16:20:58:038
3.1567,-8.8424,2.1446,0.2099,-0.2214,-0.4861,0.025,-0.2552,-0.0243,1854,2019-08-07 16:20:58:042
3.9652,-8.6896,1.7298,0.2099,-0.2214,-0.4861,-0.0069,-0.3074,-0.019,1859,2019-08-07 16:20:58:047
3.9652,-8.6896,1.7298,-0.7351,-0.4277,0.0281,-0.0069,-0.3074,-0.019,1864,2019-08-07 16:20:58:052
3.9652,-8.6896,1.7298,-0.7351,-0.4277,0.0281,-0.0346,-0.2286,-0.002,1869,2019-08-07 16:20:58:057
4.391,-8.704,1.447,-0.7351,-0.4277,0.0281,-0.0346,-0.2286,-0.002,1873,2019-08-07 16:20:58:061
4.391,-8.704,1.447,-0.7351,-0.4277,0.0281,-0.0335,-0.0837,0.0321,1879,2019-08-07 16:20:58:067
4.3671,-8.9999,1.216,-0.9561,-0.1497,0.3649,-0.0335,-0.0837,0.0321,1884,2019-08-07 16:20:58:072
4.3671,-8.9999,1.216,-0.9561,-0.1497,0.3649,-0.0335,-0.0837,0.0321,1889,2019-08-07 16:20:58:077
4.3671,-8.9999,1.216,-0.9561,-0.1497,0.3649,-0.0261,0.1975,0.0598,1894,2019-08-07 16:20:58:082
4.0705,-9.3102,1.2914,-0.9561,-0.1497,0.3649,-0.0261,0.1975,0.0598,1899,2019-08-07 16:20:58:087
4.0705,-9.3102,1.2914,-0.4834,0.2909,0.2029,-0.0037,0.4116,0.0449,1904,2019-08-07 16:20:58:092
4.0705,-9.3102,1.2914,-0.4834,0.2909,0.2029,-0.0037,0.4116,0.0449,1909,2019-08-07 16:20:58:097
3.4629,-9.3962,1.4328,-0.4834,0.2909,0.2029,0.025,0.5053,0.0289,1915,2019-08-07 16:20:58:103
3.4629,-9.3962,1.4328,-0.4834,0.2909,0.2029,0.025,0.5053,0.0289,1919,2019-08-07 16:20:58:107
3.4629,-9.3962,1.4328,-0.4834,0.2909,0.2029,0.025,0.5053,0.0289,1924,2019-08-07 16:20:58:112
3.0706,-9.3914,1.6732,0.2926,0.3265,-0.0141,0.0453,0.5277,0.0129,1929,2019-08-07 16:20:58:117
3.0706,-9.3914,1.6732,0.2926,0.3265,-0.0141,0.0453,0.5277,0.0129,1934,2019-08-07 16:20:58:122
2.7358,-9.0429,1.8052,0.2926,0.3265,-0.0141,0.0687,0.4191,-0.0137,1939,2019-08-07 16:20:58:127
2.7358,-9.0429,1.8052,0.6178,-0.1497,-0.0638,0.0687,0.4191,-0.0137,1944,2019-08-07 16:20:58:132
2.7358,-9.0429,1.8052,0.6178,-0.1497,-0.0638,0.0623,0.3019,-0.0254,1949,2019-08-07 16:20:58:137
2.7023,-8.7565,2.0126,0.6178,-0.1497,-0.0638,0.0623,0.3019,-0.0254,1954,2019-08-07 16:20:58:142
2.7023,-8.7565,2.0126,0.6178,-0.1497,-0.0638,0.04,0.0963,-0.0297,1959,2019-08-07 16:20:58:147
2.841,-8.5655,2.0032,0.4965,-0.4952,-0.2713,0.04,0.0963,-0.0297,1964,2019-08-07 16:20:58:152
2.841,-8.5655,2.0032,0.4965,-0.4952,-0.2713,0.04,0.0963,-0.0297,1969,2019-08-07 16:20:58:157
2.841,-8.5655,2.0032,0.4965,-0.4952,-0.2713,-0.0027,-0.1604,-0.0275,1974,2019-08-07 16:20:58:162
3.463,-8.5703,1.8288,0.4965,-0.4952,-0.2713,-0.0027,-0.1604,-0.0275,1980,2019-08-07 16:20:58:168
3.463,-8.5703,1.8288,-0.2422,-0.4545,-0.0089,-0.0314,-0.3,-0.0382,1984,2019-08-07 16:20:58:172
3.463,-8.5703,1.8288,-0.2422,-0.4545,-0.0089,-0.0314,-0.3,-0.0382,1988,2019-08-07 16:20:58:176
4.0515,-8.7183,1.3056,-0.2422,-0.4545,-0.0089,-0.0421,-0.3533,-0.0222,1994,2019-08-07 16:20:58:182
4.0515,-8.7183,1.3056,-0.2422,-0.4545,-0.0089,-0.0421,-0.3533,-0.0222,1999,2019-08-07 16:20:58:187
4.0515,-8.7183,1.3056,-1.1429,-0.0609,0.6414,-0.0325,-0.2521,-0.0126,2004,2019-08-07 16:20:58:192
4.5299,-9.0477,1.0416,-1.1429,-0.0609,0.6414,-0.0325,-0.2521,-0.0126,2009,2019-08-07 16:20:58:197
4.5299,-9.0477,1.0416,-1.1446,0.0546,0.4988,0.0112,-0.0795,0.0044,2014,2019-08-07 16:20:58:202
4.396,-9.1002,1.2914,-1.1446,0.0546,0.4988,0.0112,-0.0795,0.0044,2019,2019-08-07 16:20:58:207
4.396,-9.1002,1.2914,-1.1446,0.0546,0.4988,0.0708,0.0867,0.0247,2024,2019-08-07 16:20:58:212
4.0802,-9.0477,1.315,-1.1446,0.0546,0.4988,0.0708,0.0867,0.0247,2030,2019-08-07 16:20:58:218
4.0802,-9.0477,1.315,-0.5224,-0.1006,0.36,0.1039,0.2028,0.0236,2033,2019-08-07 16:20:58:221
4.0802,-9.0477,1.315,-0.5224,-0.1006,0.36,0.1039,0.2028,0.0236,2039,2019-08-07 16:20:58:227
4.0802,-9.0477,1.315,-0.5224,-0.1006,0.36,0.1039,0.2028,0.0236,2044,2019-08-07 16:20:58:232
3.487,-8.8663,1.6167,-0.1106,-0.1849,0.0894,0.1092,0.2497,0.0087,2049,2019-08-07 16:20:58:237
3.487,-8.8663,1.6167,-0.1106,-0.1849,0.0894,0.1092,0.2497,0.0087,2054,2019-08-07 16:20:58:242
3.0851,-8.6992,2.0645,-0.1106,-0.1849,0.0894,0.1017,0.1868,-0.0052,2059,2019-08-07 16:20:58:247
3.0851,-8.6992,2.0645,0.4417,-0.4005,-0.3792,0.1017,0.1868,-0.0052,2064,2019-08-07 16:20:58:252
3.0851,-8.6992,2.0645,0.4417,-0.4005,-0.3792,0.0879,0.0079,-0.0179,2069,2019-08-07 16:20:58:257
2.9225,-8.6801,2.2012,0.4417,-0.4005,-0.3792,0.0879,0.0079,-0.0179,2074,2019-08-07 16:20:58:262
2.9225,-8.6801,2.2012,0.4417,-0.4005,-0.3792,0.0634,-0.1796,-0.0233,2080,2019-08-07 16:20:58:268
3.2717,-8.809,1.975,0.1014,-0.234,-0.2194,0.0634,-0.1796,-0.0233,2084,2019-08-07 16:20:58:272
3.2717,-8.809,1.975,0.1014,-0.234,-0.2194,0.0634,-0.1796,-0.0233,2089,2019-08-07 16:20:58:277
3.2717,-8.809,1.975,0.1014,-0.234,-0.2194,0.0272,-0.2957,-0.0233,2094,2019-08-07 16:20:58:282
3.6976,-8.9284,1.7346,-0.3165,-0.1129,0.0146,0.0272,-0.2957,-0.0233,2100,2019-08-07 16:20:58:288
3.6976,-8.9284,1.7346,-0.3165,-0.1129,0.0146,0.0176,-0.3064,-0.0243,2103,2019-08-07 16:20:58:291
3.6976,-8.9284,1.7346,-0.3165,-0.1129,0.0146,0.0176,-0.3064,-0.0243,2109,2019-08-07 16:20:58:297
4.1042,-9.0859,1.6403,-0.8387,0.1247,0.1018,0.0431,-0.2084,-0.0137,2114,2019-08-07 16:20:58:302
4.1042,-9.0859,1.6403,-0.8387,0.1247,0.1018,0.0431,-0.2084,-0.0137,2119,2019-08-07 16:20:58:307
4.1042,-9.0859,1.6403,-0.8387,0.1247,0.1018,0.0431,-0.2084,-0.0137,2124,2019-08-07 16:20:58:312
4.2696,-9.038,1.7294,-0.8387,0.1247,0.1018,0.0847,-0.0646,-0.0073,2128,2019-08-07 16:20:58:316
4.2696,-9.038,1.7294,-0.8387,0.1247,0.1018,0.0847,-0.0646,-0.0073,2134,2019-08-07 16:20:58:322
3.9778,-8.742,1.819,-0.6513,-0.2615,-0.0273,0.1007,0.1112,0.0034,2138,2019-08-07 16:20:58:326
3.9778,-8.742,1.819,-0.6513,-0.2615,-0.0273,0.1007,0.1112,0.0034,2144,2019-08-07 16:20:58:332
3.4706,-8.5749,2.0641,-0.6513,-0.2615,-0.0273,0.0634,0.1815,0.0129,2150,2019-08-07 16:20:58:338
3.4706,-8.5749,2.0641,-0.6513,-0.2615,-0.0273,0.0634,0.1815,0.0129,2153,2019-08-07 16:20:58:341
3.4706,-8.5749,2.0641,0.0425,-0.4445,-0.5341,0.0144,0.1389,0.0119,2159,2019-08-07 16:20:58:347
3.1931,-8.5797,2.5685,0.0425,-0.4445,-0.5341,0.0144,0.1389,0.0119,2165,2019-08-07 16:20:58:353
3.1931,-8.5797,2.5685,0.0425,-0.4445,-0.5341,-0.0144,0.0196,-0.0073,2168,2019-08-07 16:20:58:356
3.1931,-8.5797,2.5685,0.0425,-0.4445,-0.5341,-0.0144,0.0196,-0.0073,2174,2019-08-07 16:20:58:362
3.1883,-8.6895,2.4129,0.2117,-0.3386,-0.6325,-0.0453,-0.1232,-0.0126,2179,2019-08-07 16:20:58:367
3.1883,-8.6895,2.4129,0.2117,-0.3386,-0.6325,-0.0453,-0.1232,-0.0126,2184,2019-08-07 16:20:58:372
3.6093,-8.7086,2.1395,0.2117,-0.3386,-0.6325,-0.0453,-0.1232,-0.0126,2189,2019-08-07 16:20:58:377
3.6093,-8.7086,2.1395,0.2117,-0.3386,-0.6325,-0.0889,-0.2382,-0.002,2194,2019-08-07 16:20:58:382
3.6093,-8.7086,2.1395,-0.5341,-0.2341,-0.051,-0.0889,-0.2382,-0.002,2200,2019-08-07 16:20:58:388
4.1308,-8.8709,1.7577,-0.5341,-0.2341,-0.051,-0.0868,-0.1871,0.0097,2203,2019-08-07 16:20:58:391
4.1308,-8.8709,1.7577,-0.8343,-0.0773,0.0463,-0.0868,-0.1871,0.0097,2209,2019-08-07 16:20:58:397
4.3365,-8.9711,1.6021,-0.8343,-0.0773,0.0463,-0.0634,-0.0827,0.0183,2214,2019-08-07 16:20:58:402
4.3365,-8.9711,1.6021,-0.8343,-0.0773,0.0463,-0.0634,-0.0827,0.0183,2219,2019-08-07 16:20:58:407
4.3365,-8.9711,1.6021,-0.8343,-0.0773,0.0463,-0.0634,-0.0827,0.0183,2224,2019-08-07 16:20:58:412
4.1643,-9.0045,1.5927,-0.8009,-0.0404,0.1202,-0.0272,0.0622,0.0332,2229,2019-08-07 16:20:58:417
4.1643,-9.0045,1.5927,-0.8009,-0.0404,0.1202,-0.0272,0.0622,0.0332,2234,2019-08-07 16:20:58:422
4.1643,-9.0045,1.5927,-0.8009,-0.0404,0.1202,-0.0037,0.2295,0.0406,2239,2019-08-07 16:20:58:427
3.815,-8.9091,1.687,-0.8009,-0.0404,0.1202,-0.0037,0.2295,0.0406,2244,2019-08-07 16:20:58:432
3.815,-8.9091,1.687,-0.1989,-0.104,-0.0465,0.0027,0.3115,0.0353,2249,2019-08-07 16:20:58:437
3.815,-8.9091,1.687,-0.1989,-0.104,-0.0465,0.0027,0.3115,0.0353,2254,2019-08-07 16:20:58:442
3.2074,-8.89,2.0358,0.1943,-0.1431,-0.2844,-0.0016,0.3115,0.0311,2259,2019-08-07 16:20:58:447
3.2074,-8.89,2.0358,0.1943,-0.1431,-0.2844,-0.0016,0.3115,0.0311,2265,2019-08-07 16:20:58:453
3.2074,-8.89,2.0358,0.1943,-0.1431,-0.2844,-0.0016,0.3115,0.0311,2268,2019-08-07 16:20:58:456
2.882,-8.9281,2.2432,0.1943,-0.1431,-0.2844,-0.0154,0.2156,0.014,2274,2019-08-07 16:20:58:462
2.882,-8.9281,2.2432,0.5474,-0.1167,-0.4641,-0.0399,0.0761,-0.0094,2279,2019-08-07 16:20:58:467
2.882,-8.9281,2.2432,0.5474,-0.1167,-0.4641,-0.0399,0.0761,-0.0094,2283,2019-08-07 16:20:58:471
2.8438,-8.8995,2.0452,0.5474,-0.1167,-0.4641,-0.0399,0.0761,-0.0094,2289,2019-08-07 16:20:58:477
2.8438,-8.8995,2.0452,0.5474,-0.1167,-0.4641,-0.0623,-0.0433,-0.019,2293,2019-08-07 16:20:58:481
3.236,-8.9663,1.8095,0.1502,-0.0705,-0.0474,-0.0623,-0.0433,-0.019,2299,2019-08-07 16:20:58:487
3.236,-8.9663,1.8095,0.1502,-0.0705,-0.0474,-0.0921,-0.1455,-0.0275,2304,2019-08-07 16:20:58:492
3.236,-8.9663,1.8095,0.1502,-0.0705,-0.0474,-0.0921,-0.1455,-0.0275,2309,2019-08-07 16:20:58:497
3.6427,-9.0093,1.5172,0.1502,-0.0705,-0.0474,-0.0932,-0.1487,-0.0201,2313,2019-08-07 16:20:58:501
3.6427,-9.0093,1.5172,-0.4844,0.0428,0.3815,-0.0932,-0.1487,-0.0201,2319,2019-08-07 16:20:58:507
3.6427,-9.0093,1.5172,-0.4844,0.0428,0.3815,-0.0932,-0.1487,-0.0201,2324,2019-08-07 16:20:58:512
4.0015,-9.0045,1.3146,-0.4844,0.0428,0.3815,-0.0602,-0.0784,-0.0062,2329,2019-08-07 16:20:58:517
4.0015,-9.0045,1.3146,-0.4844,0.0428,0.3815,-0.0602,-0.0784,-0.0062,2333,2019-08-07 16:20:58:521
4.0015,-9.0045,1.3146,-0.5586,-0.0486,0.3683,-0.0176,0.0164,0.0172,2339,2019-08-07 16:20:58:527
3.9106,-8.9616,1.3617,-0.5586,-0.0486,0.3683,-0.0176,0.0164,0.0172,2344,2019-08-07 16:20:58:532
3.9106,-8.9616,1.3617,-0.4108,-0.1683,0.363,0.0101,0.0718,0.0279,2350,2019-08-07 16:20:58:538
3.724,-8.8518,1.3664,-0.4108,-0.1683,0.363,0.0101,0.0718,0.0279,2353,2019-08-07 16:20:58:541
3.724,-8.8518,1.3664,-0.4108,-0.1683,0.363,0.0133,0.0995,0.0385,2359,2019-08-07 16:20:58:547
3.724,-8.8518,1.3664,-0.4108,-0.1683,0.363,0.0133,0.0995,0.0385,2364,2019-08-07 16:20:58:552
3.4608,-8.8136,1.5738,-0.0314,-0.1605,0.0872,0.0133,0.0995,0.0385,2369,2019-08-07 16:20:58:557
3.4608,-8.8136,1.5738,-0.0314,-0.1605,0.0872,0.0101,0.0846,0.046,2374,2019-08-07 16:20:58:562
3.2455,-8.8518,1.7624,-0.0314,-0.1605,0.0872,0.0101,0.0846,0.046,2379,2019-08-07 16:20:58:567
3.2455,-8.8518,1.7624,-0.0314,-0.1605,0.0872,-0.0037,0.0377,0.047,2384,2019-08-07 16:20:58:572
3.2455,-8.8518,1.7624,0.2258,-0.1541,-0.1014,-0.0037,0.0377,0.047,2389,2019-08-07 16:20:58:577
3.1403,-8.9138,1.8991,0.2258,-0.1541,-0.1014,-0.025,-0.0358,0.0332,2394,2019-08-07 16:20:58:582
3.1403,-8.9138,1.8991,0.2258,-0.1541,-0.1014,-0.025,-0.0358,0.0332,2399,2019-08-07 16:20:58:587
3.1403,-8.9138,1.8991,0.2258,-0.1541,-0.1014,-0.0399,-0.1157,0.0215,2404,2019-08-07 16:20:58:592
3.3125,-8.952,1.8425,0.2258,-0.1541,-0.1014,-0.0399,-0.1157,0.0215,2409,2019-08-07 16:20:58:597
3.3125,-8.952,1.8425,-0.016,-0.0902,-0.0602,-0.0495,-0.1658,0.0108,2414,2019-08-07 16:20:58:602
3.3125,-8.952,1.8425,-0.016,-0.0902,-0.0602,-0.0495,-0.1658,0.0108,2419,2019-08-07 16:20:58:607
3.3125,-8.952,1.8425,-0.016,-0.0902,-0.0602,-0.0495,-0.1658,0.0108,2423,2019-08-07 16:20:58:611
3.6378,-8.9425,1.7152,-0.3971,-0.1063,-0.0445,-0.0591,-0.1839,0.0076,2430,2019-08-07 16:20:58:618
3.6378,-8.9425,1.7152,-0.3971,-0.1063,-0.0445,-0.0591,-0.1839,0.0076,2434,2019-08-07 16:20:58:622
3.6378,-8.9425,1.7152,-0.3971,-0.1063,-0.0445,-0.0591,-0.1839,0.0076,2440,2019-08-07 16:20:58:628
3.9775,-8.9043,1.6068,-0.3971,-0.1063,-0.0445,-0.0548,-0.137,0.0161,2444,2019-08-07 16:20:58:632
3.9775,-8.9043,1.6068,-0.3971,-0.1063,-0.0445,-0.0548,-0.137,0.0161,2449,2019-08-07 16:20:58:637
4.0301,-8.8947,1.7199,-0.6208,-0.1843,0.0247,-0.0559,-0.0891,0.0332,2454,2019-08-07 16:20:58:642
4.0301,-8.8947,1.7199,-0.6208,-0.1843,0.0247,-0.0559,-0.0891,0.0332,2461,2019-08-07 16:20:58:649
4.0301,-8.8947,1.7199,-0.6208,-0.1843,0.0247,-0.057,-0.0433,0.0502,2464,2019-08-07 16:20:58:652
3.9487,-8.9377,1.6633,-0.6208,-0.1843,0.0247,-0.057,-0.0433,0.0502,2468,2019-08-07 16:20:58:656
3.9487,-8.9377,1.6633,-0.5507,-0.1446,-0.0087,-0.0548,-0.0188,0.0673,2475,2019-08-07 16:20:58:663
3.8148,-8.9186,1.6775,-0.5507,-0.1446,-0.0087,-0.0548,-0.0188,0.0673,2479,2019-08-07 16:20:58:667
3.8148,-8.9186,1.6775,-0.5507,-0.1446,-0.0087,-0.0495,0.0047,0.0758,2484,2019-08-07 16:20:58:672
3.8148,-8.9186,1.6775,-0.5507,-0.1446,-0.0087,-0.0495,0.0047,0.0758,2489,2019-08-07 16:20:58:677
3.6234,-8.9854,1.7199,-0.24,-0.0736,-0.07,-0.041,0.01,0.0758,2494,2019-08-07 16:20:58:682
3.6234,-8.9854,1.7199,-0.24,-0.0736,-0.07,-0.041,0.01,0.0758,2500,2019-08-07 16:20:58:688
3.6234,-8.9854,1.7199,-0.24,-0.0736,-0.07,-0.0208,-0.0156,0.0598,2503,2019-08-07 16:20:58:691
3.5564,-9.1048,1.6822,-0.24,-0.0736,-0.07,-0.0208,-0.0156,0.0598,2509,2019-08-07 16:20:58:697
3.5564,-9.1048,1.6822,-0.1734,-0.0114,-0.0845,-0.0101,-0.0305,0.0353,2514,2019-08-07 16:20:58:702
3.5659,-8.9997,1.7199,-0.1734,-0.0114,-0.0845,-0.0101,-0.0305,0.0353,2519,2019-08-07 16:20:58:707
3.5659,-8.9997,1.7199,-0.1734,-0.0114,-0.0845,0.0037,-0.0475,0.0193,2524,2019-08-07 16:20:58:712
3.5659,-8.9997,1.7199,-0.1734,-0.0114,-0.0845,0.0037,-0.0475,0.0193,2529,2019-08-07 16:20:58:717
3.5276,-8.8995,1.7765,-0.1468,-0.132,-0.0771,0.0037,-0.0475,0.0193,2534,2019-08-07 16:20:58:722
3.5276,-8.8995,1.7765,-0.1468,-0.132,-0.0771,0.0037,-0.0592,0.0087,2539,2019-08-07 16:20:58:727
3.5276,-8.8995,1.7765,-0.1468,-0.132,-0.0771,0.0037,-0.0592,0.0087,2544,2019-08-07 16:20:58:732
3.5468,-8.8756,1.7717,-0.1468,-0.132,-0.0771,-0.0048,-0.0816,0.0119,2549,2019-08-07 16:20:58:737
3.5468,-8.8756,1.7717,-0.1496,-0.1796,-0.0805,-0.0048,-0.0816,0.0119,2554,2019-08-07 16:20:58:742
3.5468,-8.8756,1.7717,-0.1496,-0.1796,-0.0805,-0.024,-0.104,0.014,2559,2019-08-07 16:20:58:747
3.5659,-8.8852,1.6869,-0.1496,-0.1796,-0.0805,-0.024,-0.104,0.014,2565,2019-08-07 16:20:58:753
3.5659,-8.8852,1.6869,-0.1496,-0.1796,-0.0805,-0.024,-0.104,0.014,2568,2019-08-07 16:20:58:756
3.5659,-8.8852,1.6869,-0.2188,-0.0997,-0.0317,-0.0431,-0.1242,0.0183,2574,2019-08-07 16:20:58:762
3.6376,-8.9759,1.5832,-0.2188,-0.0997,-0.0317,-0.0431,-0.1242,0.0183,2579,2019-08-07 16:20:58:767
3.6376,-8.9759,1.5832,-0.2188,-0.0997,-0.0317,-0.0367,-0.1168,0.014,2583,2019-08-07 16:20:58:771
3.6472,-8.9806,1.5643,-0.2188,-0.0997,-0.0317,-0.0367,-0.1168,0.014,2589,2019-08-07 16:20:58:777
3.6472,-8.9806,1.5643,-0.3206,-0.0344,0.0568,-0.0197,-0.1029,0.0097,2594,2019-08-07 16:20:58:782
3.7668,-9.0618,1.4088,-0.3206,-0.0344,0.0568,-0.0197,-0.1029,0.0097,2599,2019-08-07 16:20:58:787
3.7668,-9.0618,1.4088,-0.3206,-0.0344,0.0568,5.0E-4,-0.0518,0.0023,2604,2019-08-07 16:20:58:792
3.7668,-9.0618,1.4088,-0.3206,-0.0344,0.0568,5.0E-4,-0.0518,0.0023,2609,2019-08-07 16:20:58:797
3.7094,-8.9186,1.5125,-0.3261,-0.1483,0.0942,0.025,0.0175,-0.0116,2614,2019-08-07 16:20:58:802
3.7094,-8.9186,1.5125,-0.3261,-0.1483,0.0942,0.025,0.0175,-0.0116,2619,2019-08-07 16:20:58:807
3.7094,-8.9186,1.5125,-0.3261,-0.1483,0.0942,0.0336,0.0643,-0.019,2624,2019-08-07 16:20:58:812
3.4749,-8.8135,1.635,-0.3261,-0.1483,0.0942,0.0336,0.0643,-0.019,2629,2019-08-07 16:20:58:817
3.4749,-8.8135,1.635,-0.0595,-0.2838,-0.0332,0.0229,0.0633,-0.0243,2634,2019-08-07 16:20:58:822
3.4749,-8.8135,1.635,-0.0595,-0.2838,-0.0332,0.0229,0.0633,-0.0243,2639,2019-08-07 16:20:58:827
3.4127,-8.7992,1.6822,-0.0595,-0.2838,-0.0332,-0.0026,0.0185,-0.0222,2644,2019-08-07 16:20:58:832
3.4127,-8.7992,1.6822,-0.0595,-0.2838,-0.0332,-0.0026,0.0185,-0.0222,2650,2019-08-07 16:20:58:838
3.4127,-8.7992,1.6822,-0.0461,-0.1956,-0.2406,-0.0026,0.0185,-0.0222,2654,2019-08-07 16:20:58:842
3.4653,-8.8517,1.833,-0.0461,-0.1956,-0.2406,-0.0186,-0.0326,-0.0243,2659,2019-08-07 16:20:58:847
3.4653,-8.8517,1.833,-0.0461,-0.1956,-0.2406,-0.0325,-0.0827,-0.0222,2665,2019-08-07 16:20:58:853
3.561,-8.9042,1.7057,-0.0461,-0.1956,-0.2406,-0.0325,-0.0827,-0.0222,2668,2019-08-07 16:20:58:856
3.561,-8.9042,1.7057,-0.0461,-0.1956,-0.2406,-0.0325,-0.0827,-0.0222,2674,2019-08-07 16:20:58:862
3.561,-8.9042,1.7057,-0.2252,-0.1322,-0.0131,-0.0399,-0.0986,-0.018,2678,2019-08-07 16:20:58:866
3.6662,-8.9329,1.5879,-0.2252,-0.1322,-0.0131,-0.0399,-0.0986,-0.018,2685,2019-08-07 16:20:58:873
3.6662,-8.9329,1.5879,-0.2252,-0.1322,-0.0131,-0.0399,-0.0901,2.0E-4,2689,2019-08-07 16:20:58:877
3.6662,-8.9329,1.5879,-0.2524,-0.0322,0.0948,-0.0399,-0.0901,2.0E-4,2694,2019-08-07 16:20:58:882
3.7188,-9.0188,1.4135,-0.2524,-0.0322,0.0948,-0.0144,-0.0699,0.0076,2699,2019-08-07 16:20:58:887
3.7188,-9.0188,1.4135,-0.2524,-0.0322,0.0948,-0.0144,-0.0699,0.0076,2704,2019-08-07 16:20:58:892
3.6949,-9.1668,1.5219,-0.2524,-0.0322,0.0948,-0.0016,-0.0539,0.0012,2709,2019-08-07 16:20:58:897
3.6949,-9.1668,1.5219,-0.2443,0.1444,0.0548,-0.0016,-0.0539,0.0012,2715,2019-08-07 16:20:58:903
3.6949,-9.1668,1.5219,-0.2443,0.1444,0.0548,0.0336,-0.022,-0.019,2719,2019-08-07 16:20:58:907
3.6279,-9.1907,1.4842,-0.2443,0.1444,0.0548,0.0336,-0.022,-0.019,2723,2019-08-07 16:20:58:911
3.6279,-9.1907,1.4842,-0.2443,0.1444,0.0548,0.0442,-0.0028,-0.0393,2730,2019-08-07 16:20:58:918
3.6423,-9.0522,1.6256,-0.2276,-0.0048,-0.0297,0.0442,-0.0028,-0.0393,2734,2019-08-07 16:20:58:922
3.6423,-9.0522,1.6256,-0.2276,-0.0048,-0.0297,0.0442,-0.0028,-0.0393,2739,2019-08-07 16:20:58:927
3.6423,-9.0522,1.6256,-0.2276,-0.0048,-0.0297,0.0613,0.0196,-0.051,2743,2019-08-07 16:20:58:931
3.5801,-8.9758,1.6774,-0.1606,-0.0783,-0.0754,0.0613,0.0196,-0.051,2750,2019-08-07 16:20:58:938
3.5801,-8.9758,1.6774,-0.1606,-0.0783,-0.0754,0.0559,0.0015,-0.0552,2754,2019-08-07 16:20:58:942
3.5035,-8.8613,1.6916,-0.1606,-0.0783,-0.0754,0.0559,0.0015,-0.0552,2758,2019-08-07 16:20:58:946
3.5035,-8.8613,1.6916,-0.0493,-0.1629,-0.1302,0.025,-0.0379,-0.0488,2764,2019-08-07 16:20:58:952
3.5035,-8.8613,1.6916,-0.0493,-0.1629,-0.1302,0.025,-0.0379,-0.0488,2769,2019-08-07 16:20:58:957
3.5848,-8.9281,1.767,-0.0493,-0.1629,-0.1302,0.025,-0.0379,-0.0488,2773,2019-08-07 16:20:58:961
3.5848,-8.9281,1.767,-0.2062,-0.1273,-0.1394,0.0048,-0.0773,-0.0393,2779,2019-08-07 16:20:58:967
3.8479,-9.014,1.7246,-0.2062,-0.1273,-0.1394,0.0048,-0.0773,-0.0393,2784,2019-08-07 16:20:58:972
3.8479,-9.014,1.7246,-0.2062,-0.1273,-0.1394,0.0027,-0.1029,-0.0243,2789,2019-08-07 16:20:58:977
3.8479,-9.014,1.7246,-0.2062,-0.1273,-0.1394,0.0027,-0.1029,-0.0243,2794,2019-08-07 16:20:58:982
3.9867,-9.0045,1.701,-0.5395,-0.0381,-0.093,0.0027,-0.1029,-0.0243,2799,2019-08-07 16:20:58:987
3.9867,-9.0045,1.701,-0.5395,-0.0381,-0.093,0.0155,-0.0741,-0.002,2804,2019-08-07 16:20:58:992
4.0154,-9.0045,1.5313,-0.5395,-0.0381,-0.093,0.0155,-0.0741,-0.002,2809,2019-08-07 16:20:58:997
4.0154,-9.0045,1.5313,-0.5728,-0.0746,0.0659,0.024,-0.0379,0.0204,2814,2019-08-07 16:20:59:002
4.0154,-9.0045,1.5313,-0.5728,-0.0746,0.0659,0.024,-0.0379,0.0204,2819,2019-08-07 16:20:59:007
4.0154,-9.0045,1.5313,-0.5728,-0.0746,0.0659,0.024,-0.0379,0.0204,2824,2019-08-07 16:20:59:012
4.0488,-9.0379,1.5926,-0.5728,-0.0746,0.0659,0.0464,0.0398,0.0289,2829,2019-08-07 16:20:59:017
4.0488,-9.0379,1.5926,-0.3225,-0.0308,-0.007,0.0464,0.0398,0.0289,2834,2019-08-07 16:20:59:022
4.0488,-9.0379,1.5926,-0.3225,-0.0308,-0.007,0.0698,0.1069,0.0236,2839,2019-08-07 16:20:59:027
3.6469,-8.9663,1.6491,-0.3225,-0.0308,-0.007,0.0698,0.1069,0.0236,2844,2019-08-07 16:20:59:032
3.6469,-8.9663,1.6491,-0.3225,-0.0308,-0.007,0.0655,0.1038,0.0204,2850,2019-08-07 16:20:59:038
3.6469,-8.9663,1.6491,-0.3225,-0.0308,-0.007,0.0655,0.1038,0.0204,2853,2019-08-07 16:20:59:041
3.379,-8.9711,1.9319,0.0632,-0.0678,-0.293,0.0506,0.075,0.0129,2859,2019-08-07 16:20:59:047
3.379,-8.9711,1.9319,0.0632,-0.0678,-0.293,0.0506,0.075,0.0129,2865,2019-08-07 16:20:59:053
3.312,-8.9424,1.9838,0.0632,-0.0678,-0.293,0.0293,0.0164,0.0012,2868,2019-08-07 16:20:59:056
3.312,-8.9424,1.9838,0.0632,-0.0678,-0.293,0.0293,0.0164,0.0012,2874,2019-08-07 16:20:59:062
3.312,-8.9424,1.9838,0.0846,-0.143,-0.2431,0.0293,0.0164,0.0012,2879,2019-08-07 16:20:59:067
3.4412,-8.866,1.8612,0.0846,-0.143,-0.2431,0.0123,-0.0337,-0.0116,2884,2019-08-07 16:20:59:072
3.4412,-8.866,1.8612,0.0846,-0.143,-0.2431,0.0123,-0.0337,-0.0116,2889,2019-08-07 16:20:59:077
3.599,-8.8469,1.7387,0.0846,-0.143,-0.2431,-0.0037,-0.0784,-0.0126,2893,2019-08-07 16:20:59:081
3.599,-8.8469,1.7387,-0.1977,-0.1749,-0.0141,-0.0037,-0.0784,-0.0126,2900,2019-08-07 16:20:59:088
3.599,-8.8469,1.7387,-0.1977,-0.1749,-0.0141,-0.0026,-0.0699,-0.018,2904,2019-08-07 16:20:59:092
3.7617,-8.8183,1.5973,-0.1977,-0.1749,-0.0141,-0.0026,-0.0699,-0.018,2909,2019-08-07 16:20:59:097
3.7617,-8.8183,1.5973,-0.1977,-0.1749,-0.0141,-0.0016,-0.0496,-0.0169,2914,2019-08-07 16:20:59:102
3.7617,-8.8183,1.5973,-0.3524,-0.2588,0.1126,-0.0016,-0.0496,-0.0169,2919,2019-08-07 16:20:59:107
3.8382,-8.8565,1.4606,-0.3524,-0.2588,0.1126,-0.0016,-0.0496,-0.0169,2923,2019-08-07 16:20:59:111
3.8382,-8.8565,1.4606,-0.3524,-0.2588,0.1126,0.0048,-0.0038,-0.0116,2929,2019-08-07 16:20:59:117
3.7712,-8.866,1.5218,-0.3524,-0.2588,0.1126,0.0176,0.0313,-0.0073,2934,2019-08-07 16:20:59:122
3.7712,-8.866,1.5218,-0.3087,-0.1278,0.0845,0.0176,0.0313,-0.0073,2939,2019-08-07 16:20:59:127
3.7712,-8.866,1.5218,-0.3087,-0.1278,0.0845,0.0261,0.0665,-0.0094,2944,2019-08-07 16:20:59:132
3.6564,-8.9424,1.5642,-0.3087,-0.1278,0.0845,0.0261,0.0665,-0.0094,2949,2019-08-07 16:20:59:137
3.6564,-8.9424,1.5642,-0.3087,-0.1278,0.0845,0.0261,0.0665,-0.0094,2953,2019-08-07 16:20:59:141
3.4746,-8.9328,1.6585,-0.0154,-0.0972,-0.0065,0.0229,0.0675,-0.0148,2959,2019-08-07 16:20:59:147
3.4746,-8.9328,1.6585,-0.0154,-0.0972,-0.0065,0.025,0.043,-0.0105,2965,2019-08-07 16:20:59:153
3.4746,-8.9328,1.6585,-0.0154,-0.0972,-0.0065,0.025,0.043,-0.0105,2969,2019-08-07 16:20:59:157
3.331,-8.9233,1.7575,-0.0154,-0.0972,-0.0065,0.025,0.043,-0.0105,2974,2019-08-07 16:20:59:162
3.331,-8.9233,1.7575,0.1481,-0.0764,-0.0839,0.0219,-0.007,-0.0148,2979,2019-08-07 16:20:59:167
3.331,-8.9949,1.7009,0.1481,-0.0764,-0.0839,0.0219,-0.007,-0.0148,2984,2019-08-07 16:20:59:172
3.331,-8.9949,1.7009,0.1481,-0.0764,-0.0839,0.0112,-0.0678,-0.0211,2989,2019-08-07 16:20:59:177
3.331,-8.9949,1.7009,0.1481,-0.0764,-0.0839,0.0112,-0.0678,-0.0211,2994,2019-08-07 16:20:59:182
3.5128,-8.9042,1.6632,-0.0855,-0.0983,-0.0378,0.0112,-0.0678,-0.0211,2999,2019-08-07 16:20:59:187
3.5128,-8.9042,1.6632,-0.0855,-0.0983,-0.0378,0.008,-0.1061,-0.0211,3004,2019-08-07 16:20:59:192
3.6611,-8.866,1.5831,-0.0855,-0.0983,-0.0378,0.008,-0.1061,-0.0211,3010,2019-08-07 16:20:59:198
3.6611,-8.866,1.5831,-0.0855,-0.0983,-0.0378,0.008,-0.1061,-0.0211,3014,2019-08-07 16:20:59:202
3.6611,-8.866,1.5831,-0.3156,-0.0913,0.045,0.0144,-0.1178,-0.0148,3018,2019-08-07 16:20:59:206
3.8668,-8.9137,1.6255,-0.3156,-0.0913,0.045,0.0144,-0.1178,-0.0148,3024,2019-08-07 16:20:59:212
3.8668,-8.9137,1.6255,-0.3156,-0.0913,0.045,0.0261,-0.1104,-0.0105,3029,2019-08-07 16:20:59:217
3.8668,-8.9137,1.6255,-0.3156,-0.0913,0.045,0.0261,-0.1104,-0.0105,3034,2019-08-07 16:20:59:222
4.0151,-8.8374,1.5831,-0.5305,-0.1837,0.0646,0.0261,-0.1104,-0.0105,3039,2019-08-07 16:20:59:227
4.0151,-8.8374,1.5831,-0.5305,-0.1837,0.0646,0.0325,-0.0816,-0.0041,3045,2019-08-07 16:20:59:233
4.0151,-8.8374,1.5831,-0.5305,-0.1837,0.0646,0.0325,-0.0816,-0.0041,3049,2019-08-07 16:20:59:237
4.0534,-8.7992,1.5642,-0.5305,-0.1837,0.0646,0.0325,-0.0283,-0.0041,3054,2019-08-07 16:20:59:242
4.0534,-8.7992,1.5642,-0.4852,-0.2188,-0.0181,0.0325,-0.0283,-0.0041,3059,2019-08-07 16:20:59:247
3.9242,-8.7753,1.6349,-0.4852,-0.2188,-0.0181,0.0272,0.0207,0.0108,3064,2019-08-07 16:20:59:252
3.9242,-8.7753,1.6349,-0.4852,-0.2188,-0.0181,0.0272,0.0207,0.0108,3069,2019-08-07 16:20:59:257
3.9242,-8.7753,1.6349,-0.4852,-0.2188,-0.0181,0.0144,0.0611,0.0183,3074,2019-08-07 16:20:59:262
3.6993,-8.7753,1.7245,-0.1707,-0.2466,-0.0817,0.0144,0.0611,0.0183,3080,2019-08-07 16:20:59:268
3.6993,-8.7753,1.7245,-0.1707,-0.2466,-0.0817,-0.0016,0.0793,0.0193,3084,2019-08-07 16:20:59:272
3.4553,-8.8135,1.7999,-0.1707,-0.2466,-0.0817,-0.0016,0.0793,0.0193,3089,2019-08-07 16:20:59:277
3.4553,-8.8135,1.7999,-0.1707,-0.2466,-0.0817,-0.0229,0.0643,0.0215,3094,2019-08-07 16:20:59:282
3.4553,-8.8135,1.7999,0.0724,-0.1097,-0.1299,-0.0229,0.0643,0.0215,3099,2019-08-07 16:20:59:287
3.3931,-8.9663,1.8423,0.0724,-0.1097,-0.1299,-0.0399,0.0228,0.014,3104,2019-08-07 16:20:59:292
3.3931,-8.9663,1.8423,0.0724,-0.1097,-0.1299,-0.0399,0.0228,0.014,3108,2019-08-07 16:20:59:296
3.3883,-8.8755,1.8518,0.0724,-0.1097,-0.1299,-0.0421,-0.0102,0.0012,3114,2019-08-07 16:20:59:302
3.3883,-8.8755,1.8518,0.027,-0.2022,-0.1442,-0.0421,-0.0102,0.0012,3119,2019-08-07 16:20:59:307
3.3883,-8.8755,1.8518,0.027,-0.2022,-0.1442,-0.0442,-0.039,-0.0105,3124,2019-08-07 16:20:59:312
3.5475,-8.8232,1.687,0.027,-0.2022,-0.1442,-0.0442,-0.039,-0.0105,3128,2019-08-07 16:20:59:316
3.5475,-8.8232,1.687,0.027,-0.2022,-0.1442,-0.0421,-0.0507,-0.0222,3134,2019-08-07 16:20:59:322
3.5475,-8.8232,1.687,0.027,-0.2022,-0.1442,-0.0421,-0.0507,-0.0222,3138,2019-08-07 16:20:59:326
3.7676,-8.8232,1.6635,-0.2798,-0.197,-0.0181,-0.0421,-0.0507,-0.0222,3144,2019-08-07 16:20:59:332
3.7676,-8.8232,1.6635,-0.2798,-0.197,-0.0181,-0.0357,-0.0475,-0.0318,3149,2019-08-07 16:20:59:337
3.7676,-8.8232,1.6635,-0.2798,-0.197,-0.0181,-0.0357,-0.0475,-0.0318,3153,2019-08-07 16:20:59:341
3.9781,-8.7993,1.5598,-0.5326,-0.2089,0.0913,-0.0229,-0.0156,-0.0275,3159,2019-08-07 16:20:59:347
3.9781,-8.7993,1.5598,-0.5326,-0.2089,0.0913,-0.0229,-0.0156,-0.0275,3163,2019-08-07 16:20:59:351
4.0307,-8.8614,1.5645,-0.5326,-0.2089,0.0913,-0.0154,0.0121,-0.0179,3169,2019-08-07 16:20:59:357
4.0307,-8.8614,1.5645,-0.5326,-0.2089,0.0913,-0.0154,0.0121,-0.0179,3174,2019-08-07 16:20:59:362
4.0259,-8.847,1.5221,-0.5214,-0.1258,0.0885,-0.0112,0.0217,-9.0E-4,3179,2019-08-07 16:20:59:367
4.0259,-8.847,1.5221,-0.5214,-0.1258,0.0885,-0.0112,0.0217,-9.0E-4,3184,2019-08-07 16:20:59:372
4.0259,-8.847,1.5221,-0.5214,-0.1258,0.0885,-0.0112,0.0217,-9.0E-4,3189,2019-08-07 16:20:59:377
3.8728,-8.9568,1.687,-0.5214,-0.1258,0.0885,-0.0037,0.0409,0.0151,3193,2019-08-07 16:20:59:381
3.8728,-8.9568,1.687,-0.2975,-0.0543,-0.0798,-0.0069,0.0281,0.0289,3199,2019-08-07 16:20:59:387
3.6958,-8.9903,1.6823,-0.2975,-0.0543,-0.0798,-0.0069,0.0281,0.0289,3204,2019-08-07 16:20:59:392
3.6958,-8.9903,1.6823,-0.2975,-0.0543,-0.0798,-0.0069,0.0281,0.0289,3209,2019-08-07 16:20:59:397
3.6958,-8.9903,1.6823,-0.2975,-0.0543,-0.0798,-0.0144,0.0111,0.0374,3214,2019-08-07 16:20:59:402
3.0308,-8.8041,1.5362,-0.2975,-0.0543,-0.0798,-0.0144,0.0111,0.0374,3219,2019-08-07 16:20:59:407
3.0308,-8.8041,1.5362,0.505,-0.2013,0.0488,-0.1209,-0.2499,0.0598,3224,2019-08-07 16:20:59:412
3.0308,-8.8041,1.5362,0.505,-0.2013,0.0488,-0.1209,-0.2499,0.0598,3229,2019-08-07 16:20:59:417
3.5284,-9.038,1.9746,0.505,-0.2013,0.0488,-0.1092,-0.2648,0.0513,3234,2019-08-07 16:20:59:422
3.5284,-9.038,1.9746,0.505,-0.2013,0.0488,-0.1092,-0.2648,0.0513,3239,2019-08-07 16:20:59:427
3.7532,-8.9521,1.6871,-0.1989,0.0259,-0.2184,-0.0431,-0.2808,0.0172,3244,2019-08-07 16:20:59:432
3.7532,-8.9521,1.6871,-0.1989,0.0259,-0.2184,-0.0431,-0.2808,0.0172,3249,2019-08-07 16:20:59:437
3.7532,-8.9521,1.6871,-0.1989,0.0259,-0.2184,0.0165,-0.1785,0.0204,3254,2019-08-07 16:20:59:442
4.2317,-8.9234,1.244,-0.1989,0.0259,-0.2184,0.0165,-0.1785,0.0204,3259,2019-08-07 16:20:59:447
4.2317,-8.9234,1.244,-0.8134,-0.1125,0.3543,0.0293,-0.0113,0.0151,3264,2019-08-07 16:20:59:452
4.2317,-8.9234,1.244,-0.8134,-0.1125,0.3543,0.0293,-0.0113,0.0151,3269,2019-08-07 16:20:59:457
4.2077,-8.8327,1.4938,-0.8134,-0.1125,0.3543,0.0581,0.1986,0.0279,3274,2019-08-07 16:20:59:462
4.2077,-8.8327,1.4938,-0.8134,-0.1125,0.3543,0.0581,0.1986,0.0279,3278,2019-08-07 16:20:59:466
4.3991,-8.933,1.5032,-0.9448,-0.0437,0.1068,0.0847,0.3615,0.0204,3284,2019-08-07 16:20:59:472
4.3991,-8.933,1.5032,-0.9448,-0.0437,0.1068,0.0847,0.3615,0.0204,3288,2019-08-07 16:20:59:476
4.3991,-8.933,1.5032,-0.9448,-0.0437,0.1068,0.0027,0.3264,0.014,3294,2019-08-07 16:20:59:482
3.3275,-8.7993,1.5409,-0.9448,-0.0437,0.1068,0.0027,0.3264,0.014,3299,2019-08-07 16:20:59:487
3.3275,-8.7993,1.5409,0.282,-0.1243,-0.3253,-0.0431,0.2966,0.0321,3304,2019-08-07 16:20:59:492
3.1504,-9.0284,2.2857,0.282,-0.1243,-0.3253,-0.0431,0.2966,0.0321,3309,2019-08-07 16:20:59:497
3.1504,-9.0284,2.2857,0.282,-0.1243,-0.3253,-0.0165,0.1719,0.0044,3314,2019-08-07 16:20:59:502
3.1504,-9.0284,2.2857,0.282,-0.1243,-0.3253,-0.0165,0.1719,0.0044,3319,2019-08-07 16:20:59:507
2.9878,-8.9377,2.3187,0.4892,-0.0881,-0.6817,0.0027,0.0398,-0.0084,3324,2019-08-07 16:20:59:512
2.9878,-8.9377,2.3187,0.4892,-0.0881,-0.6817,0.0027,0.0398,-0.0084,3329,2019-08-07 16:20:59:517
3.337,-8.8423,1.9369,0.4892,-0.0881,-0.6817,-0.0101,-0.1221,-0.019,3334,2019-08-07 16:20:59:522
3.337,-8.8423,1.9369,0.4892,-0.0881,-0.6817,-0.0101,-0.1221,-0.019,3339,2019-08-07 16:20:59:527