ACCELEROMETER X (m/s²),ACCELEROMETER Y (m/s²),ACCELEROMETER Z (m/s²),LINEAR ACCELERATION X (m/s²),LINEAR ACCELERATION Y (m/s²),LINEAR ACCELERATION Z (m/s²),GYROSCOPE X (rad/s),GYROSCOPE Y (rad/s),GYROSCOPE Z (rad/s),Time since start in ms ,YYYY-MO-DD HH-MI-SS_SSS
3.0939,-8.9722,2.1182,0.0146,-0.0911,0.1113,0.0144,0.0164,0.0066,3,2019-08-07 16:19:46:134
3.0939,-8.9722,2.1182,0.0146,-0.0911,0.1113,0.0144,0.0164,0.0066,8,2019-08-07 16:19:46:139
3.0939,-8.9722,2.1182,0.0146,-0.0911,0.1113,0.025,0.0078,-0.003,12,2019-08-07 16:19:46:143
3.0843,-8.9865,2.1748,0.0043,-0.0665,0.0023,0.025,0.0078,-0.003,18,2019-08-07 16:19:46:149
3.0843,-8.9865,2.1748,0.0043,-0.0665,0.0023,0.0229,-0.0113,-0.0083,22,2019-08-07 16:19:46:153
3.0795,-8.9483,2.1795,0.0043,-0.0665,0.0023,0.0229,-0.0113,-0.0083,28,2019-08-07 16:19:46:159
3.0795,-8.9483,2.1795,-0.0272,-0.1129,0.0332,0.0144,-0.0294,-0.0083,34,2019-08-07 16:19:46:165
3.0795,-8.9483,2.1795,-0.0272,-0.1129,0.0332,0.0144,-0.0294,-0.0083,38,2019-08-07 16:19:46:169
3.1226,-9.0104,2.2031,-0.0272,-0.1129,0.0332,0.0059,-0.0358,-0.0083,43,2019-08-07 16:19:46:174
3.1226,-9.0104,2.2031,-0.0272,-0.1129,0.0332,0.0059,-0.0358,-0.0083,49,2019-08-07 16:19:46:180
3.1608,-8.9292,2.1889,-0.0272,-0.1129,0.0332,-0.0016,-0.0305,-0.004,52,2019-08-07 16:19:46:183
3.1608,-8.9292,2.1889,-0.067,-0.0787,0.0036,-0.0016,-0.0305,-0.004,58,2019-08-07 16:19:46:189
3.1608,-8.9292,2.1889,-0.067,-0.0787,0.0036,0.0037,-0.0177,-0.0062,62,2019-08-07 16:19:46:193
3.1991,-8.9865,2.1276,-0.067,-0.0787,0.0036,0.0037,-0.0177,-0.0062,68,2019-08-07 16:19:46:199
3.1991,-8.9865,2.1276,-0.067,-0.0787,0.0036,0.0037,-0.0177,-0.0062,72,2019-08-07 16:19:46:203
3.1273,-8.9817,2.1229,-0.0507,-0.1068,0.0456,0.0059,0.0185,-0.0062,78,2019-08-07 16:19:46:209
3.1273,-8.9817,2.1229,-0.0507,-0.1068,0.0456,0.0059,0.0185,-0.0062,83,2019-08-07 16:19:46:214
3.1273,-8.9817,2.1229,-0.0507,-0.1068,0.0456,0.0197,0.0334,-0.0062,88,2019-08-07 16:19:46:219
3.0747,-8.9388,2.2926,-0.0507,-0.1068,0.0456,0.0197,0.0334,-0.0062,93,2019-08-07 16:19:46:224
3.0747,-8.9388,2.2926,0.0691,-0.1008,-0.0298,0.0261,0.0281,-0.0189,98,2019-08-07 16:19:46:229
2.9599,-8.934,2.1795,0.0691,-0.1008,-0.0298,0.0261,0.0281,-0.0189,103,2019-08-07 16:19:46:234
2.9599,-8.934,2.1795,0.0691,-0.1008,-0.0298,0.0261,0.0281,-0.0189,107,2019-08-07 16:19:46:238
2.9599,-8.934,2.1795,0.0691,-0.1008,-0.0298,0.0176,0.0121,-0.02,113,2019-08-07 16:19:46:244
2.9742,-8.9197,2.2832,0.1235,-0.1275,-0.095,0.0176,0.0121,-0.02,119,2019-08-07 16:19:46:250
2.9742,-8.9197,2.2832,0.1235,-0.1275,-0.095,0.009,-0.0294,-0.0157,123,2019-08-07 16:19:46:254
2.9742,-9.0151,2.2643,0.1235,-0.1275,-0.095,0.009,-0.0294,-0.0157,128,2019-08-07 16:19:46:259
3.0556,-9.0151,2.2643,0.1235,-0.1275,-0.095,0.0048,-0.0465,-0.0179,133,2019-08-07 16:19:46:264
3.0556,-9.0151,2.2643,-0.0301,-0.045,-0.0339,0.0048,-0.0465,-0.0179,138,2019-08-07 16:19:46:269
3.1273,-8.996,2.1512,-0.0301,-0.045,-0.0339,0.0016,-0.0475,-0.0147,143,2019-08-07 16:19:46:274
3.1273,-8.996,2.1512,-0.0301,-0.045,-0.0339,0.0016,-0.0475,-0.0147,148,2019-08-07 16:19:46:279
3.1273,-8.996,2.1512,-0.0301,-0.045,-0.0339,-0.0091,-0.0241,-0.003,153,2019-08-07 16:19:46:284
3.2857,-8.977,2.0476,-0.179,-0.0681,0.1367,-0.0091,-0.0241,-0.003,158,2019-08-07 16:19:46:289
3.2857,-8.977,2.0476,-0.179,-0.0681,0.1367,-0.0091,-0.0241,-0.003,163,2019-08-07 16:19:46:294
3.2857,-8.977,2.0476,-0.179,-0.0681,0.1367,-0.0048,0.0047,-0.004,168,2019-08-07 16:19:46:299
3.281,-9.0438,2.1324,-0.179,-0.0681,0.1367,-0.0048,0.0047,-0.004,172,2019-08-07 16:19:46:303
3.281,-9.0438,2.1324,-0.1155,-0.0249,0.0178,0.0048,0.0302,-0.004,178,2019-08-07 16:19:46:309
3.2044,-8.9579,2.1607,-0.1155,-0.0249,0.0178,0.0048,0.0302,-0.004,183,2019-08-07 16:19:46:314
3.2044,-8.9579,2.1607,-0.1155,-0.0249,0.0178,0.0122,0.0238,-0.0115,187,2019-08-07 16:19:46:318
3.2044,-8.9579,2.1607,-0.1155,-0.0249,0.0178,0.0122,0.0238,-0.0115,193,2019-08-07 16:19:46:324
3.1231,-8.9102,2.2644,4.0E-4,-0.1525,-0.0161,0.0197,0.0047,-0.0125,198,2019-08-07 16:19:46:329
3.1231,-8.9102,2.2644,4.0E-4,-0.1525,-0.0161,0.0197,0.0047,-0.0125,203,2019-08-07 16:19:46:334
3.1231,-8.8863,2.2597,4.0E-4,-0.1525,-0.0161,0.0197,0.0047,-0.0125,208,2019-08-07 16:19:46:339
3.1231,-8.8863,2.2597,4.0E-4,-0.1525,-0.0161,0.0186,-0.0156,-0.0189,213,2019-08-07 16:19:46:344
3.1231,-8.8863,2.2597,-0.0721,-0.136,-0.0552,0.0186,-0.0156,-0.0189,217,2019-08-07 16:19:46:348
3.1948,-8.8911,2.2079,-0.0721,-0.136,-0.0552,0.0154,-0.0209,-0.02,223,2019-08-07 16:19:46:354
3.1948,-8.8911,2.2079,-0.0721,-0.136,-0.0552,0.0154,-0.0209,-0.02,227,2019-08-07 16:19:46:358
3.2331,-8.9436,2.222,-0.0721,-0.136,-0.0552,0.009,-0.022,-0.0243,233,2019-08-07 16:19:46:364
3.2331,-8.9436,2.222,-0.0518,-0.0668,-0.0397,0.009,-0.022,-0.0243,238,2019-08-07 16:19:46:369
3.2331,-8.9436,2.222,-0.0518,-0.0668,-0.0397,0.0048,-0.0017,-0.02,243,2019-08-07 16:19:46:374
3.2283,-8.977,2.1984,-0.0518,-0.0668,-0.0397,0.0048,-0.0017,-0.02,249,2019-08-07 16:19:46:380
3.2283,-8.977,2.1984,-0.0518,-0.0668,-0.0397,0.0069,0.0078,-0.0136,252,2019-08-07 16:19:46:383
3.2283,-8.977,2.1984,-0.0518,-0.0668,-0.0397,0.0069,0.0078,-0.0136,258,2019-08-07 16:19:46:389
3.1422,-8.9722,2.1513,-0.0193,-0.0652,0.0414,0.0048,0.011,-0.004,263,2019-08-07 16:19:46:394
3.1422,-8.9722,2.1513,-0.0193,-0.0652,0.0414,0.0048,0.011,-0.004,268,2019-08-07 16:19:46:399
3.0992,-8.9866,2.2644,-0.0193,-0.0652,0.0414,0.0101,0.0142,-0.0019,272,2019-08-07 16:19:46:403
3.0992,-8.9866,2.2644,0.0573,-0.098,-0.0788,0.0101,0.0142,-0.0019,278,2019-08-07 16:19:46:409
3.0992,-8.9866,2.2644,0.0573,-0.098,-0.0788,0.0101,0.0142,-0.0019,283,2019-08-07 16:19:46:414
3.0465,-8.8958,2.222,0.0573,-0.098,-0.0788,0.024,-0.0092,-8.0E-4,288,2019-08-07 16:19:46:419
3.0465,-8.8958,2.222,0.0573,-0.098,-0.0788,0.024,-0.0092,-8.0E-4,293,2019-08-07 16:19:46:424
3.2044,-8.8624,2.255,-0.0806,-0.1732,-0.056,0.0208,-0.0145,-8.0E-4,298,2019-08-07 16:19:46:429
3.2044,-8.8624,2.255,-0.0806,-0.1732,-0.056,0.0208,-0.0145,-8.0E-4,303,2019-08-07 16:19:46:434
3.2044,-8.8624,2.255,-0.0806,-0.1732,-0.056,0.009,-0.0071,2.0E-4,307,2019-08-07 16:19:46:438
3.1949,-8.8958,2.2079,-0.0806,-0.1732,-0.056,0.009,-0.0071,2.0E-4,313,2019-08-07 16:19:46:444
3.1949,-8.8958,2.2079,-0.0936,-0.1199,-0.0028,-0.0027,0.0047,-0.0051,319,2019-08-07 16:19:46:450
3.2044,-8.9293,2.1325,-0.0936,-0.1199,-0.0028,-0.0027,0.0047,-0.0051,323,2019-08-07 16:19:46:454
3.2044,-8.9293,2.1325,-0.0936,-0.1199,-0.0028,-0.0091,0.0217,-0.0019,328,2019-08-07 16:19:46:459
3.2044,-8.9293,2.1325,-0.0936,-0.1199,-0.0028,-0.0091,0.0217,-0.0019,333,2019-08-07 16:19:46:464
3.0992,-8.9961,2.1843,0.0257,-0.0389,0.0156,-0.0165,0.0515,-0.0094,338,2019-08-07 16:19:46:469
3.0992,-8.9961,2.1843,0.0257,-0.0389,0.0156,-0.0165,0.0515,-0.0094,343,2019-08-07 16:19:46:474
3.0992,-8.9961,2.1843,0.0257,-0.0389,0.0156,-0.0112,0.0696,-0.0189,348,2019-08-07 16:19:46:479
2.9604,-9.0582,2.0947,0.0257,-0.0389,0.0156,-0.0112,0.0696,-0.0189,353,2019-08-07 16:19:46:484
2.9604,-9.0582,2.0947,0.0257,-0.0389,0.0156,-0.0112,0.0696,-0.0189,358,2019-08-07 16:19:46:489
2.9604,-9.0582,2.0947,0.2497,-0.0055,0.1959,-0.0101,0.0739,-0.0296,364,2019-08-07 16:19:46:495
2.86,-9.0391,2.0853,0.2497,-0.0055,0.1959,-0.0101,0.0739,-0.0296,368,2019-08-07 16:19:46:499
2.86,-9.0391,2.0853,0.2497,-0.0055,0.1959,-0.0027,0.0568,-0.0456,372,2019-08-07 16:19:46:503
2.8217,-9.0486,2.222,0.2497,-0.0055,0.1959,-0.0027,0.0568,-0.0456,378,2019-08-07 16:19:46:509
2.8217,-9.0486,2.222,0.3392,-0.0467,0.0289,0.0112,0.0228,-0.0616,382,2019-08-07 16:19:46:513
2.8217,-9.0486,2.222,0.3392,-0.0467,0.0289,0.0112,0.0228,-0.0616,388,2019-08-07 16:19:46:519
2.9413,-8.9627,2.1749,0.3392,-0.0467,0.0289,0.0304,-0.0401,-0.0722,393,2019-08-07 16:19:46:524
2.9413,-8.9627,2.1749,0.3392,-0.0467,0.0289,0.0304,-0.0401,-0.0722,398,2019-08-07 16:19:46:529
2.9413,-8.9627,2.1749,0.0836,-0.0464,0.1169,0.0304,-0.0401,-0.0722,402,2019-08-07 16:19:46:533
3.1614,-9.0009,2.0288,0.0836,-0.0464,0.1169,0.025,-0.0646,-0.0754,408,2019-08-07 16:19:46:539
3.1614,-9.0009,2.0288,0.0836,-0.0464,0.1169,0.025,-0.0646,-0.0754,413,2019-08-07 16:19:46:544
3.281,-9.0391,2.0335,0.0836,-0.0464,0.1169,0.0186,-0.0529,-0.0743,418,2019-08-07 16:19:46:549
3.281,-9.0391,2.0335,-0.1531,0.0214,0.1681,0.0186,-0.0529,-0.0743,423,2019-08-07 16:19:46:554
3.281,-9.0391,2.0335,-0.1531,0.0214,0.1681,0.024,-0.0156,-0.0584,428,2019-08-07 16:19:46:559
3.3241,-9.0868,1.9769,-0.1531,0.0214,0.1681,0.024,-0.0156,-0.0584,432,2019-08-07 16:19:46:563
3.3241,-9.0868,1.9769,-0.1531,0.0214,0.1681,0.0208,0.0196,-0.0424,438,2019-08-07 16:19:46:569
3.1901,-9.1536,2.0335,-0.0657,0.1307,0.1937,0.0208,0.0196,-0.0424,443,2019-08-07 16:19:46:574
3.1901,-9.1536,2.0335,-0.0657,0.1307,0.1937,0.025,0.059,-0.0392,448,2019-08-07 16:19:46:579
3.1901,-9.1536,2.0335,-0.0657,0.1307,0.1937,0.025,0.059,-0.0392,453,2019-08-07 16:19:46:584
3.037,-9.168,2.0853,-0.0657,0.1307,0.1937,0.0325,0.0771,-0.0381,458,2019-08-07 16:19:46:589
3.037,-9.168,2.0853,0.2149,0.1863,0.0888,0.0325,0.0771,-0.0381,462,2019-08-07 16:19:46:593
2.8456,-9.1918,2.1513,0.2149,0.1863,0.0888,0.0442,0.0867,-0.0488,468,2019-08-07 16:19:46:599
2.8456,-9.1918,2.1513,0.2149,0.1863,0.0888,0.0442,0.0867,-0.0488,472,2019-08-07 16:19:46:603
2.8456,-9.1918,2.1513,0.2149,0.1863,0.0888,0.0612,0.0845,-0.069,478,2019-08-07 16:19:46:609
2.7691,-9.168,2.2974,0.4047,0.1577,-0.0662,0.0612,0.0845,-0.069,483,2019-08-07 16:19:46:614
2.7691,-9.168,2.2974,0.4047,0.1577,-0.0662,0.0804,0.0771,-0.1074,488,2019-08-07 16:19:46:619
2.7691,-9.168,2.2974,0.4047,0.1577,-0.0662,0.0804,0.0771,-0.1074,493,2019-08-07 16:19:46:624
2.6686,-9.1632,2.354,0.4047,0.1577,-0.0662,0.0804,0.0771,-0.1074,498,2019-08-07 16:19:46:629
2.6686,-9.1632,2.354,0.4894,0.2007,-0.126,0.0804,0.075,-0.151,503,2019-08-07 16:19:46:634
2.6351,-9.3159,2.4436,0.4894,0.2007,-0.126,0.0804,0.075,-0.151,508,2019-08-07 16:19:46:639
2.6351,-9.3159,2.4436,0.4894,0.2007,-0.126,0.0804,0.075,-0.151,513,2019-08-07 16:19:46:644
2.6351,-9.3159,2.4436,0.4894,0.2007,-0.126,0.0687,0.0814,-0.1904,518,2019-08-07 16:19:46:649
2.4916,-9.6215,2.4813,0.7328,0.7724,-0.2152,0.0431,0.0728,-0.2086,523,2019-08-07 16:19:46:654
2.4916,-9.6215,2.4813,0.7328,0.7724,-0.2152,0.0431,0.0728,-0.2086,528,2019-08-07 16:19:46:659
2.2572,-10.3232,2.7735,0.7328,0.7724,-0.2152,0.0431,0.0728,-0.2086,532,2019-08-07 16:19:46:663
2.2572,-10.3232,2.7735,0.7328,0.7724,-0.2152,0.0282,0.0366,-0.2149,538,2019-08-07 16:19:46:669
2.2572,-10.3232,2.7735,1.185,2.2359,-0.4448,0.0282,0.0366,-0.2149,542,2019-08-07 16:19:46:673
2.0371,-11.4594,2.7594,1.185,2.2359,-0.4448,0.024,0.0281,-0.1968,548,2019-08-07 16:19:46:679
2.0371,-11.4594,2.7594,1.185,2.2359,-0.4448,0.024,0.0281,-0.1968,553,2019-08-07 16:19:46:684
1.8027,-12.6433,3.4193,1.185,2.2359,-0.4448,0.0612,0.0185,-0.1532,558,2019-08-07 16:19:46:689
1.8027,-12.6433,3.4193,1.6469,4.1207,-1.2595,0.0612,0.0185,-0.1532,563,2019-08-07 16:19:46:694
1.8027,-12.6433,3.4193,1.6469,4.1207,-1.2595,0.0612,0.0185,-0.1532,568,2019-08-07 16:19:46:699
1.6687,-13.7126,3.6692,1.6469,4.1207,-1.2595,0.1603,0.059,-0.036,572,2019-08-07 16:19:46:703
1.6687,-13.7126,3.6692,1.6469,4.1207,-1.2595,0.1603,0.059,-0.036,578,2019-08-07 16:19:46:709
1.6687,-13.7126,3.6692,1.468,5.3038,-1.4853,0.237,0.1644,0.078,583,2019-08-07 16:19:46:714
1.7166,-14.5576,3.9284,1.468,5.3038,-1.4853,0.237,0.1644,0.078,588,2019-08-07 16:19:46:719
1.7166,-14.5576,3.9284,1.468,5.3038,-1.4853,0.3116,0.3818,0.2112,593,2019-08-07 16:19:46:724
1.7166,-14.5576,3.9284,1.468,5.3038,-1.4853,0.3116,0.3818,0.2112,598,2019-08-07 16:19:46:729
1.5491,-15.7558,4.2207,1.6791,7.1074,-1.7846,0.3691,0.6886,0.3859,602,2019-08-07 16:19:46:733
1.5491,-15.7558,4.2207,1.6791,7.1074,-1.7846,0.3691,0.6886,0.3859,608,2019-08-07 16:19:46:739
1.5491,-15.7558,4.2207,1.6791,7.1074,-1.7846,0.383,1.0486,0.6128,613,2019-08-07 16:19:46:744
1.1425,-17.5794,4.3621,1.6791,7.1074,-1.7846,0.383,1.0486,0.6128,617,2019-08-07 16:19:46:748
1.1425,-17.5794,4.3621,2.2854,10.7986,-1.7509,0.384,1.4534,0.8631,623,2019-08-07 16:19:46:754
0.5684,-20.3148,4.1877,2.2854,10.7986,-1.7509,0.384,1.4534,0.8631,628,2019-08-07 16:19:46:759
0.5684,-20.3148,4.1877,2.2854,10.7986,-1.7509,0.3531,1.9189,1.1486,633,2019-08-07 16:19:46:764
-0.2928,-22.7924,3.1695,2.2854,10.7986,-1.7509,0.3531,1.9189,1.1486,638,2019-08-07 16:19:46:769
-0.2928,-22.7924,3.1695,3.3665,14.6739,-0.049,0.2732,2.3504,1.4628,643,2019-08-07 16:19:46:774
-0.2928,-22.7924,3.1695,3.3665,14.6739,-0.049,0.2732,2.3504,1.4628,648,2019-08-07 16:19:46:779
-1.6515,-24.9072,2.8678,3.3665,14.6739,-0.049,0.3095,2.8223,1.7515,653,2019-08-07 16:19:46:784
-1.6515,-24.9072,2.8678,3.3665,14.6739,-0.049,0.3095,2.8223,1.7515,658,2019-08-07 16:19:46:789
-2.5366,-27.6522,2.8442,4.6381,18.5219,0.064,0.4799,3.2665,2.0402,663,2019-08-07 16:19:46:794
-2.5366,-27.6522,2.8442,4.6381,18.5219,0.064,0.4799,3.2665,2.0402,668,2019-08-07 16:19:46:799
-2.5366,-27.6522,2.8442,4.6381,18.5219,0.064,0.6983,3.8332,2.2224,673,2019-08-07 16:19:46:804
-1.3932,-29.1607,2.6981,4.6381,18.5219,0.064,0.6983,3.8332,2.2224,678,2019-08-07 16:19:46:809
-1.3932,-29.1607,2.6981,2.1033,18.9264,0.8903,0.8442,4.5331,2.2234,683,2019-08-07 16:19:46:814
-0.2641,-27.1509,0.9493,2.1033,18.9264,0.8903,0.8442,4.5331,2.2234,688,2019-08-07 16:19:46:819
-0.2641,-27.1509,0.9493,2.1033,18.9264,0.8903,0.7537,5.3161,2.1702,693,2019-08-07 16:19:46:824
1.0085,-26.1819,-1.7234,2.1033,18.9264,0.8903,0.7537,5.3161,2.1702,698,2019-08-07 16:19:46:829
1.0085,-26.1819,-1.7234,-0.8679,16.9946,5.5126,0.2274,6.4825,1.9156,703,2019-08-07 16:19:46:834
1.0085,-26.1819,-1.7234,-0.8679,16.9946,5.5126,0.2274,6.4825,1.9156,708,2019-08-07 16:19:46:839
2.6734,-26.0291,-2.7416,-0.8679,16.9946,5.5126,-5.0E-4,7.5861,1.5012,715,2019-08-07 16:19:46:846
2.6734,-26.0291,-2.7416,-0.8679,16.9946,5.5126,-5.0E-4,7.5861,1.5012,717,2019-08-07 16:19:46:848
2.6734,-26.0291,-2.7416,-0.8679,16.9946,5.5126,-5.0E-4,7.5861,1.5012,723,2019-08-07 16:19:46:854
1.4056,-25.7713,-5.2965,-1.9413,16.6284,8.0873,0.0687,8.7313,1.0303,727,2019-08-07 16:19:46:858
1.4056,-25.7713,-5.2965,-1.9413,16.6284,8.0873,0.0687,8.7313,1.0303,733,2019-08-07 16:19:46:864
1.4056,-25.7713,-5.2965,-1.9413,16.6284,8.0873,0.2977,10.1715,0.6,737,2019-08-07 16:19:46:868
-2.106,-25.1459,-7.2244,-1.9413,16.6284,8.0873,0.2977,10.1715,0.6,743,2019-08-07 16:19:46:874
-2.106,-25.1459,-7.2244,3.0002,16.1198,12.1527,0.5587,10.9694,0.3262,748,2019-08-07 16:19:46:879
-6.9716,-26.2964,-10.0574,3.0002,16.1198,12.1527,0.5587,10.9694,0.3262,753,2019-08-07 16:19:46:884
-6.9716,-26.2964,-10.0574,3.0002,16.1198,12.1527,0.5587,10.9694,0.3262,757,2019-08-07 16:19:46:888
-6.9716,-26.2964,-10.0574,3.0002,16.1198,12.1527,0.9944,11.7108,0.0247,763,2019-08-07 16:19:46:894
-9.1149,-25.2175,-3.6608,7.4161,16.0647,6.7554,0.9944,11.7108,0.0247,768,2019-08-07 16:19:46:899
-9.1149,-25.2175,-3.6608,7.4161,16.0647,6.7554,2.555,11.5233,-0.5303,772,2019-08-07 16:19:46:903
-7.0003,-19.2694,-0.5026,7.4161,16.0647,6.7554,2.555,11.5233,-0.5303,778,2019-08-07 16:19:46:909
-7.0003,-19.2694,-0.5026,7.4161,16.0647,6.7554,4.6099,10.163,-1.1311,783,2019-08-07 16:19:46:914
-7.0003,-19.2694,-0.5026,3.9238,6.2427,4.3748,4.6099,10.163,-1.1311,788,2019-08-07 16:19:46:919
-6.0817,-12.2519,-2.7887,3.9238,6.2427,4.3748,7.0345,8.5832,-1.766,793,2019-08-07 16:19:46:924
-6.0817,-12.2519,-2.7887,3.9238,6.2427,4.3748,7.0345,8.5832,-1.766,798,2019-08-07 16:19:46:929
-7.9763,-1.7876,-5.3295,3.9238,6.2427,4.3748,10.1014,7.3678,-2.4179,804,2019-08-07 16:19:46:935
-7.9763,-1.7876,-5.3295,6.6229,-9.5769,8.6429,10.1014,7.3678,-2.4179,809,2019-08-07 16:19:46:940
-7.9763,-1.7876,-5.3295,6.6229,-9.5769,8.6429,12.3853,5.4748,-2.0856,813,2019-08-07 16:19:46:944
-25.611,66.3968,-0.9975,6.6229,-9.5769,8.6429,12.3853,5.4748,-2.0856,818,2019-08-07 16:19:46:949
-25.611,66.3968,-0.9975,6.6229,-9.5769,8.6429,3.0855,-2.1482,-1.4656,823,2019-08-07 16:19:46:954
-20.8985,85.7022,35.9588,20.4184,-88.2625,-6.0369,3.0855,-2.1482,-1.4656,828,2019-08-07 16:19:46:959
-20.8985,85.7022,35.9588,20.4184,-88.2625,-6.0369,3.0855,-2.1482,-1.4656,832,2019-08-07 16:19:46:963
-20.8985,85.7022,35.9588,20.4184,-88.2625,-6.0369,9.7296,-2.8503,-1.7116,838,2019-08-07 16:19:46:969
-11.4113,61.2793,-28.1302,20.4184,-88.2625,-6.0369,9.7296,-2.8503,-1.7116,842,2019-08-07 16:19:46:973
-11.4113,61.2793,-28.1302,-5.5692,-45.9279,9.7502,6.3314,-5.7765,-1.358,848,2019-08-07 16:19:46:979
4.7115,41.5061,-6.8238,-5.5692,-45.9279,9.7502,4.2967,-2.6574,-0.052,853,2019-08-07 16:19:46:984
4.7115,41.5061,-6.8238,-5.5692,-45.9279,9.7502,4.2967,-2.6574,-0.052,858,2019-08-07 16:19:46:989
4.7115,41.5061,-6.8238,-5.5692,-45.9279,9.7502,4.2967,-2.6574,-0.052,862,2019-08-07 16:19:46:993
21.5329,32.455,-4.6224,-23.0127,-38.6388,12.0928,0.6961,-1.2726,1.0761,868,2019-08-07 16:19:46:999
21.5329,32.455,-4.6224,-23.0127,-38.6388,12.0928,0.6961,-1.2726,1.0761,872,2019-08-07 16:19:47:003
11.0459,25.194,-8.5019,-23.0127,-38.6388,12.0928,-2.6829,-0.7293,0.502,878,2019-08-07 16:19:47:009
11.0459,25.194,-8.5019,-23.0127,-38.6388,12.0928,-2.6829,-0.7293,0.502,883,2019-08-07 16:19:47:014
11.0459,25.194,-8.5019,-3.692,-29.5023,-0.5268,-4.5982,1.9551,0.1494,888,2019-08-07 16:19:47:019
-1.0582,19.9523,11.2348,-3.692,-29.5023,-0.5268,-4.5982,1.9551,0.1494,893,2019-08-07 16:19:47:024
-1.0582,19.9523,11.2348,-3.692,-29.5023,-0.5268,-4.7207,0.9975,0.4402,898,2019-08-07 16:19:47:029
-1.0582,19.9523,11.2348,-3.692,-29.5023,-0.5268,-4.7207,0.9975,0.4402,903,2019-08-07 16:19:47:034
-5.5698,12.973,3.8247,3.8601,-20.0918,2.7049,-4.3766,-1.0915,0.8961,908,2019-08-07 16:19:47:039
-5.5698,12.973,3.8247,3.8601,-20.0918,2.7049,-4.3766,-1.0915,0.8961,913,2019-08-07 16:19:47:044
-5.5698,12.973,3.8247,3.8601,-20.0918,2.7049,-4.3766,-1.0915,0.8961,917,2019-08-07 16:19:47:048
-0.8477,9.2112,1.7224,3.8601,-20.0918,2.7049,-4.1125,-3.3211,1.2008,923,2019-08-07 16:19:47:054
-0.8477,9.2112,1.7224,-2.0973,-16.5243,5.0184,-4.1125,-3.3211,1.2008,928,2019-08-07 16:19:47:059
-0.8477,9.2112,1.7224,-2.0973,-16.5243,5.0184,-3.7471,-4.2074,1.2913,933,2019-08-07 16:19:47:064
1.5779,8.8723,-1.1201,-2.0973,-16.5243,5.0184,-3.7471,-4.2074,1.2913,938,2019-08-07 16:19:47:069
1.5779,8.8723,-1.1201,-2.0973,-16.5243,5.0184,-3.3007,-3.8164,1.4074,943,2019-08-07 16:19:47:074
1.5779,8.8723,-1.1201,-3.6846,-15.4745,8.7372,-3.3007,-3.8164,1.4074,948,2019-08-07 16:19:47:079
2.5969,6.7193,-3.2318,-3.6846,-15.4745,8.7372,-3.2453,-3.5469,1.5097,952,2019-08-07 16:19:47:083
2.5969,6.7193,-3.2318,-3.6846,-15.4745,8.7372,-3.2453,-3.5469,1.5097,958,2019-08-07 16:19:47:089
4.0274,1.7402,-0.2574,-3.6846,-15.4745,8.7372,-3.2017,-3.2114,1.3936,963,2019-08-07 16:19:47:094
4.0274,1.7402,-0.2574,-6.0329,-7.8139,4.1485,-3.2017,-3.2114,1.3936,968,2019-08-07 16:19:47:099
4.0274,1.7402,-0.2574,-6.0329,-7.8139,4.1485,-3.1186,-3.0388,0.992,973,2019-08-07 16:19:47:104
5.7593,-3.2293,2.8065,-6.0329,-7.8139,4.1485,-3.1186,-3.0388,0.992,978,2019-08-07 16:19:47:109
5.7593,-3.2293,2.8065,-6.0329,-7.8139,4.1485,-2.864,-3.1123,0.3891,983,2019-08-07 16:19:47:114
5.1948,-6.4612,1.9911,-6.0489,-2.0714,2.7735,-2.864,-3.1123,0.3891,988,2019-08-07 16:19:47:119
5.1948,-6.4612,1.9911,-6.0489,-2.0714,2.7735,-2.5774,-3.1816,-0.134,992,2019-08-07 16:19:47:123
5.1948,-6.4612,1.9911,-6.0489,-2.0714,2.7735,-2.5774,-3.1816,-0.134,999,2019-08-07 16:19:47:130
2.9605,-8.9627,4.5978,-6.0489,-2.0714,2.7735,-1.8914,-3.1187,-0.3598,1003,2019-08-07 16:19:47:134
2.9605,-8.9627,4.5978,-2.8992,2.2087,0.9248,-1.8914,-3.1187,-0.3598,1008,2019-08-07 16:19:47:139
1.5348,-12.4524,3.7022,-2.8992,2.2087,0.9248,-1.2874,-2.9003,-0.3343,1013,2019-08-07 16:19:47:144
1.5348,-12.4524,3.7022,-2.8992,2.2087,0.9248,-1.2874,-2.9003,-0.3343,1018,2019-08-07 16:19:47:149
1.5348,-12.4524,3.7022,-2.8992,2.2087,0.9248,-1.2874,-2.9003,-0.3343,1023,2019-08-07 16:19:47:154
-2.2399,-17.0495,4.3338,1.8631,8.7233,-1.2181,-0.8964,-3.1336,0.4551,1028,2019-08-07 16:19:47:159
-2.2399,-17.0495,4.3338,1.8631,8.7233,-1.2181,-0.8964,-3.1336,0.4551,1033,2019-08-07 16:19:47:164
-2.2399,-17.0495,4.3338,1.8631,8.7233,-1.2181,-0.0708,-3.4702,1.0101,1037,2019-08-07 16:19:47:168
0.0996,-17.8754,7.2658,1.8631,8.7233,-1.2181,-0.0708,-3.4702,1.0101,1043,2019-08-07 16:19:47:174
0.0996,-17.8754,7.2658,-1.3596,8.708,-1.4254,0.4597,-3.7493,0.6415,1048,2019-08-07 16:19:47:179
0.0996,-17.8754,7.2658,-1.3596,8.708,-1.4254,0.4597,-3.7493,0.6415,1053,2019-08-07 16:19:47:184
1.9271,-18.3385,4.4234,-1.3596,8.708,-1.4254,0.4597,-3.7493,0.6415,1058,2019-08-07 16:19:47:189
1.9271,-18.3385,4.4234,-1.3596,8.708,-1.4254,0.416,-3.7387,-0.2927,1064,2019-08-07 16:19:47:195
1.9271,-18.3385,4.4234,-1.3596,8.708,-1.4254,0.416,-3.7387,-0.2927,1068,2019-08-07 16:19:47:199
1.5922,-20.7636,3.2732,-1.3086,11.9088,0.9398,-0.4128,-3.6876,-1.2461,1073,2019-08-07 16:19:47:204
1.5922,-20.7636,3.2732,-1.3086,11.9088,0.9398,-0.4128,-3.6876,-1.2461,1078,2019-08-07 16:19:47:209
0.5254,-22.4583,6.0072,-1.3086,11.9088,0.9398,-1.3651,-4.1264,-1.734,1083,2019-08-07 16:19:47:214
0.5254,-22.4583,6.0072,-1.3086,11.9088,0.9398,-1.3651,-4.1264,-1.734,1088,2019-08-07 16:19:47:219
0.5254,-22.4583,6.0072,0.2851,13.6067,-0.9837,-1.5196,-4.6761,-1.8895,1092,2019-08-07 16:19:47:223
1.1999,-22.6636,5.4227,0.2851,13.6067,-0.9837,-1.5196,-4.6761,-1.8895,1098,2019-08-07 16:19:47:229
1.1999,-22.6636,5.4227,0.2851,13.6067,-0.9837,-0.7143,-4.7667,-1.8714,1104,2019-08-07 16:19:47:235
1.3483,-20.7063,5.4086,0.2851,13.6067,-0.9837,-0.7143,-4.7667,-1.8714,1107,2019-08-07 16:19:47:238
1.3483,-20.7063,5.4086,0.3273,11.2911,-1.2403,-0.7143,-4.7667,-1.8714,1113,2019-08-07 16:19:47:244
1.4105,-19.2121,2.0052,0.3273,11.2911,-1.2403,-0.1124,-4.5813,-1.685,1118,2019-08-07 16:19:47:249
1.4105,-19.2121,2.0052,0.3273,11.2911,-1.2403,-0.1124,-4.5813,-1.685,1123,2019-08-07 16:19:47:254
1.4105,-19.2121,2.0052,0.3273,11.2911,-1.2403,-0.2051,-4.3097,-1.5071,1128,2019-08-07 16:19:47:259
2.042,-18.1953,1.152,0.1749,9.2551,2.2236,-0.2051,-4.3097,-1.5071,1132,2019-08-07 16:19:47:263
2.042,-18.1953,1.152,0.1749,9.2551,2.2236,-0.5278,-3.7152,-1.4805,1138,2019-08-07 16:19:47:269
2.042,-18.1953,1.152,0.1749,9.2551,2.2236,-0.5278,-3.7152,-1.4805,1143,2019-08-07 16:19:47:274
3.1998,-20.5917,3.1459,0.1749,9.2551,2.2236,-0.7526,-3.0431,-1.5327,1148,2019-08-07 16:19:47:279
3.1998,-20.5917,3.1459,-0.6731,12.8873,-0.6338,-0.7526,-3.0431,-1.5327,1153,2019-08-07 16:19:47:284
3.1998,-20.5917,3.1459,-0.6731,12.8873,-0.6338,-0.7526,-3.0431,-1.5327,1158,2019-08-07 16:19:47:289
2.7783,-22.9404,3.6172,0.5979,14.2048,-0.3389,-0.7952,-2.2612,-1.4368,1163,2019-08-07 16:19:47:294
2.7783,-22.9404,3.6172,0.5979,14.2048,-0.3389,-0.7952,-2.2612,-1.4368,1168,2019-08-07 16:19:47:299
-0.0396,-22.7924,2.2738,0.5979,14.2048,-0.3389,-0.7484,-1.5016,-0.9287,1173,2019-08-07 16:19:47:304
-0.0396,-22.7924,2.2738,0.5979,14.2048,-0.3389,-0.7484,-1.5016,-0.9287,1178,2019-08-07 16:19:47:309
-0.0396,-22.7924,2.2738,4.4142,13.3428,-1.1804,-0.5481,-1.4963,-0.5644,1183,2019-08-07 16:19:47:314
-1.8911,-21.8376,4.2018,4.4142,13.3428,-1.1804,-0.5481,-1.4963,-0.5644,1188,2019-08-07 16:19:47:319
-1.8911,-21.8376,4.2018,4.4142,13.3428,-1.1804,-0.5481,-1.4963,-0.5644,1193,2019-08-07 16:19:47:324
-1.6854,-20.5344,4.9984,4.4142,13.3428,-1.1804,-0.1902,-1.6561,-0.2277,1199,2019-08-07 16:19:47:330
-1.6854,-20.5344,4.9984,4.7521,11.1322,-2.6226,-0.1902,-1.6561,-0.2277,1203,2019-08-07 16:19:47:334
-1.6854,-20.5344,4.9984,4.7521,11.1322,-2.6226,0.3723,-1.6284,-0.0243,1208,2019-08-07 16:19:47:339
-0.8146,-17.6844,4.6166,4.1414,8.797,-2.1301,0.3723,-1.6284,-0.0243,1213,2019-08-07 16:19:47:344
-0.8146,-17.6844,4.6166,4.1414,8.797,-2.1301,0.7451,-1.3429,0.0599,1218,2019-08-07 16:19:47:349
-0.8146,-17.6844,4.6166,4.1414,8.797,-2.1301,0.7451,-1.3429,0.0599,1223,2019-08-07 16:19:47:354
0.19,-14.4048,4.3667,4.1414,8.797,-2.1301,0.7451,-1.3429,0.0599,1228,2019-08-07 16:19:47:359
0.19,-14.4048,4.3667,2.4021,3.9392,-1.5896,0.9934,-0.8827,0.225,1233,2019-08-07 16:19:47:364
0.8646,-10.9581,4.3055,2.4021,3.9392,-1.5896,0.9934,-0.8827,0.225,1238,2019-08-07 16:19:47:369
0.8646,-10.9581,4.3055,2.4021,3.9392,-1.5896,1.0317,-0.3575,0.3401,1243,2019-08-07 16:19:47:374
0.8646,-10.9581,4.3055,2.4021,3.9392,-1.5896,1.0317,-0.3575,0.3401,1248,2019-08-07 16:19:47:379
0.7402,-9.0534,4.6213,2.5469,0.2188,-1.9043,0.8421,-0.1381,0.4295,1252,2019-08-07 16:19:47:383
0.7402,-9.0534,4.6213,2.5469,0.2188,-1.9043,0.8421,-0.1381,0.4295,1258,2019-08-07 16:19:47:389
0.7402,-9.0534,4.6213,2.5469,0.2188,-1.9043,0.4671,-0.2787,0.4913,1264,2019-08-07 16:19:47:395
0.6445,-8.0556,4.7203,2.5469,0.2188,-1.9043,0.4671,-0.2787,0.4913,1269,2019-08-07 16:19:47:400
0.6445,-8.0556,4.7203,2.3959,-0.9603,-1.2024,0.4671,-0.2787,0.4913,1273,2019-08-07 16:19:47:404
1.0799,-8.0079,3.7822,2.3959,-0.9603,-1.2024,-0.1262,-0.7112,0.5435,1278,2019-08-07 16:19:47:409
1.0799,-8.0079,3.7822,1.749,-0.5732,-0.9077,-0.1262,-0.7112,0.5435,1283,2019-08-07 16:19:47:414
1.0799,-8.0079,3.7822,1.749,-0.5732,-0.9077,-0.5619,-1.2651,0.5478,1288,2019-08-07 16:19:47:419
2.0607,-8.977,2.8206,1.749,-0.5732,-0.9077,-0.5619,-1.2651,0.5478,1293,2019-08-07 16:19:47:424
2.0607,-8.977,2.8206,1.749,-0.5732,-0.9077,-0.6887,-1.638,0.5318,1298,2019-08-07 16:19:47:429
2.0607,-8.977,2.8206,0.0555,0.4454,1.4721,-0.6887,-1.638,0.5318,1303,2019-08-07 16:19:47:434
3.362,-9.4734,0.7984,0.0555,0.4454,1.4721,-0.6887,-1.638,0.5318,1308,2019-08-07 16:19:47:439
3.362,-9.4734,0.7984,-1.1311,0.5242,2.4807,-0.7068,-1.7498,0.5126,1314,2019-08-07 16:19:47:445
4.5724,-9.4878,-0.3188,-1.1311,0.5242,2.4807,-0.7068,-1.7498,0.5126,1317,2019-08-07 16:19:47:448
4.5724,-9.4878,-0.3188,-1.1311,0.5242,2.4807,-0.5406,-1.3727,0.4594,1323,2019-08-07 16:19:47:454
4.5724,-8.8338,-0.3094,-1.1311,0.5242,2.4807,-0.5406,-1.3727,0.4594,1328,2019-08-07 16:19:47:459
5.3522,-8.8338,-0.3094,-2.0889,-0.4978,2.6011,-0.253,-0.7538,0.4125,1333,2019-08-07 16:19:47:464
5.3522,-8.8338,-0.3094,-2.0889,-0.4978,2.6011,-0.253,-0.7538,0.4125,1338,2019-08-07 16:19:47:469
4.5915,-7.9411,-0.8797,-2.0889,-0.4978,2.6011,-0.1262,-0.3437,0.4338,1343,2019-08-07 16:19:47:474
4.5915,-7.9411,-0.8797,-1.2743,-1.2362,3.0785,-0.1262,-0.3437,0.4338,1348,2019-08-07 16:19:47:479
4.5915,-7.9411,-0.8797,-1.2743,-1.2362,3.0785,-0.1486,0.0696,0.4413,1353,2019-08-07 16:19:47:484
3.228,-7.5496,0.3317,-1.2743,-1.2362,3.0785,-0.1486,0.0696,0.4413,1358,2019-08-07 16:19:47:489
3.228,-7.5496,0.3317,0.6103,-1.4426,0.8967,-0.2083,0.043,0.3731,1363,2019-08-07 16:19:47:494
1.9363,-7.688,1.628,0.6103,-1.4426,0.8967,-0.2083,0.043,0.3731,1368,2019-08-07 16:19:47:499
1.9363,-7.688,1.628,0.6103,-1.4426,0.8967,-0.2083,0.043,0.3731,1373,2019-08-07 16:19:47:504
1.9363,-7.688,1.628,1.3616,-1.287,0.4082,-0.2029,-0.2159,0.2868,1378,2019-08-07 16:19:47:509
1.7162,-8.1368,2.0004,1.3616,-1.287,0.4082,-0.2029,-0.2159,0.2868,1383,2019-08-07 16:19:47:514
1.7162,-8.1368,2.0004,1.3616,-1.287,0.4082,-0.1294,-0.5972,0.1451,1388,2019-08-07 16:19:47:519
2.4482,-8.5139,2.2455,1.3616,-1.287,0.4082,-0.1294,-0.5972,0.1451,1393,2019-08-07 16:19:47:524
2.4482,-8.5139,2.2455,0.3272,-0.5855,0.0753,-0.0677,-0.7719,0.0535,1399,2019-08-07 16:19:47:530
2.4482,-8.5139,2.2455,0.3272,-0.5855,0.0753,-0.0677,-0.7719,0.0535,1403,2019-08-07 16:19:47:534
3.7016,-8.6476,1.6469,0.3272,-0.5855,0.0753,-0.0037,-0.6526,-0.0062,1408,2019-08-07 16:19:47:539
3.7016,-8.6476,1.6469,0.3272,-0.5855,0.0753,-0.0037,-0.6526,-0.0062,1413,2019-08-07 16:19:47:544
3.7016,-8.6476,1.6469,-1.0384,-0.4861,0.4642,0.0826,-0.3927,-0.0616,1418,2019-08-07 16:19:47:549
4.1609,-8.5855,1.628,-1.0384,-0.4861,0.4642,0.0826,-0.3927,-0.0616,1423,2019-08-07 16:19:47:554
4.1609,-8.5855,1.628,-1.0384,-0.4861,0.4642,0.1614,-0.0603,-0.0946,1428,2019-08-07 16:19:47:559
3.826,-8.6189,1.9391,-1.0384,-0.4861,0.4642,0.1614,-0.0603,-0.0946,1433,2019-08-07 16:19:47:564
3.826,-8.6189,1.9391,-0.634,-0.4637,0.0745,0.1614,-0.0603,-0.0946,1438,2019-08-07 16:19:47:569
3.826,-8.6189,1.9391,-0.634,-0.4637,0.0745,0.1869,0.2891,-0.1191,1443,2019-08-07 16:19:47:574
3.0031,-8.6237,2.2267,0.0521,-0.4652,-0.1545,0.1869,0.2891,-0.1191,1448,2019-08-07 16:19:47:579
3.0031,-8.6237,2.2267,0.0521,-0.4652,-0.1545,0.1411,0.3466,-0.1425,1453,2019-08-07 16:19:47:584
3.0031,-8.6237,2.2267,0.0521,-0.4652,-0.1545,0.1411,0.3466,-0.1425,1458,2019-08-07 16:19:47:589
2.1419,-8.743,3.2873,0.0521,-0.4652,-0.1545,0.1102,0.1857,-0.1478,1463,2019-08-07 16:19:47:594
2.1419,-8.743,3.2873,1.0235,-0.2785,-1.3775,0.1102,0.1857,-0.1478,1468,2019-08-07 16:19:47:599
1.9936,-8.8099,3.2495,1.0235,-0.2785,-1.3775,0.0549,-0.185,-0.1404,1473,2019-08-07 16:19:47:604
1.9936,-8.8099,3.2495,1.0235,-0.2785,-1.3775,0.0549,-0.185,-0.1404,1478,2019-08-07 16:19:47:609
1.9936,-8.8099,3.2495,0.6633,-0.035,-0.7065,-0.0368,-0.479,-0.1201,1484,2019-08-07 16:19:47:615
2.429,-9.0295,2.83,0.6633,-0.035,-0.7065,-0.0368,-0.479,-0.1201,1487,2019-08-07 16:19:47:618
2.429,-9.0295,2.83,0.6633,-0.035,-0.7065,-0.0368,-0.479,-0.1201,1493,2019-08-07 16:19:47:624
3.7399,-9.3398,2.2832,0.6633,-0.035,-0.7065,-0.1049,-0.6942,-0.0978,1499,2019-08-07 16:19:47:630
3.7399,-9.3398,2.2832,0.6633,-0.035,-0.7065,-0.1049,-0.6942,-0.0978,1503,2019-08-07 16:19:47:634
3.7399,-9.3398,2.2832,-1.221,0.3457,0.2879,-0.1049,-0.6942,-0.0978,1508,2019-08-07 16:19:47:639
4.6632,-9.5069,1.5431,-1.221,0.3457,0.2879,-0.0985,-0.5312,-0.1031,1513,2019-08-07 16:19:47:644
4.6632,-9.5069,1.5431,-1.221,0.3457,0.2879,-0.0985,-0.5312,-0.1031,1519,2019-08-07 16:19:47:650
4.6632,-9.5069,1.5431,-1.221,0.3457,0.2879,-0.0431,-0.0571,-0.1042,1523,2019-08-07 16:19:47:654
4.6728,-9.3875,1.463,-1.3424,0.2561,0.5426,-0.0431,-0.0571,-0.1042,1528,2019-08-07 16:19:47:659
4.6728,-9.3875,1.463,-1.3424,0.2561,0.5426,0.0069,0.353,-0.0562,1533,2019-08-07 16:19:47:664
4.6728,-9.3875,1.463,-1.3424,0.2561,0.5426,0.0069,0.353,-0.0562,1538,2019-08-07 16:19:47:669
3.3906,-9.2013,1.8684,-1.3424,0.2561,0.5426,0.0165,0.4989,-0.0147,1543,2019-08-07 16:19:47:674
3.3906,-9.2013,1.8684,0.1044,0.2123,-0.1521,0.0165,0.4989,-0.0147,1548,2019-08-07 16:19:47:679
3.3906,-9.2013,1.8684,0.1044,0.2123,-0.1521,0.0325,0.4979,-0.0062,1552,2019-08-07 16:19:47:683
2.4003,-9.2586,2.6603,0.1044,0.2123,-0.1521,0.0325,0.4979,-0.0062,1558,2019-08-07 16:19:47:689
2.4003,-9.2586,2.6603,0.1044,0.2123,-0.1521,0.0559,0.3647,-0.0094,1563,2019-08-07 16:19:47:694
1.984,-9.2586,2.9431,1.1851,0.1894,-0.8742,0.0559,0.3647,-0.0094,1569,2019-08-07 16:19:47:700
1.984,-9.2586,2.9431,1.1851,0.1894,-0.8742,0.0559,0.3647,-0.0094,1573,2019-08-07 16:19:47:704
1.984,-9.2586,2.9431,1.1851,0.1894,-0.8742,0.1092,-0.0028,0.0109,1578,2019-08-07 16:19:47:709
2.2328,-9.2252,2.7593,1.1851,0.1894,-0.8742,0.1092,-0.0028,0.0109,1583,2019-08-07 16:19:47:714
2.2328,-9.2252,2.7593,0.5028,0.1016,-0.4587,0.1092,-0.0028,0.0109,1587,2019-08-07 16:19:47:718
2.2328,-9.2252,2.7593,0.5028,0.1016,-0.4587,0.1731,-0.3437,0.0141,1593,2019-08-07 16:19:47:724
3.1801,-8.9483,2.1418,-0.1562,-0.1098,0.051,0.2051,-0.4108,0.013,1598,2019-08-07 16:19:47:729
3.1801,-8.9483,2.1418,-0.1562,-0.1098,0.051,0.2051,-0.4108,0.013,1603,2019-08-07 16:19:47:734
3.1801,-8.9483,2.1418,-0.1562,-0.1098,0.051,0.2051,-0.4108,0.013,1608,2019-08-07 16:19:47:739
3.8547,-8.8576,1.8401,-0.6919,-0.1815,0.2876,0.2338,-0.3586,0.0119,1613,2019-08-07 16:19:47:744
3.8547,-8.8576,1.8401,-0.6919,-0.1815,0.2876,0.2338,-0.3586,0.0119,1618,2019-08-07 16:19:47:749
4.1082,-8.8147,1.8495,-0.6919,-0.1815,0.2876,0.2636,-0.121,0.0077,1623,2019-08-07 16:19:47:754
4.1082,-8.8147,1.8495,-0.8076,-0.1694,0.2525,0.2636,-0.121,0.0077,1628,2019-08-07 16:19:47:759
3.759,-8.786,2.0522,-0.8076,-0.1694,0.2525,0.2466,0.092,0.0141,1634,2019-08-07 16:19:47:765
3.759,-8.786,2.0522,-0.8076,-0.1694,0.2525,0.2466,0.092,0.0141,1637,2019-08-07 16:19:47:768
3.759,-8.786,2.0522,-0.8076,-0.1694,0.2525,0.1795,0.288,-0.003,1643,2019-08-07 16:19:47:774
3.137,-8.7049,2.3963,0.0327,-0.312,-0.186,0.1795,0.288,-0.003,1648,2019-08-07 16:19:47:779
3.137,-8.7049,2.3963,0.0327,-0.312,-0.186,0.1795,0.288,-0.003,1653,2019-08-07 16:19:47:784
3.137,-8.7049,2.3963,0.0327,-0.312,-0.186,0.106,0.321,-0.0243,1658,2019-08-07 16:19:47:789
2.826,-8.6523,2.797,0.0327,-0.312,-0.186,0.106,0.321,-0.0243,1662,2019-08-07 16:19:47:793
2.826,-8.6523,2.797,0.3328,-0.3914,-0.3564,0.0538,0.2401,-0.0349,1668,2019-08-07 16:19:47:799
2.8117,-8.6667,2.533,0.3328,-0.3914,-0.3564,0.0538,0.2401,-0.0349,1673,2019-08-07 16:19:47:804
2.8117,-8.6667,2.533,0.3328,-0.3914,-0.3564,-0.0016,0.108,-0.0296,1678,2019-08-07 16:19:47:809
2.8117,-8.6667,2.533,0.3328,-0.3914,-0.3564,-0.0016,0.108,-0.0296,1683,2019-08-07 16:19:47:814
2.9074,-8.7001,2.5755,0.1972,-0.2936,-0.3022,-0.0144,-0.0049,-0.0264,1688,2019-08-07 16:19:47:819
2.9074,-8.7001,2.5755,0.1972,-0.2936,-0.3022,-0.0144,-0.0049,-0.0264,1692,2019-08-07 16:19:47:823
3.0413,-8.7239,2.4623,0.1972,-0.2936,-0.3022,-0.0144,-0.0049,-0.0264,1698,2019-08-07 16:19:47:829
3.0413,-8.7239,2.4623,0.1972,-0.2936,-0.3022,-0.0048,-0.1125,-0.0072,1703,2019-08-07 16:19:47:834
3.0413,-8.7239,2.4623,0.1972,-0.2936,-0.3022,-0.0048,-0.1125,-0.0072,1708,2019-08-07 16:19:47:839
3.3858,-8.7621,2.2219,-0.222,-0.2449,0.0361,0.0112,-0.1882,0.0066,1713,2019-08-07 16:19:47:844
3.3858,-8.7621,2.2219,-0.222,-0.2449,0.0361,0.0112,-0.1882,0.0066,1718,2019-08-07 16:19:47:849
3.7589,-8.7096,2.1889,-0.222,-0.2449,0.0361,0.0314,-0.2137,0.0098,1723,2019-08-07 16:19:47:854
3.7589,-8.7096,2.1889,-0.5787,-0.2718,0.1496,0.0314,-0.2137,0.0098,1728,2019-08-07 16:19:47:859
3.8164,-8.7717,2.0664,-0.5787,-0.2718,0.1496,0.0431,-0.1828,0.0407,1734,2019-08-07 16:19:47:865
3.8164,-8.7717,2.0664,-0.5787,-0.2718,0.1496,0.0431,-0.1828,0.0407,1738,2019-08-07 16:19:47:869
3.8164,-8.7717,2.0664,-0.5787,-0.2718,0.1496,0.0293,-0.1083,0.0727,1743,2019-08-07 16:19:47:874
3.8355,-8.9531,2.1229,-0.5787,-0.2718,0.1496,0.0293,-0.1083,0.0727,1748,2019-08-07 16:19:47:879
3.8355,-8.9531,2.1229,-0.588,-0.0578,0.0561,0.0122,-0.0337,0.094,1753,2019-08-07 16:19:47:884
3.8355,-8.9531,2.1229,-0.588,-0.0578,0.0561,0.0122,-0.0337,0.094,1758,2019-08-07 16:19:47:889
3.6728,-9.0438,2.2078,-0.588,-0.0578,0.0561,0.0037,0.0558,0.1121,1763,2019-08-07 16:19:47:894
3.6728,-9.0438,2.2078,-0.2699,0.0706,-0.144,0.0037,0.0558,0.1121,1768,2019-08-07 16:19:47:899
3.3666,-9.0724,2.3256,-0.2699,0.0706,-0.144,0.0037,0.0558,0.1121,1773,2019-08-07 16:19:47:904
3.3666,-9.0724,2.3256,-0.2699,0.0706,-0.144,-0.0016,0.1218,0.127,1779,2019-08-07 16:19:47:910
3.3666,-9.0724,2.3256,-0.2699,0.0706,-0.144,-0.0016,0.1218,0.127,1783,2019-08-07 16:19:47:914
3.07,-9.1249,2.2313,-0.2699,0.0706,-0.144,-0.0144,0.1421,0.1302,1788,2019-08-07 16:19:47:919
3.07,-9.1249,2.2313,0.1314,0.0669,-0.0708,-0.0144,0.1421,0.1302,1793,2019-08-07 16:19:47:924
2.8834,-9.1249,2.4058,0.1314,0.0669,-0.0708,0.0016,0.1122,0.1238,1798,2019-08-07 16:19:47:929
2.8834,-9.1249,2.4058,0.1314,0.0669,-0.0708,0.0016,0.1122,0.1238,1803,2019-08-07 16:19:47:934
2.8834,-9.1249,2.4058,0.1314,0.0669,-0.0708,0.0016,0.1122,0.1238,1808,2019-08-07 16:19:47:939
2.6346,-8.9817,2.3822,0.4897,-0.0365,-0.2271,0.0304,0.0334,0.1142,1812,2019-08-07 16:19:47:943
2.6346,-8.9817,2.3822,0.4897,-0.0365,-0.2271,0.0304,0.0334,0.1142,1818,2019-08-07 16:19:47:949
2.6346,-8.9817,2.3822,0.4897,-0.0365,-0.2271,0.0474,-0.0976,0.0961,1823,2019-08-07 16:19:47:954
2.7925,-8.8624,2.5236,0.4897,-0.0365,-0.2271,0.0474,-0.0976,0.0961,1828,2019-08-07 16:19:47:959
2.7925,-8.8624,2.5236,0.1812,-0.2461,-0.2218,0.0559,-0.1924,0.0929,1834,2019-08-07 16:19:47:965
2.7925,-8.8624,2.5236,0.1812,-0.2461,-0.2218,0.0559,-0.1924,0.0929,1837,2019-08-07 16:19:47:968
3.2087,-8.7192,2.3162,-0.1283,-0.3143,-0.0482,0.0495,-0.202,0.0844,1843,2019-08-07 16:19:47:974
3.2087,-8.7192,2.3162,-0.1283,-0.3143,-0.0482,0.0495,-0.202,0.0844,1848,2019-08-07 16:19:47:979
3.2087,-8.7192,2.3162,-0.1283,-0.3143,-0.0482,0.0261,-0.1999,0.0791,1853,2019-08-07 16:19:47:984
3.3953,-8.6141,2.1842,-0.1283,-0.3143,-0.0482,0.0261,-0.1999,0.0791,1858,2019-08-07 16:19:47:989
3.3953,-8.6141,2.1842,-0.4085,-0.3693,0.1954,0.0048,-0.1349,0.0823,1864,2019-08-07 16:19:47:995
3.3953,-8.6141,2.1842,-0.4085,-0.3693,0.1954,0.0048,-0.1349,0.0823,1867,2019-08-07 16:19:47:998
3.5532,-8.7669,2.0946,-0.4085,-0.3693,0.1954,-0.0197,-0.0699,0.078,1873,2019-08-07 16:19:48:004
3.5532,-8.7669,2.0946,-0.4085,-0.3693,0.1954,-0.0197,-0.0699,0.078,1878,2019-08-07 16:19:48:009
3.6345,-8.9197,2.1088,-0.5627,-0.1204,0.1443,-0.0101,0.0302,0.0876,1884,2019-08-07 16:19:48:015
3.6345,-8.9197,2.1088,-0.5627,-0.1204,0.1443,-0.0101,0.0302,0.0876,1888,2019-08-07 16:19:48:019
3.6202,-9.0056,2.0569,-0.5553,-0.0369,0.196,-0.0101,0.0302,0.0876,1893,2019-08-07 16:19:48:024
3.6202,-9.0056,2.0569,-0.5553,-0.0369,0.196,0.0133,0.1229,0.0982,1899,2019-08-07 16:19:48:030
3.6202,-9.0056,2.0569,-0.5553,-0.0369,0.196,0.0133,0.1229,0.0982,1903,2019-08-07 16:19:48:034
3.2039,-8.8815,2.2785,-0.5553,-0.0369,0.196,0.0442,0.1826,0.1057,1908,2019-08-07 16:19:48:039
3.2039,-8.8815,2.2785,-0.0329,-0.2081,-0.1145,0.0442,0.1826,0.1057,1913,2019-08-07 16:19:48:044
3.2039,-8.8815,2.2785,-0.0329,-0.2081,-0.1145,0.0527,0.1772,0.1068,1917,2019-08-07 16:19:48:048
2.8595,-8.8242,2.4435,-0.0329,-0.2081,-0.1145,0.0527,0.1772,0.1068,1923,2019-08-07 16:19:48:054
2.8595,-8.8242,2.4435,-0.0329,-0.2081,-0.1145,0.0346,0.1197,0.0982,1928,2019-08-07 16:19:48:059
2.6872,-8.8194,2.6509,0.3275,-0.2313,-0.3635,0.0346,0.1197,0.0982,1933,2019-08-07 16:19:48:064
2.6872,-8.8194,2.6509,0.3275,-0.2313,-0.3635,0.0346,0.1197,0.0982,1937,2019-08-07 16:19:48:068
2.6872,-8.8194,2.6509,0.3275,-0.2313,-0.3635,0.0293,0.0196,0.0812,1943,2019-08-07 16:19:48:074
2.5963,-8.7812,2.6744,0.3275,-0.2313,-0.3635,0.0069,-0.0582,0.0673,1948,2019-08-07 16:19:48:079
2.5963,-8.7812,2.6744,0.2954,-0.2255,-0.3032,0.0069,-0.0582,0.0673,1953,2019-08-07 16:19:48:084
2.5963,-8.7955,2.5754,0.2954,-0.2255,-0.3032,-0.0176,-0.1072,0.0556,1958,2019-08-07 16:19:48:089
2.8307,-8.7955,2.5754,0.2954,-0.2255,-0.3032,-0.0176,-0.1072,0.0556,1963,2019-08-07 16:19:48:094
2.8307,-8.7955,2.5754,0.1149,-0.2752,-0.2308,-0.0176,-0.1072,0.0556,1968,2019-08-07 16:19:48:099
3.113,-8.8385,2.5566,0.1149,-0.2752,-0.2308,-0.0474,-0.1168,0.0365,1973,2019-08-07 16:19:48:104
3.113,-8.8385,2.5566,0.1149,-0.2752,-0.2308,-0.0474,-0.1168,0.0365,1978,2019-08-07 16:19:48:109
3.113,-8.8385,2.5566,-0.3822,-0.2119,0.1788,-0.0708,-0.0752,0.0247,1983,2019-08-07 16:19:48:114
3.4527,-8.8767,2.1135,-0.3822,-0.2119,0.1788,-0.0708,-0.0752,0.0247,1988,2019-08-07 16:19:48:119
3.4527,-8.8767,2.1135,-0.3822,-0.2119,0.1788,-0.1007,0.0292,0.0045,1992,2019-08-07 16:19:48:123
3.5484,-8.8719,2.2219,-0.3822,-0.2119,0.1788,-0.1007,0.0292,0.0045,1999,2019-08-07 16:19:48:130
3.5484,-8.8719,2.2219,-0.5717,-0.1628,0.0495,-0.1007,0.0292,0.0045,2003,2019-08-07 16:19:48:134
3.5484,-8.8719,2.2219,-0.5717,-0.1628,0.0495,-0.0655,0.173,-0.004,2008,2019-08-07 16:19:48:139
3.3666,-8.8385,2.0852,-0.5717,-0.1628,0.0495,-0.0655,0.173,-0.004,2012,2019-08-07 16:19:48:143
3.3666,-8.8385,2.0852,-0.5717,-0.1628,0.0495,-0.0517,0.2379,-0.0019,2018,2019-08-07 16:19:48:149
3.0699,-8.8242,2.2643,-0.0806,-0.2409,-6.0E-4,-0.0517,0.2379,-0.0019,2023,2019-08-07 16:19:48:154
3.0699,-8.8242,2.2643,-0.0806,-0.2409,-6.0E-4,-0.041,0.2411,0.0013,2029,2019-08-07 16:19:48:160
3.0699,-8.8242,2.2643,-0.0806,-0.2409,-6.0E-4,-0.041,0.2411,0.0013,2033,2019-08-07 16:19:48:164
2.7781,-8.7812,2.4906,-0.0806,-0.2409,-6.0E-4,-0.0218,0.1719,-0.0126,2038,2019-08-07 16:19:48:169
2.7781,-8.7812,2.4906,0.3597,-0.3848,-0.3306,-0.0218,0.1719,-0.0126,2043,2019-08-07 16:19:48:174
2.5867,-8.6953,2.5754,0.3597,-0.3848,-0.3306,-0.0197,0.0632,-0.0189,2048,2019-08-07 16:19:48:179
2.5867,-8.6953,2.5754,0.3597,-0.3848,-0.3306,-0.0197,0.0632,-0.0189,2053,2019-08-07 16:19:48:184
2.5867,-8.6953,2.5754,0.3597,-0.3848,-0.3306,-0.0197,0.0632,-0.0189,2058,2019-08-07 16:19:48:189
2.5771,-8.7335,2.5,0.3364,-0.2798,-0.2795,-0.0325,-0.0625,-0.02,2064,2019-08-07 16:19:48:195
2.5771,-8.7335,2.5,0.3364,-0.2798,-0.2795,-0.0325,-0.0625,-0.02,2068,2019-08-07 16:19:48:199
2.8164,-8.8528,2.6226,0.3364,-0.2798,-0.2795,-0.0485,-0.1903,-0.0264,2073,2019-08-07 16:19:48:204
2.8164,-8.8528,2.6226,0.1316,-0.1606,-0.283,-0.0559,-0.2766,-0.02,2078,2019-08-07 16:19:48:209
3.0699,-8.9006,2.3397,0.1316,-0.1606,-0.283,-0.0559,-0.2766,-0.02,2083,2019-08-07 16:19:48:214
3.0699,-8.9006,2.3397,0.1316,-0.1606,-0.283,-0.0559,-0.2766,-0.02,2088,2019-08-07 16:19:48:219
3.0699,-8.9006,2.3397,0.1316,-0.1606,-0.283,-0.0655,-0.3224,-0.0189,2093,2019-08-07 16:19:48:224
3.5292,-9.0629,2.1229,-0.4192,-0.066,0.0426,-0.0655,-0.3224,-0.0189,2098,2019-08-07 16:19:48:229
3.5292,-9.0629,2.1229,-0.4192,-0.066,0.0426,-0.0666,-0.2894,-0.0179,2102,2019-08-07 16:19:48:233
3.5292,-9.0629,2.1229,-0.4192,-0.066,0.0426,-0.0634,-0.2116,-0.0136,2108,2019-08-07 16:19:48:239
3.8976,-9.1631,1.7694,-0.4192,-0.066,0.0426,-0.0634,-0.2116,-0.0136,2113,2019-08-07 16:19:48:244
3.8976,-9.1631,1.7694,-0.9407,0.0811,0.3714,-0.0463,-7.0E-4,-0.0083,2119,2019-08-07 16:19:48:250
3.8832,-9.0533,1.8966,-0.9407,0.0811,0.3714,-0.0463,-7.0E-4,-0.0083,2123,2019-08-07 16:19:48:254
3.8832,-9.0533,1.8966,-0.9407,0.0811,0.3714,-0.0463,-7.0E-4,-0.0083,2128,2019-08-07 16:19:48:259
3.8832,-9.0533,1.8966,-0.9407,0.0811,0.3714,-0.0197,0.1453,0.0034,2133,2019-08-07 16:19:48:264
3.3809,-9.0915,1.9862,-0.3535,0.0236,0.2145,-0.0197,0.1453,0.0034,2137,2019-08-07 16:19:48:268
3.3809,-9.0915,1.9862,-0.3535,0.0236,0.2145,-0.0037,0.2156,0.0098,2143,2019-08-07 16:19:48:274
2.9551,-9.1202,2.2926,0.0672,0.0518,-0.0865,-0.0037,0.2156,0.0098,2149,2019-08-07 16:19:48:280
2.9551,-9.1202,2.2926,0.0672,0.0518,-0.0865,-0.0037,0.2156,0.0098,2153,2019-08-07 16:19:48:284
2.5335,-9.1249,2.5706,0.0672,0.0518,-0.0865,-0.0059,0.124,0.0087,2158,2019-08-07 16:19:48:289
2.5335,-9.1249,2.5706,0.5354,0.0457,-0.3645,-0.0133,-0.0124,-8.0E-4,2164,2019-08-07 16:19:48:295
2.5335,-9.1249,2.5706,0.5354,0.0457,-0.3645,-0.0133,-0.0124,-8.0E-4,2168,2019-08-07 16:19:48:299
2.5575,-9.0867,2.5895,0.5354,0.0457,-0.3645,-0.0133,-0.0124,-8.0E-4,2173,2019-08-07 16:19:48:304
2.5575,-9.0867,2.5895,0.5354,0.0457,-0.3645,-0.0186,-0.1413,-0.0147,2178,2019-08-07 16:19:48:309
2.5575,-9.0867,2.5895,0.5354,0.0457,-0.3645,-0.0186,-0.1413,-0.0147,2183,2019-08-07 16:19:48:314
2.7058,-8.9817,2.3773,0.3095,-0.0887,-0.1697,-0.0272,-0.2649,-0.0104,2188,2019-08-07 16:19:48:319
2.7058,-8.9817,2.3773,0.3095,-0.0887,-0.1697,-0.0272,-0.2649,-0.0104,2193,2019-08-07 16:19:48:324
3.1794,-8.9435,2.2548,0.3095,-0.0887,-0.1697,-0.0368,-0.2979,-0.0104,2199,2019-08-07 16:19:48:330
3.1794,-8.9435,2.2548,0.3095,-0.0887,-0.1697,-0.0368,-0.2979,-0.0104,2202,2019-08-07 16:19:48:333
3.1794,-8.9435,2.2548,-0.4545,-0.17,-0.1119,-0.0368,-0.2979,-0.0104,2208,2019-08-07 16:19:48:339
3.6195,-8.8432,2.2548,-0.4545,-0.17,-0.1119,-0.0282,-0.2691,-0.0136,2213,2019-08-07 16:19:48:344
3.6195,-8.8432,2.2548,-0.4545,-0.17,-0.1119,-0.0133,-0.1722,-0.0136,2219,2019-08-07 16:19:48:350
3.6195,-8.8432,2.2548,-0.4545,-0.17,-0.1119,-0.0133,-0.1722,-0.0136,2223,2019-08-07 16:19:48:354
3.8731,-8.6952,2.1228,-0.8196,-0.3637,0.0933,-0.0133,-0.1722,-0.0136,2228,2019-08-07 16:19:48:359
3.8731,-8.6952,2.1228,-0.8196,-0.3637,0.0933,-0.0101,-0.0017,-0.0104,2233,2019-08-07 16:19:48:364
3.6147,-8.6475,2.1511,-0.8196,-0.3637,0.0933,-0.0101,-0.0017,-0.0104,2237,2019-08-07 16:19:48:368
3.6147,-8.6475,2.1511,-0.8196,-0.3637,0.0933,-0.0218,0.108,0.0045,2243,2019-08-07 16:19:48:374
3.6147,-8.6475,2.1511,-0.3557,-0.3575,-0.0484,-0.0218,0.108,0.0045,2247,2019-08-07 16:19:48:378
3.3564,-8.7573,2.2689,-0.3557,-0.3575,-0.0484,-0.0293,0.1581,0.0205,2253,2019-08-07 16:19:48:384
3.3564,-8.7573,2.2689,-0.3557,-0.3575,-0.0484,-0.0293,0.1581,0.0205,2258,2019-08-07 16:19:48:389
3.0023,-8.9435,2.3679,-0.3557,-0.3575,-0.0484,-0.0378,0.1325,0.0098,2264,2019-08-07 16:19:48:395
3.0023,-8.9435,2.3679,0.1528,-0.0774,-0.1332,-0.0378,0.1325,0.0098,2268,2019-08-07 16:19:48:399
3.0023,-8.9435,2.3679,0.1528,-0.0774,-0.1332,-0.0378,0.1325,0.0098,2273,2019-08-07 16:19:48:404
2.7918,-9.058,2.2878,0.1528,-0.0774,-0.1332,-0.0431,0.0569,0.0013,2278,2019-08-07 16:19:48:409
2.7918,-9.058,2.2878,0.1528,-0.0774,-0.1332,-0.0431,0.0569,0.0013,2284,2019-08-07 16:19:48:415
2.8492,-9.2442,2.1841,0.2823,0.1112,0.0139,-0.0368,-0.0454,2.0E-4,2288,2019-08-07 16:19:48:419
2.8492,-9.2442,2.1841,0.2823,0.1112,0.0139,-0.0368,-0.0454,2.0E-4,2293,2019-08-07 16:19:48:424
2.8492,-9.2442,2.1841,0.2823,0.1112,0.0139,-0.0229,-0.0891,-0.004,2298,2019-08-07 16:19:48:429
2.9497,-9.1487,2.2406,0.2823,0.1112,0.0139,-0.0229,-0.0891,-0.004,2303,2019-08-07 16:19:48:434
2.9497,-9.1487,2.2406,-0.0354,0.0621,-0.0097,-0.0016,-0.1061,0.0024,2308,2019-08-07 16:19:48:439
3.1027,-9.0533,2.0568,-0.0354,0.0621,-0.0097,-0.0016,-0.1061,0.0024,2314,2019-08-07 16:19:48:445
3.1027,-9.0533,2.0568,-0.0354,0.0621,-0.0097,0.0069,-0.0987,-8.0E-4,2318,2019-08-07 16:19:48:449
3.1027,-9.0533,2.0568,-0.0354,0.0621,-0.0097,0.0069,-0.0987,-8.0E-4,2323,2019-08-07 16:19:48:454
3.1267,-8.8671,2.2312,-0.1207,-0.176,-0.0952,0.009,-0.1061,-0.0062,2328,2019-08-07 16:19:48:459
3.1267,-8.8671,2.2312,-0.1207,-0.176,-0.0952,0.009,-0.1061,-0.0062,2333,2019-08-07 16:19:48:464
3.1267,-8.8671,2.2312,-0.1207,-0.176,-0.0952,0.009,-0.1061,-0.0062,2337,2019-08-07 16:19:48:468
3.2367,-8.8814,2.184,-0.1207,-0.176,-0.0952,0.009,-0.0891,-0.004,2343,2019-08-07 16:19:48:474
3.2367,-8.8814,2.184,-0.1426,-0.1985,-0.0471,0.009,-0.0891,-0.004,2348,2019-08-07 16:19:48:479
3.2367,-8.8814,2.184,-0.1426,-0.1985,-0.0471,0.008,-0.0965,0.0098,2352,2019-08-07 16:19:48:483
3.1601,-8.891,2.2218,-0.1426,-0.1985,-0.0471,0.008,-0.0965,0.0098,2358,2019-08-07 16:19:48:489
3.1601,-8.891,2.2218,-0.1426,-0.1985,-0.0471,0.0069,-0.1008,0.0109,2363,2019-08-07 16:19:48:494
3.1888,-8.9387,2.2877,-0.1292,-0.1313,-0.1407,0.0069,-0.1008,0.0109,2368,2019-08-07 16:19:48:499
3.1888,-8.9387,2.2877,-0.1292,-0.1313,-0.1407,0.0144,-0.1029,0.0066,2373,2019-08-07 16:19:48:504
3.1888,-8.9387,2.2877,-0.1292,-0.1313,-0.1407,0.0144,-0.1029,0.0066,2377,2019-08-07 16:19:48:508
3.1123,-8.9769,2.1558,-0.0507,-0.0928,-0.0102,0.0059,-0.0902,0.0087,2382,2019-08-07 16:19:48:513
3.1123,-8.9769,2.1558,-0.0507,-0.0928,-0.0102,0.0059,-0.0902,0.0087,2388,2019-08-07 16:19:48:519
3.1505,-8.9626,2.1652,-0.0507,-0.0928,-0.0102,-5.0E-4,-0.071,0.0077,2393,2019-08-07 16:19:48:524
3.1505,-8.9626,2.1652,-0.0906,-0.1119,-0.038,-5.0E-4,-0.071,0.0077,2398,2019-08-07 16:19:48:529
3.1505,-8.9626,2.1652,-0.0906,-0.1119,-0.038,-0.0037,-0.0209,-0.003,2403,2019-08-07 16:19:48:534
3.1218,-8.953,2.2029,-0.0906,-0.1119,-0.038,-0.0037,-0.0209,-0.003,2408,2019-08-07 16:19:48:539
3.1218,-8.953,2.2029,-0.0906,-0.1119,-0.038,-0.0037,-0.0209,-0.003,2413,2019-08-07 16:19:48:544
3.0405,-8.9626,2.2595,0.0262,-0.1067,-0.1194,-0.008,0.0132,-0.0126,2418,2019-08-07 16:19:48:549
3.0405,-8.9626,2.2595,0.0262,-0.1067,-0.1194,-0.008,0.0132,-0.0126,2423,2019-08-07 16:19:48:554
3.0405,-8.9626,2.2595,0.0262,-0.1067,-0.1194,-0.0165,0.0217,-0.0232,2428,2019-08-07 16:19:48:559
2.9591,-8.91,2.2924,0.0262,-0.1067,-0.1194,-0.0165,0.0217,-0.0232,2433,2019-08-07 16:19:48:564
2.9591,-8.91,2.2924,0.0925,-0.1438,-0.1395,-0.0229,-0.0103,-0.0392,2438,2019-08-07 16:19:48:569
2.9591,-8.91,2.2924,0.0925,-0.1438,-0.1395,-0.0229,-0.0103,-0.0392,2443,2019-08-07 16:19:48:574
3.007,-8.9482,2.349,0.0925,-0.1438,-0.1395,-0.0027,-0.0273,-0.0445,2448,2019-08-07 16:19:48:579
3.007,-8.9482,2.349,0.0925,-0.1438,-0.1395,-0.0027,-0.0273,-0.0445,2453,2019-08-07 16:19:48:584
3.0691,-8.9435,2.2594,0.0925,-0.1438,-0.1395,-0.0027,-0.0273,-0.0445,2458,2019-08-07 16:19:48:589
3.0691,-8.9435,2.2594,-0.0612,-0.1364,-0.0515,0.0133,-0.0507,-0.0445,2463,2019-08-07 16:19:48:594
3.0691,-8.9435,2.2594,-0.0612,-0.1364,-0.0515,0.0133,-0.0507,-0.0445,2468,2019-08-07 16:19:48:599
3.227,-8.9387,2.2123,-0.0612,-0.1364,-0.0515,0.0208,-0.0848,-0.0381,2473,2019-08-07 16:19:48:604
3.227,-8.9387,2.2123,-0.0612,-0.1364,-0.0515,0.0208,-0.0848,-0.0381,2478,2019-08-07 16:19:48:609
3.227,-8.9387,2.2123,-0.2742,-0.1229,-0.0615,0.0325,-0.087,-0.0168,2482,2019-08-07 16:19:48:613
3.4423,-8.9435,2.2264,-0.2742,-0.1229,-0.0615,0.0325,-0.087,-0.0168,2488,2019-08-07 16:19:48:619
3.4423,-8.9435,2.2264,-0.2742,-0.1229,-0.0615,0.0399,-0.0763,-8.0E-4,2493,2019-08-07 16:19:48:624
3.4279,-8.9578,2.1369,-0.2742,-0.1229,-0.0615,0.0399,-0.0763,-8.0E-4,2498,2019-08-07 16:19:48:629
3.4279,-8.9578,2.1369,-0.3096,-0.1629,0.0394,0.0399,-0.0763,-8.0E-4,2503,2019-08-07 16:19:48:634
3.3179,-8.9053,2.1699,-0.3096,-0.1629,0.0394,0.0357,-0.038,0.0077,2508,2019-08-07 16:19:48:639
3.3179,-8.9053,2.1699,-0.3096,-0.1629,0.0394,0.0357,-0.038,0.0077,2513,2019-08-07 16:19:48:644
3.3179,-8.9053,2.1699,-0.107,-0.0848,-0.0975,0.0314,-0.0433,0.0119,2519,2019-08-07 16:19:48:650
3.227,-8.9291,2.2877,-0.107,-0.0848,-0.0975,0.0314,-0.0433,0.0119,2522,2019-08-07 16:19:48:653
3.227,-8.9291,2.2877,-0.107,-0.0848,-0.0975,0.0325,-0.023,0.0066,2528,2019-08-07 16:19:48:659
3.227,-8.9291,2.2877,-0.107,-0.0848,-0.0975,0.0325,-0.023,0.0066,2533,2019-08-07 16:19:48:664
3.1217,-8.9005,2.118,-0.107,-0.0848,-0.0975,0.024,-0.0124,-8.0E-4,2538,2019-08-07 16:19:48:669
3.1217,-8.9005,2.118,-0.0101,-0.1835,-0.0029,0.024,-0.0124,-8.0E-4,2542,2019-08-07 16:19:48:673
3.0212,-8.8671,2.1982,-0.0101,-0.1835,-0.0029,0.0016,-0.0092,-0.0115,2548,2019-08-07 16:19:48:679
3.0212,-8.8671,2.1982,-0.0101,-0.1835,-0.0029,0.0016,-0.0092,-0.0115,2553,2019-08-07 16:19:48:684
3.0547,-8.9434,2.2877,0.0507,-0.1108,-0.1398,-0.0059,-0.0209,-0.0253,2558,2019-08-07 16:19:48:689
3.0547,-8.9434,2.2877,0.0507,-0.1108,-0.1398,-0.0059,-0.0209,-0.0253,2563,2019-08-07 16:19:48:694
3.0547,-8.9434,2.2877,0.0507,-0.1108,-0.1398,-0.0048,-0.0348,-0.0275,2568,2019-08-07 16:19:48:699
3.1025,-8.953,2.1322,0.0507,-0.1108,-0.1398,-0.0048,-0.0348,-0.0275,2573,2019-08-07 16:19:48:704
3.1025,-8.953,2.1322,0.0507,-0.1108,-0.1398,-0.0048,-0.0348,-0.0275,2577,2019-08-07 16:19:48:708
3.2413,-8.9769,2.0944,-0.0773,-0.095,0.0181,-0.0101,-0.0305,-0.0189,2583,2019-08-07 16:19:48:714
3.2413,-8.9769,2.0944,-0.0773,-0.095,0.0181,-0.0101,-0.0305,-0.0189,2588,2019-08-07 16:19:48:719
3.2413,-8.9769,2.0944,-0.0773,-0.095,0.0181,-0.0069,-0.0198,-0.0285,2593,2019-08-07 16:19:48:724
3.1791,-8.9434,2.2924,-0.0773,-0.095,0.0181,-0.0069,-0.0198,-0.0285,2598,2019-08-07 16:19:48:729
3.1791,-8.9434,2.2924,-0.0948,-0.0789,-0.1254,-5.0E-4,-0.0273,-0.0285,2603,2019-08-07 16:19:48:734
3.1791,-8.9434,2.2924,-0.0948,-0.0789,-0.1254,-5.0E-4,-0.0273,-0.0285,2608,2019-08-07 16:19:48:739
3.27,-8.9482,2.2453,-0.1486,-0.1016,-0.1021,-0.0027,-0.039,-0.0264,2613,2019-08-07 16:19:48:744
3.27,-8.9482,2.2453,-0.1486,-0.1016,-0.1021,-0.0027,-0.039,-0.0264,2618,2019-08-07 16:19:48:749
3.27,-8.9482,2.2453,-0.1486,-0.1016,-0.1021,-0.0027,-0.039,-0.0264,2623,2019-08-07 16:19:48:754
3.3561,-8.8766,2.2688,-0.1486,-0.1016,-0.1021,-0.0069,-0.0443,-0.0179,2627,2019-08-07 16:19:48:758
3.3561,-8.8766,2.2688,-0.2986,-0.1569,-0.0764,-0.0069,-0.0443,-0.0179,2633,2019-08-07 16:19:48:764
3.4087,-8.9005,2.0991,-0.2986,-0.1569,-0.0764,-0.0059,-0.0433,-0.0094,2638,2019-08-07 16:19:48:769
3.4087,-8.9005,2.0991,-0.2986,-0.1569,-0.0764,-0.0059,-0.0433,-0.0094,2643,2019-08-07 16:19:48:774
3.4087,-8.9005,2.0991,-0.2986,-0.1569,-0.0764,-0.0037,-0.0252,0.0045,2647,2019-08-07 16:19:48:778
3.4135,-8.9291,2.217,-0.2793,-0.1175,-0.0789,-0.0037,-0.0252,0.0045,2653,2019-08-07 16:19:48:784
3.4135,-8.9291,2.217,-0.2793,-0.1175,-0.0789,-5.0E-4,-0.0166,0.0098,2658,2019-08-07 16:19:48:789
3.4135,-8.9291,2.217,-0.2793,-0.1175,-0.0789,-5.0E-4,-0.0166,0.0098,2664,2019-08-07 16:19:48:795
3.38,-8.8957,2.1274,-0.2793,-0.1175,-0.0789,-5.0E-4,-0.0166,0.0098,2667,2019-08-07 16:19:48:798
3.38,-8.8957,2.1274,-0.1974,-0.07,0.0418,-0.0069,-0.023,0.0183,2673,2019-08-07 16:19:48:804
3.2699,-8.9673,2.151,-0.1974,-0.07,0.0418,-0.0069,-0.023,0.0183,2678,2019-08-07 16:19:48:809
3.2699,-8.9673,2.151,-0.1974,-0.07,0.0418,-5.0E-4,-0.0252,0.0343,2683,2019-08-07 16:19:48:814
3.2699,-8.9673,2.151,-0.1974,-0.07,0.0418,-5.0E-4,-0.0252,0.0343,2687,2019-08-07 16:19:48:818
3.2938,-9.0628,2.1651,-0.13,0.0094,-0.0202,0.0154,-0.022,0.0503,2693,2019-08-07 16:19:48:824
3.2938,-9.0628,2.1651,-0.13,0.0094,-0.0202,0.0154,-0.022,0.0503,2699,2019-08-07 16:19:48:830
3.2938,-9.0628,2.1651,-0.13,0.0094,-0.0202,0.0197,-0.0135,0.0567,2703,2019-08-07 16:19:48:834
3.2316,-9.0103,2.2123,-0.13,0.0094,-0.0202,0.0197,-0.0135,0.0567,2708,2019-08-07 16:19:48:839
3.2316,-9.0103,2.2123,-0.0668,-0.0454,-0.0741,0.0208,-0.0081,0.0546,2713,2019-08-07 16:19:48:844
3.1359,-8.9864,2.2641,-0.0668,-0.0454,-0.0741,0.0208,-0.0081,0.0546,2718,2019-08-07 16:19:48:849
3.1359,-8.9864,2.2641,-0.0668,-0.0454,-0.0741,0.0208,-0.0081,0.0546,2723,2019-08-07 16:19:48:854
3.1359,-8.9864,2.2641,-0.0668,-0.0454,-0.0741,0.0208,-7.0E-4,0.0514,2728,2019-08-07 16:19:48:859
3.0641,-8.9291,2.2264,0.0194,-0.1336,-0.0698,0.0208,-7.0E-4,0.0514,2733,2019-08-07 16:19:48:864
3.0641,-8.9291,2.2264,0.0194,-0.1336,-0.0698,-0.0016,-0.0028,0.0471,2737,2019-08-07 16:19:48:868
3.0641,-8.9291,2.3301,0.0194,-0.1336,-0.0698,-0.0016,-0.0028,0.0471,2743,2019-08-07 16:19:48:874
3.0641,-8.9291,2.3301,0.0194,-0.1336,-0.0698,-0.0133,-0.0166,0.0418,2748,2019-08-07 16:19:48:879
3.0641,-8.9291,2.3301,-0.0028,-0.0982,-0.2349,-0.0133,-0.0166,0.0418,2753,2019-08-07 16:19:48:884
3.1215,-8.9291,2.3065,-0.0028,-0.0982,-0.2349,-0.0048,-0.023,0.0301,2758,2019-08-07 16:19:48:889
3.1215,-8.9291,2.3065,-0.0028,-0.0982,-0.2349,-0.0048,-0.023,0.0301,2764,2019-08-07 16:19:48:895
3.1502,-8.8909,2.1415,-0.0028,-0.0982,-0.2349,-0.0101,-0.0156,0.0258,2768,2019-08-07 16:19:48:899
3.1502,-8.8909,2.1415,-0.0028,-0.0982,-0.2349,-0.0101,-0.0156,0.0258,2773,2019-08-07 16:19:48:904
3.1502,-8.8909,2.1415,-0.0593,-0.1907,0.0083,-0.0101,-0.0156,0.0258,2778,2019-08-07 16:19:48:909
3.2411,-8.9291,2.2358,-0.0593,-0.1907,0.0083,-0.008,-0.0081,0.0194,2784,2019-08-07 16:19:48:915
3.2411,-8.9291,2.2358,-0.0593,-0.1907,0.0083,-0.008,-0.0081,0.0194,2787,2019-08-07 16:19:48:918
3.2411,-8.9291,2.2358,-0.0593,-0.1907,0.0083,-0.0943,-0.2276,0.0205,2792,2019-08-07 16:19:48:923
2.2173,-8.7573,1.8399,0.8822,-0.3041,0.2863,-0.1859,-0.3618,0.046,2798,2019-08-07 16:19:48:929
2.2173,-8.7573,1.8399,0.8822,-0.3041,0.2863,-0.1859,-0.3618,0.046,2803,2019-08-07 16:19:48:934
3.2985,-9.1057,2.7119,0.8822,-0.3041,0.2863,-0.1859,-0.3618,0.046,2808,2019-08-07 16:19:48:939
3.2985,-9.1057,2.7119,-0.2551,0.076,-0.3729,-0.0165,-0.2872,0.0226,2813,2019-08-07 16:19:48:944
3.2985,-9.1057,2.7119,-0.2551,0.076,-0.3729,0.123,-0.2127,-0.0019,2818,2019-08-07 16:19:48:949
3.5473,-9.058,1.8021,-0.2551,0.076,-0.3729,0.123,-0.2127,-0.0019,2822,2019-08-07 16:19:48:953
3.5473,-9.058,1.8021,-0.2551,0.076,-0.3729,0.1497,-0.0614,0.0066,2828,2019-08-07 16:19:48:959
4.308,-8.9434,1.458,-1.1908,-0.118,0.642,0.1497,-0.0614,0.0066,2832,2019-08-07 16:19:48:963
4.308,-8.9434,1.458,-1.1908,-0.118,0.642,0.0655,0.0973,-0.0168,2838,2019-08-07 16:19:48:969
4.308,-8.9434,1.458,-1.1908,-0.118,0.642,0.0655,0.0973,-0.0168,2842,2019-08-07 16:19:48:973
3.8487,-8.5806,1.7786,-0.7281,-0.4778,0.3292,0.0133,0.2933,0.0077,2848,2019-08-07 16:19:48:979
3.8487,-8.5806,1.7786,-0.7281,-0.4778,0.3292,0.0133,0.2933,0.0077,2853,2019-08-07 16:19:48:984
3.2745,-8.6379,2.0803,-0.7281,-0.4778,0.3292,-0.0357,0.304,0.0386,2858,2019-08-07 16:19:48:989
3.2745,-8.6379,2.0803,0.1774,-0.1679,-0.2376,-0.0357,0.304,0.0386,2863,2019-08-07 16:19:48:994
2.8009,-9.0532,2.6271,0.1774,-0.1679,-0.2376,-0.0453,0.2316,0.046,2868,2019-08-07 16:19:48:999
2.8009,-9.0532,2.6271,0.1774,-0.1679,-0.2376,-0.0453,0.2316,0.046,2873,2019-08-07 16:19:49:004
2.8009,-9.0532,2.6271,0.1774,-0.1679,-0.2376,-0.0453,0.2316,0.046,2878,2019-08-07 16:19:49:009
2.5999,-9.1248,2.8062,0.1774,-0.1679,-0.2376,-0.0208,0.059,0.0375,2883,2019-08-07 16:19:49:014
2.5999,-9.1248,2.8062,0.4942,0.0331,-0.6961,-0.0208,0.059,0.0375,2887,2019-08-07 16:19:49:018
2.5999,-9.1248,2.8062,0.4942,0.0331,-0.6961,0.0037,-0.12,0.0354,2893,2019-08-07 16:19:49:024
2.8918,-8.953,2.3631,0.4942,0.0331,-0.6961,0.0037,-0.12,0.0354,2898,2019-08-07 16:19:49:029
2.8918,-8.953,2.3631,0.4942,0.0331,-0.6961,-0.0176,-0.2414,0.0492,2902,2019-08-07 16:19:49:033