ACCELEROMETER X (m/s²),ACCELEROMETER Y (m/s²),ACCELEROMETER Z (m/s²),LINEAR ACCELERATION X (m/s²),LINEAR ACCELERATION Y (m/s²),LINEAR ACCELERATION Z (m/s²),GYROSCOPE X (rad/s),GYROSCOPE Y (rad/s),GYROSCOPE Z (rad/s),Time since start in ms ,YYYY-MO-DD HH-MI-SS_SSS
3.6291,-8.9043,1.6353,-0.0276,-0.122,0.0672,0.024,-6.0E-4,0.0023,2,2019-08-07 16:20:50:808
3.6291,-8.9043,1.6353,-0.0276,-0.122,0.0672,0.0272,-0.0113,2.0E-4,8,2019-08-07 16:20:50:814
3.6482,-8.8709,1.6023,-0.113,-0.131,0.1019,0.0272,-0.0113,2.0E-4,13,2019-08-07 16:20:50:819
3.6482,-8.8709,1.6023,-0.113,-0.131,0.1019,0.0272,-0.0156,-9.0E-4,19,2019-08-07 16:20:50:825
3.6482,-8.8709,1.6023,-0.113,-0.131,0.1019,0.0272,-0.0156,-9.0E-4,23,2019-08-07 16:20:50:829
3.6817,-8.8423,1.5881,-0.113,-0.131,0.1019,0.0336,-0.0049,2.0E-4,28,2019-08-07 16:20:50:834
3.6817,-8.8423,1.5881,-0.0734,-0.1153,0.0922,0.0336,-0.0049,2.0E-4,32,2019-08-07 16:20:50:838
3.7009,-8.8471,1.508,-0.0734,-0.1153,0.0922,0.0325,-0.0028,-9.0E-4,38,2019-08-07 16:20:50:844
3.7009,-8.8471,1.508,-0.0734,-0.1153,0.0922,0.0325,-0.0028,-9.0E-4,43,2019-08-07 16:20:50:849
3.7009,-8.8471,1.508,-0.0734,-0.1153,0.0922,0.0304,0.0015,0.0034,48,2019-08-07 16:20:50:854
3.6243,-8.9091,1.5834,-0.0056,-0.0997,0.083,0.0304,0.0015,0.0034,53,2019-08-07 16:20:50:859
3.6243,-8.9091,1.5834,-0.0056,-0.0997,0.083,0.0282,0.0057,-9.0E-4,58,2019-08-07 16:20:50:864
3.6243,-8.9091,1.5834,-0.0056,-0.0997,0.083,0.0282,0.0057,-9.0E-4,62,2019-08-07 16:20:50:868
3.5861,-8.89,1.6635,-8.0E-4,-0.0849,0.0197,0.0261,4.0E-4,-0.0052,68,2019-08-07 16:20:50:874
3.5861,-8.89,1.6635,-8.0E-4,-0.0849,0.0197,0.0261,4.0E-4,-0.0052,72,2019-08-07 16:20:50:878
3.5573,-8.9616,1.6871,-8.0E-4,-0.0849,0.0197,0.0187,-0.007,-0.0041,78,2019-08-07 16:20:50:884
3.5573,-8.9616,1.6871,0.0143,-0.0552,-0.0185,0.0187,-0.007,-0.0041,83,2019-08-07 16:20:50:889
3.5765,-8.8757,1.7248,0.0143,-0.0552,-0.0185,0.0187,-0.007,-0.0041,88,2019-08-07 16:20:50:894
3.5765,-8.8757,1.7248,0.0143,-0.0552,-0.0185,0.0187,-0.0145,-0.0052,92,2019-08-07 16:20:50:898
3.5765,-8.8757,1.7248,0.0143,-0.0552,-0.0185,0.0187,-0.0145,-0.0052,98,2019-08-07 16:20:50:904
3.6291,-8.9091,1.7295,-0.0555,-0.0633,-0.0015,0.0155,-0.0102,-0.0084,103,2019-08-07 16:20:50:909
3.6291,-8.9091,1.7295,-0.0555,-0.0633,-0.0015,0.0155,-0.0102,-0.0084,107,2019-08-07 16:20:50:913
3.6961,-8.8566,1.6588,-0.0555,-0.0633,-0.0015,0.0069,-0.0166,-0.0105,113,2019-08-07 16:20:50:919
3.6961,-8.8566,1.6588,-0.0555,-0.0633,-0.0015,0.0069,-0.0166,-0.0105,118,2019-08-07 16:20:50:924
3.6961,-8.8566,1.6588,-0.0555,-0.0633,-0.0015,0.0069,-0.0102,-0.0105,123,2019-08-07 16:20:50:929
3.72,-8.8471,1.6635,-0.1286,-0.124,0.027,0.0069,-0.0102,-0.0105,128,2019-08-07 16:20:50:934
3.72,-8.8471,1.6635,-0.1286,-0.124,0.027,0.0069,-0.007,-0.0041,133,2019-08-07 16:20:50:939
3.7679,-8.8375,1.673,-0.1286,-0.124,0.027,0.0069,-0.007,-0.0041,138,2019-08-07 16:20:50:944
3.7679,-8.8375,1.673,-0.1286,-0.124,0.027,0.0069,-0.007,-0.0041,143,2019-08-07 16:20:50:949
3.7679,-8.8375,1.673,-0.14,-0.1609,0.0651,0.0048,-0.0166,-0.0084,148,2019-08-07 16:20:50:954
3.7248,-8.8709,1.5928,-0.14,-0.1609,0.0651,0.0048,-0.0166,-0.0084,152,2019-08-07 16:20:50:958
3.7248,-8.8709,1.5928,-0.14,-0.1609,0.0651,0.0048,-0.0198,-0.0105,158,2019-08-07 16:20:50:964
3.7009,-8.8757,1.5928,-0.14,-0.1609,0.0651,0.0048,-0.0198,-0.0105,163,2019-08-07 16:20:50:969
3.7009,-8.8757,1.5928,-0.1365,-0.0691,0.0496,0.0069,-0.0145,-0.0105,167,2019-08-07 16:20:50:973
3.7009,-8.8757,1.5928,-0.1365,-0.0691,0.0496,0.0069,-0.0145,-0.0105,173,2019-08-07 16:20:50:979
3.7152,-8.9807,1.6588,-0.1365,-0.0691,0.0496,0.0165,-0.0145,-0.0062,178,2019-08-07 16:20:50:984
3.7152,-8.9807,1.6588,-0.1365,-0.0691,0.0496,0.0165,-0.0145,-0.0062,183,2019-08-07 16:20:50:989
3.7535,-8.9998,1.6164,-0.1004,0.0372,0.0227,0.025,-0.0262,-0.0041,188,2019-08-07 16:20:50:994
3.7535,-8.9998,1.6164,-0.1004,0.0372,0.0227,0.025,-0.0262,-0.0041,193,2019-08-07 16:20:50:999
3.7535,-8.9998,1.6164,-0.1004,0.0372,0.0227,0.0368,-0.0145,-0.0041,198,2019-08-07 16:20:51:004
3.7535,-8.9187,1.6494,-0.1004,0.0372,0.0227,0.0368,-0.0145,-0.0041,203,2019-08-07 16:20:51:009
3.7535,-8.9187,1.6494,-0.1507,-0.0421,0.0177,0.0389,0.0036,-0.003,208,2019-08-07 16:20:51:014
3.7296,-8.9139,1.6965,-0.1507,-0.0421,0.0177,0.0389,0.0036,-0.003,213,2019-08-07 16:20:51:019
3.7296,-8.9139,1.6965,-0.1507,-0.0421,0.0177,0.0304,0.0111,-9.0E-4,218,2019-08-07 16:20:51:024
3.7296,-8.9139,1.6965,-0.1507,-0.0421,0.0177,0.0304,0.0111,-9.0E-4,223,2019-08-07 16:20:51:029
3.6387,-8.8757,1.7531,-0.0352,-0.0883,-0.0511,0.025,-0.0028,0.0023,228,2019-08-07 16:20:51:034
3.6387,-8.8757,1.7531,-0.0352,-0.0883,-0.0511,0.025,-0.0028,0.0023,234,2019-08-07 16:20:51:040
3.6817,-8.8375,1.7908,-0.0352,-0.0883,-0.0511,0.025,-0.0028,0.0023,237,2019-08-07 16:20:51:043
3.6817,-8.8375,1.7908,-0.0352,-0.0883,-0.0511,0.0155,-0.0166,0.0023,243,2019-08-07 16:20:51:049
3.6817,-8.8375,1.7908,-0.0488,-0.1065,-0.0617,0.0155,-0.0166,0.0023,247,2019-08-07 16:20:51:053
3.7248,-8.8805,1.772,-0.0488,-0.1065,-0.0617,0.0048,-0.0305,-0.0041,253,2019-08-07 16:20:51:059
3.7248,-8.8805,1.772,-0.0488,-0.1065,-0.0617,0.0048,-0.0305,-0.0041,257,2019-08-07 16:20:51:063
3.72,-8.8853,1.7154,-0.0488,-0.1065,-0.0617,-0.0016,-0.0379,-0.0052,263,2019-08-07 16:20:51:069
3.72,-8.8853,1.7154,-0.1606,-0.0387,-0.0117,-0.0016,-0.0379,-0.0052,268,2019-08-07 16:20:51:074
3.72,-8.8853,1.7154,-0.1606,-0.0387,-0.0117,-0.0048,-0.0305,2.0E-4,273,2019-08-07 16:20:51:079
3.8109,-8.9807,1.6824,-0.2023,0.0188,0.0198,-0.0048,-0.0305,2.0E-4,278,2019-08-07 16:20:51:084
3.8109,-8.9807,1.6824,-0.2023,0.0188,0.0198,0.0027,-0.0145,0.0034,283,2019-08-07 16:20:51:089
3.8109,-8.9807,1.6824,-0.2023,0.0188,0.0198,0.0027,-0.0145,0.0034,288,2019-08-07 16:20:51:094
3.7966,-9.0332,1.6635,-0.2023,0.0188,0.0198,0.0133,0.0025,0.0044,293,2019-08-07 16:20:51:099
3.7966,-9.0332,1.6635,-0.0914,0.0716,0.0195,0.0133,0.0025,0.0044,298,2019-08-07 16:20:51:104
3.7966,-9.0332,1.6635,-0.0914,0.0716,0.0195,0.0133,0.0025,0.0044,303,2019-08-07 16:20:51:109
3.7344,-8.9903,1.6683,-0.0914,0.0716,0.0195,0.0261,0.0079,0.0066,308,2019-08-07 16:20:51:114
3.7344,-8.9903,1.6683,-0.0914,0.0716,0.0195,0.0261,0.0079,0.0066,313,2019-08-07 16:20:51:119
3.6913,-8.9998,1.7107,-0.0828,0.0387,-0.0039,0.0357,0.0132,0.0066,318,2019-08-07 16:20:51:124
3.6913,-8.9998,1.7107,-0.0828,0.0387,-0.0039,0.0357,0.0132,0.0066,323,2019-08-07 16:20:51:129
3.7344,-8.8566,1.7531,-0.0828,0.0387,-0.0039,0.0389,0.0132,0.0023,328,2019-08-07 16:20:51:134
3.7344,-8.8566,1.7531,-0.0828,0.0387,-0.0039,0.0463,0.0036,-0.002,334,2019-08-07 16:20:51:140
3.7344,-8.8566,1.7531,-0.0493,-0.1315,-0.099,0.0463,0.0036,-0.002,338,2019-08-07 16:20:51:144
3.6435,-8.8423,1.7955,-0.0493,-0.1315,-0.099,0.0463,0.0036,-0.002,343,2019-08-07 16:20:51:149
3.6435,-8.8423,1.7955,-0.0493,-0.1315,-0.099,0.0474,-0.0038,0.0023,348,2019-08-07 16:20:51:154
3.6435,-8.8423,1.7955,-0.0493,-0.1315,-0.099,0.0474,-0.0038,0.0023,352,2019-08-07 16:20:51:158
3.7487,-8.828,1.7437,-0.1393,-0.1487,-0.0343,0.0368,-0.0028,0.0012,358,2019-08-07 16:20:51:164
3.7487,-8.828,1.7437,-0.1393,-0.1487,-0.0343,0.0368,-0.0028,0.0012,363,2019-08-07 16:20:51:169
3.7822,-8.8566,1.7531,-0.1393,-0.1487,-0.0343,0.0261,0.0047,2.0E-4,367,2019-08-07 16:20:51:173
3.7822,-8.8566,1.7531,-0.1393,-0.1487,-0.0343,0.0261,0.0047,2.0E-4,373,2019-08-07 16:20:51:179
3.7822,-8.8566,1.7531,-0.1334,-0.1137,-0.0475,0.0218,0.0217,-0.0084,378,2019-08-07 16:20:51:184
3.72,-8.8518,1.7437,-0.1334,-0.1137,-0.0475,0.0218,0.0217,-0.0084,383,2019-08-07 16:20:51:189
3.72,-8.8518,1.7437,-0.1334,-0.1137,-0.0475,0.0208,0.0249,-0.0094,388,2019-08-07 16:20:51:194
3.6817,-8.7898,1.8757,-0.1334,-0.1137,-0.0475,0.0208,0.0249,-0.0094,393,2019-08-07 16:20:51:199
3.6817,-8.7898,1.8757,-0.1334,-0.1137,-0.0475,0.0208,0.0249,-0.0094,397,2019-08-07 16:20:51:203
3.6817,-8.7898,1.8757,-0.0502,-0.2074,0.0148,0.0101,0.0175,-0.0116,403,2019-08-07 16:20:51:209
3.6626,-8.7898,1.6918,-0.0502,-0.2074,0.0148,0.0101,0.0175,-0.0116,407,2019-08-07 16:20:51:213
3.6626,-8.7898,1.6918,-0.0502,-0.2074,0.0148,-0.0016,0.0153,-0.0041,413,2019-08-07 16:20:51:219
3.6961,-8.8184,1.6777,-0.0824,-0.1349,0.0586,-0.0016,0.0153,-0.0041,417,2019-08-07 16:20:51:223
3.6961,-8.8184,1.6777,-0.0824,-0.1349,0.0586,0.0016,0.01,-0.0084,423,2019-08-07 16:20:51:229
3.6961,-8.8184,1.6777,-0.0824,-0.1349,0.0586,0.0016,0.01,-0.0084,428,2019-08-07 16:20:51:234
3.6626,-8.8471,1.7295,-0.0824,-0.1349,0.0586,0.0048,0.0217,-0.0105,434,2019-08-07 16:20:51:240
3.6626,-8.8471,1.7295,-0.0809,-0.1387,0.037,0.0048,0.0217,-0.0105,437,2019-08-07 16:20:51:243
3.6626,-8.8471,1.7295,-0.0809,-0.1387,0.037,0.0048,0.0217,-0.0105,443,2019-08-07 16:20:51:249
3.6626,-8.7564,1.6683,-0.0809,-0.1387,0.037,0.008,0.0356,-0.0094,447,2019-08-07 16:20:51:253
3.6626,-8.7564,1.6683,-0.0809,-0.1387,0.037,0.008,0.0356,-0.0094,453,2019-08-07 16:20:51:259
3.6817,-8.6895,1.5928,-0.0649,-0.2616,0.1486,5.0E-4,0.042,-0.0116,458,2019-08-07 16:20:51:264
3.6817,-8.6895,1.5928,-0.0649,-0.2616,0.1486,5.0E-4,0.042,-0.0116,462,2019-08-07 16:20:51:268
3.6817,-8.6895,1.5928,-0.0649,-0.2616,0.1486,-0.0101,0.0505,-0.0137,468,2019-08-07 16:20:51:274
3.5908,-8.7946,1.6541,-0.0649,-0.2616,0.1486,-0.0101,0.0505,-0.0137,473,2019-08-07 16:20:51:279
3.5908,-8.7946,1.6541,0.037,-0.1128,0.0366,-0.0144,0.0324,-0.0179,478,2019-08-07 16:20:51:284
3.5669,-8.8518,1.7437,0.037,-0.1128,0.0366,-0.0144,0.0324,-0.0179,482,2019-08-07 16:20:51:288
3.5669,-8.8518,1.7437,0.037,-0.1128,0.0366,-0.0069,0.0164,-0.0254,488,2019-08-07 16:20:51:294
3.5669,-8.8518,1.7437,0.037,-0.1128,0.0366,-0.0069,0.0164,-0.0254,492,2019-08-07 16:20:51:298
3.6004,-8.9234,1.7814,-0.0401,-0.1064,0.0172,-0.0016,-0.0102,-0.0339,498,2019-08-07 16:20:51:304
3.6004,-8.9234,1.7814,-0.0401,-0.1064,0.0172,-0.0016,-0.0102,-0.0339,503,2019-08-07 16:20:51:309
3.6583,-8.8614,1.6684,-0.0401,-0.1064,0.0172,-0.0016,-0.0102,-0.0339,507,2019-08-07 16:20:51:313
3.6583,-8.8614,1.6684,-0.1181,-0.1526,0.0354,-0.0016,-0.0028,-0.0371,513,2019-08-07 16:20:51:319
3.6583,-8.8614,1.6684,-0.1181,-0.1526,0.0354,-0.0016,-0.0028,-0.0371,518,2019-08-07 16:20:51:324
3.7827,-8.8996,1.7249,-0.1181,-0.1526,0.0354,0.0027,0.0302,-0.0435,523,2019-08-07 16:20:51:329
3.7827,-8.8996,1.7249,-0.1181,-0.1526,0.0354,0.0027,0.0302,-0.0435,528,2019-08-07 16:20:51:334
3.7301,-8.8471,1.7344,-0.105,-0.1203,0.0181,0.0101,0.0675,-0.0467,532,2019-08-07 16:20:51:338
3.7301,-8.8471,1.7344,-0.105,-0.1203,0.0181,0.0101,0.0675,-0.0467,538,2019-08-07 16:20:51:344
3.7301,-8.8471,1.7344,-0.105,-0.1203,0.0181,0.0101,0.0675,-0.0467,542,2019-08-07 16:20:51:348
3.644,-8.8185,1.7721,-0.105,-0.1203,0.0181,0.0037,0.0888,-0.051,549,2019-08-07 16:20:51:355
3.644,-8.8185,1.7721,0.0595,-0.1066,-0.0311,0.0037,0.0888,-0.051,553,2019-08-07 16:20:51:359
3.6153,-8.7851,1.8805,0.0595,-0.1066,-0.0311,-0.009,0.076,-0.0563,558,2019-08-07 16:20:51:364
3.6153,-8.7851,1.8805,0.0595,-0.1066,-0.0311,-0.009,0.076,-0.0563,562,2019-08-07 16:20:51:368
3.6153,-8.7851,1.8805,0.0595,-0.1066,-0.0311,-0.0208,0.0505,-0.0574,568,2019-08-07 16:20:51:374
3.644,-8.8185,1.8239,0.0053,-0.117,-0.0699,-0.0208,0.0505,-0.0574,572,2019-08-07 16:20:51:378
3.644,-8.8185,1.8239,0.0053,-0.117,-0.0699,-0.0399,0.0153,-0.0552,578,2019-08-07 16:20:51:384
3.7636,-8.9235,1.7391,0.0053,-0.117,-0.0699,-0.0399,0.0153,-0.0552,583,2019-08-07 16:20:51:389
3.7636,-8.9235,1.7391,0.0053,-0.117,-0.0699,-0.0463,-0.007,-0.0499,588,2019-08-07 16:20:51:394
3.7636,-8.9235,1.7391,-0.2142,-0.0137,-0.0287,-0.0463,-0.007,-0.0499,594,2019-08-07 16:20:51:400
3.8737,-9.0047,1.6825,-0.2142,-0.0137,-0.0287,-0.0431,-0.0124,-0.0446,598,2019-08-07 16:20:51:404
3.8737,-9.0047,1.6825,-0.2142,-0.0137,-0.0287,-0.0431,-0.0124,-0.0446,603,2019-08-07 16:20:51:409
3.9837,-9.0237,1.6448,-0.2142,-0.0137,-0.0287,-0.0431,-0.0124,-0.0446,607,2019-08-07 16:20:51:413
3.9837,-9.0237,1.6448,-0.3287,0.1127,0.0895,-0.0293,0.0036,-0.0307,613,2019-08-07 16:20:51:419
3.9837,-9.0237,1.6448,-0.3287,0.1127,0.0895,-0.0293,0.0036,-0.0307,617,2019-08-07 16:20:51:423
3.9119,-9.0619,1.5929,-0.3287,0.1127,0.0895,-0.0165,0.0281,-0.0243,623,2019-08-07 16:20:51:429
3.9119,-9.0619,1.5929,-0.3287,0.1127,0.0895,-0.0165,0.0281,-0.0243,628,2019-08-07 16:20:51:434
3.9072,-9.0285,1.6495,-0.2563,0.1,0.0914,-0.008,0.0366,-0.019,634,2019-08-07 16:20:51:440
3.9072,-9.0285,1.6495,-0.2563,0.1,0.0914,-0.008,0.0366,-0.019,637,2019-08-07 16:20:51:443
3.9072,-9.0285,1.6495,-0.2563,0.1,0.0914,-0.008,0.0366,-0.019,643,2019-08-07 16:20:51:449
3.8115,-8.9903,1.7485,-0.2563,0.1,0.0914,0.0112,0.0473,-0.0105,650,2019-08-07 16:20:51:456
3.8115,-8.9903,1.7485,-0.1441,0.0062,0.0055,0.0112,0.0473,-0.0105,652,2019-08-07 16:20:51:458
3.8115,-8.9903,1.7485,-0.1441,0.0062,0.0055,0.024,0.0558,-0.0052,657,2019-08-07 16:20:51:463
3.7636,-8.9235,1.6637,-0.1441,0.0062,0.0055,0.024,0.0558,-0.0052,663,2019-08-07 16:20:51:469
3.7636,-8.9235,1.6637,-0.1441,0.0062,0.0055,0.0282,0.0505,0.0055,667,2019-08-07 16:20:51:473
3.7015,-8.8758,1.7674,-0.0261,-0.0502,-0.0193,0.0282,0.0505,0.0055,673,2019-08-07 16:20:51:479
3.7015,-8.8758,1.7674,-0.0261,-0.0502,-0.0193,0.025,0.0452,0.0119,678,2019-08-07 16:20:51:484
3.6106,-8.7612,1.8428,-0.0261,-0.0502,-0.0193,0.0208,0.0366,0.014,684,2019-08-07 16:20:51:490
3.6106,-8.7612,1.8428,-0.0261,-0.0502,-0.0193,0.0208,0.0366,0.014,687,2019-08-07 16:20:51:493
3.6106,-8.7612,1.8428,0.0561,-0.1075,-0.0256,0.0208,0.0366,0.014,693,2019-08-07 16:20:51:499
3.601,-8.7946,1.8004,0.0561,-0.1075,-0.0256,0.0123,0.0164,0.0204,698,2019-08-07 16:20:51:504
3.601,-8.7946,1.8004,0.0561,-0.1075,-0.0256,0.0123,0.0164,0.0204,703,2019-08-07 16:20:51:509
3.601,-8.7946,1.8004,0.0561,-0.1075,-0.0256,0.0037,0.01,0.0236,708,2019-08-07 16:20:51:514
3.6345,-8.7994,1.7579,-0.0054,-0.1421,-0.0326,0.0037,0.01,0.0236,712,2019-08-07 16:20:51:518
3.6345,-8.7994,1.7579,-0.0054,-0.1421,-0.0326,5.0E-4,0.0132,0.0161,718,2019-08-07 16:20:51:524
3.6584,-8.7994,1.7297,-0.0054,-0.1421,-0.0326,5.0E-4,0.0132,0.0161,723,2019-08-07 16:20:51:529
3.6584,-8.7994,1.7297,-0.0054,-0.1421,-0.0326,-5.0E-4,0.0239,0.0119,728,2019-08-07 16:20:51:534
3.6584,-8.7994,1.7297,-0.0274,-0.0905,0.1055,-5.0E-4,0.0239,0.0119,733,2019-08-07 16:20:51:539
3.7111,-8.8614,1.6542,-0.0274,-0.0905,0.1055,-5.0E-4,0.0452,0.0034,737,2019-08-07 16:20:51:543
3.7111,-8.8614,1.6542,-0.014,-0.0859,0.0455,-5.0E-4,0.0452,0.0034,743,2019-08-07 16:20:51:549
3.6728,-8.8423,1.7344,-0.014,-0.0859,0.0455,-0.0016,0.0569,-0.0041,749,2019-08-07 16:20:51:555
3.6728,-8.8423,1.7344,-0.014,-0.0859,0.0455,-0.0016,0.0569,-0.0041,752,2019-08-07 16:20:51:558
3.6728,-8.8423,1.7344,-0.014,-0.0859,0.0455,-5.0E-4,0.0526,-0.019,758,2019-08-07 16:20:51:564
3.5867,-8.8089,1.7579,0.0963,-0.1614,-0.0168,-5.0E-4,0.0526,-0.019,763,2019-08-07 16:20:51:569
3.5867,-8.8089,1.7579,0.0963,-0.1614,-0.0168,-0.0048,0.0313,-0.0201,768,2019-08-07 16:20:51:574
3.5867,-8.8089,1.7579,0.0963,-0.1614,-0.0168,-0.0048,0.0313,-0.0201,772,2019-08-07 16:20:51:578
3.6345,-8.7851,1.7391,0.0963,-0.1614,-0.0168,-0.0186,-0.0049,-0.0179,778,2019-08-07 16:20:51:584
3.6345,-8.7851,1.7391,0.0039,-0.2415,0.029,-0.0186,-0.0049,-0.0179,783,2019-08-07 16:20:51:589
3.7685,-8.7612,1.7532,0.0039,-0.2415,0.029,-0.0261,-0.0326,-0.019,787,2019-08-07 16:20:51:593
3.7685,-8.7612,1.7532,0.0039,-0.2415,0.029,-0.0261,-0.0326,-0.019,793,2019-08-07 16:20:51:599
3.7685,-8.7612,1.7532,0.0039,-0.2415,0.029,-0.024,-0.0347,-0.0211,798,2019-08-07 16:20:51:604
3.869,-8.7373,1.6967,-0.1816,-0.1306,0.0928,-0.024,-0.0347,-0.0211,802,2019-08-07 16:20:51:608
3.869,-8.7373,1.6967,-0.1816,-0.1306,0.0928,-0.0261,-0.0177,-0.0169,808,2019-08-07 16:20:51:614
3.869,-8.7994,1.6825,-0.1816,-0.1306,0.0928,-0.0261,-0.0177,-0.0169,813,2019-08-07 16:20:51:619
3.8355,-8.7994,1.6825,-0.1816,-0.1306,0.0928,-0.025,0.0036,-0.0084,818,2019-08-07 16:20:51:624
3.8355,-8.7994,1.6825,-0.1677,-0.063,0.0403,-0.025,0.0036,-0.0084,823,2019-08-07 16:20:51:629
3.8594,-8.8376,1.725,-0.1677,-0.063,0.0403,-0.025,0.0239,-0.002,828,2019-08-07 16:20:51:634
3.8594,-8.8376,1.725,-0.1677,-0.063,0.0403,-0.025,0.0239,-0.002,833,2019-08-07 16:20:51:639
3.8594,-8.8376,1.725,-0.1677,-0.063,0.0403,-0.025,0.0239,-0.002,838,2019-08-07 16:20:51:644
3.8355,-8.8805,1.7297,-0.1384,-0.0299,0.0094,-0.025,0.0398,2.0E-4,844,2019-08-07 16:20:51:650
3.8355,-8.8805,1.7297,-0.1384,-0.0299,0.0094,-0.025,0.0398,2.0E-4,847,2019-08-07 16:20:51:653
3.8068,-8.8949,1.7202,-0.1384,-0.0299,0.0094,-0.024,0.0377,0.0034,853,2019-08-07 16:20:51:659
3.8068,-8.8949,1.7202,-0.1384,-0.0299,0.0094,-0.024,0.0377,0.0034,858,2019-08-07 16:20:51:664
3.8068,-8.8949,1.7202,-0.1384,-0.0299,0.0094,-0.0186,0.042,0.0044,863,2019-08-07 16:20:51:669
3.7111,-8.9044,1.6731,-0.0342,-0.0209,0.0745,-0.0186,0.042,0.0044,868,2019-08-07 16:20:51:674
3.7111,-8.9044,1.6731,-0.0342,-0.0209,0.0745,-0.009,0.0324,0.0034,873,2019-08-07 16:20:51:679
3.6537,-8.871,1.7438,-0.0342,-0.0209,0.0745,-0.009,0.0324,0.0034,878,2019-08-07 16:20:51:684
3.6537,-8.871,1.7438,-0.0342,-0.0209,0.0745,-0.009,0.0228,0.0066,883,2019-08-07 16:20:51:689
3.6537,-8.871,1.7438,0.0307,-0.0456,0.0653,-0.009,0.0228,0.0066,887,2019-08-07 16:20:51:693
3.6155,-8.8805,1.8098,0.0307,-0.0456,0.0653,-0.009,0.0228,0.0066,893,2019-08-07 16:20:51:699
3.6155,-8.8805,1.8098,0.0307,-0.0456,0.0653,-0.0048,0.0153,0.0023,898,2019-08-07 16:20:51:704
3.5772,-8.8185,1.7862,0.0307,-0.0456,0.0653,-0.0048,0.0153,0.0023,903,2019-08-07 16:20:51:709
3.5772,-8.8185,1.7862,0.0822,-0.0842,-0.0047,0.0037,0.0121,-0.0041,907,2019-08-07 16:20:51:713
3.5772,-8.8185,1.7862,0.0822,-0.0842,-0.0047,0.0037,0.0121,-0.0041,913,2019-08-07 16:20:51:719
3.6298,-8.766,1.7485,0.0822,-0.0842,-0.0047,0.0037,0.0068,-0.0094,918,2019-08-07 16:20:51:724
3.6298,-8.766,1.7485,0.0822,-0.0842,-0.0047,0.0037,0.0068,-0.0094,923,2019-08-07 16:20:51:729
3.6155,-8.7182,1.7391,0.0404,-0.217,0.0203,0.0016,-0.0049,-0.0137,928,2019-08-07 16:20:51:734
3.6155,-8.7182,1.7391,0.0404,-0.217,0.0203,0.0016,-0.0049,-0.0137,934,2019-08-07 16:20:51:740
3.6155,-8.7182,1.7391,0.0404,-0.217,0.0203,-0.0048,-0.0124,-0.0211,938,2019-08-07 16:20:51:744
3.6442,-8.7612,1.7533,0.0404,-0.217,0.0203,-0.0048,-0.0124,-0.0211,942,2019-08-07 16:20:51:748
3.6442,-8.7612,1.7533,-0.027,-0.1296,-0.0142,-0.0133,-0.0401,-0.0211,948,2019-08-07 16:20:51:754
3.7686,-8.7994,1.6637,-0.027,-0.1296,-0.0142,-0.0133,-0.0401,-0.0211,953,2019-08-07 16:20:51:759
3.7686,-8.7994,1.6637,-0.027,-0.1296,-0.0142,-0.0208,-0.0454,-0.0169,958,2019-08-07 16:20:51:764
3.7686,-8.7994,1.6637,-0.027,-0.1296,-0.0142,-0.0208,-0.0454,-0.0169,962,2019-08-07 16:20:51:768
3.7829,-8.8471,1.7061,-0.0977,-0.0761,0.0348,-0.0208,-0.0454,-0.0169,968,2019-08-07 16:20:51:774
3.7829,-8.8471,1.7061,-0.0977,-0.0761,0.0348,-0.0293,-0.0475,-0.0116,972,2019-08-07 16:20:51:778
3.7829,-8.8471,1.7061,-0.0977,-0.0761,0.0348,-0.0293,-0.0475,-0.0116,978,2019-08-07 16:20:51:784
3.8595,-8.9092,1.6496,-0.0977,-0.0761,0.0348,-0.0325,-0.0337,-0.0041,983,2019-08-07 16:20:51:789
3.8595,-8.9092,1.6496,-0.1796,-0.0427,0.082,-0.0325,-0.0337,-0.0041,988,2019-08-07 16:20:51:794
3.8739,-8.8615,1.6731,-0.1796,-0.0427,0.082,-0.0229,-6.0E-4,-9.0E-4,994,2019-08-07 16:20:51:800
3.8739,-8.8615,1.6731,-0.1796,-0.0427,0.082,-0.0229,-6.0E-4,-9.0E-4,998,2019-08-07 16:20:51:804
3.8739,-8.8615,1.6731,-0.1796,-0.0427,0.082,-0.0112,0.0366,-0.002,1003,2019-08-07 16:20:51:809
3.7495,-8.7803,1.6354,-0.04,-0.1528,0.126,-0.0112,0.0366,-0.002,1008,2019-08-07 16:20:51:814
3.7495,-8.7803,1.6354,-0.04,-0.1528,0.126,-0.0112,0.0366,-0.002,1013,2019-08-07 16:20:51:819
3.5725,-8.7087,1.5836,-0.04,-0.1528,0.126,-0.0027,0.0601,-0.0041,1018,2019-08-07 16:20:51:824
3.5725,-8.7087,1.5836,-0.04,-0.1528,0.126,-0.0027,0.0601,-0.0041,1022,2019-08-07 16:20:51:828
3.5725,-8.7087,1.6543,0.174,-0.2577,0.106,0.0016,0.0654,-0.0084,1028,2019-08-07 16:20:51:834
3.4864,-8.6514,1.6543,0.174,-0.2577,0.106,0.0027,0.0462,-0.0201,1033,2019-08-07 16:20:51:839
3.4864,-8.6514,1.6543,0.174,-0.2577,0.106,0.0027,0.0462,-0.0201,1038,2019-08-07 16:20:51:844
3.4768,-8.6991,1.7061,0.174,-0.2577,0.106,0.0027,0.0462,-0.0201,1043,2019-08-07 16:20:51:849
3.4768,-8.6991,1.7061,0.1996,-0.1561,0.0246,-0.0016,0.0143,-0.0329,1048,2019-08-07 16:20:51:854
3.5199,-8.828,1.6873,0.1996,-0.1561,0.0246,-0.0016,0.0143,-0.0329,1053,2019-08-07 16:20:51:859
3.5199,-8.828,1.6873,0.1996,-0.1561,0.0246,-0.0197,-0.0497,-0.0488,1058,2019-08-07 16:20:51:864
3.5199,-8.828,1.6873,0.1996,-0.1561,0.0246,-0.0197,-0.0497,-0.0488,1063,2019-08-07 16:20:51:869
3.6347,-9.0333,1.6213,0.0651,0.1137,0.1073,-0.0335,-0.1018,-0.0574,1068,2019-08-07 16:20:51:874
3.6347,-9.0333,1.6213,0.0651,0.1137,0.1073,-0.0335,-0.1018,-0.0574,1073,2019-08-07 16:20:51:879
3.6347,-9.0333,1.6213,0.0651,0.1137,0.1073,-0.0346,-0.1338,-0.0574,1078,2019-08-07 16:20:51:884
3.8548,-9.1813,1.6449,0.0651,0.1137,0.1073,-0.0346,-0.1338,-0.0574,1083,2019-08-07 16:20:51:889
3.8548,-9.1813,1.6449,-0.2739,0.2074,0.1234,-0.0346,-0.1477,-0.052,1087,2019-08-07 16:20:51:893
3.8548,-9.1813,1.6449,-0.2739,0.2074,0.1234,-0.0346,-0.1477,-0.052,1093,2019-08-07 16:20:51:899
4.0461,-9.0524,1.5836,-0.2739,0.2074,0.1234,-0.0261,-0.1338,-0.0382,1098,2019-08-07 16:20:51:904
4.0461,-9.0524,1.5836,-0.2739,0.2074,0.1234,-0.0261,-0.1338,-0.0382,1103,2019-08-07 16:20:51:909
4.161,-8.8519,1.5694,-0.4323,-0.062,0.1263,-0.0261,-0.1338,-0.0382,1108,2019-08-07 16:20:51:914
4.161,-8.8519,1.5694,-0.4323,-0.062,0.1263,-0.0037,-0.0816,-0.0084,1113,2019-08-07 16:20:51:919
4.161,-8.8519,1.5694,-0.4323,-0.062,0.1263,-0.0037,-0.0816,-0.0084,1118,2019-08-07 16:20:51:924
4.1849,-8.6514,1.5789,-0.4323,-0.062,0.1263,0.0091,-0.0092,0.0129,1123,2019-08-07 16:20:51:929
4.1849,-8.6514,1.5789,-0.4323,-0.062,0.1263,0.0091,-0.0092,0.0129,1128,2019-08-07 16:20:51:934
4.0079,-8.3936,1.6449,-0.3233,-0.3616,0.0295,0.0155,0.0803,0.0268,1133,2019-08-07 16:20:51:939
4.0079,-8.3936,1.6449,-0.3233,-0.3616,0.0295,0.0155,0.0803,0.0268,1138,2019-08-07 16:20:51:944
4.0079,-8.3936,1.6449,-0.3233,-0.3616,0.0295,0.0155,0.0803,0.0268,1143,2019-08-07 16:20:51:949
3.7161,-8.3698,1.6779,-0.3233,-0.3616,0.0295,-0.0037,0.1836,0.0385,1148,2019-08-07 16:20:51:954
3.7161,-8.3698,1.6779,0.1189,-0.6013,0.0506,-0.0037,0.1836,0.0385,1153,2019-08-07 16:20:51:959
3.7161,-8.3698,1.6779,0.1189,-0.6013,0.0506,-0.058,0.2539,0.047,1158,2019-08-07 16:20:51:964
3.3812,-8.4318,1.6354,0.1189,-0.6013,0.0506,-0.058,0.2539,0.047,1163,2019-08-07 16:20:51:969
3.3812,-8.4318,1.6354,0.1189,-0.6013,0.0506,-0.0964,0.2795,0.0406,1168,2019-08-07 16:20:51:974
3.1707,-8.5798,1.7721,0.4888,-0.3301,-0.0494,-0.0964,0.2795,0.0406,1173,2019-08-07 16:20:51:979
3.1707,-8.5798,1.7721,0.4888,-0.3301,-0.0494,-0.1188,0.2593,0.0289,1178,2019-08-07 16:20:51:984
3.1707,-8.5798,1.7721,0.4888,-0.3301,-0.0494,-0.1188,0.2593,0.0289,1183,2019-08-07 16:20:51:989
3.075,-8.723,1.6873,0.591,-0.1564,0.0138,-0.1507,0.1996,0.0183,1188,2019-08-07 16:20:51:994
3.075,-8.723,1.6873,0.591,-0.1564,0.0138,-0.1507,0.1996,0.0183,1193,2019-08-07 16:20:51:999
3.075,-8.723,1.6873,0.591,-0.1564,0.0138,-0.1507,0.1996,0.0183,1198,2019-08-07 16:20:52:004
3.1946,-8.7851,1.4987,0.591,-0.1564,0.0138,-0.1774,0.1645,0.0055,1203,2019-08-07 16:20:52:009
3.1946,-8.7851,1.4987,0.591,-0.1564,0.0138,-0.1774,0.1645,0.0055,1208,2019-08-07 16:20:52:014
3.3812,-8.8758,1.3338,0.3322,-0.1071,0.2764,-0.1923,0.1368,-0.0062,1213,2019-08-07 16:20:52:019
3.3812,-8.8758,1.3338,0.3322,-0.1071,0.2764,-0.1923,0.1368,-0.0062,1218,2019-08-07 16:20:52:024
3.3812,-8.8758,1.3338,0.3322,-0.1071,0.2764,-0.1944,0.1197,-0.0179,1222,2019-08-07 16:20:52:028
3.4673,-9.0476,1.2678,0.3322,-0.1071,0.2764,-0.1944,0.1197,-0.0179,1227,2019-08-07 16:20:52:033
3.4673,-9.0476,1.2678,0.2092,0.0769,0.4263,-0.1848,0.1133,-0.0254,1233,2019-08-07 16:20:52:039
3.4338,-9.1765,1.1735,0.2092,0.0769,0.4263,-0.1848,0.1133,-0.0254,1237,2019-08-07 16:20:52:043
3.4338,-9.1765,1.1735,0.2092,0.0769,0.4263,-0.1816,0.1048,-0.0361,1243,2019-08-07 16:20:52:049
3.4338,-9.1765,1.1735,0.2092,0.0769,0.4263,-0.1816,0.1048,-0.0361,1248,2019-08-07 16:20:52:054
3.4147,-9.3007,1.0651,0.262,0.3534,0.5673,-0.1816,0.1048,-0.0361,1252,2019-08-07 16:20:52:058
3.4147,-9.3007,1.0651,0.262,0.3534,0.5673,-0.1869,0.1016,-0.0478,1258,2019-08-07 16:20:52:064
3.5152,-9.6539,0.8954,0.262,0.3534,0.5673,-0.1869,0.1016,-0.0478,1263,2019-08-07 16:20:52:069
3.5152,-9.6539,0.8954,0.262,0.3534,0.5673,-0.1891,0.1346,-0.0659,1267,2019-08-07 16:20:52:073
3.5152,-9.6539,0.8954,0.1893,0.8745,0.6731,-0.1891,0.1346,-0.0659,1273,2019-08-07 16:20:52:079
3.4147,-10.117,0.9425,0.1893,0.8745,0.6731,-0.1614,0.206,-0.0829,1278,2019-08-07 16:20:52:084
3.4147,-10.117,0.9425,0.1893,0.8745,0.6731,-0.1614,0.206,-0.0829,1283,2019-08-07 16:20:52:089
3.4147,-10.117,0.9425,0.1893,0.8745,0.6731,-0.1252,0.2539,-0.0755,1288,2019-08-07 16:20:52:094
3.1851,-10.5419,0.8812,0.498,1.5883,0.7017,-0.1252,0.2539,-0.0755,1293,2019-08-07 16:20:52:099
3.1851,-10.5419,0.8812,0.498,1.5883,0.7017,-0.1252,0.2539,-0.0755,1298,2019-08-07 16:20:52:104
2.9554,-10.9142,1.1169,0.498,1.5883,0.7017,-0.0826,0.2784,-0.0584,1304,2019-08-07 16:20:52:110
2.9554,-10.9142,1.1169,0.498,1.5883,0.7017,-0.0826,0.2784,-0.0584,1307,2019-08-07 16:20:52:113
2.9554,-10.9142,1.1169,0.8686,2.2015,0.2699,-0.0112,0.2561,-0.0307,1313,2019-08-07 16:20:52:119
2.7497,-11.2866,1.5223,0.8686,2.2015,0.2699,-0.0112,0.2561,-0.0307,1319,2019-08-07 16:20:52:125
2.7497,-11.2866,1.5223,0.8686,2.2015,0.2699,0.0655,0.1986,0.0044,1323,2019-08-07 16:20:52:129
2.5105,-11.5539,1.6684,0.8686,2.2015,0.2699,0.0655,0.1986,0.0044,1328,2019-08-07 16:20:52:134
2.5105,-11.5539,1.6684,1.1857,2.7614,-0.1795,0.0655,0.1986,0.0044,1333,2019-08-07 16:20:52:139
2.5105,-11.5539,1.6684,1.1857,2.7614,-0.1795,0.1028,0.1442,0.0609,1338,2019-08-07 16:20:52:144
2.3622,-12.3082,1.9748,1.1857,2.7614,-0.1795,0.1081,0.1176,0.1216,1343,2019-08-07 16:20:52:149
2.3622,-12.3082,1.9748,1.1857,2.7614,-0.1795,0.1081,0.1176,0.1216,1348,2019-08-07 16:20:52:154
2.2043,-13.3202,2.4179,1.3521,4.1636,-0.604,0.1081,0.1176,0.1216,1353,2019-08-07 16:20:52:159
2.2043,-13.3202,2.4179,1.3521,4.1636,-0.604,0.106,0.1176,0.2569,1357,2019-08-07 16:20:52:163
2.2043,-13.3202,2.4179,1.4848,5.0928,-0.9284,0.1252,0.1432,0.3517,1363,2019-08-07 16:20:52:169
2.013,-14.633,2.7102,1.4848,5.0928,-0.9284,0.1252,0.1432,0.3517,1368,2019-08-07 16:20:52:174
2.013,-14.633,2.7102,1.4848,5.0928,-0.9284,0.1252,0.1432,0.3517,1373,2019-08-07 16:20:52:179
2.013,-14.633,2.7102,1.4848,5.0928,-0.9284,0.221,0.2284,0.5988,1378,2019-08-07 16:20:52:184
1.5728,-16.2418,3.3089,1.8964,7.224,-1.6117,0.221,0.2284,0.5988,1383,2019-08-07 16:20:52:189
1.5728,-16.2418,3.3089,1.8964,7.224,-1.6117,0.221,0.2284,0.5988,1387,2019-08-07 16:20:52:193
1.5728,-16.2418,3.3089,1.8964,7.224,-1.6117,0.3617,0.2966,0.8534,1393,2019-08-07 16:20:52:199
1.2906,-17.6644,3.8934,1.8964,7.224,-1.6117,0.3617,0.2966,0.8534,1398,2019-08-07 16:20:52:204
1.2906,-17.6644,3.8934,2.068,9.0801,-2.3848,0.5076,0.3551,1.0676,1403,2019-08-07 16:20:52:209
1.2906,-17.6644,3.8934,2.068,9.0801,-2.3848,0.5076,0.3551,1.0676,1408,2019-08-07 16:20:52:214
1.1853,-18.939,4.6523,2.068,9.0801,-2.3848,0.6834,0.4595,1.2966,1413,2019-08-07 16:20:52:219
1.1853,-18.939,4.6523,2.068,9.0801,-2.3848,0.6834,0.4595,1.2966,1419,2019-08-07 16:20:52:225
1.1853,-18.939,4.6523,1.8651,11.3699,-3.44,0.8868,0.6907,1.6353,1422,2019-08-07 16:20:52:228
1.1566,-20.8533,5.6233,1.8651,11.3699,-3.44,0.8868,0.6907,1.6353,1428,2019-08-07 16:20:52:234
1.1566,-20.8533,5.6233,1.8651,11.3699,-3.44,1.0051,0.9442,1.8931,1434,2019-08-07 16:20:52:240
1.458,-24.1854,6.4153,1.8651,11.3699,-3.44,1.0051,0.9442,1.8931,1437,2019-08-07 16:20:52:243
1.458,-24.1854,6.4153,1.8651,11.3699,-3.44,1.0051,0.9442,1.8931,1443,2019-08-07 16:20:52:249
1.458,-24.1854,6.4153,0.9967,16.9411,-4.1129,1.1404,1.6047,2.4055,1448,2019-08-07 16:20:52:254
1.6159,-29.7231,4.7796,0.9967,16.9411,-4.1129,1.1404,1.6047,2.4055,1454,2019-08-07 16:20:52:260
1.6159,-29.7231,4.7796,0.9967,16.9411,-4.1129,0.955,3.1792,3.0479,1458,2019-08-07 16:20:52:264
1.2715,-33.418,1.0462,0.6436,24.129,1.4602,0.955,3.1792,3.0479,1463,2019-08-07 16:20:52:269
1.2715,-33.418,1.0462,0.6436,24.129,1.4602,0.955,3.1792,3.0479,1468,2019-08-07 16:20:52:274
1.2715,-33.418,1.0462,0.6436,24.129,1.4602,0.7494,5.0327,3.4303,1473,2019-08-07 16:20:52:279
-0.6422,-34.3966,0.2543,0.6436,24.129,1.4602,0.7494,5.0327,3.4303,1477,2019-08-07 16:20:52:283
-0.6422,-34.3966,0.2543,2.6718,24.7352,3.2068,0.8485,6.4847,3.6924,1484,2019-08-07 16:20:52:290
-0.6422,-34.3966,0.2543,2.6718,24.7352,3.2068,0.8485,6.4847,3.6924,1488,2019-08-07 16:20:52:294
-1.8335,-33.7188,-1.108,2.6718,24.7352,3.2068,0.8485,6.4847,3.6924,1493,2019-08-07 16:20:52:299
-1.8335,-33.7188,-1.108,2.6718,24.7352,3.2068,1.1372,8.694,3.7382,1498,2019-08-07 16:20:52:304
-1.8335,-33.7188,-1.108,2.6718,24.7352,3.2068,1.1372,8.694,3.7382,1503,2019-08-07 16:20:52:309
-1.7665,-32.3105,-2.4514,1.5261,22.9822,5.4781,1.2512,10.7521,3.1778,1507,2019-08-07 16:20:52:313
-1.7665,-32.3105,-2.4514,1.5261,22.9822,5.4781,1.2512,10.7521,3.1778,1513,2019-08-07 16:20:52:319
-3.6761,-30.3197,-8.1505,1.5261,22.9822,5.4781,0.8741,11.7897,2.4194,1517,2019-08-07 16:20:52:323
-3.6761,-30.3197,-8.1505,4.6155,20.3638,13.7255,0.8741,11.7897,2.4194,1523,2019-08-07 16:20:52:329
-8.2164,-29.8519,-11.4832,4.6155,20.3638,13.7255,0.1625,12.2371,1.5331,1528,2019-08-07 16:20:52:334
-8.2164,-29.8519,-11.4832,4.6155,20.3638,13.7255,0.1625,12.2371,1.5331,1533,2019-08-07 16:20:52:339
-8.2164,-29.8519,-11.4832,4.6155,20.3638,13.7255,0.1625,12.2371,1.5331,1538,2019-08-07 16:20:52:344
-10.6755,-29.9378,-9.8994,8.1513,20.3495,11.005,-0.171,13.2203,0.1845,1544,2019-08-07 16:20:52:350
-10.6755,-29.9378,-9.8994,8.1513,20.3495,11.005,-0.171,13.2203,0.1845,1547,2019-08-07 16:20:52:353
-7.7188,-26.6821,-0.1182,8.1513,20.3495,11.005,0.4842,13.362,-1.1343,1553,2019-08-07 16:20:52:359
-7.7188,-26.6821,-0.1182,8.1513,20.3495,11.005,0.4842,13.362,-1.1343,1558,2019-08-07 16:20:52:364
-7.7188,-26.6821,-0.1182,8.1513,20.3495,11.005,2.1609,11.5628,-2.3509,1563,2019-08-07 16:20:52:369
-3.5231,-21.4357,0.3814,1.8818,13.2322,1.1482,2.1609,11.5628,-2.3509,1568,2019-08-07 16:20:52:374
-3.5231,-21.4357,0.3814,1.8818,13.2322,1.1482,4.9913,8.9998,-3.5067,1573,2019-08-07 16:20:52:379
-3.5231,-21.4357,0.3814,1.8818,13.2322,1.1482,4.9913,8.9998,-3.5067,1578,2019-08-07 16:20:52:384
-2.571,-12.1792,-1.7681,1.8818,13.2322,1.1482,7.7578,8.7505,-4.3738,1583,2019-08-07 16:20:52:389
-2.571,-12.1792,-1.7681,2.9205,-3.7514,5.7792,7.7578,8.7505,-4.3738,1588,2019-08-07 16:20:52:394
-2.571,-12.1792,-1.7681,2.9205,-3.7514,5.7792,7.7578,8.7505,-4.3738,1593,2019-08-07 16:20:52:399
-12.9145,8.9067,1.5882,2.9205,-3.7514,5.7792,10.7714,9.3364,-4.2715,1599,2019-08-07 16:20:52:405
-12.9145,8.9067,1.5882,2.9205,-3.7514,5.7792,10.7714,9.3364,-4.2715,1602,2019-08-07 16:20:52:408
-34.0465,108.9947,50.2394,22.9533,-96.9276,-12.1203,2.146,-4.8646,-0.5346,1608,2019-08-07 16:20:52:414
-34.0465,108.9947,50.2394,22.9533,-96.9276,-12.1203,2.146,-4.8646,-0.5346,1613,2019-08-07 16:20:52:419
-34.0465,108.9947,50.2394,22.9533,-96.9276,-12.1203,10.0502,-6.585,1.0164,1618,2019-08-07 16:20:52:424
10.9493,55.1985,2.8515,22.9533,-96.9276,-12.1203,10.0502,-6.585,1.0164,1622,2019-08-07 16:20:52:428
10.9493,55.1985,2.8515,-10.3791,-66.8937,22.064,8.3831,-7.3957,0.8865,1628,2019-08-07 16:20:52:434
25.0245,44.9348,-4.5492,-10.3791,-66.8937,22.064,8.3831,-7.3957,0.8865,1634,2019-08-07 16:20:52:440
25.0245,44.9348,-4.5492,-10.3791,-66.8937,22.064,5.4472,-4.8582,1.6822,1638,2019-08-07 16:20:52:444
25.0245,40.9964,-24.5546,-10.3791,-66.8937,22.064,5.4472,-4.8582,1.6822,1643,2019-08-07 16:20:52:449
36.3249,40.9964,-24.5546,-37.7934,-47.2937,37.8863,2.2482,0.1911,1.2455,1648,2019-08-07 16:20:52:454
36.3249,40.9964,-24.5546,-37.7934,-47.2937,37.8863,2.2482,0.1911,1.2455,1653,2019-08-07 16:20:52:459
7.9687,39.5833,-47.789,-37.7934,-47.2937,37.8863,2.2482,0.1911,1.2455,1658,2019-08-07 16:20:52:464
7.9687,39.5833,-47.789,-37.7934,-47.2937,37.8863,-3.7108,6.4634,-0.2619,1663,2019-08-07 16:20:52:469
7.9687,39.5833,-47.789,10.9913,-41.929,49.7947,-3.7108,6.4634,-0.2619,1668,2019-08-07 16:20:52:474
-18.7083,25.3335,-31.6206,10.9913,-41.929,49.7947,-6.9705,12.5545,0.046,1673,2019-08-07 16:20:52:479
-18.7083,25.3335,-31.6206,10.9913,-41.929,49.7947,-6.9705,12.5545,0.046,1677,2019-08-07 16:20:52:483
-18.6652,19.6383,47.0576,10.9913,-41.929,49.7947,-7.451,6.1864,0.4114,1683,2019-08-07 16:20:52:489
-18.6652,19.6383,47.0576,14.9589,-20.605,-30.2012,-7.451,6.1864,0.4114,1688,2019-08-07 16:20:52:494
-18.6652,19.6383,47.0576,14.9589,-20.605,-30.2012,-7.451,6.1864,0.4114,1693,2019-08-07 16:20:52:499
-19.8421,8.1907,7.6973,14.9589,-20.605,-30.2012,-5.2853,0.8516,0.8087,1698,2019-08-07 16:20:52:504
-19.8421,8.1907,7.6973,14.9589,-20.605,-30.2012,-5.2853,0.8516,0.8087,1703,2019-08-07 16:20:52:509
-7.1447,1.9561,18.3033,4.032,-10.3416,-14.2748,-2.1342,-2.0491,0.4156,1708,2019-08-07 16:20:52:514
-7.1447,1.9561,18.3033,4.032,-10.3416,-14.2748,-2.1342,-2.0491,0.4156,1713,2019-08-07 16:20:52:519
-7.1447,1.9561,18.3033,4.032,-10.3416,-14.2748,-2.1342,-2.0491,0.4156,1719,2019-08-07 16:20:52:525
-8.2595,6.3528,4.0629,4.032,-10.3416,-14.2748,-1.0115,-8.5355,-0.1692,1722,2019-08-07 16:20:52:528
-8.2595,6.3528,4.0629,7.729,-17.6443,7.5594,-1.0115,-8.5355,-0.1692,1728,2019-08-07 16:20:52:534
-10.422,9.9618,-13.892,7.729,-17.6443,7.5594,-2.4453,-10.9888,0.7022,1733,2019-08-07 16:20:52:539
-10.422,9.9618,-13.892,7.729,-17.6443,7.5594,-2.4453,-10.9888,0.7022,1738,2019-08-07 16:20:52:544
-10.422,9.9618,-13.892,7.729,-17.6443,7.5594,-4.3841,-6.6894,1.9123,1743,2019-08-07 16:20:52:549
-0.0689,2.233,-11.2711,-4.8215,-8.8517,10.1588,-4.3841,-6.6894,1.9123,1747,2019-08-07 16:20:52:553
-0.0689,2.233,-11.2711,-4.8215,-8.8517,10.1588,-5.0563,-6.634,1.7493,1752,2019-08-07 16:20:52:558
9.2508,-5.9064,17.7282,-4.8215,-8.8517,10.1588,-5.0563,-6.634,1.7493,1758,2019-08-07 16:20:52:564
9.2508,-5.9064,17.7282,-4.8215,-8.8517,10.1588,-3.8802,-9.3324,0.5754,1763,2019-08-07 16:20:52:569
9.2508,-5.9064,17.7282,-2.7834,-0.3154,4.9854,-3.8802,-9.3324,0.5754,1768,2019-08-07 16:20:52:574
0.8784,-10.1408,-2.3384,-2.7834,-0.3154,4.9854,-3.8802,-9.3324,0.5754,1773,2019-08-07 16:20:52:579
0.8784,-10.1408,-2.3384,-2.7834,-0.3154,4.9854,-2.5827,-6.8119,-0.0723,1777,2019-08-07 16:20:52:583
2.8112,-19.9749,3.502,-2.7834,-0.3154,4.9854,-2.5827,-6.8119,-0.0723,1783,2019-08-07 16:20:52:589
2.8112,-19.9749,3.502,-1.8213,18.6961,-1.9024,-1.6858,-5.8713,-0.5591,1788,2019-08-07 16:20:52:594
2.8112,-19.9749,3.502,-1.8213,18.6961,-1.9024,-1.6858,-5.8713,-0.5591,1793,2019-08-07 16:20:52:599
-0.5617,-32.9167,-1.6031,-1.8213,18.6961,-1.9024,-1.4951,-5.8703,-0.3152,1798,2019-08-07 16:20:52:604
-0.5617,-32.9167,-1.6031,-1.8213,18.6961,-1.9024,-1.4951,-5.8703,-0.3152,1803,2019-08-07 16:20:52:609
-0.1406,-25.522,6.7734,-0.6767,16.2422,-3.6989,-1.0764,-5.5901,0.2153,1808,2019-08-07 16:20:52:614
-0.1406,-25.522,6.7734,-0.6767,16.2422,-3.6989,-1.0764,-5.5901,0.2153,1813,2019-08-07 16:20:52:619
-0.1406,-25.522,6.7734,-0.6767,16.2422,-3.6989,0.546,-5.5081,2.0E-4,1818,2019-08-07 16:20:52:624
1.2898,-16.5807,9.6535,-0.6767,16.2422,-3.6989,0.546,-5.5081,2.0E-4,1822,2019-08-07 16:20:52:628
1.2898,-16.5807,9.6535,-0.484,8.7538,-7.7129,2.3494,-5.6529,-0.7263,1828,2019-08-07 16:20:52:634
-1.4994,-18.0797,-1.6974,-0.484,8.7538,-7.7129,2.3494,-5.6529,-0.7263,1833,2019-08-07 16:20:52:639
-1.4994,-18.0797,-1.6974,-0.484,8.7538,-7.7129,1.5984,-6.0982,-1.1493,1838,2019-08-07 16:20:52:644
-1.4994,-18.0797,-1.6974,-0.484,8.7538,-7.7129,1.5984,-6.0982,-1.1493,1842,2019-08-07 16:20:52:648
-4.0494,-19.1681,-1.3344,-0.484,8.7538,-7.7129,1.5984,-6.0982,-1.1493,1848,2019-08-07 16:20:52:654
-4.0494,-19.1681,-1.3344,4.9988,9.9578,5.3565,-0.6503,-5.9746,-1.0395,1852,2019-08-07 16:20:52:658
-4.0494,-19.1681,-1.3344,4.9988,9.9578,5.3565,-0.6503,-5.9746,-1.0395,1858,2019-08-07 16:20:52:664
-3.7671,-20.4093,5.6656,4.2516,11.2312,-2.2356,-2.5742,-6.6607,-0.704,1863,2019-08-07 16:20:52:669
-3.7671,-20.4093,5.6656,4.2516,11.2312,-2.2356,-2.5742,-6.6607,-0.704,1868,2019-08-07 16:20:52:674
0.2947,-24.6771,1.0131,4.2516,11.2312,-2.2356,-2.0245,-7.6354,-0.9042,1873,2019-08-07 16:20:52:679
0.2947,-24.6771,1.0131,-1.9058,16.5291,1.6343,-2.0245,-7.6354,-0.9042,1877,2019-08-07 16:20:52:683
0.2947,-24.6771,1.0131,-1.9058,16.5291,1.6343,-1.4109,-7.2412,-1.6297,1884,2019-08-07 16:20:52:690
4.1891,-24.5148,0.3579,-1.9058,16.5291,1.6343,-1.4109,-7.2412,-1.6297,1888,2019-08-07 16:20:52:694
4.1891,-24.5148,0.3579,-1.9058,16.5291,1.6343,-0.8229,-6.143,-2.2454,1893,2019-08-07 16:20:52:699
4.1891,-24.5148,0.3579,-1.9058,16.5291,1.6343,-0.8229,-6.143,-2.2454,1898,2019-08-07 16:20:52:704
3.5384,-20.8819,0.5464,-1.8172,10.9609,1.0751,-0.302,-4.6303,-2.125,1903,2019-08-07 16:20:52:709
3.5384,-20.8819,0.5464,-1.8172,10.9609,1.0751,-0.302,-4.6303,-2.125,1908,2019-08-07 16:20:52:714
3.5384,-20.8819,0.5464,-1.8172,10.9609,1.0751,-0.1571,-3.6162,-1.667,1913,2019-08-07 16:20:52:719
3.2992,-17.9555,1.3478,-0.2698,8.4417,1.8534,-0.1571,-3.6162,-1.667,1918,2019-08-07 16:20:52:724
3.2992,-17.9555,1.3478,-0.2698,8.4417,1.8534,-0.4692,-2.2409,-1.1024,1923,2019-08-07 16:20:52:729
2.5098,-17.8028,0.7727,-0.2698,8.4417,1.8534,-0.4692,-2.2409,-1.1024,1928,2019-08-07 16:20:52:734
2.5098,-17.8028,0.7727,-0.2698,8.4417,1.8534,-1.0093,-1.0201,-0.7466,1933,2019-08-07 16:20:52:739
2.5098,-17.8028,0.7727,-0.2698,8.4417,1.8534,-1.0093,-1.0201,-0.7466,1938,2019-08-07 16:20:52:744
0.0985,-18.5332,4.1996,2.492,9.2875,-2.189,-1.0093,-1.0201,-0.7466,1942,2019-08-07 16:20:52:748
0.0985,-18.5332,4.1996,2.492,9.2875,-2.189,-1.2416,-0.659,-0.574,1948,2019-08-07 16:20:52:754
-1.8247,-19.1919,5.543,2.492,9.2875,-2.189,-1.2416,-0.659,-0.574,1953,2019-08-07 16:20:52:759
-1.8247,-19.1919,5.543,2.492,9.2875,-2.189,-0.9007,-1.0329,-0.3642,1958,2019-08-07 16:20:52:764
-1.8247,-19.1919,5.543,3.675,10.0559,-3.1523,-0.9007,-1.0329,-0.3642,1963,2019-08-07 16:20:52:769
-0.399,-18.9914,4.4824,3.675,10.0559,-3.1523,-0.5768,-1.377,-0.508,1968,2019-08-07 16:20:52:774
-0.399,-18.9914,4.4824,3.675,10.0559,-3.1523,-0.5768,-1.377,-0.508,1972,2019-08-07 16:20:52:778
0.1751,-16.3277,3.4501,3.675,10.0559,-3.1523,-0.5768,-1.377,-0.508,1978,2019-08-07 16:20:52:784
0.1751,-16.3277,3.4501,2.4369,6.4845,-1.5444,-0.2573,-1.5261,-0.5666,1983,2019-08-07 16:20:52:789
0.1751,-16.3277,3.4501,2.4369,6.4845,-1.5444,-0.2573,-1.5261,-0.5666,1988,2019-08-07 16:20:52:794
1.8926,-14.1938,2.069,2.4369,6.4845,-1.5444,-0.2573,-1.5261,-0.5666,1992,2019-08-07 16:20:52:798
1.8926,-14.1938,2.069,2.4369,6.4845,-1.5444,-0.0367,-1.4206,-0.3578,1998,2019-08-07 16:20:52:804
3.5336,-13.2294,1.8993,-0.616,3.982,-0.4129,0.1593,-1.1671,-0.3034,2003,2019-08-07 16:20:52:809
3.5336,-13.2294,1.8993,-0.616,3.982,-0.4129,0.1593,-1.1671,-0.3034,2008,2019-08-07 16:20:52:814
3.5336,-13.2294,1.8993,-0.616,3.982,-0.4129,0.5523,-0.5887,-0.2566,2013,2019-08-07 16:20:52:819
3.8781,-11.5968,1.3572,-0.616,3.982,-0.4129,0.5523,-0.5887,-0.2566,2018,2019-08-07 16:20:52:824
3.8781,-11.5968,1.3572,-0.872,1.7626,0.011,0.5523,-0.5887,-0.2566,2023,2019-08-07 16:20:52:829
3.5767,-10.1981,2.1067,-0.872,1.7626,0.011,0.8208,-0.0997,-0.1799,2028,2019-08-07 16:20:52:834
3.5767,-10.1981,2.1067,-0.872,1.7626,0.011,0.8208,-0.0997,-0.1799,2032,2019-08-07 16:20:52:838
3.5767,-10.1981,2.1067,-0.872,1.7626,0.011,0.8453,-0.023,-0.101,2038,2019-08-07 16:20:52:844
2.8255,-9.0142,2.2858,0.1985,-0.1672,-0.6141,0.8453,-0.023,-0.101,2042,2019-08-07 16:20:52:848
2.8255,-9.0142,2.2858,0.1985,-0.1672,-0.6141,0.8453,-0.023,-0.101,2048,2019-08-07 16:20:52:854
2.859,-8.2694,1.3855,0.1985,-0.1672,-0.6141,0.6972,-0.072,-0.0574,2053,2019-08-07 16:20:52:859
2.859,-8.2694,1.3855,0.1985,-0.1672,-0.6141,0.6972,-0.072,-0.0574,2058,2019-08-07 16:20:52:864
2.859,-8.2694,1.3855,-0.3023,-0.9132,0.7238,0.4117,-0.1029,-0.0733,2062,2019-08-07 16:20:52:868
3.6867,-8.3649,1.0932,-0.3023,-0.9132,0.7238,0.4117,-0.1029,-0.0733,2068,2019-08-07 16:20:52:874
3.6867,-8.3649,1.0932,-0.3023,-0.9132,0.7238,0.4117,-0.1029,-0.0733,2073,2019-08-07 16:20:52:879
3.6867,-8.3649,1.0932,-0.3023,-0.9132,0.7238,0.2669,0.043,-0.1415,2078,2019-08-07 16:20:52:884
4.0599,-8.6848,0.7774,-1.0708,-0.3774,1.1512,0.2583,0.3605,-0.1777,2084,2019-08-07 16:20:52:890
4.0599,-8.6848,0.7774,-1.0708,-0.3774,1.1512,0.2583,0.3605,-0.1777,2089,2019-08-07 16:20:52:895
4.1077,-8.575,0.7491,-1.0708,-0.3774,1.1512,0.2583,0.3605,-0.1777,2093,2019-08-07 16:20:52:899
4.1077,-8.575,0.7491,-1.0708,-0.3774,1.1512,0.2551,0.7855,-0.2235,2099,2019-08-07 16:20:52:905
4.1077,-8.575,0.7491,-0.5821,-0.9362,1.2729,0.2551,0.7855,-0.2235,2103,2019-08-07 16:20:52:909
3.3183,-7.9448,0.5464,-0.5821,-0.9362,1.2729,0.2551,0.7855,-0.2235,2108,2019-08-07 16:20:52:914
3.3183,-7.9448,0.5464,-0.5821,-0.9362,1.2729,0.1625,1.071,-0.2278,2113,2019-08-07 16:20:52:919
2.5241,-7.7921,0.438,-0.5821,-0.9362,1.2729,0.1625,1.071,-0.2278,2117,2019-08-07 16:20:52:923
2.5241,-7.7921,0.438,1.041,-1.219,1.2982,-0.0293,1.1658,-0.2278,2123,2019-08-07 16:20:52:929
2.5241,-7.7921,0.438,1.041,-1.219,1.2982,-0.0293,1.1658,-0.2278,2128,2019-08-07 16:20:52:934
1.419,-8.1167,1.64,1.8339,-0.9003,0.0982,-0.1347,1.0028,-0.2353,2134,2019-08-07 16:20:52:940
1.419,-8.1167,1.64,1.8339,-0.9003,0.0982,-0.1347,1.0028,-0.2353,2137,2019-08-07 16:20:52:943
1.419,-8.1167,1.64,1.8339,-0.9003,0.0982,-0.1347,1.0028,-0.2353,2143,2019-08-07 16:20:52:949
0.8735,-8.4938,2.5922,1.8339,-0.9003,0.0982,-0.2264,0.4329,-0.2321,2148,2019-08-07 16:20:52:954
0.8735,-8.4938,2.5922,1.9423,-0.5117,-0.5557,-0.2264,0.4329,-0.2321,2153,2019-08-07 16:20:52:959
0.8735,-8.4938,2.5922,1.9423,-0.5117,-0.5557,-0.286,-0.2531,-0.2459,2157,2019-08-07 16:20:52:963
1.8208,-8.4652,2.1444,1.9423,-0.5117,-0.5557,-0.286,-0.2531,-0.2459,2163,2019-08-07 16:20:52:969
1.8208,-8.4652,2.1444,1.9423,-0.5117,-0.5557,-0.3467,-0.6686,-0.2566,2169,2019-08-07 16:20:52:975
3.5479,-8.4079,1.5174,-0.3879,-0.6769,0.4104,-0.3467,-0.6686,-0.2566,2173,2019-08-07 16:20:52:979
3.5479,-8.4079,1.5174,-0.3879,-0.6769,0.4104,-0.3819,-0.8241,-0.2491,2178,2019-08-07 16:20:52:984
3.5479,-8.4079,1.5174,-0.3879,-0.6769,0.4104,-0.3819,-0.8241,-0.2491,2182,2019-08-07 16:20:52:988
5.3564,-8.9521,1.0131,-0.3879,-0.6769,0.4104,-0.3425,-0.5141,-0.2981,2188,2019-08-07 16:20:52:994
5.3564,-8.9521,1.0131,-0.3879,-0.6769,0.4104,-0.3425,-0.5141,-0.2981,2193,2019-08-07 16:20:52:999
5.4568,-8.9139,0.9989,-2.1745,-0.1304,0.7969,-0.22,-0.1125,-0.2864,2198,2019-08-07 16:20:53:004
5.4568,-8.9139,0.9989,-2.1745,-0.1304,0.7969,-0.22,-0.1125,-0.2864,2203,2019-08-07 16:20:53:009
5.4568,-8.9139,0.9989,-2.1745,-0.1304,0.7969,-0.22,-0.1125,-0.2864,2208,2019-08-07 16:20:53:014
5.0884,-8.9712,0.6171,-2.1745,-0.1304,0.7969,-0.0911,0.4862,-0.1628,2213,2019-08-07 16:20:53:019
5.0884,-8.9712,0.6171,-1.7254,-0.0071,1.1665,-0.0911,0.4862,-0.1628,2218,2019-08-07 16:20:53:024
5.0884,-8.9712,0.6171,-1.7254,-0.0071,1.1665,-0.0985,1.0327,-0.0978,2223,2019-08-07 16:20:53:029
4.079,-9.1956,1.1168,-1.7254,-0.0071,1.1665,-0.0985,1.0327,-0.0978,2228,2019-08-07 16:20:53:034
4.079,-9.1956,1.1168,-1.7254,-0.0071,1.1665,-0.0985,1.0327,-0.0978,2233,2019-08-07 16:20:53:039
2.4715,-9.439,2.3424,0.1552,0.2934,0.0375,-0.106,1.2244,-0.1032,2238,2019-08-07 16:20:53:044
2.4715,-9.439,2.3424,0.1552,0.2934,0.0375,-0.106,1.2244,-0.1032,2243,2019-08-07 16:20:53:049
2.4715,-9.439,2.3424,0.1552,0.2934,0.0375,-0.058,1.1424,-0.1149,2248,2019-08-07 16:20:53:054
1.3902,-9.6682,3.2238,1.941,0.6589,-1.4149,-0.058,1.1424,-0.1149,2253,2019-08-07 16:20:53:059
1.3902,-9.6682,3.2238,1.941,0.6589,-1.4149,0.0123,0.695,-0.1362,2258,2019-08-07 16:20:53:064
1.3902,-9.6682,3.2238,1.941,0.6589,-1.4149,0.0123,0.695,-0.1362,2263,2019-08-07 16:20:53:069
1.4811,-9.7923,3.4925,1.7764,0.7388,-1.5797,0.0421,0.2902,-0.1958,2268,2019-08-07 16:20:53:074
1.4811,-9.7923,3.4925,1.7764,0.7388,-1.5797,0.0421,0.2902,-0.1958,2273,2019-08-07 16:20:53:079
1.816,-9.2338,3.4737,1.7764,0.7388,-1.5797,0.0463,-0.1072,-0.2342,2278,2019-08-07 16:20:53:084
1.816,-9.2338,3.4737,0.8369,-0.0821,-1.0338,0.0463,-0.1072,-0.2342,2284,2019-08-07 16:20:53:090
1.816,-9.2338,3.4737,0.8369,-0.0821,-1.0338,0.0261,-0.382,-0.2076,2288,2019-08-07 16:20:53:094
2.9547,-8.9378,2.6063,0.8369,-0.0821,-1.0338,0.0261,-0.382,-0.2076,2293,2019-08-07 16:20:53:099
2.9547,-8.9378,2.6063,0.8369,-0.0821,-1.0338,0.0016,-0.447,-0.1841,2298,2019-08-07 16:20:53:104
4.2895,-9.1621,2.0124,0.8369,-0.0821,-1.0338,0.0016,-0.447,-0.1841,2303,2019-08-07 16:20:53:109
4.2895,-9.1621,2.0124,-1.1239,0.1618,-0.0432,0.0016,-0.447,-0.1841,2308,2019-08-07 16:20:53:114
4.2895,-9.1621,2.0124,-1.1239,0.1618,-0.0432,-0.0037,-0.2627,-0.1522,2313,2019-08-07 16:20:53:119
5.0358,-9.2863,1.7248,-1.1239,0.1618,-0.0432,-0.0037,-0.2627,-0.1522,2318,2019-08-07 16:20:53:124
5.0358,-9.2863,1.7248,-1.1239,0.1618,-0.0432,0.0272,0.0707,-0.1213,2323,2019-08-07 16:20:53:129
4.9018,-9.1287,1.343,-1.5929,0.1369,0.4863,0.0272,0.0707,-0.1213,2328,2019-08-07 16:20:53:134
4.9018,-9.1287,1.343,-1.5929,0.1369,0.4863,0.0336,0.3488,-0.0499,2333,2019-08-07 16:20:53:139
4.9018,-9.1287,1.343,-1.5929,0.1369,0.4863,0.0336,0.3488,-0.0499,2338,2019-08-07 16:20:53:144
4.6578,-9.1335,1.2252,-1.5929,0.1369,0.4863,0.0336,0.3488,-0.0499,2343,2019-08-07 16:20:53:149
4.6578,-9.1335,1.2252,-1.0304,0.1338,0.5494,0.025,0.6055,0.0012,2348,2019-08-07 16:20:53:154
3.878,-9.1144,1.6353,-1.0304,0.1338,0.5494,0.025,0.6055,0.0012,2353,2019-08-07 16:20:53:159
3.878,-9.1144,1.6353,-1.0304,0.1338,0.5494,0.0282,0.7749,0.0151,2358,2019-08-07 16:20:53:164
3.878,-9.1144,1.6353,-1.0304,0.1338,0.5494,0.0282,0.7749,0.0151,2362,2019-08-07 16:20:53:168
3.1843,-8.9855,2.0265,0.1687,-0.0187,-0.0469,0.0368,0.7344,0.03,2368,2019-08-07 16:20:53:174
3.1843,-8.9855,2.0265,0.1687,-0.0187,-0.0469,0.0368,0.7344,0.03,2373,2019-08-07 16:20:53:179
3.1843,-8.9855,2.0265,0.1687,-0.0187,-0.0469,0.0517,0.5895,0.0076,2378,2019-08-07 16:20:53:184
3.1173,-8.8518,2.4602,0.1687,-0.0187,-0.0469,0.0517,0.5895,0.0076,2383,2019-08-07 16:20:53:189
3.1173,-8.8518,2.4602,0.1052,-0.2517,-0.4269,0.0527,0.4276,-0.0222,2388,2019-08-07 16:20:53:194
3.39,-8.5081,2.1868,0.1052,-0.2517,-0.4269,0.0527,0.4276,-0.0222,2393,2019-08-07 16:20:53:199
3.39,-8.5081,2.1868,-0.1829,-0.5073,-0.0258,0.0133,0.3083,-0.0211,2399,2019-08-07 16:20:53:205
3.39,-8.5081,2.1868,-0.1829,-0.5073,-0.0258,0.0133,0.3083,-0.0211,2403,2019-08-07 16:20:53:209
3.9785,-8.3649,1.7908,-0.1829,-0.5073,-0.0258,0.0133,0.3083,-0.0211,2407,2019-08-07 16:20:53:213
3.9785,-8.3649,1.7908,-0.1829,-0.5073,-0.0258,-0.0378,0.2955,-0.0062,2413,2019-08-07 16:20:53:219
4.3277,-8.5415,1.2393,-0.9568,-0.4907,0.6639,-0.0378,0.2955,-0.0062,2419,2019-08-07 16:20:53:225
4.3277,-8.5415,1.2393,-0.9568,-0.4907,0.6639,-0.0836,0.4617,0.0066,2423,2019-08-07 16:20:53:229
4.3277,-8.5415,1.2393,-0.9568,-0.4907,0.6639,-0.0836,0.4617,0.0066,2428,2019-08-07 16:20:53:234
4.1698,-8.9235,0.8999,-0.9568,-0.4907,0.6639,-0.1166,0.679,0.0257,2433,2019-08-07 16:20:53:239
4.1698,-8.9235,0.8999,-0.7498,0.0445,0.9711,-0.1166,0.679,0.0257,2438,2019-08-07 16:20:53:244
4.1698,-8.9235,0.8999,-0.7498,0.0445,0.9711,-0.1166,0.679,0.0257,2443,2019-08-07 16:20:53:249
3.6101,-9.3292,1.5221,-0.7498,0.0445,0.9711,-0.1049,0.8079,0.0534,2448,2019-08-07 16:20:53:254
3.6101,-9.3292,1.5221,-0.7498,0.0445,0.9711,-0.1049,0.8079,0.0534,2453,2019-08-07 16:20:53:259
3.6101,-9.3292,1.5221,0.3386,0.3563,0.0978,-0.0154,0.8952,0.0683,2458,2019-08-07 16:20:53:264
2.7154,-9.3245,2.2151,0.3386,0.3563,0.0978,-0.0154,0.8952,0.0683,2463,2019-08-07 16:20:53:269
2.7154,-9.3245,2.2151,0.3386,0.3563,0.0978,0.0368,0.7589,0.0982,2468,2019-08-07 16:20:53:274
2.7154,-9.3245,2.2151,0.3386,0.3563,0.0978,0.0368,0.7589,0.0982,2473,2019-08-07 16:20:53:279
1.6868,-8.9569,2.9221,1.624,-0.0758,-0.8434,0.0314,0.4265,0.1386,2478,2019-08-07 16:20:53:284
1.6868,-8.9569,2.9221,1.624,-0.0758,-0.8434,0.0314,0.4265,0.1386,2483,2019-08-07 16:20:53:289
1.6772,-9.0523,2.8844,1.624,-0.0758,-0.8434,-0.0048,0.0824,0.1323,2487,2019-08-07 16:20:53:293
1.6772,-9.0523,2.8844,1.624,-0.0758,-0.8434,-0.0048,0.0824,0.1323,2493,2019-08-07 16:20:53:299
1.6772,-9.0523,2.8844,1.1863,0.1474,-0.6826,-0.0463,-0.2137,0.0875,2498,2019-08-07 16:20:53:304
2.0695,-9.1908,2.7524,1.1863,0.1474,-0.6826,-0.0463,-0.2137,0.0875,2503,2019-08-07 16:20:53:309
2.0695,-9.1908,2.7524,1.1863,0.1474,-0.6826,-0.0708,-0.4044,0.0598,2507,2019-08-07 16:20:53:313
2.601,-9.229,2.2434,1.1863,0.1474,-0.6826,-0.0708,-0.4044,0.0598,2513,2019-08-07 16:20:53:319
2.601,-9.229,2.2434,0.113,0.287,0.1278,-0.0602,-0.4395,0.063,2517,2019-08-07 16:20:53:323
2.601,-9.229,1.5694,0.113,0.287,0.1278,-0.0602,-0.4395,0.063,2524,2019-08-07 16:20:53:330
3.3473,-9.377,1.5694,0.113,0.287,0.1278,-0.0602,-0.4395,0.063,2528,2019-08-07 16:20:53:334
3.3473,-9.377,1.5694,0.113,0.287,0.1278,-0.0176,-0.3341,0.079,2533,2019-08-07 16:20:53:339
3.4239,-9.3722,1.3572,-0.2724,0.328,0.7654,-0.0176,-0.3341,0.079,2538,2019-08-07 16:20:53:344
3.4239,-9.3722,1.3572,-0.2724,0.328,0.7654,0.0208,-0.1445,0.096,2543,2019-08-07 16:20:53:349
3.4239,-9.3722,1.3572,-0.2724,0.328,0.7654,0.0208,-0.1445,0.096,2549,2019-08-07 16:20:53:355
3.1464,-9.229,1.4138,-6.0E-4,0.1815,0.7035,0.0368,-0.0752,0.1078,2552,2019-08-07 16:20:53:358
3.1464,-9.229,1.4138,-6.0E-4,0.1815,0.7035,0.0368,-0.0752,0.1078,2558,2019-08-07 16:20:53:364
3.1464,-9.229,1.4138,-6.0E-4,0.1815,0.7035,0.0506,-0.0837,0.1205,2563,2019-08-07 16:20:53:369
2.4575,-9.0763,1.8616,0.8153,0.026,-0.0418,0.0506,-0.0837,0.1205,2569,2019-08-07 16:20:53:375
2.4575,-9.0763,1.8616,0.8153,0.026,-0.0418,0.0506,-0.3042,0.1323,2573,2019-08-07 16:20:53:379
2.2087,-9.0858,2.267,0.8153,0.026,-0.0418,0.0506,-0.3042,0.1323,2578,2019-08-07 16:20:53:384
2.2087,-9.0858,2.267,0.8153,0.026,-0.0418,0.0549,-0.5578,0.128,2583,2019-08-07 16:20:53:389
2.2087,-9.0858,2.267,0.1983,0.0854,0.1379,0.0549,-0.5578,0.128,2588,2019-08-07 16:20:53:394
3.156,-9.1431,1.7768,0.1983,0.0854,0.1379,0.0559,-0.7165,0.096,2593,2019-08-07 16:20:53:399
3.156,-9.1431,1.7768,0.1983,0.0854,0.1379,0.0559,-0.7165,0.096,2598,2019-08-07 16:20:53:404
3.156,-9.1431,1.7768,0.1983,0.0854,0.1379,0.0559,-0.7165,0.096,2603,2019-08-07 16:20:53:409
4.4717,-9.0381,1.4044,0.1983,0.0854,0.1379,0.0666,-0.626,0.047,2608,2019-08-07 16:20:53:414
4.4717,-9.0381,1.4044,-1.4306,-0.0396,0.804,0.0932,-0.3959,0.0438,2613,2019-08-07 16:20:53:419
4.974,-8.828,0.9896,-1.4306,-0.0396,0.804,0.0932,-0.3959,0.0438,2619,2019-08-07 16:20:53:425
4.974,-8.828,0.9896,-1.4306,-0.0396,0.804,0.0932,-0.3959,0.0438,2622,2019-08-07 16:20:53:428
4.974,-8.828,0.9896,-1.4306,-0.0396,0.804,0.1273,0.1219,0.0502,2628,2019-08-07 16:20:53:434
3.998,-8.4652,1.1498,-1.1247,-0.5462,0.9355,0.1348,0.435,0.1014,2633,2019-08-07 16:20:53:439
3.998,-8.4652,1.1498,-1.1247,-0.5462,0.9355,0.1348,0.435,0.1014,2638,2019-08-07 16:20:53:444
3.998,-8.4652,1.1498,-1.1247,-0.5462,0.9355,0.1177,0.5661,0.1408,2643,2019-08-07 16:20:53:449
2.8881,-8.6371,1.8381,-1.1247,-0.5462,0.9355,0.1177,0.5661,0.1408,2648,2019-08-07 16:20:53:454
2.8881,-8.6371,1.8381,0.6435,-0.3098,-0.2212,0.1177,0.5661,0.1408,2653,2019-08-07 16:20:53:459
2.8881,-8.6371,1.8381,0.6435,-0.3098,-0.2212,0.0847,0.4308,0.1546,2658,2019-08-07 16:20:53:464
1.8068,-8.9712,2.9505,0.6435,-0.3098,-0.2212,0.0847,0.4308,0.1546,2663,2019-08-07 16:20:53:469
1.8068,-8.9712,2.9505,0.6435,-0.3098,-0.2212,0.0847,0.1165,0.1525,2668,2019-08-07 16:20:53:474
1.8068,-8.9712,2.9505,1.1669,0.0218,-0.9429,0.0847,0.1165,0.1525,2673,2019-08-07 16:20:53:479
2.113,-9.1622,3.0872,1.1669,0.0218,-0.9429,0.073,-0.2297,0.1195,2678,2019-08-07 16:20:53:484
2.113,-9.1622,3.0872,0.6347,0.0479,-0.7592,0.073,-0.2297,0.1195,2684,2019-08-07 16:20:53:490
2.113,-9.1622,3.0872,0.6347,0.0479,-0.7592,0.0613,-0.5226,0.0588,2688,2019-08-07 16:20:53:494
2.9838,-8.9283,2.5263,0.6347,0.0479,-0.7592,0.0613,-0.5226,0.0588,2693,2019-08-07 16:20:53:499
2.9838,-8.9283,2.5263,0.6347,0.0479,-0.7592,0.0623,-0.5716,0.0556,2698,2019-08-07 16:20:53:504
3.6105,-8.7994,1.8475,-0.4265,-0.2392,0.1804,0.0623,-0.5716,0.0556,2703,2019-08-07 16:20:53:509
3.6105,-8.7994,1.8475,-0.4265,-0.2392,0.1804,0.0634,-0.4608,0.0705,2708,2019-08-07 16:20:53:514
3.6105,-8.7994,1.8475,-0.4265,-0.2392,0.1804,0.0634,-0.4608,0.0705,2713,2019-08-07 16:20:53:519
3.8162,-8.8089,1.8192,-0.4265,-0.2392,0.1804,0.0634,-0.3096,0.0779,2718,2019-08-07 16:20:53:524
3.8162,-8.8089,1.8192,-0.7012,-0.2344,0.2428,0.0634,-0.3096,0.0779,2723,2019-08-07 16:20:53:529
3.6009,-8.8042,2.0078,-0.7012,-0.2344,0.2428,0.0591,-0.1892,0.0875,2728,2019-08-07 16:20:53:534
3.6009,-8.8042,2.0078,-0.7012,-0.2344,0.2428,0.0591,-0.1892,0.0875,2733,2019-08-07 16:20:53:539
3.6009,-8.8042,2.0078,-0.7012,-0.2344,0.2428,0.0591,-0.1892,0.0875,2738,2019-08-07 16:20:53:544
3.3904,-8.9474,2.3943,-0.3278,-0.1264,-0.2677,0.0591,-0.1892,0.0875,2742,2019-08-07 16:20:53:548
3.3904,-8.9474,2.3943,-0.3278,-0.1264,-0.2677,0.0432,-0.1477,0.0928,2748,2019-08-07 16:20:53:554
3.2469,-8.8949,2.6206,-0.3278,-0.1264,-0.2677,0.0432,-0.1477,0.0928,2753,2019-08-07 16:20:53:559
3.2469,-8.8949,2.6206,-0.3278,-0.1264,-0.2677,0.025,-0.203,0.063,2758,2019-08-07 16:20:53:564
3.2469,-8.8949,2.6206,-0.1126,-0.2333,-0.4714,0.025,-0.203,0.063,2762,2019-08-07 16:20:53:568
3.2421,-8.8185,2.5876,-0.1126,-0.2333,-0.4714,0.024,-0.2393,0.0545,2768,2019-08-07 16:20:53:574
3.2421,-8.8185,2.5876,-0.1126,-0.2333,-0.4714,0.024,-0.2393,0.0545,2773,2019-08-07 16:20:53:579
3.5196,-8.7946,2.3094,-0.1126,-0.2333,-0.4714,0.024,-0.2254,0.046,2778,2019-08-07 16:20:53:584
3.5196,-8.7946,2.3094,-0.4822,-0.3197,-0.2145,0.024,-0.2254,0.046,2783,2019-08-07 16:20:53:589
3.5196,-8.7946,2.3094,-0.4822,-0.3197,-0.2145,0.0187,-0.1477,0.0289,2788,2019-08-07 16:20:53:594
3.5196,-8.7946,2.3094,-0.4822,-0.3197,-0.2145,0.0187,-0.1477,0.0289,2793,2019-08-07 16:20:53:599
3.6632,-8.7087,2.201,-0.4822,-0.3197,-0.2145,0.0187,-0.1477,0.0289,2798,2019-08-07 16:20:53:604
3.6632,-8.7087,2.201,-0.6589,-0.2092,0.0262,0.0165,-0.0923,0.0311,2803,2019-08-07 16:20:53:609
3.7828,-8.8662,2.0973,-0.6589,-0.2092,0.0262,0.0165,-0.0923,0.0311,2808,2019-08-07 16:20:53:614
3.7828,-8.8662,2.0973,-0.6589,-0.2092,0.0262,0.0336,0.0217,0.014,2812,2019-08-07 16:20:53:618
3.7828,-8.8662,2.0973,-0.6589,-0.2092,0.0262,0.0336,0.0217,0.014,2818,2019-08-07 16:20:53:624
3.5149,-9.0237,2.1869,-0.3519,-0.0975,-0.1459,0.04,0.0782,-0.003,2823,2019-08-07 16:20:53:629
3.5149,-9.0237,2.1869,-0.3519,-0.0975,-0.1459,0.04,0.0782,-0.003,2828,2019-08-07 16:20:53:634
3.1704,-9.081,2.5216,-0.3519,-0.0975,-0.1459,0.057,0.0409,0.0108,2833,2019-08-07 16:20:53:639
3.1704,-9.081,2.5216,-0.3519,-0.0975,-0.1459,0.057,0.0409,0.0108,2838,2019-08-07 16:20:53:644
3.1704,-9.081,2.5216,-0.3519,-0.0975,-0.1459,0.057,0.0409,0.0108,2843,2019-08-07 16:20:53:649
3.046,-9.0237,2.7054,0.0187,-0.047,-0.5688,0.0666,-0.0443,0.0204,2849,2019-08-07 16:20:53:655
3.046,-9.0237,2.7054,0.0187,-0.047,-0.5688,0.0666,-0.0443,0.0204,2853,2019-08-07 16:20:53:659
3.0556,-8.8614,2.6158,0.0187,-0.047,-0.5688,0.0698,-0.1839,0.0215,2857,2019-08-07 16:20:53:663
3.0556,-8.8614,2.6158,-0.0461,-0.2354,-0.434,0.0698,-0.1839,0.0215,2863,2019-08-07 16:20:53:669
3.0556,-8.8614,2.6158,-0.0461,-0.2354,-0.434,0.0442,-0.2552,0.0129,2868,2019-08-07 16:20:53:674
3.3187,-8.8185,2.3896,-0.0461,-0.2354,-0.434,0.0442,-0.2552,0.0129,2873,2019-08-07 16:20:53:679
3.3187,-8.8185,2.3896,-0.0461,-0.2354,-0.434,0.0112,-0.2755,-0.0041,2878,2019-08-07 16:20:53:684
3.7302,-8.7898,2.1586,-0.6491,-0.276,-0.0247,0.0112,-0.2755,-0.0041,2884,2019-08-07 16:20:53:690
3.7302,-8.7898,2.1586,-0.6491,-0.276,-0.0247,0.0112,-0.2755,-0.0041,2888,2019-08-07 16:20:53:694
3.7302,-8.7898,2.1586,-0.6491,-0.276,-0.0247,0.0155,-0.1349,-0.0297,2892,2019-08-07 16:20:53:698
3.955,-8.8614,2.0172,-0.6491,-0.276,-0.0247,0.0155,-0.1349,-0.0297,2898,2019-08-07 16:20:53:704
3.955,-8.8614,2.0172,-0.7711,-0.3192,0.2248,0.0304,0.026,-0.0361,2903,2019-08-07 16:20:53:709
3.955,-8.8614,2.0172,-0.7711,-0.3192,0.2248,0.0304,0.026,-0.0361,2908,2019-08-07 16:20:53:714
3.7828,-8.7373,1.8522,-0.7711,-0.3192,0.2248,0.0389,0.1421,-0.0339,2913,2019-08-07 16:20:53:719
3.7828,-8.7373,1.8522,-0.7711,-0.3192,0.2248,0.0389,0.1421,-0.0339,2919,2019-08-07 16:20:53:725
3.7828,-8.7373,1.8522,-0.7711,-0.3192,0.2248,0.0463,0.2571,-0.0424,2923,2019-08-07 16:20:53:729
3.3809,-8.7755,2.1869,-0.2794,-0.2804,-0.0403,0.0463,0.2571,-0.0424,2928,2019-08-07 16:20:53:734
3.3809,-8.7755,2.1869,-0.2794,-0.2804,-0.0403,0.0421,0.2412,-0.0446,2933,2019-08-07 16:20:53:739
3.046,-8.8137,2.5074,-0.2794,-0.2804,-0.0403,0.0421,0.2412,-0.0446,2938,2019-08-07 16:20:53:744
3.046,-8.8137,2.5074,-0.2794,-0.2804,-0.0403,0.0346,0.1517,-0.035,2943,2019-08-07 16:20:53:749
3.0747,-8.7851,2.5451,0.0925,-0.2847,-0.2709,0.0346,0.1517,-0.035,2948,2019-08-07 16:20:53:754
3.0747,-8.7851,2.5451,0.0925,-0.2847,-0.2709,0.024,0.0153,-0.0361,2953,2019-08-07 16:20:53:759
3.0747,-8.7851,2.5451,0.0925,-0.2847,-0.2709,0.024,0.0153,-0.0361,2958,2019-08-07 16:20:53:764
3.2757,-8.7516,2.4697,-0.3126,-0.3139,-0.1069,0.0048,-0.1061,-0.0265,2963,2019-08-07 16:20:53:769
3.2757,-8.7516,2.4697,-0.3126,-0.3139,-0.1069,0.0048,-0.1061,-0.0265,2968,2019-08-07 16:20:53:774
3.2757,-8.7516,2.4697,-0.3126,-0.3139,-0.1069,0.0048,-0.1061,-0.0265,2973,2019-08-07 16:20:53:779
3.7254,-8.7373,2.102,-0.3126,-0.3139,-0.1069,-0.0048,-0.1519,-0.0052,2978,2019-08-07 16:20:53:784
3.7254,-8.7373,2.102,-0.3126,-0.3139,-0.1069,-0.0048,-0.1519,-0.0052,2983,2019-08-07 16:20:53:789
4.0364,-8.8328,1.7532,-0.8693,-0.2164,0.2933,-0.0112,-0.1061,0.0129,2988,2019-08-07 16:20:53:794
4.0364,-8.8328,1.7532,-0.8693,-0.2164,0.2933,-0.0112,-0.1061,0.0129,2993,2019-08-07 16:20:53:799
4.0029,-8.9187,1.6967,-0.8693,-0.2164,0.2933,-0.0176,-0.0379,0.0215,2998,2019-08-07 16:20:53:804
4.0029,-8.9187,1.6967,-0.8693,-0.2164,0.2933,-0.0176,-0.0379,0.0215,3002,2019-08-07 16:20:53:808
4.0029,-8.9187,1.6967,-0.7653,-0.0975,0.4372,0.0059,0.1006,0.0428,3008,2019-08-07 16:20:53:814
3.8067,-8.9617,1.9182,-0.7653,-0.0975,0.4372,0.0059,0.1006,0.0428,3013,2019-08-07 16:20:53:819
3.8067,-8.9617,1.9182,-0.7653,-0.0975,0.4372,0.0059,0.1006,0.0428,3018,2019-08-07 16:20:53:824
3.8067,-8.9617,1.9182,-0.7653,-0.0975,0.4372,0.0059,0.1006,0.0428,3023,2019-08-07 16:20:53:829
3.778,-8.9283,1.8946,-0.6362,-0.0694,0.2016,0.0304,0.1559,0.0556,3028,2019-08-07 16:20:53:834
3.778,-8.9283,1.8946,-0.6362,-0.0694,0.2016,0.0304,0.1559,0.0556,3032,2019-08-07 16:20:53:838
3.778,-8.9283,1.8946,-0.6362,-0.0694,0.2016,0.0389,0.2039,0.0428,3038,2019-08-07 16:20:53:844
3.1035,-8.7373,2.5687,-0.6362,-0.0694,0.2016,0.0389,0.2039,0.0428,3043,2019-08-07 16:20:53:849
3.1035,-8.7373,2.5687,0.0756,-0.3229,-0.3401,0.0101,0.1474,0.0343,3049,2019-08-07 16:20:53:855
2.936,-8.6657,2.4886,0.0756,-0.3229,-0.3401,0.0101,0.1474,0.0343,3053,2019-08-07 16:20:53:859
2.936,-8.6657,2.4886,0.0756,-0.3229,-0.3401,-0.0367,0.0835,0.0311,3057,2019-08-07 16:20:53:863
2.936,-8.6657,2.4886,0.0756,-0.3229,-0.3401,-0.0367,0.0835,0.0311,3063,2019-08-07 16:20:53:869
2.9217,-8.8853,2.3283,0.1602,-0.163,-0.1223,-0.0751,0.0441,0.0119,3067,2019-08-07 16:20:53:873
2.9217,-8.8853,2.3283,0.1602,-0.163,-0.1223,-0.0751,0.0441,0.0119,3073,2019-08-07 16:20:53:879
3.0221,-9.0094,2.465,0.1602,-0.163,-0.1223,-0.0932,-6.0E-4,-0.0041,3079,2019-08-07 16:20:53:885
3.0221,-9.0094,2.465,0.1602,-0.163,-0.1223,-0.0932,-6.0E-4,-0.0041,3082,2019-08-07 16:20:53:888
3.0221,-9.0094,2.465,-0.0803,0.0196,-0.1117,-0.0932,-6.0E-4,-0.0041,3088,2019-08-07 16:20:53:894
3.0221,-9.0094,2.465,-0.0803,0.0196,-0.1117,-0.0857,-0.0188,-0.0222,3092,2019-08-07 16:20:53:898
3.2853,-9.0715,2.135,-0.0803,0.0196,-0.1117,-0.0857,-0.0188,-0.0222,3098,2019-08-07 16:20:53:904
3.2853,-9.0715,2.135,-0.0803,0.0196,-0.1117,-0.0825,0.0036,-0.035,3103,2019-08-07 16:20:53:909
3.3857,-8.9569,1.9559,-0.2694,-0.068,0.1071,-0.0825,0.0036,-0.035,3109,2019-08-07 16:20:53:915
3.3857,-8.9569,1.9559,-0.2694,-0.068,0.1071,-0.0836,0.0494,-0.0307,3113,2019-08-07 16:20:53:919
3.3857,-8.9569,1.9559,-0.2694,-0.068,0.1071,-0.0836,0.0494,-0.0307,3118,2019-08-07 16:20:53:924
3.2374,-9.0238,1.8758,-0.2694,-0.068,0.1071,-0.0687,0.0846,-0.0201,3123,2019-08-07 16:20:53:929
3.2374,-9.0238,1.8758,-0.0692,-0.0266,0.1513,-0.0687,0.0846,-0.0201,3127,2019-08-07 16:20:53:933
3.0556,-9.0906,2.1728,-0.0692,-0.0266,0.1513,-0.0442,0.0974,-0.0158,3133,2019-08-07 16:20:53:939
3.0556,-9.0906,2.1728,-0.0692,-0.0266,0.1513,-0.0442,0.0974,-0.0158,3138,2019-08-07 16:20:53:944
3.0556,-9.0906,2.1728,-0.0692,-0.0266,0.1513,-0.0069,0.0665,-0.0179,3142,2019-08-07 16:20:53:948
2.869,-9.0715,2.4037,0.2211,0.0159,-0.2395,-0.0069,0.0665,-0.0179,3149,2019-08-07 16:20:53:955
2.869,-9.0715,2.4037,0.2211,0.0159,-0.2395,0.0314,-0.0017,-0.0222,3153,2019-08-07 16:20:53:959
2.869,-8.9474,2.2576,0.2211,0.0159,-0.2395,0.0314,-0.0017,-0.0222,3158,2019-08-07 16:20:53:964
2.893,-8.9474,2.2576,0.2211,0.0159,-0.2395,0.0314,-0.0017,-0.0222,3163,2019-08-07 16:20:53:969
2.893,-8.9474,2.2576,0.1626,-0.2678,-0.1159,0.0314,-0.0486,-0.0318,3168,2019-08-07 16:20:53:974
2.9647,-8.7516,2.1916,0.1626,-0.2678,-0.1159,0.0314,-0.0486,-0.0318,3173,2019-08-07 16:20:53:979
2.9647,-8.7516,2.1916,0.1626,-0.2678,-0.1159,0.0261,-0.0901,-0.0414,3178,2019-08-07 16:20:53:984
3.2087,-8.7373,2.2953,0.1626,-0.2678,-0.1159,0.0261,-0.0901,-0.0414,3183,2019-08-07 16:20:53:989
3.2087,-8.7373,2.2953,-0.0891,-0.3163,-0.0683,0.0293,-0.1157,-0.0393,3188,2019-08-07 16:20:53:994
3.2087,-8.7373,2.2953,-0.0891,-0.3163,-0.0683,0.0293,-0.1157,-0.0393,3193,2019-08-07 16:20:53:999
3.4384,-8.7516,2.234,-0.0891,-0.3163,-0.0683,0.0282,-0.1114,-0.0414,3198,2019-08-07 16:20:54:004
3.4384,-8.7516,2.234,-0.0891,-0.3163,-0.0683,0.0282,-0.1114,-0.0414,3202,2019-08-07 16:20:54:008
3.4384,-8.7516,2.234,-0.4327,-0.3496,0.0199,0.0218,-0.1008,-0.0361,3208,2019-08-07 16:20:54:014
3.5867,-8.6848,2.1822,-0.4327,-0.3496,0.0199,0.0218,-0.1008,-0.0361,3213,2019-08-07 16:20:54:019
3.5867,-8.6848,2.1822,-0.4327,-0.3496,0.0199,0.0069,-0.0891,-0.0201,3218,2019-08-07 16:20:54:024
3.7207,-8.6753,2.1492,-0.4327,-0.3496,0.0199,0.0069,-0.0891,-0.0201,3223,2019-08-07 16:20:54:029
3.7207,-8.6753,2.1492,-0.5821,-0.3316,0.0398,-0.0069,-0.056,-0.0137,3227,2019-08-07 16:20:54:033
3.7207,-8.6753,2.1492,-0.5821,-0.3316,0.0398,-0.0069,-0.056,-0.0137,3233,2019-08-07 16:20:54:039
3.7111,-8.7516,2.1303,-0.5821,-0.3316,0.0398,-0.0261,-0.0156,0.0034,3237,2019-08-07 16:20:54:043
3.7111,-8.7516,2.1303,-0.5821,-0.3316,0.0398,-0.0261,-0.0156,0.0034,3243,2019-08-07 16:20:54:049
3.7111,-8.7516,2.1303,-0.5821,-0.3316,0.0398,-0.0261,-0.0156,0.0034,3248,2019-08-07 16:20:54:054
3.6489,-8.8471,2.1209,-0.5098,-0.1927,0.0387,-0.0389,0.0111,0.0225,3253,2019-08-07 16:20:54:059
3.6489,-8.8471,2.1209,-0.5098,-0.1927,0.0387,-0.0389,0.0111,0.0225,3258,2019-08-07 16:20:54:064
3.3331,-8.9187,2.2246,-0.5098,-0.1927,0.0387,-0.0367,0.0547,0.0247,3264,2019-08-07 16:20:54:070
3.3331,-8.9187,2.2246,-0.083,-0.1855,-0.0834,-0.0367,0.0547,0.0247,3268,2019-08-07 16:20:54:074
3.3331,-8.9187,2.2246,-0.083,-0.1855,-0.0834,-0.0367,0.0547,0.0247,3273,2019-08-07 16:20:54:079
3.1131,-8.9092,2.333,-0.083,-0.1855,-0.0834,-0.0272,0.0633,0.0108,3278,2019-08-07 16:20:54:084
3.1131,-8.9092,2.333,-0.083,-0.1855,-0.0834,-0.0272,0.0633,0.0108,3283,2019-08-07 16:20:54:089
2.9361,-8.8758,2.1963,0.1944,-0.1682,-0.0417,-0.0378,0.0302,0.0012,3289,2019-08-07 16:20:54:095
2.9361,-8.8758,2.1963,0.1944,-0.1682,-0.0417,-0.0378,0.0302,0.0012,3293,2019-08-07 16:20:54:099
2.96,-8.8901,2.2246,0.1697,-0.1548,-0.0724,-0.0431,0.0175,-0.0105,3298,2019-08-07 16:20:54:104
2.96,-8.8901,2.2246,0.1697,-0.1548,-0.0724,-0.0431,0.0175,-0.0105,3303,2019-08-07 16:20:54:109
2.96,-8.8901,2.2246,0.1697,-0.1548,-0.0724,-0.0431,0.0175,-0.0105,3308,2019-08-07 16:20:54:114
3.0126,-8.9426,2.3378,0.1697,-0.1548,-0.0724,-0.0389,-0.022,-0.0243,3313,2019-08-07 16:20:54:119
3.0126,-8.9426,2.3378,0.0916,-0.1886,-0.1355,-0.0389,-0.022,-0.0243,3318,2019-08-07 16:20:54:124
3.0126,-8.9426,2.3378,0.0916,-0.1886,-0.1355,-0.0335,-0.0369,-0.0265,3322,2019-08-07 16:20:54:128
3.2231,-8.871,2.1869,0.0916,-0.1886,-0.1355,-0.0335,-0.0369,-0.0265,3328,2019-08-07 16:20:54:134
3.2231,-8.871,2.1869,0.0916,-0.1886,-0.1355,-0.0357,-0.0262,-0.0382,3333,2019-08-07 16:20:54:139
3.2231,-8.871,2.1869,0.0916,-0.1886,-0.1355,-0.0357,-0.0262,-0.0382,3337,2019-08-07 16:20:54:143
3.2853,-8.7707,2.2718,-0.1439,-0.2733,-0.1333,-0.0474,-0.0209,-0.0414,3343,2019-08-07 16:20:54:149
3.2853,-8.7707,2.2718,-0.1439,-0.2733,-0.1333,-0.0474,-0.0209,-0.0414,3348,2019-08-07 16:20:54:154
3.314,-8.766,2.2482,-0.1439,-0.2733,-0.1333,-0.0644,-0.0539,-0.0201,3353,2019-08-07 16:20:54:159
3.314,-8.766,2.2482,-0.1439,-0.2733,-0.1333,-0.0644,-0.0539,-0.0201,3357,2019-08-07 16:20:54:163
3.314,-8.766,2.2482,-0.2071,-0.1729,-0.004,-0.0783,-0.0592,-0.0084,3363,2019-08-07 16:20:54:169
3.4001,-8.8949,2.2293,-0.2071,-0.1729,-0.004,-0.0783,-0.0592,-0.0084,3368,2019-08-07 16:20:54:174
3.4001,-8.8949,2.2293,-0.2071,-0.1729,-0.004,-0.0847,-0.0976,0.0044,3373,2019-08-07 16:20:54:179
3.2183,-8.9187,2.3142,-0.1017,-0.1278,-0.2254,-0.0847,-0.0976,0.0044,3378,2019-08-07 16:20:54:184
3.2183,-8.9187,2.3142,-0.1017,-0.1278,-0.2254,-0.0847,-0.0976,0.0044,3383,2019-08-07 16:20:54:189
3.2183,-8.9187,2.3142,-0.1017,-0.1278,-0.2254,-0.0815,-0.1583,0.0247,3387,2019-08-07 16:20:54:193
3.271,-8.9283,2.2058,-0.1017,-0.1278,-0.2254,-0.0815,-0.1583,0.0247,3393,2019-08-07 16:20:54:199
3.271,-8.9283,2.2058,-0.1017,-0.1278,-0.2254,-0.0879,-0.1999,0.0343,3398,2019-08-07 16:20:54:204
3.5198,-8.9808,2.0879,-0.2654,-0.0895,-0.0248,-0.0879,-0.1999,0.0343,3403,2019-08-07 16:20:54:209
3.5198,-8.9808,2.0879,-0.2654,-0.0895,-0.0248,-0.0911,-0.1881,0.0343,3409,2019-08-07 16:20:54:215
3.5198,-8.9808,2.0879,-0.2654,-0.0895,-0.0248,-0.0911,-0.1881,0.0343,3413,2019-08-07 16:20:54:219
3.6537,-9.0094,1.8617,-0.2654,-0.0895,-0.0248,-0.0868,-0.1317,0.0332,3418,2019-08-07 16:20:54:224
3.6537,-9.0094,1.8617,-0.534,0.0296,0.2438,-0.0868,-0.1317,0.0332,3422,2019-08-07 16:20:54:228
3.5867,-9.0476,1.8334,-0.534,0.0296,0.2438,-0.0783,-0.0411,0.0279,3428,2019-08-07 16:20:54:234
3.5867,-9.0476,1.8334,-0.534,0.0296,0.2438,-0.0783,-0.0411,0.0279,3432,2019-08-07 16:20:54:238
3.5867,-9.0476,1.8334,-0.534,0.0296,0.2438,-0.0623,0.0473,0.0236,3438,2019-08-07 16:20:54:244
3.3523,-9.0524,2.0266,-0.1915,-0.0081,0.0109,-0.0623,0.0473,0.0236,3443,2019-08-07 16:20:54:249
3.3523,-9.0524,2.0266,-0.1915,-0.0081,0.0109,-0.041,0.0707,0.0119,3449,2019-08-07 16:20:54:255
3.137,-9.0667,2.1633,-0.1915,-0.0081,0.0109,-0.041,0.0707,0.0119,3452,2019-08-07 16:20:54:258
3.137,-9.0667,2.1633,-0.1915,-0.0081,0.0109,-0.0261,0.0345,-0.0073,3459,2019-08-07 16:20:54:265
3.137,-9.0667,2.1633,0.2061,-0.0627,-0.2838,-0.0261,0.0345,-0.0073,3463,2019-08-07 16:20:54:269
2.8643,-8.9903,2.3095,0.2061,-0.0627,-0.2838,-0.0261,0.0345,-0.0073,3468,2019-08-07 16:20:54:274
2.8643,-8.9903,2.3095,0.2061,-0.0627,-0.2838,-0.0059,-0.0614,-0.0211,3473,2019-08-07 16:20:54:279
2.9409,-8.9665,2.2199,0.2061,-0.0627,-0.2838,-0.0059,-0.0614,-0.0211,3478,2019-08-07 16:20:54:284
2.9409,-8.9665,2.2199,0.1526,-0.1337,-0.226,-0.0101,-0.1615,-0.0233,3483,2019-08-07 16:20:54:289
2.9409,-8.9665,2.2199,0.1526,-0.1337,-0.226,-0.0101,-0.1615,-0.0233,3487,2019-08-07 16:20:54:293
3.2471,-8.9522,2.0926,0.1526,-0.1337,-0.226,-0.0133,-0.2265,-0.0297,3493,2019-08-07 16:20:54:299
3.2471,-8.9522,2.0926,0.1526,-0.1337,-0.226,-0.0133,-0.2265,-0.0297,3498,2019-08-07 16:20:54:304
3.5578,-8.9665,1.9512,-0.3683,-0.0507,0.0935,-0.0133,-0.2393,-0.0339,3503,2019-08-07 16:20:54:309
3.5578,-8.9665,1.9512,-0.3683,-0.0507,0.0935,-0.0133,-0.2393,-0.0339,3508,2019-08-07 16:20:54:314
3.5578,-8.9665,1.9512,-0.5259,-0.0351,0.1647,-0.0133,-0.2393,-0.0339,3514,2019-08-07 16:20:54:320
3.8401,-8.9903,1.7815,-0.5259,-0.0351,0.1647,-0.008,-0.1785,-0.0307,3518,2019-08-07 16:20:54:324
3.8401,-8.9903,1.7815,-0.5259,-0.0351,0.1647,-0.008,-0.1785,-0.0307,3522,2019-08-07 16:20:54:328
3.8401,-8.9903,1.7815,-0.5259,-0.0351,0.1647,-0.0069,-0.0475,-0.0265,3528,2019-08-07 16:20:54:334
3.8305,-9.0285,1.7532,-0.6213,-0.0418,0.2056,-0.0069,-0.0475,-0.0265,3533,2019-08-07 16:20:54:339
3.8305,-9.0285,1.7532,-0.6213,-0.0418,0.2056,-0.0016,0.0547,-0.0222,3538,2019-08-07 16:20:54:344
2.9455,-8.8519,1.5599,-0.6213,-0.0418,0.2056,-0.0016,0.0547,-0.0222,3542,2019-08-07 16:20:54:348
2.9455,-8.8519,1.5599,-0.6213,-0.0418,0.2056,-0.122,-0.17,0.0193,3548,2019-08-07 16:20:54:354
2.9981,-9.1192,2.4037,0.419,-0.0634,-0.2613,-0.122,-0.17,0.0193,3553,2019-08-07 16:20:54:359
2.9981,-9.1192,2.4037,0.419,-0.0634,-0.2613,-0.0623,-0.0859,0.0098,3558,2019-08-07 16:20:54:364
2.9981,-9.1192,2.4037,0.419,-0.0634,-0.2613,-0.0623,-0.0859,0.0098,3563,2019-08-07 16:20:54:369
3.2134,-9.1479,2.3424,0.419,-0.0634,-0.2613,0.04,-0.1391,-0.0361,3567,2019-08-07 16:20:54:373
3.2134,-9.1479,2.3424,0.0036,0.0226,-0.1145,0.04,-0.1391,-0.0361,3573,2019-08-07 16:20:54:379
3.2134,-9.1479,2.3424,0.0036,0.0226,-0.1145,0.0815,-0.1327,-0.0243,3578,2019-08-07 16:20:54:384
3.5339,-9.0333,1.7815,0.0036,0.0226,-0.1145,0.0815,-0.1327,-0.0243,3583,2019-08-07 16:20:54:389
3.5339,-9.0333,1.7815,0.0036,0.0226,-0.1145,0.0815,-0.1327,-0.0243,3588,2019-08-07 16:20:54:394
3.8545,-8.8805,1.8569,-0.635,-0.1723,0.1224,0.0645,-0.0273,-0.0254,3593,2019-08-07 16:20:54:399
3.8545,-8.8805,1.8569,-0.635,-0.1723,0.1224,0.0645,-0.0273,-0.0254,3597,2019-08-07 16:20:54:403
3.8545,-8.8805,1.8569,-0.635,-0.1723,0.1224,0.0634,0.1006,-0.0201,3603,2019-08-07 16:20:54:409
3.821,-8.7516,2.003,-0.635,-0.1723,0.1224,0.0634,0.1006,-0.0201,3607,2019-08-07 16:20:54:413
3.821,-8.7516,2.003,-0.3925,-0.2912,0.1501,0.0559,0.1826,-0.003,3614,2019-08-07 16:20:54:420
3.443,-8.6657,2.003,-0.3925,-0.2912,0.1501,0.0559,0.1826,-0.003,3617,2019-08-07 16:20:54:423
3.443,-8.6657,2.003,-0.3925,-0.2912,0.1501,-0.0027,0.1591,0.0161,3623,2019-08-07 16:20:54:429
3.443,-8.6657,2.003,-0.3925,-0.2912,0.1501,-0.0027,0.1591,0.0161,3628,2019-08-07 16:20:54:434
3.2182,-8.8567,2.3047,0.0018,-0.1818,-0.3295,-0.0399,0.1048,0.0268,3633,2019-08-07 16:20:54:439
3.2182,-8.8567,2.3047,0.0018,-0.1818,-0.3295,-0.0399,0.1048,0.0268,3637,2019-08-07 16:20:54:443
3.2182,-8.8567,2.3047,0.0018,-0.1818,-0.3295,-0.0431,0.0153,0.0332,3643,2019-08-07 16:20:54:449
3.2469,-9.0381,2.3424,-0.0357,-0.0115,-0.3352,-0.0431,0.0153,0.0332,3648,2019-08-07 16:20:54:454
3.2469,-9.0381,2.3424,-0.0357,-0.0115,-0.3352,-0.0367,-0.0891,0.0374,3652,2019-08-07 16:20:54:458