ACCELEROMETER X (m/s²),ACCELEROMETER Y (m/s²),ACCELEROMETER Z (m/s²),LINEAR ACCELERATION X (m/s²),LINEAR ACCELERATION Y (m/s²),LINEAR ACCELERATION Z (m/s²),GYROSCOPE X (rad/s),GYROSCOPE Y (rad/s),GYROSCOPE Z (rad/s),Time since start in ms ,YYYY-MO-DD HH-MI-SS_SSS
3.3568,-8.9244,2.203,-0.0993,-0.1137,0.0329,-0.0016,0.0174,0.0045,3,2019-08-07 16:19:50:781
3.309,-8.8958,2.236,-0.0993,-0.1137,0.0329,0.0165,0.0313,0.0077,8,2019-08-07 16:19:50:786
3.309,-8.8958,2.236,-0.0993,-0.1137,0.0329,0.0165,0.0313,0.0077,13,2019-08-07 16:19:50:791
3.2994,-8.8576,2.2171,-0.0993,-0.1137,0.0329,0.0261,0.0292,0.0109,17,2019-08-07 16:19:50:795
3.2994,-8.8576,2.2171,-0.0821,-0.2131,-0.0829,0.0261,0.0292,0.0109,23,2019-08-07 16:19:50:801
3.2994,-8.8576,2.2171,-0.0821,-0.2131,-0.0829,0.0346,0.0206,0.0066,28,2019-08-07 16:19:50:806
3.2515,-8.7669,2.2643,-0.0821,-0.2131,-0.0829,0.0346,0.0206,0.0066,33,2019-08-07 16:19:50:811
3.2515,-8.7669,2.2643,-0.0821,-0.2131,-0.0829,0.0346,0.0206,0.0066,38,2019-08-07 16:19:50:816
3.2659,-8.7573,2.2596,-0.0399,-0.24,-0.0513,0.0357,-7.0E-4,0.0045,42,2019-08-07 16:19:50:820
3.2659,-8.7573,2.2596,-0.0399,-0.24,-0.0513,0.0357,-7.0E-4,0.0045,48,2019-08-07 16:19:50:826
3.2659,-8.7573,2.2596,-0.0399,-0.24,-0.0513,0.0325,-0.0039,-0.0051,53,2019-08-07 16:19:50:831
3.218,-8.8194,2.2879,-0.0399,-0.24,-0.0513,0.0325,-0.0039,-0.0051,58,2019-08-07 16:19:50:836
3.218,-8.8194,2.2879,-0.0144,-0.1521,-0.0079,0.0229,-0.0167,-0.0072,62,2019-08-07 16:19:50:840
3.2898,-8.8767,2.2643,-0.0144,-0.1521,-0.0079,0.0229,-0.0167,-0.0072,68,2019-08-07 16:19:50:846
3.2898,-8.8767,2.2643,-0.0144,-0.1521,-0.0079,0.009,-0.0188,-0.0115,73,2019-08-07 16:19:50:851
3.2898,-8.8767,2.2643,-0.0144,-0.1521,-0.0079,0.009,-0.0188,-0.0115,78,2019-08-07 16:19:50:856
3.2946,-8.9101,2.2077,-0.049,-0.0694,0.012,0.0048,-0.0124,-0.0157,83,2019-08-07 16:19:50:861
3.2946,-8.9101,2.2077,-0.049,-0.0694,0.012,0.0048,-0.0124,-0.0157,88,2019-08-07 16:19:50:866
3.2515,-8.9244,2.1841,-0.049,-0.0694,0.012,-5.0E-4,0.0057,-0.0168,93,2019-08-07 16:19:50:871
3.2515,-8.9244,2.1841,-0.049,-0.0694,0.012,-5.0E-4,0.0057,-0.0168,98,2019-08-07 16:19:50:876
3.2515,-8.9244,2.1841,-0.0454,-0.1157,-0.0487,0.0016,0.0196,-0.0168,103,2019-08-07 16:19:50:881
3.2419,-8.9435,2.2596,-0.0454,-0.1157,-0.0487,0.0016,0.0196,-0.0168,108,2019-08-07 16:19:50:886
3.2419,-8.9435,2.2596,-0.0454,-0.1157,-0.0487,0.0016,0.0196,-0.0168,113,2019-08-07 16:19:50:891
3.2419,-8.8958,2.2643,-0.0454,-0.1157,-0.0487,0.0037,0.0185,-0.0168,118,2019-08-07 16:19:50:896
3.2419,-8.8958,2.2643,-0.0454,-0.1157,-0.0487,0.0037,0.0185,-0.0168,122,2019-08-07 16:19:50:900
3.2419,-8.8958,2.2643,-0.0144,-0.0905,-0.0653,0.0016,0.0164,-0.0147,127,2019-08-07 16:19:50:905
3.2706,-8.8528,2.2784,-0.0144,-0.0905,-0.0653,0.0016,0.0164,-0.0147,133,2019-08-07 16:19:50:911
3.2706,-8.8528,2.2784,-0.0144,-0.0905,-0.0653,0.0091,0.0078,-0.0157,137,2019-08-07 16:19:50:915
3.2706,-8.8528,2.2784,-0.0144,-0.0905,-0.0653,0.0091,0.0078,-0.0157,143,2019-08-07 16:19:50:921
3.2946,-8.848,2.2124,-0.0543,-0.1414,0.0074,5.0E-4,-0.0113,-0.0104,148,2019-08-07 16:19:50:926
3.2946,-8.848,2.2124,-0.0543,-0.1414,0.0074,5.0E-4,-0.0113,-0.0104,153,2019-08-07 16:19:50:931
3.3089,-8.8671,2.203,-0.0543,-0.1414,0.0074,5.0E-4,-0.0113,-0.0104,158,2019-08-07 16:19:50:936
3.3089,-8.8671,2.203,-0.0543,-0.1414,0.0074,-0.0059,-0.0188,-8.0E-4,163,2019-08-07 16:19:50:941
3.3089,-8.8671,2.203,-0.1663,-0.093,-0.0037,-0.0059,-0.0188,-8.0E-4,167,2019-08-07 16:19:50:945
3.3711,-8.9292,2.203,-0.1663,-0.093,-0.0037,-0.0027,-0.0188,0.0034,173,2019-08-07 16:19:50:951
3.3711,-8.9292,2.203,-0.1663,-0.093,-0.0037,-0.0027,-0.0188,0.0034,178,2019-08-07 16:19:50:956
3.3615,-8.9292,2.1134,-0.1663,-0.093,-0.0037,0.0027,-0.0071,0.0024,183,2019-08-07 16:19:50:961
3.3615,-8.9292,2.1134,-0.1407,-0.0832,0.1128,0.0027,-0.0071,0.0024,188,2019-08-07 16:19:50:966
3.3615,-8.9292,2.1134,-0.1407,-0.0832,0.1128,0.0016,-0.0017,0.0045,193,2019-08-07 16:19:50:971
3.3711,-8.9483,2.0993,-0.1407,-0.0832,0.1128,0.0016,-0.0017,0.0045,197,2019-08-07 16:19:50:975
3.3711,-8.9483,2.0993,-0.1407,-0.0832,0.1128,0.0069,0.0174,0.0056,203,2019-08-07 16:19:50:981
3.3711,-8.9483,2.0993,-0.1075,0.0265,0.0188,0.0069,0.0174,0.0056,208,2019-08-07 16:19:50:986
3.2993,-8.9531,2.2407,-0.1075,0.0265,0.0188,0.0176,0.0398,0.0024,213,2019-08-07 16:19:50:991
3.2993,-8.9531,2.2407,-0.1075,0.0265,0.0188,0.0176,0.0398,0.0024,218,2019-08-07 16:19:50:996
3.1653,-8.8671,2.236,-0.1075,0.0265,0.0188,0.0208,0.0366,-8.0E-4,223,2019-08-07 16:19:51:001
3.1653,-8.8671,2.236,0.1249,-0.1254,-0.0315,0.0208,0.0366,-8.0E-4,228,2019-08-07 16:19:51:006
3.1653,-8.8671,2.236,0.1249,-0.1254,-0.0315,0.0154,0.0164,2.0E-4,232,2019-08-07 16:19:51:010
3.1031,-8.8337,2.302,0.1249,-0.1254,-0.0315,0.0154,0.0164,2.0E-4,238,2019-08-07 16:19:51:016
3.1031,-8.8337,2.302,0.1249,-0.1254,-0.0315,0.008,-0.0039,-0.0072,242,2019-08-07 16:19:51:020
3.1079,-8.8289,2.3303,0.1859,-0.1963,-0.093,0.008,-0.0039,-0.0072,248,2019-08-07 16:19:51:026
3.1079,-8.8289,2.3303,0.1859,-0.1963,-0.093,-5.0E-4,-0.0422,-0.0104,253,2019-08-07 16:19:51:031
3.1079,-8.8289,2.3303,0.1859,-0.1963,-0.093,-5.0E-4,-0.0422,-0.0104,258,2019-08-07 16:19:51:036
3.2227,-8.8433,2.302,-0.0403,-0.1287,-0.0901,-0.0037,-0.0497,-0.0147,265,2019-08-07 16:19:51:043
3.2227,-8.8433,2.302,-0.0403,-0.1287,-0.0901,-0.0037,-0.0497,-0.0147,267,2019-08-07 16:19:51:045
3.3232,-8.8385,2.2831,-0.0403,-0.1287,-0.0901,-0.0037,-0.0497,-0.0147,272,2019-08-07 16:19:51:050
3.3232,-8.8385,2.2831,-0.0403,-0.1287,-0.0901,5.0E-4,-0.039,-0.0157,278,2019-08-07 16:19:51:056
3.3232,-8.8385,2.2831,-0.0403,-0.1287,-0.0901,5.0E-4,-0.039,-0.0157,283,2019-08-07 16:19:51:061
3.3519,-8.8958,2.2596,-0.1019,-0.0891,-0.0357,0.0027,-0.0294,-0.0168,288,2019-08-07 16:19:51:066
3.3519,-8.8958,2.2596,-0.1019,-0.0891,-0.0357,0.0027,-0.0294,-0.0168,293,2019-08-07 16:19:51:071
3.3328,-8.891,2.2784,-0.1019,-0.0891,-0.0357,0.0059,-0.0167,-0.0126,298,2019-08-07 16:19:51:076
3.3328,-8.891,2.2784,-0.1019,-0.0891,-0.0357,0.0059,-0.0167,-0.0126,303,2019-08-07 16:19:51:081
3.3328,-8.891,2.2784,-0.1643,-0.1305,0.0299,0.0059,-0.0167,-0.0126,307,2019-08-07 16:19:51:085
3.438,-8.848,2.2407,-0.1643,-0.1305,0.0299,0.0048,0.0015,-0.0104,313,2019-08-07 16:19:51:091
3.438,-8.848,2.2407,-0.1643,-0.1305,0.0299,0.0048,0.0015,-0.0104,317,2019-08-07 16:19:51:095
3.371,-8.8958,2.2218,-0.1643,-0.1305,0.0299,0.0069,0.0217,-0.0104,323,2019-08-07 16:19:51:101
3.371,-8.8958,2.2218,-0.0804,-0.0909,-0.0528,0.0069,0.0217,-0.0104,328,2019-08-07 16:19:51:106
3.371,-8.8958,2.2218,-0.0804,-0.0909,-0.0528,0.0069,0.0366,-0.0136,333,2019-08-07 16:19:51:111
3.2706,-8.8576,2.302,-0.0804,-0.0909,-0.0528,0.0069,0.0366,-0.0136,337,2019-08-07 16:19:51:115
3.2706,-8.8576,2.302,-0.0804,-0.0909,-0.0528,0.008,0.0153,-0.0072,343,2019-08-07 16:19:51:121
3.2706,-8.8576,2.302,0.0021,-0.0801,-0.007,0.008,0.0153,-0.0072,347,2019-08-07 16:19:51:125
3.2179,-8.9053,2.269,0.0021,-0.0801,-0.007,-0.0016,0.0036,-0.0072,353,2019-08-07 16:19:51:131
3.2179,-8.9053,2.269,0.0021,-0.0801,-0.007,-0.0016,0.0036,-0.0072,358,2019-08-07 16:19:51:136
3.2514,-8.9387,2.2784,0.0021,-0.0801,-0.007,-0.0048,-0.0156,-0.0062,362,2019-08-07 16:19:51:140
3.2514,-8.9387,2.2784,-0.0536,-0.0605,-0.083,-0.0048,-0.0156,-0.0062,368,2019-08-07 16:19:51:146
3.2514,-8.9387,2.2784,-0.0536,-0.0605,-0.083,-0.008,-0.0252,-0.0062,372,2019-08-07 16:19:51:150
3.3088,-8.9387,2.2454,-0.0536,-0.0605,-0.083,-0.008,-0.0252,-0.0062,378,2019-08-07 16:19:51:156
3.3088,-8.9387,2.2454,-0.0536,-0.0605,-0.083,-0.0048,-0.0316,-0.004,382,2019-08-07 16:19:51:160
3.3088,-8.9387,2.2454,-0.0797,-0.0364,-0.0295,-0.0048,-0.0316,-0.004,388,2019-08-07 16:19:51:166
3.3567,-8.9244,2.1653,-0.0797,-0.0364,-0.0295,-0.0048,-0.0177,0.0066,392,2019-08-07 16:19:51:170
3.3567,-8.9244,2.1653,-0.0797,-0.0364,-0.0295,-0.0048,-0.0177,0.0066,398,2019-08-07 16:19:51:176
3.3758,-8.996,2.2548,-0.0797,-0.0364,-0.0295,-0.0048,-0.0177,0.0066,403,2019-08-07 16:19:51:181
3.3758,-8.996,2.2548,-0.0649,-0.0652,-0.0303,0.008,0.0025,2.0E-4,408,2019-08-07 16:19:51:186
3.3758,-8.996,2.2548,-0.0649,-0.0652,-0.0303,0.008,0.0025,2.0E-4,413,2019-08-07 16:19:51:191
3.2897,-8.9005,2.2831,-0.0649,-0.0652,-0.0303,0.0133,0.0121,0.0024,417,2019-08-07 16:19:51:195
3.2897,-8.9005,2.2831,-0.0649,-0.0652,-0.0303,0.0133,0.0121,0.0024,423,2019-08-07 16:19:51:201
3.2753,-8.8528,2.2973,-0.0131,-0.1266,-0.0691,0.0112,0.0078,0.0045,428,2019-08-07 16:19:51:206
3.2753,-8.8528,2.2973,-0.0131,-0.1266,-0.0691,0.0112,0.0078,0.0045,432,2019-08-07 16:19:51:210
3.2753,-8.8528,2.2973,-0.0131,-0.1266,-0.0691,0.0016,-7.0E-4,0.0066,438,2019-08-07 16:19:51:216
3.304,-8.8337,2.4764,-0.0131,-0.1266,-0.0691,0.0016,-7.0E-4,0.0066,443,2019-08-07 16:19:51:221
3.304,-8.8337,2.4764,-0.0615,-0.1501,-0.166,0.0112,-0.0177,0.0045,448,2019-08-07 16:19:51:226
3.371,-8.8432,2.2737,-0.0615,-0.1501,-0.166,0.0112,-0.0177,0.0045,453,2019-08-07 16:19:51:231
3.371,-8.8432,2.2737,-0.0615,-0.1501,-0.166,0.0112,-0.0177,0.0045,457,2019-08-07 16:19:51:235
3.371,-8.8432,2.2737,-0.0615,-0.1501,-0.166,0.008,-0.0198,-0.003,463,2019-08-07 16:19:51:241
3.414,-8.7955,2.2218,-0.0615,-0.1501,-0.166,0.008,-0.0198,-0.003,468,2019-08-07 16:19:51:246
3.414,-8.7955,2.2218,-0.1022,-0.197,-7.0E-4,-5.0E-4,4.0E-4,-0.0051,473,2019-08-07 16:19:51:251
3.3279,-8.8003,2.1888,-0.1022,-0.197,-7.0E-4,-5.0E-4,4.0E-4,-0.0051,478,2019-08-07 16:19:51:256
3.3279,-8.8003,2.1888,-0.1022,-0.197,-7.0E-4,-0.0037,0.026,-0.004,482,2019-08-07 16:19:51:260
3.3279,-8.8003,2.1888,0.0134,-0.1297,0.0472,-0.0037,0.026,-0.004,488,2019-08-07 16:19:51:266
3.2179,-8.9005,2.2454,0.0134,-0.1297,0.0472,-0.008,0.0217,-0.003,493,2019-08-07 16:19:51:271
3.2179,-8.9005,2.2454,0.0134,-0.1297,0.0472,-0.008,0.0217,-0.003,498,2019-08-07 16:19:51:276
3.2179,-8.9005,2.2454,0.0134,-0.1297,0.0472,-0.0027,0.0047,-0.0083,503,2019-08-07 16:19:51:281
3.152,-8.9484,2.2598,0.0134,-0.1297,0.0472,-0.0027,0.0047,-0.0083,507,2019-08-07 16:19:51:285
3.152,-8.9484,2.2598,0.089,-0.0291,0.0097,-0.0027,0.0047,-0.0083,513,2019-08-07 16:19:51:291
3.152,-8.9484,2.2598,0.089,-0.0291,0.0097,-0.0048,-0.0167,-0.0147,517,2019-08-07 16:19:51:295
3.2189,-8.9627,2.2126,0.089,-0.0291,0.0097,-0.0048,-0.0167,-0.0147,523,2019-08-07 16:19:51:301
3.2189,-8.9627,2.2126,0.089,-0.0291,0.0097,0.0016,-0.0273,-0.0168,528,2019-08-07 16:19:51:306
3.2811,-8.9341,2.2409,-0.008,-0.0474,0.0269,0.0016,-0.0273,-0.0168,532,2019-08-07 16:19:51:310
3.2811,-8.9341,2.2409,-0.008,-0.0474,0.0269,0.009,-0.022,-0.0136,538,2019-08-07 16:19:51:316
3.2811,-8.9341,2.2409,-0.008,-0.0474,0.0269,0.009,-0.022,-0.0136,543,2019-08-07 16:19:51:321
3.2859,-8.872,2.2268,-0.008,-0.0474,0.0269,0.0154,-0.006,-0.0136,548,2019-08-07 16:19:51:326
3.2859,-8.872,2.2268,-0.0998,-0.1508,0.0608,0.0154,-0.006,-0.0136,552,2019-08-07 16:19:51:330
3.3481,-8.8911,2.2598,-0.0998,-0.1508,0.0608,0.0165,0.0036,-0.0136,558,2019-08-07 16:19:51:336
3.3481,-8.8911,2.2598,-0.0998,-0.1508,0.0608,0.0165,0.0036,-0.0136,563,2019-08-07 16:19:51:341
3.3481,-8.8911,2.2598,-0.0998,-0.1508,0.0608,0.0176,0.0206,-0.0179,568,2019-08-07 16:19:51:346
3.3051,-8.8577,2.2645,-0.0297,-0.1152,-0.0293,0.0176,0.0206,-0.0179,572,2019-08-07 16:19:51:350
3.3051,-8.8577,2.2645,-0.0297,-0.1152,-0.0293,0.0133,0.011,-0.0147,577,2019-08-07 16:19:51:355
3.2907,-8.8243,2.2739,-0.0137,-0.1475,-0.0368,0.0133,0.011,-0.0147,583,2019-08-07 16:19:51:361
3.2907,-8.8243,2.2739,-0.0137,-0.1475,-0.0368,0.0027,-0.0071,-0.0104,587,2019-08-07 16:19:51:365
3.2907,-8.8243,2.2739,-0.0137,-0.1475,-0.0368,0.0027,-0.0071,-0.0104,593,2019-08-07 16:19:51:371
3.329,-8.8529,2.354,-0.0137,-0.1475,-0.0368,5.0E-4,-0.0284,-0.0072,598,2019-08-07 16:19:51:376
3.329,-8.8529,2.354,-0.073,-0.0699,-0.0785,5.0E-4,-0.0284,-0.0072,603,2019-08-07 16:19:51:381
3.4199,-8.8768,2.2456,-0.073,-0.0699,-0.0785,-0.0037,-0.0412,-0.004,610,2019-08-07 16:19:51:388
3.4199,-8.8768,2.2456,-0.073,-0.0699,-0.0785,-0.0037,-0.0412,-0.004,613,2019-08-07 16:19:51:391
3.4199,-8.8768,2.2456,-0.073,-0.0699,-0.0785,-0.0037,-0.0412,-0.004,618,2019-08-07 16:19:51:396
3.396,-8.9054,2.1985,-0.1128,-0.0647,0.036,-0.0091,-0.022,-0.004,622,2019-08-07 16:19:51:400
3.396,-8.9054,2.1985,-0.1128,-0.0647,0.036,-0.0091,-0.022,-0.004,628,2019-08-07 16:19:51:406
3.396,-8.9054,2.1985,-0.1128,-0.0647,0.036,-0.0091,0.0036,0.0024,632,2019-08-07 16:19:51:410
3.3338,-8.9102,2.1796,-0.1128,-0.0647,0.036,-0.0091,0.0036,0.0024,638,2019-08-07 16:19:51:416
3.3338,-8.9102,2.1796,0.0021,-0.0127,0.0011,-0.0069,0.026,0.0098,642,2019-08-07 16:19:51:420
3.2717,-8.9245,2.2362,0.0021,-0.0127,0.0011,-0.0069,0.026,0.0098,648,2019-08-07 16:19:51:426
3.2717,-8.9245,2.2362,0.0021,-0.0127,0.0011,-0.008,0.0345,0.0034,653,2019-08-07 16:19:51:431
3.2334,-8.9006,2.2692,0.0021,-0.0127,0.0011,-0.008,0.0345,0.0034,658,2019-08-07 16:19:51:436
3.2334,-8.9006,2.2692,0.0856,-0.1279,-0.0543,-0.0112,0.0387,-8.0E-4,663,2019-08-07 16:19:51:441
3.2334,-8.9006,2.2692,0.0856,-0.1279,-0.0543,-0.0112,0.0387,-8.0E-4,668,2019-08-07 16:19:51:446
3.1569,-8.829,2.3022,0.0856,-0.1279,-0.0543,-0.0059,0.0323,-0.0062,673,2019-08-07 16:19:51:451
3.1569,-8.829,2.3022,0.0856,-0.1279,-0.0543,-0.0059,0.0323,-0.0062,678,2019-08-07 16:19:51:456
3.1856,-8.8147,2.2928,0.1087,-0.1611,-0.0855,-0.0037,0.0089,-0.0072,683,2019-08-07 16:19:51:461
3.1856,-8.8147,2.2928,0.1087,-0.1611,-0.0855,-0.0037,0.0089,-0.0072,688,2019-08-07 16:19:51:466
3.1856,-8.8147,2.2928,0.1087,-0.1611,-0.0855,-0.0133,-0.022,-0.0104,693,2019-08-07 16:19:51:471
3.3052,-8.9054,2.1372,0.1087,-0.1611,-0.0855,-0.0133,-0.022,-0.0104,697,2019-08-07 16:19:51:475
3.3052,-8.9054,2.1372,-0.0132,0.0014,0.0436,-0.0218,-0.0188,-0.0168,703,2019-08-07 16:19:51:481
3.3052,-8.9054,2.1372,-0.0132,0.0014,0.0436,-0.0218,-0.0188,-0.0168,707,2019-08-07 16:19:51:485
3.2908,-8.9866,2.1891,-0.0132,0.0014,0.0436,-0.0069,-0.0145,-0.0211,713,2019-08-07 16:19:51:491
3.2908,-8.9866,2.1891,-0.0132,0.0014,0.0436,-0.0069,-0.0145,-0.0211,718,2019-08-07 16:19:51:496
3.3483,-9.0773,2.1561,-0.0613,0.1073,0.0737,0.009,-0.006,-0.0189,723,2019-08-07 16:19:51:501
3.3483,-9.0773,2.1561,-0.0613,0.1073,0.0737,0.009,-0.006,-0.0189,728,2019-08-07 16:19:51:506
3.3483,-9.0773,2.1561,-0.0613,0.1073,0.0737,0.0186,0.0078,-0.0243,733,2019-08-07 16:19:51:511
3.3483,-8.9532,2.2692,-0.0613,0.1073,0.0737,0.0186,0.0078,-0.0243,738,2019-08-07 16:19:51:516
3.3483,-8.9532,2.2692,-0.028,-0.0716,-0.0644,0.0186,0.0078,-0.0243,743,2019-08-07 16:19:51:521
3.3626,-8.8481,2.3494,-0.028,-0.0716,-0.0644,0.0176,0.0121,-0.0243,748,2019-08-07 16:19:51:526
3.3626,-8.8481,2.3494,-0.028,-0.0716,-0.0644,0.0176,0.0121,-0.0243,752,2019-08-07 16:19:51:530
3.3626,-8.8481,2.3494,-0.028,-0.0716,-0.0644,0.0154,0.0164,-0.0232,758,2019-08-07 16:19:51:536
3.3626,-8.8243,2.3682,-0.0285,-0.1261,-0.2011,0.008,0.0057,-0.0189,764,2019-08-07 16:19:51:542
3.3626,-8.8243,2.3682,-0.0285,-0.1261,-0.2011,0.008,0.0057,-0.0189,768,2019-08-07 16:19:51:546
3.3196,-8.7909,2.3635,-0.0285,-0.1261,-0.2011,0.008,0.0057,-0.0189,773,2019-08-07 16:19:51:551
3.3196,-8.7909,2.3635,-0.0285,-0.1261,-0.2011,0.0059,-0.0049,-0.0125,779,2019-08-07 16:19:51:557
3.3196,-8.7909,2.3635,-0.0445,-0.1338,-0.1467,0.0059,-0.0049,-0.0125,783,2019-08-07 16:19:51:561
3.3435,-8.8577,2.3399,-0.0445,-0.1338,-0.1467,5.0E-4,-0.0124,-0.0083,787,2019-08-07 16:19:51:565
3.3435,-8.8577,2.3399,-0.0445,-0.1338,-0.1467,5.0E-4,-0.0124,-0.0083,793,2019-08-07 16:19:51:571
3.377,-8.8434,2.2457,-0.0445,-0.1338,-0.1467,-0.0059,0.0015,-0.0072,798,2019-08-07 16:19:51:576
3.377,-8.8434,2.2457,-0.1661,-0.0708,0.0273,-0.0059,0.0015,-0.0072,802,2019-08-07 16:19:51:580
3.4296,-8.8768,2.2645,-0.1661,-0.0708,0.0273,-0.0069,0.0281,-0.0072,808,2019-08-07 16:19:51:586
3.4296,-8.8768,2.2645,-0.1661,-0.0708,0.0273,-0.0069,0.0281,-0.0072,812,2019-08-07 16:19:51:590
3.4296,-8.8768,2.2645,-0.1661,-0.0708,0.0273,-0.0059,0.0579,-0.0125,818,2019-08-07 16:19:51:596
3.3244,-8.9054,2.1702,-0.0554,-0.0369,0.0097,-0.0059,0.0579,-0.0125,823,2019-08-07 16:19:51:601
3.3244,-8.9054,2.1702,-0.0554,-0.0369,0.0097,-0.0059,0.0579,-0.0125,827,2019-08-07 16:19:51:605
3.3244,-8.9054,2.1702,-0.0554,-0.0369,0.0097,-0.0027,0.0568,-0.0168,833,2019-08-07 16:19:51:611
3.2479,-8.8481,2.2268,-0.0554,-0.0369,0.0097,-0.0027,0.0568,-0.0168,838,2019-08-07 16:19:51:616
3.2479,-8.8481,2.2268,-0.0554,-0.0369,0.0097,5.0E-4,0.0409,-0.0179,842,2019-08-07 16:19:51:620
3.2861,-8.8052,2.4059,0.0314,-0.1025,-0.1703,5.0E-4,0.0409,-0.0179,848,2019-08-07 16:19:51:626
3.2861,-8.8052,2.4059,0.0314,-0.1025,-0.1703,5.0E-4,-7.0E-4,-0.0189,853,2019-08-07 16:19:51:631
3.2861,-8.8052,2.4059,0.0314,-0.1025,-0.1703,5.0E-4,-7.0E-4,-0.0189,858,2019-08-07 16:19:51:636
3.3627,-8.8195,2.241,0.0314,-0.1025,-0.1703,-0.0027,-0.0209,-0.0211,862,2019-08-07 16:19:51:640
3.3627,-8.8195,2.241,-0.0553,-0.1105,0.0604,-0.0027,-0.0209,-0.0211,868,2019-08-07 16:19:51:646
3.3818,-8.9007,2.1184,-0.0553,-0.1105,0.0604,-0.0144,-0.022,-0.0232,872,2019-08-07 16:19:51:650
3.3818,-8.9007,2.1184,-0.0954,-0.0384,0.1572,-0.0144,-0.022,-0.0232,878,2019-08-07 16:19:51:656
3.3818,-8.9007,2.1184,-0.0954,-0.0384,0.1572,-0.0155,-0.0028,-0.0157,883,2019-08-07 16:19:51:661
3.3962,-9.0057,2.1278,-0.0954,-0.0384,0.1572,-0.0155,-0.0028,-0.0157,888,2019-08-07 16:19:51:666
3.3962,-9.0057,2.1278,-0.0954,-0.0384,0.1572,-0.0069,0.0281,-0.0125,893,2019-08-07 16:19:51:671
3.3532,-9.0152,2.1608,-0.0543,0.005,0.1263,-0.0069,0.0281,-0.0125,898,2019-08-07 16:19:51:676
3.3532,-9.0152,2.1608,-0.0543,0.005,0.1263,0.008,0.0526,-0.0072,903,2019-08-07 16:19:51:681
3.2049,-8.8529,2.2457,-0.0543,0.005,0.1263,0.0197,0.0537,-0.0072,910,2019-08-07 16:19:51:688
3.2049,-8.8529,2.2457,-0.0543,0.005,0.1263,0.0197,0.0537,-0.0072,913,2019-08-07 16:19:51:691
3.2049,-8.8529,2.2457,0.1308,-0.0993,-0.0523,0.0197,0.0537,-0.0072,918,2019-08-07 16:19:51:696
3.2049,-8.8529,2.2457,0.1308,-0.0993,-0.0523,0.009,0.0281,-0.0125,923,2019-08-07 16:19:51:701
3.1379,-8.7622,2.2315,0.1308,-0.0993,-0.0523,0.009,0.0281,-0.0125,928,2019-08-07 16:19:51:706
3.1379,-8.7622,2.2315,0.1308,-0.0993,-0.0523,-0.0091,-7.0E-4,-0.0136,932,2019-08-07 16:19:51:710
3.1379,-8.7622,2.2315,0.1122,-0.2797,-0.0491,-0.0091,-7.0E-4,-0.0136,938,2019-08-07 16:19:51:716
3.291,-8.767,2.2645,0.1122,-0.2797,-0.0491,-0.0218,-0.0188,-0.0115,942,2019-08-07 16:19:51:720
3.291,-8.767,2.2645,0.1122,-0.2797,-0.0491,-0.0218,-0.0188,-0.0115,948,2019-08-07 16:19:51:726
3.358,-8.8529,2.2363,0.1122,-0.2797,-0.0491,-0.0229,-0.0188,-0.0104,953,2019-08-07 16:19:51:731
3.358,-8.8529,2.2363,-0.0805,-0.0886,0.0123,-0.0229,-0.0188,-0.0104,957,2019-08-07 16:19:51:735
3.358,-8.8529,2.2363,-0.0805,-0.0886,0.0123,-0.0261,-0.0017,-0.0125,963,2019-08-07 16:19:51:741
3.4393,-8.9389,2.1137,-0.0805,-0.0886,0.0123,-0.0261,-0.0017,-0.0125,967,2019-08-07 16:19:51:745
3.4393,-8.9389,2.1137,-0.0805,-0.0886,0.0123,-0.0261,-0.0017,-0.0125,973,2019-08-07 16:19:51:751
3.3245,-8.9436,2.0807,-0.0198,-0.0504,0.144,-0.0197,0.027,-0.0168,978,2019-08-07 16:19:51:756
3.3245,-8.9436,2.0807,-0.0198,-0.0504,0.144,-0.0197,0.027,-0.0168,982,2019-08-07 16:19:51:760
3.3245,-8.9436,2.0807,-0.0198,-0.0504,0.144,-0.0155,0.0377,-0.02,988,2019-08-07 16:19:51:766
3.2241,-8.9293,2.175,-0.0198,-0.0504,0.144,-0.0155,0.0377,-0.02,993,2019-08-07 16:19:51:771
3.2241,-8.9293,2.175,0.1062,-0.0358,0.0203,-0.0069,0.027,-0.0243,998,2019-08-07 16:19:51:776
3.2241,-8.9293,2.175,0.1062,-0.0358,0.0203,-0.0069,0.027,-0.0243,1003,2019-08-07 16:19:51:781
3.2767,-8.8864,2.2221,0.1062,-0.0358,0.0203,-0.0027,0.01,-0.0253,1008,2019-08-07 16:19:51:786
3.2767,-8.8864,2.2221,0.1062,-0.0358,0.0203,-0.0027,0.01,-0.0253,1013,2019-08-07 16:19:51:791
3.3102,-8.8291,2.2975,0.0527,-0.144,-0.0168,-0.0016,-0.0028,-0.0232,1018,2019-08-07 16:19:51:796
3.3102,-8.8291,2.2975,0.0527,-0.144,-0.0168,-0.0016,-0.0028,-0.0232,1023,2019-08-07 16:19:51:801
3.3102,-8.8291,2.2975,0.0527,-0.144,-0.0168,-0.008,-0.0167,-0.0221,1028,2019-08-07 16:19:51:806
3.3245,-8.7956,2.2316,0.0527,-0.144,-0.0168,-0.008,-0.0167,-0.0221,1033,2019-08-07 16:19:51:811
3.3245,-8.7956,2.2316,-0.0574,-0.1332,0.0849,-0.024,-0.0167,-0.0136,1039,2019-08-07 16:19:51:817
3.3915,-8.81,2.2033,-0.0574,-0.1332,0.0849,-0.024,-0.0167,-0.0136,1043,2019-08-07 16:19:51:821
3.3915,-8.81,2.2033,-0.0574,-0.1332,0.0849,-0.024,-0.0167,-0.0136,1047,2019-08-07 16:19:51:825
3.3915,-8.81,2.2033,-0.0574,-0.1332,0.0849,-0.0336,-0.0049,-0.0094,1053,2019-08-07 16:19:51:831
3.4681,-8.915,2.1938,-0.1347,-0.0377,0.0365,-0.0336,-0.0049,-0.0094,1058,2019-08-07 16:19:51:836
3.4681,-8.915,2.1938,-0.1347,-0.0377,0.0365,-0.0325,0.0217,-0.0104,1063,2019-08-07 16:19:51:841
3.4681,-8.915,2.1938,-0.1347,-0.0377,0.0365,-0.0325,0.0217,-0.0104,1067,2019-08-07 16:19:51:845
3.4203,-8.9102,2.1514,-0.1347,-0.0377,0.0365,-0.0293,0.0387,-0.0094,1073,2019-08-07 16:19:51:851
3.4203,-8.9102,2.1514,0.0053,-0.0669,0.0606,-0.0293,0.0387,-0.0094,1078,2019-08-07 16:19:51:856
3.3007,-8.872,2.2127,0.0053,-0.0669,0.0606,-0.0187,0.043,-0.0104,1083,2019-08-07 16:19:51:861
3.3007,-8.872,2.2127,0.0053,-0.0669,0.0606,-0.0187,0.043,-0.0104,1087,2019-08-07 16:19:51:865
3.3007,-8.872,2.2127,0.0053,-0.0669,0.0606,-0.0155,0.0345,-0.0125,1093,2019-08-07 16:19:51:871
3.2672,-8.8959,2.2363,0.0962,-0.0717,-0.081,-0.0155,0.0345,-0.0125,1098,2019-08-07 16:19:51:876
3.2672,-8.8959,2.2363,0.0962,-0.0717,-0.081,-0.0091,0.0196,-0.02,1103,2019-08-07 16:19:51:881
3.2672,-8.8959,2.2363,0.0962,-0.0717,-0.081,-0.0091,0.0196,-0.02,1108,2019-08-07 16:19:51:886
3.2815,-8.8147,2.2363,0.0542,-0.1381,-0.0103,-0.0091,0.0196,-0.02,1113,2019-08-07 16:19:51:891
3.2815,-8.8147,2.2363,0.0542,-0.1381,-0.0103,-0.0208,0.0025,-0.0211,1118,2019-08-07 16:19:51:896
3.339,-8.8768,2.307,0.0542,-0.1381,-0.0103,-0.0208,0.0025,-0.0211,1123,2019-08-07 16:19:51:901
3.339,-8.8768,2.307,0.0542,-0.1381,-0.0103,-0.0346,-0.0124,-0.0232,1128,2019-08-07 16:19:51:906
3.339,-8.8768,2.307,0.0484,-0.0804,-0.0801,-0.0346,-0.0124,-0.0232,1133,2019-08-07 16:19:51:911
3.3151,-8.9341,2.2504,0.0484,-0.0804,-0.0801,-0.0421,-0.0209,-0.0211,1138,2019-08-07 16:19:51:916
3.3151,-8.9341,2.2504,0.0484,-0.0804,-0.0801,-0.0421,-0.0209,-0.0211,1143,2019-08-07 16:19:51:921
3.3629,-9.0009,2.1609,-0.0188,0.048,0.0524,-0.0495,-0.023,-0.0104,1148,2019-08-07 16:19:51:926
3.3629,-9.0009,2.1609,-0.0188,0.048,0.0524,-0.0495,-0.023,-0.0104,1153,2019-08-07 16:19:51:931
3.3629,-9.0009,2.1609,-0.0188,0.048,0.0524,-0.0495,-0.023,-0.0104,1158,2019-08-07 16:19:51:936
3.4155,-9.0391,2.1609,-0.0699,0.0854,0.0469,-0.0506,-0.0156,-0.0072,1164,2019-08-07 16:19:51:942
3.4155,-9.0391,2.1609,-0.0699,0.0854,0.0469,-0.0506,-0.0156,-0.0072,1168,2019-08-07 16:19:51:946
3.4155,-9.0391,2.1609,-0.0699,0.0854,0.0469,-0.04,0.0153,0.0066,1172,2019-08-07 16:19:51:950
3.4443,-9.0725,2.1373,-0.0894,0.1023,-0.0086,-0.04,0.0153,0.0066,1178,2019-08-07 16:19:51:956
3.4443,-9.0725,2.1373,-0.0894,0.1023,-0.0086,-0.0208,0.0323,0.0109,1183,2019-08-07 16:19:51:961
3.4203,-9.0057,2.208,-0.0894,0.1023,-0.0086,-0.0208,0.0323,0.0109,1188,2019-08-07 16:19:51:966
3.4203,-9.0057,2.208,-0.0894,0.1023,-0.0086,5.0E-4,0.0462,0.0183,1192,2019-08-07 16:19:51:970
3.2912,-8.9675,2.2221,0.0494,0.0101,-0.0219,5.0E-4,0.0462,0.0183,1198,2019-08-07 16:19:51:976
3.2912,-8.9675,2.2221,0.0494,0.0101,-0.0219,0.0027,0.0334,0.0205,1203,2019-08-07 16:19:51:981
3.2912,-8.9675,2.2221,0.0494,0.0101,-0.0219,0.0027,0.0334,0.0205,1208,2019-08-07 16:19:51:986
3.2577,-8.9007,2.34,0.0494,0.0101,-0.0219,0.0027,0.0334,0.0205,1212,2019-08-07 16:19:51:990
3.2577,-8.9007,2.34,0.0494,0.0101,-0.0219,5.0E-4,0.0153,0.0173,1218,2019-08-07 16:19:51:996
3.2577,-8.9007,2.34,0.0827,-0.0722,-0.0943,5.0E-4,0.0153,0.0173,1222,2019-08-07 16:19:52:000
3.2577,-8.8673,2.2504,0.0827,-0.0722,-0.0943,-0.008,-0.0135,0.013,1228,2019-08-07 16:19:52:006
3.2577,-8.8673,2.2504,0.0827,-0.0722,-0.0943,-0.008,-0.0135,0.013,1233,2019-08-07 16:19:52:011
3.2577,-8.8673,2.2504,-0.0289,-0.1403,-0.0549,-0.0261,-0.0326,0.0077,1238,2019-08-07 16:19:52:016
3.363,-8.8195,2.2552,-0.0289,-0.1403,-0.0549,-0.0261,-0.0326,0.0077,1243,2019-08-07 16:19:52:021
3.363,-8.8195,2.2552,-0.0289,-0.1403,-0.0549,-0.0272,-0.0252,0.0098,1248,2019-08-07 16:19:52:026
3.4443,-8.8864,2.1326,-0.0289,-0.1403,-0.0549,-0.0272,-0.0252,0.0098,1253,2019-08-07 16:19:52:031
3.4443,-8.8864,2.1326,-0.0289,-0.1403,-0.0549,-0.024,-0.0071,0.0088,1258,2019-08-07 16:19:52:036
3.4443,-8.8864,2.1326,-0.0387,-0.0942,0.1649,-0.024,-0.0071,0.0088,1263,2019-08-07 16:19:52:041
3.3726,-8.9293,2.0855,-0.0387,-0.0942,0.1649,-0.0197,0.0057,0.0077,1268,2019-08-07 16:19:52:046
3.3726,-8.9293,2.0855,-0.0387,-0.0942,0.1649,-0.0197,0.0057,0.0077,1273,2019-08-07 16:19:52:051
3.3678,-8.9007,2.0855,-0.0387,-0.0942,0.1649,-0.0197,0.0057,0.0077,1278,2019-08-07 16:19:52:056
3.3678,-8.9007,2.0855,-0.0111,-0.0286,0.0861,0.0016,0.0174,0.0034,1284,2019-08-07 16:19:52:062
3.3678,-8.9007,2.0855,-0.0111,-0.0286,0.0861,0.0016,0.0174,0.0034,1287,2019-08-07 16:19:52:065
3.3486,-8.8577,2.0855,-0.0111,-0.0286,0.0861,0.0016,0.0174,0.0034,1293,2019-08-07 16:19:52:071
3.3486,-8.8577,2.0855,-0.0111,-0.0286,0.0861,0.0218,0.0121,-0.0072,1298,2019-08-07 16:19:52:076
3.3104,-8.8386,2.142,0.0322,-0.1137,0.0986,0.0218,0.0121,-0.0072,1304,2019-08-07 16:19:52:082
3.3104,-8.8386,2.142,0.0322,-0.1137,0.0986,0.025,0.0121,-0.0094,1308,2019-08-07 16:19:52:086
3.3104,-8.8386,2.142,0.0322,-0.1137,0.0986,0.025,0.0121,-0.0094,1313,2019-08-07 16:19:52:091
3.3247,-8.872,2.1797,0.0322,-0.1137,0.0986,0.0208,4.0E-4,-0.0147,1318,2019-08-07 16:19:52:096
3.3247,-8.872,2.1797,0.0104,-0.0736,0.0042,0.0208,4.0E-4,-0.0147,1323,2019-08-07 16:19:52:101
3.3391,-8.9198,2.1986,0.0104,-0.0736,0.0042,0.0101,-0.0135,-0.0243,1328,2019-08-07 16:19:52:106
3.3391,-8.9198,2.1986,0.0104,-0.0736,0.0042,0.0101,-0.0135,-0.0243,1333,2019-08-07 16:19:52:111
3.3391,-8.9198,2.1986,0.0104,-0.0736,0.0042,0.0027,-0.0241,-0.0296,1338,2019-08-07 16:19:52:116
3.4252,-8.9341,2.2127,-0.0844,-0.0237,-0.0144,0.0027,-0.0241,-0.0296,1343,2019-08-07 16:19:52:121
3.4252,-8.9341,2.2127,-0.0844,-0.0237,-0.0144,0.0016,-0.023,-0.0307,1348,2019-08-07 16:19:52:126
3.4252,-8.9341,2.2127,-0.0844,-0.0237,-0.0144,0.0016,-0.023,-0.0307,1353,2019-08-07 16:19:52:131
3.5066,-9.1251,2.1138,-0.0844,-0.0237,-0.0144,0.0016,-0.023,-0.0307,1358,2019-08-07 16:19:52:136
3.5066,-9.1251,2.1138,-0.1734,0.155,0.083,0.0048,0.0057,-0.0275,1363,2019-08-07 16:19:52:141
3.5066,-9.1489,2.1232,-0.1734,0.155,0.083,0.0048,0.0057,-0.0275,1369,2019-08-07 16:19:52:147
3.5066,-9.1489,2.1232,-0.1734,0.155,0.083,0.0314,0.0537,-0.0243,1372,2019-08-07 16:19:52:150
3.5066,-9.1489,2.1232,-0.1734,0.155,0.083,0.0314,0.0537,-0.0243,1378,2019-08-07 16:19:52:156
3.3918,-9.1203,2.1043,-0.0656,0.1388,0.0906,0.0517,0.0728,-0.0253,1383,2019-08-07 16:19:52:161
3.3918,-9.1203,2.1043,-0.0656,0.1388,0.0906,0.0517,0.0728,-0.0253,1388,2019-08-07 16:19:52:166
3.3296,-9.0678,2.2552,-0.0656,0.1388,0.0906,0.0762,0.0845,-0.0285,1393,2019-08-07 16:19:52:171
3.3296,-9.0678,2.2552,-0.0656,0.1388,0.0906,0.0762,0.0845,-0.0285,1398,2019-08-07 16:19:52:176
3.3296,-9.0678,2.2552,0.0548,0.0817,0.0387,0.0943,0.1005,-0.0296,1403,2019-08-07 16:19:52:181
3.2722,-9.0153,2.1703,0.0548,0.0817,0.0387,0.0943,0.1005,-0.0296,1409,2019-08-07 16:19:52:187
3.2722,-9.0153,2.1703,0.0548,0.0817,0.0387,0.0943,0.1005,-0.0296,1413,2019-08-07 16:19:52:191
3.1239,-9.0678,2.2505,0.0548,0.0817,0.0387,0.0889,0.0952,-0.0221,1418,2019-08-07 16:19:52:196
3.1239,-9.0678,2.2505,0.2781,0.2779,-0.0701,0.0889,0.0952,-0.0221,1423,2019-08-07 16:19:52:201
3.1239,-9.0678,2.2505,0.2781,0.2779,-0.0701,0.0634,0.0867,-0.0104,1428,2019-08-07 16:19:52:206
2.9564,-9.6788,1.9394,0.2781,0.2779,-0.0701,0.0634,0.0867,-0.0104,1432,2019-08-07 16:19:52:210
2.9564,-9.6788,1.9394,0.2781,0.2779,-0.0701,0.0634,0.0867,-0.0104,1438,2019-08-07 16:19:52:216
2.9564,-9.6788,1.9394,0.5345,1.5099,0.1675,5.0E-4,0.1016,-0.0125,1443,2019-08-07 16:19:52:221
2.6742,-10.8627,2.1939,0.5345,1.5099,0.1675,5.0E-4,0.1016,-0.0125,1448,2019-08-07 16:19:52:226
2.6742,-10.8627,2.1939,0.5345,1.5099,0.1675,-0.0197,0.1027,0.012,1454,2019-08-07 16:19:52:232
2.6742,-10.8627,2.1939,0.5345,1.5099,0.1675,-0.0197,0.1027,0.012,1458,2019-08-07 16:19:52:236
2.3202,-12.4715,2.4909,1.1519,3.8998,-0.3538,-0.0027,0.1165,0.0652,1462,2019-08-07 16:19:52:240
2.3202,-12.4715,2.4909,1.1519,3.8998,-0.3538,-0.0027,0.1165,0.0652,1468,2019-08-07 16:19:52:246
1.6217,-14.7725,3.0141,1.1519,3.8998,-0.3538,-0.0027,0.1165,0.0652,1473,2019-08-07 16:19:52:251
1.6217,-14.7725,3.0141,1.6801,5.8166,-0.7499,0.0687,0.1293,0.2144,1478,2019-08-07 16:19:52:256
1.6217,-14.7725,3.0141,1.6801,5.8166,-0.7499,0.0687,0.1293,0.2144,1483,2019-08-07 16:19:52:261
0.9184,-18.3481,4.1596,1.6801,5.8166,-0.7499,0.3382,0.2316,0.518,1487,2019-08-07 16:19:52:265
0.9184,-18.3481,4.1596,2.3612,10.4962,-1.9853,0.3382,0.2316,0.518,1493,2019-08-07 16:19:52:271
0.9184,-18.3481,4.1596,2.3612,10.4962,-1.9853,0.596,0.4318,0.7885,1498,2019-08-07 16:19:52:276
1.0284,-21.1217,4.8006,2.3612,10.4962,-1.9853,0.596,0.4318,0.7885,1503,2019-08-07 16:19:52:281
1.0284,-21.1217,4.8006,2.3612,10.4962,-1.9853,0.596,0.4318,0.7885,1508,2019-08-07 16:19:52:286
1.0284,-21.1217,4.8006,1.4758,12.977,-1.575,0.8591,0.7791,1.0783,1514,2019-08-07 16:19:52:292
1.7358,-22.1957,3.7493,1.4758,12.977,-1.575,0.8591,0.7791,1.0783,1518,2019-08-07 16:19:52:296
1.7358,-22.1957,3.7493,1.4758,12.977,-1.575,0.987,1.544,1.498,1522,2019-08-07 16:19:52:300
1.9798,-23.9,1.6375,0.7166,14.0127,-0.0864,0.987,1.544,1.498,1528,2019-08-07 16:19:52:306
1.9798,-23.9,1.6375,0.7166,14.0127,-0.0864,0.987,1.544,1.498,1532,2019-08-07 16:19:52:310
1.9798,-23.9,1.6375,0.7166,14.0127,-0.0864,0.8357,2.9309,1.9284,1538,2019-08-07 16:19:52:316
1.9798,-23.9,1.6375,0.7166,14.0127,-0.0864,0.8357,2.9309,1.9284,1543,2019-08-07 16:19:52:321
-0.9051,-26.9218,-0.6487,4.1838,18.6661,3.9229,0.6258,4.0239,2.2362,1547,2019-08-07 16:19:52:325
-0.9051,-26.9218,-0.6487,4.1838,18.6661,3.9229,0.1869,5.8359,2.8658,1553,2019-08-07 16:19:52:331
-7.9044,-31.9439,-3.1281,4.1838,18.6661,3.9229,0.1869,5.8359,2.8658,1558,2019-08-07 16:19:52:336
-7.9044,-31.9439,-3.1281,4.1838,18.6661,3.9229,0.1869,5.8359,2.8658,1563,2019-08-07 16:19:52:341
-7.9044,-31.9439,-3.1281,12.4387,23.9401,5.774,-0.0794,6.7691,3.4165,1568,2019-08-07 16:19:52:346
-12.7126,-32.5454,-1.6291,12.4387,23.9401,5.774,-0.0794,6.7691,3.4165,1572,2019-08-07 16:19:52:350
-12.7126,-32.5454,-1.6291,13.5831,22.9924,3.7624,-0.0485,7.3401,3.7276,1578,2019-08-07 16:19:52:356
-12.7126,-32.5454,-1.6291,13.5831,22.9924,3.7624,-0.0485,7.3401,3.7276,1583,2019-08-07 16:19:52:361
-10.8467,-31.6527,2.6463,13.5831,22.9924,3.7624,-0.0485,7.3401,3.7276,1588,2019-08-07 16:19:52:366
-10.8467,-31.6527,2.6463,13.5831,22.9924,3.7624,0.726,7.0663,3.1364,1593,2019-08-07 16:19:52:371
-7.3829,-31.5524,2.0052,7.5633,22.3511,0.4482,1.1404,6.3536,2.3971,1598,2019-08-07 16:19:52:376
-7.3829,-31.5524,2.0052,7.5633,22.3511,0.4482,1.1404,6.3536,2.3971,1603,2019-08-07 16:19:52:381
-7.3829,-31.5524,2.0052,7.5633,22.3511,0.4482,1.1404,6.3536,2.3971,1608,2019-08-07 16:19:52:386
-6.5122,-30.2969,-5.1221,7.5633,22.3511,0.4482,1.3428,5.8359,1.4,1613,2019-08-07 16:19:52:391
-6.5122,-30.2969,-5.1221,5.5699,20.8455,9.6763,1.3428,5.8359,1.4,1618,2019-08-07 16:19:52:396
-6.5122,-30.2969,-5.1221,5.5699,20.8455,9.6763,1.2767,7.1217,0.4636,1623,2019-08-07 16:19:52:401
-5.7563,-28.9602,-6.8002,4.3979,19.8533,10.1846,1.2767,7.1217,0.4636,1628,2019-08-07 16:19:52:406
-5.7563,-28.9602,-6.8002,4.3979,19.8533,10.1846,1.1531,7.7417,-0.3683,1633,2019-08-07 16:19:52:411
-5.7563,-28.9602,-6.8002,4.3979,19.8533,10.1846,1.1531,7.7417,-0.3683,1638,2019-08-07 16:19:52:416
-7.8853,-26.5972,-2.8217,4.3979,19.8533,10.1846,1.1531,7.7417,-0.3683,1642,2019-08-07 16:19:52:420
-7.8853,-26.5972,-2.8217,5.8567,15.8804,2.9281,1.8402,8.1422,-1.5412,1648,2019-08-07 16:19:52:426
-6.9476,-21.3555,1.7271,5.8567,15.8804,2.9281,1.8402,8.1422,-1.5412,1654,2019-08-07 16:19:52:432
-6.9476,-21.3555,1.7271,5.8567,15.8804,2.9281,3.877,7.7321,-2.7045,1658,2019-08-07 16:19:52:436
-5.4166,-16.1187,-1.5867,5.8567,15.8804,2.9281,3.877,7.7321,-2.7045,1664,2019-08-07 16:19:52:442
-5.4166,-16.1187,-1.5867,3.1379,5.9221,6.3195,5.9021,7.3433,-3.6025,1667,2019-08-07 16:19:52:445
-5.4166,-16.1187,-1.5867,3.1379,5.9221,6.3195,5.9021,7.3433,-3.6025,1673,2019-08-07 16:19:52:451
-4.0675,-8.0318,-7.2951,3.1379,5.9221,6.3195,7.9367,7.3251,-4.5964,1678,2019-08-07 16:19:52:456
-4.0675,-8.0318,-7.2951,3.1379,5.9221,6.3195,7.9367,7.3251,-4.5964,1683,2019-08-07 16:19:52:461
-4.0675,-8.0318,-7.2951,6.3386,-15.7462,10.1872,10.0737,7.3209,-5.211,1688,2019-08-07 16:19:52:466
-24.8311,83.8786,-17.5147,6.3386,-15.7462,10.1872,10.0737,7.3209,-5.211,1693,2019-08-07 16:19:52:471
-24.8311,83.8786,-17.5147,6.3386,-15.7462,10.1872,0.384,-1.4675,-2.975,1698,2019-08-07 16:19:52:476
-24.8311,83.8786,-17.5147,6.3386,-15.7462,10.1872,0.384,-1.4675,-2.975,1704,2019-08-07 16:19:52:482
-2.1825,90.0081,66.8201,0.8789,-97.948,-61.2081,0.384,-1.4675,-2.975,1708,2019-08-07 16:19:52:486
-2.1825,90.0081,66.8201,0.8789,-97.948,-61.2081,11.7344,-3.5011,-1.2269,1713,2019-08-07 16:19:52:491
15.0169,48.1131,-4.0567,0.8789,-97.948,-61.2081,11.7344,-3.5011,-1.2269,1718,2019-08-07 16:19:52:496
15.0169,48.1131,-4.0567,0.8789,-97.948,-61.2081,6.1364,-2.8066,-0.6006,1724,2019-08-07 16:19:52:502
15.0169,48.1131,-4.0567,-20.3176,-55.8856,13.0823,6.1364,-2.8066,-0.6006,1727,2019-08-07 16:19:52:505
25.8053,42.9335,-5.7584,-20.3176,-55.8856,13.0823,1.7891,-2.5616,1.7398,1733,2019-08-07 16:19:52:511
25.8053,42.9335,-5.7584,-20.3176,-55.8856,13.0823,1.7891,-2.5616,1.7398,1738,2019-08-07 16:19:52:516
25.8053,42.9335,-5.7584,-20.3176,-55.8856,13.0823,-1.7444,-0.0689,1.9497,1743,2019-08-07 16:19:52:521
22.3368,35.1951,-13.0978,-18.5326,-41.6959,20.4894,-1.7444,-0.0689,1.9497,1748,2019-08-07 16:19:52:526
22.3368,35.1951,-13.0978,-18.5326,-41.6959,20.4894,-3.9239,3.7235,1.4991,1753,2019-08-07 16:19:52:531
4.0849,29.099,-7.3706,-18.5326,-41.6959,20.4894,-3.9239,3.7235,1.4991,1758,2019-08-07 16:19:52:536
4.0849,29.099,-7.3706,-18.5326,-41.6959,20.4894,-4.6739,6.1033,1.4522,1763,2019-08-07 16:19:52:541
4.0849,29.099,-7.3706,-0.8249,-28.3156,-16.9443,-4.6739,6.1033,1.4522,1768,2019-08-07 16:19:52:546
-1.661,19.6277,13.0072,-0.8249,-28.3156,-16.9443,-4.6739,6.1033,1.4522,1773,2019-08-07 16:19:52:551
-1.661,19.6277,13.0072,-0.8249,-28.3156,-16.9443,-3.5756,1.1221,1.1805,1778,2019-08-07 16:19:52:556
-6.7084,16.4197,1.185,4.4901,-24.9829,5.0902,-3.5756,1.1221,1.1805,1782,2019-08-07 16:19:52:560
-6.7084,16.4197,1.185,4.4901,-24.9829,5.0902,-3.9846,-1.752,0.9931,1788,2019-08-07 16:19:52:566
-6.7084,16.4197,1.185,4.4901,-24.9829,5.0902,-3.9846,-1.752,0.9931,1793,2019-08-07 16:19:52:571
-6.3687,16.8016,4.5884,4.2921,-24.5392,1.9921,-3.9846,-1.752,0.9931,1798,2019-08-07 16:19:52:576
-6.3687,16.8016,4.5884,4.2921,-24.5392,1.9921,-4.0624,-4.6079,1.3734,1803,2019-08-07 16:19:52:581
-6.3687,16.8016,4.5884,4.2921,-24.5392,1.9921,-4.0624,-4.6079,1.3734,1808,2019-08-07 16:19:52:586
-2.8475,13.775,-0.149,1.1864,-21.7935,5.5509,-3.8909,-4.8636,1.6333,1812,2019-08-07 16:19:52:590
-2.8475,13.775,-0.149,1.1864,-21.7935,5.5509,-3.8909,-4.8636,1.6333,1818,2019-08-07 16:19:52:596
2.219,6.7145,-1.9968,1.1864,-21.7935,5.5509,-3.8898,-5.5731,1.6013,1823,2019-08-07 16:19:52:601
2.219,6.7145,-1.9968,1.1864,-21.7935,5.5509,-3.8898,-5.5731,1.6013,1828,2019-08-07 16:19:52:606
2.219,6.7145,-1.9968,-4.3414,-12.7154,6.3372,-4.1125,-6.5595,1.2711,1833,2019-08-07 16:19:52:611
3.0754,1.0766,0.3082,-4.3414,-12.7154,6.3372,-4.1125,-6.5595,1.2711,1838,2019-08-07 16:19:52:616
3.0754,1.0766,0.3082,-4.3414,-12.7154,6.3372,-4.1647,-7.0154,0.9526,1843,2019-08-07 16:19:52:621
1.3483,-3.4489,5.5453,-2.2369,-5.2617,-1.1213,-4.1647,-7.0154,0.9526,1848,2019-08-07 16:19:52:626
1.3483,-3.4489,5.5453,-2.2369,-5.2617,-1.1213,-3.5266,-7.2935,0.3901,1853,2019-08-07 16:19:52:631
1.3483,-3.4489,5.5453,-2.2369,-5.2617,-1.1213,-3.5266,-7.2935,0.3901,1858,2019-08-07 16:19:52:636
-0.8764,-7.9459,3.5891,-2.2369,-5.2617,-1.1213,-3.3114,-7.5459,0.1259,1862,2019-08-07 16:19:52:640
-0.8764,-7.9459,3.5891,1.7626,1.474,0.7885,-3.3114,-7.5459,0.1259,1867,2019-08-07 16:19:52:645
-0.8764,-7.9459,3.5891,1.7626,1.474,0.7885,-3.3114,-7.5459,0.1259,1873,2019-08-07 16:19:52:651
-2.6035,-13.7031,3.5796,1.7626,1.474,0.7885,-3.1122,-7.6929,0.0727,1878,2019-08-07 16:19:52:656
-2.6035,-13.7031,3.5796,1.7626,1.474,0.7885,-3.1122,-7.6929,0.0727,1882,2019-08-07 16:19:52:660
-1.2783,-38.8516,-4.3019,1.5051,29.6226,7.6201,-3.0781,-7.7068,0.0088,1888,2019-08-07 16:19:52:666
-1.2783,-38.8516,-4.3019,1.5051,29.6226,7.6201,-3.0781,-7.7068,0.0088,1893,2019-08-07 16:19:52:671
-1.2783,-38.8516,-4.3019,1.5051,29.6226,7.6201,-3.4403,-7.7153,-0.3907,1897,2019-08-07 16:19:52:675
-1.2974,-34.3785,0.5534,1.5051,29.6226,7.6201,-3.4403,-7.7153,-0.3907,1903,2019-08-07 16:19:52:681
-1.2974,-34.3785,0.5534,1.5051,29.6226,7.6201,-3.4403,-7.7153,-0.3907,1908,2019-08-07 16:19:52:686
-2.8666,-20.8782,6.9877,2.6305,12.9052,-2.531,-2.1162,-7.4746,-1.0789,1913,2019-08-07 16:19:52:691
-2.8666,-20.8782,6.9877,2.6305,12.9052,-2.531,-2.1162,-7.4746,-1.0789,1918,2019-08-07 16:19:52:696
-2.8666,-20.8782,6.9877,2.6305,12.9052,-2.531,0.6099,-8.0306,-1.5519,1923,2019-08-07 16:19:52:701
-5.718,-27.5854,9.6604,2.6305,12.9052,-2.531,0.6099,-8.0306,-1.5519,1928,2019-08-07 16:19:52:706
-5.718,-27.5854,9.6604,8.1012,22.3449,-4.4304,1.6165,-9.5497,-1.4539,1932,2019-08-07 16:19:52:710
-7.4451,-29.7766,-10.5052,8.1012,22.3449,-4.4304,1.6165,-9.5497,-1.4539,1938,2019-08-07 16:19:52:716
-7.4451,-29.7766,-10.5052,8.1012,22.3449,-4.4304,0.0261,-8.8189,-0.9649,1943,2019-08-07 16:19:52:721
-7.4451,-29.7766,-10.5052,8.1012,22.3449,-4.4304,0.0261,-8.8189,-0.9649,1948,2019-08-07 16:19:52:726
-1.2304,-21.9188,-8.5113,4.3103,13.0877,11.6401,0.0261,-8.8189,-0.9649,1953,2019-08-07 16:19:52:731
-1.2304,-21.9188,-8.5113,4.3103,13.0877,11.6401,-2.4421,-8.0498,-0.5899,1958,2019-08-07 16:19:52:736
-1.2304,-21.9188,-8.5113,4.3103,13.0877,11.6401,-2.4421,-8.0498,-0.5899,1963,2019-08-07 16:19:52:741
5.214,-28.0675,-1.8035,-4.4769,21.0832,4.9365,-2.7862,-7.2999,-0.7678,1969,2019-08-07 16:19:52:747
5.214,-28.0675,-1.8035,-4.4769,21.0832,4.9365,-2.7862,-7.2999,-0.7678,1973,2019-08-07 16:19:52:751
8.1371,-30.6693,-2.5012,-4.4769,21.0832,4.9365,-2.2983,-5.2077,-1.2099,1978,2019-08-07 16:19:52:756
8.1371,-30.6693,-2.5012,-5.1037,18.8796,1.3977,-2.2983,-5.2077,-1.2099,1983,2019-08-07 16:19:52:761
8.1371,-30.6693,-2.5012,-5.1037,18.8796,1.3977,-0.5523,-1.557,-1.4134,1988,2019-08-07 16:19:52:766
4.9078,-22.8211,2.6133,-5.1037,18.8796,1.3977,-0.5523,-1.557,-1.4134,1992,2019-08-07 16:19:52:770
4.9078,-22.8211,2.6133,-5.1037,18.8796,1.3977,1.2245,0.9911,-1.0789,1998,2019-08-07 16:19:52:776
1.4488,-20.3148,5.979,0.9088,11.1217,-4.5233,1.2245,0.9911,-1.0789,2004,2019-08-07 16:19:52:782
1.4488,-20.3148,5.979,0.9088,11.1217,-4.5233,1.2245,0.9911,-1.0789,2008,2019-08-07 16:19:52:786
1.4488,-20.3148,5.979,0.9088,11.1217,-4.5233,2.3111,2.0777,-0.6176,2014,2019-08-07 16:19:52:792
-0.4984,-18.4865,-0.0076,0.9088,11.1217,-4.5233,2.3111,2.0777,-0.6176,2018,2019-08-07 16:19:52:796
-0.4984,-18.4865,-0.0076,4.9439,7.3862,-1.6478,0.9561,2.2183,-0.4195,2022,2019-08-07 16:19:52:800
-0.4984,-18.4865,-0.0076,4.9439,7.3862,-1.6478,0.9561,2.2183,-0.4195,2028,2019-08-07 16:19:52:806
-2.7183,-14.6913,6.0072,4.9439,7.3862,-1.6478,0.3126,2.2907,-0.4514,2033,2019-08-07 16:19:52:811
-2.7183,-14.6913,6.0072,4.9439,7.3862,-1.6478,0.3126,2.2907,-0.4514,2038,2019-08-07 16:19:52:816
-3.8235,-10.8102,10.2355,6.7331,1.5664,-8.7116,0.3723,1.0422,-0.3694,2043,2019-08-07 16:19:52:821
-3.8235,-10.8102,10.2355,6.7331,1.5664,-8.7116,0.3723,1.0422,-0.3694,2047,2019-08-07 16:19:52:825
-3.8235,-10.8102,10.2355,6.7331,1.5664,-8.7116,0.335,-0.0806,-0.4568,2053,2019-08-07 16:19:52:831
-0.0296,-10.5046,3.4335,6.7331,1.5664,-8.7116,0.335,-0.0806,-0.4568,2058,2019-08-07 16:19:52:836
-0.0296,-10.5046,3.4335,2.4431,1.1679,-0.5606,-0.1838,-0.7975,-0.5462,2063,2019-08-07 16:19:52:841
1.2622,-10.371,1.7554,2.4431,1.1679,-0.5606,-0.1838,-0.7975,-0.5462,2068,2019-08-07 16:19:52:846
1.2622,-10.371,1.7554,2.4431,1.1679,-0.5606,-0.1838,-0.7975,-0.5462,2072,2019-08-07 16:19:52:850
1.2622,-10.371,1.7554,2.4431,1.1679,-0.5606,-0.4341,-1.0287,-0.477,2078,2019-08-07 16:19:52:856
3.4773,-11.0918,1.1332,-0.4087,1.8964,0.3714,-0.4341,-1.0287,-0.477,2083,2019-08-07 16:19:52:861
3.4773,-11.0918,1.1332,-0.4087,1.8964,0.3714,-0.237,-0.9956,-0.4802,2089,2019-08-07 16:19:52:867
3.4773,-11.0918,1.1332,-0.4087,1.8964,0.3714,-0.237,-0.9956,-0.4802,2092,2019-08-07 16:19:52:870
4.1423,-10.433,0.4308,-1.013,1.2485,1.0142,0.1699,-0.6718,-0.4237,2098,2019-08-07 16:19:52:876
4.1423,-10.433,0.4308,-1.013,1.2485,1.0142,0.1699,-0.6718,-0.4237,2103,2019-08-07 16:19:52:881
5.19,-9.3351,-0.9221,-1.013,1.2485,1.0142,0.4671,-0.1019,-0.363,2108,2019-08-07 16:19:52:886
5.19,-9.3351,-0.9221,-1.8709,-0.3202,2.4679,0.4671,-0.1019,-0.363,2113,2019-08-07 16:19:52:891
5.19,-9.3351,-0.9221,-1.8709,-0.3202,2.4679,0.4671,-0.1019,-0.363,2118,2019-08-07 16:19:52:896
4.5729,-7.9936,-0.9692,-1.8709,-0.3202,2.4679,0.4692,0.614,-0.2597,2123,2019-08-07 16:19:52:901
4.5729,-7.9936,-0.9692,-1.8709,-0.3202,2.4679,0.4692,0.614,-0.2597,2127,2019-08-07 16:19:52:905
4.5729,-7.9936,-0.9692,-0.4074,-1.7222,1.8337,0.171,1.0859,-0.1042,2133,2019-08-07 16:19:52:911
3.4677,-7.3635,0.0443,-0.4074,-1.7222,1.8337,0.171,1.0859,-0.1042,2138,2019-08-07 16:19:52:916
3.4677,-7.3635,0.0443,-0.4074,-1.7222,1.8337,-0.0293,1.1562,0.0396,2143,2019-08-07 16:19:52:921
2.42,-8.0223,1.1992,-0.4074,-1.7222,1.8337,-0.0293,1.1562,0.0396,2148,2019-08-07 16:19:52:926
2.42,-8.0223,1.1992,1.0751,-0.6113,0.2177,-0.0911,0.9517,0.1345,2154,2019-08-07 16:19:52:932
2.42,-8.0223,1.1992,1.0751,-0.6113,0.2177,-0.0911,0.9517,0.1345,2157,2019-08-07 16:19:52:935
1.9798,-8.8863,1.5715,1.0751,-0.6113,0.2177,-0.0911,0.9517,0.1345,2163,2019-08-07 16:19:52:941
1.9798,-8.8863,1.5715,1.0751,-0.6113,0.2177,-0.0847,0.37,0.1377,2168,2019-08-07 16:19:52:946
2.1329,-9.3303,1.7837,1.0413,0.1949,-0.139,-0.0847,0.37,0.1377,2172,2019-08-07 16:19:52:950
2.1329,-9.3303,1.7837,1.0413,0.1949,-0.139,-0.0485,-0.1029,0.078,2178,2019-08-07 16:19:52:956
2.1329,-9.3303,1.7837,1.0413,0.1949,-0.139,-0.0485,-0.1029,0.078,2183,2019-08-07 16:19:52:961
3.1711,-8.8338,1.1096,1.0413,0.1949,-0.139,-0.0229,-0.4044,-0.0157,2188,2019-08-07 16:19:52:966
3.1711,-8.8338,1.1096,-0.5633,-0.5869,0.6836,-0.0229,-0.4044,-0.0157,2193,2019-08-07 16:19:52:971
4.0944,-8.4805,0.8173,-0.5633,-0.5869,0.6836,-0.0101,-0.3661,-0.0477,2197,2019-08-07 16:19:52:975
4.0944,-8.4805,0.8173,-0.5633,-0.5869,0.6836,-0.0101,-0.3661,-0.0477,2204,2019-08-07 16:19:52:982
4.0944,-8.4805,0.8173,-0.5633,-0.5869,0.6836,-0.0101,-0.3661,-0.0477,2207,2019-08-07 16:19:52:985
4.5633,-8.6238,0.8833,-1.4055,-0.4899,0.5686,0.0208,-0.0699,-0.0679,2214,2019-08-07 16:19:52:992
4.5633,-8.6238,0.8833,-1.4055,-0.4899,0.5686,0.0208,-0.0699,-0.0679,2217,2019-08-07 16:19:52:995
4.2332,-8.5951,1.2604,-1.4055,-0.4899,0.5686,0.0293,0.4638,-0.1265,2223,2019-08-07 16:19:53:001
4.2332,-8.5951,1.2604,-1.4055,-0.4899,0.5686,0.0293,0.4638,-0.1265,2228,2019-08-07 16:19:53:006
4.2332,-8.5951,1.2604,-0.2938,-0.7745,0.0775,-0.0591,0.8196,-0.1819,2233,2019-08-07 16:19:53:011
3.3672,-8.3135,1.647,-0.2938,-0.7745,0.0775,-0.0591,0.8196,-0.1819,2238,2019-08-07 16:19:53:016
3.3672,-8.3135,1.647,-0.2938,-0.7745,0.0775,-0.0591,0.8196,-0.1819,2243,2019-08-07 16:19:53:021
2.7214,-8.4137,2.1655,-0.2938,-0.7745,0.0775,-0.1507,0.9037,-0.216,2248,2019-08-07 16:19:53:026
2.7214,-8.4137,2.1655,0.8735,-0.6693,-0.6654,-0.1507,0.9037,-0.216,2253,2019-08-07 16:19:53:031
2.7214,-8.4137,2.1655,0.8735,-0.6693,-0.6654,-0.2317,0.7557,-0.2426,2258,2019-08-07 16:19:53:036
2.1042,-8.7526,2.4342,0.8735,-0.6693,-0.6654,-0.2317,0.7557,-0.2426,2263,2019-08-07 16:19:53:041
2.1042,-8.7526,2.4342,0.8735,-0.6693,-0.6654,-0.2946,0.3679,-0.2128,2268,2019-08-07 16:19:53:046
2.1042,-8.7526,2.4342,0.8735,-0.6693,-0.6654,-0.2946,0.3679,-0.2128,2273,2019-08-07 16:19:53:051
2.1951,-9.2444,2.6699,1.0531,0.1367,-1.0156,-0.3031,-0.006,-0.1851,2278,2019-08-07 16:19:53:056
2.1951,-9.2444,2.6699,1.0531,0.1367,-1.0156,-0.3031,-0.006,-0.1851,2283,2019-08-07 16:19:53:061
3.128,-9.483,1.7035,1.0531,0.1367,-1.0156,-0.286,-0.3639,-0.1681,2288,2019-08-07 16:19:53:066
3.128,-9.483,1.7035,1.0531,0.1367,-1.0156,-0.286,-0.3639,-0.1681,2293,2019-08-07 16:19:53:071
3.128,-9.483,1.7035,-0.2466,0.3622,0.1597,-0.286,-0.3639,-0.1681,2298,2019-08-07 16:19:53:076
4.0418,-9.4926,1.0012,-0.2466,0.3622,0.1597,-0.2274,-0.4033,-0.151,2303,2019-08-07 16:19:53:081
4.0418,-9.4926,1.0012,-0.2466,0.3622,0.1597,-0.2274,-0.4033,-0.151,2308,2019-08-07 16:19:53:086
4.0418,-9.4926,1.0012,-0.2466,0.3622,0.1597,-0.1635,-0.2744,-0.1361,2313,2019-08-07 16:19:53:091
4.415,-9.5308,0.8456,-1.0901,0.4287,0.6817,-0.1635,-0.2744,-0.1361,2317,2019-08-07 16:19:53:095
4.415,-9.5308,0.8456,-1.0901,0.4287,0.6817,-0.0517,0.059,-0.0924,2323,2019-08-07 16:19:53:101
4.415,-9.5308,0.8456,-1.0901,0.4287,0.6817,-0.0517,0.059,-0.0924,2328,2019-08-07 16:19:53:106
4.1184,-9.483,0.9917,-1.0901,0.4287,0.6817,0.0048,0.3551,-0.0722,2332,2019-08-07 16:19:53:110
4.1184,-9.483,0.9917,-0.5145,0.339,0.3706,0.0048,0.3551,-0.0722,2339,2019-08-07 16:19:53:117
4.1184,-9.483,0.9917,-0.5145,0.339,0.3706,0.0367,0.532,-0.069,2342,2019-08-07 16:19:53:120
3.5156,-9.3971,1.3406,-0.5145,0.339,0.3706,0.0367,0.532,-0.069,2348,2019-08-07 16:19:53:126
3.5156,-9.3971,1.3406,0.4899,0.2252,0.018,0.0421,0.614,-0.0775,2354,2019-08-07 16:19:53:132
3.5156,-9.3971,1.3406,0.4899,0.2252,0.018,0.0421,0.614,-0.0775,2357,2019-08-07 16:19:53:135
2.7262,-9.3207,1.5857,0.4899,0.2252,0.018,0.024,0.5383,-0.0669,2363,2019-08-07 16:19:53:141
2.7262,-9.3207,1.5857,0.4899,0.2252,0.018,0.024,0.5383,-0.0669,2369,2019-08-07 16:19:53:147
2.3195,-9.3971,2.2833,0.4899,0.2252,0.018,0.0272,0.2731,-0.0339,2373,2019-08-07 16:19:53:151
2.3195,-9.3971,2.2833,1.0623,0.2945,-0.7598,0.0272,0.2731,-0.0339,2377,2019-08-07 16:19:53:155
2.3195,-9.3971,2.2833,1.0623,0.2945,-0.7598,0.0687,0.0036,2.0E-4,2383,2019-08-07 16:19:53:161
2.3721,-9.3112,2.3493,1.0623,0.2945,-0.7598,0.0687,0.0036,2.0E-4,2388,2019-08-07 16:19:53:166
2.3721,-9.3112,2.3493,1.0623,0.2945,-0.7598,0.0687,0.0036,2.0E-4,2392,2019-08-07 16:19:53:170
3.0945,-9.0391,2.0853,0.3347,0.004,-0.4481,0.0698,-0.2862,0.0215,2398,2019-08-07 16:19:53:176
3.0945,-9.0391,2.0853,0.3347,0.004,-0.4481,0.0698,-0.2862,0.0215,2403,2019-08-07 16:19:53:181
3.0945,-9.0391,2.0853,0.3347,0.004,-0.4481,0.0485,-0.4641,0.0279,2408,2019-08-07 16:19:53:186
3.7787,-8.8911,1.9675,0.3347,0.004,-0.4481,0.0463,-0.446,0.0375,2414,2019-08-07 16:19:53:192
3.7787,-8.8911,1.9675,-0.7118,-0.2719,-0.2197,0.0463,-0.446,0.0375,2418,2019-08-07 16:19:53:196
3.7787,-8.8911,1.9675,-0.7118,-0.2719,-0.2197,0.0463,-0.446,0.0375,2423,2019-08-07 16:19:53:201
4.3145,-8.9006,1.482,-0.7118,-0.2719,-0.2197,0.0463,-0.2958,0.0471,2428,2019-08-07 16:19:53:206
4.3145,-8.9006,1.482,-0.7118,-0.2719,-0.2197,0.0463,-0.2958,0.0471,2433,2019-08-07 16:19:53:211
4.3863,-9.0343,1.5103,-1.0254,-0.085,0.1471,0.0176,0.0302,0.0641,2438,2019-08-07 16:19:53:216
4.3863,-9.0343,1.5103,-1.0254,-0.085,0.1471,0.0176,0.0302,0.0641,2443,2019-08-07 16:19:53:221
4.3863,-9.0343,1.5103,-0.8874,0.0333,0.044,0.0165,0.3114,0.0887,2447,2019-08-07 16:19:53:225
4.0801,-9.1775,1.4537,-0.8874,0.0333,0.044,0.0165,0.3114,0.0887,2454,2019-08-07 16:19:53:232
4.0801,-9.1775,1.4537,-0.8874,0.0333,0.044,0.0165,0.3114,0.0887,2458,2019-08-07 16:19:53:236
4.0801,-9.1775,1.4537,-0.4838,0.0264,0.0963,0.008,0.5554,0.0769,2463,2019-08-07 16:19:53:241
3.262,-9.0391,1.6611,-0.4838,0.0264,0.0963,0.008,0.5554,0.0769,2468,2019-08-07 16:19:53:246
3.262,-9.0391,1.6611,-0.4838,0.0264,0.0963,-0.0378,0.5842,0.0546,2473,2019-08-07 16:19:53:251
2.6209,-8.9006,1.8779,0.7941,-0.2414,-0.3848,-0.0378,0.5842,0.0546,2477,2019-08-07 16:19:53:255
2.6209,-8.9006,1.8779,0.7941,-0.2414,-0.3848,-0.0591,0.4073,0.0556,2483,2019-08-07 16:19:53:261
2.6209,-8.9006,1.8779,0.7941,-0.2414,-0.3848,-0.0591,0.4073,0.0556,2488,2019-08-07 16:19:53:266
2.1233,-8.829,2.3116,0.7941,-0.2414,-0.3848,-0.0591,0.4073,0.0556,2492,2019-08-07 16:19:53:270
2.1233,-8.829,2.3116,0.9491,-0.2961,-0.5588,-0.0645,0.026,0.045,2498,2019-08-07 16:19:53:276
2.4487,-8.7336,2.1325,0.9491,-0.2961,-0.5588,-0.0645,0.026,0.045,2503,2019-08-07 16:19:53:281
2.4487,-8.7336,2.1325,0.9491,-0.2961,-0.5588,-0.0645,0.026,0.045,2508,2019-08-07 16:19:53:286
2.4487,-8.7336,2.1325,0.9491,-0.2961,-0.5588,-0.0751,-0.3565,0.0247,2512,2019-08-07 16:19:53:290
3.1128,-8.6189,1.7411,-0.2192,-0.4105,0.0894,-0.0751,-0.3565,0.0247,2518,2019-08-07 16:19:53:296
3.1128,-8.6189,1.7411,-0.2192,-0.4105,0.0894,-0.073,-0.5003,0.0269,2523,2019-08-07 16:19:53:301
3.9787,-8.7096,1.166,-0.2192,-0.4105,0.0894,-0.073,-0.5003,0.0269,2527,2019-08-07 16:19:53:305
3.9787,-8.7096,1.166,-0.2192,-0.4105,0.0894,-0.0677,-0.4236,0.0396,2533,2019-08-07 16:19:53:311
4.6629,-8.891,0.8077,-1.385,-0.2173,0.7831,-0.0677,-0.4236,0.0396,2538,2019-08-07 16:19:53:316
4.6629,-8.891,0.8077,-1.385,-0.2173,0.7831,-0.0581,-0.1796,0.0482,2543,2019-08-07 16:19:53:321
4.6629,-8.891,0.8077,-1.385,-0.2173,0.7831,-0.0581,-0.1796,0.0482,2548,2019-08-07 16:19:53:326
4.5576,-9.0342,1.0151,-1.385,-0.2173,0.7831,-0.0197,0.1399,0.0673,2553,2019-08-07 16:19:53:331
4.5576,-9.0342,1.0151,-1.385,-0.2173,0.7831,-0.0197,0.1399,0.0673,2558,2019-08-07 16:19:53:336
3.9595,-9.1392,1.2508,-0.8165,-0.0051,0.4397,-0.0197,0.1399,0.0673,2562,2019-08-07 16:19:53:340
3.9595,-9.1392,1.2508,-0.8165,-0.0051,0.4397,0.0048,0.3413,0.0993,2568,2019-08-07 16:19:53:346
3.9595,-9.1392,1.2508,-0.8165,-0.0051,0.4397,0.0048,0.3413,0.0993,2573,2019-08-07 16:19:53:351
3.2515,-9.2156,1.7222,-0.8165,-0.0051,0.4397,0.0101,0.3498,0.1025,2577,2019-08-07 16:19:53:355
3.2515,-9.2156,1.7222,0.233,0.0989,-0.1793,0.0101,0.3498,0.1025,2583,2019-08-07 16:19:53:361
2.8926,-9.1917,1.8919,0.233,0.0989,-0.1793,0.008,0.2262,0.0897,2588,2019-08-07 16:19:53:366
2.8926,-9.1917,1.8919,0.233,0.0989,-0.1793,0.008,0.2262,0.0897,2593,2019-08-07 16:19:53:371
2.8926,-9.1917,1.8919,0.3994,-0.0168,-0.2751,0.0154,0.0558,0.062,2597,2019-08-07 16:19:53:375
2.7969,-9.101,1.8495,0.3994,-0.0168,-0.2751,0.0154,0.0558,0.062,2603,2019-08-07 16:19:53:381
2.7969,-9.101,1.8495,0.3994,-0.0168,-0.2751,0.0154,0.0558,0.062,2608,2019-08-07 16:19:53:386
2.883,-9.0819,1.7976,0.3994,-0.0168,-0.2751,0.0304,-0.0475,0.046,2613,2019-08-07 16:19:53:391
2.883,-9.0819,1.7976,0.2216,-0.1341,-0.1003,0.0304,-0.0475,0.046,2618,2019-08-07 16:19:53:396
2.883,-9.0819,1.7976,0.2216,-0.1341,-0.1003,0.0431,-0.1093,0.0279,2623,2019-08-07 16:19:53:401
3.0792,-9.0247,1.7599,0.2216,-0.1341,-0.1003,0.0431,-0.1093,0.0279,2628,2019-08-07 16:19:53:406
3.0792,-9.0247,1.7599,0.2216,-0.1341,-0.1003,0.0581,-0.1051,0.0077,2632,2019-08-07 16:19:53:410
3.3806,-8.9101,1.8117,-0.1649,-0.2142,-0.1858,0.0581,-0.1051,0.0077,2638,2019-08-07 16:19:53:416
3.3806,-8.9101,1.8117,-0.1649,-0.2142,-0.1858,0.0634,-0.0507,-0.0179,2643,2019-08-07 16:19:53:421
3.3806,-8.9101,1.8117,-0.1649,-0.2142,-0.1858,0.0634,-0.0507,-0.0179,2648,2019-08-07 16:19:53:426
3.5289,-8.7955,1.7552,-0.1649,-0.2142,-0.1858,0.0634,-0.0507,-0.0179,2652,2019-08-07 16:19:53:430
3.5289,-8.7955,1.7552,-0.1649,-0.2142,-0.1858,0.0378,0.0526,-0.0498,2658,2019-08-07 16:19:53:436
3.5289,-8.7955,1.7552,-0.2137,-0.4192,-0.0618,0.0378,0.0526,-0.0498,2663,2019-08-07 16:19:53:441
3.3853,-8.6809,1.708,-0.2137,-0.4192,-0.0618,-0.0037,0.1027,-0.052,2669,2019-08-07 16:19:53:447
3.3853,-8.6809,1.708,-0.2137,-0.4192,-0.0618,-0.0037,0.1027,-0.052,2673,2019-08-07 16:19:53:451
3.3518,-8.8623,1.9579,-0.2137,-0.4192,-0.0618,-0.0517,0.1293,-0.0488,2678,2019-08-07 16:19:53:456
3.3518,-8.8623,1.9579,-0.1159,-0.1773,-0.3068,-0.0517,0.1293,-0.0488,2683,2019-08-07 16:19:53:461
3.3518,-8.8623,1.9579,-0.1159,-0.1773,-0.3068,-0.0708,0.0835,-0.0403,2688,2019-08-07 16:19:53:466
3.371,-9.0342,1.7882,-0.1368,-0.0811,-0.1488,-0.0708,0.0835,-0.0403,2693,2019-08-07 16:19:53:471
3.371,-9.0342,1.7882,-0.1368,-0.0811,-0.1488,-0.0687,0.06,-0.036,2697,2019-08-07 16:19:53:475
3.371,-9.0342,1.7882,-0.1368,-0.0811,-0.1488,-0.0687,0.06,-0.036,2703,2019-08-07 16:19:53:481
3.4092,-9.0342,1.6185,-0.1368,-0.0811,-0.1488,-0.0687,0.06,-0.036,2708,2019-08-07 16:19:53:486
3.4092,-9.0342,1.6185,-0.1646,-0.0521,0.035,-0.0645,-0.0049,-0.0221,2712,2019-08-07 16:19:53:490
3.4236,-9.0867,1.5572,-0.1646,-0.0521,0.035,-0.0645,-0.0049,-0.0221,2718,2019-08-07 16:19:53:496
3.4236,-9.0867,1.5572,-0.1646,-0.0521,0.035,-0.0346,-0.0657,-0.0104,2723,2019-08-07 16:19:53:501
3.4236,-9.0867,1.5572,-0.1646,-0.0521,0.035,-0.0346,-0.0657,-0.0104,2728,2019-08-07 16:19:53:506
3.4714,-9.0533,1.543,-0.2355,-0.0093,0.1082,-0.0059,-0.0838,-0.0168,2733,2019-08-07 16:19:53:511
3.4714,-9.0533,1.543,-0.2355,-0.0093,0.1082,-0.0059,-0.0838,-0.0168,2739,2019-08-07 16:19:53:517
3.4714,-9.0533,1.543,-0.2935,-0.0751,0.0581,0.0112,-0.0976,-0.0221,2743,2019-08-07 16:19:53:521
3.4379,-8.996,1.5147,-0.2935,-0.0751,0.0581,0.0112,-0.0976,-0.0221,2747,2019-08-07 16:19:53:525
3.4379,-8.996,1.5147,-0.2935,-0.0751,0.0581,0.0112,-0.0976,-0.0221,2753,2019-08-07 16:19:53:531
3.4379,-8.996,1.5147,-0.2935,-0.0751,0.0581,0.0186,-0.0412,-0.0328,2758,2019-08-07 16:19:53:536
3.6101,-9.0581,1.4723,-0.3223,-0.0818,-0.0105,0.0186,-0.0412,-0.0328,2764,2019-08-07 16:19:53:542
3.6101,-9.0581,1.4723,-0.3223,-0.0818,-0.0105,0.008,-0.0081,-0.0477,2768,2019-08-07 16:19:53:546
3.5288,-9.0294,1.5383,-0.3223,-0.0818,-0.0105,0.008,-0.0081,-0.0477,2773,2019-08-07 16:19:53:551
3.5288,-9.0294,1.5383,-0.3223,-0.0818,-0.0105,5.0E-4,0.0387,-0.0498,2777,2019-08-07 16:19:53:555
3.5288,-9.0294,1.5383,-0.1728,-0.0538,0.0759,5.0E-4,0.0387,-0.0498,2783,2019-08-07 16:19:53:561
3.4331,-9.0581,1.6326,-0.1728,-0.0538,0.0759,-0.0133,0.0419,-0.0488,2788,2019-08-07 16:19:53:566
3.4331,-9.0581,1.6326,-0.1728,-0.0538,0.0759,-0.0133,0.0419,-0.0488,2793,2019-08-07 16:19:53:571
3.3182,-9.1297,1.7363,-0.1728,-0.0538,0.0759,-0.0133,0.0419,-0.0488,2798,2019-08-07 16:19:53:576
3.3182,-9.1297,1.7363,-0.0594,0.102,-0.1734,-0.0144,-0.0017,-0.0424,2802,2019-08-07 16:19:53:580
3.3182,-9.1297,1.7363,-0.0594,0.102,-0.1734,-0.0144,-0.0017,-0.0424,2808,2019-08-07 16:19:53:586
3.3756,-9.1774,1.8777,-0.0594,0.102,-0.1734,-0.0037,-0.0337,-0.0477,2813,2019-08-07 16:19:53:591
3.3756,-9.1774,1.8777,-0.0594,0.102,-0.1734,-0.0037,-0.0337,-0.0477,2818,2019-08-07 16:19:53:596
3.4378,-9.0055,1.7174,-0.15,-0.0952,-0.104,0.0016,-0.0603,-0.0413,2823,2019-08-07 16:19:53:601
3.4378,-9.0055,1.7174,-0.15,-0.0952,-0.104,0.0016,-0.0603,-0.0413,2828,2019-08-07 16:19:53:606
3.4378,-9.0055,1.7174,-0.15,-0.0952,-0.104,0.0027,-0.0571,-0.0296,2832,2019-08-07 16:19:53:610
3.6627,-8.9339,1.5524,-0.15,-0.0952,-0.104,0.0027,-0.0571,-0.0296,2838,2019-08-07 16:19:53:616
3.6627,-8.9339,1.5524,-0.3358,-0.1253,-0.0123,0.0069,-0.0156,-0.0339,2843,2019-08-07 16:19:53:621
3.5478,-8.9674,1.7551,-0.3358,-0.1253,-0.0123,0.0069,-0.0156,-0.0339,2848,2019-08-07 16:19:53:626
3.5478,-8.9674,1.7551,-0.3358,-0.1253,-0.0123,0.025,0.0238,-0.0253,2853,2019-08-07 16:19:53:631
3.5478,-8.9674,1.7551,-0.3358,-0.1253,-0.0123,0.025,0.0238,-0.0253,2858,2019-08-07 16:19:53:636
3.4713,-8.9912,1.6656,-0.3358,-0.1253,-0.0123,0.025,0.0238,-0.0253,2863,2019-08-07 16:19:53:641
3.4713,-8.9912,1.6656,-0.2244,-0.0935,-0.0117,0.0186,0.0249,-0.0104,2868,2019-08-07 16:19:53:646
3.4856,-9.0867,1.7221,-0.2244,-0.0935,-0.0117,0.0186,0.0249,-0.0104,2873,2019-08-07 16:19:53:651
3.4856,-9.0867,1.7221,-0.2244,-0.0935,-0.0117,-0.0016,0.0334,-0.003,2877,2019-08-07 16:19:53:655
3.4856,-9.0867,1.7221,-0.1562,-0.0112,-0.121,-0.0016,0.0334,-0.003,2883,2019-08-07 16:19:53:661
3.4426,-9.0676,1.7598,-0.1562,-0.0112,-0.121,-0.0197,0.01,0.0045,2888,2019-08-07 16:19:53:666
3.4426,-9.0676,1.7598,-0.1562,-0.0112,-0.121,-0.0197,0.01,0.0045,2893,2019-08-07 16:19:53:671
3.5622,-9.1106,1.642,-0.1562,-0.0112,-0.121,-0.0442,-0.0071,0.0109,2898,2019-08-07 16:19:53:676
3.5622,-9.1106,1.642,-0.3237,0.0023,0.0112,-0.0442,-0.0071,0.0109,2903,2019-08-07 16:19:53:681
3.5622,-9.1106,1.642,-0.3237,0.0023,0.0112,-0.0442,-0.0071,0.0109,2907,2019-08-07 16:19:53:685
3.6578,-9.0676,1.6231,-0.3237,0.0023,0.0112,-0.0538,4.0E-4,0.0194,2914,2019-08-07 16:19:53:692
3.6578,-9.0676,1.6231,-0.3721,-0.0513,0.0109,-0.0495,0.0142,0.029,2918,2019-08-07 16:19:53:696
3.6578,-9.0676,1.6231,-0.3721,-0.0513,0.0109,-0.0495,0.0142,0.029,2923,2019-08-07 16:19:53:701
3.677,-9.0724,1.4629,-0.3721,-0.0513,0.0109,-0.0495,0.0142,0.029,2928,2019-08-07 16:19:53:706
3.677,-9.0724,1.4629,-0.3721,-0.0513,0.0109,-0.04,0.0153,0.0386,2933,2019-08-07 16:19:53:711
3.5717,-9.058,1.576,-0.2896,-0.0112,0.0967,-0.04,0.0153,0.0386,2937,2019-08-07 16:19:53:715
3.5717,-9.058,1.576,-0.2896,-0.0112,0.0967,-0.0027,0.0238,0.0418,2943,2019-08-07 16:19:53:721
3.5717,-9.058,1.576,-0.2896,-0.0112,0.0967,-0.0027,0.0238,0.0418,2948,2019-08-07 16:19:53:726
3.4951,-9.0246,1.5807,-0.138,-0.1182,0.0182,-0.0027,0.0238,0.0418,2953,2019-08-07 16:19:53:731
3.4951,-9.0246,1.5807,-0.138,-0.1182,0.0182,0.0389,0.0217,0.0322,2958,2019-08-07 16:19:53:736
3.4951,-9.0246,1.5807,-0.138,-0.1182,0.0182,0.0389,0.0217,0.0322,2962,2019-08-07 16:19:53:740
3.3085,-8.953,1.5854,-0.138,-0.1182,0.0182,0.0538,0.0292,0.0194,2968,2019-08-07 16:19:53:746
3.3085,-8.953,1.5854,-0.138,-0.1182,0.0182,0.0538,0.0292,0.0194,2973,2019-08-07 16:19:53:751
3.1698,-8.8575,1.6608,0.0872,-0.2801,-0.0552,0.0559,0.0324,0.0109,2978,2019-08-07 16:19:53:756
3.1698,-8.8575,1.6608,0.0872,-0.2801,-0.0552,0.0559,0.0324,0.0109,2983,2019-08-07 16:19:53:761
3.1698,-8.8575,1.6608,0.0872,-0.2801,-0.0552,0.0399,0.011,-0.0083,2987,2019-08-07 16:19:53:765
3.0884,-8.9578,1.6891,0.0872,-0.2801,-0.0552,0.0399,0.011,-0.0083,2993,2019-08-07 16:19:53:771
3.0884,-8.9578,1.6891,0.2348,-0.1736,-0.1442,0.0272,-0.0167,-0.0211,2998,2019-08-07 16:19:53:776
3.0884,-8.9578,1.6891,0.2348,-0.1736,-0.1442,0.0272,-0.0167,-0.0211,3003,2019-08-07 16:19:53:781
3.1937,-9.0199,1.741,0.2348,-0.1736,-0.1442,0.0176,-0.0561,-0.0307,3008,2019-08-07 16:19:53:786
3.1937,-9.0199,1.741,0.2348,-0.1736,-0.1442,0.0176,-0.0561,-0.0307,3013,2019-08-07 16:19:53:791
3.1937,-9.0199,1.741,0.2348,-0.1736,-0.1442,0.0176,-0.0561,-0.0307,3018,2019-08-07 16:19:53:796
3.1937,-9.0199,1.741,0.2348,-0.1736,-0.1442,0.0176,-0.0561,-0.0307,3023,2019-08-07 16:19:53:801
3.3037,-9.0533,1.576,-0.0084,-0.0424,0.0508,5.0E-4,-0.071,-0.0403,3028,2019-08-07 16:19:53:806
3.3037,-9.0533,1.576,-0.0084,-0.0424,0.0508,5.0E-4,-0.071,-0.0403,3033,2019-08-07 16:19:53:811
3.6194,-9.0819,1.6372,-0.0084,-0.0424,0.0508,-0.0112,-0.0763,-0.0285,3038,2019-08-07 16:19:53:816
3.6194,-9.0819,1.6372,-0.0084,-0.0424,0.0508,-0.0112,-0.0763,-0.0285,3043,2019-08-07 16:19:53:821
3.6194,-9.0819,1.6372,-0.3281,-0.0338,0.0176,-0.0048,-0.0699,-0.0147,3048,2019-08-07 16:19:53:826
3.6625,-9.0198,1.6372,-0.3281,-0.0338,0.0176,-0.0048,-0.0699,-0.0147,3053,2019-08-07 16:19:53:831
3.6625,-9.0198,1.6372,-0.3281,-0.0338,0.0176,0.0059,-0.0603,0.0045,3057,2019-08-07 16:19:53:835
3.696,-9.101,1.642,-0.3281,-0.0338,0.0176,0.0059,-0.0603,0.0045,3063,2019-08-07 16:19:53:841
3.696,-9.101,1.642,-0.3193,0.0148,-0.0232,0.0197,-0.0454,0.0162,3068,2019-08-07 16:19:53:846
3.696,-9.101,1.642,-0.3193,0.0148,-0.0232,0.0197,-0.0454,0.0162,3073,2019-08-07 16:19:53:851
3.6385,-9.1249,1.6561,-0.3193,0.0148,-0.0232,0.0272,-0.0145,0.0183,3078,2019-08-07 16:19:53:856
3.6385,-9.1249,1.6561,-0.3193,0.0148,-0.0232,0.0272,-0.0145,0.0183,3083,2019-08-07 16:19:53:861
3.4902,-9.058,1.6137,-0.2579,-0.0326,-0.0244,0.0282,0.0206,0.0205,3088,2019-08-07 16:19:53:866
3.4902,-9.058,1.6137,-0.2579,-0.0326,-0.0244,0.0282,0.0206,0.0205,3093,2019-08-07 16:19:53:871
3.4902,-9.058,1.6137,-0.2579,-0.0326,-0.0244,0.0304,0.0664,0.0247,3098,2019-08-07 16:19:53:876
3.4137,-9.0437,1.6844,-0.2579,-0.0326,-0.0244,0.0304,0.0664,0.0247,3104,2019-08-07 16:19:53:882
3.4137,-9.0437,1.6844,-0.0624,-0.1045,-0.0952,0.0261,0.0888,0.0279,3108,2019-08-07 16:19:53:886
3.3515,-8.9769,1.6891,-0.0624,-0.1045,-0.0952,0.0261,0.0888,0.0279,3113,2019-08-07 16:19:53:891
3.3515,-8.9769,1.6891,-0.0624,-0.1045,-0.0952,0.0229,0.0973,0.0151,3117,2019-08-07 16:19:53:895
3.3515,-8.9769,1.6891,-0.0624,-0.1045,-0.0952,0.0229,0.0973,0.0151,3123,2019-08-07 16:19:53:901
3.3227,-8.9053,1.6089,-0.0201,-0.1857,0.0289,0.0165,0.076,0.0045,3128,2019-08-07 16:19:53:906
3.3227,-8.9053,1.6089,-0.0201,-0.1857,0.0289,0.0165,0.076,0.0045,3132,2019-08-07 16:19:53:910
3.2892,-8.8002,1.7881,-0.0201,-0.1857,0.0289,0.0186,0.0611,-0.003,3138,2019-08-07 16:19:53:916
3.2892,-8.8002,1.7881,-0.0201,-0.1857,0.0289,0.0186,0.0611,-0.003,3143,2019-08-07 16:19:53:921
3.2892,-8.8002,1.7881,0.0889,-0.2848,-0.1273,0.0304,0.0142,-0.0115,3148,2019-08-07 16:19:53:926
3.2844,-8.7811,1.8871,0.0889,-0.2848,-0.1273,0.0304,0.0142,-0.0115,3153,2019-08-07 16:19:53:931
3.2844,-8.7811,1.8871,0.0889,-0.2848,-0.1273,0.0293,-0.0561,-0.0136,3157,2019-08-07 16:19:53:935
3.3275,-8.7907,1.8211,0.0889,-0.2848,-0.1273,0.0293,-0.0561,-0.0136,3163,2019-08-07 16:19:53:941
3.3275,-8.7907,1.8211,-0.0836,-0.2967,-0.1327,0.0133,-0.137,-0.0253,3168,2019-08-07 16:19:53:946
3.3275,-8.7907,1.8211,-0.0836,-0.2967,-0.1327,0.0133,-0.137,-0.0253,3173,2019-08-07 16:19:53:951
3.4949,-8.848,1.6608,-0.0836,-0.2967,-0.1327,0.0133,-0.137,-0.0253,3178,2019-08-07 16:19:53:956
3.4949,-8.848,1.6608,-0.0836,-0.2967,-0.1327,-0.0016,-0.1466,-0.0339,3182,2019-08-07 16:19:53:960
3.7198,-8.9625,1.5807,-0.3296,-0.1314,0.0381,-0.0016,-0.1466,-0.0339,3188,2019-08-07 16:19:53:966
3.7198,-8.9625,1.5807,-0.3296,-0.1314,0.0381,-0.0091,-0.1253,-0.0339,3193,2019-08-07 16:19:53:971
3.7198,-8.9625,1.5807,-0.4182,-0.0678,-0.0474,-0.0091,-0.1253,-0.0339,3197,2019-08-07 16:19:53:975
3.7389,-9.0676,1.7315,-0.4182,-0.0678,-0.0474,0.0027,-0.0571,-0.0339,3203,2019-08-07 16:19:53:981
3.7389,-9.0676,1.7315,-0.4182,-0.0678,-0.0474,0.0027,-0.0571,-0.0339,3207,2019-08-07 16:19:53:985
3.7389,-9.0676,1.7315,-0.4182,-0.0678,-0.0474,0.0186,0.0047,-0.0253,3213,2019-08-07 16:19:53:991
3.6863,-8.9196,1.6985,-0.2844,-0.1646,0.004,0.0186,0.0047,-0.0253,3218,2019-08-07 16:19:53:996
3.6863,-8.9196,1.6985,-0.2844,-0.1646,0.004,0.0101,0.0324,-0.0136,3223,2019-08-07 16:19:54:001
3.6863,-8.9196,1.6985,-0.2844,-0.1646,0.004,0.0101,0.0324,-0.0136,3228,2019-08-07 16:19:54:006
3.5523,-8.9244,1.8588,-0.2844,-0.1646,0.004,0.0069,0.026,-0.0062,3233,2019-08-07 16:19:54:011
3.5523,-8.9244,1.8588,-0.1759,-0.2342,-0.1607,0.0069,0.026,-0.0062,3237,2019-08-07 16:19:54:015
3.4996,-8.8384,1.6938,-0.1759,-0.2342,-0.1607,0.0027,0.0057,0.0087,3243,2019-08-07 16:19:54:021
3.4996,-8.8384,1.6938,-0.1759,-0.2342,-0.1607,0.0027,0.0057,0.0087,3247,2019-08-07 16:19:54:025
3.4996,-8.8384,1.6938,-0.1759,-0.2342,-0.1607,0.0048,-0.0081,0.0141,3253,2019-08-07 16:19:54:031
3.5283,-8.8814,1.8635,-0.1569,-0.1575,-0.2198,0.0048,-0.0081,0.0141,3258,2019-08-07 16:19:54:036
3.5283,-8.8814,1.8635,-0.1569,-0.1575,-0.2198,0.0112,-0.0369,0.0215,3263,2019-08-07 16:19:54:041
3.5379,-8.8766,1.7456,-0.1569,-0.1575,-0.2198,0.0112,-0.0369,0.0215,3268,2019-08-07 16:19:54:046
3.5379,-8.8766,1.7456,-0.1569,-0.1575,-0.2198,0.0112,-0.0369,0.0215,3272,2019-08-07 16:19:54:050
3.5379,-8.8766,1.7456,-0.2248,-0.1482,-0.0547,0.0059,-0.0433,0.0226,3278,2019-08-07 16:19:54:056
3.5714,-8.9673,1.6372,-0.2248,-0.1482,-0.0547,0.0059,-0.0433,0.0226,3283,2019-08-07 16:19:54:061
3.5714,-8.9673,1.6372,-0.2248,-0.1482,-0.0547,-0.0154,-0.0209,0.0034,3287,2019-08-07 16:19:54:065
3.5714,-8.9673,1.6372,-0.2248,-0.1482,-0.0547,-0.0154,-0.0209,0.0034,3293,2019-08-07 16:19:54:071
3.4805,-9.0198,1.6891,-0.1517,-0.0053,-0.0118,-0.0293,-0.0124,-0.004,3298,2019-08-07 16:19:54:076
3.4805,-9.0198,1.6891,-0.1517,-0.0053,-0.0118,-0.0293,-0.0124,-0.004,3303,2019-08-07 16:19:54:081
3.4517,-9.0723,1.7032,-0.1517,-0.0053,-0.0118,-0.024,0.0132,-0.0126,3308,2019-08-07 16:19:54:086
3.4517,-9.0723,1.7032,-0.1517,-0.0053,-0.0118,-0.024,0.0132,-0.0126,3313,2019-08-07 16:19:54:091
3.4517,-9.0723,1.7032,-0.0339,-0.0048,-0.0856,-0.0176,0.0121,-0.02,3318,2019-08-07 16:19:54:096
3.3848,-9.0867,1.7079,-0.0339,-0.0048,-0.0856,-0.0176,0.0121,-0.02,3323,2019-08-07 16:19:54:101
3.3848,-9.0867,1.7079,-0.017,-0.0471,-0.1342,-0.0186,-0.0145,-0.0296,3328,2019-08-07 16:19:54:106
3.4278,-8.9769,1.6985,-0.017,-0.0471,-0.1342,-0.0186,-0.0145,-0.0296,3333,2019-08-07 16:19:54:111
3.4278,-8.9769,1.6985,-0.017,-0.0471,-0.1342,-0.0144,-0.0337,-0.0307,3338,2019-08-07 16:19:54:116
3.4278,-8.9769,1.6985,-0.017,-0.0471,-0.1342,-0.0144,-0.0337,-0.0307,3343,2019-08-07 16:19:54:121
3.4469,-8.9005,1.7362,-0.1766,-0.1595,-0.1523,-0.0027,-0.0593,-0.0296,3348,2019-08-07 16:19:54:126
3.4469,-8.9005,1.7362,-0.1766,-0.1595,-0.1523,-0.0027,-0.0593,-0.0296,3353,2019-08-07 16:19:54:131
3.5904,-8.8909,1.7032,-0.1766,-0.1595,-0.1523,0.0069,-0.0827,-0.0126,3357,2019-08-07 16:19:54:135
3.5904,-8.8909,1.7032,-0.1766,-0.1595,-0.1523,0.0069,-0.0827,-0.0126,3363,2019-08-07 16:19:54:141
3.5904,-8.8909,1.7032,-0.3844,-0.1477,-0.0518,0.0229,-0.0795,0.0034,3368,2019-08-07 16:19:54:146
3.7292,-8.9196,1.7032,-0.3844,-0.1477,-0.0518,0.0229,-0.0795,0.0034,3373,2019-08-07 16:19:54:151
3.7292,-8.9196,1.7032,-0.3844,-0.1477,-0.0518,0.0272,-0.0454,0.0066,3379,2019-08-07 16:19:54:157
3.7292,-8.9196,1.7032,-0.3844,-0.1477,-0.0518,0.0272,-0.0454,0.0066,3382,2019-08-07 16:19:54:160
3.667,-8.9005,1.6325,-0.3844,-0.1477,-0.0518,0.0272,-0.0454,0.0066,3388,2019-08-07 16:19:54:166
3.667,-8.9005,1.6325,-0.1609,-0.1655,-0.0136,0.0101,-0.0326,0.013,3393,2019-08-07 16:19:54:171
3.5139,-8.9721,1.6419,-0.1609,-0.1655,-0.0136,0.0101,-0.0326,0.013,3397,2019-08-07 16:19:54:175
3.5139,-8.9721,1.6419,-0.1609,-0.1655,-0.0136,-0.008,-0.0017,0.0151,3403,2019-08-07 16:19:54:181
3.5139,-8.9721,1.6419,-0.1609,-0.1655,-0.0136,-0.008,-0.0017,0.0151,3408,2019-08-07 16:19:54:186
3.4804,-9.1201,1.6937,-0.1191,0.0486,-0.0666,-0.0133,-7.0E-4,0.013,3413,2019-08-07 16:19:54:191
3.4804,-9.1201,1.6937,-0.1191,0.0486,-0.0666,-0.0133,-7.0E-4,0.013,3418,2019-08-07 16:19:54:196
3.4804,-9.1201,1.6937,-0.1191,0.0486,-0.0666,-0.0112,0.0153,-8.0E-4,3423,2019-08-07 16:19:54:201
3.4947,-9.0389,1.7503,-0.1191,0.0486,-0.0666,-0.0112,0.0153,-8.0E-4,3428,2019-08-07 16:19:54:206
3.4947,-9.0389,1.7503,-0.067,-0.071,-0.0862,-0.0037,0.0164,-0.003,3432,2019-08-07 16:19:54:210
3.4947,-8.9052,1.6702,-0.067,-0.071,-0.0862,-0.0037,0.0164,-0.003,3438,2019-08-07 16:19:54:216
3.4947,-8.9052,1.6702,-0.067,-0.071,-0.0862,-0.0112,0.0164,-0.0051,3443,2019-08-07 16:19:54:221
3.4947,-8.9052,1.6702,-0.067,-0.071,-0.0862,-0.0112,0.0164,-0.0051,3447,2019-08-07 16:19:54:225
3.533,-8.848,1.5759,-0.1706,-0.2232,0.0503,-0.0112,0.0164,-0.0051,3453,2019-08-07 16:19:54:231
3.533,-8.848,1.5759,-0.1706,-0.2232,0.0503,-0.0144,0.0142,2.0E-4,3458,2019-08-07 16:19:54:236
3.5904,-8.8814,1.6796,-0.1706,-0.2232,0.0503,-0.0144,0.0142,2.0E-4,3463,2019-08-07 16:19:54:241
3.5904,-8.8814,1.6796,-0.1706,-0.2232,0.0503,-0.0027,-0.0103,0.0109,3468,2019-08-07 16:19:54:246
3.5904,-8.8814,1.6796,-0.203,-0.1514,0.0208,-0.0027,-0.0103,0.0109,3473,2019-08-07 16:19:54:251
3.5999,-8.9959,1.5853,-0.203,-0.1514,0.0208,-0.0027,-0.0103,0.0109,3478,2019-08-07 16:19:54:256
3.5999,-8.9959,1.5853,-0.203,-0.1514,0.0208,-0.0016,-0.0422,0.0183,3482,2019-08-07 16:19:54:260
3.6238,-9.0055,1.6607,-0.203,-0.1514,0.0208,-0.0016,-0.0422,0.0183,3488,2019-08-07 16:19:54:266
3.6238,-9.0055,1.6607,-0.241,-0.0135,-0.0484,0.0091,-0.0433,0.0141,3492,2019-08-07 16:19:54:270
3.6095,-8.9912,1.5287,-0.241,-0.0135,-0.0484,0.0091,-0.0433,0.0141,3499,2019-08-07 16:19:54:277
3.6095,-8.9912,1.5287,-0.241,-0.0135,-0.0484,0.0208,-0.022,0.0162,3503,2019-08-07 16:19:54:281
3.6095,-8.9912,1.5287,-0.241,-0.0135,-0.0484,0.0208,-0.022,0.0162,3508,2019-08-07 16:19:54:286
3.586,-8.9721,1.6561,-0.2225,-0.0992,-0.0332,0.0261,4.0E-4,0.0151,3515,2019-08-07 16:19:54:293
3.586,-8.9721,1.6561,-0.2225,-0.0992,-0.0332,0.0261,4.0E-4,0.0151,3517,2019-08-07 16:19:54:295
3.586,-8.9482,1.6891,-0.2225,-0.0992,-0.0332,0.0325,0.011,0.0109,3523,2019-08-07 16:19:54:301
3.4903,-8.9482,1.6891,-0.2225,-0.0992,-0.0332,0.0325,0.011,0.0109,3528,2019-08-07 16:19:54:306
3.4903,-8.9482,1.6891,-0.0661,-0.1702,-0.2011,0.0197,0.0025,0.0024,3533,2019-08-07 16:19:54:311
3.3994,-8.9005,1.8729,-0.0661,-0.1702,-0.2011,0.0197,0.0025,0.0024,3537,2019-08-07 16:19:54:315
3.3994,-8.9005,1.8729,-0.0661,-0.1702,-0.2011,-5.0E-4,-0.039,0.0066,3543,2019-08-07 16:19:54:321
3.3994,-8.9005,1.8729,-0.0661,-0.1702,-0.2011,-5.0E-4,-0.039,0.0066,3548,2019-08-07 16:19:54:326
3.0119,-8.7716,1.6797,0.3214,-0.2611,-0.1551,-0.0708,-0.17,0.0173,3553,2019-08-07 16:19:54:331
3.0119,-8.7716,1.6797,0.3214,-0.2611,-0.1551,-0.0708,-0.17,0.0173,3558,2019-08-07 16:19:54:336
3.5429,-8.996,2.0804,0.3214,-0.2611,-0.1551,-0.0708,-0.17,0.0173,3562,2019-08-07 16:19:54:340
3.5429,-8.996,2.0804,0.3214,-0.2611,-0.1551,-0.0176,-0.1189,-8.0E-4,3568,2019-08-07 16:19:54:346
3.5429,-8.996,2.0804,-0.4348,-0.0327,-0.112,-0.0176,-0.1189,-8.0E-4,3573,2019-08-07 16:19:54:351
3.8922,-9.0294,1.6373,-0.4348,-0.0327,-0.112,0.041,-0.0795,-0.0115,3578,2019-08-07 16:19:54:356
3.8922,-9.0294,1.6373,-0.4348,-0.0327,-0.112,0.041,-0.0795,-0.0115,3583,2019-08-07 16:19:54:361
4.074,-8.9148,1.2083,-0.4348,-0.0327,-0.112,0.0357,0.0537,-0.0094,3587,2019-08-07 16:19:54:365
4.074,-8.9148,1.2083,-0.4854,-0.1726,0.2649,0.0357,0.0537,-0.0094,3593,2019-08-07 16:19:54:371
4.074,-8.9148,1.2083,-0.4854,-0.1726,0.2649,-0.0069,0.1048,0.0056,3597,2019-08-07 16:19:54:375
3.6386,-8.9435,1.6655,-0.4854,-0.1726,0.2649,-0.0069,0.1048,0.0056,3603,2019-08-07 16:19:54:381
3.6386,-8.9435,1.6655,-0.4854,-0.1726,0.2649,-0.0027,0.1549,0.013,3607,2019-08-07 16:19:54:385
3.4185,-9.1201,1.8069,-0.0492,0.0518,-0.1791,-0.0027,0.1549,0.013,3613,2019-08-07 16:19:54:391
3.4185,-9.1201,1.8069,-0.0492,0.0518,-0.1791,0.0059,0.1282,-0.003,3618,2019-08-07 16:19:54:396
3.1602,-9.0485,1.8117,-0.0492,0.0518,-0.1791,-0.0048,0.0526,-0.0094,3627,2019-08-07 16:19:54:405
3.1602,-9.0485,1.8117,-0.0492,0.0518,-0.1791,-0.0048,0.0526,-0.0094,3627,2019-08-07 16:19:54:405
3.1602,-9.0485,1.8117,0.2248,-0.0721,-0.2414,-0.0048,0.0526,-0.0094,3632,2019-08-07 16:19:54:410
3.1602,-9.0485,1.8117,0.2248,-0.0721,-0.2414,-0.0048,0.0526,-0.0094,3638,2019-08-07 16:19:54:416