ACCELEROMETER X (m/s²),ACCELEROMETER Y (m/s²),ACCELEROMETER Z (m/s²),LINEAR ACCELERATION X (m/s²),LINEAR ACCELERATION Y (m/s²),LINEAR ACCELERATION Z (m/s²),GYROSCOPE X (rad/s),GYROSCOPE Y (rad/s),GYROSCOPE Z (rad/s),Time since start in ms ,YYYY-MO-DD HH-MI-SS_SSS
-6.8129,-5.5653,3.1438,-0.456,-0.239,0.1937,6.0E-4,0.0569,0.0437,2,2019-08-07 16:33:29:191
-6.9325,-5.5223,3.1579,-0.3101,-0.2002,0.1638,6.0E-4,0.0569,0.0437,8,2019-08-07 16:33:29:197
-6.9325,-5.5223,3.1579,-0.3101,-0.2002,0.1638,0.0038,0.0655,0.0512,12,2019-08-07 16:33:29:201
-6.9325,-5.5223,3.1579,-0.3101,-0.2002,0.1638,0.0038,0.0655,0.0512,18,2019-08-07 16:33:29:207
-6.9804,-5.5032,3.2192,-0.3101,-0.2002,0.1638,0.007,0.0463,0.0554,23,2019-08-07 16:33:29:212
-6.9804,-5.5032,3.2192,-0.3101,-0.2002,0.1638,0.007,0.0463,0.0554,27,2019-08-07 16:33:29:216
-6.9995,-5.4889,3.2286,-0.234,-0.1681,0.1369,0.0091,0.0346,0.0586,33,2019-08-07 16:33:29:222
-6.9995,-5.4889,3.2286,-0.234,-0.1681,0.1369,0.0091,0.0346,0.0586,37,2019-08-07 16:33:29:226
-6.9995,-5.4889,3.2286,-0.234,-0.1681,0.1369,0.0091,0.0346,0.0586,43,2019-08-07 16:33:29:232
-7.0809,-5.4077,3.2569,-0.2237,-0.2536,0.0876,0.0123,0.0111,0.0607,48,2019-08-07 16:33:29:237
-7.0809,-5.4077,3.2569,-0.2237,-0.2536,0.0876,0.0123,0.0111,0.0607,52,2019-08-07 16:33:29:241
-6.9948,-5.3791,3.1956,-0.2237,-0.2536,0.0876,0.0187,-0.0176,0.0629,58,2019-08-07 16:33:29:247
-6.9948,-5.3791,3.1956,-0.2237,-0.2536,0.0876,0.0187,-0.0176,0.0629,63,2019-08-07 16:33:29:252
-6.9948,-5.3791,3.1956,-0.2921,-0.3143,0.1069,0.0176,-0.0315,0.0554,68,2019-08-07 16:33:29:257
-6.9709,-5.3791,3.2239,-0.2921,-0.3143,0.1069,0.0176,-0.0315,0.0554,73,2019-08-07 16:33:29:262
-6.9709,-5.3791,3.2239,-0.2921,-0.3143,0.1069,0.0176,-0.0315,0.0554,77,2019-08-07 16:33:29:266
-7.0236,-5.3552,3.1532,-0.2462,-0.3335,0.1671,0.0144,-0.0357,0.049,83,2019-08-07 16:33:29:272
-7.0236,-5.3552,3.1532,-0.2462,-0.3335,0.1671,0.0144,-0.0357,0.049,88,2019-08-07 16:33:29:277
-7.0236,-5.3552,3.1532,-0.2462,-0.3335,0.1671,0.0144,-0.0357,0.049,92,2019-08-07 16:33:29:281
-6.9279,-5.3552,3.0495,-0.3599,-0.351,0.2972,0.0091,0.0015,0.0309,98,2019-08-07 16:33:29:287
-6.9279,-5.3552,3.0495,-0.3599,-0.351,0.2972,0.0091,0.0015,0.0309,103,2019-08-07 16:33:29:292
-7.0284,-5.3552,3.0683,-0.3599,-0.351,0.2972,6.0E-4,0.0431,0.0224,107,2019-08-07 16:33:29:296
-7.0284,-5.3552,3.0683,-0.3599,-0.351,0.2972,6.0E-4,0.0431,0.0224,113,2019-08-07 16:33:29:302
-7.0284,-5.3552,3.0683,-0.2558,-0.3521,0.1821,-0.0079,0.0623,0.016,118,2019-08-07 16:33:29:307
-7.0428,-5.3409,3.1861,-0.2558,-0.3521,0.1821,-0.0079,0.0623,0.016,122,2019-08-07 16:33:29:311
-7.0428,-5.3409,3.1861,-0.2558,-0.3521,0.1821,-0.0143,0.0633,0.0096,128,2019-08-07 16:33:29:317
-7.0428,-5.3409,3.1861,-0.2558,-0.3521,0.1821,-0.0143,0.0633,0.0096,132,2019-08-07 16:33:29:321
-7.2103,-5.3218,3.2757,-0.0564,-0.3737,0.0635,-0.026,0.0335,0.0149,138,2019-08-07 16:33:29:327
-7.2103,-5.3218,3.2757,-0.0564,-0.3737,0.0635,-0.026,0.0335,0.0149,142,2019-08-07 16:33:29:331
-7.1864,-5.3504,3.1531,-0.0564,-0.3737,0.0635,-0.026,0.0335,0.0149,148,2019-08-07 16:33:29:337
-7.1864,-5.3504,3.1531,-0.0564,-0.3737,0.0635,-0.0271,0.0026,0.0128,152,2019-08-07 16:33:29:341
-7.1864,-5.3504,3.1531,-0.0564,-0.3737,0.0635,-0.0271,0.0026,0.0128,158,2019-08-07 16:33:29:347
-7.1769,-5.3886,3.172,-0.1119,-0.2866,0.1299,-0.0292,-0.0251,0.0107,163,2019-08-07 16:33:29:352
-7.1769,-5.3886,3.172,-0.1119,-0.2866,0.1299,-0.0292,-0.0251,0.0107,167,2019-08-07 16:33:29:356
-7.1769,-5.3886,3.172,-0.1119,-0.2866,0.1299,-0.025,-0.04,0.0085,173,2019-08-07 16:33:29:362
-6.952,-5.4029,3.1625,-0.1119,-0.2866,0.1299,-0.025,-0.04,0.0085,177,2019-08-07 16:33:29:366
-6.952,-5.4029,3.1625,-0.3215,-0.3006,0.1369,-0.0207,-0.0368,0.0085,183,2019-08-07 16:33:29:372
-6.9329,-5.3886,3.1861,-0.3215,-0.3006,0.1369,-0.0207,-0.0368,0.0085,188,2019-08-07 16:33:29:377
-6.9329,-5.3886,3.1861,-0.3215,-0.3006,0.1369,-0.0207,-0.0368,0.0085,193,2019-08-07 16:33:29:382
-6.9329,-5.3886,3.1861,-0.3215,-0.3006,0.1369,-0.0175,-0.0251,0.0107,198,2019-08-07 16:33:29:387
-6.909,-5.4077,3.1248,-0.378,-0.267,0.1816,-0.0175,-0.0251,0.0107,203,2019-08-07 16:33:29:392
-6.909,-5.4077,3.1248,-0.378,-0.267,0.1816,-0.0079,-0.0038,0.0149,207,2019-08-07 16:33:29:396
-6.8899,-5.4077,3.1295,-0.3976,-0.2664,0.1769,-0.0079,-0.0038,0.0149,212,2019-08-07 16:33:29:401
-6.8899,-5.4077,3.1295,-0.3976,-0.2664,0.1769,-0.0026,0.0111,0.0139,218,2019-08-07 16:33:29:407
-6.8899,-5.4077,3.1295,-0.3976,-0.2664,0.1769,-0.0026,0.0111,0.0139,222,2019-08-07 16:33:29:411
-6.9165,-5.427,3.2195,-0.3976,-0.2664,0.1769,-0.0026,0.0143,0.0064,228,2019-08-07 16:33:29:417
-6.9165,-5.427,3.2195,-0.3585,-0.26,0.0805,-0.0026,0.0143,0.0064,233,2019-08-07 16:33:29:422
-6.9165,-5.4366,3.1913,-0.3585,-0.26,0.0805,-0.0026,0.0015,0.0075,237,2019-08-07 16:33:29:426
-6.9165,-5.4366,3.1913,-0.3585,-0.26,0.0805,-0.0026,0.0015,0.0075,243,2019-08-07 16:33:29:432
-6.9165,-5.4366,3.1913,-0.3585,-0.26,0.0805,-0.0026,-6.0E-4,0.0107,247,2019-08-07 16:33:29:436
-6.9405,-5.4222,3.2195,-0.3498,-0.2493,0.0852,-0.0026,-6.0E-4,0.0107,253,2019-08-07 16:33:29:442
-6.9405,-5.4222,3.2195,-0.3498,-0.2493,0.0852,0.0016,-0.0123,0.0128,258,2019-08-07 16:33:29:447
-6.9405,-5.4222,3.2195,-0.3498,-0.2493,0.0852,0.0016,-0.0123,0.0128,263,2019-08-07 16:33:29:452
-6.95,-5.3554,3.1865,-0.3498,-0.2493,0.0852,-0.0016,-0.0262,0.016,268,2019-08-07 16:33:29:457
-6.95,-5.3554,3.1865,-0.3933,-0.3045,0.1446,-0.0016,-0.0262,0.016,273,2019-08-07 16:33:29:462
-6.9022,-5.384,3.13,-0.3933,-0.3045,0.1446,-0.0037,-0.023,0.0149,278,2019-08-07 16:33:29:467
-6.9022,-5.384,3.13,-0.3933,-0.3045,0.1446,-0.0037,-0.023,0.0149,283,2019-08-07 16:33:29:472
-6.9022,-5.384,3.13,-0.3933,-0.3045,0.1446,-0.009,-0.0198,0.0288,287,2019-08-07 16:33:29:476
-6.8639,-5.4509,3.1347,-0.4272,-0.2164,0.1757,-0.009,-0.0198,0.0288,293,2019-08-07 16:33:29:482
-6.8639,-5.4509,3.1347,-0.4272,-0.2164,0.1757,-0.009,-0.0198,0.0288,298,2019-08-07 16:33:29:487
-6.8352,-5.47,3.0828,-0.4272,-0.2164,0.1757,-0.0133,-0.0081,0.0426,303,2019-08-07 16:33:29:492
-6.8352,-5.47,3.0828,-0.4272,-0.2164,0.1757,-0.0133,-0.0081,0.0426,307,2019-08-07 16:33:29:496
-6.8352,-5.47,3.0828,-0.4407,-0.2451,0.175,-0.0058,0.0111,0.048,313,2019-08-07 16:33:29:502
-6.8783,-5.4652,3.1158,-0.4407,-0.2451,0.175,-0.0058,0.0111,0.048,318,2019-08-07 16:33:29:507
-6.8783,-5.4652,3.1158,-0.4407,-0.2451,0.175,-0.0016,0.026,0.0416,323,2019-08-07 16:33:29:512
-6.8783,-5.4652,3.1158,-0.4407,-0.2451,0.175,-0.0016,0.026,0.0416,328,2019-08-07 16:33:29:517
-6.9213,-5.4127,3.1347,-0.3227,-0.2061,0.1892,-0.0079,0.0399,0.0394,333,2019-08-07 16:33:29:522
-6.9213,-5.4127,3.1347,-0.3227,-0.2061,0.1892,-0.0079,0.0399,0.0394,338,2019-08-07 16:33:29:527
-6.9501,-5.4366,3.2054,-0.3227,-0.2061,0.1892,-0.0122,0.0516,0.0384,343,2019-08-07 16:33:29:532
-6.9501,-5.4366,3.2054,-0.3227,-0.2061,0.1892,-0.0122,0.0516,0.0384,347,2019-08-07 16:33:29:536
-6.9501,-5.4366,3.2054,-0.2776,-0.2253,0.1524,-0.0058,0.0601,0.0288,353,2019-08-07 16:33:29:542
-7.0505,-5.4318,3.1394,-0.2776,-0.2253,0.1524,-0.0058,0.0601,0.0288,357,2019-08-07 16:33:29:546
-7.0505,-5.4318,3.1394,-0.2776,-0.2253,0.1524,-0.0069,0.0686,0.0245,363,2019-08-07 16:33:29:552
-7.1653,-5.4366,3.13,-0.2776,-0.2253,0.1524,-0.0069,0.0686,0.0245,368,2019-08-07 16:33:29:557
-7.1653,-5.4366,3.13,-0.1271,-0.2697,0.1887,-0.0069,0.0559,0.0149,372,2019-08-07 16:33:29:561
-7.1749,-5.4031,3.229,-0.1271,-0.2697,0.1887,-0.0069,0.0559,0.0149,378,2019-08-07 16:33:29:567
-7.1749,-5.4031,3.229,-0.1271,-0.2697,0.1887,-0.0154,0.0292,0.0075,383,2019-08-07 16:33:29:572
-7.1749,-5.4031,3.229,-0.1271,-0.2697,0.1887,-0.0154,0.0292,0.0075,387,2019-08-07 16:33:29:576
-7.1749,-5.4031,3.229,-0.1271,-0.2697,0.1887,-0.0154,0.0292,0.0075,393,2019-08-07 16:33:29:582
-7.1749,-5.4031,3.229,-0.1271,-0.2697,0.1887,-0.0154,0.0292,0.0075,398,2019-08-07 16:33:29:587
-7.0457,-5.4366,3.0687,-0.2746,-0.2115,0.2098,-0.0175,0.0239,0.0107,402,2019-08-07 16:33:29:591
-7.0457,-5.4366,3.0687,-0.2746,-0.2115,0.2098,-0.0175,0.0239,0.0107,409,2019-08-07 16:33:29:598
-6.9405,-5.4604,3.0263,-0.3825,-0.1879,0.2458,-0.0079,0.0378,0.0054,412,2019-08-07 16:33:29:601
-6.9405,-5.4604,3.0263,-0.3825,-0.1879,0.2458,-0.0079,0.0378,0.0054,418,2019-08-07 16:33:29:607
-6.9405,-5.4604,3.0263,-0.3825,-0.1879,0.2458,-0.0016,0.0441,0.0085,422,2019-08-07 16:33:29:611
-6.9214,-5.4509,3.0404,-0.3825,-0.1879,0.2458,-0.0016,0.0441,0.0085,428,2019-08-07 16:33:29:617
-6.9214,-5.4509,3.0404,-0.3573,-0.2256,0.1396,0.0038,0.0591,0.0139,432,2019-08-07 16:33:29:621
-6.9214,-5.4509,3.0404,-0.3573,-0.2256,0.1396,0.0038,0.0591,0.0139,438,2019-08-07 16:33:29:627
-7.0266,-5.4509,3.1205,-0.3573,-0.2256,0.1396,0.0038,0.0591,0.0139,443,2019-08-07 16:33:29:632
-7.0266,-5.4509,3.1205,-0.2499,-0.2149,0.1216,0.0123,0.0484,0.0139,448,2019-08-07 16:33:29:637
-7.1414,-5.4413,3.1488,-0.2499,-0.2149,0.1216,0.0123,0.0484,0.0139,453,2019-08-07 16:33:29:642
-7.1414,-5.4413,3.1488,-0.2499,-0.2149,0.1216,0.0166,0.0133,0.016,457,2019-08-07 16:33:29:646
-7.1414,-5.4413,3.1488,-0.2295,-0.1923,0.1811,0.0166,0.0133,0.016,463,2019-08-07 16:33:29:652
-7.0553,-5.427,3.1252,-0.2295,-0.1923,0.1811,0.0198,-0.0112,0.0149,467,2019-08-07 16:33:29:656
-7.0553,-5.427,3.1252,-0.2295,-0.1923,0.1811,0.0198,-0.0112,0.0149,473,2019-08-07 16:33:29:662
-7.0314,-5.3315,3.1582,-0.2295,-0.1923,0.1811,0.0208,-0.0144,0.0149,478,2019-08-07 16:33:29:667
-7.0314,-5.3315,3.1582,-0.2926,-0.3268,0.1339,0.0208,-0.0144,0.0149,483,2019-08-07 16:33:29:672
-7.0314,-5.3315,3.1582,-0.2926,-0.3268,0.1339,0.0208,-0.0144,0.0149,487,2019-08-07 16:33:29:676
-7.0601,-5.3363,3.0828,-0.2926,-0.3268,0.1339,0.0283,-0.0049,0.0117,493,2019-08-07 16:33:29:682
-7.0601,-5.3363,3.0828,-0.2926,-0.3268,0.1339,0.0251,-0.0049,0.0064,498,2019-08-07 16:33:29:687
-7.0601,-5.3363,3.0828,-0.2926,-0.3268,0.1339,0.0251,-0.0049,0.0064,503,2019-08-07 16:33:29:692
-7.1175,-5.2981,3.0027,-0.2173,-0.3379,0.2642,0.0251,-0.0049,0.0064,507,2019-08-07 16:33:29:696
-7.1175,-5.2981,3.0027,-0.2173,-0.3379,0.2642,0.024,-0.0091,0.0064,513,2019-08-07 16:33:29:702
-6.9884,-5.3268,3.0875,-0.2173,-0.3379,0.2642,0.024,-0.0091,0.0064,518,2019-08-07 16:33:29:707
-6.9884,-5.3268,3.0875,-0.2173,-0.3379,0.2642,0.0336,-0.0059,0.0011,523,2019-08-07 16:33:29:712
-6.9453,-5.3029,3.0215,-0.3325,-0.2969,0.2446,0.0336,-0.0059,0.0011,528,2019-08-07 16:33:29:717
-6.9453,-5.3029,3.0215,-0.3325,-0.2969,0.2446,0.0293,0.0015,0.0032,532,2019-08-07 16:33:29:721
-6.9453,-5.3029,3.0215,-0.3325,-0.2969,0.2446,0.0293,0.0015,0.0032,538,2019-08-07 16:33:29:727
-6.9453,-5.3029,3.0215,-0.3325,-0.2969,0.2446,0.0293,0.0015,0.0032,543,2019-08-07 16:33:29:732
-6.8975,-5.322,3.0593,-0.4674,-0.2988,0.1767,0.0261,0.0101,0.0107,547,2019-08-07 16:33:29:736
-6.8975,-5.322,3.0593,-0.4674,-0.2988,0.1767,0.0261,0.0101,0.0107,553,2019-08-07 16:33:29:742
-6.8879,-5.3458,2.9885,-0.4674,-0.2988,0.1767,0.0315,0.025,0.0224,557,2019-08-07 16:33:29:746
-6.8879,-5.3458,2.9885,-0.4674,-0.2988,0.1767,0.0315,0.025,0.0224,563,2019-08-07 16:33:29:752
-6.8879,-5.3458,2.9885,-0.3708,-0.2412,0.1909,0.0453,0.0399,0.0267,567,2019-08-07 16:33:29:756
-7.0362,-5.4079,3.1394,-0.3708,-0.2412,0.1909,0.0453,0.0399,0.0267,573,2019-08-07 16:33:29:762
-7.0362,-5.4079,3.1394,-0.3708,-0.2412,0.1909,0.0443,0.026,0.0341,578,2019-08-07 16:33:29:767
-7.0554,-5.3793,3.2337,-0.3708,-0.2412,0.1909,0.0443,0.026,0.0341,582,2019-08-07 16:33:29:771
-7.0554,-5.3793,3.2337,-0.3093,-0.2571,0.0273,0.04,0.0037,0.0373,588,2019-08-07 16:33:29:777
-7.0554,-5.3793,3.2337,-0.3093,-0.2571,0.0273,0.04,0.0037,0.0373,593,2019-08-07 16:33:29:782
-6.9836,-5.3602,3.163,-0.3093,-0.2571,0.0273,0.04,-0.007,0.0362,598,2019-08-07 16:33:29:787
-6.9836,-5.3602,3.163,-0.3093,-0.2571,0.0273,0.04,-0.007,0.0362,603,2019-08-07 16:33:29:792
-6.9979,-5.3506,3.1441,-0.3324,-0.2871,0.1124,0.0421,0.0111,0.033,607,2019-08-07 16:33:29:796
-6.9979,-5.3506,3.1441,-0.3324,-0.2871,0.1124,0.0421,0.0111,0.033,613,2019-08-07 16:33:29:802
-6.9979,-5.3506,3.1441,-0.3324,-0.2871,0.1124,0.0443,0.0324,0.032,617,2019-08-07 16:33:29:806
-7.1415,-5.3077,3.1677,-0.3324,-0.2871,0.1124,0.0443,0.0324,0.032,623,2019-08-07 16:33:29:812
-7.1415,-5.3077,3.1677,-0.3324,-0.2871,0.1124,0.0443,0.0324,0.032,627,2019-08-07 16:33:29:816
-7.1654,-5.2886,3.1724,-0.1803,-0.351,0.1881,0.0368,0.042,0.0192,633,2019-08-07 16:33:29:822
-7.1654,-5.2886,3.1724,-0.1803,-0.351,0.1881,0.0368,0.042,0.0192,638,2019-08-07 16:33:29:827
-7.1654,-5.2886,3.1724,-0.1803,-0.351,0.1881,0.0251,0.0367,0.0128,642,2019-08-07 16:33:29:831
-7.1606,-5.2981,3.163,-0.1997,-0.298,0.1151,0.0251,0.0367,0.0128,648,2019-08-07 16:33:29:837
-7.1606,-5.2981,3.163,-0.1997,-0.298,0.1151,0.0198,0.042,0.0043,652,2019-08-07 16:33:29:841
-7.1606,-5.2981,3.163,-0.1997,-0.298,0.1151,0.0198,0.042,0.0043,658,2019-08-07 16:33:29:847
-7.2037,-5.3077,3.2054,-0.1997,-0.298,0.1151,0.0155,0.0367,0.0011,663,2019-08-07 16:33:29:852
-7.2037,-5.3077,3.2054,-0.2175,-0.2572,0.0505,0.0155,0.0367,0.0011,667,2019-08-07 16:33:29:856
-7.0602,-5.3363,3.1629,-0.2175,-0.2572,0.0505,0.0155,0.0143,0.0022,673,2019-08-07 16:33:29:862
-7.0602,-5.3363,3.1629,-0.2175,-0.2572,0.0505,0.0155,0.0143,0.0022,677,2019-08-07 16:33:29:866
-7.0602,-5.3363,3.1629,-0.2175,-0.2572,0.0505,0.0102,0.0058,0.0022,683,2019-08-07 16:33:29:872
-7.0267,-5.3888,3.1771,-0.3381,-0.2034,0.0976,0.0102,0.0058,0.0022,687,2019-08-07 16:33:29:876
-7.0267,-5.3888,3.1771,-0.3381,-0.2034,0.0976,0.0123,0.0037,0.0085,693,2019-08-07 16:33:29:882
-7.0267,-5.3888,3.1771,-0.3381,-0.2034,0.0976,0.0123,0.0037,0.0085,697,2019-08-07 16:33:29:886
-6.9645,-5.384,3.2525,-0.3381,-0.2034,0.0976,0.0229,0.0069,0.016,703,2019-08-07 16:33:29:892
-6.9645,-5.384,3.2525,-0.4109,-0.2678,0.1089,0.0229,0.0069,0.016,708,2019-08-07 16:33:29:897
-6.9453,-5.3315,3.1488,-0.4109,-0.2678,0.1089,0.0229,0.0047,0.0224,713,2019-08-07 16:33:29:902
-6.9453,-5.3315,3.1488,-0.4109,-0.2678,0.1089,0.0229,0.0047,0.0224,718,2019-08-07 16:33:29:907
-6.9453,-5.3315,3.1488,-0.4109,-0.2678,0.1089,0.0187,0.0154,0.033,723,2019-08-07 16:33:29:912
-6.9693,-5.2647,3.1347,-0.3666,-0.3293,0.1759,0.0187,0.0154,0.033,728,2019-08-07 16:33:29:917
-6.9693,-5.2647,3.1347,-0.3666,-0.3293,0.1759,0.0166,0.0228,0.0299,733,2019-08-07 16:33:29:922
-7.0123,-5.2265,3.1111,-0.3666,-0.3293,0.1759,0.0166,0.0228,0.0299,738,2019-08-07 16:33:29:927
-7.0123,-5.2265,3.1111,-0.3666,-0.3293,0.1759,0.0166,0.0228,0.0299,743,2019-08-07 16:33:29:932
-7.0123,-5.2265,3.1111,-0.3244,-0.3467,0.0613,0.0198,0.0324,0.0341,747,2019-08-07 16:33:29:936
-7.041,-5.2408,3.1205,-0.3244,-0.3467,0.0613,0.0198,0.0324,0.0341,753,2019-08-07 16:33:29:942
-7.041,-5.2408,3.1205,-0.3244,-0.3467,0.0613,0.0208,0.0367,0.0309,757,2019-08-07 16:33:29:946
-7.1559,-5.2408,3.0687,-0.3244,-0.3467,0.0613,0.0208,0.0367,0.0309,763,2019-08-07 16:33:29:952
-7.1559,-5.2408,3.0687,-0.1969,-0.3209,0.1003,0.0187,0.0388,0.0245,768,2019-08-07 16:33:29:957
-7.1559,-5.2408,3.0687,-0.1969,-0.3209,0.1003,0.0187,0.0388,0.0245,772,2019-08-07 16:33:29:961
-7.1511,-5.2838,3.1629,-0.1969,-0.3209,0.1003,0.0251,0.0164,0.032,778,2019-08-07 16:33:29:967
-7.1511,-5.2838,3.1629,-0.1969,-0.3209,0.1003,0.0251,0.0164,0.032,783,2019-08-07 16:33:29:972
-7.1511,-5.2838,3.1629,-0.2305,-0.2946,0.0546,0.0304,-0.0091,0.0352,787,2019-08-07 16:33:29:976
-7.1319,-5.2265,3.2242,-0.2305,-0.2946,0.0546,0.0304,-0.0091,0.0352,793,2019-08-07 16:33:29:982
-7.1319,-5.2265,3.2242,-0.2305,-0.2946,0.0546,0.0304,-0.0187,0.0405,797,2019-08-07 16:33:29:986
-7.0267,-5.2695,3.2431,-0.2305,-0.2946,0.0546,0.0304,-0.0187,0.0405,803,2019-08-07 16:33:29:992
-7.0267,-5.2695,3.2431,-0.296,-0.3004,0.0708,0.0293,-0.024,0.0394,809,2019-08-07 16:33:29:998
-7.0267,-5.2695,3.2431,-0.296,-0.3004,0.0708,0.0293,-0.024,0.0394,812,2019-08-07 16:33:30:001
-7.0841,-5.279,3.2195,-0.296,-0.3004,0.0708,0.0293,-0.0347,0.0405,818,2019-08-07 16:33:30:007
-7.0841,-5.279,3.2195,-0.296,-0.3004,0.0708,0.0293,-0.0347,0.0405,822,2019-08-07 16:33:30:011
-7.0219,-5.279,3.1629,-0.296,-0.3004,0.0708,0.0261,-0.0336,0.0426,828,2019-08-07 16:33:30:017
-7.0219,-5.279,3.1629,-0.332,-0.2253,0.1168,0.0261,-0.0336,0.0426,832,2019-08-07 16:33:30:021
-7.0219,-5.279,3.1629,-0.332,-0.2253,0.1168,0.0208,-0.0315,0.0362,838,2019-08-07 16:33:30:027
-7.0793,-5.2933,3.1394,-0.332,-0.2253,0.1168,0.0208,-0.0315,0.0362,843,2019-08-07 16:33:30:032
-7.0793,-5.2933,3.1394,-0.3104,-0.3375,0.1096,0.0134,-0.0176,0.0299,848,2019-08-07 16:33:30:037
-7.0793,-5.2933,3.1394,-0.3104,-0.3375,0.1096,0.0134,-0.0176,0.0299,852,2019-08-07 16:33:30:041
-7.0745,-5.236,3.1299,-0.3104,-0.3375,0.1096,0.0134,-0.0176,0.0299,858,2019-08-07 16:33:30:047
-7.0745,-5.236,3.1299,-0.3022,-0.3253,0.1629,6.0E-4,5.0E-4,0.0288,862,2019-08-07 16:33:30:051
-7.0219,-5.2456,3.1299,-0.3022,-0.3253,0.1629,6.0E-4,5.0E-4,0.0288,868,2019-08-07 16:33:30:057
-7.0219,-5.2456,3.1299,-0.3022,-0.3253,0.1629,-0.009,0.0335,0.0192,872,2019-08-07 16:33:30:061
-7.0219,-5.2456,3.1299,-0.3022,-0.3253,0.1629,-0.009,0.0335,0.0192,878,2019-08-07 16:33:30:067
-7.1655,-5.2504,3.1299,-0.2348,-0.2839,0.1631,-0.0133,0.0505,0.0085,883,2019-08-07 16:33:30:072
-7.1655,-5.2504,3.1299,-0.2348,-0.2839,0.1631,-0.0133,0.0505,0.0085,888,2019-08-07 16:33:30:077
-7.1655,-5.2504,3.1299,-0.2348,-0.2839,0.1631,-0.0133,0.0505,0.0085,893,2019-08-07 16:33:30:082
-7.2324,-5.2742,3.2195,-0.2348,-0.2839,0.1631,-0.0111,0.0452,0.0054,897,2019-08-07 16:33:30:086
-7.2324,-5.2742,3.2195,-0.1246,-0.2685,0.112,-0.0111,0.0452,0.0054,903,2019-08-07 16:33:30:092
-7.2468,-5.3124,3.2336,-0.1246,-0.2685,0.112,-0.0111,0.0186,0.0043,907,2019-08-07 16:33:30:096
-7.2468,-5.3124,3.2336,-0.1548,-0.2252,0.0812,-0.0111,0.0186,0.0043,913,2019-08-07 16:33:30:102
-7.2468,-5.3124,3.2336,-0.1548,-0.2252,0.0812,-0.0069,-0.0134,0.0075,917,2019-08-07 16:33:30:106
-7.1942,-5.2838,3.2431,-0.1548,-0.2252,0.0812,-0.0069,-0.0134,0.0075,923,2019-08-07 16:33:30:112
-7.1942,-5.2838,3.2431,-0.1548,-0.2252,0.0812,-0.0058,-0.0453,0.0149,928,2019-08-07 16:33:30:117
-7.0937,-5.3602,3.2054,-0.2696,-0.2047,0.1022,-0.0058,-0.0453,0.0149,933,2019-08-07 16:33:30:122
-7.0937,-5.3602,3.2054,-0.2696,-0.2047,0.1022,0.0027,-0.0507,0.016,938,2019-08-07 16:33:30:127
-7.0937,-5.3602,3.2054,-0.2696,-0.2047,0.1022,0.0027,-0.0507,0.016,942,2019-08-07 16:33:30:131
-7.0411,-5.3363,3.1629,-0.2696,-0.2047,0.1022,0.0048,-0.056,0.0203,948,2019-08-07 16:33:30:137
-7.0411,-5.3363,3.1629,-0.3922,-0.2214,0.1574,0.0048,-0.056,0.0203,952,2019-08-07 16:33:30:141
-6.9741,-5.3029,3.1205,-0.3922,-0.2214,0.1574,0.0144,-0.0421,0.0224,958,2019-08-07 16:33:30:147
-6.9741,-5.3029,3.1205,-0.3922,-0.2214,0.1574,0.0144,-0.0421,0.0224,962,2019-08-07 16:33:30:151
-6.9741,-5.3029,3.1205,-0.3922,-0.2214,0.1574,0.0144,-0.0219,0.0203,968,2019-08-07 16:33:30:157
-7.0124,-5.2217,3.1064,-0.3919,-0.3034,0.1931,0.0144,-0.0219,0.0203,972,2019-08-07 16:33:30:161
-7.0124,-5.2217,3.1064,-0.3919,-0.3034,0.1931,0.0144,-0.0049,0.0224,978,2019-08-07 16:33:30:167
-7.0363,-5.2074,3.1158,-0.3919,-0.3034,0.1931,0.0144,-0.0049,0.0224,983,2019-08-07 16:33:30:172
-7.0363,-5.2074,3.1158,-0.3919,-0.3034,0.1931,0.0027,0.0175,0.0128,988,2019-08-07 16:33:30:177
-7.0363,-5.2074,3.1158,-0.3462,-0.2999,0.1751,0.0027,0.0175,0.0128,992,2019-08-07 16:33:30:181
-7.0746,-5.236,3.1771,-0.3462,-0.2999,0.1751,-0.0016,0.0367,0.0128,998,2019-08-07 16:33:30:187
-7.0746,-5.236,3.1771,-0.3462,-0.2999,0.1751,-0.0016,0.0367,0.0128,1003,2019-08-07 16:33:30:192
-7.0746,-5.236,3.1771,-0.3462,-0.2999,0.1751,-0.0016,0.0367,0.0128,1008,2019-08-07 16:33:30:197
-7.0937,-5.2408,3.2289,-0.2734,-0.241,0.0752,0.0027,0.0484,0.0064,1012,2019-08-07 16:33:30:201
-7.0937,-5.2408,3.2289,-0.2734,-0.241,0.0752,0.0027,0.0484,0.0064,1018,2019-08-07 16:33:30:207
-7.0937,-5.2408,3.2289,-0.2734,-0.241,0.0752,0.0027,0.0484,0.0064,1022,2019-08-07 16:33:30:211
-7.1463,-5.1835,3.2195,-0.2734,-0.241,0.0752,-5.0E-4,0.0228,0.0011,1028,2019-08-07 16:33:30:217
-7.1463,-5.1835,3.2195,-0.2857,-0.3353,0.1558,-5.0E-4,0.0228,0.0011,1032,2019-08-07 16:33:30:221
-7.065,-5.1597,3.1959,-0.2857,-0.3353,0.1558,-0.0047,-0.0059,0.0054,1038,2019-08-07 16:33:30:227
-7.065,-5.1597,3.1959,-0.2857,-0.3353,0.1558,-0.0047,-0.0059,0.0054,1042,2019-08-07 16:33:30:231
-7.065,-5.1597,3.1959,-0.2857,-0.3353,0.1558,-0.0037,-0.0198,0.0107,1048,2019-08-07 16:33:30:237
-7.0267,-5.2408,3.1912,-0.4007,-0.2858,0.1207,-0.0037,-0.0198,0.0107,1053,2019-08-07 16:33:30:242
-7.0267,-5.2408,3.1912,-0.4007,-0.2858,0.1207,-0.0058,-0.0304,0.0256,1057,2019-08-07 16:33:30:246
-6.9454,-5.2313,3.1394,-0.4007,-0.2858,0.1207,-0.0058,-0.0304,0.0256,1063,2019-08-07 16:33:30:252
-6.9454,-5.2313,3.1394,-0.4007,-0.2858,0.1207,-5.0E-4,-0.0262,0.0373,1067,2019-08-07 16:33:30:256
-6.9454,-5.2313,3.1394,-0.4831,-0.3056,0.1957,-5.0E-4,-0.0262,0.0373,1073,2019-08-07 16:33:30:262
-6.9454,-5.2838,3.0215,-0.4831,-0.3056,0.1957,0.0038,-0.0144,0.0458,1078,2019-08-07 16:33:30:267
-6.9454,-5.2838,3.0215,-0.4831,-0.3056,0.1957,0.0038,-0.0144,0.0458,1082,2019-08-07 16:33:30:271
-6.9646,-5.2504,3.0027,-0.4831,-0.3056,0.1957,0.0038,-0.0144,0.0458,1088,2019-08-07 16:33:30:277
-6.9646,-5.2504,3.0027,-0.4831,-0.3056,0.1957,0.0048,0.0207,0.0448,1093,2019-08-07 16:33:30:282
-6.9646,-5.2504,3.0027,-0.4115,-0.2895,0.224,0.0048,0.0207,0.0448,1097,2019-08-07 16:33:30:286
-7.0507,-5.2122,3.0404,-0.4115,-0.2895,0.224,0.0016,0.0484,0.0437,1103,2019-08-07 16:33:30:292
-7.0507,-5.2122,3.0404,-0.4115,-0.2895,0.224,0.0016,0.0484,0.0437,1108,2019-08-07 16:33:30:297
-7.089,-5.1979,3.0875,-0.4115,-0.2895,0.224,6.0E-4,0.0676,0.0405,1112,2019-08-07 16:33:30:301
-7.089,-5.1979,3.0875,-0.3435,-0.2826,0.2209,6.0E-4,0.0676,0.0405,1118,2019-08-07 16:33:30:307
-7.089,-5.1979,3.0875,-0.3435,-0.2826,0.2209,-5.0E-4,0.0868,0.0256,1123,2019-08-07 16:33:30:312
-7.2468,-5.2265,3.1535,-0.3435,-0.2826,0.2209,-5.0E-4,0.0868,0.0256,1128,2019-08-07 16:33:30:317
-7.2468,-5.2265,3.1535,-0.1278,-0.2919,0.1285,-0.0016,0.0686,0.0245,1133,2019-08-07 16:33:30:322
-7.2468,-5.2265,3.1535,-0.1278,-0.2919,0.1285,-0.0016,0.0686,0.0245,1137,2019-08-07 16:33:30:326
-7.2851,-5.2217,3.1346,-0.1278,-0.2919,0.1285,-0.0016,0.0686,0.0245,1143,2019-08-07 16:33:30:332
-7.2851,-5.2217,3.1346,-0.1278,-0.2919,0.1285,6.0E-4,0.0431,0.0235,1148,2019-08-07 16:33:30:337
-7.2851,-5.2981,3.1158,-0.1278,-0.2919,0.1285,6.0E-4,0.0431,0.0235,1152,2019-08-07 16:33:30:341
-7.2421,-5.2981,3.1158,-0.2009,-0.1923,0.1544,0.007,0.0111,0.0213,1158,2019-08-07 16:33:30:347
-7.2421,-5.2981,3.1158,-0.2009,-0.1923,0.1544,0.007,0.0111,0.0213,1162,2019-08-07 16:33:30:351
-7.2086,-5.3029,3.0969,-0.2009,-0.1923,0.1544,0.0134,-0.0017,0.0267,1168,2019-08-07 16:33:30:357
-7.2086,-5.3029,3.0969,-0.2009,-0.1923,0.1544,0.0134,-0.0017,0.0267,1172,2019-08-07 16:33:30:361
-7.0985,-5.2886,3.1346,-0.3378,-0.1833,0.1359,0.0208,-0.0091,0.0299,1178,2019-08-07 16:33:30:367
-7.0985,-5.2886,3.1346,-0.3378,-0.1833,0.1359,0.0208,-0.0091,0.0299,1183,2019-08-07 16:33:30:372
-7.0985,-5.2886,3.1346,-0.3378,-0.1833,0.1359,0.0208,-0.0091,0.0299,1187,2019-08-07 16:33:30:376
-7.089,-5.2742,3.0969,-0.3378,-0.1833,0.1359,0.0251,-0.0091,0.0245,1193,2019-08-07 16:33:30:382
-7.089,-5.2742,3.0969,-0.3828,-0.2116,0.2341,0.0251,-0.0091,0.0245,1198,2019-08-07 16:33:30:387
-7.089,-5.2742,3.0969,-0.3828,-0.2116,0.2341,0.024,0.0069,0.0267,1202,2019-08-07 16:33:30:391
-7.0268,-5.2838,3.1676,-0.3828,-0.2116,0.2341,0.024,0.0069,0.0267,1208,2019-08-07 16:33:30:397
-7.0268,-5.2838,3.1676,-0.3828,-0.2116,0.2341,0.0272,0.0292,0.0213,1212,2019-08-07 16:33:30:401
-7.0411,-5.2313,3.1346,-0.3815,-0.2307,0.1732,0.0272,0.0292,0.0213,1218,2019-08-07 16:33:30:407
-7.0411,-5.2313,3.1346,-0.3815,-0.2307,0.1732,0.024,0.0527,0.0139,1222,2019-08-07 16:33:30:411
-7.0411,-5.2313,3.1346,-0.3815,-0.2307,0.1732,0.024,0.0527,0.0139,1228,2019-08-07 16:33:30:417
-7.1238,-5.2455,3.0872,-0.3815,-0.2307,0.1732,0.0198,0.0612,0.0149,1232,2019-08-07 16:33:30:421
-7.1238,-5.2455,3.0872,-0.3231,-0.2509,0.1067,0.0198,0.0612,0.0149,1238,2019-08-07 16:33:30:427
-7.1238,-5.2455,3.0872,-0.3231,-0.2509,0.1067,0.0198,0.0612,0.0149,1243,2019-08-07 16:33:30:432
-7.1812,-5.2598,3.1674,-0.3231,-0.2509,0.1067,0.0198,0.0601,0.0075,1248,2019-08-07 16:33:30:437
-7.1812,-5.2598,3.1674,-0.3231,-0.2509,0.1067,0.0198,0.0601,0.0075,1253,2019-08-07 16:33:30:442
-7.2195,-5.2168,3.2381,-0.2756,-0.2383,0.0011,0.0187,0.0516,0.0096,1257,2019-08-07 16:33:30:446
-7.2195,-5.2168,3.2381,-0.2756,-0.2383,0.0011,0.0187,0.0516,0.0096,1263,2019-08-07 16:33:30:452
-7.2195,-5.2168,3.2381,-0.2756,-0.2383,0.0011,0.0187,0.0282,0.0139,1268,2019-08-07 16:33:30:457
-7.2387,-5.1977,3.2475,-0.2756,-0.2383,0.0011,0.0187,0.0282,0.0139,1273,2019-08-07 16:33:30:462
-7.2387,-5.1977,3.2475,-0.2886,-0.2824,0.004,0.0144,0.0058,0.0181,1277,2019-08-07 16:33:30:466
-7.2243,-5.2168,3.2616,-0.2886,-0.2824,0.004,0.0144,0.0058,0.0181,1283,2019-08-07 16:33:30:472
-7.2243,-5.2168,3.2616,-0.2886,-0.2824,0.004,0.0155,-0.0219,0.0192,1287,2019-08-07 16:33:30:476
-7.2243,-5.2168,3.2616,-0.2886,-0.2824,0.004,0.0155,-0.0219,0.0192,1293,2019-08-07 16:33:30:482
-7.1191,-5.2359,3.238,-0.3471,-0.2256,0.0275,0.0187,-0.0304,0.0245,1297,2019-08-07 16:33:30:486
-7.1191,-5.2359,3.238,-0.3471,-0.2256,0.0275,0.0187,-0.0304,0.0245,1303,2019-08-07 16:33:30:492
-7.1191,-5.2359,3.238,-0.3471,-0.2256,0.0275,0.0176,-0.0262,0.0235,1307,2019-08-07 16:33:30:496
-7.0139,-5.255,3.0872,-0.3471,-0.2256,0.0275,0.0176,-0.0262,0.0235,1313,2019-08-07 16:33:30:502
-7.0139,-5.255,3.0872,-0.4386,-0.1828,0.1847,0.0176,5.0E-4,0.0224,1318,2019-08-07 16:33:30:507
-7.0187,-5.2311,3.0872,-0.4386,-0.1828,0.1847,0.0176,5.0E-4,0.0224,1322,2019-08-07 16:33:30:511
-7.0187,-5.2311,3.0872,-0.4253,-0.2048,0.2372,0.0208,0.0292,0.0181,1328,2019-08-07 16:33:30:517
-7.0187,-5.2311,3.0872,-0.4253,-0.2048,0.2372,0.0208,0.0292,0.0181,1333,2019-08-07 16:33:30:522
-7.1287,-5.1786,3.0825,-0.4253,-0.2048,0.2372,0.0176,0.0612,0.0181,1337,2019-08-07 16:33:30:526
-7.1287,-5.1786,3.0825,-0.4253,-0.2048,0.2372,0.0176,0.0612,0.0181,1343,2019-08-07 16:33:30:532
-7.1287,-5.1786,3.0825,-0.2967,-0.2582,0.1701,0.0176,0.0612,0.0181,1348,2019-08-07 16:33:30:537
-7.191,-5.1786,3.1438,-0.2967,-0.2582,0.1701,0.0123,0.0697,0.0139,1352,2019-08-07 16:33:30:541
-7.191,-5.1786,3.1438,-0.2967,-0.2582,0.1701,0.0123,0.0697,0.0139,1358,2019-08-07 16:33:30:547
-7.191,-5.1786,3.1438,-0.2967,-0.2582,0.1701,0.0134,0.0505,0.0139,1362,2019-08-07 16:33:30:551
-7.301,-5.1404,3.1108,-0.1686,-0.2734,0.0688,0.0134,0.0505,0.0139,1368,2019-08-07 16:33:30:557
-7.301,-5.1404,3.1108,-0.1686,-0.2734,0.0688,0.0112,0.0101,0.0181,1372,2019-08-07 16:33:30:561
-7.301,-5.1404,3.1108,-0.1686,-0.2734,0.0688,0.0112,0.0101,0.0181,1378,2019-08-07 16:33:30:567
-7.2962,-5.2216,3.2192,-0.1846,-0.2235,0.0402,0.0123,-0.0262,0.0213,1383,2019-08-07 16:33:30:572
-7.2962,-5.2216,3.2192,-0.1846,-0.2235,0.0402,0.0123,-0.0262,0.0213,1388,2019-08-07 16:33:30:577
-7.1958,-5.1881,3.1909,-0.1846,-0.2235,0.0402,0.0123,-0.0262,0.0213,1393,2019-08-07 16:33:30:582
-7.1958,-5.1881,3.1909,-0.3524,-0.2617,0.0567,0.0134,-0.0571,0.0298,1397,2019-08-07 16:33:30:586
-7.1958,-5.1881,3.1909,-0.3524,-0.2617,0.0567,0.0134,-0.0571,0.0298,1402,2019-08-07 16:33:30:591
-7.1097,-5.1595,3.1767,-0.3524,-0.2617,0.0567,0.0112,-0.0549,0.033,1408,2019-08-07 16:33:30:597
-7.1097,-5.1595,3.1767,-0.3524,-0.2617,0.0567,0.0112,-0.0549,0.033,1413,2019-08-07 16:33:30:602
-7.0619,-5.1261,3.073,-0.4197,-0.308,0.2032,0.0123,-0.0315,0.0394,1417,2019-08-07 16:33:30:606
-7.0619,-5.1261,3.073,-0.4197,-0.308,0.2032,0.0123,-0.0315,0.0394,1423,2019-08-07 16:33:30:612
-7.0619,-5.1261,3.073,-0.4197,-0.308,0.2032,0.0155,-6.0E-4,0.0384,1427,2019-08-07 16:33:30:616
-6.9997,-5.1929,3.0165,-0.4197,-0.308,0.2032,0.0155,-6.0E-4,0.0384,1432,2019-08-07 16:33:30:621
-6.9997,-5.1929,3.0165,-0.3613,-0.254,0.2048,0.0155,-6.0E-4,0.0384,1438,2019-08-07 16:33:30:627
-6.9997,-5.1929,3.0165,-0.3613,-0.254,0.2048,0.0144,0.0473,0.032,1442,2019-08-07 16:33:30:631
-7.1098,-5.1881,3.0212,-0.3613,-0.254,0.2048,0.0144,0.0473,0.032,1448,2019-08-07 16:33:30:637
-7.1098,-5.1881,3.0212,-0.3613,-0.254,0.2048,0.0166,0.0708,0.0288,1452,2019-08-07 16:33:30:641
-7.282,-5.1786,3.1531,-0.2111,-0.2434,0.1167,0.0166,0.0708,0.0288,1458,2019-08-07 16:33:30:647
-7.282,-5.1786,3.1531,-0.2111,-0.2434,0.1167,0.0198,0.0772,0.0277,1463,2019-08-07 16:33:30:652
-7.282,-5.1786,3.1531,-0.2111,-0.2434,0.1167,0.0198,0.0772,0.0277,1468,2019-08-07 16:33:30:657
-7.4256,-5.169,3.2238,-0.2111,-0.2434,0.1167,0.0208,0.041,0.0245,1473,2019-08-07 16:33:30:662
-7.4256,-5.169,3.2238,-0.2111,-0.2434,0.1167,0.0208,0.041,0.0245,1478,2019-08-07 16:33:30:667
-7.4686,-5.1547,3.2144,-0.0702,-0.2658,-0.0221,0.0208,0.041,0.0245,1483,2019-08-07 16:33:30:672
-7.4686,-5.1547,3.2144,-0.0702,-0.2658,-0.0221,0.0176,0.0079,0.0277,1488,2019-08-07 16:33:30:677
-7.4686,-5.1547,3.2144,-0.0702,-0.2658,-0.0221,0.0176,0.0079,0.0277,1493,2019-08-07 16:33:30:682
-7.373,-5.1547,3.2003,-0.1979,-0.2639,0.0616,0.0134,-0.04,0.033,1497,2019-08-07 16:33:30:686
-7.373,-5.1547,3.2003,-0.1979,-0.2639,0.0616,0.0134,-0.04,0.033,1502,2019-08-07 16:33:30:691
-7.1625,-5.1929,3.139,-0.1979,-0.2639,0.0616,0.0102,-0.0762,0.0352,1508,2019-08-07 16:33:30:697
-7.1625,-5.1929,3.139,-0.1979,-0.2639,0.0616,0.0102,-0.0762,0.0352,1512,2019-08-07 16:33:30:701
-7.1625,-5.1929,3.139,-0.4072,-0.1623,0.1167,0.0187,-0.072,0.0373,1518,2019-08-07 16:33:30:707
-7.086,-5.2024,3.139,-0.4072,-0.1623,0.1167,0.0187,-0.072,0.0373,1522,2019-08-07 16:33:30:711
-7.086,-5.2024,3.139,-0.4072,-0.1623,0.1167,0.024,-0.056,0.0405,1528,2019-08-07 16:33:30:717
-6.9999,-5.2406,3.1437,-0.4165,-0.135,0.104,0.024,-0.056,0.0405,1532,2019-08-07 16:33:30:721
-6.9999,-5.2406,3.1437,-0.4165,-0.135,0.104,0.0336,-0.0144,0.0437,1538,2019-08-07 16:33:30:727
-6.9999,-5.2406,3.1437,-0.4165,-0.135,0.104,0.0336,-0.0144,0.0437,1542,2019-08-07 16:33:30:731
-7.0621,-5.2168,3.0494,-0.4165,-0.135,0.104,0.0336,-0.0144,0.0437,1548,2019-08-07 16:33:30:737
-7.0621,-5.2168,3.0494,-0.4142,-0.1751,0.238,0.0368,0.0165,0.0426,1552,2019-08-07 16:33:30:741
-7.0621,-5.2168,3.0494,-0.4142,-0.1751,0.238,0.0368,0.0165,0.0426,1558,2019-08-07 16:33:30:747
-7.1817,-5.1738,3.1531,-0.3262,-0.2141,0.139,0.0347,0.0388,0.0373,1563,2019-08-07 16:33:30:752
-7.1817,-5.1738,3.1531,-0.3262,-0.2141,0.139,0.0347,0.0388,0.0373,1568,2019-08-07 16:33:30:757
-7.1817,-5.1738,3.1531,-0.3262,-0.2141,0.139,0.0336,0.0441,0.032,1573,2019-08-07 16:33:30:762
-7.2822,-5.1356,3.1154,-0.3262,-0.2141,0.139,0.0336,0.0441,0.032,1577,2019-08-07 16:33:30:766
-7.2822,-5.1356,3.1154,-0.1847,-0.1922,0.0557,0.0219,0.0463,0.0224,1583,2019-08-07 16:33:30:772
-7.4353,-5.1547,3.2097,-0.1847,-0.1922,0.0557,0.0219,0.0463,0.0224,1587,2019-08-07 16:33:30:776
-7.4353,-5.1547,3.2097,-0.1847,-0.1922,0.0557,0.0219,0.0463,0.0224,1593,2019-08-07 16:33:30:782
-7.4353,-5.1547,3.2097,-0.1847,-0.1922,0.0557,0.0134,0.0175,0.0203,1598,2019-08-07 16:33:30:787
-7.464,-5.1356,3.2474,-0.0556,-0.2393,0.0392,0.0134,0.0175,0.0203,1603,2019-08-07 16:33:30:792
-7.464,-5.1356,3.2474,-0.0556,-0.2393,0.0392,0.0048,-0.0389,0.0171,1607,2019-08-07 16:33:30:796
-7.3875,-5.1117,3.1625,-0.1325,-0.261,0.1267,0.0048,-0.0389,0.0171,1613,2019-08-07 16:33:30:802
-7.3875,-5.1117,3.1625,-0.1325,-0.261,0.1267,-5.0E-4,-0.0677,0.0171,1617,2019-08-07 16:33:30:806
-7.3875,-5.1117,3.1625,-0.1325,-0.261,0.1267,-5.0E-4,-0.0677,0.0171,1623,2019-08-07 16:33:30:812
-7.2488,-5.1308,3.0824,-0.1325,-0.261,0.1267,0.0016,-0.0698,0.0117,1627,2019-08-07 16:33:30:816
-7.2488,-5.1308,3.0824,-0.3263,-0.1868,0.2163,0.0016,-0.0698,0.0117,1633,2019-08-07 16:33:30:822
-7.1292,-5.1595,3.0682,-0.3263,-0.1868,0.2163,0.0038,-0.0507,0.0085,1637,2019-08-07 16:33:30:826
-7.1292,-5.1595,3.0682,-0.3263,-0.1868,0.2163,0.0038,-0.0507,0.0085,1643,2019-08-07 16:33:30:832
-7.1292,-5.1595,3.0682,-0.3263,-0.1868,0.2163,0.0038,-0.024,0.0053,1647,2019-08-07 16:33:30:836
-7.1436,-5.1547,3.0022,-0.3723,-0.2145,0.3021,0.0038,-0.024,0.0053,1653,2019-08-07 16:33:30:842
-7.1436,-5.1547,3.0022,-0.3723,-0.2145,0.3021,0.0038,0.009,-0.0053,1657,2019-08-07 16:33:30:846
-7.1771,-5.1165,3.0682,-0.3723,-0.2145,0.3021,0.0038,0.009,-0.0053,1663,2019-08-07 16:33:30:852
-7.1771,-5.1165,3.0682,-0.3723,-0.2145,0.3021,6.0E-4,0.0207,-0.0064,1668,2019-08-07 16:33:30:857
-7.1771,-5.1165,3.0682,-0.3296,-0.2388,0.2204,6.0E-4,0.0207,-0.0064,1673,2019-08-07 16:33:30:862
-7.1914,-5.1308,3.1436,-0.3296,-0.2388,0.2204,-0.0079,0.0207,-0.0138,1677,2019-08-07 16:33:30:866
-7.1914,-5.1308,3.1436,-0.3296,-0.2388,0.2204,-0.0079,0.0207,-0.0138,1683,2019-08-07 16:33:30:872
-7.1914,-5.1308,3.1436,-0.3296,-0.2388,0.2204,-0.0186,0.0079,-0.0128,1688,2019-08-07 16:33:30:877
-7.2537,-5.126,3.2191,-0.2626,-0.2461,0.0797,-0.0186,0.0079,-0.0128,1692,2019-08-07 16:33:30:881
-7.2537,-5.126,3.2191,-0.2626,-0.2461,0.0797,-0.025,-0.0102,-0.0032,1698,2019-08-07 16:33:30:887
-7.2489,-5.0926,3.2756,-0.2626,-0.2461,0.0797,-0.025,-0.0102,-0.0032,1702,2019-08-07 16:33:30:891
-7.2489,-5.0926,3.2756,-0.2626,-0.2461,0.0797,-0.025,-0.0102,-0.0032,1708,2019-08-07 16:33:30:897
-7.2489,-5.0926,3.2756,-0.2997,-0.315,0.0978,-0.0303,-0.0294,-0.0011,1712,2019-08-07 16:33:30:901
-7.1963,-5.0926,3.1625,-0.2997,-0.315,0.0978,-0.0303,-0.0294,-0.0011,1718,2019-08-07 16:33:30:907
-7.1963,-5.0926,3.1625,-0.2997,-0.315,0.0978,-0.0239,-0.0485,0.0064,1722,2019-08-07 16:33:30:911
-7.1963,-5.0926,3.1625,-0.2997,-0.315,0.0978,-0.0239,-0.0485,0.0064,1728,2019-08-07 16:33:30:917
-7.1389,-5.126,3.0871,-0.3839,-0.2819,0.1958,-0.0154,-0.0464,0.0128,1732,2019-08-07 16:33:30:921
-7.1389,-5.126,3.0871,-0.3839,-0.2819,0.1958,-0.0154,-0.0464,0.0128,1738,2019-08-07 16:33:30:927
-7.115,-5.1308,3.1059,-0.3839,-0.2819,0.1958,-0.0154,-0.0464,0.0128,1743,2019-08-07 16:33:30:932
-7.115,-5.1308,3.1059,-0.3839,-0.2819,0.1958,-5.0E-4,-0.0315,0.0139,1747,2019-08-07 16:33:30:936
-7.115,-5.1308,3.1059,-0.3924,-0.1612,0.276,-5.0E-4,-0.0315,0.0139,1753,2019-08-07 16:33:30:942
-7.0911,-5.1976,3.0918,-0.3924,-0.1612,0.276,0.0198,-0.008,0.0149,1757,2019-08-07 16:33:30:946
-7.0911,-5.1976,3.0918,-0.3924,-0.1612,0.276,0.0198,-0.008,0.0149,1762,2019-08-07 16:33:30:951
-7.1485,-5.317,3.1955,-0.3924,-0.1612,0.276,0.0283,0.0111,0.0224,1768,2019-08-07 16:33:30:957
-7.1485,-5.317,3.1955,-0.3225,-0.0475,0.0468,0.0283,0.0111,0.0224,1772,2019-08-07 16:33:30:961
-7.1485,-5.317,3.1955,-0.3225,-0.0475,0.0468,0.0283,0.0111,0.0224,1778,2019-08-07 16:33:30:967
-7.1916,-5.3981,3.3887,-0.3225,-0.0475,0.0468,0.0517,0.0207,0.0309,1782,2019-08-07 16:33:30:971
-7.1916,-5.3981,3.3887,-0.2286,0.0466,-0.0366,0.0517,0.0207,0.0309,1788,2019-08-07 16:33:30:977
-7.1916,-5.3981,3.3887,-0.2286,0.0466,-0.0366,0.0698,0.0154,0.0384,1792,2019-08-07 16:33:30:981
-7.3495,-5.4888,3.582,-0.2286,0.0466,-0.0366,0.0698,0.0154,0.0384,1798,2019-08-07 16:33:30:987
-7.3495,-5.4888,3.582,-0.084,0.2046,-0.3162,0.0837,-6.0E-4,0.0479,1802,2019-08-07 16:33:30:991
-7.5122,-5.5652,3.8083,-0.084,0.2046,-0.3162,0.0837,-6.0E-4,0.0479,1808,2019-08-07 16:33:30:997
-7.5122,-5.5652,3.8083,-0.084,0.2046,-0.3162,0.0997,-0.008,0.0543,1813,2019-08-07 16:33:31:002
-7.5122,-5.5652,3.8083,0.1439,0.3164,-0.5074,0.0997,-0.008,0.0543,1818,2019-08-07 16:33:31:007
-7.7275,-5.8898,4.0204,0.1439,0.3164,-0.5074,0.138,-0.0432,0.0693,1823,2019-08-07 16:33:31:012
-7.7275,-5.8898,4.0204,0.1439,0.3164,-0.5074,0.138,-0.0432,0.0693,1828,2019-08-07 16:33:31:017
-8.0241,-6.5057,4.652,0.5012,1.1742,-1.3029,0.1827,-0.0869,0.0746,1833,2019-08-07 16:33:31:022
-8.0241,-6.5057,4.652,0.5012,1.1742,-1.3029,0.1827,-0.0869,0.0746,1838,2019-08-07 16:33:31:027
-8.0241,-6.5057,4.652,0.5012,1.1742,-1.3029,0.1827,-0.0869,0.0746,1843,2019-08-07 16:33:31:032
-8.3447,-7.131,5.6136,0.8243,1.8107,-2.2411,0.2552,-0.1529,0.0671,1848,2019-08-07 16:33:31:037
-8.3447,-7.131,5.6136,0.8243,1.8107,-2.2411,0.2552,-0.1529,0.0671,1853,2019-08-07 16:33:31:042
-8.3447,-7.131,5.6136,0.8243,1.8107,-2.2411,0.4075,-0.2946,0.0362,1857,2019-08-07 16:33:31:046
-8.9762,-8.1669,6.8769,1.5627,3.1704,-3.6892,0.4075,-0.2946,0.0362,1863,2019-08-07 16:33:31:052
-8.9762,-8.1669,6.8769,1.5627,3.1704,-3.6892,0.5492,-0.4299,-0.0064,1867,2019-08-07 16:33:31:056
-9.5025,-8.8114,7.914,1.5627,3.1704,-3.6892,0.5492,-0.4299,-0.0064,1873,2019-08-07 16:33:31:062
-9.5025,-8.8114,7.914,1.5627,3.1704,-3.6892,0.6738,-0.6067,-0.0767,1877,2019-08-07 16:33:31:066
-9.5025,-8.8114,7.914,1.5627,3.1704,-3.6892,0.6738,-0.6067,-0.0767,1883,2019-08-07 16:33:31:072
-9.9427,-9.0405,8.5126,2.4966,3.781,-4.8891,0.8049,-0.8006,-0.1502,1887,2019-08-07 16:33:31:076
-9.9427,-9.0405,8.5126,2.4966,3.781,-4.8891,0.8049,-0.8006,-0.1502,1893,2019-08-07 16:33:31:082
-9.9427,-9.0405,8.5126,2.4966,3.781,-4.8891,0.8049,-0.8006,-0.1502,1898,2019-08-07 16:33:31:087
-10.5073,-10.2388,10.4453,2.4966,3.781,-4.8891,1.0126,-1.1063,-0.2695,1902,2019-08-07 16:33:31:091
-10.5073,-10.2388,10.4453,3.3243,5.8005,-7.7695,1.0126,-1.1063,-0.2695,1908,2019-08-07 16:33:31:097
-11.0575,-11.8332,13.1321,3.3243,5.8005,-7.7695,1.3556,-1.4142,-0.4144,1912,2019-08-07 16:33:31:101
-11.0575,-11.8332,13.1321,3.3243,5.8005,-7.7695,1.3556,-1.4142,-0.4144,1918,2019-08-07 16:33:31:107
-11.0575,-11.8332,13.1321,3.3243,5.8005,-7.7695,1.3556,-1.4142,-0.4144,1923,2019-08-07 16:33:31:112
-11.0575,-11.8332,13.1321,5.5272,9.2014,-12.3818,2.129,-2.0278,-0.6423,1927,2019-08-07 16:33:31:116
-13.0238,-14.7882,17.0304,5.5272,9.2014,-12.3818,2.129,-2.0278,-0.6423,1933,2019-08-07 16:33:31:122
-13.0238,-14.7882,17.0304,5.5272,9.2014,-12.3818,2.6701,-2.5689,-0.8,1937,2019-08-07 16:33:31:126
-13.0238,-14.7882,17.0304,5.5272,9.2014,-12.3818,2.6701,-2.5689,-0.8,1943,2019-08-07 16:33:31:132
-15.459,-16.397,21.7065,9.2266,11.4036,-17.7274,3.1495,-3.0717,-0.9289,1947,2019-08-07 16:33:31:136
-15.459,-16.397,21.7065,9.2266,11.4036,-17.7274,3.1495,-3.0717,-0.9289,1953,2019-08-07 16:33:31:142
-15.459,-16.397,21.7065,9.2266,11.4036,-17.7274,3.7503,-4.2872,-1.208,1957,2019-08-07 16:33:31:146
-21.3963,-14.9983,27.4951,9.2266,11.4036,-17.7274,3.7503,-4.2872,-1.208,1963,2019-08-07 16:33:31:152
-21.3963,-14.9983,27.4951,17.3922,9.4601,-22.6971,3.3498,-5.5698,-1.3976,1967,2019-08-07 16:33:31:156
-21.3963,-14.9983,27.4951,17.3922,9.4601,-22.6971,3.3498,-5.5698,-1.3976,1973,2019-08-07 16:33:31:162
-27.9029,-12.7689,28.8479,17.3922,9.4601,-22.6971,3.3498,-5.5698,-1.3976,1977,2019-08-07 16:33:31:166
-27.9029,-12.7689,28.8479,17.3922,9.4601,-22.6971,2.5807,-7.0548,-1.6533,1983,2019-08-07 16:33:31:172
-30.1993,-11.6805,26.3025,25.0317,7.2755,-20.5084,2.5807,-7.0548,-1.6533,1988,2019-08-07 16:33:31:177
-30.1993,-11.6805,26.3025,25.0317,7.2755,-20.5084,1.786,-9.1224,-1.9867,1992,2019-08-07 16:33:31:181
-30.1993,-11.6805,26.3025,25.0317,7.2755,-20.5084,1.786,-9.1224,-1.9867,1998,2019-08-07 16:33:31:187
-25.75,-10.7734,19.7314,25.0317,7.2755,-20.5084,1.378,-10.0258,-2.2317,2003,2019-08-07 16:33:31:192
-25.75,-10.7734,19.7314,20.0212,5.8733,-9.832,1.378,-10.0258,-2.2317,2007,2019-08-07 16:33:31:196
-20.7074,-10.1337,15.9651,20.0212,5.8733,-9.832,0.8773,-10.6042,-2.5204,2013,2019-08-07 16:33:31:202
-20.7074,-10.1337,15.9651,20.0212,5.8733,-9.832,0.8773,-10.6042,-2.5204,2017,2019-08-07 16:33:31:206
-20.7074,-10.1337,15.9651,20.0212,5.8733,-9.832,0.7484,-10.0897,-2.6546,2023,2019-08-07 16:33:31:212
-15.507,-10.1433,13.5469,13.7814,5.5934,-5.0289,0.7484,-10.0897,-2.6546,2027,2019-08-07 16:33:31:216
-15.507,-10.1433,13.5469,13.7814,5.5934,-5.0289,0.823,-9.0511,-2.7271,2033,2019-08-07 16:33:31:222
-15.507,-10.1433,13.5469,13.7814,5.5934,-5.0289,0.823,-9.0511,-2.7271,2037,2019-08-07 16:33:31:226
-13.1484,-7.7182,11.5954,13.7814,5.5934,-5.0289,0.823,-9.0511,-2.7271,2043,2019-08-07 16:33:31:232
-13.1484,-7.7182,11.5954,13.5033,1.9013,-2.0311,0.8262,-7.7994,-2.6642,2048,2019-08-07 16:33:31:237
-14.2823,-4.7345,9.6392,13.5033,1.9013,-2.0311,0.8262,-7.7994,-2.6642,2053,2019-08-07 16:33:31:242
-14.2823,-4.7345,9.6392,13.5033,1.9013,-2.0311,0.6717,-6.52,-2.3564,2057,2019-08-07 16:33:31:246
-14.2823,-4.7345,9.6392,13.5033,1.9013,-2.0311,0.6717,-6.52,-2.3564,2063,2019-08-07 16:33:31:252
-17.038,-3.3215,7.5038,18.4019,-0.979,1.2072,0.5567,-6.2036,-2.0304,2067,2019-08-07 16:33:31:256
-17.038,-3.3215,7.5038,18.4019,-0.979,1.2072,0.5567,-6.2036,-2.0304,2073,2019-08-07 16:33:31:262
-19.5019,-3.0685,4.9442,21.4595,-1.1591,3.689,0.4427,-6.4412,-1.6437,2078,2019-08-07 16:33:31:267
-19.5019,-3.0685,4.9442,21.4595,-1.1591,3.689,0.4427,-6.4412,-1.6437,2083,2019-08-07 16:33:31:272
-19.5019,-3.0685,4.9442,21.4595,-1.1591,3.689,0.5886,-7.1858,-1.1973,2088,2019-08-07 16:33:31:277
-19.5019,-3.0685,4.9442,21.4595,-1.1591,3.689,0.5886,-7.1858,-1.1973,2093,2019-08-07 16:33:31:282
-23.004,-1.0921,1.7812,26.6527,-4.1508,7.5961,0.5886,-7.1858,-1.1973,2097,2019-08-07 16:33:31:286
-23.004,-1.0921,1.7812,26.6527,-4.1508,7.5961,0.8251,-7.9283,-0.7883,2103,2019-08-07 16:33:31:292
-22.6595,2.2639,-2.1407,26.6527,-4.1508,7.5961,0.8251,-7.9283,-0.7883,2107,2019-08-07 16:33:31:296
-22.6595,2.2639,-2.1407,26.6527,-4.1508,7.5961,1.0424,-8.8274,-0.539,2113,2019-08-07 16:33:31:302
-22.6595,2.2639,-2.1407,23.4664,-6.93,15.783,1.0424,-8.8274,-0.539,2117,2019-08-07 16:33:31:306
-17.3634,3.042,-10.0882,23.4664,-6.93,15.783,1.0179,-10.1089,-0.3664,2123,2019-08-07 16:33:31:312
-17.3634,3.042,-10.0882,23.4664,-6.93,15.783,1.0179,-10.1089,-0.3664,2127,2019-08-07 16:33:31:316
-8.3834,3.8774,-14.5286,17.9853,-7.0982,22.7853,0.8176,-11.0761,-0.2919,2133,2019-08-07 16:33:31:322
-8.3834,3.8774,-14.5286,17.9853,-7.0982,22.7853,0.8176,-11.0761,-0.2919,2137,2019-08-07 16:33:31:326
-8.3834,3.8774,-14.5286,17.9853,-7.0982,22.7853,0.8176,-11.0761,-0.2919,2143,2019-08-07 16:33:31:332
-1.8625,4.1496,-15.806,7.5891,-7.8513,24.1917,0.6706,-12.7646,-0.3068,2148,2019-08-07 16:33:31:337
-1.8625,4.1496,-15.806,7.5891,-7.8513,24.1917,0.6706,-12.7646,-0.3068,2153,2019-08-07 16:33:31:342
0.6157,3.8631,-23.9939,7.5891,-7.8513,24.1917,0.6887,-12.7007,-0.2567,2158,2019-08-07 16:33:31:347
0.6157,3.8631,-23.9939,7.5891,-7.8513,24.1917,0.6887,-12.7007,-0.2567,2162,2019-08-07 16:33:31:351
0.6157,3.8631,-23.9939,2.3862,-4.5382,33.4392,1.6528,-3.5266,-0.1118,2168,2019-08-07 16:33:31:357
6.1223,0.5596,-28.8114,2.3862,-4.5382,33.4392,1.6528,-3.5266,-0.1118,2173,2019-08-07 16:33:31:362
6.1223,0.5596,-28.8114,2.3862,-4.5382,33.4392,1.5537,0.3946,-0.1342,2178,2019-08-07 16:33:31:367
-4.5752,4.2785,-21.2505,6.8149,-6.6706,29.7241,1.5537,0.3946,-0.1342,2183,2019-08-07 16:33:31:372
-4.5752,4.2785,-21.2505,6.8149,-6.6706,29.7241,1.4323,3.7513,0.1641,2187,2019-08-07 16:33:31:376
-4.5752,4.2785,-21.2505,6.8149,-6.6706,29.7241,1.4323,3.7513,0.1641,2193,2019-08-07 16:33:31:382
-7.575,3.4765,2.9266,17.5039,-5.4051,17.3342,1.1969,-0.3873,0.3111,2198,2019-08-07 16:33:31:387
-7.575,3.4765,2.9266,17.5039,-5.4051,17.3342,1.1969,-0.3873,0.3111,2202,2019-08-07 16:33:31:391
-4.7666,3.6149,-4.5777,17.5039,-5.4051,17.3342,1.1969,-0.3873,0.3111,2208,2019-08-07 16:33:31:397
-4.7666,3.6149,-4.5777,12.7215,-6.9488,9.2512,0.8709,-0.6366,0.4336,2212,2019-08-07 16:33:31:401
-4.7666,3.6149,-4.5777,12.7215,-6.9488,9.2512,0.8709,-0.6366,0.4336,2218,2019-08-07 16:33:31:407
-0.5923,3.1659,-12.3974,12.7215,-6.9488,9.2512,0.2989,-4.7314,0.0469,2222,2019-08-07 16:33:31:411
-0.5923,3.1659,-12.3974,4.7289,-5.964,12.4987,0.2989,-4.7314,0.0469,2228,2019-08-07 16:33:31:417
4.7469,2.5453,-10.1018,4.7289,-5.964,12.4987,-0.3211,-7.6076,-0.1353,2233,2019-08-07 16:33:31:422
4.7469,2.5453,-10.1018,4.7289,-5.964,12.4987,-0.3211,-7.6076,-0.1353,2238,2019-08-07 16:33:31:427
4.7469,2.5453,-10.1018,4.7289,-5.964,12.4987,-0.3211,-7.6076,-0.1353,2242,2019-08-07 16:33:31:431
10.8947,3.9488,-12.3503,-4.165,-2.9882,20.7623,-0.9603,-6.0417,0.0181,2248,2019-08-07 16:33:31:437
10.8947,3.9488,-12.3503,-4.165,-2.9882,20.7623,-0.9603,-6.0417,0.0181,2252,2019-08-07 16:33:31:441
10.8947,3.9488,-12.3503,-4.165,-2.9882,20.7623,-1.2735,-2.9737,-0.0628,2258,2019-08-07 16:33:31:447
13.636,0.0438,-22.7725,-4.6977,-3.3855,25.0474,-1.2735,-2.9737,-0.0628,2263,2019-08-07 16:33:31:452
13.636,0.0438,-22.7725,-4.6977,-3.3855,25.0474,-1.0934,1.6942,0.0139,2268,2019-08-07 16:33:31:457
13.636,0.0438,-22.7725,-4.6977,-3.3855,25.0474,-1.0934,1.6942,0.0139,2272,2019-08-07 16:33:31:461
9.8709,-1.6413,-20.3308,-4.6977,-3.3855,25.0474,-0.9102,4.922,0.2525,2278,2019-08-07 16:33:31:467
9.8709,-1.6413,-20.3308,-0.0379,-1.1711,18.2678,-0.9102,4.922,0.2525,2282,2019-08-07 16:33:31:471
8.2682,-3.4792,-8.2493,-0.0379,-1.1711,18.2678,-0.9102,4.922,0.2525,2288,2019-08-07 16:33:31:477
8.2682,-3.4792,-8.2493,-0.0379,-1.1711,18.2678,-0.548,6.5305,0.3121,2292,2019-08-07 16:33:31:481
6.2779,-3.3074,-2.8378,-0.0379,-1.1711,18.2678,-0.548,6.5305,0.3121,2298,2019-08-07 16:33:31:487
6.2779,-3.3074,-2.8378,2.9333,0.6868,13.745,0.0517,3.11,0.2855,2302,2019-08-07 16:33:31:491
6.2779,-3.3074,-2.8378,2.9333,0.6868,13.745,0.0517,3.11,0.2855,2308,2019-08-07 16:33:31:497
0.9244,-1.6461,-11.219,7.4735,-1.8788,14.8641,-0.0655,2.7457,0.3207,2312,2019-08-07 16:33:31:501
0.9244,-1.6461,-11.219,7.4735,-1.8788,14.8641,-0.0655,2.7457,0.3207,2318,2019-08-07 16:33:31:507
0.9244,-1.6461,-11.219,7.4735,-1.8788,14.8641,-0.2924,0.9944,0.3942,2322,2019-08-07 16:33:31:511
1.709,-1.7654,-9.0082,7.4735,-1.8788,14.8641,-0.2924,0.9944,0.3942,2328,2019-08-07 16:33:31:517
1.709,-1.7654,-9.0082,5.9628,-1.7965,10.6292,-0.385,0.3925,0.5359,2333,2019-08-07 16:33:31:522
1.709,-1.7654,-9.0082,5.9628,-1.7965,10.6292,-0.385,0.3925,0.5359,2338,2019-08-07 16:33:31:527
1.709,-1.7654,-9.0082,5.9628,-1.7965,10.6292,-0.385,0.3925,0.5359,2343,2019-08-07 16:33:31:532
4.9767,-1.6175,-8.994,5.9628,-1.7965,10.6292,-0.1155,1.9286,0.538,2347,2019-08-07 16:33:31:536
4.9767,-1.6175,-8.994,3.6848,-3.3896,12.4196,-0.1155,1.9286,0.538,2353,2019-08-07 16:33:31:542
3.5605,0.5833,-7.4809,3.6848,-3.3896,12.4196,0.2275,3.6213,0.3675,2358,2019-08-07 16:33:31:547
3.5605,0.5833,-7.4809,3.6848,-3.3896,12.4196,0.2275,3.6213,0.3675,2363,2019-08-07 16:33:31:552
3.5605,0.5833,-7.4809,3.6848,-3.3896,12.4196,0.0198,4.5662,0.3761,2368,2019-08-07 16:33:31:557
1.4316,1.7433,-8.5981,6.3857,-5.5271,13.1599,0.0198,4.5662,0.3761,2373,2019-08-07 16:33:31:562
1.4316,1.7433,-8.5981,6.3857,-5.5271,13.1599,-0.4191,5.7454,0.3462,2380,2019-08-07 16:33:31:569
-0.6735,1.5953,-8.3529,7.7327,-5.501,13.8254,-0.4191,5.7454,0.3462,2383,2019-08-07 16:33:31:572
-0.6735,1.5953,-8.3529,7.7327,-5.501,13.8254,-1.0221,7.3071,0.2141,2388,2019-08-07 16:33:31:577
-0.6735,1.5953,-8.3529,7.7327,-5.501,13.8254,-1.0221,7.3071,0.2141,2393,2019-08-07 16:33:31:582
-3.3383,1.3757,-5.5907,7.7327,-5.501,13.8254,-1.4013,7.8802,0.261,2398,2019-08-07 16:33:31:587
-3.3383,1.3757,-5.5907,12.4046,-5.1066,9.7354,-1.4013,7.8802,0.261,2403,2019-08-07 16:33:31:592
-3.3383,1.3757,-5.5907,12.4046,-5.1066,9.7354,-1.4013,7.8802,0.261,2408,2019-08-07 16:33:31:597
-7.2087,0.7694,-1.3765,12.4046,-5.1066,9.7354,-1.5185,8.2946,0.506,2413,2019-08-07 16:33:31:602
-7.2087,0.7694,-1.3765,12.4046,-5.1066,9.7354,-1.5185,8.2946,0.506,2418,2019-08-07 16:33:31:607
-7.2087,0.7694,-1.3765,13.5498,-3.5288,7.6235,-1.5185,8.2946,0.506,2422,2019-08-07 16:33:31:611
-8.2278,-0.9157,-0.9004,13.5498,-3.5288,7.6235,-1.6985,8.5194,0.8299,2428,2019-08-07 16:33:31:617
-8.2278,-0.9157,-0.9004,13.5498,-3.5288,7.6235,-1.6985,8.5194,0.8299,2432,2019-08-07 16:33:31:621
-8.2278,-0.9157,-0.9004,13.5498,-3.5288,7.6235,-2.5113,8.4491,1.1068,2438,2019-08-07 16:33:31:627
-8.2278,-0.9157,-0.9004,13.5498,-3.5288,7.6235,-2.5113,8.4491,1.1068,2442,2019-08-07 16:33:31:631
-11.7585,-1.6891,0.1696,15.9505,-3.0042,7.3561,-3.1111,8.203,1.4914,2448,2019-08-07 16:33:31:637
-11.7585,-1.6891,0.1696,15.9505,-3.0042,7.3561,-3.1111,8.203,1.4914,2452,2019-08-07 16:33:31:641
-12.9019,-4.0569,3.2996,15.9505,-3.0042,7.3561,-3.1111,8.203,1.4914,2458,2019-08-07 16:33:31:647
-12.9019,-4.0569,3.2996,15.1499,-0.0196,3.2054,-3.4072,8.0549,1.8823,2463,2019-08-07 16:33:31:652
-12.9019,-4.0569,3.2996,15.1499,-0.0196,3.2054,-3.4072,8.0549,1.8823,2468,2019-08-07 16:33:31:657
-11.7681,-7.3986,5.9912,15.1499,-0.0196,3.2054,-3.2527,8.0773,2.0411,2473,2019-08-07 16:33:31:662
-11.7681,-7.3986,5.9912,15.1499,-0.0196,3.2054,-3.2527,8.0773,2.0411,2477,2019-08-07 16:33:31:666
-11.2944,-9.6757,8.1737,12.4612,4.1183,-1.0676,-3.0674,8.1348,1.8834,2483,2019-08-07 16:33:31:672
-11.2944,-9.6757,8.1737,12.4612,4.1183,-1.0676,-3.0674,8.1348,1.8834,2488,2019-08-07 16:33:31:677
-12.4187,-10.4825,11.1292,12.7627,4.3108,-3.5116,-2.915,8.0304,1.6693,2501,2019-08-07 16:33:31:690
-12.4187,-10.4825,11.1292,12.7627,4.3108,-3.5116,-2.915,8.0304,1.6693,2503,2019-08-07 16:33:31:692
-12.4187,-10.4825,11.1292,12.7627,4.3108,-3.5116,-2.915,8.0304,1.6693,2504,2019-08-07 16:33:31:693
-12.4187,-10.4825,11.1292,12.7627,4.3108,-3.5116,-2.8586,7.0024,1.5905,2508,2019-08-07 16:33:31:697
-14.8778,-10.9503,14.6128,14.1717,4.6463,-7.6945,-2.8586,7.0024,1.5905,2513,2019-08-07 16:33:31:702
-14.8778,-10.9503,14.6128,14.1717,4.6463,-7.6945,-2.7084,5.8701,1.6853,2517,2019-08-07 16:33:31:706
-14.8778,-10.9503,14.6128,14.1717,4.6463,-7.6945,-2.7084,5.8701,1.6853,2523,2019-08-07 16:33:31:712
-15.3658,-12.6546,15.0888,14.1717,4.6463,-7.6945,-2.6264,4.6077,1.8291,2528,2019-08-07 16:33:31:717
-15.3658,-12.6546,15.0888,12.5382,6.4678,-7.6807,-2.6264,4.6077,1.8291,2533,2019-08-07 16:33:31:722
-15.3658,-12.6546,15.0888,12.5382,6.4678,-7.6807,-2.6264,4.6077,1.8291,2538,2019-08-07 16:33:31:727
-12.9975,-13.8576,13.1845,12.5382,6.4678,-7.6807,-2.5869,3.2548,2.0645,2542,2019-08-07 16:33:31:731
-12.9975,-13.8576,13.1845,9.8959,6.9458,-6.3095,-2.5869,3.2548,2.0645,2548,2019-08-07 16:33:31:737
-9.4285,-14.5068,10.639,9.8959,6.9458,-6.3095,-2.3814,2.7446,2.35,2553,2019-08-07 16:33:31:742
-9.4285,-14.5068,10.639,9.8959,6.9458,-6.3095,-2.3814,2.7446,2.35,2557,2019-08-07 16:33:31:746
-9.4285,-14.5068,10.639,9.8959,6.9458,-6.3095,-2.3814,2.7446,2.35,2563,2019-08-07 16:33:31:752
-6.7062,-15.5857,10.9501,3.861,8.1891,-5.1593,-2.0778,3.0588,2.4682,2568,2019-08-07 16:33:31:757
-6.7062,-15.5857,10.9501,3.861,8.1891,-5.1593,-2.0778,3.0588,2.4682,2572,2019-08-07 16:33:31:761
-6.5675,-15.7003,10.7144,3.861,8.1891,-5.1593,-1.6463,4.0453,2.4618,2578,2019-08-07 16:33:31:767
-6.5675,-15.7003,10.7144,3.5813,7.8259,-5.194,-1.6463,4.0453,2.4618,2583,2019-08-07 16:33:31:772
-6.5675,-15.7003,10.7144,3.5813,7.8259,-5.194,-1.5132,4.9092,2.3276,2587,2019-08-07 16:33:31:776
-9.151,-13.9769,10.5589,3.5813,7.8259,-5.194,-1.5132,4.9092,2.3276,2593,2019-08-07 16:33:31:782
-9.151,-13.9769,10.5589,5.4039,6.4424,-5.6738,-1.4993,5.0914,2.2115,2597,2019-08-07 16:33:31:786
-11.9115,-12.7453,10.4646,5.4039,6.4424,-5.6738,-1.4993,5.0914,2.2115,2603,2019-08-07 16:33:31:792
-11.9115,-12.7453,10.4646,5.4039,6.4424,-5.6738,-1.4993,5.0914,2.2115,2607,2019-08-07 16:33:31:796
-11.9115,-12.7453,10.4646,5.4039,6.4424,-5.6738,-1.4993,4.7345,2.0645,2613,2019-08-07 16:33:31:802
-13.2415,-12.7357,10.4646,7.8952,5.4832,-6.0072,-1.4993,4.7345,2.0645,2618,2019-08-07 16:33:31:807
-13.2415,-12.7357,10.4646,7.8952,5.4832,-6.0072,-1.4109,3.9292,1.9878,2622,2019-08-07 16:33:31:811
-13.2415,-12.7357,10.4646,7.8952,5.4832,-6.0072,-1.4109,3.9292,1.9878,2628,2019-08-07 16:33:31:817
-13.8299,-13.6953,11.7138,7.9219,7.028,-8.5008,-1.1531,3.0812,1.9154,2633,2019-08-07 16:33:31:822
-13.8299,-13.6953,11.7138,7.9219,7.028,-8.5008,-1.1531,3.0812,1.9154,2638,2019-08-07 16:33:31:827
-13.8299,-13.6953,11.7138,7.9219,7.028,-8.5008,-1.1531,3.0812,1.9154,2643,2019-08-07 16:33:31:832
-13.0884,-14.0915,12.6377,6.8762,7.1061,-9.2227,-0.8154,2.0096,1.7801,2648,2019-08-07 16:33:31:837
-13.0884,-14.0915,12.6377,6.8762,7.1061,-9.2227,-0.8154,2.0096,1.7801,2652,2019-08-07 16:33:31:841
-13.0884,-14.0915,12.6377,6.8762,7.1061,-9.2227,-0.2998,0.4234,1.5212,2658,2019-08-07 16:33:31:847
-10.4857,-13.4661,11.6525,6.8762,7.1061,-9.2227,-0.2998,0.4234,1.5212,2662,2019-08-07 16:33:31:851
-10.4857,-13.4661,11.6525,3.0126,6.6984,-7.7486,0.0336,-0.2701,1.3252,2668,2019-08-07 16:33:31:857
-10.4857,-13.4661,11.6525,3.0126,6.6984,-7.7486,0.0336,-0.2701,1.3252,2672,2019-08-07 16:33:31:861
-6.9358,-13.5807,10.2007,0.6127,6.9003,-6.7908,0.3106,-0.4555,1.1324,2678,2019-08-07 16:33:31:867
-6.9358,-13.5807,10.2007,0.6127,6.9003,-6.7908,0.3106,-0.4555,1.1324,2682,2019-08-07 16:33:31:871
-6.9358,-13.5807,10.2007,0.6127,6.9003,-6.7908,0.7313,-0.1742,0.767,2688,2019-08-07 16:33:31:877
-4.7207,-12.9267,8.367,0.6127,6.9003,-6.7908,0.7313,-0.1742,0.767,2693,2019-08-07 16:33:31:882
-4.7207,-12.9267,8.367,-1.9807,5.8588,-4.2709,0.9412,0.4564,0.4698,2697,2019-08-07 16:33:31:886
-4.8546,-11.3465,7.4384,-1.9807,5.8588,-4.2709,0.9412,0.4564,0.4698,2703,2019-08-07 16:33:31:892
-4.8546,-11.3465,7.4384,-1.9807,5.8588,-4.2709,0.9412,0.4564,0.4698,2707,2019-08-07 16:33:31:896
-4.8546,-11.3465,7.4384,-1.9807,5.8588,-4.2709,1.0339,1.2181,0.1747,2713,2019-08-07 16:33:31:902
-6.9788,-9.7139,6.9434,0.4943,3.2783,-3.3699,1.0339,1.2181,0.1747,2717,2019-08-07 16:33:31:906
-6.9788,-9.7139,6.9434,0.4943,3.2783,-3.3699,0.97,1.4045,0.0267,2723,2019-08-07 16:33:31:912
-9.0839,-8.8164,7.2263,2.5476,2.4208,-3.6753,0.97,1.4045,0.0267,2728,2019-08-07 16:33:31:917
-9.0839,-8.8164,7.2263,2.5476,2.4208,-3.6753,0.8666,1.0583,-0.0096,2733,2019-08-07 16:33:31:922
-9.0839,-8.8164,7.2263,2.5476,2.4208,-3.6753,0.8666,1.0583,-0.0096,2737,2019-08-07 16:33:31:926
-10.8444,-7.5705,7.8721,2.5476,2.4208,-3.6753,0.8666,1.0583,-0.0096,2743,2019-08-07 16:33:31:932
-10.8444,-7.5705,7.8721,4.3503,0.8094,-4.0923,0.7239,0.3339,-0.0149,2747,2019-08-07 16:33:31:936
-10.4856,-6.7255,6.6088,4.3503,0.8094,-4.0923,0.7239,0.3339,-0.0149,2753,2019-08-07 16:33:31:942
-10.4856,-6.7255,6.6088,4.3503,0.8094,-4.0923,0.4565,-0.7165,0.0181,2757,2019-08-07 16:33:31:946
-10.4856,-6.7255,6.6088,4.3503,0.8094,-4.0923,0.4565,-0.7165,0.0181,2763,2019-08-07 16:33:31:952
-8.4045,-6.6348,5.0768,1.8366,0.355,-1.3804,0.2477,-1.3023,0.0096,2768,2019-08-07 16:33:31:957
-8.4045,-6.6348,5.0768,1.8366,0.355,-1.3804,0.2477,-1.3023,0.0096,2773,2019-08-07 16:33:31:962
-8.4045,-6.6396,3.9125,1.8366,0.355,-1.3804,0.2477,-1.3023,0.0096,2778,2019-08-07 16:33:31:967
-6.6295,-6.6396,3.9125,0.1151,0.3673,-0.1102,0.0964,-1.4984,-0.033,2783,2019-08-07 16:33:31:972
-6.6295,-6.6396,3.9125,0.1151,0.3673,-0.1102,0.0964,-1.4984,-0.033,2787,2019-08-07 16:33:31:976
-6.6295,-6.6396,3.9125,0.1151,0.3673,-0.1102,-0.0474,-1.2182,-0.0863,2793,2019-08-07 16:33:31:982
-4.3857,-6.1908,2.2202,-2.471,-0.258,2.071,-0.1198,-0.6419,-0.1385,2798,2019-08-07 16:33:31:987
-4.3857,-6.1908,2.2202,-2.471,-0.258,2.071,-0.1198,-0.6419,-0.1385,2803,2019-08-07 16:33:31:992
-4.3857,-6.1908,2.2202,-2.471,-0.258,2.071,-0.1198,-0.6419,-0.1385,2808,2019-08-07 16:33:31:997
-3.7685,-5.6657,1.8054,-2.471,-0.258,2.071,-0.1347,0.0601,-0.1896,2813,2019-08-07 16:33:32:002
-3.7685,-5.6657,1.8054,-1.9809,-0.7811,1.8305,-0.1347,0.0601,-0.1896,2818,2019-08-07 16:33:32:007
-5.5674,-5.4366,2.6822,-1.9809,-0.7811,1.8305,-0.1028,0.7515,-0.2482,2823,2019-08-07 16:33:32:012
-5.5674,-5.4366,2.6822,-1.9809,-0.7811,1.8305,-0.1028,0.7515,-0.2482,2828,2019-08-07 16:33:32:017
-5.5674,-5.4366,2.6822,-1.9809,-0.7811,1.8305,-0.0527,0.8964,-0.2727,2833,2019-08-07 16:33:32:022
-5.5674,-5.4366,2.6822,-1.9809,-0.7811,1.8305,-0.0527,0.8964,-0.2727,2837,2019-08-07 16:33:32:026
-7.8494,-5.2743,4.035,1.4637,-1.1,-0.1844,-0.0527,0.8964,-0.2727,2843,2019-08-07 16:33:32:032
-7.8494,-5.2743,4.035,1.4637,-1.1,-0.1844,0.0432,0.5704,-0.2642,2847,2019-08-07 16:33:32:036
-8.9833,-5.0021,4.4593,1.4637,-1.1,-0.1844,0.0432,0.5704,-0.2642,2853,2019-08-07 16:33:32:042
-8.9833,-5.0021,4.4593,2.366,-1.4382,-0.4915,0.0954,-0.2019,-0.2056,2858,2019-08-07 16:33:32:047
-8.9833,-5.0021,4.4593,2.366,-1.4382,-0.4915,0.0954,-0.2019,-0.2056,2862,2019-08-07 16:33:32:051
-8.0503,-5.0881,3.7004,2.366,-1.4382,-0.4915,0.089,-0.7857,-0.1651,2868,2019-08-07 16:33:32:057
-8.0503,-5.0881,3.7004,2.366,-1.4382,-0.4915,0.089,-0.7857,-0.1651,2872,2019-08-07 16:33:32:061
-6.7203,-5.4891,2.8707,0.1234,-0.752,1.2258,0.073,-1.1021,-0.131,2878,2019-08-07 16:33:32:067
-6.7203,-5.4891,2.8707,0.1234,-0.752,1.2258,0.073,-1.1021,-0.131,2882,2019-08-07 16:33:32:071
-6.7203,-5.4891,2.8707,0.1234,-0.752,1.2258,0.073,-1.1021,-0.131,2888,2019-08-07 16:33:32:077
-6.7203,-5.4891,2.8707,0.1234,-0.752,1.2258,0.106,-1.0073,-0.1001,2892,2019-08-07 16:33:32:081
-4.8975,-6.0142,2.0741,0.1234,-0.752,1.2258,0.106,-1.0073,-0.1001,2897,2019-08-07 16:33:32:086
-4.8975,-6.0142,2.0741,-1.5247,-0.4346,1.9781,0.1295,-0.6738,-0.0777,2902,2019-08-07 16:33:32:091
-4.3473,-5.8853,2.0882,-1.5247,-0.4346,1.9781,0.1295,-0.6738,-0.0777,2908,2019-08-07 16:33:32:097
-4.3473,-5.8853,2.0882,-1.8417,-0.5251,2.0152,0.1348,-0.268,-0.0596,2913,2019-08-07 16:33:32:102
-4.3473,-5.8853,2.0882,-1.8417,-0.5251,2.0152,0.1348,-0.268,-0.0596,2918,2019-08-07 16:33:32:107
-4.4477,-5.7516,2.4983,-1.8417,-0.5251,2.0152,0.1348,0.1315,-0.0575,2923,2019-08-07 16:33:32:112
-4.4477,-5.7516,2.4983,-1.2165,-0.811,1.1278,0.1348,0.1315,-0.0575,2927,2019-08-07 16:33:32:116
-5.3137,-5.4939,3.4128,-1.2165,-0.811,1.1278,0.1316,0.4383,-0.065,2932,2019-08-07 16:33:32:121
-5.3137,-5.4939,3.4128,-1.2165,-0.811,1.1278,0.1316,0.4383,-0.065,2938,2019-08-07 16:33:32:127
-5.3137,-5.4939,3.4128,-1.2165,-0.811,1.1278,0.0975,0.5693,-0.0596,2943,2019-08-07 16:33:32:132
-6.2322,-5.3125,4.1812,-1.2165,-0.811,1.1278,0.0975,0.5693,-0.0596,2948,2019-08-07 16:33:32:137
-6.2322,-5.3125,4.1812,0.2685,-1.1024,-0.1837,0.0975,0.5693,-0.0596,2953,2019-08-07 16:33:32:142
-6.2322,-5.3125,4.1812,0.2685,-1.1024,-0.1837,0.0443,0.3861,-0.0468,2958,2019-08-07 16:33:32:147
-7.103,-5.322,4.8977,0.872,-1.0846,-0.852,0.0443,0.3861,-0.0468,2962,2019-08-07 16:33:32:151
-7.103,-5.322,4.8977,0.872,-1.0846,-0.852,0.007,0.0708,-0.0298,2968,2019-08-07 16:33:32:157
-7.103,-5.4748,5.0674,0.872,-1.0846,-0.852,0.007,0.0708,-0.0298,2972,2019-08-07 16:33:32:161
-7.213,-5.4748,5.0674,0.872,-1.0846,-0.852,-0.0367,-0.2797,0.0011,2978,2019-08-07 16:33:32:167
-7.213,-5.4748,5.0674,0.743,-0.7249,-0.7877,-0.0367,-0.2797,0.0011,2982,2019-08-07 16:33:32:171
-6.3853,-5.8996,4.5017,0.743,-0.7249,-0.7877,-0.0697,-0.5364,0.0117,2988,2019-08-07 16:33:32:177
-6.3853,-5.8996,4.5017,0.743,-0.7249,-0.7877,-0.0697,-0.5364,0.0117,2992,2019-08-07 16:33:32:181
-5.7155,-6.0381,4.1388,0.743,-0.7249,-0.7877,-0.0697,-0.5364,0.0117,2998,2019-08-07 16:33:32:187
-5.7155,-6.0381,4.1388,-0.61,-0.3257,0.0753,-0.0793,-0.5577,0.0,3003,2019-08-07 16:33:32:192
-5.7155,-6.0381,4.1388,-0.61,-0.3257,0.0753,-0.0793,-0.5577,0.0,3007,2019-08-07 16:33:32:196
-5.0361,-6.1001,3.8324,-1.1367,-0.3063,0.3017,-0.0719,-0.4384,0.0043,3013,2019-08-07 16:33:32:202
-5.0361,-6.1001,3.8324,-1.1367,-0.3063,0.3017,-0.0719,-0.4384,0.0043,3018,2019-08-07 16:33:32:207
-5.0361,-6.1001,3.8324,-1.1367,-0.3063,0.3017,-0.0719,-0.4384,0.0043,3023,2019-08-07 16:33:32:212
-4.7251,-6.1097,3.757,-1.4732,-0.2967,0.3676,-0.0644,-0.2818,0.0107,3028,2019-08-07 16:33:32:217
-4.7251,-6.1097,3.757,-1.4732,-0.2967,0.3676,-0.0644,-0.2818,0.0107,3033,2019-08-07 16:33:32:222
-4.8112,-6.0285,3.7805,-1.4732,-0.2967,0.3676,-0.0346,0.1954,0.0245,3037,2019-08-07 16:33:32:226
-4.8112,-6.0285,3.7805,-1.1988,-0.3933,0.295,-0.0346,0.1954,0.0245,3044,2019-08-07 16:33:32:233
-4.8112,-6.0285,3.7805,-1.1988,-0.3933,0.295,-0.0101,0.4053,0.0362,3047,2019-08-07 16:33:32:236
-5.615,-5.9426,4.1294,-1.1988,-0.3933,0.295,-0.0101,0.4053,0.0362,3053,2019-08-07 16:33:32:242
-5.615,-5.9426,4.1294,-1.1988,-0.3933,0.295,0.0166,0.5043,0.0448,3058,2019-08-07 16:33:32:247
-6.3996,-5.871,4.5489,0.0668,-0.4927,-0.4546,0.0166,0.5043,0.0448,3063,2019-08-07 16:33:32:252
-6.3996,-5.871,4.5489,0.0668,-0.4927,-0.4546,0.0272,0.4308,0.0394,3067,2019-08-07 16:33:32:256
-6.3996,-5.871,4.5489,0.0668,-0.4927,-0.4546,0.0272,0.4308,0.0394,3073,2019-08-07 16:33:32:262
-6.9689,-5.7851,4.8836,0.0668,-0.4927,-0.4546,0.0251,0.2252,0.0512,3078,2019-08-07 16:33:32:267
-6.9689,-5.7851,4.8836,0.7513,-0.5742,-0.825,0.0251,0.2252,0.0512,3082,2019-08-07 16:33:32:271
-6.9689,-5.7851,4.8836,0.7513,-0.5742,-0.825,0.0208,-0.056,0.0661,3088,2019-08-07 16:33:32:277
-6.6723,-5.8615,4.6667,0.7513,-0.5742,-0.825,0.0208,-0.056,0.0661,3094,2019-08-07 16:33:32:283
-6.6723,-5.8615,4.6667,0.7513,-0.5742,-0.825,0.0102,-0.2382,0.0618,3097,2019-08-07 16:33:32:286
-6.3134,-5.8519,4.3038,0.1914,-0.5594,-0.3473,0.0102,-0.2382,0.0618,3103,2019-08-07 16:33:32:292
-6.3134,-5.8519,4.3038,0.1914,-0.5594,-0.3473,0.0102,-0.2382,0.0618,3107,2019-08-07 16:33:32:296
-6.3134,-5.8519,4.3038,0.1914,-0.5594,-0.3473,-0.0058,-0.3362,0.0746,3113,2019-08-07 16:33:32:302
-5.701,-5.9426,3.823,0.1914,-0.5594,-0.3473,-0.0058,-0.3362,0.0746,3118,2019-08-07 16:33:32:307
-5.701,-5.9426,3.823,-0.7157,-0.3825,0.4893,-0.0154,-0.2872,0.0863,3123,2019-08-07 16:33:32:312
-5.701,-5.9426,3.823,-0.7157,-0.3825,0.4893,-0.0154,-0.2872,0.0863,3128,2019-08-07 16:33:32:317
-5.3805,-6.0142,3.5967,-0.7157,-0.3825,0.4893,-0.0101,-0.1572,0.0831,3133,2019-08-07 16:33:32:322
-5.3805,-6.0142,3.5967,-0.7157,-0.3825,0.4893,-0.0101,-0.1572,0.0831,3138,2019-08-07 16:33:32:327
-5.4857,-5.9617,3.5449,-0.7298,-0.4037,0.5886,-0.0069,-0.0123,0.0874,3143,2019-08-07 16:33:32:332
-5.4857,-5.9617,3.5449,-0.7298,-0.4037,0.5886,-0.0069,-0.0123,0.0874,3148,2019-08-07 16:33:32:337
-5.4857,-5.9617,3.5449,-0.7298,-0.4037,0.5886,-0.0133,0.1432,0.098,3153,2019-08-07 16:33:32:342
-5.7153,-5.8471,3.6957,-0.7298,-0.4037,0.5886,-0.0133,0.1432,0.098,3158,2019-08-07 16:33:32:347
-5.7153,-5.8471,3.6957,-0.4343,-0.589,0.2867,-0.0133,0.1432,0.098,3163,2019-08-07 16:33:32:352
-5.7153,-5.8471,3.6957,-0.4343,-0.589,0.2867,-0.0079,0.2284,0.1012,3168,2019-08-07 16:33:32:357
-6.0215,-5.7421,3.8654,-0.4343,-0.589,0.2867,-0.0079,0.2284,0.1012,3173,2019-08-07 16:33:32:362
-6.0215,-5.7421,3.8654,-0.4343,-0.589,0.2867,-0.0111,0.2284,0.0959,3178,2019-08-07 16:33:32:367
-6.0215,-5.7421,3.8654,0.0823,-0.4847,0.1057,-0.0111,0.2284,0.0959,3182,2019-08-07 16:33:32:371
-6.3899,-5.8758,4.0398,0.0823,-0.4847,0.1057,-0.0111,0.2284,0.0959,3188,2019-08-07 16:33:32:377
-6.3899,-5.8758,4.0398,0.0823,-0.4847,0.1057,-0.0261,0.1464,0.0927,3192,2019-08-07 16:33:32:381
-6.5573,-5.9426,4.2472,0.0823,-0.4847,0.1057,-0.0261,0.1464,0.0927,3198,2019-08-07 16:33:32:387
-6.5573,-5.9426,4.2472,0.2964,-0.3952,-0.1673,-0.0261,0.0388,0.0927,3202,2019-08-07 16:33:32:391
-6.5573,-5.9426,4.2472,0.2964,-0.3952,-0.1673,-0.0261,0.0388,0.0927,3208,2019-08-07 16:33:32:397
-6.5238,-5.9713,4.1435,0.1713,-0.3512,0.0218,-0.0346,-0.0805,0.0916,3213,2019-08-07 16:33:32:402
-6.5238,-5.9713,4.1435,0.1713,-0.3512,0.0218,-0.0346,-0.0805,0.0916,3218,2019-08-07 16:33:32:407
-6.5238,-5.9713,4.1435,0.1713,-0.3512,0.0218,-0.0538,-0.1657,0.0927,3223,2019-08-07 16:33:32:412
-6.5238,-5.9713,4.1435,0.1713,-0.3512,0.0218,-0.0538,-0.1657,0.0927,3227,2019-08-07 16:33:32:416
-6.0655,-5.9807,3.7945,0.1713,-0.3512,0.0218,-0.0538,-0.1657,0.0927,3233,2019-08-07 16:33:32:422
-6.0655,-5.9807,3.7945,-0.4401,-0.2958,0.4488,-0.0538,-0.1561,0.082,3237,2019-08-07 16:33:32:426
-5.7211,-6.0285,3.4881,-0.4401,-0.2958,0.4488,-0.0538,-0.1561,0.082,3243,2019-08-07 16:33:32:432
-5.7211,-6.0285,3.4881,-0.4401,-0.2958,0.4488,-0.0442,-0.0517,0.081,3248,2019-08-07 16:33:32:437
-5.7211,-6.0285,3.4881,-0.5819,-0.3102,0.5928,-0.0442,-0.0517,0.081,3253,2019-08-07 16:33:32:442
-5.8167,-6.0189,3.5682,-0.5819,-0.3102,0.5928,-0.0271,0.0623,0.082,3258,2019-08-07 16:33:32:447
-5.8167,-6.0189,3.5682,-0.5819,-0.3102,0.5928,-0.0271,0.0623,0.082,3263,2019-08-07 16:33:32:452
-6.0416,-5.8518,3.7615,-0.5819,-0.3102,0.5928,-0.0133,0.1304,0.0799,3267,2019-08-07 16:33:32:456
-6.0416,-5.8518,3.7615,-0.1419,-0.4497,0.2509,-0.0133,0.1304,0.0799,3273,2019-08-07 16:33:32:462
-6.0416,-5.8518,3.7615,-0.1419,-0.4497,0.2509,-0.0037,0.156,0.0778,3278,2019-08-07 16:33:32:467
-6.3143,-5.828,3.8369,-0.1419,-0.4497,0.2509,-0.0037,0.156,0.0778,3283,2019-08-07 16:33:32:472
-6.3143,-5.828,3.8369,-0.1419,-0.4497,0.2509,-0.0133,0.1219,0.0767,3287,2019-08-07 16:33:32:476
-6.4148,-5.7802,3.9783,0.0689,-0.51,0.0712,-0.0133,0.1219,0.0767,3293,2019-08-07 16:33:32:482
-6.4148,-5.7802,3.9783,0.0689,-0.51,0.0712,-0.0197,0.058,0.0671,3298,2019-08-07 16:33:32:487
-6.4148,-5.7802,3.9783,0.0689,-0.51,0.0712,-0.0197,0.058,0.0671,3303,2019-08-07 16:33:32:492
-6.4148,-5.7802,3.9783,0.0689,-0.51,0.0712,-0.0197,0.058,0.0671,3308,2019-08-07 16:33:32:497
-6.4052,-5.89,3.8935,0.0689,-0.51,0.0712,-0.0207,-0.0027,0.0629,3313,2019-08-07 16:33:32:502
-6.4052,-5.89,3.8935,0.0556,-0.3484,0.1867,-0.0207,-0.0027,0.0629,3318,2019-08-07 16:33:32:507
-6.4052,-5.89,3.8935,0.0556,-0.3484,0.1867,-0.0165,-0.0219,0.0501,3322,2019-08-07 16:33:32:511
-6.2282,-5.9998,3.8322,0.0556,-0.3484,0.1867,-0.0165,-0.0219,0.0501,3328,2019-08-07 16:33:32:517
-6.2282,-5.9998,3.8322,0.0556,-0.3484,0.1867,-0.0165,-0.0123,0.0384,3332,2019-08-07 16:33:32:521
-6.1229,-6.0237,3.7379,-0.2467,-0.2855,0.2806,-0.0165,-0.0123,0.0384,3338,2019-08-07 16:33:32:527
-6.1229,-6.0237,3.7379,-0.2467,-0.2855,0.2806,-0.0165,0.0101,0.0267,3343,2019-08-07 16:33:32:532
-6.1229,-6.0237,3.7379,-0.2467,-0.2855,0.2806,-0.0165,0.0101,0.0267,3348,2019-08-07 16:33:32:537
-6.099,-6.0094,3.7521,-0.2467,-0.2855,0.2806,-0.0165,0.0101,0.0267,3352,2019-08-07 16:33:32:541
-6.099,-6.0094,3.7521,-0.2424,-0.2645,0.2895,-0.0069,0.0612,0.0235,3358,2019-08-07 16:33:32:547
-6.1708,-5.9473,3.8463,-0.2424,-0.2645,0.2895,-0.0069,0.0612,0.0235,3362,2019-08-07 16:33:32:551
-6.1708,-5.9473,3.8463,-0.2424,-0.2645,0.2895,-0.0016,0.0953,0.0117,3368,2019-08-07 16:33:32:557
-6.1708,-5.9473,3.8463,-0.2424,-0.2645,0.2895,-0.0016,0.0953,0.0117,3372,2019-08-07 16:33:32:561
-6.2378,-5.8327,3.8935,-0.1417,-0.4391,0.1318,-0.0143,0.0868,0.0053,3378,2019-08-07 16:33:32:567
-6.2378,-5.8327,3.8935,-0.1417,-0.4391,0.1318,-0.0143,0.0868,0.0053,3382,2019-08-07 16:33:32:571
-6.2378,-5.8327,3.8935,-0.1417,-0.4391,0.1318,-0.0314,0.0623,0.0139,3388,2019-08-07 16:33:32:577
-6.1517,-5.89,3.8228,-0.1417,-0.4391,0.1318,-0.0314,0.0623,0.0139,3394,2019-08-07 16:33:32:583
-6.1517,-5.89,3.8228,-0.317,-0.3195,0.1762,-0.0303,0.0697,0.0117,3397,2019-08-07 16:33:32:586
-6.0751,-5.9043,3.8134,-0.317,-0.3195,0.1762,-0.0303,0.0697,0.0117,3403,2019-08-07 16:33:32:592
-6.0751,-5.9043,3.8134,-0.317,-0.3195,0.1762,-0.0218,0.09,0.0032,3407,2019-08-07 16:33:32:596
-6.0751,-5.9043,3.8134,-0.317,-0.3195,0.1762,-0.0218,0.09,0.0032,3413,2019-08-07 16:33:32:602
-6.0942,-5.933,3.8652,-0.3006,-0.3393,0.1348,-0.0229,0.0953,0.0043,3417,2019-08-07 16:33:32:606
-6.0942,-5.933,3.8652,-0.3006,-0.3393,0.1348,-0.0229,0.0953,0.0043,3423,2019-08-07 16:33:32:612
-6.1038,-5.847,3.8746,-0.2955,-0.4255,0.118,-0.025,0.0995,0.0128,3428,2019-08-07 16:33:32:617
-6.1038,-5.847,3.8746,-0.2955,-0.4255,0.118,-0.025,0.0995,0.0128,3432,2019-08-07 16:33:32:621
-6.1038,-5.847,3.8746,-0.2955,-0.4255,0.118,-0.0165,0.1187,0.0213,3438,2019-08-07 16:33:32:627
-6.1564,-5.89,3.7756,-0.2955,-0.4255,0.118,-0.0165,0.1187,0.0213,3442,2019-08-07 16:33:32:631
-6.1564,-5.89,3.7756,-0.1639,-0.3284,0.2238,-0.0143,0.1145,0.0224,3448,2019-08-07 16:33:32:637
-6.3143,-5.8852,3.7756,-0.1639,-0.3284,0.2238,-0.0143,0.1145,0.0224,3453,2019-08-07 16:33:32:642
-6.3143,-5.8852,3.7756,-0.1639,-0.3284,0.2238,-0.0143,0.1145,0.0224,3458,2019-08-07 16:33:32:647
-6.3143,-5.8852,3.7756,-0.1639,-0.3284,0.2238,-0.0239,0.0761,0.0309,3462,2019-08-07 16:33:32:651
-6.2617,-5.9568,3.8275,-0.1615,-0.3108,0.1343,-0.0239,0.0761,0.0309,3468,2019-08-07 16:33:32:657
-6.2617,-5.9568,3.8275,-0.1615,-0.3108,0.1343,-0.0154,0.0378,0.0352,3472,2019-08-07 16:33:32:661
-6.2426,-6.0141,3.6248,-0.1615,-0.3108,0.1343,-0.0154,0.0378,0.0352,3478,2019-08-07 16:33:32:667
-6.2426,-6.0141,3.6248,-0.1615,-0.3108,0.1343,-0.0101,0.0495,0.0267,3482,2019-08-07 16:33:32:671
-6.2426,-6.0141,3.6248,-0.1604,-0.2645,0.3049,-0.0101,0.0495,0.0267,3488,2019-08-07 16:33:32:677
-6.2426,-6.0141,3.6248,-0.1604,-0.2645,0.3049,-0.0101,0.0495,0.0267,3492,2019-08-07 16:33:32:681
-6.3765,-5.9473,3.7615,-0.1604,-0.2645,0.3049,-0.0111,0.0633,0.0149,3498,2019-08-07 16:33:32:687
-6.3765,-5.9473,3.7615,-0.1604,-0.2645,0.3049,-0.0143,0.0612,0.0117,3502,2019-08-07 16:33:32:691
-6.3,-5.9282,3.7709,-0.1398,-0.3341,0.1723,-0.0143,0.0612,0.0117,3508,2019-08-07 16:33:32:697
-6.3,-5.9282,3.7709,-0.1398,-0.3341,0.1723,-0.0143,0.0612,0.0117,3512,2019-08-07 16:33:32:701
-6.2808,-5.9425,3.7426,-0.1398,-0.3341,0.1723,-0.0207,0.0814,-0.0042,3518,2019-08-07 16:33:32:707
-6.2808,-5.9425,3.7426,-0.1398,-0.3341,0.1723,-0.0207,0.0814,-0.0042,3522,2019-08-07 16:33:32:711
-6.2808,-5.9425,3.7426,-0.0653,-0.3026,0.1629,-0.0165,0.1155,-0.0245,3528,2019-08-07 16:33:32:717
-6.4291,-5.9568,3.8039,-0.0653,-0.3026,0.1629,-0.0143,0.1176,-0.0373,3533,2019-08-07 16:33:32:722
-6.4291,-5.9568,3.8039,-0.0653,-0.3026,0.1629,-0.0143,0.1176,-0.0373,3538,2019-08-07 16:33:32:727
-6.4291,-5.9568,3.8039,-0.0653,-0.3026,0.1629,-0.0143,0.1176,-0.0373,3543,2019-08-07 16:33:32:732
-6.5105,-5.9998,3.7992,0.0541,-0.2838,0.1134,-0.0133,0.09,-0.0479,3548,2019-08-07 16:33:32:737
-6.5105,-5.9998,3.7992,0.0541,-0.2838,0.1134,-0.0133,0.09,-0.0479,3552,2019-08-07 16:33:32:741
-6.4722,-5.9807,3.8039,0.0541,-0.2838,0.1134,-0.0143,0.0463,-0.0426,3558,2019-08-07 16:33:32:747
-6.4722,-5.9807,3.8039,0.0541,-0.2838,0.1134,-0.0143,0.0463,-0.0426,3563,2019-08-07 16:33:32:752
-6.4722,-5.9807,3.8039,-0.0417,-0.2891,0.1143,-0.0154,0.0111,-0.033,3567,2019-08-07 16:33:32:756
-6.3287,-6.0141,3.7756,-0.0417,-0.2891,0.1143,-0.0154,0.0111,-0.033,3573,2019-08-07 16:33:32:762
-6.3287,-6.0141,3.7756,-0.0417,-0.2891,0.1143,-0.0186,-0.007,-0.0362,3577,2019-08-07 16:33:32:766
-6.1373,-6.038,3.7945,-0.0417,-0.2891,0.1143,-0.0186,-0.007,-0.0362,3583,2019-08-07 16:33:32:772
-6.1373,-6.038,3.7945,-0.3282,-0.2568,0.1042,-0.009,-0.0102,-0.0383,3588,2019-08-07 16:33:32:777
-6.1373,-6.038,3.7945,-0.3282,-0.2568,0.1042,-0.009,-0.0102,-0.0383,3593,2019-08-07 16:33:32:782
-6.0895,-5.9998,3.6201,-0.3282,-0.2568,0.1042,6.0E-4,0.026,-0.0394,3597,2019-08-07 16:33:32:786
-6.0895,-5.9998,3.6201,-0.3282,-0.2568,0.1042,6.0E-4,0.026,-0.0394,3603,2019-08-07 16:33:32:792
-6.0895,-5.9998,3.6201,-0.3282,-0.2568,0.1042,6.0E-4,0.026,-0.0394,3608,2019-08-07 16:33:32:797
-6.0942,-6.0285,3.6908,-0.3488,-0.2578,0.2088,0.0016,0.0686,-0.0426,3613,2019-08-07 16:33:32:802
-6.0942,-6.0285,3.6908,-0.3488,-0.2578,0.2088,0.0016,0.0686,-0.0426,3618,2019-08-07 16:33:32:807
-6.1612,-6.0046,3.7144,-0.3488,-0.2578,0.2088,-0.0037,0.1113,-0.0532,3622,2019-08-07 16:33:32:811
-6.1612,-6.0046,3.7144,-0.2351,-0.2932,0.1487,-0.0037,0.1113,-0.0532,3628,2019-08-07 16:33:32:817
-6.1612,-6.0046,3.7144,-0.2351,-0.2932,0.1487,-0.0047,0.123,-0.0596,3633,2019-08-07 16:33:32:822
-6.2521,-5.995,3.7804,-0.2351,-0.2932,0.1487,-0.0047,0.123,-0.0596,3637,2019-08-07 16:33:32:826
-6.2521,-5.995,3.7804,-0.2351,-0.2932,0.1487,-0.0058,0.1187,-0.0586,3644,2019-08-07 16:33:32:833
-6.367,-5.9664,3.9218,-0.08,-0.3339,-0.0516,-0.0058,0.1187,-0.0586,3648,2019-08-07 16:33:32:837
-6.367,-5.9664,3.9218,-0.08,-0.3339,-0.0516,-0.0058,0.1187,-0.0586,3653,2019-08-07 16:33:32:842
-6.367,-5.9664,3.9218,-0.08,-0.3339,-0.0516,-0.0143,0.0718,-0.0543,3658,2019-08-07 16:33:32:847
-6.3335,-5.933,3.8841,-0.1137,-0.3709,-0.0199,-0.0143,0.0718,-0.0543,3662,2019-08-07 16:33:32:851
-6.3335,-5.933,3.8841,-0.1137,-0.3709,-0.0199,-0.0175,0.0324,-0.049,3668,2019-08-07 16:33:32:857
-6.2761,-5.9139,3.8416,-0.1137,-0.3709,-0.0199,-0.0175,0.0324,-0.049,3672,2019-08-07 16:33:32:861
-6.2761,-5.9139,3.8416,-0.1137,-0.3709,-0.0199,-0.0197,0.0047,-0.0373,3678,2019-08-07 16:33:32:867
-6.2761,-5.9139,3.8416,-0.1826,-0.3915,0.05,-0.0197,0.0047,-0.0373,3683,2019-08-07 16:33:32:872
-6.2139,-5.933,3.7992,-0.1826,-0.3915,0.05,-0.0197,0.0047,-0.0373,3687,2019-08-07 16:33:32:876
-6.2139,-5.933,3.7992,-0.1826,-0.3915,0.05,-0.0175,-0.0304,-0.0255,3693,2019-08-07 16:33:32:882
-6.0751,-5.9521,3.7332,-0.3641,-0.3624,0.1268,-0.0122,-0.0262,-0.0149,3698,2019-08-07 16:33:32:887
-6.0751,-5.9521,3.7332,-0.3641,-0.3624,0.1268,-0.0122,-0.0262,-0.0149,3703,2019-08-07 16:33:32:892
-6.0751,-5.9521,3.7332,-0.3641,-0.3624,0.1268,-0.0122,-0.0262,-0.0149,3708,2019-08-07 16:33:32:897
-6.0703,-5.9091,3.6342,-0.3672,-0.4068,0.2263,-0.0122,-0.0059,-0.0117,3713,2019-08-07 16:33:32:902
-6.0703,-5.9091,3.6342,-0.3672,-0.4068,0.2263,-0.0122,-0.0059,-0.0117,3718,2019-08-07 16:33:32:907
-6.0703,-5.9091,3.6342,-0.3672,-0.4068,0.2263,-0.0079,0.0484,-0.0085,3722,2019-08-07 16:33:32:911
-6.0273,-5.847,3.6719,-0.3672,-0.4068,0.2263,-0.0079,0.0484,-0.0085,3728,2019-08-07 16:33:32:917
-6.0273,-5.847,3.6719,-0.4021,-0.4706,0.2728,-0.0154,0.0995,-0.0149,3733,2019-08-07 16:33:32:922
-6.0273,-5.847,3.6719,-0.4021,-0.4706,0.2728,-0.0154,0.0995,-0.0149,3737,2019-08-07 16:33:32:926
-6.1517,-5.7945,3.5871,-0.4021,-0.4706,0.2728,-0.0207,0.1421,-0.0192,3743,2019-08-07 16:33:32:932
-6.1517,-5.7945,3.5871,-0.4021,-0.4706,0.2728,-0.0207,0.1421,-0.0192,3747,2019-08-07 16:33:32:936
-6.2904,-5.8614,3.7144,-0.1571,-0.4922,0.1035,-0.0207,0.1421,-0.0192,3753,2019-08-07 16:33:32:942
-6.2904,-5.8614,3.7144,-0.1571,-0.4922,0.1035,-0.0229,0.156,-0.0138,3757,2019-08-07 16:33:32:946
-6.367,-5.8566,3.7521,-0.1571,-0.4922,0.1035,-0.0229,0.156,-0.0138,3763,2019-08-07 16:33:32:952
-6.367,-5.8566,3.7521,-0.1571,-0.4922,0.1035,-0.025,0.1336,-0.0128,3768,2019-08-07 16:33:32:957
-6.367,-5.8566,3.7521,0.0042,-0.4701,0.0163,-0.025,0.1336,-0.0128,3772,2019-08-07 16:33:32:961
-6.4674,-5.8614,3.8511,0.0042,-0.4701,0.0163,-0.0356,0.0772,-0.0053,3778,2019-08-07 16:33:32:967
-6.4674,-5.8614,3.8511,0.0042,-0.4701,0.0163,-0.0356,0.0772,-0.0053,3782,2019-08-07 16:33:32:971
-6.4674,-5.8614,3.8511,0.0042,-0.4701,0.0163,-0.041,-0.0027,0.0117,3788,2019-08-07 16:33:32:977
-6.343,-5.933,3.8793,-0.1207,-0.3897,-0.074,-0.041,-0.0027,0.0117,3793,2019-08-07 16:33:32:982
-6.343,-5.933,3.8793,-0.1207,-0.3897,-0.074,-0.0367,-0.0443,0.0203,3798,2019-08-07 16:33:32:987
-6.2282,-5.9378,3.6955,-0.1207,-0.3897,-0.074,-0.0367,-0.0443,0.0203,3803,2019-08-07 16:33:32:992
-6.2282,-5.9378,3.6955,-0.1207,-0.3897,-0.074,-0.0367,-0.0443,0.0203,3808,2019-08-07 16:33:32:997
-6.2282,-5.9378,3.6955,-0.2689,-0.3171,0.2059,-0.0335,-0.0613,0.0309,3813,2019-08-07 16:33:33:002
-6.1086,-5.9855,3.5777,-0.2689,-0.3171,0.2059,-0.0335,-0.0613,0.0309,3817,2019-08-07 16:33:33:006
-6.1086,-5.9855,3.5777,-0.2689,-0.3171,0.2059,-0.025,-0.0485,0.0352,3823,2019-08-07 16:33:33:012
-5.9986,-6.0285,3.4504,-0.2689,-0.3171,0.2059,-0.025,-0.0485,0.0352,3827,2019-08-07 16:33:33:016
-5.9986,-6.0285,3.4504,-0.4084,-0.2865,0.42,-0.0186,-0.0027,0.032,3832,2019-08-07 16:33:33:021
-5.9986,-6.0285,3.4504,-0.4084,-0.2865,0.42,-0.0186,-0.0027,0.032,3838,2019-08-07 16:33:33:027
-6.0943,-5.9998,3.4221,-0.3728,-0.319,0.3839,-0.0133,0.0601,0.0245,3843,2019-08-07 16:33:33:032
-6.0943,-5.9998,3.4221,-0.3728,-0.319,0.3839,-0.0133,0.0601,0.0245,3848,2019-08-07 16:33:33:037
-6.0943,-5.9998,3.4221,-0.3728,-0.319,0.3839,-0.0079,0.1145,0.0224,3852,2019-08-07 16:33:33:041
-6.2856,-6.038,3.6154,-0.3728,-0.319,0.3839,-0.0079,0.1145,0.0224,3858,2019-08-07 16:33:33:047
-6.2856,-6.038,3.6154,-0.1306,-0.3496,0.176,-0.0079,0.1145,0.0224,3862,2019-08-07 16:33:33:051
-6.4435,-5.9378,3.6814,-0.1306,-0.3496,0.176,-0.0058,0.1251,0.0235,3868,2019-08-07 16:33:33:057
-6.4435,-5.9378,3.6814,-0.1306,-0.3496,0.176,-0.0058,0.1251,0.0235,3872,2019-08-07 16:33:33:061
-6.4435,-5.9378,3.6814,-0.1306,-0.3496,0.176,-0.0111,0.0931,0.0203,3878,2019-08-07 16:33:33:067
-6.544,-5.8661,3.7332,0.0528,-0.4459,0.0428,-0.0111,0.0931,0.0203,3883,2019-08-07 16:33:33:072
-6.544,-5.8661,3.7332,0.0528,-0.4459,0.0428,-0.0165,0.0388,0.0213,3888,2019-08-07 16:33:33:077
-6.544,-5.8661,3.7332,-0.0086,-0.4393,0.0156,-0.0165,0.0388,0.0213,3893,2019-08-07 16:33:33:082
-6.4722,-5.9282,3.7332,-0.0086,-0.4393,0.0156,-0.0197,-0.0251,0.0245,3898,2019-08-07 16:33:33:087
-6.4722,-5.9282,3.7332,-0.0086,-0.4393,0.0156,-0.0197,-0.0251,0.0245,3903,2019-08-07 16:33:33:092
-6.3957,-5.9378,3.6625,-0.0086,-0.4393,0.0156,-0.0218,-0.0762,0.0245,3908,2019-08-07 16:33:33:097
-6.3957,-5.9378,3.6625,-0.2247,-0.317,0.1935,-0.0218,-0.0762,0.0245,3913,2019-08-07 16:33:33:102
-6.3957,-5.9378,3.6625,-0.2247,-0.317,0.1935,-0.0229,-0.0901,0.0352,3918,2019-08-07 16:33:33:107
-6.1565,-6.081,3.5635,-0.2247,-0.317,0.1935,-0.0229,-0.0901,0.0352,3923,2019-08-07 16:33:33:112
-6.1565,-6.081,3.5635,-0.2247,-0.317,0.1935,-0.0229,-0.0688,0.032,3928,2019-08-07 16:33:33:117
-6.1086,-6.0714,3.4881,-0.385,-0.234,0.2949,-0.0229,-0.0688,0.032,3932,2019-08-07 16:33:33:121
-6.1086,-6.0714,3.4881,-0.385,-0.234,0.2949,-0.0154,-0.0251,0.0256,3938,2019-08-07 16:33:33:127
-6.1086,-6.0714,3.4881,-0.385,-0.234,0.2949,-0.0154,-0.0251,0.0256,3943,2019-08-07 16:33:33:132
-6.1612,-6.0857,3.4928,-0.385,-0.234,0.2949,-0.0111,0.0292,0.0256,3948,2019-08-07 16:33:33:137
-6.1612,-6.0857,3.4928,-0.3208,-0.2276,0.3164,-0.0111,0.0292,0.0256,3952,2019-08-07 16:33:33:141
-6.1612,-6.0857,3.4928,-0.3208,-0.2276,0.3164,-0.0111,0.0292,0.0256,3958,2019-08-07 16:33:33:147
-6.2378,-6.0619,3.4928,-0.2244,-0.2314,0.1884,-0.0079,0.074,0.0213,3963,2019-08-07 16:33:33:152
-6.2378,-6.0619,3.4928,-0.2244,-0.2314,0.1884,-0.0079,0.074,0.0213,3967,2019-08-07 16:33:33:156
-6.41,-6.0141,3.6342,-0.2244,-0.2314,0.1884,-0.0058,0.0931,0.0149,3973,2019-08-07 16:33:33:162
-6.41,-6.0141,3.6342,-0.2244,-0.2314,0.1884,-0.0058,0.0931,0.0149,3977,2019-08-07 16:33:33:166
-6.41,-6.0141,3.6342,0.0245,-0.3005,0.1198,-5.0E-4,0.0676,0.0139,3983,2019-08-07 16:33:33:172
-6.5105,-5.9807,3.6672,0.0245,-0.3005,0.1198,-5.0E-4,0.0676,0.0139,3987,2019-08-07 16:33:33:176
-6.5105,-5.9807,3.6672,0.0245,-0.3005,0.1198,-0.0026,0.0271,0.0128,3993,2019-08-07 16:33:33:182
-6.4483,-5.9855,3.7049,0.0245,-0.3005,0.1198,-0.0026,0.0271,0.0128,3998,2019-08-07 16:33:33:187
-6.4483,-5.9855,3.7049,-0.0705,-0.2885,0.1169,-0.0069,-0.0251,0.0139,4003,2019-08-07 16:33:33:192
-6.4483,-5.9855,3.7049,-0.0705,-0.2885,0.1169,-0.0069,-0.0251,0.0139,4007,2019-08-07 16:33:33:196
-6.3574,-6.0237,3.6861,-0.0705,-0.2885,0.1169,-0.0069,-0.0592,0.0235,4013,2019-08-07 16:33:33:202
-6.3574,-6.0237,3.6861,-0.0705,-0.2885,0.1169,-0.0069,-0.0592,0.0235,4017,2019-08-07 16:33:33:206
-6.2234,-6.0285,3.6578,-0.2895,-0.266,0.1101,-0.0047,-0.0752,0.0309,4023,2019-08-07 16:33:33:212
-6.2234,-6.0285,3.6578,-0.2895,-0.266,0.1101,-0.0047,-0.0752,0.0309,4027,2019-08-07 16:33:33:216
-6.2234,-6.0285,3.6578,-0.2895,-0.266,0.1101,-0.0016,-0.0784,0.0373,4033,2019-08-07 16:33:33:222
-6.1182,-6.0141,3.5164,-0.2895,-0.266,0.1101,-0.0016,-0.0784,0.0373,4037,2019-08-07 16:33:33:226
-6.1182,-6.0141,3.5164,-0.4658,-0.2616,0.2979,-5.0E-4,-0.0528,0.0458,4043,2019-08-07 16:33:33:232
-6.1182,-6.0141,3.3844,-0.4658,-0.2616,0.2979,-5.0E-4,-0.0528,0.0458,4048,2019-08-07 16:33:33:237
-6.1325,-6.0666,3.3844,-0.4658,-0.2616,0.2979,-0.0026,-0.007,0.0469,4053,2019-08-07 16:33:33:242
-6.1325,-6.0666,3.3844,-0.4658,-0.2616,0.2979,-0.0026,-0.007,0.0469,4058,2019-08-07 16:33:33:247
-6.1086,-6.0953,3.375,-0.4658,-0.2616,0.2979,-0.0026,-0.007,0.0469,4062,2019-08-07 16:33:33:251
-6.1086,-6.0953,3.375,-0.3605,-0.2189,0.3822,-0.0037,0.0452,0.0384,4068,2019-08-07 16:33:33:257
-6.1086,-6.0953,3.375,-0.3605,-0.2189,0.3822,-0.0037,0.0452,0.0384,4073,2019-08-07 16:33:33:262
-6.2521,-6.1526,3.4881,-0.2693,-0.1314,0.2828,-0.0058,0.09,0.0298,4078,2019-08-07 16:33:33:267
-6.2521,-6.1526,3.4881,-0.2693,-0.1314,0.2828,-0.0058,0.09,0.0298,4082,2019-08-07 16:33:33:271
-6.2521,-6.1526,3.4881,-0.2693,-0.1314,0.2828,0.0027,0.1176,0.0192,4088,2019-08-07 16:33:33:277
-6.4387,-6.0762,3.5352,-0.2693,-0.1314,0.2828,0.0027,0.1176,0.0192,4092,2019-08-07 16:33:33:281
-6.4387,-6.0762,3.5352,-0.0082,-0.1905,0.1497,0.008,0.0931,0.0053,4098,2019-08-07 16:33:33:287
-6.5918,-5.9712,3.6389,-0.0082,-0.1905,0.1497,0.008,0.0931,0.0053,4102,2019-08-07 16:33:33:291
-6.5918,-5.9712,3.6389,-0.0082,-0.1905,0.1497,0.0048,0.0378,0.0032,4108,2019-08-07 16:33:33:297
-6.5918,-5.9712,3.6389,-0.0082,-0.1905,0.1497,0.0048,0.0378,0.0032,4112,2019-08-07 16:33:33:301
-6.5823,-5.9425,3.7144,0.0428,-0.3361,0.034,0.0038,-0.0272,-0.001,4118,2019-08-07 16:33:33:307
-6.5823,-5.9425,3.7144,0.0428,-0.3361,0.034,0.0038,-0.0272,-0.001,4123,2019-08-07 16:33:33:312
-6.5009,-5.9521,3.7144,-0.0375,-0.3259,0.0368,0.0059,-0.073,-0.001,4129,2019-08-07 16:33:33:318
-6.5009,-5.9521,3.7144,-0.0375,-0.3259,0.0368,0.0059,-0.073,-0.001,4132,2019-08-07 16:33:33:321
-6.5009,-5.9521,3.7144,-0.0375,-0.3259,0.0368,0.0048,-0.121,0.0107,4138,2019-08-07 16:33:33:327
-6.2378,-5.995,3.6107,-0.0375,-0.3259,0.0368,0.0048,-0.121,0.0107,4143,2019-08-07 16:33:33:332
-6.2378,-5.995,3.6107,-0.332,-0.2716,0.2074,0.007,-0.1359,0.0213,4148,2019-08-07 16:33:33:337
-6.1038,-6.0189,3.5305,-0.332,-0.2716,0.2074,0.007,-0.1359,0.0213,4152,2019-08-07 16:33:33:341
-6.1038,-6.0189,3.5305,-0.332,-0.2716,0.2074,0.007,-0.1359,0.0213,4158,2019-08-07 16:33:33:347
-6.1038,-6.0189,3.5305,-0.332,-0.2716,0.2074,0.007,-0.1082,0.0309,4162,2019-08-07 16:33:33:351
-6.0034,-6.0237,3.3702,-0.5221,-0.2494,0.4117,0.007,-0.1082,0.0309,4168,2019-08-07 16:33:33:357
-6.0034,-6.0237,3.3702,-0.5221,-0.2494,0.4117,0.0176,-0.0432,0.0373,4173,2019-08-07 16:33:33:362
-6.0416,-5.9855,3.4362,-0.5221,-0.2494,0.4117,0.0176,-0.0432,0.0373,4178,2019-08-07 16:33:33:367
-6.0416,-5.9855,3.4362,-0.5221,-0.2494,0.4117,0.0229,0.0196,0.0341,4182,2019-08-07 16:33:33:371
-6.0416,-5.9855,3.4362,-0.3908,-0.3397,0.3828,0.0229,0.0196,0.0341,4188,2019-08-07 16:33:33:377
-6.2282,-5.89,3.474,-0.3908,-0.3397,0.3828,0.0219,0.0836,0.0309,4193,2019-08-07 16:33:33:382
-6.2282,-5.89,3.474,-0.3908,-0.3397,0.3828,0.0219,0.0836,0.0309,4198,2019-08-07 16:33:33:387
-6.2282,-5.89,3.474,-0.3908,-0.3397,0.3828,0.0219,0.0836,0.0309,4202,2019-08-07 16:33:33:391
-6.3718,-5.8614,3.6389,-0.1688,-0.3997,0.1369,0.0261,0.1272,0.0373,4208,2019-08-07 16:33:33:397
-6.3718,-5.8614,3.6389,-0.1688,-0.3997,0.1369,0.0261,0.1272,0.0373,4212,2019-08-07 16:33:33:401
-6.5868,-5.828,3.6673,-0.1688,-0.3997,0.1369,0.0283,0.1283,0.0213,4218,2019-08-07 16:33:33:407
-6.5868,-5.828,3.6673,-0.1688,-0.3997,0.1369,0.0293,0.0868,0.0128,4223,2019-08-07 16:33:33:412
-6.5868,-5.828,3.6673,0.1572,-0.469,0.0262,0.0293,0.0868,0.0128,4228,2019-08-07 16:33:33:417
-6.716,-5.7993,3.7285,0.1572,-0.469,0.0262,0.0293,0.0868,0.0128,4232,2019-08-07 16:33:33:421
-6.716,-5.7993,3.7285,0.1572,-0.469,0.0262,0.0283,0.0037,0.0128,4238,2019-08-07 16:33:33:427
-6.6681,-5.8709,3.7285,0.1572,-0.469,0.0262,0.0283,0.0037,0.0128,4243,2019-08-07 16:33:33:432
-6.6681,-5.8709,3.7285,0.0286,-0.3959,-0.0555,0.0283,-0.0762,0.0096,4248,2019-08-07 16:33:33:437
-6.6681,-5.8709,3.7285,0.0286,-0.3959,-0.0555,0.0283,-0.0762,0.0096,4252,2019-08-07 16:33:33:441
-6.405,-5.9235,3.7851,0.0286,-0.3959,-0.0555,0.0293,-0.1327,0.0107,4258,2019-08-07 16:33:33:447
-6.405,-5.9235,3.7851,0.0286,-0.3959,-0.0555,0.0293,-0.1327,0.0107,4262,2019-08-07 16:33:33:451
-6.405,-5.9235,3.7851,-0.2651,-0.2626,0.0264,0.0304,-0.1519,0.0096,4268,2019-08-07 16:33:33:457
-6.2806,-5.9616,3.6107,-0.2651,-0.2626,0.0264,0.0304,-0.1519,0.0096,4273,2019-08-07 16:33:33:462
-6.2806,-5.9616,3.6107,-0.2651,-0.2626,0.0264,0.0283,-0.1412,0.0149,4278,2019-08-07 16:33:33:467
-6.1562,-5.89,3.5353,-0.2651,-0.2626,0.0264,0.0283,-0.1412,0.0149,4283,2019-08-07 16:33:33:472
-6.1562,-5.89,3.5353,-0.4428,-0.2922,0.2033,0.0059,-0.1284,0.0203,4288,2019-08-07 16:33:33:477
-6.1466,-5.9187,3.606,-0.4428,-0.2922,0.2033,0.0059,-0.1284,0.0203,4293,2019-08-07 16:33:33:482
-6.1466,-5.9187,3.606,-0.4428,-0.2922,0.2033,0.0187,-0.1061,0.0139,4298,2019-08-07 16:33:33:487
-6.1466,-5.9187,3.606,-0.4428,-0.2922,0.2033,0.0187,-0.1061,0.0139,4302,2019-08-07 16:33:33:491
-6.1466,-5.9187,3.606,-0.4428,-0.2922,0.2033,0.0187,-0.1061,0.0139,4308,2019-08-07 16:33:33:497
-6.1993,-5.9616,3.3514,-0.3346,-0.2764,0.4738,-0.0143,-0.1178,-0.0042,4312,2019-08-07 16:33:33:501
-6.1993,-5.9616,3.3514,-0.3346,-0.2764,0.4738,-0.0143,-0.1178,-0.0042,4318,2019-08-07 16:33:33:507
-6.2184,-5.9091,3.7898,-0.3346,-0.2764,0.4738,-0.0111,-0.0784,0.0075,4323,2019-08-07 16:33:33:512
-6.2184,-5.9091,3.7898,-0.3473,-0.291,0.06,-0.0111,-0.0784,0.0075,4327,2019-08-07 16:33:33:516
-6.2184,-5.9091,3.7898,-0.3473,-0.291,0.06,0.04,-0.0304,0.016,4333,2019-08-07 16:33:33:522
-6.204,-6.0571,3.6343,-0.3473,-0.291,0.06,0.04,-0.0304,0.016,4337,2019-08-07 16:33:33:526
-6.204,-6.0571,3.6343,-0.3473,-0.291,0.06,0.0389,-0.0251,0.0117,4343,2019-08-07 16:33:33:532
-6.3045,-5.9569,3.7003,-0.2221,-0.277,0.1439,0.0389,-0.0251,0.0117,4348,2019-08-07 16:33:33:537
-6.3045,-5.9569,3.7003,-0.2221,-0.277,0.1439,0.0155,-0.04,0.0107,4353,2019-08-07 16:33:33:542
-6.3045,-5.9569,3.7003,-0.2221,-0.277,0.1439,0.0155,-0.04,0.0107,4358,2019-08-07 16:33:33:547
-6.3093,-6.0333,3.7757,-0.2163,-0.1992,0.0725,0.0208,-0.0411,0.0043,4363,2019-08-07 16:33:33:552
-6.3093,-6.0333,3.7757,-0.2163,-0.1992,0.0725,0.0208,-0.0411,0.0043,4367,2019-08-07 16:33:33:556
-6.2901,-6.038,3.7427,-0.2163,-0.1992,0.0725,0.0325,-0.0698,0.0075,4373,2019-08-07 16:33:33:562
-6.2901,-6.038,3.7427,-0.2647,-0.1344,0.0842,0.0325,-0.0698,0.0075,4378,2019-08-07 16:33:33:567
-6.2901,-6.038,3.7427,-0.2647,-0.1344,0.0842,0.04,-0.0826,0.0011,4383,2019-08-07 16:33:33:572
-6.2375,-6.0762,3.7804,-0.2647,-0.1344,0.0842,0.04,-0.0826,0.0011,4388,2019-08-07 16:33:33:577
-6.2375,-6.0762,3.7804,-0.2647,-0.1344,0.0842,0.0443,-0.0837,0.0,4393,2019-08-07 16:33:33:582
-6.2375,-6.0762,3.7804,-0.2647,-0.1344,0.0842,0.0443,-0.0837,0.0,4397,2019-08-07 16:33:33:586
-6.1897,-5.9998,3.6437,-0.3247,-0.227,0.2326,0.0421,-0.0624,-0.0021,4403,2019-08-07 16:33:33:592
-6.1897,-5.9998,3.6437,-0.3247,-0.227,0.2326,0.0421,-0.0624,-0.0021,4407,2019-08-07 16:33:33:596
-6.1418,-5.9473,3.5824,-0.3247,-0.227,0.2326,0.0421,-0.0624,-0.0021,4413,2019-08-07 16:33:33:602
-6.1418,-5.9473,3.5824,-0.3637,-0.2528,0.3005,0.0347,-0.0357,0.0032,4418,2019-08-07 16:33:33:607
-6.1418,-5.9473,3.5824,-0.3637,-0.2528,0.3005,0.0347,-0.0357,0.0032,4422,2019-08-07 16:33:33:611
-6.204,-5.8996,3.7003,-0.3637,-0.2528,0.3005,0.0208,-6.0E-4,-0.0053,4428,2019-08-07 16:33:33:617
-6.204,-5.8996,3.7003,-0.3637,-0.2528,0.3005,0.0208,-6.0E-4,-0.0053,4433,2019-08-07 16:33:33:622
-6.204,-5.8996,3.7003,-0.3637,-0.2528,0.3005,0.007,0.0207,-0.0106,4437,2019-08-07 16:33:33:626
-6.3141,-5.9616,3.804,-0.196,-0.262,0.0847,0.007,0.0207,-0.0106,4443,2019-08-07 16:33:33:632
-6.3141,-5.9616,3.804,-0.196,-0.262,0.0847,0.0016,0.0335,-0.0192,4447,2019-08-07 16:33:33:636
-6.3762,-5.8662,3.8323,-0.196,-0.262,0.0847,0.0016,0.0335,-0.0192,4453,2019-08-07 16:33:33:642
-6.3762,-5.8662,3.8323,-0.196,-0.262,0.0847,6.0E-4,0.0335,-0.0277,4458,2019-08-07 16:33:33:647
-6.3762,-5.8662,3.8323,-0.1008,-0.4164,0.0623,6.0E-4,0.0335,-0.0277,4463,2019-08-07 16:33:33:652
-6.3954,-5.7755,3.8087,-0.1008,-0.4164,0.0623,-0.0037,0.0175,-0.0351,4468,2019-08-07 16:33:33:657
-6.3954,-5.7755,3.8087,-0.1008,-0.4164,0.0623,-0.0037,0.0175,-0.0351,4472,2019-08-07 16:33:33:661
-6.4432,-5.7993,3.8794,-0.1008,-0.4164,0.0623,-0.009,0.0047,-0.0394,4478,2019-08-07 16:33:33:667
-6.4432,-5.7993,3.8794,-0.0748,-0.4386,0.0042,-0.009,0.0047,-0.0394,4483,2019-08-07 16:33:33:672
-6.4432,-5.7993,3.8794,-0.0748,-0.4386,0.0042,-0.0069,-0.0294,-0.0351,4488,2019-08-07 16:33:33:677
-6.4289,-5.8423,3.9124,-0.0748,-0.4386,0.0042,-0.0069,-0.0294,-0.0351,4493,2019-08-07 16:33:33:682
-6.4289,-5.8423,3.9124,-0.0748,-0.4386,0.0042,-0.0037,-0.0624,-0.0341,4498,2019-08-07 16:33:33:687
-6.2566,-5.8853,3.8134,-0.2359,-0.3756,0.0984,-0.0037,-0.0624,-0.0341,4503,2019-08-07 16:33:33:692
-6.2566,-5.8853,3.8134,-0.2359,-0.3756,0.0984,-0.0037,-0.0624,-0.0341,4508,2019-08-07 16:33:33:697
-6.2566,-5.8853,3.8134,-0.2359,-0.3756,0.0984,-0.0133,-0.0784,-0.0341,4513,2019-08-07 16:33:33:702
-6.1322,-5.8519,3.7003,-0.2359,-0.3756,0.0984,-0.0133,-0.0784,-0.0341,4518,2019-08-07 16:33:33:707
-6.1322,-5.8519,3.7003,-0.4126,-0.3088,0.2957,-0.0207,-0.0773,-0.0192,4522,2019-08-07 16:33:33:711
-6.094,-5.9139,3.5871,-0.4126,-0.3088,0.2957,-0.0207,-0.0773,-0.0192,4528,2019-08-07 16:33:33:717
-6.094,-5.9139,3.5871,-0.4126,-0.3088,0.2957,-0.0239,-0.0571,-0.0138,4533,2019-08-07 16:33:33:722
-6.094,-5.9139,3.5871,-0.4126,-0.3088,0.2957,-0.0239,-0.0571,-0.0138,4537,2019-08-07 16:33:33:726
-6.1035,-5.976,3.6579,-0.3817,-0.2657,0.2434,-0.0197,-0.0272,-0.017,4543,2019-08-07 16:33:33:732
-6.1035,-5.976,3.6579,-0.3817,-0.2657,0.2434,-0.0197,-0.0272,-0.017,4548,2019-08-07 16:33:33:737
-6.1035,-5.976,3.6579,-0.3817,-0.2657,0.2434,-0.0197,-0.0272,-0.017,4552,2019-08-07 16:33:33:741
-6.0796,-6.0333,3.6579,-0.3817,-0.2657,0.2434,-0.0026,0.0069,-0.0309,4558,2019-08-07 16:33:33:747
-6.0796,-6.0333,3.6579,-0.2959,-0.2278,0.2237,-0.0026,0.0069,-0.0309,4563,2019-08-07 16:33:33:752
-6.3571,-5.8232,3.8087,-0.2959,-0.2278,0.2237,0.0155,0.0314,-0.0298,4568,2019-08-07 16:33:33:757
-6.3571,-5.8232,3.8087,-0.2959,-0.2278,0.2237,0.0155,0.0314,-0.0298,4573,2019-08-07 16:33:33:762
-6.3571,-5.8232,3.8087,-0.2959,-0.2278,0.2237,0.0176,0.0196,-0.0181,4577,2019-08-07 16:33:33:766
-6.6346,-5.7182,3.6579,0.1534,-0.5288,0.2416,0.0176,0.0196,-0.0181,4583,2019-08-07 16:33:33:772
-6.6346,-5.7182,3.6579,0.1534,-0.5288,0.2416,-0.0388,-0.056,-0.0032,4588,2019-08-07 16:33:33:777
-6.6346,-5.7182,3.6579,0.1534,-0.5288,0.2416,-0.0388,-0.056,-0.0032,4592,2019-08-07 16:33:33:781
-6.3954,-5.8375,3.4787,-0.0853,-0.4096,0.4214,-0.0388,-0.056,-0.0032,4598,2019-08-07 16:33:33:787
-6.3954,-5.8375,3.4787,-0.0853,-0.4096,0.4214,-0.09,-0.089,-0.0096,4602,2019-08-07 16:33:33:791
-6.0318,-6.1096,3.7757,-0.0853,-0.4096,0.4214,-0.09,-0.089,-0.0096,4608,2019-08-07 16:33:33:797
-6.0318,-6.1096,3.7757,-0.4316,-0.1266,0.0769,-0.0697,-0.0624,-0.0117,4613,2019-08-07 16:33:33:802
-6.0318,-6.1096,3.7757,-0.4316,-0.1266,0.0769,-0.0697,-0.0624,-0.0117,4617,2019-08-07 16:33:33:806
-6.1131,-6.1717,3.6201,-0.4316,-0.1266,0.0769,-0.0271,-0.1316,-0.0053,4623,2019-08-07 16:33:33:812
-6.1131,-6.1717,3.6201,-0.4316,-0.1266,0.0769,-0.0271,-0.1316,-0.0053,4628,2019-08-07 16:33:33:817
-6.0365,-6.0667,4.1952,-0.4293,-0.1892,-0.2846,0.1039,-0.0634,0.0203,4632,2019-08-07 16:33:33:821
-6.0365,-6.0667,4.1952,-0.4293,-0.1892,-0.2846,0.1039,-0.0634,0.0203,4638,2019-08-07 16:33:33:827
-6.0365,-6.0667,4.1952,-0.4293,-0.1892,-0.2846,0.1444,-0.0869,-0.0053,4642,2019-08-07 16:33:33:831
-6.204,-5.8328,3.4646,-0.4293,-0.1892,-0.2846,0.1444,-0.0869,-0.0053,4648,2019-08-07 16:33:33:837
-6.204,-5.8328,3.4646,-0.16,-0.5132,0.3356,0.1444,-0.0869,-0.0053,4653,2019-08-07 16:33:33:842
-6.204,-5.8328,3.4646,-0.16,-0.5132,0.3356,0.0517,-0.1103,-0.0042,4658,2019-08-07 16:33:33:847
-6.2183,-5.7277,3.7239,-0.16,-0.5132,0.3356,0.0517,-0.1103,-0.0042,4662,2019-08-07 16:33:33:851
-6.2183,-5.7277,3.7239,-0.16,-0.5132,0.3356,0.0411,-0.1071,-0.0021,4668,2019-08-07 16:33:33:857
-6.2183,-5.7277,3.7239,-0.4908,-0.2375,0.1156,0.0411,-0.1071,-0.0021,4672,2019-08-07 16:33:33:861
-5.9791,-5.9712,3.8276,-0.4908,-0.2375,0.1156,0.0592,-0.0688,-0.0192,4678,2019-08-07 16:33:33:867
-5.9791,-5.9712,3.8276,-0.4908,-0.2375,0.1156,0.0592,-0.0688,-0.0192,4683,2019-08-07 16:33:33:872
-5.9791,-5.9712,3.8276,-0.4908,-0.2375,0.1156,0.0805,0.0164,-0.0277,4688,2019-08-07 16:33:33:877
-5.9935,-5.9187,3.7804,-0.4036,-0.3261,0.2085,0.0805,0.0164,-0.0277,4693,2019-08-07 16:33:33:882
-5.9935,-5.9187,3.7804,-0.4036,-0.3261,0.2085,0.089,0.1081,-0.0298,4698,2019-08-07 16:33:33:887
-5.9982,-5.8996,3.8936,-0.4036,-0.3261,0.2085,0.089,0.1081,-0.0298,4703,2019-08-07 16:33:33:892
-5.9982,-5.8996,3.8936,-0.4036,-0.3261,0.2085,0.089,0.1081,-0.0298,4708,2019-08-07 16:33:33:897
-5.9982,-5.8996,3.8936,-0.3043,-0.5183,0.1383,0.0869,0.1613,-0.0287,4713,2019-08-07 16:33:33:902
-6.2231,-5.6895,3.8417,-0.3043,-0.5183,0.1383,0.0869,0.1613,-0.0287,4717,2019-08-07 16:33:33:906
-6.2231,-5.6895,3.8417,-0.3043,-0.5183,0.1383,0.0261,0.1581,-0.0245,4723,2019-08-07 16:33:33:912
-6.2231,-5.6895,3.8417,-0.3043,-0.5183,0.1383,0.0261,0.1581,-0.0245,4728,2019-08-07 16:33:33:917
-6.5054,-5.6275,3.9878,0.0348,-0.5359,-0.0549,-0.0197,0.0836,-0.017,4732,2019-08-07 16:33:33:921
-6.5054,-5.6275,3.9878,0.0348,-0.5359,-0.0549,-0.0197,0.0836,-0.017,4738,2019-08-07 16:33:33:927
-6.4145,-5.723,3.9784,0.0238,-0.5518,0.0488,-0.0527,0.0239,-0.0223,4744,2019-08-07 16:33:33:933
-6.4145,-5.723,3.9784,0.0238,-0.5518,0.0488,-0.0527,0.0239,-0.0223,4748,2019-08-07 16:33:33:937
-6.4145,-5.723,3.9784,0.0238,-0.5518,0.0488,-0.0878,-0.0038,0.0,4753,2019-08-07 16:33:33:942
-6.1465,-5.8423,3.8323,0.0238,-0.5518,0.0488,-0.0878,-0.0038,0.0,4757,2019-08-07 16:33:33:946