ACCELEROMETER X (m/s²),ACCELEROMETER Y (m/s²),ACCELEROMETER Z (m/s²),LINEAR ACCELERATION X (m/s²),LINEAR ACCELERATION Y (m/s²),LINEAR ACCELERATION Z (m/s²),GYROSCOPE X (rad/s),GYROSCOPE Y (rad/s),GYROSCOPE Z (rad/s),Time since start in ms ,YYYY-MO-DD HH-MI-SS_SSS
-6.8067,-5.6709,2.8528,-0.2891,-0.3524,0.1751,0.0144,0.0015,0.0033,3,2019-08-07 16:33:16:164
-6.8067,-5.6709,2.8528,-0.2891,-0.3524,0.1751,0.0165,0.0079,0.0075,8,2019-08-07 16:33:16:169
-6.7972,-5.6423,2.834,-0.3525,-0.3742,0.1525,0.0165,0.0079,0.0075,13,2019-08-07 16:33:16:174
-6.7972,-5.6423,2.834,-0.3525,-0.3742,0.1525,0.0165,0.0079,0.0075,18,2019-08-07 16:33:16:179
-6.7972,-5.6423,2.834,-0.3525,-0.3742,0.1525,0.024,0.0122,0.0139,23,2019-08-07 16:33:16:184
-6.8402,-5.6232,2.8434,-0.3525,-0.3742,0.1525,0.024,0.0122,0.0139,27,2019-08-07 16:33:16:188
-6.8402,-5.6232,2.8434,-0.2978,-0.4228,0.107,0.0251,0.0058,0.015,34,2019-08-07 16:33:16:195
-6.8977,-5.5754,2.8764,-0.2978,-0.4228,0.107,0.0251,0.0058,0.015,37,2019-08-07 16:33:16:198
-6.8977,-5.5754,2.8764,-0.2978,-0.4228,0.107,0.0251,0.0058,0.015,42,2019-08-07 16:33:16:203
-6.8977,-5.5754,2.8764,-0.2978,-0.4228,0.107,0.0251,-0.0049,0.0224,49,2019-08-07 16:33:16:210
-6.845,-5.585,2.8952,-0.3153,-0.4458,0.0729,0.0144,-0.0049,0.0246,53,2019-08-07 16:33:16:214
-6.845,-5.585,2.8952,-0.3153,-0.4458,0.0729,0.0144,-0.0049,0.0246,58,2019-08-07 16:33:16:219
-6.845,-5.585,2.8952,-0.3153,-0.4458,0.0729,0.0144,-0.0049,0.0246,62,2019-08-07 16:33:16:223
-6.8594,-5.5945,2.8858,-0.3153,-0.4458,0.0729,0.0102,-0.0027,0.0288,68,2019-08-07 16:33:16:229
-6.8594,-5.5945,2.8858,-0.3669,-0.4546,0.1129,0.0102,-0.0027,0.0288,73,2019-08-07 16:33:16:234
-6.7972,-5.585,2.8434,-0.3669,-0.4546,0.1129,0.0155,0.01,0.0331,78,2019-08-07 16:33:16:239
-6.7972,-5.585,2.8434,-0.3669,-0.4546,0.1129,0.0112,0.0239,0.0373,83,2019-08-07 16:33:16:244
-6.7972,-5.585,2.8434,-0.3669,-0.4546,0.1129,0.0112,0.0239,0.0373,88,2019-08-07 16:33:16:249
-6.8211,-5.6757,2.8151,-0.3669,-0.4546,0.1129,0.0112,0.0239,0.0373,93,2019-08-07 16:33:16:254
-6.8211,-5.6757,2.8151,-0.2581,-0.4578,0.1536,0.0144,0.0377,0.0363,97,2019-08-07 16:33:16:258
-6.9312,-5.6136,2.8764,-0.2581,-0.4578,0.1536,0.0144,0.0377,0.0363,103,2019-08-07 16:33:16:264
-6.9312,-5.6136,2.8764,-0.2581,-0.4578,0.1536,0.0123,0.0313,0.0373,108,2019-08-07 16:33:16:269
-6.9312,-5.6136,2.8764,-0.2581,-0.4578,0.1536,0.0123,0.0313,0.0373,112,2019-08-07 16:33:16:273
-6.9407,-5.6518,2.8434,-0.2315,-0.3362,0.1462,0.0123,0.0175,0.0363,118,2019-08-07 16:33:16:279
-6.9407,-5.6518,2.8434,-0.2315,-0.3362,0.1462,0.0123,0.0175,0.0363,122,2019-08-07 16:33:16:283
-6.9695,-5.6327,2.9094,-0.2315,-0.3362,0.1462,0.0208,0.0122,0.0373,128,2019-08-07 16:33:16:289
-6.9695,-5.6327,2.9094,-0.2315,-0.3362,0.1462,0.0208,0.0122,0.0373,133,2019-08-07 16:33:16:294
-6.9695,-5.6327,2.9094,-0.2233,-0.3669,0.1184,0.0208,0.0122,0.0373,137,2019-08-07 16:33:16:298
-6.9886,-5.6136,2.9094,-0.2233,-0.3669,0.1184,0.0251,-6.0E-4,0.0373,143,2019-08-07 16:33:16:304
-6.9886,-5.6136,2.9094,-0.2233,-0.3669,0.1184,0.0229,-0.0113,0.0352,149,2019-08-07 16:33:16:310
-6.936,-5.6089,2.8811,-0.2233,-0.3669,0.1184,0.0229,-0.0113,0.0352,152,2019-08-07 16:33:16:313
-6.936,-5.6089,2.8811,-0.2617,-0.3734,0.1081,0.0229,-0.0113,0.0352,158,2019-08-07 16:33:16:319
-6.936,-5.6089,2.8811,-0.2617,-0.3734,0.1081,0.0187,-0.0102,0.032,162,2019-08-07 16:33:16:323
-6.936,-5.5516,2.8575,-0.2617,-0.3734,0.1081,0.0187,-0.0102,0.032,168,2019-08-07 16:33:16:329
-6.936,-5.5516,2.8575,-0.2617,-0.3734,0.1081,0.0165,0.0026,0.0331,172,2019-08-07 16:33:16:333
-6.9456,-5.6089,2.8905,-0.2851,-0.3285,0.1019,0.0165,0.0026,0.0331,178,2019-08-07 16:33:16:339
-6.9456,-5.6089,2.8905,-0.2851,-0.3285,0.1019,0.0155,0.0282,0.0235,183,2019-08-07 16:33:16:344
-6.9456,-5.6089,2.8905,-0.2851,-0.3285,0.1019,0.0155,0.0282,0.0235,188,2019-08-07 16:33:16:349
-6.9456,-5.6089,2.8292,-0.2851,-0.3285,0.1019,0.0155,0.0282,0.0235,193,2019-08-07 16:33:16:354
-6.9456,-5.6089,2.8292,-0.218,-0.338,0.1519,0.0102,0.0356,0.016,198,2019-08-07 16:33:16:359
-6.9408,-5.6089,2.9188,-0.218,-0.338,0.1519,0.0102,0.0356,0.016,203,2019-08-07 16:33:16:364
-6.9408,-5.6089,2.9188,-0.218,-0.338,0.1519,0.0102,0.0377,0.0192,208,2019-08-07 16:33:16:369
-6.9408,-5.6089,2.9188,-0.218,-0.338,0.1519,0.0102,0.0377,0.0192,213,2019-08-07 16:33:16:374
-6.9264,-5.7139,2.9046,-0.2275,-0.2579,0.0584,0.0144,0.0367,0.015,217,2019-08-07 16:33:16:378
-6.9264,-5.7139,2.9046,-0.2275,-0.2579,0.0584,0.0144,0.0367,0.015,223,2019-08-07 16:33:16:384
-6.9264,-5.7139,2.9046,-0.2275,-0.2579,0.0584,0.024,0.0292,0.0118,228,2019-08-07 16:33:16:389
-7.046,-5.6566,2.9424,-0.2275,-0.2579,0.0584,0.024,0.0292,0.0118,233,2019-08-07 16:33:16:394
-7.046,-5.6566,2.9424,-0.1835,-0.3064,0.0336,0.0293,0.01,0.016,238,2019-08-07 16:33:16:399
-6.9839,-5.6948,2.9235,-0.1835,-0.3064,0.0336,0.0293,0.01,0.016,243,2019-08-07 16:33:16:404
-6.9839,-5.6948,2.9235,-0.1835,-0.3064,0.0336,0.0261,-0.0123,0.0192,249,2019-08-07 16:33:16:410
-6.9839,-5.6948,2.9235,-0.1835,-0.3064,0.0336,0.0261,-0.0123,0.0192,252,2019-08-07 16:33:16:413
-6.9686,-5.7283,2.9567,-0.2339,-0.2207,0.0382,0.0272,-0.0209,0.0107,258,2019-08-07 16:33:16:419
-6.9686,-5.7283,2.9567,-0.2339,-0.2207,0.0382,0.0272,-0.0209,0.0107,264,2019-08-07 16:33:16:425
-6.9686,-5.7283,2.9567,-0.2339,-0.2207,0.0382,0.0325,-0.0187,0.0107,268,2019-08-07 16:33:16:429
-6.916,-5.7187,2.985,-0.2339,-0.2207,0.0382,0.0325,-0.0187,0.0107,273,2019-08-07 16:33:16:434
-6.916,-5.7187,2.985,-0.2916,-0.1929,0.0499,0.0357,-0.0134,0.0107,277,2019-08-07 16:33:16:438
-6.8634,-5.7283,2.9661,-0.2916,-0.1929,0.0499,0.0357,-0.0134,0.0107,283,2019-08-07 16:33:16:444
-6.8634,-5.7283,2.9661,-0.2916,-0.1929,0.0499,0.0315,-0.007,0.0054,287,2019-08-07 16:33:16:448
-6.9351,-5.7187,2.9048,-0.2916,-0.1929,0.0499,0.0315,-0.007,0.0054,293,2019-08-07 16:33:16:454
-6.9351,-5.7187,2.9048,-0.2058,-0.2141,0.0736,0.0304,0.0122,-0.001,298,2019-08-07 16:33:16:459
-6.9351,-5.7187,2.9048,-0.2058,-0.2141,0.0736,0.0304,0.0122,-0.001,303,2019-08-07 16:33:16:464
-6.9734,-5.6615,2.9661,-0.2058,-0.2141,0.0736,0.0304,0.0122,-0.001,308,2019-08-07 16:33:16:469
-6.9734,-5.6615,2.9661,-0.2058,-0.2141,0.0736,0.0293,0.0228,-0.0085,314,2019-08-07 16:33:16:475
-7.0547,-5.6996,2.9897,-0.1492,-0.2411,0.0181,0.0293,0.0228,-0.0085,318,2019-08-07 16:33:16:479
-7.0547,-5.6996,2.9897,-0.1492,-0.2411,0.0181,0.0229,0.0218,-0.0138,322,2019-08-07 16:33:16:483
-7.0547,-5.6996,2.9897,-0.1492,-0.2411,0.0181,0.0229,0.0218,-0.0138,328,2019-08-07 16:33:16:489
-7.0739,-5.7522,2.9944,-0.1492,-0.2411,0.0181,0.0197,0.01,-0.0223,333,2019-08-07 16:33:16:494
-7.0739,-5.7522,2.9944,-0.0671,-0.1892,0.0093,0.0197,0.01,-0.0223,337,2019-08-07 16:33:16:498
-7.0978,-5.7187,3.018,-0.0671,-0.1892,0.0093,0.0219,-0.007,-0.0298,343,2019-08-07 16:33:16:504
-7.0978,-5.7187,3.018,-0.0671,-0.1892,0.0093,0.0219,-0.007,-0.0298,348,2019-08-07 16:33:16:509
-7.0978,-5.7187,3.018,-0.0671,-0.1892,0.0093,0.0293,-0.023,-0.0404,353,2019-08-07 16:33:16:514
-7.0786,-5.6758,3.0133,-0.1536,-0.3016,0.0573,0.0293,-0.023,-0.0404,357,2019-08-07 16:33:16:518
-7.0786,-5.6758,3.0133,-0.1536,-0.3016,0.0573,0.0315,-0.0411,-0.0468,363,2019-08-07 16:33:16:524
-7.0403,-5.5946,2.9378,-0.1536,-0.3016,0.0573,0.0315,-0.0411,-0.0468,368,2019-08-07 16:33:16:529
-7.0403,-5.5946,2.9378,-0.1536,-0.3016,0.0573,0.0347,-0.0411,-0.0521,373,2019-08-07 16:33:16:534
-7.0403,-5.5946,2.9378,-0.2082,-0.3486,0.0863,0.0347,-0.0411,-0.0521,377,2019-08-07 16:33:16:538
-6.9303,-5.5851,2.9048,-0.2082,-0.3486,0.0863,0.0315,-0.0475,-0.0521,383,2019-08-07 16:33:16:544
-6.9303,-5.5851,2.9048,-0.2082,-0.3486,0.0863,0.0315,-0.0475,-0.0521,388,2019-08-07 16:33:16:549
-6.9303,-5.5851,2.9048,-0.2082,-0.3486,0.0863,0.0315,-0.0475,-0.0521,392,2019-08-07 16:33:16:553
-6.9064,-5.5517,2.919,-0.3382,-0.4684,0.1535,0.0261,-0.0485,-0.0585,398,2019-08-07 16:33:16:559
-6.9064,-5.5517,2.919,-0.3382,-0.4684,0.1535,0.0261,-0.0485,-0.0585,402,2019-08-07 16:33:16:563
-6.8585,-5.5039,2.82,-0.3382,-0.4684,0.1535,0.0187,-0.0336,-0.0521,408,2019-08-07 16:33:16:569
-6.8585,-5.5039,2.82,-0.3382,-0.4684,0.1535,0.0187,-0.0336,-0.0521,413,2019-08-07 16:33:16:574
-6.8585,-5.5039,2.82,-0.3382,-0.4684,0.1535,0.0187,-0.024,-0.0521,417,2019-08-07 16:33:16:578
-6.782,-5.4848,2.82,-0.3829,-0.4646,0.1466,0.0187,-0.024,-0.0521,423,2019-08-07 16:33:16:584
-6.782,-5.4848,2.82,-0.3829,-0.4646,0.1466,0.0144,-0.0102,-0.0479,428,2019-08-07 16:33:16:589
-6.8202,-5.4323,2.8106,-0.3829,-0.4646,0.1466,0.0144,-0.0102,-0.0479,433,2019-08-07 16:33:16:594
-6.8202,-5.4323,2.8106,-0.3106,-0.5123,0.1404,0.0091,-6.0E-4,-0.0383,438,2019-08-07 16:33:16:599
-6.8202,-5.4323,2.8106,-0.3106,-0.5123,0.1404,0.0091,-6.0E-4,-0.0383,443,2019-08-07 16:33:16:604
-6.8059,-5.3846,2.8766,-0.3106,-0.5123,0.1404,0.0091,-6.0E-4,-0.0383,447,2019-08-07 16:33:16:608
-6.8059,-5.3846,2.8766,-0.3106,-0.5123,0.1404,0.008,-0.0091,-0.0266,453,2019-08-07 16:33:16:614
-6.8059,-5.3846,2.8766,-0.3106,-0.5123,0.1404,0.008,-0.0091,-0.0266,458,2019-08-07 16:33:16:619
-6.8489,-5.3941,2.9944,-0.3173,-0.5718,0.0534,0.0027,-0.0145,-0.0159,463,2019-08-07 16:33:16:624
-6.8489,-5.3941,2.9944,-0.3173,-0.5718,0.0534,0.0027,-0.0145,-0.0159,468,2019-08-07 16:33:16:629
-6.8011,-5.3894,2.9331,-0.3173,-0.5718,0.0534,-0.0101,-0.024,0.0011,473,2019-08-07 16:33:16:634
-6.8011,-5.3894,2.9331,-0.3173,-0.5718,0.0534,-0.0101,-0.024,0.0011,478,2019-08-07 16:33:16:639
-6.8011,-5.3894,2.9331,-0.4649,-0.5235,0.1551,-0.0186,-0.0219,0.0043,483,2019-08-07 16:33:16:644
-6.7389,-5.4657,2.9049,-0.4649,-0.5235,0.1551,-0.0186,-0.0219,0.0043,488,2019-08-07 16:33:16:649
-6.7389,-5.4657,2.9049,-0.4649,-0.5235,0.1551,-0.0175,-0.0134,0.0086,492,2019-08-07 16:33:16:653
-6.7102,-5.4753,2.8907,-0.4649,-0.5235,0.1551,-0.0175,-0.0134,0.0086,499,2019-08-07 16:33:16:660
-6.7102,-5.4753,2.8907,-0.4653,-0.4559,0.1745,-0.0143,0.0111,0.0128,502,2019-08-07 16:33:16:663
-6.7102,-5.4753,2.8907,-0.4653,-0.4559,0.1745,-0.0143,0.0111,0.0128,508,2019-08-07 16:33:16:669
-6.7006,-5.4419,2.985,-0.4653,-0.4559,0.1745,-0.0112,0.0271,0.0171,512,2019-08-07 16:33:16:673
-6.7006,-5.4419,2.985,-0.4653,-0.4559,0.1745,-0.0112,0.0271,0.0171,518,2019-08-07 16:33:16:679
-6.7771,-5.4848,3.051,-0.4018,-0.4822,0.0202,-0.0112,0.0271,0.0171,522,2019-08-07 16:33:16:683
-6.7771,-5.4848,3.051,-0.4018,-0.4822,0.0202,-0.0122,0.0367,0.0256,528,2019-08-07 16:33:16:689
-6.7771,-5.4848,3.051,-0.3184,-0.4374,0.0457,-0.0122,0.0367,0.0256,533,2019-08-07 16:33:16:694
-6.8537,-5.5039,2.985,-0.3184,-0.4374,0.0457,-0.0122,0.0292,0.0288,537,2019-08-07 16:33:16:698
-6.8537,-5.5039,2.985,-0.3184,-0.4374,0.0457,-0.0122,0.0292,0.0288,543,2019-08-07 16:33:16:704
-6.8776,-5.5278,3.0698,-0.3184,-0.4374,0.0457,-0.0101,0.0079,0.0363,548,2019-08-07 16:33:16:709
-6.8776,-5.5278,3.0698,-0.3338,-0.418,-0.057,-0.0101,0.0079,0.0363,553,2019-08-07 16:33:16:714
-6.8776,-5.5278,3.0698,-0.3338,-0.418,-0.057,-0.0101,0.0079,0.0363,558,2019-08-07 16:33:16:719
-6.801,-5.566,3.0086,-0.3338,-0.418,-0.057,-0.008,-0.0155,0.0405,563,2019-08-07 16:33:16:724
-6.801,-5.566,3.0086,-0.3338,-0.418,-0.057,-0.008,-0.0155,0.0405,568,2019-08-07 16:33:16:729
-6.8537,-5.5517,2.8907,-0.3524,-0.4119,0.1335,-0.0154,-0.024,0.0416,573,2019-08-07 16:33:16:734
-6.8537,-5.5517,2.8907,-0.3524,-0.4119,0.1335,-0.0154,-0.024,0.0416,578,2019-08-07 16:33:16:739
-6.8537,-5.5517,2.8907,-0.3524,-0.4119,0.1335,-0.0165,-0.0155,0.0512,583,2019-08-07 16:33:16:744
-6.8154,-5.6042,2.9991,-0.3524,-0.4119,0.1335,-0.0165,-0.0155,0.0512,588,2019-08-07 16:33:16:749
-6.8154,-5.6042,2.9991,-0.4194,-0.3196,0.2051,-0.0133,-0.0059,0.0544,593,2019-08-07 16:33:16:754
-6.7915,-5.6806,2.8342,-0.4194,-0.3196,0.2051,-0.0133,-0.0059,0.0544,598,2019-08-07 16:33:16:759
-6.7915,-5.6806,2.8342,-0.4194,-0.3196,0.2051,-0.0058,0.0143,0.0544,603,2019-08-07 16:33:16:764
-6.7915,-5.6806,2.8342,-0.4194,-0.3196,0.2051,-0.0058,0.0143,0.0544,608,2019-08-07 16:33:16:769
-6.8967,-5.6806,2.8059,-0.2977,-0.255,0.2347,-0.008,0.0377,0.0576,613,2019-08-07 16:33:16:774
-6.8967,-5.6806,2.8059,-0.2977,-0.255,0.2347,-0.008,0.0377,0.0576,618,2019-08-07 16:33:16:779
-6.9972,-5.6471,2.9756,-0.2977,-0.255,0.2347,-0.0026,0.0484,0.0512,623,2019-08-07 16:33:16:784
-6.9972,-5.6471,2.9756,-0.2977,-0.255,0.2347,-0.0026,0.0484,0.0512,628,2019-08-07 16:33:16:789
-6.9972,-5.6471,2.9756,-0.1254,-0.2282,0.067,0.0027,0.0399,0.0437,633,2019-08-07 16:33:16:794
-7.1503,-5.6376,2.8813,-0.1254,-0.2282,0.067,0.0027,0.0399,0.0437,638,2019-08-07 16:33:16:799
-7.1503,-5.6376,2.8813,-0.1254,-0.2282,0.067,0.0027,0.0399,0.0437,643,2019-08-07 16:33:16:804
-7.1359,-5.6662,2.8766,-0.1254,-0.2282,0.067,0.0048,0.0186,0.031,648,2019-08-07 16:33:16:809
-7.1359,-5.6662,2.8766,-0.0752,-0.2075,0.1097,0.0048,0.0186,0.031,653,2019-08-07 16:33:16:814
-7.1359,-5.6662,2.8766,-0.0752,-0.2075,0.1097,-5.0E-4,0.0026,0.0192,658,2019-08-07 16:33:16:819
-7.1359,-5.671,2.9284,-0.0752,-0.2075,0.1097,-5.0E-4,0.0026,0.0192,664,2019-08-07 16:33:16:825
-7.1359,-5.671,2.9284,-0.0752,-0.2075,0.1097,6.0E-4,-0.0177,0.0107,668,2019-08-07 16:33:16:829
-7.1359,-5.671,2.9284,-0.1582,-0.2287,0.1533,6.0E-4,-0.0177,0.0107,672,2019-08-07 16:33:16:833
-7.0498,-5.7188,2.8672,-0.1582,-0.2287,0.1533,0.0123,-0.024,0.0033,678,2019-08-07 16:33:16:839
-7.0498,-5.7188,2.8672,-0.1582,-0.2287,0.1533,0.0123,-0.024,0.0033,684,2019-08-07 16:33:16:845
-7.0498,-5.7188,2.8672,-0.1582,-0.2287,0.1533,0.007,-0.0177,1.0E-4,688,2019-08-07 16:33:16:849
-6.9206,-5.671,2.853,-0.277,-0.1992,0.152,0.007,-0.0177,1.0E-4,693,2019-08-07 16:33:16:854
-6.9206,-5.671,2.853,-0.277,-0.1992,0.152,-5.0E-4,-0.0123,-0.0042,699,2019-08-07 16:33:16:860
-6.8584,-5.6662,2.8389,-0.277,-0.1992,0.152,-5.0E-4,-0.0123,-0.0042,702,2019-08-07 16:33:16:863
-6.8584,-5.6662,2.8389,-0.277,-0.1992,0.152,0.0038,-0.0027,-0.0063,708,2019-08-07 16:33:16:869
-6.8584,-5.6662,2.8389,-0.3856,-0.2433,0.1533,0.0038,-0.0027,-0.0063,713,2019-08-07 16:33:16:874
-6.8536,-5.6806,2.8813,-0.3856,-0.2433,0.1533,0.007,0.0079,-0.0042,717,2019-08-07 16:33:16:878
-6.8536,-5.6806,2.8813,-0.3856,-0.2433,0.1533,0.007,0.0079,-0.0042,723,2019-08-07 16:33:16:884
-6.8966,-5.6758,2.9284,-0.3856,-0.2433,0.1533,0.0048,0.0164,-0.0053,728,2019-08-07 16:33:16:889
-6.8966,-5.6758,2.9284,-0.3042,-0.2582,0.0582,0.0048,0.0164,-0.0053,733,2019-08-07 16:33:16:894
-6.8966,-5.6758,2.9284,-0.3042,-0.2582,0.0582,-5.0E-4,0.0079,-0.0021,738,2019-08-07 16:33:16:899
-6.8966,-5.609,2.9944,-0.3042,-0.2582,0.0582,-5.0E-4,0.0079,-0.0021,743,2019-08-07 16:33:16:904
-6.8966,-5.609,2.9944,-0.3042,-0.2582,0.0582,-0.0026,0.0058,-0.0063,749,2019-08-07 16:33:16:910
-6.8966,-5.609,2.9944,-0.3042,-0.2582,0.0582,-0.0026,0.0058,-0.0063,752,2019-08-07 16:33:16:913
-6.8105,-5.5899,2.9379,-0.3997,-0.3303,0.0953,-0.0037,0.0047,0.0011,758,2019-08-07 16:33:16:919
-6.8105,-5.5899,2.9379,-0.3997,-0.3303,0.0953,-0.0037,0.0047,0.0011,763,2019-08-07 16:33:16:924
-6.9014,-5.6328,2.9992,-0.3997,-0.3303,0.0953,-0.0037,0.009,0.0065,768,2019-08-07 16:33:16:929
-6.9014,-5.6328,2.9992,-0.3237,-0.3727,0.0763,-0.0037,0.009,0.0065,772,2019-08-07 16:33:16:933
-6.9492,-5.5565,3.0369,-0.3237,-0.3727,0.0763,-5.0E-4,0.009,0.0075,778,2019-08-07 16:33:16:939
-6.9492,-5.5565,3.0369,-0.3237,-0.3727,0.0763,-5.0E-4,0.009,0.0075,782,2019-08-07 16:33:16:943
-6.9492,-5.5565,3.0369,-0.3237,-0.3727,0.0763,-5.0E-4,0.009,0.0075,787,2019-08-07 16:33:16:948
-6.954,-5.4753,2.9332,-0.3237,-0.3727,0.0763,-5.0E-4,0.0037,0.0118,793,2019-08-07 16:33:16:954
-6.954,-5.4753,2.9332,-0.2349,-0.4324,0.1184,-0.0037,-0.0059,0.0128,798,2019-08-07 16:33:16:959
-6.954,-5.4753,2.9332,-0.2349,-0.4324,0.1184,-0.0037,-0.0059,0.0128,803,2019-08-07 16:33:16:964
-6.9157,-5.5517,2.8342,-0.2349,-0.4324,0.1184,-0.0037,-0.0059,0.0128,808,2019-08-07 16:33:16:969
-6.9157,-5.5517,2.8342,-0.3276,-0.3683,0.1462,-0.0016,0.009,0.0107,813,2019-08-07 16:33:16:974
-6.9157,-5.5517,2.8342,-0.3276,-0.3683,0.1462,-0.0016,0.009,0.0107,818,2019-08-07 16:33:16:979
-6.9397,-5.5278,2.8483,-0.3276,-0.3683,0.1462,0.0091,0.0239,0.0075,822,2019-08-07 16:33:16:983
-6.9397,-5.5278,2.8483,-0.3276,-0.3683,0.1462,0.0091,0.0239,0.0075,829,2019-08-07 16:33:16:990
-6.9636,-5.523,2.886,-0.3276,-0.3683,0.1462,0.008,0.0196,0.0065,833,2019-08-07 16:33:16:994
-6.9636,-5.523,2.886,-0.2158,-0.4279,0.0829,0.008,0.0196,0.0065,838,2019-08-07 16:33:16:999
-6.9636,-5.523,2.886,-0.2158,-0.4279,0.0829,0.0048,0.01,0.0086,843,2019-08-07 16:33:17:004
-6.9731,-5.5421,2.9615,-0.2158,-0.4279,0.0829,0.0048,0.01,0.0086,848,2019-08-07 16:33:17:009
-6.9731,-5.5421,2.9615,-0.2158,-0.4279,0.0829,0.0048,0.01,0.0086,853,2019-08-07 16:33:17:014
-6.9971,-5.566,2.9002,-0.1891,-0.3539,0.0968,-0.0016,-0.0049,0.0043,858,2019-08-07 16:33:17:019
-6.9971,-5.566,2.9002,-0.1891,-0.3539,0.0968,-0.0016,-0.0049,0.0043,863,2019-08-07 16:33:17:024
-6.9971,-5.566,2.9002,-0.1891,-0.3539,0.0968,-0.0058,-0.0166,0.0075,868,2019-08-07 16:33:17:029
-6.9301,-5.6042,2.9709,-0.1891,-0.3539,0.0968,-0.0058,-0.0166,0.0075,872,2019-08-07 16:33:17:033
-6.9301,-5.6042,2.9709,-0.3617,-0.3476,0.1225,-0.0037,-0.024,0.0096,878,2019-08-07 16:33:17:039
-6.82,-5.5899,2.8483,-0.3617,-0.3476,0.1225,-0.0037,-0.024,0.0096,883,2019-08-07 16:33:17:044
-6.82,-5.5899,2.8483,-0.3617,-0.3476,0.1225,-0.0058,-0.007,0.0128,887,2019-08-07 16:33:17:048
-6.82,-5.5899,2.8483,-0.3617,-0.3476,0.1225,-0.0058,-0.007,0.0128,893,2019-08-07 16:33:17:054
-6.8918,-5.609,2.853,-0.329,-0.2984,0.1801,-0.0016,0.0196,0.0107,898,2019-08-07 16:33:17:059
-6.8918,-5.609,2.853,-0.329,-0.2984,0.1801,-0.0016,0.0196,0.0107,903,2019-08-07 16:33:17:064
-6.8918,-5.609,2.853,-0.329,-0.2984,0.1801,-0.0016,0.0196,0.0107,907,2019-08-07 16:33:17:068
-6.9348,-5.5565,2.9426,-0.329,-0.2984,0.1801,-0.0048,0.0218,0.015,913,2019-08-07 16:33:17:074
-6.9348,-5.5565,2.9426,-0.3083,-0.3103,0.1347,-0.0048,0.0218,0.015,918,2019-08-07 16:33:17:079
-6.954,-5.566,2.9049,-0.3083,-0.3103,0.1347,-0.0048,0.0218,0.0224,923,2019-08-07 16:33:17:084
-6.954,-5.566,2.9049,-0.3083,-0.3103,0.1347,-0.0048,0.0218,0.0224,928,2019-08-07 16:33:17:089
-6.954,-5.566,2.9049,-0.3083,-0.3103,0.1347,0.008,0.0271,0.0214,932,2019-08-07 16:33:17:093
-6.9874,-5.5851,2.985,-0.2409,-0.3161,0.042,0.008,0.0271,0.0214,938,2019-08-07 16:33:17:099
-6.9874,-5.5851,2.985,-0.2409,-0.3161,0.042,0.0176,0.0196,0.0192,943,2019-08-07 16:33:17:104
-6.9874,-5.5851,2.985,-0.2409,-0.3161,0.042,0.0176,0.0196,0.0192,949,2019-08-07 16:33:17:110
-7.0161,-5.5756,2.886,-0.2409,-0.3161,0.042,0.0165,0.0026,0.0182,952,2019-08-07 16:33:17:113
-7.0161,-5.5756,2.886,-0.2921,-0.3403,0.1511,0.0165,0.0026,0.0182,958,2019-08-07 16:33:17:119
-7.0161,-5.5756,2.886,-0.2921,-0.3403,0.1511,0.0165,0.0026,0.0182,963,2019-08-07 16:33:17:124
-6.9922,-5.5708,2.9426,-0.2921,-0.3403,0.1511,0.0197,-0.0251,0.016,968,2019-08-07 16:33:17:129
-6.9922,-5.5708,2.9426,-0.2921,-0.3403,0.1511,0.0197,-0.0251,0.016,973,2019-08-07 16:33:17:134
-6.9444,-5.5087,2.9002,-0.2886,-0.3836,0.133,0.0219,-0.0219,0.0246,978,2019-08-07 16:33:17:139
-6.9444,-5.5087,2.9002,-0.2886,-0.3836,0.133,0.0219,-0.0219,0.0246,983,2019-08-07 16:33:17:144
-6.8822,-5.5374,2.9049,-0.2886,-0.3836,0.133,0.0155,-0.0219,0.031,988,2019-08-07 16:33:17:149
-6.8822,-5.5374,2.9049,-0.2886,-0.3836,0.133,0.0155,-0.0219,0.031,993,2019-08-07 16:33:17:154
-6.8822,-5.5374,2.9049,-0.4635,-0.311,0.2041,0.0102,-0.0113,0.0373,998,2019-08-07 16:33:17:159
-6.753,-5.5851,2.7871,-0.4635,-0.311,0.2041,0.0102,-0.0113,0.0373,1003,2019-08-07 16:33:17:164
-6.753,-5.5851,2.7871,-0.4635,-0.311,0.2041,0.0123,0.0239,0.032,1008,2019-08-07 16:33:17:169
-6.753,-5.5851,2.7871,-0.4635,-0.311,0.2041,0.0123,0.0239,0.032,1013,2019-08-07 16:33:17:174
-6.8391,-5.6042,2.8531,-0.3676,-0.2054,0.0997,0.0123,0.0239,0.032,1018,2019-08-07 16:33:17:179
-6.8391,-5.6042,2.8531,-0.3676,-0.2054,0.0997,0.0208,0.0463,0.032,1022,2019-08-07 16:33:17:183
-6.8774,-5.6281,2.9238,-0.3676,-0.2054,0.0997,0.0208,0.0463,0.032,1028,2019-08-07 16:33:17:189
-6.8774,-5.6281,2.9238,-0.3676,-0.2054,0.0997,0.024,0.0452,0.0331,1033,2019-08-07 16:33:17:194
-6.8774,-5.6281,2.9238,-0.2976,-0.3997,0.1433,0.024,0.0452,0.0331,1037,2019-08-07 16:33:17:198
-6.9635,-5.5326,2.8908,-0.2976,-0.3997,0.1433,0.0304,0.0335,0.0288,1043,2019-08-07 16:33:17:204
-6.9635,-5.5326,2.8908,-0.2976,-0.3997,0.1433,0.0304,0.0335,0.0288,1048,2019-08-07 16:33:17:209
-7.0544,-5.4276,2.9143,-0.2976,-0.3997,0.1433,0.0336,0.009,0.0299,1053,2019-08-07 16:33:17:214
-7.0544,-5.4276,2.9143,-0.2122,-0.4402,0.097,0.0336,0.009,0.0299,1058,2019-08-07 16:33:17:219
-7.0544,-5.4276,2.9143,-0.2122,-0.4402,0.097,0.0283,-0.0145,0.0363,1063,2019-08-07 16:33:17:224
-6.9204,-5.3942,2.8106,-0.2122,-0.4402,0.097,0.0283,-0.0145,0.0363,1068,2019-08-07 16:33:17:229
-6.9204,-5.3942,2.8106,-0.2122,-0.4402,0.097,0.0283,-0.0145,0.0363,1073,2019-08-07 16:33:17:234
-6.8343,-5.4514,2.8483,-0.4074,-0.3899,0.2338,0.0251,-0.0145,0.031,1078,2019-08-07 16:33:17:239
-6.8343,-5.4514,2.8483,-0.4074,-0.3899,0.2338,0.0251,-0.0145,0.031,1083,2019-08-07 16:33:17:244
-6.8678,-5.4133,2.7635,-0.4074,-0.3899,0.2338,0.0347,-0.0017,0.0384,1088,2019-08-07 16:33:17:249
-6.8678,-5.4133,2.7635,-0.4074,-0.3899,0.2338,0.0347,-0.0017,0.0384,1093,2019-08-07 16:33:17:254
-6.8678,-5.4133,2.7635,-0.3885,-0.4488,0.2797,0.041,0.0218,0.0427,1098,2019-08-07 16:33:17:259
-6.9012,-5.3989,2.7211,-0.3885,-0.4488,0.2797,0.041,0.0218,0.0427,1103,2019-08-07 16:33:17:264
-6.9012,-5.3989,2.7211,-0.3885,-0.4488,0.2797,0.041,0.0218,0.0427,1108,2019-08-07 16:33:17:269
-6.9012,-5.3989,2.7211,-0.378,-0.4392,0.3458,0.0389,0.0292,0.048,1113,2019-08-07 16:33:17:274
-6.906,-5.3989,2.6928,-0.378,-0.4392,0.3458,0.0389,0.0292,0.048,1118,2019-08-07 16:33:17:279
-6.906,-5.3989,2.6928,-0.378,-0.4392,0.3458,0.0389,0.0377,0.0512,1123,2019-08-07 16:33:17:284
-6.9108,-5.3989,2.6598,-0.378,-0.4392,0.3458,0.0389,0.0377,0.0512,1128,2019-08-07 16:33:17:289
-6.9108,-5.3989,2.6598,-0.3396,-0.419,0.3344,0.0421,0.0484,0.0555,1133,2019-08-07 16:33:17:294
-6.906,-5.4371,2.7211,-0.3396,-0.419,0.3344,0.0421,0.0484,0.0555,1139,2019-08-07 16:33:17:300
-6.906,-5.4371,2.7211,-0.3396,-0.419,0.3344,0.0442,0.0484,0.064,1143,2019-08-07 16:33:17:304
-6.906,-5.4371,2.7211,-0.3396,-0.419,0.3344,0.0442,0.0484,0.064,1148,2019-08-07 16:33:17:309
-6.9156,-5.4085,2.7399,-0.3841,-0.4307,0.2746,0.0442,0.0484,0.064,1153,2019-08-07 16:33:17:314
-6.9156,-5.4085,2.7399,-0.3841,-0.4307,0.2746,0.0474,0.0601,0.0661,1158,2019-08-07 16:33:17:319
-6.9156,-5.4085,2.7399,-0.3841,-0.4307,0.2746,0.0474,0.0601,0.0661,1163,2019-08-07 16:33:17:324
-6.9586,-5.4037,2.6975,-0.3058,-0.4221,0.2467,0.0496,0.0654,0.0693,1169,2019-08-07 16:33:17:330
-6.9586,-5.4037,2.6975,-0.3058,-0.4221,0.2467,0.0496,0.0654,0.0693,1172,2019-08-07 16:33:17:333
-6.9969,-5.4467,2.7965,-0.3058,-0.4221,0.2467,0.056,0.0633,0.0693,1178,2019-08-07 16:33:17:339
-6.9969,-5.4467,2.7965,-0.2979,-0.4053,0.16,0.056,0.0633,0.0693,1183,2019-08-07 16:33:17:344
-6.9969,-5.4467,2.7965,-0.2979,-0.4053,0.16,0.0613,0.0527,0.0714,1187,2019-08-07 16:33:17:348
-7.0304,-5.4037,2.9002,-0.2979,-0.4053,0.16,0.0613,0.0527,0.0714,1193,2019-08-07 16:33:17:354
-7.0304,-5.4037,2.9002,-0.2979,-0.4053,0.16,0.0613,0.0527,0.0714,1198,2019-08-07 16:33:17:359
-7.0112,-5.4133,2.8295,-0.3008,-0.3614,0.2395,0.0592,0.0409,0.0757,1202,2019-08-07 16:33:17:363
-7.0112,-5.4133,2.8295,-0.3008,-0.3614,0.2395,0.0592,0.0409,0.0757,1208,2019-08-07 16:33:17:369
-7.0112,-5.4133,2.8295,-0.3008,-0.3614,0.2395,0.0592,0.0388,0.0736,1213,2019-08-07 16:33:17:374
-6.9969,-5.4276,2.8766,-0.3008,-0.3614,0.2395,0.0592,0.0388,0.0736,1219,2019-08-07 16:33:17:380
-6.9969,-5.4276,2.8766,-0.4177,-0.3416,0.1078,0.0581,0.0633,0.0736,1222,2019-08-07 16:33:17:383
-6.9299,-5.418,2.9002,-0.4177,-0.3416,0.1078,0.0581,0.0633,0.0736,1228,2019-08-07 16:33:17:389
-6.9299,-5.418,2.9002,-0.4177,-0.3416,0.1078,0.0592,0.0867,0.0704,1233,2019-08-07 16:33:17:394
-6.9299,-5.418,2.9002,-0.4177,-0.3416,0.1078,0.0592,0.0867,0.0704,1238,2019-08-07 16:33:17:399
-6.9825,-5.4228,2.9521,-0.3592,-0.3365,0.0756,0.0592,0.0867,0.0704,1242,2019-08-07 16:33:17:403
-6.9825,-5.4228,2.9521,-0.3592,-0.3365,0.0756,0.0581,0.0931,0.0704,1248,2019-08-07 16:33:17:409
-7.093,-5.4084,3.0415,-0.2557,-0.3435,-0.017,0.0581,0.0931,0.0704,1253,2019-08-07 16:33:17:414
-7.093,-5.4084,3.0415,-0.2557,-0.3435,-0.017,0.0517,0.0889,0.0661,1258,2019-08-07 16:33:17:419
-7.093,-5.4084,3.0415,-0.2557,-0.3435,-0.017,0.0517,0.0889,0.0661,1263,2019-08-07 16:33:17:424
-7.1456,-5.48,3.0604,-0.2557,-0.3435,-0.017,0.0506,0.074,0.0587,1268,2019-08-07 16:33:17:429
-7.1456,-5.48,3.0604,-0.206,-0.2776,-0.1539,0.0506,0.074,0.0587,1273,2019-08-07 16:33:17:434
-7.1982,-5.48,3.1547,-0.206,-0.2776,-0.1539,0.0432,0.0537,0.0565,1277,2019-08-07 16:33:17:438
-7.1982,-5.48,3.1547,-0.206,-0.2776,-0.1539,0.0432,0.0537,0.0565,1283,2019-08-07 16:33:17:444
-7.1982,-5.48,3.1547,-0.206,-0.2776,-0.1539,0.0293,0.025,0.0597,1288,2019-08-07 16:33:17:449
-7.1982,-5.48,3.1547,-0.206,-0.2776,-0.1539,0.0293,0.025,0.0597,1293,2019-08-07 16:33:17:454
-7.1169,-5.4753,3.1028,-0.2536,-0.2522,-0.0849,0.0134,0.0132,0.048,1297,2019-08-07 16:33:17:458
-7.1169,-5.4753,3.1028,-0.2536,-0.2522,-0.0849,0.0134,0.0132,0.048,1303,2019-08-07 16:33:17:464
-7.0834,-5.4848,3.0981,-0.2536,-0.2522,-0.0849,0.0027,0.0079,0.0459,1309,2019-08-07 16:33:17:470
-7.0834,-5.4848,3.0981,-0.3079,-0.2393,-0.1419,0.0027,0.0079,0.0459,1312,2019-08-07 16:33:17:473
-7.0834,-5.4848,3.0981,-0.3079,-0.2393,-0.1419,-0.008,0.0164,0.0448,1318,2019-08-07 16:33:17:479
-7.0595,-5.4657,3.084,-0.3079,-0.2393,-0.1419,-0.008,0.0164,0.0448,1323,2019-08-07 16:33:17:484
-7.0595,-5.4657,3.084,-0.3079,-0.2393,-0.1419,-0.0261,0.026,0.0459,1327,2019-08-07 16:33:17:488
-7.0404,-5.4371,3.0415,-0.3431,-0.2764,-0.0288,-0.0261,0.026,0.0459,1333,2019-08-07 16:33:17:494
-7.0404,-5.4371,3.0415,-0.3431,-0.2764,-0.0288,-0.0335,0.0527,0.0384,1337,2019-08-07 16:33:17:498
-7.0404,-5.4371,3.0415,-0.3431,-0.2764,-0.0288,-0.0335,0.0527,0.0384,1343,2019-08-07 16:33:17:504
-7.0739,-5.5135,2.985,-0.3431,-0.2764,-0.0288,-0.0314,0.0686,0.0373,1349,2019-08-07 16:33:17:510
-7.0739,-5.5135,2.985,-0.2075,-0.2105,-0.0223,-0.0314,0.0686,0.0373,1353,2019-08-07 16:33:17:514
-7.1791,-5.5087,3.0604,-0.2075,-0.2105,-0.0223,-0.0314,0.0686,0.0373,1358,2019-08-07 16:33:17:519
-7.1791,-5.5087,3.0604,-0.2075,-0.2105,-0.0223,-0.0303,0.0676,0.031,1363,2019-08-07 16:33:17:524
-7.1791,-5.5087,3.0604,-0.2075,-0.2105,-0.0223,-0.0303,0.0676,0.031,1368,2019-08-07 16:33:17:529
-7.2891,-5.461,3.0227,-0.1051,-0.2461,-0.0218,-0.0293,0.058,0.0246,1373,2019-08-07 16:33:17:534
-7.2891,-5.461,3.0227,-0.1051,-0.2461,-0.0218,-0.0293,0.058,0.0246,1379,2019-08-07 16:33:17:540
-7.3035,-5.4419,2.9567,-0.1051,-0.2461,-0.0218,-0.0378,0.0335,0.0192,1384,2019-08-07 16:33:17:545
-7.3035,-5.4419,2.9567,-0.1051,-0.2461,-0.0218,-0.0378,0.0335,0.0192,1387,2019-08-07 16:33:17:548
-7.3035,-5.4419,2.9567,-0.1285,-0.2834,-0.0356,-0.0399,5.0E-4,0.015,1393,2019-08-07 16:33:17:554
-7.2604,-5.4275,2.9755,-0.1285,-0.2834,-0.0356,-0.0399,5.0E-4,0.015,1398,2019-08-07 16:33:17:559
-7.2604,-5.4275,2.9755,-0.1285,-0.2834,-0.0356,-0.0399,5.0E-4,0.015,1403,2019-08-07 16:33:17:564
-7.2604,-5.4275,2.9755,-0.1285,-0.2834,-0.0356,-0.0367,-0.0283,0.0054,1408,2019-08-07 16:33:17:569
-7.1935,-5.4466,2.9143,-0.2192,-0.2174,0.1096,-0.0367,-0.0283,0.0054,1412,2019-08-07 16:33:17:573
-7.1935,-5.4466,2.9143,-0.2192,-0.2174,0.1096,-0.0378,-0.0368,0.0033,1418,2019-08-07 16:33:17:579
-7.1026,-5.4896,2.9095,-0.2192,-0.2174,0.1096,-0.0378,-0.0368,0.0033,1423,2019-08-07 16:33:17:584
-7.1026,-5.4896,2.9095,-0.2192,-0.2174,0.1096,-0.0282,-0.0251,0.0022,1428,2019-08-07 16:33:17:589
-7.1026,-5.4896,2.9095,-0.3849,-0.2239,0.1766,-0.0282,-0.0251,0.0022,1433,2019-08-07 16:33:17:594
-7.0021,-5.5039,2.7917,-0.3849,-0.2239,0.1766,-0.0282,-0.0251,0.0022,1437,2019-08-07 16:33:17:598
-7.0021,-5.5039,2.7917,-0.3849,-0.2239,0.1766,-0.0207,5.0E-4,-0.0021,1443,2019-08-07 16:33:17:604
-7.0595,-5.4848,2.7587,-0.3849,-0.2239,0.1766,-0.0207,5.0E-4,-0.0021,1448,2019-08-07 16:33:17:609
-7.0595,-5.4848,2.7587,-0.38,-0.216,0.2019,-0.0197,0.0186,-0.0031,1454,2019-08-07 16:33:17:615
-7.0595,-5.4848,2.7587,-0.38,-0.216,0.2019,-0.0197,0.0186,-0.0031,1458,2019-08-07 16:33:17:619
-7.093,-5.4705,2.7776,-0.38,-0.216,0.2019,-0.0175,0.025,-0.001,1463,2019-08-07 16:33:17:624
-7.093,-5.4705,2.7776,-0.3183,-0.255,0.1191,-0.0175,0.025,-0.001,1467,2019-08-07 16:33:17:628
-7.16,-5.461,2.8436,-0.3183,-0.255,0.1191,-0.0058,0.0239,-0.0085,1473,2019-08-07 16:33:17:634
-7.16,-5.461,2.8436,-0.3183,-0.255,0.1191,-0.0058,0.0239,-0.0085,1477,2019-08-07 16:33:17:638
-7.16,-5.461,2.8436,-0.2233,-0.2992,0.1009,-0.0058,0.0239,-0.0085,1483,2019-08-07 16:33:17:644
-7.1695,-5.4275,2.9001,-0.2233,-0.2992,0.1009,-0.008,0.01,-0.0021,1489,2019-08-07 16:33:17:650
-7.1695,-5.4275,2.9001,-0.2233,-0.2992,0.1009,-0.008,0.01,-0.0021,1493,2019-08-07 16:33:17:654
-7.1073,-5.4275,2.8106,-0.2233,-0.2992,0.1009,-0.0143,-0.0113,-0.0031,1498,2019-08-07 16:33:17:659
-7.1073,-5.4275,2.8106,-0.2233,-0.2992,0.1009,-0.0143,-0.0113,-0.0031,1502,2019-08-07 16:33:17:663
-7.1073,-5.4275,2.8106,-0.3326,-0.3196,0.1238,-0.0143,-0.0113,-0.0031,1509,2019-08-07 16:33:17:670
-7.093,-5.3989,2.8011,-0.3326,-0.3196,0.1238,-0.0133,-0.0262,-0.0042,1514,2019-08-07 16:33:17:675
-7.093,-5.3989,2.8011,-0.3326,-0.3196,0.1238,-0.0133,-0.0262,-0.0042,1518,2019-08-07 16:33:17:679
-6.9973,-5.3798,2.8718,-0.4028,-0.335,0.0972,-0.0207,-0.0219,0.0033,1523,2019-08-07 16:33:17:684
-6.9973,-5.3798,2.8718,-0.4028,-0.335,0.0972,-0.0207,-0.0219,0.0033,1528,2019-08-07 16:33:17:689
-6.9973,-5.3798,2.8718,-0.4028,-0.335,0.0972,-0.0154,-0.0166,0.0033,1533,2019-08-07 16:33:17:694
-6.9925,-5.3464,2.8058,-0.4028,-0.335,0.0972,-0.0154,-0.0166,0.0033,1538,2019-08-07 16:33:17:699
-6.9925,-5.3464,2.8058,-0.4028,-0.335,0.0972,-0.0154,0.0079,0.0118,1543,2019-08-07 16:33:17:704
-7.0164,-5.3559,2.7634,-0.4173,-0.316,0.2381,-0.0154,0.0079,0.0118,1548,2019-08-07 16:33:17:709
-7.0164,-5.3559,2.7634,-0.4173,-0.316,0.2381,-0.0154,0.0079,0.0118,1553,2019-08-07 16:33:17:714
-7.0164,-5.3559,2.7634,-0.4173,-0.316,0.2381,-0.0101,0.0292,0.0118,1558,2019-08-07 16:33:17:719
-7.0212,-5.3655,2.8718,-0.4173,-0.316,0.2381,-0.0101,0.0292,0.0118,1562,2019-08-07 16:33:17:723
-7.0212,-5.3655,2.8718,-0.3629,-0.3625,0.0964,-0.0048,0.0324,0.0128,1569,2019-08-07 16:33:17:730
-7.0212,-5.3655,2.8718,-0.3629,-0.3625,0.0964,-0.0048,0.0324,0.0128,1573,2019-08-07 16:33:17:734
-7.1073,-5.3798,2.787,-0.2977,-0.3329,0.1738,-0.0037,0.0324,0.0128,1578,2019-08-07 16:33:17:739
-7.1073,-5.3798,2.787,-0.2977,-0.3329,0.1738,-0.0037,0.0324,0.0128,1583,2019-08-07 16:33:17:744
-7.1073,-5.3798,2.787,-0.2977,-0.3329,0.1738,-0.0037,0.0282,0.016,1588,2019-08-07 16:33:17:749
-7.1647,-5.3034,2.886,-0.2977,-0.3329,0.1738,-0.0037,0.0282,0.016,1593,2019-08-07 16:33:17:754
-7.1647,-5.3034,2.886,-0.2727,-0.364,0.0652,-0.0037,0.0164,0.016,1598,2019-08-07 16:33:17:759
-7.1265,-5.3703,2.9284,-0.2727,-0.364,0.0652,-0.0037,0.0164,0.016,1602,2019-08-07 16:33:17:763
-7.1265,-5.3703,2.9284,-0.2727,-0.364,0.0652,-0.0037,0.0164,0.016,1608,2019-08-07 16:33:17:769
-7.1265,-5.3703,2.9284,-0.2727,-0.364,0.0652,-0.0048,-0.0017,0.0171,1613,2019-08-07 16:33:17:774
-7.136,-5.3846,2.8388,-0.3037,-0.3568,0.1539,-0.0048,-0.0017,0.0171,1618,2019-08-07 16:33:17:779
-7.136,-5.3846,2.8388,-0.3037,-0.3568,0.1539,-0.0058,-0.0049,0.0203,1623,2019-08-07 16:33:17:784
-7.0547,-5.3846,2.8058,-0.3037,-0.3568,0.1539,-0.0058,-0.0049,0.0203,1628,2019-08-07 16:33:17:789
-7.0547,-5.3846,2.8058,-0.3037,-0.3568,0.1539,-0.0016,0.0026,0.0256,1634,2019-08-07 16:33:17:795
-7.0547,-5.3846,2.8058,-0.4017,-0.3251,0.1396,-0.0016,0.0026,0.0256,1638,2019-08-07 16:33:17:799
-7.0595,-5.3989,2.8954,-0.4017,-0.3251,0.1396,-0.0016,0.0026,0.0256,1643,2019-08-07 16:33:17:804
-7.0595,-5.3989,2.8954,-0.3557,-0.2849,0.1251,-0.0016,0.0068,0.0299,1648,2019-08-07 16:33:17:809
-7.0451,-5.3703,2.7493,-0.3557,-0.2849,0.1251,-0.0016,0.0068,0.0299,1653,2019-08-07 16:33:17:814
-7.0451,-5.3703,2.7493,-0.3557,-0.2849,0.1251,-0.0026,0.025,0.0363,1658,2019-08-07 16:33:17:819
-7.0451,-5.3703,2.7493,-0.3557,-0.2849,0.1251,-0.0026,0.025,0.0363,1663,2019-08-07 16:33:17:824
-7.1169,-5.3655,2.9237,-0.3037,-0.332,0.0275,6.0E-4,0.0324,0.0363,1668,2019-08-07 16:33:17:829
-7.1169,-5.3655,2.9237,-0.3037,-0.332,0.0275,6.0E-4,0.0324,0.0363,1673,2019-08-07 16:33:17:834
-7.1169,-5.3655,2.9237,-0.3037,-0.332,0.0275,-5.0E-4,0.0271,0.0352,1679,2019-08-07 16:33:17:840
-7.1695,-5.4132,2.8624,-0.3037,-0.332,0.0275,-5.0E-4,0.0271,0.0352,1684,2019-08-07 16:33:17:845
-7.1695,-5.4132,2.8624,-0.2233,-0.2789,0.0847,-0.009,0.0218,0.0352,1688,2019-08-07 16:33:17:849
-7.1887,-5.4419,2.8813,-0.2233,-0.2789,0.0847,-0.009,0.0218,0.0352,1693,2019-08-07 16:33:17:854
-7.1887,-5.4419,2.8813,-0.2233,-0.2789,0.0847,-0.008,0.026,0.0288,1698,2019-08-07 16:33:17:859
-7.1887,-5.4419,2.8813,-0.2739,-0.2479,0.1201,-0.008,0.026,0.0288,1702,2019-08-07 16:33:17:863
-7.16,-5.4753,2.8671,-0.2739,-0.2479,0.1201,-0.008,0.026,0.0288,1708,2019-08-07 16:33:17:869
-7.16,-5.4753,2.8671,-0.2739,-0.2479,0.1201,-0.008,0.0196,0.0214,1712,2019-08-07 16:33:17:873
-7.16,-5.4753,2.8671,-0.2444,-0.1733,0.1017,-0.008,0.0196,0.0214,1718,2019-08-07 16:33:17:879
-7.1887,-5.4896,2.8718,-0.2444,-0.1733,0.1017,-0.0101,0.0218,0.016,1722,2019-08-07 16:33:17:883
-7.1887,-5.4896,2.8718,-0.2507,-0.2201,0.0854,-0.0101,0.0218,0.016,1728,2019-08-07 16:33:17:889
-7.1839,-5.4944,2.8247,-0.2507,-0.2201,0.0854,-0.009,0.0186,0.0128,1732,2019-08-07 16:33:17:893
-7.1839,-5.4944,2.8247,-0.2507,-0.2201,0.0854,-0.009,0.0186,0.0128,1738,2019-08-07 16:33:17:899
-7.1839,-5.4944,2.8247,-0.2507,-0.2201,0.0854,-0.0037,0.0186,0.0139,1743,2019-08-07 16:33:17:904
-7.1934,-5.4132,2.8388,-0.2151,-0.2805,0.082,-0.0037,0.0186,0.0139,1747,2019-08-07 16:33:17:908
-7.1934,-5.4132,2.8388,-0.2151,-0.2805,0.082,6.0E-4,-0.0017,0.0128,1754,2019-08-07 16:33:17:915
-7.1934,-5.4132,2.8388,-0.2151,-0.2805,0.082,6.0E-4,-0.0017,0.0128,1757,2019-08-07 16:33:17:918
-7.1791,-5.4275,2.8624,-0.2588,-0.2557,0.0725,6.0E-4,-0.0017,0.0128,1763,2019-08-07 16:33:17:924
-7.1791,-5.4275,2.8624,-0.2588,-0.2557,0.0725,0.0038,-0.0145,0.015,1768,2019-08-07 16:33:17:929
-7.1169,-5.5087,2.8058,-0.2588,-0.2557,0.0725,0.0027,-0.0177,0.015,1773,2019-08-07 16:33:17:934
-7.1169,-5.5087,2.8058,-0.2588,-0.2557,0.0725,0.0027,-0.0177,0.015,1777,2019-08-07 16:33:17:938
-7.1169,-5.5087,2.8058,-0.3027,-0.2007,0.0799,0.0027,-0.0177,0.015,1784,2019-08-07 16:33:17:945
-7.1025,-5.461,2.853,-0.3027,-0.2007,0.0799,0.0102,-0.0113,0.0118,1788,2019-08-07 16:33:17:949
-7.1025,-5.461,2.853,-0.3027,-0.2007,0.0799,0.0102,-0.0113,0.0118,1792,2019-08-07 16:33:17:953
-7.1408,-5.3941,2.8954,-0.2988,-0.2843,0.0446,0.0123,0.0026,0.0118,1798,2019-08-07 16:33:17:959
-7.1408,-5.3941,2.8954,-0.2988,-0.2843,0.0446,0.0123,0.0026,0.0118,1803,2019-08-07 16:33:17:964
-7.1408,-5.3941,2.8954,-0.2988,-0.2843,0.0446,0.0123,0.0026,0.0118,1808,2019-08-07 16:33:17:969
-7.1408,-5.3655,2.8718,-0.2995,-0.3121,0.0679,0.0059,0.0218,0.0033,1813,2019-08-07 16:33:17:974
-7.1408,-5.3655,2.8718,-0.2995,-0.3121,0.0679,0.0059,0.0218,0.0033,1818,2019-08-07 16:33:17:979
-7.1743,-5.3846,2.8671,-0.2995,-0.3121,0.0679,-5.0E-4,0.026,-0.0063,1823,2019-08-07 16:33:17:984
-7.1743,-5.3846,2.8671,-0.21,-0.2977,0.0836,-5.0E-4,0.026,-0.0063,1828,2019-08-07 16:33:17:989
-7.1743,-5.3846,2.8671,-0.21,-0.2977,0.0836,0.0027,0.0175,-0.0053,1833,2019-08-07 16:33:17:994
-7.2317,-5.3846,2.8907,-0.21,-0.2977,0.0836,0.0027,0.0175,-0.0053,1837,2019-08-07 16:33:17:998
-7.2317,-5.3846,2.8907,-0.21,-0.2977,0.0836,0.0027,0.0175,-0.0053,1843,2019-08-07 16:33:18:004
-7.2222,-5.375,2.8153,-0.21,-0.2977,0.0836,-5.0E-4,-0.007,-0.0074,1849,2019-08-07 16:33:18:010
-7.2222,-5.375,2.8153,-0.2,-0.3034,0.1394,-5.0E-4,-0.007,-0.0074,1853,2019-08-07 16:33:18:014
-7.2222,-5.375,2.8153,-0.2,-0.3034,0.1394,0.0016,-0.0251,-0.0042,1858,2019-08-07 16:33:18:019
-7.16,-5.3607,2.7729,-0.2,-0.3034,0.1394,0.0016,-0.0251,-0.0042,1863,2019-08-07 16:33:18:024
-7.16,-5.3607,2.7729,-0.3463,-0.3229,0.1531,-0.0026,-0.0358,-0.001,1869,2019-08-07 16:33:18:030
-7.093,-5.3607,2.7681,-0.3463,-0.3229,0.1531,-0.0026,-0.0358,-0.001,1872,2019-08-07 16:33:18:033
-7.093,-5.3607,2.7681,-0.3463,-0.3229,0.1531,-0.0026,-0.0368,0.0054,1878,2019-08-07 16:33:18:039
-7.093,-5.3607,2.7681,-0.3789,-0.337,0.1652,-0.0026,-0.0368,0.0054,1883,2019-08-07 16:33:18:044
-7.0164,-5.3321,2.7116,-0.3789,-0.337,0.1652,-0.0026,-0.0368,0.0054,1888,2019-08-07 16:33:18:049
-7.0164,-5.3321,2.7116,-0.3789,-0.337,0.1652,0.0048,-0.0166,0.0107,1893,2019-08-07 16:33:18:054
-7.0308,-5.3416,2.6597,-0.3789,-0.337,0.1652,0.0048,-0.0166,0.0107,1898,2019-08-07 16:33:18:059
-7.0308,-5.3416,2.6597,-0.4269,-0.345,0.3,0.0016,0.0079,0.0118,1902,2019-08-07 16:33:18:063
-7.0308,-5.3416,2.6597,-0.4269,-0.345,0.3,0.0016,0.0079,0.0118,1908,2019-08-07 16:33:18:069
-7.0786,-5.3034,2.7493,-0.3706,-0.3726,0.1433,0.0016,0.0239,0.0107,1913,2019-08-07 16:33:18:074
-7.0786,-5.3034,2.7493,-0.3706,-0.3726,0.1433,0.0016,0.0239,0.0107,1919,2019-08-07 16:33:18:080
-7.0786,-5.3034,2.7493,-0.3706,-0.3726,0.1433,0.0038,0.042,0.0054,1922,2019-08-07 16:33:18:083
-7.1552,-5.313,2.7257,-0.3706,-0.3726,0.1433,0.0038,0.042,0.0054,1928,2019-08-07 16:33:18:089
-7.1552,-5.313,2.7257,-0.2206,-0.3284,0.256,0.0038,0.0377,0.0033,1933,2019-08-07 16:33:18:094
-7.1934,-5.3464,2.6974,-0.2206,-0.3284,0.256,0.0038,0.0377,0.0033,1938,2019-08-07 16:33:18:099
-7.1934,-5.3464,2.6974,-0.2206,-0.3284,0.256,0.0038,0.0377,0.0033,1942,2019-08-07 16:33:18:103
-7.1934,-5.3464,2.6974,-0.2206,-0.3284,0.256,0.0038,0.0313,0.0054,1948,2019-08-07 16:33:18:109
-7.1887,-5.3941,2.6503,-0.2568,-0.2796,0.2839,0.0038,0.0313,0.0054,1953,2019-08-07 16:33:18:114
-7.1887,-5.3941,2.6503,-0.2568,-0.2796,0.2839,0.0144,0.0207,0.0033,1959,2019-08-07 16:33:18:120
-7.1887,-5.3941,2.6503,-0.2568,-0.2796,0.2839,0.0144,0.0207,0.0033,1963,2019-08-07 16:33:18:124
-7.2126,-5.3321,2.6503,-0.2568,-0.2796,0.2839,0.0176,0.0122,0.0086,1968,2019-08-07 16:33:18:129
-7.2126,-5.3321,2.6503,-0.297,-0.3111,0.2217,0.0176,0.0122,0.0086,1972,2019-08-07 16:33:18:133
-7.2126,-5.3321,2.6503,-0.297,-0.3111,0.2217,0.0219,-0.0017,0.0182,1978,2019-08-07 16:33:18:139
-7.1647,-5.3703,2.7634,-0.297,-0.3111,0.2217,0.0219,-0.0017,0.0182,1983,2019-08-07 16:33:18:144
-7.1647,-5.3703,2.7634,-0.297,-0.3111,0.2217,0.0272,-0.0113,0.0256,1987,2019-08-07 16:33:18:148
-7.1025,-5.3512,2.7163,-0.347,-0.316,0.2203,0.0272,-0.0113,0.0256,1993,2019-08-07 16:33:18:154
-7.1025,-5.3512,2.7163,-0.347,-0.316,0.2203,0.0357,-0.0123,0.0299,1999,2019-08-07 16:33:18:160
-7.1025,-5.3512,2.7163,-0.347,-0.316,0.2203,0.0357,-0.0123,0.0299,2003,2019-08-07 16:33:18:164
-7.0403,-5.3655,2.7163,-0.347,-0.316,0.2203,0.0336,-0.0027,0.0267,2008,2019-08-07 16:33:18:169
-7.0403,-5.3655,2.7163,-0.4122,-0.3047,0.2817,0.0336,-0.0027,0.0267,2012,2019-08-07 16:33:18:173
-7.0403,-5.3607,2.7021,-0.4122,-0.3047,0.2817,0.0315,0.0154,0.0267,2018,2019-08-07 16:33:18:179
-7.0403,-5.3607,2.7021,-0.4122,-0.3047,0.2817,0.0315,0.0154,0.0267,2022,2019-08-07 16:33:18:183
-7.0403,-5.3607,2.7021,-0.4122,-0.3047,0.2817,0.0336,0.0399,0.0267,2028,2019-08-07 16:33:18:189
-7.1312,-5.3559,2.7681,-0.3786,-0.2986,0.1403,0.0336,0.0399,0.0267,2033,2019-08-07 16:33:18:194
-7.1312,-5.3559,2.7681,-0.3786,-0.2986,0.1403,0.024,0.0558,0.0278,2038,2019-08-07 16:33:18:199
-7.1456,-5.3416,2.82,-0.3786,-0.2986,0.1403,0.024,0.0558,0.0278,2043,2019-08-07 16:33:18:204
-7.1456,-5.3416,2.82,-0.3786,-0.2986,0.1403,0.0251,0.0654,0.0267,2048,2019-08-07 16:33:18:209
-7.1456,-5.3416,2.82,-0.3182,-0.3311,0.111,0.0251,0.0654,0.0267,2053,2019-08-07 16:33:18:214
-7.1934,-5.3416,2.8436,-0.3182,-0.3311,0.111,0.0251,0.0654,0.0267,2058,2019-08-07 16:33:18:219
-7.1934,-5.3416,2.8436,-0.3182,-0.3311,0.111,0.0155,0.058,0.031,2064,2019-08-07 16:33:18:225
-7.1934,-5.3416,2.8436,-0.3182,-0.3311,0.111,0.0155,0.058,0.031,2068,2019-08-07 16:33:18:229
-7.2508,-5.3368,2.9473,-0.1912,-0.3107,0.0058,0.0134,0.0399,0.0331,2073,2019-08-07 16:33:18:234
-7.2508,-5.3368,2.9473,-0.1912,-0.3107,0.0058,0.0134,0.0399,0.0331,2078,2019-08-07 16:33:18:239
-7.1934,-5.3368,2.8671,-0.1912,-0.3107,0.0058,0.0102,0.0111,0.0373,2084,2019-08-07 16:33:18:245
-7.1934,-5.3368,2.8671,-0.1912,-0.3107,0.0058,0.0102,0.0111,0.0373,2087,2019-08-07 16:33:18:248
-7.1934,-5.3368,2.8671,-0.2964,-0.2517,0.0488,0.008,-0.0187,0.0427,2093,2019-08-07 16:33:18:254
-7.1456,-5.3321,2.886,-0.2964,-0.2517,0.0488,0.0059,-0.024,0.0427,2099,2019-08-07 16:33:18:260
-7.1456,-5.3321,2.886,-0.2964,-0.2517,0.0488,0.0059,-0.024,0.0427,2102,2019-08-07 16:33:18:263
-7.1456,-5.3321,2.886,-0.2964,-0.2517,0.0488,0.0059,-0.024,0.0427,2108,2019-08-07 16:33:18:269
-7.1265,-5.3941,2.8624,-0.3289,-0.2158,-0.0175,0.0134,-0.0155,0.048,2112,2019-08-07 16:33:18:273
-7.1265,-5.3941,2.8624,-0.3289,-0.2158,-0.0175,0.0134,-0.0155,0.048,2118,2019-08-07 16:33:18:279
-7.0786,-5.3559,2.886,-0.3289,-0.2158,-0.0175,0.0155,-0.0017,0.0608,2123,2019-08-07 16:33:18:284
-7.0786,-5.3559,2.886,-0.3289,-0.2158,-0.0175,0.0155,-0.0017,0.0608,2127,2019-08-07 16:33:18:288
-7.1169,-5.3512,2.82,-0.369,-0.2679,0.1166,0.0176,0.0175,0.0672,2133,2019-08-07 16:33:18:294
-7.1169,-5.3512,2.82,-0.369,-0.2679,0.1166,0.0176,0.0175,0.0672,2138,2019-08-07 16:33:18:299
-7.1169,-5.3512,2.82,-0.369,-0.2679,0.1166,0.0176,0.0175,0.0672,2142,2019-08-07 16:33:18:303
-7.2126,-5.375,2.8718,-0.369,-0.2679,0.1166,0.0197,0.0377,0.0725,2148,2019-08-07 16:33:18:309
-7.2126,-5.375,2.8718,-0.1257,-0.2414,-0.0606,0.0197,0.0377,0.0725,2153,2019-08-07 16:33:18:314
-7.2126,-5.375,2.8718,-0.1257,-0.2414,-0.0606,0.0304,0.0431,0.0821,2158,2019-08-07 16:33:18:319
-7.4853,-5.3368,3.1122,-0.0169,-0.2625,-0.1795,0.0304,0.0431,0.0821,2164,2019-08-07 16:33:18:325
-7.4853,-5.3368,3.1122,-0.0169,-0.2625,-0.1795,0.0389,0.0164,0.097,2168,2019-08-07 16:33:18:329
-7.4853,-5.3368,3.1122,-0.0169,-0.2625,-0.1795,0.0389,0.0164,0.097,2173,2019-08-07 16:33:18:334
-7.7149,-5.2843,3.2489,-0.0169,-0.2625,-0.1795,0.0379,-0.023,0.1183,2178,2019-08-07 16:33:18:339
-7.7149,-5.2843,3.2489,0.2768,-0.2809,-0.3999,0.0379,-0.023,0.1183,2183,2019-08-07 16:33:18:344
-7.7149,-5.2843,3.2489,0.2768,-0.2809,-0.3999,0.0336,-0.072,0.1535,2189,2019-08-07 16:33:18:350
-7.8919,-5.3464,3.5129,0.2768,-0.2809,-0.3999,0.0336,-0.072,0.1535,2193,2019-08-07 16:33:18:354
-7.8919,-5.3464,3.5129,0.2768,-0.2809,-0.3999,0.04,-0.1199,0.1865,2199,2019-08-07 16:33:18:360
-7.8919,-5.3464,3.5129,0.2768,-0.2809,-0.3999,0.04,-0.1199,0.1865,2202,2019-08-07 16:33:18:363
-7.8824,-5.7713,3.791,0.3636,0.102,-0.7748,0.0655,-0.1679,0.2131,2208,2019-08-07 16:33:18:369
-7.8824,-5.7713,3.791,0.3636,0.102,-0.7748,0.0655,-0.1679,0.2131,2213,2019-08-07 16:33:18:374
-8.0833,-6.3346,4.22,0.3636,0.102,-0.7748,0.1327,-0.1987,0.2344,2218,2019-08-07 16:33:18:379
-8.0833,-6.3346,4.22,0.6661,1.2115,-1.5164,0.1327,-0.1987,0.2344,2223,2019-08-07 16:33:18:384
-8.0833,-6.3346,4.22,0.6661,1.2115,-1.5164,0.1327,-0.1987,0.2344,2227,2019-08-07 16:33:18:388
-8.4134,-7.3991,5.323,1.0057,2.1658,-2.5181,0.2253,-0.2275,0.228,2234,2019-08-07 16:33:18:395
-8.4134,-7.3991,5.323,1.0057,2.1658,-2.5181,0.2253,-0.2275,0.228,2238,2019-08-07 16:33:18:399
-8.4134,-7.3991,5.323,1.0057,2.1658,-2.5181,0.4373,-0.317,0.1929,2243,2019-08-07 16:33:18:404
-9.1645,-8.9793,6.8409,1.0057,2.1658,-2.5181,0.4373,-0.317,0.1929,2248,2019-08-07 16:33:18:409
-9.1645,-8.9793,6.8409,2.4291,5.1684,-5.5299,0.4373,-0.317,0.1929,2253,2019-08-07 16:33:18:414
-9.1645,-8.9793,6.8409,2.4291,5.1684,-5.5299,0.7622,-0.48,0.1513,2258,2019-08-07 16:33:18:419
-10.4698,-11.3519,9.6175,2.4291,5.1684,-5.5299,0.7622,-0.48,0.1513,2263,2019-08-07 16:33:18:424
-10.4698,-11.3519,9.6175,2.4291,5.1684,-5.5299,1.0871,-0.7239,0.0959,2268,2019-08-07 16:33:18:429
-10.4698,-11.3519,9.6175,2.4291,5.1684,-5.5299,1.0871,-0.7239,0.0959,2272,2019-08-07 16:33:18:433
-12.2304,-13.0991,11.8188,4.7276,7.7513,-8.4507,1.4035,-1.0733,0.0267,2278,2019-08-07 16:33:18:439
-12.2304,-13.0991,11.8188,4.7276,7.7513,-8.4507,1.4035,-1.0733,0.0267,2283,2019-08-07 16:33:18:444
-12.2304,-13.0991,11.8188,4.7276,7.7513,-8.4507,1.8051,-1.6422,-0.1065,2288,2019-08-07 16:33:18:449
-13.5174,-14.7366,13.8929,4.7276,7.7513,-8.4507,1.8051,-1.6422,-0.1065,2293,2019-08-07 16:33:18:454
-13.5174,-14.7366,13.8929,6.5735,10.133,-10.7421,2.1109,-2.0182,-0.2268,2298,2019-08-07 16:33:18:459
-14.4838,-16.3072,15.2458,6.5735,10.133,-10.7421,2.1109,-2.0182,-0.2268,2303,2019-08-07 16:33:18:464
-14.4838,-16.3072,15.2458,6.5735,10.133,-10.7421,2.1109,-2.0182,-0.2268,2308,2019-08-07 16:33:18:469
-14.4838,-16.3072,15.2458,6.5735,10.133,-10.7421,2.7383,-2.5359,-0.4995,2313,2019-08-07 16:33:18:474
-15.211,-17.2715,15.6747,8.0728,12.1799,-11.2749,2.7383,-2.5359,-0.4995,2317,2019-08-07 16:33:18:478
-15.211,-17.2715,15.6747,8.0728,12.1799,-11.2749,3.4712,-2.782,-0.8596,2323,2019-08-07 16:33:18:484
-15.211,-17.2715,15.6747,8.0728,12.1799,-11.2749,3.4712,-2.782,-0.8596,2328,2019-08-07 16:33:18:489
-16.4357,-17.1187,17.6357,8.0728,12.1799,-11.2749,4.1263,-2.8939,-1.1366,2334,2019-08-07 16:33:18:495
-16.4357,-17.1187,17.6357,11.2083,11.4111,-13.8207,4.1263,-2.8939,-1.1366,2337,2019-08-07 16:33:18:498
-19.335,-15.4526,20.6148,11.2083,11.4111,-13.8207,4.6526,-2.8907,-1.3539,2343,2019-08-07 16:33:18:504
-19.335,-15.4526,20.6148,14.6998,9.6106,-17.3839,4.6526,-2.8907,-1.3539,2348,2019-08-07 16:33:18:509
-19.335,-15.4526,20.6148,14.6998,9.6106,-17.3839,4.6792,-3.3796,-1.5914,2354,2019-08-07 16:33:18:515
-27.0232,-11.7338,27.6478,14.6998,9.6106,-17.3839,4.6792,-3.3796,-1.5914,2358,2019-08-07 16:33:18:519
-27.0232,-11.7338,27.6478,14.6998,9.6106,-17.3839,4.6792,-3.3796,-1.5914,2363,2019-08-07 16:33:18:524
-33.9125,-9.4376,28.3125,27.0723,5.292,-22.5614,4.0113,-4.8785,-1.683,2368,2019-08-07 16:33:18:529
-33.9125,-9.4376,28.3125,27.0723,5.292,-22.5614,4.0113,-4.8785,-1.683,2373,2019-08-07 16:33:18:534
-33.9125,-9.4376,28.3125,27.0723,5.292,-22.5614,2.8001,-7.7536,-1.7853,2378,2019-08-07 16:33:18:539
-35.8262,-9.8577,21.93,27.0723,5.292,-22.5614,2.8001,-7.7536,-1.7853,2383,2019-08-07 16:33:18:544
-35.8262,-9.8577,21.93,30.1061,6.2014,-11.6681,1.9617,-10.3965,-2.041,2388,2019-08-07 16:33:18:549
-35.8262,-9.8577,21.93,30.1061,6.2014,-11.6681,1.9617,-10.3965,-2.041,2392,2019-08-07 16:33:18:553
-31.6352,-10.6979,14.963,26.5367,6.5419,-5.2253,1.7998,-11.6024,-2.3062,2399,2019-08-07 16:33:18:560
-31.6352,-10.6979,14.963,26.5367,6.5419,-5.2253,1.7998,-11.6024,-2.3062,2403,2019-08-07 16:33:18:564
-24.8559,-9.0939,5.1912,26.5367,6.5419,-5.2253,1.7465,-12.6613,-2.6876,2408,2019-08-07 16:33:18:569
-24.8559,-9.0939,5.1912,26.5367,6.5419,-5.2253,1.7465,-12.6613,-2.6876,2413,2019-08-07 16:33:18:574
-24.8559,-9.0939,5.1912,19.9671,3.4303,6.4004,1.7465,-12.6613,-2.6876,2418,2019-08-07 16:33:18:579
-18.9952,-6.201,1.4249,19.9671,3.4303,6.4004,1.8232,-12.1979,-2.5374,2423,2019-08-07 16:33:18:584
-18.9952,-6.201,1.4249,19.9671,3.4303,6.4004,1.8232,-12.1979,-2.5374,2428,2019-08-07 16:33:18:589
-18.9952,-6.201,1.4249,19.9671,3.4303,6.4004,1.9223,-11.2019,-2.2008,2433,2019-08-07 16:33:18:594
-12.2303,-4.4442,-0.1778,12.0473,0.4698,9.9338,1.9223,-11.2019,-2.2008,2438,2019-08-07 16:33:18:599
-12.2303,-4.4442,-0.1778,12.0473,0.4698,9.9338,1.9532,-9.6136,-1.8641,2443,2019-08-07 16:33:18:604
-9.2832,-2.5061,-1.0923,12.0473,0.4698,9.9338,1.9532,-9.6136,-1.8641,2448,2019-08-07 16:33:18:609
-9.2832,-2.5061,-1.0923,12.0473,0.4698,9.9338,1.9532,-9.6136,-1.8641,2453,2019-08-07 16:33:18:614
-9.2832,-2.5061,-1.0923,12.0473,0.4698,9.9338,1.9511,-7.4947,-1.4657,2458,2019-08-07 16:33:18:619
-11.57,-1.1407,0.435,14.1081,-2.0356,8.4928,1.9511,-7.4947,-1.4657,2463,2019-08-07 16:33:18:624
-11.57,-1.1407,0.435,14.1081,-2.0356,8.4928,2.0097,-6.7981,-1.1099,2468,2019-08-07 16:33:18:629
-19.0143,3.0077,-1.87,14.1081,-2.0356,8.4928,2.0097,-6.7981,-1.1099,2473,2019-08-07 16:33:18:634
-19.0143,3.0077,-1.87,14.1081,-2.0356,8.4928,1.9713,-6.9408,-0.5411,2478,2019-08-07 16:33:18:639
-19.0143,3.0077,-1.87,22.5795,-6.9842,12.2037,1.9713,-6.9408,-0.5411,2483,2019-08-07 16:33:18:644
-15.5362,5.5474,-7.6115,22.5795,-6.9842,12.2037,1.7764,-7.8548,0.3505,2487,2019-08-07 16:33:18:648
-15.5362,5.5474,-7.6115,22.5795,-6.9842,12.2037,1.7764,-7.8548,0.3505,2493,2019-08-07 16:33:18:654
-15.5362,5.5474,-7.6115,22.5795,-6.9842,12.2037,1.5271,-8.9233,0.8587,2498,2019-08-07 16:33:18:659
-7.2929,5.8338,-12.2498,12.3942,-8.3136,20.2538,1.5271,-8.9233,0.8587,2503,2019-08-07 16:33:18:664
-7.2929,5.8338,-12.2498,12.3942,-8.3136,20.2538,1.5271,-8.9233,0.8587,2507,2019-08-07 16:33:18:668
-7.2929,5.8338,-12.2498,12.3942,-8.3136,20.2538,1.0232,-11.4607,1.3189,2513,2019-08-07 16:33:18:674
1.6441,4.1486,-14.734,3.1057,-6.2201,23.4049,1.0232,-11.4607,1.3189,2518,2019-08-07 16:33:18:679
1.6441,4.1486,-14.734,3.1057,-6.2201,23.4049,0.6003,-12.5611,1.0866,2522,2019-08-07 16:33:18:683
5.1509,5.3851,-19.6269,3.1057,-6.2201,23.4049,0.6003,-12.5611,1.0866,2528,2019-08-07 16:33:18:689
5.1509,5.3851,-19.6269,3.1057,-6.2201,23.4049,0.6429,-5.0329,0.6722,2533,2019-08-07 16:33:18:694
5.1509,5.3851,-19.6269,5.1301,-6.7801,33.8229,0.6429,-5.0329,0.6722,2538,2019-08-07 16:33:18:699
-2.3795,5.1464,-28.2768,5.1301,-6.7801,33.8229,0.4213,-1.0456,0.3601,2543,2019-08-07 16:33:18:704
-2.3795,5.1464,-28.2768,5.1301,-6.7801,33.8229,0.4213,-1.0456,0.3601,2549,2019-08-07 16:33:18:710
-2.3795,5.1464,-28.2768,5.1301,-6.7801,33.8229,0.4213,-1.0456,0.3601,2553,2019-08-07 16:33:18:714
-10.2543,-0.229,38.5226,5.1301,-6.7801,33.8229,0.5652,4.8794,0.5476,2559,2019-08-07 16:33:18:720
-10.2543,-0.229,38.5226,14.8276,-4.5336,-27.7294,0.5652,4.8794,0.5476,2563,2019-08-07 16:33:18:724
-16.4547,0.6208,-12.5327,14.8276,-4.5336,-27.7294,0.4192,0.189,0.5444,2568,2019-08-07 16:33:18:729
-16.4547,0.6208,-12.5327,14.8276,-4.5336,-27.7294,0.4192,0.189,0.5444,2573,2019-08-07 16:33:18:734
-16.4547,0.6208,-12.5327,14.8276,-4.5336,-27.7294,-0.008,-0.5173,0.5338,2578,2019-08-07 16:33:18:739
-5.537,1.6185,-4.1751,12.9191,-4.1929,10.1007,-0.008,-0.5173,0.5338,2583,2019-08-07 16:33:18:744
-5.537,1.6185,-4.1751,12.9191,-4.1929,10.1007,-0.7345,-5.2822,-0.0564,2587,2019-08-07 16:33:18:748
0.6203,1.2462,-8.3327,12.9191,-4.1929,10.1007,-0.7345,-5.2822,-0.0564,2593,2019-08-07 16:33:18:754
0.6203,1.2462,-8.3327,12.9191,-4.1929,10.1007,-1.3981,-8.5557,-0.3025,2598,2019-08-07 16:33:18:759
0.6203,1.2462,-8.3327,3.0557,-3.2539,14.7592,-1.3981,-8.5557,-0.3025,2603,2019-08-07 16:33:18:764
11.2605,-1.0548,-5.7636,3.0557,-3.2539,14.7592,-1.3981,-8.5557,-0.3025,2608,2019-08-07 16:33:18:769
11.2605,-1.0548,-5.7636,3.0557,-3.2539,14.7592,-1.8391,-7.6918,-0.0734,2612,2019-08-07 16:33:18:773
17.7527,-3.4274,-16.7326,-12.3477,0.9386,20.9607,-1.8391,-7.6918,-0.0734,2618,2019-08-07 16:33:18:779
17.7527,-3.4274,-16.7326,-12.3477,0.9386,20.9607,-1.8264,-5.36,0.1417,2623,2019-08-07 16:33:18:784
17.7527,-3.4274,-16.7326,-12.3477,0.9386,20.9607,-1.8264,-5.36,0.1417,2628,2019-08-07 16:33:18:789
16.4801,-3.0646,-23.0162,-12.3477,0.9386,20.9607,-1.347,-1.4781,0.2909,2633,2019-08-07 16:33:18:794
16.4801,-3.0646,-23.0162,-12.3477,0.9386,20.9607,-1.347,-1.4781,0.2909,2638,2019-08-07 16:33:18:799
11.9255,-3.6566,-19.9098,-4.2127,0.8173,24.9495,-0.6024,3.2889,0.5785,2642,2019-08-07 16:33:18:803
11.9255,-3.6566,-19.9098,-4.2127,0.8173,24.9495,-0.6024,3.2889,0.5785,2649,2019-08-07 16:33:18:810
11.9255,-3.6566,-19.9098,-4.2127,0.8173,24.9495,0.3777,7.1271,0.6968,2653,2019-08-07 16:33:18:814
8.433,-3.8666,-2.5724,-4.2127,0.8173,24.9495,0.3777,7.1271,0.6968,2658,2019-08-07 16:33:18:819
8.433,-3.8666,-2.5724,-1.5016,3.3827,-39.7715,1.6975,3.6532,0.5487,2663,2019-08-07 16:33:18:824
5.4716,-5.1078,-9.0114,-1.5016,3.3827,-39.7715,1.6975,3.6532,0.5487,2668,2019-08-07 16:33:18:829
5.4716,-5.1078,-9.0114,-1.5016,3.3827,-39.7715,1.052,1.4876,0.3175,2673,2019-08-07 16:33:18:834
5.4716,-5.1078,-9.0114,-1.5016,3.3827,-39.7715,1.052,1.4876,0.3175,2678,2019-08-07 16:33:18:839
0.142,1.165,-8.6532,8.0399,-4.1762,13.1504,-0.1113,1.4407,0.2813,2683,2019-08-07 16:33:18:844
0.142,1.165,-8.6532,8.0399,-4.1762,13.1504,-0.1113,1.4407,0.2813,2688,2019-08-07 16:33:18:849
2.448,-0.4533,0.2324,8.0399,-4.1762,13.1504,-0.9507,1.5216,0.3889,2693,2019-08-07 16:33:18:854
2.448,-0.4533,0.2324,8.0399,-4.1762,13.1504,-0.9507,1.5216,0.3889,2698,2019-08-07 16:33:18:859
2.448,-0.4533,0.2324,5.3548,-2.0811,-1.1662,-0.9507,1.5216,0.3889,2703,2019-08-07 16:33:18:864
3.6967,-2.1337,-0.932,5.3548,-2.0811,-1.1662,-0.335,0.4788,0.391,2708,2019-08-07 16:33:18:869
3.6967,-2.1337,-0.932,5.3548,-2.0811,-1.1662,-0.335,0.4788,0.391,2713,2019-08-07 16:33:18:874
6.3041,-1.9428,-2.8363,5.3548,-2.0811,-1.1662,0.4885,1.3161,0.1503,2718,2019-08-07 16:33:18:879
6.3041,-1.9428,-2.8363,1.6511,-1.748,8.0929,0.4885,1.3161,0.1503,2723,2019-08-07 16:33:18:884
6.3041,-1.9428,-2.8363,1.6511,-1.748,8.0929,0.3841,1.5504,0.0576,2728,2019-08-07 16:33:18:889
5.6965,-0.2958,-7.3239,1.6511,-1.748,8.0929,0.3841,1.5504,0.0576,2734,2019-08-07 16:33:18:895
5.6965,-0.2958,-7.3239,1.6511,-1.748,8.0929,-0.4724,2.9353,0.0778,2738,2019-08-07 16:33:18:899
5.6104,-0.1812,-10.3926,2.1665,-3.0074,15.451,-0.4724,2.9353,0.0778,2743,2019-08-07 16:33:18:904
5.6104,-0.1812,-10.3926,2.1665,-3.0074,15.451,-0.4724,2.9353,0.0778,2748,2019-08-07 16:33:18:909
5.6104,-0.1812,-10.3926,2.1665,-3.0074,15.451,-1.0157,4.4767,0.032,2753,2019-08-07 16:33:18:914
2.8786,-0.4247,-6.8525,2.1665,-3.0074,15.451,-1.0157,4.4767,0.032,2758,2019-08-07 16:33:18:919
2.8786,-0.4247,-6.8525,5.7115,-2.9433,10.5963,-1.2905,5.6495,0.048,2763,2019-08-07 16:33:18:924
2.8786,-0.4247,-6.8525,5.7115,-2.9433,10.5963,-1.2905,5.6495,0.048,2768,2019-08-07 16:33:18:929
0.0081,-0.2051,-1.6626,5.7115,-2.9433,10.5963,-0.8825,6.1406,0.2216,2773,2019-08-07 16:33:18:934
0.0081,-0.2051,-1.6626,5.7115,-2.9433,10.5963,-0.8825,6.1406,0.2216,2778,2019-08-07 16:33:18:939
-1.3698,-0.587,-4.0195,7.9044,-2.8814,10.462,-0.6652,6.7606,0.326,2784,2019-08-07 16:33:18:945
-1.3698,-0.587,-4.0195,7.9044,-2.8814,10.462,-0.6652,6.7606,0.326,2788,2019-08-07 16:33:18:949
-1.3698,-0.587,-4.0195,7.9044,-2.8814,10.462,-0.8879,6.9012,0.2813,2794,2019-08-07 16:33:18:955
-3.5944,-0.0476,-3.7084,7.9044,-2.8814,10.462,-0.8879,6.9012,0.2813,2798,2019-08-07 16:33:18:959
-3.5944,-0.0476,-3.7084,10.7946,-3.8201,10.1635,-1.2405,6.8767,0.4017,2803,2019-08-07 16:33:18:964
-3.5944,-0.0476,-3.7084,10.7946,-3.8201,10.1635,-1.2405,6.8767,0.4017,2808,2019-08-07 16:33:18:969
-5.9291,-0.0142,-2.0632,10.7946,-3.8201,10.1635,-1.4727,6.7425,0.6137,2813,2019-08-07 16:33:18:974
-5.9291,-0.0142,-2.0632,10.7946,-3.8201,10.1635,-1.4727,6.7425,0.6137,2818,2019-08-07 16:33:18:979
-5.9291,-1.3222,-0.9602,10.3743,-2.6248,8.7639,-1.4727,6.7425,0.6137,2823,2019-08-07 16:33:18:984
-5.9291,-1.3222,-0.9602,10.3743,-2.6248,8.7639,-1.6261,6.7116,1.0312,2828,2019-08-07 16:33:18:989
-5.9291,-1.3222,-0.9602,10.3743,-2.6248,8.7639,-1.6261,6.7116,1.0312,2833,2019-08-07 16:33:18:994
-6.1205,-2.2006,-2.2471,10.3743,-2.6248,8.7639,-1.8413,7.1494,1.2464,2838,2019-08-07 16:33:18:999
-6.1205,-2.2006,-2.2471,10.1402,-2.1034,10.7295,-1.8413,7.1494,1.2464,2843,2019-08-07 16:33:19:004
-7.3309,-2.2101,-2.4969,10.1402,-2.1034,10.7295,-2.1385,7.762,1.4414,2848,2019-08-07 16:33:19:009
-7.3309,-2.2101,-2.4969,10.1402,-2.1034,10.7295,-2.1385,7.762,1.4414,2853,2019-08-07 16:33:19:014
-7.3309,-2.2101,-2.4969,10.1402,-2.1034,10.7295,-2.1385,7.762,1.4414,2858,2019-08-07 16:33:19:019
-9.8139,-2.1099,-0.6444,12.4094,-2.577,7.8302,-2.3633,8.4523,1.6576,2863,2019-08-07 16:33:19:024
-9.8139,-2.1099,-0.6444,12.4094,-2.577,7.8302,-2.3633,8.4523,1.6576,2868,2019-08-07 16:33:19:029
-12.1917,-3.5802,2.9758,12.4094,-2.577,7.8302,-2.4581,9.1074,1.8771,2873,2019-08-07 16:33:19:034
-12.1917,-3.5802,2.9758,12.4094,-2.577,7.8302,-2.4581,9.1074,1.8771,2878,2019-08-07 16:33:19:039
-12.1917,-3.5802,2.9758,12.4094,-2.577,7.8302,-2.4826,9.1266,1.9314,2883,2019-08-07 16:33:19:044
-13.426,-6.7739,7.1664,13.0704,0.7183,2.0744,-2.4826,9.1266,1.9314,2888,2019-08-07 16:33:19:049
-13.426,-6.7739,7.1664,13.0704,0.7183,2.0744,-2.3185,8.7431,1.8739,2893,2019-08-07 16:33:19:054
-14.5168,-10.5357,12.2479,13.0704,0.7183,2.0744,-2.3185,8.7431,1.8739,2898,2019-08-07 16:33:19:059
-14.5168,-10.5357,12.2479,13.1396,5.8836,-5.401,-1.7827,7.6725,1.6928,2903,2019-08-07 16:33:19:064
-14.5168,-10.5357,12.2479,13.1396,5.8836,-5.401,-1.7827,7.6725,1.6928,2908,2019-08-07 16:33:19:069
-15.3062,-11.5477,13.2849,13.1396,5.8836,-5.401,-1.7827,7.6725,1.6928,2913,2019-08-07 16:33:19:074
-15.3062,-11.5477,13.2849,12.9906,5.433,-5.5047,-1.4109,6.603,1.5127,2918,2019-08-07 16:33:19:079
-15.3062,-11.5477,13.2849,12.9906,5.433,-5.5047,-1.4109,6.603,1.5127,2922,2019-08-07 16:33:19:083
-15.909,-8.2108,12.1819,12.9906,5.433,-5.5047,-1.4109,6.603,1.5127,2928,2019-08-07 16:33:19:089
-15.909,-8.2108,12.1819,12.9906,5.433,-5.5047,-1.5047,4.8112,1.5969,2933,2019-08-07 16:33:19:094
-14.9569,-5.2319,11.2297,12.0542,-0.0808,-4.3804,-1.5047,4.8112,1.5969,2938,2019-08-07 16:33:19:099
-14.9569,-5.2319,11.2297,12.0542,-0.0808,-4.3804,-1.8178,3.6905,2.0273,2943,2019-08-07 16:33:19:104
-14.9569,-5.2319,11.2297,12.0542,-0.0808,-4.3804,-1.8178,3.6905,2.0273,2948,2019-08-07 16:33:19:109
-13.0767,-6.454,9.8627,12.0542,-0.0808,-4.3804,-1.8178,3.6905,2.0273,2953,2019-08-07 16:33:19:114
-13.0767,-6.454,9.8627,8.3449,1.3071,-3.1779,-2.0724,3.3028,2.5152,2958,2019-08-07 16:33:19:119
-13.0767,-6.454,9.8627,8.3449,1.3071,-3.1779,-2.0724,3.3028,2.5152,2962,2019-08-07 16:33:19:123
-11.1151,-10.8316,10.3907,8.3449,1.3071,-3.1779,-1.983,3.5616,2.7527,2968,2019-08-07 16:33:19:129
-11.1151,-10.8316,10.3907,8.3449,1.3071,-3.1779,-1.983,3.5616,2.7527,2973,2019-08-07 16:33:19:134
-11.0481,-14.6937,11.2533,5.9318,8.2424,-5.255,-1.5483,4.1933,2.8124,2978,2019-08-07 16:33:19:139
-11.0481,-14.6937,11.2533,5.9318,8.2424,-5.255,-1.5483,4.1933,2.8124,2983,2019-08-07 16:33:19:144
-11.0481,-14.6937,11.2533,5.9318,8.2424,-5.255,-1.0306,5.2927,2.6515,2988,2019-08-07 16:33:19:149
-11.8088,-14.8798,10.5132,5.9318,8.2424,-5.255,-1.0306,5.2927,2.6515,2992,2019-08-07 16:33:19:153
-11.8088,-14.8798,10.5132,6.7234,7.9733,-4.9182,-0.9038,5.9201,2.3969,2998,2019-08-07 16:33:19:159
-14.3492,-11.6766,9.9853,6.7234,7.9733,-4.9182,-0.9038,5.9201,2.3969,3003,2019-08-07 16:33:19:164
-14.3492,-11.6766,9.9853,6.7234,7.9733,-4.9182,-0.9038,5.9201,2.3969,3007,2019-08-07 16:33:19:168
-14.3492,-11.6766,9.9853,6.7234,7.9733,-4.9182,-0.8197,6.4836,1.9602,3013,2019-08-07 16:33:19:174
-17.0906,-9.9055,9.5893,6.7234,7.9733,-4.9182,-0.8197,6.4836,1.9602,3019,2019-08-07 16:33:19:180
-17.0906,-9.9055,9.5893,10.9406,4.1844,-5.1056,-0.7888,6.3824,1.7844,3022,2019-08-07 16:33:19:183
-20.5448,-9.5093,11.2627,10.9406,4.1844,-5.1056,-0.7888,6.3824,1.7844,3028,2019-08-07 16:33:19:189
-20.5448,-9.5093,11.2627,10.9406,4.1844,-5.1056,-0.5257,5.0274,1.5649,3033,2019-08-07 16:33:19:194
-20.5448,-9.5093,11.2627,13.7668,4.196,-9.9447,-0.5257,5.0274,1.5649,3037,2019-08-07 16:33:19:198
-21.2576,-9.39,14.6001,13.7668,4.196,-9.9447,-0.3116,3.6745,1.3945,3043,2019-08-07 16:33:19:204
-21.2576,-9.39,14.6001,13.7668,4.196,-9.9447,-0.3116,3.6745,1.3945,3048,2019-08-07 16:33:19:209
-20.0616,-8.5689,15.0338,13.7668,4.196,-9.9447,-0.3254,2.0628,1.1665,3052,2019-08-07 16:33:19:213
-20.0616,-8.5689,15.0338,11.8832,3.309,-12.1244,-0.3254,2.0628,1.1665,3057,2019-08-07 16:33:19:218
-20.0616,-8.5689,15.0338,11.8832,3.309,-12.1244,-0.3861,0.4255,1.0515,3063,2019-08-07 16:33:19:224
-16.6313,-9.1226,15.3025,11.8832,3.309,-12.1244,-0.3861,0.4255,1.0515,3067,2019-08-07 16:33:19:228
-16.6313,-9.1226,15.3025,11.8832,3.309,-12.1244,-0.3861,0.4255,1.0515,3073,2019-08-07 16:33:19:234
-16.6313,-9.1226,15.3025,4.2081,6.151,-12.1095,-0.1582,-0.4928,0.8992,3077,2019-08-07 16:33:19:238
-11.2968,-11.4331,14.5058,4.2081,6.151,-12.1095,-0.1582,-0.4928,0.8992,3083,2019-08-07 16:33:19:244
-11.2968,-11.4331,14.5058,4.2081,6.151,-12.1095,0.2307,-0.6803,0.5242,3088,2019-08-07 16:33:19:249
-8.5076,-11.3568,11.9038,4.2081,6.151,-12.1095,0.2307,-0.6803,0.5242,3093,2019-08-07 16:33:19:254
-8.5076,-11.3568,11.9038,-0.1539,6.0073,-8.1262,0.3116,-0.3127,0.2898,3098,2019-08-07 16:33:19:259
-7.4024,-10.2636,10.2823,-0.1539,6.0073,-8.1262,0.3116,-0.3127,0.2898,3104,2019-08-07 16:33:19:265
-7.4024,-10.2636,10.2823,-0.1539,6.0073,-8.1262,0.3201,0.3009,0.0065,3108,2019-08-07 16:33:19:269
-7.4024,-10.2636,10.2823,-0.1539,6.0073,-8.1262,0.3201,0.3009,0.0065,3114,2019-08-07 16:33:19:275
-8.8233,-9.304,8.953,0.8704,4.4342,-5.9081,0.2946,0.5331,-0.1618,3118,2019-08-07 16:33:19:279
-8.8233,-9.304,8.953,0.8704,4.4342,-5.9081,0.2946,0.5331,-0.1618,3123,2019-08-07 16:33:19:284
-8.8233,-9.304,8.953,0.8704,4.4342,-5.9081,0.2946,0.5331,-0.1618,3127,2019-08-07 16:33:19:288
-10.4213,-8.5593,8.2883,0.8704,4.4342,-5.9081,0.2083,0.3552,-0.2652,3133,2019-08-07 16:33:19:294
-10.4213,-8.5593,8.2883,2.8261,3.0772,-4.7885,0.2083,0.3552,-0.2652,3137,2019-08-07 16:33:19:298
-10.5935,-7.4948,7.3267,2.8261,3.0772,-4.7885,0.1518,-0.0784,-0.3259,3143,2019-08-07 16:33:19:304
-10.5935,-7.4948,7.3267,2.8261,3.0772,-4.7885,0.1518,-0.0784,-0.3259,3148,2019-08-07 16:33:19:309
-10.5935,-7.4948,7.3267,2.8261,3.0772,-4.7885,0.1103,-0.5034,-0.3483,3153,2019-08-07 16:33:19:314
-9.3879,-6.4923,5.493,1.1811,1.4113,-2.0557,0.0421,-0.7101,-0.3632,3158,2019-08-07 16:33:19:319
-9.3879,-6.4923,5.493,1.1811,1.4113,-2.0557,0.0421,-0.7101,-0.3632,3163,2019-08-07 16:33:19:324
-8.0722,-5.8287,3.7961,1.1811,1.4113,-2.0557,0.0421,-0.7101,-0.3632,3168,2019-08-07 16:33:19:329
-8.0722,-5.8287,3.7961,1.1811,1.4113,-2.0557,-0.0634,-0.7868,-0.3941,3173,2019-08-07 16:33:19:334
-8.0722,-5.8287,3.7961,-0.5183,0.5389,0.4076,-0.0634,-0.7868,-0.3941,3178,2019-08-07 16:33:19:339
-7.1392,-5.4563,2.4998,-0.5183,0.5389,0.4076,-0.0857,-0.6494,-0.4452,3182,2019-08-07 16:33:19:343
-7.1392,-5.4563,2.4998,-0.5183,0.5389,0.4076,-0.0857,-0.6494,-0.4452,3188,2019-08-07 16:33:19:349
-6.8809,-4.9264,1.5665,-0.5183,0.5389,0.4076,-0.1092,-0.383,-0.507,3192,2019-08-07 16:33:19:353
-6.8809,-4.9264,1.5665,-0.7054,-0.4351,1.8245,-0.1092,-0.383,-0.507,3199,2019-08-07 16:33:19:360
-6.8809,-4.9264,1.5665,-0.7054,-0.4351,1.8245,-0.1571,-0.1103,-0.5517,3202,2019-08-07 16:33:19:363
-7.3689,-4.2008,1.5523,-0.7054,-0.4351,1.8245,-0.1571,-0.1103,-0.5517,3209,2019-08-07 16:33:19:370
-7.3689,-4.2008,1.5523,-0.7054,-0.4351,1.8245,-0.1965,0.0654,-0.5677,3213,2019-08-07 16:33:19:374
-8.2635,-3.6996,2.3772,0.5979,-1.4913,0.8676,-0.1965,0.0654,-0.5677,3218,2019-08-07 16:33:19:379
-8.2635,-3.6996,2.3772,0.5979,-1.4913,0.8676,-0.2434,-0.0123,-0.5485,3223,2019-08-07 16:33:19:384
-8.2635,-3.6996,2.3772,0.5979,-1.4913,0.8676,-0.2434,-0.0123,-0.5485,3227,2019-08-07 16:33:19:388
-9.1342,-3.4084,3.0183,0.5979,-1.4913,0.8676,-0.2988,-0.3458,-0.5145,3233,2019-08-07 16:33:19:394
-9.1342,-3.4084,3.0183,1.5331,-1.9981,0.3513,-0.2988,-0.3458,-0.5145,3237,2019-08-07 16:33:19:398
-8.9285,-3.3272,2.7496,1.5331,-1.9981,0.3513,-0.3648,-0.7655,-0.4601,3243,2019-08-07 16:33:19:404
-8.9285,-3.3272,2.7496,1.5331,-1.9981,0.3513,-0.3648,-0.7655,-0.4601,3248,2019-08-07 16:33:19:409
-8.9285,-3.3272,2.7496,1.5331,-1.9981,0.3513,-0.4042,-1.1127,-0.4197,3253,2019-08-07 16:33:19:414
-7.9309,-3.685,2.0609,0.0566,-1.5682,1.471,-0.4042,-1.1127,-0.4197,3258,2019-08-07 16:33:19:419
-7.9309,-3.685,2.0609,0.0566,-1.5682,1.471,-0.4106,-1.2438,-0.3834,3263,2019-08-07 16:33:19:424
-6.7205,-4.0908,1.5471,0.0566,-1.5682,1.471,-0.4106,-1.2438,-0.3834,3267,2019-08-07 16:33:19:428
-6.7205,-4.0908,1.5471,0.0566,-1.5682,1.471,-0.4106,-1.2438,-0.3834,3273,2019-08-07 16:33:19:434
-6.7205,-4.0908,1.5471,0.0566,-1.5682,1.471,-0.3957,-1.1394,-0.3632,3278,2019-08-07 16:33:19:439
-5.4718,-4.3629,1.2313,-1.9142,-1.0897,2.2258,-0.3957,-1.1394,-0.3632,3282,2019-08-07 16:33:19:443
-5.4718,-4.3629,1.2313,-1.9142,-1.0897,2.2258,-0.3414,-0.7165,-0.3515,3288,2019-08-07 16:33:19:449
-4.9216,-4.4679,1.1134,-1.9142,-1.0897,2.2258,-0.3414,-0.7165,-0.3515,3293,2019-08-07 16:33:19:454
-4.9216,-4.4679,1.1134,-2.3415,-0.9988,2.286,-0.2902,-0.2776,-0.3217,3298,2019-08-07 16:33:19:459
-4.9216,-4.4679,1.1134,-2.3415,-0.9988,2.286,-0.2902,-0.2776,-0.3217,3302,2019-08-07 16:33:19:463
-5.1369,-4.6302,1.4104,-2.3415,-0.9988,2.286,-0.237,0.1453,-0.2844,3308,2019-08-07 16:33:19:469
-5.1369,-4.6302,1.4104,-2.3415,-0.9988,2.286,-0.237,0.1453,-0.2844,3313,2019-08-07 16:33:19:474
-6.046,-4.6446,2.141,-2.3415,-0.9988,2.286,-0.189,0.4106,-0.2364,3318,2019-08-07 16:33:19:479
-6.046,-4.6446,2.141,-1.0495,-0.9495,1.1363,-0.189,0.4106,-0.2364,3322,2019-08-07 16:33:19:483
-6.046,-4.6446,2.141,-1.0495,-0.9495,1.1363,-0.1454,0.4575,-0.1821,3328,2019-08-07 16:33:19:489
-7.2277,-4.5634,2.9235,-1.0495,-0.9495,1.1363,-0.1454,0.4575,-0.1821,3332,2019-08-07 16:33:19:493
-7.2277,-4.5634,2.9235,-1.0495,-0.9495,1.1363,-0.1198,0.2934,-0.1139,3338,2019-08-07 16:33:19:499
-7.7923,-4.4966,3.4373,0.4023,-1.1246,-0.0405,-0.1198,0.2934,-0.1139,3343,2019-08-07 16:33:19:504
-7.7923,-4.4966,3.4373,0.4023,-1.1246,-0.0405,-0.1262,-0.0059,-0.0564,3348,2019-08-07 16:33:19:509
-7.7923,-4.4966,3.4373,0.4023,-1.1246,-0.0405,-0.1262,-0.0059,-0.0564,3353,2019-08-07 16:33:19:514
-7.6775,-4.487,3.475,0.4023,-1.1246,-0.0405,-0.1262,-0.0059,-0.0564,3358,2019-08-07 16:33:19:519
-7.6775,-4.487,3.475,0.2303,-1.1016,-0.085,-0.1283,-0.3596,0.0075,3364,2019-08-07 16:33:19:525
-7.0842,-4.6636,3.2064,0.2303,-1.1016,-0.085,-0.1283,-0.3596,0.0075,3367,2019-08-07 16:33:19:528
-7.0842,-4.6636,3.2064,0.2303,-1.1016,-0.085,-0.1177,-0.5002,0.0384,3373,2019-08-07 16:33:19:534
-7.0842,-4.6636,3.2064,0.2303,-1.1016,-0.085,-0.1177,-0.5002,0.0384,3378,2019-08-07 16:33:19:539
-6.4049,-4.9167,2.8999,-0.8578,-0.7205,0.5223,-0.107,-0.4757,0.0608,3383,2019-08-07 16:33:19:544
-6.4049,-4.9167,2.8999,-0.8578,-0.7205,0.5223,-0.107,-0.4757,0.0608,3387,2019-08-07 16:33:19:548
-5.8499,-5.1935,2.7962,-0.8578,-0.7205,0.5223,-0.0985,-0.3287,0.0736,3393,2019-08-07 16:33:19:554
-5.8499,-5.1935,2.7962,-0.8578,-0.7205,0.5223,-0.0985,-0.3287,0.0736,3398,2019-08-07 16:33:19:559
-5.8499,-5.1935,2.7962,-1.4625,-0.309,0.7487,-0.0751,-0.0315,0.0586,3403,2019-08-07 16:33:19:564
-5.7877,-5.4036,2.6972,-1.4625,-0.309,0.7487,-0.0751,-0.0315,0.0586,3409,2019-08-07 16:33:19:570
-5.7877,-5.4036,2.6972,-1.4625,-0.309,0.7487,-0.0442,0.2082,0.0523,3413,2019-08-07 16:33:19:574
-6.2471,-5.6041,3.0036,-1.4625,-0.309,0.7487,-0.0442,0.2082,0.0523,3417,2019-08-07 16:33:19:578
-6.2471,-5.6041,3.0036,-0.8336,-0.041,0.3329,-0.0442,0.2082,0.0523,3423,2019-08-07 16:33:19:584
-6.2471,-5.6041,3.0036,-0.8336,-0.041,0.3329,-0.0026,0.3903,0.0565,3428,2019-08-07 16:33:19:589
-6.9695,-5.5611,3.5174,-0.8336,-0.041,0.3329,-0.0026,0.3903,0.0565,3432,2019-08-07 16:33:19:593
-6.9695,-5.5611,3.5174,-0.8336,-0.041,0.3329,0.0261,0.3722,0.0693,3438,2019-08-07 16:33:19:599
-7.4288,-5.5134,3.8285,0.0863,-0.032,-0.3856,0.0261,0.3722,0.0693,3442,2019-08-07 16:33:19:603
-7.4288,-5.5134,3.8285,0.0863,-0.032,-0.3856,0.0368,0.2412,0.0853,3448,2019-08-07 16:33:19:609
-7.4288,-5.5134,3.8285,0.0863,-0.032,-0.3856,0.0368,0.2412,0.0853,3453,2019-08-07 16:33:19:614
-7.6441,-5.4895,3.9181,0.0863,-0.032,-0.3856,0.0379,0.0015,0.0981,3458,2019-08-07 16:33:19:619
-7.6441,-5.4895,3.9181,0.1988,-0.1104,-0.6676,0.0379,0.0015,0.0981,3463,2019-08-07 16:33:19:624
-7.3571,-5.4895,3.871,0.1988,-0.1104,-0.6676,0.0379,0.0015,0.0981,3468,2019-08-07 16:33:19:629
-7.3571,-5.4895,3.871,0.1988,-0.1104,-0.6676,0.0347,-0.2073,0.1066,3473,2019-08-07 16:33:19:634
-7.3571,-5.4895,3.871,0.1988,-0.1104,-0.6676,0.0347,-0.2073,0.1066,3478,2019-08-07 16:33:19:639
-7.0509,-5.5277,3.706,-0.3455,-0.073,-0.3049,0.0283,-0.2893,0.0917,3483,2019-08-07 16:33:19:644
-7.0509,-5.5277,3.706,-0.3455,-0.073,-0.3049,0.0283,-0.2893,0.0917,3488,2019-08-07 16:33:19:649
-6.6586,-5.5134,3.5269,-0.3455,-0.073,-0.3049,0.0208,-0.3053,0.0682,3493,2019-08-07 16:33:19:654
-6.6586,-5.5134,3.5269,-0.3455,-0.073,-0.3049,0.0208,-0.3053,0.0682,3498,2019-08-07 16:33:19:659
-6.6586,-5.5134,3.5269,-0.8865,-0.0858,0.0445,0.0208,-0.3053,0.0682,3503,2019-08-07 16:33:19:664
-6.3189,-5.4322,3.244,-0.8865,-0.0858,0.0445,0.008,-0.2264,0.0469,3509,2019-08-07 16:33:19:670
-6.3189,-5.4322,3.244,-0.8865,-0.0858,0.0445,0.008,-0.2264,0.0469,3513,2019-08-07 16:33:19:674
-6.3189,-5.4322,3.244,-0.8865,-0.0858,0.0445,-0.0016,-0.1082,0.016,3518,2019-08-07 16:33:19:679
-6.2329,-5.3033,3.0083,-1.054,-0.275,0.4587,-0.0016,-0.1082,0.016,3523,2019-08-07 16:33:19:684
-6.2329,-5.3033,3.0083,-1.054,-0.275,0.4587,-0.0165,0.0335,-0.0212,3528,2019-08-07 16:33:19:689
-6.2329,-5.3033,3.0083,-1.054,-0.275,0.4587,-0.0165,0.0335,-0.0212,3532,2019-08-07 16:33:19:693
-6.496,-5.1792,2.9942,-1.054,-0.275,0.4587,-0.042,0.1602,-0.0532,3538,2019-08-07 16:33:19:699
-6.496,-5.1792,2.9942,-0.516,-0.4563,0.3013,-0.042,0.1602,-0.0532,3542,2019-08-07 16:33:19:703
-6.496,-5.1792,2.9942,-0.516,-0.4563,0.3013,-0.0644,0.2369,-0.0681,3548,2019-08-07 16:33:19:709
-6.9266,-5.0789,3.2157,-0.516,-0.4563,0.3013,-0.0644,0.2369,-0.0681,3553,2019-08-07 16:33:19:714
-6.9266,-5.0789,3.2157,-0.516,-0.4563,0.3013,-0.0964,0.2316,-0.0596,3558,2019-08-07 16:33:19:719
-7.1563,-5.0694,3.508,-0.1382,-0.5369,-0.1664,-0.0964,0.2316,-0.0596,3563,2019-08-07 16:33:19:724
-7.1563,-5.0694,3.508,-0.1382,-0.5369,-0.1664,-0.1092,0.1666,-0.0458,3568,2019-08-07 16:33:19:729
-7.252,-5.0885,3.5975,-0.1382,-0.5369,-0.1664,-0.1092,0.1666,-0.0458,3573,2019-08-07 16:33:19:734
-7.252,-5.0885,3.5975,-0.1382,-0.5369,-0.1664,-0.1092,0.0995,-0.0181,3578,2019-08-07 16:33:19:739
-7.252,-5.0885,3.5975,-0.0491,-0.4996,-0.2592,-0.1092,0.0995,-0.0181,3582,2019-08-07 16:33:19:743
-7.3142,-5.1458,3.6352,-0.0491,-0.4996,-0.2592,-0.1113,0.0388,0.0128,3588,2019-08-07 16:33:19:749
-7.3142,-5.1458,3.6352,-0.0491,-0.4996,-0.2592,-0.1113,0.0388,0.0128,3593,2019-08-07 16:33:19:754
-7.2377,-5.2365,3.6635,-0.0491,-0.4996,-0.2592,-0.1102,0.0026,0.048,3598,2019-08-07 16:33:19:759
-7.2377,-5.2365,3.6635,-0.0925,-0.3058,-0.1982,-0.1102,0.0026,0.048,3602,2019-08-07 16:33:19:763
-7.2377,-5.2365,3.6635,-0.0925,-0.3058,-0.1982,-0.0996,-0.0304,0.0704,3609,2019-08-07 16:33:19:770
-7.1228,-5.3463,3.5457,-0.0925,-0.3058,-0.1982,-0.0996,-0.0304,0.0704,3613,2019-08-07 16:33:19:774
-7.1228,-5.3463,3.5457,-0.0925,-0.3058,-0.1982,-0.074,-0.039,0.0842,3618,2019-08-07 16:33:19:779
-7.1228,-5.3463,3.5457,-0.0925,-0.3058,-0.1982,-0.074,-0.039,0.0842,3623,2019-08-07 16:33:19:784
-6.9985,-5.4943,3.2723,-0.3188,-0.1142,0.08,-0.074,-0.039,0.0842,3627,2019-08-07 16:33:19:788
-6.9985,-5.4943,3.2723,-0.3188,-0.1142,0.08,-0.042,-0.0113,0.0693,3633,2019-08-07 16:33:19:794
-7.0655,-5.4943,3.1921,-0.3188,-0.1142,0.08,-0.042,-0.0113,0.0693,3638,2019-08-07 16:33:19:799
-7.0655,-5.4943,3.1921,-0.3188,-0.1142,0.08,-0.0175,0.0505,0.0427,3642,2019-08-07 16:33:19:803
-7.0655,-5.4943,3.1921,-0.1828,-0.1842,0.1263,-0.0175,0.0505,0.0427,3647,2019-08-07 16:33:19:808
-7.1851,-5.4083,3.2345,-0.1828,-0.1842,0.1263,-0.0175,0.0505,0.0427,3653,2019-08-07 16:33:19:814
-7.1851,-5.4083,3.2345,-0.1828,-0.1842,0.1263,-0.0016,0.0931,0.0182,3658,2019-08-07 16:33:19:819
-7.3765,-5.3701,3.2345,0.0477,-0.2094,0.0752,0.0091,0.1176,-0.0042,3664,2019-08-07 16:33:19:825
-7.3765,-5.3701,3.2345,0.0477,-0.2094,0.0752,0.0091,0.1176,-0.0042,3668,2019-08-07 16:33:19:829
-7.3765,-5.3701,3.2345,0.0477,-0.2094,0.0752,0.0091,0.1176,-0.0042,3673,2019-08-07 16:33:19:834
-7.6301,-5.3081,3.3995,0.0477,-0.2094,0.0752,-0.0016,0.0963,-0.0255,3678,2019-08-07 16:33:19:839
-7.6301,-5.3081,3.3995,0.0477,-0.2094,0.0752,-0.0016,0.0963,-0.0255,3683,2019-08-07 16:33:19:844
-7.7784,-5.3081,3.5456,0.4208,-0.3397,-0.2209,-0.0133,-0.0091,-0.0447,3688,2019-08-07 16:33:19:849
-7.7784,-5.3081,3.5456,0.4208,-0.3397,-0.2209,-0.0133,-0.0091,-0.0447,3693,2019-08-07 16:33:19:854
-7.7784,-5.3081,3.5456,0.4208,-0.3397,-0.2209,-0.0442,-0.1093,-0.0532,3698,2019-08-07 16:33:19:859
-7.7976,-5.3558,3.5126,0.4208,-0.3397,-0.2209,-0.0442,-0.1093,-0.0532,3702,2019-08-07 16:33:19:863
-7.7976,-5.3558,3.5126,0.4011,-0.2753,-0.1802,-0.0751,-0.2158,-0.0713,3708,2019-08-07 16:33:19:869
-7.611,-5.2842,3.5268,0.4011,-0.2753,-0.1802,-0.0751,-0.2158,-0.0713,3713,2019-08-07 16:33:19:874
-7.611,-5.2842,3.5268,0.4011,-0.2753,-0.1802,-0.106,-0.3106,-0.083,3717,2019-08-07 16:33:19:878
-7.611,-5.2842,3.5268,0.4011,-0.2753,-0.1802,-0.106,-0.3106,-0.083,3723,2019-08-07 16:33:19:884
-7.2665,-5.289,3.3052,-0.0367,-0.3344,0.0528,-0.1411,-0.3564,-0.0937,3728,2019-08-07 16:33:19:889
-7.2665,-5.289,3.3052,-0.0367,-0.3344,0.0528,-0.1411,-0.3564,-0.0937,3732,2019-08-07 16:33:19:893
-6.879,-5.3176,3.0978,-0.0367,-0.3344,0.0528,-0.1411,-0.3564,-0.0937,3738,2019-08-07 16:33:19:899
-6.879,-5.3176,3.0978,-0.0367,-0.3344,0.0528,-0.1613,-0.3234,-0.1193,3743,2019-08-07 16:33:19:904
-6.879,-5.3176,3.0978,-0.5517,-0.2984,0.3585,-0.1613,-0.3234,-0.1193,3748,2019-08-07 16:33:19:909
-6.5681,-5.3415,2.947,-0.5517,-0.2984,0.3585,-0.1603,-0.2158,-0.1459,3753,2019-08-07 16:33:19:914
-6.5681,-5.3415,2.947,-0.5517,-0.2984,0.3585,-0.1603,-0.2158,-0.1459,3758,2019-08-07 16:33:19:919
-6.4485,-5.3128,2.8668,-0.5517,-0.2984,0.3585,-0.1496,-0.0965,-0.1619,3763,2019-08-07 16:33:19:924
-6.4485,-5.3128,2.8668,-0.8126,-0.3415,0.5619,-0.1496,-0.0965,-0.1619,3768,2019-08-07 16:33:19:929
-6.4485,-5.3128,2.8668,-0.8126,-0.3415,0.5619,-0.1496,-0.0965,-0.1619,3773,2019-08-07 16:33:19:934
-6.415,-5.3033,2.947,-0.8126,-0.3415,0.5619,-0.1294,0.0622,-0.164,3778,2019-08-07 16:33:19:939
-6.415,-5.3033,2.947,-0.8126,-0.3415,0.5619,-0.1294,0.0622,-0.164,3782,2019-08-07 16:33:19:943
-6.415,-5.3033,2.947,-0.686,-0.4857,0.332,-0.1092,0.1997,-0.1821,3788,2019-08-07 16:33:19:949
-6.6208,-5.1983,3.1025,-0.686,-0.4857,0.332,-0.1092,0.1997,-0.1821,3792,2019-08-07 16:33:19:953
-6.6208,-5.1983,3.1025,-0.686,-0.4857,0.332,-0.1081,0.2529,-0.1832,3798,2019-08-07 16:33:19:959
-6.6208,-5.1983,3.1025,-0.686,-0.4857,0.332,-0.1081,0.2529,-0.1832,3803,2019-08-07 16:33:19:964
-6.8744,-5.1887,3.2675,-0.3415,-0.5616,0.0643,-0.1081,0.2529,-0.1832,3808,2019-08-07 16:33:19:969
-6.8744,-5.1887,3.2675,-0.3415,-0.5616,0.0643,-0.1113,0.2401,-0.1544,3813,2019-08-07 16:33:19:974
-6.8744,-5.1887,3.2675,-0.3415,-0.5616,0.0643,-0.1113,0.2401,-0.1544,3818,2019-08-07 16:33:19:979
-7.2093,-5.3176,3.6352,-0.3415,-0.5616,0.0643,-0.1102,0.1943,-0.132,3823,2019-08-07 16:33:19:984
-7.2093,-5.3176,3.6352,0.1288,-0.469,-0.4034,-0.1102,0.1943,-0.132,3828,2019-08-07 16:33:19:989
-7.2093,-5.3176,3.6352,0.1288,-0.469,-0.4034,-0.1028,0.0804,-0.1054,3832,2019-08-07 16:33:19:993
-7.4676,-5.3128,3.7954,0.1288,-0.469,-0.4034,-0.1028,0.0804,-0.1054,3838,2019-08-07 16:33:19:999
-7.4676,-5.3128,3.7954,0.1288,-0.469,-0.4034,-0.0953,-0.0944,-0.0777,3843,2019-08-07 16:33:20:004
-7.2332,-5.3319,3.6163,0.028,-0.4629,-0.3391,-0.0953,-0.0944,-0.0777,3848,2019-08-07 16:33:20:009
-7.2332,-5.3319,3.6163,0.028,-0.4629,-0.3391,-0.0953,-0.0944,-0.0777,3853,2019-08-07 16:33:20:014
-7.2332,-5.3319,3.6163,0.028,-0.4629,-0.3391,-0.0942,-0.2659,-0.05,3858,2019-08-07 16:33:20:019
-6.8074,-5.4131,3.2486,0.028,-0.4629,-0.3391,-0.0942,-0.2659,-0.05,3862,2019-08-07 16:33:20:023
-6.8074,-5.4131,3.2486,-0.5757,-0.3512,0.0382,-0.0761,-0.3031,-0.0426,3868,2019-08-07 16:33:20:029
-6.5539,-5.4417,3.1685,-0.5757,-0.3512,0.0382,-0.0761,-0.3031,-0.0426,3872,2019-08-07 16:33:20:033
-6.5539,-5.4417,3.1685,-0.5757,-0.3512,0.0382,-0.0463,-0.2765,-0.0266,3878,2019-08-07 16:33:20:039
-6.5539,-5.4417,3.1685,-0.5757,-0.3512,0.0382,-0.0463,-0.2765,-0.0266,3883,2019-08-07 16:33:20:044
-6.4104,-5.3892,3.0271,-0.7788,-0.4351,0.3076,-0.0218,-0.2009,-0.0202,3888,2019-08-07 16:33:20:049
-6.4104,-5.3892,3.0271,-0.7788,-0.4351,0.3076,-0.0218,-0.2009,-0.0202,3893,2019-08-07 16:33:20:054
-6.42,-5.3033,3.0035,-0.7788,-0.4351,0.3076,6.0E-4,-0.105,-0.0181,3898,2019-08-07 16:33:20:059
-6.42,-5.3033,3.0035,-0.7788,-0.4351,0.3076,6.0E-4,-0.105,-0.0181,3903,2019-08-07 16:33:20:064
-6.42,-5.3033,3.0035,-0.6169,-0.5287,0.3214,0.0048,0.0079,-0.0181,3908,2019-08-07 16:33:20:069
-6.5874,-5.2746,2.9564,-0.6169,-0.5287,0.3214,0.0048,0.0079,-0.0181,3913,2019-08-07 16:33:20:074
-6.5874,-5.2746,2.9564,-0.6169,-0.5287,0.3214,-0.0058,0.0761,-0.0181,3918,2019-08-07 16:33:20:079
-6.7406,-5.2555,3.0318,-0.6169,-0.5287,0.3214,-0.0058,0.0761,-0.0181,3922,2019-08-07 16:33:20:083
-6.7406,-5.2555,3.0318,-0.3138,-0.5161,0.1657,-0.0143,0.1102,-0.0053,3928,2019-08-07 16:33:20:089
-6.7406,-5.2555,3.0318,-0.3138,-0.5161,0.1657,-0.0143,0.1102,-0.0053,3932,2019-08-07 16:33:20:093
-6.8602,-5.3367,3.192,-0.3138,-0.5161,0.1657,-0.0207,0.1198,0.0043,3938,2019-08-07 16:33:20:099
-6.8602,-5.3367,3.192,-0.3138,-0.5161,0.1657,-0.0207,0.1198,0.0043,3942,2019-08-07 16:33:20:103
-6.9894,-5.2889,3.324,-0.1744,-0.5302,8.0E-4,-0.0388,0.0985,0.0086,3949,2019-08-07 16:33:20:110
-6.9894,-5.2889,3.324,-0.1744,-0.5302,8.0E-4,-0.0388,0.0985,0.0086,3952,2019-08-07 16:33:20:113
-6.9894,-5.2889,3.324,-0.1744,-0.5302,8.0E-4,-0.0388,0.0985,0.0086,3959,2019-08-07 16:33:20:120
-6.9607,-5.2651,3.1826,-0.1744,-0.5302,8.0E-4,-0.0644,0.026,0.016,3963,2019-08-07 16:33:20:124
-6.9607,-5.2651,3.1826,-0.2141,-0.5063,0.2041,-0.0644,0.026,0.016,3967,2019-08-07 16:33:20:128
-6.9607,-5.2651,3.1826,-0.2141,-0.5063,0.2041,-0.0644,0.026,0.016,3973,2019-08-07 16:33:20:134
-6.9894,-5.3414,3.0412,-0.2141,-0.5063,0.2041,-0.0825,-0.0315,0.0352,3978,2019-08-07 16:33:20:139
-6.9894,-5.3414,3.0412,-0.2141,-0.5063,0.2041,-0.0889,-0.0656,0.0469,3983,2019-08-07 16:33:20:144
-7.0421,-5.3367,3.2533,-0.1402,-0.4861,0.0354,-0.0889,-0.0656,0.0469,3987,2019-08-07 16:33:20:148
-7.0421,-5.3367,3.2533,-0.1402,-0.4861,0.0354,-0.091,-0.1167,0.0576,3993,2019-08-07 16:33:20:154
-6.9512,-5.3653,3.291,-0.1402,-0.4861,0.0354,-0.091,-0.1167,0.0576,3998,2019-08-07 16:33:20:159
-6.9512,-5.3653,3.291,-0.1402,-0.4861,0.0354,-0.0815,-0.1497,0.0618,4003,2019-08-07 16:33:20:164
-6.9512,-5.3653,3.291,-0.1402,-0.4861,0.0354,-0.0815,-0.1497,0.0618,4008,2019-08-07 16:33:20:169
-6.8507,-5.4274,2.9846,-0.3211,-0.3869,0.3312,-0.0815,-0.1497,0.0618,4012,2019-08-07 16:33:20:173
-6.8507,-5.4274,2.9846,-0.3211,-0.3869,0.3312,-0.0793,-0.138,0.0533,4018,2019-08-07 16:33:20:179
-6.8507,-5.4274,2.9846,-0.3211,-0.3869,0.3312,-0.0793,-0.138,0.0533,4023,2019-08-07 16:33:20:184
-6.6642,-5.5419,2.8526,-0.3211,-0.3869,0.3312,-0.0655,-0.0773,0.0437,4028,2019-08-07 16:33:20:189
-6.6642,-5.5419,2.8526,-0.5634,-0.2375,0.4458,-0.0655,-0.0773,0.0437,4033,2019-08-07 16:33:20:194
-6.6498,-5.5467,2.8008,-0.5634,-0.2375,0.4458,-0.0474,0.0069,0.0224,4038,2019-08-07 16:33:20:199
-6.6498,-5.5467,2.8008,-0.5634,-0.2375,0.4458,-0.0474,0.0069,0.0224,4043,2019-08-07 16:33:20:204
-6.6498,-5.5467,2.8008,-0.5634,-0.2375,0.4458,-0.0378,0.1017,0.0032,4048,2019-08-07 16:33:20:209
-6.7647,-5.5801,2.9045,-0.4101,-0.2346,0.4042,-0.0378,0.1017,0.0032,4053,2019-08-07 16:33:20:214
-6.7647,-5.5801,2.9045,-0.4101,-0.2346,0.4042,-0.0229,0.1784,-0.0074,4058,2019-08-07 16:33:20:219
-6.8652,-5.6088,3.0883,-0.4101,-0.2346,0.4042,-0.0229,0.1784,-0.0074,4063,2019-08-07 16:33:20:224
-6.8652,-5.6088,3.0883,-0.4101,-0.2346,0.4042,-0.0016,0.2135,-0.0127,4068,2019-08-07 16:33:20:229
-6.8652,-5.6088,3.0883,-0.1729,-0.2134,0.1621,-0.0016,0.2135,-0.0127,4073,2019-08-07 16:33:20:234
-7.0565,-5.5228,3.2438,-0.1729,-0.2134,0.1621,0.0176,0.2029,-0.0117,4077,2019-08-07 16:33:20:238
-7.0565,-5.5228,3.2438,-0.1729,-0.2134,0.1621,0.0176,0.2029,-0.0117,4083,2019-08-07 16:33:20:244
-7.1331,-5.4035,3.3947,-0.1729,-0.2134,0.1621,0.0251,0.1485,-0.001,4087,2019-08-07 16:33:20:248
-7.1331,-5.4035,3.3947,-0.0364,-0.4169,-0.1011,0.0251,0.1485,-0.001,4093,2019-08-07 16:33:20:254
-7.1331,-5.4035,3.3947,-0.0364,-0.4169,-0.1011,0.0155,0.0601,0.016,4098,2019-08-07 16:33:20:259
-7.1905,-5.4083,3.5078,-0.0364,-0.4169,-0.1011,0.0155,0.0601,0.016,4102,2019-08-07 16:33:20:263
-7.1905,-5.4083,3.5078,-0.0364,-0.4169,-0.1011,0.0038,-0.0304,0.0341,4108,2019-08-07 16:33:20:269
-7.0327,-5.4655,3.4135,-0.1755,-0.3965,-0.1725,0.0038,-0.0304,0.0341,4113,2019-08-07 16:33:20:274
-7.0327,-5.4655,3.4135,-0.1755,-0.3965,-0.1725,-0.0026,-0.0997,0.0491,4118,2019-08-07 16:33:20:279
-7.0327,-5.4655,3.4135,-0.1755,-0.3965,-0.1725,-0.0026,-0.0997,0.0491,4123,2019-08-07 16:33:20:284
-6.8413,-5.4894,3.2297,-0.1755,-0.3965,-0.1725,-0.0048,-0.1199,0.0586,4128,2019-08-07 16:33:20:289
-6.8413,-5.4894,3.2297,-0.4709,-0.2503,0.0277,-0.0048,-0.1199,0.0586,4133,2019-08-07 16:33:20:294
-6.6021,-5.4894,3.1684,-0.4709,-0.2503,0.0277,-0.0069,-0.0784,0.0544,4138,2019-08-07 16:33:20:299
-6.6021,-5.4894,3.1684,-0.4709,-0.2503,0.0277,-0.0069,-0.0784,0.0544,4143,2019-08-07 16:33:20:304
-6.6021,-5.4894,3.1684,-0.4709,-0.2503,0.0277,-0.0026,-0.0017,0.0512,4148,2019-08-07 16:33:20:309
-6.6165,-5.4464,3.1401,-0.5871,-0.3482,0.1411,-0.0026,-0.0017,0.0512,4153,2019-08-07 16:33:20:314
-6.6165,-5.4464,3.1401,-0.5871,-0.3482,0.1411,-0.0026,-0.0017,0.0512,4157,2019-08-07 16:33:20:318
-6.717,-5.3844,3.2155,-0.5871,-0.3482,0.1411,-0.0016,0.0857,0.0437,4163,2019-08-07 16:33:20:324
-6.717,-5.3844,3.2155,-0.5871,-0.3482,0.1411,0.0027,0.1475,0.0341,4168,2019-08-07 16:33:20:329
-6.717,-5.3844,3.2155,-0.4109,-0.4328,0.044,0.0027,0.1475,0.0341,4172,2019-08-07 16:33:20:333
-6.9132,-5.351,3.2674,-0.4109,-0.4328,0.044,0.0027,0.1475,0.0341,4178,2019-08-07 16:33:20:339
-6.9132,-5.351,3.2674,-0.4109,-0.4328,0.044,0.0123,0.1666,0.0363,4183,2019-08-07 16:33:20:344
-6.9132,-5.351,3.2674,-0.4109,-0.4328,0.044,0.0123,0.1666,0.0363,4188,2019-08-07 16:33:20:349
-7.205,-5.3175,3.4512,-0.0246,-0.4629,-0.2025,0.0229,0.1219,0.0523,4192,2019-08-07 16:33:20:353
-7.205,-5.3175,3.4512,-0.0246,-0.4629,-0.2025,0.0229,0.1219,0.0523,4198,2019-08-07 16:33:20:359
-7.205,-5.3175,3.4512,-0.0246,-0.4629,-0.2025,0.0197,0.0367,0.0757,4202,2019-08-07 16:33:20:363
-7.3438,-5.3032,3.4701,-0.0246,-0.4629,-0.2025,0.0197,0.0367,0.0757,4208,2019-08-07 16:33:20:369
-7.3438,-5.3032,3.4701,0.0442,-0.4292,-0.2657,0.0134,-0.0741,0.1034,4214,2019-08-07 16:33:20:375
-7.1811,-5.3414,3.5408,0.0442,-0.4292,-0.2657,0.0134,-0.0741,0.1034,4218,2019-08-07 16:33:20:379
-7.1811,-5.3414,3.5408,0.0442,-0.4292,-0.2657,0.0134,-0.0741,0.1034,4223,2019-08-07 16:33:20:384
-7.1811,-5.3414,3.5408,0.0442,-0.4292,-0.2657,-0.0122,-0.1881,0.1194,4227,2019-08-07 16:33:20:388
-7.0376,-5.3653,3.3946,-0.261,-0.4062,-0.1006,-0.0122,-0.1881,0.1194,4233,2019-08-07 16:33:20:394
-7.0376,-5.3653,3.3946,-0.261,-0.4062,-0.1006,-0.025,-0.2232,0.1268,4237,2019-08-07 16:33:20:398
-6.918,-5.4464,3.2249,-0.261,-0.4062,-0.1006,-0.025,-0.2232,0.1268,4243,2019-08-07 16:33:20:404
-6.918,-5.4464,3.2249,-0.261,-0.4062,-0.1006,-0.0261,-0.2019,0.1247,4248,2019-08-07 16:33:20:409
-6.918,-5.4464,3.2249,-0.4159,-0.3176,0.131,-0.0261,-0.2019,0.1247,4253,2019-08-07 16:33:20:414
-6.835,-5.3654,3.2442,-0.4159,-0.3176,0.131,-0.0122,-0.1551,0.1172,4258,2019-08-07 16:33:20:419
-6.835,-5.3654,3.2442,-0.4603,-0.3523,0.1423,-0.0122,-0.1551,0.1172,4263,2019-08-07 16:33:20:424
-6.6436,-5.4132,3.0509,-0.4603,-0.3523,0.1423,-0.0069,-0.089,0.1002,4268,2019-08-07 16:33:20:429
-6.6436,-5.4132,3.0509,-0.4603,-0.3523,0.1423,-0.0069,-0.089,0.1002,4273,2019-08-07 16:33:20:434
-6.6436,-5.4132,3.0509,-0.4603,-0.3523,0.1423,-0.0165,0.0079,0.0608,4278,2019-08-07 16:33:20:439
-6.8111,-5.3177,2.933,-0.3808,-0.3932,0.3552,-0.0165,0.0079,0.0608,4283,2019-08-07 16:33:20:444
-6.8111,-5.3177,2.933,-0.3808,-0.3932,0.3552,-0.0154,0.1006,0.0437,4288,2019-08-07 16:33:20:449
-7.0694,-5.3511,3.1546,-0.3808,-0.3932,0.3552,-0.0154,0.1006,0.0437,4293,2019-08-07 16:33:20:454
-7.0694,-5.3511,3.1546,-0.3808,-0.3932,0.3552,-0.008,0.1464,0.0352,4298,2019-08-07 16:33:20:459
-7.0694,-5.3511,3.1546,-0.0449,-0.306,-0.0077,-0.008,0.1464,0.0352,4303,2019-08-07 16:33:20:464
-7.3373,-5.332,3.3997,-0.0449,-0.306,-0.0077,-0.008,0.1336,0.0246,4308,2019-08-07 16:33:20:469
-7.3373,-5.332,3.3997,-0.0449,-0.306,-0.0077,-0.008,0.1336,0.0246,4313,2019-08-07 16:33:20:474
-7.3373,-5.332,3.3997,-0.0449,-0.306,-0.0077,-0.008,0.1336,0.0246,4317,2019-08-07 16:33:20:478
-7.4617,-5.2747,3.5128,-0.0449,-0.306,-0.0077,-0.0133,0.0345,0.0214,4323,2019-08-07 16:33:20:484
-7.4617,-5.2747,3.5128,0.1502,-0.4202,-0.159,-0.0133,0.0345,0.0214,4328,2019-08-07 16:33:20:489
-7.3899,-5.2843,3.362,0.1502,-0.4202,-0.159,-0.0314,-0.0581,0.0182,4333,2019-08-07 16:33:20:494
-7.3899,-5.2843,3.362,0.1502,-0.4202,-0.159,-0.0314,-0.0581,0.0182,4338,2019-08-07 16:33:20:499
-7.3899,-5.2843,3.362,-0.1504,-0.37,0.0122,-0.0484,-0.1242,0.0128,4343,2019-08-07 16:33:20:504
-7.079,-5.3082,3.2347,-0.1504,-0.37,0.0122,-0.0484,-0.1242,0.0128,4348,2019-08-07 16:33:20:509
-7.079,-5.3082,3.2347,-0.1504,-0.37,0.0122,-0.0538,-0.1434,0.0086,4353,2019-08-07 16:33:20:514
-6.8397,-5.4036,3.1027,-0.1504,-0.37,0.0122,-0.0538,-0.1434,0.0086,4358,2019-08-07 16:33:20:519
-6.8397,-5.4036,3.1027,-0.5344,-0.2769,0.2527,-0.0474,-0.1018,1.0E-4,4364,2019-08-07 16:33:20:525
-6.8397,-5.4036,3.1027,-0.5344,-0.2769,0.2527,-0.0474,-0.1018,1.0E-4,4369,2019-08-07 16:33:20:530
-6.6005,-5.4227,3.032,-0.5344,-0.2769,0.2527,-0.0474,-0.1018,1.0E-4,4373,2019-08-07 16:33:20:534
-6.6005,-5.4227,3.032,-0.5344,-0.2769,0.2527,-0.042,-0.0272,-0.0021,4378,2019-08-07 16:33:20:539
-6.7106,-5.4084,2.9425,-0.555,-0.2956,0.3608,-0.042,-0.0272,-0.0021,4383,2019-08-07 16:33:20:544
-6.7106,-5.4084,2.9425,-0.555,-0.2956,0.3608,-0.025,0.091,-0.0095,4388,2019-08-07 16:33:20:549
-6.7106,-5.4084,2.9425,-0.555,-0.2956,0.3608,-0.025,0.091,-0.0095,4392,2019-08-07 16:33:20:553
-6.9211,-5.4609,3.1122,-0.555,-0.2956,0.3608,-0.0133,0.156,-0.0085,4398,2019-08-07 16:33:20:559
-6.9211,-5.4609,3.1122,-0.555,-0.2956,0.3608,-0.0133,0.156,-0.0085,4402,2019-08-07 16:33:20:563
-6.9211,-5.4609,3.1122,-0.1992,-0.3362,0.099,-0.0122,0.1634,-0.0053,4408,2019-08-07 16:33:20:569
-7.0885,-5.3845,3.263,-0.1992,-0.3362,0.099,-0.0122,0.1634,-0.0053,4413,2019-08-07 16:33:20:574
-7.0885,-5.3845,3.263,-0.1992,-0.3362,0.099,-0.0122,0.1634,-0.0053,4418,2019-08-07 16:33:20:579
-7.1698,-5.375,3.2536,-0.1992,-0.3362,0.099,-0.0058,0.1166,-0.0021,4423,2019-08-07 16:33:20:584
-7.1698,-5.375,3.2536,-0.089,-0.3555,0.0447,0.0016,0.0889,-0.0021,4428,2019-08-07 16:33:20:589
-7.1698,-5.375,3.2536,-0.089,-0.3555,0.0447,0.0016,0.0889,-0.0021,4433,2019-08-07 16:33:20:594
-7.2177,-5.3798,3.2489,-0.089,-0.3555,0.0447,0.0016,0.0889,-0.0021,4438,2019-08-07 16:33:20:599
-7.2177,-5.3798,3.2489,-0.089,-0.3555,0.0447,0.0027,0.0303,1.0E-4,4443,2019-08-07 16:33:20:604
-7.1938,-5.3798,3.395,-0.0363,-0.3351,-0.0482,0.0027,0.0303,1.0E-4,4447,2019-08-07 16:33:20:608
-7.1938,-5.3798,3.395,-0.0363,-0.3351,-0.0482,6.0E-4,-0.0475,0.0054,4453,2019-08-07 16:33:20:614
-7.1938,-5.3798,3.395,-0.0363,-0.3351,-0.0482,6.0E-4,-0.0475,0.0054,4458,2019-08-07 16:33:20:619
-7.0263,-5.4036,3.23,-0.0363,-0.3351,-0.0482,0.0016,-0.0826,0.0096,4463,2019-08-07 16:33:20:624
-7.0263,-5.4036,3.23,-0.3353,-0.276,0.0498,0.0016,-0.0826,0.0096,4468,2019-08-07 16:33:20:629
-7.0263,-5.4036,3.23,-0.3353,-0.276,0.0498,0.0016,-0.0826,0.0096,4473,2019-08-07 16:33:20:634
-6.8397,-5.4562,3.0933,-0.3353,-0.276,0.0498,0.0059,-0.0773,0.0118,4477,2019-08-07 16:33:20:638
-6.8397,-5.4562,3.0933,-0.3353,-0.276,0.0498,0.0059,-0.0773,0.0118,4483,2019-08-07 16:33:20:644
-6.7392,-5.4227,3.1358,-0.5419,-0.2792,0.1366,0.008,-0.0432,0.0096,4487,2019-08-07 16:33:20:648
-6.7392,-5.4227,3.1358,-0.5419,-0.2792,0.1366,0.008,-0.0432,0.0096,4493,2019-08-07 16:33:20:654
-6.7297,-5.3989,3.032,-0.5419,-0.2792,0.1366,0.0134,-0.0102,0.0086,4498,2019-08-07 16:33:20:659
-6.7297,-5.3989,3.032,-0.5419,-0.2792,0.1366,0.0134,-0.0102,0.0086,4503,2019-08-07 16:33:20:664
-6.7297,-5.3989,3.032,-0.4847,-0.2725,0.2764,0.0197,0.042,0.0128,4509,2019-08-07 16:33:20:670
-6.8397,-5.3798,3.0132,-0.4847,-0.2725,0.2764,0.0197,0.042,0.0128,4513,2019-08-07 16:33:20:674
-6.8397,-5.3798,3.0132,-0.4847,-0.2725,0.2764,0.0197,0.042,0.0128,4518,2019-08-07 16:33:20:679
-7.0071,-5.3559,3.1782,-0.4847,-0.2725,0.2764,0.0176,0.0846,0.0075,4523,2019-08-07 16:33:20:684
-7.0071,-5.3559,3.1782,-0.2942,-0.3412,0.0474,0.0176,0.0846,0.0075,4528,2019-08-07 16:33:20:689
-7.0071,-5.3559,3.1782,-0.2942,-0.3412,0.0474,0.0197,0.0772,0.0086,4533,2019-08-07 16:33:20:694
-7.1172,-5.3511,3.197,-0.2942,-0.3412,0.0474,0.0197,0.0772,0.0086,4537,2019-08-07 16:33:20:698
-7.1172,-5.3511,3.197,-0.2942,-0.3412,0.0474,0.0165,0.0537,0.0107,4543,2019-08-07 16:33:20:704
-7.1602,-5.3177,3.2253,-0.1618,-0.3898,-0.0071,0.0165,0.0537,0.0107,4549,2019-08-07 16:33:20:710
-7.1602,-5.3177,3.2253,-0.1618,-0.3898,-0.0071,0.0165,0.0537,0.0107,4553,2019-08-07 16:33:20:714
-7.1602,-5.3177,3.2253,-0.1618,-0.3898,-0.0071,0.0144,0.0122,0.0171,4557,2019-08-07 16:33:20:718
-7.1076,-5.2795,3.3526,-0.1877,-0.4113,-0.0924,0.0102,-0.0208,0.0203,4563,2019-08-07 16:33:20:724
-7.1076,-5.2795,3.3526,-0.1877,-0.4113,-0.0924,0.0102,-0.0208,0.0203,4568,2019-08-07 16:33:20:729
-7.0263,-5.3034,3.2442,-0.1877,-0.4113,-0.0924,0.0102,-0.0208,0.0203,4573,2019-08-07 16:33:20:734
-7.0263,-5.3034,3.2442,-0.3128,-0.3777,0.0091,0.0059,-0.0571,0.0246,4578,2019-08-07 16:33:20:739
-7.0263,-5.3034,3.2442,-0.3128,-0.3777,0.0091,0.0059,-0.0571,0.0246,4582,2019-08-07 16:33:20:743
-6.8493,-5.3511,3.1452,-0.3128,-0.3777,0.0091,0.008,-0.0475,0.0278,4588,2019-08-07 16:33:20:749
-6.8493,-5.3511,3.1452,-0.3128,-0.3777,0.0091,0.008,-0.0475,0.0278,4593,2019-08-07 16:33:20:754
-6.8349,-5.3511,3.098,-0.4803,-0.3106,0.1685,0.0155,-0.0283,0.031,4599,2019-08-07 16:33:20:760
-6.8349,-5.3511,3.098,-0.4803,-0.3106,0.1685,0.0155,-0.0283,0.031,4602,2019-08-07 16:33:20:763
-6.8349,-5.3511,3.098,-0.4803,-0.3106,0.1685,0.0155,-0.0283,0.031,4608,2019-08-07 16:33:20:769
-6.8397,-5.375,3.098,-0.4803,-0.3106,0.1685,0.0187,0.0143,0.0331,4613,2019-08-07 16:33:20:774
-6.8397,-5.375,3.098,-0.3649,-0.2764,0.216,0.0187,0.0143,0.0331,4618,2019-08-07 16:33:20:779
-6.8397,-5.375,3.098,-0.3649,-0.2764,0.216,0.0208,0.0505,0.0299,4622,2019-08-07 16:33:20:783
-7.055,-5.418,3.1169,-0.3649,-0.2764,0.216,0.0208,0.0505,0.0299,4628,2019-08-07 16:33:20:789
-7.055,-5.418,3.1169,-0.3649,-0.2764,0.216,0.0165,0.0814,0.0192,4633,2019-08-07 16:33:20:794
-7.1363,-5.3655,3.3149,-0.1715,-0.3049,-0.0469,0.0165,0.0814,0.0192,4638,2019-08-07 16:33:20:799
-7.1363,-5.3655,3.3149,-0.1715,-0.3049,-0.0469,0.0123,0.0825,0.0118,4643,2019-08-07 16:33:20:804
-7.1363,-5.3655,3.3149,-0.1715,-0.3049,-0.0469,0.0123,0.0825,0.0118,4648,2019-08-07 16:33:20:809
-7.2033,-5.332,3.2348,-0.1715,-0.3049,-0.0469,0.0091,0.0633,0.0054,4653,2019-08-07 16:33:20:814
-7.2033,-5.332,3.2348,-0.1715,-0.3049,-0.0469,0.0091,0.0633,0.0054,4658,2019-08-07 16:33:20:819
-7.2368,-5.3464,3.2866,-0.0442,-0.3397,-0.0231,0.0048,0.0505,-0.0021,4663,2019-08-07 16:33:20:824
-7.2368,-5.3464,3.2866,-0.0442,-0.3397,-0.0231,0.0048,0.0505,-0.0021,4669,2019-08-07 16:33:20:830
-7.2368,-5.3464,3.2866,-0.0442,-0.3397,-0.0231,0.0048,0.0505,-0.0021,4673,2019-08-07 16:33:20:834
-7.208,-5.375,3.2395,-0.1608,-0.2917,0.0443,0.0027,0.0079,-0.0149,4678,2019-08-07 16:33:20:839
-7.208,-5.375,3.2395,-0.1608,-0.2917,0.0443,0.0027,0.0079,-0.0149,4683,2019-08-07 16:33:20:844
-7.0454,-5.4323,3.1923,-0.1608,-0.2917,0.0443,0.0038,-0.024,-0.017,4688,2019-08-07 16:33:20:849
-7.0454,-5.4323,3.1923,-0.1608,-0.2917,0.0443,0.0038,-0.024,-0.017,4692,2019-08-07 16:33:20:853
-7.0454,-5.4323,3.1923,-0.1608,-0.2917,0.0443,0.0027,-0.0368,-0.0181,4698,2019-08-07 16:33:20:859
-6.988,-5.4657,3.0698,-0.3054,-0.1651,0.1712,0.0027,-0.0368,-0.0181,4702,2019-08-07 16:33:20:863
-6.988,-5.4657,3.0698,-0.3054,-0.1651,0.1712,0.0027,-0.0368,-0.0181,4708,2019-08-07 16:33:20:869
-6.988,-5.4657,3.0698,-0.3054,-0.1651,0.1712,0.008,-0.0272,-0.0202,4713,2019-08-07 16:33:20:874
-7.0358,-5.5134,3.2489,-0.3054,-0.1651,0.1712,0.008,-0.0272,-0.0202,4717,2019-08-07 16:33:20:878
-7.0358,-5.5134,3.2489,-0.3584,-0.2244,0.0077,0.0155,-0.0315,-0.0095,4724,2019-08-07 16:33:20:885
-7.031,-5.4323,3.2489,-0.3584,-0.2244,0.0077,0.0155,-0.0315,-0.0095,4729,2019-08-07 16:33:20:890
-7.031,-5.4323,3.2489,-0.3185,-0.296,0.0115,0.0112,-0.0379,-0.0063,4733,2019-08-07 16:33:20:894
-7.031,-5.4323,3.2489,-0.3185,-0.296,0.0115,0.0112,-0.0379,-0.0063,4738,2019-08-07 16:33:20:899
-7.0119,-5.3416,3.197,-0.2933,-0.329,0.0764,0.0134,-0.0347,1.0E-4,4743,2019-08-07 16:33:20:904
-7.0119,-5.3416,3.197,-0.2933,-0.329,0.0764,0.0134,-0.0347,1.0E-4,4748,2019-08-07 16:33:20:909
-7.0119,-5.3416,3.197,-0.2933,-0.329,0.0764,0.0134,-0.0347,1.0E-4,4752,2019-08-07 16:33:20:913
-6.9401,-5.3034,3.1593,-0.2933,-0.329,0.0764,0.0123,-0.0145,0.0033,4758,2019-08-07 16:33:20:919
-6.9401,-5.3034,3.1593,-0.4021,-0.3179,0.1006,0.0134,0.0154,-0.0085,4764,2019-08-07 16:33:20:925
-6.9018,-5.3511,3.2206,-0.4021,-0.3179,0.1006,0.0134,0.0154,-0.0085,4768,2019-08-07 16:33:20:929
-6.9018,-5.3511,3.2206,-0.4021,-0.3179,0.1006,0.0134,0.0154,-0.0085,4773,2019-08-07 16:33:20:934
-6.9018,-5.3511,3.2206,-0.4021,-0.3179,0.1006,0.0102,0.0452,-0.0159,4778,2019-08-07 16:33:20:939
-6.9688,-5.3798,3.1452,-0.3357,-0.2898,0.1314,0.0102,0.0452,-0.0159,4783,2019-08-07 16:33:20:944
-6.9688,-5.3798,3.1452,-0.3357,-0.2898,0.1314,0.0176,0.0697,-0.0223,4788,2019-08-07 16:33:20:949
-7.0501,-5.3655,3.1593,-0.2555,-0.3048,0.1136,0.0176,0.0697,-0.0223,4792,2019-08-07 16:33:20:953
-7.0501,-5.3655,3.1593,-0.2555,-0.3048,0.1136,0.0283,0.0633,-0.0266,4798,2019-08-07 16:33:20:959
-7.0501,-5.3655,3.1593,-0.2555,-0.3048,0.1136,0.0283,0.0633,-0.0266,4803,2019-08-07 16:33:20:964
-7.1793,-5.3225,3.3762,-0.2555,-0.3048,0.1136,0.0272,0.026,-0.0287,4807,2019-08-07 16:33:20:968
-7.1793,-5.3225,3.3762,-0.0894,-0.382,-0.0511,0.0272,0.026,-0.0287,4813,2019-08-07 16:33:20:974
-7.1793,-5.3225,3.3762,-0.0894,-0.382,-0.0511,0.0272,0.026,-0.0287,4817,2019-08-07 16:33:20:978
-7.1458,-5.3225,3.3479,-0.0894,-0.382,-0.0511,0.0208,-0.0262,-0.0181,4823,2019-08-07 16:33:20:984
-7.1458,-5.3225,3.3479,-0.0894,-0.382,-0.0511,0.0208,-0.0262,-0.0181,4828,2019-08-07 16:33:20:989
-7.1458,-5.3655,3.3008,-0.1574,-0.3061,-0.0247,0.0123,-0.0699,-0.0149,4832,2019-08-07 16:33:20:993
-7.1458,-5.3655,3.3008,-0.1574,-0.3061,-0.0247,0.0123,-0.0699,-0.0149,4838,2019-08-07 16:33:20:999
-7.0788,-5.3893,3.3102,-0.2211,-0.2825,-0.0271,0.0102,-0.0997,-0.0127,4843,2019-08-07 16:33:21:004
-7.0788,-5.3893,3.3102,-0.2211,-0.2825,-0.0271,0.0102,-0.0997,-0.0127,4848,2019-08-07 16:33:21:009
-7.0788,-5.3893,3.3102,-0.2211,-0.2825,-0.0271,0.0102,-0.121,-0.0074,4853,2019-08-07 16:33:21:014
-7.0788,-5.3893,3.3102,-0.2211,-0.2825,-0.0271,0.0102,-0.121,-0.0074,4858,2019-08-07 16:33:21:019
-6.897,-5.375,3.1876,-0.4515,-0.3354,0.1848,0.0102,-0.121,-0.0074,4863,2019-08-07 16:33:21:024
-6.897,-5.375,3.1876,-0.4515,-0.3354,0.1848,0.0038,-0.1061,-0.0085,4868,2019-08-07 16:33:21:029
-6.8109,-5.3225,3.1169,-0.4515,-0.3354,0.1848,0.0038,-0.1061,-0.0085,4873,2019-08-07 16:33:21:034
-6.8109,-5.3225,3.1169,-0.4515,-0.3354,0.1848,-0.0026,-0.0677,-0.0085,4878,2019-08-07 16:33:21:039
-6.8109,-5.3225,3.1169,-0.5454,-0.3559,0.2771,-0.0026,-0.0677,-0.0085,4883,2019-08-07 16:33:21:044
-6.7535,-5.2748,3.0651,-0.5454,-0.3559,0.2771,-0.0037,0.0058,-0.0191,4888,2019-08-07 16:33:21:049
-6.7535,-5.2748,3.0651,-0.5454,-0.3559,0.2771,-0.0037,0.0058,-0.0191,4893,2019-08-07 16:33:21:054
-6.9879,-5.2604,3.0886,-0.5454,-0.3559,0.2771,-0.0069,0.0569,-0.0149,4899,2019-08-07 16:33:21:060
-6.9879,-5.2604,3.0886,-0.3016,-0.4059,0.1596,-0.0069,0.0569,-0.0149,4903,2019-08-07 16:33:21:064
-6.9879,-5.2604,3.0886,-0.3016,-0.4059,0.1596,-0.009,0.0782,-0.0074,4908,2019-08-07 16:33:21:069
-7.0405,-5.2986,3.2489,-0.3016,-0.4059,0.1596,-0.009,0.0782,-0.0074,4913,2019-08-07 16:33:21:074
-7.0405,-5.2986,3.2489,-0.3016,-0.4059,0.1596,-0.0112,0.075,-0.0117,4918,2019-08-07 16:33:21:079
-7.0979,-5.3225,3.395,-0.1912,-0.3546,-0.0972,-0.0112,0.075,-0.0117,4923,2019-08-07 16:33:21:084
-7.0979,-5.3225,3.395,-0.1912,-0.3546,-0.0972,-0.0112,0.075,-0.0117,4928,2019-08-07 16:33:21:089
-7.0979,-5.3225,3.395,-0.1912,-0.3546,-0.0972,-0.0143,0.0399,-0.0074,4934,2019-08-07 16:33:21:095
-7.2223,-5.3129,3.2913,-0.1912,-0.3546,-0.0972,-0.0143,0.0399,-0.0074,4937,2019-08-07 16:33:21:098
-7.2223,-5.3129,3.2913,-0.0828,-0.389,-0.0838,-0.0378,-0.0336,-0.0042,4944,2019-08-07 16:33:21:105
-7.1984,-5.3082,3.329,-0.0828,-0.389,-0.0838,-0.0378,-0.0336,-0.0042,4948,2019-08-07 16:33:21:109
-7.1984,-5.3082,3.329,-0.0828,-0.389,-0.0838,-0.0378,-0.0336,-0.0042,4953,2019-08-07 16:33:21:114
-7.0118,-5.4132,3.3856,-0.0828,-0.389,-0.0838,-0.042,-0.0933,-0.001,4958,2019-08-07 16:33:21:119
-7.0118,-5.4132,3.3856,-0.0828,-0.389,-0.0838,-0.042,-0.0933,-0.001,4962,2019-08-07 16:33:21:123
-7.0118,-5.4132,3.3856,-0.3596,-0.3054,-0.0051,-0.0335,-0.1093,-0.0031,4968,2019-08-07 16:33:21:129
-6.9257,-5.3273,3.1358,-0.3596,-0.3054,-0.0051,-0.0335,-0.1093,-0.0031,4973,2019-08-07 16:33:21:134
-6.9257,-5.3273,3.1358,-0.3596,-0.3054,-0.0051,-0.0346,-0.0986,0.0043,4978,2019-08-07 16:33:21:139
-6.8683,-5.3941,3.1593,-0.4107,-0.288,0.152,-0.0346,-0.0986,0.0043,4983,2019-08-07 16:33:21:144
-6.8683,-5.3941,3.1593,-0.4107,-0.288,0.152,-0.041,-0.072,0.0128,4987,2019-08-07 16:33:21:148
-6.8683,-5.3941,3.1593,-0.4107,-0.288,0.152,-0.041,-0.072,0.0128,4993,2019-08-07 16:33:21:154
-6.8539,-5.3941,3.0462,-0.4235,-0.2885,0.2678,-0.0346,-0.0368,0.0118,4998,2019-08-07 16:33:21:159
-6.8539,-5.3941,3.0462,-0.4235,-0.2885,0.2678,-0.0346,-0.0368,0.0118,5003,2019-08-07 16:33:21:164
-6.8539,-5.3941,3.0462,-0.4235,-0.2885,0.2678,-0.0346,-0.0368,0.0118,5008,2019-08-07 16:33:21:169
-6.8539,-5.3941,3.0462,-0.4235,-0.2885,0.2678,-0.0346,-0.0368,0.0118,5013,2019-08-07 16:33:21:174
-6.8635,-5.4275,3.1452,-0.3467,-0.3231,0.2382,-0.0143,0.0207,-0.0095,5017,2019-08-07 16:33:21:178
-6.8635,-5.4275,3.1452,-0.3467,-0.3231,0.2382,-0.0143,0.0207,-0.0095,5023,2019-08-07 16:33:21:184
-6.9257,-5.3082,3.0839,-0.3467,-0.3231,0.2382,-0.0314,0.0441,-0.0149,5028,2019-08-07 16:33:21:189
-6.9257,-5.3082,3.0839,-0.3005,-0.3369,0.1847,-0.0314,0.0441,-0.0149,5033,2019-08-07 16:33:21:194
-6.9257,-5.3082,3.0839,-0.3005,-0.3369,0.1847,-0.041,0.0473,-0.0308,5038,2019-08-07 16:33:21:199
-6.9735,-5.3511,3.1971,-0.3005,-0.3369,0.1847,-0.041,0.0473,-0.0308,5043,2019-08-07 16:33:21:204
-6.9735,-5.3511,3.1971,-0.3005,-0.3369,0.1847,-0.0282,0.0409,-0.0319,5048,2019-08-07 16:33:21:209
-6.9735,-5.3511,3.1971,-0.2952,-0.2715,0.1326,-0.0282,0.0409,-0.0319,5053,2019-08-07 16:33:21:214
-7.0501,-5.4371,3.1971,-0.2952,-0.2715,0.1326,-0.0112,0.0239,-0.0223,5058,2019-08-07 16:33:21:219
-7.0501,-5.4371,3.1971,-0.2952,-0.2715,0.1326,-0.0112,0.0239,-0.0223,5064,2019-08-07 16:33:21:225
-7.0501,-5.4371,3.1971,-0.2952,-0.2715,0.1326,0.0102,-0.0134,-0.0053,5068,2019-08-07 16:33:21:229
-6.8778,-5.4705,3.2725,-0.2952,-0.2715,0.1326,0.0102,-0.0134,-0.0053,5073,2019-08-07 16:33:21:234
-6.8778,-5.4705,3.2725,-0.4611,-0.2257,-0.0039,0.0102,-0.0134,-0.0053,5078,2019-08-07 16:33:21:239
-6.8778,-5.4705,3.2725,-0.4611,-0.2257,-0.0039,0.0304,-0.039,0.0096,5082,2019-08-07 16:33:21:243
-6.9352,-5.4371,3.3055,-0.4611,-0.2257,-0.0039,0.0304,-0.039,0.0096,5088,2019-08-07 16:33:21:249
-6.9352,-5.4371,3.3055,-0.4611,-0.2257,-0.0039,0.0464,-0.073,0.0278,5093,2019-08-07 16:33:21:254
-6.8395,-5.4466,3.1688,-0.3826,-0.1684,0.0136,0.0464,-0.073,0.0278,5099,2019-08-07 16:33:21:260
-6.8395,-5.4466,3.1688,-0.3826,-0.1684,0.0136,0.0624,-0.0869,0.0341,5103,2019-08-07 16:33:21:264
-6.8395,-5.4466,3.1688,-0.3826,-0.1684,0.0136,0.0624,-0.0869,0.0341,5107,2019-08-07 16:33:21:268
-6.7678,-5.3559,2.9991,-0.3826,-0.1684,0.0136,0.0624,-0.0869,0.0341,5114,2019-08-07 16:33:21:275
-6.7678,-5.3559,2.9991,-0.4286,-0.3654,0.3241,0.0453,-0.0581,0.0341,5118,2019-08-07 16:33:21:279
-6.8539,-5.3464,3.0038,-0.4286,-0.3654,0.3241,0.0453,-0.0581,0.0341,5123,2019-08-07 16:33:21:284
-6.8539,-5.3464,3.0038,-0.4286,-0.3654,0.3241,0.0208,-0.0262,0.0384,5127,2019-08-07 16:33:21:288
-6.8539,-5.3464,3.0038,-0.4286,-0.3654,0.3241,0.0208,-0.0262,0.0384,5133,2019-08-07 16:33:21:294
-6.873,-5.3893,3.1735,-0.4022,-0.2868,0.1565,0.0208,0.0207,0.0267,5138,2019-08-07 16:33:21:299
-6.873,-5.3893,3.1735,-0.4022,-0.2868,0.1565,0.0208,0.0207,0.0267,5143,2019-08-07 16:33:21:304
-6.9878,-5.3321,3.2631,-0.2897,-0.3413,0.0667,0.0315,0.0303,0.0203,5149,2019-08-07 16:33:21:310
-6.9878,-5.3321,3.2631,-0.2897,-0.3413,0.0667,0.0315,0.0303,0.0203,5153,2019-08-07 16:33:21:314
-6.9878,-5.3321,3.2631,-0.2897,-0.3413,0.0667,0.0485,0.0313,0.0096,5158,2019-08-07 16:33:21:319
-7.1696,-5.3559,3.2395,-0.2897,-0.3413,0.0667,0.0485,0.0313,0.0096,5164,2019-08-07 16:33:21:325
-7.1696,-5.3559,3.2395,-0.0787,-0.3353,0.0721,0.0485,0.0313,0.0096,5169,2019-08-07 16:33:21:330
-7.1696,-5.3511,3.2206,-0.0787,-0.3353,0.0721,0.0347,-0.0102,0.0224,5172,2019-08-07 16:33:21:333
-7.1696,-5.3511,3.2206,-0.0787,-0.3353,0.0721,0.0347,-0.0102,0.0224,5178,2019-08-07 16:33:21:339
-7.1696,-5.3511,3.2206,-0.0787,-0.3353,0.0721,0.0134,-0.0507,0.0224,5183,2019-08-07 16:33:21:344
-7.1266,-5.3511,3.3196,-0.1567,-0.3104,0.0175,0.0134,-0.0507,0.0224,5187,2019-08-07 16:33:21:348
-7.1266,-5.3511,3.3196,-0.1567,-0.3104,0.0175,-0.0048,-0.0869,0.0224,5193,2019-08-07 16:33:21:354
-6.9878,-5.3607,3.1924,-0.2941,-0.2991,0.1508,-0.0048,-0.0869,0.0224,5198,2019-08-07 16:33:21:359
-6.9878,-5.3607,3.1924,-0.2941,-0.2991,0.1508,-0.0197,-0.0944,0.0256,5202,2019-08-07 16:33:21:363
-6.9878,-5.3607,3.1924,-0.2941,-0.2991,0.1508,-0.0197,-0.0944,0.0256,5208,2019-08-07 16:33:21:369
-6.763,-5.4418,3.1169,-0.2941,-0.2991,0.1508,-0.0197,-0.0944,0.0256,5213,2019-08-07 16:33:21:374
-6.763,-5.4418,3.1169,-0.5919,-0.2784,0.2792,-0.0239,-0.0645,0.0182,5218,2019-08-07 16:33:21:379
-6.763,-5.4418,3.1169,-0.5919,-0.2784,0.2792,-0.0239,-0.0645,0.0182,5223,2019-08-07 16:33:21:384
-6.5716,-5.4275,2.9755,-0.5919,-0.2784,0.2792,-0.0175,-0.023,0.0128,5227,2019-08-07 16:33:21:388
-6.5716,-5.4275,2.9755,-0.5919,-0.2784,0.2792,-0.0175,-0.023,0.0128,5233,2019-08-07 16:33:21:394
-6.5716,-5.4275,2.9755,-0.4155,-0.3086,-0.7185,-0.0399,-0.0177,0.032,5238,2019-08-07 16:33:21:399
-6.7151,-5.3846,4.1068,-0.4155,-0.3086,-0.7185,-0.0399,-0.0177,0.032,5243,2019-08-07 16:33:21:404
-6.7151,-5.3846,4.1068,-0.4155,-0.3086,-0.7185,0.1039,-0.0645,0.0033,5248,2019-08-07 16:33:21:409
-6.9111,-5.5899,3.1264,-0.4155,-0.3086,-0.7185,0.1039,-0.0645,0.0033,5253,2019-08-07 16:33:21:414
-6.9111,-5.5899,3.1264,-0.2742,-0.2366,0.2955,0.0986,-0.0038,-0.0127,5257,2019-08-07 16:33:21:418
-6.9589,-5.2557,3.2207,-0.2742,-0.2366,0.2955,0.0986,-0.0038,-0.0127,5264,2019-08-07 16:33:21:425
-6.9589,-5.2557,3.2207,-0.2742,-0.2366,0.2955,0.0751,0.0196,0.0086,5268,2019-08-07 16:33:21:429
-6.9589,-5.2557,3.2207,-0.2742,-0.2366,0.2955,0.0751,0.0196,0.0086,5273,2019-08-07 16:33:21:434
-7.0402,-5.2652,3.3432,-0.2326,-0.3829,0.0391,0.0592,0.0047,-0.0106,5278,2019-08-07 16:33:21:439
-7.0402,-5.2652,3.3432,-0.2326,-0.3829,0.0391,0.0592,0.0047,-0.0106,5283,2019-08-07 16:33:21:444
-7.0402,-5.2652,3.3432,-0.2326,-0.3829,0.0391,0.0592,0.0047,-0.0106,5288,2019-08-07 16:33:21:449
-7.0641,-5.3082,3.4894,-0.2326,-0.3829,0.0391,0.0496,-0.007,0.0011,5293,2019-08-07 16:33:21:454
-7.0641,-5.3082,3.4894,-0.4668,-0.2542,-0.1601,0.0496,-0.007,0.0011,5298,2019-08-07 16:33:21:459
-6.6527,-5.4323,3.4611,-0.4668,-0.2542,-0.1601,0.0698,0.009,0.0022,5303,2019-08-07 16:33:21:464
-6.6527,-5.4323,3.4611,-0.4668,-0.2542,-0.1601,0.0698,0.009,0.0022,5308,2019-08-07 16:33:21:469
-6.6527,-5.4323,3.4611,-0.4668,-0.2542,-0.1601,0.0613,0.0473,0.0022,5313,2019-08-07 16:33:21:474
-6.8775,-5.2366,3.282,-0.3348,-0.4311,0.0083,0.0613,0.0473,0.0022,5318,2019-08-07 16:33:21:479
-6.8775,-5.2366,3.282,-0.3348,-0.4311,0.0083,0.0165,0.0612,0.0214,5323,2019-08-07 16:33:21:484
-6.9924,-5.2557,3.48,-0.3348,-0.4311,0.0083,0.0165,0.0612,0.0214,5327,2019-08-07 16:33:21:488
-6.9924,-5.2557,3.48,-0.3348,-0.4311,0.0083,0.0091,0.042,0.0342,5333,2019-08-07 16:33:21:494
-6.9924,-5.2557,3.48,-0.3174,-0.2727,0.0649,0.0091,0.042,0.0342,5337,2019-08-07 16:33:21:498
-6.9541,-5.3559,3.2631,-0.3174,-0.2727,0.0649,-0.0112,0.0356,0.0224,5343,2019-08-07 16:33:21:504
-6.9541,-5.3559,3.2631,-0.3174,-0.2727,0.0649,-0.0112,0.0356,0.0224,5347,2019-08-07 16:33:21:508
-6.9684,-5.2939,3.282,-0.3174,-0.2727,0.0649,-0.0644,0.0292,0.0171,5353,2019-08-07 16:33:21:514