ACCELEROMETER X (m/s²),ACCELEROMETER Y (m/s²),ACCELEROMETER Z (m/s²),LINEAR ACCELERATION X (m/s²),LINEAR ACCELERATION Y (m/s²),LINEAR ACCELERATION Z (m/s²),GYROSCOPE X (rad/s),GYROSCOPE Y (rad/s),GYROSCOPE Z (rad/s),Time since start in ms ,YYYY-MO-DD HH-MI-SS_SSS
-4.8158,-7.0081,4.2398,-0.0664,-0.2857,0.2335,0.0038,-0.0496,0.015,3,2019-08-07 16:31:32:437
-4.8331,-7.0035,4.1318,-0.0664,-0.2857,0.2335,0.0038,-0.0496,0.015,8,2019-08-07 16:31:32:442
-4.8331,-7.0035,4.1318,-0.0664,-0.2857,0.2335,0.0048,-0.0283,0.0054,13,2019-08-07 16:31:32:447
-4.8379,-6.9272,4.1836,-0.0372,-0.3364,0.256,0.0048,-0.0283,0.0054,18,2019-08-07 16:31:32:452
-4.8379,-6.9272,4.1836,-0.0372,-0.3364,0.256,0.0027,-0.0028,-0.0063,23,2019-08-07 16:31:32:457
-4.8379,-6.9272,4.1836,-0.0372,-0.3364,0.256,0.0027,-0.0028,-0.0063,28,2019-08-07 16:31:32:462
-4.9049,-6.889,4.2072,-0.0372,-0.3364,0.256,-0.0101,0.009,-0.0233,33,2019-08-07 16:31:32:467
-4.9049,-6.889,4.2072,-0.0372,-0.3364,0.256,-0.0101,0.009,-0.0233,38,2019-08-07 16:31:32:472
-4.9049,-6.889,4.2072,-0.0037,-0.3185,0.2116,-0.0207,0.026,-0.0287,43,2019-08-07 16:31:32:477
-4.8857,-6.9033,4.1742,-0.0037,-0.3185,0.2116,-0.0207,0.026,-0.0287,48,2019-08-07 16:31:32:482
-4.8857,-6.9033,4.1742,-0.0037,-0.3185,0.2116,-0.0207,0.026,-0.0287,53,2019-08-07 16:31:32:487
-4.8187,-6.9558,4.1742,-0.0037,-0.3185,0.2116,-0.0218,0.043,-0.034,58,2019-08-07 16:31:32:492
-4.8187,-6.9558,4.1742,-0.0274,-0.304,0.2844,-0.0218,0.043,-0.034,63,2019-08-07 16:31:32:497
-4.8187,-6.9558,4.1742,-0.0274,-0.304,0.2844,-0.0218,0.0484,-0.0404,67,2019-08-07 16:31:32:501
-4.8139,-6.9606,4.2732,-0.0274,-0.304,0.2844,-0.0218,0.0484,-0.0404,73,2019-08-07 16:31:32:507
-4.8139,-6.9606,4.2732,-0.0274,-0.304,0.2844,-0.0165,0.0356,-0.0404,78,2019-08-07 16:31:32:512
-4.7661,-6.9558,4.2826,-0.0501,-0.3235,0.0793,-0.0165,0.0356,-0.0404,82,2019-08-07 16:31:32:516
-4.7661,-6.9558,4.2826,-0.0501,-0.3235,0.0793,-0.008,4.0E-4,-0.0308,88,2019-08-07 16:31:32:522
-4.7661,-6.9558,4.2826,-0.0501,-0.3235,0.0793,-0.008,4.0E-4,-0.0308,93,2019-08-07 16:31:32:527
-4.7517,-6.9272,4.3439,-0.0501,-0.3235,0.0793,-0.008,-0.0347,-0.0233,98,2019-08-07 16:31:32:532
-4.7517,-6.9272,4.3439,-0.1322,-0.3601,0.1399,-0.008,-0.0347,-0.0233,103,2019-08-07 16:31:32:537
-4.7709,-6.994,4.2261,-0.1322,-0.3601,0.1399,-0.0016,-0.0677,-0.0127,108,2019-08-07 16:31:32:542
-4.7709,-6.994,4.2261,-0.1322,-0.3601,0.1399,-0.0016,-0.0677,-0.0127,113,2019-08-07 16:31:32:547
-4.7709,-6.994,4.2261,-0.1322,-0.3601,0.1399,0.0069,-0.0816,-0.0084,118,2019-08-07 16:31:32:552
-4.6847,-6.9319,4.1837,-0.1777,-0.3466,0.2454,0.0069,-0.0816,-0.0084,123,2019-08-07 16:31:32:557
-4.6847,-6.9319,4.1837,-0.1777,-0.3466,0.2454,0.0123,-0.0837,0.0033,128,2019-08-07 16:31:32:562
-4.6464,-6.8937,4.1224,-0.1777,-0.3466,0.2454,0.0123,-0.0837,0.0033,132,2019-08-07 16:31:32:566
-4.6464,-6.8937,4.1224,-0.1777,-0.3466,0.2454,0.008,-0.0613,0.0097,138,2019-08-07 16:31:32:572
-4.6464,-6.8937,4.1224,-0.2863,-0.3787,0.3203,0.008,-0.0613,0.0097,143,2019-08-07 16:31:32:577
-4.5747,-6.8699,4.1931,-0.2863,-0.3787,0.3203,0.008,-0.0613,0.0097,148,2019-08-07 16:31:32:582
-4.5747,-6.8699,4.1931,-0.2863,-0.3787,0.3203,0.0133,-0.0038,-0.001,153,2019-08-07 16:31:32:587
-4.5747,-6.8699,4.1931,-0.2863,-0.3787,0.3203,0.0133,-0.0038,-0.001,158,2019-08-07 16:31:32:592
-4.7278,-6.9176,4.1224,-0.1382,-0.3677,0.2989,0.0165,0.0409,0.0012,163,2019-08-07 16:31:32:597
-4.7278,-6.9176,4.1224,-0.1382,-0.3677,0.2989,0.0165,0.0409,0.0012,168,2019-08-07 16:31:32:602
-4.7804,-6.9224,4.1884,-0.1382,-0.3677,0.2989,0.0197,0.0622,-0.0031,172,2019-08-07 16:31:32:606
-4.7804,-6.9224,4.1884,-0.1382,-0.3677,0.2989,0.0197,0.0622,-0.0031,178,2019-08-07 16:31:32:612
-4.9,-6.8508,4.2497,0.0136,-0.404,0.1964,0.0208,0.0675,-0.0116,183,2019-08-07 16:31:32:617
-4.9,-6.8508,4.2497,0.0136,-0.404,0.1964,0.0208,0.0675,-0.0116,188,2019-08-07 16:31:32:622
-4.9,-6.8508,4.2497,0.0136,-0.404,0.1964,0.0155,0.0569,-0.0084,193,2019-08-07 16:31:32:627
-4.8473,-6.8699,4.2968,0.0136,-0.404,0.1964,0.0155,0.0569,-0.0084,198,2019-08-07 16:31:32:632
-4.8473,-6.8699,4.2968,0.0181,-0.4213,0.0712,0.0133,0.0143,-0.0042,203,2019-08-07 16:31:32:637
-4.8473,-6.8699,4.2968,0.0181,-0.4213,0.0712,0.0133,0.0143,-0.0042,208,2019-08-07 16:31:32:642
-4.9143,-6.8126,4.3675,0.0181,-0.4213,0.0712,0.0133,0.0143,-0.0042,213,2019-08-07 16:31:32:647
-4.9143,-6.8126,4.3675,0.0181,-0.4213,0.0712,0.0091,-0.0251,0.0044,217,2019-08-07 16:31:32:651
-4.8473,-6.8794,4.3015,-0.0208,-0.3902,0.1358,0.0091,-0.0251,0.0044,223,2019-08-07 16:31:32:657
-4.8473,-6.8794,4.3015,-0.0208,-0.3902,0.1358,0.0059,-0.0571,0.0086,228,2019-08-07 16:31:32:662
-4.8473,-6.8794,4.3015,-0.0208,-0.3902,0.1358,0.0059,-0.0571,0.0086,233,2019-08-07 16:31:32:667
-4.7899,-6.9081,4.2214,-0.0208,-0.3902,0.1358,0.0059,-0.072,0.0129,238,2019-08-07 16:31:32:672
-4.7899,-6.9081,4.2214,-0.1178,-0.3068,0.1716,0.0059,-0.072,0.0129,243,2019-08-07 16:31:32:677
-4.766,-6.951,4.2214,-0.1178,-0.3068,0.1716,0.0091,-0.0699,0.0182,249,2019-08-07 16:31:32:683
-4.766,-6.951,4.2214,-0.1178,-0.3068,0.1716,0.0091,-0.0699,0.0182,252,2019-08-07 16:31:32:686
-4.766,-6.951,4.2214,-0.1178,-0.3068,0.1716,0.0123,-0.0496,0.0118,258,2019-08-07 16:31:32:692
-4.7325,-6.9701,4.2025,-0.1344,-0.3379,0.2253,0.0123,-0.0496,0.0118,262,2019-08-07 16:31:32:696
-4.7325,-6.9701,4.2025,-0.1344,-0.3379,0.2253,0.0133,-0.0273,0.0044,268,2019-08-07 16:31:32:702
-4.7325,-6.9701,4.2025,-0.1344,-0.3379,0.2253,0.0133,-0.0273,0.0044,273,2019-08-07 16:31:32:707
-4.7277,-6.9272,4.1507,-0.1344,-0.3379,0.2253,0.0091,0.0047,0.0012,278,2019-08-07 16:31:32:712
-4.7277,-6.9272,4.1507,-0.092,-0.389,0.2646,0.0091,0.0047,0.0012,283,2019-08-07 16:31:32:717
-4.7277,-6.9272,4.1507,-0.092,-0.389,0.2646,0.0091,0.0047,0.0012,287,2019-08-07 16:31:32:721
-4.7277,-6.9272,4.1507,-0.092,-0.389,0.2646,0.0048,0.0367,-0.0052,293,2019-08-07 16:31:32:727
-4.7994,-6.9415,4.2874,-0.092,-0.389,0.2646,0.0048,0.0367,-0.0052,298,2019-08-07 16:31:32:732
-4.7994,-6.9415,4.2874,-0.0904,-0.3316,0.2566,0.0059,0.0462,-0.0116,303,2019-08-07 16:31:32:737
-4.7994,-6.9129,4.3063,-0.0904,-0.3316,0.2566,0.0059,0.0462,-0.0116,308,2019-08-07 16:31:32:742
-4.7994,-6.9129,4.3063,-0.0904,-0.3316,0.2566,-5.0E-4,0.0452,-0.018,313,2019-08-07 16:31:32:747
-4.7994,-6.9129,4.3063,-0.0904,-0.3316,0.2566,-5.0E-4,0.0452,-0.018,318,2019-08-07 16:31:32:752
-4.7515,-6.8985,4.3063,-0.1023,-0.3704,0.1446,0.0048,0.026,-0.0116,323,2019-08-07 16:31:32:757
-4.7515,-6.8985,4.3063,-0.1023,-0.3704,0.1446,0.0048,0.026,-0.0116,327,2019-08-07 16:31:32:761
-4.7659,-6.932,4.3675,-0.1023,-0.3704,0.1446,0.0133,0.0058,-0.0095,333,2019-08-07 16:31:32:767
-4.7659,-6.932,4.3675,-0.1023,-0.3704,0.1446,0.0133,0.0058,-0.0095,338,2019-08-07 16:31:32:772
-4.7659,-6.932,4.3675,-0.1115,-0.3173,0.1036,0.0069,-0.0209,-0.0042,343,2019-08-07 16:31:32:777
-4.718,-6.951,4.344,-0.1115,-0.3173,0.1036,0.0069,-0.0209,-0.0042,349,2019-08-07 16:31:32:783
-4.718,-6.951,4.344,-0.1115,-0.3173,0.1036,0.0069,-0.055,0.0044,353,2019-08-07 16:31:32:787
-4.7372,-6.9558,4.3063,-0.1115,-0.3173,0.1036,0.0069,-0.055,0.0044,360,2019-08-07 16:31:32:794
-4.7372,-6.9558,4.3063,-0.1115,-0.3173,0.1036,0.0069,-0.055,0.0044,363,2019-08-07 16:31:32:797
-4.7372,-6.9558,4.3063,-0.2847,-0.2775,0.181,0.0038,-0.0741,0.0161,368,2019-08-07 16:31:32:802
-4.5553,-6.9701,4.2026,-0.2847,-0.2775,0.181,0.0038,-0.0741,0.0161,372,2019-08-07 16:31:32:806
-4.5553,-6.9701,4.2026,-0.2847,-0.2775,0.181,0.0219,-0.0305,0.0225,378,2019-08-07 16:31:32:812
-4.5553,-6.9701,4.2026,-0.2847,-0.2775,0.181,0.0219,-0.0305,0.0225,382,2019-08-07 16:31:32:816
-4.6223,-7.0322,4.179,-0.2408,-0.2263,0.2819,0.0229,-6.0E-4,0.0246,388,2019-08-07 16:31:32:822
-4.6223,-7.0322,4.179,-0.2408,-0.2263,0.2819,0.0229,-6.0E-4,0.0246,393,2019-08-07 16:31:32:827
-4.718,-6.9749,4.3393,-0.2408,-0.2263,0.2819,0.0197,0.009,0.0246,399,2019-08-07 16:31:32:833
-4.718,-6.9749,4.3393,-0.2408,-0.2263,0.2819,0.0197,0.009,0.0246,403,2019-08-07 16:31:32:837
-4.718,-6.9749,4.3393,-0.1305,-0.3128,0.1756,0.0197,0.009,0.0246,408,2019-08-07 16:31:32:842
-4.7515,-6.8985,4.2261,-0.1305,-0.3128,0.1756,0.0197,0.0292,0.0172,413,2019-08-07 16:31:32:847
-4.7515,-6.8985,4.2261,-0.1305,-0.3128,0.1756,0.0197,0.0292,0.0172,418,2019-08-07 16:31:32:852
-4.7515,-6.8985,4.2261,-0.1305,-0.3128,0.1756,0.0187,0.0505,0.0076,423,2019-08-07 16:31:32:857
-4.8424,-6.8413,4.3063,-0.0318,-0.4094,0.1555,0.0187,0.0505,0.0076,428,2019-08-07 16:31:32:862
-4.8424,-6.8413,4.3063,-0.0318,-0.4094,0.1555,0.0101,0.0548,-0.001,432,2019-08-07 16:31:32:866
-4.9285,-6.8126,4.3676,-0.0318,-0.4094,0.1555,0.0101,0.0548,-0.001,438,2019-08-07 16:31:32:872
-4.9285,-6.8126,4.3676,-0.0318,-0.4094,0.1555,0.0027,0.0356,-0.0052,443,2019-08-07 16:31:32:877
-4.9285,-6.8126,4.3676,6.0E-4,-0.436,0.0769,0.0027,0.0356,-0.0052,447,2019-08-07 16:31:32:881
-4.8567,-6.8747,4.3251,6.0E-4,-0.436,0.0769,-5.0E-4,0.0079,-0.0052,453,2019-08-07 16:31:32:887
-4.8567,-6.8747,4.3251,6.0E-4,-0.436,0.0769,-5.0E-4,0.0079,-0.0052,458,2019-08-07 16:31:32:892
-4.8328,-6.8747,4.2827,6.0E-4,-0.436,0.0769,0.0027,-0.0049,-0.0063,463,2019-08-07 16:31:32:897
-4.8328,-6.8747,4.2827,-0.0198,-0.3686,0.1895,0.0027,-0.0049,-0.0063,467,2019-08-07 16:31:32:901
-4.8328,-6.8747,4.2827,-0.0198,-0.3686,0.1895,0.0038,-0.023,-0.0052,473,2019-08-07 16:31:32:907
-4.9045,-6.9415,4.3676,0.0235,-0.3063,0.0913,0.0038,-0.023,-0.0052,477,2019-08-07 16:31:32:911
-4.9045,-6.9415,4.3676,0.0235,-0.3063,0.0913,0.0027,-0.0518,0.0044,483,2019-08-07 16:31:32:917
-4.9045,-6.9415,4.3676,0.0235,-0.3063,0.0913,0.0027,-0.0518,0.0044,488,2019-08-07 16:31:32:922
-4.761,-6.9415,4.2969,0.0235,-0.3063,0.0913,0.0027,-0.0518,0.0044,494,2019-08-07 16:31:32:928
-4.761,-6.9415,4.2969,-0.1834,-0.3576,0.2245,0.008,-0.0624,0.0033,498,2019-08-07 16:31:32:932
-4.761,-6.9415,4.2969,-0.1834,-0.3576,0.2245,0.008,-0.0624,0.0033,503,2019-08-07 16:31:32:937
-4.7514,-6.8508,4.2497,-0.1834,-0.3576,0.2245,0.008,-0.0624,0.0033,507,2019-08-07 16:31:32:941
-4.7514,-6.8508,4.2497,-0.1834,-0.3576,0.2245,0.0048,-0.0496,0.0065,513,2019-08-07 16:31:32:947
-4.7609,-6.9033,4.2309,-0.1134,-0.3421,0.2392,0.0048,-0.0496,0.0065,518,2019-08-07 16:31:32:952
-4.7609,-6.9033,4.2309,-0.1134,-0.3421,0.2392,6.0E-4,-0.0177,0.0033,523,2019-08-07 16:31:32:957
-4.7609,-6.9033,4.2309,-0.1134,-0.3421,0.2392,6.0E-4,-0.0177,0.0033,527,2019-08-07 16:31:32:961
-4.7849,-6.8651,4.2639,-0.1134,-0.3421,0.2392,0.0038,-0.0038,1.0E-4,533,2019-08-07 16:31:32:967
-4.7849,-6.8651,4.2639,-0.104,-0.3461,0.2969,0.0038,-0.0038,1.0E-4,538,2019-08-07 16:31:32:972
-4.7322,-6.8556,4.2356,-0.104,-0.3461,0.2969,6.0E-4,0.0196,-0.0052,543,2019-08-07 16:31:32:977
-4.7322,-6.8556,4.2356,-0.104,-0.3461,0.2969,6.0E-4,0.0196,-0.0052,548,2019-08-07 16:31:32:982
-4.7322,-6.8556,4.2356,-0.104,-0.3461,0.2969,-0.0069,0.0526,-0.0073,553,2019-08-07 16:31:32:987
-4.804,-6.8938,4.1932,-0.0734,-0.3512,0.2742,-0.0069,0.0526,-0.0073,558,2019-08-07 16:31:32:992
-4.804,-6.8938,4.1932,-0.0734,-0.3512,0.2742,-0.0069,0.0526,-0.0073,563,2019-08-07 16:31:32:997
-4.804,-6.8938,4.1932,-0.0734,-0.3512,0.2742,-0.008,0.0633,-0.0137,568,2019-08-07 16:31:33:002
-4.8327,-6.9272,4.2969,-0.0734,-0.3512,0.2742,-0.008,0.0633,-0.0137,572,2019-08-07 16:31:33:006
-4.8327,-6.9272,4.2969,-0.0685,-0.3478,0.1726,-0.009,0.0505,-0.0105,578,2019-08-07 16:31:33:012
-4.8614,-6.9081,4.3534,-0.0685,-0.3478,0.1726,-0.009,0.0505,-0.0105,583,2019-08-07 16:31:33:017
-4.8614,-6.9081,4.3534,-0.0685,-0.3478,0.1726,-0.0048,0.01,-0.0063,588,2019-08-07 16:31:33:022
-4.8614,-6.9081,4.3534,-0.0685,-0.3478,0.1726,-0.0048,0.01,-0.0063,593,2019-08-07 16:31:33:027
-4.8039,-6.8938,4.3299,-0.1509,-0.353,0.119,6.0E-4,-0.0273,-0.0042,598,2019-08-07 16:31:33:032
-4.8039,-6.8938,4.3299,-0.1509,-0.353,0.119,6.0E-4,-0.0273,-0.0042,602,2019-08-07 16:31:33:036
-4.8039,-6.8938,4.3299,-0.1509,-0.353,0.119,6.0E-4,-0.0273,-0.0042,608,2019-08-07 16:31:33:042
-4.6987,-6.9033,4.3204,-0.1509,-0.353,0.119,-5.0E-4,-0.0539,0.0033,613,2019-08-07 16:31:33:047
-4.6987,-6.9033,4.3204,-0.2378,-0.3142,0.1855,-5.0E-4,-0.0539,0.0033,618,2019-08-07 16:31:33:052
-4.6365,-6.9177,4.3063,-0.2378,-0.3142,0.1855,0.0038,-0.0624,0.0161,623,2019-08-07 16:31:33:057
-4.6365,-6.9177,4.3063,-0.2378,-0.3142,0.1855,0.0038,-0.0624,0.0161,627,2019-08-07 16:31:33:061
-4.6365,-6.9177,4.3063,-0.2553,-0.3227,0.2126,0.0155,-0.0507,0.0193,633,2019-08-07 16:31:33:067
-4.6365,-6.9272,4.2309,-0.2553,-0.3227,0.2126,0.0155,-0.0507,0.0193,638,2019-08-07 16:31:33:072
-4.6365,-6.9272,4.2309,-0.2553,-0.3227,0.2126,0.024,-0.0251,0.0182,644,2019-08-07 16:31:33:078
-4.6747,-6.8699,4.1979,-0.202,-0.3717,0.2756,0.024,-0.0251,0.0182,648,2019-08-07 16:31:33:082
-4.6747,-6.8699,4.1979,-0.202,-0.3717,0.2756,0.024,-0.0251,0.0182,652,2019-08-07 16:31:33:086
-4.6747,-6.8699,4.1979,-0.202,-0.3717,0.2756,0.0208,0.01,0.0108,658,2019-08-07 16:31:33:092
-4.6986,-6.7983,4.1838,-0.202,-0.3717,0.2756,0.0208,0.01,0.0108,662,2019-08-07 16:31:33:096
-4.6986,-6.7983,4.1838,-0.1384,-0.4592,0.2348,0.0133,0.0409,0.0097,668,2019-08-07 16:31:33:102
-4.7512,-6.8079,4.2686,-0.1384,-0.4592,0.2348,0.0133,0.0409,0.0097,672,2019-08-07 16:31:33:106
-4.7512,-6.8079,4.2686,-0.1384,-0.4592,0.2348,0.0038,0.0601,0.0065,678,2019-08-07 16:31:33:112
-4.7512,-6.8079,4.2686,-0.1384,-0.4592,0.2348,0.0038,0.0601,0.0065,682,2019-08-07 16:31:33:116
-4.8661,-6.8604,4.2639,-0.0835,-0.3617,0.2395,0.0038,0.0601,0.0065,688,2019-08-07 16:31:33:122
-4.8661,-6.8604,4.2639,-0.0835,-0.3617,0.2395,-5.0E-4,0.0612,0.0118,693,2019-08-07 16:31:33:127
-4.8517,-6.8938,4.2733,-0.0835,-0.3617,0.2395,-5.0E-4,0.0612,0.0118,698,2019-08-07 16:31:33:132
-4.8517,-6.8938,4.2733,-0.0835,-0.3617,0.2395,-0.0048,0.0452,0.0172,703,2019-08-07 16:31:33:137
-4.8517,-6.8938,4.2733,-0.0835,-0.3617,0.2395,-0.0048,0.0452,0.0172,707,2019-08-07 16:31:33:141
-4.8038,-6.9702,4.3535,-0.0915,-0.2643,0.1113,-5.0E-4,0.0207,0.0193,713,2019-08-07 16:31:33:147
-4.8038,-6.9702,4.3535,-0.0915,-0.2643,0.1113,-5.0E-4,0.0207,0.0193,718,2019-08-07 16:31:33:152
-4.7751,-6.9272,4.3535,-0.0915,-0.2643,0.1113,-0.0016,-0.0166,0.0257,723,2019-08-07 16:31:33:157
-4.7751,-6.9272,4.3535,-0.1242,-0.276,0.13,-0.0016,-0.0166,0.0257,728,2019-08-07 16:31:33:162
-4.7751,-6.9272,4.3535,-0.1242,-0.276,0.13,-0.0016,-0.0379,0.0299,733,2019-08-07 16:31:33:167
-4.8038,-6.9224,4.3205,-0.1242,-0.276,0.13,-0.0016,-0.0379,0.0299,738,2019-08-07 16:31:33:172
-4.8038,-6.9224,4.3205,-0.1242,-0.276,0.13,-0.0016,-0.0379,0.0299,743,2019-08-07 16:31:33:177
-4.7655,-6.8652,4.311,-0.1347,-0.3637,0.1575,-0.0048,-0.0496,0.0299,748,2019-08-07 16:31:33:182
-4.7655,-6.8652,4.311,-0.1347,-0.3637,0.1575,-0.0048,-0.0496,0.0299,753,2019-08-07 16:31:33:187
-4.7655,-6.8652,4.311,-0.1347,-0.3637,0.1575,-5.0E-4,-0.0443,0.031,758,2019-08-07 16:31:33:192
-4.7416,-6.8604,4.2356,-0.1592,-0.3668,0.235,-5.0E-4,-0.0443,0.031,763,2019-08-07 16:31:33:197
-4.7416,-6.8604,4.2356,-0.1592,-0.3668,0.235,-0.0037,-0.0198,0.0235,768,2019-08-07 16:31:33:202
-4.7416,-6.8604,4.2356,-0.1592,-0.3668,0.235,-0.0037,-0.0198,0.0235,773,2019-08-07 16:31:33:207
-4.8134,-6.889,4.2309,-0.109,-0.3743,0.3017,-0.0037,4.0E-4,0.0161,779,2019-08-07 16:31:33:213
-4.8134,-6.889,4.2309,-0.109,-0.3743,0.3017,-0.0037,4.0E-4,0.0161,783,2019-08-07 16:31:33:217
-4.8134,-6.889,4.2309,-0.109,-0.3743,0.3017,-0.0037,4.0E-4,0.0161,787,2019-08-07 16:31:33:221
-4.8229,-6.8508,4.1696,-0.109,-0.3743,0.3017,-0.0101,0.0441,0.0022,793,2019-08-07 16:31:33:227
-4.8229,-6.8508,4.1696,-0.109,-0.3743,0.3017,-0.0101,0.0441,0.0022,797,2019-08-07 16:31:33:231
-4.8229,-6.8508,4.1696,-0.1571,-0.3746,0.2674,-0.0133,0.0718,-0.0063,803,2019-08-07 16:31:33:237
-4.8707,-6.889,4.2875,-0.1571,-0.3746,0.2674,-0.0133,0.0718,-0.0063,808,2019-08-07 16:31:33:242
-4.8707,-6.889,4.2875,-0.1571,-0.3746,0.2674,-0.009,0.0782,-0.0105,813,2019-08-07 16:31:33:247
-4.8707,-6.889,4.2875,-0.1571,-0.3746,0.2674,-0.009,0.0782,-0.0105,818,2019-08-07 16:31:33:252
-4.9234,-6.8938,4.2828,0.0084,-0.3327,0.1733,-0.008,0.0612,-0.0095,823,2019-08-07 16:31:33:257
-4.9234,-6.8938,4.2828,0.0084,-0.3327,0.1733,-0.008,0.0612,-0.0095,828,2019-08-07 16:31:33:262
-4.9664,-6.889,4.3629,0.0084,-0.3327,0.1733,-0.0048,0.026,-0.0042,833,2019-08-07 16:31:33:267
-4.9664,-6.889,4.3629,0.0084,-0.3327,0.1733,-0.0048,0.026,-0.0042,838,2019-08-07 16:31:33:272
-4.9664,-6.889,4.3629,-0.0473,-0.3522,0.0327,-0.008,-0.0273,0.0012,843,2019-08-07 16:31:33:277
-4.909,-6.9272,4.3865,-0.0473,-0.3522,0.0327,-0.008,-0.0273,0.0012,849,2019-08-07 16:31:33:283
-4.909,-6.9272,4.3865,-0.0473,-0.3522,0.0327,-0.0101,-0.0624,0.0065,852,2019-08-07 16:31:33:286
-4.8181,-6.932,4.3205,-0.0473,-0.3522,0.0327,-0.0101,-0.0624,0.0065,858,2019-08-07 16:31:33:292
-4.8181,-6.932,4.3205,-0.1446,-0.3232,0.1498,-0.0101,-0.0624,0.0065,863,2019-08-07 16:31:33:297
-4.8181,-6.932,4.3205,-0.1446,-0.3232,0.1498,-0.009,-0.0795,0.015,868,2019-08-07 16:31:33:302
-4.7128,-6.8461,4.2168,-0.1446,-0.3232,0.1498,-0.009,-0.0795,0.015,873,2019-08-07 16:31:33:307
-4.7128,-6.8461,4.2168,-0.1446,-0.3232,0.1498,-0.008,-0.0667,0.0203,878,2019-08-07 16:31:33:312
-4.7128,-6.8461,4.2168,-0.2365,-0.3602,0.3162,-0.008,-0.0667,0.0203,882,2019-08-07 16:31:33:316
-4.6697,-6.8604,4.2215,-0.2365,-0.3602,0.3162,-0.0037,-0.0283,0.014,888,2019-08-07 16:31:33:322
-4.6697,-6.8604,4.2215,-0.2365,-0.3602,0.3162,-0.0037,-0.0283,0.014,893,2019-08-07 16:31:33:327
-4.6506,-6.8508,4.2074,-0.2365,-0.3602,0.3162,-0.0037,-0.0283,0.014,898,2019-08-07 16:31:33:332
-4.6506,-6.8508,4.2074,-0.227,-0.3831,0.2139,-0.0058,0.0132,0.0129,902,2019-08-07 16:31:33:336
-4.6506,-6.8508,4.2074,-0.227,-0.3831,0.2139,-0.0058,0.0132,0.0129,908,2019-08-07 16:31:33:342
-4.7606,-6.827,4.1885,-0.227,-0.3831,0.2139,-0.0037,0.0462,0.0054,913,2019-08-07 16:31:33:347
-4.7606,-6.827,4.1885,-0.227,-0.3831,0.2139,-0.0037,0.0462,0.0054,917,2019-08-07 16:31:33:351
-4.7606,-6.827,4.1885,-0.1562,-0.4111,0.2606,-0.009,0.0686,0.0097,923,2019-08-07 16:31:33:357
-4.751,-6.7936,4.1555,-0.1562,-0.4111,0.2606,-0.009,0.0686,0.0097,928,2019-08-07 16:31:33:362
-4.751,-6.7936,4.1555,-0.1562,-0.4111,0.2606,-0.0069,0.075,0.0108,933,2019-08-07 16:31:33:367
-4.8467,-6.9129,4.2734,-0.1562,-0.4111,0.2606,-0.0069,0.075,0.0108,938,2019-08-07 16:31:33:372
-4.8467,-6.9129,4.2734,-0.0506,-0.3433,0.1435,-0.0026,0.0665,0.0182,943,2019-08-07 16:31:33:377
-4.8467,-6.9129,4.2734,-0.0506,-0.3433,0.1435,-0.0026,0.0665,0.0182,948,2019-08-07 16:31:33:382
-4.8898,-6.932,4.3299,-0.0506,-0.3433,0.1435,0.0027,0.0335,0.0235,953,2019-08-07 16:31:33:387
-4.8898,-6.932,4.3299,-0.0506,-0.3433,0.1435,0.0027,0.0335,0.0235,958,2019-08-07 16:31:33:392
-4.9232,-6.9034,4.2969,-0.0103,-0.3165,0.1494,0.0016,-0.0028,0.0246,963,2019-08-07 16:31:33:397
-4.9232,-6.9034,4.2969,-0.0103,-0.3165,0.1494,0.0016,-0.0028,0.0246,968,2019-08-07 16:31:33:402
-4.9232,-6.9034,4.2969,-0.0103,-0.3165,0.1494,0.0016,-0.0028,0.0246,973,2019-08-07 16:31:33:407
-4.8802,-6.8699,4.3818,-0.0103,-0.3165,0.1494,-0.0026,-0.0454,0.031,977,2019-08-07 16:31:33:411
-4.8802,-6.8699,4.3818,-0.0599,-0.3368,0.1249,-0.0026,-0.0454,0.031,983,2019-08-07 16:31:33:417
-4.8467,-6.9034,4.2734,-0.0599,-0.3368,0.1249,-0.0026,-0.072,0.031,987,2019-08-07 16:31:33:421
-4.8467,-6.9034,4.2734,-0.0599,-0.3368,0.1249,-0.0026,-0.072,0.031,993,2019-08-07 16:31:33:427
-4.8467,-6.9034,4.2734,-0.0599,-0.3368,0.1249,-0.0048,-0.0635,0.0267,998,2019-08-07 16:31:33:432
-4.7955,-6.9128,4.1599,-0.1337,-0.3247,0.2914,-0.0048,-0.0635,0.0267,1003,2019-08-07 16:31:33:437
-4.7955,-6.9128,4.1599,-0.1337,-0.3247,0.2914,-0.009,-0.0358,0.0193,1008,2019-08-07 16:31:33:442
-4.762,-6.951,4.1505,-0.1337,-0.3247,0.2914,-0.009,-0.0358,0.0193,1013,2019-08-07 16:31:33:447
-4.762,-6.951,4.1505,-0.1337,-0.3247,0.2914,-0.009,0.0036,0.0108,1018,2019-08-07 16:31:33:452
-4.762,-6.951,4.1505,-0.1966,-0.3241,0.2962,-0.009,0.0036,0.0108,1023,2019-08-07 16:31:33:457
-4.7573,-6.9319,4.0845,-0.1966,-0.3241,0.2962,-0.009,0.0036,0.0108,1028,2019-08-07 16:31:33:462
-4.7573,-6.9319,4.0845,-0.1966,-0.3241,0.2962,-0.0101,0.0516,0.0022,1033,2019-08-07 16:31:33:467
-4.8003,-6.9223,4.1694,-0.1966,-0.3241,0.2962,-0.0101,0.0516,0.0022,1038,2019-08-07 16:31:33:472
-4.8003,-6.9223,4.1694,-0.0875,-0.2771,0.1802,-0.0133,0.0835,-0.0042,1043,2019-08-07 16:31:33:477
-4.8003,-6.9223,4.1694,-0.0875,-0.2771,0.1802,-0.0133,0.0835,-0.0042,1048,2019-08-07 16:31:33:482
-4.8912,-6.9128,4.3249,-0.0875,-0.2771,0.1802,-0.0133,0.0835,-0.0042,1053,2019-08-07 16:31:33:487
-4.8912,-6.9128,4.3249,-0.0875,-0.2771,0.1802,-0.0176,0.075,-0.0074,1059,2019-08-07 16:31:33:493
-4.8912,-6.9128,4.3249,-0.0875,-0.2771,0.1802,-0.0176,0.075,-0.0074,1063,2019-08-07 16:31:33:497
-4.9008,-6.8602,4.2683,-0.0468,-0.3549,0.17,-0.0176,0.0409,-0.0074,1068,2019-08-07 16:31:33:502
-4.9008,-6.8602,4.2683,-0.0468,-0.3549,0.17,-0.0176,0.0409,-0.0074,1072,2019-08-07 16:31:33:506
-4.9056,-6.9223,4.3013,-0.0436,-0.2938,0.1337,-0.0165,0.0068,-0.0063,1078,2019-08-07 16:31:33:512
-4.9056,-6.9223,4.3013,-0.0436,-0.2938,0.1337,-0.0165,0.0068,-0.0063,1083,2019-08-07 16:31:33:517
-4.9056,-6.9366,4.2872,-0.0436,-0.2938,0.1337,-0.0207,-0.0454,0.0012,1089,2019-08-07 16:31:33:523
-4.9056,-6.9366,4.2872,-0.1181,-0.2951,0.1431,-0.0207,-0.0454,0.0012,1093,2019-08-07 16:31:33:527
-4.9056,-6.9366,4.2872,-0.1181,-0.2951,0.1431,-0.0186,-0.0741,0.0076,1098,2019-08-07 16:31:33:532
-4.8243,-6.8746,4.2495,-0.1181,-0.2951,0.1431,-0.0186,-0.0741,0.0076,1102,2019-08-07 16:31:33:536
-4.8243,-6.8746,4.2495,-0.1491,-0.3,0.2117,-0.0186,-0.0741,0.0076,1108,2019-08-07 16:31:33:542
-4.8243,-6.8746,4.2495,-0.1491,-0.3,0.2117,-0.0122,-0.0805,0.0171,1113,2019-08-07 16:31:33:547
-4.6616,-6.8746,4.1882,-0.1491,-0.3,0.2117,-0.0122,-0.0805,0.0171,1118,2019-08-07 16:31:33:552
-4.6616,-6.8746,4.1882,-0.1491,-0.3,0.2117,-0.008,-0.0432,0.0118,1123,2019-08-07 16:31:33:557
-4.6425,-6.8937,4.1175,-0.2979,-0.3239,0.3248,-0.008,-0.0432,0.0118,1129,2019-08-07 16:31:33:563
-4.6425,-6.8937,4.1175,-0.2979,-0.3239,0.3248,-5.0E-4,0.01,0.0076,1134,2019-08-07 16:31:33:568
-4.6425,-6.8937,4.1175,-0.2979,-0.3239,0.3248,-5.0E-4,0.01,0.0076,1138,2019-08-07 16:31:33:572
-4.7334,-6.9509,4.1363,-0.2979,-0.3239,0.3248,-5.0E-4,0.01,0.0076,1143,2019-08-07 16:31:33:577
-4.7334,-6.9509,4.1363,-0.1807,-0.3094,0.299,0.0059,0.0526,0.0033,1149,2019-08-07 16:31:33:583
-4.8387,-6.8746,4.24,-0.1807,-0.3094,0.299,0.0059,0.0526,0.0033,1153,2019-08-07 16:31:33:587
-4.8387,-6.8746,4.24,-0.1807,-0.3094,0.299,0.0155,0.0889,1.0E-4,1158,2019-08-07 16:31:33:592
-4.8387,-6.7934,4.2825,-0.1807,-0.3094,0.299,0.0144,0.0803,-0.0052,1164,2019-08-07 16:31:33:598
-4.9392,-6.7934,4.2825,0.0266,-0.3985,0.1324,0.0144,0.0803,-0.0052,1168,2019-08-07 16:31:33:602
-4.9392,-6.7934,4.2825,0.0266,-0.3985,0.1324,0.0144,0.0803,-0.0052,1173,2019-08-07 16:31:33:607
-4.9631,-6.8268,4.3343,0.0088,-0.388,0.0972,0.0048,0.0388,1.0E-4,1178,2019-08-07 16:31:33:612
-4.9631,-6.8268,4.3343,0.0088,-0.388,0.0972,0.0048,0.0388,1.0E-4,1183,2019-08-07 16:31:33:617
-4.9631,-6.8268,4.3343,0.0088,-0.388,0.0972,-0.0069,-0.0145,0.0054,1188,2019-08-07 16:31:33:622
-4.8674,-6.8889,4.2448,0.0088,-0.388,0.0972,-0.0069,-0.0145,0.0054,1193,2019-08-07 16:31:33:627
-4.8674,-6.8889,4.2448,-0.1269,-0.2869,0.1296,-0.009,-0.0347,0.0108,1199,2019-08-07 16:31:33:633
-4.7095,-6.9557,4.2872,-0.1269,-0.2869,0.1296,-0.009,-0.0347,0.0108,1203,2019-08-07 16:31:33:637
-4.7095,-6.9557,4.2872,-0.1269,-0.2869,0.1296,-0.009,-0.0347,0.0108,1208,2019-08-07 16:31:33:642
-4.7095,-6.9557,4.2872,-0.1269,-0.2869,0.1296,-0.008,-0.0464,0.0171,1213,2019-08-07 16:31:33:647
-4.7335,-6.97,4.2589,-0.221,-0.2429,0.1753,-0.008,-0.0464,0.0171,1219,2019-08-07 16:31:33:653
-4.7335,-6.97,4.2589,-0.221,-0.2429,0.1753,-0.0048,-0.04,0.0225,1223,2019-08-07 16:31:33:657
-4.7335,-6.97,4.2589,-0.221,-0.2429,0.1753,-0.0048,-0.04,0.0225,1228,2019-08-07 16:31:33:662
-4.7096,-6.8937,4.1693,-0.221,-0.2429,0.1753,-0.0112,-0.0166,0.0267,1234,2019-08-07 16:31:33:668
-4.7096,-6.8937,4.1693,-0.2413,-0.3415,0.2098,-0.0112,-0.0166,0.0267,1239,2019-08-07 16:31:33:673
-4.7096,-6.8937,4.1693,-0.2413,-0.3415,0.2098,-0.0112,-0.0166,0.0267,1244,2019-08-07 16:31:33:678
-4.7765,-6.8937,4.1316,-0.2413,-0.3415,0.2098,-0.0133,0.0132,0.0161,1248,2019-08-07 16:31:33:682
-4.7765,-6.8937,4.1316,-0.2413,-0.3415,0.2098,-0.0133,0.0132,0.0161,1253,2019-08-07 16:31:33:687
-4.834,-6.908,4.1646,-0.1267,-0.3028,0.2662,-0.0112,0.0516,0.0076,1258,2019-08-07 16:31:33:692
-4.834,-6.908,4.1646,-0.1267,-0.3028,0.2662,-0.0112,0.0516,0.0076,1263,2019-08-07 16:31:33:697
-4.9249,-6.8507,4.2777,-0.1267,-0.3028,0.2662,-0.009,0.0569,1.0E-4,1269,2019-08-07 16:31:33:703
-4.9249,-6.8507,4.2777,-0.1267,-0.3028,0.2662,-0.009,0.0569,1.0E-4,1272,2019-08-07 16:31:33:706
-4.9249,-6.8507,4.2777,-0.1267,-0.3028,0.2662,-0.009,0.0569,1.0E-4,1278,2019-08-07 16:31:33:712
-4.8914,-6.9032,4.2259,-0.0135,-0.3411,0.1788,-0.0101,0.0494,1.0E-4,1283,2019-08-07 16:31:33:717
-4.8914,-6.9032,4.2259,-0.0135,-0.3411,0.1788,-0.0101,0.0494,1.0E-4,1288,2019-08-07 16:31:33:722
-4.8914,-6.9032,4.2259,-0.0135,-0.3411,0.1788,-0.0144,0.0228,0.0012,1292,2019-08-07 16:31:33:726
-4.8866,-6.9605,4.1976,-0.0698,-0.2417,0.2157,-0.0144,0.0228,0.0012,1298,2019-08-07 16:31:33:732
-4.8866,-6.9605,4.1976,-0.0698,-0.2417,0.2157,-0.0154,-6.0E-4,0.0054,1303,2019-08-07 16:31:33:737
-4.8866,-6.9605,4.1976,-0.0698,-0.2417,0.2157,-0.0154,-6.0E-4,0.0054,1308,2019-08-07 16:31:33:742
-4.8436,-7.0321,4.174,-0.0698,-0.2417,0.2157,-0.0069,-0.0113,0.015,1313,2019-08-07 16:31:33:747
-4.8436,-7.0321,4.174,-0.2001,-0.2606,0.1676,-0.0069,-0.0113,0.015,1318,2019-08-07 16:31:33:752
-4.8484,-6.9509,4.2117,-0.2001,-0.2606,0.1676,0.0059,-0.0241,0.0171,1323,2019-08-07 16:31:33:757
-4.8484,-6.9509,4.2117,-0.2001,-0.2606,0.1676,0.0059,-0.0241,0.0171,1327,2019-08-07 16:31:33:761
-4.8484,-6.9509,4.2117,-0.2001,-0.2606,0.1676,0.0101,-0.0251,0.0257,1333,2019-08-07 16:31:33:767
-4.8244,-6.9271,4.2494,-0.1774,-0.2766,0.1759,0.0101,-0.0251,0.0257,1338,2019-08-07 16:31:33:772
-4.8244,-6.9271,4.2494,-0.1774,-0.2766,0.1759,0.0101,-0.0283,0.0299,1343,2019-08-07 16:31:33:777
-4.8484,-6.865,4.2212,-0.1774,-0.2766,0.1759,0.0101,-0.0283,0.0299,1348,2019-08-07 16:31:33:782
-4.8484,-6.865,4.2212,-0.1774,-0.2766,0.1759,0.008,-0.023,0.0331,1352,2019-08-07 16:31:33:786
-4.8484,-6.865,4.2212,-0.1774,-0.2766,0.1759,0.008,-0.023,0.0331,1358,2019-08-07 16:31:33:792
-4.858,-6.8602,4.2683,-0.1564,-0.3725,0.1563,0.008,-0.023,0.0331,1363,2019-08-07 16:31:33:797
-4.858,-6.8602,4.2683,-0.1564,-0.3725,0.1563,0.0048,-0.0145,0.0278,1368,2019-08-07 16:31:33:802
-4.8101,-6.9127,4.1882,-0.1564,-0.3725,0.1563,0.0048,-0.0145,0.0278,1373,2019-08-07 16:31:33:807
-4.8101,-6.9127,4.1882,-0.1744,-0.2355,0.2141,-0.0016,0.0047,0.0278,1378,2019-08-07 16:31:33:812
-4.8101,-6.9127,4.1882,-0.1744,-0.2355,0.2141,-0.0016,0.0047,0.0278,1383,2019-08-07 16:31:33:817
-4.7766,-6.9843,4.2164,-0.1744,-0.2355,0.2141,-0.0016,0.0047,0.0278,1388,2019-08-07 16:31:33:822
-4.7766,-6.9843,4.2164,-0.1744,-0.2355,0.2141,0.007,0.0399,0.0193,1393,2019-08-07 16:31:33:827
-4.7766,-6.9843,4.2164,-0.1744,-0.2355,0.2141,0.007,0.0399,0.0193,1398,2019-08-07 16:31:33:832
-4.8101,-6.9509,4.2542,-0.1755,-0.2476,0.1687,0.0123,0.0612,0.0129,1403,2019-08-07 16:31:33:837
-4.8101,-6.9509,4.2542,-0.1755,-0.2476,0.1687,0.0123,0.0612,0.0129,1408,2019-08-07 16:31:33:842
-4.8723,-6.9748,4.2636,-0.1755,-0.2476,0.1687,0.024,0.0622,0.0097,1414,2019-08-07 16:31:33:848
-4.8723,-6.9748,4.2636,-0.1755,-0.2476,0.1687,0.024,0.0622,0.0097,1417,2019-08-07 16:31:33:851
-4.8723,-6.9748,4.2636,-0.0153,-0.2778,0.1562,0.0293,0.0367,0.0065,1423,2019-08-07 16:31:33:857
-4.9967,-6.9366,4.3579,-0.0153,-0.2778,0.1562,0.0293,0.0367,0.0065,1427,2019-08-07 16:31:33:861
-4.9967,-6.9366,4.3579,0.0444,-0.252,0.0718,0.0261,0.0047,0.0086,1433,2019-08-07 16:31:33:867
-4.9967,-6.9366,4.3579,0.0444,-0.252,0.0718,0.0261,0.0047,0.0086,1437,2019-08-07 16:31:33:871
-4.9967,-6.9366,4.3437,0.0444,-0.252,0.0718,0.0251,-0.0581,0.0044,1443,2019-08-07 16:31:33:877
-4.9967,-6.9366,4.3437,0.0444,-0.252,0.0718,0.0251,-0.0581,0.0044,1448,2019-08-07 16:31:33:882
-4.9393,-6.9939,4.2824,-0.0449,-0.1817,0.1358,0.0197,-0.0816,0.0012,1453,2019-08-07 16:31:33:887
-4.9393,-6.9939,4.2824,-0.0449,-0.1817,0.1358,0.0197,-0.0816,0.0012,1458,2019-08-07 16:31:33:892
-4.9393,-6.9939,4.2824,-0.0449,-0.1817,0.1358,0.0219,-0.088,0.0012,1463,2019-08-07 16:31:33:897
-4.8102,-7.0369,4.1834,-0.2384,-0.1373,0.3256,0.0219,-0.088,0.0012,1468,2019-08-07 16:31:33:902
-4.8102,-7.0369,4.1834,-0.2384,-0.1373,0.3256,0.0219,-0.088,0.0012,1473,2019-08-07 16:31:33:907
-4.8102,-7.0369,4.1834,-0.2384,-0.1373,0.3256,0.0219,-0.0496,-0.0084,1478,2019-08-07 16:31:33:912
-4.6236,-7.0559,4.1363,-0.2384,-0.1373,0.3256,0.0219,-0.0496,-0.0084,1483,2019-08-07 16:31:33:917
-4.6236,-7.0559,4.1363,-0.2384,-0.1373,0.3256,0.0315,0.0122,-0.0169,1488,2019-08-07 16:31:33:922
-4.6858,-6.9605,4.1222,-0.3193,-0.2041,0.3173,0.0315,0.0122,-0.0169,1493,2019-08-07 16:31:33:927
-4.6858,-6.9605,4.1222,-0.3193,-0.2041,0.3173,0.0346,0.059,-0.0201,1498,2019-08-07 16:31:33:932
-4.6858,-6.9605,4.1222,-0.3193,-0.2041,0.3173,0.0346,0.059,-0.0201,1503,2019-08-07 16:31:33:937
-4.7863,-6.8507,4.174,-0.3193,-0.2041,0.3173,0.0346,0.059,-0.0201,1508,2019-08-07 16:31:33:942
-4.7863,-6.8507,4.174,-0.169,-0.3798,0.226,0.041,0.0846,-0.0223,1513,2019-08-07 16:31:33:947
-4.7863,-6.8507,4.174,-0.169,-0.3798,0.226,0.041,0.0846,-0.0223,1518,2019-08-07 16:31:33:952
-4.8963,-6.7791,4.273,-0.169,-0.3798,0.226,0.0368,0.0633,-0.0244,1523,2019-08-07 16:31:33:957
-4.8963,-6.7791,4.273,-0.169,-0.3798,0.226,0.0368,0.0633,-0.0244,1527,2019-08-07 16:31:33:961
-4.925,-6.7409,4.3013,-0.0773,-0.4018,0.1634,0.0336,0.0324,-0.0212,1532,2019-08-07 16:31:33:966
-4.925,-6.7409,4.3013,-0.0773,-0.4018,0.1634,0.0336,0.0324,-0.0212,1538,2019-08-07 16:31:33:972
-4.925,-6.7409,4.3013,-0.0773,-0.4018,0.1634,0.0357,-0.0049,-0.0191,1543,2019-08-07 16:31:33:977
-4.8581,-6.7743,4.2824,-0.0773,-0.4018,0.1634,0.0357,-0.0049,-0.0191,1548,2019-08-07 16:31:33:982
-4.8581,-6.7743,4.2824,-0.1335,-0.3807,0.1915,0.0325,-0.0379,-0.0127,1552,2019-08-07 16:31:33:986
-4.8581,-6.7743,4.2824,-0.1335,-0.3807,0.1915,0.0325,-0.0379,-0.0127,1558,2019-08-07 16:31:33:992
-4.748,-6.7886,4.207,-0.1335,-0.3807,0.1915,0.0389,-0.0507,0.0022,1563,2019-08-07 16:31:33:997
-4.748,-6.7886,4.207,-0.1335,-0.3807,0.1915,0.0389,-0.0507,0.0022,1568,2019-08-07 16:31:34:002
-4.5902,-6.8698,4.174,-0.3919,-0.3206,0.2531,0.0389,-0.0507,0.0022,1573,2019-08-07 16:31:34:007
-4.5902,-6.8698,4.174,-0.3919,-0.3206,0.2531,0.0506,-0.0283,0.0182,1578,2019-08-07 16:31:34:012
-4.5902,-6.8698,4.174,-0.3919,-0.3206,0.2531,0.0506,-0.0283,0.0182,1583,2019-08-07 16:31:34:017
-4.5232,-6.8507,4.1363,-0.3919,-0.3206,0.2531,0.0709,0.0026,0.0384,1587,2019-08-07 16:31:34:021
-4.5232,-6.8507,4.1363,-0.355,-0.3183,0.2959,0.0709,0.0026,0.0384,1593,2019-08-07 16:31:34:027
-4.5232,-6.8507,4.1363,-0.355,-0.3183,0.2959,0.0847,0.0335,0.0587,1598,2019-08-07 16:31:34:032
-4.6045,-6.8077,4.141,-0.355,-0.3183,0.2959,0.0847,0.0335,0.0587,1602,2019-08-07 16:31:34:036
-4.6045,-6.8077,4.141,-0.355,-0.3183,0.2959,0.0847,0.0335,0.0587,1608,2019-08-07 16:31:34:042
-4.7002,-6.7934,4.3013,-0.2964,-0.3658,0.1726,0.105,0.0654,0.0853,1614,2019-08-07 16:31:34:048
-4.7002,-6.7934,4.3013,-0.2964,-0.3658,0.1726,0.105,0.0654,0.0853,1617,2019-08-07 16:31:34:051
-4.7002,-6.7934,4.3013,-0.2964,-0.3658,0.1726,0.1199,0.0739,0.1066,1623,2019-08-07 16:31:34:057
-4.8151,-6.8459,4.3107,-0.2964,-0.3658,0.1726,0.1199,0.0739,0.1066,1628,2019-08-07 16:31:34:062
-4.8151,-6.8459,4.3107,-0.1841,-0.201,0.1781,0.1295,0.0707,0.1226,1633,2019-08-07 16:31:34:067
-4.8246,-7.0321,4.4474,-0.1841,-0.201,0.1781,0.1295,0.0707,0.1226,1637,2019-08-07 16:31:34:071
-4.8246,-7.0321,4.4474,-0.1841,-0.201,0.1781,0.1433,0.0803,0.1279,1643,2019-08-07 16:31:34:077
-4.8246,-7.0321,4.4474,-0.1841,-0.201,0.1781,0.1433,0.0803,0.1279,1648,2019-08-07 16:31:34:082
-4.9443,-7.3185,4.5181,-0.0942,0.2306,-0.0776,0.1678,0.0793,0.1354,1653,2019-08-07 16:31:34:087
-4.9443,-7.3185,4.5181,-0.0942,0.2306,-0.0776,0.1678,0.0793,0.1354,1658,2019-08-07 16:31:34:092
-4.9443,-7.3185,4.5181,-0.0942,0.2306,-0.0776,0.1678,0.0793,0.1354,1663,2019-08-07 16:31:34:097
-4.9491,-7.7243,4.8103,-0.1066,0.627,-0.3043,0.2019,0.0846,0.1365,1668,2019-08-07 16:31:34:102
-4.9491,-7.7243,4.8103,-0.1066,0.627,-0.3043,0.2019,0.0846,0.1365,1673,2019-08-07 16:31:34:107
-4.9491,-7.7243,4.8103,-0.1066,0.627,-0.3043,0.2754,0.0814,0.1226,1678,2019-08-07 16:31:34:112
-5.0878,-8.3115,5.3949,0.1205,1.3725,-1.0575,0.2754,0.0814,0.1226,1683,2019-08-07 16:31:34:117
-5.0878,-8.3115,5.3949,0.1205,1.3725,-1.0575,0.3681,0.0303,0.1173,1688,2019-08-07 16:31:34:122
-5.0878,-8.3115,5.3949,0.1205,1.3725,-1.0575,0.3681,0.0303,0.1173,1693,2019-08-07 16:31:34:127
-5.5375,-8.9368,6.512,0.1205,1.3725,-1.0575,0.4565,-0.072,0.1247,1699,2019-08-07 16:31:34:133
-5.5375,-8.9368,6.512,0.7411,2.228,-2.4794,0.4565,-0.072,0.1247,1703,2019-08-07 16:31:34:137
-5.5375,-8.9368,6.512,0.7411,2.228,-2.4794,0.4565,-0.072,0.1247,1708,2019-08-07 16:31:34:142
-6.0447,-9.5335,7.5868,0.7411,2.228,-2.4794,0.5449,-0.2371,0.1322,1713,2019-08-07 16:31:34:147
-6.0447,-9.5335,7.5868,0.7411,2.228,-2.4794,0.5449,-0.2371,0.1322,1718,2019-08-07 16:31:34:152
-6.4418,-11.1853,9.279,1.3709,4.2404,-4.5577,0.6578,-0.5311,0.1578,1723,2019-08-07 16:31:34:157
-6.4418,-11.1853,9.279,1.3709,4.2404,-4.5577,0.6578,-0.5311,0.1578,1727,2019-08-07 16:31:34:161
-6.4418,-11.1853,9.279,1.3709,4.2404,-4.5577,0.8112,-0.7996,0.1567,1733,2019-08-07 16:31:34:167
-6.1308,-13.8157,11.6642,1.3709,4.2404,-4.5577,0.8112,-0.7996,0.1567,1738,2019-08-07 16:31:34:172
-6.1308,-13.8157,11.6642,1.3709,4.2404,-4.5577,0.8112,-0.7996,0.1567,1743,2019-08-07 16:31:34:177
-5.1692,-17.6968,14.8083,0.6332,9.1397,-8.4605,1.1255,-1.0776,0.1013,1748,2019-08-07 16:31:34:182
-5.1692,-17.6968,14.8083,0.6332,9.1397,-8.4605,1.1255,-1.0776,0.1013,1753,2019-08-07 16:31:34:187
-5.1692,-17.6968,14.8083,0.6332,9.1397,-8.4605,1.9809,-1.5602,-0.1778,1758,2019-08-07 16:31:34:192
-4.198,-21.7736,18.5841,-0.8598,17.1482,-15.4848,1.9809,-1.5602,-0.1778,1762,2019-08-07 16:31:34:196
-4.198,-21.7736,18.5841,-0.8598,17.1482,-15.4848,2.864,-2.0214,-0.5656,1769,2019-08-07 16:31:34:203
-4.198,-21.7736,18.5841,-0.8598,17.1482,-15.4848,2.864,-2.0214,-0.5656,1773,2019-08-07 16:31:34:207
-4.686,-26.261,24.2029,-0.8598,17.1482,-15.4848,2.864,-2.0214,-0.5656,1777,2019-08-07 16:31:34:211
-4.686,-26.261,24.2029,3.0117,19.2594,-19.4888,3.8387,-2.667,-1.0353,1783,2019-08-07 16:31:34:217
-8.255,-25.1487,25.5699,3.0117,19.2594,-19.4888,3.8387,-2.667,-1.0353,1787,2019-08-07 16:31:34:221
-8.255,-25.1487,25.5699,3.0117,19.2594,-19.4888,4.4619,-3.7887,-1.4401,1793,2019-08-07 16:31:34:227
-8.255,-25.1487,25.5699,3.0117,19.2594,-19.4888,4.4619,-3.7887,-1.4401,1798,2019-08-07 16:31:34:232
-12.1303,-20.9382,26.2864,9.6208,13.3216,-19.1636,4.3479,-5.018,-1.6138,1804,2019-08-07 16:31:34:238
-12.1303,-20.9382,26.2864,9.6208,13.3216,-19.1636,4.3479,-5.018,-1.6138,1808,2019-08-07 16:31:34:242
-14.2832,-17.0284,24.2548,9.6208,13.3216,-19.1636,4.0113,-6.7054,-1.83,1813,2019-08-07 16:31:34:247
-14.2832,-17.0284,24.2548,9.6208,13.3216,-19.1636,4.0113,-6.7054,-1.83,1818,2019-08-07 16:31:34:252
-14.2832,-17.0284,24.2548,9.6208,13.3216,-19.1636,4.0113,-6.7054,-1.83,1822,2019-08-07 16:31:34:256
-12.3695,-15.0425,18.9235,10.6548,9.7048,-11.9563,3.5191,-8.0359,-1.9845,1828,2019-08-07 16:31:34:262
-12.3695,-15.0425,18.9235,10.6548,9.7048,-11.9563,3.5191,-8.0359,-1.9845,1833,2019-08-07 16:31:34:267
-12.3695,-15.0425,18.9235,10.6548,9.7048,-11.9563,3.2826,-8.4077,-2.123,1837,2019-08-07 16:31:34:271
-9.2406,-14.8229,13.5827,10.6548,9.7048,-11.9563,3.2826,-8.4077,-2.123,1843,2019-08-07 16:31:34:277
-9.2406,-14.8229,13.5827,7.231,10.0085,-3.5107,3.2826,-8.0902,-2.1624,1848,2019-08-07 16:31:34:282
-6.8485,-14.9375,10.9053,7.231,10.0085,-3.5107,3.2826,-8.0902,-2.1624,1853,2019-08-07 16:31:34:287
-6.8485,-14.9375,10.9053,7.231,10.0085,-3.5107,3.6416,-6.8258,-2.0953,1858,2019-08-07 16:31:34:292
-5.0401,-13.0327,9.2602,7.231,10.0085,-3.5107,3.6416,-6.8258,-2.0953,1863,2019-08-07 16:31:34:297
-5.0401,-13.0327,9.2602,5.5013,7.8842,-0.4573,3.9538,-5.2747,-1.9089,1868,2019-08-07 16:31:34:302
-5.0401,-13.0327,9.2602,5.5013,7.8842,-0.4573,3.9538,-5.2747,-1.9089,1873,2019-08-07 16:31:34:307
-5.6429,-8.765,10.0191,5.5013,7.8842,-0.4573,4.056,-4.1061,-1.6479,1878,2019-08-07 16:31:34:312
-5.6429,-8.765,10.0191,5.5013,7.8842,-0.4573,4.056,-4.1061,-1.6479,1883,2019-08-07 16:31:34:317
-5.6429,-8.765,10.0191,9.0973,1.5217,-1.4084,3.8376,-2.5008,-0.9459,1888,2019-08-07 16:31:34:322
-8.5374,-4.1534,10.382,9.0973,1.5217,-1.4084,3.8376,-2.5008,-0.9459,1893,2019-08-07 16:31:34:327
-8.5374,-4.1534,10.382,9.0973,1.5217,-1.4084,3.4573,-1.9596,-0.4516,1898,2019-08-07 16:31:34:332
-11.5323,-2.0004,11.6076,9.0973,1.5217,-1.4084,3.4573,-1.9596,-0.4516,1903,2019-08-07 16:31:34:337
-11.5323,-2.0004,11.6076,14.2166,-1.3302,-2.2949,3.4573,-1.9596,-0.4516,1908,2019-08-07 16:31:34:342
-11.5323,-2.0004,11.6076,14.2166,-1.3302,-2.2949,3.2091,-2.08,-0.1139,1912,2019-08-07 16:31:34:346
-15.819,-0.0289,8.044,14.2166,-1.3302,-2.2949,3.2091,-2.08,-0.1139,1918,2019-08-07 16:31:34:352
-15.819,-0.0289,8.044,14.2166,-1.3302,-2.2949,2.9535,-2.9706,0.3048,1923,2019-08-07 16:31:34:357
-15.819,-0.0289,8.044,20.382,-3.9417,3.4001,2.9535,-2.9706,0.3048,1927,2019-08-07 16:31:34:361
-18.4025,1.9666,5.1968,20.382,-3.9417,3.4001,2.8576,-4.0081,0.5178,1934,2019-08-07 16:31:34:368
-18.4025,1.9666,5.1968,20.382,-3.9417,3.4001,2.8576,-4.0081,0.5178,1937,2019-08-07 16:31:34:371
-18.4025,1.9666,5.1968,20.382,-3.9417,3.4001,2.8576,-4.0081,0.5178,1943,2019-08-07 16:31:34:377
-17.1395,4.4872,1.2608,18.1802,-7.0648,9.9041,2.7489,-5.181,0.6552,1948,2019-08-07 16:31:34:382
-17.1395,4.4872,1.2608,18.1802,-7.0648,9.9041,2.7489,-5.181,0.6552,1952,2019-08-07 16:31:34:386
-11.9055,5.4085,-4.1742,18.1802,-7.0648,9.9041,2.3058,-6.535,0.7969,1958,2019-08-07 16:31:34:392
-11.9055,5.4085,-4.1742,18.1802,-7.0648,9.9041,2.3058,-6.535,0.7969,1963,2019-08-07 16:31:34:397
-8.8915,4.0528,-7.3843,13.634,-5.8797,16.1708,1.6826,-6.7022,0.9322,1968,2019-08-07 16:31:34:402
-8.8915,4.0528,-7.3843,13.634,-5.8797,16.1708,1.6826,-6.7022,0.9322,1973,2019-08-07 16:31:34:407
-8.8915,4.0528,-7.3843,13.634,-5.8797,16.1708,1.0179,-5.6977,0.9152,1978,2019-08-07 16:31:34:412
-7.6189,2.993,-0.3655,13.634,-5.8797,16.1708,1.0179,-5.6977,0.9152,1984,2019-08-07 16:31:34:418
-7.6189,2.993,-0.3655,14.4232,-4.528,9.4191,1.0435,-6.1951,0.6787,1988,2019-08-07 16:31:34:422
-7.6189,2.993,-0.3655,14.4232,-4.528,9.4191,1.0435,-6.1951,0.6787,1993,2019-08-07 16:31:34:427
-10.7956,3.6709,-1.9163,16.1776,-5.2192,10.4101,1.3513,-6.3773,0.5498,1998,2019-08-07 16:31:34:432
-10.7956,3.6709,-1.9163,16.1776,-5.2192,10.4101,1.3513,-6.3773,0.5498,2003,2019-08-07 16:31:34:437
-7.4266,4.9597,-5.706,16.1776,-5.2192,10.4101,1.3513,-6.3773,0.5498,2008,2019-08-07 16:31:34:442
-7.4266,4.9597,-5.706,16.1776,-5.2192,10.4101,1.2331,-6.7139,0.4092,2014,2019-08-07 16:31:34:448
-7.4266,4.9597,-5.706,8.791,-6.1421,15.9693,1.2331,-6.7139,0.4092,2018,2019-08-07 16:31:34:452
-0.7861,4.8929,-9.4111,8.791,-6.1421,15.9693,0.4608,-6.8013,0.0416,2022,2019-08-07 16:31:34:456
-0.7861,4.8929,-9.4111,8.791,-6.1421,15.9693,0.4608,-6.8013,0.0416,2028,2019-08-07 16:31:34:462
6.529,3.1409,-13.6064,8.791,-6.1421,15.9693,-0.5118,-5.4931,-0.2662,2033,2019-08-07 16:31:34:467
6.529,3.1409,-13.6064,-1.8575,-3.1947,20.8317,-0.5118,-5.4931,-0.2662,2038,2019-08-07 16:31:34:472
6.529,3.1409,-13.6064,-1.8575,-3.1947,20.8317,-0.5118,-5.4931,-0.2662,2042,2019-08-07 16:31:34:476
12.1983,1.1597,-13.4838,-1.8575,-3.1947,20.8317,-1.3353,-3.0643,-0.491,2048,2019-08-07 16:31:34:482
12.1983,1.1597,-13.4838,-1.8575,-3.1947,20.8317,-1.3353,-3.0643,-0.491,2053,2019-08-07 16:31:34:487
12.1983,1.1597,-13.4838,-2.4459,-3.5333,14.534,-1.8115,-0.2946,-0.4441,2058,2019-08-07 16:31:34:492
9.1029,2.3771,-7.6717,-2.4459,-3.5333,14.534,-1.8115,-0.2946,-0.4441,2063,2019-08-07 16:31:34:497
9.1029,2.3771,-7.6717,-2.4459,-3.5333,14.534,-1.8221,0.9144,0.0512,2068,2019-08-07 16:31:34:502
7.084,0.5917,1.6475,-2.4459,-3.5333,14.534,-1.8221,0.9144,0.0512,2073,2019-08-07 16:31:34:507
7.084,0.5917,1.6475,1.4154,-1.9184,8.6133,-1.951,-0.0858,0.3676,2078,2019-08-07 16:31:34:512
7.084,0.5917,1.6475,1.4154,-1.9184,8.6133,-1.951,-0.0858,0.3676,2083,2019-08-07 16:31:34:517
5.6583,-0.0576,-3.9713,1.4154,-1.9184,8.6133,-1.9606,-1.2204,0.2877,2088,2019-08-07 16:31:34:522
5.6583,-0.0576,-3.9713,1.4154,-1.9184,8.6133,-1.9606,-1.2204,0.2877,2093,2019-08-07 16:31:34:527
7.3519,-0.6257,-3.5047,0.5651,-1.0453,9.0512,-1.9052,-1.361,0.3144,2098,2019-08-07 16:31:34:532
7.3519,-0.6257,-3.5047,0.5651,-1.0453,9.0512,-1.9052,-1.361,0.3144,2103,2019-08-07 16:31:34:537
7.3519,-0.6257,-3.5047,0.5651,-1.0453,9.0512,-1.9052,-1.361,0.3144,2107,2019-08-07 16:31:34:541
9.2082,-1.3417,-4.5653,0.5651,-1.0453,9.0512,-1.7198,-1.3088,0.3602,2113,2019-08-07 16:31:34:547
9.2082,-1.3417,-4.5653,-2.0291,0.3859,10.4301,-1.7198,-1.3088,0.3602,2118,2019-08-07 16:31:34:552
9.2082,-1.3417,-4.5653,-2.0291,0.3859,10.4301,-1.412,-0.5002,0.3378,2123,2019-08-07 16:31:34:557
10.1842,-2.9171,-5.7532,-2.0291,0.3859,10.4301,-1.412,-0.5002,0.3378,2128,2019-08-07 16:31:34:562
10.1842,-2.9171,-5.7532,-2.0291,0.3859,10.4301,-1.1766,0.3871,0.2174,2133,2019-08-07 16:31:34:567
9.213,-3.5902,-5.4515,-2.0291,0.3859,10.4301,-1.1766,0.3871,0.2174,2138,2019-08-07 16:31:34:572
9.213,-3.5902,-5.4515,-0.8348,1.4523,9.7164,-0.9081,1.1626,0.0736,2143,2019-08-07 16:31:34:577
7.9547,-3.5616,-0.5161,-0.8348,1.4523,9.7164,-0.9081,1.1626,0.0736,2148,2019-08-07 16:31:34:582
7.9547,-3.5616,-0.5161,-0.8348,1.4523,9.7164,-0.9081,1.1626,0.0736,2153,2019-08-07 16:31:34:587
7.9547,-3.5616,-0.5161,-0.8348,1.4523,9.7164,-0.3403,0.9549,-0.0223,2158,2019-08-07 16:31:34:592
6.9118,-3.4709,-1.0535,1.1999,1.2684,7.1577,-0.3403,0.9549,-0.0223,2163,2019-08-07 16:31:34:597
6.9118,-3.4709,-1.0535,1.1999,1.2684,7.1577,0.0506,1.0092,-0.1022,2168,2019-08-07 16:31:34:602
6.9118,-3.4709,-1.0535,1.1999,1.2684,7.1577,0.0506,1.0092,-0.1022,2173,2019-08-07 16:31:34:607
5.8784,-2.9362,0.2098,1.1999,1.2684,7.1577,0.4011,0.7046,-0.1821,2178,2019-08-07 16:31:34:612
5.8784,-2.9362,0.2098,2.0193,0.5486,4.2133,0.4011,0.7046,-0.1821,2183,2019-08-07 16:31:34:617
5.8784,-2.9362,0.2098,2.0193,0.5486,4.2133,0.758,0.2913,-0.1789,2187,2019-08-07 16:31:34:621
6.3759,-2.1199,1.5297,2.0193,0.5486,4.2133,0.758,0.2913,-0.1789,2193,2019-08-07 16:31:34:627
6.3759,-2.1199,1.5297,2.0193,0.5486,4.2133,0.9007,0.0601,-0.1629,2199,2019-08-07 16:31:34:633
7.4428,-1.0171,1.9539,0.732,-0.8551,3.4352,0.9007,0.0601,-0.1629,2202,2019-08-07 16:31:34:636
7.4428,-1.0171,1.9539,0.732,-0.8551,3.4352,0.9007,0.0601,-0.1629,2208,2019-08-07 16:31:34:642
7.4428,-1.0171,1.9539,0.732,-0.8551,3.4352,0.8964,-0.0731,-0.1043,2213,2019-08-07 16:31:34:647
9.3039,-0.0624,1.2233,0.732,-0.8551,3.4352,0.8964,-0.0731,-0.1043,2218,2019-08-07 16:31:34:652
9.3039,-0.0624,1.2233,-1.959,-2.0805,4.3369,0.7175,0.1624,1.0E-4,2222,2019-08-07 16:31:34:656
10.4043,0.2623,0.8415,-1.959,-2.0805,4.3369,0.7175,0.1624,1.0E-4,2228,2019-08-07 16:31:34:662
10.4043,0.2623,0.8415,-2.4679,-2.1688,4.625,0.547,0.6503,0.0875,2234,2019-08-07 16:31:34:668
10.4043,0.2623,0.8415,-2.4679,-2.1688,4.625,0.547,0.6503,0.0875,2238,2019-08-07 16:31:34:672
10.4043,0.2623,0.8415,-2.4679,-2.1688,4.625,0.547,0.6503,0.0875,2243,2019-08-07 16:31:34:677
9.6579,0.7015,0.6341,-2.4679,-2.1688,4.625,0.2786,1.3853,0.1918,2247,2019-08-07 16:31:34:681
9.6579,0.7015,0.6341,-0.6115,-2.7675,5.7315,0.2786,1.3853,0.1918,2253,2019-08-07 16:31:34:687
9.6579,0.7015,0.6341,-0.6115,-2.7675,5.7315,0.2786,1.3853,0.1918,2258,2019-08-07 16:31:34:692
7.1749,0.9449,-0.9356,-0.6115,-2.7675,5.7315,-0.2136,2.2599,0.2387,2262,2019-08-07 16:31:34:696
7.1749,0.9449,-0.9356,-0.6115,-2.7675,5.7315,-0.2136,2.2599,0.2387,2267,2019-08-07 16:31:34:701
7.1749,0.9449,-0.9356,3.3194,-3.5209,4.761,-0.4405,2.5667,0.2249,2273,2019-08-07 16:31:34:707
3.3332,1.6944,0.6529,3.3194,-3.5209,4.761,-0.4405,2.5667,0.2249,2278,2019-08-07 16:31:34:712
3.3332,1.6944,0.6529,3.3194,-3.5209,4.761,-0.319,2.7701,0.2749,2282,2019-08-07 16:31:34:716
3.3332,1.6944,0.6529,3.3194,-3.5209,4.761,-0.319,2.7701,0.2749,2288,2019-08-07 16:31:34:722
2.5677,1.5225,-0.9168,4.7256,-3.4779,7.1794,-0.319,2.7701,0.2749,2293,2019-08-07 16:31:34:727
2.5677,1.5225,-0.9168,4.7256,-3.4779,7.1794,-0.3861,2.7818,0.1769,2297,2019-08-07 16:31:34:731
1.5678,1.7851,-1.1855,4.7256,-3.4779,7.1794,-0.3861,2.7818,0.1769,2303,2019-08-07 16:31:34:737
1.5678,1.7851,-1.1855,4.7256,-3.4779,7.1794,-0.498,2.6988,0.0715,2307,2019-08-07 16:31:34:741
1.5678,1.7851,-1.1855,5.5588,-3.6378,7.8508,-0.498,2.6988,0.0715,2313,2019-08-07 16:31:34:747
1.5295,1.408,-1.6804,5.5588,-3.6378,7.8508,-0.4735,2.7403,0.0789,2318,2019-08-07 16:31:34:752
1.5295,1.408,-1.6804,5.5588,-3.6378,7.8508,-0.4735,2.7403,0.0789,2322,2019-08-07 16:31:34:756
1.5295,1.408,-1.6804,5.5588,-3.6378,7.8508,-0.4767,2.964,0.0938,2328,2019-08-07 16:31:34:762
1.4865,0.9449,-2.9861,5.2868,-2.9582,10.0859,-0.4767,2.964,0.0938,2333,2019-08-07 16:31:34:767
1.4865,0.9449,-2.9861,5.2868,-2.9582,10.0859,-0.5779,3.4476,0.1503,2338,2019-08-07 16:31:34:772
1.4865,0.9449,-2.9861,5.2868,-2.9582,10.0859,-0.5779,3.4476,0.1503,2342,2019-08-07 16:31:34:776
0.6636,0.8303,-3.4952,5.2868,-2.9582,10.0859,-0.6301,3.8215,0.2206,2348,2019-08-07 16:31:34:782
0.6636,0.8303,-3.4952,6.5035,-3.1929,10.4017,-0.6301,3.8215,0.2206,2353,2019-08-07 16:31:34:787
-0.8052,1.26,-2.8023,6.5035,-3.1929,10.4017,-0.6301,3.8215,0.2206,2358,2019-08-07 16:31:34:792
-0.8052,1.26,-2.8023,6.5035,-3.1929,10.4017,-0.6759,4.6002,0.358,2363,2019-08-07 16:31:34:797
-0.8052,1.26,-2.8023,6.5035,-3.1929,10.4017,-0.6759,4.6002,0.358,2368,2019-08-07 16:31:34:802
-2.0778,1.7183,-1.9727,7.8882,-4.1671,9.6136,-0.809,5.314,0.4283,2373,2019-08-07 16:31:34:807
-2.0778,1.7183,-1.9727,7.8882,-4.1671,9.6136,-0.809,5.314,0.4283,2378,2019-08-07 16:31:34:812
-3.5753,2.0668,-1.2892,7.8882,-4.1671,9.6136,-0.9806,5.6495,0.4656,2383,2019-08-07 16:31:34:817
-3.5753,2.0668,-1.2892,7.8882,-4.1671,9.6136,-0.9806,5.6495,0.4656,2388,2019-08-07 16:31:34:822
-5.245,1.9808,0.092,9.6839,-4.4349,8.305,-1.3694,6.147,0.5892,2393,2019-08-07 16:31:34:827
-5.245,1.9808,0.092,9.6839,-4.4349,8.305,-1.3694,6.147,0.5892,2398,2019-08-07 16:31:34:832
-5.245,1.9808,0.092,9.6839,-4.4349,8.305,-1.3694,6.147,0.5892,2403,2019-08-07 16:31:34:837
-5.245,1.9808,0.092,9.6839,-4.4349,8.305,-1.8157,6.4368,0.8097,2408,2019-08-07 16:31:34:842
-6.8859,0.6346,0.8085,10.6313,-2.5561,8.2609,-1.8157,6.4368,0.8097,2413,2019-08-07 16:31:34:847
-6.8859,0.6346,0.8085,10.6313,-2.5561,8.2609,-2.2013,6.7627,1.0387,2418,2019-08-07 16:31:34:852
-8.1633,-2.2297,0.2381,10.6313,-2.5561,8.2609,-2.2013,6.7627,1.0387,2423,2019-08-07 16:31:34:857
-8.1633,-2.2297,0.2381,10.6313,-2.5561,8.2609,-2.5646,7.3593,1.2198,2428,2019-08-07 16:31:34:862
-8.1633,-2.2297,0.2381,11.4212,0.9696,7.8347,-2.5646,7.3593,1.2198,2433,2019-08-07 16:31:34:867
-10.0914,-4.7025,1.7748,11.4212,0.9696,7.8347,-2.7659,8.1263,1.3178,2438,2019-08-07 16:31:34:872
-10.0914,-4.7025,1.7748,11.4212,0.9696,7.8347,-2.7659,8.1263,1.3178,2443,2019-08-07 16:31:34:877
-10.0914,-4.7025,1.7748,11.4212,0.9696,7.8347,-2.7563,8.6653,1.3232,2447,2019-08-07 16:31:34:881
-13.005,-7.1181,6.9364,14.1599,4.2542,-0.5388,-2.7563,8.6653,1.3232,2453,2019-08-07 16:31:34:887
-13.005,-7.1181,6.9364,14.1599,4.2542,-0.5388,-2.7563,8.6653,1.3232,2457,2019-08-07 16:31:34:891
-15.6698,-9.3809,13.1445,14.1599,4.2542,-0.5388,-2.4602,8.8677,1.0536,2463,2019-08-07 16:31:34:897
-15.6698,-9.3809,13.1445,15.3065,5.4549,-5.3733,-2.4602,8.8677,1.0536,2468,2019-08-07 16:31:34:902
-15.6698,-9.3809,13.1445,15.3065,5.4549,-5.3733,-2.4421,7.5404,0.5935,2473,2019-08-07 16:31:34:907
-17.9375,-8.956,16.6799,15.3065,5.4549,-5.3733,-2.4421,7.5404,0.5935,2478,2019-08-07 16:31:34:912
-17.9375,-8.956,16.6799,16.9272,2.738,-7.8419,-2.8533,5.5771,0.407,2483,2019-08-07 16:31:34:917
-19.0331,-7.0894,15.9917,16.9272,2.738,-7.8419,-2.8533,5.5771,0.407,2488,2019-08-07 16:31:34:922
-19.0331,-7.0894,15.9917,16.9272,2.738,-7.8419,-3.4221,3.5637,0.5945,2493,2019-08-07 16:31:34:927
-19.0331,-7.0894,15.9917,16.9272,2.738,-7.8419,-3.4221,3.5637,0.5945,2498,2019-08-07 16:31:34:932
-15.1914,-8.8748,14.0684,9.9068,5.5861,-5.3441,-3.4221,3.5637,0.5945,2503,2019-08-07 16:31:34:937
-15.1914,-8.8748,14.0684,9.9068,5.5861,-5.3441,-3.7502,2.0074,1.01,2508,2019-08-07 16:31:34:942
-15.1914,-8.8748,14.0684,9.9068,5.5861,-5.3441,-3.7502,2.0074,1.01,2513,2019-08-07 16:31:34:947
-9.2206,-13.9971,11.7021,6.1342,8.6815,-4.0566,-3.6288,1.8348,1.1644,2519,2019-08-07 16:31:34:953
-9.2206,-13.9971,11.7021,6.1342,8.6815,-4.0566,-3.6288,1.8348,1.1644,2523,2019-08-07 16:31:34:957
-9.2206,-13.9971,11.7021,6.1342,8.6815,-4.0566,-3.3454,2.3238,1.2731,2529,2019-08-07 16:31:34:963
-6.7998,-16.9903,12.395,6.1342,8.6815,-4.0566,-3.3454,2.3238,1.2731,2533,2019-08-07 16:31:34:967
-6.7998,-16.9903,12.395,3.0593,11.3869,-4.9759,-2.8895,3.4072,1.4446,2537,2019-08-07 16:31:34:971
-6.618,-16.6323,12.4233,3.0593,11.3869,-4.9759,-2.8895,3.4072,1.4446,2543,2019-08-07 16:31:34:977
-6.618,-16.6323,12.4233,2.9623,10.3883,-5.9478,-2.637,4.2796,1.4457,2548,2019-08-07 16:31:34:982
-6.618,-16.6323,12.4233,2.9623,10.3883,-5.9478,-2.637,4.2796,1.4457,2553,2019-08-07 16:31:34:987
-9.6273,-13.7871,13.2906,2.9623,10.3883,-5.9478,-2.637,4.2796,1.4457,2558,2019-08-07 16:31:34:992
-9.6273,-13.7871,13.2906,2.9623,10.3883,-5.9478,-2.5167,4.6546,1.3562,2562,2019-08-07 16:31:34:996
-9.6273,-13.7871,13.2906,6.3979,6.5654,-7.2108,-2.5167,4.6546,1.3562,2567,2019-08-07 16:31:35:001
-11.6941,-12.164,13.3284,6.3979,6.5654,-7.2108,-2.604,4.1241,1.272,2573,2019-08-07 16:31:35:007
-11.6941,-12.164,13.3284,6.3979,6.5654,-7.2108,-2.604,4.1241,1.272,2578,2019-08-07 16:31:35:012
-12.072,-11.763,13.022,6.3979,6.5654,-7.2108,-2.636,3.5733,1.2198,2583,2019-08-07 16:31:35:017
-12.072,-11.763,13.022,6.487,5.6575,-7.4212,-2.636,3.5733,1.2198,2588,2019-08-07 16:31:35:022
-10.7755,-12.67,12.1735,6.487,5.6575,-7.4212,-2.5838,2.7222,1.124,2593,2019-08-07 16:31:35:027
-10.7755,-12.67,12.1735,6.487,5.6575,-7.4212,-2.5838,2.7222,1.124,2598,2019-08-07 16:31:35:032
-10.7755,-12.67,12.1735,6.487,5.6575,-7.4212,-2.5838,2.7222,1.124,2603,2019-08-07 16:31:35:037
-8.6609,-14.4793,11.6408,2.9563,8.0516,-6.9102,-2.2919,2.3504,0.994,2608,2019-08-07 16:31:35:042
-8.6609,-14.4793,11.6408,2.9563,8.0516,-6.9102,-2.2919,2.3504,0.994,2612,2019-08-07 16:31:35:046
-7.0581,-15.6919,11.6644,1.44,9.0921,-7.2433,-1.8189,2.3451,0.8417,2618,2019-08-07 16:31:35:052
-7.0581,-15.6919,11.6644,1.44,9.0921,-7.2433,-1.8189,2.3451,0.8417,2623,2019-08-07 16:31:35:057
-7.0581,-15.6919,11.6644,1.44,9.0921,-7.2433,-1.2128,2.3728,0.6638,2628,2019-08-07 16:31:35:062
-7.2782,-15.878,12.3055,1.44,9.0921,-7.2433,-1.2128,2.3728,0.6638,2633,2019-08-07 16:31:35:067
-7.2782,-15.878,12.3055,1.4629,9.1175,-9.1721,-0.3403,2.2545,0.3889,2638,2019-08-07 16:31:35:072
-8.1346,-15.076,14.0166,1.4629,9.1175,-9.1721,-0.3403,2.2545,0.3889,2643,2019-08-07 16:31:35:077
-8.1346,-15.076,14.0166,1.4629,9.1175,-9.1721,-0.3403,2.2545,0.3889,2648,2019-08-07 16:31:35:082
-8.1346,-15.076,14.0166,1.4629,9.1175,-9.1721,0.3095,1.675,0.1333,2653,2019-08-07 16:31:35:087
-9.7851,-11.8776,14.554,3.4816,5.3972,-10.7453,0.3095,1.675,0.1333,2658,2019-08-07 16:31:35:092
-9.7851,-11.8776,14.554,3.4816,5.3972,-10.7453,0.6259,0.6311,-0.0287,2663,2019-08-07 16:31:35:097
-9.9095,-9.3379,13.1304,3.4816,5.3972,-10.7453,0.6259,0.6311,-0.0287,2668,2019-08-07 16:31:35:102
-9.9095,-9.3379,13.1304,3.4816,5.3972,-10.7453,0.547,-0.8528,-0.1373,2673,2019-08-07 16:31:35:107
-9.9095,-9.3379,13.1304,3.1828,2.1189,-7.7338,0.547,-0.8528,-0.1373,2678,2019-08-07 16:31:35:112
-8.9957,-8.4213,10.3492,3.1828,2.1189,-7.7338,0.2754,-1.8425,-0.2183,2683,2019-08-07 16:31:35:117
-8.9957,-8.4213,10.3492,3.1828,2.1189,-7.7338,0.2754,-1.8425,-0.2183,2688,2019-08-07 16:31:35:122
-8.9957,-8.4213,10.3492,3.1828,2.1189,-7.7338,0.2754,-1.8425,-0.2183,2693,2019-08-07 16:31:35:127
-8.9957,-8.4213,10.3492,3.1828,2.1189,-7.7338,-0.0729,-2.4007,-0.2758,2698,2019-08-07 16:31:35:132
-6.4697,-8.2542,6.088,0.3966,1.8038,-1.8753,-0.0729,-2.4007,-0.2758,2702,2019-08-07 16:31:35:136
-6.4697,-8.2542,6.088,0.3966,1.8038,-1.8753,-0.3915,-2.3218,-0.3216,2708,2019-08-07 16:31:35:142
-3.2642,-7.9869,2.3263,0.3966,1.8038,-1.8753,-0.5193,-1.8435,-0.3514,2713,2019-08-07 16:31:35:147
-3.2642,-7.9869,2.3263,-3.4285,1.2394,3.007,-0.5193,-1.8435,-0.3514,2717,2019-08-07 16:31:35:151
-3.2642,-7.9869,2.3263,-3.4285,1.2394,3.007,-0.5193,-1.8435,-0.3514,2723,2019-08-07 16:31:35:157
-1.4127,-7.5429,0.4927,-4.5007,0.86,4.0564,-0.6876,-0.5333,-0.4228,2728,2019-08-07 16:31:35:162
-1.4127,-7.5429,0.4927,-4.5007,0.86,4.0564,-0.6876,-0.5333,-0.4228,2734,2019-08-07 16:31:35:168
-2.0059,-6.994,0.3795,-4.5007,0.86,4.0564,-0.7345,1.0029,-0.5261,2738,2019-08-07 16:31:35:172
-2.0059,-6.994,0.3795,-4.5007,0.86,4.0564,-0.7345,1.0029,-0.5261,2743,2019-08-07 16:31:35:177
-2.0059,-6.994,0.3795,-1.427,-0.2347,2.8173,-0.6109,1.9861,-0.5943,2748,2019-08-07 16:31:35:182
-5.8668,-6.2636,2.1896,-1.427,-0.2347,2.8173,-0.6109,1.9861,-0.5943,2753,2019-08-07 16:31:35:187
-5.8668,-6.2636,2.1896,-1.427,-0.2347,2.8173,-0.6109,1.9861,-0.5943,2758,2019-08-07 16:31:35:192
-5.8668,-6.2636,2.1896,1.7605,-0.8137,0.829,-0.4703,2.1981,-0.6124,2763,2019-08-07 16:31:35:197
-8.9909,-5.7862,4.1836,1.7605,-0.8137,0.829,-0.4703,2.1981,-0.6124,2768,2019-08-07 16:31:35:202
-8.9909,-5.7862,4.1836,1.7605,-0.8137,0.829,-0.3062,1.0071,-0.5112,2773,2019-08-07 16:31:35:207
-11.0194,-5.008,5.1075,5.2186,-2.0422,-1.2188,-0.3062,1.0071,-0.5112,2778,2019-08-07 16:31:35:212
-11.0194,-5.008,5.1075,5.2186,-2.0422,-1.2188,-0.2263,-0.3074,-0.4335,2783,2019-08-07 16:31:35:217
-11.0194,-5.008,5.1075,5.2186,-2.0422,-1.2188,-0.2263,-0.3074,-0.4335,2788,2019-08-07 16:31:35:222
-9.7851,-4.7168,3.4058,5.2186,-2.0422,-1.2188,-0.2263,-0.3074,-0.4335,2792,2019-08-07 16:31:35:226
-9.7851,-4.7168,3.4058,2.3377,-1.8026,1.6546,-0.1986,-1.6262,-0.3653,2798,2019-08-07 16:31:35:232
-6.9002,-5.4711,1.6476,2.3377,-1.8026,1.6546,-0.1986,-1.6262,-0.3653,2803,2019-08-07 16:31:35:237
-6.9002,-5.4711,1.6476,2.3377,-1.8026,1.6546,-0.1582,-2.3112,-0.3195,2808,2019-08-07 16:31:35:242
-6.9002,-5.4711,1.6476,2.3377,-1.8026,1.6546,-0.1582,-2.3112,-0.3195,2813,2019-08-07 16:31:35:247
-3.8622,-6.3734,1.5297,-2.1391,-0.5317,2.5771,-0.0687,-2.275,-0.295,2818,2019-08-07 16:31:35:252
-3.8622,-6.3734,1.5297,-2.1391,-0.5317,2.5771,-0.0687,-2.275,-0.295,2823,2019-08-07 16:31:35:257
-3.8622,-6.3734,1.5297,-2.1391,-0.5317,2.5771,0.04,-1.737,-0.2524,2828,2019-08-07 16:31:35:262
-1.9007,-6.6789,1.0065,-2.1391,-0.5317,2.5771,0.04,-1.737,-0.2524,2834,2019-08-07 16:31:35:268
-1.9007,-6.6789,1.0065,-2.1391,-0.5317,2.5771,0.04,-1.737,-0.2524,2837,2019-08-07 16:31:35:271
-1.9007,-6.6789,1.0065,-4.1654,-0.4805,3.4626,0.1071,-0.6739,-0.2183,2843,2019-08-07 16:31:35:277
-1.2213,-6.5404,0.8556,-4.1654,-0.4805,3.4626,0.1071,-0.6739,-0.2183,2847,2019-08-07 16:31:35:281
-1.2213,-6.5404,0.8556,-4.1654,-0.4805,3.4626,0.1273,4.0E-4,-0.197,2853,2019-08-07 16:31:35:287
-1.2213,-6.5404,0.8556,-4.1654,-0.4805,3.4626,0.1273,4.0E-4,-0.197,2858,2019-08-07 16:31:35:292
-3.202,-6.1299,2.2651,-2.1107,-0.9436,1.9748,0.1721,0.8399,-0.1032,2863,2019-08-07 16:31:35:297
-3.202,-6.1299,2.2651,-2.1107,-0.9436,1.9748,0.1721,0.8399,-0.1032,2868,2019-08-07 16:31:35:302
-3.202,-6.1299,2.2651,-2.1107,-0.9436,1.9748,0.1902,1.0955,-0.0244,2873,2019-08-07 16:31:35:307
-5.4314,-6.001,3.8913,-2.1107,-0.9436,1.9748,0.1902,1.0955,-0.0244,2878,2019-08-07 16:31:35:312
-5.4314,-6.001,3.8913,0.6713,-1.089,-0.1619,0.1667,0.9698,0.0576,2883,2019-08-07 16:31:35:317
-6.8045,-5.7193,4.6738,0.6713,-1.089,-0.1619,0.1667,0.9698,0.0576,2889,2019-08-07 16:31:35:323
-6.8045,-5.7193,4.6738,0.6713,-1.089,-0.1619,0.0762,0.4819,0.1535,2892,2019-08-07 16:31:35:326
-6.8045,-5.7193,4.6738,0.6713,-1.089,-0.1619,0.0762,0.4819,0.1535,2897,2019-08-07 16:31:35:331
-6.9289,-5.8053,4.5795,1.4799,-1.3091,-0.5099,0.0762,0.4819,0.1535,2903,2019-08-07 16:31:35:337
-6.9289,-5.8053,4.5795,1.4799,-1.3091,-0.5099,-0.0527,-0.0475,0.2227,2908,2019-08-07 16:31:35:342
-6.9289,-5.8053,4.5795,1.4799,-1.3091,-0.5099,-0.0527,-0.0475,0.2227,2913,2019-08-07 16:31:35:347
-6.3117,-6.297,4.094,1.4799,-1.3091,-0.5099,-0.1283,-0.3298,0.2355,2918,2019-08-07 16:31:35:352
-6.3117,-6.297,4.094,0.4568,-0.5007,0.2081,-0.1283,-0.3298,0.2355,2923,2019-08-07 16:31:35:357
-5.6659,-6.6407,3.7311,0.4568,-0.5007,0.2081,-0.1688,-0.4097,0.2185,2928,2019-08-07 16:31:35:362
-5.6659,-6.6407,3.7311,0.4568,-0.5007,0.2081,-0.1688,-0.4097,0.2185,2933,2019-08-07 16:31:35:367
-5.6659,-6.6407,3.7311,0.4568,-0.5007,0.2081,-0.1912,-0.2467,0.1695,2939,2019-08-07 16:31:35:373
-5.02,-6.9319,3.4859,-0.4856,-0.0639,0.6352,-0.1912,-0.2467,0.1695,2943,2019-08-07 16:31:35:377
-5.02,-6.9319,3.4859,-0.4856,-0.0639,0.6352,-0.1933,0.0122,0.1215,2948,2019-08-07 16:31:35:382
-4.9769,-6.9605,3.387,-0.4856,-0.0639,0.6352,-0.1933,0.0122,0.1215,2954,2019-08-07 16:31:35:388
-4.9769,-6.9605,3.387,-0.4856,-0.0639,0.6352,-0.1933,0.0122,0.1215,2957,2019-08-07 16:31:35:391
-4.9769,-6.9605,3.387,-0.2799,-0.0183,0.5505,-0.204,0.2976,0.0683,2963,2019-08-07 16:31:35:397
-5.4218,-7.0035,3.7405,-0.2799,-0.0183,0.5505,-0.204,0.2976,0.0683,2968,2019-08-07 16:31:35:402
-5.4218,-7.0035,3.7405,-0.2799,-0.0183,0.5505,-0.1976,0.4958,0.0214,2973,2019-08-07 16:31:35:407
-6.0151,-7.1372,4.1789,-0.2799,-0.0183,0.5505,-0.1976,0.4958,0.0214,2978,2019-08-07 16:31:35:412
-6.0151,-7.1372,4.1789,0.7201,0.1696,-0.3505,-0.1656,0.4766,0.0044,2983,2019-08-07 16:31:35:417
-6.0151,-7.1372,4.1789,0.7201,0.1696,-0.3505,-0.1656,0.4766,0.0044,2987,2019-08-07 16:31:35:421
-6.8188,-7.1372,4.5937,0.7201,0.1696,-0.3505,-0.1379,0.2966,0.0054,2993,2019-08-07 16:31:35:427
-6.8188,-7.1372,4.5937,0.7201,0.1696,-0.3505,-0.1379,0.2966,0.0054,2998,2019-08-07 16:31:35:432
-6.8188,-7.1372,4.5937,1.3416,0.0343,-0.7338,-0.1219,-0.0613,0.0107,3003,2019-08-07 16:31:35:437
-6.796,-6.97,4.6359,1.3416,0.0343,-0.7338,-0.1219,-0.0613,0.0107,3008,2019-08-07 16:31:35:442
-6.796,-6.97,4.6359,1.3416,0.0343,-0.7338,-0.1219,-0.0613,0.0107,3013,2019-08-07 16:31:35:447
-6.796,-6.97,4.6359,1.0218,-0.0438,-0.5143,-0.1209,-0.2797,0.0118,3018,2019-08-07 16:31:35:452
-6.3511,-6.9843,4.2541,1.0218,-0.0438,-0.5143,-0.1209,-0.2797,0.0118,3023,2019-08-07 16:31:35:457
-6.3511,-6.9843,4.2541,1.0218,-0.0438,-0.5143,-0.1166,-0.513,-0.0042,3028,2019-08-07 16:31:35:462
-5.2746,-7.1084,3.4999,-0.131,0.0721,0.32,-0.1166,-0.513,-0.0042,3033,2019-08-07 16:31:35:467
-5.2746,-7.1084,3.4999,-0.131,0.0721,0.32,-0.0793,-0.5439,-0.0404,3038,2019-08-07 16:31:35:472
-5.2746,-7.1084,3.4999,-0.131,0.0721,0.32,-0.0793,-0.5439,-0.0404,3043,2019-08-07 16:31:35:477
-4.8632,-7.0464,3.184,-0.131,0.0721,0.32,-0.0452,-0.4267,-0.0798,3048,2019-08-07 16:31:35:482
-4.8632,-7.0464,3.184,-0.8512,-0.0342,1.0972,-0.0452,-0.4267,-0.0798,3054,2019-08-07 16:31:35:488
-4.7005,-6.9127,2.9436,-0.8512,-0.0342,1.0972,-0.0452,-0.4267,-0.0798,3058,2019-08-07 16:31:35:492
-4.7005,-6.9127,2.9436,-0.8512,-0.0342,1.0972,-0.0389,-0.1423,-0.1373,3063,2019-08-07 16:31:35:497
-4.9158,-6.7647,3.1133,-0.8512,-0.0342,1.0972,-0.0389,-0.1423,-0.1373,3068,2019-08-07 16:31:35:502
-4.9158,-6.7647,3.1133,-0.4432,-0.2519,0.8781,-0.0346,0.1187,-0.1448,3073,2019-08-07 16:31:35:507
-4.9158,-6.7647,3.1133,-0.4432,-0.2519,0.8781,-0.0346,0.1187,-0.1448,3078,2019-08-07 16:31:35:512
-5.3847,-6.8745,3.4857,-0.4432,-0.2519,0.8781,-0.0293,0.2359,-0.1395,3083,2019-08-07 16:31:35:517
-5.3847,-6.8745,3.4857,-0.4432,-0.2519,0.8781,-0.0293,0.2359,-0.1395,3089,2019-08-07 16:31:35:523
-5.3847,-6.8745,3.4857,0.3484,-0.2083,0.0329,-0.0218,0.2178,-0.1341,3093,2019-08-07 16:31:35:527
-5.9636,-6.865,3.9901,0.3484,-0.2083,0.0329,-0.0218,0.2178,-0.1341,3098,2019-08-07 16:31:35:532
-5.9636,-6.865,3.9901,0.3484,-0.2083,0.0329,-0.0218,0.2178,-0.1341,3102,2019-08-07 16:31:35:536
-6.2698,-6.7933,4.1126,0.3484,-0.2083,0.0329,-0.008,0.0367,-0.1022,3108,2019-08-07 16:31:35:542
-6.2698,-6.7933,4.1126,0.75,-0.2568,-0.1583,-0.008,0.0367,-0.1022,3113,2019-08-07 16:31:35:547
-6.2698,-6.7933,4.1126,0.75,-0.2568,-0.1583,-0.0378,-0.186,-0.0819,3118,2019-08-07 16:31:35:552
-5.8919,-6.8984,3.9524,0.75,-0.2568,-0.1583,-0.0378,-0.186,-0.0819,3123,2019-08-07 16:31:35:557
-5.8919,-6.8984,3.9524,0.75,-0.2568,-0.1583,-0.0602,-0.3809,-0.066,3128,2019-08-07 16:31:35:562
-5.8919,-6.8984,3.9524,0.012,-0.1478,0.4048,-0.0602,-0.3809,-0.066,3133,2019-08-07 16:31:35:567
-5.3082,-6.9604,3.5234,0.012,-0.1478,0.4048,-0.0719,-0.4853,-0.0691,3137,2019-08-07 16:31:35:571
-5.3082,-6.9604,3.5234,0.012,-0.1478,0.4048,-0.0719,-0.4853,-0.0691,3143,2019-08-07 16:31:35:577
-4.782,-7.1084,3.1981,0.012,-0.1478,0.4048,-0.0719,-0.4576,-0.0638,3148,2019-08-07 16:31:35:582
-4.782,-7.1084,3.1981,-0.7807,0.0173,1.0173,-0.0719,-0.4576,-0.0638,3153,2019-08-07 16:31:35:587
-4.782,-7.1084,3.1981,-0.7807,0.0173,1.0173,-0.0719,-0.4576,-0.0638,3158,2019-08-07 16:31:35:592
-4.3562,-7.1227,2.8635,-0.7807,0.0173,1.0173,-0.0527,-0.3447,-0.0638,3163,2019-08-07 16:31:35:597
-4.3562,-7.1227,2.8635,-0.7807,0.0173,1.0173,-0.0527,-0.3447,-0.0638,3168,2019-08-07 16:31:35:602
-4.3562,-7.1227,2.8635,-0.9985,-0.1669,1.1148,6.0E-4,-0.0933,-0.0851,3172,2019-08-07 16:31:35:606
-4.361,-6.9747,2.9483,-0.9985,-0.1669,1.1148,6.0E-4,-0.0933,-0.0851,3178,2019-08-07 16:31:35:612
-4.361,-6.9747,2.9483,-0.9985,-0.1669,1.1148,0.0283,0.1176,-0.099,3183,2019-08-07 16:31:35:617
-4.7294,-6.6501,3.1604,-0.9985,-0.1669,1.1148,0.0283,0.1176,-0.099,3187,2019-08-07 16:31:35:621
-4.7294,-6.6501,3.1604,-0.3918,-0.5269,0.8074,0.0251,0.2678,-0.0841,3193,2019-08-07 16:31:35:627
-5.136,-6.6024,3.382,-0.3918,-0.5269,0.8074,0.0251,0.2678,-0.0841,3198,2019-08-07 16:31:35:632
-5.136,-6.6024,3.382,-0.3918,-0.5269,0.8074,0.0283,0.3509,-0.0755,3203,2019-08-07 16:31:35:637
-5.136,-6.6024,3.382,-0.3918,-0.5269,0.8074,0.0283,0.3509,-0.0755,3208,2019-08-07 16:31:35:642
-5.7245,-6.5737,3.7874,-0.3918,-0.5269,0.8074,0.0346,0.3158,-0.0691,3213,2019-08-07 16:31:35:647
-5.7245,-6.5737,3.7874,0.4597,-0.5648,0.0808,0.0346,0.3158,-0.0691,3218,2019-08-07 16:31:35:652
-5.7245,-6.5737,3.7874,0.4597,-0.5648,0.0808,0.0378,0.1709,-0.0457,3223,2019-08-07 16:31:35:657
-6.0833,-6.6215,4.0089,0.4597,-0.5648,0.0808,0.0378,0.1709,-0.0457,3228,2019-08-07 16:31:35:662
-6.0833,-6.6215,4.0089,0.616,-0.5053,0.1029,0.0261,-0.0081,-0.0212,3233,2019-08-07 16:31:35:667
-6.0833,-6.6215,4.0089,0.616,-0.5053,0.1029,0.0261,-0.0081,-0.0212,3238,2019-08-07 16:31:35:672
-5.8298,-6.6931,3.8722,0.616,-0.5053,0.1029,0.0144,-0.1402,-0.0074,3242,2019-08-07 16:31:35:676
-5.8298,-6.6931,3.8722,0.616,-0.5053,0.1029,0.0144,-0.1402,-0.0074,3247,2019-08-07 16:31:35:681
-5.4518,-6.7933,3.5799,0.616,-0.5053,0.1029,0.0144,-0.1402,-0.0074,3253,2019-08-07 16:31:35:687
-5.4518,-6.7933,3.5799,0.0132,-0.3218,0.4259,0.0165,-0.2179,-0.0063,3258,2019-08-07 16:31:35:692
-5.4518,-6.7933,3.5799,0.0132,-0.3218,0.4259,0.0165,-0.2179,-0.0063,3263,2019-08-07 16:31:35:697
-4.9782,-6.9891,3.1981,0.0132,-0.3218,0.4259,0.0229,-0.1838,-0.0212,3268,2019-08-07 16:31:35:702
-4.9782,-6.9891,3.1981,0.0132,-0.3218,0.4259,0.0229,-0.1838,-0.0212,3273,2019-08-07 16:31:35:707
-4.7055,-6.9986,3.2453,-0.6531,-0.1574,0.7936,0.0421,-0.0709,-0.0383,3278,2019-08-07 16:31:35:712
-4.7055,-6.9986,3.2453,-0.6531,-0.1574,0.7936,0.0421,-0.0709,-0.0383,3284,2019-08-07 16:31:35:718
-4.7055,-6.9986,3.2453,-0.6531,-0.1574,0.7936,0.073,0.1315,-0.0617,3288,2019-08-07 16:31:35:722
-4.5524,-6.9318,3.2358,-0.6531,-0.1574,0.7936,0.073,0.1315,-0.0617,3293,2019-08-07 16:31:35:727
-4.5524,-6.9318,3.2358,-0.7346,-0.2529,0.8855,0.073,0.1315,-0.0617,3297,2019-08-07 16:31:35:731
-4.7725,-6.8554,3.3537,-0.7346,-0.2529,0.8855,0.0741,0.3669,-0.0691,3303,2019-08-07 16:31:35:737
-4.7725,-6.8554,3.3537,-0.7346,-0.2529,0.8855,0.0741,0.3669,-0.0691,3309,2019-08-07 16:31:35:743
-4.7725,-6.8554,3.3537,-0.7346,-0.2529,0.8855,0.0634,0.4798,-0.0553,3313,2019-08-07 16:31:35:747
-5.3562,-6.7933,3.6601,-0.0215,-0.3703,0.3398,0.0634,0.4798,-0.0553,3318,2019-08-07 16:31:35:752
-5.3562,-6.7933,3.6601,-0.0215,-0.3703,0.3398,0.0485,0.483,-0.0308,3323,2019-08-07 16:31:35:757
-5.9686,-6.8649,4.122,-0.0215,-0.3703,0.3398,0.0485,0.483,-0.0308,3328,2019-08-07 16:31:35:762
-5.9686,-6.8649,4.122,-0.0215,-0.3703,0.3398,0.0485,0.483,-0.0308,3333,2019-08-07 16:31:35:767
-5.9686,-6.8649,4.122,0.8031,-0.2134,-0.2586,0.0219,0.287,0.0129,3338,2019-08-07 16:31:35:772
-6.3848,-6.9127,4.3059,0.8031,-0.2134,-0.2586,0.0219,0.287,0.0129,3343,2019-08-07 16:31:35:777
-6.3848,-6.9127,4.3059,0.8031,-0.2134,-0.2586,-0.008,0.0633,0.0257,3348,2019-08-07 16:31:35:782
-6.3514,-6.884,4.353,0.8031,-0.2134,-0.2586,-0.008,0.0633,0.0257,3353,2019-08-07 16:31:35:787
-6.3514,-6.884,4.353,0.8547,-0.2973,-0.3523,-0.008,0.0633,0.0257,3357,2019-08-07 16:31:35:791
-6.3514,-6.884,4.353,0.8547,-0.2973,-0.3523,-0.0474,-0.2435,0.0352,3363,2019-08-07 16:31:35:797
-5.9208,-6.8697,4.0937,0.8547,-0.2973,-0.3523,-0.0676,-0.4182,0.0331,3368,2019-08-07 16:31:35:802
-5.9208,-6.8697,4.0937,0.8547,-0.2973,-0.3523,-0.0676,-0.4182,0.0331,3373,2019-08-07 16:31:35:807
-5.2319,-6.9461,3.7025,-0.0867,-0.2102,0.215,-0.0676,-0.4182,0.0331,3378,2019-08-07 16:31:35:812
-5.2319,-6.9461,3.7025,-0.0867,-0.2102,0.215,-0.0676,-0.4661,0.0107,3382,2019-08-07 16:31:35:816
-5.2319,-6.9461,3.7025,-0.0867,-0.2102,0.215,-0.0676,-0.4661,0.0107,3388,2019-08-07 16:31:35:822
-4.7965,-7.0129,3.3489,-0.0867,-0.2102,0.215,-0.0516,-0.3767,-0.0106,3392,2019-08-07 16:31:35:826
-4.7965,-7.0129,3.3489,-0.6736,-0.2265,0.7732,-0.0516,-0.3767,-0.0106,3398,2019-08-07 16:31:35:832
-4.7965,-7.0129,3.3489,-0.6736,-0.2265,0.7732,-0.0325,-0.2009,-0.0329,3402,2019-08-07 16:31:35:836
-4.5812,-6.8697,3.2122,-0.6736,-0.2265,0.7732,-0.0325,-0.2009,-0.0329,3408,2019-08-07 16:31:35:842
-4.5812,-6.8697,3.2122,-0.6736,-0.2265,0.7732,-0.0048,-0.0049,-0.051,3413,2019-08-07 16:31:35:847
-4.6961,-6.8076,3.2311,-0.6606,-0.3601,0.7897,-0.0048,-0.0049,-0.051,3417,2019-08-07 16:31:35:851
-4.6961,-6.8076,3.2311,-0.6606,-0.3601,0.7897,0.0272,0.1826,-0.051,3423,2019-08-07 16:31:35:857
-4.6961,-6.8076,3.2311,-0.6606,-0.3601,0.7897,0.0272,0.1826,-0.051,3428,2019-08-07 16:31:35:862
-5.0118,-6.7647,3.2547,-0.6606,-0.3601,0.7897,0.0389,0.3158,-0.0574,3433,2019-08-07 16:31:35:867
-5.0118,-6.7647,3.2547,-0.031,-0.4983,0.4878,0.0389,0.3158,-0.0574,3438,2019-08-07 16:31:35:872
-5.4807,-6.6692,3.6789,-0.031,-0.4983,0.4878,0.0389,0.3158,-0.0574,3443,2019-08-07 16:31:35:877
-5.4807,-6.6692,3.6789,-0.031,-0.4983,0.4878,0.056,0.3339,-0.0404,3448,2019-08-07 16:31:35:882
-5.8348,-6.631,3.9193,-0.031,-0.4983,0.4878,0.056,0.3339,-0.0404,3453,2019-08-07 16:31:35:887
-5.8348,-6.631,3.9193,0.4524,-0.5195,0.0365,0.056,0.2316,-0.0212,3458,2019-08-07 16:31:35:892
-5.8348,-6.631,3.9193,0.4524,-0.5195,0.0365,0.056,0.2316,-0.0212,3463,2019-08-07 16:31:35:897
-6.0931,-6.5689,4.0371,0.4524,-0.5195,0.0365,0.0432,0.0846,-0.0084,3467,2019-08-07 16:31:35:901
-6.0931,-6.5689,4.0371,0.4524,-0.5195,0.0365,0.0432,0.0846,-0.0084,3473,2019-08-07 16:31:35:907
-6.0931,-6.5689,4.0371,0.6459,-0.5837,-0.0706,0.0293,-0.0976,0.0139,3478,2019-08-07 16:31:35:912
-5.9879,-6.6167,3.924,0.6459,-0.5837,-0.0706,0.0293,-0.0976,0.0139,3482,2019-08-07 16:31:35:916
-5.9879,-6.6167,3.924,0.6459,-0.5837,-0.0706,0.0144,-0.235,0.0182,3488,2019-08-07 16:31:35:922
-5.4951,-6.588,3.5799,0.6459,-0.5837,-0.0706,0.0144,-0.235,0.0182,3493,2019-08-07 16:31:35:927
-5.4951,-6.588,3.5799,-0.0804,-0.5446,0.4818,0.007,-0.2936,0.0214,3498,2019-08-07 16:31:35:932
-5.4951,-6.588,3.5799,-0.0804,-0.5446,0.4818,0.007,-0.2936,0.0214,3503,2019-08-07 16:31:35:937
-5.0263,-6.674,3.3159,-0.0804,-0.5446,0.4818,0.007,-0.2936,0.0214,3507,2019-08-07 16:31:35:941
-5.0263,-6.674,3.3159,-0.0804,-0.5446,0.4818,0.0123,-0.2456,0.0193,3513,2019-08-07 16:31:35:947
-4.7105,-6.7885,3.1651,-0.6665,-0.3667,0.8506,0.0123,-0.2456,0.0193,3518,2019-08-07 16:31:35:952
-4.7105,-6.7885,3.1651,-0.6665,-0.3667,0.8506,0.0219,-0.0613,0.0065,3523,2019-08-07 16:31:35:957
-4.7105,-6.7885,3.1651,-0.6665,-0.3667,0.8506,0.0219,-0.0613,0.0065,3528,2019-08-07 16:31:35:962
-4.6722,-6.8267,3.1179,-0.6665,-0.3667,0.8506,0.0219,0.1272,0.0033,3533,2019-08-07 16:31:35:967
-4.6722,-6.8267,3.1179,-0.6655,-0.2963,0.8857,0.0219,0.1272,0.0033,3538,2019-08-07 16:31:35:972
-4.7632,-6.8601,3.1274,-0.6655,-0.2963,0.8857,0.0336,0.3296,-0.0063,3543,2019-08-07 16:31:35:977
-4.7632,-6.8601,3.1274,-0.6655,-0.2963,0.8857,0.0336,0.3296,-0.0063,3548,2019-08-07 16:31:35:982
-4.7632,-6.8601,3.1274,-0.6655,-0.2963,0.8857,0.0336,0.4979,-0.0138,3553,2019-08-07 16:31:35:987
-5.122,-6.8315,3.3489,-0.6655,-0.2963,0.8857,0.0336,0.4979,-0.0138,3558,2019-08-07 16:31:35:992
-5.122,-6.8315,3.3489,-0.1724,-0.326,0.5657,0.024,0.613,-0.0201,3563,2019-08-07 16:31:35:997
-5.122,-6.8315,3.3489,-0.1724,-0.326,0.5657,0.024,0.613,-0.0201,3568,2019-08-07 16:31:36:002
-5.7631,-6.8458,3.8439,-0.1724,-0.326,0.5657,0.024,0.613,-0.0201,3572,2019-08-07 16:31:36:006
-5.7631,-6.8458,3.8439,-0.1724,-0.326,0.5657,0.0176,0.5693,-0.0201,3578,2019-08-07 16:31:36:012
-6.3563,-6.8697,4.1644,0.823,-0.2766,-0.1853,0.0176,0.5693,-0.0201,3584,2019-08-07 16:31:36:018
-6.3563,-6.8697,4.1644,0.823,-0.2766,-0.1853,-0.0058,0.3424,-0.0223,3588,2019-08-07 16:31:36:022
-6.3563,-6.8697,4.1644,0.823,-0.2766,-0.1853,-0.0058,0.3424,-0.0223,3593,2019-08-07 16:31:36:027
-6.5429,-6.8315,4.2351,0.9933,-0.3512,-0.3506,-0.0282,0.0665,-0.0287,3598,2019-08-07 16:31:36:032
-6.5429,-6.8315,4.2351,0.9933,-0.3512,-0.3506,-0.0282,0.0665,-0.0287,3603,2019-08-07 16:31:36:037
-6.5429,-6.8315,4.2351,0.9933,-0.3512,-0.3506,-0.0282,0.0665,-0.0287,3608,2019-08-07 16:31:36:042
-6.1602,-6.8172,3.9853,0.9933,-0.3512,-0.3506,-0.0697,-0.2211,-0.0457,3613,2019-08-07 16:31:36:047
-6.1602,-6.8172,3.9853,0.9933,-0.3512,-0.3506,-0.0697,-0.2211,-0.0457,3617,2019-08-07 16:31:36:051
-5.3708,-6.9986,3.5893,0.0628,-0.2245,0.2071,-0.0932,-0.3404,-0.0574,3623,2019-08-07 16:31:36:057
-5.3708,-6.9986,3.5893,0.0628,-0.2245,0.2071,-0.0932,-0.3404,-0.0574,3627,2019-08-07 16:31:36:061
-5.3708,-6.9986,3.5893,0.0628,-0.2245,0.2071,-0.0911,-0.2893,-0.0638,3633,2019-08-07 16:31:36:067
-4.8589,-7.0368,3.396,0.0628,-0.2245,0.2071,-0.0911,-0.2893,-0.0638,3637,2019-08-07 16:31:36:071
-4.8589,-7.0368,3.396,-0.7163,-0.0687,0.5931,-0.074,-0.1604,-0.0585,3643,2019-08-07 16:31:36:077
-4.6389,-7.1227,3.33,-0.7163,-0.0687,0.5931,-0.074,-0.1604,-0.0585,3648,2019-08-07 16:31:36:082
-4.6389,-7.1227,3.33,-0.7163,-0.0687,0.5931,-0.074,-0.1604,-0.0585,3653,2019-08-07 16:31:36:087
-4.6389,-7.1227,3.33,-0.7163,-0.0687,0.5931,-0.0506,0.0196,-0.0489,3657,2019-08-07 16:31:36:091
-4.792,-7.0559,3.3819,-0.628,-0.136,0.5088,-0.0506,0.0196,-0.0489,3663,2019-08-07 16:31:36:097
-4.792,-7.0559,3.3819,-0.628,-0.136,0.5088,-0.0314,0.1357,-0.0308,3667,2019-08-07 16:31:36:101
-5.0312,-7.0177,3.5469,-0.628,-0.136,0.5088,-0.0314,0.1357,-0.0308,3673,2019-08-07 16:31:36:107
-5.0312,-7.0177,3.5469,-0.628,-0.136,0.5088,-0.0186,0.1858,-0.0191,3678,2019-08-07 16:31:36:112
-5.0312,-7.0177,3.5469,-0.1135,-0.2954,0.1991,-0.0186,0.1858,-0.0191,3683,2019-08-07 16:31:36:117
-5.3996,-6.8315,3.7213,-0.1135,-0.2954,0.1991,-0.0101,0.1528,0.0054,3688,2019-08-07 16:31:36:122
-5.3996,-6.8315,3.7213,0.0852,-0.3191,0.1329,-0.0101,0.1528,0.0054,3693,2019-08-07 16:31:36:127
-5.5718,-6.8124,3.726,0.0852,-0.3191,0.1329,-0.0048,0.0793,0.0257,3698,2019-08-07 16:31:36:132
-5.5718,-6.8124,3.726,0.0852,-0.3191,0.1329,-0.0048,0.0793,0.0257,3703,2019-08-07 16:31:36:137
-5.5718,-6.8124,3.726,0.0852,-0.3191,0.1329,0.0048,-0.0304,0.0352,3708,2019-08-07 16:31:36:142
-5.6771,-6.7742,3.693,0.2329,-0.4196,0.1601,0.0048,-0.0304,0.0352,3713,2019-08-07 16:31:36:147
-5.6771,-6.7742,3.693,0.2329,-0.4196,0.1601,0.0101,-0.1103,0.0438,3718,2019-08-07 16:31:36:152
-5.5431,-6.736,3.561,0.2329,-0.4196,0.1601,0.0101,-0.1103,0.0438,3723,2019-08-07 16:31:36:157
-5.5431,-6.736,3.561,0.2329,-0.4196,0.1601,0.0133,-0.1476,0.0416,3728,2019-08-07 16:31:36:162
-5.5431,-6.736,3.561,-0.1164,-0.4318,0.484,0.0133,-0.1476,0.0416,3733,2019-08-07 16:31:36:167
-5.28,-6.7647,3.3206,-0.1164,-0.4318,0.484,0.0133,-0.1476,0.0416,3737,2019-08-07 16:31:36:171
-5.28,-6.7647,3.3206,-0.2007,-0.3672,0.5996,0.0261,-0.1018,0.0278,3743,2019-08-07 16:31:36:177
-5.1843,-6.8363,3.231,-0.2007,-0.3672,0.5996,0.0261,-0.1018,0.0278,3748,2019-08-07 16:31:36:182
-5.1843,-6.8363,3.231,-0.2007,-0.3672,0.5996,0.0261,-0.1018,0.0278,3753,2019-08-07 16:31:36:187
-5.1843,-6.8363,3.231,-0.2007,-0.3672,0.5996,0.0347,-0.0113,0.0193,3758,2019-08-07 16:31:36:192
-5.1844,-6.8458,3.2735,-0.2111,-0.3108,0.6055,0.0347,-0.0113,0.0193,3763,2019-08-07 16:31:36:197
-5.1844,-6.8458,3.2735,-0.2111,-0.3108,0.6055,0.0442,0.0718,0.0044,3767,2019-08-07 16:31:36:201
-5.1844,-6.8458,3.2735,-0.2111,-0.3108,0.6055,0.0442,0.0718,0.0044,3773,2019-08-07 16:31:36:207
-5.3518,-6.8601,3.2735,-0.2111,-0.3108,0.6055,0.0464,0.1368,0.0044,3778,2019-08-07 16:31:36:212
-5.3518,-6.8601,3.2735,-0.098,-0.2834,0.5397,0.0464,0.1368,0.0044,3782,2019-08-07 16:31:36:216
-5.3518,-6.8601,3.2735,-0.098,-0.2834,0.5397,0.0464,0.1368,0.0044,3788,2019-08-07 16:31:36:222
-5.5193,-6.8506,3.5044,-0.098,-0.2834,0.5397,0.0442,0.1773,1.0E-4,3793,2019-08-07 16:31:36:227
-5.5193,-6.8506,3.5044,-0.098,-0.2834,0.5397,0.0442,0.1773,1.0E-4,3798,2019-08-07 16:31:36:232
-5.6341,-6.8315,3.6081,0.1632,-0.3409,0.2471,0.0464,0.1666,0.0065,3803,2019-08-07 16:31:36:237
-5.6341,-6.8315,3.6081,0.1632,-0.3409,0.2471,0.0464,0.1666,0.0065,3808,2019-08-07 16:31:36:242
-5.6341,-6.8315,3.6081,0.1632,-0.3409,0.2471,0.0453,0.1219,0.0118,3813,2019-08-07 16:31:36:247
-5.6772,-6.7837,3.6553,0.1632,-0.3409,0.2471,0.0453,0.1219,0.0118,3818,2019-08-07 16:31:36:252
-5.6772,-6.7837,3.6553,0.198,-0.3489,0.2733,0.0432,0.0494,0.015,3822,2019-08-07 16:31:36:256
-5.615,-6.8172,3.6128,0.198,-0.3489,0.2733,0.0432,0.0494,0.015,3828,2019-08-07 16:31:36:262
-5.615,-6.8172,3.6128,0.198,-0.3489,0.2733,0.0347,-0.0091,0.015,3833,2019-08-07 16:31:36:267
-5.615,-6.8172,3.6128,0.198,-0.3489,0.2733,0.0347,-0.0091,0.015,3837,2019-08-07 16:31:36:271
-5.5432,-6.8219,3.5563,0.0077,-0.3004,0.4101,0.0272,-0.0454,0.0182,3843,2019-08-07 16:31:36:277
-5.5432,-6.8219,3.5563,0.0077,-0.3004,0.4101,0.0272,-0.0454,0.0182,3848,2019-08-07 16:31:36:282
-5.304,-6.8744,3.3913,0.0077,-0.3004,0.4101,0.0229,-0.039,0.0161,3853,2019-08-07 16:31:36:287
-5.304,-6.8744,3.3913,0.0077,-0.3004,0.4101,0.0229,-0.039,0.0161,3859,2019-08-07 16:31:36:293
-5.304,-6.8744,3.3913,-0.2611,-0.2687,0.5088,0.0197,-6.0E-4,0.015,3863,2019-08-07 16:31:36:297
-5.1653,-6.9031,3.4007,-0.2611,-0.2687,0.5088,0.0197,-6.0E-4,0.015,3868,2019-08-07 16:31:36:302
-5.1653,-6.9031,3.4007,-0.2611,-0.2687,0.5088,0.0272,0.0654,0.0076,3872,2019-08-07 16:31:36:306
-5.2275,-6.9079,3.3913,-0.2611,-0.2687,0.5088,0.0272,0.0654,0.0076,3878,2019-08-07 16:31:36:312
-5.2275,-6.9079,3.3913,-0.2007,-0.2574,0.4509,0.0357,0.1187,0.0012,3883,2019-08-07 16:31:36:317
-5.2275,-6.9079,3.3913,-0.2007,-0.2574,0.4509,0.0357,0.1187,0.0012,3888,2019-08-07 16:31:36:322
-5.3376,-6.8458,3.4761,-0.2007,-0.2574,0.4509,0.0347,0.1581,1.0E-4,3893,2019-08-07 16:31:36:327
-5.3376,-6.8458,3.4761,-0.2007,-0.2574,0.4509,0.0347,0.1581,1.0E-4,3898,2019-08-07 16:31:36:332
-5.3376,-6.8458,3.4761,-0.0221,-0.3406,0.2067,0.0389,0.1538,-0.001,3903,2019-08-07 16:31:36:337
-5.572,-6.8506,3.6223,-0.0221,-0.3406,0.2067,0.0389,0.1538,-0.001,3908,2019-08-07 16:31:36:342
-5.572,-6.8506,3.6223,-0.0221,-0.3406,0.2067,0.0474,0.107,0.0086,3913,2019-08-07 16:31:36:347
-5.6294,-6.8649,3.759,-0.0221,-0.3406,0.2067,0.0474,0.107,0.0086,3918,2019-08-07 16:31:36:352
-5.6294,-6.8649,3.759,-0.0221,-0.3406,0.2067,0.0474,0.107,0.0086,3922,2019-08-07 16:31:36:356
-5.6294,-6.8649,3.759,0.1435,-0.3206,0.0972,0.0517,0.0303,0.0235,3928,2019-08-07 16:31:36:362
-5.6151,-6.8601,3.693,0.1435,-0.3206,0.0972,0.0517,0.0303,0.0235,3933,2019-08-07 16:31:36:367
-5.6151,-6.8601,3.693,0.1435,-0.3206,0.0972,0.0506,-0.0496,0.0427,3938,2019-08-07 16:31:36:372
-5.6151,-6.8601,3.693,0.1435,-0.3206,0.0972,0.0506,-0.0496,0.0427,3943,2019-08-07 16:31:36:377
-5.5051,-6.798,3.6128,-0.019,-0.3403,0.2296,0.0474,-0.0965,0.047,3948,2019-08-07 16:31:36:382
-5.5051,-6.798,3.6128,-0.019,-0.3403,0.2296,0.0474,-0.0965,0.047,3953,2019-08-07 16:31:36:387
-5.3855,-6.8506,3.5091,-0.019,-0.3403,0.2296,0.041,-0.1029,0.0459,3958,2019-08-07 16:31:36:392
-5.3855,-6.8506,3.5091,-0.019,-0.3403,0.2296,0.041,-0.1029,0.0459,3963,2019-08-07 16:31:36:397
-5.2707,-6.841,3.495,-0.2486,-0.3267,0.4016,0.0378,-0.072,0.0427,3968,2019-08-07 16:31:36:402
-5.2707,-6.841,3.495,-0.2486,-0.3267,0.4016,0.0378,-0.072,0.0427,3973,2019-08-07 16:31:36:407
-5.2707,-6.841,3.495,-0.2486,-0.3267,0.4016,0.0368,-0.0113,0.0342,3978,2019-08-07 16:31:36:412
-5.2659,-6.8458,3.396,-0.2486,-0.3267,0.4016,0.0368,-0.0113,0.0342,3983,2019-08-07 16:31:36:417
-5.2659,-6.8458,3.396,-0.2465,-0.2775,0.3809,0.0304,0.0526,0.0214,3987,2019-08-07 16:31:36:421
-5.2659,-6.8458,3.396,-0.2465,-0.2775,0.3809,0.0304,0.0526,0.0214,3993,2019-08-07 16:31:36:427
-5.4046,-6.7789,3.5657,-0.2465,-0.2775,0.3809,0.0368,0.1016,0.0107,3998,2019-08-07 16:31:36:432
-5.4046,-6.7789,3.5657,-0.2465,-0.2775,0.3809,0.0368,0.1016,0.0107,4002,2019-08-07 16:31:36:436
-5.5574,-6.8172,3.6506,0.0115,-0.2587,0.2057,0.0293,0.124,-0.002,4008,2019-08-07 16:31:36:442
-5.5574,-6.8172,3.6506,0.0115,-0.2587,0.2057,0.0293,0.124,-0.002,4014,2019-08-07 16:31:36:448
-5.5574,-6.8172,3.6506,0.0115,-0.2587,0.2057,0.0293,0.124,-0.002,4018,2019-08-07 16:31:36:452
-5.7488,-6.7742,3.759,0.0115,-0.2587,0.2057,0.0197,0.0931,-0.0063,4023,2019-08-07 16:31:36:457
-5.7488,-6.7742,3.759,0.2264,-0.313,0.0555,0.0197,0.0931,-0.0063,4028,2019-08-07 16:31:36:462
-5.7775,-6.841,3.858,0.2264,-0.313,0.0555,0.0187,0.0345,-0.0074,4033,2019-08-07 16:31:36:467
-5.7775,-6.841,3.858,0.2264,-0.313,0.0555,0.0187,0.0345,-0.0074,4038,2019-08-07 16:31:36:472
-5.7775,-6.841,3.858,0.2264,-0.313,0.0555,0.0197,-0.0422,-0.0084,4043,2019-08-07 16:31:36:477
-5.7296,-6.8172,3.7826,0.1819,-0.2963,0.072,0.0197,-0.0422,-0.0084,4048,2019-08-07 16:31:36:482
-5.7296,-6.8172,3.7826,0.1819,-0.2963,0.072,0.0197,-0.0422,-0.0084,4053,2019-08-07 16:31:36:487
-5.7296,-6.8172,3.7826,0.1819,-0.2963,0.072,0.0144,-0.1263,0.0044,4058,2019-08-07 16:31:36:492
-5.5048,-6.8888,3.7637,0.1819,-0.2963,0.072,0.0144,-0.1263,0.0044,4063,2019-08-07 16:31:36:497
-5.5048,-6.8888,3.7637,-0.1065,-0.289,0.1922,0.0176,-0.1732,0.0139,4068,2019-08-07 16:31:36:502
-5.5048,-6.8888,3.7637,-0.1065,-0.289,0.1922,0.0176,-0.1732,0.0139,4073,2019-08-07 16:31:36:507
-5.2943,-6.8028,3.5846,-0.1065,-0.289,0.1922,0.0219,-0.1615,0.0214,4078,2019-08-07 16:31:36:512
-5.2943,-6.8028,3.5846,-0.1065,-0.289,0.1922,0.0219,-0.1615,0.0214,4082,2019-08-07 16:31:36:516
-5.2943,-6.8028,3.5846,-0.2783,-0.2571,0.3821,0.0229,-0.1221,0.0182,4088,2019-08-07 16:31:36:522
-5.2225,-6.779,3.4997,-0.2783,-0.2571,0.3821,0.0229,-0.1221,0.0182,4093,2019-08-07 16:31:36:527
-5.2225,-6.779,3.4997,-0.2783,-0.2571,0.3821,-0.0697,-0.2211,0.0054,4098,2019-08-07 16:31:36:532
-5.2225,-6.779,3.4997,-0.2783,-0.2571,0.3821,-0.0697,-0.2211,0.0054,4102,2019-08-07 16:31:36:536
-5.9402,-6.6071,3.3725,-0.0318,-0.3866,-0.2309,-0.0697,-0.2211,0.0054,4108,2019-08-07 16:31:36:542
-5.9402,-6.6071,3.3725,-0.0318,-0.3866,-0.2309,-0.0293,-0.0198,0.0331,4113,2019-08-07 16:31:36:547
-4.7585,-7.0654,3.9051,-0.0318,-0.3866,-0.2309,0.139,0.0143,-0.0191,4117,2019-08-07 16:31:36:551
-4.7585,-7.0654,3.9051,-0.0318,-0.3866,-0.2309,0.139,0.0143,-0.0191,4123,2019-08-07 16:31:36:557
-4.7585,-7.0654,3.9051,-0.2023,-0.2588,0.9942,0.139,0.0143,-0.0191,4127,2019-08-07 16:31:36:561
-5.457,-6.7217,2.8304,-0.2023,-0.2588,0.9942,0.0613,0.1325,-0.0074,4133,2019-08-07 16:31:36:567
-5.457,-6.7217,2.8304,-0.2023,-0.2588,0.9942,0.0613,0.1325,-0.0074,4137,2019-08-07 16:31:36:571
-5.4331,-6.5785,3.8816,-0.2023,-0.2588,0.9942,-0.0506,0.1443,0.0065,4143,2019-08-07 16:31:36:577
-5.4331,-6.5785,3.8816,0.0806,-0.4869,-0.2395,-0.0506,0.1443,0.0065,4148,2019-08-07 16:31:36:582
-5.4331,-6.5785,3.8816,0.0806,-0.4869,-0.2395,0.0101,0.0974,-0.0159,4153,2019-08-07 16:31:36:587
-5.9259,-6.8363,3.9475,0.0806,-0.4869,-0.2395,0.0101,0.0974,-0.0159,4157,2019-08-07 16:31:36:591
-5.9259,-6.8363,3.9475,0.0806,-0.4869,-0.2395,0.0027,0.0058,0.0012,4162,2019-08-07 16:31:36:596
-5.7728,-6.8601,3.7731,0.232,-0.2421,0.112,0.0027,0.0058,0.0012,4168,2019-08-07 16:31:36:602
-5.7728,-6.8601,3.7731,0.232,-0.2421,0.112,0.0027,0.0058,0.0012,4173,2019-08-07 16:31:36:607