ACCELEROMETER X (m/s²),ACCELEROMETER Y (m/s²),ACCELEROMETER Z (m/s²),LINEAR ACCELERATION X (m/s²),LINEAR ACCELERATION Y (m/s²),LINEAR ACCELERATION Z (m/s²),GYROSCOPE X (rad/s),GYROSCOPE Y (rad/s),GYROSCOPE Z (rad/s),Time since start in ms ,YYYY-MO-DD HH-MI-SS_SSS
-5.2558,-6.822,3.7638,-0.2135,-0.2516,0.3108,0.0133,-0.0251,0.0012,2,2019-08-07 16:31:38:067
-5.2558,-6.822,3.7638,-0.2135,-0.2516,0.3108,0.0133,-0.0251,0.0012,8,2019-08-07 16:31:38:073
-5.3419,-6.7647,3.7685,-0.2135,-0.2516,0.3108,0.0091,0.0015,-0.0074,13,2019-08-07 16:31:38:078
-5.3419,-6.7647,3.7685,-0.1121,-0.3132,0.4024,0.0091,0.0015,-0.0074,17,2019-08-07 16:31:38:082
-5.3419,-6.7647,3.7685,-0.1121,-0.3132,0.4024,-5.0E-4,0.0313,-0.0138,23,2019-08-07 16:31:38:088
-5.3227,-6.7695,3.7921,-0.1121,-0.3132,0.4024,-5.0E-4,0.0313,-0.0138,28,2019-08-07 16:31:38:093
-5.3227,-6.7695,3.7921,-0.1121,-0.3132,0.4024,-5.0E-4,0.0313,-0.0138,33,2019-08-07 16:31:38:098
-5.3514,-6.7456,3.8251,-0.1234,-0.301,0.2502,-0.0026,0.059,-0.0223,38,2019-08-07 16:31:38:103
-5.3514,-6.7456,3.8251,-0.1234,-0.301,0.2502,-0.0026,0.059,-0.0223,43,2019-08-07 16:31:38:108
-5.3514,-6.7456,3.8251,-0.1234,-0.301,0.2502,-0.0016,0.075,-0.0319,48,2019-08-07 16:31:38:113
-5.4088,-6.7265,3.8298,-0.1234,-0.301,0.2502,-0.0016,0.075,-0.0319,53,2019-08-07 16:31:38:118
-5.4088,-6.7265,3.8298,-0.1234,-0.301,0.2502,-0.008,0.0708,-0.0404,58,2019-08-07 16:31:38:123
-5.4041,-6.7026,3.8863,-0.0969,-0.3286,0.1654,-0.008,0.0708,-0.0404,63,2019-08-07 16:31:38:128
-5.4041,-6.7026,3.8863,-0.0969,-0.3286,0.1654,-0.0058,0.0473,-0.0329,68,2019-08-07 16:31:38:133
-5.4041,-6.7026,3.8863,-0.0969,-0.3286,0.1654,-0.0058,0.0473,-0.0329,73,2019-08-07 16:31:38:138
-5.3897,-6.7695,3.8486,-0.0873,-0.2846,0.2108,-0.0058,0.0217,-0.0276,78,2019-08-07 16:31:38:143
-5.3897,-6.7695,3.8486,-0.0873,-0.2846,0.2108,-0.008,-0.0049,-0.0223,84,2019-08-07 16:31:38:149
-5.3897,-6.7695,3.8486,-0.0873,-0.2846,0.2108,-0.008,-0.0049,-0.0223,88,2019-08-07 16:31:38:153
-5.294,-6.7695,3.9382,-0.0873,-0.2846,0.2108,-0.008,-0.0049,-0.0223,92,2019-08-07 16:31:38:157
-5.294,-6.7695,3.9382,-0.1937,-0.296,0.2219,0.0016,-0.0475,-0.0106,98,2019-08-07 16:31:38:163
-5.2844,-6.7647,3.8581,-0.1937,-0.296,0.2219,0.0016,-0.0475,-0.0106,103,2019-08-07 16:31:38:168
-5.2844,-6.7647,3.8581,-0.1937,-0.296,0.2219,0.0016,-0.0645,-0.0031,107,2019-08-07 16:31:38:172
-5.2318,-6.7074,3.7921,-0.1937,-0.296,0.2219,0.0016,-0.0645,-0.0031,113,2019-08-07 16:31:38:178
-5.2318,-6.7074,3.7921,-0.2985,-0.2769,0.2808,0.0016,-0.0645,-0.0031,118,2019-08-07 16:31:38:183
-5.2318,-6.7074,3.7921,-0.2985,-0.2769,0.2808,0.007,-0.0528,0.0033,123,2019-08-07 16:31:38:188
-5.2318,-6.7074,3.7921,-0.2985,-0.2769,0.2808,0.007,-0.0528,0.0033,128,2019-08-07 16:31:38:193
-5.1888,-6.7647,3.8345,-0.2679,-0.2863,0.2742,0.0112,-0.0358,-0.0031,133,2019-08-07 16:31:38:198
-5.1888,-6.7647,3.8345,-0.2679,-0.2863,0.2742,0.0112,-0.0358,-0.0031,137,2019-08-07 16:31:38:202
-5.1888,-6.7647,3.8345,-0.2679,-0.2863,0.2742,0.0133,0.0154,-0.0063,144,2019-08-07 16:31:38:209
-5.2318,-6.7313,3.7826,-0.2679,-0.2863,0.2742,0.0133,0.0154,-0.0063,148,2019-08-07 16:31:38:213
-5.2318,-6.7313,3.7826,-0.2484,-0.3766,0.2612,0.007,0.0431,-0.0074,153,2019-08-07 16:31:38:218
-5.2318,-6.7313,3.7826,-0.2484,-0.3766,0.2612,0.007,0.0431,-0.0074,158,2019-08-07 16:31:38:223
-5.2749,-6.6644,3.7779,-0.1925,-0.391,0.292,0.008,0.0612,-0.0084,163,2019-08-07 16:31:38:228
-5.2749,-6.6644,3.7779,-0.1925,-0.391,0.292,0.008,0.0612,-0.0084,169,2019-08-07 16:31:38:234
-5.2749,-6.6644,3.7779,-0.1925,-0.391,0.292,0.008,0.0686,-0.0063,173,2019-08-07 16:31:38:238
-5.3945,-6.6979,3.9193,-0.1925,-0.391,0.292,0.008,0.0686,-0.0063,177,2019-08-07 16:31:38:242
-5.3945,-6.6979,3.9193,-0.1356,-0.3333,0.1301,0.0101,0.0399,0.0022,183,2019-08-07 16:31:38:248
-5.3466,-6.7456,3.8958,-0.1356,-0.3333,0.1301,0.0101,0.0399,0.0022,188,2019-08-07 16:31:38:253
-5.3466,-6.7456,3.8958,-0.1356,-0.3333,0.1301,0.0123,0.0079,0.0076,193,2019-08-07 16:31:38:258
-5.3466,-6.7456,3.8958,-0.1356,-0.3333,0.1301,0.0123,0.0079,0.0076,198,2019-08-07 16:31:38:263
-5.3658,-6.7647,3.8675,-0.1101,-0.2883,0.1954,0.0123,0.0079,0.0076,203,2019-08-07 16:31:38:268
-5.3658,-6.7647,3.8675,-0.1101,-0.2883,0.1954,0.0091,-0.0379,0.0161,208,2019-08-07 16:31:38:273
-5.2462,-6.736,3.8816,-0.1101,-0.2883,0.1954,0.0091,-0.0379,0.0161,213,2019-08-07 16:31:38:278
-5.2462,-6.736,3.8816,-0.1101,-0.2883,0.1954,0.0091,-0.0571,0.0257,218,2019-08-07 16:31:38:283
-5.2462,-6.736,3.8816,-0.2388,-0.2756,0.192,0.0091,-0.0571,0.0257,223,2019-08-07 16:31:38:288
-5.2174,-6.7551,3.7685,-0.2388,-0.2756,0.192,0.0101,-0.0581,0.0299,229,2019-08-07 16:31:38:294
-5.2174,-6.7551,3.7685,-0.2388,-0.2756,0.192,0.0101,-0.0581,0.0299,233,2019-08-07 16:31:38:298
-5.2462,-6.7838,3.7921,-0.2388,-0.2756,0.192,0.0091,-0.0358,0.0289,237,2019-08-07 16:31:38:302
-5.2462,-6.7838,3.7921,-0.2435,-0.3009,0.3015,0.0091,-0.0358,0.0289,244,2019-08-07 16:31:38:309
-5.2318,-6.7981,3.8533,-0.2435,-0.3009,0.3015,0.0112,-0.0091,0.0257,248,2019-08-07 16:31:38:313
-5.2318,-6.7981,3.8533,-0.2435,-0.3009,0.3015,0.0112,-0.0091,0.0257,253,2019-08-07 16:31:38:318
-5.2318,-6.7981,3.8533,-0.2435,-0.3009,0.3015,0.0123,0.0207,0.0225,258,2019-08-07 16:31:38:323
-5.3275,-6.7313,3.7873,-0.1374,-0.3166,0.2457,0.0123,0.0207,0.0225,263,2019-08-07 16:31:38:328
-5.3275,-6.7313,3.7873,-0.1374,-0.3166,0.2457,0.0027,0.042,0.0118,267,2019-08-07 16:31:38:332
-5.3275,-6.7313,3.7873,-0.1374,-0.3166,0.2457,0.0027,0.042,0.0118,273,2019-08-07 16:31:38:338
-5.4423,-6.7074,3.8251,-0.1374,-0.3166,0.2457,0.0016,0.0526,0.0097,277,2019-08-07 16:31:38:342
-5.4423,-6.7074,3.8251,-0.0626,-0.3241,0.1838,0.0016,0.0526,0.0097,283,2019-08-07 16:31:38:348
-5.4423,-6.7074,3.8251,-0.0626,-0.3241,0.1838,6.0E-4,0.0516,0.0022,288,2019-08-07 16:31:38:353
-5.4519,-6.7647,3.9335,-0.0626,-0.3241,0.1838,6.0E-4,0.0516,0.0022,294,2019-08-07 16:31:38:359
-5.4519,-6.7647,3.9335,-0.0626,-0.3241,0.1838,0.0016,0.0313,-0.0042,297,2019-08-07 16:31:38:362
-5.4136,-6.7838,3.8769,-0.0818,-0.2806,0.1499,0.0016,0.0313,-0.0042,303,2019-08-07 16:31:38:368
-5.4136,-6.7838,3.8769,-0.0818,-0.2806,0.1499,0.0059,0.0122,-0.0031,308,2019-08-07 16:31:38:373
-5.4136,-6.7838,3.8769,-0.0818,-0.2806,0.1499,0.0059,0.0122,-0.0031,313,2019-08-07 16:31:38:378
-5.3945,-6.8315,3.8675,-0.0818,-0.2806,0.1499,0.0059,0.0122,-0.0031,317,2019-08-07 16:31:38:382
-5.3945,-6.8315,3.8675,-0.1166,-0.1992,0.2523,0.007,0.0026,-0.001,323,2019-08-07 16:31:38:388
-5.3945,-6.8315,3.8675,-0.1166,-0.1992,0.2523,0.007,0.0026,-0.001,328,2019-08-07 16:31:38:393
-5.3466,-6.8363,3.8863,-0.1166,-0.1992,0.2523,0.007,-0.0113,0.0033,333,2019-08-07 16:31:38:398
-5.3466,-6.8363,3.8863,-0.1166,-0.1992,0.2523,0.007,-0.0113,0.0033,337,2019-08-07 16:31:38:402
-5.3035,-6.8172,3.8816,-0.1877,-0.2221,0.1842,0.008,-0.0347,0.0065,343,2019-08-07 16:31:38:408
-5.3035,-6.8172,3.8816,-0.1877,-0.2221,0.1842,0.008,-0.0347,0.0065,348,2019-08-07 16:31:38:413
-5.3035,-6.8172,3.8816,-0.1877,-0.2221,0.1842,0.0176,-0.0432,0.0054,352,2019-08-07 16:31:38:417
-5.1648,-6.7981,3.9146,-0.1877,-0.2221,0.1842,0.0176,-0.0432,0.0054,358,2019-08-07 16:31:38:423
-5.1648,-6.7981,3.9146,-0.2806,-0.2489,0.243,0.0251,-0.0262,0.0086,363,2019-08-07 16:31:38:428
-5.237,-6.779,3.8014,-0.2806,-0.2489,0.243,0.0251,-0.0262,0.0086,367,2019-08-07 16:31:38:432
-5.237,-6.779,3.8014,-0.2806,-0.2489,0.243,0.0165,-0.0049,0.0065,373,2019-08-07 16:31:38:438
-5.237,-6.779,3.8014,-0.2806,-0.2489,0.243,0.0165,-0.0049,0.0065,378,2019-08-07 16:31:38:443
-5.3279,-6.6978,3.8768,-0.1277,-0.3086,0.1286,0.0048,-0.0038,0.0086,383,2019-08-07 16:31:38:448
-5.3279,-6.6978,3.8768,-0.1277,-0.3086,0.1286,0.0048,-0.0038,0.0086,388,2019-08-07 16:31:38:453
-5.3757,-6.6739,3.8297,-0.1137,-0.3604,0.2471,0.0016,-0.0198,0.0022,393,2019-08-07 16:31:38:458
-5.3757,-6.6739,3.8297,-0.1137,-0.3604,0.2471,0.0016,-0.0198,0.0022,399,2019-08-07 16:31:38:464
-5.3757,-6.6739,3.8297,-0.1137,-0.3604,0.2471,0.0016,-0.0198,0.0022,403,2019-08-07 16:31:38:468
-5.3375,-6.7026,3.8155,-0.1137,-0.3604,0.2471,-0.0069,-0.0198,-0.0042,408,2019-08-07 16:31:38:473
-5.3375,-6.7026,3.8155,-0.1893,-0.3179,0.309,-0.0069,-0.0198,-0.0042,413,2019-08-07 16:31:38:478
-5.3375,-6.7026,3.8155,-0.1893,-0.3179,0.309,-0.009,-6.0E-4,-0.0074,418,2019-08-07 16:31:38:483
-5.2944,-6.6883,3.8155,-0.1893,-0.3179,0.309,-0.009,-6.0E-4,-0.0074,423,2019-08-07 16:31:38:488
-5.2944,-6.6883,3.8155,-0.1893,-0.3179,0.309,-0.0058,0.0239,-0.0106,427,2019-08-07 16:31:38:492
-5.2992,-6.7074,3.8203,-0.1894,-0.329,0.2541,-0.0058,0.0239,-0.0106,433,2019-08-07 16:31:38:498
-5.2992,-6.7074,3.8203,-0.1894,-0.329,0.2541,-0.008,0.0356,-0.0148,438,2019-08-07 16:31:38:503
-5.2992,-6.7074,3.8203,-0.1894,-0.329,0.2541,-0.008,0.0356,-0.0148,443,2019-08-07 16:31:38:508
-5.3231,-6.7456,3.8061,-0.1894,-0.329,0.2541,-0.009,0.0409,-0.0095,448,2019-08-07 16:31:38:513
-5.3231,-6.7456,3.8061,-0.0722,-0.2783,0.2761,-0.009,0.0409,-0.0095,453,2019-08-07 16:31:38:518
-5.414,-6.8219,3.8533,-0.0722,-0.2783,0.2761,-5.0E-4,0.0377,-0.0042,457,2019-08-07 16:31:38:522
-5.414,-6.8219,3.8533,-0.0722,-0.2783,0.2761,-5.0E-4,0.0377,-0.0042,464,2019-08-07 16:31:38:529
-5.414,-6.8219,3.8533,-0.0722,-0.2783,0.2761,0.007,0.0217,-0.001,468,2019-08-07 16:31:38:533
-5.4332,-6.7742,3.957,-0.0558,-0.2779,0.1317,0.007,0.0217,-0.001,472,2019-08-07 16:31:38:537
-5.4332,-6.7742,3.957,-0.0558,-0.2779,0.1317,0.0059,-0.007,0.0054,478,2019-08-07 16:31:38:543
-5.3758,-6.8028,3.8297,-0.0558,-0.2779,0.1317,0.0059,-0.007,0.0054,483,2019-08-07 16:31:38:548
-5.3758,-6.8028,3.8297,-0.0558,-0.2779,0.1317,0.008,-0.007,0.0065,488,2019-08-07 16:31:38:553
-5.3758,-6.8028,3.8297,-0.1088,-0.2671,0.204,0.008,-0.007,0.0065,494,2019-08-07 16:31:38:559
-5.3997,-6.7837,3.8155,-0.1088,-0.2671,0.204,0.0038,-0.0166,0.0086,498,2019-08-07 16:31:38:563
-5.3997,-6.7837,3.8155,-0.1088,-0.2671,0.204,0.0038,-0.0166,0.0086,503,2019-08-07 16:31:38:568
-5.3997,-6.7837,3.8155,-0.1088,-0.2671,0.204,0.0038,-0.0166,0.0086,508,2019-08-07 16:31:38:573
-5.4523,-6.7265,3.9192,-0.1088,-0.2671,0.204,0.0112,-0.0038,-0.0042,513,2019-08-07 16:31:38:578
-5.4523,-6.7265,3.9192,-0.0423,-0.2659,0.1535,0.0112,-0.0038,-0.0042,518,2019-08-07 16:31:38:583
-5.4188,-6.6644,3.8627,-0.0423,-0.2659,0.1535,0.007,-0.0283,-0.0138,523,2019-08-07 16:31:38:588
-5.4188,-6.6644,3.8627,-0.0423,-0.2659,0.1535,0.007,-0.0283,-0.0138,528,2019-08-07 16:31:38:593
-5.4188,-6.6644,3.8627,-0.0423,-0.2659,0.1535,6.0E-4,-0.0251,-0.0212,532,2019-08-07 16:31:38:597
-5.3327,-6.6453,3.8203,-0.1399,-0.4047,0.204,6.0E-4,-0.0251,-0.0212,538,2019-08-07 16:31:38:603
-5.3327,-6.6453,3.8203,-0.1399,-0.4047,0.204,-0.0058,-0.0102,-0.0276,542,2019-08-07 16:31:38:607
-5.3327,-6.6453,3.8203,-0.1399,-0.4047,0.204,-0.0058,-0.0102,-0.0276,548,2019-08-07 16:31:38:613
-5.3279,-6.7312,3.8721,-0.1399,-0.4047,0.204,-0.0048,0.01,-0.0319,553,2019-08-07 16:31:38:618
-5.3279,-6.7312,3.8721,-0.1503,-0.2936,0.1798,-0.0048,0.01,-0.0319,558,2019-08-07 16:31:38:623
-5.2944,-6.736,3.9004,-0.1503,-0.2936,0.1798,0.0027,0.0175,-0.0287,563,2019-08-07 16:31:38:628
-5.2944,-6.736,3.9004,-0.1503,-0.2936,0.1798,0.0027,0.0175,-0.0287,567,2019-08-07 16:31:38:632
-5.2944,-6.736,3.9004,-0.1503,-0.2936,0.1798,0.0048,0.0196,-0.0276,573,2019-08-07 16:31:38:638
-5.2657,-6.7455,3.8532,-0.2196,-0.2967,0.2154,0.0048,0.0196,-0.0276,578,2019-08-07 16:31:38:643
-5.2657,-6.7455,3.8532,-0.2196,-0.2967,0.2154,0.0048,0.009,-0.0233,583,2019-08-07 16:31:38:648
-5.2418,-6.7265,3.8532,-0.2196,-0.2967,0.2154,0.0048,0.009,-0.0233,587,2019-08-07 16:31:38:652
-5.2418,-6.7265,3.8532,-0.2196,-0.2967,0.2154,0.0091,-0.007,-0.0127,593,2019-08-07 16:31:38:658
-5.2418,-6.7265,3.8532,-0.2508,-0.3033,0.2106,0.0091,-0.007,-0.0127,599,2019-08-07 16:31:38:664
-5.1796,-6.7981,3.8957,-0.2508,-0.3033,0.2106,0.0091,-0.007,-0.0127,602,2019-08-07 16:31:38:667
-5.1796,-6.7981,3.8957,-0.2508,-0.3033,0.2106,0.0197,-0.0241,0.0054,608,2019-08-07 16:31:38:673
-5.1892,-6.7599,3.8721,-0.2508,-0.3033,0.2106,0.0197,-0.0241,0.0054,613,2019-08-07 16:31:38:678
-5.1892,-6.7599,3.8721,-0.3115,-0.2921,0.2295,0.0144,-0.0251,0.0257,618,2019-08-07 16:31:38:683
-5.1892,-6.7599,3.8721,-0.3115,-0.2921,0.2295,0.0144,-0.0251,0.0257,623,2019-08-07 16:31:38:688
-5.1892,-6.7599,3.8721,-0.3115,-0.2921,0.2295,0.0144,-0.0251,0.0257,627,2019-08-07 16:31:38:692
-5.2036,-6.7455,3.8815,-0.279,-0.295,0.1937,0.0123,-0.0219,0.0363,632,2019-08-07 16:31:38:697
-5.2036,-6.7455,3.8815,-0.279,-0.295,0.1937,0.0123,-0.0219,0.0363,638,2019-08-07 16:31:38:703
-5.2036,-6.7455,3.8815,-0.279,-0.295,0.1937,0.0144,-0.039,0.0459,642,2019-08-07 16:31:38:707
-5.3088,-6.7503,3.7825,-0.1778,-0.2844,0.2926,0.0144,-0.039,0.0459,649,2019-08-07 16:31:38:714
-5.3088,-6.7503,3.7825,-0.1778,-0.2844,0.2926,0.0027,-0.0422,0.0438,652,2019-08-07 16:31:38:717
-5.3088,-6.7503,3.7825,-0.1778,-0.2844,0.2926,0.0027,-0.0422,0.0438,658,2019-08-07 16:31:38:723
-5.2227,-6.6501,3.7967,-0.1778,-0.2844,0.2926,-0.0048,-0.023,0.0406,663,2019-08-07 16:31:38:728
-5.2227,-6.6501,3.7967,-0.2916,-0.3278,0.248,-0.0048,-0.023,0.0406,668,2019-08-07 16:31:38:733
-5.3136,-6.6596,3.7778,-0.2916,-0.3278,0.248,-0.0133,0.0303,0.0267,673,2019-08-07 16:31:38:738
-5.3136,-6.6596,3.7778,-0.2916,-0.3278,0.248,-0.0133,0.0303,0.0267,678,2019-08-07 16:31:38:743
-5.3136,-6.6596,3.7778,-0.2916,-0.3278,0.248,-0.0154,0.0633,0.0193,683,2019-08-07 16:31:38:748
-5.4811,-6.6739,3.8391,-0.0172,-0.3545,0.2359,-0.0154,0.0633,0.0193,688,2019-08-07 16:31:38:753
-5.4811,-6.6739,3.8391,-0.0172,-0.3545,0.2359,-0.0154,0.0633,0.0193,693,2019-08-07 16:31:38:758
-5.5289,-6.7217,3.8485,-0.0172,-0.3545,0.2359,-0.0165,0.0633,0.0086,698,2019-08-07 16:31:38:763
-5.5289,-6.7217,3.8485,-0.0172,-0.3545,0.2359,-0.0165,0.0633,0.0086,703,2019-08-07 16:31:38:768
-5.5289,-6.7217,3.8485,0.0134,-0.3398,0.1933,-0.0165,0.042,-0.002,708,2019-08-07 16:31:38:773
-5.4859,-6.7026,3.8815,0.0134,-0.3398,0.1933,-0.0165,0.042,-0.002,713,2019-08-07 16:31:38:778
-5.4859,-6.7026,3.8815,0.0134,-0.3398,0.1933,-0.0122,0.0207,-0.0084,717,2019-08-07 16:31:38:782
-5.4859,-6.7026,3.8815,0.0134,-0.3398,0.1933,-0.0122,0.0207,-0.0084,723,2019-08-07 16:31:38:788
-5.4189,-6.7933,3.9004,-0.117,-0.1978,0.1895,-0.0026,-6.0E-4,-0.0095,727,2019-08-07 16:31:38:792
-5.4189,-6.7933,3.9004,-0.117,-0.1978,0.1895,-0.0026,-6.0E-4,-0.0095,733,2019-08-07 16:31:38:798
-5.3184,-6.8506,3.8438,-0.117,-0.1978,0.1895,0.0038,-0.0145,-0.0042,738,2019-08-07 16:31:38:803
-5.3184,-6.8506,3.8438,-0.117,-0.1978,0.1895,0.0038,-0.0145,-0.0042,743,2019-08-07 16:31:38:808
-5.3184,-6.8458,3.858,-0.2013,-0.1936,0.1344,0.0165,-0.0273,0.0044,749,2019-08-07 16:31:38:814
-5.2706,-6.8458,3.858,-0.2013,-0.1936,0.1344,0.0165,-0.0273,0.0044,753,2019-08-07 16:31:38:818
-5.2706,-6.8458,3.858,-0.2013,-0.1936,0.1344,0.0283,-0.0315,0.0107,758,2019-08-07 16:31:38:823
-5.1988,-6.8219,3.825,-0.2013,-0.1936,0.1344,0.0283,-0.0315,0.0107,763,2019-08-07 16:31:38:828
-5.1988,-6.8219,3.825,-0.2188,-0.2103,0.2115,0.0272,-0.0251,0.0129,768,2019-08-07 16:31:38:833
-5.1988,-6.8219,3.825,-0.2188,-0.2103,0.2115,0.0272,-0.0251,0.0129,773,2019-08-07 16:31:38:838
-5.3184,-6.7694,3.9051,-0.2188,-0.2103,0.2115,0.0208,-0.0251,0.0107,778,2019-08-07 16:31:38:843
-5.3184,-6.7694,3.9051,-0.2188,-0.2103,0.2115,0.0208,-0.0251,0.0107,784,2019-08-07 16:31:38:849
-5.3184,-6.7694,3.9051,-0.1947,-0.3071,0.1517,0.0197,-0.0304,0.0139,787,2019-08-07 16:31:38:852
-5.3089,-6.7026,3.8627,-0.1947,-0.3071,0.1517,0.0197,-0.0304,0.0139,794,2019-08-07 16:31:38:859
-5.3089,-6.7026,3.8627,-0.1947,-0.3071,0.1517,0.0197,-0.0304,0.0139,797,2019-08-07 16:31:38:862
-5.3089,-6.6883,3.8155,-0.1947,-0.3071,0.1517,0.0123,-0.0209,0.0033,803,2019-08-07 16:31:38:868
-5.3089,-6.6883,3.8155,-0.1947,-0.3071,0.1517,0.0123,-0.0209,0.0033,808,2019-08-07 16:31:38:873
-5.3089,-6.6883,3.8155,-0.1899,-0.3577,0.1879,-0.0069,0.0036,-0.001,813,2019-08-07 16:31:38:878
-5.328,-6.6883,3.8344,-0.1899,-0.3577,0.1879,-0.0069,0.0036,-0.001,818,2019-08-07 16:31:38:883
-5.328,-6.6883,3.8344,-0.1899,-0.3577,0.1879,-0.0112,0.0249,-0.0063,823,2019-08-07 16:31:38:888
-5.2993,-6.6883,3.8721,-0.167,-0.3255,0.2646,-0.0112,0.0249,-0.0063,828,2019-08-07 16:31:38:893
-5.2993,-6.6883,3.8721,-0.167,-0.3255,0.2646,-0.0144,0.0388,-0.0084,833,2019-08-07 16:31:38:898
-5.2993,-6.6883,3.8721,-0.167,-0.3255,0.2646,-0.0144,0.0388,-0.0084,838,2019-08-07 16:31:38:903
-5.3328,-6.779,3.8579,-0.167,-0.3255,0.2646,-0.0133,0.0452,-0.0074,843,2019-08-07 16:31:38:908
-5.3328,-6.779,3.8579,-0.2314,-0.2943,0.2719,-0.0133,0.0452,-0.0074,848,2019-08-07 16:31:38:913
-5.261,-6.7408,3.8909,-0.2314,-0.2943,0.2719,-0.0069,0.0399,-0.0042,853,2019-08-07 16:31:38:918
-5.261,-6.7408,3.8909,-0.2314,-0.2943,0.2719,-0.0069,0.0399,-0.0042,858,2019-08-07 16:31:38:923
-5.261,-6.7408,3.8909,-0.2314,-0.2943,0.2719,-0.0069,0.0399,-0.0042,862,2019-08-07 16:31:38:927
-5.2897,-6.7503,3.8674,-0.2342,-0.2713,0.1442,-5.0E-4,0.0303,0.0022,868,2019-08-07 16:31:38:933
-5.2897,-6.7503,3.8674,-0.2342,-0.2713,0.1442,-5.0E-4,0.0303,0.0022,873,2019-08-07 16:31:38:938
-5.2897,-6.7503,3.8674,-0.2342,-0.2713,0.1442,0.0027,0.0154,0.0118,877,2019-08-07 16:31:38:942
-5.328,-6.7646,3.9098,-0.2342,-0.2713,0.1442,0.0027,0.0154,0.0118,883,2019-08-07 16:31:38:948
-5.328,-6.7646,3.9098,-0.1604,-0.2888,0.1432,0.0059,-0.0038,0.0161,888,2019-08-07 16:31:38:953
-5.328,-6.7646,3.9098,-0.1604,-0.2888,0.1432,0.0059,-0.0038,0.0161,893,2019-08-07 16:31:38:958
-5.3854,-6.7073,3.9192,-0.1604,-0.2888,0.1432,0.0091,-0.0262,0.0193,898,2019-08-07 16:31:38:963
-5.3854,-6.7073,3.9192,-0.1604,-0.2888,0.1432,0.0091,-0.0262,0.0193,903,2019-08-07 16:31:38:968
-5.3663,-6.7312,3.8391,-0.1604,-0.2888,0.1432,0.0027,-0.0368,0.0214,908,2019-08-07 16:31:38:973
-5.3663,-6.7312,3.8391,-0.1373,-0.2812,0.2224,0.0027,-0.0368,0.0214,912,2019-08-07 16:31:38:977
-5.3663,-6.7312,3.8391,-0.1373,-0.2812,0.2224,0.0048,-0.0262,0.0075,918,2019-08-07 16:31:38:983
-5.2993,-6.7121,3.8344,-0.1373,-0.2812,0.2224,0.0048,-0.0262,0.0075,923,2019-08-07 16:31:38:988
-5.2993,-6.7121,3.8344,-0.1373,-0.2812,0.2224,0.0048,-6.0E-4,0.0044,928,2019-08-07 16:31:38:993
-5.2945,-6.6978,3.7919,-0.2283,-0.2941,0.3566,0.0048,-6.0E-4,0.0044,933,2019-08-07 16:31:38:998
-5.2945,-6.6978,3.7919,-0.2283,-0.2941,0.3566,0.008,0.0324,-0.002,938,2019-08-07 16:31:39:003
-5.2945,-6.6978,3.7919,-0.2283,-0.2941,0.3566,0.008,0.0324,-0.002,943,2019-08-07 16:31:39:008
-5.3233,-6.6883,3.8297,-0.2283,-0.2941,0.3566,0.007,0.0537,-0.0095,948,2019-08-07 16:31:39:013
-5.3233,-6.6883,3.8297,-0.1354,-0.3178,0.2164,0.007,0.0537,-0.0095,952,2019-08-07 16:31:39:017
-5.3233,-6.6883,3.8297,-0.1354,-0.3178,0.2164,0.007,0.0537,-0.0095,958,2019-08-07 16:31:39:023
-5.3998,-6.6883,3.8768,-0.1354,-0.3178,0.2164,0.008,0.059,-0.0106,962,2019-08-07 16:31:39:027
-5.3998,-6.6883,3.8768,-0.1354,-0.3178,0.2164,0.008,0.059,-0.0106,968,2019-08-07 16:31:39:033
-5.4046,-6.7837,3.8956,-0.1349,-0.275,0.1585,0.008,0.0441,-0.0042,972,2019-08-07 16:31:39:037
-5.4046,-6.7837,3.8956,-0.1349,-0.275,0.1585,0.008,0.0441,-0.0042,978,2019-08-07 16:31:39:043
-5.4046,-6.7837,3.8956,-0.0932,-0.27,0.1947,0.0059,0.009,1.0E-4,983,2019-08-07 16:31:39:048
-5.3424,-6.7503,3.8768,-0.0932,-0.27,0.1947,0.0059,0.009,1.0E-4,988,2019-08-07 16:31:39:053
-5.3424,-6.7503,3.8768,-0.0932,-0.27,0.1947,0.0027,-0.0379,0.0075,994,2019-08-07 16:31:39:059
-5.3041,-6.7551,3.9239,-0.0932,-0.27,0.1947,0.0027,-0.0379,0.0075,998,2019-08-07 16:31:39:063
-5.3041,-6.7551,3.9239,-0.2498,-0.2452,0.1509,6.0E-4,-0.0656,0.0182,1003,2019-08-07 16:31:39:068
-5.3041,-6.7551,3.9239,-0.2498,-0.2452,0.1509,6.0E-4,-0.0656,0.0182,1008,2019-08-07 16:31:39:073
-5.2132,-6.7551,3.7684,-0.2498,-0.2452,0.1509,-0.0026,-0.0581,0.0203,1013,2019-08-07 16:31:39:078
-5.2132,-6.7551,3.7684,-0.2498,-0.2452,0.1509,-0.0026,-0.0581,0.0203,1018,2019-08-07 16:31:39:083
-5.1367,-6.7694,3.7637,-0.3524,-0.2438,0.303,-0.0026,-0.0581,0.0203,1023,2019-08-07 16:31:39:088
-5.1367,-6.7694,3.7637,-0.3524,-0.2438,0.303,-0.0048,-0.0251,0.0225,1027,2019-08-07 16:31:39:092
-5.1367,-6.7694,3.7637,-0.3524,-0.2438,0.303,-0.0048,-0.0251,0.0225,1034,2019-08-07 16:31:39:099
-5.1176,-6.779,3.7967,-0.3524,-0.2438,0.303,-0.0048,-0.0251,0.0225,1037,2019-08-07 16:31:39:102
-5.1176,-6.779,3.7967,-0.344,-0.2383,0.2509,-0.0037,0.0249,0.0171,1043,2019-08-07 16:31:39:108
-5.1176,-6.779,3.7967,-0.344,-0.2383,0.2509,-0.0037,0.0249,0.0171,1047,2019-08-07 16:31:39:112
-5.2324,-6.7646,3.7589,-0.344,-0.2383,0.2509,0.007,0.0686,0.0118,1053,2019-08-07 16:31:39:118
-5.2324,-6.7646,3.7589,-0.344,-0.2383,0.2509,0.007,0.0686,0.0118,1058,2019-08-07 16:31:39:123
-5.3233,-6.736,3.8249,-0.2033,-0.2799,0.2334,0.0112,0.1027,0.0118,1062,2019-08-07 16:31:39:127
-5.3233,-6.736,3.8249,-0.2033,-0.2799,0.2334,0.0112,0.1027,0.0118,1068,2019-08-07 16:31:39:133
-5.529,-6.7646,3.9334,-0.2033,-0.2799,0.2334,0.0187,0.1027,0.0129,1073,2019-08-07 16:31:39:138
-5.529,-6.7646,3.9334,-0.2033,-0.2799,0.2334,0.0187,0.1027,0.0129,1078,2019-08-07 16:31:39:143
-5.529,-6.7646,3.9334,0.0728,-0.3291,0.0639,0.0197,0.0697,0.0171,1082,2019-08-07 16:31:39:147
-5.5721,-6.6739,3.9569,0.0728,-0.3291,0.0639,0.0197,0.0697,0.0171,1088,2019-08-07 16:31:39:153
-5.5721,-6.6739,3.9569,0.0728,-0.3291,0.0639,0.0197,0.0697,0.0171,1093,2019-08-07 16:31:39:158
-5.6295,-6.6882,4.0088,0.088,-0.2696,0.0671,0.0112,0.0143,0.0203,1099,2019-08-07 16:31:39:164
-5.6295,-6.6882,4.0088,0.088,-0.2696,0.0671,0.0112,0.0143,0.0203,1102,2019-08-07 16:31:39:167
-5.6295,-6.6882,4.0088,0.088,-0.2696,0.0671,0.0038,-0.0528,0.0235,1108,2019-08-07 16:31:39:173
-5.419,-6.7885,3.9381,-0.1242,-0.2178,0.1142,0.0038,-0.0528,0.0235,1113,2019-08-07 16:31:39:178
-5.419,-6.7885,3.9381,-0.1242,-0.2178,0.1142,0.0027,-0.0773,0.0214,1117,2019-08-07 16:31:39:182
-5.419,-6.7885,3.9381,-0.1242,-0.2178,0.1142,0.0027,-0.0773,0.0214,1123,2019-08-07 16:31:39:188
-5.2707,-6.7551,3.9051,-0.1242,-0.2178,0.1142,0.007,-0.0741,0.0214,1127,2019-08-07 16:31:39:192
-5.2707,-6.7551,3.9051,-0.2598,-0.2297,0.2783,0.007,-0.0741,0.0214,1133,2019-08-07 16:31:39:198
-5.2659,-6.7551,3.8108,-0.2598,-0.2297,0.2783,0.0144,-0.0454,0.0161,1139,2019-08-07 16:31:39:204
-5.2659,-6.7551,3.8108,-0.2598,-0.2297,0.2783,0.0144,-0.0454,0.0161,1142,2019-08-07 16:31:39:207
-5.2659,-6.7551,3.8108,-0.2542,-0.2286,0.2341,0.0208,-0.0177,0.0118,1148,2019-08-07 16:31:39:213
-5.3185,-6.7599,3.8155,-0.2542,-0.2286,0.2341,0.0208,-0.0177,0.0118,1153,2019-08-07 16:31:39:218
-5.3185,-6.7599,3.8155,-0.2542,-0.2286,0.2341,0.0187,0.0335,0.0054,1158,2019-08-07 16:31:39:223
-5.3759,-6.7455,3.8721,-0.2542,-0.2286,0.2341,0.0187,0.0335,0.0054,1163,2019-08-07 16:31:39:228
-5.3759,-6.7455,3.8721,-0.1085,-0.2691,0.2018,0.0144,0.0463,0.0012,1168,2019-08-07 16:31:39:233
-5.3759,-6.7455,3.8721,-0.1085,-0.2691,0.2018,0.0144,0.0463,0.0012,1173,2019-08-07 16:31:39:238
-5.5099,-6.7551,3.9239,-0.1085,-0.2691,0.2018,0.0144,0.0463,0.0012,1178,2019-08-07 16:31:39:243
-5.5099,-6.7551,3.9239,-0.1085,-0.2691,0.2018,0.007,0.0388,-0.002,1182,2019-08-07 16:31:39:247
-5.529,-6.7312,3.9946,0.0781,-0.2387,0.0993,-5.0E-4,0.009,-0.002,1188,2019-08-07 16:31:39:253
-5.529,-6.7312,3.9946,0.0781,-0.2387,0.0993,-5.0E-4,0.009,-0.002,1193,2019-08-07 16:31:39:258
-5.529,-6.7312,3.9946,0.0781,-0.2387,0.0993,-0.009,-0.0145,-0.0031,1198,2019-08-07 16:31:39:263
-5.4573,-6.7599,3.9428,0.0781,-0.2387,0.0993,-0.009,-0.0145,-0.0031,1203,2019-08-07 16:31:39:268
-5.4573,-6.7599,3.9428,-0.0707,-0.2148,0.1506,-0.009,-0.0145,-0.0031,1208,2019-08-07 16:31:39:273
-5.4573,-6.7599,3.9428,-0.0707,-0.2148,0.1506,-0.0133,-0.0283,-0.0042,1213,2019-08-07 16:31:39:278
-5.3568,-6.7694,3.8674,-0.0707,-0.2148,0.1506,-0.0133,-0.0283,-0.0042,1218,2019-08-07 16:31:39:283
-5.3568,-6.7694,3.8674,-0.2354,-0.2065,0.1803,-0.008,-0.039,0.0012,1223,2019-08-07 16:31:39:288
-5.2898,-6.7742,3.9192,-0.2354,-0.2065,0.1803,-0.008,-0.039,0.0012,1228,2019-08-07 16:31:39:293
-5.2898,-6.7742,3.9192,-0.2354,-0.2065,0.1803,-5.0E-4,-0.0304,0.0065,1233,2019-08-07 16:31:39:298
-5.2564,-6.7551,3.8626,-0.2354,-0.2065,0.1803,-5.0E-4,-0.0304,0.0065,1239,2019-08-07 16:31:39:304
-5.2564,-6.7551,3.8626,-0.2354,-0.2065,0.1803,-5.0E-4,-0.0304,0.0065,1243,2019-08-07 16:31:39:308
-5.2564,-6.7551,3.8626,-0.2906,-0.2447,0.1882,0.0016,-0.0326,0.0118,1248,2019-08-07 16:31:39:313
-5.2946,-6.7264,3.8108,-0.2906,-0.2447,0.1882,0.0016,-0.0326,0.0118,1253,2019-08-07 16:31:39:318
-5.2946,-6.7264,3.8108,-0.2906,-0.2447,0.1882,0.0133,-0.0336,0.0203,1257,2019-08-07 16:31:39:322
-5.2946,-6.7264,3.8108,-0.2762,-0.3184,0.1976,0.0133,-0.0336,0.0203,1263,2019-08-07 16:31:39:328
-5.3138,-6.7026,3.8532,-0.2762,-0.3184,0.1976,0.0283,-0.0336,0.0278,1268,2019-08-07 16:31:39:333
-5.3138,-6.7026,3.8532,-0.2762,-0.3184,0.1976,0.0283,-0.0336,0.0278,1273,2019-08-07 16:31:39:338
-5.3138,-6.7026,3.8532,-0.2762,-0.3184,0.1976,0.0283,-0.0336,0.0278,1278,2019-08-07 16:31:39:343
-5.2516,-6.7551,3.8485,-0.2762,-0.3184,0.1976,0.0368,-0.0262,0.0352,1282,2019-08-07 16:31:39:347
-5.2516,-6.7551,3.8485,-0.2828,-0.2505,0.2994,0.0368,-0.0262,0.0352,1288,2019-08-07 16:31:39:353
-5.2516,-6.7551,3.8485,-0.2828,-0.2505,0.2994,0.041,-0.0166,0.0374,1293,2019-08-07 16:31:39:358
-5.2707,-6.7694,3.7919,-0.2828,-0.2505,0.2994,0.041,-0.0166,0.0374,1298,2019-08-07 16:31:39:363
-5.2707,-6.7694,3.7919,-0.2828,-0.2505,0.2994,0.0496,-0.0059,0.0448,1303,2019-08-07 16:31:39:368
-5.2659,-6.8649,3.7872,-0.2825,-0.1189,0.2967,0.0496,-0.0059,0.0448,1308,2019-08-07 16:31:39:373
-5.2659,-6.8649,3.7872,-0.2825,-0.1189,0.2967,0.0645,0.0154,0.0491,1313,2019-08-07 16:31:39:378
-5.376,-6.9031,3.9381,-0.2825,-0.1189,0.2967,0.0645,0.0154,0.0491,1318,2019-08-07 16:31:39:383
-5.376,-6.9031,3.9381,-0.2825,-0.1189,0.2967,0.0837,0.0175,0.0544,1323,2019-08-07 16:31:39:388
-5.376,-6.9031,3.9381,-0.214,-0.1033,0.1911,0.0837,0.0175,0.0544,1328,2019-08-07 16:31:39:393
-5.4047,-6.8935,3.9522,-0.214,-0.1033,0.1911,0.0943,0.0058,0.0608,1333,2019-08-07 16:31:39:398
-5.4047,-6.8935,3.9522,-0.214,-0.1033,0.1911,0.0943,0.0058,0.0608,1338,2019-08-07 16:31:39:403
-5.4047,-6.8935,3.9522,-0.214,-0.1033,0.1911,0.0943,0.0058,0.0608,1343,2019-08-07 16:31:39:408
-5.3616,-7.0606,3.9569,-0.232,0.1162,0.0765,0.1124,-0.0038,0.0683,1348,2019-08-07 16:31:39:413
-5.3616,-7.0606,3.9569,-0.232,0.1162,0.0765,0.1124,-0.0038,0.0683,1353,2019-08-07 16:31:39:418
-5.3473,-7.1608,4.1549,-0.232,0.1162,0.0765,0.1465,-0.0251,0.0853,1358,2019-08-07 16:31:39:423
-5.3473,-7.1608,4.1549,-0.232,0.1162,0.0765,0.1465,-0.0251,0.0853,1364,2019-08-07 16:31:39:429
-5.3372,-7.6049,4.7301,-0.2736,0.5516,-0.3808,0.2008,-0.0454,0.1024,1367,2019-08-07 16:31:39:432
-5.3372,-7.6049,4.7301,-0.2736,0.5516,-0.3808,0.2008,-0.0454,0.1024,1373,2019-08-07 16:31:39:438
-5.3372,-7.6049,4.7301,-0.219,0.9915,-1.1137,0.2903,-0.072,0.1173,1378,2019-08-07 16:31:39:443
-5.3707,-8.2111,5.6493,-0.219,0.9915,-1.1137,0.2903,-0.072,0.1173,1383,2019-08-07 16:31:39:448
-5.3707,-8.2111,5.6493,-0.219,0.9915,-1.1137,0.2903,-0.072,0.1173,1388,2019-08-07 16:31:39:453
-5.3707,-8.2111,5.6493,-0.219,0.9915,-1.1137,0.4384,-0.1647,0.1269,1393,2019-08-07 16:31:39:458
-5.5525,-8.9177,6.79,0.0119,2.1956,-2.8212,0.4384,-0.1647,0.1269,1399,2019-08-07 16:31:39:464
-5.5525,-8.9177,6.79,0.0119,2.1956,-2.8212,0.5406,-0.2819,0.1258,1402,2019-08-07 16:31:39:467
-5.8299,-9.7006,8.0345,0.0119,2.1956,-2.8212,0.5406,-0.2819,0.1258,1408,2019-08-07 16:31:39:473
-5.8299,-9.7006,8.0345,0.0119,2.1956,-2.8212,0.6397,-0.4342,0.1258,1413,2019-08-07 16:31:39:478
-5.8299,-9.7006,8.0345,0.5659,3.7814,-4.3691,0.6397,-0.4342,0.1258,1418,2019-08-07 16:31:39:483
-6.1935,-10.8415,8.8688,0.5659,3.7814,-4.3691,0.6397,-0.4342,0.1301,1423,2019-08-07 16:31:39:488
-6.1935,-10.8415,8.8688,0.5659,3.7814,-4.3691,0.7803,-0.6526,0.1301,1428,2019-08-07 16:31:39:493
-6.2462,-12.4264,10.0755,0.5659,3.7814,-4.3691,1.0062,-0.806,0.1109,1434,2019-08-07 16:31:39:499
-6.2462,-12.4264,10.0755,0.7183,6.4295,-6.1404,1.0062,-0.806,0.1109,1438,2019-08-07 16:31:39:503
-6.2462,-12.4264,10.0755,0.7183,6.4295,-6.1404,1.0062,-0.806,0.1109,1444,2019-08-07 16:31:39:509
-6.1313,-14.0113,11.254,0.7183,6.4295,-6.1404,1.2885,-0.9199,0.0715,1447,2019-08-07 16:31:39:512
-6.1313,-14.0113,11.254,0.7183,6.4295,-6.1404,1.2885,-0.9199,0.0715,1453,2019-08-07 16:31:39:518
-5.5046,-16.7133,13.1961,0.1166,10.1209,-8.3232,2.0182,-1.0499,-0.067,1458,2019-08-07 16:31:39:523
-5.5046,-16.7133,13.1961,0.1166,10.1209,-8.3232,2.0182,-1.0499,-0.067,1463,2019-08-07 16:31:39:528
-5.5046,-16.7133,13.1961,0.1166,10.1209,-8.3232,2.8597,-1.133,-0.2513,1467,2019-08-07 16:31:39:532
-6.0931,-19.5776,17.6931,0.1166,10.1209,-8.3232,2.8597,-1.133,-0.2513,1473,2019-08-07 16:31:39:538
-6.0931,-19.5776,17.6931,1.5345,13.591,-14.1176,3.9175,-1.2907,-0.4399,1478,2019-08-07 16:31:39:543
-6.0931,-19.5776,17.6931,1.5345,13.591,-14.1176,3.9175,-1.2907,-0.4399,1483,2019-08-07 16:31:39:548
-8.6096,-19.3103,21.7139,1.5345,13.591,-14.1176,3.9175,-1.2907,-0.4399,1487,2019-08-07 16:31:39:552
-8.6096,-19.3103,21.7139,1.5345,13.591,-14.1176,5.1287,-1.9415,-0.6039,1493,2019-08-07 16:31:39:558
-8.6096,-19.3103,21.7139,8.4965,10.6642,-18.7023,5.1287,-1.9415,-0.6039,1498,2019-08-07 16:31:39:563
-13.4129,-16.4699,24.8958,8.4965,10.6642,-18.7023,5.1074,-2.9131,-0.5933,1503,2019-08-07 16:31:39:568
-13.4129,-16.4699,24.8958,8.4965,10.6642,-18.7023,5.1074,-2.9131,-0.5933,1507,2019-08-07 16:31:39:572
-19.8095,-15.7395,29.8547,8.4965,10.6642,-18.7023,4.7154,-4.5802,-0.5997,1513,2019-08-07 16:31:39:578
-19.8095,-15.7395,29.8547,18.1779,10.5447,-22.4384,4.7154,-4.5802,-0.5997,1518,2019-08-07 16:31:39:583
-23.2685,-15.7204,28.186,18.1779,10.5447,-22.4384,4.0954,-6.6244,-0.7243,1522,2019-08-07 16:31:39:587
-23.2685,-15.7204,28.186,18.1779,10.5447,-22.4384,4.0954,-6.6244,-0.7243,1528,2019-08-07 16:31:39:593
-23.0867,-15.2573,24.316,18.1779,10.5447,-22.4384,3.3423,-8.6815,-1.0034,1534,2019-08-07 16:31:39:599
-23.0867,-15.2573,24.316,18.832,10.3392,-14.0952,3.3423,-8.6815,-1.0034,1538,2019-08-07 16:31:39:603
-23.0867,-15.2573,24.316,18.832,10.3392,-14.0952,3.3423,-8.6815,-1.0034,1543,2019-08-07 16:31:39:608
-19.7138,-14.3646,19.2109,18.832,10.3392,-14.0952,2.7127,-10.2975,-1.4231,1548,2019-08-07 16:31:39:613
-19.7138,-14.3646,19.2109,18.832,10.3392,-14.0952,2.4879,-10.6426,-1.7235,1553,2019-08-07 16:31:39:618
-19.7138,-14.3646,19.2109,18.832,10.3392,-14.0952,2.4879,-10.6426,-1.7235,1558,2019-08-07 16:31:39:623
-15.6759,-11.9825,15.3456,14.5378,7.6611,-6.6125,2.4879,-10.6426,-1.7235,1563,2019-08-07 16:31:39:628
-15.6759,-11.9825,15.3456,14.5378,7.6611,-6.6125,2.2696,-10.3944,-1.8524,1568,2019-08-07 16:31:39:633
-15.6759,-11.9825,15.3456,14.5378,7.6611,-6.6125,2.2696,-10.3944,-1.8524,1572,2019-08-07 16:31:39:637
-11.2217,-9.0275,12.9133,14.5378,7.6611,-6.6125,1.9766,-9.5102,-1.7544,1578,2019-08-07 16:31:39:643
-11.2217,-9.0275,12.9133,10.8451,4.3418,-3.4811,1.9766,-9.5102,-1.7544,1583,2019-08-07 16:31:39:648
-9.131,-7.6287,11.2917,10.8451,4.3418,-3.4811,1.9766,-9.5102,-1.7544,1587,2019-08-07 16:31:39:652
-9.131,-7.6287,11.2917,10.8451,4.3418,-3.4811,1.6624,-8.1158,-1.4103,1593,2019-08-07 16:31:39:658
-9.131,-7.6287,11.2917,10.8451,4.3418,-3.4811,1.6624,-8.1158,-1.4103,1597,2019-08-07 16:31:39:662
-7.1982,-6.3112,8.3927,9.535,2.6988,0.4235,1.3897,-6.8172,-1.111,1603,2019-08-07 16:31:39:668
-7.1982,-6.3112,8.3927,9.535,2.6988,0.4235,1.3897,-6.8172,-1.111,1608,2019-08-07 16:31:39:673
-7.8632,-4.7692,5.951,10.7641,1.2928,2.7516,1.3023,-5.4313,-0.801,1613,2019-08-07 16:31:39:678
-7.8632,-4.7692,5.951,10.7641,1.2928,2.7516,1.3023,-5.4313,-0.801,1619,2019-08-07 16:31:39:684
-7.8632,-4.7692,5.951,10.7641,1.2928,2.7516,1.1297,-4.2446,-0.4186,1622,2019-08-07 16:31:39:687
-12.1594,-0.3248,3.6318,10.7641,1.2928,2.7516,1.1297,-4.2446,-0.4186,1628,2019-08-07 16:31:39:693
-12.1594,-0.3248,3.6318,18.4055,-4.0896,4.5623,1.069,-4.0049,-0.0329,1633,2019-08-07 16:31:39:698
-18.4124,1.6802,4.4614,18.4055,-4.0896,4.5623,1.069,-4.0049,-0.0329,1639,2019-08-07 16:31:39:704
-18.4124,1.6802,4.4614,18.4055,-4.0896,4.5623,1.069,-4.0049,-0.0329,1642,2019-08-07 16:31:39:707
-22.1776,3.184,4.1503,18.4055,-4.0896,4.5623,1.0253,-4.8976,0.3431,1648,2019-08-07 16:31:39:713
-22.1776,3.184,4.1503,26.972,-6.5236,5.1213,1.0253,-4.8976,0.3431,1653,2019-08-07 16:31:39:718
-22.1776,3.184,4.1503,26.972,-6.5236,5.1213,0.8933,-7.1794,0.7074,1658,2019-08-07 16:31:39:723
-20.8428,3.8953,-2.4443,25.7078,-6.9288,10.4046,0.8933,-7.1794,0.7074,1663,2019-08-07 16:31:39:728
-20.8428,3.8953,-2.4443,25.7078,-6.9288,10.4046,0.6088,-8.6175,0.798,1668,2019-08-07 16:31:39:733
-20.8428,3.8953,-2.4443,25.7078,-6.9288,10.4046,0.6088,-8.6175,0.798,1672,2019-08-07 16:31:39:737
-9.9778,2.3963,-9.746,25.7078,-6.9288,10.4046,0.2562,-10.2421,0.7298,1678,2019-08-07 16:31:39:743
-9.9778,2.3963,-9.746,13.4628,-5.1169,18.9967,0.2562,-10.2421,0.7298,1684,2019-08-07 16:31:39:749
-9.9778,2.3963,-9.746,13.4628,-5.1169,18.9967,0.2562,-10.2421,0.7298,1687,2019-08-07 16:31:39:752
-0.9164,1.9619,-10.2881,13.4628,-5.1169,18.9967,0.0613,-11.5097,0.3708,1693,2019-08-07 16:31:39:758
-0.9164,1.9619,-10.2881,13.4628,-5.1169,18.9967,0.0613,-11.5097,0.3708,1698,2019-08-07 16:31:39:763
1.624,4.0289,-11.6598,8.1201,-6.9005,10.8817,0.3904,-9.67,0.1407,1703,2019-08-07 16:31:39:768
1.624,4.0289,-11.6598,8.1201,-6.9005,10.8817,0.3904,-9.67,0.1407,1708,2019-08-07 16:31:39:773
1.624,4.0289,-11.6598,8.1201,-6.9005,10.8817,0.856,-6.0875,0.0416,1713,2019-08-07 16:31:39:778
1.3848,5.5565,-17.01,8.1201,-6.9005,10.8817,0.856,-6.0875,0.0416,1718,2019-08-07 16:31:39:783
1.3848,5.5565,-17.01,6.8176,-8.7455,21.4097,1.0115,-1.3769,-0.067,1723,2019-08-07 16:31:39:788
1.3848,5.5565,-17.01,6.8176,-8.7455,21.4097,1.0115,-1.3769,-0.067,1728,2019-08-07 16:31:39:793
-2.5909,5.1317,-8.9871,6.8176,-8.7455,21.4097,0.4437,0.5491,-0.0862,1733,2019-08-07 16:31:39:798
-2.5909,5.1317,-8.9871,6.8176,-8.7455,21.4097,0.4437,0.5491,-0.0862,1737,2019-08-07 16:31:39:802
-4.5525,4.0098,-9.2793,11.9451,-7.171,11.0289,-0.2114,-1.2118,-0.1395,1743,2019-08-07 16:31:39:808
-4.5525,4.0098,-9.2793,11.9451,-7.171,11.0289,-0.2114,-1.2118,-0.1395,1748,2019-08-07 16:31:39:813
-4.5525,4.0098,-9.2793,11.9451,-7.171,11.0289,-0.8857,-2.83,-0.1384,1753,2019-08-07 16:31:39:818
-1.2752,1.8377,-4.1413,11.9451,-7.171,11.0289,-0.8857,-2.83,-0.1384,1758,2019-08-07 16:31:39:823
-1.2752,1.8377,-4.1413,8.1745,-4.3096,9.4314,-0.8857,-2.83,-0.1384,1763,2019-08-07 16:31:39:828
-1.2752,1.8377,-4.1413,8.1745,-4.3096,9.4314,-1.1137,-4.4066,-0.36,1768,2019-08-07 16:31:39:833
3.2985,0.5154,-4.41,8.1745,-4.3096,9.4314,-1.1137,-4.4066,-0.36,1772,2019-08-07 16:31:39:837
3.2985,0.5154,-4.41,8.1745,-4.3096,9.4314,-1.0881,-3.304,-0.3972,1778,2019-08-07 16:31:39:843
10.4031,-0.3869,-8.247,-1.5217,-2.5338,11.2181,-1.0881,-3.304,-0.3972,1784,2019-08-07 16:31:39:849
10.4031,-0.3869,-8.247,-1.5217,-2.5338,11.2181,-1.0881,-3.304,-0.3972,1788,2019-08-07 16:31:39:853
10.4031,-0.3869,-8.247,-1.5217,-2.5338,11.2181,-0.939,-2.2696,-0.4463,1792,2019-08-07 16:31:39:857
11.7762,0.2146,-7.9076,-1.5217,-2.5338,11.2181,-1.005,-1.2917,-0.149,1798,2019-08-07 16:31:39:863
11.7762,0.2146,-7.9076,-2.9603,-2.9369,12.0466,-1.005,-1.2917,-0.149,1803,2019-08-07 16:31:39:868
11.6422,-0.4728,-10.4719,-2.9603,-2.9369,12.0466,-1.005,-1.2917,-0.149,1808,2019-08-07 16:31:39:873
11.6422,-0.4728,-10.4719,-2.9603,-2.9369,12.0466,-1.1851,0.0771,0.1194,1813,2019-08-07 16:31:39:878
11.6422,-0.4728,-10.4719,-2.9603,-2.9369,12.0466,-1.1851,0.0771,0.1194,1819,2019-08-07 16:31:39:884
9.7859,-2.8454,-9.1662,-0.1449,0.1328,10.25,-1.3875,1.3395,0.1194,1822,2019-08-07 16:31:39:887
9.7859,-2.8454,-9.1662,-0.1449,0.1328,10.25,-1.3875,1.3395,0.1194,1828,2019-08-07 16:31:39:893
8.2215,-2.9456,5.8379,-0.1449,0.1328,10.25,-1.4397,1.3491,0.0257,1833,2019-08-07 16:31:39:898
8.2215,-2.9456,5.8379,-0.1449,0.1328,10.25,-1.4397,1.3491,0.0257,1838,2019-08-07 16:31:39:903
8.2215,-2.9456,5.8379,-0.1449,0.1328,10.25,-1.4397,1.3491,0.0257,1843,2019-08-07 16:31:39:908
5.217,-3.0745,-3.8962,3.7847,0.0275,6.3296,-0.612,-0.0795,0.1769,1848,2019-08-07 16:31:39:913
5.217,-3.0745,-3.8962,3.7847,0.0275,6.3296,-0.612,-0.0795,0.1769,1853,2019-08-07 16:31:39:918
9.5276,-2.8454,-3.783,3.7847,0.0275,6.3296,-0.1145,0.1208,0.0139,1858,2019-08-07 16:31:39:923
9.5276,-2.8454,-3.783,-0.2589,-1.0572,7.2082,-0.1145,0.1208,0.0139,1863,2019-08-07 16:31:39:928
9.5276,-2.8454,-3.783,-0.2589,-1.0572,7.2082,-0.2242,-0.0581,-0.0947,1868,2019-08-07 16:31:39:933
9.8338,-1.4514,-5.909,-0.2589,-1.0572,7.2082,-0.2242,-0.0581,-0.0947,1873,2019-08-07 16:31:39:938
9.8338,-1.4514,-5.909,-0.2589,-1.0572,7.2082,-0.2871,0.483,0.015,1878,2019-08-07 16:31:39:943
11.2451,-1.8954,-5.8665,-2.3413,-1.02,8.2074,-0.2871,0.483,0.015,1883,2019-08-07 16:31:39:948
11.2451,-1.8954,-5.8665,-2.3413,-1.02,8.2074,-0.2157,1.4535,0.113,1888,2019-08-07 16:31:39:953
11.2451,-1.8954,-5.8665,-2.3413,-1.02,8.2074,-0.2157,1.4535,0.113,1893,2019-08-07 16:31:39:958
10.7619,-2.4157,-5.2207,-1.7869,-0.6798,7.691,-0.2157,1.4535,0.113,1898,2019-08-07 16:31:39:963
10.7619,-2.4157,-5.2207,-1.7869,-0.6798,7.691,-0.1092,2.1523,0.1652,1903,2019-08-07 16:31:39:968
10.7619,-2.4157,-5.2207,-1.7869,-0.6798,7.691,-0.1092,2.1523,0.1652,1908,2019-08-07 16:31:39:973
8.8961,-1.924,-0.3702,-1.7869,-0.6798,7.691,0.0101,2.4378,0.2334,1913,2019-08-07 16:31:39:978
8.8961,-1.924,-0.3702,1.0499,-1.2764,4.2085,0.0101,2.4378,0.2334,1918,2019-08-07 16:31:39:983
6.4753,-1.714,-0.2147,1.0499,-1.2764,4.2085,0.2402,2.4165,0.2472,1923,2019-08-07 16:31:39:988
6.4753,-1.714,-0.2147,1.0499,-1.2764,4.2085,0.2402,2.4165,0.2472,1928,2019-08-07 16:31:39:993
6.4753,-1.714,-0.2147,3.8689,-1.992,3.2432,0.3521,2.1139,0.2259,1934,2019-08-07 16:31:39:999
4.6525,-1.0313,0.087,3.8689,-1.992,3.2432,0.3521,2.1139,0.2259,1938,2019-08-07 16:31:40:003
4.6525,-1.0313,0.087,3.8689,-1.992,3.2432,0.4426,1.8402,0.2685,1943,2019-08-07 16:31:40:008
4.5951,-0.573,0.483,3.8689,-1.992,3.2432,0.4426,1.8402,0.2685,1949,2019-08-07 16:31:40:014
4.5951,-0.573,0.483,3.8689,-1.992,3.2432,0.4426,1.8402,0.2685,1953,2019-08-07 16:31:40:018
4.5951,-0.573,0.483,3.6637,-2.8501,3.8688,0.4991,1.6122,0.2984,1958,2019-08-07 16:31:40:023
5.1166,-0.067,-0.8133,3.6637,-2.8501,3.8688,0.4991,1.6122,0.2984,1963,2019-08-07 16:31:40:028
5.1166,-0.067,-0.8133,3.6637,-2.8501,3.8688,0.4373,1.7805,0.2845,1968,2019-08-07 16:31:40:033
5.1166,-0.067,-0.8133,3.6637,-2.8501,3.8688,0.4373,1.7805,0.2845,1974,2019-08-07 16:31:40:039
5.15,0.735,-2.0908,3.3026,-3.8853,5.9461,0.2967,2.1981,0.2845,1978,2019-08-07 16:31:40:043
5.15,0.735,-2.0908,3.3026,-3.8853,5.9461,0.2967,2.1981,0.2845,1984,2019-08-07 16:31:40:049
5.15,0.735,-2.0908,3.3026,-3.8853,5.9461,0.2967,2.1981,0.2845,1988,2019-08-07 16:31:40:053
3.9157,1.0882,-3.5662,3.3026,-3.8853,5.9461,0.0048,3.1952,0.3687,1993,2019-08-07 16:31:40:058
3.9157,1.0882,-3.5662,4.7224,-4.2594,8.1747,0.0048,3.1952,0.3687,1998,2019-08-07 16:31:40:063
2.6957,0.9546,-4.1318,4.7224,-4.2594,8.1747,-0.2274,3.9632,0.4145,2003,2019-08-07 16:31:40:068
2.6957,0.9546,-4.1318,4.7224,-4.2594,8.1747,-0.2274,3.9632,0.4145,2008,2019-08-07 16:31:40:073
2.6957,0.9546,-4.1318,4.7224,-4.2594,8.1747,-0.4767,4.6727,0.423,2014,2019-08-07 16:31:40:079
0.9256,0.6777,-3.5615,6.9372,-3.9348,8.4403,-0.4767,4.6727,0.423,2019,2019-08-07 16:31:40:084
0.9256,0.6777,-3.5615,6.9372,-3.9348,8.4403,-0.743,5.3481,0.4219,2022,2019-08-07 16:31:40:087
-0.9068,0.3578,-2.4207,6.9372,-3.9348,8.4403,-0.743,5.3481,0.4219,2028,2019-08-07 16:31:40:093
-0.9068,0.3578,-2.4207,6.9372,-3.9348,8.4403,-0.8367,5.6325,0.4241,2033,2019-08-07 16:31:40:098
-0.9068,0.3578,-2.4207,9.033,-3.4596,7.4707,-0.8367,5.6325,0.4241,2038,2019-08-07 16:31:40:103
-2.2081,-0.2293,-1.6005,9.033,-3.4596,7.4707,-0.8367,5.6325,0.4241,2043,2019-08-07 16:31:40:108
-2.2081,-0.2293,-1.6005,9.033,-3.4596,7.4707,-0.9763,5.869,0.4411,2048,2019-08-07 16:31:40:113
-2.2081,-0.2293,-1.6005,9.033,-3.4596,7.4707,-0.9763,5.869,0.4411,2052,2019-08-07 16:31:40:117
-3.1745,-0.9454,0.3086,9.6848,-2.686,6.0684,-1.0924,5.869,0.4837,2058,2019-08-07 16:31:40:123
-3.1745,-0.9454,0.3086,9.6848,-2.686,6.0684,-1.0924,5.869,0.4837,2063,2019-08-07 16:31:40:128
-3.9543,-1.1984,1.3315,9.6848,-2.686,6.0684,-1.1435,5.7976,0.5519,2068,2019-08-07 16:31:40:133
-3.9543,-1.1984,1.3315,9.6848,-2.686,6.0684,-1.1435,5.7976,0.5519,2073,2019-08-07 16:31:40:138
-3.9543,-1.1984,1.3315,9.9023,-2.5951,5.4936,-1.2224,5.7071,0.6531,2078,2019-08-07 16:31:40:143
-4.4567,-1.4944,1.6991,9.9023,-2.5951,5.4936,-1.2224,5.7071,0.6531,2084,2019-08-07 16:31:40:149
-4.4567,-1.4944,1.6991,9.9023,-2.5951,5.4936,-1.4045,5.6005,0.8331,2087,2019-08-07 16:31:40:152
-4.4567,-1.4944,1.6991,9.9023,-2.5951,5.4936,-1.4045,5.6005,0.8331,2093,2019-08-07 16:31:40:158
-4.7198,-2.1245,1.1759,9.3716,-2.071,6.3735,-1.4045,5.6005,0.8331,2098,2019-08-07 16:31:40:163
-4.7198,-2.1245,1.1759,9.3716,-2.071,6.3735,-1.5739,5.755,0.9929,2103,2019-08-07 16:31:40:168
-4.7198,-2.1245,1.1759,9.3716,-2.071,6.3735,-1.5739,5.755,0.9929,2107,2019-08-07 16:31:40:172
-5.0451,-2.5255,1.982,9.3716,-2.071,6.3735,-1.7507,6.179,1.1271,2113,2019-08-07 16:31:40:178
-5.0451,-2.5255,1.982,9.0494,-1.7957,4.4113,-1.7507,6.179,1.1271,2118,2019-08-07 16:31:40:183
-5.0451,-2.5255,1.982,9.0494,-1.7957,4.4113,-1.968,6.7521,1.2624,2123,2019-08-07 16:31:40:188
-6.222,-3.3275,4.9423,9.0494,-1.7957,4.4113,-1.968,6.7521,1.2624,2128,2019-08-07 16:31:40:193
-6.222,-3.3275,4.9423,9.3658,-1.2045,2.4493,-2.0874,7.0525,1.3349,2133,2019-08-07 16:31:40:198
-7.643,-4.8695,8.3268,9.3658,-1.2045,2.4493,-2.0874,7.0525,1.3349,2138,2019-08-07 16:31:40:203
-7.643,-4.8695,8.3268,9.3658,-1.2045,2.4493,-2.0874,7.0525,1.3349,2143,2019-08-07 16:31:40:208
-7.643,-4.8695,8.3268,10.3174,0.8894,-1.1509,-2.1119,7.0908,1.3423,2147,2019-08-07 16:31:40:212
-8.9873,-6.4019,9.3167,10.3174,0.8894,-1.1509,-2.1119,7.0908,1.3423,2153,2019-08-07 16:31:40:218
-8.9873,-6.4019,9.3167,10.3174,0.8894,-1.1509,-2.244,6.7563,1.2113,2157,2019-08-07 16:31:40:222
-10.059,-6.8268,9.4817,10.3174,0.8894,-1.1509,-2.244,6.7563,1.2113,2163,2019-08-07 16:31:40:228
-10.059,-6.8268,9.4817,10.7611,1.4145,-1.2424,-2.244,6.7563,1.2113,2168,2019-08-07 16:31:40:233
-10.059,-6.8268,9.4817,10.7611,1.4145,-1.2424,-2.5348,6.1854,1.1367,2173,2019-08-07 16:31:40:238
-10.3748,-7.8197,9.1281,10.7611,1.4145,-1.2424,-2.5348,6.1854,1.1367,2178,2019-08-07 16:31:40:243
-10.3748,-7.8197,9.1281,10.7611,1.4145,-1.2424,-2.7276,5.7901,1.1463,2183,2019-08-07 16:31:40:248
-10.3748,-7.8197,9.1281,8.763,3.7565,-3.4237,-2.7276,5.7901,1.1463,2188,2019-08-07 16:31:40:253
-9.4562,-10.4883,11.6406,8.763,3.7565,-3.4237,-2.7745,5.2746,1.2124,2193,2019-08-07 16:31:40:258
-9.4562,-10.4883,11.6406,8.763,3.7565,-3.4237,-2.7745,5.2746,1.2124,2198,2019-08-07 16:31:40:263
-9.0352,-13.9541,13.3328,8.763,3.7565,-3.4237,-2.5262,5.0455,1.2092,2203,2019-08-07 16:31:40:268
-9.0352,-13.9541,13.3328,7.5124,8.5182,-6.6496,-2.5262,5.0455,1.2092,2208,2019-08-07 16:31:40:273
-9.0352,-13.9541,13.3328,7.5124,8.5182,-6.6496,-2.2951,4.8687,1.1463,2213,2019-08-07 16:31:40:278
-10.2312,-15.3814,14.9025,7.5124,8.5182,-6.6496,-2.2951,4.8687,1.1463,2218,2019-08-07 16:31:40:283
-10.2312,-15.3814,14.9025,7.5124,8.5182,-6.6496,-2.1598,4.4799,1.0675,2223,2019-08-07 16:31:40:288
-10.2312,-15.3814,14.9025,7.5124,8.5182,-6.6496,-2.1598,4.4799,1.0675,2227,2019-08-07 16:31:40:292
-11.5421,-13.744,15.7982,8.8777,7.1008,-9.0896,-2.1726,4.0506,1.0409,2234,2019-08-07 16:31:40:299
-11.5421,-13.744,15.7982,8.8777,7.1008,-9.0896,-2.1726,4.0506,1.0409,2237,2019-08-07 16:31:40:302
-11.5421,-13.744,15.7982,8.8777,7.1008,-9.0896,-2.1726,4.0506,1.0409,2243,2019-08-07 16:31:40:308
-11.9727,-10.8702,14.7847,8.3542,3.5305,-7.7642,-2.3505,3.1131,1.0813,2248,2019-08-07 16:31:40:313
-11.9727,-10.8702,14.7847,8.3542,3.5305,-7.7642,-2.3505,3.1131,1.0813,2252,2019-08-07 16:31:40:317
-11.9727,-10.8702,14.7847,8.3542,3.5305,-7.7642,-2.5582,2.3025,1.1911,2258,2019-08-07 16:31:40:323
-10.3317,-10.5121,11.749,8.3542,3.5305,-7.7642,-2.5582,2.3025,1.1911,2263,2019-08-07 16:31:40:328
-10.3317,-10.5121,11.749,4.3297,4.7837,-4.3599,-2.6168,2.2205,1.2582,2268,2019-08-07 16:31:40:333
-6.8535,-13.0089,9.5948,4.3297,4.7837,-4.3599,-2.6168,2.2205,1.2582,2273,2019-08-07 16:31:40:338
-6.8535,-13.0089,9.5948,4.3297,4.7837,-4.3599,-2.6168,2.2205,1.2582,2278,2019-08-07 16:31:40:343
-6.8535,-13.0089,9.5948,1.7228,7.161,-3.9867,-2.4155,2.5794,1.2145,2284,2019-08-07 16:31:40:349
-4.4662,-16.4269,9.4675,1.7228,7.161,-3.9867,-2.4155,2.5794,1.2145,2288,2019-08-07 16:31:40:353
-4.4662,-16.4269,9.4675,1.7228,7.161,-3.9867,-2.4155,2.5794,1.2145,2293,2019-08-07 16:31:40:358
-4.4662,-16.4269,9.4675,0.1788,11.7688,-5.5988,-1.7923,3.3645,1.0387,2298,2019-08-07 16:31:40:363
-4.8489,-19.3771,10.7638,0.1788,11.7688,-5.5988,-1.7923,3.3645,1.0387,2302,2019-08-07 16:31:40:367
-4.8489,-19.3771,10.7638,0.1788,11.7688,-5.5988,-0.9337,4.2178,0.7767,2308,2019-08-07 16:31:40:373
-4.8489,-19.3771,10.7638,1.2854,12.1392,-7.5388,-0.9337,4.2178,0.7767,2314,2019-08-07 16:31:40:379
-7.1597,-18.599,12.7483,1.2854,12.1392,-7.5388,-0.286,4.4564,0.4464,2318,2019-08-07 16:31:40:383
-7.1597,-18.599,12.7483,1.2854,12.1392,-7.5388,-0.286,4.4564,0.4464,2322,2019-08-07 16:31:40:387
-10.4608,-15.3146,13.7194,1.2854,12.1392,-7.5388,0.2008,3.7395,0.1183,2328,2019-08-07 16:31:40:393
-10.4608,-15.3146,13.7194,5.9466,7.4443,-9.6261,0.2008,3.7395,0.1183,2333,2019-08-07 16:31:40:398
-10.4608,-15.3146,13.7194,5.9466,7.4443,-9.6261,0.2956,2.4122,0.0022,2337,2019-08-07 16:31:40:402
-12.231,-12.7463,13.9645,5.9466,7.4443,-9.6261,0.2956,2.4122,0.0022,2343,2019-08-07 16:31:40:408
-12.231,-12.7463,13.9645,5.9466,7.4443,-9.6261,0.2956,2.4122,0.0022,2349,2019-08-07 16:31:40:414
-10.6378,-11.2998,13.6817,5.872,4.2902,-10.0403,0.3638,0.4702,-0.1054,2352,2019-08-07 16:31:40:417
-10.6378,-11.2998,13.6817,5.872,4.2902,-10.0403,0.3638,0.4702,-0.1054,2358,2019-08-07 16:31:40:423
-7.1323,-10.5502,10.8437,5.872,4.2902,-10.0403,0.4469,-0.7889,-0.2279,2363,2019-08-07 16:31:40:428
-7.1323,-10.5502,10.8437,5.872,4.2902,-10.0403,0.4469,-0.7889,-0.2279,2368,2019-08-07 16:31:40:433
-7.1323,-10.5502,10.8437,0.578,3.1497,-5.6171,0.4043,-1.5133,-0.3749,2373,2019-08-07 16:31:40:438
-4.4914,-10.2638,8.7225,0.578,3.1497,-5.6171,0.4043,-1.5133,-0.3749,2378,2019-08-07 16:31:40:443
-4.4914,-10.2638,8.7225,0.578,3.1497,-5.6171,0.3223,-1.4856,-0.4718,2383,2019-08-07 16:31:40:448
-4.4914,-10.2638,8.7225,0.578,3.1497,-5.6171,0.3223,-1.4856,-0.4718,2387,2019-08-07 16:31:40:452
-2.0324,-9.7673,6.2854,-2.969,2.5141,-1.9711,0.3223,-1.4856,-0.4718,2393,2019-08-07 16:31:40:458
-2.0324,-9.7673,6.2854,-2.969,2.5141,-1.9711,0.2839,-1.0733,-0.5219,2398,2019-08-07 16:31:40:463
-1.2621,-9.2613,4.9043,-2.969,2.5141,-1.9711,0.2839,-1.0733,-0.5219,2402,2019-08-07 16:31:40:467
-1.2621,-9.2613,4.9043,-2.969,2.5141,-1.9711,0.2839,-1.0733,-0.5219,2408,2019-08-07 16:31:40:473
-1.3769,-8.254,4.3857,-3.5579,1.1756,-0.0167,0.2861,-0.284,-0.5017,2413,2019-08-07 16:31:40:478
-1.3769,-8.254,4.3857,-3.5579,1.1756,-0.0167,0.2861,-0.284,-0.5017,2418,2019-08-07 16:31:40:483
-1.3769,-8.254,4.3857,-3.5579,1.1756,-0.0167,0.188,0.5693,-0.3536,2423,2019-08-07 16:31:40:488
-2.5539,-7.1035,4.2726,-3.5579,1.1756,-0.0167,0.188,0.5693,-0.3536,2428,2019-08-07 16:31:40:493
-2.5539,-7.1035,4.2726,-1.7682,-0.351,0.1626,0.0655,0.8569,-0.2194,2433,2019-08-07 16:31:40:498
-3.9174,-6.7837,4.4989,-1.7682,-0.351,0.1626,0.0655,0.8569,-0.2194,2438,2019-08-07 16:31:40:503
-3.9174,-6.7837,4.4989,-1.7682,-0.351,0.1626,-0.0719,0.8708,-0.1469,2443,2019-08-07 16:31:40:508
-3.9174,-6.7837,4.4989,-1.7682,-0.351,0.1626,-0.0719,0.8708,-0.1469,2448,2019-08-07 16:31:40:513
-5.2235,-6.5641,4.612,0.3646,-0.7758,-0.2815,-0.237,0.5086,-0.0724,2453,2019-08-07 16:31:40:518
-5.2235,-6.5641,4.612,0.3646,-0.7758,-0.2815,-0.237,0.5086,-0.0724,2458,2019-08-07 16:31:40:523
-5.4436,-6.3063,4.0652,0.3646,-0.7758,-0.2815,-0.3648,0.1432,-0.0265,2463,2019-08-07 16:31:40:528
-5.4436,-6.3063,4.0652,0.3646,-0.7758,-0.2815,-0.3648,0.1432,-0.0265,2468,2019-08-07 16:31:40:533
-5.4436,-6.3063,4.0652,0.2915,-1.1604,0.5164,-0.4596,-0.1221,0.015,2473,2019-08-07 16:31:40:538
-4.8695,-6.3683,3.4665,0.2915,-1.1604,0.5164,-0.4596,-0.1221,0.015,2478,2019-08-07 16:31:40:543
-4.8695,-6.3683,3.4665,0.2915,-1.1604,0.5164,-0.5012,-0.187,0.0257,2483,2019-08-07 16:31:40:548
-4.8695,-6.3683,3.4665,0.2915,-1.1604,0.5164,-0.5012,-0.187,0.0257,2488,2019-08-07 16:31:40:553
-4.1327,-6.7502,3.1319,0.2915,-1.1604,0.5164,-0.5012,-0.187,0.0257,2493,2019-08-07 16:31:40:558
-4.1327,-6.7502,3.1319,-0.8483,-0.6229,1.1019,-0.4969,-0.1231,0.0225,2498,2019-08-07 16:31:40:563
-3.9988,-6.8123,2.9999,-0.8483,-0.6229,1.1019,-0.4969,-0.1231,0.0225,2503,2019-08-07 16:31:40:568
-3.9988,-6.8123,2.9999,-0.8483,-0.6229,1.1019,-0.4532,0.1698,0.0161,2508,2019-08-07 16:31:40:573
-3.9988,-6.8123,2.9999,-0.4419,-0.8174,0.9223,-0.4532,0.1698,0.0161,2513,2019-08-07 16:31:40:578
-4.6256,-6.5306,3.3015,-0.4419,-0.8174,0.9223,-0.3936,0.3083,0.0267,2518,2019-08-07 16:31:40:583
-4.6256,-6.5306,3.3015,-0.4419,-0.8174,0.9223,-0.3936,0.3083,0.0267,2523,2019-08-07 16:31:40:588
-5.6063,-6.4352,4.0275,-0.4419,-0.8174,0.9223,-0.3574,0.2774,0.0597,2528,2019-08-07 16:31:40:593
-5.6063,-6.4352,4.0275,1.0097,-1.0603,-0.2907,-0.3574,0.2774,0.0597,2533,2019-08-07 16:31:40:598
-5.6063,-6.4352,4.0275,1.0097,-1.0603,-0.2907,-0.3542,0.0463,0.0842,2538,2019-08-07 16:31:40:603
-6.2235,-6.354,4.447,1.0097,-1.0603,-0.2907,-0.3542,0.0463,0.0842,2543,2019-08-07 16:31:40:608
-6.2235,-6.354,4.447,1.0097,-1.0603,-0.2907,-0.3701,-0.2797,0.1055,2549,2019-08-07 16:31:40:614
-6.2235,-6.354,4.447,1.3839,-1.1384,-0.3953,-0.3701,-0.2797,0.1055,2553,2019-08-07 16:31:40:618
-6.3192,-6.3445,4.381,1.3839,-1.1384,-0.3953,-0.3755,-0.5972,0.1183,2558,2019-08-07 16:31:40:623
-6.3192,-6.3445,4.381,1.3839,-1.1384,-0.3953,-0.3755,-0.5972,0.1183,2563,2019-08-07 16:31:40:628
-5.6255,-6.755,3.5938,1.3839,-1.1384,-0.3953,-0.3776,-0.7942,0.1258,2568,2019-08-07 16:31:40:633
-5.6255,-6.755,3.5938,0.1817,-0.3648,0.8423,-0.3776,-0.7942,0.1258,2573,2019-08-07 16:31:40:638
-4.9127,-7.1512,3.08,0.1817,-0.3648,0.8423,-0.3776,-0.7942,0.1258,2577,2019-08-07 16:31:40:642
-4.9127,-7.1512,3.08,0.1817,-0.3648,0.8423,-0.3414,-0.8028,0.1098,2583,2019-08-07 16:31:40:648
-4.9127,-7.1512,3.08,0.1817,-0.3648,0.8423,-0.3414,-0.8028,0.1098,2588,2019-08-07 16:31:40:653
-4.0132,-7.5665,2.486,-0.9298,0.125,1.6607,-0.2721,-0.6174,0.0906,2593,2019-08-07 16:31:40:658
-4.0132,-7.5665,2.486,-0.9298,0.125,1.6607,-0.2721,-0.6174,0.0906,2598,2019-08-07 16:31:40:663
-3.8554,-7.6,2.1985,-0.9298,0.125,1.6607,-0.1848,-0.3287,0.0832,2602,2019-08-07 16:31:40:667
-3.8554,-7.6,2.1985,-0.9298,0.125,1.6607,-0.1848,-0.3287,0.0832,2608,2019-08-07 16:31:40:673
-3.8554,-7.6,2.1985,-0.8589,-0.08,1.5045,-0.1124,-0.0635,0.081,2613,2019-08-07 16:31:40:678
-4.0707,-7.4138,2.6086,-0.8589,-0.08,1.5045,-0.1124,-0.0635,0.081,2619,2019-08-07 16:31:40:684
-4.0707,-7.4138,2.6086,-0.8589,-0.08,1.5045,-0.1124,-0.0635,0.081,2622,2019-08-07 16:31:40:687
-4.0707,-7.4138,2.6086,-0.8589,-0.08,1.5045,6.0E-4,0.3669,0.0917,2628,2019-08-07 16:31:40:693
-4.5922,-7.2419,2.9763,0.0819,-0.2661,0.673,6.0E-4,0.3669,0.0917,2633,2019-08-07 16:31:40:698
-4.5922,-7.2419,2.9763,0.0819,-0.2661,0.673,0.0464,0.466,0.113,2638,2019-08-07 16:31:40:703
-4.5922,-7.2419,2.9763,0.0819,-0.2661,0.673,0.0464,0.466,0.113,2643,2019-08-07 16:31:40:708
-5.4725,-7.2658,3.6692,0.7365,-0.2476,0.1158,0.0634,0.4361,0.1247,2648,2019-08-07 16:31:40:713
-5.4725,-7.2658,3.6692,0.7365,-0.2476,0.1158,0.0634,0.4361,0.1247,2653,2019-08-07 16:31:40:718
-5.4725,-7.2658,3.6692,0.7365,-0.2476,0.1158,0.0794,0.1347,0.1439,2658,2019-08-07 16:31:40:723
-6.1949,-7.1321,4.4375,0.7365,-0.2476,0.1158,0.0794,0.1347,0.1439,2663,2019-08-07 16:31:40:728
-6.1949,-7.1321,4.4375,1.2173,-0.4467,-0.5766,0.0389,-0.235,0.1545,2668,2019-08-07 16:31:40:733
-5.994,-6.9698,4.3904,1.2173,-0.4467,-0.5766,0.0389,-0.235,0.1545,2673,2019-08-07 16:31:40:738
-5.994,-6.9698,4.3904,1.2173,-0.4467,-0.5766,0.0389,-0.235,0.1545,2678,2019-08-07 16:31:40:743
-5.994,-6.9698,4.3904,0.4587,-0.3298,-0.1341,-0.0229,-0.4874,0.1471,2683,2019-08-07 16:31:40:748
-5.2285,-7.156,4.0227,0.4587,-0.3298,-0.1341,-0.0229,-0.4874,0.1471,2688,2019-08-07 16:31:40:753
-5.2285,-7.156,4.0227,0.4587,-0.3298,-0.1341,-0.0879,-0.6185,0.1034,2693,2019-08-07 16:31:40:758
-5.2285,-7.156,4.0227,0.4587,-0.3298,-0.1341,-0.0879,-0.6185,0.1034,2698,2019-08-07 16:31:40:763
-4.4248,-7.366,3.622,0.4587,-0.3298,-0.1341,-0.0879,-0.6185,0.1034,2704,2019-08-07 16:31:40:769
-4.4248,-7.366,3.622,-0.6079,-0.0318,0.3925,-0.1209,-0.5162,0.0448,2708,2019-08-07 16:31:40:773
-4.4248,-7.366,3.622,-0.6079,-0.0318,0.3925,-0.1209,-0.5162,0.0448,2713,2019-08-07 16:31:40:778
-3.9273,-7.5474,3.3062,-0.6079,-0.0318,0.3925,-0.1294,-0.317,0.0012,2718,2019-08-07 16:31:40:783
-3.9273,-7.5474,3.3062,-0.6079,-0.0318,0.3925,-0.1294,-0.317,0.0012,2723,2019-08-07 16:31:40:788
-3.9799,-7.619,3.1931,-0.9213,0.1348,0.832,-0.1337,-0.0688,-0.0404,2728,2019-08-07 16:31:40:793
-3.9799,-7.619,3.1931,-0.9213,0.1348,0.832,-0.1337,-0.0688,-0.0404,2733,2019-08-07 16:31:40:798
-3.9799,-7.619,3.1931,-0.9213,0.1348,0.832,-0.1209,0.1933,-0.0724,2737,2019-08-07 16:31:40:802
-4.6401,-7.5092,3.6645,-0.9213,0.1348,0.832,-0.1209,0.1933,-0.0724,2743,2019-08-07 16:31:40:808
-4.6401,-7.5092,3.6645,-0.0094,-0.0422,0.172,-0.1198,0.2508,-0.0947,2748,2019-08-07 16:31:40:813
-5.4248,-7.3135,4.1076,-0.0094,-0.0422,0.172,-0.1198,0.2508,-0.0947,2753,2019-08-07 16:31:40:818
-5.4248,-7.3135,4.1076,-0.0094,-0.0422,0.172,-0.1198,0.2508,-0.0947,2758,2019-08-07 16:31:40:823
-5.4248,-7.3135,4.1076,-0.0094,-0.0422,0.172,-0.1262,0.1336,-0.0979,2762,2019-08-07 16:31:40:827
-5.7262,-7.1703,4.216,0.8674,-0.4025,-0.2454,-0.1262,0.1336,-0.0979,2767,2019-08-07 16:31:40:832
-5.7262,-7.1703,4.216,0.8674,-0.4025,-0.2454,-0.156,-0.1892,-0.1022,2773,2019-08-07 16:31:40:838
-5.6975,-7.0653,4.0368,0.8674,-0.4025,-0.2454,-0.156,-0.1892,-0.1022,2778,2019-08-07 16:31:40:843
-5.6975,-7.0653,4.0368,0.8674,-0.4025,-0.2454,-0.1773,-0.3948,-0.0958,2783,2019-08-07 16:31:40:848
-5.6975,-7.0653,4.0368,0.4919,-0.4164,0.1288,-0.1773,-0.3948,-0.0958,2788,2019-08-07 16:31:40:853
-5.1952,-7.1894,3.7304,0.4919,-0.4164,0.1288,-0.1827,-0.5205,-0.0958,2793,2019-08-07 16:31:40:858
-5.1952,-7.1894,3.7304,0.4919,-0.4164,0.1288,-0.1827,-0.5205,-0.0958,2798,2019-08-07 16:31:40:863
-5.1952,-7.1894,3.7304,0.4919,-0.4164,0.1288,-0.1827,-0.5205,-0.0958,2803,2019-08-07 16:31:40:868
-4.6402,-7.4185,3.4099,-0.2626,-0.1394,0.5692,-0.1667,-0.5407,-0.0979,2808,2019-08-07 16:31:40:873
-4.6402,-7.4185,3.4099,-0.2626,-0.1394,0.5692,-0.1667,-0.5407,-0.0979,2812,2019-08-07 16:31:40:877
-4.2575,-7.4424,3.1035,-0.2626,-0.1394,0.5692,-0.1379,-0.4715,-0.0969,2818,2019-08-07 16:31:40:883
-4.2575,-7.4424,3.1035,-0.2626,-0.1394,0.5692,-0.1379,-0.4715,-0.0969,2823,2019-08-07 16:31:40:888
-3.8795,-7.4376,2.9574,-0.7982,-0.1872,1.0208,-0.1006,-0.2936,-0.0905,2828,2019-08-07 16:31:40:893
-3.8795,-7.4376,2.9574,-0.7982,-0.1872,1.0208,-0.1006,-0.2936,-0.0905,2834,2019-08-07 16:31:40:899
-3.8795,-7.4376,2.9574,-0.7982,-0.1872,1.0208,-0.0687,-0.0976,-0.0894,2838,2019-08-07 16:31:40:903
-3.8891,-7.4042,2.8207,-0.7982,-0.1872,1.0208,-0.0687,-0.0976,-0.0894,2843,2019-08-07 16:31:40:908
-3.8891,-7.4042,2.8207,-0.7858,-0.1974,1.0716,-0.0271,0.1048,-0.0841,2849,2019-08-07 16:31:40:914
-3.8891,-7.4042,2.8207,-0.7858,-0.1974,1.0716,-0.0271,0.1048,-0.0841,2853,2019-08-07 16:31:40:918
-4.2671,-7.3517,3.2355,-0.7858,-0.1974,1.0716,0.0208,0.2465,-0.0745,2857,2019-08-07 16:31:40:922
-4.2671,-7.3517,3.2355,-0.7858,-0.1974,1.0716,0.0208,0.2465,-0.0745,2863,2019-08-07 16:31:40:928
-4.2671,-7.3517,3.2355,-0.0114,-0.3395,0.3608,0.0528,0.2785,-0.0606,2868,2019-08-07 16:31:40:933
-4.8651,-7.261,3.6597,-0.0114,-0.3395,0.3608,0.0528,0.2785,-0.0606,2873,2019-08-07 16:31:40:938
-4.8651,-7.261,3.6597,-0.0114,-0.3395,0.3608,0.0528,0.2785,-0.0606,2877,2019-08-07 16:31:40:942
-5.3292,-7.0844,3.985,-0.0114,-0.3395,0.3608,0.0645,0.1986,-0.051,2883,2019-08-07 16:31:40:948
-5.3292,-7.0844,3.985,0.6078,-0.5851,-0.1202,0.0645,0.1986,-0.051,2888,2019-08-07 16:31:40:953
-5.4106,-7.0318,4.0698,0.6078,-0.5851,-0.1202,0.0517,-0.0113,-0.0297,2893,2019-08-07 16:31:40:958
-5.4106,-7.0318,4.0698,0.6078,-0.5851,-0.1202,0.0517,-0.0113,-0.0297,2900,2019-08-07 16:31:40:965
-5.4106,-7.0318,4.0698,0.5512,-0.5872,-0.1047,0.0336,-0.1561,-0.0191,2902,2019-08-07 16:31:40:967
-5.4106,-7.0318,4.0698,0.5512,-0.5872,-0.1047,0.0336,-0.1561,-0.0191,2908,2019-08-07 16:31:40:973
-5.0805,-7.0605,4.018,0.5512,-0.5872,-0.1047,-0.0016,-0.3639,-0.0116,2913,2019-08-07 16:31:40:978
-5.0805,-7.0605,4.018,0.0416,-0.4511,0.0763,-0.0016,-0.3639,-0.0116,2918,2019-08-07 16:31:40:983
-5.0805,-7.0605,4.018,0.0416,-0.4511,0.0763,-0.0016,-0.3639,-0.0116,2923,2019-08-07 16:31:40:988
-4.5542,-7.1464,3.9095,0.0416,-0.4511,0.0763,-0.0112,-0.3969,-0.017,2927,2019-08-07 16:31:40:992
-4.5542,-7.1464,3.9095,0.0416,-0.4511,0.0763,-0.0112,-0.3969,-0.017,2933,2019-08-07 16:31:40:998
-3.9993,-7.1894,3.556,-0.7042,-0.4205,0.4693,-0.0239,-0.3213,-0.0116,2938,2019-08-07 16:31:41:003
-3.9993,-7.1894,3.556,-0.7042,-0.4205,0.4693,-0.0239,-0.3213,-0.0116,2943,2019-08-07 16:31:41:008
-3.9993,-7.1894,3.556,-0.7042,-0.4205,0.4693,-0.0293,-0.1551,-0.0276,2948,2019-08-07 16:31:41:013
-3.7696,-7.2132,3.3722,-0.7042,-0.4205,0.4693,-0.0293,-0.1551,-0.0276,2953,2019-08-07 16:31:41:018
-3.7696,-7.2132,3.3722,-0.7042,-0.4205,0.4693,-0.0293,-0.1551,-0.0276,2958,2019-08-07 16:31:41:023
-4.0184,-7.2944,3.4853,-0.8027,-0.3518,0.6256,-0.0207,0.0388,-0.0244,2963,2019-08-07 16:31:41:028
-4.0184,-7.2944,3.4853,-0.8027,-0.3518,0.6256,-0.0207,0.0388,-0.0244,2968,2019-08-07 16:31:41:033
-4.0184,-7.2944,3.4853,-0.8027,-0.3518,0.6256,0.0048,0.2146,-0.0116,2973,2019-08-07 16:31:41:038
-4.4825,-7.2562,3.7822,-0.0801,-0.4169,0.1939,0.0048,0.2146,-0.0116,2978,2019-08-07 16:31:41:043
-4.4825,-7.2562,3.7822,-0.0801,-0.4169,0.1939,0.0219,0.2465,0.0011,2983,2019-08-07 16:31:41:048
-5.0184,-7.1751,4.0604,-0.0801,-0.4169,0.1939,0.0219,0.2465,0.0011,2988,2019-08-07 16:31:41:053
-5.0184,-7.1751,4.0604,-0.0801,-0.4169,0.1939,0.0208,0.1752,0.0161,2993,2019-08-07 16:31:41:058
-5.0184,-7.1751,4.0604,0.5734,-0.5309,-0.226,0.0208,0.1752,0.0161,2998,2019-08-07 16:31:41:063
-5.2767,-7.0939,4.2206,0.5734,-0.5309,-0.226,0.0208,0.1752,0.0161,3003,2019-08-07 16:31:41:068
-5.2767,-7.0939,4.2206,0.5734,-0.5309,-0.226,0.007,-0.0123,0.0363,3007,2019-08-07 16:31:41:072
-5.2767,-7.0939,4.2206,0.5346,-0.5555,-0.1775,0.007,-0.0123,0.0363,3013,2019-08-07 16:31:41:078
-5.2767,-7.0939,4.2206,0.5346,-0.5555,-0.1775,0.007,-0.0123,0.0363,3018,2019-08-07 16:31:41:083
-5.1524,-7.07,4.1641,0.5346,-0.5555,-0.1775,-0.008,-0.1551,0.0448,3023,2019-08-07 16:31:41:088
-5.1524,-7.07,4.1641,0.5346,-0.5555,-0.1775,-0.008,-0.1551,0.0448,3028,2019-08-07 16:31:41:093
-5.1524,-7.2419,3.8671,0.1808,-0.4253,0.0757,-0.0239,-0.2818,0.0502,3033,2019-08-07 16:31:41:098
-4.7218,-7.2419,3.8671,0.1808,-0.4253,0.0757,-0.0239,-0.2818,0.0502,3038,2019-08-07 16:31:41:103
-4.7218,-7.2419,3.8671,0.1808,-0.4253,0.0757,-0.0197,-0.2787,0.0533,3043,2019-08-07 16:31:41:108
-4.3773,-7.2753,3.7587,0.1808,-0.4253,0.0757,-0.0197,-0.2787,0.0533,3048,2019-08-07 16:31:41:113
-4.3773,-7.2753,3.7587,-0.3547,-0.3074,0.3112,-0.0058,-0.2062,0.0427,3052,2019-08-07 16:31:41:117
-4.3773,-7.2753,3.7587,-0.3547,-0.3074,0.3112,-0.0058,-0.2062,0.0427,3058,2019-08-07 16:31:41:123
-4.1716,-7.3135,3.655,-0.3547,-0.3074,0.3112,6.0E-4,-0.0965,0.0406,3063,2019-08-07 16:31:41:128
-4.1716,-7.3135,3.655,-0.3547,-0.3074,0.3112,6.0E-4,-0.0965,0.0406,3067,2019-08-07 16:31:41:132
-4.1716,-7.3135,3.655,-0.5493,-0.2813,0.4311,0.0059,0.026,0.0416,3073,2019-08-07 16:31:41:138
-4.1716,-7.3374,3.6031,-0.5493,-0.2813,0.4311,0.0059,0.026,0.0416,3078,2019-08-07 16:31:41:143
-4.1716,-7.3374,3.6031,-0.5493,-0.2813,0.4311,0.0187,0.1389,0.0448,3083,2019-08-07 16:31:41:148
-4.1716,-7.3374,3.6031,-0.5493,-0.2813,0.4311,0.0187,0.1389,0.0448,3088,2019-08-07 16:31:41:153
-4.4779,-7.3851,3.7587,-0.2274,-0.2106,0.2913,0.0357,0.1975,0.0427,3093,2019-08-07 16:31:41:158
-4.4779,-7.3851,3.7587,-0.2274,-0.2106,0.2913,0.0357,0.1975,0.0427,3098,2019-08-07 16:31:41:163
-4.8702,-7.3517,4.0839,-0.2274,-0.2106,0.2913,0.056,0.1624,0.0502,3103,2019-08-07 16:31:41:168
-4.8702,-7.3517,4.0839,-0.2274,-0.2106,0.2913,0.056,0.1624,0.0502,3109,2019-08-07 16:31:41:174
-4.8702,-7.3517,4.0839,0.3378,-0.3346,-0.0948,0.0613,0.0558,0.0683,3114,2019-08-07 16:31:41:179
-5.052,-7.1416,4.1735,0.3378,-0.3346,-0.0948,0.0613,0.0558,0.0683,3117,2019-08-07 16:31:41:182
-5.052,-7.1416,4.1735,0.3378,-0.3346,-0.0948,0.0485,-0.0763,0.0693,3123,2019-08-07 16:31:41:188
-5.052,-7.1416,4.1735,0.3378,-0.3346,-0.0948,0.0485,-0.0763,0.0693,3127,2019-08-07 16:31:41:192
-5.1477,-7.0509,4.2536,0.3357,-0.4973,-0.2145,0.0336,-0.2137,0.0757,3132,2019-08-07 16:31:41:197
-5.1477,-7.0509,4.2536,0.3357,-0.4973,-0.2145,0.0336,-0.2137,0.0757,3139,2019-08-07 16:31:41:204
-4.942,-7.0748,4.0415,0.3357,-0.4973,-0.2145,0.0336,-0.2137,0.0757,3143,2019-08-07 16:31:41:208
-4.942,-7.0748,4.0415,0.3357,-0.4973,-0.2145,0.0112,-0.3159,0.0757,3149,2019-08-07 16:31:41:214
-4.7411,-7.2228,3.9283,0.0808,-0.3908,0.1693,0.0112,-0.3159,0.0757,3153,2019-08-07 16:31:41:218
-4.7411,-7.2228,3.9283,0.0808,-0.3908,0.1693,-0.0016,-0.3671,0.0704,3158,2019-08-07 16:31:41:223
-4.7411,-7.2228,3.9283,0.0808,-0.3908,0.1693,-0.0016,-0.3671,0.0704,3163,2019-08-07 16:31:41:228
-4.387,-7.2228,3.8199,0.0808,-0.3908,0.1693,-0.0037,-0.3415,0.0629,3168,2019-08-07 16:31:41:233
-4.387,-7.2228,3.8199,-0.4362,-0.251,0.4663,-0.0037,-0.3415,0.0629,3173,2019-08-07 16:31:41:238
-4.1526,-7.2753,3.5277,-0.4362,-0.251,0.4663,-0.0026,-0.2563,0.0502,3178,2019-08-07 16:31:41:243
-4.1526,-7.2753,3.5277,-0.4362,-0.251,0.4663,-0.0026,-0.2563,0.0502,3183,2019-08-07 16:31:41:248
-4.1526,-7.2753,3.5277,-0.4362,-0.251,0.4663,-5.0E-4,-0.0922,0.0416,3188,2019-08-07 16:31:41:253
-4.1096,-7.2992,3.4805,-0.592,-0.2538,0.6529,-5.0E-4,-0.0922,0.0416,3193,2019-08-07 16:31:41:258
-4.1096,-7.2992,3.4805,-0.592,-0.2538,0.6529,-5.0E-4,-0.0922,0.0416,3198,2019-08-07 16:31:41:263
-4.1096,-7.2992,3.4805,-0.592,-0.2538,0.6529,0.007,0.0473,0.0374,3203,2019-08-07 16:31:41:268
-4.167,-7.3278,3.5229,-0.592,-0.2538,0.6529,0.007,0.0473,0.0374,3208,2019-08-07 16:31:41:273
-4.167,-7.3278,3.5229,-0.2806,-0.1757,0.4758,0.0091,0.1762,0.0342,3212,2019-08-07 16:31:41:277
-4.6072,-7.3373,3.6078,-0.2806,-0.1757,0.4758,0.0091,0.1762,0.0342,3218,2019-08-07 16:31:41:283
-4.6072,-7.3373,3.6078,-0.2806,-0.1757,0.4758,0.0155,0.2114,0.0342,3223,2019-08-07 16:31:41:288
-4.6072,-7.3373,3.6078,-0.2806,-0.1757,0.4758,0.0155,0.2114,0.0342,3228,2019-08-07 16:31:41:293
-4.9947,-7.2753,3.9,0.3561,-0.3142,0.1039,0.0208,0.1602,0.0448,3233,2019-08-07 16:31:41:298
-4.9947,-7.2753,3.9,0.3561,-0.3142,0.1039,0.0208,0.1602,0.0448,3238,2019-08-07 16:31:41:303
-5.21,-7.1893,4.1546,0.3561,-0.3142,0.1039,0.0123,0.0409,0.048,3243,2019-08-07 16:31:41:308
-5.21,-7.1893,4.1546,0.3561,-0.3142,0.1039,0.0123,0.0409,0.048,3248,2019-08-07 16:31:41:313
-5.21,-7.1893,4.1546,0.4508,-0.4878,-0.0173,0.0123,0.0409,0.048,3253,2019-08-07 16:31:41:318
-5.1861,-7.0079,4.0556,0.4508,-0.4878,-0.0173,-0.0122,-0.1242,0.0395,3258,2019-08-07 16:31:41:323
-5.1861,-7.0079,4.0556,0.4508,-0.4878,-0.0173,-0.0122,-0.1242,0.0395,3263,2019-08-07 16:31:41:328
-4.9804,-7.0414,3.9377,0.4508,-0.4878,-0.0173,-0.0314,-0.2307,0.0363,3267,2019-08-07 16:31:41:332
-4.9804,-7.0414,3.9377,0.1268,-0.4792,0.2749,-0.0314,-0.2307,0.0363,3273,2019-08-07 16:31:41:338
-4.9804,-7.0414,3.9377,0.1268,-0.4792,0.2749,-0.0527,-0.2712,0.0331,3277,2019-08-07 16:31:41:342
-4.6599,-7.1893,3.7869,0.1268,-0.4792,0.2749,-0.0527,-0.2712,0.0331,3283,2019-08-07 16:31:41:348
-4.6599,-7.1893,3.7869,0.1268,-0.4792,0.2749,-0.0559,-0.2222,0.0203,3288,2019-08-07 16:31:41:353
-4.3728,-7.2896,3.6973,-0.3547,-0.2477,0.4351,-0.0559,-0.2222,0.0203,3293,2019-08-07 16:31:41:358
-4.3728,-7.2896,3.6973,-0.3547,-0.2477,0.4351,-0.0495,-0.1487,0.0107,3298,2019-08-07 16:31:41:363
-4.3728,-7.2896,3.6973,-0.3547,-0.2477,0.4351,-0.0495,-0.1487,0.0107,3303,2019-08-07 16:31:41:368
-4.2819,-7.3135,3.4946,-0.3547,-0.2477,0.4351,-0.0495,-0.1487,0.0107,3307,2019-08-07 16:31:41:372
-4.2819,-7.3135,3.4946,-0.4157,-0.2194,0.5644,-0.0335,0.0164,1.0E-4,3313,2019-08-07 16:31:41:378
-4.3489,-7.3182,3.5276,-0.4157,-0.2194,0.5644,-0.0335,0.0164,1.0E-4,3317,2019-08-07 16:31:41:382
-4.3489,-7.3182,3.5276,-0.4157,-0.2194,0.5644,-0.0197,0.1677,-0.0084,3323,2019-08-07 16:31:41:388
-4.3489,-7.3182,3.5276,-0.4157,-0.2194,0.5644,-0.0197,0.1677,-0.0084,3327,2019-08-07 16:31:41:392
-4.5834,-7.2848,3.7869,-0.0602,-0.2422,0.279,-0.0101,0.2348,-0.0106,3333,2019-08-07 16:31:41:398
-4.5834,-7.2848,3.7869,-0.0602,-0.2422,0.279,-0.0101,0.2348,-0.0106,3337,2019-08-07 16:31:41:402
-4.5834,-7.2848,3.7869,-0.0602,-0.2422,0.279,-5.0E-4,0.2273,-0.0116,3343,2019-08-07 16:31:41:408
-4.947,-7.2848,4.0509,-0.0602,-0.2422,0.279,-5.0E-4,0.2273,-0.0116,3348,2019-08-07 16:31:41:413
-4.947,-7.2848,4.0509,0.2901,-0.2896,-0.0573,0.008,0.1336,-0.001,3353,2019-08-07 16:31:41:418
-5.0666,-7.2609,4.164,0.2901,-0.2896,-0.0573,0.008,0.1336,-0.001,3358,2019-08-07 16:31:41:423
-5.0666,-7.2609,4.164,0.2901,-0.2896,-0.0573,0.0091,0.0249,0.0033,3363,2019-08-07 16:31:41:428
-5.0666,-7.2609,4.164,0.2901,-0.2896,-0.0573,0.0091,0.0249,0.0033,3368,2019-08-07 16:31:41:433
-5.0893,-7.2324,4.169,0.2901,-0.2896,-0.0573,0.0091,0.0249,0.0033,3373,2019-08-07 16:31:41:438
-5.0893,-7.2324,4.169,0.3019,-0.334,-0.1106,0.0059,-0.0912,0.0075,3377,2019-08-07 16:31:41:442
-4.8644,-7.1847,4.169,0.3019,-0.334,-0.1106,0.0059,-0.0912,0.0075,3383,2019-08-07 16:31:41:448
-4.8644,-7.1847,4.169,0.3019,-0.334,-0.1106,0.0016,-0.2052,0.0182,3388,2019-08-07 16:31:41:453
-4.8644,-7.1847,4.169,-0.142,-0.374,0.1571,0.0016,-0.2052,0.0182,3392,2019-08-07 16:31:41:457
-4.52,-7.1895,3.8861,-0.142,-0.374,0.1571,0.0048,-0.2243,0.0182,3399,2019-08-07 16:31:41:464
-4.52,-7.1895,3.8861,-0.142,-0.374,0.1571,0.0048,-0.2243,0.0182,3403,2019-08-07 16:31:41:468
-4.52,-7.1895,3.8861,-0.142,-0.374,0.1571,0.0101,-0.1902,0.0075,3408,2019-08-07 16:31:41:473
-4.4195,-7.199,3.773,-0.142,-0.374,0.1571,0.0101,-0.1902,0.0075,3413,2019-08-07 16:31:41:478
-4.4195,-7.199,3.773,-0.3659,-0.3107,0.3514,0.0101,-0.1902,0.0075,3418,2019-08-07 16:31:41:483
-4.4003,-7.199,3.7871,-0.3659,-0.3107,0.3514,0.0016,-0.1167,-0.002,3423,2019-08-07 16:31:41:488
-4.4003,-7.199,3.7871,-0.3462,-0.4016,0.3383,0.0016,-0.1167,-0.002,3428,2019-08-07 16:31:41:493
-4.4003,-7.199,3.7871,-0.3462,-0.4016,0.3383,6.0E-4,-0.0496,1.0E-4,3433,2019-08-07 16:31:41:498
-4.3334,-7.1465,3.8248,-0.3462,-0.4016,0.3383,6.0E-4,-0.0496,1.0E-4,3438,2019-08-07 16:31:41:503
-4.3334,-7.1465,3.8248,-0.3462,-0.4016,0.3383,-5.0E-4,0.0143,1.0E-4,3443,2019-08-07 16:31:41:508
-4.3334,-7.1847,3.8484,-0.391,-0.3928,0.3405,-5.0E-4,0.0143,1.0E-4,3448,2019-08-07 16:31:41:513
-4.3334,-7.1847,3.8484,-0.391,-0.3928,0.3405,-0.009,0.091,0.0012,3453,2019-08-07 16:31:41:518
-4.3334,-7.1847,3.8484,-0.391,-0.3928,0.3405,-0.009,0.091,0.0012,3457,2019-08-07 16:31:41:522
-4.6013,-7.1417,3.9191,-0.391,-0.3928,0.3405,-0.0239,0.1293,0.0022,3463,2019-08-07 16:31:41:528
-4.6013,-7.1417,3.9191,0.0112,-0.3794,0.1867,-0.0239,0.1293,0.0022,3467,2019-08-07 16:31:41:532
-4.8501,-7.1847,4.0323,0.0112,-0.3794,0.1867,-0.0261,0.1134,0.015,3473,2019-08-07 16:31:41:538
-4.8501,-7.1847,4.0323,0.0112,-0.3794,0.1867,-0.0261,0.1134,0.015,3477,2019-08-07 16:31:41:542
-4.8501,-7.1847,4.0323,0.0112,-0.3794,0.1867,-0.0282,0.0601,0.0235,3483,2019-08-07 16:31:41:548
-4.7448,-7.1369,3.9474,-0.0011,-0.4027,0.1596,-0.0282,0.0601,0.0235,3488,2019-08-07 16:31:41:553
-4.7448,-7.1369,3.9474,-0.0011,-0.4027,0.1596,-0.0303,0.0036,0.0363,3493,2019-08-07 16:31:41:558
-4.7017,-7.1608,3.8343,-0.0011,-0.4027,0.1596,-0.0303,0.0036,0.0363,3498,2019-08-07 16:31:41:563
-4.7017,-7.1608,3.8343,-0.0011,-0.4027,0.1596,-0.0367,-0.0198,0.0512,3503,2019-08-07 16:31:41:568
-4.7017,-7.1608,3.8343,-0.1041,-0.3244,0.2489,-0.0367,-0.0198,0.0512,3508,2019-08-07 16:31:41:573
-4.7065,-7.2467,3.8484,-0.1041,-0.3244,0.2489,-0.0229,-0.0283,0.0512,3513,2019-08-07 16:31:41:578
-4.7065,-7.2467,3.8484,-0.1041,-0.3244,0.2489,-0.0229,-0.0283,0.0512,3518,2019-08-07 16:31:41:583
-4.7065,-7.2467,3.8484,-0.1041,-0.3244,0.2489,-0.0037,-0.0464,0.0534,3523,2019-08-07 16:31:41:588
-4.7639,-7.2611,3.7919,0.0045,-0.2729,0.3097,-0.0037,-0.0464,0.0534,3528,2019-08-07 16:31:41:593
-4.7639,-7.2611,3.7919,0.0045,-0.2729,0.3097,-0.0037,-0.0464,0.0534,3532,2019-08-07 16:31:41:597
-4.7639,-7.2611,3.7919,0.0045,-0.2729,0.3097,0.007,-0.0581,0.0608,3538,2019-08-07 16:31:41:603
-4.5917,-7.2754,3.7259,0.0045,-0.2729,0.3097,0.007,-0.0581,0.0608,3542,2019-08-07 16:31:41:607
-4.5917,-7.2754,3.7259,-0.2017,-0.3196,0.3849,0.0176,-0.0315,0.0523,3548,2019-08-07 16:31:41:613
-4.6587,-7.2086,3.7211,-0.2017,-0.3196,0.3849,0.0315,0.0164,0.0384,3553,2019-08-07 16:31:41:618
-4.6587,-7.2086,3.7211,-0.2017,-0.3196,0.3849,0.0315,0.0164,0.0384,3559,2019-08-07 16:31:41:624
-4.6587,-7.2086,3.7211,-0.2017,-0.3196,0.3849,0.0315,0.0164,0.0384,3563,2019-08-07 16:31:41:628
-4.7831,-7.1751,3.7541,0.0096,-0.3468,0.3532,0.0421,0.0484,0.032,3568,2019-08-07 16:31:41:633
-4.7831,-7.1751,3.7541,0.0096,-0.3468,0.3532,0.0421,0.0484,0.032,3573,2019-08-07 16:31:41:638
-4.8405,-7.1847,3.7259,0.0617,-0.3341,0.381,0.0464,0.0633,0.0171,3577,2019-08-07 16:31:41:642
-4.8405,-7.1847,3.7259,0.0617,-0.3341,0.381,0.0464,0.0633,0.0171,3583,2019-08-07 16:31:41:648
-4.8405,-7.1847,3.7259,0.0617,-0.3341,0.381,0.0421,0.0622,1.0E-4,3587,2019-08-07 16:31:41:652
-4.9505,-7.1847,3.7164,0.0617,-0.3341,0.381,0.0421,0.0622,1.0E-4,3593,2019-08-07 16:31:41:658
-4.9505,-7.1847,3.7164,0.0874,-0.3493,0.3132,0.0346,0.0612,-0.017,3598,2019-08-07 16:31:41:663
-4.8979,-7.199,3.7636,0.0874,-0.3493,0.3132,0.0346,0.0612,-0.017,3603,2019-08-07 16:31:41:668
-4.8979,-7.199,3.7636,0.0874,-0.3493,0.3132,0.0346,0.0612,-0.017,3608,2019-08-07 16:31:41:673
-4.7448,-7.2038,3.9191,0.0874,-0.3493,0.3132,0.0293,0.0548,-0.0127,3613,2019-08-07 16:31:41:678
-4.7448,-7.2038,3.9191,0.002,-0.3094,0.2031,0.0293,0.0548,-0.0127,3617,2019-08-07 16:31:41:682
-4.7448,-7.2038,3.9191,0.002,-0.3094,0.2031,0.0261,0.0239,-0.0148,3623,2019-08-07 16:31:41:688
-4.7639,-7.1895,3.9333,0.002,-0.3094,0.2031,0.0261,0.0239,-0.0148,3628,2019-08-07 16:31:41:693
-4.7639,-7.1895,3.9333,0.002,-0.3094,0.2031,0.0261,-0.0134,-0.0042,3633,2019-08-07 16:31:41:698
-4.7639,-7.1895,3.9333,-0.0559,-0.3742,0.112,0.0261,-0.0134,-0.0042,3637,2019-08-07 16:31:41:702
-4.7065,-7.1083,3.9993,-0.0559,-0.3742,0.112,0.0261,-0.0134,-0.0042,3643,2019-08-07 16:31:41:708
-4.7065,-7.1083,3.9993,-0.0559,-0.3742,0.112,0.0251,-0.0454,0.0075,3647,2019-08-07 16:31:41:712
-4.6874,-7.1226,3.971,-0.0559,-0.3742,0.112,0.0251,-0.0454,0.0075,3653,2019-08-07 16:31:41:718
-4.6874,-7.1226,3.971,-0.0559,-0.3742,0.112,0.0197,-0.088,0.0246,3657,2019-08-07 16:31:41:722
-4.6874,-7.1226,3.971,-0.0971,-0.3131,0.1448,0.0197,-0.088,0.0246,3663,2019-08-07 16:31:41:728
-4.6539,-7.1847,3.9474,-0.0971,-0.3131,0.1448,0.0155,-0.0944,0.0288,3668,2019-08-07 16:31:41:733
-4.6539,-7.1847,3.9474,-0.0971,-0.3131,0.1448,0.0155,-0.0944,0.0288,3673,2019-08-07 16:31:41:738
-4.6252,-7.1513,3.9946,-0.161,-0.3518,0.1325,0.0165,-0.0944,0.0278,3678,2019-08-07 16:31:41:743
-4.6252,-7.1513,3.9946,-0.161,-0.3518,0.1325,0.0165,-0.0944,0.0278,3682,2019-08-07 16:31:41:747
-4.6252,-7.1513,3.9946,-0.161,-0.3518,0.1325,0.0112,-0.0709,0.0193,3688,2019-08-07 16:31:41:753
-4.5582,-7.0606,3.872,-0.161,-0.3518,0.1325,0.0112,-0.0709,0.0193,3693,2019-08-07 16:31:41:758
-4.5582,-7.0606,3.872,-0.2875,-0.3966,0.2635,-0.0037,-0.0273,0.0182,3698,2019-08-07 16:31:41:763
-4.5295,-7.0797,3.8767,-0.2875,-0.3966,0.2635,-0.0037,-0.0273,0.0182,3703,2019-08-07 16:31:41:768
-4.5295,-7.0797,3.8767,-0.2875,-0.3966,0.2635,-0.0037,-0.0273,0.0182,3707,2019-08-07 16:31:41:772
-4.5295,-7.0797,3.8767,-0.2875,-0.3966,0.2635,-0.0069,0.0345,0.0129,3713,2019-08-07 16:31:41:778
-4.4577,-7.1799,3.8107,-0.2875,-0.3966,0.2635,-0.0069,0.0345,0.0129,3717,2019-08-07 16:31:41:782
-4.4577,-7.1799,3.8107,-0.2916,-0.3008,0.3065,-0.0069,0.1166,0.0086,3723,2019-08-07 16:31:41:788
-4.4577,-7.1799,3.8107,-0.2916,-0.3008,0.3065,-0.0069,0.1166,0.0086,3727,2019-08-07 16:31:41:792
-4.5917,-7.2372,3.8956,-0.2016,-0.2627,0.229,-0.0069,0.1506,0.0054,3733,2019-08-07 16:31:41:798
-4.5917,-7.2372,3.8956,-0.2016,-0.2627,0.229,-0.0069,0.1506,0.0054,3738,2019-08-07 16:31:41:803
-4.8548,-7.1799,4.0558,-0.2016,-0.2627,0.229,0.0027,0.1592,0.015,3743,2019-08-07 16:31:41:808
-4.8548,-7.1799,4.0558,-0.2016,-0.2627,0.229,0.0027,0.1592,0.015,3748,2019-08-07 16:31:41:813
-4.8548,-7.1799,4.0558,0.0697,-0.3325,-0.036,0.0027,0.1592,0.015,3753,2019-08-07 16:31:41:818
-5.0031,-7.1322,4.1407,0.0697,-0.3325,-0.036,0.0059,0.1038,0.0214,3758,2019-08-07 16:31:41:823
-5.0031,-7.1322,4.1407,0.0697,-0.3325,-0.036,-0.0016,0.042,0.0235,3764,2019-08-07 16:31:41:829
-5.0031,-7.1322,4.1407,0.0697,-0.3325,-0.036,-0.0016,0.042,0.0235,3768,2019-08-07 16:31:41:833
-5.0509,-7.1656,4.1265,0.2302,-0.3283,-0.0231,-0.0016,0.042,0.0235,3774,2019-08-07 16:31:41:839
-5.0509,-7.1656,4.1265,0.2302,-0.3283,-0.0231,-0.0122,-0.0539,0.0299,3778,2019-08-07 16:31:41:843
-4.9457,-7.156,4.1171,0.1234,-0.3359,-0.0119,-0.0122,-0.0539,0.0299,3782,2019-08-07 16:31:41:847
-4.9457,-7.156,4.1171,0.1234,-0.3359,-0.0119,-0.0122,-0.1125,0.0278,3788,2019-08-07 16:31:41:853
-4.7495,-7.242,3.938,0.1234,-0.3359,-0.0119,-0.0122,-0.1125,0.0278,3793,2019-08-07 16:31:41:858
-4.7495,-7.242,3.938,0.1234,-0.3359,-0.0119,-0.0101,-0.1082,0.0139,3798,2019-08-07 16:31:41:863
-4.7495,-7.242,3.938,-0.0783,-0.2765,0.237,-0.0101,-0.1082,0.0139,3803,2019-08-07 16:31:41:868
-4.7113,-7.2133,3.8107,-0.0783,-0.2765,0.237,-0.0101,-0.1082,0.0139,3808,2019-08-07 16:31:41:873
-4.7113,-7.2133,3.8107,-0.0783,-0.2765,0.237,-0.0144,-0.0699,0.0107,3814,2019-08-07 16:31:41:879
-4.7113,-7.2133,3.8107,-0.0783,-0.2765,0.237,-0.0144,-0.0699,0.0107,3818,2019-08-07 16:31:41:883
-4.6443,-7.1608,3.8437,-0.1701,-0.3294,0.2739,-0.0112,-0.0177,1.0E-4,3823,2019-08-07 16:31:41:888
-4.6443,-7.1608,3.8437,-0.1701,-0.3294,0.2739,-0.0112,-0.0177,1.0E-4,3828,2019-08-07 16:31:41:893
-4.6778,-7.0988,3.8249,-0.1701,-0.3294,0.2739,-0.0101,0.0313,-0.0074,3833,2019-08-07 16:31:41:898
-4.6778,-7.0988,3.8249,-0.1701,-0.3294,0.2739,-0.0101,0.0313,-0.0074,3838,2019-08-07 16:31:41:903
-4.6778,-7.0988,3.8249,-0.086,-0.4359,0.2453,-0.0197,0.0708,-0.0095,3843,2019-08-07 16:31:41:908
-4.8165,-7.0701,3.8626,-0.086,-0.4359,0.2453,-0.0197,0.0708,-0.0095,3848,2019-08-07 16:31:41:913
-4.8165,-7.0701,3.8626,-0.086,-0.4359,0.2453,-0.0197,0.0665,-0.0148,3852,2019-08-07 16:31:41:917
-4.8165,-7.0701,3.8626,-0.086,-0.4359,0.2453,-0.0197,0.0665,-0.0148,3858,2019-08-07 16:31:41:923
-4.8404,-7.0749,3.938,0.0232,-0.3852,0.1269,-0.0186,0.0441,-0.0084,3863,2019-08-07 16:31:41:928
-4.8404,-7.0749,3.938,0.0232,-0.3852,0.1269,-0.0186,0.0441,-0.0084,3868,2019-08-07 16:31:41:933
-4.8739,-7.0797,3.9851,0.0232,-0.3852,0.1269,-0.0186,0.0441,-0.0084,3873,2019-08-07 16:31:41:938
-4.8739,-7.0797,3.9851,0.0232,-0.3852,0.1269,-0.025,-0.0123,0.0033,3878,2019-08-07 16:31:41:943
-4.8739,-7.0797,3.9851,0.0014,-0.4148,0.1408,-0.025,-0.0123,0.0033,3882,2019-08-07 16:31:41:947
-4.7974,-7.1035,3.9851,0.0014,-0.4148,0.1408,-0.0303,-0.0603,0.015,3888,2019-08-07 16:31:41:953
-4.7974,-7.1035,3.9851,0.0014,-0.4148,0.1408,-0.0303,-0.0603,0.015,3892,2019-08-07 16:31:41:957
-4.6778,-7.1561,3.872,0.0014,-0.4148,0.1408,-0.0293,-0.0731,0.0203,3899,2019-08-07 16:31:41:964
-4.6778,-7.1561,3.872,-0.2026,-0.3007,0.2363,-0.0293,-0.0731,0.0203,3903,2019-08-07 16:31:41:968
-4.6778,-7.1561,3.872,-0.2026,-0.3007,0.2363,-0.0335,-0.0656,0.0235,3907,2019-08-07 16:31:41:972
-4.5151,-7.1751,3.839,-0.2026,-0.3007,0.2363,-0.0335,-0.0656,0.0235,3914,2019-08-07 16:31:41:979
-4.5151,-7.1751,3.839,-0.2026,-0.3007,0.2363,-0.0335,-0.0656,0.0235,3917,2019-08-07 16:31:41:982
-4.5151,-7.1751,3.839,-0.2539,-0.3205,0.3167,-0.0271,-0.0273,0.0225,3923,2019-08-07 16:31:41:988
-4.5821,-7.1513,3.7589,-0.2539,-0.3205,0.3167,-0.0271,-0.0273,0.0225,3928,2019-08-07 16:31:41:993
-4.5821,-7.1513,3.7589,-0.2539,-0.3205,0.3167,-0.0229,0.0186,0.0225,3934,2019-08-07 16:31:41:999
-4.6108,-7.051,3.6787,-0.2539,-0.3205,0.3167,-0.0229,0.0186,0.0225,3938,2019-08-07 16:31:42:003
-4.6108,-7.051,3.6787,1.18,-0.5641,1.1672,-0.0708,-0.0603,0.0246,3943,2019-08-07 16:31:42:008
-4.8643,-7.1751,4.6215,1.18,-0.5641,1.1672,-0.0708,-0.0603,0.0246,3949,2019-08-07 16:31:42:014
-4.8643,-7.1751,4.6215,1.18,-0.5641,1.1672,-0.0942,-0.0475,0.064,3953,2019-08-07 16:31:42:018
-4.8643,-7.1751,4.6215,1.18,-0.5641,1.1672,-0.0942,-0.0475,0.064,3958,2019-08-07 16:31:42:023
-4.3237,-7.4043,3.8861,-0.5009,-0.0933,0.2059,0.1103,-0.0752,-0.017,3963,2019-08-07 16:31:42:028
-4.3237,-7.4043,3.8861,-0.5009,-0.0933,0.2059,0.1103,-0.0752,-0.017,3967,2019-08-07 16:31:42:032
-4.3237,-7.4043,3.8861,-0.5009,-0.0933,0.2059,0.1103,-0.0752,-0.017,3973,2019-08-07 16:31:42:038
-4.4768,-7.0892,3.3912,-0.5009,-0.0933,0.2059,0.056,0.1219,0.031,3977,2019-08-07 16:31:42:042
-4.4768,-7.0892,3.3912,-0.5306,-0.3744,0.5294,0.056,0.1219,0.031,3983,2019-08-07 16:31:42:048
-4.3907,-7.1179,3.8437,-0.5306,-0.3744,0.5294,-0.0261,0.1432,0.0534,3988,2019-08-07 16:31:42:053
-4.3907,-7.1179,3.8437,-0.5306,-0.3744,0.5294,-0.0261,0.1432,0.0534,3993,2019-08-07 16:31:42:058
-4.3907,-7.1179,3.8437,-0.5306,-0.3744,0.5294,0.008,0.173,0.0267,3998,2019-08-07 16:31:42:063
-5.0557,-7.2038,3.9993,0.2154,-0.2084,0.1266,0.008,0.173,0.0267,4003,2019-08-07 16:31:42:068
-5.0557,-7.2038,3.9993,0.2154,-0.2084,0.1266,0.0261,0.1155,0.0395,4009,2019-08-07 16:31:42:074
-5.0366,-7.3136,3.9474,0.2154,-0.2084,0.1266,0.0261,0.1155,0.0395,4013,2019-08-07 16:31:42:078
-5.0366,-7.3136,3.9474,0.2154,-0.2084,0.1266,-0.0037,0.0431,0.0427,4018,2019-08-07 16:31:42:083
-5.0366,-7.3136,3.9474,0.0913,-0.3076,0.0593,-0.0037,0.0431,0.0427,4023,2019-08-07 16:31:42:088