ACCELEROMETER X (m/s²),ACCELEROMETER Y (m/s²),ACCELEROMETER Z (m/s²),LINEAR ACCELERATION X (m/s²),LINEAR ACCELERATION Y (m/s²),LINEAR ACCELERATION Z (m/s²),GYROSCOPE X (rad/s),GYROSCOPE Y (rad/s),GYROSCOPE Z (rad/s),Time since start in ms ,YYYY-MO-DD HH-MI-SS_SSS
-6.7528,-5.8143,3.1218,-0.1522,-0.3139,0.1953,-0.0229,0.0463,0.0043,2,2019-08-07 16:32:50:607
-6.8341,-5.7808,3.1312,-0.1522,-0.3139,0.1953,-0.0229,0.0463,0.0043,8,2019-08-07 16:32:50:613
-6.8341,-5.7808,3.1312,-0.0376,-0.3227,0.0918,-0.0133,0.0207,1.0E-4,13,2019-08-07 16:32:50:618
-6.7815,-5.7427,3.1878,-0.0376,-0.3227,0.0918,-0.0133,0.0207,1.0E-4,17,2019-08-07 16:32:50:622
-6.7815,-5.7427,3.1878,-0.0376,-0.3227,0.0918,-0.0133,0.0207,1.0E-4,23,2019-08-07 16:32:50:628
-6.7289,-5.8525,3.0841,-0.0376,-0.3227,0.0918,-0.0016,-0.0145,-0.0021,28,2019-08-07 16:32:50:633
-6.7289,-5.8525,3.0841,-0.1719,-0.2368,0.2185,0.007,-0.0219,-0.0021,33,2019-08-07 16:32:50:638
-6.7289,-5.8525,3.0841,-0.1719,-0.2368,0.2185,0.007,-0.0219,-0.0021,38,2019-08-07 16:32:50:643
-6.6667,-5.8811,3.0841,-0.1719,-0.2368,0.2185,0.007,-0.0219,-0.0021,43,2019-08-07 16:32:50:648
-6.6667,-5.8811,3.0841,-0.1719,-0.2368,0.2185,0.0176,-0.0294,0.0022,48,2019-08-07 16:32:50:653
-6.6667,-5.8811,3.0841,-0.3089,-0.3173,0.2185,0.0176,-0.0294,0.0022,52,2019-08-07 16:32:50:657
-6.5854,-5.8525,3.0322,-0.3089,-0.3173,0.2185,0.0272,-0.04,0.0054,58,2019-08-07 16:32:50:663
-6.5854,-5.8525,3.0322,-0.3089,-0.3173,0.2185,0.0272,-0.04,0.0054,63,2019-08-07 16:32:50:668
-6.5088,-5.8381,3.0416,-0.3089,-0.3173,0.2185,0.0315,-0.0304,0.0107,67,2019-08-07 16:32:50:672
-6.5088,-5.8381,3.0416,-0.3746,-0.243,0.278,0.0315,-0.0304,0.0107,73,2019-08-07 16:32:50:678
-6.5088,-5.8381,3.0416,-0.3746,-0.243,0.278,0.0272,0.0079,0.0203,78,2019-08-07 16:32:50:683
-6.5614,-5.8477,3.0935,-0.3746,-0.243,0.278,0.0272,0.0079,0.0203,83,2019-08-07 16:32:50:688
-6.5614,-5.8477,3.0935,-0.3746,-0.243,0.278,0.0229,0.0239,0.0224,87,2019-08-07 16:32:50:692
-6.6571,-5.7713,3.1548,-0.2541,-0.348,0.1656,0.0229,0.0239,0.0224,94,2019-08-07 16:32:50:699
-6.6571,-5.7713,3.1548,-0.2541,-0.348,0.1656,0.0155,0.0186,0.0224,98,2019-08-07 16:32:50:703
-6.6571,-5.7713,3.1548,-0.2541,-0.348,0.1656,0.0155,0.0186,0.0224,102,2019-08-07 16:32:50:707
-6.6332,-5.7092,3.1501,-0.2541,-0.348,0.1656,0.0155,0.0186,0.0224,108,2019-08-07 16:32:50:713
-6.6332,-5.7092,3.1501,-0.2155,-0.3869,0.2723,-0.0016,0.0239,0.0139,112,2019-08-07 16:32:50:717
-6.6332,-5.7092,3.1501,-0.2155,-0.3869,0.2723,-0.0016,0.0239,0.0139,118,2019-08-07 16:32:50:723
-6.7959,-5.7092,3.1925,-0.2155,-0.3869,0.2723,-0.0058,0.0377,-0.001,123,2019-08-07 16:32:50:728
-6.7959,-5.7092,3.1925,-0.2155,-0.3869,0.2723,-0.0058,0.0377,-0.001,128,2019-08-07 16:32:50:733
-6.7959,-5.7331,3.2019,-0.1234,-0.3814,0.1106,-0.0122,0.0409,-0.0063,133,2019-08-07 16:32:50:738
-6.7959,-5.7331,3.2019,-0.1234,-0.3814,0.1106,-0.0122,0.0409,-0.0063,137,2019-08-07 16:32:50:742
-6.7959,-5.7331,3.2019,-0.1234,-0.3814,0.1106,-0.0143,0.0292,-0.0117,144,2019-08-07 16:32:50:749
-6.7863,-5.7618,3.0841,-0.1234,-0.3814,0.1106,-0.0143,0.0292,-0.0117,148,2019-08-07 16:32:50:753
-6.7863,-5.7618,3.0841,-0.1779,-0.3829,0.17,-0.0143,0.0292,-0.0117,153,2019-08-07 16:32:50:758
-6.7863,-5.7618,3.0841,-0.1779,-0.3829,0.17,-0.0101,0.0218,-0.018,158,2019-08-07 16:32:50:763
-6.7767,-5.7474,3.0982,-0.1779,-0.3829,0.17,-0.0101,0.0218,-0.018,163,2019-08-07 16:32:50:768
-6.7767,-5.7474,3.0982,-0.1779,-0.3829,0.17,-0.0037,0.0036,-0.0159,168,2019-08-07 16:32:50:773
-6.6524,-5.757,3.1925,-0.268,-0.3608,0.1116,-0.0037,0.0036,-0.0159,173,2019-08-07 16:32:50:778
-6.6524,-5.757,3.1925,-0.268,-0.3608,0.1116,0.0059,-0.0155,-0.0042,179,2019-08-07 16:32:50:784
-6.6524,-5.757,3.1925,-0.268,-0.3608,0.1116,0.0059,-0.0155,-0.0042,183,2019-08-07 16:32:50:788
-6.5088,-5.8095,3.1359,-0.268,-0.3608,0.1116,0.007,-0.0177,0.0097,188,2019-08-07 16:32:50:793
-6.5088,-5.8095,3.1359,-0.3866,-0.2839,0.2185,0.007,-0.0177,0.0097,194,2019-08-07 16:32:50:799
-6.5662,-5.8429,3.1878,-0.3866,-0.2839,0.2185,0.0123,-0.0187,0.0171,198,2019-08-07 16:32:50:803
-6.5662,-5.8429,3.1878,-0.3866,-0.2839,0.2185,0.0123,-0.0187,0.0171,203,2019-08-07 16:32:50:808
-6.5662,-5.8429,3.1878,-0.3866,-0.2839,0.2185,0.0123,-0.0187,0.0171,208,2019-08-07 16:32:50:813
-6.5519,-5.7618,3.1218,-0.3866,-0.2839,0.2185,0.0112,-0.0209,0.0256,213,2019-08-07 16:32:50:818
-6.5519,-5.7618,3.1218,-0.3877,-0.3518,0.1712,0.0112,-0.0209,0.0256,217,2019-08-07 16:32:50:822
-6.5519,-5.7618,3.1218,-0.3877,-0.3518,0.1712,0.008,-0.0134,0.032,223,2019-08-07 16:32:50:828
-6.5088,-5.7236,3.0982,-0.3877,-0.3518,0.1712,0.008,-0.0134,0.032,228,2019-08-07 16:32:50:833
-6.5088,-5.7236,3.0982,-0.3877,-0.3518,0.1712,0.0038,0.0143,0.031,233,2019-08-07 16:32:50:838
-6.6237,-5.6997,3.1171,-0.3248,-0.4278,0.2146,0.0038,0.0143,0.031,238,2019-08-07 16:32:50:843
-6.6237,-5.6997,3.1171,-0.3248,-0.4278,0.2146,0.0027,0.0388,0.0256,243,2019-08-07 16:32:50:848
-6.6237,-5.6997,3.1171,-0.3248,-0.4278,0.2146,0.0027,0.0388,0.0256,248,2019-08-07 16:32:50:853
-6.7193,-5.6663,3.0652,-0.3248,-0.4278,0.2146,0.0059,0.0633,0.0203,253,2019-08-07 16:32:50:858
-6.7193,-5.6663,3.0652,-0.1357,-0.3899,0.1468,0.0059,0.0633,0.0203,258,2019-08-07 16:32:50:863
-6.8246,-5.6758,3.1076,-0.1357,-0.3899,0.1468,0.007,0.0686,0.016,263,2019-08-07 16:32:50:868
-6.8246,-5.6758,3.1076,-0.1357,-0.3899,0.1468,0.007,0.0686,0.016,267,2019-08-07 16:32:50:872
-6.8246,-5.6758,3.1076,-0.1357,-0.3899,0.1468,0.0038,0.0505,0.016,273,2019-08-07 16:32:50:878
-6.8342,-5.6806,3.1972,-0.1047,-0.4193,0.1012,0.0038,0.0505,0.016,277,2019-08-07 16:32:50:882
-6.8342,-5.6806,3.1972,-0.1047,-0.4193,0.1012,0.007,0.0239,0.0139,283,2019-08-07 16:32:50:888
-6.8342,-5.6806,3.1972,-0.1047,-0.4193,0.1012,0.007,0.0239,0.0139,288,2019-08-07 16:32:50:893
-6.8007,-5.7188,3.2302,-0.1047,-0.4193,0.1012,0.007,0.0239,0.0139,293,2019-08-07 16:32:50:898
-6.8007,-5.7188,3.2302,-0.142,-0.42,0.063,0.0102,-0.0081,0.016,297,2019-08-07 16:32:50:902
-6.7768,-5.7092,3.216,-0.142,-0.42,0.063,0.0102,-0.0081,0.016,303,2019-08-07 16:32:50:908
-6.7768,-5.7092,3.216,-0.142,-0.42,0.063,0.0091,-0.0475,0.0299,308,2019-08-07 16:32:50:913
-6.7768,-5.7092,3.216,-0.142,-0.42,0.063,0.0091,-0.0475,0.0299,313,2019-08-07 16:32:50:918
-6.6476,-5.8286,3.0793,-0.2967,-0.2619,0.2252,6.0E-4,-0.0613,0.0384,317,2019-08-07 16:32:50:922
-6.6476,-5.8286,3.0793,-0.2967,-0.2619,0.2252,6.0E-4,-0.0613,0.0384,323,2019-08-07 16:32:50:928
-6.6476,-5.8286,3.0793,-0.2967,-0.2619,0.2252,6.0E-4,-0.0549,0.0373,328,2019-08-07 16:32:50:933
-6.5088,-5.7522,3.0699,-0.2967,-0.2619,0.2252,6.0E-4,-0.0549,0.0373,333,2019-08-07 16:32:50:938
-6.5088,-5.7522,3.0699,-0.4652,-0.2518,0.2325,0.0016,-0.0294,0.0416,338,2019-08-07 16:32:50:943
-6.4371,-5.8143,3.0558,-0.4652,-0.2518,0.2325,0.0016,-0.0294,0.0416,343,2019-08-07 16:32:50:948
-6.4371,-5.8143,3.0558,-0.4652,-0.2518,0.2325,0.0027,0.0132,0.0405,348,2019-08-07 16:32:50:953
-6.4371,-5.8143,3.0558,-0.4652,-0.2518,0.2325,0.0027,0.0132,0.0405,353,2019-08-07 16:32:50:958
-6.6141,-5.7427,3.0558,-0.3365,-0.3373,0.2547,0.0059,0.0654,0.0373,358,2019-08-07 16:32:50:963
-6.6141,-5.7427,3.0558,-0.3365,-0.3373,0.2547,0.0059,0.0654,0.0373,363,2019-08-07 16:32:50:968
-6.6141,-5.7427,3.0558,-0.3365,-0.3373,0.2547,0.0059,0.0654,0.0373,367,2019-08-07 16:32:50:972
-6.7289,-5.7188,3.1548,-0.3365,-0.3373,0.2547,0.0091,0.0825,0.032,373,2019-08-07 16:32:50:978
-6.7289,-5.7188,3.1548,-0.0884,-0.4216,0.1178,0.0112,0.0729,0.0342,378,2019-08-07 16:32:50:983
-6.8198,-5.6949,3.2113,-0.0884,-0.4216,0.1178,0.0112,0.0729,0.0342,383,2019-08-07 16:32:50:988
-6.8198,-5.6949,3.2113,-0.0884,-0.4216,0.1178,0.0112,0.0729,0.0342,387,2019-08-07 16:32:50:992
-6.8198,-5.6949,3.2113,-0.0884,-0.4216,0.1178,0.0102,0.0452,0.032,393,2019-08-07 16:32:50:998
-6.8916,-5.6806,3.2302,-0.0687,-0.3908,0.0783,0.0102,0.0452,0.032,398,2019-08-07 16:32:51:003
-6.8916,-5.6806,3.2302,-0.0687,-0.3908,0.0783,0.008,0.0079,0.031,403,2019-08-07 16:32:51:008
-6.8724,-5.7188,3.216,-0.0687,-0.3908,0.0783,0.008,0.0079,0.031,407,2019-08-07 16:32:51:012
-6.8724,-5.7188,3.216,-0.0687,-0.3908,0.0783,0.0123,-0.0294,0.0288,413,2019-08-07 16:32:51:018
-6.8724,-5.7188,3.216,-0.1823,-0.2703,0.1288,0.0123,-0.0294,0.0288,417,2019-08-07 16:32:51:022
-6.7481,-5.7713,3.183,-0.1823,-0.2703,0.1288,0.008,-0.056,0.031,423,2019-08-07 16:32:51:028
-6.7481,-5.7713,3.183,-0.1823,-0.2703,0.1288,0.008,-0.056,0.031,428,2019-08-07 16:32:51:033
-6.6237,-5.7952,3.0841,-0.1823,-0.2703,0.1288,0.007,-0.0464,0.0331,433,2019-08-07 16:32:51:038
-6.6237,-5.7952,3.0841,-0.3359,-0.2415,0.1981,0.007,-0.0464,0.0331,438,2019-08-07 16:32:51:043
-6.6237,-5.7952,3.0841,-0.3359,-0.2415,0.1981,0.0027,-0.0251,0.0331,443,2019-08-07 16:32:51:048
-6.6332,-5.8238,3.1453,-0.3895,-0.2298,0.2002,0.0027,-0.0251,0.0331,448,2019-08-07 16:32:51:053
-6.6332,-5.8238,3.1453,-0.3895,-0.2298,0.2002,0.0027,5.0E-4,0.0342,453,2019-08-07 16:32:51:058
-6.6237,-5.7904,3.1265,-0.3895,-0.2298,0.2002,0.0027,5.0E-4,0.0342,458,2019-08-07 16:32:51:063
-6.6237,-5.7904,3.1265,-0.3895,-0.2298,0.2002,0.0027,5.0E-4,0.0342,463,2019-08-07 16:32:51:068
-6.6237,-5.7904,3.1265,-0.3125,-0.2448,0.1984,6.0E-4,0.0345,0.0267,468,2019-08-07 16:32:51:073
-6.7194,-5.7999,3.0935,-0.3125,-0.2448,0.1984,6.0E-4,0.0345,0.0267,472,2019-08-07 16:32:51:077
-6.7194,-5.7999,3.0935,-0.3125,-0.2448,0.1984,-0.0048,0.0505,0.0203,478,2019-08-07 16:32:51:083
-6.8533,-5.7713,3.1783,-0.3125,-0.2448,0.1984,-0.0048,0.0505,0.0203,483,2019-08-07 16:32:51:088
-6.8533,-5.7713,3.1783,-0.1513,-0.2704,0.1247,-0.0069,0.0463,0.0182,487,2019-08-07 16:32:51:092
-6.8533,-5.7713,3.1783,-0.1513,-0.2704,0.1247,-0.0069,0.0463,0.0182,493,2019-08-07 16:32:51:098
-6.8198,-5.7283,3.2208,-0.1513,-0.2704,0.1247,-0.009,0.0345,0.0107,498,2019-08-07 16:32:51:103
-6.8198,-5.7283,3.2208,-0.1513,-0.2704,0.1247,-0.009,0.0345,0.0107,503,2019-08-07 16:32:51:108
-6.8198,-5.7283,3.2208,-0.1513,-0.2704,0.1247,-0.009,0.0345,0.0107,508,2019-08-07 16:32:51:113
-6.882,-5.7522,3.2019,-0.1077,-0.2924,0.0909,-0.0122,0.0132,0.0107,513,2019-08-07 16:32:51:118
-6.882,-5.7522,3.2019,-0.1077,-0.2924,0.0909,-0.0122,0.0132,0.0107,518,2019-08-07 16:32:51:123
-6.882,-5.7522,3.2019,-0.1077,-0.2924,0.0909,-0.0048,-0.0059,0.0065,522,2019-08-07 16:32:51:127
-6.8725,-5.7331,3.2019,-0.1956,-0.2718,0.1512,-0.0048,-0.0059,0.0065,528,2019-08-07 16:32:51:133
-6.8725,-5.7331,3.2019,-0.1956,-0.2718,0.1512,0.0016,-0.0198,0.0043,533,2019-08-07 16:32:51:138
-6.8055,-5.7904,3.1453,-0.1956,-0.2718,0.1512,0.0016,-0.0198,0.0043,538,2019-08-07 16:32:51:143
-6.8055,-5.7904,3.1453,-0.1956,-0.2718,0.1512,0.0038,-0.0251,0.0033,543,2019-08-07 16:32:51:148
-6.7576,-5.7427,3.1689,-0.2333,-0.2992,0.1264,0.0038,-0.0251,0.0033,548,2019-08-07 16:32:51:153
-6.7576,-5.7427,3.1689,-0.2333,-0.2992,0.1264,0.0134,-0.0219,0.0054,553,2019-08-07 16:32:51:158
-6.7576,-5.7427,3.1689,-0.2333,-0.2992,0.1264,0.0134,-0.0219,0.0054,558,2019-08-07 16:32:51:163
-6.7337,-5.7379,3.216,-0.2333,-0.2992,0.1264,0.0134,-0.0219,0.0054,562,2019-08-07 16:32:51:167
-6.7337,-5.7379,3.216,-0.2424,-0.4117,0.1735,0.0197,-0.0155,0.0022,568,2019-08-07 16:32:51:173
-6.7337,-5.7379,3.216,-0.2424,-0.4117,0.1735,0.0197,-0.0155,0.0022,573,2019-08-07 16:32:51:178
-6.7433,-5.6901,3.2019,-0.2424,-0.4117,0.1735,0.0102,-0.0198,0.0033,578,2019-08-07 16:32:51:183
-6.7433,-5.6901,3.2019,-0.2424,-0.4117,0.1735,0.0102,-0.0198,0.0033,583,2019-08-07 16:32:51:188
-6.7433,-5.6901,3.2019,-0.2424,-0.4117,0.1735,6.0E-4,-0.024,0.0075,588,2019-08-07 16:32:51:193
-6.6763,-5.714,3.183,-0.3138,-0.3238,0.1213,6.0E-4,-0.024,0.0075,593,2019-08-07 16:32:51:198
-6.6763,-5.714,3.183,-0.3138,-0.3238,0.1213,-0.0048,-0.0091,0.0054,598,2019-08-07 16:32:51:203
-6.6715,-5.7188,3.216,-0.3138,-0.3238,0.1213,-0.0048,-0.0091,0.0054,603,2019-08-07 16:32:51:208
-6.6715,-5.7188,3.216,-0.3138,-0.3238,0.1213,-0.0048,-0.0091,0.0054,608,2019-08-07 16:32:51:213
-6.6715,-5.7188,3.216,-0.3139,-0.2849,0.0942,-0.0016,0.0015,0.0043,613,2019-08-07 16:32:51:218
-6.6667,-5.7331,3.1736,-0.3139,-0.2849,0.0942,-0.0016,0.0015,0.0043,618,2019-08-07 16:32:51:223
-6.6667,-5.7331,3.1736,-0.3139,-0.2849,0.0942,-0.0037,0.0068,0.0011,623,2019-08-07 16:32:51:228
-6.705,-5.7427,3.1312,-0.3139,-0.2849,0.0942,-0.0037,0.0068,0.0011,628,2019-08-07 16:32:51:233
-6.705,-5.7427,3.1312,-0.2956,-0.2849,0.1302,-0.0069,0.0132,1.0E-4,633,2019-08-07 16:32:51:238
-6.705,-5.7427,3.1312,-0.2956,-0.2849,0.1302,-0.0069,0.0132,1.0E-4,637,2019-08-07 16:32:51:242
-6.7433,-5.7761,3.1453,-0.2956,-0.2849,0.1302,-0.0016,0.0047,1.0E-4,643,2019-08-07 16:32:51:248
-6.7433,-5.7761,3.1453,-0.2956,-0.2849,0.1302,-0.0016,0.0047,1.0E-4,648,2019-08-07 16:32:51:253
-6.7768,-5.7236,3.1312,-0.2296,-0.3275,0.1193,6.0E-4,-0.0102,0.0086,652,2019-08-07 16:32:51:257
-6.7768,-5.7236,3.1312,-0.2296,-0.3275,0.1193,6.0E-4,-0.0102,0.0086,658,2019-08-07 16:32:51:263
-6.7768,-5.7236,3.1312,-0.2296,-0.3275,0.1193,-0.0026,-0.0251,0.0118,663,2019-08-07 16:32:51:268
-6.705,-5.757,3.1406,-0.2296,-0.3275,0.1193,-0.0026,-0.0251,0.0118,667,2019-08-07 16:32:51:272
-6.705,-5.757,3.1406,-0.2683,-0.2923,0.2159,-0.0016,-0.0336,0.0118,673,2019-08-07 16:32:51:278
-6.7433,-5.757,3.0746,-0.2683,-0.2923,0.2159,-0.0016,-0.0336,0.0118,677,2019-08-07 16:32:51:282
-6.7433,-5.757,3.0746,-0.2683,-0.2923,0.2159,-0.0037,-0.0304,0.0171,684,2019-08-07 16:32:51:289
-6.7002,-5.7761,3.0275,-0.2683,-0.2923,0.2159,-0.0037,-0.0304,0.0171,688,2019-08-07 16:32:51:293
-6.7002,-5.7761,3.0275,-0.2827,-0.2952,0.2475,-0.0037,-0.0304,0.0171,693,2019-08-07 16:32:51:298
-6.7002,-5.7761,3.0275,-0.2827,-0.2952,0.2475,-0.0069,-0.0166,0.015,698,2019-08-07 16:32:51:303
-6.6811,-5.7808,3.0605,-0.2827,-0.2952,0.2475,-0.0069,-0.0166,0.015,703,2019-08-07 16:32:51:308
-6.6811,-5.7808,3.0605,-0.2827,-0.2952,0.2475,-0.0048,0.0026,0.016,708,2019-08-07 16:32:51:313
-6.6811,-5.7808,3.0605,-0.2939,-0.3841,0.2474,-0.0048,0.0026,0.016,712,2019-08-07 16:32:51:317
-6.7433,-5.6997,3.0888,-0.2939,-0.3841,0.2474,-5.0E-4,0.0218,0.0033,718,2019-08-07 16:32:51:323
-6.7433,-5.6997,3.0888,-0.2939,-0.3841,0.2474,-5.0E-4,0.0218,0.0033,723,2019-08-07 16:32:51:328
-6.7529,-5.652,3.0935,-0.2939,-0.3841,0.2474,-0.0037,0.025,0.0022,727,2019-08-07 16:32:51:332
-6.7529,-5.652,3.0935,-0.1914,-0.3211,0.2055,-0.0037,0.025,0.0022,733,2019-08-07 16:32:51:338
-6.7529,-5.652,3.0935,-0.1914,-0.3211,0.2055,-0.0058,0.0196,0.0011,737,2019-08-07 16:32:51:342
-6.7768,-5.6472,3.0511,-0.1914,-0.3211,0.2055,-0.0058,0.0196,0.0011,743,2019-08-07 16:32:51:348
-6.7768,-5.6472,3.0511,-0.1914,-0.3211,0.2055,0.0016,0.0164,-0.0053,748,2019-08-07 16:32:51:353
-6.7816,-5.7331,3.0935,-0.2173,-0.2967,0.207,0.0016,0.0164,-0.0053,753,2019-08-07 16:32:51:358
-6.7816,-5.7331,3.0935,-0.2173,-0.2967,0.207,0.0059,-0.007,-0.0021,758,2019-08-07 16:32:51:363
-6.7816,-5.7331,3.0935,-0.2173,-0.2967,0.207,0.0059,-0.007,-0.0021,763,2019-08-07 16:32:51:368
-6.6955,-5.652,3.1029,-0.2173,-0.2967,0.207,0.0102,-0.0187,0.0075,768,2019-08-07 16:32:51:373
-6.6955,-5.652,3.1029,-0.3753,-0.3576,0.242,0.0102,-0.0187,0.0075,772,2019-08-07 16:32:51:377
-6.6333,-5.7331,3.0652,-0.3753,-0.3576,0.242,0.0219,-0.0134,0.0107,778,2019-08-07 16:32:51:383
-6.6333,-5.7331,3.0652,-0.3753,-0.3576,0.242,0.0219,-0.0134,0.0107,783,2019-08-07 16:32:51:388
-6.6333,-5.7331,3.0652,-0.3753,-0.3576,0.242,0.0219,-0.0134,0.0107,788,2019-08-07 16:32:51:393
-6.638,-5.7665,3.1123,-0.3382,-0.283,0.2307,0.0347,0.0058,0.016,793,2019-08-07 16:32:51:398
-6.638,-5.7665,3.1123,-0.3382,-0.283,0.2307,0.0347,0.0058,0.016,798,2019-08-07 16:32:51:403
-6.6859,-5.7331,3.1642,-0.3382,-0.283,0.2307,0.0442,0.0047,0.0256,803,2019-08-07 16:32:51:408
-6.6859,-5.7331,3.1642,-0.3382,-0.283,0.2307,0.0442,0.0047,0.0256,808,2019-08-07 16:32:51:413
-6.6859,-5.7331,3.1642,-0.3171,-0.339,0.2256,0.0442,0.0047,0.0256,812,2019-08-07 16:32:51:417
-6.7629,-5.6758,3.0981,-0.3171,-0.339,0.2256,0.0464,0.0058,0.0224,818,2019-08-07 16:32:51:423
-6.7629,-5.6758,3.0981,-0.3171,-0.339,0.2256,0.0464,0.0058,0.0224,822,2019-08-07 16:32:51:427
-6.8011,-5.6089,3.183,-0.3171,-0.339,0.2256,0.0442,0.009,0.016,828,2019-08-07 16:32:51:433
-6.8011,-5.6089,3.183,-0.2056,-0.3374,0.0557,0.0442,0.009,0.016,832,2019-08-07 16:32:51:437
-6.8011,-5.6089,3.183,-0.2056,-0.3374,0.0557,0.0379,0.0026,0.015,838,2019-08-07 16:32:51:443
-6.7629,-5.5946,3.2112,-0.2056,-0.3374,0.0557,0.0379,0.0026,0.015,843,2019-08-07 16:32:51:448
-6.7629,-5.5946,3.2112,-0.2056,-0.3374,0.0557,0.0293,0.0026,0.0128,848,2019-08-07 16:32:51:453
-6.7724,-5.6042,3.2018,-0.2367,-0.4039,0.1165,0.0293,0.0026,0.0128,853,2019-08-07 16:32:51:458
-6.7724,-5.6042,3.2018,-0.2367,-0.4039,0.1165,0.0293,0.0026,0.0128,858,2019-08-07 16:32:51:463
-6.7724,-5.6042,3.2018,-0.2367,-0.4039,0.1165,0.0144,0.0111,0.0065,863,2019-08-07 16:32:51:468
-6.7485,-5.628,3.2018,-0.2618,-0.3785,0.1167,0.0144,0.0111,0.0065,868,2019-08-07 16:32:51:473
-6.7485,-5.628,3.2018,-0.2618,-0.3785,0.1167,0.0059,0.0132,0.0054,873,2019-08-07 16:32:51:478
-6.6816,-5.6519,3.1877,-0.2618,-0.3785,0.1167,0.0059,0.0132,0.0054,878,2019-08-07 16:32:51:483
-6.6816,-5.6519,3.1877,-0.2618,-0.3785,0.1167,6.0E-4,0.0111,0.0075,883,2019-08-07 16:32:51:488
-6.6816,-5.6519,3.1877,-0.3547,-0.2956,0.1865,6.0E-4,0.0111,0.0075,887,2019-08-07 16:32:51:492
-6.6911,-5.7378,3.1735,-0.3547,-0.2956,0.1865,-0.0016,0.0186,0.0086,893,2019-08-07 16:32:51:498
-6.6911,-5.7378,3.1735,-0.3547,-0.2956,0.1865,-0.0016,0.0186,0.0086,898,2019-08-07 16:32:51:503
-6.6911,-5.7378,3.1735,-0.3547,-0.2956,0.1865,-0.0016,0.0186,0.0086,903,2019-08-07 16:32:51:508
-6.7151,-5.7331,3.2442,-0.3664,-0.2512,0.062,0.007,0.0154,0.0139,908,2019-08-07 16:32:51:513
-6.7151,-5.7331,3.2442,-0.3664,-0.2512,0.062,0.007,0.0154,0.0139,913,2019-08-07 16:32:51:518
-6.6577,-5.7903,3.2395,-0.3664,-0.2512,0.062,0.0134,0.01,0.0214,918,2019-08-07 16:32:51:523
-6.6577,-5.7903,3.2395,-0.3664,-0.2512,0.062,0.0134,0.01,0.0214,923,2019-08-07 16:32:51:528
-6.6577,-5.7903,3.2395,-0.3069,-0.2334,0.1614,0.0187,0.0068,0.0203,927,2019-08-07 16:32:51:532
-6.7486,-5.7187,3.2018,-0.3069,-0.2334,0.1614,0.0187,0.0068,0.0203,933,2019-08-07 16:32:51:538
-6.7486,-5.7187,3.2018,-0.3069,-0.2334,0.1614,0.0208,0.0026,0.0224,937,2019-08-07 16:32:51:542
-6.7486,-5.7187,3.2018,-0.3069,-0.2334,0.1614,0.0208,0.0026,0.0224,943,2019-08-07 16:32:51:548
-6.7916,-5.6567,3.1924,-0.2289,-0.3383,0.1255,0.024,-0.0017,0.0192,948,2019-08-07 16:32:51:553
-6.7916,-5.6567,3.1924,-0.2289,-0.3383,0.1255,0.024,-0.0017,0.0192,953,2019-08-07 16:32:51:558
-6.8682,-5.6042,3.1971,-0.2289,-0.3383,0.1255,0.0208,0.0037,0.015,958,2019-08-07 16:32:51:563
-6.8682,-5.6042,3.1971,-0.2289,-0.3383,0.1255,0.0208,0.0037,0.015,963,2019-08-07 16:32:51:568
-6.8682,-5.6042,3.1971,-0.2361,-0.3867,0.1984,0.0155,5.0E-4,0.0065,967,2019-08-07 16:32:51:572
-6.8012,-5.6519,3.1169,-0.2361,-0.3867,0.1984,0.0155,5.0E-4,0.0065,973,2019-08-07 16:32:51:578
-6.8012,-5.6519,3.1169,-0.2361,-0.3867,0.1984,0.0123,0.0164,-0.0042,978,2019-08-07 16:32:51:583
-6.8203,-5.5755,3.1735,-0.2361,-0.3867,0.1984,0.0123,0.0164,-0.0042,983,2019-08-07 16:32:51:588
-6.8203,-5.5755,3.1735,-0.214,-0.4424,0.108,0.0134,0.0228,-0.0074,987,2019-08-07 16:32:51:592
-6.8203,-5.5755,3.1735,-0.214,-0.4424,0.108,0.0134,0.0228,-0.0074,993,2019-08-07 16:32:51:598
-6.7342,-5.5994,3.1405,-0.214,-0.4424,0.108,0.0144,0.0175,1.0E-4,998,2019-08-07 16:32:51:603
-6.7342,-5.5994,3.1405,-0.214,-0.4424,0.108,0.0144,0.0175,1.0E-4,1002,2019-08-07 16:32:51:607
-6.7103,-5.6471,3.1358,-0.2827,-0.3886,0.1728,0.0112,0.0047,0.0033,1008,2019-08-07 16:32:51:613
-6.7103,-5.6471,3.1358,-0.2827,-0.3886,0.1728,0.0112,0.0047,0.0033,1013,2019-08-07 16:32:51:618
-6.7103,-5.6471,3.1358,-0.2827,-0.3886,0.1728,0.0155,-0.0049,0.0075,1017,2019-08-07 16:32:51:622
-6.6529,-5.671,3.1735,-0.2827,-0.3886,0.1728,0.0155,-0.0049,0.0075,1023,2019-08-07 16:32:51:628
-6.6529,-5.671,3.1735,-0.3936,-0.2571,0.133,0.0229,-0.0123,0.0224,1028,2019-08-07 16:32:51:633
-6.6721,-5.7331,3.1217,-0.3936,-0.2571,0.133,0.0229,-0.0123,0.0224,1033,2019-08-07 16:32:51:638
-6.6721,-5.7331,3.1217,-0.3936,-0.2571,0.133,0.0315,-0.0187,0.0278,1037,2019-08-07 16:32:51:642
-6.6721,-5.7331,3.1217,-0.3936,-0.2571,0.133,0.0315,-0.0187,0.0278,1043,2019-08-07 16:32:51:648
-6.6721,-5.6042,3.0981,-0.3575,-0.3753,0.2288,0.0368,-0.0219,0.0342,1048,2019-08-07 16:32:51:653
-6.6721,-5.6042,3.0981,-0.3575,-0.3753,0.2288,0.0368,-0.0219,0.0342,1053,2019-08-07 16:32:51:658
-6.6721,-5.6042,3.0981,-0.3575,-0.3753,0.2288,0.0315,-0.0219,0.0395,1058,2019-08-07 16:32:51:663
-6.6816,-5.5469,3.1075,-0.3575,-0.3753,0.2288,0.0315,-0.0219,0.0395,1063,2019-08-07 16:32:51:668
-6.6816,-5.5469,3.1075,-0.3663,-0.4053,0.3007,0.0155,-0.0123,0.0416,1068,2019-08-07 16:32:51:673
-6.629,-5.5421,3.1358,-0.3663,-0.4053,0.3007,0.0155,-0.0123,0.0416,1073,2019-08-07 16:32:51:678
-6.629,-5.5421,3.1358,-0.3663,-0.4053,0.3007,0.0123,0.009,0.0405,1078,2019-08-07 16:32:51:683
-6.6721,-5.5755,3.0839,-0.3663,-0.4053,0.3007,0.0123,0.009,0.0405,1083,2019-08-07 16:32:51:688
-6.6721,-5.5755,3.0839,-0.4008,-0.3843,0.2489,0.0048,0.0377,0.0384,1088,2019-08-07 16:32:51:693
-6.6721,-5.5755,3.0839,-0.4008,-0.3843,0.2489,0.0048,0.0377,0.0384,1093,2019-08-07 16:32:51:698
-6.6625,-5.6376,3.1782,-0.4008,-0.3843,0.2489,0.0027,0.0633,0.0395,1098,2019-08-07 16:32:51:703
-6.6625,-5.6376,3.1782,-0.4008,-0.3843,0.2489,0.0027,0.0633,0.0395,1103,2019-08-07 16:32:51:708
-6.6625,-5.6376,3.1782,-0.2755,-0.326,0.1324,0.0016,0.0782,0.0331,1107,2019-08-07 16:32:51:712
-6.7821,-5.6233,3.1499,-0.2755,-0.326,0.1324,0.0016,0.0782,0.0331,1113,2019-08-07 16:32:51:718
-6.7821,-5.6233,3.1499,-0.2755,-0.326,0.1324,0.0112,0.0697,0.0299,1118,2019-08-07 16:32:51:723
-6.8922,-5.6089,3.2866,-0.2755,-0.326,0.1324,0.0112,0.0697,0.0299,1123,2019-08-07 16:32:51:728
-6.8922,-5.6089,3.2866,-0.1121,-0.3726,0.0536,0.0165,0.0313,0.0288,1128,2019-08-07 16:32:51:733
-6.8922,-5.6089,3.2866,-0.1121,-0.3726,0.0536,0.0165,0.0313,0.0288,1133,2019-08-07 16:32:51:738
-6.873,-5.5469,3.2489,-0.1121,-0.3726,0.0536,0.0112,-0.0091,0.032,1138,2019-08-07 16:32:51:743
-6.873,-5.5469,3.2489,-0.1121,-0.3726,0.0536,0.0112,-0.0091,0.032,1143,2019-08-07 16:32:51:748
-6.8443,-5.6328,3.1876,-0.2169,-0.3138,0.131,0.0091,-0.0326,0.031,1148,2019-08-07 16:32:51:753
-6.8443,-5.6328,3.1876,-0.2169,-0.3138,0.131,0.0091,-0.0326,0.031,1153,2019-08-07 16:32:51:758
-6.8443,-5.6328,3.1876,-0.2169,-0.3138,0.131,0.0112,-0.0422,0.032,1158,2019-08-07 16:32:51:763
-6.7869,-5.7617,3.1735,-0.2169,-0.3138,0.131,0.0112,-0.0422,0.032,1163,2019-08-07 16:32:51:768
-6.7869,-5.7617,3.1735,-0.3188,-0.1605,0.2034,0.0102,-0.0283,0.0373,1168,2019-08-07 16:32:51:773
-6.7869,-5.7617,3.1735,-0.3188,-0.1605,0.2034,0.0102,-0.0283,0.0373,1173,2019-08-07 16:32:51:778
-6.6865,-5.7521,3.0368,-0.3188,-0.1605,0.2034,0.0102,-0.007,0.0331,1177,2019-08-07 16:32:51:782
-6.6865,-5.7521,3.0368,-0.3188,-0.1605,0.2034,0.0102,-0.007,0.0331,1183,2019-08-07 16:32:51:788
-6.6913,-5.7903,3.0698,-0.3747,-0.1463,0.2566,0.0112,0.0367,0.0256,1188,2019-08-07 16:32:51:793
-6.6913,-5.7903,3.0698,-0.3747,-0.1463,0.2566,0.0112,0.0367,0.0256,1193,2019-08-07 16:32:51:798
-6.6913,-5.7903,3.0698,-0.3747,-0.1463,0.2566,0.0112,0.0644,0.0224,1198,2019-08-07 16:32:51:803
-6.8396,-5.6376,3.1782,-0.3747,-0.1463,0.2566,0.0112,0.0644,0.0224,1203,2019-08-07 16:32:51:808
-6.8396,-5.6376,3.1782,-0.3747,-0.1463,0.2566,0.0112,0.0644,0.0224,1208,2019-08-07 16:32:51:813
-6.8396,-5.6376,3.1782,-0.1471,-0.238,0.0979,0.0059,0.074,0.0182,1213,2019-08-07 16:32:51:818
-6.9161,-5.6758,3.2159,-0.1471,-0.238,0.0979,0.0059,0.074,0.0182,1218,2019-08-07 16:32:51:823
-6.9161,-5.6758,3.2159,-0.1471,-0.238,0.0979,0.0016,0.058,0.0097,1223,2019-08-07 16:32:51:828
-7.0645,-5.6567,3.2253,-0.1471,-0.238,0.0979,0.0016,0.058,0.0097,1228,2019-08-07 16:32:51:833
-7.0645,-5.6567,3.2253,-6.0E-4,-0.2591,0.051,-0.0016,0.0313,0.0043,1233,2019-08-07 16:32:51:838
-7.0645,-5.6567,3.2253,-6.0E-4,-0.2591,0.051,-0.0016,0.0313,0.0043,1237,2019-08-07 16:32:51:842
-7.1171,-5.6423,3.3432,-6.0E-4,-0.2591,0.051,-0.0016,0.0313,0.0043,1243,2019-08-07 16:32:51:848
-7.1171,-5.6423,3.3432,-0.0548,-0.248,0.0506,-0.0026,-0.0262,0.0011,1248,2019-08-07 16:32:51:853
-6.9305,-5.6089,3.1641,-0.0548,-0.248,0.0506,-0.0026,-0.0262,0.0011,1253,2019-08-07 16:32:51:858
-6.9305,-5.6089,3.1641,-0.0548,-0.248,0.0506,-0.0037,-0.0635,-0.0031,1258,2019-08-07 16:32:51:863
-6.9305,-5.6089,3.1641,-0.0548,-0.248,0.0506,-0.0037,-0.0635,-0.0031,1263,2019-08-07 16:32:51:868
-6.8205,-5.6662,3.0462,-0.3188,-0.2769,0.2422,-0.0058,-0.0635,-0.0042,1268,2019-08-07 16:32:51:873
-6.8205,-5.6662,3.0462,-0.3188,-0.2769,0.2422,-0.0058,-0.0635,-0.0042,1273,2019-08-07 16:32:51:878
-6.7344,-5.6853,3.0415,-0.3188,-0.2769,0.2422,0.0027,-0.0219,-0.0095,1278,2019-08-07 16:32:51:883
-6.7344,-5.6853,3.0415,-0.3188,-0.2769,0.2422,0.0027,-0.0219,-0.0095,1284,2019-08-07 16:32:51:889
-6.7344,-5.6853,3.0415,-0.3188,-0.2769,0.2422,0.0027,-0.0219,-0.0095,1287,2019-08-07 16:32:51:892
-6.7727,-5.6567,3.0933,-0.3641,-0.245,0.1977,0.0123,0.0228,-0.017,1293,2019-08-07 16:32:51:898
-6.7727,-5.6567,3.0933,-0.3641,-0.245,0.1977,0.0123,0.0228,-0.017,1298,2019-08-07 16:32:51:903
-6.7727,-5.6567,3.0933,-0.3641,-0.245,0.1977,0.0144,0.0367,-0.0191,1302,2019-08-07 16:32:51:907
-6.8444,-5.566,3.1593,-0.3641,-0.245,0.1977,0.0144,0.0367,-0.0191,1308,2019-08-07 16:32:51:913
-6.8444,-5.566,3.1593,-0.2404,-0.3511,0.1001,0.0187,0.0367,-0.0234,1313,2019-08-07 16:32:51:918
-6.8444,-5.566,3.1593,-0.2404,-0.3511,0.1001,0.0187,0.0367,-0.0234,1318,2019-08-07 16:32:51:923
-6.9401,-5.5182,3.2489,-0.2404,-0.3511,0.1001,0.0144,0.0154,-0.0127,1322,2019-08-07 16:32:51:927
-6.9401,-5.5182,3.2489,-0.2404,-0.3511,0.1001,0.0144,0.0154,-0.0127,1328,2019-08-07 16:32:51:933
-6.9306,-5.5134,3.2725,-0.1448,-0.418,0.0431,0.0123,-0.0123,-0.0138,1333,2019-08-07 16:32:51:938
-6.9306,-5.5134,3.2725,-0.1448,-0.418,0.0431,0.0123,-0.0123,-0.0138,1337,2019-08-07 16:32:51:942
-6.9306,-5.5134,3.2725,-0.1448,-0.418,0.0431,0.0016,-0.0517,-0.0117,1343,2019-08-07 16:32:51:948
-6.8205,-5.5564,3.1923,-0.1448,-0.418,0.0431,0.0016,-0.0517,-0.0117,1348,2019-08-07 16:32:51:953
-6.8205,-5.5564,3.1923,-0.3233,-0.4564,0.1112,0.0016,-0.0517,-0.0117,1352,2019-08-07 16:32:51:957
-6.7057,-5.5278,3.0745,-0.3233,-0.4564,0.1112,0.0016,-0.0656,-0.0053,1358,2019-08-07 16:32:51:963
-6.7057,-5.5278,3.0745,-0.3233,-0.4564,0.1112,0.0016,-0.0656,-0.0053,1363,2019-08-07 16:32:51:968
-6.7057,-5.5278,3.0745,-0.3233,-0.4564,0.1112,0.0027,-0.0507,0.0011,1368,2019-08-07 16:32:51:973
-6.5861,-5.5373,3.1499,-0.4818,-0.3943,0.1812,0.0027,-0.0507,0.0011,1372,2019-08-07 16:32:51:977
-6.5861,-5.5373,3.1499,-0.4818,-0.3943,0.1812,0.0038,-0.0272,0.0096,1378,2019-08-07 16:32:51:983
-6.5765,-5.566,3.1829,-0.4818,-0.3943,0.1812,0.0038,-0.0272,0.0096,1383,2019-08-07 16:32:51:988
-6.5765,-5.566,3.1829,-0.4818,-0.3943,0.1812,0.0038,-6.0E-4,0.015,1388,2019-08-07 16:32:51:993
-6.5765,-5.566,3.1829,-0.4578,-0.3448,0.2035,0.0038,-6.0E-4,0.015,1393,2019-08-07 16:32:51:998
-6.6818,-5.5325,3.1546,-0.4578,-0.3448,0.2035,0.0091,0.0218,0.0203,1398,2019-08-07 16:32:52:003
-6.6818,-5.5325,3.1546,-0.4578,-0.3448,0.2035,0.0091,0.0218,0.0203,1403,2019-08-07 16:32:52:008
-6.6818,-5.5325,3.1546,-0.4578,-0.3448,0.2035,0.0091,0.0218,0.0203,1408,2019-08-07 16:32:52:013
-6.7392,-5.5469,3.1688,-0.3089,-0.3698,0.1539,0.0027,0.0282,0.0235,1413,2019-08-07 16:32:52:018
-6.7392,-5.5469,3.1688,-0.3089,-0.3698,0.1539,0.0027,0.0282,0.0235,1418,2019-08-07 16:32:52:023
-6.7392,-5.5803,3.1923,-0.3089,-0.3698,0.1539,0.0016,0.0218,0.031,1423,2019-08-07 16:32:52:028
-6.7392,-5.5803,3.1923,-0.3089,-0.3698,0.1539,0.0016,0.0218,0.031,1428,2019-08-07 16:32:52:033
-6.7392,-5.5803,3.1923,-0.2567,-0.2793,0.1415,-0.0016,0.01,0.0256,1433,2019-08-07 16:32:52:038
-6.7871,-5.5946,3.1735,-0.2567,-0.2793,0.1415,-0.0016,0.01,0.0256,1438,2019-08-07 16:32:52:043
-6.7871,-5.5946,3.1735,-0.2567,-0.2793,0.1415,-0.0016,0.01,0.0256,1442,2019-08-07 16:32:52:047
-6.7871,-5.5946,3.1735,-0.2538,-0.3012,0.2024,-0.0048,-0.0059,0.031,1448,2019-08-07 16:32:52:053
-6.7584,-5.5707,3.1687,-0.2538,-0.3012,0.2024,-0.0069,-0.0081,0.0352,1453,2019-08-07 16:32:52:058
-6.7584,-5.5707,3.1687,-0.2538,-0.3012,0.2024,-0.0069,-0.0081,0.0352,1458,2019-08-07 16:32:52:063
-6.6818,-5.6519,3.1829,-0.4006,-0.2635,0.1464,-0.0069,-0.0081,0.0352,1463,2019-08-07 16:32:52:068
-6.6818,-5.6519,3.1829,-0.4006,-0.2635,0.1464,-0.0016,-0.0049,0.0416,1468,2019-08-07 16:32:52:073
-6.6818,-5.6519,3.1829,-0.4006,-0.2635,0.1464,-0.0016,-0.0049,0.0416,1473,2019-08-07 16:32:52:078
-6.7201,-5.6996,3.1593,-0.4006,-0.2635,0.1464,6.0E-4,-0.0113,0.0555,1477,2019-08-07 16:32:52:082
-6.7201,-5.6996,3.1593,-0.4246,-0.2333,0.218,6.0E-4,-0.0113,0.0555,1482,2019-08-07 16:32:52:087
-6.7201,-5.6996,3.1593,-0.4246,-0.2333,0.218,0.007,-0.007,0.0618,1488,2019-08-07 16:32:52:093
-6.7632,-5.6805,3.1876,-0.4246,-0.2333,0.218,0.007,-0.007,0.0618,1493,2019-08-07 16:32:52:098
-6.7632,-5.6805,3.1876,-0.4246,-0.2333,0.218,0.0048,-0.0113,0.0746,1498,2019-08-07 16:32:52:103
-6.6866,-5.7092,3.164,-0.3454,-0.219,0.2058,0.0048,-0.0113,0.0746,1503,2019-08-07 16:32:52:108
-6.6866,-5.7092,3.164,-0.3454,-0.219,0.2058,0.0091,-0.0113,0.0757,1508,2019-08-07 16:32:52:113
-6.6771,-5.7378,3.1546,-0.4211,-0.1564,0.1787,0.0091,-0.0113,0.0757,1513,2019-08-07 16:32:52:118
-6.6771,-5.7378,3.1546,-0.4211,-0.1564,0.1787,0.0176,-0.0017,0.0746,1519,2019-08-07 16:32:52:124
-6.6771,-5.7378,3.1546,-0.4211,-0.1564,0.1787,0.0176,-0.0017,0.0746,1523,2019-08-07 16:32:52:128
-6.7775,-5.7092,3.1027,-0.4211,-0.1564,0.1787,0.0176,-0.0017,0.0746,1528,2019-08-07 16:32:52:133
-6.7775,-5.7092,3.1027,-0.3099,-0.1361,0.2126,0.0304,0.0186,0.0661,1533,2019-08-07 16:32:52:138
-6.7775,-5.7092,3.1027,-0.3099,-0.1361,0.2126,0.0304,0.0186,0.0661,1538,2019-08-07 16:32:52:143
-6.878,-5.7521,3.1169,-0.3099,-0.1361,0.2126,0.041,0.0409,0.0587,1543,2019-08-07 16:32:52:148
-6.878,-5.7521,3.1169,-0.3099,-0.1361,0.2126,0.041,0.0409,0.0587,1548,2019-08-07 16:32:52:153
-6.8924,-5.7569,3.098,-0.2236,-0.1164,0.2342,0.0442,0.0527,0.0491,1553,2019-08-07 16:32:52:158
-6.8924,-5.7569,3.098,-0.2236,-0.1164,0.2342,0.0442,0.0527,0.0491,1558,2019-08-07 16:32:52:163
-6.8924,-5.7569,3.098,-0.2236,-0.1164,0.2342,0.0506,0.059,0.0373,1563,2019-08-07 16:32:52:168
-7.012,-5.8142,3.2489,-0.2236,-0.1164,0.2342,0.0506,0.059,0.0373,1568,2019-08-07 16:32:52:173
-7.012,-5.8142,3.2489,-0.1359,-0.0786,0.1106,0.0634,0.0367,0.0342,1573,2019-08-07 16:32:52:178
-6.9689,-5.7569,3.23,-0.1359,-0.0786,0.1106,0.0634,0.0367,0.0342,1579,2019-08-07 16:32:52:184
-6.9689,-5.7569,3.23,-0.1359,-0.0786,0.1106,0.0613,0.0079,0.0288,1583,2019-08-07 16:32:52:188
-6.9785,-5.7473,3.3431,-0.1359,-0.0786,0.1106,0.0613,0.0079,0.0288,1588,2019-08-07 16:32:52:193
-6.9785,-5.7473,3.3431,-0.1359,-0.0786,0.1106,0.0613,0.0079,0.0288,1593,2019-08-07 16:32:52:198
-6.9785,-5.7473,3.3431,-0.1777,-0.0655,0.0187,0.0698,-0.0294,0.0246,1599,2019-08-07 16:32:52:204
-6.9355,-5.7855,3.395,-0.1777,-0.0655,0.0187,0.0698,-0.0294,0.0246,1603,2019-08-07 16:32:52:208
-6.9355,-5.7855,3.395,-0.1777,-0.0655,0.0187,0.0794,-0.073,0.0224,1608,2019-08-07 16:32:52:213
-6.8111,-5.7378,3.3997,-0.1777,-0.0655,0.0187,0.0794,-0.073,0.0224,1613,2019-08-07 16:32:52:218
-6.8111,-5.7378,3.3997,-0.2809,-0.0956,-0.0145,0.0794,-0.0997,0.0267,1618,2019-08-07 16:32:52:223
-6.8111,-5.7378,3.3997,-0.2809,-0.0956,-0.0145,0.0794,-0.0997,0.0267,1623,2019-08-07 16:32:52:228
-6.6676,-5.776,3.3667,-0.2809,-0.0956,-0.0145,0.0751,-0.1071,0.0224,1627,2019-08-07 16:32:52:232
-6.6676,-5.776,3.3667,-0.5334,-0.0166,-0.0083,0.0751,-0.1071,0.0224,1634,2019-08-07 16:32:52:239
-6.6676,-5.776,3.3667,-0.5334,-0.0166,-0.0083,0.0783,-0.0848,0.0203,1637,2019-08-07 16:32:52:242
-6.6149,-5.7951,3.3526,-0.5334,-0.0166,-0.0083,0.0783,-0.0848,0.0203,1644,2019-08-07 16:32:52:249
-6.6149,-5.7951,3.3526,-0.5334,-0.0166,-0.0083,0.0805,-0.0549,0.0235,1648,2019-08-07 16:32:52:253
-6.6628,-5.9335,3.3808,-0.5334,-0.0166,-0.0083,0.0805,-0.0549,0.0235,1653,2019-08-07 16:32:52:258
-6.6628,-5.9335,3.3808,-0.448,0.1284,-0.0263,0.089,-0.0155,0.032,1658,2019-08-07 16:32:52:263
-6.6628,-5.9335,3.3808,-0.448,0.1284,-0.0263,0.089,-0.0155,0.032,1664,2019-08-07 16:32:52:269
-6.6724,-5.9383,3.4138,-0.4434,0.1088,-0.0054,0.1028,0.0068,0.0352,1668,2019-08-07 16:32:52:273
-6.6724,-5.9383,3.4138,-0.4434,0.1088,-0.0054,0.1028,0.0068,0.0352,1672,2019-08-07 16:32:52:277
-6.6724,-5.9383,3.4138,-0.4434,0.1088,-0.0054,0.1177,0.0271,0.0427,1678,2019-08-07 16:32:52:283
-6.8877,-5.9908,3.428,-0.4434,0.1088,-0.0054,0.1177,0.0271,0.0427,1683,2019-08-07 16:32:52:288
-6.8877,-5.9908,3.428,-0.2189,0.1261,-0.0323,0.1359,0.0345,0.0597,1688,2019-08-07 16:32:52:293
-6.9834,-5.9669,3.5223,-0.2189,0.1261,-0.0323,0.1359,0.0345,0.0597,1693,2019-08-07 16:32:52:298
-6.9834,-5.9669,3.5223,-0.2189,0.1261,-0.0323,0.1604,0.0164,0.0661,1699,2019-08-07 16:32:52:304
-6.9834,-5.9669,3.5223,-0.2189,0.1261,-0.0323,0.1604,0.0164,0.0661,1703,2019-08-07 16:32:52:308
-7.213,-6.3966,4.1115,0.0847,0.4885,-0.5297,0.1966,-0.0187,0.0693,1708,2019-08-07 16:32:52:313
-7.213,-6.3966,4.1115,0.0847,0.4885,-0.5297,0.1966,-0.0187,0.0693,1713,2019-08-07 16:32:52:318
-7.213,-6.3966,4.1115,0.3269,0.858,-0.9149,0.2413,-0.0784,0.0768,1718,2019-08-07 16:32:52:323
-7.567,-6.8978,4.6866,0.3269,0.858,-0.9149,0.2413,-0.0784,0.0768,1723,2019-08-07 16:32:52:328
-7.567,-6.8978,4.6866,0.3269,0.858,-0.9149,0.3084,-0.1529,0.0853,1728,2019-08-07 16:32:52:333
-8.0742,-7.676,5.4738,0.3269,0.858,-0.9149,0.3084,-0.1529,0.0853,1733,2019-08-07 16:32:52:338
-8.0742,-7.676,5.4738,1.0585,2.0425,-2.1159,0.3084,-0.1529,0.0853,1738,2019-08-07 16:32:52:343
-8.0742,-7.676,5.4738,1.0585,2.0425,-2.1159,0.4128,-0.2659,0.0842,1743,2019-08-07 16:32:52:348
-8.6531,-8.4923,6.2186,1.0585,2.0425,-2.1159,0.4128,-0.2659,0.0842,1748,2019-08-07 16:32:52:353
-8.6531,-8.4923,6.2186,1.0585,2.0425,-2.1159,0.4128,-0.2659,0.0842,1754,2019-08-07 16:32:52:359
-8.6531,-8.4923,6.2186,1.8388,3.5489,-3.4157,0.4927,-0.3916,0.0906,1759,2019-08-07 16:32:52:364
-8.9832,-9.4518,7.2273,1.8388,3.5489,-3.4157,0.4927,-0.3916,0.0906,1763,2019-08-07 16:32:52:368
-8.9832,-9.4518,7.2273,1.8388,3.5489,-3.4157,0.6163,-0.5247,0.0618,1768,2019-08-07 16:32:52:373
-9.1507,-10.6119,8.6037,1.8388,3.5489,-3.4157,0.6163,-0.5247,0.0618,1774,2019-08-07 16:32:52:379
-9.1507,-10.6119,8.6037,2.0894,5.4164,-5.489,0.7995,-0.5897,-0.0404,1778,2019-08-07 16:32:52:383
-9.299,-11.8626,10.3667,2.0894,5.4164,-5.489,0.7995,-0.5897,-0.0404,1784,2019-08-07 16:32:52:389
-9.299,-11.8626,10.3667,2.0894,5.4164,-5.489,1.0744,-0.5343,-0.2183,1788,2019-08-07 16:32:52:393
-9.299,-11.8626,10.3667,2.0894,5.4164,-5.489,1.0744,-0.5343,-0.2183,1793,2019-08-07 16:32:52:398
-9.8587,-13.0752,12.2475,3.0319,7.8033,-8.7409,1.0744,-0.5343,-0.2183,1798,2019-08-07 16:32:52:403
-9.8587,-13.0752,12.2475,3.0319,7.8033,-8.7409,1.3918,-0.4981,-0.3632,1803,2019-08-07 16:32:52:408
-9.8587,-13.0752,12.2475,3.0319,7.8033,-8.7409,1.3918,-0.4981,-0.3632,1808,2019-08-07 16:32:52:413
-11.6497,-15.6672,16.0465,3.0319,7.8033,-8.7409,1.8701,-0.5897,-0.5081,1813,2019-08-07 16:32:52:418
-11.6497,-15.6672,16.0465,6.3925,11.4701,-14.5163,1.8701,-0.5897,-0.5081,1818,2019-08-07 16:32:52:423
-11.6497,-15.6672,16.0465,6.3925,11.4701,-14.5163,2.7106,-1.1159,-0.6348,1823,2019-08-07 16:32:52:428
-15.415,-17.4192,20.3172,6.3925,11.4701,-14.5163,2.7106,-1.1159,-0.6348,1827,2019-08-07 16:32:52:432
-15.415,-17.4192,20.3172,6.3925,11.4701,-14.5163,3.3103,-1.8701,-0.6807,1833,2019-08-07 16:32:52:438
-15.415,-17.4192,20.3172,12.8307,10.323,-17.724,3.3103,-1.8701,-0.6807,1838,2019-08-07 16:32:52:443
-15.415,-17.4192,20.3172,12.8307,10.323,-17.724,3.3103,-1.8701,-0.6807,1843,2019-08-07 16:32:52:448
-21.4766,-14.3639,23.6875,12.8307,10.323,-17.724,3.6193,-3.0707,-0.6902,1849,2019-08-07 16:32:52:454
-21.4766,-14.3639,23.6875,12.8307,10.323,-17.724,3.6193,-3.0707,-0.6902,1853,2019-08-07 16:32:52:458
-26.347,-11.3564,25.3515,20.1591,6.2934,-19.6672,3.4254,-5.6433,-0.6476,1857,2019-08-07 16:32:52:462
-26.347,-11.3564,25.3515,20.1591,6.2934,-19.6672,3.4254,-5.6433,-0.6476,1863,2019-08-07 16:32:52:468
-26.347,-11.3564,25.3515,20.1591,6.2934,-19.6672,2.8597,-7.5299,-0.7041,1868,2019-08-07 16:32:52:473
-27.5957,-10.2966,22.0,20.1591,6.2934,-19.6672,2.8597,-7.5299,-0.7041,1873,2019-08-07 16:32:52:478
-27.5957,-10.2966,22.0,20.9273,5.6536,-12.7309,2.244,-8.9222,-0.8958,1878,2019-08-07 16:32:52:483
-24.3616,-10.6021,17.9084,20.9273,5.6536,-12.7309,2.244,-8.9222,-0.8958,1883,2019-08-07 16:32:52:488
-24.3616,-10.6021,17.9084,20.9273,5.6536,-12.7309,2.244,-8.9222,-0.8958,1887,2019-08-07 16:32:52:492
-24.3616,-10.6021,17.9084,20.9273,5.6536,-12.7309,1.7529,-9.653,-1.4263,1893,2019-08-07 16:32:52:498
-20.7161,-10.4016,13.7555,16.4601,5.6282,-5.2158,1.7529,-9.653,-1.4263,1897,2019-08-07 16:32:52:502
-20.7161,-10.4016,13.7555,16.4601,5.6282,-5.2158,1.5026,-9.4719,-1.8056,1903,2019-08-07 16:32:52:508
-20.7161,-10.4016,13.7555,16.4601,5.6282,-5.2158,1.5026,-9.4719,-1.8056,1908,2019-08-07 16:32:52:513
-17.7164,-9.6951,11.2195,14.8359,5.1669,-3.0076,1.3716,-8.8316,-1.9686,1913,2019-08-07 16:32:52:518
-17.7164,-9.6951,11.2195,14.8359,5.1669,-3.0076,1.3716,-8.8316,-1.9686,1918,2019-08-07 16:32:52:523
-14.5397,-8.2725,10.1165,14.8359,5.1669,-3.0076,1.3098,-7.9251,-1.9856,1923,2019-08-07 16:32:52:528
-14.5397,-8.2725,10.1165,14.8359,5.1669,-3.0076,1.3098,-7.9251,-1.9856,1928,2019-08-07 16:32:52:533
-14.5397,-8.2725,10.1165,12.9169,2.9105,-1.3546,1.2278,-6.9546,-1.8152,1933,2019-08-07 16:32:52:538
-14.4297,-5.5419,9.1643,12.9169,2.9105,-1.3546,1.2278,-6.9546,-1.8152,1938,2019-08-07 16:32:52:543
-14.4297,-5.5419,9.1643,12.9169,2.9105,-1.3546,1.2278,-6.9546,-1.8152,1943,2019-08-07 16:32:52:548
-14.4297,-5.5419,9.1643,12.9169,2.9105,-1.3546,0.9668,-6.0992,-1.4263,1948,2019-08-07 16:32:52:553
-16.4917,-3.7326,9.1501,16.4008,-0.4836,-0.2928,0.9668,-6.0992,-1.4263,1953,2019-08-07 16:32:52:558
-16.4917,-3.7326,9.1501,16.4008,-0.4836,-0.2928,0.8251,-6.3464,-0.9864,1957,2019-08-07 16:32:52:562
-19.1948,-2.1047,6.1427,16.4008,-0.4836,-0.2928,0.8251,-6.3464,-0.9864,1963,2019-08-07 16:32:52:568
-19.1948,-2.1047,6.1427,16.4008,-0.4836,-0.2928,0.7473,-6.8332,-0.7478,1968,2019-08-07 16:32:52:573
-19.1948,-2.1047,6.1427,21.0834,-3.0879,4.6873,0.7473,-6.8332,-0.7478,1973,2019-08-07 16:32:52:578
-20.2569,0.0292,2.5461,21.0834,-3.0879,4.6873,0.7015,-7.6971,-0.5443,1978,2019-08-07 16:32:52:583
-20.2569,0.0292,2.5461,21.0834,-3.0879,4.6873,0.7015,-7.6971,-0.5443,1983,2019-08-07 16:32:52:588
-20.2569,0.0292,2.5461,21.0834,-3.0879,4.6873,0.791,-8.5451,-0.3845,1988,2019-08-07 16:32:52:593
-17.2286,2.9174,-3.1529,19.6907,-6.8322,11.8044,0.791,-8.5451,-0.3845,1993,2019-08-07 16:32:52:598
-17.2286,2.9174,-3.1529,19.6907,-6.8322,11.8044,0.8357,-8.8647,-0.4058,1998,2019-08-07 16:32:52:603
-12.6405,3.557,-7.8903,15.8514,-7.391,16.3299,0.8357,-8.8647,-0.4058,2002,2019-08-07 16:32:52:607
-12.6405,3.557,-7.8903,15.8514,-7.391,16.3299,0.8357,-8.8647,-0.4058,2008,2019-08-07 16:32:52:613
-12.6405,3.557,-7.8903,15.8514,-7.391,16.3299,0.7026,-8.8082,-0.4143,2013,2019-08-07 16:32:52:618
-5.8517,3.6764,-12.8257,15.8514,-7.391,16.3299,0.7026,-8.8082,-0.4143,2018,2019-08-07 16:32:52:623
-5.8517,3.6764,-12.8257,7.8989,-7.2537,20.1041,0.5865,-8.3501,-0.3259,2022,2019-08-07 16:32:52:627
-2.4884,3.8864,-13.0708,7.8989,-7.2537,20.1041,0.5865,-8.3501,-0.3259,2028,2019-08-07 16:32:52:633
-2.4884,3.8864,-13.0708,7.8989,-7.2537,20.1041,0.5257,-7.7632,-0.0468,2034,2019-08-07 16:32:52:639
-2.4884,3.8864,-13.0708,7.8989,-7.2537,20.1041,0.5257,-7.7632,-0.0468,2038,2019-08-07 16:32:52:643
-1.2684,4.1299,-16.0405,7.1267,-7.7377,23.0335,0.6216,-5.9128,0.4485,2043,2019-08-07 16:32:52:648
-1.2684,4.1299,-16.0405,7.1267,-7.7377,23.0335,0.6216,-5.9128,0.4485,2047,2019-08-07 16:32:52:652
-0.2255,3.495,-15.7388,7.1267,-7.7377,23.0335,0.7175,-4.4864,0.816,2053,2019-08-07 16:32:52:658
-0.2255,3.495,-15.7388,7.1267,-7.7377,23.0335,0.7175,-4.4864,0.816,2058,2019-08-07 16:32:52:663
-0.2255,3.495,-15.7388,6.0641,-6.3757,20.8196,0.7729,-3.5927,0.9513,2063,2019-08-07 16:32:52:668
0.6596,2.292,-13.4149,6.0641,-6.3757,20.8196,0.7729,-3.5927,0.9513,2068,2019-08-07 16:32:52:673
0.6596,2.292,-13.4149,6.0641,-6.3757,20.8196,0.693,-3.1186,0.9673,2072,2019-08-07 16:32:52:677
1.1667,2.3015,-11.3692,6.0641,-6.3757,20.8196,0.693,-3.1186,0.9673,2078,2019-08-07 16:32:52:683
1.1667,2.3015,-11.3692,5.8918,-5.9009,14.3012,0.4597,-3.6587,0.8576,2084,2019-08-07 16:32:52:689
1.1667,2.3015,-11.3692,5.8918,-5.9009,14.3012,0.4597,-3.6587,0.8576,2088,2019-08-07 16:32:52:693
1.1667,2.3015,-11.3692,5.8918,-5.9009,14.3012,0.4597,-3.6587,0.8576,2092,2019-08-07 16:32:52:697
-0.2399,2.1918,-10.7516,7.3196,-5.8827,16.4517,0.1444,-3.9453,0.62,2098,2019-08-07 16:32:52:703
-0.2399,2.1918,-10.7516,7.3196,-5.8827,16.4517,-0.188,-1.7615,0.2504,2103,2019-08-07 16:32:52:708
2.3196,0.1772,-12.3638,7.3196,-5.8827,16.4517,-0.188,-1.7615,0.2504,2108,2019-08-07 16:32:52:713
2.3196,0.1772,-12.3638,3.9205,-2.6746,13.7924,-0.188,-1.7615,0.2504,2113,2019-08-07 16:32:52:718
4.9987,-2.6728,-0.3907,3.9205,-2.6746,13.7924,-0.3158,-0.9263,-0.0681,2118,2019-08-07 16:32:52:723
4.9987,-2.6728,-0.3907,3.9205,-2.6746,13.7924,-0.3158,-0.9263,-0.0681,2123,2019-08-07 16:32:52:728
4.9987,-2.6728,-0.3907,3.9205,-2.6746,13.7924,-0.1773,-2.1386,-0.4037,2128,2019-08-07 16:32:52:733
4.659,-4.7207,-2.6816,2.9182,0.9428,7.6364,-0.1773,-2.1386,-0.4037,2134,2019-08-07 16:32:52:739
4.659,-4.7207,-2.6816,2.9182,0.9428,7.6364,-0.1773,-2.1386,-0.4037,2137,2019-08-07 16:32:52:742
4.659,-4.7207,-2.6816,2.9182,0.9428,7.6364,0.3702,-2.2952,-0.3121,2143,2019-08-07 16:32:52:748
8.9792,-5.1551,-6.8015,2.9182,0.9428,7.6364,0.5407,-2.178,-0.18,2148,2019-08-07 16:32:52:753
8.9792,-5.1551,-6.8015,-2.2265,1.386,10.7863,0.5407,-2.178,-0.18,2153,2019-08-07 16:32:52:758
8.9792,-5.1551,-6.8015,-2.2265,1.386,10.7863,0.5407,-2.178,-0.18,2158,2019-08-07 16:32:52:763
11.3378,-4.883,-6.6082,-2.2265,1.386,10.7863,0.6067,-2.0171,-0.1097,2163,2019-08-07 16:32:52:768
11.3378,-4.883,-6.6082,-2.2265,1.386,10.7863,0.6067,-2.0171,-0.1097,2169,2019-08-07 16:32:52:774
12.6725,-3.828,-7.9234,-4.4658,0.409,12.0759,0.5684,-1.1585,-0.1363,2173,2019-08-07 16:32:52:778
12.6725,-3.828,-7.9234,-4.4658,0.409,12.0759,0.5684,-1.1585,-0.1363,2178,2019-08-07 16:32:52:783
12.6725,-3.828,-7.9234,-4.8688,-0.4822,11.8849,0.4981,0.0367,-0.1597,2184,2019-08-07 16:32:52:789
12.8639,-2.7491,-7.1503,-4.8688,-0.4822,11.8849,0.4981,0.0367,-0.1597,2187,2019-08-07 16:32:52:792
12.8639,-2.7491,-7.1503,-4.8688,-0.4822,11.8849,0.4981,0.0367,-0.1597,2193,2019-08-07 16:32:52:798
12.8639,-2.7491,-7.1503,-4.3567,-1.1134,10.7527,0.3084,1.1701,-0.1193,2198,2019-08-07 16:32:52:803
11.3473,-2.1619,-5.6514,-4.3567,-1.1134,10.7527,0.3084,1.1701,-0.1193,2202,2019-08-07 16:32:52:807
11.3473,-2.1619,-5.6514,-4.3567,-1.1134,10.7527,0.0102,2.2098,0.0107,2208,2019-08-07 16:32:52:813
8.5819,-1.9042,-3.9214,-0.6102,-1.6689,8.3846,0.0102,2.2098,0.0107,2213,2019-08-07 16:32:52:818
8.5819,-1.9042,-3.9214,-0.6102,-1.6689,8.3846,-0.1177,2.8692,0.1044,2218,2019-08-07 16:32:52:823
8.5819,-1.9042,-3.9214,-0.6102,-1.6689,8.3846,-0.1177,2.8692,0.1044,2223,2019-08-07 16:32:52:828
5.4674,-1.3313,-1.8803,-0.6102,-1.6689,8.3846,-0.1539,2.85,0.1321,2228,2019-08-07 16:32:52:833
5.4674,-1.3313,-1.8803,3.7868,-2.6986,8.3685,-0.1539,2.85,0.1321,2233,2019-08-07 16:32:52:838
3.4388,-0.5484,-3.2803,3.7868,-2.6986,8.3685,-0.2199,2.9694,0.1375,2238,2019-08-07 16:32:52:843
3.4388,-0.5484,-3.2803,3.7868,-2.6986,8.3685,-0.2199,2.9694,0.1375,2243,2019-08-07 16:32:52:848
3.4388,-0.5484,-3.2803,3.7868,-2.6986,8.3685,-0.2199,2.9694,0.1375,2248,2019-08-07 16:32:52:853
1.927,0.3539,-4.1335,5.7829,-4.0609,9.4277,-0.3755,2.9044,0.1279,2252,2019-08-07 16:32:52:857
1.927,0.3539,-4.1335,5.7829,-4.0609,9.4277,-0.3755,2.9044,0.1279,2258,2019-08-07 16:32:52:863
1.1328,0.5066,-4.1288,5.7829,-4.0609,9.4277,-0.4777,3.111,0.1428,2263,2019-08-07 16:32:52:868
1.1328,0.5066,-4.1288,5.7829,-4.0609,9.4277,-0.4777,3.111,0.1428,2268,2019-08-07 16:32:52:873
1.1328,0.5066,-4.1288,6.2271,-4.3021,10.2061,-0.5225,3.6117,0.0554,2273,2019-08-07 16:32:52:878
0.8074,0.583,-4.6756,6.2271,-4.3021,10.2061,-0.5225,3.6117,0.0554,2278,2019-08-07 16:32:52:883
0.8074,0.583,-4.6756,6.2271,-4.3021,10.2061,-0.6173,4.0762,-0.1012,2284,2019-08-07 16:32:52:889
0.8074,0.583,-4.6756,6.2271,-4.3021,10.2061,-0.6173,4.0762,-0.1012,2288,2019-08-07 16:32:52:893
-0.5179,0.9458,-5.2083,6.2271,-4.3021,10.2061,-0.7249,4.4746,-0.1842,2293,2019-08-07 16:32:52:898
-0.5179,0.9458,-5.2083,7.4953,-4.8142,11.3136,-0.7249,4.4746,-0.1842,2298,2019-08-07 16:32:52:903
-0.5179,0.9458,-5.2083,7.4953,-4.8142,11.3136,-0.9528,5.2565,-0.2024,2303,2019-08-07 16:32:52:908
-2.0154,1.0318,-4.4352,7.4953,-4.8142,11.3136,-0.9528,5.2565,-0.2024,2308,2019-08-07 16:32:52:913
-2.0154,1.0318,-4.4352,7.4953,-4.8142,11.3136,-0.9528,5.2565,-0.2024,2312,2019-08-07 16:32:52:917
-2.9196,0.8885,-2.8844,8.7444,-4.8586,9.8318,-1.1286,5.7603,-0.1619,2317,2019-08-07 16:32:52:922
-2.9196,0.8885,-2.8844,8.7444,-4.8586,9.8318,-1.1286,5.7603,-0.1619,2323,2019-08-07 16:32:52:928
-2.9196,0.8885,-2.8844,8.7444,-4.8586,9.8318,-1.3065,6.2578,-0.0479,2328,2019-08-07 16:32:52:933
-4.2114,0.2918,-1.376,8.7444,-4.8586,9.8318,-1.3065,6.2578,-0.0479,2333,2019-08-07 16:32:52:938
-4.2114,0.2918,-1.376,9.7857,-4.0675,8.2488,-1.624,6.5209,0.1385,2338,2019-08-07 16:32:52:943
-5.197,-0.4959,-0.8669,9.7857,-4.0675,8.2488,-1.624,6.5209,0.1385,2343,2019-08-07 16:32:52:948
-5.197,-0.4959,-0.8669,9.7857,-4.0675,8.2488,-1.9606,6.7297,0.2994,2348,2019-08-07 16:32:52:953
-5.197,-0.4959,-0.8669,9.7857,-4.0675,8.2488,-1.9606,6.7297,0.2994,2353,2019-08-07 16:32:52:958
-6.4409,-1.1403,0.5614,10.2847,-3.388,7.4449,-1.9606,6.7297,0.2994,2358,2019-08-07 16:32:52:963
-6.4409,-1.1403,0.5614,10.2847,-3.388,7.4449,-2.343,6.979,0.4656,2364,2019-08-07 16:32:52:969
-6.4409,-1.1403,0.5614,10.2847,-3.388,7.4449,-2.343,6.979,0.4656,2367,2019-08-07 16:32:52:972
-7.7709,-2.1094,1.7257,10.2847,-3.388,7.4449,-2.8895,7.3071,0.7628,2373,2019-08-07 16:32:52:978
-7.7709,-2.1094,1.7257,10.9314,-2.2001,5.8924,-2.8895,7.3071,0.7628,2378,2019-08-07 16:32:52:983
-8.2829,-3.7516,3.5075,10.9314,-2.2001,5.8924,-2.8895,7.3071,0.7628,2383,2019-08-07 16:32:52:988
-8.2829,-3.7516,3.5075,10.9314,-2.2001,5.8924,-3.3167,7.6256,1.0973,2388,2019-08-07 16:32:52:993
-8.2925,-5.3747,5.2092,10.9314,-2.2001,5.8924,-3.3167,7.6256,1.0973,2393,2019-08-07 16:32:52:998
-8.2925,-5.3747,5.2092,9.7859,0.3572,2.7751,-3.3997,7.9345,1.2464,2399,2019-08-07 16:32:53:004
-8.2925,-5.3747,5.2092,9.7859,0.3572,2.7751,-3.3997,7.9345,1.2464,2403,2019-08-07 16:32:53:008
-8.2925,-5.3747,5.2092,9.7859,0.3572,2.7751,-3.3997,7.9345,1.2464,2408,2019-08-07 16:32:53:013
-9.1441,-8.2294,6.4819,9.7859,0.3572,2.7751,-3.4402,8.2392,1.2858,2414,2019-08-07 16:32:53:019
-9.1441,-8.2294,6.4819,10.3623,3.8398,-1.2613,-3.4402,8.2392,1.2858,2418,2019-08-07 16:32:53:023
-9.1441,-8.2294,6.4819,10.3623,3.8398,-1.2613,-3.2272,8.1146,1.223,2423,2019-08-07 16:32:53:028
-12.7228,-12.1583,12.3741,11.8934,5.869,-4.8913,-3.2272,8.1146,1.223,2428,2019-08-07 16:32:53:033
-12.7228,-12.1583,12.3741,11.8934,5.869,-4.8913,-2.8362,7.4978,1.126,2433,2019-08-07 16:32:53:038
-12.7228,-12.1583,12.3741,11.8934,5.869,-4.8913,-2.8362,7.4978,1.126,2438,2019-08-07 16:32:53:043
-15.3445,-13.1799,14.5896,11.8934,5.869,-4.8913,-2.6413,6.3857,0.962,2443,2019-08-07 16:32:53:048
-15.3445,-13.1799,14.5896,14.0712,6.0274,-7.9226,-2.6413,6.3857,0.962,2448,2019-08-07 16:32:53:053
-16.732,-11.3754,14.8206,14.0712,6.0274,-7.9226,-2.7031,4.8634,0.9172,2453,2019-08-07 16:32:53:058
-16.732,-11.3754,14.8206,14.0712,6.0274,-7.9226,-2.7031,4.8634,0.9172,2458,2019-08-07 16:32:53:063
-16.732,-11.3754,14.8206,14.0712,6.0274,-7.9226,-2.7979,3.7417,1.1069,2463,2019-08-07 16:32:53:068
-15.2537,-10.1962,14.0098,11.6107,3.2986,-7.3077,-2.7979,3.7417,1.1069,2468,2019-08-07 16:32:53:073
-15.2537,-10.1962,14.0098,11.6107,3.2986,-7.3077,-2.9939,2.5763,1.6033,2473,2019-08-07 16:32:53:078
-10.5508,-11.3372,11.7943,11.6107,3.2986,-7.3077,-2.9939,2.5763,1.6033,2478,2019-08-07 16:32:53:083
-10.5508,-11.3372,11.7943,11.6107,3.2986,-7.3077,-3.175,2.3781,1.7982,2484,2019-08-07 16:32:53:089
-10.5508,-12.8887,10.1256,4.9337,5.3392,-4.7239,-3.175,2.3781,1.7982,2488,2019-08-07 16:32:53:093
-7.9004,-12.8887,10.1256,4.9337,5.3392,-4.7239,-3.175,2.3781,1.7982,2493,2019-08-07 16:32:53:098
-7.9004,-12.8887,10.1256,4.9337,5.3392,-4.7239,-3.3007,2.6807,1.9026,2498,2019-08-07 16:32:53:103
-6.2785,-15.5143,9.4421,3.1995,7.0976,-4.1425,-3.3007,2.6807,1.9026,2503,2019-08-07 16:32:53:108
-6.2785,-15.5143,9.4421,3.1995,7.0976,-4.1425,-3.1633,3.6788,1.8983,2508,2019-08-07 16:32:53:113
-6.2785,-15.5143,9.4421,3.1995,7.0976,-4.1425,-3.1633,3.6788,1.8983,2513,2019-08-07 16:32:53:118
-6.3121,-17.4715,8.8529,2.361,10.0549,-4.1782,-2.8043,4.4415,1.811,2518,2019-08-07 16:32:53:123
-6.3121,-17.4715,8.8529,2.361,10.0549,-4.1782,-2.8043,4.4415,1.811,2523,2019-08-07 16:32:53:128
-8.5368,-17.7054,8.6926,2.361,10.0549,-4.1782,-2.8043,4.4415,1.811,2528,2019-08-07 16:32:53:133
-8.5368,-17.7054,8.6926,2.361,10.0549,-4.1782,-2.2716,4.9848,1.7439,2534,2019-08-07 16:32:53:139
-8.5368,-17.7054,8.6926,6.778,9.6763,-6.9065,-2.2716,4.9848,1.7439,2537,2019-08-07 16:32:53:142
-12.8905,-16.7793,11.3041,6.778,9.6763,-6.9065,-1.6335,4.367,1.6693,2543,2019-08-07 16:32:53:148
-12.8905,-16.7793,11.3041,6.778,9.6763,-6.9065,-1.6335,4.367,1.6693,2548,2019-08-07 16:32:53:153
-12.8905,-16.7793,11.3041,6.778,9.6763,-6.9065,-1.6335,4.367,1.6693,2552,2019-08-07 16:32:53:157
-14.1774,-15.6479,12.2987,8.5612,7.9353,-9.1774,-0.9358,2.7531,1.6214,2558,2019-08-07 16:32:53:163
-14.1774,-15.6479,12.2987,8.5612,7.9353,-9.1774,-0.9358,2.7531,1.6214,2563,2019-08-07 16:32:53:168
-12.6991,-14.4783,12.6145,7.0211,7.0752,-9.583,-0.3701,1.2298,1.5489,2568,2019-08-07 16:32:53:173
-12.6991,-14.4783,12.6145,7.0211,7.0752,-9.583,-0.3701,1.2298,1.5489,2573,2019-08-07 16:32:53:178
-12.6991,-14.4783,12.6145,7.0211,7.0752,-9.583,0.1071,-0.1348,1.3987,2579,2019-08-07 16:32:53:184
-9.1971,-13.2944,10.3188,7.0211,7.0752,-9.583,0.1071,-0.1348,1.3987,2583,2019-08-07 16:32:53:188
-9.1971,-13.2944,10.3188,1.9546,5.9025,-6.6212,0.514,-1.1031,1.1835,2588,2019-08-07 16:32:53:193
-9.1971,-13.2944,10.3188,1.9546,5.9025,-6.6212,0.514,-1.1031,1.1835,2593,2019-08-07 16:32:53:198
-5.3697,-12.5974,8.8953,-0.53,5.4503,-5.6785,0.7846,-1.0627,0.9204,2599,2019-08-07 16:32:53:204
-5.3697,-12.5974,8.8953,-0.53,5.4503,-5.6785,0.7846,-1.0627,0.9204,2603,2019-08-07 16:32:53:208
-5.3697,-12.5974,8.8953,-0.53,5.4503,-5.6785,0.7846,-1.0627,0.9204,2608,2019-08-07 16:32:53:213
-3.9249,-11.7429,6.8495,-0.53,5.4503,-5.6785,0.9252,-0.4778,0.6499,2613,2019-08-07 16:32:53:218
-3.9249,-11.7429,6.8495,-1.8163,4.015,-2.671,0.9252,-0.4778,0.6499,2619,2019-08-07 16:32:53:224
-3.9249,-11.7429,6.8495,-1.8163,4.015,-2.671,0.8357,0.6503,0.3207,2623,2019-08-07 16:32:53:228
-5.145,-10.2392,5.8926,-1.8163,4.015,-2.671,0.8357,0.6503,0.3207,2628,2019-08-07 16:32:53:233
-5.145,-10.2392,5.8926,-1.8163,4.015,-2.671,0.6802,1.3704,0.1225,2634,2019-08-07 16:32:53:239
-5.145,-10.2392,5.8926,-1.8163,4.015,-2.671,0.6802,1.3704,0.1225,2637,2019-08-07 16:32:53:242
-7.8816,-9.3894,5.3929,1.8467,2.4428,-1.9927,0.4182,1.6122,-0.0234,2643,2019-08-07 16:32:53:248
-7.8816,-9.3894,5.3929,1.8467,2.4428,-1.9927,0.4182,1.6122,-0.0234,2648,2019-08-07 16:32:53:253
-10.0728,-9.1125,6.0952,1.8467,2.4428,-1.9927,0.2605,1.1872,-0.1448,2653,2019-08-07 16:32:53:258
-10.0728,-9.1125,6.0952,1.8467,2.4428,-1.9927,0.2605,1.1872,-0.1448,2658,2019-08-07 16:32:53:263
-11.1445,-8.5826,6.4158,4.875,1.8253,-3.1635,0.2605,1.1872,-0.1448,2663,2019-08-07 16:32:53:268
-11.1445,-8.5826,6.4158,4.875,1.8253,-3.1635,0.1721,0.3371,-0.196,2668,2019-08-07 16:32:53:273
-11.1445,-8.5826,6.4158,4.875,1.8253,-3.1635,0.1721,0.3371,-0.196,2673,2019-08-07 16:32:53:278
-9.5848,-7.709,4.8508,2.9083,0.7952,-1.1711,0.0368,-0.8486,-0.1576,2678,2019-08-07 16:32:53:283
-9.5848,-7.709,4.8508,2.9083,0.7952,-1.1711,0.0368,-0.8486,-0.1576,2684,2019-08-07 16:32:53:289
-9.5848,-7.709,4.8508,2.9083,0.7952,-1.1711,-0.0463,-1.4036,-0.1448,2687,2019-08-07 16:32:53:292
-6.6904,-8.0289,2.9417,2.9083,0.7952,-1.1711,-0.0463,-1.4036,-0.1448,2693,2019-08-07 16:32:53:298
-6.6904,-8.0289,2.9417,-1.2285,1.2944,1.7084,-0.0527,-1.4898,-0.1811,2699,2019-08-07 16:32:53:304
-4.3461,-8.2389,1.4568,-1.2285,1.2944,1.7084,-0.0527,-1.4898,-0.1811,2703,2019-08-07 16:32:53:308
-4.3461,-8.2389,1.4568,-1.2285,1.2944,1.7084,-0.0527,-1.4898,-0.1811,2708,2019-08-07 16:32:53:313
-4.3461,-8.2389,1.4568,-1.2285,1.2944,1.7084,-0.0165,-1.0328,-0.246,2713,2019-08-07 16:32:53:318
-3.0544,-7.7377,0.745,-1.2285,1.2944,1.7084,-0.0165,-1.0328,-0.246,2717,2019-08-07 16:32:53:322
-3.0544,-7.7377,0.745,-3.2783,0.3031,2.9119,0.0166,-0.3298,-0.2823,2723,2019-08-07 16:32:53:328
-2.5569,-7.0502,0.7215,-3.2783,0.3031,2.9119,0.0166,-0.3298,-0.2823,2728,2019-08-07 16:32:53:333
-2.5569,-7.0502,0.7215,-3.2783,0.3031,2.9119,0.0592,0.483,-0.3046,2733,2019-08-07 16:32:53:338
-2.5569,-7.0502,0.7215,-3.2783,0.3031,2.9119,0.0592,0.483,-0.3046,2738,2019-08-07 16:32:53:343
-4.0831,-6.3103,1.9659,-1.757,-0.7437,1.5513,0.0847,1.2074,-0.2791,2743,2019-08-07 16:32:53:348
-4.0831,-6.3103,1.9659,-1.757,-0.7437,1.5513,0.0847,1.2074,-0.2791,2748,2019-08-07 16:32:53:353
-6.2025,-5.9475,3.6864,-1.757,-0.7437,1.5513,0.0847,1.2074,-0.2791,2753,2019-08-07 16:32:53:358
-6.2025,-5.9475,3.6864,-1.757,-0.7437,1.5513,0.073,1.3054,-0.2237,2758,2019-08-07 16:32:53:363
-6.2025,-5.9475,3.6864,1.6874,-1.2883,-1.2123,0.073,1.3054,-0.2237,2763,2019-08-07 16:32:53:368
-8.4416,-5.5894,5.0582,1.6874,-1.2883,-1.2123,0.0581,0.8356,-0.1949,2768,2019-08-07 16:32:53:373
-8.4416,-5.5894,5.0582,1.6874,-1.2883,-1.2123,0.0581,0.8356,-0.1949,2773,2019-08-07 16:32:53:378
-8.4416,-5.5894,5.0582,1.6874,-1.2883,-1.2123,0.0272,0.026,-0.1289,2778,2019-08-07 16:32:53:383
-9.2645,-5.3173,5.7181,3.2119,-1.7796,-2.3316,0.0272,0.026,-0.1289,2783,2019-08-07 16:32:53:388
-9.2645,-5.3173,5.7181,3.2119,-1.7796,-2.3316,-0.0207,-0.856,-0.0234,2788,2019-08-07 16:32:53:393
-7.8723,-5.5226,4.8036,3.2119,-1.7796,-2.3316,-0.0207,-0.856,-0.0234,2793,2019-08-07 16:32:53:398
-7.8723,-5.5226,4.8036,3.2119,-1.7796,-2.3316,-0.0474,-1.4366,0.0512,2798,2019-08-07 16:32:53:403
-7.8723,-5.5226,4.8036,0.1119,-0.9718,-0.1085,-0.0474,-1.4366,0.0512,2803,2019-08-07 16:32:53:408
-5.2197,-6.1959,3.1872,0.1119,-0.9718,-0.1085,-0.0474,-1.4366,0.0512,2808,2019-08-07 16:32:53:413
-5.2197,-6.1959,3.1872,-1.264,-0.7409,0.6878,-0.041,-1.5633,0.0608,2813,2019-08-07 16:32:53:418
-3.5404,-6.3582,2.1078,-1.264,-0.7409,0.6878,-0.041,-1.5633,0.0608,2818,2019-08-07 16:32:53:423
-3.5404,-6.3582,2.1078,-1.264,-0.7409,0.6878,0.0038,-1.1554,0.0501,2823,2019-08-07 16:32:53:428
-3.5404,-6.3582,2.1078,-1.264,-0.7409,0.6878,0.0038,-1.1554,0.0501,2828,2019-08-07 16:32:53:433
-2.7032,-6.4537,1.3771,-3.0168,-0.6145,2.3051,0.04,-0.4885,0.0182,2833,2019-08-07 16:32:53:438
-2.7032,-6.4537,1.3771,-3.0168,-0.6145,2.3051,0.04,-0.4885,0.0182,2838,2019-08-07 16:32:53:443
-2.7032,-6.4537,1.3771,-3.0168,-0.6145,2.3051,0.0581,0.3062,-0.0053,2842,2019-08-07 16:32:53:447
-3.239,-6.3153,1.7966,-3.0168,-0.6145,2.3051,0.0581,0.3062,-0.0053,2849,2019-08-07 16:32:53:454
-3.239,-6.3153,1.7966,-1.5429,-0.9004,1.3757,0.0581,0.3062,-0.0053,2853,2019-08-07 16:32:53:458
-4.9805,-6.067,2.5791,-1.5429,-0.9004,1.3757,0.0528,1.0476,-0.0053,2858,2019-08-07 16:32:53:463
-4.9805,-6.067,2.5791,0.038,-1.0944,0.6497,0.0528,1.0476,-0.0053,2863,2019-08-07 16:32:53:468
-4.9805,-6.067,2.5791,0.038,-1.0944,0.6497,0.0197,1.2639,0.0256,2867,2019-08-07 16:32:53:472
-6.9276,-5.962,3.5549,0.038,-1.0944,0.6497,0.0197,1.2639,0.0256,2873,2019-08-07 16:32:53:478
-6.9276,-5.962,3.5549,0.038,-1.0944,0.6497,-0.0261,1.1041,0.0373,2878,2019-08-07 16:32:53:483
-8.3868,-5.9095,4.262,2.7867,-1.148,-0.8758,-0.0261,1.1041,0.0373,2884,2019-08-07 16:32:53:489
-8.3868,-5.9095,4.262,2.7867,-1.148,-0.8758,-0.0953,0.4543,0.0746,2888,2019-08-07 16:32:53:493
-9.0327,-5.8808,4.7428,2.7867,-1.148,-0.8758,-0.0953,0.4543,0.0746,2893,2019-08-07 16:32:53:498
-9.0327,-5.8808,4.7428,2.7867,-1.148,-0.8758,-0.1326,-0.2424,0.0991,2899,2019-08-07 16:32:53:504
-9.0327,-5.8808,4.7428,2.4935,-1.1262,-0.8708,-0.1326,-0.2424,0.0991,2903,2019-08-07 16:32:53:508
-8.162,-5.9954,4.1394,2.4935,-1.1262,-0.8708,-0.1326,-0.2424,0.0991,2908,2019-08-07 16:32:53:513
-8.162,-5.9954,4.1394,2.4935,-1.1262,-0.8708,-0.1763,-0.9253,0.1215,2913,2019-08-07 16:32:53:518
-6.4062,-6.4489,3.1354,2.4935,-1.1262,-0.8708,-0.1763,-0.9253,0.1215,2918,2019-08-07 16:32:53:523
-6.4062,-6.4489,3.1354,-0.1081,-0.4017,0.726,-0.1603,-1.1277,0.1119,2923,2019-08-07 16:32:53:528
-6.4062,-6.4489,3.1354,-0.1081,-0.4017,0.726,-0.1603,-1.1277,0.1119,2928,2019-08-07 16:32:53:533
-4.9757,-6.8738,2.3246,-0.1081,-0.4017,0.726,-0.1038,-0.9039,0.0576,2934,2019-08-07 16:32:53:539
-4.9757,-6.8738,2.3246,-0.1081,-0.4017,0.726,-0.1038,-0.9039,0.0576,2938,2019-08-07 16:32:53:543
-4.1528,-7.0695,1.7542,-1.6479,0.0257,1.8477,-0.1038,-0.9039,0.0576,2943,2019-08-07 16:32:53:548
-4.1528,-7.0695,1.7542,-1.6479,0.0257,1.8477,-0.0538,-0.5311,0.0224,2949,2019-08-07 16:32:53:554
-4.1528,-7.0695,1.7542,-1.6479,0.0257,1.8477,-0.0538,-0.5311,0.0224,2954,2019-08-07 16:32:53:559
-4.1528,-7.0695,1.7542,-1.6479,0.0257,1.8477,-0.0538,-0.5311,0.0224,2957,2019-08-07 16:32:53:562
-4.1815,-7.1125,1.8956,-1.2315,-0.0298,1.329,0.0091,0.0505,-0.0223,2963,2019-08-07 16:32:53:568
-4.1815,-7.1125,1.8956,-1.2315,-0.0298,1.329,0.0091,0.0505,-0.0223,2968,2019-08-07 16:32:53:573
-5.1479,-6.7688,2.7913,-1.2315,-0.0298,1.329,0.0602,0.4894,-0.0223,2973,2019-08-07 16:32:53:578
-5.1479,-6.7688,2.7913,-1.2315,-0.0298,1.329,0.0602,0.4894,-0.0223,2977,2019-08-07 16:32:53:582
-6.0473,-6.5587,3.3852,0.239,-0.4977,0.1793,0.0602,0.597,-0.0181,2983,2019-08-07 16:32:53:588
-6.0473,-6.5587,3.3852,0.239,-0.4977,0.1793,0.0602,0.597,-0.0181,2988,2019-08-07 16:32:53:593
-6.0473,-6.5587,3.3852,0.239,-0.4977,0.1793,0.0602,0.597,-0.0181,2993,2019-08-07 16:32:53:598
-6.8942,-6.3678,3.8094,1.0658,-0.686,-0.2724,0.0442,0.4148,-0.0362,2998,2019-08-07 16:32:53:603
-6.8942,-6.3678,3.8094,1.0658,-0.686,-0.2724,0.0442,0.4148,-0.0362,3003,2019-08-07 16:32:53:608
-6.8942,-6.3678,3.8094,1.0658,-0.686,-0.2724,0.0464,-0.0049,0.0011,3008,2019-08-07 16:32:53:613
-7.1621,-6.3296,4.0074,1.0658,-0.686,-0.2724,0.0464,-0.0049,0.0011,3013,2019-08-07 16:32:53:618
-7.1621,-6.3296,4.0074,1.0658,-0.686,-0.2724,0.0464,-0.0049,0.0011,3017,2019-08-07 16:32:53:622
-7.0425,-6.3153,4.0169,1.0121,-0.7432,-0.3777,0.0474,-0.1849,0.0171,3023,2019-08-07 16:32:53:628
-7.0425,-6.3153,4.0169,1.0121,-0.7432,-0.3777,0.0474,-0.1849,0.0171,3029,2019-08-07 16:32:53:634
-7.0425,-6.3153,4.0169,1.0121,-0.7432,-0.3777,0.0538,-0.5684,0.0405,3032,2019-08-07 16:32:53:637
-5.4015,-6.616,2.9327,1.0121,-0.7432,-0.3777,0.0538,-0.5684,0.0405,3038,2019-08-07 16:32:53:643
-5.4015,-6.616,2.9327,-0.6442,-0.2328,0.8497,0.089,-0.497,0.0427,3043,2019-08-07 16:32:53:648
-5.4015,-6.616,2.9327,-0.6442,-0.2328,0.8497,0.089,-0.497,0.0427,3048,2019-08-07 16:32:53:653
-5.0092,-6.912,2.7158,-0.6442,-0.2328,0.8497,0.089,-0.497,0.0427,3052,2019-08-07 16:32:53:657
-5.0092,-6.912,2.7158,-0.6442,-0.2328,0.8497,0.1124,-0.3596,0.0373,3059,2019-08-07 16:32:53:664
-4.703,-6.9454,2.6169,-0.6442,-0.2328,0.8497,0.1124,-0.3596,0.0373,3063,2019-08-07 16:32:53:668
-4.703,-6.9454,2.6169,-1.0976,-0.0969,1.1053,0.1241,-0.1529,0.0235,3067,2019-08-07 16:32:53:672
-4.703,-6.9454,2.6169,-1.0976,-0.0969,1.1053,0.1241,-0.1529,0.0235,3073,2019-08-07 16:32:53:678
-4.7699,-6.807,2.7158,-1.0976,-0.0969,1.1053,0.1156,0.1517,0.0,3077,2019-08-07 16:32:53:682
-4.7699,-6.807,2.7158,-1.0976,-0.0969,1.1053,0.1156,0.1517,0.0,3083,2019-08-07 16:32:53:688
-4.7699,-6.807,2.7158,-0.6982,-0.307,0.7334,0.1018,0.3445,-0.0053,3088,2019-08-07 16:32:53:693
-5.3584,-6.6828,3.1966,-0.6982,-0.307,0.7334,0.1018,0.3445,-0.0053,3094,2019-08-07 16:32:53:699
-5.3584,-6.6828,3.1966,-0.6982,-0.307,0.7334,0.0911,0.418,0.0,3098,2019-08-07 16:32:53:703
-5.9947,-6.5826,3.5313,-0.6982,-0.307,0.7334,0.0911,0.418,0.0,3102,2019-08-07 16:32:53:707
-5.9947,-6.5826,3.5313,0.2865,-0.4715,-0.0252,0.0709,0.3658,0.0107,3108,2019-08-07 16:32:53:713
-5.9947,-6.5826,3.5313,0.2865,-0.4715,-0.0252,0.0709,0.3658,0.0107,3114,2019-08-07 16:32:53:719
-6.4205,-6.406,3.734,0.2865,-0.4715,-0.0252,0.0709,0.3658,0.0107,3117,2019-08-07 16:32:53:722
-6.4205,-6.406,3.734,0.2865,-0.4715,-0.0252,0.0315,0.1858,0.0192,3123,2019-08-07 16:32:53:728
-6.5927,-6.406,3.9084,0.7569,-0.557,-0.2286,0.0315,0.1858,0.0192,3128,2019-08-07 16:32:53:733
-6.5927,-6.406,3.9084,0.7569,-0.557,-0.2286,0.0048,0.0132,0.0139,3133,2019-08-07 16:32:53:738
-6.5927,-6.406,3.9084,0.7569,-0.557,-0.2286,0.0048,0.0132,0.0139,3137,2019-08-07 16:32:53:742
-6.5401,-6.5158,3.8424,0.7569,-0.557,-0.2286,-0.0111,-0.2062,0.0118,3143,2019-08-07 16:32:53:748
-6.5401,-6.5158,3.8424,0.5769,-0.388,-0.1168,-0.0111,-0.2062,0.0118,3148,2019-08-07 16:32:53:753
-6.0904,-6.721,3.5643,0.5769,-0.388,-0.1168,-0.0058,-0.3106,0.015,3153,2019-08-07 16:32:53:758
-6.0904,-6.721,3.5643,0.5769,-0.388,-0.1168,-0.0058,-0.3106,0.015,3158,2019-08-07 16:32:53:763
-6.0904,-6.721,3.5643,0.5769,-0.388,-0.1168,0.0187,-0.3212,0.0054,3164,2019-08-07 16:32:53:769
-5.6694,-6.8022,3.2909,-0.1508,-0.1898,0.3797,0.0187,-0.3212,0.0054,3168,2019-08-07 16:32:53:773
-5.6694,-6.8022,3.2909,-0.1508,-0.1898,0.3797,0.0347,-0.2531,-0.017,3173,2019-08-07 16:32:53:778
-5.5019,-6.7401,3.2768,-0.1508,-0.1898,0.3797,0.0347,-0.2531,-0.017,3178,2019-08-07 16:32:53:783
-5.5019,-6.7401,3.2768,-0.1508,-0.1898,0.3797,0.0464,-0.1625,-0.0287,3183,2019-08-07 16:32:53:788
-5.5019,-6.7401,3.2768,-0.3982,-0.2809,0.4254,0.0464,-0.1625,-0.0287,3188,2019-08-07 16:32:53:793
-5.3488,-6.6924,3.3239,-0.3982,-0.2809,0.4254,0.0538,-0.088,-0.0298,3193,2019-08-07 16:32:53:798
-5.3488,-6.6924,3.3239,-0.3982,-0.2809,0.4254,0.0538,-0.088,-0.0298,3198,2019-08-07 16:32:53:803
-5.3488,-6.6924,3.3239,-0.3982,-0.2809,0.4254,0.0538,-0.088,-0.0298,3202,2019-08-07 16:32:53:807
-5.2771,-6.6208,3.3004,-0.5132,-0.3725,0.4148,0.0687,0.0441,-0.0383,3208,2019-08-07 16:32:53:813
-5.2771,-6.6208,3.3004,-0.5132,-0.3725,0.4148,0.0687,0.0441,-0.0383,3213,2019-08-07 16:32:53:818
-5.2771,-6.6208,3.3004,-0.5132,-0.3725,0.4148,0.0794,0.1453,-0.0415,3218,2019-08-07 16:32:53:823
-5.5211,-6.4442,3.5408,-0.5132,-0.3725,0.4148,0.0794,0.1453,-0.0415,3222,2019-08-07 16:32:53:827
-5.5211,-6.4442,3.5408,-0.0742,-0.6661,0.146,0.089,0.173,-0.0298,3228,2019-08-07 16:32:53:833
-5.8368,-6.2437,3.6963,-0.0742,-0.6661,0.146,0.089,0.173,-0.0298,3233,2019-08-07 16:32:53:838
-5.8368,-6.2437,3.6963,-0.0742,-0.6661,0.146,0.0922,0.1379,0.0032,3238,2019-08-07 16:32:53:843
-5.8368,-6.2437,3.6963,-0.0742,-0.6661,0.146,0.0922,0.1379,0.0032,3243,2019-08-07 16:32:53:848
-6.0617,-6.406,3.899,0.2906,-0.5935,-0.1894,0.0954,0.0559,0.0192,3248,2019-08-07 16:32:53:853
-6.0617,-6.406,3.899,0.2906,-0.5935,-0.1894,0.0954,0.0559,0.0192,3253,2019-08-07 16:32:53:858
-6.0617,-6.406,3.899,0.2906,-0.5935,-0.1894,0.0954,0.0559,0.0192,3258,2019-08-07 16:32:53:863
-6.1909,-6.4585,3.8424,0.2906,-0.5935,-0.1894,0.089,-0.1093,0.0309,3263,2019-08-07 16:32:53:868
-6.1909,-6.4585,3.8424,0.1919,-0.4941,0.0151,0.089,-0.1093,0.0309,3268,2019-08-07 16:32:53:873
-6.1909,-6.4585,3.8424,0.1919,-0.4941,0.0151,0.089,-0.1093,0.0309,3272,2019-08-07 16:32:53:877
-5.7603,-6.5014,3.6822,0.1919,-0.4941,0.0151,0.0964,-0.2211,0.0501,3278,2019-08-07 16:32:53:883
-5.7603,-6.5014,3.6822,0.1919,-0.4941,0.0151,0.0964,-0.2211,0.0501,3283,2019-08-07 16:32:53:888
-5.4254,-6.616,3.5078,-0.3791,-0.3365,0.2615,0.106,-0.2073,0.0565,3288,2019-08-07 16:32:53:893
-5.4254,-6.616,3.5078,-0.3791,-0.3365,0.2615,0.106,-0.2073,0.0565,3293,2019-08-07 16:32:53:898
-5.4254,-6.616,3.5078,-0.3791,-0.3365,0.2615,0.1092,-0.137,0.0395,3298,2019-08-07 16:32:53:903
-5.4254,-6.4823,3.4182,-0.3791,-0.3365,0.2615,0.1092,-0.137,0.0395,3303,2019-08-07 16:32:53:908
-5.4254,-6.4823,3.4182,-0.442,-0.4771,0.389,0.1028,-0.0411,0.0267,3308,2019-08-07 16:32:53:913
-5.344,-6.4251,3.3899,-0.442,-0.4771,0.389,0.1028,-0.0411,0.0267,3312,2019-08-07 16:32:53:917
-5.344,-6.4251,3.3899,-0.442,-0.4771,0.389,0.0964,0.0537,0.0096,3318,2019-08-07 16:32:53:923
-5.344,-6.4251,3.3899,-0.442,-0.4771,0.389,0.0964,0.0537,0.0096,3323,2019-08-07 16:32:53:928
-5.5067,-6.3487,3.5785,-0.1954,-0.5403,0.2194,0.0911,0.1645,-0.0117,3328,2019-08-07 16:32:53:933
-5.5067,-6.3487,3.5785,-0.1954,-0.5403,0.2194,0.0911,0.1645,-0.0117,3333,2019-08-07 16:32:53:938
-5.9947,-6.3964,3.7717,-0.1954,-0.5403,0.2194,0.0847,0.2039,-0.0181,3337,2019-08-07 16:32:53:942
-5.9947,-6.3964,3.7717,-0.1954,-0.5403,0.2194,0.0847,0.2039,-0.0181,3343,2019-08-07 16:32:53:948
-5.9947,-6.3964,3.7717,0.3782,-0.4138,-0.1346,0.0762,0.1634,-0.0138,3349,2019-08-07 16:32:53:954
-6.2052,-6.5396,3.9367,0.3782,-0.4138,-0.1346,0.0762,0.1634,-0.0138,3353,2019-08-07 16:32:53:958
-6.2052,-6.5396,3.9367,0.3782,-0.4138,-0.1346,0.0687,0.0505,-0.0159,3358,2019-08-07 16:32:53:963
-6.2052,-6.5396,3.9367,0.3782,-0.4138,-0.1346,0.0687,0.0505,-0.0159,3362,2019-08-07 16:32:53:967
-6.3344,-6.5921,4.031,0.3272,-0.3403,-0.2355,0.0656,-0.0912,-0.0095,3368,2019-08-07 16:32:53:973
-6.3344,-6.5921,4.031,0.3272,-0.3403,-0.2355,0.0656,-0.0912,-0.0095,3373,2019-08-07 16:32:53:978
-5.8751,-6.6638,3.8943,0.3272,-0.3403,-0.2355,0.0634,-0.2115,0.0011,3377,2019-08-07 16:32:53:982
-5.8751,-6.6638,3.8943,0.3272,-0.3403,-0.2355,0.0634,-0.2115,0.0011,3383,2019-08-07 16:32:53:988
-5.8751,-6.6638,3.8943,0.3272,-0.3403,-0.2355,0.0634,-0.2115,0.0011,3387,2019-08-07 16:32:53:992
-5.3919,-6.7115,3.5832,-0.4169,-0.2014,0.2517,0.0624,-0.2712,-0.0031,3393,2019-08-07 16:32:53:998
-5.3919,-6.7115,3.5832,-0.4169,-0.2014,0.2517,0.0624,-0.2712,-0.0031,3398,2019-08-07 16:32:54:003
-5.2149,-6.7115,3.536,-0.4169,-0.2014,0.2517,0.0666,-0.2222,-0.0031,3403,2019-08-07 16:32:54:008
-5.2149,-6.7115,3.536,-0.6795,-0.2605,0.2912,0.0656,-0.121,0.0022,3408,2019-08-07 16:32:54:013
-5.2149,-6.7115,3.536,-0.6795,-0.2605,0.2912,0.0656,-0.121,0.0022,3413,2019-08-07 16:32:54:018
-5.0666,-6.5921,3.536,-0.6795,-0.2605,0.2912,0.0656,-0.121,0.0022,3417,2019-08-07 16:32:54:022
-5.0666,-6.5921,3.536,-0.6795,-0.2605,0.2912,0.0496,-0.0059,0.0096,3423,2019-08-07 16:32:54:028
-5.057,-6.5396,3.6775,-0.6795,-0.2605,0.2912,0.0496,-0.0059,0.0096,3428,2019-08-07 16:32:54:033
-5.057,-6.5396,3.6775,-0.6576,-0.4197,0.2492,0.0474,0.1326,0.0032,3433,2019-08-07 16:32:54:038
-5.057,-6.5396,3.6775,-0.6576,-0.4197,0.2492,0.0474,0.1326,0.0032,3437,2019-08-07 16:32:54:042
-5.5833,-6.4203,3.7765,-0.6576,-0.4197,0.2492,0.0474,0.2188,0.0043,3443,2019-08-07 16:32:54:048
-5.5833,-6.4203,3.7765,-0.6576,-0.4197,0.2492,0.0474,0.2188,0.0043,3448,2019-08-07 16:32:54:053
-5.9803,-6.4012,4.1017,0.129,-0.5383,-0.1721,0.04,0.2178,0.0107,3453,2019-08-07 16:32:54:058
-5.9803,-6.4012,4.1017,0.129,-0.5383,-0.1721,0.04,0.2178,0.0107,3458,2019-08-07 16:32:54:063
-5.9803,-6.4012,4.1017,0.129,-0.5383,-0.1721,0.0325,0.1336,0.0128,3464,2019-08-07 16:32:54:069
-6.1861,-6.4251,4.0169,0.129,-0.5383,-0.1721,0.0325,0.1336,0.0128,3468,2019-08-07 16:32:54:073
-6.1861,-6.4251,4.0169,0.3957,-0.4733,-0.1393,0.0176,0.0196,0.015,3473,2019-08-07 16:32:54:078
-6.1909,-6.5014,3.9179,0.3957,-0.4733,-0.1393,0.0176,0.0196,0.015,3477,2019-08-07 16:32:54:082
-6.1909,-6.5014,3.9179,0.3957,-0.4733,-0.1393,0.0166,-0.0635,0.0128,3483,2019-08-07 16:32:54:088
-6.1909,-6.5014,3.9179,0.3957,-0.4733,-0.1393,0.0166,-0.0635,0.0128,3487,2019-08-07 16:32:54:092
-6.0521,-6.554,3.9509,0.2326,-0.3341,-0.0876,0.0112,-0.1423,0.0064,3493,2019-08-07 16:32:54:098
-6.0521,-6.554,3.9509,0.2326,-0.3341,-0.0876,0.0112,-0.1423,0.0064,3498,2019-08-07 16:32:54:103
-5.7172,-6.5301,3.6445,0.2326,-0.3341,-0.0876,0.0112,-0.1423,0.0064,3503,2019-08-07 16:32:54:108
-5.7172,-6.5301,3.6445,0.2326,-0.3341,-0.0876,0.0016,-0.1561,-0.0042,3507,2019-08-07 16:32:54:112
-5.7172,-6.5301,3.6445,-0.2449,-0.3086,0.3647,0.0016,-0.1561,-0.0042,3513,2019-08-07 16:32:54:118
-5.5402,-6.5683,3.4983,-0.2449,-0.3086,0.3647,0.0038,-0.0922,-0.0202,3518,2019-08-07 16:32:54:123
-5.5402,-6.5683,3.4983,-0.2449,-0.3086,0.3647,0.0038,-0.0922,-0.0202,3523,2019-08-07 16:32:54:128
-5.5067,-6.5253,3.6445,-0.2449,-0.3086,0.3647,0.0112,-0.023,-0.034,3528,2019-08-07 16:32:54:133
-5.5067,-6.5253,3.6445,-0.2796,-0.3542,0.2829,0.0112,-0.023,-0.034,3533,2019-08-07 16:32:54:138
-5.5067,-6.5253,3.6445,-0.2796,-0.3542,0.2829,0.0038,0.0388,-0.0415,3537,2019-08-07 16:32:54:142
-5.4732,-6.3916,3.6633,-0.2796,-0.3542,0.2829,0.0038,0.0388,-0.0415,3544,2019-08-07 16:32:54:149
-5.4732,-6.3916,3.6633,-0.2796,-0.3542,0.2829,-0.009,0.0931,-0.033,3548,2019-08-07 16:32:54:153
-5.4732,-6.3916,3.6633,-0.2652,-0.5202,0.149,-0.009,0.0931,-0.033,3553,2019-08-07 16:32:54:158
-5.5545,-6.4394,3.8142,-0.2652,-0.5202,0.149,-0.0037,0.1677,-0.0276,3558,2019-08-07 16:32:54:163
-5.5545,-6.4394,3.8142,-0.2652,-0.5202,0.149,-0.0037,0.1677,-0.0276,3563,2019-08-07 16:32:54:168
-5.8607,-6.4537,3.8377,-0.2652,-0.5202,0.149,0.007,0.156,-0.0372,3568,2019-08-07 16:32:54:173
-5.8607,-6.4537,3.8377,0.1276,-0.432,-0.0245,0.007,0.156,-0.0372,3572,2019-08-07 16:32:54:177
-5.8607,-6.4537,3.8377,0.1276,-0.432,-0.0245,0.007,0.156,-0.0372,3578,2019-08-07 16:32:54:183
-6.0808,-6.5205,3.8802,0.1276,-0.432,-0.0245,0.0038,0.0857,-0.0138,3582,2019-08-07 16:32:54:187
-6.0808,-6.5205,3.8802,0.1276,-0.432,-0.0245,0.0038,0.0857,-0.0138,3588,2019-08-07 16:32:54:193
-6.0808,-6.5205,3.8802,0.197,-0.4262,-0.1371,0.0144,0.0079,-0.0063,3593,2019-08-07 16:32:54:198
-6.0043,-6.468,4.0074,0.197,-0.4262,-0.1371,0.0144,0.0079,-0.0063,3598,2019-08-07 16:32:54:203
-6.0043,-6.468,4.0074,0.197,-0.4262,-0.1371,0.0155,-0.0667,-0.0042,3603,2019-08-07 16:32:54:208
-5.8942,-6.5062,3.9084,0.197,-0.4262,-0.1371,0.0155,-0.0667,-0.0042,3608,2019-08-07 16:32:54:213
-5.8942,-6.5062,3.9084,-0.0154,-0.4279,0.0567,0.0134,-0.1188,-0.001,3613,2019-08-07 16:32:54:218
-5.8942,-6.5062,3.9084,-0.0154,-0.4279,0.0567,0.0134,-0.1188,-0.001,3618,2019-08-07 16:32:54:223
-5.6933,-6.4823,3.767,-0.0154,-0.4279,0.0567,0.0091,-0.122,-0.0021,3622,2019-08-07 16:32:54:227
-5.6933,-6.4823,3.767,-0.0154,-0.4279,0.0567,0.0091,-0.122,-0.0021,3628,2019-08-07 16:32:54:233
-5.6933,-6.4823,3.767,-0.0154,-0.4279,0.0567,0.0091,-0.122,-0.0021,3633,2019-08-07 16:32:54:238
-5.5785,-6.4585,3.734,-0.2268,-0.431,0.148,0.0112,-0.0954,-0.0031,3637,2019-08-07 16:32:54:242
-5.5785,-6.4585,3.734,-0.2268,-0.431,0.148,0.0112,-0.0954,-0.0031,3643,2019-08-07 16:32:54:248
-5.5689,-6.3678,3.6539,-0.2268,-0.431,0.148,-0.0048,-0.0507,-0.0106,3648,2019-08-07 16:32:54:253
-5.5689,-6.3678,3.6539,-0.2741,-0.474,0.2973,-0.0048,-0.0507,-0.0106,3652,2019-08-07 16:32:54:257
-5.5689,-6.3678,3.6539,-0.2741,-0.474,0.2973,-0.0186,-0.0134,-0.0149,3658,2019-08-07 16:32:54:263
-5.545,-6.3296,3.7387,-0.254,-0.6041,0.2023,-0.0186,-0.0134,-0.0149,3663,2019-08-07 16:32:54:268
-5.545,-6.3296,3.7387,-0.254,-0.6041,0.2023,-0.0207,0.0356,-0.0234,3668,2019-08-07 16:32:54:273
-5.6024,-6.2484,3.7859,-0.254,-0.6041,0.2023,-0.0207,0.0356,-0.0234,3673,2019-08-07 16:32:54:278
-5.6024,-6.2484,3.7859,-0.254,-0.6041,0.2023,-0.0335,0.0761,-0.0298,3678,2019-08-07 16:32:54:283
-5.6024,-6.2484,3.7859,-0.1557,-0.6604,0.0745,-0.0335,0.0761,-0.0298,3683,2019-08-07 16:32:54:288
-5.6359,-6.2341,3.7812,-0.1557,-0.6604,0.0745,-0.0495,0.1027,-0.0298,3688,2019-08-07 16:32:54:293
-5.6359,-6.2341,3.7812,-0.1557,-0.6604,0.0745,-0.0495,0.1027,-0.0298,3693,2019-08-07 16:32:54:298
-5.7746,-6.2914,3.7953,-0.1557,-0.6604,0.0745,-0.0516,0.1027,-0.0276,3699,2019-08-07 16:32:54:304
-5.7746,-6.2914,3.7953,0.0442,-0.5558,0.0469,-0.0516,0.1027,-0.0276,3703,2019-08-07 16:32:54:308
-5.7746,-6.2914,3.7953,0.0442,-0.5558,0.0469,-0.0484,0.0718,-0.0149,3708,2019-08-07 16:32:54:313
-5.8464,-6.3773,3.8896,0.0442,-0.5558,0.0469,-0.0484,0.0718,-0.0149,3713,2019-08-07 16:32:54:318
-5.8464,-6.3773,3.8896,0.0442,-0.5558,0.0469,-0.0538,0.025,0.0,3718,2019-08-07 16:32:54:323
-5.6981,-6.4203,3.8424,-0.113,-0.4824,0.0074,-0.0538,0.025,0.0,3723,2019-08-07 16:32:54:328
-5.6981,-6.4203,3.8424,-0.113,-0.4824,0.0074,-0.058,-0.0272,0.0182,3728,2019-08-07 16:32:54:333
-5.6981,-6.4203,3.8424,-0.113,-0.4824,0.0074,-0.058,-0.0272,0.0182,3733,2019-08-07 16:32:54:338
-5.7076,-6.5205,3.6727,-0.113,-0.4824,0.0074,-0.057,-0.0539,0.032,3737,2019-08-07 16:32:54:342
-5.7076,-6.5205,3.6727,-0.1286,-0.3159,0.1835,-0.057,-0.0539,0.032,3743,2019-08-07 16:32:54:348
-5.6837,-6.5587,3.7435,-0.1286,-0.3159,0.1835,-0.0612,-0.0677,0.0437,3748,2019-08-07 16:32:54:353
-5.6837,-6.5587,3.7435,-0.1286,-0.3159,0.1835,-0.0612,-0.0677,0.0437,3753,2019-08-07 16:32:54:358
-5.6837,-6.5587,3.7435,-0.1286,-0.3159,0.1835,-0.0612,-0.0677,0.0437,3758,2019-08-07 16:32:54:363
-5.5306,-6.5492,3.5596,-0.2449,-0.3678,0.3662,-0.0655,-0.0688,0.0437,3763,2019-08-07 16:32:54:368
-5.5306,-6.5492,3.5596,-0.2449,-0.3678,0.3662,-0.0655,-0.0688,0.0437,3768,2019-08-07 16:32:54:373
-5.5306,-6.5492,3.5596,-0.2449,-0.3678,0.3662,-0.0665,-0.0145,0.0384,3773,2019-08-07 16:32:54:378
-5.612,-6.5349,3.4418,-0.2449,-0.3678,0.3662,-0.0665,-0.0145,0.0384,3778,2019-08-07 16:32:54:383
-5.612,-6.5349,3.4418,-0.2449,-0.3678,0.3662,-0.0612,0.059,0.0245,3783,2019-08-07 16:32:54:388
-5.7507,-6.4298,3.4983,-0.1074,-0.4688,0.3511,-0.0612,0.059,0.0245,3788,2019-08-07 16:32:54:393
-5.7507,-6.4298,3.4983,-0.1074,-0.4688,0.3511,-0.0527,0.1017,0.0139,3793,2019-08-07 16:32:54:398
-5.7507,-6.4298,3.4983,-0.1074,-0.4688,0.3511,-0.0527,0.1017,0.0139,3799,2019-08-07 16:32:54:404
-5.832,-6.3916,3.4748,-0.1074,-0.4688,0.3511,-0.0527,0.1017,0.0139,3803,2019-08-07 16:32:54:408
-5.832,-6.3916,3.4748,-0.0136,-0.4796,0.2694,-0.0474,0.1304,0.0,3808,2019-08-07 16:32:54:413
-5.8804,-6.3534,3.5548,-0.0136,-0.4796,0.2694,-0.0474,0.1304,0.0,3813,2019-08-07 16:32:54:418
-5.8804,-6.3534,3.5548,-0.0136,-0.4796,0.2694,-0.0399,0.1389,-0.0213,3818,2019-08-07 16:32:54:423
-5.8804,-6.3534,3.5548,-0.0136,-0.4796,0.2694,-0.0399,0.1389,-0.0213,3823,2019-08-07 16:32:54:428
-6.0,-6.3725,3.5831,0.0946,-0.554,0.1574,-0.0271,0.1155,-0.0245,3827,2019-08-07 16:32:54:432
-6.0,-6.3725,3.5831,0.0946,-0.554,0.1574,-0.0271,0.1155,-0.0245,3833,2019-08-07 16:32:54:438
-6.0,-6.3725,3.5831,0.0946,-0.554,0.1574,-0.0261,0.074,-0.0159,3837,2019-08-07 16:32:54:442
-6.024,-6.53,3.6019,0.0946,-0.554,0.1574,-0.0261,0.074,-0.0159,3843,2019-08-07 16:32:54:448
-6.024,-6.53,3.6019,0.2073,-0.3653,0.034,-0.0271,0.0314,-0.0117,3848,2019-08-07 16:32:54:453
-5.9044,-6.6541,3.5595,0.2073,-0.3653,0.034,-0.0271,0.0314,-0.0117,3853,2019-08-07 16:32:54:458
-5.9044,-6.6541,3.5595,0.2073,-0.3653,0.034,-0.0484,-0.0528,0.0043,3859,2019-08-07 16:32:54:464
-5.9044,-6.6541,3.5595,0.2073,-0.3653,0.034,-0.0484,-0.0528,0.0043,3864,2019-08-07 16:32:54:469
-5.6843,-6.5634,3.4275,-0.1651,-0.3489,0.346,-0.0729,-0.0613,0.0054,3868,2019-08-07 16:32:54:473
-5.6843,-6.5634,3.4275,-0.1651,-0.3489,0.346,-0.0729,-0.0613,0.0054,3873,2019-08-07 16:32:54:478
-5.5695,-6.6064,3.8188,-0.1651,-0.3489,0.346,-0.0207,-0.0645,0.0299,3878,2019-08-07 16:32:54:483
-5.5695,-6.6064,3.8188,-0.1651,-0.3489,0.346,-0.0207,-0.0645,0.0299,3882,2019-08-07 16:32:54:487
-5.5695,-6.6064,3.8188,-0.5074,-0.2019,0.47,6.0E-4,-0.0453,0.0064,3887,2019-08-07 16:32:54:492
-5.5504,-6.5873,3.2154,-0.5074,-0.2019,0.47,6.0E-4,-0.0453,0.0064,3893,2019-08-07 16:32:54:498
-5.5504,-6.5873,3.2154,-0.5074,-0.2019,0.47,-0.0282,0.0015,0.0128,3898,2019-08-07 16:32:54:503
-5.5504,-6.5873,3.2154,-0.5074,-0.2019,0.47,-0.0282,0.0015,0.0128,3903,2019-08-07 16:32:54:508
-5.6652,-6.5491,3.3332,-0.1834,-0.3651,0.4383,-0.0282,0.0015,0.0128,3909,2019-08-07 16:32:54:514
-5.6652,-6.5491,3.3332,-0.1834,-0.3651,0.4383,-0.0293,0.0761,0.0022,3913,2019-08-07 16:32:54:518
-5.8374,-6.5205,3.3992,-0.1834,-0.3651,0.4383,-0.0293,0.0761,0.0022,3918,2019-08-07 16:32:54:523
-5.8374,-6.5205,3.3992,-0.1834,-0.3651,0.4383,-0.0154,0.0963,-0.0063,3923,2019-08-07 16:32:54:528
-5.8374,-6.5205,3.3992,0.0288,-0.3807,0.4094,-0.0154,0.0963,-0.0063,3928,2019-08-07 16:32:54:533
-5.9427,-6.6303,3.2484,0.0288,-0.3807,0.4094,-0.0335,0.1198,-0.0202,3933,2019-08-07 16:32:54:538
-5.9427,-6.6303,3.2484,0.0288,-0.3807,0.4094,-0.0335,0.1198,-0.0202,3938,2019-08-07 16:32:54:543
-5.8996,-6.5443,3.5736,0.0288,-0.3807,0.4094,-0.0293,0.1102,-0.0415,3943,2019-08-07 16:32:54:548
-5.8996,-6.5443,3.5736,0.0597,-0.2945,0.1068,-0.0293,0.1102,-0.0415,3948,2019-08-07 16:32:54:553
-5.8996,-6.5443,3.5736,0.0597,-0.2945,0.1068,0.0144,0.0974,-0.0404,3953,2019-08-07 16:32:54:558
-5.9858,-6.7019,3.5406,0.0597,-0.2945,0.1068,0.0144,0.0974,-0.0404,3957,2019-08-07 16:32:54:562
-5.9858,-6.7019,3.5406,0.0597,-0.2945,0.1068,0.0144,0.0974,-0.0404,3963,2019-08-07 16:32:54:568
-5.9858,-6.7019,3.5406,-0.1158,-0.1734,0.1714,0.0187,0.0804,-0.0287,3968,2019-08-07 16:32:54:573
-5.737,-6.7592,3.5171,-0.1158,-0.1734,0.1714,0.0187,0.0804,-0.0287,3973,2019-08-07 16:32:54:578
-5.737,-6.7592,3.5171,-0.1158,-0.1734,0.1714,0.0059,0.0654,-0.0319,3978,2019-08-07 16:32:54:583
-5.8231,-6.7067,3.7433,-0.1158,-0.1734,0.1714,0.0059,0.0654,-0.0319,3983,2019-08-07 16:32:54:588
-5.8231,-6.7067,3.7433,-0.0591,-0.1804,-0.0648,0.0197,0.025,-0.0202,3987,2019-08-07 16:32:54:592
-5.8231,-6.7067,3.7433,-0.0591,-0.1804,-0.0648,0.0197,0.025,-0.0202,3993,2019-08-07 16:32:54:598
-5.7418,-6.7305,3.7339,-0.0591,-0.1804,-0.0648,0.0293,-0.0219,-0.0085,3998,2019-08-07 16:32:54:603
-5.7418,-6.7305,3.7339,-0.0591,-0.1804,-0.0648,0.0293,-0.0219,-0.0085,4003,2019-08-07 16:32:54:608
-5.6748,-6.5252,3.6113,-0.1915,-0.3983,0.1152,0.0134,-0.0496,0.0107,4008,2019-08-07 16:32:54:613
-5.6748,-6.5252,3.6113,-0.1915,-0.3983,0.1152,0.0134,-0.0496,0.0107,4014,2019-08-07 16:32:54:619
-5.6748,-6.5252,3.6113,-0.1915,-0.3983,0.1152,0.0134,-0.0496,0.0107,4017,2019-08-07 16:32:54:622
-5.7992,-6.4202,3.6396,-0.1915,-0.3983,0.1152,-0.0122,-0.0336,0.0128,4023,2019-08-07 16:32:54:628
-5.7992,-6.4202,3.6396,-0.0673,-0.496,-0.0169,-0.0122,-0.0336,0.0128,4027,2019-08-07 16:32:54:632
-5.7992,-6.4202,3.6396,-0.0673,-0.496,-0.0169,-0.0229,-0.0549,0.0075,4033,2019-08-07 16:32:54:638
-5.847,-6.4918,3.7999,-0.0673,-0.496,-0.0169,-0.0229,-0.0549,0.0075,4037,2019-08-07 16:32:54:642
-5.847,-6.4918,3.7999,-0.0673,-0.496,-0.0169,-0.025,-0.0848,0.0032,4043,2019-08-07 16:32:54:648
-5.7466,-6.4059,3.6679,-0.117,-0.5143,0.069,-0.025,-0.0848,0.0032,4049,2019-08-07 16:32:54:654
-5.7466,-6.4059,3.6679,-0.117,-0.5143,0.069,-0.0143,-0.0443,0.0139,4053,2019-08-07 16:32:54:658
-5.7466,-6.4059,3.6679,-0.117,-0.5143,0.069,-0.0143,-0.0443,0.0139,4057,2019-08-07 16:32:54:662
-5.7657,-6.4727,3.3474,-0.117,-0.5143,0.069,-0.0261,-0.0379,0.015,4063,2019-08-07 16:32:54:668
-5.7657,-6.4727,3.3474,-0.0458,-0.5134,0.249,-0.0261,-0.0379,0.015,4068,2019-08-07 16:32:54:673
-5.6988,-6.4011,3.6396,-0.0458,-0.5134,0.249,-0.0271,0.0037,0.0075,4073,2019-08-07 16:32:54:678
-5.6988,-6.4011,3.6396,-0.0458,-0.5134,0.249,-0.0271,0.0037,0.0075,4078,2019-08-07 16:32:54:683
-5.6988,-6.4011,3.6396,-0.0458,-0.5134,0.249,-0.0079,0.01,-0.0149,4082,2019-08-07 16:32:54:687
-5.8279,-6.5825,3.4888,-0.0181,-0.3281,0.2458,-0.0079,0.01,-0.0149,4088,2019-08-07 16:32:54:693
-5.8279,-6.5825,3.4888,-0.0181,-0.3281,0.2458,-0.0154,-0.0017,-0.0117,4092,2019-08-07 16:32:54:697
-5.737,-6.6685,3.4369,-0.1279,-0.2529,0.2959,-0.0154,-0.0017,-0.0117,4098,2019-08-07 16:32:54:703
-5.737,-6.6685,3.4369,-0.1279,-0.2529,0.2959,-0.0261,-6.0E-4,-0.0106,4103,2019-08-07 16:32:54:708
-5.737,-6.6685,3.4369,-0.1279,-0.2529,0.2959,-0.0261,-6.0E-4,-0.0106,4108,2019-08-07 16:32:54:713
-5.6653,-6.6494,3.4793,-0.1279,-0.2529,0.2959,-0.0143,0.0069,-0.0074,4113,2019-08-07 16:32:54:718
-5.6653,-6.6494,3.4793,-0.2232,-0.2649,0.2213,-0.0143,0.0069,-0.0074,4117,2019-08-07 16:32:54:722
-5.6653,-6.6494,3.4793,-0.2232,-0.2649,0.2213,-0.0143,0.0069,-0.0074,4123,2019-08-07 16:32:54:728
-5.6031,-6.6446,3.4228,-0.2232,-0.2649,0.2213,-0.0101,0.0132,0.0054,4128,2019-08-07 16:32:54:733
-5.6031,-6.6446,3.4228,-0.2232,-0.2649,0.2213,-0.0101,0.0132,0.0054,4132,2019-08-07 16:32:54:737
-5.5266,-6.6589,3.5406,-0.2232,-0.2649,0.2213,-0.0026,0.0271,0.0214,4138,2019-08-07 16:32:54:743
-5.5266,-6.6589,3.5406,-0.4026,-0.2552,0.213,-0.0026,0.0271,0.0214,4143,2019-08-07 16:32:54:748
-5.5266,-6.6589,3.5406,-0.4026,-0.2552,0.213,0.0261,0.0516,0.0192,4148,2019-08-07 16:32:54:753
-5.5983,-6.6112,3.3143,-0.4026,-0.2552,0.213,0.0261,0.0516,0.0192,4153,2019-08-07 16:32:54:758
-5.5983,-6.6112,3.3143,-0.4026,-0.2552,0.213,0.0261,0.0516,0.0192,4157,2019-08-07 16:32:54:762
-5.7371,-6.5348,3.2908,-0.1279,-0.4045,0.4574,0.0219,0.0878,0.0267,4163,2019-08-07 16:32:54:768
-5.7371,-6.5348,3.2908,-0.1279,-0.4045,0.4574,0.0219,0.0878,0.0267,4167,2019-08-07 16:32:54:772
-5.7371,-6.5348,3.2908,-0.1279,-0.4045,0.4574,0.0016,0.1102,0.0043,4173,2019-08-07 16:32:54:778
-5.7084,-6.4441,3.2483,-0.1279,-0.4045,0.4574,0.0016,0.1102,0.0043,4178,2019-08-07 16:32:54:783
-5.7084,-6.4441,3.2483,-0.129,-0.4793,0.4009,-0.0239,0.1144,-0.0127,4183,2019-08-07 16:32:54:788
-6.6748,-6.3152,3.3191,-0.129,-0.4793,0.4009,-0.0239,0.1144,-0.0127,4188,2019-08-07 16:32:54:793
-6.6748,-6.3152,3.3191,0.4494,-0.492,0.1681,-0.1283,-0.0432,-0.0245,4194,2019-08-07 16:32:54:799
-6.6748,-6.3152,3.3191,0.4494,-0.492,0.1681,-0.1283,-0.0432,-0.0245,4198,2019-08-07 16:32:54:803
-5.694,-6.7066,4.1345,0.4494,-0.492,0.1681,0.0869,0.0164,-0.0351,4203,2019-08-07 16:32:54:808
-5.694,-6.7066,4.1345,0.4494,-0.492,0.1681,0.0869,0.0164,-0.0351,4208,2019-08-07 16:32:54:813
-5.6366,-6.6685,3.3803,-0.2983,-0.1505,0.2965,0.1359,0.0814,-0.0532,4213,2019-08-07 16:32:54:818
-5.6366,-6.6685,3.3803,-0.2983,-0.1505,0.2965,0.1359,0.0814,-0.0532,4218,2019-08-07 16:32:54:823
-5.6366,-6.6685,3.3803,-0.2983,-0.1505,0.2965,0.1359,0.0814,-0.0532,4223,2019-08-07 16:32:54:828
-5.6127,-6.4345,3.3049,-0.2983,-0.1505,0.2965,0.1241,0.1581,-0.0074,4228,2019-08-07 16:32:54:833
-5.6127,-6.4345,3.3049,-0.2755,-0.521,0.3467,0.1241,0.1581,-0.0074,4233,2019-08-07 16:32:54:838
-5.7754,-6.4775,3.6066,-0.2755,-0.521,0.3467,0.0783,0.1507,0.0128,4237,2019-08-07 16:32:54:842
-5.7754,-6.4775,3.6066,-0.2755,-0.521,0.3467,0.0783,0.1507,0.0128,4243,2019-08-07 16:32:54:848
-5.7754,-6.4775,3.6066,-0.2755,-0.521,0.3467,0.0581,0.1112,0.0224,4248,2019-08-07 16:32:54:853
-5.474,-6.6159,3.6679,-0.4271,-0.2933,0.0303,0.0581,0.1112,0.0224,4252,2019-08-07 16:32:54:857
-5.474,-6.6159,3.6679,-0.4271,-0.2933,0.0303,0.0272,0.0569,0.0128,4258,2019-08-07 16:32:54:863
-5.6749,-6.3343,3.5547,-0.4271,-0.2933,0.0303,0.0272,0.0569,0.0128,4263,2019-08-07 16:32:54:868
-5.6749,-6.3343,3.5547,-0.4271,-0.2933,0.0303,-0.0271,0.0452,0.0405,4267,2019-08-07 16:32:54:872
-5.6749,-6.3343,3.5547,-0.2201,-0.6086,0.1104,-0.0271,0.0452,0.0405,4273,2019-08-07 16:32:54:878
-5.6893,-6.3916,3.682,-0.2201,-0.6086,0.1104,-0.0271,0.0452,0.0405,4278,2019-08-07 16:32:54:883
-5.6893,-6.3916,3.682,-0.2201,-0.6086,0.1104,-0.041,0.0377,0.0586,4283,2019-08-07 16:32:54:888
-5.8041,-6.5921,3.7857,-0.2201,-0.6086,0.1104,-0.041,0.0377,0.0586,4287,2019-08-07 16:32:54:892
-5.8041,-6.5921,3.7857,-0.0783,-0.3119,-0.0909,-0.0282,0.0292,0.0693,4293,2019-08-07 16:32:54:898
-5.8041,-6.5921,3.7857,-0.0783,-0.3119,-0.0909,-0.0282,0.0292,0.0693,4298,2019-08-07 16:32:54:903
-5.852,-6.53,3.6584,-0.0783,-0.3119,-0.0909,-0.0111,0.0228,0.081,4302,2019-08-07 16:32:54:907