ACCELEROMETER X (m/s²),ACCELEROMETER Y (m/s²),ACCELEROMETER Z (m/s²),LINEAR ACCELERATION X (m/s²),LINEAR ACCELERATION Y (m/s²),LINEAR ACCELERATION Z (m/s²),GYROSCOPE X (rad/s),GYROSCOPE Y (rad/s),GYROSCOPE Z (rad/s),Time since start in ms ,YYYY-MO-DD HH-MI-SS_SSS
-7.1264,-5.0552,3.2254,-0.3419,-0.3057,0.1814,0.0325,0.0335,0.0139,4,2019-08-07 16:33:09:952
-7.1934,-4.9931,3.2395,-0.3419,-0.3057,0.1814,0.0325,0.0335,0.0139,9,2019-08-07 16:33:09:957
-7.1934,-4.9931,3.2395,-0.3419,-0.3057,0.1814,0.0336,0.0537,0.015,14,2019-08-07 16:33:09:962
-7.1934,-4.9931,3.2395,-0.3419,-0.3057,0.1814,0.0336,0.0537,0.015,18,2019-08-07 16:33:09:966
-7.2699,-4.974,3.2631,-0.223,-0.3629,0.144,0.0229,0.0569,0.0022,24,2019-08-07 16:33:09:972
-7.2699,-4.974,3.2631,-0.223,-0.3629,0.144,0.0229,0.0569,0.0022,28,2019-08-07 16:33:09:976
-7.3273,-5.0265,3.2442,-0.223,-0.3629,0.144,0.0219,0.0463,0.0011,34,2019-08-07 16:33:09:982
-7.3273,-5.0265,3.2442,-0.223,-0.3629,0.144,0.0219,0.0463,0.0011,38,2019-08-07 16:33:09:986
-7.3273,-5.0265,3.2442,-0.1934,-0.2411,0.1819,0.0251,0.025,0.0011,44,2019-08-07 16:33:09:992
-7.2604,-5.0743,3.2301,-0.1934,-0.2411,0.1819,0.0251,0.025,0.0011,49,2019-08-07 16:33:09:997
-7.2604,-5.0743,3.2301,-0.1934,-0.2411,0.1819,0.024,0.0122,-0.0053,54,2019-08-07 16:33:10:002
-7.2604,-5.0743,3.2301,-0.1934,-0.2411,0.1819,0.024,0.0122,-0.0053,59,2019-08-07 16:33:10:007
-7.3178,-5.1029,3.2914,-0.1801,-0.2297,0.1118,0.0304,-0.0081,-0.0042,64,2019-08-07 16:33:10:012
-7.3178,-5.1029,3.2914,-0.1801,-0.2297,0.1118,0.0304,-0.0081,-0.0042,69,2019-08-07 16:33:10:017
-7.179,-5.0647,3.2678,-0.1801,-0.2297,0.1118,0.0304,-0.0198,-0.001,73,2019-08-07 16:33:10:021
-7.179,-5.0647,3.2678,-0.1801,-0.2297,0.1118,0.0304,-0.0198,-0.001,79,2019-08-07 16:33:10:027
-7.179,-5.0647,3.2678,-0.3992,-0.3085,0.1694,0.0272,-0.0155,0.0033,83,2019-08-07 16:33:10:031
-7.1216,-5.0647,3.2254,-0.3992,-0.3085,0.1694,0.0272,-0.0155,0.0033,89,2019-08-07 16:33:10:037
-7.1216,-5.0647,3.2254,-0.3992,-0.3085,0.1694,0.024,-0.0027,0.0065,93,2019-08-07 16:33:10:041
-7.1503,-5.0361,3.2537,-0.3992,-0.3085,0.1694,0.024,-0.0027,0.0065,100,2019-08-07 16:33:10:048
-7.1503,-5.0361,3.2537,-0.3181,-0.2868,0.1212,0.0272,0.0058,0.0086,104,2019-08-07 16:33:10:052
-7.1503,-5.0361,3.2537,-0.3181,-0.2868,0.1212,0.0272,0.0058,0.0086,108,2019-08-07 16:33:10:056
-7.1838,-5.0075,3.282,-0.3181,-0.2868,0.1212,0.024,0.0132,0.0118,114,2019-08-07 16:33:10:062
-7.1838,-5.0075,3.282,-0.3181,-0.2868,0.1212,0.024,0.0132,0.0118,119,2019-08-07 16:33:10:067
-7.1933,-5.0552,3.3055,-0.3058,-0.3069,0.1273,0.0176,0.0282,0.0107,124,2019-08-07 16:33:10:072
-7.1933,-5.0552,3.3055,-0.3058,-0.3069,0.1273,0.0176,0.0282,0.0107,129,2019-08-07 16:33:10:077
-7.1933,-5.0552,3.3055,-0.3058,-0.3069,0.1273,0.0176,0.0356,0.0118,133,2019-08-07 16:33:10:081
-7.3225,-4.974,3.3762,-0.3058,-0.3069,0.1273,0.0176,0.0356,0.0118,139,2019-08-07 16:33:10:087
-7.3225,-4.974,3.3762,-0.1758,-0.3032,0.1621,0.0155,0.0367,0.0139,143,2019-08-07 16:33:10:091
-7.3656,-4.9884,3.2631,-0.1758,-0.3032,0.1621,0.0155,0.0367,0.0139,149,2019-08-07 16:33:10:097
-7.3656,-4.9884,3.2631,-0.1758,-0.3032,0.1621,0.0133,0.0282,0.015,154,2019-08-07 16:33:10:102
-7.3656,-4.9884,3.2631,-0.1758,-0.3032,0.1621,0.0133,0.0282,0.015,159,2019-08-07 16:33:10:107
-7.2555,-5.0361,3.2725,-0.2519,-0.2801,0.1352,0.0112,0.0186,0.0096,164,2019-08-07 16:33:10:112
-7.2555,-5.0361,3.2725,-0.2519,-0.2801,0.1352,0.0112,0.0186,0.0096,169,2019-08-07 16:33:10:117
-7.2651,-5.0743,3.3621,-0.2519,-0.2801,0.1352,0.0208,0.0068,0.0033,174,2019-08-07 16:33:10:122
-7.2651,-5.0743,3.3621,-0.2519,-0.2801,0.1352,0.0208,0.0068,0.0033,179,2019-08-07 16:33:10:127
-7.2651,-5.0743,3.3621,-0.2058,-0.2486,0.0933,0.0208,0.0068,0.0033,183,2019-08-07 16:33:10:131
-7.3177,-5.06,3.3762,-0.2058,-0.2486,0.0933,0.0304,-0.0102,0.0065,189,2019-08-07 16:33:10:137
-7.3177,-5.06,3.3762,-0.2058,-0.2486,0.0933,0.0304,-0.0102,0.0065,194,2019-08-07 16:33:10:142
-7.2555,-4.9645,3.3668,-0.2058,-0.2486,0.0933,0.0368,-0.024,0.0096,200,2019-08-07 16:33:10:148
-7.2555,-4.9645,3.3668,-0.268,-0.3348,0.0958,0.0368,-0.024,0.0096,203,2019-08-07 16:33:10:151
-7.2555,-4.9645,3.3668,-0.268,-0.3348,0.0958,0.0368,-0.0475,0.015,209,2019-08-07 16:33:10:157
-7.1455,-5.017,3.3291,-0.3628,-0.2891,0.0925,0.0368,-0.0475,0.015,214,2019-08-07 16:33:10:162
-7.1455,-5.017,3.3291,-0.3628,-0.2891,0.0925,0.0357,-0.0581,0.0224,218,2019-08-07 16:33:10:166
-7.1455,-5.017,3.3291,-0.3628,-0.2891,0.0925,0.0357,-0.0581,0.0224,224,2019-08-07 16:33:10:172
-7.0641,-5.0266,3.3574,-0.3628,-0.2891,0.0925,0.0389,-0.0581,0.0278,229,2019-08-07 16:33:10:177
-7.0641,-5.0266,3.3574,-0.4475,-0.3158,0.1011,0.0389,-0.0581,0.0278,234,2019-08-07 16:33:10:182
-7.0641,-5.0266,3.3574,-0.4475,-0.3158,0.1011,0.0389,-0.039,0.0373,238,2019-08-07 16:33:10:186
-7.0833,-4.974,3.282,-0.4475,-0.3158,0.1011,0.0389,-0.039,0.0373,244,2019-08-07 16:33:10:192
-7.0833,-4.974,3.282,-0.4475,-0.3158,0.1011,0.0347,-0.0081,0.0395,249,2019-08-07 16:33:10:197
-7.0976,-4.9884,3.2773,-0.4112,-0.3027,0.1664,0.0347,-0.0081,0.0395,254,2019-08-07 16:33:10:202
-7.0976,-4.9884,3.2773,-0.4112,-0.3027,0.1664,0.0347,-0.0081,0.0395,259,2019-08-07 16:33:10:207
-7.0976,-4.9884,3.2773,-0.4112,-0.3027,0.1664,0.0389,0.0154,0.0427,264,2019-08-07 16:33:10:212
-7.1981,-4.9693,3.2773,-0.4112,-0.3027,0.1664,0.0389,0.0154,0.0427,269,2019-08-07 16:33:10:217
-7.1981,-4.9693,3.2773,-0.2165,-0.317,0.1391,0.0315,0.0335,0.0437,274,2019-08-07 16:33:10:222
-7.3224,-5.0122,3.2867,-0.2165,-0.317,0.1391,0.0315,0.0335,0.0437,279,2019-08-07 16:33:10:227
-7.3224,-5.0122,3.2867,-0.2165,-0.317,0.1391,0.0293,0.0324,0.0448,283,2019-08-07 16:33:10:231
-7.3224,-5.0122,3.2867,-0.2165,-0.317,0.1391,0.0293,0.0324,0.0448,288,2019-08-07 16:33:10:236
-7.3272,-5.0552,3.3574,-0.1616,-0.2311,0.0482,0.0261,0.0196,0.0416,294,2019-08-07 16:33:10:242
-7.3272,-5.0552,3.3574,-0.1616,-0.2311,0.0482,0.0261,0.0196,0.0416,299,2019-08-07 16:33:10:247
-7.3272,-5.0552,3.3574,-0.1616,-0.2311,0.0482,0.0261,-6.0E-4,0.0384,304,2019-08-07 16:33:10:252
-7.3894,-5.0743,3.3291,-0.1616,-0.2311,0.0482,0.0261,-6.0E-4,0.0384,310,2019-08-07 16:33:10:258
-7.3894,-5.0743,3.3291,-0.1616,-0.2311,0.0482,0.0208,-0.0102,0.031,314,2019-08-07 16:33:10:262
-7.3129,-5.1554,3.3668,-0.1659,-0.1899,0.1311,0.0208,-0.0102,0.031,319,2019-08-07 16:33:10:267
-7.3129,-5.1554,3.3668,-0.1659,-0.1899,0.1311,0.0197,-0.0177,0.0214,324,2019-08-07 16:33:10:272
-7.3129,-5.1554,3.3668,-0.1659,-0.1899,0.1311,0.0197,-0.0177,0.0214,329,2019-08-07 16:33:10:277
-7.2841,-5.0934,3.3244,-0.2436,-0.1996,0.0602,0.0219,-0.0145,0.0139,334,2019-08-07 16:33:10:282
-7.2841,-5.0934,3.3244,-0.2436,-0.1996,0.0602,0.0219,-0.0145,0.0139,338,2019-08-07 16:33:10:286
-7.2841,-5.0934,3.3244,-0.2436,-0.1996,0.0602,0.0102,-0.0049,0.0033,344,2019-08-07 16:33:10:292
-7.3368,-5.1077,3.315,-0.2436,-0.1996,0.0602,0.0102,-0.0049,0.0033,348,2019-08-07 16:33:10:296
-7.3368,-5.1077,3.315,-0.2295,-0.1503,0.0903,-0.0016,-0.0017,1.0E-4,354,2019-08-07 16:33:10:302
-7.2985,-5.0743,3.3904,-0.2295,-0.1503,0.0903,-0.0016,-0.0017,1.0E-4,359,2019-08-07 16:33:10:307
-7.2985,-5.0743,3.3904,-0.2295,-0.1503,0.0903,6.0E-4,5.0E-4,-0.0042,364,2019-08-07 16:33:10:312
-7.2746,-5.0791,3.348,-0.2295,-0.1503,0.0903,6.0E-4,5.0E-4,-0.0042,369,2019-08-07 16:33:10:317
-7.2746,-5.0791,3.348,-0.2295,-0.1503,0.0903,6.0E-4,5.0E-4,-0.0042,374,2019-08-07 16:33:10:322
-7.2746,-5.0791,3.348,-0.2672,-0.237,0.0857,-0.0069,-0.0059,-0.0095,379,2019-08-07 16:33:10:327
-7.2171,-5.0313,3.3763,-0.2672,-0.237,0.0857,-0.0069,-0.0059,-0.0095,384,2019-08-07 16:33:10:332
-7.2171,-5.0313,3.3763,-0.2672,-0.237,0.0857,-0.0133,-0.0198,-0.0106,389,2019-08-07 16:33:10:337
-7.2171,-5.0313,3.3763,-0.2672,-0.237,0.0857,-0.0133,-0.0198,-0.0106,394,2019-08-07 16:33:10:342
-7.2506,-5.0647,3.348,-0.2746,-0.1963,0.1058,-0.0218,-0.0251,-0.0127,399,2019-08-07 16:33:10:347
-7.2506,-5.0647,3.348,-0.2746,-0.1963,0.1058,-0.0218,-0.0251,-0.0127,403,2019-08-07 16:33:10:351
-7.2267,-5.0075,3.315,-0.2746,-0.1963,0.1058,-0.0293,-0.0336,-0.0106,409,2019-08-07 16:33:10:357
-7.2267,-5.0075,3.315,-0.2746,-0.1963,0.1058,-0.0293,-0.0336,-0.0106,414,2019-08-07 16:33:10:362
-7.2267,-5.0075,3.315,-0.3576,-0.2327,0.1222,-0.0229,-0.0251,-0.0042,419,2019-08-07 16:33:10:367
-7.1501,-5.0695,3.3008,-0.3576,-0.2327,0.1222,-0.0229,-0.0251,-0.0042,423,2019-08-07 16:33:10:371
-7.1501,-5.0695,3.3008,-0.3576,-0.2327,0.1222,-0.0207,-0.0102,-0.0063,429,2019-08-07 16:33:10:377
-7.1214,-5.0791,3.2396,-0.3576,-0.2327,0.1222,-0.0207,-0.0102,-0.0063,433,2019-08-07 16:33:10:381
-7.1214,-5.0791,3.2396,-0.3318,-0.2545,0.1363,-0.0154,0.0111,-0.0095,439,2019-08-07 16:33:10:387
-7.198,-4.9884,3.315,-0.3318,-0.2545,0.1363,-0.0154,0.0111,-0.0095,444,2019-08-07 16:33:10:392
-7.198,-4.9884,3.315,-0.3318,-0.2545,0.1363,-0.0186,0.025,-0.0106,449,2019-08-07 16:33:10:397
-7.198,-4.9884,3.315,-0.3318,-0.2545,0.1363,-0.0186,0.025,-0.0106,453,2019-08-07 16:33:10:401
-7.2458,-4.9502,3.3527,-0.2939,-0.3332,0.0989,-0.0229,0.0239,-0.0127,459,2019-08-07 16:33:10:407
-7.2458,-4.9502,3.3527,-0.2939,-0.3332,0.0989,-0.0229,0.0239,-0.0127,464,2019-08-07 16:33:10:412
-7.2458,-4.9502,3.3527,-0.2939,-0.3332,0.0989,-0.0197,0.0196,-0.0202,469,2019-08-07 16:33:10:417
-7.3045,-5.0121,3.3996,-0.2939,-0.3332,0.0989,-0.0197,0.0196,-0.0202,473,2019-08-07 16:33:10:421
-7.3045,-5.0121,3.3996,-0.1446,-0.2599,0.0518,-0.0154,0.0026,-0.0159,479,2019-08-07 16:33:10:427
-7.3476,-4.9548,3.4279,-0.1446,-0.2599,0.0518,-0.0154,0.0026,-0.0159,483,2019-08-07 16:33:10:431
-7.3476,-4.9548,3.4279,-0.1446,-0.2599,0.0518,-0.0111,-0.0208,-0.0149,489,2019-08-07 16:33:10:437
-7.3476,-4.9548,3.4279,-0.1446,-0.2599,0.0518,-0.0111,-0.0208,-0.0149,493,2019-08-07 16:33:10:441
-7.3045,-4.9691,3.376,-0.2144,-0.305,0.0715,-0.0101,-0.0422,-0.0127,500,2019-08-07 16:33:10:448
-7.3045,-4.9691,3.376,-0.2144,-0.305,0.0715,-0.0101,-0.0422,-0.0127,503,2019-08-07 16:33:10:451
-7.3045,-4.9691,3.376,-0.2144,-0.305,0.0715,-0.008,-0.0507,-0.0085,510,2019-08-07 16:33:10:458
-7.161,-4.9405,3.3383,-0.2144,-0.305,0.0715,-0.008,-0.0507,-0.0085,514,2019-08-07 16:33:10:462
-7.161,-4.9405,3.3383,-0.3443,-0.3161,0.1958,-0.008,-0.0539,-0.0031,519,2019-08-07 16:33:10:467
-7.161,-4.9405,3.3383,-0.3443,-0.3161,0.1958,-0.008,-0.0539,-0.0031,524,2019-08-07 16:33:10:472
-7.1084,-5.0121,3.3289,-0.3443,-0.3161,0.1958,-0.0026,-0.0358,-0.001,529,2019-08-07 16:33:10:477
-7.1084,-5.0121,3.3289,-0.3443,-0.3161,0.1958,-0.0026,-0.0358,-0.001,533,2019-08-07 16:33:10:481
-7.0749,-4.9691,3.2393,-0.4367,-0.3071,0.2208,6.0E-4,-0.0198,0.0064,539,2019-08-07 16:33:10:487
-7.0749,-4.9691,3.2393,-0.4367,-0.3071,0.2208,6.0E-4,-0.0198,0.0064,544,2019-08-07 16:33:10:492
-7.0749,-4.9691,3.2393,-0.4367,-0.3071,0.2208,6.0E-4,-0.0198,0.0064,549,2019-08-07 16:33:10:497
-7.1228,-5.0264,3.2581,-0.4367,-0.3071,0.2208,-0.0016,-0.0049,0.0118,554,2019-08-07 16:33:10:502
-7.1228,-5.0264,3.2581,-0.413,-0.2536,0.2408,-0.0016,-0.0049,0.0118,559,2019-08-07 16:33:10:507
-7.1371,-5.0312,3.2581,-0.413,-0.2536,0.2408,-0.0069,0.009,0.0075,565,2019-08-07 16:33:10:513
-7.1371,-5.0312,3.2581,-0.413,-0.2536,0.2408,-0.0069,0.009,0.0075,568,2019-08-07 16:33:10:516
-7.1371,-5.0312,3.2581,-0.413,-0.2536,0.2408,-0.0069,0.0218,0.0096,574,2019-08-07 16:33:10:522
-7.1515,-5.0169,3.2911,-0.3577,-0.2431,0.1621,-0.0069,0.0218,0.0096,579,2019-08-07 16:33:10:527
-7.1515,-5.0169,3.2911,-0.3577,-0.2431,0.1621,-0.0048,0.025,0.0107,583,2019-08-07 16:33:10:531
-7.1515,-5.0169,3.2911,-0.3577,-0.2431,0.1621,-0.0048,0.025,0.0107,589,2019-08-07 16:33:10:537
-7.2568,-5.0312,3.3571,-0.3577,-0.2431,0.1621,-0.009,0.0196,0.0096,594,2019-08-07 16:33:10:542
-7.2568,-5.0312,3.3571,-0.241,-0.237,0.1296,-0.009,0.0196,0.0096,600,2019-08-07 16:33:10:548
-7.2903,-5.0694,3.2958,-0.241,-0.237,0.1296,-0.0048,5.0E-4,0.0107,604,2019-08-07 16:33:10:552
-7.2903,-5.0694,3.2958,-0.241,-0.237,0.1296,-0.0048,5.0E-4,0.0107,608,2019-08-07 16:33:10:556
-7.2903,-5.0694,3.2958,-0.241,-0.237,0.1296,-0.0101,-0.0187,0.0064,614,2019-08-07 16:33:10:562
-7.2759,-5.0264,3.3336,-0.2801,-0.274,0.158,-0.0101,-0.0187,0.0064,618,2019-08-07 16:33:10:566
-7.2759,-5.0264,3.3336,-0.2801,-0.274,0.158,-0.0111,-0.0336,0.0086,624,2019-08-07 16:33:10:572
-7.1707,-5.036,3.2628,-0.2801,-0.274,0.158,-0.0111,-0.0336,0.0086,629,2019-08-07 16:33:10:577
-7.1707,-5.036,3.2628,-0.2801,-0.274,0.158,-0.0111,-0.0336,0.0086,634,2019-08-07 16:33:10:582
-7.1707,-5.036,3.2628,-0.3793,-0.1876,0.2037,-0.0101,-0.024,0.0096,639,2019-08-07 16:33:10:587
-7.1133,-5.0837,3.2204,-0.3793,-0.1876,0.2037,-0.0101,-0.024,0.0096,643,2019-08-07 16:33:10:591
-7.1133,-5.0837,3.2204,-0.3793,-0.1876,0.2037,-0.0026,-0.0059,0.0064,650,2019-08-07 16:33:10:598
-7.209,-5.0789,3.2958,-0.3793,-0.1876,0.2037,-0.0026,-0.0059,0.0064,653,2019-08-07 16:33:10:601
-7.209,-5.0789,3.2958,-0.3793,-0.1876,0.2037,-0.0026,-0.0059,0.0064,659,2019-08-07 16:33:10:607
-7.209,-5.0789,3.2958,-0.3318,-0.2018,0.1983,-0.0058,0.0154,0.0086,664,2019-08-07 16:33:10:612
-7.1659,-5.0503,3.2487,-0.3318,-0.2018,0.1983,-0.0058,0.0154,0.0086,668,2019-08-07 16:33:10:616
-7.1659,-5.0503,3.2487,-0.3318,-0.2018,0.1983,6.0E-4,0.025,0.0075,674,2019-08-07 16:33:10:622
-7.1659,-5.0503,3.2487,-0.3318,-0.2018,0.1983,6.0E-4,0.025,0.0075,678,2019-08-07 16:33:10:626
-7.276,-5.0885,3.2346,-0.2433,-0.1818,0.2181,0.0048,0.0314,0.0033,684,2019-08-07 16:33:10:632
-7.276,-5.0885,3.2346,-0.2433,-0.1818,0.2181,0.0048,0.0314,0.0033,689,2019-08-07 16:33:10:637
-7.2616,-5.0455,3.3713,-0.2433,-0.1818,0.2181,0.007,0.025,0.0011,694,2019-08-07 16:33:10:642
-7.2616,-5.0455,3.3713,-0.2408,-0.2429,0.0542,0.007,0.025,0.0011,699,2019-08-07 16:33:10:647
-7.2569,-5.0646,3.3524,-0.2408,-0.2429,0.0542,0.0112,0.0058,0.0054,704,2019-08-07 16:33:10:652
-7.2569,-5.0646,3.3524,-0.2408,-0.2429,0.0542,0.0112,0.0058,0.0054,708,2019-08-07 16:33:10:656
-7.2569,-5.0646,3.3524,-0.2408,-0.2429,0.0542,0.0187,-0.0102,0.0043,714,2019-08-07 16:33:10:662
-7.2138,-5.0598,3.2864,-0.2605,-0.2174,0.1546,0.0187,-0.0102,0.0043,719,2019-08-07 16:33:10:667
-7.2138,-5.0598,3.2864,-0.2605,-0.2174,0.1546,0.0187,-0.0102,0.0043,724,2019-08-07 16:33:10:672
-7.2138,-5.0598,3.2864,-0.2605,-0.2174,0.1546,0.024,-0.0155,0.0086,728,2019-08-07 16:33:10:676
-7.3239,-4.9548,3.3241,-0.2605,-0.2174,0.1546,0.024,-0.0155,0.0086,734,2019-08-07 16:33:10:682
-7.3239,-4.9548,3.3241,-0.3325,-0.295,0.1264,0.0272,-0.0155,0.0139,739,2019-08-07 16:33:10:687
-7.2043,-4.9787,3.2864,-0.3325,-0.295,0.1264,0.0272,-0.0155,0.0139,744,2019-08-07 16:33:10:692
-7.2043,-4.9787,3.2864,-0.3325,-0.295,0.1264,0.0229,-0.0091,0.015,749,2019-08-07 16:33:10:697
-7.2043,-4.9787,3.2864,-0.3325,-0.295,0.1264,0.0229,-0.0091,0.015,754,2019-08-07 16:33:10:702
-7.1947,-4.9453,3.2251,-0.3325,-0.295,0.1264,0.0229,-0.0091,0.015,758,2019-08-07 16:33:10:706
-7.1947,-4.9453,3.2251,-0.3098,-0.3103,0.2284,0.0176,0.0186,0.0054,764,2019-08-07 16:33:10:712
-7.1804,-4.9453,3.2722,-0.3098,-0.3103,0.2284,0.0176,0.0186,0.0054,768,2019-08-07 16:33:10:716
-7.1804,-4.9453,3.2722,-0.3098,-0.3103,0.2284,0.0187,0.0431,0.0043,774,2019-08-07 16:33:10:722
-7.1804,-4.9453,3.2722,-0.3098,-0.3103,0.2284,0.0187,0.0431,0.0043,778,2019-08-07 16:33:10:726
-7.2952,-4.9739,3.31,-0.2319,-0.2841,0.1445,0.0208,0.0463,-0.0031,784,2019-08-07 16:33:10:732
-7.2952,-4.9739,3.31,-0.2319,-0.2841,0.1445,0.0208,0.0463,-0.0031,788,2019-08-07 16:33:10:736
-7.2952,-4.9739,3.31,-0.2319,-0.2841,0.1445,0.0144,0.0388,-0.0063,794,2019-08-07 16:33:10:742
-7.3,-4.9309,3.3241,-0.2319,-0.2841,0.1445,0.0144,0.0388,-0.0063,799,2019-08-07 16:33:10:747
-7.3,-4.9309,3.3241,-0.1917,-0.3353,0.0976,0.0091,0.0186,-0.0042,804,2019-08-07 16:33:10:752
-7.3,-4.9309,3.3241,-0.1917,-0.3353,0.0976,0.0091,0.0186,-0.0042,809,2019-08-07 16:33:10:757
-7.3431,-4.9357,3.2911,-0.1917,-0.3353,0.0976,0.007,-0.0017,-0.0053,814,2019-08-07 16:33:10:762
-7.3431,-4.9357,3.2911,-0.1917,-0.3353,0.0976,0.007,-0.0017,-0.0053,819,2019-08-07 16:33:10:767
-7.1995,-4.9739,3.2958,-0.2689,-0.3394,0.1491,0.0102,-0.0177,-0.0031,823,2019-08-07 16:33:10:771
-7.1995,-4.9739,3.2958,-0.2689,-0.3394,0.1491,0.0102,-0.0177,-0.0031,829,2019-08-07 16:33:10:777
-7.1995,-4.9739,3.2958,-0.2689,-0.3394,0.1491,0.0134,-0.0219,1.0E-4,834,2019-08-07 16:33:10:782
-7.1613,-4.9166,3.2864,-0.2689,-0.3394,0.1491,0.0134,-0.0219,1.0E-4,839,2019-08-07 16:33:10:787
-7.1613,-4.9166,3.2864,-0.3491,-0.3382,0.2052,0.0197,-0.0113,0.0054,844,2019-08-07 16:33:10:792
-7.1613,-4.9309,3.2817,-0.3491,-0.3382,0.2052,0.0197,-0.0113,0.0054,849,2019-08-07 16:33:10:797
-7.1613,-4.9309,3.2817,-0.3491,-0.3382,0.2052,0.0197,-0.0113,0.0054,854,2019-08-07 16:33:10:802
-7.1613,-4.9309,3.2817,-0.3491,-0.3382,0.2052,0.0251,0.0026,0.0128,859,2019-08-07 16:33:10:807
-7.1565,-4.9262,3.3194,-0.3741,-0.3253,0.1373,0.0251,0.0026,0.0128,864,2019-08-07 16:33:10:812
-7.1565,-4.9262,3.3194,-0.3741,-0.3253,0.1373,0.0219,0.0175,0.0203,869,2019-08-07 16:33:10:817
-7.1996,-4.888,3.2864,-0.3741,-0.3253,0.1373,0.0219,0.0175,0.0203,874,2019-08-07 16:33:10:822
-7.1996,-4.888,3.2864,-0.3741,-0.3253,0.1373,0.0187,0.0271,0.0278,879,2019-08-07 16:33:10:827
-7.1996,-4.888,3.2864,-0.3305,-0.3532,0.1928,0.0187,0.0271,0.0278,883,2019-08-07 16:33:10:831
-7.2379,-4.9691,3.2722,-0.3305,-0.3532,0.1928,0.0187,0.0271,0.0278,889,2019-08-07 16:33:10:837
-7.2379,-4.9691,3.2722,-0.2856,-0.2644,0.1768,0.0166,0.0409,0.0288,894,2019-08-07 16:33:10:842
-7.2427,-4.9262,3.3146,-0.2856,-0.2644,0.1768,0.0091,0.0484,0.0278,899,2019-08-07 16:33:10:847
-7.2427,-4.9262,3.3146,-0.2856,-0.2644,0.1768,0.0091,0.0484,0.0278,903,2019-08-07 16:33:10:851
-7.2427,-4.9262,3.3146,-0.2856,-0.2644,0.1768,0.0091,0.0484,0.0278,909,2019-08-07 16:33:10:857
-7.2857,-4.9405,3.3806,-0.2589,-0.2966,0.0671,0.0091,0.0537,0.0278,914,2019-08-07 16:33:10:862
-7.2857,-4.9405,3.3806,-0.2589,-0.2966,0.0671,0.0091,0.0537,0.0278,919,2019-08-07 16:33:10:867
-7.3049,-4.9118,3.4278,-0.2589,-0.2966,0.0671,0.0102,0.0314,0.0214,924,2019-08-07 16:33:10:872
-7.3049,-4.9118,3.4278,-0.2589,-0.2966,0.0671,0.0102,0.0314,0.0214,929,2019-08-07 16:33:10:877
-7.3049,-4.9118,3.4278,-0.2304,-0.3057,0.0453,0.0102,0.0164,0.0224,933,2019-08-07 16:33:10:881
-7.3288,-4.9596,3.3382,-0.2304,-0.3057,0.0453,0.0102,0.0164,0.0224,939,2019-08-07 16:33:10:887
-7.3288,-4.9596,3.3382,-0.2304,-0.3057,0.0453,0.0102,-0.0059,0.0214,944,2019-08-07 16:33:10:892
-7.3288,-4.9596,3.3382,-0.2304,-0.3057,0.0453,0.0102,-0.0059,0.0214,949,2019-08-07 16:33:10:897
-7.2666,-4.95,3.4042,-0.2854,-0.2723,0.0804,0.0134,-0.0208,0.0256,953,2019-08-07 16:33:10:901
-7.2666,-4.95,3.4042,-0.2854,-0.2723,0.0804,0.0134,-0.0208,0.0256,959,2019-08-07 16:33:10:907
-7.2427,-4.9643,3.3429,-0.2854,-0.2723,0.0804,0.0176,-0.023,0.0299,963,2019-08-07 16:33:10:911
-7.2427,-4.9643,3.3429,-0.2854,-0.2723,0.0804,0.0176,-0.023,0.0299,969,2019-08-07 16:33:10:917
-7.2427,-4.9643,3.3429,-0.4064,-0.2951,0.1662,0.0176,-0.023,0.0299,973,2019-08-07 16:33:10:921
-7.1901,-4.8927,3.3476,-0.4064,-0.2951,0.1662,0.0091,-0.0187,0.0288,979,2019-08-07 16:33:10:927
-7.1901,-4.8927,3.3476,-0.4064,-0.2951,0.1662,0.0091,-0.0187,0.0288,984,2019-08-07 16:33:10:932
-7.1997,-4.9357,3.3005,-0.4064,-0.2951,0.1662,0.0016,-0.0017,0.0288,989,2019-08-07 16:33:10:937
-7.1997,-4.9357,3.3005,-0.3992,-0.2471,0.2393,0.0016,-0.0017,0.0288,993,2019-08-07 16:33:10:941
-7.1997,-4.9357,3.3005,-0.3992,-0.2471,0.2393,0.0016,0.0164,0.0278,1000,2019-08-07 16:33:10:948
-7.2093,-4.9357,3.2251,-0.3992,-0.2471,0.2393,0.0016,0.0164,0.0278,1003,2019-08-07 16:33:10:951
-7.2093,-4.9357,3.2251,-0.3992,-0.2471,0.2393,-0.008,0.0356,0.0278,1010,2019-08-07 16:33:10:958
-7.2093,-4.9357,3.2251,-0.3992,-0.2471,0.2393,-0.008,0.0356,0.0278,1014,2019-08-07 16:33:10:962
-7.2858,-4.9977,3.2816,-0.2751,-0.2141,0.1689,-0.008,0.0356,0.0278,1019,2019-08-07 16:33:10:967
-7.2858,-4.9977,3.2816,-0.2751,-0.2141,0.1689,-0.0122,0.0484,0.0267,1023,2019-08-07 16:33:10:971
-7.3337,-4.9357,3.2769,-0.2751,-0.2141,0.1689,-0.0122,0.0484,0.0267,1029,2019-08-07 16:33:10:977
-7.3337,-4.9357,3.2769,-0.1766,-0.177,0.1218,-0.0207,0.0484,0.0288,1034,2019-08-07 16:33:10:982
-7.3337,-4.9357,3.2769,-0.1766,-0.177,0.1218,-0.0207,0.0484,0.0288,1040,2019-08-07 16:33:10:988
-7.3959,-4.9452,3.4089,-0.1766,-0.177,0.1218,-0.0207,0.0388,0.0246,1044,2019-08-07 16:33:10:992
-7.3959,-4.9452,3.4089,-0.1766,-0.177,0.1218,-0.0207,0.0388,0.0246,1049,2019-08-07 16:33:10:997
-7.3959,-4.9452,3.4089,-0.1915,-0.2406,0.1055,-0.0165,0.01,0.0278,1054,2019-08-07 16:33:11:002
-7.3146,-4.9977,3.2392,-0.1915,-0.2406,0.1055,-0.0165,0.01,0.0278,1058,2019-08-07 16:33:11:006
-7.3146,-4.9977,3.2392,-0.1915,-0.2406,0.1055,-0.0133,-0.0038,0.0214,1064,2019-08-07 16:33:11:012
-7.3289,-4.9643,3.2533,-0.1915,-0.2406,0.1055,-0.0133,-0.0038,0.0214,1069,2019-08-07 16:33:11:017
-7.3289,-4.9643,3.2533,-0.1915,-0.2406,0.1055,-0.0133,-0.0038,0.0214,1074,2019-08-07 16:33:11:022
-7.3289,-4.9643,3.2533,-0.2179,-0.2139,0.2079,-0.0133,-0.0166,0.0203,1079,2019-08-07 16:33:11:027
-7.3289,-4.9691,3.2816,-0.2179,-0.2139,0.2079,-0.0133,-0.0166,0.0203,1085,2019-08-07 16:33:11:033
-7.3289,-4.9691,3.2816,-0.2179,-0.2139,0.2079,-0.0058,-0.0187,0.0182,1089,2019-08-07 16:33:11:037
-7.2476,-4.9357,3.2392,-0.3291,-0.2638,0.1951,-0.0058,-0.0187,0.0182,1094,2019-08-07 16:33:11:042
-7.2476,-4.9357,3.2392,-0.3291,-0.2638,0.1951,-0.0016,-0.007,0.0128,1100,2019-08-07 16:33:11:048
-7.2476,-4.9357,3.2392,-0.3291,-0.2638,0.1951,-0.0016,-0.007,0.0128,1104,2019-08-07 16:33:11:052
-7.262,-4.9166,3.1496,-0.3291,-0.2638,0.1951,-0.0016,-0.007,0.0128,1109,2019-08-07 16:33:11:057
-7.262,-4.9166,3.1496,-0.3291,-0.2638,0.1951,-0.0037,0.0164,0.015,1114,2019-08-07 16:33:11:062
-7.262,-4.9166,3.1496,-0.341,-0.2615,0.2688,-0.0037,0.0164,0.015,1120,2019-08-07 16:33:11:068
-7.2189,-4.845,3.2109,-0.341,-0.2615,0.2688,-0.0048,0.0409,0.0064,1124,2019-08-07 16:33:11:072
-7.2189,-4.845,3.2109,-0.341,-0.2615,0.2688,-0.0048,0.0409,0.0064,1128,2019-08-07 16:33:11:076
-7.2859,-4.9452,3.2628,-0.341,-0.2615,0.2688,-0.0058,0.0548,0.0096,1134,2019-08-07 16:33:11:082
-7.2859,-4.9452,3.2628,-0.2258,-0.2792,0.0726,-0.0058,0.0548,0.0096,1138,2019-08-07 16:33:11:086
-7.2859,-4.9452,3.2628,-0.2258,-0.2792,0.0726,-0.0026,0.042,0.0086,1144,2019-08-07 16:33:11:092
-7.3099,-4.9309,3.2156,-0.2258,-0.2792,0.0726,-0.0026,0.042,0.0086,1149,2019-08-07 16:33:11:097
-7.3099,-4.9309,3.2156,-0.2258,-0.2792,0.0726,-0.0026,0.042,0.0086,1154,2019-08-07 16:33:11:102
-7.3099,-4.9309,3.2156,-0.2491,-0.2586,0.1884,-0.0037,0.0228,0.0128,1159,2019-08-07 16:33:11:107
-7.3625,-4.9166,3.2863,-0.2491,-0.2586,0.1884,-0.0037,0.0228,0.0128,1164,2019-08-07 16:33:11:112
-7.3625,-4.9166,3.2863,-0.2696,-0.2955,0.1306,-0.0048,-6.0E-4,0.015,1170,2019-08-07 16:33:11:118
-7.3625,-4.9166,3.2863,-0.2696,-0.2955,0.1306,-0.0048,-6.0E-4,0.015,1173,2019-08-07 16:33:11:121
-7.2525,-4.9214,3.2486,-0.2696,-0.2955,0.1306,0.0016,-0.0145,0.0256,1179,2019-08-07 16:33:11:127
-7.2525,-4.9214,3.2486,-0.2696,-0.2955,0.1306,0.0016,-0.0145,0.0256,1184,2019-08-07 16:33:11:132
-7.2238,-4.9357,3.192,-0.367,-0.2537,0.2266,0.0059,-0.007,0.032,1189,2019-08-07 16:33:11:137
-7.2238,-4.9357,3.192,-0.367,-0.2537,0.2266,0.0059,-0.007,0.032,1193,2019-08-07 16:33:11:141
-7.1137,-4.9404,3.2156,-0.367,-0.2537,0.2266,0.007,0.0132,0.0331,1199,2019-08-07 16:33:11:147
-7.1137,-4.9404,3.2156,-0.367,-0.2537,0.2266,0.007,0.0132,0.0331,1204,2019-08-07 16:33:11:152
-7.1137,-4.9404,3.2156,-0.447,-0.2391,0.1793,0.007,0.0132,0.0331,1209,2019-08-07 16:33:11:157
-7.1903,-4.9357,3.2109,-0.447,-0.2391,0.1793,0.0091,0.0239,0.0331,1214,2019-08-07 16:33:11:162
-7.1903,-4.9357,3.2109,-0.447,-0.2391,0.1793,0.0091,0.0239,0.0331,1219,2019-08-07 16:33:11:167
-7.1903,-4.9357,3.2109,-0.447,-0.2391,0.1793,0.008,0.0463,0.0341,1224,2019-08-07 16:33:11:172
-7.286,-4.9166,3.2345,-0.3145,-0.2622,0.1786,0.008,0.0665,0.0331,1229,2019-08-07 16:33:11:177
-7.286,-4.9166,3.2345,-0.3145,-0.2622,0.1786,0.008,0.0665,0.0331,1233,2019-08-07 16:33:11:181
-7.286,-4.9166,3.2345,-0.3145,-0.2622,0.1786,0.0048,0.0729,0.032,1239,2019-08-07 16:33:11:187
-7.3817,-4.9404,3.3052,-0.3145,-0.2622,0.1786,0.0048,0.0729,0.032,1244,2019-08-07 16:33:11:192
-7.3817,-4.9404,3.3052,-0.213,-0.2563,0.0789,0.0038,0.0676,0.0341,1249,2019-08-07 16:33:11:197
-7.3817,-4.9404,3.3052,-0.213,-0.2563,0.0789,0.0038,0.0676,0.0341,1254,2019-08-07 16:33:11:202
-7.4343,-4.907,3.3052,-0.213,-0.2563,0.0789,0.0038,0.0676,0.0341,1259,2019-08-07 16:33:11:207
-7.4343,-4.907,3.3052,-0.1884,-0.2818,0.0886,0.0048,0.0473,0.0331,1264,2019-08-07 16:33:11:212
-7.4343,-4.8784,3.3193,-0.1884,-0.2818,0.0886,0.0048,0.0473,0.0331,1270,2019-08-07 16:33:11:218
-7.4343,-4.8784,3.3193,-0.1884,-0.2818,0.0886,0.0091,0.0058,0.0309,1274,2019-08-07 16:33:11:222
-7.3722,-4.9023,3.2863,-0.2465,-0.2611,0.1096,0.0091,0.0058,0.0309,1278,2019-08-07 16:33:11:226
-7.3722,-4.9023,3.2863,-0.2465,-0.2611,0.1096,0.0091,-0.0145,0.0373,1285,2019-08-07 16:33:11:233
-7.3722,-4.9023,3.2863,-0.2465,-0.2611,0.1096,0.0091,-0.0145,0.0373,1288,2019-08-07 16:33:11:236
-7.3052,-4.9023,3.2439,-0.2465,-0.2611,0.1096,0.0091,-0.0145,0.0373,1294,2019-08-07 16:33:11:242
-7.3052,-4.9023,3.2439,-0.4456,-0.278,0.1419,0.0176,-0.0198,0.0427,1299,2019-08-07 16:33:11:247
-7.1999,-4.9022,3.2297,-0.4456,-0.278,0.1419,0.0176,-0.0198,0.0427,1304,2019-08-07 16:33:11:252
-7.1999,-4.9022,3.2297,-0.4456,-0.278,0.1419,0.0176,-0.0198,0.0427,1309,2019-08-07 16:33:11:257
-7.1999,-4.9022,3.2297,-0.428,-0.2407,0.2103,0.0219,-0.0081,0.0416,1314,2019-08-07 16:33:11:262
-7.1856,-4.9213,3.2203,-0.428,-0.2407,0.2103,0.0219,-0.0081,0.0416,1320,2019-08-07 16:33:11:268
-7.1856,-4.9213,3.2203,-0.428,-0.2407,0.2103,0.0208,0.0186,0.0491,1323,2019-08-07 16:33:11:271
-7.1521,-4.9357,3.1213,-0.4765,-0.2086,0.2812,0.0208,0.0186,0.0491,1329,2019-08-07 16:33:11:277
-7.1521,-4.9357,3.1213,-0.4765,-0.2086,0.2812,0.0272,0.0569,0.0491,1335,2019-08-07 16:33:11:283
-7.1521,-4.9357,3.1213,-0.4765,-0.2086,0.2812,0.0272,0.0569,0.0491,1339,2019-08-07 16:33:11:287
-7.2191,-4.907,3.192,-0.4765,-0.2086,0.2812,0.0272,0.0569,0.0491,1345,2019-08-07 16:33:11:293
-7.2191,-4.907,3.192,-0.3759,-0.1657,0.1752,0.0261,0.0718,0.0576,1349,2019-08-07 16:33:11:297
-7.2191,-4.907,3.192,-0.3759,-0.1657,0.1752,0.0261,0.0718,0.0576,1354,2019-08-07 16:33:11:302
-7.2765,-4.9595,3.2863,-0.3759,-0.1657,0.1752,0.0261,0.0697,0.0554,1359,2019-08-07 16:33:11:307
-7.2765,-4.9595,3.2863,-0.3,-0.2465,0.1379,0.0261,0.0697,0.0554,1364,2019-08-07 16:33:11:312
-7.3627,-4.8688,3.2391,-0.3,-0.2465,0.1379,0.0357,0.0527,0.0586,1369,2019-08-07 16:33:11:317
-7.3627,-4.8688,3.2391,-0.3,-0.2465,0.1379,0.0357,0.0527,0.0586,1374,2019-08-07 16:33:11:322
-7.3627,-4.8688,3.2391,-0.3047,-0.2822,0.1958,0.0411,0.0218,0.0682,1379,2019-08-07 16:33:11:327
-7.334,-4.845,3.1826,-0.3047,-0.2822,0.1958,0.0411,0.0218,0.0682,1384,2019-08-07 16:33:11:332
-7.334,-4.845,3.1826,-0.3047,-0.2822,0.1958,0.04,0.0015,0.0693,1389,2019-08-07 16:33:11:337
-7.334,-4.845,3.1826,-0.3047,-0.2822,0.1958,0.04,0.0015,0.0693,1395,2019-08-07 16:33:11:343
-7.2766,-4.7447,3.192,-0.4418,-0.3305,0.2082,0.0368,-6.0E-4,0.0725,1399,2019-08-07 16:33:11:347
-7.2766,-4.7447,3.192,-0.4418,-0.3305,0.2082,0.0368,-6.0E-4,0.0725,1404,2019-08-07 16:33:11:352
-7.2766,-4.7447,3.192,-0.4418,-0.3305,0.2082,0.0368,-6.0E-4,0.0725,1409,2019-08-07 16:33:11:357
-7.0756,-4.7877,3.1166,-0.4418,-0.3305,0.2082,0.0389,0.0271,0.0757,1413,2019-08-07 16:33:11:361
-7.0756,-4.7877,3.1166,-0.585,-0.231,0.3538,0.0389,0.0271,0.0757,1419,2019-08-07 16:33:11:367
-7.0996,-4.8545,3.0694,-0.585,-0.231,0.3538,0.0379,0.0878,0.0789,1424,2019-08-07 16:33:11:372
-7.0996,-4.8545,3.0694,-0.585,-0.231,0.3538,0.0379,0.0878,0.0789,1429,2019-08-07 16:33:11:377
-7.1235,-4.8306,3.1496,-0.5633,-0.224,0.2541,0.0368,0.1251,0.081,1434,2019-08-07 16:33:11:382
-7.1235,-4.8306,3.1496,-0.5633,-0.224,0.2541,0.0368,0.1251,0.081,1439,2019-08-07 16:33:11:387
-7.1235,-4.8306,3.1496,-0.5633,-0.224,0.2541,0.0379,0.1485,0.0895,1444,2019-08-07 16:33:11:392
-7.1714,-4.7161,3.1496,-0.5633,-0.224,0.2541,0.0379,0.1485,0.0895,1449,2019-08-07 16:33:11:397
-7.1714,-4.7161,3.1496,-0.5145,-0.3277,0.2456,0.0283,0.1496,0.097,1454,2019-08-07 16:33:11:402
-7.1714,-4.7161,3.1496,-0.5145,-0.3277,0.2456,0.0283,0.1496,0.097,1459,2019-08-07 16:33:11:407
-7.224,-4.6731,3.1071,-0.5145,-0.3277,0.2456,0.0283,0.1496,0.097,1464,2019-08-07 16:33:11:412
-7.224,-4.6731,3.1071,-0.5145,-0.3277,0.2456,0.0293,0.1325,0.1087,1469,2019-08-07 16:33:11:417
-7.224,-4.6731,3.1071,-0.4838,-0.3381,0.1177,0.0293,0.1325,0.1087,1474,2019-08-07 16:33:11:422
-7.2223,-4.7258,3.1876,-0.4838,-0.3381,0.1177,0.0325,0.0963,0.1226,1479,2019-08-07 16:33:11:427
-7.2223,-4.7258,3.1876,-0.5125,-0.275,0.1163,0.0325,0.0963,0.1226,1485,2019-08-07 16:33:11:433
-7.1935,-4.8213,3.2206,-0.5125,-0.275,0.1163,0.0442,0.0527,0.1375,1489,2019-08-07 16:33:11:437
-7.1935,-4.8213,3.2206,-0.5125,-0.275,0.1163,0.0442,0.0527,0.1375,1495,2019-08-07 16:33:11:443
-7.1935,-4.8213,3.2206,-0.5125,-0.275,0.1163,0.057,0.0218,0.1609,1499,2019-08-07 16:33:11:447
-7.16,-4.7783,3.1688,-0.5826,-0.2356,0.1702,0.057,0.0218,0.1609,1504,2019-08-07 16:33:11:452
-7.16,-4.7783,3.1688,-0.5826,-0.2356,0.1702,0.057,0.0218,0.1609,1509,2019-08-07 16:33:11:457
-7.1409,-4.8547,3.0321,-0.5826,-0.2356,0.1702,0.0666,0.0026,0.1875,1515,2019-08-07 16:33:11:463
-7.1409,-4.8547,3.0321,-0.5826,-0.2356,0.1702,0.0666,0.0026,0.1875,1520,2019-08-07 16:33:11:468
-7.1409,-4.8547,3.0321,-0.6204,-0.1315,0.3499,0.0858,0.0164,0.2067,1524,2019-08-07 16:33:11:472
-7.2174,-4.9358,2.9331,-0.6204,-0.1315,0.3499,0.0858,0.0164,0.2067,1528,2019-08-07 16:33:11:476
-7.2174,-4.9358,2.9331,-0.6204,-0.1315,0.3499,0.0943,0.0495,0.2291,1534,2019-08-07 16:33:11:482
-7.2174,-4.9358,2.9331,-0.6204,-0.1315,0.3499,0.0943,0.0495,0.2291,1540,2019-08-07 16:33:11:488
-7.2174,-4.9358,2.9331,-0.6204,-0.1315,0.3499,0.0943,0.0495,0.2291,1543,2019-08-07 16:33:11:491
-7.2748,-5.0265,2.9331,-0.5114,0.0845,0.4115,0.1103,0.0995,0.2397,1549,2019-08-07 16:33:11:497
-7.2748,-5.0265,2.9331,-0.5114,0.0845,0.4115,0.1103,0.0995,0.2397,1554,2019-08-07 16:33:11:502
-7.5523,-5.1125,3.0368,-0.5114,0.0845,0.4115,0.138,0.1752,0.2419,1559,2019-08-07 16:33:11:507
-7.5523,-5.1125,3.0368,-0.1952,0.224,0.239,0.138,0.1752,0.2419,1564,2019-08-07 16:33:11:512
-7.8154,-5.1984,3.2772,-0.1952,0.224,0.239,0.1646,0.2071,0.2419,1568,2019-08-07 16:33:11:516
-7.8154,-5.1984,3.2772,-0.1952,0.224,0.239,0.1646,0.2071,0.2419,1574,2019-08-07 16:33:11:522
-7.8154,-5.1984,3.2772,-0.1952,0.224,0.239,0.1646,0.2071,0.2419,1580,2019-08-07 16:33:11:528
-8.1551,-5.1888,3.4139,0.3803,0.344,-0.1353,0.1923,0.1933,0.2344,1584,2019-08-07 16:33:11:532
-8.1551,-5.1888,3.4139,0.3803,0.344,-0.1353,0.1923,0.1933,0.2344,1589,2019-08-07 16:33:11:537
-8.1551,-5.1888,3.4139,0.3803,0.344,-0.1353,0.2147,0.1251,0.2227,1593,2019-08-07 16:33:11:541
-8.4469,-5.2557,3.6072,0.3803,0.344,-0.1353,0.2147,0.1251,0.2227,1600,2019-08-07 16:33:11:548
-8.4469,-5.2557,3.6072,0.6084,0.465,-0.3567,0.2147,0.1251,0.2227,1604,2019-08-07 16:33:11:552
-8.4995,-5.3034,3.6543,0.6084,0.465,-0.3567,0.2371,0.0143,0.2003,1610,2019-08-07 16:33:11:558
-8.4995,-5.3034,3.6543,0.5991,0.5648,-0.397,0.2488,-0.0475,0.1844,1615,2019-08-07 16:33:11:563
-8.4995,-5.3034,3.6543,0.5991,0.5648,-0.397,0.2488,-0.0475,0.1844,1619,2019-08-07 16:33:11:567
-8.466,-5.3607,3.7298,0.5991,0.5648,-0.397,0.2488,-0.0475,0.1844,1623,2019-08-07 16:33:11:571
-8.466,-5.3607,3.7298,0.5991,0.5648,-0.397,0.2701,-0.1125,0.1503,1629,2019-08-07 16:33:11:577
-8.3943,-5.27,3.7628,0.4905,0.5358,-0.3932,0.2701,-0.1125,0.1503,1634,2019-08-07 16:33:11:582
-8.3943,-5.27,3.7628,0.4905,0.5358,-0.3932,0.2861,-0.138,0.1226,1639,2019-08-07 16:33:11:587
-8.3943,-5.27,3.7628,0.4905,0.5358,-0.3932,0.2861,-0.138,0.1226,1644,2019-08-07 16:33:11:592
-8.3799,-5.3321,3.8712,0.4905,0.5358,-0.3932,0.2946,-0.1274,0.1077,1649,2019-08-07 16:33:11:597
-8.3799,-5.3321,3.8712,0.5568,0.7306,-0.6589,0.2946,-0.1274,0.1077,1653,2019-08-07 16:33:11:601
-8.3799,-5.3321,3.8712,0.5568,0.7306,-0.6589,0.2946,-0.1274,0.1077,1659,2019-08-07 16:33:11:607
-8.5904,-5.671,4.2766,0.5568,0.7306,-0.6589,0.3084,-0.1039,0.1045,1664,2019-08-07 16:33:11:612
-8.5904,-5.671,4.2766,0.5568,0.7306,-0.6589,0.3084,-0.1039,0.1045,1669,2019-08-07 16:33:11:617
-9.2793,-6.7642,5.653,1.3749,2.1052,-2.1817,0.4,-0.0933,0.129,1674,2019-08-07 16:33:11:622
-9.2793,-6.7642,5.653,1.3749,2.1052,-2.1817,0.4,-0.0933,0.129,1679,2019-08-07 16:33:11:627
-9.2793,-6.7642,5.653,1.3749,2.1052,-2.1817,0.5758,-0.1615,0.1545,1684,2019-08-07 16:33:11:632
-9.7338,-7.7381,7.4113,1.3749,2.1052,-2.1817,0.5758,-0.1615,0.1545,1689,2019-08-07 16:33:11:637
-9.7338,-7.7381,7.4113,2.0429,3.6718,-4.7495,0.9242,-0.3521,0.1545,1694,2019-08-07 16:33:11:642
-10.15,-8.6594,8.9291,2.0429,3.6718,-4.7495,0.9242,-0.3521,0.1545,1700,2019-08-07 16:33:11:648
-10.15,-8.6594,8.9291,2.0429,3.6718,-4.7495,0.9242,-0.3521,0.1545,1704,2019-08-07 16:33:11:652
-10.15,-8.6594,8.9291,2.0429,3.6718,-4.7495,1.2629,-0.5545,0.1119,1709,2019-08-07 16:33:11:657
-10.8772,-9.4805,10.8759,2.0429,3.6718,-4.7495,1.2629,-0.5545,0.1119,1714,2019-08-07 16:33:11:662
-10.8772,-9.4805,10.8759,3.2613,5.15,-7.6254,1.6326,-0.8209,0.065,1719,2019-08-07 16:33:11:667
-10.8772,-9.4805,10.8759,3.2613,5.15,-7.6254,1.6326,-0.8209,0.065,1724,2019-08-07 16:33:11:672
-12.4991,-10.4448,14.7318,3.2613,5.15,-7.6254,2.065,-1.1074,-0.0031,1729,2019-08-07 16:33:11:677
-12.4991,-10.4448,14.7318,5.9977,6.6919,-12.2737,2.065,-1.1074,-0.0031,1734,2019-08-07 16:33:11:682
-14.628,-11.6001,17.5789,5.9977,6.6919,-12.2737,2.6094,-1.5634,-0.1672,1739,2019-08-07 16:33:11:687
-14.628,-11.6001,17.5789,5.9977,6.6919,-12.2737,2.6094,-1.5634,-0.1672,1744,2019-08-07 16:33:11:692
-14.628,-11.6001,17.5789,7.771,8.1124,-14.2473,2.8768,-1.8052,-0.3802,1749,2019-08-07 16:33:11:697
-16.5656,-13.5001,19.8557,7.771,8.1124,-14.2473,2.8768,-1.8052,-0.3802,1754,2019-08-07 16:33:11:702
-16.5656,-13.5001,19.8557,7.771,8.1124,-14.2473,2.8768,-1.8052,-0.3802,1759,2019-08-07 16:33:11:707
-16.5656,-13.5001,19.8557,7.771,8.1124,-14.2473,3.2166,-1.852,-0.7137,1764,2019-08-07 16:33:11:712
-17.8287,-14.3212,20.379,10.754,10.2341,-15.4539,3.2166,-1.852,-0.7137,1768,2019-08-07 16:33:11:716
-17.8287,-14.3212,20.379,10.754,10.2341,-15.4539,3.6874,-1.541,-1.2676,1774,2019-08-07 16:33:11:722
-21.3594,-12.0966,21.1237,10.754,10.2341,-15.4539,3.6874,-1.541,-1.2676,1779,2019-08-07 16:33:11:727
-21.3594,-12.0966,21.1237,17.4531,6.3722,-17.1391,3.9303,-1.4419,-1.6319,1785,2019-08-07 16:33:11:733
-21.3594,-12.0966,21.1237,17.4531,6.3722,-17.1391,3.9303,-1.4419,-1.6319,1789,2019-08-07 16:33:11:737
-27.2727,-9.1225,23.9992,17.4531,6.3722,-17.1391,3.9303,-1.4419,-1.6319,1793,2019-08-07 16:33:11:741
-27.2727,-9.1225,23.9992,22.9449,4.432,-19.7221,3.9878,-2.0928,-1.7715,1799,2019-08-07 16:33:11:747
-32.6071,-7.4135,26.4409,22.9449,4.432,-19.7221,3.9878,-2.0928,-1.7715,1804,2019-08-07 16:33:11:752
-32.6071,-7.4135,26.4409,22.9449,4.432,-19.7221,3.7801,-4.3469,-1.7257,1809,2019-08-07 16:33:11:757
-32.6071,-7.4135,26.4409,22.9449,4.432,-19.7221,3.7801,-4.3469,-1.7257,1814,2019-08-07 16:33:11:762
-37.6736,-6.0147,25.6631,31.311,2.5383,-19.055,3.3284,-6.9578,-1.6394,1819,2019-08-07 16:33:11:767
-37.6736,-6.0147,25.6631,31.311,2.5383,-19.055,3.3284,-6.9578,-1.6394,1823,2019-08-07 16:33:11:771
-37.6736,-6.0147,25.6631,31.311,2.5383,-19.055,2.6446,-9.6753,-1.6404,1829,2019-08-07 16:33:11:777
-36.6067,-5.4467,19.9359,31.311,2.5383,-19.055,2.6446,-9.6753,-1.6404,1835,2019-08-07 16:33:11:783
-36.6067,-5.4467,19.9359,28.5484,2.0393,-6.6491,1.6997,-12.281,-1.812,1839,2019-08-07 16:33:11:787
-28.9089,-5.2509,9.4901,28.5484,2.0393,-6.6491,1.6997,-12.281,-1.812,1845,2019-08-07 16:33:11:793
-28.9089,-5.2509,9.4901,23.5116,1.9939,0.5251,1.248,-13.1012,-1.9835,1849,2019-08-07 16:33:11:797
-28.9089,-5.2509,9.4901,23.5116,1.9939,0.5251,1.248,-13.1012,-1.9835,1854,2019-08-07 16:33:11:802
-20.9192,-4.7019,2.5985,23.5116,1.9939,0.5251,1.248,-13.1012,-1.9835,1859,2019-08-07 16:33:11:807
-20.9192,-4.7019,2.5985,23.5116,1.9939,0.5251,0.8922,-12.6016,-2.172,1864,2019-08-07 16:33:11:812
-13.3984,-4.2675,-0.5645,13.1177,1.268,9.1053,0.8922,-12.6016,-2.172,1868,2019-08-07 16:33:11:816
-13.3984,-4.2675,-0.5645,13.1177,1.268,9.1053,0.8229,-10.5265,-2.1017,1874,2019-08-07 16:33:11:822
-13.3984,-4.2675,-0.5645,13.1177,1.268,9.1053,0.8229,-10.5265,-2.1017,1879,2019-08-07 16:33:11:827
-9.3892,-3.1361,-2.0258,13.1177,1.268,9.1053,0.6962,-8.348,-1.8524,1884,2019-08-07 16:33:11:832
-9.3892,-3.1361,-2.0258,9.1951,-0.6137,11.1297,0.6962,-8.348,-1.8524,1888,2019-08-07 16:33:11:836
-9.0734,-1.3698,-1.3375,9.1951,-0.6137,11.1297,0.5289,-6.4582,-1.5904,1894,2019-08-07 16:33:11:842
-9.0734,-1.3698,-1.3375,11.4118,-3.1057,10.8207,0.5289,-6.4582,-1.5904,1899,2019-08-07 16:33:11:847
-9.0734,-1.3698,-1.3375,11.4118,-3.1057,10.8207,0.5289,-6.4582,-1.5904,1904,2019-08-07 16:33:11:852
-14.3169,3.0078,-2.4547,11.4118,-3.1057,10.8207,0.2392,-5.279,-0.9672,1909,2019-08-07 16:33:11:857
-14.3169,3.0078,-2.4547,11.4118,-3.1057,10.8207,0.2392,-5.279,-0.9672,1913,2019-08-07 16:33:11:861
-16.4411,3.7048,-3.0864,18.4332,-6.5521,11.8677,0.0229,-5.5347,-0.3653,1919,2019-08-07 16:33:11:867
-16.4411,3.7048,-3.0864,18.4332,-6.5521,11.8677,0.0229,-5.5347,-0.3653,1924,2019-08-07 16:33:11:872
-16.4411,3.7048,-3.0864,18.4332,-6.5521,11.8677,-0.1891,-6.1813,0.0512,1929,2019-08-07 16:33:11:877
-14.9675,3.3658,-7.2675,18.4332,-6.5521,11.8677,-0.1891,-6.1813,0.0512,1934,2019-08-07 16:33:11:882
-14.9675,3.3658,-7.2675,15.2432,-6.1532,20.0556,-0.7483,-7.5171,0.6424,1939,2019-08-07 16:33:11:887
-9.4848,2.8073,-13.5746,15.2432,-6.1532,20.0556,-0.7483,-7.5171,0.6424,1944,2019-08-07 16:33:11:892
-9.4848,2.8073,-13.5746,10.5352,-6.0414,22.9739,-1.168,-8.5472,0.8949,1949,2019-08-07 16:33:11:897
-9.4848,2.8073,-13.5746,10.5352,-6.0414,22.9739,-1.168,-8.5472,0.8949,1955,2019-08-07 16:33:11:903
-1.2463,2.5447,-12.8204,10.5352,-6.0414,22.9739,-1.168,-8.5472,0.8949,1959,2019-08-07 16:33:11:907
-1.2463,2.5447,-12.8204,10.5352,-6.0414,22.9739,-1.3289,-10.2421,0.7404,1963,2019-08-07 16:33:11:911
-1.2463,2.5447,-12.8204,4.9432,-6.125,20.9705,-1.3289,-10.2421,0.7404,1968,2019-08-07 16:33:11:916
0.3756,2.8646,-13.8998,4.9432,-6.125,20.9705,-1.0114,-10.3912,0.3963,1974,2019-08-07 16:33:11:922
0.3756,2.8646,-13.8998,6.9903,-6.5165,19.1899,-1.0114,-10.3912,0.3963,1979,2019-08-07 16:33:11:927
1.4903,1.8764,-19.8864,6.9903,-6.5165,19.1899,-0.0708,-3.9314,0.325,1984,2019-08-07 16:33:11:932
1.4903,1.8764,-19.8864,6.9903,-6.5165,19.1899,-0.0708,-3.9314,0.325,1989,2019-08-07 16:33:11:937
1.4903,1.8764,-19.8864,6.9903,-6.5165,19.1899,-0.0857,-1.655,0.2717,1994,2019-08-07 16:33:11:942
-3.1026,3.2178,-19.8722,10.802,-6.7092,24.9545,-0.0857,-1.655,0.2717,2000,2019-08-07 16:33:11:948
-3.1026,3.2178,-19.8722,10.802,-6.7092,24.9545,-0.0857,-1.655,0.2717,2003,2019-08-07 16:33:11:951
-3.1026,3.2178,-19.8722,10.802,-6.7092,24.9545,-0.4415,0.7493,0.2472,2009,2019-08-07 16:33:11:957
-1.8634,2.0291,7.6706,8.4164,-5.596,-1.3009,-0.4415,0.7493,0.2472,2014,2019-08-07 16:33:11:962
-1.8634,2.0291,7.6706,8.4164,-5.596,-1.3009,-0.8271,-1.3109,-0.0926,2019,2019-08-07 16:33:11:967
-1.8634,2.0291,7.6706,8.4164,-5.596,-1.3009,-0.8271,-1.3109,-0.0926,2024,2019-08-07 16:33:11:972
0.6052,1.6663,-7.5362,8.4164,-5.596,-1.3009,-0.9635,-1.818,-0.246,2029,2019-08-07 16:33:11:977
0.6052,1.6663,-7.5362,4.4638,-4.9396,10.1731,-0.9635,-1.818,-0.246,2034,2019-08-07 16:33:11:982
3.8107,0.0432,-7.7106,4.4638,-4.9396,10.1731,-1.0221,-5.4867,-0.3611,2039,2019-08-07 16:33:11:987
3.8107,0.0432,-7.7106,4.4638,-4.9396,10.1731,-1.0221,-5.4867,-0.3611,2044,2019-08-07 16:33:11:992
3.8107,0.0432,-7.7106,-0.6413,-1.9191,-0.7534,-1.0221,-5.4867,-0.3611,2050,2019-08-07 16:33:11:998
8.0543,-0.5774,-2.1671,-0.6413,-1.9191,-0.7534,-0.3403,-5.8201,-0.2801,2054,2019-08-07 16:33:12:002
8.0543,-0.5774,-2.1671,-0.6413,-1.9191,-0.7534,-0.3403,-5.8201,-0.2801,2059,2019-08-07 16:33:12:007
8.0543,-0.5774,-2.1671,-0.6413,-1.9191,-0.7534,-0.1369,-3.8313,-0.0884,2064,2019-08-07 16:33:12:012
15.4795,-1.9188,-14.0506,-0.6413,-1.9191,-0.7534,-0.1369,-3.8313,-0.0884,2069,2019-08-07 16:33:12:017
15.4795,-1.9188,-14.0506,-5.9342,-2.6949,20.4287,-0.3701,-1.0009,0.1396,2074,2019-08-07 16:33:12:022
15.4795,-1.9188,-14.0506,-5.9342,-2.6949,20.4287,-0.3701,-1.0009,0.1396,2079,2019-08-07 16:33:12:027
14.226,-2.1145,-15.6958,-5.9342,-2.6949,20.4287,-0.3701,-1.0009,0.1396,2084,2019-08-07 16:33:12:032
14.226,-2.1145,-15.6958,-4.7518,-0.3669,14.573,-0.6343,1.2308,0.3686,2089,2019-08-07 16:33:12:037
12.4319,-3.6613,-8.3752,-4.7518,-0.3669,14.573,-0.6588,2.6604,0.4848,2094,2019-08-07 16:33:12:042
12.4319,-3.6613,-8.3752,-4.7518,-0.3669,14.573,-0.6588,2.6604,0.4848,2099,2019-08-07 16:33:12:047
12.4319,-3.6613,-8.3752,-4.7518,-0.3669,14.573,0.1114,1.4822,0.4624,2104,2019-08-07 16:33:12:052
8.772,-3.9286,-3.4163,-4.7518,-0.3669,14.573,0.1114,1.4822,0.4624,2108,2019-08-07 16:33:12:056
8.772,-3.9286,-3.4163,2.002,0.1819,9.0988,0.4032,1.1339,0.5295,2115,2019-08-07 16:33:12:063
6.777,-3.2794,-6.5887,2.002,0.1819,9.0988,0.4032,1.1339,0.5295,2119,2019-08-07 16:33:12:067
6.777,-3.2794,-6.5887,2.002,0.1819,9.0988,0.4032,1.1339,0.5295,2124,2019-08-07 16:33:12:072
6.777,-3.2794,-6.5887,2.002,0.1819,9.0988,0.2648,1.5792,0.4294,2130,2019-08-07 16:33:12:078
5.0355,-2.3007,-3.2513,1.905,-1.513,7.2829,0.2648,1.5792,0.4294,2134,2019-08-07 16:33:12:082
5.0355,-2.3007,-3.2513,1.905,-1.513,7.2829,-0.0399,1.0764,0.4741,2139,2019-08-07 16:33:12:087
5.0355,-2.3007,-3.2513,1.905,-1.513,7.2829,-0.0399,1.0764,0.4741,2144,2019-08-07 16:33:12:092
5.4279,-2.6254,-2.2944,1.905,-1.513,7.2829,-0.0399,1.0764,0.4741,2149,2019-08-07 16:33:12:097
5.4279,-2.6254,-2.2944,1.5563,-1.1692,8.426,0.2935,1.4109,0.5188,2154,2019-08-07 16:33:12:102
5.4279,-2.6254,-2.2944,1.5563,-1.1692,8.426,0.2935,1.4109,0.5188,2159,2019-08-07 16:33:12:107
5.9446,-2.549,-4.8587,1.5563,-1.1692,8.426,0.3532,1.8561,0.3868,2165,2019-08-07 16:33:12:113
5.9446,-2.549,-4.8587,1.5563,-1.1692,8.426,0.3532,1.8561,0.3868,2168,2019-08-07 16:33:12:116
4.0931,-0.9736,-5.5846,2.8825,-2.9081,10.7296,0.0634,2.5869,0.1662,2174,2019-08-07 16:33:12:122
4.0931,-0.9736,-5.5846,2.8825,-2.9081,10.7296,0.0634,2.5869,0.1662,2179,2019-08-07 16:33:12:127
4.0931,-0.9736,-5.5846,3.4061,-3.5038,10.1776,-0.1411,3.2197,0.114,2184,2019-08-07 16:33:12:132
3.7295,-0.5726,-3.4116,3.4061,-3.5038,10.1776,-0.1411,3.2197,0.114,2188,2019-08-07 16:33:12:136
3.7295,-0.5726,-3.4116,3.4061,-3.5038,10.1776,-0.2082,3.437,0.0171,2194,2019-08-07 16:33:12:142
2.7153,-0.5297,-2.6243,3.4061,-3.5038,10.1776,-0.2082,3.437,0.0171,2200,2019-08-07 16:33:12:148
2.7153,-0.5297,-2.6243,4.2379,-3.6702,8.3512,-0.188,3.7512,-0.0276,2204,2019-08-07 16:33:12:152
2.7153,-0.5297,-2.6243,4.2379,-3.6702,8.3512,-0.188,3.7512,-0.0276,2209,2019-08-07 16:33:12:157
2.1268,-0.3244,-3.0769,4.2379,-3.6702,8.3512,-0.3584,3.9078,-0.0106,2215,2019-08-07 16:33:12:163
2.1268,-0.3244,-3.0769,4.2379,-3.6702,8.3512,-0.3584,3.9078,-0.0106,2219,2019-08-07 16:33:12:167
1.1556,-0.1287,-4.326,5.0848,-4.0635,10.3334,-0.3584,3.9078,-0.0106,2224,2019-08-07 16:33:12:172
1.1556,-0.1287,-4.326,5.0848,-4.0635,10.3334,-0.6769,4.2423,0.1599,2229,2019-08-07 16:33:12:177
1.1556,-0.1287,-4.326,5.1626,-3.9512,10.5932,-0.6769,4.2423,0.1599,2234,2019-08-07 16:33:12:182
0.9212,-0.4867,-3.8876,5.1626,-3.9512,10.5932,-0.8943,4.7217,0.4304,2239,2019-08-07 16:33:12:187
0.9212,-0.4867,-3.8876,5.1626,-3.9512,10.5932,-0.8943,4.7217,0.4304,2243,2019-08-07 16:33:12:191
0.5289,-0.9307,-4.1186,5.1626,-3.9512,10.5932,-0.9113,5.0796,0.5849,2249,2019-08-07 16:33:12:197
0.5289,-0.9307,-4.1186,5.3326,-3.1914,11.3424,-0.9113,5.0796,0.5849,2254,2019-08-07 16:33:12:202
0.5289,-0.9307,-4.1186,5.3326,-3.1914,11.3424,-0.9113,5.0796,0.5849,2259,2019-08-07 16:33:12:207
-0.6719,-1.7613,-4.6183,5.3326,-3.1914,11.3424,-0.9422,5.8807,0.8512,2263,2019-08-07 16:33:12:211
-0.6719,-1.7613,-4.6183,5.3326,-3.1914,11.3424,-0.9965,6.4858,1.0749,2269,2019-08-07 16:33:12:217
-0.6719,-1.7613,-4.6183,6.761,-2.6236,10.122,-0.9965,6.4858,1.0749,2274,2019-08-07 16:33:12:222
-2.6574,-2.1193,-2.2331,6.761,-2.6236,10.122,-0.923,7.0227,1.2965,2279,2019-08-07 16:33:12:227
-2.6574,-2.1193,-2.2331,6.761,-2.6236,10.122,-0.923,7.0227,1.2965,2284,2019-08-07 16:33:12:232
-4.9299,-1.852,0.2511,6.761,-2.6236,10.122,-0.923,7.0227,1.2965,2289,2019-08-07 16:33:12:237
-4.9299,-1.852,0.2511,8.5847,-3.3234,7.3815,-0.808,7.5084,1.4648,2294,2019-08-07 16:33:12:242
-4.9299,-1.852,0.2511,8.5847,-3.3234,7.3815,-0.808,7.5084,1.4648,2299,2019-08-07 16:33:12:247
-6.767,-0.7349,0.5434,8.5847,-3.3234,7.3815,-0.808,7.5084,1.4648,2304,2019-08-07 16:33:12:252
-6.767,-0.7349,0.5434,8.5847,-3.3234,7.3815,-1.0263,7.7194,1.5287,2309,2019-08-07 16:33:12:257
-8.5515,0.2103,0.6471,10.0669,-5.3552,7.5337,-1.3608,7.7428,1.6672,2315,2019-08-07 16:33:12:263
-8.5515,0.2103,0.6471,10.0669,-5.3552,7.5337,-1.3608,7.7428,1.6672,2318,2019-08-07 16:33:12:266
-8.5515,0.2103,0.6471,10.0669,-5.3552,7.5337,-1.3608,7.7428,1.6672,2324,2019-08-07 16:33:12:272
-9.5179,-0.2241,1.4625,10.0669,-5.3552,7.5337,-1.6591,7.8759,1.9261,2329,2019-08-07 16:33:12:277
-9.5179,-0.2241,1.4625,10.0919,-3.7065,4.8097,-1.6591,7.8759,1.9261,2334,2019-08-07 16:33:12:282
-10.8049,-3.9477,5.5211,10.0919,-3.7065,4.8097,-1.8328,8.073,2.2211,2340,2019-08-07 16:33:12:288
-10.8049,-3.9477,5.5211,10.0919,-3.7065,4.8097,-1.8328,8.073,2.2211,2344,2019-08-07 16:33:12:292
-10.8049,-3.9477,5.5211,10.0919,-3.7065,4.8097,-1.6975,8.073,2.3649,2350,2019-08-07 16:33:12:298
-13.4601,-6.7118,8.0383,12.0904,0.8984,-0.2559,-1.6975,8.073,2.3649,2353,2019-08-07 16:33:12:301
-13.4601,-6.7118,8.0383,12.0904,0.8984,-0.2559,-1.6975,8.073,2.3649,2359,2019-08-07 16:33:12:307
-13.4601,-6.7118,8.0383,12.0904,0.8984,-0.2559,-1.4652,7.7449,2.4257,2364,2019-08-07 16:33:12:312
-16.1393,-8.4638,10.2161,12.0904,0.8984,-0.2559,-1.4652,7.7449,2.4257,2369,2019-08-07 16:33:12:317
-16.1393,-8.4638,10.2161,14.3088,2.7996,-3.7566,-1.1766,6.7979,2.2808,2374,2019-08-07 16:33:12:322
-16.1393,-8.4638,10.2161,14.3088,2.7996,-3.7566,-1.1766,6.7979,2.2808,2378,2019-08-07 16:33:12:326
-17.6846,-8.1678,11.4653,14.3088,2.7996,-3.7566,-1.1116,5.7241,2.0123,2384,2019-08-07 16:33:12:332
-17.6846,-8.1678,11.4653,14.3088,2.7996,-3.7566,-1.1116,5.7241,2.0123,2389,2019-08-07 16:33:12:337
-18.8806,-5.0839,12.0686,14.3088,2.7996,-3.7566,-1.3033,4.5577,1.8483,2394,2019-08-07 16:33:12:342
-18.8806,-5.0839,12.0686,15.0454,-1.4083,-5.487,-1.3033,4.5577,1.8483,2399,2019-08-07 16:33:12:347
-18.8806,-5.0839,12.0686,15.0454,-1.4083,-5.487,-1.8029,3.405,2.0187,2404,2019-08-07 16:33:12:352
-17.9094,-3.3796,11.0693,15.0454,-1.4083,-5.487,-1.8029,3.405,2.0187,2409,2019-08-07 16:33:12:357
-17.9094,-3.3796,11.0693,11.1296,-1.0237,-4.2422,-2.2237,2.9299,2.1583,2415,2019-08-07 16:33:12:363
-14.5317,-6.5924,10.7535,11.1296,-1.0237,-4.2422,-2.2237,2.9299,2.1583,2419,2019-08-07 16:33:12:367
-14.5317,-6.5924,10.7535,11.1296,-1.0237,-4.2422,-2.2237,2.9299,2.1583,2424,2019-08-07 16:33:12:372
-14.5317,-6.5924,10.7535,11.1296,-1.0237,-4.2422,-2.2525,3.0098,2.0092,2429,2019-08-07 16:33:12:377
-12.6754,-10.822,11.0033,7.1454,5.3722,-5.117,-2.2525,3.0098,2.0092,2434,2019-08-07 16:33:12:382
-12.6754,-10.822,11.0033,7.1454,5.3722,-5.117,-2.0639,3.5307,1.7918,2439,2019-08-07 16:33:12:387
-12.6754,-10.822,11.0033,7.1454,5.3722,-5.117,-2.0639,3.5307,1.7918,2444,2019-08-07 16:33:12:392
-12.2353,-12.4213,10.1407,7.1454,5.3722,-5.117,-2.0213,4.2381,1.5628,2449,2019-08-07 16:33:12:397
-12.2353,-12.4213,10.1407,7.2832,6.2426,-5.7372,-2.0213,4.2381,1.5628,2453,2019-08-07 16:33:12:401
-12.2353,-12.4213,10.1407,7.2832,6.2426,-5.7372,-2.0213,4.2381,1.5628,2459,2019-08-07 16:33:12:407
-14.3451,-11.9916,10.7771,7.2832,6.2426,-5.7372,-1.968,4.9028,1.3679,2464,2019-08-07 16:33:12:412
-14.3451,-11.9916,10.7771,9.3319,5.7391,-6.19,-1.9158,4.8613,1.2976,2469,2019-08-07 16:33:12:417
-17.1927,-11.4903,10.7391,9.3319,5.7391,-6.19,-1.9158,4.8613,1.2976,2474,2019-08-07 16:33:12:422
-17.1927,-11.4903,10.7391,9.3319,5.7391,-6.19,-1.9158,4.8613,1.2976,2478,2019-08-07 16:33:12:426
-17.1927,-11.4903,10.7391,9.3319,5.7391,-6.19,-1.9094,4.3755,1.2603,2484,2019-08-07 16:33:12:432
-18.6806,-11.2611,10.8617,11.8868,5.2292,-7.1608,-1.9094,4.3755,1.2603,2489,2019-08-07 16:33:12:437
-18.6806,-11.2611,10.8617,11.8868,5.2292,-7.1608,-1.8328,2.948,1.2177,2494,2019-08-07 16:33:12:442
-17.762,-11.328,11.2954,11.8868,5.2292,-7.1608,-1.8328,2.948,1.2177,2499,2019-08-07 16:33:12:447
-17.762,-11.328,11.2954,11.8868,5.2292,-7.1608,-1.6442,1.7294,1.1591,2504,2019-08-07 16:33:12:452
-15.5708,-11.4807,10.758,9.0618,5.4872,-7.9091,-1.6442,1.7294,1.1591,2509,2019-08-07 16:33:12:457
-15.5708,-11.4807,10.758,9.0618,5.4872,-7.9091,-1.4141,0.4234,0.9354,2514,2019-08-07 16:33:12:462
-15.5708,-11.4807,10.758,9.0618,5.4872,-7.9091,-1.4141,0.4234,0.9354,2520,2019-08-07 16:33:12:468
-13.1309,-11.3996,9.5371,9.0618,5.4872,-7.9091,-1.4141,0.4234,0.9354,2523,2019-08-07 16:33:12:471
-13.1309,-11.3996,9.5371,4.6478,5.6345,-6.522,-1.2469,-0.2999,0.7692,2529,2019-08-07 16:33:12:477
-13.1309,-11.3996,9.5371,4.6478,5.6345,-6.522,-1.2469,-0.2999,0.7692,2534,2019-08-07 16:33:12:482
-9.3418,-12.2207,9.0846,4.6478,5.6345,-6.522,-0.8932,-0.3106,0.5892,2539,2019-08-07 16:33:12:487
-9.3418,-12.2207,9.0846,4.6478,5.6345,-6.522,-0.8932,-0.3106,0.5892,2544,2019-08-07 16:33:12:492
-7.4903,-12.6312,8.6274,0.4369,6.7303,-5.7906,-0.5438,0.075,0.4038,2549,2019-08-07 16:33:12:497
-7.4903,-12.6312,8.6274,0.4369,6.7303,-5.7906,-0.5438,0.075,0.4038,2553,2019-08-07 16:33:12:501
-7.4903,-12.6312,8.6274,0.4369,6.7303,-5.7906,-0.2359,0.5469,0.1993,2559,2019-08-07 16:33:12:507
-7.3276,-12.2589,8.6226,0.4369,6.7303,-5.7906,-0.2359,0.5469,0.1993,2565,2019-08-07 16:33:12:513
-7.3276,-12.2589,8.6226,0.3164,5.877,-5.8996,-0.2359,0.5469,0.1993,2569,2019-08-07 16:33:12:517
-8.3801,-10.9842,8.5614,0.3164,5.877,-5.8996,0.057,0.8537,-0.0276,2574,2019-08-07 16:33:12:522
-8.3801,-10.9842,8.5614,0.3164,5.877,-5.8996,0.057,0.8537,-0.0276,2579,2019-08-07 16:33:12:527
-8.3801,-10.9842,8.5614,0.3164,5.877,-5.8996,0.1785,0.7014,-0.1619,2585,2019-08-07 16:33:12:533
-9.6623,-9.9579,8.1843,2.3142,4.0548,-5.4649,0.1785,0.7014,-0.1619,2590,2019-08-07 16:33:12:538
-9.6623,-9.9579,8.1843,2.3142,4.0548,-5.4649,0.2019,0.254,-0.245,2595,2019-08-07 16:33:12:543
-10.2029,-9.0938,7.5526,2.3142,4.0548,-5.4649,0.2019,0.254,-0.245,2600,2019-08-07 16:33:12:548
-10.2029,-9.0938,7.5526,2.3142,4.0548,-5.4649,0.1465,-0.4992,-0.3014,2604,2019-08-07 16:33:12:552
-10.2029,-9.0938,7.5526,2.6999,2.5461,-4.1708,0.1465,-0.4992,-0.3014,2609,2019-08-07 16:33:12:557
-9.868,-8.2584,6.6617,2.6999,2.5461,-4.1708,0.089,-0.9487,-0.3153,2614,2019-08-07 16:33:12:562
-9.868,-8.2584,6.6617,2.6999,2.5461,-4.1708,0.089,-0.9487,-0.3153,2619,2019-08-07 16:33:12:567
-9.868,-8.2584,6.6617,2.6999,2.5461,-4.1708,0.089,-0.9487,-0.3153,2624,2019-08-07 16:33:12:572
-8.0261,-7.318,4.7102,0.3368,1.2774,-1.4437,-0.0133,-1.4675,-0.3025,2629,2019-08-07 16:33:12:577
-8.0261,-7.318,4.7102,0.3368,1.2774,-1.4437,-0.0133,-1.4675,-0.3025,2634,2019-08-07 16:33:12:582
-5.8254,-6.8119,2.8529,0.3368,1.2774,-1.4437,-0.0921,-1.5357,-0.3323,2639,2019-08-07 16:33:12:587
-5.8254,-6.8119,2.8529,0.3368,1.2774,-1.4437,-0.0921,-1.5357,-0.3323,2643,2019-08-07 16:33:12:591
-5.8254,-6.8119,2.8529,-1.9393,0.5287,1.1394,-0.1241,-1.2608,-0.3664,2648,2019-08-07 16:33:12:596
-4.8159,-6.3202,1.7075,-1.9393,0.5287,1.1394,-0.1241,-1.2608,-0.3664,2654,2019-08-07 16:33:12:602
-4.8159,-6.3202,1.7075,-1.9393,0.5287,1.1394,-0.1283,-0.8187,-0.376,2659,2019-08-07 16:33:12:607
-4.8159,-6.3202,1.7075,-1.9393,0.5287,1.1394,-0.1283,-0.8187,-0.376,2664,2019-08-07 16:33:12:612
-4.5528,-5.9861,1.1088,-2.2941,-0.2297,2.1264,-0.1124,-0.1689,-0.3696,2669,2019-08-07 16:33:12:617
-4.5528,-5.9861,1.1088,-2.2941,-0.2297,2.1264,-0.1124,-0.1689,-0.3696,2674,2019-08-07 16:33:12:622
-5.5192,-5.4991,1.4907,-2.2941,-0.2297,2.1264,-0.1124,-0.1689,-0.3696,2679,2019-08-07 16:33:12:627
-5.5192,-5.4991,1.4907,-2.2941,-0.2297,2.1264,-0.0793,0.2146,-0.3366,2685,2019-08-07 16:33:12:633
-5.5192,-5.4991,1.4907,-0.2221,-1.0389,1.2853,-0.0793,0.2146,-0.3366,2688,2019-08-07 16:33:12:636
-7.2176,-4.9836,2.1553,-0.2221,-1.0389,1.2853,-0.0399,0.3328,-0.2854,2694,2019-08-07 16:33:12:642
-7.2176,-4.9836,2.1553,-0.2221,-1.0389,1.2853,-0.0399,0.3328,-0.2854,2700,2019-08-07 16:33:12:648
-7.2176,-4.9836,2.1553,-0.2221,-1.0389,1.2853,-0.0431,0.0921,-0.2226,2704,2019-08-07 16:33:12:652
-8.0835,-4.4393,2.4853,-0.2221,-1.0389,1.2853,-0.0431,0.0921,-0.2226,2709,2019-08-07 16:33:12:657
-8.0835,-4.4393,2.4853,1.2872,-1.8032,0.65,-0.0687,-0.2552,-0.1629,2714,2019-08-07 16:33:12:662
-8.0692,-4.2388,2.061,1.2872,-1.8032,0.65,-0.0687,-0.2552,-0.1629,2719,2019-08-07 16:33:12:667
-8.0692,-4.2388,2.061,1.2872,-1.8032,0.65,-0.0687,-0.2552,-0.1629,2724,2019-08-07 16:33:12:672
-8.0692,-4.2388,2.061,0.3869,-1.8414,1.5827,-0.1166,-0.6067,-0.1065,2728,2019-08-07 16:33:12:676
-7.0406,-4.468,1.5802,0.3869,-1.8414,1.5827,-0.1166,-0.6067,-0.1065,2735,2019-08-07 16:33:12:683
-7.0406,-4.468,1.5802,0.3869,-1.8414,1.5827,-0.1219,-0.6771,-0.1033,2738,2019-08-07 16:33:12:686
-7.0406,-4.468,1.5802,0.3869,-1.8414,1.5827,-0.1219,-0.6771,-0.1033,2744,2019-08-07 16:33:12:692
-6.0454,-4.5969,0.8637,-0.8641,-1.6026,2.3545,-0.1017,-0.4672,-0.1203,2749,2019-08-07 16:33:12:697
-6.0454,-4.5969,0.8637,-0.8641,-1.6026,2.3545,-0.1017,-0.4672,-0.1203,2754,2019-08-07 16:33:12:702
-5.6531,-4.6255,0.8779,-0.8641,-1.6026,2.3545,-0.0708,-0.1412,-0.1097,2759,2019-08-07 16:33:12:707
-5.6531,-4.6255,0.8779,-0.8641,-1.6026,2.3545,-0.0708,-0.1412,-0.1097,2764,2019-08-07 16:33:12:712
-5.6531,-4.6255,0.8779,-1.2234,-1.5237,2.0888,-0.0708,-0.1412,-0.1097,2769,2019-08-07 16:33:12:717
-5.6771,-4.764,1.222,-1.2234,-1.5237,2.0888,-0.0314,0.3435,-0.1129,2774,2019-08-07 16:33:12:722
-5.6771,-4.764,1.222,-1.2234,-1.5237,2.0888,-0.0314,0.3435,-0.1129,2779,2019-08-07 16:33:12:727
-6.2894,-4.9119,1.8065,-0.8634,-1.4417,1.7197,-0.0048,0.6599,-0.1086,2784,2019-08-07 16:33:12:732
-6.2894,-4.9119,1.8065,-0.8634,-1.4417,1.7197,-0.0048,0.6599,-0.1086,2789,2019-08-07 16:33:12:737
-6.2894,-4.9119,1.8065,-0.8634,-1.4417,1.7197,0.0304,0.809,-0.0979,2794,2019-08-07 16:33:12:742
-7.141,-5.0933,2.7917,0.4401,-1.1352,0.1389,0.0304,0.809,-0.0979,2799,2019-08-07 16:33:12:747
-7.141,-5.0933,2.7917,0.4401,-1.1352,0.1389,0.0645,0.7238,-0.0958,2804,2019-08-07 16:33:12:752
-8.1075,-5.227,3.7061,0.4401,-1.1352,0.1389,0.0645,0.7238,-0.0958,2809,2019-08-07 16:33:12:757
-8.1075,-5.227,3.7061,0.4401,-1.1352,0.1389,0.0741,0.4447,-0.0713,2814,2019-08-07 16:33:12:762
-8.1075,-5.227,3.7061,1.4518,-1.0368,-0.8345,0.0741,0.4447,-0.0713,2819,2019-08-07 16:33:12:767
-8.1075,-5.227,3.7061,1.4518,-1.0368,-0.8345,0.0741,0.4447,-0.0713,2824,2019-08-07 16:33:12:772
-8.2271,-5.2891,3.956,1.4518,-1.0368,-0.8345,0.0325,-0.0635,-0.0117,2828,2019-08-07 16:33:12:776
-8.2271,-5.2891,3.956,1.4518,-1.0368,-0.8345,0.0325,-0.0635,-0.0117,2834,2019-08-07 16:33:12:782
-8.2271,-5.2891,3.956,1.4518,-1.0368,-0.8345,-0.0133,-0.4981,0.0427,2839,2019-08-07 16:33:12:787
-7.0788,-5.6376,3.395,0.1859,-0.6212,-0.3046,-0.0133,-0.4981,0.0427,2844,2019-08-07 16:33:12:792
-7.0788,-5.6376,3.395,0.1859,-0.6212,-0.3046,-0.0303,-0.6142,0.0576,2849,2019-08-07 16:33:12:797
-6.055,-5.9479,2.9236,0.1859,-0.6212,-0.3046,-0.0303,-0.6142,0.0576,2854,2019-08-07 16:33:12:802
-6.055,-5.9479,2.9236,0.1859,-0.6212,-0.3046,-0.0303,-0.6142,0.0576,2858,2019-08-07 16:33:12:806
-5.4666,-6.0481,2.5465,-1.1606,-0.2442,0.5468,-0.0495,-0.546,0.0586,2864,2019-08-07 16:33:12:812
-5.4666,-6.0481,2.5465,-1.1606,-0.2442,0.5468,-0.0495,-0.546,0.0586,2869,2019-08-07 16:33:12:817
-5.4666,-6.0481,2.5465,-1.1606,-0.2442,0.5468,-0.0506,-0.2467,0.0565,2874,2019-08-07 16:33:12:822
-5.256,-6.1961,2.6125,-1.1606,-0.2442,0.5468,-0.0506,-0.2467,0.0565,2879,2019-08-07 16:33:12:827
-5.256,-6.1961,2.6125,-1.5562,-0.141,0.4737,-0.0325,0.0793,0.0459,2885,2019-08-07 16:33:12:833
-5.256,-6.1961,2.6125,-1.5562,-0.141,0.4737,-0.0325,0.0793,0.0459,2889,2019-08-07 16:33:12:837
-5.7632,-6.0529,2.9944,-1.0889,-0.2037,0.1902,-0.0154,0.3754,0.0341,2893,2019-08-07 16:33:12:841
-5.7632,-6.0529,2.9944,-1.0889,-0.2037,0.1902,-0.0154,0.3754,0.0341,2900,2019-08-07 16:33:12:848
-6.9832,-5.8476,3.5459,-1.0889,-0.2037,0.1902,-0.0165,0.6013,0.016,2904,2019-08-07 16:33:12:852
-6.9832,-5.8476,3.5459,-1.0889,-0.2037,0.1902,-0.0165,0.6013,0.016,2909,2019-08-07 16:33:12:857
-6.9832,-5.8476,3.5459,0.4536,-0.5154,-0.6274,-0.0229,0.5917,0.0054,2915,2019-08-07 16:33:12:863
-7.6673,-5.776,3.9701,0.4536,-0.5154,-0.6274,-0.0229,0.5917,0.0054,2919,2019-08-07 16:33:12:867
-7.6673,-5.776,3.9701,0.4536,-0.5154,-0.6274,-0.0484,0.3584,-0.0212,2924,2019-08-07 16:33:12:872
-7.6673,-5.776,3.9701,0.4536,-0.5154,-0.6274,-0.0484,0.3584,-0.0212,2929,2019-08-07 16:33:12:877
-8.0788,-5.733,4.0974,1.1615,-0.518,-1.0458,-0.0719,0.107,-0.0351,2934,2019-08-07 16:33:12:882
-8.0788,-5.733,4.0974,1.1615,-0.518,-1.0458,-0.0719,0.107,-0.0351,2938,2019-08-07 16:33:12:886
-7.8252,-5.8285,4.0078,1.1615,-0.518,-1.0458,-0.0836,-0.1519,-0.0468,2944,2019-08-07 16:33:12:892
-7.8252,-5.8285,4.0078,1.1615,-0.518,-1.0458,-0.0836,-0.1519,-0.0468,2949,2019-08-07 16:33:12:897
-7.8252,-5.8285,4.0078,0.5304,-0.3601,-0.7037,-0.1028,-0.3394,-0.0479,2954,2019-08-07 16:33:12:902
-7.2032,-5.9288,3.6166,0.5304,-0.3601,-0.7037,-0.1028,-0.3394,-0.0479,2959,2019-08-07 16:33:12:907
-7.2032,-5.9288,3.6166,0.5304,-0.3601,-0.7037,-0.1124,-0.4129,-0.0543,2964,2019-08-07 16:33:12:912
-6.4808,-6.0195,3.1311,0.5304,-0.3601,-0.7037,-0.1124,-0.4129,-0.0543,2970,2019-08-07 16:33:12:918
-6.4808,-6.0195,3.1311,-0.4637,-0.2339,-0.0537,-0.1124,-0.4129,-0.0543,2974,2019-08-07 16:33:12:922
-6.4808,-6.0195,3.1311,-0.4637,-0.2339,-0.0537,-0.1113,-0.3735,-0.0649,2979,2019-08-07 16:33:12:927
-6.1938,-5.9622,2.9472,-0.6723,-0.3141,0.1675,-0.1113,-0.3735,-0.0649,2984,2019-08-07 16:33:12:932
-6.1938,-5.9622,2.9472,-0.6723,-0.3141,0.1675,-0.1092,-0.2275,-0.0692,2989,2019-08-07 16:33:12:937
-6.1938,-5.9622,2.9472,-0.6723,-0.3141,0.1675,-0.1092,-0.2275,-0.0692,2994,2019-08-07 16:33:12:942
-6.0407,-5.8858,2.7775,-0.6723,-0.3141,0.1675,-0.1038,-0.072,-0.0639,2999,2019-08-07 16:33:12:947
-6.0407,-5.8858,2.7775,-0.8718,-0.418,0.417,-0.1038,-0.072,-0.0639,3004,2019-08-07 16:33:12:952
-6.0407,-5.8858,2.7775,-0.8718,-0.418,0.417,-0.1038,-0.072,-0.0639,3009,2019-08-07 16:33:12:957
-6.0837,-5.8763,2.7587,-0.8718,-0.418,0.417,-0.0964,0.1006,-0.0766,3014,2019-08-07 16:33:12:962
-6.0837,-5.8763,2.7587,-0.8718,-0.418,0.417,-0.0964,0.1006,-0.0766,3020,2019-08-07 16:33:12:968
-6.0837,-5.8763,2.7587,-0.8718,-0.418,0.417,-0.0964,0.1006,-0.0766,3023,2019-08-07 16:33:12:971
-6.4856,-5.7378,2.8765,-0.2823,-0.5831,0.1723,-0.0942,0.2444,-0.082,3029,2019-08-07 16:33:12:977
-6.4856,-5.7378,2.8765,-0.2823,-0.5831,0.1723,-0.0921,0.2625,-0.0745,3035,2019-08-07 16:33:12:983
-7.0071,-5.7378,3.2159,-0.2823,-0.5831,0.1723,-0.0921,0.2625,-0.0745,3039,2019-08-07 16:33:12:987
-7.0071,-5.7378,3.2159,0.3832,-0.5628,-0.2614,-0.0921,0.2625,-0.0745,3043,2019-08-07 16:33:12:991
-7.0071,-5.7378,3.2159,0.3832,-0.5628,-0.2614,-0.0857,0.1464,-0.0905,3049,2019-08-07 16:33:12:997
-7.409,-5.6901,3.3526,0.3832,-0.5628,-0.2614,-0.0857,0.1464,-0.0905,3053,2019-08-07 16:33:13:001
-7.409,-5.6901,3.3526,0.3832,-0.5628,-0.2614,-0.0932,-0.0699,-0.0873,3059,2019-08-07 16:33:13:007
-7.409,-5.6901,3.3526,0.4817,-0.4943,-0.1825,-0.0932,-0.0699,-0.0873,3064,2019-08-07 16:33:13:012
-7.2511,-5.8858,3.1499,0.4817,-0.4943,-0.1825,-0.0932,-0.0699,-0.0873,3068,2019-08-07 16:33:13:016
-7.2511,-5.8858,3.1499,0.4817,-0.4943,-0.1825,-0.0996,-0.2147,-0.0852,3074,2019-08-07 16:33:13:022
-6.7918,-6.0051,2.8718,0.4817,-0.4943,-0.1825,-0.0996,-0.2147,-0.0852,3078,2019-08-07 16:33:13:026
-6.7918,-6.0051,2.8718,-0.2476,-0.4094,0.2118,-0.1092,-0.2829,-0.0713,3084,2019-08-07 16:33:13:032
-6.7918,-6.0051,2.8718,-0.2476,-0.4094,0.2118,-0.1092,-0.2829,-0.0713,3089,2019-08-07 16:33:13:037
-6.3182,-5.9383,2.6597,-0.2476,-0.4094,0.2118,-0.0878,-0.2627,-0.066,3094,2019-08-07 16:33:13:042
-6.3182,-5.9383,2.6597,-0.2476,-0.4094,0.2118,-0.0878,-0.2627,-0.066,3099,2019-08-07 16:33:13:047
-6.2177,-5.9717,2.556,-0.587,-0.3964,0.5065,-0.0729,-0.17,-0.0724,3103,2019-08-07 16:33:13:051
-6.2177,-5.9717,2.556,-0.587,-0.3964,0.5065,-0.0729,-0.17,-0.0724,3108,2019-08-07 16:33:13:056
-6.2177,-5.9717,2.556,-0.587,-0.3964,0.5065,-0.0761,-0.0826,-0.066,3113,2019-08-07 16:33:13:061
-6.2033,-5.9861,2.523,-0.587,-0.3964,0.5065,-0.0761,-0.0826,-0.066,3119,2019-08-07 16:33:13:067
-6.2033,-5.9861,2.523,-0.5056,-0.4686,0.4652,-0.0761,-0.0826,-0.066,3124,2019-08-07 16:33:13:072
-6.2129,-5.8619,2.5607,-0.5056,-0.4686,0.4652,-0.0676,0.0026,-0.0564,3129,2019-08-07 16:33:13:077
-6.2129,-5.8619,2.5607,-0.5056,-0.4686,0.4652,-0.0676,0.0026,-0.0564,3133,2019-08-07 16:33:13:081
-6.2129,-5.8619,2.5607,-0.5056,-0.4686,0.4652,-0.0644,0.0985,-0.0649,3139,2019-08-07 16:33:13:087
-6.4378,-5.7712,2.7304,-0.3065,-0.6146,0.2996,-0.0644,0.0985,-0.0649,3144,2019-08-07 16:33:13:092
-6.4378,-5.7712,2.7304,-0.3065,-0.6146,0.2996,-0.0815,0.1432,-0.0734,3149,2019-08-07 16:33:13:097
-6.5909,-5.7092,2.8152,-0.3065,-0.6146,0.2996,-0.0815,0.1432,-0.0734,3153,2019-08-07 16:33:13:101
-6.5909,-5.7092,2.8152,-0.3065,-0.6146,0.2996,-0.09,0.1656,-0.0649,3159,2019-08-07 16:33:13:107
-6.5909,-5.7092,2.8152,0.0064,-0.5698,0.0784,-0.09,0.1656,-0.0649,3164,2019-08-07 16:33:13:112
-6.854,-5.8572,2.9566,0.0064,-0.5698,0.0784,-0.0932,0.1507,-0.0671,3169,2019-08-07 16:33:13:117
-6.854,-5.8572,2.9566,0.0064,-0.5698,0.0784,-0.0932,0.1507,-0.0671,3174,2019-08-07 16:33:13:122
-6.9306,-5.8237,3.2206,0.0064,-0.5698,0.0784,-0.1006,0.0825,-0.0585,3179,2019-08-07 16:33:13:127
-6.9306,-5.8237,3.2206,0.1387,-0.5477,-0.2041,-0.1006,0.0825,-0.0585,3184,2019-08-07 16:33:13:132
-6.9306,-5.8237,3.2206,0.1387,-0.5477,-0.2041,-0.1017,0.0026,-0.0479,3189,2019-08-07 16:33:13:137
-6.8253,-5.9383,3.0981,0.1387,-0.5477,-0.2041,-0.1017,0.0026,-0.0479,3194,2019-08-07 16:33:13:142
-6.8253,-5.9383,3.0981,0.1387,-0.5477,-0.2041,-0.0985,-0.0645,-0.0426,3199,2019-08-07 16:33:13:147
-6.72,-6.0147,2.9001,-0.0663,-0.4144,0.0746,-0.0985,-0.0645,-0.0426,3204,2019-08-07 16:33:13:152
-6.72,-6.0147,2.9001,-0.0663,-0.4144,0.0746,-0.0985,-0.0645,-0.0426,3209,2019-08-07 16:33:13:157
-6.72,-6.0147,2.9001,-0.0663,-0.4144,0.0746,-0.09,-0.0922,-0.0308,3213,2019-08-07 16:33:13:161
-6.4713,-6.0195,2.8011,-0.0663,-0.4144,0.0746,-0.0761,-0.0858,-0.0181,3219,2019-08-07 16:33:13:167
-6.4713,-6.0195,2.8011,-0.0663,-0.4144,0.0746,-0.0761,-0.0858,-0.0181,3224,2019-08-07 16:33:13:172
-6.2464,-6.0768,2.7068,-0.5028,-0.3989,0.2454,-0.057,-0.04,-0.0287,3230,2019-08-07 16:33:13:178
-6.2464,-6.0768,2.7068,-0.5028,-0.3989,0.2454,-0.057,-0.04,-0.0287,3234,2019-08-07 16:33:13:182
-6.2464,-6.0768,2.7068,-0.5028,-0.3989,0.2454,-0.057,-0.04,-0.0287,3239,2019-08-07 16:33:13:187
-6.3469,-5.967,2.6927,-0.5028,-0.3989,0.2454,-0.0431,0.042,-0.0287,3243,2019-08-07 16:33:13:191
-6.3469,-5.967,2.6927,-0.4699,-0.4587,0.2675,-0.0431,0.042,-0.0287,3249,2019-08-07 16:33:13:197
-6.3469,-5.967,2.6927,-0.4699,-0.4587,0.2675,-0.0271,0.1336,-0.0244,3253,2019-08-07 16:33:13:201
-6.4474,-6.0051,2.7351,-0.4699,-0.4587,0.2675,-0.0271,0.1336,-0.0244,3259,2019-08-07 16:33:13:207
-6.4474,-6.0051,2.7351,-0.4699,-0.4587,0.2675,-0.025,0.1688,-0.0244,3264,2019-08-07 16:33:13:212
-6.7583,-5.9383,2.9896,-0.0594,-0.4676,2.0E-4,-0.025,0.1688,-0.0244,3269,2019-08-07 16:33:13:217
-6.7583,-5.9383,2.9896,-0.0594,-0.4676,2.0E-4,-0.025,0.1688,-0.0244,3274,2019-08-07 16:33:13:222
-6.9066,-5.9765,3.0179,-0.0594,-0.4676,2.0E-4,-0.0293,0.14,-0.0223,3279,2019-08-07 16:33:13:227
-6.9066,-5.9765,3.0179,-0.0594,-0.4676,2.0E-4,-0.0293,0.14,-0.0223,3284,2019-08-07 16:33:13:232
-6.9066,-5.9765,3.0179,0.1053,-0.4314,-0.0734,-0.0399,0.0772,-0.0085,3289,2019-08-07 16:33:13:237
-6.8923,-6.0672,3.0321,0.1053,-0.4314,-0.0734,-0.0399,0.0772,-0.0085,3294,2019-08-07 16:33:13:242
-6.8923,-6.0672,3.0321,0.1053,-0.4314,-0.0734,-0.0474,0.0175,-0.0042,3298,2019-08-07 16:33:13:246
-6.8923,-6.0672,3.0321,0.1053,-0.4314,-0.0734,-0.0474,0.0175,-0.0042,3304,2019-08-07 16:33:13:252
-6.7488,-6.0529,3.0132,-0.0403,-0.3992,-0.0952,-0.042,-0.0624,0.0022,3308,2019-08-07 16:33:13:256
-6.7488,-6.0529,3.0132,-0.0403,-0.3992,-0.0952,-0.042,-0.0624,0.0022,3315,2019-08-07 16:33:13:263
-6.6052,-6.072,2.7775,-0.0403,-0.3992,-0.0952,-0.0335,-0.0858,0.0096,3319,2019-08-07 16:33:13:267
-6.6052,-6.072,2.7775,-0.0403,-0.3992,-0.0952,-0.0335,-0.0858,0.0096,3323,2019-08-07 16:33:13:271
-6.6052,-6.072,2.7775,-0.1909,-0.323,0.198,-0.0325,-0.0805,0.0128,3329,2019-08-07 16:33:13:277
-6.6339,-6.1054,2.8435,-0.1909,-0.323,0.198,-0.0325,-0.0805,0.0128,3334,2019-08-07 16:33:13:282
-6.6339,-6.1054,2.8435,-0.1909,-0.323,0.198,-0.0325,-0.0805,0.0128,3338,2019-08-07 16:33:13:286
-6.5526,-6.0338,2.7257,-0.1909,-0.323,0.198,-0.0357,-0.0816,0.0182,3344,2019-08-07 16:33:13:292
-6.5526,-6.0338,2.7257,-0.2608,-0.4318,0.1714,-0.0357,-0.0816,0.0182,3349,2019-08-07 16:33:13:297
-6.5526,-6.0338,2.7257,-0.2608,-0.4318,0.1714,-0.0378,-0.0699,0.0192,3353,2019-08-07 16:33:13:301
-6.4761,-6.0481,2.622,-0.3083,-0.4027,0.31,-0.0378,-0.0699,0.0192,3359,2019-08-07 16:33:13:307
-6.4761,-6.0481,2.622,-0.3083,-0.4027,0.31,-0.0367,-0.0262,0.0139,3364,2019-08-07 16:33:13:312
-6.4761,-6.0481,2.622,-0.3083,-0.4027,0.31,-0.0367,-0.0262,0.0139,3369,2019-08-07 16:33:13:317
-6.4474,-6.0386,2.7209,-0.3083,-0.4027,0.31,-0.0399,0.0367,0.0022,3373,2019-08-07 16:33:13:321
-6.4474,-6.0386,2.7209,-0.3626,-0.4417,0.1958,-0.0399,0.0367,0.0022,3379,2019-08-07 16:33:13:327
-6.4474,-6.0386,2.7209,-0.3626,-0.4417,0.1958,-0.0399,0.0931,-0.0074,3383,2019-08-07 16:33:13:331
-6.4761,-5.9717,2.6785,-0.3626,-0.4417,0.1958,-0.0399,0.0931,-0.0074,3389,2019-08-07 16:33:13:337
-6.4761,-5.9717,2.6785,-0.3626,-0.4417,0.1958,-0.0346,0.1389,-0.0149,3393,2019-08-07 16:33:13:341
-6.5957,-6.0529,2.7257,-0.1963,-0.4016,0.1803,-0.0346,0.1389,-0.0149,3399,2019-08-07 16:33:13:347
-6.5957,-6.0529,2.7257,-0.1963,-0.4016,0.1803,-0.0325,0.156,-0.0202,3404,2019-08-07 16:33:13:352
-6.5957,-6.0529,2.7257,-0.1963,-0.4016,0.1803,-0.0325,0.156,-0.0202,3409,2019-08-07 16:33:13:357
-6.8445,-6.0004,2.8294,-0.1963,-0.4016,0.1803,-0.0207,0.1368,-0.0127,3415,2019-08-07 16:33:13:363
-6.8445,-6.0004,2.8294,0.1257,-0.5563,-0.0268,-0.0207,0.1368,-0.0127,3419,2019-08-07 16:33:13:367
-6.8875,-5.9288,2.9991,0.1257,-0.5563,-0.0268,-0.0175,0.0718,-0.0042,3424,2019-08-07 16:33:13:372
-6.8875,-5.9288,2.9991,0.1257,-0.5563,-0.0268,-0.0175,0.0718,-0.0042,3429,2019-08-07 16:33:13:377
-6.8875,-5.9288,2.9991,0.1257,-0.5563,-0.0268,-0.0175,-0.0027,-0.0021,3434,2019-08-07 16:33:13:382
-6.7679,-5.9431,2.9095,-0.022,-0.5407,0.0321,-0.0175,-0.0027,-0.0021,3440,2019-08-07 16:33:13:388
-6.7679,-5.9431,2.9095,-0.022,-0.5407,0.0321,-0.0154,-0.0656,0.0011,3443,2019-08-07 16:33:13:391
-6.6387,-6.0242,2.7257,-0.022,-0.5407,0.0321,-0.0154,-0.0656,0.0011,3449,2019-08-07 16:33:13:397
-6.6387,-6.0242,2.7257,-0.022,-0.5407,0.0321,6.0E-4,-0.0965,0.0128,3453,2019-08-07 16:33:13:401
-6.6387,-6.0242,2.7257,-0.3497,-0.3627,0.3002,6.0E-4,-0.0965,0.0128,3459,2019-08-07 16:33:13:407
-6.4329,-6.1245,2.5701,-0.3497,-0.3627,0.3002,0.0123,-0.0752,0.0267,3464,2019-08-07 16:33:13:412
-6.4329,-6.1245,2.5701,-0.3497,-0.3627,0.3002,0.0123,-0.0752,0.0267,3468,2019-08-07 16:33:13:416
-6.3659,-6.0004,2.5136,-0.3497,-0.3627,0.3002,0.0123,-0.0752,0.0267,3474,2019-08-07 16:33:13:422
-6.3659,-6.0004,2.5136,-0.3497,-0.3627,0.3002,0.0261,-0.0113,0.0491,3479,2019-08-07 16:33:13:427
-6.3659,-6.0004,2.5136,-0.4612,-0.3622,0.3134,0.0261,-0.0113,0.0491,3483,2019-08-07 16:33:13:431
-6.4233,-6.0243,2.589,-0.4612,-0.3622,0.3134,0.041,0.0431,0.0555,3489,2019-08-07 16:33:13:437
-6.4233,-6.0243,2.589,-0.4612,-0.3622,0.3134,0.041,0.0431,0.0555,3494,2019-08-07 16:33:13:442
-6.6434,-5.9479,2.5937,-0.1706,-0.4904,0.2966,0.041,0.0857,0.0544,3498,2019-08-07 16:33:13:446
-6.6434,-5.9479,2.5937,-0.1706,-0.4904,0.2966,0.041,0.0857,0.0544,3504,2019-08-07 16:33:13:452
-6.6434,-5.9479,2.5937,-0.1706,-0.4904,0.2966,0.0442,0.108,0.0491,3509,2019-08-07 16:33:13:457
-6.7438,-5.9145,2.7728,-0.1706,-0.4904,0.2966,0.0442,0.108,0.0491,3514,2019-08-07 16:33:13:462
-6.7438,-5.9145,2.7728,-0.0129,-0.5077,0.1367,0.057,0.1155,0.0448,3519,2019-08-07 16:33:13:467
-6.7869,-5.8094,2.8105,-0.0129,-0.5077,0.1367,0.057,0.1155,0.0448,3524,2019-08-07 16:33:13:472
-6.7869,-5.8094,2.8105,-0.0129,-0.5077,0.1367,0.0474,0.1219,0.032,3529,2019-08-07 16:33:13:477
-6.7869,-5.8094,2.8105,-0.0129,-0.5077,0.1367,0.0474,0.1219,0.032,3533,2019-08-07 16:33:13:481
-6.7821,-5.7856,2.82,-0.0072,-0.5983,0.0839,0.04,0.1251,0.0288,3539,2019-08-07 16:33:13:487
-6.7821,-5.7856,2.82,-0.0072,-0.5983,0.0839,0.04,0.1251,0.0288,3544,2019-08-07 16:33:13:492
-6.9448,-5.8238,2.8153,-0.0072,-0.5983,0.0839,0.0368,0.1251,0.0288,3549,2019-08-07 16:33:13:497
-6.9448,-5.8238,2.8153,-0.0072,-0.5983,0.0839,0.0368,0.1251,0.0288,3554,2019-08-07 16:33:13:502
-6.9448,-5.8238,2.8153,-0.0072,-0.527,-0.0034,0.0379,0.1144,0.031,3559,2019-08-07 16:33:13:507
-7.0165,-5.881,2.8577,0.1418,-0.527,-0.0034,0.0379,0.1144,0.031,3564,2019-08-07 16:33:13:512
-7.0165,-5.881,2.8577,0.1418,-0.527,-0.0034,0.0347,0.0686,0.0331,3569,2019-08-07 16:33:13:517
-7.0165,-5.881,2.8577,0.1418,-0.527,-0.0034,0.0347,0.0686,0.0331,3574,2019-08-07 16:33:13:522
-6.9687,-5.8715,2.9001,0.1418,-0.527,-0.0034,0.0325,0.0047,0.0363,3578,2019-08-07 16:33:13:526
-6.9687,-5.8715,2.9001,0.0838,-0.4504,-0.0861,0.0325,0.0047,0.0363,3584,2019-08-07 16:33:13:532
-6.806,-5.9956,2.9378,0.0838,-0.4504,-0.0861,0.0304,-0.039,0.0341,3588,2019-08-07 16:33:13:536
-6.806,-5.9956,2.9378,-0.0715,-0.3984,-0.016,0.0304,-0.039,0.0341,3594,2019-08-07 16:33:13:542
-6.806,-6.0815,2.9425,-0.0715,-0.3984,-0.016,0.0347,-0.0464,0.0373,3599,2019-08-07 16:33:13:547
-6.7151,-6.0815,2.9425,-0.0715,-0.3984,-0.016,0.0347,-0.0464,0.0373,3604,2019-08-07 16:33:13:552
-6.7151,-6.0815,2.9425,-0.2226,-0.3281,-0.0042,0.0432,-0.0315,0.032,3609,2019-08-07 16:33:13:557
-6.6721,-5.9908,2.9237,-0.2226,-0.3281,-0.0042,0.0432,-0.0315,0.032,3614,2019-08-07 16:33:13:562
-6.6721,-5.9908,2.9237,-0.2226,-0.3281,-0.0042,0.0506,-0.0123,0.0278,3619,2019-08-07 16:33:13:567
-6.6721,-5.9908,2.9237,-0.2226,-0.3281,-0.0042,0.0506,-0.0123,0.0278,3624,2019-08-07 16:33:13:572
-6.7008,-5.9049,2.8671,-0.2226,-0.3281,-0.0042,0.041,0.0122,0.0224,3629,2019-08-07 16:33:13:577
-6.7008,-5.9049,2.8671,-0.1787,-0.5541,0.0702,0.041,0.0122,0.0224,3634,2019-08-07 16:33:13:582
-6.6482,-5.8381,2.8011,-0.1787,-0.5541,0.0702,0.041,0.0122,0.0224,3638,2019-08-07 16:33:13:586
-6.6482,-5.8381,2.8011,-0.1787,-0.5541,0.0702,0.0347,0.0622,0.0139,3644,2019-08-07 16:33:13:592
-6.6482,-5.8381,2.8011,-0.1787,-0.5541,0.0702,0.0347,0.0622,0.0139,3649,2019-08-07 16:33:13:597
-6.7151,-5.924,2.787,-0.1659,-0.4483,0.0907,0.0304,0.1112,0.0065,3653,2019-08-07 16:33:13:601
-6.7151,-5.924,2.787,-0.1659,-0.4483,0.0907,0.0304,0.1112,0.0065,3659,2019-08-07 16:33:13:607
-6.873,-5.9049,2.853,-0.1659,-0.4483,0.0907,0.0272,0.1176,-0.001,3663,2019-08-07 16:33:13:611
-6.873,-5.9049,2.853,-0.1659,-0.4483,0.0907,0.0272,0.1176,-0.001,3669,2019-08-07 16:33:13:617
-6.873,-5.9049,2.853,0.0456,-0.4634,-0.0435,0.0272,0.1176,-0.001,3674,2019-08-07 16:33:13:622
-6.9735,-5.8619,2.919,0.0456,-0.4634,-0.0435,0.0293,0.0942,0.0011,3679,2019-08-07 16:33:13:627
-6.9735,-5.8619,2.919,0.0456,-0.4634,-0.0435,0.0293,0.0942,0.0011,3684,2019-08-07 16:33:13:632
-6.94,-5.9717,2.9284,0.0456,-0.4634,-0.0435,0.0325,0.0303,0.0033,3689,2019-08-07 16:33:13:637
-6.94,-5.9717,2.9284,0.0399,-0.4207,-0.0802,0.0325,0.0303,0.0033,3693,2019-08-07 16:33:13:641
-6.94,-5.9717,2.9284,0.0399,-0.4207,-0.0802,0.0315,-0.0294,0.0118,3699,2019-08-07 16:33:13:647
-6.94,-5.924,2.9567,0.0399,-0.4207,-0.0802,0.0315,-0.0294,0.0118,3704,2019-08-07 16:33:13:652
-6.94,-5.924,2.9567,0.0399,-0.4207,-0.0802,0.0336,-0.0762,0.0192,3709,2019-08-07 16:33:13:657
-6.8012,-5.8667,2.8718,-0.0948,-0.4909,0.0025,0.0336,-0.0762,0.0192,3714,2019-08-07 16:33:13:662
-6.8012,-5.8667,2.8718,-0.0948,-0.4909,0.0025,0.0368,-0.0965,0.0288,3718,2019-08-07 16:33:13:666
-6.8012,-5.8667,2.8718,-0.0948,-0.4909,0.0025,0.0368,-0.0965,0.0288,3724,2019-08-07 16:33:13:672
-6.6147,-5.8429,2.7398,-0.0948,-0.4909,0.0025,0.0347,-0.0741,0.0203,3729,2019-08-07 16:33:13:677
-6.6147,-5.8429,2.7398,-0.2565,-0.4743,0.1381,0.0347,-0.0741,0.0203,3733,2019-08-07 16:33:13:681
-6.629,-5.7856,2.7398,-0.2565,-0.4743,0.1381,0.0261,-0.0326,0.0203,3739,2019-08-07 16:33:13:687
-6.629,-5.7856,2.7398,-0.2565,-0.4743,0.1381,0.0261,-0.0326,0.0203,3743,2019-08-07 16:33:13:691
-6.629,-5.7856,2.7398,-0.2565,-0.4743,0.1381,0.0219,0.0356,0.0075,3749,2019-08-07 16:33:13:697
-6.586,-5.8476,2.6126,-0.3113,-0.498,0.2853,0.0219,0.0356,0.0075,3754,2019-08-07 16:33:13:702
-6.586,-5.8476,2.6126,-0.3113,-0.498,0.2853,0.0144,0.1102,-0.0106,3759,2019-08-07 16:33:13:707
-6.7678,-5.8238,2.7445,-0.3113,-0.498,0.2853,0.0144,0.1102,-0.0106,3763,2019-08-07 16:33:13:711
-6.7678,-5.8238,2.7445,-0.3113,-0.498,0.2853,0.0144,0.1102,-0.0106,3769,2019-08-07 16:33:13:717
-6.7678,-5.8238,2.7445,-0.0217,-0.5209,0.1011,0.0102,0.1634,-0.0202,3773,2019-08-07 16:33:13:721
-6.9639,-5.8667,2.9048,-0.0217,-0.5209,0.1011,0.008,0.1656,-0.0276,3780,2019-08-07 16:33:13:728
-6.9639,-5.8667,2.9048,-0.0217,-0.5209,0.1011,0.008,0.1656,-0.0276,3784,2019-08-07 16:33:13:732
-6.9639,-5.8667,2.9048,-0.0217,-0.5209,0.1011,0.008,0.1656,-0.0276,3789,2019-08-07 16:33:13:737
-7.1648,-5.8476,2.9142,0.2286,-0.5021,-0.1172,0.0038,0.1251,-0.0276,3794,2019-08-07 16:33:13:742
-7.1648,-5.8476,2.9142,0.2286,-0.5021,-0.1172,0.0038,0.1251,-0.0276,3798,2019-08-07 16:33:13:746
-7.1648,-5.8476,2.9142,0.2286,-0.5021,-0.1172,0.007,0.0196,-0.0276,3804,2019-08-07 16:33:13:752
-7.1314,-5.8954,3.0038,0.2286,-0.5021,-0.1172,0.007,0.0196,-0.0276,3810,2019-08-07 16:33:13:758
-7.1314,-5.8954,3.0038,0.0653,-0.4642,-0.1476,0.008,-0.0539,-0.0244,3814,2019-08-07 16:33:13:762
-6.8682,-5.9049,2.9425,0.0653,-0.4642,-0.1476,0.008,-0.0539,-0.0244,3819,2019-08-07 16:33:13:767
-6.8682,-5.9049,2.9425,-0.1177,-0.5119,0.0213,0.0134,-0.1412,-0.0127,3825,2019-08-07 16:33:13:773
-6.8682,-5.9049,2.9425,-0.1177,-0.5119,0.0213,0.0134,-0.1412,-0.0127,3829,2019-08-07 16:33:13:777
-6.5525,-5.8763,2.8718,-0.1177,-0.5119,0.0213,0.0134,-0.1412,-0.0127,3833,2019-08-07 16:33:13:781
-6.5525,-5.8763,2.8718,-0.1177,-0.5119,0.0213,0.0134,-0.1529,0.0011,3840,2019-08-07 16:33:13:788
-6.318,-5.8715,2.7116,-0.5826,-0.4726,0.1814,0.0134,-0.1529,0.0011,3844,2019-08-07 16:33:13:792
-6.318,-5.8715,2.7116,-0.5826,-0.4726,0.1814,0.0176,-0.1061,0.0139,3849,2019-08-07 16:33:13:797
-6.318,-5.8715,2.7116,-0.5826,-0.4726,0.1814,0.0176,-0.1061,0.0139,3853,2019-08-07 16:33:13:801
-6.2845,-5.8954,2.5796,-0.5826,-0.4726,0.1814,0.0293,-0.0304,0.0171,3859,2019-08-07 16:33:13:807
-6.2845,-5.8954,2.5796,-0.5618,-0.4695,0.2677,0.0293,-0.0304,0.0171,3864,2019-08-07 16:33:13:812
-6.4233,-5.8715,2.6126,-0.5618,-0.4695,0.2677,0.0315,0.0569,0.0192,3868,2019-08-07 16:33:13:816
-6.4233,-5.8715,2.6126,-0.5618,-0.4695,0.2677,0.0315,0.0569,0.0192,3874,2019-08-07 16:33:13:822
-6.4233,-5.8715,2.6126,-0.5618,-0.4695,0.2677,0.0251,0.1166,0.0214,3879,2019-08-07 16:33:13:827
-6.6386,-5.8238,2.7304,-0.2261,-0.4978,0.1307,0.0251,0.1166,0.0214,3883,2019-08-07 16:33:13:831
-6.6386,-5.8238,2.7304,-0.2261,-0.4978,0.1307,0.0123,0.1475,0.0182,3889,2019-08-07 16:33:13:837
-6.9591,-5.8047,3.0038,-0.2261,-0.4978,0.1307,0.0123,0.1475,0.0182,3893,2019-08-07 16:33:13:841
-6.9591,-5.8047,3.0038,-0.2261,-0.4978,0.1307,-0.0016,0.108,0.0203,3899,2019-08-07 16:33:13:847
-6.9591,-5.8047,3.0038,-0.2261,-0.4978,0.1307,-0.0016,0.108,0.0203,3903,2019-08-07 16:33:13:851
-7.1218,-5.8285,2.985,0.168,-0.5584,-0.0741,-0.008,0.0527,0.0214,3909,2019-08-07 16:33:13:857
-7.1218,-5.8285,2.985,0.168,-0.5584,-0.0741,-0.008,0.0527,0.0214,3914,2019-08-07 16:33:13:862
-7.1218,-5.8285,2.985,0.168,-0.5584,-0.0741,-0.0143,-0.0517,0.0256,3919,2019-08-07 16:33:13:867
-7.0117,-5.8047,2.8812,0.168,-0.5584,-0.0741,-0.0143,-0.0517,0.0256,3923,2019-08-07 16:33:13:871
-7.0117,-5.8047,2.8812,0.0717,-0.4333,-0.0038,-0.0143,-0.0517,0.0256,3929,2019-08-07 16:33:13:877
-6.739,-5.8858,2.8812,0.0717,-0.4333,-0.0038,-0.0112,-0.1061,0.0352,3934,2019-08-07 16:33:13:882
-6.739,-5.8858,2.8812,0.0717,-0.4333,-0.0038,-0.0112,-0.1061,0.0352,3939,2019-08-07 16:33:13:887
-6.739,-5.8858,2.8812,-0.3049,-0.3994,0.1666,-0.0112,-0.1231,0.0363,3944,2019-08-07 16:33:13:892
-6.5237,-5.967,2.7068,-0.3049,-0.3994,0.1666,-0.0112,-0.1231,0.0363,3949,2019-08-07 16:33:13:897
-6.5237,-5.967,2.7068,-0.3049,-0.3994,0.1666,-0.0016,-0.089,0.0395,3953,2019-08-07 16:33:13:901
-6.5237,-5.967,2.7068,-0.3049,-0.3994,0.1666,-0.0016,-0.089,0.0395,3959,2019-08-07 16:33:13:907
-6.4615,-5.9336,2.5843,-0.3049,-0.3994,0.1666,0.0102,-0.0198,0.0416,3964,2019-08-07 16:33:13:912
-6.4615,-5.9336,2.5843,-0.4202,-0.3654,0.3183,0.0102,-0.0198,0.0416,3968,2019-08-07 16:33:13:916
-6.5142,-5.9717,2.5513,-0.4202,-0.3654,0.3183,0.0208,0.0495,0.0363,3974,2019-08-07 16:33:13:922
-6.5142,-5.9717,2.5513,-0.4202,-0.3654,0.3183,0.0208,0.0495,0.0363,3979,2019-08-07 16:33:13:927
-6.5142,-5.9717,2.5513,-0.4202,-0.3654,0.3183,0.0315,0.108,0.0256,3983,2019-08-07 16:33:13:931
-6.7055,-5.924,2.721,-0.2273,-0.3833,0.1755,0.0315,0.108,0.0256,3989,2019-08-07 16:33:13:937
-6.7055,-5.924,2.721,-0.2273,-0.3833,0.1755,0.0315,0.1336,0.0192,3994,2019-08-07 16:33:13:942
-6.9687,-5.8381,2.7681,-0.2273,-0.3833,0.1755,0.0315,0.1336,0.0192,3999,2019-08-07 16:33:13:947
-6.9687,-5.8381,2.7681,-0.2273,-0.3833,0.1755,0.0197,0.1166,0.0139,4004,2019-08-07 16:33:13:952
-6.9687,-5.8381,2.7681,0.0673,-0.4775,0.0808,0.0197,0.1166,0.0139,4009,2019-08-07 16:33:13:957
-7.05,-5.8238,2.9472,0.0673,-0.4775,0.0808,0.0155,0.0835,0.0107,4014,2019-08-07 16:33:13:962
-7.05,-5.8238,2.9472,0.0673,-0.4775,0.0808,0.0155,0.0835,0.0107,4018,2019-08-07 16:33:13:966
-7.05,-5.8238,2.9472,0.0673,-0.4775,0.0808,0.0155,0.0835,0.0107,4024,2019-08-07 16:33:13:972
-7.1266,-5.8572,2.9567,0.1418,-0.4298,-0.0857,0.0048,0.009,0.0086,4030,2019-08-07 16:33:13:978
-7.1266,-5.8572,2.9567,0.1418,-0.4298,-0.0857,0.0048,0.009,0.0086,4033,2019-08-07 16:33:13:981
-6.9256,-5.8142,2.886,0.1418,-0.4298,-0.0857,6.0E-4,-0.0677,0.0022,4039,2019-08-07 16:33:13:987
-6.9256,-5.8142,2.886,0.1418,-0.4298,-0.0857,6.0E-4,-0.0677,0.0022,4043,2019-08-07 16:33:13:991
-6.7199,-5.8763,2.721,-0.2206,-0.4698,0.0603,6.0E-4,-0.1039,0.0033,4049,2019-08-07 16:33:13:997
-6.7199,-5.8763,2.721,-0.2206,-0.4698,0.0603,6.0E-4,-0.1039,0.0033,4053,2019-08-07 16:33:14:001
-6.7199,-5.8763,2.721,-0.2206,-0.4698,0.0603,0.0027,-0.105,0.0075,4059,2019-08-07 16:33:14:007
-6.5142,-5.881,2.688,-0.2206,-0.4698,0.0603,0.0027,-0.105,0.0075,4064,2019-08-07 16:33:14:012
-6.5142,-5.881,2.688,-0.4504,-0.4348,0.2164,0.0059,-0.0645,0.016,4068,2019-08-07 16:33:14:016
-6.5142,-5.881,2.688,-0.4504,-0.4348,0.2164,0.0059,-0.0645,0.016,4074,2019-08-07 16:33:14:022
-6.4328,-5.9192,2.622,-0.4504,-0.4348,0.2164,0.0176,-0.0081,0.0203,4080,2019-08-07 16:33:14:028
-6.4328,-5.9192,2.622,-0.4504,-0.4348,0.2164,0.0176,-0.0081,0.0203,4084,2019-08-07 16:33:14:032
-6.4568,-5.8715,2.6644,-0.4893,-0.4176,0.2399,0.0176,-0.0081,0.0203,4089,2019-08-07 16:33:14:037
-6.4568,-5.8715,2.6644,-0.4893,-0.4176,0.2399,0.008,0.0644,0.016,4093,2019-08-07 16:33:14:041
-6.6338,-5.8429,2.7163,-0.4893,-0.4176,0.2399,0.008,0.0644,0.016,4099,2019-08-07 16:33:14:047
-6.6338,-5.8429,2.7163,-0.4893,-0.4176,0.2399,0.0059,0.1017,0.016,4103,2019-08-07 16:33:14:051
-6.6338,-5.8429,2.7163,-0.2048,-0.4284,0.0651,0.0059,0.1017,0.016,4109,2019-08-07 16:33:14:057
-6.7725,-5.819,2.8483,-0.2048,-0.4284,0.0651,0.007,0.1134,0.0235,4114,2019-08-07 16:33:14:062
-6.7725,-5.819,2.8483,-0.2048,-0.4284,0.0651,0.007,0.1134,0.0235,4119,2019-08-07 16:33:14:067
-6.7725,-5.819,2.8483,-0.2048,-0.4284,0.0651,0.007,0.1134,0.0235,4124,2019-08-07 16:33:14:072
-6.9543,-5.7474,2.9425,0.014,-0.5419,-0.0235,0.0016,0.0835,0.0278,4129,2019-08-07 16:33:14:077
-6.9543,-5.7474,2.9425,0.014,-0.5419,-0.0235,0.0016,0.0835,0.0278,4133,2019-08-07 16:33:14:081
-7.0548,-5.6996,2.9095,0.014,-0.5419,-0.0235,-0.0069,0.0345,0.0267,4139,2019-08-07 16:33:14:087
-7.0548,-5.6996,2.9095,0.014,-0.5419,-0.0235,-0.0069,0.0345,0.0267,4144,2019-08-07 16:33:14:092
-7.0548,-5.6996,2.9095,-0.0125,-0.5022,0.0898,-0.0069,-0.0049,0.0246,4149,2019-08-07 16:33:14:097
-6.9352,-5.8381,2.7728,-0.0125,-0.5022,0.0898,-0.0069,-0.0049,0.0246,4154,2019-08-07 16:33:14:102
-6.9352,-5.8381,2.7728,-0.0125,-0.5022,0.0898,-0.0026,-0.0272,0.0214,4159,2019-08-07 16:33:14:107
-6.8108,-5.8476,2.721,-0.0125,-0.5022,0.0898,-0.0026,-0.0272,0.0214,4164,2019-08-07 16:33:14:112
-6.8108,-5.8476,2.721,-0.2209,-0.4407,0.0174,0.0102,-0.0155,0.0214,4169,2019-08-07 16:33:14:117
-6.8108,-5.8476,2.721,-0.2209,-0.4407,0.0174,0.0102,-0.0155,0.0214,4173,2019-08-07 16:33:14:121
-6.7534,-5.881,2.8153,-0.2209,-0.4407,0.0174,0.024,0.009,0.0214,4179,2019-08-07 16:33:14:127
-6.7534,-5.881,2.8153,-0.2209,-0.4407,0.0174,0.024,0.009,0.0214,4183,2019-08-07 16:33:14:131
-6.8347,-5.8429,2.721,-0.1434,-0.421,0.1609,0.0379,0.0409,0.016,4189,2019-08-07 16:33:14:137
-6.8347,-5.8429,2.721,-0.1434,-0.421,0.1609,0.0379,0.0409,0.016,4194,2019-08-07 16:33:14:142
-6.8347,-5.8429,2.721,-0.1434,-0.421,0.1609,0.0474,0.0558,0.016,4199,2019-08-07 16:33:14:147
-7.2749,-5.7426,2.7116,-0.1434,-0.421,0.1609,0.0474,0.0558,0.016,4203,2019-08-07 16:33:14:151
-7.2749,-5.7426,2.7116,0.3272,-0.5275,-0.1846,0.0421,0.0068,0.0416,4209,2019-08-07 16:33:14:157
-7.0787,-5.9049,2.8624,0.3272,-0.5275,-0.1846,0.0421,0.0068,0.0416,4214,2019-08-07 16:33:14:162
-7.0787,-5.9049,2.8624,0.3272,-0.5275,-0.1846,0.0144,-0.0592,0.0118,4219,2019-08-07 16:33:14:167
-7.0787,-5.9049,2.8624,0.3272,-0.5275,-0.1846,0.0144,-0.0592,0.0118,4225,2019-08-07 16:33:14:173
-6.9352,-5.8333,2.6597,-0.0853,-0.451,0.3467,-0.025,-0.0677,-0.0191,4229,2019-08-07 16:33:14:177
-6.9352,-5.8333,2.6597,-0.0853,-0.451,0.3467,-0.025,-0.0677,-0.0191,4234,2019-08-07 16:33:14:182
-6.5763,-5.9145,2.7163,-0.0853,-0.451,0.3467,-0.025,-0.0677,-0.0191,4239,2019-08-07 16:33:14:187
-6.5763,-5.9145,2.7163,-0.0853,-0.451,0.3467,-0.0357,-0.0262,-0.033,4244,2019-08-07 16:33:14:192
-6.5763,-5.9145,2.7163,-0.5199,-0.3278,0.1501,-0.0357,-0.0262,-0.033,4249,2019-08-07 16:33:14:197
-6.4759,-5.9861,2.721,-0.5199,-0.3278,0.1501,0.0123,0.059,-0.0394,4254,2019-08-07 16:33:14:202
-6.4759,-5.9861,2.721,-0.5199,-0.3278,0.1501,0.0123,0.059,-0.0394,4259,2019-08-07 16:33:14:207
-6.4759,-5.9861,2.721,-0.5199,-0.3278,0.1501,0.0389,0.1059,-0.0266,4264,2019-08-07 16:33:14:212
-6.6433,-5.8763,2.7917,-0.2808,-0.4219,0.0904,0.0389,0.1059,-0.0266,4268,2019-08-07 16:33:14:216
-6.6433,-5.8763,2.7917,-0.2808,-0.4219,0.0904,0.0581,0.1091,-0.0063,4275,2019-08-07 16:33:14:223
-6.849,-5.8333,2.8435,-0.2808,-0.4219,0.0904,0.0581,0.1091,-0.0063,4279,2019-08-07 16:33:14:227
-6.849,-5.8333,2.8435,-0.2808,-0.4219,0.0904,0.0624,0.0697,0.0096,4284,2019-08-07 16:33:14:232
-6.9112,-5.7951,2.8011,-0.0769,-0.4599,0.0758,0.0624,0.0697,0.0096,4289,2019-08-07 16:33:14:237
-6.9112,-5.7951,2.8011,-0.0769,-0.4599,0.0758,0.0624,0.0697,0.0096,4293,2019-08-07 16:33:14:241
-6.9112,-5.7951,2.8011,-0.0769,-0.4599,0.0758,0.0528,0.0218,0.0171,4299,2019-08-07 16:33:14:247
-6.806,-5.8142,2.8577,-0.0769,-0.4599,0.0758,0.0528,0.0218,0.0171,4304,2019-08-07 16:33:14:252
-6.806,-5.8142,2.8577,-0.0769,-0.4599,0.0758,0.0538,-0.0283,0.015,4309,2019-08-07 16:33:14:257
-6.806,-5.8142,2.8577,-0.2527,-0.4194,-0.0352,0.0538,-0.0283,0.015,4313,2019-08-07 16:33:14:261
-6.7294,-5.8094,2.7964,-0.2527,-0.4194,-0.0352,0.0485,-0.0454,0.0075,4319,2019-08-07 16:33:14:267
-6.7294,-5.8094,2.7964,-0.2527,-0.4194,-0.0352,0.0485,-0.0454,0.0075,4323,2019-08-07 16:33:14:271
-6.7294,-5.8047,2.8247,-0.3053,-0.4518,0.0952,0.0592,-0.0304,0.015,4330,2019-08-07 16:33:14:278
-6.7294,-5.8047,2.8247,-0.3053,-0.4518,0.0952,0.0592,-0.0304,0.015,4333,2019-08-07 16:33:14:281
-6.7294,-5.8047,2.8247,-0.3053,-0.4518,0.0952,0.0592,-0.0304,0.015,4339,2019-08-07 16:33:14:287
-6.806,-5.7569,2.8624,-0.3053,-0.4518,0.0952,0.0677,-6.0E-4,0.0139,4343,2019-08-07 16:33:14:291
-6.806,-5.7569,2.8624,-0.3053,-0.4518,0.0952,0.0677,-6.0E-4,0.0139,4349,2019-08-07 16:33:14:297
-6.806,-5.7569,2.8624,-0.1502,-0.4682,0.0762,0.0602,0.0132,0.0203,4353,2019-08-07 16:33:14:301
-6.849,-5.7617,2.7823,-0.1502,-0.4682,0.0762,0.0602,0.0132,0.0203,4359,2019-08-07 16:33:14:307
-6.849,-5.7617,2.7823,-0.1502,-0.4682,0.0762,0.0357,0.0239,0.0192,4364,2019-08-07 16:33:14:312
-6.8108,-5.776,2.7257,-0.1502,-0.4682,0.0762,0.0357,0.0239,0.0192,4369,2019-08-07 16:33:14:317
-6.8108,-5.776,2.7257,-0.1647,-0.49,0.0884,0.008,0.0282,0.0118,4375,2019-08-07 16:33:14:323
-6.8108,-5.776,2.7257,-0.1647,-0.49,0.0884,0.008,0.0282,0.0118,4380,2019-08-07 16:33:14:328
-6.8777,-5.8047,2.8435,-0.1647,-0.49,0.0884,0.008,0.0282,0.0118,4383,2019-08-07 16:33:14:331
-6.8777,-5.8047,2.8435,-0.1647,-0.49,0.0884,-0.0122,0.0186,0.0128,4389,2019-08-07 16:33:14:337
-6.8777,-5.8047,2.8435,-0.097,-0.3439,0.0567,-0.0122,0.0186,0.0128,4393,2019-08-07 16:33:14:341
-6.8251,-5.8572,2.8765,-0.097,-0.3439,0.0567,-0.0282,0.0037,0.0118,4399,2019-08-07 16:33:14:347
-6.8251,-5.8572,2.8765,-0.097,-0.3439,0.0567,-0.0282,0.0037,0.0118,4403,2019-08-07 16:33:14:351
-6.7151,-5.9383,2.9425,-0.097,-0.3439,0.0567,-0.0069,-0.0038,0.0033,4409,2019-08-07 16:33:14:357
-6.7151,-5.9383,2.9425,-0.2946,-0.2906,0.0831,-0.0069,-0.0038,0.0033,4414,2019-08-07 16:33:14:362
-6.7151,-5.9383,2.9425,-0.2946,-0.2906,0.0831,0.0144,0.0175,0.0096,4418,2019-08-07 16:33:14:366
-6.6864,-5.8715,2.5324,-0.2946,-0.2906,0.0831,0.0144,0.0175,0.0096,4425,2019-08-07 16:33:14:373
-6.6864,-5.8715,2.5324,-0.2946,-0.2906,0.0831,0.0038,0.0527,0.016,4429,2019-08-07 16:33:14:377
-6.7199,-5.8047,2.5843,-0.2977,-0.3889,0.2917,0.0038,0.0527,0.016,4434,2019-08-07 16:33:14:382
-6.7199,-5.8047,2.5843,-0.2977,-0.3889,0.2917,0.0038,0.0527,0.016,4439,2019-08-07 16:33:14:387
-6.7199,-5.8047,2.5843,-0.2977,-0.3889,0.2917,0.0091,0.0889,0.0128,4444,2019-08-07 16:33:14:392
-6.7725,-5.8524,2.6644,-0.2977,-0.3889,0.2917,0.0091,0.0889,0.0128,4449,2019-08-07 16:33:14:397
-6.7725,-5.8524,2.6644,-0.1565,-0.3623,0.1767,0.0134,0.0985,0.0054,4454,2019-08-07 16:33:14:402
-6.8586,-5.862,2.787,-0.1565,-0.3623,0.1767,0.0134,0.0985,0.0054,4459,2019-08-07 16:33:14:407
-6.8586,-5.862,2.787,-0.1565,-0.3623,0.1767,0.0155,0.0889,-0.0053,4464,2019-08-07 16:33:14:412
-6.8586,-5.862,2.787,-0.1565,-0.3623,0.1767,0.0155,0.0889,-0.0053,4469,2019-08-07 16:33:14:417
-6.8635,-5.8572,2.7775,-0.1576,-0.3608,0.0995,0.0229,0.0867,-0.0212,4474,2019-08-07 16:33:14:422
-6.8635,-5.8572,2.7775,-0.1576,-0.3608,0.0995,0.0229,0.0867,-0.0212,4480,2019-08-07 16:33:14:428
-7.0836,-5.6996,2.3486,-0.1576,-0.3608,0.0995,0.0176,0.0452,-0.0351,4484,2019-08-07 16:33:14:432
-7.0836,-5.6996,2.3486,-0.1576,-0.3608,0.0995,0.0176,0.0452,-0.0351,4489,2019-08-07 16:33:14:437
-7.0836,-5.6996,2.3486,0.4554,-0.5058,-0.346,-0.0388,-0.056,0.0043,4493,2019-08-07 16:33:14:441
-6.72,-6.0052,3.5695,0.4554,-0.5058,-0.346,-0.0388,-0.056,0.0043,4499,2019-08-07 16:33:14:447
-6.72,-6.0052,3.5695,0.4554,-0.5058,-0.346,0.1412,-0.056,-0.018,4504,2019-08-07 16:33:14:452
-6.72,-6.0052,3.5695,0.4554,-0.5058,-0.346,0.1412,-0.056,-0.018,4509,2019-08-07 16:33:14:457
-6.6865,-6.0195,2.9802,-0.2136,-0.3535,-0.0215,0.2083,-0.0454,-0.0362,4514,2019-08-07 16:33:14:462
-6.6865,-6.0195,2.9802,-0.2136,-0.3535,-0.0215,0.2083,-0.0454,-0.0362,4519,2019-08-07 16:33:14:467
-6.8444,-5.6996,2.787,-0.2136,-0.3535,-0.0215,0.2307,-0.0155,0.0086,4524,2019-08-07 16:33:14:472
-6.8444,-5.6996,2.787,-0.2136,-0.3535,-0.0215,0.2307,-0.0155,0.0086,4529,2019-08-07 16:33:14:477
-6.8444,-5.6996,2.787,-0.1319,-0.5732,0.2266,0.2307,-0.0155,0.0086,4534,2019-08-07 16:33:14:482
-6.8731,-5.5755,2.8058,-0.1319,-0.5732,0.2266,0.1348,-0.0485,0.0246,4539,2019-08-07 16:33:14:487
-6.8731,-5.5755,2.8058,-0.1319,-0.5732,0.2266,0.1028,-0.0635,0.0171,4545,2019-08-07 16:33:14:493
-6.8731,-5.5755,2.8058,-0.1319,-0.5732,0.2266,0.1028,-0.0635,0.0171,4548,2019-08-07 16:33:14:496
-6.6817,-5.7378,2.9755,-0.3422,-0.3859,-0.0284,0.1028,-0.0635,0.0171,4554,2019-08-07 16:33:14:502
-6.6817,-5.7378,2.9755,-0.3422,-0.3859,-0.0284,0.0815,-0.04,-0.0106,4559,2019-08-07 16:33:14:507
-6.5956,-5.6376,2.8577,-0.3422,-0.3859,-0.0284,0.0815,-0.04,-0.0106,4565,2019-08-07 16:33:14:513
-6.5956,-5.6376,2.8577,-0.3422,-0.3859,-0.0284,0.0219,-0.0134,-0.0202,4569,2019-08-07 16:33:14:517
-6.5956,-5.6376,2.8577,-0.3422,-0.3859,-0.0284,0.0219,-0.0134,-0.0202,4574,2019-08-07 16:33:14:522
-6.6721,-5.5373,2.8671,-0.3679,-0.6606,0.0445,-0.0175,0.0292,-0.0095,4579,2019-08-07 16:33:14:527
-6.6721,-5.5373,2.8671,-0.3679,-0.6606,0.0445,-0.0175,0.0292,-0.0095,4584,2019-08-07 16:33:14:532
-6.6817,-5.733,2.9331,-0.3679,-0.6606,0.0445,-0.042,0.0516,-0.0191,4588,2019-08-07 16:33:14:536
-6.6817,-5.733,2.9331,-0.2829,-0.4717,0.1033,-0.042,0.0516,-0.0191,4594,2019-08-07 16:33:14:542
-6.6817,-5.733,2.9331,-0.2829,-0.4717,0.1033,-0.0719,0.0804,-0.0234,4598,2019-08-07 16:33:14:546
-6.8874,-5.671,2.8294,-0.2829,-0.4717,0.1033,-0.0719,0.0804,-0.0234,4604,2019-08-07 16:33:14:552