ACCELEROMETER X (m/s²),ACCELEROMETER Y (m/s²),ACCELEROMETER Z (m/s²),LINEAR ACCELERATION X (m/s²),LINEAR ACCELERATION Y (m/s²),LINEAR ACCELERATION Z (m/s²),GYROSCOPE X (rad/s),GYROSCOPE Y (rad/s),GYROSCOPE Z (rad/s),Time since start in ms ,YYYY-MO-DD HH-MI-SS_SSS
-7.4755,-4.8686,2.5645,-0.4244,-0.2631,0.1032,0.0059,-0.0123,0.0181,2,2019-08-07 16:34:36:079
-7.4755,-4.8686,2.5645,-0.4017,-0.2321,0.2078,0.0027,0.0079,0.0181,8,2019-08-07 16:34:36:085
-7.5377,-4.8351,2.6305,-0.4017,-0.2321,0.2078,0.0027,0.0079,0.0181,13,2019-08-07 16:34:36:090
-7.5377,-4.8351,2.6305,-0.4017,-0.2321,0.2078,0.0059,0.0378,0.0107,18,2019-08-07 16:34:36:095
-7.5377,-4.8351,2.6305,-0.4017,-0.2321,0.2078,0.0059,0.0378,0.0107,23,2019-08-07 16:34:36:100
-7.7003,-4.8781,2.6682,-0.2091,-0.254,0.0789,6.0E-4,0.0591,0.0022,28,2019-08-07 16:34:36:105
-7.7003,-4.8781,2.6682,-0.2091,-0.254,0.0789,6.0E-4,0.0591,0.0022,33,2019-08-07 16:34:36:110
-7.7003,-4.8781,2.6682,-0.2091,-0.254,0.0789,6.0E-4,0.0633,-0.001,37,2019-08-07 16:34:36:114
-7.7529,-4.7969,2.6729,-0.2091,-0.254,0.0789,6.0E-4,0.0633,-0.001,45,2019-08-07 16:34:36:122
-7.7529,-4.7969,2.6729,-0.1127,-0.2341,0.0643,6.0E-4,0.0623,-0.0064,48,2019-08-07 16:34:36:125
-7.8151,-4.8351,2.6918,-0.1127,-0.2341,0.0643,6.0E-4,0.0623,-0.0064,53,2019-08-07 16:34:36:130
-7.8151,-4.8351,2.6918,-0.1127,-0.2341,0.0643,6.0E-4,0.0623,-0.0064,57,2019-08-07 16:34:36:134
-7.8151,-4.8351,2.6918,-0.1127,-0.2341,0.0643,-5.0E-4,0.0282,-0.0202,63,2019-08-07 16:34:36:140
-7.8917,-4.8972,2.8002,-0.1127,-0.2341,0.0643,-5.0E-4,0.0282,-0.0202,67,2019-08-07 16:34:36:144
-7.8917,-4.8972,2.8002,-0.1086,-0.1879,0.0973,-0.0026,-0.0176,-0.0223,73,2019-08-07 16:34:36:150
-7.6333,-4.9067,2.6776,-0.1086,-0.1879,0.0973,-0.0026,-0.0176,-0.0223,77,2019-08-07 16:34:36:154
-7.6333,-4.9067,2.6776,-0.1086,-0.1879,0.0973,0.0059,-0.0347,-0.0234,83,2019-08-07 16:34:36:160
-7.6333,-4.9067,2.6776,-0.1086,-0.1879,0.0973,0.0059,-0.0347,-0.0234,87,2019-08-07 16:34:36:164
-7.4994,-4.9258,2.7342,-0.4104,-0.1443,0.0883,0.0176,-0.0283,-0.0245,93,2019-08-07 16:34:36:170
-7.4994,-4.9258,2.7342,-0.4104,-0.1443,0.0883,0.0176,-0.0283,-0.0245,98,2019-08-07 16:34:36:175
-7.4467,-4.8972,2.7531,-0.4104,-0.1443,0.0883,0.0272,-0.0144,-0.0181,102,2019-08-07 16:34:36:179
-7.4467,-4.8972,2.7531,-0.4104,-0.1443,0.0883,0.0272,-0.0144,-0.0181,108,2019-08-07 16:34:36:185
-7.4467,-4.8972,2.7531,-0.4931,-0.2274,0.1084,0.0293,-0.0102,-0.0096,113,2019-08-07 16:34:36:190
-7.4467,-4.7922,2.8096,-0.4931,-0.2274,0.1084,0.0293,-0.0102,-0.0096,118,2019-08-07 16:34:36:195
-7.4467,-4.7922,2.8096,-0.4931,-0.2274,0.1084,0.0251,-0.0091,0.0043,123,2019-08-07 16:34:36:200
-7.418,-4.7349,2.8002,-0.4931,-0.2274,0.1084,0.0251,-0.0091,0.0043,128,2019-08-07 16:34:36:205
-7.418,-4.7349,2.8002,-0.4877,-0.326,0.0284,0.0229,0.0047,0.0064,133,2019-08-07 16:34:36:210
-7.418,-4.7349,2.8002,-0.4877,-0.326,0.0284,0.0229,0.0047,0.0064,137,2019-08-07 16:34:36:214
-7.4754,-4.7206,2.7295,-0.4877,-0.326,0.0284,0.0176,0.0196,0.0075,143,2019-08-07 16:34:36:220
-7.4754,-4.7206,2.7295,-0.4877,-0.326,0.0284,0.0176,0.0196,0.0075,148,2019-08-07 16:34:36:225
-7.5854,-4.7253,2.852,-0.36,-0.328,0.0621,0.0059,0.0271,0.0032,152,2019-08-07 16:34:36:229
-7.5854,-4.7253,2.852,-0.36,-0.328,0.0621,0.0059,0.0271,0.0032,158,2019-08-07 16:34:36:235
-7.5854,-4.7253,2.852,-0.36,-0.328,0.0621,-0.0048,0.0367,-0.0074,163,2019-08-07 16:34:36:240
-7.6763,-4.7253,2.7389,-0.36,-0.328,0.0621,-0.0048,0.0367,-0.0074,168,2019-08-07 16:34:36:245
-7.6763,-4.7253,2.7389,-0.2472,-0.2704,0.1136,-0.0048,0.0367,-0.0074,173,2019-08-07 16:34:36:250
-7.6763,-4.8113,2.7766,-0.2472,-0.2704,0.1136,-0.0069,0.0441,-0.0106,178,2019-08-07 16:34:36:255
-7.6763,-4.8113,2.7766,-0.2472,-0.2704,0.1136,-0.0069,0.0441,-0.0106,183,2019-08-07 16:34:36:260
-7.6763,-4.8113,2.7766,-0.2472,-0.2704,0.1136,-0.0069,0.0303,-0.0202,187,2019-08-07 16:34:36:264
-7.6955,-4.8113,2.6871,-0.2147,-0.2583,0.1353,-0.0069,0.0303,-0.0202,193,2019-08-07 16:34:36:270
-7.6955,-4.8113,2.6871,-0.2147,-0.2583,0.1353,-0.0069,0.009,-0.0202,197,2019-08-07 16:34:36:274
-7.5854,-4.8638,2.6729,-0.2147,-0.2583,0.1353,-0.0069,0.009,-0.0202,203,2019-08-07 16:34:36:280
-7.5854,-4.8638,2.6729,-0.2147,-0.2583,0.1353,-0.0037,-0.0091,-0.0159,208,2019-08-07 16:34:36:285
-7.5854,-4.8638,2.6729,-0.3757,-0.228,0.186,-0.0037,-0.0091,-0.0159,213,2019-08-07 16:34:36:290
-7.5136,-4.8351,2.6824,-0.3757,-0.228,0.186,0.0102,-0.023,-0.0064,218,2019-08-07 16:34:36:295
-7.5136,-4.8351,2.6824,-0.3757,-0.228,0.186,0.0102,-0.023,-0.0064,223,2019-08-07 16:34:36:300
-7.4417,-4.8495,2.6683,-0.3757,-0.228,0.186,0.0102,-0.023,-0.0064,228,2019-08-07 16:34:36:305
-7.4417,-4.8495,2.6683,-0.484,-0.2569,0.1766,0.0251,-0.0251,0.0043,232,2019-08-07 16:34:36:309
-7.4417,-4.8495,2.6683,-0.484,-0.2569,0.1766,0.0251,-0.0251,0.0043,238,2019-08-07 16:34:36:315
-7.4226,-4.797,2.6353,-0.484,-0.2569,0.1766,0.0357,-0.0219,0.0213,243,2019-08-07 16:34:36:320
-7.4226,-4.797,2.6353,-0.484,-0.2569,0.1766,0.0357,-0.0219,0.0213,248,2019-08-07 16:34:36:325
-7.4847,-4.7349,2.5787,-0.4229,-0.3329,0.2538,0.0411,-0.0038,0.0363,253,2019-08-07 16:34:36:330
-7.4847,-4.7349,2.5787,-0.4229,-0.3329,0.2538,0.0411,-0.0038,0.0363,257,2019-08-07 16:34:36:334
-7.4847,-4.7349,2.5787,-0.4229,-0.3329,0.2538,0.0379,0.0026,0.0405,262,2019-08-07 16:34:36:339
-7.5804,-4.692,2.6824,-0.4229,-0.3329,0.2538,0.0379,0.0026,0.0405,268,2019-08-07 16:34:36:345
-7.5804,-4.692,2.6824,-0.3319,-0.3952,0.149,0.0325,0.0154,0.0405,272,2019-08-07 16:34:36:349
-7.5804,-4.692,2.6824,-0.3319,-0.3952,0.149,0.0325,0.0154,0.0405,278,2019-08-07 16:34:36:355
-7.6043,-4.6824,2.6918,-0.3319,-0.3952,0.149,0.0304,0.0335,0.0331,283,2019-08-07 16:34:36:360
-7.6043,-4.6824,2.6918,-0.3319,-0.3952,0.149,0.0304,0.0335,0.0331,287,2019-08-07 16:34:36:364
-7.7574,-4.7349,2.7295,-0.1609,-0.3152,0.1047,0.0293,0.0495,0.0245,293,2019-08-07 16:34:36:370
-7.7574,-4.7349,2.7295,-0.1609,-0.3152,0.1047,0.0293,0.0495,0.0245,297,2019-08-07 16:34:36:374
-7.7574,-4.7349,2.7295,-0.1609,-0.3152,0.1047,0.0293,0.0409,0.0128,303,2019-08-07 16:34:36:380
-7.9249,-4.7301,2.7013,-0.1609,-0.3152,0.1047,0.0293,0.0409,0.0128,307,2019-08-07 16:34:36:384
-7.9249,-4.7301,2.7013,-0.0413,-0.2712,0.012,0.0251,0.009,0.0064,313,2019-08-07 16:34:36:390
-7.8196,-4.7731,2.6965,-0.0413,-0.2712,0.012,0.0251,0.009,0.0064,317,2019-08-07 16:34:36:394
-7.8196,-4.7731,2.6965,-0.0413,-0.2712,0.012,0.0187,-0.0176,0.0118,323,2019-08-07 16:34:36:400
-7.8196,-4.7731,2.6965,-0.0413,-0.2712,0.012,0.0187,-0.0176,0.0118,327,2019-08-07 16:34:36:404
-7.743,-4.797,2.772,-0.2143,-0.2629,0.0493,0.0144,-0.0368,0.0064,333,2019-08-07 16:34:36:410
-7.743,-4.797,2.772,-0.2143,-0.2629,0.0493,0.0144,-0.0368,0.0064,338,2019-08-07 16:34:36:415
-7.743,-4.797,2.772,-0.2143,-0.2629,0.0493,0.0144,-0.0368,0.0064,343,2019-08-07 16:34:36:420
-7.6091,-4.7827,2.8285,-0.2143,-0.2629,0.0493,0.0134,-0.0592,0.0107,348,2019-08-07 16:34:36:425
-7.6091,-4.7827,2.8285,-0.3558,-0.2029,0.1258,0.0134,-0.0592,0.0107,353,2019-08-07 16:34:36:430
-7.5421,-4.8113,2.8191,-0.3558,-0.2029,0.1258,-5.0E-4,-0.0752,0.016,359,2019-08-07 16:34:36:436
-7.5421,-4.8113,2.8191,-0.3558,-0.2029,0.1258,-5.0E-4,-0.0752,0.016,363,2019-08-07 16:34:36:440
-7.5421,-4.8113,2.8191,-0.3558,-0.2029,0.1258,-0.0048,-0.0677,0.0203,367,2019-08-07 16:34:36:444
-7.4464,-4.8209,2.6824,-0.4873,-0.1431,0.1749,-0.0048,-0.0677,0.0203,373,2019-08-07 16:34:36:450
-7.4464,-4.8209,2.6824,-0.4873,-0.1431,0.1749,-0.0079,-0.0347,0.0213,378,2019-08-07 16:34:36:455
-7.4272,-4.8447,2.7626,-0.4873,-0.1431,0.1749,-0.0079,-0.0347,0.0213,382,2019-08-07 16:34:36:459
-7.4272,-4.8447,2.7626,-0.4873,-0.1431,0.1749,-0.009,0.0026,0.0192,388,2019-08-07 16:34:36:465
-7.4272,-4.8447,2.7626,-0.4873,-0.1431,0.1749,-0.009,0.0026,0.0192,392,2019-08-07 16:34:36:469
-7.4799,-4.8065,2.805,-0.4588,-0.2125,0.0932,-0.0175,0.0367,0.0149,398,2019-08-07 16:34:36:475
-7.4799,-4.8065,2.805,-0.4588,-0.2125,0.0932,-0.0175,0.0367,0.0149,403,2019-08-07 16:34:36:480
-7.6999,-4.8447,2.8191,-0.4588,-0.2125,0.0932,-0.0175,0.0367,0.0149,408,2019-08-07 16:34:36:485
-7.6999,-4.8447,2.8191,-0.4588,-0.2125,0.0932,-0.0261,0.0644,0.0054,413,2019-08-07 16:34:36:490
-7.6999,-4.8447,2.8191,-0.1899,-0.1927,-0.029,-0.0261,0.0644,0.0054,418,2019-08-07 16:34:36:495
-7.7812,-4.8447,2.937,-0.1899,-0.1927,-0.029,-0.0229,0.0452,0.0022,422,2019-08-07 16:34:36:499
-7.7812,-4.8447,2.937,-0.1899,-0.1927,-0.029,-0.0229,0.0452,0.0022,428,2019-08-07 16:34:36:505
-7.7812,-4.8447,2.937,-0.1899,-0.1927,-0.029,-0.0261,5.0E-4,0.0022,432,2019-08-07 16:34:36:509
-7.8052,-4.859,2.9087,-0.1207,-0.1737,-0.0645,-0.0261,5.0E-4,0.0022,438,2019-08-07 16:34:36:515
-7.8052,-4.859,2.9087,-0.1207,-0.1737,-0.0645,-0.0261,5.0E-4,0.0022,443,2019-08-07 16:34:36:520
-7.743,-4.8209,2.8474,-0.1207,-0.1737,-0.0645,-0.0197,-0.0485,-0.0032,449,2019-08-07 16:34:36:526
-7.743,-4.8209,2.8474,-0.1207,-0.1737,-0.0645,-0.0197,-0.0485,-0.0032,453,2019-08-07 16:34:36:530
-7.743,-4.8209,2.8474,-0.2331,-0.2125,-0.0167,-0.0154,-0.0762,0.0,458,2019-08-07 16:34:36:535
-7.6568,-4.8543,2.8945,-0.2331,-0.2125,-0.0167,-0.0154,-0.0762,0.0,463,2019-08-07 16:34:36:540
-7.6568,-4.8543,2.8945,-0.2331,-0.2125,-0.0167,-0.0079,-0.0922,0.0032,467,2019-08-07 16:34:36:544
-7.5994,-4.8352,2.7484,-0.2331,-0.2125,-0.0167,-0.0079,-0.0922,0.0032,473,2019-08-07 16:34:36:550
-7.5994,-4.8352,2.7484,-0.3526,-0.2458,0.1717,-0.0079,-0.0975,0.0032,478,2019-08-07 16:34:36:555
-7.5994,-4.8352,2.7484,-0.3526,-0.2458,0.1717,-0.0079,-0.0975,0.0032,483,2019-08-07 16:34:36:560
-7.4989,-4.8113,2.6117,-0.3526,-0.2458,0.1717,-0.0048,-0.0805,0.0054,488,2019-08-07 16:34:36:565
-7.4989,-4.8113,2.6117,-0.3526,-0.2458,0.1717,-0.0048,-0.0805,0.0054,494,2019-08-07 16:34:36:571
-7.4702,-4.7874,2.6164,-0.4633,-0.2217,0.2966,-5.0E-4,-0.0507,0.0054,497,2019-08-07 16:34:36:574
-7.4702,-4.7874,2.6164,-0.4633,-0.2217,0.2966,-5.0E-4,-0.0507,0.0054,502,2019-08-07 16:34:36:579
-7.4702,-4.7874,2.6164,-0.4633,-0.2217,0.2966,-5.0E-4,-0.0059,0.0011,508,2019-08-07 16:34:36:585
-7.5563,-4.7636,2.64,-0.4633,-0.2217,0.2966,-5.0E-4,-0.0059,0.0011,512,2019-08-07 16:34:36:589
-7.5563,-4.7636,2.64,-0.3721,-0.3168,0.1519,0.0038,0.0282,0.0032,518,2019-08-07 16:34:36:595
-7.6568,-4.7302,2.7201,-0.3721,-0.3168,0.1519,0.0038,0.0282,0.0032,522,2019-08-07 16:34:36:599
-7.6568,-4.7302,2.7201,-0.3721,-0.3168,0.1519,-0.0016,0.042,-0.0053,528,2019-08-07 16:34:36:605
-7.6568,-4.7302,2.7201,-0.3721,-0.3168,0.1519,-0.0016,0.042,-0.0053,533,2019-08-07 16:34:36:610
-7.7668,-4.7302,2.7484,-0.1497,-0.3022,0.1223,-0.0037,0.0207,-0.0053,537,2019-08-07 16:34:36:614
-7.7668,-4.7302,2.7484,-0.1497,-0.3022,0.1223,-0.0037,0.0207,-0.0053,543,2019-08-07 16:34:36:620
-7.8099,-4.7254,2.7861,-0.1497,-0.3022,0.1223,-0.0069,-0.0113,-0.0064,548,2019-08-07 16:34:36:625
-7.8099,-4.7254,2.7861,-0.1497,-0.3022,0.1223,-0.0069,-0.0113,-0.0064,552,2019-08-07 16:34:36:629
-7.8099,-4.7254,2.7861,-0.1211,-0.3309,0.0181,-0.0069,-0.0113,-0.0064,558,2019-08-07 16:34:36:635
-7.7237,-4.7206,2.8003,-0.1211,-0.3309,0.0181,-0.0069,-0.0592,0.0,563,2019-08-07 16:34:36:640
-7.7237,-4.7206,2.8003,-0.1211,-0.3309,0.0181,-0.0069,-0.0592,0.0,568,2019-08-07 16:34:36:645
-7.7237,-4.7206,2.8003,-0.1211,-0.3309,0.0181,-0.0069,-0.0794,-0.001,572,2019-08-07 16:34:36:649
-7.5658,-4.7349,2.8097,-0.3471,-0.2976,0.0703,-0.0069,-0.0794,-0.001,578,2019-08-07 16:34:36:655
-7.5658,-4.7349,2.8097,-0.3471,-0.2976,0.0703,-0.0069,-0.0805,0.0,583,2019-08-07 16:34:36:660
-7.5658,-4.7349,2.8097,-0.3471,-0.2976,0.0703,-0.0069,-0.0805,0.0,587,2019-08-07 16:34:36:664
-7.4319,-4.7922,2.739,-0.3471,-0.2976,0.0703,-0.0069,-0.0805,0.0,593,2019-08-07 16:34:36:670
-7.4319,-4.7922,2.739,-0.4678,-0.2498,0.2127,-0.0069,-0.0592,0.0096,598,2019-08-07 16:34:36:675
-7.4032,-4.7827,2.6777,-0.4678,-0.2498,0.2127,-0.0069,-0.0592,0.0096,602,2019-08-07 16:34:36:679
-7.4032,-4.7827,2.6777,-0.4678,-0.2498,0.2127,-0.0037,-0.0102,0.0096,608,2019-08-07 16:34:36:685
-7.4032,-4.7827,2.6777,-0.4678,-0.2498,0.2127,-0.0037,-0.0102,0.0096,612,2019-08-07 16:34:36:689
-7.5323,-4.7731,2.7484,-0.3768,-0.2537,0.153,-0.0058,0.0175,0.0096,618,2019-08-07 16:34:36:695
-7.5323,-4.7731,2.7484,-0.3768,-0.2537,0.153,-0.0058,0.0175,0.0096,622,2019-08-07 16:34:36:699
-7.5945,-4.8066,2.838,-0.3768,-0.2537,0.153,-0.0101,0.0218,0.0096,628,2019-08-07 16:34:36:705
-7.5945,-4.8066,2.838,-0.3768,-0.2537,0.153,-0.0101,0.0218,0.0096,633,2019-08-07 16:34:36:710
-7.5945,-4.8066,2.838,-0.1927,-0.2476,0.097,-0.0154,0.0143,0.0043,637,2019-08-07 16:34:36:714
-7.7093,-4.7493,2.8333,-0.1927,-0.2476,0.097,-0.0154,0.0143,0.0043,643,2019-08-07 16:34:36:720
-7.7093,-4.7493,2.8333,-0.1927,-0.2476,0.097,-0.0143,-0.0049,0.0054,648,2019-08-07 16:34:36:725
-7.7428,-4.8304,2.8239,-0.1927,-0.2476,0.097,-0.0143,-0.0049,0.0054,653,2019-08-07 16:34:36:730
-7.7428,-4.8304,2.8239,-0.2556,-0.2518,0.0018,-0.0154,-0.0294,0.0043,658,2019-08-07 16:34:36:735
-7.7428,-4.8304,2.8239,-0.2556,-0.2518,0.0018,-0.0154,-0.0294,0.0043,663,2019-08-07 16:34:36:740
-7.6375,-4.797,2.8239,-0.2556,-0.2518,0.0018,-0.009,-0.0528,0.0054,667,2019-08-07 16:34:36:744
-7.6375,-4.797,2.8239,-0.2556,-0.2518,0.0018,-0.009,-0.0528,0.0054,673,2019-08-07 16:34:36:750
-7.5323,-4.7731,2.7814,-0.3778,-0.256,0.1123,-0.0079,-0.056,0.0096,677,2019-08-07 16:34:36:754
-7.5323,-4.7731,2.7814,-0.3778,-0.256,0.1123,-0.0079,-0.056,0.0096,683,2019-08-07 16:34:36:760
-7.5323,-4.7731,2.7814,-0.3778,-0.256,0.1123,-0.0058,-0.0485,0.0149,687,2019-08-07 16:34:36:764
-7.494,-4.8257,2.739,-0.3778,-0.256,0.1123,-0.0058,-0.0485,0.0149,693,2019-08-07 16:34:36:770
-7.494,-4.8257,2.739,-0.4193,-0.1829,0.2134,-0.0069,-0.0347,0.0171,697,2019-08-07 16:34:36:774
-7.5131,-4.8113,2.7532,-0.4193,-0.1829,0.2134,-0.0069,-0.0347,0.0171,703,2019-08-07 16:34:36:780
-7.5131,-4.8113,2.7532,-0.4193,-0.1829,0.2134,-0.0048,-0.0219,0.0171,708,2019-08-07 16:34:36:785
-7.5131,-4.8113,2.7532,-0.4193,-0.1829,0.2134,-0.0048,-0.0219,0.0171,713,2019-08-07 16:34:36:790
-7.4892,-4.8829,2.7249,-0.3764,-0.1667,0.1644,-0.0037,-0.0049,0.0118,718,2019-08-07 16:34:36:795
-7.4892,-4.8829,2.7249,-0.3764,-0.1667,0.1644,-0.0037,-0.0049,0.0118,722,2019-08-07 16:34:36:799
-7.5705,-4.8973,2.7013,-0.3764,-0.1667,0.1644,-0.0037,0.009,0.0075,728,2019-08-07 16:34:36:805
-7.5705,-4.8973,2.7013,-0.3764,-0.1667,0.1644,-0.0037,0.009,0.0075,733,2019-08-07 16:34:36:810
-7.5705,-4.8973,2.7013,-0.2721,-0.1757,0.0639,-0.0037,0.009,0.0075,737,2019-08-07 16:34:36:814
-7.671,-4.8257,2.7909,-0.2721,-0.1757,0.0639,-0.0037,0.0132,-0.001,743,2019-08-07 16:34:36:820
-7.671,-4.8257,2.7909,-0.2721,-0.1757,0.0639,-0.0037,0.0132,-0.001,748,2019-08-07 16:34:36:825
-7.671,-4.8257,2.7909,-0.2721,-0.1757,0.0639,-0.0058,0.0154,-0.0053,752,2019-08-07 16:34:36:829
-7.6423,-4.8591,2.8569,-0.2721,-0.1757,0.0639,-0.0058,0.0154,-0.0053,758,2019-08-07 16:34:36:835
-7.6423,-4.8591,2.8569,-0.22,-0.1861,0.047,-0.0048,0.0154,-0.0127,762,2019-08-07 16:34:36:839
-7.6805,-4.8638,2.8569,-0.22,-0.1861,0.047,-0.0048,0.0154,-0.0127,768,2019-08-07 16:34:36:845
-7.6805,-4.8638,2.8569,-0.22,-0.1861,0.047,-0.0058,-0.0102,-0.0138,772,2019-08-07 16:34:36:849
-7.6327,-4.902,2.8427,-0.2758,-0.1264,0.0567,-0.0058,-0.0102,-0.0138,778,2019-08-07 16:34:36:855
-7.6327,-4.902,2.8427,-0.2758,-0.1264,0.0567,-0.0037,-0.0315,-0.0159,782,2019-08-07 16:34:36:859
-7.6327,-4.902,2.8427,-0.2758,-0.1264,0.0567,-0.0037,-0.0315,-0.0159,788,2019-08-07 16:34:36:865
-7.604,-4.902,2.8003,-0.2758,-0.1264,0.0567,0.0016,-0.0581,-0.0159,792,2019-08-07 16:34:36:869
-7.604,-4.902,2.8003,-0.2758,-0.1264,0.0567,0.0016,-0.0581,-0.0159,798,2019-08-07 16:34:36:875
-7.604,-4.902,2.8003,-0.3621,-0.1245,0.1209,0.0016,-0.0677,-0.0127,802,2019-08-07 16:34:36:879
-7.4987,-4.9355,2.7673,-0.3621,-0.1245,0.1209,0.0016,-0.0677,-0.0127,808,2019-08-07 16:34:36:885
-7.4987,-4.9355,2.7673,-0.3621,-0.1245,0.1209,0.0091,-0.0528,-0.0117,812,2019-08-07 16:34:36:889
-7.4891,-4.8829,2.8003,-0.3621,-0.1245,0.1209,0.0091,-0.0528,-0.0117,818,2019-08-07 16:34:36:895
-7.4891,-4.8829,2.8003,-0.4193,-0.16,0.0649,0.0048,-0.0421,-0.0042,822,2019-08-07 16:34:36:899
-7.4891,-4.8829,2.8003,-0.4193,-0.16,0.0649,0.0048,-0.0421,-0.0042,828,2019-08-07 16:34:36:905
-7.47,-4.8782,2.772,-0.4193,-0.16,0.0649,0.0102,-0.024,-0.0106,833,2019-08-07 16:34:36:910
-7.47,-4.8782,2.772,-0.4193,-0.16,0.0649,0.0102,-0.024,-0.0106,838,2019-08-07 16:34:36:915
-7.513,-4.8591,2.739,-0.4259,-0.171,0.1505,0.0038,5.0E-4,-0.0213,844,2019-08-07 16:34:36:921
-7.513,-4.8591,2.739,-0.4259,-0.171,0.1505,0.0038,5.0E-4,-0.0213,847,2019-08-07 16:34:36:924
-7.513,-4.8591,2.739,-0.4259,-0.171,0.1505,0.0038,5.0E-4,-0.0213,853,2019-08-07 16:34:36:930
-7.5752,-4.8686,2.7155,-0.4259,-0.171,0.1505,0.0016,0.0228,-0.0266,858,2019-08-07 16:34:36:935
-7.5752,-4.8686,2.7155,-0.314,-0.1321,0.1204,0.0016,0.0228,-0.0266,862,2019-08-07 16:34:36:939
-7.5752,-4.8686,2.7155,-0.314,-0.1321,0.1204,-5.0E-4,0.0346,-0.0362,868,2019-08-07 16:34:36:945
-7.6039,-4.8352,2.8003,-0.314,-0.1321,0.1204,-5.0E-4,0.0346,-0.0362,872,2019-08-07 16:34:36:949
-7.6039,-4.8352,2.8003,-0.314,-0.1321,0.1204,-0.0016,0.0356,-0.0394,878,2019-08-07 16:34:36:955
-7.6039,-4.8352,2.8003,-0.2503,-0.2094,0.1663,-0.0016,0.0356,-0.0394,882,2019-08-07 16:34:36:959
-7.6661,-4.8209,2.7909,-0.2503,-0.2094,0.1663,-0.0037,0.0207,-0.0415,888,2019-08-07 16:34:36:965
-7.6661,-4.8209,2.7909,-0.2503,-0.2094,0.1663,-0.0037,0.0207,-0.0415,894,2019-08-07 16:34:36:971
-7.5943,-4.8639,2.805,-0.2503,-0.2094,0.1663,-0.0026,-0.0102,-0.0394,897,2019-08-07 16:34:36:974
-7.5943,-4.8639,2.805,-0.2518,-0.2396,0.1551,-0.0026,-0.0102,-0.0394,903,2019-08-07 16:34:36:980
-7.5752,-4.8018,2.7862,-0.2518,-0.2396,0.1551,0.0048,-0.039,-0.0372,907,2019-08-07 16:34:36:984
-7.5752,-4.8018,2.7862,-0.2518,-0.2396,0.1551,0.0048,-0.039,-0.0372,913,2019-08-07 16:34:36:990
-7.5752,-4.8018,2.7862,-0.2518,-0.2396,0.1551,0.0123,-0.0656,-0.0277,917,2019-08-07 16:34:36:994
-7.4699,-4.7779,2.7438,-0.4133,-0.2775,0.1775,0.0123,-0.0656,-0.0277,923,2019-08-07 16:34:37:000
-7.4699,-4.7779,2.7438,-0.4133,-0.2775,0.1775,0.0187,-0.0656,-0.017,927,2019-08-07 16:34:37:004
-7.4077,-4.7779,2.7108,-0.4133,-0.2775,0.1775,0.0187,-0.0656,-0.017,933,2019-08-07 16:34:37:010
-7.4077,-4.7779,2.7108,-0.4133,-0.2775,0.1775,0.0272,-0.0358,-0.0042,938,2019-08-07 16:34:37:015
-7.4077,-4.7779,2.7108,-0.4568,-0.2973,0.1973,0.0272,-0.0358,-0.0042,943,2019-08-07 16:34:37:020
-7.4221,-4.7779,2.6495,-0.4568,-0.2973,0.1973,0.0347,-0.0091,0.0043,948,2019-08-07 16:34:37:025
-7.4221,-4.7779,2.6495,-0.4568,-0.2973,0.1973,0.0347,-0.0091,0.0043,953,2019-08-07 16:34:37:030
-7.4221,-4.7779,2.6495,-0.4568,-0.2973,0.1973,0.0347,-0.0091,0.0043,957,2019-08-07 16:34:37:034
-7.4508,-4.7397,2.7061,-0.3374,-0.2569,0.1961,0.0389,0.0292,-0.0053,963,2019-08-07 16:34:37:040
-7.4508,-4.7397,2.7061,-0.3374,-0.2569,0.1961,0.0389,0.0292,-0.0053,968,2019-08-07 16:34:37:045
-7.4508,-4.7397,2.7061,-0.3374,-0.2569,0.1961,0.0357,0.0559,-0.0074,972,2019-08-07 16:34:37:049
-7.5943,-4.7111,2.8899,-0.3374,-0.2569,0.1961,0.0357,0.0559,-0.0074,978,2019-08-07 16:34:37:055
-7.5943,-4.7111,2.8899,-0.2445,-0.3553,0.0834,0.0293,0.0591,-0.0138,982,2019-08-07 16:34:37:059
-7.6708,-4.7159,2.9088,-0.2445,-0.3553,0.0834,0.0293,0.0591,-0.0138,988,2019-08-07 16:34:37:065
-7.6708,-4.7159,2.9088,-0.2445,-0.3553,0.0834,0.024,0.0452,-0.0223,993,2019-08-07 16:34:37:070
-7.6708,-4.7159,2.9088,-0.2445,-0.3553,0.0834,0.024,0.0452,-0.0223,998,2019-08-07 16:34:37:075
-7.7139,-4.7588,2.9041,-0.174,-0.2315,0.0085,0.0208,0.0186,-0.0181,1003,2019-08-07 16:34:37:080
-7.7139,-4.7588,2.9041,-0.174,-0.2315,0.0085,0.0208,0.0186,-0.0181,1007,2019-08-07 16:34:37:084
-7.5751,-4.7493,2.8946,-0.174,-0.2315,0.0085,0.024,-0.0091,-0.0159,1013,2019-08-07 16:34:37:090
-7.5751,-4.7493,2.8946,-0.174,-0.2315,0.0085,0.024,-0.0091,-0.0159,1017,2019-08-07 16:34:37:094
-7.5751,-4.7493,2.8946,-0.3586,-0.2945,0.0173,0.0261,-0.0283,-0.0159,1023,2019-08-07 16:34:37:100
-7.5081,-4.7636,2.9276,-0.3586,-0.2945,0.0173,0.0261,-0.0283,-0.0159,1027,2019-08-07 16:34:37:104
-7.5081,-4.7636,2.9276,-0.3586,-0.2945,0.0173,0.0251,-0.0443,-0.0053,1033,2019-08-07 16:34:37:110
-7.3933,-4.7732,2.8899,-0.3586,-0.2945,0.0173,0.0251,-0.0443,-0.0053,1038,2019-08-07 16:34:37:115
-7.3933,-4.7732,2.8899,-0.5226,-0.2796,0.1263,0.0187,-0.0464,0.0054,1044,2019-08-07 16:34:37:121
-7.3933,-4.7732,2.8899,-0.5226,-0.2796,0.1263,0.0187,-0.0464,0.0054,1047,2019-08-07 16:34:37:124
-7.3837,-4.7732,2.7862,-0.5226,-0.2796,0.1263,0.0187,-0.0464,0.0054,1053,2019-08-07 16:34:37:130
-7.3837,-4.7732,2.7862,-0.5226,-0.2796,0.1263,0.0144,-0.0304,0.0086,1057,2019-08-07 16:34:37:134
-7.3885,-4.7254,2.7862,-0.4878,-0.3251,0.1621,0.0144,-0.0304,0.0086,1063,2019-08-07 16:34:37:140
-7.3885,-4.7254,2.7862,-0.4878,-0.3251,0.1621,0.0144,-0.007,0.0149,1068,2019-08-07 16:34:37:145
-7.3885,-4.7254,2.7862,-0.4878,-0.3251,0.1621,0.0144,-0.007,0.0149,1073,2019-08-07 16:34:37:150
-7.3933,-4.7493,2.8711,-0.4878,-0.3251,0.1621,0.0091,0.0335,0.016,1077,2019-08-07 16:34:37:154
-7.3933,-4.7493,2.8711,-0.4376,-0.3459,0.1278,0.0091,0.0335,0.016,1083,2019-08-07 16:34:37:160
-7.3933,-4.7493,2.8711,-0.4376,-0.3459,0.1278,6.0E-4,0.0676,0.0107,1088,2019-08-07 16:34:37:165
-7.5176,-4.7541,2.9371,-0.4376,-0.3459,0.1278,6.0E-4,0.0676,0.0107,1093,2019-08-07 16:34:37:170
-7.5176,-4.7541,2.9371,-0.4376,-0.3459,0.1278,6.0E-4,0.0676,0.0107,1098,2019-08-07 16:34:37:175
-7.6229,-4.8161,2.9041,-0.2612,-0.2289,0.0327,-0.0048,0.0718,0.0086,1103,2019-08-07 16:34:37:180
-7.6229,-4.8161,2.9041,-0.2612,-0.2289,0.0327,-0.0048,0.0718,0.0086,1108,2019-08-07 16:34:37:185
-7.6229,-4.8161,2.9041,-0.2612,-0.2289,0.0327,-0.0101,0.0452,0.0107,1113,2019-08-07 16:34:37:190
-7.7425,-4.84,2.9795,-0.2612,-0.2289,0.0327,-0.0101,0.0452,0.0107,1117,2019-08-07 16:34:37:194
-7.7425,-4.84,2.9795,-0.1931,-0.2652,0.0875,-0.0069,0.0069,0.0118,1123,2019-08-07 16:34:37:200
-7.7425,-4.84,2.9795,-0.1931,-0.2652,0.0875,-0.0069,0.0069,0.0118,1128,2019-08-07 16:34:37:205
-7.6564,-4.7541,2.8098,-0.1931,-0.2652,0.0875,-0.0058,-0.0198,0.0107,1133,2019-08-07 16:34:37:210
-7.6564,-4.7541,2.8098,-0.1931,-0.2652,0.0875,-0.0058,-0.0198,0.0107,1138,2019-08-07 16:34:37:215
-7.6564,-4.7541,2.8098,-0.1931,-0.2652,0.0875,-0.0048,-0.0453,0.0139,1143,2019-08-07 16:34:37:220
-7.5702,-4.7732,2.8098,-0.3174,-0.2678,0.1244,-0.0048,-0.0453,0.0139,1147,2019-08-07 16:34:37:224
-7.5702,-4.7732,2.8098,-0.3174,-0.2678,0.1244,-0.0048,-0.0507,0.0192,1153,2019-08-07 16:34:37:230
-7.5702,-4.7732,2.8098,-0.3174,-0.2678,0.1244,-0.0048,-0.0507,0.0192,1158,2019-08-07 16:34:37:235
-7.4793,-4.7732,2.7438,-0.3174,-0.2678,0.1244,-0.0048,-0.0358,0.0213,1163,2019-08-07 16:34:37:240
-7.4793,-4.7732,2.7438,-0.4268,-0.203,0.2724,-0.0048,-0.0358,0.0213,1167,2019-08-07 16:34:37:244
-7.4267,-4.7636,2.7674,-0.4268,-0.203,0.2724,-0.0048,-0.0358,0.0213,1173,2019-08-07 16:34:37:250
-7.4267,-4.7636,2.7674,-0.4268,-0.203,0.2724,-0.0026,-0.0091,0.0139,1177,2019-08-07 16:34:37:254
-7.4267,-4.7636,2.7674,-0.4268,-0.203,0.2724,-0.0026,-0.0091,0.0139,1183,2019-08-07 16:34:37:260
-7.4267,-4.797,2.6731,-0.4613,-0.2391,0.2686,-0.0048,0.0196,0.0107,1188,2019-08-07 16:34:37:265
-7.4267,-4.797,2.6731,-0.4613,-0.2391,0.2686,-0.0048,0.0196,0.0107,1193,2019-08-07 16:34:37:270
-7.5224,-4.7827,2.6495,-0.367,-0.2533,0.2888,-0.0079,0.0463,0.0022,1198,2019-08-07 16:34:37:275
-7.5224,-4.7827,2.6495,-0.367,-0.2533,0.2888,-0.0079,0.0463,0.0022,1202,2019-08-07 16:34:37:279
-7.5224,-4.7827,2.6495,-0.367,-0.2533,0.2888,-0.0048,0.0665,-0.0021,1208,2019-08-07 16:34:37:285
-7.5989,-4.7636,2.8711,-0.367,-0.2533,0.2888,-0.0048,0.0665,-0.0021,1213,2019-08-07 16:34:37:290
-7.5989,-4.7636,2.8711,-0.2607,-0.2725,0.0708,-0.0122,0.0569,-0.0053,1218,2019-08-07 16:34:37:295
-7.6334,-4.7969,2.8756,-0.2607,-0.2725,0.0708,-0.0122,0.0569,-0.0053,1222,2019-08-07 16:34:37:299
-7.6334,-4.7969,2.8756,-0.2607,-0.2725,0.0708,-0.0154,0.042,-0.0042,1228,2019-08-07 16:34:37:305
-7.6334,-4.7969,2.8756,-0.2607,-0.2725,0.0708,-0.0154,0.042,-0.0042,1233,2019-08-07 16:34:37:310
-7.686,-4.8208,2.8709,-0.2095,-0.2162,0.049,-0.0186,0.0154,0.0043,1238,2019-08-07 16:34:37:315
-7.686,-4.8208,2.8709,-0.2095,-0.2162,0.049,-0.0186,0.0154,0.0043,1243,2019-08-07 16:34:37:320
-7.686,-4.8208,2.8709,-0.2095,-0.2162,0.049,-0.0165,-0.0081,0.0128,1248,2019-08-07 16:34:37:325
-7.5425,-4.8399,2.8614,-0.2095,-0.2162,0.049,-0.0165,-0.0081,0.0128,1252,2019-08-07 16:34:37:329
-7.5425,-4.8399,2.8614,-0.3826,-0.2769,0.0536,-0.0101,-0.0219,0.0139,1258,2019-08-07 16:34:37:335
-7.4468,-4.7683,2.7954,-0.3826,-0.2769,0.0536,-0.0101,-0.0219,0.0139,1263,2019-08-07 16:34:37:340
-7.4468,-4.7683,2.7954,-0.3826,-0.2769,0.0536,-0.0101,-0.0219,0.0139,1268,2019-08-07 16:34:37:345
-7.4468,-4.7683,2.7954,-0.3826,-0.2769,0.0536,-0.0037,-0.0144,0.0181,1273,2019-08-07 16:34:37:350
-7.4947,-4.7206,2.8473,-0.4025,-0.3123,0.0751,-0.0037,-0.0144,0.0181,1278,2019-08-07 16:34:37:355
-7.4947,-4.7206,2.8473,-0.4025,-0.3123,0.0751,6.0E-4,-0.0027,0.0277,1283,2019-08-07 16:34:37:360
-7.4947,-4.7206,2.8473,-0.4025,-0.3123,0.0751,0.0027,0.0058,0.0299,1288,2019-08-07 16:34:37:365
-7.4899,-4.7158,2.8237,-0.4025,-0.3123,0.0751,0.0027,0.0058,0.0299,1293,2019-08-07 16:34:37:370
-7.4899,-4.7158,2.8237,-0.3866,-0.3169,0.1738,0.0027,0.0058,0.0299,1297,2019-08-07 16:34:37:374
-7.5234,-4.7492,2.7483,-0.3866,-0.3169,0.1738,0.0027,0.0228,0.0235,1303,2019-08-07 16:34:37:380
-7.5234,-4.7492,2.7483,-0.3866,-0.3169,0.1738,0.0027,0.0228,0.0235,1308,2019-08-07 16:34:37:385
-7.5234,-4.7492,2.7483,-0.3866,-0.3169,0.1738,6.0E-4,0.0409,0.0213,1313,2019-08-07 16:34:37:390
-7.5713,-4.7158,2.8049,-0.3337,-0.3083,0.1119,6.0E-4,0.0409,0.0213,1317,2019-08-07 16:34:37:394
-7.5713,-4.7158,2.8049,-0.3337,-0.3083,0.1119,-0.0037,0.0537,0.0149,1323,2019-08-07 16:34:37:400
-7.6143,-4.7349,2.7954,-0.2932,-0.2876,0.117,-0.0037,0.0537,0.0149,1328,2019-08-07 16:34:37:405
-7.6143,-4.7349,2.7954,-0.2932,-0.2876,0.117,-0.0047,0.0569,0.0149,1332,2019-08-07 16:34:37:409
-7.6143,-4.7349,2.7954,-0.2932,-0.2876,0.117,-0.0047,0.0569,0.0149,1338,2019-08-07 16:34:37:415
-7.6526,-4.8256,2.9039,-0.2932,-0.2876,0.117,-0.0047,0.0569,0.0149,1343,2019-08-07 16:34:37:420
-7.6526,-4.8256,2.9039,-0.2117,-0.2469,0.0286,-0.0037,0.0473,0.0139,1348,2019-08-07 16:34:37:425
-7.6526,-4.8256,2.9039,-0.2117,-0.2469,0.0286,-0.0037,0.0473,0.0139,1353,2019-08-07 16:34:37:430
-7.6909,-4.7683,2.8567,-0.2117,-0.2469,0.0286,0.0016,0.0079,0.0181,1358,2019-08-07 16:34:37:435
-7.6909,-4.7683,2.8567,-0.2117,-0.2469,0.0286,0.0016,0.0079,0.0181,1362,2019-08-07 16:34:37:439
-7.5952,-4.8256,2.7342,-0.3196,-0.1911,0.1684,0.0016,-0.0134,0.0192,1368,2019-08-07 16:34:37:445
-7.5952,-4.8256,2.7342,-0.3196,-0.1911,0.1684,0.0016,-0.0134,0.0192,1373,2019-08-07 16:34:37:450
-7.5952,-4.8256,2.7342,-0.3196,-0.1911,0.1684,0.0016,-0.023,0.0277,1378,2019-08-07 16:34:37:455
-7.5569,-4.7683,2.8143,-0.3196,-0.1911,0.1684,0.0016,-0.023,0.0277,1383,2019-08-07 16:34:37:460
-7.5569,-4.7683,2.8143,-0.426,-0.2111,0.1862,0.0016,-0.0251,0.032,1388,2019-08-07 16:34:37:465
-7.5569,-4.7683,2.8143,-0.426,-0.2111,0.1862,0.0016,-0.0251,0.032,1393,2019-08-07 16:34:37:470
-7.4899,-4.7683,2.7106,-0.426,-0.2111,0.1862,0.0016,-0.0251,0.032,1398,2019-08-07 16:34:37:475
-7.4899,-4.7683,2.7106,-0.426,-0.2111,0.1862,6.0E-4,-0.007,0.0384,1403,2019-08-07 16:34:37:480
-7.5474,-4.7826,2.6446,-0.3718,-0.2245,0.2624,6.0E-4,-0.007,0.0384,1408,2019-08-07 16:34:37:485
-7.5474,-4.7826,2.6446,-0.3718,-0.2245,0.2624,-0.009,0.0111,0.0384,1413,2019-08-07 16:34:37:490
-7.5474,-4.7826,2.6446,-0.3718,-0.2245,0.2624,-0.009,0.0111,0.0384,1418,2019-08-07 16:34:37:495
-7.5569,-4.7683,2.7389,-0.3718,-0.2245,0.2624,-0.0133,0.0271,0.0352,1422,2019-08-07 16:34:37:499
-7.5569,-4.7683,2.7389,-0.3718,-0.2245,0.2624,-0.0133,0.0271,0.0352,1428,2019-08-07 16:34:37:505
-7.5809,-4.7731,2.6776,-0.3578,-0.2815,0.2478,-0.0165,0.0484,0.0331,1434,2019-08-07 16:34:37:511
-7.5809,-4.7731,2.6776,-0.3578,-0.2815,0.2478,-0.0165,0.0484,0.0331,1437,2019-08-07 16:34:37:514
-7.5809,-4.7731,2.6776,-0.3578,-0.2815,0.2478,-0.0165,0.0484,0.0331,1443,2019-08-07 16:34:37:520
-7.6766,-4.7396,2.819,-0.3578,-0.2815,0.2478,-0.0271,0.0676,0.0288,1447,2019-08-07 16:34:37:524
-7.6766,-4.7396,2.819,-0.2641,-0.2253,0.1321,-0.0271,0.0676,0.0288,1453,2019-08-07 16:34:37:530
-7.6766,-4.7396,2.819,-0.2641,-0.2253,0.1321,-0.0367,0.0569,0.0267,1458,2019-08-07 16:34:37:535
-7.6096,-4.8304,2.7672,-0.2641,-0.2253,0.1321,-0.0367,0.0569,0.0267,1463,2019-08-07 16:34:37:540
-7.6096,-4.8304,2.7672,-0.3127,-0.1182,0.1392,-0.0261,0.0409,0.0267,1468,2019-08-07 16:34:37:545
-7.6096,-4.8304,2.7672,-0.3127,-0.1182,0.1392,-0.0261,0.0409,0.0267,1473,2019-08-07 16:34:37:550
-7.5713,-4.9163,2.7106,-0.3127,-0.1182,0.1392,-0.0143,0.0303,0.0235,1478,2019-08-07 16:34:37:555
-7.5713,-4.9163,2.7106,-0.3127,-0.1182,0.1392,-0.0143,0.0303,0.0235,1482,2019-08-07 16:34:37:559
-7.5713,-4.9163,2.7106,-0.3835,-0.0967,0.0998,-0.0016,0.0175,0.0288,1488,2019-08-07 16:34:37:565
-7.5235,-4.8733,2.8049,-0.3835,-0.0967,0.0998,-0.0016,0.0175,0.0288,1493,2019-08-07 16:34:37:570
-7.5235,-4.8733,2.8049,-0.3835,-0.0967,0.0998,-0.0016,0.0175,0.0288,1498,2019-08-07 16:34:37:575
-7.5522,-4.8542,2.6823,-0.3835,-0.0967,0.0998,0.0166,0.0111,0.0363,1503,2019-08-07 16:34:37:580
-7.5522,-4.8542,2.6823,-0.3835,-0.0967,0.0998,0.0166,0.0111,0.0363,1508,2019-08-07 16:34:37:585
-7.5522,-4.8542,2.6823,-0.3346,-0.1865,0.17,0.0187,0.009,0.0341,1513,2019-08-07 16:34:37:590
-7.5905,-4.8208,2.7483,-0.3346,-0.1865,0.17,0.0187,0.009,0.0341,1518,2019-08-07 16:34:37:595
-7.5905,-4.8208,2.7483,-0.3346,-0.1865,0.17,0.024,0.009,0.032,1522,2019-08-07 16:34:37:599
-7.5857,-4.7922,2.6682,-0.3346,-0.1865,0.17,0.024,0.009,0.032,1528,2019-08-07 16:34:37:605
-7.5857,-4.7922,2.6682,-0.4102,-0.1897,0.2222,0.024,0.0164,0.0256,1533,2019-08-07 16:34:37:610
-7.5857,-4.7922,2.6682,-0.4102,-0.1897,0.2222,0.024,0.0164,0.0256,1538,2019-08-07 16:34:37:615
-7.5665,-4.7731,2.6446,-0.4102,-0.1897,0.2222,0.024,0.0164,0.0256,1542,2019-08-07 16:34:37:619
-7.5665,-4.7731,2.6446,-0.4102,-0.1897,0.2222,0.0176,0.0356,0.0171,1547,2019-08-07 16:34:37:624
-7.5713,-4.7874,2.7153,-0.366,-0.2002,0.134,0.0176,0.0356,0.0171,1553,2019-08-07 16:34:37:630
-7.5713,-4.7874,2.7153,-0.366,-0.2002,0.134,0.0027,0.0676,0.0043,1558,2019-08-07 16:34:37:635
-7.5713,-4.7874,2.7153,-0.366,-0.2002,0.134,0.0027,0.0676,0.0043,1563,2019-08-07 16:34:37:640
-7.6431,-4.7683,2.7389,-0.366,-0.2002,0.134,6.0E-4,0.0836,0.0022,1567,2019-08-07 16:34:37:644
-7.6431,-4.7683,2.7389,-0.2463,-0.1897,0.1367,6.0E-4,0.0836,0.0022,1573,2019-08-07 16:34:37:650
-7.6431,-4.7683,2.7389,-0.2463,-0.1897,0.1367,-0.009,0.0729,-0.001,1577,2019-08-07 16:34:37:654
-7.7723,-4.7826,2.7766,-0.1862,-0.1946,0.0741,-0.009,0.0729,-0.001,1583,2019-08-07 16:34:37:660
-7.7723,-4.7826,2.7766,-0.1862,-0.1946,0.0741,-0.009,0.0463,0.0022,1588,2019-08-07 16:34:37:665
-7.7723,-4.7826,2.7766,-0.1862,-0.1946,0.0741,-0.009,0.0463,0.0022,1592,2019-08-07 16:34:37:669
-7.7197,-4.7874,2.8897,-0.1862,-0.1946,0.0741,-0.0026,0.0132,0.0011,1598,2019-08-07 16:34:37:675
-7.7197,-4.7874,2.8897,-0.2982,-0.1754,0.0355,-0.0026,0.0132,0.0011,1603,2019-08-07 16:34:37:680
-7.667,-4.8065,2.7341,-0.2982,-0.1754,0.0355,0.0038,-0.0166,0.0064,1607,2019-08-07 16:34:37:684
-7.667,-4.8065,2.7341,-0.2982,-0.1754,0.0355,0.0038,-0.0166,0.0064,1613,2019-08-07 16:34:37:690
-7.6001,-4.7587,2.7011,-0.2982,-0.1754,0.0355,0.0038,-0.0208,0.0086,1618,2019-08-07 16:34:37:695
-7.6001,-4.7587,2.7011,-0.3649,-0.2031,0.1607,0.0038,-0.0208,0.0086,1623,2019-08-07 16:34:37:700
-7.6001,-4.7587,2.7011,-0.3649,-0.2031,0.1607,0.0102,-0.0123,0.0139,1628,2019-08-07 16:34:37:705
-7.557,-4.7874,2.654,-0.4034,-0.1876,0.1951,0.0102,-0.0123,0.0139,1632,2019-08-07 16:34:37:709
-7.557,-4.7874,2.654,-0.4034,-0.1876,0.1951,0.0112,0.0015,0.0139,1638,2019-08-07 16:34:37:715
-7.557,-4.7874,2.654,-0.4034,-0.1876,0.1951,0.0112,0.0015,0.0139,1643,2019-08-07 16:34:37:720
-7.5235,-4.7826,2.654,-0.4034,-0.1876,0.1951,0.0134,0.0228,0.0128,1647,2019-08-07 16:34:37:724
-7.5235,-4.7826,2.654,-0.4006,-0.1897,0.1566,0.0134,0.0228,0.0128,1653,2019-08-07 16:34:37:730
-7.6049,-4.754,2.7624,-0.4006,-0.1897,0.1566,0.0134,0.0228,0.0128,1658,2019-08-07 16:34:37:735
-7.6049,-4.754,2.7624,-0.4006,-0.1897,0.1566,0.0198,0.0569,0.0075,1663,2019-08-07 16:34:37:740
-7.6049,-4.754,2.7624,-0.4006,-0.1897,0.1566,0.0198,0.0569,0.0075,1668,2019-08-07 16:34:37:745
-7.7388,-4.7014,2.7954,-0.228,-0.2681,0.0452,0.0187,0.074,0.0064,1673,2019-08-07 16:34:37:750
-7.7388,-4.7014,2.7954,-0.228,-0.2681,0.0452,0.0187,0.074,0.0064,1678,2019-08-07 16:34:37:755
-7.7388,-4.7014,2.7954,-0.228,-0.2681,0.0452,0.0123,0.058,0.0086,1683,2019-08-07 16:34:37:760
-7.7532,-4.7635,2.7718,-0.228,-0.2681,0.0452,0.0123,0.058,0.0086,1688,2019-08-07 16:34:37:765
-7.7532,-4.7635,2.7718,-0.228,-0.2681,0.0452,0.0123,0.058,0.0086,1693,2019-08-07 16:34:37:770
-7.7388,-4.816,2.7954,-0.2086,-0.1744,0.014,0.0198,0.0346,0.0096,1698,2019-08-07 16:34:37:775
-7.7388,-4.816,2.7954,-0.2086,-0.1744,0.014,0.0198,0.0346,0.0096,1703,2019-08-07 16:34:37:780
-7.7388,-4.816,2.7954,-0.2086,-0.1744,0.014,0.0229,-0.007,0.0181,1707,2019-08-07 16:34:37:784
-7.6527,-4.7444,2.8426,-0.311,-0.2658,-0.0264,0.0229,-0.007,0.0181,1713,2019-08-07 16:34:37:790
-7.6527,-4.7444,2.8426,-0.311,-0.2658,-0.0264,0.0272,-0.0187,0.0213,1718,2019-08-07 16:34:37:795
-7.6527,-4.7444,2.8426,-0.311,-0.2658,-0.0264,0.0272,-0.0187,0.0213,1723,2019-08-07 16:34:37:800
-7.581,-4.6919,2.7388,-0.311,-0.2658,-0.0264,0.0251,-0.0262,0.0235,1728,2019-08-07 16:34:37:805
-7.581,-4.6919,2.7388,-0.4028,-0.2555,0.0703,0.0251,-0.0262,0.0235,1733,2019-08-07 16:34:37:810
-7.5331,-4.6346,2.7624,-0.4028,-0.2555,0.0703,0.0219,-0.0176,0.0256,1738,2019-08-07 16:34:37:815
-7.5331,-4.6346,2.7624,-0.4028,-0.2555,0.0703,0.0219,-0.0176,0.0256,1744,2019-08-07 16:34:37:821
-7.5331,-4.6346,2.7624,-0.4028,-0.2555,0.0703,0.0219,-0.0081,0.0267,1748,2019-08-07 16:34:37:825
-7.4949,-4.7396,2.6917,-0.4811,-0.2262,0.1925,0.0219,-0.0081,0.0267,1752,2019-08-07 16:34:37:829
-7.4949,-4.7396,2.6917,-0.4811,-0.2262,0.1925,0.0102,0.0324,0.0235,1758,2019-08-07 16:34:37:835
-7.5092,-4.7014,2.654,-0.4687,-0.248,0.1905,0.0102,0.0324,0.0235,1763,2019-08-07 16:34:37:840
-7.5092,-4.7014,2.654,-0.4687,-0.248,0.1905,0.0048,0.074,0.0213,1768,2019-08-07 16:34:37:845
-7.5092,-4.7014,2.654,-0.4687,-0.248,0.1905,0.0048,0.074,0.0213,1773,2019-08-07 16:34:37:850
-7.6958,-4.7778,2.7106,-0.4687,-0.248,0.1905,0.0048,0.074,0.0213,1777,2019-08-07 16:34:37:854
-7.6958,-4.7778,2.7106,-0.2554,-0.1678,0.0039,0.0102,0.0953,0.0235,1783,2019-08-07 16:34:37:860
-7.6958,-4.7778,2.7106,-0.2554,-0.1678,0.0039,0.0102,0.0953,0.0235,1788,2019-08-07 16:34:37:865
-7.8154,-4.7444,2.7954,-0.2554,-0.1678,0.0039,0.0102,0.0953,0.0235,1792,2019-08-07 16:34:37:869
-7.8154,-4.7444,2.7954,-0.2554,-0.1678,0.0039,0.008,0.0601,0.0288,1798,2019-08-07 16:34:37:875
-7.8154,-4.7444,2.7954,-0.0992,-0.1862,-0.0049,0.008,0.0601,0.0288,1803,2019-08-07 16:34:37:880
-7.8968,-4.7492,2.753,-0.0992,-0.1862,-0.0049,0.008,0.0026,0.0277,1808,2019-08-07 16:34:37:885
-7.8968,-4.7492,2.753,-0.0992,-0.1862,-0.0049,0.008,0.0026,0.0277,1812,2019-08-07 16:34:37:889
-7.8059,-4.7683,2.753,-0.1485,-0.1453,0.0289,0.0176,-0.0421,0.0299,1818,2019-08-07 16:34:37:895
-7.8059,-4.7683,2.753,-0.1485,-0.1453,0.0289,0.0176,-0.0421,0.0299,1823,2019-08-07 16:34:37:900
-7.8059,-4.7683,2.753,-0.1485,-0.1453,0.0289,0.0325,-0.0688,0.0309,1827,2019-08-07 16:34:37:904
-7.6719,-4.754,2.786,-0.1485,-0.1453,0.0289,0.0325,-0.0688,0.0309,1833,2019-08-07 16:34:37:910
-7.6719,-4.754,2.786,-0.3684,-0.1436,0.1819,0.0325,-0.0688,0.0309,1837,2019-08-07 16:34:37:914
-7.5045,-4.7826,2.6399,-0.3684,-0.1436,0.1819,0.0379,-0.0613,0.0426,1843,2019-08-07 16:34:37:920
-7.5045,-4.7826,2.6399,-0.3684,-0.1436,0.1819,0.0379,-0.0613,0.0426,1848,2019-08-07 16:34:37:925
-7.5045,-4.7826,2.6399,-0.3684,-0.1436,0.1819,0.0453,-0.0283,0.0458,1853,2019-08-07 16:34:37:930
-7.4614,-4.8447,2.6163,-0.5322,-0.078,0.2309,0.0453,-0.0283,0.0458,1857,2019-08-07 16:34:37:934
-7.4614,-4.8447,2.6163,-0.5322,-0.078,0.2309,0.0602,0.0218,0.0469,1863,2019-08-07 16:34:37:940
-7.5571,-4.9449,2.6681,-0.4387,0.0268,0.1806,0.0602,0.0218,0.0469,1867,2019-08-07 16:34:37:944
-7.5571,-4.9449,2.6681,-0.4387,0.0268,0.1806,0.0794,0.0686,0.049,1873,2019-08-07 16:34:37:950
-7.5571,-4.9449,2.6681,-0.4387,0.0268,0.1806,0.0794,0.0686,0.049,1878,2019-08-07 16:34:37:955
-7.7915,-4.9926,2.9604,-0.4387,0.0268,0.1806,0.0911,0.0814,0.0469,1883,2019-08-07 16:34:37:960
-7.7915,-4.9926,2.9604,-0.1734,0.1473,-0.1518,0.0911,0.0814,0.0469,1887,2019-08-07 16:34:37:964
-7.7915,-4.9926,2.9604,-0.1734,0.1473,-0.1518,0.0911,0.0814,0.0469,1893,2019-08-07 16:34:37:970
-7.9494,-5.155,3.1631,-0.1734,0.1473,-0.1518,0.1103,0.0708,0.048,1897,2019-08-07 16:34:37:974
-7.9494,-5.155,3.1631,-0.1734,0.1473,-0.1518,0.1103,0.0708,0.048,1903,2019-08-07 16:34:37:980
-8.0738,-5.3459,3.4789,0.0542,0.3988,-0.5258,0.1412,0.025,0.0522,1908,2019-08-07 16:34:37:985
-8.0738,-5.3459,3.4789,0.0542,0.3988,-0.5258,0.1412,0.025,0.0522,1912,2019-08-07 16:34:37:989
-8.0738,-5.3459,3.4789,0.0542,0.3988,-0.5258,0.1849,-0.0262,0.049,1918,2019-08-07 16:34:37:995
-8.203,-5.6514,3.9409,0.0542,0.3988,-0.5258,0.1849,-0.0262,0.049,1923,2019-08-07 16:34:38:000
-8.203,-5.6514,3.9409,0.2595,0.8928,-1.2531,0.2424,-0.0943,0.0501,1927,2019-08-07 16:34:38:004
-8.4326,-5.9283,4.3792,0.2595,0.8928,-1.2531,0.2424,-0.0943,0.0501,1932,2019-08-07 16:34:38:009
-8.4326,-5.9283,4.3792,0.2595,0.8928,-1.2531,0.302,-0.1721,0.0554,1938,2019-08-07 16:34:38:015
-8.4326,-5.9283,4.3792,0.2595,0.8928,-1.2531,0.302,-0.1721,0.0554,1943,2019-08-07 16:34:38:020
-8.9685,-6.2004,5.0863,1.0577,1.4323,-2.2586,0.3521,-0.2733,0.0757,1948,2019-08-07 16:34:38:025
-8.9685,-6.2004,5.0863,1.0577,1.4323,-2.2586,0.3521,-0.2733,0.0757,1953,2019-08-07 16:34:38:030
-9.5809,-7.0693,5.7604,1.0577,1.4323,-2.2586,0.4001,-0.4278,0.1066,1957,2019-08-07 16:34:38:034
-9.5809,-7.0693,5.7604,1.0577,1.4323,-2.2586,0.4001,-0.4278,0.1066,1963,2019-08-07 16:34:38:040
-9.5809,-7.0693,5.7604,1.8099,2.9233,-3.1808,0.4576,-0.5279,0.1129,1968,2019-08-07 16:34:38:045
-9.9349,-8.4202,6.7833,1.8099,2.9233,-3.1808,0.4576,-0.5279,0.1129,1973,2019-08-07 16:34:38:050
-9.9349,-8.4202,6.7833,1.8099,2.9233,-3.1808,0.5748,-0.6089,0.0789,1978,2019-08-07 16:34:38:055
-10.1598,-10.0529,8.2021,1.8099,2.9233,-3.1808,0.5748,-0.6089,0.0789,1982,2019-08-07 16:34:38:059
-10.1598,-10.0529,8.2021,2.3611,6.3134,-6.137,0.5748,-0.6089,0.0789,1988,2019-08-07 16:34:38:065
-10.1598,-10.0529,8.2021,2.3611,6.3134,-6.137,0.7878,-0.693,-0.0128,1993,2019-08-07 16:34:38:070
-10.9109,-12.7596,11.7752,2.3611,6.3134,-6.137,0.7878,-0.693,-0.0128,1998,2019-08-07 16:34:38:075
-10.9109,-12.7596,11.7752,2.3611,6.3134,-6.137,1.1148,-0.8603,-0.1587,2003,2019-08-07 16:34:38:080
-13.0973,-15.5523,16.1166,5.2368,10.8096,-12.659,1.1148,-0.8603,-0.1587,2007,2019-08-07 16:34:38:084
-13.0973,-15.5523,16.1166,5.2368,10.8096,-12.659,1.509,-1.1926,-0.3132,2013,2019-08-07 16:34:38:090
-13.0973,-15.5523,16.1166,5.2368,10.8096,-12.659,1.509,-1.1926,-0.3132,2017,2019-08-07 16:34:38:094
-15.7717,-17.6576,19.9584,5.2368,10.8096,-12.659,1.9713,-1.9958,-0.5337,2023,2019-08-07 16:34:38:100
-15.7717,-17.6576,19.9584,9.7527,13.4588,-17.6632,1.9713,-1.9958,-0.5337,2028,2019-08-07 16:34:38:105
-18.3647,-18.4118,22.1786,9.7527,13.4588,-17.6632,2.3569,-2.8651,-0.6508,2033,2019-08-07 16:34:38:110
-18.3647,-18.4118,22.1786,9.7527,13.4588,-17.6632,2.3569,-2.8651,-0.6508,2038,2019-08-07 16:34:38:115
-18.3647,-18.4118,22.1786,9.7527,13.4588,-17.6632,2.3569,-2.8651,-0.6508,2042,2019-08-07 16:34:38:119
-19.757,-17.6767,22.9045,13.3003,11.9709,-18.0473,2.798,-3.9378,-0.8469,2048,2019-08-07 16:34:38:125
-19.757,-17.6767,22.9045,13.3003,11.9709,-18.0473,2.798,-3.9378,-0.8469,2053,2019-08-07 16:34:38:130
-22.9146,-13.6953,22.6122,13.3003,11.9709,-18.0473,3.0568,-4.8859,-1.0663,2057,2019-08-07 16:34:38:134
-22.9146,-13.6953,22.6122,13.3003,11.9709,-18.0473,3.0568,-4.8859,-1.0663,2063,2019-08-07 16:34:38:140
-22.9146,-13.6953,22.6122,18.5927,6.7706,-16.7362,3.0771,-5.7754,-1.1718,2068,2019-08-07 16:34:38:145
-25.8377,-10.6305,22.4708,18.5927,6.7706,-16.7362,3.0771,-5.7754,-1.1718,2073,2019-08-07 16:34:38:150
-25.8377,-10.6305,22.4708,18.5927,6.7706,-16.7362,2.9684,-6.8236,-1.2794,2078,2019-08-07 16:34:38:155
-27.5601,-8.3916,20.9954,18.5927,6.7706,-16.7362,2.9684,-6.8236,-1.2794,2083,2019-08-07 16:34:38:160
-27.5601,-8.3916,20.9954,22.1045,3.3308,-13.6721,2.7372,-7.7845,-1.4381,2088,2019-08-07 16:34:38:165
-27.5601,-8.3916,20.9954,22.1045,3.3308,-13.6721,2.7372,-7.7845,-1.4381,2093,2019-08-07 16:34:38:170
-28.1772,-6.9785,19.6095,23.1115,2.3698,-11.4232,2.3591,-8.674,-1.6522,2098,2019-08-07 16:34:38:175
-28.1772,-6.9785,19.6095,23.1115,2.3698,-11.4232,2.3591,-8.674,-1.6522,2103,2019-08-07 16:34:38:180
-27.7754,-5.6514,16.7341,23.1115,2.3698,-11.4232,2.3591,-8.674,-1.6522,2107,2019-08-07 16:34:38:184
-27.7754,-5.6514,16.7341,23.1115,2.3698,-11.4232,1.8105,-9.6071,-1.9419,2113,2019-08-07 16:34:38:190
-27.7754,-5.6514,16.7341,22.7944,0.7255,-5.936,1.8105,-9.6071,-1.9419,2117,2019-08-07 16:34:38:194
-25.8521,-4.3577,13.4816,22.7944,0.7255,-5.936,1.3822,-10.1888,-2.1113,2123,2019-08-07 16:34:38:200
-25.8521,-4.3577,13.4816,22.7944,0.7255,-5.936,1.3822,-10.1888,-2.1113,2128,2019-08-07 16:34:38:205
-22.2783,-3.0783,9.0129,22.7944,0.7255,-5.936,0.9742,-10.5371,-2.1582,2132,2019-08-07 16:34:38:209
-22.2783,-3.0783,9.0129,19.0616,-1.3979,1.598,0.9742,-10.5371,-2.1582,2138,2019-08-07 16:34:38:215
-22.2783,-3.0783,9.0129,19.0616,-1.3979,1.598,0.6142,-10.519,-2.0815,2142,2019-08-07 16:34:38:219
-19.2786,-1.8133,5.4964,19.0616,-1.3979,1.598,0.6142,-10.519,-2.0815,2148,2019-08-07 16:34:38:225
-19.2786,-1.8133,5.4964,19.0616,-1.3979,1.598,0.2605,-10.1142,-1.9111,2153,2019-08-07 16:34:38:230
-19.2786,-1.8133,5.4964,19.0616,-1.3979,1.598,0.2605,-10.1142,-1.9111,2157,2019-08-07 16:34:38:234
-15.3699,-0.6532,1.9422,15.6681,-3.1355,7.1017,0.0656,-9.7936,-1.7534,2163,2019-08-07 16:34:38:240
-15.3699,-0.6532,1.9422,15.6681,-3.1355,7.1017,0.0656,-9.7936,-1.7534,2168,2019-08-07 16:34:38:245
-12.4036,0.3684,-0.5373,15.6681,-3.1355,7.1017,-0.0463,-8.8252,-1.388,2173,2019-08-07 16:34:38:250
-12.4036,0.3684,-0.5373,15.6681,-3.1355,7.1017,-0.0463,-8.8252,-1.388,2178,2019-08-07 16:34:38:255
-12.4036,0.3684,-0.5373,14.1693,-4.6242,10.1153,-5.0E-4,-8.0678,-1.1707,2183,2019-08-07 16:34:38:260
-12.6333,1.9246,-1.9467,14.1693,-4.6242,10.1153,-5.0E-4,-8.0678,-1.1707,2188,2019-08-07 16:34:38:265
-12.6333,1.9246,-1.9467,14.1693,-4.6242,10.1153,-5.0E-4,-8.0678,-1.1707,2194,2019-08-07 16:34:38:271
-12.6333,1.9246,-1.9467,17.0494,-6.9161,10.7172,0.0485,-7.4809,-0.9086,2198,2019-08-07 16:34:38:275
-13.638,3.2183,-2.2955,17.0494,-6.9161,10.7172,0.0485,-7.4809,-0.9086,2203,2019-08-07 16:34:38:280
-13.638,3.2183,-2.2955,17.0494,-6.9161,10.7172,0.0379,-7.2859,-0.6274,2207,2019-08-07 16:34:38:284
-13.5088,1.9962,-5.105,17.0494,-6.9161,10.7172,0.0379,-7.2859,-0.6274,2213,2019-08-07 16:34:38:290
-13.5088,1.9962,-5.105,17.3085,-5.0421,15.1891,-0.0026,-7.254,-0.4602,2217,2019-08-07 16:34:38:294
-13.5088,1.9962,-5.105,17.3085,-5.0421,15.1891,-0.0026,-7.254,-0.4602,2223,2019-08-07 16:34:38:300
-11.8101,1.4186,-8.9184,17.3085,-5.0421,15.1891,-0.0335,-7.1581,-0.3238,2227,2019-08-07 16:34:38:304
-11.8101,1.4186,-8.9184,15.7047,-5.2991,17.687,-0.0335,-7.1581,-0.3238,2233,2019-08-07 16:34:38:310
-8.3511,1.9628,-12.1096,15.7047,-5.2991,17.687,-0.0878,-6.9887,-0.0138,2238,2019-08-07 16:34:38:315
-8.3511,1.9628,-12.1096,15.7047,-5.2991,17.687,-0.0878,-6.9887,-0.0138,2243,2019-08-07 16:34:38:320
-8.3511,1.9628,-12.1096,15.7047,-5.2991,17.687,-0.0878,-6.9887,-0.0138,2247,2019-08-07 16:34:38:324
-4.9542,2.5022,-12.0248,10.669,-6.2732,18.8009,-0.14,-7.2018,0.3015,2253,2019-08-07 16:34:38:330
-4.9542,2.5022,-12.0248,10.669,-6.2732,18.8009,-0.14,-7.2018,0.3015,2257,2019-08-07 16:34:38:334
-4.9542,2.5022,-12.0248,10.669,-6.2732,18.8009,-0.1912,-7.8335,0.7542,2263,2019-08-07 16:34:38:340
-2.0263,2.9176,-13.4672,10.669,-6.2732,18.8009,-0.1912,-7.8335,0.7542,2268,2019-08-07 16:34:38:345
-2.0263,2.9176,-13.4672,7.4263,-6.7782,19.9768,-0.1464,-7.3818,0.9598,2272,2019-08-07 16:34:38:349
0.8921,2.8603,-14.2827,7.4263,-6.7782,19.9768,-0.1464,-7.3818,0.9598,2278,2019-08-07 16:34:38:355
0.8921,2.8603,-14.2827,7.4263,-6.7782,19.9768,-0.009,-3.9399,0.7415,2283,2019-08-07 16:34:38:360
0.8921,2.8603,-14.2827,7.4263,-6.7782,19.9768,-0.009,-3.9399,0.7415,2287,2019-08-07 16:34:38:364
5.4993,3.013,-14.8483,2.159,-6.9471,19.5503,-0.009,-3.9399,0.7415,2293,2019-08-07 16:34:38:370
5.4993,3.013,-14.8483,2.159,-6.9471,19.5503,-0.1784,-2.2323,0.408,2298,2019-08-07 16:34:38:375
3.9636,3.4665,-8.9561,2.159,-6.9471,19.5503,-0.1784,-2.2323,0.408,2303,2019-08-07 16:34:38:380
3.9636,3.4665,-8.9561,2.159,-6.9471,19.5503,-0.6226,-0.4001,0.1172,2308,2019-08-07 16:34:38:385
3.9636,3.4665,-8.9561,5.7907,-7.0215,11.9029,-0.6226,-0.4001,0.1172,2313,2019-08-07 16:34:38:390
0.6433,2.6502,-7.8436,5.7907,-7.0215,11.9029,-0.9134,-0.5481,-0.0351,2317,2019-08-07 16:34:38:394
0.6433,2.6502,-7.8436,5.7907,-7.0215,11.9029,-0.9134,-0.5481,-0.0351,2323,2019-08-07 16:34:38:400
0.6433,2.6502,-7.8436,5.7907,-7.0215,11.9029,-0.9677,-0.6376,-0.1374,2328,2019-08-07 16:34:38:405
0.0118,0.7789,-5.8261,7.2965,-4.473,9.8901,-0.9677,-0.6376,-0.1374,2332,2019-08-07 16:34:38:409
0.0118,0.7789,-5.8261,7.2965,-4.473,9.8901,-0.8335,-1.329,-0.2503,2338,2019-08-07 16:34:38:415
0.0118,0.7789,-5.8261,7.2965,-4.473,9.8901,-0.8335,-1.329,-0.2503,2343,2019-08-07 16:34:38:420
3.112,-0.9111,-8.447,7.2965,-4.473,9.8901,-0.7781,-1.884,-0.2535,2348,2019-08-07 16:34:38:425
3.112,-0.9111,-8.447,1.9489,-2.2004,11.808,-0.7781,-1.884,-0.2535,2352,2019-08-07 16:34:38:429
3.112,-0.9111,-8.447,1.9489,-2.2004,11.808,-0.7781,-1.884,-0.2535,2358,2019-08-07 16:34:38:435
7.3126,-2.5198,-8.8147,0.8014,-1.6554,13.2006,-0.8207,-2.4667,-0.212,2364,2019-08-07 16:34:38:441
7.3126,-2.5198,-8.8147,0.8014,-1.6554,13.2006,-0.8207,-2.4667,-0.212,2368,2019-08-07 16:34:38:445
9.9774,-3.1786,-12.8073,0.8014,-1.6554,13.2006,-0.7451,-1.7583,-0.0884,2373,2019-08-07 16:34:38:450
9.9774,-3.1786,-12.8073,0.8014,-1.6554,13.2006,-0.7451,-1.7583,-0.0884,2377,2019-08-07 16:34:38:454
9.9774,-3.1786,-12.8073,-1.7754,-0.9199,17.1536,-0.6098,-0.6057,-0.0202,2383,2019-08-07 16:34:38:460
10.1592,-3.3027,-14.1837,-1.7754,-0.9199,17.1536,-0.6098,-0.6057,-0.0202,2388,2019-08-07 16:34:38:465
10.1592,-3.3027,-14.1837,-1.7754,-0.9199,17.1536,-0.6098,-0.6057,-0.0202,2393,2019-08-07 16:34:38:470
9.7142,-3.3266,-13.0335,-1.7754,-0.9199,17.1536,-0.2498,1.6378,0.1034,2398,2019-08-07 16:34:38:475
9.7142,-3.3266,-13.0335,-0.8749,-1.0011,14.8608,-0.2498,1.6378,0.1034,2402,2019-08-07 16:34:38:479
9.7142,-3.3266,-13.0335,-0.8749,-1.0011,14.8608,0.2008,3.6543,0.2269,2408,2019-08-07 16:34:38:485
8.1833,-2.8015,-9.286,-0.8749,-1.0011,14.8608,0.2008,3.6543,0.2269,2412,2019-08-07 16:34:38:489
8.1833,-2.8015,-9.286,-0.8749,-1.0011,14.8608,0.4725,4.5566,0.2919,2418,2019-08-07 16:34:38:495
8.1833,-2.8015,-9.286,1.4166,-1.6272,7.8371,0.4725,4.5566,0.2919,2423,2019-08-07 16:34:38:500
5.9203,-2.0138,-3.62,1.4166,-1.6272,7.8371,0.3713,4.4277,0.2759,2428,2019-08-07 16:34:38:505
5.9203,-2.0138,-3.62,1.4166,-1.6272,7.8371,0.3713,4.4277,0.2759,2432,2019-08-07 16:34:38:509
0.2989,-0.1425,-8.5978,1.4166,-1.6272,7.8371,0.0155,3.8738,0.3143,2438,2019-08-07 16:34:38:515
0.2989,-0.1425,-8.5978,1.4166,-1.6272,7.8371,0.0155,3.8738,0.3143,2442,2019-08-07 16:34:38:519
0.2989,-0.1425,-8.5978,8.2584,-4.5373,13.5299,0.0155,3.8738,0.3143,2448,2019-08-07 16:34:38:525
-0.8733,0.206,-7.8483,8.2584,-4.5373,13.5299,-0.1581,4.8698,0.4624,2453,2019-08-07 16:34:38:530
-0.8733,0.206,-7.8483,8.2584,-4.5373,13.5299,-0.1581,4.8698,0.4624,2458,2019-08-07 16:34:38:535
-2.2464,0.2108,-3.884,9.4168,-4.5726,8.9629,-0.2455,4.4618,0.4943,2462,2019-08-07 16:34:38:539
-2.2464,0.2108,-3.884,9.4168,-4.5726,8.9629,-0.2455,4.4618,0.4943,2468,2019-08-07 16:34:38:545
-2.2464,0.2108,-3.884,9.4168,-4.5726,8.9629,-0.1805,5.0221,0.4986,2473,2019-08-07 16:34:38:550
-2.1124,-0.1043,-3.2995,9.4168,-4.5726,8.9629,-0.1805,5.0221,0.4986,2477,2019-08-07 16:34:38:554
-2.1124,-0.1043,-3.2995,9.057,-4.3755,9.4074,-0.2508,5.2309,0.4464,2483,2019-08-07 16:34:38:560
-2.1124,-0.1043,-3.2995,9.057,-4.3755,9.4074,-0.2508,5.2309,0.4464,2488,2019-08-07 16:34:38:565
-3.2032,-0.0422,-3.1392,9.057,-4.3755,9.4074,-0.5065,5.95,0.4251,2493,2019-08-07 16:34:38:570
-3.2032,-0.0422,-3.1392,9.057,-4.3755,9.4074,-0.5065,5.95,0.4251,2498,2019-08-07 16:34:38:575
-4.5859,-0.6342,-1.5271,10.3964,-3.9999,7.9301,-0.5065,5.95,0.4251,2503,2019-08-07 16:34:38:580
-4.5859,-0.6342,-1.5271,10.3964,-3.9999,7.9301,-0.661,6.702,0.5806,2507,2019-08-07 16:34:38:584
-4.5859,-0.6342,-1.5271,10.3964,-3.9999,7.9301,-0.661,6.702,0.5806,2513,2019-08-07 16:34:38:590
-5.4135,-1.5126,-0.1083,10.7164,-3.2197,6.87,-0.7036,7.24,0.7212,2518,2019-08-07 16:34:38:595
-5.4135,-1.5126,-0.1083,10.7164,-3.2197,6.87,-0.7036,7.24,0.7212,2522,2019-08-07 16:34:38:599
-6.9158,-2.496,2.8379,10.7164,-3.2197,6.87,-0.7781,7.5361,0.8672,2528,2019-08-07 16:34:38:605
-6.9158,-2.496,2.8379,10.7164,-3.2197,6.87,-0.7781,7.5361,0.8672,2533,2019-08-07 16:34:38:610
-8.4085,-2.8779,5.6756,11.9374,-2.1017,2.9018,-0.9464,7.5798,1.0461,2538,2019-08-07 16:34:38:615
-8.4085,-2.8779,5.6756,11.9374,-2.1017,2.9018,-0.9464,7.5798,1.0461,2543,2019-08-07 16:34:38:620
-8.4085,-2.8779,5.6756,11.9374,-2.1017,2.9018,-0.9464,7.5798,1.0461,2548,2019-08-07 16:34:38:625
-9.5471,-2.9065,7.6742,11.9374,-2.1017,2.9018,-1.1435,7.2581,1.1484,2552,2019-08-07 16:34:38:629
-9.5471,-2.9065,7.6742,12.4686,-2.197,-0.0785,-1.1435,7.2581,1.1484,2558,2019-08-07 16:34:38:635
-9.5471,-2.9065,7.6742,12.4686,-2.197,-0.0785,-1.3725,6.8874,1.1921,2563,2019-08-07 16:34:38:640
-10.0303,-3.1357,8.4944,12.1082,-2.1805,-0.5159,-1.3725,6.8874,1.1921,2568,2019-08-07 16:34:38:645
-10.0303,-3.1357,8.4944,12.1082,-2.1805,-0.5159,-1.6314,6.5849,1.2453,2572,2019-08-07 16:34:38:649
-10.0303,-3.1357,8.4944,12.1082,-2.1805,-0.5159,-1.6314,6.5849,1.2453,2578,2019-08-07 16:34:38:655
-8.2123,-5.408,9.5362,12.1082,-2.1805,-0.5159,-1.7688,6.5348,1.2421,2582,2019-08-07 16:34:38:659
-8.2123,-5.408,9.5362,8.2893,1.2277,-2.1991,-1.7688,6.5348,1.2421,2588,2019-08-07 16:34:38:665
-8.2123,-5.408,9.5362,8.2893,1.2277,-2.1991,-1.7688,6.5348,1.2421,2593,2019-08-07 16:34:38:670
-7.2268,-8.8499,11.1295,7.4824,3.5874,-3.5091,-1.658,6.8405,1.1228,2598,2019-08-07 16:34:38:675
-7.2268,-8.8499,11.1295,7.4824,3.5874,-3.5091,-1.658,6.8405,1.1228,2602,2019-08-07 16:34:38:679
-9.0017,-10.6496,13.378,7.4824,3.5874,-3.5091,-1.2969,7.2144,0.9726,2608,2019-08-07 16:34:38:685
-9.0017,-10.6496,13.378,7.4824,3.5874,-3.5091,-1.2969,7.2144,0.9726,2613,2019-08-07 16:34:38:690
-9.0017,-10.6496,13.378,9.7817,4.3449,-7.383,-1.0956,6.7787,0.914,2618,2019-08-07 16:34:38:695
-12.2024,-9.8524,15.8763,9.7817,4.3449,-7.383,-1.0956,6.7787,0.914,2622,2019-08-07 16:34:38:699
-12.2024,-9.8524,15.8763,9.7817,4.3449,-7.383,-1.053,5.7167,0.9226,2628,2019-08-07 16:34:38:705
-13.8577,-8.8642,16.7578,9.7817,4.3449,-7.383,-1.053,5.7167,0.9226,2633,2019-08-07 16:34:38:710
-13.8577,-8.8642,16.7578,12.1093,2.2748,-9.1684,-1.053,5.7167,0.9226,2638,2019-08-07 16:34:38:715
-14.1017,-7.7901,16.1214,12.1093,2.2748,-9.1684,-1.3438,3.8706,1.0898,2643,2019-08-07 16:34:38:720
-14.1017,-7.7901,16.1214,11.1105,1.6444,-8.7703,-1.3438,3.8706,1.0898,2648,2019-08-07 16:34:38:725
-14.1017,-7.7901,16.1214,11.1105,1.6444,-8.7703,-1.5835,2.9012,1.3231,2653,2019-08-07 16:34:38:730
-9.2122,-9.0695,13.1423,11.1105,1.6444,-8.7703,-1.5835,2.9012,1.3231,2657,2019-08-07 16:34:38:734
-9.2122,-9.0695,13.1423,11.1105,1.6444,-8.7703,-1.8892,2.163,1.6661,2663,2019-08-07 16:34:38:740
-9.2122,-9.0695,13.1423,3.1123,4.1589,-5.1912,-1.8892,2.163,1.6661,2667,2019-08-07 16:34:38:744
-4.782,-11.466,11.5301,3.1123,4.1589,-5.1912,-1.9872,2.4825,1.7556,2673,2019-08-07 16:34:38:750
-4.782,-11.466,11.5301,0.43,5.9322,-4.0421,-1.9872,2.4825,1.7556,2678,2019-08-07 16:34:38:755
-3.1841,-12.9363,9.5409,0.43,5.9322,-4.0421,-1.8945,3.5861,1.762,2682,2019-08-07 16:34:38:759
-3.1841,-12.9363,9.5409,0.43,5.9322,-4.0421,-1.8945,3.5861,1.762,2688,2019-08-07 16:34:38:765
-3.1841,-12.9363,9.5409,0.43,5.9322,-4.0421,-1.7603,5.5665,1.6043,2693,2019-08-07 16:34:38:770
-3.2367,-13.4328,7.5234,-0.9173,6.9198,-1.4768,-1.7603,5.5665,1.6043,2697,2019-08-07 16:34:38:774
-3.2367,-13.4328,7.5234,-0.9173,6.9198,-1.4768,-1.7603,5.5665,1.6043,2703,2019-08-07 16:34:38:780
-3.2367,-13.4328,7.5234,-0.9173,6.9198,-1.4768,-1.4343,7.2411,1.2847,2708,2019-08-07 16:34:38:785
-7.4133,-12.7072,8.0513,-0.9173,6.9198,-1.4768,-1.4343,7.2411,1.2847,2713,2019-08-07 16:34:38:790
-7.4133,-12.7072,8.0513,5.7767,5.3997,-3.9213,-1.1915,7.648,1.0504,2718,2019-08-07 16:34:38:795
-12.1545,-11.6331,9.8473,5.7767,5.3997,-3.9213,-1.1915,7.648,1.0504,2723,2019-08-07 16:34:38:800
-12.1545,-11.6331,9.8473,5.7767,5.3997,-3.9213,-1.0476,6.9076,0.9034,2728,2019-08-07 16:34:38:805
-12.1545,-11.6331,9.8473,5.7767,5.3997,-3.9213,-1.0476,6.9076,0.9034,2732,2019-08-07 16:34:38:809
-18.508,-9.2652,14.4386,12.5919,2.7125,-10.161,-1.0231,5.0711,0.8331,2738,2019-08-07 16:34:38:815
-18.508,-9.2652,14.4386,12.5919,2.7125,-10.161,-1.0231,5.0711,0.8331,2743,2019-08-07 16:34:38:820
-18.508,-9.2652,14.4386,12.5919,2.7125,-10.161,-1.0231,5.0711,0.8331,2748,2019-08-07 16:34:38:825
-18.3166,-8.4155,14.3396,12.1656,1.88,-10.3788,-1.1105,2.5965,0.8032,2753,2019-08-07 16:34:38:830
-18.3166,-8.4155,14.3396,12.1656,1.88,-10.3788,-1.1105,2.5965,0.8032,2757,2019-08-07 16:34:38:834
-12.7621,-9.1793,11.2143,12.1656,1.88,-10.3788,-1.201,-0.0571,0.8203,2763,2019-08-07 16:34:38:840
-12.7621,-9.1793,11.2143,3.821,3.3071,-6.4209,-1.201,-0.0571,0.8203,2768,2019-08-07 16:34:38:845
-12.7621,-9.1793,11.2143,3.821,3.3071,-6.4209,-1.0029,-1.1106,0.767,2773,2019-08-07 16:34:38:850
-6.9062,-10.6401,8.5463,3.821,3.3071,-6.4209,-1.0029,-1.1106,0.767,2778,2019-08-07 16:34:38:855
-6.9062,-10.6401,8.5463,3.821,3.3071,-6.4209,-0.7398,-0.9604,0.6754,2782,2019-08-07 16:34:38:859
-6.9062,-10.6401,8.5463,-2.9604,4.7414,-2.262,-0.7398,-0.9604,0.6754,2788,2019-08-07 16:34:38:865
-2.8635,-11.2893,5.6379,-2.9604,4.7414,-2.262,-0.7398,-0.9604,0.6754,2792,2019-08-07 16:34:38:869
-2.8635,-11.2893,5.6379,-2.9604,4.7414,-2.262,-0.4639,-0.1231,0.6168,2798,2019-08-07 16:34:38:875
-1.921,-11.2846,4.7658,-2.9604,4.7414,-2.262,-0.4639,-0.1231,0.6168,2803,2019-08-07 16:34:38:880
-1.921,-11.2846,4.7658,-4.0287,4.6644,-1.107,-0.0431,1.4258,0.5071,2807,2019-08-07 16:34:38:884
-1.921,-11.2846,4.7658,-4.0287,4.6644,-1.107,-0.0431,1.4258,0.5071,2813,2019-08-07 16:34:38:890
-3.5955,-10.6305,5.2608,-4.0287,4.6644,-1.107,0.3212,2.5081,0.4091,2817,2019-08-07 16:34:38:894
-3.5955,-10.6305,5.2608,-4.0287,4.6644,-1.107,0.3212,2.5081,0.4091,2823,2019-08-07 16:34:38:900
-6.2029,-9.5899,5.9443,0.3759,2.9162,-2.8104,0.5662,3.0461,0.3271,2827,2019-08-07 16:34:38:904
-6.2029,-9.5899,5.9443,0.3759,2.9162,-2.8104,0.5662,3.0461,0.3271,2833,2019-08-07 16:34:38:910
-6.2029,-9.5899,5.9443,0.3759,2.9162,-2.8104,0.6983,2.8469,0.2621,2838,2019-08-07 16:34:38:915
-10.3365,-7.7424,7.8345,0.3759,2.9162,-2.8104,0.6983,2.8469,0.2621,2843,2019-08-07 16:34:38:920
-10.3365,-7.7424,7.8345,0.3759,2.9162,-2.8104,0.6983,2.8469,0.2621,2847,2019-08-07 16:34:38:924
-12.5468,-6.4869,8.5039,5.1509,0.6422,-5.2685,0.6781,1.9648,0.2717,2853,2019-08-07 16:34:38:930
-12.5468,-6.4869,8.5039,5.1509,0.6422,-5.2685,0.6781,1.9648,0.2717,2858,2019-08-07 16:34:38:935
-12.5468,-6.4869,8.5039,5.1509,0.6422,-5.2685,0.546,0.7355,0.3122,2862,2019-08-07 16:34:38:939
-12.3889,-5.9808,8.0513,4.8047,-0.2996,-4.4756,0.546,0.7355,0.3122,2868,2019-08-07 16:34:38:945
-12.3889,-5.9808,8.0513,4.8047,-0.2996,-4.4756,0.2861,-0.7516,0.3207,2873,2019-08-07 16:34:38:950
-10.2982,-6.1288,6.5382,4.8047,-0.2996,-4.4756,0.2861,-0.7516,0.3207,2878,2019-08-07 16:34:38:955
-10.2982,-6.1288,6.5382,4.8047,-0.2996,-4.4756,0.106,-1.4621,0.277,2882,2019-08-07 16:34:38:959
-10.2982,-6.1288,6.5382,0.5401,0.7017,-1.6469,0.106,-1.4621,0.277,2888,2019-08-07 16:34:38:965
-6.9684,-6.9261,4.6715,0.5401,0.7017,-1.6469,-0.041,-1.6166,0.1375,2893,2019-08-07 16:34:38:970
-6.9684,-6.9261,4.6715,0.5401,0.7017,-1.6469,-0.041,-1.6166,0.1375,2897,2019-08-07 16:34:38:974
-6.9684,-6.9261,4.6715,0.5401,0.7017,-1.6469,-0.041,-1.6166,0.1375,2903,2019-08-07 16:34:38:980
-5.1265,-7.055,3.3988,0.5401,0.7017,-1.6469,-0.0889,-1.2715,0.0224,2907,2019-08-07 16:34:38:984
-5.1265,-7.055,3.3988,-2.1086,0.7939,0.496,-0.0889,-1.2715,0.0224,2913,2019-08-07 16:34:38:990
-4.294,-6.8067,2.6917,-2.1086,0.7939,0.496,-0.1198,-0.6472,-0.0767,2917,2019-08-07 16:34:38:994
-4.294,-6.8067,2.6917,-2.1086,0.7939,0.496,-0.1198,-0.6472,-0.0767,2923,2019-08-07 16:34:39:000
-4.6433,-6.6253,2.7247,-2.1086,0.7939,0.496,-0.155,0.0505,-0.147,2928,2019-08-07 16:34:39:005
-4.6433,-6.6253,2.7247,-1.8897,0.3316,0.7558,-0.155,0.0505,-0.147,2933,2019-08-07 16:34:39:010
-4.6433,-6.6253,2.7247,-1.8897,0.3316,0.7558,-0.1592,0.6194,-0.1896,2937,2019-08-07 16:34:39:014
-6.2316,-6.2386,3.4224,-1.8897,0.3316,0.7558,-0.1592,0.6194,-0.1896,2943,2019-08-07 16:34:39:020
-6.2316,-6.2386,3.4224,-1.8897,0.3316,0.7558,-0.1507,0.8846,-0.2205,2947,2019-08-07 16:34:39:024
-6.2316,-6.2386,3.4224,0.4579,-0.2303,-0.4344,-0.1507,0.8846,-0.2205,2953,2019-08-07 16:34:39:030
-8.0257,-5.7994,4.1389,0.4579,-0.2303,-0.4344,-0.1411,0.7387,-0.2088,2958,2019-08-07 16:34:39:035
-8.0257,-5.7994,4.1389,0.4579,-0.2303,-0.4344,-0.1411,0.7387,-0.2088,2962,2019-08-07 16:34:39:039
-8.0257,-5.7994,4.1389,0.4579,-0.2303,-0.4344,-0.1507,0.336,-0.1896,2968,2019-08-07 16:34:39:045
-8.6812,-5.3603,4.6386,1.8881,-0.9089,-1.3541,-0.1507,0.336,-0.1896,2973,2019-08-07 16:34:39:050
-8.6812,-5.3603,4.6386,1.8881,-0.9089,-1.3541,-0.1571,-0.0752,-0.163,2978,2019-08-07 16:34:39:055
-8.3893,-5.1884,4.2426,1.8881,-0.9089,-1.3541,-0.1571,-0.0752,-0.163,2983,2019-08-07 16:34:39:060
-8.3893,-5.1884,4.2426,1.8881,-0.9089,-1.3541,-0.1848,-0.6973,-0.0873,2988,2019-08-07 16:34:39:065
-8.3893,-5.1884,4.2426,0.9207,-1.0424,-0.5081,-0.1848,-0.6973,-0.0873,2992,2019-08-07 16:34:39:069
-7.1837,-5.3268,3.4082,0.9207,-1.0424,-0.5081,-0.1901,-0.9679,-0.0479,2998,2019-08-07 16:34:39:075
-7.1837,-5.3268,3.4082,0.9207,-1.0424,-0.5081,-0.1901,-0.9679,-0.0479,3003,2019-08-07 16:34:39:080
-7.1837,-5.3268,3.4082,0.9207,-1.0424,-0.5081,-0.1901,-0.9679,-0.0479,3008,2019-08-07 16:34:39:085
-6.1407,-5.5655,2.8614,-0.7252,-0.6615,0.6342,-0.1592,-0.9838,-0.0351,3013,2019-08-07 16:34:39:090
-6.1407,-5.5655,2.8614,-0.7252,-0.6615,0.6342,-0.1592,-0.9838,-0.0351,3018,2019-08-07 16:34:39:095
-5.337,-5.6037,2.3571,-0.7252,-0.6615,0.6342,-0.1358,-0.8933,-0.0266,3023,2019-08-07 16:34:39:100
-5.337,-5.6037,2.3571,-0.7252,-0.6615,0.6342,-0.1358,-0.8933,-0.0266,3028,2019-08-07 16:34:39:105
-5.337,-5.6037,2.3571,-1.5171,-0.6722,1.2633,-0.0751,-0.4097,-0.017,3032,2019-08-07 16:34:39:109
-5.1552,-5.5273,2.1874,-1.5171,-0.6722,1.2633,-0.0751,-0.4097,-0.017,3038,2019-08-07 16:34:39:115
-5.1552,-5.5273,2.1874,-1.5171,-0.6722,1.2633,-0.0474,-0.0826,-0.0032,3043,2019-08-07 16:34:39:120
-5.4949,-5.4557,2.3995,-1.5171,-0.6722,1.2633,-0.0474,-0.0826,-0.0032,3048,2019-08-07 16:34:39:125
-5.4949,-5.4557,2.3995,-0.9891,-0.9054,1.108,-0.0474,-0.0826,-0.0032,3053,2019-08-07 16:34:39:130
-5.4949,-5.4557,2.3995,-0.9891,-0.9054,1.108,-0.0175,0.2391,0.0203,3058,2019-08-07 16:34:39:135
-6.1168,-5.3984,2.8473,-0.9891,-0.9054,1.108,-0.0175,0.2391,0.0203,3062,2019-08-07 16:34:39:139
-6.1168,-5.3984,2.8473,-0.9891,-0.9054,1.108,-0.0101,0.319,0.0384,3068,2019-08-07 16:34:39:145
-7.1359,-5.2934,3.3517,0.3394,-0.9767,0.2063,-0.0101,0.319,0.0384,3072,2019-08-07 16:34:39:149
-7.1359,-5.2934,3.3517,0.3394,-0.9767,0.2063,-0.009,0.237,0.0608,3078,2019-08-07 16:34:39:155
-7.1359,-5.2934,3.3517,0.3394,-0.9767,0.2063,-0.009,0.237,0.0608,3083,2019-08-07 16:34:39:160
-7.6191,-5.2743,3.7571,0.3394,-0.9767,0.2063,-0.0207,0.0218,0.0874,3087,2019-08-07 16:34:39:164
-7.6191,-5.2743,3.7571,0.9206,-1.0795,-0.2574,-0.0207,0.0218,0.0874,3093,2019-08-07 16:34:39:170
-7.6191,-5.2743,3.7571,0.9206,-1.0795,-0.2574,-0.0527,-0.2286,0.1012,3098,2019-08-07 16:34:39:175
-7.4373,-5.3364,3.6581,0.9206,-1.0795,-0.2574,-0.0527,-0.2286,0.1012,3103,2019-08-07 16:34:39:180
-7.4373,-5.3364,3.6581,0.9206,-1.0795,-0.2574,-0.0527,-0.2286,0.1012,3108,2019-08-07 16:34:39:185
-6.8105,-5.4987,3.3564,0.1383,-0.7922,0.1281,-0.1081,-0.4384,0.1023,3112,2019-08-07 16:34:39:189
-6.8105,-5.4987,3.3564,0.1383,-0.7922,0.1281,-0.1081,-0.4384,0.1023,3118,2019-08-07 16:34:39:195
-6.1455,-5.8329,2.9463,0.1383,-0.7922,0.1281,-0.1326,-0.4672,0.098,3123,2019-08-07 16:34:39:200
-6.1455,-5.8329,2.9463,0.1383,-0.7922,0.1281,-0.1326,-0.4672,0.098,3128,2019-08-07 16:34:39:205
-6.1455,-5.8329,2.9463,-0.7858,-0.3257,0.7114,-0.1368,-0.3692,0.0842,3133,2019-08-07 16:34:39:210
-5.7341,-5.9808,2.7577,-0.7858,-0.3257,0.7114,-0.1368,-0.3692,0.0842,3138,2019-08-07 16:34:39:215
-5.7341,-5.9808,2.7577,-0.7858,-0.3257,0.7114,-0.14,-0.137,0.0671,3143,2019-08-07 16:34:39:220
-5.7341,-5.9808,2.7577,-0.7858,-0.3257,0.7114,-0.14,-0.137,0.0671,3148,2019-08-07 16:34:39:225
-5.6958,-6.0859,2.7389,-0.9152,-0.2539,0.7259,-0.14,-0.137,0.0671,3152,2019-08-07 16:34:39:229
-5.6958,-6.0859,2.7389,-0.9152,-0.2539,0.7259,-0.1347,0.1187,0.065,3158,2019-08-07 16:34:39:235
-5.892,-6.0906,2.9086,-0.9152,-0.2539,0.7259,-0.1347,0.1187,0.065,3163,2019-08-07 16:34:39:240
-5.892,-6.0906,2.9086,-0.9152,-0.2539,0.7259,-0.1219,0.2923,0.0576,3168,2019-08-07 16:34:39:245
-5.892,-6.0906,2.9086,-0.3825,-0.2384,0.3614,-0.1219,0.2923,0.0576,3173,2019-08-07 16:34:39:250
-6.3943,-6.105,3.2574,-0.3825,-0.2384,0.3614,-0.1102,0.3776,0.0565,3178,2019-08-07 16:34:39:255
-6.3943,-6.105,3.2574,-0.3825,-0.2384,0.3614,-0.1102,0.3776,0.0565,3182,2019-08-07 16:34:39:259
-7.0402,-6.0095,3.8042,-0.3825,-0.2384,0.3614,-0.09,0.3137,0.0629,3188,2019-08-07 16:34:39:265
-7.0402,-6.0095,3.8042,-0.3825,-0.2384,0.3614,-0.09,0.3137,0.0629,3193,2019-08-07 16:34:39:270
-7.0402,-6.0095,3.8042,0.6079,-0.3544,-0.5552,-0.0868,0.1368,0.0746,3198,2019-08-07 16:34:39:275
-7.5377,-5.9522,4.0446,0.6079,-0.3544,-0.5552,-0.0868,0.1368,0.0746,3202,2019-08-07 16:34:39:279
-7.5377,-5.9522,4.0446,0.6079,-0.3544,-0.5552,-0.1081,-0.0997,0.0789,3208,2019-08-07 16:34:39:285
-7.5377,-5.9522,4.0446,0.6079,-0.3544,-0.5552,-0.1081,-0.0997,0.0789,3213,2019-08-07 16:34:39:290
-7.5329,-5.9092,3.8938,0.8116,-0.3739,-0.4907,-0.1081,-0.0997,0.0789,3218,2019-08-07 16:34:39:295
-7.5329,-5.9092,3.8938,0.8116,-0.3739,-0.4907,-0.1305,-0.383,0.0767,3222,2019-08-07 16:34:39:299
-6.8297,-6.0715,3.3234,0.8116,-0.3739,-0.4907,-0.1305,-0.383,0.0767,3228,2019-08-07 16:34:39:305
-6.8297,-6.0715,3.3234,-0.1923,-0.1219,0.3285,-0.1187,-0.4885,0.0608,3232,2019-08-07 16:34:39:309
-6.8297,-6.0715,3.3234,-0.1923,-0.1219,0.3285,-0.1187,-0.4885,0.0608,3238,2019-08-07 16:34:39:315
-6.2508,-6.1336,2.9651,-0.1923,-0.1219,0.3285,-0.1017,-0.4512,0.0277,3242,2019-08-07 16:34:39:319
-6.2508,-6.1336,2.9651,-0.1923,-0.1219,0.3285,-0.1017,-0.4512,0.0277,3248,2019-08-07 16:34:39:325
-6.2508,-6.1336,2.9651,-0.1923,-0.1219,0.3285,-0.0836,-0.3191,0.0096,3252,2019-08-07 16:34:39:329
-5.8825,-6.0811,2.8426,-0.7963,-0.2041,0.6398,-0.0836,-0.3191,0.0096,3258,2019-08-07 16:34:39:335
-5.8825,-6.0811,2.8426,-0.7963,-0.2041,0.6398,-0.0569,-0.1412,-0.001,3262,2019-08-07 16:34:39:339
-5.7724,-6.0715,2.8567,-0.7963,-0.2041,0.6398,-0.0569,-0.1412,-0.001,3268,2019-08-07 16:34:39:345
-5.7724,-6.0715,2.8567,-0.7963,-0.2041,0.6398,-0.0569,-0.1412,-0.001,3272,2019-08-07 16:34:39:349
-5.7724,-6.0715,2.8567,-0.7143,-0.2257,0.5566,-0.0197,0.0793,0.0,3278,2019-08-07 16:34:39:355
-6.0595,-6.0524,3.0688,-0.7143,-0.2257,0.5566,-0.0197,0.0793,0.0,3283,2019-08-07 16:34:39:360
-6.0595,-6.0524,3.0688,-0.7143,-0.2257,0.5566,0.0048,0.1858,0.0107,3288,2019-08-07 16:34:39:365
-6.3896,-5.8997,3.3517,-0.7143,-0.2257,0.5566,0.0048,0.1858,0.0107,3293,2019-08-07 16:34:39:370
-6.3896,-5.8997,3.3517,-0.1381,-0.3633,-0.0123,0.0283,0.1986,0.0245,3298,2019-08-07 16:34:39:375
-6.3896,-5.8997,3.3517,-0.1381,-0.3633,-0.0123,0.0283,0.1986,0.0245,3303,2019-08-07 16:34:39:380
-6.8776,-5.7231,3.8608,-0.1381,-0.3633,-0.0123,0.0261,0.0878,0.048,3308,2019-08-07 16:34:39:385
-6.8776,-5.7231,3.8608,-0.1381,-0.3633,-0.0123,0.0261,0.0878,0.048,3313,2019-08-07 16:34:39:390
-6.8776,-5.7231,3.8608,0.2768,-0.5672,-0.4657,0.0102,-0.0752,0.0629,3317,2019-08-07 16:34:39:394
-7.0115,-5.7183,3.922,0.2768,-0.5672,-0.4657,0.0102,-0.0752,0.0629,3323,2019-08-07 16:34:39:400
-7.0115,-5.7183,3.922,0.1985,-0.5318,-0.3909,-0.0122,-0.2339,0.0629,3328,2019-08-07 16:34:39:405
-6.7484,-5.7517,3.7806,0.1985,-0.5318,-0.3909,-0.0122,-0.2339,0.0629,3333,2019-08-07 16:34:39:410
-6.7484,-5.7517,3.7806,0.1985,-0.5318,-0.3909,-0.0356,-0.3308,0.0522,3337,2019-08-07 16:34:39:414
-6.4279,-5.8281,3.5402,0.1985,-0.5318,-0.3909,-0.0356,-0.3308,0.0522,3343,2019-08-07 16:34:39:420
-6.4279,-5.8281,3.5402,-0.3058,-0.4856,0.0388,-0.0495,-0.3351,0.0352,3348,2019-08-07 16:34:39:425
-6.4279,-5.8281,3.5402,-0.3058,-0.4856,0.0388,-0.0495,-0.3351,0.0352,3353,2019-08-07 16:34:39:430
-6.0786,-5.8567,3.1584,-0.3058,-0.4856,0.0388,-0.0665,-0.2573,0.0171,3358,2019-08-07 16:34:39:435
-6.0786,-5.8567,3.1584,-0.3058,-0.4856,0.0388,-0.0665,-0.2573,0.0171,3363,2019-08-07 16:34:39:440
-5.8681,-5.9092,3.1348,-0.7615,-0.3442,0.3805,-0.0719,-0.1167,-0.0096,3367,2019-08-07 16:34:39:444
-5.8681,-5.9092,3.1348,-0.7615,-0.3442,0.3805,-0.0719,-0.1167,-0.0096,3373,2019-08-07 16:34:39:450
-5.8681,-5.9092,3.1348,-0.7615,-0.3442,0.3805,-0.0719,-0.1167,-0.0096,3378,2019-08-07 16:34:39:455
-6.0403,-5.9188,3.2055,-0.7615,-0.3442,0.3805,-0.0772,0.0569,-0.0245,3383,2019-08-07 16:34:39:460
-6.0403,-5.9188,3.2055,-0.5981,-0.3678,0.3509,-0.0772,0.0569,-0.0245,3388,2019-08-07 16:34:39:465
-6.2221,-5.914,3.2432,-0.5981,-0.3678,0.3509,-0.0772,0.1635,-0.0266,3393,2019-08-07 16:34:39:470
-6.2221,-5.914,3.2432,-0.5981,-0.3678,0.3509,-0.0772,0.1635,-0.0266,3398,2019-08-07 16:34:39:475
-6.2221,-5.914,3.2432,-0.5981,-0.3678,0.3509,-0.0761,0.2039,-0.0298,3402,2019-08-07 16:34:39:479
-6.5857,-5.914,3.4978,-0.0857,-0.372,-0.0028,-0.0761,0.2039,-0.0298,3408,2019-08-07 16:34:39:485
-6.5857,-5.914,3.4978,-0.0857,-0.372,-0.0028,-0.0761,0.2039,-0.0298,3413,2019-08-07 16:34:39:490
-6.7532,-5.8758,3.6486,-0.0857,-0.372,-0.0028,-0.0708,0.1443,-0.0202,3418,2019-08-07 16:34:39:495
-6.7532,-5.8758,3.6486,-0.0857,-0.372,-0.0028,-0.0708,0.1443,-0.0202,3423,2019-08-07 16:34:39:500
-6.7532,-5.8758,3.6486,0.1167,-0.4484,-0.2204,-0.0655,0.0047,-0.0053,3428,2019-08-07 16:34:39:505
-6.7388,-5.7851,3.6392,0.1167,-0.4484,-0.2204,-0.0655,0.0047,-0.0053,3432,2019-08-07 16:34:39:509
-6.7388,-5.7851,3.6392,0.1167,-0.4484,-0.2204,-0.0729,-0.1508,0.0224,3438,2019-08-07 16:34:39:515
-6.7388,-5.7851,3.6392,0.1167,-0.4484,-0.2204,-0.0729,-0.1508,0.0224,3443,2019-08-07 16:34:39:520
-6.557,-5.8615,3.6015,-0.1709,-0.4109,-0.105,-0.0783,-0.2339,0.0384,3448,2019-08-07 16:34:39:525
-6.557,-5.8615,3.6015,-0.1709,-0.4109,-0.105,-0.0783,-0.2339,0.0384,3453,2019-08-07 16:34:39:530
-6.404,-5.8997,3.4129,-0.1709,-0.4109,-0.105,-0.0783,-0.2339,0.0384,3458,2019-08-07 16:34:39:535
-6.404,-5.8997,3.4129,-0.1709,-0.4109,-0.105,-0.0783,-0.2744,0.0522,3463,2019-08-07 16:34:39:540
-6.404,-5.8997,3.4129,-0.5221,-0.3332,0.2885,-0.0783,-0.2744,0.0522,3468,2019-08-07 16:34:39:545
-6.1073,-6.0286,3.1631,-0.5221,-0.3332,0.2885,-0.0719,-0.2456,0.0639,3472,2019-08-07 16:34:39:549
-6.1073,-6.0286,3.1631,-0.5221,-0.3332,0.2885,-0.0719,-0.2456,0.0639,3478,2019-08-07 16:34:39:555
-6.0404,-6.0524,2.9793,-0.5221,-0.3332,0.2885,-0.0676,-0.1497,0.0544,3482,2019-08-07 16:34:39:559
-6.0404,-6.0524,2.9793,-0.5621,-0.2651,0.5462,-0.0676,-0.1497,0.0544,3488,2019-08-07 16:34:39:565
-6.0404,-6.0524,2.9793,-0.5621,-0.2651,0.5462,-0.0676,-0.1497,0.0544,3492,2019-08-07 16:34:39:569
-6.1552,-5.9952,3.0311,-0.5621,-0.2651,0.5462,-0.0633,-0.04,0.0394,3498,2019-08-07 16:34:39:575
-6.1552,-5.9952,3.0311,-0.5621,-0.2651,0.5462,-0.0633,-0.04,0.0394,3503,2019-08-07 16:34:39:580
-6.2461,-5.9522,3.2291,-0.4128,-0.3374,0.2832,-0.0538,0.0825,0.0245,3507,2019-08-07 16:34:39:584
-6.2461,-5.9522,3.2291,-0.4128,-0.3374,0.2832,-0.0538,0.0825,0.0245,3513,2019-08-07 16:34:39:590
-6.2461,-5.9522,3.2291,-0.4128,-0.3374,0.2832,-0.0452,0.1507,0.016,3518,2019-08-07 16:34:39:595
-6.4518,-5.9379,3.3281,-0.4128,-0.3374,0.2832,-0.0452,0.1507,0.016,3523,2019-08-07 16:34:39:600
-6.4518,-5.9379,3.3281,-0.0625,-0.424,0.0916,-0.0431,0.1816,0.0075,3528,2019-08-07 16:34:39:605
-6.7723,-5.8185,3.4459,-0.0625,-0.424,0.0916,-0.0431,0.1816,0.0075,3533,2019-08-07 16:34:39:610
-6.7723,-5.8185,3.4459,-0.0625,-0.424,0.0916,-0.0356,0.1315,0.0075,3538,2019-08-07 16:34:39:615
-6.7723,-5.8185,3.4459,-0.0625,-0.424,0.0916,-0.0356,0.1315,0.0075,3543,2019-08-07 16:34:39:620
-6.9159,-5.8042,3.5449,0.2409,-0.4803,-0.0858,-0.0324,0.0346,0.0075,3548,2019-08-07 16:34:39:625
-6.9159,-5.8042,3.5449,0.2409,-0.4803,-0.0858,-0.0324,0.0346,0.0075,3553,2019-08-07 16:34:39:630
-6.9159,-5.8042,3.5449,0.2409,-0.4803,-0.0858,-0.0324,0.0346,0.0075,3557,2019-08-07 16:34:39:634
-6.8919,-5.8424,3.4318,0.2409,-0.4803,-0.0858,-0.0303,-0.0741,0.0064,3563,2019-08-07 16:34:39:640
-6.8919,-5.8424,3.4318,0.017,-0.4838,0.107,-0.0303,-0.0741,0.0064,3567,2019-08-07 16:34:39:644
-6.5666,-5.8519,3.314,0.017,-0.4838,0.107,-0.0399,-0.1806,0.0064,3573,2019-08-07 16:34:39:650
-6.5666,-5.8519,3.314,0.017,-0.4838,0.107,-0.0399,-0.1806,0.0064,3578,2019-08-07 16:34:39:655
-6.5666,-5.8519,3.314,0.017,-0.4838,0.107,-0.0399,-0.203,0.0075,3583,2019-08-07 16:34:39:660
-6.2939,-5.9379,3.1207,-0.4209,-0.337,0.3725,-0.0399,-0.203,0.0075,3588,2019-08-07 16:34:39:665
-6.2939,-5.9379,3.1207,-0.4209,-0.337,0.3725,-0.0303,-0.1774,0.0075,3593,2019-08-07 16:34:39:670
-6.1026,-5.9856,3.0594,-0.4209,-0.337,0.3725,-0.0303,-0.1774,0.0075,3598,2019-08-07 16:34:39:675
-6.1026,-5.9856,3.0594,-0.4209,-0.337,0.3725,-0.0261,-0.1135,0.0011,3603,2019-08-07 16:34:39:680
-6.1026,-5.9856,3.0594,-0.4209,-0.337,0.3725,-0.0261,-0.1135,0.0011,3607,2019-08-07 16:34:39:684
-6.0978,-5.9665,3.0311,-0.5644,-0.3255,0.4706,-0.0261,-0.0315,-0.0106,3613,2019-08-07 16:34:39:690
-6.0978,-5.9665,3.0311,-0.5644,-0.3255,0.4706,-0.0261,-0.0315,-0.0106,3617,2019-08-07 16:34:39:694
-6.1121,-5.9331,2.9086,-0.5644,-0.3255,0.4706,-0.0261,0.0676,-0.0202,3623,2019-08-07 16:34:39:700
-6.1121,-5.9331,2.9086,-0.5644,-0.3255,0.4706,-0.0261,0.0676,-0.0202,3627,2019-08-07 16:34:39:704
-6.2461,-5.9188,3.0783,-0.5017,-0.3353,0.5334,-0.0261,0.1272,-0.0213,3633,2019-08-07 16:34:39:710
-6.2461,-5.9188,3.0783,-0.5017,-0.3353,0.5334,-0.0261,0.1272,-0.0213,3637,2019-08-07 16:34:39:714
-6.2461,-5.9188,3.0783,-0.5017,-0.3353,0.5334,-0.0261,0.1272,-0.0213,3643,2019-08-07 16:34:39:720
-6.404,-5.9092,3.2244,-0.5017,-0.3353,0.5334,-0.0261,0.1539,-0.0128,3647,2019-08-07 16:34:39:724
-6.404,-5.9092,3.2244,-0.2417,-0.3967,0.2043,-0.0261,0.1539,-0.0128,3653,2019-08-07 16:34:39:730
-6.404,-5.9092,3.2244,-0.2417,-0.3967,0.2043,-0.0207,0.139,-0.0042,3657,2019-08-07 16:34:39:734
-6.5762,-5.9379,3.3375,-0.2417,-0.3967,0.2043,-0.0207,0.139,-0.0042,3663,2019-08-07 16:34:39:740
-6.5762,-5.9379,3.3375,-0.2417,-0.3967,0.2043,-0.0271,0.0899,0.0096,3667,2019-08-07 16:34:39:744
-6.6288,-6.0047,3.3752,0.002,-0.3116,0.1176,-0.0271,0.0899,0.0096,3673,2019-08-07 16:34:39:750
-6.6288,-6.0047,3.3752,0.002,-0.3116,0.1176,-0.0293,0.025,0.0181,3678,2019-08-07 16:34:39:755
-6.6288,-6.0047,3.3752,0.002,-0.3116,0.1176,-0.0293,0.025,0.0181,3683,2019-08-07 16:34:39:760
-6.6001,-6.0668,3.3941,0.002,-0.3116,0.1176,-0.0293,0.025,0.0181,3688,2019-08-07 16:34:39:765
-6.6001,-6.0668,3.3941,-0.1464,-0.2859,0.1445,-0.0239,-0.0432,0.0267,3692,2019-08-07 16:34:39:769
-6.4805,-6.0095,3.3375,-0.1464,-0.2859,0.1445,-0.0239,-0.0432,0.0267,3698,2019-08-07 16:34:39:775
-6.4805,-6.0095,3.3375,-0.1464,-0.2859,0.1445,-0.0282,-0.0698,0.032,3702,2019-08-07 16:34:39:779
-6.4805,-6.0095,3.3375,-0.1464,-0.2859,0.1445,-0.0282,-0.0698,0.032,3708,2019-08-07 16:34:39:785
-6.3609,-6.0477,3.2102,-0.3232,-0.2502,0.2389,-0.0165,-0.0507,0.0267,3713,2019-08-07 16:34:39:790
-6.3609,-6.0477,3.2102,-0.3232,-0.2502,0.2389,-0.0165,-0.0507,0.0267,3717,2019-08-07 16:34:39:794
-6.3035,-5.9617,3.1725,-0.3232,-0.2502,0.2389,-5.0E-4,0.0132,0.0107,3723,2019-08-07 16:34:39:800
-6.3035,-5.9617,3.1725,-0.3232,-0.2502,0.2389,-5.0E-4,0.0132,0.0107,3727,2019-08-07 16:34:39:804
-6.3035,-5.9617,3.1725,-0.387,-0.4204,0.3377,0.0091,0.0846,-0.0106,3733,2019-08-07 16:34:39:810
-6.3657,-5.8424,3.1914,-0.387,-0.4204,0.3377,0.0091,0.0846,-0.0106,3738,2019-08-07 16:34:39:815
-6.3657,-5.8424,3.1914,-0.387,-0.4204,0.3377,0.0102,0.139,-0.0298,3743,2019-08-07 16:34:39:820
-6.5331,-5.8758,3.3375,-0.387,-0.4204,0.3377,0.0102,0.139,-0.0298,3748,2019-08-07 16:34:39:825
-6.5331,-5.8758,3.3375,-0.0586,-0.4694,0.1058,0.0102,0.139,-0.0298,3753,2019-08-07 16:34:39:830
-6.5331,-5.8758,3.3375,-0.0586,-0.4694,0.1058,0.0134,0.1677,-0.0415,3757,2019-08-07 16:34:39:834
-6.7819,-5.8567,3.4742,-0.0586,-0.4694,0.1058,0.0134,0.1677,-0.0415,3763,2019-08-07 16:34:39:840
-6.7819,-5.8567,3.4742,-0.0586,-0.4694,0.1058,0.0155,0.1421,-0.0404,3768,2019-08-07 16:34:39:845
-6.7915,-5.8281,3.5072,0.1155,-0.476,-0.1718,0.0155,0.1421,-0.0404,3773,2019-08-07 16:34:39:850
-6.7915,-5.8281,3.5072,0.1155,-0.476,-0.1718,0.008,0.0836,-0.0383,3778,2019-08-07 16:34:39:855
-6.7915,-5.8281,3.5072,0.0469,-0.4531,0.0305,0.008,0.0836,-0.0383,3782,2019-08-07 16:34:39:859
-6.7054,-5.9236,3.4978,0.0469,-0.4531,0.0305,-0.0026,0.0196,-0.0266,3788,2019-08-07 16:34:39:865
-6.7054,-5.9236,3.4978,0.0469,-0.4531,0.0305,-0.0026,0.0196,-0.0266,3792,2019-08-07 16:34:39:869
-6.5379,-5.9092,3.4884,0.0469,-0.4531,0.0305,-0.0037,-0.0208,-0.0128,3798,2019-08-07 16:34:39:875
-6.5379,-5.9092,3.4884,-0.2006,-0.3881,-0.0596,-0.0037,-0.0208,-0.0128,3802,2019-08-07 16:34:39:879
-6.5379,-5.9092,3.4884,-0.2006,-0.3881,-0.0596,-0.0037,-0.0208,-0.0128,3808,2019-08-07 16:34:39:885
-6.3657,-5.957,3.3894,-0.2006,-0.3881,-0.0596,-0.0079,-0.0539,0.0022,3813,2019-08-07 16:34:39:890
-6.3657,-5.957,3.3894,-0.2006,-0.3881,-0.0596,-0.0079,-0.0539,0.0022,3818,2019-08-07 16:34:39:895
-6.2796,-5.9617,3.3422,-0.4174,-0.3688,0.0695,-0.0069,-0.0358,0.0128,3823,2019-08-07 16:34:39:900
-6.2796,-5.9617,3.3422,-0.4174,-0.3688,0.0695,-0.0069,-0.0358,0.0128,3828,2019-08-07 16:34:39:905
-6.2796,-5.9617,3.3422,-0.4174,-0.3688,0.0695,-0.0069,-0.0358,0.0128,3832,2019-08-07 16:34:39:909
-6.2892,-5.914,3.3799,-0.4174,-0.3688,0.0695,6.0E-4,-0.0049,0.016,3838,2019-08-07 16:34:39:915
-6.2892,-5.914,3.3799,-0.3704,-0.3955,0.0905,6.0E-4,-0.0049,0.016,3843,2019-08-07 16:34:39:920
-6.447,-5.8472,3.3469,-0.3704,-0.3955,0.0905,0.0027,0.0314,0.0128,3848,2019-08-07 16:34:39:925
-6.447,-5.8472,3.3469,-0.3704,-0.3955,0.0905,0.0027,0.0314,0.0128,3853,2019-08-07 16:34:39:930
-6.447,-5.8472,3.3469,-0.3704,-0.3955,0.0905,-0.0037,0.0772,0.0086,3858,2019-08-07 16:34:39:935
-6.581,-5.7947,3.3281,-0.1228,-0.5027,0.0834,-0.0037,0.0772,0.0086,3863,2019-08-07 16:34:39:940
-6.581,-5.7947,3.3281,-0.1228,-0.5027,0.0834,-0.0122,0.0931,-0.0021,3867,2019-08-07 16:34:39:944
-6.581,-5.7947,3.3281,-0.1228,-0.5027,0.0834,-0.0122,0.0931,-0.0021,3873,2019-08-07 16:34:39:950
-6.6288,-5.8185,3.3564,-0.1228,-0.5027,0.0834,-0.0186,0.0974,-0.0181,3877,2019-08-07 16:34:39:954
-6.6288,-5.8185,3.3564,0.009,-0.498,0.0036,-0.0186,0.0974,-0.0181,3883,2019-08-07 16:34:39:960
-6.6288,-5.8185,3.3564,0.009,-0.498,0.0036,-0.0186,0.0974,-0.0181,3888,2019-08-07 16:34:39:965
-6.6958,-5.8472,3.3564,-0.0316,-0.4514,0.0677,-0.0175,0.0782,-0.0245,3893,2019-08-07 16:34:39:970
-6.6958,-5.8472,3.3564,-0.0316,-0.4514,0.0677,-0.0175,0.0782,-0.0245,3897,2019-08-07 16:34:39:974
-6.6528,-5.9188,3.3517,-0.0316,-0.4514,0.0677,-0.0261,0.0484,-0.0223,3903,2019-08-07 16:34:39:980
-6.6528,-5.9188,3.3517,-0.0316,-0.4514,0.0677,-0.0261,0.0484,-0.0223,3909,2019-08-07 16:34:39:986
-6.6528,-5.9188,3.3517,-0.0953,-0.3065,0.0305,-0.0271,0.0239,-0.017,3913,2019-08-07 16:34:39:990
-6.5906,-5.9665,3.4035,-0.0953,-0.3065,0.0305,-0.0271,0.0239,-0.017,3918,2019-08-07 16:34:39:995
-6.5906,-5.9665,3.4035,-0.0953,-0.3065,0.0305,-0.0197,-0.0187,-0.0064,3923,2019-08-07 16:34:40:000
-6.514,-5.9904,3.3469,-0.0953,-0.3065,0.0305,-0.0197,-0.0187,-0.0064,3927,2019-08-07 16:34:40:004
-6.514,-5.9904,3.3469,-0.2087,-0.2747,0.0823,-0.0122,-0.0485,0.0022,3933,2019-08-07 16:34:40:010
-6.514,-5.9904,3.3469,-0.2087,-0.2747,0.0823,-0.0122,-0.0485,0.0022,3937,2019-08-07 16:34:40:014
-6.4231,-5.9761,3.2715,-0.2087,-0.2747,0.0823,-0.0122,-0.0485,0.0022,3943,2019-08-07 16:34:40:020
-6.4231,-5.9761,3.2715,-0.2087,-0.2747,0.0823,-0.0143,-0.0656,0.0149,3948,2019-08-07 16:34:40:025
-6.3848,-5.9188,3.1914,-0.3256,-0.3835,0.1978,-0.0143,-0.0656,0.0149,3953,2019-08-07 16:34:40:030
-6.3848,-5.9188,3.1914,-0.3256,-0.3835,0.1978,-0.0122,-0.073,0.0203,3957,2019-08-07 16:34:40:034
-6.3848,-5.9188,3.1914,-0.3256,-0.3835,0.1978,-0.0122,-0.073,0.0203,3963,2019-08-07 16:34:40:040
-6.3657,-5.8663,3.149,-0.3256,-0.3835,0.1978,-0.0058,-0.0517,0.0267,3968,2019-08-07 16:34:40:045
-6.3657,-5.8663,3.149,-0.3205,-0.4902,0.2044,-0.0058,-0.0517,0.0267,3973,2019-08-07 16:34:40:050
-6.3657,-5.8663,3.149,-0.3205,-0.4902,0.2044,-5.0E-4,-0.0155,0.0256,3978,2019-08-07 16:34:40:055
-6.404,-5.7756,3.149,-0.3205,-0.4902,0.2044,-5.0E-4,-0.0155,0.0256,3982,2019-08-07 16:34:40:059
-6.404,-5.7756,3.149,-0.3205,-0.4902,0.2044,0.0016,0.0356,0.016,3988,2019-08-07 16:34:40:065
-6.4805,-5.7517,3.0877,-0.3205,-0.4902,0.2044,0.0016,0.0356,0.016,3993,2019-08-07 16:34:40:070
-6.4805,-5.7517,3.0877,-0.2155,-0.5864,0.2821,0.0027,0.0878,0.0064,3998,2019-08-07 16:34:40:075
-6.4805,-5.7517,3.0877,-0.2155,-0.5864,0.2821,0.0027,0.0878,0.0064,4003,2019-08-07 16:34:40:080
-6.7102,-5.7326,3.2432,-0.2155,-0.5864,0.2821,6.0E-4,0.1081,0.0075,4008,2019-08-07 16:34:40:085
-6.7102,-5.7326,3.2432,0.0281,-0.4781,0.1504,6.0E-4,0.1081,0.0075,4013,2019-08-07 16:34:40:090
-6.7102,-5.7326,3.2432,0.0281,-0.4781,0.1504,-0.0037,0.091,0.0032,4018,2019-08-07 16:34:40:095
-6.8011,-5.766,3.2857,0.0281,-0.4781,0.1504,-0.0037,0.091,0.0032,4022,2019-08-07 16:34:40:099
-6.8011,-5.766,3.2857,0.1242,-0.5005,0.1161,-0.0026,0.0463,0.0011,4028,2019-08-07 16:34:40:105
-6.7676,-5.8185,3.2951,0.1242,-0.5005,0.1161,-0.0026,0.0463,0.0011,4033,2019-08-07 16:34:40:110
-6.7676,-5.8185,3.2951,0.1242,-0.5005,0.1161,-0.0026,0.0463,0.0011,4038,2019-08-07 16:34:40:115
-6.7676,-5.8185,3.2951,0.1242,-0.5005,0.1161,-0.0037,0.0026,0.0043,4042,2019-08-07 16:34:40:119
-6.5954,-5.8901,3.2904,-0.1382,-0.3981,0.0793,-0.0037,0.0026,0.0043,4048,2019-08-07 16:34:40:125
-6.5954,-5.8901,3.2904,-0.1382,-0.3981,0.0793,-0.009,-0.0166,0.0128,4052,2019-08-07 16:34:40:129
-6.4231,-5.9474,3.2385,-0.1382,-0.3981,0.0793,-0.009,-0.0166,0.0128,4059,2019-08-07 16:34:40:136
-6.4231,-5.9474,3.2385,-0.1382,-0.3981,0.0793,-0.0037,-0.0358,0.0181,4063,2019-08-07 16:34:40:140
-6.4231,-5.9474,3.2385,-0.4162,-0.2623,0.2233,-0.0037,-0.0358,0.0181,4068,2019-08-07 16:34:40:145
-6.3227,-6.0095,3.116,-0.4162,-0.2623,0.2233,-0.0101,-0.024,0.0181,4072,2019-08-07 16:34:40:149
-6.3227,-6.0095,3.116,-0.4162,-0.2623,0.2233,-0.0101,-0.024,0.0181,4078,2019-08-07 16:34:40:155
-6.4136,-5.8424,3.3564,-0.4162,-0.2623,0.2233,0.0048,0.0037,0.0331,4083,2019-08-07 16:34:40:160
-6.4136,-5.8424,3.3564,-0.3365,-0.398,-0.0057,0.0048,0.0037,0.0331,4088,2019-08-07 16:34:40:165
-6.4136,-5.8424,3.3564,-0.3365,-0.398,-0.0057,0.0272,0.0196,0.0352,4093,2019-08-07 16:34:40:170
-6.3657,-5.957,3.0783,-0.3365,-0.398,-0.0057,0.0272,0.0196,0.0352,4098,2019-08-07 16:34:40:175
-6.3657,-5.957,3.0783,-0.3365,-0.398,-0.0057,0.0272,0.0196,0.0352,4103,2019-08-07 16:34:40:180
-6.3657,-5.957,3.0783,-0.2426,-0.4394,0.191,0.0134,0.0665,0.0309,4108,2019-08-07 16:34:40:185
-6.5954,-5.8281,3.2432,-0.2426,-0.4394,0.191,0.0134,0.0665,0.0309,4112,2019-08-07 16:34:40:189
-6.5954,-5.8281,3.2432,-0.2426,-0.4394,0.191,0.0208,0.0942,0.0405,4118,2019-08-07 16:34:40:195
-6.581,-5.8424,3.3564,-0.2426,-0.4394,0.191,0.0208,0.0942,0.0405,4122,2019-08-07 16:34:40:199
-6.581,-5.8424,3.3564,-0.1346,-0.4033,0.1394,0.024,0.1155,0.0203,4128,2019-08-07 16:34:40:205
-6.7437,-5.8472,3.215,-0.1346,-0.4033,0.1394,0.024,0.1155,0.0203,4132,2019-08-07 16:34:40:209
-6.7437,-5.8472,3.215,-0.1346,-0.4033,0.1394,0.0176,0.123,0.016,4138,2019-08-07 16:34:40:215
-6.7437,-5.8472,3.215,-0.1346,-0.4033,0.1394,0.0176,0.123,0.016,4142,2019-08-07 16:34:40:219
-6.7628,-5.9236,3.3611,-0.0029,-0.3406,-0.0112,0.0176,0.123,0.016,4147,2019-08-07 16:34:40:224
-6.7628,-5.9236,3.3611,-0.0029,-0.3406,-0.0112,0.0144,0.1038,0.0128,4153,2019-08-07 16:34:40:230
-6.7628,-5.9236,3.3611,-0.0029,-0.3406,-0.0112,0.0144,0.1038,0.0128,4157,2019-08-07 16:34:40:234
-6.825,-5.9617,3.3328,-0.0029,-0.3406,-0.0112,0.0091,0.074,-0.001,4163,2019-08-07 16:34:40:240
-6.825,-5.9617,3.3328,0.0038,-0.3327,-0.0445,-0.0037,0.0324,0.0,4168,2019-08-07 16:34:40:245
-6.7963,-5.9045,3.3658,0.0038,-0.3327,-0.0445,-0.0037,0.0324,0.0,4172,2019-08-07 16:34:40:249
-6.7963,-5.9045,3.3658,0.0038,-0.3327,-0.0445,-0.0037,0.0324,0.0,4178,2019-08-07 16:34:40:255
-6.7963,-5.9045,3.3658,0.0038,-0.3327,-0.0445,-0.0111,0.0047,0.0032,4183,2019-08-07 16:34:40:260
-6.6241,-5.9761,3.3422,-0.2042,-0.2886,0.0994,-0.0388,-0.024,0.0054,4188,2019-08-07 16:34:40:265
-6.6241,-5.9761,3.3422,-0.2042,-0.2886,0.0994,-0.0388,-0.024,0.0054,4193,2019-08-07 16:34:40:270
-6.6049,-5.9999,3.2715,-0.2042,-0.2886,0.0994,-0.0388,-0.024,0.0054,4197,2019-08-07 16:34:40:274
-6.6049,-5.9999,3.2715,-0.2042,-0.2886,0.0994,-0.042,-0.0347,0.0086,4203,2019-08-07 16:34:40:280
-6.6049,-5.9999,3.2715,-0.3037,-0.2564,0.1744,-0.042,-0.0347,0.0086,4207,2019-08-07 16:34:40:284
-6.4231,-6.0238,3.1537,-0.3037,-0.2564,0.1744,-0.0282,-0.0315,0.0203,4213,2019-08-07 16:34:40:290
-6.4231,-6.0238,3.1537,-0.3037,-0.2564,0.1744,-0.0282,-0.0315,0.0203,4217,2019-08-07 16:34:40:294
-6.4137,-6.0524,3.1206,-0.3037,-0.2564,0.1744,-0.0069,-0.007,0.0149,4223,2019-08-07 16:34:40:300
-6.4137,-6.0524,3.1206,-0.2803,-0.1794,0.1177,-0.0069,-0.007,0.0149,4228,2019-08-07 16:34:40:305
-6.4137,-6.0524,3.1206,-0.2803,-0.1794,0.1177,0.0048,0.0133,0.0149,4233,2019-08-07 16:34:40:310
-6.5525,-5.9426,3.1206,-0.2803,-0.1794,0.1177,0.0048,0.0133,0.0149,4238,2019-08-07 16:34:40:315
-6.5525,-5.9426,3.1206,-0.2803,-0.1794,0.1177,0.0048,0.042,0.0022,4242,2019-08-07 16:34:40:319
-6.5238,-5.8853,3.0829,-0.2551,-0.3732,0.251,0.0048,0.042,0.0022,4248,2019-08-07 16:34:40:325
-6.5238,-5.8853,3.0829,-0.2551,-0.3732,0.251,0.0091,0.0686,-0.0191,4253,2019-08-07 16:34:40:330
-6.5238,-5.8853,3.0829,-0.2551,-0.3732,0.251,0.0091,0.0686,-0.0191,4258,2019-08-07 16:34:40:335
-6.4711,-5.9665,3.3092,-0.2551,-0.3732,0.251,0.0091,0.0686,-0.0191,4262,2019-08-07 16:34:40:339
-6.4711,-5.9665,3.3092,-0.2134,-0.2461,-0.024,0.0379,0.0782,-0.0415,4268,2019-08-07 16:34:40:345
-6.6194,-5.9426,3.2432,-0.2134,-0.2461,-0.024,0.0379,0.0782,-0.0415,4272,2019-08-07 16:34:40:349
-6.6194,-5.9426,3.2432,-0.2134,-0.2461,-0.024,0.0805,0.0942,-0.0596,4277,2019-08-07 16:34:40:354
-6.6194,-5.9426,3.2432,-0.2134,-0.2461,-0.024,0.0805,0.0942,-0.0596,4283,2019-08-07 16:34:40:360
-6.5381,-5.7708,3.1489,-0.2038,-0.5343,0.1707,0.0762,0.1059,-0.065,4287,2019-08-07 16:34:40:364
-6.5381,-5.7708,3.1489,-0.2038,-0.5343,0.1707,0.0762,0.1059,-0.065,4293,2019-08-07 16:34:40:370
-6.6194,-5.7803,3.2338,-0.2038,-0.5343,0.1707,0.0613,0.1038,-0.0596,4298,2019-08-07 16:34:40:375
-6.6194,-5.7803,3.2338,-0.2038,-0.5343,0.1707,0.0613,0.1038,-0.0596,4302,2019-08-07 16:34:40:379
-6.6194,-5.7803,3.2338,-0.2038,-0.5343,0.1707,0.0443,0.0612,-0.0532,4308,2019-08-07 16:34:40:385
-6.6769,-5.8519,3.3799,-0.0506,-0.3842,-0.0936,0.0443,0.0612,-0.0532,4313,2019-08-07 16:34:40:390
-6.6769,-5.8519,3.3799,-0.0506,-0.3842,-0.0936,0.0325,-0.0049,-0.0362,4318,2019-08-07 16:34:40:395
-6.5333,-5.8519,3.2903,-0.0506,-0.3842,-0.0936,0.0325,-0.0049,-0.0362,4323,2019-08-07 16:34:40:400
-6.5333,-5.8519,3.2903,-0.2908,-0.5474,0.1437,0.0176,-0.0539,-0.0159,4328,2019-08-07 16:34:40:405
-6.5333,-5.8519,3.2903,-0.2908,-0.5474,0.1437,0.0176,-0.0539,-0.0159,4333,2019-08-07 16:34:40:410
-6.4089,-5.7087,3.1442,-0.2908,-0.5474,0.1437,-0.0239,-0.0634,0.0011,4338,2019-08-07 16:34:40:415
-6.4089,-5.7087,3.1442,-0.2908,-0.5474,0.1437,-0.0239,-0.0634,0.0011,4343,2019-08-07 16:34:40:420
-6.3611,-5.8185,3.1065,-0.4121,-0.4476,0.2246,-0.0474,-0.0507,0.0139,4348,2019-08-07 16:34:40:425
-6.3611,-5.8185,3.1065,-0.4121,-0.4476,0.2246,-0.0474,-0.0507,0.0139,4352,2019-08-07 16:34:40:429
-6.3611,-5.8185,3.1065,-0.4121,-0.4476,0.2246,-0.0474,-0.0507,0.0139,4358,2019-08-07 16:34:40:435
-6.3659,-5.871,3.0405,-0.4121,-0.4476,0.2246,-0.0463,-0.0144,0.0203,4363,2019-08-07 16:34:40:440
-6.3659,-5.871,3.0405,-0.4121,-0.4476,0.2246,-0.0463,-0.0144,0.0203,4367,2019-08-07 16:34:40:444
-6.5908,-5.7755,3.0876,-0.2512,-0.4811,0.3433,-0.042,0.0228,0.032,4373,2019-08-07 16:34:40:450
-6.5908,-5.7755,3.0876,-0.2512,-0.4811,0.3433,-0.042,0.0228,0.032,4377,2019-08-07 16:34:40:454
-6.5908,-5.7755,3.0876,-0.2512,-0.4811,0.3433,-0.041,0.0431,0.0256,4383,2019-08-07 16:34:40:460
-6.6243,-5.8137,3.0594,-0.2512,-0.4811,0.3433,-0.041,0.0431,0.0256,4387,2019-08-07 16:34:40:464
-6.6243,-5.8137,3.0594,-0.0764,-0.4649,0.2712,-0.0356,0.0718,0.0043,4393,2019-08-07 16:34:40:470
-6.6243,-5.8137,3.0594,-0.0764,-0.4649,0.2712,-0.0356,0.0718,0.0043,4398,2019-08-07 16:34:40:475
-6.7391,-5.9044,3.1301,-0.0764,-0.4649,0.2712,-0.0356,0.0718,0.0043,4402,2019-08-07 16:34:40:479
-6.7391,-5.9044,3.1301,-0.0764,-0.4649,0.2712,-0.0154,0.0623,-0.001,4408,2019-08-07 16:34:40:485
-6.6482,-5.9856,3.2668,-0.1303,-0.341,0.0651,-0.0154,0.0623,-0.001,4413,2019-08-07 16:34:40:490
-6.6482,-5.9856,3.2668,-0.1303,-0.341,0.0651,0.0059,0.0324,-0.0181,4417,2019-08-07 16:34:40:494
-6.6482,-5.9856,3.2668,-0.1303,-0.341,0.0651,0.0059,0.0324,-0.0181,4423,2019-08-07 16:34:40:500
-6.5812,-5.9474,3.3422,-0.1303,-0.341,0.0651,0.0432,-0.0017,-0.0266,4428,2019-08-07 16:34:40:505
-6.5812,-5.9474,3.3422,-0.1918,-0.3415,0.0043,0.0432,-0.0017,-0.0266,4433,2019-08-07 16:34:40:510
-6.5812,-5.9474,3.3422,-0.1918,-0.3415,0.0043,0.0688,-0.0176,-0.0234,4437,2019-08-07 16:34:40:514
-6.5238,-5.9331,3.0735,-0.1918,-0.3415,0.0043,0.0688,-0.0176,-0.0234,4443,2019-08-07 16:34:40:520
-6.5238,-5.9331,3.0735,-0.1918,-0.3415,0.0043,0.0634,-0.024,-0.017,4447,2019-08-07 16:34:40:524
-6.452,-5.8376,3.1065,-0.3987,-0.4019,0.2224,0.0634,-0.024,-0.017,4453,2019-08-07 16:34:40:530
-6.452,-5.8376,3.1065,-0.3987,-0.4019,0.2224,0.0634,-0.024,-0.017,4457,2019-08-07 16:34:40:534
-6.452,-5.8376,3.1065,-0.3987,-0.4019,0.2224,0.0517,-0.0091,-0.0064,4463,2019-08-07 16:34:40:540
-6.3229,-5.8806,3.1159,-0.3987,-0.4019,0.2224,0.0517,-0.0091,-0.0064,4467,2019-08-07 16:34:40:544
-6.3229,-5.8806,3.1159,-0.4211,-0.4802,0.2307,0.0538,0.0154,0.0,4473,2019-08-07 16:34:40:550
-6.8587,-5.5846,2.9179,-0.4211,-0.4802,0.2307,0.0538,0.0154,0.0,4478,2019-08-07 16:34:40:555
-6.8587,-5.5846,2.9179,-0.4211,-0.4802,0.2307,-0.0303,-0.0549,0.0,4483,2019-08-07 16:34:40:560
-6.8587,-5.5846,2.9179,-0.4211,-0.4802,0.2307,-0.0303,-0.0549,0.0,4488,2019-08-07 16:34:40:565
-6.5142,-5.8519,3.7429,-0.2687,-0.4055,-0.4153,0.089,0.0441,0.0128,4493,2019-08-07 16:34:40:570
-6.5142,-5.8519,3.7429,-0.2687,-0.4055,-0.4153,0.089,0.0441,0.0128,4498,2019-08-07 16:34:40:575
-6.5142,-5.8519,3.7429,-0.2687,-0.4055,-0.4153,0.0783,0.0356,-0.0181,4503,2019-08-07 16:34:40:580
-6.7534,-5.7326,3.0829,-0.2687,-0.4055,-0.4153,0.0783,0.0356,-0.0181,4508,2019-08-07 16:34:40:585
-6.7534,-5.7326,3.0829,0.0108,-0.5804,0.0345,0.0783,0.0356,-0.0181,4512,2019-08-07 16:34:40:589
-6.5477,-5.7612,3.4883,0.0108,-0.5804,0.0345,0.0517,0.0356,0.0149,4518,2019-08-07 16:34:40:595
-6.5477,-5.7612,3.4883,0.0108,-0.5804,0.0345,0.0517,0.0356,0.0149,4522,2019-08-07 16:34:40:599
-6.5477,-5.7612,3.4883,0.0108,-0.5804,0.0345,0.0783,0.0303,-0.0042,4528,2019-08-07 16:34:40:605
-6.7726,-5.7851,3.3045,-0.0171,-0.4588,0.0348,0.0783,0.0303,-0.0042,4532,2019-08-07 16:34:40:609
-6.7726,-5.7851,3.3045,-0.0171,-0.4588,0.0348,0.0464,-0.0198,0.0139,4538,2019-08-07 16:34:40:615
-6.7726,-5.7851,3.3045,-0.0171,-0.4588,0.0348,0.0464,-0.0198,0.0139,4543,2019-08-07 16:34:40:620
-6.7248,-5.7708,3.5166,-0.0171,-0.4588,0.0348,0.0251,-0.0858,0.0277,4548,2019-08-07 16:34:40:625
-6.7248,-5.7708,3.5166,-0.1801,-0.3702,-0.2065,0.0251,-0.0858,0.0277,4552,2019-08-07 16:34:40:629
-6.5908,-5.8567,3.5025,-0.1801,-0.3702,-0.2065,0.0272,-0.137,0.0139,4558,2019-08-07 16:34:40:635
-6.5908,-5.8567,3.5025,-0.1801,-0.3702,-0.2065,0.0272,-0.137,0.0139,4562,2019-08-07 16:34:40:639
-6.5908,-5.8567,3.5025,-0.1801,-0.3702,-0.2065,0.0176,-0.1593,0.0245,4568,2019-08-07 16:34:40:645
-6.5286,-5.8519,3.4647,-0.2972,-0.3646,-0.1109,0.0176,-0.1593,0.0245,4573,2019-08-07 16:34:40:650