ACCELEROMETER X (m/s²),ACCELEROMETER Y (m/s²),ACCELEROMETER Z (m/s²),LINEAR ACCELERATION X (m/s²),LINEAR ACCELERATION Y (m/s²),LINEAR ACCELERATION Z (m/s²),GYROSCOPE X (rad/s),GYROSCOPE Y (rad/s),GYROSCOPE Z (rad/s),Time since start in ms ,YYYY-MO-DD HH-MI-SS_SSS
-5.2296,-6.1825,4.7541,-0.0966,-0.3609,0.2007,0.0421,-0.0411,0.0502,6,2019-08-07 16:31:27:242
-5.2631,-6.2302,4.7353,-0.0966,-0.3609,0.2007,0.0421,-0.0411,0.0502,11,2019-08-07 16:31:27:247
-5.2631,-6.2302,4.7353,-0.1531,-0.332,0.2943,0.0368,-0.0358,0.0534,16,2019-08-07 16:31:27:252
-5.1483,-6.2159,4.6222,-0.1531,-0.332,0.2943,0.0368,-0.0358,0.0534,21,2019-08-07 16:31:27:257
-5.1483,-6.2159,4.6222,-0.1531,-0.332,0.2943,0.0368,-0.0358,0.0534,26,2019-08-07 16:31:27:262
-5.1483,-6.2159,4.6222,-0.2319,-0.3035,0.3498,0.0378,-0.0092,0.0544,30,2019-08-07 16:31:27:266
-5.134,-6.2064,4.5844,-0.2319,-0.3035,0.3498,0.0378,-0.0092,0.0544,36,2019-08-07 16:31:27:272
-5.134,-6.2064,4.5844,-0.2319,-0.3035,0.3498,0.0442,0.0441,0.0438,40,2019-08-07 16:31:27:276
-5.134,-6.2159,4.6457,-0.2271,-0.3086,0.3468,0.0442,0.0441,0.0438,46,2019-08-07 16:31:27:282
-5.134,-6.2159,4.6457,-0.2271,-0.3086,0.3468,0.0485,0.0825,0.0417,50,2019-08-07 16:31:27:286
-5.134,-6.2159,4.6457,-0.2271,-0.3086,0.3468,0.0485,0.0825,0.0417,56,2019-08-07 16:31:27:292
-5.1866,-6.1968,4.6457,-0.2271,-0.3086,0.3468,0.0528,0.0974,0.0353,60,2019-08-07 16:31:27:296
-5.1866,-6.1968,4.6457,-0.1176,-0.3424,0.3947,0.0528,0.0974,0.0353,66,2019-08-07 16:31:27:302
-5.3158,-6.2971,4.6551,-0.1176,-0.3424,0.3947,0.057,0.091,0.0363,70,2019-08-07 16:31:27:306
-5.3158,-6.2971,4.6551,-0.1176,-0.3424,0.3947,0.057,0.091,0.0363,76,2019-08-07 16:31:27:312
-5.3158,-6.2971,4.6551,-0.1204,-0.1705,0.2891,0.057,0.091,0.0363,81,2019-08-07 16:31:27:317
-5.2489,-6.3066,4.6928,-0.1204,-0.1705,0.2891,0.0645,0.0707,0.0438,86,2019-08-07 16:31:27:322
-5.2489,-6.3066,4.6928,-0.1204,-0.1705,0.2891,0.0645,0.0707,0.0438,91,2019-08-07 16:31:27:327
-5.2489,-6.3066,4.6928,-0.1204,-0.1705,0.2891,0.0741,0.0367,0.0449,96,2019-08-07 16:31:27:332
-5.3685,-6.2589,4.806,-0.0276,-0.2398,0.1826,0.0741,0.0367,0.0449,101,2019-08-07 16:31:27:337
-5.3685,-6.2589,4.806,-0.0276,-0.2398,0.1826,0.0741,0.009,0.0481,105,2019-08-07 16:31:27:341
-5.3111,-6.2111,4.7777,-0.0276,-0.2398,0.1826,0.0741,0.009,0.0481,111,2019-08-07 16:31:27:347
-5.3111,-6.2111,4.7777,-0.1069,-0.2222,0.2994,0.0677,-0.0177,0.0491,116,2019-08-07 16:31:27:352
-5.3111,-6.2111,4.7777,-0.1069,-0.2222,0.2994,0.0677,-0.0177,0.0491,121,2019-08-07 16:31:27:357
-5.3064,-6.235,4.7258,-0.1069,-0.2222,0.2994,0.0677,-0.0177,0.0491,126,2019-08-07 16:31:27:362
-5.3064,-6.235,4.7258,-0.1069,-0.2222,0.2994,0.0613,-0.023,0.0385,131,2019-08-07 16:31:27:367
-5.3208,-6.2063,4.7069,-0.1069,-0.2222,0.2994,0.0613,-0.023,0.0385,136,2019-08-07 16:31:27:372
-5.3208,-6.2063,4.7069,-0.0677,-0.2691,0.2899,0.057,-0.0155,0.031,141,2019-08-07 16:31:27:377
-5.3208,-6.2063,4.7069,-0.0677,-0.2691,0.2899,0.057,-0.0155,0.031,146,2019-08-07 16:31:27:382
-5.2873,-6.1729,4.6834,-0.0677,-0.2691,0.2899,0.0485,0.0068,0.031,151,2019-08-07 16:31:27:387
-5.2873,-6.1729,4.6834,-0.0677,-0.2691,0.2899,0.0485,0.0068,0.031,156,2019-08-07 16:31:27:392
-5.3256,-6.1347,4.6551,-0.1112,-0.3704,0.2809,0.0432,0.0303,0.0278,162,2019-08-07 16:31:27:398
-5.3256,-6.1347,4.6551,-0.1112,-0.3704,0.2809,0.0432,0.0303,0.0278,166,2019-08-07 16:31:27:402
-5.3256,-6.1347,4.6551,-0.1112,-0.3704,0.2809,0.0304,0.042,0.0235,171,2019-08-07 16:31:27:407
-5.383,-6.1395,4.7022,-0.1112,-0.3704,0.2809,0.0304,0.042,0.0235,176,2019-08-07 16:31:27:412
-5.383,-6.1395,4.7022,-0.091,-0.364,0.3036,0.0229,0.0409,0.0289,181,2019-08-07 16:31:27:417
-5.3161,-6.1777,4.6504,-0.091,-0.364,0.3036,0.0229,0.0409,0.0289,186,2019-08-07 16:31:27:422
-5.3161,-6.1777,4.6504,-0.091,-0.364,0.3036,0.0197,0.0281,0.0257,190,2019-08-07 16:31:27:426
-5.3161,-6.1777,4.6504,-0.091,-0.364,0.3036,0.0197,0.0281,0.0257,196,2019-08-07 16:31:27:432
-5.3253,-6.2111,4.8013,-0.1037,-0.244,0.208,0.0187,0.0164,0.0267,201,2019-08-07 16:31:27:437
-5.3253,-6.2111,4.8013,-0.1037,-0.244,0.208,0.0187,0.0164,0.0267,205,2019-08-07 16:31:27:441
-5.3445,-6.1634,4.8531,-0.1037,-0.244,0.208,0.0197,-0.007,0.031,211,2019-08-07 16:31:27:447
-5.3445,-6.1634,4.8531,-0.1037,-0.244,0.208,0.0197,-0.007,0.031,216,2019-08-07 16:31:27:452
-5.3445,-6.1634,4.8531,-0.1323,-0.3576,0.1112,0.0091,-0.0262,0.0321,220,2019-08-07 16:31:27:456
-5.2632,-6.1013,4.8343,-0.1323,-0.3576,0.1112,0.0091,-0.0262,0.0321,226,2019-08-07 16:31:27:462
-5.2632,-6.1013,4.8343,-0.1323,-0.3576,0.1112,-0.0016,-0.0518,0.0214,231,2019-08-07 16:31:27:467
-5.2345,-6.1157,4.773,-0.1323,-0.3576,0.1112,-0.0016,-0.0518,0.0214,236,2019-08-07 16:31:27:472
-5.2345,-6.1157,4.773,-0.194,-0.2919,0.1495,-0.0154,-0.0539,0.0172,240,2019-08-07 16:31:27:476
-5.2345,-6.1157,4.773,-0.194,-0.2919,0.1495,-0.0154,-0.0539,0.0172,246,2019-08-07 16:31:27:482
-5.1149,-6.1825,4.7588,-0.194,-0.2919,0.1495,-0.0229,-0.0326,0.0182,251,2019-08-07 16:31:27:487
-5.1149,-6.1825,4.7588,-0.194,-0.2919,0.1495,-0.0229,-0.0326,0.0182,256,2019-08-07 16:31:27:492
-5.1389,-6.2111,4.773,-0.3543,-0.2448,0.2266,-0.0261,-0.006,0.0108,261,2019-08-07 16:31:27:497
-5.1389,-6.2111,4.773,-0.3543,-0.2448,0.2266,-0.0261,-0.006,0.0108,266,2019-08-07 16:31:27:502
-5.1389,-6.2111,4.773,-0.3543,-0.2448,0.2266,-0.0282,0.0313,0.0161,271,2019-08-07 16:31:27:507
-5.115,-6.2063,4.7305,-0.3543,-0.2448,0.2266,-0.0282,0.0313,0.0161,275,2019-08-07 16:31:27:511
-5.115,-6.2063,4.7305,-0.2909,-0.2799,0.2725,-0.0282,0.0313,0.0161,280,2019-08-07 16:31:27:516
-5.2011,-6.1968,4.8248,-0.2909,-0.2799,0.2725,-0.0325,0.0526,0.0182,286,2019-08-07 16:31:27:522
-5.2011,-6.1968,4.8248,-0.2909,-0.2799,0.2725,-0.0229,0.0654,0.0172,291,2019-08-07 16:31:27:527
-5.2011,-6.1968,4.8248,-0.2909,-0.2799,0.2725,-0.0229,0.0654,0.0172,296,2019-08-07 16:31:27:532
-5.2729,-6.1204,4.6928,-0.17,-0.3286,0.3093,-0.0229,0.0654,0.0172,300,2019-08-07 16:31:27:536
-5.2729,-6.1204,4.6928,-0.17,-0.3286,0.3093,-0.0144,0.0622,0.0108,306,2019-08-07 16:31:27:542
-5.2729,-6.1204,4.6928,-0.17,-0.3286,0.3093,-0.0144,0.0622,0.0108,311,2019-08-07 16:31:27:547
-5.3064,-6.1634,4.6504,-0.17,-0.3286,0.3093,-0.008,0.043,0.0097,316,2019-08-07 16:31:27:552
-5.3064,-6.1634,4.6504,-0.1244,-0.2333,0.2873,-0.008,0.043,0.0097,321,2019-08-07 16:31:27:557
-5.3256,-6.2684,4.7305,-0.1244,-0.2333,0.2873,0.0027,0.0239,0.0054,325,2019-08-07 16:31:27:561
-5.3256,-6.2684,4.7305,-0.1244,-0.2333,0.2873,0.0027,0.0239,0.0054,331,2019-08-07 16:31:27:567
-5.3256,-6.2684,4.7305,-0.1244,-0.2333,0.2873,0.0101,0.0143,-0.001,336,2019-08-07 16:31:27:572
-5.3351,-6.2875,4.6221,-0.1657,-0.1947,0.4164,0.0101,0.0143,-0.001,340,2019-08-07 16:31:27:576
-5.3351,-6.2875,4.6221,-0.1657,-0.1947,0.4164,0.0208,0.0122,-0.0084,346,2019-08-07 16:31:27:582
-5.3112,-6.3066,4.5797,-0.1657,-0.1947,0.4164,0.0208,0.0122,-0.0084,351,2019-08-07 16:31:27:587
-5.3112,-6.3066,4.5797,-0.1657,-0.1947,0.4164,0.0283,0.0047,-0.0137,355,2019-08-07 16:31:27:591
-5.3352,-6.2923,4.6268,-0.1178,-0.1558,0.3656,0.0283,0.0047,-0.0137,361,2019-08-07 16:31:27:597
-5.3352,-6.2923,4.6268,-0.1178,-0.1558,0.3656,0.0389,0.01,-0.0148,366,2019-08-07 16:31:27:602
-5.3352,-6.2923,4.6268,-0.1178,-0.1558,0.3656,0.0389,0.01,-0.0148,371,2019-08-07 16:31:27:607
-5.3065,-6.235,4.7399,-0.1178,-0.1558,0.3656,0.0389,0.01,-0.0148,376,2019-08-07 16:31:27:612
-5.3065,-6.235,4.7399,-0.1944,-0.23,0.1938,0.0432,0.0239,-0.0169,381,2019-08-07 16:31:27:617
-5.2635,-6.1252,4.8153,-0.1944,-0.23,0.1938,0.0432,0.0239,-0.0169,386,2019-08-07 16:31:27:622
-5.2635,-6.1252,4.8153,-0.1944,-0.23,0.1938,0.0389,0.0399,-0.0191,391,2019-08-07 16:31:27:627
-5.2635,-6.1252,4.8153,-0.1944,-0.23,0.1938,0.0389,0.0399,-0.0191,396,2019-08-07 16:31:27:632
-5.3257,-6.1061,4.8012,-0.1533,-0.3758,0.1898,0.0336,0.0516,-0.0201,401,2019-08-07 16:31:27:637
-5.3257,-6.1061,4.8012,-0.1533,-0.3758,0.1898,0.0336,0.0516,-0.0201,406,2019-08-07 16:31:27:642
-5.3257,-6.1204,4.8342,-0.1533,-0.3758,0.1898,0.0336,0.0516,-0.0201,410,2019-08-07 16:31:27:646
-5.3257,-6.1204,4.8342,-0.1533,-0.3758,0.1898,0.0293,0.0473,-0.0223,417,2019-08-07 16:31:27:653
-5.3257,-6.1204,4.8342,-0.1324,-0.3552,0.1932,0.0293,0.0473,-0.0223,421,2019-08-07 16:31:27:657
-5.3305,-6.1013,4.8153,-0.1324,-0.3552,0.1932,0.0261,0.0345,-0.0191,425,2019-08-07 16:31:27:661
-5.3305,-6.1013,4.8153,-0.1324,-0.3552,0.1932,0.0261,0.0345,-0.0191,431,2019-08-07 16:31:27:667
-5.3066,-6.1299,4.9143,-0.1324,-0.3552,0.1932,0.0251,0.0207,-0.0212,436,2019-08-07 16:31:27:672
-5.3066,-6.1299,4.9143,-0.1139,-0.3444,0.1751,0.0251,0.0207,-0.0212,440,2019-08-07 16:31:27:676
-5.3066,-6.1299,4.9143,-0.1139,-0.3444,0.1751,0.0283,0.01,-0.0191,446,2019-08-07 16:31:27:682
-5.3018,-6.0536,4.787,-0.1139,-0.3444,0.1751,0.0283,0.01,-0.0191,451,2019-08-07 16:31:27:687
-5.3018,-6.0536,4.787,-0.1139,-0.3444,0.1751,0.0283,0.01,-0.0191,456,2019-08-07 16:31:27:692
-5.3018,-6.0536,4.787,-0.1139,-0.3444,0.1751,0.0251,4.0E-4,-0.0223,461,2019-08-07 16:31:27:697
-5.2301,-6.0488,4.7635,-0.1938,-0.3528,0.1828,0.024,0.0026,-0.0233,466,2019-08-07 16:31:27:702
-5.2301,-6.0488,4.7635,-0.1938,-0.3528,0.1828,0.024,0.0026,-0.0233,471,2019-08-07 16:31:27:707
-5.2828,-6.0392,4.6975,-0.1938,-0.3528,0.1828,0.024,0.0026,-0.0233,476,2019-08-07 16:31:27:712
-5.2828,-6.0392,4.6975,-0.1938,-0.3528,0.1828,0.024,0.0122,-0.0191,480,2019-08-07 16:31:27:716
-5.2828,-6.0392,4.6975,-0.2547,-0.4238,0.3029,0.024,0.0122,-0.0191,486,2019-08-07 16:31:27:722
-5.2636,-6.0106,4.7163,-0.2547,-0.4238,0.3029,0.0197,0.0281,-0.0137,490,2019-08-07 16:31:27:726
-5.2636,-6.0106,4.7163,-0.2547,-0.4238,0.3029,0.0197,0.0281,-0.0137,497,2019-08-07 16:31:27:733
-5.2924,-5.9915,4.8059,-0.2547,-0.4238,0.3029,0.0208,0.0345,-0.0063,500,2019-08-07 16:31:27:736
-5.2924,-5.9915,4.8059,-0.1514,-0.4556,0.2039,0.0208,0.0345,-0.0063,506,2019-08-07 16:31:27:742
-5.2924,-5.9915,4.8059,-0.1514,-0.4556,0.2039,0.0165,0.0292,0.0054,512,2019-08-07 16:31:27:748
-5.2876,-5.9724,4.7163,-0.1514,-0.4556,0.2039,0.0165,0.0292,0.0054,516,2019-08-07 16:31:27:752
-5.2876,-5.9724,4.7163,-0.1514,-0.4556,0.2039,0.0123,0.0313,0.014,521,2019-08-07 16:31:27:757
-5.2876,-5.9724,4.7163,-0.1278,-0.4663,0.1746,0.0123,0.0313,0.014,525,2019-08-07 16:31:27:761
-5.345,-5.9772,4.8436,-0.1278,-0.4663,0.1746,0.0123,0.0249,0.0235,531,2019-08-07 16:31:27:767
-5.345,-5.9772,4.8436,-0.1278,-0.4663,0.1746,0.0123,0.0249,0.0235,535,2019-08-07 16:31:27:771
-5.3738,-5.9246,4.8247,-0.1278,-0.4663,0.1746,0.0091,0.0079,0.0363,541,2019-08-07 16:31:27:777
-5.3738,-5.9246,4.8247,-0.1156,-0.4987,0.1179,0.0091,0.0079,0.0363,546,2019-08-07 16:31:27:782
-5.3738,-5.9246,4.8247,-0.1156,-0.4987,0.1179,0.0027,0.0036,0.0395,551,2019-08-07 16:31:27:787
-5.3212,-5.9676,4.7964,-0.1156,-0.4987,0.1179,0.0027,0.0036,0.0395,555,2019-08-07 16:31:27:791
-5.3212,-5.9676,4.7964,-0.1156,-0.4987,0.1179,-0.0058,0.0111,0.0438,561,2019-08-07 16:31:27:797
-5.3451,-6.0297,4.8059,-0.137,-0.3688,0.2543,-0.0058,0.0111,0.0438,566,2019-08-07 16:31:27:802
-5.3451,-6.0297,4.8059,-0.137,-0.3688,0.2543,-0.0122,0.0154,0.0459,572,2019-08-07 16:31:27:808
-5.3451,-6.0297,4.8059,-0.137,-0.3688,0.2543,-0.0122,0.0154,0.0459,577,2019-08-07 16:31:27:813
-5.2925,-6.0631,4.7776,-0.137,-0.3688,0.2543,-0.0144,0.0175,0.0491,581,2019-08-07 16:31:27:817
-5.2925,-6.0631,4.7776,-0.1837,-0.3497,0.2653,-0.0144,0.0175,0.0491,586,2019-08-07 16:31:27:822
-5.3164,-6.0535,4.7163,-0.1837,-0.3497,0.2653,-0.0144,0.0175,0.0491,590,2019-08-07 16:31:27:826
-5.3164,-6.0535,4.7163,-0.1837,-0.3497,0.2653,-0.0165,0.0345,0.0438,597,2019-08-07 16:31:27:833
-5.3164,-6.0535,4.7163,-0.1837,-0.3497,0.2653,-0.0165,0.0345,0.0438,601,2019-08-07 16:31:27:837
-5.3308,-6.0917,4.7304,-0.1649,-0.3219,0.2594,-0.0133,0.0388,0.0438,606,2019-08-07 16:31:27:842
-5.3308,-6.0917,4.7304,-0.1649,-0.3219,0.2594,-0.0133,0.0388,0.0438,611,2019-08-07 16:31:27:847
-5.3452,-6.0869,4.7446,-0.1649,-0.3219,0.2594,-0.009,0.0367,0.047,616,2019-08-07 16:31:27:852
-5.3452,-6.0869,4.7446,-0.1649,-0.3219,0.2594,-0.009,0.0367,0.047,621,2019-08-07 16:31:27:857
-5.3452,-6.0869,4.7446,-0.1372,-0.3314,0.2257,-5.0E-4,0.0292,0.0448,626,2019-08-07 16:31:27:862
-5.3787,-6.106,4.8105,-0.1372,-0.3314,0.2257,-5.0E-4,0.0292,0.0448,632,2019-08-07 16:31:27:868
-5.3787,-6.106,4.8105,-0.1372,-0.3314,0.2257,0.0048,0.0217,0.047,636,2019-08-07 16:31:27:872
-5.3787,-6.106,4.8105,-0.1372,-0.3314,0.2257,0.0048,0.0217,0.047,640,2019-08-07 16:31:27:876
-5.3931,-6.044,4.8247,-0.113,-0.3348,0.2185,0.0048,0.0217,0.047,646,2019-08-07 16:31:27:882
-5.3931,-6.044,4.8247,-0.113,-0.3348,0.2185,0.0123,0.0154,0.0459,652,2019-08-07 16:31:27:888
-5.4075,-6.0535,4.7822,-0.113,-0.3348,0.2185,0.0123,0.0154,0.0459,656,2019-08-07 16:31:27:892
-5.4075,-6.0535,4.7822,-0.113,-0.3348,0.2185,0.0123,0.0154,0.0459,661,2019-08-07 16:31:27:897
-5.4075,-6.0535,4.7822,-0.1538,-0.295,0.1998,0.008,0.0026,0.0406,665,2019-08-07 16:31:27:901
-5.3261,-6.1633,4.7681,-0.1538,-0.295,0.1998,0.008,0.0026,0.0406,671,2019-08-07 16:31:27:907
-5.3261,-6.1633,4.7681,-0.1538,-0.295,0.1998,0.0059,-0.0017,0.0299,676,2019-08-07 16:31:27:912
-5.3836,-6.2874,4.7492,-0.1538,-0.295,0.1998,0.0144,0.0015,0.0203,681,2019-08-07 16:31:27:917
-5.3836,-6.2874,4.7492,-0.215,-0.1576,0.2428,0.0144,0.0015,0.0203,685,2019-08-07 16:31:27:921
-5.3836,-6.2874,4.7492,-0.215,-0.1576,0.2428,0.0144,0.0015,0.0203,691,2019-08-07 16:31:27:927
-5.3023,-6.2397,4.7351,-0.215,-0.1576,0.2428,0.007,0.0058,0.0161,695,2019-08-07 16:31:27:931
-5.3023,-6.2397,4.7351,-0.215,-0.1576,0.2428,0.007,0.0058,0.0161,701,2019-08-07 16:31:27:937
-5.3023,-6.2397,4.7351,-0.2464,-0.1031,0.2282,0.0027,0.0122,0.015,706,2019-08-07 16:31:27:942
-5.2449,-6.211,4.7209,-0.2464,-0.1031,0.2282,0.0027,0.0122,0.015,711,2019-08-07 16:31:27:947
-5.2449,-6.211,4.7209,-0.2464,-0.1031,0.2282,0.007,0.009,0.0172,716,2019-08-07 16:31:27:952
-5.2927,-6.2063,4.7681,-0.2464,-0.1031,0.2282,0.007,0.009,0.0172,721,2019-08-07 16:31:27:957
-5.2927,-6.2063,4.7681,-0.2967,-0.1303,0.3309,0.0059,0.0111,0.0161,726,2019-08-07 16:31:27:962
-5.2927,-6.2063,4.7681,-0.2967,-0.1303,0.3309,0.0059,0.0111,0.0161,731,2019-08-07 16:31:27:967
-5.2736,-6.2349,4.7351,-0.2967,-0.1303,0.3309,0.0059,0.0111,0.0161,736,2019-08-07 16:31:27:972
-5.2736,-6.2349,4.7351,-0.2967,-0.1303,0.3309,0.0038,0.01,0.0182,740,2019-08-07 16:31:27:976
-5.3406,-6.2015,4.6974,-0.1947,-0.1857,0.2826,0.0038,0.01,0.0182,746,2019-08-07 16:31:27:982
-5.3406,-6.2015,4.6974,-0.1947,-0.1857,0.2826,6.0E-4,-0.0017,0.0257,750,2019-08-07 16:31:27:986
-5.3406,-6.2015,4.6974,-0.1947,-0.1857,0.2826,6.0E-4,-0.0017,0.0257,756,2019-08-07 16:31:27:992
-5.3502,-6.2158,4.7068,-0.1947,-0.1857,0.2826,-0.0016,-6.0E-4,0.0182,760,2019-08-07 16:31:27:996
-5.3502,-6.2158,4.7068,-0.2071,-0.2361,0.2585,-0.0016,-6.0E-4,0.0182,767,2019-08-07 16:31:28:003
-5.3694,-6.1538,4.6832,-0.2071,-0.2361,0.2585,-0.0058,0.0026,0.0108,770,2019-08-07 16:31:28:006
-5.3694,-6.1538,4.6832,-0.2071,-0.2361,0.2585,-0.0058,0.0026,0.0108,776,2019-08-07 16:31:28:012
-5.3694,-6.1538,4.6832,-0.2071,-0.2361,0.2585,-0.009,0.0132,0.0044,781,2019-08-07 16:31:28:017
-5.3551,-6.1824,4.6549,-0.1853,-0.2555,0.2888,-0.009,0.0132,0.0044,785,2019-08-07 16:31:28:021
-5.3551,-6.1824,4.6549,-0.1853,-0.2555,0.2888,-0.0112,0.0345,-0.0127,791,2019-08-07 16:31:28:027
-5.3551,-6.1824,4.6549,-0.1853,-0.2555,0.2888,-0.0112,0.0345,-0.0127,795,2019-08-07 16:31:28:031
-5.4029,-6.1776,4.7256,-0.1853,-0.2555,0.2888,-0.0133,0.0431,-0.0169,801,2019-08-07 16:31:28:037
-5.4029,-6.1776,4.7256,-0.1305,-0.22,0.3059,-0.0133,0.0431,-0.0169,806,2019-08-07 16:31:28:042
-5.4221,-6.1012,4.6643,-0.1305,-0.22,0.3059,-0.0133,0.0441,-0.0223,812,2019-08-07 16:31:28:048
-5.4221,-6.1012,4.6643,-0.1305,-0.22,0.3059,-0.0133,0.0441,-0.0223,816,2019-08-07 16:31:28:052
-5.4221,-6.1012,4.6643,-0.1305,-0.22,0.3059,-0.0175,0.0345,-0.0276,821,2019-08-07 16:31:28:057
-5.403,-6.1346,4.6738,-0.1305,-0.22,0.3059,-0.0175,0.0345,-0.0276,825,2019-08-07 16:31:28:061
-5.403,-6.1346,4.6738,-0.1272,-0.2482,0.2751,-0.0165,0.0185,-0.0244,831,2019-08-07 16:31:28:067
-5.4173,-6.0965,4.6643,-0.1272,-0.2482,0.2751,-0.0165,0.0185,-0.0244,836,2019-08-07 16:31:28:072
-5.4173,-6.0965,4.6643,-0.1272,-0.2482,0.2751,-0.0165,0.0185,-0.0244,841,2019-08-07 16:31:28:077
-5.4173,-6.0965,4.6643,-0.1272,-0.2482,0.2751,-0.008,4.0E-4,-0.0137,846,2019-08-07 16:31:28:082
-5.3456,-6.1251,4.7068,-0.2126,-0.3472,0.3232,-0.008,4.0E-4,-0.0137,851,2019-08-07 16:31:28:087
-5.3456,-6.1251,4.7068,-0.2126,-0.3472,0.3232,-0.0037,-0.0081,-0.0105,856,2019-08-07 16:31:28:092
-5.3456,-6.1251,4.7068,-0.2126,-0.3472,0.3232,-0.0037,-0.0081,-0.0105,861,2019-08-07 16:31:28:097
-5.3026,-6.0965,4.6502,-0.2126,-0.3472,0.3232,0.0027,-0.0155,1.0E-4,866,2019-08-07 16:31:28:102
-5.3026,-6.0965,4.6502,-0.2351,-0.3098,0.3426,0.0027,-0.0155,1.0E-4,870,2019-08-07 16:31:28:106
-5.2213,-6.1251,4.6125,-0.2351,-0.3098,0.3426,0.0038,-0.0091,0.0033,876,2019-08-07 16:31:28:112
-5.2213,-6.1251,4.6125,-0.2682,-0.3048,0.2867,0.0038,-0.0091,0.0033,881,2019-08-07 16:31:28:117
-5.2213,-6.1251,4.6125,-0.2682,-0.3048,0.2867,0.0027,0.01,0.0022,885,2019-08-07 16:31:28:121
-5.3026,-6.0726,4.669,-0.2682,-0.3048,0.2867,0.0027,0.01,0.0022,891,2019-08-07 16:31:28:127
-5.3026,-6.0726,4.669,-0.2682,-0.3048,0.2867,0.008,0.0228,0.0054,896,2019-08-07 16:31:28:132
-5.3313,-6.1108,4.5983,-0.2126,-0.299,0.3191,0.008,0.0228,0.0054,900,2019-08-07 16:31:28:136
-5.3313,-6.1108,4.5983,-0.2126,-0.299,0.3191,0.0038,0.0367,0.0065,906,2019-08-07 16:31:28:142
-5.3313,-6.1108,4.5983,-0.2126,-0.299,0.3191,0.0038,0.0367,0.0065,911,2019-08-07 16:31:28:147
-5.3026,-6.106,4.636,-0.2126,-0.299,0.3191,0.0038,0.0484,0.0012,916,2019-08-07 16:31:28:152
-5.3026,-6.106,4.636,-0.2076,-0.2697,0.3006,0.0038,0.0484,0.0012,921,2019-08-07 16:31:28:157
-5.3362,-6.149,4.6737,-0.2076,-0.2697,0.3006,0.007,0.059,0.0033,927,2019-08-07 16:31:28:163
-5.3362,-6.149,4.6737,-0.2076,-0.2697,0.3006,0.007,0.059,0.0033,931,2019-08-07 16:31:28:167
-5.3362,-6.149,4.6737,-0.2076,-0.2697,0.3006,0.007,0.059,0.0033,936,2019-08-07 16:31:28:172
-5.3553,-6.2206,4.6737,-0.2093,-0.2259,0.2331,0.0112,0.0622,0.0054,940,2019-08-07 16:31:28:176
-5.3553,-6.2206,4.6737,-0.2093,-0.2259,0.2331,0.0112,0.0622,0.0054,947,2019-08-07 16:31:28:183
-5.3553,-6.2206,4.6737,-0.2093,-0.2259,0.2331,0.0219,0.0537,0.0076,951,2019-08-07 16:31:28:187
-5.3841,-6.1728,4.7586,-0.2093,-0.2259,0.2331,0.0219,0.0537,0.0076,956,2019-08-07 16:31:28:192
-5.3841,-6.1728,4.7586,-0.2207,-0.3661,0.1777,0.0293,0.0303,0.015,961,2019-08-07 16:31:28:197
-5.3649,-6.0773,4.6831,-0.2207,-0.3661,0.1777,0.0293,0.0303,0.015,966,2019-08-07 16:31:28:202
-5.3649,-6.0773,4.6831,-0.2207,-0.3661,0.1777,0.0293,0.0303,0.015,971,2019-08-07 16:31:28:207
-5.3649,-6.0773,4.6831,-0.2207,-0.3661,0.1777,0.0389,0.0036,0.0246,976,2019-08-07 16:31:28:212
-5.3458,-6.0726,4.6313,-0.2587,-0.3028,0.3595,0.0389,0.0036,0.0246,980,2019-08-07 16:31:28:216
-5.3458,-6.0726,4.6313,-0.2587,-0.3028,0.3595,0.0389,-0.0038,0.0299,986,2019-08-07 16:31:28:222
-5.3458,-6.0726,4.6313,-0.2587,-0.3028,0.3595,0.0389,-0.0038,0.0299,991,2019-08-07 16:31:28:227
-5.2645,-6.1298,4.6171,-0.2587,-0.3028,0.3595,0.0506,-0.0049,0.0363,996,2019-08-07 16:31:28:232
-5.2645,-6.1298,4.6171,-0.3344,-0.2136,0.3466,0.0506,-0.0049,0.0363,1001,2019-08-07 16:31:28:237
-5.2645,-6.1298,4.6171,-0.3344,-0.2136,0.3466,0.0506,-0.0049,0.0363,1005,2019-08-07 16:31:28:241
-5.1832,-6.1728,4.5794,-0.3344,-0.2136,0.3466,0.0602,0.0111,0.0385,1011,2019-08-07 16:31:28:247
-5.1832,-6.1728,4.5794,-0.3344,-0.2136,0.3466,0.0645,0.0313,0.0416,1016,2019-08-07 16:31:28:252
-5.2311,-6.1728,4.5181,-0.3453,-0.1948,0.441,0.0645,0.0313,0.0416,1021,2019-08-07 16:31:28:257
-5.2311,-6.1728,4.5181,-0.3453,-0.1948,0.441,0.0645,0.0313,0.0416,1025,2019-08-07 16:31:28:261
-5.2311,-6.1728,4.5181,-0.3215,-0.1897,0.494,0.0719,0.0537,0.0448,1031,2019-08-07 16:31:28:267
-5.2359,-6.1967,4.5276,-0.3215,-0.1897,0.494,0.0719,0.0537,0.0448,1035,2019-08-07 16:31:28:271
-5.2359,-6.1967,4.5276,-0.3215,-0.1897,0.494,0.089,0.0697,0.0608,1041,2019-08-07 16:31:28:277
-5.2168,-6.2587,4.4663,-0.3215,-0.1897,0.494,0.089,0.0697,0.0608,1045,2019-08-07 16:31:28:281
-5.2168,-6.2587,4.4663,-0.3736,-0.0904,0.4766,0.1018,0.0814,0.0736,1051,2019-08-07 16:31:28:287
-5.2168,-6.2587,4.4663,-0.3736,-0.0904,0.4766,0.1018,0.0814,0.0736,1055,2019-08-07 16:31:28:291
-5.1976,-6.316,4.5464,-0.3736,-0.0904,0.4766,0.1209,0.0771,0.0896,1061,2019-08-07 16:31:28:297
-5.1976,-6.316,4.5464,-0.3736,-0.0904,0.4766,0.1209,0.0771,0.0896,1066,2019-08-07 16:31:28:302
-5.1833,-6.3208,4.4898,-0.4299,-0.0087,0.4766,0.1433,0.0718,0.1141,1071,2019-08-07 16:31:28:307
-5.1833,-6.3208,4.4898,-0.4299,-0.0087,0.4766,0.1433,0.0718,0.1141,1076,2019-08-07 16:31:28:312
-5.1833,-6.3208,4.4898,-0.4299,-0.0087,0.4766,0.1646,0.0729,0.1322,1081,2019-08-07 16:31:28:317
-5.1594,-6.3876,4.6265,-0.4299,-0.0087,0.4766,0.1646,0.0729,0.1322,1086,2019-08-07 16:31:28:322
-5.1594,-6.3876,4.6265,-0.4712,0.2294,0.4024,0.1646,0.0729,0.1322,1091,2019-08-07 16:31:28:327
-5.1977,-6.5881,4.57,-0.4712,0.2294,0.4024,0.1806,0.0697,0.1567,1095,2019-08-07 16:31:28:331
-5.1977,-6.5881,4.57,-0.5075,0.4369,0.329,0.1806,0.0697,0.1567,1101,2019-08-07 16:31:28:337
-5.1977,-6.5881,4.57,-0.5075,0.4369,0.329,0.2072,0.0814,0.1769,1106,2019-08-07 16:31:28:342
-5.1403,-6.8984,4.6784,-0.5075,0.4369,0.329,0.2072,0.0814,0.1769,1111,2019-08-07 16:31:28:347
-5.1403,-6.8984,4.6784,-0.5075,0.4369,0.329,0.253,0.0942,0.194,1117,2019-08-07 16:31:28:353
-5.1403,-7.1419,4.6501,-0.5365,0.8967,0.3506,0.253,0.0942,0.194,1121,2019-08-07 16:31:28:357
-5.1403,-7.1419,4.6501,-0.5365,0.8967,0.3506,0.3106,0.1379,0.2089,1126,2019-08-07 16:31:28:362
-5.1403,-7.1419,4.6501,-0.5365,0.8967,0.3506,0.3106,0.1379,0.2089,1131,2019-08-07 16:31:28:367
-5.0686,-7.2517,4.7774,-0.5365,0.8967,0.3506,0.3862,0.189,0.2185,1136,2019-08-07 16:31:28:372
-5.0686,-7.2517,4.7774,-0.6469,1.1753,0.0158,0.3862,0.189,0.2185,1141,2019-08-07 16:31:28:377
-5.0686,-7.2517,4.7774,-0.6469,1.1753,0.0158,0.4778,0.2263,0.2217,1145,2019-08-07 16:31:28:381
-5.0016,-7.4283,5.0178,-0.6469,1.1753,0.0158,0.4778,0.2263,0.2217,1151,2019-08-07 16:31:28:387
-5.0016,-7.4283,5.0178,-0.8267,1.4144,-0.1516,0.6035,0.2582,0.2227,1156,2019-08-07 16:31:28:392
-5.0016,-7.4283,5.0178,-0.8267,1.4144,-0.1516,0.6035,0.2582,0.2227,1161,2019-08-07 16:31:28:397
-4.8725,-8.0298,5.607,-0.8267,1.4144,-0.1516,0.6035,0.2582,0.2227,1166,2019-08-07 16:31:28:402
-4.8725,-8.0298,5.607,-0.8267,1.4144,-0.1516,0.7313,0.2614,0.2227,1171,2019-08-07 16:31:28:407
-4.8725,-8.0298,5.607,-0.8895,2.6578,-1.0622,0.7313,0.2614,0.2227,1176,2019-08-07 16:31:28:412
-4.8534,-9.1278,6.5733,-0.8895,2.6578,-1.0622,0.905,0.2284,0.2398,1181,2019-08-07 16:31:28:417
-4.8534,-9.1278,6.5733,-0.8895,2.6578,-1.0622,0.905,0.2284,0.2398,1187,2019-08-07 16:31:28:423
-5.0639,-10.0443,7.8979,-0.7531,4.0923,-2.7044,1.1926,0.1027,0.2824,1191,2019-08-07 16:31:28:427
-5.0639,-10.0443,7.8979,-0.7531,4.0923,-2.7044,1.1926,0.1027,0.2824,1195,2019-08-07 16:31:28:431
-5.0639,-10.0443,7.8979,-0.7531,4.0923,-2.7044,1.4397,-0.0816,0.3261,1201,2019-08-07 16:31:28:437
-5.0767,-10.5553,8.6996,-0.7501,4.6874,-3.4221,1.4397,-0.0816,0.3261,1206,2019-08-07 16:31:28:442
-5.0767,-10.5553,8.6996,-0.7501,4.6874,-3.4221,1.6688,-0.3394,0.357,1211,2019-08-07 16:31:28:447
-5.2585,-11.0756,9.9487,-0.7501,4.6874,-3.4221,1.6688,-0.3394,0.357,1216,2019-08-07 16:31:28:452
-5.2585,-11.0756,9.9487,-0.7501,4.6874,-3.4221,1.9021,-0.627,0.3559,1221,2019-08-07 16:31:28:457
-5.2585,-11.0756,9.9487,-0.2146,5.9922,-5.1933,1.9021,-0.627,0.3559,1226,2019-08-07 16:31:28:462
-5.2585,-11.0756,9.9487,-0.2146,5.9922,-5.1933,1.9021,-0.627,0.3559,1231,2019-08-07 16:31:28:467
-5.8518,-12.0638,11.4383,0.4678,7.14,-6.5762,2.0981,-0.8315,0.3122,1236,2019-08-07 16:31:28:472
-5.8518,-12.0638,11.4383,0.4678,7.14,-6.5762,2.0981,-0.8315,0.3122,1241,2019-08-07 16:31:28:477
-6.689,-14.7228,14.1251,0.4678,7.14,-6.5762,2.6009,-1.2704,0.1237,1246,2019-08-07 16:31:28:482
-6.689,-14.7228,14.1251,0.4678,7.14,-6.5762,2.6009,-1.2704,0.1237,1251,2019-08-07 16:31:28:487
-6.689,-14.7228,14.1251,0.6858,10.9776,-9.2087,3.2027,-1.3556,-0.2119,1255,2019-08-07 16:31:28:491
-5.9092,-16.9331,15.9211,0.6858,10.9776,-9.2087,3.2027,-1.3556,-0.2119,1261,2019-08-07 16:31:28:497
-5.9092,-16.9331,15.9211,0.2056,12.2979,-10.1492,3.6225,-1.1586,-0.4899,1266,2019-08-07 16:31:28:502
-5.9379,-17.2864,17.5427,0.2056,12.2979,-10.1492,3.6225,-1.1586,-0.4899,1271,2019-08-07 16:31:28:507
-5.9379,-17.2864,17.5427,0.2056,12.2979,-10.1492,3.6225,-1.1586,-0.4899,1276,2019-08-07 16:31:28:512
-5.9379,-17.2864,17.5427,0.2056,12.2979,-10.1492,4.3287,-0.4416,-0.9064,1280,2019-08-07 16:31:28:516
-8.019,-15.6442,20.7339,2.6919,11.0707,-13.8826,4.3287,-0.4416,-0.9064,1286,2019-08-07 16:31:28:522
-8.019,-15.6442,20.7339,2.6919,11.0707,-13.8826,4.9551,0.0771,-1.1056,1291,2019-08-07 16:31:28:527
-13.7362,-12.355,24.4908,2.6919,11.0707,-13.8826,4.9551,0.0771,-1.1056,1296,2019-08-07 16:31:28:532
-13.7362,-12.355,24.4908,2.6919,11.0707,-13.8826,5.2491,-0.0667,-1.0726,1301,2019-08-07 16:31:28:537
-13.7362,-12.355,24.4908,13.2533,6.4584,-20.2395,5.2491,-0.0667,-1.0726,1306,2019-08-07 16:31:28:542
-21.7211,-9.3236,29.1151,13.2533,6.4584,-20.2395,5.2406,-1.2385,-0.8638,1311,2019-08-07 16:31:28:547
-21.7211,-9.3236,29.1151,13.2533,6.4584,-20.2395,5.2406,-1.2385,-0.8638,1317,2019-08-07 16:31:28:553
-21.7211,-9.3236,29.1151,13.2533,6.4584,-20.2395,5.2406,-1.2385,-0.8638,1320,2019-08-07 16:31:28:556
-30.0983,-6.9702,29.8174,25.2523,3.7202,-21.9313,4.6227,-4.8337,-0.4974,1326,2019-08-07 16:31:28:562
-30.0983,-6.9702,29.8174,25.2523,3.7202,-21.9313,4.6227,-4.8337,-0.4974,1331,2019-08-07 16:31:28:567
-32.2943,-4.9938,24.7972,25.2523,3.7202,-21.9313,3.8845,-7.8197,-0.3461,1336,2019-08-07 16:31:28:572
-32.2943,-4.9938,24.7972,25.2523,3.7202,-21.9313,3.8845,-7.8197,-0.3461,1341,2019-08-07 16:31:28:577
-32.2943,-4.9938,24.7972,25.2523,3.7202,-21.9313,3.8845,-7.8197,-0.3461,1346,2019-08-07 16:31:28:582
-27.8067,-3.1559,16.9911,26.8872,1.2637,-11.6443,3.2134,-9.8351,-0.3259,1351,2019-08-07 16:31:28:587
-27.8067,-3.1559,16.9911,26.8872,1.2637,-11.6443,3.2134,-9.8351,-0.3259,1356,2019-08-07 16:31:28:592
-27.8067,-3.1559,16.9911,26.8872,1.2637,-11.6443,1.8722,-12.1382,-0.6188,1361,2019-08-07 16:31:28:597
-18.2813,-1.929,8.94,14.8703,-0.4351,1.7785,1.1574,-11.6919,-0.8617,1367,2019-08-07 16:31:28:603
-18.2813,-1.929,8.94,14.8703,-0.4351,1.7785,1.1574,-11.6919,-0.8617,1371,2019-08-07 16:31:28:607
-18.2813,-1.929,8.94,14.8703,-0.4351,1.7785,1.1574,-11.6919,-0.8617,1375,2019-08-07 16:31:28:611
-7.5789,-1.232,5.1312,14.8703,-0.4351,1.7785,0.8219,-9.751,-1.0012,1381,2019-08-07 16:31:28:617
-7.5789,-1.232,5.1312,4.8558,-1.3683,4.8877,0.8219,-9.751,-1.0012,1386,2019-08-07 16:31:28:622
-2.8951,-0.0815,3.8396,4.8558,-1.3683,4.8877,0.5715,-6.5275,-0.9576,1391,2019-08-07 16:31:28:627
-2.8951,-0.0815,3.8396,3.421,-2.7122,5.4707,0.5715,-6.5275,-0.9576,1396,2019-08-07 16:31:28:632
-2.8951,-0.0815,3.8396,3.421,-2.7122,5.4707,0.3329,-3.6012,-0.8478,1401,2019-08-07 16:31:28:637
-4.1582,1.8519,5.1453,3.421,-2.7122,5.4707,0.3329,-3.6012,-0.8478,1406,2019-08-07 16:31:28:642
-4.1582,1.8519,5.1453,3.421,-2.7122,5.4707,0.2456,-1.6497,-0.7488,1411,2019-08-07 16:31:28:647
-4.1582,1.8519,5.1453,16.1509,-4.4985,1.3802,0.2456,-1.6497,-0.7488,1416,2019-08-07 16:31:28:652
-16.5781,2.926,8.3837,16.1509,-4.4985,1.3802,0.1092,-1.9043,-0.6039,1421,2019-08-07 16:31:28:657
-16.5781,2.926,8.3837,16.1509,-4.4985,1.3802,0.1092,-1.9043,-0.6039,1426,2019-08-07 16:31:28:662
-21.0083,5.2842,5.6497,16.1509,-4.4985,1.3802,-0.0889,-3.5863,-0.3354,1432,2019-08-07 16:31:28:668
-21.0083,5.2842,5.6497,21.3075,-8.1167,7.5769,-0.0889,-3.5863,-0.3354,1435,2019-08-07 16:31:28:671
-21.0083,5.2842,5.6497,21.3075,-8.1167,7.5769,-0.0889,-3.5863,-0.3354,1441,2019-08-07 16:31:28:677
-14.0329,6.9169,-1.6755,21.3075,-8.1167,7.5769,-0.5406,-5.9523,0.0789,1446,2019-08-07 16:31:28:682
-14.0329,6.9169,-1.6755,21.3075,-8.1167,7.5769,-0.5406,-5.9523,0.0789,1451,2019-08-07 16:31:28:687
-14.0329,6.9169,-1.6755,8.9623,-7.7392,14.8846,-1.428,-8.6612,0.4092,1455,2019-08-07 16:31:28:691
-4.1678,5.6852,-6.7052,8.9623,-7.7392,14.8846,-1.428,-8.6612,0.4092,1461,2019-08-07 16:31:28:697
-4.1678,5.6852,-6.7052,8.9623,-7.7392,14.8846,-2.2791,-8.7645,0.6084,1465,2019-08-07 16:31:28:701
2.2383,4.9644,-14.4217,8.9623,-7.7392,14.8846,-2.2791,-8.7645,0.6084,1472,2019-08-07 16:31:28:708
2.2383,4.9644,-14.4217,8.9623,-7.7392,14.8846,-2.2791,-8.7645,0.6084,1475,2019-08-07 16:31:28:711
2.2383,4.9644,-14.4217,0.0923,-5.5753,22.004,-2.4709,-5.4058,0.5498,1481,2019-08-07 16:31:28:717
2.8651,2.2147,-10.7968,0.0923,-5.5753,22.004,-2.4709,-5.4058,0.5498,1486,2019-08-07 16:31:28:722
2.8651,2.2147,-10.7968,0.0923,-5.5753,22.004,-2.0213,-3.2784,0.4656,1490,2019-08-07 16:31:28:726
-2.2302,1.7707,-4.4237,0.0923,-5.5753,22.004,-2.0213,-3.2784,0.4656,1496,2019-08-07 16:31:28:732
-2.2302,1.7707,-4.4237,8.7277,-3.9496,8.6042,-1.2266,-2.8289,0.7756,1501,2019-08-07 16:31:28:737
-2.2302,1.7707,-4.4237,8.7277,-3.9496,8.6042,-1.2266,-2.8289,0.7756,1506,2019-08-07 16:31:28:742
-2.7612,-0.0099,-9.3025,8.7277,-3.9496,8.6042,-0.6599,-2.8001,0.7863,1511,2019-08-07 16:31:28:747
-2.7612,-0.0099,-9.3025,6.425,-2.1325,15.6664,-0.6599,-2.8001,0.7863,1517,2019-08-07 16:31:28:753
-2.7612,-0.0099,-9.3025,6.425,-2.1325,15.6664,-0.3851,-3.0175,0.3154,1520,2019-08-07 16:31:28:756
-0.7183,-0.8024,-8.9584,6.425,-2.1325,15.6664,-0.3851,-3.0175,0.3154,1526,2019-08-07 16:31:28:762
-0.7183,-0.8024,-8.9584,6.425,-2.1325,15.6664,-0.367,-3.6545,-0.1139,1531,2019-08-07 16:31:28:767
-1.4982,0.119,-8.2089,6.425,-2.1325,15.6664,-0.367,-3.6545,-0.1139,1536,2019-08-07 16:31:28:772
-1.4982,0.119,-8.2089,7.4319,-3.4426,14.4687,-0.367,-3.6545,-0.1139,1541,2019-08-07 16:31:28:777
-1.4982,0.119,-8.2089,7.4319,-3.4426,14.4687,-0.4959,-4.4758,-0.1405,1545,2019-08-07 16:31:28:781
2.755,0.7014,-8.8453,7.4319,-3.4426,14.4687,-0.4959,-4.4758,-0.1405,1552,2019-08-07 16:31:28:788
2.755,0.7014,-8.8453,7.4319,-3.4426,14.4687,-0.5172,-2.0939,-0.2268,1556,2019-08-07 16:31:28:792
9.5821,-2.1629,-10.217,-2.3382,-1.2958,16.9901,-0.5172,-2.0939,-0.2268,1561,2019-08-07 16:31:28:797
9.5821,-2.1629,-10.217,-2.3382,-1.2958,16.9901,-0.4447,-0.9263,-0.4878,1565,2019-08-07 16:31:28:801
9.5821,-2.1629,-10.217,-2.3382,-1.2958,16.9901,-0.4447,-0.9263,-0.4878,1572,2019-08-07 16:31:28:808
9.5821,-2.1629,-10.217,-2.3382,-1.2958,16.9901,-0.4447,-0.9263,-0.4878,1576,2019-08-07 16:31:28:812
6.8264,-2.4112,-5.9651,0.4773,-0.9155,2.1651,-0.3403,-0.138,-0.3908,1581,2019-08-07 16:31:28:817
6.8264,-2.4112,-5.9651,0.4773,-0.9155,2.1651,-0.3403,-0.138,-0.3908,1586,2019-08-07 16:31:28:822
5.9748,-3.0652,-2.7927,0.4773,-0.9155,2.1651,0.1657,-1.1724,0.0523,1591,2019-08-07 16:31:28:827
5.9748,-3.0652,-2.7927,0.4773,-0.9155,2.1651,0.1657,-1.1724,0.0523,1595,2019-08-07 16:31:28:831
7.0273,-2.5114,-1.2183,-0.4688,-0.0274,5.7471,0.4661,-1.2566,0.0502,1601,2019-08-07 16:31:28:837
7.0273,-2.5114,-1.2183,-0.4688,-0.0274,5.7471,0.4661,-1.2566,0.0502,1606,2019-08-07 16:31:28:842
7.0273,-2.5114,-1.2183,-0.4688,-0.0274,5.7471,0.5492,-1.6539,0.0757,1611,2019-08-07 16:31:28:847
8.9267,-1.8765,-1.0486,-0.4688,-0.0274,5.7471,0.5492,-1.6539,0.0757,1616,2019-08-07 16:31:28:852
8.9267,-1.8765,-1.0486,-2.6663,-1.2395,6.7782,0.5545,-1.5602,0.178,1621,2019-08-07 16:31:28:857
8.9267,-1.8765,-1.0486,-2.6663,-1.2395,6.7782,0.5545,-1.5602,0.178,1626,2019-08-07 16:31:28:862
10.7495,-1.8097,-1.0156,-2.6663,-1.2395,6.7782,0.6046,-1.0915,0.1865,1631,2019-08-07 16:31:28:867
10.7495,-1.8097,-1.0156,-2.6663,-1.2395,6.7782,0.6046,-1.0915,0.1865,1636,2019-08-07 16:31:28:872
9.4577,-1.3036,2.2416,-2.4121,-1.623,3.6547,0.7122,-0.2201,0.1418,1641,2019-08-07 16:31:28:877
9.4577,-1.3036,2.2416,-2.4121,-1.623,3.6547,0.7122,-0.2201,0.1418,1646,2019-08-07 16:31:28:882
9.4577,-1.3036,2.2416,-2.4121,-1.623,3.6547,0.6781,0.1783,0.0747,1650,2019-08-07 16:31:28:886
7.0225,-1.1891,4.8436,-2.4121,-1.623,3.6547,0.6781,0.1783,0.0747,1656,2019-08-07 16:31:28:892
7.0225,-1.1891,4.8436,0.8103,-1.6942,0.3515,0.5769,0.2359,-0.0287,1661,2019-08-07 16:31:28:897
7.0225,-1.1891,4.8436,0.8103,-1.6942,0.3515,0.5769,0.2359,-0.0287,1667,2019-08-07 16:31:28:903
5.6925,-1.3561,6.0975,0.8103,-1.6942,0.3515,0.5769,0.2359,-0.0287,1671,2019-08-07 16:31:28:907
5.6925,-1.3561,6.0975,0.8103,-1.6942,0.3515,0.5311,0.026,-0.1256,1676,2019-08-07 16:31:28:912
5.6925,-1.3561,6.0975,1.8908,-1.5495,-0.3867,0.5311,0.026,-0.1256,1681,2019-08-07 16:31:28:917
5.7212,-1.2798,6.0692,1.8908,-1.5495,-0.3867,0.4671,-0.1657,-0.1799,1686,2019-08-07 16:31:28:922
5.7212,-1.2798,6.0692,1.8908,-1.5495,-0.3867,0.4671,-0.1657,-0.1799,1691,2019-08-07 16:31:28:927
6.2427,-1.3752,6.3096,1.8908,-1.5495,-0.3867,0.3542,-0.4065,-0.2087,1695,2019-08-07 16:31:28:931
6.2427,-1.3752,6.3096,0.9735,-1.2574,-0.5379,0.3542,-0.4065,-0.2087,1701,2019-08-07 16:31:28:937
7.2283,-1.528,5.942,0.9735,-1.2574,-0.5379,0.2722,-0.5301,-0.2129,1707,2019-08-07 16:31:28:943
7.2283,-1.528,5.942,0.9735,-1.2574,-0.5379,0.2722,-0.5301,-0.2129,1711,2019-08-07 16:31:28:947
7.2283,-1.528,5.942,0.128,-1.1442,-0.2887,0.1678,-0.5961,-0.2066,1716,2019-08-07 16:31:28:952
8.6827,-1.3657,5.3952,0.128,-1.1442,-0.2887,0.1678,-0.5961,-0.2066,1721,2019-08-07 16:31:28:957
8.6827,-1.3657,5.3952,0.128,-1.1442,-0.2887,0.1678,-0.5961,-0.2066,1726,2019-08-07 16:31:28:962
8.6827,-1.3657,5.3952,-2.2564,-1.3324,0.6099,0.0112,-0.4459,-0.1799,1730,2019-08-07 16:31:28:966
10.1036,-1.3609,4.8955,-2.2564,-1.3324,0.6099,0.0112,-0.4459,-0.1799,1736,2019-08-07 16:31:28:972
10.1036,-1.3609,4.8955,-2.2564,-1.3324,0.6099,-0.1464,-0.039,-0.1288,1741,2019-08-07 16:31:28:977
10.3763,-1.7715,4.3534,-2.2564,-1.3324,0.6099,-0.1464,-0.039,-0.1288,1746,2019-08-07 16:31:28:982
10.3763,-1.7715,4.3534,-2.5545,-0.5958,1.2914,-0.1464,-0.039,-0.1288,1751,2019-08-07 16:31:28:987
10.3763,-1.7715,4.3534,-2.5545,-0.5958,1.2914,-0.2285,0.4447,-0.0553,1756,2019-08-07 16:31:28:992
9.8979,-2.2823,4.1271,-2.0588,-0.3257,1.3598,-0.2285,0.4447,-0.0553,1761,2019-08-07 16:31:28:997
9.8979,-2.2823,4.1271,-2.0588,-0.3257,1.3598,-0.2391,0.7973,0.0033,1766,2019-08-07 16:31:29:002
8.697,-2.2727,3.684,-2.0588,-0.3257,1.3598,-0.2391,0.7973,0.0033,1771,2019-08-07 16:31:29:007
8.697,-2.2727,3.684,-2.0588,-0.3257,1.3598,-0.2391,0.7973,0.0033,1776,2019-08-07 16:31:29:012
8.697,-2.2727,3.684,0.4164,-0.4792,2.8942,-0.2381,1.1126,0.048,1782,2019-08-07 16:31:29:018
6.6828,-2.1438,2.4585,0.4164,-0.4792,2.8942,-0.2381,1.1126,0.048,1786,2019-08-07 16:31:29:022
6.6828,-2.1438,2.4585,0.4164,-0.4792,2.8942,-0.2242,1.2095,0.0736,1791,2019-08-07 16:31:29:027
4.9127,-1.5137,0.6201,0.4164,-0.4792,2.8942,-0.2242,1.2095,0.0736,1795,2019-08-07 16:31:29:031
4.9127,-1.5137,0.6201,3.029,-1.6798,6.1203,-0.2136,1.2287,0.1056,1801,2019-08-07 16:31:29:037
4.9127,-1.5137,0.6201,3.029,-1.6798,6.1203,-0.2136,1.2287,0.1056,1806,2019-08-07 16:31:29:042
4.0946,-0.3966,-1.7793,3.029,-1.6798,6.1203,-0.2476,1.3555,0.1141,1811,2019-08-07 16:31:29:047
4.0946,-0.3966,-1.7793,3.029,-1.6798,6.1203,-0.2476,1.3555,0.1141,1816,2019-08-07 16:31:29:052
3.908,0.4675,-3.8722,3.4056,-3.2197,9.8029,-0.2476,1.3555,0.1141,1821,2019-08-07 16:31:29:057
3.908,0.4675,-3.8722,3.4056,-3.2197,9.8029,-0.3552,1.6729,0.064,1826,2019-08-07 16:31:29:062
3.908,0.4675,-3.8722,3.4056,-3.2197,9.8029,-0.3552,1.6729,0.064,1831,2019-08-07 16:31:29:067
3.7262,0.6489,-5.357,3.4453,-3.4524,11.1718,-0.4522,2.0639,0.0076,1836,2019-08-07 16:31:29:072
3.7262,0.6489,-5.357,3.4453,-3.4524,11.1718,-0.4522,2.0639,0.0076,1841,2019-08-07 16:31:29:077
3.3721,0.2813,-6.2574,3.4453,-3.4524,11.1718,-0.5172,2.5912,-0.0361,1846,2019-08-07 16:31:29:082
3.3721,0.2813,-6.2574,3.8342,-2.8759,12.8784,-0.5172,2.5912,-0.0361,1851,2019-08-07 16:31:29:087
3.3721,0.2813,-6.2574,3.8342,-2.8759,12.8784,-0.5726,3.3784,-0.0521,1856,2019-08-07 16:31:29:092
2.7263,-0.2773,-6.7476,3.8342,-2.8759,12.8784,-0.5726,3.3784,-0.0521,1861,2019-08-07 16:31:29:097
2.7263,-0.2773,-6.7476,3.8342,-2.8759,12.8784,-0.6024,4.0154,-0.034,1866,2019-08-07 16:31:29:102
2.7263,-0.2773,-6.7476,4.944,-2.5192,12.7025,-0.6024,4.0154,-0.034,1871,2019-08-07 16:31:29:107
1.3484,-0.4157,-5.5032,4.944,-2.5192,12.7025,-0.6024,4.0154,-0.034,1875,2019-08-07 16:31:29:111
1.3484,-0.4157,-5.5032,4.944,-2.5192,12.7025,-0.5821,4.5278,0.0299,1881,2019-08-07 16:31:29:117
1.3484,-0.4157,-5.5032,4.944,-2.5192,12.7025,-0.5821,4.5278,0.0299,1886,2019-08-07 16:31:29:122
0.248,-0.4014,-4.4237,6.0571,-2.5817,11.0935,-0.4724,4.8485,0.1354,1891,2019-08-07 16:31:29:127
0.248,-0.4014,-4.4237,6.0571,-2.5817,11.0935,-0.4724,4.8485,0.1354,1896,2019-08-07 16:31:29:132
-0.5605,-0.2963,-3.3961,6.0571,-2.5817,11.0935,-0.3776,5.0317,0.2568,1901,2019-08-07 16:31:29:137
-0.5605,-0.2963,-3.3961,6.0571,-2.5817,11.0935,-0.3776,5.0317,0.2568,1905,2019-08-07 16:31:29:141
-0.5605,-0.2963,-3.3961,6.0571,-2.5817,11.0935,-0.3627,5.168,0.4401,1911,2019-08-07 16:31:29:147
-1.1968,0.4579,-2.7409,6.3716,-3.5931,10.4629,-0.3627,5.168,0.4401,1916,2019-08-07 16:31:29:152
-1.1968,0.4579,-2.7409,6.3716,-3.5931,10.4629,-0.4618,5.3459,0.7256,1921,2019-08-07 16:31:29:157
-1.1968,0.4579,-2.7409,6.3716,-3.5931,10.4629,-0.4618,5.3459,0.7256,1926,2019-08-07 16:31:29:162
-1.8858,1.0833,-3.1793,6.3716,-3.5931,10.4629,-0.4618,5.3459,0.7256,1931,2019-08-07 16:31:29:167
-1.8858,1.0833,-3.1793,6.398,-4.3453,11.8964,-0.5853,5.608,0.929,1936,2019-08-07 16:31:29:172
-1.8858,1.0833,-3.1793,6.398,-4.3453,11.8964,-0.5853,5.608,0.929,1941,2019-08-07 16:31:29:177
-3.0962,0.9305,-4.485,6.398,-4.3453,11.8964,-0.8538,6.4293,1.2688,1946,2019-08-07 16:31:29:182
-3.0962,0.9305,-4.485,6.398,-4.3453,11.8964,-0.8538,6.4293,1.2688,1952,2019-08-07 16:31:29:188
-3.0962,0.9305,-4.485,7.5596,-3.9663,13.0187,-1.0828,7.6309,1.598,1956,2019-08-07 16:31:29:192
-5.3926,0.0617,-4.1126,7.5596,-3.9663,13.0187,-1.0828,7.6309,1.598,1961,2019-08-07 16:31:29:197
-5.3926,0.0617,-4.1126,8.6601,-3.1303,12.3259,-1.1329,8.1604,1.7194,1965,2019-08-07 16:31:29:201
-7.6269,-1.2177,-2.4251,8.6601,-3.1303,12.3259,-1.1329,8.1604,1.7194,1971,2019-08-07 16:31:29:207
-7.6269,-1.2177,-2.4251,8.6601,-3.1303,12.3259,-1.1329,8.1604,1.7194,1976,2019-08-07 16:31:29:212
-10.0955,-2.2918,0.3514,8.6601,-3.1303,12.3259,-1.1616,9.5622,1.9463,1981,2019-08-07 16:31:29:217
-10.0955,-2.2918,0.3514,13.0938,-0.4792,5.1969,-1.1616,9.5622,1.9463,1986,2019-08-07 16:31:29:222
-10.0955,-2.2918,0.3514,13.0938,-0.4792,5.1969,-0.9422,10.2099,1.8728,1991,2019-08-07 16:31:29:227
-15.6022,-4.5212,7.7992,14.984,0.4694,1.1136,-0.9422,10.2099,1.8728,1995,2019-08-07 16:31:29:231
-15.6022,-4.5212,7.7992,14.984,0.4694,1.1136,-0.8985,9.7583,1.6129,2001,2019-08-07 16:31:29:237
-15.6022,-4.5212,7.7992,14.984,0.4694,1.1136,-0.8985,9.7583,1.6129,2005,2019-08-07 16:31:29:241
-19.8697,-3.977,12.6921,14.984,0.4694,1.1136,-1.1105,8.8634,1.4009,2011,2019-08-07 16:31:29:247
-19.8697,-3.977,12.6921,18.8594,-1.0944,-5.6024,-1.1105,8.8634,1.4009,2016,2019-08-07 16:31:29:252
-19.8697,-3.977,12.6921,18.8594,-1.0944,-5.6024,-1.1105,8.8634,1.4009,2021,2019-08-07 16:31:29:257
-22.6877,-1.8001,14.2241,18.8594,-1.0944,-5.6024,-2.0256,6.2855,1.2784,2026,2019-08-07 16:31:29:262
-22.6877,-1.8001,14.2241,18.8594,-1.0944,-5.6024,-2.0256,6.2855,1.2784,2032,2019-08-07 16:31:29:268
-20.3864,-3.3134,13.2955,17.4084,-1.8175,-5.4678,-2.5816,5.1009,1.321,2036,2019-08-07 16:31:29:272
-20.3864,-3.3134,13.2955,17.4084,-1.8175,-5.4678,-2.5816,5.1009,1.321,2042,2019-08-07 16:31:29:278
-20.3864,-3.3134,13.2955,17.4084,-1.8175,-5.4678,-3.1824,3.65,1.2891,2047,2019-08-07 16:31:29:283
-17.8077,-7.0943,14.21,17.4084,-1.8175,-5.4678,-3.1824,3.65,1.2891,2051,2019-08-07 16:31:29:287
-17.8077,-7.0943,14.21,11.8853,5.6403,-7.4583,-3.0067,3.4327,1.124,2056,2019-08-07 16:31:29:292
-17.8077,-7.0943,14.21,11.8853,5.6403,-7.4583,-3.0067,3.4327,1.124,2061,2019-08-07 16:31:29:297
-15.6213,-12.6892,13.5736,10.6631,8.2677,-6.3279,-2.9204,3.5179,0.9493,2066,2019-08-07 16:31:29:302
-15.6213,-12.6892,13.5736,10.6631,8.2677,-6.3279,-2.9204,3.5179,0.9493,2072,2019-08-07 16:31:29:308
-15.3678,-13.7537,14.0685,10.6631,8.2677,-6.3279,-2.9204,3.5179,0.9493,2076,2019-08-07 16:31:29:312
-15.3678,-13.7537,14.0685,10.6631,8.2677,-6.3279,-3.0184,3.7715,0.8214,2081,2019-08-07 16:31:29:317
-16.1285,-12.8658,14.3514,10.5602,7.8561,-8.1762,-3.0184,3.7715,0.8214,2087,2019-08-07 16:31:29:323
-16.1285,-12.8658,14.3514,10.5602,7.8561,-8.1762,-2.9055,3.7821,0.8427,2091,2019-08-07 16:31:29:327
-16.1285,-12.8658,14.3514,10.5602,7.8561,-8.1762,-2.9055,3.7821,0.8427,2096,2019-08-07 16:31:29:332
-17.2288,-11.8012,14.0497,10.5602,7.8561,-8.1762,-2.8725,3.4412,0.8907,2101,2019-08-07 16:31:29:337
-17.2288,-11.8012,14.0497,11.5806,6.079,-8.672,-2.8725,3.4412,0.8907,2106,2019-08-07 16:31:29:342
-17.2288,-11.8012,14.0497,11.5806,6.079,-8.672,-2.8629,2.8085,0.9578,2111,2019-08-07 16:31:29:347
-17.1762,-11.4719,14.6389,11.5806,6.079,-8.672,-2.8629,2.8085,0.9578,2116,2019-08-07 16:31:29:352
-17.1762,-11.4719,14.6389,11.5806,6.079,-8.672,-2.7606,2.0244,0.9226,2121,2019-08-07 16:31:29:357
-17.1762,-11.4719,14.6389,11.5806,6.079,-8.672,-2.7606,2.0244,0.9226,2126,2019-08-07 16:31:29:362
-15.0137,-11.9301,14.4315,8.6918,6.286,-9.4906,-2.7606,2.0244,0.9226,2130,2019-08-07 16:31:29:366
-15.0137,-11.9301,14.4315,8.6918,6.286,-9.4906,-2.5795,1.3256,0.7788,2136,2019-08-07 16:31:29:372
-11.5452,-13.41,14.5682,8.6918,6.286,-9.4906,-2.5795,1.3256,0.7788,2141,2019-08-07 16:31:29:377
-11.5452,-13.41,14.5682,3.8903,8.129,-10.3569,-2.1502,0.8239,0.5189,2146,2019-08-07 16:31:29:382
-11.5452,-13.41,14.5682,3.8903,8.129,-10.3569,-2.1502,0.8239,0.5189,2151,2019-08-07 16:31:29:387
-8.3684,-14.7037,15.2376,3.8903,8.129,-10.3569,-1.5089,0.8558,0.1908,2155,2019-08-07 16:31:29:391
-8.3684,-14.7037,15.2376,3.8903,8.129,-10.3569,-1.5089,0.8558,0.1908,2161,2019-08-07 16:31:29:397
-7.3207,-14.36,15.3507,0.731,8.4558,-11.1136,-0.955,1.0657,-0.1054,2166,2019-08-07 16:31:29:402
-7.3207,-14.36,15.3507,0.731,8.4558,-11.1136,-0.955,1.0657,-0.1054,2172,2019-08-07 16:31:29:408
-7.3207,-14.36,15.3507,0.731,8.4558,-11.1136,-0.955,1.0657,-0.1054,2176,2019-08-07 16:31:29:412
-7.3877,-13.262,15.4167,0.7743,7.3084,-11.2871,-0.4341,1.1392,-0.3791,2181,2019-08-07 16:31:29:417
-7.3877,-13.262,15.4167,0.7743,7.3084,-11.2871,-0.4341,1.1392,-0.3791,2187,2019-08-07 16:31:29:423
-9.4114,-11.0422,14.4692,0.7743,7.3084,-11.2871,0.1092,0.5341,-0.6604,2191,2019-08-07 16:31:29:427
-9.4114,-11.0422,14.4692,3.5012,4.2433,-9.7857,0.1092,0.5341,-0.6604,2196,2019-08-07 16:31:29:432
-9.4114,-11.0422,14.4692,3.5012,4.2433,-9.7857,0.1966,-0.3287,-0.7754,2201,2019-08-07 16:31:29:437
-10.7365,-9.1852,12.4847,3.5012,4.2433,-9.7857,0.1966,-0.3287,-0.7754,2206,2019-08-07 16:31:29:442
-10.7365,-9.1852,12.4847,3.5012,4.2433,-9.7857,0.1966,-0.3287,-0.7754,2210,2019-08-07 16:31:29:446
-10.5834,-7.944,9.8214,3.916,1.6332,-4.7572,0.0687,-1.3642,-0.8255,2217,2019-08-07 16:31:29:453
-10.5834,-7.944,9.8214,3.916,1.6332,-4.7572,-0.1678,-2.1503,-0.8446,2221,2019-08-07 16:31:29:457
-10.5834,-7.944,9.8214,3.916,1.6332,-4.7572,-0.1678,-2.1503,-0.8446,2226,2019-08-07 16:31:29:462
-9.0716,-7.3568,6.6396,3.916,1.6332,-4.7572,-0.1678,-2.1503,-0.8446,2231,2019-08-07 16:31:29:467
-9.0716,-7.3568,6.6396,3.916,1.6332,-4.7572,-0.4032,-2.4827,-0.8809,2236,2019-08-07 16:31:29:472
-9.0716,-7.3568,6.6396,0.2995,0.8404,0.9526,-0.4032,-2.4827,-0.8809,2241,2019-08-07 16:31:29:477
-5.3782,-7.0943,2.3642,0.2995,0.8404,0.9526,-0.6034,-2.3229,-0.9235,2246,2019-08-07 16:31:29:482
-5.3782,-7.0943,2.3642,0.2995,0.8404,0.9526,-0.6034,-2.3229,-0.9235,2251,2019-08-07 16:31:29:487
-2.8138,-7.2327,0.1534,-3.0047,0.7882,4.4127,-0.8144,-1.3429,-1.0257,2256,2019-08-07 16:31:29:492
-2.8138,-7.2327,0.1534,-3.0047,0.7882,4.4127,-0.8144,-1.3429,-1.0257,2261,2019-08-07 16:31:29:497
-2.8138,-7.2327,0.1534,-3.0047,0.7882,4.4127,-0.873,-0.66,-1.0811,2266,2019-08-07 16:31:29:502
-2.1153,-7.3521,-0.7328,-3.5809,0.7897,5.2852,-0.873,-0.66,-1.0811,2272,2019-08-07 16:31:29:508
-2.1153,-7.3521,-0.7328,-3.5809,0.7897,5.2852,-0.873,-0.66,-1.0811,2276,2019-08-07 16:31:29:512
-2.1153,-7.3521,-0.7328,-3.5809,0.7897,5.2852,-0.9134,0.5,-1.1184,2281,2019-08-07 16:31:29:517
-3.785,-6.9606,0.0733,-3.5809,0.7897,5.2852,-0.9134,0.5,-1.1184,2286,2019-08-07 16:31:29:522
-3.785,-6.9606,0.0733,-0.7635,0.1307,3.375,-0.8346,1.1499,-1.0513,2291,2019-08-07 16:31:29:527
-6.4116,-6.8651,2.4585,-0.7635,0.1307,3.375,-0.8346,1.1499,-1.0513,2296,2019-08-07 16:31:29:532
-6.4116,-6.8651,2.4585,-0.7635,0.1307,3.375,-0.7409,0.9517,-0.9544,2301,2019-08-07 16:31:29:537
-6.4116,-6.8651,2.4585,-0.7635,0.1307,3.375,-0.7409,0.9517,-0.9544,2306,2019-08-07 16:31:29:542
-8.1482,-6.2923,4.4995,2.6184,-0.6804,-0.3717,-0.6684,0.1826,-0.8457,2311,2019-08-07 16:31:29:547
-8.1482,-6.2923,4.4995,2.6184,-0.6804,-0.3717,-0.6684,0.1826,-0.8457,2317,2019-08-07 16:31:29:553
-8.0143,-5.5905,4.41,2.6184,-0.6804,-0.3717,-0.6759,-0.8496,-0.753,2320,2019-08-07 16:31:29:556
-8.0143,-5.5905,4.41,2.6184,-0.6804,-0.3717,-0.6759,-0.8496,-0.753,2326,2019-08-07 16:31:29:562
-8.0143,-5.5905,4.41,1.6813,-1.5277,0.544,-0.7046,-1.6827,-0.6859,2331,2019-08-07 16:31:29:567
-6.2011,-5.8292,2.845,1.6813,-1.5277,0.544,-0.7046,-1.6827,-0.6859,2336,2019-08-07 16:31:29:572
-6.2011,-5.8292,2.845,1.6813,-1.5277,0.544,-0.6876,-2.0406,-0.6625,2340,2019-08-07 16:31:29:576
-4.0147,-6.7124,1.9305,1.6813,-1.5277,0.544,-0.6876,-2.0406,-0.6625,2346,2019-08-07 16:31:29:582
-4.0147,-6.7124,1.9305,-1.4995,-0.3941,2.3452,-0.6876,-2.0406,-0.6625,2352,2019-08-07 16:31:29:588
-4.0147,-6.7124,1.9305,-1.4995,-0.3941,2.3452,-0.596,-1.8989,-0.6582,2356,2019-08-07 16:31:29:592
-2.3067,-7.247,1.544,-1.4995,-0.3941,2.3452,-0.596,-1.8989,-0.6582,2361,2019-08-07 16:31:29:597
-2.3067,-7.247,1.544,-1.4995,-0.3941,2.3452,-0.4373,-1.1916,-0.6476,2366,2019-08-07 16:31:29:602
-1.4694,-7.3377,1.3319,-3.4323,-0.0273,2.9068,-0.4373,-1.1916,-0.6476,2371,2019-08-07 16:31:29:607
-1.4694,-7.3377,1.3319,-3.4323,-0.0273,2.9068,-0.3105,-0.3532,-0.6337,2376,2019-08-07 16:31:29:612
-1.4694,-7.3377,1.3319,-3.4323,-0.0273,2.9068,-0.3105,-0.3532,-0.6337,2380,2019-08-07 16:31:29:616
-1.1872,-7.142,1.3271,-3.4323,-0.0273,2.9068,-0.1965,0.4798,-0.6124,2386,2019-08-07 16:31:29:622
-1.1872,-7.142,1.3271,-2.9217,-0.5774,2.4174,-0.1965,0.4798,-0.6124,2391,2019-08-07 16:31:29:627
-2.2349,-6.8222,2.0107,-2.9217,-0.5774,2.4174,-0.1049,0.9752,-0.5687,2396,2019-08-07 16:31:29:632
-2.2349,-6.8222,2.0107,-2.9217,-0.5774,2.4174,-0.1049,0.9752,-0.5687,2401,2019-08-07 16:31:29:637
-2.2349,-6.8222,2.0107,-2.9217,-0.5774,2.4174,-0.1049,0.9752,-0.5687,2405,2019-08-07 16:31:29:641
-4.383,-6.6837,4.0187,-0.0817,-0.8096,-0.3233,0.1018,1.3299,-0.4068,2411,2019-08-07 16:31:29:647
-4.383,-6.6837,4.0187,-0.0817,-0.8096,-0.3233,0.2125,1.0348,-0.2843,2417,2019-08-07 16:31:29:653
-5.8901,-6.4021,5.3905,-0.0817,-0.8096,-0.3233,0.2125,1.0348,-0.2843,2421,2019-08-07 16:31:29:657
-5.8901,-6.4021,5.3905,-0.0817,-0.8096,-0.3233,0.2125,1.0348,-0.2843,2426,2019-08-07 16:31:29:662
-5.8901,-6.4021,5.3905,1.6458,-1.6151,-1.5218,0.2541,0.5959,-0.1852,2430,2019-08-07 16:31:29:666
-6.5407,-5.7862,5.5743,1.6458,-1.6151,-1.5218,0.2541,0.5959,-0.1852,2436,2019-08-07 16:31:29:672
-6.5407,-5.7862,5.5743,1.6458,-1.6151,-1.5218,0.2072,-0.4257,0.0193,2441,2019-08-07 16:31:29:677
-6.091,-5.6764,5.0841,1.6458,-1.6151,-1.5218,0.2072,-0.4257,0.0193,2446,2019-08-07 16:31:29:682
-6.091,-5.6764,5.0841,0.4899,-1.5097,-0.3364,0.1444,-0.8411,0.1002,2451,2019-08-07 16:31:29:687
-6.091,-5.6764,5.0841,0.4899,-1.5097,-0.3364,0.1444,-0.8411,0.1002,2456,2019-08-07 16:31:29:692
-4.4357,-6.4164,3.981,0.4899,-1.5097,-0.3364,0.1444,-0.8411,0.1002,2461,2019-08-07 16:31:29:697
-4.4357,-6.4164,3.981,-0.6032,-0.8905,0.4118,0.0762,-1.1287,0.1695,2465,2019-08-07 16:31:29:701
-3.5937,-7.0131,3.2692,-0.6032,-0.8905,0.4118,0.0762,-1.1287,0.1695,2471,2019-08-07 16:31:29:707
-3.5937,-7.0131,3.2692,-0.6032,-0.8905,0.4118,0.0762,-1.1287,0.1695,2476,2019-08-07 16:31:29:712
-3.5937,-7.0131,3.2692,-0.6032,-0.8905,0.4118,0.0762,-0.8326,0.194,2480,2019-08-07 16:31:29:716
-3.187,-7.2184,2.8167,-1.5654,-0.2143,1.46,0.0613,-0.8326,0.194,2486,2019-08-07 16:31:29:722
-3.187,-7.2184,2.8167,-1.5654,-0.2143,1.46,0.0613,-0.8326,0.194,2491,2019-08-07 16:31:29:727
-3.9094,-7.0322,3.2881,-1.5654,-0.2143,1.46,0.0805,-0.0283,0.1727,2495,2019-08-07 16:31:29:731
-3.9094,-7.0322,3.2881,-0.3073,-0.5494,0.6707,0.0805,-0.0283,0.1727,2501,2019-08-07 16:31:29:737
-3.9094,-7.0322,3.2881,-0.3073,-0.5494,0.6707,0.0783,0.3435,0.1514,2506,2019-08-07 16:31:29:742
-5.182,-6.8269,3.948,-0.3073,-0.5494,0.6707,0.0783,0.3435,0.1514,2511,2019-08-07 16:31:29:747
-5.182,-6.8269,3.948,-0.3073,-0.5494,0.6707,0.04,0.3669,0.1333,2517,2019-08-07 16:31:29:753
-6.292,-6.6742,4.6268,1.4953,-0.75,-0.3712,0.04,0.3669,0.1333,2520,2019-08-07 16:31:29:756
-6.292,-6.6742,4.6268,1.4953,-0.75,-0.3712,6.0E-4,0.1858,0.1152,2526,2019-08-07 16:31:29:762
-6.292,-6.6742,4.6268,1.4953,-0.75,-0.3712,6.0E-4,0.1858,0.1152,2530,2019-08-07 16:31:29:766
-6.6795,-6.7315,4.8814,1.8592,-0.6824,-0.6344,6.0E-4,0.1858,0.1152,2536,2019-08-07 16:31:29:772
-6.6795,-6.7315,4.8814,1.8592,-0.6824,-0.6344,-0.058,-0.17,0.0736,2541,2019-08-07 16:31:29:777
-6.4451,-6.8508,4.509,1.8592,-0.6824,-0.6344,-0.058,-0.17,0.0736,2546,2019-08-07 16:31:29:782
-6.4451,-6.8508,4.509,1.8592,-0.6824,-0.6344,-0.1113,-0.4076,0.0267,2551,2019-08-07 16:31:29:787
-5.6892,-7.2566,3.9103,1.1812,-0.2974,0.2379,-0.1113,-0.4076,0.0267,2556,2019-08-07 16:31:29:792
-5.6892,-7.2566,3.9103,1.1812,-0.2974,0.2379,-0.1539,-0.512,-0.0276,2561,2019-08-07 16:31:29:797
-5.6892,-7.2566,3.9103,1.1812,-0.2974,0.2379,-0.1539,-0.512,-0.0276,2567,2019-08-07 16:31:29:803
-4.9524,-7.543,3.717,0.0805,0.1404,0.7065,-0.1699,-0.4427,-0.0787,2570,2019-08-07 16:31:29:806
-4.9524,-7.543,3.717,0.0805,0.1404,0.7065,-0.1699,-0.4427,-0.0787,2576,2019-08-07 16:31:29:812
-4.6271,-7.6385,3.4107,0.0805,0.1404,0.7065,-0.1678,-0.3074,-0.1128,2581,2019-08-07 16:31:29:817
-4.6271,-7.6385,3.4107,-0.2117,0.2031,0.8646,-0.1678,-0.3074,-0.1128,2586,2019-08-07 16:31:29:822
-4.6271,-7.6385,3.4107,-0.2117,0.2031,0.8646,-0.1678,-0.3074,-0.1128,2591,2019-08-07 16:31:29:827
-4.5409,-7.5,3.5521,-0.2117,0.2031,0.8646,-0.1571,-0.0432,-0.149,2596,2019-08-07 16:31:29:832
-4.5409,-7.5,3.5521,-0.2117,0.2031,0.8646,-0.1571,-0.0432,-0.149,2601,2019-08-07 16:31:29:837
-4.962,-7.3712,3.9386,-0.0206,0.0057,0.4851,-0.1507,0.0867,-0.1565,2606,2019-08-07 16:31:29:842
-4.962,-7.3712,3.9386,-0.0206,0.0057,0.4851,-0.1411,0.0697,-0.1629,2613,2019-08-07 16:31:29:849
-4.962,-7.3712,3.9386,-0.0206,0.0057,0.4851,-0.1411,0.0697,-0.1629,2617,2019-08-07 16:31:29:853
-5.4882,-7.2232,4.2261,-0.0206,0.0057,0.4851,-0.1411,0.0697,-0.1629,2621,2019-08-07 16:31:29:857
-5.4882,-7.2232,4.2261,0.8507,-0.2729,-0.194,-0.1209,-0.1189,-0.1512,2626,2019-08-07 16:31:29:862
-5.6604,-7.0752,4.5844,0.8507,-0.2729,-0.194,-0.1209,-0.1189,-0.1512,2631,2019-08-07 16:31:29:867
-5.6604,-7.0752,4.5844,0.8507,-0.2729,-0.194,-0.0964,-0.3735,-0.1352,2636,2019-08-07 16:31:29:872
-5.6604,-7.0752,4.5844,0.8507,-0.2729,-0.194,-0.0964,-0.3735,-0.1352,2641,2019-08-07 16:31:29:877
-5.3734,-6.9797,4.3487,0.6982,-0.5293,-0.1068,-0.0889,-0.6004,-0.1171,2646,2019-08-07 16:31:29:882
-5.3734,-6.9797,4.3487,0.6982,-0.5293,-0.1068,-0.0889,-0.6004,-0.1171,2651,2019-08-07 16:31:29:887
-5.3734,-6.9797,4.3487,0.6982,-0.5293,-0.1068,-0.0889,-0.6004,-0.1171,2656,2019-08-07 16:31:29:892
-4.5696,-7.1181,3.8726,0.6982,-0.5293,-0.1068,-0.0772,-0.7463,-0.1203,2660,2019-08-07 16:31:29:896
-4.5696,-7.1181,3.8726,-0.3329,-0.4127,0.528,-0.0772,-0.7463,-0.1203,2665,2019-08-07 16:31:29:901
-3.9142,-7.099,3.5191,-0.3329,-0.4127,0.528,-0.0612,-0.6962,-0.1277,2671,2019-08-07 16:31:29:907
-3.9142,-7.099,3.5191,-0.3329,-0.4127,0.528,-0.0612,-0.6962,-0.1277,2676,2019-08-07 16:31:29:912
-3.9142,-7.099,3.5191,-0.3329,-0.4127,0.528,-0.0303,-0.5226,-0.1299,2681,2019-08-07 16:31:29:917
-3.4549,-7.1038,3.2032,-1.0694,-0.442,1.1359,-0.0303,-0.5226,-0.1299,2686,2019-08-07 16:31:29:922
-3.4549,-7.1038,3.2032,-1.0694,-0.442,1.1359,0.0038,-0.1828,-0.1235,2691,2019-08-07 16:31:29:927
-3.4549,-7.1038,3.2032,-1.0694,-0.442,1.1359,0.0038,-0.1828,-0.1235,2696,2019-08-07 16:31:29:932
-3.3544,-7.1038,3.1608,-1.0694,-0.442,1.1359,0.0261,0.0399,-0.1107,2701,2019-08-07 16:31:29:937
-3.3544,-7.1038,3.1608,-0.9523,-0.4914,1.1358,0.0261,0.0399,-0.1107,2706,2019-08-07 16:31:29:942
-3.7755,-7.0513,3.2692,-0.9523,-0.4914,1.1358,0.0666,0.3392,-0.0755,2711,2019-08-07 16:31:29:947
-3.7755,-7.0513,3.2692,-0.9523,-0.4914,1.1358,0.0666,0.3392,-0.0755,2716,2019-08-07 16:31:29:952
-3.7755,-7.0513,3.2692,-0.9523,-0.4914,1.1358,0.1028,0.4191,-0.0404,2721,2019-08-07 16:31:29:957
-4.718,-6.9511,4.0187,0.2105,-0.6123,0.3073,0.1028,0.4191,-0.0404,2726,2019-08-07 16:31:29:962
-4.718,-6.9511,4.0187,0.2105,-0.6123,0.3073,0.1028,0.4191,-0.0404,2730,2019-08-07 16:31:29:966
-5.2012,-6.8604,4.4194,0.676,-0.6966,-0.1007,0.1358,0.3328,-0.0063,2736,2019-08-07 16:31:29:972
-5.2012,-6.8604,4.4194,0.676,-0.6966,-0.1007,0.1358,0.3328,-0.0063,2741,2019-08-07 16:31:29:977
-5.2012,-6.8604,4.4194,0.676,-0.6966,-0.1007,0.1401,0.1166,0.0299,2746,2019-08-07 16:31:29:982
-5.426,-6.741,4.6504,0.676,-0.6966,-0.1007,0.1401,0.1166,0.0299,2752,2019-08-07 16:31:29:988
-5.426,-6.741,4.6504,0.7521,-0.8288,-0.1513,0.1145,-0.1956,0.0694,2756,2019-08-07 16:31:29:992
-5.1485,-6.7935,4.3817,0.7521,-0.8288,-0.1513,0.1145,-0.1956,0.0694,2761,2019-08-07 16:31:29:997
-5.1485,-6.7935,4.3817,0.7521,-0.8288,-0.1513,0.0783,-0.3671,0.08,2766,2019-08-07 16:31:30:002
-5.1485,-6.7935,4.3817,0.7521,-0.8288,-0.1513,0.0783,-0.3671,0.08,2771,2019-08-07 16:31:30:007
-4.7658,-7.0418,4.146,0.2338,-0.477,0.2318,0.0783,-0.3671,0.08,2776,2019-08-07 16:31:30:012
-4.7658,-7.0418,4.146,0.2338,-0.477,0.2318,0.0336,-0.4299,0.0736,2782,2019-08-07 16:31:30:018
-4.3496,-7.1707,3.9103,0.2338,-0.477,0.2318,0.0336,-0.4299,0.0736,2785,2019-08-07 16:31:30:021
-4.3496,-7.1707,3.9103,0.2338,-0.477,0.2318,0.0059,-0.3873,0.0555,2791,2019-08-07 16:31:30:027
-4.3496,-7.1707,3.9103,-0.3919,-0.3415,0.7119,0.0059,-0.3873,0.0555,2796,2019-08-07 16:31:30:032
-4.0912,-7.142,3.7029,-0.3919,-0.3415,0.7119,-0.0186,-0.2414,0.0225,2801,2019-08-07 16:31:30:037
-4.0912,-7.142,3.7029,-0.3919,-0.3415,0.7119,-0.0186,-0.2414,0.0225,2806,2019-08-07 16:31:30:042
-4.0912,-7.142,3.7029,-0.3919,-0.3415,0.7119,-0.0634,0.0228,0.0022,2810,2019-08-07 16:31:30:046
-4.0147,-7.0847,3.5709,-0.4168,-0.3802,0.7918,-0.0634,0.0228,0.0022,2817,2019-08-07 16:31:30:053
-4.0147,-7.0847,3.5709,-0.4168,-0.3802,0.7918,-0.0804,0.2316,-0.0052,2821,2019-08-07 16:31:30:057
-4.0147,-7.0847,3.5709,-0.4168,-0.3802,0.7918,-0.0804,0.2316,-0.0052,2826,2019-08-07 16:31:30:062
-4.4022,-7.1516,3.7925,-0.4168,-0.3802,0.7918,-0.0804,0.2316,-0.0052,2831,2019-08-07 16:31:30:067
-4.4022,-7.1516,3.7925,0.1942,-0.4461,0.3456,-0.0868,0.3701,-0.0105,2837,2019-08-07 16:31:30:073
-4.4022,-7.1516,3.7925,0.1942,-0.4461,0.3456,-0.0868,0.3701,-0.0105,2841,2019-08-07 16:31:30:077
-5.0002,-7.0465,4.179,0.1942,-0.4461,0.3456,-0.0847,0.3861,-0.0084,2845,2019-08-07 16:31:30:081
-5.0002,-7.0465,4.179,0.5674,-0.5256,0.1178,-0.0847,0.3861,-0.0084,2852,2019-08-07 16:31:30:088
-5.3591,-6.994,4.3393,0.5674,-0.5256,0.1178,-0.0836,0.254,0.0044,2856,2019-08-07 16:31:30:092
-5.3591,-6.994,4.3393,0.5674,-0.5256,0.1178,-0.0836,0.254,0.0044,2861,2019-08-07 16:31:30:097
-5.3591,-6.9892,4.278,0.8478,-0.5619,0.0428,-0.0772,0.1144,0.0203,2866,2019-08-07 16:31:30:102
-5.3351,-6.9892,4.278,0.8478,-0.5619,0.0428,-0.0772,0.1144,0.0203,2871,2019-08-07 16:31:30:107
-5.3351,-6.9892,4.278,0.8478,-0.5619,0.0428,-0.0772,0.1144,0.0203,2876,2019-08-07 16:31:30:112
-5.0576,-7.0179,4.0942,0.8478,-0.5619,0.0428,-0.0676,-0.0123,0.0225,2881,2019-08-07 16:31:30:117
-5.0576,-7.0179,4.0942,0.403,-0.4771,0.3136,-0.0676,-0.0123,0.0225,2885,2019-08-07 16:31:30:121
-5.0576,-7.0179,4.0942,0.403,-0.4771,0.3136,-0.0548,-0.1018,0.0193,2891,2019-08-07 16:31:30:127
-4.7993,-7.0513,3.9763,0.403,-0.4771,0.3136,-0.0548,-0.1018,0.0193,2896,2019-08-07 16:31:30:132
-4.7993,-7.0513,3.9763,0.403,-0.4771,0.3136,-0.0346,-0.1253,0.014,2901,2019-08-07 16:31:30:137
-4.5122,-7.0847,3.8207,-0.066,-0.4497,0.4814,-0.0346,-0.1253,0.014,2906,2019-08-07 16:31:30:142
-4.5122,-7.0847,3.8207,-0.066,-0.4497,0.4814,-0.0165,-0.0933,0.0076,2911,2019-08-07 16:31:30:147
-4.5122,-7.0847,3.8207,-0.066,-0.4497,0.4814,-0.0165,-0.0933,0.0076,2916,2019-08-07 16:31:30:152
-4.3735,-7.0847,3.8537,-0.066,-0.4497,0.4814,-0.0048,-0.0123,1.0E-4,2920,2019-08-07 16:31:30:156
-4.3735,-7.0847,3.8537,-0.066,-0.4497,0.4814,-0.0048,-0.0123,1.0E-4,2926,2019-08-07 16:31:30:162
-4.4022,-7.0609,3.8443,-0.212,-0.4649,0.4493,0.0123,0.0739,0.0033,2931,2019-08-07 16:31:30:167
-4.4022,-7.0609,3.8443,-0.212,-0.4649,0.4493,0.0123,0.0739,0.0033,2936,2019-08-07 16:31:30:172
-4.4022,-7.0609,3.8443,-0.212,-0.4649,0.4493,0.0123,0.0739,0.0033,2941,2019-08-07 16:31:30:177
-4.5505,-7.0322,4.047,0.0473,-0.5282,0.1631,0.024,0.1442,0.0267,2946,2019-08-07 16:31:30:182
-4.5505,-7.0322,4.047,0.0473,-0.5282,0.1631,0.024,0.1442,0.0267,2952,2019-08-07 16:31:30:188
-4.8328,-6.9988,4.1696,0.0473,-0.5282,0.1631,0.0357,0.14,0.048,2956,2019-08-07 16:31:30:192
-4.8328,-6.9988,4.1696,0.0473,-0.5282,0.1631,0.0357,0.14,0.048,2961,2019-08-07 16:31:30:197
-4.8328,-6.9988,4.1696,0.0473,-0.5282,0.1631,0.0293,0.0889,0.064,2966,2019-08-07 16:31:30:202
-4.9572,-6.994,4.1224,0.3599,-0.5758,0.1608,0.0293,0.0889,0.064,2971,2019-08-07 16:31:30:207
-4.9572,-6.994,4.1224,0.3599,-0.5758,0.1608,0.0293,0.0889,0.064,2975,2019-08-07 16:31:30:211
-4.9572,-6.994,4.1224,0.3884,-0.4935,0.1748,0.0272,0.0068,0.0843,2981,2019-08-07 16:31:30:217
-4.8998,-6.9845,4.1507,0.3884,-0.4935,0.1748,0.0272,0.0068,0.0843,2987,2019-08-07 16:31:30:223
-4.8998,-6.9845,4.1507,0.3884,-0.4935,0.1748,0.0272,0.0068,0.0843,2990,2019-08-07 16:31:30:226
-4.8519,-6.9845,4.0564,0.3884,-0.4935,0.1748,0.0251,-0.039,0.0896,2996,2019-08-07 16:31:30:232
-4.8519,-6.9845,4.0564,0.1583,-0.5002,0.2419,0.0251,-0.039,0.0896,3001,2019-08-07 16:31:30:237
-4.8519,-6.9845,4.0564,0.1583,-0.5002,0.2419,0.0251,-0.039,0.0896,3006,2019-08-07 16:31:30:242
-4.7275,-7.0561,3.9386,0.0846,-0.4421,0.3575,0.0144,-0.0166,0.0821,3011,2019-08-07 16:31:30:247
-4.7275,-7.0561,3.9386,0.0846,-0.4421,0.3575,0.0144,-0.0166,0.0821,3016,2019-08-07 16:31:30:252
-4.7275,-7.0561,3.9386,0.0846,-0.4421,0.3575,0.0144,-0.0166,0.0821,3021,2019-08-07 16:31:30:257
-4.7323,-7.0847,3.9857,0.049,-0.3949,0.3198,0.0027,-6.0E-4,0.0779,3026,2019-08-07 16:31:30:262
-4.7323,-7.0847,3.9857,0.049,-0.3949,0.3198,0.0027,-6.0E-4,0.0779,3030,2019-08-07 16:31:30:266
-4.7323,-7.0847,3.9857,-0.0184,-0.3133,0.4306,-0.0112,0.0857,0.0448,3036,2019-08-07 16:31:30:272
-4.6462,-7.1754,3.8585,-0.0184,-0.3133,0.4306,-0.0112,0.0857,0.0448,3041,2019-08-07 16:31:30:277
-4.6462,-7.1754,3.8585,-0.0184,-0.3133,0.4306,-0.0154,0.1293,0.0257,3046,2019-08-07 16:31:30:282
-4.718,-7.1897,3.9527,-0.0184,-0.3133,0.4306,-0.0154,0.1293,0.0257,3051,2019-08-07 16:31:30:287
-4.718,-7.1897,3.9527,-0.0184,-0.3133,0.4306,-0.0186,0.1592,0.0214,3055,2019-08-07 16:31:30:291
-4.718,-7.1897,3.9527,0.1462,-0.3215,0.2587,-0.0186,0.1592,0.0214,3061,2019-08-07 16:31:30:297
-4.8424,-7.1802,4.0989,0.1462,-0.3215,0.2587,-0.0154,0.1592,0.0193,3065,2019-08-07 16:31:30:301
-4.8424,-7.1802,4.0989,0.1462,-0.3215,0.2587,-0.0154,0.1592,0.0193,3071,2019-08-07 16:31:30:307
-5.1246,-7.142,4.2167,0.1462,-0.3215,0.2587,-0.0133,0.1123,0.0172,3076,2019-08-07 16:31:30:312
-5.1246,-7.142,4.2167,0.429,-0.3575,0.0535,-0.0133,0.1123,0.0172,3081,2019-08-07 16:31:30:317
-5.1246,-7.142,4.2167,0.429,-0.3575,0.0535,-0.0133,0.0441,0.0225,3085,2019-08-07 16:31:30:321
-5.1438,-7.0943,4.1696,0.429,-0.3575,0.0535,-0.0133,0.0441,0.0225,3091,2019-08-07 16:31:30:327
-5.1438,-7.0943,4.1696,0.429,-0.3575,0.0535,-0.008,-0.0251,0.0214,3096,2019-08-07 16:31:30:332
-5.0768,-7.0561,4.1696,0.3663,-0.4257,0.0813,-0.008,-0.0251,0.0214,3101,2019-08-07 16:31:30:337
-5.0768,-7.0561,4.1696,0.3663,-0.4257,0.0813,-0.0016,-0.0784,0.0161,3106,2019-08-07 16:31:30:342
-5.0768,-7.0561,4.1696,0.3663,-0.4257,0.0813,-0.0016,-0.0784,0.0161,3111,2019-08-07 16:31:30:347
-4.8806,-7.0322,4.014,0.3663,-0.4257,0.0813,-0.0069,-0.0933,0.0108,3115,2019-08-07 16:31:30:351
-4.8806,-7.0322,4.014,0.0898,-0.4088,0.3415,-0.0069,-0.0933,0.0108,3121,2019-08-07 16:31:30:357
-4.6845,-7.0895,3.9056,0.0898,-0.4088,0.3415,6.0E-4,-0.0784,0.0012,3127,2019-08-07 16:31:30:363
-4.6845,-7.0895,3.9056,0.0898,-0.4088,0.3415,6.0E-4,-0.0784,0.0012,3131,2019-08-07 16:31:30:367
-4.517,-7.1611,3.9009,0.0898,-0.4088,0.3415,0.0112,-0.023,-0.0031,3136,2019-08-07 16:31:30:372
-4.517,-7.1611,3.9009,-0.193,-0.356,0.4127,0.0112,-0.023,-0.0031,3141,2019-08-07 16:31:30:377
-4.517,-7.1611,3.9009,-0.193,-0.356,0.4127,0.0112,-0.023,-0.0031,3147,2019-08-07 16:31:30:383
-4.4501,-7.1516,3.8207,-0.193,-0.356,0.4127,0.0229,0.0633,-0.0169,3150,2019-08-07 16:31:30:386
-4.4501,-7.1516,3.8207,-0.193,-0.356,0.4127,0.0229,0.0633,-0.0169,3155,2019-08-07 16:31:30:391
-4.4501,-7.1516,3.8207,-0.2338,-0.3088,0.4279,0.0325,0.14,-0.0244,3161,2019-08-07 16:31:30:397
-4.4596,-7.1611,3.8113,-0.2338,-0.3088,0.4279,0.0325,0.14,-0.0244,3166,2019-08-07 16:31:30:402
-4.4596,-7.1611,3.8113,-0.2338,-0.3088,0.4279,0.041,0.1943,-0.0223,3170,2019-08-07 16:31:30:406
-4.6606,-7.185,3.9009,-0.2338,-0.3088,0.4279,0.041,0.1943,-0.0223,3176,2019-08-07 16:31:30:412
-4.6606,-7.185,3.9009,0.0396,-0.341,0.2782,0.0496,0.2114,-0.0137,3181,2019-08-07 16:31:30:417
-4.6606,-7.185,3.9009,0.0396,-0.341,0.2782,0.0496,0.2114,-0.0137,3186,2019-08-07 16:31:30:422
-4.9333,-7.0799,4.1319,0.0396,-0.341,0.2782,0.056,0.1464,0.0097,3191,2019-08-07 16:31:30:427
-4.9333,-7.0799,4.1319,0.0396,-0.341,0.2782,0.056,0.1464,0.0097,3196,2019-08-07 16:31:30:432
-5.0579,-7.0083,4.2449,0.3188,-0.463,-0.0074,0.056,0.1464,0.0097,3201,2019-08-07 16:31:30:437
-5.0579,-7.0083,4.2449,0.3188,-0.463,-0.0074,0.0581,0.0601,0.0257,3205,2019-08-07 16:31:30:441
-5.0579,-7.0083,4.2449,0.3188,-0.463,-0.0074,0.0581,0.0601,0.0257,3211,2019-08-07 16:31:30:447
-4.9909,-6.9463,4.3015,0.3188,-0.463,-0.0074,0.057,-0.0315,0.0406,3216,2019-08-07 16:31:30:452
-4.9909,-6.9463,4.3015,0.2242,-0.5045,-0.0117,0.057,-0.0315,0.0406,3221,2019-08-07 16:31:30:457
-4.9909,-6.9463,4.3015,0.2242,-0.5045,-0.0117,0.0517,-0.0997,0.048,3226,2019-08-07 16:31:30:462
-4.7996,-6.9988,4.0941,0.2242,-0.5045,-0.0117,0.0442,-0.1125,0.0427,3232,2019-08-07 16:31:30:468
-4.7996,-6.9988,4.0941,0.2242,-0.5045,-0.0117,0.0442,-0.1125,0.0427,3236,2019-08-07 16:31:30:472
-4.6656,-7.0417,3.9904,-0.0813,-0.4092,0.2742,0.0442,-0.1125,0.0427,3241,2019-08-07 16:31:30:477
-4.6656,-7.0417,3.9904,-0.0813,-0.4092,0.2742,0.0496,-0.0816,0.0289,3246,2019-08-07 16:31:30:482
-4.6656,-7.0417,3.9904,-0.0813,-0.4092,0.2742,0.0496,-0.0816,0.0289,3251,2019-08-07 16:31:30:487
-4.6225,-7.037,3.9715,-0.0813,-0.4092,0.2742,0.0602,-0.0091,0.0182,3256,2019-08-07 16:31:30:492
-4.6225,-7.037,3.9715,-0.1583,-0.4163,0.3806,0.0602,-0.0091,0.0182,3261,2019-08-07 16:31:30:497
-4.5938,-7.0274,3.8678,-0.1583,-0.4163,0.3806,0.0581,0.058,0.0044,3265,2019-08-07 16:31:30:501
-4.5938,-7.0274,3.8678,-0.1583,-0.4163,0.3806,0.0581,0.058,0.0044,3271,2019-08-07 16:31:30:507
-4.5938,-7.0274,3.8678,-0.1583,-0.4163,0.3806,0.057,0.1336,-0.0063,3276,2019-08-07 16:31:30:512
-4.7374,-7.0131,3.9904,0.0431,-0.4061,0.2951,0.057,0.1336,-0.0063,3282,2019-08-07 16:31:30:518
-4.7374,-7.0131,3.9904,0.0431,-0.4061,0.2951,0.0602,0.1794,-0.0095,3286,2019-08-07 16:31:30:522
-4.7374,-7.0131,3.9904,0.0431,-0.4061,0.2951,0.0602,0.1794,-0.0095,3291,2019-08-07 16:31:30:527
-4.9048,-6.994,4.0658,0.0431,-0.4061,0.2951,0.056,0.1858,-0.0084,3296,2019-08-07 16:31:30:532
-4.9048,-6.994,4.0658,0.2703,-0.4053,-0.0109,0.056,0.1858,-0.0084,3301,2019-08-07 16:31:30:537
-5.1201,-7.0274,4.2779,0.2703,-0.4053,-0.0109,0.056,0.1858,-0.0084,3305,2019-08-07 16:31:30:541
-5.1201,-7.0274,4.2779,0.2703,-0.4053,-0.0109,0.0496,0.1357,1.0E-4,3311,2019-08-07 16:31:30:547
-5.1201,-7.0274,4.2779,0.2703,-0.4053,-0.0109,0.0496,0.1357,1.0E-4,3316,2019-08-07 16:31:30:552
-5.211,-7.0942,4.3675,0.2703,-0.4053,-0.0109,0.0506,0.075,0.0022,3320,2019-08-07 16:31:30:556
-5.211,-7.0942,4.3675,0.4042,-0.3934,-0.1232,0.0506,0.075,0.0022,3327,2019-08-07 16:31:30:563
-5.211,-7.0942,4.3675,0.4042,-0.3934,-0.1232,0.0485,0.009,0.0033,3331,2019-08-07 16:31:30:567
-5.2158,-6.9653,4.3392,0.4042,-0.3934,-0.1232,0.0485,0.009,0.0033,3335,2019-08-07 16:31:30:571
-5.2158,-6.9653,4.3392,0.3041,-0.4387,0.026,0.0389,-0.0613,0.0076,3341,2019-08-07 16:31:30:577
-5.0914,-6.9606,4.2119,0.3041,-0.4387,0.026,0.0389,-0.0613,0.0076,3346,2019-08-07 16:31:30:582
-5.0914,-6.9606,4.2119,0.3041,-0.4387,0.026,0.0283,-0.1008,-0.001,3351,2019-08-07 16:31:30:587
-5.0914,-6.9606,4.2119,0.3041,-0.4387,0.026,0.0283,-0.1008,-0.001,3355,2019-08-07 16:31:30:591
-4.8953,-6.994,4.0611,0.3041,-0.4387,0.026,0.0272,-0.1018,-0.0137,3361,2019-08-07 16:31:30:597
-4.8953,-6.994,4.0611,0.0468,-0.4297,0.2424,0.0272,-0.1018,-0.0137,3366,2019-08-07 16:31:30:602
-4.7565,-7.0083,3.9762,0.0468,-0.4297,0.2424,0.0293,-0.0709,-0.018,3371,2019-08-07 16:31:30:607
-4.7565,-7.0083,3.9762,0.0468,-0.4297,0.2424,0.0293,-0.0709,-0.018,3377,2019-08-07 16:31:30:613
-4.7565,-7.0083,3.9762,0.0468,-0.4297,0.2424,0.0293,-0.0709,-0.018,3381,2019-08-07 16:31:30:617
-4.5747,-7.037,3.9338,-0.2047,-0.376,0.3605,0.0368,-6.0E-4,-0.0244,3386,2019-08-07 16:31:30:622
-4.5747,-7.037,3.9338,-0.2047,-0.376,0.3605,0.0368,-6.0E-4,-0.0244,3391,2019-08-07 16:31:30:627
-4.5747,-7.037,3.9338,-0.2047,-0.376,0.3605,0.041,0.0771,-0.0297,3396,2019-08-07 16:31:30:632
-4.6896,-7.0035,3.9574,-0.2047,-0.376,0.3605,0.041,0.0771,-0.0297,3401,2019-08-07 16:31:30:637
-4.6896,-7.0035,3.9574,-0.0246,-0.5088,0.3366,0.0421,0.1155,-0.0191,3405,2019-08-07 16:31:30:641
-4.8044,-6.8937,4.1224,-0.0246,-0.5088,0.3366,0.0421,0.1155,-0.0191,3411,2019-08-07 16:31:30:647
-4.8044,-6.8937,4.1224,-0.0246,-0.5088,0.3366,0.0474,0.1197,-0.0073,3416,2019-08-07 16:31:30:652
-4.8044,-6.8937,4.1224,-0.0246,-0.5088,0.3366,0.0474,0.1197,-0.0073,3421,2019-08-07 16:31:30:657
-4.9144,-6.8985,4.2591,0.1228,-0.5092,0.0307,0.0474,0.1197,-0.0073,3426,2019-08-07 16:31:30:662
-4.9144,-6.8985,4.2591,0.1228,-0.5092,0.0307,0.0474,0.0729,0.0044,3431,2019-08-07 16:31:30:667
-5.0819,-6.8412,4.3533,0.1228,-0.5092,0.0307,0.0474,0.0729,0.0044,3436,2019-08-07 16:31:30:672
-5.0819,-6.8412,4.3533,0.1228,-0.5092,0.0307,0.0474,0.0729,0.0044,3440,2019-08-07 16:31:30:676
-5.0819,-6.8412,4.3533,0.3583,-0.4969,-0.0742,0.041,-0.0123,0.0172,3446,2019-08-07 16:31:30:682
-5.0675,-6.8937,4.2591,0.3583,-0.4969,-0.0742,0.041,-0.0123,0.0172,3452,2019-08-07 16:31:30:688
-5.0675,-6.8937,4.2591,0.3583,-0.4969,-0.0742,0.0208,-0.1167,0.0246,3456,2019-08-07 16:31:30:692
-5.0675,-6.8937,4.2591,0.3583,-0.4969,-0.0742,0.0208,-0.1167,0.0246,3461,2019-08-07 16:31:30:697
-4.9431,-6.9988,4.1742,0.0737,-0.4283,0.1378,0.0112,-0.1551,0.0257,3465,2019-08-07 16:31:30:701
-4.9431,-6.9988,4.1742,0.0737,-0.4283,0.1378,0.0112,-0.1551,0.0257,3471,2019-08-07 16:31:30:707
-4.9431,-6.9988,4.1742,0.0737,-0.4283,0.1378,0.0112,-0.1551,0.0257,3475,2019-08-07 16:31:30:711
-4.7183,-7.0226,3.9668,0.0737,-0.4283,0.1378,0.0112,-0.154,0.0161,3481,2019-08-07 16:31:30:717
-4.7183,-7.0226,3.9668,-0.2187,-0.3776,0.3745,0.0112,-0.154,0.0161,3486,2019-08-07 16:31:30:722
-4.7183,-7.0226,3.9668,-0.2187,-0.3776,0.3745,0.0038,-0.0624,0.0065,3490,2019-08-07 16:31:30:726
-4.4887,-7.0131,3.915,-0.2187,-0.3776,0.3745,0.0038,-0.0624,0.0065,3496,2019-08-07 16:31:30:732
-4.4887,-7.0131,3.915,-0.2187,-0.3776,0.3745,0.0038,0.0143,-0.0042,3501,2019-08-07 16:31:30:737
-4.6465,-6.8985,3.9762,-0.2115,-0.4346,0.3492,0.0038,0.0143,-0.0042,3505,2019-08-07 16:31:30:741
-4.6465,-6.8985,3.9762,-0.2115,-0.4346,0.3492,0.0059,0.0782,-0.0031,3511,2019-08-07 16:31:30:747
-4.6465,-6.8985,3.9762,-0.2115,-0.4346,0.3492,0.0059,0.0782,-0.0031,3516,2019-08-07 16:31:30:752
-4.7901,-6.9033,3.9857,-0.2115,-0.4346,0.3492,0.0048,0.108,0.0022,3521,2019-08-07 16:31:30:757
-4.7901,-6.9033,3.9857,0.1808,-0.5146,0.3075,0.0048,0.108,0.0022,3526,2019-08-07 16:31:30:762
-4.9432,-6.8937,4.2072,0.1808,-0.5146,0.3075,-0.0133,0.0835,0.014,3531,2019-08-07 16:31:30:767
-4.9432,-6.8937,4.2072,0.1808,-0.5146,0.3075,-0.0133,0.0835,0.014,3536,2019-08-07 16:31:30:772
-4.9432,-6.8937,4.2072,0.1808,-0.5146,0.3075,-0.0133,0.0835,0.014,3541,2019-08-07 16:31:30:777
-5.0389,-6.9081,4.1459,0.2321,-0.4779,0.1644,0.0208,0.0388,0.0161,3546,2019-08-07 16:31:30:782
-5.0389,-6.9081,4.1459,0.2321,-0.4779,0.1644,0.0208,0.0388,0.0161,3550,2019-08-07 16:31:30:786
-5.0389,-6.9081,4.1459,0.2321,-0.4779,0.1644,0.0112,-0.0155,0.0331,3556,2019-08-07 16:31:30:792
-5.0054,-6.8603,4.1648,0.2321,-0.4779,0.1644,0.0112,-0.0155,0.0331,3560,2019-08-07 16:31:30:796
-5.0054,-6.8603,4.1648,0.1299,-0.4333,0.0361,0.0038,-0.0677,0.0502,3566,2019-08-07 16:31:30:802
-5.0054,-6.8603,4.1648,0.1299,-0.4333,0.0361,0.0038,-0.0677,0.0502,3570,2019-08-07 16:31:30:806
-4.9049,-6.9606,4.1601,0.1299,-0.4333,0.0361,0.0187,-0.1359,0.0491,3576,2019-08-07 16:31:30:812
-4.9049,-6.9606,4.1601,0.1299,-0.4333,0.0361,0.0187,-0.1359,0.0491,3581,2019-08-07 16:31:30:817
-4.9193,-6.9892,3.9809,0.107,-0.3829,0.3469,0.0123,-0.1583,0.0555,3586,2019-08-07 16:31:30:822
-4.9193,-6.9892,3.9809,0.107,-0.3829,0.3469,0.0123,-0.1583,0.0555,3591,2019-08-07 16:31:30:827
-4.9193,-6.9892,3.9809,0.107,-0.3829,0.3469,0.0048,-0.1817,0.0576,3595,2019-08-07 16:31:30:831
-4.948,-6.9797,4.0469,0.107,-0.3829,0.3469,0.0048,-0.1817,0.0576,3601,2019-08-07 16:31:30:837
-4.948,-6.9797,4.0469,0.102,-0.3901,0.3405,0.0133,-0.1913,0.0523,3605,2019-08-07 16:31:30:841
-4.8427,-7.0369,4.0234,0.102,-0.3901,0.3405,0.0133,-0.1913,0.0523,3611,2019-08-07 16:31:30:847
-4.8427,-7.0369,4.0234,0.102,-0.3901,0.3405,0.0197,-0.1807,0.0395,3616,2019-08-07 16:31:30:852
-4.8427,-7.0369,4.0234,0.102,-0.3901,0.3405,0.0197,-0.1807,0.0395,3620,2019-08-07 16:31:30:856
-4.704,-6.9701,4.0187,-0.1297,-0.3841,0.4344,0.024,-0.1306,0.0299,3626,2019-08-07 16:31:30:862
-4.704,-6.9701,4.0187,-0.1297,-0.3841,0.4344,0.024,-0.1306,0.0299,3632,2019-08-07 16:31:30:868
-4.6418,-6.9606,3.9338,-0.1297,-0.3841,0.4344,0.0229,-0.0624,0.0235,3636,2019-08-07 16:31:30:872
-4.6418,-6.9606,3.9338,-0.1297,-0.3841,0.4344,0.0229,-0.0624,0.0235,3640,2019-08-07 16:31:30:876
-4.6418,-6.9606,3.9338,-0.2432,-0.418,0.3723,0.0283,0.0228,0.0203,3646,2019-08-07 16:31:30:882
-4.5413,-7.0035,4.0469,-0.2432,-0.418,0.3723,0.0283,0.0228,0.0203,3651,2019-08-07 16:31:30:887
-4.5413,-7.0035,4.0469,-0.2432,-0.418,0.3723,0.0815,0.1485,-0.001,3656,2019-08-07 16:31:30:892
-4.594,-7.1229,4.2638,-0.2432,-0.418,0.3723,0.0815,0.1485,-0.001,3661,2019-08-07 16:31:30:897
-4.594,-7.1229,4.2638,-0.2432,-0.418,0.3723,0.0815,0.1485,-0.001,3665,2019-08-07 16:31:30:901
-4.594,-7.1229,4.2638,-0.1309,-0.2249,0.2953,0.1156,0.2231,0.0235,3671,2019-08-07 16:31:30:907
-4.838,-6.9367,3.8065,-0.1309,-0.2249,0.2953,0.1156,0.2231,0.0235,3675,2019-08-07 16:31:30:911
-4.838,-6.9367,3.8065,-0.1309,-0.2249,0.2953,0.0528,0.2007,0.0267,3682,2019-08-07 16:31:30:918
-4.838,-6.9367,3.8065,-0.1309,-0.2249,0.2953,0.0528,0.2007,0.0267,3685,2019-08-07 16:31:30:921
-5.2207,-6.7362,4.4617,0.3283,-0.6165,0.0253,0.0112,0.1091,0.0172,3691,2019-08-07 16:31:30:927
-5.2207,-6.7362,4.4617,0.3283,-0.6165,0.0253,0.0112,0.1091,0.0172,3695,2019-08-07 16:31:30:931
-5.2207,-6.7362,4.4617,0.3283,-0.6165,0.0253,0.0197,0.01,0.0257,3701,2019-08-07 16:31:30:937
-5.1489,-6.9749,4.4806,0.3283,-0.6165,0.0253,0.0197,0.01,0.0257,3706,2019-08-07 16:31:30:942