ACCELEROMETER X (m/s²),ACCELEROMETER Y (m/s²),ACCELEROMETER Z (m/s²),LINEAR ACCELERATION X (m/s²),LINEAR ACCELERATION Y (m/s²),LINEAR ACCELERATION Z (m/s²),GYROSCOPE X (rad/s),GYROSCOPE Y (rad/s),GYROSCOPE Z (rad/s),Time since start in ms ,YYYY-MO-DD HH-MI-SS_SSS
-7.0804,-5.4226,2.6028,-0.3115,-0.3955,0.2208,-0.025,-0.0102,0.0118,4,2019-08-07 16:33:03:005
-7.0804,-5.4226,2.6028,-0.3115,-0.3955,0.2208,-0.025,-0.0102,0.0118,8,2019-08-07 16:33:03:009
-7.0565,-5.4465,2.6688,-0.3115,-0.3955,0.2208,-0.025,-0.0102,0.0118,14,2019-08-07 16:33:03:015
-7.0565,-5.4465,2.6688,-0.3115,-0.3955,0.2208,-0.0239,0.0058,0.0128,18,2019-08-07 16:33:03:019
-7.0422,-5.5372,2.5933,-0.3563,-0.2991,0.1193,-0.0239,0.0058,0.0128,24,2019-08-07 16:33:03:025
-7.0422,-5.5372,2.5933,-0.3563,-0.2991,0.1193,-0.0186,0.0218,0.0107,28,2019-08-07 16:33:03:029
-7.0422,-5.5372,2.5933,-0.3563,-0.2991,0.1193,-0.0186,0.0218,0.0107,34,2019-08-07 16:33:03:035
-7.1044,-5.5228,2.6452,-0.2779,-0.3081,0.174,-0.0239,0.026,0.0107,39,2019-08-07 16:33:03:040
-7.1044,-5.5228,2.6452,-0.2779,-0.3081,0.174,-0.0239,0.026,0.0107,44,2019-08-07 16:33:03:045
-7.0039,-5.5228,2.6028,-0.2779,-0.3081,0.174,-0.0207,0.009,0.0139,50,2019-08-07 16:33:03:051
-7.0039,-5.5228,2.6028,-0.2779,-0.3081,0.174,-0.0207,0.009,0.0139,54,2019-08-07 16:33:03:055
-7.0039,-5.5228,2.6028,-0.2779,-0.3081,0.174,-0.0186,-0.0038,0.0214,59,2019-08-07 16:33:03:060
-7.0517,-5.5706,2.6216,-0.3186,-0.2638,0.1843,-0.0186,-0.0038,0.0214,64,2019-08-07 16:33:03:065
-7.0517,-5.5706,2.6216,-0.3186,-0.2638,0.1843,-0.0111,-6.0E-4,0.0288,69,2019-08-07 16:33:03:070
-7.0948,-5.6088,2.6075,-0.3186,-0.2638,0.1843,-0.0111,-6.0E-4,0.0288,74,2019-08-07 16:33:03:075
-7.0948,-5.6088,2.6075,-0.3186,-0.2638,0.1843,-0.008,-0.0038,0.0352,79,2019-08-07 16:33:03:080
-7.0948,-5.6088,2.6075,-0.2887,-0.2841,0.1732,-0.008,-0.0038,0.0352,83,2019-08-07 16:33:03:084
-7.0661,-5.4942,2.6829,-0.2887,-0.2841,0.1732,-0.008,-0.0038,0.0352,89,2019-08-07 16:33:03:090
-7.0661,-5.4942,2.6829,-0.2887,-0.2841,0.1732,6.0E-4,-0.0134,0.0331,93,2019-08-07 16:33:03:094
-7.0422,-5.4655,2.6452,-0.2887,-0.2841,0.1732,6.0E-4,-0.0134,0.0331,99,2019-08-07 16:33:03:100
-7.0422,-5.4655,2.6452,-0.2878,-0.3694,0.2212,-0.0037,-0.0027,0.0288,103,2019-08-07 16:33:03:104
-7.1475,-5.4655,2.6075,-0.2878,-0.3694,0.2212,-0.0037,-0.0027,0.0288,110,2019-08-07 16:33:03:111
-7.1475,-5.4655,2.6075,-0.2878,-0.3694,0.2212,-0.0058,0.0154,0.0277,114,2019-08-07 16:33:03:115
-7.1475,-5.4655,2.6075,-0.2878,-0.3694,0.2212,-0.0058,0.0154,0.0277,118,2019-08-07 16:33:03:119
-7.1714,-5.499,2.6688,-0.1822,-0.3029,0.1056,-0.0026,0.0111,0.0171,124,2019-08-07 16:33:03:125
-7.1714,-5.499,2.6688,-0.1822,-0.3029,0.1056,-0.0026,0.0111,0.0171,129,2019-08-07 16:33:03:130
-7.1714,-5.499,2.6688,-0.1822,-0.3029,0.1056,-0.0016,0.009,0.0118,134,2019-08-07 16:33:03:135
-7.1379,-5.4846,2.631,-0.1822,-0.3029,0.1056,-0.0016,0.009,0.0118,139,2019-08-07 16:33:03:140
-7.1379,-5.4846,2.631,-0.2426,-0.3431,0.193,-0.0026,0.0175,0.0022,144,2019-08-07 16:33:03:145
-7.1044,-5.4608,2.6122,-0.2426,-0.3431,0.193,-0.0026,0.0175,0.0022,149,2019-08-07 16:33:03:150
-7.1044,-5.4608,2.6122,-0.2426,-0.3431,0.193,-0.0026,0.0175,0.0022,153,2019-08-07 16:33:03:154
-7.1044,-5.4608,2.6122,-0.2426,-0.3431,0.193,-0.0048,0.0218,0.0064,159,2019-08-07 16:33:03:160
-7.0805,-5.5658,2.631,-0.3069,-0.2515,0.1657,-0.0048,0.0218,0.0064,163,2019-08-07 16:33:03:164
-7.0805,-5.5658,2.631,-0.3069,-0.2515,0.1657,6.0E-4,0.0143,0.0107,169,2019-08-07 16:33:03:170
-7.0423,-5.5371,2.5886,-0.3069,-0.2515,0.1657,6.0E-4,0.0143,0.0107,174,2019-08-07 16:33:03:175
-7.0423,-5.5371,2.5886,-0.3069,-0.2515,0.1657,0.0016,0.0111,0.0171,179,2019-08-07 16:33:03:180
-7.0423,-5.5371,2.5886,-0.3332,-0.2686,0.1868,0.0016,0.0111,0.0171,184,2019-08-07 16:33:03:185
-7.0662,-5.5706,2.6357,-0.3332,-0.2686,0.1868,0.0016,0.0111,0.0171,189,2019-08-07 16:33:03:190
-7.0662,-5.5706,2.6357,-0.3332,-0.2686,0.1868,0.0016,0.0015,0.0235,194,2019-08-07 16:33:03:195
-7.0183,-5.5467,2.6499,-0.3332,-0.2686,0.1868,0.0016,-0.0081,0.0341,199,2019-08-07 16:33:03:200
-7.0183,-5.5467,2.6499,-0.3506,-0.3027,0.126,0.0016,-0.0081,0.0341,203,2019-08-07 16:33:03:204
-7.0183,-5.5467,2.6499,-0.3506,-0.3027,0.126,0.0016,-0.0081,0.0341,209,2019-08-07 16:33:03:210
-7.0614,-5.5658,2.565,-0.3506,-0.3027,0.126,6.0E-4,-0.0027,0.0405,214,2019-08-07 16:33:03:215
-7.0614,-5.5658,2.565,-0.3506,-0.3027,0.126,6.0E-4,-0.0027,0.0405,219,2019-08-07 16:33:03:220
-7.0614,-5.5658,2.565,-0.3315,-0.3205,0.1732,6.0E-4,0.009,0.0427,224,2019-08-07 16:33:03:225
-7.0566,-5.4512,2.6075,-0.3315,-0.3205,0.1732,6.0E-4,0.009,0.0427,229,2019-08-07 16:33:03:230
-7.0566,-5.4512,2.6075,-0.3315,-0.3205,0.1732,0.0059,0.0292,0.0341,233,2019-08-07 16:33:03:234
-7.1475,-5.4178,2.6357,-0.3315,-0.3205,0.1732,0.0059,0.0292,0.0341,239,2019-08-07 16:33:03:240
-7.1475,-5.4178,2.6357,-0.2084,-0.4194,0.1696,0.0048,0.042,0.0235,244,2019-08-07 16:33:03:245
-7.1475,-5.4178,2.6357,-0.2084,-0.4194,0.1696,0.0048,0.042,0.0235,249,2019-08-07 16:33:03:250
-7.2576,-5.4178,2.5886,-0.2084,-0.4194,0.1696,-0.0016,0.0463,0.0203,254,2019-08-07 16:33:03:255
-7.2576,-5.4178,2.5886,-0.2084,-0.4194,0.1696,-0.0016,0.0463,0.0203,259,2019-08-07 16:33:03:260
-7.2576,-5.4178,2.598,-0.1525,-0.3766,0.1861,-0.0026,0.0377,0.0192,264,2019-08-07 16:33:03:265
-7.2576,-5.4178,2.598,-0.1525,-0.3766,0.1861,-0.0026,0.0377,0.0192,269,2019-08-07 16:33:03:270
-7.2576,-5.4178,2.598,-0.1525,-0.3766,0.1861,0.0048,0.0282,0.0128,273,2019-08-07 16:33:03:274
-7.2241,-5.4942,2.6357,-0.1525,-0.3766,0.1861,0.0048,0.0282,0.0128,279,2019-08-07 16:33:03:280
-7.2241,-5.4942,2.6357,-0.1467,-0.2785,0.0874,0.0048,0.0282,0.0128,283,2019-08-07 16:33:03:284
-7.2433,-5.4703,2.631,-0.1467,-0.2785,0.0874,0.007,0.0164,0.0054,289,2019-08-07 16:33:03:290
-7.2433,-5.4703,2.631,-0.1467,-0.2785,0.0874,0.007,0.0164,0.0054,293,2019-08-07 16:33:03:294
-7.2433,-5.4703,2.631,-0.1467,-0.2785,0.0874,0.0112,0.0079,0.0064,300,2019-08-07 16:33:03:301
-7.1332,-5.5419,2.6122,-0.3109,-0.2051,0.1387,0.0112,0.0079,0.0064,303,2019-08-07 16:33:03:304
-7.1332,-5.5419,2.6122,-0.3109,-0.2051,0.1387,0.0208,-0.0049,0.0064,309,2019-08-07 16:33:03:310
-7.071,-5.5085,2.6687,-0.3109,-0.2051,0.1387,0.0208,-0.0049,0.0064,314,2019-08-07 16:33:03:315
-7.071,-5.5085,2.6687,-0.3109,-0.2051,0.1387,0.0229,-0.0134,0.0118,318,2019-08-07 16:33:03:319
-7.071,-5.5085,2.6687,-0.3449,-0.2882,0.1149,0.0229,-0.0134,0.0118,324,2019-08-07 16:33:03:325
-7.0089,-5.5133,2.7253,-0.3449,-0.2882,0.1149,0.0283,-0.0272,0.0214,329,2019-08-07 16:33:03:330
-7.0089,-5.5133,2.7253,-0.3449,-0.2882,0.1149,0.0283,-0.0272,0.0214,334,2019-08-07 16:33:03:335
-7.0089,-5.5133,2.7253,-0.3449,-0.2882,0.1149,0.0272,-0.0187,0.0299,339,2019-08-07 16:33:03:340
-7.0137,-5.4894,2.631,-0.3449,-0.2882,0.1149,0.0272,-0.0187,0.0299,343,2019-08-07 16:33:03:344
-7.0137,-5.4894,2.631,-0.3899,-0.297,0.1683,0.0272,-0.0017,0.0363,349,2019-08-07 16:33:03:350
-7.0137,-5.4894,2.631,-0.3899,-0.297,0.1683,0.0272,-0.0017,0.0363,354,2019-08-07 16:33:03:355
-7.0902,-5.3987,2.6074,-0.3899,-0.297,0.1683,0.0166,0.0186,0.032,359,2019-08-07 16:33:03:360
-7.0902,-5.3987,2.6074,-0.2848,-0.3764,0.1075,0.0166,0.0186,0.032,364,2019-08-07 16:33:03:365
-7.0902,-5.3987,2.6074,-0.2848,-0.3764,0.1075,0.0059,0.0324,0.0277,368,2019-08-07 16:33:03:369
-7.0854,-5.351,2.6216,-0.2848,-0.3764,0.1075,0.0059,0.0324,0.0277,374,2019-08-07 16:33:03:375
-7.0854,-5.351,2.6216,-0.2848,-0.3764,0.1075,0.0059,0.0324,0.0277,379,2019-08-07 16:33:03:380
-7.2146,-5.4178,2.631,-0.2284,-0.3339,0.1434,-0.0058,0.0484,0.0182,384,2019-08-07 16:33:03:385
-7.2146,-5.4178,2.631,-0.2284,-0.3339,0.1434,-0.0058,0.0484,0.0182,389,2019-08-07 16:33:03:390
-7.2146,-5.4178,2.631,-0.2284,-0.3339,0.1434,-0.0133,0.0527,0.0107,394,2019-08-07 16:33:03:395
-7.2816,-5.4703,2.6781,-0.2284,-0.3339,0.1434,-0.0133,0.0527,0.0107,399,2019-08-07 16:33:03:400
-7.2816,-5.4703,2.6781,-0.1469,-0.3035,0.0967,-0.0079,0.0516,0.0032,404,2019-08-07 16:33:03:405
-7.3096,-5.4942,2.6689,-0.1469,-0.3035,0.0967,-0.0079,0.0516,0.0032,409,2019-08-07 16:33:03:410
-7.3096,-5.4942,2.6689,-0.1469,-0.3035,0.0967,-0.0026,0.025,0.0086,414,2019-08-07 16:33:03:415
-7.3096,-5.4942,2.6689,-0.1469,-0.3035,0.0967,-0.0026,0.025,0.0086,419,2019-08-07 16:33:03:420
-7.257,-5.4131,2.6736,-0.1469,-0.3035,0.0967,-0.0058,0.0026,0.0096,423,2019-08-07 16:33:03:424
-7.257,-5.4131,2.6736,-0.1792,-0.3204,0.0699,-0.0058,0.0026,0.0096,429,2019-08-07 16:33:03:430
-7.257,-5.4131,2.6736,-0.1792,-0.3204,0.0699,6.0E-4,-0.023,0.0171,433,2019-08-07 16:33:03:434
-7.1565,-5.4704,2.7207,-0.1792,-0.3204,0.0699,6.0E-4,-0.023,0.0171,439,2019-08-07 16:33:03:440
-7.1565,-5.4704,2.7207,-0.1792,-0.3204,0.0699,0.0155,-0.0464,0.0267,443,2019-08-07 16:33:03:444
-7.0513,-5.4799,2.6924,-0.3809,-0.2928,0.1556,0.0155,-0.0464,0.0267,449,2019-08-07 16:33:03:450
-7.0513,-5.4799,2.6924,-0.3809,-0.2928,0.1556,0.0304,-0.0422,0.0309,454,2019-08-07 16:33:03:455
-7.0513,-5.4799,2.6924,-0.3809,-0.2928,0.1556,0.0304,-0.0422,0.0309,460,2019-08-07 16:33:03:461
-7.0274,-5.4465,2.5887,-0.3809,-0.2928,0.1556,0.0379,-0.0272,0.0341,464,2019-08-07 16:33:03:465
-7.0274,-5.4465,2.5887,-0.3872,-0.358,0.1508,0.0379,-0.0272,0.0341,469,2019-08-07 16:33:03:470
-7.0608,-5.3701,2.65,-0.3872,-0.358,0.1508,0.0379,-0.0272,0.0341,473,2019-08-07 16:33:03:474
-7.0608,-5.3701,2.65,-0.3794,-0.4256,0.1307,0.0411,-0.0017,0.0352,479,2019-08-07 16:33:03:480
-7.0608,-5.3701,2.65,-0.3794,-0.4256,0.1307,0.0411,-0.0017,0.0352,484,2019-08-07 16:33:03:485
-7.147,-5.3558,2.6924,-0.3794,-0.4256,0.1307,0.0336,0.0111,0.0341,489,2019-08-07 16:33:03:490
-7.147,-5.3558,2.6924,-0.3794,-0.4256,0.1307,0.0336,0.0111,0.0341,494,2019-08-07 16:33:03:495
-7.1613,-5.289,2.6641,-0.2792,-0.4412,0.0729,0.024,0.0175,0.0309,499,2019-08-07 16:33:03:500
-7.1613,-5.289,2.6641,-0.2792,-0.4412,0.0729,0.024,0.0175,0.0309,504,2019-08-07 16:33:03:505
-7.1613,-5.289,2.6641,-0.2792,-0.4412,0.0729,0.024,0.0175,0.0309,508,2019-08-07 16:33:03:509
-7.2139,-5.3606,2.7679,-0.2792,-0.4412,0.0729,0.0165,0.0271,0.0277,513,2019-08-07 16:33:03:514
-7.2139,-5.3606,2.7679,-0.2082,-0.3962,0.0628,0.0165,0.0271,0.0277,519,2019-08-07 16:33:03:520
-7.2809,-5.3844,2.7066,-0.2082,-0.3962,0.0628,0.007,0.0186,0.0256,524,2019-08-07 16:33:03:525
-7.2809,-5.3844,2.7066,-0.2082,-0.3962,0.0628,0.007,0.0186,0.0256,528,2019-08-07 16:33:03:529
-7.2809,-5.3844,2.7066,-0.2082,-0.3962,0.0628,0.0038,-0.0059,0.0277,534,2019-08-07 16:33:03:535
-7.19,-5.4656,2.7301,-0.265,-0.2669,0.0623,0.0038,-0.0059,0.0277,538,2019-08-07 16:33:03:539
-7.19,-5.4656,2.7301,-0.265,-0.2669,0.0623,0.0027,-0.0294,0.0309,544,2019-08-07 16:33:03:545
-7.19,-5.4656,2.7301,-0.265,-0.2669,0.0623,0.0027,-0.0294,0.0309,549,2019-08-07 16:33:03:550
-7.147,-5.4322,2.7396,-0.265,-0.2669,0.0623,-5.0E-4,-0.0368,0.0299,554,2019-08-07 16:33:03:555
-7.147,-5.4322,2.7396,-0.3197,-0.3144,0.1519,-5.0E-4,-0.0368,0.0299,560,2019-08-07 16:33:03:561
-7.08,-5.3749,2.6924,-0.3197,-0.3144,0.1519,-0.0037,-0.0251,0.0352,564,2019-08-07 16:33:03:565
-7.08,-5.3749,2.6924,-0.3197,-0.3144,0.1519,-0.0037,-0.0251,0.0352,568,2019-08-07 16:33:03:569
-7.08,-5.3749,2.6924,-0.3197,-0.3144,0.1519,-0.0026,-0.0091,0.0363,574,2019-08-07 16:33:03:575
-7.1278,-5.3892,2.7019,-0.3419,-0.3282,0.1309,-0.0026,-0.0091,0.0363,579,2019-08-07 16:33:03:580
-7.1278,-5.3892,2.7019,-0.3419,-0.3282,0.1309,-0.009,5.0E-4,0.0373,584,2019-08-07 16:33:03:585
-7.1757,-5.3892,2.6736,-0.3419,-0.3282,0.1309,-0.009,5.0E-4,0.0373,589,2019-08-07 16:33:03:590
-7.1757,-5.3892,2.6736,-0.3419,-0.3282,0.1309,-0.0122,0.01,0.0341,594,2019-08-07 16:33:03:595
-7.1757,-5.3892,2.6736,-0.2461,-0.3039,0.129,-0.0122,0.01,0.0341,599,2019-08-07 16:33:03:600
-7.2044,-5.3988,2.6924,-0.2461,-0.3039,0.129,-0.0122,0.01,0.0341,604,2019-08-07 16:33:03:605
-7.2044,-5.3988,2.6924,-0.2461,-0.3039,0.129,-0.0175,0.0164,0.0299,608,2019-08-07 16:33:03:609
-7.2331,-5.4608,2.6406,-0.2151,-0.3161,0.1599,-0.0175,0.0164,0.0299,614,2019-08-07 16:33:03:615
-7.2331,-5.4608,2.6406,-0.2151,-0.3161,0.1599,-0.0218,0.0154,0.0256,619,2019-08-07 16:33:03:620
-7.2331,-5.4608,2.6406,-0.2151,-0.3161,0.1599,-0.0218,0.0154,0.0256,623,2019-08-07 16:33:03:624
-7.2761,-5.4274,2.6547,-0.186,-0.2794,0.1688,-0.0175,0.0186,0.0214,629,2019-08-07 16:33:03:630
-7.2761,-5.4274,2.6547,-0.186,-0.2794,0.1688,-0.0175,0.0186,0.0214,634,2019-08-07 16:33:03:635
-7.3144,-5.4226,2.7301,-0.186,-0.2794,0.1688,-0.0122,0.0143,0.0182,639,2019-08-07 16:33:03:640
-7.3144,-5.4226,2.7301,-0.186,-0.2794,0.1688,-0.0122,0.0143,0.0182,643,2019-08-07 16:33:03:644
-7.3144,-5.4226,2.7301,-0.1753,-0.2909,0.1461,-0.009,0.0143,0.016,649,2019-08-07 16:33:03:650
-7.2953,-5.4608,2.5934,-0.1753,-0.2909,0.1461,-0.009,0.0143,0.016,654,2019-08-07 16:33:03:655
-7.2953,-5.4608,2.5934,-0.1753,-0.2909,0.1461,0.0038,-0.0081,0.0128,660,2019-08-07 16:33:03:661
-7.3766,-5.437,2.6924,-0.1753,-0.2909,0.1461,0.0038,-0.0081,0.0128,664,2019-08-07 16:33:03:665
-7.3766,-5.437,2.6924,-0.1773,-0.2164,0.0571,0.0038,-0.0081,0.0128,669,2019-08-07 16:33:03:670
-7.3766,-5.437,2.6924,-0.1773,-0.2164,0.0571,0.0112,-0.0304,0.0139,674,2019-08-07 16:33:03:675
-7.2379,-5.4751,2.6264,-0.1773,-0.2164,0.0571,0.0112,-0.0304,0.0139,679,2019-08-07 16:33:03:680
-7.2379,-5.4751,2.6264,-0.1773,-0.2164,0.0571,0.0208,-0.0464,0.0075,684,2019-08-07 16:33:03:685
-7.19,-5.4083,2.6264,-0.2869,-0.2945,0.1681,0.0208,-0.0464,0.0075,689,2019-08-07 16:33:03:690
-7.19,-5.4083,2.6264,-0.2869,-0.2945,0.1681,0.0165,-0.0453,0.0054,694,2019-08-07 16:33:03:695
-7.19,-5.4083,2.6264,-0.2869,-0.2945,0.1681,0.0165,-0.0453,0.0054,699,2019-08-07 16:33:03:700
-7.1757,-5.4465,2.584,-0.2869,-0.2945,0.1681,0.0165,-0.0453,0.0054,704,2019-08-07 16:33:03:705
-7.1757,-5.4465,2.584,-0.3331,-0.3073,0.2135,0.0176,-0.0262,-0.001,710,2019-08-07 16:33:03:711
-7.1757,-5.4226,2.6359,-0.3331,-0.3073,0.2135,0.0176,-0.0262,-0.001,714,2019-08-07 16:33:03:715
-7.1757,-5.4226,2.6359,-0.3331,-0.3073,0.2135,0.0165,-0.0091,-0.0042,719,2019-08-07 16:33:03:720
-7.1757,-5.4226,2.6359,-0.3331,-0.3073,0.2135,0.0165,-0.0091,-0.0042,724,2019-08-07 16:33:03:725
-7.1517,-5.3988,2.6736,-0.3331,-0.3073,0.2135,0.0165,0.0015,-0.0106,728,2019-08-07 16:33:03:729
-7.1517,-5.3988,2.6736,-0.2939,-0.3355,0.2026,0.0165,0.0015,-0.0106,734,2019-08-07 16:33:03:735
-7.1517,-5.3988,2.6736,-0.2939,-0.3355,0.2026,0.008,0.0026,-0.0127,739,2019-08-07 16:33:03:740
-7.1757,-5.351,2.5369,-0.2939,-0.3355,0.2026,0.008,0.0026,-0.0127,744,2019-08-07 16:33:03:745
-7.1757,-5.351,2.5369,-0.2939,-0.3355,0.2026,0.008,0.0047,-0.0138,748,2019-08-07 16:33:03:749
-7.1517,-5.3367,2.7349,-0.3553,-0.3602,0.071,0.008,0.0047,-0.0138,754,2019-08-07 16:33:03:755
-7.1517,-5.3367,2.7349,-0.3553,-0.3602,0.071,0.008,5.0E-4,-0.0138,759,2019-08-07 16:33:03:760
-7.1517,-5.3367,2.7349,-0.3553,-0.3602,0.071,0.008,5.0E-4,-0.0138,764,2019-08-07 16:33:03:765
-7.1613,-5.3176,2.6924,-0.3015,-0.3849,0.0959,0.008,5.0E-4,-0.0138,770,2019-08-07 16:33:03:771
-7.1613,-5.3176,2.6924,-0.3015,-0.3849,0.0959,0.0112,-0.0155,-0.0095,774,2019-08-07 16:33:03:775
-7.1661,-5.3606,2.6924,-0.3015,-0.3849,0.0959,0.0112,-0.0155,-0.0095,779,2019-08-07 16:33:03:780
-7.1661,-5.3606,2.6924,-0.3015,-0.3849,0.0959,0.0091,-0.023,-0.001,784,2019-08-07 16:33:03:785
-7.1661,-5.3606,2.6924,-0.3015,-0.3849,0.0959,0.0091,-0.023,-0.001,788,2019-08-07 16:33:03:789
-7.0991,-5.3606,2.6547,-0.3723,-0.3412,0.1568,0.0059,-0.0262,0.0075,794,2019-08-07 16:33:03:795
-7.0991,-5.3606,2.6547,-0.3723,-0.3412,0.1568,0.0059,-0.0262,0.0075,799,2019-08-07 16:33:03:800
-7.1087,-5.4226,2.6312,-0.3723,-0.3412,0.1568,0.0059,-0.0262,0.0075,804,2019-08-07 16:33:03:805
-7.1087,-5.4226,2.6312,-0.3723,-0.3412,0.1568,0.0016,-0.0251,0.0128,808,2019-08-07 16:33:03:809
-7.0608,-5.4274,2.617,-0.3911,-0.244,0.1563,0.0016,-0.0251,0.0128,814,2019-08-07 16:33:03:815
-7.0608,-5.4274,2.617,-0.3911,-0.244,0.1563,0.0027,-0.0166,0.016,819,2019-08-07 16:33:03:820
-7.0608,-5.4274,2.617,-0.3911,-0.244,0.1563,0.0027,-0.0166,0.016,824,2019-08-07 16:33:03:825
-7.0513,-5.4179,2.6217,-0.3911,-0.244,0.1563,0.0016,-0.0017,0.0192,829,2019-08-07 16:33:03:830
-7.0513,-5.4179,2.6217,-0.3973,-0.2939,0.1627,0.0016,-0.0017,0.0192,833,2019-08-07 16:33:03:834
-7.0513,-5.4179,2.6217,-0.3973,-0.2939,0.1627,-0.0016,0.0079,0.015,839,2019-08-07 16:33:03:840
-7.0656,-5.3892,2.7113,-0.3973,-0.2939,0.1627,-0.0016,0.0079,0.015,843,2019-08-07 16:33:03:844
-7.0656,-5.3892,2.7113,-0.3973,-0.2939,0.1627,-0.0037,0.0164,0.0182,850,2019-08-07 16:33:03:851
-7.0656,-5.3892,2.7113,-0.3426,-0.3389,0.1325,-0.0037,0.0164,0.0182,853,2019-08-07 16:33:03:854
-7.0895,-5.4179,2.6359,-0.3426,-0.3389,0.1325,-0.0101,0.0175,0.0203,858,2019-08-07 16:33:03:859
-7.0895,-5.4179,2.6359,-0.3426,-0.3389,0.1325,-0.0101,0.0175,0.0203,864,2019-08-07 16:33:03:865
-7.1996,-5.394,2.65,-0.3426,-0.3389,0.1325,-0.0101,0.0175,0.0203,869,2019-08-07 16:33:03:870
-7.1996,-5.394,2.65,-0.2887,-0.269,0.1436,-0.0037,0.0068,0.0224,874,2019-08-07 16:33:03:875
-7.1996,-5.394,2.65,-0.2887,-0.269,0.1436,-0.0037,0.0068,0.0224,879,2019-08-07 16:33:03:880
-7.1517,-5.394,2.6971,-0.2887,-0.269,0.1436,-0.0026,-0.0049,0.0246,884,2019-08-07 16:33:03:885
-7.1517,-5.394,2.6971,-0.2887,-0.269,0.1436,-0.0026,-0.0049,0.0246,889,2019-08-07 16:33:03:890
-7.1517,-5.394,2.6971,-0.3634,-0.227,0.0918,6.0E-4,-0.0102,0.0288,894,2019-08-07 16:33:03:895
-7.1326,-5.3988,2.7113,-0.3634,-0.227,0.0918,6.0E-4,-0.0102,0.0288,900,2019-08-07 16:33:03:901
-7.1326,-5.3988,2.7113,-0.3634,-0.227,0.0918,0.0091,-0.0145,0.0384,904,2019-08-07 16:33:03:905
-7.1182,-5.4656,2.6689,-0.3634,-0.227,0.0918,0.0091,-0.0145,0.0384,908,2019-08-07 16:33:03:909
-7.1182,-5.4656,2.6689,-0.3954,-0.2311,0.2355,0.007,-0.0081,0.0395,914,2019-08-07 16:33:03:915
-7.1182,-5.4656,2.6689,-0.3954,-0.2311,0.2355,0.007,-0.0081,0.0395,919,2019-08-07 16:33:03:920
-7.1374,-5.4131,2.6594,-0.3954,-0.2311,0.2355,0.007,-0.0081,0.0395,923,2019-08-07 16:33:03:924
-7.1374,-5.4131,2.6594,-0.3954,-0.2311,0.2355,0.0155,0.0026,0.0341,928,2019-08-07 16:33:03:929
-7.1661,-5.4322,2.6877,-0.3229,-0.2439,0.1288,0.0155,0.0026,0.0341,934,2019-08-07 16:33:03:935
-7.1661,-5.4322,2.6877,-0.3229,-0.2439,0.1288,0.0208,0.0111,0.0331,939,2019-08-07 16:33:03:940
-7.1661,-5.4322,2.6877,-0.3229,-0.2439,0.1288,0.0208,0.0111,0.0331,944,2019-08-07 16:33:03:945
-7.19,-5.3988,2.6547,-0.3229,-0.2439,0.1288,0.0197,0.0175,0.0235,949,2019-08-07 16:33:03:950
-7.19,-5.3988,2.6547,-0.27,-0.3238,0.0913,0.0197,0.0175,0.0235,953,2019-08-07 16:33:03:954
-7.257,-5.3272,2.6971,-0.27,-0.3238,0.0913,0.0144,0.0164,0.0246,959,2019-08-07 16:33:03:960
-7.257,-5.3272,2.6971,-0.2674,-0.3115,-0.0173,0.0144,0.0164,0.0246,964,2019-08-07 16:33:03:965
-7.257,-5.3272,2.6971,-0.2674,-0.3115,-0.0173,0.0144,0.0164,0.0246,969,2019-08-07 16:33:03:970
-7.2522,-5.3463,2.749,-0.2674,-0.3115,-0.0173,0.0059,0.0026,0.0256,974,2019-08-07 16:33:03:975
-7.2522,-5.3463,2.749,-0.2674,-0.3115,-0.0173,0.0059,0.0026,0.0256,979,2019-08-07 16:33:03:980
-7.2522,-5.3463,2.749,-0.2802,-0.3261,0.1152,0.0048,-0.0027,0.0192,983,2019-08-07 16:33:03:984
-7.2235,-5.3272,2.7019,-0.2802,-0.3261,0.1152,0.0048,-0.0027,0.0192,989,2019-08-07 16:33:03:990
-7.2235,-5.3272,2.7019,-0.2802,-0.3261,0.1152,0.0016,-0.0081,0.0214,994,2019-08-07 16:33:03:995
-7.1852,-5.3844,2.749,-0.2802,-0.3261,0.1152,0.0016,-0.0081,0.0214,999,2019-08-07 16:33:04:000
-7.1852,-5.3844,2.749,-0.3062,-0.2842,0.1594,0.0016,-0.007,0.0203,1004,2019-08-07 16:33:04:005
-7.1852,-5.3844,2.749,-0.3062,-0.2842,0.1594,0.0016,-0.007,0.0203,1009,2019-08-07 16:33:04:010
-7.1661,-5.3844,2.7396,-0.3062,-0.2842,0.1594,-0.0026,-0.0059,0.0192,1014,2019-08-07 16:33:04:015
-7.1661,-5.3844,2.7396,-0.3062,-0.2842,0.1594,-0.0026,-0.0059,0.0192,1019,2019-08-07 16:33:04:020
-7.123,-5.437,2.6689,-0.3801,-0.219,0.1507,-5.0E-4,-6.0E-4,0.0246,1023,2019-08-07 16:33:04:024
-7.123,-5.437,2.6689,-0.3801,-0.219,0.1507,-5.0E-4,-6.0E-4,0.0246,1029,2019-08-07 16:33:04:030
-7.123,-5.437,2.6689,-0.3801,-0.219,0.1507,-0.0037,0.0068,0.0192,1034,2019-08-07 16:33:04:035
-7.2044,-5.3988,2.6594,-0.3801,-0.219,0.1507,-0.0037,0.0068,0.0192,1038,2019-08-07 16:33:04:039
-7.2044,-5.3988,2.6594,-0.316,-0.2492,0.1635,0.0027,0.01,0.0224,1044,2019-08-07 16:33:04:045
-7.1709,-5.394,2.6783,-0.316,-0.2492,0.1635,0.0027,0.01,0.0224,1049,2019-08-07 16:33:04:050
-7.1709,-5.394,2.6783,-0.316,-0.2492,0.1635,-0.0048,0.0132,0.0203,1054,2019-08-07 16:33:04:055
-7.1709,-5.394,2.6783,-0.316,-0.2492,0.1635,-0.0048,0.0132,0.0203,1059,2019-08-07 16:33:04:060
-7.1422,-5.3797,2.65,-0.3957,-0.2843,0.1659,-0.0069,0.025,0.016,1064,2019-08-07 16:33:04:065
-7.1422,-5.3797,2.65,-0.3957,-0.2843,0.1659,-0.0069,0.025,0.016,1069,2019-08-07 16:33:04:070
-7.1422,-5.3797,2.65,-0.3957,-0.2843,0.1659,-0.0069,0.025,0.016,1073,2019-08-07 16:33:04:074
-7.2044,-5.3701,2.7207,-0.3066,-0.2784,0.0927,-0.0048,0.0345,0.016,1079,2019-08-07 16:33:04:080
-7.2044,-5.3701,2.7207,-0.3066,-0.2784,0.0927,-0.0048,0.0345,0.016,1084,2019-08-07 16:33:04:085
-7.2044,-5.3701,2.7207,-0.3066,-0.2784,0.0927,0.0027,0.0377,0.0128,1089,2019-08-07 16:33:04:090
-7.2713,-5.4035,2.7066,-0.3066,-0.2784,0.0927,0.0027,0.0377,0.0128,1095,2019-08-07 16:33:04:096
-7.2713,-5.4035,2.7066,-0.2005,-0.2663,0.1297,0.0059,0.0239,0.0096,1099,2019-08-07 16:33:04:100
-7.3335,-5.3844,2.6594,-0.2005,-0.2663,0.1297,0.0059,0.0239,0.0096,1104,2019-08-07 16:33:04:105
-7.3335,-5.3844,2.6594,-0.2005,-0.2663,0.1297,0.0059,0.0239,0.0096,1109,2019-08-07 16:33:04:110
-7.3335,-5.3844,2.6594,-0.2005,-0.2663,0.1297,0.0027,0.0068,0.015,1114,2019-08-07 16:33:04:115
-7.2953,-5.3558,2.6594,-0.2223,-0.2877,0.1467,0.0027,0.0068,0.015,1118,2019-08-07 16:33:04:119
-7.2953,-5.3558,2.6594,-0.2223,-0.2877,0.1467,0.0091,-0.0113,0.0022,1124,2019-08-07 16:33:04:125
-7.2905,-5.4274,2.683,-0.2223,-0.2877,0.1467,0.0091,-0.0113,0.0022,1129,2019-08-07 16:33:04:130
-7.2905,-5.4274,2.683,-0.2223,-0.2877,0.1467,0.0112,-0.0134,0.0022,1134,2019-08-07 16:33:04:135
-7.2905,-5.4274,2.683,-0.2559,-0.2337,0.1539,0.0112,-0.0134,0.0022,1139,2019-08-07 16:33:04:140
-7.2474,-5.3988,2.7301,-0.2559,-0.2337,0.1539,0.0123,-0.0134,-0.001,1144,2019-08-07 16:33:04:145
-7.2474,-5.3988,2.7301,-0.2559,-0.2337,0.1539,0.0123,-0.0134,-0.001,1149,2019-08-07 16:33:04:150
-7.2331,-5.3892,2.6594,-0.2559,-0.2337,0.1539,0.0144,-0.0102,1.0E-4,1154,2019-08-07 16:33:04:155
-7.2331,-5.3892,2.6594,-0.2891,-0.2517,0.2089,0.0144,-0.0102,1.0E-4,1159,2019-08-07 16:33:04:160
-7.2331,-5.3892,2.6594,-0.2891,-0.2517,0.2089,0.0091,-0.0038,0.0022,1164,2019-08-07 16:33:04:165
-7.2474,-5.3558,2.6924,-0.2701,-0.2844,0.1203,0.0091,-0.0038,0.0022,1169,2019-08-07 16:33:04:170
-7.2474,-5.3558,2.6924,-0.2701,-0.2844,0.1203,6.0E-4,-0.0017,0.0043,1174,2019-08-07 16:33:04:175
-7.2474,-5.3558,2.6924,-0.2701,-0.2844,0.1203,6.0E-4,-0.0017,0.0043,1178,2019-08-07 16:33:04:179
-7.1709,-5.351,2.6594,-0.2701,-0.2844,0.1203,-5.0E-4,5.0E-4,0.0064,1184,2019-08-07 16:33:04:185
-7.1709,-5.351,2.6594,-0.352,-0.2643,0.1303,-5.0E-4,5.0E-4,0.0064,1189,2019-08-07 16:33:04:190
-7.123,-5.351,2.7019,-0.352,-0.2643,0.1303,-5.0E-4,5.0E-4,0.0064,1193,2019-08-07 16:33:04:194
-7.123,-5.351,2.7019,-0.352,-0.2643,0.1303,0.0059,0.01,0.0043,1199,2019-08-07 16:33:04:200
-7.123,-5.351,2.7019,-0.352,-0.2643,0.1303,0.0059,0.01,0.0043,1203,2019-08-07 16:33:04:204
-7.1852,-5.3653,2.7113,-0.3338,-0.2727,0.1017,0.0134,0.0122,0.0096,1209,2019-08-07 16:33:04:210
-7.1852,-5.3653,2.7113,-0.3338,-0.2727,0.1017,0.0134,0.0122,0.0096,1214,2019-08-07 16:33:04:215
-7.2139,-5.3272,2.7537,-0.3338,-0.2727,0.1017,0.0208,0.0143,0.0118,1219,2019-08-07 16:33:04:220
-7.2139,-5.3272,2.7537,-0.3338,-0.2727,0.1017,0.0208,0.0143,0.0118,1224,2019-08-07 16:33:04:225
-7.2139,-5.3272,2.7537,-0.2785,-0.3173,0.0599,0.0261,0.0058,0.015,1229,2019-08-07 16:33:04:230
-7.2378,-5.2699,2.7631,-0.2785,-0.3173,0.0599,0.0261,0.0058,0.015,1234,2019-08-07 16:33:04:235
-7.2378,-5.2699,2.7631,-0.2785,-0.3173,0.0599,0.0293,-0.0166,0.015,1240,2019-08-07 16:33:04:241
-7.2139,-5.2269,2.7773,-0.2785,-0.3173,0.0599,0.0293,-0.0166,0.015,1244,2019-08-07 16:33:04:245
-7.2139,-5.2269,2.7773,-0.2707,-0.3743,0.0748,0.0293,-0.0166,0.015,1249,2019-08-07 16:33:04:250
-7.2139,-5.2269,2.7773,-0.2707,-0.3743,0.0748,0.0283,-0.0336,0.0182,1253,2019-08-07 16:33:04:254
-7.1996,-5.2794,2.6594,-0.2707,-0.3743,0.0748,0.0283,-0.0336,0.0182,1259,2019-08-07 16:33:04:260
-7.1996,-5.2794,2.6594,-0.2707,-0.3743,0.0748,0.0187,-0.039,0.0192,1265,2019-08-07 16:33:04:266
-7.1422,-5.2794,2.6594,-0.3668,-0.379,0.1963,0.0187,-0.039,0.0192,1269,2019-08-07 16:33:04:270
-7.1422,-5.2794,2.6594,-0.3668,-0.379,0.1963,0.0187,-0.0315,0.0214,1274,2019-08-07 16:33:04:275
-7.1422,-5.2794,2.6594,-0.3668,-0.379,0.1963,0.0187,-0.0315,0.0214,1278,2019-08-07 16:33:04:279
-7.1039,-5.2412,2.5699,-0.3668,-0.379,0.1963,0.0165,-0.0177,0.0267,1284,2019-08-07 16:33:04:285
-7.1039,-5.2412,2.5699,-0.3922,-0.3741,0.1974,0.0165,-0.0177,0.0267,1289,2019-08-07 16:33:04:290
-7.1039,-5.2412,2.5699,-0.3922,-0.3741,0.1974,0.0048,0.0079,0.0203,1294,2019-08-07 16:33:04:295
-7.2043,-5.2126,2.5652,-0.3922,-0.3741,0.1974,0.0048,0.0079,0.0203,1300,2019-08-07 16:33:04:301
-7.2043,-5.2126,2.5652,-0.3922,-0.3741,0.1974,0.0048,0.0079,0.0203,1303,2019-08-07 16:33:04:304
-7.1804,-5.2746,2.6029,-0.3483,-0.3414,0.2283,-0.0037,0.026,0.0214,1309,2019-08-07 16:33:04:310
-7.1804,-5.2746,2.6029,-0.3483,-0.3414,0.2283,-0.0037,0.026,0.0214,1313,2019-08-07 16:33:04:314
-7.1804,-5.2746,2.6029,-0.3483,-0.3414,0.2283,-0.0069,0.0356,0.0224,1319,2019-08-07 16:33:04:320
-7.2426,-5.3415,2.6736,-0.3483,-0.3414,0.2283,-0.0069,0.0356,0.0224,1324,2019-08-07 16:33:04:325
-7.2426,-5.3415,2.6736,-0.2428,-0.2904,0.0527,-0.0058,0.0324,0.0182,1329,2019-08-07 16:33:04:330
-7.2952,-5.3128,2.7301,-0.2428,-0.2904,0.0527,-0.0058,0.0324,0.0182,1334,2019-08-07 16:33:04:335
-7.2952,-5.3128,2.7301,-0.2428,-0.2904,0.0527,-0.0048,0.01,0.0267,1338,2019-08-07 16:33:04:339
-7.2952,-5.3128,2.7301,-0.2428,-0.2904,0.0527,-0.0048,0.01,0.0267,1344,2019-08-07 16:33:04:345
-7.2665,-5.3033,2.6736,-0.2518,-0.2863,0.1723,-0.009,-0.0027,0.0267,1349,2019-08-07 16:33:04:350
-7.2665,-5.3033,2.6736,-0.2518,-0.2863,0.1723,-0.009,-0.0027,0.0267,1354,2019-08-07 16:33:04:355
-7.2665,-5.3033,2.6736,-0.2518,-0.2863,0.1723,-0.009,-0.0027,0.0267,1359,2019-08-07 16:33:04:360
-7.2474,-5.3463,2.683,-0.2518,-0.2863,0.1723,-0.008,-0.0198,0.032,1364,2019-08-07 16:33:04:365
-7.2474,-5.3463,2.683,-0.3259,-0.1962,0.1602,-0.008,-0.0198,0.032,1369,2019-08-07 16:33:04:370
-7.1565,-5.394,2.6123,-0.3259,-0.1962,0.1602,-0.008,-0.0294,0.0309,1374,2019-08-07 16:33:04:375
-7.1565,-5.394,2.6123,-0.3259,-0.1962,0.1602,-0.008,-0.0294,0.0309,1379,2019-08-07 16:33:04:380
-7.1565,-5.394,2.6123,-0.3259,-0.1962,0.1602,-0.009,-0.0177,0.032,1384,2019-08-07 16:33:04:385
-7.1326,-5.3415,2.5934,-0.4332,-0.2306,0.2187,-0.009,-0.0177,0.032,1389,2019-08-07 16:33:04:390
-7.1326,-5.3415,2.5934,-0.4332,-0.2306,0.2187,-0.0143,0.01,0.0288,1394,2019-08-07 16:33:04:395
-7.1852,-5.3224,2.65,-0.4332,-0.2306,0.2187,-0.0143,0.01,0.0288,1399,2019-08-07 16:33:04:400
-7.1852,-5.3224,2.65,-0.4332,-0.2306,0.2187,-0.0101,0.0356,0.0235,1404,2019-08-07 16:33:04:405
-7.1852,-5.3224,2.65,-0.4332,-0.2306,0.2187,-0.0101,0.0356,0.0235,1409,2019-08-07 16:33:04:410
-7.286,-5.3128,2.7112,-0.2412,-0.2752,0.1096,-0.0101,0.0356,0.0235,1414,2019-08-07 16:33:04:415
-7.286,-5.3128,2.7112,-0.2412,-0.2752,0.1096,-0.0143,0.0431,0.0182,1419,2019-08-07 16:33:04:420
-7.286,-5.3128,2.7112,-0.2412,-0.2752,0.1096,-0.0143,0.0431,0.0182,1424,2019-08-07 16:33:04:425
-7.3003,-5.3128,2.6782,-0.2412,-0.2752,0.1096,-0.0122,0.0367,0.0107,1428,2019-08-07 16:33:04:429
-7.3003,-5.3128,2.6782,-0.2265,-0.2635,0.1254,-0.0122,0.0367,0.0107,1435,2019-08-07 16:33:04:436
-7.3003,-5.3128,2.6782,-0.2265,-0.2635,0.1254,-0.009,0.0228,0.0064,1438,2019-08-07 16:33:04:439
-7.396,-5.3367,2.8102,-0.2265,-0.2635,0.1254,-0.009,0.0228,0.0064,1444,2019-08-07 16:33:04:445
-7.396,-5.3367,2.8102,-0.2265,-0.2635,0.1254,-0.0101,-0.0017,0.0043,1450,2019-08-07 16:33:04:451
-7.3147,-5.2889,2.7584,-0.2382,-0.3054,0.051,-0.0101,-0.0017,0.0043,1454,2019-08-07 16:33:04:455
-7.3147,-5.2889,2.7584,-0.2382,-0.3054,0.051,-0.0058,-0.0198,0.0054,1459,2019-08-07 16:33:04:460
-7.3147,-5.2889,2.7584,-0.2382,-0.3054,0.051,-0.0058,-0.0198,0.0054,1463,2019-08-07 16:33:04:464
-7.2142,-5.3605,2.6594,-0.4054,-0.2569,0.1382,-0.0101,-0.0283,0.0118,1469,2019-08-07 16:33:04:470
-7.2142,-5.3605,2.6594,-0.4054,-0.2569,0.1382,-0.0101,-0.0283,0.0118,1474,2019-08-07 16:33:04:475
-7.1808,-5.3367,2.7348,-0.4054,-0.2569,0.1382,-0.0101,-0.0283,0.0118,1479,2019-08-07 16:33:04:480
-7.1808,-5.3367,2.7348,-0.434,-0.2656,0.1306,-0.0026,-0.024,0.015,1483,2019-08-07 16:33:04:484
-7.1808,-5.3367,2.7348,-0.434,-0.2656,0.1306,-0.0026,-0.024,0.015,1489,2019-08-07 16:33:04:490
-7.1042,-5.3414,2.5934,-0.434,-0.2656,0.1306,-0.0037,-0.0091,0.0235,1494,2019-08-07 16:33:04:495
-7.1042,-5.3414,2.5934,-0.434,-0.2656,0.1306,-0.0037,-0.0091,0.0235,1499,2019-08-07 16:33:04:500
-7.1425,-5.3224,2.6499,-0.4502,-0.2913,0.2307,-0.0069,0.0037,0.0277,1504,2019-08-07 16:33:04:505
-7.1425,-5.3224,2.6499,-0.4502,-0.2913,0.2307,-0.0069,0.0037,0.0277,1508,2019-08-07 16:33:04:509
-7.1425,-5.3224,2.6499,-0.4502,-0.2913,0.2307,-0.0111,0.0132,0.032,1514,2019-08-07 16:33:04:515
-7.1664,-5.3414,2.5981,-0.4502,-0.2913,0.2307,-0.0111,0.0132,0.032,1519,2019-08-07 16:33:04:520
-7.1664,-5.3414,2.5981,-0.4207,-0.2396,0.1193,-0.0069,0.025,0.0288,1524,2019-08-07 16:33:04:525
-7.1664,-5.3414,2.5981,-0.4207,-0.2396,0.1193,-0.0069,0.025,0.0288,1528,2019-08-07 16:33:04:529
-7.2143,-5.3844,2.6594,-0.4207,-0.2396,0.1193,-0.0111,0.026,0.0331,1534,2019-08-07 16:33:04:535
-7.2143,-5.3844,2.6594,-0.4207,-0.2396,0.1193,-0.0111,0.026,0.0331,1539,2019-08-07 16:33:04:540
-7.2765,-5.2555,2.6688,-0.2822,-0.2781,0.0487,-0.008,0.0143,0.032,1544,2019-08-07 16:33:04:545
-7.2765,-5.2555,2.6688,-0.2822,-0.2781,0.0487,-0.008,0.0143,0.032,1550,2019-08-07 16:33:04:551
-7.2765,-5.2555,2.6688,-0.2822,-0.2781,0.0487,-0.009,0.0037,0.0341,1554,2019-08-07 16:33:04:555
-7.3099,-5.2746,2.6264,-0.2822,-0.2781,0.0487,-0.009,0.0037,0.0341,1559,2019-08-07 16:33:04:560
-7.3099,-5.2746,2.6264,-0.2819,-0.3447,0.1077,-0.0143,-0.0123,0.0363,1565,2019-08-07 16:33:04:566
-7.2478,-5.2555,2.7018,-0.2819,-0.3447,0.1077,-0.0143,-0.0123,0.0363,1569,2019-08-07 16:33:04:570
-7.2478,-5.2555,2.7018,-0.2819,-0.3447,0.1077,-0.0143,-0.0123,0.0363,1574,2019-08-07 16:33:04:575
-7.2478,-5.2555,2.7018,-0.2819,-0.3447,0.1077,-0.0101,-0.023,0.0395,1579,2019-08-07 16:33:04:580
-7.2286,-5.2651,2.5887,-0.3429,-0.3057,0.2173,-0.0101,-0.023,0.0395,1584,2019-08-07 16:33:04:585
-7.2286,-5.2651,2.5887,-0.3429,-0.3057,0.2173,-0.008,-0.0272,0.0395,1589,2019-08-07 16:33:04:590
-7.2286,-5.2651,2.5887,-0.3429,-0.3057,0.2173,-0.008,-0.0272,0.0395,1594,2019-08-07 16:33:04:595
-7.1951,-5.2889,2.5839,-0.3429,-0.3057,0.2173,-0.0058,-0.024,0.0448,1599,2019-08-07 16:33:04:600
-7.1951,-5.2889,2.5839,-0.4279,-0.2759,0.2902,-0.0058,-0.024,0.0448,1604,2019-08-07 16:33:04:605
-7.1951,-5.2889,2.5839,-0.4279,-0.2759,0.2902,-0.0058,-0.024,0.0448,1609,2019-08-07 16:33:04:610
-7.1521,-5.3462,2.5509,-0.4279,-0.2759,0.2902,-0.0048,-0.0123,0.048,1614,2019-08-07 16:33:04:615
-7.1521,-5.3462,2.5509,-0.4279,-0.2759,0.2902,-0.0048,-0.0123,0.048,1619,2019-08-07 16:33:04:620
-7.1377,-5.3987,2.5085,-0.4426,-0.1594,0.299,-0.0048,0.0122,0.0533,1624,2019-08-07 16:33:04:625
-7.1377,-5.3987,2.5085,-0.4426,-0.1594,0.299,-0.0048,0.0122,0.0533,1629,2019-08-07 16:33:04:630
-7.1521,-5.3653,2.6028,-0.4319,-0.1891,0.2021,6.0E-4,0.0367,0.0544,1634,2019-08-07 16:33:04:635
-7.1521,-5.3653,2.6028,-0.4319,-0.1891,0.2021,6.0E-4,0.0367,0.0544,1638,2019-08-07 16:33:04:639
-7.1521,-5.3653,2.6028,-0.4319,-0.1891,0.2021,0.0048,0.0463,0.0576,1644,2019-08-07 16:33:04:645
-7.1952,-5.4083,2.6075,-0.4319,-0.1891,0.2021,0.0048,0.0463,0.0576,1649,2019-08-07 16:33:04:650
-7.1952,-5.4083,2.6075,-0.3306,-0.0899,0.0915,0.0112,0.0516,0.0618,1654,2019-08-07 16:33:04:655
-7.1952,-5.4083,2.6075,-0.3306,-0.0899,0.0915,0.0112,0.0516,0.0618,1659,2019-08-07 16:33:04:660
-7.3148,-5.3796,2.7065,-0.3306,-0.0899,0.0915,0.0155,0.0484,0.0608,1663,2019-08-07 16:33:04:664
-7.3148,-5.3796,2.7065,-0.3306,-0.0899,0.0915,0.024,0.0186,0.0714,1670,2019-08-07 16:33:04:671
-7.3578,-5.4178,2.7536,-0.2441,-0.1173,0.0407,0.024,0.0186,0.0714,1674,2019-08-07 16:33:04:675
-7.3578,-5.4178,2.7536,-0.2441,-0.1173,0.0407,0.024,0.0186,0.0714,1679,2019-08-07 16:33:04:680
-7.3578,-5.4178,2.7536,-0.2441,-0.1173,0.0407,0.0293,-0.0145,0.0757,1683,2019-08-07 16:33:04:684
-7.377,-5.3844,2.7301,-0.2441,-0.1173,0.0407,0.0293,-0.0145,0.0757,1689,2019-08-07 16:33:04:690
-7.377,-5.3844,2.7301,-0.2853,-0.104,0.0794,0.0368,-0.0272,0.0821,1694,2019-08-07 16:33:04:695
-7.3148,-5.4656,2.6829,-0.2853,-0.104,0.0794,0.0368,-0.0272,0.0821,1699,2019-08-07 16:33:04:700
-7.3148,-5.4656,2.6829,-0.2853,-0.104,0.0794,0.0421,-0.023,0.0885,1704,2019-08-07 16:33:04:705
-7.3148,-5.4656,2.6829,-0.2853,-0.104,0.0794,0.0421,-0.023,0.0885,1709,2019-08-07 16:33:04:710
-7.3196,-5.5181,2.6499,-0.2549,0.0351,0.1344,0.0592,-0.0091,0.0842,1715,2019-08-07 16:33:04:716
-7.3196,-5.5181,2.6499,-0.2549,0.0351,0.1344,0.0592,-0.0091,0.0842,1718,2019-08-07 16:33:04:719
-7.3196,-5.5181,2.6499,-0.2549,0.0351,0.1344,0.0762,0.0132,0.0853,1724,2019-08-07 16:33:04:725
-7.4296,-5.6231,2.7536,-0.2549,0.0351,0.1344,0.0762,0.0132,0.0853,1729,2019-08-07 16:33:04:730
-7.4296,-5.6231,2.7536,-0.1778,0.1657,-0.0096,0.0964,0.026,0.0821,1734,2019-08-07 16:33:04:735
-7.5827,-5.7806,2.8809,-0.1778,0.1657,-0.0096,0.0964,0.026,0.0821,1739,2019-08-07 16:33:04:740
-7.5827,-5.7806,2.8809,-0.1778,0.1657,-0.0096,0.0964,0.026,0.0821,1744,2019-08-07 16:33:04:745
-7.5827,-5.7806,2.8809,-0.1778,0.1657,-0.0096,0.1316,0.0314,0.0778,1749,2019-08-07 16:33:04:750
-7.6593,-5.9955,3.06,0.0862,0.5646,-0.3301,0.1316,0.0314,0.0778,1754,2019-08-07 16:33:04:755
-7.6593,-5.9955,3.06,0.0862,0.5646,-0.3301,0.1316,0.0314,0.0778,1759,2019-08-07 16:33:04:760
-7.6593,-5.9955,3.06,0.0862,0.5646,-0.3301,0.1849,-0.0208,0.0725,1764,2019-08-07 16:33:04:765
-7.8889,-6.3105,3.5361,0.0862,0.5646,-0.3301,0.1849,-0.0208,0.0725,1769,2019-08-07 16:33:04:770
-7.8889,-6.3105,3.5361,0.0862,0.5646,-0.3301,0.2711,-0.137,0.064,1774,2019-08-07 16:33:04:775
-8.042,-6.4681,3.819,0.4051,1.0148,-0.9595,0.2711,-0.137,0.064,1779,2019-08-07 16:33:04:780
-8.042,-6.4681,3.819,0.4051,1.0148,-0.9595,0.35,-0.2659,0.0629,1785,2019-08-07 16:33:04:786
-8.042,-6.4681,3.819,0.4051,1.0148,-0.9595,0.35,-0.2659,0.0629,1789,2019-08-07 16:33:04:790
-8.1664,-6.6113,4.1395,0.5674,1.1382,-1.2334,0.4267,-0.4043,0.0565,1794,2019-08-07 16:33:04:795
-8.1664,-6.6113,4.1395,0.5674,1.1382,-1.2334,0.4267,-0.4043,0.0565,1799,2019-08-07 16:33:04:800
-8.3051,-6.3583,4.3045,0.5674,1.1382,-1.2334,0.4863,-0.545,0.064,1803,2019-08-07 16:33:04:804
-8.3051,-6.3583,4.3045,0.5674,1.1382,-1.2334,0.4863,-0.545,0.064,1809,2019-08-07 16:33:04:810
-8.3051,-6.3583,4.3045,0.5674,1.1382,-1.2334,0.4863,-0.545,0.064,1814,2019-08-07 16:33:04:815
-8.4869,-6.1625,4.2762,0.8938,0.7763,-1.183,0.5119,-0.693,0.081,1819,2019-08-07 16:33:04:820
-8.4869,-6.1625,4.2762,0.8938,0.7763,-1.183,0.5119,-0.693,0.081,1824,2019-08-07 16:33:04:825
-8.4822,-6.0957,4.2809,0.8938,0.7763,-1.183,0.4949,-0.7921,0.0863,1829,2019-08-07 16:33:04:830
-8.4822,-6.0957,4.2809,0.7639,0.841,-1.0619,0.4949,-0.7921,0.0863,1835,2019-08-07 16:33:04:836
-8.4822,-6.0957,4.2809,0.7639,0.841,-1.0619,0.4757,-0.8347,0.0959,1838,2019-08-07 16:33:04:839
-8.2142,-6.554,4.3846,0.7639,0.841,-1.0619,0.4757,-0.8347,0.0959,1844,2019-08-07 16:33:04:845
-8.2142,-6.554,4.3846,0.7639,0.841,-1.0619,0.4959,-0.7431,0.081,1849,2019-08-07 16:33:04:850
-8.219,-7.8381,5.2378,0.7639,0.841,-1.0619,0.4959,-0.7431,0.081,1854,2019-08-07 16:33:04:855
-8.219,-7.8381,5.2378,0.8034,2.921,-2.0785,0.4959,-0.7431,0.081,1859,2019-08-07 16:33:04:860
-8.219,-7.8381,5.2378,0.8034,2.921,-2.0785,0.6163,-0.5737,0.0544,1864,2019-08-07 16:33:04:865
-8.8027,-9.8097,7.128,1.3234,4.5325,-3.6001,0.6163,-0.5737,0.0544,1869,2019-08-07 16:33:04:870
-8.8027,-9.8097,7.128,1.3234,4.5325,-3.6001,0.971,-0.4523,-0.0106,1874,2019-08-07 16:33:04:875
-8.8027,-9.8097,7.128,1.3234,4.5325,-3.6001,0.971,-0.4523,-0.0106,1879,2019-08-07 16:33:04:880
-10.3289,-12.0296,10.0129,1.3234,4.5325,-3.6001,1.412,-0.5513,-0.0937,1884,2019-08-07 16:33:04:885
-10.3289,-12.0296,10.0129,3.4737,7.2543,-7.0151,1.412,-0.5513,-0.0937,1889,2019-08-07 16:33:04:890
-11.525,-12.8268,11.493,3.4737,7.2543,-7.0151,1.9255,-0.8709,-0.197,1893,2019-08-07 16:33:04:894
-11.525,-12.8268,11.493,4.8043,7.8287,-8.3894,1.9255,-0.8709,-0.197,1899,2019-08-07 16:33:04:900
-11.525,-12.8268,11.493,4.8043,7.8287,-8.3894,2.5508,-1.5889,-0.3185,1905,2019-08-07 16:33:04:906
-13.764,-12.6931,14.1563,4.8043,7.8287,-8.3894,2.5508,-1.5889,-0.3185,1909,2019-08-07 16:33:04:910
-13.764,-12.6931,14.1563,4.8043,7.8287,-8.3894,2.945,-2.3719,-0.4058,1914,2019-08-07 16:33:04:915
-16.0987,-12.0105,15.9476,8.4137,7.1705,-11.2642,2.945,-2.3719,-0.4058,1919,2019-08-07 16:33:04:920
-16.0987,-12.0105,15.9476,8.4137,7.1705,-11.2642,2.945,-2.3719,-0.4058,1924,2019-08-07 16:33:04:925
-16.0987,-12.0105,15.9476,8.4137,7.1705,-11.2642,3.1687,-3.2848,-0.4932,1929,2019-08-07 16:33:04:930
-17.8354,-11.9532,17.4466,8.4137,7.1705,-11.2642,3.1687,-3.2848,-0.4932,1934,2019-08-07 16:33:04:935
-17.8354,-11.9532,17.4466,11.3425,7.5489,-12.8611,3.2805,-4.3884,-0.7595,1938,2019-08-07 16:33:04:939
-17.8354,-11.9532,17.4466,11.3425,7.5489,-12.8611,3.2805,-4.3884,-0.7595,1944,2019-08-07 16:33:04:945
-18.5626,-13.0702,18.5684,12.1923,8.7948,-13.186,3.2944,-4.6015,-1.0269,1949,2019-08-07 16:33:04:950
-18.5626,-13.0702,18.5684,12.1923,8.7948,-13.186,3.2944,-4.6015,-1.0269,1954,2019-08-07 16:33:04:955
-19.596,-14.6886,20.7368,12.1923,8.7948,-13.186,3.3423,-4.5834,-1.4913,1959,2019-08-07 16:33:04:960
-19.596,-14.6886,20.7368,12.1923,8.7948,-13.186,3.3423,-4.5834,-1.4913,1964,2019-08-07 16:33:04:965
-19.596,-14.6886,20.7368,16.1013,10.1385,-14.9929,3.3231,-4.284,-2.1571,1969,2019-08-07 16:33:04:970
-23.476,-13.6145,22.2075,16.1013,10.1385,-14.9929,3.3231,-4.284,-2.1571,1973,2019-08-07 16:33:04:974
-23.476,-13.6145,22.2075,16.1013,10.1385,-14.9929,3.3231,-4.284,-2.1571,1979,2019-08-07 16:33:04:980
-23.476,-13.6145,22.2075,16.1013,10.1385,-14.9929,3.1516,-4.5035,-2.5971,1984,2019-08-07 16:33:04:985
-27.6527,-10.4065,24.1213,23.3162,5.5257,-16.9265,3.1516,-4.5035,-2.5971,1989,2019-08-07 16:33:04:990
-27.6527,-10.4065,24.1213,23.3162,5.5257,-16.9265,2.7404,-5.8809,-2.9784,1993,2019-08-07 16:33:04:994
-30.4754,-7.1221,23.2351,26.036,3.0124,-15.5125,2.7404,-5.8809,-2.9784,2000,2019-08-07 16:33:05:001
-30.4754,-7.1221,23.2351,26.036,3.0124,-15.5125,2.2142,-7.6705,-3.1158,2004,2019-08-07 16:33:05:005
-30.4754,-7.1221,23.2351,26.036,3.0124,-15.5125,2.2142,-7.6705,-3.1158,2008,2019-08-07 16:33:05:009
-29.6573,-4.1193,17.3381,26.036,3.0124,-15.5125,1.5761,-9.6849,-3.1105,2014,2019-08-07 16:33:05:015
-29.6573,-4.1193,17.3381,25.551,-0.725,-5.9437,1.5761,-9.6849,-3.1105,2019,2019-08-07 16:33:05:020
-29.6573,-4.1193,17.3381,25.551,-0.725,-5.9437,1.5761,-9.6849,-3.1105,2024,2019-08-07 16:33:05:025
-25.4854,-2.2957,9.122,25.551,-0.725,-5.9437,0.8155,-11.7324,-2.9646,2028,2019-08-07 16:33:05:029
-25.4854,-2.2957,9.122,25.551,-0.725,-5.9437,0.8155,-11.7324,-2.9646,2035,2019-08-07 16:33:05:036
-18.7205,-1.7372,1.693,18.1437,-2.2312,7.2599,0.2136,-12.527,-2.8495,2039,2019-08-07 16:33:05:040
-18.7205,-1.7372,1.693,18.1437,-2.2312,7.2599,0.2136,-12.527,-2.8495,2043,2019-08-07 16:33:05:044
-13.1612,-1.4364,-3.0727,18.1437,-2.2312,7.2599,0.0645,-12.3513,-2.7686,2050,2019-08-07 16:33:05:051
-13.1612,-1.4364,-3.0727,18.1437,-2.2312,7.2599,0.0645,-12.3513,-2.7686,2054,2019-08-07 16:33:05:055
-13.1612,-1.4364,-3.0727,18.1437,-2.2312,7.2599,0.0645,-12.3513,-2.7686,2058,2019-08-07 16:33:05:059
-7.9942,-1.742,-5.1232,11.4844,-2.2771,13.2389,0.1763,-11.2338,-2.6162,2064,2019-08-07 16:33:05:065
-7.9942,-1.742,-5.1232,11.4844,-2.2771,13.2389,0.1763,-11.2338,-2.6162,2069,2019-08-07 16:33:05:070
-7.9942,-1.742,-5.1232,11.4844,-2.2771,13.2389,0.4778,-9.0681,-2.4234,2074,2019-08-07 16:33:05:075
-6.3437,-0.496,-4.9912,11.4844,-2.2771,13.2389,0.4778,-9.0681,-2.4234,2079,2019-08-07 16:33:05:080
-6.3437,-0.496,-4.9912,10.1378,-3.5787,12.9863,0.7196,-7.7547,-2.1848,2084,2019-08-07 16:33:05:085
-7.6737,1.1032,-5.5521,10.1378,-3.5787,12.9863,0.7196,-7.7547,-2.1848,2088,2019-08-07 16:33:05:089
-7.6737,1.1032,-5.5521,10.1378,-3.5787,12.9863,1.0531,-6.1685,-1.6373,2094,2019-08-07 16:33:05:095
-7.6737,1.1032,-5.5521,13.7508,-4.7124,13.1401,1.0531,-6.1685,-1.6373,2099,2019-08-07 16:33:05:100
-9.4391,1.1366,-5.3777,13.7508,-4.7124,13.1401,1.2246,-5.6284,-1.2357,2104,2019-08-07 16:33:05:105
-9.4391,1.1366,-5.3777,13.7508,-4.7124,13.1401,1.2246,-5.6284,-1.2357,2109,2019-08-07 16:33:05:110
-9.4391,1.1366,-5.3777,13.7508,-4.7124,13.1401,1.3513,-5.654,-0.9203,2114,2019-08-07 16:33:05:115
-10.75,0.898,-6.9663,13.7508,-4.7124,13.1401,1.3513,-5.654,-0.9203,2118,2019-08-07 16:33:05:119
-10.75,0.898,-6.9663,15.8993,-4.2672,15.1298,1.3513,-5.654,-0.9203,2124,2019-08-07 16:33:05:125
-9.0133,1.4469,-8.4417,15.8993,-4.2672,15.1298,1.4067,-5.9767,-0.6562,2128,2019-08-07 16:33:05:129
-9.0133,1.4469,-8.4417,15.8993,-4.2672,15.1298,1.4067,-5.9767,-0.6562,2135,2019-08-07 16:33:05:136
-5.0232,1.6474,-10.4828,15.8993,-4.2672,15.1298,1.3961,-7.1656,-0.4463,2139,2019-08-07 16:33:05:140
-5.0232,1.6474,-10.4828,11.6931,-4.5516,17.0641,1.3961,-7.1656,-0.4463,2143,2019-08-07 16:33:05:144
-5.0232,1.6474,-10.4828,11.6931,-4.5516,17.0641,1.3598,-8.2724,-0.3653,2150,2019-08-07 16:33:05:151
-2.1049,1.6188,-10.068,11.6931,-4.5516,17.0641,1.3598,-8.2724,-0.3653,2153,2019-08-07 16:33:05:154
-2.1049,1.6188,-10.068,11.6931,-4.5516,17.0641,1.3598,-8.2724,-0.3653,2159,2019-08-07 16:33:05:160
-1.5786,1.0841,-6.1084,8.5289,-4.2669,13.8116,1.4003,-8.9765,-0.3834,2164,2019-08-07 16:33:05:165
-1.5786,1.0841,-6.1084,8.5289,-4.2669,13.8116,1.4834,-5.5006,-0.4186,2170,2019-08-07 16:33:05:171
-1.5786,1.0841,-6.1084,8.5289,-4.2669,13.8116,1.4834,-5.5006,-0.4186,2174,2019-08-07 16:33:05:175
3.397,1.8098,-15.8518,8.5289,-4.2669,13.8116,1.4834,-5.5006,-0.4186,2178,2019-08-07 16:33:05:179
3.397,1.8098,-15.8518,5.0061,-5.1596,20.7202,1.0786,-2.8971,-0.474,2184,2019-08-07 16:33:05:185
3.397,1.8098,-15.8518,5.0061,-5.1596,20.7202,1.0786,-2.8971,-0.474,2189,2019-08-07 16:33:05:190
3.2439,3.8195,-14.1595,5.0061,-5.1596,20.7202,0.6227,-1.2661,-0.4527,2194,2019-08-07 16:33:05:195
3.2439,3.8195,-14.1595,5.0061,-5.1596,20.7202,0.6227,-1.2661,-0.4527,2199,2019-08-07 16:33:05:200
1.9522,3.1655,-8.9131,6.558,-5.7344,13.9668,-0.2924,-0.5972,-0.3685,2204,2019-08-07 16:33:05:205
1.9522,3.1655,-8.9131,6.558,-5.7344,13.9668,-0.2924,-0.5972,-0.3685,2209,2019-08-07 16:33:05:210
1.9522,3.1655,-8.9131,6.558,-5.7344,13.9668,-0.7867,-1.3918,-0.3419,2214,2019-08-07 16:33:05:215
2.7703,2.0198,-7.1972,6.558,-5.7344,13.9668,-0.7867,-1.3918,-0.3419,2219,2019-08-07 16:33:05:220
2.7703,2.0198,-7.1972,5.1329,-3.9991,10.5576,-0.7867,-1.3918,-0.3419,2224,2019-08-07 16:33:05:225
5.2485,0.9171,-6.3252,5.1329,-3.9991,10.5576,-0.8847,-2.4326,-0.3419,2229,2019-08-07 16:33:05:230
5.2485,0.9171,-6.3252,2.8363,-2.934,9.8228,-0.8847,-2.4326,-0.3419,2234,2019-08-07 16:33:05:235
5.2485,0.9171,-6.3252,2.8363,-2.934,9.8228,-0.645,-2.5306,-0.2695,2239,2019-08-07 16:33:05:240
9.1094,-0.2287,-7.9185,-0.1252,-2.0496,11.1327,-0.645,-2.5306,-0.2695,2244,2019-08-07 16:33:05:245
9.1094,-0.2287,-7.9185,-0.1252,-2.0496,11.1327,-0.4863,-2.5423,-0.1608,2249,2019-08-07 16:33:05:250
9.1094,-0.2287,-7.9185,-0.1252,-2.0496,11.1327,-0.4863,-2.5423,-0.1608,2254,2019-08-07 16:33:05:255
12.1091,-0.1332,-10.2565,-0.1252,-2.0496,11.1327,-0.4863,-2.5423,-0.1608,2259,2019-08-07 16:33:05:260
12.1091,-0.1332,-10.2565,-3.7668,-2.2709,14.0649,-0.4852,-2.0949,0.1961,2264,2019-08-07 16:33:05:265
14.3529,-0.2,-12.6464,-3.7668,-2.2709,14.0649,-0.4852,-2.0949,0.1961,2268,2019-08-07 16:33:05:269
14.3529,-0.2,-12.6464,-3.7668,-2.2709,14.0649,-0.5768,-0.4896,0.6786,2274,2019-08-07 16:33:05:275
14.3529,-0.2,-12.6464,-3.7668,-2.2709,14.0649,-0.5768,-0.4896,0.6786,2279,2019-08-07 16:33:05:280
14.994,-0.9256,-12.5521,-5.5814,-1.3257,14.5794,-0.5811,1.3544,0.8555,2284,2019-08-07 16:33:05:285
14.994,-0.9256,-12.5521,-5.5814,-1.3257,14.5794,-0.5811,1.3544,0.8555,2289,2019-08-07 16:33:05:290
12.5157,-1.2073,-8.569,-5.5814,-1.3257,14.5794,-0.4064,3.1057,0.93,2294,2019-08-07 16:33:05:295
12.5157,-1.2073,-8.569,-5.5814,-1.3257,14.5794,-0.4064,3.1057,0.93,2299,2019-08-07 16:33:05:300
12.5157,-1.2073,-8.569,-0.6788,-1.0775,5.9714,0.0208,4.1305,1.0461,2304,2019-08-07 16:33:05:305
10.2432,-2.2384,9.0135,-0.6788,-1.0775,5.9714,0.0208,4.1305,1.0461,2309,2019-08-07 16:33:05:310
10.2432,-2.2384,9.0135,-0.6788,-1.0775,5.9714,0.0208,4.1305,1.0461,2314,2019-08-07 16:33:05:315
4.6313,-1.5176,-6.5373,-0.6788,-1.0775,5.9714,0.2307,2.3856,0.9822,2319,2019-08-07 16:33:05:320
4.6313,-1.5176,-6.5373,4.397,-1.0777,10.2204,0.2307,2.3856,0.9822,2324,2019-08-07 16:33:05:325
4.6313,-1.5176,-6.5373,4.397,-1.0777,10.2204,0.2541,3.1899,0.9439,2328,2019-08-07 16:33:05:329
3.7319,-1.5606,1.0142,4.397,-1.0777,10.2204,0.2541,3.1899,0.9439,2335,2019-08-07 16:33:05:336
3.7319,-1.5606,1.0142,4.397,-1.0777,10.2204,0.1593,2.555,0.88,2339,2019-08-07 16:33:05:340
3.7319,-1.5606,1.0142,6.4661,-1.2394,6.9645,0.1593,2.555,0.88,2344,2019-08-07 16:33:05:345
2.2631,-1.7658,-2.606,6.4661,-1.2394,6.9645,0.2275,2.7872,0.8672,2349,2019-08-07 16:33:05:350
2.2631,-1.7658,-2.606,6.4661,-1.2394,6.9645,0.2275,2.7872,0.8672,2354,2019-08-07 16:33:05:355
2.2631,-1.7658,-2.606,6.4661,-1.2394,6.9645,0.2275,2.7872,0.8672,2359,2019-08-07 16:33:05:360
2.8946,-1.6513,-3.5865,5.8167,-1.9218,8.4595,0.1678,2.9193,0.7148,2365,2019-08-07 16:33:05:366
2.8946,-1.6513,-3.5865,5.8167,-1.9218,8.4595,0.1678,2.9193,0.7148,2369,2019-08-07 16:33:05:370
1.2345,-0.2812,-4.7319,5.8167,-1.9218,8.4595,-0.1315,3.5883,0.5859,2374,2019-08-07 16:33:05:375
1.2345,-0.2812,-4.7319,5.8167,-1.9218,8.4595,-0.1315,3.5883,0.5859,2379,2019-08-07 16:33:05:380
0.3829,0.0625,-4.8404,7.2852,-3.2755,9.7043,-0.4053,4.2498,0.6318,2384,2019-08-07 16:33:05:385
0.3829,0.0625,-4.8404,7.2852,-3.2755,9.7043,-0.4053,4.2498,0.6318,2389,2019-08-07 16:33:05:390
0.3829,0.0625,-4.8404,7.2852,-3.2755,9.7043,-0.6791,5.053,0.6563,2395,2019-08-07 16:33:05:396
-0.5883,0.3967,-4.1757,7.2852,-3.2755,9.7043,-0.6791,5.053,0.6563,2400,2019-08-07 16:33:05:401
-0.5883,0.3967,-4.1757,8.7791,-4.0328,8.6482,-0.6791,5.053,0.6563,2404,2019-08-07 16:33:05:405
-1.7544,0.7021,-3.0064,8.7791,-4.0328,8.6482,-0.7281,5.5867,0.7276,2409,2019-08-07 16:33:05:410
-1.7544,0.7021,-3.0064,8.7791,-4.0328,8.6482,-0.7281,5.5867,0.7276,2415,2019-08-07 16:33:05:416
-1.7544,0.7021,-3.0064,8.7791,-4.0328,8.6482,-0.695,5.9041,0.8022,2419,2019-08-07 16:33:05:420
-1.8931,-0.0665,-3.4542,8.4995,-3.5339,9.7493,-0.695,5.9041,0.8022,2424,2019-08-07 16:33:05:425
-1.8931,-0.0665,-3.4542,8.4995,-3.5339,9.7493,-0.695,5.9041,0.8022,2429,2019-08-07 16:33:05:430
-2.8547,-0.7682,-3.5768,9.0278,-2.9571,10.2289,-0.7888,6.1087,0.8118,2435,2019-08-07 16:33:05:436
-2.8547,-0.7682,-3.5768,9.0278,-2.9571,10.2289,-0.7888,6.1087,0.8118,2438,2019-08-07 16:33:05:439
-2.8547,-0.7682,-3.5768,9.0278,-2.9571,10.2289,-0.9763,6.4176,1.0089,2444,2019-08-07 16:33:05:445
-3.9599,-1.4222,-1.9694,9.0278,-2.9571,10.2289,-0.9763,6.4176,1.0089,2449,2019-08-07 16:33:05:450
-3.9599,-1.4222,-1.9694,9.3219,-2.3372,8.3897,-0.9624,6.7851,1.3604,2454,2019-08-07 16:33:05:455
-3.9599,-1.4222,-1.9694,9.3219,-2.3372,8.3897,-0.9624,6.7851,1.3604,2459,2019-08-07 16:33:05:460
-4.4718,-1.7278,-0.5411,9.3219,-2.3372,8.3897,-0.9624,6.7851,1.3604,2464,2019-08-07 16:33:05:465
-4.4718,-1.7278,-0.5411,9.3219,-2.3372,8.3897,-1.0072,7.1356,1.6033,2469,2019-08-07 16:33:05:470
-4.4718,-1.7278,-0.5411,9.3219,-2.3372,8.3897,-1.0072,7.1356,1.6033,2474,2019-08-07 16:33:05:475
-6.5768,-0.8828,0.1801,10.418,-3.4868,7.7184,-1.1851,7.5074,1.8387,2479,2019-08-07 16:33:05:480
-6.5768,-0.8828,0.1801,10.418,-3.4868,7.7184,-1.1851,7.5074,1.8387,2485,2019-08-07 16:33:05:486
-8.8541,-0.5248,1.4906,10.418,-3.4868,7.7184,-1.4983,7.9154,2.1348,2489,2019-08-07 16:33:05:490
-8.8541,-0.5248,1.4906,10.418,-3.4868,7.7184,-1.4983,7.9154,2.1348,2494,2019-08-07 16:33:05:495
-8.8541,-0.5248,1.4906,11.8613,-3.83,5.5362,-1.722,8.1135,2.3415,2499,2019-08-07 16:33:05:500
-10.342,-2.2195,4.9741,11.8613,-3.83,5.5362,-1.722,8.1135,2.3415,2504,2019-08-07 16:33:05:505
-10.342,-2.2195,4.9741,11.8613,-3.83,5.5362,-1.7774,8.1423,2.4598,2510,2019-08-07 16:33:05:511
-10.342,-2.2195,4.9741,11.8613,-3.83,5.5362,-1.7774,8.1423,2.4598,2514,2019-08-07 16:33:05:515
-11.5907,-5.4514,9.2542,12.1973,0.3384,-0.904,-1.7774,8.1423,2.4598,2518,2019-08-07 16:33:05:519
-11.5907,-5.4514,9.2542,12.1973,0.3384,-0.904,-1.4642,7.86,2.3404,2524,2019-08-07 16:33:05:525
-12.4566,-7.8621,11.7478,12.2365,2.6099,-3.4652,-1.4642,7.86,2.3404,2529,2019-08-07 16:33:05:530
-12.4566,-7.8621,11.7478,12.2365,2.6099,-3.4652,-1.1329,7.3423,2.0795,2534,2019-08-07 16:33:05:535
-12.4566,-7.8621,11.7478,12.2365,2.6099,-3.4652,-1.1329,7.3423,2.0795,2538,2019-08-07 16:33:05:539
-14.265,-8.0674,12.2004,12.2365,2.6099,-3.4652,-1.005,6.6136,1.794,2544,2019-08-07 16:33:05:545
-14.265,-8.0674,12.2004,13.33,1.6834,-4.3654,-1.005,6.6136,1.794,2549,2019-08-07 16:33:05:550
-15.8629,-5.1124,12.1721,13.33,1.6834,-4.3654,-1.005,6.6136,1.794,2554,2019-08-07 16:33:05:555
-15.8629,-5.1124,12.1721,13.33,1.6834,-4.3654,-1.1765,5.5334,1.7258,2558,2019-08-07 16:33:05:559
-15.9538,-3.7853,12.2334,13.33,1.6834,-4.3654,-1.1765,5.5334,1.7258,2564,2019-08-07 16:33:05:565
-15.9538,-3.7853,12.2334,12.9215,-1.6566,-4.8602,-1.4961,4.8069,1.9676,2569,2019-08-07 16:33:05:570
-15.9538,-3.7853,12.2334,12.9215,-1.6566,-4.8602,-1.4961,4.8069,1.9676,2574,2019-08-07 16:33:05:575
-14.3798,-5.5134,12.7896,12.9215,-1.6566,-4.8602,-1.8136,4.3489,2.2957,2579,2019-08-07 16:33:05:580
-14.3798,-5.5134,12.7896,12.9215,-1.6566,-4.8602,-1.8136,4.3489,2.2957,2584,2019-08-07 16:33:05:585
-12.3321,-10.1727,14.9674,8.8253,3.6713,-7.4206,-1.8583,4.2786,2.3937,2589,2019-08-07 16:33:05:590
-12.3321,-10.1727,14.9674,8.8253,3.6713,-7.4206,-1.8583,4.2786,2.3937,2594,2019-08-07 16:33:05:595
-12.3321,-10.1727,14.9674,8.8253,3.6713,-7.4206,-1.5739,4.4575,2.2094,2599,2019-08-07 16:33:05:600
-12.0786,-13.099,14.0058,8.8253,3.6713,-7.4206,-1.5739,4.4575,2.2094,2604,2019-08-07 16:33:05:605
-12.0786,-13.099,14.0058,7.579,7.6966,-6.7851,-1.5739,4.4575,2.2094,2608,2019-08-07 16:33:05:609
-12.9923,-12.6598,13.03,7.579,7.6966,-6.7851,-1.5419,4.8016,1.9293,2614,2019-08-07 16:33:05:615
-12.9923,-12.6598,13.03,7.579,7.6966,-6.7851,-1.5419,4.8016,1.9293,2619,2019-08-07 16:33:05:620
-12.9923,-12.6598,13.03,7.579,7.6966,-6.7851,-1.5238,5.1435,1.5671,2624,2019-08-07 16:33:05:625
-14.1549,-10.9699,12.0401,8.9845,5.0385,-5.7949,-1.5238,5.1435,1.5671,2628,2019-08-07 16:33:05:629
-14.1549,-10.9699,12.0401,8.9845,5.0385,-5.7949,-1.4823,5.1723,1.3998,2634,2019-08-07 16:33:05:635
-15.4418,-10.0724,9.8105,8.9845,5.0385,-5.7949,-1.4823,5.1723,1.3998,2639,2019-08-07 16:33:05:640
-15.4418,-10.0724,9.8105,8.9845,5.0385,-5.7949,-1.5015,5.0296,1.3125,2644,2019-08-07 16:33:05:645
-15.4418,-10.0724,9.8105,9.6508,4.393,-5.7669,-1.5015,5.0296,1.3125,2649,2019-08-07 16:33:05:650
-16.1547,-9.977,12.1674,9.6508,4.393,-5.7669,-1.3917,4.5246,1.2432,2654,2019-08-07 16:33:05:655
-16.1547,-9.977,12.1674,9.6508,4.393,-5.7669,-1.3917,4.5246,1.2432,2659,2019-08-07 16:33:05:660
-16.3317,-9.6571,13.8361,9.6508,4.393,-5.7669,-1.3917,4.5246,1.2432,2664,2019-08-07 16:33:05:665
-16.3317,-9.6571,13.8361,9.4477,3.8545,-10.0021,-1.3481,3.6841,1.126,2669,2019-08-07 16:33:05:670
-16.3317,-9.6571,13.8361,9.4477,3.8545,-10.0021,-1.3481,3.6841,1.126,2674,2019-08-07 16:33:05:675
-15.925,-9.4948,14.6987,9.4477,3.8545,-10.0021,-1.4556,2.4303,0.9556,2679,2019-08-07 16:33:05:680
-15.925,-9.4948,14.6987,9.4477,3.8545,-10.0021,-1.4556,2.4303,0.9556,2684,2019-08-07 16:33:05:685
-15.925,-9.4948,14.6987,6.2744,5.3572,-10.4832,-1.3939,0.8484,0.7585,2689,2019-08-07 16:33:05:690
-12.576,-11.2038,14.0718,6.2744,5.3572,-10.4832,-1.3939,0.8484,0.7585,2694,2019-08-07 16:33:05:695
-12.576,-11.2038,14.0718,3.1123,6.2861,-9.0413,-1.1307,0.0761,0.5401,2699,2019-08-07 16:33:05:700
-8.8682,-11.9724,12.0873,3.1123,6.2861,-9.0413,-1.1307,0.0761,0.5401,2703,2019-08-07 16:33:05:704
-8.8682,-11.9724,12.0873,3.1123,6.2861,-9.0413,-1.1307,0.0761,0.5401,2709,2019-08-07 16:33:05:710
-6.7344,-11.9247,10.8617,3.1123,6.2861,-9.0413,-0.8538,-0.1231,0.3335,2714,2019-08-07 16:33:05:715
-6.7344,-11.9247,10.8617,-1.072,6.2845,-6.7127,-0.8538,-0.1231,0.3335,2719,2019-08-07 16:33:05:720
-6.7344,-11.9247,10.8617,-1.072,6.2845,-6.7127,-0.4767,0.1997,0.162,2724,2019-08-07 16:33:05:725
-5.481,-11.7337,9.6974,-1.072,6.2845,-6.7127,-0.4767,0.1997,0.162,2729,2019-08-07 16:33:05:730
-5.481,-11.7337,9.6974,-1.072,6.2845,-6.7127,-0.0921,0.7163,0.0885,2733,2019-08-07 16:33:05:734
-5.481,-11.7337,9.6974,-1.4829,5.131,-5.2947,-0.0921,0.7163,0.0885,2739,2019-08-07 16:33:05:740
-5.9976,-10.44,8.7122,-1.4829,5.131,-5.2947,0.2711,1.1392,0.0618,2744,2019-08-07 16:33:05:745
-5.9976,-10.44,8.7122,-1.4829,5.131,-5.2947,0.2711,1.1392,0.0618,2749,2019-08-07 16:33:05:750
-5.9976,-10.44,8.7122,-1.4829,5.131,-5.2947,0.5375,1.2447,0.0853,2753,2019-08-07 16:33:05:754
-8.3658,-8.8933,8.3068,1.5226,3.0338,-4.7703,0.5375,1.2447,0.0853,2759,2019-08-07 16:33:05:760
-8.3658,-8.8933,8.3068,1.5226,3.0338,-4.7703,0.6056,0.8697,0.1194,2764,2019-08-07 16:33:05:765
-9.9877,-7.6951,7.826,1.5226,3.0338,-4.7703,0.6056,0.8697,0.1194,2770,2019-08-07 16:33:05:771
-9.9877,-7.6951,7.826,1.5226,3.0338,-4.7703,0.6056,0.8697,0.1194,2774,2019-08-07 16:33:05:775
-9.9877,-7.6951,7.826,1.5226,3.0338,-4.7703,0.5822,0.2082,0.1652,2779,2019-08-07 16:33:05:780
-9.9733,-6.4921,6.5768,2.822,1.1994,-3.3845,0.5822,0.2082,0.1652,2784,2019-08-07 16:33:05:785
-9.9733,-6.4921,6.5768,2.822,1.1994,-3.3845,0.4576,-0.7569,0.1993,2789,2019-08-07 16:33:05:790
-8.8394,-5.4418,4.9506,2.822,1.1994,-3.3845,0.4576,-0.7569,0.1993,2794,2019-08-07 16:33:05:795
-8.8394,-5.4418,4.9506,0.5971,-0.489,-0.0265,0.3244,-1.0307,0.178,2800,2019-08-07 16:33:05:801
-8.8394,-5.4418,4.9506,0.5971,-0.489,-0.0265,0.3244,-1.0307,0.178,2803,2019-08-07 16:33:05:804
-7.0501,-4.5491,2.6597,0.5971,-0.489,-0.0265,0.3244,-1.0307,0.178,2809,2019-08-07 16:33:05:810
-7.0501,-4.5491,2.6597,-0.4711,-0.9286,1.3435,0.1838,-0.9476,0.1258,2814,2019-08-07 16:33:05:815
-7.0501,-4.5491,2.6597,-0.4711,-0.9286,1.3435,0.1838,-0.9476,0.1258,2818,2019-08-07 16:33:05:819
-6.2463,-4.4489,1.7169,-0.4711,-0.9286,1.3435,0.0592,-0.4992,0.0416,2825,2019-08-07 16:33:05:826
-6.2463,-4.4489,1.7169,-0.9899,-0.8177,2.3771,0.0592,-0.4992,0.0416,2829,2019-08-07 16:33:05:830
-6.2846,-4.6255,1.5142,-0.9899,-0.8177,2.3771,-0.0229,-0.0347,-0.0202,2834,2019-08-07 16:33:05:835
-6.2846,-4.6255,1.5142,-0.9899,-0.8177,2.3771,-0.0229,-0.0347,-0.0202,2839,2019-08-07 16:33:05:840
-6.2846,-4.6255,1.5142,-0.9899,-0.8177,2.3771,-0.0985,0.3531,-0.082,2844,2019-08-07 16:33:05:845
-6.8204,-4.7783,1.8536,-0.0672,-0.6382,1.7556,-0.0985,0.3531,-0.082,2849,2019-08-07 16:33:05:850
-6.8204,-4.7783,1.8536,-0.0672,-0.6382,1.7556,-0.1571,0.5746,-0.1459,2854,2019-08-07 16:33:05:855
-6.8204,-4.7783,1.8536,-0.0672,-0.6382,1.7556,-0.1571,0.5746,-0.1459,2859,2019-08-07 16:33:05:860
-7.6959,-4.7544,2.3816,0.6329,-0.6735,1.1423,-0.2082,0.5853,-0.2002,2865,2019-08-07 16:33:05:866
-7.6959,-4.7544,2.3816,0.6329,-0.6735,1.1423,-0.2082,0.5853,-0.2002,2869,2019-08-07 16:33:05:870
-7.6959,-4.7544,2.3816,0.6329,-0.6735,1.1423,-0.2082,0.5853,-0.2002,2874,2019-08-07 16:33:05:875
-8.9063,-4.53,3.4233,0.6329,-0.6735,1.1423,-0.2657,0.2764,-0.2322,2879,2019-08-07 16:33:05:880
-8.9063,-4.53,3.4233,1.7445,-1.0012,0.1417,-0.2657,0.2764,-0.2322,2885,2019-08-07 16:33:05:886
-8.9063,-4.53,3.4233,1.7445,-1.0012,0.1417,-0.3158,-0.2083,-0.2322,2889,2019-08-07 16:33:05:890
-8.6575,-4.5396,3.2442,1.7445,-1.0012,0.1417,-0.3158,-0.2083,-0.2322,2895,2019-08-07 16:33:05:896
-8.6575,-4.5396,3.2442,1.7445,-1.0012,0.1417,-0.335,-0.4736,-0.2215,2899,2019-08-07 16:33:05:900
-7.471,-4.8117,2.7116,0.5022,-0.7827,0.8307,-0.335,-0.4736,-0.2215,2904,2019-08-07 16:33:05:905
-7.471,-4.8117,2.7116,0.5022,-0.7827,0.8307,-0.335,-0.4736,-0.2215,2909,2019-08-07 16:33:05:910
-7.471,-4.8117,2.7116,-0.5556,-0.585,1.2516,-0.3158,-0.6653,-0.2013,2913,2019-08-07 16:33:05:914
-6.2032,-5.0409,2.2967,-0.5556,-0.585,1.2516,-0.3158,-0.6653,-0.2013,2919,2019-08-07 16:33:05:920
-6.2032,-5.0409,2.2967,-0.5556,-0.585,1.2516,-0.2402,-0.4374,-0.1842,2924,2019-08-07 16:33:05:925
-5.4951,-5.0934,2.0563,-0.5556,-0.585,1.2516,-0.2402,-0.4374,-0.1842,2929,2019-08-07 16:33:05:930
-5.4951,-5.0934,2.0563,-1.6977,-0.5414,1.6125,-0.2402,-0.4374,-0.1842,2934,2019-08-07 16:33:05:935
-5.4951,-5.0934,2.0563,-1.6977,-0.5414,1.6125,-0.1677,-0.0262,-0.1374,2939,2019-08-07 16:33:05:940
-5.4568,-5.122,2.2449,-1.6764,-0.5094,1.4483,-0.1677,-0.0262,-0.1374,2944,2019-08-07 16:33:05:945
-5.4568,-5.122,2.2449,-1.6764,-0.5094,1.4483,-0.0964,0.303,-0.099,2948,2019-08-07 16:33:05:949
-5.4568,-5.122,2.2449,-1.6764,-0.5094,1.4483,-0.0964,0.303,-0.099,2954,2019-08-07 16:33:05:955
-6.1936,-5.0027,2.9048,-1.6764,-0.5094,1.4483,-0.0964,0.303,-0.099,2959,2019-08-07 16:33:05:960
-6.1936,-5.0027,2.9048,-0.537,-0.7013,0.4342,-0.0122,0.5512,-0.0489,2964,2019-08-07 16:33:05:965
-7.1696,-4.6828,3.5695,-0.537,-0.7013,0.4342,-0.0122,0.5512,-0.0489,2969,2019-08-07 16:33:05:970
-7.1696,-4.6828,3.5695,-0.537,-0.7013,0.4342,0.0336,0.5267,-0.0085,2974,2019-08-07 16:33:05:975
-7.7867,-4.4919,3.9984,-0.537,-0.7013,0.4342,0.0336,0.5267,-0.0085,2979,2019-08-07 16:33:05:980
-7.7867,-4.4919,3.9984,0.7002,-1.1815,-0.5736,0.0379,0.3371,0.0288,2984,2019-08-07 16:33:05:985
-7.7867,-4.4919,3.9984,0.7002,-1.1815,-0.5736,0.0379,0.3371,0.0288,2989,2019-08-07 16:33:05:990
-8.1455,-4.468,4.4038,0.9401,-1.1677,-0.8602,0.0283,0.075,0.0501,2994,2019-08-07 16:33:05:995
-8.1455,-4.468,4.4038,0.9401,-1.1677,-0.8602,0.0283,0.075,0.0501,2999,2019-08-07 16:33:06:000
-8.1455,-4.468,4.4038,0.9401,-1.1677,-0.8602,0.0187,-0.2552,0.0629,3004,2019-08-07 16:33:06:005
-7.801,-4.7401,4.22,0.9401,-1.1677,-0.8602,0.0187,-0.2552,0.0629,3009,2019-08-07 16:33:06:010
-7.801,-4.7401,4.22,0.9401,-1.1677,-0.8602,0.0187,-0.2552,0.0629,3014,2019-08-07 16:33:06:015
-7.801,-4.7401,4.22,0.9401,-1.1677,-0.8602,0.0187,-0.2552,0.0629,3018,2019-08-07 16:33:06:019
-7.7388,-4.8117,4.154,0.4238,-0.7767,-0.5,0.0165,-0.349,0.0629,3024,2019-08-07 16:33:06:025
-7.7388,-4.8117,4.154,0.4238,-0.7767,-0.5,0.0165,-0.349,0.0629,3029,2019-08-07 16:33:06:030
-6.6432,-5.313,3.7015,0.4238,-0.7767,-0.5,-0.0112,-0.3521,0.0182,3034,2019-08-07 16:33:06:035
-6.6432,-5.313,3.7015,0.4238,-0.7767,-0.5,-0.0112,-0.3521,0.0182,3039,2019-08-07 16:33:06:040
-6.6432,-5.313,3.7015,-0.7611,-0.1755,0.1028,-0.0154,-0.2062,-0.0138,3043,2019-08-07 16:33:06:044
-6.337,-5.4753,3.4611,-0.7611,-0.1755,0.1028,-0.0154,-0.2062,-0.0138,3049,2019-08-07 16:33:06:050
-6.337,-5.4753,3.4611,-0.7611,-0.1755,0.1028,-0.0218,-0.0177,-0.0415,3054,2019-08-07 16:33:06:055
-6.337,-5.4753,3.4611,-0.7611,-0.1755,0.1028,-0.0218,-0.0177,-0.0415,3059,2019-08-07 16:33:06:060
-6.3466,-5.5946,3.5506,-0.8137,-0.0227,0.1117,-0.0197,0.2061,-0.0468,3065,2019-08-07 16:33:06:066
-6.3466,-5.5946,3.5506,-0.8137,-0.0227,0.1117,-0.0197,0.2061,-0.0468,3069,2019-08-07 16:33:06:070
-6.3466,-5.5946,3.5506,-0.8137,-0.0227,0.1117,-0.0197,0.2061,-0.0468,3073,2019-08-07 16:33:06:074
-6.5858,-5.5135,3.7863,-0.8137,-0.0227,0.1117,-0.0048,0.3339,-0.0308,3079,2019-08-07 16:33:06:080
-6.5858,-5.5135,3.7863,-0.277,-0.2215,-0.3889,-0.0048,0.3339,-0.0308,3084,2019-08-07 16:33:06:085
-7.1407,-5.3941,4.121,-0.277,-0.2215,-0.3889,-0.0048,0.3339,-0.0308,3089,2019-08-07 16:33:06:090
-7.1407,-5.3941,4.121,-0.277,-0.2215,-0.3889,-0.0101,0.2977,-0.0021,3094,2019-08-07 16:33:06:095
-7.6096,-5.3559,4.3614,-0.277,-0.2215,-0.3889,-0.0101,0.2977,-0.0021,3099,2019-08-07 16:33:06:100
-7.6096,-5.3559,4.3614,0.5021,-0.3048,-0.8911,-0.0175,0.1443,0.0192,3104,2019-08-07 16:33:06:105
-7.6096,-5.3559,4.3614,0.5021,-0.3048,-0.8911,-0.0175,0.1443,0.0192,3109,2019-08-07 16:33:06:110
-7.7818,-5.3034,4.4416,0.5021,-0.3048,-0.8911,-0.0207,-0.0933,0.0246,3115,2019-08-07 16:33:06:116
-7.7818,-5.3034,4.4416,0.5021,-0.3048,-0.8911,-0.0207,-0.0933,0.0246,3118,2019-08-07 16:33:06:119
-7.7818,-5.3034,4.4416,0.2864,-0.4559,-0.5045,-0.0207,-0.0933,0.0246,3124,2019-08-07 16:33:06:125
-7.3608,-5.1841,3.9843,0.2864,-0.4559,-0.5045,-0.0271,-0.3447,0.0203,3129,2019-08-07 16:33:06:130
-7.3608,-5.1841,3.9843,0.2864,-0.4559,-0.5045,-0.0271,-0.3447,0.0203,3133,2019-08-07 16:33:06:134
-6.8536,-5.0743,3.6308,0.2864,-0.4559,-0.5045,-0.0325,-0.4139,0.0128,3139,2019-08-07 16:33:06:140
-6.8536,-5.0743,3.6308,-0.5053,-0.4774,0.1264,-0.0325,-0.4139,0.0128,3144,2019-08-07 16:33:06:145
-6.8536,-5.0743,3.6308,-0.5053,-0.4774,0.1264,-0.0399,-0.3362,-0.0117,3148,2019-08-07 16:33:06:149
-6.5378,-5.1077,3.4187,-0.5053,-0.4774,0.1264,-0.0399,-0.3362,-0.0117,3154,2019-08-07 16:33:06:155
-6.5378,-5.1077,3.4187,-0.5053,-0.4774,0.1264,-0.0484,-0.1956,-0.0308,3159,2019-08-07 16:33:06:160
-6.5761,-5.1029,3.3998,-0.5657,-0.5172,0.294,-0.0484,-0.1956,-0.0308,3165,2019-08-07 16:33:06:166
-6.5761,-5.1029,3.3998,-0.5657,-0.5172,0.294,-0.0495,0.0058,-0.05,3168,2019-08-07 16:33:06:169
-6.5761,-5.1029,3.3998,-0.5657,-0.5172,0.294,-0.0495,0.0058,-0.05,3174,2019-08-07 16:33:06:175
-6.7388,-5.1029,3.3668,-0.4001,-0.5224,0.3248,-0.0495,0.0058,-0.05,3178,2019-08-07 16:33:06:179
-6.7388,-5.1029,3.3668,-0.4001,-0.5224,0.3248,-0.0612,0.1613,-0.0681,3184,2019-08-07 16:33:06:185
-7.1789,-5.0934,3.5648,-0.4001,-0.5224,0.3248,-0.0612,0.1613,-0.0681,3188,2019-08-07 16:33:06:189
-7.1789,-5.0934,3.5648,0.0962,-0.5727,0.0401,-0.0719,0.2007,-0.0756,3194,2019-08-07 16:33:06:195
-7.1789,-5.0934,3.5648,0.0962,-0.5727,0.0401,-0.0719,0.2007,-0.0756,3199,2019-08-07 16:33:06:200
-7.4564,-5.0791,3.7817,0.0962,-0.5727,0.0401,-0.0964,0.1432,-0.0713,3204,2019-08-07 16:33:06:205
-7.4564,-5.0791,3.7817,0.0962,-0.5727,0.0401,-0.0964,0.1432,-0.0713,3209,2019-08-07 16:33:06:210
-7.5951,-5.0552,3.9136,0.4457,-0.5949,-0.2807,-0.1092,0.0452,-0.0671,3215,2019-08-07 16:33:06:216
-7.5951,-5.0552,3.9136,0.4457,-0.5949,-0.2807,-0.1092,0.0452,-0.0671,3219,2019-08-07 16:33:06:220
-7.5951,-5.0552,3.9136,0.4457,-0.5949,-0.2807,-0.1092,0.0452,-0.0671,3224,2019-08-07 16:33:06:225
-7.5616,-5.0457,3.7817,0.4457,-0.5949,-0.2807,-0.1262,-0.1306,-0.0575,3229,2019-08-07 16:33:06:230
-7.5616,-5.0457,3.7817,0.2662,-0.5409,-0.0415,-0.1262,-0.1306,-0.0575,3234,2019-08-07 16:33:06:235
-7.5616,-5.0457,3.7817,0.2662,-0.5409,-0.0415,-0.156,-0.2957,-0.05,3238,2019-08-07 16:33:06:239
-7.1453,-5.1936,3.4423,0.2662,-0.5409,-0.0415,-0.156,-0.2957,-0.05,3244,2019-08-07 16:33:06:245
-7.1453,-5.1936,3.4423,0.2662,-0.5409,-0.0415,-0.1635,-0.3383,-0.0553,3249,2019-08-07 16:33:06:250
-7.1453,-5.1936,3.4423,-0.4044,-0.4106,0.3814,-0.1635,-0.3383,-0.0553,3254,2019-08-07 16:33:06:255
-6.6669,-5.27,3.282,-0.4044,-0.4106,0.3814,-0.156,-0.2904,-0.066,3259,2019-08-07 16:33:06:260
-6.6669,-5.27,3.282,-0.4044,-0.4106,0.3814,-0.156,-0.2904,-0.066,3263,2019-08-07 16:33:06:264
-6.6669,-5.27,3.282,-0.4044,-0.4106,0.3814,-0.156,-0.2904,-0.066,3269,2019-08-07 16:33:06:270
-6.5234,-5.2748,3.1547,-0.4044,-0.4106,0.3814,-0.1528,-0.1508,-0.083,3274,2019-08-07 16:33:06:275
-6.5234,-5.2748,3.1547,-0.5233,-0.4141,0.5213,-0.1528,-0.1508,-0.083,3279,2019-08-07 16:33:06:280
-6.5712,-5.3369,3.2207,-0.5233,-0.4141,0.5213,-0.155,-0.0358,-0.0958,3284,2019-08-07 16:33:06:285
-6.5712,-5.3369,3.2207,-0.5233,-0.4141,0.5213,-0.155,-0.0358,-0.0958,3289,2019-08-07 16:33:06:290
-6.5712,-5.3369,3.2207,-0.5233,-0.4141,0.5213,-0.1496,0.0569,-0.1011,3294,2019-08-07 16:33:06:295
-6.7626,-5.2318,3.3951,-0.3114,-0.4967,0.2625,-0.1496,0.0569,-0.1011,3298,2019-08-07 16:33:06:299
-6.7626,-5.2318,3.3951,-0.3114,-0.4967,0.2625,-0.1475,0.0974,-0.1022,3304,2019-08-07 16:33:06:305
-6.8439,-5.1889,3.4376,-0.3114,-0.4967,0.2625,-0.1475,0.0974,-0.1022,3309,2019-08-07 16:33:06:310
-6.8439,-5.1889,3.4376,-0.3114,-0.4967,0.2625,-0.1528,0.0793,-0.0916,3314,2019-08-07 16:33:06:315
-6.8439,-5.1889,3.4376,-0.2217,-0.6253,0.0863,-0.1528,0.0793,-0.0916,3319,2019-08-07 16:33:06:320
-6.8008,-5.1507,3.5366,-0.2217,-0.6253,0.0863,-0.1528,0.0335,-0.0734,3324,2019-08-07 16:33:06:325
-6.8008,-5.1507,3.5366,-0.2217,-0.6253,0.0863,-0.1528,0.0335,-0.0734,3329,2019-08-07 16:33:06:330
-6.8391,-5.1793,3.6968,-0.2217,-0.6253,0.0863,-0.1496,-0.0347,-0.05,3333,2019-08-07 16:33:06:334
-6.8391,-5.1793,3.6968,-0.3358,-0.6107,-0.0837,-0.1496,-0.0347,-0.05,3339,2019-08-07 16:33:06:340
-6.8391,-5.1793,3.6968,-0.3358,-0.6107,-0.0837,-0.1422,-0.1071,-0.0159,3344,2019-08-07 16:33:06:345
-6.6572,-5.2271,3.6591,-0.3358,-0.6107,-0.0837,-0.1422,-0.1071,-0.0159,3349,2019-08-07 16:33:06:350
-6.6572,-5.2271,3.6591,-0.3358,-0.6107,-0.0837,-0.1422,-0.1071,-0.0159,3354,2019-08-07 16:33:06:355
-6.5903,-5.2271,3.5224,-0.4652,-0.5545,0.0875,-0.1358,-0.1657,0.0192,3359,2019-08-07 16:33:06:360
-6.5903,-5.2271,3.5224,-0.4652,-0.5545,0.0875,-0.1358,-0.1657,0.0192,3364,2019-08-07 16:33:06:365
-6.5903,-5.2271,3.5224,-0.4652,-0.5545,0.0875,-0.123,-0.1593,0.0491,3369,2019-08-07 16:33:06:370
-6.4754,-5.2891,3.3292,-0.4652,-0.5545,0.0875,-0.123,-0.1593,0.0491,3374,2019-08-07 16:33:06:375
-6.4754,-5.2891,3.3292,-0.6352,-0.5195,0.3033,-0.1092,-0.1071,0.0618,3378,2019-08-07 16:33:06:379
-6.418,-5.2796,3.1925,-0.6352,-0.5195,0.3033,-0.1092,-0.1071,0.0618,3384,2019-08-07 16:33:06:385
-6.418,-5.2796,3.1925,-0.6352,-0.5195,0.3033,-0.0996,-0.0123,0.065,3389,2019-08-07 16:33:06:390
-6.418,-5.2796,3.1925,-0.6352,-0.5195,0.3033,-0.0996,-0.0123,0.065,3394,2019-08-07 16:33:06:395
-6.4802,-5.2366,3.1218,-0.5728,-0.5467,0.49,-0.0964,0.0931,0.065,3399,2019-08-07 16:33:06:400
-6.4802,-5.2366,3.1218,-0.5728,-0.5467,0.49,-0.0964,0.0931,0.065,3404,2019-08-07 16:33:06:405
-6.595,-5.2748,3.0935,-0.4661,-0.5073,0.5043,-0.0964,0.0931,0.065,3408,2019-08-07 16:33:06:409
-6.595,-5.2748,3.0935,-0.4661,-0.5073,0.5043,-0.0847,0.2029,0.0555,3414,2019-08-07 16:33:06:415
-6.595,-5.2748,3.0935,-0.4661,-0.5073,0.5043,-0.0847,0.2029,0.0555,3419,2019-08-07 16:33:06:420
-6.9598,-5.2222,3.2063,-0.4661,-0.5073,0.5043,-0.0868,0.2838,0.0395,3424,2019-08-07 16:33:06:425
-6.9598,-5.2222,3.2063,-0.026,-0.5818,0.293,-0.0868,0.2838,0.0395,3429,2019-08-07 16:33:06:430
-6.9598,-5.2222,3.2063,-0.026,-0.5818,0.293,-0.0847,0.303,0.0395,3434,2019-08-07 16:33:06:435
-7.2278,-5.1888,3.3619,-0.026,-0.5818,0.293,-0.0847,0.303,0.0395,3438,2019-08-07 16:33:06:439
-7.2278,-5.1888,3.3619,-0.026,-0.5818,0.293,-0.0772,0.2668,0.0309,3444,2019-08-07 16:33:06:445
-7.5148,-5.1649,3.5835,0.4008,-0.6122,-0.0832,-0.0772,0.2668,0.0309,3449,2019-08-07 16:33:06:450
-7.5148,-5.1649,3.5835,0.4008,-0.6122,-0.0832,-0.0836,0.1634,0.0341,3454,2019-08-07 16:33:06:455
-7.5148,-5.1649,3.5835,0.4008,-0.6122,-0.0832,-0.0836,0.1634,0.0341,3459,2019-08-07 16:33:06:460
-7.7014,-5.1553,3.7531,0.4008,-0.6122,-0.0832,-0.0964,0.0037,0.0416,3463,2019-08-07 16:33:06:464
-7.7014,-5.1553,3.7531,0.5388,-0.6125,-0.3327,-0.0964,0.0037,0.0416,3469,2019-08-07 16:33:06:470
-7.6057,-5.141,3.7343,0.5388,-0.6125,-0.3327,-0.0964,0.0037,0.0416,3474,2019-08-07 16:33:06:475
-7.6057,-5.141,3.7343,0.5388,-0.6125,-0.3327,-0.1155,-0.2094,0.0565,3479,2019-08-07 16:33:06:480
-7.6057,-5.141,3.7343,0.5388,-0.6125,-0.3327,-0.1155,-0.2094,0.0565,3484,2019-08-07 16:33:06:485
-7.1608,-5.2651,3.3525,-0.058,-0.5133,0.1853,-0.1347,-0.3159,0.0618,3489,2019-08-07 16:33:06:490
-7.1608,-5.2651,3.3525,-0.058,-0.5133,0.1853,-0.1347,-0.3159,0.0618,3494,2019-08-07 16:33:06:495
-6.7493,-5.3177,3.1922,-0.058,-0.5133,0.1853,-0.1358,-0.3234,0.0629,3499,2019-08-07 16:33:06:500
-6.7493,-5.3177,3.1922,-0.058,-0.5133,0.1853,-0.1358,-0.3234,0.0629,3504,2019-08-07 16:33:06:505
-6.7493,-5.3177,3.1922,-0.6424,-0.3894,0.4529,-0.1283,-0.2456,0.0576,3509,2019-08-07 16:33:06:510
-6.4336,-5.3558,3.0649,-0.6424,-0.3894,0.4529,-0.1283,-0.2456,0.0576,3515,2019-08-07 16:33:06:516
-6.4336,-5.3558,3.0649,-0.6424,-0.3894,0.4529,-0.1081,-0.1242,0.0544,3518,2019-08-07 16:33:06:519
-6.4336,-5.3558,3.0649,-0.6424,-0.3894,0.4529,-0.1081,-0.1242,0.0544,3524,2019-08-07 16:33:06:525
-6.4097,-5.394,2.9377,-0.6502,-0.434,0.5906,-0.09,0.0154,0.0395,3529,2019-08-07 16:33:06:530
-6.4097,-5.394,2.9377,-0.6502,-0.434,0.5906,-0.09,0.0154,0.0395,3534,2019-08-07 16:33:06:535
-6.6393,-5.3129,3.0319,-0.6502,-0.434,0.5906,-0.0719,0.1347,0.0373,3539,2019-08-07 16:33:06:540
-6.6393,-5.3129,3.0319,-0.6502,-0.434,0.5906,-0.0719,0.1347,0.0373,3544,2019-08-07 16:33:06:545
-6.6393,-5.3129,3.0319,-0.2349,-0.4665,0.2877,-0.0484,0.205,0.0384,3549,2019-08-07 16:33:06:550
-6.9838,-5.2842,3.3195,-0.2349,-0.4665,0.2877,-0.0484,0.205,0.0384,3554,2019-08-07 16:33:06:555
-6.9838,-5.2842,3.3195,-0.2349,-0.4665,0.2877,-0.0282,0.189,0.0459,3559,2019-08-07 16:33:06:560
-7.1991,-5.227,3.409,-0.2349,-0.4665,0.2877,-0.0282,0.189,0.0459,3565,2019-08-07 16:33:06:566
-7.1991,-5.227,3.409,0.1373,-0.4778,0.0048,-0.0282,0.189,0.0459,3568,2019-08-07 16:33:06:569
-7.1991,-5.227,3.409,0.1373,-0.4778,0.0048,-0.0239,0.0889,0.0597,3574,2019-08-07 16:33:06:575
-7.3043,-5.2747,3.4609,0.1373,-0.4778,0.0048,-0.0239,0.0889,0.0597,3578,2019-08-07 16:33:06:579
-7.3043,-5.2747,3.4609,0.1373,-0.4778,0.0048,-0.0282,-0.0336,0.0704,3584,2019-08-07 16:33:06:585
-7.2134,-5.2651,3.475,0.061,-0.4856,-0.0097,-0.0197,-0.1338,0.0853,3589,2019-08-07 16:33:06:590
-7.2134,-5.2651,3.475,0.061,-0.4856,-0.0097,-0.0197,-0.1338,0.0853,3594,2019-08-07 16:33:06:595
-7.2134,-5.2651,3.475,0.061,-0.4856,-0.0097,-0.0197,-0.1987,0.0917,3600,2019-08-07 16:33:06:601
-7.0986,-5.2413,3.4137,0.061,-0.4856,-0.0097,-0.0197,-0.1987,0.0917,3603,2019-08-07 16:33:06:604
-7.0986,-5.2413,3.4137,0.061,-0.4856,-0.0097,-0.0197,-0.1987,0.0917,3609,2019-08-07 16:33:06:610
-7.0986,-5.2413,3.4137,-0.0675,-0.5284,0.0816,-0.0293,-0.2403,0.0981,3614,2019-08-07 16:33:06:615
-7.1225,-5.1935,3.3619,-0.0675,-0.5284,0.0816,-0.0293,-0.2403,0.0981,3619,2019-08-07 16:33:06:620
-7.1225,-5.1935,3.3619,-0.0675,-0.5284,0.0816,-0.0367,-0.2446,0.1204,3624,2019-08-07 16:33:06:625
-6.8977,-5.2842,3.2535,-0.0675,-0.5284,0.0816,-0.0367,-0.2446,0.1204,3629,2019-08-07 16:33:06:630
-6.8977,-5.2842,3.2535,-0.2801,-0.4269,0.3152,-0.0367,-0.2137,0.1076,3634,2019-08-07 16:33:06:635
-6.8977,-5.2842,3.2535,-0.2801,-0.4269,0.3152,-0.0367,-0.2137,0.1076,3638,2019-08-07 16:33:06:639
-6.7924,-5.2126,3.0885,-0.356,-0.5015,0.445,-0.0325,-0.1572,0.0927,3644,2019-08-07 16:33:06:645
-6.7924,-5.2126,3.0885,-0.356,-0.5015,0.445,-0.0325,-0.1572,0.0927,3649,2019-08-07 16:33:06:650
-6.7924,-5.2126,3.0885,-0.356,-0.5015,0.445,-0.0325,-0.1572,0.0927,3654,2019-08-07 16:33:06:655
-6.7781,-5.1697,3.0696,-0.356,-0.5015,0.445,-0.0431,-6.0E-4,0.0555,3659,2019-08-07 16:33:06:660
-6.7781,-5.1697,3.0696,-0.3846,-0.5032,0.4622,-0.0431,-6.0E-4,0.0555,3664,2019-08-07 16:33:06:665
-6.7781,-5.1697,3.0696,-0.3846,-0.5032,0.4622,-0.0495,0.1102,0.0331,3668,2019-08-07 16:33:06:669
-6.9312,-5.2699,3.2299,-0.3846,-0.5032,0.4622,-0.0495,0.1102,0.0331,3674,2019-08-07 16:33:06:675
-6.9312,-5.2699,3.2299,0.0936,-0.4678,0.186,-0.0378,0.1879,0.0118,3679,2019-08-07 16:33:06:680
-7.2709,-5.2365,3.4043,0.0936,-0.4678,0.186,-0.0378,0.1879,0.0118,3684,2019-08-07 16:33:06:685
-7.2709,-5.2365,3.4043,0.0936,-0.4678,0.186,-0.041,0.1911,0.0107,3689,2019-08-07 16:33:06:690
-7.2709,-5.2365,3.4043,0.0936,-0.4678,0.186,-0.041,0.1911,0.0107,3694,2019-08-07 16:33:06:695
-7.3426,-5.2079,3.376,0.0936,-0.4678,0.186,-0.0495,0.1336,0.0096,3699,2019-08-07 16:33:06:700
-7.3426,-5.2079,3.376,0.1548,-0.5239,0.0622,-0.0495,0.1336,0.0096,3704,2019-08-07 16:33:06:705
-7.3809,-5.1983,3.508,0.1548,-0.5239,0.0622,-0.057,0.0505,0.0139,3709,2019-08-07 16:33:06:710
-7.3809,-5.1983,3.508,0.1548,-0.5239,0.0622,-0.057,0.0505,0.0139,3714,2019-08-07 16:33:06:715
-7.3809,-5.1983,3.508,0.1548,-0.5239,0.0622,-0.0559,-0.0177,0.0203,3719,2019-08-07 16:33:06:720
-7.2804,-5.2556,3.4279,0.0904,-0.4461,0.0405,-0.0559,-0.0177,0.0203,3725,2019-08-07 16:33:06:726
-7.2804,-5.2556,3.4279,0.0904,-0.4461,0.0405,-0.0602,-0.0762,0.0224,3729,2019-08-07 16:33:06:730
-7.0364,-5.3177,3.3195,0.0904,-0.4461,0.0405,-0.0602,-0.0762,0.0224,3734,2019-08-07 16:33:06:735
-7.0364,-5.3177,3.3195,0.0904,-0.4461,0.0405,-0.0602,-0.0762,0.0224,3738,2019-08-07 16:33:06:739
-7.0364,-5.3177,3.3195,-0.2767,-0.3311,0.3032,-0.0548,-0.0816,0.0203,3744,2019-08-07 16:33:06:745
-6.7972,-5.3749,3.1545,-0.2767,-0.3311,0.3032,-0.0548,-0.0816,0.0203,3749,2019-08-07 16:33:06:750
-6.7972,-5.3749,3.1545,-0.2767,-0.3311,0.3032,-0.0367,-0.0038,0.0096,3754,2019-08-07 16:33:06:755
-6.7972,-5.3749,3.1545,-0.2767,-0.3311,0.3032,-0.0367,-0.0038,0.0096,3759,2019-08-07 16:33:06:760
-6.7972,-5.3367,3.0791,-0.3581,-0.342,0.4235,-0.0367,-0.0038,0.0096,3764,2019-08-07 16:33:06:765
-6.7972,-5.3367,3.0791,-0.3581,-0.342,0.4235,-0.0261,0.0985,-0.0021,3769,2019-08-07 16:33:06:770
-6.9168,-5.3415,3.1403,-0.3581,-0.342,0.4235,-0.0261,0.0985,-0.0021,3774,2019-08-07 16:33:06:775
-6.9168,-5.3415,3.1403,-0.3581,-0.342,0.4235,-0.0186,0.1602,-0.0127,3779,2019-08-07 16:33:06:780
-6.9168,-5.3415,3.1403,-0.118,-0.3868,0.2137,-0.0186,0.1602,-0.0127,3784,2019-08-07 16:33:06:785
-7.1274,-5.3033,3.2959,-0.118,-0.3868,0.2137,-0.0186,0.1602,-0.0127,3788,2019-08-07 16:33:06:789
-7.1274,-5.3033,3.2959,-0.118,-0.3868,0.2137,-0.0154,0.1794,-0.017,3794,2019-08-07 16:33:06:795
-7.29,-5.2365,3.3855,-0.118,-0.3868,0.2137,-0.0154,0.1794,-0.017,3798,2019-08-07 16:33:06:799
-7.29,-5.2365,3.3855,0.1145,-0.484,-0.0158,-0.0207,0.1421,-0.0255,3804,2019-08-07 16:33:06:805
-7.3235,-5.2365,3.4515,0.1145,-0.484,-0.0158,-0.0207,0.1421,-0.0255,3809,2019-08-07 16:33:06:810
-7.3235,-5.2365,3.4515,0.1145,-0.484,-0.0158,-0.0303,0.075,-0.0287,3814,2019-08-07 16:33:06:815
-7.3235,-5.2365,3.4515,0.1145,-0.484,-0.0158,-0.0303,0.075,-0.0287,3819,2019-08-07 16:33:06:820
-7.1896,-5.2174,3.4373,-0.0241,-0.4918,-0.0309,-0.0356,0.0122,-0.0244,3824,2019-08-07 16:33:06:825
-7.1896,-5.2174,3.4373,-0.0241,-0.4918,-0.0309,-0.0356,0.0122,-0.0244,3829,2019-08-07 16:33:06:830
-7.1896,-5.2174,3.4373,-0.0241,-0.4918,-0.0309,-0.0356,-0.0272,-0.0117,3833,2019-08-07 16:33:06:834
-6.9456,-5.2413,3.3006,-0.0241,-0.4918,-0.0309,-0.0356,-0.0272,-0.0117,3839,2019-08-07 16:33:06:840
-6.9456,-5.2413,3.3006,-0.3334,-0.4181,0.1003,-0.0282,-0.0304,0.0011,3844,2019-08-07 16:33:06:845
-6.8786,-5.2651,3.3147,-0.3334,-0.4181,0.1003,-0.0282,-0.0304,0.0011,3849,2019-08-07 16:33:06:850
-6.8786,-5.2651,3.3147,-0.3334,-0.4181,0.1003,-0.0282,-0.0304,0.0011,3854,2019-08-07 16:33:06:855
-6.8786,-5.2651,3.3147,-0.3334,-0.4181,0.1003,-0.0143,-0.0177,0.0192,3859,2019-08-07 16:33:06:860
-6.8116,-5.3081,3.2488,-0.4009,-0.4164,0.1868,-0.0143,-0.0177,0.0192,3864,2019-08-07 16:33:06:865
-6.8116,-5.3081,3.2488,-0.4009,-0.4164,0.1868,-0.0101,0.0037,0.0341,3869,2019-08-07 16:33:06:870
-6.8116,-5.3081,3.2488,-0.4009,-0.4164,0.1868,-0.0101,0.0037,0.0341,3874,2019-08-07 16:33:06:875
-6.7973,-5.2986,3.0885,-0.4009,-0.4164,0.1868,-0.009,0.0377,0.0309,3879,2019-08-07 16:33:06:880
-6.7973,-5.2986,3.0885,-0.2825,-0.4166,0.2149,-0.009,0.0377,0.0309,3884,2019-08-07 16:33:06:885
-6.9599,-5.2938,3.1922,-0.2825,-0.4166,0.2149,-5.0E-4,0.0899,0.0256,3888,2019-08-07 16:33:06:889
-6.9599,-5.2938,3.1922,-0.2825,-0.4166,0.2149,-5.0E-4,0.0899,0.0256,3894,2019-08-07 16:33:06:895
-6.9599,-5.2938,3.1922,-0.2825,-0.4166,0.2149,-0.0016,0.1262,0.0075,3898,2019-08-07 16:33:06:899
-7.046,-5.2508,3.2063,-0.1063,-0.4079,0.1332,-0.0016,0.1262,0.0075,3904,2019-08-07 16:33:06:905
-7.046,-5.2508,3.2063,-0.1063,-0.4079,0.1332,-0.0016,0.1262,0.0075,3909,2019-08-07 16:33:06:910
-7.2757,-5.2795,3.3006,-0.1063,-0.4079,0.1332,-0.008,0.1453,-0.0063,3914,2019-08-07 16:33:06:915
-7.2757,-5.2795,3.3006,-0.1063,-0.4079,0.1332,-0.008,0.1453,-0.0063,3919,2019-08-07 16:33:06:920
-7.2757,-5.2795,3.3006,-0.1063,-0.4079,0.1332,-0.0165,0.1357,-0.0138,3924,2019-08-07 16:33:06:925
-7.2279,-5.289,3.2582,-0.0021,-0.4312,0.0832,-0.0165,0.1357,-0.0138,3928,2019-08-07 16:33:06:929
-7.2279,-5.289,3.2582,-0.0021,-0.4312,0.0832,-0.0218,0.1102,-0.0234,3934,2019-08-07 16:33:06:935
-7.2279,-5.289,3.2582,-0.0021,-0.4312,0.0832,-0.0218,0.1102,-0.0234,3939,2019-08-07 16:33:06:940
-7.2757,-5.2747,3.3477,-0.0021,-0.4312,0.0832,-0.0186,0.0729,-0.0202,3944,2019-08-07 16:33:06:945
-7.2757,-5.2747,3.3477,0.0154,-0.3949,-0.0424,-0.0186,0.0729,-0.0202,3949,2019-08-07 16:33:06:950
-7.18,-5.2938,3.31,0.0154,-0.3949,-0.0424,-0.0207,0.0047,-0.0074,3954,2019-08-07 16:33:06:955
-7.18,-5.2938,3.31,0.0154,-0.3949,-0.0424,-0.0207,0.0047,-0.0074,3959,2019-08-07 16:33:06:960
-7.1083,-5.2842,3.2865,-0.134,-0.3956,0.0485,-0.0143,-0.0379,0.0043,3965,2019-08-07 16:33:06:966
-7.1083,-5.2842,3.2865,-0.134,-0.3956,0.0485,-0.0143,-0.0379,0.0043,3969,2019-08-07 16:33:06:970
-7.1083,-5.2842,3.2865,-0.134,-0.3956,0.0485,-0.0143,-0.0379,0.0043,3974,2019-08-07 16:33:06:975
-6.9456,-5.3129,3.2487,-0.134,-0.3956,0.0485,-0.0165,-0.0688,0.0171,3979,2019-08-07 16:33:06:980
-6.9456,-5.3129,3.2487,-0.134,-0.3956,0.0485,-0.0165,-0.0688,0.0171,3984,2019-08-07 16:33:06:985
-6.9456,-5.3129,3.2487,-0.3474,-0.408,0.1263,-0.0133,-0.0624,0.0256,3989,2019-08-07 16:33:06:990
-6.8786,-5.3272,3.1026,-0.3474,-0.408,0.1263,-0.0133,-0.0624,0.0256,3994,2019-08-07 16:33:06:995
-6.8786,-5.3272,3.1026,-0.3474,-0.408,0.1263,-0.0069,-0.0251,0.0278,3998,2019-08-07 16:33:06:999
-6.8786,-5.3272,3.1026,-0.3474,-0.408,0.1263,-0.0069,-0.0251,0.0278,4003,2019-08-07 16:33:07:004
-6.8499,-5.3845,3.0602,-0.396,-0.3139,0.2957,-0.0037,0.0292,0.0203,4009,2019-08-07 16:33:07:010
-6.8499,-5.3845,3.0602,-0.396,-0.3139,0.2957,-0.0037,0.0292,0.0203,4014,2019-08-07 16:33:07:015
-6.9743,-5.3272,3.1073,-0.396,-0.3139,0.2957,0.0016,0.0804,0.015,4018,2019-08-07 16:33:07:019
-6.9743,-5.3272,3.1073,-0.396,-0.3139,0.2957,0.0016,0.0804,0.015,4024,2019-08-07 16:33:07:025
-6.9743,-5.3272,3.1073,-0.1494,-0.4108,0.2295,-0.0037,0.1112,0.015,4029,2019-08-07 16:33:07:030
-7.1322,-5.2556,3.145,-0.1494,-0.4108,0.2295,-0.0037,0.1112,0.015,4034,2019-08-07 16:33:07:035
-7.1322,-5.2556,3.145,-0.1494,-0.4108,0.2295,-0.0037,0.1091,0.0043,4039,2019-08-07 16:33:07:040
-7.3714,-5.2317,3.2299,-0.1494,-0.4108,0.2295,-0.0037,0.1091,0.0043,4044,2019-08-07 16:33:07:045
-7.3714,-5.2317,3.2299,0.075,-0.4461,0.0476,-0.0058,0.0814,1.0E-4,4049,2019-08-07 16:33:07:050
-7.3714,-5.2317,3.2299,0.075,-0.4461,0.0476,-0.0058,0.0814,1.0E-4,4054,2019-08-07 16:33:07:055
-7.3618,-5.2795,3.244,0.075,-0.4461,0.0476,-0.0048,0.0335,1.0E-4,4059,2019-08-07 16:33:07:060
-7.3618,-5.2795,3.244,0.075,-0.4461,0.0476,-0.0048,0.0335,1.0E-4,4064,2019-08-07 16:33:07:065
-7.2662,-5.3081,3.2723,-0.0211,-0.4153,-0.0023,-5.0E-4,-0.0326,0.0054,4069,2019-08-07 16:33:07:070
-7.2662,-5.3081,3.2723,-0.0211,-0.4153,-0.0023,-5.0E-4,-0.0326,0.0054,4074,2019-08-07 16:33:07:075
-7.2662,-5.3081,3.2723,-0.0211,-0.4153,-0.0023,0.0038,-0.0762,0.0139,4079,2019-08-07 16:33:07:080
-7.1083,-5.3654,3.2487,-0.0211,-0.4153,-0.0023,0.0038,-0.0762,0.0139,4084,2019-08-07 16:33:07:085
-7.1083,-5.3654,3.2487,-0.2485,-0.2456,0.1345,0.0038,-0.0762,0.0139,4089,2019-08-07 16:33:07:090
-6.9313,-5.4322,3.2157,-0.2485,-0.2456,0.1345,0.0134,-0.105,0.0224,4094,2019-08-07 16:33:07:095
-6.9313,-5.4322,3.2157,-0.2485,-0.2456,0.1345,0.0134,-0.105,0.0224,4098,2019-08-07 16:33:07:099
-6.9313,-5.4322,3.2157,-0.2485,-0.2456,0.1345,0.0197,-0.0848,0.0309,4104,2019-08-07 16:33:07:105
-6.759,-5.3702,3.1073,-0.5031,-0.3126,0.2399,0.0197,-0.0848,0.0309,4108,2019-08-07 16:33:07:109
-6.759,-5.3702,3.1073,-0.5031,-0.3126,0.2399,0.0272,-0.0294,0.0288,4115,2019-08-07 16:33:07:116
-6.759,-5.3702,3.1073,-0.5031,-0.3126,0.2399,0.0272,-0.0294,0.0288,4119,2019-08-07 16:33:07:120
-6.8404,-5.3463,3.0272,-0.5031,-0.3126,0.2399,0.0272,-0.0294,0.0288,4124,2019-08-07 16:33:07:125
-6.8404,-5.3463,3.0272,-0.4238,-0.3877,0.2174,0.0261,0.0282,0.0309,4129,2019-08-07 16:33:07:130
-6.8404,-5.3463,3.0272,-0.4238,-0.3877,0.2174,0.0261,0.0282,0.0309,4133,2019-08-07 16:33:07:134
-6.9456,-5.246,3.1827,-0.4238,-0.3877,0.2174,0.0197,0.0729,0.0256,4139,2019-08-07 16:33:07:140
-6.9456,-5.246,3.1827,-0.4238,-0.3877,0.2174,0.0197,0.0729,0.0256,4144,2019-08-07 16:33:07:145
-7.1705,-5.2556,3.2723,-0.1025,-0.4149,0.072,0.0112,0.1017,0.0192,4149,2019-08-07 16:33:07:150
-7.1705,-5.2556,3.2723,-0.1025,-0.4149,0.072,0.0112,0.1017,0.0192,4154,2019-08-07 16:33:07:155
-7.1705,-5.2556,3.2723,-0.1025,-0.4149,0.072,-0.0048,0.0995,0.0182,4159,2019-08-07 16:33:07:160
-7.2375,-5.2508,3.2723,-0.1025,-0.4149,0.072,-0.0111,0.0686,0.0192,4164,2019-08-07 16:33:07:165
-7.2375,-5.2508,3.2723,0.012,-0.3768,-0.0122,-0.0111,0.0686,0.0192,4169,2019-08-07 16:33:07:170
-7.2997,-5.2508,3.3477,0.012,-0.3768,-0.0122,-0.0111,0.0686,0.0192,4174,2019-08-07 16:33:07:175
-7.2997,-5.2508,3.3477,0.012,-0.3768,-0.0122,-0.0026,0.0271,0.0171,4179,2019-08-07 16:33:07:180
-7.2997,-5.2508,3.3477,0.012,-0.3768,-0.0122,-0.0026,0.0271,0.0171,4184,2019-08-07 16:33:07:185
-7.2375,-5.2317,3.2817,-0.1026,-0.4151,0.0376,0.0048,-0.0262,0.016,4189,2019-08-07 16:33:07:190
-7.2375,-5.2317,3.2817,-0.1026,-0.4151,0.0376,0.0048,-0.0262,0.016,4194,2019-08-07 16:33:07:195
-7.0557,-5.2413,3.211,-0.1026,-0.4151,0.0376,0.0123,-0.0592,0.0224,4200,2019-08-07 16:33:07:201
-7.0557,-5.2413,3.211,-0.1026,-0.4151,0.0376,0.0123,-0.0592,0.0224,4204,2019-08-07 16:33:07:205
-7.0557,-5.2413,3.211,-0.1026,-0.4151,0.0376,0.0123,-0.0592,0.0224,4209,2019-08-07 16:33:07:210
-7.0222,-5.2985,3.2252,-0.265,-0.3572,0.1133,0.0134,-0.0592,0.0331,4213,2019-08-07 16:33:07:214
-7.0222,-5.2985,3.2252,-0.265,-0.3572,0.1133,0.0134,-0.0592,0.0331,4219,2019-08-07 16:33:07:220
-7.0126,-5.2651,3.1875,-0.265,-0.3572,0.1133,0.0347,-0.039,0.0405,4225,2019-08-07 16:33:07:226
-7.0126,-5.2651,3.1875,-0.2287,-0.3489,0.1559,0.0347,-0.039,0.0405,4229,2019-08-07 16:33:07:230
-7.0126,-5.2651,3.1875,-0.2287,-0.3489,0.1559,0.0496,-0.0262,0.0395,4234,2019-08-07 16:33:07:235
-7.0892,-5.2365,3.1545,-0.2287,-0.3489,0.1559,0.0496,-0.0262,0.0395,4239,2019-08-07 16:33:07:240
-7.0892,-5.2365,3.1545,-0.2287,-0.3489,0.1559,0.0432,-0.0155,0.0405,4244,2019-08-07 16:33:07:245
-7.0892,-5.2365,3.1545,-0.2474,-0.4103,0.1921,0.0432,-0.0155,0.0405,4249,2019-08-07 16:33:07:250
-7.0509,-5.1983,3.2487,-0.2474,-0.4103,0.1921,0.0379,-0.0017,0.0373,4254,2019-08-07 16:33:07:255
-7.0509,-5.1983,3.2487,-0.2474,-0.4103,0.1921,0.0379,-0.0017,0.0373,4259,2019-08-07 16:33:07:260
-7.1322,-5.2174,3.2299,-0.2474,-0.4103,0.1921,0.0325,0.0164,0.0299,4264,2019-08-07 16:33:07:265
-7.1322,-5.2174,3.2299,-0.1381,-0.4303,0.1426,0.0325,0.0164,0.0299,4269,2019-08-07 16:33:07:270
-7.1322,-5.2174,3.2299,-0.1381,-0.4303,0.1426,0.0219,0.0303,0.0171,4274,2019-08-07 16:33:07:275
-7.2279,-5.1458,3.2629,-0.1381,-0.4303,0.1426,0.0219,0.0303,0.0171,4279,2019-08-07 16:33:07:280
-7.2279,-5.1458,3.2629,-0.1381,-0.4303,0.1426,0.0134,0.026,0.0267,4284,2019-08-07 16:33:07:285
-7.2279,-5.1601,3.2582,-0.1395,-0.4616,0.0984,0.0134,0.026,0.0267,4288,2019-08-07 16:33:07:289
-7.1657,-5.1601,3.2582,-0.1395,-0.4616,0.0984,0.008,0.0164,0.0278,4294,2019-08-07 16:33:07:295
-7.1657,-5.1601,3.2582,-0.1395,-0.4616,0.0984,0.008,0.0164,0.0278,4298,2019-08-07 16:33:07:299
-7.2088,-5.2222,3.2864,-0.1395,-0.4616,0.0984,0.0144,5.0E-4,0.0235,4304,2019-08-07 16:33:07:305
-7.2088,-5.2222,3.2864,-0.1395,-0.4616,0.0984,0.0144,5.0E-4,0.0235,4309,2019-08-07 16:33:07:310
-7.1801,-5.2365,3.3053,-0.1014,-0.455,0.0467,0.0134,-0.0155,0.0363,4314,2019-08-07 16:33:07:315
-7.1801,-5.2365,3.3053,-0.1014,-0.455,0.0467,0.0134,-0.0155,0.0363,4319,2019-08-07 16:33:07:320
-7.1801,-5.2365,3.3053,-0.1014,-0.455,0.0467,0.0134,-0.0155,0.0363,4324,2019-08-07 16:33:07:325
-7.0653,-5.2556,3.3006,-0.253,-0.3332,0.0659,0.024,-0.0177,0.032,4329,2019-08-07 16:33:07:330
-7.0653,-5.2556,3.3006,-0.253,-0.3332,0.0659,0.024,-0.0177,0.032,4334,2019-08-07 16:33:07:335
-7.1466,-5.2222,3.3336,-0.253,-0.3332,0.0659,0.0347,-0.0155,0.0299,4339,2019-08-07 16:33:07:340
-7.1466,-5.2222,3.3336,-0.1733,-0.3721,0.0078,0.0347,-0.0155,0.0299,4344,2019-08-07 16:33:07:345
-7.1179,-5.246,3.3524,-0.1733,-0.3721,0.0078,0.0432,-0.0358,0.0309,4350,2019-08-07 16:33:07:351
-7.1179,-5.246,3.3524,-0.1733,-0.3721,0.0078,0.0432,-0.0358,0.0309,4354,2019-08-07 16:33:07:355
-7.1179,-5.246,3.3524,-0.1733,-0.3721,0.0078,0.0421,-0.0496,0.0331,4359,2019-08-07 16:33:07:360
-7.0844,-5.2126,3.2063,-0.2566,-0.3964,0.1882,0.0421,-0.0496,0.0331,4364,2019-08-07 16:33:07:365
-7.0844,-5.2126,3.2063,-0.2566,-0.3964,0.1882,0.0442,-0.04,0.0214,4368,2019-08-07 16:33:07:369
-7.0844,-5.2126,3.2063,-0.2566,-0.3964,0.1882,0.0442,-0.04,0.0214,4374,2019-08-07 16:33:07:375
-7.0749,-5.141,3.2157,-0.2959,-0.4176,0.2548,0.0389,-0.0251,0.0182,4380,2019-08-07 16:33:07:381
-7.0749,-5.141,3.2157,-0.2959,-0.4176,0.2548,0.0389,-0.0251,0.0182,4384,2019-08-07 16:33:07:385
-7.0031,-5.1601,3.1356,-0.2959,-0.4176,0.2548,0.0389,-0.0251,0.0182,4388,2019-08-07 16:33:07:389
-7.0031,-5.1601,3.1356,-0.2959,-0.4176,0.2548,0.0261,5.0E-4,0.0182,4394,2019-08-07 16:33:07:395
-7.0031,-5.1601,3.1356,-0.2959,-0.4176,0.2548,0.0261,5.0E-4,0.0182,4398,2019-08-07 16:33:07:399
-7.0174,-5.2078,3.1497,-0.289,-0.3929,0.2301,0.0176,0.026,0.0235,4404,2019-08-07 16:33:07:405
-7.0174,-5.2078,3.1497,-0.289,-0.3929,0.2301,0.0176,0.026,0.0235,4409,2019-08-07 16:33:07:410
-7.0174,-5.2078,3.1497,-0.289,-0.3929,0.2301,0.0165,0.042,0.0224,4414,2019-08-07 16:33:07:415
-7.0692,-5.2079,3.2301,-0.289,-0.3929,0.2301,0.0165,0.042,0.0224,4419,2019-08-07 16:33:07:420
-7.0692,-5.2079,3.2301,-0.1424,-0.4019,0.1274,0.0165,0.042,0.0224,4424,2019-08-07 16:33:07:425
-7.1936,-5.1554,3.3055,-0.1424,-0.4019,0.1274,0.0112,0.0324,0.0192,4430,2019-08-07 16:33:07:431
-7.1936,-5.1554,3.3055,-0.1424,-0.4019,0.1274,0.0112,0.0324,0.0192,4434,2019-08-07 16:33:07:435
-7.1936,-5.1554,3.3055,-0.1424,-0.4019,0.1274,0.0016,0.0111,0.0246,4439,2019-08-07 16:33:07:440
-7.0548,-5.2223,3.3291,-0.2766,-0.3489,0.0544,0.0016,0.0111,0.0246,4444,2019-08-07 16:33:07:445
-7.0548,-5.2223,3.3291,-0.2766,-0.3489,0.0544,-5.0E-4,0.0122,0.0235,4449,2019-08-07 16:33:07:450
-7.0548,-5.2223,3.3291,-0.2766,-0.3489,0.0544,-5.0E-4,0.0122,0.0235,4453,2019-08-07 16:33:07:454
-7.1744,-5.2175,3.3055,-0.2766,-0.3489,0.0544,0.0091,0.0143,0.0214,4458,2019-08-07 16:33:07:459
-7.1744,-5.2175,3.3055,-0.1565,-0.3152,0.0253,0.0091,0.0143,0.0214,4464,2019-08-07 16:33:07:465
-7.2031,-5.2032,3.3385,-0.1565,-0.3152,0.0253,0.007,-0.0113,0.0267,4469,2019-08-07 16:33:07:470
-7.2031,-5.2032,3.3385,-0.1565,-0.3152,0.0253,0.007,-0.0113,0.0267,4473,2019-08-07 16:33:07:474
-7.2031,-5.2032,3.3385,-0.1565,-0.3152,0.0253,0.0048,-0.023,0.0235,4480,2019-08-07 16:33:07:481
-7.1792,-5.227,3.2206,-0.1594,-0.3336,0.1647,0.0048,-0.023,0.0235,4484,2019-08-07 16:33:07:485
-7.1792,-5.227,3.2206,-0.1594,-0.3336,0.1647,0.0048,-0.023,0.0235,4489,2019-08-07 16:33:07:490
-7.1792,-5.227,3.2206,-0.1594,-0.3336,0.1647,0.0123,-0.0166,0.015,4494,2019-08-07 16:33:07:495
-7.1122,-5.227,3.1264,-0.1594,-0.3336,0.1647,0.0123,-0.0166,0.015,4499,2019-08-07 16:33:07:500
-7.1122,-5.227,3.1264,-0.1417,-0.354,0.1767,0.008,0.0058,0.0075,4504,2019-08-07 16:33:07:505
-7.2031,-5.2366,3.1688,-0.1417,-0.354,0.1767,0.008,0.0058,0.0075,4509,2019-08-07 16:33:07:510
-7.2031,-5.2366,3.1688,-0.1417,-0.354,0.1767,0.007,0.0154,0.0022,4515,2019-08-07 16:33:07:516
-7.2031,-5.2366,3.1688,-0.1417,-0.354,0.1767,0.007,0.0154,0.0022,4518,2019-08-07 16:33:07:519
-7.2318,-5.1506,3.2631,-0.1776,-0.3614,0.1326,0.007,0.0154,0.0022,4524,2019-08-07 16:33:07:525
-7.2318,-5.1506,3.2631,-0.1776,-0.3614,0.1326,0.0016,0.0164,-0.0063,4529,2019-08-07 16:33:07:530
-7.227,-5.1697,3.1971,-0.1776,-0.3614,0.1326,0.0016,0.0164,-0.0063,4534,2019-08-07 16:33:07:535
-7.227,-5.1697,3.1971,-0.1776,-0.3614,0.1326,-0.0069,0.0164,-0.0127,4539,2019-08-07 16:33:07:540
-7.2222,-5.1936,3.3008,-0.1213,-0.3616,0.0827,-0.0069,0.0164,-0.0127,4544,2019-08-07 16:33:07:545
-7.2222,-5.1936,3.3008,-0.1213,-0.3616,0.0827,-0.009,0.0068,-0.0063,4549,2019-08-07 16:33:07:550
-7.2222,-5.1936,3.3008,-0.1213,-0.3616,0.0827,-0.009,0.0068,-0.0063,4554,2019-08-07 16:33:07:555
-7.0595,-5.2557,3.3055,-0.1213,-0.3616,0.0827,-0.009,-0.0102,-0.0031,4559,2019-08-07 16:33:07:560
-7.0595,-5.2557,3.3055,-0.3028,-0.3336,0.0447,-0.009,-0.0102,-0.0031,4565,2019-08-07 16:33:07:566
-7.0595,-5.2557,3.3055,-0.3028,-0.3336,0.0447,-0.0037,-0.0123,-0.0042,4570,2019-08-07 16:33:07:571
-7.0117,-5.2366,3.2536,-0.3028,-0.3336,0.0447,-0.0037,-0.0123,-0.0042,4574,2019-08-07 16:33:07:575
-7.0117,-5.2366,3.2536,-0.3028,-0.3336,0.0447,-0.0037,-0.0123,-0.0042,4578,2019-08-07 16:33:07:579
-7.0643,-5.2891,3.2159,-0.2783,-0.2667,0.1685,-5.0E-4,-0.0091,1.0E-4,4584,2019-08-07 16:33:07:585
-7.0643,-5.2891,3.2159,-0.2783,-0.2667,0.1685,-5.0E-4,-0.0091,1.0E-4,4588,2019-08-07 16:33:07:589
-7.0643,-5.2891,3.2159,-0.2783,-0.2667,0.1685,0.0059,-6.0E-4,0.0054,4594,2019-08-07 16:33:07:595
-7.0691,-5.2748,3.2961,-0.2783,-0.2667,0.1685,0.0059,-6.0E-4,0.0054,4598,2019-08-07 16:33:07:599
-7.0691,-5.2748,3.2961,-0.3032,-0.3126,0.1318,0.0134,-0.0027,0.0107,4604,2019-08-07 16:33:07:605
-7.0356,-5.2414,3.3008,-0.3032,-0.3126,0.1318,0.0134,-0.0027,0.0107,4609,2019-08-07 16:33:07:610
-7.0356,-5.2414,3.3008,-0.3032,-0.3126,0.1318,0.0134,-0.0027,0.0107,4614,2019-08-07 16:33:07:615
-7.0356,-5.2414,3.3008,-0.3032,-0.3126,0.1318,0.0155,0.0015,0.0054,4619,2019-08-07 16:33:07:620
-7.1217,-5.1936,3.1829,-0.3032,-0.3126,0.1318,0.0155,0.0015,0.0054,4624,2019-08-07 16:33:07:625
-7.1217,-5.1936,3.1829,-0.1993,-0.3196,0.1708,0.0219,0.0143,1.0E-4,4629,2019-08-07 16:33:07:630
-7.203,-5.1698,3.3055,-0.1993,-0.3196,0.1708,0.0219,0.0143,1.0E-4,4635,2019-08-07 16:33:07:636
-7.203,-5.1698,3.3055,-0.1993,-0.3196,0.1708,0.0219,0.0111,-0.0042,4638,2019-08-07 16:33:07:639
-7.203,-5.1698,3.3055,-0.1993,-0.3196,0.1708,0.0219,0.0111,-0.0042,4644,2019-08-07 16:33:07:645
-7.1695,-5.1459,3.3197,-0.1768,-0.4033,0.0677,0.0134,-0.0049,-0.0085,4649,2019-08-07 16:33:07:650
-7.1695,-5.1459,3.3197,-0.1768,-0.4033,0.0677,0.0134,-0.0049,-0.0085,4655,2019-08-07 16:33:07:656
-7.1121,-5.1029,3.1924,-0.1768,-0.4033,0.0677,0.0016,-0.0113,-0.0127,4659,2019-08-07 16:33:07:660
-7.1121,-5.1029,3.1924,-0.1768,-0.4033,0.0677,0.0016,-0.0113,-0.0127,4665,2019-08-07 16:33:07:666
-7.1121,-5.1029,3.1924,-0.238,-0.3938,0.1641,0.0016,-0.0113,-0.0127,4669,2019-08-07 16:33:07:670
-7.093,-5.2127,3.1924,-0.238,-0.3938,0.1641,-0.0037,-0.0059,-0.0095,4674,2019-08-07 16:33:07:675
-7.093,-5.2127,3.1924,-0.238,-0.3938,0.1641,-0.0037,-0.0059,-0.0095,4678,2019-08-07 16:33:07:679
-7.0499,-5.2127,3.1547,-0.2951,-0.337,0.2346,-0.0026,-6.0E-4,-0.0021,4684,2019-08-07 16:33:07:685
-7.0499,-5.2127,3.1547,-0.2951,-0.337,0.2346,-0.0026,-6.0E-4,-0.0021,4688,2019-08-07 16:33:07:689
-7.0499,-5.2127,3.1547,-0.2951,-0.337,0.2346,0.0016,5.0E-4,0.0011,4694,2019-08-07 16:33:07:695
-6.9638,-5.2414,3.1264,-0.3813,-0.3083,0.2629,0.0016,5.0E-4,0.0011,4699,2019-08-07 16:33:07:700
-6.9638,-5.2414,3.1264,-0.3813,-0.3083,0.2629,0.0016,5.0E-4,0.0011,4704,2019-08-07 16:33:07:705
-6.9877,-5.2509,3.0981,-0.3675,-0.2795,0.2856,-0.0016,0.0218,0.0054,4709,2019-08-07 16:33:07:710
-6.9877,-5.2509,3.0981,-0.3675,-0.2795,0.2856,-0.0016,0.0218,0.0054,4714,2019-08-07 16:33:07:715
-6.9877,-5.2509,3.0981,-0.3675,-0.2795,0.2856,-0.0016,0.0218,0.0054,4719,2019-08-07 16:33:07:720
-7.1934,-5.165,2.9944,-0.3675,-0.2795,0.2856,0.0038,0.0622,0.0171,4724,2019-08-07 16:33:07:725
-7.1934,-5.165,2.9944,-0.2293,-0.301,0.1648,0.0038,0.0622,0.0171,4729,2019-08-07 16:33:07:730
-7.2125,-5.2891,3.2961,-0.2293,-0.301,0.1648,-0.009,0.0527,0.0139,4734,2019-08-07 16:33:07:735
-7.2125,-5.2891,3.2961,-0.2293,-0.301,0.1648,-0.009,0.0527,0.0139,4739,2019-08-07 16:33:07:740
-7.2125,-5.2891,3.2961,-0.2293,-0.301,0.1648,0.0048,0.0292,0.0096,4744,2019-08-07 16:33:07:745
-7.4135,-5.3177,3.3762,0.0574,-0.2266,-0.0021,0.0048,0.0292,0.0096,4749,2019-08-07 16:33:07:750
-7.4135,-5.3177,3.3762,0.0574,-0.2266,-0.0021,0.0219,-0.024,1.0E-4,4754,2019-08-07 16:33:07:755
-7.4135,-5.3177,3.3762,0.0574,-0.2266,-0.0021,0.0219,-0.024,1.0E-4,4760,2019-08-07 16:33:07:761
-7.3369,-5.1793,3.2442,0.0574,-0.2266,-0.0021,0.0219,-0.024,1.0E-4,4764,2019-08-07 16:33:07:765
-7.3369,-5.1793,3.2442,-0.0615,-0.3482,0.159,0.0102,-0.0485,-0.0159,4769,2019-08-07 16:33:07:770
-7.3369,-5.1793,3.2442,-0.0615,-0.3482,0.159,0.0102,-0.0485,-0.0159,4774,2019-08-07 16:33:07:775
-7.2843,-5.1411,3.2395,-0.0615,-0.3482,0.159,6.0E-4,-0.0603,-0.0202,4780,2019-08-07 16:33:07:781
-7.2843,-5.1411,3.2395,-0.0615,-0.3482,0.159,6.0E-4,-0.0603,-0.0202,4784,2019-08-07 16:33:07:785
-7.0403,-5.1984,3.2537,-0.2859,-0.3451,0.1347,0.0048,-0.056,-0.0276,4789,2019-08-07 16:33:07:790
-7.0403,-5.1984,3.2537,-0.2859,-0.3451,0.1347,0.0048,-0.056,-0.0276,4794,2019-08-07 16:33:07:795
-7.0403,-5.1984,3.2537,-0.2859,-0.3451,0.1347,0.0102,-0.04,-0.0298,4799,2019-08-07 16:33:07:800
-6.935,-5.1936,3.2254,-0.2859,-0.3451,0.1347,0.0102,-0.04,-0.0298,4804,2019-08-07 16:33:07:805
-6.935,-5.1936,3.2254,-0.4285,-0.3483,0.2646,0.0229,-0.0091,-0.0298,4809,2019-08-07 16:33:07:810
-6.935,-5.1936,3.2254,-0.4285,-0.3483,0.2646,0.0229,-0.0091,-0.0298,4814,2019-08-07 16:33:07:815
-6.8919,-5.227,3.0793,-0.4285,-0.3483,0.2646,0.0165,0.0409,-0.0255,4819,2019-08-07 16:33:07:820
-6.8919,-5.227,3.0793,-0.4285,-0.3483,0.2646,0.0165,0.0409,-0.0255,4824,2019-08-07 16:33:07:825
-6.8345,-5.2461,3.1783,-0.4895,-0.2939,0.2105,0.0038,0.0644,-0.018,4828,2019-08-07 16:33:07:829
-6.8345,-5.2461,3.1783,-0.4895,-0.2939,0.2105,0.0038,0.0644,-0.018,4834,2019-08-07 16:33:07:835
-6.8345,-5.2461,3.1783,-0.4895,-0.2939,0.2105,0.0038,0.0644,-0.018,4839,2019-08-07 16:33:07:840
-6.8728,-5.2509,3.1594,-0.4895,-0.2939,0.2105,-0.0037,0.0825,-0.0042,4844,2019-08-07 16:33:07:845
-6.8728,-5.2509,3.1594,-0.4453,-0.2672,0.1758,-0.0037,0.0825,-0.0042,4849,2019-08-07 16:33:07:850
-6.8728,-5.2509,3.1594,-0.4453,-0.2672,0.1758,-5.0E-4,0.1091,0.0022,4853,2019-08-07 16:33:07:854
-7.0163,-5.2557,3.2725,-0.4453,-0.2672,0.1758,-5.0E-4,0.1091,0.0022,4859,2019-08-07 16:33:07:860
-7.0163,-5.2557,3.2725,-0.4453,-0.2672,0.1758,-0.0016,0.1017,0.0096,4865,2019-08-07 16:33:07:866
-7.1933,-5.1936,3.3433,-0.1616,-0.3569,0.0234,-0.0016,0.1017,0.0096,4869,2019-08-07 16:33:07:870
-7.1933,-5.1936,3.3433,-0.1616,-0.3569,0.0234,-0.0016,0.1017,0.0096,4874,2019-08-07 16:33:07:875
-7.1981,-5.1507,3.3008,-0.1606,-0.3984,0.0598,-0.0112,0.0708,0.015,4879,2019-08-07 16:33:07:880
-7.1981,-5.1507,3.3008,-0.1606,-0.3984,0.0598,-0.0112,0.0708,0.015,4884,2019-08-07 16:33:07:885
-7.1981,-5.1507,3.3008,-0.1606,-0.3984,0.0598,-0.0165,0.0356,0.0203,4889,2019-08-07 16:33:07:890
-7.2363,-5.1984,3.2066,-0.1606,-0.3984,0.0598,-0.0165,0.0356,0.0203,4894,2019-08-07 16:33:07:895
-7.2363,-5.1984,3.2066,-0.1668,-0.3476,0.1786,-0.0143,0.0313,0.0214,4899,2019-08-07 16:33:07:900
-7.2363,-5.1984,3.2066,-0.1668,-0.3476,0.1786,-0.0143,0.0313,0.0214,4903,2019-08-07 16:33:07:904
-6.9541,-5.0791,2.7493,-0.1668,-0.3476,0.1786,-0.09,-0.105,0.0033,4909,2019-08-07 16:33:07:910
-6.9541,-5.0791,2.7493,-0.1668,-0.3476,0.1786,-0.09,-0.105,0.0033,4914,2019-08-07 16:33:07:915
-7.1167,-4.9979,4.1917,-0.249,-0.5478,-0.8411,-0.074,0.0313,0.0469,4918,2019-08-07 16:33:07:919
-7.1167,-4.9979,4.1917,-0.249,-0.5478,-0.8411,-0.074,0.0313,0.0469,4925,2019-08-07 16:33:07:926
-7.1167,-4.9979,4.1917,-0.249,-0.5478,-0.8411,0.1071,-0.0784,0.0011,4928,2019-08-07 16:33:07:929
-7.0784,-5.4419,2.8577,-0.249,-0.5478,-0.8411,0.1071,-0.0784,0.0011,4934,2019-08-07 16:33:07:935
-7.0784,-5.4419,2.8577,0.0345,-0.3703,0.4249,0.1071,-0.0784,0.0011,4939,2019-08-07 16:33:07:940
-7.1885,-5.0504,3.2301,0.0345,-0.3703,0.4249,0.0315,-0.0528,0.0235,4944,2019-08-07 16:33:07:945
-7.1885,-5.0504,3.2301,0.0345,-0.3703,0.4249,0.0315,-0.0528,0.0235,4949,2019-08-07 16:33:07:950
-7.1885,-5.0504,3.2301,0.0345,-0.3703,0.4249,0.0538,-0.0496,0.0192,4954,2019-08-07 16:33:07:955
-7.0258,-5.1841,3.249,-0.2137,-0.3297,0.1599,0.0538,-0.0496,0.0192,4959,2019-08-07 16:33:07:960
-7.0258,-5.1841,3.249,-0.2137,-0.3297,0.1599,0.0698,-0.0432,-0.0074,4963,2019-08-07 16:33:07:964
-7.0258,-5.1841,3.249,-0.2137,-0.3297,0.1599,0.0698,-0.0432,-0.0074,4969,2019-08-07 16:33:07:970
-7.0832,-5.2366,3.4894,-0.2137,-0.3297,0.1599,0.0815,-0.0304,0.016,4973,2019-08-07 16:33:07:974
-7.0832,-5.2366,3.4894,-0.3315,-0.2894,-0.1739,0.0815,-0.0304,0.016,4979,2019-08-07 16:33:07:980
-7.1358,-5.165,3.5554,-0.3315,-0.2894,-0.1739,0.1156,-0.0017,0.0118,4984,2019-08-07 16:33:07:985
-7.1358,-5.165,3.5554,-0.3315,-0.2894,-0.1739,0.1156,-0.0017,0.0118,4989,2019-08-07 16:33:07:990
-7.1358,-5.165,3.5554,-0.3315,-0.2894,-0.1739,0.1103,0.0015,0.0267,4993,2019-08-07 16:33:07:994
-7.265,-5.122,3.3008,-0.095,-0.4348,0.1417,0.1103,0.0015,0.0267,4999,2019-08-07 16:33:08:000
-7.265,-5.122,3.3008,-0.095,-0.4348,0.1417,0.0325,-0.0485,0.0256,5004,2019-08-07 16:33:08:005
-7.265,-5.122,3.3008,-0.095,-0.4348,0.1417,0.0325,-0.0485,0.0256,5009,2019-08-07 16:33:08:010
-7.3989,-4.9215,3.4517,-0.095,-0.4348,0.1417,-0.0112,-0.0816,0.0171,5014,2019-08-07 16:33:08:015
-7.3989,-4.9215,3.4517,-0.0616,-0.3842,-0.2608,-0.0112,-0.0816,0.0171,5019,2019-08-07 16:33:08:020
-7.3128,-5.2032,3.6308,-0.0616,-0.3842,-0.2608,-0.0112,-0.0816,0.0171,5023,2019-08-07 16:33:08:024
-7.3128,-5.2032,3.6308,-0.0616,-0.3842,-0.2608,-0.0026,-0.1039,0.0011,5029,2019-08-07 16:33:08:030
-7.0257,-5.2653,3.3291,-0.0616,-0.3842,-0.2608,-0.0101,-0.0784,-0.0212,5034,2019-08-07 16:33:08:035
-7.0257,-5.2653,3.3291,-0.0616,-0.3842,-0.2608,-0.0101,-0.0784,-0.0212,5038,2019-08-07 16:33:08:039