ACCELEROMETER X (m/s²),ACCELEROMETER Y (m/s²),ACCELEROMETER Z (m/s²),LINEAR ACCELERATION X (m/s²),LINEAR ACCELERATION Y (m/s²),LINEAR ACCELERATION Z (m/s²),GYROSCOPE X (rad/s),GYROSCOPE Y (rad/s),GYROSCOPE Z (rad/s),Time since start in ms ,YYYY-MO-DD HH-MI-SS_SSS
-7.6055,-4.6871,3.5731,-0.1194,-0.0353,0.0659,0.0176,0.0367,-0.0138,3,2019-08-07 16:34:22:302
-7.6055,-4.6871,3.5731,-0.1194,-0.0353,0.0659,0.0176,0.0367,-0.0138,8,2019-08-07 16:34:22:307
-7.6055,-4.6871,3.5731,-0.2305,-0.146,0.0956,0.0229,0.0026,-0.0202,12,2019-08-07 16:34:22:311
-7.5385,-4.6011,3.5212,-0.2305,-0.146,0.0956,0.0229,0.0026,-0.0202,18,2019-08-07 16:34:22:317
-7.5385,-4.6011,3.5212,-0.2305,-0.146,0.0956,0.0251,-0.0294,-0.0213,23,2019-08-07 16:34:22:322
-7.5385,-4.6011,3.5212,-0.2305,-0.146,0.0956,0.0251,-0.0294,-0.0213,28,2019-08-07 16:34:22:327
-7.3807,-4.5916,3.5448,-0.2305,-0.146,0.0956,0.0251,-0.0294,-0.0213,32,2019-08-07 16:34:22:331
-7.3807,-4.5916,3.5448,-0.4131,-0.2139,0.0884,0.0229,-0.0453,-0.0191,38,2019-08-07 16:34:22:337
-7.3807,-4.5916,3.5448,-0.4131,-0.2139,0.0884,0.0229,-0.0453,-0.0191,43,2019-08-07 16:34:22:342
-7.2706,-4.6346,3.4882,-0.4131,-0.2139,0.0884,0.0251,-0.0379,-0.0181,48,2019-08-07 16:34:22:347
-7.2706,-4.6346,3.4882,-0.4131,-0.2139,0.0884,0.0251,-0.0379,-0.0181,53,2019-08-07 16:34:22:352
-7.2898,-4.6011,3.5495,-0.4654,-0.1724,0.1257,0.0219,-0.0208,-0.0138,57,2019-08-07 16:34:22:356
-7.2898,-4.6011,3.5495,-0.4654,-0.1724,0.1257,0.0219,-0.0208,-0.0138,63,2019-08-07 16:34:22:362
-7.2898,-4.6011,3.5495,-0.4654,-0.1724,0.1257,0.0112,5.0E-4,-0.0074,67,2019-08-07 16:34:22:366
-7.3567,-4.5916,3.4929,-0.4654,-0.1724,0.1257,0.0112,5.0E-4,-0.0074,73,2019-08-07 16:34:22:372
-7.3567,-4.5916,3.4929,-0.3638,-0.2586,0.1232,0.0038,0.0122,-0.0032,78,2019-08-07 16:34:22:377
-7.4381,-4.52,3.4741,-0.3638,-0.2586,0.1232,0.0038,0.0122,-0.0032,83,2019-08-07 16:34:22:382
-7.4381,-4.52,3.4741,-0.3638,-0.2586,0.1232,-0.0026,0.0218,-0.001,87,2019-08-07 16:34:22:386
-7.4381,-4.52,3.4741,-0.3638,-0.2586,0.1232,-0.0026,0.0218,-0.001,93,2019-08-07 16:34:22:392
-7.4524,-4.5343,3.4175,-0.2888,-0.2777,0.2093,-0.0101,0.0271,-0.0064,98,2019-08-07 16:34:22:397
-7.4524,-4.5343,3.4175,-0.2888,-0.2777,0.2093,-0.0101,0.0271,-0.0064,103,2019-08-07 16:34:22:402
-7.4524,-4.5343,3.4175,-0.2888,-0.2777,0.2093,-0.0207,0.0303,-0.0096,108,2019-08-07 16:34:22:407
-7.5187,-4.5439,3.5214,-0.2888,-0.2777,0.2093,-0.0207,0.0303,-0.0096,113,2019-08-07 16:34:22:412
-7.5187,-4.5439,3.5214,-0.2435,-0.2507,0.1606,-0.0133,0.0324,-0.0128,118,2019-08-07 16:34:22:417
-7.4996,-4.6155,3.5355,-0.2435,-0.2507,0.1606,-0.0133,0.0324,-0.0128,122,2019-08-07 16:34:22:421
-7.4996,-4.6155,3.5355,-0.2435,-0.2507,0.1606,-0.0143,0.025,-0.0149,128,2019-08-07 16:34:22:427
-7.4996,-4.6155,3.5355,-0.2435,-0.2507,0.1606,-0.0143,0.025,-0.0149,133,2019-08-07 16:34:22:432
-7.5283,-4.6108,3.4931,-0.2158,-0.2053,0.1222,0.0016,0.0132,-0.0042,137,2019-08-07 16:34:22:436
-7.5283,-4.6108,3.4931,-0.2158,-0.2053,0.1222,0.0016,0.0132,-0.0042,144,2019-08-07 16:34:22:443
-7.4373,-4.6346,3.5638,-0.2158,-0.2053,0.1222,0.0112,-6.0E-4,-0.0032,148,2019-08-07 16:34:22:447
-7.4373,-4.6346,3.5638,-0.2158,-0.2053,0.1222,0.0112,-6.0E-4,-0.0032,152,2019-08-07 16:34:22:451
-7.4373,-4.6346,3.5638,-0.3545,-0.2435,0.1225,0.0187,-0.0081,-0.0032,158,2019-08-07 16:34:22:457
-7.4086,-4.5773,3.5685,-0.3545,-0.2435,0.1225,0.0187,-0.0081,-0.0032,163,2019-08-07 16:34:22:462
-7.4086,-4.5773,3.5685,-0.3545,-0.2435,0.1225,0.0261,-0.0113,0.0064,168,2019-08-07 16:34:22:467
-7.3512,-4.5821,3.5072,-0.3545,-0.2435,0.1225,0.0261,-0.0113,0.0064,172,2019-08-07 16:34:22:471
-7.3512,-4.5821,3.5072,-0.373,-0.2794,0.0373,0.0261,-0.0123,0.0043,178,2019-08-07 16:34:22:477
-7.3512,-4.5821,3.5072,-0.373,-0.2794,0.0373,0.0261,-0.0123,0.0043,183,2019-08-07 16:34:22:482
-7.3991,-4.4866,3.6109,-0.373,-0.2794,0.0373,0.0261,-0.0123,0.0043,187,2019-08-07 16:34:22:486
-7.3991,-4.4866,3.6109,-0.373,-0.2794,0.0373,0.024,-0.0144,0.0075,194,2019-08-07 16:34:22:493
-7.3991,-4.4866,3.6109,-0.3104,-0.3474,0.0854,0.024,-0.0144,0.0075,197,2019-08-07 16:34:22:496
-7.3943,-4.4819,3.5732,-0.3104,-0.3474,0.0854,0.0208,-0.0123,0.0096,203,2019-08-07 16:34:22:502
-7.3943,-4.4819,3.5732,-0.3104,-0.3474,0.0854,0.0208,-0.0123,0.0096,207,2019-08-07 16:34:22:506
-7.4469,-4.501,3.5874,-0.3104,-0.3474,0.0854,0.0102,-0.0091,0.0054,213,2019-08-07 16:34:22:512
-7.4469,-4.501,3.5874,-0.2722,-0.3013,0.1129,0.0102,-0.0091,0.0054,218,2019-08-07 16:34:22:517
-7.4469,-4.501,3.5874,-0.2722,-0.3013,0.1129,0.0102,-0.0091,0.0054,222,2019-08-07 16:34:22:521
-7.4517,-4.458,3.5214,-0.2722,-0.3013,0.1129,-0.0016,5.0E-4,0.0043,228,2019-08-07 16:34:22:527
-7.4517,-4.458,3.5214,-0.2722,-0.3013,0.1129,-0.0016,5.0E-4,0.0043,232,2019-08-07 16:34:22:531
-7.4182,-4.5105,3.5497,-0.2539,-0.2853,0.0804,-0.0058,0.0047,0.0054,238,2019-08-07 16:34:22:537
-7.4182,-4.5105,3.5497,-0.2539,-0.2853,0.0804,-0.0058,0.0047,0.0054,242,2019-08-07 16:34:22:541
-7.4182,-4.5105,3.5497,-0.2539,-0.2853,0.0804,-0.009,0.0154,0.0,248,2019-08-07 16:34:22:547
-7.4995,-4.5057,3.5638,-0.2539,-0.2853,0.0804,-0.009,0.0154,0.0,253,2019-08-07 16:34:22:552
-7.4995,-4.5057,3.5638,-0.2505,-0.2807,0.0867,-0.0218,0.009,-0.0042,257,2019-08-07 16:34:22:556
-7.4995,-4.5057,3.5638,-0.2505,-0.2807,0.0867,-0.0218,0.009,-0.0042,263,2019-08-07 16:34:22:562
-7.5043,-4.5821,3.5261,-0.2505,-0.2807,0.0867,-0.0197,-0.0038,-0.0032,267,2019-08-07 16:34:22:566
-7.5043,-4.5821,3.5261,-0.2505,-0.2807,0.0867,-0.0197,-0.0038,-0.0032,273,2019-08-07 16:34:22:572
-7.4182,-4.6394,3.5779,-0.3267,-0.1678,0.0476,-0.0165,-0.0102,-0.0021,278,2019-08-07 16:34:22:577
-7.4182,-4.6394,3.5779,-0.3267,-0.1678,0.0476,-0.0165,-0.0102,-0.0021,283,2019-08-07 16:34:22:582
-7.4182,-4.6394,3.5779,-0.3267,-0.1678,0.0476,-0.0218,-0.0155,0.0022,288,2019-08-07 16:34:22:587
-7.3894,-4.5869,3.4978,-0.3267,-0.1678,0.0476,-0.0218,-0.0155,0.0022,293,2019-08-07 16:34:22:592
-7.3894,-4.5869,3.4978,-0.4069,-0.2025,0.1143,-0.0218,-0.0155,0.0022,298,2019-08-07 16:34:22:597
-7.3894,-4.5869,3.4978,-0.4069,-0.2025,0.1143,-0.0229,-0.0144,0.0086,303,2019-08-07 16:34:22:602
-7.3559,-4.6251,3.4884,-0.4069,-0.2025,0.1143,-0.0229,-0.0144,0.0086,308,2019-08-07 16:34:22:607
-7.3559,-4.6251,3.4884,-0.4069,-0.2025,0.1143,-0.0229,-0.0059,0.0107,312,2019-08-07 16:34:22:611
-7.4229,-4.5583,3.5544,-0.321,-0.2505,0.071,-0.0229,-0.0059,0.0107,318,2019-08-07 16:34:22:617
-7.4229,-4.5583,3.5544,-0.321,-0.2505,0.071,-0.0229,-0.0017,0.0107,322,2019-08-07 16:34:22:621
-7.4229,-4.5583,3.5544,-0.321,-0.2505,0.071,-0.0229,-0.0017,0.0107,328,2019-08-07 16:34:22:627
-7.4755,-4.5344,3.4507,-0.321,-0.2505,0.071,-0.0261,-0.0081,0.0117,333,2019-08-07 16:34:22:632
-7.4755,-4.5344,3.4507,-0.2551,-0.2785,0.178,-0.0261,-0.0081,0.0117,338,2019-08-07 16:34:22:637
-7.4803,-4.5248,3.5214,-0.2551,-0.2785,0.178,-0.0335,-0.0113,0.0075,343,2019-08-07 16:34:22:642
-7.4803,-4.5248,3.5214,-0.2551,-0.2785,0.178,-0.0335,-0.0113,0.0075,348,2019-08-07 16:34:22:647
-7.4803,-4.5248,3.5214,-0.2551,-0.2785,0.178,-0.0335,-0.0038,0.0011,353,2019-08-07 16:34:22:652
-7.466,-4.5153,3.4931,-0.2795,-0.2936,0.1289,-0.0335,-0.0038,0.0011,358,2019-08-07 16:34:22:657
-7.466,-4.5153,3.4931,-0.2795,-0.2936,0.1289,-0.0314,0.0037,-0.0053,362,2019-08-07 16:34:22:661
-7.466,-4.5153,3.4931,-0.2795,-0.2936,0.1289,-0.0314,0.0037,-0.0053,368,2019-08-07 16:34:22:667
-7.5425,-4.5869,3.4554,-0.2795,-0.2936,0.1289,-0.025,0.0069,-0.0064,372,2019-08-07 16:34:22:671
-7.5425,-4.5869,3.4554,-0.2511,-0.2245,0.2002,-0.025,0.0069,-0.0064,378,2019-08-07 16:34:22:677
-7.4181,-4.5869,3.446,-0.2511,-0.2245,0.2002,-0.0186,-0.0017,-0.0096,383,2019-08-07 16:34:22:682
-7.4181,-4.5869,3.446,-0.2511,-0.2245,0.2002,-0.0186,-0.0017,-0.0096,388,2019-08-07 16:34:22:687
-7.4181,-4.5869,3.446,-0.2511,-0.2245,0.2002,-0.0186,-0.0017,-0.0096,393,2019-08-07 16:34:22:692
-7.4516,-4.6108,3.4601,-0.2511,-0.2245,0.2002,-0.0101,-0.0134,-0.0106,397,2019-08-07 16:34:22:696
-7.4516,-4.6108,3.4601,-0.2739,-0.1887,0.1807,-0.0069,-0.0315,0.0011,403,2019-08-07 16:34:22:702
-7.4516,-4.6108,3.4601,-0.2739,-0.1887,0.1807,-0.0069,-0.0315,0.0011,408,2019-08-07 16:34:22:707
-7.375,-4.6442,3.4318,-0.2739,-0.1887,0.1807,-0.0037,-0.0368,0.0086,413,2019-08-07 16:34:22:712
-7.375,-4.6442,3.4318,-0.2739,-0.1887,0.1807,-0.0037,-0.0368,0.0086,418,2019-08-07 16:34:22:717
-7.3511,-4.5964,3.3705,-0.4535,-0.1891,0.1896,-0.0026,-0.0326,0.0128,423,2019-08-07 16:34:22:722
-7.3511,-4.5964,3.3705,-0.4535,-0.1891,0.1896,-0.0026,-0.0326,0.0128,428,2019-08-07 16:34:22:727
-7.3511,-4.5964,3.3705,-0.4535,-0.1891,0.1896,0.0027,-0.0166,0.0171,433,2019-08-07 16:34:22:732
-7.3033,-4.606,3.4035,-0.4535,-0.1891,0.1896,0.0027,-0.0166,0.0171,438,2019-08-07 16:34:22:737
-7.3033,-4.606,3.4035,-0.4241,-0.2114,0.2686,0.0027,-0.0166,0.0171,443,2019-08-07 16:34:22:742
-7.3033,-4.606,3.4035,-0.4241,-0.2114,0.2686,-5.0E-4,5.0E-4,0.016,448,2019-08-07 16:34:22:747
-7.3511,-4.5057,3.3847,-0.4241,-0.2114,0.2686,-5.0E-4,5.0E-4,0.016,453,2019-08-07 16:34:22:752
-7.3511,-4.5057,3.3847,-0.4241,-0.2114,0.2686,-5.0E-4,5.0E-4,0.016,458,2019-08-07 16:34:22:757
-7.442,-4.501,3.4035,-0.335,-0.2999,0.2159,-0.0079,0.0196,0.0149,463,2019-08-07 16:34:22:762
-7.442,-4.501,3.4035,-0.335,-0.2999,0.2159,-0.0079,0.0196,0.0149,468,2019-08-07 16:34:22:767
-7.442,-4.501,3.4035,-0.335,-0.2999,0.2159,-0.0154,0.0314,0.0117,473,2019-08-07 16:34:22:772
-7.509,-4.5201,3.4601,-0.335,-0.2999,0.2159,-0.0154,0.0314,0.0117,478,2019-08-07 16:34:22:777
-7.509,-4.5201,3.4601,-0.2051,-0.2695,0.1059,-0.0154,0.0314,0.0117,482,2019-08-07 16:34:22:781
-7.4994,-4.5487,3.4648,-0.2051,-0.2695,0.1059,-0.0207,0.0154,0.0096,488,2019-08-07 16:34:22:787
-7.4994,-4.5487,3.4648,-0.2051,-0.2695,0.1059,-0.0207,0.0154,0.0096,494,2019-08-07 16:34:22:793
-7.4994,-4.5487,3.4648,-0.2051,-0.2695,0.1059,-0.0197,0.009,0.0022,498,2019-08-07 16:34:22:797
-7.4802,-4.5583,3.4743,-0.293,-0.2694,0.1445,-0.0197,0.009,0.0022,503,2019-08-07 16:34:22:802
-7.4802,-4.5583,3.4743,-0.293,-0.2694,0.1445,-0.0207,0.0079,0.0,508,2019-08-07 16:34:22:807
-7.4802,-4.5583,3.4743,-0.293,-0.2694,0.1445,-0.0207,0.0079,0.0,512,2019-08-07 16:34:22:811
-7.3798,-4.6299,3.4318,-0.293,-0.2694,0.1445,-0.0239,0.0101,0.0022,518,2019-08-07 16:34:22:817
-7.3798,-4.6299,3.4318,-0.38,-0.1371,0.169,-0.0239,0.0101,0.0022,522,2019-08-07 16:34:22:821
-7.3702,-4.6633,3.4554,-0.38,-0.1371,0.169,-0.0154,0.0058,0.0032,529,2019-08-07 16:34:22:828
-7.3702,-4.6633,3.4554,-0.4137,-0.1666,0.1958,-0.0154,0.0058,0.0032,533,2019-08-07 16:34:22:832
-7.3702,-4.6633,3.4554,-0.4137,-0.1666,0.1958,-0.0133,0.0058,0.0107,537,2019-08-07 16:34:22:836
-7.3319,-4.6967,3.4695,-0.4137,-0.1666,0.1958,-0.0133,0.0058,0.0107,543,2019-08-07 16:34:22:842
-7.3319,-4.6967,3.4695,-0.4137,-0.1666,0.1958,-0.0101,0.0111,0.0149,548,2019-08-07 16:34:22:847
-7.3319,-4.6967,3.4695,-0.4148,-0.1617,0.1607,-0.0101,0.0111,0.0149,553,2019-08-07 16:34:22:852
-7.3463,-4.6585,3.4224,-0.4148,-0.1617,0.1607,-0.0101,0.0111,0.0149,558,2019-08-07 16:34:22:857
-7.3463,-4.6585,3.4224,-0.4148,-0.1617,0.1607,-0.0069,0.009,0.0203,562,2019-08-07 16:34:22:861
-7.3463,-4.6346,3.4554,-0.4148,-0.1617,0.1607,-0.0069,0.009,0.0203,568,2019-08-07 16:34:22:867
-7.3463,-4.6346,3.4554,-0.3741,-0.1689,0.1399,-0.0026,0.0122,0.0224,572,2019-08-07 16:34:22:871
-7.3463,-4.6346,3.4554,-0.3741,-0.1689,0.1399,-0.0026,0.0122,0.0224,578,2019-08-07 16:34:22:877
-7.418,-4.5774,3.4884,-0.3741,-0.1689,0.1399,6.0E-4,0.0122,0.0267,582,2019-08-07 16:34:22:881
-7.418,-4.5774,3.4884,-0.3741,-0.1689,0.1399,6.0E-4,0.0122,0.0267,588,2019-08-07 16:34:22:887
-7.4802,-4.5583,3.4036,-0.2772,-0.2458,0.1992,-5.0E-4,0.0175,0.0235,593,2019-08-07 16:34:22:892
-7.4802,-4.5583,3.4036,-0.2772,-0.2458,0.1992,-5.0E-4,0.0175,0.0235,598,2019-08-07 16:34:22:897
-7.4802,-4.5583,3.4036,-0.2772,-0.2458,0.1992,-0.0037,0.0175,0.0235,603,2019-08-07 16:34:22:902
-7.4754,-4.5248,3.4224,-0.2772,-0.2458,0.1992,-0.0037,0.0175,0.0235,608,2019-08-07 16:34:22:907
-7.4754,-4.5248,3.4224,-0.2761,-0.1995,0.2004,-0.0026,0.0196,0.0128,612,2019-08-07 16:34:22:911
-7.4371,-4.6155,3.413,-0.2761,-0.1995,0.2004,-0.0026,0.0196,0.0128,618,2019-08-07 16:34:22:917
-7.4371,-4.6155,3.413,-0.2761,-0.1995,0.2004,-0.0026,0.0196,0.0128,622,2019-08-07 16:34:22:921
-7.4371,-4.6155,3.413,-0.2761,-0.1995,0.2004,0.0038,0.0292,0.0064,628,2019-08-07 16:34:22:927
-7.4611,-4.6108,3.4648,-0.2933,-0.2124,0.1632,0.0038,0.0292,0.0064,632,2019-08-07 16:34:22:931
-7.4611,-4.6108,3.4648,-0.2933,-0.2124,0.1632,0.0112,0.0303,0.0075,638,2019-08-07 16:34:22:937
-7.4706,-4.6203,3.4318,-0.2933,-0.2124,0.1632,0.0112,0.0303,0.0075,643,2019-08-07 16:34:22:942
-7.4706,-4.6203,3.4318,-0.2933,-0.2124,0.1632,0.0155,0.026,0.0075,648,2019-08-07 16:34:22:947
-7.4706,-4.6203,3.4318,-0.2292,-0.2193,0.1557,0.0155,0.026,0.0075,652,2019-08-07 16:34:22:951
-7.5567,-4.5583,3.3894,-0.2292,-0.2193,0.1557,0.0187,0.0101,0.0128,658,2019-08-07 16:34:22:957
-7.5567,-4.5583,3.3894,-0.2292,-0.2193,0.1557,0.0187,0.0101,0.0128,663,2019-08-07 16:34:22:962
-7.5567,-4.5583,3.3894,-0.283,-0.1746,0.2215,0.0123,-0.0102,0.0171,668,2019-08-07 16:34:22:967
-7.4275,-4.606,3.4224,-0.283,-0.1746,0.2215,0.0123,-0.0102,0.0171,673,2019-08-07 16:34:22:972
-7.4275,-4.606,3.4224,-0.283,-0.1746,0.2215,0.0134,-0.024,0.0203,678,2019-08-07 16:34:22:977
-7.4275,-4.606,3.4224,-0.4128,-0.1281,0.2061,0.0134,-0.024,0.0203,682,2019-08-07 16:34:22:981
-7.3079,-4.6728,3.3659,-0.4128,-0.1281,0.2061,0.0176,-0.0134,0.0213,688,2019-08-07 16:34:22:987
-7.3079,-4.6728,3.3659,-0.4128,-0.1281,0.2061,0.0176,-0.0134,0.0213,692,2019-08-07 16:34:22:991
-7.3079,-4.6776,3.3517,-0.4128,-0.1281,0.2061,0.0176,0.0218,0.0203,698,2019-08-07 16:34:22:997
-7.3079,-4.6776,3.3517,-0.4288,-0.144,0.1786,0.0176,0.0218,0.0203,702,2019-08-07 16:34:23:001
-7.3079,-4.6776,3.3517,-0.4288,-0.144,0.1786,0.0197,0.0516,0.0149,708,2019-08-07 16:34:23:007
-7.4562,-4.5487,3.4319,-0.4288,-0.144,0.1786,0.0197,0.0516,0.0149,712,2019-08-07 16:34:23:011
-7.4562,-4.5487,3.4319,-0.3116,-0.2471,0.0909,0.0144,0.0569,0.016,718,2019-08-07 16:34:23:017
-7.5471,-4.4723,3.413,-0.3116,-0.2471,0.0909,0.0144,0.0569,0.016,723,2019-08-07 16:34:23:022
-7.5471,-4.4723,3.413,-0.3116,-0.2471,0.0909,0.0166,0.0612,0.0107,728,2019-08-07 16:34:23:027
-7.5471,-4.4723,3.413,-0.203,-0.2859,0.1774,0.0166,0.0612,0.0107,733,2019-08-07 16:34:23:032
-7.6045,-4.501,3.3706,-0.203,-0.2859,0.1774,0.0166,0.0612,0.0107,737,2019-08-07 16:34:23:036
-7.6045,-4.501,3.3706,-0.203,-0.2859,0.1774,0.0112,0.0495,0.0,743,2019-08-07 16:34:23:042
-7.5758,-4.5153,3.5733,-0.203,-0.2859,0.1774,0.008,0.0207,-0.0021,748,2019-08-07 16:34:23:047
-7.5758,-4.5153,3.5733,-0.2733,-0.2079,0.0356,0.008,0.0207,-0.0021,753,2019-08-07 16:34:23:052
-7.5758,-4.5153,3.5733,-0.2733,-0.2079,0.0356,0.008,0.0207,-0.0021,758,2019-08-07 16:34:23:057
-7.4945,-4.563,3.5214,-0.2733,-0.2079,0.0356,0.0102,-6.0E-4,-0.001,762,2019-08-07 16:34:23:061
-7.4945,-4.563,3.5214,-0.2733,-0.2079,0.0356,0.0102,-6.0E-4,-0.001,768,2019-08-07 16:34:23:067
-7.4945,-4.563,3.5214,-0.2733,-0.2079,0.0356,0.0123,0.0015,0.0,772,2019-08-07 16:34:23:071
-7.4371,-4.6012,3.4366,-0.3449,-0.1789,0.1449,0.0123,0.0015,0.0,778,2019-08-07 16:34:23:077
-7.4371,-4.6012,3.4366,-0.3449,-0.1789,0.1449,0.0144,0.0047,0.0043,783,2019-08-07 16:34:23:082
-7.3988,-4.5774,3.4507,-0.3449,-0.1789,0.1449,0.0144,0.0047,0.0043,788,2019-08-07 16:34:23:087
-7.3988,-4.5774,3.4507,-0.3449,-0.1789,0.1449,0.0144,0.0047,0.0043,793,2019-08-07 16:34:23:092
-7.3988,-4.5774,3.4507,-0.4267,-0.168,0.0986,0.0166,0.0047,0.0075,798,2019-08-07 16:34:23:097
-7.3653,-4.6012,3.4083,-0.4267,-0.168,0.0986,0.0166,0.0047,0.0075,803,2019-08-07 16:34:23:102
-7.3653,-4.6012,3.4083,-0.4267,-0.168,0.0986,0.0197,0.0143,0.0149,808,2019-08-07 16:34:23:107
-7.3892,-4.6156,3.3659,-0.4267,-0.168,0.0986,0.0197,0.0143,0.0149,812,2019-08-07 16:34:23:111
-7.3892,-4.6156,3.3659,-0.343,-0.1888,0.2295,0.024,0.0452,0.0181,818,2019-08-07 16:34:23:117
-7.3892,-4.6156,3.3659,-0.343,-0.1888,0.2295,0.024,0.0452,0.0181,822,2019-08-07 16:34:23:121
-7.5232,-4.5583,3.446,-0.343,-0.1888,0.2295,0.0261,0.0409,0.016,828,2019-08-07 16:34:23:127
-7.5232,-4.5583,3.446,-0.343,-0.1888,0.2295,0.0261,0.0409,0.016,833,2019-08-07 16:34:23:132
-7.5614,-4.544,3.347,-0.2091,-0.2696,0.207,0.0283,0.0239,0.0171,838,2019-08-07 16:34:23:137
-7.5614,-4.544,3.347,-0.2091,-0.2696,0.207,0.0283,0.0239,0.0171,844,2019-08-07 16:34:23:143
-7.5614,-4.544,3.347,-0.2091,-0.2696,0.207,0.0283,0.0207,0.0107,848,2019-08-07 16:34:23:147
-7.5375,-4.4962,3.4554,-0.2091,-0.2696,0.207,0.0283,0.0207,0.0107,853,2019-08-07 16:34:23:152
-7.5375,-4.4962,3.4554,-0.2123,-0.1891,0.1678,0.0347,0.0399,0.0032,858,2019-08-07 16:34:23:157
-7.6093,-4.5344,3.4884,-0.2123,-0.1891,0.1678,0.0347,0.0399,0.0032,862,2019-08-07 16:34:23:161
-7.6093,-4.5344,3.4884,-0.2123,-0.1891,0.1678,0.0357,0.0314,-0.0021,868,2019-08-07 16:34:23:167
-7.6571,-4.4819,3.4224,-0.2123,-0.1891,0.1678,0.0357,0.0314,-0.0021,872,2019-08-07 16:34:23:171
-7.6571,-4.4819,3.4224,-0.1961,-0.2908,0.0998,0.0293,0.0122,-0.0064,878,2019-08-07 16:34:23:177
-7.6571,-4.4819,3.4224,-0.1961,-0.2908,0.0998,0.0293,0.0122,-0.0064,883,2019-08-07 16:34:23:182
-7.571,-4.4771,3.413,-0.1961,-0.2908,0.0998,0.0283,0.0026,-0.0096,887,2019-08-07 16:34:23:186
-7.571,-4.4771,3.413,-0.1961,-0.2908,0.0998,0.0283,0.0026,-0.0096,893,2019-08-07 16:34:23:192
-7.4609,-4.5344,3.4696,-0.2585,-0.2369,0.1438,0.0272,0.0101,-0.0064,898,2019-08-07 16:34:23:197
-7.4609,-4.5344,3.4696,-0.2585,-0.2369,0.1438,0.0272,0.0101,-0.0064,903,2019-08-07 16:34:23:202
-7.4609,-4.5344,3.4696,-0.2585,-0.2369,0.1438,0.0272,0.0101,-0.0064,908,2019-08-07 16:34:23:207
-7.4801,-4.5153,3.5026,-0.2585,-0.2369,0.1438,0.0272,0.0047,-0.0021,912,2019-08-07 16:34:23:211
-7.4801,-4.5153,3.5026,-0.3783,-0.2637,0.0374,0.0272,0.0047,-0.0021,918,2019-08-07 16:34:23:217
-7.4801,-4.5153,3.5026,-0.3783,-0.2637,0.0374,0.0229,0.0058,0.0032,922,2019-08-07 16:34:23:221
-7.3078,-4.4819,3.4507,-0.3783,-0.2637,0.0374,0.0229,0.0058,0.0032,928,2019-08-07 16:34:23:227
-7.3078,-4.4819,3.4507,-0.3783,-0.2637,0.0374,0.0261,0.0207,0.0086,932,2019-08-07 16:34:23:231
-7.3748,-4.5249,3.5261,-0.4225,-0.2321,0.0528,0.0261,0.0207,0.0086,938,2019-08-07 16:34:23:237
-7.3748,-4.5249,3.5261,-0.4225,-0.2321,0.0528,0.0261,0.0207,0.0086,942,2019-08-07 16:34:23:241
-7.3939,-4.4962,3.578,-0.4225,-0.2321,0.0528,0.0347,0.0324,0.0245,948,2019-08-07 16:34:23:247
-7.3939,-4.4962,3.578,-0.4225,-0.2321,0.0528,0.0347,0.0324,0.0245,952,2019-08-07 16:34:23:251
-7.3939,-4.4962,3.578,-0.3881,-0.283,0.0717,0.0368,0.025,0.0277,958,2019-08-07 16:34:23:257
-7.4131,-4.458,3.4932,-0.3881,-0.283,0.0717,0.0368,0.025,0.0277,963,2019-08-07 16:34:23:262
-7.4131,-4.458,3.4932,-0.3881,-0.283,0.0717,0.0304,0.0154,0.0299,967,2019-08-07 16:34:23:266
-7.4131,-4.458,3.4932,-0.3881,-0.283,0.0717,0.0304,0.0154,0.0299,973,2019-08-07 16:34:23:272
-7.4609,-4.4485,3.5639,-0.3109,-0.2897,0.0447,0.0272,0.0175,0.0309,977,2019-08-07 16:34:23:276
-7.4609,-4.4485,3.5639,-0.3109,-0.2897,0.0447,0.0272,0.0175,0.0309,983,2019-08-07 16:34:23:282
-7.5231,-4.4676,3.5309,-0.3109,-0.2897,0.0447,0.0272,0.0175,0.0309,988,2019-08-07 16:34:23:287
-7.5231,-4.4676,3.5309,-0.3109,-0.2897,0.0447,0.0166,0.0058,0.032,993,2019-08-07 16:34:23:292
-7.5231,-4.4676,3.5309,-0.2671,-0.3111,0.0925,0.0166,0.0058,0.032,998,2019-08-07 16:34:23:297
-7.5566,-4.4819,3.5026,-0.2671,-0.3111,0.0925,6.0E-4,0.0111,0.032,1003,2019-08-07 16:34:23:302
-7.5566,-4.4819,3.5026,-0.2671,-0.3111,0.0925,6.0E-4,0.0111,0.032,1008,2019-08-07 16:34:23:307
-7.5374,-4.5201,3.4837,-0.2671,-0.3111,0.0925,-0.0048,0.0175,0.032,1013,2019-08-07 16:34:23:312
-7.5374,-4.5201,3.4837,-0.2763,-0.2055,0.057,-0.0048,0.0175,0.032,1018,2019-08-07 16:34:23:317
-7.5374,-4.5201,3.4837,-0.2763,-0.2055,0.057,-0.0048,0.0303,0.0245,1022,2019-08-07 16:34:23:321
-7.5518,-4.5392,3.4884,-0.2763,-0.2055,0.057,-0.0048,0.0303,0.0245,1028,2019-08-07 16:34:23:327
-7.5518,-4.5392,3.4884,-0.2763,-0.2055,0.057,-5.0E-4,0.025,0.0245,1033,2019-08-07 16:34:23:332
-7.5566,-4.544,3.5167,-0.2616,-0.1822,0.0576,-5.0E-4,0.025,0.0245,1038,2019-08-07 16:34:23:337
-7.5566,-4.544,3.5167,-0.2616,-0.1822,0.0576,6.0E-4,0.0186,0.0235,1043,2019-08-07 16:34:23:342
-7.5566,-4.544,3.5167,-0.2616,-0.1822,0.0576,6.0E-4,0.0186,0.0235,1048,2019-08-07 16:34:23:347
-7.6283,-4.5487,3.5073,-0.2616,-0.1822,0.0576,0.0048,0.0069,0.0203,1052,2019-08-07 16:34:23:351
-7.6283,-4.5487,3.5073,-0.1979,-0.1687,0.0509,0.0048,0.0069,0.0203,1058,2019-08-07 16:34:23:357
-7.5757,-4.5774,3.5262,-0.1979,-0.1687,0.0509,0.008,-0.0208,0.0203,1063,2019-08-07 16:34:23:362
-7.5757,-4.5774,3.5262,-0.1979,-0.1687,0.0509,0.008,-0.0208,0.0203,1068,2019-08-07 16:34:23:367
-7.5757,-4.5774,3.5262,-0.1979,-0.1687,0.0509,0.0102,-0.0411,0.0213,1073,2019-08-07 16:34:23:372
-7.5087,-4.5487,3.4272,-0.2983,-0.1838,0.1648,0.0102,-0.0411,0.0213,1079,2019-08-07 16:34:23:378
-7.5087,-4.5487,3.4272,-0.2983,-0.1838,0.1648,0.0059,-0.0315,0.0203,1083,2019-08-07 16:34:23:382
-7.5087,-4.5487,3.4272,-0.2983,-0.1838,0.1648,0.0059,-0.0315,0.0203,1088,2019-08-07 16:34:23:387
-7.4704,-4.544,3.347,-0.2983,-0.1838,0.1648,0.0102,-0.0166,0.0171,1093,2019-08-07 16:34:23:392
-7.4704,-4.544,3.347,-0.3653,-0.1948,0.1361,0.0102,-0.0166,0.0171,1099,2019-08-07 16:34:23:398
-7.4704,-4.5201,3.4272,-0.3653,-0.1948,0.1361,0.0102,-0.0166,0.0171,1103,2019-08-07 16:34:23:402
-7.4704,-4.5201,3.4272,-0.3653,-0.1948,0.1361,0.008,-0.0049,0.0128,1108,2019-08-07 16:34:23:407
-7.4704,-4.5201,3.4272,-0.3653,-0.1948,0.1361,0.008,-0.0049,0.0128,1113,2019-08-07 16:34:23:412
-7.4225,-4.4819,3.4413,-0.3428,-0.235,0.1746,0.0123,0.0175,0.0107,1118,2019-08-07 16:34:23:417
-7.4225,-4.4819,3.4413,-0.3428,-0.235,0.1746,0.0123,0.0175,0.0107,1122,2019-08-07 16:34:23:421
-7.4417,-4.4771,3.4178,-0.3428,-0.235,0.1746,0.008,0.0239,0.0086,1128,2019-08-07 16:34:23:427
-7.4417,-4.4771,3.4178,-0.3105,-0.2483,0.2157,0.008,0.0239,0.0086,1133,2019-08-07 16:34:23:432
-7.4417,-4.4771,3.4178,-0.3105,-0.2483,0.2157,0.007,0.0164,0.016,1137,2019-08-07 16:34:23:436
-7.4895,-4.4389,3.4272,-0.3105,-0.2483,0.2157,0.007,0.0164,0.016,1143,2019-08-07 16:34:23:442
-7.4895,-4.4389,3.4272,-0.3105,-0.2483,0.2157,0.0091,-0.0017,0.0203,1148,2019-08-07 16:34:23:447
-7.4369,-4.4294,3.4885,-0.3563,-0.2784,0.1434,0.0091,-0.0017,0.0203,1153,2019-08-07 16:34:23:452
-7.4369,-4.4294,3.4885,-0.3563,-0.2784,0.1434,0.0091,-0.0017,0.0203,1157,2019-08-07 16:34:23:456
-7.4369,-4.4294,3.4885,-0.3563,-0.2784,0.1434,0.0112,-0.023,0.0288,1163,2019-08-07 16:34:23:462
-7.3364,-4.4103,3.4272,-0.3563,-0.2784,0.1434,0.0112,-0.023,0.0288,1168,2019-08-07 16:34:23:467
-7.3364,-4.4103,3.4272,-0.4774,-0.3154,0.1998,0.0102,-0.0262,0.048,1173,2019-08-07 16:34:23:472
-7.322,-4.3673,3.3565,-0.4774,-0.3154,0.1998,0.0102,-0.0262,0.048,1178,2019-08-07 16:34:23:477
-7.322,-4.3673,3.3565,-0.5983,-0.3206,0.1884,0.0134,-0.024,0.0597,1183,2019-08-07 16:34:23:482
-7.322,-4.3673,3.3565,-0.5983,-0.3206,0.1884,0.0134,-0.024,0.0597,1188,2019-08-07 16:34:23:487
-7.255,-4.3912,3.3801,-0.5983,-0.3206,0.1884,0.0219,-0.0102,0.0746,1193,2019-08-07 16:34:23:492
-7.255,-4.3912,3.3801,-0.5983,-0.3206,0.1884,0.0219,-0.0102,0.0746,1198,2019-08-07 16:34:23:497
-7.2981,-4.2957,3.3329,-0.5704,-0.3465,0.2349,0.0219,-0.0102,0.0746,1203,2019-08-07 16:34:23:502
-7.2981,-4.2957,3.3329,-0.5704,-0.3465,0.2349,0.0283,0.0101,0.0916,1208,2019-08-07 16:34:23:507
-7.2981,-4.2957,3.3329,-0.5704,-0.3465,0.2349,0.0283,0.0101,0.0916,1213,2019-08-07 16:34:23:512
-7.3172,-4.2862,3.2151,-0.5704,-0.3465,0.2349,0.0187,0.0388,0.0959,1218,2019-08-07 16:34:23:517
-7.3172,-4.2862,3.2151,-0.4854,-0.3728,0.3087,0.0187,0.0388,0.0959,1222,2019-08-07 16:34:23:521
-7.3172,-4.2862,3.2151,-0.4854,-0.3728,0.3087,0.0197,0.0718,0.097,1228,2019-08-07 16:34:23:527
-7.3938,-4.3339,3.2151,-0.4854,-0.3728,0.3087,0.0197,0.0718,0.097,1233,2019-08-07 16:34:23:532
-7.3938,-4.3339,3.2151,-0.4854,-0.3728,0.3087,0.0144,0.1102,0.0895,1237,2019-08-07 16:34:23:536
-7.5038,-4.3387,3.2386,-0.4102,-0.3226,0.3149,0.0144,0.1102,0.0895,1243,2019-08-07 16:34:23:542
-7.5038,-4.3387,3.2386,-0.4102,-0.3226,0.3149,0.0059,0.1304,0.0831,1249,2019-08-07 16:34:23:548
-7.5038,-4.3387,3.2386,-0.4102,-0.3226,0.3149,0.0059,0.1304,0.0831,1252,2019-08-07 16:34:23:551
-7.6712,-4.3482,3.3282,-0.4102,-0.3226,0.3149,0.0059,0.1304,0.0831,1258,2019-08-07 16:34:23:557
-7.6712,-4.3482,3.3282,-0.2177,-0.2746,0.2188,-0.0026,0.14,0.0778,1263,2019-08-07 16:34:23:562
-7.7813,-4.3673,3.4366,-0.2177,-0.2746,0.2188,-0.0026,0.14,0.0778,1267,2019-08-07 16:34:23:566
-7.7813,-4.3673,3.4366,-0.2177,-0.2746,0.2188,-0.0026,0.14,0.0778,1273,2019-08-07 16:34:23:572
-7.7813,-4.3673,3.4366,-0.2177,-0.2746,0.2188,-0.0026,0.107,0.0725,1278,2019-08-07 16:34:23:577
-7.8004,-4.3673,3.4602,-0.1001,-0.2524,0.0764,-0.0026,0.107,0.0725,1283,2019-08-07 16:34:23:582
-7.8004,-4.3673,3.4602,-0.1001,-0.2524,0.0764,-0.0026,0.107,0.0725,1288,2019-08-07 16:34:23:587
-7.8052,-4.4199,3.3942,-0.1001,-0.2524,0.0764,-0.009,0.0548,0.0671,1293,2019-08-07 16:34:23:592
-7.8052,-4.4199,3.3942,-0.1001,-0.2524,0.0764,-0.009,0.0548,0.0671,1298,2019-08-07 16:34:23:597
-7.8052,-4.4199,3.3942,-0.1821,-0.1652,0.129,-0.0111,0.0207,0.064,1303,2019-08-07 16:34:23:602
-7.6951,-4.4246,3.3848,-0.1821,-0.1652,0.129,-0.0111,0.0207,0.064,1307,2019-08-07 16:34:23:606
-7.6951,-4.4246,3.3848,-0.1821,-0.1652,0.129,-0.009,-0.0166,0.0682,1313,2019-08-07 16:34:23:612
-7.5277,-4.5249,3.3706,-0.1821,-0.1652,0.129,-0.009,-0.0166,0.0682,1318,2019-08-07 16:34:23:617
-7.5277,-4.5249,3.3706,-0.5079,-0.0934,0.2195,6.0E-4,-0.007,0.0661,1322,2019-08-07 16:34:23:621
-7.5277,-4.5249,3.3706,-0.5079,-0.0934,0.2195,6.0E-4,-0.007,0.0661,1328,2019-08-07 16:34:23:627
-7.4224,-4.5297,3.3046,-0.5079,-0.0934,0.2195,0.008,0.0228,0.0661,1333,2019-08-07 16:34:23:632
-7.4224,-4.5297,3.3046,-0.5079,-0.0934,0.2195,0.008,0.0228,0.0661,1337,2019-08-07 16:34:23:636
-7.4846,-4.5297,3.3659,-0.4344,-0.0643,0.1585,0.0166,0.0729,0.0671,1343,2019-08-07 16:34:23:642
-7.4846,-4.5297,3.3659,-0.4344,-0.0643,0.1585,0.0166,0.0729,0.0671,1349,2019-08-07 16:34:23:648
-7.4846,-4.5297,3.3659,-0.4344,-0.0643,0.1585,0.0166,0.0729,0.0671,1352,2019-08-07 16:34:23:651
-7.6568,-4.4771,3.4319,-0.4344,-0.0643,0.1585,0.0219,0.0963,0.0682,1358,2019-08-07 16:34:23:657
-7.6568,-4.4771,3.4319,-0.2457,-0.0715,0.0568,0.0219,0.0963,0.0682,1362,2019-08-07 16:34:23:661
-7.6568,-4.4771,3.4319,-0.2457,-0.0715,0.0568,0.0229,0.0772,0.0735,1367,2019-08-07 16:34:23:666
-7.719,-4.4962,3.4602,-0.2457,-0.0715,0.0568,0.0229,0.0772,0.0735,1373,2019-08-07 16:34:23:672
-7.719,-4.4962,3.4602,-0.2457,-0.0715,0.0568,0.0283,0.0495,0.0767,1378,2019-08-07 16:34:23:677
-7.6473,-4.4581,3.4225,-0.2947,-0.1105,0.0832,0.0283,0.0495,0.0767,1383,2019-08-07 16:34:23:682
-7.6473,-4.4581,3.4225,-0.2947,-0.1105,0.0832,0.0304,0.0164,0.0757,1387,2019-08-07 16:34:23:686
-7.6473,-4.4581,3.4225,-0.2947,-0.1105,0.0832,0.0304,0.0164,0.0757,1393,2019-08-07 16:34:23:692
-7.5803,-4.4771,3.4414,-0.2947,-0.1105,0.0832,0.0325,0.0079,0.0735,1399,2019-08-07 16:34:23:698
-7.5803,-4.4771,3.4414,-0.4361,-0.0585,0.0937,0.0325,0.0079,0.0735,1403,2019-08-07 16:34:23:702
-7.5803,-4.4771,3.4414,-0.4361,-0.0585,0.0937,0.0325,0.0079,0.0735,1408,2019-08-07 16:34:23:707
-7.5133,-4.5153,3.4272,-0.4361,-0.0585,0.0937,0.0421,0.009,0.0735,1412,2019-08-07 16:34:23:711
-7.5133,-4.5153,3.4272,-0.4361,-0.0585,0.0937,0.0421,0.009,0.0735,1418,2019-08-07 16:34:23:717
-7.4941,-4.439,3.4131,-0.4618,-0.1024,0.0964,0.0453,0.0218,0.0693,1423,2019-08-07 16:34:23:722
-7.4941,-4.439,3.4131,-0.4618,-0.1024,0.0964,0.0453,0.0218,0.0693,1427,2019-08-07 16:34:23:726
-7.4941,-4.439,3.4131,-0.4618,-0.1024,0.0964,0.0464,0.0377,0.0671,1433,2019-08-07 16:34:23:732
-7.5228,-4.439,3.3612,-0.4618,-0.1024,0.0964,0.0464,0.0377,0.0671,1438,2019-08-07 16:34:23:737
-7.5228,-4.439,3.3612,-0.4618,-0.1024,0.0964,0.0464,0.0473,0.0629,1442,2019-08-07 16:34:23:741
-7.5228,-4.439,3.3612,-0.4267,-0.1515,0.161,0.0464,0.0473,0.0629,1448,2019-08-07 16:34:23:747
-7.5133,-4.4437,3.3329,-0.4267,-0.1515,0.161,0.0464,0.0473,0.0629,1453,2019-08-07 16:34:23:752
-7.5133,-4.4437,3.3329,-0.4267,-0.1515,0.161,0.0453,0.0697,0.0597,1458,2019-08-07 16:34:23:757
-7.6137,-4.3864,3.3612,-0.3216,-0.1203,0.1214,0.0443,0.0804,0.0608,1463,2019-08-07 16:34:23:762
-7.6137,-4.3864,3.3612,-0.3216,-0.1203,0.1214,0.0443,0.0804,0.0608,1468,2019-08-07 16:34:23:767
-7.6137,-4.3864,3.3612,-0.3216,-0.1203,0.1214,0.0443,0.0804,0.0608,1472,2019-08-07 16:34:23:771
-7.719,-4.3864,3.3707,-0.3216,-0.1203,0.1214,0.0432,0.0793,0.0608,1478,2019-08-07 16:34:23:777
-7.719,-4.3864,3.3707,-0.3216,-0.1203,0.1214,0.0432,0.0793,0.0608,1483,2019-08-07 16:34:23:782
-7.8147,-4.396,3.4508,-0.2272,-0.1362,0.0661,0.0421,0.0633,0.0618,1487,2019-08-07 16:34:23:786
-7.8147,-4.396,3.4508,-0.2272,-0.1362,0.0661,0.0421,0.0633,0.0618,1493,2019-08-07 16:34:23:792
-7.7572,-4.3387,3.4225,-0.2033,-0.1724,0.1014,0.0411,0.0377,0.065,1498,2019-08-07 16:34:23:797
-7.7572,-4.3387,3.4225,-0.2033,-0.1724,0.1014,0.0411,0.0377,0.065,1503,2019-08-07 16:34:23:802
-7.7572,-4.3387,3.4225,-0.2033,-0.1724,0.1014,0.0421,0.0101,0.0661,1508,2019-08-07 16:34:23:807
-7.7859,-4.3339,3.2717,-0.2033,-0.1724,0.1014,0.0421,0.0101,0.0661,1512,2019-08-07 16:34:23:811
-7.7859,-4.3339,3.2717,-0.23,-0.1586,0.1727,0.0443,-6.0E-4,0.0618,1518,2019-08-07 16:34:23:817
-7.7859,-4.3339,3.2717,-0.23,-0.1586,0.1727,0.0443,-6.0E-4,0.0618,1523,2019-08-07 16:34:23:822
-7.6759,-4.3244,3.2387,-0.23,-0.1586,0.1727,0.0485,0.0122,0.0544,1528,2019-08-07 16:34:23:827
-7.6759,-4.3244,3.2387,-0.23,-0.1586,0.1727,0.0485,0.0122,0.0544,1533,2019-08-07 16:34:23:832
-7.6615,-4.2862,3.1962,-0.3604,-0.1222,0.3351,0.056,0.0292,0.048,1538,2019-08-07 16:34:23:837
-7.6615,-4.2862,3.1962,-0.3604,-0.1222,0.3351,0.056,0.0292,0.048,1542,2019-08-07 16:34:23:841
-7.6615,-4.2862,3.1962,-0.3735,-0.1262,0.2871,0.0517,0.0527,0.0426,1548,2019-08-07 16:34:23:847
-7.6567,-4.3196,3.2387,-0.3735,-0.1262,0.2871,0.0517,0.0527,0.0426,1552,2019-08-07 16:34:23:851
-7.6567,-4.3196,3.2387,-0.3735,-0.1262,0.2871,0.0517,0.0527,0.0426,1558,2019-08-07 16:34:23:857
-7.7668,-4.2814,3.234,-0.3735,-0.1262,0.2871,0.0592,0.0899,0.0299,1563,2019-08-07 16:34:23:862
-7.7668,-4.2814,3.234,-0.2006,-0.1456,0.1938,0.0592,0.0899,0.0299,1567,2019-08-07 16:34:23:866
-7.7668,-4.2814,3.234,-0.2006,-0.1456,0.1938,0.0613,0.0836,0.0277,1573,2019-08-07 16:34:23:872
-7.7955,-4.3244,3.3235,-0.2006,-0.1456,0.1938,0.0613,0.0836,0.0277,1578,2019-08-07 16:34:23:877
-7.7955,-4.3244,3.3235,-0.2006,-0.1456,0.1938,0.0645,0.0729,0.0245,1583,2019-08-07 16:34:23:882
-7.7955,-4.3244,3.3235,-0.1995,-0.213,0.1292,0.0645,0.0729,0.0245,1587,2019-08-07 16:34:23:886
-7.8577,-4.2289,3.3471,-0.1995,-0.213,0.1292,0.0645,0.042,0.0288,1593,2019-08-07 16:34:23:892
-7.8577,-4.2289,3.3471,-0.1995,-0.213,0.1292,0.0645,0.042,0.0288,1599,2019-08-07 16:34:23:898
-7.7428,-4.186,3.3235,-0.1995,-0.213,0.1292,0.0592,0.0132,0.0384,1603,2019-08-07 16:34:23:902
-7.7428,-4.186,3.3235,-0.301,-0.2313,0.1146,0.0592,0.0132,0.0384,1608,2019-08-07 16:34:23:907
-7.7428,-4.186,3.3235,-0.301,-0.2313,0.1146,0.0592,0.0132,0.0384,1612,2019-08-07 16:34:23:911
-7.6567,-4.2528,3.4084,-0.301,-0.2313,0.1146,0.0592,0.0037,0.0426,1618,2019-08-07 16:34:23:917
-7.6567,-4.2528,3.4084,-0.301,-0.2313,0.1146,0.0666,0.0132,0.048,1623,2019-08-07 16:34:23:922
-7.6567,-4.2528,3.4084,-0.4488,-0.1818,0.1194,0.0666,0.0132,0.048,1627,2019-08-07 16:34:23:926
-7.5467,-4.2432,3.3235,-0.4488,-0.1818,0.1194,0.0666,0.0132,0.048,1633,2019-08-07 16:34:23:932
-7.5467,-4.2432,3.3235,-0.4488,-0.1818,0.1194,0.0709,0.0346,0.0458,1638,2019-08-07 16:34:23:937
-7.5802,-4.2098,3.333,-0.4488,-0.1818,0.1194,0.0709,0.0654,0.0426,1643,2019-08-07 16:34:23:942
-7.5802,-4.2098,3.333,-0.4696,-0.2222,0.0726,0.0709,0.0654,0.0426,1648,2019-08-07 16:34:23:947
-7.5658,-4.2241,3.4131,-0.4696,-0.2222,0.0726,0.0688,0.0857,0.0448,1653,2019-08-07 16:34:23:952
-7.5658,-4.2241,3.4131,-0.4696,-0.2222,0.0726,0.0688,0.0857,0.0448,1658,2019-08-07 16:34:23:957
-7.5658,-4.2241,3.4131,-0.4696,-0.2222,0.0726,0.0688,0.0857,0.0448,1663,2019-08-07 16:34:23:962
-7.6519,-4.2098,3.4697,-0.3639,-0.1821,0.0613,0.0666,0.0931,0.0341,1668,2019-08-07 16:34:23:967
-7.6519,-4.2098,3.4697,-0.3639,-0.1821,0.0613,0.0666,0.0931,0.0341,1672,2019-08-07 16:34:23:971
-7.6519,-4.2098,3.4697,-0.3639,-0.1821,0.0613,0.0613,0.0846,0.0352,1678,2019-08-07 16:34:23:977
-7.8098,-4.1669,3.4508,-0.3639,-0.1821,0.0613,0.0613,0.0846,0.0352,1683,2019-08-07 16:34:23:982
-7.8098,-4.1669,3.4508,-0.2868,-0.2477,-0.0543,0.0528,0.0686,0.0426,1688,2019-08-07 16:34:23:987
-7.7428,-4.1907,3.5451,-0.2868,-0.2477,-0.0543,0.0528,0.0686,0.0426,1693,2019-08-07 16:34:23:992
-7.7428,-4.1907,3.5451,-0.2868,-0.2477,-0.0543,0.0528,0.0686,0.0426,1698,2019-08-07 16:34:23:997
-7.7428,-4.1907,3.5451,-0.2868,-0.2477,-0.0543,0.0474,0.0399,0.0469,1703,2019-08-07 16:34:24:002
-7.7571,-4.1716,3.5309,-0.3078,-0.2079,-0.0651,0.0474,0.0399,0.0469,1708,2019-08-07 16:34:24:007
-7.7571,-4.1716,3.5309,-0.3078,-0.2079,-0.0651,0.0389,0.0164,0.0501,1713,2019-08-07 16:34:24:012
-7.7571,-4.1716,3.5309,-0.3078,-0.2079,-0.0651,0.0389,0.0164,0.0501,1717,2019-08-07 16:34:24:016
-7.7093,-4.1764,3.4414,-0.3078,-0.2079,-0.0651,0.0368,-0.0049,0.0565,1723,2019-08-07 16:34:24:022
-7.7093,-4.1764,3.4414,-0.3843,-0.1821,0.0515,0.0368,-0.0049,0.0565,1728,2019-08-07 16:34:24:027
-7.7093,-4.1764,3.4414,-0.3843,-0.1821,0.0515,0.0357,0.0026,0.064,1732,2019-08-07 16:34:24:031
-7.6232,-4.186,3.3235,-0.3843,-0.1821,0.0515,0.0357,0.0026,0.064,1737,2019-08-07 16:34:24:036
-7.6232,-4.186,3.3235,-0.3843,-0.1821,0.0515,0.0347,0.0218,0.064,1743,2019-08-07 16:34:24:042
-7.6375,-4.1334,3.2387,-0.4862,-0.2603,0.1707,0.0347,0.0218,0.064,1748,2019-08-07 16:34:24:047
-7.6375,-4.1334,3.2387,-0.4862,-0.2603,0.1707,0.0347,0.0218,0.064,1753,2019-08-07 16:34:24:052
-7.6375,-4.1334,3.2387,-0.4862,-0.2603,0.1707,0.0325,0.0665,0.0576,1758,2019-08-07 16:34:24:057
-7.6375,-4.1287,3.2623,-0.4862,-0.2603,0.1707,0.0325,0.0665,0.0576,1763,2019-08-07 16:34:24:062
-7.6375,-4.1287,3.2623,-0.3669,-0.2296,0.1953,0.0304,0.0868,0.0544,1767,2019-08-07 16:34:24:066
-7.8671,-4.1048,3.2764,-0.3669,-0.2296,0.1953,0.0304,0.0868,0.0544,1773,2019-08-07 16:34:24:072
-7.8671,-4.1048,3.2764,-0.3669,-0.2296,0.1953,0.0261,0.107,0.048,1778,2019-08-07 16:34:24:077
-7.8671,-4.1048,3.2764,-0.3669,-0.2296,0.1953,0.0261,0.107,0.048,1782,2019-08-07 16:34:24:081
-8.0059,-4.0953,3.4178,-0.1209,-0.3,0.062,0.0261,0.107,0.048,1788,2019-08-07 16:34:24:087
-8.0059,-4.0953,3.4178,-0.1209,-0.3,0.062,0.0187,0.1049,0.049,1793,2019-08-07 16:34:24:092
-8.0059,-4.0953,3.4178,-0.1209,-0.3,0.062,0.0187,0.1049,0.049,1797,2019-08-07 16:34:24:096
-8.0154,-4.0475,3.4791,-0.1209,-0.3,0.062,0.0112,0.074,0.049,1803,2019-08-07 16:34:24:102
-8.0154,-4.0475,3.4791,-0.1209,-0.3,0.062,0.0112,0.074,0.049,1808,2019-08-07 16:34:24:107
-7.9867,-4.0523,3.4225,-0.1216,-0.2705,0.0133,0.007,0.0324,0.0458,1812,2019-08-07 16:34:24:111
-7.9867,-4.0523,3.4225,-0.1216,-0.2705,0.0133,0.007,0.0324,0.0458,1817,2019-08-07 16:34:24:116
-7.8767,-4.1191,3.3801,-0.1216,-0.2705,0.0133,0.0038,-0.0102,0.0469,1823,2019-08-07 16:34:24:122
-7.8767,-4.1191,3.3801,-0.1216,-0.2705,0.0133,0.0038,-0.0102,0.0469,1828,2019-08-07 16:34:24:127
-7.8767,-4.1191,3.3801,-0.2652,-0.2617,0.1732,0.0059,-0.0208,0.0469,1832,2019-08-07 16:34:24:131
-7.8001,-4.0762,3.1821,-0.2652,-0.2617,0.1732,0.0059,-0.0208,0.0469,1838,2019-08-07 16:34:24:137
-7.8001,-4.0762,3.1821,-0.2652,-0.2617,0.1732,0.0059,-0.0208,0.0469,1842,2019-08-07 16:34:24:141
-7.7236,-4.1,3.1539,-0.2652,-0.2617,0.1732,0.0027,-0.0123,0.0544,1848,2019-08-07 16:34:24:147
-7.7236,-4.1,3.1539,-0.4172,-0.2193,0.3123,0.0027,-0.0123,0.0544,1853,2019-08-07 16:34:24:152
-7.7236,-4.1,3.1539,-0.4172,-0.2193,0.3123,0.0048,0.0218,0.0501,1858,2019-08-07 16:34:24:157
-7.647,-4.1048,3.069,-0.4172,-0.2193,0.3123,0.0048,0.0218,0.0501,1862,2019-08-07 16:34:24:161
-7.647,-4.1048,3.069,-0.4172,-0.2193,0.3123,0.0048,0.074,0.0405,1868,2019-08-07 16:34:24:167
-7.647,-4.1048,3.069,-0.4335,-0.159,0.3158,0.0048,0.074,0.0405,1873,2019-08-07 16:34:24:172
-7.7331,-4.1144,3.1491,-0.4335,-0.159,0.3158,0.0016,0.1315,0.0331,1877,2019-08-07 16:34:24:176
-7.7331,-4.1144,3.1491,-0.4335,-0.159,0.3158,0.0016,0.1315,0.0331,1883,2019-08-07 16:34:24:182
-7.7331,-4.1144,3.1491,-0.4335,-0.159,0.3158,-5.0E-4,0.1613,0.0309,1888,2019-08-07 16:34:24:187
-7.9101,-4.1478,3.2293,-0.2258,-0.1438,0.1802,-5.0E-4,0.1613,0.0309,1893,2019-08-07 16:34:24:192
-7.9101,-4.1478,3.2293,-0.2258,-0.1438,0.1802,-0.0058,0.1581,0.0277,1898,2019-08-07 16:34:24:197
-8.1494,-4.0857,3.333,-0.2258,-0.1438,0.1802,-0.0058,0.1581,0.0277,1903,2019-08-07 16:34:24:202
-8.1494,-4.0857,3.333,-0.2258,-0.1438,0.1802,-0.0058,0.1581,0.0277,1908,2019-08-07 16:34:24:207
-8.135,-4.0809,3.3848,0.0047,-0.1865,-0.006,-0.0122,0.1144,0.0309,1913,2019-08-07 16:34:24:212
-8.135,-4.0809,3.3848,0.0047,-0.1865,-0.006,-0.0122,0.1144,0.0309,1918,2019-08-07 16:34:24:217
-8.135,-4.0809,3.3848,0.0047,-0.1865,-0.006,-0.0165,0.0367,0.0395,1923,2019-08-07 16:34:24:222
-8.1015,-4.1048,3.3424,0.0047,-0.1865,-0.006,-0.0165,0.0367,0.0395,1928,2019-08-07 16:34:24:227
-8.1015,-4.1048,3.3424,-0.1033,-0.0947,-0.0451,-0.0175,-0.0113,0.0458,1933,2019-08-07 16:34:24:232
-8.1015,-4.1048,3.3424,-0.1033,-0.0947,-0.0451,-0.0175,-0.0113,0.0458,1937,2019-08-07 16:34:24:236
-7.8623,-4.1812,3.3141,-0.1033,-0.0947,-0.0451,-0.0175,-0.0113,0.0458,1944,2019-08-07 16:34:24:243
-7.8623,-4.1812,3.3141,-0.1033,-0.0947,-0.0451,-0.0197,-0.0368,0.0426,1949,2019-08-07 16:34:24:248
-7.7857,-4.1716,3.0973,-0.3492,-0.0748,0.1932,-0.0197,-0.0368,0.0426,1953,2019-08-07 16:34:24:252
-7.7857,-4.1716,3.0973,-0.3492,-0.0748,0.1932,-0.0197,-0.0368,0.0426,1958,2019-08-07 16:34:24:257
-7.7857,-4.1716,3.0973,-0.3492,-0.0748,0.1932,-0.0133,-0.0113,0.0352,1963,2019-08-07 16:34:24:262
-7.6661,-4.2528,3.1444,-0.3492,-0.0748,0.1932,-0.0133,-0.0113,0.0352,1968,2019-08-07 16:34:24:267
-7.6661,-4.2528,3.1444,-0.433,-0.0383,0.243,-0.0133,0.0569,0.0203,1972,2019-08-07 16:34:24:271
-7.7714,-4.1764,3.1916,-0.433,-0.0383,0.243,-0.0133,0.0569,0.0203,1978,2019-08-07 16:34:24:277
-7.7714,-4.1764,3.1916,-0.433,-0.0383,0.243,-0.0058,0.1038,0.0128,1983,2019-08-07 16:34:24:282
-7.7714,-4.1764,3.1916,-0.433,-0.0383,0.243,-0.0058,0.1038,0.0128,1988,2019-08-07 16:34:24:287
-8.0106,-4.1907,3.3566,-0.1578,-0.0799,0.0013,-0.0058,0.1038,0.0128,1992,2019-08-07 16:34:24:291
-8.0106,-4.1907,3.3566,-0.1578,-0.0799,0.0013,-0.0058,0.1081,0.0054,1998,2019-08-07 16:34:24:297
-8.1589,-4.1239,3.4414,-0.1578,-0.0799,0.0013,-0.0058,0.1081,0.0054,2003,2019-08-07 16:34:24:302
-8.1589,-4.1239,3.4414,-0.1578,-0.0799,0.0013,-0.0101,0.0665,0.0064,2007,2019-08-07 16:34:24:306
-8.1589,-4.1239,3.4414,-0.0256,-0.1218,-0.0746,-0.0101,0.0665,0.0064,2013,2019-08-07 16:34:24:312
-8.1493,-4.1621,3.432,-0.0256,-0.1218,-0.0746,-0.0122,0.0079,0.0043,2018,2019-08-07 16:34:24:317
-8.1493,-4.1621,3.432,-0.0256,-0.1218,-0.0746,-0.0122,0.0079,0.0043,2023,2019-08-07 16:34:24:322
-8.1493,-4.1621,3.432,-0.0256,-0.1218,-0.0746,-0.009,-0.0453,0.0054,2028,2019-08-07 16:34:24:327
-8.0632,-4.2051,3.4037,-0.1209,-0.0353,0.0167,-0.009,-0.0453,0.0054,2033,2019-08-07 16:34:24:332
-8.0632,-4.2051,3.4037,-0.1209,-0.0353,0.0167,-0.0026,-0.0869,0.0075,2037,2019-08-07 16:34:24:336
-8.0632,-4.2051,3.4037,-0.1209,-0.0353,0.0167,-0.0026,-0.0869,0.0075,2043,2019-08-07 16:34:24:342
-7.8766,-4.1717,3.2717,-0.1209,-0.0353,0.0167,0.0059,-0.0911,0.0096,2048,2019-08-07 16:34:24:347
-7.8766,-4.1717,3.2717,-0.3739,-0.1154,0.1631,0.0059,-0.0911,0.0096,2053,2019-08-07 16:34:24:352
-7.8144,-4.1048,3.1774,-0.3739,-0.1154,0.1631,0.0059,-0.0911,0.0096,2057,2019-08-07 16:34:24:356
-7.8144,-4.1048,3.1774,-0.4194,-0.1479,0.1465,0.0102,-0.0666,0.0128,2063,2019-08-07 16:34:24:362
-7.8144,-4.1048,3.1774,-0.4194,-0.1479,0.1465,0.0102,-0.0666,0.0128,2068,2019-08-07 16:34:24:367
-7.733,-4.1144,3.1869,-0.4194,-0.1479,0.1465,0.0059,-0.0294,0.0096,2072,2019-08-07 16:34:24:371
-7.733,-4.1144,3.1869,-0.4194,-0.1479,0.1465,0.0059,-0.0294,0.0096,2078,2019-08-07 16:34:24:377
-7.7617,-4.1191,3.2057,-0.3985,-0.0842,0.1811,0.0038,0.0047,0.0086,2083,2019-08-07 16:34:24:382
-7.7617,-4.1191,3.2057,-0.3985,-0.0842,0.1811,0.0038,0.0047,0.0086,2088,2019-08-07 16:34:24:387
-7.7617,-4.1191,3.2057,-0.3985,-0.0842,0.1811,0.0038,0.0047,0.0086,2093,2019-08-07 16:34:24:392
-7.8574,-4.186,3.3142,-0.3985,-0.0842,0.1811,0.0027,0.0335,0.0054,2097,2019-08-07 16:34:24:396
-7.8574,-4.186,3.3142,-0.2188,-0.0689,0.0453,0.0027,0.0335,0.0054,2103,2019-08-07 16:34:24:402
-8.0344,-4.186,3.3424,-0.2188,-0.0689,0.0453,0.0048,0.0271,0.0032,2108,2019-08-07 16:34:24:407
-8.0344,-4.186,3.3424,-0.2188,-0.0689,0.0453,0.0048,0.0271,0.0032,2113,2019-08-07 16:34:24:412
-8.0344,-4.186,3.3424,-0.2188,-0.0689,0.0453,0.0048,0.0015,0.0032,2118,2019-08-07 16:34:24:417
-8.0882,-4.119,3.4695,-0.0708,-0.1537,-0.0647,0.0048,0.0015,0.0032,2122,2019-08-07 16:34:24:421
-8.0882,-4.119,3.4695,-0.0708,-0.1537,-0.0647,0.0027,-0.0304,0.0064,2128,2019-08-07 16:34:24:427
-8.0882,-4.1143,3.4978,-0.0708,-0.1537,-0.0647,0.0027,-0.0304,0.0064,2133,2019-08-07 16:34:24:432
-8.1599,-4.1143,3.4978,-0.0708,-0.1537,-0.0647,0.0027,-0.0304,0.0064,2137,2019-08-07 16:34:24:436
-8.1599,-4.1143,3.4978,-0.0708,-0.1537,-0.0647,0.0027,-0.0965,0.0149,2143,2019-08-07 16:34:24:442
-8.0116,-4.1429,3.4836,-0.1247,-0.1176,-0.0811,0.0027,-0.0965,0.0149,2147,2019-08-07 16:34:24:446
-8.0116,-4.1429,3.4836,-0.1247,-0.1176,-0.0811,0.0016,-0.1274,0.0213,2152,2019-08-07 16:34:24:451
-7.9351,-4.1286,3.5967,-0.1247,-0.1176,-0.0811,-5.0E-4,-0.1455,0.0245,2158,2019-08-07 16:34:24:457
-7.9351,-4.1286,3.5967,-0.1247,-0.1176,-0.0811,-5.0E-4,-0.1455,0.0245,2162,2019-08-07 16:34:24:461
-7.9351,-4.1286,3.5967,-0.2413,-0.0655,-0.1796,-5.0E-4,-0.1455,0.0245,2167,2019-08-07 16:34:24:466
-7.9016,-4.2193,3.5072,-0.2413,-0.0655,-0.1796,-0.0026,-0.1401,0.0309,2173,2019-08-07 16:34:24:472
-7.9016,-4.2193,3.5072,-0.2413,-0.0655,-0.1796,-0.0026,-0.1199,0.0277,2178,2019-08-07 16:34:24:477
-7.9016,-4.2193,3.5072,-0.2193,0.0769,-0.1517,-0.0026,-0.1199,0.0277,2183,2019-08-07 16:34:24:482
-7.9303,-4.3291,3.5779,-0.2193,0.0769,-0.1517,0.0059,-0.0879,0.0245,2188,2019-08-07 16:34:24:487
-7.9303,-4.3291,3.5779,-0.2193,0.0769,-0.1517,0.0059,-0.0879,0.0245,2193,2019-08-07 16:34:24:492
-8.0786,-4.5057,3.8843,-0.1113,0.2267,-0.4022,0.0059,-0.0879,0.0245,2198,2019-08-07 16:34:24:497
-8.0786,-4.5057,3.8843,-0.1113,0.2267,-0.4022,0.0219,-0.0666,0.0299,2203,2019-08-07 16:34:24:502
-8.0786,-4.5057,3.8843,-0.1113,0.2267,-0.4022,0.0219,-0.0666,0.0299,2208,2019-08-07 16:34:24:507
-8.3322,-4.7492,4.1954,-0.1113,0.2267,-0.4022,0.0538,-0.0581,0.0277,2213,2019-08-07 16:34:24:512
-8.3322,-4.7492,4.1954,0.3286,0.7046,-0.9318,0.0538,-0.0581,0.0277,2218,2019-08-07 16:34:24:517
-8.8776,-5.3745,5.223,0.3286,0.7046,-0.9318,0.1263,-0.0773,0.032,2223,2019-08-07 16:34:24:522
-8.8776,-5.3745,5.223,0.3286,0.7046,-0.9318,0.1263,-0.0773,0.032,2228,2019-08-07 16:34:24:527
-8.8776,-5.3745,5.223,0.3286,0.7046,-0.9318,0.1263,-0.0773,0.032,2233,2019-08-07 16:34:24:532
-9.6479,-6.6348,7.1604,1.3181,2.1449,-3.2477,0.2307,-0.1444,0.0501,2238,2019-08-07 16:34:24:537
-9.6479,-6.6348,7.1604,1.3181,2.1449,-3.2477,0.2307,-0.1444,0.0501,2243,2019-08-07 16:34:24:542
-9.6479,-6.6348,7.1604,1.3181,2.1449,-3.2477,0.4906,-0.3351,0.0629,2248,2019-08-07 16:34:24:547
-10.3942,-7.5705,9.1732,1.3181,2.1449,-3.2477,0.4906,-0.3351,0.0629,2252,2019-08-07 16:34:24:551
-10.3942,-7.5705,9.1732,2.9212,3.9975,-7.0243,0.8379,-0.709,0.0533,2258,2019-08-07 16:34:24:557
-11.7291,-8.6303,11.8365,2.9212,3.9975,-7.0243,0.8379,-0.709,0.0533,2263,2019-08-07 16:34:24:562
-11.7291,-8.6303,11.8365,3.8815,4.5707,-8.6068,1.0296,-1.0009,0.0235,2268,2019-08-07 16:34:24:567
-11.7291,-8.6303,11.8365,3.8815,4.5707,-8.6068,1.0296,-1.0009,0.0235,2272,2019-08-07 16:34:24:571
-12.8629,-9.2413,13.9153,3.8815,4.5707,-8.6068,1.2182,-1.4174,-0.0564,2278,2019-08-07 16:34:24:577
-12.8629,-9.2413,13.9153,3.8815,4.5707,-8.6068,1.2182,-1.4174,-0.0564,2283,2019-08-07 16:34:24:582
-12.8629,-9.2413,13.9153,5.819,5.9747,-11.4644,1.3982,-1.8542,-0.2215,2287,2019-08-07 16:34:24:586
-14.0399,-10.8119,16.4843,5.819,5.9747,-11.4644,1.3982,-1.8542,-0.2215,2293,2019-08-07 16:34:24:592
-14.0399,-10.8119,16.4843,5.819,5.9747,-11.4644,1.6358,-1.9948,-0.4399,2298,2019-08-07 16:34:24:597
-13.9442,-13.5807,17.5732,5.819,5.9747,-11.4644,1.6358,-1.9948,-0.4399,2303,2019-08-07 16:34:24:602
-13.9442,-13.5807,17.5732,6.1026,10.1838,-13.1172,1.6358,-1.9948,-0.4399,2307,2019-08-07 16:34:24:606
-13.9442,-13.5807,17.5732,6.1026,10.1838,-13.1172,2.0959,-1.7679,-0.7702,2313,2019-08-07 16:34:24:612
-13.5854,-15.5094,17.6674,6.1026,10.1838,-13.1172,2.0959,-1.7679,-0.7702,2318,2019-08-07 16:34:24:617
-13.5854,-15.5094,17.6674,6.1026,10.1838,-13.1172,3.0249,-0.9924,-1.2335,2322,2019-08-07 16:34:24:621
-13.5854,-15.5094,17.6674,8.017,10.3662,-13.0766,3.0249,-0.9924,-1.2335,2328,2019-08-07 16:34:24:627
-16.743,-13.5807,18.3604,8.017,10.3662,-13.0766,3.6012,-0.4448,-1.4146,2333,2019-08-07 16:34:24:632
-16.743,-13.5807,18.3604,8.017,10.3662,-13.0766,3.6012,-0.4448,-1.4146,2338,2019-08-07 16:34:24:637
-16.743,-13.5807,18.3604,8.017,10.3662,-13.0766,4.1828,-0.2967,-1.4296,2342,2019-08-07 16:34:24:641
-28.1582,-8.869,27.0149,23.2382,4.3319,-23.7656,4.1828,-0.2967,-1.4296,2348,2019-08-07 16:34:24:647
-28.1582,-8.869,27.0149,23.2382,4.3319,-23.7656,4.1807,-2.2472,-1.2282,2353,2019-08-07 16:34:24:652
-28.1582,-8.869,27.0149,23.2382,4.3319,-23.7656,4.1807,-2.2472,-1.2282,2357,2019-08-07 16:34:24:656
-42.0373,-6.2338,32.9873,23.2382,4.3319,-23.7656,3.5394,-5.7147,-0.8863,2363,2019-08-07 16:34:24:662
-42.0373,-6.2338,32.9873,38.3756,3.2,-23.5873,3.5394,-5.7147,-0.8863,2368,2019-08-07 16:34:24:667
-42.0373,-6.2338,32.9873,38.3756,3.2,-23.5873,3.5394,-5.7147,-0.8863,2373,2019-08-07 16:34:24:672
-45.0274,-6.9642,23.8614,38.3756,3.2,-23.5873,2.0523,-10.5009,-0.8096,2378,2019-08-07 16:34:24:677
-45.0274,-6.9642,23.8614,38.3756,3.2,-23.5873,2.0523,-10.5009,-0.8096,2383,2019-08-07 16:34:24:682
-36.655,-7.1122,12.5812,31.3424,3.846,-5.0086,0.693,-14.2464,-1.1899,2388,2019-08-07 16:34:24:687
-36.655,-7.1122,12.5812,31.3424,3.846,-5.0086,0.693,-14.2464,-1.1899,2393,2019-08-07 16:34:24:692
-36.655,-7.1122,12.5812,31.3424,3.846,-5.0086,-0.1134,-15.8421,-1.8344,2398,2019-08-07 16:34:24:697
-25.1442,-7.074,3.4459,31.3424,3.846,-5.0086,-0.1134,-15.8421,-1.8344,2403,2019-08-07 16:34:24:702
-25.1442,-7.074,3.4459,16.8574,3.3061,7.9164,-0.1134,-15.8421,-1.8344,2407,2019-08-07 16:34:24:706
-15.0398,-7.0072,1.8526,16.8574,3.3061,7.9164,-0.2785,-14.2144,-2.4309,2413,2019-08-07 16:34:24:712
-15.0398,-7.0072,1.8526,16.8574,3.3061,7.9164,-0.2785,-14.2144,-2.4309,2418,2019-08-07 16:34:24:717
-15.0398,-7.0072,1.8526,16.8574,3.3061,7.9164,0.4704,-11.2391,-2.5609,2423,2019-08-07 16:34:24:722
-9.1935,-4.224,-1.6026,8.9705,0.7404,10.7705,0.4704,-11.2391,-2.5609,2427,2019-08-07 16:34:24:726
-9.1935,-4.224,-1.6026,8.9705,0.7404,10.7705,0.4309,-8.1392,-1.992,2433,2019-08-07 16:34:24:732
-9.1935,-4.224,-1.6026,8.9705,0.7404,10.7705,0.4309,-8.1392,-1.992,2438,2019-08-07 16:34:24:737
-6.2991,-0.8824,-1.2821,8.9705,0.7404,10.7705,0.1934,-5.1171,-1.4562,2442,2019-08-07 16:34:24:741
-6.2991,-0.8824,-1.2821,8.9705,0.7404,10.7705,0.1934,-5.1171,-1.4562,2448,2019-08-07 16:34:24:747
-15.3461,0.0103,2.06,11.071,-3.2631,7.7624,0.3755,-3.3498,-1.3209,2452,2019-08-07 16:34:24:751
-15.3461,0.0103,2.06,11.071,-3.2631,7.7624,0.3755,-3.3498,-1.3209,2458,2019-08-07 16:34:24:757
-15.3461,0.0103,2.06,11.071,-3.2631,7.7624,0.3755,-3.3498,-1.3209,2463,2019-08-07 16:34:24:762
-27.6894,1.3327,5.0863,30.2775,-5.0965,4.9529,0.464,-3.6917,-0.9385,2468,2019-08-07 16:34:24:767
-27.6894,1.3327,5.0863,30.2775,-5.0965,4.9529,0.464,-3.6917,-0.9385,2472,2019-08-07 16:34:24:771
-25.3978,3.8151,-2.9932,30.2775,-5.0965,4.9529,0.301,-5.6731,-0.2375,2478,2019-08-07 16:34:24:777
-25.3978,3.8151,-2.9932,30.2775,-5.0965,4.9529,0.301,-5.6731,-0.2375,2483,2019-08-07 16:34:24:782
-25.3978,3.8151,-2.9932,17.8816,-6.753,20.4191,-0.2359,-8.822,0.3313,2487,2019-08-07 16:34:24:786
-12.7195,3.1515,-14.0659,17.8816,-6.753,20.4191,-0.2359,-8.822,0.3313,2493,2019-08-07 16:34:24:792
-12.7195,3.1515,-14.0659,17.8816,-6.753,20.4191,-0.2359,-8.822,0.3313,2498,2019-08-07 16:34:24:797
-0.8451,1.6239,-14.6222,17.8816,-6.753,20.4191,-0.7547,-11.76,0.5007,2503,2019-08-07 16:34:24:802
-0.8451,1.6239,-14.6222,17.8816,-6.753,20.4191,-0.7547,-11.76,0.5007,2507,2019-08-07 16:34:24:806
-0.8451,1.6239,-14.6222,4.0033,-4.764,23.4809,-1.0402,-15.0783,0.3377,2513,2019-08-07 16:34:24:812
2.0446,0.8696,-19.7508,4.0033,-4.764,23.4809,-1.0402,-15.0783,0.3377,2518,2019-08-07 16:34:24:817
2.0446,0.8696,-19.7508,4.0033,-4.764,23.4809,-0.8293,-14.9867,0.0117,2523,2019-08-07 16:34:24:822
2.0446,0.8696,-19.7508,4.0033,-4.764,23.4809,-0.8293,-14.9867,0.0117,2528,2019-08-07 16:34:24:827
8.0153,-0.405,-29.7299,-1.1947,-3.1531,35.8172,0.9838,-2.6904,-0.2865,2533,2019-08-07 16:34:24:832
8.0153,-0.405,-29.7299,-1.1947,-3.1531,35.8172,0.9838,-2.6904,-0.2865,2537,2019-08-07 16:34:24:836
4.0444,1.6669,-29.9373,-1.1947,-3.1531,35.8172,0.9838,-2.6904,-0.2865,2543,2019-08-07 16:34:24:842
4.0444,1.6669,-29.9373,13.3832,-7.1915,29.0018,1.3364,2.588,-0.3781,2548,2019-08-07 16:34:24:847
4.0444,1.6669,-29.9373,13.3832,-7.1915,29.0018,1.3364,2.588,-0.3781,2553,2019-08-07 16:34:24:852
-10.337,3.7053,-14.7212,13.3832,-7.1915,29.0018,1.754,6.0948,0.2195,2559,2019-08-07 16:34:24:858
-10.337,3.7053,-14.7212,13.3832,-7.1915,29.0018,1.754,6.0948,0.2195,2563,2019-08-07 16:34:24:862
-8.7869,-0.954,-14.2074,13.3832,-7.1915,29.0018,2.5572,1.495,0.4048,2567,2019-08-07 16:34:24:866
-8.7869,-0.954,-14.2074,15.8349,-2.0898,23.2299,2.5572,1.495,0.4048,2573,2019-08-07 16:34:24:872
-8.7869,-0.954,-14.2074,15.8349,-2.0898,23.2299,1.9351,1.0327,0.1215,2577,2019-08-07 16:34:24:876
-0.4385,2.5787,-5.8121,15.8349,-2.0898,23.2299,1.9351,1.0327,0.1215,2582,2019-08-07 16:34:24:881
-0.4385,2.5787,-5.8121,15.8349,-2.0898,23.2299,0.5609,-4.0603,-0.5188,2588,2019-08-07 16:34:24:887
1.0542,3.2422,-14.1461,6.6153,-5.9744,21.3932,0.5609,-4.0603,-0.5188,2593,2019-08-07 16:34:24:892
1.0542,3.2422,-14.1461,6.6153,-5.9744,21.3932,-0.4415,-7.1123,-0.6423,2598,2019-08-07 16:34:24:897
1.0542,3.2422,-14.1461,6.6153,-5.9744,21.3932,-0.4415,-7.1123,-0.6423,2603,2019-08-07 16:34:24:902
8.8717,2.0488,2.0694,6.6153,-5.9744,21.3932,-0.4415,-7.1123,-0.6423,2607,2019-08-07 16:34:24:906
8.8717,2.0488,2.0694,-4.6906,-8.3704,10.0661,-0.9081,-6.209,-0.2237,2613,2019-08-07 16:34:24:912
8.8717,2.0488,2.0694,-4.6906,-8.3704,10.0661,-0.9081,-6.209,-0.2237,2618,2019-08-07 16:34:24:917
19.4113,-0.4861,-15.4424,-4.6906,-8.3704,10.0661,-0.6418,-3.3775,-0.1523,2622,2019-08-07 16:34:24:921
19.4113,-0.4861,-15.4424,-4.6906,-8.3704,10.0661,-0.6418,-3.3775,-0.1523,2628,2019-08-07 16:34:24:927
14.8854,1.0415,-19.8875,-7.5846,-4.1071,24.384,-0.1049,0.3382,-0.196,2633,2019-08-07 16:34:24:932
14.8854,1.0415,-19.8875,-7.5846,-4.1071,24.384,-0.1049,0.3382,-0.196,2638,2019-08-07 16:34:24:937
14.8854,1.0415,-19.8875,-7.5846,-4.1071,24.384,0.3319,4.8378,0.1002,2643,2019-08-07 16:34:24:942
10.216,0.946,-14.2498,-7.5846,-4.1071,24.384,0.3319,4.8378,0.1002,2649,2019-08-07 16:34:24:948
10.216,0.946,-14.2498,-2.4986,-3.2489,14.9862,0.3319,4.8378,0.1002,2652,2019-08-07 16:34:24:951
10.216,0.946,-14.2498,-2.4986,-3.2489,14.9862,0.0187,6.6743,0.2429,2658,2019-08-07 16:34:24:957
11.0963,0.2872,20.4438,-2.4986,-3.2489,14.9862,0.0187,6.6743,0.2429,2663,2019-08-07 16:34:24:962
11.0963,0.2872,20.4438,-2.4986,-3.2489,14.9862,-0.6013,2.3526,0.179,2668,2019-08-07 16:34:24:967
0.2265,0.6644,-3.2761,8.9798,-4.2692,13.157,-0.6013,2.3526,0.179,2672,2019-08-07 16:34:24:971
0.2265,0.6644,-3.2761,8.9798,-4.2692,13.157,-0.8634,1.8583,0.5092,2678,2019-08-07 16:34:24:977
0.2265,0.6644,-3.2761,5.7174,-3.0836,11.0341,-0.8634,1.8583,0.5092,2683,2019-08-07 16:34:24:982
3.7142,-1.3215,1.8149,5.7174,-3.0836,11.0341,-0.4926,1.9936,0.554,2687,2019-08-07 16:34:24:986
3.7142,-1.3215,1.8149,5.7174,-3.0836,11.0341,-0.4926,1.9936,0.554,2693,2019-08-07 16:34:24:992
3.7142,-1.3215,1.8149,5.7174,-3.0836,11.0341,-0.4926,1.9936,0.554,2698,2019-08-07 16:34:24:997
2.3746,-0.9349,-5.7508,3.7994,-2.3134,12.6243,-0.1773,1.7645,0.522,2703,2019-08-07 16:34:25:002
2.3746,-0.9349,-5.7508,3.7994,-2.3134,12.6243,-0.1773,1.7645,0.522,2708,2019-08-07 16:34:25:007
2.3746,-0.9349,-5.7508,3.7994,-2.3134,12.6243,-0.3574,2.3249,0.5604,2713,2019-08-07 16:34:25:012
3.4798,-0.2904,-7.2545,3.7994,-2.3134,12.6243,-0.3574,2.3249,0.5604,2718,2019-08-07 16:34:25:017
3.4798,-0.2904,-7.2545,3.6138,-2.9146,15.3071,-0.7345,3.2154,0.4698,2722,2019-08-07 16:34:25:021
2.1449,-0.6055,-8.6592,3.6138,-2.9146,15.3071,-0.7345,3.2154,0.4698,2728,2019-08-07 16:34:25:027
2.1449,-0.6055,-8.6592,3.6138,-2.9146,15.3071,-0.9401,4.4128,0.4048,2733,2019-08-07 16:34:25:032
0.4178,-0.6246,-6.2269,3.6138,-2.9146,15.3071,-0.9401,4.4128,0.4048,2738,2019-08-07 16:34:25:037
0.4178,-0.6246,-6.2269,5.6358,-2.9141,12.4189,-0.9827,5.4376,0.3782,2743,2019-08-07 16:34:25:042
0.4178,-0.6246,-6.2269,5.6358,-2.9141,12.4189,-0.9827,5.4376,0.3782,2748,2019-08-07 16:34:25:047
-1.5963,-0.5482,-5.5858,5.6358,-2.9141,12.4189,-0.9827,5.4376,0.3782,2752,2019-08-07 16:34:25:051
-1.5963,-0.5482,-5.5858,5.6358,-2.9141,12.4189,-0.7792,6.326,0.4102,2758,2019-08-07 16:34:25:057
-1.5963,-0.5482,-5.5858,7.5783,-3.0226,13.0697,-0.7792,6.326,0.4102,2762,2019-08-07 16:34:25:061
-3.1273,-0.7248,-5.1946,7.5783,-3.0226,13.0697,-0.8207,7.0514,0.4581,2768,2019-08-07 16:34:25:067
-3.1273,-0.7248,-5.1946,7.5783,-3.0226,13.0697,-0.8207,7.0514,0.4581,2773,2019-08-07 16:34:25:072
-3.1273,-0.7248,-5.1946,7.5783,-3.0226,13.0697,-0.8207,7.0514,0.4581,2778,2019-08-07 16:34:25:077
-5.9596,-0.7964,-4.2895,10.6297,-3.1128,11.5263,-1.0785,7.4989,0.6253,2783,2019-08-07 16:34:25:082
-5.9596,-0.7964,-4.2895,10.6297,-3.1128,11.5263,-1.0785,7.4989,0.6253,2788,2019-08-07 16:34:25:087
-5.9596,-0.7964,-4.2895,10.6297,-3.1128,11.5263,-1.25,7.6821,1.0046,2793,2019-08-07 16:34:25:092
-8.6148,-1.2786,-1.7865,10.6297,-3.1128,11.5263,-1.25,7.6821,1.0046,2798,2019-08-07 16:34:25:097
-8.6148,-1.2786,-1.7865,11.8733,-2.4202,9.9305,-1.3598,7.6352,1.2996,2803,2019-08-07 16:34:25:102
-10.318,-2.0901,-1.169,11.8733,-2.4202,9.9305,-1.3598,7.6352,1.2996,2808,2019-08-07 16:34:25:107
-10.318,-2.0901,-1.169,11.8733,-2.4202,9.9305,-1.3598,7.6352,1.2996,2812,2019-08-07 16:34:25:111
-10.318,-2.0901,-1.169,12.1195,-2.2082,9.8581,-1.6016,7.5084,1.6064,2818,2019-08-07 16:34:25:117
-11.2414,-2.6343,-0.1555,12.1195,-2.2082,9.8581,-1.6016,7.5084,1.6064,2822,2019-08-07 16:34:25:121
-11.2414,-2.6343,-0.1555,12.1195,-2.2082,9.8581,-1.722,7.6224,1.8877,2828,2019-08-07 16:34:25:127
-11.4376,-3.9233,2.8613,11.2366,-0.4755,4.9986,-1.722,7.6224,1.8877,2832,2019-08-07 16:34:25:131
-11.4376,-3.9233,2.8613,11.2366,-0.4755,4.9986,-1.3757,7.8131,2.007,2838,2019-08-07 16:34:25:137
-11.4376,-3.9233,2.8613,11.2366,-0.4755,4.9986,-1.3757,7.8131,2.007,2842,2019-08-07 16:34:25:141
-11.9208,-5.5177,5.3172,10.8822,0.6469,3.1346,-0.9752,8.0187,1.9228,2848,2019-08-07 16:34:25:147
-11.9208,-5.5177,5.3172,10.8822,0.6469,3.1346,-0.9752,8.0187,1.9228,2853,2019-08-07 16:34:25:152
-11.9208,-5.5177,5.3172,10.8822,0.6469,3.1346,-0.9752,8.0187,1.9228,2858,2019-08-07 16:34:25:157
-14.5091,-6.4964,9.1165,10.8822,0.6469,3.1346,-0.6237,8.0027,1.7279,2862,2019-08-07 16:34:25:161
-14.5091,-6.4964,9.1165,13.2076,1.1303,-1.6011,-0.6237,8.0027,1.7279,2868,2019-08-07 16:34:25:167
-17.8963,-4.7157,10.031,13.2076,1.1303,-1.6011,-0.384,7.3881,1.5937,2872,2019-08-07 16:34:25:171
-17.8963,-4.7157,10.031,13.2076,1.1303,-1.6011,-0.384,7.3881,1.5937,2878,2019-08-07 16:34:25:177
-17.8963,-4.7157,10.031,15.3414,-1.5445,-2.4778,-0.4799,6.2877,1.632,2883,2019-08-07 16:34:25:182
-19.59,-3.2215,9.9697,15.3414,-1.5445,-2.4778,-0.4799,6.2877,1.632,2888,2019-08-07 16:34:25:187
-19.59,-3.2215,9.9697,15.3414,-1.5445,-2.4778,-0.4799,6.2877,1.632,2892,2019-08-07 16:34:25:191
-19.6426,-3.7753,10.1865,15.3414,-1.5445,-2.4778,-0.7195,5.3896,1.7939,2898,2019-08-07 16:34:25:197
-19.6426,-3.7753,10.1865,14.1212,0.3982,-4.4539,-1.0029,4.6013,2.0539,2903,2019-08-07 16:34:25:202
-19.6426,-3.7753,10.1865,14.1212,0.3982,-4.4539,-1.0029,4.6013,2.0539,2908,2019-08-07 16:34:25:207
-18.1643,-6.7589,12.6424,14.1212,0.3982,-4.4539,-1.0029,4.6013,2.0539,2913,2019-08-07 16:34:25:212
-18.1643,-6.7589,12.6424,14.1212,0.3982,-4.4539,-1.0487,4.1582,2.2595,2917,2019-08-07 16:34:25:216
-18.1643,-10.4777,12.7084,14.1212,0.3982,-4.4539,-1.0487,4.1582,2.2595,2923,2019-08-07 16:34:25:222
-16.0879,-10.4777,12.7084,10.2887,5.7799,-6.3417,-0.9646,4.0772,2.2413,2928,2019-08-07 16:34:25:227
-16.0879,-10.4777,12.7084,10.2887,5.7799,-6.3417,-0.9646,4.0772,2.2413,2932,2019-08-07 16:34:25:231
-15.5808,-10.492,11.3131,10.2887,5.7799,-6.3417,-1.0434,4.2668,2.1199,2938,2019-08-07 16:34:25:237
-15.5808,-10.492,11.3131,10.2887,5.7799,-6.3417,-1.0434,4.2668,2.1199,2942,2019-08-07 16:34:25:241
-15.4373,-9.4275,10.4364,8.893,5.1067,-5.0386,-1.1424,4.5577,1.9921,2948,2019-08-07 16:34:25:247
-15.4373,-9.4275,10.4364,8.893,5.1067,-5.0386,-1.1424,4.5577,1.9921,2953,2019-08-07 16:34:25:252
-15.4373,-9.4275,10.4364,8.893,5.1067,-5.0386,-1.266,5.3076,1.7321,2957,2019-08-07 16:34:25:256
-16.9204,-8.5491,8.7488,8.893,5.1067,-5.0386,-1.266,5.3076,1.7321,2962,2019-08-07 16:34:25:261
-16.9204,-8.5491,8.7488,10.1583,4.0305,-3.8134,-1.3896,5.8669,1.5425,2967,2019-08-07 16:34:25:266
-16.9204,-8.5491,8.7488,10.1583,4.0305,-3.8134,-1.3896,5.8669,1.5425,2973,2019-08-07 16:34:25:272
-20.1928,-8.3581,9.6727,10.1583,4.0305,-3.8134,-1.4908,5.9627,1.3497,2978,2019-08-07 16:34:25:277
-20.1928,-8.3581,9.6727,10.1583,4.0305,-3.8134,-1.4908,5.9627,1.3497,2983,2019-08-07 16:34:25:282
-20.1928,-8.3581,9.6727,13.8138,4.0441,-7.0565,-1.4908,5.9627,1.3497,2987,2019-08-07 16:34:25:286
-22.2596,-8.6541,11.9165,13.8138,4.0441,-7.0565,-1.4535,5.101,1.175,2993,2019-08-07 16:34:25:292
-22.2596,-8.6541,11.9165,13.8138,4.0441,-7.0565,-1.4535,5.101,1.175,2998,2019-08-07 16:34:25:297
-22.0061,-9.1649,14.561,13.8138,4.0441,-7.0565,-1.3619,3.4391,0.9289,3003,2019-08-07 16:34:25:302
-22.0061,-9.1649,14.561,13.5114,4.9484,-11.7771,-1.3619,3.4391,0.9289,3008,2019-08-07 16:34:25:307
-22.0061,-9.1649,14.561,13.5114,4.9484,-11.7771,-1.2969,1.9105,0.7244,3012,2019-08-07 16:34:25:311
-22.0061,-9.1649,14.561,13.5114,4.9484,-11.7771,-1.2969,1.9105,0.7244,3018,2019-08-07 16:34:25:317
-19.8532,-9.4657,14.6835,11.4225,5.2391,-11.9824,-1.2096,0.5938,0.538,3023,2019-08-07 16:34:25:322
-19.8532,-9.4657,14.6835,11.4225,5.2391,-11.9824,-1.2096,0.5938,0.538,3027,2019-08-07 16:34:25:326
-13.2366,-10.177,12.7933,11.4225,5.2391,-11.9824,-1.0104,-0.1295,0.3313,3033,2019-08-07 16:34:25:332
-13.2366,-10.177,12.7933,3.7607,6.1072,-9.8249,-1.0104,-0.1295,0.3313,3038,2019-08-07 16:34:25:337
-13.2366,-10.177,12.7933,3.7607,6.1072,-9.8249,-0.7089,-0.1678,0.1225,3043,2019-08-07 16:34:25:342
-9.0217,-10.7021,11.1576,3.7607,6.1072,-9.8249,-0.7089,-0.1678,0.1225,3048,2019-08-07 16:34:25:347
-9.0217,-10.7021,11.1576,3.7607,6.1072,-9.8249,-0.7089,-0.1678,0.1225,3052,2019-08-07 16:34:25:351
-9.0217,-10.7021,11.1576,-1.3267,6.4634,-7.8522,-0.205,0.5629,-0.1385,3058,2019-08-07 16:34:25:357
-6.9884,-10.5875,10.2761,-1.3267,6.4634,-7.8522,-0.205,0.5629,-0.1385,3063,2019-08-07 16:34:25:362
-6.9884,-10.5875,10.2761,-1.3267,6.4634,-7.8522,0.2222,1.3544,-0.3483,3068,2019-08-07 16:34:25:367
-6.9884,-10.5875,10.2761,-1.3267,6.4634,-7.8522,0.2222,1.3544,-0.3483,3072,2019-08-07 16:34:25:371
-9.0265,-8.6302,9.5266,1.2048,3.868,-7.1101,0.4799,1.7784,-0.4932,3078,2019-08-07 16:34:25:377
-9.0265,-8.6302,9.5266,1.2048,3.868,-7.1101,0.4799,1.7784,-0.4932,3083,2019-08-07 16:34:25:382
-12.2702,-6.6539,9.4512,1.2048,3.868,-7.1101,0.563,1.5217,-0.5571,3087,2019-08-07 16:34:25:386
-12.2702,-6.6539,9.4512,1.2048,3.868,-7.1101,0.563,1.5217,-0.5571,3093,2019-08-07 16:34:25:392
-12.2702,-6.6539,9.4512,5.3092,0.8658,-6.567,0.563,1.5217,-0.5571,3097,2019-08-07 16:34:25:396
-13.9447,-4.9592,8.4424,5.3092,0.8658,-6.567,0.4991,0.4426,-0.5251,3103,2019-08-07 16:34:25:402
-13.9447,-4.9592,8.4424,5.3092,0.8658,-6.567,0.4991,0.4426,-0.5251,3107,2019-08-07 16:34:25:406
-12.6762,-3.8422,6.2082,5.3092,0.8658,-6.567,0.3521,-0.5663,-0.4506,3113,2019-08-07 16:34:25:412
-12.6762,-3.8422,6.2082,3.1902,-0.6037,-2.9282,0.3521,-0.5663,-0.4506,3117,2019-08-07 16:34:25:416
-12.6762,-3.8422,6.2082,3.1902,-0.6037,-2.9282,0.1412,-1.4089,-0.3472,3123,2019-08-07 16:34:25:422
-9.9301,-3.9424,3.955,3.1902,-0.6037,-2.9282,0.1412,-1.4089,-0.3472,3128,2019-08-07 16:34:25:427
-9.9301,-3.9424,3.955,3.1902,-0.6037,-2.9282,0.0645,-1.5644,-0.3068,3132,2019-08-07 16:34:25:431
-7.5619,-4.0808,2.1496,-0.8012,-0.3874,0.3663,0.0645,-1.5644,-0.3068,3138,2019-08-07 16:34:25:437
-7.5619,-4.0808,2.1496,-0.8012,-0.3874,0.3663,0.0272,-1.3588,-0.2908,3143,2019-08-07 16:34:25:442
-7.5619,-4.0808,2.1496,-0.8012,-0.3874,0.3663,0.0272,-1.3588,-0.2908,3148,2019-08-07 16:34:25:447
-6.1409,-3.7085,0.6836,-0.8012,-0.3874,0.3663,0.0272,-1.3588,-0.2908,3152,2019-08-07 16:34:25:451
-6.1409,-3.7085,0.6836,-2.6037,-1.0841,2.5579,-0.0474,-0.7782,-0.2705,3158,2019-08-07 16:34:25:457
-6.1409,-3.7085,0.6836,-2.6037,-1.0841,2.5579,-0.0474,-0.7782,-0.2705,3162,2019-08-07 16:34:25:461
-5.5908,-3.3505,-0.014,-2.6037,-1.0841,2.5579,-0.1155,-0.1891,-0.2716,3168,2019-08-07 16:34:25:467
-5.5908,-3.3505,-0.014,-2.6037,-1.0841,2.5579,-0.1155,-0.1891,-0.2716,3173,2019-08-07 16:34:25:472
-6.007,-3.3075,0.2264,-2.0931,-1.2691,2.321,-0.172,0.3541,-0.2684,3178,2019-08-07 16:34:25:477
-6.007,-3.3075,0.2264,-2.0931,-1.2691,2.321,-0.172,0.3541,-0.2684,3183,2019-08-07 16:34:25:482
-6.007,-3.3075,0.2264,-2.0931,-1.2691,2.321,-0.2189,0.7142,-0.2588,3187,2019-08-07 16:34:25:486
-7.3992,-3.2836,1.2446,-2.0931,-1.2691,2.321,-0.2189,0.7142,-0.2588,3193,2019-08-07 16:34:25:492
-7.3992,-3.2836,1.2446,-0.0661,-1.4343,0.7916,-0.2412,0.6876,-0.2524,3198,2019-08-07 16:34:25:497
-8.7723,-3.1547,2.1072,-0.0661,-1.4343,0.7916,-0.2412,0.6876,-0.2524,3203,2019-08-07 16:34:25:502
-8.7723,-3.1547,2.1072,-0.0661,-1.4343,0.7916,-0.2412,0.6876,-0.2524,3207,2019-08-07 16:34:25:506
-8.7723,-3.1547,2.1072,0.8644,-1.5653,0.088,-0.2753,0.3925,-0.2269,3213,2019-08-07 16:34:25:512
-9.3894,-3.0974,2.6493,0.8644,-1.5653,0.088,-0.2753,0.3925,-0.2269,3218,2019-08-07 16:34:25:517
-9.3894,-3.0974,2.6493,0.8644,-1.5653,0.088,-0.3392,-0.203,-0.1736,3223,2019-08-07 16:34:25:522
-9.3894,-3.0974,2.6493,0.8644,-1.5653,0.088,-0.3392,-0.203,-0.1736,3228,2019-08-07 16:34:25:527
-8.8536,-3.4698,2.1826,0.5943,-1.2145,0.2826,-0.3797,-0.6131,-0.1374,3232,2019-08-07 16:34:25:531
-8.8536,-3.4698,2.1826,0.5943,-1.2145,0.2826,-0.3797,-0.6131,-0.1374,3238,2019-08-07 16:34:25:537
-7.5427,-4.0474,1.5462,0.5943,-1.2145,0.2826,-0.3733,-0.7772,-0.131,3243,2019-08-07 16:34:25:542
-7.5427,-4.0474,1.5462,-1.3074,-0.4519,1.3059,-0.3733,-0.7772,-0.131,3248,2019-08-07 16:34:25:547
-7.5427,-4.3864,0.9759,-1.3074,-0.4519,1.3059,-0.3211,-0.6035,-0.1417,3252,2019-08-07 16:34:25:551
-6.5045,-4.3864,0.9759,-1.3074,-0.4519,1.3059,-0.3211,-0.6035,-0.1417,3258,2019-08-07 16:34:25:557
-6.5045,-4.3864,0.9759,-1.3074,-0.4519,1.3059,-0.3211,-0.6035,-0.1417,3263,2019-08-07 16:34:25:562
-6.1792,-4.563,0.7213,-1.9766,-0.2559,1.8559,-0.2743,-0.2573,-0.148,3268,2019-08-07 16:34:25:567
-6.1792,-4.563,0.7213,-1.9766,-0.2559,1.8559,-0.2231,0.1581,-0.1459,3273,2019-08-07 16:34:25:572
-6.1792,-4.563,0.7213,-1.9766,-0.2559,1.8559,-0.2231,0.1581,-0.1459,3277,2019-08-07 16:34:25:576
-6.8681,-4.563,1.1361,-1.9766,-0.2559,1.8559,-0.2231,0.1581,-0.1459,3283,2019-08-07 16:34:25:582
-6.8681,-4.563,1.1361,-0.6329,-0.2517,1.0357,-0.1539,0.4979,-0.1299,3288,2019-08-07 16:34:25:587
-7.7771,-4.5391,1.5887,-0.6329,-0.2517,1.0357,-0.1539,0.4979,-0.1299,3293,2019-08-07 16:34:25:592
-7.7771,-4.5391,1.5887,-0.6329,-0.2517,1.0357,-0.0964,0.6513,-0.1118,3297,2019-08-07 16:34:25:596
-7.7771,-4.5391,1.5887,-0.6329,-0.2517,1.0357,-0.0964,0.6513,-0.1118,3303,2019-08-07 16:34:25:602
-9.2172,-4.3148,2.6681,-0.6329,-0.2517,1.0357,-0.0569,0.5107,-0.0852,3307,2019-08-07 16:34:25:606
-9.2172,-4.3148,2.6681,1.2101,-0.5132,-0.4478,-0.0569,0.5107,-0.0852,3313,2019-08-07 16:34:25:612
-9.2172,-4.3148,2.6681,1.2101,-0.5132,-0.4478,-0.0463,0.1656,-0.0511,3317,2019-08-07 16:34:25:616
-9.8248,-4.267,2.9415,1.2101,-0.5132,-0.4478,-0.0463,0.1656,-0.0511,3323,2019-08-07 16:34:25:622
-9.8248,-4.267,2.9415,1.2101,-0.5132,-0.4478,-0.0463,0.1656,-0.0511,3328,2019-08-07 16:34:25:627
-9.6621,-4.2861,3.0075,1.6028,-0.5155,-0.6562,-0.0569,-0.366,-0.0074,3333,2019-08-07 16:34:25:632
-9.6621,-4.2861,3.0075,1.6028,-0.5155,-0.6562,-0.0569,-0.366,-0.0074,3338,2019-08-07 16:34:25:637
-9.6621,-4.2861,3.0075,1.6028,-0.5155,-0.6562,-0.0569,-0.6973,0.0192,3343,2019-08-07 16:34:25:642
-8.6718,-4.4437,2.6446,1.6028,-0.5155,-0.6562,-0.0569,-0.6973,0.0192,3348,2019-08-07 16:34:25:647
-8.6718,-4.4437,2.6446,0.0228,-0.3152,0.1387,-0.0548,-0.8688,0.0309,3353,2019-08-07 16:34:25:652
-7.447,-4.6633,1.9705,0.0228,-0.3152,0.1387,-0.0548,-0.8688,0.0309,3358,2019-08-07 16:34:25:657
-7.447,-4.6633,1.9705,0.0228,-0.3152,0.1387,-0.0506,-0.8091,0.0235,3363,2019-08-07 16:34:25:662
-7.447,-4.6633,1.9705,0.0228,-0.3152,0.1387,-0.0506,-0.8091,0.0235,3368,2019-08-07 16:34:25:667
-6.672,-5.0404,1.5981,-1.4636,0.212,0.9972,-0.0186,-0.5737,0.0043,3373,2019-08-07 16:34:25:672
-6.672,-5.0404,1.5981,-1.4636,0.212,0.9972,-0.0186,-0.5737,0.0043,3378,2019-08-07 16:34:25:677
-6.6098,-5.0738,1.6924,-1.4636,0.212,0.9972,0.0443,-0.1284,-0.0159,3383,2019-08-07 16:34:25:682
-6.6098,-5.0738,1.6924,-1.4636,0.212,0.9972,0.0443,-0.1284,-0.0159,3387,2019-08-07 16:34:25:686
-6.6098,-5.0738,1.6924,-1.3303,0.1605,0.7087,0.0826,0.1816,-0.0223,3393,2019-08-07 16:34:25:692
-6.9495,-4.9497,2.0883,-1.3303,0.1605,0.7087,0.0826,0.1816,-0.0223,3398,2019-08-07 16:34:25:697
-6.9495,-4.9497,2.0883,-1.3303,0.1605,0.7087,0.0826,0.1816,-0.0223,3402,2019-08-07 16:34:25:701
-6.9495,-4.9497,2.0883,-1.3303,0.1605,0.7087,0.106,0.4117,-0.0213,3408,2019-08-07 16:34:25:707
-7.691,-4.816,2.4466,-0.266,-0.047,0.0023,0.106,0.4117,-0.0213,3413,2019-08-07 16:34:25:712
-7.691,-4.816,2.4466,-0.266,-0.047,0.0023,0.1252,0.4319,-0.0181,3418,2019-08-07 16:34:25:717
-8.5522,-4.6776,3.2291,-0.266,-0.047,0.0023,0.1252,0.4319,-0.0181,3423,2019-08-07 16:34:25:722
-8.5522,-4.6776,3.2291,-0.266,-0.047,0.0023,0.1252,0.4319,-0.0181,3427,2019-08-07 16:34:25:726
-8.5522,-4.6776,3.2291,0.6296,-0.2125,-0.8871,0.122,0.2412,-0.0085,3433,2019-08-07 16:34:25:732
-8.8201,-4.5296,3.4412,0.6296,-0.2125,-0.8871,0.122,0.2412,-0.0085,3437,2019-08-07 16:34:25:736
-8.8201,-4.5296,3.4412,0.6296,-0.2125,-0.8871,0.1039,-0.0091,0.0,3443,2019-08-07 16:34:25:742
-8.8201,-4.5296,3.4412,0.6296,-0.2125,-0.8871,0.1039,-0.0091,0.0,3448,2019-08-07 16:34:25:747
-8.5952,-4.4675,3.1254,0.3383,-0.3214,-0.5688,0.0805,-0.2595,0.0203,3452,2019-08-07 16:34:25:751
-8.5952,-4.4675,3.1254,0.3383,-0.3214,-0.5688,0.0805,-0.2595,0.0203,3458,2019-08-07 16:34:25:757
-8.0833,-4.563,3.0971,0.3383,-0.3214,-0.5688,0.073,-0.4075,0.0299,3462,2019-08-07 16:34:25:761
-8.0833,-4.563,3.0971,0.3383,-0.3214,-0.5688,0.073,-0.4075,0.0299,3468,2019-08-07 16:34:25:767
-8.0833,-4.563,3.0971,-0.3892,-0.3109,-0.0381,0.0805,-0.4682,0.0256,3473,2019-08-07 16:34:25:772
-7.4949,-4.4675,2.5126,-0.3892,-0.3109,-0.0381,0.0805,-0.4682,0.0256,3478,2019-08-07 16:34:25:777
-7.4949,-4.4675,2.5126,-0.3892,-0.3109,-0.0381,0.0698,-0.399,0.0096,3482,2019-08-07 16:34:25:781
-7.4949,-4.4675,2.5126,-0.3892,-0.3109,-0.0381,0.0698,-0.399,0.0096,3488,2019-08-07 16:34:25:787
-7.1073,-4.4293,2.1685,-0.9616,-0.4162,0.5421,0.0528,-0.2254,-0.0181,3493,2019-08-07 16:34:25:792
-7.1073,-4.4293,2.1685,-0.9616,-0.4162,0.5421,0.0528,-0.2254,-0.0181,3498,2019-08-07 16:34:25:797
-7.1456,-4.4484,2.2298,-0.9616,-0.4162,0.5421,0.0528,-0.2254,-0.0181,3503,2019-08-07 16:34:25:802
-7.1456,-4.4484,2.2298,-0.9616,-0.4162,0.5421,0.0474,0.0409,-0.0351,3508,2019-08-07 16:34:25:807
-7.1456,-4.4484,2.2298,-0.6308,-0.315,0.2831,0.0474,0.0409,-0.0351,3513,2019-08-07 16:34:25:812
-7.6001,-4.4532,2.5456,-0.6308,-0.315,0.2831,0.0485,0.2061,-0.0458,3518,2019-08-07 16:34:25:817
-7.6001,-4.4532,2.5456,-0.6308,-0.315,0.2831,0.0485,0.2061,-0.0458,3522,2019-08-07 16:34:25:821
-8.069,-4.4628,2.786,-0.6308,-0.315,0.2831,0.0389,0.2561,-0.0394,3528,2019-08-07 16:34:25:827
-8.069,-4.4628,2.786,0.2067,-0.4276,-0.2778,0.0389,0.2561,-0.0394,3532,2019-08-07 16:34:25:831
-8.069,-4.4628,2.786,0.2067,-0.4276,-0.2778,0.0144,0.1304,-0.0405,3538,2019-08-07 16:34:25:837
-8.557,-4.4102,3.0877,0.2067,-0.4276,-0.2778,0.0144,0.1304,-0.0405,3543,2019-08-07 16:34:25:842
-8.557,-4.4102,3.0877,0.2067,-0.4276,-0.2778,-0.0069,-0.0581,-0.0309,3548,2019-08-07 16:34:25:847
-8.533,-4.4628,3.0311,0.4208,-0.3528,-0.3408,-0.0069,-0.0581,-0.0309,3553,2019-08-07 16:34:25:852
-8.533,-4.4628,3.0311,0.4208,-0.3528,-0.3408,-0.0069,-0.0581,-0.0309,3558,2019-08-07 16:34:25:857
-8.533,-4.4628,3.0311,0.4208,-0.3528,-0.3408,-0.0218,-0.2392,-0.0128,3563,2019-08-07 16:34:25:862
-8.1647,-4.5153,2.8143,0.4208,-0.3528,-0.3408,-0.0218,-0.2392,-0.0128,3568,2019-08-07 16:34:25:867
-8.1647,-4.5153,2.8143,-0.1908,-0.2716,0.0865,-0.0261,-0.3841,0.0054,3573,2019-08-07 16:34:25:872
-8.1647,-4.5153,2.8143,-0.1908,-0.2716,0.0865,-0.0261,-0.3841,0.0054,3577,2019-08-07 16:34:25:876
-7.8154,-4.5869,2.5362,-0.1908,-0.2716,0.0865,-0.0271,-0.415,0.0128,3583,2019-08-07 16:34:25:882
-7.8154,-4.5869,2.5362,-0.1908,-0.2716,0.0865,-0.0271,-0.415,0.0128,3587,2019-08-07 16:34:25:886
-7.4375,-4.563,2.39,-0.7151,-0.2328,0.498,-0.0165,-0.382,0.0192,3593,2019-08-07 16:34:25:892
-7.4375,-4.563,2.39,-0.7151,-0.2328,0.498,-0.0165,-0.382,0.0192,3598,2019-08-07 16:34:25:897
-7.2413,-4.5535,2.1732,-0.7151,-0.2328,0.498,-0.0069,-0.2765,-0.0053,3602,2019-08-07 16:34:25:901
-7.2413,-4.5535,2.1732,-0.7151,-0.2328,0.498,-0.0069,-0.2765,-0.0053,3608,2019-08-07 16:34:25:907
-7.2413,-4.5535,2.1732,-0.7151,-0.2328,0.498,-0.0079,-0.1188,-0.0277,3612,2019-08-07 16:34:25:911
-7.1935,-4.4962,2.2863,-0.853,-0.327,0.5684,-0.0079,-0.1188,-0.0277,3618,2019-08-07 16:34:25:917
-7.1935,-4.4962,2.2863,-0.853,-0.327,0.5684,-5.0E-4,0.0505,-0.0522,3623,2019-08-07 16:34:25:922
-7.1935,-4.4962,2.2863,-0.7357,-0.3026,0.4317,-5.0E-4,0.0505,-0.0522,3627,2019-08-07 16:34:25:926
-7.5571,-4.5344,2.4654,-0.7357,-0.3026,0.4317,0.0027,0.1762,-0.0639,3633,2019-08-07 16:34:25:932
-7.5571,-4.5344,2.4654,-0.7357,-0.3026,0.4317,0.0027,0.1762,-0.0639,3638,2019-08-07 16:34:25:937
-8.1455,-4.4819,2.8237,-0.7357,-0.3026,0.4317,0.0016,0.1922,-0.0575,3643,2019-08-07 16:34:25:942
-8.1455,-4.4819,2.8237,0.1308,-0.3351,-0.0998,0.0016,0.1922,-0.0575,3648,2019-08-07 16:34:25:947
-8.1455,-4.4819,2.8237,0.1308,-0.3351,-0.0998,0.0016,0.1922,-0.0575,3652,2019-08-07 16:34:25:951
-8.3465,-4.5439,3.0358,0.1308,-0.3351,-0.0998,-0.0026,0.0686,-0.0479,3658,2019-08-07 16:34:25:957
-8.3465,-4.5439,3.0358,0.3691,-0.2593,-0.2197,-0.0026,0.0686,-0.0479,3663,2019-08-07 16:34:25:962
-8.3465,-4.5439,3.0358,0.3691,-0.2593,-0.2197,-0.0058,-0.1093,-0.0458,3668,2019-08-07 16:34:25:967
-8.3465,-4.5726,2.9321,0.3691,-0.2593,-0.2197,-0.0058,-0.1093,-0.0458,3673,2019-08-07 16:34:25:972
-8.3465,-4.5726,2.9321,0.178,-0.3047,-0.0774,-0.0143,-0.2318,-0.0309,3678,2019-08-07 16:34:25:977
-7.9302,-4.5869,2.7624,0.178,-0.3047,-0.0774,-0.0143,-0.2318,-0.0309,3682,2019-08-07 16:34:25:981
-7.9302,-4.5869,2.7624,0.178,-0.3047,-0.0774,-0.0143,-0.2318,-0.0309,3688,2019-08-07 16:34:25:987
-7.9302,-4.5869,2.7624,0.178,-0.3047,-0.0774,-0.025,-0.284,-0.0277,3692,2019-08-07 16:34:25:991
-7.5618,-4.5916,2.5833,-0.4791,-0.2527,0.2647,-0.025,-0.284,-0.0277,3698,2019-08-07 16:34:25:997
-7.5618,-4.5916,2.5833,-0.4791,-0.2527,0.2647,-0.0207,-0.2456,-0.0277,3703,2019-08-07 16:34:26:002
-7.3753,-4.563,2.5362,-0.4791,-0.2527,0.2647,-0.0207,-0.2456,-0.0277,3709,2019-08-07 16:34:26:008
-7.3753,-4.563,2.5362,-0.4791,-0.2527,0.2647,-0.0111,-0.1561,-0.0351,3712,2019-08-07 16:34:26:011
-7.3753,-4.563,2.5362,-0.6313,-0.3551,0.3761,-0.0111,-0.1561,-0.0351,3718,2019-08-07 16:34:26:017
-7.4662,-4.4437,2.5691,-0.6313,-0.3551,0.3761,-0.0069,-0.0219,-0.0618,3722,2019-08-07 16:34:26:021
-7.4662,-4.4437,2.5691,-0.6313,-0.3551,0.3761,-0.0069,-0.0219,-0.0618,3728,2019-08-07 16:34:26:027
-7.6862,-4.3434,2.6399,-0.6313,-0.3551,0.3761,-0.0207,0.0633,-0.0788,3733,2019-08-07 16:34:26:032
-7.6862,-4.3434,2.6399,-0.324,-0.4747,0.1496,-0.0207,0.0633,-0.0788,3738,2019-08-07 16:34:26:037
-7.6862,-4.3434,2.6399,-0.324,-0.4747,0.1496,-0.0314,0.0963,-0.098,3744,2019-08-07 16:34:26:043
-7.9876,-4.3291,2.8567,-0.324,-0.4747,0.1496,-0.0314,0.0963,-0.098,3748,2019-08-07 16:34:26:047
-7.9876,-4.3291,2.8567,-0.324,-0.4747,0.1496,-0.0346,0.0697,-0.1001,3753,2019-08-07 16:34:26:052
-8.1407,-4.3864,3.1207,0.1236,-0.4839,-0.1967,-0.0346,0.0697,-0.1001,3758,2019-08-07 16:34:26:057
-8.1407,-4.3864,3.1207,0.1236,-0.4839,-0.1967,-0.0346,0.0697,-0.1001,3763,2019-08-07 16:34:26:062
-8.1407,-4.3864,3.1207,0.1236,-0.4839,-0.1967,-0.0399,-0.0102,-0.1044,3767,2019-08-07 16:34:26:066
-8.2077,-4.458,2.9793,0.1236,-0.4839,-0.1967,-0.0399,-0.0102,-0.1044,3773,2019-08-07 16:34:26:072
-8.2077,-4.458,2.9793,0.1815,-0.423,-0.1195,-0.0293,-0.1359,-0.1012,3778,2019-08-07 16:34:26:077
-8.2077,-4.458,2.9793,0.1815,-0.423,-0.1195,-0.0293,-0.1359,-0.1012,3782,2019-08-07 16:34:26:081
-7.9828,-4.5391,2.8614,0.1815,-0.423,-0.1195,-0.0143,-0.2477,-0.0788,3788,2019-08-07 16:34:26:087
-7.9828,-4.5391,2.8614,0.1815,-0.423,-0.1195,-0.0143,-0.2477,-0.0788,3792,2019-08-07 16:34:26:091
-7.9828,-4.5391,2.8614,-0.2435,-0.3022,0.1779,-0.0143,-0.2477,-0.0788,3798,2019-08-07 16:34:26:097
-7.6767,-4.6251,2.7388,-0.2435,-0.3022,0.1779,0.0027,-0.2989,-0.0618,3803,2019-08-07 16:34:26:102
-7.6767,-4.6251,2.7388,-0.2435,-0.3022,0.1779,0.0091,-0.3159,-0.0383,3808,2019-08-07 16:34:26:107
-7.3609,-4.6728,2.6069,-0.2435,-0.3022,0.1779,0.0091,-0.3159,-0.0383,3813,2019-08-07 16:34:26:112
-7.3609,-4.6728,2.6069,-0.7515,-0.2051,0.4445,0.0091,-0.3159,-0.0383,3817,2019-08-07 16:34:26:116
-7.3609,-4.6728,2.6069,-0.7515,-0.2051,0.4445,0.0261,-0.2722,-0.0287,3823,2019-08-07 16:34:26:122
-7.136,-4.668,2.489,-0.7515,-0.2051,0.4445,0.0261,-0.2722,-0.0287,3828,2019-08-07 16:34:26:127
-7.136,-4.668,2.489,-0.7515,-0.2051,0.4445,0.0261,-0.2062,-0.0255,3833,2019-08-07 16:34:26:132
-7.0308,-4.4532,2.5409,-0.9165,-0.4623,0.4448,0.0261,-0.2062,-0.0255,3838,2019-08-07 16:34:26:137
-7.0308,-4.4532,2.5409,-0.9165,-0.4623,0.4448,0.0293,-0.0805,-0.017,3842,2019-08-07 16:34:26:141
-7.0308,-4.4532,2.5409,-0.9165,-0.4623,0.4448,0.0293,-0.0805,-0.017,3848,2019-08-07 16:34:26:147
-7.0069,-4.5296,2.6069,-0.9165,-0.4623,0.4448,0.0325,0.0356,-0.0309,3853,2019-08-07 16:34:26:152
-7.0069,-4.5296,2.6069,-0.6963,-0.4604,0.3212,0.0325,0.0356,-0.0309,3858,2019-08-07 16:34:26:157
-7.447,-4.4914,2.8143,-0.6963,-0.4604,0.3212,0.0347,0.1358,-0.0351,3863,2019-08-07 16:34:26:162
-7.447,-4.4914,2.8143,-0.6963,-0.4604,0.3212,0.0347,0.1358,-0.0351,3867,2019-08-07 16:34:26:166
-7.447,-4.4914,2.8143,-0.6963,-0.4604,0.3212,0.0336,0.1379,-0.0213,3873,2019-08-07 16:34:26:172
-7.9063,-4.458,3.0264,0.0106,-0.4899,-0.0307,0.0336,0.1379,-0.0213,3877,2019-08-07 16:34:26:176
-7.9063,-4.458,3.0264,0.0106,-0.4899,-0.0307,0.0293,0.0399,-0.0117,3883,2019-08-07 16:34:26:182
-8.1646,-4.458,3.1584,0.0106,-0.4899,-0.0307,0.0293,0.0399,-0.0117,3887,2019-08-07 16:34:26:186
-8.1646,-4.458,3.1584,0.0106,-0.4899,-0.0307,0.0293,0.0399,-0.0117,3893,2019-08-07 16:34:26:192
-8.1646,-4.458,3.1584,0.1377,-0.4386,-0.1152,0.0155,-0.0816,0.0,3898,2019-08-07 16:34:26:197
-8.0163,-4.4675,3.0641,0.1377,-0.4386,-0.1152,0.0155,-0.0816,0.0,3903,2019-08-07 16:34:26:202
-8.0163,-4.4675,3.0641,0.1377,-0.4386,-0.1152,0.007,-0.1806,0.0086,3908,2019-08-07 16:34:26:207
-7.7771,-4.5678,2.8897,0.1377,-0.4386,-0.1152,0.007,-0.1806,0.0086,3913,2019-08-07 16:34:26:212
-7.7771,-4.5678,2.8897,-0.2934,-0.325,0.1318,-0.0037,-0.2307,0.016,3917,2019-08-07 16:34:26:216
-7.7771,-4.5678,2.8897,-0.2934,-0.325,0.1318,-0.0037,-0.2307,0.016,3923,2019-08-07 16:34:26:222
-7.581,-4.6203,2.8331,-0.2934,-0.325,0.1318,-0.0069,-0.2222,0.0267,3927,2019-08-07 16:34:26:226
-7.581,-4.6203,2.8331,-0.2934,-0.325,0.1318,-0.0069,-0.2222,0.0267,3933,2019-08-07 16:34:26:232
-7.4135,-4.668,2.7436,-0.517,-0.2403,0.298,-0.0101,-0.1998,0.0288,3938,2019-08-07 16:34:26:237
-7.4135,-4.668,2.7436,-0.517,-0.2403,0.298,-0.0101,-0.1998,0.0288,3943,2019-08-07 16:34:26:242
-7.4135,-4.668,2.7436,-0.517,-0.2403,0.298,-0.0218,-0.154,0.0256,3948,2019-08-07 16:34:26:247
-7.3178,-4.6489,2.7341,-0.517,-0.2403,0.298,-0.0218,-0.154,0.0256,3953,2019-08-07 16:34:26:252
-7.3178,-4.6489,2.7341,-0.7788,-0.2573,0.4682,-0.0229,-0.0752,0.0213,3958,2019-08-07 16:34:26:257
-7.1552,-4.6824,2.6351,-0.7788,-0.2573,0.4682,-0.0229,-0.0752,0.0213,3963,2019-08-07 16:34:26:262
-7.1552,-4.6824,2.6351,-0.7788,-0.2573,0.4682,-0.0218,0.025,0.0139,3967,2019-08-07 16:34:26:266
-7.1552,-4.6824,2.6351,-0.7788,-0.2573,0.4682,-0.0218,0.025,0.0139,3973,2019-08-07 16:34:26:272
-7.2174,-4.5917,2.8048,-0.7788,-0.2573,0.4682,-0.0282,0.1059,0.0075,3978,2019-08-07 16:34:26:277
-7.2174,-4.5917,2.8048,-0.5859,-0.3057,0.2229,-0.0282,0.1059,0.0075,3982,2019-08-07 16:34:26:281
-7.2174,-4.5917,2.8048,-0.5859,-0.3057,0.2229,-0.0261,0.1901,0.0149,3988,2019-08-07 16:34:26:287
-7.6719,-4.5248,3.0122,-0.5859,-0.3057,0.2229,-0.0261,0.1901,0.0149,3993,2019-08-07 16:34:26:292
-7.6719,-4.5248,3.0122,-0.5859,-0.3057,0.2229,-0.0261,0.1901,0.0149,3997,2019-08-07 16:34:26:296
-7.6719,-4.5248,3.0122,-0.063,-0.3278,-0.1191,-0.0293,0.1794,0.0192,4002,2019-08-07 16:34:26:301
-7.9828,-4.5582,3.1867,-0.063,-0.3278,-0.1191,-0.0293,0.1794,0.0192,4008,2019-08-07 16:34:26:307
-7.9828,-4.5582,3.1867,-0.063,-0.3278,-0.1191,-0.0378,0.0963,0.0181,4013,2019-08-07 16:34:26:312
-8.112,-4.6012,3.2055,-0.063,-0.3278,-0.1191,-0.0378,0.0963,0.0181,4017,2019-08-07 16:34:26:316
-8.112,-4.6012,3.2055,0.1814,-0.3003,-0.1233,-0.0399,-0.0272,0.0213,4023,2019-08-07 16:34:26:322
-8.112,-4.6012,3.2055,0.1814,-0.3003,-0.1233,-0.0399,-0.0272,0.0213,4028,2019-08-07 16:34:26:327
-8.0163,-4.6489,2.9745,0.1814,-0.3003,-0.1233,-0.0388,-0.1178,0.0224,4033,2019-08-07 16:34:26:332
-8.0163,-4.6489,2.9745,0.1814,-0.3003,-0.1233,-0.0388,-0.1178,0.0224,4038,2019-08-07 16:34:26:337
-7.6288,-4.668,2.918,-0.2367,-0.2495,0.1393,-0.0356,-0.1519,0.032,4043,2019-08-07 16:34:26:342
-7.6288,-4.668,2.918,-0.2367,-0.2495,0.1393,-0.0356,-0.1519,0.032,4048,2019-08-07 16:34:26:347
-7.6288,-4.668,2.918,-0.2367,-0.2495,0.1393,-0.0207,-0.1103,0.0224,4052,2019-08-07 16:34:26:351
-7.4279,-4.7253,2.8284,-0.2367,-0.2495,0.1393,-0.0207,-0.1103,0.0224,4058,2019-08-07 16:34:26:357
-7.4279,-4.7253,2.8284,-0.4659,-0.0707,0.3119,-0.0058,-0.0517,0.0224,4063,2019-08-07 16:34:26:362
-7.4709,-4.7492,2.7341,-0.4659,-0.0707,0.3119,-0.0058,-0.0517,0.0224,4067,2019-08-07 16:34:26:366
-7.4709,-4.7492,2.7341,-0.4659,-0.0707,0.3119,0.0166,0.0122,0.0117,4073,2019-08-07 16:34:26:372
-7.4709,-4.7492,2.7341,-0.4659,-0.0707,0.3119,0.0166,0.0122,0.0117,4077,2019-08-07 16:34:26:376
-7.5762,-4.7635,2.8661,-0.366,-0.1307,0.1679,0.0389,0.0591,0.0086,4083,2019-08-07 16:34:26:382
-7.5762,-4.7635,2.8661,-0.366,-0.1307,0.1679,0.0389,0.0591,0.0086,4087,2019-08-07 16:34:26:386
-7.7054,-4.52,3.0452,-0.366,-0.1307,0.1679,0.0421,0.0665,0.0117,4093,2019-08-07 16:34:26:392
-7.7054,-4.52,3.0452,-0.366,-0.1307,0.1679,0.0421,0.0665,0.0117,4098,2019-08-07 16:34:26:397
-7.7054,-4.52,3.0452,-0.2563,-0.3786,0.0446,0.0421,0.0665,0.0117,4103,2019-08-07 16:34:26:402
-7.6958,-4.5391,2.9463,-0.2563,-0.3786,0.0446,0.0379,0.0399,0.0117,4108,2019-08-07 16:34:26:407
-7.6958,-4.5391,2.9463,-0.2563,-0.3786,0.0446,0.0379,0.0399,0.0117,4112,2019-08-07 16:34:26:411
-7.6825,-4.5677,2.9696,-0.2563,-0.3786,0.0446,0.0336,0.0207,0.0128,4118,2019-08-07 16:34:26:417
-7.6825,-4.5677,2.9696,-0.3021,-0.3256,-0.0174,0.0336,0.0207,0.0128,4122,2019-08-07 16:34:26:421
-7.6825,-4.5677,2.9696,-0.3021,-0.3256,-0.0174,0.0336,-0.0017,0.0213,4128,2019-08-07 16:34:26:427
-7.649,-4.5152,2.913,-0.3021,-0.3256,-0.0174,0.0336,-0.0017,0.0213,4133,2019-08-07 16:34:26:432
-7.649,-4.5152,2.913,-0.3021,-0.3256,-0.0174,0.0368,-0.0123,0.0213,4138,2019-08-07 16:34:26:437
-7.5964,-4.4579,3.0073,-0.3185,-0.3715,-0.0312,0.0368,-0.0123,0.0213,4142,2019-08-07 16:34:26:441
-7.5964,-4.4579,3.0073,-0.3185,-0.3715,-0.0312,0.0368,-0.0123,0.0213,4148,2019-08-07 16:34:26:447
-7.5964,-4.4579,3.0073,-0.3185,-0.3715,-0.0312,0.0283,-0.0304,0.0235,4153,2019-08-07 16:34:26:452
-7.5581,-4.5056,2.946,-0.3185,-0.3715,-0.0312,0.0283,-0.0304,0.0235,4158,2019-08-07 16:34:26:457
-7.5581,-4.5056,2.946,-0.3628,-0.3887,0.0845,0.0251,-0.0144,0.0235,4162,2019-08-07 16:34:26:461
-7.5581,-4.5056,2.946,-0.3628,-0.3887,0.0845,0.0251,-0.0144,0.0235,4168,2019-08-07 16:34:26:467
-7.6682,-4.5008,2.9696,-0.3628,-0.3887,0.0845,0.0251,-0.0144,0.0235,4172,2019-08-07 16:34:26:471
-7.6682,-4.5008,2.9696,-0.3628,-0.3887,0.0845,0.024,0.0058,0.0203,4178,2019-08-07 16:34:26:477
-7.7543,-4.4865,2.9743,-0.2029,-0.3779,0.0681,0.024,0.0058,0.0203,4183,2019-08-07 16:34:26:482
-7.7543,-4.4865,2.9743,-0.2029,-0.3779,0.0681,0.0091,-0.0027,0.0149,4188,2019-08-07 16:34:26:487
-7.7543,-4.4865,2.9743,-0.2029,-0.3779,0.0681,0.0091,-0.0027,0.0149,4193,2019-08-07 16:34:26:492
-7.7734,-4.4626,2.9554,-0.2029,-0.3779,0.0681,0.007,-0.024,0.0128,4198,2019-08-07 16:34:26:497
-7.7734,-4.4626,2.9554,-0.3002,-0.3161,0.1937,0.007,-0.024,0.0128,4202,2019-08-07 16:34:26:501
-7.6443,-4.5104,2.8565,-0.3002,-0.3161,0.1937,0.0016,-0.0176,0.0032,4208,2019-08-07 16:34:26:507
-7.6443,-4.5104,2.8565,-0.3002,-0.3161,0.1937,0.0016,-0.0176,0.0032,4212,2019-08-07 16:34:26:511
-7.6443,-4.5104,2.8565,-0.3002,-0.3161,0.1937,0.0016,-0.0176,0.0032,4218,2019-08-07 16:34:26:517
-7.6443,-4.4817,2.9366,-0.4007,-0.3574,0.1913,0.0016,0.0015,0.0032,4222,2019-08-07 16:34:26:521
-7.6443,-4.4817,2.9366,-0.4007,-0.3574,0.1913,0.0016,0.0015,0.0032,4228,2019-08-07 16:34:26:527
-7.5391,-4.5104,2.8187,-0.4007,-0.3574,0.1913,-0.0016,0.0228,0.0075,4232,2019-08-07 16:34:26:531
-7.5391,-4.5104,2.8187,-0.4007,-0.3574,0.1913,-0.0016,0.0228,0.0075,4238,2019-08-07 16:34:26:537
-7.5391,-4.5104,2.8187,-0.4509,-0.3562,0.2296,-0.0101,0.042,0.0053,4243,2019-08-07 16:34:26:542
-7.5152,-4.4531,2.8942,-0.4509,-0.3562,0.2296,-0.0101,0.042,0.0053,4247,2019-08-07 16:34:26:546
-7.5152,-4.4531,2.8942,-0.4509,-0.3562,0.2296,-0.0122,0.0495,0.0128,4253,2019-08-07 16:34:26:552
-7.6061,-4.5008,2.9272,-0.4509,-0.3562,0.2296,-0.0122,0.0495,0.0128,4258,2019-08-07 16:34:26:557
-7.6061,-4.5008,2.9272,-0.2887,-0.4058,0.0509,-0.009,0.0623,0.0235,4262,2019-08-07 16:34:26:561
-7.6061,-4.5008,2.9272,-0.2887,-0.4058,0.0509,-0.009,0.0623,0.0235,4268,2019-08-07 16:34:26:567
-7.7927,-4.4197,3.0403,-0.2887,-0.4058,0.0509,-0.0101,0.0346,0.0267,4272,2019-08-07 16:34:26:571
-7.7927,-4.4197,3.0403,-0.2887,-0.4058,0.0509,-0.0101,0.0346,0.0267,4278,2019-08-07 16:34:26:577
-7.7927,-4.4197,3.0403,-0.1174,-0.4291,0.049,-0.0261,-0.0081,0.0288,4282,2019-08-07 16:34:26:581
-7.831,-4.4244,2.9601,-0.1174,-0.4291,0.049,-0.0261,-0.0081,0.0288,4288,2019-08-07 16:34:26:587
-7.831,-4.4244,2.9601,-0.1174,-0.4291,0.049,-0.0314,-0.0283,0.0384,4293,2019-08-07 16:34:26:592
-7.7448,-4.4865,2.8894,-0.1174,-0.4291,0.049,-0.0314,-0.0283,0.0384,4298,2019-08-07 16:34:26:597
-7.7448,-4.4865,2.8894,-0.2925,-0.3046,0.1487,-0.0314,-0.0283,0.0384,4302,2019-08-07 16:34:26:601
-7.7448,-4.4865,2.8894,-0.2925,-0.3046,0.1487,-0.0218,-0.0059,0.0267,4308,2019-08-07 16:34:26:607
-7.7592,-4.4961,2.8706,-0.2925,-0.3046,0.1487,-0.0218,-0.0059,0.0267,4313,2019-08-07 16:34:26:612
-7.7592,-4.4961,2.8706,-0.2925,-0.3046,0.1487,-0.0292,0.0207,0.0085,4318,2019-08-07 16:34:26:617
-7.7879,-4.4817,2.913,-0.1903,-0.3591,0.112,-0.0292,0.0207,0.0085,4323,2019-08-07 16:34:26:622
-7.7879,-4.4817,2.913,-0.1903,-0.3591,0.112,-0.0292,0.0207,0.0085,4327,2019-08-07 16:34:26:626
-7.7879,-4.4817,2.913,-0.1903,-0.3591,0.112,-0.0335,0.026,-0.0021,4333,2019-08-07 16:34:26:632
-7.7449,-4.5295,2.9978,-0.1903,-0.3591,0.112,-0.0335,0.026,-0.0021,4337,2019-08-07 16:34:26:636
-7.7449,-4.5295,2.9978,-0.1903,-0.3591,0.112,-0.0346,0.0537,-0.0085,4343,2019-08-07 16:34:26:642
-7.7449,-4.5295,2.9978,-0.1786,-0.3033,0.1403,-0.0346,0.0537,-0.0085,4348,2019-08-07 16:34:26:647
-7.8454,-4.5486,2.9318,-0.1786,-0.3033,0.1403,-0.0335,0.0686,-0.0202,4353,2019-08-07 16:34:26:652
-7.8454,-4.5486,2.9318,-0.1786,-0.3033,0.1403,-0.0335,0.0686,-0.0202,4358,2019-08-07 16:34:26:657
-7.8789,-4.5247,2.9743,-0.1786,-0.3033,0.1403,-0.041,0.0612,-0.0255,4362,2019-08-07 16:34:26:661
-7.8789,-4.5247,2.9743,-0.1525,-0.3028,0.0181,-0.041,0.0612,-0.0255,4368,2019-08-07 16:34:26:667
-7.8789,-4.5247,2.9743,-0.1525,-0.3028,0.0181,-0.0431,0.0388,-0.0213,4373,2019-08-07 16:34:26:672
-7.7449,-4.5677,3.0167,-0.239,-0.2814,-0.0201,-0.0431,0.0388,-0.0213,4378,2019-08-07 16:34:26:677
-7.7449,-4.5677,3.0167,-0.239,-0.2814,-0.0201,-0.042,0.026,-0.017,4383,2019-08-07 16:34:26:682
-7.7449,-4.5677,3.0167,-0.239,-0.2814,-0.0201,-0.042,0.026,-0.017,4388,2019-08-07 16:34:26:687
-7.6588,-4.6393,3.0544,-0.2581,-0.2524,-0.0272,-0.0335,0.025,-0.016,4393,2019-08-07 16:34:26:692
-7.6588,-4.6393,3.0544,-0.2581,-0.2524,-0.0272,-0.0335,0.025,-0.016,4398,2019-08-07 16:34:26:697
-7.7354,-4.5915,3.0167,-0.2581,-0.2524,-0.0272,-0.0335,0.0101,-0.016,4402,2019-08-07 16:34:26:701
-7.7354,-4.5915,3.0167,-0.2581,-0.2524,-0.0272,-0.0335,0.0101,-0.016,4408,2019-08-07 16:34:26:707
-7.7354,-4.5915,3.0167,-0.2581,-0.2524,-0.0272,-0.0335,-0.0134,-0.0085,4413,2019-08-07 16:34:26:712
-7.7832,-4.6011,2.9601,-0.1998,-0.2554,0.027,-0.0335,-0.0134,-0.0085,4417,2019-08-07 16:34:26:716
-7.7832,-4.6011,2.9601,-0.1998,-0.2554,0.027,-0.0324,-0.0315,-0.0064,4423,2019-08-07 16:34:26:722
-7.7019,-4.6011,2.9837,-0.1998,-0.2554,0.027,-0.0324,-0.0315,-0.0064,4427,2019-08-07 16:34:26:726
-7.7019,-4.6011,2.9837,-0.1998,-0.2554,0.027,-0.0271,-0.0368,-0.0096,4433,2019-08-07 16:34:26:732
-7.7019,-4.6011,2.9837,-0.2931,-0.2863,0.0296,-0.0271,-0.0368,-0.0096,4438,2019-08-07 16:34:26:737
-7.6924,-4.5629,2.9271,-0.2931,-0.2863,0.0296,-0.0261,-0.0294,-0.0128,4443,2019-08-07 16:34:26:742
-7.6924,-4.5629,2.9271,-0.2931,-0.2863,0.0296,-0.0261,-0.0294,-0.0128,4448,2019-08-07 16:34:26:747
-7.678,-4.5247,2.8753,-0.2931,-0.2863,0.0296,-0.0282,-0.007,-0.0181,4452,2019-08-07 16:34:26:751
-7.678,-4.5247,2.8753,-0.3242,-0.3703,0.2008,-0.0282,-0.007,-0.0181,4458,2019-08-07 16:34:26:757
-7.678,-4.5247,2.8753,-0.3242,-0.3703,0.2008,-0.0335,0.0228,-0.0277,4463,2019-08-07 16:34:26:762
-7.7067,-4.5724,2.7904,-0.3242,-0.3703,0.2008,-0.0335,0.0228,-0.0277,4468,2019-08-07 16:34:26:767
-7.7067,-4.5724,2.7904,-0.3242,-0.3703,0.2008,-0.0378,0.0356,-0.0383,4472,2019-08-07 16:34:26:771
-7.7067,-4.5724,2.7904,-0.2133,-0.3285,0.104,-0.0378,0.0356,-0.0383,4478,2019-08-07 16:34:26:777
-7.7642,-4.6011,2.8894,-0.2133,-0.3285,0.104,-0.0367,0.0335,-0.0394,4482,2019-08-07 16:34:26:781
-7.7642,-4.6011,2.8894,-0.2133,-0.3285,0.104,-0.0367,0.0335,-0.0394,4488,2019-08-07 16:34:26:787
-7.7546,-4.6202,2.8705,-0.2133,-0.3285,0.104,-0.0431,0.0324,-0.0405,4493,2019-08-07 16:34:26:792
-7.7546,-4.6202,2.8705,-0.2694,-0.279,0.104,-0.0431,0.0324,-0.0405,4497,2019-08-07 16:34:26:796
-7.7546,-4.6202,2.8705,-0.2694,-0.279,0.104,-0.0431,0.0324,-0.0405,4502,2019-08-07 16:34:26:801
-7.6398,-4.6583,2.8988,-0.2694,-0.279,0.104,-0.0431,0.0218,-0.0394,4508,2019-08-07 16:34:26:807
-7.6398,-4.6583,2.8988,-0.2694,-0.279,0.104,-0.0431,0.0218,-0.0394,4512,2019-08-07 16:34:26:811
-7.6159,-4.6727,2.88,-0.3579,-0.211,0.0872,-0.0431,0.0133,-0.0287,4518,2019-08-07 16:34:26:817
-7.6159,-4.6727,2.88,-0.3579,-0.211,0.0872,-0.0431,0.0133,-0.0287,4522,2019-08-07 16:34:26:821
-7.6159,-4.6727,2.88,-0.3579,-0.211,0.0872,-0.0388,5.0E-4,-0.0202,4528,2019-08-07 16:34:26:827
-7.6255,-4.687,2.9601,-0.3579,-0.211,0.0872,-0.0388,5.0E-4,-0.0202,4533,2019-08-07 16:34:26:832
-7.6255,-4.687,2.9601,-0.3178,-0.2542,0.1169,-0.0314,-0.0123,-0.0106,4537,2019-08-07 16:34:26:836
-7.6351,-4.6297,2.8281,-0.3178,-0.2542,0.1169,-0.0282,-0.0208,0.0,4543,2019-08-07 16:34:26:842
-7.6351,-4.6297,2.8281,-0.3178,-0.2542,0.1169,-0.0282,-0.0208,0.0,4547,2019-08-07 16:34:26:846
-7.6351,-4.6297,2.8281,-0.3077,-0.3457,0.131,-0.0282,-0.0208,0.0,4553,2019-08-07 16:34:26:852
-7.659,-4.5151,2.9601,-0.3077,-0.3457,0.131,-0.0282,-0.0208,0.0,4558,2019-08-07 16:34:26:857
-7.659,-4.5151,2.9601,-0.3077,-0.3457,0.131,-0.0324,-0.0283,0.0022,4563,2019-08-07 16:34:26:862
-7.659,-4.5151,2.9601,-0.3594,-0.375,0.2079,-0.0324,-0.0283,0.0022,4567,2019-08-07 16:34:26:866
-7.6255,-4.5438,2.7291,-0.3594,-0.375,0.2079,-0.0261,-0.0187,-0.0053,4573,2019-08-07 16:34:26:872
-7.6255,-4.5438,2.7291,-0.3594,-0.375,0.2079,-0.0261,-0.0187,-0.0053,4577,2019-08-07 16:34:26:876
-7.7164,-4.5485,2.7291,-0.2633,-0.3329,0.2828,-0.0218,0.0026,-0.0128,4582,2019-08-07 16:34:26:881
-7.7164,-4.5485,2.7291,-0.2633,-0.3329,0.2828,-0.0218,0.0026,-0.0128,4588,2019-08-07 16:34:26:887
-7.7164,-4.5485,2.7291,-0.2633,-0.3329,0.2828,-0.0122,0.0356,-0.0277,4593,2019-08-07 16:34:26:892
-7.7978,-4.5629,2.8234,-0.144,-0.3983,0.1116,-0.0122,0.0356,-0.0277,4598,2019-08-07 16:34:26:897
-7.7978,-4.5629,2.8234,-0.144,-0.3983,0.1116,-0.0175,0.0388,-0.0362,4602,2019-08-07 16:34:26:901
-7.7978,-4.5629,2.8234,-0.144,-0.3983,0.1116,-0.0175,0.0388,-0.0362,4608,2019-08-07 16:34:26:907
-7.8695,-4.5247,2.7998,-0.1009,-0.3722,0.1546,-0.0239,0.0335,-0.0405,4612,2019-08-07 16:34:26:911
-7.8695,-4.5247,2.7998,-0.1009,-0.3722,0.1546,-0.0239,0.0335,-0.0405,4618,2019-08-07 16:34:26:917
-7.8122,-4.6297,2.8894,-0.1009,-0.3722,0.1546,-0.0261,0.0207,-0.0373,4623,2019-08-07 16:34:26:922
-7.8122,-4.6297,2.8894,-0.1425,-0.264,0.0019,-0.0261,0.0207,-0.0373,4627,2019-08-07 16:34:26:926
-7.8122,-4.6297,2.8894,-0.1425,-0.264,0.0019,-0.0207,0.009,-0.0362,4632,2019-08-07 16:34:26:931
-7.7691,-4.601,2.9412,-0.1425,-0.264,0.0019,-0.0207,0.009,-0.0362,4637,2019-08-07 16:34:26:936
-7.7691,-4.601,2.9412,-0.1425,-0.264,0.0019,-0.0207,-0.0357,-0.033,4643,2019-08-07 16:34:26:942
-7.7165,-4.6201,2.8846,-0.2585,-0.3077,0.0921,-0.0207,-0.0357,-0.033,4647,2019-08-07 16:34:26:946
-7.7165,-4.6201,2.8846,-0.2585,-0.3077,0.0921,-0.0218,-0.0666,-0.0202,4653,2019-08-07 16:34:26:952
-7.7165,-4.6201,2.8846,-0.2585,-0.3077,0.0921,-0.0218,-0.0666,-0.0202,4657,2019-08-07 16:34:26:956
-7.5443,-4.6536,2.7762,-0.4183,-0.2573,0.1761,-0.0218,-0.0666,-0.0202,4663,2019-08-07 16:34:26:962
-7.5443,-4.6536,2.7762,-0.4183,-0.2573,0.1761,-0.0314,-0.0869,-0.0053,4668,2019-08-07 16:34:26:967
-7.4438,-4.6154,2.8422,-0.4183,-0.2573,0.1761,-0.0314,-0.0869,-0.0053,4672,2019-08-07 16:34:26:971
-7.4438,-4.6154,2.8422,-0.5146,-0.2728,0.1384,-0.0122,-0.0571,0.0107,4679,2019-08-07 16:34:26:978
-7.4438,-4.6154,2.8422,-0.5146,-0.2728,0.1384,-0.0122,-0.0571,0.0107,4683,2019-08-07 16:34:26:982
-7.4151,-4.644,2.7291,-0.5146,-0.2728,0.1384,0.0166,-0.0112,0.0075,4688,2019-08-07 16:34:26:987
-7.4151,-4.644,2.7291,-0.5146,-0.2728,0.1384,0.0166,-0.0112,0.0075,4693,2019-08-07 16:34:26:992
-7.5921,-4.539,2.8234,-0.5146,-0.2728,0.1384,0.007,0.0015,0.0139,4698,2019-08-07 16:34:26:997
-7.5921,-4.539,2.8234,-0.2903,-0.3896,0.1506,0.007,0.0015,0.0139,4702,2019-08-07 16:34:27:001
-7.5921,-4.539,2.8234,-0.2903,-0.3896,0.1506,0.007,0.0015,0.0139,4708,2019-08-07 16:34:27:007
-7.5826,-4.5247,2.7762,-0.2903,-0.3896,0.1506,-0.0058,0.0101,0.0288,4713,2019-08-07 16:34:27:012
-7.5826,-4.5247,2.7762,-0.2903,-0.3896,0.1506,-0.0058,0.0101,0.0288,4717,2019-08-07 16:34:27:016
-7.7453,-4.601,2.6442,-0.289,-0.3326,0.2193,0.0112,0.0452,0.0139,4723,2019-08-07 16:34:27:022
-7.7453,-4.601,2.6442,-0.289,-0.3326,0.2193,0.0112,0.0452,0.0139,4727,2019-08-07 16:34:27:026
-7.7453,-4.601,2.6442,-0.289,-0.3326,0.2193,-0.0207,0.0697,0.0085,4733,2019-08-07 16:34:27:032
-7.7549,-4.5342,2.7479,-0.289,-0.3326,0.2193,-0.0207,0.0697,0.0085,4738,2019-08-07 16:34:27:037
-7.7549,-4.5342,2.7479,-0.2038,-0.3017,0.0425,-0.0218,0.0761,-0.0032,4743,2019-08-07 16:34:27:042
-7.7884,-4.6631,2.8281,-0.2038,-0.3017,0.0425,-0.0218,0.0761,-0.0032,4747,2019-08-07 16:34:27:046
-7.7884,-4.6631,2.8281,-0.2038,-0.3017,0.0425,-0.0218,0.0761,-0.0032,4753,2019-08-07 16:34:27:052
-7.7884,-4.6631,2.8281,-0.2038,-0.3017,0.0425,-0.0111,0.0868,-0.0117,4758,2019-08-07 16:34:27:057
-7.8075,-4.7777,2.7715,-0.1557,-0.1793,0.1782,-0.0111,0.0868,-0.0117,4763,2019-08-07 16:34:27:062
-7.8075,-4.7777,2.7715,-0.1557,-0.1793,0.1782,-0.0133,0.0804,-0.0053,4767,2019-08-07 16:34:27:066
-7.8745,-4.7252,2.9695,-0.1557,-0.1793,0.1782,-0.0133,0.0804,-0.0053,4773,2019-08-07 16:34:27:072
-7.8745,-4.7252,2.9695,-0.1557,-0.1793,0.1782,-0.0047,0.0463,0.0,4778,2019-08-07 16:34:27:077
-7.8745,-4.7252,2.9695,-0.1165,-0.1512,-0.0549,-0.0047,0.0463,0.0,4783,2019-08-07 16:34:27:082
-7.8458,-4.854,2.9223,-0.1165,-0.1512,-0.0549,0.024,-6.0E-4,-0.001,4788,2019-08-07 16:34:27:087
-7.8458,-4.854,2.9223,-0.1165,-0.1512,-0.0549,0.024,-6.0E-4,-0.001,4793,2019-08-07 16:34:27:092
-7.7262,-4.7681,2.8658,-0.1165,-0.1512,-0.0549,0.0293,-0.0368,-0.0064,4798,2019-08-07 16:34:27:097
-7.7262,-4.7681,2.8658,-0.2354,-0.1265,0.1086,0.0293,-0.0368,-0.0064,4803,2019-08-07 16:34:27:102
-7.7262,-4.7681,2.8658,-0.2354,-0.1265,0.1086,0.0293,-0.0368,-0.0064,4807,2019-08-07 16:34:27:106
-7.6879,-4.7013,2.7856,-0.2354,-0.1265,0.1086,0.0272,-0.0485,-0.0106,4813,2019-08-07 16:34:27:112
-7.6879,-4.7013,2.7856,-0.2354,-0.1265,0.1086,0.0272,-0.0485,-0.0106,4818,2019-08-07 16:34:27:117
-7.6879,-4.7013,2.7856,-0.3752,-0.203,0.1045,0.0432,-0.0294,-0.0106,4822,2019-08-07 16:34:27:121
-7.5731,-4.7013,2.8846,-0.3752,-0.203,0.1045,0.0432,-0.0294,-0.0106,4828,2019-08-07 16:34:27:127
-7.5731,-4.7013,2.8846,-0.3752,-0.203,0.1045,0.0528,0.0069,-0.017,4833,2019-08-07 16:34:27:132
-7.6401,-4.7251,2.7762,-0.3752,-0.203,0.1045,0.0528,0.0069,-0.017,4838,2019-08-07 16:34:27:137
-7.6401,-4.7251,2.7762,-0.2587,-0.2839,0.1802,0.0517,0.0314,-0.0287,4842,2019-08-07 16:34:27:141
-7.6401,-4.7251,2.7762,-0.2587,-0.2839,0.1802,0.0517,0.0314,-0.0287,4848,2019-08-07 16:34:27:147
-7.8219,-4.601,2.861,-0.2587,-0.2839,0.1802,0.0517,0.026,-0.0426,4853,2019-08-07 16:34:27:152
-7.8219,-4.601,2.861,-0.2587,-0.2839,0.1802,0.0517,0.026,-0.0426,4857,2019-08-07 16:34:27:156
-7.8124,-4.5676,2.894,-0.1566,-0.3382,0.0494,0.0421,0.0037,-0.0543,4863,2019-08-07 16:34:27:162
-7.8124,-4.5676,2.894,-0.1566,-0.3382,0.0494,0.0421,0.0037,-0.0543,4868,2019-08-07 16:34:27:167
-7.8124,-4.5676,2.894,-0.1566,-0.3382,0.0494,0.0421,0.0037,-0.0543,4872,2019-08-07 16:34:27:171
-7.7693,-4.5055,2.9742,-0.1566,-0.3382,0.0494,0.0347,-0.0155,-0.0554,4878,2019-08-07 16:34:27:177
-7.7693,-4.5055,2.9742,-0.2424,-0.3619,0.0084,0.0347,-0.0155,-0.0554,4883,2019-08-07 16:34:27:182
-7.6593,-4.5724,2.927,-0.2424,-0.3619,0.0084,0.0368,-0.0432,-0.0426,4888,2019-08-07 16:34:27:187
-7.6593,-4.5724,2.927,-0.2424,-0.3619,0.0084,0.0368,-0.0432,-0.0426,4893,2019-08-07 16:34:27:192
-7.6593,-4.5724,2.927,-0.2424,-0.3619,0.0084,0.0283,-0.0485,-0.0351,4898,2019-08-07 16:34:27:197
-7.6163,-4.5008,2.7479,-0.3655,-0.3605,0.1935,0.0283,-0.0485,-0.0351,4903,2019-08-07 16:34:27:202
-7.6163,-4.5008,2.7479,-0.3655,-0.3605,0.1935,0.0283,-0.0485,-0.0351,4907,2019-08-07 16:34:27:206
-7.5541,-4.5437,2.7055,-0.4018,-0.3711,0.2583,-0.0122,-0.0453,-0.0128,4913,2019-08-07 16:34:27:212
-7.5541,-4.5437,2.7055,-0.4018,-0.3711,0.2583,-0.0122,-0.0453,-0.0128,4918,2019-08-07 16:34:27:217
-7.5541,-4.5437,2.7055,-0.4018,-0.3711,0.2583,-0.0442,-0.0453,0.0032,4922,2019-08-07 16:34:27:221
-7.5302,-4.5533,2.7055,-0.4018,-0.3711,0.2583,-0.0442,-0.0453,0.0032,4928,2019-08-07 16:34:27:227
-7.5302,-4.5533,2.7055,-0.4669,-0.3584,0.2135,-0.0506,-0.0198,0.0043,4933,2019-08-07 16:34:27:232
-7.6163,-4.5581,2.8139,-0.4669,-0.3584,0.2135,-0.0506,-0.0198,0.0043,4937,2019-08-07 16:34:27:236
-7.6163,-4.5581,2.8139,-0.4669,-0.3584,0.2135,-0.0388,5.0E-4,0.0053,4943,2019-08-07 16:34:27:242
-7.6163,-4.5581,2.8139,-0.4669,-0.3584,0.2135,-0.0388,5.0E-4,0.0053,4948,2019-08-07 16:34:27:247
-7.669,-4.5246,2.7196,-0.3007,-0.4068,0.2656,-0.0324,0.0271,0.0043,4952,2019-08-07 16:34:27:251
-7.669,-4.5246,2.7196,-0.3007,-0.4068,0.2656,-0.0324,0.0271,0.0043,4958,2019-08-07 16:34:27:257
-7.669,-4.5246,2.7196,-0.3007,-0.4068,0.2656,-0.0324,0.0271,0.0043,4963,2019-08-07 16:34:27:262
-7.7407,-4.5055,2.6253,-0.3007,-0.4068,0.2656,-0.0292,0.0527,-0.0053,4968,2019-08-07 16:34:27:267
-7.7407,-4.5055,2.6253,-0.1658,-0.3744,0.2112,-0.0292,0.0527,-0.0053,4973,2019-08-07 16:34:27:272
-7.7503,-4.5915,2.762,-0.1658,-0.3744,0.2112,-0.0239,0.075,-0.0149,4977,2019-08-07 16:34:27:276
-7.7503,-4.5915,2.762,-0.1658,-0.3744,0.2112,-0.0239,0.075,-0.0149,4983,2019-08-07 16:34:27:282
-7.7503,-4.5915,2.762,-0.1658,-0.3744,0.2112,-0.0186,0.0836,-0.0341,4988,2019-08-07 16:34:27:287
-7.8747,-4.5962,2.6725,-0.1658,-0.3744,0.2112,-0.0186,0.0836,-0.0341,4992,2019-08-07 16:34:27:291
-7.8747,-4.5962,2.6725,-0.1164,-0.2691,0.2654,-0.0079,0.0804,-0.0405,4998,2019-08-07 16:34:27:297
-7.8747,-4.5962,2.6725,-0.1164,-0.2691,0.2654,-0.0079,0.0804,-0.0405,5003,2019-08-07 16:34:27:302
-7.7838,-4.6249,2.7054,-0.1164,-0.2691,0.2654,6.0E-4,0.0665,-0.0405,5008,2019-08-07 16:34:27:307
-7.7838,-4.6249,2.7054,-0.1164,-0.2691,0.2654,6.0E-4,0.0665,-0.0405,5013,2019-08-07 16:34:27:312
-7.7599,-4.7251,2.8469,-0.2039,-0.2176,0.0776,0.0219,0.0314,-0.0415,5018,2019-08-07 16:34:27:317
-7.7599,-4.7251,2.8469,-0.2039,-0.2176,0.0776,0.0219,0.0314,-0.0415,5023,2019-08-07 16:34:27:322
-7.7599,-4.7251,2.8469,-0.2039,-0.2176,0.0776,0.0219,0.0314,-0.0415,5028,2019-08-07 16:34:27:327
-7.7456,-4.6774,3.0118,-0.2039,-0.2176,0.0776,0.0293,-0.0347,-0.0319,5032,2019-08-07 16:34:27:331
-7.7456,-4.6774,3.0118,-0.2771,-0.193,-0.1136,0.0293,-0.0347,-0.0319,5038,2019-08-07 16:34:27:337
-7.7456,-4.6774,3.0118,-0.2771,-0.193,-0.1136,0.0847,-0.0485,-0.0149,5042,2019-08-07 16:34:27:341
-7.6021,-4.7442,2.8421,-0.2771,-0.193,-0.1136,0.0847,-0.0485,-0.0149,5048,2019-08-07 16:34:27:347
-7.6021,-4.7442,2.8421,-0.3536,-0.2388,0.1905,0.0751,-0.0784,-0.0032,5053,2019-08-07 16:34:27:352
-7.6021,-4.6296,2.7526,-0.3536,-0.2388,0.1905,0.0751,-0.0784,-0.0032,5058,2019-08-07 16:34:27:357
-7.6021,-4.6296,2.7526,-0.3536,-0.2388,0.1905,0.0751,-0.0784,-0.0032,5063,2019-08-07 16:34:27:362
-7.6117,-4.6153,2.8186,-0.3536,-0.2388,0.1905,0.0783,-0.0762,0.0011,5068,2019-08-07 16:34:27:367
-7.6117,-4.6153,2.8186,-0.3536,-0.2388,0.1905,0.0783,-0.0762,0.0011,5072,2019-08-07 16:34:27:371
-7.6117,-4.6153,2.8186,-0.297,-0.3575,0.1632,0.0741,-0.0634,0.0096,5078,2019-08-07 16:34:27:377
-7.5734,-4.5724,2.8374,-0.297,-0.3575,0.1632,0.0741,-0.0634,0.0096,5082,2019-08-07 16:34:27:381
-7.5734,-4.5724,2.8374,-0.297,-0.3575,0.1632,0.057,-0.0368,0.0107,5088,2019-08-07 16:34:27:387
-7.5734,-4.5724,2.8374,-0.297,-0.3575,0.1632,0.057,-0.0368,0.0107,5092,2019-08-07 16:34:27:391
-7.5591,-4.7442,3.1155,-0.3913,-0.1744,-0.1432,0.0965,0.009,0.0075,5098,2019-08-07 16:34:27:397
-7.5591,-4.7442,3.1155,-0.3913,-0.1744,-0.1432,0.0965,0.009,0.0075,5103,2019-08-07 16:34:27:402
-7.6643,-4.6631,3.0448,-0.3913,-0.1744,-0.1432,0.0965,0.009,0.0075,5108,2019-08-07 16:34:27:407
-7.6643,-4.6631,3.0448,-0.3913,-0.1744,-0.1432,0.1273,0.0484,-0.0021,5113,2019-08-07 16:34:27:412
-7.6643,-4.6631,3.0448,-0.285,-0.2621,-0.0034,0.1273,0.0484,-0.0021,5117,2019-08-07 16:34:27:416
-7.6765,-4.5917,2.9227,-0.285,-0.2621,-0.0034,0.0869,0.0495,-0.0255,5123,2019-08-07 16:34:27:422
-7.6765,-4.5917,2.9227,-0.2141,-0.3172,0.0499,0.0869,0.0495,-0.0255,5127,2019-08-07 16:34:27:426
-7.8391,-4.5917,3.0453,-0.2141,-0.3172,0.0499,0.0453,0.025,-0.0319,5133,2019-08-07 16:34:27:432
-7.8391,-4.5917,3.0453,-0.2141,-0.3172,0.0499,0.0453,0.025,-0.0319,5137,2019-08-07 16:34:27:436
-7.8391,-4.5917,3.0453,-0.2141,-0.3172,0.0499,0.0038,-0.0155,-0.0383,5143,2019-08-07 16:34:27:442
-7.7482,-4.6776,3.0641,-0.2028,-0.2328,-0.0799,0.0038,-0.0155,-0.0383,5147,2019-08-07 16:34:27:446
-7.7482,-4.6776,3.0641,-0.2028,-0.2328,-0.0799,-0.0175,-0.0219,-0.05,5153,2019-08-07 16:34:27:452
-7.7482,-4.6776,3.0641,-0.2028,-0.2328,-0.0799,-0.0175,-0.0219,-0.05,5158,2019-08-07 16:34:27:457
-7.6095,-4.6346,2.9746,-0.2028,-0.2328,-0.0799,-0.0346,0.0101,-0.049,5163,2019-08-07 16:34:27:462
-7.6095,-4.6346,2.9746,-0.3262,-0.2508,-0.0551,-0.0346,0.0101,-0.049,5167,2019-08-07 16:34:27:466
-7.5664,-4.6776,3.0453,-0.3262,-0.2508,-0.0551,-0.0399,0.0441,-0.0394,5173,2019-08-07 16:34:27:472