ACCELEROMETER X (m/s²),ACCELEROMETER Y (m/s²),ACCELEROMETER Z (m/s²),LINEAR ACCELERATION X (m/s²),LINEAR ACCELERATION Y (m/s²),LINEAR ACCELERATION Z (m/s²),GYROSCOPE X (rad/s),GYROSCOPE Y (rad/s),GYROSCOPE Z (rad/s),Time since start in ms ,YYYY-MO-DD HH-MI-SS_SSS
-7.3298,-5.2407,3.5868,0.1112,-0.351,-7.0E-4,0.0666,0.0367,0.0597,3,2019-08-07 16:33:55:332
-7.3298,-5.2407,3.5868,0.1112,-0.351,-7.0E-4,0.0666,0.0367,0.0597,8,2019-08-07 16:33:55:337
-7.3298,-5.2407,3.5868,0.1112,-0.351,-7.0E-4,0.0666,0.0239,0.0671,13,2019-08-07 16:33:55:342
-7.2581,-5.1213,3.5774,0.1112,-0.351,-7.0E-4,0.0666,0.0239,0.0671,17,2019-08-07 16:33:55:346
-7.2581,-5.1213,3.5774,0.0477,-0.506,0.0085,0.0666,0.0239,0.0671,23,2019-08-07 16:33:55:352
-7.2581,-5.064,3.5727,0.0477,-0.506,0.0085,0.0602,-0.0059,0.0661,28,2019-08-07 16:33:55:357
-7.325,-5.064,3.5727,0.0477,-0.506,0.0085,0.0602,-0.0059,0.0661,32,2019-08-07 16:33:55:361
-7.325,-5.064,3.5727,0.0477,-0.506,0.0085,0.0528,-0.024,0.0618,38,2019-08-07 16:33:55:367
-7.1815,-4.9924,3.5538,-0.0751,-0.5899,0.0695,0.0528,-0.024,0.0618,43,2019-08-07 16:33:55:372
-7.1815,-4.9924,3.5538,-0.0751,-0.5899,0.0695,0.04,-0.0357,0.0511,47,2019-08-07 16:33:55:376
-7.1815,-4.9924,3.5538,-0.0751,-0.5899,0.0695,0.04,-0.0357,0.0511,53,2019-08-07 16:33:55:382
-7.1002,-4.9208,3.5444,-0.0751,-0.5899,0.0695,0.04,-0.0357,0.0511,57,2019-08-07 16:33:55:386
-7.1002,-4.9208,3.5444,-0.0751,-0.5899,0.0695,0.0304,-0.04,0.0352,63,2019-08-07 16:33:55:392
-7.1002,-4.9208,3.5444,-0.2561,-0.621,0.1082,0.0304,-0.04,0.0352,68,2019-08-07 16:33:55:397
-6.9567,-4.9113,3.535,-0.2561,-0.621,0.1082,0.0123,-0.0453,0.0245,73,2019-08-07 16:33:55:402
-6.9567,-4.9113,3.535,-0.2561,-0.621,0.1082,0.0123,-0.0453,0.0245,77,2019-08-07 16:33:55:406
-6.8656,-5.002,3.469,-0.2561,-0.621,0.1082,-0.0069,-0.0389,0.0203,83,2019-08-07 16:33:55:412
-6.8656,-5.002,3.469,-0.4387,-0.572,0.2007,-0.0069,-0.0389,0.0203,87,2019-08-07 16:33:55:416
-6.8656,-5.002,3.469,-0.4387,-0.572,0.2007,-0.0165,-0.0283,0.0203,93,2019-08-07 16:33:55:422
-6.7604,-5.0879,3.3842,-0.4387,-0.572,0.2007,-0.0165,-0.0283,0.0203,98,2019-08-07 16:33:55:427
-6.7604,-5.0879,3.3842,-0.4387,-0.572,0.2007,-0.0207,-0.0176,0.0203,102,2019-08-07 16:33:55:431
-6.7412,-5.1595,3.37,-0.4632,-0.3695,0.2829,-0.0207,-0.0176,0.0203,108,2019-08-07 16:33:55:437
-6.7412,-5.1595,3.37,-0.4632,-0.3695,0.2829,-0.0271,-0.0251,0.0341,113,2019-08-07 16:33:55:442
-6.7412,-5.1595,3.37,-0.4632,-0.3695,0.2829,-0.0271,-0.0251,0.0341,118,2019-08-07 16:33:55:447
-6.6599,-5.2072,3.3983,-0.4632,-0.3695,0.2829,-0.0324,-0.0432,0.049,123,2019-08-07 16:33:55:452
-6.6599,-5.2072,3.3983,-0.6084,-0.3039,0.2001,-0.0324,-0.0432,0.049,127,2019-08-07 16:33:55:456
-6.5929,-5.2645,3.3842,-0.6084,-0.3039,0.2001,-0.0378,-0.0507,0.0607,133,2019-08-07 16:33:55:462
-6.5929,-5.2645,3.3842,-0.6084,-0.3039,0.2001,-0.0378,-0.0507,0.0607,137,2019-08-07 16:33:55:466
-6.5929,-5.2645,3.3842,-0.6084,-0.3039,0.2001,-0.0367,-0.04,0.0746,143,2019-08-07 16:33:55:472
-6.4924,-5.3218,3.3276,-0.7548,-0.2076,0.2972,-0.0367,-0.04,0.0746,147,2019-08-07 16:33:55:476
-6.4924,-5.3218,3.3276,-0.7548,-0.2076,0.2972,-0.0261,-0.0208,0.0863,153,2019-08-07 16:33:55:482
-6.4972,-5.3552,3.3276,-0.7548,-0.2076,0.2972,-0.0261,-0.0208,0.0863,158,2019-08-07 16:33:55:487
-6.4972,-5.3552,3.3276,-0.7548,-0.2076,0.2972,-0.0133,0.0047,0.098,163,2019-08-07 16:33:55:492
-6.4972,-5.3552,3.3276,-0.6811,-0.2646,0.2262,-0.0133,0.0047,0.098,168,2019-08-07 16:33:55:497
-6.6025,-5.1929,3.3464,-0.6811,-0.2646,0.2262,-5.0E-4,0.0239,0.1033,173,2019-08-07 16:33:55:502
-6.6025,-5.1929,3.3464,-0.6811,-0.2646,0.2262,-5.0E-4,0.0239,0.1033,177,2019-08-07 16:33:55:506
-6.7125,-5.0879,3.2993,-0.6811,-0.2646,0.2262,0.0102,0.0452,0.1097,183,2019-08-07 16:33:55:512
-6.7125,-5.0879,3.2993,-0.5083,-0.4497,0.3161,0.0102,0.0452,0.1097,187,2019-08-07 16:33:55:516
-6.7125,-5.0879,3.2993,-0.5083,-0.4497,0.3161,0.0091,0.0441,0.1129,193,2019-08-07 16:33:55:522
-6.8369,-5.0211,3.3276,-0.5083,-0.4497,0.3161,0.0091,0.0441,0.1129,198,2019-08-07 16:33:55:527
-6.8369,-5.0211,3.3276,-0.5083,-0.4497,0.3161,0.007,0.042,0.1044,202,2019-08-07 16:33:55:531
-6.8178,-5.0258,3.3606,-0.4045,-0.4373,0.2775,0.007,0.042,0.1044,208,2019-08-07 16:33:55:537
-6.8178,-5.0258,3.3606,-0.4045,-0.4373,0.2775,0.0038,0.0292,0.1023,212,2019-08-07 16:33:55:541
-6.8178,-5.0258,3.3606,-0.4045,-0.4373,0.2775,0.0038,0.0292,0.1023,218,2019-08-07 16:33:55:547
-6.88,-5.0688,3.3653,-0.4045,-0.4373,0.2775,0.0016,0.0314,0.1065,222,2019-08-07 16:33:55:551
-6.88,-5.0688,3.3653,-0.51,-0.3925,0.3762,0.0016,0.0314,0.1065,228,2019-08-07 16:33:55:557
-6.7604,-5.0497,3.3182,-0.51,-0.3925,0.3762,-0.0047,0.0346,0.1076,233,2019-08-07 16:33:55:562
-6.7604,-5.0497,3.3182,-0.51,-0.3925,0.3762,-0.0047,0.0346,0.1076,237,2019-08-07 16:33:55:566
-6.7604,-5.0497,3.3182,-0.51,-0.3925,0.3762,-0.0133,0.0335,0.1172,243,2019-08-07 16:33:55:572
-6.7221,-5.1738,3.2946,-0.5918,-0.2813,0.3088,-0.0133,0.0335,0.1172,248,2019-08-07 16:33:55:577
-6.7221,-5.1738,3.2946,-0.5918,-0.2813,0.3088,-0.0229,0.0484,0.1396,253,2019-08-07 16:33:55:582
-6.7221,-5.1738,3.2946,-0.5918,-0.2813,0.3088,-0.0229,0.0484,0.1396,257,2019-08-07 16:33:55:586
-6.6169,-5.3075,3.2946,-0.5918,-0.2813,0.3088,-0.0229,0.0484,0.1396,263,2019-08-07 16:33:55:592
-6.6169,-5.3075,3.2946,-0.7151,-0.073,0.2935,-0.025,0.0644,0.1534,268,2019-08-07 16:33:55:597
-6.6886,-5.4364,3.3559,-0.7151,-0.073,0.2935,-0.025,0.0644,0.1534,273,2019-08-07 16:33:55:602
-6.6886,-5.4364,3.3559,-0.7151,-0.073,0.2935,-0.025,0.0782,0.1683,278,2019-08-07 16:33:55:607
-6.6886,-5.4364,3.3559,-0.7151,-0.073,0.2935,-0.025,0.0782,0.1683,283,2019-08-07 16:33:55:612
-6.7413,-5.4412,3.3653,-0.5992,0.0532,0.2082,-0.009,0.0932,0.1832,287,2019-08-07 16:33:55:616
-6.7413,-5.4412,3.3653,-0.5992,0.0532,0.2082,-0.009,0.0932,0.1832,293,2019-08-07 16:33:55:622
-6.8322,-5.403,3.4973,-0.5992,0.0532,0.2082,6.0E-4,0.1049,0.1907,297,2019-08-07 16:33:55:626
-6.8322,-5.403,3.4973,-0.5992,0.0532,0.2082,6.0E-4,0.1049,0.1907,303,2019-08-07 16:33:55:632
-6.8322,-5.403,3.4973,-0.4245,-0.0591,0.1323,6.0E-4,0.1049,0.1907,308,2019-08-07 16:33:55:637
-6.9853,-5.2979,3.4596,-0.4245,-0.0591,0.1323,0.0134,0.0995,0.1896,313,2019-08-07 16:33:55:642
-6.9853,-5.2979,3.4596,-0.4245,-0.0591,0.1323,0.0134,0.0995,0.1896,318,2019-08-07 16:33:55:647
-6.9853,-5.2979,3.4596,-0.4245,-0.0591,0.1323,0.0219,0.1017,0.179,322,2019-08-07 16:33:55:651
-7.0762,-5.2025,3.5067,-0.2886,-0.15,0.0395,0.0219,0.1017,0.179,328,2019-08-07 16:33:55:657
-7.0762,-5.2025,3.5067,-0.2886,-0.15,0.0395,0.0304,0.1038,0.1694,332,2019-08-07 16:33:55:661
-7.2149,-5.1643,3.5538,-0.2886,-0.15,0.0395,0.0304,0.1038,0.1694,338,2019-08-07 16:33:55:667
-7.2149,-5.1643,3.5538,-0.2886,-0.15,0.0395,0.04,0.1145,0.146,343,2019-08-07 16:33:55:672
-7.2149,-5.1643,3.5538,-0.1935,-0.1383,0.1546,0.04,0.1145,0.146,347,2019-08-07 16:33:55:676
-7.2532,-5.212,3.3794,-0.1935,-0.1383,0.1546,0.0261,0.1272,0.1374,353,2019-08-07 16:33:55:682
-7.2532,-5.212,3.3794,-0.1935,-0.1383,0.1546,0.0261,0.1272,0.1374,357,2019-08-07 16:33:55:686
-7.3824,-5.2454,3.4737,-0.1935,-0.1383,0.1546,0.0123,0.1517,0.131,363,2019-08-07 16:33:55:692
-7.3824,-5.2454,3.4737,0.002,-0.0019,-0.0197,0.0123,0.1517,0.131,367,2019-08-07 16:33:55:696
-7.3824,-5.2454,3.4737,0.002,-0.0019,-0.0197,0.0208,0.1496,0.1257,373,2019-08-07 16:33:55:702
-7.5355,-5.2693,3.5256,0.002,-0.0019,-0.0197,0.0208,0.1496,0.1257,378,2019-08-07 16:33:55:707
-7.5355,-5.2693,3.5256,0.002,-0.0019,-0.0197,0.024,0.1187,0.1215,383,2019-08-07 16:33:55:712
-7.435,-5.2502,3.568,-0.0452,-0.0433,-0.0664,0.024,0.1187,0.1215,388,2019-08-07 16:33:55:717
-7.435,-5.2502,3.568,-0.0452,-0.0433,-0.0664,0.024,0.1187,0.1215,392,2019-08-07 16:33:55:721
-7.435,-5.2502,3.568,-0.0452,-0.0433,-0.0664,0.0187,0.0932,0.1001,398,2019-08-07 16:33:55:727
-7.4589,-5.1356,3.568,-0.0452,-0.0433,-0.0664,0.0176,0.0676,0.0831,403,2019-08-07 16:33:55:732
-7.4589,-5.1356,3.568,-0.0452,-0.0433,-0.0664,0.0176,0.0676,0.0831,408,2019-08-07 16:33:55:737
-7.4589,-5.1356,3.568,-0.1331,-0.1512,-0.0624,0.0176,0.0676,0.0831,412,2019-08-07 16:33:55:741
-7.3393,-5.0831,3.5633,-0.1331,-0.1512,-0.0624,0.0198,0.0548,0.0661,418,2019-08-07 16:33:55:747
-7.3393,-5.0831,3.5633,-0.1331,-0.1512,-0.0624,0.0198,0.0548,0.0661,423,2019-08-07 16:33:55:752
-7.3393,-5.0831,3.5633,-0.1331,-0.1512,-0.0624,0.023,0.0463,0.0405,428,2019-08-07 16:33:55:757
-7.3393,-4.9924,3.5256,-0.1672,-0.2735,-0.0387,0.023,0.0463,0.0405,433,2019-08-07 16:33:55:762
-7.3393,-4.9924,3.5256,-0.1672,-0.2735,-0.0387,0.0134,0.026,0.0298,438,2019-08-07 16:33:55:767
-7.325,-4.9542,3.5208,-0.1672,-0.2735,-0.0387,0.0134,0.026,0.0298,443,2019-08-07 16:33:55:772
-7.325,-4.9542,3.5208,-0.1672,-0.2735,-0.0387,0.0038,0.0271,0.0224,448,2019-08-07 16:33:55:777
-7.325,-4.9542,3.5208,-0.2542,-0.2716,-0.0408,0.0038,0.0271,0.0224,452,2019-08-07 16:33:55:781
-7.3011,-4.9829,3.502,-0.2542,-0.2716,-0.0408,-0.0133,0.0282,0.0117,458,2019-08-07 16:33:55:787
-7.3011,-4.9829,3.502,-0.2542,-0.2716,-0.0408,-0.0133,0.0282,0.0117,463,2019-08-07 16:33:55:792
-7.3346,-5.0449,3.5114,-0.2542,-0.2716,-0.0408,-0.0261,0.0367,0.0096,467,2019-08-07 16:33:55:796
-7.3346,-5.0449,3.5114,-0.1764,-0.2367,-0.0178,-0.0261,0.0367,0.0096,473,2019-08-07 16:33:55:802
-7.3346,-5.0449,3.5114,-0.1764,-0.2367,-0.0178,-0.0367,0.0399,0.0075,477,2019-08-07 16:33:55:806
-7.3633,-5.0688,3.436,-0.1764,-0.2367,-0.0178,-0.0367,0.0399,0.0075,483,2019-08-07 16:33:55:812
-7.3633,-5.0688,3.436,-0.1764,-0.2367,-0.0178,-0.0527,0.0431,0.0043,487,2019-08-07 16:33:55:816
-7.459,-5.0688,3.4266,-0.0653,-0.2283,0.0382,-0.0527,0.0431,0.0043,493,2019-08-07 16:33:55:822
-7.459,-5.0688,3.4266,-0.0653,-0.2283,0.0382,-0.0612,0.0378,0.0064,498,2019-08-07 16:33:55:827
-7.459,-5.0688,3.4266,-0.0653,-0.2283,0.0382,-0.0612,0.0378,0.0064,503,2019-08-07 16:33:55:832
-7.4877,-5.0258,3.4171,-0.0695,-0.2494,0.0637,-0.0676,0.026,0.0139,510,2019-08-07 16:33:55:839
-7.4877,-5.0258,3.4171,-0.0695,-0.2494,0.0637,-0.0676,0.026,0.0139,512,2019-08-07 16:33:55:841
-7.435,-5.0306,3.469,-0.0695,-0.2494,0.0637,-0.0676,0.026,0.0139,518,2019-08-07 16:33:55:847
-7.435,-5.0306,3.469,-0.0695,-0.2494,0.0637,-0.0719,0.0101,0.016,523,2019-08-07 16:33:55:852
-7.435,-5.0306,3.469,-0.0695,-0.2494,0.0637,-0.0719,0.0101,0.016,527,2019-08-07 16:33:55:856
-7.3537,-5.0115,3.4171,-0.173,-0.2511,0.0311,-0.0751,-0.0038,0.0128,533,2019-08-07 16:33:55:862
-7.3537,-5.0115,3.4171,-0.173,-0.2511,0.0311,-0.0751,-0.0038,0.0128,537,2019-08-07 16:33:55:866
-7.3537,-4.9876,3.3606,-0.173,-0.2511,0.0311,-0.0676,-0.0134,0.0117,543,2019-08-07 16:33:55:872
-7.3537,-4.9876,3.3606,-0.173,-0.2511,0.0311,-0.0676,-0.0134,0.0117,547,2019-08-07 16:33:55:876
-7.3537,-4.9876,3.3606,-0.1739,-0.234,0.0023,-0.0644,-0.023,0.0032,553,2019-08-07 16:33:55:882
-7.3442,-5.0545,3.3511,-0.1739,-0.234,0.0023,-0.0644,-0.023,0.0032,558,2019-08-07 16:33:55:887
-7.3442,-5.0545,3.3511,-0.1739,-0.234,0.0023,-0.0644,-0.023,0.0032,562,2019-08-07 16:33:55:891
-7.282,-5.107,3.403,-0.1739,-0.234,0.0023,-0.0569,-0.0336,-0.0074,568,2019-08-07 16:33:55:897
-7.282,-5.107,3.403,-0.2433,-0.2001,0.0716,-0.0569,-0.0336,-0.0074,573,2019-08-07 16:33:55:902
-7.282,-5.107,3.403,-0.2433,-0.2001,0.0716,-0.0516,-0.0464,-0.0192,578,2019-08-07 16:33:55:907
-7.3202,-5.1165,3.3276,-0.2433,-0.2001,0.0716,-0.0516,-0.0464,-0.0192,583,2019-08-07 16:33:55:912
-7.3202,-5.1165,3.3276,-0.2433,-0.2001,0.0716,-0.042,-0.0507,-0.0234,588,2019-08-07 16:33:55:917
-7.3202,-5.1165,3.3276,-0.305,-0.2016,0.1114,-0.042,-0.0507,-0.0234,593,2019-08-07 16:33:55:922
-7.1911,-5.064,3.3559,-0.305,-0.2016,0.1114,-0.0367,-0.04,-0.0256,598,2019-08-07 16:33:55:927
-7.1911,-5.064,3.3559,-0.305,-0.2016,0.1114,-0.0367,-0.04,-0.0256,603,2019-08-07 16:33:55:932
-7.1528,-5.0497,3.3276,-0.305,-0.2016,0.1114,-0.0324,-0.0304,-0.0266,607,2019-08-07 16:33:55:936
-7.1528,-5.0497,3.3276,-0.3473,-0.2558,0.123,-0.0324,-0.0304,-0.0266,612,2019-08-07 16:33:55:941
-7.1528,-5.0497,3.3276,-0.3473,-0.2558,0.123,-0.0239,-0.024,-0.0128,618,2019-08-07 16:33:55:947
-7.2485,-5.0211,3.304,-0.3473,-0.2558,0.123,-0.0239,-0.024,-0.0128,623,2019-08-07 16:33:55:952
-7.2485,-5.0211,3.304,-0.3473,-0.2558,0.123,-0.0143,-0.0294,0.0011,628,2019-08-07 16:33:55:957
-7.1863,-4.9399,3.3653,-0.3255,-0.344,0.083,-0.0143,-0.0294,0.0011,633,2019-08-07 16:33:55:962
-7.1863,-4.9399,3.3653,-0.3255,-0.344,0.083,-0.0069,-0.0485,0.0096,637,2019-08-07 16:33:55:966
-7.1863,-4.9399,3.3653,-0.3255,-0.344,0.083,-0.0069,-0.0485,0.0096,643,2019-08-07 16:33:55:972
-7.2533,-4.916,3.2899,-0.3255,-0.344,0.083,0.0016,-0.072,0.0277,647,2019-08-07 16:33:55:976
-7.2533,-4.916,3.2899,-0.2809,-0.3598,0.1572,0.0016,-0.072,0.0277,653,2019-08-07 16:33:55:982
-7.2389,-4.8397,3.3417,-0.2809,-0.3598,0.1572,0.0016,-0.072,0.0277,658,2019-08-07 16:33:55:987
-7.2389,-4.8397,3.3417,-0.2809,-0.3598,0.1572,0.0123,-0.0784,0.0394,662,2019-08-07 16:33:55:991
-7.2389,-4.8397,3.3417,-0.2809,-0.3598,0.1572,0.0123,-0.0784,0.0394,668,2019-08-07 16:33:55:997
-7.2389,-4.8206,3.2521,-0.2331,-0.4657,0.3117,0.0166,-0.0752,0.0511,672,2019-08-07 16:33:56:001
-7.2389,-4.8206,3.2521,-0.2331,-0.4657,0.3117,0.0166,-0.0752,0.0511,678,2019-08-07 16:33:56:007
-7.2437,-4.7919,3.1673,-0.2331,-0.4657,0.3117,0.0187,-0.0592,0.0554,683,2019-08-07 16:33:56:012
-7.2437,-4.7919,3.1673,-0.2331,-0.4657,0.3117,0.0187,-0.0592,0.0554,687,2019-08-07 16:33:56:016
-7.2437,-4.7919,3.1673,-0.2703,-0.4827,0.2789,0.0176,-0.0347,0.0661,693,2019-08-07 16:33:56:022
-7.2437,-4.7919,3.1532,-0.2703,-0.4827,0.2789,0.0176,-0.0347,0.0661,697,2019-08-07 16:33:56:026
-7.2437,-4.7919,3.1532,-0.2703,-0.4827,0.2789,0.0176,0.0037,0.0618,702,2019-08-07 16:33:56:031
-7.2964,-4.811,3.2003,-0.2703,-0.4827,0.2789,0.0176,0.0037,0.0618,708,2019-08-07 16:33:56:037
-7.2964,-4.811,3.2003,-0.2703,-0.4827,0.2789,0.0198,0.0495,0.0533,712,2019-08-07 16:33:56:041
-7.2964,-4.811,3.2003,-0.2405,-0.428,0.2596,0.0198,0.0495,0.0533,718,2019-08-07 16:33:56:047
-7.416,-4.8731,3.205,-0.2405,-0.428,0.2596,0.0176,0.0761,0.049,723,2019-08-07 16:33:56:052
-7.416,-4.8731,3.205,-0.2405,-0.428,0.2596,0.0176,0.0761,0.049,728,2019-08-07 16:33:56:057
-7.5212,-4.8731,3.3134,-0.013,-0.3652,0.1553,0.0208,0.0761,0.0458,733,2019-08-07 16:33:56:062
-7.5212,-4.8731,3.3134,-0.013,-0.3652,0.1553,0.0208,0.0761,0.0458,737,2019-08-07 16:33:56:066
-7.5212,-4.8731,3.3134,-0.013,-0.3652,0.1553,0.0187,0.0495,0.0405,743,2019-08-07 16:33:56:072
-7.6121,-4.8826,3.3983,-0.013,-0.3652,0.1553,0.0187,0.0495,0.0405,747,2019-08-07 16:33:56:076
-7.6121,-4.8826,3.3983,-0.0026,-0.3601,0.1278,0.0219,-0.0187,0.0394,753,2019-08-07 16:33:56:082
-7.4877,-4.854,3.4265,-0.0026,-0.3601,0.1278,0.0219,-0.0187,0.0394,758,2019-08-07 16:33:56:087
-7.4877,-4.854,3.4265,-0.0026,-0.3601,0.1278,0.0219,-0.0187,0.0394,762,2019-08-07 16:33:56:091
-7.4877,-4.854,3.4265,-0.0026,-0.3601,0.1278,0.0219,-0.0677,0.0352,767,2019-08-07 16:33:56:096
-7.3777,-4.8635,3.3653,-0.0026,-0.3601,0.1278,0.0219,-0.0677,0.0352,773,2019-08-07 16:33:56:102
-7.3777,-4.8635,3.3653,-0.1993,-0.3131,0.1114,0.0187,-0.0986,0.0341,778,2019-08-07 16:33:56:107
-7.3777,-4.8635,3.3653,-0.1993,-0.3131,0.1114,0.0187,-0.0986,0.0341,783,2019-08-07 16:33:56:112
-7.2485,-4.8922,3.3276,-0.1993,-0.3131,0.1114,0.0134,-0.1039,0.0341,788,2019-08-07 16:33:56:117
-7.2485,-4.8922,3.3276,-0.1993,-0.3131,0.1114,0.0134,-0.1039,0.0341,792,2019-08-07 16:33:56:121
-7.0907,-4.9638,3.2616,-0.3972,-0.225,0.1707,0.0102,-0.0805,0.033,798,2019-08-07 16:33:56:127
-7.0907,-4.9638,3.2616,-0.3972,-0.225,0.1707,0.0102,-0.0805,0.033,802,2019-08-07 16:33:56:131
-7.0907,-4.9638,3.2616,-0.3972,-0.225,0.1707,0.0027,-0.0368,0.0288,808,2019-08-07 16:33:56:137
-6.9902,-5.0163,3.2144,-0.3972,-0.225,0.1707,0.0027,-0.0368,0.0288,813,2019-08-07 16:33:56:142
-6.9902,-5.0163,3.2144,-0.535,-0.2258,0.2165,-0.0026,0.0196,0.016,817,2019-08-07 16:33:56:146
-7.0715,-5.0401,3.2286,-0.535,-0.2258,0.2165,-0.0026,0.0196,0.016,823,2019-08-07 16:33:56:152
-7.0715,-5.0401,3.2286,-0.535,-0.2258,0.2165,-0.0069,0.0644,0.0085,827,2019-08-07 16:33:56:156
-7.0715,-5.0401,3.2286,-0.535,-0.2258,0.2165,-0.0069,0.0644,0.0085,833,2019-08-07 16:33:56:162
-7.1768,-5.0879,3.3511,-0.367,-0.1204,0.142,-0.0143,0.0942,-0.0021,837,2019-08-07 16:33:56:166
-7.1768,-5.0879,3.3511,-0.367,-0.1204,0.142,-0.0143,0.0942,-0.0021,843,2019-08-07 16:33:56:172
-7.3586,-5.0688,3.403,-0.367,-0.1204,0.142,-0.0186,0.09,-0.0064,847,2019-08-07 16:33:56:176
-7.3586,-5.0688,3.403,-0.367,-0.1204,0.142,-0.0186,0.09,-0.0064,853,2019-08-07 16:33:56:182
-7.3586,-5.0688,3.403,-0.0857,-0.1319,-0.0197,-0.0175,0.0505,-0.0074,858,2019-08-07 16:33:56:187
-7.4351,-5.0592,3.5538,-0.0857,-0.1319,-0.0197,-0.0175,0.0505,-0.0074,862,2019-08-07 16:33:56:191
-7.4351,-5.0592,3.5538,-0.0857,-0.1319,-0.0197,-0.0175,-0.0219,-0.0096,868,2019-08-07 16:33:56:197
-7.4256,-5.064,3.4548,-0.0857,-0.1319,-0.0197,-0.0175,-0.0219,-0.0096,872,2019-08-07 16:33:56:201
-7.4256,-5.064,3.4548,-0.1092,-0.177,0.0348,-0.0207,-0.0847,-0.0074,878,2019-08-07 16:33:56:207
-7.4256,-5.064,3.4548,-0.1092,-0.177,0.0348,-0.0207,-0.0847,-0.0074,883,2019-08-07 16:33:56:212
-7.3299,-5.0115,3.3323,-0.1092,-0.177,0.0348,-0.0218,-0.1114,-0.0053,888,2019-08-07 16:33:56:217
-7.3299,-5.0115,3.3323,-0.1092,-0.177,0.0348,-0.0218,-0.1114,-0.0053,893,2019-08-07 16:33:56:222
-7.1242,-5.064,3.2144,-0.3741,-0.1653,0.2502,-0.0282,-0.1071,-0.0085,897,2019-08-07 16:33:56:226
-7.1242,-5.064,3.2144,-0.3741,-0.1653,0.2502,-0.0282,-0.1071,-0.0085,903,2019-08-07 16:33:56:232
-7.1242,-5.064,3.2144,-0.3741,-0.1653,0.2502,-0.0282,-0.1071,-0.0085,907,2019-08-07 16:33:56:236
-7.0237,-5.107,3.238,-0.3741,-0.1653,0.2502,-0.0175,-0.0709,-0.0149,913,2019-08-07 16:33:56:242
-7.0237,-5.107,3.238,-0.4762,-0.1033,0.265,-0.0175,-0.0709,-0.0149,918,2019-08-07 16:33:56:247
-7.0428,-5.0879,3.2238,-0.4762,-0.1033,0.265,-0.0122,-0.0027,-0.0266,923,2019-08-07 16:33:56:252
-7.0428,-5.0879,3.2238,-0.4762,-0.1033,0.265,-0.0122,-0.0027,-0.0266,928,2019-08-07 16:33:56:257
-7.0428,-5.0879,3.2238,-0.4762,-0.1033,0.265,-0.009,0.0527,-0.0415,932,2019-08-07 16:33:56:261
-7.1959,-5.0306,3.2521,-0.3345,-0.1963,0.2419,-0.009,0.0527,-0.0415,938,2019-08-07 16:33:56:267
-7.1959,-5.0306,3.2521,-0.3345,-0.1963,0.2419,-0.0101,0.0825,-0.0511,942,2019-08-07 16:33:56:271
-7.1959,-5.0306,3.2521,-0.3345,-0.1963,0.2419,-0.0101,0.0825,-0.0511,948,2019-08-07 16:33:56:277
-7.3682,-5.021,3.2993,-0.3345,-0.1963,0.2419,-0.0239,0.0708,-0.0543,953,2019-08-07 16:33:56:282
-7.3682,-5.021,3.2993,-0.1341,-0.219,0.1102,-0.0239,0.0708,-0.0543,957,2019-08-07 16:33:56:286
-7.4017,-5.002,3.3605,-0.1341,-0.219,0.1102,-0.0239,0.0708,-0.0543,963,2019-08-07 16:33:56:292
-7.4017,-5.002,3.3605,-0.1341,-0.219,0.1102,-0.0356,0.0324,-0.0501,968,2019-08-07 16:33:56:297
-7.4017,-5.002,3.3605,-0.1341,-0.219,0.1102,-0.0356,0.0324,-0.0501,973,2019-08-07 16:33:56:302
-7.3538,-5.0401,3.3464,-0.1839,-0.1666,0.1396,-0.0442,-0.0123,-0.049,977,2019-08-07 16:33:56:306
-7.3538,-5.0401,3.3464,-0.1839,-0.1666,0.1396,-0.0442,-0.0123,-0.049,983,2019-08-07 16:33:56:312
-7.2725,-5.1022,3.3464,-0.1839,-0.1666,0.1396,-0.0537,-0.0613,-0.0405,987,2019-08-07 16:33:56:316
-7.2725,-5.1022,3.3464,-0.1839,-0.1666,0.1396,-0.0537,-0.0613,-0.0405,993,2019-08-07 16:33:56:322
-7.2725,-5.1022,3.3464,-0.3433,-0.1718,0.2785,-0.0623,-0.0826,-0.0341,998,2019-08-07 16:33:56:327
-7.172,-5.0974,3.1343,-0.3433,-0.1718,0.2785,-0.0623,-0.0826,-0.0341,1003,2019-08-07 16:33:56:332
-7.172,-5.0974,3.1343,-0.3433,-0.1718,0.2785,-0.0623,-0.0826,-0.0341,1007,2019-08-07 16:33:56:336
-7.1051,-5.0401,3.073,-0.4107,-0.2867,0.3653,-0.0697,-0.072,-0.0309,1013,2019-08-07 16:33:56:342
-7.1051,-5.0401,3.073,-0.4107,-0.2867,0.3653,-0.0697,-0.072,-0.0309,1017,2019-08-07 16:33:56:346
-7.1051,-5.0401,3.073,-0.4107,-0.2867,0.3653,-0.0846,-0.0262,-0.033,1023,2019-08-07 16:33:56:352
-6.9759,-5.021,3.007,-0.5146,-0.222,0.5116,-0.0846,-0.0262,-0.033,1028,2019-08-07 16:33:56:357
-6.9759,-5.021,3.007,-0.5146,-0.222,0.5116,-0.0942,0.042,-0.0469,1032,2019-08-07 16:33:56:361
-7.1386,-5.0545,3.0824,-0.5146,-0.222,0.5116,-0.0942,0.042,-0.0469,1038,2019-08-07 16:33:56:367
-7.1386,-5.0545,3.0824,-0.5146,-0.222,0.5116,-0.0932,0.1027,-0.0564,1042,2019-08-07 16:33:56:371
-7.1386,-5.0545,3.0824,-0.2568,-0.1941,0.4685,-0.0932,0.1027,-0.0564,1048,2019-08-07 16:33:56:377
-7.2677,-5.0449,3.0447,-0.2568,-0.1941,0.4685,-0.0921,0.1315,-0.0554,1052,2019-08-07 16:33:56:381
-7.2677,-5.0449,3.0447,-0.2568,-0.1941,0.4685,-0.0921,0.1315,-0.0554,1057,2019-08-07 16:33:56:386
-7.2677,-5.0449,3.0447,-0.2568,-0.1941,0.4685,-0.0932,0.1294,-0.0607,1063,2019-08-07 16:33:56:392
-7.3778,-4.9924,3.2191,-0.136,-0.3094,0.1688,-0.0932,0.1294,-0.0607,1068,2019-08-07 16:33:56:397
-7.3778,-4.9924,3.2191,-0.136,-0.3094,0.1688,-0.0836,0.1017,-0.0628,1073,2019-08-07 16:33:56:402
-7.4639,-5.021,3.2521,-0.136,-0.3094,0.1688,-0.0836,0.1017,-0.0628,1078,2019-08-07 16:33:56:407
-7.4639,-5.021,3.2521,-0.136,-0.3094,0.1688,-0.0751,0.0591,-0.0596,1083,2019-08-07 16:33:56:412
-7.4639,-5.021,3.2521,-0.0604,-0.2606,0.1385,-0.0751,0.0591,-0.0596,1088,2019-08-07 16:33:56:417
-7.458,-5.0641,3.2995,-0.0604,-0.2606,0.1385,-0.0601,-0.0017,-0.0479,1092,2019-08-07 16:33:56:421
-7.458,-5.0641,3.2995,-0.0604,-0.2606,0.1385,-0.0601,-0.0017,-0.0479,1098,2019-08-07 16:33:56:427
-7.458,-5.0641,3.2995,-0.0604,-0.2606,0.1385,-0.0388,-0.0624,-0.0309,1103,2019-08-07 16:33:56:432
-7.2618,-5.0021,3.2476,-0.0604,-0.2606,0.1385,-0.0388,-0.0624,-0.0309,1107,2019-08-07 16:33:56:436
-7.2618,-5.0021,3.2476,-0.2796,-0.3311,0.1333,-0.0197,-0.0784,-0.0223,1113,2019-08-07 16:33:56:442
-7.2618,-5.0021,3.2476,-0.2796,-0.3311,0.1333,-0.0197,-0.0784,-0.0223,1117,2019-08-07 16:33:56:446
-7.1805,-4.9352,3.2194,-0.2796,-0.3311,0.1333,-0.0197,-0.0784,-0.0223,1123,2019-08-07 16:33:56:452
-7.1805,-4.9352,3.2194,-0.2796,-0.3311,0.1333,-0.0069,-0.0634,-0.0117,1127,2019-08-07 16:33:56:456
-7.0608,-5.0498,3.1439,-0.4551,-0.2913,0.2695,-0.0069,-0.0634,-0.0117,1133,2019-08-07 16:33:56:462
-7.0608,-5.0498,3.1439,-0.4551,-0.2913,0.2695,0.007,-0.0059,-0.0128,1138,2019-08-07 16:33:56:467
-7.0608,-5.0498,3.1439,-0.4551,-0.2913,0.2695,0.007,-0.0059,-0.0128,1143,2019-08-07 16:33:56:472
-7.1182,-5.0784,3.2477,-0.4551,-0.2913,0.2695,0.0251,0.0388,-0.017,1148,2019-08-07 16:33:56:477
-7.1182,-5.0784,3.2477,-0.4012,-0.2306,0.2231,0.0251,0.0388,-0.017,1153,2019-08-07 16:33:56:482
-7.1517,-5.0403,3.2241,-0.4012,-0.2306,0.2231,0.0325,0.074,-0.0202,1158,2019-08-07 16:33:56:487
-7.1517,-5.0403,3.2241,-0.4012,-0.2306,0.2231,0.0325,0.074,-0.0202,1163,2019-08-07 16:33:56:492
-7.1517,-5.0403,3.2241,-0.4012,-0.2306,0.2231,0.0357,0.0836,-0.0234,1168,2019-08-07 16:33:56:497
-7.2905,-5.045,3.4032,-0.2129,-0.2835,-0.0056,0.0357,0.0836,-0.0234,1172,2019-08-07 16:33:56:501
-7.2905,-5.045,3.4032,-0.2129,-0.2835,-0.0056,0.0357,0.0655,-0.0213,1178,2019-08-07 16:33:56:507
-7.3096,-5.0737,3.4032,-0.2129,-0.2835,-0.0056,0.0357,0.0655,-0.0213,1182,2019-08-07 16:33:56:511
-7.3096,-5.0737,3.4032,-0.2129,-0.2835,-0.0056,0.0357,0.0655,-0.0213,1188,2019-08-07 16:33:56:517
-7.3096,-5.0737,3.4032,-0.2342,-0.2355,-0.0243,0.0336,0.0186,-0.0096,1192,2019-08-07 16:33:56:521
-7.2569,-5.1071,3.3749,-0.2342,-0.2355,-0.0243,0.0336,0.0186,-0.0096,1198,2019-08-07 16:33:56:527
-7.2569,-5.1071,3.3749,-0.2342,-0.2355,-0.0243,0.0315,-0.0304,0.0022,1202,2019-08-07 16:33:56:531
-7.2569,-5.1071,3.3749,-0.2342,-0.2355,-0.0243,0.0315,-0.0304,0.0022,1208,2019-08-07 16:33:56:537
-7.19,-5.0785,3.3702,-0.352,-0.2328,0.0499,0.0304,-0.0624,0.0149,1213,2019-08-07 16:33:56:542
-7.19,-5.0785,3.3702,-0.352,-0.2328,0.0499,0.0304,-0.0624,0.0149,1218,2019-08-07 16:33:56:547
-6.9938,-5.1501,3.2712,-0.352,-0.2328,0.0499,0.0208,-0.0816,0.033,1222,2019-08-07 16:33:56:551
-6.9938,-5.1501,3.2712,-0.352,-0.2328,0.0499,0.0208,-0.0816,0.033,1228,2019-08-07 16:33:56:557
-6.9938,-5.1501,3.2712,-0.5502,-0.2033,0.2063,0.0187,-0.0666,0.0426,1233,2019-08-07 16:33:56:562
-6.9938,-5.1501,3.2712,-0.5502,-0.2033,0.2063,0.0187,-0.0666,0.0426,1237,2019-08-07 16:33:56:566
-6.9651,-5.0928,3.1817,-0.5695,-0.2427,0.2445,0.0166,-0.0571,0.048,1242,2019-08-07 16:33:56:571
-6.9651,-5.0928,3.1817,-0.5695,-0.2427,0.2445,0.0166,-0.0571,0.048,1248,2019-08-07 16:33:56:577
-6.9651,-5.0928,3.1817,-0.5695,-0.2427,0.2445,0.0134,0.026,0.0437,1253,2019-08-07 16:33:56:582
-6.9555,-5.1166,3.078,-0.5695,-0.2427,0.2445,0.0134,0.026,0.0437,1257,2019-08-07 16:33:56:586
-6.9555,-5.1166,3.078,-0.4933,-0.1878,0.2584,0.0112,0.0889,0.0416,1263,2019-08-07 16:33:56:592
-7.1181,-5.1071,3.2194,-0.4933,-0.1878,0.2584,0.0112,0.0889,0.0416,1267,2019-08-07 16:33:56:596
-7.1181,-5.1071,3.2194,-0.4933,-0.1878,0.2584,0.0123,0.1294,0.0373,1273,2019-08-07 16:33:56:602
-7.1181,-5.1071,3.2194,-0.4933,-0.1878,0.2584,0.0123,0.1294,0.0373,1277,2019-08-07 16:33:56:606
-7.3286,-5.1214,3.3278,-0.1894,-0.1816,0.0772,0.0198,0.1315,0.0309,1283,2019-08-07 16:33:56:612
-7.3286,-5.1214,3.3278,-0.1894,-0.1816,0.0772,0.0198,0.1315,0.0309,1288,2019-08-07 16:33:56:617
-7.3286,-5.1214,3.3278,-0.1894,-0.1816,0.0772,0.0272,0.1049,0.0309,1292,2019-08-07 16:33:56:621
-7.4817,-5.1023,3.3467,-0.1894,-0.1816,0.0772,0.0272,0.1049,0.0309,1298,2019-08-07 16:33:56:627
-7.4817,-5.1023,3.3467,-0.0428,-0.2221,0.0493,0.0272,0.1049,0.0309,1302,2019-08-07 16:33:56:631
-7.5343,-5.0785,3.3655,-0.0428,-0.2221,0.0493,0.0261,0.026,0.0298,1308,2019-08-07 16:33:56:637
-7.5343,-5.0785,3.3655,-0.0428,-0.2221,0.0493,0.0261,0.026,0.0298,1313,2019-08-07 16:33:56:642
-7.3477,-5.0355,3.2194,-0.0428,-0.2221,0.0493,0.0293,-0.0368,0.0288,1318,2019-08-07 16:33:56:647
-7.3477,-5.0355,3.2194,-0.2131,-0.2387,0.172,0.0293,-0.0368,0.0288,1323,2019-08-07 16:33:56:652
-7.3477,-5.0355,3.2194,-0.2131,-0.2387,0.172,0.0315,-0.0805,0.032,1327,2019-08-07 16:33:56:656
-7.1324,-5.1071,3.1298,-0.2131,-0.2387,0.172,0.0315,-0.0805,0.032,1333,2019-08-07 16:33:56:662
-7.1324,-5.1071,3.1298,-0.2131,-0.2387,0.172,0.0357,-0.0837,0.0373,1338,2019-08-07 16:33:56:667
-7.1324,-5.1071,3.1298,-0.5173,-0.2221,0.3291,0.0357,-0.0837,0.0373,1342,2019-08-07 16:33:56:671
-6.9889,-5.0498,3.0167,-0.5173,-0.2221,0.3291,0.0432,-0.0549,0.0426,1347,2019-08-07 16:33:56:676
-6.9889,-5.0498,3.0167,-0.5173,-0.2221,0.3291,0.0432,-0.0549,0.0426,1353,2019-08-07 16:33:56:682
-6.9889,-5.0498,3.0167,-0.5173,-0.2221,0.3291,0.0432,-0.0549,0.0426,1357,2019-08-07 16:33:56:686
-6.9219,-5.0641,3.0827,-0.6195,-0.2039,0.3857,0.0474,-0.0081,0.0448,1363,2019-08-07 16:33:56:692
-6.9219,-5.0641,3.0827,-0.6195,-0.2039,0.3857,0.0474,-0.0081,0.0448,1368,2019-08-07 16:33:56:697
-7.008,-5.0498,3.1723,-0.6195,-0.2039,0.3857,0.057,0.058,0.0522,1372,2019-08-07 16:33:56:701
-7.008,-5.0498,3.1723,-0.6195,-0.2039,0.3857,0.057,0.058,0.0522,1378,2019-08-07 16:33:56:707
-7.008,-5.0498,3.1723,-0.4757,-0.2596,0.1703,0.0634,0.09,0.0575,1383,2019-08-07 16:33:56:712
-7.142,-4.9878,3.2477,-0.4757,-0.2596,0.1703,0.0634,0.09,0.0575,1388,2019-08-07 16:33:56:717
-7.142,-4.9878,3.2477,-0.4757,-0.2596,0.1703,0.0666,0.1049,0.0575,1392,2019-08-07 16:33:56:721
-7.3429,-4.9305,3.342,-0.4757,-0.2596,0.1703,0.0666,0.1049,0.0575,1398,2019-08-07 16:33:56:727
-7.3429,-4.9305,3.342,-0.1829,-0.3218,0.0353,0.0538,0.074,0.0661,1402,2019-08-07 16:33:56:731
-7.3429,-4.9305,3.342,-0.1829,-0.3218,0.0353,0.0538,0.074,0.0661,1408,2019-08-07 16:33:56:737
-7.3142,-4.9353,3.4268,-0.1829,-0.3218,0.0353,0.0538,0.074,0.0661,1413,2019-08-07 16:33:56:742
-7.3142,-4.9353,3.4268,-0.1829,-0.3218,0.0353,0.0432,0.0388,0.0714,1418,2019-08-07 16:33:56:747
-7.3142,-4.9353,3.4268,-0.1937,-0.2159,-0.055,0.0432,0.0388,0.0714,1423,2019-08-07 16:33:56:752
-7.3237,-5.0116,3.507,-0.1937,-0.2159,-0.055,0.0389,0.0058,0.0799,1427,2019-08-07 16:33:56:756
-7.3237,-5.0116,3.507,-0.1937,-0.2159,-0.055,0.0389,0.0058,0.0799,1433,2019-08-07 16:33:56:762
-7.3237,-5.0116,3.507,-0.1937,-0.2159,-0.055,0.0443,-0.0155,0.0916,1438,2019-08-07 16:33:56:767
-7.2424,-5.1787,3.5777,-0.1937,-0.2159,-0.055,0.0443,-0.0155,0.0916,1442,2019-08-07 16:33:56:771
-7.2424,-5.1787,3.5777,-0.2973,-0.0187,-0.1471,0.0581,-0.0251,0.098,1448,2019-08-07 16:33:56:777
-7.2424,-5.1787,3.5777,-0.2973,-0.0187,-0.1471,0.0581,-0.0251,0.098,1453,2019-08-07 16:33:56:782
-7.2424,-5.1787,3.5777,-0.2973,-0.0187,-0.1471,0.0581,-0.0251,0.098,1458,2019-08-07 16:33:56:787
-7.3955,-5.3124,3.6814,-0.2973,-0.0187,-0.1471,0.0815,-0.0294,0.1055,1462,2019-08-07 16:33:56:791
-7.3955,-5.3124,3.6814,-0.1417,0.3348,-0.4728,0.1423,-0.0389,0.1183,1468,2019-08-07 16:33:56:797
-7.5198,-5.7945,4.0632,-0.1417,0.3348,-0.4728,0.1423,-0.0389,0.1183,1472,2019-08-07 16:33:56:801
-7.5198,-5.7945,4.0632,-0.1417,0.3348,-0.4728,0.1423,-0.0389,0.1183,1478,2019-08-07 16:33:56:807
-7.5198,-5.7945,4.0632,-0.1417,0.3348,-0.4728,0.2104,-0.0624,0.1183,1483,2019-08-07 16:33:56:812
-7.7208,-6.038,4.5299,0.135,0.8684,-1.0704,0.2104,-0.0624,0.1183,1488,2019-08-07 16:33:56:817
-7.7208,-6.038,4.5299,0.135,0.8684,-1.0704,0.3084,-0.1146,0.1129,1492,2019-08-07 16:33:56:821
-8.0891,-6.3722,5.1238,0.135,0.8684,-1.0704,0.3084,-0.1146,0.1129,1498,2019-08-07 16:33:56:827
-8.0891,-6.3722,5.1238,0.135,0.8684,-1.0704,0.3084,-0.1146,0.1129,1503,2019-08-07 16:33:56:832
-8.0891,-6.3722,5.1238,0.7731,1.617,-1.9355,0.4022,-0.1891,0.114,1507,2019-08-07 16:33:56:836
-8.5101,-6.8782,5.6518,0.7731,1.617,-1.9355,0.4022,-0.1891,0.114,1513,2019-08-07 16:33:56:842
-8.5101,-6.8782,5.6518,0.7731,1.617,-1.9355,0.497,-0.2744,0.1151,1518,2019-08-07 16:33:56:847
-9.4957,-8.3629,7.4006,0.7731,1.617,-1.9355,0.497,-0.2744,0.1151,1523,2019-08-07 16:33:56:852
-9.4957,-8.3629,7.4006,2.0944,3.6524,-4.1422,0.6472,-0.416,0.1279,1527,2019-08-07 16:33:56:856
-9.4957,-8.3629,7.4006,2.0944,3.6524,-4.1422,0.6472,-0.416,0.1279,1533,2019-08-07 16:33:56:862
-10.2468,-10.134,9.4087,2.0944,3.6524,-4.1422,0.9252,-0.6653,0.1055,1537,2019-08-07 16:33:56:866
-10.2468,-10.134,9.4087,2.0944,3.6524,-4.1422,0.9252,-0.6653,0.1055,1543,2019-08-07 16:33:56:872
-11.1175,-11.9814,11.8174,3.3454,6.5662,-7.4905,1.231,-0.9657,0.0554,1548,2019-08-07 16:33:56:877
-11.1175,-11.9814,11.8174,3.3454,6.5662,-7.4905,1.231,-0.9657,0.0554,1553,2019-08-07 16:33:56:882
-11.1175,-11.9814,11.8174,3.3454,6.5662,-7.4905,1.231,-0.9657,0.0554,1557,2019-08-07 16:33:56:886
-11.7825,-13.6141,13.2269,3.3454,6.5662,-7.4905,1.6336,-1.2523,-0.0096,1563,2019-08-07 16:33:56:892
-11.7825,-13.6141,13.2269,5.0018,10.168,-10.4606,1.6336,-1.2523,-0.0096,1568,2019-08-07 16:33:56:897
-13.0408,-16.6359,17.111,5.0018,10.168,-10.4606,2.2568,-1.5878,-0.1214,1572,2019-08-07 16:33:56:901
-13.0408,-16.6359,17.111,5.0018,10.168,-10.4606,2.2568,-1.5878,-0.1214,1578,2019-08-07 16:33:56:907
-13.0408,-16.6359,17.111,5.0018,10.168,-10.4606,2.9151,-1.8659,-0.2769,1582,2019-08-07 16:33:56:911
-15.0597,-17.4856,21.7494,7.8295,12.7755,-17.0831,2.9151,-1.8659,-0.2769,1588,2019-08-07 16:33:56:917
-15.0597,-17.4856,21.7494,7.8295,12.7755,-17.0831,3.5053,-2.0747,-0.4975,1593,2019-08-07 16:33:56:922
-15.0597,-17.4856,21.7494,7.8295,12.7755,-17.0831,3.5053,-2.0747,-0.4975,1597,2019-08-07 16:33:56:926
-18.4469,-14.7216,24.0026,7.8295,12.7755,-17.0831,3.5351,-2.5732,-0.8202,1603,2019-08-07 16:33:56:932
-18.4469,-14.7216,24.0026,14.4415,8.2908,-20.2165,3.5351,-2.5732,-0.8202,1607,2019-08-07 16:33:56:936
-22.3078,-12.4206,26.0767,14.4415,8.2908,-20.2165,3.2134,-3.4286,-1.1217,1613,2019-08-07 16:33:56:942
-22.3078,-12.4206,26.0767,14.4415,8.2908,-20.2165,3.2134,-3.4286,-1.1217,1617,2019-08-07 16:33:56:946
-29.9243,-11.9241,27.4296,14.4415,8.2908,-20.2165,3.2134,-3.4286,-1.1217,1623,2019-08-07 16:33:56:952
-29.9243,-11.9241,27.4296,24.6807,7.6933,-20.9615,2.6392,-5.0201,-1.5755,1627,2019-08-07 16:33:56:956
-29.9243,-11.9241,27.4296,24.6807,7.6933,-20.9615,2.6392,-5.0201,-1.5755,1633,2019-08-07 16:33:56:962
-33.0819,-10.7641,25.0868,24.6807,7.6933,-20.9615,2.0448,-6.5988,-1.9888,1638,2019-08-07 16:33:56:967
-33.0819,-10.7641,25.0868,24.6807,7.6933,-20.9615,2.0448,-6.5988,-1.9888,1643,2019-08-07 16:33:56:972
-33.0819,-10.7641,25.0868,25.5145,4.3295,-14.8995,1.4046,-8.0987,-2.4533,1648,2019-08-07 16:33:56:977
-29.9195,-8.0383,21.0707,25.5145,4.3295,-14.8995,1.4046,-8.0987,-2.4533,1652,2019-08-07 16:33:56:981
-29.9195,-8.0383,21.0707,25.5145,4.3295,-14.8995,0.7761,-9.0234,-2.8474,1658,2019-08-07 16:33:56:987
-24.9774,-7.0453,17.3279,25.5145,4.3295,-14.8995,0.7761,-9.0234,-2.8474,1662,2019-08-07 16:33:56:991
-24.9774,-7.0453,17.3279,18.9493,2.8535,-8.1728,0.3681,-9.2215,-3.0445,1668,2019-08-07 16:33:56:997
-24.9774,-7.0453,17.3279,18.9493,2.8535,-8.1728,0.3681,-9.2215,-3.0445,1673,2019-08-07 16:33:57:002
-19.6956,-7.3699,13.5663,18.9493,2.8535,-8.1728,0.2637,-8.8093,-3.1649,1678,2019-08-07 16:33:57:007
-19.6956,-7.3699,13.5663,18.9493,2.8535,-8.1728,0.2637,-8.8093,-3.1649,1682,2019-08-07 16:33:57:011
-19.6956,-7.3699,13.5663,14.1392,2.3563,0.023,0.2637,-8.8093,-3.1649,1688,2019-08-07 16:33:57:017
-15.9351,-6.6109,7.6882,14.1392,2.3563,0.023,0.2605,-7.6865,-3.2086,1692,2019-08-07 16:33:57:021
-15.9351,-6.6109,7.6882,14.1392,2.3563,0.023,0.2605,-7.6865,-3.2086,1698,2019-08-07 16:33:57:027
-15.7581,-5.5034,4.0632,14.1392,2.3563,0.023,0.3138,-6.7853,-3.0477,1703,2019-08-07 16:33:57:032
-15.7581,-5.5034,4.0632,14.1392,2.3563,0.023,0.3138,-6.7853,-3.0477,1707,2019-08-07 16:33:57:036
-15.7581,-5.5034,4.0632,15.842,0.6947,6.0306,0.4682,-6.292,-2.6972,1713,2019-08-07 16:33:57:042
-18.6382,-4.2669,0.4808,15.842,0.6947,6.0306,0.4682,-6.292,-2.6972,1718,2019-08-07 16:33:57:047
-18.6382,-4.2669,0.4808,15.842,0.6947,6.0306,0.7772,-6.0673,-2.1454,1723,2019-08-07 16:33:57:052
-22.2264,-2.9971,0.7872,22.7744,-1.3732,7.9785,0.7772,-6.0673,-2.1454,1728,2019-08-07 16:33:57:057
-22.2264,-2.9971,0.7872,22.7744,-1.3732,7.9785,1.0307,-6.5392,-1.8056,1732,2019-08-07 16:33:57:061
-22.2264,-2.9971,0.7872,22.7744,-1.3732,7.9785,1.0307,-6.5392,-1.8056,1738,2019-08-07 16:33:57:067
-23.7669,0.1775,-3.6674,22.7744,-1.3732,7.9785,1.2416,-7.1719,-1.5137,1742,2019-08-07 16:33:57:071
-23.7669,0.1775,-3.6674,22.7744,-1.3732,7.9785,1.2416,-7.1719,-1.5137,1747,2019-08-07 16:33:57:076
-19.4467,1.3471,-8.0229,23.6335,-5.4954,14.4964,1.3939,-8.6623,-1.2676,1753,2019-08-07 16:33:57:082
-19.4467,1.3471,-8.0229,23.6335,-5.4954,14.4964,1.3939,-8.6623,-1.2676,1757,2019-08-07 16:33:57:086
-19.4467,1.3471,-8.0229,23.6335,-5.4954,14.4964,1.4131,-10.8205,-1.0972,1763,2019-08-07 16:33:57:092
-12.567,0.6262,-15.0607,14.5231,-4.7757,22.6292,1.4131,-10.8205,-1.0972,1767,2019-08-07 16:33:57:096
-12.567,0.6262,-15.0607,14.5231,-4.7757,22.6292,1.4131,-10.8205,-1.0972,1773,2019-08-07 16:33:57:102
-6.0508,0.8601,-14.066,14.5231,-4.7757,22.6292,1.4035,-13.8629,-0.947,1778,2019-08-07 16:33:57:107
-6.0508,0.8601,-14.066,14.5231,-4.7757,22.6292,1.4035,-13.8629,-0.947,1783,2019-08-07 16:33:57:112
-6.0508,0.8601,-14.066,9.513,-4.345,25.0695,1.7817,-15.1614,-0.7233,1788,2019-08-07 16:33:57:117
-2.8071,0.5689,-19.0391,9.513,-4.345,25.0695,1.7817,-15.1614,-0.7233,1792,2019-08-07 16:33:57:121
-2.8071,0.5689,-19.0391,9.513,-4.345,25.0695,3.0898,-8.0412,-0.5454,1798,2019-08-07 16:33:57:127
-2.8071,0.5689,-19.0391,9.513,-4.345,25.0695,3.0898,-8.0412,-0.5454,1803,2019-08-07 16:33:57:132
4.5415,-1.8228,-27.7785,9.513,-4.345,25.0695,3.0898,-8.0412,-0.5454,1807,2019-08-07 16:33:57:136
4.5415,-1.8228,-27.7785,1.4265,-2.1784,33.2342,3.3562,-2.4933,-0.4815,1813,2019-08-07 16:33:57:142
4.5415,-1.8228,-27.7785,1.4265,-2.1784,33.2342,3.3562,-2.4933,-0.4815,1818,2019-08-07 16:33:57:147
-3.4194,4.2448,-22.7866,1.4265,-2.1784,33.2342,2.815,0.809,-0.0841,1822,2019-08-07 16:33:57:151
-3.4194,4.2448,-22.7866,1.4265,-2.1784,33.2342,2.815,0.809,-0.0841,1828,2019-08-07 16:33:57:157
-3.3572,4.6076,6.8727,10.0726,-6.47,-7.3073,1.868,0.27,0.0309,1832,2019-08-07 16:33:57:161
-3.3572,4.6076,6.8727,10.0726,-6.47,-7.3073,1.868,0.27,0.0309,1838,2019-08-07 16:33:57:167
-3.3572,4.6076,6.8727,10.0726,-6.47,-7.3073,1.868,0.27,0.0309,1843,2019-08-07 16:33:57:172
-3.4099,4.0013,-10.7192,10.0726,-6.47,-7.3073,1.2597,-1.5058,0.0416,1847,2019-08-07 16:33:57:176
-3.4099,4.0013,-10.7192,7.9388,-5.8382,10.4131,1.2597,-1.5058,0.0416,1853,2019-08-07 16:33:57:182
-3.4099,4.0013,-10.7192,7.9388,-5.8382,10.4131,1.019,-4.4758,-0.1225,1857,2019-08-07 16:33:57:186
-0.4771,3.2232,-10.8276,7.9388,-5.8382,10.4131,1.019,-4.4758,-0.1225,1863,2019-08-07 16:33:57:192
-0.4771,3.2232,-10.8276,7.9388,-5.8382,10.4131,0.8421,-6.9738,-0.3526,1867,2019-08-07 16:33:57:196
8.546,2.0058,-1.1266,1.083,-4.9892,9.9389,0.8421,-6.9738,-0.3526,1873,2019-08-07 16:33:57:202
8.546,2.0058,-1.1266,1.083,-4.9892,9.9389,0.4054,-8.7166,-0.4516,1877,2019-08-07 16:33:57:206
8.546,2.0058,-1.1266,-1.7557,-5.9801,19.203,0.4054,-8.7166,-0.4516,1883,2019-08-07 16:33:57:212
12.6844,1.7003,-18.2519,-1.7557,-5.9801,19.203,-0.0367,-3.7802,-0.2631,1887,2019-08-07 16:33:57:216
12.6844,1.7003,-18.2519,-1.7557,-5.9801,19.203,-0.0367,-3.7802,-0.2631,1893,2019-08-07 16:33:57:222
14.8995,3.543,-20.7926,-1.7557,-5.9801,19.203,-0.5981,-0.726,-0.0298,1898,2019-08-07 16:33:57:227
14.8995,3.543,-20.7926,-6.5065,-5.2691,24.0923,-0.5981,-0.726,-0.0298,1902,2019-08-07 16:33:57:231
14.8995,3.543,-20.7926,-6.5065,-5.2691,24.0923,-0.5981,-0.726,-0.0298,1908,2019-08-07 16:33:57:237
14.0,1.2468,-16.833,-4.8349,-3.0571,18.8116,-1.119,2.1598,0.358,1912,2019-08-07 16:33:57:241
14.0,1.2468,-16.833,-4.8349,-3.0571,18.8116,-1.119,2.1598,0.358,1918,2019-08-07 16:33:57:247
12.0098,-2.1235,2.5831,-4.8349,-3.0571,18.8116,-1.3353,4.3148,0.5699,1923,2019-08-07 16:33:57:252
12.0098,-2.1235,2.5831,-4.8349,-3.0571,18.8116,-1.3353,4.3148,0.5699,1928,2019-08-07 16:33:57:257
12.0098,-2.1235,2.5831,-0.8446,-1.2169,6.2221,-0.7462,1.4237,0.4133,1932,2019-08-07 16:33:57:261
2.1304,-1.374,-4.2142,-0.8446,-1.2169,6.2221,-0.7462,1.4237,0.4133,1938,2019-08-07 16:33:57:267
2.1304,-1.374,-4.2142,5.3284,-1.4943,7.863,-0.205,1.0561,0.6349,1942,2019-08-07 16:33:57:271
5.8764,-2.5293,-2.9933,5.3284,-1.4943,7.863,-0.205,1.0561,0.6349,1948,2019-08-07 16:33:57:277
5.8764,-2.5293,-2.9933,5.3284,-1.4943,7.863,0.0837,1.2788,0.4378,1953,2019-08-07 16:33:57:282
5.8764,-2.5293,-2.9933,5.3284,-1.4943,7.863,0.0837,1.2788,0.4378,1957,2019-08-07 16:33:57:286
5.1397,-1.4361,-4.2896,3.5102,-1.6317,9.2569,-0.1869,0.7653,0.2333,1963,2019-08-07 16:33:57:292
5.1397,-1.4361,-4.2896,3.5102,-1.6317,9.2569,-0.1869,0.7653,0.2333,1967,2019-08-07 16:33:57:296
5.1397,-0.7582,-0.0424,3.5102,-1.6317,9.2569,-0.2029,1.6985,0.1673,1973,2019-08-07 16:33:57:302
5.1397,-0.7582,-0.0424,3.5102,-1.6317,9.2569,-0.2029,1.6985,0.1673,1978,2019-08-07 16:33:57:307
5.1397,-0.7582,-0.0424,3.7148,-1.3211,6.7622,0.1348,1.902,0.0075,1983,2019-08-07 16:33:57:312
4.2498,-1.608,-2.635,3.7148,-1.3211,6.7622,0.1348,1.902,0.0075,1988,2019-08-07 16:33:57:317
4.2498,-1.608,-2.635,3.7148,-1.3211,6.7622,0.1902,2.4644,-0.229,1993,2019-08-07 16:33:57:322
4.2498,-1.608,-2.635,3.7148,-1.3211,6.7622,0.1902,2.4644,-0.229,1998,2019-08-07 16:33:57:327
3.2021,-0.4431,-2.6633,4.8932,-2.4744,7.9513,-0.0687,2.6519,-0.3899,2003,2019-08-07 16:33:57:332
3.2021,-0.4431,-2.6633,4.8932,-2.4744,7.9513,-0.0687,2.6519,-0.3899,2007,2019-08-07 16:33:57:336
2.3027,0.3254,-2.668,4.8932,-2.4744,7.9513,-0.3563,2.9225,-0.4708,2013,2019-08-07 16:33:57:342
2.3027,0.3254,-2.668,4.8932,-2.4744,7.9513,-0.3563,2.9225,-0.4708,2017,2019-08-07 16:33:57:346
2.3027,0.3254,-2.668,5.5332,-2.8173,8.2197,-0.3563,2.9225,-0.4708,2023,2019-08-07 16:33:57:352
2.1304,0.1011,-2.8283,5.5332,-2.8173,8.2197,-0.6162,3.1015,-0.4889,2027,2019-08-07 16:33:57:356
2.1304,0.1011,-2.8283,5.5332,-2.8173,8.2197,-0.6162,3.1015,-0.4889,2033,2019-08-07 16:33:57:362
2.1783,-0.2713,-3.5636,5.5332,-2.8173,8.2197,-0.8751,3.5435,-0.4666,2038,2019-08-07 16:33:57:367
2.1783,-0.2713,-3.5636,5.206,-2.372,9.6349,-0.8751,3.5435,-0.4666,2043,2019-08-07 16:33:57:372
2.1783,-0.2713,-3.5636,5.206,-2.372,9.6349,-1.0626,4.025,-0.4026,2048,2019-08-07 16:33:57:377
1.6281,-0.4909,-4.3367,5.206,-2.372,9.6349,-1.0626,4.025,-0.4026,2053,2019-08-07 16:33:57:382
1.6281,-0.4909,-4.3367,5.206,-2.372,9.6349,-1.0626,4.025,-0.4026,2058,2019-08-07 16:33:57:387
1.6281,-0.4909,-4.3367,5.9037,-2.0202,10.9726,-1.2458,4.6258,-0.2919,2063,2019-08-07 16:33:57:392
0.8052,-0.7678,-4.4781,5.9037,-2.0202,10.9726,-1.2458,4.6258,-0.2919,2068,2019-08-07 16:33:57:397
0.8052,-0.7678,-4.4781,5.9037,-2.0202,10.9726,-1.4333,5.5164,-0.131,2073,2019-08-07 16:33:57:402
-0.5487,-0.8585,-4.2047,5.9037,-2.0202,10.9726,-1.4333,5.5164,-0.131,2078,2019-08-07 16:33:57:407
-0.5487,-0.8585,-4.2047,7.3985,-2.1615,11.3038,-1.5483,6.196,0.0064,2083,2019-08-07 16:33:57:412
-0.5487,-0.8585,-4.2047,7.3985,-2.1615,11.3038,-1.5483,6.196,0.0064,2088,2019-08-07 16:33:57:417
-2.5225,-0.5193,-3.7905,7.3985,-2.1615,11.3038,-1.6144,6.8459,0.1939,2092,2019-08-07 16:33:57:421
-2.5225,-0.5193,-3.7905,7.3985,-2.1615,11.3038,-1.6144,6.8459,0.1939,2098,2019-08-07 16:33:57:427
-2.5225,-0.5193,-3.7905,9.607,-3.2964,10.1469,-1.5781,7.4083,0.538,2102,2019-08-07 16:33:57:431
-4.8142,0.0393,-2.4235,9.607,-3.2964,10.1469,-1.5781,7.4083,0.538,2108,2019-08-07 16:33:57:437
-4.8142,0.0393,-2.4235,9.607,-3.2964,10.1469,-1.5781,7.4083,0.538,2113,2019-08-07 16:33:57:442
-5.8811,-0.271,-2.6544,10.0609,-3.3278,10.5995,-1.6239,7.5841,0.8863,2118,2019-08-07 16:33:57:447
-5.8811,-0.271,-2.6544,10.0609,-3.3278,10.5995,-1.6239,7.5841,0.8863,2123,2019-08-07 16:33:57:452
-5.8811,-0.271,-2.6544,10.0609,-3.3278,10.5995,-1.8626,7.6619,1.3412,2128,2019-08-07 16:33:57:457
-7.4982,-1.7223,-2.1548,10.7075,-1.8091,10.5267,-1.8626,7.6619,1.3412,2133,2019-08-07 16:33:57:462
-7.4982,-1.7223,-2.1548,10.7075,-1.8091,10.5267,-2.0426,7.7322,1.7321,2137,2019-08-07 16:33:57:466
-8.2254,-3.0732,-1.1083,10.7075,-1.8091,10.5267,-2.0426,7.7322,1.7321,2143,2019-08-07 16:33:57:472
-8.2254,-3.0732,-1.1083,10.7075,-1.8091,10.5267,-2.0788,7.8728,2.0794,2147,2019-08-07 16:33:57:476
-8.2254,-3.0732,-1.1083,10.3856,0.4581,6.3976,-2.0788,7.8728,2.0794,2153,2019-08-07 16:33:57:482
-9.1871,-5.1499,2.9927,10.3856,0.4581,6.3976,-2.0788,7.8728,2.0794,2157,2019-08-07 16:33:57:486
-9.1871,-5.1499,2.9927,10.3856,0.4581,6.3976,-1.8636,8.1146,2.318,2163,2019-08-07 16:33:57:492
-9.1871,-5.1499,2.9927,10.3856,0.4581,6.3976,-1.8636,8.1146,2.318,2167,2019-08-07 16:33:57:496
-11.2013,-6.0616,5.5004,10.3856,0.4581,6.3976,-1.6484,8.2382,2.334,2173,2019-08-07 16:33:57:502
-11.2013,-6.0616,5.5004,12.0502,1.1081,2.9087,-1.5824,8.2669,2.3255,2178,2019-08-07 16:33:57:507
-14.0575,-5.0591,6.2311,12.0502,1.1081,2.9087,-1.5824,8.2669,2.3255,2183,2019-08-07 16:33:57:512
-14.0575,-5.0591,6.2311,12.0502,1.1081,2.9087,-1.6943,8.0134,2.4427,2188,2019-08-07 16:33:57:517
-14.0575,-5.0591,6.2311,12.0502,1.1081,2.9087,-1.6943,8.0134,2.4427,2192,2019-08-07 16:33:57:521
-16.0621,-3.8275,5.7691,14.0739,-1.1119,2.4702,-1.6943,8.0134,2.4427,2198,2019-08-07 16:33:57:527
-16.0621,-3.8275,5.7691,14.0739,-1.1119,2.4702,-1.8402,7.7705,2.661,2202,2019-08-07 16:33:57:531
-16.0621,-3.8275,5.7691,14.0739,-1.1119,2.4702,-1.8402,7.7705,2.661,2208,2019-08-07 16:33:57:537
-16.287,-5.7991,10.9543,14.0739,-1.1119,2.4702,-1.7219,7.632,2.8432,2213,2019-08-07 16:33:57:542
-16.287,-5.7991,10.9543,13.0774,2.0783,-5.666,-1.7219,7.632,2.8432,2218,2019-08-07 16:33:57:547
-16.287,-5.7991,10.9543,13.0774,2.0783,-5.666,-1.2223,7.2549,2.8592,2222,2019-08-07 16:33:57:551
-17.8036,-8.6395,16.097,13.0774,2.0783,-5.666,-1.2223,7.2549,2.8592,2228,2019-08-07 16:33:57:557
-17.8036,-8.6395,16.097,13.0774,2.0783,-5.666,-1.119,6.4251,2.7399,2233,2019-08-07 16:33:57:562
-17.8036,-8.6395,16.097,15.1517,3.1155,-9.586,-1.119,6.4251,2.7399,2238,2019-08-07 16:33:57:567
-20.9373,-7.6561,16.3469,15.1517,3.1155,-9.586,-1.4056,5.2458,2.6248,2243,2019-08-07 16:33:57:572
-20.9373,-7.6561,16.3469,15.1517,3.1155,-9.586,-1.4056,5.2458,2.6248,2248,2019-08-07 16:33:57:577
-20.2867,-7.4699,14.7583,15.1517,3.1155,-9.586,-1.4056,5.2458,2.6248,2253,2019-08-07 16:33:57:582
-20.2867,-7.4699,14.7583,13.731,2.8437,-7.9246,-1.7358,3.6522,2.5364,2258,2019-08-07 16:33:57:587
-20.2867,-7.4699,14.7583,13.731,2.8437,-7.9246,-1.7358,3.6522,2.5364,2263,2019-08-07 16:33:57:592
-16.5502,-9.3985,10.7233,13.731,2.8437,-7.9246,-1.8285,3.0322,2.4214,2267,2019-08-07 16:33:57:596
-16.5502,-9.3985,10.7233,13.731,2.8437,-7.9246,-1.8285,3.0322,2.4214,2273,2019-08-07 16:33:57:602
-14.3112,-11.7663,8.2768,8.0512,6.5461,-2.9135,-1.805,3.3859,2.285,2277,2019-08-07 16:33:57:606
-14.3112,-11.7663,8.2768,8.0512,6.5461,-2.9135,-1.805,3.3859,2.285,2283,2019-08-07 16:33:57:612
-14.3112,-11.7663,8.2768,8.0512,6.5461,-2.9135,-1.6559,4.4384,2.2008,2288,2019-08-07 16:33:57:617
-13.6271,-12.7736,7.0984,8.0512,6.5461,-2.9135,-1.6559,4.4384,2.2008,2292,2019-08-07 16:33:57:621
-13.6271,-12.7736,7.0984,7.0007,7.717,-1.8673,-1.4471,5.6954,2.0698,2298,2019-08-07 16:33:57:627
-13.6271,-12.7736,7.0984,7.0007,7.717,-1.8673,-1.4471,5.6954,2.0698,2303,2019-08-07 16:33:57:632
-17.2105,-10.7973,7.3293,7.0007,7.717,-1.8673,-1.2362,6.6488,1.8983,2308,2019-08-07 16:33:57:637
-17.2105,-10.7973,7.3293,7.0007,7.717,-1.8673,-1.2362,6.6488,1.8983,2313,2019-08-07 16:33:57:642
-22.2245,-9.4606,11.1239,13.2407,5.1157,-6.576,-1.0253,6.6488,1.7588,2317,2019-08-07 16:33:57:646
-22.2245,-9.4606,11.1239,13.2407,5.1157,-6.576,-1.0253,6.6488,1.7588,2323,2019-08-07 16:33:57:652
-22.2245,-9.4606,11.1239,13.2407,5.1157,-6.576,-0.8474,5.8626,1.6693,2327,2019-08-07 16:33:57:656
-24.4013,-9.5942,15.9933,13.2407,5.1157,-6.576,-0.8474,5.8626,1.6693,2333,2019-08-07 16:33:57:662
-24.4013,-9.5942,15.9933,15.9581,5.537,-14.3312,-0.5161,3.3273,1.3603,2337,2019-08-07 16:33:57:666
-23.8416,-9.8664,17.1859,15.9581,5.537,-14.3312,-0.5161,3.3273,1.3603,2343,2019-08-07 16:33:57:672
-23.8416,-9.8664,17.1859,15.9581,5.537,-14.3312,-0.3414,1.0807,0.9683,2348,2019-08-07 16:33:57:677
-23.8416,-9.8664,17.1859,15.9581,5.537,-14.3312,-0.3414,1.0807,0.9683,2352,2019-08-07 16:33:57:681
-19.641,-9.3699,15.7152,11.0809,5.2743,-13.2279,-0.3414,1.0807,0.9683,2358,2019-08-07 16:33:57:687
-19.641,-9.3699,15.7152,11.0809,5.2743,-13.2279,-0.2295,-1.2778,0.5593,2362,2019-08-07 16:33:57:691
-19.641,-9.3699,15.7152,11.0809,5.2743,-13.2279,-0.2295,-1.2778,0.5593,2368,2019-08-07 16:33:57:697
-13.3163,-9.6181,13.165,11.0809,5.2743,-13.2279,-0.0452,-2.2355,0.2621,2373,2019-08-07 16:33:57:702
-13.3163,-9.6181,13.165,1.7747,5.4944,-8.5095,-0.0452,-2.2355,0.2621,2378,2019-08-07 16:33:57:707
-8.7713,-9.3317,10.1057,1.7747,5.4944,-8.5095,0.1305,-2.3836,-0.1076,2383,2019-08-07 16:33:57:712
-8.7713,-9.3317,10.1057,1.7747,5.4944,-8.5095,0.1305,-2.3836,-0.1076,2388,2019-08-07 16:33:57:717
-8.7713,-9.3317,10.1057,1.7747,5.4944,-8.5095,0.1795,-1.8659,-0.3877,2392,2019-08-07 16:33:57:721
-5.9869,-8.3483,8.2815,-2.6172,3.9769,-4.8493,0.1795,-1.8659,-0.3877,2398,2019-08-07 16:33:57:727
-5.9869,-8.3483,8.2815,-2.6172,3.9769,-4.8493,0.1849,-1.0041,-0.6115,2402,2019-08-07 16:33:57:731
-5.6568,-6.9448,7.268,-2.6172,3.9769,-4.8493,0.1849,-1.0041,-0.6115,2408,2019-08-07 16:33:57:737
-5.6568,-6.9448,7.268,-2.6172,3.9769,-4.8493,0.1604,-0.0815,-0.7531,2413,2019-08-07 16:33:57:742
-5.6568,-6.9448,7.268,-1.5927,1.5927,-3.3268,0.1604,-0.0815,-0.7531,2418,2019-08-07 16:33:57:747
-7.293,-5.336,6.6788,-1.5927,1.5927,-3.3268,0.0112,0.6982,-0.7862,2423,2019-08-07 16:33:57:752
-7.293,-5.336,6.6788,-1.5927,1.5927,-3.3268,0.0112,0.6982,-0.7862,2427,2019-08-07 16:33:57:756
-7.293,-5.336,6.6788,-1.5927,1.5927,-3.3268,-0.1209,0.8207,-0.768,2433,2019-08-07 16:33:57:762
-9.3311,-4.9302,6.7306,1.5211,0.4624,-3.4917,-0.1209,0.8207,-0.768,2438,2019-08-07 16:33:57:767
-9.3311,-4.9302,6.7306,1.5211,0.4624,-3.4917,-0.2103,0.5502,-0.7233,2442,2019-08-07 16:33:57:771
-10.7425,-4.4337,6.3582,1.5211,0.4624,-3.4917,-0.2103,0.5502,-0.7233,2448,2019-08-07 16:33:57:777
-10.7425,-4.4337,6.3582,1.5211,0.4624,-3.4917,-0.2828,0.0101,-0.6764,2453,2019-08-07 16:33:57:782
-10.7425,-4.4337,6.3582,1.5211,0.4624,-3.4917,-0.2828,0.0101,-0.6764,2457,2019-08-07 16:33:57:786
-11.0966,-3.8895,5.6559,2.9596,-0.587,-2.4956,-0.3723,-0.6685,-0.6083,2463,2019-08-07 16:33:57:792
-11.0966,-3.8895,5.6559,2.9596,-0.587,-2.4956,-0.3723,-0.6685,-0.6083,2468,2019-08-07 16:33:57:797
-10.1302,-3.1448,3.8599,2.9596,-0.587,-2.4956,-0.4575,-1.2331,-0.5039,2473,2019-08-07 16:33:57:802
-10.1302,-3.1448,3.8599,1.4264,-1.4517,0.0043,-0.4575,-1.2331,-0.5039,2478,2019-08-07 16:33:57:807
-10.1302,-3.1448,3.8599,1.4264,-1.4517,0.0043,-0.5225,-1.5079,-0.424,2483,2019-08-07 16:33:57:812
-8.5179,-3.2164,2.2383,1.4264,-1.4517,0.0043,-0.5225,-1.5079,-0.424,2487,2019-08-07 16:33:57:816
-8.5179,-3.2164,2.2383,1.4264,-1.4517,0.0043,-0.5374,-1.5069,-0.375,2493,2019-08-07 16:33:57:822
-7.3793,-3.3787,1.1872,-0.5233,-1.2975,2.2652,-0.5374,-1.5069,-0.375,2498,2019-08-07 16:33:57:827
-7.3793,-3.3787,1.1872,-0.5233,-1.2975,2.2652,-0.5374,-1.5069,-0.375,2503,2019-08-07 16:33:57:832
-7.3793,-3.3787,1.1872,-0.5233,-1.2975,2.2652,-0.4862,-1.183,-0.3409,2508,2019-08-07 16:33:57:837
-6.676,-3.288,0.5319,-0.5233,-1.2975,2.2652,-0.4862,-1.183,-0.3409,2513,2019-08-07 16:33:57:842
-6.676,-3.288,0.5319,-1.345,-1.5318,3.3192,-0.4372,-0.775,-0.3185,2518,2019-08-07 16:33:57:847
-6.676,-3.288,0.5319,-1.345,-1.5318,3.3192,-0.4372,-0.775,-0.3185,2523,2019-08-07 16:33:57:852
-6.3507,-3.1973,0.0983,-1.345,-1.5318,3.3192,-0.4213,-0.4246,-0.3111,2527,2019-08-07 16:33:57:856
-6.3507,-3.1973,0.0983,-1.4331,-1.5096,3.4514,-0.4213,-0.4246,-0.3111,2533,2019-08-07 16:33:57:862
-6.3507,-3.1973,0.0983,-1.4331,-1.5096,3.4514,-0.3968,0.123,-0.3047,2537,2019-08-07 16:33:57:866
-6.7622,-3.4742,0.5272,-1.4331,-1.5096,3.4514,-0.3968,0.123,-0.3047,2543,2019-08-07 16:33:57:872
-6.7622,-3.4742,0.5272,-1.4331,-1.5096,3.4514,-0.3499,0.4372,-0.2823,2548,2019-08-07 16:33:57:877
-7.7239,-3.7845,1.3568,-0.2624,-1.1678,2.3974,-0.3499,0.4372,-0.2823,2553,2019-08-07 16:33:57:882
-7.7239,-3.7845,1.3568,-0.2624,-1.1678,2.3974,-0.3499,0.4372,-0.2823,2557,2019-08-07 16:33:57:886
-7.7239,-3.7845,1.3568,-0.2624,-1.1678,2.3974,-0.2668,0.4713,-0.2684,2563,2019-08-07 16:33:57:892
-8.7047,-3.7988,2.0403,-0.2624,-1.1678,2.3974,-0.2668,0.4713,-0.2684,2567,2019-08-07 16:33:57:896
-8.7047,-3.7988,2.0403,1.1304,-1.165,1.0815,-0.2167,0.2018,-0.2375,2573,2019-08-07 16:33:57:902
-9.03,-3.6938,2.4693,1.1304,-1.165,1.0815,-0.2167,0.2018,-0.2375,2577,2019-08-07 16:33:57:906
-9.03,-3.6938,2.4693,1.159,-1.2371,0.8136,-0.1944,-0.1029,-0.2077,2583,2019-08-07 16:33:57:912
-9.03,-3.6938,2.4693,1.159,-1.2371,0.8136,-0.1944,-0.1029,-0.2077,2588,2019-08-07 16:33:57:917
-8.4655,-3.584,2.5023,1.159,-1.2371,0.8136,-0.1784,-0.6291,-0.1449,2592,2019-08-07 16:33:57:921
-8.4655,-3.584,2.5023,1.159,-1.2371,0.8136,-0.1784,-0.6291,-0.1449,2598,2019-08-07 16:33:57:927
-7.5996,-3.8561,2.2713,-0.0247,-1.174,1.1466,-0.1667,-0.9295,-0.0905,2602,2019-08-07 16:33:57:931
-7.5996,-3.8561,2.2713,-0.0247,-1.174,1.1466,-0.1667,-0.9295,-0.0905,2608,2019-08-07 16:33:57:937
-6.8915,-4.0184,2.2949,-0.5964,-1.0257,1.2039,-0.1379,-1.0669,-0.0501,2613,2019-08-07 16:33:57:942
-6.8915,-4.0184,2.2949,-0.5964,-1.0257,1.2039,-0.1379,-1.0669,-0.0501,2617,2019-08-07 16:33:57:946
-6.8915,-4.0184,2.2949,-0.5964,-1.0257,1.2039,-0.0921,-1.0435,-0.0085,2623,2019-08-07 16:33:57:952
-6.1739,-4.2236,2.1299,-0.5964,-1.0257,1.2039,-0.0921,-1.0435,-0.0085,2627,2019-08-07 16:33:57:956
-6.1739,-4.2236,2.1299,-1.7979,-0.6378,1.5656,-0.0697,-0.8326,0.0043,2633,2019-08-07 16:33:57:962
-5.4706,-4.4576,2.0167,-1.7979,-0.6378,1.5656,-0.0697,-0.8326,0.0043,2638,2019-08-07 16:33:57:967
-5.4706,-4.4576,2.0167,-2.1556,-0.5386,1.7656,-0.0495,-0.6067,0.0085,2643,2019-08-07 16:33:57:972
-5.4706,-4.4576,2.0167,-2.1556,-0.5386,1.7656,-0.0495,-0.6067,0.0085,2648,2019-08-07 16:33:57:977
-5.4037,-4.6867,1.8517,-2.1556,-0.5386,1.7656,-0.0058,-0.1178,0.0096,2653,2019-08-07 16:33:57:982
-5.4037,-4.6867,1.8517,-2.1556,-0.5386,1.7656,-0.0058,-0.1178,0.0096,2658,2019-08-07 16:33:57:987
-5.9778,-4.9206,2.1864,-1.7994,-0.1286,1.6966,0.023,0.2636,0.0075,2663,2019-08-07 16:33:57:992
-5.9778,-4.9206,2.1864,-1.7994,-0.1286,1.6966,0.023,0.2636,0.0075,2668,2019-08-07 16:33:57:997
-5.9778,-4.9206,2.1864,-1.7994,-0.1286,1.6966,0.023,0.2636,0.0075,2672,2019-08-07 16:33:58:001
-6.8629,-5.0161,2.6955,-1.7994,-0.1286,1.6966,0.0624,0.5512,0.0245,2678,2019-08-07 16:33:58:007
-6.8629,-5.0161,2.6955,-0.3311,0.0013,0.6992,0.0624,0.5512,0.0245,2682,2019-08-07 16:33:58:011
-6.8629,-5.0161,2.6955,-0.3311,0.0013,0.6992,0.0698,0.7004,0.033,2688,2019-08-07 16:33:58:017
-8.0973,-4.849,3.4309,-0.3311,0.0013,0.6992,0.0698,0.7004,0.033,2692,2019-08-07 16:33:58:021
-8.0973,-4.849,3.4309,-0.3311,0.0013,0.6992,0.04,0.629,0.0554,2698,2019-08-07 16:33:58:027
-8.0973,-4.849,3.4309,1.0873,-0.2052,-0.361,0.04,0.629,0.0554,2703,2019-08-07 16:33:58:032
-8.9872,-4.8108,4.0154,1.0873,-0.2052,-0.361,0.04,0.629,0.0554,2707,2019-08-07 16:33:58:036
-8.9872,-4.8108,4.0154,1.0873,-0.2052,-0.361,-0.0037,0.3339,0.0927,2713,2019-08-07 16:33:58:042
-8.9872,-4.8108,4.0154,1.0873,-0.2052,-0.361,-0.0037,0.3339,0.0927,2717,2019-08-07 16:33:58:046
-9.0829,-4.7726,4.1756,1.3743,-0.2092,-0.6418,-0.0559,-0.04,0.1236,2723,2019-08-07 16:33:58:052
-9.0829,-4.7726,4.1756,1.3743,-0.2092,-0.6418,-0.0559,-0.04,0.1236,2728,2019-08-07 16:33:58:057
-8.8198,-4.7678,4.0766,1.3743,-0.2092,-0.6418,-0.0921,-0.3329,0.1342,2733,2019-08-07 16:33:58:062
-8.8198,-4.7678,4.0766,1.3743,-0.2092,-0.6418,-0.0921,-0.3329,0.1342,2738,2019-08-07 16:33:58:067
-8.3988,-4.744,3.8126,0.711,-0.2184,-0.2758,-0.0921,-0.3329,0.1342,2742,2019-08-07 16:33:58:071
-8.3988,-4.744,3.8126,0.711,-0.2184,-0.2758,-0.0836,-0.465,0.1321,2747,2019-08-07 16:33:58:076
-8.3988,-4.744,3.8126,0.711,-0.2184,-0.2758,-0.0836,-0.465,0.1321,2753,2019-08-07 16:33:58:082
-8.3988,-4.744,3.8126,0.711,-0.2184,-0.2758,-0.0836,-0.465,0.1321,2758,2019-08-07 16:33:58:087
-7.7003,-4.8633,3.5911,-0.1238,-0.06,0.1546,-0.075,-0.4981,0.1129,2763,2019-08-07 16:33:58:092
-7.7003,-4.8633,3.5911,-0.1238,-0.06,0.1546,-0.075,-0.4981,0.1129,2768,2019-08-07 16:33:58:097
-7.3942,-4.8299,3.3743,-0.1238,-0.06,0.1546,-0.0665,-0.3681,0.0714,2772,2019-08-07 16:33:58:101
-7.3942,-4.8299,3.3743,-0.1238,-0.06,0.1546,-0.0665,-0.3681,0.0714,2778,2019-08-07 16:33:58:107
-7.3942,-4.8299,3.3743,-0.3832,-0.1159,0.234,-0.0314,-0.2072,0.0522,2782,2019-08-07 16:33:58:111
-7.2746,-4.8156,3.3884,-0.3832,-0.1159,0.234,-0.0314,-0.2072,0.0522,2788,2019-08-07 16:33:58:117
-7.2746,-4.8156,3.3884,-0.3832,-0.1159,0.234,0.0155,-0.0262,0.032,2793,2019-08-07 16:33:58:122
-7.3416,-4.7678,3.4638,-0.3832,-0.1159,0.234,0.0155,-0.0262,0.032,2797,2019-08-07 16:33:58:126
-7.3416,-4.7678,3.4638,-0.1433,-0.2344,0.0497,0.0155,-0.0262,0.032,2803,2019-08-07 16:33:58:132
-7.3416,-4.7678,3.4638,-0.1433,-0.2344,0.0497,0.0549,0.0623,0.0053,2807,2019-08-07 16:33:58:136
-7.6334,-4.6007,3.6712,-0.1433,-0.2344,0.0497,0.0549,0.0623,0.0053,2813,2019-08-07 16:33:58:142
-7.6334,-4.6007,3.6712,-0.1433,-0.2344,0.0497,0.0837,0.0335,-0.0106,2817,2019-08-07 16:33:58:146
-8.1549,-4.3668,3.9116,0.5029,-0.5603,-0.2503,0.0837,0.0335,-0.0106,2823,2019-08-07 16:33:58:152
-8.1549,-4.3668,3.9116,0.5029,-0.5603,-0.2503,0.0965,-0.0805,-0.0106,2828,2019-08-07 16:33:58:157
-8.1549,-4.3668,3.9116,0.5029,-0.5603,-0.2503,0.0965,-0.0805,-0.0106,2833,2019-08-07 16:33:58:162
-8.1885,-4.2093,4.0577,0.5029,-0.5603,-0.2503,0.0837,-0.2584,-0.0192,2838,2019-08-07 16:33:58:167
-8.1885,-4.2093,4.0577,0.664,-0.8982,-0.2144,0.0837,-0.2584,-0.0192,2843,2019-08-07 16:33:58:172
-8.198,-4.004,3.8126,0.664,-0.8982,-0.2144,0.0698,-0.4395,-0.033,2848,2019-08-07 16:33:58:177
-8.198,-4.004,3.8126,0.664,-0.8982,-0.2144,0.0698,-0.4395,-0.033,2852,2019-08-07 16:33:58:181
-8.198,-4.004,3.8126,0.664,-0.8982,-0.2144,0.0379,-0.6238,-0.0533,2858,2019-08-07 16:33:58:187
-7.9206,-3.8274,3.5816,0.664,-0.8982,-0.2144,0.0379,-0.6238,-0.0533,2862,2019-08-07 16:33:58:191
-7.9206,-3.8274,3.5816,0.2735,-1.0652,0.2129,0.0027,-0.6824,-0.0724,2868,2019-08-07 16:33:58:197
-7.9206,-3.8274,3.5816,0.2735,-1.0652,0.2129,0.0027,-0.6824,-0.0724,2873,2019-08-07 16:33:58:202
-7.4613,-3.8131,3.3365,-0.1107,-1.1003,0.5053,-0.0452,-0.6525,-0.0916,2878,2019-08-07 16:33:58:207
-7.4613,-3.8131,3.3365,-0.1107,-1.1003,0.5053,-0.0452,-0.6525,-0.0916,2883,2019-08-07 16:33:58:212
-7.4613,-3.8131,3.3365,-0.1107,-1.1003,0.5053,-0.0452,-0.6525,-0.0916,2887,2019-08-07 16:33:58:216
-6.8538,-3.9706,3.1291,-0.1107,-1.1003,0.5053,-0.0868,-0.53,-0.1193,2893,2019-08-07 16:33:58:222
-6.8538,-3.9706,3.1291,-0.7452,-0.8644,0.8439,-0.0868,-0.53,-0.1193,2897,2019-08-07 16:33:58:226
-6.6863,-4.1711,3.0254,-0.7452,-0.8644,0.8439,-0.09,-0.3489,-0.1321,2903,2019-08-07 16:33:58:232
-6.6863,-4.1711,3.0254,-0.7452,-0.8644,0.8439,-0.09,-0.3489,-0.1321,2908,2019-08-07 16:33:58:237
-6.6863,-4.1711,3.0254,-0.7452,-0.8644,0.8439,-0.0814,-0.1625,-0.1257,2912,2019-08-07 16:33:58:241
-6.6433,-4.2761,3.0395,-0.8414,-0.6803,0.9166,-0.0814,-0.1625,-0.1257,2918,2019-08-07 16:33:58:247
-6.6433,-4.2761,3.0395,-0.8414,-0.6803,0.9166,-0.074,0.0111,-0.1108,2922,2019-08-07 16:33:58:251
-6.8921,-4.2379,3.2658,-0.8414,-0.6803,0.9166,-0.074,0.0111,-0.1108,2928,2019-08-07 16:33:58:257
-6.8921,-4.2379,3.2658,-0.8414,-0.6803,0.9166,-0.0708,0.0633,-0.0905,2933,2019-08-07 16:33:58:262
-6.8921,-4.2379,3.2658,-0.4601,-0.7299,0.4624,-0.0708,0.0633,-0.0905,2938,2019-08-07 16:33:58:267
-7.0883,-4.2475,3.6146,-0.4601,-0.7299,0.4624,-0.0697,0.0474,-0.0618,2943,2019-08-07 16:33:58:272
-7.0883,-4.2475,3.6146,-0.4601,-0.7299,0.4624,-0.0697,0.0474,-0.0618,2947,2019-08-07 16:33:58:276
-7.0883,-4.2475,3.6146,-0.4601,-0.7299,0.4624,-0.0697,0.0474,-0.0618,2953,2019-08-07 16:33:58:282
-7.2031,-4.2952,3.7136,-0.2722,-0.6943,0.2185,-0.0804,-0.0251,-0.0341,2958,2019-08-07 16:33:58:287
-7.2031,-4.2952,3.7136,-0.2722,-0.6943,0.2185,-0.0804,-0.0251,-0.0341,2962,2019-08-07 16:33:58:291
-7.251,-4.3334,3.756,-0.2722,-0.6943,0.2185,-0.1027,-0.1103,-0.0128,2968,2019-08-07 16:33:58:297
-7.251,-4.3334,3.756,-0.2722,-0.6943,0.2185,-0.1027,-0.1103,-0.0128,2973,2019-08-07 16:33:58:302
-7.251,-4.3334,3.756,-0.2886,-0.5394,0.3552,-0.1134,-0.17,0.0043,2978,2019-08-07 16:33:58:307
-7.1697,-4.5196,3.5392,-0.2886,-0.5394,0.3552,-0.1134,-0.17,0.0043,2983,2019-08-07 16:33:58:312
-7.1697,-4.5196,3.5392,-0.2886,-0.5394,0.3552,-0.1198,-0.1977,0.0043,2988,2019-08-07 16:33:58:317
-7.1266,-4.5959,3.4637,-0.2886,-0.5394,0.3552,-0.1198,-0.1977,0.0043,2993,2019-08-07 16:33:58:322
-7.1266,-4.5959,3.4637,-0.3474,-0.3369,0.436,-0.1059,-0.1572,0.0085,2998,2019-08-07 16:33:58:327
-7.1266,-4.5959,3.4637,-0.3474,-0.3369,0.436,-0.1059,-0.1572,0.0085,3003,2019-08-07 16:33:58:332
-7.0071,-4.6437,3.5014,-0.4425,-0.3642,0.456,-0.0804,-0.1188,0.0032,3008,2019-08-07 16:33:58:337
-7.0071,-4.6437,3.5014,-0.4425,-0.3642,0.456,-0.0804,-0.1188,0.0032,3013,2019-08-07 16:33:58:342
-7.0071,-4.6437,3.5014,-0.4425,-0.3642,0.456,-0.0804,-0.1188,0.0032,3018,2019-08-07 16:33:58:347
-7.0071,-4.6437,3.5014,-0.4425,-0.3642,0.456,-0.0804,-0.1188,0.0032,3023,2019-08-07 16:33:58:352
-6.854,-4.7057,3.3883,-0.6154,-0.2676,0.6289,-0.0804,-0.0847,-0.0043,3028,2019-08-07 16:33:58:357
-6.854,-4.7057,3.3883,-0.6154,-0.2676,0.6289,-0.0804,-0.0847,-0.0043,3033,2019-08-07 16:33:58:362
-6.854,-4.7057,3.3883,-0.6154,-0.2676,0.6289,-0.0548,0.1794,-0.0554,3037,2019-08-07 16:33:58:366
-7.2416,-4.8776,3.5061,-0.6154,-0.2676,0.6289,-0.0548,0.1794,-0.0554,3043,2019-08-07 16:33:58:372
-7.2416,-4.8776,3.5061,-0.0651,-0.1571,0.3561,-0.025,0.2189,-0.0501,3048,2019-08-07 16:33:58:377
-7.5143,-4.911,3.591,-0.0651,-0.1571,0.3561,-0.025,0.2189,-0.0501,3053,2019-08-07 16:33:58:382
-7.5143,-4.911,3.591,-0.0651,-0.1571,0.3561,-0.0197,0.1986,-0.0437,3058,2019-08-07 16:33:58:387
-7.5143,-4.911,3.591,-0.0651,-0.1571,0.3561,-0.0197,0.1986,-0.0437,3063,2019-08-07 16:33:58:392
-7.5909,-4.8442,3.8078,0.1284,-0.1939,0.0865,-0.0207,0.1283,-0.0575,3067,2019-08-07 16:33:58:396
-7.5909,-4.8442,3.8078,0.1284,-0.1939,0.0865,-0.0207,0.1283,-0.0575,3073,2019-08-07 16:33:58:402
-7.5909,-4.8442,3.8078,0.1284,-0.1939,0.0865,-0.0207,0.1283,-0.0575,3077,2019-08-07 16:33:58:406
-7.5605,-4.8396,3.7799,0.1284,-0.1939,0.0865,-0.025,0.0559,-0.066,3083,2019-08-07 16:33:58:412
-7.5605,-4.8396,3.7799,0.0918,-0.1893,0.1555,-0.025,0.0559,-0.066,3087,2019-08-07 16:33:58:416
-7.4504,-4.8873,3.7327,0.0918,-0.1893,0.1555,-0.0324,-0.0091,-0.0767,3093,2019-08-07 16:33:58:422
-7.4504,-4.8873,3.7327,0.0918,-0.1893,0.1555,-0.0324,-0.0091,-0.0767,3097,2019-08-07 16:33:58:426
-7.4504,-4.8873,3.7327,0.0918,-0.1893,0.1555,-0.0388,-0.0421,-0.0916,3103,2019-08-07 16:33:58:432
-7.3212,-4.9541,3.6338,-0.1562,-0.0998,0.2352,-0.0388,-0.0421,-0.0916,3108,2019-08-07 16:33:58:437
-7.3212,-4.9541,3.6338,-0.1562,-0.0998,0.2352,-0.0314,-0.0592,-0.0916,3113,2019-08-07 16:33:58:442
-7.1347,-4.935,3.6385,-0.1562,-0.0998,0.2352,-0.0239,-0.0709,-0.0756,3118,2019-08-07 16:33:58:447
-7.1347,-4.935,3.6385,-0.1562,-0.0998,0.2352,-0.0239,-0.0709,-0.0756,3123,2019-08-07 16:33:58:452
-7.1347,-4.935,3.6385,-0.6161,-0.1012,0.3731,-0.0239,-0.0709,-0.0756,3128,2019-08-07 16:33:58:457
-6.7902,-4.9971,3.5442,-0.6161,-0.1012,0.3731,-0.0314,-0.0432,-0.0703,3132,2019-08-07 16:33:58:461
-6.7902,-4.9971,3.5442,-0.6161,-0.1012,0.3731,-0.0314,-0.0432,-0.0703,3138,2019-08-07 16:33:58:467
-6.7184,-4.8968,3.6668,-0.6161,-0.1012,0.3731,-5.0E-4,0.0282,-0.0565,3143,2019-08-07 16:33:58:472
-6.7184,-4.8968,3.6668,-0.6793,-0.2094,0.1983,-5.0E-4,0.0282,-0.0565,3147,2019-08-07 16:33:58:476
-6.7184,-4.8968,3.6668,-0.6793,-0.2094,0.1983,0.0304,0.0793,-0.0309,3153,2019-08-07 16:33:58:482
-6.6658,-4.8348,3.629,-0.6793,-0.2094,0.1983,0.0304,0.0793,-0.0309,3157,2019-08-07 16:33:58:486
-6.6658,-4.8348,3.629,-0.6793,-0.2094,0.1983,0.0453,0.1219,-0.0181,3163,2019-08-07 16:33:58:492
-6.6515,-4.8205,3.5536,-0.7832,-0.2744,0.3199,0.0453,0.1219,-0.0181,3168,2019-08-07 16:33:58:497
-6.6515,-4.8205,3.5536,-0.7832,-0.2744,0.3199,0.0453,0.1219,-0.0181,3172,2019-08-07 16:33:58:501
-6.6515,-4.8205,3.5536,-0.7832,-0.2744,0.3199,0.0581,0.1645,-0.0128,3178,2019-08-07 16:33:58:507
-6.9433,-4.7775,3.6903,-0.7832,-0.2744,0.3199,0.0581,0.1645,-0.0128,3182,2019-08-07 16:33:58:511
-6.9433,-4.7775,3.6903,-0.359,-0.2709,0.1427,0.0752,0.1379,0.0171,3188,2019-08-07 16:33:58:517
-7.0677,-4.8539,3.6762,-0.359,-0.2709,0.1427,0.0752,0.1379,0.0171,3192,2019-08-07 16:33:58:521
-7.0677,-4.8539,3.6762,-0.359,-0.2709,0.1427,0.0858,0.091,0.0447,3198,2019-08-07 16:33:58:527
-7.0677,-4.8539,3.6762,-0.359,-0.2709,0.1427,0.0858,0.091,0.0447,3203,2019-08-07 16:33:58:532
-7.0677,-4.9303,3.7045,-0.359,-0.2709,0.1427,0.0858,0.091,0.0447,3207,2019-08-07 16:33:58:536
-7.0677,-4.9303,3.7045,-0.3563,-0.1773,0.0565,0.1018,0.0527,0.0639,3213,2019-08-07 16:33:58:542
-7.0964,-4.7823,3.8364,-0.3563,-0.1773,0.0565,0.1018,0.0527,0.0639,3217,2019-08-07 16:33:58:546
-7.0964,-4.7823,3.8364,-0.3563,-0.1773,0.0565,0.1146,0.0197,0.0991,3223,2019-08-07 16:33:58:552
-7.0964,-4.7823,3.8364,-0.53,-0.2986,0.0452,0.1146,0.0197,0.0991,3227,2019-08-07 16:33:58:556
-6.8955,-4.725,3.8223,-0.53,-0.2986,0.0452,0.1135,0.0516,0.1108,3233,2019-08-07 16:33:58:562
-6.8955,-4.725,3.8223,-0.53,-0.2986,0.0452,0.1135,0.0516,0.1108,3237,2019-08-07 16:33:58:566
-6.9529,-4.6963,3.926,-0.53,-0.2986,0.0452,0.1071,0.0985,0.1204,3243,2019-08-07 16:33:58:572
-6.9529,-4.6963,3.926,-0.53,-0.2986,0.0452,0.1071,0.0985,0.1204,3247,2019-08-07 16:33:58:576
-6.9529,-4.6963,3.926,-0.4711,-0.3147,-0.0247,0.0975,0.1528,0.1278,3253,2019-08-07 16:33:58:582
-7.1682,-4.7154,3.8977,-0.4711,-0.3147,-0.0247,0.0975,0.1528,0.1278,3258,2019-08-07 16:33:58:587
-7.1682,-4.7154,3.8977,-0.4711,-0.3147,-0.0247,0.0901,0.1933,0.1246,3263,2019-08-07 16:33:58:592
-7.1682,-4.7154,3.8977,-0.4711,-0.3147,-0.0247,0.0901,0.1933,0.1246,3267,2019-08-07 16:33:58:596
-7.5557,-4.725,3.9449,-0.024,-0.3013,-0.1156,0.0901,0.1954,0.1204,3273,2019-08-07 16:33:58:602
-7.5557,-4.725,3.9449,-0.024,-0.3013,-0.1156,0.0901,0.1954,0.1204,3278,2019-08-07 16:33:58:607
-7.5557,-4.725,3.9449,-0.024,-0.3013,-0.1156,0.0858,0.156,0.1087,3283,2019-08-07 16:33:58:612
-7.8332,-4.725,3.8647,-0.024,-0.3013,-6.0E-4,0.0858,0.156,0.1087,3288,2019-08-07 16:33:58:617
-7.8332,-4.725,3.8647,0.3469,-0.2175,-6.0E-4,0.0815,0.0953,0.0991,3292,2019-08-07 16:33:58:621
-7.8236,-4.7059,3.8176,0.3469,-0.2175,-6.0E-4,0.0815,0.0953,0.0991,3298,2019-08-07 16:33:58:627
-7.8236,-4.7059,3.8176,0.3469,-0.2175,-6.0E-4,0.0666,0.0303,0.0842,3302,2019-08-07 16:33:58:631
-7.8236,-4.7059,3.8176,0.3469,-0.2175,-6.0E-4,0.0666,0.0303,0.0842,3308,2019-08-07 16:33:58:637
-7.6466,-4.6581,3.7987,0.0928,-0.2961,0.0264,0.0645,-0.0027,0.0607,3312,2019-08-07 16:33:58:641
-7.6466,-4.6581,3.7987,0.0928,-0.2961,0.0264,0.0645,-0.0027,0.0607,3318,2019-08-07 16:33:58:647
-7.46,-4.6486,3.6856,0.0928,-0.2961,0.0264,0.0624,0.0037,0.0373,3322,2019-08-07 16:33:58:651
-7.46,-4.6486,3.6856,0.0928,-0.2961,0.0264,0.0624,0.0037,0.0373,3328,2019-08-07 16:33:58:657
-7.46,-4.6486,3.6856,-0.2719,-0.2734,0.1969,0.0613,0.0335,0.0181,3333,2019-08-07 16:33:58:662
-7.3452,-4.6295,3.6243,-0.2719,-0.2734,0.1969,0.0613,0.0335,0.0181,3337,2019-08-07 16:33:58:666
-7.3452,-4.6295,3.6243,-0.2719,-0.2734,0.1969,0.0634,0.1049,-0.0043,3343,2019-08-07 16:33:58:672
-7.3883,-4.6009,3.6526,-0.2719,-0.2734,0.1969,0.0634,0.1049,-0.0043,3348,2019-08-07 16:33:58:677
-7.3883,-4.6009,3.6526,-0.1359,-0.3243,0.1195,0.0634,0.1049,-0.0043,3352,2019-08-07 16:33:58:681
-7.3883,-4.6009,3.6526,-0.1359,-0.3243,0.1195,0.072,0.14,-0.0117,3358,2019-08-07 16:33:58:687
-7.5318,-4.5674,3.7704,-0.1359,-0.3243,0.1195,0.072,0.14,-0.0117,3363,2019-08-07 16:33:58:692
-7.5318,-4.5674,3.7704,-0.1359,-0.3243,0.1195,0.0752,0.1347,-0.0181,3368,2019-08-07 16:33:58:697
-7.6083,-4.4242,3.7657,0.0024,-0.4572,0.0266,0.0752,0.1347,-0.0181,3372,2019-08-07 16:33:58:701
-7.6083,-4.4242,3.7657,0.0024,-0.4572,0.0266,0.072,0.0963,-0.0106,3378,2019-08-07 16:33:58:707
-7.6083,-4.4242,3.7657,0.0024,-0.4572,0.0266,0.072,0.0963,-0.0106,3383,2019-08-07 16:33:58:712
-7.6275,-4.4385,3.7092,0.0024,-0.4572,0.0266,0.0645,0.0388,0.0,3388,2019-08-07 16:33:58:717
-7.6275,-4.4385,3.7092,-0.0331,-0.4738,0.0507,0.0645,0.0388,0.0,3393,2019-08-07 16:33:58:722
-7.4313,-4.4624,3.6667,-0.0331,-0.4738,0.0507,0.0634,-0.0102,0.0043,3397,2019-08-07 16:33:58:726
-7.4313,-4.4624,3.6667,-0.0331,-0.4738,0.0507,0.0634,-0.0102,0.0043,3403,2019-08-07 16:33:58:732
-7.4313,-4.4624,3.6667,-0.0331,-0.4738,0.0507,0.0656,-0.0453,0.0085,3407,2019-08-07 16:33:58:736
-7.1921,-4.4433,3.596,-0.392,-0.4709,0.2208,0.0656,-0.0453,0.0085,3413,2019-08-07 16:33:58:742
-7.1921,-4.4433,3.596,-0.392,-0.4709,0.2208,0.0709,-0.0432,0.0085,3418,2019-08-07 16:33:58:747
-7.1921,-4.4433,3.596,-0.392,-0.4709,0.2208,0.0709,-0.0432,0.0085,3422,2019-08-07 16:33:58:751
-7.0247,-4.4147,3.4263,-0.392,-0.4709,0.2208,0.0698,-0.0038,0.0032,3428,2019-08-07 16:33:58:757
-7.0247,-4.4147,3.4263,-0.5395,-0.4876,0.3634,0.0698,-0.0038,0.0032,3432,2019-08-07 16:33:58:761
-7.106,-4.4242,3.464,-0.5395,-0.4876,0.3634,0.0698,0.0569,0.0043,3438,2019-08-07 16:33:58:767
-7.106,-4.4242,3.464,-0.5395,-0.4876,0.3634,0.0698,0.0569,0.0043,3443,2019-08-07 16:33:58:772
-7.106,-4.4242,3.464,-0.5395,-0.4876,0.3634,0.072,0.1145,0.0075,3448,2019-08-07 16:33:58:777
-7.1778,-4.4242,3.3886,-0.3941,-0.5041,0.4237,0.072,0.1145,0.0075,3453,2019-08-07 16:33:58:782
-7.1778,-4.4242,3.3886,-0.3941,-0.5041,0.4237,0.0709,0.1805,0.0107,3457,2019-08-07 16:33:58:786
-7.3309,-4.4147,3.563,-0.3941,-0.5041,0.4237,0.0709,0.1805,0.0107,3463,2019-08-07 16:33:58:792
-7.3309,-4.4147,3.563,-0.3941,-0.5041,0.4237,0.0709,0.1805,0.0107,3467,2019-08-07 16:33:58:796
-7.3309,-4.4147,3.563,-0.1101,-0.5045,0.1369,0.0688,0.2178,0.0139,3473,2019-08-07 16:33:58:802
-7.5701,-4.3717,3.6997,-0.1101,-0.5045,0.1369,0.0688,0.2178,0.0139,3477,2019-08-07 16:33:58:806
-7.5701,-4.3717,3.6997,-0.1101,-0.5045,0.1369,0.0602,0.2114,0.0085,3483,2019-08-07 16:33:58:812
-7.8523,-4.4195,3.7987,-0.1101,-0.5045,0.1369,0.0602,0.2114,0.0085,3488,2019-08-07 16:33:58:817
-7.8523,-4.4195,3.7987,0.1877,-0.4191,-0.048,0.0432,0.1581,0.0085,3492,2019-08-07 16:33:58:821
-7.8523,-4.4195,3.7987,0.1877,-0.4191,-0.048,0.0432,0.1581,0.0085,3498,2019-08-07 16:33:58:827
-7.8571,-4.4624,3.8223,0.1877,-0.4191,-0.048,0.0261,0.0697,0.0128,3503,2019-08-07 16:33:58:832
-7.8571,-4.4624,3.8223,0.1877,-0.4191,-0.048,0.0261,0.0697,0.0128,3508,2019-08-07 16:33:58:837
-7.6418,-4.5102,3.7139,0.0067,-0.3646,0.0513,0.0176,0.0026,0.0107,3513,2019-08-07 16:33:58:842
-7.6418,-4.5102,3.7139,0.0067,-0.3646,0.0513,0.0176,0.0026,0.0107,3518,2019-08-07 16:33:58:847
-7.6418,-4.5102,3.7139,0.0067,-0.3646,0.0513,0.0155,-0.0432,0.0043,3522,2019-08-07 16:33:58:851
-7.5318,-4.5674,3.7186,0.0067,-0.3646,0.0513,0.0155,-0.0432,0.0043,3528,2019-08-07 16:33:58:857
-7.5318,-4.5674,3.7186,-0.1931,-0.318,0.1197,0.0155,-0.0645,0.0107,3532,2019-08-07 16:33:58:861
-7.307,-4.5531,3.629,-0.1931,-0.318,0.1197,0.0155,-0.0645,0.0107,3538,2019-08-07 16:33:58:867
-7.307,-4.5531,3.629,-0.1931,-0.318,0.1197,0.0134,-0.056,0.0107,3543,2019-08-07 16:33:58:872
-7.307,-4.5531,3.629,-0.1931,-0.318,0.1197,0.0134,-0.056,0.0107,3548,2019-08-07 16:33:58:877
-7.1299,-4.577,3.4452,-0.4627,-0.363,0.3228,0.0144,-0.0102,0.0021,3553,2019-08-07 16:33:58:882
-7.1299,-4.577,3.4452,-0.4627,-0.363,0.3228,0.0144,-0.0102,0.0021,3557,2019-08-07 16:33:58:886
-7.2352,-4.5102,3.4923,-0.4627,-0.363,0.3228,0.0176,0.0537,0.0011,3563,2019-08-07 16:33:58:892
-7.2352,-4.5102,3.4923,-0.4627,-0.363,0.3228,0.0176,0.0537,0.0011,3567,2019-08-07 16:33:58:896
-7.2352,-4.5102,3.4923,-0.4627,-0.363,0.3228,0.0176,0.0537,0.0011,3573,2019-08-07 16:33:58:902
-7.2304,-4.5149,3.5583,-0.3617,-0.3321,0.2794,0.0176,0.1017,0.0128,3578,2019-08-07 16:33:58:907
-7.2304,-4.5149,3.5583,-0.3617,-0.3321,0.2794,0.0176,0.1017,0.0128,3582,2019-08-07 16:33:58:911
-7.4266,-4.4958,3.6196,-0.3617,-0.3321,0.2794,0.0166,0.1432,0.0011,3588,2019-08-07 16:33:58:917
-7.4266,-4.4958,3.6196,-0.3617,-0.3321,0.2794,0.0166,0.1432,0.0011,3592,2019-08-07 16:33:58:921
-7.4266,-4.4958,3.6196,-0.081,-0.3863,0.0864,0.023,0.1454,-0.0011,3598,2019-08-07 16:33:58:927
-7.6706,-4.4385,3.6573,-0.081,-0.3863,0.0864,0.023,0.1454,-0.0011,3602,2019-08-07 16:33:58:931
-7.6706,-4.4385,3.6573,-0.081,-0.3863,0.0864,0.0208,0.1123,-0.0032,3608,2019-08-07 16:33:58:937
-7.7997,-4.4481,3.7563,0.1429,-0.4113,-0.0152,0.0208,0.1123,-0.0032,3613,2019-08-07 16:33:58:942
-7.7997,-4.4481,3.7563,0.1429,-0.4113,-0.0152,0.0048,0.025,-0.0064,3617,2019-08-07 16:33:58:946
-7.7997,-4.4481,3.7563,0.1429,-0.4113,-0.0152,0.0048,0.025,-0.0064,3623,2019-08-07 16:33:58:952
-7.728,-4.4624,3.6762,0.1429,-0.4113,-0.0152,0.0048,0.025,-0.0064,3627,2019-08-07 16:33:58:956
-7.728,-4.4624,3.6762,-0.0304,-0.3996,0.1504,0.007,-0.0421,-0.0064,3633,2019-08-07 16:33:58:962
-7.728,-4.4624,3.6762,-0.0304,-0.3996,0.1504,0.007,-0.0421,-0.0064,3637,2019-08-07 16:33:58:966
-7.5797,-4.4911,3.5347,-0.0304,-0.3996,0.1504,0.0038,-0.0773,-0.0053,3643,2019-08-07 16:33:58:972
-7.5797,-4.4911,3.5347,-0.0304,-0.3996,0.1504,-0.0069,-0.0762,-0.0043,3648,2019-08-07 16:33:58:977
-7.4601,-4.5388,3.5347,-0.0304,-0.3996,0.1504,-0.0069,-0.0762,-0.0043,3652,2019-08-07 16:33:58:981
-7.4601,-4.5388,3.5347,-0.2693,-0.3749,0.2749,-0.0069,-0.0762,-0.0043,3658,2019-08-07 16:33:58:987
-7.4601,-4.5388,3.5347,-0.2693,-0.3749,0.2749,-0.0133,-0.0411,-0.0053,3662,2019-08-07 16:33:58:991
-7.3548,-4.534,3.4876,-0.2693,-0.3749,0.2749,-0.0133,-0.0411,-0.0053,3668,2019-08-07 16:33:58:997
-7.3548,-4.534,3.4876,-0.2693,-0.3749,0.2749,-0.0079,0.0143,-0.0096,3673,2019-08-07 16:33:59:002
-7.3883,-4.5006,3.5159,-0.2635,-0.3562,0.2812,-0.0079,0.0143,-0.0096,3678,2019-08-07 16:33:59:007
-7.3883,-4.5006,3.5159,-0.2635,-0.3562,0.2812,-0.0037,0.058,-0.0149,3683,2019-08-07 16:33:59:012
-7.3883,-4.5006,3.5159,-0.2635,-0.3562,0.2812,-0.0037,0.058,-0.0149,3687,2019-08-07 16:33:59:016
-7.4409,-4.5579,3.5018,-0.2635,-0.3562,0.2812,-0.0154,0.0974,-0.0266,3693,2019-08-07 16:33:59:022
-7.4409,-4.5579,3.5018,-0.1388,-0.3638,0.2212,-0.0154,0.0974,-0.0266,3697,2019-08-07 16:33:59:026
-7.4409,-4.5579,3.5018,-0.1388,-0.3638,0.2212,-0.025,0.1091,-0.0362,3703,2019-08-07 16:33:59:032
-7.5988,-4.5388,3.6903,-0.1388,-0.3638,0.2212,-0.025,0.1091,-0.0362,3708,2019-08-07 16:33:59:037
-7.5988,-4.5388,3.6903,-0.1388,-0.3638,0.2212,-0.0282,0.0761,-0.0341,3712,2019-08-07 16:33:59:041
-7.6514,-4.5388,3.7657,-0.0769,-0.3215,-0.0461,-0.0282,0.0761,-0.0341,3718,2019-08-07 16:33:59:047
-7.6514,-4.5388,3.7657,-0.0769,-0.3215,-0.0461,-0.0282,0.0761,-0.0341,3722,2019-08-07 16:33:59:051
-7.6514,-4.5388,3.7657,-0.0769,-0.3215,-0.0461,-0.0303,0.0197,-0.0405,3728,2019-08-07 16:33:59:057
-7.6658,-4.5865,3.7752,-0.0769,-0.3215,-0.0461,-0.0303,0.0197,-0.0405,3733,2019-08-07 16:33:59:062
-7.6658,-4.5865,3.7752,-0.0174,-0.3136,0.0535,-0.0378,-0.0634,-0.033,3738,2019-08-07 16:33:59:067
-7.484,-4.5818,3.6337,-0.0174,-0.3136,0.0535,-0.0378,-0.0634,-0.033,3743,2019-08-07 16:33:59:072
-7.484,-4.5818,3.6337,-0.0174,-0.3136,0.0535,-0.0388,-0.1199,-0.0213,3747,2019-08-07 16:33:59:076
-7.484,-4.5818,3.6337,-0.0174,-0.3136,0.0535,-0.0388,-0.1199,-0.0213,3753,2019-08-07 16:33:59:082
-7.2926,-4.6056,3.6055,-0.3566,-0.2711,0.1285,-0.0399,-0.1476,-0.0085,3757,2019-08-07 16:33:59:086
-7.2926,-4.6056,3.6055,-0.3566,-0.2711,0.1285,-0.0399,-0.1476,-0.0085,3763,2019-08-07 16:33:59:092
-7.2065,-4.6725,3.4169,-0.3566,-0.2711,0.1285,-0.041,-0.1231,-0.0021,3768,2019-08-07 16:33:59:097
-7.2065,-4.6725,3.4169,-0.3566,-0.2711,0.1285,-0.041,-0.1231,-0.0021,3772,2019-08-07 16:33:59:101
-7.2065,-4.6725,3.4169,-0.4375,-0.1935,0.2151,-0.0346,-0.0922,0.0085,3778,2019-08-07 16:33:59:107
-7.2065,-4.5865,3.5112,-0.4375,-0.1935,0.2151,-0.0346,-0.0922,0.0085,3782,2019-08-07 16:33:59:111
-7.2065,-4.5865,3.5112,-0.4375,-0.1935,0.2151,-0.041,-0.0592,0.0213,3788,2019-08-07 16:33:59:117
-7.0534,-4.6104,3.4405,-0.4375,-0.1935,0.2151,-0.041,-0.0592,0.0213,3793,2019-08-07 16:33:59:122
-7.0534,-4.6104,3.4405,-0.4963,-0.2568,0.3005,-0.0452,-0.0038,0.0053,3798,2019-08-07 16:33:59:127
-7.0534,-4.6104,3.4405,-0.4963,-0.2568,0.3005,-0.0452,-0.0038,0.0053,3803,2019-08-07 16:33:59:132
-7.2735,-4.5388,3.4358,-0.4963,-0.2568,0.3005,-0.0399,0.0569,-0.0021,3807,2019-08-07 16:33:59:136
-7.2735,-4.5388,3.4358,-0.4963,-0.2568,0.3005,-0.0399,0.0569,-0.0021,3813,2019-08-07 16:33:59:142
-7.2735,-4.5388,3.4358,-0.2323,-0.3121,0.2229,-0.0431,0.0782,-0.0021,3817,2019-08-07 16:33:59:146
-7.35,-4.6009,3.4782,-0.2323,-0.3121,0.2229,-0.0431,0.0782,-0.0021,3823,2019-08-07 16:33:59:152
-7.35,-4.6009,3.4782,-0.2323,-0.3121,0.2229,-0.0484,0.0708,-0.0064,3827,2019-08-07 16:33:59:156
-7.4744,-4.5913,3.6243,-0.2323,-0.3121,0.2229,-0.0484,0.0708,-0.0064,3833,2019-08-07 16:33:59:162
-7.4744,-4.5913,3.6243,-0.1373,-0.2772,0.1178,-0.0463,0.0335,-0.0053,3837,2019-08-07 16:33:59:166
-7.4744,-4.5913,3.6243,-0.1373,-0.2772,0.1178,-0.0463,0.0335,-0.0053,3843,2019-08-07 16:33:59:172
-7.5558,-4.5865,3.662,-0.1373,-0.2772,0.1178,-0.0463,-0.0144,0.0053,3848,2019-08-07 16:33:59:177
-7.5558,-4.5865,3.662,-0.1373,-0.2772,0.1178,-0.0463,-0.0144,0.0053,3852,2019-08-07 16:33:59:181
-7.5462,-4.5627,3.6762,-0.0995,-0.3266,0.0487,-0.0474,-0.0741,0.0139,3858,2019-08-07 16:33:59:187
-7.5462,-4.5627,3.6762,-0.0995,-0.3266,0.0487,-0.0474,-0.0741,0.0139,3863,2019-08-07 16:33:59:192
-7.5462,-4.5627,3.6762,-0.0995,-0.3266,0.0487,-0.0463,-0.1167,0.0234,3868,2019-08-07 16:33:59:197
-7.3931,-4.6343,3.5819,-0.0995,-0.3266,0.0487,-0.0463,-0.1167,0.0234,3873,2019-08-07 16:33:59:202
-7.3931,-4.6343,3.5819,-0.3283,-0.2497,0.1551,-0.0506,-0.1327,0.0266,3877,2019-08-07 16:33:59:206
-7.2735,-4.6199,3.5253,-0.3283,-0.2497,0.1551,-0.0506,-0.1327,0.0266,3883,2019-08-07 16:33:59:212
-7.2735,-4.6199,3.5253,-0.3283,-0.2497,0.1551,-0.0516,-0.1274,0.033,3887,2019-08-07 16:33:59:216
-7.2735,-4.6199,3.5253,-0.3283,-0.2497,0.1551,-0.0516,-0.1274,0.033,3893,2019-08-07 16:33:59:222
-7.2161,-4.7202,3.3745,-0.4275,-0.1819,0.3856,-0.0378,-0.0847,0.0362,3898,2019-08-07 16:33:59:227
-7.2161,-4.7202,3.3745,-0.4275,-0.1819,0.3856,-0.0378,-0.0847,0.0362,3902,2019-08-07 16:33:59:231
-7.1491,-4.7202,3.4169,-0.4275,-0.1819,0.3856,-0.0303,-0.0304,0.0341,3908,2019-08-07 16:33:59:237
-7.1491,-4.7202,3.4169,-0.4275,-0.1819,0.3856,-0.0303,-0.0304,0.0341,3912,2019-08-07 16:33:59:241
-7.1491,-4.7202,3.4169,-0.4857,-0.2561,0.3632,-0.0197,0.0292,0.0234,3918,2019-08-07 16:33:59:247
-7.2209,-4.639,3.365,-0.4857,-0.2561,0.3632,-0.0197,0.0292,0.0234,3923,2019-08-07 16:33:59:252
-7.2209,-4.639,3.365,-0.4857,-0.2561,0.3632,-0.0218,0.0825,0.0053,3928,2019-08-07 16:33:59:257
-7.4266,-4.5865,3.3886,-0.4857,-0.2561,0.3632,-0.0218,0.0825,0.0053,3932,2019-08-07 16:33:59:261
-7.4266,-4.5865,3.3886,-0.1149,-0.2512,0.297,-0.0218,0.0825,0.0053,3938,2019-08-07 16:33:59:267
-7.4266,-4.5865,3.3886,-0.1149,-0.2512,0.297,-0.0229,0.1006,0.0043,3942,2019-08-07 16:33:59:271
-7.5654,-4.6629,3.5017,-0.1149,-0.2512,0.297,-0.0229,0.1006,0.0043,3948,2019-08-07 16:33:59:277
-7.5654,-4.6629,3.5017,-0.1149,-0.2512,0.297,-0.0165,0.09,-0.0043,3953,2019-08-07 16:33:59:282
-7.7137,-4.5961,3.6573,0.0636,-0.2898,0.063,-0.0165,0.09,-0.0043,3957,2019-08-07 16:33:59:286
-7.7137,-4.5961,3.6573,0.0636,-0.2898,0.063,-0.0111,0.0473,-0.0128,3963,2019-08-07 16:33:59:292
-7.7137,-4.5961,3.6573,0.0636,-0.2898,0.063,-0.0111,0.0473,-0.0128,3967,2019-08-07 16:33:59:296
-7.7089,-4.5197,3.5772,0.0636,-0.2898,0.063,-0.0111,0.0473,-0.0128,3973,2019-08-07 16:33:59:302
-7.7089,-4.5197,3.5772,0.0636,-0.2898,0.063,-0.0175,-0.0368,-0.0106,3977,2019-08-07 16:33:59:306
-7.6036,-4.4529,3.4216,0.0435,-0.4291,0.291,-0.0314,-0.0741,0.0021,3983,2019-08-07 16:33:59:312
-7.6036,-4.4529,3.4216,0.0435,-0.4291,0.291,-0.0314,-0.0741,0.0021,3987,2019-08-07 16:33:59:316
-7.6036,-4.4529,3.4216,0.0435,-0.4291,0.291,-0.0314,-0.0741,0.0021,3993,2019-08-07 16:33:59:322
-7.484,-4.5054,3.5159,-0.1444,-0.3905,0.1383,-0.0399,-0.0858,0.0202,3998,2019-08-07 16:33:59:327
-7.484,-4.5054,3.5159,-0.1444,-0.3905,0.1383,-0.009,-0.089,0.0288,4003,2019-08-07 16:33:59:332
-7.484,-4.5054,3.5159,-0.1444,-0.3905,0.1383,-0.009,-0.089,0.0288,4007,2019-08-07 16:33:59:336
-7.4553,-4.639,3.5536,-0.1444,-0.3905,0.1383,-0.009,-0.089,0.0288,4013,2019-08-07 16:33:59:342
-7.4553,-4.639,3.5536,-0.1444,-0.3905,0.1383,0.0155,-0.105,0.0245,4017,2019-08-07 16:33:59:346
-7.4075,-4.534,3.2802,-0.217,-0.3238,0.3694,0.0155,-0.105,0.0245,4023,2019-08-07 16:33:59:352
-7.4075,-4.534,3.2802,-0.217,-0.3238,0.3694,0.008,-0.1071,0.0266,4028,2019-08-07 16:33:59:357
-7.4075,-4.534,3.2802,-0.217,-0.3238,0.3694,0.008,-0.1071,0.0266,4033,2019-08-07 16:33:59:362
-7.1348,-4.577,3.3745,-0.217,-0.3238,0.3694,0.008,-0.0602,0.0139,4038,2019-08-07 16:33:59:367
-7.1348,-4.577,3.3745,-0.5476,-0.3294,0.3643,0.008,-0.0602,0.0139,4042,2019-08-07 16:33:59:371
-7.1348,-4.6438,3.4075,-0.5476,-0.3294,0.3643,0.0315,0.0015,0.0085,4048,2019-08-07 16:33:59:377
-7.1348,-4.6438,3.4075,-0.5476,-0.3294,0.3643,0.0315,0.0015,0.0085,4052,2019-08-07 16:33:59:381
-7.1348,-4.6438,3.4075,-0.5476,-0.3294,0.3643,0.0538,0.0569,0.0064,4058,2019-08-07 16:33:59:387
-7.1826,-4.7106,3.3226,-0.4583,-0.1639,0.4312,0.0538,0.0569,0.0064,4063,2019-08-07 16:33:59:392
-7.1826,-4.7106,3.3226,-0.4583,-0.1639,0.4312,0.056,0.1027,0.0043,4067,2019-08-07 16:33:59:396
-7.1826,-4.5961,3.4452,-0.4583,-0.1639,0.4312,0.056,0.1027,0.0043,4073,2019-08-07 16:33:59:402
-7.3788,-4.5961,3.4452,-0.4583,-0.1639,0.4312,0.0613,0.1145,0.0096,4077,2019-08-07 16:33:59:406
-7.3788,-4.5961,3.4452,-0.1811,-0.3301,0.2552,0.0613,0.1145,0.0096,4083,2019-08-07 16:33:59:412
-7.4974,-4.6391,3.4548,-0.1811,-0.3301,0.2552,0.0613,0.1006,0.0171,4088,2019-08-07 16:33:59:417
-7.4974,-4.6391,3.4548,-0.1811,-0.3301,0.2552,0.0613,0.1006,0.0171,4093,2019-08-07 16:33:59:422
-7.4974,-4.6391,3.4548,-0.1811,-0.3301,0.2552,0.0581,0.0697,0.0234,4098,2019-08-07 16:33:59:427
-7.5644,-4.5484,3.6104,-0.0955,-0.3118,0.1233,0.0581,0.0697,0.0234,4102,2019-08-07 16:33:59:431
-7.5644,-4.5484,3.6104,-0.0955,-0.3118,0.1233,0.0496,0.0346,0.0288,4108,2019-08-07 16:33:59:437
-7.4926,-4.5198,3.6245,-0.0955,-0.3118,0.1233,0.0496,0.0346,0.0288,4113,2019-08-07 16:33:59:442
-7.4926,-4.5198,3.6245,-0.0955,-0.3118,0.1233,0.0496,0.0346,0.0288,4118,2019-08-07 16:33:59:447
-7.4926,-4.5198,3.6245,-0.1684,-0.3165,0.119,0.0421,0.0079,0.0298,4123,2019-08-07 16:33:59:452
-7.4878,-4.515,3.6387,-0.1684,-0.3165,0.119,0.0421,0.0079,0.0298,4127,2019-08-07 16:33:59:456
-7.4878,-4.515,3.6387,-0.1684,-0.3165,0.119,0.0453,0.0133,0.0234,4133,2019-08-07 16:33:59:462
-7.4878,-4.515,3.6387,-0.1684,-0.3165,0.119,0.0453,0.0133,0.0234,4137,2019-08-07 16:33:59:466
-7.5931,-4.5532,3.6151,-0.1008,-0.2935,0.1216,0.0411,0.0058,0.0203,4143,2019-08-07 16:33:59:472
-7.5931,-4.5532,3.6151,-0.1008,-0.2935,0.1216,0.0411,0.0058,0.0203,4148,2019-08-07 16:33:59:477
-7.5835,-4.5628,3.6434,-0.1008,-0.2935,0.1216,0.0411,0.0058,0.0203,4152,2019-08-07 16:33:59:481
-7.5835,-4.5628,3.6434,-0.1008,-0.2935,0.1216,0.0336,-0.0144,0.016,4158,2019-08-07 16:33:59:487
-7.5835,-4.5628,3.6434,-0.0502,-0.3487,0.1972,0.0336,-0.0144,0.016,4162,2019-08-07 16:33:59:491
-7.6074,-4.5007,3.5255,-0.0502,-0.3487,0.1972,0.0315,-0.023,0.0085,4168,2019-08-07 16:33:59:497
-7.6457,-4.5389,3.6858,-0.0502,-0.3487,0.1972,0.0272,-0.0176,0.0117,4176,2019-08-07 16:33:59:505
-7.6457,-4.5389,3.6858,-0.0502,-0.3487,0.1972,0.0272,-0.0176,0.0117,4177,2019-08-07 16:33:59:506
-7.6457,-4.5389,3.6858,-0.0746,-0.2098,-0.0044,0.0272,-0.0176,0.0117,4183,2019-08-07 16:33:59:512
-7.6457,-4.5389,3.6858,-0.0746,-0.2098,-0.0044,0.0325,-0.007,0.016,4188,2019-08-07 16:33:59:517
-7.6552,-4.62,3.6811,-0.0746,-0.2098,-0.0044,0.0325,-0.007,0.016,4192,2019-08-07 16:33:59:521
-7.6552,-4.62,3.6811,-0.0746,-0.2098,-0.0044,0.0293,-0.0017,-0.0032,4198,2019-08-07 16:33:59:527
-7.6552,-4.62,3.6811,-0.0517,-0.2913,0.103,0.0293,-0.0017,-0.0032,4202,2019-08-07 16:33:59:531
-7.6552,-4.5723,3.6434,-0.0517,-0.2913,0.103,0.0166,-0.0038,-0.0234,4208,2019-08-07 16:33:59:537
-7.6552,-4.5723,3.6434,-0.0517,-0.2913,0.103,0.0166,-0.0038,-0.0234,4213,2019-08-07 16:33:59:542
-7.459,-4.558,3.5255,-0.0517,-0.2913,0.103,-0.0047,-0.0112,-0.0373,4217,2019-08-07 16:33:59:546
-7.459,-4.558,3.5255,-0.3356,-0.2333,0.2455,-0.0047,-0.0112,-0.0373,4223,2019-08-07 16:33:59:552
-7.459,-4.558,3.5255,-0.3356,-0.2333,0.2455,-0.0197,0.0047,-0.0607,4227,2019-08-07 16:33:59:556
-7.2772,-4.5866,3.5444,-0.3356,-0.2333,0.2455,-0.0197,0.0047,-0.0607,4233,2019-08-07 16:33:59:562
-7.2772,-4.5866,3.5444,-0.3356,-0.2333,0.2455,-0.0261,0.0505,-0.0639,4237,2019-08-07 16:33:59:566
-7.1528,-4.5198,3.6764,-0.5139,-0.321,0.0685,-0.0261,0.0505,-0.0639,4243,2019-08-07 16:33:59:572
-7.1528,-4.5198,3.6764,-0.5139,-0.321,0.0685,-0.0111,0.0804,-0.0543,4248,2019-08-07 16:33:59:577
-7.1528,-4.5198,3.6764,-0.5139,-0.321,0.0685,-0.0111,0.0804,-0.0543,4252,2019-08-07 16:33:59:581
-7.2389,-4.5723,3.7377,-0.5139,-0.321,0.0685,0.0091,0.091,-0.0373,4258,2019-08-07 16:33:59:587
-7.2389,-4.5723,3.7377,-0.5139,-0.321,0.0685,0.0091,0.091,-0.0373,4262,2019-08-07 16:33:59:591
-7.2389,-4.5723,3.7377,-0.339,-0.2938,0.0468,0.0293,0.0846,-0.0181,4268,2019-08-07 16:33:59:597
-7.3585,-4.5198,3.5821,-0.339,-0.2938,0.0468,0.0293,0.0846,-0.0181,4273,2019-08-07 16:33:59:602
-7.3585,-4.5198,3.5821,-0.339,-0.2938,0.0468,0.0315,0.0612,0.0043,4278,2019-08-07 16:33:59:607
-7.4159,-4.4816,3.601,-0.339,-0.2938,0.0468,0.0315,0.0612,0.0043,4283,2019-08-07 16:33:59:612
-7.4159,-4.4816,3.601,-0.282,-0.3868,0.1429,0.0144,0.025,0.0181,4288,2019-08-07 16:33:59:617
-7.4159,-4.4816,3.601,-0.282,-0.3868,0.1429,0.0144,0.025,0.0181,4293,2019-08-07 16:33:59:622
-7.3442,-4.4196,3.5114,-0.282,-0.3868,0.1429,0.0027,0.009,0.0181,4297,2019-08-07 16:33:59:626
-7.3442,-4.4196,3.5114,-0.282,-0.3868,0.1429,0.0027,0.009,0.0181,4303,2019-08-07 16:33:59:632
-7.2867,-4.4482,3.3936,-0.3816,-0.4059,0.3013,-0.0037,0.0143,0.0224,4308,2019-08-07 16:33:59:637
-7.2867,-4.4482,3.3936,-0.3816,-0.4059,0.3013,-0.0037,0.0143,0.0224,4313,2019-08-07 16:33:59:642
-7.2867,-4.4482,3.3936,-0.3816,-0.4059,0.3013,-0.009,0.0527,0.0128,4318,2019-08-07 16:33:59:647
-7.3202,-4.4387,3.3464,-0.3816,-0.4059,0.3013,-0.009,0.0527,0.0128,4322,2019-08-07 16:33:59:651
-7.3202,-4.4387,3.3464,-0.3297,-0.3604,0.3829,-0.0058,0.0974,0.0032,4327,2019-08-07 16:33:59:656
-7.4255,-4.4912,3.304,-0.3297,-0.3604,0.3829,-0.0058,0.0974,0.0032,4333,2019-08-07 16:33:59:662
-7.4255,-4.4912,3.304,-0.3297,-0.3604,0.3829,0.0102,0.1272,-0.0021,4337,2019-08-07 16:33:59:666
-7.4255,-4.4912,3.304,-0.3297,-0.3604,0.3829,0.0102,0.1272,-0.0021,4343,2019-08-07 16:33:59:672
-7.4589,-4.5246,3.3841,-0.2344,-0.3116,0.3118,0.0325,0.1368,-0.0042,4347,2019-08-07 16:33:59:676
-7.4589,-4.5246,3.3841,-0.2344,-0.3116,0.3118,0.0325,0.1368,-0.0042,4353,2019-08-07 16:33:59:682
-7.4589,-4.5246,3.3841,-0.2344,-0.3116,0.3118,0.0325,0.1368,-0.0042,4357,2019-08-07 16:33:59:686
-7.5642,-4.5676,3.5114,-0.2344,-0.3116,0.3118,0.0794,0.123,-0.0011,4363,2019-08-07 16:33:59:692
-7.5642,-4.5676,3.5114,-0.0292,-0.3112,0.1985,0.0794,0.123,-0.0011,4367,2019-08-07 16:33:59:696
-7.6264,-4.5007,3.4643,-0.0292,-0.3112,0.1985,0.0975,0.0686,0.0043,4373,2019-08-07 16:33:59:702
-7.6264,-4.5007,3.4643,-0.0292,-0.3112,0.1985,0.0975,0.0686,0.0043,4378,2019-08-07 16:33:59:707
-7.6264,-4.5007,3.4643,-0.0292,-0.3112,0.1985,0.0954,0.0356,0.0117,4383,2019-08-07 16:33:59:712
-7.5307,-4.5771,3.4737,-0.1643,-0.2919,0.1895,0.0954,0.0356,0.0117,4387,2019-08-07 16:33:59:716
-7.5307,-4.5771,3.4737,-0.1643,-0.2919,0.1895,0.0858,-0.0251,0.0245,4393,2019-08-07 16:33:59:722
-7.5307,-4.5771,3.4737,-0.1643,-0.2919,0.1895,0.0858,-0.0251,0.0245,4398,2019-08-07 16:33:59:727
-7.4685,-4.5962,3.6717,-0.1643,-0.2919,0.1895,0.121,-0.0304,0.0288,4403,2019-08-07 16:33:59:732
-7.4685,-4.5962,3.6717,-0.208,-0.223,0.0761,0.121,-0.0304,0.0288,4408,2019-08-07 16:33:59:737
-7.4685,-4.5962,3.6717,-0.208,-0.223,0.0761,0.121,-0.0304,0.0288,4413,2019-08-07 16:33:59:742
-7.4063,-4.5485,3.535,-0.208,-0.223,0.0761,0.1476,-0.0091,0.0405,4418,2019-08-07 16:33:59:747
-7.4063,-4.5485,3.535,-0.208,-0.223,0.0761,0.1476,-0.0091,0.0405,4423,2019-08-07 16:33:59:752
-7.4063,-4.5485,3.535,0.0785,-0.4751,0.057,0.0517,-0.1146,0.0266,4428,2019-08-07 16:33:59:757
-7.6694,-4.3289,3.8178,0.0785,-0.4751,0.057,0.0517,-0.1146,0.0266,4432,2019-08-07 16:33:59:761
-7.6694,-4.3289,3.8178,0.0785,-0.4751,0.057,0.0975,-0.0592,0.0394,4438,2019-08-07 16:33:59:767
-7.478,-4.4721,3.6623,0.0785,-0.4751,0.057,0.1124,-0.073,0.0181,4443,2019-08-07 16:33:59:772
-7.478,-4.4721,3.6623,-0.1833,-0.2798,0.0447,0.1124,-0.073,0.0181,4447,2019-08-07 16:33:59:776
-7.4923,-4.4387,3.8697,-0.1833,-0.2798,0.0447,0.1348,-0.024,0.0075,4453,2019-08-07 16:33:59:782
-7.4923,-4.4387,3.8697,-0.2778,-0.3072,-0.1148,0.1348,-0.024,0.0075,4459,2019-08-07 16:33:59:788
-7.4923,-4.4387,3.8697,-0.2778,-0.3072,-0.1148,0.1827,0.0271,0.0075,4463,2019-08-07 16:33:59:792
-7.344,-4.4625,3.8555,-0.2778,-0.3072,-0.1148,0.1827,0.0271,0.0075,4468,2019-08-07 16:33:59:797
-7.344,-4.4625,3.8555,-0.2778,-0.3072,-0.1148,0.1913,0.0601,0.0075,4473,2019-08-07 16:33:59:802
-7.344,-4.4625,3.8555,-0.1897,-0.2912,-0.039,0.1913,0.0601,0.0075,4478,2019-08-07 16:33:59:807
-7.4971,-4.4721,3.7801,-0.1897,-0.2912,-0.039,0.1913,0.0601,0.0075,4482,2019-08-07 16:33:59:811
-7.4971,-4.4721,3.7801,-0.1897,-0.2912,-0.039,0.1657,0.058,0.016,4488,2019-08-07 16:33:59:817
-7.3918,-4.4053,3.7141,-0.1897,-0.2912,-0.039,0.1657,0.058,0.016,4492,2019-08-07 16:33:59:821
-7.3918,-4.4053,3.7141,-0.3772,-0.3527,0.0624,0.1039,0.0399,0.0149,4498,2019-08-07 16:33:59:827
-7.3918,-4.4053,3.7141,-0.3772,-0.3527,0.0624,0.1039,0.0399,0.0149,4503,2019-08-07 16:33:59:832
-7.3296,-4.2811,3.6481,-0.3772,-0.3527,0.0624,0.1039,0.0399,0.0149,4507,2019-08-07 16:33:59:836
-7.3296,-4.2811,3.6481,-0.3772,-0.3527,0.0624,0.0229,0.0186,0.0085,4513,2019-08-07 16:33:59:842
-7.521,-4.3336,3.8178,-0.1986,-0.4043,-0.0501,0.0229,0.0186,0.0085,4517,2019-08-07 16:33:59:846
-7.521,-4.3336,3.8178,-0.1986,-0.4043,-0.0501,-0.0356,-0.0027,0.0128,4523,2019-08-07 16:33:59:852
-7.521,-4.3336,3.8178,-0.1986,-0.4043,-0.0501,-0.0356,-0.0027,0.0128,4527,2019-08-07 16:33:59:856
-7.5401,-4.4625,3.8178,-0.1986,-0.4043,-0.0501,-0.0399,-0.0134,0.0171,4533,2019-08-07 16:33:59:862
-7.5401,-4.4625,3.8178,-0.2717,-0.2839,0.0381,-0.0399,-0.0134,0.0171,4537,2019-08-07 16:33:59:866