ACCELEROMETER X (m/s²),ACCELEROMETER Y (m/s²),ACCELEROMETER Z (m/s²),LINEAR ACCELERATION X (m/s²),LINEAR ACCELERATION Y (m/s²),LINEAR ACCELERATION Z (m/s²),GYROSCOPE X (rad/s),GYROSCOPE Y (rad/s),GYROSCOPE Z (rad/s),Time since start in ms ,YYYY-MO-DD HH-MI-SS_SSS
-6.4251,-6.7731,1.4563,-0.1444,-0.2768,0.137,-0.0324,0.0601,0.0192,4,2019-08-07 16:49:29:858
-6.516,-6.8543,1.3573,-0.1444,-0.2768,0.137,-0.0324,0.0601,0.0192,8,2019-08-07 16:49:29:862
-6.516,-6.8543,1.3573,-0.1444,-0.2768,0.137,-0.0388,0.0569,0.0128,14,2019-08-07 16:49:29:868
-6.516,-6.8543,1.3573,-0.1444,-0.2768,0.137,-0.0388,0.0569,0.0128,18,2019-08-07 16:49:29:872
-6.5016,-6.9115,1.4139,-0.1013,-0.2228,0.1092,-0.0303,0.0484,0.0149,24,2019-08-07 16:49:29:878
-6.5016,-6.9115,1.4139,-0.1013,-0.2228,0.1092,-0.0303,0.0484,0.0149,29,2019-08-07 16:49:29:883
-6.5112,-6.945,1.4704,-0.1013,-0.2228,0.1092,-0.0175,0.0346,0.0128,33,2019-08-07 16:49:29:887
-6.5112,-6.945,1.4704,-0.1575,-0.1451,0.067,-0.0175,0.0346,0.0128,39,2019-08-07 16:49:29:893
-6.5112,-6.945,1.4704,-0.1575,-0.1451,0.067,-0.0175,0.0346,0.0128,43,2019-08-07 16:49:29:897
-6.4681,-6.9259,1.4987,-0.1575,-0.1451,0.067,-0.0058,0.0196,0.0139,49,2019-08-07 16:49:29:903
-6.4681,-6.9259,1.4987,-0.1575,-0.1451,0.067,6.0E-4,0.0015,0.0149,54,2019-08-07 16:49:29:908
-6.4681,-6.9259,1.4987,-0.1575,-0.1451,0.067,6.0E-4,0.0015,0.0149,58,2019-08-07 16:49:29:912
-6.4777,-6.8686,1.5506,-0.1408,-0.21,-0.0432,0.0038,-0.024,0.0181,64,2019-08-07 16:49:29:918
-6.4777,-6.8686,1.5506,-0.1408,-0.21,-0.0432,0.0038,-0.024,0.0181,69,2019-08-07 16:49:29:923
-6.4777,-6.8686,1.5506,-0.1408,-0.21,-0.0432,0.0038,-0.024,0.0181,73,2019-08-07 16:49:29:927
-6.4681,-6.7683,1.5459,-0.1663,-0.317,-0.0138,0.0123,-0.0432,0.0128,79,2019-08-07 16:49:29:933
-6.4681,-6.7683,1.5459,-0.1663,-0.317,-0.0138,0.0123,-0.0432,0.0128,84,2019-08-07 16:49:29:938
-6.449,-6.7588,1.4752,-0.1663,-0.317,-0.0138,0.0112,-0.0485,0.0053,88,2019-08-07 16:49:29:942
-6.449,-6.7588,1.4752,-0.1663,-0.317,-0.0138,0.0112,-0.0485,0.0053,94,2019-08-07 16:49:29:948
-6.4203,-6.7301,1.4422,-0.1991,-0.3495,0.0744,0.008,-0.0475,-0.0064,99,2019-08-07 16:49:29:953
-6.4203,-6.7301,1.4422,-0.1991,-0.3495,0.0744,0.008,-0.0475,-0.0064,104,2019-08-07 16:49:29:958
-6.4203,-6.7301,1.4422,-0.1991,-0.3495,0.0744,-0.0016,-0.0081,-0.0255,109,2019-08-07 16:49:29:963
-6.425,-6.6824,1.4139,-0.193,-0.3981,0.104,-0.0016,-0.0081,-0.0255,113,2019-08-07 16:49:29:967
-6.425,-6.6824,1.4139,-0.193,-0.3981,0.104,-0.0122,0.0122,-0.0319,119,2019-08-07 16:49:29:973
-6.425,-6.6824,1.4139,-0.193,-0.3981,0.104,-0.0122,0.0122,-0.0319,124,2019-08-07 16:49:29:978
-6.492,-6.6347,1.3573,-0.193,-0.3981,0.104,-0.0207,0.0218,-0.0405,128,2019-08-07 16:49:29:982
-6.492,-6.6347,1.3573,-0.1371,-0.3781,0.0907,-0.0207,0.0218,-0.0405,134,2019-08-07 16:49:29:988
-6.4394,-6.6824,1.461,-0.1371,-0.3781,0.0907,-0.0282,0.0218,-0.0373,138,2019-08-07 16:49:29:992
-6.4394,-6.6824,1.461,-0.1371,-0.3781,0.0907,-0.0282,0.0218,-0.0373,144,2019-08-07 16:49:29:998
-6.4394,-6.6824,1.461,-0.1371,-0.3781,0.0907,-0.0271,0.0133,-0.0373,149,2019-08-07 16:49:30:003
-6.4442,-6.7827,1.494,-0.1665,-0.3069,0.0138,-0.0271,0.0133,-0.0373,154,2019-08-07 16:49:30:008
-6.4442,-6.7827,1.494,-0.1665,-0.3069,0.0138,-0.025,-6.0E-4,-0.0287,159,2019-08-07 16:49:30:013
-6.3724,-6.7492,1.5694,-0.1665,-0.3069,0.0138,-0.025,-6.0E-4,-0.0287,164,2019-08-07 16:49:30:018
-6.3724,-6.7492,1.5694,-0.1665,-0.3069,0.0138,-0.025,-0.0144,-0.0181,169,2019-08-07 16:49:30:023
-6.3724,-6.7492,1.5694,-0.249,-0.3346,-0.0593,-0.025,-0.0144,-0.0181,173,2019-08-07 16:49:30:027
-6.3533,-6.8017,1.5789,-0.249,-0.3346,-0.0593,-0.0175,-0.0336,-0.0106,179,2019-08-07 16:49:30:033
-6.3533,-6.8017,1.5789,-0.249,-0.3346,-0.0593,-0.0175,-0.0336,-0.0106,184,2019-08-07 16:49:30:038
-6.2528,-6.7445,1.5459,-0.249,-0.3346,-0.0593,-0.0175,-0.0432,-0.0053,189,2019-08-07 16:49:30:043
-6.2528,-6.7445,1.5459,-0.3898,-0.3175,0.0049,-0.0175,-0.0432,-0.0053,194,2019-08-07 16:49:30:048
-6.2528,-6.7445,1.5459,-0.3898,-0.3175,0.0049,-0.0175,-0.0432,0.0011,199,2019-08-07 16:49:30:053
-6.2576,-6.7588,1.461,-0.3898,-0.3175,0.0049,-0.0175,-0.0432,0.0011,204,2019-08-07 16:49:30:058
-6.2576,-6.7588,1.461,-0.3898,-0.3175,0.0049,-0.0165,-0.0336,-0.001,209,2019-08-07 16:49:30:063
-6.2576,-6.7588,1.461,-0.3977,-0.366,0.0227,-0.0165,-0.0336,-0.001,213,2019-08-07 16:49:30:067
-6.2049,-6.7397,1.428,-0.3977,-0.366,0.0227,-0.0197,-0.0049,-0.001,219,2019-08-07 16:49:30:073
-6.2049,-6.7397,1.428,-0.3977,-0.366,0.0227,-0.0197,-0.0049,-0.001,224,2019-08-07 16:49:30:078
-6.2815,-6.7636,1.3762,-0.3977,-0.366,0.0227,-0.0218,0.0228,-0.0042,229,2019-08-07 16:49:30:083
-6.2815,-6.7636,1.3762,-0.3207,-0.3289,0.1988,-0.0218,0.0228,-0.0042,234,2019-08-07 16:49:30:088
-6.3293,-6.7445,1.3337,-0.3207,-0.3289,0.1988,-0.0239,0.0473,-0.0064,239,2019-08-07 16:49:30:093
-6.3293,-6.7445,1.3337,-0.3207,-0.3289,0.1988,-0.0239,0.0473,-0.0064,244,2019-08-07 16:49:30:098
-6.3293,-6.7445,1.3337,-0.3207,-0.3289,0.1988,-0.0239,0.0473,-0.0064,249,2019-08-07 16:49:30:103
-6.4633,-6.711,1.3762,-0.1399,-0.3874,0.1226,-0.0186,0.0569,-0.0117,254,2019-08-07 16:49:30:108
-6.4633,-6.711,1.3762,-0.1399,-0.3874,0.1226,-0.0186,0.0569,-0.0117,259,2019-08-07 16:49:30:113
-6.4633,-6.711,1.3762,-0.1399,-0.3874,0.1226,-0.0165,0.0346,-0.0053,264,2019-08-07 16:49:30:118
-6.4633,-6.7588,1.4186,-0.1399,-0.3874,0.1226,-0.0165,0.0346,-0.0053,268,2019-08-07 16:49:30:122
-6.4633,-6.7588,1.4186,-0.1746,-0.3877,0.0216,-0.0154,0.0058,0.0,274,2019-08-07 16:49:30:128
-6.4154,-6.7636,1.4422,-0.1746,-0.3877,0.0216,-0.0154,0.0058,0.0,278,2019-08-07 16:49:30:132
-6.4154,-6.7636,1.4422,-0.1746,-0.3877,0.0216,-0.0111,-0.0123,0.0085,284,2019-08-07 16:49:30:138
-6.4154,-6.7636,1.4422,-0.1746,-0.3877,0.0216,-0.0111,-0.0123,0.0085,289,2019-08-07 16:49:30:143
-6.3628,-6.7588,1.5129,-0.2906,-0.3149,0.0218,-0.009,-0.0283,0.0224,294,2019-08-07 16:49:30:148
-6.3628,-6.7588,1.5129,-0.2906,-0.3149,0.0218,-0.009,-0.0283,0.0224,299,2019-08-07 16:49:30:153
-6.3006,-6.7492,1.4516,-0.2906,-0.3149,0.0218,-0.0101,-0.0432,0.0352,304,2019-08-07 16:49:30:158
-6.3006,-6.7492,1.4516,-0.2906,-0.3149,0.0218,-0.0101,-0.0432,0.0352,309,2019-08-07 16:49:30:163
-6.3006,-6.7492,1.4516,-0.3895,-0.2728,0.1769,-0.0069,-0.0464,0.0405,313,2019-08-07 16:49:30:167
-6.2432,-6.8447,1.2678,-0.3895,-0.2728,0.1769,-0.0069,-0.0464,0.0405,319,2019-08-07 16:49:30:173
-6.2432,-6.8447,1.2678,-0.3895,-0.2728,0.1769,-0.0079,-0.024,0.0394,323,2019-08-07 16:49:30:177
-6.2384,-6.8304,1.3526,-0.3895,-0.2728,0.1769,-0.0079,-0.024,0.0394,329,2019-08-07 16:49:30:183
-6.2384,-6.8304,1.3526,-0.3315,-0.2828,0.0659,-0.0026,-0.0038,0.033,334,2019-08-07 16:49:30:188
-6.2384,-6.8304,1.3526,-0.3315,-0.2828,0.0659,-0.0026,-0.0038,0.033,339,2019-08-07 16:49:30:193
-6.2719,-6.7874,1.3432,-0.3315,-0.2828,0.0659,-0.0037,0.0314,0.0266,344,2019-08-07 16:49:30:198
-6.2719,-6.7874,1.3432,-0.3315,-0.2828,0.0659,-0.0037,0.0314,0.0266,349,2019-08-07 16:49:30:203
-6.3963,-6.7588,1.2206,-0.2213,-0.3274,0.2727,-0.0037,0.0314,0.0266,353,2019-08-07 16:49:30:207
-6.3963,-6.7588,1.2206,-0.2213,-0.3274,0.2727,-0.009,0.0729,0.0139,359,2019-08-07 16:49:30:213
-6.3963,-6.7588,1.2206,-0.2213,-0.3274,0.2727,-0.009,0.0729,0.0139,363,2019-08-07 16:49:30:217
-6.5924,-6.754,1.3526,-0.2213,-0.3274,0.2727,-0.0111,0.0814,0.0043,369,2019-08-07 16:49:30:223
-6.5924,-6.754,1.3526,-0.0056,-0.3449,0.0392,-0.0111,0.0814,0.0043,373,2019-08-07 16:49:30:227
-6.5924,-6.8113,1.4233,-0.0056,-0.3449,0.0392,-0.0079,0.0665,-0.001,379,2019-08-07 16:49:30:233
-6.5924,-6.8113,1.4233,-0.0056,-0.3449,0.0392,-0.0079,0.0665,-0.001,384,2019-08-07 16:49:30:238
-6.5924,-6.8113,1.4233,-0.0056,-0.3449,0.0392,-0.0026,0.0335,-0.0042,388,2019-08-07 16:49:30:242
-6.5972,-6.8781,1.3903,-0.0269,-0.206,0.0835,-0.0026,0.0335,-0.0042,395,2019-08-07 16:49:30:249
-6.5972,-6.8781,1.3903,-0.0269,-0.206,0.0835,-5.0E-4,0.0143,-0.0128,399,2019-08-07 16:49:30:253
-6.5972,-6.8781,1.3903,-0.0269,-0.206,0.0835,-5.0E-4,0.0143,-0.0128,403,2019-08-07 16:49:30:257
-6.5111,-6.8829,1.5506,-0.0269,-0.206,0.0835,-5.0E-4,0.0143,-0.0128,409,2019-08-07 16:49:30:263
-6.5111,-6.8829,1.5506,-0.1023,-0.2262,-0.0771,0.0112,-0.0081,-0.0149,413,2019-08-07 16:49:30:267
-6.5111,-6.8829,1.5506,-0.1023,-0.2262,-0.0771,0.0112,-0.0081,-0.0149,419,2019-08-07 16:49:30:273
-6.468,-6.8161,1.5176,-0.1023,-0.2262,-0.0771,0.0251,-0.023,-0.0064,423,2019-08-07 16:49:30:277
-6.468,-6.8161,1.5176,-0.1023,-0.2262,-0.0771,0.0251,-0.023,-0.0064,429,2019-08-07 16:49:30:283
-6.3771,-6.8304,1.461,-0.244,-0.2553,0.0186,0.0187,-0.0262,-0.0106,433,2019-08-07 16:49:30:287
-6.3771,-6.8304,1.461,-0.244,-0.2553,0.0186,0.0187,-0.0262,-0.0106,439,2019-08-07 16:49:30:293
-6.3771,-6.8304,1.461,-0.244,-0.2553,0.0186,0.0155,-0.023,-0.0149,444,2019-08-07 16:49:30:298
-6.401,-6.7588,1.4846,-0.244,-0.2553,0.0186,0.0155,-0.023,-0.0149,449,2019-08-07 16:49:30:303
-6.401,-6.7588,1.4846,-0.244,-0.2553,0.0186,0.0155,-0.023,-0.0149,453,2019-08-07 16:49:30:307
-6.401,-6.7588,1.4846,-0.2703,-0.3279,0.0294,0.0176,-0.0176,-0.016,459,2019-08-07 16:49:30:313
-6.3484,-6.7397,1.4092,-0.2703,-0.3279,0.0294,0.0176,-0.0176,-0.016,464,2019-08-07 16:49:30:318
-6.3484,-6.7397,1.4092,-0.2703,-0.3279,0.0294,0.0112,5.0E-4,-0.0224,469,2019-08-07 16:49:30:323
-6.3484,-6.7397,1.4092,-0.2703,-0.3279,0.0294,0.0112,5.0E-4,-0.0224,473,2019-08-07 16:49:30:327
-6.358,-6.692,1.4375,-0.2582,-0.3967,0.0501,-5.0E-4,0.0335,-0.0277,480,2019-08-07 16:49:30:334
-6.358,-6.692,1.4375,-0.2582,-0.3967,0.0501,-5.0E-4,0.0335,-0.0277,483,2019-08-07 16:49:30:337
-6.4393,-6.6824,1.4705,-0.2582,-0.3967,0.0501,-0.0101,0.0495,-0.0309,489,2019-08-07 16:49:30:343
-6.4393,-6.6824,1.4705,-0.2582,-0.3967,0.0501,-0.0101,0.0495,-0.0309,493,2019-08-07 16:49:30:347
-6.4393,-6.6824,1.4705,-0.2559,-0.3716,0.0346,-0.0133,0.0527,-0.033,499,2019-08-07 16:49:30:353
-6.4632,-6.8018,1.4375,-0.2559,-0.3716,0.0346,-0.0133,0.0527,-0.033,504,2019-08-07 16:49:30:358
-6.4632,-6.8018,1.4375,-0.2559,-0.3716,0.0346,-0.0122,0.0463,-0.0287,508,2019-08-07 16:49:30:362
-6.5063,-6.8018,1.4469,-0.2559,-0.3716,0.0346,-0.0122,0.0463,-0.0287,514,2019-08-07 16:49:30:368
-6.5063,-6.8018,1.4469,-0.1003,-0.2896,-0.0018,-0.0058,0.0207,-0.0277,519,2019-08-07 16:49:30:373
-6.5063,-6.8018,1.4469,-0.1003,-0.2896,-0.0018,-0.0058,0.0207,-0.0277,523,2019-08-07 16:49:30:377
-6.4967,-6.8686,1.5412,-0.1003,-0.2896,-0.0018,-0.0026,-0.0081,-0.0224,529,2019-08-07 16:49:30:383
-6.4967,-6.8686,1.5412,-0.1003,-0.2896,-0.0018,-0.0026,-0.0081,-0.0224,533,2019-08-07 16:49:30:387
-6.4393,-6.7683,1.461,-0.1691,-0.3163,0.05,0.0016,-0.0315,-0.017,539,2019-08-07 16:49:30:393
-6.4393,-6.7683,1.461,-0.1691,-0.3163,0.05,0.0016,-0.0315,-0.017,544,2019-08-07 16:49:30:398
-6.4393,-6.7683,1.461,-0.1691,-0.3163,0.05,6.0E-4,-0.0357,-0.0096,548,2019-08-07 16:49:30:402
-6.3914,-6.797,1.5082,-0.1691,-0.3163,0.05,6.0E-4,-0.0357,-0.0096,554,2019-08-07 16:49:30:408
-6.3914,-6.797,1.5082,-0.1952,-0.3511,-0.0674,0.0048,-0.0496,-0.0106,559,2019-08-07 16:49:30:413
-6.4058,-6.7445,1.5035,-0.1952,-0.3511,-0.0674,0.0048,-0.0496,-0.0106,564,2019-08-07 16:49:30:418
-6.4058,-6.7445,1.5035,-0.1952,-0.3511,-0.0674,0.0027,-0.0496,-0.0117,569,2019-08-07 16:49:30:423
-6.4058,-6.7445,1.5035,-0.1952,-0.3511,-0.0674,0.0027,-0.0496,-0.0117,574,2019-08-07 16:49:30:428
-6.3292,-6.754,1.3903,-0.2738,-0.3474,0.0953,-0.0026,-0.04,-0.017,578,2019-08-07 16:49:30:432
-6.3292,-6.754,1.3903,-0.2738,-0.3474,0.0953,-0.0026,-0.04,-0.017,584,2019-08-07 16:49:30:438
-6.3292,-6.754,1.3903,-0.2738,-0.3474,0.0953,-0.0069,-0.0187,-0.0213,588,2019-08-07 16:49:30:442
-6.3005,-6.7827,1.4988,-0.2738,-0.3474,0.0953,-0.0069,-0.0187,-0.0213,594,2019-08-07 16:49:30:448
-6.3005,-6.7827,1.4988,-0.251,-0.3263,0.051,-0.0101,-0.0038,-0.0287,599,2019-08-07 16:49:30:453
-6.2909,-6.7922,1.395,-0.251,-0.3263,0.051,-0.0101,-0.0038,-0.0287,603,2019-08-07 16:49:30:457
-6.2909,-6.7922,1.395,-0.251,-0.3263,0.051,-0.0101,-0.0038,-0.0287,609,2019-08-07 16:49:30:463
-6.2909,-6.7922,1.395,-0.251,-0.3263,0.051,-0.0165,0.0101,-0.0287,614,2019-08-07 16:49:30:468
-6.3292,-6.7922,1.4516,-0.2663,-0.3162,0.0338,-0.0165,0.0101,-0.0287,619,2019-08-07 16:49:30:473
-6.3292,-6.7922,1.4516,-0.2663,-0.3162,0.0338,-0.0239,0.0228,-0.0373,624,2019-08-07 16:49:30:478
-6.4488,-6.8018,1.4846,-0.2663,-0.3162,0.0338,-0.0239,0.0228,-0.0373,629,2019-08-07 16:49:30:483
-6.4488,-6.8018,1.4846,-0.2663,-0.3162,0.0338,-0.0218,0.0058,-0.033,633,2019-08-07 16:49:30:487
-6.4488,-6.8018,1.4846,-0.157,-0.3162,0.0336,-0.0218,0.0058,-0.033,639,2019-08-07 16:49:30:493
-6.4006,-6.84,1.414,-0.157,-0.3162,0.0336,-0.0218,0.0058,-0.033,644,2019-08-07 16:49:30:498
-6.4006,-6.84,1.414,-0.2411,-0.2755,0.0188,-0.0229,-0.0208,-0.0319,648,2019-08-07 16:49:30:502
-6.4006,-6.84,1.414,-0.2411,-0.2755,0.0188,-0.0229,-0.0208,-0.0319,654,2019-08-07 16:49:30:508
-6.3336,-6.8448,1.4329,-0.2411,-0.2755,0.0188,-0.0186,-0.0336,-0.0298,658,2019-08-07 16:49:30:512
-6.3336,-6.8448,1.4329,-0.2411,-0.2755,0.0188,-0.0186,-0.0336,-0.0298,664,2019-08-07 16:49:30:518
-6.2331,-6.8925,1.4894,-0.3505,-0.2275,-0.0069,-0.0101,-0.04,-0.0223,669,2019-08-07 16:49:30:523
-6.2331,-6.8925,1.4894,-0.3505,-0.2275,-0.0069,-0.0101,-0.04,-0.0223,674,2019-08-07 16:49:30:528
-6.2331,-6.8925,1.4894,-0.3505,-0.2275,-0.0069,-5.0E-4,-0.0389,-0.017,679,2019-08-07 16:49:30:533
-6.2235,-6.8591,1.414,-0.3505,-0.2275,-0.0069,-5.0E-4,-0.0389,-0.017,683,2019-08-07 16:49:30:537
-6.2235,-6.8591,1.414,-0.3559,-0.2782,0.0402,0.0059,-0.0347,-0.0106,689,2019-08-07 16:49:30:543
-6.2618,-6.8209,1.4894,-0.3559,-0.2782,0.0402,0.0059,-0.0347,-0.0106,695,2019-08-07 16:49:30:549
-6.2618,-6.8209,1.4894,-0.3559,-0.2782,0.0402,0.0059,-0.0347,-0.0106,698,2019-08-07 16:49:30:552
-6.2618,-6.8209,1.4894,-0.3559,-0.2782,0.0402,0.0134,-0.0283,-0.001,704,2019-08-07 16:49:30:558
-6.2091,-6.7779,1.5271,-0.3684,-0.3454,-0.0336,0.0134,-0.0283,-0.001,708,2019-08-07 16:49:30:562
-6.2091,-6.7779,1.5271,-0.3684,-0.3454,-0.0336,0.0091,-0.024,0.0043,714,2019-08-07 16:49:30:568
-6.2091,-6.7779,1.5271,-0.3684,-0.3454,-0.0336,0.0091,-0.024,0.0043,719,2019-08-07 16:49:30:573
-6.2809,-6.735,1.4234,-0.3684,-0.3454,-0.0336,0.0016,-0.024,0.0085,724,2019-08-07 16:49:30:578
-6.2809,-6.735,1.4234,-0.2782,-0.3964,0.1306,0.0016,-0.024,0.0085,729,2019-08-07 16:49:30:583
-6.3527,-6.7732,1.3904,-0.2782,-0.3964,0.1306,-0.0016,-0.0187,0.0085,734,2019-08-07 16:49:30:588
-6.3527,-6.7732,1.3904,-0.2782,-0.3964,0.1306,-0.0016,-0.0187,0.0085,739,2019-08-07 16:49:30:593
-6.3527,-6.7732,1.3904,-0.2782,-0.3964,0.1306,-0.0037,-0.0262,0.0075,744,2019-08-07 16:49:30:598
-6.367,-6.8495,1.414,-0.1977,-0.2663,0.0527,-0.0037,-0.0262,0.0075,748,2019-08-07 16:49:30:602
-6.367,-6.8495,1.414,-0.1977,-0.2663,0.0527,-0.0111,-0.0336,0.0075,754,2019-08-07 16:49:30:608
-6.367,-6.8495,1.414,-0.1977,-0.2663,0.0527,-0.0111,-0.0336,0.0075,758,2019-08-07 16:49:30:612
-6.2474,-6.8591,1.4376,-0.1977,-0.2663,0.0527,-0.0143,-0.0294,0.0053,764,2019-08-07 16:49:30:618
-6.2474,-6.8591,1.4376,-0.2646,-0.3185,0.1817,-0.0143,-0.0294,0.0053,768,2019-08-07 16:49:30:622
-6.3622,-6.7779,1.3433,-0.2646,-0.3185,0.1817,-0.0165,-0.007,0.0022,774,2019-08-07 16:49:30:628
-6.3622,-6.7779,1.3433,-0.2646,-0.3185,0.1817,-0.0165,-0.007,0.0022,779,2019-08-07 16:49:30:633
-6.3622,-6.7779,1.3433,-0.2646,-0.3185,0.1817,-0.0218,0.0026,-0.0042,784,2019-08-07 16:49:30:638
-6.3909,-6.7923,1.3716,-0.1691,-0.319,0.0889,-0.0218,0.0026,-0.0042,789,2019-08-07 16:49:30:643
-6.3909,-6.7923,1.3716,-0.1691,-0.319,0.0889,-0.025,-0.0017,-0.0042,794,2019-08-07 16:49:30:648
-6.3909,-6.7923,1.3716,-0.1691,-0.319,0.0889,-0.025,-0.0017,-0.0042,798,2019-08-07 16:49:30:652
-6.3765,-6.7779,1.5036,-0.1691,-0.319,0.0889,-0.0175,-0.0187,-0.0042,804,2019-08-07 16:49:30:658
-6.3765,-6.7779,1.5036,-0.1691,-0.319,0.0889,-0.0175,-0.0187,-0.0042,808,2019-08-07 16:49:30:662
-6.3383,-6.7541,1.4989,-0.2451,-0.3484,0.0313,-0.0058,-0.0176,-0.001,814,2019-08-07 16:49:30:668
-6.3383,-6.7541,1.4989,-0.2451,-0.3484,0.0313,-0.0058,-0.0176,-0.001,819,2019-08-07 16:49:30:673
-6.3383,-6.7541,1.4989,-0.2451,-0.3484,0.0313,-0.0058,-0.0176,-0.001,823,2019-08-07 16:49:30:677
-6.4339,-6.735,1.447,-0.1778,-0.3961,0.0192,-0.0101,-0.0272,-0.001,829,2019-08-07 16:49:30:683
-6.4339,-6.735,1.447,-0.1778,-0.3961,0.0192,-0.0101,-0.0272,-0.001,833,2019-08-07 16:49:30:687
-6.3574,-6.7636,1.4376,-0.1778,-0.3961,0.0192,-0.0175,-0.0379,0.0032,839,2019-08-07 16:49:30:693
-6.3574,-6.7636,1.4376,-0.1778,-0.3961,0.0192,-0.0175,-0.0379,0.0032,843,2019-08-07 16:49:30:697
-6.3574,-6.7636,1.4376,-0.1778,-0.3961,0.0192,-0.0175,-0.0539,0.0085,849,2019-08-07 16:49:30:703
-6.3382,-6.7827,1.3905,-0.2398,-0.3382,0.1121,-0.0175,-0.0539,0.0085,854,2019-08-07 16:49:30:708
-6.3382,-6.7827,1.3905,-0.2398,-0.3382,0.1121,-0.0175,-0.0539,0.0085,859,2019-08-07 16:49:30:713
-6.2569,-6.8018,1.4187,-0.2398,-0.3382,0.1121,-0.009,-0.0421,0.0117,864,2019-08-07 16:49:30:718
-6.2569,-6.8018,1.4187,-0.2398,-0.3382,0.1121,-0.009,-0.0421,0.0117,868,2019-08-07 16:49:30:722
-6.2569,-6.8018,1.4187,-0.3357,-0.2609,0.1066,-0.0047,-0.0187,0.0064,874,2019-08-07 16:49:30:728
-6.3143,-6.7445,1.3905,-0.3357,-0.2609,0.1066,-0.0047,-0.0187,0.0064,879,2019-08-07 16:49:30:733
-6.3143,-6.7445,1.3905,-0.3357,-0.2609,0.1066,-0.0069,-0.0059,-0.0021,884,2019-08-07 16:49:30:738
-6.3143,-6.7445,1.3905,-0.3357,-0.2609,0.1066,-0.0069,-0.0059,-0.0021,889,2019-08-07 16:49:30:743
-6.3382,-6.7493,1.4282,-0.2404,-0.3703,0.0781,-0.0101,-0.0081,0.0011,894,2019-08-07 16:49:30:748
-6.3382,-6.7493,1.4282,-0.2404,-0.3703,0.0781,-0.0101,-0.0081,0.0011,899,2019-08-07 16:49:30:753
-6.276,-6.8305,1.4235,-0.2404,-0.3703,0.0781,-0.0133,-0.0112,0.0085,904,2019-08-07 16:49:30:758
-6.276,-6.8305,1.4235,-0.2404,-0.3703,0.0781,-0.0133,-0.0112,0.0085,908,2019-08-07 16:49:30:762
-6.276,-6.8305,1.4235,-0.2984,-0.2268,0.0774,-0.0154,-0.0134,0.0085,914,2019-08-07 16:49:30:768
-6.2712,-6.8687,1.4282,-0.2984,-0.2268,0.0774,-0.0154,-0.0134,0.0085,918,2019-08-07 16:49:30:772
-6.2712,-6.8687,1.4282,-0.2984,-0.2268,0.0774,-0.0154,-0.0134,0.0085,923,2019-08-07 16:49:30:777
-6.2664,-6.8687,1.4282,-0.2984,-0.2268,0.0774,-0.009,-0.0059,0.0139,929,2019-08-07 16:49:30:783
-6.2664,-6.8687,1.4282,-0.3089,-0.2689,0.0394,-0.009,-0.0059,0.0139,933,2019-08-07 16:49:30:787
-6.2664,-6.8687,1.4282,-0.3089,-0.2689,0.0394,-0.0016,-0.0091,0.0149,939,2019-08-07 16:49:30:793
-6.2903,-6.8591,1.5036,-0.3089,-0.2689,0.0394,-0.0016,-0.0091,0.0149,944,2019-08-07 16:49:30:798
-6.2903,-6.8591,1.5036,-0.3089,-0.2689,0.0394,-0.0026,-0.0059,0.0181,949,2019-08-07 16:49:30:803
-6.319,-6.7875,1.5319,-0.2485,-0.2431,-0.0064,-0.0026,-0.0059,0.0181,954,2019-08-07 16:49:30:808
-6.319,-6.7875,1.5319,-0.2485,-0.2431,-0.0064,-0.0026,-0.0123,0.0203,959,2019-08-07 16:49:30:813
-6.319,-6.7875,1.5319,-0.2485,-0.2431,-0.0064,-0.0026,-0.0123,0.0203,964,2019-08-07 16:49:30:818
-6.386,-6.7923,1.4188,-0.2485,-0.2431,-0.0064,-0.0047,-0.0123,0.0245,969,2019-08-07 16:49:30:823
-6.386,-6.7923,1.4188,-0.1751,-0.3163,0.0465,-0.0047,-0.0123,0.0245,974,2019-08-07 16:49:30:828
-6.3955,-6.7827,1.381,-0.1751,-0.3163,0.0465,-0.0047,-0.0219,0.0203,979,2019-08-07 16:49:30:833
-6.3955,-6.7827,1.381,-0.1751,-0.3163,0.0465,-0.0047,-0.0219,0.0203,984,2019-08-07 16:49:30:838
-6.4195,-6.8018,1.3999,-0.1751,-0.3163,0.0465,-0.0069,-0.0272,0.0245,989,2019-08-07 16:49:30:843
-6.4195,-6.8018,1.3999,-0.2069,-0.3321,0.1148,-0.0069,-0.0272,0.0245,994,2019-08-07 16:49:30:848
-6.4195,-6.8018,1.3999,-0.2069,-0.3321,0.1148,-0.0069,-0.0272,0.0245,998,2019-08-07 16:49:30:852
-6.319,-6.8066,1.414,-0.2069,-0.3321,0.1148,-0.0101,-0.0208,0.0192,1004,2019-08-07 16:49:30:858
-6.319,-6.8066,1.414,-0.2069,-0.3321,0.1148,-0.0101,-0.0208,0.0192,1009,2019-08-07 16:49:30:863
-6.2998,-6.9021,1.4376,-0.2762,-0.2248,0.1247,-0.0047,5.0E-4,0.0171,1014,2019-08-07 16:49:30:868
-6.2998,-6.9021,1.4376,-0.2762,-0.2248,0.1247,-0.0047,5.0E-4,0.0171,1019,2019-08-07 16:49:30:873
-6.2998,-6.9021,1.4376,-0.2762,-0.2248,0.1247,-0.0026,0.0133,0.0096,1024,2019-08-07 16:49:30:878
-6.3046,-6.9212,1.4612,-0.2762,-0.2248,0.1247,-0.0026,0.0133,0.0096,1029,2019-08-07 16:49:30:883
-6.3046,-6.9212,1.4612,-0.2585,-0.1856,-0.0229,0.0091,0.0079,0.0075,1034,2019-08-07 16:49:30:888
-6.3046,-6.9212,1.4612,-0.2585,-0.1856,-0.0229,0.0091,0.0079,0.0075,1038,2019-08-07 16:49:30:892
-6.3429,-6.9212,1.5319,-0.2585,-0.1856,-0.0229,0.0166,-0.0091,0.0096,1044,2019-08-07 16:49:30:898
-6.3429,-6.9212,1.5319,-0.2585,-0.1856,-0.0229,0.0166,-0.0091,0.0096,1049,2019-08-07 16:49:30:903
-6.252,-6.84,1.5366,-0.3409,-0.2649,-0.0231,0.0187,-0.0304,0.0171,1053,2019-08-07 16:49:30:907
-6.252,-6.84,1.5366,-0.3409,-0.2649,-0.0231,0.0187,-0.0304,0.0171,1059,2019-08-07 16:49:30:913
-6.252,-6.84,1.5366,-0.3845,-0.2396,-0.0235,0.0176,-0.0475,0.0213,1064,2019-08-07 16:49:30:918
-6.2041,-6.8114,1.5225,-0.3845,-0.2396,-0.0235,0.0176,-0.0475,0.0213,1069,2019-08-07 16:49:30:923
-6.2041,-6.8114,1.5225,-0.3845,-0.2396,-0.0235,0.0208,-0.0528,0.0298,1073,2019-08-07 16:49:30:927
-6.2232,-6.7445,1.4518,-0.3845,-0.2396,-0.0235,0.0208,-0.0528,0.0298,1079,2019-08-07 16:49:30:933
-6.2232,-6.7445,1.4518,-0.3821,-0.3546,0.0713,0.0176,-0.0485,0.033,1084,2019-08-07 16:49:30:938
-6.2232,-6.7445,1.4518,-0.3821,-0.3546,0.0713,0.0176,-0.0485,0.033,1088,2019-08-07 16:49:30:942
-6.2232,-6.7445,1.4518,-0.3821,-0.3546,0.0713,0.0176,-0.0485,0.033,1094,2019-08-07 16:49:30:948
-6.185,-6.7445,1.4093,-0.4124,-0.3523,0.1223,0.0091,-0.0336,0.0362,1098,2019-08-07 16:49:30:952
-6.185,-6.7445,1.4093,-0.4124,-0.3523,0.1223,0.0091,-0.0336,0.0362,1104,2019-08-07 16:49:30:958
-6.185,-6.7445,1.4093,-0.4124,-0.3523,0.1223,-0.0016,0.0122,0.0245,1108,2019-08-07 16:49:30:962
-6.2854,-6.7589,1.2915,-0.3013,-0.2822,0.1877,-0.0016,0.0122,0.0245,1114,2019-08-07 16:49:30:968
-6.2854,-6.7589,1.2915,-0.3013,-0.2822,0.1877,-0.0079,0.0516,0.0149,1119,2019-08-07 16:49:30:973
-6.3189,-6.8114,1.3056,-0.3013,-0.2822,0.1877,-0.0079,0.0516,0.0149,1124,2019-08-07 16:49:30:978
-6.3189,-6.8114,1.3056,-0.3013,-0.2822,0.1877,-0.0101,0.0729,0.0032,1128,2019-08-07 16:49:30:982
-6.3189,-6.8114,1.3056,-0.2279,-0.2578,0.1479,-0.0101,0.0729,0.0032,1134,2019-08-07 16:49:30:988
-6.4194,-6.8687,1.3669,-0.2279,-0.2578,0.1479,-0.0133,0.0825,-0.0096,1139,2019-08-07 16:49:30:993
-6.4194,-6.8687,1.3669,-0.2279,-0.2578,0.1479,-0.0133,0.0825,-0.0096,1143,2019-08-07 16:49:30:997
-6.4481,-6.84,1.4329,-0.2279,-0.2578,0.1479,-0.0133,0.0825,-0.0096,1149,2019-08-07 16:49:31:003
-6.4481,-6.84,1.4329,-0.2004,-0.2593,0.046,-0.009,0.0655,-0.0128,1154,2019-08-07 16:49:31:008
-6.4481,-6.84,1.4329,-0.2004,-0.2593,0.046,-0.009,0.0655,-0.0128,1159,2019-08-07 16:49:31:013
-6.405,-6.8591,1.4706,-0.2004,-0.2593,0.046,-5.0E-4,0.0388,-0.0106,1164,2019-08-07 16:49:31:018
-6.405,-6.8591,1.4706,-0.2243,-0.2456,0.0055,-5.0E-4,0.0388,-0.0106,1169,2019-08-07 16:49:31:023
-6.405,-6.8591,1.4706,-0.2243,-0.2456,0.0055,0.0187,-6.0E-4,-0.001,1174,2019-08-07 16:49:31:028
-6.3332,-6.8353,1.5272,-0.2243,-0.2456,0.0055,0.0187,-6.0E-4,-0.001,1179,2019-08-07 16:49:31:033
-6.3332,-6.8353,1.5272,-0.2243,-0.2456,0.0055,0.0272,-0.0294,0.0117,1184,2019-08-07 16:49:31:038
-6.1897,-6.7111,1.5602,-0.3437,-0.3023,-0.0518,0.0272,-0.0294,0.0117,1189,2019-08-07 16:49:31:043
-6.1897,-6.7111,1.5602,-0.3437,-0.3023,-0.0518,0.0272,-0.0294,0.0117,1194,2019-08-07 16:49:31:048
-6.1897,-6.7111,1.5602,-0.3437,-0.3023,-0.0518,0.0293,-0.0496,0.0203,1199,2019-08-07 16:49:31:053
-6.1753,-6.7064,1.5366,-0.3437,-0.3023,-0.0518,0.0293,-0.0496,0.0203,1203,2019-08-07 16:49:31:057
-6.1753,-6.7064,1.5366,-0.4452,-0.3991,0.0633,0.024,-0.0549,0.0384,1209,2019-08-07 16:49:31:063
-6.0988,-6.7159,1.3764,-0.4452,-0.3991,0.0633,0.024,-0.0549,0.0384,1214,2019-08-07 16:49:31:068
-6.0988,-6.7159,1.3764,-0.4452,-0.3991,0.0633,0.0208,-0.0368,0.0405,1218,2019-08-07 16:49:31:072
-6.0988,-6.7159,1.3764,-0.4452,-0.3991,0.0633,0.0208,-0.0368,0.0405,1224,2019-08-07 16:49:31:078
-6.07,-6.7207,1.3151,-0.5403,-0.3651,0.2117,0.0123,0.0015,0.0437,1228,2019-08-07 16:49:31:082
-6.07,-6.7207,1.3151,-0.5403,-0.3651,0.2117,0.0123,0.0015,0.0437,1234,2019-08-07 16:49:31:088
-6.07,-6.7207,1.3151,-0.5403,-0.3651,0.2117,0.0123,0.0015,0.0437,1238,2019-08-07 16:49:31:092
-6.2136,-6.7923,1.3811,-0.5403,-0.3651,0.2117,0.0016,0.0931,0.0405,1244,2019-08-07 16:49:31:098
-6.2136,-6.7923,1.3811,-0.3418,-0.2883,0.1807,0.0016,0.0931,0.0405,1249,2019-08-07 16:49:31:103
-6.3092,-6.8353,1.4565,-0.3418,-0.2883,0.1807,6.0E-4,0.1262,0.0405,1253,2019-08-07 16:49:31:107
-6.3092,-6.8353,1.4565,-0.3418,-0.2883,0.1807,6.0E-4,0.1262,0.0405,1259,2019-08-07 16:49:31:113
-6.3092,-6.8353,1.4565,-0.3418,-0.2883,0.1807,-0.0016,0.1379,0.0384,1264,2019-08-07 16:49:31:118
-6.4241,-6.8209,1.4754,-0.1649,-0.2545,0.0451,-0.0016,0.1379,0.0384,1269,2019-08-07 16:49:31:123
-6.4241,-6.8209,1.4754,-0.1649,-0.2545,0.0451,0.0027,0.123,0.033,1274,2019-08-07 16:49:31:128
-6.558,-6.8448,1.5036,-0.1649,-0.2545,0.0451,0.0027,0.123,0.033,1279,2019-08-07 16:49:31:133
-6.558,-6.8448,1.5036,-0.1649,-0.2545,0.0451,0.0112,0.0836,0.0362,1284,2019-08-07 16:49:31:138
-6.558,-6.8448,1.5036,-0.0544,-0.2774,-0.0578,0.0112,0.0836,0.0362,1288,2019-08-07 16:49:31:142
-6.6154,-6.7684,1.5979,-0.0544,-0.2774,-0.0578,0.0283,0.0335,0.0416,1294,2019-08-07 16:49:31:148
-6.6154,-6.7684,1.5979,-0.0544,-0.2774,-0.0578,0.0283,0.0335,0.0416,1299,2019-08-07 16:49:31:153
-6.5771,-6.7302,1.5319,-0.0544,-0.2774,-0.0578,0.0293,-0.007,0.0469,1304,2019-08-07 16:49:31:158
-6.5771,-6.7302,1.5319,-0.0146,-0.3556,-0.0568,0.0293,-0.007,0.0469,1308,2019-08-07 16:49:31:162
-6.5771,-6.7302,1.5319,-0.0146,-0.3556,-0.0568,0.0293,-0.0389,0.0448,1314,2019-08-07 16:49:31:168
-6.5723,-6.7016,1.5367,-0.0146,-0.3556,-0.0568,0.0293,-0.0389,0.0448,1319,2019-08-07 16:49:31:173
-6.5723,-6.7016,1.5367,-0.0146,-0.3556,-0.0568,0.0293,-0.0389,0.0448,1324,2019-08-07 16:49:31:178
-6.5723,-6.7016,1.5367,-0.1643,-0.3046,-0.0371,0.0261,-0.0656,0.048,1328,2019-08-07 16:49:31:182
-6.4097,-6.7589,1.5037,-0.1643,-0.3046,-0.0371,0.0261,-0.0656,0.048,1334,2019-08-07 16:49:31:188
-6.4097,-6.7589,1.5037,-0.1643,-0.3046,-0.0371,0.0261,-0.0581,0.0352,1339,2019-08-07 16:49:31:193
-6.4097,-6.7589,1.5037,-0.1643,-0.3046,-0.0371,0.0261,-0.0581,0.0352,1343,2019-08-07 16:49:31:197
-6.2757,-6.8639,1.3434,-0.3928,-0.1652,0.1623,0.0219,-0.0102,0.0299,1349,2019-08-07 16:49:31:203
-6.2757,-6.8639,1.3434,-0.3928,-0.1652,0.1623,0.0219,-0.0102,0.0299,1353,2019-08-07 16:49:31:207
-6.3092,-6.8639,1.433,-0.3928,-0.1652,0.1623,0.0219,-0.0102,0.0299,1359,2019-08-07 16:49:31:213
-6.3092,-6.8639,1.433,-0.3928,-0.1652,0.1623,0.0304,0.058,0.0224,1364,2019-08-07 16:49:31:218
-6.3092,-6.8639,1.433,-0.2818,-0.2097,0.0807,0.0304,0.058,0.0224,1369,2019-08-07 16:49:31:223
-6.3761,-6.8496,1.5131,-0.2818,-0.2097,0.0807,0.0357,0.0963,0.0181,1374,2019-08-07 16:49:31:228
-6.3761,-6.8496,1.5131,-0.2818,-0.2097,0.0807,0.0357,0.0963,0.0181,1379,2019-08-07 16:49:31:233
-6.3761,-6.8496,1.5131,-0.2818,-0.2097,0.0807,0.0357,0.0963,0.0181,1385,2019-08-07 16:49:31:239
-6.5627,-6.7923,1.5461,-0.0624,-0.287,-0.1094,0.0357,0.0868,0.016,1389,2019-08-07 16:49:31:243
-6.5627,-6.7923,1.5461,-0.0624,-0.287,-0.1094,0.0357,0.0868,0.016,1394,2019-08-07 16:49:31:248
-6.5627,-6.7923,1.5461,-0.0624,-0.287,-0.1094,0.0379,0.0303,0.0181,1399,2019-08-07 16:49:31:253
-6.644,-6.6968,1.6875,-0.0219,-0.3419,-0.1848,0.0379,0.0303,0.0181,1404,2019-08-07 16:49:31:258
-6.644,-6.6968,1.6875,-0.0219,-0.3419,-0.1848,0.0357,-0.0432,0.0224,1409,2019-08-07 16:49:31:263
-6.5196,-6.6682,1.7016,-0.0219,-0.3419,-0.1848,0.0357,-0.0432,0.0224,1413,2019-08-07 16:49:31:267
-6.5196,-6.6682,1.7016,-0.1204,-0.3415,-0.06,0.0176,-0.0954,0.0213,1418,2019-08-07 16:49:31:272
-6.5196,-6.6682,1.7016,-0.1204,-0.3415,-0.06,0.0176,-0.0954,0.0213,1424,2019-08-07 16:49:31:278
-6.4096,-6.6491,1.532,-0.1204,-0.3415,-0.06,0.0059,-0.1082,0.0181,1429,2019-08-07 16:49:31:283
-6.4096,-6.6491,1.532,-0.3022,-0.3302,0.0048,0.0059,-0.1082,0.0181,1433,2019-08-07 16:49:31:287
-6.4096,-6.6491,1.532,-0.3022,-0.3302,0.0048,0.0059,-0.1082,0.0181,1439,2019-08-07 16:49:31:293
-6.2039,-6.7302,1.466,-0.3022,-0.3302,0.0048,-0.0175,-0.0784,0.0128,1443,2019-08-07 16:49:31:297
-6.2039,-6.7302,1.466,-0.3022,-0.3302,0.0048,-0.0175,-0.0784,0.0128,1448,2019-08-07 16:49:31:302
-6.1895,-6.7971,1.4377,-0.4541,-0.2574,0.0863,-0.025,-0.024,0.0085,1454,2019-08-07 16:49:31:308
-6.1895,-6.7971,1.4377,-0.4541,-0.2574,0.0863,-0.025,-0.024,0.0085,1459,2019-08-07 16:49:31:313
-6.2373,-6.7684,1.3528,-0.4541,-0.2574,0.0863,-0.0324,0.0356,-0.001,1464,2019-08-07 16:49:31:318
-6.2373,-6.7684,1.3528,-0.4541,-0.2574,0.0863,-0.0324,0.0356,-0.001,1469,2019-08-07 16:49:31:323
-6.2373,-6.7684,1.3528,-0.3534,-0.2828,0.0798,-0.0388,0.0825,-0.0064,1474,2019-08-07 16:49:31:328
-6.4,-6.7684,1.4377,-0.3534,-0.2828,0.0798,-0.0388,0.0825,-0.0064,1479,2019-08-07 16:49:31:333
-6.4,-6.7684,1.4377,-0.3534,-0.2828,0.0798,-0.0378,0.0953,-0.0149,1484,2019-08-07 16:49:31:338
-6.4,-6.7684,1.4377,-0.3534,-0.2828,0.0798,-0.0378,0.0953,-0.0149,1488,2019-08-07 16:49:31:342
-6.5818,-6.6968,1.5272,-0.1871,-0.3237,0.0062,-0.042,0.0697,-0.0128,1494,2019-08-07 16:49:31:348
-6.5818,-6.6968,1.5272,-0.1871,-0.3237,0.0062,-0.042,0.0697,-0.0128,1499,2019-08-07 16:49:31:353
-6.5913,-6.735,1.5508,-0.1871,-0.3237,0.0062,-0.042,0.0697,-0.0128,1504,2019-08-07 16:49:31:358
-6.5913,-6.735,1.5508,-0.1871,-0.3237,0.0062,-0.0356,0.0175,-0.0085,1509,2019-08-07 16:49:31:363
-6.5913,-6.735,1.5508,-0.097,-0.3016,-0.1048,-0.0356,0.0175,-0.0085,1513,2019-08-07 16:49:31:367
-6.5435,-6.7255,1.5555,-0.097,-0.3016,-0.1048,-0.0271,-0.0262,0.0,1519,2019-08-07 16:49:31:373
-6.5435,-6.7255,1.5555,-0.097,-0.3016,-0.1048,-0.0271,-0.0262,0.0,1524,2019-08-07 16:49:31:378
-6.5435,-6.7255,1.5555,-0.097,-0.3016,-0.1048,-0.0218,-0.0592,0.0096,1528,2019-08-07 16:49:31:382
-6.5052,-6.7159,1.4848,-0.1639,-0.3206,0.014,-0.0218,-0.0592,0.0096,1534,2019-08-07 16:49:31:388
-6.5052,-6.7159,1.4848,-0.1639,-0.3206,0.014,-0.0218,-0.0592,0.0096,1538,2019-08-07 16:49:31:392
-6.3856,-6.6396,1.4518,-0.1639,-0.3206,0.014,-0.0165,-0.0816,0.0192,1544,2019-08-07 16:49:31:398
-6.3856,-6.6396,1.4518,-0.1639,-0.3206,0.014,-0.0165,-0.0816,0.0192,1549,2019-08-07 16:49:31:403
-6.3856,-6.6396,1.4518,-0.337,-0.3085,0.1117,-0.0111,-0.0709,0.0224,1554,2019-08-07 16:49:31:408
-6.2803,-6.7016,1.3434,-0.337,-0.3085,0.1117,-0.0111,-0.0709,0.0224,1558,2019-08-07 16:49:31:412
-6.2803,-6.7016,1.3434,-0.337,-0.3085,0.1117,-0.0154,-0.0496,0.0245,1564,2019-08-07 16:49:31:418
-6.2612,-6.7541,1.3764,-0.337,-0.3085,0.1117,-0.0154,-0.0496,0.0245,1568,2019-08-07 16:49:31:422
-6.2612,-6.7541,1.3764,-0.3863,-0.2681,0.1299,-0.0143,0.0047,0.0213,1574,2019-08-07 16:49:31:428
-6.2612,-6.7541,1.3764,-0.3863,-0.2681,0.1299,-0.0143,0.0047,0.0213,1579,2019-08-07 16:49:31:433
-6.3664,-6.7255,1.4377,-0.3063,-0.3053,0.0718,-0.0122,0.0292,0.0203,1583,2019-08-07 16:49:31:437
-6.3664,-6.7255,1.4377,-0.3063,-0.3053,0.0718,-0.0122,0.0292,0.0203,1589,2019-08-07 16:49:31:443
-6.3664,-6.7255,1.4377,-0.3063,-0.3053,0.0718,-0.0175,0.0378,0.0203,1594,2019-08-07 16:49:31:448
-6.4525,-6.7016,1.5791,-0.3063,-0.3053,0.0718,-0.0175,0.0378,0.0203,1598,2019-08-07 16:49:31:452
-6.4525,-6.7016,1.5791,-0.1334,-0.3027,-0.1556,-0.0175,0.0378,0.0203,1603,2019-08-07 16:49:31:457
-6.5769,-6.735,1.7818,-0.1334,-0.3027,-0.1556,-0.0186,0.0079,0.0213,1609,2019-08-07 16:49:31:463
-6.5769,-6.735,1.7818,-0.1334,-0.3027,-0.1556,-0.0186,0.0079,0.0213,1613,2019-08-07 16:49:31:467
-6.5769,-6.735,1.7818,-0.1334,-0.3027,-0.1556,-0.0143,-0.0262,0.0245,1619,2019-08-07 16:49:31:473
-6.5865,-6.7255,1.7865,-0.0942,-0.299,-0.2826,-0.0143,-0.0262,0.0245,1624,2019-08-07 16:49:31:478
-6.5865,-6.7255,1.7865,-0.0942,-0.299,-0.2826,-0.0207,-0.0688,0.0341,1629,2019-08-07 16:49:31:483
-6.5865,-6.7255,1.7865,-0.0942,-0.299,-0.2826,-0.0207,-0.0688,0.0341,1633,2019-08-07 16:49:31:487
-6.7061,-6.8353,2.0505,-0.0942,-0.299,-0.2826,-0.025,-0.1284,0.0512,1639,2019-08-07 16:49:31:493
-6.7061,-6.8353,2.0505,0.0988,-0.1451,-0.7689,-0.025,-0.1284,0.0512,1643,2019-08-07 16:49:31:497
-6.8326,-6.9019,2.38,0.0988,-0.1451,-0.7689,-0.0292,-0.1838,0.0565,1649,2019-08-07 16:49:31:503
-6.8326,-6.9019,2.38,0.0988,-0.1451,-0.7689,-0.0292,-0.1838,0.0565,1653,2019-08-07 16:49:31:507
-6.8326,-6.9019,2.38,0.0988,-0.1451,-0.7689,-0.0292,-0.1838,0.0565,1659,2019-08-07 16:49:31:513
-7.1005,-6.9305,2.6581,0.4094,-0.0696,-1.2388,-0.0346,-0.2424,0.0575,1664,2019-08-07 16:49:31:518
-7.1005,-6.9305,2.6581,0.4094,-0.0696,-1.2388,-0.0346,-0.2424,0.0575,1668,2019-08-07 16:49:31:522
-7.2824,-6.9687,2.9457,0.4094,-0.0696,-1.2388,-0.0527,-0.3085,0.0479,1674,2019-08-07 16:49:31:528
-7.2824,-6.9687,2.9457,0.4094,-0.0696,-1.2388,-0.0527,-0.3085,0.0479,1680,2019-08-07 16:49:31:534
-7.2824,-6.9687,2.9457,0.6547,-0.0947,-1.5446,-0.0729,-0.3447,0.0309,1684,2019-08-07 16:49:31:538
-7.4115,-6.9592,3.2332,0.6547,-0.0947,-1.5446,-0.0729,-0.3447,0.0309,1688,2019-08-07 16:49:31:542
-7.4115,-6.9592,3.2332,0.6547,-0.0947,-1.5446,-0.0729,-0.3447,0.0309,1694,2019-08-07 16:49:31:548
-7.4115,-6.9592,3.2332,0.6547,-0.0947,-1.5446,-0.0665,-0.3585,0.016,1698,2019-08-07 16:49:31:552
-7.7034,-7.0212,3.8649,1.2357,-0.0319,-2.5532,-0.0665,-0.3585,0.016,1704,2019-08-07 16:49:31:558
-7.7034,-7.0212,3.8649,1.2357,-0.0319,-2.5532,-0.0047,-0.3841,0.0192,1709,2019-08-07 16:49:31:563
-8.2919,-6.8494,5.114,1.2357,-0.0319,-2.5532,-0.0047,-0.3841,0.0192,1713,2019-08-07 16:49:31:567
-8.2919,-6.8494,5.114,1.2357,-0.0319,-2.5532,0.0709,-0.5151,0.049,1719,2019-08-07 16:49:31:573
-8.2919,-6.8494,5.114,2.6101,-0.6186,-4.8481,0.0709,-0.5151,0.049,1724,2019-08-07 16:49:31:578
-9.5023,-6.224,6.9618,2.6101,-0.6186,-4.8481,0.1316,-0.7921,0.1044,1729,2019-08-07 16:49:31:583
-9.5023,-6.224,6.9618,2.6101,-0.6186,-4.8481,0.1316,-0.7921,0.1044,1733,2019-08-07 16:49:31:587
-10.4018,-5.57,8.0743,3.4737,-1.0938,-5.7775,0.1316,-0.7921,0.1044,1739,2019-08-07 16:49:31:593
-10.4018,-5.57,8.0743,3.4737,-1.0938,-5.7775,0.1284,-1.3247,0.1896,1744,2019-08-07 16:49:31:598
-10.4018,-5.57,8.0743,3.4737,-1.0938,-5.7775,0.1284,-1.3247,0.1896,1750,2019-08-07 16:49:31:604
-10.885,-5.0974,8.8379,4.4274,-1.9407,-7.2177,0.0858,-1.7135,0.2301,1753,2019-08-07 16:49:31:607
-10.885,-5.0974,8.8379,4.4274,-1.9407,-7.2177,0.0858,-1.7135,0.2301,1759,2019-08-07 16:49:31:613
-10.9711,-4.768,9.8137,4.4274,-1.9407,-7.2177,-0.0314,-2.2952,0.2908,1764,2019-08-07 16:49:31:618
-10.9711,-4.768,9.8137,4.4274,-1.9407,-7.2177,-0.0314,-2.2952,0.2908,1768,2019-08-07 16:49:31:622
-10.9711,-4.768,9.8137,4.2313,-1.8633,-8.0471,-0.1336,-2.5732,0.2983,1774,2019-08-07 16:49:31:628
-10.7798,-5.1069,10.681,4.2313,-1.8633,-8.0471,-0.1336,-2.5732,0.2983,1779,2019-08-07 16:49:31:633
-10.7798,-5.1069,10.681,4.2313,-1.8633,-8.0471,-0.1773,-2.6169,0.2759,1783,2019-08-07 16:49:31:637
-10.7798,-5.1069,10.681,4.2313,-1.8633,-8.0471,-0.1773,-2.6169,0.2759,1789,2019-08-07 16:49:31:643
-11.4305,-5.8373,12.7126,4.2313,-1.8633,-8.0471,-0.0964,-2.504,0.2621,1794,2019-08-07 16:49:31:648
-11.4305,-5.8373,12.7126,5.0573,-0.9117,-10.2935,-0.0964,-2.504,0.2621,1798,2019-08-07 16:49:31:652
-12.5643,-5.4459,14.6029,5.0573,-0.9117,-10.2935,0.0016,-2.3644,0.2887,1804,2019-08-07 16:49:31:658
-12.5643,-5.4459,14.6029,5.0573,-0.9117,-10.2935,0.0016,-2.3644,0.2887,1808,2019-08-07 16:49:31:662
-12.5643,-5.4459,14.6029,7.7996,-2.3569,-13.6149,0.0336,-2.3506,0.3356,1815,2019-08-07 16:49:31:669
-14.2197,-4.3861,16.7052,7.7996,-2.3569,-13.6149,0.0336,-2.3506,0.3356,1818,2019-08-07 16:49:31:672
-14.2197,-4.3861,16.7052,7.7996,-2.3569,-13.6149,0.0219,-2.6776,0.4741,1824,2019-08-07 16:49:31:678
-17.6692,-2.2808,19.1423,7.7996,-2.3569,-13.6149,0.0219,-2.6776,0.4741,1829,2019-08-07 16:49:31:683
-17.6692,-2.2808,19.1423,12.6763,-5.0361,-16.1009,-0.1794,-3.4254,0.6392,1834,2019-08-07 16:49:31:688
-17.6692,-2.2808,19.1423,12.6763,-5.0361,-16.1009,-0.1794,-3.4254,0.6392,1839,2019-08-07 16:49:31:693
-20.6545,-0.7914,19.7786,12.6763,-5.0361,-16.1009,-0.5832,-4.6249,0.8117,1844,2019-08-07 16:49:31:698
-20.6545,-0.7914,19.7786,12.6763,-5.0361,-16.1009,-0.5832,-4.6249,0.8117,1849,2019-08-07 16:49:31:703
-22.3817,0.0679,17.582,16.3044,-6.6255,-13.5445,-1.2426,-6.3815,1.0035,1854,2019-08-07 16:49:31:708
-22.3817,0.0679,17.582,16.3044,-6.6255,-13.5445,-1.2426,-6.3815,1.0035,1859,2019-08-07 16:49:31:713
-22.3817,0.0679,17.582,16.3044,-6.6255,-13.5445,-1.2426,-6.3815,1.0035,1863,2019-08-07 16:49:31:717
-21.511,0.0106,13.5988,16.3044,-6.6255,-13.5445,-1.7944,-7.6779,1.1814,1868,2019-08-07 16:49:31:722
-21.511,0.0106,13.5988,16.3044,-6.6255,-13.5445,-1.7944,-7.6779,1.1814,1874,2019-08-07 16:49:31:728
-21.511,0.0106,13.5988,13.8087,-6.086,-6.547,-2.2045,-8.6292,1.3678,1878,2019-08-07 16:49:31:732
-17.5975,-0.9012,9.5921,13.8087,-6.086,-6.547,-2.2045,-8.6292,1.3678,1884,2019-08-07 16:49:31:738
-17.5975,-0.9012,9.5921,13.8087,-6.086,-6.547,-2.4176,-8.5824,1.6405,1889,2019-08-07 16:49:31:743
-17.5975,-0.9012,9.5921,13.8087,-6.086,-6.547,-2.4176,-8.5824,1.6405,1894,2019-08-07 16:49:31:748
-13.2869,-1.3356,6.1934,7.6748,-5.2308,-0.1221,-2.4176,-8.5824,1.6405,1899,2019-08-07 16:49:31:753
-13.2869,-1.3356,6.1934,7.6748,-5.2308,-0.1221,-2.5837,-7.5927,1.8461,1904,2019-08-07 16:49:31:758
-10.3637,-0.8534,4.5341,7.6748,-5.2308,-0.1221,-2.5837,-7.5927,1.8461,1909,2019-08-07 16:49:31:763
-10.3637,-0.8534,4.5341,7.6748,-5.2308,-0.1221,-2.7499,-6.21,2.073,1913,2019-08-07 16:49:31:767
-10.3637,-0.8534,4.5341,6.432,-6.238,0.0822,-2.7499,-6.21,2.073,1919,2019-08-07 16:49:31:773
-12.3253,0.0011,5.8823,6.432,-6.238,0.0822,-2.8458,-4.7485,2.3425,1924,2019-08-07 16:49:31:778
-12.3253,0.0011,5.8823,6.432,-6.238,0.0822,-2.8458,-4.7485,2.3425,1928,2019-08-07 16:49:31:782
-18.3678,1.2518,7.3059,15.4045,-8.2607,-1.7245,-3.1142,-4.5684,2.5609,1934,2019-08-07 16:49:31:788
-18.3678,1.2518,7.3059,15.4045,-8.2607,-1.7245,-3.1142,-4.5684,2.5609,1938,2019-08-07 16:49:31:792
-18.3678,1.2518,7.3059,15.4045,-8.2607,-1.7245,-3.4594,-5.3653,2.7143,1944,2019-08-07 16:49:31:798
-23.8458,2.5026,7.9894,15.4045,-8.2607,-1.7245,-3.4594,-5.3653,2.7143,1949,2019-08-07 16:49:31:803
-23.8458,2.5026,7.9894,15.4045,-8.2607,-1.7245,-3.4594,-5.3653,2.7143,1953,2019-08-07 16:49:31:807
-26.7355,4.6126,3.8035,22.516,-11.0803,0.6694,-3.7587,-7.1251,2.9327,1959,2019-08-07 16:49:31:813
-26.7355,4.6126,3.8035,22.516,-11.0803,0.6694,-3.7587,-7.1251,2.9327,1964,2019-08-07 16:49:31:818
-26.7355,4.6126,3.8035,22.516,-11.0803,0.6694,-3.9707,-8.3693,3.1298,1969,2019-08-07 16:49:31:823
-23.9894,5.152,-2.6356,22.516,-11.0803,0.6694,-3.9707,-8.3693,3.1298,1974,2019-08-07 16:49:31:828
-23.9894,5.152,-2.6356,18.1525,-11.7409,10.9658,-4.2743,-9.246,3.2288,1979,2019-08-07 16:49:31:833
-18.1909,3.4955,-8.5137,18.1525,-11.7409,10.9658,-4.2743,-9.246,3.2288,1984,2019-08-07 16:49:31:838
-18.1909,3.4955,-8.5137,18.1525,-11.7409,10.9658,-4.7217,-9.3781,3.1575,1988,2019-08-07 16:49:31:842
-18.1909,3.4955,-8.5137,18.1525,-11.7409,10.9658,-4.7217,-9.3781,3.1575,1994,2019-08-07 16:49:31:848
-13.7894,1.1945,-12.5676,10.7025,-8.5731,18.2478,-4.9763,-7.6076,2.8485,1999,2019-08-07 16:49:31:853
-13.7894,1.1945,-12.5676,10.7025,-8.5731,18.2478,-4.9763,-7.6076,2.8485,2004,2019-08-07 16:49:31:858
-13.7894,1.1945,-12.5676,10.7025,-8.5731,18.2478,-4.9763,-7.6076,2.8485,2008,2019-08-07 16:49:31:862
-11.1055,-0.4429,-8.6363,10.7025,-8.5731,18.2478,-4.8783,-4.4395,2.3159,2014,2019-08-07 16:49:31:868
-11.1055,-0.4429,-8.6363,10.2661,-6.403,17.4316,-4.8783,-4.4395,2.3159,2018,2019-08-07 16:49:31:872
-15.0429,-1.8225,-13.2888,10.2661,-6.403,17.4316,-4.2647,-2.2483,1.6096,2024,2019-08-07 16:49:31:878
-15.0429,-1.8225,-13.2888,10.2661,-6.403,17.4316,-4.2647,-2.2483,1.6096,2029,2019-08-07 16:49:31:883
-15.0429,-1.8225,-13.2888,10.2661,-6.403,17.4316,-4.0187,-0.8283,1.2453,2034,2019-08-07 16:49:31:888
-14.3683,-2.8059,-14.1986,11.3574,-5.3167,18.8022,-4.0187,-0.8283,1.2453,2038,2019-08-07 16:49:31:892
-14.3683,-2.8059,-14.1986,11.3574,-5.3167,18.8022,-4.0187,-0.8283,1.2453,2044,2019-08-07 16:49:31:898
-12.5886,-3.8896,-15.6268,9.5144,-4.3927,19.8916,-4.0453,-1.0627,0.6935,2049,2019-08-07 16:49:31:903
-12.5886,-3.8896,-15.6268,9.5144,-4.3927,19.8916,-4.0453,-1.0627,0.6935,2054,2019-08-07 16:49:31:908
-12.5886,-3.8896,-15.6268,9.5144,-4.3927,19.8916,-4.2669,-3.1463,0.0011,2059,2019-08-07 16:49:31:913
-9.9477,-5.8373,-17.272,9.5144,-4.3927,19.8916,-4.2669,-3.1463,0.0011,2064,2019-08-07 16:49:31:918
-9.9477,-5.8373,-17.272,5.2252,-1.4168,19.8499,-4.4011,-5.4388,-0.4698,2068,2019-08-07 16:49:31:922
-6.4696,-8.0332,-14.9858,5.2252,-1.4168,19.8499,-4.4011,-5.4388,-0.4698,2074,2019-08-07 16:49:31:928
-6.4696,-8.0332,-14.9858,5.2252,-1.4168,19.8499,-4.2828,-7.5182,-0.8394,2078,2019-08-07 16:49:31:932
-6.4696,-8.0332,-14.9858,5.2252,-1.4168,19.8499,-4.2828,-7.5182,-0.8394,2083,2019-08-07 16:49:31:937
-2.4269,-9.8186,-14.7595,-0.5595,1.1313,18.7068,-3.6565,-8.1989,-1.1963,2089,2019-08-07 16:49:31:943
-2.4269,-9.8186,-14.7595,-0.5595,1.1313,18.7068,-3.6565,-8.1989,-1.1963,2093,2019-08-07 16:49:31:947
-0.097,-10.9644,-19.0255,-2.2234,2.1171,23.4102,-3.2911,-7.5235,-1.2964,2099,2019-08-07 16:49:31:953
-0.097,-10.9644,-19.0255,-2.2234,2.1171,23.4102,-3.2911,-7.5235,-1.2964,2104,2019-08-07 16:49:31:958
-0.097,-10.9644,-19.0255,-2.2234,2.1171,23.4102,-3.2911,-7.5235,-1.2964,2109,2019-08-07 16:49:31:963
2.2424,-12.8548,-27.4962,-2.2234,2.1171,23.4102,-2.017,-2.1684,-1.4147,2114,2019-08-07 16:49:31:968
2.2424,-12.8548,-27.4962,-4.4388,3.6933,30.2167,-2.017,-2.1684,-1.4147,2118,2019-08-07 16:49:31:972
2.2424,-12.8548,-27.4962,-4.4388,3.6933,30.2167,-1.2831,2.2791,-1.4583,2124,2019-08-07 16:49:31:978
3.8451,-13.4086,-24.9885,-4.4388,3.6933,30.2167,-1.2831,2.2791,-1.4583,2128,2019-08-07 16:49:31:982
3.8451,-13.4086,-24.9885,-4.4388,3.6933,30.2167,-0.7771,5.0253,-1.535,2134,2019-08-07 16:49:31:988
3.8451,-13.4086,-24.9885,-2.4344,3.3018,18.0882,-0.7771,5.0253,-1.535,2138,2019-08-07 16:49:31:992
0.2043,-12.5254,-13.5292,-2.4344,3.3018,18.0882,-0.2295,5.8999,-1.5681,2144,2019-08-07 16:49:31:998
0.2043,-12.5254,-13.5292,-2.4344,3.3018,18.0882,-0.2295,5.8999,-1.5681,2149,2019-08-07 16:49:32:003
-2.4031,-12.5684,13.0991,-2.4344,3.3018,18.0882,0.6238,4.5705,-1.4051,2153,2019-08-07 16:49:32:007
-2.4031,-12.5684,13.0991,-2.4344,3.3018,18.0882,0.6238,4.5705,-1.4051,2159,2019-08-07 16:49:32:013
-2.4031,-12.5684,13.0991,2.1096,1.5652,9.4525,1.59,1.5664,-1.2112,2163,2019-08-07 16:49:32:017
-4.5848,-9.4701,-11.1771,2.1096,1.5652,9.4525,1.59,1.5664,-1.2112,2169,2019-08-07 16:49:32:023
-4.5848,-9.4701,-11.1771,2.1096,1.5652,9.4525,1.8968,-0.0251,-1.0503,2174,2019-08-07 16:49:32:028
-4.5848,-9.4701,-11.1771,2.1096,1.5652,9.4525,1.8968,-0.0251,-1.0503,2179,2019-08-07 16:49:32:033
-0.8626,-8.3197,-5.94,-0.1928,-1.1185,8.3983,1.9564,-2.6904,-0.9694,2184,2019-08-07 16:49:32:038
-0.8626,-8.3197,-5.94,-0.1928,-1.1185,8.3983,1.9564,-2.6904,-0.9694,2189,2019-08-07 16:49:32:043
1.6204,-8.3292,-2.2208,-0.1928,-1.1185,8.3983,1.6997,-3.4733,-0.7904,2194,2019-08-07 16:49:32:048
1.6204,-8.3292,-2.2208,-0.1928,-1.1185,8.3983,1.6997,-3.4733,-0.7904,2198,2019-08-07 16:49:32:052
1.6204,-8.3292,-2.2208,-6.0958,-2.472,13.783,1.7284,-0.2882,-0.6381,2204,2019-08-07 16:49:32:058
8.1843,-6.4674,-11.2949,-6.0958,-2.472,13.783,1.7284,-0.2882,-0.6381,2208,2019-08-07 16:49:32:062
8.1843,-6.4674,-11.2949,-8.9386,-2.9807,14.2653,1.7284,-0.2882,-0.6381,2214,2019-08-07 16:49:32:068
6.883,-5.7895,-10.8754,-8.9386,-2.9807,14.2653,1.5431,1.3289,-0.6296,2219,2019-08-07 16:49:32:073
6.883,-5.7895,-10.8754,-8.9386,-2.9807,14.2653,1.5431,1.3289,-0.6296,2224,2019-08-07 16:49:32:078
6.883,-5.7895,-10.8754,-8.9386,-2.9807,14.2653,1.5633,3.7225,-0.5454,2229,2019-08-07 16:49:32:083
3.2422,-4.5913,-10.0599,-4.6101,-4.4248,13.402,1.5633,3.7225,-0.5454,2234,2019-08-07 16:49:32:088
3.2422,-4.5913,-10.0599,-4.6101,-4.4248,13.402,1.8009,5.5175,-0.3846,2238,2019-08-07 16:49:32:092
3.2422,-4.5913,-10.0599,-4.6101,-4.4248,13.402,1.8009,5.5175,-0.3846,2244,2019-08-07 16:49:32:098
-0.0542,-3.689,-8.6175,-4.6101,-4.4248,13.402,1.8009,5.5175,-0.3846,2249,2019-08-07 16:49:32:103
-0.0542,-3.689,-8.6175,1.3158,-5.962,7.8256,2.1226,6.8448,-0.2194,2253,2019-08-07 16:49:32:107
-0.0542,-3.689,-8.6175,1.3158,-5.962,7.8256,2.1226,6.8448,-0.2194,2259,2019-08-07 16:49:32:113
-4.6375,-3.5267,-8.3299,1.3158,-5.962,7.8256,2.4358,7.175,-0.0756,2264,2019-08-07 16:49:32:118
-4.6375,-3.5267,-8.3299,7.6584,-6.7129,10.0799,2.4358,7.175,-0.0756,2269,2019-08-07 16:49:32:123
-9.9241,-2.1185,-5.7326,7.6584,-6.7129,10.0799,2.3303,7.4648,-0.0074,2274,2019-08-07 16:49:32:128
-9.9241,-2.1185,-5.7326,7.6584,-6.7129,10.0799,2.3303,7.4648,-0.0074,2279,2019-08-07 16:49:32:133
-9.9241,-2.1185,-5.7326,7.6584,-6.7129,10.0799,2.2344,6.9769,0.1918,2284,2019-08-07 16:49:32:138
-12.5698,-1.6363,-3.5643,7.6584,-6.7129,10.0799,2.2344,6.9769,0.1918,2288,2019-08-07 16:49:32:142
-12.5698,-1.6363,-3.5643,10.6411,-7.0229,6.3443,2.2344,6.9769,0.1918,2294,2019-08-07 16:49:32:148
-12.5698,-1.6363,-3.5643,10.6411,-7.0229,6.3443,2.1418,6.0363,0.3068,2298,2019-08-07 16:49:32:152
-12.1153,-2.6913,-1.7448,10.6411,-7.0229,6.3443,2.1418,6.0363,0.3068,2304,2019-08-07 16:49:32:158
-12.1153,-2.6913,-1.7448,10.6411,-7.0229,6.3443,2.0906,4.628,0.163,2309,2019-08-07 16:49:32:163
-12.1153,-2.6913,-1.7448,8.5858,-5.1777,5.8016,2.0906,4.628,0.163,2313,2019-08-07 16:49:32:167
-11.0102,-3.6461,-2.4613,8.5858,-5.1777,5.8016,2.0619,4.0314,-0.0543,2318,2019-08-07 16:49:32:172
-11.0102,-3.6461,-2.4613,8.5858,-5.1777,5.8016,2.0619,4.0314,-0.0543,2324,2019-08-07 16:49:32:178
-9.6993,-3.6556,-5.0727,8.5858,-5.1777,5.8016,1.9276,5.869,-0.114,2329,2019-08-07 16:49:32:183
-9.6993,-3.6556,-5.0727,5.8843,-4.4869,7.9734,1.9276,5.869,-0.114,2333,2019-08-07 16:49:32:187
-9.6993,-3.6556,-5.0727,5.8843,-4.4869,7.9734,1.819,6.7223,-0.1118,2339,2019-08-07 16:49:32:193
-9.441,-4.7584,-6.5293,5.8843,-4.4869,7.9734,1.819,6.7223,-0.1118,2344,2019-08-07 16:49:32:198
-9.441,-4.7584,-6.5293,5.8843,-4.4869,7.9734,1.8478,8.0677,-0.0852,2349,2019-08-07 16:49:32:203
-11.527,-5.6463,-4.2337,7.3353,-2.943,8.2611,1.8478,8.0677,-0.0852,2354,2019-08-07 16:49:32:208
-11.527,-5.6463,-4.2337,7.3353,-2.943,8.2611,1.8478,8.0677,-0.0852,2359,2019-08-07 16:49:32:213
-11.527,-5.6463,-4.2337,7.3353,-2.943,8.2611,1.8999,8.774,0.0128,2364,2019-08-07 16:49:32:218
-15.1295,-6.4244,-0.934,7.3353,-2.943,8.2611,1.8999,8.774,0.0128,2369,2019-08-07 16:49:32:223
-15.1295,-6.4244,-0.934,12.3265,-1.7495,2.2388,2.0001,8.9253,0.1715,2373,2019-08-07 16:49:32:227
-15.1295,-6.4244,-0.934,12.3265,-1.7495,2.2388,2.0001,8.9253,0.1715,2379,2019-08-07 16:49:32:233
-18.5263,-6.4387,3.1104,14.5226,-1.794,-0.4383,1.9777,8.0826,0.294,2384,2019-08-07 16:49:32:238
-18.5263,-6.4387,3.1104,14.5226,-1.794,-0.4383,1.9777,8.0826,0.294,2389,2019-08-07 16:49:32:243
-20.3396,-6.1332,4.6047,14.5226,-1.794,-0.4383,1.8009,6.7713,0.3483,2394,2019-08-07 16:49:32:248
-20.3396,-6.1332,4.6047,14.5226,-1.794,-0.4383,1.8009,6.7713,0.3483,2399,2019-08-07 16:49:32:253
-20.3396,-6.1332,4.6047,14.1144,-1.9321,-1.8105,1.4749,4.9433,0.3366,2404,2019-08-07 16:49:32:258
-17.7705,-6.0903,3.6949,14.1144,-1.9321,-1.8105,1.4749,4.9433,0.3366,2408,2019-08-07 16:49:32:262
-17.7705,-6.0903,3.6949,14.1144,-1.9321,-1.8105,1.4749,4.9433,0.3366,2414,2019-08-07 16:49:32:268
-17.7705,-6.0903,3.6949,14.1144,-1.9321,-1.8105,1.2501,4.1976,0.3121,2418,2019-08-07 16:49:32:272
-14.7899,-5.9088,0.4848,8.2259,-1.8864,1.2315,1.2501,4.1976,0.3121,2424,2019-08-07 16:49:32:278
-14.7899,-5.9088,0.4848,8.2259,-1.8864,1.2315,1.3268,5.3193,0.3004,2428,2019-08-07 16:49:32:282
-12.149,-5.8134,0.3528,8.2259,-1.8864,1.2315,1.3268,5.3193,0.3004,2434,2019-08-07 16:49:32:288
-12.149,-5.8134,0.3528,8.2259,-1.8864,1.2315,1.3268,5.3193,0.3004,2439,2019-08-07 16:49:32:293
-12.149,-5.8134,0.3528,8.2259,-1.8864,1.2315,1.2768,6.6168,0.3196,2444,2019-08-07 16:49:32:298
-14.5125,-5.6511,2.4081,7.5459,-2.308,1.1105,1.2011,7.3551,0.3526,2449,2019-08-07 16:49:32:303
-14.5125,-5.6511,2.4081,7.5459,-2.308,1.1105,1.2011,7.3551,0.3526,2453,2019-08-07 16:49:32:307
-14.5125,-5.6511,2.4081,7.5459,-2.308,1.1105,1.2011,7.3551,0.3526,2459,2019-08-07 16:49:32:313
-19.3781,-6.3051,7.6404,13.3737,-1.356,-6.4188,1.1756,7.5543,0.3654,2463,2019-08-07 16:49:32:317
-19.3781,-6.3051,7.6404,13.3737,-1.356,-6.4188,1.1756,7.5543,0.3654,2469,2019-08-07 16:49:32:323
-19.3781,-6.3051,7.6404,13.3737,-1.356,-6.4188,1.1351,6.767,0.3153,2474,2019-08-07 16:49:32:328
-21.1722,-6.7824,9.8936,13.3737,-1.356,-6.4188,1.1351,6.767,0.3153,2479,2019-08-07 16:49:32:333
-21.1722,-6.7824,9.8936,14.9052,-0.8479,-9.5386,0.971,5.3556,0.1886,2484,2019-08-07 16:49:32:338
-20.3876,-6.6249,10.0821,14.9052,-0.8479,-9.5386,0.971,5.3556,0.1886,2489,2019-08-07 16:49:32:343
-20.3876,-6.6249,10.0821,14.9052,-0.8479,-9.5386,0.7942,3.5052,0.0511,2493,2019-08-07 16:49:32:347
-20.3876,-6.6249,10.0821,14.9052,-0.8479,-9.5386,0.7942,3.5052,0.0511,2500,2019-08-07 16:49:32:354
-17.0147,-6.687,7.9421,9.9333,-0.7734,-6.981,0.8155,2.6668,0.0405,2504,2019-08-07 16:49:32:358
-17.0147,-6.687,7.9421,9.9333,-0.7734,-6.981,0.8155,2.6668,0.0405,2508,2019-08-07 16:49:32:362
-17.0147,-6.687,7.9421,9.9333,-0.7734,-6.981,0.8155,2.6668,0.0405,2514,2019-08-07 16:49:32:368
-12.7328,-7.2455,5.1845,9.9333,-0.7734,-6.981,0.9444,2.5891,0.0543,2518,2019-08-07 16:49:32:372
-12.7328,-7.2455,5.1845,4.3499,-0.259,-3.515,0.9444,2.5891,0.0543,2524,2019-08-07 16:49:32:378
-10.3886,-7.1643,3.775,4.3499,-0.259,-3.515,1.1766,3.2037,0.0863,2529,2019-08-07 16:49:32:383
-10.3886,-7.1643,3.775,4.3499,-0.259,-3.515,1.1766,3.2037,0.0863,2534,2019-08-07 16:49:32:388
-10.3886,-7.1643,3.775,4.3499,-0.259,-3.515,1.4994,4.0815,0.1704,2538,2019-08-07 16:49:32:392
-11.6947,-6.6631,5.5097,4.3499,-0.259,-3.515,1.4994,4.0815,0.1704,2544,2019-08-07 16:49:32:398
-11.6947,-6.6631,5.5097,5.9257,-0.9346,-6.1612,1.4994,4.0815,0.1704,2548,2019-08-07 16:49:32:402
-11.6947,-6.6631,5.5097,5.9257,-0.9346,-6.1612,1.575,4.2338,0.1992,2554,2019-08-07 16:49:32:408
-14.5461,-5.9709,7.5414,5.9257,-0.9346,-6.1612,1.575,4.2338,0.1992,2558,2019-08-07 16:49:32:412
-14.5461,-5.9709,7.5414,5.9257,-0.9346,-6.1612,1.4898,3.6021,0.1864,2564,2019-08-07 16:49:32:418
-15.436,-5.7179,9.0309,9.0535,-1.7232,-9.2414,1.4898,3.6021,0.1864,2569,2019-08-07 16:49:32:423
-15.436,-5.7179,9.0309,9.0535,-1.7232,-9.2414,1.4163,2.2301,0.1534,2573,2019-08-07 16:49:32:427
-15.436,-5.7179,9.0309,9.0535,-1.7232,-9.2414,1.4163,2.2301,0.1534,2579,2019-08-07 16:49:32:433
-13.9577,-6.0091,8.074,9.0535,-1.7232,-9.2414,1.3545,1.1861,0.1523,2584,2019-08-07 16:49:32:438
-13.9577,-6.0091,8.074,6.3141,-1.1841,-7.7924,1.3545,1.1861,0.1523,2588,2019-08-07 16:49:32:442
-10.9197,-6.6153,6.2639,6.3141,-1.1841,-7.7924,1.3098,0.5352,0.1459,2594,2019-08-07 16:49:32:448
-10.9197,-6.6153,6.2639,6.3141,-1.1841,-7.7924,1.3098,0.5352,0.1459,2599,2019-08-07 16:49:32:453
-10.9197,-6.6153,6.2639,6.3141,-1.1841,-7.7924,1.3098,0.5352,0.1459,2603,2019-08-07 16:49:32:457
-8.4319,-7.2312,4.1285,2.2916,-0.1983,-4.6951,1.3673,0.1933,0.1278,2609,2019-08-07 16:49:32:463
-8.4319,-7.2312,4.1285,2.2916,-0.1983,-4.6951,1.3673,0.1933,0.1278,2614,2019-08-07 16:49:32:468
-7.3603,-7.3457,2.9501,2.2916,-0.1983,-4.6951,1.3918,0.2199,0.1193,2619,2019-08-07 16:49:32:473
-7.3603,-7.3457,2.9501,2.2916,-0.1983,-4.6951,1.3918,0.2199,0.1193,2624,2019-08-07 16:49:32:478
-7.3603,-7.3457,2.9501,0.6712,-0.1675,-2.883,1.3503,0.4191,0.0927,2629,2019-08-07 16:49:32:483
-7.1354,-6.9877,3.1245,0.6712,-0.1675,-2.883,1.3503,0.4191,0.0927,2634,2019-08-07 16:49:32:488
-7.1354,-6.9877,3.1245,0.6712,-0.1675,-2.883,1.231,0.6908,0.0085,2639,2019-08-07 16:49:32:493
-7.1354,-6.9877,3.1245,0.6712,-0.1675,-2.883,1.231,0.6908,0.0085,2643,2019-08-07 16:49:32:497
-7.7889,-6.4341,2.9599,1.3081,-0.9295,-2.8455,1.0328,0.7813,-0.0778,2649,2019-08-07 16:49:32:503
-7.7889,-6.4341,2.9599,1.3081,-0.9295,-2.8455,1.0328,0.7813,-0.0778,2654,2019-08-07 16:49:32:508
-7.7889,-6.4341,2.9599,1.3081,-0.9295,-2.8455,1.0328,0.7813,-0.0778,2658,2019-08-07 16:49:32:512
-8.1956,-5.9472,3.205,1.3081,-0.9295,-2.8455,0.7324,0.6737,-0.1875,2664,2019-08-07 16:49:32:518
-8.1956,-5.9472,3.205,1.5533,-1.4348,-2.8396,0.7324,0.6737,-0.1875,2668,2019-08-07 16:49:32:522
-8.1956,-5.9472,3.205,1.5533,-1.4348,-2.8396,0.481,0.531,-0.2663,2674,2019-08-07 16:49:32:528
-7.3631,-6.2623,2.3943,0.9007,-1.116,-2.2083,0.481,0.531,-0.2663,2678,2019-08-07 16:49:32:532
-7.3631,-6.2623,2.3943,0.9007,-1.116,-2.2083,0.3489,0.5022,-0.2983,2684,2019-08-07 16:49:32:538
-7.3631,-6.2623,2.3943,0.9007,-1.116,-2.2083,0.3489,0.5022,-0.2983,2689,2019-08-07 16:49:32:543
-6.8177,-6.6919,1.7862,0.9007,-1.116,-2.2083,0.1987,0.4884,-0.3292,2694,2019-08-07 16:49:32:548
-6.8177,-6.6919,1.7862,0.4563,-0.5771,-1.4651,0.1987,0.4884,-0.3292,2699,2019-08-07 16:49:32:553
-6.789,-6.8781,1.3525,0.4563,-0.5771,-1.4651,0.1604,0.4276,-0.3174,2704,2019-08-07 16:49:32:558
-6.789,-6.8781,1.3525,0.4563,-0.5771,-1.4651,0.1604,0.4276,-0.3174,2709,2019-08-07 16:49:32:563
-6.789,-6.8781,1.3525,0.4563,-0.5771,-1.4651,0.1785,0.3083,-0.2812,2714,2019-08-07 16:49:32:568
-6.7364,-6.8208,1.1875,0.3541,-0.6274,-1.026,0.1785,0.3083,-0.2812,2719,2019-08-07 16:49:32:573
-6.7364,-6.8208,1.1875,0.3541,-0.6274,-1.026,0.1785,0.3083,-0.2812,2723,2019-08-07 16:49:32:577
-6.7364,-6.8208,1.1875,0.3541,-0.6274,-1.026,0.2328,0.1539,-0.2205,2729,2019-08-07 16:49:32:583
-6.8368,-6.3482,0.9236,0.3541,-0.6274,-1.026,0.2626,-0.0091,-0.1374,2734,2019-08-07 16:49:32:588
-6.8368,-6.3482,0.9236,0.3977,-1.383,-0.5342,0.2626,-0.0091,-0.1374,2739,2019-08-07 16:49:32:593
-6.8368,-6.3482,0.9236,0.3977,-1.383,-0.5342,0.2626,-0.0091,-0.1374,2743,2019-08-07 16:49:32:597
-6.6885,-5.9711,0.6643,0.3977,-1.383,-0.5342,0.2584,-0.1348,-0.0799,2749,2019-08-07 16:49:32:603
-6.6885,-5.9711,0.6643,0.3977,-1.383,-0.5342,0.2349,-0.2861,-0.0256,2754,2019-08-07 16:49:32:608
-6.2053,-6.0188,0.3249,-0.1492,-1.4507,-0.0738,0.2349,-0.2861,-0.0256,2758,2019-08-07 16:49:32:612
-6.2053,-6.0188,0.3249,-0.1492,-1.4507,-0.0738,0.2349,-0.2861,-0.0256,2764,2019-08-07 16:49:32:618
-6.2053,-6.1573,-0.0852,-0.1492,-1.4507,-0.0738,0.2179,-0.2733,-0.0074,2769,2019-08-07 16:49:32:623
-5.7699,-6.1573,-0.0852,-0.1492,-1.4507,-0.0738,0.2179,-0.2733,-0.0074,2774,2019-08-07 16:49:32:628
-5.7699,-6.1573,-0.0852,-0.6526,-1.204,0.4457,0.1902,-0.1156,0.0,2779,2019-08-07 16:49:32:633
-5.7603,-6.3482,-0.1842,-0.6526,-1.204,0.4457,0.1902,-0.1156,0.0,2784,2019-08-07 16:49:32:638
-5.7603,-6.3482,-0.1842,-0.6526,-1.204,0.4457,0.1465,0.0846,0.0213,2789,2019-08-07 16:49:32:643
-5.7603,-6.3482,-0.1842,-0.6526,-1.204,0.4457,0.1465,0.0846,0.0213,2794,2019-08-07 16:49:32:648
-5.856,-6.6776,-0.3633,-0.5223,-0.7229,0.6597,0.1188,0.2125,0.0405,2799,2019-08-07 16:49:32:653
-5.856,-6.6776,-0.3633,-0.5223,-0.7229,0.6597,0.1188,0.2125,0.0405,2804,2019-08-07 16:49:32:658
-5.856,-6.6776,-0.3633,-0.5223,-0.7229,0.6597,0.1188,0.2125,0.0405,2808,2019-08-07 16:49:32:662
-6.0378,-7.0547,-0.0616,-0.5223,-0.7229,0.6597,0.1124,0.2529,0.0522,2814,2019-08-07 16:49:32:668
-6.0378,-7.0547,-0.0616,-0.0968,-0.3666,-0.0953,0.1124,0.2529,0.0522,2819,2019-08-07 16:49:32:673
-6.4349,-7.0691,0.6078,-0.0968,-0.3666,-0.0953,0.1678,0.205,0.0895,2824,2019-08-07 16:49:32:678
-6.4349,-7.0691,0.6078,-0.0968,-0.3666,-0.0953,0.1678,0.205,0.0895,2828,2019-08-07 16:49:32:682
-6.4349,-7.0691,0.6078,-0.0968,-0.3666,-0.0953,0.1923,0.0591,0.1204,2834,2019-08-07 16:49:32:688
-6.8272,-6.8781,0.9377,0.4723,-0.6025,-0.5692,0.1923,0.0591,0.1204,2839,2019-08-07 16:49:32:693
-6.8272,-6.8781,0.9377,0.4723,-0.6025,-0.5692,0.1923,0.0591,0.1204,2843,2019-08-07 16:49:32:697
-6.8272,-6.8781,0.9377,0.4723,-0.6025,-0.5692,0.1678,-0.138,0.1555,2849,2019-08-07 16:49:32:703
-6.8559,-6.7969,1.0509,0.4723,-0.6025,-0.5692,0.1678,-0.138,0.1555,2854,2019-08-07 16:49:32:708
-6.8559,-6.7969,1.0509,0.4723,-0.6025,-0.5692,0.1231,-0.3862,0.1715,2859,2019-08-07 16:49:32:713
-6.8559,-6.7969,1.0509,0.2396,-0.5336,-0.5502,0.1231,-0.3862,0.1715,2864,2019-08-07 16:49:32:718
-6.4397,-6.9211,0.8246,0.2396,-0.5336,-0.5502,0.106,-0.464,0.1662,2869,2019-08-07 16:49:32:723
-6.4397,-6.9211,0.8246,0.2396,-0.5336,-0.5502,0.106,-0.464,0.1662,2874,2019-08-07 16:49:32:728
-5.9899,-7.0022,0.5748,-0.5657,-0.325,-0.0385,0.0847,-0.4565,0.1438,2879,2019-08-07 16:49:32:733
-5.9899,-7.0022,0.5748,-0.5657,-0.325,-0.0385,0.0847,-0.4565,0.1438,2883,2019-08-07 16:49:32:737
-5.9899,-7.0022,0.5748,-0.5657,-0.325,-0.0385,0.0613,-0.2339,0.1012,2889,2019-08-07 16:49:32:743
-5.6742,-7.1789,0.1411,-0.5657,-0.325,-0.0385,0.0613,-0.2339,0.1012,2894,2019-08-07 16:49:32:748
-5.6742,-7.1789,0.1411,-0.7438,-0.0695,0.3327,0.0496,0.0047,0.0714,2899,2019-08-07 16:49:32:753
-5.6742,-7.1789,0.1411,-0.7438,-0.0695,0.3327,0.0496,0.0047,0.0714,2903,2019-08-07 16:49:32:757
-5.8942,-7.3412,0.193,-0.7438,-0.0695,0.3327,0.0496,0.0047,0.0714,2909,2019-08-07 16:49:32:763
-5.8942,-7.3412,0.193,-0.7438,-0.0695,0.3327,0.0443,0.2125,0.0426,2914,2019-08-07 16:49:32:768
-5.8942,-7.3412,0.193,-0.7438,-0.0695,0.3327,0.0443,0.2125,0.0426,2918,2019-08-07 16:49:32:772
-6.4109,-7.3603,0.5559,-0.0431,-0.0118,-0.0714,0.057,0.3339,0.0266,2924,2019-08-07 16:49:32:778
-6.4109,-7.3603,0.5559,-0.0431,-0.0118,-0.0714,0.057,0.3339,0.0266,2929,2019-08-07 16:49:32:783
-6.8558,-7.2887,0.8906,-0.0431,-0.0118,-0.0714,0.0688,0.3211,0.0213,2934,2019-08-07 16:49:32:788
-6.8558,-7.2887,0.8906,0.8141,-0.2398,-0.6686,0.0688,0.3211,0.0213,2939,2019-08-07 16:49:32:793
-6.8558,-7.2887,0.8906,0.8141,-0.2398,-0.6686,0.0879,0.1507,0.0266,2944,2019-08-07 16:49:32:798
-7.3965,-7.0595,1.2206,0.8141,-0.2398,-0.6686,0.0879,0.1507,0.0266,2949,2019-08-07 16:49:32:803
-7.3965,-7.0595,1.2206,0.8141,-0.2398,-0.6686,0.0879,0.1507,0.0266,2954,2019-08-07 16:49:32:808
-7.3965,-7.0595,1.2206,0.8141,-0.2398,-0.6686,0.0869,-0.1327,0.048,2958,2019-08-07 16:49:32:812
-7.4252,-6.902,1.1923,0.9511,-0.4531,-0.717,0.0869,-0.1327,0.048,2964,2019-08-07 16:49:32:818
-7.4252,-6.902,1.1923,0.9511,-0.4531,-0.717,0.0709,-0.3702,0.0629,2968,2019-08-07 16:49:32:822
-6.9276,-6.9402,0.966,0.9511,-0.4531,-0.717,0.0709,-0.3702,0.0629,2974,2019-08-07 16:49:32:828
-6.9276,-6.9402,0.966,0.9511,-0.4531,-0.717,0.0581,-0.5098,0.0511,2979,2019-08-07 16:49:32:833
-6.9276,-6.9402,0.966,0.0776,-0.3223,-0.1346,0.0581,-0.5098,0.0511,2984,2019-08-07 16:49:32:838
-6.3056,-7.0691,0.5135,0.0776,-0.3223,-0.1346,0.0293,-0.5194,0.0384,2989,2019-08-07 16:49:32:843
-6.3056,-7.0691,0.5135,0.0776,-0.3223,-0.1346,0.0293,-0.5194,0.0384,2994,2019-08-07 16:49:32:848
-5.8655,-7.217,0.3485,0.0776,-0.3223,-0.1346,0.008,-0.4192,0.0181,2998,2019-08-07 16:49:32:852
-5.8655,-7.217,0.3485,-0.7244,-0.1562,0.3538,0.008,-0.4192,0.0181,3004,2019-08-07 16:49:32:858
-5.8655,-7.217,0.3485,-0.7244,-0.1562,0.3538,0.008,-0.4192,0.0181,3008,2019-08-07 16:49:32:862
-5.7028,-7.2552,0.2684,-0.759,-0.1099,0.4021,-0.0026,-0.2584,-0.0106,3014,2019-08-07 16:49:32:868
-5.7028,-7.2552,0.2684,-0.759,-0.1099,0.4021,-0.0026,-0.2584,-0.0106,3018,2019-08-07 16:49:32:872
-5.7028,-7.26,0.1647,-0.759,-0.1099,0.4021,-0.0016,-0.1316,-0.0256,3024,2019-08-07 16:49:32:878
-5.7028,-7.26,0.1647,-0.759,-0.1099,0.4021,-0.0016,-0.1316,-0.0256,3028,2019-08-07 16:49:32:882
-5.7028,-7.26,0.1647,-0.4498,-0.1926,0.1455,0.0091,0.075,-0.0383,3034,2019-08-07 16:49:32:888
-6.1669,-7.1359,0.6031,-0.4498,-0.1926,0.1455,0.0091,0.075,-0.0383,3038,2019-08-07 16:49:32:892
-6.1669,-7.1359,0.6031,-0.4498,-0.1926,0.1455,0.0187,0.0729,-0.0319,3044,2019-08-07 16:49:32:898
-6.473,-6.9497,0.6879,-0.4498,-0.1926,0.1455,0.0187,0.0729,-0.0319,3049,2019-08-07 16:49:32:903
-6.473,-6.9497,0.6879,0.061,-0.3874,-0.1017,0.0283,-0.0059,-0.016,3054,2019-08-07 16:49:32:908
-6.473,-6.9497,0.6879,0.061,-0.3874,-0.1017,0.0283,-0.0059,-0.016,3058,2019-08-07 16:49:32:912
-6.6166,-6.8877,0.8576,0.061,-0.3874,-0.1017,0.0283,-0.0059,-0.016,3064,2019-08-07 16:49:32:918
-6.6166,-6.8877,0.8576,0.061,-0.3874,-0.1017,0.0453,-0.1274,0.0011,3068,2019-08-07 16:49:32:922
-6.6166,-6.8877,0.8576,0.0463,-0.481,-0.1214,0.0453,-0.1274,0.0011,3074,2019-08-07 16:49:32:928
-6.5017,-6.8733,0.7633,0.0463,-0.481,-0.1214,0.0443,-0.2754,0.0235,3079,2019-08-07 16:49:32:933
-6.5017,-6.8733,0.7633,0.0463,-0.481,-0.1214,0.0443,-0.2754,0.0235,3084,2019-08-07 16:49:32:938
-6.1573,-6.9163,0.6549,0.0463,-0.481,-0.1214,0.04,-0.3479,0.0362,3089,2019-08-07 16:49:32:943
-6.1573,-6.9163,0.6549,-0.3617,-0.4278,0.1087,0.04,-0.3479,0.0362,3094,2019-08-07 16:49:32:948
-6.1573,-6.9163,0.6549,-0.3617,-0.4278,0.1087,0.0443,-0.3521,0.0384,3099,2019-08-07 16:49:32:953
-5.7984,-7.0118,0.4569,-0.3617,-0.4278,0.1087,0.0443,-0.3521,0.0384,3104,2019-08-07 16:49:32:958
-5.7984,-7.0118,0.4569,-0.3617,-0.4278,0.1087,0.0453,-0.301,0.0352,3110,2019-08-07 16:49:32:964
-5.7984,-7.0118,0.4569,-0.8346,-0.2949,0.4443,0.0453,-0.301,0.0352,3114,2019-08-07 16:49:32:968
-5.6262,-7.0404,0.2448,-0.8346,-0.2949,0.4443,0.0432,-0.1881,0.0203,3118,2019-08-07 16:49:32:972
-5.6262,-7.0404,0.2448,-0.8346,-0.2949,0.4443,0.0432,-0.1881,0.0203,3124,2019-08-07 16:49:32:978
-5.8032,-6.9449,0.3014,-0.8346,-0.2949,0.4443,0.0379,-0.1061,0.0107,3128,2019-08-07 16:49:32:982
-5.8032,-6.9449,0.3014,-0.5745,-0.3561,0.3627,0.0379,-0.1061,0.0107,3134,2019-08-07 16:49:32:988
-5.8032,-6.9449,0.3014,-0.5745,-0.3561,0.3627,0.0304,-0.0081,0.0149,3138,2019-08-07 16:49:32:992
-6.0089,-6.9593,0.5135,-0.5745,-0.3561,0.3627,0.0304,-0.0081,0.0149,3144,2019-08-07 16:49:32:998
-6.0089,-6.9593,0.5135,-0.5745,-0.3561,0.3627,0.0229,0.025,0.0117,3149,2019-08-07 16:49:33:003
-6.2099,-6.8256,0.6502,-0.2557,-0.5119,0.1198,0.0229,0.025,0.0117,3153,2019-08-07 16:49:33:007
-6.2099,-6.8256,0.6502,-0.2557,-0.5119,0.1198,0.0219,0.0133,0.0181,3159,2019-08-07 16:49:33:013
-6.2099,-6.8256,0.6502,-0.2557,-0.5119,0.1198,0.0219,0.0133,0.0181,3164,2019-08-07 16:49:33:018
-6.4012,-6.8113,0.7963,-0.2557,-0.5119,0.1198,0.0187,-0.0336,0.0288,3169,2019-08-07 16:49:33:023
-6.4012,-6.8113,0.7963,-0.0263,-0.5357,-0.0692,0.0187,-0.0336,0.0288,3174,2019-08-07 16:49:33:028
-6.4251,-6.7588,0.8435,-0.0263,-0.5357,-0.0692,0.0091,-0.0997,0.0341,3179,2019-08-07 16:49:33:033
-6.4251,-6.7588,0.8435,-0.0263,-0.5357,-0.0692,0.0091,-0.0997,0.0341,3183,2019-08-07 16:49:33:037
-6.4251,-6.7588,0.8435,-0.0263,-0.5357,-0.0692,-0.0101,-0.1668,0.0416,3189,2019-08-07 16:49:33:043
-6.406,-6.8447,0.7681,-0.175,-0.4148,-0.0052,-0.0101,-0.1668,0.0416,3194,2019-08-07 16:49:33:048
-6.406,-6.8447,0.7681,-0.175,-0.4148,-0.0052,-0.0292,-0.1966,0.0394,3198,2019-08-07 16:49:33:052
-6.1668,-6.964,0.6974,-0.175,-0.4148,-0.0052,-0.0292,-0.1966,0.0394,3204,2019-08-07 16:49:33:058
-6.1668,-6.964,0.6974,-0.175,-0.4148,-0.0052,-0.0292,-0.1966,0.0394,3208,2019-08-07 16:49:33:062
-6.1668,-6.964,0.6974,-0.4737,-0.2771,0.2123,-0.042,-0.187,0.033,3214,2019-08-07 16:49:33:068
-5.9802,-7.0404,0.5795,-0.4737,-0.2771,0.2123,-0.042,-0.187,0.033,3218,2019-08-07 16:49:33:072
-5.9802,-7.0404,0.5795,-0.4737,-0.2771,0.2123,-0.0442,-0.1284,0.0266,3224,2019-08-07 16:49:33:078
-5.8175,-7.1407,0.4994,-0.4737,-0.2771,0.2123,-0.041,-0.0741,0.0171,3229,2019-08-07 16:49:33:083
-5.8175,-7.1407,0.4994,-0.6934,-0.1765,0.3088,-0.041,-0.0741,0.0171,3234,2019-08-07 16:49:33:088
-5.8175,-7.1407,0.4994,-0.6934,-0.1765,0.3088,-0.041,-0.0741,0.0171,3239,2019-08-07 16:49:33:093
-5.9323,-7.0834,0.5135,-0.6934,-0.1765,0.3088,-0.0303,0.0335,-0.0011,3244,2019-08-07 16:49:33:098
-5.9323,-7.0834,0.5135,-0.6934,-0.1765,0.3088,-0.0303,0.0335,-0.0011,3249,2019-08-07 16:49:33:103
-5.9323,-7.0834,0.5135,-0.4446,-0.2159,0.1047,-0.0239,0.0878,0.0149,3253,2019-08-07 16:49:33:107
-6.0328,-7.0548,0.7351,-0.4446,-0.2159,0.1047,-0.0239,0.0878,0.0149,3260,2019-08-07 16:49:33:114
-6.0328,-7.0548,0.7351,-0.4446,-0.2159,0.1047,-0.0101,0.0878,0.0235,3264,2019-08-07 16:49:33:118
-6.2289,-7.007,0.8105,-0.4446,-0.2159,0.1047,-0.0101,0.0878,0.0235,3268,2019-08-07 16:49:33:122
-6.2289,-7.007,0.8105,-0.1765,-0.3421,0.007,0.0091,0.0505,0.0426,3274,2019-08-07 16:49:33:128
-6.2289,-7.007,0.8105,-0.1765,-0.3421,0.007,0.0091,0.0505,0.0426,3279,2019-08-07 16:49:33:133
-6.4251,-6.9497,0.7964,-0.1765,-0.3421,0.007,0.0155,-0.0102,0.0586,3284,2019-08-07 16:49:33:138
-6.4251,-6.9497,0.7964,-0.1765,-0.3421,0.007,0.0155,-0.0102,0.0586,3288,2019-08-07 16:49:33:142
-6.4203,-6.9641,0.8105,-0.0712,-0.3476,-0.0135,0.0229,-0.073,0.081,3294,2019-08-07 16:49:33:148
-6.4203,-6.9641,0.8105,-0.0712,-0.3476,-0.0135,0.0229,-0.073,0.081,3298,2019-08-07 16:49:33:152
-6.4203,-6.9641,0.8105,-0.0712,-0.3476,-0.0135,0.0272,-0.1156,0.081,3304,2019-08-07 16:49:33:158
-6.3485,-6.9927,0.6832,-0.0712,-0.3476,-0.0135,0.0272,-0.1156,0.081,3308,2019-08-07 16:49:33:162
-6.3485,-6.9927,0.6832,-0.0712,-0.3476,-0.0135,0.0272,-0.1156,0.081,3314,2019-08-07 16:49:33:168
-6.2146,-6.9975,0.5984,-0.2163,-0.3073,0.1781,0.0272,-0.1263,0.0788,3319,2019-08-07 16:49:33:173
-6.2146,-6.9975,0.5984,-0.2163,-0.3073,0.1781,0.0261,-0.1029,0.0693,3324,2019-08-07 16:49:33:178
-6.2146,-6.9975,0.5984,-0.2163,-0.3073,0.1781,0.0261,-0.1029,0.0693,3328,2019-08-07 16:49:33:182
-6.1763,-6.8829,0.6078,-0.2163,-0.3073,0.1781,0.0261,-0.1029,0.0693,3334,2019-08-07 16:49:33:188
-6.1763,-6.8829,0.6078,-0.3495,-0.3979,0.2037,0.0293,-0.0475,0.0511,3338,2019-08-07 16:49:33:192
-6.1763,-6.8829,0.6078,-0.3495,-0.3979,0.2037,0.0293,-0.0475,0.0511,3344,2019-08-07 16:49:33:198
-6.1763,-6.9068,0.5748,-0.3495,-0.3979,0.2037,0.0272,0.0122,0.0362,3348,2019-08-07 16:49:33:202
-6.1763,-6.9068,0.5748,-0.3495,-0.3979,0.2037,0.0272,0.0122,0.0362,3354,2019-08-07 16:49:33:208
-6.1763,-6.9068,0.5748,-0.2024,-0.3923,0.1582,0.0229,0.0804,0.0171,3358,2019-08-07 16:49:33:212
-6.3485,-6.859,0.7492,-0.2024,-0.3923,0.1582,0.0229,0.0804,0.0171,3364,2019-08-07 16:49:33:218
-6.3485,-6.859,0.7492,-0.2024,-0.3923,0.1582,0.0261,0.091,0.0171,3369,2019-08-07 16:49:33:223
-6.4824,-6.8256,0.8954,-0.2024,-0.3923,0.1582,0.0261,0.091,0.0171,3374,2019-08-07 16:49:33:228
-6.4824,-6.8256,0.8954,-0.0019,-0.4505,-0.0844,0.0261,0.091,0.0171,3378,2019-08-07 16:49:33:232
-6.4824,-6.8256,0.8954,-0.0019,-0.4505,-0.0844,0.0251,0.0591,0.0171,3384,2019-08-07 16:49:33:238
-6.559,-6.7683,0.9944,-0.0019,-0.4505,-0.0844,0.0251,0.0591,0.0171,3389,2019-08-07 16:49:33:243
-6.559,-6.7683,0.9944,-0.0019,-0.4505,-0.0844,0.0123,-0.0187,0.0256,3394,2019-08-07 16:49:33:248
-6.5542,-6.7636,1.0651,0.0448,-0.5071,-0.224,0.0123,-0.0187,0.0256,3399,2019-08-07 16:49:33:253
-6.5542,-6.7636,1.0651,0.0448,-0.5071,-0.224,6.0E-4,-0.0698,0.033,3404,2019-08-07 16:49:33:258
-6.5542,-6.7636,1.0651,0.0448,-0.5071,-0.224,6.0E-4,-0.0698,0.033,3410,2019-08-07 16:49:33:264
-6.4489,-6.8113,0.9048,0.0448,-0.5071,-0.224,-0.0122,-0.1007,0.0362,3414,2019-08-07 16:49:33:268
-6.4489,-6.8113,0.9048,-0.1231,-0.4484,-0.0757,-0.0122,-0.1007,0.0362,3419,2019-08-07 16:49:33:273
-6.3245,-6.9163,0.8388,-0.1231,-0.4484,-0.0757,-0.0186,-0.1093,0.0341,3424,2019-08-07 16:49:33:278
-6.3245,-6.9163,0.8388,-0.1231,-0.4484,-0.0757,-0.0186,-0.1093,0.0341,3429,2019-08-07 16:49:33:283
-6.3245,-6.9163,0.8388,-0.1231,-0.4484,-0.0757,-0.0218,-0.089,0.0298,3433,2019-08-07 16:49:33:287
-6.2001,-6.9402,0.721,-0.3371,-0.3248,0.128,-0.0218,-0.089,0.0298,3439,2019-08-07 16:49:33:293
-6.2001,-6.9402,0.721,-0.3371,-0.3248,0.128,-0.0293,-0.0517,0.0171,3443,2019-08-07 16:49:33:297
-6.1954,-7.0213,0.7398,-0.3371,-0.3248,0.128,-0.0293,-0.0517,0.0171,3449,2019-08-07 16:49:33:303
-6.1954,-7.0213,0.7398,-0.3371,-0.3248,0.128,-0.0314,0.0239,-0.0021,3454,2019-08-07 16:49:33:308
-6.1954,-7.0213,0.7398,-0.3472,-0.2672,0.1123,-0.0314,0.0239,-0.0021,3460,2019-08-07 16:49:33:314
-6.2432,-6.9736,0.7304,-0.3472,-0.2672,0.1123,-0.0356,0.0612,-0.0106,3464,2019-08-07 16:49:33:318
-6.2432,-6.9736,0.7304,-0.3472,-0.2672,0.1123,-0.0356,0.0612,-0.0106,3468,2019-08-07 16:49:33:322
-6.2432,-6.9736,0.7304,-0.3472,-0.2672,0.1123,-0.0356,0.0612,-0.0106,3474,2019-08-07 16:49:33:328
-6.3771,-6.9736,0.8105,-0.1791,-0.2694,-5.0E-4,-0.0388,0.075,-0.0138,3479,2019-08-07 16:49:33:333
-6.3771,-6.9736,0.8105,-0.1791,-0.2694,-5.0E-4,-0.0388,0.075,-0.0138,3484,2019-08-07 16:49:33:338
-6.4776,-6.9688,0.9331,-0.1791,-0.2694,-5.0E-4,-0.0324,0.0527,-0.0128,3489,2019-08-07 16:49:33:343
-6.4776,-6.9688,0.9331,-0.1791,-0.2694,-5.0E-4,-0.0239,-0.0081,-0.0064,3494,2019-08-07 16:49:33:348
-6.4776,-6.9688,0.9331,0.0267,-0.3087,-0.0944,-0.0239,-0.0081,-0.0064,3498,2019-08-07 16:49:33:352
-6.5637,-6.9497,0.9708,0.0267,-0.3087,-0.0944,-0.0186,-0.0858,0.0107,3504,2019-08-07 16:49:33:358
-6.5637,-6.9497,0.9708,0.0267,-0.3087,-0.0944,-0.0186,-0.0858,0.0107,3509,2019-08-07 16:49:33:363
-6.4537,-6.9784,0.8954,0.0267,-0.3087,-0.0944,-0.0186,-0.0858,0.0107,3514,2019-08-07 16:49:33:368
-6.4537,-6.9784,0.8954,-0.1417,-0.2828,0.0101,-0.0143,-0.1465,0.0213,3519,2019-08-07 16:49:33:373
-6.4537,-6.9784,0.8954,-0.1417,-0.2828,0.0101,-0.0143,-0.1465,0.0213,3523,2019-08-07 16:49:33:377
-6.3341,-6.9832,0.82,-0.1417,-0.2828,0.0101,-0.0122,-0.1796,0.0309,3529,2019-08-07 16:49:33:383
-6.3341,-6.9832,0.82,-0.1417,-0.2828,0.0101,-0.0122,-0.1796,0.0309,3533,2019-08-07 16:49:33:387
-6.1427,-7.0452,0.7115,-0.3965,-0.2172,0.1442,-0.0122,-0.17,0.032,3539,2019-08-07 16:49:33:393
-6.1427,-7.0452,0.7115,-0.3965,-0.2172,0.1442,-0.0122,-0.17,0.032,3544,2019-08-07 16:49:33:398
-6.1427,-7.0452,0.7115,-0.3965,-0.2172,0.1442,-5.0E-4,-0.1369,0.0203,3548,2019-08-07 16:49:33:402
-6.1331,-6.9641,0.6503,-0.3965,-0.2172,0.1442,-5.0E-4,-0.1369,0.0203,3554,2019-08-07 16:49:33:408
-6.1331,-6.9641,0.6503,-0.3965,-0.2172,0.1442,-5.0E-4,-0.1369,0.0203,3558,2019-08-07 16:49:33:412
-6.1857,-6.9068,0.6031,-0.3924,-0.3101,0.2927,0.0038,-0.0965,0.0139,3564,2019-08-07 16:49:33:418
-6.1857,-6.9068,0.6031,-0.3924,-0.3101,0.2927,0.0038,-0.0965,0.0139,3569,2019-08-07 16:49:33:423
-6.1857,-6.9068,0.6031,-0.3924,-0.3101,0.2927,0.0059,-0.0571,0.0064,3574,2019-08-07 16:49:33:428
-6.2049,-6.902,0.5984,-0.3636,-0.3665,0.343,0.0059,-0.0571,0.0064,3578,2019-08-07 16:49:33:432
-6.2049,-6.902,0.5984,-0.3636,-0.3665,0.343,0.0059,-0.0294,0.0021,3584,2019-08-07 16:49:33:438
-6.1761,-6.9593,0.6408,-0.3636,-0.3665,0.343,0.0059,-0.0294,0.0021,3588,2019-08-07 16:49:33:442
-6.1761,-6.9593,0.6408,-0.3636,-0.3665,0.343,0.008,-0.0155,0.0021,3594,2019-08-07 16:49:33:448
-6.1761,-6.9593,0.6408,-0.3059,-0.2424,0.1331,0.008,-0.0155,0.0021,3598,2019-08-07 16:49:33:452
-6.2336,-7.0214,0.754,-0.3059,-0.2424,0.1331,0.0134,-0.0081,0.0043,3604,2019-08-07 16:49:33:458
-6.2336,-7.0214,0.754,-0.3059,-0.2424,0.1331,0.0134,-0.0081,0.0043,3610,2019-08-07 16:49:33:464
-6.3101,-7.0214,0.8153,-0.3059,-0.2424,0.1331,0.008,-0.0049,0.0085,3614,2019-08-07 16:49:33:468
-6.3101,-7.0214,0.8153,-0.3059,-0.2424,0.1331,0.008,-0.0049,0.0085,3619,2019-08-07 16:49:33:473
-6.3101,-7.0214,0.8153,-0.216,-0.2365,0.0548,-0.0026,-0.0144,0.0128,3624,2019-08-07 16:49:33:478
-6.3101,-7.0404,0.7493,-0.216,-0.2365,0.0548,-0.0026,-0.0144,0.0128,3629,2019-08-07 16:49:33:483
-6.3101,-7.0404,0.7493,-0.216,-0.2365,0.0548,-0.0207,-0.024,0.0171,3634,2019-08-07 16:49:33:488
-6.3101,-7.0404,0.7493,-0.2416,-0.1777,0.1586,-0.0207,-0.024,0.0171,3638,2019-08-07 16:49:33:492
-6.3244,-7.0786,0.7304,-0.2416,-0.1777,0.1586,-0.0346,-0.0262,0.0107,3644,2019-08-07 16:49:33:498
-6.3244,-7.0786,0.7304,-0.2416,-0.1777,0.1586,-0.0346,-0.0262,0.0107,3648,2019-08-07 16:49:33:502
-6.2779,-7.0928,0.7396,-0.2416,-0.1777,0.1586,-0.0346,-0.008,0.0085,3654,2019-08-07 16:49:33:508
-6.2779,-7.0928,0.7396,-0.3125,-0.1397,0.1034,-0.0346,-0.008,0.0085,3658,2019-08-07 16:49:33:512
-6.2779,-7.0928,0.7396,-0.3125,-0.1397,0.1034,-0.0229,0.0165,-0.0011,3664,2019-08-07 16:49:33:518
-6.1678,-7.0928,0.6689,-0.3125,-0.1397,0.1034,-0.0229,0.0165,-0.0011,3669,2019-08-07 16:49:33:523
-6.1678,-7.0928,0.6689,-0.3125,-0.1397,0.1034,-0.0197,0.042,-0.0074,3674,2019-08-07 16:49:33:528
-6.2444,-7.0117,0.6689,-0.2974,-0.2464,0.2041,-0.0197,0.042,-0.0074,3679,2019-08-07 16:49:33:533
-6.2444,-7.0117,0.6689,-0.2974,-0.2464,0.2041,-0.0197,0.042,-0.0074,3683,2019-08-07 16:49:33:537
-6.2444,-7.0117,0.6689,-0.2974,-0.2464,0.2041,-0.0079,0.0537,-0.0074,3689,2019-08-07 16:49:33:543
-6.2731,-7.0117,0.7867,-0.2974,-0.2464,0.2041,-0.0079,0.0537,-0.0074,3694,2019-08-07 16:49:33:548
-6.2731,-7.0117,0.7867,-0.2974,-0.2464,0.2041,0.0091,0.0591,-0.0138,3699,2019-08-07 16:49:33:553
-6.2731,-7.0117,0.7867,-0.182,-0.2669,0.1016,0.0091,0.0591,-0.0138,3704,2019-08-07 16:49:33:558
-6.3449,-6.9496,0.8008,-0.182,-0.2669,0.1016,0.0176,0.0452,-0.0138,3708,2019-08-07 16:49:33:562
-6.3449,-6.9496,0.8008,-0.182,-0.2669,0.1016,0.0176,0.0452,-0.0138,3714,2019-08-07 16:49:33:568
-6.4023,-6.9592,0.7867,-0.182,-0.2669,0.1016,0.0134,0.0282,-0.0085,3719,2019-08-07 16:49:33:573
-6.4023,-6.9592,0.7867,-0.1528,-0.2821,0.1354,0.0134,0.0282,-0.0085,3724,2019-08-07 16:49:33:578
-6.4023,-6.9592,0.7867,-0.1528,-0.2821,0.1354,0.0134,0.0165,-0.0064,3729,2019-08-07 16:49:33:583
-6.364,-6.9878,0.7773,-0.1528,-0.2821,0.1354,0.0134,0.0165,-0.0064,3734,2019-08-07 16:49:33:588
-6.364,-6.9878,0.7773,-0.1528,-0.2821,0.1354,0.0134,0.0165,-0.0064,3738,2019-08-07 16:49:33:592
-6.3497,-7.026,0.7537,-0.1762,-0.2732,0.1014,0.0102,0.0154,-0.0096,3744,2019-08-07 16:49:33:598
-6.3497,-7.026,0.7537,-0.1762,-0.2732,0.1014,0.0102,0.0154,-0.0096,3749,2019-08-07 16:49:33:603
-6.3497,-7.026,0.7537,-0.1762,-0.2732,0.1014,0.0038,0.0165,-0.0085,3753,2019-08-07 16:49:33:607
-6.3019,-6.9401,0.7584,-0.1762,-0.2732,0.1014,0.0038,0.0165,-0.0085,3759,2019-08-07 16:49:33:613
-6.3019,-6.9401,0.7584,-0.2279,-0.3125,0.1276,0.0048,0.0271,-0.0096,3764,2019-08-07 16:49:33:618
-6.3497,-6.9257,0.7207,-0.2279,-0.3125,0.1276,0.0048,0.0271,-0.0096,3769,2019-08-07 16:49:33:623
-6.3497,-6.9257,0.7207,-0.2279,-0.3125,0.1276,0.008,0.0431,-0.0096,3774,2019-08-07 16:49:33:628
-6.3497,-6.9257,0.7207,-0.2279,-0.3125,0.1276,0.008,0.0431,-0.0096,3779,2019-08-07 16:49:33:633
-6.4024,-6.9496,0.8291,-0.1369,-0.3132,0.0236,0.0176,0.0612,-0.0064,3783,2019-08-07 16:49:33:637
-6.4024,-6.9496,0.8291,-0.1369,-0.3132,0.0236,0.0176,0.0612,-0.0064,3789,2019-08-07 16:49:33:643
-6.4024,-6.9496,0.8291,-0.1369,-0.3132,0.0236,0.024,0.0591,-0.0128,3793,2019-08-07 16:49:33:647
-6.4598,-6.9353,0.8244,-0.1369,-0.3132,0.0236,0.024,0.0591,-0.0128,3799,2019-08-07 16:49:33:653
-6.4598,-6.9353,0.8244,-0.0127,-0.3802,0.0101,0.024,0.0591,-0.0128,3804,2019-08-07 16:49:33:658
-6.5363,-6.878,0.8857,-0.0127,-0.3802,0.0101,0.0261,0.0271,-0.0128,3811,2019-08-07 16:49:33:665
-6.5363,-6.878,0.8857,-0.0127,-0.3802,0.0101,0.0261,0.0271,-0.0128,3813,2019-08-07 16:49:33:667
-6.4311,-6.9448,0.9564,-0.0127,-0.3802,0.0101,0.0304,-0.0102,-0.0011,3819,2019-08-07 16:49:33:673
-6.4311,-6.9448,0.9564,-0.1229,-0.308,-0.0703,0.0304,-0.0102,-0.0011,3823,2019-08-07 16:49:33:677
-6.4311,-6.9448,0.9564,-0.1229,-0.308,-0.0703,0.0315,-0.0336,0.0043,3829,2019-08-07 16:49:33:683
-6.3211,-6.983,0.9139,-0.1229,-0.308,-0.0703,0.0315,-0.0336,0.0043,3833,2019-08-07 16:49:33:687
-6.3211,-6.983,0.9139,-0.1229,-0.308,-0.0703,0.0251,-0.0357,-0.0032,3839,2019-08-07 16:49:33:693
-6.3546,-6.9544,1.0035,-0.1849,-0.307,-0.1412,0.0251,-0.0357,-0.0032,3843,2019-08-07 16:49:33:697
-6.3546,-6.9544,1.0035,-0.1849,-0.307,-0.1412,0.0155,-0.0507,-0.0032,3849,2019-08-07 16:49:33:703
-6.3546,-6.9544,1.0035,-0.1849,-0.307,-0.1412,0.0155,-0.0507,-0.0032,3854,2019-08-07 16:49:33:708
-6.2541,-6.9687,0.9092,-0.1849,-0.307,-0.1412,0.0155,-0.0507,-0.0032,3858,2019-08-07 16:49:33:712
-6.2541,-6.9687,0.9092,-0.3078,-0.2166,0.0095,0.008,-0.0507,-0.0021,3864,2019-08-07 16:49:33:718
-6.2541,-6.9687,0.9092,-0.3078,-0.2166,0.0095,0.008,-0.0507,-0.0021,3868,2019-08-07 16:49:33:722
-6.168,-7.0308,0.7348,-0.3078,-0.2166,0.0095,-0.0143,-0.0155,0.0021,3874,2019-08-07 16:49:33:728
-6.168,-7.0308,0.7348,-0.3078,-0.2166,0.0095,-0.0143,-0.0155,0.0021,3878,2019-08-07 16:49:33:732
-6.1632,-7.0164,0.7018,-0.3737,-0.246,0.1703,-0.0143,0.0165,-0.0011,3884,2019-08-07 16:49:33:738
-6.1632,-7.0164,0.7018,-0.3737,-0.246,0.1703,-0.0143,0.0165,-0.0011,3889,2019-08-07 16:49:33:743
-6.1632,-7.0164,0.7018,-0.3737,-0.246,0.1703,-0.0122,0.0399,-0.0096,3894,2019-08-07 16:49:33:748
-6.2972,-6.9878,0.7631,-0.3737,-0.246,0.1703,-0.0122,0.0399,-0.0096,3898,2019-08-07 16:49:33:752
-6.2972,-6.9878,0.7631,-0.2106,-0.3237,0.0829,-0.0143,0.0537,-0.0106,3904,2019-08-07 16:49:33:758
-6.3355,-6.9401,0.8385,-0.2106,-0.3237,0.0829,-0.0143,0.0537,-0.0106,3908,2019-08-07 16:49:33:762
-6.3355,-6.9401,0.8385,-0.2106,-0.3237,0.0829,-0.0165,0.0612,-0.0096,3914,2019-08-07 16:49:33:768
-6.3355,-6.9401,0.8385,-0.2106,-0.3237,0.0829,-0.0165,0.0612,-0.0096,3919,2019-08-07 16:49:33:773
-6.4072,-6.921,0.7442,-0.1056,-0.382,0.1149,-0.0122,0.0591,-0.0128,3925,2019-08-07 16:49:33:779
-6.4072,-6.921,0.7442,-0.1056,-0.382,0.1149,-0.0122,0.0591,-0.0128,3929,2019-08-07 16:49:33:783
-6.5077,-6.9639,0.7348,-0.1056,-0.382,0.1149,-0.0122,0.0346,-0.0096,3934,2019-08-07 16:49:33:788
-6.5077,-6.9639,0.7348,-0.1056,-0.382,0.1149,-0.0122,0.0346,-0.0096,3938,2019-08-07 16:49:33:792
-6.5077,-6.9639,0.7348,-0.1057,-0.3112,0.0416,-0.0015,5.0E-4,-0.0043,3944,2019-08-07 16:49:33:798
-6.4073,-6.9973,0.8338,-0.1057,-0.3112,0.0416,-0.0015,5.0E-4,-0.0043,3949,2019-08-07 16:49:33:803
-6.4073,-6.9973,0.8338,-0.1057,-0.3112,0.0416,-0.0015,5.0E-4,-0.0043,3953,2019-08-07 16:49:33:807
-6.3116,-7.0403,0.7065,-0.1057,-0.3112,0.0416,0.0091,-0.0315,0.0,3959,2019-08-07 16:49:33:813
-6.3116,-7.0403,0.7065,-0.2868,-0.2063,0.1346,0.0091,-0.0315,0.0,3964,2019-08-07 16:49:33:818
-6.3116,-7.0403,0.7065,-0.2868,-0.2063,0.1346,0.007,-0.0389,0.0053,3969,2019-08-07 16:49:33:823
-6.1633,-7.0546,0.7159,-0.2868,-0.2063,0.1346,0.007,-0.0389,0.0053,3974,2019-08-07 16:49:33:828
-6.1633,-7.0546,0.7159,-0.2868,-0.2063,0.1346,0.0038,-0.0304,0.0107,3979,2019-08-07 16:49:33:833
-6.192,-7.0308,0.7112,-0.3443,-0.2344,0.1435,0.0038,-0.0304,0.0107,3984,2019-08-07 16:49:33:838
-6.192,-7.0308,0.7112,-0.3443,-0.2344,0.1435,0.0059,-0.0144,0.0107,3988,2019-08-07 16:49:33:842
-6.192,-7.0308,0.7112,-0.3443,-0.2344,0.1435,0.0059,-0.0144,0.0107,3994,2019-08-07 16:49:33:848
-6.1729,-6.9926,0.6829,-0.3443,-0.2344,0.1435,0.0048,0.0026,0.0171,3998,2019-08-07 16:49:33:852
-6.1729,-6.9926,0.6829,-0.3171,-0.2854,0.1345,0.0048,0.0026,0.0171,4003,2019-08-07 16:49:33:857
-6.2255,-6.9305,0.7395,-0.3171,-0.2854,0.1345,0.0134,0.0196,0.0224,4009,2019-08-07 16:49:33:863
-6.2255,-6.9305,0.7395,-0.3171,-0.2854,0.1345,0.0134,0.0196,0.0224,4014,2019-08-07 16:49:33:868
-6.2255,-6.9305,0.7395,-0.3171,-0.2854,0.1345,0.0208,0.0484,0.0192,4019,2019-08-07 16:49:33:873
-6.2829,-6.9114,0.7206,-0.3171,-0.2854,0.1345,0.0208,0.0484,0.0192,4024,2019-08-07 16:49:33:878
-6.2829,-6.9114,0.7206,-0.2152,-0.3352,0.0897,0.0208,0.0484,0.0192,4029,2019-08-07 16:49:33:883
-6.2829,-6.9114,0.7206,-0.2152,-0.3352,0.0897,0.0251,0.0633,0.0117,4034,2019-08-07 16:49:33:888
-6.4504,-6.9448,0.7065,-0.2152,-0.3352,0.0897,0.0251,0.0633,0.0117,4039,2019-08-07 16:49:33:893
-6.4504,-6.9448,0.7065,-0.2152,-0.3352,0.0897,0.023,0.0591,0.0085,4044,2019-08-07 16:49:33:898
-6.5365,-6.9639,0.8008,-0.0228,-0.3134,0.1222,0.023,0.0591,0.0085,4048,2019-08-07 16:49:33:902
-6.5365,-6.9639,0.8008,-0.0228,-0.3134,0.1222,0.0283,0.0463,0.0032,4054,2019-08-07 16:49:33:908
-6.5365,-6.9639,0.8008,-0.0228,-0.3134,0.1222,0.0283,0.0463,0.0032,4059,2019-08-07 16:49:33:913
-6.5174,-7.0021,0.7961,-0.0228,-0.3134,0.1222,0.0304,0.025,0.0043,4064,2019-08-07 16:49:33:918
-6.5174,-7.0021,0.7961,-0.0396,-0.2779,0.0496,0.0304,0.025,0.0043,4068,2019-08-07 16:49:33:922
-6.4839,-6.9926,0.8055,-0.0396,-0.2779,0.0496,0.0325,0.0037,0.0021,4074,2019-08-07 16:49:33:928
-6.4839,-6.9926,0.8055,-0.0396,-0.2779,0.0496,0.0325,0.0037,0.0021,4078,2019-08-07 16:49:33:932
-6.4839,-6.9926,0.8055,-0.0396,-0.2779,0.0496,0.0325,-0.0144,0.0021,4084,2019-08-07 16:49:33:938
-6.4074,-6.9496,0.8196,-0.1413,-0.305,0.0302,0.0325,-0.0144,0.0021,4088,2019-08-07 16:49:33:942
-6.4074,-6.9496,0.8196,-0.1413,-0.305,0.0302,0.0283,-0.0304,0.0021,4094,2019-08-07 16:49:33:948
-6.2591,-6.8875,0.8715,-0.1413,-0.305,0.0302,0.0283,-0.0304,0.0021,4099,2019-08-07 16:49:33:953
-6.2591,-6.8875,0.8715,-0.1413,-0.305,0.0302,0.0272,-0.0421,0.0053,4103,2019-08-07 16:49:33:957
-6.2591,-6.8875,0.8715,-0.3662,-0.3326,0.0248,0.0272,-0.0421,0.0053,4110,2019-08-07 16:49:33:964
-6.1299,-6.9018,0.8055,-0.3662,-0.3326,0.0248,0.0198,-0.0315,0.0117,4114,2019-08-07 16:49:33:968
-6.1299,-6.9018,0.8055,-0.3662,-0.3326,0.0248,0.0198,-0.0315,0.0117,4119,2019-08-07 16:49:33:973
-6.1251,-6.8828,0.862,-0.3662,-0.3326,0.0248,0.0198,-0.0315,0.0117,4124,2019-08-07 16:49:33:978
-6.1251,-6.8828,0.862,-0.4048,-0.3648,0.06,0.0123,-0.008,0.0117,4128,2019-08-07 16:49:33:982
-6.1251,-6.8828,0.862,-0.4048,-0.3648,0.06,0.0123,-0.008,0.0117,4134,2019-08-07 16:49:33:988
-6.2543,-6.773,0.7536,-0.4048,-0.3648,0.06,0.0048,0.0122,0.0181,4138,2019-08-07 16:49:33:992
-6.2543,-6.773,0.7536,-0.4048,-0.3648,0.06,0.0048,0.0122,0.0181,4144,2019-08-07 16:49:33:998
-6.2974,-6.7968,0.7725,-0.2499,-0.4576,0.0505,-0.0026,0.0228,0.0224,4149,2019-08-07 16:49:34:003
-6.2974,-6.7968,0.7725,-0.2499,-0.4576,0.0505,-0.0026,0.0228,0.0224,4154,2019-08-07 16:49:34:008
-6.2974,-6.7968,0.7725,-0.2499,-0.4576,0.0505,-0.0026,0.0228,0.0224,4159,2019-08-07 16:49:34:013
-6.3357,-6.8589,0.7159,-0.2499,-0.4576,0.0505,-0.0079,0.0548,0.0181,4163,2019-08-07 16:49:34:017
-6.3357,-6.8589,0.7159,-0.1395,-0.3972,0.1516,-0.0079,0.0548,0.0181,4169,2019-08-07 16:49:34:023
-6.3357,-6.8589,0.7159,-0.1395,-0.3972,0.1516,-0.0165,0.075,0.0139,4174,2019-08-07 16:49:34:028
-6.4936,-6.9114,0.7536,-0.1395,-0.3972,0.1516,-0.0165,0.075,0.0139,4179,2019-08-07 16:49:34:033
-6.4936,-6.9114,0.7536,-0.1395,-0.3972,0.1516,-0.009,0.0644,0.0139,4184,2019-08-07 16:49:34:038
-6.5462,-6.983,0.829,0.0045,-0.2848,0.0315,-0.009,0.0644,0.0139,4189,2019-08-07 16:49:34:043
-6.5462,-6.983,0.829,0.0045,-0.2848,0.0315,6.0E-4,0.0356,0.0096,4194,2019-08-07 16:49:34:048
-6.5462,-6.983,0.829,0.0045,-0.2848,0.0315,6.0E-4,0.0356,0.0096,4198,2019-08-07 16:49:34:052
-6.5606,-6.9257,0.796,0.0045,-0.2848,0.0315,0.0038,0.0037,0.0128,4204,2019-08-07 16:49:34:058
-6.5606,-6.9257,0.796,-0.0612,-0.3298,0.0377,0.0038,0.0037,0.0128,4208,2019-08-07 16:49:34:062
-6.5606,-6.9257,0.796,-0.0612,-0.3298,0.0377,0.0038,-0.024,0.0139,4214,2019-08-07 16:49:34:068
-6.4984,-6.9305,0.8809,-0.0612,-0.3298,0.0377,0.0038,-0.024,0.0139,4218,2019-08-07 16:49:34:072
-6.4984,-6.9305,0.8809,-0.0612,-0.3298,0.0377,0.0038,-0.024,0.0139,4224,2019-08-07 16:49:34:078
-6.4027,-6.878,0.9327,-0.1638,-0.3606,-0.0841,0.0048,-0.0581,0.0117,4228,2019-08-07 16:49:34:082
-6.4027,-6.878,0.9327,-0.1638,-0.3606,-0.0841,0.0048,-0.0581,0.0117,4234,2019-08-07 16:49:34:088
-6.4027,-6.878,0.9327,-0.1638,-0.3606,-0.0841,-0.0015,-0.0773,0.0181,4238,2019-08-07 16:49:34:092
-6.2687,-6.8875,0.7065,-0.1638,-0.3606,-0.0841,-0.0015,-0.0773,0.0181,4244,2019-08-07 16:49:34:098
-6.2687,-6.8875,0.7065,-0.3612,-0.325,0.1652,-0.0079,-0.056,0.0139,4248,2019-08-07 16:49:34:102
-5.6516,-7.1978,0.6263,-0.3612,-0.325,0.1652,-0.0079,-0.056,0.0139,4254,2019-08-07 16:49:34:108
-5.6516,-7.1978,0.6263,-0.3612,-0.325,0.1652,0.0016,0.0292,-0.0628,4259,2019-08-07 16:49:34:113
-5.6516,-7.1978,0.6263,-0.3612,-0.325,0.1652,0.0016,0.0292,-0.0628,4263,2019-08-07 16:49:34:117
-6.6898,-6.6059,0.4896,0.2484,-0.7139,0.2243,0.0016,0.0292,-0.0628,4269,2019-08-07 16:49:34:123
-6.6898,-6.6059,0.4896,0.2484,-0.7139,0.2243,-0.0037,0.1944,0.0181,4273,2019-08-07 16:49:34:127
-6.2114,-6.8541,0.8573,0.2484,-0.7139,0.2243,-0.0037,0.1944,0.0181,4279,2019-08-07 16:49:34:133
-6.2114,-6.8541,0.8573,0.2484,-0.7139,0.2243,-0.0037,0.172,0.0352,4284,2019-08-07 16:49:34:138
-6.2114,-6.8541,0.8573,-0.0414,-0.2659,0.0677,-0.0037,0.172,0.0352,4288,2019-08-07 16:49:34:142
-6.6372,-6.9448,0.7819,-0.0414,-0.2659,0.0677,-0.0154,0.1134,-0.0149,4294,2019-08-07 16:49:34:148
-6.6372,-6.9448,0.7819,-0.0414,-0.2659,0.0677,-0.0154,0.1134,-0.0149,4298,2019-08-07 16:49:34:152
-6.6324,-6.9305,0.961,-0.0414,-0.2659,0.0677,-0.0143,0.0527,0.0096,4304,2019-08-07 16:49:34:158
-6.6324,-6.9305,0.961,-0.0775,-0.2936,-0.1199,-0.0143,0.0527,0.0096,4309,2019-08-07 16:49:34:163
-6.6324,-6.9305,0.961,-0.0775,-0.2936,-0.1199,0.0102,0.0047,-0.0106,4314,2019-08-07 16:49:34:168
-6.5224,-6.94,0.8526,-0.0775,-0.2936,-0.1199,0.0102,0.0047,-0.0106,4318,2019-08-07 16:49:34:172
-6.5224,-6.94,0.8526,-0.0775,-0.2936,-0.1199,0.0102,0.0047,-0.0106,4324,2019-08-07 16:49:34:178
-6.5224,-6.94,0.8526,-0.0391,-0.3315,0.0494,0.0251,-0.0432,-0.0011,4328,2019-08-07 16:49:34:182
-6.5319,-6.9066,0.7677,-0.0391,-0.3315,0.0494,0.0251,-0.0432,-0.0011,4334,2019-08-07 16:49:34:188
-6.5319,-6.9066,0.7677,-0.0391,-0.3315,0.0494,0.0219,-0.0698,0.0096,4338,2019-08-07 16:49:34:192
-6.4171,-6.9543,0.8479,-0.0391,-0.3315,0.0494,0.0219,-0.0698,0.0096,4344,2019-08-07 16:49:34:198
-6.4171,-6.9543,0.8479,-0.2741,-0.2101,0.0157,0.023,-0.0847,0.016,4349,2019-08-07 16:49:34:203
-6.4171,-6.9543,0.8479,-0.2741,-0.2101,0.0157,0.023,-0.0847,0.016,4353,2019-08-07 16:49:34:207
-6.2975,-6.9973,0.796,-0.2741,-0.2101,0.0157,0.0251,-0.0869,0.0202,4359,2019-08-07 16:49:34:213
-6.2975,-6.9973,0.796,-0.2741,-0.2101,0.0157,0.0251,-0.0869,0.0202,4364,2019-08-07 16:49:34:218
-6.2019,-6.983,0.7536,-0.3855,-0.2932,0.0721,0.0219,-0.0656,0.0245,4369,2019-08-07 16:49:34:223
-6.2019,-6.983,0.7536,-0.3855,-0.2932,0.0721,0.0219,-0.0656,0.0245,4373,2019-08-07 16:49:34:227
-6.2019,-6.983,0.7536,-0.3855,-0.2932,0.0721,0.0123,-0.024,0.0234,4379,2019-08-07 16:49:34:233
-6.2354,-6.9496,0.7772,-0.3855,-0.2932,0.0721,0.0123,-0.024,0.0234,4384,2019-08-07 16:49:34:238
-6.2354,-6.9496,0.7772,-0.3855,-0.2932,0.0721,0.0091,0.0154,0.0181,4388,2019-08-07 16:49:34:242
-6.2928,-6.9687,0.7442,-0.2586,-0.2667,0.0811,0.0091,0.0154,0.0181,4394,2019-08-07 16:49:34:248
-6.2928,-6.9687,0.7442,-0.2586,-0.2667,0.0811,0.0091,0.0378,0.0011,4398,2019-08-07 16:49:34:252
-6.2928,-6.9687,0.7442,-0.2586,-0.2667,0.0811,0.0091,0.0378,0.0011,4404,2019-08-07 16:49:34:258
-6.4507,-6.9543,0.8903,-0.2586,-0.2667,0.0811,0.0091,0.0378,0.0011,4408,2019-08-07 16:49:34:262
-6.4507,-6.9543,0.8903,-0.1065,-0.3044,-0.0409,-0.0047,0.0442,-0.0096,4414,2019-08-07 16:49:34:268
-6.4411,-6.8732,0.7347,-0.1065,-0.3044,-0.0409,-0.0047,0.0442,-0.0096,4419,2019-08-07 16:49:34:273
-6.4411,-6.8732,0.7347,-0.1065,-0.3044,-0.0409,-0.009,0.0442,-0.0213,4424,2019-08-07 16:49:34:278
-6.4411,-6.8732,0.7347,-0.1065,-0.3044,-0.0409,-0.009,0.0442,-0.0213,4428,2019-08-07 16:49:34:282
-6.4363,-7.0021,0.7206,-0.1385,-0.2303,0.1163,-0.0111,0.0516,-0.0309,4434,2019-08-07 16:49:34:288
-6.4363,-7.0021,0.7206,-0.1385,-0.2303,0.1163,-0.0111,0.0516,-0.0309,4438,2019-08-07 16:49:34:292
-6.3694,-7.0498,0.7394,-0.1385,-0.2303,0.1163,-0.0026,0.0399,-0.0341,4444,2019-08-07 16:49:34:298
-6.3694,-7.0498,0.7394,-0.1385,-0.2303,0.1163,-0.0026,0.0399,-0.0341,4449,2019-08-07 16:49:34:303
-6.3694,-7.0498,0.7394,-0.1629,-0.2111,0.0722,0.0102,0.0197,-0.0288,4453,2019-08-07 16:49:34:307
-6.3694,-7.0259,0.796,-0.1629,-0.2111,0.0722,0.0102,0.0197,-0.0288,4459,2019-08-07 16:49:34:313
-6.3694,-7.0259,0.796,-0.1629,-0.2111,0.0722,0.0102,0.0197,-0.0288,4463,2019-08-07 16:49:34:317
-6.3359,-7.0355,0.2068,-0.1629,-0.2111,0.0722,-5.0E-4,-0.0443,-0.0202,4469,2019-08-07 16:49:34:323
-6.3359,-7.0355,0.2068,0.0181,-0.2384,0.6859,-5.0E-4,-0.0443,-0.0202,4473,2019-08-07 16:49:34:327
-6.3359,-7.0355,0.2068,0.0181,-0.2384,0.6859,-0.0942,-0.0954,-0.0202,4479,2019-08-07 16:49:34:333
-6.2976,-6.9448,1.4182,0.0181,-0.2384,0.6859,-0.0942,-0.0954,-0.0202,4483,2019-08-07 16:49:34:337
-6.2976,-6.9448,1.4182,0.0181,-0.2384,0.6859,0.0475,-0.1092,0.0032,4489,2019-08-07 16:49:34:343
-6.0919,-7.1978,0.7347,-0.4707,-0.0451,0.1064,0.0475,-0.1092,0.0032,4494,2019-08-07 16:49:34:348
-6.0919,-7.1978,0.7347,-0.4707,-0.0451,0.1064,0.0528,-0.0837,0.0,4499,2019-08-07 16:49:34:353
-6.0919,-7.1978,0.7347,-0.4707,-0.0451,0.1064,0.0528,-0.0837,0.0,4504,2019-08-07 16:49:34:358
-6.0441,-6.8875,0.4519,-0.4707,-0.0451,0.1064,0.0155,-0.0102,-0.0032,4509,2019-08-07 16:49:34:363
-6.0441,-6.8875,0.4519,-0.435,-0.4085,0.1851,0.0155,-0.0102,-0.0032,4513,2019-08-07 16:49:34:367
-6.2929,-6.7538,0.8667,-0.435,-0.4085,0.1851,0.0155,-0.0102,-0.0032,4519,2019-08-07 16:49:34:373
-6.2929,-6.7538,0.8667,-0.435,-0.4085,0.1851,0.0592,0.0537,-0.0011,4523,2019-08-07 16:49:34:377
-6.2929,-6.7538,0.8667,-0.435,-0.4085,0.1851,0.0592,0.0537,-0.0011,4529,2019-08-07 16:49:34:383
-6.2546,-6.9877,0.8667,-0.3069,-0.2545,-0.0106,0.0592,0.0537,-0.0011,4533,2019-08-07 16:49:34:387
-6.2546,-6.9877,0.8667,-0.3069,-0.2545,-0.0106,0.1071,0.107,0.0117,4539,2019-08-07 16:49:34:393
-6.1446,-7.1166,0.8573,-0.4181,-0.1244,-6.0E-4,0.1071,0.107,0.0117,4544,2019-08-07 16:49:34:398
-6.1446,-7.1166,0.8573,-0.4181,-0.1244,-6.0E-4,0.1476,0.2007,0.0096,4549,2019-08-07 16:49:34:403
-6.1446,-7.1166,0.8573,-0.4181,-0.1244,-6.0E-4,0.1476,0.2007,0.0096,4554,2019-08-07 16:49:34:408
-6.2068,-6.9639,0.7913,-0.4181,-0.1244,-6.0E-4,0.1753,0.2966,0.0075,4560,2019-08-07 16:49:34:414
-6.2068,-6.9639,0.7913,-0.284,-0.3599,-0.0421,0.1753,0.2966,0.0075,4564,2019-08-07 16:49:34:418
-6.2068,-6.9639,0.7913,-0.284,-0.3599,-0.0421,0.1753,0.2966,0.0075,4568,2019-08-07 16:49:34:422
-6.5226,-6.7443,0.8337,-0.284,-0.3599,-0.0421,0.1412,0.2348,0.0075,4574,2019-08-07 16:49:34:428
-6.5226,-6.7443,0.8337,-0.284,-0.3599,-0.0421,0.1412,0.2348,0.0075,4579,2019-08-07 16:49:34:433
-6.5082,-6.7204,0.7253,-0.0657,-0.5126,0.1131,0.0624,0.1177,0.0064,4583,2019-08-07 16:49:34:437
-6.5082,-6.7204,0.7253,-0.0657,-0.5126,0.1131,0.0624,0.1177,0.0064,4589,2019-08-07 16:49:34:443