ACCELEROMETER X (m/s²),ACCELEROMETER Y (m/s²),ACCELEROMETER Z (m/s²),LINEAR ACCELERATION X (m/s²),LINEAR ACCELERATION Y (m/s²),LINEAR ACCELERATION Z (m/s²),GYROSCOPE X (rad/s),GYROSCOPE Y (rad/s),GYROSCOPE Z (rad/s),Time since start in ms ,YYYY-MO-DD HH-MI-SS_SSS
-6.2791,-6.7347,1.6349,-0.3547,-0.237,0.1597,-5.0E-4,0.0175,0.0043,3,2019-08-07 16:50:35:648
-6.3604,-6.7442,1.6585,-0.3547,-0.237,0.1597,-5.0E-4,0.0175,0.0043,7,2019-08-07 16:50:35:652
-6.3604,-6.7442,1.6585,-0.3547,-0.237,0.1597,0.0038,0.0154,0.0021,13,2019-08-07 16:50:35:658
-6.3604,-6.7442,1.7433,-0.2455,-0.2843,0.0446,0.0038,0.0154,0.0021,17,2019-08-07 16:50:35:662
-6.3604,-6.7442,1.7433,-0.2455,-0.2843,0.0446,0.0134,0.0101,0.0075,23,2019-08-07 16:50:35:668
-6.3604,-6.7442,1.7433,-0.2455,-0.2843,0.0446,0.0134,0.0101,0.0075,27,2019-08-07 16:50:35:672
-6.3078,-6.7585,1.5925,-0.2455,-0.2843,0.0446,0.0187,0.0058,0.0021,33,2019-08-07 16:50:35:678
-6.3078,-6.7585,1.5925,-0.3228,-0.2358,0.1251,0.0187,0.0058,0.0021,37,2019-08-07 16:50:35:682
-6.3031,-6.7824,1.6773,-0.3228,-0.2358,0.1251,0.0219,0.0111,-0.0011,44,2019-08-07 16:50:35:689
-6.3031,-6.7824,1.6773,-0.3228,-0.2358,0.1251,0.0219,0.0111,-0.0011,47,2019-08-07 16:50:35:692
-6.3031,-6.7824,1.6773,-0.2511,-0.2642,0.0973,0.023,0.0069,0.0011,53,2019-08-07 16:50:35:698
-6.2839,-6.7538,1.7292,-0.2511,-0.2642,0.0973,0.023,0.0069,0.0011,58,2019-08-07 16:50:35:703
-6.2839,-6.7538,1.7292,-0.2511,-0.2642,0.0973,0.0283,-0.0017,0.0085,63,2019-08-07 16:50:35:708
-6.2839,-6.7538,1.7292,-0.2511,-0.2642,0.0973,0.0283,-0.0017,0.0085,68,2019-08-07 16:50:35:713
-6.2648,-6.7013,1.6538,-0.3427,-0.3248,0.1383,0.0262,-0.0038,0.0139,73,2019-08-07 16:50:35:718
-6.2648,-6.7013,1.6538,-0.3427,-0.3248,0.1383,0.0262,-0.0038,0.0139,78,2019-08-07 16:50:35:723
-6.284,-6.6822,1.7339,-0.3427,-0.3248,0.1383,0.023,-0.0112,0.0139,83,2019-08-07 16:50:35:728
-6.284,-6.6822,1.7339,-0.3427,-0.3248,0.1383,0.023,-0.0112,0.0139,87,2019-08-07 16:50:35:732
-6.284,-6.6822,1.7339,-0.2915,-0.3127,0.0487,0.023,-0.0112,0.0139,93,2019-08-07 16:50:35:738
-6.2457,-6.7251,1.6773,-0.2915,-0.3127,0.0487,0.0208,-0.0144,0.017,98,2019-08-07 16:50:35:743
-6.2457,-6.7251,1.6773,-0.2915,-0.3127,0.0487,0.0208,-0.0144,0.017,103,2019-08-07 16:50:35:748
-6.2553,-6.7729,1.682,-0.2915,-0.3127,0.0487,0.0155,-0.0048,0.0139,108,2019-08-07 16:50:35:753
-6.2553,-6.7729,1.682,-0.3647,-0.2387,0.1375,0.0155,-0.0048,0.0139,112,2019-08-07 16:50:35:757
-6.2553,-6.7729,1.682,-0.3647,-0.2387,0.1375,0.008,0.0154,0.0064,118,2019-08-07 16:50:35:763
-6.2697,-6.8731,1.5972,-0.3647,-0.2387,0.1375,0.008,0.0154,0.0064,123,2019-08-07 16:50:35:768
-6.2697,-6.8731,1.5972,-0.3647,-0.2387,0.1375,-5.0E-4,0.0431,0.0011,128,2019-08-07 16:50:35:773
-6.3701,-6.8063,1.6726,-0.2701,-0.1574,0.1341,-5.0E-4,0.0431,0.0011,133,2019-08-07 16:50:35:778
-6.3701,-6.8063,1.6726,-0.2701,-0.1574,0.1341,-0.0015,0.0644,-0.0064,137,2019-08-07 16:50:35:782
-6.3701,-6.8063,1.6726,-0.2701,-0.1574,0.1341,-0.0015,0.0644,-0.0064,143,2019-08-07 16:50:35:788
-6.5137,-6.811,1.7009,-0.2701,-0.1574,0.1341,0.0038,0.0655,-0.0128,147,2019-08-07 16:50:35:792
-6.5137,-6.811,1.7009,-0.1231,-0.2109,0.0829,0.0038,0.0655,-0.0128,153,2019-08-07 16:50:35:798
-6.5041,-6.7967,1.7197,-0.1231,-0.2109,0.0829,-0.0015,0.0537,-0.0181,157,2019-08-07 16:50:35:802
-6.5041,-6.7967,1.7197,-0.0752,-0.1928,0.0554,-0.0015,0.0537,-0.0181,163,2019-08-07 16:50:35:808
-6.5041,-6.7967,1.7197,-0.0752,-0.1928,0.0554,0.0038,0.026,-0.0213,167,2019-08-07 16:50:35:812
-6.5041,-6.8397,1.7904,-0.0752,-0.1928,0.0554,0.0038,0.026,-0.0213,173,2019-08-07 16:50:35:818
-6.5041,-6.8397,1.7904,-0.0752,-0.1928,0.0554,0.0134,-0.008,-0.0213,178,2019-08-07 16:50:35:823
-6.4132,-6.7633,1.8329,-0.1545,-0.2282,-0.0298,0.0134,-0.008,-0.0213,182,2019-08-07 16:50:35:827
-6.4132,-6.7633,1.8329,-0.1545,-0.2282,-0.0298,0.0187,-0.0368,-0.0202,188,2019-08-07 16:50:35:833
-6.4132,-6.7633,1.8329,-0.1545,-0.2282,-0.0298,0.0187,-0.0368,-0.0202,193,2019-08-07 16:50:35:838
-6.3415,-6.7967,1.7433,-0.1545,-0.2282,-0.0298,0.0219,-0.0507,-0.0202,198,2019-08-07 16:50:35:843
-6.3415,-6.7967,1.7433,-0.375,-0.211,0.1156,0.0219,-0.0507,-0.0202,203,2019-08-07 16:50:35:848
-6.2363,-6.8063,1.7622,-0.375,-0.211,0.1156,0.0251,-0.056,-0.016,208,2019-08-07 16:50:35:853
-6.2363,-6.8063,1.7622,-0.375,-0.211,0.1156,0.0251,-0.056,-0.016,212,2019-08-07 16:50:35:857
-6.2363,-6.8063,1.7622,-0.375,-0.211,0.1156,0.0251,-0.0432,-0.0117,218,2019-08-07 16:50:35:863
-6.1836,-6.7108,1.6726,-0.4185,-0.3175,0.1305,0.0251,-0.0432,-0.0117,222,2019-08-07 16:50:35:867
-6.1836,-6.7108,1.6726,-0.4185,-0.3175,0.1305,0.024,-0.024,-0.0117,228,2019-08-07 16:50:35:873
-6.2315,-6.7012,1.7056,-0.4185,-0.3175,0.1305,0.024,-0.024,-0.0117,233,2019-08-07 16:50:35:878
-6.2315,-6.7012,1.7056,-0.4185,-0.3175,0.1305,0.023,0.0047,-0.0128,238,2019-08-07 16:50:35:883
-6.2315,-6.7012,1.7056,-0.3585,-0.3807,0.1351,0.023,0.0047,-0.0128,243,2019-08-07 16:50:35:888
-6.2602,-6.6487,1.7433,-0.3585,-0.3807,0.1351,0.0219,0.0218,-0.0064,247,2019-08-07 16:50:35:892
-6.2602,-6.6487,1.7433,-0.3585,-0.3807,0.1351,0.0219,0.0218,-0.0064,253,2019-08-07 16:50:35:898
-6.2602,-6.6869,1.6867,-0.3585,-0.3807,0.1351,0.0219,0.041,-0.0075,258,2019-08-07 16:50:35:903
-6.2602,-6.6869,1.6867,-0.2961,-0.343,0.087,0.0219,0.041,-0.0075,263,2019-08-07 16:50:35:908
-6.2602,-6.6869,1.6867,-0.2961,-0.343,0.087,0.0219,0.0495,-0.0043,268,2019-08-07 16:50:35:913
-6.3942,-6.6296,1.6254,-0.2961,-0.343,0.087,0.0219,0.0495,-0.0043,272,2019-08-07 16:50:35:917
-6.3942,-6.6296,1.6254,-0.2961,-0.343,0.087,0.0155,0.0346,0.0,278,2019-08-07 16:50:35:923
-6.3894,-6.6774,1.6584,-0.2117,-0.3518,0.1448,0.0155,0.0346,0.0,283,2019-08-07 16:50:35:928
-6.3894,-6.6774,1.6584,-0.2117,-0.3518,0.1448,0.0155,0.0346,0.0,288,2019-08-07 16:50:35:933
-6.3894,-6.6774,1.6584,-0.2117,-0.3518,0.1448,0.008,0.0047,0.0053,293,2019-08-07 16:50:35:938
-6.4086,-6.6726,1.8093,-0.2117,-0.3518,0.1448,0.008,0.0047,0.0053,298,2019-08-07 16:50:35:943
-6.4086,-6.6726,1.8093,-0.2127,-0.3838,-0.0374,0.0091,-0.0144,0.0032,303,2019-08-07 16:50:35:948
-6.4086,-6.6726,1.8093,-0.2127,-0.3838,-0.0374,0.0091,-0.0144,0.0032,307,2019-08-07 16:50:35:952
-6.3608,-6.6583,1.7386,-0.2127,-0.3838,-0.0374,0.0134,-0.0198,0.0064,313,2019-08-07 16:50:35:958
-6.3608,-6.6583,1.7386,-0.2127,-0.3838,-0.0374,0.0134,-0.0198,0.0064,318,2019-08-07 16:50:35:963
-6.3895,-6.7156,1.6396,-0.2135,-0.3105,0.1691,0.0112,-0.0134,0.0043,322,2019-08-07 16:50:35:967
-6.3895,-6.7156,1.6396,-0.2135,-0.3105,0.1691,0.0112,-0.0134,0.0043,328,2019-08-07 16:50:35:973
-6.3895,-6.7251,1.7056,-0.2135,-0.3105,0.1691,0.0155,-0.0123,-0.0011,334,2019-08-07 16:50:35:979
-6.3799,-6.7251,1.7056,-0.2135,-0.3105,0.1691,0.0155,-0.0123,-0.0011,337,2019-08-07 16:50:35:982
-6.3799,-6.7251,1.7056,-0.2037,-0.2954,0.1681,0.0155,-0.0123,-0.0011,343,2019-08-07 16:50:35:988
-6.3847,-6.7728,1.6113,-0.2037,-0.2954,0.1681,0.0262,-0.023,-0.0107,348,2019-08-07 16:50:35:993
-6.3847,-6.7728,1.6113,-0.2037,-0.2954,0.1681,0.0262,-0.023,-0.0107,353,2019-08-07 16:50:35:998
-6.3847,-6.7728,1.6113,-0.2037,-0.2954,0.1681,0.024,-0.0198,-0.017,357,2019-08-07 16:50:36:002
-6.3417,-6.811,1.6113,-0.2155,-0.2535,0.2061,0.024,-0.0198,-0.017,363,2019-08-07 16:50:36:008
-6.3417,-6.811,1.6113,-0.2155,-0.2535,0.2061,0.0272,-0.0059,-0.0213,368,2019-08-07 16:50:36:013
-6.3513,-6.7967,1.6914,-0.2155,-0.2535,0.2061,0.0272,-0.0059,-0.0213,373,2019-08-07 16:50:36:018
-6.3513,-6.7967,1.6914,-0.2155,-0.2535,0.2061,0.0283,0.0026,-0.0277,378,2019-08-07 16:50:36:023
-6.3513,-6.7967,1.6914,-0.2454,-0.2322,0.1672,0.0283,0.0026,-0.0277,383,2019-08-07 16:50:36:028
-6.4087,-6.7633,1.6961,-0.2454,-0.2322,0.1672,0.0198,0.0101,-0.0309,388,2019-08-07 16:50:36:033
-6.4087,-6.7633,1.6961,-0.2454,-0.2322,0.1672,0.0198,0.0101,-0.0309,393,2019-08-07 16:50:36:038
-6.2939,-6.749,1.7951,-0.1956,-0.2624,0.0643,0.008,0.0143,-0.0383,398,2019-08-07 16:50:36:043
-6.2939,-6.749,1.7951,-0.1956,-0.2624,0.0643,0.008,0.0143,-0.0383,403,2019-08-07 16:50:36:048
-6.2939,-6.749,1.7951,-0.1956,-0.2624,0.0643,-0.0058,0.0122,-0.0415,408,2019-08-07 16:50:36:053
-6.3226,-6.7871,1.7668,-0.2478,-0.2867,0.0537,-0.0058,0.0122,-0.0415,413,2019-08-07 16:50:36:058
-6.3226,-6.7871,1.7668,-0.2478,-0.2867,0.0537,-0.0197,0.0101,-0.0447,418,2019-08-07 16:50:36:063
-6.3226,-6.7871,1.7668,-0.2478,-0.2867,0.0537,-0.0197,0.0101,-0.0447,423,2019-08-07 16:50:36:068
-6.2652,-6.8062,1.8045,-0.2478,-0.2867,0.0537,-0.0197,0.0101,-0.0447,427,2019-08-07 16:50:36:072
-6.2652,-6.8062,1.8045,-0.2936,-0.2366,-0.006,-0.0186,0.0079,-0.049,433,2019-08-07 16:50:36:078
-6.2652,-6.8062,1.8045,-0.2936,-0.2366,-0.006,-0.0186,0.0079,-0.049,438,2019-08-07 16:50:36:083
-6.2652,-6.8206,1.8234,-0.2936,-0.2366,-0.006,-0.0165,0.0015,-0.0479,443,2019-08-07 16:50:36:088
-6.2652,-6.8206,1.8234,-0.2936,-0.2366,-0.006,-0.0165,0.0015,-0.0479,448,2019-08-07 16:50:36:093
-6.2652,-6.8206,1.8234,-0.2936,-0.2366,-0.006,-0.0122,-0.0038,-0.0458,452,2019-08-07 16:50:36:097
-6.2604,-6.8397,1.7715,-0.315,-0.2105,0.0436,-0.0122,-0.0038,-0.0458,458,2019-08-07 16:50:36:103
-6.2604,-6.8397,1.7715,-0.315,-0.2105,0.0436,-0.0122,-0.0038,-0.0458,463,2019-08-07 16:50:36:108
-6.2509,-6.8492,1.7102,-0.315,-0.2105,0.0436,-0.0122,-0.0038,-0.0458,467,2019-08-07 16:50:36:112
-6.2509,-6.8492,1.7102,-0.3268,-0.1747,0.1272,-0.0101,-0.0017,-0.0458,473,2019-08-07 16:50:36:118
-6.2509,-6.8492,1.7102,-0.3268,-0.1747,0.1272,-0.0101,-0.0017,-0.0458,478,2019-08-07 16:50:36:123
-6.2078,-6.8587,1.7574,-0.3268,-0.1747,0.1272,-5.0E-4,0.0079,-0.0415,483,2019-08-07 16:50:36:128
-6.2078,-6.8587,1.7574,-0.3268,-0.1747,0.1272,-5.0E-4,0.0079,-0.0415,488,2019-08-07 16:50:36:133
-6.2701,-6.8731,1.7574,-0.3268,-0.1747,0.1272,-5.0E-4,0.0079,-0.0415,493,2019-08-07 16:50:36:138
-6.2701,-6.8731,1.7574,-0.3013,-0.2475,0.0327,0.0123,5.0E-4,-0.0341,498,2019-08-07 16:50:36:143
-6.2701,-6.8731,1.7574,-0.3013,-0.2475,0.0327,0.0123,5.0E-4,-0.0341,503,2019-08-07 16:50:36:148
-6.2605,-6.7824,1.7668,-0.3013,-0.2475,0.0327,0.0187,-0.0048,-0.0234,507,2019-08-07 16:50:36:152
-6.2605,-6.7824,1.7668,-0.3013,-0.2475,0.0327,0.0187,-0.0048,-0.0234,513,2019-08-07 16:50:36:158
-6.2557,-6.768,1.7291,-0.297,-0.3318,-0.0255,0.0123,-0.0091,-0.0202,518,2019-08-07 16:50:36:163
-6.2557,-6.768,1.7291,-0.297,-0.3318,-0.0255,0.0123,-0.0091,-0.0202,523,2019-08-07 16:50:36:168
-6.2557,-6.768,1.7291,-0.297,-0.3318,-0.0255,0.0112,-0.0144,-0.016,528,2019-08-07 16:50:36:173
-6.2079,-6.7346,1.7904,-0.3562,-0.3289,0.0487,0.0112,-0.0144,-0.016,533,2019-08-07 16:50:36:178
-6.2079,-6.7346,1.7904,-0.3562,-0.3289,0.0487,0.007,-0.0187,-0.0192,538,2019-08-07 16:50:36:183
-6.2031,-6.8062,1.7762,-0.3562,-0.3289,0.0487,0.007,-0.0187,-0.0192,543,2019-08-07 16:50:36:188
-6.2031,-6.8062,1.7762,-0.3257,-0.2967,0.0033,0.007,-0.0187,-0.0192,548,2019-08-07 16:50:36:193
-6.2031,-6.8062,1.7762,-0.3257,-0.2967,0.0033,0.0059,-0.0134,-0.0181,553,2019-08-07 16:50:36:198
-6.2031,-6.768,1.7668,-0.3257,-0.2967,0.0033,0.0059,-0.0134,-0.0181,557,2019-08-07 16:50:36:202
-6.2031,-6.768,1.7668,-0.3257,-0.2967,0.0033,-0.0015,-0.0027,-0.017,563,2019-08-07 16:50:36:208
-6.2175,-6.7537,1.6867,-0.3325,-0.2989,0.1083,-0.0015,-0.0027,-0.017,568,2019-08-07 16:50:36:213
-6.2175,-6.7537,1.6867,-0.3325,-0.2989,0.1083,-0.0079,0.0037,-0.017,572,2019-08-07 16:50:36:217
-6.2175,-6.7537,1.6867,-0.3325,-0.2989,0.1083,-0.0079,0.0037,-0.017,578,2019-08-07 16:50:36:223
-6.2845,-6.7728,1.6584,-0.3325,-0.2989,0.1083,-0.009,0.0133,-0.0234,582,2019-08-07 16:50:36:227
-6.2845,-6.7728,1.6584,-0.2536,-0.2971,0.1806,-0.009,0.0133,-0.0234,588,2019-08-07 16:50:36:233
-6.2845,-6.7728,1.6584,-0.2536,-0.2971,0.1806,-0.009,0.0133,-0.0234,592,2019-08-07 16:50:36:237
-6.3132,-6.7776,1.7008,-0.2536,-0.2971,0.1806,-0.0143,0.0165,-0.0245,598,2019-08-07 16:50:36:243
-6.3132,-6.7776,1.7008,-0.2536,-0.2971,0.1806,-0.0143,0.0165,-0.0245,603,2019-08-07 16:50:36:248
-6.3132,-6.7633,1.6819,-0.2315,-0.2915,0.0863,-0.0197,0.0154,-0.0298,608,2019-08-07 16:50:36:253
-6.3132,-6.7633,1.6819,-0.2315,-0.2915,0.0863,-0.0197,0.0154,-0.0298,613,2019-08-07 16:50:36:258
-6.3132,-6.7633,1.6819,-0.2315,-0.2915,0.0863,-0.025,0.0165,-0.0288,618,2019-08-07 16:50:36:263
-6.2798,-6.8492,1.6866,-0.2315,-0.2915,0.0863,-0.025,0.0165,-0.0288,622,2019-08-07 16:50:36:267
-6.2798,-6.8492,1.6866,-0.2709,-0.2725,0.1369,-0.0229,0.0154,-0.033,628,2019-08-07 16:50:36:273
-6.2893,-6.811,1.7432,-0.2709,-0.2725,0.1369,-0.0229,0.0154,-0.033,633,2019-08-07 16:50:36:278
-6.2893,-6.811,1.7432,-0.2709,-0.2725,0.1369,-0.0218,0.0026,-0.032,638,2019-08-07 16:50:36:283
-6.2893,-6.811,1.7432,-0.2709,-0.2725,0.1369,-0.0218,0.0026,-0.032,643,2019-08-07 16:50:36:288
-6.2463,-6.8349,1.7432,-0.2903,-0.2539,0.062,-0.0175,-0.0091,-0.0298,649,2019-08-07 16:50:36:294
-6.2463,-6.8349,1.7432,-0.2903,-0.2539,0.062,-0.0175,-0.0091,-0.0298,653,2019-08-07 16:50:36:298
-6.2463,-6.8349,1.7432,-0.2903,-0.2539,0.062,-0.0175,-0.0091,-0.0298,657,2019-08-07 16:50:36:302
-6.1889,-6.7489,1.6866,-0.2903,-0.2539,0.062,-0.0154,-0.0112,-0.0288,663,2019-08-07 16:50:36:308
-6.1889,-6.7489,1.6866,-0.3714,-0.2874,0.089,-0.0154,-0.0112,-0.0288,668,2019-08-07 16:50:36:313
-6.0884,-6.8158,1.7008,-0.3714,-0.2874,0.089,-0.0175,-0.0134,-0.0202,673,2019-08-07 16:50:36:318
-6.0884,-6.8158,1.7008,-0.3714,-0.2874,0.089,-0.0175,-0.0134,-0.0202,678,2019-08-07 16:50:36:323
-6.0884,-6.8158,1.7008,-0.3714,-0.2874,0.089,-0.0165,-0.0144,-0.0107,683,2019-08-07 16:50:36:328
-6.1076,-6.8253,1.6961,-0.4011,-0.229,0.1026,-0.0165,-0.0144,-0.0107,688,2019-08-07 16:50:36:333
-6.1076,-6.8253,1.6961,-0.4011,-0.229,0.1026,-0.0165,-0.0144,-0.0107,692,2019-08-07 16:50:36:337
-6.1076,-6.8253,1.6961,-0.4011,-0.229,0.1026,-0.009,0.0026,-0.0011,698,2019-08-07 16:50:36:343
-6.1028,-6.8301,1.6583,-0.4243,-0.268,0.1444,-0.009,0.0026,-0.0011,702,2019-08-07 16:50:36:347
-6.1028,-6.8301,1.6583,-0.4243,-0.268,0.1444,-0.0015,0.0154,0.0107,708,2019-08-07 16:50:36:353
-6.1459,-6.8158,1.7149,-0.4243,-0.268,0.1444,-0.0015,0.0154,0.0107,713,2019-08-07 16:50:36:358
-6.1459,-6.8158,1.7149,-0.3587,-0.3054,0.1281,0.0091,0.0197,0.0128,718,2019-08-07 16:50:36:363
-6.1459,-6.8158,1.7149,-0.3587,-0.3054,0.1281,0.0091,0.0197,0.0128,722,2019-08-07 16:50:36:367
-6.2272,-6.7823,1.7243,-0.3587,-0.3054,0.1281,0.0134,0.0143,0.0224,728,2019-08-07 16:50:36:373
-6.2272,-6.7823,1.7243,-0.3587,-0.3054,0.1281,0.0134,0.0143,0.0224,734,2019-08-07 16:50:36:379
-6.2081,-6.8158,1.7008,-0.3237,-0.2787,0.0993,0.007,0.0143,0.0277,738,2019-08-07 16:50:36:383
-6.2081,-6.8158,1.7008,-0.3237,-0.2787,0.0993,0.007,0.0143,0.0277,743,2019-08-07 16:50:36:388
-6.2081,-6.8158,1.7008,-0.3237,-0.2787,0.0993,0.0038,0.0079,0.0277,748,2019-08-07 16:50:36:393
-6.2566,-6.7871,1.6723,-0.3237,-0.2787,0.0993,0.0038,0.0079,0.0277,753,2019-08-07 16:50:36:398
-6.2566,-6.7871,1.6723,-0.2892,-0.2988,0.0654,0.0038,0.0079,0.0277,757,2019-08-07 16:50:36:402
-6.2279,-6.7918,1.7242,-0.2892,-0.2988,0.0654,-5.0E-4,-0.008,0.032,762,2019-08-07 16:50:36:407
-6.2279,-6.7918,1.7242,-0.2892,-0.2988,0.0654,-5.0E-4,-0.008,0.032,768,2019-08-07 16:50:36:413
-6.2279,-6.7918,1.7242,-0.2892,-0.2988,0.0654,-0.0058,-0.0091,0.0266,772,2019-08-07 16:50:36:417
-6.1657,-6.7727,1.6535,-0.3693,-0.2716,0.2163,-0.0058,-0.0091,0.0266,778,2019-08-07 16:50:36:423
-6.1657,-6.7727,1.6535,-0.3693,-0.2716,0.2163,-0.0143,-6.0E-4,0.0245,783,2019-08-07 16:50:36:428
-6.1657,-6.7727,1.6535,-0.3693,-0.2716,0.2163,-0.0143,-6.0E-4,0.0245,788,2019-08-07 16:50:36:433
-6.1801,-6.83,1.6393,-0.3693,-0.2716,0.2163,-0.0154,0.0154,0.0256,792,2019-08-07 16:50:36:437
-6.1801,-6.83,1.6393,-0.3693,-0.2716,0.2163,-0.0154,0.0154,0.0256,798,2019-08-07 16:50:36:443
-6.1801,-6.83,1.6393,-0.3536,-0.217,0.1793,-0.0175,0.0229,0.0266,802,2019-08-07 16:50:36:447
-6.1323,-6.8682,1.6205,-0.3536,-0.217,0.1793,-0.0175,0.0229,0.0266,808,2019-08-07 16:50:36:453
-6.1323,-6.8682,1.6205,-0.3536,-0.217,0.1793,-0.0175,0.0314,0.0288,814,2019-08-07 16:50:36:459
-6.1993,-6.9398,1.6016,-0.3536,-0.217,0.1793,-0.0175,0.0314,0.0288,817,2019-08-07 16:50:36:462
-6.1993,-6.9398,1.6016,-0.3434,-0.1672,0.1439,-0.0143,0.0356,0.0277,823,2019-08-07 16:50:36:468
-6.2711,-6.9159,1.6535,-0.3434,-0.1672,0.1439,-0.0143,0.0356,0.0277,829,2019-08-07 16:50:36:474
-6.2711,-6.9159,1.6535,-0.3434,-0.1672,0.1439,-0.0079,0.025,0.0309,833,2019-08-07 16:50:36:478
-6.2711,-6.9159,1.6535,-0.3434,-0.1672,0.1439,-0.0079,0.025,0.0309,838,2019-08-07 16:50:36:483
-6.2089,-6.8968,1.6252,-0.3481,-0.1548,0.1799,-0.0079,0.025,0.0309,842,2019-08-07 16:50:36:487
-6.2089,-6.8968,1.6252,-0.3481,-0.1548,0.1799,-0.0047,0.0218,0.0309,848,2019-08-07 16:50:36:493
-6.2807,-6.8968,1.71,-0.3481,-0.1548,0.1799,-0.0047,0.0218,0.0309,853,2019-08-07 16:50:36:498
-6.2807,-6.8968,1.71,-0.3481,-0.1548,0.1799,6.0E-4,0.0207,0.0319,857,2019-08-07 16:50:36:502
-6.2807,-6.8968,1.71,-0.2718,-0.1655,0.1382,6.0E-4,0.0207,0.0319,863,2019-08-07 16:50:36:508
-6.319,-6.8968,1.6393,-0.2718,-0.1655,0.1382,0.0048,0.0175,0.0351,868,2019-08-07 16:50:36:513
-6.319,-6.8968,1.6393,-0.2718,-0.1655,0.1382,0.0048,0.0175,0.0351,872,2019-08-07 16:50:36:517
-6.2951,-6.8968,1.6157,-0.2718,-0.1655,0.1382,0.0038,0.0186,0.0288,878,2019-08-07 16:50:36:523
-6.2951,-6.8968,1.6157,-0.2434,-0.1997,0.1494,0.0038,0.0186,0.0288,883,2019-08-07 16:50:36:528
-6.2951,-6.8968,1.6157,-0.2434,-0.1997,0.1494,0.0038,0.0186,0.0288,888,2019-08-07 16:50:36:533
-6.3238,-6.8586,1.6629,-0.2434,-0.1997,0.1494,0.0144,0.0356,0.0224,894,2019-08-07 16:50:36:539
-6.3238,-6.8586,1.6629,-0.2434,-0.1997,0.1494,0.0144,0.0356,0.0224,898,2019-08-07 16:50:36:543
-6.4147,-6.7727,1.6864,-0.1904,-0.2441,0.099,0.0251,0.041,0.0117,903,2019-08-07 16:50:36:548
-6.4147,-6.7727,1.6864,-0.1904,-0.2441,0.099,0.0251,0.041,0.0117,908,2019-08-07 16:50:36:553
-6.4147,-6.7727,1.6864,-0.1904,-0.2441,0.099,0.0262,0.0303,0.0096,913,2019-08-07 16:50:36:558
-6.4004,-6.7727,1.7241,-0.1904,-0.2441,0.099,0.0262,0.0303,0.0096,917,2019-08-07 16:50:36:562
-6.4004,-6.7727,1.7241,-0.1504,-0.3272,0.0986,0.0251,0.0154,0.0064,923,2019-08-07 16:50:36:568
-6.4004,-6.7727,1.7241,-0.1504,-0.3272,0.0986,0.0251,0.0154,0.0064,927,2019-08-07 16:50:36:572
-6.3574,-6.7727,1.6817,-0.1504,-0.3272,0.0986,0.0262,-0.0091,0.0043,933,2019-08-07 16:50:36:578
-6.3574,-6.7727,1.6817,-0.1504,-0.3272,0.0986,0.0262,-0.0091,0.0043,938,2019-08-07 16:50:36:583
-6.3095,-6.8109,1.6864,-0.2612,-0.2538,0.0888,0.0272,-0.0208,0.0117,945,2019-08-07 16:50:36:590
-6.3095,-6.8109,1.6864,-0.2612,-0.2538,0.0888,0.0272,-0.0208,0.0117,948,2019-08-07 16:50:36:593
-6.2043,-6.8395,1.7053,-0.2612,-0.2538,0.0888,0.0262,-0.024,0.017,953,2019-08-07 16:50:36:598
-6.2043,-6.8395,1.7053,-0.2612,-0.2538,0.0888,0.0262,-0.024,0.017,958,2019-08-07 16:50:36:603
-6.2043,-6.8395,1.7053,-0.3866,-0.2369,0.0861,0.0293,-0.0208,0.0256,963,2019-08-07 16:50:36:608
-6.1661,-6.83,1.7194,-0.3866,-0.2369,0.0861,0.0293,-0.0208,0.0256,968,2019-08-07 16:50:36:613
-6.1661,-6.83,1.7194,-0.3866,-0.2369,0.0861,0.0272,-0.0091,0.0309,972,2019-08-07 16:50:36:617
-6.1422,-6.8395,1.6628,-0.3866,-0.2369,0.0861,0.0272,-0.0091,0.0309,978,2019-08-07 16:50:36:623
-6.1422,-6.8395,1.6628,-0.4516,-0.2043,0.1334,0.0293,0.0165,0.033,982,2019-08-07 16:50:36:627
-6.1422,-6.8395,1.6628,-0.4516,-0.2043,0.1334,0.0293,0.0165,0.033,988,2019-08-07 16:50:36:633
-6.1757,-6.7775,1.6298,-0.4516,-0.2043,0.1334,0.0219,0.0378,0.0319,994,2019-08-07 16:50:36:639
-6.1757,-6.7775,1.6298,-0.4516,-0.2043,0.1334,0.0219,0.0378,0.0319,998,2019-08-07 16:50:36:643
-6.1757,-6.7775,1.6298,-0.3464,-0.2669,0.1604,0.0219,0.0378,0.0319,1003,2019-08-07 16:50:36:648
-6.214,-6.8061,1.6534,-0.3464,-0.2669,0.1604,0.0208,0.0655,0.0277,1007,2019-08-07 16:50:36:652
-6.214,-6.8061,1.6534,-0.3464,-0.2669,0.1604,0.0208,0.0655,0.0277,1013,2019-08-07 16:50:36:658
-6.3479,-6.7345,1.6628,-0.3464,-0.2669,0.1604,0.0155,0.0729,0.0277,1018,2019-08-07 16:50:36:663
-6.3479,-6.7345,1.6628,-0.1996,-0.2819,0.045,0.0155,0.0729,0.0277,1023,2019-08-07 16:50:36:668
-6.4054,-6.6772,1.7288,-0.1996,-0.2819,0.045,0.0144,0.0559,0.0266,1028,2019-08-07 16:50:36:673
-6.4054,-6.6772,1.7288,-0.1996,-0.2819,0.045,0.0144,0.0559,0.0266,1033,2019-08-07 16:50:36:678
-6.4054,-6.6772,1.7288,-0.1996,-0.2819,0.045,0.0144,0.0559,0.0266,1038,2019-08-07 16:50:36:683
-6.4054,-6.6772,1.7288,-0.1722,-0.3107,0.0217,0.0123,0.0292,0.0256,1043,2019-08-07 16:50:36:688
-6.4198,-6.7345,1.7524,-0.1722,-0.3107,0.0217,0.0123,0.0292,0.0256,1048,2019-08-07 16:50:36:693
-6.4198,-6.7345,1.7524,-0.1722,-0.3107,0.0217,0.0144,0.0037,0.0224,1052,2019-08-07 16:50:36:697
-6.3624,-6.7154,1.7241,-0.1722,-0.3107,0.0217,0.0144,0.0037,0.0224,1058,2019-08-07 16:50:36:703
-6.3624,-6.7154,1.7241,-0.2808,-0.3116,0.0245,0.0155,-0.023,0.016,1063,2019-08-07 16:50:36:708
-6.3624,-6.7154,1.7241,-0.2808,-0.3116,0.0245,0.0155,-0.023,0.016,1068,2019-08-07 16:50:36:713
-6.2571,-6.7536,1.7099,-0.2808,-0.3116,0.0245,0.0176,-0.0261,0.0181,1073,2019-08-07 16:50:36:718
-6.2571,-6.7536,1.7099,-0.2808,-0.3116,0.0245,0.0176,-0.0261,0.0181,1078,2019-08-07 16:50:36:723
-6.171,-6.7297,1.6439,-0.4255,-0.3092,0.1381,0.0123,-0.007,0.0192,1084,2019-08-07 16:50:36:729
-6.171,-6.7297,1.6439,-0.4255,-0.3092,0.1381,0.0123,-0.007,0.0192,1088,2019-08-07 16:50:36:733
-6.171,-6.7297,1.6439,-0.4255,-0.3092,0.1381,0.0123,-0.007,0.0192,1093,2019-08-07 16:50:36:738
-6.1663,-6.7249,1.6769,-0.4314,-0.3127,0.1056,0.0048,0.0122,0.0213,1097,2019-08-07 16:50:36:742
-6.1663,-6.7249,1.6769,-0.4314,-0.3127,0.1056,0.0048,0.0122,0.0213,1103,2019-08-07 16:50:36:748
-6.1567,-6.7918,1.6534,-0.4314,-0.3127,0.1056,-0.0026,0.0324,0.0245,1108,2019-08-07 16:50:36:753
-6.1567,-6.7918,1.6534,-0.4314,-0.3127,0.1056,-0.0026,0.0324,0.0245,1113,2019-08-07 16:50:36:758
-6.1567,-6.7918,1.6534,-0.4299,-0.1674,0.1534,-0.0037,0.0527,0.0256,1117,2019-08-07 16:50:36:762
-6.1759,-6.8491,1.6722,-0.4299,-0.1674,0.1534,-0.0037,0.0527,0.0256,1123,2019-08-07 16:50:36:768
-6.1759,-6.8491,1.6722,-0.4299,-0.1674,0.1534,-0.0101,0.0665,0.0298,1128,2019-08-07 16:50:36:773
-6.1568,-6.8109,1.5874,-0.4493,-0.2223,0.1817,-0.0101,0.0665,0.0298,1134,2019-08-07 16:50:36:779
-6.1568,-6.8109,1.5874,-0.4493,-0.2223,0.1817,-0.0101,0.0665,0.0298,1138,2019-08-07 16:50:36:783
-6.1568,-6.8109,1.5874,-0.4493,-0.2223,0.1817,-0.0047,0.0814,0.0309,1142,2019-08-07 16:50:36:787
-6.2716,-6.8109,1.6722,-0.4493,-0.2223,0.1817,-0.0047,0.0814,0.0309,1148,2019-08-07 16:50:36:793
-6.2716,-6.8109,1.6722,-0.27,-0.2424,0.1037,-0.0047,0.0814,0.0351,1153,2019-08-07 16:50:36:798
-6.2716,-6.8109,1.6722,-0.27,-0.2424,0.1037,-0.0047,0.0814,0.0351,1158,2019-08-07 16:50:36:803
-6.3338,-6.787,1.6958,-0.27,-0.2424,0.1037,-0.0015,0.0782,0.0383,1163,2019-08-07 16:50:36:808
-6.3338,-6.787,1.6958,-0.27,-0.2424,0.1037,-0.0015,0.0782,0.0383,1167,2019-08-07 16:50:36:812
-6.3338,-6.787,1.6958,-0.235,-0.2231,0.0272,-0.0015,0.0782,0.0383,1173,2019-08-07 16:50:36:818
-6.3865,-6.8013,1.7193,-0.235,-0.2231,0.0272,0.0038,0.0751,0.0373,1178,2019-08-07 16:50:36:823
-6.3865,-6.8013,1.7193,-0.235,-0.2231,0.0272,0.0038,0.0751,0.0373,1183,2019-08-07 16:50:36:828
-6.42,-6.744,1.6958,-0.235,-0.2231,0.0272,0.007,0.0601,0.0373,1188,2019-08-07 16:50:36:833
-6.42,-6.744,1.6958,-0.235,-0.2231,0.0272,0.007,0.0601,0.0373,1193,2019-08-07 16:50:36:838
-6.42,-6.744,1.6958,-0.1711,-0.2892,0.1039,0.007,0.0559,0.0373,1198,2019-08-07 16:50:36:843
-6.5014,-6.7727,1.6816,-0.1711,-0.2892,0.1039,0.007,0.0559,0.0373,1204,2019-08-07 16:50:36:849
-6.5014,-6.7727,1.6816,-0.1711,-0.2892,0.1039,0.007,0.0559,0.0373,1207,2019-08-07 16:50:36:852
-6.5014,-6.7727,1.6816,-0.1711,-0.2892,0.1039,0.0091,0.041,0.0277,1213,2019-08-07 16:50:36:858
-6.5205,-6.7249,1.6863,-0.1155,-0.2891,0.0469,0.0091,0.041,0.0277,1218,2019-08-07 16:50:36:863
-6.5205,-6.7249,1.6863,-0.1155,-0.2891,0.0469,0.0166,0.0218,0.0224,1223,2019-08-07 16:50:36:868
-6.4966,-6.6199,1.7052,-0.1155,-0.2891,0.0469,0.0166,0.0218,0.0224,1227,2019-08-07 16:50:36:872
-6.4966,-6.6199,1.7052,-0.1155,-0.2891,0.0469,0.0198,0.0047,0.0213,1234,2019-08-07 16:50:36:879
-6.4966,-6.6199,1.7052,-0.1249,-0.3562,-0.0565,0.0198,0.0047,0.0213,1238,2019-08-07 16:50:36:883
-6.4344,-6.6963,1.7853,-0.1249,-0.3562,-0.0565,0.0198,0.0047,0.0213,1243,2019-08-07 16:50:36:888
-6.4344,-6.6963,1.7853,-0.1249,-0.3562,-0.0565,0.0166,-0.0198,0.0224,1248,2019-08-07 16:50:36:893
-6.401,-6.6772,1.7099,-0.1249,-0.3562,-0.0565,0.0166,-0.0198,0.0224,1253,2019-08-07 16:50:36:898
-6.401,-6.6772,1.7099,-0.2425,-0.3427,0.0854,0.007,-0.0251,0.0192,1258,2019-08-07 16:50:36:903
-6.3723,-6.6819,1.6957,-0.2425,-0.3427,0.0854,0.007,-0.0251,0.0192,1263,2019-08-07 16:50:36:908
-6.3723,-6.6819,1.6957,-0.2425,-0.3427,0.0854,0.0059,-0.0166,0.0234,1268,2019-08-07 16:50:36:913
-6.3723,-6.6819,1.6957,-0.2425,-0.3427,0.0854,0.0059,-0.0166,0.0234,1273,2019-08-07 16:50:36:918
-6.3101,-6.7392,1.6486,-0.3358,-0.2632,0.0934,-5.0E-4,-0.0091,0.0288,1278,2019-08-07 16:50:36:923
-6.3101,-6.7392,1.6486,-0.3358,-0.2632,0.0934,-5.0E-4,-0.0091,0.0288,1283,2019-08-07 16:50:36:928
-6.3388,-6.7154,1.6721,-0.3358,-0.2632,0.0934,6.0E-4,0.0111,0.0245,1288,2019-08-07 16:50:36:933
-6.3388,-6.7154,1.6721,-0.3358,-0.2632,0.0934,6.0E-4,0.0111,0.0245,1293,2019-08-07 16:50:36:938
-6.3388,-6.7154,1.6721,-0.2772,-0.2934,0.0361,-5.0E-4,0.0154,0.0256,1298,2019-08-07 16:50:36:943
-6.3867,-6.6628,1.7051,-0.2772,-0.2934,0.0361,-5.0E-4,0.0154,0.0256,1303,2019-08-07 16:50:36:948
-6.3867,-6.6628,1.7051,-0.2772,-0.2934,0.0361,-0.0079,0.0282,0.0256,1308,2019-08-07 16:50:36:953
-6.3867,-6.6628,1.7051,-0.2772,-0.2934,0.0361,-0.0079,0.0282,0.0256,1313,2019-08-07 16:50:36:958
-6.4106,-6.6581,1.724,-0.2435,-0.3376,0.0134,-0.009,0.0314,0.0245,1318,2019-08-07 16:50:36:963
-6.4106,-6.6581,1.724,-0.2435,-0.3376,0.0134,-0.009,0.0314,0.0245,1323,2019-08-07 16:50:36:968
-6.5063,-6.6581,1.7381,-0.1504,-0.3358,-0.0032,-0.0111,0.0292,0.0234,1328,2019-08-07 16:50:36:973
-6.5063,-6.6581,1.7381,-0.1504,-0.3358,-0.0032,-0.0111,0.0292,0.0234,1333,2019-08-07 16:50:36:978
-6.5063,-6.6581,1.7381,-0.1504,-0.3358,-0.0032,-0.0101,0.0154,0.0245,1338,2019-08-07 16:50:36:983
-6.559,-6.6819,1.7476,-0.1504,-0.3358,-0.0032,-0.0101,0.0154,0.0245,1343,2019-08-07 16:50:36:988
-6.559,-6.6819,1.7476,-0.1265,-0.2939,0.0356,-0.0101,0.0154,0.0245,1348,2019-08-07 16:50:36:993
-6.559,-6.6819,1.7476,-0.1265,-0.2939,0.0356,-0.0133,0.0037,0.0256,1352,2019-08-07 16:50:36:997
-6.4873,-6.7201,1.7145,-0.1265,-0.2939,0.0356,-0.0133,0.0037,0.0256,1358,2019-08-07 16:50:37:003
-6.4873,-6.7201,1.7145,-0.1265,-0.2939,0.0356,-0.0143,-0.0091,0.0234,1363,2019-08-07 16:50:37:008
-6.4538,-6.7106,1.6957,-0.2115,-0.2764,0.0345,-0.0143,-0.0091,0.0234,1369,2019-08-07 16:50:37:014
-6.4538,-6.7106,1.6957,-0.2115,-0.2764,0.0345,-0.0111,-0.0091,0.0256,1373,2019-08-07 16:50:37:018
-6.4538,-6.7106,1.6957,-0.2115,-0.2764,0.0345,-0.0111,-0.0091,0.0256,1377,2019-08-07 16:50:37:022
-6.3629,-6.7249,1.6533,-0.2115,-0.2764,0.0345,-0.0026,-0.0027,0.0245,1383,2019-08-07 16:50:37:028
-6.3629,-6.7249,1.6533,-0.3104,-0.2829,0.0578,-0.0026,-0.0027,0.0245,1388,2019-08-07 16:50:37:033
-6.3534,-6.7153,1.6863,-0.3104,-0.2829,0.0578,-0.0026,-0.0027,0.0245,1393,2019-08-07 16:50:37:038
-6.3534,-6.7153,1.6863,-0.3104,-0.2829,0.0578,6.0E-4,0.0037,0.0298,1398,2019-08-07 16:50:37:043
-6.3534,-6.7201,1.6815,-0.3104,-0.2829,0.0578,6.0E-4,0.0037,0.0298,1404,2019-08-07 16:50:37:049
-6.3438,-6.7201,1.6815,-0.3335,-0.2647,0.0014,0.0091,0.0037,0.0288,1409,2019-08-07 16:50:37:054
-6.3438,-6.7201,1.6815,-0.3335,-0.2647,0.0014,0.0091,0.0037,0.0288,1413,2019-08-07 16:50:37:058
-6.3534,-6.6819,1.7428,-0.3335,-0.2647,0.0014,0.0091,5.0E-4,0.0341,1418,2019-08-07 16:50:37:063
-6.3534,-6.6819,1.7428,-0.3335,-0.2647,0.0014,0.0091,5.0E-4,0.0341,1423,2019-08-07 16:50:37:068
-6.3152,-6.6771,1.6862,-0.3619,-0.2981,0.0455,0.0059,-0.0016,0.0373,1428,2019-08-07 16:50:37:073
-6.3152,-6.6771,1.6862,-0.3619,-0.2981,0.0455,0.0059,-0.0016,0.0373,1433,2019-08-07 16:50:37:078
-6.3152,-6.6771,1.6862,-0.3619,-0.2981,0.0455,0.0059,-0.0016,0.0373,1438,2019-08-07 16:50:37:083
-6.3152,-6.6771,1.6862,-0.3619,-0.2981,0.0455,-0.0079,0.0015,0.0394,1443,2019-08-07 16:50:37:088
-6.3247,-6.6199,1.6344,-0.3192,-0.2838,0.125,-0.0079,0.0015,0.0394,1448,2019-08-07 16:50:37:093
-6.3247,-6.6199,1.6344,-0.3192,-0.2838,0.125,-0.0111,0.0037,0.0394,1453,2019-08-07 16:50:37:098
-6.3056,-6.6485,1.6768,-0.3192,-0.2838,0.125,-0.0111,0.0037,0.0394,1458,2019-08-07 16:50:37:103
-6.3056,-6.6485,1.6768,-0.3192,-0.2838,0.125,-0.0111,0.0037,0.0394,1463,2019-08-07 16:50:37:108
-6.3056,-6.6485,1.6768,-0.334,-0.3226,0.1071,-0.0186,0.0143,0.0341,1468,2019-08-07 16:50:37:113
-6.3726,-6.6342,1.6108,-0.334,-0.3226,0.1071,-0.0239,0.0154,0.0351,1473,2019-08-07 16:50:37:118
-6.3726,-6.6342,1.6108,-0.334,-0.3226,0.1071,-0.0239,0.0154,0.0351,1478,2019-08-07 16:50:37:123
-6.3918,-6.6819,1.6155,-0.334,-0.3226,0.1071,-0.0292,0.0154,0.0351,1484,2019-08-07 16:50:37:129
-6.3918,-6.6819,1.6155,-0.3202,-0.2378,0.1246,-0.0292,0.0154,0.0351,1487,2019-08-07 16:50:37:132
-6.3918,-6.6819,1.6155,-0.3202,-0.2378,0.1246,-0.0292,0.0154,0.0351,1493,2019-08-07 16:50:37:138
-6.4349,-6.7726,1.6579,-0.3202,-0.2378,0.1246,-0.0324,0.0122,0.0373,1498,2019-08-07 16:50:37:143
-6.4349,-6.7726,1.6579,-0.2797,-0.2027,0.0553,-0.0324,0.0122,0.0373,1503,2019-08-07 16:50:37:148
-6.4349,-6.7822,1.6815,-0.2797,-0.2027,0.0553,-0.0314,0.0026,0.0341,1508,2019-08-07 16:50:37:153
-6.4349,-6.7822,1.6815,-0.2797,-0.2027,0.0553,-0.0314,0.0026,0.0341,1513,2019-08-07 16:50:37:158
-6.4349,-6.7822,1.6815,-0.2797,-0.2027,0.0553,-0.026,-0.0048,0.0351,1518,2019-08-07 16:50:37:163
-6.4541,-6.8156,1.5589,-0.2413,-0.1708,0.1401,-0.026,-0.0048,0.0351,1523,2019-08-07 16:50:37:168
-6.4541,-6.8156,1.5589,-0.2413,-0.1708,0.1401,-0.0207,-0.0144,0.033,1528,2019-08-07 16:50:37:173
-6.4158,-6.8203,1.5212,-0.2413,-0.1708,0.1401,-0.0207,-0.0144,0.033,1533,2019-08-07 16:50:37:178
-6.4158,-6.8203,1.5212,-0.2736,-0.1106,0.1566,-0.0111,-0.0048,0.0266,1538,2019-08-07 16:50:37:183
-6.4158,-6.8203,1.5212,-0.2736,-0.1106,0.1566,-0.0111,-0.0048,0.0266,1543,2019-08-07 16:50:37:188
-6.411,-6.8251,1.5542,-0.2736,-0.1106,0.1566,-0.0058,5.0E-4,0.0192,1548,2019-08-07 16:50:37:193
-6.411,-6.8251,1.5542,-0.2736,-0.1106,0.1566,-0.0058,5.0E-4,0.0192,1553,2019-08-07 16:50:37:198
-6.411,-6.8251,1.5542,-0.2736,-0.1106,0.1566,-0.0058,5.0E-4,0.0192,1558,2019-08-07 16:50:37:203
-6.4445,-6.7583,1.5401,-0.2617,-0.1946,0.1689,0.008,0.0122,0.0128,1563,2019-08-07 16:50:37:208
-6.4445,-6.7583,1.5401,-0.2617,-0.1946,0.1689,0.008,0.0122,0.0128,1569,2019-08-07 16:50:37:214
-6.4445,-6.7583,1.5401,-0.2617,-0.1946,0.1689,0.0187,0.0058,0.0042,1573,2019-08-07 16:50:37:218
-6.502,-6.763,1.5872,-0.2617,-0.1946,0.1689,0.0187,0.0058,0.0042,1578,2019-08-07 16:50:37:223
-6.502,-6.763,1.5872,-0.2291,-0.2031,0.0846,0.0219,0.0015,0.0011,1584,2019-08-07 16:50:37:229
-6.4542,-6.7201,1.6155,-0.2291,-0.2031,0.0846,0.0219,0.0015,0.0011,1587,2019-08-07 16:50:37:232
-6.4542,-6.7201,1.6155,-0.2291,-0.2031,0.0846,0.0219,0.0015,0.0011,1593,2019-08-07 16:50:37:238
-6.4542,-6.7201,1.6155,-0.2291,-0.2031,0.0846,0.0262,-0.0091,-0.0021,1598,2019-08-07 16:50:37:243
-6.4016,-6.7535,1.6013,-0.3051,-0.1978,0.1122,0.0262,-0.0091,-0.0021,1603,2019-08-07 16:50:37:248
-6.4016,-6.7535,1.6013,-0.3051,-0.1978,0.1122,0.024,-0.0166,-0.0021,1608,2019-08-07 16:50:37:253
-6.3537,-6.7439,1.6532,-0.3051,-0.1978,0.1122,0.024,-0.0166,-0.0021,1613,2019-08-07 16:50:37:258
-6.3537,-6.7439,1.6532,-0.3051,-0.1978,0.1122,0.024,-0.0123,0.0,1619,2019-08-07 16:50:37:264
-6.3537,-6.7439,1.6532,-0.3803,-0.193,0.0843,0.024,-0.0123,0.0,1622,2019-08-07 16:50:37:267
-6.3251,-6.7392,1.573,-0.3803,-0.193,0.0843,0.0315,-0.0134,0.0032,1628,2019-08-07 16:50:37:273
-6.3251,-6.7392,1.573,-0.3803,-0.193,0.0843,0.0315,-0.0134,0.0032,1633,2019-08-07 16:50:37:278
-6.2772,-6.7344,1.5966,-0.3803,-0.193,0.0843,0.0315,-0.0134,0.0032,1638,2019-08-07 16:50:37:283
-6.2772,-6.7344,1.5966,-0.3794,-0.1925,0.1084,0.0304,5.0E-4,0.0085,1643,2019-08-07 16:50:37:288
-6.2772,-6.7344,1.5966,-0.3794,-0.1925,0.1084,0.0304,5.0E-4,0.0085,1648,2019-08-07 16:50:37:293
-6.2916,-6.7487,1.606,-0.3794,-0.1925,0.1084,0.0304,0.0047,0.0096,1653,2019-08-07 16:50:37:298
-6.2916,-6.7487,1.606,-0.3794,-0.1925,0.1084,0.0304,0.0047,0.0096,1658,2019-08-07 16:50:37:303
-6.2916,-6.7487,1.606,-0.4183,-0.2198,0.0693,0.0304,0.0101,0.0096,1663,2019-08-07 16:50:37:308
-6.3012,-6.7201,1.639,-0.4183,-0.2198,0.0693,0.0304,0.0101,0.0096,1668,2019-08-07 16:50:37:313
-6.3012,-6.7201,1.639,-0.4183,-0.2198,0.0693,0.0336,0.0229,0.0128,1673,2019-08-07 16:50:37:318
-6.306,-6.7153,1.5353,-0.4183,-0.2198,0.0693,0.0336,0.0229,0.0128,1678,2019-08-07 16:50:37:323
-6.306,-6.7153,1.5353,-0.4056,-0.2369,0.1701,0.0336,0.0229,0.0128,1683,2019-08-07 16:50:37:328
-6.306,-6.7153,1.5353,-0.4056,-0.2369,0.1701,0.0368,0.0324,0.0117,1687,2019-08-07 16:50:37:332
-6.3587,-6.7296,1.5212,-0.4056,-0.2369,0.1701,0.0368,0.0324,0.0117,1693,2019-08-07 16:50:37:338
-6.3587,-6.7296,1.5212,-0.4056,-0.2369,0.1701,0.04,0.0346,0.0096,1698,2019-08-07 16:50:37:343
-6.3826,-6.7869,1.5683,-0.3216,-0.1394,0.165,0.04,0.0346,0.0096,1703,2019-08-07 16:50:37:348
-6.3826,-6.7869,1.5683,-0.3216,-0.1394,0.165,0.0389,0.0367,0.0096,1708,2019-08-07 16:50:37:353
-6.3826,-6.7869,1.5683,-0.3216,-0.1394,0.165,0.0389,0.0367,0.0096,1712,2019-08-07 16:50:37:357
-6.373,-6.8203,1.5636,-0.3369,-0.1241,0.1649,0.0443,0.0335,0.0096,1719,2019-08-07 16:50:37:364
-6.373,-6.8203,1.5636,-0.3369,-0.1241,0.1649,0.0443,0.0335,0.0096,1722,2019-08-07 16:50:37:367
-6.373,-6.8203,1.5636,-0.3369,-0.1241,0.1649,0.0539,0.0399,0.0096,1728,2019-08-07 16:50:37:373
-6.3587,-6.7773,1.5777,-0.3483,-0.1651,0.1656,0.0539,0.0399,0.0096,1733,2019-08-07 16:50:37:378
-6.3587,-6.7773,1.5777,-0.3483,-0.1651,0.1656,0.0539,0.0399,0.0096,1738,2019-08-07 16:50:37:383
-6.3587,-6.7869,1.5824,-0.3483,-0.1651,0.1656,0.0624,0.0495,0.0106,1743,2019-08-07 16:50:37:388
-6.3587,-6.7869,1.5824,-0.3483,-0.1651,0.1656,0.0634,0.0463,0.0043,1749,2019-08-07 16:50:37:394
-6.3587,-6.7869,1.5824,-0.2602,-0.1912,0.1014,0.0634,0.0463,0.0043,1752,2019-08-07 16:50:37:397
-6.4058,-6.7583,1.6109,-0.2602,-0.1912,0.1014,0.0634,0.0463,0.0043,1758,2019-08-07 16:50:37:403
-6.4058,-6.7583,1.6109,-0.2602,-0.1912,0.1014,0.0645,0.0399,0.0074,1763,2019-08-07 16:50:37:408
-6.4346,-6.7344,1.6297,-0.2602,-0.1912,0.1014,0.0645,0.0399,0.0074,1768,2019-08-07 16:50:37:413
-6.4346,-6.7344,1.6297,-0.286,-0.155,0.0577,0.0656,0.0335,0.0085,1773,2019-08-07 16:50:37:418
-6.4346,-6.7344,1.6297,-0.286,-0.155,0.0577,0.0656,0.0335,0.0085,1777,2019-08-07 16:50:37:422
-6.4011,-6.744,1.6486,-0.2819,-0.1298,0.0983,0.0709,0.025,0.0032,1783,2019-08-07 16:50:37:428
-6.4011,-6.744,1.6486,-0.2819,-0.1298,0.0983,0.0709,0.025,0.0032,1788,2019-08-07 16:50:37:433
-6.4011,-6.744,1.6486,-0.2819,-0.1298,0.0983,0.0709,0.025,0.0032,1793,2019-08-07 16:50:37:438
-6.3628,-6.7631,1.6439,-0.3539,-0.1718,0.0968,0.073,0.0239,-0.0021,1798,2019-08-07 16:50:37:443
-6.3628,-6.7631,1.6439,-0.3539,-0.1718,0.0968,0.073,0.0239,-0.0021,1803,2019-08-07 16:50:37:448
-6.4155,-6.6963,1.6391,-0.3539,-0.1718,0.0968,0.0602,0.0442,-0.0096,1808,2019-08-07 16:50:37:453
-6.4155,-6.6963,1.6391,-0.3539,-0.1718,0.0968,0.0602,0.0442,-0.0096,1813,2019-08-07 16:50:37:458
-6.4155,-6.6963,1.6391,-0.2821,-0.2567,0.0724,0.057,0.0527,-0.0128,1818,2019-08-07 16:50:37:463
-6.4107,-6.7106,1.691,-0.2821,-0.2567,0.0724,0.057,0.0527,-0.0128,1823,2019-08-07 16:50:37:468
-6.4107,-6.7106,1.691,-0.2821,-0.2567,0.0724,0.057,0.0527,-0.0128,1828,2019-08-07 16:50:37:473
-6.4155,-6.7153,1.7051,-0.2631,-0.1993,0.0771,0.0539,0.0623,-0.0107,1833,2019-08-07 16:50:37:478
-6.4155,-6.7153,1.7051,-0.2631,-0.1993,0.0771,0.0539,0.0623,-0.0107,1838,2019-08-07 16:50:37:483
-6.4155,-6.7153,1.7051,-0.2631,-0.1993,0.0771,0.0485,0.0708,-0.0171,1843,2019-08-07 16:50:37:488
-6.4681,-6.6628,1.7947,-0.2485,-0.2713,-0.0511,0.0485,0.0708,-0.0171,1848,2019-08-07 16:50:37:493
-6.4681,-6.6628,1.7947,-0.2485,-0.2713,-0.0511,0.0411,0.0697,-0.0149,1854,2019-08-07 16:50:37:499
-6.4968,-6.6437,1.9361,-0.2485,-0.2713,-0.0511,0.0411,0.0697,-0.0149,1858,2019-08-07 16:50:37:503
-6.4968,-6.6437,1.9361,-0.2485,-0.2713,-0.0511,0.0379,0.0548,-0.0107,1863,2019-08-07 16:50:37:508
-6.4968,-6.6437,1.9361,-0.2392,-0.3,-0.2644,0.0379,0.0548,-0.0107,1868,2019-08-07 16:50:37:513
-6.4968,-6.6008,2.0351,-0.2392,-0.3,-0.2644,0.0272,0.0335,-0.0011,1872,2019-08-07 16:50:37:517
-6.4968,-6.6008,2.0351,-0.2392,-0.3,-0.2644,0.0272,0.0335,-0.0011,1878,2019-08-07 16:50:37:523
-6.516,-6.5769,2.2189,-0.2392,-0.3,-0.2644,0.0304,0.0165,0.0064,1883,2019-08-07 16:50:37:528
-6.516,-6.5769,2.2189,-0.2019,-0.4318,-0.5531,0.0304,0.0165,0.0064,1887,2019-08-07 16:50:37:532
-6.516,-6.5769,2.2189,-0.2019,-0.4318,-0.5531,0.0464,-0.0112,0.0234,1893,2019-08-07 16:50:37:538
-6.7696,-6.2952,2.8977,0.0499,-0.6338,-1.1452,0.0464,-0.0112,0.0234,1898,2019-08-07 16:50:37:543
-6.7696,-6.2952,2.8977,0.0499,-0.6338,-1.1452,0.0805,-0.0592,0.0564,1903,2019-08-07 16:50:37:548
-6.7696,-6.2952,2.8977,0.0499,-0.6338,-1.1452,0.0805,-0.0592,0.0564,1908,2019-08-07 16:50:37:553
-7.1428,-5.9181,3.5812,0.0499,-0.6338,-1.1452,0.1092,-0.1135,0.0884,1913,2019-08-07 16:50:37:558
-7.1428,-5.9181,3.5812,0.6195,-1.0644,-2.1188,0.1092,-0.1135,0.0884,1918,2019-08-07 16:50:37:563
-7.1428,-5.9181,3.5812,0.6195,-1.0644,-2.1188,0.1529,-0.2552,0.147,1922,2019-08-07 16:50:37:567
-7.693,-5.6412,4.4014,0.9562,-1.2535,-2.5805,0.1529,-0.2552,0.147,1928,2019-08-07 16:50:37:573
-7.693,-5.6412,4.4014,0.9562,-1.2535,-2.5805,0.1593,-0.3969,0.1864,1934,2019-08-07 16:50:37:579
-8.2145,-5.3978,5.0378,0.9562,-1.2535,-2.5805,0.1593,-0.3969,0.1864,1938,2019-08-07 16:50:37:583
-8.2145,-5.3978,5.0378,0.9562,-1.2535,-2.5805,0.1593,-0.3969,0.1864,1942,2019-08-07 16:50:37:587
-8.5111,-5.1161,5.627,1.7089,-1.6862,-3.522,0.1146,-0.5843,0.2162,1948,2019-08-07 16:50:37:593
-8.5111,-5.1161,5.627,1.7089,-1.6862,-3.522,0.1146,-0.5843,0.2162,1953,2019-08-07 16:50:37:598
-8.5111,-5.1161,5.627,1.7089,-1.6862,-3.522,0.0347,-0.8784,0.2439,1958,2019-08-07 16:50:37:603
-8.7934,-4.9538,6.6923,1.7089,-1.6862,-3.522,0.0347,-0.8784,0.2439,1963,2019-08-07 16:50:37:608
-8.7934,-4.9538,6.6923,2.1163,-1.845,-5.2007,0.008,-0.9646,0.2493,1968,2019-08-07 16:50:37:613
-9.3579,-5.0159,8.1394,2.1163,-1.845,-5.2007,0.008,-0.9646,0.2493,1973,2019-08-07 16:50:37:618
-9.3579,-5.0159,8.1394,2.1163,-1.845,-5.2007,-0.0995,-1.2256,0.261,1978,2019-08-07 16:50:37:623
-9.3579,-5.0159,8.1394,2.1163,-1.845,-5.2007,-0.0995,-1.2256,0.261,1983,2019-08-07 16:50:37:628
-10.3435,-5.2164,10.1051,3.5885,-1.532,-7.8544,-0.1762,-1.3748,0.2865,1988,2019-08-07 16:50:37:633
-10.3435,-5.2164,10.1051,3.5885,-1.532,-7.8544,-0.1762,-1.3748,0.2865,1992,2019-08-07 16:50:37:637
-10.3435,-5.2164,10.1051,3.5885,-1.532,-7.8544,-0.1762,-1.3748,0.2865,1997,2019-08-07 16:50:37:642
-11.219,-5.6651,12.099,3.5885,-1.532,-7.8544,-0.2093,-1.5559,0.3078,2003,2019-08-07 16:50:37:648
-11.219,-5.6651,12.099,5.1773,-0.7263,-10.6125,-0.2093,-1.5559,0.3078,2008,2019-08-07 16:50:37:653
-11.219,-5.6651,12.099,5.1773,-0.7263,-10.6125,-0.1347,-1.8904,0.3664,2013,2019-08-07 16:50:37:658
-12.5395,-6.047,13.6782,5.1773,-0.7263,-10.6125,-0.1347,-1.8904,0.3664,2018,2019-08-07 16:50:37:663
-12.5395,-6.047,13.6782,5.1773,-0.7263,-10.6125,-0.0761,-2.1961,0.457,2023,2019-08-07 16:50:37:668
-13.4676,-5.1686,13.9657,6.7825,-1.4583,-11.2036,-0.0761,-2.1961,0.457,2028,2019-08-07 16:50:37:673
-13.4676,-5.1686,13.9657,6.7825,-1.4583,-11.2036,-0.0761,-2.5838,0.5774,2033,2019-08-07 16:50:37:678
-13.4676,-5.1686,13.9657,6.7825,-1.4583,-11.2036,-0.0761,-2.5838,0.5774,2038,2019-08-07 16:50:37:683
-14.2762,-3.6076,14.291,6.7825,-1.4583,-11.2036,-0.1038,-3.0685,0.7105,2043,2019-08-07 16:50:37:688
-14.2762,-3.6076,14.291,7.9974,-3.3661,-11.004,-0.1038,-3.0685,0.7105,2048,2019-08-07 16:50:37:693
-15.1804,-2.6003,13.7253,7.9974,-3.3661,-11.004,-0.1592,-3.6065,0.8863,2053,2019-08-07 16:50:37:698
-15.1804,-2.6003,13.7253,7.9974,-3.3661,-11.004,-0.1592,-3.6065,0.8863,2057,2019-08-07 16:50:37:702
-15.1804,-2.6003,13.7253,7.9974,-3.3661,-11.004,-0.1592,-3.6065,0.8863,2063,2019-08-07 16:50:37:708
-15.7498,-2.1229,13.3293,9.2576,-4.2506,-9.6597,-0.2764,-4.2829,1.1356,2068,2019-08-07 16:50:37:713
-15.7498,-2.1229,13.3293,9.2576,-4.2506,-9.6597,-0.2764,-4.2829,1.1356,2073,2019-08-07 16:50:37:718
-15.7498,-2.1229,13.3293,9.2576,-4.2506,-9.6597,-0.3382,-4.9594,1.372,2078,2019-08-07 16:50:37:723
-16.2473,-1.8556,12.6034,9.2576,-4.2506,-9.6597,-0.3382,-4.9594,1.372,2083,2019-08-07 16:50:37:728
-16.2473,-1.8556,12.6034,9.9998,-4.4977,-7.5482,-0.3382,-4.9594,1.372,2088,2019-08-07 16:50:37:733
-16.2473,-1.8556,12.6034,9.9998,-4.4977,-7.5482,-0.3925,-5.4931,1.6043,2093,2019-08-07 16:50:37:738
-16.2282,-1.5835,11.3825,10.0216,-4.7299,-6.4669,-0.3925,-5.4931,1.7172,2098,2019-08-07 16:50:37:743
-16.2282,-1.5835,11.3825,10.0216,-4.7299,-6.4669,-0.4383,-5.7306,1.7172,2103,2019-08-07 16:50:37:748
-16.3478,-0.7051,10.6377,10.0216,-4.7299,-6.4669,-0.4383,-5.7306,1.7172,2108,2019-08-07 16:50:37:753
-16.3478,-0.7051,10.6377,10.0216,-4.7299,-6.4669,-0.5086,-5.9693,1.8812,2113,2019-08-07 16:50:37:758
-16.3478,-0.7051,10.6377,10.884,-6.0899,-5.0739,-0.5086,-5.9693,1.8812,2118,2019-08-07 16:50:37:763
-16.7497,0.3977,10.3408,10.884,-6.0899,-5.0739,-0.5757,-6.0523,2.04,2122,2019-08-07 16:50:37:767
-16.7497,0.3977,10.3408,10.884,-6.0899,-5.0739,-0.5757,-6.0523,2.04,2128,2019-08-07 16:50:37:773
-17.8932,1.1567,10.765,10.884,-6.0899,-5.0739,-0.7249,-6.1461,2.2008,2133,2019-08-07 16:50:37:778
-17.8932,1.1567,10.765,13.3214,-7.1533,-5.2097,-0.7249,-6.1461,2.2008,2138,2019-08-07 16:50:37:783
-17.8932,1.1567,10.765,13.3214,-7.1533,-5.2097,-1.0455,-6.4848,2.4426,2143,2019-08-07 16:50:37:788
-20.2709,1.9492,11.029,13.3214,-7.1533,-5.2097,-1.0455,-6.4848,2.4426,2149,2019-08-07 16:50:37:794
-20.2709,1.9492,11.029,13.3214,-7.1533,-5.2097,-1.0455,-6.4848,2.4426,2153,2019-08-07 16:50:37:798
-23.1128,2.6318,10.2182,18.2184,-8.1501,-3.7506,-1.5238,-7.157,2.7228,2158,2019-08-07 16:50:37:803
-23.1128,2.6318,10.2182,18.2184,-8.1501,-3.7506,-1.5238,-7.157,2.7228,2162,2019-08-07 16:50:37:807
-23.1128,2.6318,10.2182,18.2184,-8.1501,-3.7506,-1.9872,-8.1072,2.954,2168,2019-08-07 16:50:37:813
-24.7586,2.7941,7.7717,18.2184,-8.1501,-3.7506,-1.9872,-8.1072,2.954,2172,2019-08-07 16:50:37:817
-24.7586,2.7941,7.7717,19.866,-7.8598,1.4487,-2.4165,-9.1746,3.2565,2178,2019-08-07 16:50:37:823
-22.5818,1.825,4.0148,19.866,-7.8598,1.4487,-2.4165,-9.1746,3.2565,2183,2019-08-07 16:50:37:828
-22.5818,1.825,4.0148,19.866,-7.8598,1.4487,-2.8032,-10.0268,3.6592,2188,2019-08-07 16:50:37:833
-22.5818,1.825,4.0148,19.866,-7.8598,1.4487,-2.8032,-10.0268,3.6592,2193,2019-08-07 16:50:37:838
-17.7497,0.4741,-0.204,19.866,-7.8598,1.4487,-3.0248,-9.5922,3.8339,2198,2019-08-07 16:50:37:843
-17.7497,0.4741,-0.204,13.5335,-5.8392,8.0758,-3.0248,-9.5922,3.8339,2203,2019-08-07 16:50:37:848
-17.7497,0.4741,-0.204,13.5335,-5.8392,8.0758,-3.0248,-9.5922,3.8339,2208,2019-08-07 16:50:37:853
-13.774,-0.4473,-2.5845,13.5335,-5.8392,8.0758,-3.1505,-8.3842,3.853,2213,2019-08-07 16:50:37:858
-13.774,-0.4473,-2.5845,13.5335,-5.8392,8.0758,-3.1505,-8.3842,3.853,2218,2019-08-07 16:50:37:863
-13.774,-0.4473,-2.5845,10.8713,-5.2094,11.153,-3.3539,-6.3954,3.7455,2222,2019-08-07 16:50:37:867
-13.5109,-0.8387,-4.3475,10.8713,-5.2094,11.153,-3.3539,-6.3954,3.7455,2228,2019-08-07 16:50:37:873
-13.5109,-0.8387,-4.3475,10.8713,-5.2094,11.153,-3.6501,-4.7964,3.51,2233,2019-08-07 16:50:37:878
-15.2811,-1.5787,-4.5879,13.8018,-4.5746,11.511,-3.6501,-4.7964,3.51,2238,2019-08-07 16:50:37:883
-15.2811,-1.5787,-4.5879,13.8018,-4.5746,11.511,-3.6501,-4.7964,3.51,2243,2019-08-07 16:50:37:888
-15.2811,-1.5787,-4.5879,13.8018,-4.5746,11.511,-4.0293,-3.6257,2.955,2248,2019-08-07 16:50:37:893
-18.2234,-2.2088,-4.3428,13.8018,-4.5746,11.511,-4.0293,-3.6257,2.955,2253,2019-08-07 16:50:37:898
-18.2234,-2.2088,-4.3428,13.8018,-4.5746,11.511,-4.3776,-3.3444,2.3446,2258,2019-08-07 16:50:37:903
-18.2473,-2.6623,-6.0727,16.44,-4.0842,12.2203,-4.3776,-3.3444,2.3446,2263,2019-08-07 16:50:37:908
-18.2473,-2.6623,-6.0727,16.44,-4.0842,12.2203,-4.7196,-3.4893,1.7992,2268,2019-08-07 16:50:37:913
-18.2473,-2.6623,-6.0727,16.44,-4.0842,12.2203,-4.7196,-3.4893,1.7992,2273,2019-08-07 16:50:37:918
-14.7787,-2.5382,-8.9152,16.44,-4.0842,12.2203,-5.0999,-3.9474,1.2421,2277,2019-08-07 16:50:37:922
-14.7787,-2.5382,-8.9152,10.6798,-4.5928,16.1822,-5.0999,-3.9474,1.2421,2282,2019-08-07 16:50:37:927
-9.7362,-3.1636,-10.7771,10.6798,-4.5928,16.1822,-5.3747,-4.7698,0.7979,2288,2019-08-07 16:50:37:933
-9.7362,-3.1636,-10.7771,10.6798,-4.5928,16.1822,-5.3747,-4.7698,0.7979,2293,2019-08-07 16:50:37:938
-9.7362,-3.1636,-10.7771,10.6798,-4.5928,16.1822,-5.395,-5.622,0.5358,2297,2019-08-07 16:50:37:942
-6.3154,-4.357,-11.5031,4.832,-3.5732,17.084,-5.395,-5.622,0.5358,2303,2019-08-07 16:50:37:948
-6.3154,-4.357,-11.5031,4.832,-3.5732,17.084,-5.395,-5.622,0.5358,2307,2019-08-07 16:50:37:952
-2.0049,-5.8799,-10.3293,4.832,-3.5732,17.084,-5.0147,-6.1408,0.376,2313,2019-08-07 16:50:37:958
-2.0049,-5.8799,-10.3293,4.832,-3.5732,17.084,-5.0147,-6.1408,0.376,2317,2019-08-07 16:50:37:962
-2.0049,-5.8799,-10.3293,-0.6657,-1.9093,16.62,-4.2711,-5.9256,0.359,2323,2019-08-07 16:50:37:968
0.459,-7.0017,-14.2936,-0.6657,-1.9093,16.62,-4.2711,-5.9256,0.359,2327,2019-08-07 16:50:37:972
0.459,-7.0017,-14.2936,-0.6657,-1.9093,16.62,-3.6469,-4.6505,0.4655,2334,2019-08-07 16:50:37:979
0.459,-7.0017,-14.2936,-0.6657,-1.9093,16.62,-3.6469,-4.6505,0.4655,2338,2019-08-07 16:50:37:983
2.6597,-8.453,-22.5004,-3.1945,-0.4225,26.6448,-3.1377,-2.5135,0.5763,2343,2019-08-07 16:50:37:988
2.6597,-8.453,-22.5004,-3.1945,-0.4225,26.6448,-3.1377,-2.5135,0.5763,2349,2019-08-07 16:50:37:994
3.8797,-10.754,-24.367,-3.1945,-0.4225,26.6448,-2.7307,-0.1348,0.5688,2352,2019-08-07 16:50:37:997
3.8797,-10.754,-24.367,-3.1945,-0.4225,26.6448,-2.7307,-0.1348,0.5688,2358,2019-08-07 16:50:38:003
3.8797,-10.754,-24.367,-4.5066,2.8878,25.4115,-2.7307,-0.1348,0.5688,2363,2019-08-07 16:50:38:008
3.7745,-12.2768,-20.5489,-4.5066,2.8878,25.4115,-2.2876,1.6815,0.4485,2368,2019-08-07 16:50:38:013
3.7745,-12.2768,-20.5489,-4.5066,2.8878,25.4115,-2.2876,1.6815,0.4485,2373,2019-08-07 16:50:38:018
2.3152,-12.6205,-13.0209,-4.5066,2.8878,25.4115,-1.396,2.4751,0.3142,2377,2019-08-07 16:50:38:022
2.3152,-12.6205,-13.0209,-2.4959,3.047,13.4868,-1.396,2.4751,0.3142,2383,2019-08-07 16:50:38:028
1.0187,-12.062,-8.7832,-2.4959,3.047,13.4868,-0.0697,1.7635,0.3228,2388,2019-08-07 16:50:38:033
1.0187,-12.062,-8.7832,-2.4959,3.047,13.4868,-0.0697,1.7635,0.3228,2392,2019-08-07 16:50:38:037
1.0187,-12.062,-8.7832,-2.4959,3.047,13.4868,-0.0697,1.7635,0.3228,2397,2019-08-07 16:50:38:042
0.0188,-11.9474,-11.6162,-0.9134,2.6621,14.6525,0.9892,0.8932,0.3206,2404,2019-08-07 16:50:38:049
0.0188,-11.9474,-11.6162,-0.9134,2.6621,14.6525,0.9892,0.8932,0.3206,2408,2019-08-07 16:50:38:053
0.0188,-11.9474,-11.6162,-0.9134,2.6621,14.6525,1.7625,0.4309,0.2365,2413,2019-08-07 16:50:38:058
-0.7371,-10.9783,-14.7792,-0.9134,2.6621,14.6525,1.7625,0.4309,0.2365,2417,2019-08-07 16:50:38:062
-0.7371,-10.9783,-14.7792,0.0235,0.9282,17.4147,2.3538,0.5651,0.1012,2423,2019-08-07 16:50:38:068
-0.7371,-10.9783,-14.7792,0.0235,0.9282,17.4147,2.3538,0.5651,0.1012,2427,2019-08-07 16:50:38:072
-0.895,-9.2597,-11.6775,-0.3037,-0.124,13.9459,2.5498,0.8463,0.033,2433,2019-08-07 16:50:38:078
-0.895,-9.2597,-11.6775,-0.3037,-0.124,13.9459,2.5498,0.8463,0.033,2438,2019-08-07 16:50:38:083
-0.5984,-8.2047,-8.8916,-0.3037,-0.124,13.9459,2.8917,0.5704,-0.0916,2443,2019-08-07 16:50:38:088
-0.5984,-8.2047,-8.8916,-0.3037,-0.124,13.9459,2.8917,0.5704,-0.0916,2448,2019-08-07 16:50:38:093
-0.5984,-8.2047,-8.8916,-1.4699,-2.9746,18.1712,2.8917,0.5704,-0.0916,2453,2019-08-07 16:50:38:098
0.7699,-5.2306,-15.0384,-1.4699,-2.9746,18.1712,2.2781,2.2429,-0.2461,2457,2019-08-07 16:50:38:102
0.7699,-5.2306,-15.0384,-1.4699,-2.9746,18.1712,2.2781,2.2429,-0.2461,2463,2019-08-07 16:50:38:108
0.7699,-5.2306,-15.0384,-1.4699,-2.9746,18.1712,1.5505,3.3593,-0.3239,2467,2019-08-07 16:50:38:112
-0.5267,-4.758,-14.5812,-0.1564,-3.9873,18.2333,1.5505,3.3593,-0.3239,2473,2019-08-07 16:50:38:118
-0.5267,-4.758,-14.5812,-0.1564,-3.9873,18.2333,0.9433,5.2416,-0.2791,2478,2019-08-07 16:50:38:123
-0.5267,-4.758,-14.5812,-0.1564,-3.7695,14.4144,0.9433,5.2416,-0.2791,2482,2019-08-07 16:50:38:127
-2.7896,-4.9919,-11.5832,1.878,-3.7695,14.4144,1.1702,6.6243,-0.0916,2488,2019-08-07 16:50:38:133
-2.7896,-4.9919,-11.5832,1.878,-3.7695,14.4144,1.1702,6.6243,-0.0916,2493,2019-08-07 16:50:38:138
-5.1052,-5.6173,-8.359,1.878,-3.7695,14.4144,1.6986,6.9045,0.1353,2497,2019-08-07 16:50:38:142
-5.1052,-5.6173,-8.359,5.6369,-2.587,11.7124,1.6986,6.9045,0.1353,2503,2019-08-07 16:50:38:148
-7.837,-6.6055,-5.7852,5.6369,-2.587,11.7124,2.1183,7.4797,0.3451,2507,2019-08-07 16:50:38:152
-7.837,-6.6055,-5.7852,5.6369,-2.587,11.7124,2.1183,7.4797,0.3451,2513,2019-08-07 16:50:38:158
-7.837,-6.6055,-5.7852,6.3297,-1.9195,9.4919,2.5455,7.6235,0.4186,2518,2019-08-07 16:50:38:163
-10.1861,-6.5291,-5.2997,6.3297,-1.9195,9.4919,2.5455,7.6235,0.4186,2523,2019-08-07 16:50:38:168
-10.1861,-6.5291,-5.2997,6.3297,-1.9195,9.4919,2.863,7.4701,0.3792,2527,2019-08-07 16:50:38:172
-12.095,-5.5696,-2.9334,8.9857,-2.8284,6.9387,2.863,7.4701,0.3792,2533,2019-08-07 16:50:38:178
-12.095,-5.5696,-2.9334,8.9857,-2.8284,6.9387,2.863,7.4701,0.3792,2538,2019-08-07 16:50:38:183
-12.095,-5.5696,-2.9334,8.9857,-2.8284,6.9387,3.0717,6.603,0.2098,2543,2019-08-07 16:50:38:188
-14.0949,-4.5432,-1.7408,8.9857,-2.8284,6.9387,3.0717,6.603,0.2098,2548,2019-08-07 16:50:38:193
-14.0949,-4.5432,-1.7408,11.2051,-3.9272,6.3728,2.9386,5.7028,0.0224,2553,2019-08-07 16:50:38:198
-14.0949,-4.5432,-1.7408,11.2051,-3.9272,6.3728,2.9386,5.7028,0.0224,2558,2019-08-07 16:50:38:203
-15.3005,-4.1231,-3.5462,11.2051,-3.9272,6.3728,2.439,5.3992,-0.1417,2563,2019-08-07 16:50:38:208
-15.3005,-4.1231,-3.5462,11.2051,-3.9272,6.3728,2.439,5.3992,-0.1417,2567,2019-08-07 16:50:38:212
-14.1666,-4.1708,-2.1509,9.935,-3.7609,6.0774,1.737,6.1396,-0.1779,2573,2019-08-07 16:50:38:218
-14.1666,-4.1708,-2.1509,9.935,-3.7609,6.0774,1.737,6.1396,-0.1779,2578,2019-08-07 16:50:38:223
-14.1666,-4.1708,-2.1509,9.935,-3.7609,6.0774,1.6922,6.5966,-0.1737,2584,2019-08-07 16:50:38:229
-13.937,-5.2593,-3.3529,9.935,-3.7609,6.0774,1.6922,6.5966,-0.1737,2588,2019-08-07 16:50:38:233
-13.937,-5.2593,-3.3529,9.935,-3.7609,6.0774,1.6922,6.5966,-0.1737,2592,2019-08-07 16:50:38:237
-14.382,-5.9085,-3.7866,9.1459,-2.001,7.2667,1.9191,7.7726,-0.1545,2598,2019-08-07 16:50:38:243
-14.382,-5.9085,-3.7866,9.1459,-2.001,7.2667,1.9191,7.7726,-0.1545,2603,2019-08-07 16:50:38:248
-14.382,-5.9085,-3.7866,9.1459,-2.001,7.2667,1.8755,8.6728,-0.1204,2608,2019-08-07 16:50:38:253
-17.7788,-5.5075,-0.256,9.1459,-2.001,7.2667,1.8755,8.6728,-0.1204,2613,2019-08-07 16:50:38:258
-17.7788,-5.5075,-0.256,13.3476,-2.2737,1.9196,1.8382,8.9775,-0.0778,2618,2019-08-07 16:50:38:263
-17.7788,-5.5075,-0.256,13.3476,-2.2737,1.9196,1.8382,8.9775,-0.0778,2622,2019-08-07 16:50:38:267
-22.52,-5.202,5.311,13.3476,-2.2737,1.9196,1.7412,8.3426,0.0138,2628,2019-08-07 16:50:38:273
-22.52,-5.202,5.311,13.3476,-2.2737,1.9196,1.7412,8.3426,0.0138,2633,2019-08-07 16:50:38:278
-22.52,-5.202,5.311,17.7843,-2.3642,-3.9434,1.492,7.0216,0.0266,2637,2019-08-07 16:50:38:282
-23.6491,-5.264,6.2019,17.7843,-2.3642,-3.9434,1.492,7.0216,0.0266,2643,2019-08-07 16:50:38:288
-23.6491,-5.264,6.2019,17.7843,-2.3642,-3.9434,1.492,7.0216,0.0266,2648,2019-08-07 16:50:38:293
-20.8025,-5.3691,5.8343,17.7843,-2.3642,-3.9434,1.0978,4.9763,-0.0416,2653,2019-08-07 16:50:38:298
-20.8025,-5.3691,5.8343,13.6851,-2.0652,-3.825,1.0978,4.9763,-0.0416,2657,2019-08-07 16:50:38:302
-20.8025,-5.3691,5.8343,13.6851,-2.0652,-3.825,0.9295,3.6416,-0.13,2663,2019-08-07 16:50:38:308
-16.8507,-5.3118,2.3508,13.6851,-2.0652,-3.825,0.9295,3.6416,-0.13,2667,2019-08-07 16:50:38:312
-16.8507,-5.3118,2.3508,13.6851,-2.0652,-3.825,1.1692,4.6461,-0.146,2673,2019-08-07 16:50:38:318
-12.698,-5.5123,2.6383,6.4246,-1.9025,-1.2594,1.1692,4.6461,-0.146,2678,2019-08-07 16:50:38:323
-12.698,-5.5123,2.6383,6.4246,-1.9025,-1.2594,1.4217,5.2618,-0.114,2682,2019-08-07 16:50:38:327
-12.698,-5.5123,2.6383,6.4246,-1.9025,-1.2594,1.4217,5.2618,-0.114,2688,2019-08-07 16:50:38:333
-12.698,-5.5123,2.6383,6.4246,-1.9025,-1.2594,1.4217,5.2618,-0.114,2693,2019-08-07 16:50:38:338
-14.4347,-5.011,2.808,8.6454,-2.3617,-2.867,1.5729,6.5934,0.0777,2698,2019-08-07 16:50:38:343
-14.4347,-5.011,2.808,8.6454,-2.3617,-2.867,1.5729,6.5934,0.0777,2703,2019-08-07 16:50:38:348
-18.2525,-4.9919,7.8329,8.6454,-2.3617,-2.867,1.8946,6.6381,0.2556,2708,2019-08-07 16:50:38:353
-18.2525,-4.9919,7.8329,8.6454,-2.3617,-2.867,1.8946,6.6381,0.2556,2713,2019-08-07 16:50:38:358
-18.2525,-4.9919,7.8329,12.453,-2.077,-9.0694,2.0544,5.738,0.3419,2717,2019-08-07 16:50:38:362
-19.0323,-5.2354,10.1851,12.453,-2.077,-9.0694,2.0544,5.738,0.3419,2723,2019-08-07 16:50:38:368
-19.0323,-5.2354,10.1851,12.453,-2.077,-9.0694,2.0864,4.2211,0.3505,2727,2019-08-07 16:50:38:372
-19.0323,-5.2354,10.1851,12.453,-2.077,-9.0694,2.0864,4.2211,0.3505,2732,2019-08-07 16:50:38:377
-18.6113,-5.2258,10.9063,10.7592,-2.0664,-10.9104,2.0864,4.2211,0.3622,2738,2019-08-07 16:50:38:383
-18.6113,-5.2258,10.9063,10.7592,-2.0664,-10.9104,2.1737,2.4527,0.3622,2743,2019-08-07 16:50:38:388
-14.8844,-5.3643,9.8127,8.1888,-1.8051,-9.7478,2.1737,2.4527,0.3622,2747,2019-08-07 16:50:38:392
-14.8844,-5.3643,9.8127,8.1888,-1.8051,-9.7478,2.2856,1.5984,0.3877,2753,2019-08-07 16:50:38:398
-14.8844,-5.3643,9.8127,8.1888,-1.8051,-9.7478,2.2856,1.5984,0.3877,2757,2019-08-07 16:50:38:402
-12.2375,-5.7606,8.0264,8.1888,-1.8051,-9.7478,2.3708,1.2064,0.376,2763,2019-08-07 16:50:38:408
-12.2375,-5.7606,8.0264,4.5368,-1.3509,-6.8849,2.3708,1.2064,0.376,2767,2019-08-07 16:50:38:412
-10.6731,-5.4885,6.5416,4.5368,-1.3509,-6.8849,2.5157,1.2926,0.3643,2773,2019-08-07 16:50:38:418
-10.6731,-5.4885,6.5416,4.5368,-1.3509,-6.8849,2.5157,1.2926,0.3643,2778,2019-08-07 16:50:38:423
-10.6731,-5.4885,6.5416,4.5368,-1.3509,-6.8849,2.6307,1.6687,0.3537,2783,2019-08-07 16:50:38:428
-10.1659,-4.5528,5.5328,3.3153,-2.4541,-5.0765,2.6307,1.6687,0.3537,2788,2019-08-07 16:50:38:433
-10.1659,-4.5528,5.5328,3.3153,-2.4541,-5.0765,2.6424,2.1299,0.3142,2793,2019-08-07 16:50:38:438
-10.1659,-4.5528,5.5328,3.3153,-2.4541,-5.0765,2.6424,2.1299,0.3142,2797,2019-08-07 16:50:38:442
-10.6252,-3.7222,4.6325,3.3153,-2.4541,-5.0765,2.5327,2.506,0.2642,2803,2019-08-07 16:50:38:448
-10.6252,-3.7222,4.6325,4.2055,-3.2944,-4.5264,2.5327,2.506,0.2642,2807,2019-08-07 16:50:38:452
-11.5246,-3.6315,5.3207,4.2055,-3.2944,-4.5264,2.406,2.5742,0.2194,2813,2019-08-07 16:50:38:458
-11.5246,-3.6315,5.3207,4.2055,-3.2944,-4.5264,2.406,2.5742,0.2194,2818,2019-08-07 16:50:38:463
-11.5246,-3.6315,5.3207,4.2055,-3.2944,-4.5264,2.3079,2.3217,0.1917,2823,2019-08-07 16:50:38:468
-12.5102,-3.7652,6.914,5.8166,-3.2145,-6.9127,2.3079,2.3217,0.1917,2827,2019-08-07 16:50:38:472
-12.5102,-3.7652,6.914,5.8166,-3.2145,-6.9127,2.1375,1.6367,0.1821,2833,2019-08-07 16:50:38:478
-14.0364,-3.1493,8.3375,5.8166,-3.2145,-6.9127,2.1375,1.6367,0.1821,2837,2019-08-07 16:50:38:482
-14.0364,-3.1493,8.3375,5.8166,-3.2145,-6.9127,2.1375,1.6367,0.1821,2843,2019-08-07 16:50:38:488
-14.0364,-3.1493,8.3375,6.8448,-3.7196,-8.1091,1.7924,0.5896,0.1864,2847,2019-08-07 16:50:38:492
-13.6728,-3.1064,8.5308,6.8448,-3.7196,-8.1091,1.7924,0.5896,0.1864,2853,2019-08-07 16:50:38:498
-13.6728,-3.1064,8.5308,6.8448,-3.7196,-8.1091,1.1947,-1.019,0.1715,2858,2019-08-07 16:50:38:503
-13.6728,-3.1064,8.5308,6.8448,-3.7196,-8.1091,1.1947,-1.019,0.1715,2862,2019-08-07 16:50:38:507
-10.8405,-4.0516,7.5692,2.1838,-2.1832,-5.7941,0.775,-1.8946,0.1427,2868,2019-08-07 16:50:38:513
-10.8405,-4.0516,7.5692,2.1838,-2.1832,-5.7941,0.775,-1.8946,0.1427,2873,2019-08-07 16:50:38:518
-6.8504,-5.1543,5.3961,2.1838,-2.1832,-5.7941,0.5066,-2.0757,0.066,2878,2019-08-07 16:50:38:523
-6.8504,-5.1543,5.3961,2.1838,-2.1832,-5.7941,0.5066,-2.0757,0.066,2884,2019-08-07 16:50:38:529
-6.8504,-5.1543,5.3961,-3.2488,-0.7873,-1.552,0.1795,-1.5356,-0.0671,2888,2019-08-07 16:50:38:533
-3.2622,-6.0566,2.6056,-3.2488,-0.7873,-1.552,0.1795,-1.5356,-0.0671,2893,2019-08-07 16:50:38:538
-3.2622,-6.0566,2.6056,-3.2488,-0.7873,-1.552,0.1795,-1.5356,-0.0671,2898,2019-08-07 16:50:38:543
-2.0853,-6.8443,1.8655,-3.2488,-0.7873,-1.552,-0.0442,-0.6078,-0.1513,2903,2019-08-07 16:50:38:548
-2.0853,-6.8443,1.8655,-3.2488,-0.7873,-1.552,-0.0442,-0.6078,-0.1513,2908,2019-08-07 16:50:38:553
-2.0853,-6.8443,1.8655,-4.682,0.3728,-0.1013,-0.1347,0.4894,-0.244,2913,2019-08-07 16:50:38:558
-2.913,-7.2644,1.6722,-4.682,0.3728,-0.1013,-0.1347,0.4894,-0.244,2917,2019-08-07 16:50:38:562
-2.913,-7.2644,1.6722,-4.682,0.3728,-0.1013,-0.1539,1.6389,-0.3249,2924,2019-08-07 16:50:38:569
-5.5443,-6.9589,2.384,-4.682,0.3728,-0.1013,-0.1539,1.6389,-0.3249,2928,2019-08-07 16:50:38:573
-5.5443,-6.9589,2.384,-0.73,-0.0081,-1.3468,-0.1475,1.9286,-0.343,2934,2019-08-07 16:50:38:579
-5.5443,-6.9589,2.384,-0.73,-0.0081,-1.3468,-0.1475,1.9286,-0.343,2938,2019-08-07 16:50:38:583
-9.4865,-5.88,3.7227,-0.73,-0.0081,-1.3468,-0.1475,1.9286,-0.343,2943,2019-08-07 16:50:38:588
-9.4865,-5.88,3.7227,3.9803,-1.3677,-3.5243,-0.1517,1.4769,-0.277,2949,2019-08-07 16:50:38:594
-9.4865,-5.88,3.7227,3.9803,-1.3677,-3.5243,-0.1517,1.4769,-0.277,2952,2019-08-07 16:50:38:597
-11.7255,-5.1973,4.9342,3.9803,-1.3677,-3.5243,-0.1336,0.2178,-0.1481,2958,2019-08-07 16:50:38:603
-11.7255,-5.1973,4.9342,3.9803,-1.3677,-3.5243,-0.1336,0.2178,-0.1481,2963,2019-08-07 16:50:38:608
-11.7255,-5.1973,4.9342,3.9803,-1.3677,-3.5243,-0.1539,-1.0009,-0.0224,2968,2019-08-07 16:50:38:613
-10.6874,-5.0446,3.3739,3.7129,-1.7704,-2.3018,-0.1539,-1.0009,-0.0224,2973,2019-08-07 16:50:38:618
-10.6874,-5.0446,3.3739,3.7129,-1.7704,-2.3018,-0.1794,-1.8925,0.0596,2977,2019-08-07 16:50:38:622
-8.5057,-5.4456,1.4224,1.5406,-1.3617,-0.2455,-0.1794,-1.8925,0.0596,2983,2019-08-07 16:50:38:628
-8.5057,-5.4456,1.4224,1.5406,-1.3617,-0.2455,-0.1517,-2.0352,0.082,2988,2019-08-07 16:50:38:633
-8.5057,-5.4456,1.4224,1.5406,-1.3617,-0.2455,-0.1517,-2.0352,0.082,2993,2019-08-07 16:50:38:638
-5.1424,-6.2714,-0.4961,1.5406,-1.3617,-0.2455,-0.0772,-1.6794,0.0501,2998,2019-08-07 16:50:38:643
-5.1424,-6.2714,-0.4961,-2.4458,-0.3793,2.4492,-0.0772,-1.6794,0.0501,3002,2019-08-07 16:50:38:647
-3.9511,-6.5197,-1.4813,-2.4458,-0.3793,2.4492,-0.0772,-1.6794,0.0501,3008,2019-08-07 16:50:38:653
-3.9511,-6.5197,-1.4813,-2.9499,-0.2668,3.0597,0.008,-0.7644,-0.0043,3013,2019-08-07 16:50:38:658
-3.9511,-6.5197,-1.4813,-2.9499,-0.2668,3.0597,0.008,-0.7644,-0.0043,3017,2019-08-07 16:50:38:662
-3.9416,-6.5197,-1.4719,-2.9499,-0.2668,3.0597,0.008,-0.7644,-0.0043,3023,2019-08-07 16:50:38:668
-3.9416,-6.5197,-1.4719,-2.9499,-0.2668,3.0597,0.0943,0.3882,-0.0469,3028,2019-08-07 16:50:38:673
-5.6113,-6.2619,-0.3359,-1.5771,-0.5015,1.9954,0.0943,0.3882,-0.0469,3033,2019-08-07 16:50:38:678
-5.6113,-6.2619,-0.3359,-1.5771,-0.5015,1.9954,0.1487,0.9262,-0.0788,3038,2019-08-07 16:50:38:683
-5.6113,-6.2619,-0.3359,-1.5771,-0.5015,1.9954,0.1487,0.9262,-0.0788,3044,2019-08-07 16:50:38:689
-7.0274,-5.8561,0.5881,-1.5771,-0.5015,1.9954,0.1508,0.972,-0.0778,3048,2019-08-07 16:50:38:693
-7.0274,-5.8561,0.5881,0.6051,-1.1463,0.501,0.1508,0.972,-0.0778,3052,2019-08-07 16:50:38:697
-7.0274,-5.8561,0.5881,0.6051,-1.1463,0.501,0.1508,0.972,-0.0778,3058,2019-08-07 16:50:38:703
-8.1278,-5.5792,1.3847,0.6051,-1.1463,0.501,0.1199,0.7685,-0.0479,3062,2019-08-07 16:50:38:707
-8.1278,-5.5792,1.3847,0.6051,-1.1463,0.501,0.1199,0.7685,-0.0479,3068,2019-08-07 16:50:38:713
-8.721,-5.584,1.9598,1.769,-1.2677,-0.7428,0.0709,0.2221,-0.0043,3072,2019-08-07 16:50:38:717
-8.721,-5.584,1.9598,1.769,-1.2677,-0.7428,0.0709,0.2221,-0.0043,3078,2019-08-07 16:50:38:723
-8.721,-5.584,1.9598,1.769,-1.2677,-0.7428,0.0304,-0.3031,0.0469,3083,2019-08-07 16:50:38:728
-8.0751,-5.8609,1.6157,1.769,-1.2677,-0.7428,0.0304,-0.3031,0.0469,3087,2019-08-07 16:50:38:732
-8.0751,-5.8609,1.6157,0.5261,-0.8649,-0.006,6.0E-4,-0.6877,0.0884,3093,2019-08-07 16:50:38:738
-8.0751,-5.8609,1.6157,0.5261,-0.8649,-0.006,6.0E-4,-0.6877,0.0884,3098,2019-08-07 16:50:38:743
-6.5107,-6.2332,0.8567,0.5261,-0.8649,-0.006,6.0E-4,-0.7612,0.1054,3103,2019-08-07 16:50:38:748
-6.5107,-6.2332,0.8567,0.5261,-0.8649,-0.006,6.0E-4,-0.7612,0.1054,3107,2019-08-07 16:50:38:752
-5.2668,-6.5244,0.2817,-1.6627,-0.2701,1.1511,0.0187,-0.5439,0.0895,3113,2019-08-07 16:50:38:758
-5.2668,-6.5244,0.2817,-1.6627,-0.2701,1.1511,0.0187,-0.5439,0.0895,3118,2019-08-07 16:50:38:763
-4.9893,-6.6772,0.112,-1.6627,-0.2701,1.1511,0.04,-0.0688,0.0554,3123,2019-08-07 16:50:38:768
-4.9893,-6.6772,0.112,-1.6627,-0.2701,1.1511,0.04,-0.0688,0.0554,3127,2019-08-07 16:50:38:772
-4.9893,-6.6772,0.112,-1.6872,-0.0162,1.0909,0.0634,0.2316,0.0362,3133,2019-08-07 16:50:38:778
-5.4725,-6.7966,0.6069,-1.6872,-0.0162,1.0909,0.0634,0.2316,0.0362,3138,2019-08-07 16:50:38:783
-5.4725,-6.7966,0.6069,-1.6872,-0.0162,1.0909,0.1199,0.5992,0.0074,3144,2019-08-07 16:50:38:789
-5.4725,-6.7966,0.6069,-1.6872,-0.0162,1.0909,0.1199,0.5992,0.0074,3148,2019-08-07 16:50:38:793
-6.4915,-6.7106,1.083,-0.2983,-0.1204,0.1506,0.1199,0.5992,0.0074,3152,2019-08-07 16:50:38:797
-6.4915,-6.7106,1.083,-0.2983,-0.1204,0.1506,0.1433,0.6897,0.0011,3158,2019-08-07 16:50:38:803
-7.257,-6.5913,1.6675,-0.2983,-0.1204,0.1506,0.1455,0.5896,-0.0032,3164,2019-08-07 16:50:38:809
-7.257,-6.5913,1.6675,-0.2983,-0.1204,0.1506,0.1455,0.5896,-0.0032,3168,2019-08-07 16:50:38:813
-7.257,-6.5913,1.6675,0.8019,-0.3763,-0.631,0.1455,0.5896,-0.0032,3173,2019-08-07 16:50:38:818
-7.8837,-6.4146,2.0729,0.8019,-0.3763,-0.631,0.1337,0.3616,0.0021,3178,2019-08-07 16:50:38:823
-7.8837,-6.4146,2.0729,0.8019,-0.3763,-0.631,0.1337,0.3616,0.0021,3183,2019-08-07 16:50:38:828
-8.1229,-6.4433,2.2285,0.8019,-0.3763,-0.631,0.122,-0.0166,0.0256,3188,2019-08-07 16:50:38:833
-8.1229,-6.4433,2.2285,1.0295,-0.2883,-0.906,0.122,-0.0166,0.0256,3193,2019-08-07 16:50:38:838
-8.1229,-6.4433,2.2285,1.0295,-0.2883,-0.906,0.1156,-0.3287,0.0362,3198,2019-08-07 16:50:38:843
-7.7689,-6.5388,2.2945,1.0295,-0.2883,-0.906,0.1156,-0.3287,0.0362,3203,2019-08-07 16:50:38:848
-7.7689,-6.5388,2.2945,1.0295,-0.2883,-0.906,0.1156,-0.3287,0.0362,3207,2019-08-07 16:50:38:852
-7.1469,-6.5913,1.9032,0.1807,-0.1702,-0.4927,0.1284,-0.5673,0.0533,3213,2019-08-07 16:50:38:858
-7.1469,-6.5913,1.9032,0.1807,-0.1702,-0.4927,0.1284,-0.5673,0.0533,3218,2019-08-07 16:50:38:863
-7.1469,-6.5913,1.9032,0.1807,-0.1702,-0.4927,0.1316,-0.611,0.0351,3223,2019-08-07 16:50:38:868
-6.6494,-6.5579,1.5261,0.1807,-0.1702,-0.4927,0.1316,-0.611,0.0351,3228,2019-08-07 16:50:38:873
-6.6494,-6.5579,1.5261,-0.5521,-0.1,0.0856,0.1188,-0.546,0.0181,3233,2019-08-07 16:50:38:878
-6.1853,-6.6772,1.3423,-0.5521,-0.1,0.0856,0.1188,-0.546,0.0181,3237,2019-08-07 16:50:38:882
-6.1853,-6.6772,1.3423,-0.5521,-0.1,0.0856,0.1188,-0.3457,-0.0171,3243,2019-08-07 16:50:38:888
-6.1853,-6.6772,1.3423,-0.5521,-0.1,0.0856,0.1188,-0.3457,-0.0171,3247,2019-08-07 16:50:38:892
-5.9987,-6.7202,1.314,-0.9565,-0.0494,0.2225,0.1295,-0.1156,-0.0554,3253,2019-08-07 16:50:38:898
-5.9987,-6.7202,1.314,-0.9565,-0.0494,0.2225,0.1295,-0.1156,-0.0554,3258,2019-08-07 16:50:38:903
-6.104,-6.7059,1.4554,-0.9565,-0.0494,0.2225,0.1295,-0.1156,-0.0554,3263,2019-08-07 16:50:38:908
-6.104,-6.7059,1.4554,-0.9565,-0.0494,0.2225,0.1348,0.1059,-0.0959,3268,2019-08-07 16:50:38:913
-6.104,-6.7059,1.4554,-0.5275,-0.175,-0.0375,0.1263,0.2583,-0.1225,3273,2019-08-07 16:50:38:918
-6.4771,-6.5101,1.6675,-0.5275,-0.175,-0.0375,0.1263,0.2583,-0.1225,3278,2019-08-07 16:50:38:923
-6.4771,-6.5101,1.6675,-0.5275,-0.175,-0.0375,0.1263,0.2583,-0.1225,3283,2019-08-07 16:50:38:928
-6.9125,-6.4576,1.9362,-0.5275,-0.175,-0.0375,0.1114,0.3158,-0.131,3288,2019-08-07 16:50:38:933
-6.9125,-6.4576,1.9362,-0.5275,-0.175,-0.0375,0.1114,0.3158,-0.131,3293,2019-08-07 16:50:38:938
-6.9125,-6.4576,1.9362,0.1788,-0.3174,-0.5089,0.0879,0.2593,-0.1257,3298,2019-08-07 16:50:38:943
-7.2569,-6.4242,2.2238,0.1788,-0.3174,-0.5089,0.0879,0.2593,-0.1257,3302,2019-08-07 16:50:38:947
-7.2569,-6.4242,2.2238,0.1788,-0.3174,-0.5089,0.0698,0.1134,-0.1108,3308,2019-08-07 16:50:38:953
-7.2569,-6.4242,2.2238,0.1788,-0.3174,-0.5089,0.0698,0.1134,-0.1108,3312,2019-08-07 16:50:38:957
-7.3096,-6.4576,2.1436,0.4035,-0.3324,-0.5823,0.0624,-0.0879,-0.097,3318,2019-08-07 16:50:38:963
-7.3096,-6.4576,2.1436,0.4035,-0.3324,-0.5823,0.0624,-0.0879,-0.097,3322,2019-08-07 16:50:38:967
-7.1134,-6.3812,2.1719,0.4035,-0.3324,-0.5823,0.0666,-0.3191,-0.0725,3328,2019-08-07 16:50:38:973
-7.1134,-6.3812,2.1719,0.4035,-0.3324,-0.5823,0.0666,-0.3191,-0.0725,3333,2019-08-07 16:50:38:978
-7.1134,-6.3812,2.1719,0.0805,-0.4813,-0.2986,0.0677,-0.4555,-0.0501,3337,2019-08-07 16:50:38:982
-6.8168,-6.2953,1.8089,0.0805,-0.4813,-0.2986,0.0677,-0.4555,-0.0501,3343,2019-08-07 16:50:38:988
-6.8168,-6.2953,1.8089,0.0805,-0.4813,-0.2986,0.0624,-0.5183,-0.0288,3348,2019-08-07 16:50:38:993
-6.4053,-6.343,1.5261,0.0805,-0.4813,-0.2986,0.0624,-0.5183,-0.0288,3353,2019-08-07 16:50:38:998
-6.4053,-6.343,1.5261,-0.5396,-0.4884,0.2085,0.0624,-0.5013,-0.0203,3357,2019-08-07 16:50:39:002
-6.4053,-6.343,1.5261,-0.5396,-0.4884,0.2085,0.0624,-0.5013,-0.0203,3363,2019-08-07 16:50:39:008
-6.0896,-6.3144,1.4036,-0.5396,-0.4884,0.2085,0.0741,-0.4043,-0.0171,3368,2019-08-07 16:50:39:013
-6.0896,-6.3144,1.4036,-0.5396,-0.4884,0.2085,0.0741,-0.4043,-0.0171,3373,2019-08-07 16:50:39:018
-5.903,-6.3812,1.2009,-0.8795,-0.4329,0.5174,0.0752,-0.2594,-0.0171,3378,2019-08-07 16:50:39:023
-5.903,-6.3812,1.2009,-0.8795,-0.4329,0.5174,0.0752,-0.2594,-0.0171,3382,2019-08-07 16:50:39:027
-5.903,-6.3812,1.2009,-0.8795,-0.4329,0.5174,0.0752,-0.2594,-0.0171,3388,2019-08-07 16:50:39:033
-5.903,-6.3717,1.2904,-0.8795,-0.4329,0.5174,0.0677,-0.0613,-0.0128,3393,2019-08-07 16:50:39:038
-5.903,-6.3717,1.2904,-0.884,-0.4113,0.4994,0.0677,-0.0613,-0.0128,3398,2019-08-07 16:50:39:043
-6.0896,-6.4003,1.3706,-0.884,-0.4113,0.4994,0.0752,0.0942,-0.0096,3403,2019-08-07 16:50:39:048
-6.0896,-6.4003,1.3706,-0.884,-0.4113,0.4994,0.0752,0.0942,-0.0096,3407,2019-08-07 16:50:39:052
-6.0896,-6.4003,1.3706,-0.884,-0.4113,0.4994,0.0805,0.1784,0.0021,3413,2019-08-07 16:50:39:058
-6.501,-6.2953,1.4978,-0.3419,-0.5056,0.2792,0.0805,0.1784,0.0021,3418,2019-08-07 16:50:39:063
-6.501,-6.2953,1.4978,-0.3419,-0.5056,0.2792,0.0773,0.1944,0.0309,3423,2019-08-07 16:50:39:068
-6.7593,-6.2762,1.7288,-0.3419,-0.5056,0.2792,0.0773,0.1944,0.0309,3428,2019-08-07 16:50:39:073
-6.7593,-6.2762,1.7288,-0.3419,-0.5056,0.2792,0.0805,0.1422,0.0596,3433,2019-08-07 16:50:39:078
-6.7593,-6.2762,1.7288,0.0989,-0.5811,-0.1203,0.0805,0.1422,0.0596,3437,2019-08-07 16:50:39:082
-6.9842,-6.2189,1.9268,0.0989,-0.5811,-0.1203,0.0826,0.0442,0.0895,3443,2019-08-07 16:50:39:088
-6.9842,-6.2189,1.9268,0.0989,-0.5811,-0.1203,0.0826,0.0442,0.0895,3448,2019-08-07 16:50:39:093
-7.1564,-6.0423,1.9692,0.0989,-0.5811,-0.1203,0.0826,-0.0783,0.114,3453,2019-08-07 16:50:39:098
-7.1564,-6.0423,1.9692,0.2498,-0.723,-0.2102,0.0826,-0.0783,0.114,3457,2019-08-07 16:50:39:102
-7.1564,-6.0423,1.9692,0.2498,-0.723,-0.2102,0.0677,-0.2072,0.1385,3463,2019-08-07 16:50:39:108
-6.9651,-6.0328,1.7571,0.2498,-0.723,-0.2102,0.0677,-0.2072,0.1385,3468,2019-08-07 16:50:39:113
-6.9651,-6.0328,1.7571,0.2498,-0.723,-0.2102,0.0634,-0.2712,0.1459,3473,2019-08-07 16:50:39:118
-6.9651,-6.0328,1.7571,-0.1137,-0.6163,0.1756,0.0634,-0.2712,0.1459,3477,2019-08-07 16:50:39:122
-6.7019,-6.1807,1.644,-0.1137,-0.6163,0.1756,0.0602,-0.2967,0.1427,3483,2019-08-07 16:50:39:128
-6.7019,-6.1807,1.644,-0.1137,-0.6163,0.1756,0.0602,-0.2967,0.1427,3488,2019-08-07 16:50:39:133
-6.4292,-6.2046,1.5686,-0.1137,-0.6163,0.1756,0.0656,-0.2509,0.13,3492,2019-08-07 16:50:39:137
-6.4292,-6.2046,1.5686,-0.6013,-0.494,0.3445,0.0656,-0.2509,0.13,3498,2019-08-07 16:50:39:143
-6.4292,-6.2046,1.5686,-0.6013,-0.494,0.3445,0.072,-0.1465,0.1076,3503,2019-08-07 16:50:39:148
-6.1804,-6.2046,1.4696,-0.6013,-0.494,0.3445,0.072,-0.1465,0.1076,3507,2019-08-07 16:50:39:152
-6.1804,-6.2046,1.4696,-0.6013,-0.494,0.3445,0.0773,-0.0016,0.0884,3513,2019-08-07 16:50:39:158
-6.2426,-6.1521,1.5073,-0.7068,-0.5546,0.4407,0.0773,-0.0016,0.0884,3518,2019-08-07 16:50:39:163
-6.2426,-6.1521,1.5073,-0.7068,-0.5546,0.4407,0.0773,-0.0016,0.0884,3523,2019-08-07 16:50:39:168
-6.2426,-6.1521,1.5073,-0.7068,-0.5546,0.4407,0.0709,0.1613,0.0788,3527,2019-08-07 16:50:39:172
-6.4196,-6.1569,1.5497,-0.7068,-0.5546,0.4407,0.0677,0.2348,0.0778,3533,2019-08-07 16:50:39:178
-6.4196,-6.1569,1.5497,-0.3274,-0.5455,0.227,0.0677,0.2348,0.0778,3538,2019-08-07 16:50:39:183
-6.7402,-6.1473,1.7005,-0.3274,-0.5455,0.227,0.0677,0.2348,0.0778,3543,2019-08-07 16:50:39:188
-6.7402,-6.1473,1.7005,-0.056,-0.5236,0.1002,0.0624,0.2498,0.082,3548,2019-08-07 16:50:39:193
-6.7402,-6.1473,1.7005,-0.056,-0.5236,0.1002,0.0624,0.2498,0.082,3553,2019-08-07 16:50:39:198
-7.0272,-6.0996,1.842,-0.056,-0.5236,0.1002,0.0613,0.1826,0.0959,3558,2019-08-07 16:50:39:203
-7.0272,-6.0996,1.842,-0.056,-0.5236,0.1002,0.0613,0.1826,0.0959,3564,2019-08-07 16:50:39:209
-7.1229,-6.1091,1.9787,0.166,-0.5573,-0.1358,0.0592,0.0804,0.1054,3568,2019-08-07 16:50:39:213
-7.1229,-6.1091,1.9787,0.166,-0.5573,-0.1358,0.0592,0.0804,0.1054,3572,2019-08-07 16:50:39:217
-7.1229,-6.1091,1.9787,0.166,-0.5573,-0.1358,0.0645,-0.0336,0.1086,3578,2019-08-07 16:50:39:223
-6.9937,-6.1282,1.7948,0.166,-0.5573,-0.1358,0.0645,-0.0336,0.1086,3582,2019-08-07 16:50:39:227
-6.9937,-6.1282,1.7948,-0.1363,-0.5037,0.1247,0.0602,-0.1305,0.1097,3588,2019-08-07 16:50:39:233
-6.7545,-6.2094,1.6298,-0.1363,-0.5037,0.1247,0.0602,-0.1305,0.1097,3593,2019-08-07 16:50:39:238
-6.7545,-6.2094,1.6298,-0.1363,-0.5037,0.1247,0.0613,-0.1668,0.115,3598,2019-08-07 16:50:39:243
-6.7545,-6.2094,1.6298,-0.1363,-0.5037,0.1247,0.0613,-0.1668,0.115,3602,2019-08-07 16:50:39:247
-6.4244,-6.2237,1.413,-0.1363,-0.5037,0.1247,0.0666,-0.138,0.1129,3608,2019-08-07 16:50:39:253
-6.4244,-6.2237,1.413,-0.6199,-0.3658,0.4831,0.0666,-0.138,0.1129,3613,2019-08-07 16:50:39:258
-6.2091,-6.2571,1.3517,-0.6199,-0.3658,0.4831,0.073,-0.0464,0.1012,3618,2019-08-07 16:50:39:263
-6.2091,-6.2571,1.3517,-0.6199,-0.3658,0.4831,0.073,-0.0464,0.1012,3622,2019-08-07 16:50:39:267
-6.2091,-6.2571,1.3517,-0.7362,-0.3037,0.6531,0.073,0.0782,0.0873,3628,2019-08-07 16:50:39:273
-6.2904,-6.3049,1.2575,-0.7362,-0.3037,0.6531,0.073,0.0782,0.0873,3633,2019-08-07 16:50:39:278
-6.2904,-6.3049,1.2575,-0.7362,-0.3037,0.6531,0.0741,0.1997,0.0927,3637,2019-08-07 16:50:39:282
-6.4674,-6.324,1.38,-0.7362,-0.3037,0.6531,0.0741,0.1997,0.0927,3643,2019-08-07 16:50:39:288
-6.4674,-6.324,1.38,-0.7362,-0.3037,0.6531,0.0794,0.2828,0.0905,3648,2019-08-07 16:50:39:293
-6.4674,-6.324,1.38,-0.3871,-0.2561,0.3763,0.0794,0.2828,0.0905,3653,2019-08-07 16:50:39:298
-6.8789,-6.2476,1.5591,-0.3871,-0.2561,0.3763,0.0901,0.3041,0.1023,3658,2019-08-07 16:50:39:303
-6.8789,-6.2476,1.5591,-0.3871,-0.2561,0.3763,0.0901,0.3041,0.1023,3663,2019-08-07 16:50:39:308
-7.0272,-6.2905,1.7147,-0.0114,-0.2897,0.1276,0.1018,0.2838,0.114,3668,2019-08-07 16:50:39:313
-7.0272,-6.2905,1.7147,-0.0114,-0.2897,0.1276,0.1018,0.2838,0.114,3673,2019-08-07 16:50:39:318
-7.0272,-6.2905,1.7147,-0.0114,-0.2897,0.1276,0.1114,0.2455,0.115,3678,2019-08-07 16:50:39:323
-7.0655,-6.1282,1.6958,-0.0114,-0.2897,0.1276,0.1114,0.2455,0.115,3683,2019-08-07 16:50:39:328
-7.0655,-6.1282,1.6958,-0.0114,-0.2897,0.1276,0.1156,0.1954,0.1161,3687,2019-08-07 16:50:39:332
-7.0655,-6.1282,1.6958,0.063,-0.3962,0.1454,0.1156,0.1954,0.1161,3693,2019-08-07 16:50:39:338
-7.1803,-6.133,1.7524,0.063,-0.3962,0.1454,0.1199,0.1507,0.1172,3698,2019-08-07 16:50:39:343
-7.1803,-6.133,1.7524,0.063,-0.3962,0.1454,0.1199,0.1507,0.1172,3702,2019-08-07 16:50:39:347
-7.2616,-6.2237,1.8373,0.063,-0.3962,0.1454,0.1199,0.1507,0.1172,3708,2019-08-07 16:50:39:353
-7.2616,-6.2237,1.8373,0.1555,-0.3066,-0.0482,0.1167,0.0921,0.1023,3713,2019-08-07 16:50:39:358
-7.2616,-6.2237,1.8373,0.1555,-0.3066,-0.0482,0.1167,0.0921,0.1023,3718,2019-08-07 16:50:39:363
-7.1468,-6.2524,1.8608,0.1555,-0.3066,-0.0482,0.1082,0.0569,0.0969,3722,2019-08-07 16:50:39:367
-7.1468,-6.2524,1.8608,0.1555,-0.3066,-0.0482,0.1082,0.0569,0.0969,3728,2019-08-07 16:50:39:373
-7.0702,-6.3574,1.7241,-0.0713,-0.13,0.1029,0.0965,0.0591,0.0778,3732,2019-08-07 16:50:39:377
-7.0702,-6.3574,1.7241,-0.0713,-0.13,0.1029,0.0965,0.0591,0.0778,3738,2019-08-07 16:50:39:383
-7.0702,-6.3574,1.7241,-0.0713,-0.13,0.1029,0.0879,0.091,0.0628,3743,2019-08-07 16:50:39:388
-7.008,-6.3669,1.8325,-0.0713,-0.13,0.1029,0.0879,0.091,0.0628,3748,2019-08-07 16:50:39:393
-7.008,-6.3669,1.8325,-0.0832,-0.1125,0.0028,0.0805,0.1379,0.0501,3752,2019-08-07 16:50:39:397
-7.1038,-6.3908,1.8184,-0.0832,-0.1125,0.0028,0.0805,0.1379,0.0501,3758,2019-08-07 16:50:39:403
-7.1038,-6.3908,1.8184,-0.0832,-0.1125,0.0028,0.0762,0.1699,0.0351,3763,2019-08-07 16:50:39:408
-7.1038,-6.3908,1.8184,-0.0832,-0.1125,0.0028,0.0762,0.1699,0.0351,3768,2019-08-07 16:50:39:413
-7.2139,-6.3574,1.8467,0.0871,-0.1369,-0.0385,0.0783,0.1741,0.0245,3773,2019-08-07 16:50:39:418
-7.2139,-6.3574,1.8467,0.0871,-0.1369,-0.0385,0.0783,0.1741,0.0245,3778,2019-08-07 16:50:39:423
-7.3287,-6.2571,1.9362,0.0871,-0.1369,-0.0385,0.0805,0.1432,0.016,3783,2019-08-07 16:50:39:428
-7.3287,-6.2571,1.9362,0.0871,-0.1369,-0.0385,0.0805,0.1432,0.016,3788,2019-08-07 16:50:39:433
-7.3287,-6.2571,1.9362,0.1976,-0.1536,-0.1052,0.0815,0.0964,0.0128,3793,2019-08-07 16:50:39:438
-7.3191,-6.2237,1.9362,0.1976,-0.1536,-0.1052,0.0815,0.0964,0.0128,3797,2019-08-07 16:50:39:442
-7.3191,-6.2237,1.9362,0.1976,-0.1536,-0.1052,0.089,0.0623,0.0042,3802,2019-08-07 16:50:39:447
-7.3191,-6.2237,1.9362,0.1976,-0.1536,-0.1052,0.089,0.0623,0.0042,3808,2019-08-07 16:50:39:453
-7.3287,-6.1091,1.9692,0.1882,-0.372,-0.1679,0.0922,0.0239,-0.0107,3813,2019-08-07 16:50:39:458
-7.3287,-6.1091,1.9692,0.1882,-0.372,-0.1679,0.0922,0.0239,-0.0107,3818,2019-08-07 16:50:39:463
-7.3287,-6.1091,1.9692,0.1882,-0.372,-0.1679,0.0815,-0.0123,-0.0224,3823,2019-08-07 16:50:39:468
-7.3239,-6.0423,1.8844,0.1882,-0.372,-0.1679,0.0815,-0.0123,-0.0224,3828,2019-08-07 16:50:39:473
-7.3239,-6.0423,1.8844,0.0975,-0.4786,-0.0659,0.0794,-0.0155,-0.0405,3833,2019-08-07 16:50:39:478
-7.3239,-6.0423,1.8844,0.0975,-0.4786,-0.0659,0.0794,-0.0155,-0.0405,3837,2019-08-07 16:50:39:482
-7.1947,-6.0614,1.8184,-0.0058,-0.4551,-0.0029,0.0794,-0.0155,-0.0405,3843,2019-08-07 16:50:39:488
-7.1947,-6.0614,1.8184,-0.0058,-0.4551,-0.0029,0.0773,0.009,-0.0607,3847,2019-08-07 16:50:39:492
-7.1038,-6.0709,1.7477,-0.0058,-0.4551,-0.0029,0.0773,0.009,-0.0607,3853,2019-08-07 16:50:39:498
-7.1038,-6.0709,1.7477,-0.0058,-0.4551,-0.0029,0.0624,0.0505,-0.0916,3857,2019-08-07 16:50:39:502
-7.1038,-6.0709,1.7477,0.0491,-0.3851,0.0304,0.0624,0.0505,-0.0916,3863,2019-08-07 16:50:39:508
-7.1899,-6.0232,1.8608,0.0491,-0.3851,0.0304,0.0475,0.0431,-0.1055,3868,2019-08-07 16:50:39:513
-7.1899,-6.0232,1.8608,0.0491,-0.3851,0.0304,0.0475,0.0431,-0.1055,3873,2019-08-07 16:50:39:518
-7.1947,-6.0423,1.9127,0.0491,-0.3851,0.0304,0.0475,0.0431,-0.1055,3878,2019-08-07 16:50:39:523
-7.1947,-6.0423,1.9127,0.0115,-0.4675,-0.006,0.0507,0.0303,-0.1055,3883,2019-08-07 16:50:39:528
-7.1038,-6.0375,1.776,0.0115,-0.4675,-0.006,0.0507,0.0303,-0.1055,3888,2019-08-07 16:50:39:533
-7.1038,-6.0375,1.776,0.0115,-0.4675,-0.006,0.0421,-0.0091,-0.1087,3893,2019-08-07 16:50:39:538
-7.1038,-6.0375,1.776,0.0115,-0.4675,-0.006,0.0421,-0.0091,-0.1087,3898,2019-08-07 16:50:39:543
-6.9076,-6.0184,1.7665,-0.2,-0.4895,0.0676,0.0347,-0.0602,-0.1033,3902,2019-08-07 16:50:39:547
-6.9076,-6.0184,1.7665,-0.2,-0.4895,0.0676,0.0347,-0.0602,-0.1033,3908,2019-08-07 16:50:39:553
-6.9076,-6.0184,1.7665,-0.2,-0.4895,0.0676,0.0411,-0.0954,-0.0842,3912,2019-08-07 16:50:39:557
-6.8072,-5.9039,1.7335,-0.2,-0.4895,0.0676,0.0411,-0.0954,-0.0842,3918,2019-08-07 16:50:39:563
-6.8072,-5.9039,1.7335,-0.4495,-0.5565,0.1379,0.0411,-0.0954,-0.0842,3922,2019-08-07 16:50:39:567
-6.5679,-5.9086,1.6628,-0.4495,-0.5565,0.1379,0.0379,-0.1252,-0.0533,3928,2019-08-07 16:50:39:573
-6.5679,-5.9086,1.6628,-0.4495,-0.5565,0.1379,0.0379,-0.1252,-0.0533,3933,2019-08-07 16:50:39:578
-6.5679,-5.9086,1.6628,-0.4495,-0.5565,0.1379,0.0315,-0.1263,-0.0224,3937,2019-08-07 16:50:39:582
-6.3861,-5.8513,1.5874,-0.7557,-0.6941,0.2877,0.0315,-0.1263,-0.0224,3943,2019-08-07 16:50:39:588
-6.3861,-5.8513,1.5874,-0.7557,-0.6941,0.2877,0.0293,-0.0805,-0.0053,3948,2019-08-07 16:50:39:593
-6.3144,-5.8513,1.5874,-0.7557,-0.6941,0.2877,0.0293,-0.0805,-0.0053,3952,2019-08-07 16:50:39:597
-6.3144,-5.8513,1.5874,-0.7557,-0.6941,0.2877,0.0283,-0.0176,0.0149,3958,2019-08-07 16:50:39:603
-6.3144,-5.8513,1.5874,-0.6967,-0.6927,0.407,0.0283,-0.0176,0.0149,3964,2019-08-07 16:50:39:609
-6.4005,-5.7893,1.4931,-0.6967,-0.6927,0.407,0.0283,-0.0176,0.0149,3968,2019-08-07 16:50:39:613
-6.4005,-5.7893,1.4931,-0.6967,-0.6927,0.407,0.0198,0.0814,0.0373,3972,2019-08-07 16:50:39:617
-6.6541,-5.6986,1.545,-0.6967,-0.6927,0.407,0.0198,0.0814,0.0373,3978,2019-08-07 16:50:39:623
-6.6541,-5.6986,1.545,-0.3472,-0.7813,0.24,0.0144,0.139,0.0415,3982,2019-08-07 16:50:39:627
-6.6541,-5.6986,1.545,-0.3472,-0.7813,0.24,0.0144,0.139,0.0415,3988,2019-08-07 16:50:39:633
-6.8263,-5.7941,1.6817,-0.3472,-0.7813,0.24,0.0144,0.1507,0.0586,3994,2019-08-07 16:50:39:639
-6.8263,-5.7941,1.6817,-0.3472,-0.7813,0.24,0.0144,0.1507,0.0586,3999,2019-08-07 16:50:39:644
-6.8263,-5.7941,1.6817,-0.1331,-0.7555,0.1741,0.0219,0.1262,0.0671,4003,2019-08-07 16:50:39:648
-6.9985,-5.7463,1.7618,-0.1331,-0.7555,0.1741,0.0219,0.1262,0.0671,4008,2019-08-07 16:50:39:653
-6.9985,-5.7463,1.7618,-0.1331,-0.7555,0.1741,0.0304,0.0878,0.0746,4013,2019-08-07 16:50:39:658
-6.9985,-5.7463,1.7618,-0.1331,-0.7555,0.1741,0.0304,0.0878,0.0746,4017,2019-08-07 16:50:39:662
-7.1229,-5.775,1.809,-0.044,-0.7972,0.0678,0.0389,0.042,0.0884,4023,2019-08-07 16:50:39:668
-7.1229,-5.775,1.809,-0.044,-0.7972,0.0678,0.0389,0.042,0.0884,4027,2019-08-07 16:50:39:672
-7.0798,-5.7129,1.7807,-0.044,-0.7972,0.0678,0.0507,-0.0048,0.098,4033,2019-08-07 16:50:39:678
-7.0798,-5.7129,1.7807,-0.044,-0.7972,0.0678,0.0507,-0.0048,0.098,4037,2019-08-07 16:50:39:682
-7.0798,-5.7129,1.7807,-0.044,-0.7972,0.0678,0.0496,-0.0272,0.1001,4043,2019-08-07 16:50:39:688
-7.0703,-5.837,1.7147,-0.069,-0.6301,0.141,0.0496,-0.0272,0.1001,4048,2019-08-07 16:50:39:693
-7.0703,-5.837,1.7147,-0.069,-0.6301,0.141,0.0496,-0.0272,0.1001,4052,2019-08-07 16:50:39:697
-7.0272,-5.9468,1.7383,-0.069,-0.6301,0.141,0.0357,-0.0411,0.0884,4058,2019-08-07 16:50:39:703
-7.0272,-5.9468,1.7383,-0.1482,-0.4562,0.1413,0.0251,-0.0176,0.0788,4064,2019-08-07 16:50:39:709
-7.0272,-5.9468,1.7383,-0.1482,-0.4562,0.1413,0.0251,-0.0176,0.0788,4067,2019-08-07 16:50:39:712
-6.9459,-6.0089,1.6817,-0.1482,-0.4562,0.1413,0.0251,-0.0176,0.0788,4073,2019-08-07 16:50:39:718
-6.9459,-6.0089,1.6817,-0.1482,-0.4562,0.1413,0.0187,0.0229,0.066,4078,2019-08-07 16:50:39:723
-6.8885,-6.1044,1.7571,-0.1482,-0.4562,0.1413,0.0187,0.0229,0.066,4083,2019-08-07 16:50:39:728
-6.8885,-6.1044,1.7571,-0.2302,-0.3256,0.0654,0.0144,0.0751,0.0479,4088,2019-08-07 16:50:39:733
-6.8885,-6.1044,1.7571,-0.2302,-0.3256,0.0654,0.0144,0.0751,0.0479,4093,2019-08-07 16:50:39:738
-6.9363,-6.1091,1.7901,-0.2302,-0.3256,0.0654,-5.0E-4,0.1155,0.0309,4097,2019-08-07 16:50:39:742
-6.9363,-6.1091,1.7901,-0.2302,-0.3256,0.0654,-5.0E-4,0.1155,0.0309,4103,2019-08-07 16:50:39:748
-7.1037,-6.1091,1.8231,-0.1054,-0.3243,0.0279,-5.0E-4,0.1155,0.0309,4108,2019-08-07 16:50:39:753
-7.1037,-6.1091,1.8231,-0.1054,-0.3243,0.0279,-0.0101,0.1326,0.0128,4113,2019-08-07 16:50:39:758
-7.1037,-6.1091,1.8231,-0.1054,-0.3243,0.0279,-0.0101,0.1326,0.0128,4117,2019-08-07 16:50:39:762
-7.2186,-6.1044,1.9504,-0.1054,-0.3243,0.0279,-0.0079,0.0889,0.0064,4123,2019-08-07 16:50:39:768
-7.2186,-6.1044,1.9504,0.074,-0.2498,-0.2163,-0.0079,0.0889,0.0064,4128,2019-08-07 16:50:39:773
-7.2568,-6.133,2.1012,0.074,-0.2498,-0.2163,-0.0047,0.026,0.0042,4133,2019-08-07 16:50:39:778
-7.2568,-6.133,2.1012,0.074,-0.2498,-0.2163,-0.0047,0.026,0.0042,4138,2019-08-07 16:50:39:783
-7.2568,-6.133,2.1012,0.074,-0.2498,-0.2163,0.0038,-0.0251,0.0042,4144,2019-08-07 16:50:39:789
-7.1277,-6.1091,1.974,-0.0528,-0.3191,-0.1421,0.0038,-0.0251,0.0042,4147,2019-08-07 16:50:39:792
-7.1277,-6.1091,1.974,-0.0528,-0.3191,-0.1421,0.0048,-0.0581,0.0053,4153,2019-08-07 16:50:39:798
-7.1277,-6.1091,1.974,-0.0528,-0.3191,-0.1421,0.0048,-0.0581,0.0053,4157,2019-08-07 16:50:39:802
-6.9793,-6.1616,1.875,-0.0528,-0.3191,-0.1421,0.0048,-0.0581,0.0053,4162,2019-08-07 16:50:39:807
-6.9793,-6.1616,1.875,-0.2622,-0.2459,-0.0809,-0.0026,-0.0634,0.0053,4168,2019-08-07 16:50:39:813
-6.8597,-6.2046,1.8844,-0.2622,-0.2459,-0.0809,-0.0026,-0.0634,0.0053,4172,2019-08-07 16:50:39:817
-6.8597,-6.2046,1.8844,-0.2622,-0.2459,-0.0809,-0.0026,-0.0421,-0.0021,4178,2019-08-07 16:50:39:823
-6.8454,-6.1903,1.8231,-0.2622,-0.2459,-0.0809,-0.0026,-0.0421,-0.0021,4183,2019-08-07 16:50:39:828
-6.8454,-6.1903,1.8231,-0.3271,-0.2225,0.0061,-0.0037,-0.0134,-0.0096,4188,2019-08-07 16:50:39:833
-6.8454,-6.1903,1.8231,-0.3271,-0.2225,0.0061,-0.0037,-0.0134,-0.0096,4193,2019-08-07 16:50:39:838
-6.831,-6.1903,1.8703,-0.3271,-0.2225,0.0061,-0.0037,-0.0134,-0.0096,4198,2019-08-07 16:50:39:843
-6.831,-6.1903,1.8703,-0.3271,-0.2225,0.0061,-0.0037,0.0143,-0.0192,4203,2019-08-07 16:50:39:848
-6.9124,-6.09,1.8608,-0.2866,-0.3014,-0.0459,-0.0101,0.026,-0.0309,4210,2019-08-07 16:50:39:855
-6.9124,-6.09,1.8608,-0.2866,-0.3014,-0.0459,-0.0101,0.026,-0.0309,4213,2019-08-07 16:50:39:858
-6.9124,-6.09,1.8608,-0.2866,-0.3014,-0.0459,-0.0101,0.026,-0.0309,4217,2019-08-07 16:50:39:862
-6.9937,-6.09,1.8231,-0.2866,-0.3014,-0.0459,-0.0197,0.0303,-0.0373,4223,2019-08-07 16:50:39:868
-6.9937,-6.09,1.8231,-0.169,-0.4207,-0.0609,-0.0197,0.0303,-0.0373,4228,2019-08-07 16:50:39:873
-6.9937,-6.09,1.8231,-0.169,-0.4207,-0.0609,-0.0282,0.009,-0.0362,4232,2019-08-07 16:50:39:877
-6.9793,-6.0375,1.9127,-0.169,-0.4207,-0.0609,-0.0282,0.009,-0.0362,4238,2019-08-07 16:50:39:883
-6.9793,-6.0375,1.9127,-0.169,-0.4207,-0.0609,-0.0324,-0.0293,-0.0309,4243,2019-08-07 16:50:39:888
-6.9363,-6.0662,1.9551,-0.2318,-0.3732,-0.114,-0.0324,-0.0293,-0.0309,4247,2019-08-07 16:50:39:892
-6.9363,-6.0662,1.9551,-0.2318,-0.3732,-0.114,-0.0324,-0.0293,-0.0309,4253,2019-08-07 16:50:39:898
-6.9363,-6.0662,1.9551,-0.2318,-0.3732,-0.114,-0.0399,-0.0464,-0.0266,4257,2019-08-07 16:50:39:902
-6.9123,-6.0041,1.8278,-0.2318,-0.3732,-0.114,-0.0399,-0.0464,-0.0266,4263,2019-08-07 16:50:39:908
-6.9123,-6.0041,1.8278,-0.2418,-0.4824,0.0013,-0.0474,-0.0475,-0.0266,4268,2019-08-07 16:50:39:913
-6.9123,-5.9134,1.8985,-0.2418,-0.4824,0.0013,-0.0474,-0.0475,-0.0266,4273,2019-08-07 16:50:39:918
-6.9123,-5.9134,1.8985,-0.2418,-0.4824,0.0013,-0.0591,-0.0549,-0.0234,4278,2019-08-07 16:50:39:923
-6.9123,-5.9134,1.8985,-0.2418,-0.4824,0.0013,-0.0591,-0.0549,-0.0234,4282,2019-08-07 16:50:39:927
-6.8549,-5.985,1.7901,-0.3333,-0.4726,0.0679,-0.075,-0.0538,-0.0224,4288,2019-08-07 16:50:39:933
-6.8549,-5.985,1.7901,-0.3333,-0.4726,0.0679,-0.075,-0.0538,-0.0224,4293,2019-08-07 16:50:39:938
-6.8549,-5.985,1.7901,-0.3333,-0.4726,0.0679,-0.075,-0.0538,-0.0224,4297,2019-08-07 16:50:39:942
-6.7832,-5.9946,1.6676,-0.3333,-0.4726,0.0679,-0.0846,-0.0336,-0.0234,4303,2019-08-07 16:50:39:948
-6.7832,-5.9946,1.6676,-0.3333,-0.4726,0.0679,-0.0846,-0.0336,-0.0234,4307,2019-08-07 16:50:39:952
-6.7688,-6.0089,1.6817,-0.4061,-0.464,0.1284,-0.0836,-0.0198,-0.0181,4313,2019-08-07 16:50:39:958
-6.7688,-6.0089,1.6817,-0.4061,-0.464,0.1284,-0.0836,-0.0198,-0.0181,4317,2019-08-07 16:50:39:962
-6.7688,-6.0089,1.6817,-0.4061,-0.464,0.1284,-0.0836,0.0015,-0.0064,4323,2019-08-07 16:50:39:968
-6.7066,-6.1044,1.5921,-0.4669,-0.2777,0.2257,-0.0836,0.0015,-0.0064,4328,2019-08-07 16:50:39:973
-6.7066,-6.1044,1.5921,-0.4669,-0.2777,0.2257,-0.0825,0.0367,-0.0043,4333,2019-08-07 16:50:39:978
-6.721,-6.2428,1.6346,-0.4669,-0.2777,0.2257,-0.0825,0.0367,-0.0043,4337,2019-08-07 16:50:39:982
-6.721,-6.2428,1.6346,-0.4669,-0.2777,0.2257,-0.0697,0.0601,0.0042,4343,2019-08-07 16:50:39:988
-6.721,-6.2428,1.6346,-0.4669,-0.2777,0.2257,-0.0697,0.0601,0.0042,4348,2019-08-07 16:50:39:993
-6.6922,-6.3383,1.7194,-0.468,-0.1574,0.1183,-0.0484,0.0836,0.0053,4353,2019-08-07 16:50:39:998
-6.6922,-6.3383,1.7194,-0.468,-0.1574,0.1183,-0.0484,0.0836,0.0053,4357,2019-08-07 16:50:40:002
-6.8549,-6.2094,1.7383,-0.468,-0.1574,0.1183,-0.0271,0.09,0.0106,4363,2019-08-07 16:50:40:008
-6.8549,-6.2094,1.7383,-0.468,-0.1574,0.1183,-0.0271,0.09,0.0106,4367,2019-08-07 16:50:40:012
-6.8549,-6.2094,1.7383,-0.2562,-0.254,0.0016,-0.0271,0.09,0.0106,4373,2019-08-07 16:50:40:018
-7.008,-6.1426,1.8797,-0.2562,-0.254,0.0016,-0.0292,0.0644,0.0245,4378,2019-08-07 16:50:40:023
-7.008,-6.1426,1.8797,-0.2562,-0.254,0.0016,-0.0292,0.0644,0.0245,4383,2019-08-07 16:50:40:028
-7.008,-6.1426,1.8797,-0.0517,-0.398,-0.2341,-0.0303,-0.0038,0.0341,4388,2019-08-07 16:50:40:033
-7.1133,-6.0614,2.0164,-0.0517,-0.398,-0.2341,-0.0303,-0.0038,0.0341,4392,2019-08-07 16:50:40:037
-7.1133,-6.0614,2.0164,-0.0517,-0.398,-0.2341,-0.0303,-0.0634,0.0458,4398,2019-08-07 16:50:40:043
-6.9984,-6.1378,1.7336,-0.0517,-0.398,-0.2341,-0.0303,-0.0634,0.0458,4403,2019-08-07 16:50:40:048
-6.9984,-6.1378,1.7336,-0.2514,-0.3588,0.0742,-0.0303,-0.0634,0.0458,4408,2019-08-07 16:50:40:053
-6.9984,-6.1378,1.7336,-0.2514,-0.3588,0.0742,-0.0346,-0.1124,0.0362,4413,2019-08-07 16:50:40:058
-6.9219,-6.1235,1.6629,-0.2514,-0.3588,0.0742,-0.0346,-0.1124,0.0362,4417,2019-08-07 16:50:40:062
-6.9219,-6.1235,1.6629,-0.2514,-0.3588,0.0742,-0.042,-0.1071,0.0309,4423,2019-08-07 16:50:40:068
-6.7927,-6.1282,1.6393,-0.2514,-0.3588,0.0742,-0.042,-0.1071,0.0309,4428,2019-08-07 16:50:40:073
-6.7927,-6.1282,1.6393,-0.4339,-0.3361,0.1502,-0.0388,-0.0581,0.0277,4433,2019-08-07 16:50:40:078
-6.7927,-6.1282,1.6393,-0.4339,-0.3361,0.1502,-0.0388,-0.0581,0.0277,4438,2019-08-07 16:50:40:083
-6.6396,-6.2046,1.6016,-0.4339,-0.3361,0.1502,-0.0356,0.0165,0.0128,4443,2019-08-07 16:50:40:088
-6.6396,-6.2046,1.6016,-0.4339,-0.3361,0.1502,-0.0356,0.0165,0.0128,4448,2019-08-07 16:50:40:093
-6.6635,-6.1855,1.5874,-0.502,-0.2358,0.2354,-0.0356,0.0165,0.0128,4453,2019-08-07 16:50:40:098
-6.6635,-6.1855,1.5874,-0.502,-0.2358,0.2354,-0.0133,0.1294,-0.0096,4457,2019-08-07 16:50:40:102
-6.9027,-6.1044,1.5497,-0.502,-0.2358,0.2354,-0.0133,0.1294,-0.0096,4463,2019-08-07 16:50:40:108
-6.9027,-6.1044,1.5497,-0.502,-0.2358,0.2354,-0.0079,0.1752,-0.0053,4468,2019-08-07 16:50:40:113
-6.9027,-6.1044,1.5497,-0.3916,-0.2708,0.0943,-0.0079,0.1752,-0.0053,4472,2019-08-07 16:50:40:117
-6.8453,-6.1664,1.6817,-0.3916,-0.2708,0.0943,-0.0175,0.1645,-0.0149,4478,2019-08-07 16:50:40:123
-6.8453,-6.1664,1.6817,-0.3916,-0.2708,0.0943,-0.0175,0.1645,-0.0149,4483,2019-08-07 16:50:40:128
-7.1563,-5.9707,1.7948,-0.3916,-0.2708,0.0943,-0.0367,0.1454,-0.0203,4488,2019-08-07 16:50:40:133
-7.1563,-5.9707,1.7948,0.0539,-0.5691,-0.0967,-0.0367,0.1454,-0.0203,4493,2019-08-07 16:50:40:138
-7.1563,-5.9707,1.7948,0.0539,-0.5691,-0.0967,-0.0229,0.0996,0.0085,4498,2019-08-07 16:50:40:143
-7.2233,-6.0089,1.9268,0.0539,-0.5691,-0.0967,-0.0229,0.0996,0.0085,4503,2019-08-07 16:50:40:148
-7.2233,-6.0089,1.9268,0.0539,-0.5691,-0.0967,-0.0122,0.0165,0.0256,4507,2019-08-07 16:50:40:152
-7.1276,-6.176,1.8278,-0.0238,-0.2933,-0.0837,-0.0122,0.0165,0.0256,4513,2019-08-07 16:50:40:158
-7.1276,-6.176,1.8278,-0.0238,-0.2933,-0.0837,-0.0133,-0.0432,0.0405,4518,2019-08-07 16:50:40:163
-7.1276,-6.176,1.8278,-0.0238,-0.2933,-0.0837,-0.0133,-0.0432,0.0405,4523,2019-08-07 16:50:40:168
-6.941,-6.1951,1.7996,-0.0238,-0.2933,-0.0837,-0.009,-0.0794,0.0426,4528,2019-08-07 16:50:40:173
-6.941,-6.1951,1.7996,-0.2906,-0.4161,0.0038,-0.009,-0.0794,0.0426,4533,2019-08-07 16:50:40:178
-6.8597,-6.0471,1.5544,-0.2906,-0.4161,0.0038,0.0059,-0.072,0.0405,4538,2019-08-07 16:50:40:183
-6.8597,-6.0471,1.5544,-0.2906,-0.4161,0.0038,0.0059,-0.072,0.0405,4543,2019-08-07 16:50:40:188
-6.8597,-6.0471,1.5544,-0.2906,-0.4161,0.0038,0.0059,-0.072,0.0405,4548,2019-08-07 16:50:40:193
-6.8692,-6.1235,1.4884,-0.3178,-0.2763,0.2483,-0.0026,-0.0357,0.0362,4553,2019-08-07 16:50:40:198
-6.8692,-6.1235,1.4884,-0.3178,-0.2763,0.2483,-0.0026,-0.0357,0.0362,4557,2019-08-07 16:50:40:202
-6.7592,-6.2715,1.5922,-0.4345,-0.1646,0.1584,-0.0079,0.0122,0.0256,4563,2019-08-07 16:50:40:208
-6.7592,-6.2715,1.5922,-0.4345,-0.1646,0.1584,-0.0079,0.0122,0.0256,4568,2019-08-07 16:50:40:213
-6.7592,-6.2715,1.5922,-0.4345,-0.1646,0.1584,-0.0122,0.0516,-0.0043,4573,2019-08-07 16:50:40:218
-7.0558,-6.1139,1.5592,-0.4345,-0.1646,0.1584,-0.0122,0.0516,-0.0043,4578,2019-08-07 16:50:40:223
-7.0558,-6.1139,1.5592,-0.0973,-0.2789,0.1588,-0.0175,0.0591,-0.0117,4583,2019-08-07 16:50:40:228
-7.0558,-6.1139,1.5592,-0.0973,-0.2789,0.1588,-0.0175,0.0591,-0.0117,4587,2019-08-07 16:50:40:232
-7.1276,-6.1855,1.644,-0.0973,-0.2789,0.1588,-0.0175,0.0591,-0.0117,4593,2019-08-07 16:50:40:238
-7.1276,-6.1855,1.644,-0.0973,-0.2789,0.1588,-0.026,0.0335,-0.032,4598,2019-08-07 16:50:40:243
-7.1706,-6.2094,1.7053,-0.0244,-0.2301,0.027,-0.026,0.0335,-0.032,4603,2019-08-07 16:50:40:248
-7.1706,-6.2094,1.7053,-0.0244,-0.2301,0.027,-0.026,0.0335,-0.032,4608,2019-08-07 16:50:40:253
-7.0797,-6.1855,1.743,-0.1127,-0.2569,-0.011,-0.0143,-0.0123,-0.0426,4613,2019-08-07 16:50:40:258
-7.0797,-6.1855,1.743,-0.1127,-0.2569,-0.011,-0.0143,-0.0123,-0.0426,4617,2019-08-07 16:50:40:262
-7.0797,-6.1855,1.743,-0.1127,-0.2569,-0.011,0.0027,-0.0411,-0.0373,4623,2019-08-07 16:50:40:268
-6.9697,-6.2046,1.6817,-0.1127,-0.2569,-0.011,0.0027,-0.0411,-0.0373,4627,2019-08-07 16:50:40:272
-6.9697,-6.2046,1.6817,-0.4176,-0.2193,0.1408,6.0E-4,-0.0475,-0.0309,4634,2019-08-07 16:50:40:279
-6.9697,-6.2046,1.6817,-0.4176,-0.2193,0.1408,6.0E-4,-0.0475,-0.0309,4637,2019-08-07 16:50:40:282
-6.7257,-6.2476,1.6582,-0.4176,-0.2193,0.1408,0.0102,-0.0432,-0.0309,4643,2019-08-07 16:50:40:288
-6.7257,-6.2476,1.6582,-0.4176,-0.2193,0.1408,0.0102,-0.0432,-0.0309,4648,2019-08-07 16:50:40:293
-6.5917,-6.2237,1.6157,-0.5883,-0.2291,0.129,0.0102,-0.0432,-0.0309,4653,2019-08-07 16:50:40:298
-6.5917,-6.2237,1.6157,-0.5883,-0.2291,0.129,0.023,-0.0144,-0.0203,4658,2019-08-07 16:50:40:303
-6.5917,-6.2237,1.6157,-0.5883,-0.2291,0.129,0.023,-0.0144,-0.0203,4663,2019-08-07 16:50:40:308
-6.6061,-6.1378,1.6393,-0.5483,-0.3308,0.1357,0.0315,0.0111,-0.0107,4668,2019-08-07 16:50:40:313
-6.6061,-6.1378,1.6393,-0.5483,-0.3308,0.1357,0.0315,0.0111,-0.0107,4673,2019-08-07 16:50:40:318
-6.6491,-6.1664,1.5733,-0.5483,-0.3308,0.1357,0.0347,0.0292,-0.0107,4678,2019-08-07 16:50:40:323
-6.6491,-6.1664,1.5733,-0.5483,-0.3308,0.1357,0.0347,0.0292,-0.0107,4682,2019-08-07 16:50:40:327
-6.8022,-6.238,1.5969,-0.5229,-0.2941,0.1269,0.0347,0.0623,-0.0139,4688,2019-08-07 16:50:40:333
-6.8022,-6.238,1.5969,-0.5229,-0.2941,0.1269,0.0347,0.0623,-0.0139,4693,2019-08-07 16:50:40:338
-6.8022,-6.238,1.5969,-0.5229,-0.2941,0.1269,0.0432,0.0729,-0.0011,4699,2019-08-07 16:50:40:344
-6.9362,-6.1951,1.6911,-0.5229,-0.2941,0.1269,0.0432,0.0729,-0.0011,4702,2019-08-07 16:50:40:347
-6.9362,-6.1951,1.6911,-0.2467,-0.2748,0.0748,0.0432,0.0729,-0.0011,4708,2019-08-07 16:50:40:353
-6.9362,-6.1951,1.6911,-0.2467,-0.2748,0.0748,0.0538,0.0623,0.0106,4712,2019-08-07 16:50:40:357
-6.9362,-6.1569,1.776,-0.2467,-0.2748,0.0748,0.0538,0.0623,0.0106,4718,2019-08-07 16:50:40:363
-6.9362,-6.1569,1.776,-0.2467,-0.2748,0.0748,0.056,0.0346,0.0128,4723,2019-08-07 16:50:40:368
-6.9601,-5.985,1.7147,-0.2312,-0.4427,-0.0101,0.056,0.0346,0.0128,4728,2019-08-07 16:50:40:373
-6.9601,-5.985,1.7147,-0.2312,-0.4427,-0.0101,0.0538,0.0229,0.0074,4733,2019-08-07 16:50:40:378
-6.9601,-5.985,1.7147,-0.2312,-0.4427,-0.0101,0.0538,0.0229,0.0074,4737,2019-08-07 16:50:40:382
-6.9649,-5.9755,1.6629,-0.1627,-0.4476,-0.0111,0.0464,0.0122,0.0064,4743,2019-08-07 16:50:40:388
-6.9649,-5.9755,1.6629,-0.1627,-0.4476,-0.0111,0.0464,0.0122,0.0064,4748,2019-08-07 16:50:40:393
-7.0172,-6.071,1.8043,-0.1627,-0.4476,-0.0111,0.0464,0.0122,0.0064,4753,2019-08-07 16:50:40:398
-7.0172,-6.071,1.8043,-0.1627,-0.4476,-0.0111,0.0283,-0.0112,0.016,4757,2019-08-07 16:50:40:402
-7.0172,-6.071,1.8043,-0.1627,-0.4476,-0.0111,0.0283,-0.0112,0.016,4763,2019-08-07 16:50:40:408
-6.8928,-6.0662,1.7902,-0.2942,-0.3768,-0.0379,0.0251,-0.0325,0.0149,4768,2019-08-07 16:50:40:413
-6.8928,-6.0662,1.7902,-0.2942,-0.3768,-0.0379,0.0251,-0.0325,0.0149,4773,2019-08-07 16:50:40:418
-6.8498,-6.0423,1.6724,-0.3376,-0.3991,0.0843,0.024,-0.0272,0.0085,4778,2019-08-07 16:50:40:423
-6.8498,-6.0423,1.6724,-0.3376,-0.3991,0.0843,0.024,-0.0272,0.0085,4783,2019-08-07 16:50:40:428
-6.8498,-6.0423,1.6724,-0.3376,-0.3991,0.0843,0.0219,0.0186,0.0053,4787,2019-08-07 16:50:40:432
-6.8163,-6.0614,1.5922,-0.3376,-0.3991,0.0843,0.0219,0.0186,0.0053,4793,2019-08-07 16:50:40:438
-6.8163,-6.0614,1.5922,-0.3247,-0.3922,0.1522,0.0187,0.0527,0.0032,4798,2019-08-07 16:50:40:443
-6.8593,-6.0949,1.5875,-0.3247,-0.3922,0.1522,0.0187,0.0527,0.0032,4803,2019-08-07 16:50:40:448
-6.8593,-6.0949,1.5875,-0.3247,-0.3922,0.1522,0.0187,0.0527,0.0032,4808,2019-08-07 16:50:40:453
-6.8593,-6.0949,1.5875,-0.3247,-0.3922,0.1522,0.007,0.0836,0.0011,4812,2019-08-07 16:50:40:457
-7.0172,-6.0758,1.5969,-0.1746,-0.3629,0.1518,0.007,0.0836,0.0011,4818,2019-08-07 16:50:40:463
-7.0172,-6.0758,1.5969,-0.1746,-0.3629,0.1518,0.0112,0.1049,-0.0043,4823,2019-08-07 16:50:40:468
-7.0172,-6.0758,1.5969,-0.1746,-0.3629,0.1518,0.0112,0.1049,-0.0043,4827,2019-08-07 16:50:40:472
-7.0889,-6.0853,1.7525,-0.1746,-0.3629,0.1518,0.0198,0.1038,-0.0043,4833,2019-08-07 16:50:40:478
-7.0889,-6.0853,1.7525,-0.064,-0.3808,0.0208,0.0198,0.1038,-0.0043,4837,2019-08-07 16:50:40:482
-7.1511,-6.028,1.7242,-0.064,-0.3808,0.0208,0.0219,0.0687,-0.0085,4843,2019-08-07 16:50:40:488
-7.1511,-6.028,1.7242,-0.064,-0.3808,0.0208,0.0219,0.0687,-0.0085,4848,2019-08-07 16:50:40:493
-7.1129,-6.071,1.6771,-0.064,-0.3808,0.0208,0.007,0.0314,-0.0149,4853,2019-08-07 16:50:40:498
-7.1129,-6.071,1.6771,-0.128,-0.4138,0.0147,0.007,0.0314,-0.0149,4857,2019-08-07 16:50:40:502
-7.1129,-6.071,1.6771,-0.128,-0.4138,0.0147,0.0038,-0.0059,-0.0117,4863,2019-08-07 16:50:40:508
-7.0028,-6.0376,1.7808,-0.128,-0.4138,0.0147,0.0038,-0.0059,-0.0117,4868,2019-08-07 16:50:40:513
-7.0028,-6.0376,1.7808,-0.128,-0.4138,0.0147,0.0134,-0.024,-0.0085,4872,2019-08-07 16:50:40:517
-7.0028,-6.0376,1.7808,-0.2659,-0.4141,0.0648,0.0134,-0.024,-0.0085,4878,2019-08-07 16:50:40:523
-6.9263,-6.0185,1.6299,-0.2659,-0.4141,0.0648,0.023,-0.0272,-0.0021,4883,2019-08-07 16:50:40:528
-6.9263,-6.0185,1.6299,-0.2659,-0.4141,0.0648,0.023,-0.0272,-0.0021,4888,2019-08-07 16:50:40:533
-6.9263,-6.0185,1.6299,-0.2659,-0.4141,0.0648,0.023,-0.0272,-0.0021,4893,2019-08-07 16:50:40:538
-6.8497,-6.0089,1.6959,-0.3281,-0.4027,0.048,0.0315,-0.0166,0.0085,4897,2019-08-07 16:50:40:542
-6.8497,-6.0089,1.6959,-0.3281,-0.4027,0.048,0.0315,-0.0166,0.0085,4903,2019-08-07 16:50:40:548
-6.8449,-6.0662,1.6629,-0.3281,-0.4027,0.048,0.0262,-0.0048,0.0192,4907,2019-08-07 16:50:40:552
-6.8449,-6.0662,1.6629,-0.3281,-0.4027,0.048,0.0262,-0.0048,0.0192,4913,2019-08-07 16:50:40:558
-6.7971,-6.071,1.7054,-0.4073,-0.3604,0.0899,0.0251,0.0047,0.0277,4918,2019-08-07 16:50:40:563
-6.7971,-6.071,1.7054,-0.4073,-0.3604,0.0899,0.0251,0.0047,0.0277,4923,2019-08-07 16:50:40:568
-6.7971,-6.071,1.7054,-0.4431,-0.3815,0.0436,0.04,0.0314,0.033,4928,2019-08-07 16:50:40:573
-6.7492,-6.0614,1.6912,-0.4431,-0.3815,0.0436,0.04,0.0314,0.033,4933,2019-08-07 16:50:40:578
-6.7492,-6.0614,1.6912,-0.4431,-0.3815,0.0436,0.04,0.0314,0.033,4938,2019-08-07 16:50:40:583
-6.7492,-6.0614,1.6912,-0.4431,-0.3815,0.0436,0.007,0.009,0.0298,4943,2019-08-07 16:50:40:588
-6.8114,-5.9994,1.7667,-0.4194,-0.4284,-0.0369,0.007,0.009,0.0298,4948,2019-08-07 16:50:40:593
-6.8114,-5.9994,1.7667,-0.4194,-0.4284,-0.0369,0.023,0.0548,0.0277,4953,2019-08-07 16:50:40:598
-6.821,-6.1235,1.6347,-0.4194,-0.4284,-0.0369,0.023,0.0548,0.0277,4957,2019-08-07 16:50:40:602
-6.821,-6.1235,1.6347,-0.4194,-0.4284,-0.0369,0.0293,0.0719,0.0266,4963,2019-08-07 16:50:40:608
-6.821,-6.1235,1.6347,-0.3295,-0.3473,0.1831,0.0293,0.0719,0.0266,4968,2019-08-07 16:50:40:613
-6.8257,-6.0614,1.5922,-0.3295,-0.3473,0.1831,0.0208,0.1145,0.0224,4973,2019-08-07 16:50:40:618
-6.8257,-6.0614,1.5922,-0.3295,-0.3473,0.1831,0.0208,0.1145,0.0224,4977,2019-08-07 16:50:40:622
-7.0697,-5.9898,1.6347,-0.3295,-0.3473,0.1831,0.0251,0.1411,0.0096,4983,2019-08-07 16:50:40:628
-7.0697,-5.9898,1.6347,-0.0689,-0.4052,0.1112,0.0251,0.1411,0.0096,4987,2019-08-07 16:50:40:632
-7.0697,-5.9898,1.6347,-0.0689,-0.4052,0.1112,0.0038,0.1113,0.0032,4993,2019-08-07 16:50:40:638
-7.1845,-6.0519,1.5828,-0.0689,-0.4052,0.1112,0.0038,0.1113,0.0032,4998,2019-08-07 16:50:40:643
-7.1845,-6.0519,1.5828,-0.0689,-0.4052,0.1112,-0.0175,0.0857,-0.0075,5003,2019-08-07 16:50:40:648
-7.1223,-6.1378,1.6959,-0.1023,-0.2753,0.0105,-0.0175,0.0857,-0.0075,5008,2019-08-07 16:50:40:653
-7.1223,-6.1378,1.6959,-0.1023,-0.2753,0.0105,-0.0101,0.0782,-0.0149,5013,2019-08-07 16:50:40:658
-7.1223,-6.1378,1.6959,-0.1023,-0.2753,0.0105,-0.0101,0.0782,-0.0149,5018,2019-08-07 16:50:40:663
-7.1128,-6.1712,1.6582,-0.1023,-0.2753,0.0105,0.007,0.0761,-0.0128,5023,2019-08-07 16:50:40:668
-7.1128,-6.1712,1.6582,-0.1023,-0.2753,0.0105,0.007,0.0761,-0.0128,5027,2019-08-07 16:50:40:672
-7.1128,-6.1712,1.6582,-0.0417,-0.1574,0.0506,0.0166,0.09,0.0085,5033,2019-08-07 16:50:40:678
-7.0266,-6.3049,1.7289,-0.0417,-0.1574,0.0506,0.0166,0.09,0.0085,5038,2019-08-07 16:50:40:683
-7.0266,-6.3049,1.7289,-0.0417,-0.1574,0.0506,0.0379,0.1017,0.0138,5043,2019-08-07 16:50:40:688
-7.0266,-6.3049,1.7289,-0.1182,-0.4268,-0.0114,0.0379,0.1017,0.0138,5048,2019-08-07 16:50:40:693
-7.2802,-5.6605,1.8421,-0.1182,-0.4268,-0.0114,0.0379,0.1017,0.0138,5053,2019-08-07 16:50:40:698