ACCELEROMETER X (m/s²),ACCELEROMETER Y (m/s²),ACCELEROMETER Z (m/s²),LINEAR ACCELERATION X (m/s²),LINEAR ACCELERATION Y (m/s²),LINEAR ACCELERATION Z (m/s²),GYROSCOPE X (rad/s),GYROSCOPE Y (rad/s),GYROSCOPE Z (rad/s),Time since start in ms ,YYYY-MO-DD HH-MI-SS_SSS
-6.071,-6.9688,0.7162,-0.445,-0.3042,0.184,-0.0133,-0.0155,0.0203,3,2019-08-07 16:49:23:359
-6.071,-6.9688,0.7162,-0.445,-0.3042,0.184,-0.0133,-0.0155,0.0203,8,2019-08-07 16:49:23:364
-6.0853,-6.9975,0.7728,-0.445,-0.3042,0.184,-0.009,0.025,0.0235,13,2019-08-07 16:49:23:369
-6.0853,-6.9975,0.7728,-0.445,-0.3042,0.184,-0.009,0.025,0.0235,17,2019-08-07 16:49:23:373
-6.0853,-6.9975,0.7728,-0.445,-0.3042,0.184,-5.0E-4,0.0516,0.0266,23,2019-08-07 16:49:23:379
-6.0853,-6.9975,0.7728,-0.334,-0.2968,0.1028,-5.0E-4,0.0516,0.0266,27,2019-08-07 16:49:23:383
-6.2049,-7.0166,0.8105,-0.334,-0.2968,0.1028,6.0E-4,0.0623,0.0235,33,2019-08-07 16:49:23:389
-6.2049,-7.0166,0.8105,-0.334,-0.2968,0.1028,6.0E-4,0.0623,0.0235,38,2019-08-07 16:49:23:394
-6.3149,-7.0213,0.9189,-0.334,-0.2968,0.1028,0.0038,0.0495,0.0213,43,2019-08-07 16:49:23:399
-6.3149,-7.0213,0.9189,-0.1665,-0.2936,-0.0035,0.0038,0.0495,0.0213,48,2019-08-07 16:49:23:404
-6.3149,-7.0213,0.9189,-0.1665,-0.2936,-0.0035,0.0038,0.0495,0.0213,53,2019-08-07 16:49:23:409
-6.3819,-7.0213,0.9802,-0.1665,-0.2936,-0.0035,-0.0026,0.0122,0.0171,58,2019-08-07 16:49:23:414
-6.3819,-7.0213,0.9802,-0.1665,-0.2936,-0.0035,-0.0026,0.0122,0.0171,63,2019-08-07 16:49:23:419
-6.3293,-6.9545,0.886,-0.1555,-0.3385,0.0044,-0.009,-0.0304,0.0128,67,2019-08-07 16:49:23:423
-6.3293,-6.9545,0.886,-0.1555,-0.3385,0.0044,-0.009,-0.0304,0.0128,73,2019-08-07 16:49:23:429
-6.3293,-6.9545,0.886,-0.19,-0.3613,0.0107,-0.009,-0.0304,0.0128,77,2019-08-07 16:49:23:433
-6.2814,-6.9688,0.8907,-0.19,-0.3613,0.0107,-0.0165,-0.0443,0.0096,83,2019-08-07 16:49:23:439
-6.2814,-6.9688,0.8907,-0.19,-0.3613,0.0107,-0.0165,-0.0443,0.0096,88,2019-08-07 16:49:23:444
-6.1714,-6.9879,0.7681,-0.19,-0.3613,0.0107,-0.0261,-0.0453,0.0139,93,2019-08-07 16:49:23:449
-6.1714,-6.9879,0.7681,-0.3583,-0.3363,0.2017,-0.0261,-0.0453,0.0139,98,2019-08-07 16:49:23:454
-6.1714,-6.9879,0.7681,-0.3583,-0.3363,0.2017,-0.0271,-0.0208,0.0096,102,2019-08-07 16:49:23:458
-6.1044,-6.9784,0.754,-0.3583,-0.3363,0.2017,-0.0271,-0.0208,0.0096,108,2019-08-07 16:49:23:464
-6.1044,-6.9784,0.754,-0.3583,-0.3363,0.2017,-0.0261,0.0175,0.0053,112,2019-08-07 16:49:23:468
-6.1809,-6.9593,0.7917,-0.3067,-0.3599,0.1172,-0.0261,0.0175,0.0053,118,2019-08-07 16:49:23:474
-6.1809,-6.9593,0.7917,-0.3067,-0.3599,0.1172,-0.0261,0.0175,0.0053,122,2019-08-07 16:49:23:478
-6.1809,-6.9593,0.7917,-0.3067,-0.3599,0.1172,-0.0229,0.0505,0.0085,128,2019-08-07 16:49:23:484
-6.2766,-6.9211,0.754,-0.3067,-0.3599,0.1172,-0.0229,0.0505,0.0085,133,2019-08-07 16:49:23:489
-6.2766,-6.9211,0.754,-0.2038,-0.3066,0.1584,-0.0261,0.0527,0.0107,138,2019-08-07 16:49:23:494
-6.2766,-6.9211,0.754,-0.2038,-0.3066,0.1584,-0.0261,0.0527,0.0107,142,2019-08-07 16:49:23:498
-6.3595,-6.9591,0.7819,-0.1079,-0.3252,0.0966,-0.025,0.0388,0.0085,148,2019-08-07 16:49:23:504
-6.3595,-6.9591,0.7819,-0.1079,-0.3252,0.0966,-0.025,0.0388,0.0085,152,2019-08-07 16:49:23:508
-6.4026,-6.878,0.8385,-0.1079,-0.3252,0.0966,-0.0197,0.0122,0.0128,158,2019-08-07 16:49:23:514
-6.4026,-6.878,0.8385,-0.1079,-0.3252,0.0966,-0.0197,0.0122,0.0128,162,2019-08-07 16:49:23:518
-6.4026,-6.878,0.8385,-0.1443,-0.3425,0.0908,-0.0197,-0.0038,0.0128,168,2019-08-07 16:49:23:524
-6.3165,-6.94,0.8008,-0.1443,-0.3425,0.0908,-0.0197,-0.0038,0.0128,172,2019-08-07 16:49:23:528
-6.3165,-6.94,0.8008,-0.1443,-0.3425,0.0908,-0.0175,-0.0123,0.0117,178,2019-08-07 16:49:23:534
-6.2973,-6.9591,0.8055,-0.1443,-0.3425,0.0908,-0.0175,-0.0123,0.0117,183,2019-08-07 16:49:23:539
-6.2973,-6.9591,0.8055,-0.2039,-0.3598,0.0561,-0.0207,-0.0091,0.0128,187,2019-08-07 16:49:23:543
-6.2925,-6.9066,0.8573,-0.2039,-0.3598,0.0561,-0.0207,-0.0091,0.0128,194,2019-08-07 16:49:23:550
-6.2925,-6.9066,0.8573,-0.2039,-0.3598,0.0561,-0.0175,-0.0091,0.0202,198,2019-08-07 16:49:23:554
-6.2925,-6.9066,0.8573,-0.2039,-0.3598,0.0561,-0.0175,-0.0091,0.0202,203,2019-08-07 16:49:23:559
-6.2495,-6.9305,0.7583,-0.2642,-0.3526,0.1153,-0.0175,-0.0091,0.0202,207,2019-08-07 16:49:23:563
-6.2495,-6.9305,0.7583,-0.2642,-0.3526,0.1153,-0.0186,5.0E-4,0.0213,213,2019-08-07 16:49:23:569
-6.2495,-6.9305,0.7583,-0.2642,-0.3526,0.1153,-0.0186,5.0E-4,0.0213,217,2019-08-07 16:49:23:573
-6.2495,-6.9257,0.8385,-0.2642,-0.3526,0.1153,-0.0165,0.0133,0.0192,223,2019-08-07 16:49:23:579
-6.2495,-6.9257,0.8385,-0.2532,-0.2881,0.0361,-0.0165,0.0133,0.0192,227,2019-08-07 16:49:23:583
-6.2399,-6.9639,0.7961,-0.2532,-0.2881,0.0361,-0.0101,0.0154,0.0202,233,2019-08-07 16:49:23:589
-6.2399,-6.9639,0.7961,-0.2532,-0.2881,0.0361,-0.0101,0.0154,0.0202,238,2019-08-07 16:49:23:594
-6.2399,-6.9639,0.7961,-0.2532,-0.2881,0.0361,-0.009,0.0186,0.0171,244,2019-08-07 16:49:23:600
-6.2399,-6.9926,0.7913,-0.2657,-0.2764,0.0743,-0.009,0.0186,0.0171,247,2019-08-07 16:49:23:603
-6.2399,-6.9926,0.7913,-0.2657,-0.2764,0.0743,-0.009,0.026,0.0117,253,2019-08-07 16:49:23:609
-6.3404,-6.9926,0.8479,-0.2657,-0.2764,0.0743,-0.009,0.026,0.0117,258,2019-08-07 16:49:23:614
-6.3404,-6.9926,0.8479,-0.2657,-0.2764,0.0743,-0.009,0.0175,0.0149,263,2019-08-07 16:49:23:619
-6.3404,-6.9926,0.8479,-0.2444,-0.2936,0.0417,-0.009,0.0175,0.0149,268,2019-08-07 16:49:23:624
-6.2304,-6.9735,0.7866,-0.2444,-0.2936,0.0417,-0.0111,0.0122,0.0171,272,2019-08-07 16:49:23:628
-6.2304,-6.9735,0.7866,-0.2444,-0.2936,0.0417,-0.0111,0.0122,0.0171,278,2019-08-07 16:49:23:634
-6.2974,-6.9973,0.7866,-0.2444,-0.2936,0.0417,-0.0143,0.0069,0.0171,282,2019-08-07 16:49:23:638
-6.2974,-6.9973,0.7866,-0.2043,-0.2819,0.057,-0.0143,0.0069,0.0171,288,2019-08-07 16:49:23:644
-6.2974,-6.9973,0.7866,-0.2043,-0.2819,0.057,-0.0101,0.0037,0.0234,292,2019-08-07 16:49:23:648
-6.3261,-6.9925,0.8102,-0.2043,-0.2819,0.057,-0.0101,0.0037,0.0234,298,2019-08-07 16:49:23:654
-6.3261,-6.9925,0.8102,-0.2043,-0.2819,0.057,-0.0069,-0.0038,0.0288,303,2019-08-07 16:49:23:659
-6.3261,-6.9925,0.8102,-0.2043,-0.2819,0.057,-0.0069,-0.0038,0.0288,308,2019-08-07 16:49:23:664
-6.3022,-6.9639,0.8102,-0.2272,-0.3072,0.0465,-0.0069,-0.0038,0.0288,313,2019-08-07 16:49:23:669
-6.3022,-6.9639,0.8102,-0.2272,-0.3072,0.0465,-0.0175,-0.0155,0.0277,317,2019-08-07 16:49:23:673
-6.2735,-6.94,0.7725,-0.2272,-0.3072,0.0465,-0.0175,-0.0155,0.0277,323,2019-08-07 16:49:23:679
-6.2735,-6.94,0.7725,-0.2272,-0.3072,0.0465,-0.0356,-0.0208,0.0288,328,2019-08-07 16:49:23:684
-6.2735,-6.94,0.7725,-0.3124,-0.2562,0.1486,-0.0356,-0.0208,0.0288,332,2019-08-07 16:49:23:688
-6.1826,-7.0785,0.6923,-0.3124,-0.2562,0.1486,-0.0495,-0.007,0.0245,338,2019-08-07 16:49:23:694
-6.1826,-7.0785,0.6923,-0.3124,-0.2562,0.1486,-0.0495,-0.007,0.0245,343,2019-08-07 16:49:23:699
-6.1922,-7.1453,0.6876,-0.3124,-0.2562,0.1486,-0.0484,0.0165,0.0202,348,2019-08-07 16:49:23:704
-6.1922,-7.1453,0.6876,-0.3342,-0.1258,0.1883,-0.0484,0.0165,0.0202,352,2019-08-07 16:49:23:708
-6.1922,-7.1453,0.6876,-0.3342,-0.1258,0.1883,-0.0484,0.0165,0.0202,358,2019-08-07 16:49:23:714
-6.2352,-7.0928,0.6546,-0.3342,-0.1258,0.1883,-0.0399,0.0527,0.0117,363,2019-08-07 16:49:23:719
-6.2352,-7.0928,0.6546,-0.3342,-0.1258,0.1883,-0.0399,0.0527,0.0117,367,2019-08-07 16:49:23:723
-6.3835,-7.0785,0.6876,-0.1884,-0.2253,0.17,-0.0378,0.0655,0.0128,373,2019-08-07 16:49:23:729
-6.3835,-7.0785,0.6876,-0.1884,-0.2253,0.17,-0.0378,0.0655,0.0128,378,2019-08-07 16:49:23:734
-6.3835,-7.0785,0.6876,-0.1884,-0.2253,0.17,-0.0346,0.0697,0.0128,383,2019-08-07 16:49:23:739
-6.5175,-7.0164,0.8055,-0.1884,-0.2253,0.17,-0.0346,0.0697,0.0128,388,2019-08-07 16:49:23:744
-6.5175,-7.0164,0.8055,-0.0146,-0.2909,-0.0187,-0.0229,0.0495,0.0053,394,2019-08-07 16:49:23:750
-6.5127,-6.9544,0.829,-0.0146,-0.2909,-0.0187,-0.0229,0.0495,0.0053,397,2019-08-07 16:49:23:753
-6.5127,-6.9544,0.829,-0.0146,-0.2909,-0.0187,-0.0154,0.0175,0.0064,403,2019-08-07 16:49:23:759
-6.5127,-6.9544,0.829,-0.0146,-0.2909,-0.0187,-0.0154,0.0175,0.0064,408,2019-08-07 16:49:23:764
-6.4505,-6.9973,0.8008,-0.0933,-0.2656,0.0143,-0.0047,-0.0144,0.0085,413,2019-08-07 16:49:23:769
-6.4505,-6.9973,0.8008,-0.0933,-0.2656,0.0143,-0.0047,-0.0144,0.0085,417,2019-08-07 16:49:23:773
-6.4458,-6.9782,0.8385,-0.0933,-0.2656,0.0143,-0.0015,-0.0411,0.0064,423,2019-08-07 16:49:23:779
-6.4458,-6.9782,0.8385,-0.0933,-0.2656,0.0143,-0.0015,-0.0411,0.0064,427,2019-08-07 16:49:23:783
-6.4458,-6.9782,0.8385,-0.1474,-0.3115,0.0662,0.0038,-0.0624,0.016,433,2019-08-07 16:49:23:789
-6.3644,-6.9782,0.8196,-0.1474,-0.3115,0.0662,0.0038,-0.0624,0.016,437,2019-08-07 16:49:23:793
-6.3644,-6.9782,0.8196,-0.1474,-0.3115,0.0662,0.0059,-0.0698,0.0266,444,2019-08-07 16:49:23:800
-6.3644,-6.9782,0.8196,-0.1474,-0.3115,0.0662,0.0059,-0.0698,0.0266,447,2019-08-07 16:49:23:803
-6.1922,-6.9639,0.763,-0.3506,-0.2797,0.0947,0.0059,-0.0698,0.0266,453,2019-08-07 16:49:23:809
-6.1922,-6.9639,0.763,-0.3506,-0.2797,0.0947,-0.0015,-0.0464,0.0352,458,2019-08-07 16:49:23:814
-6.197,-6.9734,0.796,-0.3506,-0.2797,0.0947,-0.0015,-0.0464,0.0352,463,2019-08-07 16:49:23:819
-6.197,-6.9734,0.796,-0.3506,-0.2797,0.0947,-0.0058,-0.024,0.0405,468,2019-08-07 16:49:23:824
-6.197,-6.9734,0.796,-0.3693,-0.28,0.0569,-0.0058,-0.024,0.0405,472,2019-08-07 16:49:23:828
-6.1539,-6.9066,0.8007,-0.3693,-0.28,0.0569,-0.0058,5.0E-4,0.0416,478,2019-08-07 16:49:23:834
-6.1539,-6.9066,0.8007,-0.3693,-0.28,0.0569,-0.0058,5.0E-4,0.0416,483,2019-08-07 16:49:23:839
-6.1539,-6.9066,0.8007,-0.3693,-0.28,0.0569,-0.0058,5.0E-4,0.0416,487,2019-08-07 16:49:23:843
-6.264,-6.9543,0.796,-0.2656,-0.2841,0.0358,-0.0111,0.0282,0.0448,493,2019-08-07 16:49:23:849
-6.264,-6.9543,0.796,-0.2656,-0.2841,0.0358,-0.0197,0.0356,0.0448,498,2019-08-07 16:49:23:854
-6.3692,-6.835,0.8149,-0.2656,-0.2841,0.0358,-0.0197,0.0356,0.0448,503,2019-08-07 16:49:23:859
-6.3692,-6.835,0.8149,-0.2656,-0.2841,0.0358,-0.0197,0.0356,0.0448,507,2019-08-07 16:49:23:863
-6.3692,-6.835,0.8149,-0.1635,-0.4257,-0.0513,-0.0271,0.0271,0.0458,513,2019-08-07 16:49:23:869
-6.4123,-6.835,0.8667,-0.1635,-0.4257,-0.0513,-0.0271,0.0271,0.0458,517,2019-08-07 16:49:23:873
-6.4123,-6.835,0.8667,-0.1635,-0.4257,-0.0513,-0.0356,0.0047,0.0437,523,2019-08-07 16:49:23:879
-6.4171,-6.8302,0.8762,-0.1635,-0.4257,-0.0513,-0.0356,0.0047,0.0437,528,2019-08-07 16:49:23:884
-6.4171,-6.8302,0.8762,-0.1562,-0.3864,-0.0189,-0.0431,-0.0166,0.0384,532,2019-08-07 16:49:23:888
-6.4171,-6.8302,0.8762,-0.1562,-0.3864,-0.0189,-0.0431,-0.0166,0.0384,538,2019-08-07 16:49:23:894
-6.3693,-6.8541,0.796,-0.1562,-0.3864,-0.0189,-0.0431,-0.0166,0.0384,542,2019-08-07 16:49:23:898
-6.3693,-6.8541,0.796,-0.2022,-0.3553,0.0263,-0.0474,-0.0219,0.0352,547,2019-08-07 16:49:23:903
-6.3741,-6.8732,0.7583,-0.2022,-0.3553,0.0263,-0.0474,-0.0219,0.0352,553,2019-08-07 16:49:23:909
-6.3741,-6.8732,0.7583,-0.2022,-0.3553,0.0263,-0.0505,-0.0272,0.0373,558,2019-08-07 16:49:23:914
-6.3741,-6.8732,0.7583,-0.1836,-0.327,0.0223,-0.0505,-0.0272,0.0373,563,2019-08-07 16:49:23:919
-6.3501,-6.94,0.73,-0.1836,-0.327,0.0223,-0.0495,-0.0262,0.0352,567,2019-08-07 16:49:23:923
-6.3501,-6.94,0.73,-0.1836,-0.327,0.0223,-0.0495,-0.0262,0.0352,573,2019-08-07 16:49:23:929
-6.3358,-6.8971,0.6876,-0.1836,-0.327,0.0223,-0.0516,-0.0262,0.0341,578,2019-08-07 16:49:23:934
-6.3358,-6.8971,0.6876,-0.2507,-0.3041,0.1777,-0.0516,-0.0262,0.0341,582,2019-08-07 16:49:23:938
-6.3358,-6.8971,0.6876,-0.2507,-0.3041,0.1777,-0.0495,-0.0176,0.0352,588,2019-08-07 16:49:23:944
-6.3741,-6.9257,0.6923,-0.2507,-0.3041,0.1777,-0.0495,-0.0176,0.0352,592,2019-08-07 16:49:23:948
-6.3741,-6.9257,0.6923,-0.2507,-0.3041,0.1777,-0.042,-0.0038,0.0341,598,2019-08-07 16:49:23:954
-6.3502,-6.8636,0.7065,-0.2413,-0.3574,0.0965,-0.042,-0.0038,0.0341,602,2019-08-07 16:49:23:958
-6.3502,-6.8636,0.7065,-0.2413,-0.3574,0.0965,-0.0324,0.0058,0.0288,608,2019-08-07 16:49:23:964
-6.3502,-6.8636,0.7065,-0.2413,-0.3574,0.0965,-0.0324,0.0058,0.0288,613,2019-08-07 16:49:23:969
-6.4315,-6.8111,0.7206,-0.2413,-0.3574,0.0965,-0.0282,0.0047,0.0277,618,2019-08-07 16:49:23:974
-6.4315,-6.8111,0.7206,-0.2413,-0.3574,0.0965,-0.0282,0.0047,0.0277,622,2019-08-07 16:49:23:978
-6.4076,-6.8684,0.7347,-0.2033,-0.3582,0.0534,-0.0356,-0.0049,0.0298,628,2019-08-07 16:49:23:984
-6.4076,-6.8684,0.7347,-0.2033,-0.3582,0.0534,-0.0356,-0.0049,0.0298,633,2019-08-07 16:49:23:989
-6.4076,-6.8684,0.7347,-0.2033,-0.3582,0.0534,-0.0388,-0.0219,0.0341,638,2019-08-07 16:49:23:994
-6.4219,-6.8923,0.7583,-0.1939,-0.3111,0.0636,-0.0388,-0.0219,0.0341,643,2019-08-07 16:49:23:999
-6.4219,-6.8923,0.7583,-0.1939,-0.3111,0.0636,-0.042,-0.0357,0.0394,648,2019-08-07 16:49:24:004
-6.3215,-6.9209,0.7159,-0.1939,-0.3111,0.0636,-0.042,-0.0357,0.0394,653,2019-08-07 16:49:24:009
-6.3215,-6.9209,0.7159,-0.1939,-0.3111,0.0636,-0.0346,-0.0496,0.0447,657,2019-08-07 16:49:24:013
-6.3215,-6.9209,0.7159,-0.1939,-0.3111,0.0636,-0.0346,-0.0496,0.0447,663,2019-08-07 16:49:24:019
-6.2067,-6.9782,0.7253,-0.3856,-0.2444,0.0304,-0.0346,-0.0496,0.0447,667,2019-08-07 16:49:24:023
-6.2067,-6.9782,0.7253,-0.3856,-0.2444,0.0304,-0.025,-0.0496,0.0522,673,2019-08-07 16:49:24:029
-6.2115,-7.0116,0.5933,-0.3856,-0.2444,0.0304,-0.025,-0.0496,0.0522,678,2019-08-07 16:49:24:034
-6.2115,-7.0116,0.5933,-0.3856,-0.2444,0.0304,-0.0229,-0.0347,0.0511,683,2019-08-07 16:49:24:039
-6.2115,-7.0116,0.5933,-0.4156,-0.2196,0.112,-0.0229,-0.0347,0.0511,687,2019-08-07 16:49:24:043
-6.2689,-6.9591,0.6687,-0.4156,-0.2196,0.112,-0.0186,-0.0144,0.0501,693,2019-08-07 16:49:24:049
-6.2689,-6.9591,0.6687,-0.4156,-0.2196,0.112,-0.0186,-0.0144,0.0501,698,2019-08-07 16:49:24:054
-6.2689,-6.9591,0.6687,-0.4156,-0.2196,0.112,-0.0154,-0.0059,0.0522,702,2019-08-07 16:49:24:058
-6.3454,-6.9782,0.6357,-0.2738,-0.2185,0.1575,-0.0154,-0.0059,0.0522,708,2019-08-07 16:49:24:064
-6.3454,-6.9782,0.6357,-0.2738,-0.2185,0.1575,-0.0154,-0.0027,0.049,713,2019-08-07 16:49:24:069
-6.3981,-6.9639,0.598,-0.2738,-0.2185,0.1575,-0.0154,-0.0027,0.049,718,2019-08-07 16:49:24:074
-6.3981,-6.9639,0.598,-0.2738,-0.2185,0.1575,-0.0154,-0.0027,0.049,723,2019-08-07 16:49:24:079
-6.3981,-6.9639,0.598,-0.1465,-0.2509,0.1258,-0.0239,0.0026,0.0394,728,2019-08-07 16:49:24:084
-6.4507,-6.9496,0.664,-0.1465,-0.2509,0.1258,-0.0239,0.0026,0.0394,732,2019-08-07 16:49:24:088
-6.4507,-6.9496,0.664,-0.1465,-0.2509,0.1258,-0.026,5.0E-4,0.0416,738,2019-08-07 16:49:24:094
-6.4507,-6.9496,0.664,-0.1465,-0.2509,0.1258,-0.026,5.0E-4,0.0416,742,2019-08-07 16:49:24:098
-6.4316,-6.9973,0.6546,-0.1624,-0.2313,0.1495,-0.025,0.0026,0.0405,748,2019-08-07 16:49:24:104
-6.4316,-6.9973,0.6546,-0.1624,-0.2313,0.1495,-0.025,0.0026,0.0405,753,2019-08-07 16:49:24:109
-6.4746,-7.0689,0.7064,-0.1624,-0.2313,0.1495,-0.0186,0.0026,0.0373,757,2019-08-07 16:49:24:113
-6.4746,-7.0689,0.7064,-0.1624,-0.2313,0.1495,-0.0186,0.0026,0.0373,763,2019-08-07 16:49:24:119
-6.4746,-7.0689,0.7064,-0.1581,-0.0835,0.0613,-0.0058,-0.0017,0.0352,767,2019-08-07 16:49:24:123
-6.4268,-7.0689,0.7441,-0.1581,-0.0835,0.0613,-0.0058,-0.0017,0.0352,773,2019-08-07 16:49:24:129
-6.4268,-7.0689,0.7441,-0.1581,-0.0835,0.0613,0.0048,-0.0123,0.0234,778,2019-08-07 16:49:24:134
-6.4746,-7.0594,0.73,-0.1581,-0.0835,0.0613,0.0048,-0.0123,0.0234,783,2019-08-07 16:49:24:139
-6.4746,-7.0594,0.73,-0.1331,-0.1564,0.0295,0.0048,-0.0123,0.0234,787,2019-08-07 16:49:24:143
-6.4746,-7.0594,0.73,-0.1331,-0.1564,0.0295,0.0091,-0.0315,0.0181,794,2019-08-07 16:49:24:150
-6.4699,-7.0641,0.697,-0.1331,-0.1564,0.0295,0.0091,-0.0315,0.0181,797,2019-08-07 16:49:24:153
-6.4699,-7.0641,0.697,-0.1331,-0.1564,0.0295,0.0166,-0.0325,0.0149,803,2019-08-07 16:49:24:159
-6.4316,-7.045,0.7159,-0.2353,-0.1303,0.0537,0.0166,-0.0325,0.0149,807,2019-08-07 16:49:24:163
-6.4316,-7.045,0.7159,-0.2353,-0.1303,0.0537,0.023,-0.0315,0.0085,813,2019-08-07 16:49:24:169
-6.4316,-7.045,0.7159,-0.2353,-0.1303,0.0537,0.023,-0.0315,0.0085,817,2019-08-07 16:49:24:173
-6.4412,-6.9734,0.6876,-0.2353,-0.1303,0.0537,0.0293,-0.0304,0.0053,823,2019-08-07 16:49:24:179
-6.4412,-6.9734,0.6876,-0.2449,-0.1724,0.0755,0.0293,-0.0304,0.0053,827,2019-08-07 16:49:24:183
-6.3646,-7.0068,0.7394,-0.2449,-0.1724,0.0755,0.0315,-0.0294,0.0032,833,2019-08-07 16:49:24:189
-6.3646,-7.0068,0.7394,-0.2449,-0.1724,0.0755,0.0315,-0.0294,0.0032,837,2019-08-07 16:49:24:193
-6.3646,-7.0068,0.7394,-0.2449,-0.1724,0.0755,0.0315,-0.0294,0.0032,843,2019-08-07 16:49:24:199
-6.3838,-6.9591,0.6593,-0.2589,-0.2148,0.1441,0.0272,-0.0166,0.0021,847,2019-08-07 16:49:24:203
-6.3838,-6.9591,0.6593,-0.2589,-0.2148,0.1441,0.0272,-0.0166,0.0021,852,2019-08-07 16:49:24:208
-6.3838,-6.9591,0.6593,-0.2589,-0.2148,0.1441,0.0272,-0.0059,-0.0043,858,2019-08-07 16:49:24:214
-6.379,-6.9973,0.7394,-0.2589,-0.2148,0.1441,0.0272,-0.0059,-0.0043,863,2019-08-07 16:49:24:219
-6.379,-6.9973,0.7394,-0.301,-0.1914,0.1156,0.0293,-6.0E-4,-0.0096,868,2019-08-07 16:49:24:224
-6.3455,-7.0068,0.7111,-0.301,-0.1914,0.1156,0.0293,-6.0E-4,-0.0096,873,2019-08-07 16:49:24:229
-6.3455,-7.0068,0.7111,-0.301,-0.1914,0.1156,0.0293,0.0069,-0.0106,877,2019-08-07 16:49:24:233
-6.3455,-7.0068,0.7111,-0.301,-0.1914,0.1156,0.0293,0.0069,-0.0106,883,2019-08-07 16:49:24:239
-6.3886,-7.0021,0.8148,-0.2512,-0.1451,0.029,0.0293,0.0069,-0.0106,888,2019-08-07 16:49:24:244
-6.3886,-7.0021,0.8148,-0.2512,-0.1451,0.029,0.0261,0.0101,-0.0128,893,2019-08-07 16:49:24:249
-6.4029,-7.0116,0.8101,-0.2512,-0.1451,0.029,0.0261,0.0101,-0.0128,898,2019-08-07 16:49:24:254
-6.4029,-7.0116,0.8101,-0.2512,-0.1451,0.029,0.0315,-0.0027,-0.0096,902,2019-08-07 16:49:24:258
-6.4029,-7.0116,0.8101,-0.2351,-0.2036,-0.0049,0.0315,-0.0027,-0.0096,908,2019-08-07 16:49:24:264
-6.3886,-6.983,0.8196,-0.2351,-0.2036,-0.0049,0.0357,-0.0144,-0.0064,913,2019-08-07 16:49:24:269
-6.3886,-6.983,0.8196,-0.2351,-0.2036,-0.0049,0.0357,-0.0144,-0.0064,917,2019-08-07 16:49:24:273
-6.3886,-6.9782,0.7818,-0.2351,-0.2036,-0.0049,0.0389,-0.0176,-0.0053,923,2019-08-07 16:49:24:279
-6.3886,-6.9782,0.7818,-0.2435,-0.2706,0.0172,0.0389,-0.0176,-0.0053,927,2019-08-07 16:49:24:283
-6.3886,-6.9782,0.7818,-0.2435,-0.2706,0.0172,0.04,-0.023,-0.0043,933,2019-08-07 16:49:24:289
-6.4029,-6.9209,0.7724,-0.2435,-0.2706,0.0172,0.04,-0.023,-0.0043,937,2019-08-07 16:49:24:293
-6.4029,-6.9209,0.7724,-0.2435,-0.2706,0.0172,0.0443,-0.0144,-0.0043,944,2019-08-07 16:49:24:300
-6.403,-6.8827,0.7536,-0.2331,-0.2942,0.0774,0.0443,-0.0144,-0.0043,948,2019-08-07 16:49:24:304
-6.403,-6.8827,0.7536,-0.2331,-0.2942,0.0774,0.04,-0.0091,-0.0085,953,2019-08-07 16:49:24:309
-6.403,-6.8827,0.7536,-0.2331,-0.2942,0.0774,0.04,-0.0091,-0.0085,958,2019-08-07 16:49:24:314
-6.4125,-6.8063,0.7724,-0.2331,-0.2942,0.0774,0.0411,-0.0134,-0.0085,963,2019-08-07 16:49:24:319
-6.4125,-6.8063,0.7724,-0.2323,-0.318,0.0186,0.0411,-0.0134,-0.0085,967,2019-08-07 16:49:24:323
-6.4125,-6.8063,0.7724,-0.2323,-0.318,0.0186,0.0432,-0.0091,-0.0117,973,2019-08-07 16:49:24:329
-6.4556,-6.8732,0.7394,-0.2323,-0.318,0.0186,0.0432,-0.0091,-0.0117,978,2019-08-07 16:49:24:334
-6.4556,-6.8732,0.7394,-0.2323,-0.318,0.0186,0.0379,0.0015,-0.0181,983,2019-08-07 16:49:24:339
-6.4412,-6.8827,0.73,-0.1924,-0.2949,0.1141,0.0379,0.0015,-0.0181,987,2019-08-07 16:49:24:343
-6.4412,-6.8827,0.73,-0.1924,-0.2949,0.1141,0.0315,0.0037,-0.0181,993,2019-08-07 16:49:24:349
-6.4412,-6.8827,0.73,-0.1924,-0.2949,0.1141,0.0315,0.0037,-0.0181,997,2019-08-07 16:49:24:353
-6.3886,-6.8827,0.8431,-0.1924,-0.2949,0.1141,0.0315,0.0037,-0.0181,1002,2019-08-07 16:49:24:358
-6.3886,-6.8827,0.8431,-0.1924,-0.2949,0.1141,0.0379,5.0E-4,-0.0202,1008,2019-08-07 16:49:24:364
-6.3886,-6.8827,0.8431,-0.228,-0.2586,-0.0462,0.0379,5.0E-4,-0.0202,1013,2019-08-07 16:49:24:369
-6.3838,-6.8779,0.8573,-0.228,-0.2586,-0.0462,0.0421,-0.0049,-0.0224,1017,2019-08-07 16:49:24:373
-6.3838,-6.8779,0.8573,-0.228,-0.2586,-0.0462,0.0421,-0.0049,-0.0224,1023,2019-08-07 16:49:24:379
-6.3886,-6.8111,0.8054,-0.228,-0.2586,-0.0462,0.0421,-0.0176,-0.016,1027,2019-08-07 16:49:24:383
-6.3886,-6.8111,0.8054,-0.1869,-0.3796,0.0463,0.0421,-0.0176,-0.016,1033,2019-08-07 16:49:24:389
-6.3886,-6.8111,0.8054,-0.1869,-0.3796,0.0463,0.0336,-0.0368,-0.0149,1037,2019-08-07 16:49:24:393
-6.3552,-6.7634,0.829,-0.1869,-0.3796,0.0463,0.0336,-0.0368,-0.0149,1043,2019-08-07 16:49:24:399
-6.3552,-6.7634,0.829,-0.1869,-0.3796,0.0463,0.0293,-0.0496,-0.0032,1048,2019-08-07 16:49:24:404
-6.3121,-6.8016,0.8148,-0.2902,-0.4136,0.0187,0.0293,-0.0496,-0.0032,1053,2019-08-07 16:49:24:409
-6.3121,-6.8016,0.8148,-0.2902,-0.4136,0.0187,0.0283,-0.0443,0.0011,1057,2019-08-07 16:49:24:413
-6.3121,-6.8016,0.8148,-0.2902,-0.4136,0.0187,0.0283,-0.0443,0.0011,1063,2019-08-07 16:49:24:419
-6.2021,-6.7681,0.7583,-0.2902,-0.4136,0.0187,0.0347,-0.0219,0.0021,1067,2019-08-07 16:49:24:423
-6.2021,-6.7681,0.7583,-0.3946,-0.461,0.0943,0.0347,-0.0219,0.0021,1073,2019-08-07 16:49:24:429
-6.2643,-6.7347,0.7677,-0.3946,-0.461,0.0943,0.0336,0.009,0.0021,1077,2019-08-07 16:49:24:433
-6.2643,-6.7347,0.7677,-0.3946,-0.461,0.0943,0.0336,0.009,0.0021,1083,2019-08-07 16:49:24:439
-6.2643,-6.7347,0.7677,-0.3946,-0.461,0.0943,0.0347,0.0335,0.0032,1088,2019-08-07 16:49:24:444
-6.3552,-6.7681,0.7771,-0.2711,-0.4121,0.1022,0.0347,0.0335,0.0032,1093,2019-08-07 16:49:24:449
-6.3552,-6.7681,0.7771,-0.2711,-0.4121,0.1022,0.0272,0.0346,0.0032,1098,2019-08-07 16:49:24:454
-6.47,-6.7395,0.8667,-0.2711,-0.4121,0.1022,0.0272,0.0346,0.0032,1103,2019-08-07 16:49:24:459
-6.47,-6.7395,0.8667,-0.2711,-0.4121,0.1022,0.0219,0.025,0.0032,1107,2019-08-07 16:49:24:463
-6.47,-6.792,0.8808,-0.1677,-0.4103,-0.0159,0.0219,0.025,0.0032,1113,2019-08-07 16:49:24:469
-6.47,-6.792,0.8808,-0.1677,-0.4103,-0.0159,0.023,0.009,0.0096,1118,2019-08-07 16:49:24:474
-6.47,-6.792,0.8808,-0.1677,-0.4103,-0.0159,0.023,0.009,0.0096,1122,2019-08-07 16:49:24:478
-6.4461,-6.7586,0.8714,-0.1677,-0.4103,-0.0159,0.0208,-0.008,0.0043,1128,2019-08-07 16:49:24:484
-6.4461,-6.7586,0.8714,-0.222,-0.4133,0.0246,0.0208,-0.008,0.0043,1133,2019-08-07 16:49:24:489
-6.4461,-6.7586,0.8714,-0.222,-0.4133,0.0246,0.0208,-0.008,0.0043,1138,2019-08-07 16:49:24:494
-6.345,-6.773,0.8998,-0.222,-0.4133,0.0246,0.0155,-0.0208,0.0107,1143,2019-08-07 16:49:24:499
-6.345,-6.773,0.8998,-0.222,-0.4133,0.0246,0.0155,-0.0208,0.0107,1148,2019-08-07 16:49:24:504
-6.345,-6.773,0.8998,-0.2719,-0.4065,-0.0273,0.0134,-0.023,0.0149,1153,2019-08-07 16:49:24:509
-6.3307,-6.8064,0.9281,-0.2719,-0.4065,-0.0273,0.0134,-0.023,0.0149,1158,2019-08-07 16:49:24:514
-6.3307,-6.8064,0.9281,-0.2719,-0.4065,-0.0273,0.0091,-0.0251,0.0224,1163,2019-08-07 16:49:24:519
-6.3307,-6.8064,0.9281,-0.2719,-0.4065,-0.0273,0.0091,-0.0251,0.0224,1168,2019-08-07 16:49:24:524
-6.3163,-6.8637,0.8479,-0.3271,-0.308,0.0203,0.0091,-0.0251,0.0224,1172,2019-08-07 16:49:24:528
-6.3163,-6.8637,0.8479,-0.3271,-0.308,0.0203,0.0016,-0.0144,0.0234,1178,2019-08-07 16:49:24:534
-6.3402,-6.7873,0.9139,-0.3271,-0.308,0.0203,0.0016,-0.0144,0.0234,1183,2019-08-07 16:49:24:539
-6.3402,-6.7873,0.9139,-0.3271,-0.308,0.0203,0.0016,-0.0144,0.0234,1187,2019-08-07 16:49:24:543
-6.3402,-6.7873,0.9139,-0.3348,-0.3528,0.0314,-0.0026,0.0015,0.0192,1193,2019-08-07 16:49:24:549
-6.3498,-6.835,0.8197,-0.3348,-0.3528,0.0314,-0.0026,0.0015,0.0192,1198,2019-08-07 16:49:24:554
-6.3498,-6.835,0.8197,-0.3348,-0.3528,0.0314,-0.0079,0.0218,0.0128,1203,2019-08-07 16:49:24:559
-6.4216,-6.8112,0.8668,-0.3348,-0.3528,0.0314,-0.0079,0.0218,0.0128,1208,2019-08-07 16:49:24:564
-6.4216,-6.8112,0.8668,-0.2417,-0.289,0.0221,-0.0133,0.041,0.0096,1213,2019-08-07 16:49:24:569
-6.4216,-6.8112,0.8668,-0.2417,-0.289,0.0221,-0.0133,0.041,0.0096,1218,2019-08-07 16:49:24:574
-6.4311,-6.8685,0.9092,-0.2417,-0.289,0.0221,-0.0175,0.041,0.0053,1223,2019-08-07 16:49:24:579
-6.4311,-6.8685,0.9092,-0.2417,-0.289,0.0221,-0.0175,0.041,0.0053,1228,2019-08-07 16:49:24:584
-6.4311,-6.8685,0.9092,-0.2417,-0.289,0.0221,-0.0175,0.041,0.0053,1232,2019-08-07 16:49:24:588
-6.5555,-6.835,0.8762,-0.0861,-0.3308,0.0048,-0.0165,0.0367,0.0064,1238,2019-08-07 16:49:24:594
-6.5555,-6.835,0.8762,-0.0861,-0.3308,0.0048,-0.0165,0.0367,0.0064,1242,2019-08-07 16:49:24:598
-6.5364,-6.8398,0.8904,-0.0861,-0.3308,0.0048,-0.0133,0.0186,0.0021,1248,2019-08-07 16:49:24:604
-6.5364,-6.8398,0.8904,-0.107,-0.3106,-0.0233,-0.0133,0.0186,0.0021,1252,2019-08-07 16:49:24:608
-6.5364,-6.8398,0.8904,-0.107,-0.3106,-0.0233,-0.0101,-0.0112,0.0096,1258,2019-08-07 16:49:24:614
-6.479,-6.8732,0.8857,-0.107,-0.3106,-0.0233,-0.0101,-0.0112,0.0096,1262,2019-08-07 16:49:24:618
-6.479,-6.8732,0.8857,-0.107,-0.3106,-0.0233,-0.0037,-0.0336,0.0128,1268,2019-08-07 16:49:24:624
-6.479,-6.8732,0.8857,-0.2665,-0.2753,0.0265,-0.0037,-0.0336,0.0128,1273,2019-08-07 16:49:24:629
-6.3593,-6.8923,0.8715,-0.2665,-0.2753,0.0265,0.0048,-0.0389,0.0107,1279,2019-08-07 16:49:24:635
-6.3593,-6.8923,0.8715,-0.2665,-0.2753,0.0265,0.0048,-0.0389,0.0107,1283,2019-08-07 16:49:24:639
-6.3785,-6.9066,0.8527,-0.2665,-0.2753,0.0265,0.0048,-0.0389,0.0107,1288,2019-08-07 16:49:24:644
-6.3785,-6.9066,0.8527,-0.3154,-0.269,0.0694,0.0027,-0.0294,0.0117,1293,2019-08-07 16:49:24:649
-6.3785,-6.9066,0.8527,-0.3154,-0.269,0.0694,0.0027,-0.0294,0.0117,1298,2019-08-07 16:49:24:654
-6.3306,-6.8732,0.8244,-0.3154,-0.269,0.0694,0.0027,-0.0123,0.0053,1303,2019-08-07 16:49:24:659
-6.3306,-6.8732,0.8244,-0.3154,-0.269,0.0694,0.0027,-0.0123,0.0053,1308,2019-08-07 16:49:24:664
-6.3737,-6.878,0.8055,-0.244,-0.2685,0.094,-0.0015,0.0122,-0.0011,1313,2019-08-07 16:49:24:669
-6.3737,-6.878,0.8055,-0.244,-0.2685,0.094,-0.0015,0.0122,-0.0011,1318,2019-08-07 16:49:24:674
-6.3737,-6.878,0.8055,-0.244,-0.2685,0.094,-0.0015,0.0122,-0.0011,1323,2019-08-07 16:49:24:679
-6.3737,-6.878,0.8055,-0.244,-0.2685,0.094,-0.0015,0.0282,-0.0149,1327,2019-08-07 16:49:24:683
-6.4407,-6.8637,0.8904,-0.2431,-0.327,0.0245,-0.0015,0.0282,-0.0149,1333,2019-08-07 16:49:24:689
-6.4407,-6.8637,0.8904,-0.2431,-0.327,0.0245,-0.0047,0.0271,-0.0149,1338,2019-08-07 16:49:24:694
-6.4694,-6.8398,0.9281,-0.2431,-0.327,0.0245,-0.0047,0.0271,-0.0149,1343,2019-08-07 16:49:24:699
-6.4694,-6.8398,0.9281,-0.2431,-0.327,0.0245,-0.0111,0.0154,-0.016,1348,2019-08-07 16:49:24:704
-6.4694,-6.8398,0.9281,-0.2431,-0.327,0.0245,-0.0111,0.0154,-0.016,1353,2019-08-07 16:49:24:709
-6.4359,-6.9066,0.9045,-0.2081,-0.2573,-0.0258,-0.0165,-0.0144,-0.0128,1357,2019-08-07 16:49:24:713
-6.4359,-6.9066,0.9045,-0.2081,-0.2573,-0.0258,-0.0165,-0.0144,-0.0128,1363,2019-08-07 16:49:24:719
-6.4455,-6.9019,1.0506,-0.1975,-0.2629,-0.1711,-0.0165,-0.0144,-0.0128,1368,2019-08-07 16:49:24:724
-6.4455,-6.9019,1.0506,-0.1975,-0.2629,-0.1711,-0.0111,-0.0485,-0.0064,1373,2019-08-07 16:49:24:729
-6.345,-6.9448,0.9799,-0.1975,-0.2629,-0.1711,-0.0111,-0.0485,-0.0064,1378,2019-08-07 16:49:24:734
-6.345,-6.9448,0.9799,-0.3151,-0.2017,-0.0126,-0.0122,-0.0816,0.0011,1383,2019-08-07 16:49:24:739
-6.345,-6.9448,0.9799,-0.3151,-0.2017,-0.0126,-0.0122,-0.0816,0.0011,1387,2019-08-07 16:49:24:743
-6.2589,-7.026,0.8527,-0.3151,-0.2017,-0.0126,-0.0143,-0.0943,0.0117,1393,2019-08-07 16:49:24:749
-6.2589,-7.026,0.8527,-0.4341,-0.1492,0.0447,-0.0143,-0.0943,0.0117,1398,2019-08-07 16:49:24:754
-6.2589,-7.026,0.8527,-0.4341,-0.1492,0.0447,-0.0197,-0.0794,0.0096,1403,2019-08-07 16:49:24:759
-6.2158,-6.9592,0.7725,-0.4341,-0.1492,0.0447,-0.0197,-0.0794,0.0096,1407,2019-08-07 16:49:24:763
-6.2158,-6.9592,0.7725,-0.4341,-0.1492,0.0447,-0.0111,-0.0528,0.0117,1413,2019-08-07 16:49:24:769
-6.1919,-6.9448,0.782,-0.4477,-0.2206,0.1169,-0.0111,-0.0528,0.0117,1417,2019-08-07 16:49:24:773
-6.1919,-6.9448,0.782,-0.4477,-0.2206,0.1169,-0.009,0.0069,0.0107,1423,2019-08-07 16:49:24:779
-6.2636,-6.9401,0.7207,-0.4477,-0.2206,0.1169,-0.009,0.0069,0.0107,1428,2019-08-07 16:49:24:784
-6.2636,-6.9401,0.7207,-0.4477,-0.2206,0.1169,-0.009,0.0069,0.0107,1433,2019-08-07 16:49:24:789
-6.2636,-6.9401,0.7207,-0.3097,-0.2489,0.1424,-0.0079,0.0463,0.0043,1437,2019-08-07 16:49:24:793
-6.2636,-6.9401,0.7207,-0.3097,-0.2489,0.1424,-0.0079,0.0463,0.0043,1443,2019-08-07 16:49:24:799
-6.4263,-6.8732,0.8338,-0.3097,-0.2489,0.1424,-0.0101,0.0644,0.0043,1447,2019-08-07 16:49:24:803
-6.4263,-6.8732,0.8338,-0.0821,-0.3009,0.0473,-0.0101,0.0644,0.0043,1453,2019-08-07 16:49:24:809
-6.5794,-6.8685,0.8055,-0.0821,-0.3009,0.0473,-0.0133,0.0612,-0.0043,1457,2019-08-07 16:49:24:813
-6.5794,-6.8685,0.8055,-0.0821,-0.3009,0.0473,-0.0133,0.0612,-0.0043,1463,2019-08-07 16:49:24:819
-6.5794,-6.8685,0.8055,0.0129,-0.277,0.0374,-0.0133,0.0324,-0.0096,1468,2019-08-07 16:49:24:824
-6.632,-6.878,0.881,0.0129,-0.277,0.0374,-0.0133,0.0324,-0.0096,1473,2019-08-07 16:49:24:829
-6.632,-6.878,0.881,0.0127,-0.2581,0.0298,-0.0133,0.0324,-0.0096,1477,2019-08-07 16:49:24:833
-6.6177,-6.9066,0.8385,0.0127,-0.2581,0.0298,-0.009,-0.0144,-0.0085,1483,2019-08-07 16:49:24:839
-6.6177,-6.9066,0.8385,0.0127,-0.2581,0.0298,-0.009,-0.0144,-0.0085,1488,2019-08-07 16:49:24:844
-6.6177,-6.9066,0.8385,0.0127,-0.2581,0.0298,-0.009,-0.0144,-0.0085,1493,2019-08-07 16:49:24:849
-6.5268,-6.9353,0.8385,-0.1392,-0.2445,0.0369,0.0016,-0.0453,-0.0106,1498,2019-08-07 16:49:24:854
-6.5268,-6.9353,0.8385,-0.1392,-0.2445,0.0369,0.0016,-0.0453,-0.0106,1502,2019-08-07 16:49:24:858
-6.4072,-6.9639,0.7961,-0.1392,-0.2445,0.0369,0.0091,-0.056,-0.0117,1508,2019-08-07 16:49:24:864
-6.4072,-6.9639,0.7961,-0.1392,-0.2445,0.0369,0.0091,-0.056,-0.0117,1513,2019-08-07 16:49:24:869
-6.4072,-6.9639,0.7961,-0.2847,-0.2318,0.0688,0.0144,-0.0464,-0.0096,1518,2019-08-07 16:49:24:874
-6.3258,-6.9257,0.782,-0.2847,-0.2318,0.0688,0.0144,-0.0464,-0.0096,1523,2019-08-07 16:49:24:879
-6.3258,-6.9257,0.782,-0.2978,-0.2325,0.1055,0.0144,-0.0347,-0.0117,1528,2019-08-07 16:49:24:884
-6.3258,-6.9257,0.782,-0.2978,-0.2325,0.1055,0.0144,-0.0347,-0.0117,1533,2019-08-07 16:49:24:889
-6.3497,-6.9066,0.8385,-0.2978,-0.2325,0.1055,0.0208,-0.0123,-0.0128,1537,2019-08-07 16:49:24:893
-6.3497,-6.9066,0.8385,-0.2978,-0.2325,0.1055,0.0208,-0.0123,-0.0128,1543,2019-08-07 16:49:24:899
-6.3115,-6.8923,0.8244,-0.3098,-0.2818,0.0448,0.0208,-0.0123,-0.0128,1547,2019-08-07 16:49:24:903
-6.3115,-6.8923,0.8244,-0.3098,-0.2818,0.0448,0.0208,-0.007,-0.0106,1553,2019-08-07 16:49:24:909
-6.3115,-6.8923,0.8244,-0.3098,-0.2818,0.0448,0.0208,-0.007,-0.0106,1557,2019-08-07 16:49:24:913
-6.3832,-6.8303,0.848,-0.3098,-0.2818,0.0448,0.0112,-6.0E-4,-0.0128,1563,2019-08-07 16:49:24:919
-6.3832,-6.8303,0.848,-0.27,-0.3545,0.0097,0.0112,-6.0E-4,-0.0128,1568,2019-08-07 16:49:24:924
-6.4359,-6.8016,0.8857,-0.27,-0.3545,0.0097,0.0048,0.0037,-0.0117,1573,2019-08-07 16:49:24:929
-6.4359,-6.8016,0.8857,-0.27,-0.3545,0.0097,0.0048,0.0037,-0.0117,1578,2019-08-07 16:49:24:934
-6.4359,-6.8016,0.8857,-0.27,-0.3545,0.0097,0.0059,0.0058,-0.0043,1582,2019-08-07 16:49:24:938
-6.3641,-6.8732,0.9234,-0.2644,-0.317,0.0098,0.0059,0.0058,-0.0043,1588,2019-08-07 16:49:24:944
-6.3641,-6.8732,0.9234,-0.2644,-0.317,0.0098,0.0059,-0.0017,-0.0106,1593,2019-08-07 16:49:24:949
-6.3641,-6.8732,0.9234,-0.2644,-0.317,0.0098,0.0059,-0.0017,-0.0106,1598,2019-08-07 16:49:24:954
-6.4263,-6.8446,0.8762,-0.2066,-0.3269,0.0243,0.0059,-0.0017,-0.0106,1602,2019-08-07 16:49:24:958
-6.4263,-6.8446,0.8762,-0.2066,-0.3269,0.0243,0.0091,-0.0102,-0.0064,1608,2019-08-07 16:49:24:964
-6.3976,-6.8541,0.8715,-0.2066,-0.3269,0.0243,0.0091,-0.0102,-0.0064,1613,2019-08-07 16:49:24:969
-6.3976,-6.8541,0.8715,-0.2489,-0.3177,0.0648,0.0091,-0.0187,-0.0032,1618,2019-08-07 16:49:24:974
-6.3976,-6.8541,0.8715,-0.2489,-0.3177,0.0648,0.0091,-0.0187,-0.0032,1623,2019-08-07 16:49:24:979
-6.3689,-6.878,0.7961,-0.2489,-0.3177,0.0648,0.0048,-0.0166,-0.0053,1628,2019-08-07 16:49:24:984
-6.3689,-6.878,0.7961,-0.2489,-0.3177,0.0648,0.0048,-0.0166,-0.0053,1633,2019-08-07 16:49:24:989
-6.4071,-6.8923,0.8055,-0.2241,-0.28,0.1001,0.0038,-0.0134,-0.0053,1638,2019-08-07 16:49:24:994
-6.4071,-6.8923,0.8055,-0.2241,-0.28,0.1001,0.0038,-0.0134,-0.0053,1643,2019-08-07 16:49:24:999
-6.4071,-6.8923,0.8055,-0.2241,-0.28,0.1001,0.0038,-0.0134,-0.0053,1648,2019-08-07 16:49:25:004
-6.3354,-6.8971,0.8574,-0.2241,-0.28,0.1001,0.0091,-0.0155,-0.0043,1653,2019-08-07 16:49:25:009
-6.3354,-6.8971,0.8574,-0.2997,-0.2567,0.1878,0.0091,-0.0155,-0.0043,1657,2019-08-07 16:49:25:013
-6.3641,-6.9448,0.716,-0.2997,-0.2567,0.1878,0.0091,-0.0102,-0.0011,1663,2019-08-07 16:49:25:019
-6.3641,-6.9448,0.716,-0.2997,-0.2567,0.1878,0.0091,-0.0102,-0.0011,1668,2019-08-07 16:49:25:024
-6.3641,-6.9448,0.716,-0.2997,-0.2567,0.1878,0.0091,0.0037,-0.0043,1673,2019-08-07 16:49:25:029
-6.388,-6.8589,0.8338,-0.2997,-0.2567,0.1878,0.0091,0.0037,-0.0043,1678,2019-08-07 16:49:25:034
-6.388,-6.8589,0.8338,-0.2274,-0.3525,0.0191,0.0144,-6.0E-4,-0.0043,1683,2019-08-07 16:49:25:039
-6.388,-6.8589,0.8338,-0.2274,-0.3525,0.0191,0.0144,-6.0E-4,-0.0043,1688,2019-08-07 16:49:25:044
-6.3736,-6.8303,0.7867,-0.2274,-0.3525,0.0191,0.0144,-6.0E-4,-0.0043,1693,2019-08-07 16:49:25:049
-6.3736,-6.8303,0.7867,-0.2274,-0.3525,0.0191,0.0102,-0.0155,0.0011,1698,2019-08-07 16:49:25:054
-6.3689,-6.8828,0.7584,-0.3135,-0.3379,0.1112,6.0E-4,-0.0166,0.0064,1703,2019-08-07 16:49:25:059
-6.3689,-6.8828,0.7584,-0.3135,-0.3379,0.1112,6.0E-4,-0.0166,0.0064,1708,2019-08-07 16:49:25:064
-6.3689,-6.8828,0.7584,-0.3135,-0.3379,0.1112,6.0E-4,-0.0166,0.0064,1712,2019-08-07 16:49:25:068
-6.321,-6.8876,0.8668,-0.3135,-0.3379,0.1112,0.0048,-0.0134,0.0043,1718,2019-08-07 16:49:25:074
-6.321,-6.8876,0.8668,-0.3518,-0.2946,0.0192,0.0048,-0.0134,0.0043,1723,2019-08-07 16:49:25:079
-6.321,-6.8876,0.8668,-0.3518,-0.2946,0.0192,0.0208,-0.0176,0.0117,1728,2019-08-07 16:49:25:084
-6.2492,-6.878,0.8762,-0.3518,-0.2946,0.0192,0.0208,-0.0176,0.0117,1733,2019-08-07 16:49:25:089
-6.2492,-6.878,0.8762,-0.3518,-0.2946,0.0192,0.0208,-0.0176,0.0117,1738,2019-08-07 16:49:25:094
-6.278,-6.8541,0.7961,-0.372,-0.2786,0.0669,0.0251,-0.0102,0.016,1743,2019-08-07 16:49:25:099
-6.278,-6.8541,0.7961,-0.372,-0.2786,0.0669,0.0251,-0.0102,0.016,1748,2019-08-07 16:49:25:104
-6.278,-6.8541,0.7961,-0.2728,-0.3823,0.0878,0.0219,-0.0038,0.0192,1753,2019-08-07 16:49:25:109
-6.3497,-6.8207,0.8338,-0.2728,-0.3823,0.0878,0.0219,-0.0038,0.0192,1757,2019-08-07 16:49:25:113
-6.3497,-6.8207,0.8338,-0.2728,-0.3823,0.0878,0.0166,-0.0017,0.0245,1763,2019-08-07 16:49:25:119
-6.3784,-6.8255,0.7678,-0.2728,-0.3823,0.0878,0.0166,-0.0017,0.0245,1767,2019-08-07 16:49:25:123
-6.3784,-6.8255,0.7678,-0.2813,-0.3356,0.1229,0.0048,-0.007,0.0256,1773,2019-08-07 16:49:25:129
-6.3784,-6.8255,0.7678,-0.2813,-0.3356,0.1229,0.0048,-0.007,0.0256,1778,2019-08-07 16:49:25:134
-6.3545,-6.8494,0.7773,-0.283,-0.3148,0.1469,6.0E-4,5.0E-4,0.0213,1782,2019-08-07 16:49:25:138
-6.3545,-6.8494,0.7773,-0.283,-0.3148,0.1469,6.0E-4,5.0E-4,0.0213,1788,2019-08-07 16:49:25:144
-6.3545,-6.8494,0.7773,-0.283,-0.3148,0.1469,6.0E-4,5.0E-4,0.0213,1793,2019-08-07 16:49:25:149
-6.3545,-6.8971,0.7773,-0.283,-0.3148,0.1469,-0.0026,0.0186,0.0171,1798,2019-08-07 16:49:25:154
-6.3545,-6.8971,0.7773,-0.2714,-0.3461,0.0924,-0.0026,0.0186,0.0171,1803,2019-08-07 16:49:25:159
-6.3449,-6.8494,0.8857,-0.2714,-0.3461,0.0924,-0.0079,0.0346,0.0128,1808,2019-08-07 16:49:25:164
-6.3449,-6.8494,0.8857,-0.2714,-0.3461,0.0924,-0.0079,0.0346,0.0128,1813,2019-08-07 16:49:25:169
-6.3449,-6.8494,0.8857,-0.2714,-0.3461,0.0924,-0.0079,0.0346,0.0139,1817,2019-08-07 16:49:25:173
-6.455,-6.7873,0.9375,-0.188,-0.3729,-0.0219,-0.0079,0.0346,0.0139,1823,2019-08-07 16:49:25:179
-6.455,-6.7873,0.9375,-0.188,-0.3729,-0.0219,-0.0058,0.0122,0.0171,1827,2019-08-07 16:49:25:183
-6.4884,-6.7873,0.9941,-0.1562,-0.3715,-0.0798,-0.0058,0.0122,0.0171,1833,2019-08-07 16:49:25:189
-6.4884,-6.7873,0.9941,-0.1562,-0.3715,-0.0798,-0.0037,-0.0102,0.0213,1837,2019-08-07 16:49:25:193
-6.4597,-6.7825,0.9375,-0.1562,-0.3715,-0.0798,-0.0037,-0.0102,0.0213,1843,2019-08-07 16:49:25:199
-6.4597,-6.7825,0.9375,-0.1562,-0.3715,-0.0798,-0.0037,-0.0102,0.0213,1848,2019-08-07 16:49:25:204
-6.4597,-6.7825,0.9375,-0.1646,-0.387,0.0021,-0.0047,-0.0315,0.0213,1852,2019-08-07 16:49:25:208
-6.4023,-6.8112,0.8715,-0.1646,-0.387,0.0021,-0.0047,-0.0315,0.0213,1858,2019-08-07 16:49:25:214
-6.4023,-6.8112,0.8715,-0.1646,-0.387,0.0021,-0.0058,-0.0496,0.0203,1862,2019-08-07 16:49:25:218
-6.4023,-6.8112,0.8715,-0.1646,-0.387,0.0021,-0.0058,-0.0496,0.0203,1868,2019-08-07 16:49:25:224
-6.3497,-6.8064,0.7914,-0.3011,-0.3459,0.1297,-0.0111,-0.0453,0.0224,1873,2019-08-07 16:49:25:229
-6.3497,-6.8064,0.7914,-0.3011,-0.3459,0.1297,-0.0111,-0.0453,0.0224,1878,2019-08-07 16:49:25:234
-6.3545,-6.8589,0.7867,-0.3011,-0.3459,0.1297,-0.0154,-0.023,0.016,1883,2019-08-07 16:49:25:239
-6.3545,-6.8589,0.7867,-0.3011,-0.3459,0.1297,-0.0154,-0.023,0.016,1888,2019-08-07 16:49:25:244
-6.3545,-6.8589,0.7867,-0.246,-0.3101,0.0882,-0.0143,0.0079,0.0192,1893,2019-08-07 16:49:25:249
-6.4023,-6.835,0.8338,-0.246,-0.3101,0.0882,-0.0143,0.0079,0.0192,1898,2019-08-07 16:49:25:254
-6.4023,-6.835,0.8338,-0.246,-0.3101,0.0882,-0.0143,0.0079,0.0192,1902,2019-08-07 16:49:25:258
-6.4023,-6.835,0.8338,-0.246,-0.3101,0.0882,-0.0111,0.0165,0.0266,1908,2019-08-07 16:49:25:264
-6.5124,-6.7873,0.9988,-0.1307,-0.34,-0.1088,-0.0111,0.0165,0.0266,1913,2019-08-07 16:49:25:269
-6.5124,-6.7873,0.9988,-0.1307,-0.34,-0.1088,-0.0101,0.0154,0.0405,1918,2019-08-07 16:49:25:274
-6.7037,-6.816,1.1591,-0.1307,-0.34,-0.1088,-0.0101,0.0154,0.0405,1923,2019-08-07 16:49:25:279
-6.7037,-6.816,1.1591,-0.1307,-0.34,-0.1088,-0.0101,-0.0176,0.0597,1928,2019-08-07 16:49:25:284
-6.7037,-6.816,1.1591,0.1383,-0.27,-0.3672,-0.0101,-0.0176,0.0597,1933,2019-08-07 16:49:25:289
-6.9094,-6.8923,1.3806,0.1383,-0.27,-0.3672,-0.0101,-0.0176,0.0597,1938,2019-08-07 16:49:25:294
-6.9094,-6.8923,1.3806,0.1383,-0.27,-0.3672,-0.0079,-0.0816,0.0799,1943,2019-08-07 16:49:25:299
-6.9094,-6.8923,1.3806,0.2809,-0.1971,-0.5361,-0.0079,-0.0816,0.0799,1947,2019-08-07 16:49:25:303
-7.1056,-7.0021,1.6163,0.2809,-0.1971,-0.5361,0.0027,-0.1231,0.0927,1953,2019-08-07 16:49:25:309
-7.1056,-7.0021,1.6163,0.2809,-0.1971,-0.5361,0.0027,-0.1231,0.0927,1957,2019-08-07 16:49:25:313
-7.474,-7.3411,2.2951,0.8656,0.2968,-1.5004,0.056,-0.2115,0.1161,1963,2019-08-07 16:49:25:319
-7.474,-7.3411,2.2951,0.8656,0.2968,-1.5004,0.056,-0.2115,0.1161,1968,2019-08-07 16:49:25:324
-7.474,-7.3411,2.2951,0.8656,0.2968,-1.5004,0.1795,-0.3287,0.1502,1973,2019-08-07 16:49:25:329
-8.3782,-7.6323,3.8318,0.8656,0.2968,-1.5004,0.1795,-0.3287,0.1502,1978,2019-08-07 16:49:25:334
-8.3782,-7.6323,3.8318,2.3357,0.7074,-3.6264,0.2935,-0.416,0.179,1983,2019-08-07 16:49:25:339
-9.5168,-7.7946,5.1988,2.3357,0.7074,-3.6264,0.2935,-0.416,0.179,1988,2019-08-07 16:49:25:344
-9.5168,-7.7946,5.1988,2.3357,0.7074,-3.6264,0.2935,-0.416,0.179,1992,2019-08-07 16:49:25:348
-9.5168,-7.7946,5.1988,2.3357,0.7074,-3.6264,0.4981,-0.7292,0.2472,1998,2019-08-07 16:49:25:354
-10.3684,-7.5845,6.2641,4.0862,0.3101,-5.6085,0.4981,-0.7292,0.2472,2003,2019-08-07 16:49:25:359
-10.3684,-7.5845,6.2641,4.0862,0.3101,-5.6085,0.5993,-1.0115,0.3036,2008,2019-08-07 16:49:25:364
-11.3205,-6.9544,7.551,4.0862,0.3101,-5.6085,0.5993,-1.0115,0.3036,2013,2019-08-07 16:49:25:369
-11.3205,-6.9544,7.551,4.7142,-0.1883,-6.4826,0.6408,-1.2661,0.3462,2018,2019-08-07 16:49:25:374
-11.3205,-6.9544,7.551,4.7142,-0.1883,-6.4826,0.6408,-1.2661,0.3462,2023,2019-08-07 16:49:25:379
-11.3205,-6.9544,7.551,4.7142,-0.1883,-6.4826,0.6419,-1.7775,0.4314,2027,2019-08-07 16:49:25:383
-12.5692,-6.1906,9.5968,6.7624,-1.0205,-9.4827,0.6419,-1.7775,0.4314,2033,2019-08-07 16:49:25:389
-12.5692,-6.1906,9.5968,6.7624,-1.0205,-9.4827,0.6419,-1.7775,0.4314,2038,2019-08-07 16:49:25:394
-14.8226,-5.6702,12.5665,6.7624,-1.0205,-9.4827,0.5684,-2.5902,0.5816,2043,2019-08-07 16:49:25:399
-14.8226,-5.6702,12.5665,6.7624,-1.0205,-9.4827,0.5684,-2.5902,0.5816,2048,2019-08-07 16:49:25:404
-14.8226,-5.6702,12.5665,6.7624,-1.0205,-9.4827,0.4714,-3.2976,0.6967,2053,2019-08-07 16:49:25:409
-16.5784,-5.4077,14.6971,9.8292,-1.3711,-12.5217,0.4714,-3.2976,0.6967,2058,2019-08-07 16:49:25:414
-16.5784,-5.4077,14.6971,9.8292,-1.3711,-12.5217,0.4064,-3.9165,0.7521,2063,2019-08-07 16:49:25:419
-17.5448,-5.1069,15.6588,10.8278,-1.5981,-13.1765,0.4064,-3.9165,0.7521,2068,2019-08-07 16:49:25:424
-17.5448,-5.1069,15.6588,10.8278,-1.5981,-13.1765,0.4064,-3.9165,0.7521,2073,2019-08-07 16:49:25:429
-17.5974,-4.1331,15.2109,10.8278,-1.5981,-13.1765,0.3084,-4.9988,0.7904,2079,2019-08-07 16:49:25:435
-17.5974,-4.1331,15.2109,10.8278,-1.5981,-13.1765,0.3084,-4.9988,0.7904,2083,2019-08-07 16:49:25:439
-17.5974,-4.1331,15.2109,10.7927,-3.555,-11.8134,0.1998,-5.3365,0.7734,2088,2019-08-07 16:49:25:444
-17.0999,-2.2379,15.3571,10.7927,-3.555,-11.8134,0.1998,-5.3365,0.7734,2093,2019-08-07 16:49:25:449
-17.0999,-2.2379,15.3571,10.7927,-3.555,-11.8134,0.0879,-5.3791,0.784,2097,2019-08-07 16:49:25:453
-16.5975,-0.3904,15.5928,10.7927,-3.555,-11.8134,0.0879,-5.3791,0.784,2103,2019-08-07 16:49:25:459
-16.5975,-0.3904,15.5928,10.2032,-6.4031,-11.6856,-0.0889,-5.1959,0.8703,2107,2019-08-07 16:49:25:463
-16.5975,-0.3904,15.5928,10.2032,-6.4031,-11.6856,-0.0889,-5.1959,0.8703,2113,2019-08-07 16:49:25:469
-16.8176,1.0322,16.3894,10.2032,-6.4031,-11.6856,-0.3499,-4.9274,1.0184,2118,2019-08-07 16:49:25:474
-16.8176,1.0322,16.3894,10.2032,-6.4031,-11.6856,-0.3499,-4.9274,1.0184,2123,2019-08-07 16:49:25:479
-19.4393,1.6385,17.4312,12.7945,-7.7802,-12.671,-0.8378,-4.9562,1.241,2128,2019-08-07 16:49:25:484
-19.4393,1.6385,17.4312,12.7945,-7.7802,-12.671,-0.8378,-4.9562,1.241,2133,2019-08-07 16:49:25:489
-19.4393,1.6385,17.4312,12.7945,-7.7802,-12.671,-0.8378,-4.9562,1.241,2138,2019-08-07 16:49:25:494
-22.8742,1.8008,16.2952,12.7945,-7.7802,-12.671,-1.4365,-5.7892,1.5106,2143,2019-08-07 16:49:25:499
-22.8742,1.8008,16.2952,18.132,-8.1935,-10.5605,-1.4365,-5.7892,1.5106,2148,2019-08-07 16:49:25:504
-24.6348,2.2304,14.042,18.132,-8.1935,-10.5605,-1.9009,-6.8332,1.7875,2153,2019-08-07 16:49:25:509
-24.6348,2.2304,14.042,18.132,-8.1935,-10.5605,-1.9009,-6.8332,1.7875,2158,2019-08-07 16:49:25:514
-24.6348,2.2304,14.042,18.132,-8.1935,-10.5605,-2.326,-8.0327,2.1071,2162,2019-08-07 16:49:25:518
-24.6109,2.3736,10.3133,19.4397,-8.5245,-4.6865,-2.326,-8.0327,2.1071,2168,2019-08-07 16:49:25:524
-24.6109,2.3736,10.3133,19.4397,-8.5245,-4.6865,-2.7893,-9.2876,2.5556,2173,2019-08-07 16:49:25:529
-23.4818,2.006,6.9524,19.4397,-8.5245,-4.6865,-2.7893,-9.2876,2.5556,2178,2019-08-07 16:49:25:534
-23.4818,2.006,6.9524,19.4397,-8.5245,-4.6865,-3.0738,-9.8351,2.9178,2182,2019-08-07 16:49:25:538
-23.4818,2.006,6.9524,18.0204,-8.1012,1.1564,-3.0738,-9.8351,2.9178,2188,2019-08-07 16:49:25:544
-23.4818,2.006,6.9524,18.0204,-8.1012,1.1564,-3.0738,-9.8351,2.9178,2192,2019-08-07 16:49:25:548
-21.3959,1.8867,3.6622,18.0204,-8.1012,1.1564,-3.2932,-9.9448,3.2405,2199,2019-08-07 16:49:25:555
-21.3959,1.8867,3.6622,18.0204,-8.1012,1.1564,-3.2932,-9.9448,3.2405,2203,2019-08-07 16:49:25:559
-19.5922,1.9535,0.7537,16.1603,-8.3125,5.5063,-3.5553,-9.4793,3.5686,2207,2019-08-07 16:49:25:563
-19.5922,1.9535,0.7537,16.1603,-8.3125,5.5063,-3.5553,-9.4793,3.5686,2213,2019-08-07 16:49:25:569
-19.5922,1.9535,0.7537,16.1603,-8.3125,5.5063,-3.795,-8.8583,3.7753,2217,2019-08-07 16:49:25:573
-19.2095,1.7817,-0.7688,16.1603,-8.3125,5.5063,-3.795,-8.8583,3.7753,2223,2019-08-07 16:49:25:579
-19.2095,1.7817,-0.7688,16.3508,-8.2554,7.8315,-4.0123,-8.1722,3.9287,2228,2019-08-07 16:49:25:584
-19.2095,1.7817,-0.7688,16.3508,-8.2554,7.8315,-4.0123,-8.1722,3.9287,2233,2019-08-07 16:49:25:589
-19.9032,1.6289,-1.7116,16.3508,-8.2554,7.8315,-4.0123,-8.1722,3.9287,2237,2019-08-07 16:49:25:593
-19.9032,1.6289,-1.7116,16.3508,-8.2554,7.8315,-4.2051,-7.6673,4.0299,2243,2019-08-07 16:49:25:599
-21.2332,1.7101,-4.1439,18.6526,-8.5936,10.6396,-4.2051,-7.6673,4.0299,2247,2019-08-07 16:49:25:603
-21.2332,1.7101,-4.1439,18.6526,-8.5936,10.6396,-4.3052,-7.6108,4.1215,2253,2019-08-07 16:49:25:609
-21.2332,1.7101,-4.1439,18.6526,-8.5936,10.6396,-4.3052,-7.6108,4.1215,2257,2019-08-07 16:49:25:613
-20.0897,1.9488,-8.2732,18.6526,-8.5936,10.6396,-4.4288,-7.5586,4.1513,2263,2019-08-07 16:49:25:619
-20.0897,1.9488,-8.2732,15.8201,-9.2363,17.5171,-4.4288,-7.5586,4.1513,2268,2019-08-07 16:49:25:624
-16.5446,1.9535,-13.152,15.8201,-9.2363,17.5171,-4.6461,-7.2668,3.9873,2272,2019-08-07 16:49:25:628
-16.5446,1.9535,-13.152,12.9752,-9.3669,20.3159,-4.6461,-7.2668,3.9873,2278,2019-08-07 16:49:25:634
-13.5162,1.9583,-14.4011,12.9752,-9.3669,20.3159,-4.7888,-6.8172,3.6123,2283,2019-08-07 16:49:25:639
-13.5162,1.9583,-14.4011,12.9752,-9.3669,20.3159,-4.7888,-6.8172,3.6123,2287,2019-08-07 16:49:25:643
-13.5162,1.9583,-14.4011,12.9752,-9.3669,20.3159,-4.7888,-6.8172,3.6123,2293,2019-08-07 16:49:25:649
-13.9229,1.9106,-12.8314,11.966,-9.7908,18.3367,-4.7984,-6.3101,3.003,2298,2019-08-07 16:49:25:654
-13.9229,1.9106,-12.8314,11.966,-9.7908,18.3367,-4.7984,-6.3101,3.003,2303,2019-08-07 16:49:25:659
-13.9229,1.9106,-12.8314,11.966,-9.7908,18.3367,-4.5492,-5.1032,2.0943,2307,2019-08-07 16:49:25:663
-16.3532,1.2422,-12.6806,11.966,-9.7908,18.3367,-4.5492,-5.1032,2.0943,2313,2019-08-07 16:49:25:669
-16.3532,1.2422,-12.6806,15.2353,-8.5151,17.7548,-4.2306,-3.5863,1.4232,2317,2019-08-07 16:49:25:673
-16.8317,-0.6864,-13.1944,15.2353,-8.5151,17.7548,-4.2306,-3.5863,1.4232,2323,2019-08-07 16:49:25:679
-16.8317,-0.6864,-13.1944,15.2353,-8.5151,17.7548,-3.9409,-2.2643,0.6892,2328,2019-08-07 16:49:25:684
-14.1477,-2.6246,-14.5096,15.2353,-8.5151,17.7548,-3.9409,-2.2643,0.6892,2333,2019-08-07 16:49:25:689
-14.1477,-2.6246,-14.5096,10.0959,-5.1877,19.7861,-3.9015,-2.7234,0.2408,2337,2019-08-07 16:49:25:693
-14.1477,-2.6246,-14.5096,10.0959,-5.1877,19.7861,-3.9015,-2.7234,0.2408,2343,2019-08-07 16:49:25:699
-8.0765,-4.7155,-15.6267,4.7894,-3.6655,18.9472,-3.9377,-4.79,-0.0011,2348,2019-08-07 16:49:25:704
-8.0765,-4.7155,-15.6267,4.7894,-3.6655,18.9472,-3.9377,-4.79,-0.0011,2353,2019-08-07 16:49:25:709
-1.9,-7.4557,-14.8537,4.7894,-3.6655,18.9472,-3.9377,-4.79,-0.0011,2357,2019-08-07 16:49:25:713
-1.9,-7.4557,-14.8537,4.7894,-3.6655,18.9472,-3.7108,-8.8945,-0.0533,2363,2019-08-07 16:49:25:719
-1.9,-7.4557,-14.8537,-1.5799,1.2988,22.9741,-3.7108,-8.8945,-0.0533,2367,2019-08-07 16:49:25:723
1.6068,-11.9287,-22.556,-1.5799,1.2988,22.9741,-2.8778,-10.3209,0.0117,2373,2019-08-07 16:49:25:729
1.6068,-11.9287,-22.556,-1.5799,1.2988,22.9741,-2.8778,-10.3209,0.0117,2378,2019-08-07 16:49:25:734
1.6068,-11.9287,-22.556,-1.5799,1.2988,22.9741,-1.6953,-7.7152,0.065,2382,2019-08-07 16:49:25:738
4.0994,-14.731,-25.4362,-5.4704,6.5288,26.5049,-1.6953,-7.7152,0.065,2388,2019-08-07 16:49:25:744
4.0994,-14.731,-25.4362,-5.4704,6.5288,26.5049,0.4586,0.0207,0.1843,2393,2019-08-07 16:49:25:749
7.7067,-15.194,-25.6247,-5.4704,6.5288,26.5049,0.4586,0.0207,0.1843,2398,2019-08-07 16:49:25:754
7.7067,-15.194,-25.6247,-5.4704,6.5288,26.5049,0.4586,0.0207,0.1843,2403,2019-08-07 16:49:25:759
7.7067,-15.194,-25.6247,-5.8331,5.1317,23.4761,1.5995,4.4884,0.4101,2408,2019-08-07 16:49:25:764
3.1808,-13.9099,-18.6718,-5.8331,5.1317,23.4761,1.5995,4.4884,0.4101,2413,2019-08-07 16:49:25:769
3.1808,-13.9099,-18.6718,-5.8331,5.1317,23.4761,1.7263,5.803,0.6914,2418,2019-08-07 16:49:25:774
0.0567,-15.6762,26.939,-5.8331,5.1317,23.4761,1.7263,5.803,0.6914,2423,2019-08-07 16:49:25:779
0.0567,-15.6762,26.939,-5.8331,5.1317,23.4761,2.2398,4.2455,0.685,2428,2019-08-07 16:49:25:784
0.0567,-15.6762,26.939,0.453,4.4561,12.8653,2.2398,4.2455,0.685,2433,2019-08-07 16:49:25:789
-5.8901,-11.2413,-14.6557,0.453,4.4561,12.8653,1.1617,3.4157,0.1651,2438,2019-08-07 16:49:25:794
-5.8901,-11.2413,-14.6557,0.453,4.4561,12.8653,1.1617,3.4157,0.1651,2443,2019-08-07 16:49:25:799
-5.8901,-11.2413,-14.6557,0.453,4.4561,12.8653,1.1617,3.4157,0.1651,2447,2019-08-07 16:49:25:803
-6.3446,-9.2363,-7.5284,5.6327,0.0125,11.0078,0.4214,2.5454,0.0405,2453,2019-08-07 16:49:25:809
-6.3446,-9.2363,-7.5284,5.6327,0.0125,11.0078,0.4214,2.5454,0.0405,2457,2019-08-07 16:49:25:813
-5.0767,-9.9619,-2.3055,5.6327,0.0125,11.0078,-0.1283,0.466,0.2727,2463,2019-08-07 16:49:25:819
-5.0767,-9.9619,-2.3055,5.6327,0.0125,11.0078,-0.1283,0.466,0.2727,2468,2019-08-07 16:49:25:824
-1.2733,-10.3438,-2.8947,0.239,1.2269,3.4808,0.8528,-0.3255,0.1747,2473,2019-08-07 16:49:25:829
-1.2733,-10.3438,-2.8947,0.239,1.2269,3.4808,0.8528,-0.3255,0.1747,2478,2019-08-07 16:49:25:834
-1.2733,-10.3438,-2.8947,-0.1835,0.6254,14.2769,1.8573,1.413,-0.0916,2483,2019-08-07 16:49:25:839
-0.3499,-7.8042,-12.0866,-0.1835,0.6254,14.2769,1.8573,1.413,-0.0916,2488,2019-08-07 16:49:25:844
-0.3499,-7.8042,-12.0866,-0.1835,0.6254,14.2769,2.537,4.7025,-0.3089,2493,2019-08-07 16:49:25:849
-0.3499,-7.8042,-12.0866,-0.1835,0.6254,14.2769,2.537,4.7025,-0.3089,2498,2019-08-07 16:49:25:854
-1.2828,-7.0738,4.8878,-0.1893,-3.3184,3.7228,2.537,4.7025,-0.3089,2502,2019-08-07 16:49:25:858
-1.2828,-7.0738,4.8878,-0.1893,-3.3184,3.7228,1.7966,4.4863,-0.3888,2508,2019-08-07 16:49:25:864
-6.0383,-5.4125,-11.8085,-0.1893,-3.3184,3.7228,1.7966,4.4863,-0.3888,2512,2019-08-07 16:49:25:868
-6.0383,-5.4125,-11.8085,-0.1893,-3.3184,3.7228,0.7814,5.4046,-0.719,2518,2019-08-07 16:49:25:874
-6.0383,-5.4125,-11.8085,6.2244,-3.7393,8.5804,0.7814,5.4046,-0.719,2523,2019-08-07 16:49:25:879
-10.081,-5.2359,-0.4388,6.2244,-3.7393,8.5804,-5.0E-4,5.3449,-0.8437,2528,2019-08-07 16:49:25:884
-10.081,-5.2359,-0.4388,6.2244,-3.7393,8.5804,-5.0E-4,5.3449,-0.8437,2533,2019-08-07 16:49:25:889
-10.081,-5.2359,-0.4388,6.2244,-3.7393,8.5804,0.5982,4.9689,-0.4868,2538,2019-08-07 16:49:25:894
-11.7412,-6.9687,0.5794,9.4096,-1.9109,2.8778,0.5982,4.9689,-0.4868,2543,2019-08-07 16:49:25:899
-11.7412,-6.9687,0.5794,9.4096,-1.9109,2.8778,1.1447,5.0509,-0.4932,2548,2019-08-07 16:49:25:904
-7.3301,-7.976,-1.7634,5.1463,-0.7049,3.9426,1.1447,5.0509,-0.4932,2553,2019-08-07 16:49:25:909
-7.3301,-7.976,-1.7634,5.1463,-0.7049,3.9426,1.4451,4.1252,-1.1068,2557,2019-08-07 16:49:25:913
-7.3301,-7.976,-1.7634,5.1463,-0.7049,3.9426,1.4451,4.1252,-1.1068,2563,2019-08-07 16:49:25:919
-8.8275,-6.2861,-3.8705,5.1463,-0.7049,3.9426,1.3226,3.6107,-1.2719,2568,2019-08-07 16:49:25:924
-8.8275,-6.2861,-3.8705,6.9884,-3.0686,7.6116,1.3226,3.6107,-1.2719,2573,2019-08-07 16:49:25:929
-9.2103,-5.4698,-4.4173,6.9884,-3.0686,7.6116,1.3087,4.2551,-1.1228,2578,2019-08-07 16:49:25:934
-9.2103,-5.4698,-4.4173,6.9884,-3.0686,7.6116,1.3087,4.2551,-1.1228,2583,2019-08-07 16:49:25:939
-9.2103,-5.4698,-4.4173,6.9884,-3.0686,7.6116,1.6539,4.9742,-1.1462,2588,2019-08-07 16:49:25:944
-6.1292,-7.0069,-3.2153,3.3607,-1.7731,6.6037,1.6539,4.9742,-1.1462,2593,2019-08-07 16:49:25:949
-6.1292,-7.0069,-3.2153,3.3607,-1.7731,6.6037,1.6539,4.9742,-1.1462,2598,2019-08-07 16:49:25:954
-6.1292,-7.0069,-3.2153,3.3607,-1.7731,6.6037,1.7455,5.7763,-1.2985,2603,2019-08-07 16:49:25:959
-7.4832,-6.8971,-3.8658,3.3607,-1.7731,6.6037,1.7455,5.7763,-1.2985,2608,2019-08-07 16:49:25:964
-7.4832,-6.8971,-3.8658,5.1155,-1.7545,6.9355,1.639,6.5732,-1.3039,2613,2019-08-07 16:49:25:969
-8.5309,-6.9688,-3.4227,5.1155,-1.7545,6.9355,1.639,6.5732,-1.3039,2618,2019-08-07 16:49:25:974
-8.5309,-6.9688,-3.4227,5.1155,-1.7545,6.9355,1.5995,7.5543,-1.3049,2622,2019-08-07 16:49:25:978
-8.5309,-6.9688,-3.4227,5.1155,-1.7545,6.9355,1.5995,7.5543,-1.3049,2628,2019-08-07 16:49:25:984
-10.612,-6.7778,-3.6018,7.8973,-1.988,6.7465,1.6304,8.1913,-1.2357,2633,2019-08-07 16:49:25:989
-10.612,-6.7778,-3.6018,7.8973,-1.988,6.7465,1.6304,8.1913,-1.2357,2638,2019-08-07 16:49:25:994
-10.612,-6.7778,-3.6018,7.8973,-1.988,6.7465,1.6304,8.1913,-1.2357,2643,2019-08-07 16:49:25:999
-13.1668,-6.6394,-3.5075,9.711,-2.0651,6.4273,1.6762,8.6845,-1.0983,2648,2019-08-07 16:49:26:004
-13.1668,-6.6394,-3.5075,9.711,-2.0651,6.4273,1.6762,8.6845,-1.0983,2653,2019-08-07 16:49:26:009
-15.913,-6.5248,0.3767,9.711,-2.0651,6.4273,1.884,8.5396,-0.8394,2658,2019-08-07 16:49:26:014
-15.913,-6.5248,0.3767,13.5208,-1.9755,0.2861,1.884,8.5396,-0.8394,2662,2019-08-07 16:49:26:018
-15.913,-6.5248,0.3767,13.5208,-1.9755,0.2861,2.1503,7.5479,-0.4879,2667,2019-08-07 16:49:26:023
-17.7453,-7.0022,3.3275,13.5208,-1.9755,0.2861,2.1503,7.5479,-0.4879,2673,2019-08-07 16:49:26:029
-17.7453,-7.0022,3.3275,13.5208,-1.9755,0.2861,2.1641,6.4933,-0.4336,2677,2019-08-07 16:49:26:033
-16.5014,-7.3268,3.6433,12.3489,-1.2346,-1.2568,2.1641,6.4933,-0.4336,2683,2019-08-07 16:49:26:039
-16.5014,-7.3268,3.6433,12.3489,-1.2346,-1.2568,2.0107,5.4078,-0.62,2687,2019-08-07 16:49:26:043
-16.5014,-7.3268,3.6433,12.3489,-1.2346,-1.2568,2.0107,5.4078,-0.62,2693,2019-08-07 16:49:26:049
-14.3676,-7.1358,2.8656,12.3489,-1.2346,-1.2568,1.8754,4.6365,-0.8096,2698,2019-08-07 16:49:26:054
-14.3676,-7.1358,2.8656,8.7803,-1.5192,0.8022,1.8754,4.6365,-0.8096,2702,2019-08-07 16:49:26:058
-11.6311,-7.0165,0.8811,8.7803,-1.5192,0.8022,1.8754,4.6365,-0.8096,2708,2019-08-07 16:49:26:064
-11.6311,-7.0165,0.8811,6.0006,-1.3706,1.9732,1.9468,5.0466,-0.8426,2713,2019-08-07 16:49:26:069
-11.6311,-7.0165,0.8811,6.0006,-1.3706,1.9732,1.9468,5.0466,-0.8426,2717,2019-08-07 16:49:26:073
-9.3633,-7.0451,-1.7964,6.0006,-1.3706,1.9732,2.0246,5.7646,-0.8181,2723,2019-08-07 16:49:26:079
-9.3633,-7.0451,-1.7964,6.0006,-1.3706,1.9732,2.0246,5.7646,-0.8181,2727,2019-08-07 16:49:26:083
-9.3633,-7.0451,-1.7964,6.0006,-1.3706,1.9732,2.0864,6.9268,-0.7031,2732,2019-08-07 16:49:26:088
-10.2245,-6.6776,-1.9095,5.6919,-1.7868,3.921,2.0864,6.9268,-0.7031,2738,2019-08-07 16:49:26:094
-10.2245,-6.6776,-1.9095,5.6919,-1.7868,3.921,2.0864,6.9268,-0.7031,2742,2019-08-07 16:49:26:098
-13.5926,-6.1668,3.8649,5.6919,-1.7868,3.921,2.3559,8.17,-0.3643,2748,2019-08-07 16:49:26:104
-13.5926,-6.1668,3.8649,11.1516,-2.7661,-5.1475,2.3559,8.17,-0.3643,2752,2019-08-07 16:49:26:108
-13.5926,-6.1668,3.8649,11.1516,-2.7661,-5.1475,2.5242,8.1167,-0.0362,2757,2019-08-07 16:49:26:113
-18.0228,-5.2645,7.9942,11.1516,-2.7661,-5.1475,2.5242,8.1167,-0.0362,2763,2019-08-07 16:49:26:119
-18.0228,-5.2645,7.9942,11.1516,-2.7661,-5.1475,2.1737,7.0259,0.0416,2768,2019-08-07 16:49:26:124
-19.2619,-5.0783,10.4077,14.1962,-3.2162,-9.0753,2.1737,7.0259,0.0416,2773,2019-08-07 16:49:26:129
-19.2619,-5.0783,10.4077,14.1962,-3.2162,-9.0753,1.7668,5.2107,-0.0181,2778,2019-08-07 16:49:26:134
-19.2619,-5.0783,10.4077,14.1962,-3.2162,-9.0753,1.7668,5.2107,-0.0181,2783,2019-08-07 16:49:26:139
-19.2619,-5.0783,10.4077,14.1962,-3.2162,-9.0753,1.7668,5.2107,-0.0181,2787,2019-08-07 16:49:26:143
-15.1618,-5.9042,8.838,14.1962,-3.2162,-9.0753,1.6208,3.2879,-0.0799,2793,2019-08-07 16:49:26:149
-15.1618,-5.9042,8.838,7.6031,-1.7537,-6.0124,1.6208,3.2879,-0.0799,2797,2019-08-07 16:49:26:153
-9.3681,-7.1454,5.0198,7.6031,-1.7537,-6.0124,1.7689,2.8895,-0.1459,2803,2019-08-07 16:49:26:159
-9.3681,-7.1454,5.0198,7.6031,-1.7537,-6.0124,1.7689,2.8895,-0.1459,2808,2019-08-07 16:49:26:164
-9.3681,-7.1454,5.0198,7.6031,-1.7537,-6.0124,1.8392,3.3465,-0.2269,2813,2019-08-07 16:49:26:169
-6.4927,-6.859,1.7908,1.2289,-1.3334,-0.6017,1.8392,3.3465,-0.2269,2818,2019-08-07 16:49:26:174
-6.4927,-6.859,1.7908,1.2289,-1.3334,-0.6017,1.8808,4.9465,-0.1576,2822,2019-08-07 16:49:26:178
-7.5883,-5.7132,2.9127,1.2289,-1.3334,-0.6017,1.8808,4.9465,-0.1576,2827,2019-08-07 16:49:26:183
-7.5883,-5.7132,2.9127,4.9524,-3.0929,-4.6627,2.0374,6.2621,0.0565,2833,2019-08-07 16:49:26:189
-7.5883,-5.7132,2.9127,4.9524,-3.0929,-4.6627,2.0374,6.2621,0.0565,2838,2019-08-07 16:49:26:194
-12.8797,-4.453,7.4945,4.9524,-3.0929,-4.6627,2.0374,6.2621,0.0565,2843,2019-08-07 16:49:26:199
-12.8797,-4.453,7.4945,9.9014,-4.3623,-8.4348,2.0565,6.6467,0.3068,2848,2019-08-07 16:49:26:204
-18.4342,-3.0399,10.8602,9.9014,-4.3623,-8.4348,2.0565,6.6467,0.3068,2852,2019-08-07 16:49:26:208
-18.4342,-3.0399,10.8602,9.9014,-4.3623,-8.4348,1.5708,5.3225,0.5167,2858,2019-08-07 16:49:26:214
-18.4342,-3.0399,10.8602,9.9014,-4.3623,-8.4348,1.5708,5.3225,0.5167,2862,2019-08-07 16:49:26:218
-20.3431,-2.9062,12.906,14.6852,-5.0924,-12.4103,1.1287,3.127,0.5348,2867,2019-08-07 16:49:26:223
-20.3431,-2.9062,12.906,14.6852,-5.0924,-12.4103,1.1287,3.127,0.5348,2873,2019-08-07 16:49:26:229
-20.3431,-2.9062,12.906,14.6852,-5.0924,-12.4103,0.8805,0.7824,0.5603,2877,2019-08-07 16:49:26:233
-16.4248,-4.3766,11.1336,14.6852,-5.0924,-12.4103,0.8805,0.7824,0.5603,2883,2019-08-07 16:49:26:239
-16.4248,-4.3766,11.1336,8.164,-2.7386,-8.9008,0.9092,-1.0222,0.5263,2888,2019-08-07 16:49:26:244
-16.4248,-4.3766,11.1336,8.164,-2.7386,-8.9008,0.9092,-1.0222,0.5263,2892,2019-08-07 16:49:26:248
-9.8752,-6.1381,7.9659,8.164,-2.7386,-8.9008,1.1223,-1.2161,0.4208,2898,2019-08-07 16:49:26:254
-9.8752,-6.1381,7.9659,8.164,-2.7386,-8.9008,1.1223,-1.2161,0.4208,2903,2019-08-07 16:49:26:259
-9.8752,-6.1381,7.9659,-0.5181,-1.1427,-3.3095,1.1223,-1.2161,0.4208,2908,2019-08-07 16:49:26:264
-4.756,-6.6632,3.7471,-0.5181,-1.1427,-3.3095,1.2278,-0.5172,0.3537,2913,2019-08-07 16:49:26:269
-4.756,-6.6632,3.7471,-1.8976,-1.0824,-2.5842,1.2278,-0.5172,0.3537,2918,2019-08-07 16:49:26:274
-4.8852,-6.625,4.4023,-1.8976,-1.0824,-2.5842,1.2427,0.9571,0.2653,2923,2019-08-07 16:49:26:279
-4.8852,-6.625,4.4023,-1.8976,-1.0824,-2.5842,1.2427,0.9571,0.2653,2928,2019-08-07 16:49:26:284
-4.8852,-6.625,4.4023,-1.8976,-1.0824,-2.5842,1.2544,1.7922,0.2152,2933,2019-08-07 16:49:26:289
-8.2294,-5.8183,5.8211,2.277,-1.9026,-4.7291,1.2544,1.7922,0.2152,2938,2019-08-07 16:49:26:294
-8.2294,-5.8183,5.8211,2.277,-1.9026,-4.7291,1.1223,1.8157,0.2077,2942,2019-08-07 16:49:26:298
-8.2294,-5.8183,5.8211,2.277,-1.9026,-4.7291,1.1223,1.8157,0.2077,2948,2019-08-07 16:49:26:304
-10.2531,-5.4793,5.9201,2.277,-1.9026,-4.7291,0.8315,1.331,0.1843,2952,2019-08-07 16:49:26:308
-10.2531,-5.4793,5.9201,4.4639,-1.8374,-5.0369,0.8315,1.331,0.1843,2958,2019-08-07 16:49:26:314
-10.3105,-6.2288,6.0521,4.4639,-1.8374,-5.0369,0.563,0.5725,0.1513,2962,2019-08-07 16:49:26:318
-10.3105,-6.2288,6.0521,4.4639,-1.8374,-5.0369,0.563,0.5725,0.1513,2968,2019-08-07 16:49:26:324
-10.3105,-6.2288,6.0521,4.4639,-1.8374,-5.0369,0.383,-0.1263,0.1364,2973,2019-08-07 16:49:26:329
-7.9949,-7.3936,4.3269,1.914,-0.2187,-3.1818,0.383,-0.1263,0.1364,2978,2019-08-07 16:49:26:334
-7.9949,-7.3936,4.3269,1.914,-0.2187,-3.1818,0.2499,-0.4874,0.1108,2983,2019-08-07 16:49:26:339
-7.9949,-7.3936,4.3269,1.914,-0.2187,-3.1818,0.2499,-0.4874,0.1108,2988,2019-08-07 16:49:26:344
-6.153,-7.7612,2.7619,1.914,-0.2187,-3.1818,0.1774,-0.5385,0.082,2993,2019-08-07 16:49:26:349
-6.153,-7.7612,2.7619,-0.6533,0.2973,-0.7965,0.1774,-0.5385,0.082,2998,2019-08-07 16:49:26:354
-5.2392,-7.9951,1.7296,-0.6533,0.2973,-0.7965,0.1774,-0.301,0.0437,3003,2019-08-07 16:49:26:359
-5.2392,-7.9951,1.7296,-0.6533,0.2973,-0.7965,0.1774,-0.301,0.0437,3007,2019-08-07 16:49:26:363
-5.2392,-7.9951,1.7296,-0.6533,0.2973,-0.7965,0.1774,-0.301,0.0437,3013,2019-08-07 16:49:26:369
-5.1005,-7.8901,1.5693,-0.6533,0.2973,-0.7965,0.2051,-0.1742,0.0309,3017,2019-08-07 16:49:26:373
-5.1005,-7.8901,1.5693,-0.7285,-0.0737,-0.2314,0.2051,-0.1742,0.0309,3023,2019-08-07 16:49:26:379
-6.0573,-6.8972,1.6164,-0.7285,-0.0737,-0.2314,0.2648,0.139,0.0107,3027,2019-08-07 16:49:26:383
-6.0573,-6.8972,1.6164,-0.7285,-0.0737,-0.2314,0.2648,0.139,0.0107,3033,2019-08-07 16:49:26:389
-6.0573,-6.8972,1.6164,0.4979,-1.132,-0.4452,0.2136,0.1496,0.0117,3037,2019-08-07 16:49:26:393
-6.6601,-6.4246,1.8663,0.4979,-1.132,-0.4452,0.2136,0.1496,0.0117,3043,2019-08-07 16:49:26:399
-6.6601,-6.4246,1.8663,0.4979,-1.132,-0.4452,0.1252,0.0527,0.0149,3048,2019-08-07 16:49:26:404
-6.5596,-6.5391,2.0077,0.4979,-1.132,-0.4452,0.1252,0.0527,0.0149,3053,2019-08-07 16:49:26:409
-6.5596,-6.5391,2.0077,0.3259,-0.8679,-0.6285,0.0592,-0.0677,0.0053,3058,2019-08-07 16:49:26:414
-6.5596,-6.5391,2.0077,0.3259,-0.8679,-0.6285,0.0592,-0.0677,0.0053,3063,2019-08-07 16:49:26:419
-6.2439,-6.8685,1.8616,0.3259,-0.8679,-0.6285,0.0123,-0.1423,-0.0085,3068,2019-08-07 16:49:26:424
-6.2439,-6.8685,1.8616,0.3259,-0.8679,-0.6285,0.0123,-0.1423,-0.0085,3072,2019-08-07 16:49:26:428
-5.9712,-6.8733,1.6683,-0.122,-0.6888,-0.2809,-0.0229,-0.1657,-0.016,3078,2019-08-07 16:49:26:434
-5.9712,-6.8733,1.6683,-0.122,-0.6888,-0.2809,-0.0229,-0.1657,-0.016,3082,2019-08-07 16:49:26:438
-5.9712,-6.8733,1.6683,-0.122,-0.6888,-0.2809,-0.0516,-0.1583,-0.0138,3088,2019-08-07 16:49:26:444
-5.8372,-7.0451,1.5599,-0.122,-0.6888,-0.2809,-0.0516,-0.1583,-0.0138,3093,2019-08-07 16:49:26:449
-5.8372,-7.0451,1.5599,-0.2987,-0.4755,-0.1912,-0.058,-0.1529,0.0021,3098,2019-08-07 16:49:26:454
-5.7654,-7.1931,1.6117,-0.2987,-0.4755,-0.1912,-0.058,-0.1529,0.0021,3103,2019-08-07 16:49:26:459
-5.7654,-7.1931,1.6117,-0.2987,-0.4755,-0.1912,-0.058,-0.1529,0.0021,3107,2019-08-07 16:49:26:463
-5.7654,-7.1931,1.6117,-0.2987,-0.4755,-0.1912,-0.0292,-0.1625,0.0288,3113,2019-08-07 16:49:26:469
-5.9042,-7.1215,2.0218,-0.1305,-0.4437,-0.61,-0.0292,-0.1625,0.0288,3118,2019-08-07 16:49:26:474
-5.9042,-7.1215,2.0218,-0.1305,-0.4437,-0.61,0.0112,-0.2264,0.065,3123,2019-08-07 16:49:26:479
-5.9042,-7.1215,2.0218,-0.1305,-0.4437,-0.61,0.0112,-0.2264,0.065,3127,2019-08-07 16:49:26:483
-6.1721,-6.8351,2.0548,-0.1305,-0.4437,-0.61,0.0027,-0.3159,0.1044,3133,2019-08-07 16:49:26:489
-6.1721,-6.8351,2.0548,0.282,-0.8108,-0.7802,0.0027,-0.3159,0.1044,3138,2019-08-07 16:49:26:494
-6.4313,-6.7395,2.2526,0.282,-0.8108,-0.7802,-0.0356,-0.4459,0.13,3143,2019-08-07 16:49:26:499
-6.4313,-6.7395,2.2526,0.282,-0.8108,-0.7802,-0.0356,-0.4459,0.13,3148,2019-08-07 16:49:26:504
-6.4313,-6.7395,2.2526,0.282,-0.8108,-0.7802,-0.0356,-0.4459,0.13,3153,2019-08-07 16:49:26:509
-6.173,-6.6727,1.9792,0.282,-0.8108,-0.7802,-0.0985,-0.5844,0.1385,3157,2019-08-07 16:49:26:513
-6.173,-6.6727,1.9792,-0.0464,-0.8684,-0.3107,-0.1486,-0.5939,0.1332,3163,2019-08-07 16:49:26:519
-6.173,-6.6727,1.9792,-0.0464,-0.8684,-0.3107,-0.1486,-0.5939,0.1332,3167,2019-08-07 16:49:26:523
-5.5319,-6.8637,1.4277,-0.0464,-0.8684,-0.3107,-0.2018,-0.4512,0.1108,3173,2019-08-07 16:49:26:529
-5.5319,-6.8637,1.4277,-0.0464,-0.8684,-0.3107,-0.2018,-0.4512,0.1108,3177,2019-08-07 16:49:26:533
-5.2209,-7.088,1.1213,-0.9092,-0.4435,0.4085,-0.2018,-0.4512,0.1108,3183,2019-08-07 16:49:26:539
-5.2209,-7.088,1.1213,-0.9092,-0.4435,0.4085,-0.2466,-0.1764,0.081,3187,2019-08-07 16:49:26:543
-5.2209,-7.088,1.1213,-0.9092,-0.4435,0.4085,-0.2466,-0.1764,0.081,3193,2019-08-07 16:49:26:549
-5.4841,-7.2121,1.2297,-0.9092,-0.4435,0.4085,-0.2466,-0.1764,0.081,3198,2019-08-07 16:49:26:554
-5.4841,-7.2121,1.2297,-0.3743,-0.2711,0.2281,-0.2647,0.0335,0.0724,3202,2019-08-07 16:49:26:558
-5.9912,-7.236,1.4513,-0.3743,-0.2711,0.2281,-0.2647,0.0335,0.0724,3208,2019-08-07 16:49:26:564
-5.9912,-7.236,1.4513,-0.3743,-0.2711,0.2281,-0.2604,0.0793,0.0682,3212,2019-08-07 16:49:26:568
-5.9912,-7.236,1.4513,-0.3743,-0.2711,0.2281,-0.2604,0.0793,0.0682,3218,2019-08-07 16:49:26:574
-6.4649,-7.0689,1.654,0.3391,-0.4459,-0.1577,-0.2412,0.0101,0.0703,3223,2019-08-07 16:49:26:579
-6.4649,-7.0689,1.654,0.3391,-0.4459,-0.1577,-0.2412,0.0101,0.0703,3228,2019-08-07 16:49:26:584
-6.685,-7.0451,1.8425,0.3391,-0.4459,-0.1577,-0.2242,-0.1242,0.0831,3233,2019-08-07 16:49:26:589
-6.685,-7.0451,1.8425,0.3391,-0.4459,-0.1577,-0.2242,-0.1242,0.0831,3237,2019-08-07 16:49:26:593
-6.685,-7.0451,1.8425,0.5891,-0.5343,-0.2895,-0.2199,-0.2946,0.0927,3243,2019-08-07 16:49:26:599
-6.5797,-6.9973,1.7011,0.5891,-0.5343,-0.2895,-0.2199,-0.2946,0.0927,3248,2019-08-07 16:49:26:604
-6.5797,-6.9973,1.7011,0.5891,-0.5343,-0.2895,-0.2178,-0.4629,0.1065,3252,2019-08-07 16:49:26:608
-6.5797,-6.9973,1.7011,0.5891,-0.5343,-0.2895,-0.2178,-0.4629,0.1065,3258,2019-08-07 16:49:26:614
-5.9625,-7.1501,1.3711,-0.182,-0.3487,0.1286,-0.2039,-0.5609,0.1151,3262,2019-08-07 16:49:26:618
-5.9625,-7.1501,1.3711,-0.182,-0.3487,0.1286,-0.2039,-0.5609,0.1151,3268,2019-08-07 16:49:26:624
-5.532,-7.2026,1.0694,-0.182,-0.3487,0.1286,-0.1816,-0.5311,0.13,3272,2019-08-07 16:49:26:628
-5.532,-7.2026,1.0694,-0.182,-0.3487,0.1286,-0.1816,-0.5311,0.13,3278,2019-08-07 16:49:26:634
-5.532,-7.2026,1.0694,-0.7717,-0.2591,0.5891,-0.1731,-0.4299,0.146,3283,2019-08-07 16:49:26:639
-5.2306,-7.2169,1.0223,-0.7717,-0.2591,0.5891,-0.1731,-0.4299,0.146,3287,2019-08-07 16:49:26:643
-5.2306,-7.2169,1.0223,-0.7717,-0.2591,0.5891,-0.1677,-0.318,0.1534,3293,2019-08-07 16:49:26:649
-5.3789,-7.2074,1.126,-0.7717,-0.2591,0.5891,-0.1677,-0.318,0.1534,3298,2019-08-07 16:49:26:654
-5.3789,-7.2074,1.126,-0.7275,-0.2919,0.3319,-0.1677,-0.318,0.1534,3303,2019-08-07 16:49:26:659
-5.3789,-7.2074,1.126,-0.7275,-0.2919,0.3319,-0.1613,-0.2073,0.1609,3308,2019-08-07 16:49:26:664
-5.6229,-7.0737,1.3098,-0.7275,-0.2919,0.3319,-0.1613,-0.2073,0.1609,3313,2019-08-07 16:49:26:669
-5.6229,-7.0737,1.3098,-0.7275,-0.2919,0.3319,-0.1667,-0.1732,0.1768,3318,2019-08-07 16:49:26:674
-6.2066,-6.9066,1.6162,-0.1055,-0.5627,0.0103,-0.1667,-0.1732,0.1768,3322,2019-08-07 16:49:26:678
-6.2066,-6.9066,1.6162,-0.1055,-0.5627,0.0103,-0.1837,-0.2371,0.1939,3328,2019-08-07 16:49:26:684
-6.5271,-6.8875,1.7576,-0.1055,-0.5627,0.0103,-0.1837,-0.2371,0.1939,3332,2019-08-07 16:49:26:688
-6.5271,-6.8875,1.7576,-0.1055,-0.5627,0.0103,-0.1997,-0.3809,0.212,3338,2019-08-07 16:49:26:694
-6.5271,-6.8875,1.7576,0.3865,-0.4733,-0.3613,-0.1997,-0.3809,0.212,3343,2019-08-07 16:49:26:699
-6.6324,-6.9496,1.7718,0.3865,-0.4733,-0.3613,-0.2125,-0.5833,0.2248,3348,2019-08-07 16:49:26:704
-6.6324,-6.9496,1.7718,0.3865,-0.4733,-0.3613,-0.2125,-0.5833,0.2248,3353,2019-08-07 16:49:26:709
-6.6324,-6.9496,1.7718,0.3865,-0.4733,-0.3613,-0.2221,-0.7537,0.2408,3358,2019-08-07 16:49:26:714
-6.3166,-7.1119,1.4371,0.0012,-0.3102,0.2817,-0.2221,-0.7537,0.2408,3363,2019-08-07 16:49:26:719
-6.3166,-7.1119,1.4371,0.0012,-0.3102,0.2817,-0.2157,-0.824,0.229,3367,2019-08-07 16:49:26:723
-5.843,-7.2646,1.0553,0.0012,-0.3102,0.2817,-0.2157,-0.824,0.229,3373,2019-08-07 16:49:26:729
-5.843,-7.2646,1.0553,0.0012,-0.3102,0.2817,-0.1986,-0.7995,0.212,3378,2019-08-07 16:49:26:734
-5.843,-7.2646,1.0553,-0.7839,0.0048,0.8711,-0.1986,-0.7995,0.212,3383,2019-08-07 16:49:26:739
-5.3215,-7.4174,0.8102,-0.7839,0.0048,0.8711,-0.1784,-0.6738,0.1939,3387,2019-08-07 16:49:26:743
-5.3215,-7.4174,0.8102,-0.7839,0.0048,0.8711,-0.1784,-0.6738,0.1939,3393,2019-08-07 16:49:26:749
-4.9292,-7.5558,0.532,-0.7839,0.0048,0.8711,-0.1592,-0.4416,0.1609,3398,2019-08-07 16:49:26:754
-4.9292,-7.5558,0.532,-1.3545,0.2155,1.2359,-0.1592,-0.4416,0.1609,3402,2019-08-07 16:49:26:758
-4.9292,-7.5558,0.532,-1.3545,0.2155,1.2359,-0.1592,-0.4416,0.1609,3408,2019-08-07 16:49:26:764
-4.9723,-7.6322,0.5226,-1.3545,0.2155,1.2359,-0.1336,-0.0709,0.1225,3412,2019-08-07 16:49:26:768
-4.9723,-7.6322,0.5226,-1.3545,0.2155,1.2359,-0.1336,-0.0709,0.1225,3418,2019-08-07 16:49:26:774
-5.4938,-7.637,0.7206,-0.739,0.2532,0.9726,-0.1145,0.1784,0.1055,3422,2019-08-07 16:49:26:778
-5.4938,-7.637,0.7206,-0.739,0.2532,0.9726,-0.1145,0.1784,0.1055,3428,2019-08-07 16:49:26:784
-5.4938,-7.637,0.7206,-0.739,0.2532,0.9726,-0.0974,0.3126,0.0906,3432,2019-08-07 16:49:26:788
-6.1732,-7.5845,1.0694,-0.739,0.2532,0.9726,-0.0974,0.3126,0.0906,3438,2019-08-07 16:49:26:794
-6.1732,-7.5845,1.0694,0.2858,0.1261,0.336,-0.0825,0.3041,0.0916,3443,2019-08-07 16:49:26:799
-6.6851,-7.4556,1.39,0.2858,0.1261,0.336,-0.0825,0.3041,0.0916,3447,2019-08-07 16:49:26:803
-6.6851,-7.4556,1.39,0.2858,0.1261,0.336,-0.0676,0.1975,0.0852,3453,2019-08-07 16:49:26:809
-6.6851,-7.4556,1.39,0.2858,0.1261,0.336,-0.0676,0.1975,0.0852,3458,2019-08-07 16:49:26:814
-6.8525,-7.3888,1.5738,0.5714,-0.0213,0.0245,-0.0548,0.042,0.0788,3463,2019-08-07 16:49:26:819
-6.8525,-7.3888,1.5738,0.5714,-0.0213,0.0245,-0.0548,0.042,0.0788,3467,2019-08-07 16:49:26:823
-6.6468,-7.3172,1.5455,0.5714,-0.0213,0.0245,-0.0484,-0.1092,0.0693,3473,2019-08-07 16:49:26:829
-6.6468,-7.3172,1.5455,0.5714,-0.0213,0.0245,-0.0484,-0.1092,0.0693,3477,2019-08-07 16:49:26:833
-6.6468,-7.3172,1.5455,0.1468,-0.0842,0.2671,-0.0314,-0.2073,0.0586,3483,2019-08-07 16:49:26:839
-6.3358,-7.2694,1.3381,0.1468,-0.0842,0.2671,-0.0314,-0.2073,0.0586,3487,2019-08-07 16:49:26:843
-6.3358,-7.2694,1.3381,0.1468,-0.0842,0.2671,-0.0101,-0.2286,0.0469,3493,2019-08-07 16:49:26:849
-5.9435,-7.3267,0.9987,0.1468,-0.0842,0.2671,-0.0101,-0.2286,0.0469,3498,2019-08-07 16:49:26:854
-5.9435,-7.3267,0.9987,0.1468,-0.0842,0.2671,0.0176,-0.1678,0.0202,3502,2019-08-07 16:49:26:858
-5.9435,-7.3267,0.9987,-0.4406,-0.042,0.6242,0.0176,-0.1678,0.0202,3508,2019-08-07 16:49:26:864
-5.7905,-7.3171,0.9374,-0.4406,-0.042,0.6242,0.0432,-0.0656,-0.0106,3514,2019-08-07 16:49:26:870
-5.7905,-7.3171,0.9374,-0.4406,-0.042,0.6242,0.0432,-0.0656,-0.0106,3518,2019-08-07 16:49:26:874
-5.8431,-7.236,1.0458,-0.4361,-0.1203,0.5952,0.0773,0.0548,-0.0266,3523,2019-08-07 16:49:26:879
-5.8431,-7.236,1.0458,-0.4361,-0.1203,0.5952,0.0773,0.0548,-0.0266,3528,2019-08-07 16:49:26:884
-5.8431,-7.236,1.0458,-0.4361,-0.1203,0.5952,0.105,0.1454,-0.0383,3533,2019-08-07 16:49:26:889
-6.0536,-7.193,1.2297,-0.4361,-0.1203,0.5952,0.105,0.1454,-0.0383,3537,2019-08-07 16:49:26:893
-6.0536,-7.193,1.2297,-0.4361,-0.1203,0.5952,0.1252,0.1816,-0.0437,3543,2019-08-07 16:49:26:899
-6.0536,-7.193,1.2297,-0.0666,-0.2227,0.2221,0.1252,0.1816,-0.0437,3547,2019-08-07 16:49:26:903
-6.2689,-7.0594,1.4512,-0.0666,-0.2227,0.2221,0.1252,0.1816,-0.0437,3553,2019-08-07 16:49:26:909
-6.2689,-7.0594,1.4512,-0.0666,-0.2227,0.2221,0.1444,0.1581,-0.0383,3557,2019-08-07 16:49:26:913
-6.4029,-7.0403,1.6162,-0.0666,-0.2227,0.2221,0.1444,0.1581,-0.0383,3563,2019-08-07 16:49:26:919
-6.4029,-7.0403,1.6162,0.047,-0.3217,0.0205,0.1519,0.0804,-0.0256,3568,2019-08-07 16:49:26:924
-6.4029,-7.0403,1.6162,0.047,-0.3217,0.0205,0.1519,0.0804,-0.0256,3573,2019-08-07 16:49:26:929
-6.245,-6.9066,1.5879,0.047,-0.3217,0.0205,0.1487,-6.0E-4,-0.0181,3578,2019-08-07 16:49:26:934
-6.245,-6.9066,1.5879,0.047,-0.3217,0.0205,0.1487,-6.0E-4,-0.0181,3583,2019-08-07 16:49:26:939
-6.245,-6.9066,1.5879,-0.105,-0.504,-0.0149,0.1487,-0.0581,-0.0202,3588,2019-08-07 16:49:26:944
-6.0919,-6.835,1.6916,-0.105,-0.504,-0.0149,0.1487,-0.0581,-0.0202,3593,2019-08-07 16:49:26:949
-6.0919,-6.835,1.6916,-0.105,-0.504,-0.0149,0.1305,-0.0677,-0.0202,3598,2019-08-07 16:49:26:954
-5.9532,-6.7729,1.5172,-0.105,-0.504,-0.0149,0.1305,-0.0677,-0.0202,3603,2019-08-07 16:49:26:959
-5.9532,-6.7729,1.5172,-0.3786,-0.5724,0.1787,0.1167,-0.0432,-0.0181,3607,2019-08-07 16:49:26:963
-5.9532,-6.7729,1.5172,-0.3786,-0.5724,0.1787,0.1167,-0.0432,-0.0181,3613,2019-08-07 16:49:26:969
-5.8288,-6.8111,1.5172,-0.3786,-0.5724,0.1787,0.1124,0.0143,-0.0234,3617,2019-08-07 16:49:26:973
-5.8288,-6.8111,1.5172,-0.3786,-0.5724,0.1787,0.1124,0.0143,-0.0234,3623,2019-08-07 16:49:26:979
-5.8288,-6.8111,1.5172,-0.4139,-0.5614,0.1586,0.1124,0.0143,-0.0234,3627,2019-08-07 16:49:26:983
-5.8288,-6.7634,1.5691,-0.4139,-0.5614,0.1586,0.1007,0.0665,-0.0202,3633,2019-08-07 16:49:26:989
-5.8288,-6.7634,1.5691,-0.4139,-0.5614,0.1586,0.1007,0.0665,-0.0202,3637,2019-08-07 16:49:26:993
-5.8719,-6.7586,1.5785,-0.4139,-0.5614,0.1586,0.0901,0.1155,-0.0117,3643,2019-08-07 16:49:26:999
-5.8719,-6.7586,1.5785,-0.3766,-0.5694,0.1375,0.0901,0.1155,-0.0117,3648,2019-08-07 16:49:27:004
-5.8719,-6.7586,1.5785,-0.3766,-0.5694,0.1375,0.0815,0.1517,-0.0043,3653,2019-08-07 16:49:27:009
-6.0202,-6.7825,1.6916,-0.3766,-0.5694,0.1375,0.0815,0.1517,-0.0043,3657,2019-08-07 16:49:27:013
-6.0202,-6.7825,1.6916,-0.3766,-0.5694,0.1375,0.072,0.1454,0.0128,3663,2019-08-07 16:49:27:019
-6.1302,-6.7491,1.8047,-0.1489,-0.5557,-0.1046,0.072,0.1454,0.0128,3667,2019-08-07 16:49:27:023
-6.1302,-6.7491,1.8047,-0.1489,-0.5557,-0.1046,0.0698,0.1017,0.0362,3673,2019-08-07 16:49:27:029
-6.1302,-6.7491,1.8047,-0.1489,-0.5557,-0.1046,0.0698,0.1017,0.0362,3677,2019-08-07 16:49:27:033
-6.2451,-6.7968,1.7859,-0.1489,-0.5557,-0.1046,0.0698,0.1017,0.0362,3682,2019-08-07 16:49:27:038
-6.2451,-6.7968,1.7859,-0.0348,-0.5421,-0.1049,0.0688,0.0527,0.0479,3688,2019-08-07 16:49:27:044
-6.312,-6.7729,1.8047,-0.0348,-0.5421,-0.1049,0.0688,-0.0144,0.065,3693,2019-08-07 16:49:27:049
-6.312,-6.7729,1.8047,-0.0348,-0.5421,-0.1049,0.0688,-0.0144,0.065,3697,2019-08-07 16:49:27:053
-6.312,-6.7729,1.8047,-0.0348,-0.5421,-0.1049,0.073,-0.0688,0.0906,3703,2019-08-07 16:49:27:059
-6.1877,-6.8398,1.7293,-0.1133,-0.4812,-0.0152,0.073,-0.0688,0.0906,3709,2019-08-07 16:49:27:065
-6.1877,-6.8398,1.7293,-0.1133,-0.4812,-0.0152,0.073,-0.0688,0.0906,3712,2019-08-07 16:49:27:068
-6.1877,-6.8398,1.7293,-0.1133,-0.4812,-0.0152,0.0837,-0.0975,0.1065,3718,2019-08-07 16:49:27:074
-6.0393,-6.897,1.5926,-0.1133,-0.4812,-0.0152,0.0837,-0.0975,0.1065,3722,2019-08-07 16:49:27:078
-6.0393,-6.897,1.5926,-0.3752,-0.3973,0.1974,0.0911,-0.0794,0.1172,3729,2019-08-07 16:49:27:085
-5.9628,-6.9305,1.5172,-0.3752,-0.3973,0.1974,0.0911,-0.0794,0.1172,3732,2019-08-07 16:49:27:088
-5.9628,-6.9305,1.5172,-0.3752,-0.3973,0.1974,0.0911,-0.0794,0.1172,3738,2019-08-07 16:49:27:094
-5.9628,-6.9305,1.5172,-0.3752,-0.3973,0.1974,0.105,-0.023,0.131,3743,2019-08-07 16:49:27:099
-5.9102,-6.9686,1.536,-0.4926,-0.34,0.2351,0.105,-0.023,0.131,3747,2019-08-07 16:49:27:103
-5.9102,-6.9686,1.536,-0.4926,-0.34,0.2351,0.1146,0.0484,0.1268,3753,2019-08-07 16:49:27:109
-5.8576,-6.8923,1.5125,-0.4926,-0.34,0.2351,0.1146,0.0484,0.1268,3757,2019-08-07 16:49:27:113
-5.8576,-6.8923,1.5125,-0.4926,-0.34,0.2351,0.121,0.1209,0.1183,3763,2019-08-07 16:49:27:119
-5.8576,-6.8923,1.5125,-0.3554,-0.3973,0.1546,0.121,0.1209,0.1183,3767,2019-08-07 16:49:27:123
-6.0442,-6.8779,1.6397,-0.3554,-0.3973,0.1546,0.1188,0.1805,0.1065,3773,2019-08-07 16:49:27:129
-6.0442,-6.8779,1.6397,-0.3554,-0.3973,0.1546,0.1188,0.1805,0.1065,3778,2019-08-07 16:49:27:134
-6.3121,-6.8827,1.8943,-0.3554,-0.3973,0.1546,0.1188,0.1986,0.0959,3782,2019-08-07 16:49:27:138
-6.3121,-6.8827,1.8943,0.0911,-0.4316,-0.2946,0.1188,0.1986,0.0959,3788,2019-08-07 16:49:27:144
-6.3121,-6.8827,1.8943,0.0911,-0.4316,-0.2946,0.106,0.1517,0.0842,3793,2019-08-07 16:49:27:149
-6.6183,-6.7586,2.1441,0.0911,-0.4316,-0.2946,0.106,0.1517,0.0842,3798,2019-08-07 16:49:27:154
-6.6183,-6.7586,2.1441,0.0911,-0.4316,-0.2946,0.0837,0.0495,0.081,3802,2019-08-07 16:49:27:158
-6.6183,-6.7586,2.1441,0.322,-0.4525,-0.4299,0.0837,0.0495,0.081,3808,2019-08-07 16:49:27:164
-6.6996,-6.7347,2.1583,0.322,-0.4525,-0.4299,0.0837,0.0495,0.081,3812,2019-08-07 16:49:27:168
-6.6996,-6.7347,2.1583,0.322,-0.4525,-0.4299,0.0528,-0.105,0.0661,3818,2019-08-07 16:49:27:174
-6.5657,-6.8636,1.9886,0.322,-0.4525,-0.4299,0.0528,-0.105,0.0661,3822,2019-08-07 16:49:27:178
-6.5657,-6.8636,1.9886,0.0577,-0.35,-0.0448,0.0187,-0.2264,0.0458,3828,2019-08-07 16:49:27:184
-6.2691,-6.9257,1.7623,0.0577,-0.35,-0.0448,0.0187,-0.2264,0.0458,3833,2019-08-07 16:49:27:189
-6.2691,-6.9257,1.7623,0.0577,-0.35,-0.0448,0.0112,-0.2594,0.0309,3838,2019-08-07 16:49:27:194
-6.2691,-6.9257,1.7623,0.0577,-0.35,-0.0448,0.0112,-0.2594,0.0309,3843,2019-08-07 16:49:27:199
-5.9055,-6.9543,1.5785,-0.5492,-0.2796,0.2528,0.0187,-0.2264,0.0075,3848,2019-08-07 16:49:27:204
-5.9055,-6.9543,1.5785,-0.5492,-0.2796,0.2528,0.0187,-0.2264,0.0075,3852,2019-08-07 16:49:27:208
-5.9055,-6.9543,1.5785,-0.5492,-0.2796,0.2528,0.0155,-0.1199,-0.0096,3858,2019-08-07 16:49:27:214
-5.6519,-6.897,1.4512,-0.5492,-0.2796,0.2528,0.0155,-0.1199,-0.0096,3862,2019-08-07 16:49:27:218
-5.6519,-6.897,1.4512,-0.7574,-0.3926,0.4061,0.007,0.0324,-0.0213,3868,2019-08-07 16:49:27:224
-5.6567,-6.8445,1.4512,-0.7574,-0.3926,0.4061,0.007,0.0324,-0.0213,3873,2019-08-07 16:49:27:229
-5.6567,-6.8445,1.4512,-0.7574,-0.3926,0.4061,6.0E-4,0.1869,-0.033,3878,2019-08-07 16:49:27:234
-5.6567,-6.8445,1.4512,-0.7574,-0.3926,0.4061,6.0E-4,0.1869,-0.033,3882,2019-08-07 16:49:27:238
-5.9246,-6.8207,1.5926,-0.2999,-0.3882,0.1109,-0.0047,0.3094,-0.0394,3888,2019-08-07 16:49:27:244
-5.9246,-6.8207,1.5926,-0.2999,-0.3882,0.1109,-0.0047,0.3094,-0.0394,3893,2019-08-07 16:49:27:249
-6.293,-6.7777,1.7906,-0.2999,-0.3882,0.1109,-0.0154,0.3169,-0.0394,3897,2019-08-07 16:49:27:253
-6.293,-6.7777,1.7906,-0.2999,-0.3882,0.1109,-0.0154,0.3169,-0.0394,3903,2019-08-07 16:49:27:259
-6.293,-6.7777,1.7906,-0.2999,-0.3882,0.1109,-0.0154,0.3169,-0.0394,3907,2019-08-07 16:49:27:263
-6.6901,-6.6822,1.9226,0.2956,-0.5447,-0.1567,-0.0207,0.2689,-0.0394,3913,2019-08-07 16:49:27:269
-6.6901,-6.6822,1.9226,0.2956,-0.5447,-0.1567,-0.0207,0.1603,-0.0288,3918,2019-08-07 16:49:27:274
-6.781,-6.7252,2.0781,0.2956,-0.5447,-0.1567,-0.0207,0.1603,-0.0288,3923,2019-08-07 16:49:27:279
-6.781,-6.7252,2.0781,0.2956,-0.5447,-0.1567,-0.0207,0.1603,-0.0288,3927,2019-08-07 16:49:27:283
-6.781,-6.7252,2.0781,0.3673,-0.5076,-0.3343,-0.0154,0.025,-0.0266,3933,2019-08-07 16:49:27:289
-6.6327,-6.6774,2.1017,0.3673,-0.5076,-0.3343,-0.0154,0.025,-0.0266,3938,2019-08-07 16:49:27:294
-6.6327,-6.6774,2.1017,0.3673,-0.5076,-0.3343,-0.0133,-0.0869,-0.0181,3943,2019-08-07 16:49:27:299
-6.2978,-6.7395,1.7387,0.3673,-0.5076,-0.3343,-0.0133,-0.0869,-0.0181,3948,2019-08-07 16:49:27:304
-6.2978,-6.7395,1.7387,-0.1511,-0.4557,0.0841,-0.009,-0.1348,-0.0138,3953,2019-08-07 16:49:27:309
-6.2978,-6.7395,1.7387,-0.1511,-0.4557,0.0841,-0.009,-0.1348,-0.0138,3957,2019-08-07 16:49:27:313
-6.0251,-6.7538,1.635,-0.1511,-0.4557,0.0841,-0.0069,-0.1124,-0.0149,3963,2019-08-07 16:49:27:319
-6.0251,-6.7538,1.635,-0.1511,-0.4557,0.0841,-0.0069,-0.1124,-0.0149,3967,2019-08-07 16:49:27:323
-5.8433,-6.8159,1.5784,-0.5471,-0.4245,0.2144,-0.0026,-0.0453,-0.0117,3973,2019-08-07 16:49:27:329
-5.8433,-6.8159,1.5784,-0.5471,-0.4245,0.2144,-0.0026,-0.0453,-0.0117,3978,2019-08-07 16:49:27:334
-5.8433,-6.8159,1.5784,-0.5471,-0.4245,0.2144,0.007,0.042,0.0,3982,2019-08-07 16:49:27:338
-5.8242,-6.9209,1.5643,-0.5471,-0.4245,0.2144,0.007,0.042,0.0,3988,2019-08-07 16:49:27:344
-5.8242,-6.9209,1.5643,-0.5131,-0.3686,0.234,0.0123,0.123,0.0021,3992,2019-08-07 16:49:27:348
-6.0347,-6.897,1.5784,-0.5131,-0.3686,0.234,0.0123,0.123,0.0021,3998,2019-08-07 16:49:27:354
-6.0347,-6.897,1.5784,-0.5131,-0.3686,0.234,0.0112,0.1794,0.0053,4003,2019-08-07 16:49:27:359
-6.0347,-6.897,1.5784,-0.5131,-0.3686,0.234,0.0112,0.1794,0.0053,4007,2019-08-07 16:49:27:363
-6.1974,-6.8016,1.701,-0.1995,-0.4773,0.025,0.0144,0.1954,0.0107,4013,2019-08-07 16:49:27:369
-6.1974,-6.8016,1.701,-0.1995,-0.4773,0.025,0.0144,0.1954,0.0107,4017,2019-08-07 16:49:27:373
-6.3409,-6.7299,1.8801,-0.1995,-0.4773,0.025,0.0102,0.173,0.0181,4023,2019-08-07 16:49:27:379
-6.3409,-6.7299,1.8801,-0.1995,-0.4773,0.025,0.0102,0.173,0.0181,4027,2019-08-07 16:49:27:383
-6.3409,-6.7299,1.8801,0.0152,-0.5301,-0.1641,-0.0069,0.1134,0.0213,4033,2019-08-07 16:49:27:389
-6.451,-6.7299,1.8895,0.0152,-0.5301,-0.1641,-0.0069,0.1134,0.0213,4038,2019-08-07 16:49:27:394
-6.451,-6.7299,1.8895,0.0152,-0.5301,-0.1641,-0.0069,0.1134,0.0213,4043,2019-08-07 16:49:27:399
-6.451,-6.7299,1.8895,0.0152,-0.5301,-0.1641,-0.0239,0.0569,0.0256,4047,2019-08-07 16:49:27:403
-6.3649,-6.6822,1.7858,-0.0645,-0.5114,-0.0525,-0.0239,0.0569,0.0256,4053,2019-08-07 16:49:27:409
-6.3649,-6.6822,1.7858,-0.0645,-0.5114,-0.0525,-0.042,0.0165,0.0234,4058,2019-08-07 16:49:27:414
-6.207,-6.7061,1.734,-0.0645,-0.5114,-0.0525,-0.042,0.0165,0.0234,4063,2019-08-07 16:49:27:419
-6.207,-6.7061,1.734,-0.0645,-0.5114,-0.0525,-0.0527,0.0154,0.0213,4068,2019-08-07 16:49:27:424
-6.207,-6.7061,1.734,-0.3276,-0.4423,0.1228,-0.0527,0.0154,0.0213,4073,2019-08-07 16:49:27:429
-6.1017,-6.8063,1.5124,-0.3276,-0.4423,0.1228,-0.0655,0.0442,0.0298,4077,2019-08-07 16:49:27:433
-6.1017,-6.8063,1.5124,-0.3276,-0.4423,0.1228,-0.0655,0.0442,0.0298,4083,2019-08-07 16:49:27:439
-6.1017,-6.8063,1.5124,-0.3276,-0.4423,0.1228,-0.0623,0.0964,0.032,4087,2019-08-07 16:49:27:443
-6.0539,-6.8015,1.4606,-0.3533,-0.3216,0.2266,-0.0623,0.0964,0.032,4093,2019-08-07 16:49:27:449
-6.0539,-6.8015,1.4606,-0.3533,-0.3216,0.2266,-0.0516,0.1475,0.0298,4098,2019-08-07 16:49:27:454
-6.1352,-6.8302,1.503,-0.3533,-0.3216,0.2266,-0.0516,0.1475,0.0298,4103,2019-08-07 16:49:27:459
-6.1352,-6.8302,1.503,-0.3533,-0.3216,0.2266,-0.0516,0.1475,0.0298,4108,2019-08-07 16:49:27:464
-6.1352,-6.8302,1.503,-0.1392,-0.3997,0.0756,-0.042,0.1773,0.0405,4113,2019-08-07 16:49:27:469
-6.3458,-6.7824,1.5643,-0.1392,-0.3997,0.0756,-0.042,0.1773,0.0405,4117,2019-08-07 16:49:27:473
-6.3458,-6.7824,1.5643,-0.1392,-0.3997,0.0756,-0.0378,0.1571,0.0511,4123,2019-08-07 16:49:27:479
-6.5132,-6.8063,1.7104,-0.1392,-0.3997,0.0756,-0.0378,0.1571,0.0511,4127,2019-08-07 16:49:27:483
-6.5132,-6.8063,1.7104,0.191,-0.3831,-0.0815,-0.0367,0.0825,0.0629,4133,2019-08-07 16:49:27:489
-6.5132,-6.8063,1.7104,0.191,-0.3831,-0.0815,-0.0367,0.0825,0.0629,4137,2019-08-07 16:49:27:493
-6.6118,-6.797,1.7485,0.191,-0.3831,-0.0815,-0.0271,0.0143,0.0714,4143,2019-08-07 16:49:27:499
-6.6118,-6.797,1.7485,0.191,-0.3831,-0.0815,-0.0271,0.0143,0.0714,4147,2019-08-07 16:49:27:503
-6.5257,-6.8351,1.6213,0.0611,-0.363,0.0013,-0.0261,-0.0592,0.0746,4153,2019-08-07 16:49:27:509
-6.5257,-6.8351,1.6213,0.0611,-0.363,0.0013,-0.0261,-0.0592,0.0746,4158,2019-08-07 16:49:27:514
-6.5257,-6.8351,1.6213,0.0611,-0.363,0.0013,-0.0239,-0.0954,0.0735,4163,2019-08-07 16:49:27:519
-6.3008,-6.8924,1.5223,0.0611,-0.363,0.0013,-0.0239,-0.0954,0.0735,4168,2019-08-07 16:49:27:524
-6.3008,-6.8924,1.5223,-0.2059,-0.3297,0.1548,-0.0197,-0.0794,0.0586,4172,2019-08-07 16:49:27:528
-6.3008,-6.8924,1.5223,-0.2059,-0.3297,0.1548,-0.0197,-0.0794,0.0586,4178,2019-08-07 16:49:27:534
-6.2242,-6.7922,1.4374,-0.2059,-0.3297,0.1548,-0.0165,-0.0262,0.0543,4183,2019-08-07 16:49:27:539
-6.2242,-6.7922,1.4374,-0.2059,-0.3297,0.1548,-0.0165,-0.0262,0.0543,4188,2019-08-07 16:49:27:544
-6.1668,-6.7922,1.3997,-0.3565,-0.3373,0.2079,-0.0197,0.0335,0.048,4193,2019-08-07 16:49:27:549
-6.1668,-6.7922,1.3997,-0.3565,-0.3373,0.2079,-0.0197,0.0335,0.048,4198,2019-08-07 16:49:27:554
-6.1907,-6.7874,1.4421,-0.3565,-0.3373,0.2079,-0.0261,0.0804,0.0373,4203,2019-08-07 16:49:27:559
-6.1907,-6.7874,1.4421,-0.3565,-0.3373,0.2079,-0.0261,0.0804,0.0373,4209,2019-08-07 16:49:27:565
-6.1907,-6.7874,1.4421,-0.1836,-0.3754,0.0954,-0.0261,0.0974,0.0416,4213,2019-08-07 16:49:27:569
-6.3294,-6.8399,1.5129,-0.1836,-0.3754,0.0954,-0.0261,0.0974,0.0416,4218,2019-08-07 16:49:27:574
-6.3294,-6.8399,1.5129,-0.1836,-0.3754,0.0954,-0.0261,0.0974,0.0416,4223,2019-08-07 16:49:27:579
-6.3294,-6.8399,1.5129,-0.1836,-0.3754,0.0954,-0.0186,0.0814,0.0384,4227,2019-08-07 16:49:27:583
-6.3868,-6.859,1.5741,-0.1118,-0.3509,0.0808,-0.0186,0.0814,0.0384,4233,2019-08-07 16:49:27:589
-6.3868,-6.859,1.5741,-0.1118,-0.3509,0.0808,-0.0175,0.0431,0.0437,4238,2019-08-07 16:49:27:594
-6.3772,-6.8924,1.527,-0.1118,-0.3509,0.0808,-0.0175,0.0431,0.0437,4243,2019-08-07 16:49:27:599
-6.3772,-6.8924,1.527,-0.1118,-0.3509,0.0808,-0.0229,0.0303,0.0458,4248,2019-08-07 16:49:27:604
-6.3772,-6.8924,1.527,-0.1118,-0.3509,0.0808,-0.0229,0.0303,0.0458,4252,2019-08-07 16:49:27:608
-6.2624,-6.945,1.5553,-0.2347,-0.2404,0.0446,-0.0229,0.0303,0.0458,4258,2019-08-07 16:49:27:614
-6.2624,-6.945,1.5553,-0.2347,-0.2404,0.0446,-0.0271,0.0079,0.0416,4263,2019-08-07 16:49:27:619
-6.2624,-6.945,1.5553,-0.2347,-0.2404,0.0446,-0.0271,0.0079,0.0416,4268,2019-08-07 16:49:27:624
-6.2672,-6.8924,1.494,-0.2347,-0.2404,0.0446,-0.0282,-0.0017,0.0362,4273,2019-08-07 16:49:27:629
-6.2672,-6.8924,1.494,-0.3074,-0.2219,0.0821,-0.0282,-0.0017,0.0362,4277,2019-08-07 16:49:27:633
-6.181,-6.9306,1.4752,-0.3074,-0.2219,0.0821,-0.0388,0.0133,0.032,4283,2019-08-07 16:49:27:639
-6.181,-6.9306,1.4752,-0.3074,-0.2219,0.0821,-0.0388,0.0133,0.032,4288,2019-08-07 16:49:27:644
-6.181,-6.9306,1.4752,-0.3074,-0.2219,0.0821,-0.0346,0.0399,0.0245,4293,2019-08-07 16:49:27:649
-6.1714,-6.8686,1.4186,-0.3456,-0.2912,0.1633,-0.0346,0.0399,0.0245,4298,2019-08-07 16:49:27:654
-6.1714,-6.8686,1.4186,-0.3456,-0.2912,0.1633,-0.0346,0.0399,0.0245,4303,2019-08-07 16:49:27:659
-6.2528,-6.8829,1.3668,-0.3456,-0.2912,0.1633,-0.0367,0.0793,0.0149,4307,2019-08-07 16:49:27:663
-6.2528,-6.8829,1.3668,-0.3456,-0.2912,0.1633,-0.0367,0.0793,0.0149,4313,2019-08-07 16:49:27:669
-6.2528,-6.8829,1.3668,-0.221,-0.2238,0.2083,-0.0378,0.1166,0.0032,4317,2019-08-07 16:49:27:673
-6.3963,-6.9402,1.4799,-0.221,-0.2238,0.2083,-0.0378,0.1166,0.0032,4323,2019-08-07 16:49:27:679
-6.3963,-6.9402,1.4799,-0.221,-0.2238,0.2083,-0.0346,0.1166,0.0,4328,2019-08-07 16:49:27:684
-6.5493,-6.9354,1.4893,-0.221,-0.2238,0.2083,-0.0346,0.1166,0.0,4333,2019-08-07 16:49:27:689
-6.5493,-6.9354,1.4893,0.0426,-0.2101,0.0743,-0.0218,0.1006,-0.0032,4337,2019-08-07 16:49:27:693
-6.5493,-6.9354,1.4893,0.0426,-0.2101,0.0743,-0.0218,0.1006,-0.0032,4343,2019-08-07 16:49:27:699
-6.6019,-6.9975,1.6543,0.0426,-0.2101,0.0743,0.0016,0.0761,0.0053,4347,2019-08-07 16:49:27:703
-6.6019,-6.9975,1.6543,0.0426,-0.2101,0.0743,0.0016,0.0761,0.0053,4353,2019-08-07 16:49:27:709
-6.6019,-6.9975,1.6543,-0.0282,-0.1179,-0.086,0.0411,0.0548,0.0171,4357,2019-08-07 16:49:27:713
-6.4632,-7.0261,1.5789,-0.0282,-0.1179,-0.086,0.0411,0.0548,0.0171,4363,2019-08-07 16:49:27:719
-6.4632,-7.0261,1.5789,-0.0282,-0.1179,-0.086,0.0762,0.0527,0.0235,4368,2019-08-07 16:49:27:724
-6.5062,-6.9975,1.6967,-0.0282,-0.1179,-0.086,0.0762,0.0527,0.0235,4372,2019-08-07 16:49:27:728
-6.5062,-6.9975,1.6967,-0.0435,-0.2171,-0.177,0.122,0.1177,0.0352,4378,2019-08-07 16:49:27:734
-6.5062,-6.9975,1.6967,-0.0435,-0.2171,-0.177,0.122,0.1177,0.0352,4382,2019-08-07 16:49:27:738
-6.3962,-6.8734,1.8052,-0.0435,-0.2171,-0.177,0.1742,0.1667,0.0437,4388,2019-08-07 16:49:27:744
-6.3962,-6.8734,1.8052,-0.0435,-0.2171,-0.177,0.1742,0.1667,0.0437,4392,2019-08-07 16:49:27:748
-6.1474,-6.9832,1.5412,-0.3984,-0.1592,0.0,0.1614,0.1709,0.0085,4398,2019-08-07 16:49:27:754
-6.1474,-6.9832,1.5412,-0.3984,-0.1592,0.0,0.1614,0.1709,0.0085,4403,2019-08-07 16:49:27:759
-6.377,-6.7874,1.1924,-0.3984,-0.1592,0.0,0.0965,0.1528,-0.0202,4409,2019-08-07 16:49:27:765
-6.377,-6.7874,1.1924,-0.3984,-0.1592,0.0,0.0965,0.1528,-0.0202,4413,2019-08-07 16:49:27:769
-6.377,-6.7874,1.1924,-0.1064,-0.476,0.3672,0.0965,0.1528,-0.0202,4418,2019-08-07 16:49:27:774
-6.5062,-6.6633,1.3479,-0.1064,-0.476,0.3672,0.007,0.1208,-0.0224,4423,2019-08-07 16:49:27:779
-6.5062,-6.6633,1.3479,-0.0405,-0.4719,0.1234,0.007,0.1208,-0.0224,4428,2019-08-07 16:49:27:784
-6.5062,-6.6633,1.3479,-0.0405,-0.4719,0.1234,-0.0548,0.0708,-0.0266,4432,2019-08-07 16:49:27:788
-6.6018,-6.7015,1.6402,-0.0405,-0.4719,0.1234,-0.0548,0.0708,-0.0266,4438,2019-08-07 16:49:27:794
-6.6018,-6.7015,1.6402,-0.0405,-0.4719,0.1234,-0.0633,0.0303,-0.0405,4443,2019-08-07 16:49:27:799
-6.7071,-6.7588,1.7486,0.1572,-0.3855,-0.2339,-0.0633,0.0303,-0.0405,4448,2019-08-07 16:49:27:804
-6.7071,-6.7588,1.7486,0.1572,-0.3855,-0.2339,-0.041,-0.0166,-0.0362,4452,2019-08-07 16:49:27:808
-6.7071,-6.7588,1.7486,0.1572,-0.3855,-0.2339,-0.041,-0.0166,-0.0362,4458,2019-08-07 16:49:27:814
-6.5348,-6.8113,1.5601,0.1572,-0.3855,-0.2339,-0.0229,-0.0453,-0.0319,4462,2019-08-07 16:49:27:818
-6.5348,-6.8113,1.5601,-0.0727,-0.2987,0.0266,-0.0229,-0.0453,-0.0319,4468,2019-08-07 16:49:27:824
-6.5348,-6.8113,1.5601,-0.0727,-0.2987,0.0266,-0.0261,-0.0784,-0.0373,4472,2019-08-07 16:49:27:828
-6.4056,-6.8065,1.4658,-0.0727,-0.2987,0.0266,-0.0261,-0.0784,-0.0373,4478,2019-08-07 16:49:27:834
-6.4056,-6.8065,1.4658,-0.0727,-0.2987,0.0266,-0.0356,-0.0837,-0.0383,4483,2019-08-07 16:49:27:839
-6.4056,-6.8065,1.4658,-0.1853,-0.3182,0.0655,-0.0356,-0.0837,-0.0383,4488,2019-08-07 16:49:27:844
-6.3147,-6.8018,1.4988,-0.1853,-0.3182,0.0655,-0.0282,-0.0571,-0.0362,4493,2019-08-07 16:49:27:849
-6.3147,-6.8018,1.4988,-0.1853,-0.3182,0.0655,-0.0282,-0.0571,-0.0362,4498,2019-08-07 16:49:27:854
-6.2621,-6.8066,1.4328,-0.1853,-0.3182,0.0655,-0.0282,-0.0571,-0.0362,4503,2019-08-07 16:49:27:859
-6.2621,-6.8066,1.4328,-0.294,-0.3661,0.1769,-0.009,-0.023,-0.0351,4508,2019-08-07 16:49:27:864
-6.2621,-6.8066,1.4328,-0.294,-0.3661,0.1769,-0.009,-0.023,-0.0351,4512,2019-08-07 16:49:27:868
-6.2812,-6.8018,1.249,-0.294,-0.3661,0.1769,-0.0133,0.0026,-0.0437,4518,2019-08-07 16:49:27:874
-6.2812,-6.8018,1.249,-0.294,-0.3661,0.1769,-0.0133,0.0026,-0.0437,4522,2019-08-07 16:49:27:878
-6.4008,-6.7015,1.414,-0.1263,-0.4624,0.1065,-0.0399,0.009,-0.0458,4528,2019-08-07 16:49:27:884
-6.4008,-6.7015,1.414,-0.1263,-0.4624,0.1065,-0.0399,0.009,-0.0458,4533,2019-08-07 16:49:27:889
-6.4008,-6.7015,1.414,-0.1263,-0.4624,0.1065,-0.0367,0.0282,-0.0458,4538,2019-08-07 16:49:27:894
-6.3386,-6.7731,1.5129,-0.1263,-0.4624,0.1065,-0.0367,0.0282,-0.0458,4543,2019-08-07 16:49:27:899
-6.3386,-6.7731,1.5129,-0.1504,-0.4111,0.0936,-0.009,0.0282,-0.0469,4548,2019-08-07 16:49:27:904
-6.3959,-6.7684,1.4187,-0.1504,-0.4111,0.0936,-0.009,0.0282,-0.0469,4553,2019-08-07 16:49:27:909
-6.3959,-6.7684,1.4187,-0.1504,-0.4111,0.0936,-0.009,0.0282,-0.0469,4557,2019-08-07 16:49:27:913
-6.3959,-6.7684,1.4187,-0.1504,-0.4111,0.0936,0.0027,0.0378,-0.0426,4563,2019-08-07 16:49:27:919
-6.3242,-6.735,1.3574,-0.2085,-0.4207,0.14,-0.0016,0.0346,-0.0373,4568,2019-08-07 16:49:27:924
-6.3242,-6.735,1.3574,-0.2085,-0.4207,0.14,-0.0016,0.0346,-0.0373,4573,2019-08-07 16:49:27:929
-6.3816,-6.7636,1.4658,-0.2085,-0.4207,0.14,-0.0016,0.0346,-0.0373,4579,2019-08-07 16:49:27:935
-6.3816,-6.7636,1.4658,-0.2085,-0.4207,0.14,-0.0026,5.0E-4,-0.0309,4583,2019-08-07 16:49:27:939
-6.3816,-6.7636,1.4658,-0.2085,-0.4207,0.14,-0.0026,5.0E-4,-0.0309,4588,2019-08-07 16:49:27:944
-6.3337,-6.797,1.546,-0.1379,-0.3622,-0.0212,-0.0016,-0.0368,-0.0117,4592,2019-08-07 16:49:27:948
-6.3337,-6.797,1.546,-0.1379,-0.3622,-0.0212,-0.0016,-0.0368,-0.0117,4598,2019-08-07 16:49:27:954
-6.3337,-6.797,1.546,-0.1379,-0.3622,-0.0212,0.0251,-0.0539,-0.0106,4602,2019-08-07 16:49:27:958
-6.1232,-6.8448,1.4187,-0.1379,-0.3622,-0.0212,0.0251,-0.0539,-0.0106,4608,2019-08-07 16:49:27:964
-6.1232,-6.8448,1.4187,-0.3833,-0.2633,0.0766,0.0315,-0.0389,-0.0053,4613,2019-08-07 16:49:27:969
-6.0897,-6.8161,1.3904,-0.3833,-0.2633,0.0766,0.0315,-0.0389,-0.0053,4618,2019-08-07 16:49:27:974
-6.0897,-6.8161,1.3904,-0.3833,-0.2633,0.0766,0.0347,0.0047,0.0075,4623,2019-08-07 16:49:27:979
-6.0897,-6.8161,1.3904,-0.3833,-0.2633,0.0766,0.0347,0.0047,0.0075,4628,2019-08-07 16:49:27:984
-6.0514,-6.8066,1.3056,-0.4589,-0.3726,0.215,0.0347,0.0047,0.0075,4633,2019-08-07 16:49:27:989
-6.0514,-6.8066,1.3056,-0.4589,-0.3726,0.215,0.0336,0.0452,0.0117,4637,2019-08-07 16:49:27:993
-6.0514,-6.8066,1.3056,-0.4589,-0.3726,0.215,0.0336,0.0452,0.0117,4643,2019-08-07 16:49:27:999
-6.1279,-6.8734,1.4376,-0.4589,-0.3726,0.215,0.0432,0.0772,0.0213,4648,2019-08-07 16:49:28:004
-6.1279,-6.8734,1.4376,-0.3906,-0.3699,0.0761,0.0432,0.0772,0.0213,4653,2019-08-07 16:49:28:009
-6.1279,-6.8734,1.4376,-0.3906,-0.3699,0.0761,0.0464,0.0836,0.0235,4658,2019-08-07 16:49:28:014
-6.2571,-6.7875,1.4941,-0.2598,-0.3866,0.0222,0.0464,0.0836,0.0235,4663,2019-08-07 16:49:28:019
-6.2571,-6.7875,1.4941,-0.2598,-0.3866,0.0222,0.0464,0.0718,0.0245,4668,2019-08-07 16:49:28:024
-6.2571,-6.7875,1.4941,-0.2598,-0.3866,0.0222,0.0464,0.0718,0.0245,4672,2019-08-07 16:49:28:028
-6.3958,-6.7302,1.5743,-0.2598,-0.3866,0.0222,0.0411,0.0495,0.0277,4678,2019-08-07 16:49:28:034
-6.3958,-6.7302,1.5743,-0.1038,-0.4334,-0.0501,0.0411,0.0495,0.0277,4683,2019-08-07 16:49:28:039
-6.3958,-6.7302,1.5743,-0.1038,-0.4334,-0.0501,0.0411,0.0495,0.0277,4687,2019-08-07 16:49:28:043
-6.5393,-6.7206,1.5601,-0.1038,-0.4334,-0.0501,0.0304,-0.0102,0.0384,4693,2019-08-07 16:49:28:049
-6.5393,-6.7206,1.5601,-0.1038,-0.4334,-0.0501,0.0304,-0.0102,0.0384,4698,2019-08-07 16:49:28:054
-6.5106,-6.7636,1.6308,-0.0487,-0.3781,-0.0731,0.0102,-0.0549,0.0469,4702,2019-08-07 16:49:28:058
-6.5106,-6.7636,1.6308,-0.0487,-0.3781,-0.0731,0.0102,-0.0549,0.0469,4708,2019-08-07 16:49:28:064
-6.5106,-6.7636,1.6308,-0.0487,-0.3781,-0.0731,0.0144,-0.0869,0.0437,4712,2019-08-07 16:49:28:068
-6.367,-6.8448,1.5177,-0.0487,-0.3781,-0.0731,0.0144,-0.0869,0.0437,4718,2019-08-07 16:49:28:074
-6.367,-6.8448,1.5177,-0.2732,-0.2806,0.058,0.0123,-0.0879,0.032,4723,2019-08-07 16:49:28:079
-6.2091,-6.8543,1.381,-0.2732,-0.2806,0.058,0.0123,-0.0879,0.032,4727,2019-08-07 16:49:28:083
-6.2091,-6.8543,1.381,-0.2732,-0.2806,0.058,0.0123,-0.0879,0.032,4732,2019-08-07 16:49:28:088
-6.2091,-6.8543,1.381,-0.2732,-0.2806,0.058,-0.0016,-0.0485,0.0235,4738,2019-08-07 16:49:28:094
-6.1948,-6.8352,1.3999,-0.3419,-0.3155,0.1415,-0.0016,-0.0485,0.0235,4742,2019-08-07 16:49:28:098
-6.1948,-6.8352,1.3999,-0.3419,-0.3155,0.1415,-0.0026,0.0026,0.0181,4748,2019-08-07 16:49:28:104
-6.1948,-6.8352,1.3999,-0.3419,-0.3155,0.1415,0.0123,0.0388,0.0235,4753,2019-08-07 16:49:28:109
-6.2521,-6.8495,1.4942,-0.3419,-0.3155,0.1415,0.0123,0.0388,0.0235,4757,2019-08-07 16:49:28:113
-6.2521,-6.8495,1.4942,-0.2548,-0.2981,0.0594,0.0123,0.0388,0.0235,4763,2019-08-07 16:49:28:119
-6.2521,-6.8495,1.4942,-0.2548,-0.2981,0.0594,0.0336,0.058,0.0277,4768,2019-08-07 16:49:28:124
-6.3287,-6.8543,1.4753,-0.2548,-0.2981,0.0594,0.0336,0.058,0.0277,4772,2019-08-07 16:49:28:128
-6.3287,-6.8543,1.4753,-0.2548,-0.2981,0.0594,0.056,0.0527,0.033,4778,2019-08-07 16:49:28:134
-6.4339,-6.7588,1.6026,-0.1133,-0.3827,-0.0638,0.056,0.0527,0.033,4783,2019-08-07 16:49:28:139
-6.4339,-6.7588,1.6026,-0.1133,-0.3827,-0.0638,0.056,0.0527,0.033,4787,2019-08-07 16:49:28:143
-6.4339,-6.7588,1.6026,-0.1133,-0.3827,-0.0638,0.0634,0.0324,0.0437,4793,2019-08-07 16:49:28:149
-6.477,-6.7445,1.6073,-0.1133,-0.3827,-0.0638,0.0634,0.0324,0.0437,4798,2019-08-07 16:49:28:154
-6.477,-6.7445,1.6073,-0.064,-0.3644,-0.0294,0.0677,0.0196,0.0437,4802,2019-08-07 16:49:28:158
-6.5918,-6.7493,1.3386,-0.064,-0.3644,-0.0294,0.0677,0.0196,0.0437,4808,2019-08-07 16:49:28:164
-6.5918,-6.7493,1.3386,-0.064,-0.3644,-0.0294,0.0155,-0.0688,0.0394,4812,2019-08-07 16:49:28:168
-6.3908,-6.8114,1.777,-0.064,-0.3644,-0.0294,0.0155,-0.0688,0.0394,4818,2019-08-07 16:49:28:174
-6.3908,-6.8114,1.777,-0.19,-0.2995,-0.1765,0.056,0.0037,0.0384,4823,2019-08-07 16:49:28:179
-6.3908,-6.8114,1.777,-0.19,-0.2995,-0.1765,0.056,0.0037,0.0384,4828,2019-08-07 16:49:28:184
-6.3477,-6.9307,1.5884,-0.19,-0.2995,-0.1765,0.1252,0.0665,0.0352,4833,2019-08-07 16:49:28:189
-6.3477,-6.9307,1.5884,-0.19,-0.2995,-0.1765,0.1252,0.0665,0.0352,4837,2019-08-07 16:49:28:193
-6.3477,-6.9307,1.5884,-0.2876,-0.2295,0.2602,0.1156,0.1326,0.0309,4843,2019-08-07 16:49:28:199
-6.3047,-6.8018,1.3151,-0.2876,-0.2295,0.2602,0.1156,0.1326,0.0309,4848,2019-08-07 16:49:28:204
-6.3047,-6.8018,1.3151,-0.2876,-0.2295,0.2602,0.0645,0.1677,0.0096,4853,2019-08-07 16:49:28:209
-6.3764,-6.6825,1.5649,-0.2876,-0.2295,0.2602,0.0645,0.1677,0.0096,4859,2019-08-07 16:49:28:215
-6.3764,-6.6825,1.5649,-0.1561,-0.4113,-0.1413,0.0389,0.1603,-0.0032,4863,2019-08-07 16:49:28:219
-6.3764,-6.6825,1.5649,-0.1561,-0.4113,-0.1413,0.0389,0.1603,-0.0032,4867,2019-08-07 16:49:28:223
-6.4625,-6.8352,1.7959,-0.1561,-0.4113,-0.1413,0.0411,0.1411,0.0053,4873,2019-08-07 16:49:28:229
-6.4625,-6.8352,1.7959,-0.1561,-0.4113,-0.1413,0.0411,0.1411,0.0053,4878,2019-08-07 16:49:28:234
-6.4625,-6.8352,1.7959,-0.2429,-0.2321,-0.2422,0.0443,0.1208,0.0117,4883,2019-08-07 16:49:28:239
-6.3716,-6.8973,1.7676,-0.2429,-0.2321,-0.2422,0.0443,0.1208,0.0117,4887,2019-08-07 16:49:28:243