ACCELEROMETER X (m/s²),ACCELEROMETER Y (m/s²),ACCELEROMETER Z (m/s²),LINEAR ACCELERATION X (m/s²),LINEAR ACCELERATION Y (m/s²),LINEAR ACCELERATION Z (m/s²),GYROSCOPE X (rad/s),GYROSCOPE Y (rad/s),GYROSCOPE Z (rad/s),Time since start in ms ,YYYY-MO-DD HH-MI-SS_SSS
-6.6066,-6.5201,1.4752,-0.2276,-0.4052,0.2129,-0.0165,0.0026,0.0096,4,2019-08-07 16:50:17:207
-6.5109,-6.5917,1.3809,-0.2276,-0.4052,0.2129,-0.0165,0.0026,0.0096,9,2019-08-07 16:50:17:212
-6.5109,-6.5917,1.3809,-0.3292,-0.28,0.1559,-0.009,-0.0166,0.0203,14,2019-08-07 16:50:17:217
-6.4344,-6.6156,1.4516,-0.3292,-0.28,0.1559,-0.009,-0.0166,0.0203,19,2019-08-07 16:50:17:222
-6.4344,-6.6156,1.4516,-0.3292,-0.28,0.1559,0.0144,-0.0112,0.0298,24,2019-08-07 16:50:17:227
-6.4344,-6.6156,1.4516,-0.3292,-0.28,0.1559,0.0144,-0.0112,0.0298,29,2019-08-07 16:50:17:232
-6.4248,-6.5679,1.3479,-0.3713,-0.333,0.2102,0.0283,0.0069,0.0373,34,2019-08-07 16:50:17:237
-6.4248,-6.5679,1.3479,-0.3713,-0.333,0.2102,0.0283,0.0069,0.0373,38,2019-08-07 16:50:17:241
-6.4248,-6.5679,1.3479,-0.3713,-0.333,0.2102,0.0272,0.025,0.0309,44,2019-08-07 16:50:17:247
-6.5205,-6.6013,1.3432,-0.3713,-0.333,0.2102,0.0272,0.025,0.0309,49,2019-08-07 16:50:17:252
-6.5205,-6.6013,1.3432,-0.2903,-0.3088,0.1818,0.0272,0.025,0.0309,53,2019-08-07 16:50:17:256
-6.5014,-6.5917,1.3291,-0.2903,-0.3088,0.1818,0.0293,0.0484,0.0309,59,2019-08-07 16:50:17:262
-6.5014,-6.5917,1.3291,-0.2903,-0.3088,0.1818,0.0293,0.0484,0.0309,64,2019-08-07 16:50:17:267
-6.5014,-6.5917,1.3291,-0.2903,-0.3088,0.1818,0.0347,0.0655,0.0298,69,2019-08-07 16:50:17:272
-6.5253,-6.6442,1.3574,-0.3153,-0.2373,0.2195,0.0347,0.0655,0.0298,74,2019-08-07 16:50:17:277
-6.5253,-6.6442,1.3574,-0.3153,-0.2373,0.2195,0.0347,0.0655,0.0298,79,2019-08-07 16:50:17:282
-6.5923,-6.6681,1.3904,-0.3153,-0.2373,0.2195,0.0315,0.0857,0.0203,84,2019-08-07 16:50:17:287
-6.5923,-6.6681,1.3904,-0.3153,-0.2373,0.2195,0.0315,0.0857,0.0203,88,2019-08-07 16:50:17:291
-6.5923,-6.6681,1.3904,-0.125,-0.2431,0.0316,0.0261,0.0878,0.0192,95,2019-08-07 16:50:17:298
-6.731,-6.6251,1.5129,-0.125,-0.2431,0.0316,0.0261,0.0878,0.0192,99,2019-08-07 16:50:17:302
-6.731,-6.6251,1.5129,-0.125,-0.2431,0.0316,0.0304,0.0591,0.0235,103,2019-08-07 16:50:17:306
-6.7262,-6.6013,1.6119,-0.125,-0.2431,0.0316,0.0304,0.0591,0.0235,109,2019-08-07 16:50:17:312
-6.7262,-6.6013,1.6119,-0.125,-0.2431,0.0316,0.0315,0.0111,0.0309,113,2019-08-07 16:50:17:316
-6.7262,-6.6013,1.6119,-0.1641,-0.2427,-0.0035,0.0315,0.0111,0.0309,119,2019-08-07 16:50:17:322
-6.5827,-6.5678,1.5836,-0.1641,-0.2427,-0.0035,0.0357,-0.0304,0.0416,124,2019-08-07 16:50:17:327
-6.5827,-6.5678,1.5836,-0.1641,-0.2427,-0.0035,0.0357,-0.0304,0.0416,128,2019-08-07 16:50:17:331
-6.5827,-6.5678,1.5836,-0.1641,-0.2427,-0.0035,0.0304,-0.0581,0.049,133,2019-08-07 16:50:17:336
-6.5109,-6.5965,1.5318,-0.3125,-0.2786,0.0206,0.0304,-0.0581,0.049,139,2019-08-07 16:50:17:342
-6.5109,-6.5965,1.5318,-0.3125,-0.2786,0.0206,0.0229,-0.0688,0.0565,145,2019-08-07 16:50:17:348
-6.377,-6.6729,1.4045,-0.3125,-0.2786,0.0206,0.0229,-0.0688,0.0565,148,2019-08-07 16:50:17:351
-6.377,-6.6729,1.4045,-0.528,-0.166,0.2014,0.0219,-0.0411,0.0565,154,2019-08-07 16:50:17:357
-6.2813,-6.7254,1.3668,-0.528,-0.166,0.2014,0.0219,-0.0411,0.0565,158,2019-08-07 16:50:17:361
-6.2813,-6.7254,1.3668,-0.528,-0.166,0.2014,0.0219,0.0165,0.0597,164,2019-08-07 16:50:17:367
-6.2813,-6.7254,1.3668,-0.528,-0.166,0.2014,0.0219,0.0165,0.0597,169,2019-08-07 16:50:17:372
-6.3866,-6.7349,1.4516,-0.4107,-0.1162,0.0736,0.0293,0.0793,0.0501,174,2019-08-07 16:50:17:377
-6.3866,-6.7349,1.4516,-0.4107,-0.1162,0.0736,0.0293,0.0793,0.0501,179,2019-08-07 16:50:17:382
-6.5397,-6.6776,1.5506,-0.4107,-0.1162,0.0736,0.0261,0.1017,0.0394,184,2019-08-07 16:50:17:387
-6.5397,-6.6776,1.5506,-0.4107,-0.1162,0.0736,0.0261,0.1017,0.0394,189,2019-08-07 16:50:17:392
-6.5397,-6.6776,1.5506,-0.4107,-0.1162,0.0736,0.0261,0.1017,0.0394,193,2019-08-07 16:50:17:396
-6.6593,-6.5535,1.4752,-0.2135,-0.3342,-0.0114,0.0166,0.1145,0.0288,199,2019-08-07 16:50:17:402
-6.6593,-6.5535,1.4752,-0.2135,-0.3342,-0.0114,0.0166,0.1145,0.0288,203,2019-08-07 16:50:17:406
-6.6593,-6.5535,1.4752,-0.2135,-0.3342,-0.0114,-0.0101,0.1262,0.0245,209,2019-08-07 16:50:17:412
-6.7167,-6.6156,1.4186,-0.2135,-0.3342,-0.0114,-0.0101,0.1262,0.0245,214,2019-08-07 16:50:17:417
-6.7167,-6.6156,1.4186,-0.054,-0.2731,0.013,-0.0282,0.123,0.0128,218,2019-08-07 16:50:17:421
-6.8937,-6.6442,1.5506,-0.054,-0.2731,0.013,-0.0282,0.123,0.0128,224,2019-08-07 16:50:17:427
-6.8937,-6.6442,1.5506,-0.054,-0.2731,0.013,-0.0335,0.0963,0.0085,229,2019-08-07 16:50:17:432
-6.8937,-6.6442,1.5506,-0.054,-0.2731,0.013,-0.0335,0.0963,0.0085,234,2019-08-07 16:50:17:437
-6.8985,-6.6967,1.5742,0.0413,-0.1524,-0.0562,-0.025,0.0601,0.0064,238,2019-08-07 16:50:17:441
-6.8985,-6.6967,1.5742,0.0413,-0.1524,-0.0562,-0.025,0.0601,0.0064,245,2019-08-07 16:50:17:448
-6.8985,-6.6967,1.5742,0.0413,-0.1524,-0.0562,-0.0314,0.0314,0.0032,249,2019-08-07 16:50:17:452
-6.8076,-6.6299,1.3998,0.0413,-0.1524,-0.0562,-0.0314,0.0314,0.0032,254,2019-08-07 16:50:17:457
-6.8076,-6.6299,1.3998,-0.1287,-0.2044,0.0668,-0.0335,0.0154,0.0064,258,2019-08-07 16:50:17:461
-6.621,-6.6872,1.4752,-0.1287,-0.2044,0.0668,-0.0335,0.0154,0.0064,264,2019-08-07 16:50:17:467
-6.621,-6.6872,1.4752,-0.1287,-0.2044,0.0668,-0.0292,0.0111,-0.0021,268,2019-08-07 16:50:17:471
-6.621,-6.6872,1.4752,-0.1287,-0.2044,0.0668,-0.0292,0.0111,-0.0021,274,2019-08-07 16:50:17:477
-6.7502,-6.7158,1.3856,-0.1101,-0.1336,0.117,-0.0229,0.009,-0.0128,279,2019-08-07 16:50:17:482
-6.7502,-6.7158,1.3856,-0.1101,-0.1336,0.117,-0.0229,0.009,-0.0128,284,2019-08-07 16:50:17:487
-6.7502,-6.7158,1.3856,-0.1101,-0.1336,0.117,-0.0229,0.009,-0.0128,288,2019-08-07 16:50:17:491
-6.6784,-6.6538,1.3856,-0.1101,-0.1336,0.117,-0.0079,-0.0144,-0.0128,295,2019-08-07 16:50:17:498
-6.6784,-6.6538,1.3856,-0.166,-0.2406,0.1243,-0.0079,-0.0144,-0.0128,298,2019-08-07 16:50:17:501
-6.6354,-6.649,1.3479,-0.166,-0.2406,0.1243,-5.0E-4,-0.0219,-0.0117,304,2019-08-07 16:50:17:507
-6.6354,-6.649,1.3479,-0.166,-0.2406,0.1243,-5.0E-4,-0.0219,-0.0117,309,2019-08-07 16:50:17:512
-6.6354,-6.649,1.3479,-0.166,-0.2406,0.1243,-5.0E-4,-0.024,-0.0096,314,2019-08-07 16:50:17:517
-6.5923,-6.7111,1.3244,-0.2642,-0.1421,0.1783,-5.0E-4,-0.024,-0.0096,319,2019-08-07 16:50:17:522
-6.5923,-6.7111,1.3244,-0.2642,-0.1421,0.1783,0.0048,-0.0198,-0.0064,323,2019-08-07 16:50:17:526
-6.6115,-6.7015,1.3479,-0.2642,-0.1421,0.1783,0.0048,-0.0198,-0.0064,329,2019-08-07 16:50:17:532
-6.6115,-6.7015,1.3479,-0.2642,-0.1421,0.1783,0.0144,-0.023,-0.0053,334,2019-08-07 16:50:17:537
-6.6115,-6.7015,1.3479,-0.2575,-0.1576,0.1487,0.0144,-0.023,-0.0053,339,2019-08-07 16:50:17:542
-6.578,-6.6442,1.3668,-0.2575,-0.1576,0.1487,0.024,-0.0368,-0.001,344,2019-08-07 16:50:17:547
-6.578,-6.6442,1.3668,-0.2575,-0.1576,0.1487,0.024,-0.0368,-0.001,349,2019-08-07 16:50:17:552
-6.578,-6.6442,1.3668,-0.2575,-0.1576,0.1487,0.0315,-0.0411,0.0085,354,2019-08-07 16:50:17:557
-6.5301,-6.6442,1.3055,-0.3235,-0.2094,0.2086,0.0315,-0.0411,0.0085,359,2019-08-07 16:50:17:562
-6.5301,-6.6442,1.3055,-0.3235,-0.2094,0.2086,0.0336,-0.0411,0.0075,364,2019-08-07 16:50:17:567
-6.5301,-6.6442,1.3055,-0.3235,-0.2094,0.2086,0.0336,-0.0411,0.0075,368,2019-08-07 16:50:17:571
-6.511,-6.649,1.4045,-0.3235,-0.2094,0.2086,0.0411,-0.0453,0.0064,374,2019-08-07 16:50:17:577
-6.511,-6.649,1.4045,-0.3228,-0.2174,0.0726,0.0411,-0.0453,0.0064,379,2019-08-07 16:50:17:582
-6.5253,-6.5344,1.4233,-0.3228,-0.2174,0.0726,0.0464,-0.0443,0.016,384,2019-08-07 16:50:17:587
-6.5253,-6.5344,1.4233,-0.3228,-0.2174,0.0726,0.0464,-0.0443,0.016,389,2019-08-07 16:50:17:592
-6.5253,-6.5344,1.4233,-0.3228,-0.2174,0.0726,0.0464,-0.0443,0.016,395,2019-08-07 16:50:17:598
-6.4536,-6.6395,1.3621,-0.3228,-0.2174,0.0726,0.0485,-0.0432,0.0235,398,2019-08-07 16:50:17:601
-6.4536,-6.6395,1.3621,-0.3521,-0.2188,0.1744,0.0485,-0.0432,0.0235,404,2019-08-07 16:50:17:607
-6.4345,-6.6013,1.461,-0.3521,-0.2188,0.1744,0.0517,-0.04,0.0298,409,2019-08-07 16:50:17:612
-6.4345,-6.6013,1.461,-0.3521,-0.2188,0.1744,0.0517,-0.04,0.0298,414,2019-08-07 16:50:17:617
-6.4345,-6.6013,1.461,-0.3927,-0.2708,0.1212,0.0688,-0.0357,0.032,419,2019-08-07 16:50:17:622
-6.4345,-6.6108,1.461,-0.3927,-0.2708,0.1212,0.0688,-0.0357,0.032,424,2019-08-07 16:50:17:627
-6.4345,-6.6108,1.461,-0.3927,-0.2708,0.1212,0.0688,-0.0357,0.032,428,2019-08-07 16:50:17:631
-6.4536,-6.5869,1.4045,-0.4089,-0.3008,0.072,0.0762,-0.0326,0.0416,434,2019-08-07 16:50:17:637
-6.4536,-6.5869,1.4045,-0.4089,-0.3008,0.072,0.0762,-0.0326,0.0416,439,2019-08-07 16:50:17:642
-6.4536,-6.5869,1.4045,-0.4089,-0.3008,0.072,0.0645,-0.0208,0.0469,445,2019-08-07 16:50:17:648
-6.5493,-6.5392,1.4846,-0.3136,-0.2497,0.061,0.0645,-0.0208,0.0469,449,2019-08-07 16:50:17:652
-6.5493,-6.5392,1.4846,-0.3136,-0.2497,0.061,0.0538,-0.0251,0.0522,454,2019-08-07 16:50:17:657
-6.5589,-6.5392,1.527,-0.3136,-0.2497,0.061,0.0538,-0.0251,0.0522,459,2019-08-07 16:50:17:662
-6.5589,-6.5392,1.527,-0.3136,-0.2497,0.061,0.0528,-0.0219,0.0458,464,2019-08-07 16:50:17:667
-6.5589,-6.5392,1.527,-0.262,-0.251,0.0293,0.0528,-0.0219,0.0458,469,2019-08-07 16:50:17:672
-6.6354,-6.5678,1.5459,-0.262,-0.251,0.0293,0.0538,-0.0091,0.0405,474,2019-08-07 16:50:17:677
-6.6354,-6.5678,1.5459,-0.262,-0.251,0.0293,0.0538,-0.0091,0.0405,479,2019-08-07 16:50:17:682
-6.6354,-6.5678,1.6496,-0.262,-0.251,0.0293,0.0517,0.0058,0.0405,484,2019-08-07 16:50:17:687
-6.6019,-6.5106,1.6496,-0.2867,-0.3867,-0.0475,0.0517,0.0058,0.0405,489,2019-08-07 16:50:17:692
-6.6019,-6.5106,1.6496,-0.2867,-0.3867,-0.0475,0.0517,0.0058,0.0405,494,2019-08-07 16:50:17:697
-6.5971,-6.4676,1.6732,-0.2867,-0.3867,-0.0475,0.0443,0.0133,0.0309,499,2019-08-07 16:50:17:702
-6.5971,-6.4676,1.6732,-0.2867,-0.3867,-0.0475,0.0443,0.0133,0.0309,504,2019-08-07 16:50:17:707
-6.5971,-6.4676,1.6732,-0.2867,-0.3867,-0.0475,0.0368,0.0047,0.0256,508,2019-08-07 16:50:17:711
-6.6593,-6.4199,1.6119,-0.2196,-0.3904,-0.019,0.0368,0.0047,0.0256,514,2019-08-07 16:50:17:717
-6.6593,-6.4199,1.6119,-0.2196,-0.3904,-0.019,0.0304,0.0079,0.0171,519,2019-08-07 16:50:17:722
-6.6976,-6.4151,1.6779,-0.2196,-0.3904,-0.019,0.0304,0.0079,0.0171,523,2019-08-07 16:50:17:726
-6.6976,-6.4151,1.6779,-0.1753,-0.4478,0.0088,0.0325,0.0101,0.016,529,2019-08-07 16:50:17:732
-6.6976,-6.4151,1.6779,-0.1753,-0.4478,0.0088,0.0325,0.0101,0.016,533,2019-08-07 16:50:17:736
-6.6737,-6.4294,1.5553,-0.1753,-0.4478,0.0088,0.0325,0.0101,0.016,539,2019-08-07 16:50:17:742
-6.6737,-6.4294,1.5553,-0.1753,-0.4478,0.0088,0.0293,0.0196,0.0256,544,2019-08-07 16:50:17:747
-6.6354,-6.4867,1.6496,-0.252,-0.3136,-0.0508,0.0208,0.0154,0.0298,549,2019-08-07 16:50:17:752
-6.6354,-6.4867,1.6496,-0.252,-0.3136,-0.0508,0.0208,0.0154,0.0298,554,2019-08-07 16:50:17:757
-6.6354,-6.4867,1.6496,-0.252,-0.3136,-0.0508,0.0208,0.0154,0.0298,558,2019-08-07 16:50:17:761
-6.6785,-6.4771,1.593,-0.252,-0.3136,-0.0508,0.0229,0.0047,0.033,564,2019-08-07 16:50:17:767
-6.6785,-6.4771,1.593,-0.252,-0.3136,-0.0508,0.0229,0.0047,0.033,569,2019-08-07 16:50:17:772
-6.6785,-6.4771,1.593,-0.2095,-0.3552,-0.0193,0.0357,-0.0059,0.0437,573,2019-08-07 16:50:17:776
-6.6689,-6.4342,1.5836,-0.2095,-0.3552,-0.0193,0.0357,-0.0059,0.0437,579,2019-08-07 16:50:17:782
-6.6689,-6.4342,1.5836,-0.2095,-0.3552,-0.0193,0.04,-0.0123,0.049,584,2019-08-07 16:50:17:787
-6.6737,-6.4151,1.6025,-0.2095,-0.3552,-0.0193,0.04,-0.0123,0.049,589,2019-08-07 16:50:17:792
-6.6737,-6.4151,1.6025,-0.178,-0.3514,0.0303,0.0347,-0.0166,0.0512,594,2019-08-07 16:50:17:797
-6.6737,-6.4151,1.6025,-0.178,-0.3514,0.0303,0.0347,-0.0166,0.0512,599,2019-08-07 16:50:17:802
-6.7072,-6.3721,1.6307,-0.178,-0.3514,0.0303,0.0368,-0.0336,0.0554,603,2019-08-07 16:50:17:806
-6.7072,-6.3721,1.6307,-0.178,-0.3514,0.0303,0.0368,-0.0336,0.0554,609,2019-08-07 16:50:17:812
-6.6928,-6.4437,1.5223,-0.2185,-0.3515,0.0819,0.0443,-0.0496,0.0554,614,2019-08-07 16:50:17:817
-6.6928,-6.4437,1.5223,-0.2185,-0.3515,0.0819,0.0443,-0.0496,0.0554,619,2019-08-07 16:50:17:822
-6.6928,-6.4437,1.5223,-0.2185,-0.3515,0.0819,0.04,-0.0517,0.0575,623,2019-08-07 16:50:17:826
-6.6307,-6.4199,1.4422,-0.2185,-0.3515,0.0819,0.04,-0.0517,0.0575,629,2019-08-07 16:50:17:832
-6.6307,-6.4199,1.4422,-0.2871,-0.28,0.2449,0.0411,-0.0389,0.0469,633,2019-08-07 16:50:17:836
-6.5828,-6.4915,1.4139,-0.2871,-0.28,0.2449,0.0411,-0.0389,0.0469,639,2019-08-07 16:50:17:842
-6.5828,-6.4915,1.4139,-0.2871,-0.28,0.2449,0.0421,-0.0144,0.048,644,2019-08-07 16:50:17:847
-6.5828,-6.4915,1.4139,-0.2871,-0.28,0.2449,0.0421,-0.0144,0.048,649,2019-08-07 16:50:17:852
-6.5924,-6.4962,1.428,-0.3263,-0.2627,0.2105,0.0389,0.0058,0.0426,654,2019-08-07 16:50:17:857
-6.5924,-6.4962,1.428,-0.3263,-0.2627,0.2105,0.0389,0.0058,0.0426,659,2019-08-07 16:50:17:862
-6.6546,-6.4724,1.4563,-0.3263,-0.2627,0.2105,0.0389,0.0165,0.0352,663,2019-08-07 16:50:17:866
-6.6546,-6.4724,1.4563,-0.3263,-0.2627,0.2105,0.0389,0.0165,0.0352,669,2019-08-07 16:50:17:872
-6.6546,-6.4724,1.4563,-0.2792,-0.2849,0.1569,0.0368,0.0122,0.0341,673,2019-08-07 16:50:17:876
-6.6737,-6.4628,1.5365,-0.2792,-0.2849,0.1569,0.0368,0.0122,0.0341,679,2019-08-07 16:50:17:882
-6.6737,-6.4628,1.5365,-0.2792,-0.2849,0.1569,0.0315,-0.0091,0.0309,684,2019-08-07 16:50:17:887
-6.6259,-6.4246,1.5412,-0.2792,-0.2849,0.1569,0.0315,-0.0091,0.0309,689,2019-08-07 16:50:17:892
-6.6259,-6.4246,1.5412,-0.3268,-0.3174,0.0767,0.0315,-0.0091,0.0309,693,2019-08-07 16:50:17:896
-6.6259,-6.4246,1.5412,-0.3268,-0.3174,0.0767,0.0261,-0.0336,0.0341,699,2019-08-07 16:50:17:902
-6.5493,-6.4437,1.5695,-0.3268,-0.3174,0.0767,0.0261,-0.0336,0.0341,704,2019-08-07 16:50:17:907
-6.5493,-6.4437,1.5695,-0.3268,-0.3174,0.0767,0.0229,-0.0496,0.0373,709,2019-08-07 16:50:17:912
-6.5493,-6.4437,1.5695,-0.4066,-0.3499,0.1471,0.0229,-0.0496,0.0373,714,2019-08-07 16:50:17:917
-6.5206,-6.4628,1.5129,-0.4066,-0.3499,0.1471,0.0176,-0.056,0.0448,718,2019-08-07 16:50:17:921
-6.5206,-6.4628,1.5129,-0.4066,-0.3499,0.1471,0.0176,-0.056,0.0448,724,2019-08-07 16:50:17:927
-6.5063,-6.4294,1.5412,-0.4066,-0.3499,0.1471,0.0166,-0.0411,0.048,729,2019-08-07 16:50:17:932
-6.5063,-6.4294,1.5412,-0.4493,-0.3147,0.1886,0.0166,-0.0411,0.048,733,2019-08-07 16:50:17:936
-6.5063,-6.4294,1.5412,-0.4493,-0.3147,0.1886,0.0208,-0.0123,0.048,739,2019-08-07 16:50:17:942
-6.4919,-6.4724,1.461,-0.4493,-0.3147,0.1886,0.0208,-0.0123,0.048,744,2019-08-07 16:50:17:947
-6.4919,-6.4724,1.461,-0.4493,-0.3147,0.1886,0.0315,0.026,0.048,749,2019-08-07 16:50:17:952
-6.4919,-6.4724,1.461,-0.2742,-0.3075,0.1615,0.0315,0.026,0.048,754,2019-08-07 16:50:17:957
-6.7264,-6.3673,1.5317,-0.2742,-0.3075,0.1615,0.0293,0.0591,0.0362,758,2019-08-07 16:50:17:961
-6.7264,-6.3673,1.5317,-0.2742,-0.3075,0.1615,0.0293,0.0591,0.0362,764,2019-08-07 16:50:17:967
-6.7264,-6.3673,1.5317,-0.2742,-0.3075,0.1615,0.0229,0.0644,0.0288,768,2019-08-07 16:50:17:971
-6.8173,-6.4246,1.6637,-0.1093,-0.3488,-0.0415,0.0229,0.0644,0.0288,774,2019-08-07 16:50:17:977
-6.8173,-6.4246,1.6637,-0.1093,-0.3488,-0.0415,0.0229,0.0559,0.0256,779,2019-08-07 16:50:17:982
-6.9512,-6.3864,1.7156,-0.1093,-0.3488,-0.0415,0.0229,0.0559,0.0256,784,2019-08-07 16:50:17:987
-6.9512,-6.3864,1.7156,-0.1093,-0.3488,-0.0415,0.0219,0.0186,0.0181,789,2019-08-07 16:50:17:992
-6.9512,-6.3864,1.7156,-0.0669,-0.4246,-0.0567,0.0219,0.0186,0.0181,794,2019-08-07 16:50:17:997
-6.889,-6.3291,1.7344,-0.0669,-0.4246,-0.0567,0.0144,-0.0155,0.0224,798,2019-08-07 16:50:18:001
-6.889,-6.3291,1.7344,-0.0669,-0.4246,-0.0567,0.0144,-0.0155,0.0224,804,2019-08-07 16:50:18:007
-6.8508,-6.3626,1.7721,-0.0669,-0.4246,-0.0567,0.0144,-0.0155,0.0224,808,2019-08-07 16:50:18:011
-6.8508,-6.3626,1.7721,-0.1033,-0.377,-0.0592,0.0059,-0.0507,0.0213,814,2019-08-07 16:50:18:017
-6.8508,-6.3626,1.7721,-0.1033,-0.377,-0.0592,0.0059,-0.0507,0.0213,819,2019-08-07 16:50:18:022
-6.8077,-6.3626,1.6873,-0.1033,-0.377,-0.0592,0.0059,-0.0784,0.0256,823,2019-08-07 16:50:18:026
-6.8077,-6.3626,1.6873,-0.1033,-0.377,-0.0592,0.0059,-0.0784,0.0256,829,2019-08-07 16:50:18:032
-6.7503,-6.3148,1.626,-0.2052,-0.3389,-0.0041,0.0016,-0.0837,0.0266,833,2019-08-07 16:50:18:036
-6.7503,-6.3148,1.626,-0.2052,-0.3389,-0.0041,0.0016,-0.0837,0.0266,839,2019-08-07 16:50:18:042
-6.7503,-6.3148,1.626,-0.2052,-0.3389,-0.0041,0.0016,-0.0837,0.0266,843,2019-08-07 16:50:18:046
-6.7168,-6.396,1.6119,-0.2052,-0.3389,-0.0041,-0.0165,-0.073,0.0203,849,2019-08-07 16:50:18:052
-6.7168,-6.396,1.6119,-0.3398,-0.3504,0.141,-0.0346,-0.0411,0.0203,854,2019-08-07 16:50:18:057
-6.6403,-6.4294,1.5506,-0.3398,-0.3504,0.141,-0.0346,-0.0411,0.0203,858,2019-08-07 16:50:18:061
-6.6403,-6.4294,1.5506,-0.3398,-0.3504,0.141,-0.0346,-0.0411,0.0203,864,2019-08-07 16:50:18:067
-6.7407,-6.4771,1.5506,-0.302,-0.2022,0.1446,-0.0452,-6.0E-4,0.0096,869,2019-08-07 16:50:18:072
-6.7407,-6.4771,1.5506,-0.302,-0.2022,0.1446,-0.0452,-6.0E-4,0.0096,874,2019-08-07 16:50:18:077
-6.7407,-6.4771,1.5506,-0.302,-0.2022,0.1446,-0.0506,0.0505,-0.0021,879,2019-08-07 16:50:18:082
-6.8221,-6.4628,1.6496,-0.302,-0.2022,0.1446,-0.0506,0.0505,-0.0021,883,2019-08-07 16:50:18:086
-6.8221,-6.4628,1.6496,-0.1073,-0.2467,0.0336,-0.0527,0.0612,-0.0117,889,2019-08-07 16:50:18:092
-6.8221,-6.4628,1.6496,-0.1073,-0.2467,0.0336,-0.0527,0.0612,-0.0117,894,2019-08-07 16:50:18:097
-7.0374,-6.4437,1.6543,-0.1073,-0.2467,0.0336,-0.0559,0.0314,-0.0181,898,2019-08-07 16:50:18:101
-7.0374,-6.4437,1.6543,0.0883,-0.278,-0.0033,-0.0559,0.0314,-0.0181,904,2019-08-07 16:50:18:107
-7.0756,-6.4485,1.6826,0.0883,-0.278,-0.0033,-0.0569,-0.0123,-0.0266,908,2019-08-07 16:50:18:111
-7.0756,-6.4485,1.6826,0.0883,-0.278,-0.0033,-0.0569,-0.0123,-0.0266,914,2019-08-07 16:50:18:117
-7.0756,-6.4485,1.6826,0.0883,-0.278,-0.0033,-0.0516,-0.0656,-0.0277,919,2019-08-07 16:50:18:122
-7.0039,-6.396,1.5836,0.0109,-0.3206,0.0853,-0.0516,-0.0656,-0.0277,924,2019-08-07 16:50:18:127
-7.0039,-6.396,1.5836,0.0109,-0.3206,0.0853,-0.042,-0.105,-0.0319,930,2019-08-07 16:50:18:133
-6.8221,-6.4103,1.5412,0.0109,-0.3206,0.0853,-0.042,-0.105,-0.0319,934,2019-08-07 16:50:18:137
-6.8221,-6.4103,1.5412,0.0109,-0.3206,0.0853,-0.0324,-0.1124,-0.0319,939,2019-08-07 16:50:18:142
-6.8221,-6.4103,1.5412,0.0109,-0.3206,0.0853,-0.0324,-0.1124,-0.0319,944,2019-08-07 16:50:18:147
-6.6546,-6.4533,1.3809,-0.2978,-0.2636,0.2877,-0.025,-0.0975,-0.0298,949,2019-08-07 16:50:18:152
-6.6546,-6.4533,1.3809,-0.2978,-0.2636,0.2877,-0.025,-0.0975,-0.0298,954,2019-08-07 16:50:18:157
-6.5446,-6.4962,1.3573,-0.2978,-0.2636,0.2877,-0.025,-0.0975,-0.0298,959,2019-08-07 16:50:18:162
-6.5446,-6.4962,1.3573,-0.2978,-0.2636,0.2877,-0.0079,-0.0507,-0.0341,963,2019-08-07 16:50:18:166
-6.5446,-6.4962,1.3573,-0.3432,-0.1931,0.308,-0.0079,-0.0507,-0.0341,969,2019-08-07 16:50:18:172
-6.592,-6.5058,1.3621,-0.3432,-0.1931,0.308,0.0091,-0.0134,-0.033,974,2019-08-07 16:50:18:177
-6.592,-6.5058,1.3621,-0.3602,-0.2577,0.2566,0.0091,-0.0134,-0.033,979,2019-08-07 16:50:18:182
-6.6685,-6.3674,1.48,-0.3602,-0.2577,0.2566,0.0187,0.0196,-0.0351,983,2019-08-07 16:50:18:186
-6.6685,-6.3674,1.48,-0.3602,-0.2577,0.2566,0.0187,0.0196,-0.0351,989,2019-08-07 16:50:18:192
-6.6685,-6.3674,1.48,-0.3602,-0.2577,0.2566,0.0187,0.0186,-0.033,994,2019-08-07 16:50:18:197
-6.7403,-6.3531,1.5177,-0.1987,-0.3763,0.1565,0.0187,0.0186,-0.033,999,2019-08-07 16:50:18:202
-6.7403,-6.3531,1.5177,-0.1987,-0.3763,0.1565,0.0176,0.0101,-0.0362,1004,2019-08-07 16:50:18:207
-6.8216,-6.334,1.5837,-0.1987,-0.3763,0.1565,0.0176,0.0101,-0.0362,1008,2019-08-07 16:50:18:211
-6.8216,-6.334,1.5837,-0.1987,-0.3763,0.1565,0.0176,-0.0166,-0.0341,1014,2019-08-07 16:50:18:217
-6.8216,-6.334,1.5837,-0.1805,-0.3558,0.1023,0.0176,-0.0166,-0.0341,1018,2019-08-07 16:50:18:221
-6.6972,-6.3817,1.579,-0.1805,-0.3558,0.1023,0.0198,-0.04,-0.0319,1024,2019-08-07 16:50:18:227
-6.6972,-6.3817,1.579,-0.1805,-0.3558,0.1023,0.0198,-0.04,-0.0319,1029,2019-08-07 16:50:18:232
-6.5967,-6.3578,1.546,-0.1805,-0.3558,0.1023,0.0198,-0.0464,-0.0298,1033,2019-08-07 16:50:18:236
-6.5967,-6.3578,1.546,-0.3665,-0.3976,0.1762,0.0198,-0.0464,-0.0298,1039,2019-08-07 16:50:18:242
-6.5967,-6.3578,1.546,-0.3665,-0.3976,0.1762,0.0187,-0.0219,-0.0287,1045,2019-08-07 16:50:18:248
-6.6302,-6.3674,1.5601,-0.3665,-0.3976,0.1762,0.0187,-0.0219,-0.0287,1048,2019-08-07 16:50:18:251
-6.6302,-6.3674,1.5601,-0.3665,-0.3976,0.1762,0.0187,-0.0219,-0.0287,1054,2019-08-07 16:50:18:257
-6.6302,-6.3674,1.5601,-0.2857,-0.4339,0.0688,0.0208,-0.0144,-0.0224,1059,2019-08-07 16:50:18:262
-6.5585,-6.2767,1.5931,-0.2857,-0.4339,0.0688,0.0208,-0.0144,-0.0224,1064,2019-08-07 16:50:18:267
-6.5585,-6.2767,1.5931,-0.2857,-0.4339,0.0688,0.0219,-0.007,-0.0202,1068,2019-08-07 16:50:18:271
-6.6685,-6.3244,1.5648,-0.2857,-0.4339,0.0688,0.0219,-0.007,-0.0202,1074,2019-08-07 16:50:18:277
-6.6685,-6.3244,1.5648,-0.2927,-0.3544,0.1106,0.0187,-0.0038,-0.016,1079,2019-08-07 16:50:18:282
-6.6685,-6.3244,1.5648,-0.2927,-0.3544,0.1106,0.0187,-0.0038,-0.016,1083,2019-08-07 16:50:18:286
-6.6302,-6.3865,1.612,-0.2927,-0.3544,0.1106,0.0187,-6.0E-4,-0.0117,1089,2019-08-07 16:50:18:292
-6.6302,-6.3865,1.612,-0.2927,-0.3544,0.1106,0.0187,-6.0E-4,-0.0117,1093,2019-08-07 16:50:18:296
-6.6493,-6.3722,1.6355,-0.2721,-0.3694,0.0617,0.0187,-6.0E-4,-0.0117,1099,2019-08-07 16:50:18:302
-6.6493,-6.3722,1.6355,-0.2721,-0.3694,0.0617,0.0219,-0.0038,-0.0149,1104,2019-08-07 16:50:18:307
-6.6493,-6.3722,1.6355,-0.2721,-0.3694,0.0617,0.0219,-0.0038,-0.0149,1109,2019-08-07 16:50:18:312
-6.6398,-6.2862,1.6827,-0.2721,-0.3694,0.0617,0.0155,-0.0112,-0.0117,1113,2019-08-07 16:50:18:316
-6.6398,-6.2862,1.6827,-0.2515,-0.4366,0.0802,0.0155,-0.0112,-0.0117,1119,2019-08-07 16:50:18:322
-6.6254,-6.3626,1.6497,-0.2515,-0.4366,0.0802,0.0144,-0.0176,-0.0053,1124,2019-08-07 16:50:18:327
-6.6254,-6.3626,1.6497,-0.3418,-0.346,0.0965,0.0144,-0.0176,-0.0053,1129,2019-08-07 16:50:18:332
-6.6254,-6.3626,1.6497,-0.3418,-0.346,0.0965,0.0102,-0.0187,-0.0042,1134,2019-08-07 16:50:18:337
-6.7163,-6.4151,1.6733,-0.3418,-0.346,0.0965,0.0102,-0.0187,-0.0042,1138,2019-08-07 16:50:18:341
-6.7163,-6.4151,1.6733,-0.3418,-0.346,0.0965,0.0027,-0.0336,0.0,1144,2019-08-07 16:50:18:347
-6.7067,-6.2528,1.6638,-0.2121,-0.4885,0.0448,0.0027,-0.0336,0.0,1150,2019-08-07 16:50:18:353
-6.7067,-6.2528,1.6638,-0.2121,-0.4885,0.0448,0.0027,-0.0336,0.0,1153,2019-08-07 16:50:18:356
-6.7067,-6.2528,1.6638,-0.2121,-0.4885,0.0448,-0.0101,-0.0571,0.0064,1159,2019-08-07 16:50:18:362
-6.568,-6.2528,1.6733,-0.3508,-0.4877,0.039,-0.0101,-0.0571,0.0064,1163,2019-08-07 16:50:18:366
-6.568,-6.2528,1.6733,-0.3508,-0.4877,0.039,-0.0207,-0.0539,0.0053,1169,2019-08-07 16:50:18:372
-6.568,-6.2862,1.5696,-0.3508,-0.4877,0.039,-0.0207,-0.0539,0.0053,1174,2019-08-07 16:50:18:377
-6.568,-6.2862,1.5696,-0.3508,-0.4877,0.039,-0.0335,-0.0336,-0.001,1178,2019-08-07 16:50:18:381
-6.568,-6.2862,1.5696,-0.3118,-0.4399,0.0422,-0.0335,-0.0336,-0.001,1184,2019-08-07 16:50:18:387
-6.5823,-6.2576,1.6355,-0.3118,-0.4399,0.0422,-0.0431,-0.0208,0.0053,1189,2019-08-07 16:50:18:392
-6.5823,-6.2576,1.6355,-0.3118,-0.4399,0.0422,-0.0431,-0.0208,0.0053,1194,2019-08-07 16:50:18:397
-6.5823,-6.2576,1.6355,-0.3118,-0.4399,0.0422,-0.0431,-0.0208,0.0053,1199,2019-08-07 16:50:18:402
-6.5632,-6.3053,1.5743,-0.3553,-0.4355,0.1382,-0.0484,-0.007,0.0096,1203,2019-08-07 16:50:18:406
-6.5632,-6.3053,1.5743,-0.3553,-0.4355,0.1382,-0.0484,-0.007,0.0096,1209,2019-08-07 16:50:18:412
-6.6637,-6.4104,1.6073,-0.2413,-0.3687,0.0968,-0.0506,0.0143,0.0075,1214,2019-08-07 16:50:18:417
-6.6637,-6.4104,1.6073,-0.2413,-0.3687,0.0968,-0.0506,0.0143,0.0075,1219,2019-08-07 16:50:18:422
-6.6637,-6.4104,1.6073,-0.2413,-0.3687,0.0968,-0.0452,0.0218,0.0139,1224,2019-08-07 16:50:18:427
-6.7546,-6.439,1.645,-0.2413,-0.3687,0.0968,-0.0452,0.0218,0.0139,1229,2019-08-07 16:50:18:432
-6.7546,-6.439,1.645,-0.1629,-0.2821,0.0311,-0.0324,0.0143,0.0117,1234,2019-08-07 16:50:18:437
-6.7928,-6.439,1.6827,-0.1629,-0.2821,0.0311,-0.0324,0.0143,0.0117,1239,2019-08-07 16:50:18:442
-6.7928,-6.439,1.6827,-0.1629,-0.2821,0.0311,-0.0282,-6.0E-4,0.0107,1244,2019-08-07 16:50:18:447
-6.7928,-6.439,1.6827,-0.1629,-0.2821,0.0311,-0.0282,-6.0E-4,0.0107,1248,2019-08-07 16:50:18:451
-6.7593,-6.4581,1.6308,-0.1414,-0.3046,0.0783,-0.0229,-0.0102,0.0085,1254,2019-08-07 16:50:18:457
-6.7593,-6.4581,1.6308,-0.1414,-0.3046,0.0783,-0.0229,-0.0102,0.0085,1259,2019-08-07 16:50:18:462
-6.7593,-6.4581,1.6308,-0.1414,-0.3046,0.0783,-0.0143,-0.024,0.0085,1263,2019-08-07 16:50:18:466
-6.7354,-6.4056,1.6638,-0.1414,-0.3464,0.0317,-0.0143,-0.024,0.0085,1269,2019-08-07 16:50:18:472
-6.7354,-6.4056,1.6638,-0.109,-0.3464,0.0317,-0.0079,-0.0443,0.0096,1274,2019-08-07 16:50:18:477
-6.7306,-6.3674,1.6874,-0.109,-0.3464,0.0317,-0.0079,-0.0443,0.0096,1278,2019-08-07 16:50:18:481
-6.7306,-6.3674,1.6874,-0.109,-0.3464,0.0317,-0.0079,-0.0443,0.0096,1284,2019-08-07 16:50:18:487
-6.7306,-6.3674,1.6874,-0.109,-0.3464,0.0317,-0.0079,-0.0698,0.0085,1289,2019-08-07 16:50:18:492
-6.6014,-6.3483,1.6591,-0.3241,-0.3876,0.044,-0.0133,-0.0816,0.0107,1295,2019-08-07 16:50:18:498
-6.6014,-6.3483,1.6591,-0.3241,-0.3876,0.044,-0.0133,-0.0816,0.0107,1299,2019-08-07 16:50:18:502
-6.5823,-6.3817,1.6356,-0.3241,-0.3876,0.044,-0.0133,-0.0816,0.0107,1303,2019-08-07 16:50:18:506
-6.5823,-6.3817,1.6356,-0.3241,-0.3876,0.044,-0.0218,-0.0741,0.0171,1309,2019-08-07 16:50:18:512
-6.5823,-6.3817,1.6356,-0.3713,-0.3051,0.2029,-0.0218,-0.0741,0.0171,1314,2019-08-07 16:50:18:517
-6.4962,-6.4772,1.5319,-0.3713,-0.3051,0.2029,-0.0293,-0.0496,0.0181,1319,2019-08-07 16:50:18:522
-6.4962,-6.4772,1.5319,-0.3713,-0.3051,0.2029,-0.0293,-0.0496,0.0181,1324,2019-08-07 16:50:18:527
-6.5297,-6.4438,1.513,-0.3713,-0.3051,0.2029,-0.0346,-0.0155,0.0149,1329,2019-08-07 16:50:18:532
-6.5297,-6.4438,1.513,-0.4148,-0.2855,0.1983,-0.0346,-0.0155,0.0149,1334,2019-08-07 16:50:18:537
-6.5297,-6.4438,1.513,-0.4148,-0.2855,0.1983,-0.0335,0.0218,0.0192,1338,2019-08-07 16:50:18:541
-6.5966,-6.4104,1.5319,-0.4148,-0.2855,0.1983,-0.0335,0.0218,0.0192,1344,2019-08-07 16:50:18:547
-6.5966,-6.4104,1.5319,-0.4148,-0.2855,0.1983,-0.0335,0.026,0.0277,1349,2019-08-07 16:50:18:552
-6.6684,-6.3626,1.5837,-0.2511,-0.3171,0.115,-0.0335,0.026,0.0277,1353,2019-08-07 16:50:18:556
-6.6684,-6.3626,1.5837,-0.2511,-0.3171,0.115,-0.0324,0.0143,0.0362,1359,2019-08-07 16:50:18:562
-6.6684,-6.3626,1.5837,-0.2511,-0.3171,0.115,-0.0324,0.0143,0.0362,1364,2019-08-07 16:50:18:567
-6.721,-6.3531,1.6261,-0.2511,-0.3171,0.115,-0.0271,5.0E-4,0.0458,1369,2019-08-07 16:50:18:572
-6.721,-6.3531,1.6261,-0.2479,-0.3693,0.0856,-0.0271,5.0E-4,0.0458,1373,2019-08-07 16:50:18:576
-6.721,-6.3531,1.6261,-0.2479,-0.3693,0.0856,-0.0143,-0.0176,0.0575,1379,2019-08-07 16:50:18:582
-6.7449,-6.3722,1.7157,-0.2479,-0.3693,0.0856,-0.0143,-0.0176,0.0575,1383,2019-08-07 16:50:18:586
-6.7449,-6.3722,1.7157,-0.2479,-0.3693,0.0856,0.0027,-0.0411,0.0757,1389,2019-08-07 16:50:18:592
-6.898,-6.3817,1.8713,-0.0983,-0.3217,-0.1373,0.0027,-0.0411,0.0757,1394,2019-08-07 16:50:18:597
-6.898,-6.3817,1.8713,-0.0983,-0.3217,-0.1373,0.0027,-0.0411,0.0757,1399,2019-08-07 16:50:18:602
-6.898,-6.3817,1.8713,-0.0983,-0.3217,-0.1373,0.0198,-0.0634,0.0927,1403,2019-08-07 16:50:18:606
-6.9554,-6.3913,1.9985,-0.0983,-0.3217,-0.1373,0.0198,-0.0634,0.0927,1409,2019-08-07 16:50:18:612
-6.9554,-6.3913,1.9985,0.0102,-0.3257,-0.3775,0.0336,-0.0741,0.1023,1413,2019-08-07 16:50:18:616
-7.099,-6.3483,2.2248,0.0102,-0.3257,-0.3775,0.0336,-0.0741,0.1023,1419,2019-08-07 16:50:18:622
-7.099,-6.3483,2.2248,0.0102,-0.3257,-0.3775,0.0496,-0.1061,0.1161,1423,2019-08-07 16:50:18:626
-7.099,-6.3483,2.2248,0.0102,-0.3257,-0.3775,0.0496,-0.1061,0.1161,1429,2019-08-07 16:50:18:632
-7.3621,-6.3578,2.6726,0.4417,-0.3525,-1.1189,0.0581,-0.1614,0.1332,1434,2019-08-07 16:50:18:637
-7.3621,-6.3578,2.6726,0.4417,-0.3525,-1.1189,0.0581,-0.1614,0.1332,1439,2019-08-07 16:50:18:642
-7.3621,-6.3578,2.6726,0.4417,-0.3525,-1.1189,0.0581,-0.1614,0.1332,1443,2019-08-07 16:50:18:646
-7.8262,-6.3531,3.6106,0.4417,-0.3525,-1.1189,0.0688,-0.2786,0.163,1449,2019-08-07 16:50:18:652
-7.8262,-6.3531,3.6106,1.1879,-0.3416,-2.6565,0.0688,-0.2786,0.163,1454,2019-08-07 16:50:18:657
-7.8262,-6.3531,3.6106,1.1879,-0.3416,-2.6565,0.0645,-0.4927,0.2109,1458,2019-08-07 16:50:18:661
-8.5821,-6.3006,5.2416,1.1879,-0.3416,-2.6565,0.0645,-0.4927,0.2109,1464,2019-08-07 16:50:18:667
-8.5821,-6.3006,5.2416,1.1879,-0.3416,-2.6565,0.0688,-0.6951,0.2493,1469,2019-08-07 16:50:18:672
-8.5821,-6.3006,5.2416,2.0082,-0.4311,-4.6325,0.0688,-0.6951,0.2493,1474,2019-08-07 16:50:18:677
-9.0701,-6.1717,6.7312,2.0082,-0.4311,-4.6325,0.073,-0.888,0.2738,1478,2019-08-07 16:50:18:681
-9.0701,-6.1717,6.7312,2.0082,-0.4311,-4.6325,0.073,-0.888,0.2738,1484,2019-08-07 16:50:18:687
-9.0701,-6.1717,6.7312,2.0082,-0.4311,-4.6325,0.0709,-1.2374,0.3132,1489,2019-08-07 16:50:18:692
-9.2614,-5.9759,7.6504,2.0082,-0.4311,-4.6325,0.0709,-1.2374,0.3132,1493,2019-08-07 16:50:18:696
-9.2614,-5.9759,7.6504,2.296,-0.6701,-5.7254,0.0815,-1.5175,0.342,1499,2019-08-07 16:50:18:702
-9.582,-5.8327,8.2773,2.296,-0.6701,-5.7254,0.0815,-1.5175,0.342,1503,2019-08-07 16:50:18:706
-9.582,-5.8327,8.2773,2.296,-0.6701,-5.7254,0.0815,-1.5175,0.342,1509,2019-08-07 16:50:18:712
-9.582,-5.8327,8.2773,2.7733,-0.845,-6.6939,0.0922,-1.8435,0.3856,1513,2019-08-07 16:50:18:716
-9.8212,-5.5702,9.2767,2.7733,-0.845,-6.6939,0.0922,-1.8435,0.3856,1519,2019-08-07 16:50:18:722
-9.8212,-5.5702,9.2767,2.7733,-0.845,-6.6939,0.1135,-2.1599,0.4325,1524,2019-08-07 16:50:18:727
-9.8212,-5.5702,9.2767,2.7733,-0.845,-6.6939,0.1135,-2.1599,0.4325,1529,2019-08-07 16:50:18:732
-10.1656,-5.0928,10.3608,3.3643,-1.5399,-8.1086,0.0943,-2.3985,0.4751,1534,2019-08-07 16:50:18:737
-10.1656,-5.0928,10.3608,3.3643,-1.5399,-8.1086,0.0943,-2.3985,0.4751,1539,2019-08-07 16:50:18:742
-10.1656,-5.0928,10.3608,3.3643,-1.5399,-8.1086,0.0943,-2.3985,0.4751,1543,2019-08-07 16:50:18:746
-10.8594,-4.4054,11.7043,3.9753,-1.9461,-8.788,0.0549,-2.6297,0.5241,1549,2019-08-07 16:50:18:752
-10.8594,-4.4054,11.7043,3.9753,-1.9461,-8.788,0.0549,-2.6297,0.5241,1553,2019-08-07 16:50:18:756
-10.8594,-4.4054,11.7043,3.9753,-1.9461,-8.788,-0.0207,-2.9322,0.6168,1559,2019-08-07 16:50:18:762
-12.3568,-3.3551,13.5426,6.2365,-3.3523,-10.7707,-0.0207,-2.9322,0.6168,1564,2019-08-07 16:50:18:767
-12.3568,-3.3551,13.5426,6.2365,-3.3523,-10.7707,-0.0974,-3.2742,0.7233,1570,2019-08-07 16:50:18:773
-12.3568,-3.3551,13.5426,6.2365,-3.3523,-10.7707,-0.0974,-3.2742,0.7233,1573,2019-08-07 16:50:18:776
-14.4427,-1.5793,15.2585,6.2365,-3.3523,-10.7707,-0.2093,-3.7429,0.8767,1579,2019-08-07 16:50:18:782
-14.4427,-1.5793,15.2585,8.4018,-5.4643,-11.888,-0.2093,-3.7429,0.8767,1584,2019-08-07 16:50:18:787
-15.3661,-0.1232,15.9467,8.4018,-5.4643,-11.888,-0.4447,-4.4736,1.0823,1589,2019-08-07 16:50:18:792
-15.3661,-0.1232,15.9467,8.4018,-5.4643,-11.888,-0.4447,-4.4736,1.0823,1594,2019-08-07 16:50:18:797
-15.3661,-0.1232,15.9467,9.0188,-6.3368,-11.849,-0.4447,-4.4736,1.0823,1598,2019-08-07 16:50:18:801
-15.6531,0.7217,15.8147,9.0188,-6.3368,-11.849,-0.7046,-5.0659,1.2432,1603,2019-08-07 16:50:18:806
-15.6531,0.7217,15.8147,9.0188,-6.3368,-11.849,-0.7046,-5.0659,1.2432,1609,2019-08-07 16:50:18:812
-15.3804,1.285,14.8578,8.98,-7.2438,-9.9649,-1.0892,-5.6177,1.4275,1613,2019-08-07 16:50:18:816
-15.3804,1.285,14.8578,8.98,-7.2438,-9.9649,-1.0892,-5.6177,1.4275,1619,2019-08-07 16:50:18:822
-15.3804,1.285,14.8578,8.98,-7.2438,-9.9649,-1.0892,-5.6177,1.4275,1624,2019-08-07 16:50:18:827
-14.7154,1.2946,13.7171,8.98,-7.2438,-9.9649,-1.4482,-5.85,1.5979,1628,2019-08-07 16:50:18:831
-14.7154,1.2946,13.7171,8.98,-7.2438,-9.9649,-1.4482,-5.85,1.5979,1634,2019-08-07 16:50:18:837
-14.7154,1.2946,13.7171,8.7033,-7.1253,-7.9133,-1.8327,-5.737,1.7471,1638,2019-08-07 16:50:18:841
-14.6245,1.433,13.4672,8.7033,-7.1253,-7.9133,-1.8327,-5.737,1.7471,1644,2019-08-07 16:50:18:847
-14.6245,1.433,13.4672,9.102,-7.4291,-7.8743,-2.0501,-5.5133,1.8333,1648,2019-08-07 16:50:18:851
-15.0695,1.9295,13.5379,9.102,-7.4291,-7.8743,-2.0501,-5.5133,1.8333,1654,2019-08-07 16:50:18:857
-15.0695,1.9295,13.5379,9.102,-7.4291,-7.8743,-2.4389,-4.9988,1.9676,1658,2019-08-07 16:50:18:861
-17.0884,3.2328,13.439,9.102,-7.4291,-7.8743,-2.4389,-4.9988,1.9676,1664,2019-08-07 16:50:18:867
-17.0884,3.2328,13.439,12.3275,-9.2787,-7.7229,-2.7382,-4.7037,2.0549,1668,2019-08-07 16:50:18:871
-17.0884,3.2328,13.439,12.3275,-9.2787,-7.7229,-2.7382,-4.7037,2.0549,1674,2019-08-07 16:50:18:877
-20.0738,4.3832,14.2026,12.3275,-9.2787,-7.7229,-3.1473,-4.6441,2.1977,1679,2019-08-07 16:50:18:882
-20.0738,4.3832,14.2026,12.3275,-9.2787,-7.7229,-3.1473,-4.6441,2.1977,1684,2019-08-07 16:50:18:887
-20.0738,4.3832,14.2026,17.2624,-10.8756,-6.9794,-3.6629,-5.0031,2.3873,1688,2019-08-07 16:50:18:891
-23.3653,5.1661,12.2086,17.2624,-10.8756,-6.9794,-3.6629,-5.0031,2.3873,1694,2019-08-07 16:50:18:897
-23.3653,5.1661,12.2086,17.2624,-10.8756,-6.9794,-4.0528,-5.6784,2.5215,1700,2019-08-07 16:50:18:903
-23.3653,5.1661,12.2086,17.2624,-10.8756,-6.9794,-4.0528,-5.6784,2.5215,1703,2019-08-07 16:50:18:906
-26.1162,5.4192,9.3285,21.7036,-11.5261,-2.486,-4.4043,-6.5861,2.6951,1709,2019-08-07 16:50:18:912
-26.1162,5.4192,9.3285,21.7036,-11.5261,-2.486,-4.4043,-6.5861,2.6951,1714,2019-08-07 16:50:18:917
-26.6282,4.832,5.0201,21.7036,-11.5261,-2.486,-4.6397,-7.4574,2.8986,1719,2019-08-07 16:50:18:922
-26.6282,4.832,5.0201,21.7036,-11.5261,-2.486,-4.6397,-7.4574,2.8986,1723,2019-08-07 16:50:18:926
-26.6282,4.832,5.0201,20.5542,-10.0454,5.4199,-4.6397,-7.4574,2.8986,1729,2019-08-07 16:50:18:932
-24.1643,3.3139,-0.2122,20.5542,-10.0454,5.4199,-4.7526,-8.0263,3.0456,1734,2019-08-07 16:50:18:937
-24.1643,3.3139,-0.2122,20.5542,-10.0454,5.4199,-4.7526,-8.0263,3.0456,1738,2019-08-07 16:50:18:941
-20.9397,1.6669,-4.2095,20.5542,-10.0454,5.4199,-4.7771,-8.1701,3.1149,1744,2019-08-07 16:50:18:947
-20.9397,1.6669,-4.2095,15.9892,-7.8876,11.3776,-4.7281,-7.8388,3.1138,1750,2019-08-07 16:50:18:953
-18.3801,0.8029,-6.4533,15.9892,-7.8876,11.3776,-4.7281,-7.8388,3.1138,1754,2019-08-07 16:50:18:957
-18.3801,0.8029,-6.4533,15.9892,-7.8876,11.3776,-4.7281,-7.8388,3.1138,1759,2019-08-07 16:50:18:962
-18.3801,0.8029,-6.4533,15.9892,-7.8876,11.3776,-4.6237,-7.0452,3.0275,1764,2019-08-07 16:50:18:967
-17.1027,0.4639,-7.9476,13.7497,-7.4891,13.9176,-4.6237,-7.0452,3.0275,1769,2019-08-07 16:50:18:972
-17.1027,0.4639,-7.9476,13.7497,-7.4891,13.9176,-4.4938,-5.8212,2.7868,1773,2019-08-07 16:50:18:976
-17.1027,0.4639,-7.9476,13.7497,-7.4891,13.9176,-4.4938,-5.8212,2.7868,1779,2019-08-07 16:50:18:982
-17.6577,0.1107,-9.06,13.7497,-7.4891,13.9176,-4.3968,-4.6654,2.4075,1784,2019-08-07 16:50:18:987
-17.6577,0.1107,-9.06,15.0758,-7.2307,16.0863,-4.3968,-4.6654,2.4075,1789,2019-08-07 16:50:18:992
-18.3036,-0.2521,-11.5678,15.0758,-7.2307,16.0863,-4.4746,-3.5362,1.893,1794,2019-08-07 16:50:18:997
-18.3036,-0.2521,-11.5678,15.0758,-7.2307,16.0863,-4.4746,-3.5362,1.893,1799,2019-08-07 16:50:19:002
-18.3036,-0.2521,-11.5678,15.0758,-7.2307,16.0863,-4.6631,-3.2145,1.4466,1803,2019-08-07 16:50:19:006
-15.9928,-0.8871,-13.1139,12.1639,-6.8028,18.5619,-4.6631,-3.2145,1.4466,1809,2019-08-07 16:50:19:012
-15.9928,-0.8871,-13.1139,12.1639,-6.8028,18.5619,-4.8421,-3.7003,0.914,1813,2019-08-07 16:50:19:016
-12.4524,-1.6795,-15.1786,12.1639,-6.8028,18.5619,-4.8421,-3.7003,0.914,1819,2019-08-07 16:50:19:022
-12.4524,-1.6795,-15.1786,12.1639,-6.8028,18.5619,-4.9273,-4.6302,0.3377,1824,2019-08-07 16:50:19:027
-12.4524,-1.6795,-15.1786,12.1639,-6.8028,18.5619,-4.9273,-4.6302,0.3377,1829,2019-08-07 16:50:19:032
-8.7399,-2.9637,-15.9893,6.8099,-5.8011,20.946,-4.8869,-5.5868,-0.1342,1834,2019-08-07 16:50:19:037
-8.7399,-2.9637,-15.9893,6.8099,-5.8011,20.946,-4.8869,-5.5868,-0.1342,1838,2019-08-07 16:50:19:041
-5.1612,-4.5056,-16.4419,6.8099,-5.8011,20.946,-4.7004,-6.4593,-0.4122,1844,2019-08-07 16:50:19:047
-5.1612,-4.5056,-16.4419,1.5541,-3.6572,22.1277,-4.7004,-6.4593,-0.4122,1850,2019-08-07 16:50:19:053
-5.1612,-4.5056,-16.4419,1.5541,-3.6572,22.1277,-4.3223,-6.1738,-0.4868,1853,2019-08-07 16:50:19:056
-1.7644,-5.89,-21.8722,1.5541,-3.6572,22.1277,-4.3223,-6.1738,-0.4868,1859,2019-08-07 16:50:19:062
-1.7644,-5.89,-21.8722,1.5541,-3.6572,22.1277,-4.3223,-6.1738,-0.4868,1863,2019-08-07 16:50:19:066
2.0199,-7.4129,-27.0809,-3.9373,-1.6019,30.4414,-3.746,-4.2137,-0.5656,1869,2019-08-07 16:50:19:072
2.0199,-7.4129,-27.0809,-3.9373,-1.6019,30.4414,-3.746,-4.2137,-0.5656,1874,2019-08-07 16:50:19:077
2.0199,-7.4129,-27.0809,-3.9373,-1.6019,30.4414,-2.8746,-0.3276,-0.7755,1879,2019-08-07 16:50:19:082
2.9528,-9.098,-27.6607,-3.9373,-1.6019,30.4414,-2.8746,-0.3276,-0.7755,1884,2019-08-07 16:50:19:087
2.9528,-9.098,-27.6607,-3.54,1.2377,27.3058,-2.0415,3.1185,-0.9044,1889,2019-08-07 16:50:19:092
2.9528,-9.098,-27.6607,-3.54,1.2377,27.3058,-2.0415,3.1185,-0.9044,1894,2019-08-07 16:50:19:097
1.2688,-10.9741,-21.8109,-3.54,1.2377,27.3058,-1.4461,4.1337,-0.8511,1898,2019-08-07 16:50:19:101
1.2688,-10.9741,-21.8109,-3.54,1.2377,27.3058,-1.4461,4.1337,-0.8511,1904,2019-08-07 16:50:19:107
1.7998,-11.8382,-14.2122,-3.54,1.2377,27.3058,-1.4461,4.1337,-0.8511,1908,2019-08-07 16:50:19:111
1.7998,-11.8382,-14.2122,-3.7953,2.5541,15.206,-0.8665,3.094,-0.7553,1914,2019-08-07 16:50:19:117
2.2926,-11.8573,-10.0829,-3.7953,2.5541,15.206,-0.8665,3.094,-0.7553,1919,2019-08-07 16:50:19:122
2.2926,-11.8573,-10.0829,-3.7953,2.5541,15.206,-0.0314,0.0931,-0.6722,1924,2019-08-07 16:50:19:127
2.2926,-11.8573,-10.0829,-3.7953,2.5541,15.206,-0.0314,0.0931,-0.6722,1929,2019-08-07 16:50:19:132
1.5654,-10.7975,-11.252,-3.3663,1.64,12.9319,0.7527,-1.8733,-0.5912,1934,2019-08-07 16:50:19:137
1.5654,-10.7975,-11.252,-3.3663,1.64,12.9319,0.7527,-1.8733,-0.5912,1939,2019-08-07 16:50:19:142
1.5654,-10.7975,-11.252,-3.3663,1.64,12.9319,0.7527,-1.8733,-0.5912,1943,2019-08-07 16:50:19:146
2.0199,-9.5897,-13.293,-4.3773,-0.5048,16.7179,1.5868,-2.3697,-0.4762,1949,2019-08-07 16:50:19:152
2.0199,-9.5897,-13.293,-4.3773,-0.5048,16.7179,1.5868,-2.3697,-0.4762,1953,2019-08-07 16:50:19:156
4.2016,-8.8689,-14.4526,-4.3773,-0.5048,16.7179,2.6435,-0.1902,-0.3483,1959,2019-08-07 16:50:19:162
4.2016,-8.8689,-14.4526,-6.1445,-1.1013,19.4115,2.6435,-0.1902,-0.3483,1964,2019-08-07 16:50:19:167
4.8146,-7.0835,-17.7899,-6.1445,-1.1013,19.4115,3.174,3.4125,-0.2216,1969,2019-08-07 16:50:19:172
4.8146,-7.0835,-17.7899,-6.1445,-1.1013,19.4115,3.174,3.4125,-0.2216,1974,2019-08-07 16:50:19:177
4.8146,-7.0835,-17.7899,-6.1445,-1.1013,19.4115,2.7852,5.1947,-0.1395,1979,2019-08-07 16:50:19:182
4.8146,-7.0835,-17.7899,-3.4117,-2.9108,19.6717,2.7852,5.1947,-0.1395,1984,2019-08-07 16:50:19:187
1.3269,-5.8233,-15.8054,-3.4117,-2.9108,19.6717,2.7852,5.1947,-0.1395,1989,2019-08-07 16:50:19:192
1.3269,-5.8233,-15.8054,-3.4117,-2.9108,19.6717,2.1215,6.7979,-0.2759,1994,2019-08-07 16:50:19:197
-5.5385,-5.2313,-4.6572,-3.4117,-2.9108,19.6717,2.1215,6.7979,-0.2759,1999,2019-08-07 16:50:19:202
-5.5385,-5.2313,-4.6572,4.7287,-3.9286,9.5547,1.8946,6.6296,-0.3941,2003,2019-08-07 16:50:19:206
-5.5385,-5.2313,-4.6572,4.7287,-3.9286,9.5547,1.8946,6.6296,-0.3941,2009,2019-08-07 16:50:19:212
-11.9254,-5.4127,-4.3272,4.7287,-3.9286,9.5547,2.1684,6.6285,-0.2024,2014,2019-08-07 16:50:19:217
-11.9254,-5.4127,-4.3272,4.7287,-3.9286,9.5547,2.1684,6.6285,-0.2024,2019,2019-08-07 16:50:19:222
-11.9254,-5.4127,-4.3272,9.5297,-2.4067,3.6622,2.7777,6.0064,-0.0852,2023,2019-08-07 16:50:19:226
-11.9206,-7.0549,0.0283,9.5297,-2.4067,3.6622,2.7777,6.0064,-0.0852,2029,2019-08-07 16:50:19:232
-11.9206,-7.0549,0.0283,9.0518,-1.6915,3.1894,3.2965,4.5183,-0.2514,2034,2019-08-07 16:50:19:237
-11.9206,-7.0549,0.0283,9.0518,-1.6915,3.1894,3.2965,4.5183,-0.2514,2039,2019-08-07 16:50:19:242
-11.0642,-6.6348,-2.4558,9.0518,-1.6915,3.1894,3.2965,4.5183,-0.2514,2043,2019-08-07 16:50:19:246
-11.0642,-6.6348,-2.4558,9.0518,-1.6915,3.1894,3.1271,2.344,-0.6136,2049,2019-08-07 16:50:19:252
-9.6672,-5.7182,-10.2996,7.0663,-2.5762,10.8306,3.1271,2.344,-0.6136,2053,2019-08-07 16:50:19:256
-9.6672,-5.7182,-10.2996,7.0663,-2.5762,10.8306,2.0555,2.9694,-0.8245,2059,2019-08-07 16:50:19:262
-9.6672,-5.7182,-10.2996,7.0663,-2.5762,10.8306,2.0555,2.9694,-0.8245,2064,2019-08-07 16:50:19:267
-3.5386,-5.7469,-1.1925,7.0663,-2.5762,10.8306,1.476,5.2437,-0.8841,2068,2019-08-07 16:50:19:271
-3.5386,-5.7469,-1.1925,0.9252,-1.5027,5.6009,1.476,5.2437,-0.8841,2074,2019-08-07 16:50:19:277
-3.5386,-5.7469,-1.1925,0.9252,-1.5027,5.6009,1.9234,6.0448,-1.0791,2078,2019-08-07 16:50:19:281
-6.2225,-7.5753,-6.8397,0.9252,-1.5027,5.6009,1.9234,6.0448,-1.0791,2084,2019-08-07 16:50:19:287
-6.2225,-7.5753,-6.8397,0.9252,-1.5027,5.6009,2.4571,7.8664,-0.8202,2089,2019-08-07 16:50:19:292
-10.5379,-7.8712,-6.439,7.2661,-0.6454,10.0442,2.4571,7.8664,-0.8202,2094,2019-08-07 16:50:19:297
-10.5379,-7.8712,-6.439,7.2661,-0.6454,10.0442,2.4571,7.8664,-0.8202,2098,2019-08-07 16:50:19:301
-13.619,-7.3843,-0.8107,7.2661,-0.6454,10.0442,2.1556,8.6994,-0.6018,2104,2019-08-07 16:50:19:307
-13.619,-7.3843,-0.8107,7.2661,-0.6454,10.0442,2.1556,8.6994,-0.6018,2108,2019-08-07 16:50:19:311
-13.619,-7.3843,-0.8107,13.3512,-1.551,0.9262,1.9873,8.4938,-0.6551,2114,2019-08-07 16:50:19:317
-19.0682,-6.7303,3.922,13.3512,-1.551,0.9262,1.9873,8.4938,-0.6551,2119,2019-08-07 16:50:19:322
-19.0682,-6.7303,3.922,13.3512,-1.551,0.9262,1.9191,7.5287,-0.5731,2124,2019-08-07 16:50:19:327
-20.1494,-7.2268,4.7657,13.3512,-1.551,0.9262,1.9191,7.5287,-0.5731,2129,2019-08-07 16:50:19:332
-20.1494,-7.2268,4.7657,15.3672,-1.0037,-1.7773,1.6741,6.1737,-0.5443,2134,2019-08-07 16:50:19:337
-20.1494,-7.2268,4.7657,15.3672,-1.0037,-1.7773,1.6741,6.1737,-0.5443,2138,2019-08-07 16:50:19:341
-20.1494,-7.2268,4.7657,15.3672,-1.0037,-1.7773,1.6741,6.1737,-0.5443,2144,2019-08-07 16:50:19:347
-16.0398,-7.3557,3.8937,11.6354,-0.9132,-0.9846,1.3705,4.7505,-0.6519,2148,2019-08-07 16:50:19:351
-16.0398,-7.3557,3.8937,11.6354,-0.9132,-0.9846,1.3279,5.2256,-0.7318,2155,2019-08-07 16:50:19:358
-10.8584,-7.3604,1.4425,11.6354,-0.9132,-0.9846,1.3279,5.2256,-0.7318,2158,2019-08-07 16:50:19:361
-10.8584,-7.3604,1.4425,5.4008,-0.6096,2.5243,1.3279,5.2256,-0.7318,2164,2019-08-07 16:50:19:367
-10.8584,-7.3604,1.4425,5.4008,-0.6096,2.5243,1.4632,5.9979,-0.7041,2169,2019-08-07 16:50:19:372
-10.7531,-7.7042,-1.8666,5.4008,-0.6096,2.5243,1.4632,5.9979,-0.7041,2173,2019-08-07 16:50:19:376
-10.7531,-7.7042,-1.8666,5.4008,-0.6096,2.5243,1.4515,7.3625,-0.5773,2179,2019-08-07 16:50:19:382
-14.2265,-7.413,1.3577,9.3523,-0.8018,0.8778,1.4515,7.3625,-0.5773,2183,2019-08-07 16:50:19:386
-14.2265,-7.413,1.3577,9.3523,-0.8018,0.8778,1.4973,8.2168,-0.3856,2189,2019-08-07 16:50:19:392
-14.2265,-7.413,1.3577,9.3523,-0.8018,0.8778,1.4973,8.2168,-0.3856,2194,2019-08-07 16:50:19:397
-18.3218,-6.6205,5.4634,9.3523,-0.8018,0.8778,1.6081,7.9591,-0.2705,2199,2019-08-07 16:50:19:402
-18.3218,-6.6205,5.4634,14.4457,-1.8906,-5.5899,1.6081,7.9591,-0.2705,2204,2019-08-07 16:50:19:407
-18.3218,-6.6205,5.4634,14.4457,-1.8906,-5.5899,1.6081,7.9591,-0.2705,2208,2019-08-07 16:50:19:411
-19.7714,-5.9283,8.1738,14.4457,-1.8906,-5.5899,1.5559,6.685,-0.261,2214,2019-08-07 16:50:19:417
-19.7714,-5.9283,8.1738,14.4457,-1.8906,-5.5899,1.5559,6.685,-0.261,2218,2019-08-07 16:50:19:421
-17.8385,-5.2409,8.4095,12.4745,-2.8765,-7.1562,1.4472,5.4014,-0.3153,2224,2019-08-07 16:50:19:427
-17.8385,-5.2409,8.4095,12.4745,-2.8765,-7.1562,1.4472,5.4014,-0.3153,2229,2019-08-07 16:50:19:432
-17.8385,-5.2409,8.4095,12.4745,-2.8765,-7.1562,1.4664,4.6077,-0.3632,2234,2019-08-07 16:50:19:437
-13.8006,-5.322,6.5947,12.4745,-2.8765,-7.1562,1.4664,4.6077,-0.3632,2239,2019-08-07 16:50:19:442
-13.8006,-5.322,6.5947,12.4745,-2.8765,-7.1562,1.4664,4.6077,-0.3632,2244,2019-08-07 16:50:19:447
-13.8006,-5.322,6.5947,6.3937,-2.5901,-4.0854,1.5516,4.5886,-0.4484,2249,2019-08-07 16:50:19:452
-11.1597,-5.4891,4.12,6.3937,-2.5901,-4.0854,1.5516,4.5886,-0.4484,2254,2019-08-07 16:50:19:457
-11.1597,-5.4891,4.12,6.3937,-2.5901,-4.0854,1.6283,5.0338,-0.4825,2259,2019-08-07 16:50:19:462
-11.4468,-5.3077,3.9408,6.3937,-2.5901,-4.0854,1.6283,5.0338,-0.4825,2263,2019-08-07 16:50:19:466
-11.4468,-5.3077,3.9408,6.2582,-2.7344,-3.308,1.7551,5.3822,-0.3366,2269,2019-08-07 16:50:19:472
-11.4468,-5.3077,3.9408,6.2582,-2.7344,-3.308,1.7551,5.3822,-0.3366,2273,2019-08-07 16:50:19:476
-13.0782,-5.217,5.025,7.9418,-2.9655,-4.8043,1.8083,5.4216,-0.2045,2279,2019-08-07 16:50:19:482
-13.0782,-5.217,5.025,7.9418,-2.9655,-4.8043,1.8083,5.4216,-0.2045,2284,2019-08-07 16:50:19:487
-13.0782,-5.217,5.025,7.9418,-2.9655,-4.8043,1.8083,5.4216,-0.2045,2288,2019-08-07 16:50:19:491
-15.3507,-4.0188,8.5415,10.1126,-4.4837,-8.9489,1.8531,4.5214,0.2802,2294,2019-08-07 16:50:19:497
-15.3507,-4.0188,8.5415,10.1126,-4.4837,-8.9489,1.8531,4.5214,0.2802,2299,2019-08-07 16:50:19:502
-16.0205,-3.2311,10.1725,10.1126,-4.4837,-8.9489,1.7359,3.4498,0.5114,2304,2019-08-07 16:50:19:507
-16.0205,-3.2311,10.1725,10.1126,-4.4837,-8.9489,1.7359,3.4498,0.5114,2308,2019-08-07 16:50:19:511
-15.3746,-3.1452,10.4836,10.1126,-4.4837,-8.9489,1.5537,2.2237,0.6786,2314,2019-08-07 16:50:19:517
-15.3746,-3.1452,10.4836,9.2266,-4.6032,-10.1269,1.5537,2.2237,0.6786,2319,2019-08-07 16:50:19:522
-15.3746,-3.1452,10.4836,9.2266,-4.6032,-10.1269,1.3822,0.875,0.7489,2323,2019-08-07 16:50:19:526
-12.9155,-4.0236,8.9422,9.2266,-4.6032,-10.1269,1.3822,0.875,0.7489,2329,2019-08-07 16:50:19:532
-12.9155,-4.0236,8.9422,9.2266,-4.6032,-10.1269,1.346,0.3573,0.7425,2334,2019-08-07 16:50:19:537
-9.2507,-5.1168,6.4627,4.0583,-2.9094,-6.3337,1.346,0.3573,0.7425,2339,2019-08-07 16:50:19:542
-9.2507,-5.1168,6.4627,4.0583,-2.9094,-6.3337,1.3726,0.434,0.6339,2344,2019-08-07 16:50:19:547
-9.2507,-5.1168,6.4627,1.5971,-2.2657,-4.3922,1.3726,0.434,0.6339,2349,2019-08-07 16:50:19:552
-6.9256,-5.661,4.3792,1.5971,-2.2657,-4.3922,1.4131,1.1669,0.4624,2354,2019-08-07 16:50:19:557
-6.9256,-5.661,4.3792,1.5971,-2.2657,-4.3922,1.4131,1.1669,0.4624,2359,2019-08-07 16:50:19:562
-7.0213,-5.9188,3.691,1.5971,-2.2657,-4.3922,1.4131,1.1669,0.4624,2363,2019-08-07 16:50:19:566
-7.0213,-5.9188,3.691,1.3046,-1.6948,-2.9427,1.379,1.8562,0.3516,2369,2019-08-07 16:50:19:572
-7.0213,-5.9188,3.691,1.3046,-1.6948,-2.9427,1.379,1.8562,0.3516,2373,2019-08-07 16:50:19:576
-9.2794,-5.7469,4.0823,3.1466,-1.8772,-3.3773,1.2512,2.1832,0.2962,2379,2019-08-07 16:50:19:582
-9.2794,-5.7469,4.0823,3.1466,-1.8772,-3.3773,1.2512,2.1832,0.2962,2384,2019-08-07 16:50:19:587
-9.2794,-5.7469,4.0823,3.1466,-1.8772,-3.3773,1.2512,2.1832,0.2962,2389,2019-08-07 16:50:19:592
-11.4706,-5.2743,5.3173,3.1466,-1.8772,-3.3773,0.9891,1.6644,0.2834,2393,2019-08-07 16:50:19:596
-11.4706,-5.2743,5.3173,5.5365,-2.2974,-4.9284,0.9891,1.6644,0.2834,2399,2019-08-07 16:50:19:602
-11.6141,-5.3268,5.4069,5.5365,-2.2974,-4.9284,0.758,0.8537,0.2845,2404,2019-08-07 16:50:19:607
-11.6141,-5.3268,5.4069,5.5365,-2.2974,-4.9284,0.758,0.8537,0.2845,2409,2019-08-07 16:50:19:612
-11.6141,-5.3268,5.4069,5.5365,-2.2974,-4.9284,0.4938,-0.0603,0.2834,2414,2019-08-07 16:50:19:617
-10.2888,-5.8376,4.3887,3.9911,-1.6496,-3.6704,0.4938,-0.0603,0.2834,2419,2019-08-07 16:50:19:622
-10.2888,-5.8376,4.3887,3.9911,-1.6496,-3.6704,0.2413,-0.8986,0.26,2424,2019-08-07 16:50:19:627
-10.2888,-5.8376,4.3887,3.9911,-1.6496,-3.6704,0.2413,-0.8986,0.26,2428,2019-08-07 16:50:19:631
-8.0881,-6.4821,3.1584,3.9911,-1.6496,-3.6704,0.1401,-1.183,0.2397,2434,2019-08-07 16:50:19:637
-8.0881,-6.4821,3.1584,0.2485,-0.4994,-1.2492,0.1401,-1.183,0.2397,2439,2019-08-07 16:50:19:642
-5.6194,-7.1743,1.4426,0.2485,-0.4994,-1.2492,0.0773,-1.085,0.1875,2444,2019-08-07 16:50:19:647
-5.6194,-7.1743,1.4426,0.2485,-0.4994,-1.2492,0.0773,-1.085,0.1875,2449,2019-08-07 16:50:19:652
-5.6194,-7.1743,1.4426,0.2485,-0.4994,-1.2492,0.0773,-1.085,0.1875,2453,2019-08-07 16:50:19:656
-3.9927,-7.6564,0.2123,-2.5153,0.2951,0.9101,0.0432,-0.6163,0.0927,2459,2019-08-07 16:50:19:662
-3.9927,-7.6564,0.2123,-2.5153,0.2951,0.9101,0.0432,-0.6163,0.0927,2463,2019-08-07 16:50:19:666
-3.7918,-7.7949,-0.0281,-2.5153,0.2951,0.9101,0.0549,0.0047,0.0075,2469,2019-08-07 16:50:19:672
-3.7918,-7.7949,-0.0281,-2.5153,0.2951,0.9101,0.0549,0.0047,0.0075,2473,2019-08-07 16:50:19:676
-3.7918,-7.7949,-0.0281,-1.724,0.2842,0.6421,0.0762,0.7174,-0.0639,2479,2019-08-07 16:50:19:682
-4.873,-7.6374,0.6176,-1.724,0.2842,0.6421,0.0762,0.7174,-0.0639,2484,2019-08-07 16:50:19:687
-4.873,-7.6374,0.6176,-1.724,0.2842,0.6421,0.0719,0.9731,-0.0873,2489,2019-08-07 16:50:19:692
-4.873,-7.0311,1.3342,-1.724,0.2842,0.6421,0.0719,0.9731,-0.0873,2493,2019-08-07 16:50:19:696
-6.4183,-7.0311,1.3342,0.5252,-0.5133,-0.8036,0.0624,0.8505,-0.0745,2499,2019-08-07 16:50:19:702
-6.4183,-7.0311,1.3342,0.5252,-0.5133,-0.8036,0.0624,0.8505,-0.0745,2503,2019-08-07 16:50:19:706
-7.5761,-6.8354,1.9988,0.5252,-0.5133,-0.8036,0.0624,0.8505,-0.0745,2509,2019-08-07 16:50:19:712
-7.5761,-6.8354,1.9988,0.5252,-0.5133,-0.8036,0.0272,0.5022,-0.0447,2514,2019-08-07 16:50:19:717
-7.5761,-6.8354,1.9988,1.5771,-0.5602,-1.2325,0.0272,0.5022,-0.0447,2519,2019-08-07 16:50:19:722
-7.954,-6.9308,2.0129,1.5771,-0.5602,-1.2325,-0.0186,0.0303,0.0043,2523,2019-08-07 16:50:19:726
-7.954,-6.9308,2.0129,1.5771,-0.5602,-1.2325,-0.0186,0.0303,0.0043,2529,2019-08-07 16:50:19:732
-7.179,-7.1027,1.6641,1.5771,-0.5602,-1.2325,-0.0367,-0.4097,0.0618,2534,2019-08-07 16:50:19:737
-7.179,-7.1027,1.6641,0.3734,-0.2825,-0.3984,-0.0367,-0.4097,0.0618,2539,2019-08-07 16:50:19:742
-7.179,-7.1027,1.6641,0.3734,-0.2825,-0.3984,-0.0367,-0.4097,0.0618,2544,2019-08-07 16:50:19:747
-6.2317,-7.2268,0.9712,0.3734,-0.2825,-0.3984,-0.0207,-0.7239,0.1151,2548,2019-08-07 16:50:19:751
-6.2317,-7.2268,0.9712,0.3734,-0.2825,-0.3984,-0.0207,-0.7239,0.1151,2554,2019-08-07 16:50:19:757
-5.2366,-7.3796,0.3443,-1.1074,-0.0404,0.6221,-0.0143,-0.6845,0.1289,2559,2019-08-07 16:50:19:762
-5.2366,-7.3796,0.3443,-1.1074,-0.0404,0.6221,-0.0143,-0.6845,0.1289,2563,2019-08-07 16:50:19:766
-5.2366,-7.3796,0.3443,-1.1074,-0.0404,0.6221,-0.009,-0.4832,0.1236,2569,2019-08-07 16:50:19:772
-4.8634,-7.3843,-0.146,-1.1074,-0.0404,0.6221,-0.009,-0.4832,0.1236,2574,2019-08-07 16:50:19:777
-4.8634,-7.3843,-0.146,-1.1074,-0.0404,0.6221,0.0091,-0.1838,0.1183,2579,2019-08-07 16:50:19:782
-4.8394,-7.4751,-0.0611,-1.6225,0.0259,1.0842,0.0091,-0.1838,0.1183,2583,2019-08-07 16:50:19:786
-4.8394,-7.4751,-0.0611,-1.6225,0.0259,1.0842,0.0581,0.2135,0.097,2589,2019-08-07 16:50:19:792
-4.8394,-7.4751,-0.0611,-1.6225,0.0259,1.0842,0.0581,0.2135,0.097,2594,2019-08-07 16:50:19:797
-5.3944,-7.4416,0.1086,-0.6263,-0.042,0.7141,0.0922,0.4489,0.0948,2599,2019-08-07 16:50:19:802
-5.3944,-7.4416,0.1086,-0.6263,-0.042,0.7141,0.0922,0.4489,0.0948,2604,2019-08-07 16:50:19:807
-5.3944,-7.4416,0.1086,-0.6263,-0.042,0.7141,0.0922,0.4489,0.0948,2609,2019-08-07 16:50:19:812
-6.4326,-7.2029,0.6978,-0.6263,-0.042,0.7141,0.122,0.515,0.0948,2614,2019-08-07 16:50:19:817
-6.4326,-7.2029,0.6978,0.6305,-0.37,-0.1532,0.122,0.515,0.0948,2619,2019-08-07 16:50:19:822
-7.2507,-6.9595,1.2399,0.6305,-0.37,-0.1532,0.1391,0.3722,0.0938,2624,2019-08-07 16:50:19:827
-7.2507,-6.9595,1.2399,0.6305,-0.37,-0.1532,0.1391,0.3722,0.0938,2629,2019-08-07 16:50:19:832
-7.2507,-6.9595,1.2399,0.6305,-0.37,-0.1532,0.138,0.1571,0.098,2634,2019-08-07 16:50:19:837
-7.3511,-7.012,1.287,0.6305,-0.37,-0.1532,0.138,0.1571,0.098,2638,2019-08-07 16:50:19:841
-7.3511,-7.012,1.287,0.874,-0.3785,-0.3638,0.1231,-0.0698,0.0895,2644,2019-08-07 16:50:19:847
-6.9588,-7.0645,1.2682,0.874,-0.3785,-0.3638,0.1231,-0.0698,0.0895,2649,2019-08-07 16:50:19:852
-6.9588,-7.0645,1.2682,0.874,-0.3785,-0.3638,0.1092,-0.2658,0.0671,2653,2019-08-07 16:50:19:856
-6.9588,-7.0645,1.2682,0.874,-0.3785,-0.3638,0.1092,-0.2658,0.0671,2659,2019-08-07 16:50:19:862
-6.3799,-7.2411,0.8204,0.0446,-0.1198,0.1302,0.1092,-0.2658,0.0671,2663,2019-08-07 16:50:19:866
-6.3799,-7.2411,0.8204,0.0446,-0.1198,0.1302,0.0869,-0.2829,0.0373,2669,2019-08-07 16:50:19:872
-5.9541,-7.4798,0.712,0.0446,-0.1198,0.1302,0.0869,-0.2829,0.0373,2674,2019-08-07 16:50:19:877
-5.9541,-7.4798,0.712,0.0446,-0.1198,0.1302,0.056,-0.186,-0.0053,2679,2019-08-07 16:50:19:882
-5.9541,-7.4798,0.712,-0.5217,0.184,0.3471,0.056,-0.186,-0.0053,2684,2019-08-07 16:50:19:887
-5.7531,-7.6183,0.7544,-0.5217,0.184,0.3471,0.056,-0.186,-0.0053,2688,2019-08-07 16:50:19:891
-5.7531,-7.6183,0.7544,-0.5217,0.184,0.3471,0.0656,-0.0304,-0.0468,2694,2019-08-07 16:50:19:897
-5.7531,-7.6183,0.7544,-0.5217,0.184,0.3471,0.0656,-0.0304,-0.0468,2699,2019-08-07 16:50:19:902
-5.7148,-7.5276,0.6884,-0.64,0.1573,0.3316,0.0666,0.0697,-0.066,2704,2019-08-07 16:50:19:907
-5.7148,-7.5276,0.6884,-0.64,0.1573,0.3316,0.0666,0.0697,-0.066,2709,2019-08-07 16:50:19:912
-6.1454,-7.413,0.9147,-0.64,0.1573,0.3316,0.0624,0.1922,-0.0863,2714,2019-08-07 16:50:19:917
-6.1454,-7.413,0.9147,-0.64,0.1573,0.3316,0.0624,0.1922,-0.0863,2719,2019-08-07 16:50:19:922
-6.1454,-7.413,0.9147,-0.0557,-0.0921,-0.12,0.0656,0.1752,-0.082,2724,2019-08-07 16:50:19:927
-6.4372,-7.203,1.1928,-0.0557,-0.0921,-0.12,0.0656,0.1752,-0.082,2729,2019-08-07 16:50:19:932
-6.4372,-7.203,1.1928,0.1203,-0.1916,-0.1392,0.0688,0.0772,-0.065,2734,2019-08-07 16:50:19:937
-6.4372,-7.203,1.1928,0.1203,-0.1916,-0.1392,0.0688,0.0772,-0.065,2739,2019-08-07 16:50:19:942
-6.5568,-7.0836,1.1551,0.1203,-0.1916,-0.1392,0.0666,-0.0453,-0.0383,2744,2019-08-07 16:50:19:947
-6.5568,-7.0836,1.1551,0.1203,-0.1916,-0.1392,0.0666,-0.0453,-0.0383,2749,2019-08-07 16:50:19:952
-6.3272,-7.0263,1.0325,-0.0604,-0.3241,-0.0668,0.0677,-0.1412,-0.0202,2753,2019-08-07 16:50:19:956
-6.3272,-7.0263,1.0325,-0.0604,-0.3241,-0.0668,0.0677,-0.1412,-0.0202,2759,2019-08-07 16:50:19:962
-6.3272,-7.0263,1.0325,-0.0604,-0.3241,-0.0668,0.0666,-0.1849,-0.0064,2764,2019-08-07 16:50:19:967
-6.1358,-6.9786,0.9854,-0.0604,-0.3241,-0.0668,0.0666,-0.1849,-0.0064,2769,2019-08-07 16:50:19:972
-6.1358,-6.9786,0.9854,-0.3238,-0.3809,0.1671,0.0602,-0.1913,0.0011,2774,2019-08-07 16:50:19:977
-5.9444,-7.0597,0.8298,-0.3238,-0.3809,0.1671,0.0602,-0.1913,0.0011,2780,2019-08-07 16:50:19:983
-5.9444,-7.0597,0.8298,-0.4413,-0.2802,0.2301,0.0602,-0.1913,0.0011,2784,2019-08-07 16:50:19:987
-5.9444,-7.0597,0.8298,-0.4413,-0.2802,0.2301,0.0613,-0.1615,0.0054,2788,2019-08-07 16:50:19:991
-5.8009,-7.1314,0.7356,-0.4413,-0.2802,0.2301,0.0709,-0.121,0.0011,2794,2019-08-07 16:50:19:997
-5.8009,-7.1314,0.7356,-0.4413,-0.2802,0.2301,0.0709,-0.121,0.0011,2799,2019-08-07 16:50:20:002
-5.8009,-7.1314,0.7356,-0.5763,-0.299,0.3017,0.0709,-0.121,0.0011,2804,2019-08-07 16:50:20:007
-5.887,-7.0263,0.9005,-0.5763,-0.299,0.3017,0.0901,-0.0091,-0.0096,2809,2019-08-07 16:50:20:012
-5.887,-7.0263,0.9005,-0.5763,-0.299,0.3017,0.0901,-0.0091,-0.0096,2813,2019-08-07 16:50:20:016
-6.064,-6.9356,1.0231,-0.5763,-0.299,0.3017,0.0933,0.0303,-0.0042,2819,2019-08-07 16:50:20:022
-6.064,-6.9356,1.0231,-0.2501,-0.4555,0.1105,0.0933,0.0303,-0.0042,2824,2019-08-07 16:50:20:027
-6.064,-6.9356,1.0231,-0.2501,-0.4555,0.1105,0.0922,0.0399,0.0064,2828,2019-08-07 16:50:20:031
-6.4084,-6.9118,1.1645,-0.2501,-0.4555,0.1105,0.0922,0.0399,0.0064,2834,2019-08-07 16:50:20:037
-6.4084,-6.9118,1.1645,-0.2501,-0.4555,0.1105,0.0943,-0.0176,0.0181,2838,2019-08-07 16:50:20:041
-6.595,-6.8354,1.4049,0.2146,-0.5311,-0.2819,0.0943,-0.0176,0.0181,2844,2019-08-07 16:50:20:047
-6.595,-6.8354,1.4049,0.2146,-0.5311,-0.2819,0.0933,-0.1327,0.0352,2848,2019-08-07 16:50:20:051
-6.595,-6.8354,1.4049,0.2146,-0.5311,-0.2819,0.0933,-0.1327,0.0352,2854,2019-08-07 16:50:20:057
-6.6572,-6.7781,1.4096,0.2146,-0.5311,-0.2819,0.0933,-0.1327,0.0352,2858,2019-08-07 16:50:20:061
-6.6572,-6.7781,1.4096,0.2433,-0.5493,-0.1567,0.0773,-0.3106,0.0522,2864,2019-08-07 16:50:20:067
-6.6572,-6.7781,1.4096,0.2433,-0.5493,-0.1567,0.0773,-0.3106,0.0522,2869,2019-08-07 16:50:20:072
-6.5089,-6.8115,1.0467,0.2433,-0.5493,-0.1567,0.0517,-0.4469,0.0682,2873,2019-08-07 16:50:20:076
-6.5089,-6.8115,1.0467,0.2433,-0.5493,-0.1567,0.0517,-0.4469,0.0682,2879,2019-08-07 16:50:20:082
-6.2984,-6.9691,0.8487,-0.1409,-0.3231,0.415,0.0442,-0.5162,0.0735,2883,2019-08-07 16:50:20:086
-6.2984,-6.9691,0.8487,-0.1409,-0.3231,0.415,0.0442,-0.5162,0.0735,2889,2019-08-07 16:50:20:092
-6.2984,-6.9691,0.8487,-0.1409,-0.3231,0.415,0.0442,-0.5162,0.0735,2893,2019-08-07 16:50:20:096
-5.973,-7.2221,0.646,-0.4126,-0.1175,0.6154,0.0645,-0.5141,0.0799,2899,2019-08-07 16:50:20:102
-5.973,-7.2221,0.646,-0.4126,-0.1175,0.6154,0.0645,-0.5141,0.0799,2903,2019-08-07 16:50:20:106
-5.5328,-7.3223,0.5565,-0.4126,-0.1175,0.6154,0.1018,-0.3969,0.065,2909,2019-08-07 16:50:20:112
-5.5328,-7.3223,0.5565,-0.8486,0.0,0.8395,0.1018,-0.3969,0.065,2914,2019-08-07 16:50:20:117
-5.5328,-7.3223,0.5565,-0.8486,0.0,0.8395,0.1337,-0.252,0.0341,2919,2019-08-07 16:50:20:122
-5.6237,-7.308,0.5847,-0.8486,0.0,0.8395,0.1337,-0.252,0.0341,2924,2019-08-07 16:50:20:127
-5.6237,-7.308,0.5847,-0.8486,0.0,0.8395,0.1561,-0.1061,0.0107,2929,2019-08-07 16:50:20:132
-5.8964,-7.2316,0.7403,-0.4807,-0.0972,0.6225,0.1561,-0.1061,0.0107,2934,2019-08-07 16:50:20:137
-5.8964,-7.2316,0.7403,-0.4807,-0.0972,0.6225,0.17,0.0111,-0.0042,2938,2019-08-07 16:50:20:141
-5.8964,-7.2316,0.7403,-0.4807,-0.0972,0.6225,0.17,0.0111,-0.0042,2944,2019-08-07 16:50:20:147
-6.1595,-7.1266,0.9854,-0.4807,-0.0972,0.6225,0.1859,0.0271,-0.0053,2949,2019-08-07 16:50:20:152
-6.1595,-7.1266,0.9854,-0.088,-0.2081,0.1869,0.1859,0.0271,-0.0053,2954,2019-08-07 16:50:20:157
-6.1595,-7.1266,0.9854,-0.088,-0.2081,0.1869,0.1859,0.0271,-0.0053,2958,2019-08-07 16:50:20:161
-6.4083,-7.0932,1.2824,-0.088,-0.2081,0.1869,0.203,-0.0113,-0.0032,2964,2019-08-07 16:50:20:167
-6.4083,-7.0932,1.2824,-0.088,-0.2081,0.1869,0.203,-0.0113,-0.0032,2969,2019-08-07 16:50:20:172
-6.4083,-7.1217,1.6215,-0.088,-0.2081,0.1869,0.2126,-0.1146,0.0022,2973,2019-08-07 16:50:20:176
-6.577,-7.1217,1.6215,0.2005,-0.1967,-0.201,0.2126,-0.1146,0.0022,2979,2019-08-07 16:50:20:182
-6.577,-7.1217,1.6215,0.2005,-0.1967,-0.201,0.1977,-0.236,0.0085,2984,2019-08-07 16:50:20:187
-6.4478,-7.0119,1.7205,0.2005,-0.1967,-0.201,0.1977,-0.236,0.0085,2988,2019-08-07 16:50:20:191
-6.4478,-7.0119,1.7205,0.2005,-0.1967,-0.201,0.1763,-0.3521,0.0149,2994,2019-08-07 16:50:20:197
-6.2325,-7.1026,1.6498,-0.0915,-0.2646,-0.1758,0.1763,-0.3521,0.0149,2999,2019-08-07 16:50:20:202
-6.2325,-7.1026,1.6498,-0.0915,-0.2646,-0.1758,0.155,-0.4214,0.0064,3004,2019-08-07 16:50:20:207
-6.2325,-7.1026,1.6498,-0.0915,-0.2646,-0.1758,0.155,-0.4214,0.0064,3009,2019-08-07 16:50:20:212
-5.8211,-7.1074,1.5367,-0.0915,-0.2646,-0.1758,0.1497,-0.4235,0.0096,3014,2019-08-07 16:50:20:217
-5.8211,-7.1074,1.5367,-0.672,-0.1211,0.0054,0.1497,-0.4235,0.0096,3018,2019-08-07 16:50:20:221
-5.8211,-7.1074,1.5367,-0.672,-0.1211,0.0054,0.1391,-0.3223,0.0064,3024,2019-08-07 16:50:20:227
-5.4192,-7.2363,1.3953,-0.672,-0.1211,0.0054,0.1391,-0.3223,0.0064,3028,2019-08-07 16:50:20:231
-5.4192,-7.2363,1.3953,-0.9793,-0.0952,0.2232,0.1391,-0.3223,0.0064,3034,2019-08-07 16:50:20:237
-5.4096,-7.1885,1.4235,-0.9793,-0.0952,0.2232,0.1327,-0.1646,-0.001,3039,2019-08-07 16:50:20:242
-5.4096,-7.1885,1.4235,-0.9793,-0.0952,0.2232,0.1327,-0.1646,-0.001,3044,2019-08-07 16:50:20:247
-5.4096,-7.1885,1.4235,-0.9793,-0.0952,0.2232,0.1327,-0.04,-0.0085,3049,2019-08-07 16:50:20:252
-5.5675,-7.0358,1.5697,-0.9793,-0.0952,0.2232,0.1327,-0.04,-0.0085,3054,2019-08-07 16:50:20:257
-5.5675,-7.0358,1.5697,-0.6472,-0.3185,0.0799,0.1348,0.0548,-0.0106,3059,2019-08-07 16:50:20:262
-5.5675,-7.0358,1.5697,-0.6472,-0.3185,0.0799,0.1348,0.0548,-0.0106,3064,2019-08-07 16:50:20:267
-5.9311,-6.8687,1.631,-0.4076,-0.4319,0.0295,0.1348,0.0548,-0.0106,3069,2019-08-07 16:50:20:272
-5.9311,-6.8687,1.631,-0.4076,-0.4319,0.0295,0.1146,0.0985,-0.0117,3074,2019-08-07 16:50:20:277
-5.9311,-6.8687,1.631,-0.4076,-0.4319,0.0295,0.1146,0.0985,-0.0117,3078,2019-08-07 16:50:20:281
-6.2038,-6.7589,1.7865,-0.4076,-0.4319,0.0295,0.1007,0.0633,-0.0064,3084,2019-08-07 16:50:20:287
-6.2038,-6.7589,1.7865,-0.0991,-0.5236,-0.2037,0.1007,0.0633,-0.0064,3088,2019-08-07 16:50:20:291
-6.2708,-6.7541,1.8478,-0.0991,-0.5236,-0.2037,0.0826,0.0037,-0.001,3094,2019-08-07 16:50:20:297
-6.2708,-6.7541,1.8478,-0.0991,-0.5236,-0.2037,0.0826,0.0037,-0.001,3099,2019-08-07 16:50:20:302
-6.2708,-6.7541,1.8478,-0.0991,-0.5236,-0.2037,0.0741,-0.0453,0.0064,3103,2019-08-07 16:50:20:306
-6.0986,-6.7207,1.8336,-0.2444,-0.5712,-0.151,0.0741,-0.0453,0.0064,3109,2019-08-07 16:50:20:312
-6.0986,-6.7207,1.8336,-0.2444,-0.5712,-0.151,0.0517,-0.1071,0.016,3114,2019-08-07 16:50:20:317
-5.8833,-6.7589,1.7441,-0.2444,-0.5712,-0.151,0.0517,-0.1071,0.016,3119,2019-08-07 16:50:20:322
-5.8833,-6.7589,1.7441,-0.2444,-0.5712,-0.151,0.0347,-0.1295,0.0235,3124,2019-08-07 16:50:20:327
-5.8833,-6.7589,1.7441,-0.5639,-0.5143,0.0131,0.0347,-0.1295,0.0235,3129,2019-08-07 16:50:20:332
-5.7158,-6.8448,1.6828,-0.5639,-0.5143,0.0131,0.0134,-0.1338,0.0405,3133,2019-08-07 16:50:20:336
-5.7158,-6.8448,1.6828,-0.5639,-0.5143,0.0131,0.0134,-0.1338,0.0405,3139,2019-08-07 16:50:20:342
-5.5388,-6.8591,1.6687,-0.5639,-0.5143,0.0131,-0.0016,-0.1156,0.0607,3144,2019-08-07 16:50:20:347
-5.5388,-6.8591,1.6687,-0.765,-0.4381,0.0745,-0.0016,-0.1156,0.0607,3148,2019-08-07 16:50:20:351
-5.5388,-6.8591,1.6687,-0.765,-0.4381,0.0745,-0.0016,-0.1156,0.0607,3154,2019-08-07 16:50:20:357
-5.5388,-6.8591,1.6687,-0.765,-0.4381,0.0745,-0.0143,-0.0848,0.0895,3158,2019-08-07 16:50:20:361
-5.4862,-6.8544,1.565,-0.765,-0.4381,0.0745,-0.0143,-0.0848,0.0895,3164,2019-08-07 16:50:20:367
-5.4862,-6.8544,1.565,-0.8919,-0.4487,0.2155,-0.0239,-0.0304,0.1151,3169,2019-08-07 16:50:20:372
-5.4862,-6.8973,1.4942,-0.8919,-0.4487,0.2155,-0.0239,-0.0304,0.1151,3173,2019-08-07 16:50:20:376
-5.4862,-6.8973,1.4942,-0.8919,-0.4487,0.2155,-0.0271,0.0314,0.1332,3179,2019-08-07 16:50:20:382
-5.4862,-6.8973,1.4942,-0.8919,-0.4487,0.2155,-0.0271,0.0314,0.1332,3183,2019-08-07 16:50:20:386
-5.5867,-6.8448,1.4942,-0.7183,-0.4778,0.1985,-0.0186,0.0921,0.146,3189,2019-08-07 16:50:20:392
-5.5867,-6.8448,1.4942,-0.7183,-0.4778,0.1985,-0.0186,0.0921,0.146,3193,2019-08-07 16:50:20:396
-5.8402,-6.7398,1.532,-0.7183,-0.4778,0.1985,-0.0154,0.1635,0.1545,3199,2019-08-07 16:50:20:402
-5.8402,-6.7398,1.532,-0.7183,-0.4778,0.1985,-0.0154,0.1635,0.1545,3204,2019-08-07 16:50:20:407
-6.2421,-6.7016,1.6262,-0.2053,-0.5401,0.1053,-0.0175,0.2039,0.1492,3210,2019-08-07 16:50:20:413
-6.2421,-6.7016,1.6262,-0.2053,-0.5401,0.1053,-0.0175,0.2039,0.1492,3214,2019-08-07 16:50:20:417
-6.2421,-6.7016,1.6262,-0.2053,-0.5401,0.1053,-0.0303,0.1869,0.1417,3219,2019-08-07 16:50:20:422
-6.7732,-6.6968,1.6168,-0.2053,-0.5401,0.1053,-0.0303,0.1869,0.1417,3224,2019-08-07 16:50:20:427
-6.7732,-6.6968,1.6168,0.4869,-0.558,-0.0309,-0.0452,0.1081,0.1353,3229,2019-08-07 16:50:20:432
-6.7732,-6.7923,1.6545,0.4869,-0.558,-0.0309,-0.0452,0.1081,0.1353,3234,2019-08-07 16:50:20:437
-6.9215,-6.7923,1.6545,0.4869,-0.558,-0.0309,-0.0474,-0.0049,0.1257,3238,2019-08-07 16:50:20:441
-6.9215,-6.7923,1.6545,0.4869,-0.558,-0.0309,-0.0474,-0.0049,0.1257,3244,2019-08-07 16:50:20:447
-6.8258,-6.8544,1.5555,0.3781,-0.3488,0.1112,-0.041,-0.0954,0.1129,3248,2019-08-07 16:50:20:451
-6.8258,-6.8544,1.5555,0.3781,-0.3488,0.1112,-0.041,-0.0954,0.1129,3254,2019-08-07 16:50:20:457
-6.8258,-6.8544,1.5555,0.3781,-0.3488,0.1112,-0.041,-0.0954,0.1129,3258,2019-08-07 16:50:20:461
-6.577,-6.9785,1.3623,0.3781,-0.3488,0.1112,-0.0271,-0.138,0.098,3264,2019-08-07 16:50:20:467
-6.577,-6.9785,1.3623,0.017,-0.135,0.3485,-0.0271,-0.138,0.098,3268,2019-08-07 16:50:20:471
-6.577,-6.9785,1.3623,0.017,-0.135,0.3485,-0.0101,-0.1274,0.081,3274,2019-08-07 16:50:20:477
-6.3283,-7.1265,1.3811,0.017,-0.135,0.3485,-0.0101,-0.1274,0.081,3279,2019-08-07 16:50:20:482
-6.3283,-7.1265,1.3811,0.017,-0.135,0.3485,0.008,-0.0911,0.0597,3283,2019-08-07 16:50:20:486
-6.3283,-7.1265,1.3811,-0.0755,-0.0025,0.2235,0.008,-0.0911,0.0597,3289,2019-08-07 16:50:20:492
-6.4574,-7.1265,1.4895,-0.0755,-0.0025,0.2235,0.0261,-0.0613,0.0416,3294,2019-08-07 16:50:20:497
-6.4574,-7.1265,1.4895,-0.0755,-0.0025,0.2235,0.0261,-0.0613,0.0416,3299,2019-08-07 16:50:20:502
-6.4383,-7.1312,1.5649,-0.0755,-0.0025,0.2235,0.04,-0.0698,0.032,3304,2019-08-07 16:50:20:507
-6.4383,-7.1312,1.5649,-0.0755,-0.0025,0.2235,0.04,-0.0698,0.032,3308,2019-08-07 16:50:20:511
-6.4383,-7.1312,1.5649,-0.0167,-0.0443,0.0282,0.0453,-0.1018,0.0235,3313,2019-08-07 16:50:20:516
-6.4527,-7.0644,1.6215,-0.0167,-0.0443,0.0282,0.0453,-0.1018,0.0235,3319,2019-08-07 16:50:20:522
-6.4527,-7.0644,1.6215,-0.0167,-0.0443,0.0282,0.0528,-0.1156,0.0149,3323,2019-08-07 16:50:20:526
-6.4,-7.0835,1.8053,-0.0688,-0.0876,-0.083,0.0528,-0.1156,0.0149,3329,2019-08-07 16:50:20:532
-6.4,-7.0835,1.8053,-0.0688,-0.0876,-0.083,0.056,-0.1519,0.0107,3333,2019-08-07 16:50:20:536
-6.4,-7.0835,1.8053,-0.0688,-0.0876,-0.083,0.056,-0.1519,0.0107,3339,2019-08-07 16:50:20:542
-6.247,-7.0214,1.6734,-0.0688,-0.0876,-0.083,0.056,-0.1519,0.0107,3343,2019-08-07 16:50:20:546
-6.247,-7.0214,1.6734,-0.2506,-0.1517,0.0779,0.0496,-0.1753,0.0043,3349,2019-08-07 16:50:20:552
-6.2661,-7.031,1.6969,-0.2506,-0.1517,0.0779,0.0496,-0.1753,0.0043,3354,2019-08-07 16:50:20:557
-6.2661,-7.031,1.6969,-0.2506,-0.1517,0.0779,0.0421,-0.1785,-0.0032,3358,2019-08-07 16:50:20:561
-6.2661,-7.031,1.6969,-0.2506,-0.1517,0.0779,0.0421,-0.1785,-0.0032,3363,2019-08-07 16:50:20:566
-6.1321,-7.0453,1.6451,-0.3199,-0.1558,0.1306,0.0411,-0.17,-0.0064,3369,2019-08-07 16:50:20:572
-6.1321,-7.0453,1.6451,-0.3199,-0.1558,0.1306,0.0411,-0.17,-0.0064,3374,2019-08-07 16:50:20:577
-6.1321,-7.0453,1.6451,-0.3199,-0.1558,0.1306,0.0453,-0.1604,-0.0096,3379,2019-08-07 16:50:20:582
-6.0556,-7.0549,1.5319,-0.3199,-0.1558,0.1306,0.0453,-0.1604,-0.0096,3383,2019-08-07 16:50:20:586
-6.0556,-7.0549,1.5319,-0.5077,-0.0757,0.2744,0.0506,-0.1338,-0.0202,3389,2019-08-07 16:50:20:592
-5.9073,-7.0978,1.4754,-0.5077,-0.0757,0.2744,0.0506,-0.1338,-0.0202,3394,2019-08-07 16:50:20:597
-5.9073,-7.0978,1.4754,-0.5077,-0.0757,0.2744,0.0506,-0.1338,-0.0202,3399,2019-08-07 16:50:20:602
-5.9073,-7.0978,1.4754,-0.5077,-0.0757,0.2744,0.0581,-0.0848,-0.0234,3404,2019-08-07 16:50:20:607
-5.7685,-7.0835,1.4424,-0.5077,-0.0757,0.2744,0.0581,-0.0848,-0.0234,3409,2019-08-07 16:50:20:612
-5.7685,-7.0835,1.4424,-0.7238,-0.0647,0.3772,0.0751,-0.0102,-0.0234,3413,2019-08-07 16:50:20:616
-5.7685,-7.0835,1.4424,-0.7238,-0.0647,0.3772,0.0751,-0.0102,-0.0234,3419,2019-08-07 16:50:20:622
-5.7829,-7.0549,1.4895,-0.7238,-0.0647,0.3772,0.0922,0.0718,-0.0138,3423,2019-08-07 16:50:20:626
-5.7829,-7.0549,1.4895,-0.7238,-0.0647,0.3772,0.0922,0.0718,-0.0138,3429,2019-08-07 16:50:20:632
-5.9073,-6.9355,1.5932,-0.5484,-0.1904,0.2783,0.0996,0.1017,-0.001,3434,2019-08-07 16:50:20:637
-5.9073,-6.9355,1.5932,-0.5484,-0.1904,0.2783,0.0996,0.1017,-0.001,3439,2019-08-07 16:50:20:642
-5.9073,-6.9355,1.5932,-0.5484,-0.1904,0.2783,0.0996,0.1049,0.0139,3444,2019-08-07 16:50:20:647
-6.1178,-6.8782,1.6404,-0.5484,-0.1904,0.2783,0.0996,0.1049,0.0139,3449,2019-08-07 16:50:20:652
-6.1178,-6.8782,1.6404,-0.2755,-0.2866,0.1322,0.0996,0.1049,0.0139,3453,2019-08-07 16:50:20:656
-6.2422,-6.883,1.7912,-0.2755,-0.2866,0.1322,0.0869,0.074,0.0352,3459,2019-08-07 16:50:20:662
-6.2422,-6.883,1.7912,-0.2755,-0.2866,0.1322,0.0869,0.074,0.0352,3464,2019-08-07 16:50:20:667
-6.2422,-6.883,1.7912,-0.2755,-0.2866,0.1322,0.0847,0.0356,0.048,3469,2019-08-07 16:50:20:672
-6.3235,-6.8162,1.7629,-0.1259,-0.3446,0.0714,0.0847,0.0356,0.048,3474,2019-08-07 16:50:20:677
-6.3235,-6.8162,1.7629,-0.1259,-0.3446,0.0714,0.0762,0.0111,0.0544,3479,2019-08-07 16:50:20:682
-6.247,-6.8257,1.7158,-0.1259,-0.3446,0.0714,0.0762,0.0111,0.0544,3483,2019-08-07 16:50:20:686
-6.247,-6.8257,1.7158,-0.1259,-0.3446,0.0714,0.0592,0.0047,0.0501,3489,2019-08-07 16:50:20:692
-6.247,-6.8257,1.7158,-0.2156,-0.3539,0.1366,0.0592,0.0047,0.0501,3494,2019-08-07 16:50:20:697
-6.2853,-6.7732,1.7252,-0.2156,-0.3539,0.1366,0.0432,0.0079,0.0458,3498,2019-08-07 16:50:20:701
-6.2853,-6.7732,1.7252,-0.2156,-0.3539,0.1366,0.0432,0.0079,0.0458,3503,2019-08-07 16:50:20:706
-6.2853,-6.7732,1.7252,-0.2156,-0.3539,0.1366,0.0432,0.0079,0.0458,3509,2019-08-07 16:50:20:712
-6.3044,-6.6777,1.6262,-0.1324,-0.4652,0.1689,0.0347,0.0303,0.0373,3514,2019-08-07 16:50:20:717
-6.3044,-6.6777,1.6262,-0.1324,-0.4652,0.1689,0.0347,0.0303,0.0373,3519,2019-08-07 16:50:20:722
-6.4192,-6.5393,1.6969,-0.1324,-0.4652,0.1689,0.0261,0.058,0.0203,3524,2019-08-07 16:50:20:727
-6.4192,-6.5393,1.6969,-0.1324,-0.4652,0.1689,0.0261,0.058,0.0203,3528,2019-08-07 16:50:20:731
-6.4527,-6.4199,1.8289,-0.0299,-0.7218,5.0E-4,0.0187,0.0612,0.0096,3534,2019-08-07 16:50:20:737
-6.4527,-6.4199,1.8289,-0.0299,-0.7218,5.0E-4,0.0187,0.0612,0.0096,3538,2019-08-07 16:50:20:741
-6.4527,-6.4199,1.8289,-0.0299,-0.7218,5.0E-4,0.0091,0.0324,-0.0042,3544,2019-08-07 16:50:20:747
-6.5867,-6.2481,1.8053,-0.0299,-0.7218,5.0E-4,0.0091,0.0324,-0.0042,3549,2019-08-07 16:50:20:752
-6.5867,-6.2481,1.8053,0.1275,-0.8945,-0.0544,0.0091,0.0324,-0.0042,3553,2019-08-07 16:50:20:756
-6.5867,-6.2481,1.8053,0.1275,-0.8945,-0.0544,-0.0122,-0.0144,-0.0053,3559,2019-08-07 16:50:20:762
-6.5006,-6.2624,1.8666,0.1275,-0.8945,-0.0544,-0.0271,-0.0645,-0.0053,3564,2019-08-07 16:50:20:767
-6.5006,-6.2624,1.8666,0.1275,-0.8945,-0.0544,-0.0271,-0.0645,-0.0053,3569,2019-08-07 16:50:20:772
-6.5006,-6.2624,1.8666,-0.1892,-0.778,0.0626,-0.0271,-0.0645,-0.0053,3573,2019-08-07 16:50:20:776
-6.2949,-6.3483,1.6875,-0.1892,-0.778,0.0626,-0.0388,-0.0848,0.0,3579,2019-08-07 16:50:20:782
-6.2949,-6.3483,1.6875,-0.1892,-0.778,0.0626,-0.0388,-0.0848,0.0,3583,2019-08-07 16:50:20:786
-6.204,-6.5059,1.7723,-0.1892,-0.778,0.0626,-0.0495,-0.089,0.0117,3589,2019-08-07 16:50:20:792
-6.204,-6.5059,1.7723,-0.4373,-0.5624,0.0398,-0.0495,-0.089,0.0117,3594,2019-08-07 16:50:20:797
-6.204,-6.5059,1.7723,-0.4373,-0.5624,0.0398,-0.0516,-0.0794,0.0309,3598,2019-08-07 16:50:20:801
-6.0269,-6.6443,1.8053,-0.4373,-0.5624,0.0398,-0.0516,-0.0794,0.0309,3604,2019-08-07 16:50:20:807
-6.0269,-6.6443,1.8053,-0.4373,-0.5624,0.0398,-0.042,-0.0571,0.0352,3608,2019-08-07 16:50:20:811
-6.0174,-6.735,1.7535,-0.4627,-0.3933,0.0991,-0.042,-0.0571,0.0352,3613,2019-08-07 16:50:20:816
-6.0174,-6.735,1.7535,-0.4627,-0.3933,0.0991,-0.0431,-0.0411,0.0469,3619,2019-08-07 16:50:20:822
-6.0174,-6.735,1.7535,-0.4627,-0.3933,0.0991,-0.0431,-0.0411,0.0469,3623,2019-08-07 16:50:20:826
-6.0317,-6.8114,1.7676,-0.4627,-0.3933,0.0991,-0.0506,-0.0358,0.0512,3629,2019-08-07 16:50:20:832
-6.0317,-6.8114,1.7676,-0.4481,-0.232,0.1163,-0.0506,-0.0358,0.0512,3634,2019-08-07 16:50:20:837
-6.027,-6.8591,1.7299,-0.4481,-0.232,0.1163,-0.0506,-0.0358,0.0512,3639,2019-08-07 16:50:20:842
-6.027,-6.8591,1.7299,-0.4481,-0.232,0.1163,-0.0495,-0.0144,0.0458,3644,2019-08-07 16:50:20:847
-6.027,-6.8591,1.7299,-0.4481,-0.232,0.1163,-0.0495,-0.0144,0.0458,3649,2019-08-07 16:50:20:852
-6.1705,-6.883,1.7205,-0.3341,-0.2571,0.1998,-0.0484,0.0058,0.0448,3654,2019-08-07 16:50:20:857
-6.1705,-6.883,1.7205,-0.3341,-0.2571,0.1998,-0.0484,0.0058,0.0448,3660,2019-08-07 16:50:20:863
-6.1179,-6.9403,1.6545,-0.3758,-0.1788,0.186,-0.0452,0.0133,0.049,3664,2019-08-07 16:50:20:867
-6.1179,-6.9403,1.6545,-0.3758,-0.1788,0.186,-0.0452,0.0133,0.049,3669,2019-08-07 16:50:20:872
-6.1179,-6.9403,1.6545,-0.3758,-0.1788,0.186,-0.0399,0.0399,0.0384,3673,2019-08-07 16:50:20:876
-6.2518,-6.8878,1.6733,-0.3758,-0.1788,0.186,-0.0399,0.0399,0.0384,3679,2019-08-07 16:50:20:882
-6.2518,-6.8878,1.6733,-0.201,-0.2517,0.1605,-0.0431,0.0559,0.0352,3683,2019-08-07 16:50:20:886
-6.2518,-6.8878,1.6733,-0.201,-0.2517,0.1605,-0.0431,0.0559,0.0352,3689,2019-08-07 16:50:20:892
-6.3045,-6.9403,1.6403,-0.201,-0.2517,0.1605,-0.0431,0.058,0.0362,3694,2019-08-07 16:50:20:897
-6.3045,-6.9403,1.6403,-0.201,-0.2517,0.1605,-0.0431,0.058,0.0362,3699,2019-08-07 16:50:20:902
-6.3045,-6.9403,1.6403,-0.1749,-0.1533,0.0985,-0.0431,0.058,0.0362,3703,2019-08-07 16:50:20:906
-6.3427,-7.0119,1.7393,-0.1749,-0.1533,0.0985,-0.0378,0.0452,0.033,3709,2019-08-07 16:50:20:912
-6.3427,-7.0119,1.7393,-0.1749,-0.1533,0.0985,-0.0378,0.0452,0.033,3713,2019-08-07 16:50:20:916
-6.3954,-7.0071,1.7111,-0.1749,-0.1533,0.0985,-0.0207,0.0122,0.0394,3719,2019-08-07 16:50:20:922
-6.3954,-7.0071,1.7111,-0.1045,-0.1113,0.091,-0.0207,0.0122,0.0394,3723,2019-08-07 16:50:20:926
-6.3954,-7.0071,1.7111,-0.1045,-0.1113,0.091,-0.0069,-0.023,0.0394,3729,2019-08-07 16:50:20:932
-6.3523,-6.9498,1.7111,-0.1045,-0.1113,0.091,-0.0069,-0.023,0.0394,3733,2019-08-07 16:50:20:936
-6.3523,-6.9498,1.7111,-0.1045,-0.1113,0.091,-0.0058,-0.056,0.0373,3739,2019-08-07 16:50:20:942
-6.3523,-6.9498,1.7111,-0.1045,-0.1113,0.091,-0.0058,-0.056,0.0373,3744,2019-08-07 16:50:20:947
-6.3906,-6.8878,1.711,-0.1279,-0.2163,0.0995,-0.009,-0.073,0.0373,3749,2019-08-07 16:50:20:952
-6.3906,-6.8878,1.711,-0.1279,-0.2163,0.0995,-0.009,-0.073,0.0373,3754,2019-08-07 16:50:20:957
-6.1322,-7.0023,1.4235,-0.1279,-0.2163,0.0995,-0.009,-0.073,0.0373,3758,2019-08-07 16:50:20:961
-6.1322,-7.0023,1.4235,-0.2778,-0.1132,0.7367,-0.0303,-0.0965,0.0299,3764,2019-08-07 16:50:20:967
-6.1322,-7.0023,1.4235,-0.2778,-0.1132,0.7367,-0.0303,-0.0965,0.0299,3769,2019-08-07 16:50:20:972
-6.2327,-6.8925,1.6215,-0.2778,-0.1132,0.7367,-0.0857,-0.0485,0.0032,3774,2019-08-07 16:50:20:977
-6.2327,-6.8925,1.6215,-0.0379,-0.2717,-0.0145,-0.0857,-0.0485,0.0032,3778,2019-08-07 16:50:20:981
-6.3571,-6.9594,1.8807,-0.0379,-0.2717,-0.0145,-0.0111,-0.0134,0.0245,3784,2019-08-07 16:50:20:987
-6.3571,-6.9594,1.8807,-0.0379,-0.2717,-0.0145,-0.0111,-0.0134,0.0245,3788,2019-08-07 16:50:20:991
-6.3571,-6.9594,1.8807,-0.0379,-0.2717,-0.0145,0.0506,0.025,0.016,3794,2019-08-07 16:50:20:997
-6.1466,-6.9451,1.6403,-0.3754,-0.1545,0.1751,0.0506,0.025,0.016,3798,2019-08-07 16:50:21:001
-6.1466,-6.9451,1.6403,-0.3754,-0.1545,0.1751,0.0538,0.0836,-0.001,3804,2019-08-07 16:50:21:007
-6.1466,-6.9451,1.6403,-0.3754,-0.1545,0.1751,0.0538,0.0836,-0.001,3808,2019-08-07 16:50:21:011
-6.3332,-6.8162,1.5319,-0.3754,-0.1545,0.1751,0.008,0.09,0.0043,3814,2019-08-07 16:50:21:017
-6.3332,-6.8162,1.5319,-0.1493,-0.3488,0.1302,0.008,0.09,0.0043,3819,2019-08-07 16:50:21:022
-6.515,-6.6873,1.8477,-0.1493,-0.3488,0.1302,-0.0175,0.0697,-0.0149,3824,2019-08-07 16:50:21:027
-6.515,-6.6873,1.8477,-0.1493,-0.3488,0.1302,-0.0175,0.0697,-0.0149,3829,2019-08-07 16:50:21:032
-6.515,-6.6873,1.8477,-0.1493,-0.3488,0.1302,-0.0037,0.0175,-0.017,3833,2019-08-07 16:50:21:036
-6.5389,-6.6634,1.8666,0.0121,-0.4353,-0.0653,-0.0037,0.0175,-0.017,3839,2019-08-07 16:50:21:042
-6.5389,-6.6634,1.8666,0.0121,-0.4353,-0.0653,-0.0016,-0.0464,-0.001,3844,2019-08-07 16:50:21:047
-6.2423,-6.6491,1.7676,0.0121,-0.4353,-0.0653,-0.0016,-0.0464,-0.001,3849,2019-08-07 16:50:21:052
-6.2423,-6.6491,1.7676,0.0121,-0.4353,-0.0653,-0.0165,-0.0666,0.0032,3854,2019-08-07 16:50:21:057
-6.2423,-6.6491,1.7676,-0.3692,-0.4446,0.0587,-0.0165,-0.0666,0.0032,3859,2019-08-07 16:50:21:062
-6.2423,-6.6491,1.7676,-0.3692,-0.4446,0.0587,-0.0165,-0.0666,0.0032,3864,2019-08-07 16:50:21:067
-6.2423,-6.6491,1.7676,-0.3692,-0.4446,0.0587,-0.0165,-0.0666,0.0032,3869,2019-08-07 16:50:21:072
-6.2423,-6.6491,1.7676,-0.3692,-0.4446,0.0587,-0.0165,-0.0666,0.0032,3873,2019-08-07 16:50:21:076
-6.1084,-6.5966,1.7723,-0.4502,-0.4873,0.1365,-0.0271,-0.0592,0.0107,3879,2019-08-07 16:50:21:082
-6.1084,-6.5966,1.7723,-0.4502,-0.4873,0.1365,-0.0271,-0.0592,0.0107,3884,2019-08-07 16:50:21:087
-6.0414,-6.6682,1.6639,-0.4502,-0.4873,0.1365,-0.041,-0.0081,0.0394,3889,2019-08-07 16:50:21:092
-6.0414,-6.6682,1.6639,-0.4502,-0.4873,0.1365,-0.041,-0.0081,0.0394,3894,2019-08-07 16:50:21:097
-6.0414,-6.6682,1.6639,-0.5082,-0.383,0.1185,-0.0495,0.0186,0.048,3899,2019-08-07 16:50:21:102
-6.0414,-6.692,1.6498,-0.5082,-0.383,0.1185,-0.0495,0.0186,0.048,3903,2019-08-07 16:50:21:106
-6.0414,-6.692,1.6498,-0.5082,-0.383,0.1185,-0.058,0.0399,0.0607,3909,2019-08-07 16:50:21:112
-6.1275,-6.7111,1.6686,-0.5082,-0.383,0.1185,-0.058,0.0399,0.0607,3914,2019-08-07 16:50:21:117
-6.1275,-6.7111,1.6686,-0.3644,-0.3732,0.1943,-0.0665,0.0729,0.0639,3918,2019-08-07 16:50:21:121
-6.1275,-6.7111,1.6686,-0.3644,-0.3732,0.1943,-0.0665,0.0729,0.0639,3924,2019-08-07 16:50:21:127
-6.2997,-6.692,1.6686,-0.3644,-0.3732,0.1943,-0.0814,0.0889,0.0618,3929,2019-08-07 16:50:21:132
-6.2997,-6.692,1.6686,-0.3644,-0.3732,0.1943,-0.0814,0.0889,0.0618,3934,2019-08-07 16:50:21:137
-6.2997,-6.692,1.6686,-0.2097,-0.3434,0.1337,-0.0814,0.0889,0.0618,3939,2019-08-07 16:50:21:142
-6.4098,-6.7302,1.6356,-0.2097,-0.3434,0.1337,-0.0953,0.0825,0.065,3944,2019-08-07 16:50:21:147
-6.4098,-6.7302,1.6356,-0.2097,-0.3434,0.1337,-0.0953,0.0825,0.065,3949,2019-08-07 16:50:21:152
-6.4959,-6.8353,1.6215,-0.2097,-0.3434,0.1337,-0.1038,0.0708,0.0575,3953,2019-08-07 16:50:21:156
-6.4959,-6.8353,1.6215,-0.0784,-0.257,0.123,-0.1038,0.0708,0.0575,3959,2019-08-07 16:50:21:162
-6.4959,-6.8353,1.6215,-0.0784,-0.257,0.123,-0.1049,0.0601,0.0544,3963,2019-08-07 16:50:21:166
-6.5198,-6.8353,1.6026,-0.0784,-0.257,0.123,-0.1049,0.0601,0.0544,3969,2019-08-07 16:50:21:172
-6.5198,-6.8353,1.6026,-0.0784,-0.257,0.123,-0.0974,0.0484,0.0469,3973,2019-08-07 16:50:21:176
-6.5386,-6.7732,1.6357,-0.0359,-0.3011,0.0866,-0.0974,0.0484,0.0469,3979,2019-08-07 16:50:21:182
-6.5386,-6.7732,1.6357,-0.0359,-0.3011,0.0866,-0.0953,0.0292,0.0373,3984,2019-08-07 16:50:21:187
-6.5386,-6.7732,1.6357,-0.0359,-0.3011,0.0866,-0.0953,0.0292,0.0373,3988,2019-08-07 16:50:21:191
-6.5147,-6.7494,1.6734,-0.0359,-0.3011,0.0866,-0.0836,0.009,0.0373,3994,2019-08-07 16:50:21:197
-6.5147,-6.7494,1.6734,-0.0331,-0.2076,0.0435,-0.0836,0.009,0.0373,3998,2019-08-07 16:50:21:201
-6.4764,-6.7828,1.6357,-0.0331,-0.2076,0.0435,-0.0761,-0.0198,0.0405,4004,2019-08-07 16:50:21:207
-6.4764,-6.7828,1.6357,-0.0331,-0.2076,0.0435,-0.0761,-0.0198,0.0405,4009,2019-08-07 16:50:21:212
-6.4764,-6.7828,1.6357,-0.079,-0.2585,0.049,-0.0676,-0.0411,0.0405,4014,2019-08-07 16:50:21:217
-6.4046,-6.8019,1.6687,-0.079,-0.2585,0.049,-0.0676,-0.0411,0.0405,4019,2019-08-07 16:50:21:222
-6.4046,-6.8019,1.6687,-0.079,-0.2585,0.049,-0.0516,-0.0698,0.032,4024,2019-08-07 16:50:21:227
-6.3185,-6.8066,1.5744,-0.2688,-0.2604,0.1289,-0.0516,-0.0698,0.032,4029,2019-08-07 16:50:21:232
-6.3185,-6.8066,1.5744,-0.2688,-0.2604,0.1289,-0.0442,-0.0879,0.0341,4034,2019-08-07 16:50:21:237
-6.3185,-6.8066,1.5744,-0.2688,-0.2604,0.1289,-0.0442,-0.0879,0.0341,4038,2019-08-07 16:50:21:241
-6.1702,-6.8257,1.5556,-0.2688,-0.2604,0.1289,-0.0388,-0.0933,0.0394,4044,2019-08-07 16:50:21:247
-6.1702,-6.8257,1.5556,-0.4806,-0.1957,0.2194,-0.0388,-0.0933,0.0394,4049,2019-08-07 16:50:21:252
-6.0936,-6.8735,1.4613,-0.4806,-0.1957,0.2194,-0.0356,-0.0677,0.0426,4054,2019-08-07 16:50:21:257
-6.0936,-6.8735,1.4613,-0.4806,-0.1957,0.2194,-0.0356,-0.0677,0.0426,4060,2019-08-07 16:50:21:263
-6.0936,-6.8735,1.4613,-0.4806,-0.1957,0.2194,-0.0324,-0.0294,0.0394,4064,2019-08-07 16:50:21:267
-6.1223,-6.9021,1.4943,-0.4311,-0.1785,0.2097,-0.0324,-0.0294,0.0394,4068,2019-08-07 16:50:21:271
-6.1223,-6.9021,1.4943,-0.4311,-0.1785,0.2097,-0.0335,0.0047,0.0373,4074,2019-08-07 16:50:21:277
-6.1223,-6.9021,1.4943,-0.4311,-0.1785,0.2097,-0.0335,0.0047,0.0373,4078,2019-08-07 16:50:21:281
-6.2659,-6.8162,1.6121,-0.4311,-0.1785,0.2097,-0.0346,0.025,0.0373,4084,2019-08-07 16:50:21:287
-6.2659,-6.8162,1.6121,-0.2502,-0.2323,0.094,-0.0346,0.025,0.0373,4088,2019-08-07 16:50:21:291
-6.3759,-6.8353,1.5744,-0.2502,-0.2323,0.094,-0.0367,0.0282,0.0331,4094,2019-08-07 16:50:21:297
-6.3759,-6.8353,1.5744,-0.2502,-0.2323,0.094,-0.0367,0.0282,0.0331,4098,2019-08-07 16:50:21:301
-6.4812,-6.7589,1.6216,-0.2502,-0.2323,0.094,-0.0463,0.0228,0.0192,4104,2019-08-07 16:50:21:307
-6.4812,-6.7589,1.6216,-0.2502,-0.2323,0.094,-0.0463,0.0228,0.0192,4108,2019-08-07 16:50:21:311
-6.4812,-6.7589,1.6216,-0.0927,-0.3158,0.07,-0.0463,0.0228,0.0192,4114,2019-08-07 16:50:21:317
-6.5099,-6.7732,1.6451,-0.0927,-0.3158,0.07,-0.0442,0.0058,0.0064,4119,2019-08-07 16:50:21:322
-6.5099,-6.7732,1.6451,-0.0927,-0.3158,0.07,-0.0442,0.0058,0.0064,4124,2019-08-07 16:50:21:327
-6.5099,-6.7732,1.6451,-0.0927,-0.3158,0.07,-0.0463,-0.0123,-0.0053,4129,2019-08-07 16:50:21:332
-6.4572,-6.7971,1.5744,-0.1462,-0.2592,0.1109,-0.0463,-0.0123,-0.0053,4133,2019-08-07 16:50:21:336
-6.4572,-6.7971,1.5744,-0.1462,-0.2592,0.1109,-0.0463,-0.0176,-0.0106,4139,2019-08-07 16:50:21:342
-6.4046,-6.8448,1.499,-0.1462,-0.2592,0.1109,-0.0463,-0.0176,-0.0106,4144,2019-08-07 16:50:21:347
-6.4046,-6.8448,1.499,-0.1462,-0.2592,0.1109,-0.0463,-0.0102,-0.0117,4149,2019-08-07 16:50:21:352
-6.4046,-6.8448,1.499,-0.2065,-0.2289,0.1993,-0.0463,-0.0102,-0.0117,4153,2019-08-07 16:50:21:356
-6.395,-6.8305,1.4754,-0.2065,-0.2289,0.1993,-0.0442,0.0037,-0.0128,4159,2019-08-07 16:50:21:362
-6.395,-6.8305,1.4754,-0.2065,-0.2289,0.1993,-0.0442,0.0037,-0.0128,4164,2019-08-07 16:50:21:367
-6.395,-6.8305,1.4754,-0.2065,-0.2289,0.1993,-0.0442,0.0037,-0.0128,4169,2019-08-07 16:50:21:372
-6.4046,-6.8019,1.4849,-0.1952,-0.2609,0.1869,-0.0335,0.0154,-0.0096,4174,2019-08-07 16:50:21:377
-6.4046,-6.8019,1.4849,-0.1952,-0.2609,0.1869,-0.0335,0.0154,-0.0096,4179,2019-08-07 16:50:21:382
-6.3711,-6.821,1.466,-0.1952,-0.2609,0.1869,-0.0239,0.025,-0.0117,4184,2019-08-07 16:50:21:387
-6.3711,-6.821,1.466,-0.1952,-0.2609,0.1869,-0.0239,0.025,-0.0117,4189,2019-08-07 16:50:21:392
-6.3711,-6.821,1.466,-0.3621,-0.3015,0.1508,-0.0079,0.0356,-0.0085,4194,2019-08-07 16:50:21:397
-6.2515,-6.8019,1.4707,-0.3621,-0.3015,0.1508,-0.0079,0.0356,-0.0085,4199,2019-08-07 16:50:21:402
-6.2515,-6.8019,1.4707,-0.3621,-0.3015,0.1508,6.0E-4,0.0537,-0.0117,4204,2019-08-07 16:50:21:407
-6.3472,-6.6778,1.4519,-0.3621,-0.3015,0.1508,6.0E-4,0.0537,-0.0117,4210,2019-08-07 16:50:21:413
-6.3472,-6.6778,1.4519,-0.1998,-0.4367,0.1716,-0.0037,0.058,0.0011,4214,2019-08-07 16:50:21:417
-6.3472,-6.6778,1.4519,-0.1998,-0.4367,0.1716,-0.0037,0.058,0.0011,4219,2019-08-07 16:50:21:422
-6.2324,-6.7016,1.4377,-0.1998,-0.4367,0.1716,-0.0143,0.0314,-0.0032,4224,2019-08-07 16:50:21:427
-6.2324,-6.7016,1.4377,-0.1998,-0.4367,0.1716,-0.0143,0.0314,-0.0032,4229,2019-08-07 16:50:21:432
-6.4477,-6.6252,1.4896,-0.1537,-0.4083,0.2154,-0.0239,0.025,0.0,4234,2019-08-07 16:50:21:437
-6.4477,-6.6252,1.4896,-0.1537,-0.4083,0.2154,-0.0239,0.025,0.0,4239,2019-08-07 16:50:21:442
-6.4477,-6.6252,1.4896,-0.1537,-0.4083,0.2154,-0.0239,0.025,0.0,4244,2019-08-07 16:50:21:447
-6.4811,-6.7064,1.499,-0.1537,-0.4083,0.2154,-0.0218,0.0122,-0.0032,4249,2019-08-07 16:50:21:452
-6.4811,-6.7064,1.499,-0.217,-0.3418,0.1104,-0.0218,0.0122,-0.0032,4254,2019-08-07 16:50:21:457
-6.3376,-6.778,1.532,-0.217,-0.3418,0.1104,-0.0122,0.0058,0.016,4260,2019-08-07 16:50:21:463
-6.3376,-6.778,1.532,-0.217,-0.3418,0.1104,-0.0122,0.0058,0.016,4263,2019-08-07 16:50:21:466
-6.3376,-6.778,1.532,-0.217,-0.3418,0.1104,-0.0868,-0.1433,0.0309,4269,2019-08-07 16:50:21:472
-6.6964,-6.7637,1.5179,0.0909,-0.3011,0.1231,-0.0868,-0.1433,0.0309,4273,2019-08-07 16:50:21:476
-6.6964,-6.7637,1.5179,0.0909,-0.3011,0.1231,-0.0846,-0.1061,0.0299,4279,2019-08-07 16:50:21:482
-6.6964,-6.7637,1.5179,0.0909,-0.3011,0.1231,-0.0846,-0.1061,0.0299,4283,2019-08-07 16:50:21:486
-6.3376,-6.9308,1.8761,0.0909,-0.3011,0.1231,0.0016,-0.1476,0.0235,4289,2019-08-07 16:50:21:492
-6.3376,-6.9308,1.8761,-0.2,-0.1798,0.1682,0.0016,-0.1476,0.0235,4294,2019-08-07 16:50:21:497
-6.3328,-6.8878,1.3434,-0.2,-0.1798,0.1682,-0.0165,-0.1359,0.0341,4299,2019-08-07 16:50:21:502
-6.3328,-6.8878,1.3434,-0.2,-0.1798,0.1682,-0.0165,-0.1359,0.0341,4303,2019-08-07 16:50:21:506
-6.3328,-6.8878,1.3434,-0.2,-0.1798,0.1682,-0.0165,-0.1359,0.0341,4309,2019-08-07 16:50:21:512
-5.9788,-6.7637,1.6263,-0.5876,-0.2438,0.0617,-0.0239,-0.0613,0.0235,4314,2019-08-07 16:50:21:517
-5.9788,-6.7637,1.6263,-0.5876,-0.2438,0.0617,-0.0239,-0.0613,0.0235,4318,2019-08-07 16:50:21:521
-6.0362,-6.9021,1.4896,-0.5876,-0.2438,0.0617,0.0198,0.0452,0.0054,4323,2019-08-07 16:50:21:526
-6.0362,-6.9021,1.4896,-0.5876,-0.2438,0.0617,0.0198,0.0452,0.0054,4329,2019-08-07 16:50:21:532
-6.0362,-6.9021,1.4896,-0.398,0.0476,0.1975,0.0443,0.1581,0.0213,4333,2019-08-07 16:50:21:536
-6.1797,-7.1169,1.4094,-0.398,0.0476,0.1975,0.0443,0.1581,0.0213,4339,2019-08-07 16:50:21:542
-6.1797,-7.1169,1.4094,-0.398,0.0476,0.1975,0.0155,0.222,0.0213,4344,2019-08-07 16:50:21:547
-6.2467,-7.0024,1.6451,-0.398,0.0476,0.1975,0.0155,0.222,0.0213,4349,2019-08-07 16:50:21:552
-6.2467,-7.0024,1.6451,-0.1766,-0.213,0.0123,0.0272,0.237,0.0,4354,2019-08-07 16:50:21:557
-6.6007,-6.7446,1.5697,-0.1766,-0.213,0.0123,0.0272,0.237,0.0,4359,2019-08-07 16:50:21:562
-6.6007,-6.7446,1.5697,-0.1766,-0.213,0.0123,-0.0016,0.1848,0.0054,4364,2019-08-07 16:50:21:567
-6.6007,-6.7446,1.5697,-0.1766,-0.213,0.0123,-0.0016,0.1848,0.0054,4369,2019-08-07 16:50:21:572
-6.7634,-6.778,1.6781,0.1404,-0.2778,-0.0694,-0.0612,0.0836,0.0043,4375,2019-08-07 16:50:21:578