ACCELEROMETER X (m/s²),ACCELEROMETER Y (m/s²),ACCELEROMETER Z (m/s²),LINEAR ACCELERATION X (m/s²),LINEAR ACCELERATION Y (m/s²),LINEAR ACCELERATION Z (m/s²),GYROSCOPE X (rad/s),GYROSCOPE Y (rad/s),GYROSCOPE Z (rad/s),Time since start in ms ,YYYY-MO-DD HH-MI-SS_SSS
-6.2217,-6.7304,1.5134,-0.4488,-0.2165,0.0783,-0.0026,0.0228,0.0235,3,2019-08-07 16:50:23:153
-6.4035,-6.7113,1.5746,-0.2802,-0.3092,0.0796,-0.0048,0.0292,0.0256,8,2019-08-07 16:50:23:158
-6.4035,-6.7113,1.5746,-0.2802,-0.3092,0.0796,-0.0048,0.0292,0.0256,13,2019-08-07 16:50:23:163
-6.4849,-6.6779,1.5134,-0.2802,-0.3092,0.0796,-0.0016,0.025,0.0256,17,2019-08-07 16:50:23:167
-6.4849,-6.6779,1.5134,-0.2802,-0.3092,0.0796,-0.0016,0.025,0.0256,23,2019-08-07 16:50:23:173
-6.4849,-6.6779,1.5134,-0.1689,-0.3295,0.1791,-0.0037,0.0228,0.0245,27,2019-08-07 16:50:23:177
-6.5103,-6.6061,1.4612,-0.1689,-0.3295,0.1791,-0.0037,0.0228,0.0245,33,2019-08-07 16:50:23:183
-6.5103,-6.6061,1.4612,-0.1689,-0.3295,0.1791,-0.0111,0.0228,0.016,37,2019-08-07 16:50:23:187
-6.5103,-6.6061,1.4612,-0.1689,-0.3295,0.1791,-0.0111,0.0228,0.016,43,2019-08-07 16:50:23:193
-6.5964,-6.6729,1.546,-0.1339,-0.2652,0.0663,-0.0165,0.0122,0.0085,48,2019-08-07 16:50:23:198
-6.5964,-6.6729,1.546,-0.1339,-0.2652,0.0663,-0.0165,0.0122,0.0085,53,2019-08-07 16:50:23:203
-6.5486,-6.7159,1.4753,-0.1339,-0.2652,0.0663,-0.0133,0.0175,0.0075,58,2019-08-07 16:50:23:208
-6.5486,-6.7159,1.4753,-0.1339,-0.2652,0.0663,-0.0133,0.0175,0.0075,63,2019-08-07 16:50:23:213
-6.5486,-6.7159,1.4753,-0.1339,-0.2652,0.0663,-5.0E-4,0.0175,0.0,67,2019-08-07 16:50:23:217
-6.5103,-6.7207,1.5413,-0.1978,-0.2596,0.0441,-5.0E-4,0.0175,0.0,73,2019-08-07 16:50:23:223
-6.5103,-6.7207,1.5413,-0.1978,-0.2596,0.0441,0.0048,0.0037,-0.001,78,2019-08-07 16:50:23:228
-6.4912,-6.7302,1.5225,-0.1978,-0.2596,0.0441,0.0048,0.0037,-0.001,83,2019-08-07 16:50:23:233
-6.4912,-6.7302,1.5225,-0.27,-0.259,0.0541,0.007,-0.0155,0.0043,88,2019-08-07 16:50:23:238
-6.3812,-6.7111,1.4895,-0.27,-0.259,0.0541,0.007,-0.0155,0.0043,93,2019-08-07 16:50:23:243
-6.3812,-6.7111,1.4895,-0.27,-0.259,0.0541,0.007,-0.0155,0.0043,98,2019-08-07 16:50:23:248
-6.3812,-6.7111,1.4895,-0.27,-0.259,0.0541,0.0176,-0.0272,0.0096,102,2019-08-07 16:50:23:252
-6.3238,-6.7159,1.5743,-0.27,-0.259,0.0541,0.0176,-0.0272,0.0096,108,2019-08-07 16:50:23:258
-6.3238,-6.7159,1.5743,-0.3993,-0.3005,0.0834,0.0219,-0.0219,0.0181,113,2019-08-07 16:50:23:263
-6.3238,-6.7159,1.5743,-0.3993,-0.3005,0.0834,0.0219,-0.0219,0.0181,118,2019-08-07 16:50:23:268
-6.2377,-6.7159,1.5649,-0.3993,-0.3005,0.0834,0.0229,-0.0144,0.0235,123,2019-08-07 16:50:23:273
-6.2377,-6.7159,1.5649,-0.3993,-0.3005,0.0834,0.0229,-0.0144,0.0235,128,2019-08-07 16:50:23:278
-6.276,-6.7111,1.546,-0.3725,-0.2782,0.0375,0.0155,-0.0123,0.0245,132,2019-08-07 16:50:23:282
-6.276,-6.7111,1.546,-0.3725,-0.2782,0.0375,0.0155,-0.0123,0.0245,138,2019-08-07 16:50:23:288
-6.276,-6.7111,1.546,-0.3725,-0.2782,0.0375,0.0102,-0.0059,0.0309,144,2019-08-07 16:50:23:294
-6.319,-6.6491,1.5507,-0.3662,-0.3077,0.1491,0.0102,-0.0059,0.0309,149,2019-08-07 16:50:23:299
-6.319,-6.6491,1.5507,-0.3662,-0.3077,0.1491,0.0048,0.0069,0.0341,153,2019-08-07 16:50:23:303
-6.319,-6.6491,1.5507,-0.3662,-0.3077,0.1491,0.0048,0.0069,0.0341,157,2019-08-07 16:50:23:307
-6.3238,-6.6872,1.3433,-0.3662,-0.3077,0.1491,6.0E-4,0.0356,0.0288,163,2019-08-07 16:50:23:313
-6.3238,-6.6872,1.3433,-0.3662,-0.3077,0.1491,6.0E-4,0.0356,0.0288,167,2019-08-07 16:50:23:317
-6.3238,-6.6872,1.3433,-0.204,-0.3418,0.126,6.0E-4,0.0356,0.0288,173,2019-08-07 16:50:23:323
-6.6396,-6.6109,1.4565,-0.204,-0.3418,0.126,-0.0026,0.0601,0.0075,178,2019-08-07 16:50:23:328
-6.6396,-6.6109,1.4565,-0.204,-0.3418,0.126,-0.0026,0.0601,0.0075,183,2019-08-07 16:50:23:333
-6.7018,-6.6347,1.4942,-0.204,-0.3418,0.126,-0.0165,0.058,-0.0021,187,2019-08-07 16:50:23:337
-6.7018,-6.6347,1.4942,-0.0547,-0.3356,0.0738,-0.0165,0.058,-0.0021,193,2019-08-07 16:50:23:343
-6.7018,-6.6347,1.4942,-0.0547,-0.3356,0.0738,-0.0218,0.0527,-0.0085,197,2019-08-07 16:50:23:347
-6.6061,-6.6777,1.4612,-0.0547,-0.3356,0.0738,-0.0218,0.0527,-0.0085,203,2019-08-07 16:50:23:353
-6.6061,-6.6777,1.4612,-0.0547,-0.3356,0.0738,-0.0133,0.0452,-0.0255,207,2019-08-07 16:50:23:357
-6.6444,-6.7016,1.4659,-0.1223,-0.2322,0.0686,-0.0133,0.0452,-0.0255,213,2019-08-07 16:50:23:363
-6.6444,-6.7016,1.4659,-0.1223,-0.2322,0.0686,-0.009,0.025,-0.0266,218,2019-08-07 16:50:23:368
-6.6444,-6.7016,1.4659,-0.1223,-0.2322,0.0686,-0.009,0.025,-0.0266,223,2019-08-07 16:50:23:373
-6.5823,-6.7302,1.5696,-0.1223,-0.2322,0.0686,-0.009,0.025,-0.0266,228,2019-08-07 16:50:23:378
-6.5823,-6.7302,1.5696,-0.1722,-0.2022,-0.0103,-0.0037,-0.0123,-0.0245,233,2019-08-07 16:50:23:383
-6.4292,-6.8066,1.546,-0.1722,-0.2022,-0.0103,-0.0037,-0.0123,-0.0245,238,2019-08-07 16:50:23:388
-6.4292,-6.8066,1.546,-0.1722,-0.2022,-0.0103,0.0016,-0.0411,-0.0213,243,2019-08-07 16:50:23:393
-6.4292,-6.8066,1.546,-0.1722,-0.2022,-0.0103,0.0016,-0.0411,-0.0213,248,2019-08-07 16:50:23:398
-6.2761,-6.7159,1.4659,-0.4402,-0.2581,0.1126,0.0016,-0.0411,-0.0128,253,2019-08-07 16:50:23:403
-6.2761,-6.7159,1.4659,-0.4402,-0.2581,0.1126,0.0016,-0.0411,-0.0128,257,2019-08-07 16:50:23:407
-6.2761,-6.7159,1.4659,-0.4402,-0.2581,0.1126,-0.0016,-0.0176,-0.0085,263,2019-08-07 16:50:23:413
-6.2091,-6.7493,1.4234,-0.4402,-0.2581,0.1126,-0.0016,-0.0176,-0.0085,267,2019-08-07 16:50:23:417
-6.2091,-6.7493,1.4234,-0.4517,-0.2269,0.1104,0.0038,0.0122,-0.0032,273,2019-08-07 16:50:23:423
-6.2331,-6.7207,1.4611,-0.4517,-0.2269,0.1104,0.0038,0.0122,-0.0032,278,2019-08-07 16:50:23:428
-6.2331,-6.7207,1.4611,-0.4517,-0.2269,0.1104,0.0091,0.0324,-0.0021,283,2019-08-07 16:50:23:433
-6.2331,-6.7207,1.4611,-0.4517,-0.2269,0.1104,0.0091,0.0324,-0.0021,288,2019-08-07 16:50:23:438
-6.3862,-6.6825,1.4847,-0.3368,-0.304,0.126,0.0123,0.058,-0.0064,293,2019-08-07 16:50:23:443
-6.3862,-6.6825,1.4847,-0.3368,-0.304,0.126,0.0123,0.058,-0.0064,298,2019-08-07 16:50:23:448
-6.501,-6.6204,1.4517,-0.3368,-0.304,0.126,0.008,0.0772,-0.0064,303,2019-08-07 16:50:23:453
-6.501,-6.6204,1.4517,-0.3368,-0.304,0.126,0.008,0.0772,-0.0064,308,2019-08-07 16:50:23:458
-6.501,-6.6204,1.4517,-0.1235,-0.3423,0.0934,0.0016,0.074,-0.0106,313,2019-08-07 16:50:23:463
-6.568,-6.6204,1.5224,-0.1235,-0.3423,0.0934,0.0016,0.074,-0.0106,318,2019-08-07 16:50:23:468
-6.568,-6.6204,1.5224,-0.1235,-0.3423,0.0934,-5.0E-4,0.0527,-0.0213,323,2019-08-07 16:50:23:473
-6.6924,-6.5918,1.5224,-0.1235,-0.3423,0.0934,-5.0E-4,0.0527,-0.0213,328,2019-08-07 16:50:23:478
-6.6924,-6.5918,1.5224,-0.0233,-0.3484,-0.003,-5.0E-4,0.0527,-0.0213,333,2019-08-07 16:50:23:483
-6.6924,-6.5918,1.5224,-0.0233,-0.3484,-0.003,0.0102,0.0047,-0.0255,338,2019-08-07 16:50:23:488
-6.6206,-6.5727,1.5413,-0.0233,-0.3484,-0.003,0.0102,0.0047,-0.0255,342,2019-08-07 16:50:23:492
-6.6206,-6.5727,1.5413,-0.0233,-0.3484,-0.003,0.0176,-0.0208,-0.0192,348,2019-08-07 16:50:23:498
-6.3958,-6.6252,1.4093,-0.3173,-0.3548,0.1561,0.0176,-0.0208,-0.0192,353,2019-08-07 16:50:23:503
-6.3958,-6.6252,1.4093,-0.3173,-0.3548,0.1561,0.0176,-0.0326,-0.0181,357,2019-08-07 16:50:23:507
-6.3958,-6.6252,1.4093,-0.3173,-0.3548,0.1561,0.0176,-0.0326,-0.0181,363,2019-08-07 16:50:23:513
-6.281,-6.6156,1.3998,-0.3173,-0.3548,0.1561,0.0144,-0.0357,-0.016,367,2019-08-07 16:50:23:517
-6.281,-6.6156,1.3998,-0.3999,-0.29,0.2282,0.0144,-0.0357,-0.016,373,2019-08-07 16:50:23:523
-6.2188,-6.7206,1.3668,-0.3999,-0.29,0.2282,0.0166,-0.0112,-0.001,378,2019-08-07 16:50:23:528
-6.2188,-6.7206,1.3668,-0.3999,-0.29,0.2282,0.0166,-0.0112,-0.001,382,2019-08-07 16:50:23:532
-6.2188,-6.7206,1.3668,-0.3999,-0.29,0.2282,0.0166,-0.0112,-0.001,388,2019-08-07 16:50:23:538
-6.2188,-6.7827,1.3951,-0.4901,-0.1995,0.1779,0.0134,0.0186,0.0107,393,2019-08-07 16:50:23:543
-6.2188,-6.7827,1.3951,-0.4901,-0.1995,0.1779,0.0134,0.0186,0.0107,398,2019-08-07 16:50:23:548
-6.2188,-6.7827,1.3951,-0.4901,-0.1995,0.1779,0.0134,0.0346,0.0149,402,2019-08-07 16:50:23:552
-6.2667,-6.7636,1.3763,-0.4901,-0.1995,0.1779,0.0134,0.0346,0.0149,408,2019-08-07 16:50:23:558
-6.2667,-6.7636,1.3763,-0.5021,-0.2314,0.1272,0.0112,0.0537,0.0203,413,2019-08-07 16:50:23:563
-6.2667,-6.7636,1.3763,-0.5021,-0.2314,0.1272,0.0112,0.0537,0.0203,418,2019-08-07 16:50:23:568
-6.2619,-6.7732,1.4093,-0.5021,-0.2314,0.1272,0.0091,0.075,0.016,423,2019-08-07 16:50:23:573
-6.2619,-6.7732,1.4093,-0.5021,-0.2314,0.1272,0.0091,0.075,0.016,428,2019-08-07 16:50:23:578
-6.3624,-6.6586,1.4847,-0.5021,-0.2314,0.1272,0.0038,0.0963,0.0149,432,2019-08-07 16:50:23:582
-6.3624,-6.6586,1.4847,-0.3102,-0.2821,0.0322,0.0038,0.0963,0.0149,438,2019-08-07 16:50:23:588
-6.3624,-6.6586,1.4847,-0.3102,-0.2821,0.0322,-5.0E-4,0.1123,0.0149,442,2019-08-07 16:50:23:592
-6.4772,-6.6108,1.4847,-0.3102,-0.2821,0.0322,-5.0E-4,0.1123,0.0149,448,2019-08-07 16:50:23:598
-6.4772,-6.6108,1.4847,-0.3102,-0.2821,0.0322,-0.0047,0.1145,0.0171,452,2019-08-07 16:50:23:602
-6.5586,-6.6347,1.5318,-0.1584,-0.3225,-0.0205,-0.0047,0.1145,0.0171,458,2019-08-07 16:50:23:608
-6.5586,-6.6347,1.5318,-0.1584,-0.3225,-0.0205,-0.0026,0.0974,0.0128,463,2019-08-07 16:50:23:613
-6.5586,-6.6347,1.5318,-0.1584,-0.3225,-0.0205,-0.0026,0.0974,0.0128,467,2019-08-07 16:50:23:617
-6.6782,-6.6156,1.5695,-0.1584,-0.3225,-0.0205,0.0091,0.0623,0.0192,473,2019-08-07 16:50:23:623
-6.6782,-6.6156,1.5695,-0.1023,-0.3241,-0.0607,0.0091,0.0623,0.0192,477,2019-08-07 16:50:23:627
-6.6351,-6.6299,1.5884,-0.1023,-0.3241,-0.0607,0.0176,0.0164,0.0213,483,2019-08-07 16:50:23:633
-6.6351,-6.6299,1.5884,-0.1023,-0.3241,-0.0607,0.0176,0.0164,0.0213,488,2019-08-07 16:50:23:638
-6.6351,-6.6299,1.5884,-0.1023,-0.3241,-0.0607,0.0208,-0.0102,0.0245,493,2019-08-07 16:50:23:643
-6.5347,-6.6299,1.5224,-0.1977,-0.3386,0.011,0.0208,-0.0102,0.0245,497,2019-08-07 16:50:23:647
-6.5347,-6.6299,1.5224,-0.1977,-0.3386,0.011,0.0155,-0.0219,0.0235,503,2019-08-07 16:50:23:653
-6.5347,-6.6299,1.5224,-0.1977,-0.3386,0.011,0.0155,-0.0219,0.0235,508,2019-08-07 16:50:23:658
-6.4055,-6.6633,1.5035,-0.1977,-0.3386,0.011,0.007,-0.0166,0.0245,513,2019-08-07 16:50:23:663
-6.4055,-6.6633,1.5035,-0.3393,-0.2823,0.0581,0.007,-0.0166,0.0245,517,2019-08-07 16:50:23:667
-6.3816,-6.7111,1.447,-0.3393,-0.2823,0.0581,0.007,-0.0166,0.0245,523,2019-08-07 16:50:23:673
-6.3816,-6.7111,1.447,-0.3393,-0.2823,0.0581,0.0059,0.0111,0.0256,528,2019-08-07 16:50:23:678
-6.3816,-6.7111,1.447,-0.3393,-0.2823,0.0581,0.0059,0.0111,0.0256,533,2019-08-07 16:50:23:683
-6.4199,-6.692,1.4564,-0.3189,-0.2694,0.0812,0.0038,0.0314,0.0235,538,2019-08-07 16:50:23:688
-6.4199,-6.692,1.4564,-0.3189,-0.2694,0.0812,0.0038,0.0314,0.0235,543,2019-08-07 16:50:23:693
-6.4247,-6.6586,1.3998,-0.3162,-0.3014,0.1351,-0.0026,0.0495,0.0224,548,2019-08-07 16:50:23:698
-6.4247,-6.6586,1.3998,-0.3162,-0.3014,0.1351,-0.0026,0.0495,0.0224,553,2019-08-07 16:50:23:703
-6.5156,-6.7254,1.4705,-0.3162,-0.3014,0.1351,-0.0047,0.0601,0.0203,558,2019-08-07 16:50:23:708
-6.5156,-6.7254,1.4705,-0.3162,-0.3014,0.1351,-0.0047,0.0601,0.0203,562,2019-08-07 16:50:23:712
-6.5156,-6.7254,1.4705,-0.2062,-0.2986,0.0178,-0.0047,0.0601,0.0213,568,2019-08-07 16:50:23:718
-6.573,-6.6395,1.5035,-0.2062,-0.2986,0.0178,-0.0047,0.0601,0.0213,573,2019-08-07 16:50:23:723
-6.573,-6.6395,1.5035,-0.2062,-0.2986,0.0178,-0.0047,0.0601,0.0213,578,2019-08-07 16:50:23:728
-6.5635,-6.6204,1.5035,-0.2062,-0.2986,0.0178,-0.0079,0.0495,0.0149,583,2019-08-07 16:50:23:733
-6.5635,-6.6204,1.5035,-0.1439,-0.3388,-0.0043,-0.0079,0.0495,0.0149,588,2019-08-07 16:50:23:738
-6.5635,-6.6204,1.5035,-0.1439,-0.3388,-0.0043,-0.0133,0.0207,0.0192,592,2019-08-07 16:50:23:742
-6.5587,-6.6729,1.4752,-0.1439,-0.3388,-0.0043,-0.0133,0.0207,0.0192,598,2019-08-07 16:50:23:748
-6.5587,-6.6729,1.4752,-0.1439,-0.3388,-0.0043,-0.009,0.0122,0.0181,602,2019-08-07 16:50:23:752
-6.5539,-6.6204,1.4705,-0.2432,-0.3504,-0.0031,-0.009,0.0122,0.0181,608,2019-08-07 16:50:23:758
-6.5539,-6.6204,1.4705,-0.2432,-0.3504,-0.0031,-0.009,-0.0017,0.0203,612,2019-08-07 16:50:23:762
-6.5539,-6.6204,1.4705,-0.2432,-0.3504,-0.0031,-0.009,-0.0017,0.0203,618,2019-08-07 16:50:23:768
-6.5013,-6.6586,1.4941,-0.2432,-0.3504,-0.0031,-0.009,-0.0017,0.0203,622,2019-08-07 16:50:23:772
-6.5013,-6.6586,1.4941,-0.2843,-0.3047,0.1521,-0.009,-0.0123,0.0224,628,2019-08-07 16:50:23:778
-6.5013,-6.6586,1.4941,-0.2843,-0.3047,0.1521,-0.009,-0.0123,0.0224,632,2019-08-07 16:50:23:782
-6.4056,-6.7015,1.3621,-0.2843,-0.3047,0.1521,-0.009,-0.007,0.0288,638,2019-08-07 16:50:23:788
-6.4056,-6.7015,1.3621,-0.2843,-0.3047,0.1521,-0.009,-0.007,0.0288,642,2019-08-07 16:50:23:792
-6.3722,-6.7349,1.3244,-0.3883,-0.2109,0.1884,-0.0037,0.0122,0.0298,648,2019-08-07 16:50:23:798
-6.3722,-6.7349,1.3244,-0.3883,-0.2109,0.1884,-0.0037,0.0122,0.0298,653,2019-08-07 16:50:23:803
-6.3722,-6.7349,1.3244,-0.3883,-0.2109,0.1884,0.0027,0.0314,0.0362,658,2019-08-07 16:50:23:808
-6.4152,-6.7397,1.4234,-0.3883,-0.2109,0.1884,0.0027,0.0314,0.0362,663,2019-08-07 16:50:23:813
-6.4152,-6.7397,1.4234,-0.3693,-0.2212,0.104,0.0112,0.041,0.0426,668,2019-08-07 16:50:23:818
-6.4631,-6.7111,1.3338,-0.3693,-0.2212,0.104,0.0112,0.041,0.0426,673,2019-08-07 16:50:23:823
-6.4631,-6.7111,1.3338,-0.3693,-0.2212,0.104,0.0155,0.0527,0.0437,678,2019-08-07 16:50:23:828
-6.4631,-6.7111,1.3338,-0.3693,-0.2212,0.104,0.0155,0.0527,0.0437,683,2019-08-07 16:50:23:833
-6.4822,-6.7206,1.3621,-0.2808,-0.2155,0.1264,0.0123,0.0537,0.0426,688,2019-08-07 16:50:23:838
-6.4822,-6.7206,1.3621,-0.2808,-0.2155,0.1264,0.0123,0.0537,0.0426,693,2019-08-07 16:50:23:843
-6.5349,-6.6442,1.4611,-0.2808,-0.2155,0.1264,0.0176,0.0473,0.0448,698,2019-08-07 16:50:23:848
-6.5349,-6.6442,1.4611,-0.2808,-0.2155,0.1264,0.0176,0.0473,0.0448,702,2019-08-07 16:50:23:852
-6.5349,-6.6442,1.4611,-0.2455,-0.2614,0.0328,0.0251,0.0441,0.0501,708,2019-08-07 16:50:23:858
-6.5636,-6.6729,1.4516,-0.2455,-0.2614,0.0328,0.0251,0.0441,0.0501,712,2019-08-07 16:50:23:862
-6.5636,-6.6729,1.4516,-0.2455,-0.2614,0.0328,0.0251,0.0441,0.0501,718,2019-08-07 16:50:23:868
-6.5397,-6.6395,1.4469,-0.2353,-0.2527,0.0791,0.0293,0.042,0.0512,723,2019-08-07 16:50:23:873
-6.5397,-6.6395,1.4469,-0.2353,-0.2527,0.0791,0.0293,0.042,0.0512,727,2019-08-07 16:50:23:877
-6.5397,-6.6395,1.4469,-0.2353,-0.2527,0.0791,0.0336,0.0378,0.0437,733,2019-08-07 16:50:23:883
-6.5636,-6.5869,1.4281,-0.1958,-0.3592,0.0218,0.0336,0.0378,0.0437,738,2019-08-07 16:50:23:888
-6.5636,-6.5869,1.4281,-0.1958,-0.3592,0.0218,0.0293,0.026,0.048,743,2019-08-07 16:50:23:893
-6.5875,-6.5726,1.5412,-0.1958,-0.3592,0.0218,0.0293,0.026,0.048,748,2019-08-07 16:50:23:898
-6.5875,-6.5726,1.5412,-0.1958,-0.3592,0.0218,0.0304,0.0164,0.048,753,2019-08-07 16:50:23:903
-6.5875,-6.5726,1.5412,-0.184,-0.2942,-0.0046,0.0304,0.0164,0.048,758,2019-08-07 16:50:23:908
-6.5971,-6.6204,1.4422,-0.184,-0.2942,-0.0046,0.0304,0.0164,0.048,763,2019-08-07 16:50:23:913
-6.5971,-6.6204,1.4422,-0.184,-0.2942,-0.0046,0.0251,0.0122,0.049,768,2019-08-07 16:50:23:918
-6.5971,-6.6204,1.4422,-0.184,-0.2942,-0.0046,0.0251,0.0122,0.049,773,2019-08-07 16:50:23:923
-6.5828,-6.6156,1.3385,-0.2103,-0.2679,0.0719,0.0283,0.0228,0.0394,779,2019-08-07 16:50:23:929
-6.5828,-6.6156,1.3385,-0.2103,-0.2679,0.0719,0.0283,0.0228,0.0394,783,2019-08-07 16:50:23:933
-6.6641,-6.6204,1.527,-0.2103,-0.2679,0.0719,0.0261,0.0101,0.0341,788,2019-08-07 16:50:23:938
-6.6641,-6.6204,1.527,-0.2103,-0.2679,0.0719,0.0261,0.0101,0.0341,792,2019-08-07 16:50:23:942
-6.5637,-6.6442,1.5223,-0.2493,-0.2522,-0.0195,0.0144,-0.0038,0.0309,798,2019-08-07 16:50:23:948
-6.5637,-6.6442,1.5223,-0.2493,-0.2522,-0.0195,0.0144,-0.0038,0.0309,803,2019-08-07 16:50:23:953
-6.5637,-6.6442,1.5223,-0.2493,-0.2522,-0.0195,0.0144,-0.0038,0.0309,807,2019-08-07 16:50:23:957
-6.5541,-6.5917,1.4422,-0.2493,-0.2522,-0.0195,0.0123,0.0026,0.0213,813,2019-08-07 16:50:23:963
-6.5541,-6.5917,1.4422,-0.2493,-0.2522,-0.0195,0.0123,0.0026,0.0213,817,2019-08-07 16:50:23:967
-6.5541,-6.5917,1.4422,-0.2192,-0.3058,0.0907,0.0016,0.0133,0.0117,823,2019-08-07 16:50:23:973
-6.6642,-6.5822,1.5223,-0.2192,-0.3058,0.0907,0.0016,0.0133,0.0117,828,2019-08-07 16:50:23:978
-6.6642,-6.5822,1.5223,-0.2192,-0.3058,0.0907,-0.0079,0.0047,0.0117,833,2019-08-07 16:50:23:983
-6.6211,-6.6299,1.5459,-0.2192,-0.3058,0.0907,-0.0079,0.0047,0.0117,837,2019-08-07 16:50:23:987
-6.6211,-6.6299,1.5459,-0.1975,-0.2179,-0.0333,-0.0143,-0.0027,0.0117,843,2019-08-07 16:50:23:993
-6.6211,-6.6299,1.5459,-0.1975,-0.2179,-0.0333,-0.0143,-0.0027,0.0117,848,2019-08-07 16:50:23:998
-6.5924,-6.5965,1.5365,-0.1975,-0.2179,-0.0333,-0.0165,5.0E-4,0.0032,853,2019-08-07 16:50:24:003
-6.5924,-6.5965,1.5365,-0.1975,-0.2179,-0.0333,-0.0165,5.0E-4,0.0032,858,2019-08-07 16:50:24:008
-6.5542,-6.6442,1.4799,-0.2607,-0.2651,-0.0162,-0.0186,0.0133,0.0011,863,2019-08-07 16:50:24:013
-6.5542,-6.6442,1.4799,-0.2607,-0.2651,-0.0162,-0.0186,0.0133,0.0011,867,2019-08-07 16:50:24:017
-6.5542,-6.6442,1.4799,-0.2607,-0.2651,-0.0162,-0.0186,0.0133,0.0011,873,2019-08-07 16:50:24:023
-6.5542,-6.649,1.5459,-0.2607,-0.2651,-0.0162,-0.0186,0.0228,0.0011,878,2019-08-07 16:50:24:028
-6.5542,-6.649,1.5459,-0.2421,-0.2081,-0.0913,-0.0186,0.0228,0.0011,883,2019-08-07 16:50:24:033
-6.559,-6.6442,1.494,-0.2421,-0.2081,-0.0913,-0.0175,0.0175,0.0011,888,2019-08-07 16:50:24:038
-6.559,-6.6442,1.494,-0.2421,-0.2081,-0.0913,-0.0175,0.0175,0.0011,893,2019-08-07 16:50:24:043
-6.559,-6.6442,1.494,-0.2421,-0.2081,-0.0913,-0.0154,0.0143,0.0043,897,2019-08-07 16:50:24:047
-6.6068,-6.6681,1.5789,-0.2142,-0.2225,-0.0857,-0.0154,0.0143,0.0043,903,2019-08-07 16:50:24:053
-6.6068,-6.6681,1.5789,-0.2142,-0.2225,-0.0857,-0.0037,-0.0123,0.0117,907,2019-08-07 16:50:24:057
-6.5303,-6.6251,1.5836,-0.2142,-0.2225,-0.0857,-0.0037,-0.0123,0.0117,913,2019-08-07 16:50:24:063
-6.5303,-6.6251,1.5836,-0.2142,-0.2225,-0.0857,0.0048,-0.0294,0.0192,918,2019-08-07 16:50:24:068
-6.5303,-6.6251,1.5836,-0.2727,-0.2448,-0.0317,0.0048,-0.0294,0.0192,923,2019-08-07 16:50:24:073
-6.5159,-6.6538,1.5082,-0.2727,-0.2448,-0.0317,0.0048,-0.0294,0.0192,928,2019-08-07 16:50:24:078
-6.5159,-6.6538,1.5082,-0.2727,-0.2448,-0.0317,0.0091,-0.0443,0.0224,933,2019-08-07 16:50:24:083
-6.5159,-6.6538,1.5082,-0.2727,-0.2448,-0.0317,0.0091,-0.0443,0.0224,938,2019-08-07 16:50:24:088
-6.4298,-6.5965,1.4233,-0.3938,-0.2894,0.0793,6.0E-4,-0.0475,0.0245,942,2019-08-07 16:50:24:092
-6.4298,-6.5965,1.4233,-0.3938,-0.2894,0.0793,6.0E-4,-0.0475,0.0245,948,2019-08-07 16:50:24:098
-6.3916,-6.6538,1.4044,-0.3938,-0.2894,0.0793,-5.0E-4,-0.0336,0.0256,953,2019-08-07 16:50:24:103
-6.3916,-6.6538,1.4044,-0.3938,-0.2894,0.0793,-5.0E-4,-0.0336,0.0256,958,2019-08-07 16:50:24:108
-6.3916,-6.6538,1.4044,-0.4004,-0.2483,0.1503,0.0027,-0.0144,0.0245,963,2019-08-07 16:50:24:113
-6.4012,-6.649,1.3856,-0.4004,-0.2483,0.1503,0.0027,-0.0144,0.0245,967,2019-08-07 16:50:24:117
-6.4012,-6.649,1.3856,-0.4004,-0.2483,0.1503,0.0038,0.0101,0.0245,973,2019-08-07 16:50:24:123
-6.5016,-6.6585,1.3667,-0.4004,-0.2483,0.1503,0.0038,0.0101,0.0245,978,2019-08-07 16:50:24:128
-6.5016,-6.6585,1.3667,-0.3363,-0.2743,0.1354,-5.0E-4,0.026,0.0235,983,2019-08-07 16:50:24:133
-6.5016,-6.6585,1.3667,-0.3363,-0.2743,0.1354,-5.0E-4,0.026,0.0235,988,2019-08-07 16:50:24:138
-6.4682,-6.649,1.4374,-0.3363,-0.2743,0.1354,-0.0026,0.0356,0.0224,992,2019-08-07 16:50:24:142
-6.4682,-6.649,1.4374,-0.3363,-0.2743,0.1354,-0.0026,0.0356,0.0224,998,2019-08-07 16:50:24:148
-6.5112,-6.6728,1.3856,-0.2778,-0.2096,0.1023,0.0038,0.0346,0.0181,1003,2019-08-07 16:50:24:153
-6.5112,-6.6728,1.3856,-0.2778,-0.2096,0.1023,0.0038,0.0346,0.0181,1008,2019-08-07 16:50:24:158
-6.5112,-6.6728,1.3856,-0.2778,-0.2096,0.1023,0.0016,0.0218,0.0181,1013,2019-08-07 16:50:24:163
-6.6213,-6.6156,1.4421,-0.2778,-0.2096,0.1023,0.0016,0.0218,0.0181,1018,2019-08-07 16:50:24:168
-6.6213,-6.6156,1.4421,-0.2251,-0.1974,0.0565,0.0016,0.0218,0.0181,1022,2019-08-07 16:50:24:172
-6.6213,-6.6156,1.4421,-0.2251,-0.1974,0.0565,0.0059,-0.007,0.0203,1028,2019-08-07 16:50:24:178
-6.5719,-6.7064,1.4378,-0.2839,-0.2007,0.0999,0.0059,-0.007,0.0203,1032,2019-08-07 16:50:24:182
-6.5719,-6.7064,1.4378,-0.2839,-0.2007,0.0999,0.0123,-0.0208,0.0309,1038,2019-08-07 16:50:24:188
-6.5144,-6.7351,1.3152,-0.2839,-0.2007,0.0999,0.0123,-0.0208,0.0309,1043,2019-08-07 16:50:24:193
-6.5144,-6.7351,1.3152,-0.2839,-0.2007,0.0999,0.0155,-0.0208,0.0288,1048,2019-08-07 16:50:24:198
-6.5144,-6.7351,1.3152,-0.368,-0.1445,0.1132,0.0155,-0.0208,0.0288,1053,2019-08-07 16:50:24:203
-6.4857,-6.7112,1.3623,-0.368,-0.1445,0.1132,0.0251,-0.0187,0.0277,1057,2019-08-07 16:50:24:207
-6.4857,-6.7112,1.3623,-0.368,-0.1445,0.1132,0.0251,-0.0187,0.0277,1063,2019-08-07 16:50:24:213
-6.4522,-6.6825,1.3576,-0.368,-0.1445,0.1132,0.0293,-0.0123,0.0256,1068,2019-08-07 16:50:24:218
-6.4522,-6.6825,1.3576,-0.4139,-0.217,0.2501,0.0293,-0.0123,0.0256,1073,2019-08-07 16:50:24:223
-6.4522,-6.6825,1.3576,-0.4139,-0.217,0.2501,0.0325,0.0133,0.0245,1078,2019-08-07 16:50:24:228
-6.4139,-6.6539,1.3152,-0.4139,-0.217,0.2501,0.0325,0.0133,0.0245,1082,2019-08-07 16:50:24:232
-6.4139,-6.6539,1.3152,-0.4139,-0.217,0.2501,0.0325,0.0335,0.0224,1088,2019-08-07 16:50:24:238
-6.4139,-6.6539,1.3152,-0.4139,-0.217,0.2501,0.0325,0.0335,0.0224,1093,2019-08-07 16:50:24:243
-6.5192,-6.6396,1.3765,-0.3262,-0.2232,0.1331,0.0325,0.0335,0.0224,1097,2019-08-07 16:50:24:247
-6.5192,-6.6396,1.3765,-0.3262,-0.2232,0.1331,0.0389,0.0452,0.016,1102,2019-08-07 16:50:24:252
-6.6005,-6.6253,1.3765,-0.3262,-0.2232,0.1331,0.0389,0.0452,0.016,1108,2019-08-07 16:50:24:258
-6.6005,-6.6253,1.3765,-0.2724,-0.2725,0.1031,0.04,0.0484,0.0149,1113,2019-08-07 16:50:24:263
-6.6005,-6.6253,1.3765,-0.2724,-0.2725,0.1031,0.04,0.0484,0.0149,1118,2019-08-07 16:50:24:268
-6.6053,-6.5823,1.4189,-0.2724,-0.2725,0.1031,0.0379,0.0399,0.0181,1123,2019-08-07 16:50:24:273
-6.6053,-6.5823,1.4189,-0.2724,-0.2725,0.1031,0.0379,0.0399,0.0181,1127,2019-08-07 16:50:24:277
-6.6053,-6.5823,1.4189,-0.2724,-0.2725,0.1031,0.0432,0.0303,0.016,1132,2019-08-07 16:50:24:282
-6.5479,-6.6062,1.4472,-0.3048,-0.2497,0.0607,0.0432,0.0303,0.016,1138,2019-08-07 16:50:24:288
-6.5479,-6.6062,1.4472,-0.3048,-0.2497,0.0607,0.0474,0.0143,0.0203,1143,2019-08-07 16:50:24:293
-6.5622,-6.5823,1.4189,-0.3048,-0.2497,0.0607,0.0474,0.0143,0.0203,1147,2019-08-07 16:50:24:297
-6.5622,-6.5823,1.4189,-0.3272,-0.2599,0.131,0.0474,0.0069,0.0256,1153,2019-08-07 16:50:24:303
-6.5479,-6.5632,1.4425,-0.3272,-0.2599,0.131,0.0474,0.0069,0.0256,1158,2019-08-07 16:50:24:308
-6.5479,-6.5632,1.4425,-0.3272,-0.2599,0.131,0.0421,0.009,0.0309,1163,2019-08-07 16:50:24:313
-6.5479,-6.5632,1.4425,-0.3817,-0.2956,0.077,0.0421,0.009,0.0309,1168,2019-08-07 16:50:24:318
-6.4904,-6.5966,1.3954,-0.3817,-0.2956,0.077,0.0421,0.009,0.0309,1173,2019-08-07 16:50:24:323
-6.4904,-6.5966,1.3954,-0.3817,-0.2956,0.077,0.0432,0.0207,0.0288,1178,2019-08-07 16:50:24:328
-6.4904,-6.5966,1.3954,-0.3817,-0.2956,0.077,0.0432,0.0207,0.0288,1182,2019-08-07 16:50:24:332
-6.4856,-6.6348,1.3954,-0.3763,-0.2095,0.1226,0.0443,0.0378,0.0331,1188,2019-08-07 16:50:24:338
-6.4856,-6.6348,1.3954,-0.3763,-0.2095,0.1226,0.0443,0.0378,0.0331,1192,2019-08-07 16:50:24:342
-6.4952,-6.6491,1.3812,-0.3763,-0.2095,0.1226,0.0432,0.0612,0.0299,1198,2019-08-07 16:50:24:348
-6.4952,-6.6491,1.3812,-0.3763,-0.2095,0.1226,0.0432,0.0612,0.0299,1203,2019-08-07 16:50:24:353
-6.4952,-6.6491,1.3812,-0.3428,-0.1382,0.1589,0.0432,0.0612,0.0299,1207,2019-08-07 16:50:24:357
-6.5717,-6.7112,1.3906,-0.3428,-0.1382,0.1589,0.0421,0.0804,0.0267,1213,2019-08-07 16:50:24:363
-6.5717,-6.7112,1.3906,-0.3428,-0.1382,0.1589,0.0421,0.0804,0.0267,1218,2019-08-07 16:50:24:368
-6.5717,-6.778,1.4189,-0.3428,-0.1382,0.1589,0.0485,0.0836,0.0235,1223,2019-08-07 16:50:24:373
-6.5717,-6.778,1.4189,-0.1904,-0.072,0.0823,0.0485,0.0836,0.0235,1228,2019-08-07 16:50:24:378
-6.5717,-6.778,1.4189,-0.1904,-0.072,0.0823,0.0581,0.0697,0.0235,1233,2019-08-07 16:50:24:383
-6.7057,-6.7064,1.5038,-0.1904,-0.072,0.0823,0.0581,0.0697,0.0235,1237,2019-08-07 16:50:24:387
-6.7057,-6.7064,1.5038,-0.1904,-0.072,0.0823,0.0581,0.0697,0.0235,1243,2019-08-07 16:50:24:393
-6.7057,-6.7064,1.5038,-0.1235,-0.1628,-0.0932,0.0677,0.0537,0.0192,1247,2019-08-07 16:50:24:397
-6.7774,-6.6062,1.6028,-0.1235,-0.1628,-0.0932,0.0677,0.0537,0.0192,1253,2019-08-07 16:50:24:403
-6.7774,-6.6062,1.6028,-0.1235,-0.1628,-0.0932,0.0688,0.025,0.0171,1258,2019-08-07 16:50:24:408
-6.7822,-6.5059,1.6546,-0.1235,-0.1628,-0.0932,0.0688,0.025,0.0171,1263,2019-08-07 16:50:24:413
-6.7822,-6.5059,1.6546,-0.1368,-0.3581,-0.1618,0.0613,-0.0038,0.0128,1268,2019-08-07 16:50:24:418
-6.7822,-6.5059,1.6546,-0.1368,-0.3581,-0.1618,0.0613,-0.0038,0.0128,1272,2019-08-07 16:50:24:422
-6.7105,-6.4821,1.6263,-0.1368,-0.3581,-0.1618,0.056,-0.0262,0.0086,1278,2019-08-07 16:50:24:428
-6.7105,-6.4821,1.6263,-0.1368,-0.3581,-0.1618,0.056,-0.0262,0.0086,1283,2019-08-07 16:50:24:433
-6.5765,-6.525,1.5509,-0.2769,-0.3446,-0.0371,0.0411,-0.0294,0.0032,1288,2019-08-07 16:50:24:438
-6.5765,-6.525,1.5509,-0.2769,-0.3446,-0.0371,0.0411,-0.0294,0.0032,1293,2019-08-07 16:50:24:443
-6.5765,-6.525,1.5509,-0.2769,-0.3446,-0.0371,0.0347,-0.0123,-0.0021,1297,2019-08-07 16:50:24:447
-6.5239,-6.5775,1.5839,-0.2769,-0.3446,-0.0371,0.0347,-0.0123,-0.0021,1302,2019-08-07 16:50:24:452
-6.5239,-6.5775,1.5839,-0.4194,-0.2676,0.0362,0.0347,-0.0123,-0.0021,1308,2019-08-07 16:50:24:458
-6.5239,-6.5775,1.5839,-0.4194,-0.2676,0.0362,0.0283,0.0324,-0.0064,1313,2019-08-07 16:50:24:463
-6.4664,-6.5632,1.5604,-0.4194,-0.2676,0.0362,0.0283,0.0324,-0.0064,1318,2019-08-07 16:50:24:468
-6.4664,-6.5632,1.5604,-0.4194,-0.2676,0.0362,0.0261,0.0697,-0.0085,1323,2019-08-07 16:50:24:473
-6.5908,-6.4964,1.5745,-0.2904,-0.3254,-0.0421,0.0261,0.0697,-0.0085,1329,2019-08-07 16:50:24:479
-6.5908,-6.4964,1.5745,-0.2904,-0.3254,-0.0421,0.0229,0.0793,-0.0106,1333,2019-08-07 16:50:24:483
-6.5908,-6.4964,1.5745,-0.2904,-0.3254,-0.0421,0.0229,0.0793,-0.0106,1338,2019-08-07 16:50:24:488
-6.72,-6.42,1.6688,-0.2904,-0.3254,-0.0421,0.0229,0.0793,-0.0106,1343,2019-08-07 16:50:24:493
-6.72,-6.42,1.6688,-0.1581,-0.3919,-0.1374,0.0187,0.058,-0.0053,1349,2019-08-07 16:50:24:499
-6.72,-6.42,1.6688,-0.1581,-0.3919,-0.1374,0.0187,0.058,-0.0053,1352,2019-08-07 16:50:24:502
-6.7391,-6.377,1.6641,-0.1581,-0.3919,-0.1374,0.0208,0.0239,0.0022,1358,2019-08-07 16:50:24:508
-6.7391,-6.377,1.6641,-0.1581,-0.3919,-0.1374,0.0208,0.0239,0.0022,1362,2019-08-07 16:50:24:512
-6.7104,-6.377,1.7301,-0.1743,-0.442,-0.201,0.0261,-0.0187,0.0086,1368,2019-08-07 16:50:24:518
-6.7104,-6.377,1.7301,-0.1743,-0.442,-0.201,0.0261,-0.0187,0.0086,1373,2019-08-07 16:50:24:523
-6.7104,-6.377,1.7301,-0.1743,-0.442,-0.201,0.0304,-0.0656,0.0203,1377,2019-08-07 16:50:24:527
-6.6051,-6.2863,1.6264,-0.1743,-0.442,-0.201,0.0304,-0.0656,0.0203,1383,2019-08-07 16:50:24:533
-6.6051,-6.2863,1.6264,-0.3389,-0.5945,-0.046,0.0198,-0.0848,0.0309,1388,2019-08-07 16:50:24:538
-6.6051,-6.2863,1.6264,-0.3389,-0.5945,-0.046,0.0198,-0.0848,0.0309,1394,2019-08-07 16:50:24:544
-6.4855,-6.3102,1.5321,-0.3389,-0.5945,-0.046,0.0198,-0.0848,0.0405,1398,2019-08-07 16:50:24:548
-6.4855,-6.3102,1.5321,-0.3389,-0.5945,-0.046,0.0198,-0.0848,0.0405,1402,2019-08-07 16:50:24:552
-6.3994,-6.3102,1.4944,-0.4903,-0.4974,0.0628,0.0198,-0.0848,0.0405,1408,2019-08-07 16:50:24:558
-6.3994,-6.3102,1.4944,-0.4903,-0.4974,0.0628,0.0155,-0.0528,0.0512,1413,2019-08-07 16:50:24:563
-6.3994,-6.3102,1.4944,-0.4903,-0.4974,0.0628,0.0155,-0.0528,0.0512,1418,2019-08-07 16:50:24:568
-6.4042,-6.2482,1.4897,-0.4903,-0.4974,0.0628,0.0155,-0.0528,0.0512,1422,2019-08-07 16:50:24:572
-6.4042,-6.2482,1.4897,-0.4903,-0.4974,0.0628,0.0123,-0.0155,0.0618,1428,2019-08-07 16:50:24:578
-6.5046,-6.2482,1.5509,-0.4876,-0.5651,0.0278,0.0059,0.0058,0.0735,1433,2019-08-07 16:50:24:583
-6.5046,-6.2482,1.5509,-0.4876,-0.5651,0.0278,0.0059,0.0058,0.0735,1437,2019-08-07 16:50:24:587
-6.5046,-6.2482,1.5509,-0.4876,-0.5651,0.0278,-0.0026,0.0111,0.0789,1443,2019-08-07 16:50:24:593
-6.629,-6.21,1.6405,-0.4876,-0.5651,0.0278,-0.0026,0.0111,0.0789,1448,2019-08-07 16:50:24:598
-6.629,-6.21,1.6405,-0.2119,-0.5535,-0.1038,-0.0026,0.0111,0.0789,1453,2019-08-07 16:50:24:603
-6.873,-6.2338,1.9375,-0.2119,-0.5535,-0.1038,-0.0026,-0.0155,0.0938,1458,2019-08-07 16:50:24:608
-6.873,-6.2338,1.9375,-0.2119,-0.5535,-0.1038,-0.0026,-0.0155,0.0938,1463,2019-08-07 16:50:24:613
-6.873,-6.2338,1.9375,-0.0343,-0.5952,-0.5399,0.0198,-0.0581,0.1012,1468,2019-08-07 16:50:24:618
-6.9017,-6.2147,2.1119,-0.0343,-0.5952,-0.5399,0.0198,-0.0581,0.1012,1473,2019-08-07 16:50:24:623
-6.9017,-6.2147,2.1119,-0.0343,-0.5952,-0.5399,0.0421,-0.1071,0.1108,1478,2019-08-07 16:50:24:628
-7.0022,-6.1861,2.0978,-0.0343,-0.5952,-0.5399,0.0421,-0.1071,0.1108,1483,2019-08-07 16:50:24:633
-7.0022,-6.1861,2.0978,0.0573,-0.5606,-0.5181,0.0389,-0.1774,0.1225,1488,2019-08-07 16:50:24:638
-7.0022,-6.1861,2.0978,0.0573,-0.5606,-0.5181,0.0389,-0.1774,0.1225,1493,2019-08-07 16:50:24:643
-7.0069,-6.1766,2.1072,0.0573,-0.5606,-0.5181,0.0389,-0.1774,0.1225,1498,2019-08-07 16:50:24:648
-7.0069,-6.1766,2.1072,0.0573,-0.5606,-0.5181,0.0389,-0.2286,0.1321,1502,2019-08-07 16:50:24:652
-7.0643,-6.2768,2.0365,0.1069,-0.4568,-0.3976,0.0389,-0.2286,0.1321,1508,2019-08-07 16:50:24:658
-7.0643,-6.2768,2.0365,0.1069,-0.4568,-0.3976,0.0293,-0.2733,0.146,1513,2019-08-07 16:50:24:663
-7.0643,-6.2768,2.0365,0.1069,-0.4568,-0.3976,0.0293,-0.2733,0.146,1517,2019-08-07 16:50:24:667
-7.0356,-6.3054,2.06,0.1069,-0.4568,-0.3976,0.0293,-0.2733,0.146,1522,2019-08-07 16:50:24:672
-7.0356,-6.3054,2.06,0.1069,-0.4568,-0.3976,0.0166,-0.2872,0.1502,1528,2019-08-07 16:50:24:678
-7.1983,-6.1956,2.1779,0.1274,-0.4652,-0.4686,-5.0E-4,-0.2914,0.1534,1533,2019-08-07 16:50:24:683
-7.1983,-6.1956,2.1779,0.1274,-0.4652,-0.4686,-5.0E-4,-0.2914,0.1534,1539,2019-08-07 16:50:24:689
-7.1983,-6.1956,2.1779,0.1274,-0.4652,-0.4686,-5.0E-4,-0.2914,0.1534,1543,2019-08-07 16:50:24:693
-7.4327,-6.1145,2.5079,0.1274,-0.4652,-0.4686,-0.0154,-0.2978,0.1566,1548,2019-08-07 16:50:24:698
-7.4327,-6.1145,2.5079,0.659,-0.5728,-0.9601,-0.0154,-0.2978,0.1566,1553,2019-08-07 16:50:24:703
-7.4327,-6.1145,2.5079,0.659,-0.5728,-0.9601,-0.0133,-0.3447,0.1545,1558,2019-08-07 16:50:24:708
-8.1121,-6.1288,3.4648,1.1306,-0.5348,-1.7064,-0.0133,-0.3447,0.1545,1563,2019-08-07 16:50:24:713
-8.1121,-6.1288,3.4648,1.1306,-0.5348,-1.7064,0.0347,-0.4565,0.1737,1568,2019-08-07 16:50:24:718
-8.1121,-6.1288,3.4648,1.1306,-0.5348,-1.7064,0.0347,-0.4565,0.1737,1572,2019-08-07 16:50:24:722
-9.1454,-6.0047,5.3362,1.1306,-0.5348,-1.7064,0.1295,-0.6472,0.2056,1578,2019-08-07 16:50:24:728
-9.1454,-6.0047,5.3362,2.4346,-0.721,-4.251,0.1295,-0.6472,0.2056,1583,2019-08-07 16:50:24:733
-9.997,-5.6228,7.2877,2.4346,-0.721,-4.251,0.1295,-0.6472,0.2056,1588,2019-08-07 16:50:24:738
-9.997,-5.6228,7.2877,2.4346,-0.721,-4.251,0.2733,-0.9732,0.26,1593,2019-08-07 16:50:24:743
-10.8534,-5.1359,8.5321,2.4346,-0.721,-4.251,0.2733,-0.9732,0.26,1598,2019-08-07 16:50:24:748
-10.8534,-5.1359,8.5321,4.0467,-1.5598,-6.8212,0.3425,-1.2768,0.3271,1604,2019-08-07 16:50:24:754
-10.8534,-5.1359,8.5321,4.0467,-1.5598,-6.8212,0.3425,-1.2768,0.3271,1607,2019-08-07 16:50:24:757
-11.9538,-4.4055,10.4082,4.0467,-1.5598,-6.8212,0.3447,-1.6081,0.4091,1613,2019-08-07 16:50:24:763
-11.9538,-4.4055,10.4082,4.0467,-1.5598,-6.8212,0.3447,-1.6081,0.4091,1618,2019-08-07 16:50:24:768
-11.9538,-4.4055,10.4082,5.9147,-2.5582,-9.4789,0.2648,-2.0885,0.5337,1622,2019-08-07 16:50:24:772
-13.3508,-3.6417,12.5483,5.9147,-2.5582,-9.4789,0.2648,-2.0885,0.5337,1628,2019-08-07 16:50:24:778
-13.3508,-3.6417,12.5483,5.9147,-2.5582,-9.4789,0.1731,-2.4528,0.6019,1633,2019-08-07 16:50:24:783
-13.3508,-3.6417,12.5483,5.9147,-2.5582,-9.4789,0.1731,-2.4528,0.6019,1638,2019-08-07 16:50:24:788
-14.5038,-2.8826,13.2648,7.5482,-3.4645,-10.5132,0.1731,-2.4528,0.6019,1643,2019-08-07 16:50:24:793
-14.5038,-2.8826,13.2648,7.5482,-3.4645,-10.5132,-0.0293,-3.0728,0.6903,1648,2019-08-07 16:50:24:798
-15.0204,-2.1236,13.0951,7.5482,-3.4645,-10.5132,-0.0293,-3.0728,0.6903,1653,2019-08-07 16:50:24:803
-15.0204,-2.1236,13.0951,7.5482,-3.4645,-10.5132,-0.2093,-3.6427,0.766,1657,2019-08-07 16:50:24:807
-15.0204,-2.1236,13.0951,8.0758,-4.5127,-9.5726,-0.2093,-3.6427,0.766,1663,2019-08-07 16:50:24:813
-14.8338,-1.4362,12.4446,8.0758,-4.5127,-9.5726,-0.2998,-3.8888,0.816,1668,2019-08-07 16:50:24:818
-14.8338,-1.4362,12.4446,8.0758,-4.5127,-9.5726,-0.2998,-3.8888,0.816,1673,2019-08-07 16:50:24:823
-14.8338,-1.4362,12.4446,8.0758,-4.5127,-9.5726,-0.4309,-3.8771,0.8054,1678,2019-08-07 16:50:24:828
-14.7286,-0.5482,12.8453,8.0269,-5.5518,-9.0886,-0.4309,-3.8771,0.8054,1683,2019-08-07 16:50:24:833
-14.7286,-0.5482,12.8453,8.0269,-5.5518,-9.0886,-0.4309,-3.8771,0.8054,1688,2019-08-07 16:50:24:838
-14.7286,-0.5482,12.8453,8.0269,-5.5518,-9.0886,-0.6322,-3.7301,0.7809,1693,2019-08-07 16:50:24:843
-15.3457,-0.1377,14.1981,8.0269,-5.5518,-9.0886,-0.6322,-3.7301,0.7809,1698,2019-08-07 16:50:24:848
-15.3457,-0.1377,14.1981,10.3521,-6.3552,-11.8386,-0.8186,-3.6353,0.7947,1702,2019-08-07 16:50:24:852
-18.1302,0.7837,17.6816,10.3521,-6.3552,-11.8386,-0.8186,-3.6353,0.7947,1708,2019-08-07 16:50:24:858
-18.1302,0.7837,17.6816,10.3521,-6.3552,-11.8386,-1.118,-3.8494,0.8395,1712,2019-08-07 16:50:24:862
-18.1302,0.7837,17.6816,10.3521,-6.3552,-11.8386,-1.118,-3.8494,0.8395,1718,2019-08-07 16:50:24:868
-23.8808,2.7648,20.2035,17.6012,-8.7316,-15.5992,-1.7592,-4.8934,0.9598,1723,2019-08-07 16:50:24:873
-23.8808,2.7648,20.2035,17.6012,-8.7316,-15.5992,-1.7592,-4.8934,0.9598,1727,2019-08-07 16:50:24:877
-23.8808,2.7648,20.2035,17.6012,-8.7316,-15.5992,-2.4346,-6.3432,1.1154,1733,2019-08-07 16:50:24:883
-27.1437,4.0633,18.4123,17.6012,-8.7316,-15.5992,-2.4346,-6.3432,1.1154,1737,2019-08-07 16:50:24:887
-27.1437,4.0633,18.4123,17.6012,-8.7316,-15.5992,-2.4346,-6.3432,1.1154,1743,2019-08-07 16:50:24:893
-27.1484,4.3974,13.5146,21.7686,-10.4015,-10.8032,-3.0866,-8.0785,1.3337,1747,2019-08-07 16:50:24:897
-27.1484,4.3974,13.5146,21.7686,-10.4015,-10.8032,-3.0866,-8.0785,1.3337,1753,2019-08-07 16:50:24:903
-27.1484,4.3974,13.5146,21.7686,-10.4015,-10.8032,-3.8408,-10.1206,1.893,1758,2019-08-07 16:50:24:908
-22.9287,2.8316,6.9483,16.6816,-8.5568,-0.1822,-3.8408,-10.1206,1.893,1763,2019-08-07 16:50:24:913
-22.9287,2.8316,6.9483,16.6816,-8.5568,-0.1822,-4.1188,-10.3976,2.3362,1768,2019-08-07 16:50:24:918
-17.0919,0.5116,2.2203,16.6816,-8.5568,-0.1822,-4.1188,-10.3976,2.3362,1772,2019-08-07 16:50:24:922
-17.0919,0.5116,2.2203,16.6816,-8.5568,-0.1822,-4.1018,-9.7083,2.6951,1778,2019-08-07 16:50:24:928
-17.0919,0.5116,2.2203,16.6816,-8.5568,-0.1822,-4.1018,-9.7083,2.6951,1783,2019-08-07 16:50:24:933
-12.9584,-1.2786,-1.9702,9.3444,-5.4634,7.2485,-4.1018,-9.7083,2.6951,1787,2019-08-07 16:50:24:937
-12.9584,-1.2786,-1.9702,9.3444,-5.4634,7.2485,-3.8844,-7.7536,3.0243,1793,2019-08-07 16:50:24:943
-12.2311,-2.305,-3.2005,9.3444,-5.4634,7.2485,-3.8844,-7.7536,3.0243,1797,2019-08-07 16:50:24:947
-12.2311,-2.305,-3.2005,9.3444,-5.4634,7.2485,-3.6661,-5.7456,3.1276,1802,2019-08-07 16:50:24:952
-12.2311,-2.305,-3.2005,9.9298,-4.1207,8.5833,-3.6661,-5.7456,3.1276,1808,2019-08-07 16:50:24:958
-17.599,-2.6583,-1.282,9.9298,-4.1207,8.5833,-3.3838,-4.3181,3.1426,1813,2019-08-07 16:50:24:963
-17.599,-2.6583,-1.282,9.9298,-4.1207,8.5833,-3.3838,-4.3181,3.1426,1818,2019-08-07 16:50:24:968
-25.9954,-2.0902,-0.853,22.2754,-4.7263,6.8474,-3.2059,-3.9176,3.1202,1822,2019-08-07 16:50:24:972
-25.9954,-2.0902,-0.853,22.2754,-4.7263,6.8474,-3.2059,-3.9176,3.1202,1829,2019-08-07 16:50:24:979
-25.9954,-2.0902,-0.853,22.2754,-4.7263,6.8474,-3.1558,-4.0443,3.1809,1833,2019-08-07 16:50:24:983
-29.2152,-2.0663,-5.4537,22.2754,-4.7263,6.8474,-3.1558,-4.0443,3.1809,1838,2019-08-07 16:50:24:988
-29.2152,-2.0663,-5.4537,22.2754,-4.7263,6.8474,-3.3444,-4.6281,3.0754,1842,2019-08-07 16:50:24:992
-23.852,-3.1022,-10.5069,22.7036,-4.2015,14.1224,-3.3444,-4.6281,3.0754,1848,2019-08-07 16:50:24:998
-23.852,-3.1022,-10.5069,22.7036,-4.2015,14.1224,-3.8791,-7.2732,2.7101,1853,2019-08-07 16:50:25:003
-23.852,-3.1022,-10.5069,22.7036,-4.2015,14.1224,-3.8791,-7.2732,2.7101,1857,2019-08-07 16:50:25:007
-18.8764,-3.5128,-14.7541,22.7036,-4.2015,14.1224,-3.8791,-7.2732,2.7101,1863,2019-08-07 16:50:25:013
-18.8764,-3.5128,-14.7541,13.2187,-3.6118,21.3893,-4.2488,-10.1675,2.48,1867,2019-08-07 16:50:25:017
-13.652,-4.1382,-17.3372,13.2187,-3.6118,21.3893,-4.2488,-10.1675,2.48,1873,2019-08-07 16:50:25:023
-13.652,-4.1382,-17.3372,13.2187,-3.6118,21.3893,-4.1667,-12.3033,2.1828,1878,2019-08-07 16:50:25:028
-13.652,-4.1382,-17.3372,13.2187,-3.6118,21.3893,-4.1667,-12.3033,2.1828,1883,2019-08-07 16:50:25:033
-7.2363,-5.2361,-13.7312,5.5731,-2.4397,19.7638,-3.6597,-12.1308,1.6853,1888,2019-08-07 16:50:25:038
-7.2363,-5.2361,-13.7312,5.5731,-2.4397,19.7638,-3.6597,-12.1308,1.6853,1892,2019-08-07 16:50:25:042
-5.8728,-5.7374,-14.9096,5.5731,-2.4397,19.7638,-2.4549,-7.6183,1.1122,1898,2019-08-07 16:50:25:048
-5.8728,-5.7374,-14.9096,1.739,-2.81,29.4496,-2.4549,-7.6183,1.1122,1903,2019-08-07 16:50:25:053
-5.8728,-5.7374,-14.9096,1.739,-2.81,29.4496,-2.4549,-7.6183,1.1122,1907,2019-08-07 16:50:25:057
-3.6577,-4.6108,-27.3918,1.739,-2.81,29.4496,-2.2013,-2.3953,0.6253,1913,2019-08-07 16:50:25:063
-3.6577,-4.6108,-27.3918,4.4566,-3.8108,34.8562,-2.2013,-2.3953,0.6253,1918,2019-08-07 16:50:25:068
-6.1407,-4.7731,-28.8719,4.4566,-3.8108,34.8562,-2.7009,1.1872,0.3122,1923,2019-08-07 16:50:25:073
-6.1407,-4.7731,-28.8719,4.4566,-3.8108,34.8562,-2.7009,1.1872,0.3122,1928,2019-08-07 16:50:25:078
-6.1407,-4.7731,-28.8719,4.4566,-3.8108,34.8562,-3.4732,3.6309,-0.5528,1932,2019-08-07 16:50:25:082
-3.8347,-7.9524,-15.9278,2.172,-0.4337,20.7386,-3.4732,3.6309,-0.5528,1938,2019-08-07 16:50:25:088
-3.8347,-7.9524,-15.9278,2.172,-0.4337,20.7386,-3.4732,3.6309,-0.5528,1943,2019-08-07 16:50:25:093
-4.6385,-7.7185,-12.9157,2.172,-0.4337,20.7386,-3.6203,0.3019,-1.3188,1948,2019-08-07 16:50:25:098
-4.6385,-7.7185,-12.9157,2.172,-0.4337,20.7386,-3.6203,0.3019,-1.3188,1953,2019-08-07 16:50:25:103
-4.6385,-7.7185,-12.9157,2.9497,-2.0442,16.5405,-3.3976,-2.5903,-1.4786,1957,2019-08-07 16:50:25:107
-2.7774,-7.0359,-11.8786,2.9497,-2.0442,16.5405,-3.3976,-2.5903,-1.4786,1963,2019-08-07 16:50:25:113
-2.7774,-7.0359,-11.8786,2.9497,-2.0442,16.5405,-2.7009,-4.0816,-1.2825,1968,2019-08-07 16:50:25:118
0.3994,-8.826,-11.6759,2.9497,-2.0442,16.5405,-2.7009,-4.0816,-1.2825,1972,2019-08-07 16:50:25:122
0.3994,-8.826,-11.6759,-2.1695,0.2297,15.3684,-1.6815,-4.6824,-1.0748,1978,2019-08-07 16:50:25:128
0.3994,-8.826,-11.6759,-2.1695,0.2297,15.3684,-1.6815,-4.6824,-1.0748,1983,2019-08-07 16:50:25:133
3.3369,-10.3394,-12.152,-2.1695,0.2297,15.3684,-0.2966,-3.8217,-0.9257,1988,2019-08-07 16:50:25:138
3.3369,-10.3394,-12.152,-2.1695,0.2297,15.3684,-0.2966,-3.8217,-0.9257,1993,2019-08-07 16:50:25:143
6.04,-10.7785,-14.5891,-6.5304,1.6311,18.0989,-0.2966,-3.8217,-0.9257,1998,2019-08-07 16:50:25:148
6.04,-10.7785,-14.5891,-6.5304,1.6311,18.0989,0.8613,-0.9284,-0.8341,2002,2019-08-07 16:50:25:152
8.4847,-10.0959,-18.987,-6.5304,1.6311,18.0989,0.8613,-0.9284,-0.8341,2008,2019-08-07 16:50:25:158
8.4847,-10.0959,-18.987,-6.5304,1.6311,18.0989,1.0648,1.0412,-0.5614,2013,2019-08-07 16:50:25:163
8.4847,-10.0959,-18.987,-7.4517,0.1932,23.0623,1.0648,1.0412,-0.5614,2017,2019-08-07 16:50:25:167
7.3605,-9.122,-18.4732,-7.4517,0.1932,23.0623,0.9103,3.4445,-0.4218,2023,2019-08-07 16:50:25:173
7.3605,-9.122,-18.4732,-7.4517,0.1932,23.0623,0.9103,3.4445,-0.4218,2027,2019-08-07 16:50:25:177
7.3605,-9.122,-18.4732,-7.4517,0.1932,23.0623,0.6845,5.004,-0.3483,2033,2019-08-07 16:50:25:183
4.7099,-8.0479,-13.1608,-4.6203,-1.167,15.5452,0.6845,5.004,-0.3483,2037,2019-08-07 16:50:25:187
4.7099,-8.0479,-13.1608,-4.6203,-1.167,15.5452,0.7463,5.9116,-0.1811,2043,2019-08-07 16:50:25:193
0.8299,-7.5753,-4.9211,-4.6203,-1.167,15.5452,0.7463,5.9116,-0.1811,2048,2019-08-07 16:50:25:198
0.8299,-7.5753,-4.9211,-4.6203,-1.167,15.5452,1.2863,6.0064,0.1151,2053,2019-08-07 16:50:25:203
0.8299,-7.5753,-4.9211,-0.655,-1.1792,11.0746,1.2863,6.0064,0.1151,2058,2019-08-07 16:50:25:208
-1.4283,-7.7663,-7.952,-0.655,-1.1792,11.0746,1.7678,5.8392,0.3601,2062,2019-08-07 16:50:25:212
-1.4283,-7.7663,-7.952,-0.655,-1.1792,11.0746,1.7678,5.8392,0.3601,2068,2019-08-07 16:50:25:218
-4.2223,-7.0597,-3.5682,-0.655,-1.1792,11.0746,2.4102,5.8179,0.5465,2073,2019-08-07 16:50:25:223
-4.2223,-7.0597,-3.5682,3.2144,-2.0586,8.3247,2.4102,5.8179,0.5465,2078,2019-08-07 16:50:25:228
-4.2223,-7.0597,-3.5682,3.2144,-2.0586,8.3247,2.7894,5.3396,0.6445,2083,2019-08-07 16:50:25:233
-6.3512,-6.2768,-5.4207,3.2144,-2.0586,8.3247,2.7894,5.3396,0.6445,2088,2019-08-07 16:50:25:238
-6.3512,-6.2768,-5.4207,3.2144,-2.0586,8.3247,2.7894,5.3396,0.6445,2092,2019-08-07 16:50:25:242
-6.3512,-6.2768,-5.4207,3.2144,-2.0586,8.3247,2.8502,4.8815,0.6925,2098,2019-08-07 16:50:25:248
-6.7866,-5.6467,-6.2975,4.706,-3.0227,10.3901,2.8502,4.8815,0.6925,2103,2019-08-07 16:50:25:253
-6.7866,-5.6467,-6.2975,4.706,-3.0227,10.3901,2.5828,4.2913,0.7095,2109,2019-08-07 16:50:25:259
-7.5999,-5.3698,-7.5419,4.706,-3.0227,10.3901,2.5828,4.2913,0.7095,2112,2019-08-07 16:50:25:262
-7.5999,-5.3698,-7.5419,6.2192,-3.3759,10.0317,2.2824,4.825,0.6488,2118,2019-08-07 16:50:25:268
-8.6907,-5.408,-3.4315,6.2192,-3.3759,10.0317,2.2824,4.825,0.6488,2123,2019-08-07 16:50:25:273
-8.6907,-5.408,-3.4315,6.2192,-3.3759,10.0317,2.5892,6.0927,0.5859,2128,2019-08-07 16:50:25:278
-8.6907,-5.408,-3.4315,6.2192,-3.3759,10.0317,2.5892,6.0927,0.5859,2132,2019-08-07 16:50:25:282
-10.3795,-6.2339,-4.4544,7.3175,-2.0113,9.2689,2.5892,6.0927,0.5859,2138,2019-08-07 16:50:25:288
-10.3795,-6.2339,-4.4544,7.3175,-2.0113,9.2689,2.7532,6.6328,0.4432,2143,2019-08-07 16:50:25:293
-12.0732,-5.7087,-6.1985,7.3175,-2.0113,9.2689,2.7532,6.6328,0.4432,2147,2019-08-07 16:50:25:297
-12.0732,-5.7087,-6.1985,7.3175,-2.0113,9.2689,2.6627,7.2624,0.2333,2153,2019-08-07 16:50:25:303
-12.0732,-5.7087,-6.1985,10.1212,-2.7246,9.922,2.6627,7.2624,0.2333,2158,2019-08-07 16:50:25:308
-14.6519,-5.2314,-5.4773,10.1212,-2.7246,9.922,2.6126,7.7567,0.1513,2163,2019-08-07 16:50:25:313
-14.6519,-5.2314,-5.4773,10.1212,-2.7246,9.922,2.6126,7.7567,0.1513,2169,2019-08-07 16:50:25:319
-16.4938,-5.5464,-3.2476,10.1212,-2.7246,9.922,2.6126,7.7567,0.1513,2173,2019-08-07 16:50:25:323
-16.4938,-5.5464,-3.2476,10.1212,-2.7246,9.922,2.6914,7.7897,0.1971,2178,2019-08-07 16:50:25:328
-16.4938,-5.5464,-3.2476,12.3515,-2.0666,5.8835,2.6914,7.7897,0.1971,2182,2019-08-07 16:50:25:332
-17.709,-5.6562,-0.0847,12.3515,-2.0666,5.8835,2.6914,7.7897,0.1971,2188,2019-08-07 16:50:25:338
-17.709,-5.6562,-0.0847,12.3515,-2.0666,5.8835,2.831,7.0781,0.2035,2193,2019-08-07 16:50:25:343
-18.5462,-5.5655,2.3241,13.2047,-1.8659,1.2083,2.831,7.0781,0.2035,2198,2019-08-07 16:50:25:348
-18.5462,-5.5655,2.3241,13.2047,-1.8659,1.2083,2.8747,5.6666,0.13,2203,2019-08-07 16:50:25:353
-18.5462,-5.5655,2.3241,13.2047,-1.8659,1.2083,2.8747,5.6666,0.13,2208,2019-08-07 16:50:25:358
-18.4075,-5.6324,1.716,12.84,-1.6789,1.7168,2.8747,5.6666,0.13,2213,2019-08-07 16:50:25:363
-18.4075,-5.6324,1.716,12.84,-1.6789,1.7168,2.6094,4.6887,-0.0064,2218,2019-08-07 16:50:25:368
-18.4075,-5.6324,1.716,12.84,-1.6789,1.7168,2.6094,4.6887,-0.0064,2222,2019-08-07 16:50:25:372
-15.1877,-5.4319,0.8062,7.8676,-1.4223,2.6049,2.3708,5.0882,-0.1012,2230,2019-08-07 16:50:25:380
-15.1877,-5.4319,0.8062,7.8676,-1.4223,2.6049,2.3708,5.0882,-0.1012,2232,2019-08-07 16:50:25:382
-13.1878,-6.0286,-1.48,7.8676,-1.4223,2.6049,2.6009,5.9287,-0.197,2238,2019-08-07 16:50:25:388
-13.1878,-6.0286,-1.48,7.8676,-1.4223,2.6049,2.6009,5.9287,-0.197,2242,2019-08-07 16:50:25:392
-13.5227,-5.8376,-3.5305,7.8676,-1.4223,2.6049,2.6009,5.9287,-0.197,2248,2019-08-07 16:50:25:398
-13.5227,-5.8376,-3.5305,7.5935,-1.3137,6.8473,2.7426,7.126,-0.197,2252,2019-08-07 16:50:25:402
-13.5227,-5.8376,-3.5305,7.5935,-1.3137,6.8473,2.7426,7.126,-0.197,2258,2019-08-07 16:50:25:408
-16.1732,-4.6919,-2.6443,7.5935,-1.3137,6.8473,2.8725,8.2445,-0.1427,2262,2019-08-07 16:50:25:412
-16.1732,-4.6919,-2.6443,7.5935,-1.3137,6.8473,2.8725,8.2445,-0.1427,2268,2019-08-07 16:50:25:418
-16.1732,-4.6919,-2.6443,13.0433,-3.2678,-0.1031,3.1431,8.6834,-0.0181,2273,2019-08-07 16:50:25:423
-21.6703,-3.0115,4.0682,13.0433,-3.2678,-0.1031,3.1431,8.6834,-0.0181,2278,2019-08-07 16:50:25:428
-21.6703,-3.0115,4.0682,13.0433,-3.2678,-0.1031,3.1356,8.0049,0.0448,2283,2019-08-07 16:50:25:433
-24.8709,-1.947,7.9854,13.0433,-3.2678,-0.1031,3.1356,8.0049,0.0448,2288,2019-08-07 16:50:25:438
-24.8709,-1.947,7.9854,18.2666,-4.9172,-6.941,3.1356,8.0049,0.0448,2293,2019-08-07 16:50:25:443
-24.8709,-1.947,7.9854,18.2666,-4.9172,-6.941,2.8427,6.1076,0.0054,2298,2019-08-07 16:50:25:448
-25.7369,-1.3884,9.3241,18.2666,-4.9172,-6.941,2.8427,6.1076,0.0054,2303,2019-08-07 16:50:25:453
-25.7369,-1.3884,9.3241,18.2666,-4.9172,-6.941,2.4134,3.5883,-0.0831,2308,2019-08-07 16:50:25:458
-21.5937,-1.9518,9.4702,15.4144,-4.8085,-8.7348,2.4134,3.5883,-0.0831,2313,2019-08-07 16:50:25:463
-21.5937,-1.9518,9.4702,15.4144,-4.8085,-8.7348,2.1322,1.919,-0.1651,2318,2019-08-07 16:50:25:468
-21.5937,-1.9518,9.4702,15.4144,-4.8085,-8.7348,2.1322,1.919,-0.1651,2322,2019-08-07 16:50:25:472
-15.6565,-2.9638,7.7638,15.4144,-4.8085,-8.7348,2.1322,1.919,-0.1651,2328,2019-08-07 16:50:25:478
-15.6565,-2.9638,7.7638,5.9514,-3.2602,-8.6474,2.3442,2.5933,-0.2929,2333,2019-08-07 16:50:25:483
-15.6565,-2.9638,7.7638,5.9514,-3.2602,-8.6474,2.3442,2.5933,-0.2929,2338,2019-08-07 16:50:25:488
-12.3936,-2.8922,4.7046,5.9514,-3.2602,-8.6474,2.6019,3.0748,-0.425,2342,2019-08-07 16:50:25:492
-12.3936,-2.8922,4.7046,5.9514,-3.2602,-8.6474,2.6019,3.0748,-0.425,2348,2019-08-07 16:50:25:498
-13.1112,-2.1666,6.0386,5.42,-4.2438,-4.5111,2.5157,3.8759,-0.4293,2353,2019-08-07 16:50:25:503
-13.1112,-2.1666,6.0386,5.42,-4.2438,-4.5111,2.5157,3.8759,-0.4293,2358,2019-08-07 16:50:25:508
-13.1112,-2.1666,6.0386,5.42,-4.2438,-4.5111,2.6041,4.6248,-0.3781,2362,2019-08-07 16:50:25:512
-16.5367,-1.2834,8.3908,5.42,-4.2438,-4.5111,2.6041,4.6248,-0.3781,2368,2019-08-07 16:50:25:518
-16.5367,-1.2834,8.3908,10.0236,-5.4911,-8.3023,2.7841,4.531,-0.2279,2372,2019-08-07 16:50:25:522
-18.2208,-0.6008,9.4844,10.0236,-5.4911,-8.3023,2.7841,4.531,-0.2279,2378,2019-08-07 16:50:25:528
-18.2208,-0.6008,9.4844,10.0236,-5.4911,-8.3023,2.8012,3.8024,-0.1129,2383,2019-08-07 16:50:25:533
-18.2208,-0.6008,9.4844,10.0236,-5.4911,-8.3023,2.8012,3.8024,-0.1129,2388,2019-08-07 16:50:25:538
-19.0676,0.1392,10.4036,11.6809,-6.579,-9.9542,2.7564,2.5837,-0.0671,2392,2019-08-07 16:50:25:542
-19.0676,0.1392,10.4036,11.6809,-6.579,-9.9542,2.7564,2.5837,-0.0671,2398,2019-08-07 16:50:25:548
-18.0772,0.3015,10.5638,11.6809,-6.579,-9.9542,2.6659,1.0434,0.0086,2403,2019-08-07 16:50:25:553
-18.0772,0.3015,10.5638,11.6809,-6.579,-9.9542,2.6659,1.0434,0.0086,2408,2019-08-07 16:50:25:558
-18.0772,0.3015,10.5638,8.7561,-6.2822,-8.5231,2.5434,-0.0592,0.0576,2413,2019-08-07 16:50:25:563
-14.4651,-0.4767,8.1409,8.7561,-6.2822,-8.5231,2.5434,-0.0592,0.0576,2418,2019-08-07 16:50:25:568
-14.4651,-0.4767,8.1409,8.7561,-6.2822,-8.5231,2.1833,-1.1202,0.0022,2423,2019-08-07 16:50:25:573
-14.4651,-0.4767,8.1409,8.7561,-6.2822,-8.5231,2.1833,-1.1202,0.0022,2427,2019-08-07 16:50:25:577
-9.7287,-1.8563,5.8595,2.2967,-4.4498,-4.7486,1.8659,-1.3279,-0.1203,2433,2019-08-07 16:50:25:583
-9.7287,-1.8563,5.8595,2.2967,-4.4498,-4.7486,1.8659,-1.3279,-0.1203,2438,2019-08-07 16:50:25:588
-9.7287,-1.8563,5.8595,2.2967,-4.4498,-4.7486,1.8659,-1.3279,-0.1203,2443,2019-08-07 16:50:25:593
-7.1213,-2.7538,4.3652,-0.2919,-3.5318,-3.034,1.5931,-0.9636,-0.246,2448,2019-08-07 16:50:25:598
-7.1213,-2.7538,4.3652,-0.2919,-3.5318,-3.034,1.5931,-0.9636,-0.246,2452,2019-08-07 16:50:25:602
-4.7053,-4.248,2.5315,-0.2919,-3.5318,-3.034,1.1553,0.2497,-0.3664,2458,2019-08-07 16:50:25:608
-4.7053,-4.248,2.5315,-2.9856,-1.672,-0.9518,1.1553,0.2497,-0.3664,2463,2019-08-07 16:50:25:613
-4.7053,-4.248,2.5315,-2.9856,-1.672,-0.9518,0.9167,1.1318,-0.4367,2468,2019-08-07 16:50:25:618
-4.8584,-5.0404,2.6117,-2.9856,-1.672,-0.9518,0.9167,1.1318,-0.4367,2473,2019-08-07 16:50:25:623
-4.8584,-5.0404,2.6117,-2.9856,-1.672,-0.9518,0.7857,1.7496,-0.4484,2478,2019-08-07 16:50:25:628
-7.394,-5.198,3.9975,0.0461,-1.1277,-2.5043,0.7857,1.7496,-0.4484,2483,2019-08-07 16:50:25:633
-7.394,-5.198,3.9975,0.0461,-1.1277,-2.5043,0.7857,1.7496,-0.4484,2488,2019-08-07 16:50:25:638
-7.394,-5.198,3.9975,0.0461,-1.1277,-2.5043,0.7015,1.6729,-0.3792,2492,2019-08-07 16:50:25:642
-9.7335,-4.8113,5.2278,2.3819,-1.5275,-3.8102,0.7015,1.6729,-0.3792,2498,2019-08-07 16:50:25:648
-9.7335,-4.8113,5.2278,2.3819,-1.5275,-3.8102,0.6365,0.9027,-0.2961,2503,2019-08-07 16:50:25:653
-11.207,-3.9043,5.2702,2.3819,-1.5275,-3.8102,0.6365,0.9027,-0.2961,2508,2019-08-07 16:50:25:658
-11.207,-3.9043,5.2702,2.3819,-1.5275,-3.8102,0.6365,0.9027,-0.2961,2512,2019-08-07 16:50:25:662
-11.207,-3.9043,5.2702,3.3648,-2.5819,-3.2519,0.4576,-0.4704,-0.1693,2518,2019-08-07 16:50:25:668
-9.1976,-3.804,3.4319,3.3648,-2.5819,-3.2519,0.2488,-1.3545,-0.099,2523,2019-08-07 16:50:25:673
-9.1976,-3.804,3.4319,3.3648,-2.5819,-3.2519,0.2488,-1.3545,-0.099,2528,2019-08-07 16:50:25:678
-6.2745,-4.4294,1.7349,-1.0356,-1.9064,-0.1047,0.2488,-1.3545,-0.099,2533,2019-08-07 16:50:25:683
-6.2745,-4.4294,1.7349,-1.0356,-1.9064,-0.1047,0.0954,-1.4824,-0.0873,2537,2019-08-07 16:50:25:687
-6.2745,-4.4294,1.7349,-1.0356,-1.9064,-0.1047,0.0954,-1.4824,-0.0873,2543,2019-08-07 16:50:25:693
-4.7052,-4.9115,0.8534,-2.5733,-1.4304,0.8901,0.0432,-1.149,-0.1054,2548,2019-08-07 16:50:25:698
-4.7052,-4.9115,0.8534,-2.5733,-1.4304,0.8901,0.0432,-1.149,-0.1054,2553,2019-08-07 16:50:25:703
-4.7052,-4.9115,0.8534,-2.5733,-1.4304,0.8901,0.0432,-1.149,-0.1054,2558,2019-08-07 16:50:25:708
-3.7579,-5.3937,0.0426,-3.4378,-0.7526,1.5439,-0.0452,-0.3319,-0.099,2563,2019-08-07 16:50:25:713
-3.7579,-5.3937,0.0426,-3.4378,-0.7526,1.5439,-0.0452,-0.3319,-0.099,2568,2019-08-07 16:50:25:718
-3.7579,-5.3937,0.0426,-3.4378,-0.7526,1.5439,-0.0655,0.4489,-0.1203,2572,2019-08-07 16:50:25:722
-4.6909,-5.9236,0.6177,-3.4378,-0.7526,1.5439,-0.0655,0.4489,-0.1203,2578,2019-08-07 16:50:25:728
-4.6909,-5.9236,0.6177,-3.4378,-0.7526,1.5439,-0.0293,0.875,-0.1171,2583,2019-08-07 16:50:25:733
-6.15,-5.9475,1.4144,-1.3804,-0.3907,0.4221,-0.0293,0.875,-0.1171,2587,2019-08-07 16:50:25:737
-6.15,-5.9475,1.4144,-1.3804,-0.3907,0.4221,-0.0293,0.875,-0.1171,2593,2019-08-07 16:50:25:743
-7.2935,-5.6897,2.0884,-1.3804,-0.3907,0.4221,0.0251,0.9858,-0.1022,2598,2019-08-07 16:50:25:748
-7.2935,-5.6897,2.0884,-1.3804,-0.3907,0.4221,0.0251,0.9858,-0.1022,2602,2019-08-07 16:50:25:752
-7.2935,-5.6897,2.0884,0.7943,-0.9738,-1.0139,0.0858,0.7547,-0.0745,2608,2019-08-07 16:50:25:758
-8.4034,-5.3316,2.9181,0.7943,-0.9738,-1.0139,0.0858,0.7547,-0.0745,2613,2019-08-07 16:50:25:763
-8.4034,-5.3316,2.9181,0.7943,-0.9738,-1.0139,0.1018,0.3328,-0.033,2618,2019-08-07 16:50:25:768
-8.4034,-5.3316,2.9181,0.7943,-0.9738,-1.0139,0.1018,0.3328,-0.033,2623,2019-08-07 16:50:25:773
-8.633,-5.2075,2.9841,1.3725,-1.1944,-1.3914,0.0805,-0.1465,0.0149,2628,2019-08-07 16:50:25:778
-8.633,-5.2075,2.9841,1.3725,-1.1944,-1.3914,0.0805,-0.1465,0.0149,2633,2019-08-07 16:50:25:783
-7.7527,-5.408,2.5127,1.3725,-1.1944,-1.3914,0.0805,-0.1465,0.0149,2638,2019-08-07 16:50:25:788
-7.7527,-5.408,2.5127,1.3725,-1.1944,-1.3914,0.0261,-0.6621,0.0639,2642,2019-08-07 16:50:25:792
-7.7527,-5.408,2.5127,-0.0489,-0.8203,-0.3618,0.0261,-0.6621,0.0639,2648,2019-08-07 16:50:25:798
-6.9442,-5.6276,1.8905,-0.0489,-0.8203,-0.3618,-0.0069,-0.7218,0.0629,2653,2019-08-07 16:50:25:803
-6.9442,-5.6276,1.8905,-0.0489,-0.8203,-0.3618,-0.0069,-0.7218,0.0629,2658,2019-08-07 16:50:25:808
-6.3796,-5.8806,1.5982,-0.0489,-0.8203,-0.3618,-0.0527,-0.6238,0.0533,2663,2019-08-07 16:50:25:813
-6.3796,-5.8806,1.5982,-0.9037,-0.511,0.1654,-0.0527,-0.6238,0.0533,2667,2019-08-07 16:50:25:817
-6.3796,-5.8806,1.5982,-0.9037,-0.511,0.1654,-0.1347,-0.3521,0.0416,2673,2019-08-07 16:50:25:823
-6.1978,-6.0382,1.5416,-1.0364,-0.339,0.2567,-0.1347,-0.3521,0.0416,2677,2019-08-07 16:50:25:827
-6.1978,-6.0382,1.5416,-1.0364,-0.339,0.2567,-0.1827,-0.0805,0.016,2683,2019-08-07 16:50:25:833
-6.1978,-6.0382,1.5416,-1.0364,-0.339,0.2567,-0.1827,-0.0805,0.016,2688,2019-08-07 16:50:25:838
-6.6619,-6.0716,1.848,-1.0364,-0.339,0.2567,-0.2114,0.14,-0.0149,2693,2019-08-07 16:50:25:843
-6.6619,-6.0716,1.848,-0.2638,-0.3314,-0.2058,-0.2114,0.14,-0.0149,2698,2019-08-07 16:50:25:848
-7.4704,-5.9618,2.3006,-0.2638,-0.3314,-0.2058,-0.2114,0.14,-0.0149,2703,2019-08-07 16:50:25:853
-7.4704,-5.9618,2.3006,-0.2638,-0.3314,-0.2058,-0.2327,0.221,-0.0383,2708,2019-08-07 16:50:25:858
-7.4704,-5.9618,2.3006,-0.2638,-0.3314,-0.2058,-0.2327,0.221,-0.0383,2713,2019-08-07 16:50:25:863
-8.1067,-5.7756,2.5127,0.8696,-0.6171,-0.7828,-0.2487,0.1134,-0.0511,2718,2019-08-07 16:50:25:868
-8.1067,-5.7756,2.5127,0.8696,-0.6171,-0.7828,-0.2487,0.1134,-0.0511,2723,2019-08-07 16:50:25:873
-8.4799,-5.7326,2.6023,0.8696,-0.6171,-0.7828,-0.2508,-0.0762,-0.0596,2728,2019-08-07 16:50:25:878
-8.4799,-5.7326,2.6023,0.8696,-0.6171,-0.7828,-0.2508,-0.0762,-0.0596,2733,2019-08-07 16:50:25:883
-8.4799,-5.7326,2.6023,1.1607,-0.6503,-0.824,-0.237,-0.382,-0.0564,2738,2019-08-07 16:50:25:888
-8.2359,-5.7947,2.409,1.1607,-0.6503,-0.824,-0.237,-0.382,-0.0564,2743,2019-08-07 16:50:25:893
-8.2359,-5.7947,2.409,1.1607,-0.6503,-0.824,-0.237,-0.382,-0.0564,2748,2019-08-07 16:50:25:898
-7.5757,-5.8854,1.8103,1.1607,-0.6503,-0.824,-0.2221,-0.5588,-0.0468,2753,2019-08-07 16:50:25:903
-7.5757,-5.8854,1.8103,0.2807,-0.536,0.0927,-0.2221,-0.5588,-0.0468,2758,2019-08-07 16:50:25:908
-7.5757,-5.8854,1.8103,0.2807,-0.536,0.0927,-0.2082,-0.6259,-0.049,2762,2019-08-07 16:50:25:912
-7.1499,-5.9857,1.6171,0.2807,-0.536,0.0927,-0.2082,-0.6259,-0.049,2768,2019-08-07 16:50:25:918
-7.1499,-5.9857,1.6171,0.2807,-0.536,0.0927,-0.188,-0.5812,-0.0522,2772,2019-08-07 16:50:25:922
-7.1499,-5.9857,1.6171,-0.4431,-0.3347,0.2536,-0.188,-0.5812,-0.0522,2778,2019-08-07 16:50:25:928
-6.6332,-6.1527,1.5417,-0.4431,-0.3347,0.2536,-0.1784,-0.4949,-0.0543,2783,2019-08-07 16:50:25:933
-6.6332,-6.1527,1.5417,-0.4431,-0.3347,0.2536,-0.1784,-0.4949,-0.0543,2787,2019-08-07 16:50:25:937
-6.4466,-6.1909,1.4427,-0.4431,-0.3347,0.2536,-0.1773,-0.3969,-0.0628,2793,2019-08-07 16:50:25:943
-6.4466,-6.1909,1.4427,-0.7188,-0.2943,0.361,-0.1773,-0.3969,-0.0628,2797,2019-08-07 16:50:25:947
-6.4466,-6.1909,1.4427,-0.7188,-0.2943,0.361,-0.1773,-0.3969,-0.0628,2803,2019-08-07 16:50:25:953
-6.3509,-6.1002,1.5511,-0.7188,-0.2943,0.361,-0.1784,-0.2999,-0.0575,2807,2019-08-07 16:50:25:957
-6.3509,-6.1002,1.5511,-0.7188,-0.2943,0.361,-0.1784,-0.2999,-0.0575,2813,2019-08-07 16:50:25:963
-6.3509,-6.1002,1.5511,-0.9047,-0.3968,0.3793,-0.1795,-0.2509,-0.0341,2818,2019-08-07 16:50:25:968
-6.2456,-6.0429,1.4992,-0.9047,-0.3968,0.3793,-0.1795,-0.2509,-0.0341,2822,2019-08-07 16:50:25:972
-6.2456,-6.0429,1.4992,-0.9047,-0.3968,0.3793,-0.1773,-0.186,-0.0138,2828,2019-08-07 16:50:25:978
-6.2073,-5.9809,1.4804,-0.9416,-0.4697,0.4575,-0.1773,-0.186,-0.0138,2833,2019-08-07 16:50:25:983
-6.2073,-5.9809,1.4804,-0.9416,-0.4697,0.4575,-0.1667,-0.1156,0.0267,2838,2019-08-07 16:50:25:988
-6.2073,-5.9809,1.4804,-0.9416,-0.4697,0.4575,-0.1667,-0.1156,0.0267,2843,2019-08-07 16:50:25:993
-6.3413,-5.9857,1.4945,-0.7902,-0.441,0.4009,-0.1454,-0.0997,0.065,2848,2019-08-07 16:50:25:998
-6.3413,-5.9857,1.4945,-0.7902,-0.441,0.4009,-0.1454,-0.0997,0.065,2853,2019-08-07 16:50:26:003
-6.437,-6.1098,1.3861,-0.7902,-0.441,0.4009,-0.1454,-0.0997,0.065,2858,2019-08-07 16:50:26:008
-6.437,-6.1098,1.3861,-0.7902,-0.441,0.4009,-0.1134,-0.0805,0.097,2863,2019-08-07 16:50:26:013
-6.437,-6.1098,1.3861,-0.616,-0.3965,0.5166,-0.1134,-0.0805,0.097,2867,2019-08-07 16:50:26:017
-6.6092,-6.0764,1.3908,-0.616,-0.3965,0.5166,-0.0932,-0.0773,0.1076,2873,2019-08-07 16:50:26:023
-6.6092,-6.0764,1.3908,-0.616,-0.3965,0.5166,-0.0932,-0.0773,0.1076,2878,2019-08-07 16:50:26:028
-6.7479,-6.0429,1.2683,-0.616,-0.3965,0.5166,-0.09,-0.0794,0.1183,2883,2019-08-07 16:50:26:033
-6.7479,-6.0429,1.2683,-0.4516,-0.4172,0.6019,-0.09,-0.0794,0.1183,2888,2019-08-07 16:50:26:038
-6.7479,-6.0429,1.2683,-0.4516,-0.4172,0.6019,-0.0889,-0.073,0.1215,2892,2019-08-07 16:50:26:042
-6.7958,-6.1289,1.3343,-0.4516,-0.4172,0.6019,-0.0889,-0.073,0.1215,2898,2019-08-07 16:50:26:048
-6.7958,-6.1289,1.3343,-0.4516,-0.4172,0.6019,-0.0857,-0.0571,0.1129,2903,2019-08-07 16:50:26:053
-6.7958,-6.1289,1.3343,-0.4516,-0.4172,0.6019,-0.0857,-0.0571,0.1129,2907,2019-08-07 16:50:26:057
-6.8053,-6.0716,1.339,-0.3596,-0.3659,0.5207,-0.0889,-0.04,0.097,2913,2019-08-07 16:50:26:063
-6.8053,-6.0716,1.339,-0.3596,-0.3659,0.5207,-0.0889,-0.04,0.097,2917,2019-08-07 16:50:26:067
-6.8149,-6.0859,1.2824,-0.3596,-0.3659,0.5207,-0.0921,-0.0208,0.0853,2923,2019-08-07 16:50:26:073
-6.8149,-6.0859,1.2824,-0.3596,-0.3659,0.5207,-0.0921,-0.0208,0.0853,2928,2019-08-07 16:50:26:078
-6.8149,-6.0859,1.2824,-0.3087,-0.3375,0.5281,-0.0996,-0.0081,0.0703,2933,2019-08-07 16:50:26:083
-6.8771,-6.0907,1.3248,-0.3087,-0.3375,0.5281,-0.0996,-0.0081,0.0703,2937,2019-08-07 16:50:26:087
-6.8771,-6.0907,1.3248,-0.3087,-0.3375,0.5281,-0.0974,-6.0E-4,0.0639,2943,2019-08-07 16:50:26:093
-7.0062,-6.0048,1.3013,-0.1701,-0.4315,0.4936,-0.0974,-6.0E-4,0.0639,2948,2019-08-07 16:50:26:098
-7.0062,-6.0048,1.3013,-0.1701,-0.4315,0.4936,-0.0974,-6.0E-4,0.0639,2953,2019-08-07 16:50:26:103
-7.0062,-6.0048,1.3013,-0.1701,-0.4315,0.4936,-0.0921,-0.0187,0.0586,2958,2019-08-07 16:50:26:108
-7.0636,-6.0382,1.3484,-0.1701,-0.4315,0.4936,-0.0921,-0.0187,0.0586,2962,2019-08-07 16:50:26:112
-7.0636,-6.0382,1.3484,-0.1701,-0.4315,0.4936,-0.0836,-0.0187,0.0448,2968,2019-08-07 16:50:26:118
-7.0636,-6.0382,1.3484,-0.1158,-0.3737,0.4668,-0.0836,-0.0187,0.0448,2973,2019-08-07 16:50:26:123
-7.0684,-6.0191,1.3861,-0.1158,-0.3737,0.4668,-0.0719,-0.0198,0.0309,2978,2019-08-07 16:50:26:128
-7.0684,-6.0191,1.3861,-0.1158,-0.3737,0.4668,-0.0719,-0.0198,0.0309,2983,2019-08-07 16:50:26:133
-7.145,-5.9093,1.5228,-0.1158,-0.3737,0.4668,-0.0591,-0.0113,0.0203,2987,2019-08-07 16:50:26:137
-7.145,-5.9093,1.5228,-0.1019,-0.5278,0.2788,-0.0591,-0.0113,0.0203,2993,2019-08-07 16:50:26:143
-7.145,-5.9093,1.5228,-0.1019,-0.5278,0.2788,-0.0591,-0.007,0.0086,2998,2019-08-07 16:50:26:148
-7.0875,-5.8472,1.4757,-0.1019,-0.5278,0.2788,-0.0591,-0.007,0.0086,3003,2019-08-07 16:50:26:153
-7.0875,-5.8472,1.4757,-0.1019,-0.5278,0.2788,-0.0591,-0.007,0.0086,3008,2019-08-07 16:50:26:158
-7.0253,-5.7518,1.6077,-0.1714,-0.6084,0.1577,-0.057,-6.0E-4,-0.0149,3012,2019-08-07 16:50:26:162
-7.0253,-5.7518,1.6077,-0.1714,-0.6084,0.1577,-0.057,-6.0E-4,-0.0149,3018,2019-08-07 16:50:26:168
-7.0253,-5.7518,1.6077,-0.2527,-0.6096,0.1678,-0.0538,0.0015,-0.0159,3023,2019-08-07 16:50:26:173
-6.9063,-5.7803,1.6405,-0.2527,-0.6096,0.1678,-0.0538,0.0015,-0.0159,3028,2019-08-07 16:50:26:178
-6.9063,-5.7803,1.6405,-0.2527,-0.6096,0.1678,-0.0538,0.0015,-0.0159,3032,2019-08-07 16:50:26:182
-6.9063,-5.7803,1.6405,-0.2527,-0.6096,0.1678,-0.0431,0.0601,-0.0298,3038,2019-08-07 16:50:26:188
-6.8489,-5.8806,1.584,-0.3514,-0.5379,0.2032,-0.0431,0.0601,-0.0298,3043,2019-08-07 16:50:26:193
-6.8489,-5.8806,1.584,-0.3514,-0.5379,0.2032,-0.0399,0.0974,-0.0298,3048,2019-08-07 16:50:26:198
-6.8489,-5.957,1.6594,-0.3514,-0.5379,0.2032,-0.0399,0.0974,-0.0298,3052,2019-08-07 16:50:26:202
-6.8489,-5.957,1.6594,-0.3514,-0.5379,0.2032,-0.0175,0.1283,-0.0202,3058,2019-08-07 16:50:26:208
-6.8489,-5.957,1.6594,-0.2951,-0.3609,0.0981,-0.0175,0.1283,-0.0202,3063,2019-08-07 16:50:26:213
-6.9303,-6.0524,1.6782,-0.2951,-0.3609,0.0981,-0.0048,0.14,-0.0191,3068,2019-08-07 16:50:26:218
-6.9303,-6.0524,1.6782,-0.2951,-0.3609,0.0981,-0.0048,0.14,-0.0191,3073,2019-08-07 16:50:26:223
-6.9303,-6.0859,1.7961,-0.2951,-0.3609,0.0981,0.0144,0.1315,-0.0181,3078,2019-08-07 16:50:26:228
-6.9781,-6.0859,1.7961,-0.2121,-0.3103,-0.0254,0.0144,0.1315,-0.0181,3082,2019-08-07 16:50:26:232
-6.9781,-6.0859,1.7961,-0.2121,-0.3103,-0.0254,0.0144,0.1315,-0.0181,3088,2019-08-07 16:50:26:238
-7.0499,-6.0572,1.8951,-0.2121,-0.3103,-0.0254,0.0251,0.1123,-0.0277,3093,2019-08-07 16:50:26:243
-7.0499,-6.0572,1.8951,-0.2121,-0.3103,-0.0254,0.0251,0.1123,-0.0277,3098,2019-08-07 16:50:26:248
-7.0499,-6.0572,1.8951,-0.1654,-0.341,-0.0943,0.024,0.0953,-0.0351,3102,2019-08-07 16:50:26:252
-7.0499,-6.0333,1.8527,-0.1654,-0.341,-0.0943,0.024,0.0953,-0.0351,3108,2019-08-07 16:50:26:258
-7.0499,-6.0333,1.8527,-0.1654,-0.341,-0.0943,0.0091,0.0516,-0.0532,3112,2019-08-07 16:50:26:262
-7.1886,-6.019,1.8385,-0.1654,-0.341,-0.0943,0.0091,0.0516,-0.0532,3118,2019-08-07 16:50:26:268
-7.1886,-6.019,1.8385,-0.0897,-0.4472,-0.1284,-0.0175,0.0186,-0.0681,3122,2019-08-07 16:50:26:272
-7.1886,-6.019,1.8385,-0.0897,-0.4472,-0.1284,-0.0175,0.0186,-0.0681,3128,2019-08-07 16:50:26:278
-7.1886,-6.019,1.8385,-0.0857,-0.3851,-0.1955,-0.0452,-0.0198,-0.0745,3133,2019-08-07 16:50:26:283
-7.1121,-6.0524,1.9234,-0.0857,-0.3851,-0.1955,-0.0452,-0.0198,-0.0745,3138,2019-08-07 16:50:26:288
-7.1121,-6.0524,1.9234,-0.0857,-0.3851,-0.1955,-0.0452,-0.0198,-0.0745,3142,2019-08-07 16:50:26:292
-7.0355,-6.0811,1.7301,-0.0857,-0.3851,-0.1955,-0.0815,-0.056,-0.0905,3148,2019-08-07 16:50:26:298
-7.0355,-6.0811,1.7301,-0.1648,-0.3558,0.0622,-0.0815,-0.056,-0.0905,3152,2019-08-07 16:50:26:302
-7.0355,-6.0811,1.7301,-0.1648,-0.3558,0.0622,-0.106,-0.0816,-0.0895,3158,2019-08-07 16:50:26:308
-7.0929,-6.105,1.7254,-0.1648,-0.3558,0.0622,-0.106,-0.0816,-0.0895,3163,2019-08-07 16:50:26:313
-7.0929,-6.105,1.7254,-0.1648,-0.3558,0.0622,-0.1123,-0.0975,-0.0767,3168,2019-08-07 16:50:26:318
-7.0164,-6.1288,1.6782,-0.1566,-0.3371,0.0471,-0.1123,-0.0975,-0.0767,3173,2019-08-07 16:50:26:323
-7.0164,-6.1288,1.6782,-0.1566,-0.3371,0.0471,-0.1049,-0.1039,-0.0607,3177,2019-08-07 16:50:26:327
-7.0164,-6.1288,1.6782,-0.1566,-0.3371,0.0471,-0.1049,-0.1039,-0.0607,3183,2019-08-07 16:50:26:333
-6.8585,-6.124,1.5085,-0.1566,-0.3371,0.0471,-0.0921,-0.0752,-0.0458,3188,2019-08-07 16:50:26:338
-6.8585,-6.124,1.5085,-0.4432,-0.2959,0.2254,-0.0921,-0.0752,-0.0458,3193,2019-08-07 16:50:26:343
-6.7533,-6.21,1.4803,-0.4432,-0.2959,0.2254,-0.0687,-0.023,-0.0341,3198,2019-08-07 16:50:26:348
-6.7533,-6.21,1.4803,-0.4432,-0.2959,0.2254,-0.0687,-0.023,-0.0341,3202,2019-08-07 16:50:26:352
-6.7533,-6.21,1.4803,-0.4432,-0.2959,0.2254,-0.0687,-0.023,-0.0341,3208,2019-08-07 16:50:26:358
-6.782,-6.2004,1.5133,-0.3097,-0.2746,0.1778,-0.041,0.0623,-0.0255,3213,2019-08-07 16:50:26:363
-6.782,-6.2004,1.5133,-0.3097,-0.2746,0.1778,-0.041,0.0623,-0.0255,3218,2019-08-07 16:50:26:368
-6.9303,-6.2004,1.5934,-0.3097,-0.2746,0.1778,-0.0186,0.1198,-0.0202,3223,2019-08-07 16:50:26:373
-6.9303,-6.2004,1.5934,-0.3097,-0.2746,0.1778,-0.0186,0.1198,-0.0202,3228,2019-08-07 16:50:26:378
-6.9303,-6.2004,1.5934,-0.0482,-0.321,0.0213,-0.009,0.1571,-0.0287,3233,2019-08-07 16:50:26:383
-7.1695,-6.1527,1.6688,-0.0482,-0.321,0.0213,-0.009,0.1571,-0.0287,3238,2019-08-07 16:50:26:388
-7.1695,-6.1527,1.6688,-0.0482,-0.321,0.0213,-5.0E-4,0.156,-0.0287,3243,2019-08-07 16:50:26:393
-7.4518,-6.0859,1.6924,-0.0482,-0.321,0.0213,-5.0E-4,0.156,-0.0287,3248,2019-08-07 16:50:26:398
-7.4518,-6.0859,1.6924,0.3645,-0.3609,-0.0854,-5.0E-4,0.156,-0.0287,3253,2019-08-07 16:50:26:403
-7.4518,-6.0859,1.6924,0.3645,-0.3609,-0.0854,0.007,0.0846,-0.0213,3258,2019-08-07 16:50:26:408
-7.6001,-6.105,1.8385,0.3645,-0.3609,-0.0854,0.007,0.0846,-0.0213,3263,2019-08-07 16:50:26:413
-7.6001,-6.105,1.8385,0.3645,-0.3609,-0.0854,0.0027,-0.0134,-0.0085,3268,2019-08-07 16:50:26:418
-7.6336,-6.1527,1.8998,0.4294,-0.3351,-0.2232,0.0027,-0.0134,-0.0085,3273,2019-08-07 16:50:26:423
-7.6336,-6.1527,1.8998,0.4294,-0.3351,-0.2232,0.0027,-0.1487,0.0107,3277,2019-08-07 16:50:26:427
-7.4805,-6.1766,1.7254,0.4294,-0.3351,-0.2232,0.0027,-0.1487,0.0107,3283,2019-08-07 16:50:26:433
-7.4805,-6.1766,1.7254,0.4294,-0.3351,-0.2232,0.0027,-0.1487,0.0107,3288,2019-08-07 16:50:26:438
-7.4805,-6.1766,1.7254,0.0871,-0.3065,0.049,0.0059,-0.2445,0.0235,3293,2019-08-07 16:50:26:443
-7.1743,-6.2338,1.6217,0.0871,-0.3065,0.049,0.0059,-0.2445,0.0235,3298,2019-08-07 16:50:26:448
-7.1743,-6.2338,1.6217,0.0871,-0.3065,0.049,0.007,-0.2584,0.0277,3303,2019-08-07 16:50:26:453
-7.1743,-6.2338,1.6217,0.0871,-0.3065,0.049,0.007,-0.2584,0.0277,3308,2019-08-07 16:50:26:458
-6.9016,-6.2911,1.5321,0.0871,-0.3065,0.049,0.0027,-0.22,0.0224,3313,2019-08-07 16:50:26:463
-6.9016,-6.2911,1.5321,-0.2573,-0.207,0.3628,0.0027,-0.22,0.0224,3317,2019-08-07 16:50:26:467
-6.8538,-6.2673,1.4944,-0.2573,-0.207,0.3628,0.0027,-0.22,0.0224,3323,2019-08-07 16:50:26:473
-6.8538,-6.2673,1.4944,-0.2573,-0.207,0.3628,-0.0058,-0.1401,0.0117,3327,2019-08-07 16:50:26:477
-6.8538,-6.2673,1.4944,-0.2573,-0.207,0.3628,-0.0058,-0.1401,0.0117,3333,2019-08-07 16:50:26:483
-6.8872,-6.2529,1.4378,-0.2679,-0.2249,0.3163,-0.0111,-0.0848,0.0,3337,2019-08-07 16:50:26:487
-6.8872,-6.2529,1.4378,-0.2679,-0.2249,0.3163,-0.0111,-0.0848,0.0,3343,2019-08-07 16:50:26:493
-6.9781,-6.2004,1.4803,-0.2679,-0.2249,0.3163,-0.0165,-0.0368,-0.017,3348,2019-08-07 16:50:26:498
-6.9781,-6.2004,1.4803,-0.2679,-0.2249,0.3163,-0.0165,-0.0368,-0.017,3353,2019-08-07 16:50:26:503
-6.9781,-6.2004,1.4803,-0.0882,-0.3513,0.253,-0.0197,-0.0102,-0.0309,3358,2019-08-07 16:50:26:508
-7.0834,-6.1431,1.584,-0.0882,-0.3513,0.253,-0.0197,-0.0102,-0.0309,3363,2019-08-07 16:50:26:513
-7.0834,-6.1431,1.584,-0.0149,-0.3869,0.1802,-0.0314,0.0047,-0.0415,3367,2019-08-07 16:50:26:517
-7.1982,-6.0524,1.5557,-0.0149,-0.3869,0.1802,-0.0314,0.0047,-0.0415,3373,2019-08-07 16:50:26:523
-7.1982,-6.0524,1.5557,-0.0149,-0.3869,0.1802,-0.0463,-0.0198,-0.0373,3377,2019-08-07 16:50:26:527
-7.1982,-6.0524,1.5557,-0.0149,-0.3869,0.1802,-0.0463,-0.0198,-0.0373,3383,2019-08-07 16:50:26:533
-7.2174,-6.0811,1.6358,0.0695,-0.4059,0.1145,-0.0463,-0.0198,-0.0373,3387,2019-08-07 16:50:26:537
-7.2174,-6.0811,1.6358,0.0695,-0.4059,0.1145,-0.058,-0.0858,-0.0298,3393,2019-08-07 16:50:26:543
-7.2413,-6.0381,1.6264,0.0695,-0.4059,0.1145,-0.058,-0.0858,-0.0298,3398,2019-08-07 16:50:26:548
-7.2413,-6.0381,1.6264,0.0695,-0.4059,0.1145,-0.0569,-0.1604,-0.0202,3402,2019-08-07 16:50:26:552
-7.2413,-6.0381,1.6264,0.0175,-0.443,0.1231,-0.0569,-0.1604,-0.0202,3408,2019-08-07 16:50:26:558
-7.0738,-6.0238,1.5793,0.0175,-0.443,0.1231,-0.0495,-0.2126,-0.0064,3413,2019-08-07 16:50:26:563
-7.0738,-6.0238,1.5793,0.0175,-0.443,0.1231,-0.0495,-0.2126,-0.0064,3418,2019-08-07 16:50:26:568
-6.8825,-5.9426,1.5793,0.0175,-0.443,0.1231,-0.042,-0.235,0.0043,3423,2019-08-07 16:50:26:573
-6.8825,-5.9426,1.5793,-0.2726,-0.5819,0.2559,-0.042,-0.235,0.0043,3428,2019-08-07 16:50:26:578
-6.8825,-5.9426,1.5793,-0.2726,-0.5819,0.2559,-0.0463,-0.2211,0.0107,3433,2019-08-07 16:50:26:583
-6.7533,-5.8376,1.4378,-0.2726,-0.5819,0.2559,-0.0463,-0.2211,0.0107,3438,2019-08-07 16:50:26:588
-6.7533,-5.8376,1.4378,-0.2726,-0.5819,0.2559,-0.0463,-0.2211,0.0107,3442,2019-08-07 16:50:26:592
-6.7533,-5.8376,1.4378,-0.4685,-0.667,0.3071,-0.0463,-0.1764,0.0107,3448,2019-08-07 16:50:26:598
-6.6337,-5.8233,1.4661,-0.4685,-0.667,0.3071,-0.0388,-0.1231,0.0043,3453,2019-08-07 16:50:26:603
-6.6337,-5.8233,1.4661,-0.4685,-0.667,0.3071,-0.0388,-0.1231,0.0043,3458,2019-08-07 16:50:26:608
-6.6337,-5.8233,1.4661,-0.4685,-0.667,0.3071,-0.0346,-0.0603,-0.001,3463,2019-08-07 16:50:26:613
-6.6433,-5.8137,1.4755,-0.466,-0.6051,0.3729,-0.0346,-0.0603,-0.001,3468,2019-08-07 16:50:26:618
-6.6433,-5.8137,1.4755,-0.466,-0.6051,0.3729,-0.0346,-0.0603,-0.001,3472,2019-08-07 16:50:26:622
-6.6911,-5.9856,1.4096,-0.466,-0.6051,0.3729,-0.0324,0.0058,0.0043,3478,2019-08-07 16:50:26:628
-6.6911,-5.9856,1.4096,-0.466,-0.6051,0.3729,-0.0324,0.0058,0.0043,3483,2019-08-07 16:50:26:633
-6.7581,-6.0715,1.2021,-0.4146,-0.3719,0.6294,-0.0399,0.0654,0.0064,3488,2019-08-07 16:50:26:638
-6.7581,-6.0715,1.2021,-0.4146,-0.3719,0.6294,-0.0399,0.0654,0.0064,3492,2019-08-07 16:50:26:642
-6.7581,-6.0715,1.2021,-0.4146,-0.3719,0.6294,-0.0399,0.0654,0.0064,3498,2019-08-07 16:50:26:648
-6.9782,-6.1575,1.3577,-0.4146,-0.3719,0.6294,-0.0452,0.1145,0.0139,3503,2019-08-07 16:50:26:653
-6.9782,-6.1575,1.3577,-0.0955,-0.3239,0.3889,-0.0452,0.1145,0.0139,3508,2019-08-07 16:50:26:658
-6.9782,-6.1575,1.3577,-0.0955,-0.3239,0.3889,-0.0399,0.1187,0.0299,3512,2019-08-07 16:50:26:662
-7.1265,-6.2004,1.4944,-0.0955,-0.3239,0.3889,-0.0399,0.1187,0.0299,3518,2019-08-07 16:50:26:668
-7.1265,-6.2004,1.4944,-0.0955,-0.3239,0.3889,-0.0378,0.0793,0.0426,3522,2019-08-07 16:50:26:672
-7.2269,-6.2291,1.551,0.0811,-0.2567,0.2121,-0.0378,0.0793,0.0426,3528,2019-08-07 16:50:26:678
-7.2269,-6.2291,1.551,0.0811,-0.2567,0.2121,-0.0506,0.0122,0.0458,3532,2019-08-07 16:50:26:682
-7.2269,-6.2291,1.551,0.0811,-0.2567,0.2121,-0.0506,0.0122,0.0458,3538,2019-08-07 16:50:26:688
-7.203,-6.1527,1.5698,0.0811,-0.2567,0.2121,-0.0548,-0.0539,0.0469,3543,2019-08-07 16:50:26:693
-7.203,-6.1527,1.5698,-0.0265,-0.2697,0.1585,-0.0548,-0.0539,0.0469,3548,2019-08-07 16:50:26:698
-7.0882,-6.2195,1.5368,-0.0265,-0.2697,0.1585,-0.0559,-0.1007,0.0437,3552,2019-08-07 16:50:26:702
-7.0882,-6.2195,1.5368,-0.0265,-0.2697,0.1585,-0.0559,-0.1007,0.0437,3558,2019-08-07 16:50:26:708
-7.0882,-6.2195,1.5368,-0.0265,-0.2697,0.1585,-0.0559,-0.1007,0.0437,3562,2019-08-07 16:50:26:712
-6.8346,-6.2338,1.4614,-0.421,-0.2416,0.2783,-0.0474,-0.1146,0.0405,3568,2019-08-07 16:50:26:718
-6.8346,-6.2338,1.4614,-0.421,-0.2416,0.2783,-0.0474,-0.1146,0.0405,3572,2019-08-07 16:50:26:722
-6.6528,-6.2673,1.3954,-0.421,-0.2416,0.2783,-0.0293,-0.0741,0.0405,3578,2019-08-07 16:50:26:728
-6.6528,-6.2673,1.3954,-0.421,-0.2416,0.2783,-0.0293,-0.0741,0.0405,3582,2019-08-07 16:50:26:732
-6.6528,-6.2673,1.3954,-0.5619,-0.2429,0.3149,-0.0133,-0.0123,0.0426,3588,2019-08-07 16:50:26:738
-6.6433,-6.2338,1.4708,-0.5619,-0.2429,0.3149,-0.0133,-0.0123,0.0426,3593,2019-08-07 16:50:26:743
-6.6433,-6.2338,1.4708,-0.5619,-0.2429,0.3149,0.0016,0.0271,0.0448,3598,2019-08-07 16:50:26:748
-6.8012,-6.2291,1.5651,-0.5619,-0.2429,0.3149,0.0016,0.0271,0.0448,3602,2019-08-07 16:50:26:752
-6.8012,-6.2291,1.5651,-0.5619,-0.2429,0.3149,0.0016,0.0271,0.0448,3608,2019-08-07 16:50:26:758
-6.8012,-6.2291,1.5651,-0.2094,-0.2658,0.1739,0.0102,0.0399,0.049,3612,2019-08-07 16:50:26:762
-7.0212,-6.2004,1.6594,-0.2094,-0.2658,0.1739,0.0102,0.0399,0.049,3618,2019-08-07 16:50:26:768
-7.0212,-6.2004,1.6594,-0.2094,-0.2658,0.1739,0.0176,0.0239,0.0639,3622,2019-08-07 16:50:26:772
-7.1313,-6.1336,1.7537,-0.042,-0.3226,0.0067,0.0176,0.0239,0.0639,3628,2019-08-07 16:50:26:778
-7.1313,-6.1336,1.7537,-0.042,-0.3226,0.0067,0.0198,-0.023,0.065,3632,2019-08-07 16:50:26:782
-7.1313,-6.1336,1.7537,-0.042,-0.3226,0.0067,0.0198,-0.023,0.065,3638,2019-08-07 16:50:26:788
-7.2174,-6.1575,1.7112,-0.042,-0.3226,0.0067,0.0198,-0.023,0.065,3643,2019-08-07 16:50:26:793
-7.2174,-6.1575,1.7112,-0.042,-0.3226,0.0067,0.0134,-0.0762,0.0554,3647,2019-08-07 16:50:26:797
-7.2174,-6.1575,1.7112,-0.0253,-0.3404,-0.0024,0.0134,-0.0762,0.0554,3653,2019-08-07 16:50:26:803
-7.16,-6.1336,1.7631,-0.0253,-0.3404,-0.0024,0.0155,-0.1082,0.0458,3657,2019-08-07 16:50:26:807
-7.16,-6.1336,1.7631,-0.0253,-0.3404,-0.0024,0.0155,-0.1082,0.0458,3663,2019-08-07 16:50:26:813
-6.9877,-6.1527,1.6358,-0.2288,-0.3135,0.1477,0.0176,-0.1178,0.0373,3668,2019-08-07 16:50:26:818
-6.9877,-6.1527,1.6358,-0.2288,-0.3135,0.1477,0.0176,-0.1178,0.0373,3672,2019-08-07 16:50:26:822
-6.9877,-6.1527,1.6358,-0.2288,-0.3135,0.1477,0.0155,-0.0869,0.0171,3678,2019-08-07 16:50:26:828
-6.8968,-6.1384,1.617,-0.2288,-0.3135,0.1477,0.0155,-0.0869,0.0171,3682,2019-08-07 16:50:26:832
-6.8968,-6.1384,1.617,-0.2288,-0.3135,0.1477,0.0144,-0.0666,0.0043,3688,2019-08-07 16:50:26:838
-6.9351,-6.1384,1.6594,-0.2521,-0.3151,0.1475,0.0144,-0.0666,0.0043,3693,2019-08-07 16:50:26:843
-6.9351,-6.1384,1.6594,-0.2521,-0.3151,0.1475,0.0134,-0.0475,-0.0021,3698,2019-08-07 16:50:26:848
-6.9351,-6.1384,1.6594,-0.2521,-0.3151,0.1475,0.0134,-0.0475,-0.0021,3703,2019-08-07 16:50:26:853
-6.8442,-6.0763,1.7301,-0.2521,-0.3151,0.1475,0.0134,-0.0475,-0.0021,3708,2019-08-07 16:50:26:858
-6.8442,-6.0763,1.7301,-0.3175,-0.3384,0.0143,0.0102,-0.0326,-0.0032,3713,2019-08-07 16:50:26:863
-6.8873,-6.1193,1.8338,-0.3175,-0.3384,0.0143,0.0102,-0.0326,-0.0032,3718,2019-08-07 16:50:26:868
-6.8873,-6.1193,1.8338,-0.3175,-0.3384,0.0143,-5.0E-4,-0.0358,0.0032,3723,2019-08-07 16:50:26:873
-6.8873,-6.1193,1.8338,-0.3175,-0.3384,0.0143,-5.0E-4,-0.0358,0.0032,3728,2019-08-07 16:50:26:878
-6.9208,-6.0906,1.8244,-0.2593,-0.3422,-0.0073,-0.0058,-0.0571,0.0149,3733,2019-08-07 16:50:26:883
-6.9208,-6.0906,1.8244,-0.2593,-0.3422,-0.0073,-0.0058,-0.0571,0.0149,3738,2019-08-07 16:50:26:888
-6.9303,-6.0429,1.8574,-0.2593,-0.3422,-0.0073,-0.0239,-0.0911,0.0277,3743,2019-08-07 16:50:26:893
-6.9303,-6.0429,1.8574,-0.2593,-0.3422,-0.0073,-0.0239,-0.0911,0.0277,3748,2019-08-07 16:50:26:898
-6.9303,-6.0429,1.8574,-0.2598,-0.4485,0.0312,-0.0324,-0.1029,0.0309,3752,2019-08-07 16:50:26:902
-6.8777,-5.9999,1.7961,-0.2598,-0.4485,0.0312,-0.0324,-0.1029,0.0309,3758,2019-08-07 16:50:26:908
-6.8777,-5.9999,1.7961,-0.2598,-0.4485,0.0312,-0.0399,-0.0954,0.0267,3763,2019-08-07 16:50:26:913
-6.8634,-5.957,1.7348,-0.2598,-0.4485,0.0312,-0.0399,-0.0954,0.0267,3767,2019-08-07 16:50:26:917
-6.8634,-5.957,1.7348,-0.3514,-0.4403,0.1303,-0.0474,-0.0645,0.0171,3773,2019-08-07 16:50:26:923
-6.8634,-5.957,1.7348,-0.3514,-0.4403,0.1303,-0.0474,-0.0645,0.0171,3778,2019-08-07 16:50:26:928
-6.9208,-5.9951,1.7207,-0.3514,-0.4403,0.1303,-0.0548,-0.0304,-0.0032,3783,2019-08-07 16:50:26:933
-6.9208,-5.9951,1.7207,-0.3514,-0.4403,0.1303,-0.0548,-0.0304,-0.0032,3788,2019-08-07 16:50:26:938
-6.9208,-5.9951,1.7207,-0.2506,-0.4456,0.0542,-0.0548,-0.0304,-0.0032,3792,2019-08-07 16:50:26:942
-6.9925,-5.9761,1.7301,-0.2506,-0.4456,0.0542,-0.0612,-0.0102,-0.0085,3798,2019-08-07 16:50:26:948
-6.9925,-5.9761,1.7301,-0.2506,-0.4456,0.0542,-0.0612,-0.0102,-0.0085,3803,2019-08-07 16:50:26:953
-6.983,-6.0238,1.7961,-0.2506,-0.4456,0.0542,-0.058,-0.0038,-0.0149,3808,2019-08-07 16:50:26:958
-6.983,-6.0238,1.7961,-0.2547,-0.4436,0.1132,-0.058,-0.0038,-0.0149,3813,2019-08-07 16:50:26:963
-6.9591,-6.0047,1.7772,-0.2547,-0.4436,0.1132,-0.0538,-0.007,-0.0255,3818,2019-08-07 16:50:26:968
-6.9591,-6.0047,1.7772,-0.2547,-0.4436,0.1132,-0.0538,-0.007,-0.0255,3823,2019-08-07 16:50:26:973
-6.9591,-6.0047,1.7772,-0.2547,-0.4436,0.1132,-0.0538,-0.0272,-0.0319,3828,2019-08-07 16:50:26:978
-7.0882,-5.9904,1.8574,-0.0888,-0.4436,-0.0327,-0.0538,-0.0272,-0.0319,3833,2019-08-07 16:50:26:983
-7.0882,-5.9904,1.8574,-0.0888,-0.4436,-0.0327,-0.0591,-0.0666,-0.0191,3838,2019-08-07 16:50:26:988
-6.9591,-6.062,1.8385,-0.2159,-0.3742,-0.0134,-0.0591,-0.0666,-0.0191,3843,2019-08-07 16:50:26:993
-6.9591,-6.062,1.8385,-0.2159,-0.3742,-0.0134,-0.0676,-0.0933,-0.0138,3848,2019-08-07 16:50:26:998
-6.9591,-6.062,1.8385,-0.2159,-0.3742,-0.0134,-0.0676,-0.0933,-0.0138,3853,2019-08-07 16:50:27:003
-6.8777,-6.1193,1.8291,-0.2159,-0.3742,-0.0134,-0.0676,-0.0933,-0.0138,3858,2019-08-07 16:50:27:008
-6.8777,-6.1193,1.8291,-0.326,-0.354,0.0252,-0.0729,-0.1167,-0.0064,3863,2019-08-07 16:50:27:013
-6.8777,-6.1193,1.8291,-0.326,-0.354,0.0252,-0.0729,-0.1167,-0.0064,3868,2019-08-07 16:50:27:018
-6.6672,-6.1288,1.7584,-0.326,-0.354,0.0252,-0.0708,-0.1284,0.0043,3872,2019-08-07 16:50:27:022
-6.6672,-6.1288,1.7584,-0.326,-0.354,0.0252,-0.0708,-0.1284,0.0043,3877,2019-08-07 16:50:27:027
-6.5955,-6.0859,1.6782,-0.5705,-0.3563,0.1612,-0.0708,-0.1082,0.0149,3883,2019-08-07 16:50:27:033
-6.5955,-6.0859,1.6782,-0.5705,-0.3563,0.1612,-0.0708,-0.1082,0.0149,3887,2019-08-07 16:50:27:037
-6.5955,-6.0859,1.6782,-0.5705,-0.3563,0.1612,-0.0676,-0.0453,0.0203,3893,2019-08-07 16:50:27:043
-6.6146,-6.0811,1.6641,-0.5705,-0.3563,0.1612,-0.0676,-0.0453,0.0203,3898,2019-08-07 16:50:27:048
-6.6146,-6.0811,1.6641,-0.4368,-0.4616,0.1312,-0.0676,-0.0453,0.0203,3903,2019-08-07 16:50:27:053
-6.6146,-6.0811,1.6641,-0.4368,-0.4616,0.1312,-0.0633,0.0079,0.0192,3908,2019-08-07 16:50:27:058
-6.8442,-5.9092,1.6877,-0.4368,-0.4616,0.1312,-0.0633,0.0079,0.0192,3913,2019-08-07 16:50:27:063
-6.8442,-5.9092,1.6877,-0.4368,-0.4616,0.1312,-0.0612,0.0154,0.0299,3918,2019-08-07 16:50:27:068
-6.9639,-6.019,1.6405,-0.2072,-0.4209,0.1868,-0.0612,0.0154,0.0299,3923,2019-08-07 16:50:27:073
-6.9639,-6.019,1.6405,-0.2072,-0.4209,0.1868,-0.0569,0.0164,0.0267,3928,2019-08-07 16:50:27:078
-6.9639,-6.019,1.6405,-0.2072,-0.4209,0.1868,-0.0569,0.0164,0.0267,3933,2019-08-07 16:50:27:083
-7.0739,-6.062,1.6735,-0.2072,-0.4209,0.1868,-0.0516,0.0196,0.0117,3938,2019-08-07 16:50:27:088
-7.0739,-6.062,1.6735,-0.0397,-0.4234,0.1478,-0.0516,0.0196,0.0117,3943,2019-08-07 16:50:27:093
-7.2126,-6.0381,1.7254,-0.0397,-0.4234,0.1478,-0.0484,0.0175,0.0011,3948,2019-08-07 16:50:27:098
-7.2126,-6.0381,1.7254,-0.0397,-0.4234,0.1478,-0.0484,0.0175,0.0011,3953,2019-08-07 16:50:27:103
-7.2126,-6.0381,1.7254,-0.0397,-0.4234,0.1478,-0.0442,0.0111,-0.0085,3958,2019-08-07 16:50:27:108
-7.2079,-6.0668,1.7207,0.0109,-0.3901,0.0922,-0.0442,0.0111,-0.0085,3963,2019-08-07 16:50:27:113
-7.2079,-6.0668,1.7207,0.0109,-0.3901,0.0922,-0.0431,0.0133,-0.016,3968,2019-08-07 16:50:27:118
-7.1265,-6.1097,1.7065,0.0109,-0.3901,0.0922,-0.0431,0.0133,-0.016,3972,2019-08-07 16:50:27:122
-7.1265,-6.1097,1.7065,0.0109,-0.3901,0.0922,-0.0431,0.0133,-0.016,3978,2019-08-07 16:50:27:128
-7.1265,-6.1097,1.7065,-0.036,-0.3405,0.0576,-0.041,-0.0038,-0.0255,3982,2019-08-07 16:50:27:132
-7.1217,-6.1431,1.7348,-0.036,-0.3405,0.0576,-0.0346,-0.0283,-0.0319,3988,2019-08-07 16:50:27:138
-7.1217,-6.1431,1.7348,-0.036,-0.3405,0.0576,-0.0346,-0.0283,-0.0319,3992,2019-08-07 16:50:27:142
-7.0548,-6.2052,1.7159,-0.036,-0.3405,0.0576,-0.0324,-0.0411,-0.0309,3998,2019-08-07 16:50:27:148
-7.0548,-6.2052,1.7159,-0.2658,-0.1787,0.0998,-0.0324,-0.0411,-0.0309,4003,2019-08-07 16:50:27:153
-7.0548,-6.2052,1.7159,-0.2658,-0.1787,0.0998,-0.0324,-0.0411,-0.0309,4008,2019-08-07 16:50:27:158
-6.9017,-6.2864,1.6594,-0.2658,-0.1787,0.0998,-0.0239,-0.0464,-0.0309,4013,2019-08-07 16:50:27:163
-6.9017,-6.2864,1.6594,-0.2658,-0.1787,0.0998,-0.0239,-0.0464,-0.0309,4018,2019-08-07 16:50:27:168
-6.8013,-6.3007,1.6593,-0.365,-0.1508,0.1458,-0.0079,-0.0464,-0.0309,4023,2019-08-07 16:50:27:173
-6.8013,-6.3007,1.6593,-0.365,-0.1508,0.1458,-0.0079,-0.0464,-0.0309,4027,2019-08-07 16:50:27:177
-6.8013,-6.3007,1.6593,-0.365,-0.1508,0.1458,0.0038,-0.0453,-0.0298,4033,2019-08-07 16:50:27:183
-6.7679,-6.2243,1.6829,-0.365,-0.1508,0.1458,0.0038,-0.0453,-0.0298,4038,2019-08-07 16:50:27:188
-6.7679,-6.2243,1.6829,-0.3974,-0.251,0.1476,0.0038,-0.0453,-0.0298,4043,2019-08-07 16:50:27:193
-6.7679,-6.2243,1.6829,-0.3974,-0.251,0.1476,0.0102,-0.0368,-0.0181,4048,2019-08-07 16:50:27:198
-6.7631,-6.1336,1.6782,-0.3974,-0.251,0.1476,0.0102,-0.0368,-0.0181,4052,2019-08-07 16:50:27:202
-6.7631,-6.1336,1.6782,-0.3974,-0.251,0.1476,0.0304,-0.0134,-0.0096,4058,2019-08-07 16:50:27:208
-6.7774,-6.1574,1.6688,-0.3974,-0.251,0.1476,0.0304,-0.0134,-0.0096,4063,2019-08-07 16:50:27:213
-6.7774,-6.1574,1.6688,-0.3375,-0.3333,0.0824,0.0379,0.0026,-0.016,4067,2019-08-07 16:50:27:217
-6.7774,-6.1574,1.6688,-0.3375,-0.3333,0.0824,0.0379,0.0026,-0.016,4073,2019-08-07 16:50:27:223
-6.653,-6.1718,1.7772,-0.3375,-0.3333,0.0824,0.0421,-0.0113,-0.0213,4077,2019-08-07 16:50:27:227
-6.653,-6.1718,1.7772,-0.3375,-0.3333,0.0824,0.0421,-0.0113,-0.0213,4083,2019-08-07 16:50:27:233
-6.653,-6.1718,1.7772,-0.521,-0.2444,0.1071,0.0421,-0.0113,-0.0213,4088,2019-08-07 16:50:27:238
-6.7152,-6.1622,1.6782,-0.521,-0.2444,0.1071,0.0411,0.0367,-0.0277,4093,2019-08-07 16:50:27:243
-6.7152,-6.1622,1.6782,-0.521,-0.2444,0.1071,0.0411,0.0367,-0.0277,4098,2019-08-07 16:50:27:248
-6.7105,-6.0811,1.6499,-0.521,-0.2444,0.1071,0.0443,0.0846,-0.0117,4103,2019-08-07 16:50:27:253
-6.7105,-6.0811,1.6499,-0.4387,-0.3705,0.1417,0.0443,0.0846,-0.0117,4107,2019-08-07 16:50:27:257
-6.7105,-6.0811,1.6499,-0.4387,-0.3705,0.1417,0.0443,0.0846,-0.0181,4113,2019-08-07 16:50:27:263
-6.9162,-6.1193,1.7348,-0.4387,-0.3705,0.1417,0.0443,0.0846,-0.0181,4118,2019-08-07 16:50:27:268
-6.9162,-6.1193,1.7348,-0.4387,-0.3705,0.1417,0.024,0.0505,-0.0085,4123,2019-08-07 16:50:27:273
-7.0693,-6.0763,1.9327,-0.0478,-0.3896,-0.0809,0.024,0.0505,-0.0085,4127,2019-08-07 16:50:27:277
-7.0693,-6.0763,1.9327,-0.0478,-0.3896,-0.0809,0.008,-0.0262,0.0011,4133,2019-08-07 16:50:27:283
-7.0693,-6.0763,1.9327,-0.0478,-0.3896,-0.0809,0.008,-0.0262,0.0011,4138,2019-08-07 16:50:27:288
-6.9975,-6.0763,1.8573,-0.0478,-0.3896,-0.0809,0.008,-0.0262,0.0011,4142,2019-08-07 16:50:27:292
-6.9975,-6.0763,1.8573,-0.1964,-0.3828,0.0523,0.0123,-0.0613,0.0043,4148,2019-08-07 16:50:27:298
-6.8731,-6.1431,1.7112,-0.1964,-0.3828,0.0523,0.0123,-0.0613,0.0043,4153,2019-08-07 16:50:27:303
-6.8731,-6.1431,1.7112,-0.1964,-0.3828,0.0523,6.0E-4,-0.0869,0.0011,4159,2019-08-07 16:50:27:309
-6.8731,-6.1431,1.7112,-0.1964,-0.3828,0.0523,6.0E-4,-0.0869,0.0011,4163,2019-08-07 16:50:27:313
-6.8014,-6.1336,1.697,-0.3517,-0.3251,0.1347,-0.0037,-0.072,-0.0117,4167,2019-08-07 16:50:27:317
-6.8014,-6.1336,1.697,-0.3517,-0.3251,0.1347,-0.0037,-0.072,-0.0117,4173,2019-08-07 16:50:27:323
-6.677,-6.1288,1.5226,-0.3517,-0.3251,0.1347,-0.0101,-0.023,-0.017,4179,2019-08-07 16:50:27:329
-6.677,-6.1288,1.5226,-0.3517,-0.3251,0.1347,-0.0101,-0.023,-0.017,4183,2019-08-07 16:50:27:333
-6.677,-6.1288,1.5226,-0.4298,-0.3427,0.3385,-0.0101,-0.023,-0.017,4187,2019-08-07 16:50:27:337
-6.8109,-6.1622,1.5273,-0.4298,-0.3427,0.3385,-0.0197,0.0623,-0.0298,4193,2019-08-07 16:50:27:343
-6.8109,-6.1622,1.5273,-0.3668,-0.3408,0.2654,-0.0218,0.1166,-0.0447,4198,2019-08-07 16:50:27:348
-6.9162,-6.167,1.6216,-0.3668,-0.3408,0.2654,-0.0218,0.1166,-0.0447,4203,2019-08-07 16:50:27:353
-6.9162,-6.167,1.6216,-0.3668,-0.3408,0.2654,-0.0207,0.1347,-0.0554,4208,2019-08-07 16:50:27:358
-6.9162,-6.167,1.6216,-0.3668,-0.3408,0.2654,-0.0207,0.1347,-0.0554,4213,2019-08-07 16:50:27:363
-6.9449,-6.1479,1.6829,-0.2026,-0.3248,0.1207,-0.0207,0.1347,-0.0554,4218,2019-08-07 16:50:27:368
-6.9449,-6.1479,1.6829,-0.2026,-0.3248,0.1207,-0.0165,0.1176,-0.0628,4223,2019-08-07 16:50:27:373
-6.9019,-6.0906,1.6735,-0.2026,-0.3248,0.1207,-0.009,0.0942,-0.0543,4229,2019-08-07 16:50:27:379
-6.9019,-6.0906,1.6735,-0.2026,-0.3248,0.1207,-0.009,0.0942,-0.0543,4233,2019-08-07 16:50:27:383
-6.9019,-6.0906,1.6735,-0.3,-0.3662,0.1421,-0.009,0.0942,-0.0543,4238,2019-08-07 16:50:27:388
-6.7535,-6.0954,1.6923,-0.3,-0.3662,0.1421,-0.0048,0.058,-0.0479,4243,2019-08-07 16:50:27:393
-6.7535,-6.0954,1.6923,-0.3,-0.3662,0.1421,-0.0048,0.058,-0.0479,4248,2019-08-07 16:50:27:398
-6.7535,-6.0954,1.6923,-0.3,-0.3662,0.1421,-0.0037,0.0441,-0.0287,4253,2019-08-07 16:50:27:403
-6.7248,-6.1192,1.6688,-0.2777,-0.472,0.1109,-0.0037,0.0441,-0.0287,4257,2019-08-07 16:50:27:407
-6.7248,-6.1192,1.6688,-0.2777,-0.472,0.1109,-0.0026,0.0505,-0.0021,4263,2019-08-07 16:50:27:413
-6.543,-6.1479,1.7677,-0.2777,-0.472,0.1109,-0.0026,0.0505,-0.0021,4268,2019-08-07 16:50:27:418
-6.543,-6.1479,1.7677,-0.2777,-0.472,0.1109,-0.0026,0.0282,-0.0074,4272,2019-08-07 16:50:27:422
-6.543,-6.1479,1.7677,-0.3929,-0.4731,0.1337,-0.0026,0.0282,-0.0074,4278,2019-08-07 16:50:27:428
-6.787,-6.019,1.7018,-0.3929,-0.4731,0.1337,-0.0026,0.0282,-0.0074,4282,2019-08-07 16:50:27:432
-6.787,-6.019,1.7018,-0.3929,-0.4731,0.1337,-5.0E-4,0.0644,0.0075,4288,2019-08-07 16:50:27:438
-6.6914,-6.0667,1.5745,-0.3929,-0.4731,0.1337,-0.0101,0.0931,0.0171,4293,2019-08-07 16:50:27:443
-6.6914,-6.0667,1.5745,-0.3974,-0.4428,0.1923,-0.0101,0.0931,0.0171,4298,2019-08-07 16:50:27:448
-6.6914,-6.0667,1.5745,-0.3974,-0.4428,0.1923,-0.0101,0.0931,0.0171,4302,2019-08-07 16:50:27:452
-6.9306,-6.0572,1.5792,-0.3974,-0.4428,0.1923,-0.0133,0.1251,0.0096,4308,2019-08-07 16:50:27:458
-6.9306,-6.0572,1.5792,-0.3974,-0.4428,0.1923,-0.0133,0.1251,0.0096,4313,2019-08-07 16:50:27:463
-6.9449,-6.1527,1.6028,-0.2076,-0.3315,0.1388,-0.0069,0.139,0.0043,4317,2019-08-07 16:50:27:467
-6.9449,-6.1527,1.6028,-0.2076,-0.3315,0.1388,-0.0069,0.139,0.0043,4323,2019-08-07 16:50:27:473
-6.9449,-6.1527,1.6028,-0.2076,-0.3315,0.1388,-0.0069,0.139,0.0043,4327,2019-08-07 16:50:27:477
-7.0454,-6.1192,1.6593,-0.2076,-0.3315,0.1388,-0.0058,0.1336,0.0117,4333,2019-08-07 16:50:27:483
-7.0454,-6.1192,1.6593,0.1397,-0.42,0.3219,-0.0058,0.1336,0.0117,4338,2019-08-07 16:50:27:488
-7.3707,-5.9665,1.7489,0.1397,-0.42,0.3219,-0.0559,0.0218,0.0149,4343,2019-08-07 16:50:27:493
-7.3707,-5.9665,1.7489,0.1397,-0.42,0.3219,-0.0559,0.0218,0.0149,4348,2019-08-07 16:50:27:498
-7.3707,-5.9665,1.7489,0.1397,-0.42,0.3219,0.0357,-0.0059,0.0203,4353,2019-08-07 16:50:27:503
-7.0789,-6.1479,1.9139,0.1397,-0.42,0.3219,0.0357,-0.0059,0.0203,4357,2019-08-07 16:50:27:507
-7.0789,-6.1479,1.9139,-0.1134,-0.3346,-0.0903,0.0613,-0.0539,0.0299,4363,2019-08-07 16:50:27:513
-7.0789,-6.1479,1.9139,-0.1134,-0.3346,-0.0903,0.0613,-0.0539,0.0299,4368,2019-08-07 16:50:27:518
-6.7823,-6.1479,1.4802,-0.1134,-0.3346,-0.0903,0.0485,-0.0102,0.0288,4373,2019-08-07 16:50:27:523
-6.7823,-6.1479,1.4802,-0.1134,-0.3346,-0.0903,0.0485,-0.0102,0.0288,4378,2019-08-07 16:50:27:528
-6.6675,-6.1718,1.5792,-0.4847,-0.3428,0.1234,0.0485,-0.0102,0.0288,4382,2019-08-07 16:50:27:532
-6.6675,-6.1718,1.5792,-0.4847,-0.3428,0.1234,0.0773,0.0878,0.0288,4388,2019-08-07 16:50:27:538
-6.8541,-6.3197,1.5509,-0.4847,-0.3428,0.1234,0.0901,0.1464,0.0341,4393,2019-08-07 16:50:27:543
-6.8541,-6.3197,1.5509,-0.4847,-0.3428,0.1234,0.0901,0.1464,0.0341,4398,2019-08-07 16:50:27:548
-6.8541,-6.3197,1.5509,-0.2818,-0.1118,0.2393,0.0901,0.1464,0.0341,4402,2019-08-07 16:50:27:552
-6.9163,-6.2672,1.565,-0.2818,-0.1118,0.2393,0.0741,0.1954,0.0299,4408,2019-08-07 16:50:27:558
-6.9163,-6.2672,1.565,-0.2818,-0.1118,0.2393,0.0741,0.1954,0.0299,4413,2019-08-07 16:50:27:563
-6.9163,-6.2672,1.565,-0.2818,-0.1118,0.2393,0.0538,0.2082,0.0,4418,2019-08-07 16:50:27:568
-6.9354,-6.1718,1.6075,-0.2478,-0.2885,0.0964,0.0538,0.2082,0.0,4423,2019-08-07 16:50:27:573
-6.9354,-6.1718,1.6075,-0.2478,-0.2885,0.0964,0.008,0.1432,-0.0362,4428,2019-08-07 16:50:27:578
-7.366,-6.0524,1.5698,-0.2478,-0.2885,0.0964,0.008,0.1432,-0.0362,4433,2019-08-07 16:50:27:583
-7.366,-6.0524,1.5698,-0.2478,-0.2885,0.0964,-0.0665,0.0356,-0.0394,4438,2019-08-07 16:50:27:588