ACCELEROMETER X (m/s²),ACCELEROMETER Y (m/s²),ACCELEROMETER Z (m/s²),LINEAR ACCELERATION X (m/s²),LINEAR ACCELERATION Y (m/s²),LINEAR ACCELERATION Z (m/s²),GYROSCOPE X (rad/s),GYROSCOPE Y (rad/s),GYROSCOPE Z (rad/s),Time since start in ms ,YYYY-MO-DD HH-MI-SS_SSS
-7.0835,-6.0524,1.1361,-0.163,-0.3296,0.0146,-5.0E-4,-0.0443,0.0331,3,2019-08-07 16:50:05:377
-7.0835,-6.0524,1.1361,-0.163,-0.3296,0.0146,0.0166,-0.056,0.0203,8,2019-08-07 16:50:05:382
-7.1027,-6.0047,1.1786,-0.163,-0.3296,0.0146,0.0166,-0.056,0.0203,13,2019-08-07 16:50:05:387
-7.1027,-6.0047,1.1786,-0.2466,-0.4206,0.0201,0.0144,-0.0603,0.0075,18,2019-08-07 16:50:05:392
-7.1027,-6.0047,1.1786,-0.2466,-0.4206,0.0201,0.0144,-0.0603,0.0075,23,2019-08-07 16:50:05:397
-7.0357,-6.0477,1.1361,-0.2466,-0.4206,0.0201,0.0048,-0.0485,-0.0128,27,2019-08-07 16:50:05:401
-7.0357,-6.0477,1.1361,-0.2466,-0.4206,0.0201,0.0048,-0.0485,-0.0128,33,2019-08-07 16:50:05:407
-7.0165,-6.0572,1.1173,-0.2974,-0.3974,0.1832,-0.0133,-0.0304,-0.0255,37,2019-08-07 16:50:05:411
-7.0165,-6.0572,1.1173,-0.2974,-0.3974,0.1832,-0.0133,-0.0304,-0.0255,43,2019-08-07 16:50:05:417
-7.0165,-6.0572,1.1173,-0.281,-0.3329,0.1549,-0.0271,-0.0017,-0.0373,47,2019-08-07 16:50:05:421
-7.0213,-6.1861,1.1173,-0.281,-0.3329,0.1549,-0.0271,-0.0017,-0.0373,53,2019-08-07 16:50:05:427
-7.0213,-6.1861,1.1173,-0.281,-0.3329,0.1549,-0.0388,0.0218,-0.0532,58,2019-08-07 16:50:05:432
-7.0452,-6.1336,1.0419,-0.281,-0.3329,0.1549,-0.0388,0.0218,-0.0532,63,2019-08-07 16:50:05:437
-7.0452,-6.1336,1.0419,-0.2754,-0.3789,0.1241,-0.0367,0.0324,-0.0564,68,2019-08-07 16:50:05:442
-7.0452,-6.1336,1.0419,-0.2754,-0.3789,0.1241,-0.0367,0.0324,-0.0564,73,2019-08-07 16:50:05:447
-7.0022,-6.0906,1.122,-0.2754,-0.3789,0.1241,-0.0388,0.0292,-0.0543,78,2019-08-07 16:50:05:452
-7.0022,-6.0906,1.122,-0.2754,-0.3789,0.1241,-0.0388,0.0292,-0.0543,83,2019-08-07 16:50:05:457
-6.9591,-6.019,1.0984,-0.3317,-0.435,0.0956,-0.0388,0.0292,-0.0543,87,2019-08-07 16:50:05:461
-6.9591,-6.019,1.0984,-0.3317,-0.435,0.0956,-0.041,0.0164,-0.0447,93,2019-08-07 16:50:05:467
-6.9591,-6.019,1.0984,-0.3317,-0.435,0.0956,-0.041,0.0164,-0.0447,98,2019-08-07 16:50:05:472
-6.9639,-6.0524,1.2068,-0.3317,-0.435,0.0956,-0.0378,-6.0E-4,-0.0362,102,2019-08-07 16:50:05:476
-6.9639,-6.0524,1.2068,-0.332,-0.422,0.0665,-0.0378,-6.0E-4,-0.0362,108,2019-08-07 16:50:05:482
-6.9735,-6.0477,1.089,-0.332,-0.422,0.0665,-0.0335,-0.0166,-0.0234,113,2019-08-07 16:50:05:487
-6.9735,-6.0477,1.089,-0.332,-0.422,0.0665,-0.0335,-0.0166,-0.0234,118,2019-08-07 16:50:05:492
-6.9735,-6.0477,1.089,-0.332,-0.422,0.0665,-0.0229,-0.0379,-0.0138,122,2019-08-07 16:50:05:496
-6.9687,-6.0238,1.0701,-0.2864,-0.3771,0.2503,-0.0229,-0.0379,-0.0138,128,2019-08-07 16:50:05:502
-6.9687,-6.0238,1.0701,-0.2864,-0.3771,0.2503,-0.0154,-0.0368,-0.0106,133,2019-08-07 16:50:05:507
-6.9543,-6.1097,0.9334,-0.2864,-0.3771,0.2503,-0.0154,-0.0368,-0.0106,137,2019-08-07 16:50:05:511
-6.9543,-6.1097,0.9334,-0.2864,-0.3771,0.2503,-0.0016,-0.0187,-0.0213,143,2019-08-07 16:50:05:517
-6.9543,-6.1097,0.9334,-0.2745,-0.3795,0.2423,-0.0016,-0.0187,-0.0213,147,2019-08-07 16:50:05:521
-6.94,-6.1193,0.9947,-0.2745,-0.3795,0.2423,0.008,0.0164,-0.0266,153,2019-08-07 16:50:05:527
-6.94,-6.1193,0.9947,-0.2745,-0.3795,0.2423,0.008,0.0164,-0.0266,157,2019-08-07 16:50:05:531
-7.0787,-6.0954,0.9287,-0.2745,-0.3795,0.2423,0.008,0.0463,-0.0277,163,2019-08-07 16:50:05:537
-7.0787,-6.0954,0.9287,-0.2007,-0.4064,0.1906,0.008,0.0463,-0.0277,168,2019-08-07 16:50:05:542
-7.0787,-6.0954,0.9287,-0.2007,-0.4064,0.1906,0.0048,0.0612,-0.0319,172,2019-08-07 16:50:05:546
-7.0883,-6.0811,0.9287,-0.1522,-0.3222,0.2422,0.0048,0.0612,-0.0319,178,2019-08-07 16:50:05:552
-7.0883,-6.0811,0.9287,-0.1522,-0.3222,0.2422,0.0048,0.0633,-0.0341,183,2019-08-07 16:50:05:557
-7.2079,-6.1861,1.0324,-0.1522,-0.3222,0.2422,0.0048,0.0633,-0.0341,187,2019-08-07 16:50:05:561
-7.2079,-6.1861,1.0324,-0.1522,-0.3222,0.2422,0.0166,0.0378,-0.0287,193,2019-08-07 16:50:05:567
-7.2079,-6.1861,1.0324,-0.1026,-0.2682,0.0561,0.0166,0.0378,-0.0287,197,2019-08-07 16:50:05:571
-7.2031,-6.2291,1.1031,-0.1026,-0.2682,0.0561,0.0166,0.0378,-0.0287,203,2019-08-07 16:50:05:577
-7.2031,-6.2291,1.1031,-0.1026,-0.2682,0.0561,0.0315,5.0E-4,-0.0266,207,2019-08-07 16:50:05:581
-7.1361,-6.2816,1.2116,-0.1026,-0.2682,0.0561,0.0315,5.0E-4,-0.0266,213,2019-08-07 16:50:05:587
-7.1361,-6.2816,1.2116,-0.1188,-0.1894,-0.0378,0.0485,-0.0283,-0.0245,218,2019-08-07 16:50:05:592
-7.1361,-6.2816,1.2116,-0.1188,-0.1894,-0.0378,0.0485,-0.0283,-0.0245,223,2019-08-07 16:50:05:597
-7.1074,-6.2673,1.1691,-0.1188,-0.1894,-0.0378,0.056,-0.0453,-0.0223,228,2019-08-07 16:50:05:602
-7.1074,-6.2673,1.1691,-0.1188,-0.1894,-0.0378,0.056,-0.0453,-0.0223,233,2019-08-07 16:50:05:607
-7.1218,-6.1956,1.0607,-0.1488,-0.2815,0.1314,0.0538,-0.0507,-0.0266,237,2019-08-07 16:50:05:611
-7.1218,-6.1956,1.0607,-0.1488,-0.2815,0.1314,0.0538,-0.0507,-0.0266,243,2019-08-07 16:50:05:617
-7.1218,-6.1956,1.0607,-0.1488,-0.2815,0.1314,0.0538,-0.0453,-0.0373,248,2019-08-07 16:50:05:622
-7.1314,-6.2386,1.0607,-0.1488,-0.2815,0.1314,0.0538,-0.0453,-0.0373,252,2019-08-07 16:50:05:626
-7.1314,-6.2386,1.0607,-0.2058,-0.2612,0.1676,0.0538,-0.0453,-0.0373,258,2019-08-07 16:50:05:632
-7.1314,-6.2386,1.0607,-0.2058,-0.2612,0.1676,0.0517,-0.0176,-0.05,262,2019-08-07 16:50:05:636
-7.05,-6.2434,0.9994,-0.2058,-0.2612,0.1676,0.0517,-0.0176,-0.05,268,2019-08-07 16:50:05:642
-7.05,-6.2434,0.9994,-0.2058,-0.2612,0.1676,0.0517,-0.0176,-0.05,273,2019-08-07 16:50:05:647
-7.0261,-6.2673,1.0183,-0.2058,-0.2612,0.1676,0.0453,0.0196,-0.0671,278,2019-08-07 16:50:05:652
-7.0261,-6.2673,1.0183,-0.2031,-0.2591,0.1868,0.0453,0.0196,-0.0671,283,2019-08-07 16:50:05:657
-7.0548,-6.2768,1.1078,-0.2031,-0.2591,0.1868,0.0357,0.0431,-0.0788,288,2019-08-07 16:50:05:662
-7.0548,-6.2768,1.1078,-0.2031,-0.2591,0.1868,0.0357,0.0431,-0.0788,293,2019-08-07 16:50:05:667
-7.0548,-6.2768,1.1078,-0.2031,-0.2591,0.1868,0.0283,0.0378,-0.0873,298,2019-08-07 16:50:05:672
-7.0644,-6.21,1.2681,-0.1748,-0.2267,0.0387,0.0283,0.0378,-0.0873,303,2019-08-07 16:50:05:677
-7.0644,-6.21,1.2681,-0.1748,-0.2267,0.0387,0.0304,0.0111,-0.0863,308,2019-08-07 16:50:05:682
-7.0644,-6.21,1.2681,-0.1748,-0.2267,0.0387,0.0304,0.0111,-0.0863,313,2019-08-07 16:50:05:687
-7.0022,-6.2863,1.2917,-0.1748,-0.2267,0.0387,0.0304,0.0111,-0.0863,318,2019-08-07 16:50:05:692
-7.0022,-6.2863,1.2917,-0.2497,-0.229,-0.0664,0.0347,-0.0304,-0.0831,322,2019-08-07 16:50:05:696
-6.8921,-6.2863,1.2917,-0.2497,-0.229,-0.0664,0.0347,-0.0304,-0.0831,328,2019-08-07 16:50:05:702
-6.8921,-6.2863,1.2917,-0.2497,-0.229,-0.0664,0.0336,-0.0603,-0.0735,333,2019-08-07 16:50:05:707
-6.8921,-6.2863,1.2917,-0.2497,-0.229,-0.0664,0.0336,-0.0603,-0.0735,338,2019-08-07 16:50:05:712
-6.7869,-6.358,1.2257,-0.4197,-0.1823,-0.0058,0.0336,-0.0869,-0.0564,342,2019-08-07 16:50:05:716
-6.7869,-6.358,1.2257,-0.4197,-0.1823,-0.0058,0.0336,-0.0869,-0.0564,348,2019-08-07 16:50:05:722
-6.7869,-6.358,1.2257,-0.4197,-0.1823,-0.0058,0.0336,-0.0869,-0.0564,352,2019-08-07 16:50:05:726
-6.7151,-6.3054,1.089,-0.4197,-0.1823,-0.0058,0.04,-0.0773,-0.0436,358,2019-08-07 16:50:05:732
-6.7151,-6.3054,1.089,-0.5295,-0.2376,0.1384,0.04,-0.0773,-0.0436,363,2019-08-07 16:50:05:737
-6.7151,-6.3054,1.089,-0.5295,-0.2376,0.1384,0.0485,-0.0528,-0.0373,368,2019-08-07 16:50:05:742
-6.7008,-6.2959,1.0041,-0.5295,-0.2376,0.1384,0.0485,-0.0528,-0.0373,373,2019-08-07 16:50:05:747
-6.7008,-6.2959,1.0041,-0.5295,-0.2376,0.1384,0.0624,0.0079,-0.0394,378,2019-08-07 16:50:05:752
-6.8299,-6.1431,1.0513,-0.4275,-0.3859,0.224,0.0624,0.0079,-0.0394,383,2019-08-07 16:50:05:757
-6.8299,-6.1431,1.0513,-0.4275,-0.3859,0.224,0.0624,0.0399,-0.0415,388,2019-08-07 16:50:05:762
-6.8299,-6.1431,1.0513,-0.4275,-0.3859,0.224,0.0624,0.0399,-0.0415,393,2019-08-07 16:50:05:767
-6.9304,-6.1145,1.0419,-0.4275,-0.3859,0.224,0.057,0.0559,-0.0479,398,2019-08-07 16:50:05:772
-6.9304,-6.1145,1.0419,-0.2273,-0.4331,0.1638,0.057,0.0559,-0.0479,402,2019-08-07 16:50:05:776
-7.0931,-6.1049,1.0937,-0.2273,-0.4331,0.1638,0.0496,0.0548,-0.0575,408,2019-08-07 16:50:05:782
-7.0931,-6.1049,1.0937,-0.2273,-0.4331,0.1638,0.0496,0.0548,-0.0575,413,2019-08-07 16:50:05:787
-7.0931,-6.1049,1.0937,-0.2273,-0.4331,0.1638,0.0506,0.0218,-0.0575,418,2019-08-07 16:50:05:792
-7.117,-6.0906,1.287,-0.084,-0.4526,-0.0347,0.0506,0.0218,-0.0575,422,2019-08-07 16:50:05:796
-7.117,-6.0906,1.287,-0.084,-0.4526,-0.0347,0.0506,0.0218,-0.0575,428,2019-08-07 16:50:05:802
-7.0941,-6.1048,1.2962,-0.084,-0.4526,-0.0347,0.0496,-0.0219,-0.0511,432,2019-08-07 16:50:05:806
-7.0941,-6.1048,1.2962,-0.084,-0.4526,-0.0347,0.0496,-0.0219,-0.0511,438,2019-08-07 16:50:05:812
-7.0941,-6.1048,1.2962,-0.1916,-0.5004,-0.0188,0.0496,-0.0688,-0.0468,443,2019-08-07 16:50:05:817
-6.941,-6.0905,1.282,-0.1916,-0.5004,-0.0188,0.0496,-0.0688,-0.0468,447,2019-08-07 16:50:05:821
-6.941,-6.0905,1.282,-0.1916,-0.5004,-0.0188,0.0432,-0.0933,-0.0437,453,2019-08-07 16:50:05:827
-6.941,-6.0905,1.282,-0.1916,-0.5004,-0.0188,0.0432,-0.0933,-0.0437,458,2019-08-07 16:50:05:832
-6.8836,-6.0905,1.2915,-0.3757,-0.4854,0.0337,0.0379,-0.0997,-0.0383,462,2019-08-07 16:50:05:836
-6.8836,-6.0905,1.2915,-0.3757,-0.4854,0.0337,0.0379,-0.0997,-0.0383,468,2019-08-07 16:50:05:842
-6.8836,-6.0905,1.2915,-0.3757,-0.4854,0.0337,0.0283,-0.0848,-0.0373,472,2019-08-07 16:50:05:846
-6.6923,-6.1048,1.183,-0.3757,-0.4854,0.0337,0.0283,-0.0848,-0.0373,478,2019-08-07 16:50:05:852
-6.6923,-6.1048,1.183,-0.5598,-0.3659,0.1875,0.0283,-0.0848,-0.0373,482,2019-08-07 16:50:05:856
-6.6492,-6.2958,1.0935,-0.5598,-0.3659,0.1875,0.0155,-0.0581,-0.0447,488,2019-08-07 16:50:05:862
-6.6492,-6.2958,1.0935,-0.5598,-0.3659,0.1875,0.0155,-0.0581,-0.0447,493,2019-08-07 16:50:05:867
-6.6492,-6.2958,1.0935,-0.5598,-0.3659,0.1875,0.0048,-0.0112,-0.0468,498,2019-08-07 16:50:05:872
-6.6827,-6.3578,1.0558,-0.528,-0.1875,0.1492,0.0048,-0.0112,-0.0468,503,2019-08-07 16:50:05:877
-6.6827,-6.3578,1.0558,-0.528,-0.1875,0.1492,-5.0E-4,0.0591,-0.05,508,2019-08-07 16:50:05:882
-6.7545,-6.4629,1.1736,-0.528,-0.1875,0.1492,-5.0E-4,0.0591,-0.05,513,2019-08-07 16:50:05:887
-6.7545,-6.4629,1.1736,-0.528,-0.1875,0.1492,0.0016,0.09,-0.0511,518,2019-08-07 16:50:05:892
-6.7545,-6.4629,1.1736,-0.2974,-0.1768,0.0865,0.0016,0.09,-0.0511,523,2019-08-07 16:50:05:897
-6.9028,-6.4772,1.3009,-0.2974,-0.1768,0.0865,0.0027,0.0878,-0.05,528,2019-08-07 16:50:05:902
-6.9028,-6.4772,1.3009,-0.2974,-0.1768,0.0865,0.0027,0.0878,-0.05,533,2019-08-07 16:50:05:907
-6.9028,-6.4772,1.3009,-0.2974,-0.1768,0.0865,0.0027,0.0878,-0.05,537,2019-08-07 16:50:05:911
-6.9842,-6.3292,1.3952,-0.2067,-0.2075,-0.1354,0.0112,0.0505,-0.0415,543,2019-08-07 16:50:05:917
-6.9842,-6.3292,1.3952,-0.2067,-0.2075,-0.1354,0.0112,0.0505,-0.0415,548,2019-08-07 16:50:05:922
-6.989,-6.2815,1.4941,-0.2067,-0.2075,-0.1354,0.0261,-0.0144,-0.0298,553,2019-08-07 16:50:05:927
-6.989,-6.2815,1.4941,-0.2067,-0.2075,-0.1354,0.0261,-0.0144,-0.0298,558,2019-08-07 16:50:05:932
-6.989,-6.2815,1.4941,-0.2554,-0.349,-0.1575,0.0325,-0.0624,-0.0138,563,2019-08-07 16:50:05:937
-6.8694,-6.2099,1.4329,-0.2554,-0.349,-0.1575,0.0325,-0.0624,-0.0138,568,2019-08-07 16:50:05:942
-6.8694,-6.2099,1.4329,-0.2554,-0.349,-0.1575,0.0325,-0.0624,-0.0138,573,2019-08-07 16:50:05:947
-6.7737,-6.1908,1.414,-0.2554,-0.349,-0.1575,0.0347,-0.0997,-0.0064,578,2019-08-07 16:50:05:952
-6.7737,-6.1908,1.414,-0.4195,-0.4444,-0.1009,0.0347,-0.0997,-0.0064,583,2019-08-07 16:50:05:957
-6.7737,-6.1908,1.414,-0.4195,-0.4444,-0.1009,0.0336,-0.1039,0.0022,588,2019-08-07 16:50:05:962
-6.6158,-6.2719,1.216,-0.4195,-0.4444,-0.1009,0.0336,-0.1039,0.0022,594,2019-08-07 16:50:05:968
-6.6158,-6.2719,1.216,-0.4195,-0.4444,-0.1009,0.0229,-0.0752,0.0075,598,2019-08-07 16:50:05:972
-6.6158,-6.2719,1.216,-0.4195,-0.4444,-0.1009,0.0229,-0.0752,0.0075,602,2019-08-07 16:50:05:976
-6.5872,-6.3196,1.1689,-0.5893,-0.3099,0.1613,0.0155,-0.0304,0.0117,608,2019-08-07 16:50:05:982
-6.5872,-6.3196,1.1689,-0.5893,-0.3099,0.1613,0.0155,-0.0304,0.0117,613,2019-08-07 16:50:05:987
-6.6302,-6.291,1.1972,-0.5893,-0.3099,0.1613,0.0155,-0.0304,0.0117,618,2019-08-07 16:50:05:992
-6.6302,-6.291,1.1972,-0.5371,-0.2707,0.1545,0.0144,0.0388,0.0139,623,2019-08-07 16:50:05:997
-6.6302,-6.291,1.1972,-0.5371,-0.2707,0.1545,0.0144,0.0388,0.0139,628,2019-08-07 16:50:06:002
-6.7307,-6.3435,1.1972,-0.5371,-0.2707,0.1545,0.0102,0.075,0.0085,632,2019-08-07 16:50:06:006
-6.7307,-6.3435,1.1972,-0.5371,-0.2707,0.1545,0.0102,0.075,0.0085,638,2019-08-07 16:50:06:012
-6.7307,-6.3435,1.1972,-0.5371,-0.2707,0.1545,0.0102,0.075,0.0085,643,2019-08-07 16:50:06:017
-6.9508,-6.3005,1.2961,-0.2052,-0.279,0.0225,0.0016,0.0772,0.0107,647,2019-08-07 16:50:06:021
-6.9508,-6.3005,1.2961,-0.2052,-0.279,0.0225,0.0016,0.0772,0.0107,653,2019-08-07 16:50:06:027
-6.9891,-6.2671,1.315,-0.2052,-0.279,0.0225,-0.0037,0.0378,0.0096,657,2019-08-07 16:50:06:031
-6.9891,-6.2671,1.315,-0.2052,-0.279,0.0225,-0.0037,0.0378,0.0096,663,2019-08-07 16:50:06:037
-6.9891,-6.2671,1.315,-0.189,-0.3055,0.0166,-0.0047,-0.0134,0.0107,668,2019-08-07 16:50:06:042
-6.97,-6.2624,1.3103,-0.189,-0.3055,0.0166,-0.0047,-0.0134,0.0107,672,2019-08-07 16:50:06:046
-6.97,-6.2624,1.3103,-0.189,-0.3055,0.0166,-0.0079,-0.0517,0.0085,678,2019-08-07 16:50:06:052
-6.8264,-6.2098,1.2443,-0.189,-0.3055,0.0166,-0.0079,-0.0517,0.0085,683,2019-08-07 16:50:06:057
-6.8264,-6.2098,1.2443,-0.3375,-0.2944,0.1175,-0.0101,-0.0837,0.0117,688,2019-08-07 16:50:06:062
-6.726,-6.1907,1.1971,-0.3375,-0.2944,0.1175,-0.0101,-0.0837,0.0117,693,2019-08-07 16:50:06:067
-6.726,-6.1907,1.1971,-0.3375,-0.2944,0.1175,-0.0175,-0.0784,0.0139,697,2019-08-07 16:50:06:071
-6.726,-6.1907,1.1971,-0.3375,-0.2944,0.1175,-0.0175,-0.0784,0.0139,703,2019-08-07 16:50:06:077
-6.7021,-6.186,0.919,-0.4758,-0.3267,0.319,-0.0239,-0.0496,0.0171,707,2019-08-07 16:50:06:081
-6.7021,-6.186,0.919,-0.4758,-0.3267,0.319,-0.0239,-0.0496,0.0171,713,2019-08-07 16:50:06:087
-6.7021,-6.186,0.919,-0.4758,-0.3267,0.319,-0.0324,-0.007,0.016,717,2019-08-07 16:50:06:091
-6.6686,-6.334,0.9143,-0.4758,-0.3267,0.319,-0.0324,-0.007,0.016,723,2019-08-07 16:50:06:097
-6.6686,-6.334,0.9143,-0.4483,-0.145,0.3606,-0.0324,0.041,0.0149,728,2019-08-07 16:50:06:102
-6.7212,-6.3626,1.0227,-0.4483,-0.145,0.3606,-0.0324,0.041,0.0149,733,2019-08-07 16:50:06:107
-6.7212,-6.3626,1.0227,-0.4483,-0.145,0.3606,-0.0218,0.091,0.0128,737,2019-08-07 16:50:06:111
-6.7212,-6.3626,1.0227,-0.4483,-0.145,0.3606,-0.0218,0.091,0.0128,743,2019-08-07 16:50:06:117
-6.86,-6.353,0.9426,-0.3034,-0.221,0.3627,-0.0186,0.1059,0.0085,747,2019-08-07 16:50:06:121
-6.86,-6.353,0.9426,-0.3034,-0.221,0.3627,-0.0186,0.1059,0.0085,753,2019-08-07 16:50:06:127
-6.9796,-6.2719,1.051,-0.3034,-0.221,0.3627,-0.0186,0.1059,0.0085,758,2019-08-07 16:50:06:132
-6.9796,-6.2719,1.051,-0.3034,-0.221,0.3627,-0.0175,0.0942,0.0053,762,2019-08-07 16:50:06:136
-6.9796,-6.2719,1.051,-0.1113,-0.33,0.1507,-0.0175,0.0942,0.0053,768,2019-08-07 16:50:06:142
-7.0275,-6.2194,1.1783,-0.1113,-0.33,0.1507,-0.0079,0.0559,0.0043,773,2019-08-07 16:50:06:147
-7.0275,-6.2194,1.1783,-0.1113,-0.33,0.1507,-0.0079,0.0559,0.0043,778,2019-08-07 16:50:06:152
-7.0227,-6.2289,1.2065,-0.1113,-0.33,0.1507,-0.0016,0.0037,0.0107,783,2019-08-07 16:50:06:157
-7.0227,-6.2289,1.2065,-0.1811,-0.3521,0.0453,-0.0016,0.0037,0.0107,787,2019-08-07 16:50:06:161
-7.0227,-6.2289,1.2065,-0.1811,-0.3521,0.0453,0.0102,-0.0347,0.016,793,2019-08-07 16:50:06:167
-6.9222,-6.1907,1.2725,-0.1811,-0.3521,0.0453,0.0102,-0.0347,0.016,797,2019-08-07 16:50:06:171
-6.9222,-6.1907,1.2725,-0.1811,-0.3521,0.0453,0.0166,-0.0624,0.0309,803,2019-08-07 16:50:06:177
-6.8266,-6.2051,1.1783,-0.3366,-0.3288,0.1145,0.0166,-0.0624,0.0309,807,2019-08-07 16:50:06:181
-6.8266,-6.2051,1.1783,-0.3366,-0.3288,0.1145,0.0176,-0.072,0.0426,813,2019-08-07 16:50:06:187
-6.8266,-6.2051,1.1783,-0.3366,-0.3288,0.1145,0.0176,-0.072,0.0426,818,2019-08-07 16:50:06:192
-6.7261,-6.2051,1.117,-0.3366,-0.3288,0.1145,0.0166,-0.0581,0.0458,823,2019-08-07 16:50:06:197
-6.7261,-6.2051,1.117,-0.4552,-0.3413,0.1689,0.0166,-0.0581,0.0458,828,2019-08-07 16:50:06:202
-6.6831,-6.1955,1.183,-0.4552,-0.3413,0.1689,0.0144,-0.0251,0.0501,833,2019-08-07 16:50:06:207
-6.6831,-6.1955,1.183,-0.4552,-0.3413,0.1689,0.0144,-0.0251,0.0501,837,2019-08-07 16:50:06:211
-6.6831,-6.1955,1.183,-0.4552,-0.3413,0.1689,0.0144,-0.0251,0.0501,843,2019-08-07 16:50:06:217
-6.6544,-6.2241,1.0604,-0.523,-0.3631,0.2108,0.0102,0.0175,0.0501,848,2019-08-07 16:50:06:222
-6.6544,-6.2241,1.0604,-0.523,-0.3631,0.2108,0.0102,0.0175,0.0501,853,2019-08-07 16:50:06:227
-6.7883,-6.2098,1.0793,-0.523,-0.3631,0.2108,0.008,0.0644,0.0543,858,2019-08-07 16:50:06:232
-6.7883,-6.2098,1.0793,-0.523,-0.3631,0.2108,0.008,0.0644,0.0543,863,2019-08-07 16:50:06:237
-6.7883,-6.2098,1.0793,-0.3546,-0.2552,0.1352,0.0016,0.0878,0.0533,867,2019-08-07 16:50:06:241
-6.9127,-6.2576,1.1971,-0.3546,-0.2552,0.1352,0.0016,0.0878,0.0533,873,2019-08-07 16:50:06:247
-6.9127,-6.2576,1.1971,-0.3546,-0.2552,0.1352,-5.0E-4,0.0868,0.0522,878,2019-08-07 16:50:06:252
-7.0132,-6.2241,1.2867,-0.3546,-0.2552,0.1352,-5.0E-4,0.0868,0.0522,883,2019-08-07 16:50:06:257
-7.0132,-6.2241,1.2867,-0.1683,-0.2802,-0.009,6.0E-4,0.0655,0.0639,888,2019-08-07 16:50:06:262
-7.0132,-6.2241,1.2867,-0.1683,-0.2802,-0.009,6.0E-4,0.0655,0.0639,892,2019-08-07 16:50:06:266
-7.0228,-6.291,1.3809,-0.1683,-0.2802,-0.009,0.0027,0.0399,0.0693,898,2019-08-07 16:50:06:272
-7.0228,-6.291,1.3809,-0.1683,-0.2802,-0.009,0.0027,0.0399,0.0693,902,2019-08-07 16:50:06:276
-6.9845,-6.3101,1.3762,-0.2264,-0.2173,-0.0988,0.007,0.0122,0.0757,908,2019-08-07 16:50:06:282
-6.9845,-6.3101,1.3762,-0.2264,-0.2173,-0.0988,0.007,0.0122,0.0757,913,2019-08-07 16:50:06:287
-6.9845,-6.3101,1.3762,-0.2264,-0.2173,-0.0988,0.0102,-0.0283,0.082,918,2019-08-07 16:50:06:292
-7.0085,-6.3244,1.4893,-0.2264,-0.2173,-0.0988,0.0102,-0.0283,0.082,922,2019-08-07 16:50:06:296
-7.0085,-6.3244,1.4893,-0.3225,-0.2385,-0.0832,0.0144,-0.0549,0.0895,928,2019-08-07 16:50:06:302
-6.8698,-6.3101,1.3762,-0.3225,-0.2385,-0.0832,0.0144,-0.0549,0.0895,933,2019-08-07 16:50:06:307
-6.8698,-6.3101,1.3762,-0.3225,-0.2385,-0.0832,0.0038,-0.0613,0.0874,937,2019-08-07 16:50:06:311
-6.8698,-6.3101,1.3762,-0.3225,-0.2385,-0.0832,0.0038,-0.0613,0.0874,944,2019-08-07 16:50:06:318
-6.798,-6.2957,1.3149,-0.4755,-0.2497,-0.0114,0.0038,-0.0517,0.0906,947,2019-08-07 16:50:06:321
-6.798,-6.2957,1.3149,-0.4755,-0.2497,-0.0114,0.0038,-0.0517,0.0906,953,2019-08-07 16:50:06:327
-6.798,-6.2957,1.3149,-0.4755,-0.2497,-0.0114,0.0038,-0.0517,0.0906,958,2019-08-07 16:50:06:332
-6.7454,-6.2862,1.2395,-0.4755,-0.2497,-0.0114,0.0027,-0.0251,0.0938,963,2019-08-07 16:50:06:337
-6.7454,-6.2862,1.2395,-0.4574,-0.1941,0.1199,0.0027,-0.0251,0.0938,967,2019-08-07 16:50:06:341
-6.8124,-6.248,1.2065,-0.4574,-0.1941,0.1199,0.007,0.0239,0.0948,973,2019-08-07 16:50:06:347
-6.8124,-6.248,1.2065,-0.4574,-0.1941,0.1199,0.007,0.0239,0.0948,978,2019-08-07 16:50:06:352
-6.8124,-6.248,1.2065,-0.4574,-0.1941,0.1199,0.007,0.0239,0.0948,983,2019-08-07 16:50:06:357
-6.932,-6.2623,1.3008,-0.4574,-0.1941,0.1199,0.0102,0.0559,0.097,987,2019-08-07 16:50:06:361
-6.932,-6.2623,1.3008,-0.2555,-0.2421,-0.0829,0.0102,0.0559,0.097,993,2019-08-07 16:50:06:367
-6.932,-6.2623,1.3008,-0.2555,-0.2421,-0.0829,0.0198,0.0708,0.1002,998,2019-08-07 16:50:06:372
-7.0468,-6.1525,1.4092,-0.2555,-0.2421,-0.0829,0.0198,0.0708,0.1002,1003,2019-08-07 16:50:06:377
-7.0468,-6.1525,1.4092,-0.08,-0.2732,-0.164,0.0208,0.0463,0.1076,1008,2019-08-07 16:50:06:382
-7.2191,-6.1382,1.4375,-0.08,-0.2732,-0.164,0.0208,0.0463,0.1076,1013,2019-08-07 16:50:06:387
-7.2191,-6.1382,1.4375,-0.08,-0.2732,-0.164,0.0176,0.0026,0.1172,1017,2019-08-07 16:50:06:391
-7.2191,-6.1382,1.4375,-0.08,-0.2732,-0.164,0.0176,0.0026,0.1172,1023,2019-08-07 16:50:06:397
-7.1186,-6.1477,1.4799,-0.08,-0.2732,-0.164,0.0166,-0.0507,0.1204,1028,2019-08-07 16:50:06:402
-7.1186,-6.1477,1.4799,-0.1818,-0.2687,-0.1874,0.0166,-0.0507,0.1204,1032,2019-08-07 16:50:06:406
-7.1186,-6.1477,1.4799,-0.1818,-0.2687,-0.1874,0.0166,-0.0507,0.1204,1038,2019-08-07 16:50:06:412
-7.0038,-6.248,1.494,-0.1818,-0.2687,-0.1874,0.0198,-0.0901,0.1247,1043,2019-08-07 16:50:06:417
-7.0038,-6.248,1.494,-0.1818,-0.2687,-0.1874,0.0198,-0.0901,0.1247,1048,2019-08-07 16:50:06:422
-6.9273,-6.3101,1.4328,-0.3295,-0.1497,-0.1146,0.0112,-0.1007,0.1332,1053,2019-08-07 16:50:06:427
-6.9273,-6.3101,1.4328,-0.3295,-0.1497,-0.1146,0.0112,-0.1007,0.1332,1057,2019-08-07 16:50:06:431
-6.9273,-6.3101,1.4328,-0.3295,-0.1497,-0.1146,0.0112,-0.0901,0.1385,1063,2019-08-07 16:50:06:437
-6.8794,-6.291,1.362,-0.3295,-0.1497,-0.1146,0.0112,-0.0901,0.1385,1067,2019-08-07 16:50:06:441
-6.8794,-6.291,1.362,-0.4111,-0.1344,-0.0422,0.0091,-0.0666,0.1417,1073,2019-08-07 16:50:06:447
-6.9321,-6.1716,1.3668,-0.4111,-0.1344,-0.0422,0.0091,-0.0666,0.1417,1077,2019-08-07 16:50:06:451
-6.9321,-6.1716,1.3668,-0.4111,-0.1344,-0.0422,0.008,-0.0453,0.1406,1083,2019-08-07 16:50:06:457
-6.9321,-6.1716,1.3668,-0.4111,-0.1344,-0.0422,0.008,-0.0453,0.1406,1088,2019-08-07 16:50:06:462
-6.9847,-6.1095,1.2583,-0.3463,-0.2712,0.075,0.008,-0.0453,0.1406,1093,2019-08-07 16:50:06:467
-6.9847,-6.1095,1.2583,-0.3463,-0.2712,0.075,-0.0047,-0.0283,0.1406,1098,2019-08-07 16:50:06:472
-7.023,-6.1621,1.2536,-0.3463,-0.2712,0.075,-0.0047,-0.0283,0.1406,1103,2019-08-07 16:50:06:477
-7.023,-6.1621,1.2536,-0.3463,-0.2712,0.075,-0.0165,0.0026,0.1342,1107,2019-08-07 16:50:06:481
-7.023,-6.1621,1.2536,-0.2392,-0.2464,1.0E-4,-0.0165,0.0026,0.1342,1113,2019-08-07 16:50:06:487
-7.1474,-6.1668,1.3338,-0.2392,-0.2464,1.0E-4,-0.0165,0.0186,0.1268,1118,2019-08-07 16:50:06:492
-7.1474,-6.1668,1.3338,-0.2392,-0.2464,1.0E-4,-0.0165,0.0186,0.1268,1122,2019-08-07 16:50:06:496
-7.1522,-6.1764,1.3008,-0.2392,-0.2464,1.0E-4,-0.0143,0.0196,0.1151,1128,2019-08-07 16:50:06:502
-7.1522,-6.1764,1.3008,-0.1884,-0.2286,-0.0186,-0.0143,0.0196,0.1151,1133,2019-08-07 16:50:06:507
-7.1522,-6.1764,1.3008,-0.1884,-0.2286,-0.0186,-0.0143,0.0196,0.1151,1137,2019-08-07 16:50:06:511
-7.2288,-6.2528,1.3432,-0.1884,-0.2286,-0.0186,-0.0154,0.0058,0.1002,1143,2019-08-07 16:50:06:517
-7.2288,-6.2528,1.3432,-0.1884,-0.2286,-0.0186,-0.0154,0.0058,0.1002,1148,2019-08-07 16:50:06:522
-7.2288,-6.2528,1.3432,-0.0914,-0.1088,-0.0392,-0.0047,-0.0144,0.0852,1153,2019-08-07 16:50:06:527
-7.2766,-6.1811,1.3809,-0.0914,-0.1088,-0.0392,-0.0047,-0.0144,0.0852,1158,2019-08-07 16:50:06:532
-7.2766,-6.1811,1.3809,-0.0914,-0.1088,-0.0392,0.0038,-0.0464,0.0725,1163,2019-08-07 16:50:06:537
-7.2719,-6.1716,1.3997,-0.0914,-0.1088,-0.0392,0.0038,-0.0464,0.0725,1168,2019-08-07 16:50:06:542
-7.2719,-6.1716,1.3997,-0.1617,-0.2216,0.0069,0.0027,-0.089,0.0554,1173,2019-08-07 16:50:06:547
-7.1666,-6.0618,1.3055,-0.1617,-0.2216,0.0069,0.0027,-0.089,0.0554,1179,2019-08-07 16:50:06:553
-7.1666,-6.0618,1.3055,-0.2309,-0.2747,0.0946,-0.009,-0.121,0.0469,1183,2019-08-07 16:50:06:557
-7.1666,-6.0618,1.3055,-0.2309,-0.2747,0.0946,-0.009,-0.121,0.0469,1188,2019-08-07 16:50:06:562
-7.0088,-6.0284,1.1782,-0.2309,-0.2747,0.0946,-0.0186,-0.1338,0.0362,1193,2019-08-07 16:50:06:567
-7.0088,-6.0284,1.1782,-0.2309,-0.2747,0.0946,-0.0186,-0.1338,0.0362,1198,2019-08-07 16:50:06:572
-7.0088,-6.0284,1.1782,-0.481,-0.3125,0.2386,-0.0186,-0.1338,0.0362,1203,2019-08-07 16:50:06:577
-6.8796,-6.0141,1.0886,-0.481,-0.3125,0.2386,-0.0314,-0.1167,0.0245,1208,2019-08-07 16:50:06:582
-6.8796,-6.0141,1.0886,-0.481,-0.3125,0.2386,-0.0314,-0.1167,0.0245,1213,2019-08-07 16:50:06:587
-6.8796,-6.0141,1.0886,-0.481,-0.3125,0.2386,-0.041,-0.0773,0.0213,1217,2019-08-07 16:50:06:591
-6.8365,-5.9138,1.065,-0.5672,-0.3681,0.2742,-0.041,-0.0773,0.0213,1223,2019-08-07 16:50:06:597
-6.8365,-5.9138,1.065,-0.5672,-0.3681,0.2742,-0.0495,-0.007,0.0107,1228,2019-08-07 16:50:06:602
-6.9035,-5.8661,1.1405,-0.5672,-0.3681,0.2742,-0.0495,-0.007,0.0107,1233,2019-08-07 16:50:06:607
-6.9035,-5.8661,1.1405,-0.5672,-0.3681,0.2742,-0.0644,0.0335,0.0043,1237,2019-08-07 16:50:06:611
-6.9035,-5.8661,1.1405,-0.4253,-0.4638,0.2691,-0.0644,0.0335,0.0043,1243,2019-08-07 16:50:06:617
-6.9897,-5.8231,1.1357,-0.4253,-0.4638,0.2691,-0.0793,0.0548,-0.001,1248,2019-08-07 16:50:06:622
-6.9897,-5.8231,1.1357,-0.4253,-0.4638,0.2691,-0.0793,0.0548,-0.001,1253,2019-08-07 16:50:06:627
-7.0854,-5.9329,1.1357,-0.4253,-0.4638,0.2691,-0.0868,0.0601,-0.0053,1257,2019-08-07 16:50:06:631
-7.0854,-5.9329,1.1357,-0.3219,-0.3417,0.0558,-0.0868,0.0601,-0.0053,1263,2019-08-07 16:50:06:637
-7.0854,-5.9329,1.1357,-0.3219,-0.3417,0.0558,-0.0868,0.0399,-0.0064,1268,2019-08-07 16:50:06:642
-7.1619,-5.9997,1.2536,-0.3219,-0.3417,0.0558,-0.0868,0.0399,-0.0064,1272,2019-08-07 16:50:06:646
-7.1619,-5.9997,1.2536,-0.3219,-0.3417,0.0558,-0.0761,0.0111,0.0022,1278,2019-08-07 16:50:06:652
-7.1619,-5.9997,1.2536,-0.3219,-0.3417,0.0558,-0.0761,0.0111,0.0022,1283,2019-08-07 16:50:06:657
-7.095,-6.0188,1.2724,-0.2988,-0.2913,0.0504,-0.0761,0.0111,0.0022,1287,2019-08-07 16:50:06:661
-7.095,-6.0188,1.2724,-0.2988,-0.2913,0.0504,-0.0569,-0.0304,0.0192,1293,2019-08-07 16:50:06:667
-7.0328,-5.995,1.2394,-0.2988,-0.2913,0.0504,-0.0569,-0.0304,0.0192,1298,2019-08-07 16:50:06:672
-7.0328,-5.995,1.2394,-0.2988,-0.2913,0.0504,-0.0463,-0.0539,0.0277,1302,2019-08-07 16:50:06:676
-7.0328,-5.995,1.2394,-0.377,-0.3805,0.0482,-0.0463,-0.0539,0.0277,1308,2019-08-07 16:50:06:682
-6.9658,-5.9329,1.2724,-0.377,-0.3805,0.0482,-0.0388,-0.0571,0.0352,1314,2019-08-07 16:50:06:688
-6.9658,-5.9329,1.2724,-0.377,-0.3805,0.0482,-0.0388,-0.0571,0.0352,1318,2019-08-07 16:50:06:692
-6.9658,-5.9329,1.1687,-0.4611,-0.3767,0.1547,-0.0388,-0.0571,0.0352,1323,2019-08-07 16:50:06:697
-6.9371,-5.9281,1.1687,-0.4611,-0.3767,0.1547,-0.041,-0.0315,0.0384,1328,2019-08-07 16:50:06:702
-6.9371,-5.9281,1.1687,-0.4611,-0.3767,0.1547,-0.041,-0.0315,0.0384,1333,2019-08-07 16:50:06:707
-6.9515,-5.9711,1.1499,-0.4611,-0.3767,0.1547,-0.041,-0.0049,0.0448,1338,2019-08-07 16:50:06:712
-6.9515,-5.9711,1.1499,-0.4611,-0.3767,0.1547,-0.041,-0.0049,0.0448,1343,2019-08-07 16:50:06:717
-6.9515,-5.9711,1.1499,-0.4564,-0.3241,0.1556,-0.0463,0.0196,0.0469,1348,2019-08-07 16:50:06:722
-7.0089,-5.995,1.1687,-0.4564,-0.3241,0.1556,-0.0463,0.0196,0.0469,1352,2019-08-07 16:50:06:726
-7.0089,-5.995,1.1687,-0.4564,-0.3241,0.1556,-0.0463,0.0196,0.0469,1358,2019-08-07 16:50:06:732
-7.0759,-6.1095,1.197,-0.4564,-0.3241,0.1556,-0.0527,0.0441,0.0416,1363,2019-08-07 16:50:06:737
-7.0759,-6.1095,1.197,-0.3337,-0.2568,0.0263,-0.0527,0.0441,0.0416,1367,2019-08-07 16:50:06:741
-7.0759,-6.1095,1.197,-0.3337,-0.2568,0.0263,-0.0623,0.0463,0.0416,1373,2019-08-07 16:50:06:747
-7.1525,-6.0331,1.2536,-0.3337,-0.2568,0.0263,-0.0623,0.0463,0.0416,1377,2019-08-07 16:50:06:751
-7.1525,-6.0331,1.2536,-0.3337,-0.2568,0.0263,-0.0697,0.0314,0.049,1383,2019-08-07 16:50:06:757
-7.1525,-6.0331,1.2536,-0.2018,-0.2182,-0.0869,-0.0697,0.0314,0.049,1388,2019-08-07 16:50:06:762
-7.186,-5.9997,1.3855,-0.2018,-0.2182,-0.0869,-0.0697,0.0314,0.049,1392,2019-08-07 16:50:06:766
-7.186,-5.9997,1.3855,-0.2018,-0.2182,-0.0869,-0.074,0.0133,0.0458,1398,2019-08-07 16:50:06:772
-7.1764,-6.0093,1.395,-0.2018,-0.2182,-0.0869,-0.074,0.0133,0.0458,1403,2019-08-07 16:50:06:777
-7.1764,-6.0093,1.395,-0.2177,-0.2509,-0.1157,-0.0814,-0.0187,0.0426,1408,2019-08-07 16:50:06:782
-7.1764,-6.0093,1.395,-0.2177,-0.2509,-0.1157,-0.0814,-0.0187,0.0426,1413,2019-08-07 16:50:06:787
-7.1956,-6.0475,1.362,-0.2177,-0.2509,-0.1157,-0.091,-0.0283,0.0448,1417,2019-08-07 16:50:06:791
-7.1956,-6.0475,1.362,-0.2177,-0.2509,-0.1157,-0.091,-0.0283,0.0448,1423,2019-08-07 16:50:06:797
-7.0999,-6.0236,1.329,-0.328,-0.2557,-0.0509,-0.09,-0.0336,0.0416,1428,2019-08-07 16:50:06:802
-7.0999,-6.0236,1.329,-0.328,-0.2557,-0.0509,-0.09,-0.0336,0.0416,1432,2019-08-07 16:50:06:806
-7.0999,-6.0236,1.329,-0.328,-0.2557,-0.0509,-0.0985,-0.0049,0.0298,1438,2019-08-07 16:50:06:812
-7.0999,-5.9949,1.1828,-0.328,-0.2557,-0.0509,-0.0985,-0.0049,0.0298,1443,2019-08-07 16:50:06:817
-7.0999,-5.9949,1.1828,-0.3557,-0.2341,0.1041,-0.1049,0.0282,0.0224,1447,2019-08-07 16:50:06:821
-7.0377,-6.0952,1.2253,-0.3557,-0.2341,0.1041,-0.1049,0.0282,0.0224,1453,2019-08-07 16:50:06:827
-7.0377,-6.0952,1.2253,-0.3557,-0.2341,0.1041,-0.1059,0.0591,0.0149,1458,2019-08-07 16:50:06:832
-7.0377,-6.0952,1.2253,-0.3557,-0.2341,0.1041,-0.1059,0.0591,0.0149,1462,2019-08-07 16:50:06:836
-7.1908,-6.1859,1.2535,-0.2438,-0.0914,-0.0055,-0.107,0.0761,0.0085,1468,2019-08-07 16:50:06:842
-7.1908,-6.1859,1.2535,-0.2438,-0.0914,-0.0055,-0.107,0.0761,0.0085,1473,2019-08-07 16:50:06:847
-7.1908,-6.1859,1.2535,-0.2438,-0.0914,-0.0055,-0.107,0.0761,0.0085,1478,2019-08-07 16:50:06:852
-7.2291,-6.2098,1.3337,-0.2438,-0.0914,-0.0055,-0.1081,0.0686,0.0117,1483,2019-08-07 16:50:06:857
-7.2291,-6.2098,1.3337,-0.1363,-0.0262,-0.1322,-0.1081,0.0686,0.0117,1488,2019-08-07 16:50:06:862
-7.3057,-6.2527,1.4562,-0.1363,-0.0262,-0.1322,-0.1038,0.0271,0.0096,1493,2019-08-07 16:50:06:867
-7.3057,-6.2527,1.4562,-0.1363,-0.0262,-0.1322,-0.1038,0.0271,0.0096,1498,2019-08-07 16:50:06:872
-7.3057,-6.2527,1.4562,-0.1363,-0.0262,-0.1322,-0.1102,-0.0357,0.0085,1502,2019-08-07 16:50:06:876
-7.3009,-6.2718,1.4845,-0.137,-0.0085,-0.2715,-0.1102,-0.0357,0.0085,1508,2019-08-07 16:50:06:882
-7.3009,-6.2718,1.4845,-0.137,-0.0085,-0.2715,-0.1091,-0.0943,0.0139,1513,2019-08-07 16:50:06:887
-7.3009,-6.2718,1.4845,-0.137,-0.0085,-0.2715,-0.1091,-0.0943,0.0139,1518,2019-08-07 16:50:06:892
-7.1574,-6.3148,1.5741,-0.137,-0.0085,-0.2715,-0.1059,-0.1529,0.0224,1523,2019-08-07 16:50:06:897
-7.1574,-6.3148,1.5741,-0.3456,0.0335,-0.35,-0.1059,-0.1529,0.0224,1528,2019-08-07 16:50:06:902
-7.0378,-6.2766,1.5976,-0.3456,0.0335,-0.35,-0.1059,-0.1529,0.0224,1532,2019-08-07 16:50:06:906
-7.0378,-6.2766,1.5976,-0.3456,0.0335,-0.35,-0.0996,-0.1764,0.0256,1538,2019-08-07 16:50:06:912
-7.0378,-6.2766,1.5976,-0.3456,0.0335,-0.35,-0.0996,-0.1764,0.0256,1543,2019-08-07 16:50:06:917
-7.1144,-6.2336,1.6683,-0.2431,-0.0849,-0.4416,-0.0996,-0.1774,0.0362,1547,2019-08-07 16:50:06:921
-7.1144,-6.2336,1.6683,-0.2431,-0.0849,-0.4416,-0.0996,-0.1774,0.0362,1553,2019-08-07 16:50:06:927
-7.1144,-6.2336,1.6683,-0.2431,-0.0849,-0.4416,-0.0868,-0.1657,0.0405,1558,2019-08-07 16:50:06:932
-7.5019,-6.1572,2.1162,-0.2431,-0.0849,-0.4416,-0.0868,-0.1657,0.0405,1563,2019-08-07 16:50:06:937
-7.5019,-6.1572,2.1162,0.4401,-0.1705,-1.3355,-0.0569,-0.1732,0.0469,1567,2019-08-07 16:50:06:941
-8.0712,-6.0761,3.0212,0.4401,-0.1705,-1.3355,-0.0569,-0.1732,0.0469,1573,2019-08-07 16:50:06:947
-8.0712,-6.0761,3.0212,0.4401,-0.1705,-1.3355,-0.0569,-0.1732,0.0469,1577,2019-08-07 16:50:06:951
-8.0712,-6.0761,3.0212,0.4401,-0.1705,-1.3355,-0.0133,-0.2222,0.0512,1583,2019-08-07 16:50:06:957
-8.8128,-5.8613,3.8084,1.5324,-0.5152,-2.5955,-0.0133,-0.2222,0.0512,1588,2019-08-07 16:50:06:962
-8.8128,-5.8613,3.8084,1.5324,-0.5152,-2.5955,6.0E-4,-0.3809,0.0533,1593,2019-08-07 16:50:06:967
-8.8128,-5.8613,3.8084,1.5324,-0.5152,-2.5955,6.0E-4,-0.3809,0.0533,1598,2019-08-07 16:50:06:972
-9.4778,-5.5939,4.2986,2.0389,-0.6589,-2.9568,-0.0399,-0.578,0.0512,1602,2019-08-07 16:50:06:976
-9.4778,-5.5939,4.2986,2.0389,-0.6589,-2.9568,-0.0399,-0.578,0.0512,1608,2019-08-07 16:50:06:982
-10.1285,-5.4173,5.1613,2.0389,-0.6589,-2.9568,-0.0868,-0.8134,0.0394,1613,2019-08-07 16:50:06:987
-10.1285,-5.4173,5.1613,2.8174,-0.8801,-4.0373,-0.0868,-0.8134,0.0394,1618,2019-08-07 16:50:06:992
-10.1285,-5.4173,5.1613,2.8174,-0.8801,-4.0373,-0.1219,-1.0531,0.0384,1623,2019-08-07 16:50:06:997
-10.6404,-5.255,6.0239,2.8174,-0.8801,-4.0373,-0.1219,-1.0531,0.0384,1627,2019-08-07 16:50:07:001
-10.6404,-5.255,6.0239,2.8174,-0.8801,-4.0373,-0.1347,-1.2938,0.048,1632,2019-08-07 16:50:07:006
-10.6404,-5.255,6.0239,3.4882,-1.2345,-5.3792,-0.1347,-1.2938,0.048,1638,2019-08-07 16:50:07:012
-10.9275,-4.8874,7.1835,3.4882,-1.2345,-5.3792,-0.1166,-1.4962,0.0575,1642,2019-08-07 16:50:07:016
-10.9275,-4.8874,7.1835,3.4882,-1.2345,-5.3792,-0.1166,-1.4962,0.0575,1648,2019-08-07 16:50:07:022
-11.0184,-4.2334,7.6124,3.4882,-1.2345,-5.3792,-0.091,-1.6603,0.081,1653,2019-08-07 16:50:07:027
-11.0184,-4.2334,7.6124,3.4882,-1.2345,-5.3792,-0.091,-1.6603,0.081,1657,2019-08-07 16:50:07:031
-11.0184,-4.2334,7.6124,3.6185,-2.2725,-5.8963,-0.091,-1.6603,0.081,1663,2019-08-07 16:50:07:037
-11.0423,-3.5794,8.0744,3.6185,-2.2725,-5.8963,-0.0601,-1.7945,0.1268,1667,2019-08-07 16:50:07:041
-11.0423,-3.5794,8.0744,3.6185,-2.2725,-5.8963,-0.0601,-1.7945,0.1268,1673,2019-08-07 16:50:07:047
-11.0423,-3.5794,8.0744,4.038,-3.313,-6.5868,-0.0665,-1.8818,0.1939,1677,2019-08-07 16:50:07:051
-11.3581,-2.8347,8.7909,4.038,-3.313,-6.5868,-0.0665,-1.8818,0.1939,1683,2019-08-07 16:50:07:057
-11.3581,-2.8347,8.7909,4.038,-3.313,-6.5868,-0.0665,-1.8818,0.1939,1688,2019-08-07 16:50:07:062
-12.1236,-1.9849,9.8939,4.038,-3.313,-6.5868,-0.1038,-2.0203,0.2791,1693,2019-08-07 16:50:07:067
-12.1236,-1.9849,9.8939,4.038,-3.313,-6.5868,-0.1038,-2.0203,0.2791,1698,2019-08-07 16:50:07:072
-12.1236,-1.9849,9.8939,5.3121,-4.6522,-7.7012,-0.1933,-2.2366,0.3579,1703,2019-08-07 16:50:07:077
-13.047,-1.1304,10.4548,5.3121,-4.6522,-7.7012,-0.1933,-2.2366,0.3579,1708,2019-08-07 16:50:07:082
-13.047,-1.1304,10.4548,5.3121,-4.6522,-7.7012,-0.3542,-2.5295,0.4336,1713,2019-08-07 16:50:07:087
-13.4297,-0.7867,10.7471,5.3121,-4.6522,-7.7012,-0.3542,-2.5295,0.4336,1718,2019-08-07 16:50:07:092
-13.4297,-0.7867,10.7471,6.4051,-5.2438,-7.6927,-0.5416,-2.8896,0.4879,1723,2019-08-07 16:50:07:097
-13.4297,-0.7867,10.7471,6.4051,-5.2438,-7.6927,-0.5416,-2.8896,0.4879,1728,2019-08-07 16:50:07:102
-13.7599,-1.1734,10.6528,6.4051,-5.2438,-7.6927,-0.7472,-3.321,0.5241,1732,2019-08-07 16:50:07:106
-13.7599,-1.1734,10.6528,6.4051,-5.2438,-7.6927,-0.7472,-3.321,0.5241,1738,2019-08-07 16:50:07:112
-14.157,-1.9228,10.9875,7.0004,-4.0857,-7.7332,-0.8367,-3.6001,0.554,1743,2019-08-07 16:50:07:117
-14.157,-1.9228,10.9875,7.0004,-4.0857,-7.7332,-0.8367,-3.6001,0.554,1747,2019-08-07 16:50:07:121
-14.157,-1.9228,10.9875,7.0004,-4.0857,-7.7332,-0.9219,-3.8004,0.6275,1753,2019-08-07 16:50:07:127
-14.5062,-1.7987,10.8461,7.0004,-4.0857,-7.7332,-0.9219,-3.8004,0.6275,1758,2019-08-07 16:50:07:132
-14.5062,-1.7987,10.8461,7.719,-4.2137,-7.1475,-0.9219,-3.8004,0.6275,1763,2019-08-07 16:50:07:137
-14.5062,-1.7987,10.8461,7.719,-4.2137,-7.1475,-1.119,-4.0315,0.7446,1768,2019-08-07 16:50:07:142
-15.3435,-0.9442,11.539,7.719,-4.2137,-7.1475,-1.119,-4.0315,0.7446,1773,2019-08-07 16:50:07:147
-15.3435,-0.9442,11.539,7.719,-4.2137,-7.1475,-1.3374,-4.2744,0.8895,1778,2019-08-07 16:50:07:152
-16.8649,-0.1088,12.6845,10.1802,-5.7304,-8.5065,-1.3374,-4.2744,0.8895,1783,2019-08-07 16:50:07:157
-16.8649,-0.1088,12.6845,10.1802,-5.7304,-8.5065,-1.7241,-4.8774,1.1526,1788,2019-08-07 16:50:07:162
-16.8649,-0.1088,12.6845,10.1802,-5.7304,-8.5065,-1.7241,-4.8774,1.1526,1793,2019-08-07 16:50:07:167
-19.7019,0.9319,13.1276,10.1802,-5.7304,-8.5065,-1.7241,-4.8774,1.1526,1798,2019-08-07 16:50:07:172
-19.7019,0.9319,13.1276,13.8241,-6.9699,-7.8392,-2.1694,-5.6614,1.3753,1802,2019-08-07 16:50:07:176
-19.7019,0.9319,13.1276,13.8241,-6.9699,-7.8392,-2.1694,-5.6614,1.3753,1808,2019-08-07 16:50:07:182
-20.9985,1.5811,10.436,14.7978,-7.3899,-5.5323,-2.7851,-6.8726,1.6075,1813,2019-08-07 16:50:07:187
-20.9985,1.5811,10.436,14.7978,-7.3899,-5.5323,-2.7851,-6.8726,1.6075,1818,2019-08-07 16:50:07:192
-19.6541,1.4523,7.2494,14.7978,-7.3899,-5.5323,-3.1728,-7.7845,1.8728,1823,2019-08-07 16:50:07:197
-19.6541,1.4523,7.2494,14.7978,-7.3899,-5.5323,-3.1728,-7.7845,1.8728,1827,2019-08-07 16:50:07:201
-19.6541,1.4523,7.2494,11.975,-6.7257,0.3907,-3.4029,-8.1658,2.1305,1833,2019-08-07 16:50:07:207
-16.53,0.5452,3.8131,11.975,-6.7257,0.3907,-3.4029,-8.1658,2.1305,1838,2019-08-07 16:50:07:212
-16.53,0.5452,3.8131,11.975,-6.7257,0.3907,-3.5084,-7.9144,2.3468,1843,2019-08-07 16:50:07:217
-15.1426,0.2445,1.8003,11.975,-6.7257,0.3907,-3.5084,-7.9144,2.3468,1848,2019-08-07 16:50:07:222
-15.1426,0.2445,1.8003,9.6223,-6.1373,4.8244,-3.5744,-7.1592,2.5577,1853,2019-08-07 16:50:07:227
-15.1426,0.2445,1.8003,9.6223,-6.1373,4.8244,-3.5744,-7.1592,2.5577,1857,2019-08-07 16:50:07:231
-14.5877,0.0869,0.8292,9.6223,-6.1373,4.8244,-3.6469,-6.3964,2.6504,1863,2019-08-07 16:50:07:237
-14.5877,0.0869,0.8292,9.6223,-6.1373,4.8244,-3.6469,-6.3964,2.6504,1867,2019-08-07 16:50:07:241
-16.9941,0.2302,0.3107,11.7307,-6.3384,5.6,-3.8717,-5.2832,2.6163,1873,2019-08-07 16:50:07:247
-16.9941,0.2302,0.3107,11.7307,-6.3384,5.6,-3.8717,-5.2832,2.6163,1878,2019-08-07 16:50:07:252
-16.9941,0.2302,0.3107,11.7307,-6.3384,5.6,-4.1113,-4.8593,2.5034,1883,2019-08-07 16:50:07:257
-20.7019,-0.357,-1.1836,11.7307,-6.3384,5.6,-4.1113,-4.8593,2.5034,1888,2019-08-07 16:50:07:262
-20.7019,-0.357,-1.1836,11.7307,-6.3384,5.6,-4.1113,-4.8593,2.5034,1892,2019-08-07 16:50:07:266
-20.7019,-0.357,-1.1836,17.5897,-5.7645,8.017,-4.3244,-4.8838,2.3713,1898,2019-08-07 16:50:07:272
-23.4864,-0.7771,-3.7149,17.5897,-5.7645,8.017,-4.3244,-4.8838,2.3713,1903,2019-08-07 16:50:07:277
-23.4864,-0.7771,-3.7149,17.5897,-5.7645,8.017,-4.6173,-5.132,2.1455,1907,2019-08-07 16:50:07:281
-23.0941,-0.7246,-6.5102,18.4119,-6.0179,12.5732,-4.6173,-5.132,2.1455,1913,2019-08-07 16:50:07:287
-23.0941,-0.7246,-6.5102,18.4119,-6.0179,12.5732,-4.9113,-5.6678,1.893,1917,2019-08-07 16:50:07:291
-18.9175,-0.8774,-8.8812,18.4119,-6.0179,12.5732,-4.9113,-5.6678,1.893,1923,2019-08-07 16:50:07:297
-18.9175,-0.8774,-8.8812,18.4119,-6.0179,12.5732,-5.1766,-7.2966,1.501,1928,2019-08-07 16:50:07:302
-18.9175,-0.8774,-8.8812,12.5766,-5.5553,15.3473,-5.1766,-7.2966,1.501,1932,2019-08-07 16:50:07:306
-14.736,-2.1758,-10.3755,12.5766,-5.5553,15.3473,-5.1936,-8.6505,1.126,1938,2019-08-07 16:50:07:312
-14.736,-2.1758,-10.3755,12.5766,-5.5553,15.3473,-5.1936,-8.6505,1.126,1943,2019-08-07 16:50:07:317
-12.698,-3.4743,-11.9311,10.0354,-4.6247,16.6243,-5.0019,-9.1054,0.7169,1948,2019-08-07 16:50:07:322
-12.698,-3.4743,-11.9311,10.0354,-4.6247,16.6243,-5.0019,-9.1054,0.7169,1953,2019-08-07 16:50:07:327
-12.698,-3.4743,-11.9311,10.0354,-4.6247,16.6243,-5.0019,-9.1054,0.7169,1958,2019-08-07 16:50:07:332
-8.1099,-5.3361,-11.0449,4.4878,-2.251,15.0752,-4.5257,-7.9858,0.1502,1962,2019-08-07 16:50:07:336
-8.1099,-5.3361,-11.0449,4.4878,-2.251,15.0752,-4.5257,-7.9858,0.1502,1967,2019-08-07 16:50:07:341
-7.6698,-5.3266,-16.8004,4.4878,-2.251,15.0752,-3.7502,-4.5141,-0.4069,1973,2019-08-07 16:50:07:347
-7.6698,-5.3266,-16.8004,4.4878,-2.251,15.0752,-3.7502,-4.5141,-0.4069,1977,2019-08-07 16:50:07:351
-7.6698,-5.3266,-16.8004,3.4876,-2.2754,21.7168,-3.6916,-2.4038,-0.5837,1982,2019-08-07 16:50:07:356
-5.7465,-6.1524,-16.9937,3.4876,-2.2754,21.7168,-3.6916,-2.4038,-0.5837,1988,2019-08-07 16:50:07:362
-5.7465,-6.1524,-16.9937,3.4876,-2.2754,21.7168,-3.6916,-2.4038,-0.5837,1993,2019-08-07 16:50:07:367
-2.4789,-7.1788,-14.8819,3.4876,-2.2754,21.7168,-3.7534,-1.2246,-0.5806,1998,2019-08-07 16:50:07:372
-2.4789,-7.1788,-14.8819,-1.0672,-1.2083,18.1723,-3.7534,-1.2246,-0.5806,2003,2019-08-07 16:50:07:377
-2.4789,-7.1788,-14.8819,-1.0672,-1.2083,18.1723,-3.7023,-1.835,-0.6786,2007,2019-08-07 16:50:07:381
0.9323,-7.9092,-13.7176,-1.0672,-1.2083,18.1723,-3.7023,-1.835,-0.6786,2013,2019-08-07 16:50:07:387
0.9323,-7.9092,-13.7176,-1.0672,-1.2083,18.1723,-3.4306,-3.7397,-0.7542,2018,2019-08-07 16:50:07:392
4.0516,-8.9021,-17.3237,-5.5741,-0.1532,20.7759,-3.4306,-3.7397,-0.7542,2022,2019-08-07 16:50:07:396
4.0516,-8.9021,-17.3237,-5.5741,-0.1532,20.7759,-2.9161,-5.7679,-0.6413,2028,2019-08-07 16:50:07:402
4.0516,-8.9021,-17.3237,-5.5741,-0.1532,20.7759,-2.9161,-5.7679,-0.6413,2033,2019-08-07 16:50:07:407
4.8362,-9.6421,-23.0321,-5.5741,-0.1532,20.7759,-1.8114,-6.3943,-0.1811,2037,2019-08-07 16:50:07:411
4.8362,-9.6421,-23.0321,-5.5741,-0.1532,20.7759,-1.8114,-6.3943,-0.1811,2043,2019-08-07 16:50:07:417
4.8362,-9.6421,-23.0321,-6.9821,1.3521,28.4476,-1.8114,-6.3943,-0.1811,2047,2019-08-07 16:50:07:421
6.9412,-11.3034,-25.5964,-6.9821,1.3521,28.4476,-0.5257,-4.4704,0.1534,2053,2019-08-07 16:50:07:427
6.9412,-11.3034,-25.5964,-6.9821,1.3521,28.4476,-0.5257,-4.4704,0.1534,2057,2019-08-07 16:50:07:431
9.2329,-13.0649,-21.2974,-10.4843,3.2257,24.9784,1.182,0.0708,0.2578,2063,2019-08-07 16:50:07:437
9.2329,-13.0649,-21.2974,-10.4843,3.2257,24.9784,1.182,0.0708,0.2578,2067,2019-08-07 16:50:07:441
9.2329,-13.0649,-21.2974,-10.4843,3.2257,24.9784,2.913,5.5441,0.1769,2073,2019-08-07 16:50:07:447
5.8313,-10.3247,-19.2234,-10.4843,3.2257,24.9784,2.913,5.5441,0.1769,2077,2019-08-07 16:50:07:451
5.8313,-10.3247,-19.2234,-1.4057,-0.4531,20.5125,3.2518,7.0493,0.2802,2083,2019-08-07 16:50:07:457
5.8313,-10.3247,-19.2234,-1.4057,-0.4531,20.5125,3.2518,7.0493,0.2802,2088,2019-08-07 16:50:07:462
-2.9717,-7.7851,-14.8254,-1.4057,-0.4531,20.5125,3.2177,8.0805,0.4432,2093,2019-08-07 16:50:07:467
-2.9717,-7.7851,-14.8254,-1.4057,-0.4531,20.5125,3.2177,8.0805,0.4432,2098,2019-08-07 16:50:07:472
-6.7657,-7.0117,-6.5857,-1.4057,-0.4531,20.5125,3.2177,8.0805,0.4432,2103,2019-08-07 16:50:07:477
-6.7657,-7.0117,-6.5857,6.5109,-1.3905,12.108,3.1431,5.8541,0.3974,2108,2019-08-07 16:50:07:482
-6.7657,-7.0117,-6.5857,6.5109,-1.3905,12.108,3.1431,5.8541,0.3974,2113,2019-08-07 16:50:07:487
-11.038,-5.3838,-5.5015,6.5109,-1.3905,12.108,2.7383,4.7824,0.2663,2118,2019-08-07 16:50:07:492
-11.038,-5.3838,-5.5015,6.5109,-1.3905,12.108,2.7383,4.7824,0.2663,2123,2019-08-07 16:50:07:497
-11.038,-5.3838,-5.5015,7.6227,-4.1274,7.7072,2.407,2.4144,0.228,2127,2019-08-07 16:50:07:501
-9.4209,-4.4482,-3.9365,7.6227,-4.1274,7.7072,2.407,2.4144,0.228,2133,2019-08-07 16:50:07:507
-9.4209,-4.4482,-3.9365,7.6227,-4.1274,7.7072,2.3506,-0.3095,0.0991,2138,2019-08-07 16:50:07:512
-9.4209,-4.4482,-3.9365,7.6227,-4.1274,7.7072,2.3506,-0.3095,0.0991,2142,2019-08-07 16:50:07:516
-4.6511,-5.5652,-3.9789,1.4907,-2.7094,8.631,2.6094,-1.2086,-0.2237,2148,2019-08-07 16:50:07:522
-4.6511,-5.5652,-3.9789,1.4907,-2.7094,8.631,2.6094,-1.2086,-0.2237,2153,2019-08-07 16:50:07:527
-1.5509,-5.8612,-13.9958,1.4907,-2.7094,8.631,2.6094,-1.2086,-0.2237,2158,2019-08-07 16:50:07:532
-1.5509,-5.8612,-13.9958,1.4907,-2.7094,8.631,3.0994,3.1963,-0.5678,2163,2019-08-07 16:50:07:537
-1.5509,-5.8612,-13.9958,-3.2191,-2.5764,17.159,3.0994,3.1963,-0.5678,2167,2019-08-07 16:50:07:541
0.224,-5.6846,-12.4779,-3.2191,-2.5764,17.159,2.3623,5.2842,-0.7222,2173,2019-08-07 16:50:07:547
0.224,-5.6846,-12.4779,-1.5361,-2.3682,18.5263,2.3623,5.2842,-0.7222,2177,2019-08-07 16:50:07:551
-4.0148,-5.8373,-14.6699,-1.5361,-2.3682,18.5263,1.9319,7.5681,-0.9534,2183,2019-08-07 16:50:07:557
-4.0148,-5.8373,-14.6699,-1.5361,-2.3682,18.5263,1.9319,7.5681,-0.9534,2188,2019-08-07 16:50:07:562
-11.3251,-5.5652,1.5032,-1.5361,-2.3682,18.5263,1.9969,9.199,-0.9907,2193,2019-08-07 16:50:07:567
-11.3251,-5.5652,1.5032,9.3066,-2.7303,7.458,1.9969,9.199,-0.9907,2198,2019-08-07 16:50:07:572
-11.3251,-5.5652,1.5032,9.3066,-2.7303,7.458,1.9969,9.199,-0.9907,2203,2019-08-07 16:50:07:577
-16.7505,-5.8612,-3.9837,9.3066,-2.7303,7.458,2.5476,9.2683,-0.5944,2207,2019-08-07 16:50:07:581
-16.7505,-5.8612,-3.9837,9.3066,-2.7303,7.458,2.5476,9.2683,-0.5944,2213,2019-08-07 16:50:07:587
-16.7505,-5.8612,-3.9837,12.8675,-1.7606,4.9625,2.8235,8.4928,-0.4953,2217,2019-08-07 16:50:07:591
-17.0232,-6.1333,-1.1082,12.8675,-1.7606,4.9625,2.8235,8.4928,-0.4953,2223,2019-08-07 16:50:07:597
-17.0232,-6.1333,-1.1082,12.8675,-1.7606,4.9625,2.8896,6.8789,-0.6434,2227,2019-08-07 16:50:07:601
-17.315,-4.9876,-0.948,12.8675,-1.7606,4.9625,2.8896,6.8789,-0.6434,2233,2019-08-07 16:50:07:607
-17.315,-4.9876,-0.948,12.5221,-3.0976,4.4566,2.7479,4.8538,-0.8298,2238,2019-08-07 16:50:07:612
-17.315,-4.9876,-0.948,12.5221,-3.0976,4.4566,2.7479,4.8538,-0.8298,2243,2019-08-07 16:50:07:617
-16.784,-4.2954,0.0749,12.5221,-3.0976,4.4566,2.5135,2.9864,-0.9065,2248,2019-08-07 16:50:07:622
-16.784,-4.2954,0.0749,12.5221,-3.0976,4.4566,2.5135,2.9864,-0.9065,2253,2019-08-07 16:50:07:627
-16.784,-4.2954,0.0749,12.3649,-2.5179,12.0702,2.5135,2.9864,-0.9065,2257,2019-08-07 16:50:07:631
-14.5163,-5.0687,-7.8396,12.3649,-2.5179,12.0702,2.2675,4.9646,-1.0407,2263,2019-08-07 16:50:07:637
-14.5163,-5.0687,-7.8396,6.7263,-1.8809,2.3462,2.2675,4.9646,-1.0407,2268,2019-08-07 16:50:07:642
-12.2247,-5.9185,-0.6699,6.7263,-1.8809,2.3462,2.1886,5.5462,-1.225,2272,2019-08-07 16:50:07:646
-12.2247,-5.9185,-0.6699,6.7263,-1.8809,2.3462,2.1886,5.5462,-1.225,2278,2019-08-07 16:50:07:652
-12.2247,-5.9185,-0.6699,6.7263,-1.8809,2.3462,2.1641,6.9503,-1.2069,2283,2019-08-07 16:50:07:657
-14.6742,-5.7562,0.7019,9.8743,-1.6545,2.7099,2.1641,6.9503,-1.2069,2287,2019-08-07 16:50:07:661
-14.6742,-5.7562,0.7019,9.8743,-1.6545,2.7099,2.0704,7.2837,-1.1558,2293,2019-08-07 16:50:07:667
-17.6787,-5.1308,3.4547,9.8743,-1.6545,2.7099,2.0704,7.2837,-1.1558,2298,2019-08-07 16:50:07:672
-17.6787,-5.1308,3.4547,9.8743,-1.6545,2.7099,1.9788,7.1399,-1.0876,2304,2019-08-07 16:50:07:678
-17.6787,-5.1308,3.4547,14.2164,-2.8401,-2.9971,1.9788,7.1399,-1.0876,2307,2019-08-07 16:50:07:681
-20.2909,-4.4672,6.5658,14.2164,-2.8401,-2.9971,1.9788,7.1399,-1.0876,2313,2019-08-07 16:50:07:687
-20.2909,-4.4672,6.5658,14.2164,-2.8401,-2.9971,1.787,6.3953,-1.013,2317,2019-08-07 16:50:07:691
-21.0564,-3.9946,7.6217,14.2164,-2.8401,-2.9971,1.787,6.3953,-1.013,2323,2019-08-07 16:50:07:697
-21.0564,-3.9946,7.6217,14.2164,-2.8401,-2.9971,1.5005,5.4887,-0.9822,2327,2019-08-07 16:50:07:701
-19.7838,-3.8753,7.3813,14.7452,-3.4978,-5.0515,1.5005,5.4887,-0.9822,2333,2019-08-07 16:50:07:707
-19.7838,-3.8753,7.3813,14.7452,-3.4978,-5.0515,1.5005,5.4887,-0.9822,2337,2019-08-07 16:50:07:711
-19.7838,-3.8753,7.3813,14.7452,-3.4978,-5.0515,1.2427,4.6418,-0.931,2343,2019-08-07 16:50:07:717
-15.9708,-4.4434,5.2648,14.7452,-3.4978,-5.0515,1.2427,4.6418,-0.931,2348,2019-08-07 16:50:07:722
-15.9708,-4.4434,5.2648,9.1131,-2.8339,-2.6508,1.264,4.7377,-0.9268,2352,2019-08-07 16:50:07:726
-15.9708,-4.4434,5.2648,9.1131,-2.8339,-2.6508,1.264,4.7377,-0.9268,2358,2019-08-07 16:50:07:732
-13.3538,-4.6152,3.1719,9.1131,-2.8339,-2.6508,1.3833,5.3449,-0.9364,2363,2019-08-07 16:50:07:737
-13.3538,-4.6152,3.1719,9.1131,-2.8339,-2.6508,1.3833,5.3449,-0.9364,2368,2019-08-07 16:50:07:742
-13.9136,-3.627,5.3779,6.9383,-3.2378,-2.5369,1.5122,6.3953,-0.8873,2372,2019-08-07 16:50:07:746
-13.9136,-3.627,5.3779,6.9383,-3.2378,-2.5369,1.5122,6.3953,-0.8873,2378,2019-08-07 16:50:07:752
-13.9136,-3.627,5.3779,6.9383,-3.2378,-2.5369,1.542,6.8501,-0.8021,2383,2019-08-07 16:50:07:757
-17.32,-2.5338,8.4749,11.685,-4.9775,-7.7455,1.542,6.8501,-0.8021,2388,2019-08-07 16:50:07:762
-17.32,-2.5338,8.4749,11.685,-4.9775,-7.7455,1.3577,6.4389,-0.67,2393,2019-08-07 16:50:07:767
-17.32,-2.5338,8.4749,11.685,-4.9775,-7.7455,1.3577,6.4389,-0.67,2397,2019-08-07 16:50:07:771
-19.6499,-2.5529,11.1759,11.685,-4.9775,-7.7455,1.0584,4.8453,-0.5113,2403,2019-08-07 16:50:07:777
-19.6499,-2.5529,11.1759,11.685,-4.9775,-7.7455,1.0584,4.8453,-0.5113,2407,2019-08-07 16:50:07:781
-19.6738,-3.1449,12.2931,13.3035,-4.281,-11.5785,1.0584,4.8453,-0.5113,2413,2019-08-07 16:50:07:787
-19.6738,-3.1449,12.2931,13.3035,-4.281,-11.5785,0.9007,3.2431,-0.3888,2418,2019-08-07 16:50:07:792
-19.6738,-3.1449,12.2931,13.3035,-4.281,-11.5785,0.9007,3.2431,-0.3888,2422,2019-08-07 16:50:07:796
-15.8417,-4.4672,11.0298,13.3035,-4.281,-11.5785,0.8858,1.74,-0.2375,2428,2019-08-07 16:50:07:802
-15.8417,-4.4672,11.0298,7.528,-2.6215,-9.2092,0.8858,1.74,-0.2375,2433,2019-08-07 16:50:07:807
-11.0527,-5.3361,8.2156,7.528,-2.6215,-9.2092,1.0211,1.2649,-0.1417,2437,2019-08-07 16:50:07:811
-11.0527,-5.3361,8.2156,7.528,-2.6215,-9.2092,1.0211,1.2649,-0.1417,2443,2019-08-07 16:50:07:817
-11.0527,-5.3361,8.2156,7.528,-2.6215,-9.2092,1.2704,1.2905,-0.0788,2448,2019-08-07 16:50:07:822
-7.8664,-5.9948,6.3207,1.4767,-1.4278,-5.7618,1.2704,1.2905,-0.0788,2452,2019-08-07 16:50:07:826
-7.8664,-5.9948,6.3207,1.4767,-1.4278,-5.7618,1.5026,1.6303,-0.0256,2458,2019-08-07 16:50:07:832
-6.7038,-5.8994,6.2405,1.4767,-1.4278,-5.7618,1.5026,1.6303,-0.0256,2463,2019-08-07 16:50:07:837
-6.7038,-5.8994,6.2405,1.4767,-1.4278,-5.7618,1.901,2.3185,0.0799,2468,2019-08-07 16:50:07:842
-6.7038,-5.8994,6.2405,0.8547,-2.0821,-6.4193,1.901,2.3185,0.0799,2472,2019-08-07 16:50:07:846
-8.1343,-4.7202,7.7584,0.8547,-2.0821,-6.4193,1.901,2.3185,0.0799,2478,2019-08-07 16:50:07:852
-8.1343,-4.7202,7.7584,0.8547,-2.0821,-6.4193,2.1535,2.6104,0.2088,2483,2019-08-07 16:50:07:857
-8.1343,-4.7202,7.7584,0.8547,-2.0821,-6.4193,2.1535,2.6104,0.2088,2488,2019-08-07 16:50:07:862
-11.2728,-2.8298,9.3281,4.7761,-4.4932,-8.6935,2.1535,2.6104,0.2088,2492,2019-08-07 16:50:07:866
-11.2728,-2.8298,9.3281,4.7761,-4.4932,-8.6935,1.9809,1.9584,0.3175,2498,2019-08-07 16:50:07:872
-12.4545,-2.3572,9.149,4.7761,-4.4932,-8.6935,1.9809,1.9584,0.3175,2503,2019-08-07 16:50:07:877
-12.4545,-2.3572,9.149,4.7761,-4.4932,-8.6935,1.6187,0.7451,0.3835,2507,2019-08-07 16:50:07:881
-12.4545,-2.3572,9.149,5.5167,-4.4321,-7.6505,1.6187,0.7451,0.3835,2513,2019-08-07 16:50:07:887
-11.5838,-3.2642,7.4048,5.5167,-4.4321,-7.6505,1.3386,-0.2999,0.4059,2517,2019-08-07 16:50:07:891
-11.5838,-3.2642,7.4048,5.5167,-4.4321,-7.6505,1.3386,-0.2999,0.4059,2523,2019-08-07 16:50:07:897
-9.5553,-4.5579,5.3261,5.5167,-4.4321,-7.6505,1.0477,-0.9551,0.4165,2527,2019-08-07 16:50:07:901
-9.5553,-4.5579,5.3261,1.6542,-1.9702,-3.4236,1.0477,-0.9551,0.4165,2533,2019-08-07 16:50:07:907
-9.5553,-4.5579,5.3261,1.6542,-1.9702,-3.4236,1.0477,-0.9551,0.4165,2538,2019-08-07 16:50:07:912
-6.0533,-6.0664,2.9079,1.6542,-1.9702,-3.4236,0.7377,-1.0477,0.3484,2543,2019-08-07 16:50:07:917
-6.0533,-6.0664,2.9079,1.6542,-1.9702,-3.4236,0.7377,-1.0477,0.3484,2548,2019-08-07 16:50:07:922
-6.0533,-6.0664,2.9079,-2.0418,-0.3935,-0.1838,0.6035,-0.4267,0.2706,2552,2019-08-07 16:50:07:926
-4.2735,-6.8255,1.1402,-2.0418,-0.3935,-0.1838,0.6035,-0.4267,0.2706,2558,2019-08-07 16:50:07:932
-4.2735,-6.8255,1.1402,-2.0418,-0.3935,-0.1838,0.6035,-0.4267,0.2706,2563,2019-08-07 16:50:07:937
-4.2735,-6.8255,1.1402,-2.0418,-0.3935,-0.1838,0.5172,0.2892,0.1982,2568,2019-08-07 16:50:07:942
-4.7041,-6.7682,1.3146,-1.6817,-0.3669,-0.0366,0.5172,0.2892,0.1982,2573,2019-08-07 16:50:07:947
-4.7041,-6.7682,1.3146,-1.6817,-0.3669,-0.0366,0.4416,1.0327,0.146,2577,2019-08-07 16:50:07:951
-6.46,-6.181,1.918,-1.6817,-0.3669,-0.0366,0.4416,1.0327,0.146,2583,2019-08-07 16:50:07:957
-6.46,-6.181,1.918,-1.6817,-0.3669,-0.0366,0.4416,1.0327,0.146,2587,2019-08-07 16:50:07:961
-6.46,-6.181,1.918,0.9851,-1.2034,-1.1219,0.2818,1.2021,0.1044,2593,2019-08-07 16:50:07:967
-7.9718,-5.7896,2.46,0.9851,-1.2034,-1.1219,0.2818,1.2021,0.1044,2598,2019-08-07 16:50:07:972
-7.9718,-5.7896,2.46,0.9851,-1.2034,-1.1219,0.1092,0.9581,0.0597,2603,2019-08-07 16:50:07:977
-8.5937,-5.7084,2.7711,0.9851,-1.2034,-1.1219,0.1092,0.9581,0.0597,2608,2019-08-07 16:50:07:982
-8.5937,-5.7084,2.7711,1.825,-1.1341,-1.5228,-0.0356,0.5693,0.0128,2613,2019-08-07 16:50:07:987
-8.5937,-5.7084,2.7711,1.825,-1.1341,-1.5228,-0.0356,0.5693,0.0128,2618,2019-08-07 16:50:07:992
-8.3833,-6.1858,2.3658,1.825,-1.1341,-1.5228,-0.1858,0.0718,-0.0181,2623,2019-08-07 16:50:07:997
-8.3833,-6.1858,2.3658,1.825,-1.1341,-1.5228,-0.1858,0.0718,-0.0181,2627,2019-08-07 16:50:08:001
-7.3881,-6.7682,1.9981,0.5784,-0.197,-0.8365,-0.2604,-0.1668,-0.0351,2633,2019-08-07 16:50:08:007
-7.3881,-6.7682,1.9981,0.5784,-0.197,-0.8365,-0.2604,-0.1668,-0.0351,2637,2019-08-07 16:50:08:011
-6.6466,-7.0451,1.4937,-0.1578,0.0741,-0.3352,-0.2785,-0.2264,-0.0532,2643,2019-08-07 16:50:08:017
-6.6466,-7.0451,1.4937,-0.1578,0.0741,-0.3352,-0.2785,-0.2264,-0.0532,2648,2019-08-07 16:50:08:022
-6.6466,-7.0451,1.4937,-0.1578,0.0741,-0.3352,-0.2785,-0.2264,-0.0532,2653,2019-08-07 16:50:08:027
-6.1012,-7.2885,1.0223,-0.1578,0.0741,-0.3352,-0.237,-0.0943,-0.0682,2657,2019-08-07 16:50:08:031
-6.1012,-7.2885,1.0223,-0.7833,0.2902,0.0677,-0.237,-0.0943,-0.0682,2663,2019-08-07 16:50:08:037
-6.1012,-7.2885,1.0223,-0.7833,0.2902,0.0677,-0.1581,0.0814,-0.0703,2667,2019-08-07 16:50:08:041
-6.1012,-7.2599,1.1873,-0.7833,0.2902,0.0677,-0.1581,0.0814,-0.0703,2673,2019-08-07 16:50:08:047
-6.1012,-7.2599,1.1873,-0.7833,0.2902,0.0677,-0.0537,0.2476,-0.0703,2678,2019-08-07 16:50:08:052
-6.4696,-7.0785,1.3287,-0.31,0.0748,-0.224,-0.0537,0.2476,-0.0703,2683,2019-08-07 16:50:08:057
-6.4696,-7.0785,1.3287,-0.31,0.0748,-0.224,0.0325,0.3339,-0.0607,2688,2019-08-07 16:50:08:062
-6.4696,-7.0785,1.3287,-0.31,0.0748,-0.224,0.0325,0.3339,-0.0607,2693,2019-08-07 16:50:08:067
-7.0103,-6.8016,1.5267,-0.31,0.0748,-0.224,0.0549,0.2732,-0.0373,2698,2019-08-07 16:50:08:072
-7.0103,-6.8016,1.5267,0.5026,-0.2162,-0.5027,0.0549,0.2732,-0.0373,2703,2019-08-07 16:50:08:077
-7.0103,-6.8016,1.5267,0.5026,-0.2162,-0.5027,0.0549,0.2732,-0.0373,2708,2019-08-07 16:50:08:082
-7.4313,-6.7634,1.5927,0.7299,-0.2575,-0.4403,0.057,0.1177,-0.0096,2713,2019-08-07 16:50:08:087
-7.4313,-6.7634,1.5927,0.7299,-0.2575,-0.4403,0.057,0.1177,-0.0096,2718,2019-08-07 16:50:08:092
-7.4313,-6.7634,1.5927,0.7299,-0.2575,-0.4403,0.0293,-0.2126,0.0501,2722,2019-08-07 16:50:08:096
-7.6322,-6.8446,1.489,0.7299,-0.2575,-0.4403,0.0293,-0.2126,0.0501,2728,2019-08-07 16:50:08:102
-7.6322,-6.8446,1.489,0.6666,-0.1033,-0.2656,0.0102,-0.4576,0.081,2733,2019-08-07 16:50:08:107
-7.2782,-6.8541,1.2768,0.6666,-0.1033,-0.2656,0.0102,-0.4576,0.081,2738,2019-08-07 16:50:08:112
-7.2782,-6.8541,1.2768,0.6666,-0.1033,-0.2656,0.0102,-0.4576,0.081,2743,2019-08-07 16:50:08:117
-7.2782,-6.8541,1.2768,0.6666,-0.1033,-0.2656,0.0027,-0.6387,0.0948,2748,2019-08-07 16:50:08:122
-6.7615,-6.8971,0.7678,-0.2958,-0.1135,0.4549,0.0027,-0.6387,0.0948,2753,2019-08-07 16:50:08:127
-6.7615,-6.8971,0.7678,-0.2958,-0.1135,0.4549,0.0027,-0.6387,0.0948,2757,2019-08-07 16:50:08:131
-6.1444,-6.9209,0.5085,-0.2958,-0.1135,0.4549,0.0017,-0.5993,0.0831,2763,2019-08-07 16:50:08:137
-6.1444,-6.9209,0.5085,-0.2958,-0.1135,0.4549,0.0017,-0.5993,0.0831,2768,2019-08-07 16:50:08:142
-6.1444,-6.9209,0.5085,-0.2958,-0.1135,0.4549,0.0208,-0.3926,0.049,2772,2019-08-07 16:50:08:146
-5.9674,-6.7825,0.4378,-0.8362,-0.1542,0.8579,0.0208,-0.3926,0.049,2778,2019-08-07 16:50:08:152
-5.9674,-6.7825,0.4378,-0.8362,-0.1542,0.8579,0.0453,-0.2381,0.0309,2783,2019-08-07 16:50:08:157
-5.9674,-6.7825,0.4378,-0.8362,-0.1542,0.8579,0.0453,-0.2381,0.0309,2787,2019-08-07 16:50:08:161
-6.154,-6.6536,0.8149,-0.8362,-0.1542,0.8579,0.0453,-0.2381,0.0309,2793,2019-08-07 16:50:08:167
-6.154,-6.6536,0.8149,-0.5418,-0.3762,0.437,0.0805,0.0079,-0.0042,2798,2019-08-07 16:50:08:172
-6.154,-6.6536,0.8149,-0.5418,-0.3762,0.437,0.0805,0.0079,-0.0042,2803,2019-08-07 16:50:08:177
-6.4144,-6.5154,0.8485,-0.5418,-0.3762,0.437,0.0741,0.107,-0.0277,2807,2019-08-07 16:50:08:181
-6.4144,-6.5154,0.8485,-0.5418,-0.3762,0.437,0.0741,0.107,-0.0277,2813,2019-08-07 16:50:08:187
-6.6201,-6.5488,1.0606,-0.1615,-0.4243,0.2129,0.0677,0.1145,-0.0373,2817,2019-08-07 16:50:08:191
-6.6201,-6.5488,1.0606,-0.1615,-0.4243,0.2129,0.0677,0.1145,-0.0373,2823,2019-08-07 16:50:08:197
-6.6201,-6.5488,1.0606,-0.1615,-0.4243,0.2129,0.057,0.0825,-0.0468,2827,2019-08-07 16:50:08:201
-6.754,-6.6682,1.2963,-0.1615,-0.4243,0.2129,0.057,0.0825,-0.0468,2833,2019-08-07 16:50:08:207
-6.754,-6.6682,1.2963,-0.0722,-0.2513,0.0071,0.0528,-0.0134,-0.0426,2838,2019-08-07 16:50:08:212
-6.6392,-6.7159,1.2067,-0.0722,-0.2513,0.0071,0.0528,-0.0134,-0.0426,2843,2019-08-07 16:50:08:217
-6.6392,-6.7159,1.2067,-0.0722,-0.2513,0.0071,0.0464,-0.0634,-0.0362,2848,2019-08-07 16:50:08:222
-6.6392,-6.7159,1.2067,-0.0722,-0.2513,0.0071,0.0464,-0.0634,-0.0362,2853,2019-08-07 16:50:08:227
-6.4813,-6.6968,1.2208,-0.2906,-0.2836,0.0636,0.0464,-0.0634,-0.0362,2858,2019-08-07 16:50:08:232
-6.4813,-6.6968,1.2208,-0.2906,-0.2836,0.0636,0.056,-0.1284,-0.0223,2863,2019-08-07 16:50:08:237
-6.2804,-6.6491,1.202,-0.2906,-0.2836,0.0636,0.056,-0.1284,-0.0223,2868,2019-08-07 16:50:08:242
-6.2804,-6.6491,1.202,-0.2906,-0.2836,0.0636,0.0709,-0.171,0.0011,2872,2019-08-07 16:50:08:246
-6.2804,-6.6491,1.202,-0.5906,-0.308,0.1358,0.0709,-0.171,0.0011,2878,2019-08-07 16:50:08:252
-6.1034,-6.7159,1.1501,-0.5906,-0.308,0.1358,0.0901,-0.1646,0.0192,2883,2019-08-07 16:50:08:257
-6.1034,-6.7159,1.1501,-0.5906,-0.308,0.1358,0.0901,-0.1646,0.0192,2887,2019-08-07 16:50:08:261
-6.1034,-6.7159,1.1501,-0.5906,-0.308,0.1358,0.0901,-0.1646,0.0192,2893,2019-08-07 16:50:08:267
-6.1225,-6.6061,1.2538,-0.6355,-0.4,0.1357,0.1039,-0.1103,0.0181,2898,2019-08-07 16:50:08:272
-6.1225,-6.6061,1.2538,-0.6355,-0.4,0.1357,0.1039,-0.1103,0.0181,2903,2019-08-07 16:50:08:277
-6.1225,-6.6061,1.2538,-0.6355,-0.4,0.1357,0.0965,-0.0613,0.033,2908,2019-08-07 16:50:08:282
-6.1943,-6.5441,1.2303,-0.6355,-0.4,0.1357,0.0965,-0.0613,0.033,2913,2019-08-07 16:50:08:287
-6.1943,-6.5441,1.2303,-0.5946,-0.365,0.2852,0.0901,-0.0027,0.0405,2918,2019-08-07 16:50:08:292
-6.1034,-6.6873,1.1124,-0.5946,-0.365,0.2852,0.0901,-0.0027,0.0405,2922,2019-08-07 16:50:08:296
-6.1034,-6.6873,1.1124,-0.5946,-0.365,0.2852,0.0815,0.075,0.0267,2928,2019-08-07 16:50:08:302
-6.1034,-6.6873,1.1124,-0.5946,-0.365,0.2852,0.0815,0.075,0.0267,2933,2019-08-07 16:50:08:307
-6.2182,-6.7923,1.0794,-0.5512,-0.1744,0.2904,0.0645,0.1912,-0.0032,2938,2019-08-07 16:50:08:312
-6.2182,-6.7923,1.0794,-0.5512,-0.1744,0.2904,0.0645,0.1912,-0.0032,2943,2019-08-07 16:50:08:317
-6.2182,-6.7923,1.0794,-0.5512,-0.1744,0.2904,0.0645,0.1912,-0.0032,2948,2019-08-07 16:50:08:322
-6.1751,-6.8448,1.0512,-0.5512,-0.1744,0.2904,0.0464,0.2828,-0.0181,2952,2019-08-07 16:50:08:326
-6.1751,-6.8448,1.0512,-0.5974,-0.0957,0.2716,0.0464,0.2828,-0.0181,2958,2019-08-07 16:50:08:332
-6.1751,-6.8448,1.0512,-0.5974,-0.0957,0.2716,0.0315,0.3499,-0.0287,2962,2019-08-07 16:50:08:336
-6.2947,-6.9451,1.1454,-0.5974,-0.0957,0.2716,0.0315,0.3499,-0.0287,2968,2019-08-07 16:50:08:342
-6.2947,-6.9451,1.1454,-0.5974,-0.0957,0.2716,0.024,0.4042,-0.0351,2973,2019-08-07 16:50:08:347
-6.711,-6.84,1.4377,-0.066,-0.134,-0.1447,0.024,0.4042,-0.0351,2978,2019-08-07 16:50:08:352
-6.711,-6.84,1.4377,-0.066,-0.134,-0.1447,0.024,0.3414,-0.0266,2983,2019-08-07 16:50:08:357
-6.711,-6.84,1.4377,-0.066,-0.134,-0.1447,0.024,0.3414,-0.0266,2988,2019-08-07 16:50:08:362
-7.0746,-6.7398,1.6969,-0.066,-0.134,-0.1447,0.024,0.172,-0.016,2993,2019-08-07 16:50:08:367
-7.0746,-6.7398,1.6969,0.3164,-0.1777,-0.4823,0.024,0.172,-0.016,2998,2019-08-07 16:50:08:372
-7.0746,-6.7398,1.6969,0.3164,-0.1777,-0.4823,0.024,0.172,-0.016,3003,2019-08-07 16:50:08:377
-6.9932,-6.735,1.6639,0.3164,-0.1777,-0.4823,0.0261,-0.0975,0.0085,3007,2019-08-07 16:50:08:381
-6.9932,-6.735,1.6639,0.3164,-0.1777,-0.4823,0.0261,-0.0975,0.0085,3013,2019-08-07 16:50:08:387
-6.9932,-6.735,1.6639,0.3164,-0.1777,-0.4823,0.0261,-0.0975,0.0085,3017,2019-08-07 16:50:08:391
-6.6009,-6.8114,1.3246,-0.2957,-0.1887,-0.0056,0.0219,-0.236,0.0277,3023,2019-08-07 16:50:08:397
-6.6009,-6.8114,1.3246,-0.2957,-0.1887,-0.0056,0.0219,-0.236,0.0277,3028,2019-08-07 16:50:08:402
-6.0746,-6.9308,0.8862,-0.2957,-0.1887,-0.0056,0.0304,-0.2658,0.033,3033,2019-08-07 16:50:08:407
-6.0746,-6.9308,0.8862,-0.7652,-0.0569,0.475,0.0304,-0.2658,0.033,3037,2019-08-07 16:50:08:411
-5.9933,-6.9833,0.839,-0.7652,-0.0569,0.475,0.0517,-0.1657,0.032,3043,2019-08-07 16:50:08:417
-5.9933,-6.9833,0.839,-0.7652,-0.0569,0.475,0.0517,-0.1657,0.032,3047,2019-08-07 16:50:08:421
-5.9933,-6.9833,0.839,-0.7652,-0.0569,0.475,0.0645,-0.0539,0.0256,3053,2019-08-07 16:50:08:427
-5.9933,-6.9833,0.839,-0.7652,-0.0569,0.475,0.0645,-0.0539,0.0256,3057,2019-08-07 16:50:08:431
-6.0699,-6.926,0.8579,-0.7061,-0.0407,0.4792,0.0805,0.0654,0.0171,3063,2019-08-07 16:50:08:437
-6.0699,-6.926,0.8579,-0.7061,-0.0407,0.4792,0.0805,0.0654,0.0171,3068,2019-08-07 16:50:08:442
-6.2899,-6.8353,0.9804,-0.7061,-0.0407,0.4792,0.0954,0.1858,-0.0032,3073,2019-08-07 16:50:08:447
-6.2899,-6.8353,0.9804,-0.3405,-0.1827,0.3064,0.0954,0.1858,-0.0032,3078,2019-08-07 16:50:08:452
-6.2899,-6.8353,0.9804,-0.3405,-0.1827,0.3064,0.0922,0.2071,-0.0021,3082,2019-08-07 16:50:08:456
-6.6153,-6.7207,1.202,-0.3405,-0.1827,0.3064,0.0922,0.2071,-0.0021,3088,2019-08-07 16:50:08:462
-6.6153,-6.7207,1.202,-0.3405,-0.1827,0.3064,0.0901,0.1698,0.0,3093,2019-08-07 16:50:08:467
-6.6153,-6.7207,1.202,-0.3405,-0.1827,0.3064,0.0901,0.1698,0.0,3098,2019-08-07 16:50:08:472
-6.9071,-6.6443,1.4,0.1226,-0.3181,-0.084,0.0901,0.1698,0.0,3103,2019-08-07 16:50:08:477
-6.9071,-6.6443,1.4,0.1226,-0.3181,-0.084,0.0869,0.0452,0.0054,3108,2019-08-07 16:50:08:482
-7.0076,-6.5966,1.5838,0.1226,-0.3181,-0.084,0.0869,0.0452,0.0054,3113,2019-08-07 16:50:08:487
-7.0076,-6.5966,1.5838,0.1425,-0.3648,-0.2723,0.0688,-0.0762,0.0235,3118,2019-08-07 16:50:08:492
-6.8832,-6.6348,1.5225,0.1425,-0.3648,-0.2723,0.0688,-0.0762,0.0235,3123,2019-08-07 16:50:08:497
-6.8832,-6.6348,1.5225,0.1425,-0.3648,-0.2723,0.0411,-0.1902,0.0267,3128,2019-08-07 16:50:08:502
-6.8832,-6.6348,1.5225,0.1425,-0.3648,-0.2723,0.0411,-0.1902,0.0267,3133,2019-08-07 16:50:08:507
-6.6344,-6.6443,1.3528,0.1425,-0.3648,-0.2723,0.0411,-0.1902,0.0267,3138,2019-08-07 16:50:08:512
-6.6344,-6.6443,1.3528,-0.1586,-0.2586,0.02,0.0219,-0.2627,0.0267,3143,2019-08-07 16:50:08:517
-6.6344,-6.6443,1.3528,-0.1586,-0.2586,0.02,0.0219,-0.2627,0.0267,3148,2019-08-07 16:50:08:522
-6.443,-6.7684,1.2161,-0.1586,-0.2586,0.02,0.024,-0.2595,0.0224,3153,2019-08-07 16:50:08:527
-6.443,-6.7684,1.2161,-0.1586,-0.2586,0.02,0.024,-0.2595,0.0224,3157,2019-08-07 16:50:08:531
-6.3521,-6.7064,1.1784,-0.3981,-0.2506,0.185,0.0304,-0.2136,0.0117,3163,2019-08-07 16:50:08:537
-6.3521,-6.7064,1.1784,-0.3981,-0.2506,0.185,0.0304,-0.2136,0.0117,3167,2019-08-07 16:50:08:541
-6.3521,-6.7064,1.1784,-0.3981,-0.2506,0.185,0.0368,-0.137,0.0011,3173,2019-08-07 16:50:08:547
-6.2612,-6.6539,1.0889,-0.3981,-0.2506,0.185,0.0368,-0.137,0.0011,3178,2019-08-07 16:50:08:552
-6.2612,-6.6539,1.0889,-0.5368,-0.2839,0.2701,0.0443,-0.0571,-0.0106,3183,2019-08-07 16:50:08:557
-6.2612,-6.6539,1.0889,-0.5368,-0.2839,0.2701,0.0443,-0.0571,-0.0106,3187,2019-08-07 16:50:08:561
-6.2421,-6.5584,1.2256,-0.5368,-0.2839,0.2701,0.0538,0.0292,-0.0277,3193,2019-08-07 16:50:08:567
-6.2421,-6.5584,1.2256,-0.5368,-0.2839,0.2701,0.0538,0.0292,-0.0277,3197,2019-08-07 16:50:08:571
-6.4191,-6.5298,1.4094,-0.3899,-0.3961,0.0815,0.0624,0.0889,-0.0319,3203,2019-08-07 16:50:08:577
-6.4191,-6.5298,1.4094,-0.3899,-0.3961,0.0815,0.0624,0.0889,-0.0319,3208,2019-08-07 16:50:08:582
-6.4191,-6.5298,1.4094,-0.3899,-0.3961,0.0815,0.0592,0.1081,-0.0245,3213,2019-08-07 16:50:08:587
-6.577,-6.6109,1.4801,-0.3899,-0.3961,0.0815,0.0592,0.1081,-0.0245,3218,2019-08-07 16:50:08:592
-6.577,-6.6109,1.4801,-0.1644,-0.3499,-0.107,0.0432,0.0729,-0.0255,3222,2019-08-07 16:50:08:596
-6.577,-6.5775,1.6168,-0.1644,-0.3499,-0.107,0.0432,0.0729,-0.0255,3228,2019-08-07 16:50:08:602
-6.6822,-6.5775,1.6168,-0.1644,-0.3499,-0.107,0.0325,0.0122,-0.0192,3232,2019-08-07 16:50:08:606
-6.6822,-6.5775,1.6168,-0.1644,-0.3499,-0.107,0.0325,0.0122,-0.0192,3238,2019-08-07 16:50:08:612
-6.5817,-6.5632,1.5461,-0.1775,-0.336,-0.1878,0.0261,-0.0581,-0.0053,3243,2019-08-07 16:50:08:617
-6.5817,-6.5632,1.5461,-0.1775,-0.336,-0.1878,0.0261,-0.0581,-0.0053,3247,2019-08-07 16:50:08:621
-6.5817,-6.5632,1.5461,-0.1775,-0.336,-0.1878,-0.0026,-0.0901,0.0,3253,2019-08-07 16:50:08:627
-6.5148,-6.5107,1.5367,-0.1775,-0.336,-0.1878,-0.0026,-0.0901,0.0,3257,2019-08-07 16:50:08:631
-6.5148,-6.5107,1.5367,-0.3286,-0.4737,-0.0805,-0.0026,-0.0901,0.0,3263,2019-08-07 16:50:08:637
-6.5148,-6.4629,1.4518,-0.3286,-0.4737,-0.0805,-0.0186,-0.0975,0.0032,3267,2019-08-07 16:50:08:641
-6.5148,-6.4629,1.4518,-0.3286,-0.4737,-0.0805,-0.0186,-0.0975,0.0032,3273,2019-08-07 16:50:08:647
-6.5148,-6.4629,1.4518,-0.3286,-0.4737,-0.0805,-0.0133,-0.0922,0.0043,3278,2019-08-07 16:50:08:652
-6.5339,-6.42,1.3811,-0.2366,-0.5297,0.0675,-0.0133,-0.0922,0.0043,3283,2019-08-07 16:50:08:657
-6.5339,-6.42,1.3811,-0.2366,-0.5297,0.0675,-0.0079,-0.0975,-0.001,3288,2019-08-07 16:50:08:662
-6.5339,-6.42,1.3811,-0.2366,-0.5297,0.0675,-0.0079,-0.0975,-0.001,3293,2019-08-07 16:50:08:667
-6.5961,-6.4677,1.2444,-0.2366,-0.5297,0.0675,-0.0026,-0.1029,-0.001,3297,2019-08-07 16:50:08:671
-6.5961,-6.4677,1.2444,-0.1969,-0.4427,0.2303,-0.0026,-0.1029,-0.001,3303,2019-08-07 16:50:08:677
-6.5961,-6.4677,1.2444,-0.1969,-0.4427,0.2303,-0.0026,-0.1029,-0.001,3307,2019-08-07 16:50:08:681
-6.6296,-6.5536,1.2444,-0.1969,-0.4427,0.2303,0.0251,-0.1071,-0.0064,3313,2019-08-07 16:50:08:687
-6.6296,-6.5536,1.2444,-0.1969,-0.4427,0.2303,0.0251,-0.1071,-0.0064,3317,2019-08-07 16:50:08:691
-6.5961,-6.587,1.1926,-0.1702,-0.3608,0.2845,0.04,-0.0997,-0.0085,3323,2019-08-07 16:50:08:697
-6.5961,-6.587,1.1926,-0.1702,-0.3608,0.2845,0.04,-0.0997,-0.0085,3327,2019-08-07 16:50:08:701
-6.5961,-6.587,1.1926,-0.1702,-0.3608,0.2845,0.0474,-0.0965,-0.001,3333,2019-08-07 16:50:08:707
-6.62,-6.6061,1.3104,-0.1702,-0.3608,0.2845,0.0474,-0.0965,-0.001,3337,2019-08-07 16:50:08:711
-6.62,-6.6061,1.3104,-0.1202,-0.3541,0.0957,0.0496,-0.0858,0.0054,3343,2019-08-07 16:50:08:717
-6.6774,-6.63,1.3434,-0.1202,-0.3541,0.0957,0.0496,-0.0858,0.0054,3347,2019-08-07 16:50:08:721
-6.6774,-6.63,1.3434,-0.1202,-0.3541,0.0957,0.0464,-0.0805,0.0192,3353,2019-08-07 16:50:08:727
-6.6774,-6.63,1.3434,-0.1202,-0.3541,0.0957,0.0464,-0.0805,0.0192,3357,2019-08-07 16:50:08:731
-6.6918,-6.6682,1.499,-0.0785,-0.2869,0.0471,0.0336,-0.0954,0.0352,3363,2019-08-07 16:50:08:737
-6.6918,-6.6682,1.499,-0.0785,-0.2869,0.0471,0.0336,-0.0954,0.0352,3367,2019-08-07 16:50:08:741
-6.5865,-6.6348,1.4471,-0.0785,-0.2869,0.0471,0.0187,-0.1188,0.0309,3373,2019-08-07 16:50:08:747
-6.5865,-6.6348,1.4471,-0.0785,-0.2869,0.0471,0.0187,-0.1188,0.0309,3378,2019-08-07 16:50:08:752
-6.5865,-6.6348,1.4471,-0.1566,-0.2956,0.0377,0.0048,-0.1401,0.0267,3383,2019-08-07 16:50:08:757
-6.5482,-6.6252,1.499,-0.1566,-0.2956,0.0377,0.0048,-0.1401,0.0267,3388,2019-08-07 16:50:08:762
-6.5482,-6.6252,1.499,-0.1566,-0.2956,0.0377,0.0048,-0.1401,0.0267,3392,2019-08-07 16:50:08:766
-6.4382,-6.7255,1.4801,-0.1566,-0.2956,0.0377,-0.0101,-0.1529,0.0245,3397,2019-08-07 16:50:08:771
-6.4382,-6.7255,1.4801,-0.3422,-0.1968,0.1325,-0.0101,-0.1529,0.0245,3403,2019-08-07 16:50:08:777
-6.4382,-6.7255,1.4801,-0.3422,-0.1968,0.1325,-0.0122,-0.1327,0.0149,3408,2019-08-07 16:50:08:782
-6.3234,-6.7207,1.4377,-0.3422,-0.1968,0.1325,-0.0122,-0.1327,0.0149,3413,2019-08-07 16:50:08:787
-6.3234,-6.7207,1.4377,-0.3422,-0.1968,0.1325,-0.0026,-0.0943,0.0085,3417,2019-08-07 16:50:08:791
-6.3234,-6.7207,1.4377,-0.4589,-0.2012,0.1136,-0.0026,-0.0943,0.0085,3423,2019-08-07 16:50:08:797
-6.2564,-6.7303,1.4377,-0.4589,-0.2012,0.1136,0.0016,-0.0549,0.0085,3427,2019-08-07 16:50:08:801
-6.2564,-6.7303,1.4377,-0.4589,-0.2012,0.1136,0.0016,-0.0549,0.0085,3433,2019-08-07 16:50:08:807
-6.1655,-6.7255,1.4,-0.4589,-0.2012,0.1136,0.008,-0.0155,0.0064,3437,2019-08-07 16:50:08:811
-6.1655,-6.7255,1.4,-0.6341,-0.1922,0.105,0.008,-0.0155,0.0064,3443,2019-08-07 16:50:08:817
-6.1655,-6.7255,1.4,-0.6341,-0.1922,0.105,0.008,0.0388,-0.001,3447,2019-08-07 16:50:08:821
-6.2325,-6.6539,1.5225,-0.6341,-0.1922,0.105,0.008,0.0388,-0.001,3453,2019-08-07 16:50:08:827
-6.2325,-6.6539,1.5225,-0.6341,-0.1922,0.105,0.008,0.0388,-0.001,3457,2019-08-07 16:50:08:831
-6.3951,-6.5679,1.5414,-0.3669,-0.3647,0.0237,6.0E-4,0.0708,-0.0021,3463,2019-08-07 16:50:08:837
-6.3951,-6.5679,1.5414,-0.3669,-0.3647,0.0237,-0.0197,0.0825,0.0064,3467,2019-08-07 16:50:08:841
-6.3951,-6.5679,1.5414,-0.3669,-0.3647,0.0237,-0.0197,0.0825,0.0064,3473,2019-08-07 16:50:08:847
-6.5291,-6.6825,1.5555,-0.3669,-0.3647,0.0237,-0.0197,0.0825,0.0064,3478,2019-08-07 16:50:08:852
-6.5291,-6.6825,1.5555,-0.1553,-0.3164,-0.1075,-0.0367,0.0718,0.0107,3483,2019-08-07 16:50:08:857
-6.5291,-6.6825,1.5555,-0.1553,-0.3164,-0.1075,-0.0367,0.0718,0.0107,3488,2019-08-07 16:50:08:862
-6.6678,-6.6205,1.5744,-0.1553,-0.3164,-0.1075,-0.0388,0.026,0.0128,3493,2019-08-07 16:50:08:867
-6.6678,-6.6205,1.5744,-0.1553,-0.3164,-0.1075,-0.0388,0.026,0.0128,3498,2019-08-07 16:50:08:872
-6.5865,-6.6443,1.5273,-0.1553,-0.3164,-0.1075,-0.0484,-0.0198,0.016,3503,2019-08-07 16:50:08:877
-6.5865,-6.6443,1.5273,-0.1627,-0.3154,-0.006,-0.0484,-0.0198,0.016,3508,2019-08-07 16:50:08:882
-6.5865,-6.6443,1.5273,-0.1627,-0.3154,-0.006,-0.0442,-0.0368,0.0171,3512,2019-08-07 16:50:08:886
-6.5291,-6.6014,1.4943,-0.1627,-0.3154,-0.006,-0.0442,-0.0368,0.0171,3518,2019-08-07 16:50:08:892
-6.5291,-6.6014,1.4943,-0.1627,-0.3154,-0.006,-0.0442,-0.0368,0.0171,3522,2019-08-07 16:50:08:896
-6.5291,-6.6014,1.4943,-0.2644,-0.3238,0.0643,-0.0399,-0.0507,0.0171,3528,2019-08-07 16:50:08:902
-6.4621,-6.6252,1.5084,-0.2644,-0.3238,0.0643,-0.0399,-0.0507,0.0171,3532,2019-08-07 16:50:08:906
-6.4621,-6.6252,1.5084,-0.2644,-0.3238,0.0643,-0.0378,-0.0496,0.0192,3538,2019-08-07 16:50:08:912
-6.3951,-6.6157,1.466,-0.2644,-0.3238,0.0643,-0.0378,-0.0496,0.0192,3543,2019-08-07 16:50:08:917
-6.3951,-6.6157,1.466,-0.4133,-0.3326,0.1031,-0.0324,-0.0315,0.0117,3548,2019-08-07 16:50:08:922
-6.3951,-6.6157,1.466,-0.4133,-0.3326,0.1031,-0.0324,-0.0315,0.0117,3552,2019-08-07 16:50:08:926
-6.3903,-6.5584,1.4094,-0.4133,-0.3326,0.1031,-0.0303,-0.0187,0.0117,3558,2019-08-07 16:50:08:932
-6.3903,-6.5584,1.4094,-0.4133,-0.3326,0.1031,-0.0303,-0.0187,0.0117,3563,2019-08-07 16:50:08:937
-6.3616,-6.6157,1.3764,-0.3758,-0.3369,0.1582,-0.0303,-0.0187,0.0117,3567,2019-08-07 16:50:08:941
-6.3616,-6.6157,1.3764,-0.3758,-0.3369,0.1582,-0.0346,5.0E-4,0.0149,3573,2019-08-07 16:50:08:947
-6.3616,-6.6157,1.3764,-0.3758,-0.3369,0.1582,-0.0346,5.0E-4,0.0149,3578,2019-08-07 16:50:08:952
-6.3664,-6.7064,1.3246,-0.3758,-0.3369,0.1582,-0.0399,0.0175,0.0181,3582,2019-08-07 16:50:08:956
-6.3664,-6.7064,1.3246,-0.3685,-0.2408,0.231,-0.0399,0.0175,0.0181,3588,2019-08-07 16:50:08:962
-6.4429,-6.6443,1.2963,-0.3685,-0.2408,0.231,-0.0335,0.025,0.0224,3593,2019-08-07 16:50:08:967
-6.4429,-6.6443,1.2963,-0.3685,-0.2408,0.231,-0.0335,0.025,0.0224,3597,2019-08-07 16:50:08:971
-6.4429,-6.6443,1.2963,-0.3685,-0.2408,0.231,-0.0261,0.0282,0.0277,3603,2019-08-07 16:50:08:977
-6.4238,-6.7255,1.268,-0.3534,-0.2008,0.259,-0.0261,0.0282,0.0277,3608,2019-08-07 16:50:08:982
-6.4238,-6.7255,1.268,-0.3534,-0.2008,0.259,-0.0239,0.0271,0.0373,3613,2019-08-07 16:50:08:987
-6.4716,-6.7303,1.2727,-0.3534,-0.2008,0.259,-0.0239,0.0271,0.0373,3617,2019-08-07 16:50:08:991
-6.4716,-6.7303,1.2727,-0.3534,-0.2008,0.259,-0.0154,0.0271,0.0437,3623,2019-08-07 16:50:08:997
-6.4716,-6.7303,1.2727,-0.302,-0.1968,0.2694,-0.0154,0.0271,0.0437,3627,2019-08-07 16:50:09:001
-6.553,-6.7446,1.3481,-0.302,-0.1968,0.2694,-0.0026,0.0154,0.0469,3633,2019-08-07 16:50:09:007
-6.553,-6.7446,1.3481,-0.302,-0.1968,0.2694,-0.0026,0.0154,0.0469,3637,2019-08-07 16:50:09:011
-6.553,-6.7494,1.3199,-0.302,-0.1968,0.2694,0.0038,-0.0081,0.0501,3643,2019-08-07 16:50:09:017
-6.553,-6.7494,1.3199,-0.2418,-0.1718,0.2238,0.0038,-0.0081,0.0501,3648,2019-08-07 16:50:09:022
-6.553,-6.7494,1.3199,-0.2418,-0.1718,0.2238,0.0038,-0.0081,0.0501,3653,2019-08-07 16:50:09:027
-6.4812,-6.8114,1.1737,-0.2418,-0.1718,0.2238,0.0123,-0.0262,0.048,3659,2019-08-07 16:50:09:033
-6.4812,-6.8114,1.1737,-0.2418,-0.1718,0.2238,0.0123,-0.0262,0.048,3663,2019-08-07 16:50:09:037
-6.4812,-6.8114,1.1737,-0.3666,-0.0658,0.3585,0.0187,-0.0166,0.0416,3667,2019-08-07 16:50:09:041
-6.4477,-6.8305,1.1879,-0.3666,-0.0658,0.3585,0.0187,-0.0166,0.0416,3673,2019-08-07 16:50:09:047
-6.4477,-6.8305,1.1879,-0.3666,-0.0658,0.3585,0.0325,-0.0027,0.0341,3677,2019-08-07 16:50:09:051
-6.4716,-6.8544,1.3104,-0.3666,-0.0658,0.3585,0.0325,-0.0027,0.0341,3683,2019-08-07 16:50:09:057
-6.4716,-6.8544,1.3104,-0.3082,-0.1187,0.2015,0.0325,-0.0027,0.0341,3688,2019-08-07 16:50:09:062
-6.4716,-6.8544,1.3104,-0.3082,-0.1187,0.2015,0.0443,0.0101,0.0277,3693,2019-08-07 16:50:09:067
-6.5434,-6.7541,1.3387,-0.3082,-0.1187,0.2015,0.0443,0.0101,0.0277,3698,2019-08-07 16:50:09:072
-6.5434,-6.7541,1.3387,-0.3082,-0.1187,0.2015,0.0517,0.0207,0.0171,3702,2019-08-07 16:50:09:076
-6.5434,-6.7541,1.3387,-0.1678,-0.2101,0.0264,0.0517,0.0207,0.0171,3708,2019-08-07 16:50:09:082
-6.6439,-6.6921,1.5508,-0.1678,-0.2101,0.0264,0.0624,0.0228,0.0117,3713,2019-08-07 16:50:09:087
-6.6439,-6.6921,1.5508,-0.1678,-0.2101,0.0264,0.0624,0.0228,0.0117,3717,2019-08-07 16:50:09:091
-6.6821,-6.7112,1.5933,-0.1678,-0.2101,0.0264,0.0613,0.0079,0.0011,3722,2019-08-07 16:50:09:096
-6.6821,-6.7112,1.5933,-0.1454,-0.2023,-0.0468,0.0613,0.0079,0.0011,3728,2019-08-07 16:50:09:102
-6.6821,-6.7112,1.5933,-0.1454,-0.2023,-0.0468,0.0613,-0.0155,-0.0096,3732,2019-08-07 16:50:09:106
-6.6821,-6.7159,1.5838,-0.1454,-0.2023,-0.0468,0.0613,-0.0155,-0.0096,3738,2019-08-07 16:50:09:112
-6.6821,-6.7159,1.5838,-0.1454,-0.2023,-0.0468,0.0613,-0.0155,-0.0096,3743,2019-08-07 16:50:09:117
-6.6343,-6.6968,1.6875,-0.1674,-0.2015,-0.1432,0.0549,-0.0368,-0.0085,3748,2019-08-07 16:50:09:122
-6.6343,-6.6968,1.6875,-0.1674,-0.2015,-0.1432,0.0549,-0.0368,-0.0085,3752,2019-08-07 16:50:09:126
-6.6343,-6.6968,1.6875,-0.1674,-0.2015,-0.1432,0.0613,-0.0645,-0.0074,3758,2019-08-07 16:50:09:132
-6.553,-6.6778,1.73,-0.1674,-0.2015,-0.1432,0.0613,-0.0645,-0.0074,3763,2019-08-07 16:50:09:137
-6.553,-6.6778,1.73,-0.3171,-0.1624,-0.1949,0.0581,-0.0837,-0.0042,3767,2019-08-07 16:50:09:141
-6.4812,-6.7398,1.8101,-0.3171,-0.1624,-0.1949,0.0581,-0.0837,-0.0042,3773,2019-08-07 16:50:09:147
-6.4812,-6.7398,1.8101,-0.3171,-0.1624,-0.1949,0.0432,-0.0986,0.0096,3778,2019-08-07 16:50:09:152
-6.4812,-6.7398,1.8101,-0.3171,-0.1624,-0.1949,0.0432,-0.0986,0.0096,3783,2019-08-07 16:50:09:157
-6.4381,-6.7303,1.7347,-0.3142,-0.1413,-0.1358,0.024,-0.0954,0.0149,3788,2019-08-07 16:50:09:162
-6.4381,-6.7303,1.7347,-0.3142,-0.1413,-0.1358,0.024,-0.0954,0.0149,3793,2019-08-07 16:50:09:167
-6.4721,-6.6729,1.7723,-0.3142,-0.1413,-0.1358,0.0198,-0.089,0.0192,3798,2019-08-07 16:50:09:172
-6.4721,-6.6729,1.7723,-0.3142,-0.1413,-0.1358,0.0198,-0.089,0.0192,3803,2019-08-07 16:50:09:177
-6.4721,-6.6729,1.7723,-0.3142,-0.1413,-0.1358,0.0198,-0.089,0.0192,3808,2019-08-07 16:50:09:182
-6.4099,-6.6347,1.7581,-0.3462,-0.2863,-0.2032,0.0112,-0.0879,0.0256,3813,2019-08-07 16:50:09:187
-6.4099,-6.6347,1.7581,-0.3462,-0.2863,-0.2032,0.0112,-0.0879,0.0256,3817,2019-08-07 16:50:09:191
-6.3573,-6.5775,1.6073,-0.3462,-0.2863,-0.2032,-5.0E-4,-0.0666,0.0256,3823,2019-08-07 16:50:09:197
-6.3573,-6.5775,1.6073,-0.3462,-0.2863,-0.2032,-5.0E-4,-0.0666,0.0256,3827,2019-08-07 16:50:09:201
-6.3573,-6.5775,1.6073,-0.4328,-0.369,0.0629,-0.0133,-0.024,0.0213,3833,2019-08-07 16:50:09:207
-6.4052,-6.4915,1.5743,-0.4328,-0.369,0.0629,-0.0133,-0.024,0.0213,3838,2019-08-07 16:50:09:212
-6.4052,-6.4915,1.5743,-0.4328,-0.369,0.0629,-0.0229,0.0133,0.0245,3843,2019-08-07 16:50:09:217
-6.5343,-6.5106,1.5602,-0.4328,-0.369,0.0629,-0.0229,0.0133,0.0245,3847,2019-08-07 16:50:09:221
-6.5343,-6.5106,1.5602,-0.2638,-0.376,0.0513,-0.0154,0.0591,0.0139,3852,2019-08-07 16:50:09:226
-6.5343,-6.5106,1.5602,-0.2638,-0.376,0.0513,-0.0154,0.0591,0.0139,3858,2019-08-07 16:50:09:232
-6.6252,-6.5249,1.5413,-0.2638,-0.376,0.0513,-0.0133,0.074,0.0043,3863,2019-08-07 16:50:09:237
-6.6252,-6.5249,1.5413,-0.2638,-0.376,0.0513,-0.0133,0.074,0.0043,3867,2019-08-07 16:50:09:241
-6.6252,-6.5249,1.5413,-0.0813,-0.3268,0.1059,-0.0207,0.0644,-0.0021,3873,2019-08-07 16:50:09:247
-6.7496,-6.5536,1.5319,-0.0813,-0.3268,0.1059,-0.0207,0.0644,-0.0021,3878,2019-08-07 16:50:09:252
-6.7496,-6.5536,1.5319,-0.0813,-0.3268,0.1059,-0.0239,0.0473,-0.0042,3883,2019-08-07 16:50:09:257
-6.7496,-6.5536,1.5319,-0.0813,-0.3268,0.1059,-0.0239,0.0473,-0.0042,3888,2019-08-07 16:50:09:262
-6.7161,-6.5249,1.5743,-0.0886,-0.3601,0.0155,-0.0175,0.0175,-0.0053,3892,2019-08-07 16:50:09:266
-6.7161,-6.5249,1.5743,-0.0886,-0.3601,0.0155,-0.0175,0.0175,-0.0053,3898,2019-08-07 16:50:09:272
-6.7688,-6.6252,1.4282,-0.0886,-0.3601,0.0155,-0.0186,-0.0166,-0.0106,3903,2019-08-07 16:50:09:277
-6.7688,-6.6252,1.4282,-0.0886,-0.3601,0.0155,-0.0186,-0.0166,-0.0106,3907,2019-08-07 16:50:09:281
-6.7688,-6.6252,1.4282,-0.0833,-0.1989,0.1733,-0.0186,-0.0656,-0.016,3913,2019-08-07 16:50:09:287
-6.6587,-6.6634,1.447,-0.0833,-0.1989,0.1733,-0.0186,-0.0656,-0.016,3917,2019-08-07 16:50:09:291
-6.6587,-6.6634,1.447,-0.0833,-0.1989,0.1733,-0.0154,-0.1071,-0.016,3923,2019-08-07 16:50:09:297
-6.5774,-6.5679,1.4847,-0.0833,-0.1989,0.1733,-0.0154,-0.1071,-0.016,3927,2019-08-07 16:50:09:301
-6.5774,-6.5679,1.4847,-0.2414,-0.3204,0.1171,0.0027,-0.1263,-0.0138,3933,2019-08-07 16:50:09:307
-6.5774,-6.5679,1.4847,-0.2414,-0.3204,0.1171,0.0027,-0.1263,-0.0138,3937,2019-08-07 16:50:09:311
-6.4243,-6.5488,1.249,-0.2414,-0.3204,0.1171,0.008,-0.1156,-0.0149,3943,2019-08-07 16:50:09:317
-6.4243,-6.5488,1.249,-0.2414,-0.3204,0.1171,0.008,-0.1156,-0.0149,3947,2019-08-07 16:50:09:321
-6.3669,-6.5106,1.3198,-0.4363,-0.3801,0.3447,6.0E-4,-0.0784,-0.0234,3953,2019-08-07 16:50:09:327
-6.3669,-6.5106,1.3198,-0.4363,-0.3801,0.3447,6.0E-4,-0.0784,-0.0234,3957,2019-08-07 16:50:09:331
-6.3669,-6.5106,1.3198,-0.4363,-0.3801,0.3447,6.0E-4,-0.0784,-0.0234,3962,2019-08-07 16:50:09:336
-6.3287,-6.5106,1.4282,-0.4363,-0.3801,0.3447,-5.0E-4,-0.0549,-0.017,3968,2019-08-07 16:50:09:342
-6.3287,-6.5106,1.4282,-0.4409,-0.3545,0.2536,-5.0E-4,-0.0549,-0.017,3972,2019-08-07 16:50:09:346
-6.3239,-6.5918,1.4046,-0.4409,-0.3545,0.2536,-0.0122,-0.0187,-0.0138,3978,2019-08-07 16:50:09:352
-6.3239,-6.5918,1.4046,-0.4409,-0.3545,0.2536,-0.0122,-0.0187,-0.0138,3982,2019-08-07 16:50:09:356
-6.3239,-6.5918,1.4046,-0.4409,-0.3545,0.2536,-0.0218,0.0186,-0.0096,3988,2019-08-07 16:50:09:362
-6.343,-6.544,1.4329,-0.4436,-0.3523,0.1851,-0.0218,0.0186,-0.0096,3992,2019-08-07 16:50:09:366
-6.343,-6.544,1.4329,-0.4436,-0.3523,0.1851,-0.0218,0.0431,-0.0149,3998,2019-08-07 16:50:09:372
-6.343,-6.544,1.4329,-0.4436,-0.3523,0.1851,-0.0218,0.0431,-0.0149,4002,2019-08-07 16:50:09:376
-6.4626,-6.5822,1.4564,-0.4436,-0.3523,0.1851,-0.0271,0.0527,-0.0106,4009,2019-08-07 16:50:09:383
-6.4626,-6.5822,1.4564,-0.2472,-0.312,0.2035,-0.0271,0.0527,-0.0106,4013,2019-08-07 16:50:09:387
-6.544,-6.6586,1.4329,-0.2472,-0.312,0.2035,-0.0271,0.0527,-0.0106,4018,2019-08-07 16:50:09:392
-6.544,-6.6586,1.4329,-0.2472,-0.312,0.2035,-0.0292,0.0495,-0.0128,4022,2019-08-07 16:50:09:396
-6.544,-6.6586,1.4329,-0.2472,-0.312,0.2035,-0.0292,0.0495,-0.0128,4028,2019-08-07 16:50:09:402
-6.544,-6.6491,1.48,-0.2184,-0.2383,0.0931,-0.0218,0.0399,-0.0149,4032,2019-08-07 16:50:09:406
-6.544,-6.6491,1.48,-0.2184,-0.2383,0.0931,-0.0218,0.0399,-0.0149,4038,2019-08-07 16:50:09:412
-6.544,-6.6491,1.48,-0.2184,-0.2383,0.0931,-0.0175,0.0122,-0.017,4043,2019-08-07 16:50:09:417
-6.5822,-6.6825,1.5366,-0.2184,-0.2383,0.0931,-0.0175,0.0122,-0.017,4047,2019-08-07 16:50:09:421
-6.5822,-6.6825,1.5366,-0.2265,-0.2503,0.1639,-0.0154,-0.0091,-0.0128,4053,2019-08-07 16:50:09:427
-6.544,-6.6586,1.447,-0.2265,-0.2503,0.1639,-0.0154,-0.0091,-0.0128,4057,2019-08-07 16:50:09:431
-6.544,-6.6586,1.447,-0.2265,-0.2503,0.1639,-0.0122,-0.0187,-0.0117,4063,2019-08-07 16:50:09:437
-6.544,-6.6586,1.447,-0.2265,-0.2503,0.1639,-0.0122,-0.0187,-0.0117,4068,2019-08-07 16:50:09:442
-6.4292,-6.587,1.513,-0.3486,-0.3289,0.0748,-0.0037,-0.0294,-0.0128,4073,2019-08-07 16:50:09:447
-6.4292,-6.587,1.513,-0.3486,-0.3289,0.0748,-0.0037,-0.0294,-0.0128,4078,2019-08-07 16:50:09:452
-6.3957,-6.6156,1.5036,-0.3486,-0.3289,0.0748,-0.0026,-0.0294,-0.0096,4083,2019-08-07 16:50:09:457
-6.3957,-6.6156,1.5036,-0.3486,-0.3289,0.0748,-0.0026,-0.0294,-0.0096,4088,2019-08-07 16:50:09:462
-6.3957,-6.6156,1.5036,-0.4272,-0.245,0.2424,-0.009,-0.0102,-0.0106,4093,2019-08-07 16:50:09:467
-6.3478,-6.692,1.3575,-0.4272,-0.245,0.2424,-0.009,-0.0102,-0.0106,4097,2019-08-07 16:50:09:471
-6.3478,-6.692,1.3575,-0.4272,-0.245,0.2424,-0.0165,0.0186,-0.0085,4103,2019-08-07 16:50:09:477
-6.3478,-6.692,1.3575,-0.4272,-0.245,0.2424,-0.0165,0.0186,-0.0085,4107,2019-08-07 16:50:09:481
-6.3813,-6.7302,1.4659,-0.4272,-0.245,0.2424,-0.009,0.0303,-0.0106,4113,2019-08-07 16:50:09:487
-6.3813,-6.7302,1.4659,-0.4015,-0.2048,0.0965,-0.009,0.0303,-0.0106,4117,2019-08-07 16:50:09:491
-6.4292,-6.6395,1.4376,-0.4015,-0.2048,0.0965,0.0016,0.0356,-0.0117,4122,2019-08-07 16:50:09:496
-6.4292,-6.6395,1.4376,-0.4015,-0.2048,0.0965,0.0016,0.0356,-0.0117,4128,2019-08-07 16:50:09:502
-6.4292,-6.6395,1.4376,-0.3001,-0.2547,0.1946,0.0016,0.0463,-0.0096,4133,2019-08-07 16:50:09:507
-6.4244,-6.6061,1.3999,-0.3001,-0.2547,0.1946,0.0016,0.0463,-0.0096,4138,2019-08-07 16:50:09:512
-6.4244,-6.6061,1.3999,-0.3001,-0.2547,0.1946,0.0016,0.0495,-0.0181,4143,2019-08-07 16:50:09:517
-6.5392,-6.5202,1.4423,-0.3001,-0.2547,0.1946,0.0016,0.0495,-0.0181,4148,2019-08-07 16:50:09:522
-6.5392,-6.5202,1.4423,-0.3001,-0.2547,0.1946,0.0016,0.0495,-0.0181,4152,2019-08-07 16:50:09:526
-6.5392,-6.5202,1.4423,-0.228,-0.3856,0.0839,-5.0E-4,0.0431,-0.0234,4158,2019-08-07 16:50:09:532
-6.5727,-6.4867,1.4187,-0.228,-0.3856,0.0839,-5.0E-4,0.0431,-0.0234,4162,2019-08-07 16:50:09:536
-6.5727,-6.4867,1.4187,-0.228,-0.3856,0.0839,-0.0037,0.0271,-0.0202,4168,2019-08-07 16:50:09:542
-6.501,-6.6109,1.3716,-0.2746,-0.3068,0.2016,-0.0037,0.0271,-0.0202,4172,2019-08-07 16:50:09:546
-6.501,-6.6109,1.3716,-0.2746,-0.3068,0.2016,-0.0069,0.0143,-0.0245,4178,2019-08-07 16:50:09:552
-6.501,-6.6109,1.3716,-0.2746,-0.3068,0.2016,-0.0069,0.0143,-0.0245,4182,2019-08-07 16:50:09:556
-6.5105,-6.6204,1.4234,-0.2746,-0.3068,0.2016,-0.0047,0.0133,-0.0287,4188,2019-08-07 16:50:09:562
-6.5105,-6.6204,1.4234,-0.2619,-0.2868,0.1838,-0.0047,0.0133,-0.0287,4193,2019-08-07 16:50:09:567
-6.4675,-6.692,1.3763,-0.2619,-0.2868,0.1838,-0.0047,0.0143,-0.0255,4198,2019-08-07 16:50:09:572
-6.4675,-6.692,1.3763,-0.2619,-0.2868,0.1838,-0.0047,0.0143,-0.0255,4202,2019-08-07 16:50:09:576
-6.4675,-6.692,1.3763,-0.2619,-0.2868,0.1838,-0.0079,0.0324,-0.0266,4209,2019-08-07 16:50:09:583
-6.4196,-6.7302,1.4046,-0.3398,-0.2387,0.1273,-0.0079,0.0324,-0.0266,4213,2019-08-07 16:50:09:587
-6.4196,-6.7302,1.4046,-0.3398,-0.2387,0.1273,-0.0079,0.0324,-0.0266,4218,2019-08-07 16:50:09:592
-6.4196,-6.7302,1.4046,-0.3398,-0.2387,0.1273,-0.0058,0.0473,-0.0287,4223,2019-08-07 16:50:09:597
-6.4196,-6.7588,1.4894,-0.3477,-0.1694,0.0719,-0.0058,0.0473,-0.0287,4227,2019-08-07 16:50:09:601
-6.4196,-6.7588,1.4894,-0.3477,-0.1694,0.0719,-0.0037,0.0537,-0.0245,4233,2019-08-07 16:50:09:607
-6.4771,-6.735,1.5036,-0.3477,-0.1694,0.0719,-0.0037,0.0537,-0.0245,4238,2019-08-07 16:50:09:612
-6.4771,-6.735,1.5036,-0.3477,-0.1694,0.0719,0.0027,0.0729,-0.0202,4243,2019-08-07 16:50:09:617
-6.4771,-6.735,1.5036,-0.2931,-0.2019,0.0023,0.0027,0.0729,-0.0202,4247,2019-08-07 16:50:09:621
-6.5201,-6.6634,1.5743,-0.2931,-0.2019,0.0023,0.0102,0.075,-0.0213,4253,2019-08-07 16:50:09:627
-6.5201,-6.6634,1.5743,-0.2931,-0.2019,0.0023,0.0102,0.075,-0.0213,4258,2019-08-07 16:50:09:632
-6.6302,-6.6586,1.6026,-0.2931,-0.2019,0.0023,0.0059,0.058,-0.0192,4263,2019-08-07 16:50:09:637
-6.6302,-6.6586,1.6026,-0.1298,-0.2616,-0.0764,0.0059,0.058,-0.0192,4268,2019-08-07 16:50:09:642
-6.6302,-6.6586,1.6026,-0.1298,-0.2616,-0.0764,0.0059,0.058,-0.0192,4273,2019-08-07 16:50:09:647
-6.568,-6.587,1.6167,-0.1298,-0.2616,-0.0764,-0.0037,0.0154,-0.0128,4277,2019-08-07 16:50:09:651
-6.568,-6.587,1.6167,-0.1298,-0.2616,-0.0764,-0.0037,0.0154,-0.0128,4283,2019-08-07 16:50:09:657
-6.568,-6.587,1.6167,-0.3391,-0.2966,-0.0643,0.0038,-0.0102,-0.017,4288,2019-08-07 16:50:09:662
-6.4819,-6.6299,1.5648,-0.3391,-0.2966,-0.0643,0.0038,-0.0102,-0.017,4293,2019-08-07 16:50:09:667
-6.4819,-6.6299,1.5648,-0.3391,-0.2966,-0.0643,0.0027,-0.007,-0.0202,4297,2019-08-07 16:50:09:671
-6.4675,-6.6538,1.414,-0.3391,-0.2966,-0.0643,0.0027,-0.007,-0.0202,4303,2019-08-07 16:50:09:677
-6.4675,-6.6538,1.414,-0.298,-0.2657,0.1162,0.0027,-0.007,-0.0202,4307,2019-08-07 16:50:09:681
-6.4675,-6.6538,1.414,-0.298,-0.2657,0.1162,-0.0047,0.0079,-0.016,4313,2019-08-07 16:50:09:687
-6.391,-6.7206,1.3904,-0.3685,-0.2193,0.1529,-0.0047,0.0079,-0.016,4318,2019-08-07 16:50:09:692
-6.391,-6.7206,1.3904,-0.3685,-0.2193,0.1529,-0.0047,0.0218,-0.0117,4323,2019-08-07 16:50:09:697
-6.4101,-6.7397,1.4187,-0.3685,-0.2193,0.1529,-0.0047,0.0218,-0.0117,4328,2019-08-07 16:50:09:702
-6.4101,-6.7397,1.4187,-0.3685,-0.2193,0.1529,0.0102,0.041,-0.016,4333,2019-08-07 16:50:09:707
-6.4101,-6.7397,1.4187,-0.2856,-0.2362,0.1344,0.0102,0.041,-0.016,4338,2019-08-07 16:50:09:712
-6.501,-6.7206,1.3669,-0.2856,-0.2362,0.1344,0.0112,0.0569,-0.0128,4343,2019-08-07 16:50:09:717
-6.501,-6.7206,1.3669,-0.2856,-0.2362,0.1344,0.0112,0.0569,-0.0128,4348,2019-08-07 16:50:09:722
-6.501,-6.7206,1.3669,-0.2856,-0.2362,0.1344,-0.0026,0.058,-0.0106,4352,2019-08-07 16:50:09:726
-6.5536,-6.6729,1.3716,-0.2044,-0.2711,0.1598,-0.0026,0.058,-0.0106,4358,2019-08-07 16:50:09:732
-6.5536,-6.6729,1.3716,-0.2044,-0.2711,0.1598,0.007,0.0676,-0.0096,4363,2019-08-07 16:50:09:737
-6.6063,-6.7016,1.3904,-0.2044,-0.2711,0.1598,0.007,0.0676,-0.0096,4367,2019-08-07 16:50:09:741
-6.6063,-6.7016,1.3904,-0.2044,-0.2711,0.1598,0.007,0.0676,-0.0096,4373,2019-08-07 16:50:09:747
-6.6063,-6.7016,1.3904,-0.1048,-0.2579,0.0569,0.0187,0.0686,-0.016,4377,2019-08-07 16:50:09:751
-6.5919,-6.6586,1.4658,-0.1048,-0.2579,0.0569,0.0187,0.0686,-0.016,4383,2019-08-07 16:50:09:757
-6.5919,-6.6586,1.4658,-0.1048,-0.2579,0.0569,0.0187,0.0686,-0.016,4387,2019-08-07 16:50:09:761
-6.5919,-6.6586,1.4658,-0.1048,-0.2579,0.0569,0.0198,0.0655,-0.017,4393,2019-08-07 16:50:09:767
-6.5632,-6.6968,1.3999,-0.1957,-0.226,0.1113,0.0198,0.0655,-0.017,4397,2019-08-07 16:50:09:771
-6.5632,-6.6968,1.3999,-0.1957,-0.226,0.1113,0.0219,0.0591,-0.0202,4403,2019-08-07 16:50:09:777
-6.5776,-6.6443,1.4706,-0.1957,-0.226,0.1113,0.0219,0.0591,-0.0202,4408,2019-08-07 16:50:09:782
-6.5776,-6.6443,1.4706,-0.1957,-0.226,0.1113,0.0336,0.0516,-0.0192,4412,2019-08-07 16:50:09:786
-6.5106,-6.7063,1.3904,-0.2042,-0.2324,0.0939,0.0336,0.0516,-0.0192,4418,2019-08-07 16:50:09:792
-6.5106,-6.7063,1.3904,-0.2042,-0.2324,0.0939,0.0325,0.0324,-0.0192,4422,2019-08-07 16:50:09:796
-6.5106,-6.7063,1.3904,-0.2042,-0.2324,0.0939,0.0325,0.0324,-0.0192,4428,2019-08-07 16:50:09:802
-6.4628,-6.6777,1.4988,-0.2042,-0.2324,0.0939,0.0368,0.0218,-0.017,4432,2019-08-07 16:50:09:806
-6.4628,-6.6777,1.4988,-0.2934,-0.2434,0.0666,0.0368,0.0218,-0.017,4438,2019-08-07 16:50:09:812
-6.4628,-6.6777,1.4988,-0.2934,-0.2434,0.0666,0.0368,0.0218,-0.017,4443,2019-08-07 16:50:09:817
-6.3767,-6.6825,1.447,-0.2934,-0.2434,0.0666,0.0368,0.0164,-0.0117,4448,2019-08-07 16:50:09:822
-6.3767,-6.6825,1.447,-0.2934,-0.2434,0.0666,0.0368,0.0164,-0.0117,4452,2019-08-07 16:50:09:826
-6.3575,-6.6872,1.3527,-0.3971,-0.2636,0.1628,0.0261,0.0207,-0.0085,4459,2019-08-07 16:50:09:833
-6.3575,-6.6872,1.3527,-0.3971,-0.2636,0.1628,0.0261,0.0207,-0.0085,4463,2019-08-07 16:50:09:837
-6.3575,-6.6872,1.3527,-0.3971,-0.2636,0.1628,0.007,0.0346,-0.0074,4468,2019-08-07 16:50:09:842
-6.4197,-6.7159,1.3621,-0.3971,-0.2636,0.1628,0.007,0.0346,-0.0074,4472,2019-08-07 16:50:09:846
-6.4197,-6.7159,1.3621,-0.2575,-0.251,0.0834,0.0048,0.0378,-0.0128,4477,2019-08-07 16:50:09:851
-6.4197,-6.7159,1.3621,-0.2575,-0.251,0.0834,0.0048,0.0378,-0.0128,4483,2019-08-07 16:50:09:857
-6.525,-6.7206,1.4611,-0.2575,-0.251,0.0834,0.0123,0.0303,-0.0138,4487,2019-08-07 16:50:09:861
-6.525,-6.7206,1.4611,-0.2575,-0.251,0.0834,0.0123,0.0303,-0.0138,4493,2019-08-07 16:50:09:867
-6.6063,-6.6872,1.4046,-0.1469,-0.2428,0.1081,0.0112,0.0196,-0.0117,4498,2019-08-07 16:50:09:872
-6.6063,-6.6872,1.4046,-0.1469,-0.2428,0.1081,0.0112,0.0196,-0.0117,4503,2019-08-07 16:50:09:877
-6.6111,-6.692,1.4234,-0.1469,-0.2428,0.1081,0.0144,0.009,-0.0138,4507,2019-08-07 16:50:09:881
-6.6111,-6.692,1.4234,-0.1469,-0.2428,0.1081,0.0144,0.009,-0.0138,4512,2019-08-07 16:50:09:886
-6.6111,-6.692,1.4234,-0.0502,-0.3249,0.3389,-5.0E-4,-0.0581,-0.017,4518,2019-08-07 16:50:09:892
-6.8982,-6.6729,1.0322,-0.0502,-0.3249,0.3389,-5.0E-4,-0.0581,-0.017,4523,2019-08-07 16:50:09:897
-6.8982,-6.6729,1.0322,-0.0502,-0.3249,0.3389,-5.0E-4,-0.0581,-0.017,4528,2019-08-07 16:50:09:902
-6.3815,-6.7111,1.8759,-0.0502,-0.3249,0.3389,-0.0431,-0.0933,-0.0117,4533,2019-08-07 16:50:09:907
-6.3815,-6.7111,1.8759,-0.3376,-0.2315,-0.0888,-0.0431,-0.0933,-0.0117,4538,2019-08-07 16:50:09:912
-6.3815,-6.7111,1.8759,-0.3376,-0.2315,-0.0888,0.0538,-0.1039,-0.0181,4543,2019-08-07 16:50:09:917
-6.3432,-6.7684,1.2584,-0.3376,-0.2315,-0.0888,0.0538,-0.1039,-0.0181,4547,2019-08-07 16:50:09:921
-6.3432,-6.7684,1.2584,-0.3376,-0.2315,-0.0888,0.0411,-0.0336,-0.0096,4553,2019-08-07 16:50:09:927
-6.1231,-6.7063,1.2537,-0.6195,-0.2522,0.2799,0.0411,-0.0336,-0.0096,4558,2019-08-07 16:50:09:932
-6.1231,-6.7063,1.2537,-0.6195,-0.2522,0.2799,0.0304,0.0271,-0.0149,4563,2019-08-07 16:50:09:937
-6.1231,-6.7063,1.2537,-0.6195,-0.2522,0.2799,0.0304,0.0271,-0.0149,4568,2019-08-07 16:50:09:942
-6.281,-6.6395,1.4328,-0.6195,-0.2522,0.2799,0.0304,0.0271,-0.0149,4572,2019-08-07 16:50:09:946
-6.281,-6.6395,1.4328,-0.6195,-0.2522,0.2799,0.0443,0.0665,-0.0117,4578,2019-08-07 16:50:09:952
-6.2667,-6.7159,1.48,-0.3885,-0.3013,0.0959,0.0443,0.0665,-0.0117,4583,2019-08-07 16:50:09:957
-6.2667,-6.7159,1.48,-0.3885,-0.3013,0.0959,0.0677,0.1113,0.0043,4587,2019-08-07 16:50:09:961
-6.2667,-6.7159,1.48,-0.3885,-0.3013,0.0959,0.0677,0.1113,0.0043,4593,2019-08-07 16:50:09:967
-6.3241,-6.7111,1.6261,-0.3885,-0.3013,0.0959,0.0901,0.1379,0.0096,4598,2019-08-07 16:50:09:972
-6.3241,-6.7111,1.6261,-0.411,-0.2275,-0.0454,0.0901,0.1379,0.0096,4603,2019-08-07 16:50:09:977
-6.3241,-6.7111,1.6261,-0.411,-0.2275,-0.0454,0.0954,0.1326,0.0192,4608,2019-08-07 16:50:09:982
-6.4198,-6.6395,1.3716,-0.411,-0.2275,-0.0454,0.0954,0.1326,0.0192,4612,2019-08-07 16:50:09:986
-6.4198,-6.6395,1.3716,-0.411,-0.2275,-0.0454,0.0602,0.1411,0.0213,4618,2019-08-07 16:50:09:992
-6.4293,-6.587,1.5224,-0.2984,-0.3654,0.0276,0.0602,0.1411,0.0213,4622,2019-08-07 16:50:09:996
-6.4293,-6.587,1.5224,-0.2984,-0.3654,0.0276,0.0688,0.1411,0.0181,4628,2019-08-07 16:50:10:002
-6.4293,-6.587,1.5224,-0.2984,-0.3654,0.0276,0.0688,0.1411,0.0181,4632,2019-08-07 16:50:10:006
-6.4054,-6.6538,1.414,-0.2984,-0.3654,0.0276,0.0688,0.1411,0.0181,4638,2019-08-07 16:50:10:012
-6.4054,-6.6538,1.414,-0.262,-0.3133,0.1452,0.0666,0.1347,0.0117,4643,2019-08-07 16:50:10:017
-6.5825,-6.5392,1.3716,-0.262,-0.3133,0.1452,0.0666,0.1347,0.0117,4647,2019-08-07 16:50:10:021
-6.5825,-6.5392,1.3716,-0.262,-0.3133,0.1452,0.0411,0.1219,0.0053,4653,2019-08-07 16:50:10:027