ACCELEROMETER X (m/s²),ACCELEROMETER Y (m/s²),ACCELEROMETER Z (m/s²),LINEAR ACCELERATION X (m/s²),LINEAR ACCELERATION Y (m/s²),LINEAR ACCELERATION Z (m/s²),GYROSCOPE X (rad/s),GYROSCOPE Y (rad/s),GYROSCOPE Z (rad/s),Time since start in ms ,YYYY-MO-DD HH-MI-SS_SSS
-6.4739,-6.7969,0.7679,-0.3173,-0.3419,0.089,0.0347,-0.0453,-0.0149,4,2019-08-07 16:49:11:099
-6.4739,-6.7969,0.7679,-0.3173,-0.3419,0.089,0.0347,-0.0453,-0.0149,8,2019-08-07 16:49:11:103
-6.3638,-6.7491,0.7349,-0.3173,-0.3419,0.089,0.0336,-0.0389,-0.0085,14,2019-08-07 16:49:11:109
-6.3638,-6.7491,0.7349,-0.3173,-0.3419,0.089,0.0336,-0.0389,-0.0085,19,2019-08-07 16:49:11:114
-6.3638,-6.7491,0.7349,-0.3173,-0.3419,0.089,0.0315,-0.0336,-0.0064,24,2019-08-07 16:49:11:119
-6.3399,-6.7205,0.7867,-0.3824,-0.3761,0.0415,0.0315,-0.0336,-0.0064,29,2019-08-07 16:49:11:124
-6.3399,-6.7205,0.7867,-0.3824,-0.3761,0.0415,0.0315,-0.0336,-0.0064,34,2019-08-07 16:49:11:129
-6.3039,-6.6821,0.7533,-0.3824,-0.3761,0.0415,0.0219,-0.0048,0.0011,39,2019-08-07 16:49:11:134
-6.3039,-6.6821,0.7533,-0.3824,-0.3761,0.0415,0.0219,-0.0048,0.0011,44,2019-08-07 16:49:11:139
-6.3039,-6.6821,0.7533,-0.3847,-0.3856,0.0885,0.0134,0.0133,0.0011,50,2019-08-07 16:49:11:145
-6.3565,-6.6582,0.7438,-0.3847,-0.3856,0.0885,0.0134,0.0133,0.0011,54,2019-08-07 16:49:11:149
-6.3565,-6.6582,0.7438,-0.3847,-0.3856,0.0885,0.0048,0.0314,0.0053,59,2019-08-07 16:49:11:154
-6.3565,-6.6582,0.7438,-0.3847,-0.3856,0.0885,0.0048,0.0314,0.0053,63,2019-08-07 16:49:11:158
-6.4091,-6.6916,0.626,-0.3144,-0.4037,0.2022,0.0017,0.0601,0.0043,69,2019-08-07 16:49:11:164
-6.4091,-6.6916,0.626,-0.3144,-0.4037,0.2022,0.0017,0.0601,0.0043,73,2019-08-07 16:49:11:168
-6.5144,-6.725,0.7391,-0.3144,-0.4037,0.2022,6.0E-4,0.0644,0.0021,79,2019-08-07 16:49:11:174
-6.5144,-6.725,0.7391,-0.3144,-0.4037,0.2022,6.0E-4,0.0644,0.0021,84,2019-08-07 16:49:11:179
-6.5096,-6.6439,0.7155,-0.1494,-0.393,0.0845,0.0048,0.0569,0.0032,89,2019-08-07 16:49:11:184
-6.5096,-6.6439,0.7155,-0.1494,-0.393,0.0845,0.0048,0.0569,0.0032,94,2019-08-07 16:49:11:189
-6.5096,-6.6439,0.7155,-0.1494,-0.393,0.0845,0.008,0.0292,0.0053,99,2019-08-07 16:49:11:194
-6.4522,-6.6296,0.6873,-0.1494,-0.393,0.0845,0.008,0.0292,0.0053,104,2019-08-07 16:49:11:199
-6.4522,-6.6296,0.6873,-0.2998,-0.5109,0.1594,0.0091,0.0175,0.017,109,2019-08-07 16:49:11:204
-6.4522,-6.6296,0.6873,-0.2998,-0.5109,0.1594,0.0091,0.0175,0.017,114,2019-08-07 16:49:11:209
-6.3422,-6.6582,0.6448,-0.2998,-0.5109,0.1594,0.0166,0.0143,0.0288,119,2019-08-07 16:49:11:214
-6.3422,-6.6582,0.6448,-0.2998,-0.5109,0.1594,0.0166,0.0143,0.0288,124,2019-08-07 16:49:11:219
-6.2178,-6.7012,0.6448,-0.5141,-0.3881,0.1674,0.0304,0.0186,0.0415,129,2019-08-07 16:49:11:224
-6.2178,-6.7012,0.6448,-0.5141,-0.3881,0.1674,0.0304,0.0186,0.0415,134,2019-08-07 16:49:11:229
-6.2178,-6.7012,0.6448,-0.5141,-0.3881,0.1674,0.0304,0.0186,0.0415,138,2019-08-07 16:49:11:233
-6.213,-6.6296,0.5458,-0.5141,-0.3881,0.1674,0.0389,0.0356,0.065,144,2019-08-07 16:49:11:239
-6.213,-6.6296,0.5458,-0.5602,-0.4571,0.2614,0.0389,0.0356,0.065,149,2019-08-07 16:49:11:244
-6.28,-6.5818,0.6118,-0.5602,-0.4571,0.2614,0.04,0.0687,0.0724,153,2019-08-07 16:49:11:248
-6.28,-6.5818,0.6118,-0.5602,-0.4571,0.2614,0.04,0.0687,0.0724,159,2019-08-07 16:49:11:254
-6.28,-6.5818,0.6118,-0.5602,-0.4571,0.2614,0.0347,0.0889,0.082,164,2019-08-07 16:49:11:259
-6.3948,-6.5198,0.6071,-0.3574,-0.5509,0.1986,0.0347,0.0889,0.082,169,2019-08-07 16:49:11:264
-6.3948,-6.5198,0.6071,-0.3574,-0.5509,0.1986,0.0219,0.1134,0.0884,173,2019-08-07 16:49:11:268
-6.3948,-6.6057,0.494,-0.3574,-0.5509,0.1986,0.0219,0.1134,0.0884,179,2019-08-07 16:49:11:274
-6.4475,-6.6057,0.494,-0.3574,-0.5509,0.1986,0.0112,0.1454,0.0831,185,2019-08-07 16:49:11:280
-6.4475,-6.6057,0.494,-0.3055,-0.4045,0.3295,0.0112,0.1454,0.0831,189,2019-08-07 16:49:11:284
-6.5192,-6.6248,0.4563,-0.3055,-0.4045,0.3295,0.0112,0.1454,0.0831,194,2019-08-07 16:49:11:289
-6.5192,-6.6248,0.4563,-0.3055,-0.4045,0.3295,0.0091,0.1816,0.0799,199,2019-08-07 16:49:11:294
-6.5192,-6.6248,0.4563,-0.3055,-0.4045,0.3295,0.0091,0.1816,0.0799,203,2019-08-07 16:49:11:298
-6.5814,-6.6296,0.4469,-0.1768,-0.3693,0.3742,0.0187,0.2039,0.0724,209,2019-08-07 16:49:11:304
-6.5814,-6.6296,0.4469,-0.1768,-0.3693,0.3742,0.0187,0.2039,0.0724,213,2019-08-07 16:49:11:308
-6.6436,-6.6009,0.461,-0.1768,-0.3693,0.3742,0.0272,0.2125,0.065,219,2019-08-07 16:49:11:314
-6.6436,-6.6009,0.461,-0.1768,-0.3693,0.3742,0.0272,0.2125,0.065,224,2019-08-07 16:49:11:319
-6.6436,-6.6009,0.461,-0.0614,-0.5307,0.0791,0.0368,0.2018,0.0607,229,2019-08-07 16:49:11:324
-6.7919,-6.5198,0.659,-0.0614,-0.5307,0.0791,0.0368,0.2018,0.0607,233,2019-08-07 16:49:11:328
-6.7919,-6.5198,0.659,-0.0614,-0.5307,0.0791,0.0368,0.2018,0.0607,239,2019-08-07 16:49:11:334
-6.8015,-6.4195,0.7155,-0.0614,-0.5307,0.0791,0.0262,0.1496,0.065,244,2019-08-07 16:49:11:339
-6.8015,-6.4195,0.7155,-0.0129,-0.5288,-0.0193,0.0262,0.1496,0.065,249,2019-08-07 16:49:11:344
-6.8015,-6.4195,0.7155,-0.0129,-0.5288,-0.0193,0.0091,0.0878,0.0628,253,2019-08-07 16:49:11:348
-6.7058,-6.5723,0.7532,-0.0129,-0.5288,-0.0193,0.0091,0.0878,0.0628,259,2019-08-07 16:49:11:354
-6.7058,-6.5723,0.7532,-0.0129,-0.5288,-0.0193,-0.0037,0.0505,0.0597,264,2019-08-07 16:49:11:359
-6.481,-6.6582,0.7344,-0.3394,-0.3569,-0.023,-0.0037,0.0505,0.0597,269,2019-08-07 16:49:11:364
-6.481,-6.6582,0.7344,-0.3394,-0.3569,-0.023,-0.0143,0.0505,0.049,274,2019-08-07 16:49:11:369
-6.481,-6.6582,0.7344,-0.3394,-0.3569,-0.023,-0.0143,0.0505,0.049,279,2019-08-07 16:49:11:374
-6.3805,-6.7585,0.6684,-0.3394,-0.3569,-0.023,-0.0303,0.1038,0.0383,283,2019-08-07 16:49:11:378
-6.3805,-6.7585,0.6684,-0.4084,-0.1941,0.0299,-0.0303,0.1038,0.0383,289,2019-08-07 16:49:11:384
-6.4284,-6.8348,0.6873,-0.4084,-0.1941,0.0299,-0.0335,0.1645,0.0352,294,2019-08-07 16:49:11:389
-6.4284,-6.8348,0.6873,-0.4084,-0.1941,0.0299,-0.0335,0.1645,0.0352,299,2019-08-07 16:49:11:394
-6.4284,-6.8348,0.6873,-0.4084,-0.1941,0.0299,-0.0378,0.2189,0.032,304,2019-08-07 16:49:11:399
-6.4284,-6.8348,0.6873,-0.4084,-0.1941,0.0299,-0.0378,0.2189,0.032,309,2019-08-07 16:49:11:404
-6.591,-6.811,0.7108,-0.2426,-0.1955,-0.043,-0.0378,0.2189,0.032,315,2019-08-07 16:49:11:410
-6.591,-6.811,0.7108,-0.2426,-0.1955,-0.043,-0.0367,0.2476,0.0288,319,2019-08-07 16:49:11:414
-6.8207,-6.8014,0.9277,-0.2426,-0.1955,-0.043,-0.0367,0.2476,0.0288,323,2019-08-07 16:49:11:418
-6.8207,-6.8014,0.9277,0.0509,-0.2342,-0.339,-0.0303,0.2359,0.0309,329,2019-08-07 16:49:11:424
-6.8207,-6.8014,0.9277,0.0509,-0.2342,-0.339,-0.0303,0.2359,0.0309,334,2019-08-07 16:49:11:429
-6.969,-6.7728,1.0172,0.0509,-0.2342,-0.339,-0.026,0.1933,0.0352,339,2019-08-07 16:49:11:434
-6.969,-6.7728,1.0172,0.0509,-0.2342,-0.339,-0.026,0.1933,0.0352,344,2019-08-07 16:49:11:439
-7.0503,-6.8062,0.9418,0.2003,-0.19,-0.337,-0.0314,0.1123,0.0352,349,2019-08-07 16:49:11:444
-7.0503,-6.8062,0.9418,0.2003,-0.19,-0.337,-0.0314,0.1123,0.0352,354,2019-08-07 16:49:11:449
-7.0503,-6.8062,0.9418,0.2003,-0.19,-0.337,-0.0314,0.1123,0.0352,359,2019-08-07 16:49:11:454
-7.0216,-6.7155,0.9229,0.2003,-0.19,-0.337,-0.0292,0.0505,0.0309,364,2019-08-07 16:49:11:459
-7.0216,-6.7155,0.9229,0.0739,-0.2368,-0.2621,-0.0292,0.0505,0.0309,369,2019-08-07 16:49:11:464
-6.8638,-6.7346,0.7909,0.0739,-0.2368,-0.2621,-0.0271,0.0058,0.032,374,2019-08-07 16:49:11:469
-6.8638,-6.7346,0.7909,0.0739,-0.2368,-0.2621,-0.0271,0.0058,0.032,379,2019-08-07 16:49:11:474
-6.8638,-6.7346,0.7909,0.0739,-0.2368,-0.2621,-0.0229,-0.0048,0.0277,384,2019-08-07 16:49:11:479
-6.7633,-6.7919,0.7297,-0.1076,-0.1705,-0.1179,-0.0229,-0.0048,0.0277,389,2019-08-07 16:49:11:484
-6.7633,-6.7919,0.7297,-0.1076,-0.1705,-0.1179,-0.0207,0.0303,0.0234,395,2019-08-07 16:49:11:490
-6.7633,-6.7919,0.7297,-0.1076,-0.1705,-0.1179,-0.0207,0.0303,0.0234,398,2019-08-07 16:49:11:493
-6.7585,-6.7632,0.7202,-0.1076,-0.1705,-0.1179,-0.0207,0.0303,0.0234,404,2019-08-07 16:49:11:499
-6.7585,-6.7632,0.7202,-0.1076,-0.1705,-0.1179,-0.0047,0.0633,0.0213,408,2019-08-07 16:49:11:503
-6.8494,-6.7155,0.7579,-0.0447,-0.2529,-0.1298,-0.0047,0.0633,0.0213,414,2019-08-07 16:49:11:509
-6.8494,-6.7155,0.7579,-0.0447,-0.2529,-0.1298,0.0059,0.0708,0.0234,419,2019-08-07 16:49:11:514
-6.8494,-6.7155,0.7579,-0.0447,-0.2529,-0.1298,0.0059,0.0708,0.0234,424,2019-08-07 16:49:11:519
-6.8877,-6.6868,0.6825,-0.0447,-0.2529,-0.1298,0.0059,0.0623,0.0234,429,2019-08-07 16:49:11:524
-6.8877,-6.6868,0.6825,0.0314,-0.3152,-0.1186,0.0059,0.0623,0.0234,434,2019-08-07 16:49:11:529
-6.8877,-6.6868,0.6825,0.0314,-0.3152,-0.1186,0.007,0.0346,0.0213,438,2019-08-07 16:49:11:533
-6.9355,-6.62,0.6778,0.0314,-0.3152,-0.1186,0.007,0.0346,0.0213,444,2019-08-07 16:49:11:539
-6.9355,-6.62,0.6778,0.0314,-0.3152,-0.1186,0.0166,0.0037,0.0266,449,2019-08-07 16:49:11:544
-6.9355,-6.62,0.6778,0.0068,-0.3435,-0.1396,0.0166,0.0037,0.0266,453,2019-08-07 16:49:11:548
-6.8207,-6.6105,0.7061,0.0068,-0.3435,-0.1396,0.0198,-0.024,0.032,459,2019-08-07 16:49:11:554
-6.8207,-6.6105,0.7061,0.0068,-0.3435,-0.1396,0.0198,-0.024,0.032,464,2019-08-07 16:49:11:559
-6.7011,-6.6296,0.6212,0.0068,-0.3435,-0.1396,0.023,-0.0389,0.032,469,2019-08-07 16:49:11:564
-6.7011,-6.6296,0.6212,-0.1754,-0.3282,-0.0102,0.023,-0.0389,0.032,474,2019-08-07 16:49:11:569
-6.7011,-6.6296,0.6212,-0.1754,-0.3282,-0.0102,0.0208,-0.0421,0.0266,479,2019-08-07 16:49:11:574
-6.6963,-6.6057,0.593,-0.1754,-0.3282,-0.0102,0.0208,-0.0421,0.0266,484,2019-08-07 16:49:11:579
-6.6963,-6.6057,0.593,-0.1754,-0.3282,-0.0102,0.0198,-0.0379,0.0256,489,2019-08-07 16:49:11:584
-6.6485,-6.62,0.5882,-0.2272,-0.3379,0.0176,0.0198,-0.0379,0.0256,495,2019-08-07 16:49:11:590
-6.6485,-6.62,0.5882,-0.2272,-0.3379,0.0176,0.0198,-0.0379,0.0256,499,2019-08-07 16:49:11:594
-6.6485,-6.62,0.5882,-0.2272,-0.3379,0.0176,0.0166,-0.0155,0.0224,503,2019-08-07 16:49:11:598
-6.6294,-6.6057,0.5364,-0.2272,-0.3379,0.0176,0.0166,-0.0155,0.0224,509,2019-08-07 16:49:11:604
-6.6294,-6.6057,0.5364,-0.2304,-0.3534,0.065,0.0144,-6.0E-4,0.0117,513,2019-08-07 16:49:11:608
-6.6581,-6.6105,0.494,-0.2304,-0.3534,0.065,0.0144,-6.0E-4,0.0117,519,2019-08-07 16:49:11:614
-6.6581,-6.6105,0.494,-0.2304,-0.3534,0.065,0.0112,0.0133,0.0106,523,2019-08-07 16:49:11:618
-6.6581,-6.6105,0.494,-0.2304,-0.3534,0.065,0.0112,0.0133,0.0106,529,2019-08-07 16:49:11:624
-6.6102,-6.5961,0.6448,-0.2806,-0.3606,-0.0483,0.0102,0.0133,0.0106,534,2019-08-07 16:49:11:629
-6.6102,-6.5961,0.6448,-0.2806,-0.3606,-0.0483,0.0102,0.0133,0.0106,539,2019-08-07 16:49:11:634
-6.6102,-6.5961,0.6448,-0.2806,-0.3606,-0.0483,0.0155,0.009,0.0128,544,2019-08-07 16:49:11:639
-6.615,-6.5007,0.5741,-0.2806,-0.3606,-0.0483,0.0155,0.009,0.0128,548,2019-08-07 16:49:11:643
-6.615,-6.5007,0.5741,-0.2545,-0.4774,-0.0145,0.0091,0.0015,0.0202,554,2019-08-07 16:49:11:649
-6.6629,-6.5627,0.626,-0.2545,-0.4774,-0.0145,0.0091,0.0015,0.0202,558,2019-08-07 16:49:11:653
-6.6629,-6.5627,0.626,-0.2545,-0.4774,-0.0145,0.0091,0.0015,0.0202,564,2019-08-07 16:49:11:659
-6.6629,-6.5627,0.626,-0.2545,-0.4774,-0.0145,-0.0047,-0.0166,0.0266,568,2019-08-07 16:49:11:663
-6.6629,-6.6343,0.5788,-0.2583,-0.3206,0.0156,-0.0047,-0.0166,0.0266,574,2019-08-07 16:49:11:669
-6.6629,-6.6343,0.5788,-0.2583,-0.3206,0.0156,-0.0111,-0.0485,0.0288,579,2019-08-07 16:49:11:674
-6.5289,-6.6677,0.5788,-0.2583,-0.3206,0.0156,-0.0111,-0.0485,0.0288,584,2019-08-07 16:49:11:679
-6.5289,-6.6677,0.5788,-0.2583,-0.3206,0.0156,-0.0111,-0.0613,0.0352,589,2019-08-07 16:49:11:684
-6.5289,-6.6677,0.5788,-0.4294,-0.2687,0.0689,-0.0111,-0.0613,0.0352,594,2019-08-07 16:49:11:689
-6.438,-6.7107,0.5222,-0.4294,-0.2687,0.0689,-0.0133,-0.04,0.0362,599,2019-08-07 16:49:11:694
-6.438,-6.7107,0.5222,-0.4294,-0.2687,0.0689,-0.0133,-0.04,0.0362,603,2019-08-07 16:49:11:698
-6.3424,-6.7489,0.4704,-0.4294,-0.2687,0.0689,-0.0218,-6.0E-4,0.0309,609,2019-08-07 16:49:11:704
-6.3424,-6.7489,0.4704,-0.5331,-0.2082,0.1302,-0.0218,-6.0E-4,0.0309,614,2019-08-07 16:49:11:709
-6.3424,-6.7489,0.4704,-0.5331,-0.2082,0.1302,-0.0229,0.0495,0.0277,619,2019-08-07 16:49:11:714
-6.3663,-6.7871,0.4798,-0.5331,-0.2082,0.1302,-0.0229,0.0495,0.0277,624,2019-08-07 16:49:11:719
-6.3663,-6.7871,0.4798,-0.5331,-0.2082,0.1302,-0.0133,0.0857,0.0245,628,2019-08-07 16:49:11:723
-6.5146,-6.8205,0.4892,-0.3929,-0.12,0.1037,-0.0133,0.0857,0.0245,634,2019-08-07 16:49:11:729
-6.5146,-6.8205,0.4892,-0.3929,-0.12,0.1037,-0.0047,0.1006,0.0234,638,2019-08-07 16:49:11:733
-6.5146,-6.8205,0.4892,-0.3929,-0.12,0.1037,-0.0047,0.1006,0.0234,645,2019-08-07 16:49:11:740
-6.6533,-6.6964,0.494,-0.3929,-0.12,0.1037,-0.0015,0.0974,0.0309,648,2019-08-07 16:49:11:743
-6.6533,-6.6964,0.494,-0.2445,-0.2312,0.0085,-0.0015,0.0974,0.0309,654,2019-08-07 16:49:11:749
-6.7347,-6.6964,0.6165,-0.2445,-0.2312,0.0085,-0.0015,0.0974,0.0309,658,2019-08-07 16:49:11:753
-6.7347,-6.6964,0.6165,-0.2445,-0.2312,0.0085,0.0059,0.0708,0.032,664,2019-08-07 16:49:11:759
-6.7347,-6.6964,0.6165,-0.2445,-0.2312,0.0085,0.0059,0.0708,0.032,669,2019-08-07 16:49:11:764
-6.7299,-6.6821,0.6024,-0.1882,-0.2592,0.0166,0.0059,0.0186,0.0447,674,2019-08-07 16:49:11:769
-6.7299,-6.6821,0.6024,-0.1882,-0.2592,0.0166,0.0059,0.0186,0.0447,679,2019-08-07 16:49:11:774
-6.7299,-6.6821,0.6024,-0.1882,-0.2592,0.0166,0.0038,-0.0134,0.0511,683,2019-08-07 16:49:11:778
-6.6294,-6.6725,0.5929,-0.2921,-0.2557,-0.0206,0.0038,-0.0134,0.0511,689,2019-08-07 16:49:11:784
-6.6294,-6.6725,0.5929,-0.2921,-0.2557,-0.0206,0.0017,-0.0336,0.0575,693,2019-08-07 16:49:11:788
-6.6103,-6.768,0.5599,-0.2921,-0.2557,-0.0206,0.0017,-0.0336,0.0575,699,2019-08-07 16:49:11:794
-6.6103,-6.768,0.5599,-0.3519,-0.1671,0.0922,0.0038,-0.0272,0.0597,704,2019-08-07 16:49:11:799
-6.6103,-6.768,0.5599,-0.3519,-0.1671,0.0922,0.0038,-0.0272,0.0597,709,2019-08-07 16:49:11:804
-6.5338,-6.8014,0.5128,-0.3519,-0.1671,0.0922,0.0059,-0.0017,0.0597,714,2019-08-07 16:49:11:809
-6.5338,-6.8014,0.5128,-0.3519,-0.1671,0.0922,0.0059,-0.0017,0.0597,719,2019-08-07 16:49:11:814
-6.5338,-6.8014,0.5128,-0.3519,-0.1671,0.0922,0.0059,-0.0017,0.0597,723,2019-08-07 16:49:11:818
-6.5481,-6.7823,0.494,-0.3878,-0.1312,0.083,0.0176,0.0367,0.049,729,2019-08-07 16:49:11:824
-6.5481,-6.7823,0.494,-0.3878,-0.1312,0.083,0.0176,0.0367,0.049,734,2019-08-07 16:49:11:829
-6.6917,-6.7155,0.4892,-0.3878,-0.1312,0.083,0.024,0.0601,0.0405,739,2019-08-07 16:49:11:834
-6.6917,-6.7155,0.4892,-0.3878,-0.1312,0.083,0.024,0.0601,0.0405,744,2019-08-07 16:49:11:839
-6.7778,-6.6677,0.5647,-0.2171,-0.2208,0.0308,0.024,0.0772,0.0373,749,2019-08-07 16:49:11:844
-6.7778,-6.6677,0.5647,-0.2171,-0.2208,0.0308,0.024,0.0772,0.0373,753,2019-08-07 16:49:11:848
-6.7778,-6.6677,0.5647,-0.2171,-0.2208,0.0308,0.0176,0.0687,0.0256,759,2019-08-07 16:49:11:854
-6.8878,-6.5388,0.6825,-0.2171,-0.2208,0.0308,0.0176,0.0687,0.0256,764,2019-08-07 16:49:11:859
-6.8878,-6.5388,0.6825,-0.0554,-0.3205,-0.1267,0.0166,0.0378,0.0266,768,2019-08-07 16:49:11:863
-6.8878,-6.5388,0.6825,-0.0554,-0.3205,-0.1267,0.0166,0.0378,0.0266,774,2019-08-07 16:49:11:869
-6.8448,-6.5341,0.7674,-0.0554,-0.3205,-0.1267,0.0123,-0.0048,0.0266,779,2019-08-07 16:49:11:874
-6.8448,-6.5341,0.7674,-0.0554,-0.3205,-0.1267,0.0123,-0.0048,0.0266,783,2019-08-07 16:49:11:878
-6.8448,-6.5341,0.7674,-0.1945,-0.5348,-0.1768,0.0123,-0.0048,0.0266,789,2019-08-07 16:49:11:884
-6.6821,-6.3861,0.7768,-0.1945,-0.5348,-0.1768,-5.0E-4,-0.0464,0.033,794,2019-08-07 16:49:11:889
-6.6821,-6.3861,0.7768,-0.1945,-0.5348,-0.1768,-5.0E-4,-0.0464,0.033,799,2019-08-07 16:49:11:894
-6.596,-6.2811,0.7108,-0.1945,-0.5348,-0.1768,-0.0079,-0.0528,0.049,804,2019-08-07 16:49:11:899
-6.596,-6.2811,0.7108,-0.3776,-0.6425,-0.0699,-0.0079,-0.0528,0.049,808,2019-08-07 16:49:11:903
-6.596,-6.2811,0.7108,-0.3776,-0.6425,-0.0699,-0.0207,-0.0464,0.0618,814,2019-08-07 16:49:11:909
-6.5242,-6.2381,0.6636,-0.3776,-0.6425,-0.0699,-0.0207,-0.0464,0.0618,818,2019-08-07 16:49:11:913
-6.5242,-6.2381,0.6636,-0.3776,-0.6425,-0.0699,-0.0346,-0.024,0.082,824,2019-08-07 16:49:11:919
-6.6247,-6.2047,0.6919,-0.3542,-0.6941,-0.1088,-0.0346,-0.024,0.082,829,2019-08-07 16:49:11:924
-6.6247,-6.2047,0.6919,-0.3542,-0.6941,-0.1088,-0.0442,-0.0102,0.098,834,2019-08-07 16:49:11:929
-6.6247,-6.2047,0.6919,-0.3542,-0.6941,-0.1088,-0.0442,-0.0102,0.098,839,2019-08-07 16:49:11:934
-6.7156,-6.1951,0.7956,-0.3542,-0.6941,-0.1088,-0.0516,0.0047,0.1097,844,2019-08-07 16:49:11:939
-6.7156,-6.1951,0.7956,-0.2403,-0.6741,-0.3333,-0.0516,0.0047,0.1097,848,2019-08-07 16:49:11:943
-6.84,-6.1951,1.0077,-0.2403,-0.6741,-0.3333,-0.0601,0.0175,0.1204,854,2019-08-07 16:49:11:949
-6.84,-6.1951,1.0077,-0.2403,-0.6741,-0.3333,-0.0601,0.0175,0.1204,859,2019-08-07 16:49:11:954
-6.84,-6.1951,1.0077,-0.2403,-0.6741,-0.3333,-0.0601,0.0175,0.1204,864,2019-08-07 16:49:11:959
-7.1606,-6.2142,1.1303,0.1566,-0.6311,-0.5623,-0.0676,0.0292,0.1268,869,2019-08-07 16:49:11:964
-7.1606,-6.2142,1.1303,0.1566,-0.6311,-0.5623,-0.075,0.0069,0.1321,874,2019-08-07 16:49:11:969
-7.1606,-6.2142,1.1303,0.1566,-0.6311,-0.5623,-0.075,0.0069,0.1321,879,2019-08-07 16:49:11:974
-7.3806,-6.0949,1.3236,0.1566,-0.6311,-0.5623,-0.075,0.0069,0.1321,884,2019-08-07 16:49:11:979
-7.3806,-6.0949,1.3236,0.4216,-0.8571,-0.7836,-0.0953,-0.0602,0.1321,888,2019-08-07 16:49:11:983
-7.438,-5.9135,1.366,0.4216,-0.8571,-0.7836,-0.0953,-0.0602,0.1321,894,2019-08-07 16:49:11:989
-7.438,-5.9135,1.366,0.4216,-0.8571,-0.7836,-0.1209,-0.1231,0.1278,899,2019-08-07 16:49:11:994
-7.438,-5.9135,1.366,0.4216,-0.8571,-0.7836,-0.1209,-0.1231,0.1278,903,2019-08-07 16:49:11:998
-7.4046,-5.7989,1.3519,0.3569,-1.0012,-0.7815,-0.1517,-0.1774,0.1268,909,2019-08-07 16:49:12:004
-7.4046,-5.7989,1.3519,0.3569,-1.0012,-0.7815,-0.1517,-0.1774,0.1268,914,2019-08-07 16:49:12:009
-7.4046,-5.7989,1.3519,0.3569,-1.0012,-0.7815,-0.1741,-0.2115,0.1236,919,2019-08-07 16:49:12:014
-7.3711,-5.7082,1.498,0.3569,-1.0012,-0.7815,-0.1741,-0.2115,0.1236,924,2019-08-07 16:49:12:019
-7.3711,-5.7082,1.498,0.3124,-1.2412,-0.9373,-0.188,-0.236,0.131,929,2019-08-07 16:49:12:024
-7.3472,-5.5554,1.5404,0.3124,-1.2412,-0.9373,-0.188,-0.236,0.131,933,2019-08-07 16:49:12:028
-7.3472,-5.5554,1.5404,0.3124,-1.2412,-0.9373,-0.2029,-0.2573,0.1449,939,2019-08-07 16:49:12:034
-7.4094,-5.4027,1.5687,0.3124,-1.2412,-0.9373,-0.2029,-0.2573,0.1449,944,2019-08-07 16:49:12:039
-7.4094,-5.4027,1.5687,0.2988,-1.3395,-0.9009,-0.2189,-0.2925,0.1715,949,2019-08-07 16:49:12:044
-7.4094,-5.4027,1.5687,0.2988,-1.3395,-0.9009,-0.2189,-0.2925,0.1715,954,2019-08-07 16:49:12:049
-7.3424,-5.6127,1.2811,0.2988,-1.3395,-0.9009,-0.2625,-0.3298,0.1949,958,2019-08-07 16:49:12:053
-7.3424,-5.6127,1.2811,0.2988,-1.3395,-0.9009,-0.2625,-0.3298,0.1949,964,2019-08-07 16:49:12:059
-7.1558,-6.1951,0.9417,0.0384,-0.5277,-0.3238,-0.3264,-0.3287,0.196,969,2019-08-07 16:49:12:064
-7.1558,-6.1951,0.9417,0.0384,-0.5277,-0.3238,-0.3264,-0.3287,0.196,974,2019-08-07 16:49:12:069
-7.1558,-6.1951,0.9417,0.0384,-0.5277,-0.3238,-0.3659,-0.301,0.1885,979,2019-08-07 16:49:12:074
-7.0601,-6.5484,0.8333,0.0384,-0.5277,-0.3238,-0.3659,-0.301,0.1885,983,2019-08-07 16:49:12:078
-7.0601,-6.5484,0.8333,-0.051,-0.0698,-0.0909,-0.368,-0.2669,0.179,989,2019-08-07 16:49:12:084
-7.0936,-6.6677,0.6448,-0.051,-0.0698,-0.0909,-0.368,-0.2669,0.179,994,2019-08-07 16:49:12:089
-7.0936,-6.6677,0.6448,-0.051,-0.0698,-0.0909,-0.368,-0.2509,0.163,999,2019-08-07 16:49:12:094
-7.0936,-6.6677,0.6448,-0.051,-0.0698,-0.0909,-0.368,-0.2509,0.163,1003,2019-08-07 16:49:12:098
-7.151,-6.6104,0.5599,-0.051,-0.0698,-0.0909,-0.368,-0.2509,0.163,1009,2019-08-07 16:49:12:104
-7.151,-6.6104,0.5599,0.035,-0.0838,0.0847,-0.3797,-0.2648,0.1395,1014,2019-08-07 16:49:12:109
-7.1319,-6.5245,0.4138,0.035,-0.0838,0.0847,-0.3797,-0.2648,0.1395,1018,2019-08-07 16:49:12:113
-7.1319,-6.5245,0.4138,0.035,-0.0838,0.0847,-0.4042,-0.3266,0.1097,1024,2019-08-07 16:49:12:119
-7.1319,-6.5245,0.4138,-0.1023,-0.0708,0.4322,-0.4042,-0.3266,0.1097,1029,2019-08-07 16:49:12:124
-6.9884,-6.6248,0.1263,-0.1023,-0.0708,0.4322,-0.4106,-0.3841,0.0948,1034,2019-08-07 16:49:12:129
-6.9884,-6.6248,0.1263,-0.1023,-0.0708,0.4322,-0.4106,-0.3841,0.0948,1039,2019-08-07 16:49:12:134
-6.7109,-6.7728,-0.1471,-0.1023,-0.0708,0.4322,-0.4031,-0.432,0.082,1044,2019-08-07 16:49:12:139
-6.7109,-6.7728,-0.1471,-0.6098,0.2259,0.9315,-0.4031,-0.432,0.082,1049,2019-08-07 16:49:12:144
-6.7109,-6.7728,-0.1471,-0.6098,0.2259,0.9315,-0.384,-0.4267,0.0756,1054,2019-08-07 16:49:12:149
-6.7109,-6.7728,-0.1471,-0.6098,0.2259,0.9315,-0.384,-0.4267,0.0756,1059,2019-08-07 16:49:12:154
-6.2277,-6.9494,-0.6562,-0.6098,0.2259,0.9315,-0.3446,-0.3553,0.065,1063,2019-08-07 16:49:12:158
-6.2277,-6.9494,-0.6562,-0.6098,0.2259,0.9315,-0.3446,-0.3553,0.065,1069,2019-08-07 16:49:12:164
-6.0746,-7.0783,-0.7317,-1.0648,0.3789,1.3338,-0.2849,-0.2381,0.0618,1073,2019-08-07 16:49:12:168
-6.0746,-7.0783,-0.7317,-1.0648,0.3789,1.3338,-0.2849,-0.2381,0.0618,1079,2019-08-07 16:49:12:174
-6.0746,-7.0783,-0.7317,-1.0648,0.3789,1.3338,-0.221,-0.1167,0.0586,1084,2019-08-07 16:49:12:179
-6.2133,-7.0592,-0.5478,-0.9555,0.3637,1.0462,-0.221,-0.1167,0.0586,1089,2019-08-07 16:49:12:184
-6.2133,-7.0592,-0.5478,-0.9555,0.3637,1.0462,-0.221,-0.1167,0.0586,1094,2019-08-07 16:49:12:189
-6.2133,-7.0592,-0.5478,-0.9555,0.3637,1.0462,-0.1613,-0.0443,0.0639,1098,2019-08-07 16:49:12:193
-6.3856,-6.9446,-0.3734,-0.7947,0.2836,0.9311,-0.1613,-0.0443,0.0639,1104,2019-08-07 16:49:12:199
-6.3856,-6.9446,-0.3734,-0.7947,0.2836,0.9311,-0.0953,-0.0315,0.0692,1109,2019-08-07 16:49:12:204
-6.5817,-6.8682,-0.1849,-0.7947,0.2836,0.9311,-0.0953,-0.0315,0.0692,1113,2019-08-07 16:49:12:208
-6.5817,-6.8682,-0.1849,-0.7947,0.2836,0.9311,-0.0612,-0.0783,0.0767,1119,2019-08-07 16:49:12:214
-6.5817,-6.8682,-0.1849,-0.5759,0.1892,0.6386,-0.0612,-0.0783,0.0767,1123,2019-08-07 16:49:12:218
-6.6009,-6.7823,-0.0293,-0.5759,0.1892,0.6386,-0.0378,-0.1369,0.082,1129,2019-08-07 16:49:12:224
-6.6009,-6.7823,-0.0293,-0.5759,0.1892,0.6386,-0.0378,-0.1369,0.082,1134,2019-08-07 16:49:12:229
-6.6009,-6.7823,-0.0293,-0.5759,0.1892,0.6386,-0.0197,-0.1859,0.0873,1138,2019-08-07 16:49:12:233
-6.4861,-6.8014,-0.2037,-0.7071,0.1545,0.7643,-0.0197,-0.1859,0.0873,1144,2019-08-07 16:49:12:239
-6.4861,-6.8014,-0.2037,-0.7071,0.1545,0.7643,-0.0101,-0.1849,0.0916,1149,2019-08-07 16:49:12:244
-6.2708,-6.8921,-0.2084,-0.7071,0.1545,0.7643,-0.0101,-0.1849,0.0916,1154,2019-08-07 16:49:12:249
-6.2708,-6.8921,-0.2084,-0.7071,0.1545,0.7643,-0.0101,-0.1849,0.0916,1158,2019-08-07 16:49:12:253
-6.2708,-6.8921,-0.2084,-1.0287,0.3438,0.8243,0.0059,-0.1274,0.0895,1164,2019-08-07 16:49:12:259
-6.1751,-6.9971,-0.2131,-1.0287,0.3438,0.8243,0.0059,-0.1274,0.0895,1168,2019-08-07 16:49:12:263
-6.1751,-6.9971,-0.2131,-1.0287,0.3438,0.8243,0.0379,0.0133,0.0831,1174,2019-08-07 16:49:12:269
-6.2851,-6.9446,-0.1094,-1.0287,0.3438,0.8243,0.0379,0.0133,0.0831,1178,2019-08-07 16:49:12:273
-6.2851,-6.9446,-0.1094,-0.8485,0.3506,0.6253,0.0624,0.1251,0.0831,1183,2019-08-07 16:49:12:278
-6.2851,-6.9446,-0.1094,-0.8485,0.3506,0.6253,0.0624,0.1251,0.0831,1189,2019-08-07 16:49:12:284
-6.5387,-6.9255,0.2111,-0.8485,0.3506,0.6253,0.0954,0.2146,0.0873,1194,2019-08-07 16:49:12:289
-6.5387,-6.9255,0.2111,-0.8485,0.3506,0.6253,0.0954,0.2146,0.0873,1199,2019-08-07 16:49:12:294
-7.0028,-6.8348,0.6306,-0.3617,0.2271,0.0217,0.1295,0.254,0.0969,1204,2019-08-07 16:49:12:299
-7.0028,-6.8348,0.6306,-0.3617,0.2271,0.0217,0.1295,0.254,0.0969,1209,2019-08-07 16:49:12:304
-7.0028,-6.8348,0.6306,-0.3617,0.2271,0.0217,0.1519,0.2508,0.1065,1214,2019-08-07 16:49:12:309
-7.4334,-6.7823,1.1209,-0.3617,0.2271,0.0217,0.1519,0.2508,0.1065,1218,2019-08-07 16:49:12:313
-7.4334,-6.7823,1.1209,0.3774,0.1682,-0.8466,0.1838,0.1549,0.13,1224,2019-08-07 16:49:12:319
-7.4334,-6.7823,1.1209,0.3774,0.1682,-0.8466,0.1838,0.1549,0.13,1229,2019-08-07 16:49:12:324
-7.9118,-6.9255,1.8326,0.3774,0.1682,-0.8466,0.22,0.025,0.1513,1234,2019-08-07 16:49:12:329
-7.9118,-6.9255,1.8326,0.3774,0.1682,-0.8466,0.22,0.025,0.1513,1239,2019-08-07 16:49:12:334
-7.9118,-6.9255,1.8326,1.2792,0.462,-1.9729,0.22,0.025,0.1513,1244,2019-08-07 16:49:12:339
-8.6342,-7.0544,2.6764,1.2792,0.462,-1.9729,0.269,-0.1668,0.1651,1249,2019-08-07 16:49:12:344
-8.6342,-7.0544,2.6764,1.5553,0.5302,-2.1653,0.269,-0.1668,0.1651,1254,2019-08-07 16:49:12:349
-8.6342,-7.0544,2.6764,1.5553,0.5302,-2.1653,0.2861,-0.3404,0.131,1259,2019-08-07 16:49:12:354
-8.9739,-7.0353,2.6481,1.5553,0.5302,-2.1653,0.2861,-0.3404,0.131,1264,2019-08-07 16:49:12:359
-8.9739,-7.0353,2.6481,1.5553,0.5302,-2.1653,0.2626,-0.4022,0.0703,1269,2019-08-07 16:49:12:364
-9.1701,-6.83,2.5821,1.8918,0.2923,-1.8607,0.2626,-0.4022,0.0703,1273,2019-08-07 16:49:12:368
-9.1701,-6.83,2.5821,1.8918,0.2923,-1.8607,0.2456,-0.3766,0.0266,1279,2019-08-07 16:49:12:374
-9.3758,-6.7107,3.1714,1.8918,0.2923,-1.8607,0.2456,-0.3766,0.0266,1284,2019-08-07 16:49:12:379
-9.3758,-6.7107,3.1714,1.8918,0.2923,-1.8607,0.2839,-0.2626,-0.0384,1289,2019-08-07 16:49:12:384
-9.3758,-6.7107,3.1714,2.4002,0.2497,-2.8011,0.2839,-0.2626,-0.0384,1294,2019-08-07 16:49:12:389
-9.9978,-6.8539,4.1518,2.4002,0.2497,-2.8011,0.3628,-0.1561,-0.0607,1298,2019-08-07 16:49:12:393
-9.9978,-6.8539,4.1518,2.4002,0.2497,-2.8011,0.3628,-0.1561,-0.0607,1304,2019-08-07 16:49:12:399
-9.9978,-6.8539,4.1518,2.4002,0.2497,-2.8011,0.3628,-0.1561,-0.0607,1309,2019-08-07 16:49:12:404
-11.3326,-7.0067,6.2825,4.3369,0.4547,-5.7635,0.5492,-0.171,-0.0384,1314,2019-08-07 16:49:12:409
-11.3326,-7.0067,6.2825,4.3369,0.4547,-5.7635,0.5492,-0.171,-0.0384,1319,2019-08-07 16:49:12:414
-12.787,-6.7584,7.7485,4.3369,0.4547,-5.7635,0.7228,-0.416,0.0298,1323,2019-08-07 16:49:12:418
-12.787,-6.7584,7.7485,4.3369,0.4547,-5.7635,0.7228,-0.416,0.0298,1329,2019-08-07 16:49:12:424
-12.787,-6.7584,7.7485,6.1608,-0.3644,-7.0348,0.8038,-0.9007,0.0969,1334,2019-08-07 16:49:12:429
-13.5094,-6.0233,8.168,6.1608,-0.3644,-7.0348,0.8038,-0.9007,0.0969,1339,2019-08-07 16:49:12:434
-13.5094,-6.0233,8.168,6.1608,-0.3644,-7.0348,0.8038,-0.9007,0.0969,1343,2019-08-07 16:49:12:438
-13.6434,-5.0446,7.6542,6.1608,-0.3644,-7.0348,0.7367,-1.7018,0.131,1349,2019-08-07 16:49:12:444
-13.6434,-5.0446,7.6542,6.169,-1.6139,-5.8514,0.7367,-1.7018,0.131,1354,2019-08-07 16:49:12:449
-13.6434,-5.0446,7.6542,6.169,-1.6139,-5.8514,0.6014,-2.4422,0.1491,1359,2019-08-07 16:49:12:454
-12.8635,-4.6245,7.032,6.169,-1.6139,-5.8514,0.6014,-2.4422,0.1491,1364,2019-08-07 16:49:12:459
-12.8635,-4.6245,7.032,6.169,-1.6139,-5.8514,0.5162,-2.9109,0.1736,1369,2019-08-07 16:49:12:464
-11.7919,-4.4527,6.7114,4.5876,-1.907,-4.7395,0.5162,-2.9109,0.1736,1373,2019-08-07 16:49:12:468
-11.7919,-4.4527,6.7114,4.5876,-1.907,-4.7395,0.5162,-2.9109,0.1736,1379,2019-08-07 16:49:12:474
-11.7919,-4.4527,6.7114,4.5876,-1.907,-4.7395,0.5077,-3.0131,0.2397,1384,2019-08-07 16:49:12:479
-11.8923,-4.3094,8.5734,4.5876,-1.907,-4.7395,0.5077,-3.0131,0.2397,1389,2019-08-07 16:49:12:484
-11.8923,-4.3094,8.5734,5.7163,-2.2666,-8.1659,0.5875,-2.9226,0.3664,1393,2019-08-07 16:49:12:488
-13.3324,-3.8607,11.2697,5.7163,-2.2666,-8.1659,0.5875,-2.9226,0.3664,1399,2019-08-07 16:49:12:494
-13.3324,-3.8607,11.2697,5.7163,-2.2666,-8.1659,0.6429,-3.0696,0.6264,1404,2019-08-07 16:49:12:499
-13.3324,-3.8607,11.2697,5.7163,-2.2666,-8.1659,0.6429,-3.0696,0.6264,1409,2019-08-07 16:49:12:504
-17.045,-1.8748,15.0171,5.7163,-2.2666,-8.1659,0.4246,-3.6757,0.8341,1414,2019-08-07 16:49:12:509
-17.045,-1.8748,15.0171,10.621,-4.7095,-12.5327,0.4246,-3.6757,0.8341,1418,2019-08-07 16:49:12:513
-19.3414,0.388,16.2899,10.621,-4.7095,-12.5327,0.0091,-4.6345,0.9864,1424,2019-08-07 16:49:12:519
-19.3414,0.388,16.2899,10.621,-4.7095,-12.5327,0.0091,-4.6345,0.9864,1429,2019-08-07 16:49:12:524
-19.3414,0.388,16.2899,10.621,-4.7095,-12.5327,0.0091,-4.6345,0.9864,1434,2019-08-07 16:49:12:529
-19.0879,1.6865,14.3242,12.5093,-7.5357,-11.1899,-0.4628,-5.6262,1.0823,1438,2019-08-07 16:49:12:533
-19.0879,1.6865,14.3242,12.5093,-7.5357,-11.1899,-0.4628,-5.6262,1.0823,1444,2019-08-07 16:49:12:539
-16.801,1.3332,11.2084,12.5093,-7.5357,-11.1899,-0.8804,-6.34,1.1633,1449,2019-08-07 16:49:12:544
-16.801,1.3332,11.2084,12.5093,-7.5357,-11.1899,-0.8804,-6.34,1.1633,1454,2019-08-07 16:49:12:549
-16.801,1.3332,11.2084,9.2231,-6.6286,-5.8802,-1.1787,-6.536,1.2634,1459,2019-08-07 16:49:12:554
-14.2414,-0.0417,8.8515,9.2231,-6.6286,-5.8802,-1.1787,-6.536,1.2634,1464,2019-08-07 16:49:12:559
-14.2414,-0.0417,8.8515,9.2231,-6.6286,-5.8802,-1.4535,-6.2228,1.4679,1469,2019-08-07 16:49:12:564
-14.2414,-0.0417,8.8515,9.2231,-6.6286,-5.8802,-1.4535,-6.2228,1.4679,1473,2019-08-07 16:49:12:568
-12.72,-0.963,7.7626,6.6508,-4.7771,-2.6195,-1.6016,-5.7892,1.6213,1479,2019-08-07 16:49:12:574
-12.72,-0.963,7.7626,6.6508,-4.7771,-2.6195,-1.6016,-5.7892,1.6213,1484,2019-08-07 16:49:12:579
-12.72,-0.963,7.7626,6.6508,-4.7771,-2.6195,-1.8008,-4.9583,1.9164,1489,2019-08-07 16:49:12:584
-13.7678,-1.1253,7.9794,6.6508,-4.7771,-2.6195,-1.8008,-4.9583,1.9164,1494,2019-08-07 16:49:12:589
-13.7678,-1.1253,7.9794,8.9679,-4.8357,-2.6279,-1.9755,-4.4342,2.1944,1499,2019-08-07 16:49:12:594
-16.4805,-0.1228,8.6158,8.9679,-4.8357,-2.6279,-1.9755,-4.4342,2.1944,1504,2019-08-07 16:49:12:599
-16.4805,-0.1228,8.6158,8.9679,-4.8357,-2.6279,-2.2397,-4.3479,2.4352,1508,2019-08-07 16:49:12:603
-16.4805,-0.1228,8.6158,8.9679,-4.8357,-2.6279,-2.2397,-4.3479,2.4352,1514,2019-08-07 16:49:12:609
-19.5711,1.5242,9.4077,14.0338,-7.1486,-3.5819,-2.2397,-4.3479,2.4352,1518,2019-08-07 16:49:12:613
-19.5711,1.5242,9.4077,14.0338,-7.1486,-3.5819,-2.7755,-4.9605,2.6962,1524,2019-08-07 16:49:12:619
-21.5757,2.7892,10.0064,16.1573,-8.4078,-4.0643,-2.7755,-4.9605,2.6962,1528,2019-08-07 16:49:12:623
-21.5757,2.7892,10.0064,16.1573,-8.4078,-4.0643,-3.1792,-5.6603,2.84,1534,2019-08-07 16:49:12:629
-21.5757,2.7892,10.0064,16.1573,-8.4078,-4.0643,-3.1792,-5.6603,2.84,1538,2019-08-07 16:49:12:633
-22.9009,3.7679,7.9181,16.1573,-8.4078,-4.0643,-3.9942,-6.8204,3.0062,1544,2019-08-07 16:49:12:639
-22.9009,3.7679,7.9181,17.7871,-9.4105,-0.7009,-3.9942,-6.8204,3.0062,1549,2019-08-07 16:49:12:644
-22.1833,3.2953,4.9862,17.7871,-9.4105,-0.7009,-4.6376,-7.8356,3.1766,1554,2019-08-07 16:49:12:649
-22.1833,3.2953,4.9862,17.7871,-9.4105,-0.7009,-4.6376,-7.8356,3.1766,1559,2019-08-07 16:49:12:654
-22.1833,3.2953,4.9862,17.7871,-9.4105,-0.7009,-5.2011,-8.642,3.4014,1564,2019-08-07 16:49:12:659
-19.6859,1.9013,1.4885,15.2473,-7.8821,4.8962,-5.2011,-8.642,3.4014,1568,2019-08-07 16:49:12:663
-19.6859,1.9013,1.4885,15.2473,-7.8821,4.8962,-5.6837,-9.1437,3.6826,1574,2019-08-07 16:49:12:669
-19.6859,1.9013,1.4885,15.2473,-7.8821,4.8962,-5.6837,-9.1437,3.6826,1578,2019-08-07 16:49:12:673
-17.7531,1.2091,-1.5755,15.2473,-7.8821,4.8962,-5.8488,-9.295,4.0065,1583,2019-08-07 16:49:12:678
-17.7531,1.2091,-1.5755,13.2734,-7.5689,10.5688,-5.8488,-9.295,4.0065,1589,2019-08-07 16:49:12:684
-16.4901,1.2234,-6.063,13.2734,-7.5689,10.5688,-5.8669,-9.181,4.277,1594,2019-08-07 16:49:12:689
-16.4901,1.2234,-6.063,12.4204,-7.8839,14.14,-5.8669,-9.181,4.277,1599,2019-08-07 16:49:12:694
-16.4901,1.2234,-6.063,12.4204,-7.8839,14.14,-5.7508,-8.4961,4.5093,1604,2019-08-07 16:49:12:699
-14.8347,1.2377,-9.9708,12.4204,-7.8839,14.14,-5.7508,-8.4961,4.5093,1609,2019-08-07 16:49:12:704
-14.8347,1.2377,-9.9708,12.4204,-7.8839,14.14,-5.7508,-8.4961,4.5093,1614,2019-08-07 16:49:12:709
-14.8347,1.2377,-9.9708,10.8719,-9.1681,16.5324,-5.5122,-7.5948,4.309,1618,2019-08-07 16:49:12:713
-13.6482,2.2689,-10.362,10.8719,-9.1681,16.5324,-5.5122,-7.5948,4.309,1624,2019-08-07 16:49:12:719
-13.6482,2.2689,-10.362,10.8719,-9.1681,16.5324,-5.3694,-7.0303,3.9244,1628,2019-08-07 16:49:12:723
-13.299,2.1591,-11.0832,10.8719,-9.1681,16.5324,-5.3694,-7.0303,3.9244,1634,2019-08-07 16:49:12:729
-13.299,2.1591,-11.0832,10.7212,-9.4035,16.3112,-5.2607,-5.7413,2.9636,1640,2019-08-07 16:49:12:735
-13.299,2.1591,-11.0832,10.7212,-9.4035,16.3112,-5.2607,-5.7413,2.9636,1644,2019-08-07 16:49:12:739
-14.5046,1.6865,-11.0691,10.7212,-9.4035,16.3112,-5.2607,-5.7413,2.9636,1648,2019-08-07 16:49:12:743
-14.5046,1.6865,-11.0691,10.7212,-9.4035,16.3112,-5.3673,-3.9783,1.9654,1654,2019-08-07 16:49:12:749
-14.5046,1.6865,-11.0691,11.2897,-8.2634,15.7246,-5.3673,-3.9783,1.9654,1658,2019-08-07 16:49:12:753
-13.7966,-0.1562,-10.5883,11.2897,-8.2634,15.7246,-5.4418,-2.5828,1.273,1664,2019-08-07 16:49:12:759
-13.7966,-0.1562,-10.5883,11.2897,-8.2634,15.7246,-5.4418,-2.5828,1.273,1669,2019-08-07 16:49:12:764
-13.7966,-0.1562,-10.5883,11.2897,-8.2634,15.7246,-5.3449,-1.395,0.3515,1673,2019-08-07 16:49:12:768
-10.5959,-3.7795,-10.2442,7.3366,-4.0734,14.556,-5.3449,-1.395,0.3515,1679,2019-08-07 16:49:12:774
-10.5959,-3.7795,-10.2442,7.3366,-4.0734,14.556,-5.0647,-1.0435,-0.3686,1684,2019-08-07 16:49:12:779
-8.4765,-5.5077,-10.3856,7.3366,-4.0734,14.556,-5.0647,-1.0435,-0.3686,1689,2019-08-07 16:49:12:784
-8.4765,-5.5077,-10.3856,7.3366,-4.0734,14.556,-5.0647,-1.0435,-0.3686,1694,2019-08-07 16:49:12:789
-8.4765,-5.5077,-10.3856,4.0491,-2.8376,13.5504,-4.4842,-1.4163,-1.012,1699,2019-08-07 16:49:12:794
-6.2662,-6.0232,-10.0886,4.0491,-2.8376,13.5504,-4.4842,-1.4163,-1.012,1704,2019-08-07 16:49:12:799
-6.2662,-6.0232,-10.0886,4.0491,-2.8376,13.5504,-3.7896,-2.2163,-1.2698,1709,2019-08-07 16:49:12:804
-3.9793,-6.1426,-9.4758,2.2135,-2.8573,12.2483,-3.7896,-2.2163,-1.2698,1714,2019-08-07 16:49:12:809
-3.9793,-6.1426,-9.4758,2.2135,-2.8573,12.2483,-2.9118,-3.1729,-1.3646,1718,2019-08-07 16:49:12:813
-3.9793,-6.1426,-9.4758,2.2135,-2.8573,12.2483,-2.9118,-3.1729,-1.3646,1724,2019-08-07 16:49:12:819
-1.7164,-6.6868,-11.2058,-0.8699,-2.408,14.2975,-1.9765,-3.6725,-1.3934,1728,2019-08-07 16:49:12:823
-1.7164,-6.6868,-11.2058,-0.8699,-2.408,14.2975,-1.9765,-3.6725,-1.3934,1733,2019-08-07 16:49:12:828
0.1112,-7.6129,-13.063,-0.8699,-2.408,14.2975,-1.1222,-3.4329,-1.3838,1739,2019-08-07 16:49:12:834
0.1112,-7.6129,-13.063,-0.8699,-2.408,14.2975,-1.1222,-3.4329,-1.3838,1744,2019-08-07 16:49:12:839
0.1112,-7.6129,-13.063,-0.8699,-2.408,14.2975,-0.4681,-2.5167,-1.2868,1748,2019-08-07 16:49:12:843
-0.262,-8.2049,-10.4799,-2.0311,-1.1805,14.971,-0.4681,-2.5167,-1.2868,1754,2019-08-07 16:49:12:849
-0.262,-8.2049,-10.4799,-2.0311,-1.1805,14.971,-0.4681,-2.5167,-1.2868,1759,2019-08-07 16:49:12:854
1.3216,-8.4101,-10.5459,-2.0311,-1.1805,14.971,0.2616,0.2082,-0.979,1764,2019-08-07 16:49:12:859
1.3216,-8.4101,-10.5459,-2.5447,-1.024,2.3274,0.2616,0.2082,-0.979,1769,2019-08-07 16:49:12:864
1.3216,-8.4101,-10.5459,-2.5447,-1.024,2.3274,0.0283,-0.9284,-0.7276,1773,2019-08-07 16:49:12:868
-0.1807,-8.0139,-11.1728,-2.5447,-1.024,2.3274,0.0283,-0.9284,-0.7276,1779,2019-08-07 16:49:12:874
-0.1807,-8.0139,-11.1728,-2.5447,-1.024,2.3274,-0.532,-1.3162,-0.6594,1784,2019-08-07 16:49:12:879
-0.1807,-8.0139,-11.1728,-2.5447,-1.024,2.3274,-0.532,-1.3162,-0.6594,1789,2019-08-07 16:49:12:884
1.4651,-8.7348,-3.362,-2.7472,-0.7037,5.709,-0.743,-1.9777,-0.6775,1794,2019-08-07 16:49:12:889
1.4651,-8.7348,-3.362,-2.7472,-0.7037,5.709,-0.743,-1.9777,-0.6775,1799,2019-08-07 16:49:12:894
1.8,-11.1074,-6.789,-2.7472,-0.7037,5.709,-0.743,-1.9777,-0.6775,1804,2019-08-07 16:49:12:899
1.8,-11.1074,-6.789,-2.7472,-0.7037,5.709,-0.1773,-1.5868,-0.6328,1809,2019-08-07 16:49:12:904
1.8,-11.1074,-6.789,-4.315,2.3728,7.3866,-0.1773,-1.5868,-0.6328,1814,2019-08-07 16:49:12:909
3.5032,-12.0048,-4.0785,-4.315,2.3728,7.3866,0.4544,-0.9391,-0.6019,1819,2019-08-07 16:49:12:914
3.5032,-12.0048,-4.0785,-4.315,2.3728,7.3866,0.4544,-0.9391,-0.6019,1824,2019-08-07 16:49:12:919
2.8765,-11.7948,-4.8799,-4.315,2.3728,7.3866,1.1255,-0.3447,-0.5252,1829,2019-08-07 16:49:12:924
2.8765,-11.7948,-4.8799,-3.6586,2.196,7.3072,1.1255,-0.3447,-0.5252,1834,2019-08-07 16:49:12:929
2.8765,-11.7948,-4.8799,-3.6586,2.196,7.3072,1.525,0.5693,-0.376,1839,2019-08-07 16:49:12:934
2.9147,-11.1837,-4.5263,-3.6586,2.196,7.3072,1.525,0.5693,-0.376,1844,2019-08-07 16:49:12:939
2.9147,-11.1837,-4.5263,-3.6586,2.196,7.3072,0.9274,0.6908,-0.3281,1849,2019-08-07 16:49:12:944
1.5369,-9.4031,-3.1028,-2.5414,0.1509,7.6481,0.9274,0.6908,-0.3281,1854,2019-08-07 16:49:12:949
1.5369,-9.4031,-3.1028,-2.5414,0.1509,7.6481,0.9274,0.6908,-0.3281,1859,2019-08-07 16:49:12:954
1.5369,-9.4031,-3.1028,-2.5414,0.1509,7.6481,0.6515,1.0924,-0.3718,1864,2019-08-07 16:49:12:959
-1.0514,-10.0571,0.9888,-2.5414,0.1509,7.6481,0.6515,1.0924,-0.3718,1869,2019-08-07 16:49:12:964
-1.0514,-10.0571,0.9888,0.6442,0.8686,1.5187,0.8635,0.9763,-0.3132,1874,2019-08-07 16:49:12:969
-1.4055,-9.7898,0.5316,0.6442,0.8686,1.5187,0.8635,0.9763,-0.3132,1879,2019-08-07 16:49:12:974
-1.4055,-9.7898,0.5316,0.6442,0.8686,1.5187,0.8347,0.6716,-0.3004,1884,2019-08-07 16:49:12:979
-1.4055,-9.7898,0.5316,0.6442,0.8686,1.5187,0.8347,0.6716,-0.3004,1889,2019-08-07 16:49:12:984
-1.195,-9.1167,-0.0152,0.4104,-0.2544,2.8088,0.6898,0.5693,-0.326,1894,2019-08-07 16:49:12:989
-1.195,-9.1167,-0.0152,0.4104,-0.2544,2.8088,0.6898,0.5693,-0.326,1899,2019-08-07 16:49:12:994
-0.9462,-9.7277,0.5881,0.4104,-0.2544,2.8088,0.578,0.5107,-0.3452,1904,2019-08-07 16:49:12:999
-0.9462,-9.7277,0.5881,0.4104,-0.2544,2.8088,0.578,0.5107,-0.3452,1909,2019-08-07 16:49:13:004
-0.9462,-9.7277,0.5881,-0.3514,0.5767,2.6525,0.6792,0.6354,-0.3846,1914,2019-08-07 16:49:13:009
0.0681,-9.8423,-0.463,-0.3514,0.5767,2.6525,0.6792,0.6354,-0.3846,1918,2019-08-07 16:49:13:013
0.0681,-9.8423,-0.463,-0.3514,0.5767,2.6525,0.6792,0.6354,-0.3846,1924,2019-08-07 16:49:13:019
0.0681,-9.8423,-0.463,-0.3514,0.5767,2.6525,0.7654,1.1424,-0.5039,1929,2019-08-07 16:49:13:024
0.6757,-9.2169,-2.1129,-1.35,-0.29,5.2815,0.7654,1.1424,-0.5039,1934,2019-08-07 16:49:13:029
0.6757,-9.2169,-2.1129,-1.35,-0.29,5.2815,0.7654,1.1424,-0.5039,1938,2019-08-07 16:49:13:033
0.6183,-8.3194,-2.9991,-1.35,-0.29,5.2815,0.7207,1.8935,-0.6296,1944,2019-08-07 16:49:13:039
0.6183,-8.3194,-2.9991,-1.35,-0.29,5.2815,0.7207,1.8935,-0.6296,1949,2019-08-07 16:49:13:044
0.6183,-8.3194,-2.9991,-1.2592,-1.7985,6.6862,0.6887,2.5294,-0.7127,1954,2019-08-07 16:49:13:049
0.3216,-7.1499,-3.8193,-1.2592,-1.7985,6.6862,0.6887,2.5294,-0.7127,1958,2019-08-07 16:49:13:053
0.3216,-7.1499,-3.8193,-1.2592,-1.7985,6.6862,0.6355,3.1409,-0.7926,1964,2019-08-07 16:49:13:059
-1.2141,-6.4576,-3.3479,-1.2592,-1.7985,6.6862,0.6355,3.1409,-0.7926,1969,2019-08-07 16:49:13:064
-1.2141,-6.4576,-3.3479,0.9317,-2.9068,6.2633,0.4736,3.6416,-0.7958,1973,2019-08-07 16:49:13:068
-1.2141,-6.4576,-3.3479,0.9317,-2.9068,6.2633,0.4736,3.6416,-0.7958,1979,2019-08-07 16:49:13:074
-3.5393,-6.6868,-1.7876,0.9317,-2.9068,6.2633,0.2839,3.7044,-0.7009,1984,2019-08-07 16:49:13:079
-3.5393,-6.6868,-1.7876,0.9317,-2.9068,6.2633,0.2839,3.7044,-0.7009,1989,2019-08-07 16:49:13:084
-3.5393,-6.6868,-1.7876,3.7522,-1.4608,2.8682,0.2147,3.3795,-0.5539,1993,2019-08-07 16:49:13:088
-4.7066,-8.1333,0.5976,3.7522,-1.4608,2.8682,0.2147,3.3795,-0.5539,1999,2019-08-07 16:49:13:094
-4.7066,-8.1333,0.5976,3.7522,-1.4608,2.8682,0.4672,2.7872,-0.4165,2004,2019-08-07 16:49:13:099
-4.5679,-8.8875,0.5787,3.7522,-1.4608,2.8682,0.4672,2.7872,-0.4165,2009,2019-08-07 16:49:13:104
-4.5679,-8.8875,0.5787,3.0479,-0.422,3.1786,0.4672,2.7872,-0.4165,2014,2019-08-07 16:49:13:109
-4.5679,-8.8875,0.5787,3.0479,-0.422,3.1786,0.7878,2.5305,-0.4037,2018,2019-08-07 16:49:13:113
-3.1948,-8.5486,-1.8253,3.0479,-0.422,3.1786,0.7878,2.5305,-0.4037,2024,2019-08-07 16:49:13:119
-3.1948,-8.5486,-1.8253,3.0479,-0.422,3.1786,1.0445,2.6615,-0.5731,2028,2019-08-07 16:49:13:123
-2.4389,-7.7514,-4.0738,1.2596,-1.7468,7.6559,1.0445,2.6615,-0.5731,2034,2019-08-07 16:49:13:129
-2.4389,-7.7514,-4.0738,1.2596,-1.7468,7.6559,1.2043,3.1313,-0.8245,2038,2019-08-07 16:49:13:133
-2.4389,-7.7514,-4.0738,1.2596,-1.7468,7.6559,1.2043,3.1313,-0.8245,2044,2019-08-07 16:49:13:139
-2.2523,-6.7345,-6.8267,1.2596,-1.7468,7.6559,1.3343,3.9942,-1.0695,2049,2019-08-07 16:49:13:144
-2.2523,-6.7345,-6.8267,1.4167,-2.5906,10.8586,1.3343,3.9942,-1.0695,2054,2019-08-07 16:49:13:149
-2.2523,-6.7345,-6.8267,1.4167,-2.5906,10.8586,1.3343,3.9942,-1.0695,2059,2019-08-07 16:49:13:154
-2.9317,-6.5865,-8.0476,1.4167,-2.5906,10.8586,1.4366,5.3502,-1.3007,2064,2019-08-07 16:49:13:159
-2.9317,-6.5865,-8.0476,1.4167,-2.5906,10.8586,1.4366,5.3502,-1.3007,2069,2019-08-07 16:49:13:164
-4.2091,-6.4242,-7.9203,2.9038,-2.7389,11.1714,1.542,6.7415,-1.3657,2074,2019-08-07 16:49:13:169
-4.2091,-6.4242,-7.9203,2.9038,-2.7389,11.1714,1.542,6.7415,-1.3657,2078,2019-08-07 16:49:13:173
-4.2091,-6.4242,-7.9203,2.9038,-2.7389,11.1714,1.639,7.6991,-1.322,2084,2019-08-07 16:49:13:179
-5.8644,-6.281,-6.9398,2.9038,-2.7389,11.1714,1.639,7.6991,-1.322,2088,2019-08-07 16:49:13:183
-5.8644,-6.281,-6.9398,6.0242,-2.8648,8.6189,1.6954,8.3852,-1.1675,2094,2019-08-07 16:49:13:189
-8.4192,-6.2094,-4.7338,6.0242,-2.8648,8.6189,1.6954,8.3852,-1.1675,2099,2019-08-07 16:49:13:194
-8.4192,-6.2094,-4.7338,6.0242,-2.8648,8.6189,1.7093,8.383,-0.9438,2104,2019-08-07 16:49:13:199
-8.4192,-6.2094,-4.7338,6.0242,-2.8648,8.6189,1.7093,8.383,-0.9438,2109,2019-08-07 16:49:13:204
-11.9213,-6.386,0.1262,10.6648,-2.8271,1.2903,1.7093,8.383,-0.9438,2114,2019-08-07 16:49:13:209
-11.9213,-6.386,0.1262,10.6648,-2.8271,1.2903,1.7199,7.7663,-0.6839,2119,2019-08-07 16:49:13:214
-13.1604,-5.8848,2.2238,10.6648,-2.8271,1.2903,1.6283,6.636,-0.5049,2124,2019-08-07 16:49:13:219
-13.1604,-5.8848,2.2238,10.6648,-2.8271,1.2903,1.6283,6.636,-0.5049,2129,2019-08-07 16:49:13:224
-13.1604,-5.8848,2.2238,9.5026,-3.7488,2.2477,1.3865,5.4834,-0.5124,2134,2019-08-07 16:49:13:229
-11.4859,-5.0398,0.5174,9.5026,-3.7488,2.2477,1.3865,5.4834,-0.5124,2139,2019-08-07 16:49:13:234
-11.4859,-5.0398,0.5174,9.5026,-3.7488,2.2477,1.3865,5.4834,-0.5124,2144,2019-08-07 16:49:13:239
-9.5866,-4.8775,-1.7876,9.5026,-3.7488,2.2477,1.0701,4.6504,-0.5987,2149,2019-08-07 16:49:13:244
-9.5866,-4.8775,-1.7876,9.5026,-3.7488,2.2477,1.0701,4.6504,-0.5987,2153,2019-08-07 16:49:13:248
-9.5866,-4.8775,-1.7876,6.1426,-3.8038,6.0675,0.8208,4.9145,-0.5401,2159,2019-08-07 16:49:13:254
-7.4337,-5.6795,-3.6684,6.1426,-3.8038,6.0675,0.8208,4.9145,-0.5401,2164,2019-08-07 16:49:13:259
-7.4337,-5.6795,-3.6684,6.1426,-3.8038,6.0675,0.8485,5.8413,-0.3792,2169,2019-08-07 16:49:13:264
-7.4337,-5.6795,-3.6684,6.1426,-3.8038,6.0675,0.8485,5.8413,-0.3792,2173,2019-08-07 16:49:13:268
-6.8835,-6.978,-4.0314,3.8572,-1.8788,6.9698,0.9476,7.1346,-0.1673,2179,2019-08-07 16:49:13:274
-6.8835,-6.978,-4.0314,3.8572,-1.8788,6.9698,0.9476,7.1346,-0.1673,2184,2019-08-07 16:49:13:279
-6.8835,-6.978,-4.0314,3.8572,-1.8788,6.9698,0.9476,7.1346,-0.1673,2189,2019-08-07 16:49:13:284
-10.0746,-8.0951,-0.3311,3.8572,-1.8788,6.9698,1.1585,8.6526,0.1491,2194,2019-08-07 16:49:13:289
-10.0746,-8.0951,-0.3311,8.0227,-0.6923,1.2628,1.1585,8.6526,0.1491,2199,2019-08-07 16:49:13:294
-13.6724,-7.823,2.6999,8.0227,-0.6923,1.2628,1.2896,9.0222,0.3217,2203,2019-08-07 16:49:13:298
-13.6724,-7.823,2.6999,8.0227,-0.6923,1.2628,1.2896,9.0222,0.3217,2209,2019-08-07 16:49:13:304
-15.6243,-7.1976,4.1989,8.0227,-0.6923,1.2628,1.2853,8.6483,0.4069,2214,2019-08-07 16:49:13:309
-15.6243,-7.1976,4.1989,11.9138,-1.5492,-2.0863,1.2853,8.6483,0.4069,2219,2019-08-07 16:49:13:314
-15.6243,-7.1976,4.1989,11.9138,-1.5492,-2.0863,1.0935,7.6672,0.4069,2223,2019-08-07 16:49:13:318
-16.6099,-6.5292,3.8359,11.9138,-1.5492,-2.0863,1.0935,7.6672,0.4069,2229,2019-08-07 16:49:13:324
-16.6099,-6.5292,3.8359,11.9138,-1.5492,-2.0863,0.8677,6.7084,0.3878,2234,2019-08-07 16:49:13:329
-15.6243,-6.3383,4.3262,11.5242,-2.355,-2.4307,0.8677,6.7084,0.3878,2239,2019-08-07 16:49:13:334
-15.6243,-6.3383,4.3262,11.5242,-2.355,-2.4307,0.5886,5.086,0.4517,2244,2019-08-07 16:49:13:339
-15.6243,-6.3383,4.3262,10.2409,-2.0979,-3.6436,0.5886,5.086,0.4517,2249,2019-08-07 16:49:13:344
-14.39,-6.5197,5.1652,10.2409,-2.0979,-3.6436,0.6206,4.5918,0.67,2254,2019-08-07 16:49:13:349
-14.39,-6.5197,5.1652,10.2409,-2.0979,-3.6436,0.6206,4.5918,0.67,2259,2019-08-07 16:49:13:354
-13.371,-6.7775,5.58,10.2409,-2.0979,-3.6436,0.4906,4.4842,0.783,2263,2019-08-07 16:49:13:358
-13.371,-6.7775,5.58,8.5575,-1.675,-3.8819,0.4906,4.4842,0.783,2269,2019-08-07 16:49:13:364
-13.371,-6.7775,5.58,8.5575,-1.675,-3.8819,0.1817,4.482,0.8149,2274,2019-08-07 16:49:13:369
-13.792,-6.7584,5.58,8.5575,-1.675,-3.8819,0.1817,4.482,0.8149,2278,2019-08-07 16:49:13:373
-13.792,-6.7584,5.58,8.5575,-1.675,-3.8819,0.0762,4.448,0.7904,2284,2019-08-07 16:49:13:379
-13.371,-7.7275,5.7309,8.4835,-0.8559,-5.1762,0.0762,4.448,0.7904,2289,2019-08-07 16:49:13:384
-13.371,-7.7275,5.7309,8.4835,-0.8559,-5.1762,0.1593,4.4096,0.7318,2294,2019-08-07 16:49:13:389
-13.371,-7.7275,5.7309,8.4835,-0.8559,-5.1762,0.1593,4.4096,0.7318,2299,2019-08-07 16:49:13:394
-12.1462,-8.5629,3.6709,8.4835,-0.8559,-5.1762,0.3191,4.5065,0.6189,2304,2019-08-07 16:49:13:399
-12.1462,-8.5629,3.6709,6.2217,0.4595,-2.8025,0.3191,4.5065,0.6189,2309,2019-08-07 16:49:13:404
-12.1462,-8.5629,3.6709,6.2217,0.4595,-2.8025,0.3191,4.5065,0.6189,2314,2019-08-07 16:49:13:409
-10.9741,-8.6631,3.1053,6.2217,0.4595,-2.8025,0.5055,4.6653,0.5827,2319,2019-08-07 16:49:13:414
-10.9741,-8.6631,3.1053,6.2217,0.4595,-2.8025,0.5055,4.6653,0.5827,2324,2019-08-07 16:49:13:419
-11.553,-8.4292,4.9767,6.1092,0.2683,-5.0022,0.8432,4.8464,0.6423,2329,2019-08-07 16:49:13:424
-11.553,-8.4292,4.9767,6.1092,0.2683,-5.0022,0.8432,4.8464,0.6423,2334,2019-08-07 16:49:13:429
-11.553,-8.4292,4.9767,6.1092,0.2683,-5.0022,1.2448,4.7686,0.8011,2339,2019-08-07 16:49:13:434
-14.6197,-7.7609,8.2716,6.1092,0.2683,-5.0022,1.2448,4.7686,0.8011,2344,2019-08-07 16:49:13:439
-14.6197,-7.7609,8.2716,10.1453,-0.6106,-9.0697,1.4195,3.8365,1.0258,2349,2019-08-07 16:49:13:444
-14.6197,-7.7609,8.2716,10.1453,-0.6106,-9.0697,1.4195,3.8365,1.0258,2353,2019-08-07 16:49:13:448
-16.7535,-7.126,9.1672,10.1453,-0.6106,-9.0697,1.2299,2.4389,1.159,2359,2019-08-07 16:49:13:454
-16.7535,-7.126,9.1672,10.1453,-0.6106,-9.0697,1.2299,2.4389,1.159,2364,2019-08-07 16:49:13:459
-16.6434,-7.4697,9.5585,10.8588,-0.4453,-9.9153,1.0414,0.727,1.2059,2369,2019-08-07 16:49:13:464
-16.6434,-7.4697,9.5585,10.8588,-0.4453,-9.9153,1.0414,0.727,1.2059,2374,2019-08-07 16:49:13:469
-16.6434,-7.4697,9.5585,10.8588,-0.4453,-9.9153,1.0552,-0.6216,1.1462,2379,2019-08-07 16:49:13:474
-13.749,-8.3337,8.0029,10.8588,-0.4453,-9.9153,1.0552,-0.6216,1.1462,2384,2019-08-07 16:49:13:479
-13.749,-8.3337,8.0029,5.4725,0.7658,-6.1866,1.1287,-1.231,0.996,2388,2019-08-07 16:49:13:483
-9.869,-8.5486,4.7268,5.4725,0.7658,-6.1866,1.1287,-1.231,0.996,2394,2019-08-07 16:49:13:489
-9.869,-8.5486,4.7268,5.4725,0.7658,-6.1866,1.1287,-1.231,0.996,2399,2019-08-07 16:49:13:494
-9.869,-8.5486,4.7268,5.4725,0.7658,-6.1866,1.0946,-1.1969,0.7989,2403,2019-08-07 16:49:13:498
-6.8155,-8.4055,2.2146,5.4725,0.7658,-6.1866,1.0946,-1.1969,0.7989,2409,2019-08-07 16:49:13:504
-6.8155,-8.4055,2.2146,0.2811,0.7347,-1.6593,1.036,-0.6142,0.5944,2414,2019-08-07 16:49:13:509
-5.6098,-8.4246,0.8476,0.2811,0.7347,-1.6593,1.036,-0.6142,0.5944,2419,2019-08-07 16:49:13:514
-5.6098,-8.4246,0.8476,0.2811,0.7347,-1.6593,1.0808,0.7376,0.3856,2424,2019-08-07 16:49:13:519
-5.6098,-8.4246,0.8476,-0.1513,0.9677,-0.306,1.0808,0.7376,0.3856,2429,2019-08-07 16:49:13:524
-6.4088,-8.5487,0.8193,-0.1513,0.9677,-0.306,1.1724,1.5387,0.3153,2434,2019-08-07 16:49:13:529
-6.4088,-8.5487,0.8193,-0.1513,0.9677,-0.306,1.1724,1.5387,0.3153,2438,2019-08-07 16:49:13:533
-9.0736,-7.6894,2.2712,-0.1513,0.9677,-0.306,1.2587,1.8455,0.2929,2444,2019-08-07 16:49:13:539
-9.0736,-7.6894,2.2712,-0.1513,0.9677,-0.306,1.2587,1.8455,0.2929,2449,2019-08-07 16:49:13:544
-9.0736,-7.6894,2.2712,4.0023,-0.4011,-2.5659,1.2587,1.8455,0.2929,2454,2019-08-07 16:49:13:549
-11.638,-6.4339,3.3648,4.0023,-0.4011,-2.5659,1.1415,1.3171,0.3057,2458,2019-08-07 16:49:13:553
-11.638,-6.4339,3.3648,4.0023,-0.4011,-2.5659,1.1415,1.3171,0.3057,2464,2019-08-07 16:49:13:559
-12.1212,-5.6701,3.7278,5.7879,-1.8111,-3.3309,0.8784,0.3499,0.2791,2469,2019-08-07 16:49:13:564
-12.1212,-5.6701,3.7278,5.7879,-1.8111,-3.3309,0.8784,0.3499,0.2791,2474,2019-08-07 16:49:13:569
-12.1212,-5.6701,3.7278,5.7879,-1.8111,-3.3309,0.6227,-0.8581,0.2269,2479,2019-08-07 16:49:13:574
-11.1117,-5.8515,3.0725,4.7502,-1.6005,-2.5866,0.6227,-0.8581,0.2269,2483,2019-08-07 16:49:13:578
-11.1117,-5.8515,3.0725,4.7502,-1.6005,-2.5866,0.4757,-1.7061,0.163,2489,2019-08-07 16:49:13:584
-8.5282,-6.5675,1.8658,4.7502,-1.6005,-2.5866,0.4757,-1.7061,0.163,2494,2019-08-07 16:49:13:589
-8.5282,-6.5675,1.8658,4.7502,-1.6005,-2.5866,0.4757,-1.7061,0.163,2499,2019-08-07 16:49:13:594
-8.5282,-6.5675,1.8658,0.493,-0.4986,-0.3121,0.4086,-2.0491,0.066,2503,2019-08-07 16:49:13:598
-5.8347,-7.0115,0.6166,0.493,-0.4986,-0.3121,0.4086,-2.0491,0.066,2509,2019-08-07 16:49:13:604
-5.8347,-7.0115,0.6166,0.493,-0.4986,-0.3121,0.3606,-1.7434,-0.033,2514,2019-08-07 16:49:13:609
-5.8347,-7.0115,0.6166,0.493,-0.4986,-0.3121,0.3606,-1.7434,-0.033,2519,2019-08-07 16:49:13:614
-3.7392,-7.0927,-0.3874,-2.5951,-0.3211,1.4596,0.3404,-1.1138,-0.0778,2524,2019-08-07 16:49:13:619
-3.7392,-7.0927,-0.3874,-2.5951,-0.3211,1.4596,0.3404,-1.1138,-0.0778,2529,2019-08-07 16:49:13:624
-3.2512,-7.1834,-0.0999,-3.0869,-0.2818,1.4454,0.3564,-0.5311,-0.0959,2534,2019-08-07 16:49:13:629
-3.2512,-7.1834,-0.0999,-3.0869,-0.2818,1.4454,0.3564,-0.5311,-0.0959,2539,2019-08-07 16:49:13:634
-3.2512,-7.1834,-0.0999,-3.0869,-0.2818,1.4454,0.4331,0.3946,-0.1172,2544,2019-08-07 16:49:13:639
-4.2128,-7.002,0.7156,-3.0869,-0.2818,1.4454,0.4331,0.3946,-0.1172,2548,2019-08-07 16:49:13:643
-4.2128,-7.002,0.7156,-1.3872,-0.6688,0.0925,0.4427,0.8303,-0.114,2554,2019-08-07 16:49:13:649
-4.2128,-7.002,0.7156,-1.3872,-0.6688,0.0925,0.4427,0.8303,-0.114,2558,2019-08-07 16:49:13:653
-6.2461,-6.305,1.9789,-1.3872,-0.6688,0.0925,0.4427,0.8303,-0.114,2564,2019-08-07 16:49:13:659
-6.2461,-6.305,1.9789,-1.3872,-0.6688,0.0925,0.3883,0.8996,-0.0895,2568,2019-08-07 16:49:13:663
-7.4039,-5.9804,2.5116,0.9904,-1.4165,-1.2301,0.3883,0.8996,-0.0895,2574,2019-08-07 16:49:13:669
-7.4039,-5.9804,2.5116,0.9904,-1.4165,-1.2301,0.2328,0.5874,-0.0618,2578,2019-08-07 16:49:13:673
-7.4039,-5.9804,2.5116,0.9904,-1.4165,-1.2301,0.2328,0.5874,-0.0618,2584,2019-08-07 16:49:13:679
-7.6622,-6.0472,2.7096,1.3036,-1.3418,-1.4908,0.0602,0.0026,-0.0501,2589,2019-08-07 16:49:13:684
-7.6622,-6.0472,2.7096,1.3036,-1.3418,-1.4908,0.0602,0.0026,-0.0501,2594,2019-08-07 16:49:13:689
-7.6622,-6.0472,2.7096,1.3036,-1.3418,-1.4908,0.0602,0.0026,-0.0501,2599,2019-08-07 16:49:13:694
-7.1647,-6.2286,2.1439,0.8592,-1.1967,-0.9853,-0.0218,-0.3212,-0.0437,2604,2019-08-07 16:49:13:699
-7.1647,-6.2286,2.1439,0.8592,-1.1967,-0.9853,-0.0218,-0.3212,-0.0437,2609,2019-08-07 16:49:13:704
-7.1647,-6.2286,2.1439,0.8592,-1.1967,-0.9853,-0.0218,-0.3212,-0.0437,2615,2019-08-07 16:49:13:710
-6.2174,-6.5485,1.4651,0.8592,-1.1967,-0.9853,-0.1091,-0.481,-0.0309,2618,2019-08-07 16:49:13:713
-6.2174,-6.5485,1.4651,-0.4971,-0.7697,-0.0098,-0.1091,-0.481,-0.0309,2624,2019-08-07 16:49:13:719
-5.6529,-6.7251,1.088,-0.4971,-0.7697,-0.0098,-0.14,-0.383,-0.0437,2628,2019-08-07 16:49:13:723
-5.6529,-6.7251,1.088,-0.733,-0.6644,0.1042,-0.14,-0.383,-0.0437,2633,2019-08-07 16:49:13:728
-5.6529,-6.7251,1.088,-0.733,-0.6644,0.1042,-0.1166,-0.155,-0.0469,2639,2019-08-07 16:49:13:734
-5.5572,-6.8015,1.1163,-0.733,-0.6644,0.1042,-0.1166,-0.155,-0.0469,2644,2019-08-07 16:49:13:739
-5.5572,-6.8015,1.1163,-0.733,-0.6644,0.1042,-0.1166,-0.155,-0.0469,2648,2019-08-07 16:49:13:743
-5.5572,-6.8015,1.1163,-0.5735,-0.5784,0.0145,-0.0804,0.0463,-0.0479,2654,2019-08-07 16:49:13:749
-5.8968,-6.8397,1.2719,-0.5735,-0.5784,0.0145,-0.0804,0.0463,-0.0479,2659,2019-08-07 16:49:13:754
-5.8968,-6.8397,1.2719,-0.5735,-0.5784,0.0145,-0.0591,0.1752,-0.0522,2663,2019-08-07 16:49:13:758
-6.3992,-6.7633,1.5123,-0.5735,-0.5784,0.0145,-0.0591,0.1752,-0.0522,2669,2019-08-07 16:49:13:764
-6.3992,-6.7633,1.5123,0.2126,-0.6939,-0.3342,-0.0516,0.1986,-0.0469,2674,2019-08-07 16:49:13:769
-6.3992,-6.7633,1.5123,0.2126,-0.6939,-0.3342,-0.0516,0.1986,-0.0469,2679,2019-08-07 16:49:13:774
-6.7628,-6.7442,1.5217,0.2126,-0.6939,-0.3342,-0.0633,0.1219,-0.0362,2684,2019-08-07 16:49:13:779
-6.7628,-6.7442,1.5217,0.2126,-0.6939,-0.3342,-0.0633,0.1219,-0.0362,2689,2019-08-07 16:49:13:784
-6.7628,-6.7442,1.5217,0.6507,-0.5956,-0.4416,-0.0921,-0.0123,-0.0234,2693,2019-08-07 16:49:13:788
-6.9254,-6.9113,1.5123,0.6507,-0.5956,-0.4416,-0.0921,-0.0123,-0.0234,2699,2019-08-07 16:49:13:794
-6.9254,-6.9113,1.5123,0.6507,-0.5956,-0.4416,-0.0921,-0.0123,-0.0234,2704,2019-08-07 16:49:13:799
-6.9254,-6.9113,1.5123,0.6507,-0.5956,-0.4416,-0.1155,-0.1955,-0.0021,2709,2019-08-07 16:49:13:804
-6.825,-6.8969,1.4086,0.6507,-0.5956,-0.4416,-0.1155,-0.1955,-0.0021,2714,2019-08-07 16:49:13:809
-6.825,-6.8969,1.4086,0.421,-0.4469,-0.1173,-0.1283,-0.2776,0.0096,2718,2019-08-07 16:49:13:813
-6.5714,-6.9924,1.2153,0.421,-0.4469,-0.1173,-0.1283,-0.2776,0.0096,2724,2019-08-07 16:49:13:819
-6.5714,-6.9924,1.2153,0.421,-0.4469,-0.1173,-0.1368,-0.3681,0.0202,2728,2019-08-07 16:49:13:823
-6.5714,-6.9924,1.2153,0.0744,-0.4359,0.1181,-0.1368,-0.3681,0.0202,2734,2019-08-07 16:49:13:829
-6.2604,-6.9733,1.0267,0.0744,-0.4359,0.1181,-0.1368,-0.4011,0.0245,2739,2019-08-07 16:49:13:834
-6.2604,-6.9733,1.0267,0.0744,-0.4359,0.1181,-0.1368,-0.4011,0.0245,2743,2019-08-07 16:49:13:838
-6.0834,-7.0354,1.0173,0.0744,-0.4359,0.1181,-0.1177,-0.3777,0.0128,2749,2019-08-07 16:49:13:844
-6.0834,-7.0354,1.0173,-0.1544,-0.3978,0.3073,-0.1177,-0.3777,0.0128,2753,2019-08-07 16:49:13:848
-6.0834,-7.0354,1.0173,-0.1544,-0.3978,0.3073,-0.1177,-0.3777,0.0128,2759,2019-08-07 16:49:13:854
-6.0978,-7.0688,0.9089,-0.1544,-0.3978,0.3073,-0.1081,-0.3212,0.0021,2764,2019-08-07 16:49:13:859
-6.0978,-7.0688,0.9089,-0.1544,-0.3978,0.3073,-0.1081,-0.3212,0.0021,2768,2019-08-07 16:49:13:863
-6.0882,-7.064,1.0786,-0.1715,-0.3855,0.169,-0.0793,-0.2712,-0.0053,2774,2019-08-07 16:49:13:869
-6.0882,-7.064,1.0786,-0.1715,-0.3855,0.169,-0.0793,-0.2712,-0.0053,2778,2019-08-07 16:49:13:873
-6.0882,-7.064,1.0786,-0.1715,-0.3855,0.169,-0.0516,-0.2541,-0.0032,2784,2019-08-07 16:49:13:879
-6.1313,-7.0354,1.0739,-0.1715,-0.3855,0.169,-0.0516,-0.2541,-0.0032,2788,2019-08-07 16:49:13:883
-6.1313,-7.0354,1.0739,-0.0793,-0.3772,0.3001,-0.0463,-0.2467,-0.0032,2794,2019-08-07 16:49:13:889
-6.2604,-7.0211,1.1776,-0.0793,-0.3772,0.3001,-0.0463,-0.2467,-0.0032,2799,2019-08-07 16:49:13:894
-6.2604,-7.0211,1.1776,-0.0793,-0.3772,0.3001,-0.041,-0.2754,0.0149,2804,2019-08-07 16:49:13:899
-6.2604,-7.0211,1.1776,-0.0793,-0.3772,0.3001,-0.041,-0.2754,0.0149,2808,2019-08-07 16:49:13:903
-6.2843,-6.9208,1.253,-0.0793,-0.3772,0.3001,-0.0292,-0.3191,0.0298,2814,2019-08-07 16:49:13:909
-6.2843,-6.9208,1.253,0.0242,-0.5467,0.0696,-0.0292,-0.3191,0.0298,2819,2019-08-07 16:49:13:914
-6.2843,-6.9208,1.253,0.0242,-0.5467,0.0696,-0.0292,-0.3191,0.0298,2823,2019-08-07 16:49:13:918
-6.2221,-6.8731,1.0833,0.0242,-0.5467,0.0696,-0.0292,-0.3617,0.0341,2829,2019-08-07 16:49:13:924
-6.2221,-6.8731,1.0833,0.0242,-0.5467,0.0696,-0.0292,-0.3617,0.0341,2834,2019-08-07 16:49:13:929
-6.1217,-6.9638,0.9796,-0.1075,-0.5178,0.2923,-0.0324,-0.3862,0.0309,2839,2019-08-07 16:49:13:934
-6.1217,-6.9638,0.9796,-0.1075,-0.5178,0.2923,-0.0324,-0.3862,0.0309,2844,2019-08-07 16:49:13:939
-6.1217,-6.9638,0.9796,-0.1075,-0.5178,0.2923,-0.0335,-0.367,0.0234,2849,2019-08-07 16:49:13:944
-5.916,-6.9447,0.7581,-0.1075,-0.5178,0.2923,-0.0335,-0.367,0.0234,2854,2019-08-07 16:49:13:949
-5.916,-6.9447,0.7581,-0.3272,-0.5055,0.6094,-0.0335,-0.367,0.0234,2858,2019-08-07 16:49:13:953
-5.9064,-6.9686,0.7581,-0.3272,-0.5055,0.6094,-0.0271,-0.301,0.0043,2864,2019-08-07 16:49:13:959
-5.9064,-6.9686,0.7581,-0.3272,-0.5055,0.6094,-0.0271,-0.301,0.0043,2868,2019-08-07 16:49:13:963
-5.9064,-6.9686,0.7581,-0.3272,-0.5055,0.6094,-0.0101,-0.2211,-0.0021,2873,2019-08-07 16:49:13:968
-5.7581,-7.0163,0.8099,-0.478,-0.4252,0.5941,-0.0101,-0.2211,-0.0021,2879,2019-08-07 16:49:13:974
-5.7581,-7.0163,0.8099,-0.478,-0.4252,0.5941,0.0112,-0.1423,-0.0149,2884,2019-08-07 16:49:13:979
-5.7581,-7.0163,0.8099,-0.478,-0.4252,0.5941,0.0112,-0.1423,-0.0149,2889,2019-08-07 16:49:13:984
-5.715,-6.9781,0.8099,-0.478,-0.4252,0.5941,0.0293,-0.0666,-0.0298,2894,2019-08-07 16:49:13:989
-5.715,-6.9781,0.8099,-0.433,-0.5235,0.5711,0.0293,-0.0666,-0.0298,2898,2019-08-07 16:49:13:993
-5.8394,-6.9495,0.9938,-0.433,-0.5235,0.5711,0.0293,-0.0666,-0.0298,2904,2019-08-07 16:49:13:999
-5.8394,-6.9495,0.9938,-0.433,-0.5235,0.5711,0.0453,-0.0325,-0.0192,2908,2019-08-07 16:49:14:003
-5.8394,-6.9495,0.9938,-0.433,-0.5235,0.5711,0.0453,-0.0325,-0.0192,2914,2019-08-07 16:49:14:009
-6.1025,-6.9256,1.3426,-0.1234,-0.5197,0.0863,0.0592,-0.0805,-0.0107,2919,2019-08-07 16:49:14:014
-6.1025,-6.9256,1.3426,-0.1234,-0.5197,0.0863,0.0592,-0.0805,-0.0107,2924,2019-08-07 16:49:14:019
-6.1025,-6.9256,1.3426,-0.1234,-0.5197,0.0863,0.0592,-0.1657,0.0011,2928,2019-08-07 16:49:14:023
-6.2126,-6.7919,1.4039,-0.1234,-0.5197,0.0863,0.0592,-0.1657,0.0011,2934,2019-08-07 16:49:14:029
-6.2126,-6.7919,1.4039,-0.1259,-0.7072,0.2557,0.0368,-0.2573,0.0128,2938,2019-08-07 16:49:14:033
-5.9494,-6.749,1.0975,-0.1259,-0.7072,0.2557,0.0368,-0.2573,0.0128,2944,2019-08-07 16:49:14:039
-5.9494,-6.749,1.0975,-0.1259,-0.7072,0.2557,0.0112,-0.3148,0.0213,2949,2019-08-07 16:49:14:044
-5.9494,-6.749,1.0975,-0.1259,-0.7072,0.2557,0.0112,-0.3148,0.0213,2954,2019-08-07 16:49:14:049
-5.6863,-6.8922,0.9089,-0.5326,-0.5462,0.585,0.0112,-0.3148,0.0213,2959,2019-08-07 16:49:14:054
-5.6863,-6.8922,0.9089,-0.5326,-0.5462,0.585,-0.0175,-0.2829,0.0245,2964,2019-08-07 16:49:14:059
-5.4519,-7.0402,0.7816,-0.5326,-0.5462,0.585,-0.0175,-0.2829,0.0245,2969,2019-08-07 16:49:14:064
-5.4519,-7.0402,0.7816,-0.5326,-0.5462,0.585,-0.0229,-0.1753,0.0202,2974,2019-08-07 16:49:14:069
-5.4519,-7.0402,0.7816,-0.7235,-0.3458,0.7619,-0.0229,-0.1753,0.0202,2979,2019-08-07 16:49:14:074
-5.4758,-7.1595,0.8476,-0.7235,-0.3458,0.7619,-0.0122,-0.0645,0.0245,2983,2019-08-07 16:49:14:078
-5.4758,-7.1595,0.8476,-0.7235,-0.3458,0.7619,-0.0122,-0.0645,0.0245,2989,2019-08-07 16:49:14:084
-5.5236,-7.2072,0.8665,-0.7235,-0.3458,0.7619,-0.0069,0.0505,0.0288,2994,2019-08-07 16:49:14:089
-5.5236,-7.2072,0.8665,-0.5619,-0.2216,0.6024,-0.0069,0.0505,0.0288,2998,2019-08-07 16:49:14:093
-5.5236,-7.2072,0.8665,-0.5619,-0.2216,0.6024,-0.0015,0.1517,0.0352,3004,2019-08-07 16:49:14:099
-5.9159,-7.1929,1.0362,-0.5619,-0.2216,0.6024,-0.0015,0.1517,0.0352,3009,2019-08-07 16:49:14:104
-5.9159,-7.1929,1.0362,-0.5619,-0.2216,0.6024,-0.0015,0.1517,0.0352,3014,2019-08-07 16:49:14:109
-5.9159,-7.1929,1.0362,-0.5619,-0.2216,0.6024,-0.0015,0.1517,0.0352,3019,2019-08-07 16:49:14:114
-5.9638,-7.2168,1.0692,-0.0983,-0.2367,0.2508,0.0048,0.1677,0.0447,3024,2019-08-07 16:49:14:119
-5.9638,-7.2168,1.0692,-0.0983,-0.2367,0.2508,0.0048,0.1677,0.0447,3029,2019-08-07 16:49:14:124
-5.9638,-7.2168,1.0692,-0.0983,-0.2367,0.2508,0.0219,0.0964,0.0671,3034,2019-08-07 16:49:14:129
-6.3561,-7.1309,1.3002,0.1502,-0.3131,0.1802,0.0219,0.0964,0.0671,3039,2019-08-07 16:49:14:134
-6.3561,-7.1309,1.3002,0.1502,-0.3131,0.1802,0.0016,0.0292,0.0714,3043,2019-08-07 16:49:14:138
-6.4565,-7.107,1.3284,0.1502,-0.3131,0.1802,0.0016,0.0292,0.0714,3048,2019-08-07 16:49:14:143
-6.4565,-7.107,1.3284,0.1502,-0.3131,0.1802,-0.0058,-0.0325,0.082,3054,2019-08-07 16:49:14:149
-6.4565,-7.107,1.3284,0.1888,-0.2731,0.0935,-0.0058,-0.0325,0.082,3058,2019-08-07 16:49:14:153
-6.4039,-7.1547,1.3944,0.1888,-0.2731,0.0935,-0.0015,-0.0784,0.0831,3064,2019-08-07 16:49:14:159
-6.4039,-7.1547,1.3944,0.1888,-0.2731,0.0935,-0.0015,-0.0784,0.0831,3069,2019-08-07 16:49:14:164
-6.203,-7.1643,1.1446,0.1888,-0.2731,0.0935,6.0E-4,-0.0922,0.0788,3074,2019-08-07 16:49:14:169
-6.203,-7.1643,1.1446,-0.1522,-0.2191,0.3992,6.0E-4,-0.0922,0.0788,3078,2019-08-07 16:49:14:173
-6.203,-7.1643,1.1446,-0.1522,-0.2191,0.3992,0.0112,-0.057,0.0703,3084,2019-08-07 16:49:14:179
-6.0929,-7.1786,1.1446,-0.1522,-0.2191,0.3992,0.0112,-0.057,0.0703,3089,2019-08-07 16:49:14:184
-6.0929,-7.1786,1.1446,-0.1522,-0.2191,0.3992,0.0347,0.0069,0.0628,3094,2019-08-07 16:49:14:189
-6.0929,-7.1786,1.1446,-0.1998,-0.2293,0.2391,0.0347,0.0069,0.0628,3098,2019-08-07 16:49:14:193
-6.0881,-7.1547,1.2106,-0.1998,-0.2293,0.2391,0.0549,0.0697,0.0479,3104,2019-08-07 16:49:14:199
-6.0881,-7.1547,1.2106,-0.1998,-0.2293,0.2391,0.0549,0.0697,0.0479,3108,2019-08-07 16:49:14:203
-6.2078,-7.1643,1.3284,-0.1998,-0.2293,0.2391,0.0549,0.0697,0.0479,3114,2019-08-07 16:49:14:209
-6.2078,-7.1643,1.3284,0.0921,-0.241,0.1793,0.0656,0.1091,0.033,3118,2019-08-07 16:49:14:213
-6.2078,-7.1643,1.3284,0.0921,-0.241,0.1793,0.0656,0.1091,0.033,3124,2019-08-07 16:49:14:219
-6.4805,-7.15,1.4321,0.0921,-0.241,0.1793,0.0688,0.0889,0.016,3128,2019-08-07 16:49:14:223
-6.4805,-7.15,1.4321,0.0921,-0.241,0.1793,0.0688,0.0889,0.016,3134,2019-08-07 16:49:14:229
-6.4805,-7.15,1.4321,0.2147,-0.2448,-0.1031,0.0698,0.0378,0.0117,3138,2019-08-07 16:49:14:233
-6.49,-7.1022,1.6207,0.2147,-0.2448,-0.1031,0.0698,0.0378,0.0117,3144,2019-08-07 16:49:14:239
-6.49,-7.1022,1.6207,0.2147,-0.2448,-0.1031,0.0698,0.0378,0.0117,3149,2019-08-07 16:49:14:244
-6.4039,-7.0593,1.5924,0.1366,-0.333,-0.1346,0.0666,-0.0464,0.0107,3154,2019-08-07 16:49:14:249
-6.4039,-7.0593,1.5924,0.1366,-0.333,-0.1346,0.0517,-0.1082,0.0192,3159,2019-08-07 16:49:14:254
-6.4039,-7.0593,1.5924,0.1366,-0.333,-0.1346,0.0517,-0.1082,0.0192,3164,2019-08-07 16:49:14:259
-6.2077,-6.9829,1.682,-0.0992,-0.3847,-0.1788,0.0517,-0.1082,0.0192,3168,2019-08-07 16:49:14:263
-6.2077,-6.9829,1.682,-0.0992,-0.3847,-0.1788,0.0336,-0.1625,0.0352,3174,2019-08-07 16:49:14:269
-6.0642,-6.9113,1.5924,-0.0992,-0.3847,-0.1788,0.0336,-0.1625,0.0352,3178,2019-08-07 16:49:14:273
-6.0642,-6.9113,1.5924,-0.0992,-0.3847,-0.1788,0.0166,-0.1657,0.0458,3184,2019-08-07 16:49:14:279
-6.0642,-6.9113,1.5924,-0.2254,-0.4685,0.0541,0.0166,-0.1657,0.0458,3188,2019-08-07 16:49:14:283
-6.0881,-6.8922,1.5076,-0.2254,-0.4685,0.0541,-0.009,-0.1614,0.0501,3194,2019-08-07 16:49:14:289
-6.0881,-6.8922,1.5076,-0.2254,-0.4685,0.0541,-0.009,-0.1614,0.0501,3199,2019-08-07 16:49:14:294
-6.0881,-6.8922,1.5076,-0.2254,-0.4685,0.0541,-0.009,-0.1614,0.0501,3203,2019-08-07 16:49:14:298
-6.1408,-6.8922,1.4934,-0.2254,-0.4685,0.0541,-0.0303,-0.1625,0.0565,3209,2019-08-07 16:49:14:304
-6.1408,-6.8922,1.4934,-0.1816,-0.4232,0.1426,-0.0442,-0.1412,0.0543,3214,2019-08-07 16:49:14:309
-6.002,-6.959,1.2247,-0.1816,-0.4232,0.1426,-0.0442,-0.1412,0.0543,3219,2019-08-07 16:49:14:314
-6.002,-6.959,1.2247,-0.1816,-0.4232,0.1426,-0.0442,-0.1412,0.0543,3223,2019-08-07 16:49:14:318
-6.002,-6.959,1.2247,-0.1816,-0.4232,0.1426,-0.0729,-0.0826,0.0394,3229,2019-08-07 16:49:14:324
-5.9542,-6.9495,1.1116,-0.3484,-0.4046,0.4478,-0.0729,-0.0826,0.0394,3233,2019-08-07 16:49:14:328
-5.9542,-6.9495,1.1116,-0.3484,-0.4046,0.4478,-0.0751,0.0463,0.0213,3239,2019-08-07 16:49:14:334
-5.9924,-7.1118,1.0268,-0.3484,-0.4046,0.4478,-0.0751,0.0463,0.0213,3244,2019-08-07 16:49:14:339
-5.9924,-7.1118,1.0268,-0.3484,-0.4046,0.4478,-0.0708,0.1549,0.0032,3248,2019-08-07 16:49:14:343
-5.9924,-7.1118,1.0268,-0.181,-0.3048,0.3503,-0.0708,0.1549,0.0032,3254,2019-08-07 16:49:14:349
-6.2221,-6.959,1.2672,-0.181,-0.3048,0.3503,-0.0612,0.2135,-0.0053,3259,2019-08-07 16:49:14:354
-6.2221,-6.959,1.2672,-0.181,-0.3048,0.3503,-0.0612,0.2135,-0.0053,3264,2019-08-07 16:49:14:359
-6.3608,-6.916,1.2625,-0.181,-0.3048,0.3503,-0.0601,0.2221,-0.0096,3269,2019-08-07 16:49:14:364
-6.3608,-6.916,1.2625,0.108,-0.4876,0.2605,-0.0601,0.2221,-0.0096,3274,2019-08-07 16:49:14:369
-6.3608,-6.916,1.2625,0.108,-0.4876,0.2605,-0.0591,0.1816,-0.0192,3279,2019-08-07 16:49:14:374
-6.5426,-6.8731,1.3237,0.108,-0.4876,0.2605,-0.0591,0.1816,-0.0192,3284,2019-08-07 16:49:14:379
-6.5426,-6.8731,1.3237,0.108,-0.4876,0.2605,-0.0591,0.1816,-0.0192,3289,2019-08-07 16:49:14:384
-6.4422,-6.9877,1.4322,0.1218,-0.4417,0.0399,-0.0623,0.0964,-0.0096,3294,2019-08-07 16:49:14:389
-6.4422,-6.9877,1.4322,0.1218,-0.4417,0.0399,-0.0623,0.0964,-0.0096,3298,2019-08-07 16:49:14:393
-6.4422,-6.9877,1.4322,0.1218,-0.4417,0.0399,-0.0527,0.0228,-0.0043,3304,2019-08-07 16:49:14:399
-6.3417,-6.9208,1.4369,0.1218,-0.4417,0.0399,-0.0527,0.0228,-0.0043,3309,2019-08-07 16:49:14:404
-6.3417,-6.9208,1.4369,-0.0286,-0.3755,0.0892,-0.0452,-0.0496,0.0075,3314,2019-08-07 16:49:14:409
-6.179,-6.897,1.1965,-0.0286,-0.3755,0.0892,-0.0452,-0.0496,0.0075,3319,2019-08-07 16:49:14:414
-6.179,-6.897,1.1965,-0.0286,-0.3755,0.0892,-0.0388,-0.105,0.0277,3324,2019-08-07 16:49:14:419
-6.179,-6.897,1.1965,-0.0286,-0.3755,0.0892,-0.0388,-0.105,0.0277,3329,2019-08-07 16:49:14:424
-6.0451,-6.9542,1.1116,-0.2789,-0.402,0.3475,-0.0282,-0.1135,0.0352,3334,2019-08-07 16:49:14:429
-6.0451,-6.9542,1.1116,-0.2789,-0.402,0.3475,-0.0282,-0.1135,0.0352,3339,2019-08-07 16:49:14:434
-5.8345,-6.8922,0.9042,-0.2789,-0.402,0.3475,-0.0058,-0.0752,0.0458,3344,2019-08-07 16:49:14:439
-5.8345,-6.8922,0.9042,-0.2789,-0.402,0.3475,-0.0058,-0.0752,0.0458,3349,2019-08-07 16:49:14:444
-5.8345,-6.8922,0.9042,-0.5212,-0.3696,0.631,0.0208,0.0058,0.0405,3353,2019-08-07 16:49:14:448
-5.8345,-6.9399,0.8288,-0.5212,-0.3696,0.631,0.0208,0.0058,0.0405,3360,2019-08-07 16:49:14:455
-5.8345,-6.9399,0.8288,-0.5212,-0.3696,0.631,0.0421,0.091,0.0405,3364,2019-08-07 16:49:14:459
-6.0738,-6.8826,1.0032,-0.5212,-0.3696,0.631,0.0421,0.091,0.0405,3369,2019-08-07 16:49:14:464
-6.0738,-6.8826,1.0032,-0.2521,-0.5261,0.3889,0.0581,0.139,0.0458,3373,2019-08-07 16:49:14:468
-6.0738,-6.8826,1.0032,-0.2521,-0.5261,0.3889,0.0581,0.139,0.0458,3379,2019-08-07 16:49:14:474
-6.1981,-6.8444,1.2247,-0.2521,-0.5261,0.3889,0.0581,0.139,0.0458,3383,2019-08-07 16:49:14:478
-6.1981,-6.8444,1.2247,-0.2521,-0.5261,0.3889,0.0656,0.1368,0.0415,3389,2019-08-07 16:49:14:484
-6.4182,-6.8063,1.3614,0.0752,-0.5411,0.1579,0.0656,0.1368,0.0415,3394,2019-08-07 16:49:14:489
-6.4182,-6.8063,1.3614,0.0752,-0.5411,0.1579,0.0688,0.0868,0.0405,3399,2019-08-07 16:49:14:494
-6.4182,-6.8063,1.3614,0.0752,-0.5411,0.1579,0.0688,0.0868,0.0405,3404,2019-08-07 16:49:14:499
-6.5078,-6.8112,1.489,0.0752,-0.5411,0.1579,0.0613,0.0154,0.0384,3409,2019-08-07 16:49:14:504
-6.5078,-6.8112,1.489,0.0683,-0.4645,-0.1034,0.0613,0.0154,0.0384,3414,2019-08-07 16:49:14:509
-6.5078,-6.8112,1.489,0.0683,-0.4645,-0.1034,0.0549,-0.0698,0.0394,3419,2019-08-07 16:49:14:514
-6.3499,-6.8112,1.5503,0.0683,-0.4645,-0.1034,0.0549,-0.0698,0.0394,3424,2019-08-07 16:49:14:519
-6.3499,-6.8112,1.5503,0.0683,-0.4645,-0.1034,0.0411,-0.1124,0.0352,3429,2019-08-07 16:49:14:524
-6.1537,-6.8828,1.3099,-0.2093,-0.4375,0.1601,0.0411,-0.1124,0.0352,3433,2019-08-07 16:49:14:528
-6.1537,-6.8828,1.3099,-0.2093,-0.4375,0.1601,0.0134,-0.1007,0.0234,3439,2019-08-07 16:49:14:534
-6.1537,-6.8828,1.3099,-0.2093,-0.4375,0.1601,0.0134,-0.1007,0.0234,3444,2019-08-07 16:49:14:539
-6.0293,-6.9401,1.3476,-0.2093,-0.4375,0.1601,0.0016,-0.0613,0.0149,3449,2019-08-07 16:49:14:544
-6.0293,-6.9401,1.3476,-0.349,-0.3914,0.1671,0.0016,-0.0613,0.0149,3454,2019-08-07 16:49:14:549
-6.0819,-6.9496,1.2957,-0.349,-0.3914,0.1671,-5.0E-4,0.0069,0.0043,3459,2019-08-07 16:49:14:554
-6.0819,-6.9496,1.2957,-0.349,-0.3914,0.1671,-5.0E-4,0.0069,0.0043,3464,2019-08-07 16:49:14:559
-6.0819,-6.9496,1.2957,-0.349,-0.3914,0.1671,-5.0E-4,0.0069,0.0043,3469,2019-08-07 16:49:14:564
-6.1202,-6.921,1.2298,-0.2397,-0.3774,0.2237,-0.0026,0.0782,-0.0202,3473,2019-08-07 16:49:14:568
-6.1202,-6.921,1.2298,-0.2397,-0.3774,0.2237,-0.0026,0.0782,-0.0202,3479,2019-08-07 16:49:14:574
-6.2254,-6.8971,1.291,-0.2397,-0.3774,0.2237,-0.0101,0.1102,-0.0341,3483,2019-08-07 16:49:14:578
-6.2254,-6.8971,1.291,-0.2397,-0.3774,0.2237,-0.0101,0.1102,-0.0341,3489,2019-08-07 16:49:14:584
-6.3881,-6.8446,1.555,0.0242,-0.4766,-0.0933,-0.0101,0.1187,-0.049,3495,2019-08-07 16:49:14:590
-6.3881,-6.8446,1.555,0.0242,-0.4766,-0.0933,-0.0101,0.1187,-0.049,3499,2019-08-07 16:49:14:594
-6.3881,-6.8446,1.555,0.0242,-0.4766,-0.0933,-0.0143,0.1134,-0.0682,3504,2019-08-07 16:49:14:599
-6.4885,-6.8732,1.3806,0.0242,-0.4766,-0.0933,-0.0143,0.1134,-0.0682,3510,2019-08-07 16:49:14:605
-6.4885,-6.8732,1.3806,0.1625,-0.4026,0.0362,-0.0378,0.09,-0.082,3513,2019-08-07 16:49:14:608
-6.4885,-6.8732,1.3806,0.1625,-0.4026,0.0362,-0.0378,0.09,-0.082,3519,2019-08-07 16:49:14:614
-6.5746,-6.9639,1.5032,0.1625,-0.4026,0.0362,-0.0378,0.09,-0.082,3523,2019-08-07 16:49:14:618
-6.5746,-6.9639,1.5032,0.2094,-0.3836,-0.0945,-0.0516,0.0431,-0.081,3529,2019-08-07 16:49:14:624
-6.4406,-7.0785,1.4702,0.2094,-0.3836,-0.0945,-0.0516,0.0431,-0.081,3534,2019-08-07 16:49:14:629
-6.4406,-7.0785,1.4702,0.2094,-0.3836,-0.0945,-0.0506,-0.0198,-0.0767,3539,2019-08-07 16:49:14:634
-6.4406,-7.0785,1.4702,-0.0245,-0.2744,0.0683,-0.0506,-0.0198,-0.0767,3544,2019-08-07 16:49:14:639
-6.2923,-7.0451,1.4042,-0.0245,-0.2744,0.0683,-0.0431,-0.0496,-0.0639,3549,2019-08-07 16:49:14:644
-6.2923,-7.0451,1.4042,-0.0245,-0.2744,0.0683,-0.0431,-0.0496,-0.0639,3553,2019-08-07 16:49:14:648
-6.1296,-6.9257,1.3288,-0.0245,-0.2744,0.0683,-0.0442,-0.0368,-0.0479,3559,2019-08-07 16:49:14:654
-6.1296,-6.9257,1.3288,-0.0245,-0.2744,0.0683,-0.0442,-0.0368,-0.0479,3564,2019-08-07 16:49:14:659
-6.1296,-6.9257,1.3288,-0.2219,-0.4204,0.0902,-0.0442,-0.0368,-0.0479,3569,2019-08-07 16:49:14:664
-6.1535,-6.9401,1.3429,-0.2219,-0.4204,0.0902,-0.0356,0.0069,-0.0266,3574,2019-08-07 16:49:14:669
-6.1535,-6.9401,1.3429,-0.2219,-0.4204,0.0902,-0.0356,0.0069,-0.0266,3579,2019-08-07 16:49:14:674
-6.3257,-6.8685,1.4089,-0.0104,-0.4848,0.012,-0.0239,0.0399,-0.0096,3584,2019-08-07 16:49:14:679
-6.3257,-6.8685,1.4089,-0.0104,-0.4848,0.012,-0.0239,0.0399,-0.0096,3588,2019-08-07 16:49:14:683
-6.3257,-6.8685,1.4089,-0.0104,-0.4848,0.012,-0.0186,0.0623,0.0085,3594,2019-08-07 16:49:14:689
-6.3975,-6.7873,1.3241,0.059,-0.5649,0.0917,-0.0186,0.0623,0.0085,3599,2019-08-07 16:49:14:694
-6.3975,-6.7873,1.3241,0.059,-0.5649,0.0917,-0.025,0.0687,0.0181,3604,2019-08-07 16:49:14:699
-6.3975,-6.7491,1.2675,0.059,-0.5649,0.0917,-0.025,0.0687,0.0181,3608,2019-08-07 16:49:14:703
-6.5554,-6.7491,1.2675,0.059,-0.5649,0.0917,-0.0303,0.0697,0.0171,3613,2019-08-07 16:49:14:708
-6.5554,-6.7491,1.2675,0.2857,-0.5417,0.1539,-0.0303,0.0697,0.0171,3619,2019-08-07 16:49:14:714
-6.6271,-6.8016,1.2769,0.2857,-0.5417,0.1539,-0.0367,0.0612,0.0192,3623,2019-08-07 16:49:14:718
-6.6271,-6.8016,1.2769,0.2857,-0.5417,0.1539,-0.0367,0.0612,0.0192,3629,2019-08-07 16:49:14:724
-6.6271,-6.8016,1.2769,0.2857,-0.5417,0.1539,-0.0378,0.0505,0.0192,3633,2019-08-07 16:49:14:728
-6.6127,-6.8589,1.2769,0.2584,-0.4848,0.1119,-0.0378,0.0505,0.0192,3639,2019-08-07 16:49:14:734
-6.6127,-6.8589,1.2769,0.2584,-0.4848,0.1119,-0.0303,0.042,0.0085,3644,2019-08-07 16:49:14:739
-6.5649,-6.816,1.2392,0.2584,-0.4848,0.1119,-0.0303,0.042,0.0085,3648,2019-08-07 16:49:14:743
-6.5649,-6.816,1.2392,0.2584,-0.4848,0.1119,-0.0303,0.042,0.0085,3654,2019-08-07 16:49:14:749
-6.5649,-6.816,1.2392,0.2102,-0.5538,0.0499,-0.0261,0.0196,0.0,3659,2019-08-07 16:49:14:754
-6.5266,-6.8303,1.2911,0.2102,-0.5538,0.0499,-0.0261,0.0196,0.0,3664,2019-08-07 16:49:14:759
-6.5266,-6.8303,1.2911,0.2102,-0.5538,0.0499,-0.0239,-0.0038,0.0,3669,2019-08-07 16:49:14:764
-6.3926,-6.773,1.3241,0.2102,-0.5538,0.0499,-0.0239,-0.0038,0.0,3674,2019-08-07 16:49:14:769
-6.3926,-6.773,1.3241,0.0112,-0.5139,0.051,-0.0218,-0.0304,-0.0011,3679,2019-08-07 16:49:14:774
-6.3926,-6.773,1.3241,0.0112,-0.5139,0.051,-0.0218,-0.0304,-0.0011,3683,2019-08-07 16:49:14:778
-6.2251,-6.7873,1.3477,0.0112,-0.5139,0.051,-0.0197,-0.0698,0.0032,3689,2019-08-07 16:49:14:784
-6.2251,-6.7873,1.3477,0.0112,-0.5139,0.051,-0.0197,-0.0698,0.0032,3694,2019-08-07 16:49:14:789
-6.1103,-6.8542,1.244,-0.1853,-0.5319,0.079,-0.0229,-0.0741,0.0053,3699,2019-08-07 16:49:14:794
-6.1103,-6.8542,1.244,-0.1853,-0.5319,0.079,-0.0229,-0.0741,0.0053,3703,2019-08-07 16:49:14:798
-6.1103,-6.8542,1.244,-0.1853,-0.5319,0.079,-0.0229,-0.0741,0.0053,3709,2019-08-07 16:49:14:804
-6.0911,-6.7921,1.2675,-0.1853,-0.5319,0.079,-0.0346,-0.0688,0.0021,3714,2019-08-07 16:49:14:809
-6.0911,-6.7921,1.2675,-0.3091,-0.5364,0.1445,-0.0346,-0.0688,0.0021,3718,2019-08-07 16:49:14:813
-6.0911,-6.7921,1.2675,-0.3091,-0.5364,0.1445,-0.0452,-0.0507,0.0011,3724,2019-08-07 16:49:14:819
-6.0911,-6.8207,1.1308,-0.3091,-0.5364,0.1445,-0.0452,-0.0507,0.0011,3728,2019-08-07 16:49:14:823
-6.0911,-6.8207,1.1308,-0.3091,-0.5364,0.1445,-0.0527,-0.0208,0.0,3734,2019-08-07 16:49:14:829
-6.0911,-6.8207,1.1308,-0.3996,-0.4038,0.2303,-0.0527,-0.0208,0.0,3739,2019-08-07 16:49:14:834
-5.694,-7.1024,1.2251,-0.3996,-0.4038,0.2303,-0.0292,0.0601,-0.0224,3744,2019-08-07 16:49:14:839
-5.694,-7.1024,1.2251,-0.3996,-0.4038,0.2303,-0.0292,0.0601,-0.0224,3749,2019-08-07 16:49:14:844
-5.9619,-7.0069,0.9282,-0.3996,-0.4038,0.2303,0.0123,0.1794,-0.0351,3754,2019-08-07 16:49:14:849
-5.9619,-7.0069,0.9282,-0.3351,-0.3949,0.4951,0.0123,0.1794,-0.0351,3759,2019-08-07 16:49:14:854
-5.9619,-7.0069,0.9282,-0.3351,-0.3949,0.4951,-0.0079,0.2615,-0.0149,3764,2019-08-07 16:49:14:859
-6.1963,-6.8924,1.046,-0.3351,-0.3949,0.4951,-0.0079,0.2615,-0.0149,3768,2019-08-07 16:49:14:863
-6.1963,-6.8924,1.046,-0.3351,-0.3949,0.4951,-0.0079,0.2615,-0.0149,3774,2019-08-07 16:49:14:869
-6.4116,-6.8494,1.343,0.0463,-0.4963,-0.0168,-0.0346,0.221,-0.0138,3779,2019-08-07 16:49:14:874
-6.4116,-6.8494,1.343,0.0463,-0.4963,-0.0168,-0.0346,0.221,-0.0138,3784,2019-08-07 16:49:14:879
-6.4116,-6.8494,1.343,0.0463,-0.4963,-0.0168,-0.0261,0.1262,-0.0234,3789,2019-08-07 16:49:14:884
-6.4403,-7.0022,1.4278,0.0463,-0.4963,-0.0168,-0.0261,0.1262,-0.0234,3793,2019-08-07 16:49:14:888
-6.4403,-7.0022,1.4278,-0.0038,-0.3836,-0.1036,-0.0207,0.0431,-0.0117,3799,2019-08-07 16:49:14:894
-6.4403,-7.0022,1.4278,-0.0038,-0.3836,-0.1036,-0.0207,0.0431,-0.0117,3804,2019-08-07 16:49:14:899
-6.3302,-6.8876,1.3854,-0.0038,-0.3836,-0.1036,-0.0229,-0.0155,-0.0043,3809,2019-08-07 16:49:14:904
-6.3302,-6.8876,1.3854,-0.0038,-0.3836,-0.1036,-0.0229,-0.0155,-0.0043,3814,2019-08-07 16:49:14:909
-6.3302,-6.8876,1.3854,-0.0904,-0.3741,0.0823,-0.0229,-0.0155,-0.0043,3819,2019-08-07 16:49:14:914
-6.2584,-6.9353,1.2063,-0.0904,-0.3741,0.0823,-0.0399,-0.0464,0.0107,3824,2019-08-07 16:49:14:919
-6.2584,-6.9353,1.2063,-0.0904,-0.3741,0.0823,-0.0399,-0.0464,0.0107,3829,2019-08-07 16:49:14:924
-6.2584,-6.9353,1.2063,-0.0904,-0.3741,0.0823,-0.0346,-0.0475,0.0224,3834,2019-08-07 16:49:14:929
-6.1436,-7.0165,1.1969,-0.2217,-0.2863,0.2052,-0.0346,-0.0475,0.0224,3839,2019-08-07 16:49:14:934
-6.1436,-7.0165,1.1969,-0.2217,-0.2863,0.2052,-0.0175,-0.0166,0.0224,3844,2019-08-07 16:49:14:939
-6.1292,-7.0404,0.947,-0.2217,-0.2863,0.2052,-0.0175,-0.0166,0.0224,3849,2019-08-07 16:49:14:944
-6.1292,-7.0404,0.947,-0.2217,-0.2863,0.2052,-0.0133,0.0292,0.0181,3853,2019-08-07 16:49:14:948
-6.1292,-7.0404,0.947,-0.1967,-0.3556,0.285,-0.0133,0.0292,0.0181,3859,2019-08-07 16:49:14:954
-6.1962,-7.0213,1.0932,-0.1967,-0.3556,0.285,-0.0122,0.0665,0.0139,3864,2019-08-07 16:49:14:959
-6.1962,-7.0213,1.0932,-0.1967,-0.3556,0.285,-0.0122,0.0665,0.0139,3869,2019-08-07 16:49:14:964
-6.4258,-6.9783,1.0743,-0.1967,-0.3556,0.285,-0.0122,0.0665,0.0139,3874,2019-08-07 16:49:14:969
-6.4258,-6.9783,1.0743,0.1669,-0.4492,0.1165,-0.0037,0.0974,-0.0053,3878,2019-08-07 16:49:14:973
-6.4258,-6.9783,1.0743,0.1669,-0.4492,0.1165,-0.0037,0.0974,-0.0053,3884,2019-08-07 16:49:14:979
-6.6841,-6.8017,1.3902,0.1669,-0.4492,0.1165,0.0038,0.0921,-0.0043,3889,2019-08-07 16:49:14:984
-6.6841,-6.8017,1.3902,0.1669,-0.4492,0.1165,0.0038,0.0921,-0.0043,3894,2019-08-07 16:49:14:989
-6.9616,-6.9258,1.409,0.5782,-0.4128,-0.1309,-0.0687,-0.1018,0.0053,3898,2019-08-07 16:49:14:993
-6.9616,-6.9258,1.409,0.5782,-0.4128,-0.1309,-0.0687,-0.1018,0.0053,3904,2019-08-07 16:49:14:999
-6.9616,-6.9258,1.409,0.5782,-0.4128,-0.1309,-0.0261,-0.0965,-0.0149,3909,2019-08-07 16:49:15:004
-6.4449,-7.1024,1.5787,0.5782,-0.4128,-0.1309,-0.0261,-0.0965,-0.0149,3913,2019-08-07 16:49:15:008
-6.4449,-7.1024,1.5787,-0.1644,-0.1989,0.0189,0.0453,-0.121,-0.0288,3919,2019-08-07 16:49:15:014
-6.4449,-7.1024,1.5787,-0.1644,-0.1989,0.0189,0.0453,-0.121,-0.0288,3923,2019-08-07 16:49:15:018
-6.1004,-7.1931,1.1828,-0.1644,-0.1989,0.0189,0.0677,-0.0411,-0.0288,3929,2019-08-07 16:49:15:024
-6.1004,-7.1931,1.1828,-0.1644,-0.1989,0.0189,0.0677,-0.0411,-0.0288,3934,2019-08-07 16:49:15:029
-5.9186,-7.1788,1.1639,-0.412,-0.2067,0.1489,0.0602,0.0633,-0.0224,3939,2019-08-07 16:49:15:034
-5.9186,-7.1788,1.1639,-0.412,-0.2067,0.1489,0.0602,0.0633,-0.0224,3943,2019-08-07 16:49:15:038
-6.0286,-7.1168,1.3572,-0.412,-0.2067,0.1489,0.0666,0.1613,-0.0074,3949,2019-08-07 16:49:15:044
-6.0286,-7.1168,1.3572,-0.412,-0.2067,0.1489,0.0666,0.1613,-0.0074,3954,2019-08-07 16:49:15:049
-6.0286,-7.1168,1.3572,-0.412,-0.2067,0.1489,0.0794,0.2263,-0.0032,3959,2019-08-07 16:49:15:054
-6.0477,-6.9974,1.2865,-0.3904,-0.3022,-0.0837,0.0794,0.2263,-0.0032,3964,2019-08-07 16:49:15:059
-6.0477,-6.9974,1.2865,-0.3904,-0.3022,-0.0837,0.0794,0.2263,-0.0032,3968,2019-08-07 16:49:15:063
-6.0477,-6.9974,1.2865,-0.3904,-0.3022,-0.0837,0.0219,0.1677,-0.0256,3973,2019-08-07 16:49:15:068
-6.3348,-6.7205,1.2818,-0.3904,-0.3022,-0.0837,0.0219,0.1677,-0.0256,3979,2019-08-07 16:49:15:074
-6.3348,-6.7205,1.2818,0.0324,-0.6657,-0.088,-0.042,0.1251,-0.033,3983,2019-08-07 16:49:15:078
-6.4304,-6.6823,1.442,0.0324,-0.6657,-0.088,-0.042,0.1251,-0.033,3989,2019-08-07 16:49:15:084
-6.4304,-6.6823,1.442,0.0324,-0.6657,-0.088,-0.0932,0.0111,-0.0511,3993,2019-08-07 16:49:15:088
-6.4304,-6.6823,1.442,0.0324,-0.6657,-0.088,-0.0932,0.0111,-0.0511,3999,2019-08-07 16:49:15:094
-6.5644,-6.6776,1.409,0.1882,-0.6707,-0.151,-0.1081,-0.0475,-0.0596,4004,2019-08-07 16:49:15:099