ACCELEROMETER X (m/s²),ACCELEROMETER Y (m/s²),ACCELEROMETER Z (m/s²),LINEAR ACCELERATION X (m/s²),LINEAR ACCELERATION Y (m/s²),LINEAR ACCELERATION Z (m/s²),GYROSCOPE X (rad/s),GYROSCOPE Y (rad/s),GYROSCOPE Z (rad/s),Time since start in ms ,YYYY-MO-DD HH-MI-SS_SSS
-6.283,-6.7968,1.3759,-0.2017,-0.3364,0.072,0.0208,-0.0123,0.0107,3,2019-08-07 16:48:25:498
-6.283,-6.7968,1.3759,-0.2017,-0.3364,0.072,0.0208,-0.0123,0.0107,8,2019-08-07 16:48:25:503
-6.2686,-6.878,1.2769,-0.2017,-0.3364,0.072,0.0272,0.0037,0.0117,13,2019-08-07 16:48:25:508
-6.2686,-6.878,1.2769,-0.3275,-0.3294,0.0957,0.0272,0.0037,0.0117,18,2019-08-07 16:48:25:513
-6.2686,-6.878,1.2769,-0.3275,-0.3294,0.0957,0.0272,0.0271,0.0181,23,2019-08-07 16:48:25:518
-6.2304,-6.835,1.3853,-0.3275,-0.3294,0.0957,0.0272,0.0271,0.0181,28,2019-08-07 16:48:25:523
-6.2304,-6.835,1.3853,-0.3275,-0.3294,0.0957,0.0315,0.0399,0.0171,33,2019-08-07 16:48:25:528
-6.2878,-6.8064,1.4183,-0.2637,-0.3741,0.0543,0.0315,0.0399,0.0171,38,2019-08-07 16:48:25:533
-6.2878,-6.8064,1.4183,-0.2637,-0.3741,0.0543,0.0304,0.0378,0.0277,43,2019-08-07 16:48:25:538
-6.2878,-6.8064,1.4183,-0.2375,-0.3957,0.0919,0.0304,0.0378,0.0277,48,2019-08-07 16:48:25:543
-6.3548,-6.7491,1.3476,-0.2375,-0.3957,0.0919,0.0304,0.0378,0.0277,53,2019-08-07 16:48:25:548
-6.3548,-6.7491,1.3476,-0.2375,-0.3957,0.0919,0.0219,0.0175,0.0373,58,2019-08-07 16:48:25:553
-6.3978,-6.8302,1.4136,-0.2375,-0.3957,0.0919,0.0219,0.0175,0.0373,64,2019-08-07 16:48:25:559
-6.3978,-6.8302,1.4136,-0.1576,-0.3706,-0.0436,0.0219,-6.0E-4,0.0394,68,2019-08-07 16:48:25:563
-6.3978,-6.8302,1.4136,-0.1576,-0.3706,-0.0436,0.0219,-6.0E-4,0.0394,73,2019-08-07 16:48:25:568
-6.3835,-6.8732,1.3759,-0.1576,-0.3706,-0.0436,0.0166,-0.008,0.0384,77,2019-08-07 16:48:25:572
-6.3835,-6.8732,1.3759,-0.1576,-0.3706,-0.0436,0.0166,-0.008,0.0384,84,2019-08-07 16:48:25:579
-6.3835,-6.8732,1.3759,-0.192,-0.3075,0.0167,0.0166,-0.008,0.0384,87,2019-08-07 16:48:25:582
-6.3787,-6.8684,1.2722,-0.192,-0.3075,0.0167,0.0112,0.0037,0.032,94,2019-08-07 16:48:25:589
-6.3787,-6.8684,1.2722,-0.1897,-0.3051,0.0501,0.0112,0.0037,0.032,97,2019-08-07 16:48:25:592
-6.4409,-6.8207,1.3617,-0.1897,-0.3051,0.0501,0.0048,0.0154,0.0256,103,2019-08-07 16:48:25:598
-6.4409,-6.8207,1.3617,-0.1897,-0.3051,0.0501,0.0048,0.0154,0.0256,107,2019-08-07 16:48:25:602
-6.4409,-6.8207,1.3617,-0.1897,-0.3051,0.0501,0.007,0.0186,0.0128,113,2019-08-07 16:48:25:608
-6.4792,-6.8207,1.291,-0.0931,-0.3352,0.1239,0.007,0.0186,0.0128,118,2019-08-07 16:48:25:613
-6.4792,-6.8207,1.291,-0.0931,-0.3352,0.1239,6.0E-4,0.0165,-0.0032,123,2019-08-07 16:48:25:618
-6.4696,-6.7968,1.2533,-0.0931,-0.3352,0.1239,6.0E-4,0.0165,-0.0032,127,2019-08-07 16:48:25:622
-6.4696,-6.7968,1.2533,-0.0931,-0.3352,0.1239,-0.0069,0.0101,-0.0106,133,2019-08-07 16:48:25:628
-6.4696,-6.7968,1.2533,-0.1896,-0.4162,0.0977,-0.0069,0.0101,-0.0106,138,2019-08-07 16:48:25:633
-6.393,-6.7348,1.2486,-0.1896,-0.4162,0.0977,-0.0133,0.0037,-0.0181,143,2019-08-07 16:48:25:638
-6.393,-6.7348,1.2486,-0.1896,-0.4162,0.0977,-0.0133,0.0037,-0.0181,149,2019-08-07 16:48:25:644
-6.3356,-6.7348,1.3334,-0.1896,-0.4162,0.0977,-0.0165,-0.0038,-0.0149,153,2019-08-07 16:48:25:648
-6.3356,-6.7348,1.3334,-0.2741,-0.399,0.0344,-0.0165,-0.0038,-0.0149,158,2019-08-07 16:48:25:653
-6.3356,-6.7348,1.3334,-0.2741,-0.399,0.0344,-0.0154,-0.0091,-0.0032,163,2019-08-07 16:48:25:658
-6.2782,-6.7682,1.3523,-0.2741,-0.399,0.0344,-0.0154,-0.0091,-0.0032,168,2019-08-07 16:48:25:663
-6.2782,-6.7682,1.3523,-0.2741,-0.399,0.0344,-0.0154,-0.0091,-0.0032,173,2019-08-07 16:48:25:668
-6.1873,-6.8016,1.2816,-0.379,-0.3563,0.091,-0.0122,-0.023,0.0107,178,2019-08-07 16:48:25:673
-6.1873,-6.8016,1.2816,-0.379,-0.3563,0.091,-0.0122,-0.023,0.0107,183,2019-08-07 16:48:25:678
-6.1873,-6.8016,1.2816,-0.379,-0.3563,0.091,-0.009,-0.024,0.0245,188,2019-08-07 16:48:25:683
-6.2304,-6.835,1.2533,-0.379,-0.3563,0.091,-0.009,-0.024,0.0245,193,2019-08-07 16:48:25:688
-6.2304,-6.835,1.2533,-0.4148,-0.311,0.1067,-0.0015,-0.008,0.0309,199,2019-08-07 16:48:25:694
-6.2304,-6.835,1.2533,-0.4148,-0.311,0.1067,-0.0015,-0.008,0.0309,202,2019-08-07 16:48:25:697
-6.1682,-6.7682,1.2533,-0.4148,-0.311,0.1067,-0.0015,-0.008,0.0309,208,2019-08-07 16:48:25:703
-6.1682,-6.7682,1.2533,-0.4148,-0.311,0.1067,0.0048,0.0133,0.0405,213,2019-08-07 16:48:25:708
-6.2352,-6.6966,1.2109,-0.3391,-0.4539,0.1622,0.0048,0.0133,0.0405,218,2019-08-07 16:48:25:713
-6.2352,-6.6966,1.2109,-0.3391,-0.4539,0.1622,0.008,0.0388,0.0437,223,2019-08-07 16:48:25:718
-6.2352,-6.6966,1.2109,-0.3391,-0.4539,0.1622,0.008,0.0388,0.0437,228,2019-08-07 16:48:25:723
-6.3404,-6.7013,1.2014,-0.3391,-0.4539,0.1622,0.0027,0.0537,0.0416,233,2019-08-07 16:48:25:728
-6.3404,-6.7013,1.2014,-0.1462,-0.4333,0.1376,0.0027,0.0537,0.0416,238,2019-08-07 16:48:25:733
-6.3404,-6.7013,1.2014,-0.1462,-0.4333,0.1376,0.0027,0.0537,0.0416,242,2019-08-07 16:48:25:737
-6.4648,-6.7061,1.2391,-0.1462,-0.4333,0.1376,-0.0015,0.0591,0.0405,248,2019-08-07 16:48:25:743
-6.4648,-6.7061,1.2391,-0.1462,-0.4333,0.1376,-0.0015,0.0591,0.0405,253,2019-08-07 16:48:25:748
-6.4409,-6.7013,1.2957,-0.1938,-0.4358,0.0725,-0.0058,0.041,0.0394,258,2019-08-07 16:48:25:753
-6.4409,-6.7013,1.2957,-0.1938,-0.4358,0.0725,-0.0058,0.041,0.0394,263,2019-08-07 16:48:25:758
-6.3931,-6.7682,1.3146,-0.1938,-0.4358,0.0725,-0.0133,0.0186,0.0426,268,2019-08-07 16:48:25:763
-6.3931,-6.7682,1.3146,-0.1938,-0.4358,0.0725,-0.0133,0.0186,0.0426,273,2019-08-07 16:48:25:768
-6.3931,-6.7682,1.3146,-0.1938,-0.4358,0.0725,-0.0133,0.0186,0.0426,277,2019-08-07 16:48:25:772
-6.3596,-6.8016,1.2156,-0.2384,-0.3258,0.0923,-0.0186,5.0E-4,0.0426,283,2019-08-07 16:48:25:778
-6.3596,-6.8016,1.2156,-0.2384,-0.3258,0.0923,-0.0154,-0.0027,0.049,288,2019-08-07 16:48:25:783
-6.3596,-6.8016,1.2156,-0.2384,-0.3258,0.0923,-0.0154,-0.0027,0.049,293,2019-08-07 16:48:25:788
-6.2639,-6.8398,1.2486,-0.2384,-0.3258,0.0923,-0.0154,-0.0027,0.049,298,2019-08-07 16:48:25:793
-6.2639,-6.8398,1.2486,-0.379,-0.2197,0.0616,-0.0154,-6.0E-4,0.0543,302,2019-08-07 16:48:25:797
-6.2639,-6.8398,1.2486,-0.379,-0.2197,0.0616,-0.0154,-6.0E-4,0.0543,308,2019-08-07 16:48:25:803
-6.3117,-6.9353,1.2533,-0.379,-0.2197,0.0616,-0.0122,0.0143,0.0586,312,2019-08-07 16:48:25:807
-6.3117,-6.9353,1.2533,-0.379,-0.2197,0.0616,-0.0122,0.0143,0.0586,318,2019-08-07 16:48:25:813
-6.3357,-6.9162,1.2156,-0.2963,-0.1842,0.0488,-0.0069,0.0207,0.0618,322,2019-08-07 16:48:25:817
-6.3357,-6.9162,1.2156,-0.2963,-0.1842,0.0488,-0.0069,0.0207,0.0618,328,2019-08-07 16:48:25:823
-6.3357,-6.9162,1.2156,-0.2963,-0.1842,0.0488,-0.0058,0.0314,0.0607,333,2019-08-07 16:48:25:828
-6.3692,-6.8923,1.2627,-0.2963,-0.1842,0.0488,-0.0058,0.0314,0.0607,338,2019-08-07 16:48:25:833
-6.3692,-6.8923,1.2627,-0.1573,-0.1383,0.0953,-0.0015,0.0473,0.0533,344,2019-08-07 16:48:25:839
-6.5079,-6.8923,1.2061,-0.1573,-0.1383,0.0953,-0.0015,0.0473,0.0533,348,2019-08-07 16:48:25:843
-6.5079,-6.8923,1.2061,-0.1573,-0.1383,0.0953,-0.0037,0.0537,0.0447,353,2019-08-07 16:48:25:848
-6.5079,-6.8923,1.2061,-0.1573,-0.1383,0.0953,-0.0037,0.0537,0.0447,358,2019-08-07 16:48:25:853
-6.5797,-6.9066,1.2533,-0.0508,-0.199,0.082,-0.0069,0.058,0.0352,363,2019-08-07 16:48:25:858
-6.5797,-6.9066,1.2533,-0.0508,-0.199,0.082,-0.0069,0.058,0.0352,368,2019-08-07 16:48:25:863
-6.5653,-6.878,1.2391,-0.0508,-0.199,0.082,-0.0037,0.0495,0.0234,373,2019-08-07 16:48:25:868
-6.5653,-6.878,1.2391,-0.0508,-0.199,0.082,-0.0037,0.0495,0.0234,377,2019-08-07 16:48:25:872
-6.5653,-6.878,1.2391,-0.0851,-0.2381,0.0556,-0.0015,0.0346,0.0181,383,2019-08-07 16:48:25:878
-6.5749,-6.9162,1.258,-0.0851,-0.2381,0.0556,-0.0015,0.0346,0.0181,387,2019-08-07 16:48:25:882
-6.5749,-6.9162,1.258,-0.0851,-0.2381,0.0556,0.0027,0.0239,0.0085,393,2019-08-07 16:48:25:888
-6.5318,-6.8875,1.3098,-0.0851,-0.2381,0.0556,0.0027,0.0239,0.0085,399,2019-08-07 16:48:25:894
-6.5318,-6.8875,1.3098,-0.0832,-0.2457,0.0099,0.0027,0.0239,0.0085,403,2019-08-07 16:48:25:898
-6.5318,-6.8875,1.3098,-0.0832,-0.2457,0.0099,0.0144,0.0058,0.0096,408,2019-08-07 16:48:25:903
-6.4649,-6.8541,1.4136,-0.0832,-0.2457,0.0099,0.0144,0.0058,0.0096,413,2019-08-07 16:48:25:908
-6.4649,-6.8541,1.4136,-0.0832,-0.2457,0.0099,0.0208,-0.0123,0.0128,418,2019-08-07 16:48:25:913
-6.4074,-6.8732,1.39,-0.2235,-0.2531,-0.0715,0.0208,-0.0123,0.0128,423,2019-08-07 16:48:25:918
-6.4074,-6.8732,1.39,-0.2235,-0.2531,-0.0715,0.0208,-0.0325,0.0171,428,2019-08-07 16:48:25:923
-6.4074,-6.8732,1.39,-0.2235,-0.2531,-0.0715,0.0208,-0.0325,0.0171,432,2019-08-07 16:48:25:927
-6.3787,-6.8398,1.3664,-0.2235,-0.2531,-0.0715,0.0187,-0.0453,0.0202,438,2019-08-07 16:48:25:933
-6.3787,-6.8398,1.3664,-0.3064,-0.2548,0.0025,0.0187,-0.0453,0.0202,444,2019-08-07 16:48:25:939
-6.3249,-6.8542,1.3195,-0.3064,-0.2548,0.0025,0.0112,-0.0485,0.0245,448,2019-08-07 16:48:25:943
-6.3249,-6.8542,1.3195,-0.3064,-0.2548,0.0025,0.0112,-0.0485,0.0245,453,2019-08-07 16:48:25:948
-6.3249,-6.8542,1.3195,-0.3064,-0.2548,0.0025,0.0112,-0.0485,0.0245,458,2019-08-07 16:48:25:953
-6.2579,-6.9163,1.3007,-0.4001,-0.2089,0.0565,0.0038,-0.0294,0.0245,463,2019-08-07 16:48:25:958
-6.2579,-6.9163,1.3007,-0.4001,-0.2089,0.0565,0.0038,-0.0294,0.0245,468,2019-08-07 16:48:25:963
-6.277,-6.902,1.2394,-0.4001,-0.2089,0.0565,0.0059,0.0079,0.0192,473,2019-08-07 16:48:25:968
-6.277,-6.902,1.2394,-0.4001,-0.2089,0.0565,0.0059,0.0079,0.0192,478,2019-08-07 16:48:25:973
-6.277,-6.902,1.2394,-0.3306,-0.2593,0.1226,0.0048,0.041,0.0149,483,2019-08-07 16:48:25:978
-6.3297,-6.8495,1.2677,-0.3306,-0.2593,0.1226,0.0048,0.041,0.0149,488,2019-08-07 16:48:25:983
-6.3297,-6.8495,1.2677,-0.3306,-0.2593,0.1226,0.0048,0.0708,0.0096,493,2019-08-07 16:48:25:988
-6.454,-6.7826,1.2771,-0.3306,-0.2593,0.1226,0.0048,0.0708,0.0096,498,2019-08-07 16:48:25:993
-6.454,-6.7826,1.2771,-0.2048,-0.3151,0.0718,-0.0016,0.0718,0.0075,503,2019-08-07 16:48:25:998
-6.454,-6.7826,1.2771,-0.2048,-0.3151,0.0718,-0.0016,0.0718,0.0075,508,2019-08-07 16:48:26:003
-6.5258,-6.7588,1.2394,-0.2048,-0.3151,0.0718,-0.0016,0.0718,0.0075,513,2019-08-07 16:48:26:008
-6.5258,-6.7588,1.2394,-0.2048,-0.3151,0.0718,-0.0016,0.0505,0.0032,518,2019-08-07 16:48:26:013
-6.5784,-6.7683,1.3525,-0.074,-0.3183,-0.0254,-0.0016,0.0505,0.0032,522,2019-08-07 16:48:26:017
-6.5784,-6.7683,1.3525,-0.074,-0.3183,-0.0254,0.0027,0.0154,0.0043,528,2019-08-07 16:48:26:023
-6.5784,-6.7683,1.3525,-0.074,-0.3183,-0.0254,0.0027,0.0154,0.0043,533,2019-08-07 16:48:26:028
-6.5401,-6.7062,1.3195,-0.074,-0.3183,-0.0254,0.0016,-0.0272,0.0085,537,2019-08-07 16:48:26:032
-6.5401,-6.7062,1.3195,-0.224,-0.3689,0.0612,0.0016,-0.0272,0.0085,543,2019-08-07 16:48:26:038
-6.3966,-6.754,1.1923,-0.224,-0.3689,0.0612,-0.0016,-0.0475,0.016,549,2019-08-07 16:48:26:044
-6.3966,-6.754,1.1923,-0.224,-0.3689,0.0612,-0.0016,-0.0475,0.016,553,2019-08-07 16:48:26:048
-6.3966,-6.754,1.1923,-0.224,-0.3689,0.0612,-0.0016,-0.0475,0.016,558,2019-08-07 16:48:26:053
-6.3391,-6.7444,1.2111,-0.3162,-0.3378,0.1246,0.008,-0.0528,0.0203,563,2019-08-07 16:48:26:058
-6.3391,-6.7444,1.2111,-0.3162,-0.3378,0.1246,0.008,-0.0528,0.0203,568,2019-08-07 16:48:26:063
-6.3391,-6.7444,1.2111,-0.3162,-0.3378,0.1246,0.0048,-0.0411,0.0235,573,2019-08-07 16:48:26:068
-6.1765,-6.8686,1.1027,-0.3162,-0.3378,0.1246,0.0048,-0.0411,0.0235,578,2019-08-07 16:48:26:073
-6.1765,-6.8686,1.1027,-0.39,-0.2349,0.2845,0.0038,-0.0091,0.0235,583,2019-08-07 16:48:26:078
-6.1765,-6.8686,1.1027,-0.39,-0.2349,0.2845,0.0038,-0.0091,0.0235,588,2019-08-07 16:48:26:083
-6.2099,-6.8447,1.0886,-0.39,-0.2349,0.2845,0.0091,0.0399,0.0224,594,2019-08-07 16:48:26:089
-6.2099,-6.8447,1.0886,-0.39,-0.2349,0.2845,0.0091,0.0399,0.0224,598,2019-08-07 16:48:26:093
-6.3008,-6.8542,1.1499,-0.3456,-0.2086,0.1197,0.0251,0.075,0.0203,603,2019-08-07 16:48:26:098
-6.3008,-6.8542,1.1499,-0.3456,-0.2086,0.1197,0.0251,0.075,0.0203,608,2019-08-07 16:48:26:103
-6.3008,-6.8542,1.1499,-0.3456,-0.2086,0.1197,0.0251,0.075,0.0203,613,2019-08-07 16:48:26:108
-6.4013,-6.859,1.2064,-0.3456,-0.2086,0.1197,0.0283,0.0921,0.0128,618,2019-08-07 16:48:26:113
-6.4013,-6.859,1.2064,-0.3456,-0.2086,0.1197,0.0283,0.0921,0.0128,622,2019-08-07 16:48:26:117
-6.5448,-6.797,1.2441,-0.1254,-0.2394,0.0918,0.0293,0.0846,0.0139,628,2019-08-07 16:48:26:123
-6.5448,-6.797,1.2441,-0.1254,-0.2394,0.0918,0.0293,0.0846,0.0139,633,2019-08-07 16:48:26:128
-6.5639,-6.8017,1.2771,-0.1254,-0.2394,0.0918,0.0315,0.042,0.0171,638,2019-08-07 16:48:26:133
-6.5639,-6.8017,1.2771,-0.1254,-0.2394,0.0918,0.0315,0.042,0.0171,643,2019-08-07 16:48:26:138
-6.5639,-6.8017,1.2771,-0.073,-0.3262,0.0449,0.0315,0.042,0.0171,648,2019-08-07 16:48:26:143
-6.4826,-6.7492,1.3809,-0.073,-0.3262,0.0449,0.0315,0.0058,0.016,653,2019-08-07 16:48:26:148
-6.4826,-6.7492,1.3809,-0.073,-0.3262,0.0449,0.0315,0.0058,0.016,657,2019-08-07 16:48:26:152
-6.4826,-6.7492,1.3809,-0.073,-0.3262,0.0449,0.0411,-0.023,0.0235,663,2019-08-07 16:48:26:158
-6.4443,-6.754,1.3479,-0.2296,-0.3122,-0.0194,0.0411,-0.023,0.0235,667,2019-08-07 16:48:26:162
-6.4443,-6.754,1.3479,-0.2296,-0.3122,-0.0194,0.0411,-0.0368,0.0277,673,2019-08-07 16:48:26:168
-6.3629,-6.7588,1.2819,-0.2296,-0.3122,-0.0194,0.0411,-0.0368,0.0277,678,2019-08-07 16:48:26:173
-6.3629,-6.7588,1.2819,-0.2296,-0.3122,-0.0194,0.0421,-0.0326,0.0277,683,2019-08-07 16:48:26:178
-6.296,-6.7779,1.2866,-0.3812,-0.2641,0.0622,0.0421,-0.0326,0.0277,688,2019-08-07 16:48:26:183
-6.296,-6.7779,1.2866,-0.3812,-0.2641,0.0622,0.0389,-0.007,0.0373,693,2019-08-07 16:48:26:188
-6.296,-6.7779,1.2866,-0.3812,-0.2641,0.0622,0.0389,-0.007,0.0373,698,2019-08-07 16:48:26:193
-6.3246,-6.8638,1.2489,-0.3812,-0.2641,0.0622,0.0389,-0.007,0.0373,702,2019-08-07 16:48:26:197
-6.3246,-6.8638,1.2489,-0.3235,-0.2204,0.0688,0.0464,0.0218,0.0394,708,2019-08-07 16:48:26:203
-6.3246,-6.8638,1.2489,-0.3235,-0.2204,0.0688,0.0464,0.0218,0.0394,713,2019-08-07 16:48:26:208
-6.3677,-6.7922,1.2724,-0.3235,-0.2204,0.0688,0.0538,0.0399,0.032,717,2019-08-07 16:48:26:212
-6.3677,-6.7922,1.2724,-0.3235,-0.2204,0.0688,0.0538,0.0399,0.032,723,2019-08-07 16:48:26:218
-6.4347,-6.7826,1.263,-0.2528,-0.267,0.0848,0.0485,0.0633,0.033,728,2019-08-07 16:48:26:223
-6.4347,-6.7826,1.263,-0.2528,-0.267,0.0848,0.0485,0.0633,0.033,733,2019-08-07 16:48:26:228
-6.4347,-6.7826,1.263,-0.2528,-0.267,0.0848,0.0432,0.075,0.0266,737,2019-08-07 16:48:26:232
-6.5686,-6.7683,1.3149,-0.2528,-0.267,0.0848,0.0432,0.075,0.0266,743,2019-08-07 16:48:26:238
-6.5686,-6.7683,1.3149,-0.0775,-0.2185,0.0907,0.0443,0.0708,0.0213,748,2019-08-07 16:48:26:243
-6.6164,-6.8113,1.3149,-0.0775,-0.2185,0.0907,0.0443,0.0708,0.0213,753,2019-08-07 16:48:26:248
-6.6164,-6.8113,1.3149,-0.0775,-0.2185,0.0907,0.0443,0.0708,0.0213,758,2019-08-07 16:48:26:253
-6.6164,-6.8113,1.3149,-0.0775,-0.2185,0.0907,0.0432,0.0527,0.0117,763,2019-08-07 16:48:26:258
-6.6834,-6.7445,1.3337,-0.0151,-0.2957,0.0086,0.0432,0.0527,0.0117,768,2019-08-07 16:48:26:263
-6.6834,-6.7445,1.3337,-0.0151,-0.2957,0.0086,0.0379,0.0218,0.0032,773,2019-08-07 16:48:26:268
-6.5733,-6.7492,1.362,-0.0151,-0.2957,0.0086,0.0379,0.0218,0.0032,778,2019-08-07 16:48:26:273
-6.5733,-6.7492,1.362,-0.0151,-0.2957,0.0086,0.0368,0.0015,-0.0032,783,2019-08-07 16:48:26:278
-6.5733,-6.7492,1.362,-0.1122,-0.2984,0.0125,0.0368,0.0015,-0.0032,788,2019-08-07 16:48:26:283
-6.5255,-6.6967,1.3667,-0.1122,-0.2984,0.0125,0.0379,-0.0251,-0.0074,794,2019-08-07 16:48:26:289
-6.5255,-6.6967,1.3667,-0.1122,-0.2984,0.0125,0.0379,-0.0251,-0.0074,798,2019-08-07 16:48:26:293
-6.5255,-6.6967,1.3667,-0.1122,-0.2984,0.0125,0.0379,-0.0251,-0.0074,803,2019-08-07 16:48:26:298
-6.4537,-6.7158,1.3102,-0.2448,-0.3266,0.0548,0.0389,-0.0336,-0.0106,807,2019-08-07 16:48:26:302
-6.4537,-6.7158,1.3102,-0.2448,-0.3266,0.0548,0.0389,-0.0336,-0.0106,813,2019-08-07 16:48:26:308
-6.3963,-6.5917,1.3008,-0.2448,-0.3266,0.0548,0.0325,-0.0347,-0.0096,818,2019-08-07 16:48:26:313
-6.3963,-6.5917,1.3008,-0.2448,-0.3266,0.0548,0.0325,-0.0347,-0.0096,822,2019-08-07 16:48:26:317
-6.3963,-6.5917,1.3008,-0.3481,-0.3889,0.0399,0.0229,-0.023,-0.0085,828,2019-08-07 16:48:26:323
-6.3341,-6.6776,1.2583,-0.3481,-0.3889,0.0399,0.0229,-0.023,-0.0085,833,2019-08-07 16:48:26:328
-6.3341,-6.6776,1.2583,-0.3481,-0.3889,0.0399,0.0187,-0.0027,-0.0085,837,2019-08-07 16:48:26:332
-6.3341,-6.6776,1.2583,-0.3481,-0.3889,0.0399,0.0187,-0.0027,-0.0085,843,2019-08-07 16:48:26:338
-6.3149,-6.7111,1.2678,-0.3324,-0.3514,0.0431,0.0176,0.0271,-0.0085,848,2019-08-07 16:48:26:343
-6.3149,-6.7111,1.2678,-0.3324,-0.3514,0.0431,0.0176,0.0271,-0.0085,853,2019-08-07 16:48:26:348
-6.3867,-6.7158,1.2913,-0.3324,-0.3514,0.0431,0.0176,0.0271,-0.0085,858,2019-08-07 16:48:26:353
-6.3867,-6.7158,1.2913,-0.3324,-0.3514,0.0431,0.0155,0.0655,-0.0106,864,2019-08-07 16:48:26:359
-6.3867,-6.7158,1.2913,-0.2512,-0.3379,0.0804,0.0155,0.0655,-0.0106,867,2019-08-07 16:48:26:362
-6.468,-6.6967,1.2772,-0.2512,-0.3379,0.0804,0.0187,0.0804,-0.0096,873,2019-08-07 16:48:26:368
-6.468,-6.6967,1.2772,-0.2512,-0.3379,0.0804,0.0187,0.0804,-0.0096,879,2019-08-07 16:48:26:374
-6.4823,-6.6824,1.3149,-0.2512,-0.3379,0.0804,0.0155,0.0761,-0.0085,883,2019-08-07 16:48:26:378
-6.4823,-6.6824,1.3149,-0.2335,-0.3572,0.0063,0.0155,0.0761,-0.0085,888,2019-08-07 16:48:26:383
-6.4823,-6.6824,1.3149,-0.2335,-0.3572,0.0063,0.0198,0.0527,-0.0064,893,2019-08-07 16:48:26:388
-6.5015,-6.6824,1.3903,-0.2335,-0.3572,0.0063,0.0198,0.0527,-0.0064,899,2019-08-07 16:48:26:394
-6.5015,-6.6824,1.3903,-0.2335,-0.3572,0.0063,0.024,0.0303,0.0011,903,2019-08-07 16:48:26:398
-6.511,-6.7063,1.3621,-0.2346,-0.3375,0.0184,0.024,0.0303,0.0011,908,2019-08-07 16:48:26:403
-6.511,-6.7063,1.3621,-0.2346,-0.3375,0.0184,0.0261,0.0058,0.0117,913,2019-08-07 16:48:26:408
-6.511,-6.7063,1.3621,-0.2346,-0.3375,0.0184,0.0261,0.0058,0.0117,917,2019-08-07 16:48:26:412
-6.4297,-6.6395,1.4045,-0.2346,-0.3375,0.0184,0.0336,-0.0123,0.0224,923,2019-08-07 16:48:26:418
-6.4297,-6.6395,1.4045,-0.2661,-0.4245,-0.0327,0.0336,-0.0123,0.0224,927,2019-08-07 16:48:26:422
-6.4105,-6.6204,1.2866,-0.2661,-0.4245,-0.0327,0.0368,-0.0208,0.0298,934,2019-08-07 16:48:26:429
-6.4105,-6.6204,1.2866,-0.2661,-0.4245,-0.0327,0.0368,-0.0208,0.0298,937,2019-08-07 16:48:26:432
-6.4105,-6.6204,1.2866,-0.2661,-0.4245,-0.0327,0.0325,-0.0198,0.0341,943,2019-08-07 16:48:26:438
-6.4105,-6.606,1.3479,-0.2944,-0.4236,0.0175,0.0325,-0.0198,0.0341,948,2019-08-07 16:48:26:443
-6.4105,-6.606,1.3479,-0.2944,-0.4236,0.0175,0.0272,-0.0017,0.0309,953,2019-08-07 16:48:26:448
-6.4105,-6.606,1.3479,-0.2944,-0.4236,0.0175,0.0272,-0.0017,0.0309,958,2019-08-07 16:48:26:453
-6.4105,-6.6395,1.2819,-0.2944,-0.4236,0.0175,0.0272,-0.0017,0.0309,962,2019-08-07 16:48:26:457
-6.4105,-6.6395,1.2819,-0.2177,-0.3424,0.1326,0.0198,0.0207,0.0235,968,2019-08-07 16:48:26:463
-6.4105,-6.6395,1.2819,-0.2177,-0.3424,0.1326,0.0198,0.0207,0.0235,972,2019-08-07 16:48:26:467
-6.4966,-6.7302,1.2725,-0.2177,-0.3424,0.1326,0.0102,0.0505,0.0181,978,2019-08-07 16:48:26:473
-6.4966,-6.7302,1.2725,-0.2177,-0.3424,0.1326,0.0102,0.0505,0.0181,983,2019-08-07 16:48:26:478
-6.4822,-6.7731,1.3055,-0.1832,-0.2065,0.1307,0.0027,0.0697,0.0011,988,2019-08-07 16:48:26:483
-6.4822,-6.7731,1.3055,-0.1832,-0.2065,0.1307,0.0027,0.0697,0.0011,993,2019-08-07 16:48:26:488
-6.4822,-6.7731,1.3055,-0.1832,-0.2065,0.1307,-0.0047,0.0814,-0.0096,998,2019-08-07 16:48:26:493
-6.621,-6.7493,1.2914,-0.1832,-0.2065,0.1307,-0.0047,0.0814,-0.0096,1003,2019-08-07 16:48:26:498
-6.621,-6.7493,1.2914,-0.1832,-0.2065,0.1307,-0.0047,0.0729,-0.0096,1008,2019-08-07 16:48:26:503
-6.6162,-6.797,1.3526,-0.0986,-0.2216,0.0062,-0.0047,0.0729,-0.0096,1013,2019-08-07 16:48:26:508
-6.6162,-6.797,1.3526,-0.0986,-0.2216,0.0062,-0.0047,0.0537,-0.0138,1017,2019-08-07 16:48:26:512
-6.6162,-6.797,1.3526,-0.0986,-0.2216,0.0062,-0.0047,0.0537,-0.0138,1023,2019-08-07 16:48:26:518
-6.6257,-6.7636,1.4611,-0.0986,-0.2216,0.0062,0.0016,0.0228,-0.016,1028,2019-08-07 16:48:26:523
-6.6257,-6.7636,1.4611,-0.0698,-0.2849,-0.0755,0.0016,0.0228,-0.016,1032,2019-08-07 16:48:26:527
-6.6401,-6.6729,1.5082,-0.0698,-0.2849,-0.0755,0.0059,-0.0144,-0.0117,1038,2019-08-07 16:48:26:533
-6.6401,-6.6729,1.5082,-0.0698,-0.2849,-0.0755,0.0059,-0.0144,-0.0117,1043,2019-08-07 16:48:26:538
-6.5348,-6.6824,1.4611,-0.1788,-0.3423,-0.1131,0.008,-0.0539,-0.0032,1049,2019-08-07 16:48:26:544
-6.5348,-6.6824,1.4611,-0.1788,-0.3423,-0.1131,0.008,-0.0539,-0.0032,1053,2019-08-07 16:48:26:548
-6.5348,-6.6824,1.4611,-0.1788,-0.3423,-0.1131,0.008,-0.0539,-0.0032,1058,2019-08-07 16:48:26:553
-6.5348,-6.6824,1.4611,-0.1788,-0.3423,-0.1131,0.0038,-0.0634,-0.0053,1063,2019-08-07 16:48:26:558
-6.463,-6.6777,1.3527,-0.1788,-0.3423,-0.1131,0.0038,-0.0634,-0.0053,1068,2019-08-07 16:48:26:563
-6.463,-6.6777,1.3527,-0.2871,-0.3852,0.0656,0.0016,-0.0549,-0.001,1073,2019-08-07 16:48:26:568
-6.3673,-6.6538,1.282,-0.2871,-0.3852,0.0656,0.0016,-0.0549,-0.001,1078,2019-08-07 16:48:26:573
-6.3673,-6.6538,1.282,-0.2871,-0.3852,0.0656,0.0038,-0.0219,-0.0021,1083,2019-08-07 16:48:26:578
-6.353,-6.6729,1.249,-0.2871,-0.3852,0.0656,0.0038,-0.0219,-0.0021,1088,2019-08-07 16:48:26:583
-6.353,-6.6729,1.249,-0.377,-0.3235,0.1632,0.0038,-0.0219,-0.0021,1093,2019-08-07 16:48:26:588
-6.353,-6.6729,1.249,-0.377,-0.3235,0.1632,-5.0E-4,0.026,-0.0074,1098,2019-08-07 16:48:26:593
-6.4534,-6.6729,1.2772,-0.377,-0.3235,0.1632,-5.0E-4,0.026,-0.0074,1103,2019-08-07 16:48:26:598
-6.4534,-6.6729,1.2772,-0.377,-0.3235,0.1632,-0.0037,0.0569,-0.0064,1107,2019-08-07 16:48:26:602
-6.573,-6.6299,1.3385,-0.1814,-0.3672,0.0294,-0.0037,0.0569,-0.0064,1113,2019-08-07 16:48:26:608
-6.573,-6.6299,1.3385,-0.1814,-0.3672,0.0294,-0.0058,0.0601,-0.0064,1118,2019-08-07 16:48:26:613
-6.573,-6.6299,1.3385,-0.1814,-0.3672,0.0294,-0.0058,0.0601,-0.0064,1123,2019-08-07 16:48:26:618
-6.6591,-6.6633,1.4564,-0.1814,-0.3672,0.0294,-0.0058,0.0346,-0.0053,1128,2019-08-07 16:48:26:623
-6.6591,-6.6633,1.4564,-0.0967,-0.3862,-0.2033,-0.0058,0.0346,-0.0053,1134,2019-08-07 16:48:26:629
-6.6591,-6.6633,1.4564,-0.0967,-0.3862,-0.2033,-0.0111,-0.0091,0.0011,1137,2019-08-07 16:48:26:632
-6.6782,-6.6013,1.5082,-0.0967,-0.3862,-0.2033,-0.0111,-0.0091,0.0011,1143,2019-08-07 16:48:26:638
-6.6782,-6.6013,1.5082,-0.0967,-0.3862,-0.2033,-0.0111,-0.0091,0.0011,1148,2019-08-07 16:48:26:643
-6.6304,-6.5917,1.5082,-0.0975,-0.399,-0.1429,-0.0143,-0.0688,0.0053,1153,2019-08-07 16:48:26:648
-6.6304,-6.5917,1.5082,-0.0975,-0.399,-0.1429,-0.0143,-0.0688,0.0053,1158,2019-08-07 16:48:26:653
-6.506,-6.5774,1.4517,-0.0975,-0.399,-0.1429,-0.0239,-0.1071,0.0117,1165,2019-08-07 16:48:26:660
-6.506,-6.5774,1.4517,-0.0975,-0.399,-0.1429,-0.0239,-0.1071,0.0117,1168,2019-08-07 16:48:26:663
-6.506,-6.5774,1.4517,-0.198,-0.4157,-0.1212,-0.0335,-0.1188,0.0192,1173,2019-08-07 16:48:26:668
-6.4773,-6.6586,1.4847,-0.198,-0.4157,-0.1212,-0.0335,-0.1188,0.0192,1178,2019-08-07 16:48:26:673
-6.4773,-6.6586,1.4847,-0.198,-0.4157,-0.1212,-0.0356,-0.1093,0.0181,1184,2019-08-07 16:48:26:679
-6.4773,-6.6586,1.4847,-0.198,-0.4157,-0.1212,-0.0356,-0.1093,0.0181,1188,2019-08-07 16:48:26:683
-6.4773,-6.6586,1.4847,-0.198,-0.4157,-0.1212,-0.0356,-0.1093,0.0181,1193,2019-08-07 16:48:26:688
-6.5729,-6.7159,1.6025,-0.141,-0.3033,-0.2275,-0.0346,-0.0922,0.0256,1198,2019-08-07 16:48:26:693
-6.5729,-6.7159,1.6025,-0.141,-0.3033,-0.2275,-0.0346,-0.0922,0.0256,1203,2019-08-07 16:48:26:698
-6.7499,-6.7636,1.6544,-0.141,-0.3033,-0.2275,-0.0261,-0.0848,0.0298,1208,2019-08-07 16:48:26:703
-6.7499,-6.7636,1.6544,0.1246,-0.2133,-0.3356,-0.0261,-0.0848,0.0298,1213,2019-08-07 16:48:26:708
-6.836,-6.8113,1.7675,0.1246,-0.2133,-0.3356,-0.0218,-0.0943,0.032,1218,2019-08-07 16:48:26:713
-6.836,-6.8113,1.7675,0.1246,-0.2133,-0.3356,-0.0218,-0.0943,0.032,1223,2019-08-07 16:48:26:718
-6.836,-6.8113,1.7675,0.1246,-0.2133,-0.3356,-0.0154,-0.1252,0.0373,1228,2019-08-07 16:48:26:723
-7.0752,-6.7827,2.0221,0.4321,-0.1874,-0.6721,-0.0154,-0.1252,0.0373,1233,2019-08-07 16:48:26:728
-7.0752,-6.7827,2.0221,0.4321,-0.1874,-0.6721,-0.0154,-0.1252,0.0373,1238,2019-08-07 16:48:26:733
-7.0752,-6.7827,2.0221,0.4321,-0.1874,-0.6721,0.0038,-0.2147,0.0565,1243,2019-08-07 16:48:26:738
-7.2809,-6.8352,2.4369,0.4321,-0.1874,-0.6721,0.0038,-0.2147,0.0565,1248,2019-08-07 16:48:26:743
-7.2809,-6.8352,2.4369,0.7583,-0.2471,-1.5459,0.0272,-0.3106,0.0671,1254,2019-08-07 16:48:26:749
-7.6732,-6.6968,3.1345,0.7583,-0.2471,-1.5459,0.0272,-0.3106,0.0671,1258,2019-08-07 16:48:26:753
-7.6732,-6.6968,3.1345,0.7583,-0.2471,-1.5459,0.0272,-0.3106,0.0671,1263,2019-08-07 16:48:26:758
-7.6732,-6.6968,3.1345,0.7583,-0.2471,-1.5459,0.0453,-0.4693,0.0863,1268,2019-08-07 16:48:26:763
-8.2378,-6.649,3.8322,1.6845,-0.3423,-2.4157,0.0453,-0.4693,0.0863,1273,2019-08-07 16:48:26:768
-8.2378,-6.649,3.8322,1.6845,-0.3423,-2.4157,0.0229,-0.7431,0.0959,1278,2019-08-07 16:48:26:773
-9.0606,-6.7254,4.6807,1.6845,-0.3423,-2.4157,0.0229,-0.7431,0.0959,1283,2019-08-07 16:48:26:778
-9.0606,-6.7254,4.6807,1.6845,-0.3423,-2.4157,-0.0261,-1.1447,0.1087,1288,2019-08-07 16:48:26:783
-9.0606,-6.7254,4.6807,1.6845,-0.3423,-2.4157,-0.0261,-1.1447,0.1087,1293,2019-08-07 16:48:26:788
-9.7495,-6.7875,5.581,2.8229,-0.2127,-3.8107,-0.0261,-1.1447,0.1087,1298,2019-08-07 16:48:26:793
-9.7495,-6.7875,5.581,2.8229,-0.2127,-3.8107,-0.0729,-1.5601,0.1076,1302,2019-08-07 16:48:26:797
-9.7495,-6.7875,5.581,2.8229,-0.2127,-3.8107,-0.0729,-1.5601,0.1076,1308,2019-08-07 16:48:26:803
-9.8644,-6.7445,6.1655,2.8229,-0.2127,-3.8107,-0.1368,-1.9298,0.0938,1313,2019-08-07 16:48:26:808
-9.8644,-6.7445,6.1655,3.0493,-0.2994,-4.5149,-0.1368,-1.9298,0.0938,1318,2019-08-07 16:48:26:813
-9.252,-6.3769,6.9527,3.0493,-0.2994,-4.5149,-0.1795,-2.1609,0.0213,1323,2019-08-07 16:48:26:818
-9.252,-6.3769,6.9527,3.0493,-0.2994,-4.5149,-0.1795,-2.1609,0.0213,1327,2019-08-07 16:48:26:822
-9.252,-6.3769,6.9527,2.6969,-0.8847,-5.6288,-0.0708,-2.1077,0.0139,1334,2019-08-07 16:48:26:829
-9.3716,-5.9998,8.1453,2.6969,-0.8847,-5.6288,-0.0708,-2.1077,0.0139,1338,2019-08-07 16:48:26:833
-9.3716,-5.9998,8.1453,2.6969,-0.8847,-5.6288,0.0943,-1.9511,0.0639,1344,2019-08-07 16:48:26:839
-9.3716,-5.9998,8.1453,2.6969,-0.8847,-5.6288,0.0943,-1.9511,0.0639,1348,2019-08-07 16:48:26:843
-10.1179,-5.4174,9.7763,2.6969,-0.8847,-5.6288,0.0943,-1.9511,0.0639,1353,2019-08-07 16:48:26:848
-10.1179,-5.4174,9.7763,4.1347,-1.7528,-8.0845,0.2008,-1.9277,0.1353,1358,2019-08-07 16:48:26:853
-11.6488,-4.4817,11.6477,4.1347,-1.7528,-8.0845,0.2008,-1.9277,0.1353,1362,2019-08-07 16:48:26:857
-11.6488,-4.4817,11.6477,4.1347,-1.7528,-8.0845,0.204,-2.1471,0.2493,1368,2019-08-07 16:48:26:863
-13.2563,-3.8468,13.2174,6.8092,-2.9743,-10.3639,0.204,-2.1471,0.2493,1373,2019-08-07 16:48:26:868
-13.2563,-3.8468,13.2174,6.8092,-2.9743,-10.3639,0.1188,-2.8108,0.4229,1378,2019-08-07 16:48:26:873
-13.2563,-3.8468,13.2174,6.8092,-2.9743,-10.3639,0.1188,-2.8108,0.4229,1384,2019-08-07 16:48:26:879
-14.7825,-3.5556,13.882,6.8092,-2.9743,-10.3639,0.1188,-2.8108,0.4229,1388,2019-08-07 16:48:26:883
-14.7825,-3.5556,13.882,6.8092,-2.9743,-10.3639,-0.0463,-3.7972,0.6019,1393,2019-08-07 16:48:26:888
-14.7825,-3.5556,13.882,8.9725,-3.2003,-10.5959,-0.0463,-3.7972,0.6019,1398,2019-08-07 16:48:26:893
-15.3135,-3.5843,13.6086,8.9725,-3.2003,-10.5959,-0.2199,-4.9083,0.7382,1403,2019-08-07 16:48:26:898
-15.3135,-3.5843,13.6086,8.9725,-3.2003,-10.5959,-0.2199,-4.9083,0.7382,1408,2019-08-07 16:48:26:903
-15.1748,-4.0855,13.0383,8.9725,-3.2003,-10.5959,-0.2199,-4.9083,0.7382,1413,2019-08-07 16:48:26:908
-15.1748,-4.0855,13.0383,9.0902,-2.4215,-9.0197,-0.3701,-5.883,0.8107,1419,2019-08-07 16:48:26:914
-15.1748,-4.0855,13.0383,9.0902,-2.4215,-9.0197,-0.3701,-5.883,0.8107,1422,2019-08-07 16:48:26:917
-14.5528,-4.4865,12.1756,9.0902,-2.4215,-9.0197,-0.4607,-6.4231,0.8991,1428,2019-08-07 16:48:26:923
-14.5528,-4.4865,12.1756,9.0902,-2.4215,-9.0197,-0.4607,-6.4231,0.8991,1433,2019-08-07 16:48:26:928
-13.5242,-4.434,11.6996,8.009,-1.979,-7.0211,-0.6066,-6.6659,0.9822,1438,2019-08-07 16:48:26:933
-13.5242,-4.434,11.6996,8.009,-1.979,-7.0211,-0.6066,-6.6659,0.9822,1443,2019-08-07 16:48:26:938
-13.5242,-4.434,11.6996,8.0837,-2.4412,-7.6037,-0.6066,-6.6659,0.9822,1448,2019-08-07 16:48:26:943
-13.6246,-3.6463,13.1137,8.0837,-2.4412,-7.6037,-0.7526,-6.6436,1.0632,1453,2019-08-07 16:48:26:948
-13.6246,-3.6463,13.1137,8.0837,-2.4412,-7.6037,-0.7526,-6.6436,1.0632,1458,2019-08-07 16:48:26:953
-13.6246,-3.6463,13.1137,8.0837,-2.4412,-7.6037,-0.9869,-6.5317,1.1825,1463,2019-08-07 16:48:26:958
-14.8876,-2.8014,14.2167,10.4576,-3.7594,-8.9185,-0.9869,-6.5317,1.1825,1468,2019-08-07 16:48:26:963
-14.8876,-2.8014,14.2167,10.4576,-3.7594,-8.9185,-1.5366,-6.797,1.3231,1473,2019-08-07 16:48:26:968
-18.0739,-2.028,16.3049,10.4576,-3.7594,-8.9185,-1.5366,-6.797,1.3231,1478,2019-08-07 16:48:26:973
-18.0739,-2.028,16.3049,10.4576,-3.7594,-8.9185,-1.8828,-7.2369,1.4179,1483,2019-08-07 16:48:26:978
-18.0739,-2.028,16.3049,16.5174,-5.7371,-9.9176,-1.8828,-7.2369,1.4179,1488,2019-08-07 16:48:26:983
-21.5856,-0.0469,15.0417,16.5174,-5.7371,-9.9176,-2.4357,-8.3874,1.6576,1493,2019-08-07 16:48:26:988
-21.5856,-0.0469,15.0417,16.5174,-5.7371,-9.9176,-2.4357,-8.3874,1.6576,1499,2019-08-07 16:48:26:994
-21.5856,-0.0469,15.0417,16.5174,-5.7371,-9.9176,-2.8288,-9.4772,1.9239,1503,2019-08-07 16:48:26:998
-20.3321,0.7169,10.309,16.1381,-7.2645,-2.7181,-2.8288,-9.4772,1.9239,1508,2019-08-07 16:48:27:003
-20.3321,0.7169,10.309,16.1381,-7.2645,-2.7181,-3.0929,-9.9949,2.2435,1513,2019-08-07 16:48:27:008
-15.433,-0.6913,5.6847,16.1381,-7.2645,-2.7181,-3.0929,-9.9949,2.2435,1518,2019-08-07 16:48:27:013
-15.433,-0.6913,5.6847,16.1381,-7.2645,-2.7181,-3.1175,-9.5731,2.5971,1523,2019-08-07 16:48:27:018
-15.433,-0.6913,5.6847,7.7927,-4.3874,3.8744,-3.1175,-9.5731,2.5971,1528,2019-08-07 16:48:27:023
-9.2374,-2.8921,1.6922,7.7927,-4.3874,3.8744,-3.0056,-8.3097,2.8326,1533,2019-08-07 16:48:27:028
-9.2374,-2.8921,1.6922,7.7927,-4.3874,3.8744,-3.0056,-8.3097,2.8326,1538,2019-08-07 16:48:27:033
-9.2374,-2.8921,1.6922,7.7927,-4.3874,3.8744,-3.0056,-8.3097,2.8326,1543,2019-08-07 16:48:27:038
-6.7496,-4.2526,-0.6883,5.3021,-2.4667,6.3969,-2.9246,-6.3592,2.9455,1548,2019-08-07 16:48:27:043
-6.7496,-4.2526,-0.6883,5.3021,-2.4667,6.3969,-2.9246,-6.3592,2.9455,1553,2019-08-07 16:48:27:048
-10.5817,-4.773,1.4376,5.3021,-2.4667,6.3969,-2.7904,-4.1466,3.0137,1558,2019-08-07 16:48:27:053
-10.5817,-4.773,1.4376,5.3021,-2.4667,6.3969,-2.7904,-4.1466,3.0137,1563,2019-08-07 16:48:27:058
-10.5817,-4.773,1.4376,14.3437,-3.8384,3.6268,-2.7233,-3.4936,3.0232,1568,2019-08-07 16:48:27:063
-17.916,-3.1689,2.2814,14.3437,-3.8384,3.6268,-2.7233,-3.4936,3.0232,1573,2019-08-07 16:48:27:068
-17.916,-3.1689,2.2814,14.3437,-3.8384,3.6268,-2.7233,-3.4936,3.0232,1578,2019-08-07 16:48:27:073
-23.37,-1.9898,1.8619,14.3437,-3.8384,3.6268,-2.8799,-4.0976,3.0658,1584,2019-08-07 16:48:27:079
-23.37,-1.9898,1.8619,22.3298,-5.9429,5.9511,-2.8799,-4.0976,3.0658,1588,2019-08-07 16:48:27:083
-23.37,-1.9898,1.8619,22.3298,-5.9429,5.9511,-3.1803,-5.5815,3.1372,1593,2019-08-07 16:48:27:088
-24.1594,-1.3215,-2.588,22.3298,-5.9429,5.9511,-3.1803,-5.5815,3.1372,1598,2019-08-07 16:48:27:093
-24.1594,-1.3215,-2.588,20.4584,-6.4833,10.5009,-3.4956,-6.4593,3.0818,1603,2019-08-07 16:48:27:098
-15.6195,-1.4886,-8.895,20.4584,-6.4833,10.5009,-3.4956,-6.4593,3.0818,1608,2019-08-07 16:48:27:103
-15.6195,-1.4886,-8.895,20.4584,-6.4833,10.5009,-4.1369,-8.2021,2.7484,1613,2019-08-07 16:48:27:108
-15.6195,-1.4886,-8.895,8.771,-6.2086,17.0695,-4.1369,-8.2021,2.7484,1618,2019-08-07 16:48:27:113
-9.5052,-2.0423,-11.9637,8.771,-6.2086,17.0695,-4.5129,-9.2481,2.334,1623,2019-08-07 16:48:27:118
-9.5052,-2.0423,-11.9637,8.771,-6.2086,17.0695,-4.5129,-9.2481,2.334,1628,2019-08-07 16:48:27:123
-3.9746,-3.9566,-7.1839,5.7143,-5.4874,17.3422,-4.5428,-8.9882,1.893,1634,2019-08-07 16:48:27:129
-3.9746,-3.9566,-7.1839,5.7143,-5.4874,17.3422,-4.5428,-8.9882,1.893,1637,2019-08-07 16:48:27:132
-3.9746,-3.9566,-7.1839,5.7143,-5.4874,17.3422,-4.5428,-8.9882,1.893,1643,2019-08-07 16:48:27:138
-0.5395,-5.1549,-15.1455,-1.2261,-3.3431,19.519,-3.7183,-4.1402,1.2048,1648,2019-08-07 16:48:27:143
-0.5395,-5.1549,-15.1455,-1.2261,-3.3431,19.519,-3.4125,-2.0555,0.6679,1653,2019-08-07 16:48:27:148
-0.5395,-5.1549,-15.1455,-1.2261,-3.3431,19.519,-3.4125,-2.0555,0.6679,1658,2019-08-07 16:48:27:153
-5.9026,-5.2551,-16.324,4.9581,-3.5838,20.4734,-3.0439,0.6034,0.3675,1663,2019-08-07 16:48:27:158
-5.9026,-5.2551,-16.324,4.9581,-3.5838,20.4734,-3.0439,0.6034,0.3675,1668,2019-08-07 16:48:27:163
-8.3904,-6.9212,5.944,4.9581,-3.5838,20.4734,-2.4868,2.1896,0.0522,1673,2019-08-07 16:48:27:168
-8.3904,-6.9212,5.944,4.9581,-3.5838,20.4734,-2.4868,2.1896,0.0522,1678,2019-08-07 16:48:27:173
-8.3904,-6.9212,5.944,7.3592,-2.8028,10.5624,-2.4868,2.1896,0.0522,1683,2019-08-07 16:48:27:178
-9.7826,-5.6943,-9.9132,7.3592,-2.8028,10.5624,-1.7742,1.0029,-0.506,1688,2019-08-07 16:48:27:183
-9.7826,-5.6943,-9.9132,7.3592,-2.8028,10.5624,-1.7742,1.0029,-0.506,1692,2019-08-07 16:48:27:187
-8.4383,-5.2742,-6.8964,7.3592,-2.8028,10.5624,-1.6016,-1.3098,-0.8,1698,2019-08-07 16:48:27:193
-8.4383,-5.2742,-6.8964,7.534,-3.9812,11.0528,-1.6016,-1.3098,-0.8,1703,2019-08-07 16:48:27:198
-8.4383,-5.2742,-6.8964,7.534,-3.9812,11.0528,-1.6016,-1.3098,-0.8,1708,2019-08-07 16:48:27:203
-7.0173,-5.6275,-7.7354,7.534,-3.9812,11.0528,-1.6229,-5.1213,-0.8224,1712,2019-08-07 16:48:27:207
-7.0173,-5.6275,-7.7354,7.534,-3.9812,11.0528,-1.6229,-5.1213,-0.8224,1719,2019-08-07 16:48:27:214
-7.0173,-5.6275,-7.7354,3.7307,-2.8739,10.5595,-1.3992,-7.7312,-0.7286,1722,2019-08-07 16:48:27:217
-1.3575,-7.3842,-6.1186,3.7307,-2.8739,10.5595,-1.3992,-7.7312,-0.7286,1728,2019-08-07 16:48:27:223
-1.3575,-7.3842,-6.1186,3.7307,-2.8739,10.5595,-0.4926,-7.5863,-0.849,1733,2019-08-07 16:48:27:228
0.5897,-8.3629,-14.7967,3.7307,-2.8739,10.5595,-0.4926,-7.5863,-0.849,1738,2019-08-07 16:48:27:233
0.5897,-8.3629,-14.7967,-1.8025,-0.5556,18.1571,-0.4926,-7.5863,-0.849,1743,2019-08-07 16:48:27:238
0.5897,-8.3629,-14.7967,-1.8025,-0.5556,18.1571,0.2765,-4.3426,-0.7979,1748,2019-08-07 16:48:27:243
6.1202,-10.091,-18.2331,-1.8025,-0.5556,18.1571,0.2765,-4.3426,-0.7979,1753,2019-08-07 16:48:27:248
6.1202,-10.091,-18.2331,-1.8025,-0.5556,18.1571,0.2307,-1.5974,-0.7041,1758,2019-08-07 16:48:27:253
7.4551,-11.0505,-15.3859,-7.1759,1.4821,19.2663,0.2307,-1.5974,-0.7041,1763,2019-08-07 16:48:27:258
7.4551,-11.0505,-15.3859,-7.1759,1.4821,19.2663,0.3681,1.5685,-0.8277,1769,2019-08-07 16:48:27:264
7.4551,-11.0505,-15.3859,-7.1759,1.4821,19.2663,0.3681,1.5685,-0.8277,1773,2019-08-07 16:48:27:268
5.6897,-10.8023,-3.5024,-7.1759,1.4821,19.2663,0.7399,2.8192,-0.8788,1778,2019-08-07 16:48:27:273
5.6897,-10.8023,-3.5024,-5.0272,1.8705,-3.9762,0.7399,2.8192,-0.8788,1783,2019-08-07 16:48:27:278
5.6897,-10.8023,-3.5024,-5.0272,1.8705,-3.9762,1.8477,1.7731,-0.8128,1788,2019-08-07 16:48:27:283
1.3265,-9.9908,-3.8135,-5.0272,1.8705,-3.9762,1.8477,1.7731,-0.8128,1792,2019-08-07 16:48:27:287
1.3265,-9.9908,-3.8135,-5.0272,1.8705,-3.9762,1.8477,1.7731,-0.8128,1798,2019-08-07 16:48:27:293
1.3265,-9.9908,-3.8135,-0.3963,-1.025,10.5455,1.8882,1.641,-0.7116,1803,2019-08-07 16:48:27:298
0.6471,-6.7302,-5.1145,-0.3963,-1.025,10.5455,1.8882,1.641,-0.7116,1808,2019-08-07 16:48:27:303
0.6471,-6.7302,-5.1145,-0.3963,-1.025,10.5455,1.0882,1.347,-0.7265,1813,2019-08-07 16:48:27:308
0.3649,-5.174,-5.1004,-0.3963,-1.025,10.5455,1.0882,1.347,-0.7265,1819,2019-08-07 16:48:27:314
0.3649,-5.174,-5.1004,-0.064,-4.0635,7.0944,0.6131,1.0157,-0.5092,1823,2019-08-07 16:48:27:318
0.3649,-5.174,-5.1004,-0.064,-4.0635,7.0944,0.6131,1.0157,-0.5092,1829,2019-08-07 16:48:27:324
2.2116,-6.587,-2.6822,-1.8084,-2.6394,5.9909,0.857,1.1829,-0.4399,1833,2019-08-07 16:48:27:328
2.2116,-6.587,-2.6822,-1.8084,-2.6394,5.9909,0.857,1.1829,-0.4399,1838,2019-08-07 16:48:27:333
2.2116,-6.587,-2.6822,-1.8084,-2.6394,5.9909,0.857,1.1829,-0.4399,1843,2019-08-07 16:48:27:338
2.7522,-7.3079,-6.161,-1.8084,-2.6394,5.9909,1.1223,1.7518,-0.3718,1848,2019-08-07 16:48:27:343
2.7522,-7.3079,-6.161,-2.2995,-2.1266,9.8424,1.1223,1.7518,-0.3718,1853,2019-08-07 16:48:27:348
2.4365,-6.9451,-6.1186,-2.2995,-2.1266,9.8424,1.1223,3.1579,-0.2524,1858,2019-08-07 16:48:27:353
2.4365,-6.9451,-6.1186,-2.2995,-2.1266,9.8424,1.1223,3.1579,-0.2524,1863,2019-08-07 16:48:27:358
2.4365,-6.9451,-6.1186,-2.2995,-2.1266,9.8424,1.2075,4.123,-0.229,1869,2019-08-07 16:48:27:364
0.1927,-6.821,-5.5812,0.5071,-2.3144,8.9578,1.2075,4.123,-0.229,1873,2019-08-07 16:48:27:368
0.1927,-6.821,-5.5812,0.5071,-2.3144,8.9578,1.3694,4.8527,-0.2109,1878,2019-08-07 16:48:27:373
-2.7113,-6.439,-4.6196,2.7219,-2.6342,8.3494,1.3694,4.8527,-0.2109,1883,2019-08-07 16:48:27:378
-2.7113,-6.439,-4.6196,2.7219,-2.6342,8.3494,1.4611,5.1425,-0.1832,1888,2019-08-07 16:48:27:383
-2.7113,-6.439,-4.6196,2.7219,-2.6342,8.3494,1.4611,5.1425,-0.1832,1893,2019-08-07 16:48:27:388
-5.1321,-5.8519,-2.8754,2.7219,-2.6342,8.3494,1.5452,5.2916,-0.2077,1898,2019-08-07 16:48:27:393
-5.1321,-5.8519,-2.8754,5.4501,-3.4299,6.473,1.5452,5.2916,-0.2077,1903,2019-08-07 16:48:27:398
-5.1321,-5.8519,-2.8754,5.4501,-3.4299,6.473,1.509,5.232,-0.2993,1908,2019-08-07 16:48:27:403
-7.0123,-5.1835,-2.0882,5.4501,-3.4299,6.473,1.509,5.232,-0.2993,1913,2019-08-07 16:48:27:408
-7.0123,-5.1835,-2.0882,5.4501,-3.4299,6.473,1.3513,5.0083,-0.3355,1918,2019-08-07 16:48:27:413
-7.0123,-5.1835,-2.0882,7.1423,-4.1041,6.077,1.3513,5.0083,-0.3355,1923,2019-08-07 16:48:27:418
-7.9357,-4.8064,-2.0647,7.1423,-4.1041,6.077,1.1532,4.791,-0.2983,1928,2019-08-07 16:48:27:423
-7.9357,-4.8064,-2.0647,6.0662,-3.4227,6.7045,1.1532,4.791,-0.2983,1933,2019-08-07 16:48:27:428
-6.3569,-5.9999,-3.0923,6.0662,-3.4227,6.7045,1.1532,4.791,-0.2983,1938,2019-08-07 16:48:27:433
-6.3569,-5.9999,-3.0923,6.0662,-3.4227,6.7045,1.0733,5.0615,-0.3238,1943,2019-08-07 16:48:27:438
-6.3569,-5.9999,-3.0923,6.0662,-3.4227,6.7045,1.0733,5.0615,-0.3238,1947,2019-08-07 16:48:27:442
-5.1369,-7.1169,-4.7751,3.3255,-1.2468,9.961,1.15,5.7699,-0.4005,1953,2019-08-07 16:48:27:448
-5.1369,-7.1169,-4.7751,3.3255,-1.2468,9.961,1.15,5.7699,-0.4005,1958,2019-08-07 16:48:27:453
-4.6249,-7.9905,-6.9199,2.9497,-0.6557,11.1944,1.3247,7.2027,-0.4591,1963,2019-08-07 16:48:27:458
-4.6249,-7.9905,-6.9199,2.9497,-0.6557,11.1944,1.3247,7.2027,-0.4591,1967,2019-08-07 16:48:27:462
-5.644,-8.4011,-6.3636,2.9497,-0.6557,11.1944,1.5931,8.4725,-0.4623,1973,2019-08-07 16:48:27:468
-5.644,-8.4011,-6.3636,2.9497,-0.6557,11.1944,1.5931,8.4725,-0.4623,1978,2019-08-07 16:48:27:473
-5.644,-8.4011,-6.3636,2.9497,-0.6557,11.1944,1.5931,8.4725,-0.4623,1983,2019-08-07 16:48:27:478
-9.0025,-8.5825,-4.2943,5.3481,-0.029,9.2438,1.9255,9.5378,-0.3952,1988,2019-08-07 16:48:27:483
-9.0025,-8.5825,-4.2943,5.3481,-0.029,9.2438,1.9255,9.5378,-0.3952,1993,2019-08-07 16:48:27:488
-9.0025,-8.5825,-4.2943,5.3481,-0.029,9.2438,2.2451,10.1322,-0.3014,1999,2019-08-07 16:48:27:494
-12.8873,-7.7184,-0.8296,5.3481,-0.029,9.2438,2.2451,10.1322,-0.3014,2002,2019-08-07 16:48:27:497
-12.8873,-7.7184,-0.8296,10.5368,-1.0563,3.8816,2.341,9.8861,-0.1992,2008,2019-08-07 16:48:27:503
-15.9348,-6.1144,1.4189,10.5368,-1.0563,3.8816,2.341,9.8861,-0.1992,2013,2019-08-07 16:48:27:508
-15.9348,-6.1144,1.4189,10.5368,-1.0563,3.8816,2.1279,8.9615,-0.0692,2018,2019-08-07 16:48:27:513
-15.9348,-6.1144,1.4189,12.647,-3.0561,2.5934,2.1279,8.9615,-0.0692,2023,2019-08-07 16:48:27:518
-16.3176,-5.1931,0.7684,12.647,-3.0561,2.5934,1.6901,7.6917,0.0309,2028,2019-08-07 16:48:27:523
-16.3176,-5.1931,0.7684,12.647,-3.0561,2.5934,1.6901,7.6917,0.0309,2034,2019-08-07 16:48:27:529
-16.3176,-5.1931,0.7684,10.8285,-2.9021,3.6651,1.6901,7.6917,0.0309,2038,2019-08-07 16:48:27:533
-14.2795,-5.4557,-0.9239,10.8285,-2.9021,3.6651,1.2288,6.4698,0.1215,2043,2019-08-07 16:48:27:538
-14.2795,-5.4557,-0.9239,10.8285,-2.9021,3.6651,1.2288,6.4698,0.1215,2048,2019-08-07 16:48:27:543
-10.8061,-6.9785,-3.1158,5.0683,-0.6764,5.365,0.9476,6.2269,0.2291,2053,2019-08-07 16:48:27:548
-10.8061,-6.9785,-3.1158,5.0683,-0.6764,5.365,0.9476,6.2269,0.2291,2058,2019-08-07 16:48:27:553
-10.8061,-6.9785,-3.1158,5.0683,-0.6764,5.365,1.2885,7.5979,0.293,2063,2019-08-07 16:48:27:558
-9.4139,-8.7782,-2.0646,5.0683,-0.6764,5.365,1.2885,7.5979,0.293,2069,2019-08-07 16:48:27:564
-9.4139,-8.7782,-2.0646,5.0683,-0.6764,5.365,1.6794,9.2491,0.3643,2072,2019-08-07 16:48:27:567
-13.8249,-9.0074,0.0566,7.5738,1.15,3.1478,1.6794,9.2491,0.3643,2078,2019-08-07 16:48:27:573
-13.8249,-9.0074,0.0566,7.5738,1.15,3.1478,1.8328,10.1151,0.3931,2084,2019-08-07 16:48:27:579
-13.8249,-9.0074,0.0566,7.5738,1.15,3.1478,1.8328,10.1151,0.3931,2088,2019-08-07 16:48:27:583
-19.7095,-7.3318,3.7946,7.5738,1.15,3.1478,1.8328,10.1151,0.3931,2093,2019-08-07 16:48:27:588
-19.7095,-7.3318,3.7946,15.47,-1.1243,-2.8382,1.8073,9.7796,0.4101,2098,2019-08-07 16:48:27:593
-22.6135,-5.9569,4.3509,15.47,-1.1243,-2.8382,1.8073,9.7796,0.4101,2103,2019-08-07 16:48:27:598
-22.6135,-5.9569,4.3509,15.47,-1.1243,-2.8382,1.5324,8.2552,0.2759,2108,2019-08-07 16:48:27:603
-22.6135,-5.9569,4.3509,15.47,-1.1243,-2.8382,1.5324,8.2552,0.2759,2113,2019-08-07 16:48:27:608
-22.0251,-5.2981,4.3037,16.1312,-2.5043,-3.5156,1.2927,6.6648,0.1119,2118,2019-08-07 16:48:27:613
-22.0251,-5.2981,4.3037,16.1312,-2.5043,-3.5156,1.2927,6.6648,0.1119,2123,2019-08-07 16:48:27:618
-22.0251,-5.2981,4.3037,16.1312,-2.5043,-3.5156,1.1468,4.8442,0.0032,2128,2019-08-07 16:48:27:623
-18.4704,-5.5416,3.9549,11.3271,-1.9949,-3.6722,1.1468,4.8442,0.0032,2134,2019-08-07 16:48:27:629
-18.4704,-5.5416,3.9549,11.3271,-1.9949,-3.6722,1.2182,2.9395,0.0789,2138,2019-08-07 16:48:27:633
-18.4704,-5.5416,3.9549,11.3271,-1.9949,-3.6722,1.2182,2.9395,0.0789,2142,2019-08-07 16:48:27:637
-16.4035,-6.124,3.3138,10.5901,-1.7762,0.6622,1.591,3.8386,0.244,2148,2019-08-07 16:48:27:643
-16.4035,-6.124,3.3138,10.5901,-1.7762,0.6622,1.591,3.8386,0.244,2153,2019-08-07 16:48:27:648
-16.4035,-6.124,3.3138,10.5901,-1.7762,0.6622,1.591,3.8386,0.244,2158,2019-08-07 16:48:27:653
-13.3655,-5.723,4.7091,10.5901,-1.7762,0.6622,1.6368,3.9718,0.3271,2163,2019-08-07 16:48:27:658
-13.3655,-5.723,4.7091,8.8164,-2.4555,-4.5929,1.6368,3.9718,0.3271,2168,2019-08-07 16:48:27:663
-16.3509,-4.9544,7.9098,8.8164,-2.4555,-4.5929,1.5484,4.0623,0.3835,2173,2019-08-07 16:48:27:668
-16.3509,-4.9544,7.9098,8.8164,-2.4555,-4.5929,1.5484,4.0623,0.3835,2178,2019-08-07 16:48:27:673
-16.3509,-4.9544,7.9098,8.8164,-2.4555,-4.5929,1.4994,3.3529,0.4474,2183,2019-08-07 16:48:27:678
-17.212,-5.5846,8.7159,11.1201,-2.1365,-8.8524,1.4994,3.3529,0.4474,2188,2019-08-07 16:48:27:683
-17.212,-5.5846,8.7159,11.1201,-2.1365,-8.8524,1.4994,3.3529,0.4474,2193,2019-08-07 16:48:27:688
-17.212,-5.5846,8.7159,10.2403,-1.6475,-9.0514,1.3971,2.1171,0.375,2198,2019-08-07 16:48:27:693
-16.1595,-5.9903,8.8903,10.2403,-1.6475,-9.0514,1.3971,2.1171,0.375,2203,2019-08-07 16:48:27:698
-16.1595,-5.9903,8.8903,10.2403,-1.6475,-9.0514,1.3844,0.9272,0.3089,2208,2019-08-07 16:48:27:703
-14.4132,-6.1288,8.1785,10.2403,-1.6475,-9.0514,1.3844,0.9272,0.3089,2213,2019-08-07 16:48:27:708
-14.4132,-6.1288,8.1785,6.5135,-1.2404,-7.3153,1.4419,0.5246,0.3313,2219,2019-08-07 16:48:27:714
-14.4132,-6.1288,8.1785,6.5135,-1.2404,-7.3153,1.4419,0.5246,0.3313,2222,2019-08-07 16:48:27:717
-11.5092,-6.377,6.4344,6.5135,-1.2404,-7.3153,1.5164,0.237,0.3835,2228,2019-08-07 16:48:27:723
-11.5092,-6.377,6.4344,6.5135,-1.2404,-7.3153,1.5164,0.237,0.3835,2233,2019-08-07 16:48:27:728
-9.9208,-6.2386,4.53,3.5198,-1.1928,-4.3356,1.5122,0.3019,0.3952,2237,2019-08-07 16:48:27:732
-9.9208,-6.2386,4.53,3.5198,-1.1928,-4.3356,1.5122,0.3019,0.3952,2243,2019-08-07 16:48:27:738
-9.1266,-6.0476,3.4458,3.5198,-1.1928,-4.3356,1.5037,0.5065,0.4144,2248,2019-08-07 16:48:27:743
-9.1266,-6.0476,3.4458,3.5198,-1.1928,-4.3356,1.5037,0.5065,0.4144,2253,2019-08-07 16:48:27:748
-9.1266,-6.0476,3.4458,2.2979,-1.4182,-2.5077,1.5037,0.5065,0.4144,2258,2019-08-07 16:48:27:753
-8.7917,-5.9426,2.7152,2.2979,-1.4182,-2.5077,1.4951,0.9326,0.359,2263,2019-08-07 16:48:27:758
-8.7917,-5.9426,2.7152,2.2979,-1.4182,-2.5077,1.4951,0.9326,0.359,2268,2019-08-07 16:48:27:763
-9.2988,-5.4509,2.4324,2.2979,-1.4182,-2.5077,1.3662,1.2649,0.2237,2273,2019-08-07 16:48:27:768
-9.2988,-5.4509,2.4324,2.9799,-1.9534,-2.0532,1.3662,1.2649,0.2237,2279,2019-08-07 16:48:27:774
-9.2988,-5.4509,2.4324,2.9799,-1.9534,-2.0532,1.3662,1.2649,0.2237,2283,2019-08-07 16:48:27:778
-9.5763,-5.2456,2.6021,2.9799,-1.9534,-2.0532,1.1937,1.3225,0.0661,2287,2019-08-07 16:48:27:782
-9.5763,-5.2456,2.6021,2.9799,-1.9534,-2.0532,1.1937,1.3225,0.0661,2293,2019-08-07 16:48:27:788
-9.1888,-5.4461,2.1166,2.6022,-1.8084,-1.6421,1.0903,1.2372,-0.0415,2297,2019-08-07 16:48:27:792
-9.1888,-5.4461,2.1166,2.6022,-1.8084,-1.6421,1.0903,1.2372,-0.0415,2303,2019-08-07 16:48:27:798
-9.1888,-5.4461,2.1166,2.6022,-1.8084,-1.6421,0.9923,1.0966,-0.1044,2307,2019-08-07 16:48:27:802
-8.5668,-5.9999,2.0364,2.6022,-1.8084,-1.6421,0.9923,1.0966,-0.1044,2313,2019-08-07 16:48:27:808
-8.5668,-5.9999,2.0364,1.9334,-1.1743,-1.7414,0.9146,0.9049,-0.1225,2318,2019-08-07 16:48:27:813
-8.5381,-6.0524,2.4654,1.9334,-1.1743,-1.7414,0.9146,0.9049,-0.1225,2323,2019-08-07 16:48:27:818
-8.5381,-6.0524,2.4654,1.9334,-1.1743,-1.7414,0.84,0.6535,-0.1001,2328,2019-08-07 16:48:27:823
-8.5381,-6.0524,2.4654,1.9334,-1.1743,-1.7414,0.84,0.6535,-0.1001,2333,2019-08-07 16:48:27:828
-8.873,-5.6419,2.7812,2.2727,-1.6907,-2.3256,0.6685,0.1698,-0.0554,2338,2019-08-07 16:48:27:833
-8.873,-5.6419,2.7812,2.2727,-1.6907,-2.3256,0.6685,0.1698,-0.0554,2342,2019-08-07 16:48:27:837
-8.7103,-5.3889,2.9792,2.2727,-1.6907,-2.3256,0.5172,-0.1966,-0.0437,2348,2019-08-07 16:48:27:843
-8.7103,-5.3889,2.9792,2.2727,-1.6907,-2.3256,0.5172,-0.1966,-0.0437,2353,2019-08-07 16:48:27:848
-8.7103,-5.3889,2.9792,2.2727,-1.6907,-2.3256,0.5172,-0.1966,-0.0437,2358,2019-08-07 16:48:27:853
-8.1314,-5.365,2.654,1.5274,-1.8583,-1.985,0.2871,-0.7484,-0.0618,2363,2019-08-07 16:48:27:858
-8.1314,-5.365,2.654,1.5274,-1.8583,-1.985,0.2871,-0.7484,-0.0618,2368,2019-08-07 16:48:27:863
-6.6387,-5.6657,1.9846,1.5274,-1.8583,-1.985,0.1731,-0.9934,-0.082,2373,2019-08-07 16:48:27:868
-6.6387,-5.6657,1.9846,-0.5408,-1.461,-0.7536,0.1731,-0.9934,-0.082,2378,2019-08-07 16:48:27:873
-6.6387,-5.6657,1.9846,-0.5408,-1.461,-0.7536,0.0943,-0.9902,-0.1108,2383,2019-08-07 16:48:27:878
-5.5287,-5.9378,1.1974,-0.5408,-1.461,-0.7536,0.0943,-0.9902,-0.1108,2388,2019-08-07 16:48:27:883
-5.5287,-5.9378,1.1974,-0.5408,-1.461,-0.7536,-0.009,-0.6344,-0.1598,2393,2019-08-07 16:48:27:888
-4.7154,-6.3102,0.693,-0.5408,-1.461,-0.7536,-0.009,-0.6344,-0.1598,2398,2019-08-07 16:48:27:893
-4.7154,-6.3102,0.693,-1.9152,-0.885,0.308,-0.0708,-0.105,-0.18,2403,2019-08-07 16:48:27:898
-4.7154,-6.3102,0.693,-1.9152,-0.885,0.308,-0.0708,-0.105,-0.18,2408,2019-08-07 16:48:27:903
-4.7106,-6.6826,0.5657,-1.9152,-0.885,0.308,-0.0729,0.336,-0.1598,2413,2019-08-07 16:48:27:908
-4.7106,-6.6826,0.5657,-1.9152,-0.885,0.308,-0.0729,0.336,-0.1598,2418,2019-08-07 16:48:27:913
-5.1938,-6.9308,0.6883,-1.4397,-0.3947,0.2596,-0.0729,0.336,-0.1598,2423,2019-08-07 16:48:27:918
-5.1938,-6.9308,0.6883,-1.4397,-0.3947,0.2596,-0.0548,0.6396,-0.1289,2428,2019-08-07 16:48:27:923
-5.1938,-6.9308,0.6883,-1.4397,-0.3947,0.2596,-0.0548,0.6396,-0.1289,2433,2019-08-07 16:48:27:928
-6.3994,-6.6492,1.2823,-1.4397,-0.3947,0.2596,-0.0186,0.7366,-0.0831,2437,2019-08-07 16:48:27:932
-6.3994,-6.6492,1.2823,0.45,-0.8396,-0.756,-0.0186,0.7366,-0.0831,2443,2019-08-07 16:48:27:938
-7.8442,-6.0477,1.928,0.45,-0.8396,-0.756,0.0176,0.58,-0.0138,2447,2019-08-07 16:48:27:942
-7.8442,-6.0477,1.928,0.45,-0.8396,-0.756,0.0176,0.58,-0.0138,2453,2019-08-07 16:48:27:948
-7.8442,-6.0477,1.928,0.45,-0.8396,-0.756,0.0091,0.188,0.0512,2458,2019-08-07 16:48:27:953
-8.648,-5.6371,2.2344,2.1142,-1.6383,-1.4509,0.0091,0.188,0.0512,2463,2019-08-07 16:48:27:958
-8.648,-5.6371,2.2344,2.1142,-1.6383,-1.4509,-0.0261,-0.2179,0.0991,2468,2019-08-07 16:48:27:963
-8.337,-5.6992,1.5981,2.1142,-1.6383,-1.4509,-0.0261,-0.2179,0.0991,2473,2019-08-07 16:48:27:968
-8.337,-5.6992,1.5981,2.1142,-1.6383,-1.4509,-0.123,-0.9391,0.1502,2478,2019-08-07 16:48:27:973
-7.5105,-6.0905,0.9238,1.217,-1.2717,-0.1623,-0.123,-0.9391,0.1502,2483,2019-08-07 16:48:27:978
-7.5105,-6.0905,0.9238,1.217,-1.2717,-0.1623,-0.156,-1.2491,0.1705,2488,2019-08-07 16:48:27:983
-7.5105,-6.0905,0.9238,1.217,-1.2717,-0.1623,-0.156,-1.2491,0.1705,2493,2019-08-07 16:48:27:988
-6.19,-6.7541,0.311,1.217,-1.2717,-0.1623,-0.1422,-1.2256,0.1598,2499,2019-08-07 16:48:27:994
-6.19,-6.7541,0.311,-0.8579,-0.3813,1.1776,-0.1422,-1.2256,0.1598,2503,2019-08-07 16:48:27:998
-6.19,-6.7541,0.311,-0.8579,-0.3813,1.1776,-0.1422,-1.2256,0.1598,2507,2019-08-07 16:48:28:002
-5.1662,-7.0405,-0.5847,-0.8579,-0.3813,1.1776,-0.1304,-0.922,0.1247,2513,2019-08-07 16:48:28:008
-5.1662,-7.0405,-0.5847,-0.8579,-0.3813,1.1776,-0.1304,-0.922,0.1247,2518,2019-08-07 16:48:28:013
-5.0322,-7.0691,-0.5092,-1.6027,-0.1415,1.589,-0.1038,-0.3596,0.0639,2522,2019-08-07 16:48:28:017
-5.0322,-7.0691,-0.5092,-1.6027,-0.1415,1.589,-0.1038,-0.3596,0.0639,2528,2019-08-07 16:48:28:023
-5.0322,-7.0691,-0.5092,-1.6027,-0.1415,1.589,-0.0569,0.0761,0.0235,2533,2019-08-07 16:48:28:028
-5.7355,-6.8543,-0.0096,-1.6027,-0.1415,1.589,-0.0569,0.0761,0.0235,2538,2019-08-07 16:48:28:033
-5.7355,-6.8543,-0.0096,-0.4703,-0.3627,0.8288,-0.0154,0.368,-0.0032,2544,2019-08-07 16:48:28:039
-6.544,-6.6681,0.6032,-0.4703,-0.3627,0.8288,-0.0154,0.368,-0.0032,2548,2019-08-07 16:48:28:043
-6.544,-6.6681,0.6032,-0.4703,-0.3627,0.8288,0.008,0.4319,-0.0319,2553,2019-08-07 16:48:28:048
-6.544,-6.6681,0.6032,-0.4703,-0.3627,0.8288,0.008,0.4319,-0.0319,2558,2019-08-07 16:48:28:053
-7.4769,-6.3913,1.3103,1.0216,-0.9197,-0.4522,0.008,0.4319,-0.0319,2564,2019-08-07 16:48:28:059
-7.4769,-6.3913,1.3103,1.0216,-0.9197,-0.4522,-0.0122,0.254,-0.0415,2568,2019-08-07 16:48:28:063
-7.8501,-6.3435,1.6591,1.0216,-0.9197,-0.4522,-0.0122,0.254,-0.0415,2573,2019-08-07 16:48:28:068
-7.8501,-6.3435,1.6591,1.0216,-0.9197,-0.4522,-0.0623,-0.1039,-0.0426,2578,2019-08-07 16:48:28:073
-7.5152,-6.544,1.6356,1.0419,-0.7938,-0.6748,-0.0623,-0.1039,-0.0426,2584,2019-08-07 16:48:28:079
-7.5152,-6.544,1.6356,1.0419,-0.7938,-0.6748,-0.1091,-0.3724,-0.0479,2588,2019-08-07 16:48:28:083
-7.5152,-6.544,1.6356,1.0419,-0.7938,-0.6748,-0.1091,-0.3724,-0.0479,2592,2019-08-07 16:48:28:087
-6.898,-6.8973,1.3527,0.5199,-0.4278,-0.455,-0.1368,-0.5077,-0.0543,2598,2019-08-07 16:48:28:093
-6.898,-6.8973,1.3527,0.5199,-0.4278,-0.455,-0.1368,-0.5077,-0.0543,2603,2019-08-07 16:48:28:098
-6.898,-6.8973,1.3527,0.5199,-0.4278,-0.455,-0.1635,-0.5673,-0.0745,2608,2019-08-07 16:48:28:103
-6.0417,-7.3317,0.6598,-0.6026,0.1284,0.4383,-0.1635,-0.5673,-0.0745,2613,2019-08-07 16:48:28:108
-6.0417,-7.3317,0.6598,-0.6026,0.1284,0.4383,-0.1635,-0.5673,-0.0745,2617,2019-08-07 16:48:28:112
-5.568,-7.5179,0.476,-0.6026,0.1284,0.4383,-0.1581,-0.4033,-0.1022,2623,2019-08-07 16:48:28:118
-5.568,-7.5179,0.476,-0.6026,0.1284,0.4383,-0.1581,-0.4033,-0.1022,2628,2019-08-07 16:48:28:123
-5.568,-7.5179,0.476,-1.0145,0.2015,0.7893,-0.1347,-0.1849,-0.1225,2634,2019-08-07 16:48:28:129
-5.5536,-7.4415,0.3298,-1.0145,0.2015,0.7893,-0.1347,-0.1849,-0.1225,2637,2019-08-07 16:48:28:132
-5.5536,-7.4415,0.3298,-1.0145,0.2015,0.7893,-0.1347,-0.1849,-0.1225,2643,2019-08-07 16:48:28:138
-5.7976,-7.3413,0.5137,-1.0145,0.2015,0.7893,-0.0846,0.1208,-0.1363,2648,2019-08-07 16:48:28:143
-5.7976,-7.3413,0.5137,-0.3805,-0.1227,0.3696,-0.0846,0.1208,-0.1363,2652,2019-08-07 16:48:28:147
-5.7976,-7.3413,0.5137,-0.3805,-0.1227,0.3696,-0.0367,0.2913,-0.1374,2658,2019-08-07 16:48:28:153
-6.4148,-7.0214,0.8012,-0.3805,-0.1227,0.3696,-0.0367,0.2913,-0.1374,2664,2019-08-07 16:48:28:159
-6.4148,-7.0214,0.8012,-0.3805,-0.1227,0.3696,-0.0133,0.3019,-0.1267,2668,2019-08-07 16:48:28:163
-7.0224,-6.7398,1.0841,0.5399,-0.5543,-0.0789,-0.0133,0.3019,-0.1267,2673,2019-08-07 16:48:28:168
-7.0224,-6.7398,1.0841,0.5399,-0.5543,-0.0789,0.0027,0.2348,-0.1299,2678,2019-08-07 16:48:28:173
-7.252,-6.5583,1.2726,0.5399,-0.5543,-0.0789,0.0027,0.2348,-0.1299,2683,2019-08-07 16:48:28:178
-7.252,-6.5583,1.2726,0.5399,-0.5543,-0.0789,0.0016,0.0303,-0.1118,2688,2019-08-07 16:48:28:183
-7.252,-6.5583,1.2726,0.7454,-0.6411,-0.2076,0.0016,0.0303,-0.1118,2693,2019-08-07 16:48:28:188
-7.185,-6.7016,1.1548,0.7454,-0.6411,-0.2076,-0.0133,-0.1551,-0.1033,2699,2019-08-07 16:48:28:194
-7.185,-6.7016,1.1548,0.7454,-0.6411,-0.2076,-0.0133,-0.1551,-0.1033,2703,2019-08-07 16:48:28:198
-7.185,-6.7016,1.1548,0.7454,-0.6411,-0.2076,-0.0133,-0.1551,-0.1033,2708,2019-08-07 16:48:28:203
-6.831,-6.8543,0.9096,0.7454,-0.6411,-0.2076,-0.0154,-0.2903,-0.1001,2712,2019-08-07 16:48:28:207
-6.831,-6.8543,0.9096,0.1576,-0.4123,0.2225,-0.0154,-0.2903,-0.1001,2718,2019-08-07 16:48:28:213
-6.831,-6.8543,0.9096,0.1576,-0.4123,0.2225,0.0059,-0.3362,-0.1054,2723,2019-08-07 16:48:28:218
-6.1851,-7.0453,0.641,0.1576,-0.4123,0.2225,0.0059,-0.3362,-0.1054,2728,2019-08-07 16:48:28:223
-6.1851,-7.0453,0.641,-0.514,-0.259,0.4937,0.024,-0.2797,-0.1086,2733,2019-08-07 16:48:28:228
-5.788,-7.0978,0.5325,-0.514,-0.259,0.4937,0.024,-0.2797,-0.1086,2738,2019-08-07 16:48:28:233
-5.788,-7.0978,0.5325,-0.514,-0.259,0.4937,0.024,-0.2797,-0.1086,2743,2019-08-07 16:48:28:238
-5.788,-7.0978,0.5325,-0.514,-0.259,0.4937,0.0474,-0.1252,-0.1108,2748,2019-08-07 16:48:28:243
-5.8119,-7.0357,0.5325,-0.514,-0.259,0.4937,0.0474,-0.1252,-0.1108,2753,2019-08-07 16:48:28:248
-5.8119,-7.0357,0.5325,-0.5075,-0.3649,0.4726,0.0645,-0.0166,-0.1044,2758,2019-08-07 16:48:28:253
-6.0607,-6.8973,0.74,-0.5075,-0.3649,0.4726,0.0645,-0.0166,-0.1044,2763,2019-08-07 16:48:28:258
-6.0607,-6.8973,0.74,-0.5075,-0.3649,0.4726,0.0826,0.0505,-0.0884,2768,2019-08-07 16:48:28:263
-6.2377,-6.8543,0.9568,-0.1653,-0.4987,0.1247,0.0826,0.0505,-0.0884,2773,2019-08-07 16:48:28:268
-6.2377,-6.8543,0.9568,-0.1653,-0.4987,0.1247,0.0965,0.0495,-0.065,2779,2019-08-07 16:48:28:274
-6.2377,-6.8543,0.9568,-0.1653,-0.4987,0.1247,0.0965,0.0495,-0.065,2782,2019-08-07 16:48:28:277
-6.4578,-6.7111,1.1312,-0.1653,-0.4987,0.1247,0.0943,0.0026,-0.0522,2788,2019-08-07 16:48:28:283
-6.4578,-6.7111,1.1312,-0.1653,-0.4987,0.1247,0.0943,0.0026,-0.0522,2793,2019-08-07 16:48:28:288
-6.4578,-6.7111,1.1312,0.1272,-0.6832,-0.1278,0.0943,0.0026,-0.0522,2797,2019-08-07 16:48:28:292
-6.5343,-6.6872,1.1878,0.1272,-0.6832,-0.1278,0.0677,-0.0879,-0.0383,2803,2019-08-07 16:48:28:298
-6.5343,-6.6872,1.1878,0.1272,-0.6832,-0.1278,0.0677,-0.0879,-0.0383,2808,2019-08-07 16:48:28:303
-6.4578,-6.7207,1.1076,0.1272,-0.6832,-0.1278,0.0443,-0.1391,-0.0373,2812,2019-08-07 16:48:28:307
-6.4578,-6.7207,1.1076,0.0792,-0.6361,-0.0018,0.0443,-0.1391,-0.0373,2817,2019-08-07 16:48:28:312
-6.4578,-6.7207,1.1076,0.0792,-0.6361,-0.0018,0.0229,-0.171,-0.0373,2823,2019-08-07 16:48:28:318
-6.3477,-6.8639,1.0511,0.0792,-0.6361,-0.0018,0.0229,-0.171,-0.0373,2828,2019-08-07 16:48:28:323
-6.3477,-6.8639,1.0511,0.0792,-0.6361,-0.0018,0.007,-0.1583,-0.0479,2833,2019-08-07 16:48:28:328
-6.3477,-6.8639,1.0511,-0.2188,-0.4057,0.2339,0.007,-0.1583,-0.0479,2838,2019-08-07 16:48:28:333
-6.099,-7.0405,0.8531,-0.2188,-0.4057,0.2339,-0.0037,-0.1114,-0.066,2842,2019-08-07 16:48:28:337
-6.099,-7.0405,0.8531,-0.323,-0.3332,0.3404,-0.0037,-0.1114,-0.066,2849,2019-08-07 16:48:28:344
-6.0176,-7.0835,0.8154,-0.323,-0.3332,0.3404,-0.0037,-0.1114,-0.066,2852,2019-08-07 16:48:28:347
-6.0176,-7.0835,0.8154,-0.323,-0.3332,0.3404,-0.0047,-0.0251,-0.0682,2858,2019-08-07 16:48:28:353
-6.0176,-7.0835,0.8154,-0.323,-0.3332,0.3404,-0.0047,-0.0251,-0.0682,2863,2019-08-07 16:48:28:358
-6.0224,-7.179,0.8672,-0.345,-0.195,0.2805,0.008,0.0473,-0.0745,2868,2019-08-07 16:48:28:363
-6.0224,-7.179,0.8672,-0.345,-0.195,0.2805,0.008,0.0473,-0.0745,2873,2019-08-07 16:48:28:368
-6.1085,-7.1121,0.9898,-0.2538,-0.2668,0.1545,0.008,0.0473,-0.0745,2878,2019-08-07 16:48:28:373
-6.1085,-7.1121,0.9898,-0.2538,-0.2668,0.1545,0.0187,0.074,-0.0714,2883,2019-08-07 16:48:28:378
-6.1085,-7.1121,0.9898,-0.2538,-0.2668,0.1545,0.0187,0.074,-0.0714,2888,2019-08-07 16:48:28:383
-6.1085,-7.1121,0.9898,-0.2538,-0.2668,0.1545,0.0187,0.074,-0.0714,2892,2019-08-07 16:48:28:387
-6.2664,-6.9355,1.3056,-0.0747,-0.4735,-0.1915,0.0389,0.0292,-0.049,2899,2019-08-07 16:48:28:394
-6.2664,-6.9355,1.3056,-0.0747,-0.4735,-0.1915,0.0389,0.0292,-0.049,2902,2019-08-07 16:48:28:397
-6.3047,-6.7589,1.2349,-0.0747,-0.4735,-0.1915,0.0304,-0.0837,-0.0213,2908,2019-08-07 16:48:28:403
-6.3047,-6.7589,1.2349,-0.0747,-0.4735,-0.1915,0.0304,-0.0837,-0.0213,2913,2019-08-07 16:48:28:408
-6.2472,-6.7398,1.2868,-0.0381,-0.617,-0.143,0.0166,-0.1551,-0.0074,2918,2019-08-07 16:48:28:413
-6.2472,-6.7398,1.2868,-0.0381,-0.617,-0.143,0.0166,-0.1551,-0.0074,2923,2019-08-07 16:48:28:418
-6.2472,-6.7398,1.2868,-0.0381,-0.617,-0.143,0.0166,-0.1551,-0.0074,2927,2019-08-07 16:48:28:422
-6.185,-6.7732,1.3009,-0.0381,-0.617,-0.143,0.008,-0.2211,0.0032,2933,2019-08-07 16:48:28:428
-6.185,-6.7732,1.3009,-0.2266,-0.6434,-0.0525,0.008,-0.2211,0.0032,2938,2019-08-07 16:48:28:433
-6.185,-6.7732,1.3009,-0.2266,-0.6434,-0.0525,-0.0079,-0.2403,0.0224,2942,2019-08-07 16:48:28:437
-6.1276,-6.8018,1.1784,-0.2266,-0.6434,-0.0525,-0.0079,-0.2403,0.0224,2948,2019-08-07 16:48:28:443
-6.1276,-6.8018,1.1784,-0.2266,-0.6434,-0.0525,-0.0079,-0.2403,0.0224,2953,2019-08-07 16:48:28:448
-6.0558,-6.8496,1.1736,-0.2932,-0.5292,0.0424,-0.0271,-0.2286,0.0416,2958,2019-08-07 16:48:28:453
-6.0558,-6.8496,1.1736,-0.2932,-0.5292,0.0424,-0.0271,-0.2286,0.0416,2963,2019-08-07 16:48:28:458
-6.0558,-6.8496,1.1736,-0.2932,-0.5292,0.0424,-0.025,-0.2073,0.0405,2968,2019-08-07 16:48:28:463
-6.1133,-6.8257,1.0982,-0.2932,-0.5292,0.0424,-0.025,-0.2073,0.0405,2973,2019-08-07 16:48:28:468
-6.1133,-6.8257,1.0982,-0.2476,-0.5235,0.1688,-0.0165,-0.186,0.0469,2977,2019-08-07 16:48:28:472
-6.1037,-6.8018,1.1029,-0.2476,-0.5235,0.1688,-0.0165,-0.186,0.0469,2983,2019-08-07 16:48:28:478
-6.1037,-6.8018,1.1029,-0.2476,-0.5235,0.1688,-0.0207,-0.1487,0.0533,2988,2019-08-07 16:48:28:483
-6.1037,-6.8018,1.1029,-0.2476,-0.5235,0.1688,-0.0207,-0.1487,0.0533,2993,2019-08-07 16:48:28:488
-6.0941,-6.7254,1.0181,-0.2481,-0.5975,0.2552,-0.0271,-0.1178,0.0575,2998,2019-08-07 16:48:28:493
-6.0941,-6.7254,1.0181,-0.2481,-0.5975,0.2552,-0.0271,-0.1178,0.0575,3002,2019-08-07 16:48:28:497
-6.0941,-6.7254,1.0181,-0.2481,-0.5975,0.2552,-0.0314,-0.0784,0.0682,3008,2019-08-07 16:48:28:503
-6.1563,-6.7636,1.0087,-0.2481,-0.5975,0.2552,-0.0314,-0.0784,0.0682,3013,2019-08-07 16:48:28:508
-6.1563,-6.7636,1.0087,-0.2481,-0.5975,0.2552,-0.0314,-0.0784,0.0682,3018,2019-08-07 16:48:28:513
-6.1228,-6.8257,1.0134,-0.1762,-0.4787,0.2508,-0.0314,-0.0698,0.0746,3023,2019-08-07 16:48:28:518
-6.1228,-6.8257,1.0134,-0.1762,-0.4787,0.2508,-0.0314,-0.0698,0.0746,3028,2019-08-07 16:48:28:523
-6.1228,-6.8257,1.0134,-0.1762,-0.4787,0.2508,-0.041,-0.0411,0.0863,3033,2019-08-07 16:48:28:528
-6.3476,-7.0167,1.0652,0.0025,-0.32,0.1736,-0.041,-0.0411,0.0863,3038,2019-08-07 16:48:28:533
-6.3476,-7.0167,1.0652,0.0025,-0.32,0.1736,-0.0431,-0.0507,0.0789,3043,2019-08-07 16:48:28:538
-6.4768,-6.9928,1.0935,0.0025,-0.32,0.1736,-0.0431,-0.0507,0.0789,3048,2019-08-07 16:48:28:543
-6.4768,-6.9928,1.0935,0.0025,-0.32,0.1736,-0.0495,-0.0581,0.0746,3053,2019-08-07 16:48:28:548
-6.4768,-6.9928,1.0935,0.1337,-0.3525,0.1865,-0.0495,-0.0581,0.0746,3058,2019-08-07 16:48:28:553
-6.5294,-6.9498,1.0464,0.1337,-0.3525,0.1865,-0.0623,-0.0666,0.0639,3063,2019-08-07 16:48:28:558
-6.5294,-6.9498,1.0464,0.1337,-0.3525,0.1865,-0.0623,-0.0666,0.0639,3068,2019-08-07 16:48:28:563
-6.5246,-6.9355,1.1454,0.1337,-0.3525,0.1865,-0.0623,-0.0666,0.0639,3072,2019-08-07 16:48:28:567
-6.5246,-6.9355,1.1454,0.1337,-0.3525,0.1865,-0.0836,-0.073,0.0426,3078,2019-08-07 16:48:28:573
-6.5246,-6.9355,1.1454,0.182,-0.3928,0.1273,-0.0836,-0.073,0.0426,3083,2019-08-07 16:48:28:578
-6.4816,-7.0023,1.1265,0.182,-0.3928,0.1273,-0.0942,-0.0677,0.0352,3088,2019-08-07 16:48:28:583
-6.4816,-7.0023,1.1265,0.182,-0.3928,0.1273,-0.0942,-0.0677,0.0352,3093,2019-08-07 16:48:28:588
-6.3859,-7.0357,1.0322,-0.0185,-0.2898,0.2148,-0.0985,-0.0539,0.0139,3098,2019-08-07 16:48:28:593
-6.3859,-7.0357,1.0322,-0.0185,-0.2898,0.2148,-0.0985,-0.0539,0.0139,3103,2019-08-07 16:48:28:598
-6.3859,-7.0357,1.0322,-0.0185,-0.2898,0.2148,-0.09,-0.0368,-0.0053,3108,2019-08-07 16:48:28:603
-6.4529,-7.0692,0.9474,-0.0185,-0.2898,0.2148,-0.09,-0.0368,-0.0053,3114,2019-08-07 16:48:28:609
-6.4529,-7.0692,0.9474,0.0011,-0.2489,0.3087,-0.0665,-0.0294,-0.0149,3118,2019-08-07 16:48:28:613
-6.4529,-7.0692,0.9474,0.0011,-0.2489,0.3087,-0.0665,-0.0294,-0.0149,3123,2019-08-07 16:48:28:618
-6.4194,-7.0453,1.0464,0.0011,-0.2489,0.3087,-0.0452,-0.0187,-0.0213,3128,2019-08-07 16:48:28:623
-6.4194,-7.0453,1.0464,0.0011,-0.2489,0.3087,-0.0452,-0.0187,-0.0213,3133,2019-08-07 16:48:28:628
-6.4194,-7.0453,1.0464,0.0011,-0.2489,0.3087,-0.0303,-0.0166,-0.0149,3138,2019-08-07 16:48:28:633
-6.3667,-6.9785,1.037,-0.0354,-0.3518,0.1944,-0.0303,-0.0166,-0.0149,3143,2019-08-07 16:48:28:638
-6.3667,-6.9785,1.037,-0.0354,-0.3518,0.1944,-0.0207,-0.0304,-0.0106,3148,2019-08-07 16:48:28:643
-6.4098,-6.9976,1.0747,-0.0354,-0.3518,0.1944,-0.0207,-0.0304,-0.0106,3152,2019-08-07 16:48:28:647
-6.4098,-6.9976,1.0747,-0.0354,-0.3518,0.1944,-0.0207,-0.0304,-0.0106,3158,2019-08-07 16:48:28:653
-6.4098,-6.9976,1.0747,-7.0E-4,-0.305,0.1291,-0.0165,-0.072,-0.0117,3163,2019-08-07 16:48:28:658
-6.3093,-7.0405,1.037,-7.0E-4,-0.305,0.1291,-0.0165,-0.072,-0.0117,3168,2019-08-07 16:48:28:663
-6.3093,-7.0405,1.037,-7.0E-4,-0.305,0.1291,-0.0154,-0.0901,-0.0064,3173,2019-08-07 16:48:28:668
-6.3093,-7.0405,1.037,-7.0E-4,-0.305,0.1291,-0.0154,-0.0901,-0.0064,3178,2019-08-07 16:48:28:673
-6.1419,-7.0739,0.9285,-0.2563,-0.2585,0.3104,-0.0079,-0.0858,-0.0106,3182,2019-08-07 16:48:28:677
-6.1419,-7.0739,0.9285,-0.2563,-0.2585,0.3104,-0.0079,-0.0858,-0.0106,3188,2019-08-07 16:48:28:683
-6.0797,-7.1026,0.9285,-0.2563,-0.2585,0.3104,0.0048,-0.0485,-0.0149,3193,2019-08-07 16:48:28:688
-6.0797,-7.1026,0.9285,-0.2563,-0.2585,0.3104,0.0048,-0.0485,-0.0149,3198,2019-08-07 16:48:28:693
-6.0797,-7.1026,0.9285,-0.3342,-0.2605,0.2551,0.0134,-0.0112,-0.016,3203,2019-08-07 16:48:28:698
-5.9983,-7.0835,0.8578,-0.3342,-0.2605,0.2551,0.0134,-0.0112,-0.016,3207,2019-08-07 16:48:28:702
-5.9983,-7.0835,0.8578,-0.3342,-0.2605,0.2551,0.0155,0.0378,-0.017,3213,2019-08-07 16:48:28:708
-6.0844,-7.0405,0.9097,-0.3342,-0.2605,0.2551,0.0155,0.0378,-0.017,3218,2019-08-07 16:48:28:713
-6.0844,-7.0405,0.9097,-0.26,-0.3156,0.2479,0.0208,0.0761,-0.0245,3222,2019-08-07 16:48:28:717
-6.0844,-7.0405,0.9097,-0.26,-0.3156,0.2479,0.0208,0.0761,-0.0245,3228,2019-08-07 16:48:28:723
-6.2184,-6.988,1.0747,-0.26,-0.3156,0.2479,0.0304,0.0868,-0.0266,3233,2019-08-07 16:48:28:728
-6.2184,-6.988,1.0747,-0.26,-0.3156,0.2479,0.0304,0.0868,-0.0266,3237,2019-08-07 16:48:28:732
-6.3715,-6.9307,1.202,-0.0581,-0.394,0.0469,0.0315,0.0655,-0.0245,3243,2019-08-07 16:48:28:738
-6.3715,-6.9307,1.202,-0.0581,-0.394,0.0469,0.0315,0.0655,-0.0245,3248,2019-08-07 16:48:28:743
-6.3715,-6.9307,1.202,-0.0581,-0.394,0.0469,0.0315,0.0655,-0.0245,3253,2019-08-07 16:48:28:748
-6.3906,-6.8734,1.2585,-0.0581,-0.394,0.0469,0.0283,0.0154,-0.0106,3257,2019-08-07 16:48:28:752
-6.3906,-6.8734,1.2585,-7.0E-4,-0.4609,0.0423,0.0283,0.0154,-0.0106,3263,2019-08-07 16:48:28:758
-6.3906,-6.8782,1.1972,-7.0E-4,-0.4609,0.0423,0.0251,-0.0347,-0.0053,3268,2019-08-07 16:48:28:763
-6.3906,-6.8782,1.1972,-7.0E-4,-0.4609,0.0423,0.0251,-0.0347,-0.0053,3273,2019-08-07 16:48:28:768
-6.3906,-6.8782,1.1972,-7.0E-4,-0.4609,0.0423,0.0229,-0.0826,0.0064,3278,2019-08-07 16:48:28:773
-6.3284,-6.8878,1.2397,-0.0631,-0.4493,0.0059,0.0229,-0.0826,0.0064,3282,2019-08-07 16:48:28:777
-6.3284,-6.8878,1.2397,-0.0631,-0.4493,0.0059,0.0293,-0.121,0.0117,3288,2019-08-07 16:48:28:783
-6.3284,-6.8878,1.2397,-0.0631,-0.4493,0.0059,0.0293,-0.121,0.0117,3292,2019-08-07 16:48:28:787
-6.1227,-6.883,1.004,-0.0631,-0.4493,0.0059,0.0261,-0.1263,0.0128,3299,2019-08-07 16:48:28:794
-6.1227,-6.883,1.004,-0.2636,-0.4513,0.265,0.0261,-0.1263,0.0128,3303,2019-08-07 16:48:28:798
-6.1227,-6.883,1.004,-0.2636,-0.4513,0.265,0.0283,-0.0997,0.0128,3307,2019-08-07 16:48:28:802
-6.0605,-6.8878,1.0228,-0.2636,-0.4513,0.265,0.0283,-0.0997,0.0128,3313,2019-08-07 16:48:28:808
-6.0605,-6.8878,1.0228,-0.2636,-0.4513,0.265,0.0347,-0.0368,0.0117,3318,2019-08-07 16:48:28:813
-6.1322,-6.8973,1.0747,-0.2592,-0.4345,0.2022,0.0347,-0.0368,0.0117,3323,2019-08-07 16:48:28:818
-6.1322,-6.8973,1.0747,-0.2592,-0.4345,0.2022,0.0368,0.0047,0.0139,3328,2019-08-07 16:48:28:823
-6.1322,-6.8973,1.0747,-0.2592,-0.4345,0.2022,0.0368,0.0047,0.0139,3332,2019-08-07 16:48:28:827
-6.2423,-6.9451,1.1218,-0.2592,-0.4345,0.2022,0.0293,0.0409,0.0139,3338,2019-08-07 16:48:28:833
-6.2423,-6.9451,1.1218,-0.1145,-0.4167,0.1474,0.0293,0.0409,0.0139,3343,2019-08-07 16:48:28:838
-6.2423,-6.9451,1.1218,-0.1145,-0.4167,0.1474,0.0293,0.0409,0.0139,3348,2019-08-07 16:48:28:843
-6.3379,-6.9021,1.2444,-0.1145,-0.4167,0.1474,0.0166,0.042,0.0085,3353,2019-08-07 16:48:28:848
-6.3379,-6.9021,1.2444,-0.1145,-0.4167,0.1474,0.0166,0.042,0.0085,3358,2019-08-07 16:48:28:853
-6.4432,-6.8496,1.2962,0.044,-0.4755,-0.0197,0.008,0.0122,0.0096,3363,2019-08-07 16:48:28:858
-6.4432,-6.8496,1.2962,0.044,-0.4755,-0.0197,0.008,0.0122,0.0096,3368,2019-08-07 16:48:28:863
-6.4432,-6.8496,1.2962,0.044,-0.4755,-0.0197,0.0048,-0.0272,0.0096,3372,2019-08-07 16:48:28:867
-6.4097,-6.9498,1.2114,0.044,-0.4755,-0.0197,0.0048,-0.0272,0.0096,3378,2019-08-07 16:48:28:873
-6.4097,-6.9498,1.2114,-0.0397,-0.3819,0.0704,6.0E-4,-0.0656,0.0064,3383,2019-08-07 16:48:28:878
-6.2949,-7.031,1.2444,-0.0397,-0.3819,0.0704,6.0E-4,-0.0656,0.0064,3388,2019-08-07 16:48:28:883
-6.2949,-7.031,1.2444,-0.0397,-0.3819,0.0704,-0.0058,-0.0858,0.0064,3393,2019-08-07 16:48:28:888
-6.2949,-7.031,1.2444,-0.0397,-0.3819,0.0704,-0.0058,-0.0858,0.0064,3398,2019-08-07 16:48:28:893
-6.1322,-7.0787,1.136,-0.3212,-0.2329,0.2022,-0.0047,-0.0826,0.0064,3403,2019-08-07 16:48:28:898
-6.1322,-7.0787,1.136,-0.3212,-0.2329,0.2022,-0.0047,-0.0826,0.0064,3408,2019-08-07 16:48:28:903
-6.0939,-7.1408,0.9946,-0.3057,-0.1807,0.3007,0.008,-0.0645,-0.0064,3413,2019-08-07 16:48:28:908
-6.0939,-7.1408,0.9946,-0.3057,-0.1807,0.3007,0.008,-0.0645,-0.0064,3418,2019-08-07 16:48:28:913
-6.0939,-7.1408,0.9946,-0.3057,-0.1807,0.3007,0.0123,-0.0198,-0.0138,3423,2019-08-07 16:48:28:918
-6.1178,-6.9928,0.9898,-0.3057,-0.1807,0.3007,0.0123,-0.0198,-0.0138,3428,2019-08-07 16:48:28:923
-6.1178,-6.9928,0.9898,-0.2693,-0.3596,0.2644,0.0176,0.0314,-0.0287,3433,2019-08-07 16:48:28:928
-6.1178,-6.9928,0.9898,-0.2693,-0.3596,0.2644,0.0176,0.0314,-0.0287,3437,2019-08-07 16:48:28:932
-6.2566,-6.9307,1.0558,-0.2693,-0.3596,0.2644,0.0176,0.0665,-0.0415,3443,2019-08-07 16:48:28:938
-6.2566,-6.9307,1.0558,-0.2693,-0.3596,0.2644,0.0176,0.0665,-0.0415,3447,2019-08-07 16:48:28:942
-6.3475,-6.8591,1.0464,0.0014,-0.4397,0.1814,0.0155,0.0868,-0.0468,3453,2019-08-07 16:48:28:948
-6.3475,-6.8591,1.0464,0.0014,-0.4397,0.1814,0.0155,0.0868,-0.0468,3457,2019-08-07 16:48:28:952
-6.4479,-6.8735,1.2303,0.0014,-0.4397,0.1814,0.0102,0.0921,-0.0532,3463,2019-08-07 16:48:28:958
-6.4479,-6.8735,1.2303,0.0014,-0.4397,0.1814,0.0102,0.0921,-0.0532,3467,2019-08-07 16:48:28:962
-6.4479,-6.8735,1.2303,0.072,-0.4685,0.0914,0.0091,0.0729,-0.0586,3473,2019-08-07 16:48:28:968
-6.4623,-6.8448,1.1973,0.072,-0.4685,0.0914,0.0091,0.0729,-0.0586,3478,2019-08-07 16:48:28:973
-6.4623,-6.8448,1.1973,0.072,-0.4685,0.0914,0.0059,0.0431,-0.0586,3484,2019-08-07 16:48:28:979
-6.5296,-6.8352,1.1076,0.072,-0.4685,0.0914,0.0059,0.0431,-0.0586,3488,2019-08-07 16:48:28:983
-6.5296,-6.8352,1.1076,0.072,-0.4685,0.0914,0.0059,0.0431,-0.0586,3493,2019-08-07 16:48:28:988
-6.5296,-6.8352,1.1076,0.1107,-0.4926,0.0631,0.007,-0.0038,-0.0532,3498,2019-08-07 16:48:28:993
-6.4579,-6.8257,1.2585,0.1107,-0.4926,0.0631,0.007,-0.0038,-0.0532,3503,2019-08-07 16:48:28:998
-6.4579,-6.8257,1.2585,0.1107,-0.4926,0.0631,0.0166,-0.0464,-0.0437,3508,2019-08-07 16:48:29:003
-6.4579,-6.8257,1.2585,0.1107,-0.4926,0.0631,0.0166,-0.0464,-0.0437,3513,2019-08-07 16:48:29:008
-6.2521,-6.797,1.1123,-0.1276,-0.5441,0.1693,0.0272,-0.0752,-0.0394,3518,2019-08-07 16:48:29:013
-6.2521,-6.797,1.1123,-0.1276,-0.5441,0.1693,0.0272,-0.0752,-0.0394,3523,2019-08-07 16:48:29:018
-6.1612,-6.8161,1.1359,-0.2155,-0.5265,0.1524,0.0293,-0.0741,-0.0298,3527,2019-08-07 16:48:29:022
-6.1612,-6.8161,1.1359,-0.2155,-0.5265,0.1524,0.0293,-0.0741,-0.0298,3533,2019-08-07 16:48:29:028
-6.1612,-6.8161,1.1359,-0.2155,-0.5265,0.1524,0.0357,-0.0539,-0.0064,3537,2019-08-07 16:48:29:032
-6.0656,-6.8782,1.0888,-0.2155,-0.5265,0.1524,0.0357,-0.0539,-0.0064,3543,2019-08-07 16:48:29:038
-6.0656,-6.8782,1.0888,-0.3177,-0.4267,0.174,0.0336,-0.0176,0.0053,3548,2019-08-07 16:48:29:043
-6.099,-6.883,1.2208,-0.3177,-0.4267,0.174,0.0336,-0.0176,0.0053,3553,2019-08-07 16:48:29:048
-6.099,-6.883,1.2208,-0.3177,-0.4267,0.174,0.0368,-0.0027,0.0128,3558,2019-08-07 16:48:29:053
-6.099,-6.883,1.2208,-0.3177,-0.4267,0.174,0.0368,-0.0027,0.0128,3563,2019-08-07 16:48:29:058
-6.1469,-6.8305,1.3575,-0.2287,-0.5098,-0.0503,0.0368,-0.0027,0.0128,3568,2019-08-07 16:48:29:063
-6.1469,-6.8305,1.3575,-0.2287,-0.5098,-0.0503,0.0432,-0.0059,0.0277,3572,2019-08-07 16:48:29:067
-6.1469,-6.8305,1.3575,-0.2287,-0.5098,-0.0503,0.0432,-0.0059,0.0277,3578,2019-08-07 16:48:29:073
-6.099,-6.8161,1.216,-0.2287,-0.5098,-0.0503,0.0336,-0.0112,0.0352,3582,2019-08-07 16:48:29:077
-6.099,-6.8161,1.216,-0.2914,-0.5421,0.1262,0.0336,-0.0112,0.0352,3588,2019-08-07 16:48:29:083
-6.0273,-6.8305,1.1736,-0.2914,-0.5421,0.1262,0.0155,0.0047,0.0448,3592,2019-08-07 16:48:29:087
-6.0273,-6.8305,1.1736,-0.2914,-0.5421,0.1262,0.0155,0.0047,0.0448,3599,2019-08-07 16:48:29:094
-6.0273,-6.8305,1.1736,-0.2914,-0.5421,0.1262,0.0059,0.025,0.0575,3602,2019-08-07 16:48:29:097
-6.0081,-6.84,1.2349,-0.3805,-0.4874,0.0803,0.0059,0.025,0.0575,3607,2019-08-07 16:48:29:102
-6.0081,-6.84,1.2349,-0.3805,-0.4874,0.0803,-0.0016,0.0441,0.0682,3613,2019-08-07 16:48:29:108
-6.123,-6.8495,1.1642,-0.3805,-0.4874,0.0803,-0.0016,0.0441,0.0682,3618,2019-08-07 16:48:29:113
-6.123,-6.8495,1.1642,-0.3805,-0.4874,0.0803,-0.0111,0.058,0.0735,3623,2019-08-07 16:48:29:118
-6.123,-6.8495,1.1642,-0.2776,-0.5069,0.1302,-0.0111,0.058,0.0735,3628,2019-08-07 16:48:29:123
-6.1899,-6.8591,1.1925,-0.2776,-0.5069,0.1302,-0.0111,0.058,0.0735,3633,2019-08-07 16:48:29:128
-6.1899,-6.8591,1.1925,-0.2776,-0.5069,0.1302,-0.0143,0.0676,0.0693,3638,2019-08-07 16:48:29:133
-6.1899,-6.8591,1.1925,-0.2776,-0.5069,0.1302,-0.0143,0.0676,0.0693,3643,2019-08-07 16:48:29:138
-6.3909,-6.8257,1.2113,-0.0089,-0.5161,0.0812,-0.0207,0.0782,0.0586,3648,2019-08-07 16:48:29:143
-6.3909,-6.8257,1.2113,-0.0089,-0.5161,0.0812,-0.0207,0.0782,0.0586,3653,2019-08-07 16:48:29:148
-6.5488,-6.8114,1.15,-0.0089,-0.5161,0.0812,-0.0207,0.0782,0.0586,3658,2019-08-07 16:48:29:153
-6.5488,-6.8114,1.15,-0.0089,-0.5161,0.0812,-0.0324,0.0655,0.0469,3663,2019-08-07 16:48:29:158
-6.5488,-7.1503,1.381,-0.2261,-0.2554,-0.1019,-0.0324,0.0655,0.0469,3668,2019-08-07 16:48:29:163
-5.9268,-7.1503,1.381,-0.2261,-0.2554,-0.1019,6.0E-4,0.1113,-0.0085,3673,2019-08-07 16:48:29:168
-5.9268,-7.1503,1.381,-0.2261,-0.2554,-0.1019,6.0E-4,0.1113,-0.0085,3678,2019-08-07 16:48:29:173
-6.5201,-6.9928,0.8955,-0.2261,-0.2554,-0.1019,0.024,0.1496,-0.0298,3683,2019-08-07 16:48:29:178
-6.5201,-6.9928,0.8955,0.3548,-0.4374,0.3285,0.024,0.1496,-0.0298,3687,2019-08-07 16:48:29:182
-6.5201,-6.9928,0.8955,0.3548,-0.4374,0.3285,-0.009,0.1698,0.0384,3693,2019-08-07 16:48:29:188
-6.5583,-6.8734,1.1406,0.0861,-0.3438,0.0383,-0.009,0.1698,0.0384,3698,2019-08-07 16:48:29:193
-6.5583,-6.8734,1.1406,0.0861,-0.3438,0.0383,-0.0271,0.1027,0.016,3703,2019-08-07 16:48:29:198
-6.4387,-7.0596,1.1972,0.0861,-0.3438,0.0383,-0.0271,0.1027,0.016,3708,2019-08-07 16:48:29:203
-6.4387,-7.0596,1.1972,0.0861,-0.3438,0.0383,-0.0356,0.0282,-0.0255,3714,2019-08-07 16:48:29:209
-6.4387,-7.0596,1.1972,0.0209,-0.2052,0.1277,-0.0356,0.0282,-0.0255,3718,2019-08-07 16:48:29:213
-6.4435,-7.1455,1.1453,0.0209,-0.2052,0.1277,-0.0356,0.0282,-0.0255,3722,2019-08-07 16:48:29:217
-6.4435,-7.1455,1.1453,0.0209,-0.2052,0.1277,-0.0452,0.0111,-0.0213,3728,2019-08-07 16:48:29:223
-6.5727,-7.0071,1.1595,0.0209,-0.2052,0.1277,-0.0452,0.0111,-0.0213,3732,2019-08-07 16:48:29:227
-6.5727,-7.0071,1.1595,0.0935,-0.2741,0.0207,-0.0527,-0.024,0.0011,3738,2019-08-07 16:48:29:233
-6.5727,-7.0071,1.1595,0.0935,-0.2741,0.0207,-0.0527,-0.024,0.0011,3742,2019-08-07 16:48:29:237
-6.5057,-6.9784,1.3245,0.0935,-0.2741,0.0207,-0.0538,-0.0539,-0.017,3749,2019-08-07 16:48:29:244
-6.5057,-6.9784,1.3245,0.0935,-0.2741,0.0207,-0.0538,-0.0539,-0.017,3753,2019-08-07 16:48:29:248
-6.5057,-6.9784,1.3245,0.0935,-0.2741,0.0207,-0.0538,-0.0539,-0.017,3757,2019-08-07 16:48:29:252
-6.4913,-7.0262,1.3245,0.0565,-0.2753,-0.0928,-0.0261,-0.0752,-0.0202,3763,2019-08-07 16:48:29:258
-6.4913,-7.0262,1.3245,0.0565,-0.2753,-0.0928,-0.0261,-0.0752,-0.0202,3767,2019-08-07 16:48:29:262
-6.3,-7.0644,1.1123,0.0565,-0.2753,-0.0928,-0.0079,-0.0752,-0.0298,3773,2019-08-07 16:48:29:268
-6.3,-7.0644,1.1123,-0.1629,-0.2789,0.108,-0.0079,-0.0752,-0.0298,3778,2019-08-07 16:48:29:273
-6.3,-7.0644,1.1123,-0.1629,-0.2789,0.108,-0.009,-0.0528,-0.0405,3782,2019-08-07 16:48:29:277
-6.2282,-6.9307,1.0888,-0.1629,-0.2789,0.108,-0.009,-0.0528,-0.0405,3788,2019-08-07 16:48:29:283
-6.2282,-6.9307,1.0888,-0.1629,-0.2789,0.108,-0.0037,-0.0112,-0.0437,3792,2019-08-07 16:48:29:287
-6.2282,-6.9212,0.9662,-0.1951,-0.3888,0.2755,-0.0037,-0.0112,-0.0437,3799,2019-08-07 16:48:29:294
-6.2282,-6.9212,0.9662,-0.1951,-0.3888,0.2755,0.0059,0.0186,-0.0447,3803,2019-08-07 16:48:29:298
-6.2282,-6.9212,0.9662,-0.1951,-0.3888,0.2755,0.0059,0.0186,-0.0447,3807,2019-08-07 16:48:29:302
-6.1756,-6.988,0.9756,-0.1951,-0.3888,0.2755,0.0176,0.0473,-0.0447,3813,2019-08-07 16:48:29:308
-6.1756,-6.988,0.9756,-0.1951,-0.3888,0.2755,0.0176,0.0473,-0.0447,3818,2019-08-07 16:48:29:313
-6.2282,-7.0071,1.0181,-0.2043,-0.3271,0.2008,0.0261,0.074,-0.0415,3823,2019-08-07 16:48:29:318
-6.2282,-7.0071,1.0181,-0.2043,-0.3271,0.2008,0.0261,0.074,-0.0415,3827,2019-08-07 16:48:29:322
-6.2282,-7.0071,1.0181,-0.2043,-0.3271,0.2008,0.0336,0.0995,-0.0405,3833,2019-08-07 16:48:29:328
-6.1325,-7.0119,1.0322,-0.2043,-0.3271,0.2008,0.0336,0.0995,-0.0405,3838,2019-08-07 16:48:29:333
-6.1325,-7.0119,1.0322,-0.2724,-0.2839,0.1788,0.0421,0.1294,-0.0458,3843,2019-08-07 16:48:29:338
-6.099,-6.9593,0.9709,-0.2724,-0.2839,0.1788,0.0421,0.1294,-0.0458,3848,2019-08-07 16:48:29:343
-6.099,-6.9593,0.9709,-0.2724,-0.2839,0.1788,0.0421,0.1294,-0.0458,3853,2019-08-07 16:48:29:348
-6.099,-6.9593,0.9709,-0.1832,-0.4179,0.2731,0.0347,0.1571,-0.0468,3858,2019-08-07 16:48:29:353
-6.2521,-6.9021,0.9521,-0.1832,-0.4179,0.2731,0.0261,0.1773,-0.0383,3864,2019-08-07 16:48:29:359
-6.2521,-6.9021,0.9521,-0.1832,-0.4179,0.2731,0.0261,0.1773,-0.0383,3868,2019-08-07 16:48:29:363
-6.2521,-6.9021,0.9521,-0.1832,-0.4179,0.2731,0.0261,0.1773,-0.0383,3873,2019-08-07 16:48:29:368
-6.2617,-6.8591,1.2066,-0.1832,-0.4179,0.2731,0.0261,0.172,-0.0234,3878,2019-08-07 16:48:29:373
-6.2617,-6.8591,1.2066,-0.222,-0.3919,-0.0147,0.0261,0.172,-0.0234,3883,2019-08-07 16:48:29:378
-6.3287,-6.8543,1.0322,-0.222,-0.3919,-0.0147,0.04,0.1762,-0.0319,3888,2019-08-07 16:48:29:383
-6.3287,-6.8543,1.0322,-0.222,-0.3919,-0.0147,0.04,0.1762,-0.0319,3893,2019-08-07 16:48:29:388
-6.3287,-6.8543,1.0322,-0.222,-0.3919,-0.0147,0.0293,0.156,-0.0266,3899,2019-08-07 16:48:29:394
-6.2521,-6.8352,0.9709,-0.1608,-0.4942,0.2082,0.0293,0.156,-0.0266,3903,2019-08-07 16:48:29:398
-6.2521,-6.8352,0.9709,-0.1608,-0.4942,0.2082,0.0155,0.156,-0.0277,3908,2019-08-07 16:48:29:403
-6.233,-6.8448,1.0605,-0.1608,-0.4942,0.2082,0.0155,0.156,-0.0277,3913,2019-08-07 16:48:29:408
-6.233,-6.8448,1.0605,-0.1608,-0.4942,0.2082,0.0166,0.1539,-0.0234,3918,2019-08-07 16:48:29:413
-6.233,-6.8448,1.0605,-0.2196,-0.4672,0.0771,0.0166,0.1539,-0.0234,3922,2019-08-07 16:48:29:417
-6.2425,-6.8686,1.0935,-0.2196,-0.4672,0.0771,0.0123,0.1528,-0.0234,3928,2019-08-07 16:48:29:423
-6.2425,-6.8686,1.0935,-0.2196,-0.4672,0.0771,0.0123,0.1528,-0.0234,3933,2019-08-07 16:48:29:428
-6.3622,-6.8591,1.1171,-0.2196,-0.4672,0.0771,0.0059,0.1315,-0.0181,3938,2019-08-07 16:48:29:433
-6.3622,-6.8591,1.1171,-0.0297,-0.4543,-0.0627,0.0059,0.1315,-0.0181,3943,2019-08-07 16:48:29:438
-6.3622,-6.8591,1.1171,-0.0297,-0.4543,-0.0627,-0.0047,0.0995,-0.0202,3949,2019-08-07 16:48:29:444
-6.4339,-6.8973,1.3009,-0.0297,-0.4543,-0.0627,-0.0047,0.0995,-0.0202,3953,2019-08-07 16:48:29:448
-6.4339,-6.8973,1.3009,-0.0297,-0.4543,-0.0627,-0.0101,0.0484,-0.0245,3958,2019-08-07 16:48:29:453
-6.3813,-6.9164,1.2066,-0.0209,-0.3742,-0.1021,-0.0101,0.0484,-0.0245,3962,2019-08-07 16:48:29:457
-6.3813,-6.9164,1.2066,-0.0209,-0.3742,-0.1021,-0.0101,0.0484,-0.0245,3968,2019-08-07 16:48:29:463
-6.3813,-6.9164,1.2066,-0.0209,-0.3742,-0.1021,-0.025,-0.0059,-0.0255,3973,2019-08-07 16:48:29:468
-6.3334,-6.9546,1.1218,-0.0209,-0.3742,-0.1021,-0.025,-0.0059,-0.0255,3978,2019-08-07 16:48:29:473
-6.3334,-6.9546,1.1218,-0.076,-0.3815,-0.0439,-0.0218,-0.0144,-0.0213,3983,2019-08-07 16:48:29:478
-6.343,-6.9928,1.216,-0.076,-0.3815,-0.0439,-0.0218,-0.0144,-0.0213,3988,2019-08-07 16:48:29:483
-6.343,-6.9928,1.216,-0.076,-0.3815,-0.0439,-0.0058,-0.0166,-0.0117,3993,2019-08-07 16:48:29:488
-6.343,-6.9928,1.216,-0.076,-0.3815,-0.0439,-0.0058,-0.0166,-0.0117,3998,2019-08-07 16:48:29:493
-6.3047,-6.9737,1.1171,-0.1083,-0.3632,0.0142,0.0123,-0.0166,0.0064,4003,2019-08-07 16:48:29:498
-6.3047,-6.9737,1.1171,-0.1083,-0.3632,0.0142,0.0123,-0.0166,0.0064,4008,2019-08-07 16:48:29:503
-6.2425,-6.9259,0.9332,-0.1083,-0.3632,0.0142,0.0134,-0.0102,0.0107,4014,2019-08-07 16:48:29:509
-6.2425,-6.9259,0.9332,-0.1083,-0.3632,0.0142,0.0134,-0.0102,0.0107,4018,2019-08-07 16:48:29:513
-6.2425,-6.9259,0.9332,-0.1961,-0.4138,0.2288,0.0134,-0.0102,0.0107,4023,2019-08-07 16:48:29:518
-6.233,-6.9307,0.9191,-0.1961,-0.4138,0.2288,0.0048,-0.0059,0.0011,4027,2019-08-07 16:48:29:522
-6.233,-6.9307,0.9191,-0.1961,-0.4138,0.2288,0.0048,-0.0059,0.0011,4033,2019-08-07 16:48:29:528
-6.233,-6.9307,0.9191,-0.1961,-0.4138,0.2288,0.0048,0.0143,0.0053,4038,2019-08-07 16:48:29:533
-6.3861,-6.9594,1.1171,-0.0544,-0.4314,0.0163,0.0048,0.0143,0.0053,4043,2019-08-07 16:48:29:538
-6.3861,-6.9594,1.1171,-0.0544,-0.4314,0.0163,0.0123,0.0101,0.0139,4048,2019-08-07 16:48:29:543
-6.2904,-6.9403,1.1406,-0.0544,-0.4314,0.0163,0.0123,0.0101,0.0139,4052,2019-08-07 16:48:29:547
-6.2904,-6.9403,1.1406,-0.0544,-0.4314,0.0163,-0.0026,-0.0603,0.0032,4058,2019-08-07 16:48:29:553
-6.4674,-6.9641,0.8767,0.0441,-0.3338,0.471,-0.0026,-0.0603,0.0032,4063,2019-08-07 16:48:29:558
-6.4674,-6.9641,0.8767,0.0441,-0.3338,0.471,-0.0026,-0.0603,0.0032,4068,2019-08-07 16:48:29:563
-6.4674,-6.9641,0.8767,0.0441,-0.3338,0.471,-0.0399,-0.0443,-0.0064,4072,2019-08-07 16:48:29:567
-6.0799,-7.0644,1.3386,0.0441,-0.3338,0.471,-0.0399,-0.0443,-0.0064,4078,2019-08-07 16:48:29:573
-6.0799,-7.0644,1.3386,-0.466,-0.239,-0.1024,0.04,-0.0453,0.0011,4082,2019-08-07 16:48:29:577
-6.0799,-7.0644,1.3386,-0.466,-0.239,-0.1024,0.04,-0.0453,0.0011,4088,2019-08-07 16:48:29:583
-5.9603,-7.1026,0.9049,-0.466,-0.239,-0.1024,0.0837,0.0196,0.0,4092,2019-08-07 16:48:29:587
-5.9603,-7.1026,0.9049,-0.466,-0.239,-0.1024,0.0837,0.0196,0.0,4098,2019-08-07 16:48:29:593
-5.9794,-6.9116,0.6928,-0.4377,-0.4191,0.4546,0.0592,0.0836,0.016,4103,2019-08-07 16:48:29:598
-5.9794,-6.9116,0.6928,-0.4377,-0.4191,0.4546,0.0592,0.0836,0.016,4107,2019-08-07 16:48:29:602
-6.2378,-6.7254,0.9662,-0.4377,-0.4191,0.4546,0.0027,0.1027,0.016,4114,2019-08-07 16:48:29:609
-6.2378,-6.7254,0.9662,-0.4377,-0.4191,0.4546,0.0027,0.1027,0.016,4117,2019-08-07 16:48:29:612
-6.2378,-6.7254,0.9662,-0.0367,-0.5166,-0.0538,-0.0154,0.0963,0.0107,4123,2019-08-07 16:48:29:618
-6.2378,-6.7254,0.9662,-0.0367,-0.5166,-0.0538,-0.0154,0.0963,0.0107,4127,2019-08-07 16:48:29:622
-6.4435,-6.8018,1.2773,-0.0367,-0.5166,-0.0538,-0.0058,0.0633,0.0149,4133,2019-08-07 16:48:29:628
-6.4435,-6.8018,1.2773,-0.0367,-0.5166,-0.0538,-0.0058,0.0633,0.0149,4138,2019-08-07 16:48:29:633