ACCELEROMETER X (m/s²),ACCELEROMETER Y (m/s²),ACCELEROMETER Z (m/s²),LINEAR ACCELERATION X (m/s²),LINEAR ACCELERATION Y (m/s²),LINEAR ACCELERATION Z (m/s²),GYROSCOPE X (rad/s),GYROSCOPE Y (rad/s),GYROSCOPE Z (rad/s),Time since start in ms ,YYYY-MO-DD HH-MI-SS_SSS
-6.9866,-5.8611,1.6492,-0.3364,-0.3625,0.0026,-0.0069,-0.0251,0.0213,2,2019-08-07 16:50:42:445
-6.9866,-5.8611,1.6492,-0.3622,-0.4405,0.1288,-0.0079,-0.0123,0.0202,8,2019-08-07 16:50:42:451
-6.934,-5.8516,1.602,-0.3622,-0.4405,0.1288,-0.0079,-0.0123,0.0202,13,2019-08-07 16:50:42:456
-6.934,-5.8516,1.602,-0.3622,-0.4405,0.1288,-0.0165,0.0058,0.0117,17,2019-08-07 16:50:42:460
-6.934,-5.8516,1.602,-0.3622,-0.4405,0.1288,-0.0165,0.0058,0.0117,23,2019-08-07 16:50:42:466
-7.044,-5.8945,1.6303,-0.2787,-0.3951,0.1174,-0.0165,0.0058,0.0117,27,2019-08-07 16:50:42:470
-7.044,-5.8945,1.6303,-0.2787,-0.3951,0.1174,-0.0282,0.0239,0.0085,33,2019-08-07 16:50:42:476
-7.044,-5.8945,1.6303,-0.2787,-0.3951,0.1174,-0.0282,0.0239,0.0085,37,2019-08-07 16:50:42:480
-7.044,-5.9423,1.7246,-0.2787,-0.3951,0.1174,-0.0292,0.0303,0.0085,43,2019-08-07 16:50:42:486
-7.044,-5.9423,1.7246,-0.2717,-0.3703,0.0535,-0.0292,0.0303,0.0085,47,2019-08-07 16:50:42:490
-7.0823,-5.9566,1.6492,-0.2717,-0.3703,0.0535,-0.0367,0.0239,0.0064,53,2019-08-07 16:50:42:496
-7.0823,-5.9566,1.6492,-0.2717,-0.3703,0.0535,-0.0367,0.0239,0.0064,58,2019-08-07 16:50:42:501
-7.0823,-5.9566,1.6492,-0.2717,-0.3703,0.0535,-0.0378,0.0111,0.0107,63,2019-08-07 16:50:42:506
-7.0583,-5.9614,1.6586,-0.2692,-0.3267,0.0744,-0.0378,0.0111,0.0107,67,2019-08-07 16:50:42:510
-7.0583,-5.9614,1.6586,-0.2692,-0.3267,0.0744,-0.0346,-0.0059,0.0117,73,2019-08-07 16:50:42:516
-6.9483,-6.0473,1.6822,-0.2692,-0.3267,0.0744,-0.0346,-0.0059,0.0117,78,2019-08-07 16:50:42:521
-6.9483,-6.0473,1.6822,-0.2692,-0.3267,0.0744,-0.0271,-0.0134,0.0181,82,2019-08-07 16:50:42:525
-6.9483,-6.0473,1.6822,-0.4193,-0.2968,0.067,-0.0271,-0.0134,0.0181,88,2019-08-07 16:50:42:531
-6.8956,-6.0425,1.6445,-0.4193,-0.2968,0.067,-0.0271,-0.0134,0.0181,93,2019-08-07 16:50:42:536
-6.8956,-6.0425,1.6445,-0.4193,-0.2968,0.067,-0.0197,-0.0112,0.0266,98,2019-08-07 16:50:42:541
-6.8956,-6.0425,1.6445,-0.4193,-0.2968,0.067,-0.0197,-0.0112,0.0266,102,2019-08-07 16:50:42:545
-6.9243,-5.9662,1.5879,-0.3458,-0.2888,0.1601,-0.0165,-0.008,0.0373,108,2019-08-07 16:50:42:551
-6.9243,-5.9662,1.5879,-0.3458,-0.2888,0.1601,-0.0111,0.0026,0.0362,113,2019-08-07 16:50:42:556
-7.0008,-5.9948,1.6256,-0.3458,-0.2888,0.1601,-0.0111,0.0026,0.0362,118,2019-08-07 16:50:42:561
-7.0008,-5.9948,1.6256,-0.3458,-0.2888,0.1601,-0.0111,0.0026,0.0362,123,2019-08-07 16:50:42:566
-7.0008,-5.9948,1.6256,-0.2981,-0.2742,0.1813,-0.0101,0.0122,0.0341,128,2019-08-07 16:50:42:571
-7.0152,-5.9709,1.5314,-0.2981,-0.2742,0.1813,-0.0101,0.0122,0.0341,133,2019-08-07 16:50:42:576
-7.0152,-5.9709,1.5314,-0.2981,-0.2742,0.1813,-0.0154,0.0324,0.0234,138,2019-08-07 16:50:42:581
-7.1204,-6.0044,1.489,-0.2981,-0.2742,0.1813,-0.0154,0.0324,0.0234,143,2019-08-07 16:50:42:586
-7.1204,-6.0044,1.489,-0.1544,-0.2755,0.1601,-0.0186,0.0537,0.0139,148,2019-08-07 16:50:42:591
-7.1204,-6.0044,1.489,-0.1544,-0.2755,0.1601,-0.0186,0.0537,0.0139,152,2019-08-07 16:50:42:595
-7.2113,-6.0378,1.5832,-0.1544,-0.2755,0.1601,-0.0175,0.0644,0.0043,158,2019-08-07 16:50:42:601
-7.2113,-6.0378,1.5832,-0.1544,-0.2755,0.1601,-0.0175,0.0644,0.0043,163,2019-08-07 16:50:42:606
-7.1873,-6.0378,1.588,-0.1577,-0.2368,0.1195,-0.0154,0.0676,-0.0064,167,2019-08-07 16:50:42:610
-7.1873,-6.0378,1.588,-0.1577,-0.2368,0.1195,-0.0154,0.0676,-0.0064,173,2019-08-07 16:50:42:616
-7.1873,-6.0378,1.588,-0.1577,-0.2368,0.1195,-0.0111,0.0601,-0.0149,177,2019-08-07 16:50:42:620
-7.2495,-6.0521,1.588,-0.1577,-0.2368,0.1195,-0.0111,0.0601,-0.0149,183,2019-08-07 16:50:42:626
-7.2495,-6.0521,1.588,-0.1299,-0.2673,0.1137,-0.0111,0.0601,-0.0149,188,2019-08-07 16:50:42:631
-7.2304,-6.0473,1.5785,-0.1299,-0.2673,0.1137,-0.0058,0.0346,-0.0224,194,2019-08-07 16:50:42:637
-7.2304,-6.0473,1.5785,-0.1299,-0.2673,0.1137,-0.0058,0.0346,-0.0224,197,2019-08-07 16:50:42:640
-7.2304,-6.0473,1.5785,-0.2011,-0.2258,0.1204,6.0E-4,0.0175,-0.0202,203,2019-08-07 16:50:42:646
-7.0246,-6.0569,1.6115,-0.2011,-0.2258,0.1204,6.0E-4,0.0175,-0.0202,208,2019-08-07 16:50:42:651
-7.0246,-6.0569,1.6115,-0.2011,-0.2258,0.1204,0.0155,0.0037,-0.0181,213,2019-08-07 16:50:42:656
-6.9433,-6.0044,1.6068,-0.3997,-0.2763,0.0872,0.0155,0.0037,-0.0181,218,2019-08-07 16:50:42:661
-6.9433,-6.0044,1.6068,-0.3997,-0.2763,0.0872,0.0261,5.0E-4,-0.0149,222,2019-08-07 16:50:42:665
-6.9433,-6.0044,1.6068,-0.3997,-0.2763,0.0872,0.0261,5.0E-4,-0.0149,228,2019-08-07 16:50:42:671
-6.8954,-6.0187,1.6021,-0.3997,-0.2763,0.0872,0.0336,0.0037,-0.0075,232,2019-08-07 16:50:42:675
-6.8954,-6.0187,1.6021,-0.4699,-0.2773,0.1659,0.0336,0.0037,-0.0075,238,2019-08-07 16:50:42:681
-6.9193,-6.0139,1.6634,-0.4699,-0.2773,0.1659,0.0347,0.009,-0.0021,243,2019-08-07 16:50:42:686
-6.9193,-6.0139,1.6634,-0.4699,-0.2773,0.1659,0.0347,0.009,-0.0021,247,2019-08-07 16:50:42:690
-6.9193,-6.0139,1.6634,-0.4792,-0.3154,0.0544,0.0347,0.009,-0.0021,253,2019-08-07 16:50:42:696
-6.881,-5.9853,1.6634,-0.4792,-0.3154,0.0544,0.0347,0.0292,0.0021,257,2019-08-07 16:50:42:700
-6.881,-5.9853,1.6634,-0.4792,-0.3154,0.0544,0.0347,0.0292,0.0021,263,2019-08-07 16:50:42:706
-6.881,-5.9853,1.6634,-0.4792,-0.3154,0.0544,0.0272,0.0378,0.0032,267,2019-08-07 16:50:42:710
-6.9623,-5.8755,1.5927,-0.3796,-0.405,0.1063,0.0272,0.0378,0.0032,273,2019-08-07 16:50:42:716
-6.9623,-5.8755,1.5927,-0.3796,-0.405,0.1063,0.023,0.0548,0.0,278,2019-08-07 16:50:42:721
-7.0054,-5.9662,1.5833,-0.3796,-0.405,0.1063,0.023,0.0548,0.0,283,2019-08-07 16:50:42:726
-7.0054,-5.9662,1.5833,-0.3149,-0.3134,0.1897,0.0144,0.0718,-0.0011,288,2019-08-07 16:50:42:731
-7.0054,-5.9662,1.5833,-0.3149,-0.3134,0.1897,0.0144,0.0718,-0.0011,293,2019-08-07 16:50:42:736
-7.0532,-5.9423,1.555,-0.3149,-0.3134,0.1897,0.0112,0.0708,-0.0043,298,2019-08-07 16:50:42:741
-7.0532,-5.9423,1.555,-0.3149,-0.3134,0.1897,0.0112,0.0708,-0.0043,302,2019-08-07 16:50:42:745
-7.0532,-5.971,1.5974,-0.3149,-0.3134,0.1897,0.0176,0.075,-0.0021,308,2019-08-07 16:50:42:751
-7.0532,-5.971,1.5974,-0.2887,-0.3035,0.1143,0.0176,0.075,-0.0021,312,2019-08-07 16:50:42:755
-7.0532,-5.971,1.5974,-0.2887,-0.3035,0.1143,0.0261,0.0708,-0.0011,318,2019-08-07 16:50:42:761
-7.0436,-5.9662,1.621,-0.2887,-0.3035,0.1143,0.0261,0.0708,-0.0011,323,2019-08-07 16:50:42:766
-7.0436,-5.9662,1.621,-0.2887,-0.3035,0.1143,0.024,0.0612,0.0011,328,2019-08-07 16:50:42:771
-7.0388,-5.9376,1.5597,-0.2962,-0.3214,0.0882,0.024,0.0612,0.0011,332,2019-08-07 16:50:42:775
-7.0388,-5.9376,1.5597,-0.2962,-0.3214,0.0882,0.024,0.0527,0.0032,338,2019-08-07 16:50:42:781
-7.0196,-5.9232,1.621,-0.2962,-0.3214,0.0882,0.024,0.0527,0.0032,343,2019-08-07 16:50:42:786
-7.0196,-5.9232,1.621,-0.2962,-0.3214,0.0882,0.024,0.0527,0.0032,349,2019-08-07 16:50:42:792
-7.0196,-5.9232,1.621,-0.3179,-0.2864,0.0502,0.0176,0.0378,0.0043,353,2019-08-07 16:50:42:796
-7.0292,-6.0569,1.621,-0.3179,-0.2864,0.0502,0.0176,0.0378,0.0043,358,2019-08-07 16:50:42:801
-7.0292,-6.0569,1.621,-0.3179,-0.2864,0.0502,0.0176,0.0346,0.0075,363,2019-08-07 16:50:42:806
-7.0292,-6.0569,1.621,-0.3179,-0.2864,0.0502,0.0176,0.0346,0.0075,367,2019-08-07 16:50:42:810
-6.9717,-6.0665,1.5597,-0.3819,-0.2087,0.1085,0.0219,0.042,0.0107,373,2019-08-07 16:50:42:816
-6.9717,-6.0665,1.5597,-0.3819,-0.2087,0.1085,0.0219,0.042,0.0107,377,2019-08-07 16:50:42:820
-7.0052,-6.1046,1.5503,-0.3819,-0.2087,0.1085,0.0261,0.0633,0.0149,383,2019-08-07 16:50:42:826
-7.0052,-6.1046,1.5503,-0.3819,-0.2087,0.1085,0.0261,0.0633,0.0149,388,2019-08-07 16:50:42:831
-7.0052,-6.1046,1.5503,-0.3323,-0.1684,0.0984,0.0272,0.0814,0.0139,394,2019-08-07 16:50:42:837
-7.0482,-6.0712,1.5645,-0.3323,-0.1684,0.0984,0.0272,0.0814,0.0139,398,2019-08-07 16:50:42:841
-7.0482,-6.0712,1.5645,-0.3323,-0.1684,0.0984,0.0272,0.0814,0.0139,403,2019-08-07 16:50:42:846
-7.0482,-6.0712,1.5645,-0.3323,-0.1684,0.0984,0.0357,0.0921,0.0139,407,2019-08-07 16:50:42:850
-7.1439,-6.0474,1.7153,-0.2173,-0.2226,-0.0611,0.0357,0.0921,0.0139,413,2019-08-07 16:50:42:856
-7.1439,-6.0474,1.7153,-0.2173,-0.2226,-0.0611,0.0475,0.0846,0.0139,417,2019-08-07 16:50:42:860
-7.2778,-5.9805,1.6965,-0.2173,-0.2226,-0.0611,0.0475,0.0846,0.0139,423,2019-08-07 16:50:42:866
-7.2778,-5.9805,1.6965,-0.2173,-0.2226,-0.0611,0.056,0.0601,0.0107,428,2019-08-07 16:50:42:871
-7.2778,-5.9805,1.6965,-0.0449,-0.2945,-0.0597,0.056,0.0601,0.0107,432,2019-08-07 16:50:42:875
-7.2252,-5.9042,1.6682,-0.0449,-0.2945,-0.0597,0.0538,0.0186,0.0107,438,2019-08-07 16:50:42:881
-7.2252,-5.9042,1.6682,-0.0449,-0.2945,-0.0597,0.0538,0.0186,0.0107,443,2019-08-07 16:50:42:886
-7.1917,-5.8946,1.6729,-0.0449,-0.2945,-0.0597,0.0475,-0.007,0.0064,447,2019-08-07 16:50:42:890
-7.1917,-5.8946,1.6729,-0.2005,-0.3236,-0.0165,0.0475,-0.007,0.0064,452,2019-08-07 16:50:42:895
-7.1917,-5.8946,1.6729,-0.2005,-0.3236,-0.0165,0.0464,-0.0208,0.0085,458,2019-08-07 16:50:42:901
-7.0768,-5.9519,1.555,-0.2005,-0.3236,-0.0165,0.0464,-0.0208,0.0085,463,2019-08-07 16:50:42:906
-7.0768,-5.9519,1.555,-0.2005,-0.3236,-0.0165,0.04,-0.0166,0.016,468,2019-08-07 16:50:42:911
-6.9811,-5.9901,1.5456,-0.3834,-0.2437,0.0626,0.04,-0.0166,0.016,473,2019-08-07 16:50:42:916
-6.9811,-5.9901,1.5456,-0.3834,-0.2437,0.0626,0.0347,0.0122,0.0117,478,2019-08-07 16:50:42:921
-6.9811,-5.9901,1.5456,-0.3834,-0.2437,0.0626,0.0347,0.0122,0.0117,482,2019-08-07 16:50:42:925
-6.9811,-6.0474,1.5928,-0.3834,-0.2437,0.0626,0.0261,0.0484,0.0085,488,2019-08-07 16:50:42:931
-6.9811,-6.0474,1.5928,-0.3277,-0.194,0.0858,0.0261,0.0484,0.0085,493,2019-08-07 16:50:42:936
-7.1294,-6.0712,1.5692,-0.3277,-0.194,0.0858,0.0208,0.0676,0.0032,498,2019-08-07 16:50:42:941
-7.1294,-6.0712,1.5692,-0.3277,-0.194,0.0858,0.0208,0.0676,0.0032,502,2019-08-07 16:50:42:945
-7.1294,-6.0712,1.5692,-0.3277,-0.194,0.0858,0.0219,0.0772,-0.0011,508,2019-08-07 16:50:42:951
-7.182,-6.119,1.6022,-0.1915,-0.1359,0.0543,0.0219,0.0772,-0.0011,512,2019-08-07 16:50:42:955
-7.182,-6.119,1.6022,-0.1915,-0.1359,0.0543,0.0208,0.0676,-0.0117,518,2019-08-07 16:50:42:961
-7.182,-6.119,1.6022,-0.1915,-0.1359,0.0543,0.0208,0.0676,-0.0117,523,2019-08-07 16:50:42:966
-7.2777,-6.0426,1.6305,-0.1915,-0.1359,0.0543,0.024,0.0569,-0.0202,528,2019-08-07 16:50:42:971
-7.2777,-6.0426,1.6305,-0.1013,-0.2372,0.0334,0.024,0.0569,-0.0202,533,2019-08-07 16:50:42:976
-7.2777,-6.0426,1.6305,-0.1013,-0.2372,0.0334,0.024,0.0569,-0.0202,538,2019-08-07 16:50:42:981
-7.2633,-5.9901,1.6258,-0.1013,-0.2372,0.0334,0.024,0.0292,-0.0298,543,2019-08-07 16:50:42:986
-7.2633,-5.9901,1.6258,-0.1013,-0.2372,0.0334,0.024,0.0292,-0.0298,548,2019-08-07 16:50:42:991
-7.225,-5.9233,1.6305,-0.1472,-0.3351,0.0187,0.0251,0.0015,-0.0351,553,2019-08-07 16:50:42:996
-7.225,-5.9233,1.6305,-0.1472,-0.3351,0.0187,0.0251,0.0015,-0.0351,558,2019-08-07 16:50:43:001
-7.225,-5.9233,1.6305,-0.1472,-0.3351,0.0187,0.0272,-0.0262,-0.0341,562,2019-08-07 16:50:43:005
-7.1293,-5.8898,1.6352,-0.1472,-0.3351,0.0187,0.0272,-0.0262,-0.0341,568,2019-08-07 16:50:43:011
-7.1293,-5.8898,1.6352,-0.3055,-0.4337,0.05,0.0304,-0.0325,-0.0341,572,2019-08-07 16:50:43:015
-7.0767,-5.8517,1.5598,-0.3055,-0.4337,0.05,0.0304,-0.0325,-0.0341,578,2019-08-07 16:50:43:021
-7.0767,-5.8517,1.5598,-0.3055,-0.4337,0.05,0.0325,-0.024,-0.0309,583,2019-08-07 16:50:43:026
-7.0767,-5.8517,1.5598,-0.3055,-0.4337,0.05,0.0325,-0.024,-0.0309,587,2019-08-07 16:50:43:030
-7.0145,-5.8708,1.5787,-0.3589,-0.4172,0.0577,0.0347,-0.0038,-0.0245,594,2019-08-07 16:50:43:037
-7.0145,-5.8708,1.5787,-0.3589,-0.4172,0.0577,0.0347,-0.0038,-0.0245,598,2019-08-07 16:50:43:041
-7.0001,-5.8326,1.5834,-0.3589,-0.4172,0.0577,0.0379,0.009,-0.0192,602,2019-08-07 16:50:43:045
-7.0001,-5.8326,1.5834,-0.3589,-0.4172,0.0577,0.0379,0.009,-0.0192,608,2019-08-07 16:50:43:051
-7.0001,-5.8326,1.5834,-0.3762,-0.3993,0.0472,0.0368,0.0186,-0.016,613,2019-08-07 16:50:43:056
-7.0623,-5.866,1.6022,-0.3762,-0.3993,0.0472,0.0368,0.0186,-0.016,618,2019-08-07 16:50:43:061
-7.0623,-5.866,1.6022,-0.3762,-0.3993,0.0472,0.0368,0.0186,-0.016,622,2019-08-07 16:50:43:065
-7.0623,-5.866,1.6022,-0.3762,-0.3993,0.0472,0.0379,0.0271,-0.0117,628,2019-08-07 16:50:43:071
-7.1436,-5.8373,1.6918,-0.3762,-0.3993,0.0472,0.0379,0.0271,-0.0117,632,2019-08-07 16:50:43:075
-7.1436,-5.8373,1.6918,-0.2374,-0.4612,-0.055,0.0357,0.0186,-0.0106,638,2019-08-07 16:50:43:081
-7.177,-5.7801,1.7625,-0.2374,-0.4612,-0.055,0.0357,0.0186,-0.0106,643,2019-08-07 16:50:43:086
-7.177,-5.7801,1.7625,-0.2374,-0.4612,-0.055,0.0283,0.0015,-0.0085,648,2019-08-07 16:50:43:091
-7.177,-5.7801,1.7625,-0.2374,-0.4612,-0.055,0.0283,0.0015,-0.0085,652,2019-08-07 16:50:43:095
-7.11,-5.7848,1.64,-0.2519,-0.4789,0.0343,0.0198,-0.0198,-0.0053,658,2019-08-07 16:50:43:101
-7.11,-5.7848,1.64,-0.2519,-0.4789,0.0343,0.0198,-0.0198,-0.0053,663,2019-08-07 16:50:43:106
-7.0239,-5.7562,1.6588,-0.2519,-0.4789,0.0343,0.0123,-0.023,0.0021,668,2019-08-07 16:50:43:111
-7.0239,-5.7562,1.6588,-0.2519,-0.4789,0.0343,0.0123,-0.023,0.0021,673,2019-08-07 16:50:43:116
-7.0239,-5.7562,1.6588,-0.3475,-0.4203,0.0351,0.0038,-0.0208,0.0,678,2019-08-07 16:50:43:121
-7.0095,-5.8469,1.6588,-0.3475,-0.4203,0.0351,0.0038,-0.0208,0.0,682,2019-08-07 16:50:43:125
-7.0095,-5.8469,1.6588,-0.3475,-0.4203,0.0351,-5.0E-4,-0.0155,0.0053,688,2019-08-07 16:50:43:131
-7.0095,-5.8469,1.6588,-0.3475,-0.4203,0.0351,-5.0E-4,-0.0155,0.0053,692,2019-08-07 16:50:43:135
-6.9617,-5.8755,1.6305,-0.3528,-0.3569,0.0899,-5.0E-4,-0.0155,0.0053,698,2019-08-07 16:50:43:141
-6.9617,-5.8755,1.6305,-0.3528,-0.3569,0.0899,6.0E-4,-6.0E-4,0.0139,703,2019-08-07 16:50:43:146
-6.976,-5.8803,1.5928,-0.3528,-0.3569,0.0899,6.0E-4,-6.0E-4,0.0139,707,2019-08-07 16:50:43:150
-6.976,-5.8803,1.5928,-0.3528,-0.3569,0.0899,-0.0037,0.0175,0.0171,713,2019-08-07 16:50:43:156
-6.976,-5.8803,1.5928,-0.3506,-0.3735,0.0835,-0.0037,0.0175,0.0171,718,2019-08-07 16:50:43:161
-7.0765,-5.8183,1.6447,-0.3506,-0.3735,0.0835,-0.0058,0.0186,0.016,723,2019-08-07 16:50:43:166
-7.0765,-5.8183,1.6447,-0.3506,-0.3735,0.0835,-0.0058,0.0186,0.016,728,2019-08-07 16:50:43:171
-7.0669,-5.8278,1.5834,-0.3506,-0.3735,0.0835,-0.0058,0.0111,0.0181,733,2019-08-07 16:50:43:176
-7.0669,-5.8278,1.5834,-0.2964,-0.3513,0.0665,-0.0058,0.0111,0.0181,738,2019-08-07 16:50:43:181
-7.0669,-5.8278,1.5834,-0.2964,-0.3513,0.0665,-0.0111,0.0133,0.0224,743,2019-08-07 16:50:43:186
-7.019,-5.9424,1.5929,-0.2964,-0.3513,0.0665,-0.0111,0.0133,0.0224,748,2019-08-07 16:50:43:191
-7.019,-5.9424,1.5929,-0.2964,-0.3513,0.0665,-0.0111,0.0175,0.0213,753,2019-08-07 16:50:43:196
-7.1242,-5.9424,1.5551,-0.2808,-0.2908,0.1147,-0.0111,0.0175,0.0213,758,2019-08-07 16:50:43:201
-7.1242,-5.9424,1.5551,-0.2808,-0.2908,0.1147,-0.0122,0.0207,0.0234,763,2019-08-07 16:50:43:206
-7.1242,-5.9424,1.5551,-0.2808,-0.2908,0.1147,-0.0122,0.0207,0.0234,768,2019-08-07 16:50:43:211
-7.0955,-5.9567,1.4892,-0.2808,-0.2908,0.1147,-0.009,0.0207,0.0181,773,2019-08-07 16:50:43:216
-7.0955,-5.9567,1.4892,-0.2893,-0.2545,0.1426,-0.009,0.0207,0.0181,777,2019-08-07 16:50:43:220
-7.062,-6.014,1.5174,-0.2893,-0.2545,0.1426,-0.0037,0.0271,0.0171,782,2019-08-07 16:50:43:225
-7.062,-6.014,1.5174,-0.2893,-0.2545,0.1426,-0.0037,0.0271,0.0171,788,2019-08-07 16:50:43:231
-7.062,-6.014,1.5174,-0.2893,-0.2545,0.1426,-0.0037,0.0271,0.0171,792,2019-08-07 16:50:43:235
-7.105,-5.9901,1.5127,-0.2735,-0.2568,0.1513,-5.0E-4,0.0356,0.0181,798,2019-08-07 16:50:43:241
-7.105,-5.9901,1.5127,-0.2735,-0.2568,0.1513,-5.0E-4,0.0356,0.0181,803,2019-08-07 16:50:43:246
-7.0046,-5.9997,1.4043,-0.2735,-0.2568,0.1513,0.0059,0.0473,0.0117,809,2019-08-07 16:50:43:252
-7.0046,-5.9997,1.4043,-0.2735,-0.2568,0.1513,0.0059,0.0473,0.0117,812,2019-08-07 16:50:43:255
-7.0046,-5.9997,1.4043,-0.4299,-0.2741,0.365,0.0155,0.0633,0.0117,818,2019-08-07 16:50:43:261
-6.9806,-6.0045,1.277,-0.4299,-0.2741,0.365,0.0155,0.0633,0.0117,822,2019-08-07 16:50:43:265
-6.9806,-6.0045,1.277,-0.4299,-0.2741,0.365,0.0198,0.1294,0.0075,828,2019-08-07 16:50:43:271
-6.9806,-6.0045,1.277,-0.4299,-0.2741,0.365,0.0198,0.1294,0.0075,833,2019-08-07 16:50:43:276
-6.9136,-6.0092,1.3949,-0.4727,-0.2352,0.2439,0.0261,0.1794,0.0032,838,2019-08-07 16:50:43:281
-6.9136,-6.0092,1.3949,-0.4727,-0.2352,0.2439,0.0261,0.1794,0.0032,843,2019-08-07 16:50:43:286
-7.0236,-5.9854,1.4043,-0.4727,-0.2352,0.2439,0.0304,0.2199,-0.0021,848,2019-08-07 16:50:43:291
-7.0236,-5.9854,1.4043,-0.4727,-0.2352,0.2439,0.0304,0.2199,-0.0021,853,2019-08-07 16:50:43:296
-7.0236,-5.9854,1.4043,-0.2783,-0.2256,0.1956,0.0325,0.2391,-0.0106,858,2019-08-07 16:50:43:301
-7.1528,-6.0092,1.3808,-0.2783,-0.2256,0.1956,0.0325,0.2391,-0.0106,863,2019-08-07 16:50:43:306
-7.1528,-6.0092,1.3808,-0.2783,-0.2256,0.1956,0.0304,0.2338,-0.0128,868,2019-08-07 16:50:43:311
-7.1528,-6.0092,1.3808,-0.2783,-0.2256,0.1956,0.0304,0.2338,-0.0128,872,2019-08-07 16:50:43:315
-7.2293,-6.0379,1.475,-0.1361,-0.2074,0.0884,0.0325,0.2178,-0.0224,878,2019-08-07 16:50:43:321
-7.2293,-6.0379,1.475,-0.1361,-0.2074,0.0884,0.0325,0.2178,-0.0224,883,2019-08-07 16:50:43:326
-7.3106,-6.0952,1.5552,-0.1361,-0.2074,0.0884,0.0325,0.2178,-0.0224,887,2019-08-07 16:50:43:330
-7.3106,-6.0952,1.5552,-0.1361,-0.2074,0.0884,0.0336,0.1784,-0.0213,893,2019-08-07 16:50:43:336
-7.3106,-6.0952,1.5552,-0.1633,-0.1046,0.0075,0.0336,0.1784,-0.0213,898,2019-08-07 16:50:43:341
-7.2628,-6.0904,1.4609,-0.1633,-0.1046,0.0075,0.0336,0.1432,-0.0309,903,2019-08-07 16:50:43:346
-7.2628,-6.0904,1.4609,-0.1633,-0.1046,0.0075,0.0336,0.1432,-0.0309,908,2019-08-07 16:50:43:351
-7.2771,-6.1381,1.4656,-0.1633,-0.1046,0.0075,0.0347,0.1187,-0.033,913,2019-08-07 16:50:43:356
-7.2771,-6.1381,1.4656,-0.1825,-0.0989,0.0578,0.0347,0.1187,-0.033,917,2019-08-07 16:50:43:360
-7.2771,-6.1381,1.4656,-0.1825,-0.0989,0.0578,0.0496,0.0942,-0.0351,923,2019-08-07 16:50:43:366
-7.2149,-6.0522,1.5976,-0.1825,-0.0989,0.0578,0.0496,0.0942,-0.0351,928,2019-08-07 16:50:43:371
-7.2149,-6.0522,1.5976,-0.2009,-0.1867,-0.0641,0.0602,0.0516,-0.0341,933,2019-08-07 16:50:43:376
-7.167,-5.9806,1.5835,-0.2009,-0.1867,-0.0641,0.0602,0.0516,-0.0341,938,2019-08-07 16:50:43:381
-7.167,-5.9806,1.5835,-0.2009,-0.1867,-0.0641,0.0538,0.0186,-0.033,943,2019-08-07 16:50:43:386
-7.167,-5.9806,1.5835,-0.3511,-0.3711,-0.0338,0.0538,0.0186,-0.033,947,2019-08-07 16:50:43:390
-7.0113,-5.9327,1.616,-0.3511,-0.3711,-0.0338,0.0549,-6.0E-4,-0.033,953,2019-08-07 16:50:43:396
-7.0113,-5.9327,1.616,-0.3511,-0.3711,-0.0338,0.0549,-6.0E-4,-0.033,958,2019-08-07 16:50:43:401
-6.9778,-5.7894,1.6632,-0.3511,-0.3711,-0.0338,0.056,-0.0038,-0.0288,963,2019-08-07 16:50:43:406
-6.9778,-5.7894,1.6632,-0.4075,-0.4833,-0.1333,0.056,-0.0038,-0.0288,968,2019-08-07 16:50:43:411
-6.9778,-5.7894,1.6632,-0.4075,-0.4833,-0.1333,0.056,-0.0038,-0.0288,972,2019-08-07 16:50:43:415
-6.9969,-5.7131,1.6585,-0.4075,-0.4833,-0.1333,0.0602,-0.0017,-0.0213,978,2019-08-07 16:50:43:421
-6.9969,-5.7131,1.6585,-0.4075,-0.4833,-0.1333,0.0602,-0.0017,-0.0213,983,2019-08-07 16:50:43:426
-6.9826,-5.651,1.7056,-0.4106,-0.607,-0.1517,0.0528,5.0E-4,-0.0117,988,2019-08-07 16:50:43:431
-6.9826,-5.651,1.7056,-0.4106,-0.607,-0.1517,0.0528,5.0E-4,-0.0117,993,2019-08-07 16:50:43:436
-6.9826,-5.651,1.7056,-0.4106,-0.607,-0.1517,0.0485,0.0047,0.0,997,2019-08-07 16:50:43:440
-7.0113,-5.6128,1.6914,-0.4106,-0.607,-0.1517,0.0485,0.0047,0.0,1003,2019-08-07 16:50:43:446
-7.0113,-5.6128,1.6914,-0.4106,-0.607,-0.1517,0.0485,0.0047,0.0,1008,2019-08-07 16:50:43:451
-7.0113,-5.6128,1.6914,-0.4072,-0.5751,-0.0837,0.0336,0.0175,0.0117,1013,2019-08-07 16:50:43:456
-7.0304,-5.7226,1.7244,-0.4072,-0.5751,-0.0837,0.0336,0.0175,0.0117,1017,2019-08-07 16:50:43:460
-7.0304,-5.7226,1.7244,-0.4072,-0.5751,-0.0837,0.023,0.0143,0.0202,1023,2019-08-07 16:50:43:466
-6.9778,-5.7703,1.6255,-0.4072,-0.5751,-0.0837,0.023,0.0143,0.0202,1028,2019-08-07 16:50:43:471
-6.9778,-5.7703,1.6255,-0.4536,-0.4368,-0.0719,0.0123,0.0186,0.0266,1033,2019-08-07 16:50:43:476
-6.9778,-5.7703,1.6255,-0.4536,-0.4368,-0.0719,0.0123,0.0186,0.0266,1038,2019-08-07 16:50:43:481
-6.9539,-5.8897,1.6207,-0.4536,-0.4368,-0.0719,0.0027,0.0537,0.032,1043,2019-08-07 16:50:43:486
-6.9539,-5.8897,1.6207,-0.4157,-0.365,-0.0577,0.0027,0.0537,0.032,1049,2019-08-07 16:50:43:492
-7.0496,-5.842,1.616,-0.4157,-0.365,-0.0577,0.0027,0.0537,0.032,1053,2019-08-07 16:50:43:496
-7.0496,-5.842,1.616,-0.4157,-0.365,-0.0577,-0.0165,0.0825,0.0309,1057,2019-08-07 16:50:43:500
-7.0496,-5.842,1.616,-0.4157,-0.365,-0.0577,-0.0165,0.0825,0.0309,1063,2019-08-07 16:50:43:506
-7.1357,-5.8801,1.6537,-0.4157,-0.365,-0.0577,-0.025,0.0857,0.0352,1068,2019-08-07 16:50:43:511
-7.1357,-5.8801,1.6537,-0.2457,-0.3313,-0.0902,-0.025,0.0857,0.0352,1073,2019-08-07 16:50:43:516
-7.1692,-5.9327,1.6537,-0.2457,-0.3313,-0.0902,-0.0239,0.075,0.0362,1077,2019-08-07 16:50:43:520
-7.1692,-5.9327,1.6537,-0.2457,-0.3313,-0.0902,-0.0239,0.075,0.0362,1083,2019-08-07 16:50:43:526
-7.1692,-5.9327,1.6537,-0.2457,-0.3313,-0.0902,-0.0239,0.0473,0.0352,1088,2019-08-07 16:50:43:531
-7.2219,-5.9613,1.6773,-0.195,-0.2736,-0.1437,-0.0239,0.0473,0.0352,1093,2019-08-07 16:50:43:536
-7.2219,-5.9613,1.6773,-0.195,-0.2736,-0.1437,-0.026,0.0165,0.0362,1098,2019-08-07 16:50:43:541
-7.1884,-5.9231,1.7291,-0.195,-0.2736,-0.1437,-0.026,0.0165,0.0362,1102,2019-08-07 16:50:43:545
-7.1884,-5.9231,1.7291,-0.195,-0.2736,-0.1437,-0.0282,-0.0059,0.0266,1108,2019-08-07 16:50:43:551
-7.1884,-5.9231,1.7291,-0.257,-0.25,-0.0624,-0.0282,-0.0059,0.0266,1113,2019-08-07 16:50:43:556
-7.1645,-5.9422,1.5689,-0.257,-0.25,-0.0624,-0.0282,-0.0059,0.0266,1117,2019-08-07 16:50:43:560
-7.1645,-5.9422,1.5689,-0.257,-0.25,-0.0624,-0.0314,-0.023,0.0277,1123,2019-08-07 16:50:43:566
-7.1597,-6.0234,1.5547,-0.257,-0.25,-0.0624,-0.0378,-0.0304,0.033,1129,2019-08-07 16:50:43:572
-7.1597,-6.0234,1.5547,-0.2743,-0.1891,0.0319,-0.0378,-0.0304,0.033,1132,2019-08-07 16:50:43:575
-7.1597,-6.0234,1.5547,-0.2743,-0.1891,0.0319,-0.0378,-0.0304,0.033,1138,2019-08-07 16:50:43:581
-7.1597,-6.0234,1.5547,-0.2743,-0.1891,0.0319,-0.0324,-0.0134,0.0298,1143,2019-08-07 16:50:43:586
-7.1023,-6.0854,1.4699,-0.2743,-0.1891,0.0319,-0.0324,-0.0134,0.0298,1148,2019-08-07 16:50:43:591
-7.1023,-6.0854,1.4699,-0.3246,-0.1676,0.124,-0.0292,0.0154,0.0224,1153,2019-08-07 16:50:43:596
-7.1023,-6.0854,1.4699,-0.3246,-0.1676,0.124,-0.0292,0.0154,0.0224,1158,2019-08-07 16:50:43:601
-7.1406,-6.0138,1.451,-0.3246,-0.1676,0.124,-0.026,0.0324,0.0192,1163,2019-08-07 16:50:43:606
-7.1406,-6.0138,1.451,-0.3246,-0.1676,0.124,-0.026,0.0324,0.0192,1168,2019-08-07 16:50:43:611
-7.1406,-6.0138,1.451,-0.1796,-0.2421,0.0071,-0.0271,0.0399,0.0149,1172,2019-08-07 16:50:43:615
-7.2554,-5.9995,1.5312,-0.1796,-0.2421,0.0071,-0.0271,0.0399,0.0149,1178,2019-08-07 16:50:43:621
-7.2554,-5.9995,1.5312,-0.1796,-0.2421,0.0071,-0.0314,0.0197,0.0096,1183,2019-08-07 16:50:43:626
-7.2411,-5.9947,1.4793,-0.1796,-0.2421,0.0071,-0.0314,0.0197,0.0096,1188,2019-08-07 16:50:43:631
-7.2411,-5.9947,1.4793,-0.22,-0.2698,0.0616,-0.0314,0.0197,0.0096,1193,2019-08-07 16:50:43:636
-7.2411,-5.9947,1.4793,-0.22,-0.2698,0.0616,-0.0324,-0.0017,0.0032,1198,2019-08-07 16:50:43:641
-7.2219,-6.009,1.4416,-0.22,-0.2698,0.0616,-0.0324,-0.0017,0.0032,1202,2019-08-07 16:50:43:645
-7.2219,-6.009,1.4416,-0.22,-0.2698,0.0616,-0.0335,-0.0176,-0.0021,1208,2019-08-07 16:50:43:651
-7.2219,-6.009,1.4416,-0.2627,-0.29,0.0733,-0.0335,-0.0176,-0.0021,1213,2019-08-07 16:50:43:656
-7.131,-5.9661,1.3426,-0.2627,-0.29,0.0733,-0.0314,-0.0176,-0.0096,1218,2019-08-07 16:50:43:661
-7.131,-5.9661,1.3426,-0.2627,-0.29,0.0733,-0.0314,-0.0176,-0.0096,1223,2019-08-07 16:50:43:666
-7.1215,-6.0281,1.3285,-0.2627,-0.29,0.0733,-0.0239,-0.0027,-0.0149,1228,2019-08-07 16:50:43:671
-7.1215,-6.0281,1.3285,-0.3181,-0.231,0.1505,-0.0239,-0.0027,-0.0149,1233,2019-08-07 16:50:43:676
-7.1071,-5.9231,1.4416,-0.3181,-0.231,0.1505,-0.0122,0.0122,-0.0138,1238,2019-08-07 16:50:43:681
-7.1071,-5.9231,1.4416,-0.3181,-0.231,0.1505,-0.0122,0.0122,-0.0138,1243,2019-08-07 16:50:43:686
-7.1071,-5.9231,1.4416,-0.2695,-0.3183,0.0308,-0.0122,0.0122,-0.0138,1248,2019-08-07 16:50:43:691
-7.1645,-5.9326,1.5359,-0.2695,-0.3183,0.0308,-0.0079,0.0111,-0.0085,1253,2019-08-07 16:50:43:696
-7.1645,-5.9326,1.5359,-0.2695,-0.3183,0.0308,-0.0079,0.0111,-0.0085,1257,2019-08-07 16:50:43:700
-7.1645,-5.9326,1.5359,-0.2688,-0.3144,-0.0777,-0.0026,-0.008,-0.0032,1263,2019-08-07 16:50:43:706
-7.1598,-5.8324,1.5689,-0.2688,-0.3144,-0.0777,-0.0026,-0.008,-0.0032,1267,2019-08-07 16:50:43:710
-7.1598,-5.8324,1.5689,-0.2688,-0.3144,-0.0777,-0.0079,-0.0453,0.0075,1273,2019-08-07 16:50:43:716
-7.1359,-5.8944,1.6348,-0.2688,-0.3144,-0.0777,-0.0079,-0.0453,0.0075,1278,2019-08-07 16:50:43:721
-7.1359,-5.8944,1.6348,-0.2688,-0.3144,-0.0777,-0.0122,-0.0677,0.0117,1282,2019-08-07 16:50:43:725
-7.1359,-5.8944,1.6348,-0.3019,-0.3368,-0.1173,-0.0122,-0.0677,0.0117,1288,2019-08-07 16:50:43:731
-7.1024,-5.8324,1.7103,-0.3019,-0.3368,-0.1173,-0.0186,-0.0837,0.016,1293,2019-08-07 16:50:43:736
-7.1024,-5.8324,1.7103,-0.3019,-0.3368,-0.1173,-0.0186,-0.0837,0.016,1298,2019-08-07 16:50:43:741
-6.9876,-5.7369,1.6066,-0.4401,-0.4875,-0.0825,-0.0346,-0.0794,0.016,1302,2019-08-07 16:50:43:745
-6.9876,-5.7369,1.6066,-0.4401,-0.4875,-0.0825,-0.0346,-0.0794,0.016,1308,2019-08-07 16:50:43:751
-6.9876,-5.7369,1.6066,-0.4401,-0.4875,-0.0825,-0.0484,-0.0528,0.017,1312,2019-08-07 16:50:43:755
-7.0258,-5.7703,1.6396,-0.4401,-0.4875,-0.0825,-0.0484,-0.0528,0.017,1318,2019-08-07 16:50:43:761
-7.0258,-5.7703,1.6396,-0.4401,-0.4875,-0.0825,-0.0484,-0.0528,0.017,1323,2019-08-07 16:50:43:766
-7.1024,-5.7512,1.6726,-0.3786,-0.5143,-0.1539,-0.0655,-0.0166,0.0234,1328,2019-08-07 16:50:43:771
-7.1024,-5.7512,1.6726,-0.3786,-0.5143,-0.1539,-0.0655,-0.0166,0.0234,1333,2019-08-07 16:50:43:776
-7.2029,-5.7369,1.7055,-0.3786,-0.5143,-0.1539,-0.074,5.0E-4,0.0277,1338,2019-08-07 16:50:43:781
-7.2029,-5.7369,1.7055,-0.3786,-0.5143,-0.1539,-0.074,5.0E-4,0.0277,1343,2019-08-07 16:50:43:786
-7.2029,-5.7369,1.7055,-0.115,-0.5442,-0.2877,-0.0814,0.0026,0.0383,1349,2019-08-07 16:50:43:792
-7.4469,-5.6701,1.8517,-0.115,-0.5442,-0.2877,-0.0814,0.0026,0.0383,1353,2019-08-07 16:50:43:796
-7.4469,-5.6701,1.8517,-0.115,-0.5442,-0.2877,-0.0814,0.0026,0.0383,1358,2019-08-07 16:50:43:801
-7.4469,-5.6701,1.8517,-0.115,-0.5442,-0.2877,-0.0889,-0.0315,0.0554,1363,2019-08-07 16:50:43:806
-7.6143,-5.6223,1.9884,0.1742,-0.5891,-0.4722,-0.0889,-0.0315,0.0554,1367,2019-08-07 16:50:43:810
-7.6143,-5.6223,1.9884,0.1742,-0.5891,-0.4722,-0.0964,-0.0943,0.0692,1373,2019-08-07 16:50:43:816
-7.7866,-5.5698,2.1156,0.1742,-0.5891,-0.4722,-0.0964,-0.0943,0.0692,1378,2019-08-07 16:50:43:821
-7.7866,-5.5698,2.1156,0.1742,-0.5891,-0.4722,-0.0932,-0.1561,0.0767,1383,2019-08-07 16:50:43:826
-7.7866,-5.5698,2.1156,0.4,-0.7151,-0.7468,-0.0932,-0.1561,0.0767,1388,2019-08-07 16:50:43:831
-7.9253,-5.5269,2.4173,0.4,-0.7151,-0.7468,-0.0782,-0.2147,0.0831,1393,2019-08-07 16:50:43:836
-7.9253,-5.5269,2.4173,0.4,-0.7151,-0.7468,-0.0782,-0.2147,0.0831,1399,2019-08-07 16:50:43:842
-7.9253,-5.5269,2.4173,0.4,-0.7151,-0.7468,-0.0782,-0.2147,0.0831,1402,2019-08-07 16:50:43:845
-8.0593,-5.4887,2.6342,0.6037,-0.6943,-1.0785,-0.0559,-0.2808,0.0842,1408,2019-08-07 16:50:43:851
-8.0593,-5.4887,2.6342,0.6037,-0.6943,-1.0785,-0.0559,-0.2808,0.0842,1412,2019-08-07 16:50:43:855
-8.2842,-5.4409,3.016,0.6037,-0.6943,-1.0785,-0.0516,-0.3425,0.0831,1418,2019-08-07 16:50:43:861
-8.2842,-5.4409,3.016,0.6037,-0.6943,-1.0785,-0.0516,-0.3425,0.0831,1423,2019-08-07 16:50:43:866
-8.2842,-5.4409,3.016,1.0163,-0.7096,-1.6042,-0.0623,-0.4214,0.0842,1428,2019-08-07 16:50:43:871
-8.5856,-5.4218,3.4638,1.0163,-0.7096,-1.6042,-0.0623,-0.4214,0.0842,1433,2019-08-07 16:50:43:876
-8.5856,-5.4218,3.4638,1.0163,-0.7096,-1.6042,-0.0761,-0.5268,0.0852,1438,2019-08-07 16:50:43:881
-8.5856,-5.4218,3.4638,1.0163,-0.7096,-1.6042,-0.0761,-0.5268,0.0852,1443,2019-08-07 16:50:43:886
-8.9635,-5.4218,4.284,1.6116,-0.7326,-2.8075,-0.0889,-0.6451,0.0948,1449,2019-08-07 16:50:43:892
-8.9635,-5.4218,4.284,1.6116,-0.7326,-2.8075,-0.0889,-0.6451,0.0948,1454,2019-08-07 16:50:43:897
-9.7099,-5.4027,5.5049,1.6116,-0.7326,-2.8075,-0.1251,-0.8326,0.1172,1458,2019-08-07 16:50:43:901
-9.7099,-5.4027,5.5049,1.6116,-0.7326,-2.8075,-0.1251,-0.8326,0.1172,1462,2019-08-07 16:50:43:905
-9.7099,-5.4027,5.5049,2.654,-0.7555,-4.4646,-0.188,-1.0595,0.1385,1467,2019-08-07 16:50:43:910
-10.3127,-5.2929,6.8059,2.654,-0.7555,-4.4646,-0.188,-1.0595,0.1385,1473,2019-08-07 16:50:43:916
-10.3127,-5.2929,6.8059,2.654,-0.7555,-4.4646,-0.205,-1.2608,0.1491,1478,2019-08-07 16:50:43:921
-10.9107,-4.9922,8.2719,2.654,-0.7555,-4.4646,-0.205,-1.2608,0.1491,1484,2019-08-07 16:50:43:927
-10.9107,-4.9922,8.2719,3.7256,-1.2544,-6.9317,-0.1741,-1.672,0.1992,1487,2019-08-07 16:50:43:930
-10.9107,-4.9922,8.2719,3.7256,-1.2544,-6.9317,-0.1741,-1.672,0.1992,1493,2019-08-07 16:50:43:936
-11.5471,-4.5625,9.6294,4.2434,-1.5813,-7.8286,-0.1656,-2.0257,0.2674,1499,2019-08-07 16:50:43:942
-11.5471,-4.5625,9.6294,4.2434,-1.5813,-7.8286,-0.1656,-2.0257,0.2674,1503,2019-08-07 16:50:43:946
-11.5471,-4.5625,9.6294,4.2434,-1.5813,-7.8286,-0.1656,-2.0257,0.2674,1508,2019-08-07 16:50:43:951
-12.3173,-4.1615,11.2321,4.2434,-1.5813,-7.8286,-0.2029,-2.4049,0.3356,1513,2019-08-07 16:50:43:956
-12.3173,-4.1615,11.2321,5.363,-2.0379,-9.4337,-0.2029,-2.4049,0.3356,1518,2019-08-07 16:50:43:961
-12.3173,-4.1615,11.2321,5.363,-2.0379,-9.4337,-0.287,-2.8725,0.4165,1523,2019-08-07 16:50:43:966
-13.0733,-3.8321,12.3399,5.363,-2.0379,-9.4337,-0.287,-2.8725,0.4165,1528,2019-08-07 16:50:43:971
-13.0733,-3.8321,12.3399,5.363,-2.0379,-9.4337,-0.368,-3.1953,0.4772,1534,2019-08-07 16:50:43:977
-13.0733,-3.8321,12.3399,6.0758,-2.2293,-9.9282,-0.368,-3.1953,0.4772,1537,2019-08-07 16:50:43:980
-13.3316,-3.6651,12.9762,6.0758,-2.2293,-9.9282,-0.4255,-3.4584,0.5348,1543,2019-08-07 16:50:43:986
-13.3316,-3.6651,12.9762,6.0758,-2.2293,-9.9282,-0.4255,-3.4584,0.5348,1548,2019-08-07 16:50:43:991
-13.4082,-3.4359,13.2402,6.0758,-2.2293,-9.9282,-0.4351,-3.6299,0.6072,1554,2019-08-07 16:50:43:997
-13.4082,-3.4359,13.2402,6.4678,-2.7077,-10.0201,-0.4351,-3.6299,0.6072,1558,2019-08-07 16:50:44:001
-13.4082,-3.4359,13.2402,6.4678,-2.7077,-10.0201,-0.4191,-3.7439,0.6999,1563,2019-08-07 16:50:44:006
-13.8005,-2.7533,13.5655,6.4678,-2.7077,-10.0201,-0.4191,-3.7439,0.6999,1568,2019-08-07 16:50:44:011
-13.8005,-2.7533,13.5655,6.4678,-2.7077,-10.0201,-0.4458,-3.8579,0.7989,1573,2019-08-07 16:50:44:016
-14.4894,-1.9799,13.8247,7.9038,-3.9664,-10.0984,-0.4458,-3.8579,0.7989,1578,2019-08-07 16:50:44:021
-14.4894,-1.9799,13.8247,7.9038,-3.9664,-10.0984,-0.5267,-4.071,0.9225,1584,2019-08-07 16:50:44:027
-14.4894,-1.9799,13.8247,7.9038,-3.9664,-10.0984,-0.5267,-4.071,0.9225,1588,2019-08-07 16:50:44:031
-16.4031,-0.8008,15.0267,7.9038,-3.9664,-10.0984,-0.6109,-4.4651,1.0812,1593,2019-08-07 16:50:44:036
-16.4031,-0.8008,15.0267,7.9038,-3.9664,-10.0984,-0.6109,-4.4651,1.0812,1598,2019-08-07 16:50:44:041
-18.0059,0.1397,15.3001,10.774,-5.3958,-10.886,-0.6109,-4.4651,1.0812,1603,2019-08-07 16:50:44:046
-18.0059,0.1397,15.3001,10.774,-5.3958,-10.886,-0.7781,-5.2427,1.338,1607,2019-08-07 16:50:44:050
-18.7283,0.6743,14.7251,10.774,-5.3958,-10.886,-0.7781,-5.2427,1.338,1613,2019-08-07 16:50:44:056
-18.7283,0.6743,14.7251,12.6936,-6.3683,-9.3328,-0.9582,-5.9416,1.5627,1618,2019-08-07 16:50:44:061
-18.7283,0.6743,14.7251,12.6936,-6.3683,-9.3328,-0.9582,-5.9416,1.5627,1622,2019-08-07 16:50:44:065
-19.4411,1.1995,14.0698,12.6936,-6.3683,-9.3328,-1.1659,-6.5914,1.7928,1628,2019-08-07 16:50:44:071
-19.4411,1.1995,14.0698,12.6936,-6.3683,-9.3328,-1.1659,-6.5914,1.7928,1634,2019-08-07 16:50:44:077
-19.4411,1.1995,14.0698,14.1669,-7.0255,-7.1459,-1.5281,-7.3807,2.1071,1638,2019-08-07 16:50:44:081
-20.0009,1.6864,12.7122,14.1669,-7.0255,-7.1459,-1.5281,-7.3807,2.1071,1643,2019-08-07 16:50:44:086
-20.0009,1.6864,12.7122,14.1669,-7.0255,-7.1459,-1.5281,-7.3807,2.1071,1647,2019-08-07 16:50:44:090
-20.0009,1.6864,12.7122,14.1669,-7.0255,-7.1459,-1.902,-7.8825,2.3659,1652,2019-08-07 16:50:44:095
-19.7091,1.8439,11.0341,14.5013,-7.151,-3.6152,-2.2908,-8.1413,2.6014,1658,2019-08-07 16:50:44:101
-19.7091,1.8439,11.0341,14.5013,-7.151,-3.6152,-2.2908,-8.1413,2.6014,1663,2019-08-07 16:50:44:106
-19.2546,1.9537,8.5735,14.5013,-7.151,-3.6152,-2.6647,-8.217,2.8592,1669,2019-08-07 16:50:44:112
-19.2546,1.9537,8.5735,14.5013,-7.151,-3.6152,-2.6647,-8.217,2.8592,1672,2019-08-07 16:50:44:115
-19.2546,1.6434,6.3156,14.5013,-7.151,-3.6152,-2.9779,-8.1136,3.1415,1678,2019-08-07 16:50:44:121
-17.9868,1.6434,6.3156,13.6285,-6.9903,0.6596,-2.9779,-8.1136,3.1415,1683,2019-08-07 16:50:44:126
-17.9868,1.6434,6.3156,13.6285,-6.9903,0.6596,-3.2346,-7.7301,3.3843,1687,2019-08-07 16:50:44:130
-16.5706,1.2186,4.2745,13.6285,-6.9903,0.6596,-3.2346,-7.7301,3.3843,1693,2019-08-07 16:50:44:136
-16.5706,1.2186,4.2745,13.6285,-6.9903,0.6596,-3.2346,-7.7301,3.3843,1698,2019-08-07 16:50:44:141
-16.5706,1.2186,4.2745,12.4965,-6.775,4.3717,-3.5158,-7.206,3.5665,1702,2019-08-07 16:50:44:145
-16.0539,1.4,2.0779,12.4965,-6.775,4.3717,-3.5158,-7.206,3.5665,1708,2019-08-07 16:50:44:151
-16.0539,1.4,2.0779,12.4965,-6.775,4.3717,-3.829,-6.5999,3.689,1713,2019-08-07 16:50:44:156
-16.451,1.4429,0.4328,12.4965,-6.775,4.3717,-3.829,-6.5999,3.689,1717,2019-08-07 16:50:44:160
-16.451,1.4429,0.4328,13.4052,-7.2141,7.1423,-4.1848,-6.0289,3.7306,1723,2019-08-07 16:50:44:166
-16.451,1.4429,0.4328,13.4052,-7.2141,7.1423,-4.1848,-6.0289,3.7306,1728,2019-08-07 16:50:44:171
-16.8529,1.1326,-1.8723,13.4052,-7.2141,7.1423,-4.4032,-5.7541,3.6624,1733,2019-08-07 16:50:44:176
-16.8529,1.1326,-1.8723,13.0009,-7.0787,11.4655,-4.4032,-5.7541,3.6624,1738,2019-08-07 16:50:44:181
-15.3028,0.8176,-5.0824,13.0009,-7.0787,11.4655,-4.4032,-5.7541,3.6624,1743,2019-08-07 16:50:44:186
-15.3028,0.8176,-5.0824,13.0009,-7.0787,11.4655,-4.5939,-5.475,3.4568,1748,2019-08-07 16:50:44:191
-15.3028,0.8176,-5.0824,10.9007,-6.9991,14.3964,-4.5939,-5.475,3.4568,1753,2019-08-07 16:50:44:196
-12.7863,0.4691,-8.976,10.9007,-6.9991,14.3964,-4.7888,-4.8752,3.0978,1758,2019-08-07 16:50:44:201
-12.7863,0.4691,-8.976,10.9007,-6.9991,14.3964,-4.7888,-4.8752,3.0978,1763,2019-08-07 16:50:44:206
-12.351,0.6314,-9.7161,10.9007,-6.9991,14.3964,-4.9167,-4.3298,2.8592,1768,2019-08-07 16:50:44:211
-12.351,0.6314,-9.7161,10.1244,-7.7149,16.2737,-4.9167,-4.3298,2.8592,1773,2019-08-07 16:50:44:216
-12.351,0.6314,-9.7161,10.1244,-7.7149,16.2737,-5.0552,-3.4925,2.513,1777,2019-08-07 16:50:44:220
-13.6427,0.9847,-10.6258,10.1244,-7.7149,16.2737,-5.0552,-3.4925,2.513,1784,2019-08-07 16:50:44:227
-13.6427,0.9847,-10.6258,10.1244,-7.7149,16.2737,-5.1638,-2.1418,1.8866,1787,2019-08-07 16:50:44:230
-13.7241,1.1279,-12.4454,11.3356,-8.6381,17.86,-5.1638,-2.1418,1.8866,1793,2019-08-07 16:50:44:236
-13.7241,1.1279,-12.4454,11.3356,-8.6381,17.86,-5.2533,-1.1021,1.2197,1798,2019-08-07 16:50:44:241
-13.7241,1.1279,-12.4454,11.3356,-8.6381,17.86,-5.2533,-1.1021,1.2197,1803,2019-08-07 16:50:44:246
-11.997,0.2065,-14.9437,11.3356,-8.6381,17.86,-5.2533,-1.1021,1.2197,1807,2019-08-07 16:50:44:250
-11.997,0.2065,-14.9437,8.2919,-7.3404,20.8003,-5.4067,-0.3074,0.1587,1813,2019-08-07 16:50:44:256
-10.0259,-1.5359,-16.3908,8.2919,-7.3404,20.8003,-5.4067,-0.3074,0.1587,1818,2019-08-07 16:50:44:261
-10.0259,-1.5359,-16.3908,8.2919,-7.3404,20.8003,-5.5324,-0.6738,-0.8607,1823,2019-08-07 16:50:44:266
-10.0259,-1.5359,-16.3908,8.2919,-7.3404,20.8003,-5.5324,-0.6738,-0.8607,1828,2019-08-07 16:50:44:271
-6.3037,-4.763,-14.807,3.7261,-3.7715,18.9,-5.4525,-2.1428,-1.3742,1833,2019-08-07 16:50:44:276
-6.3037,-4.763,-14.807,3.7261,-3.7715,18.9,-5.4525,-2.1428,-1.3742,1837,2019-08-07 16:50:44:280
-6.3037,-4.763,-14.807,3.7261,-3.7715,18.9,-5.4525,-2.1428,-1.3742,1843,2019-08-07 16:50:44:286
-3.1222,-6.9017,-14.2083,3.7261,-3.7715,18.9,-5.0136,-4.1295,-1.55,1848,2019-08-07 16:50:44:291
-3.1222,-6.9017,-14.2083,-0.6827,-0.8379,19.1834,-5.0136,-4.1295,-1.55,1853,2019-08-07 16:50:44:296
-3.1222,-6.9017,-14.2083,-0.6827,-0.8379,19.1834,-3.845,-5.5591,-1.4402,1858,2019-08-07 16:50:44:301
0.6095,-9.5846,-18.9269,-0.6827,-0.8379,19.1834,-3.845,-5.5591,-1.4402,1862,2019-08-07 16:50:44:305
0.6095,-9.5846,-18.9269,-0.6827,-0.8379,19.1834,-2.5422,-5.1064,-1.3209,1868,2019-08-07 16:50:44:311
4.8961,-12.0288,-23.9706,-5.8203,2.319,26.1483,-2.5422,-5.1064,-1.3209,1873,2019-08-07 16:50:44:316
4.8961,-12.0288,-23.9706,-5.8203,2.319,26.1483,-1.1456,-3.5628,-1.1761,1878,2019-08-07 16:50:44:321
4.8961,-12.0288,-23.9706,-5.8203,2.319,26.1483,-1.1456,-3.5628,-1.1761,1883,2019-08-07 16:50:44:326
4.8961,-12.0288,-23.9706,-5.8203,2.319,26.1483,-1.1456,-3.5628,-1.1761,1888,2019-08-07 16:50:44:331
4.8961,-12.0288,-23.9706,-5.8203,2.319,26.1483,-1.1456,-3.5628,-1.1761,1893,2019-08-07 16:50:44:336
6.3075,-13.3463,-23.9659,-7.6926,4.5364,24.2907,-0.1645,-2.0512,-1.0141,1898,2019-08-07 16:50:44:341
6.3075,-13.3463,-23.9659,-7.6926,4.5364,24.2907,-0.1645,-2.0512,-1.0141,1902,2019-08-07 16:50:44:345
5.0827,-12.5587,-13.8595,-7.6926,4.5364,24.2907,1.9798,1.8253,-0.4581,1908,2019-08-07 16:50:44:351
5.0827,-12.5587,-13.8595,-5.5334,2.4904,14.0722,1.9798,1.8253,-0.4581,1913,2019-08-07 16:50:44:356
5.0827,-12.5587,-13.8595,-5.5334,2.4904,14.0722,2.7777,3.0035,-0.2386,1918,2019-08-07 16:50:44:361
3.7814,-11.0263,-7.8258,-5.5334,2.4904,14.0722,2.7777,3.0035,-0.2386,1923,2019-08-07 16:50:44:366
3.7814,-11.0263,-7.8258,-5.5334,2.4904,14.0722,3.2305,3.0056,-0.0927,1927,2019-08-07 16:50:44:370
3.0924,-10.9308,-3.6541,-3.7263,1.312,10.5946,3.2305,3.0056,-0.0927,1933,2019-08-07 16:50:44:376
3.0924,-10.9308,-3.6541,-3.7263,1.312,10.5946,3.093,1.5163,-0.13,1937,2019-08-07 16:50:44:380
0.5329,-8.7778,-11.1019,-3.7263,1.312,10.5946,3.093,1.5163,-0.13,1943,2019-08-07 16:50:44:386
0.5329,-8.7778,-11.1019,-3.7263,1.312,10.5946,2.3527,1.8924,-0.3451,1947,2019-08-07 16:50:44:390
0.5329,-8.7778,-11.1019,-0.0514,-2.9323,16.1972,2.3527,1.8924,-0.3451,1953,2019-08-07 16:50:44:396
-1.6339,-5.1354,-10.1261,-0.0514,-2.9323,16.1972,1.9138,3.5702,-0.4069,1958,2019-08-07 16:50:44:401
-1.6339,-5.1354,-10.1261,-0.134,-4.0964,3.0276,1.9138,3.5702,-0.4069,1963,2019-08-07 16:50:44:406
-1.6339,-5.1354,-10.1261,-0.134,-4.0964,3.0276,2.211,3.7992,-0.3206,1968,2019-08-07 16:50:44:411
-3.0931,-5.2118,-5.6951,-0.134,-4.0964,3.0276,2.211,3.7992,-0.3206,1973,2019-08-07 16:50:44:416
-3.0931,-5.2118,-5.6951,-0.134,-4.0964,3.0276,2.211,3.7992,-0.3206,1977,2019-08-07 16:50:44:420
-3.6098,-6.0186,-7.0621,1.9479,-2.7626,11.1075,2.6126,5.085,-0.3601,1983,2019-08-07 16:50:44:426
-3.6098,-6.0186,-7.0621,1.9479,-2.7626,11.1075,2.6126,5.085,-0.3601,1988,2019-08-07 16:50:44:431
-3.6098,-6.0186,-7.0621,1.9479,-2.7626,11.1075,2.4123,5.5377,-0.7265,1993,2019-08-07 16:50:44:436
-7.7242,-4.6962,-6.982,1.9479,-2.7626,11.1075,2.4123,5.5377,-0.7265,1998,2019-08-07 16:50:44:441
-7.7242,-4.6962,-6.982,8.0032,-4.3608,9.04,2.1993,5.4333,-0.6732,2003,2019-08-07 16:50:44:446
-7.7242,-4.6962,-6.982,8.0032,-4.3608,9.04,2.1993,5.4333,-0.6732,2008,2019-08-07 16:50:44:451
-10.7766,-4.343,-2.8338,8.0032,-4.3608,9.04,2.1247,4.7686,-0.4783,2013,2019-08-07 16:50:44:456
-10.7766,-4.343,-2.8338,8.0032,-4.3608,9.04,2.1247,4.7686,-0.4783,2017,2019-08-07 16:50:44:460
-11.432,-6.0472,1.8847,8.9861,-2.4024,2.4579,2.2238,3.8365,-0.4751,2023,2019-08-07 16:50:44:466
-11.432,-6.0472,1.8847,8.9861,-2.4024,2.4579,2.2238,3.8365,-0.4751,2028,2019-08-07 16:50:44:471
-11.432,-6.0472,1.8847,8.9861,-2.4024,2.4579,2.2621,3.5563,-0.62,2033,2019-08-07 16:50:44:476
-11.078,-6.2239,0.9891,8.4866,-2.135,3.4437,2.2621,3.5563,-0.62,2038,2019-08-07 16:50:44:481
-11.078,-6.2239,0.9891,8.4866,-2.135,3.4437,1.9436,3.126,-0.8373,2043,2019-08-07 16:50:44:486
-8.8103,-5.5937,-1.1793,8.4866,-2.135,3.4437,1.9436,3.126,-0.8373,2048,2019-08-07 16:50:44:491
-8.8103,-5.5937,-1.1793,4.8724,-2.5066,6.3746,1.9436,3.126,-0.8373,2053,2019-08-07 16:50:44:496
-8.8103,-5.5937,-1.1793,4.8724,-2.5066,6.3746,1.5932,3.7438,-1.0013,2058,2019-08-07 16:50:44:501
-6.3033,-6.095,-2.1975,4.8724,-2.5066,6.3746,1.5932,3.7438,-1.0013,2062,2019-08-07 16:50:44:505
-6.3033,-6.095,-2.1975,4.8724,-2.5066,6.3746,1.6091,4.8762,-1.1441,2068,2019-08-07 16:50:44:511
-6.3033,-6.095,-2.1975,4.8724,-2.5066,6.3746,1.6091,4.8762,-1.1441,2074,2019-08-07 16:50:44:517
-6.5043,-6.6058,-5.1766,3.4222,-1.5424,9.6871,1.6294,6.0395,-1.1707,2078,2019-08-07 16:50:44:521
-6.5043,-6.6058,-5.1766,3.4222,-1.5424,9.6871,1.6294,6.0395,-1.1707,2083,2019-08-07 16:50:44:526
-6.5043,-6.6058,-5.1766,3.4222,-1.5424,9.6871,1.6294,6.0395,-1.1707,2088,2019-08-07 16:50:44:531
-9.2648,-6.8635,-5.384,3.4222,-1.5424,9.6871,1.7476,8.4512,-1.1228,2092,2019-08-07 16:50:44:535
-9.2648,-6.8635,-5.384,7.8164,-1.279,7.8654,1.9362,9.2139,-1.0578,2099,2019-08-07 16:50:44:542
-15.3216,-6.4434,-0.2931,7.8164,-1.279,7.8654,1.9362,9.2139,-1.0578,2103,2019-08-07 16:50:44:546
-15.3216,-6.4434,-0.2931,7.8164,-1.279,7.8654,1.9362,9.2139,-1.0578,2108,2019-08-07 16:50:44:551
-20.8665,-5.8563,4.5669,16.6081,-2.12,-0.7614,2.1173,9.2342,-0.849,2113,2019-08-07 16:50:44:556
-20.8665,-5.8563,4.5669,16.6081,-2.12,-0.7614,2.1173,9.2342,-0.849,2117,2019-08-07 16:50:44:560
-20.8665,-5.8563,4.5669,16.6081,-2.12,-0.7614,1.884,7.9441,-0.6658,2123,2019-08-07 16:50:44:566
-22.6176,-5.4457,6.2874,18.0829,-2.4747,-2.6901,1.884,7.9441,-0.6658,2128,2019-08-07 16:50:44:571
-22.6176,-5.4457,6.2874,18.0829,-2.4747,-2.6901,1.5058,6.1183,-0.5582,2133,2019-08-07 16:50:44:576
-22.6176,-5.4457,6.2874,18.0829,-2.4747,-2.6901,1.5058,6.1183,-0.5582,2138,2019-08-07 16:50:44:581
-18.1204,-5.8897,6.5467,18.0829,-2.4747,-2.6901,1.1553,3.8077,-0.5646,2143,2019-08-07 16:50:44:586
-18.1204,-5.8897,6.5467,11.1595,-1.6283,-2.0471,1.1553,3.8077,-0.5646,2148,2019-08-07 16:50:44:591
-12.6951,-6.6535,2.2995,11.1595,-1.6283,-2.0471,1.2597,4.3766,-0.5561,2152,2019-08-07 16:50:44:595
-12.6951,-6.6535,2.2995,11.1595,-1.6283,-2.0471,1.2597,4.3766,-0.5561,2158,2019-08-07 16:50:44:601
-12.6951,-6.6535,2.2995,11.1595,-1.6283,-2.0471,1.2597,4.3766,-0.5561,2162,2019-08-07 16:50:44:605
-9.303,-6.9113,0.0746,4.2105,-0.8917,2.9938,1.4451,4.954,-0.522,2167,2019-08-07 16:50:44:610
-9.303,-6.9113,0.0746,4.2105,-0.8917,2.9938,1.4451,4.954,-0.522,2172,2019-08-07 16:50:44:615
-11.5134,-5.6892,2.2854,4.2105,-0.8917,2.9938,1.3822,6.8341,-0.4527,2178,2019-08-07 16:50:44:621
-11.5134,-5.6892,2.2854,4.2105,-0.8917,2.9938,1.3822,6.8341,-0.4527,2183,2019-08-07 16:50:44:626
-11.5134,-5.6892,2.2854,9.1234,-2.6577,-2.5996,1.3918,7.6821,-0.3111,2188,2019-08-07 16:50:44:631
-16.465,-4.8442,6.1884,9.1234,-2.6577,-2.5996,1.3918,7.6821,-0.3111,2192,2019-08-07 16:50:44:635
-16.465,-4.8442,6.1884,12.1783,-2.9157,-4.9824,1.3918,7.3018,-0.1822,2198,2019-08-07 16:50:44:641
-18.7758,-4.9636,8.8941,12.1783,-2.9157,-4.9824,1.3865,7.3018,-0.1822,2203,2019-08-07 16:50:44:646
-18.7758,-4.9636,8.8941,12.1783,-2.9157,-4.9824,1.3865,7.3018,-0.1822,2208,2019-08-07 16:50:44:651
-18.7758,-4.9636,8.8941,12.1783,-2.9157,-4.9824,1.3939,6.3068,-0.1225,2213,2019-08-07 16:50:44:656
-18.1826,-5.1497,9.8746,12.2849,-2.4971,-8.1489,1.3939,6.3068,-0.1225,2218,2019-08-07 16:50:44:661
-18.1826,-5.1497,9.8746,12.2849,-2.4971,-8.1489,1.4877,4.9018,-0.065,2222,2019-08-07 16:50:44:665
-18.1826,-5.1497,9.8746,12.2849,-2.4971,-8.1489,1.4877,4.9018,-0.065,2228,2019-08-07 16:50:44:671
-18.1826,-5.3264,8.5547,12.2849,-2.4971,-8.1489,1.6049,4.3915,-0.0288,2234,2019-08-07 16:50:44:677
-15.4317,-5.3264,8.5547,12.2849,-2.4971,-8.1489,1.6049,4.3915,-0.0288,2238,2019-08-07 16:50:44:681
-15.4317,-5.3264,8.5547,12.2849,-2.4971,-8.1489,1.6049,4.3915,-0.0288,2243,2019-08-07 16:50:44:686
-15.4317,-5.3264,8.5547,12.2849,-2.4971,-8.1489,1.9287,3.9665,0.016,2248,2019-08-07 16:50:44:691
-12.3985,-5.145,6.6739,4.0958,1.6514,-2.3112,1.9287,3.9665,0.016,2253,2019-08-07 16:50:44:696
-12.3985,-5.145,6.6739,4.0958,1.6514,-2.3112,2.2653,3.9739,0.1033,2258,2019-08-07 16:50:44:701
-12.3985,-5.145,6.6739,4.0958,1.6514,-2.3112,2.2653,3.9739,0.1033,2262,2019-08-07 16:50:44:705
-12.408,-4.6008,7.0887,4.0958,1.6514,-2.3112,2.4667,3.9537,0.1491,2268,2019-08-07 16:50:44:711
-12.408,-4.6008,7.0887,4.8076,0.9949,-4.1358,2.4667,3.9537,0.1491,2273,2019-08-07 16:50:44:716
-13.4893,-3.9849,8.253,4.8076,0.9949,-4.1358,2.5082,3.7928,0.1502,2278,2019-08-07 16:50:44:721
-13.4893,-3.9849,8.253,4.8076,0.9949,-4.1358,2.5082,3.7928,0.1502,2284,2019-08-07 16:50:44:727
-13.4893,-3.9849,8.253,4.8076,0.9949,-4.1358,2.4113,3.1643,0.1598,2287,2019-08-07 16:50:44:730
-14.0107,-3.7415,9.3702,4.8076,0.9949,-4.1358,2.4113,3.1643,0.1598,2293,2019-08-07 16:50:44:736
-14.0107,-3.7415,9.3702,4.9547,0.9221,-5.9963,2.2888,2.5475,0.1672,2299,2019-08-07 16:50:44:742
-12.7525,-4.0947,9.0638,4.9547,0.9221,-5.9963,2.2888,2.5475,0.1672,2303,2019-08-07 16:50:44:746
-12.7525,-4.0947,9.0638,4.9547,0.9221,-5.9963,2.2888,2.5475,0.1672,2308,2019-08-07 16:50:44:751
-12.7525,-4.0947,9.0638,4.9547,0.9221,-5.9963,2.1375,2.0021,0.1182,2313,2019-08-07 16:50:44:756
-10.7431,-4.3955,8.286,1.8664,1.6835,-5.1102,2.1375,2.0021,0.1182,2318,2019-08-07 16:50:44:761
-10.7431,-4.3955,8.286,1.8664,1.6835,-5.1102,2.0427,1.7923,0.0778,2322,2019-08-07 16:50:44:765
-9.2839,-4.4432,7.7958,1.8664,1.6835,-5.1102,2.0427,1.7923,0.0778,2328,2019-08-07 16:50:44:771
-9.2839,-4.4432,7.7958,0.0149,1.8783,-4.4589,1.9575,1.7624,0.0533,2334,2019-08-07 16:50:44:777
-9.2839,-4.4432,7.7958,0.0149,1.8783,-4.4589,1.9575,1.7624,0.0533,2337,2019-08-07 16:50:44:780
-9.2839,-4.4432,7.7958,0.0149,1.8783,-4.4589,1.9575,1.7624,0.0533,2343,2019-08-07 16:50:44:786
-9.3509,-4.3525,7.3009,0.0149,1.8783,-4.4589,1.7721,1.7464,0.0341,2348,2019-08-07 16:50:44:791
-9.3509,-4.3525,7.3009,0.0149,1.8783,-4.4589,1.7721,1.7464,0.0341,2353,2019-08-07 16:50:44:796
-9.3509,-4.3525,7.3009,0.9449,2.0395,-4.8782,1.7721,1.7464,0.0341,2357,2019-08-07 16:50:44:800
-10.0733,-4.553,7.6544,0.9449,2.0395,-4.8782,1.5196,1.2117,0.0714,2363,2019-08-07 16:50:44:806
-10.0733,-4.553,7.6544,0.6964,2.2878,-4.8053,1.5196,1.2117,0.0714,2368,2019-08-07 16:50:44:811
-9.4418,-4.7344,7.1972,0.6964,2.2878,-4.8053,1.3386,0.6109,0.0863,2373,2019-08-07 16:50:44:816
-9.4418,-4.7344,7.1972,0.6964,2.2878,-4.8053,1.3386,0.6109,0.0863,2378,2019-08-07 16:50:44:821
-8.1166,-4.7583,5.8773,0.6964,2.2878,-4.8053,1.0957,0.2082,0.0735,2383,2019-08-07 16:50:44:826
-8.1166,-4.7583,5.8773,-1.3235,2.5325,-3.0,1.0957,0.2082,0.0735,2388,2019-08-07 16:50:44:831
-8.1166,-4.7583,5.8773,-1.3235,2.5325,-3.0,1.0957,0.2082,0.0735,2392,2019-08-07 16:50:44:835
-6.6239,-5.3884,4.5433,-1.3235,2.5325,-3.0,0.8848,0.1134,0.0341,2398,2019-08-07 16:50:44:841
-6.6239,-5.3884,4.5433,-1.3235,2.5325,-3.0,0.8848,0.1134,0.0341,2403,2019-08-07 16:50:44:846
-6.6239,-5.3884,4.5433,-2.901,3.5945,-1.2982,0.7601,0.1752,0.017,2408,2019-08-07 16:50:44:851
-6.1646,-5.9947,3.8692,-2.901,3.5945,-1.2982,0.7601,0.1752,0.017,2413,2019-08-07 16:50:44:856
-6.1646,-5.9947,3.8692,-2.901,3.5945,-1.2982,0.677,0.3403,0.0213,2418,2019-08-07 16:50:44:861
-6.1646,-5.9947,3.8692,-2.901,3.5945,-1.2982,0.677,0.3403,0.0213,2423,2019-08-07 16:50:44:866
-6.0976,-6.4148,3.6241,-3.0763,4.1288,-0.897,0.5897,0.5235,0.0181,2428,2019-08-07 16:50:44:871
-6.0976,-6.4148,3.6241,-3.0763,4.1288,-0.897,0.5897,0.5235,0.0181,2433,2019-08-07 16:50:44:876
-6.0976,-6.4148,3.6241,-3.0763,4.1288,-0.897,0.5897,0.5235,0.0181,2438,2019-08-07 16:50:44:881
-6.6861,-6.1188,3.3177,-2.5078,3.8903,-0.7209,0.4661,0.6247,0.0149,2443,2019-08-07 16:50:44:886
-6.6861,-6.1188,3.3177,-2.5078,3.8903,-0.7209,0.4661,0.6247,0.0149,2448,2019-08-07 16:50:44:891
-7.4755,-5.7942,3.6005,-2.5078,3.8903,-0.7209,0.3021,0.5043,0.0224,2453,2019-08-07 16:50:44:896
-7.4755,-5.7942,3.6005,-1.6795,3.5231,-1.0459,0.3021,0.5043,0.0224,2458,2019-08-07 16:50:44:901
-7.4755,-5.7942,3.6005,-1.6795,3.5231,-1.0459,0.1902,0.2466,0.0394,2463,2019-08-07 16:50:44:906
-7.5377,-5.756,3.3884,-1.6795,3.5231,-1.0459,0.0965,-0.008,0.0511,2469,2019-08-07 16:50:44:912
-7.5377,-5.756,3.3884,-1.6795,3.5231,-1.0459,0.0965,-0.008,0.0511,2473,2019-08-07 16:50:44:916
-7.1693,-5.799,2.9689,-2.0586,3.6029,-0.4669,0.0965,-0.008,0.0511,2478,2019-08-07 16:50:44:921
-7.1693,-5.799,2.9689,-2.0586,3.6029,-0.4669,0.0187,-0.1891,0.0501,2484,2019-08-07 16:50:44:927
-7.1693,-5.799,2.9689,-2.0586,3.6029,-0.4669,0.0187,-0.1891,0.0501,2487,2019-08-07 16:50:44:930
-6.5474,-5.9947,2.2005,-2.0586,3.6029,-0.4669,-0.0495,-0.2839,0.0458,2493,2019-08-07 16:50:44:936
-6.5474,-5.9947,2.2005,-2.899,3.9462,0.5393,-0.0495,-0.2839,0.0458,2498,2019-08-07 16:50:44:941
-6.5474,-5.9947,2.2005,-2.899,3.9462,0.5393,-0.0804,-0.2403,0.0245,2502,2019-08-07 16:50:44:945
-6.112,-6.3289,1.6726,-2.899,3.9462,0.5393,-0.0804,-0.2403,0.0245,2508,2019-08-07 16:50:44:951
-6.112,-6.3289,1.6726,-3.1272,4.1835,0.9187,-0.0846,-0.0975,0.0138,2513,2019-08-07 16:50:44:956
-6.0211,-6.4912,1.5312,-3.1272,4.1835,0.9187,-0.0846,-0.0975,0.0138,2518,2019-08-07 16:50:44:961
-6.0211,-6.4912,1.5312,-3.1272,4.1835,0.9187,-0.0846,-0.0975,0.0138,2523,2019-08-07 16:50:44:966
-6.0211,-6.4912,1.5312,-2.9866,4.2866,0.995,-0.0772,0.1294,0.0,2528,2019-08-07 16:50:44:971
-6.3177,-6.5151,1.6726,-2.9866,4.2866,0.995,-0.0772,0.1294,0.0,2533,2019-08-07 16:50:44:976
-6.3177,-6.5151,1.6726,-2.9866,4.2866,0.995,-0.0655,0.2476,-0.0064,2541,2019-08-07 16:50:44:984
-6.3177,-6.5151,1.6726,-2.9866,4.2866,0.995,-0.0655,0.2476,-0.0064,2543,2019-08-07 16:50:44:986
-6.8153,-6.3862,1.7904,-2.0881,4.0678,0.5488,-0.0665,0.2508,-0.0053,2549,2019-08-07 16:50:44:992
-6.8153,-6.3862,1.7904,-2.0881,4.0678,0.5488,-0.0665,0.2508,-0.0053,2553,2019-08-07 16:50:44:996
-6.8153,-6.3862,1.7904,-2.0881,4.0678,0.5488,-0.0665,0.2508,-0.0053,2557,2019-08-07 16:50:45:000
-7.5042,-6.0424,2.2524,-2.0881,4.0678,0.5488,-0.0772,0.0314,0.0053,2563,2019-08-07 16:50:45:006
-7.5042,-6.0424,2.2524,-1.7786,3.774,0.1927,-0.0772,0.0314,0.0053,2567,2019-08-07 16:50:45:010
-7.5042,-6.0424,2.2524,-1.7786,3.774,0.1927,-0.1102,-0.2563,0.0266,2573,2019-08-07 16:50:45:016
-7.2698,-6.009,2.1864,-1.7786,3.774,0.1927,-0.1102,-0.2563,0.0266,2578,2019-08-07 16:50:45:021
-7.2698,-6.009,2.1864,-1.7786,3.774,0.1927,-0.139,-0.4469,0.0362,2582,2019-08-07 16:50:45:025
-6.887,-6.0902,1.9648,-2.315,3.8694,0.6095,-0.139,-0.4469,0.0362,2588,2019-08-07 16:50:45:031
-6.887,-6.0902,1.9648,-2.315,3.8694,0.6095,-0.1688,-0.5599,0.0501,2592,2019-08-07 16:50:45:035
-6.887,-6.0902,1.9648,-2.315,3.8694,0.6095,-0.1688,-0.5599,0.0501,2598,2019-08-07 16:50:45:041
-6.49,-6.262,1.8517,-2.315,3.8694,0.6095,-0.2039,-0.5812,0.0735,2603,2019-08-07 16:50:45:046
-6.49,-6.262,1.8517,-2.315,3.8694,0.6095,-0.2039,-0.5812,0.0735,2608,2019-08-07 16:50:45:051
-6.49,-6.262,1.8517,-3.09,4.1903,1.1078,-0.2039,-0.5812,0.0735,2612,2019-08-07 16:50:45:055
-5.7915,-6.5246,1.4463,-3.09,4.1903,1.1078,-0.2146,-0.4895,0.0778,2618,2019-08-07 16:50:45:061
-5.7915,-6.5246,1.4463,-3.09,4.1903,1.1078,-0.2146,-0.4895,0.0778,2622,2019-08-07 16:50:45:065
-5.5857,-6.7108,1.0692,-3.09,4.1903,1.1078,-0.2157,-0.2744,0.0575,2628,2019-08-07 16:50:45:071
-5.5857,-6.7108,1.0692,-3.5243,4.4573,1.7281,-0.2157,-0.2744,0.0575,2634,2019-08-07 16:50:45:077
-5.5857,-6.7108,1.0692,-3.5243,4.4573,1.7281,-0.2029,0.0463,0.0447,2637,2019-08-07 16:50:45:080
-5.758,-6.7299,1.1635,-3.5243,4.4573,1.7281,-0.2029,0.0463,0.0447,2643,2019-08-07 16:50:45:086
-5.758,-6.7299,1.1635,-3.0217,4.5286,1.2524,-0.1773,0.2593,0.0394,2648,2019-08-07 16:50:45:091
-6.2938,-6.7346,1.4934,-3.0217,4.5286,1.2524,-0.1773,0.2593,0.0394,2653,2019-08-07 16:50:45:096
-6.2938,-6.7346,1.4934,-3.0217,4.5286,1.2524,-0.1773,0.2593,0.0394,2658,2019-08-07 16:50:45:101
-6.8871,-6.6439,1.8281,-3.0217,4.5286,1.2524,-0.1549,0.3584,0.0415,2663,2019-08-07 16:50:45:106
-6.8871,-6.6439,1.8281,-3.0217,4.5286,1.2524,-0.1549,0.3584,0.0415,2668,2019-08-07 16:50:45:111
-6.8871,-6.6439,1.8281,-1.7629,4.3928,0.4995,-0.1496,0.2359,0.0533,2672,2019-08-07 16:50:45:115
-7.6621,-6.601,2.3089,-1.7629,4.3928,0.4995,-0.1496,0.2359,0.0533,2678,2019-08-07 16:50:45:121
-7.6621,-6.601,2.3089,-1.7629,4.3928,0.4995,-0.1368,-0.0304,0.0746,2683,2019-08-07 16:50:45:126
-7.6621,-6.601,2.3089,-1.7629,4.3928,0.4995,-0.1368,-0.0304,0.0746,2688,2019-08-07 16:50:45:131
-7.7626,-6.6726,2.3938,-1.4153,4.4263,0.244,-0.1241,-0.3404,0.0916,2692,2019-08-07 16:50:45:135
-7.7626,-6.6726,2.3938,-1.4153,4.4263,0.244,-0.1241,-0.3404,0.0916,2698,2019-08-07 16:50:45:141
-7.2602,-6.811,1.7904,-1.4153,4.4263,0.244,-0.1219,-0.6184,0.0884,2703,2019-08-07 16:50:45:146
-7.2602,-6.811,1.7904,-1.4153,4.4263,0.244,-0.1219,-0.6184,0.0884,2708,2019-08-07 16:50:45:151
-7.2602,-6.811,1.7904,-2.4414,4.6444,1.2936,-0.1219,-0.6184,0.0884,2713,2019-08-07 16:50:45:156
-6.5378,-7.0163,1.4322,-2.4414,4.6444,1.2936,-0.1315,-0.6472,0.066,2719,2019-08-07 16:50:45:162
-6.5378,-7.0163,1.4322,-2.4414,4.6444,1.2936,-0.1315,-0.6472,0.066,2723,2019-08-07 16:50:45:166
-5.9589,-7.1977,1.0739,-2.4414,4.6444,1.2936,-0.1315,-0.4501,0.0064,2728,2019-08-07 16:50:45:171
-5.9589,-7.1977,1.0739,-3.3241,4.9266,1.8555,-0.1315,-0.4501,0.0064,2733,2019-08-07 16:50:45:176
-5.9589,-7.1977,1.0739,-3.3241,4.9266,1.8555,-0.1315,-0.4501,0.0064,2737,2019-08-07 16:50:45:180
-5.7867,-7.1834,1.0315,-3.3241,4.9266,1.8555,-0.1123,-0.0272,-0.0682,2743,2019-08-07 16:50:45:186
-5.7867,-7.1834,1.0315,-3.3241,4.9266,1.8555,-0.1123,-0.0272,-0.0682,2748,2019-08-07 16:50:45:191
-6.1455,-7.0402,1.3615,-2.9664,4.7617,1.4703,-0.0921,0.2135,-0.1033,2752,2019-08-07 16:50:45:195
-6.1455,-7.0402,1.3615,-2.9664,4.7617,1.4703,-0.0921,0.2135,-0.1033,2758,2019-08-07 16:50:45:201
-6.1455,-7.0402,1.3615,-2.9664,4.7617,1.4703,-0.0921,0.2135,-0.1033,2763,2019-08-07 16:50:45:206
-6.844,-6.8635,1.7763,-2.9664,4.7617,1.4703,-0.0804,0.3211,-0.1257,2768,2019-08-07 16:50:45:211
-6.844,-6.8635,1.7763,-1.8322,4.398,0.6391,-0.0804,0.3211,-0.1257,2772,2019-08-07 16:50:45:215
-7.4564,-6.6392,2.2665,-1.8322,4.398,0.6391,-0.0708,0.1486,-0.1182,2778,2019-08-07 16:50:45:221
-7.4564,-6.6392,2.2665,-1.4842,4.2717,0.3713,-0.0708,0.1486,-0.1182,2783,2019-08-07 16:50:45:226
-7.4564,-6.6392,2.2665,-1.4842,4.2717,0.3713,-0.0601,-0.1774,-0.0937,2788,2019-08-07 16:50:45:231
-7.6812,-6.4673,2.5682,-1.4842,4.2717,0.3713,-0.0601,-0.1774,-0.0937,2793,2019-08-07 16:50:45:236
-7.6812,-6.4673,2.5682,-1.4842,4.2717,0.3713,-0.0495,-0.4853,-0.0682,2798,2019-08-07 16:50:45:241
-7.6812,-6.4673,2.5682,-1.724,4.011,0.3719,-0.0495,-0.4853,-0.0682,2803,2019-08-07 16:50:45:246
-7.2172,-6.3336,2.1534,-1.724,4.011,0.3719,-0.0495,-0.4853,-0.0682,2808,2019-08-07 16:50:45:251
-7.2172,-6.3336,2.1534,-2.1103,4.0776,0.7873,-0.0463,-0.7111,-0.0426,2814,2019-08-07 16:50:45:257
-7.2172,-6.3336,2.1534,-2.1103,4.0776,0.7873,-0.0463,-0.7111,-0.0426,2817,2019-08-07 16:50:45:260
-6.4661,-6.5294,1.8988,-2.1103,4.0776,0.7873,-0.0505,-0.8134,-0.0277,2823,2019-08-07 16:50:45:266
-6.4661,-6.5294,1.8988,-2.1103,4.0776,0.7873,-0.0505,-0.8134,-0.0277,2827,2019-08-07 16:50:45:270
-5.801,-6.7012,1.517,-3.2316,4.3181,1.4778,-0.0484,-0.8038,-0.0309,2833,2019-08-07 16:50:45:276
-5.801,-6.7012,1.517,-3.2316,4.3181,1.4778,-0.0484,-0.8038,-0.0309,2838,2019-08-07 16:50:45:281
-5.801,-6.7012,1.517,-3.2316,4.3181,1.4778,-0.0282,-0.5939,-0.0415,2843,2019-08-07 16:50:45:286
-5.2509,-6.8731,1.0362,-3.2316,4.3181,1.4778,-0.0282,-0.5939,-0.0415,2848,2019-08-07 16:50:45:291
-5.2509,-6.8731,1.0362,-3.9026,4.4361,2.0661,-0.0015,-0.3191,-0.0607,2853,2019-08-07 16:50:45:296
-5.2509,-6.8731,1.0362,-3.9026,4.4361,2.0661,-0.0015,-0.3191,-0.0607,2858,2019-08-07 16:50:45:301
-5.1647,-6.8206,1.1163,-3.9026,4.4361,2.0661,0.0262,-0.0262,-0.0714,2863,2019-08-07 16:50:45:306
-5.1647,-6.8206,1.1163,-3.9026,4.4361,2.0661,0.0262,-0.0262,-0.0714,2867,2019-08-07 16:50:45:310
-5.4709,-6.7155,1.4227,-3.51,4.2898,1.6909,0.0262,-0.0262,-0.0714,2873,2019-08-07 16:50:45:316
-5.4709,-6.7155,1.4227,-3.51,4.2898,1.6909,0.0581,0.2604,-0.0714,2878,2019-08-07 16:50:45:321
-5.4709,-6.7155,1.4227,-3.51,4.2898,1.6909,0.0581,0.2604,-0.0714,2883,2019-08-07 16:50:45:326
-6.0642,-6.5437,1.6726,-3.51,4.2898,1.6909,0.0645,0.351,-0.0575,2888,2019-08-07 16:50:45:331
-6.0642,-6.5437,1.6726,-2.6247,3.9905,1.0797,0.0645,0.351,-0.0575,2893,2019-08-07 16:50:45:336
-6.5426,-6.3575,2.1769,-2.6247,3.9905,1.0797,0.0666,0.3115,-0.033,2899,2019-08-07 16:50:45:342
-6.5426,-6.3575,2.1769,-2.6247,3.9905,1.0797,0.0666,0.3115,-0.033,2902,2019-08-07 16:50:45:345
-6.5426,-6.3575,2.1769,-2.6247,3.9905,1.0797,0.0666,0.3115,-0.033,2908,2019-08-07 16:50:45:351
-6.8727,-6.1952,2.4739,-2.6247,3.9905,1.0797,0.0677,0.123,0.0,2913,2019-08-07 16:50:45:356
-6.8727,-6.1952,2.4739,-2.0657,3.6484,0.5335,0.0677,0.123,0.0,2919,2019-08-07 16:50:45:362
-6.8679,-6.0329,2.4315,-2.0657,3.6484,0.5335,0.0379,-0.1029,0.0309,2923,2019-08-07 16:50:45:366
-6.8679,-6.0329,2.4315,-2.0657,3.6484,0.5335,0.0379,-0.1029,0.0309,2928,2019-08-07 16:50:45:371
-6.8679,-6.0329,2.4315,-2.4932,3.6664,0.867,0.0102,-0.2424,0.0373,2933,2019-08-07 16:50:45:376
-6.4278,-6.157,2.0591,-2.4932,3.6664,0.867,0.0102,-0.2424,0.0373,2938,2019-08-07 16:50:45:381
-6.4278,-6.157,2.0591,-2.4932,3.6664,0.867,-0.0111,-0.2829,0.0362,2942,2019-08-07 16:50:45:385
-6.0546,-6.4005,1.6678,-2.4932,3.6664,0.867,-0.0111,-0.2829,0.0362,2948,2019-08-07 16:50:45:391
-6.0546,-6.4005,1.6678,-3.1126,4.1151,1.5114,-0.0175,-0.1785,0.0192,2953,2019-08-07 16:50:45:396
-6.0546,-6.4005,1.6678,-3.1126,4.1151,1.5114,-0.0175,-0.1785,0.0192,2958,2019-08-07 16:50:45:401
-5.8537,-6.6392,1.5217,-3.1126,4.1151,1.5114,-0.0175,-0.1785,0.0192,2963,2019-08-07 16:50:45:406
-5.8537,-6.6392,1.5217,-3.1126,4.1151,1.5114,-0.0133,-0.0262,0.0011,2968,2019-08-07 16:50:45:411
-5.9876,-6.6057,1.6113,-2.959,4.1226,1.4421,-0.0133,-0.0262,0.0011,2973,2019-08-07 16:50:45:416
-5.9876,-6.6057,1.6113,-2.959,4.1226,1.4421,-0.0133,0.1187,-0.0085,2977,2019-08-07 16:50:45:420
-5.9876,-6.6057,1.6113,-2.959,4.1226,1.4421,-0.0133,0.1187,-0.0085,2983,2019-08-07 16:50:45:426
-6.2556,-6.4673,1.682,-2.959,4.1226,1.4421,-0.0154,0.2466,-0.0128,2988,2019-08-07 16:50:45:431
-6.2556,-6.4673,1.682,-2.959,4.1226,1.4421,-0.0154,0.2466,-0.0128,2993,2019-08-07 16:50:45:436
-6.5857,-6.3432,1.8564,-2.4955,3.8894,1.2789,-0.0229,0.2817,-0.0107,2998,2019-08-07 16:50:45:441
-6.5857,-6.3432,1.8564,-2.4955,3.8894,1.2789,-0.0229,0.2817,-0.0107,3003,2019-08-07 16:50:45:446
-6.5857,-6.3432,1.8564,-2.4955,3.8894,1.2789,-0.0229,0.2817,-0.0107,3007,2019-08-07 16:50:45:450
-6.8153,-6.3957,2.1958,-2.4955,3.8894,1.2789,-0.0239,0.2338,-0.0075,3014,2019-08-07 16:50:45:457
-6.8153,-6.3957,2.1958,-2.1404,3.8999,0.7996,-0.0239,0.2338,-0.0075,3018,2019-08-07 16:50:45:461
-6.9349,-6.4052,2.3325,-2.1404,3.8999,0.7996,-0.0175,0.1304,-0.0011,3022,2019-08-07 16:50:45:465
-6.9349,-6.4052,2.3325,-2.1404,3.8999,0.7996,-0.0175,0.1304,-0.0011,3028,2019-08-07 16:50:45:471
-6.9349,-6.4052,2.3325,-2.1404,3.8999,0.7996,-0.0239,-0.0262,0.0096,3033,2019-08-07 16:50:45:476
-7.0258,-6.3671,2.4315,-1.9757,3.8606,0.5564,-0.0239,-0.0262,0.0096,3038,2019-08-07 16:50:45:481
-7.0258,-6.3671,2.4315,-1.9757,3.8606,0.5564,-0.042,-0.1678,0.0128,3043,2019-08-07 16:50:45:486
-6.9014,-6.41,2.1581,-1.9757,3.8606,0.5564,-0.042,-0.1678,0.0128,3049,2019-08-07 16:50:45:492
-6.9014,-6.41,2.1581,-1.9757,3.8606,0.5564,-0.0548,-0.2669,0.0181,3052,2019-08-07 16:50:45:495
-6.9014,-6.41,2.1581,-2.3891,3.9552,1.0042,-0.0548,-0.2669,0.0181,3058,2019-08-07 16:50:45:501
-6.423,-6.5532,1.8705,-2.3891,3.9552,1.0042,-0.0569,-0.2797,0.0117,3063,2019-08-07 16:50:45:506
-6.423,-6.5532,1.8705,-2.3891,3.9552,1.0042,-0.0569,-0.2797,0.0117,3068,2019-08-07 16:50:45:511
-6.002,-6.6439,1.7244,-2.3891,3.9552,1.0042,-0.0537,-0.2019,-0.0032,3072,2019-08-07 16:50:45:515
-6.002,-6.6439,1.7244,-2.9879,4.0607,1.4099,-0.0537,-0.2019,-0.0032,3078,2019-08-07 16:50:45:521
-6.002,-6.6439,1.7244,-2.9879,4.0607,1.4099,-0.0537,-0.2019,-0.017,3083,2019-08-07 16:50:45:526
-5.9398,-6.6726,1.6396,-2.9879,4.0607,1.4099,-0.0548,-0.0656,-0.017,3089,2019-08-07 16:50:45:532
-5.9398,-6.6726,1.6396,-2.9879,4.0607,1.4099,-0.0548,-0.0656,-0.017,3093,2019-08-07 16:50:45:536
-6.1647,-6.6726,1.7244,-2.8947,4.1554,1.3857,-0.0505,0.0942,-0.0309,3097,2019-08-07 16:50:45:540
-6.1647,-6.6726,1.7244,-2.8947,4.1554,1.3857,-0.0505,0.0942,-0.0309,3103,2019-08-07 16:50:45:546
-6.1647,-6.6726,1.7244,-2.8947,4.1554,1.3857,-0.0505,0.0942,-0.0309,3107,2019-08-07 16:50:45:550
-6.4852,-6.5914,1.9601,-2.8947,4.1554,1.3857,-0.0527,0.1709,-0.0298,3113,2019-08-07 16:50:45:556
-6.4852,-6.5914,1.9601,-2.397,3.9719,0.9583,-0.0527,0.1709,-0.0298,3117,2019-08-07 16:50:45:560
-6.6527,-6.4434,2.1392,-2.397,3.9719,0.9583,-0.0601,0.1443,-0.016,3123,2019-08-07 16:50:45:566
-6.6527,-6.4434,2.1392,-2.397,3.9719,0.9583,-0.0601,0.1443,-0.016,3128,2019-08-07 16:50:45:571
-6.6527,-6.4434,2.1392,-2.397,3.9719,0.9583,-0.0644,0.0782,-0.0096,3133,2019-08-07 16:50:45:576
-6.7914,-6.4052,2.2618,-2.1805,3.8155,0.7438,-0.0644,0.0782,-0.0096,3137,2019-08-07 16:50:45:580
-6.7914,-6.4052,2.2618,-2.1805,3.8155,0.7438,-0.0644,0.0782,-0.0096,3143,2019-08-07 16:50:45:586
-6.8249,-6.4578,2.2712,-2.1805,3.8155,0.7438,-0.0633,-0.0538,0.0085,3148,2019-08-07 16:50:45:591
-6.8249,-6.4578,2.2712,-2.1805,3.8155,0.7438,-0.0644,-0.1668,0.017,3153,2019-08-07 16:50:45:596
-6.8249,-6.4578,2.2712,-2.1643,3.8636,0.7657,-0.0644,-0.1668,0.017,3157,2019-08-07 16:50:45:600
-6.6431,-6.4864,2.1062,-2.1643,3.8636,0.7657,-0.0644,-0.1668,0.017,3163,2019-08-07 16:50:45:606
-6.6431,-6.4864,2.1062,-2.1643,3.8636,0.7657,-0.0687,-0.2541,0.0256,3168,2019-08-07 16:50:45:611
-6.6431,-6.4864,2.1062,-2.1643,3.8636,0.7657,-0.0687,-0.2541,0.0256,3172,2019-08-07 16:50:45:615
-6.313,-6.515,1.8894,-2.6689,3.9226,1.1961,-0.075,-0.2531,0.0202,3178,2019-08-07 16:50:45:621
-6.313,-6.515,1.8894,-2.6689,3.9226,1.1961,-0.075,-0.2531,0.0202,3183,2019-08-07 16:50:45:626
-6.1312,-6.6153,1.7291,-2.6689,3.9226,1.1961,-0.075,-0.1827,0.0107,3187,2019-08-07 16:50:45:630
-6.1312,-6.6153,1.7291,-2.6689,3.9226,1.1961,-0.075,-0.1827,0.0107,3193,2019-08-07 16:50:45:636
-6.1312,-6.6153,1.7291,-2.884,4.0111,1.4033,-0.075,-0.0794,-0.0043,3198,2019-08-07 16:50:45:641
-6.0499,-6.6296,1.6537,-2.884,4.0111,1.4033,-0.075,-0.0794,-0.0043,3202,2019-08-07 16:50:45:645
-6.0499,-6.6296,1.6537,-2.884,4.0111,1.4033,-0.075,-0.0794,-0.0043,3208,2019-08-07 16:50:45:651
-6.1743,-6.663,1.616,-2.884,4.0111,1.4033,-0.0729,0.0559,-0.0202,3213,2019-08-07 16:50:45:656
-6.1743,-6.663,1.616,-2.699,3.9944,1.4177,-0.0729,0.0559,-0.0202,3217,2019-08-07 16:50:45:660
-6.1743,-6.663,1.616,-2.699,3.9944,1.4177,-0.0719,0.1347,-0.0256,3223,2019-08-07 16:50:45:666
-6.3752,-6.6487,1.715,-2.699,3.9944,1.4177,-0.0719,0.1347,-0.0256,3227,2019-08-07 16:50:45:670
-6.3752,-6.6487,1.715,-2.699,3.9944,1.4177,-0.0782,0.1581,-0.0213,3233,2019-08-07 16:50:45:676
-6.3752,-6.6487,1.715,-2.3019,3.9386,1.1579,-0.0782,0.1581,-0.0213,3238,2019-08-07 16:50:45:681
-6.6096,-6.5341,1.9177,-2.3019,3.9386,1.1579,-0.0814,0.1166,-0.0107,3243,2019-08-07 16:50:45:686
-6.6096,-6.5341,1.9177,-2.2757,3.8664,1.0539,-0.0814,0.1166,-0.0107,3248,2019-08-07 16:50:45:691
-6.6951,-6.5199,1.9791,-2.2757,3.8664,1.0539,-0.09,0.0431,-0.0075,3253,2019-08-07 16:50:45:696
-6.6951,-6.5199,1.9791,-2.2757,3.8664,1.0539,-0.09,0.0431,-0.0075,3258,2019-08-07 16:50:45:701
-6.6951,-6.5199,1.9791,-2.2757,3.8664,1.0539,-0.1017,-0.0379,0.0085,3262,2019-08-07 16:50:45:705
-6.676,-6.4626,1.9037,-2.2779,3.7282,1.0538,-0.1017,-0.0379,0.0085,3268,2019-08-07 16:50:45:711
-6.676,-6.4626,1.9037,-2.2779,3.7282,1.0538,-0.1017,-0.089,0.0149,3273,2019-08-07 16:50:45:716
-6.676,-6.4626,1.9037,-2.2779,3.7282,1.0538,-0.1017,-0.089,0.0149,3277,2019-08-07 16:50:45:720
-6.5899,-6.4912,1.8094,-2.2779,3.7282,1.0538,-0.1017,-0.089,0.0149,3283,2019-08-07 16:50:45:726
-6.5899,-6.4912,1.8094,-2.4228,3.8301,1.2889,-0.0985,-0.105,0.0096,3288,2019-08-07 16:50:45:731
-6.4559,-6.5151,1.7387,-2.4228,3.8301,1.2889,-0.0985,-0.105,0.0096,3293,2019-08-07 16:50:45:736
-6.4559,-6.5151,1.7387,-2.4228,3.8301,1.2889,-0.1027,-0.1007,0.0021,3298,2019-08-07 16:50:45:741
-6.4559,-6.5151,1.7387,-2.4228,3.8301,1.2889,-0.1027,-0.1007,0.0021,3303,2019-08-07 16:50:45:746
-6.3028,-6.6535,1.6585,-2.4228,3.8301,1.2889,-0.0985,-0.0677,0.0064,3308,2019-08-07 16:50:45:751
-6.3028,-6.6535,1.6585,-2.6627,3.973,1.4013,-0.0985,-0.0677,0.0064,3314,2019-08-07 16:50:45:757
-6.2502,-6.7347,1.5878,-2.6627,3.973,1.4013,-0.0836,0.0015,-0.0064,3318,2019-08-07 16:50:45:761
-6.2502,-6.7347,1.5878,-2.6627,3.973,1.4013,-0.0836,0.0015,-0.0064,3323,2019-08-07 16:50:45:766
-6.2502,-6.7347,1.5878,-2.6627,3.973,1.4013,-0.0719,0.0729,-0.0149,3327,2019-08-07 16:50:45:770
-6.3745,-6.6917,1.668,-2.5684,3.9516,1.3869,-0.0719,0.0729,-0.0149,3333,2019-08-07 16:50:45:776
-6.3745,-6.6917,1.668,-2.5684,3.9516,1.3869,-0.0719,0.0729,-0.0149,3338,2019-08-07 16:50:45:781
-6.3745,-6.6917,1.668,-2.5684,3.9516,1.3869,-0.0655,0.1081,-0.0096,3343,2019-08-07 16:50:45:786
-6.5229,-6.6201,1.8377,-2.5684,3.9516,1.3869,-0.0655,0.1081,-0.0096,3348,2019-08-07 16:50:45:791
-6.5229,-6.6201,1.8377,-2.3648,3.8882,1.1545,-0.0559,0.0974,-0.0032,3352,2019-08-07 16:50:45:795
-6.5946,-6.5867,1.9461,-2.3648,3.8882,1.1545,-0.0559,0.0974,-0.0032,3358,2019-08-07 16:50:45:801
-6.5946,-6.5867,1.9461,-2.3648,3.8882,1.1545,-0.0463,0.0452,0.0085,3363,2019-08-07 16:50:45:806
-6.5946,-6.5867,1.9461,-2.3648,3.8882,1.1545,-0.0463,0.0452,0.0085,3368,2019-08-07 16:50:45:811
-6.6042,-6.5151,1.9649,-2.312,3.7147,1.0175,-0.0452,-0.0176,0.0234,3373,2019-08-07 16:50:45:816
-6.6042,-6.5151,1.9649,-2.312,3.7147,1.0175,-0.0452,-0.0176,0.0234,3378,2019-08-07 16:50:45:821
-6.4702,-6.5438,1.833,-2.312,3.7147,1.0175,-0.0474,-0.0784,0.0426,3382,2019-08-07 16:50:45:825
-6.4702,-6.5438,1.833,-2.312,3.7147,1.0175,-0.0474,-0.0784,0.0426,3388,2019-08-07 16:50:45:831
-6.4702,-6.5438,1.833,-2.5122,3.7187,1.26,-0.0463,-0.0901,0.0522,3393,2019-08-07 16:50:45:836
-6.3267,-6.4578,1.7293,-2.5122,3.7187,1.26,-0.0463,-0.0901,0.0522,3399,2019-08-07 16:50:45:842
-6.3267,-6.4578,1.7293,-2.5122,3.7187,1.26,-0.0506,-0.0634,0.0554,3402,2019-08-07 16:50:45:845
-6.3267,-6.4578,1.7293,-2.5122,3.7187,1.26,-0.0506,-0.0634,0.0554,3408,2019-08-07 16:50:45:851
-6.3649,-6.5056,1.6067,-2.5501,3.7532,1.3571,-0.0516,-0.0325,0.0522,3413,2019-08-07 16:50:45:856
-6.3649,-6.5056,1.6067,-2.5501,3.7532,1.3571,-0.0516,-0.0325,0.0522,3418,2019-08-07 16:50:45:861
-6.2932,-6.6536,1.5171,-2.5501,3.7532,1.3571,-0.0623,0.0047,0.0597,3423,2019-08-07 16:50:45:866
-6.2932,-6.6536,1.5171,-2.5501,3.7532,1.3571,-0.0623,0.0047,0.0597,3428,2019-08-07 16:50:45:871
-6.2932,-6.6536,1.5171,-2.6207,3.8825,1.4273,-0.0623,0.0047,0.0479,3433,2019-08-07 16:50:45:876
-6.3602,-6.6965,1.6067,-2.6207,3.8825,1.4273,-0.0474,0.0633,0.0479,3438,2019-08-07 16:50:45:881
-6.3602,-6.6965,1.6067,-2.6207,3.8825,1.4273,-0.0474,0.0633,0.0479,3443,2019-08-07 16:50:45:886
-6.6185,-6.4912,1.7245,-2.6207,3.8825,1.4273,-0.0378,0.1294,0.0149,3448,2019-08-07 16:50:45:891
-6.6185,-6.4912,1.7245,-2.2752,3.6264,1.3381,-0.0378,0.1294,0.0149,3453,2019-08-07 16:50:45:896
-6.6185,-6.4912,1.7245,-2.2752,3.6264,1.3381,-0.0537,0.1411,0.0139,3458,2019-08-07 16:50:45:901
-6.6281,-6.5056,1.7245,-2.2752,3.6264,1.3381,-0.0537,0.1411,0.0139,3462,2019-08-07 16:50:45:905
-6.6281,-6.5056,1.7245,-2.2752,3.6264,1.3381,-0.0687,0.1347,0.0064,3468,2019-08-07 16:50:45:911
-6.5419,-6.6774,1.8707,-2.3806,3.7813,1.0242,-0.0687,0.1347,0.0064,3473,2019-08-07 16:50:45:916
-6.5419,-6.6774,1.8707,-2.3806,3.7813,1.0242,-0.0633,0.1027,0.0011,3478,2019-08-07 16:50:45:921
-6.5419,-6.6774,1.8707,-2.3806,3.7813,1.0242,-0.0633,0.1027,0.0011,3483,2019-08-07 16:50:45:926
-6.5084,-6.687,1.9084,-2.3806,3.7813,1.0242,-0.0559,0.09,0.0053,3487,2019-08-07 16:50:45:930
-6.5084,-6.687,1.9084,-2.4065,3.8577,1.0184,-0.0559,0.09,0.0053,3493,2019-08-07 16:50:45:936
-6.5084,-6.687,1.9084,-2.4065,3.8577,1.0184,-0.0559,0.09,0.0053,3497,2019-08-07 16:50:45:940
-6.4797,-6.7252,1.9037,-2.4065,3.8577,1.0184,-0.0559,0.0591,0.0139,3502,2019-08-07 16:50:45:945
-6.4797,-6.7252,1.9037,-2.4065,3.8577,1.0184,-0.0559,0.0591,0.0139,3508,2019-08-07 16:50:45:951
-6.4845,-6.6917,1.9602,-2.43,3.7981,0.937,-0.0623,0.0175,0.0298,3513,2019-08-07 16:50:45:956
-6.4845,-6.6917,1.9602,-2.43,3.7981,0.937,-0.0623,0.0175,0.0298,3518,2019-08-07 16:50:45:961
-6.4845,-6.6917,1.9602,-2.43,3.7981,0.937,-0.0665,-0.0379,0.0447,3522,2019-08-07 16:50:45:965
-6.5132,-6.7586,1.8895,-2.43,3.7981,0.937,-0.0665,-0.0379,0.0447,3528,2019-08-07 16:50:45:971
-6.5132,-6.7586,1.8895,-2.5214,3.848,1.2257,-0.0665,-0.0773,0.0522,3533,2019-08-07 16:50:45:976
-6.3601,-6.7824,1.7057,-2.5214,3.848,1.2257,-0.0665,-0.0773,0.0522,3538,2019-08-07 16:50:45:981
-6.3601,-6.7824,1.7057,-2.5214,3.848,1.2257,-0.0633,-0.0741,0.0479,3543,2019-08-07 16:50:45:986
-6.3601,-6.7824,1.7057,-2.5214,3.848,1.2257,-0.0633,-0.0741,0.0479,3549,2019-08-07 16:50:45:992
-6.2836,-6.7108,1.5737,-2.6255,3.8025,1.3591,-0.0612,-0.0347,0.0405,3553,2019-08-07 16:50:45:996
-6.2836,-6.7108,1.5737,-2.6255,3.8025,1.3591,-0.0612,-0.0347,0.0405,3558,2019-08-07 16:50:46:001
-6.2836,-6.7299,1.4323,-2.6255,3.8025,1.3591,-0.058,0.0314,0.033,3563,2019-08-07 16:50:46:006
-6.2836,-6.7299,1.4323,-2.6255,3.8025,1.3591,-0.058,0.0314,0.033,3568,2019-08-07 16:50:46:011
-6.2836,-6.7299,1.4323,-2.4662,3.7779,1.3624,-0.0548,0.0846,0.0245,3573,2019-08-07 16:50:46:016
-6.4797,-6.7156,1.5549,-2.4662,3.7779,1.3624,-0.0548,0.0846,0.0245,3578,2019-08-07 16:50:46:021
-6.4797,-6.7156,1.5549,-2.4662,3.7779,1.3624,-0.0548,0.0846,0.0245,3582,2019-08-07 16:50:46:025
-6.6089,-6.6917,1.5313,-2.4662,3.7779,1.3624,-0.0388,0.1177,0.0277,3588,2019-08-07 16:50:46:031
-6.6089,-6.6917,1.5313,-2.3644,3.7533,1.327,-0.0388,0.1177,0.0277,3593,2019-08-07 16:50:46:036
-6.6089,-6.6917,1.5313,-2.3644,3.7533,1.327,-0.0197,0.1347,0.0224,3598,2019-08-07 16:50:46:041
-6.5323,-6.7395,1.5549,-2.3644,3.7533,1.327,-0.0197,0.1347,0.0224,3603,2019-08-07 16:50:46:046
-6.5323,-6.7395,1.5549,-2.3644,3.7533,1.327,-0.0069,0.1198,0.0234,3608,2019-08-07 16:50:46:051
-6.6519,-6.7777,1.4794,-2.2584,3.8161,1.3615,-0.0069,0.1198,0.0234,3613,2019-08-07 16:50:46:056
-6.6519,-6.7777,1.4794,-2.2584,3.8161,1.3615,0.0048,0.0932,0.0245,3618,2019-08-07 16:50:46:061
-6.6519,-6.7777,1.4794,-2.2584,3.8161,1.3615,0.0048,0.0932,0.0245,3623,2019-08-07 16:50:46:066
-6.9007,-6.7777,1.6869,-2.2584,3.8161,1.3615,0.0155,0.0378,0.0277,3628,2019-08-07 16:50:46:071
-6.9007,-6.7777,1.6869,-1.9051,3.7481,1.0276,0.0155,0.0378,0.0277,3633,2019-08-07 16:50:46:076
-6.9533,-6.6917,1.8377,-1.9051,3.7481,1.0276,0.023,-0.0507,0.032,3638,2019-08-07 16:50:46:081
-6.9533,-6.6917,1.8377,-1.9051,3.7481,1.0276,0.023,-0.0507,0.032,3642,2019-08-07 16:50:46:085
-6.9533,-6.6917,1.8377,-1.9051,3.7481,1.0276,0.0166,-0.1401,0.0277,3648,2019-08-07 16:50:46:091
-6.6758,-6.6583,1.6303,-2.351,3.6664,1.2985,0.0166,-0.1401,0.0277,3653,2019-08-07 16:50:46:096
-6.6758,-6.6583,1.6303,-2.351,3.6664,1.2985,0.0166,-0.1401,0.0277,3658,2019-08-07 16:50:46:101
-6.3888,-6.6965,1.4889,-2.351,3.6664,1.2985,0.007,-0.1519,0.0117,3663,2019-08-07 16:50:46:106
-6.3888,-6.6965,1.4889,-2.351,3.6664,1.2985,0.007,-0.1519,0.0117,3668,2019-08-07 16:50:46:111
-6.3888,-6.6965,1.4889,-2.5737,3.6835,1.351,0.0038,-0.0794,-0.0075,3673,2019-08-07 16:50:46:116
-6.2835,-6.687,1.4794,-2.5737,3.6835,1.351,0.0038,-0.0794,-0.0075,3678,2019-08-07 16:50:46:121
-6.2835,-6.687,1.4794,-2.5737,3.6835,1.351,0.0123,-0.0048,-0.0181,3682,2019-08-07 16:50:46:125
-6.3457,-6.644,1.437,-2.5737,3.6835,1.351,0.0123,-0.0048,-0.0181,3688,2019-08-07 16:50:46:131
-6.3457,-6.644,1.437,-2.5737,3.6835,1.351,0.007,0.0623,-0.0288,3693,2019-08-07 16:50:46:136
-6.3457,-6.644,1.437,-2.5104,3.6049,1.427,0.007,0.0623,-0.0288,3698,2019-08-07 16:50:46:141
-6.427,-6.5915,1.4889,-2.5104,3.6049,1.427,0.007,0.0623,-0.0288,3702,2019-08-07 16:50:46:145
-6.427,-6.5915,1.4889,-2.5104,3.6049,1.427,6.0E-4,0.1091,-0.0373,3707,2019-08-07 16:50:46:150
-6.427,-6.5915,1.4889,-2.3228,3.5764,1.2259,6.0E-4,0.1091,-0.0373,3714,2019-08-07 16:50:46:157
-6.561,-6.6201,1.6114,-2.3228,3.5764,1.2259,-0.0037,0.1091,-0.0362,3718,2019-08-07 16:50:46:161
-6.561,-6.6201,1.6114,-2.3228,3.5764,1.2259,-0.0037,0.1091,-0.0362,3722,2019-08-07 16:50:46:165
-6.5753,-6.6154,1.7576,-2.3228,3.5764,1.2259,6.0E-4,0.0932,-0.0309,3728,2019-08-07 16:50:46:171
-6.5753,-6.6154,1.7576,-2.3228,3.5764,1.2259,6.0E-4,0.0932,-0.0309,3734,2019-08-07 16:50:46:177
-6.5753,-6.6154,1.7576,-2.2874,3.5101,1.1784,0.0016,0.0324,-0.0181,3738,2019-08-07 16:50:46:181
-6.4509,-6.644,1.6774,-2.2874,3.5101,1.1784,0.0016,0.0324,-0.0181,3743,2019-08-07 16:50:46:186
-6.4509,-6.644,1.6774,-2.2874,3.5101,1.1784,-0.0047,-0.0219,-0.0202,3748,2019-08-07 16:50:46:191
-6.4509,-6.644,1.6774,-2.2874,3.5101,1.1784,-0.0047,-0.0219,-0.0202,3752,2019-08-07 16:50:46:195
-6.4462,-6.6058,1.6256,-2.4296,3.5176,1.1886,-0.0047,-0.0219,-0.0202,3758,2019-08-07 16:50:46:201
-6.4462,-6.6058,1.6256,-2.4296,3.5176,1.1886,-0.0026,-0.0166,-0.016,3763,2019-08-07 16:50:46:206
-6.3648,-6.5056,1.5737,-2.4296,3.5176,1.1886,-0.0026,-0.0166,-0.016,3768,2019-08-07 16:50:46:211
-6.3648,-6.5056,1.5737,-2.4296,3.5176,1.1886,0.008,0.009,0.0064,3773,2019-08-07 16:50:46:216
-6.3648,-6.5056,1.5737,-2.6106,3.4466,1.3226,0.008,0.009,0.0064,3778,2019-08-07 16:50:46:221
-6.2309,-6.5438,1.4512,-2.6106,3.4466,1.3226,0.0091,0.0495,0.0043,3782,2019-08-07 16:50:46:225
-6.2309,-6.5438,1.4512,-2.6106,3.4466,1.3226,0.0091,0.0495,0.0043,3788,2019-08-07 16:50:46:231
-6.2213,-6.6058,1.4135,-2.6106,3.4466,1.3226,6.0E-4,0.0985,-0.0085,3793,2019-08-07 16:50:46:236
-6.2213,-6.6058,1.4135,-2.6283,3.4614,1.283,6.0E-4,0.0985,-0.0085,3798,2019-08-07 16:50:46:241
-6.2213,-6.6058,1.4135,-2.6283,3.4614,1.283,0.0059,0.1613,-0.0138,3803,2019-08-07 16:50:46:246
-6.2595,-6.687,1.5125,-2.6283,3.4614,1.283,0.0059,0.1613,-0.0138,3807,2019-08-07 16:50:46:250
-6.2595,-6.687,1.5125,-2.6283,3.4614,1.283,0.0166,0.2189,-0.0181,3812,2019-08-07 16:50:46:255
-6.3887,-6.7634,1.5266,-2.503,3.6171,1.2753,0.0166,0.2189,-0.0181,3818,2019-08-07 16:50:46:261
-6.3887,-6.7634,1.5266,-2.503,3.6171,1.2753,0.023,0.2497,-0.0149,3823,2019-08-07 16:50:46:266
-6.3887,-6.7634,1.5266,-2.503,3.6171,1.2753,0.023,0.2497,-0.0149,3827,2019-08-07 16:50:46:270
-6.7619,-6.6774,1.6869,-2.503,3.6171,1.2753,0.0102,0.2178,0.0032,3833,2019-08-07 16:50:46:276
-6.7619,-6.6774,1.6869,-2.0462,3.5319,0.9617,0.0102,0.2178,0.0032,3838,2019-08-07 16:50:46:281
-6.9437,-6.6774,1.9556,-2.0462,3.5319,0.9617,-0.0047,0.124,0.0117,3842,2019-08-07 16:50:46:285
-6.9437,-6.6774,1.9556,-2.0462,3.5319,0.9617,-0.0047,0.124,0.0117,3849,2019-08-07 16:50:46:292
-6.9437,-6.6774,1.9556,-2.0462,3.5319,0.9617,-0.0143,-0.0432,0.016,3853,2019-08-07 16:50:46:296
-7.025,-6.6822,1.9508,-1.8543,3.5024,0.7479,-0.0143,-0.0432,0.016,3858,2019-08-07 16:50:46:301
-7.025,-6.6822,1.9508,-1.8543,3.5024,0.7479,-0.0143,-0.0432,0.016,3862,2019-08-07 16:50:46:305
-6.6423,-6.6965,1.7152,-1.8543,3.5024,0.7479,-0.0175,-0.1732,0.0245,3868,2019-08-07 16:50:46:311
-6.6423,-6.6965,1.7152,-1.8543,3.5024,0.7479,-0.0175,-0.1732,0.0245,3873,2019-08-07 16:50:46:316
-6.6423,-6.6965,1.7152,-2.4102,3.5259,1.1894,-0.0175,-0.2296,0.0224,3877,2019-08-07 16:50:46:320
-6.2404,-6.7299,1.404,-2.4102,3.5259,1.1894,-0.0175,-0.2296,0.0224,3883,2019-08-07 16:50:46:326
-6.2404,-6.7299,1.404,-2.4102,3.5259,1.1894,-0.0154,-0.171,0.0117,3887,2019-08-07 16:50:46:330
-6.2404,-6.7299,1.404,-2.4102,3.5259,1.1894,-0.0154,-0.171,0.0117,3893,2019-08-07 16:50:46:336
-6.0012,-6.7634,1.3145,-2.8168,3.5028,1.3843,-0.0058,-0.0379,0.0,3898,2019-08-07 16:50:46:341
-6.0012,-6.7634,1.3145,-2.8168,3.5028,1.3843,-0.0058,-0.0379,0.0,3903,2019-08-07 16:50:46:346
-6.1734,-6.6583,1.3145,-2.8168,3.5028,1.3843,0.0016,0.0995,-0.0075,3908,2019-08-07 16:50:46:351
-6.1734,-6.6583,1.3145,-2.8168,3.5028,1.3843,0.0016,0.0995,-0.0075,3913,2019-08-07 16:50:46:356
-6.1734,-6.6583,1.3145,-2.3985,3.4292,1.2576,0.0027,0.1869,-0.0181,3918,2019-08-07 16:50:46:361
-6.4987,-6.6249,1.5219,-2.3985,3.4292,1.2576,0.0027,0.1869,-0.0181,3922,2019-08-07 16:50:46:365
-6.4987,-6.6249,1.5219,-2.3985,3.4292,1.2576,0.0134,0.2114,-0.0256,3928,2019-08-07 16:50:46:371
-6.8097,-6.5915,1.7623,-2.3985,3.4292,1.2576,0.0134,0.2114,-0.0256,3932,2019-08-07 16:50:46:375
-6.8097,-6.5915,1.7623,-1.9432,3.2642,0.9171,0.0134,0.2114,-0.0256,3938,2019-08-07 16:50:46:381
-6.8097,-6.5915,1.7623,-1.9432,3.2642,0.9171,0.0134,0.1485,-0.0394,3943,2019-08-07 16:50:46:386
-6.9149,-6.5295,1.8471,-1.9432,3.2642,0.9171,0.0134,0.1485,-0.0394,3949,2019-08-07 16:50:46:392
-6.9149,-6.5295,1.8471,-1.9432,3.2642,0.9171,0.0176,0.0644,-0.0415,3953,2019-08-07 16:50:46:396
-6.9149,-6.5295,1.8471,-1.9432,3.2642,0.9171,0.0176,0.0644,-0.0415,3958,2019-08-07 16:50:46:401
-6.7858,-6.5438,1.7482,-2.0648,3.2646,0.9258,0.0261,0.0186,-0.0373,3963,2019-08-07 16:50:46:406
-6.7858,-6.5438,1.7482,-2.0648,3.2646,0.9258,0.0261,0.0186,-0.0373,3968,2019-08-07 16:50:46:411
-6.6566,-6.5438,1.7482,-2.0648,3.2646,0.9258,0.0304,-0.0602,-0.0298,3973,2019-08-07 16:50:46:416
-6.6566,-6.5438,1.7482,-2.2514,3.1853,1.0438,0.0304,-0.0602,-0.0298,3978,2019-08-07 16:50:46:421
-6.6566,-6.5438,1.7482,-2.2514,3.1853,1.0438,0.0123,-0.1284,-0.0085,3982,2019-08-07 16:50:46:425
-6.4509,-6.5056,1.5408,-2.2514,3.1853,1.0438,0.0123,-0.1284,-0.0085,3988,2019-08-07 16:50:46:431
-6.4509,-6.5056,1.5408,-2.2514,3.1853,1.0438,0.0123,-0.1284,-0.0085,3992,2019-08-07 16:50:46:435
-6.1829,-6.5533,1.47,-2.6446,3.2329,1.2292,-0.0165,-0.1423,0.0053,3998,2019-08-07 16:50:46:441
-6.1829,-6.5533,1.47,-2.6446,3.2329,1.2292,-0.0165,-0.1423,0.0053,4002,2019-08-07 16:50:46:445
-6.1829,-6.5533,1.47,-2.6446,3.2329,1.2292,-0.0261,-0.0901,0.0032,4009,2019-08-07 16:50:46:452
-6.159,-6.5963,1.3145,-2.6446,3.2329,1.2292,-0.0261,-0.0901,0.0032,4013,2019-08-07 16:50:46:456
-6.159,-6.5963,1.3145,-2.6245,3.2835,1.2375,-0.0282,-0.0294,-0.0021,4018,2019-08-07 16:50:46:461
-6.2499,-6.5915,1.4276,-2.6245,3.2835,1.2375,-0.0282,-0.0294,-0.0021,4023,2019-08-07 16:50:46:466
-6.2499,-6.5915,1.4276,-2.6245,3.2835,1.2375,-0.0282,0.0356,-0.0032,4028,2019-08-07 16:50:46:471
-6.2499,-6.5915,1.4276,-2.6245,3.2835,1.2375,-0.0282,0.0356,-0.0032,4033,2019-08-07 16:50:46:476
-6.403,-6.5676,1.5596,-2.3668,3.1761,1.1586,-0.0197,0.0932,-0.0075,4038,2019-08-07 16:50:46:481
-6.403,-6.5676,1.5596,-2.3668,3.1761,1.1586,-0.0197,0.0932,-0.0075,4042,2019-08-07 16:50:46:485
-6.5991,-6.4053,1.6633,-2.3668,3.1761,1.1586,-0.009,0.1145,-0.0085,4048,2019-08-07 16:50:46:491
-6.5991,-6.4053,1.6633,-2.3668,3.1761,1.1586,-0.009,0.1145,-0.0085,4053,2019-08-07 16:50:46:496
-6.5991,-6.4053,1.6633,-2.3668,3.1761,1.1586,-0.009,0.1145,-0.0085,4058,2019-08-07 16:50:46:501
-6.5752,-6.4483,1.7199,-2.2514,3.0461,0.9842,-5.0E-4,0.1017,-0.0053,4063,2019-08-07 16:50:46:506
-6.5752,-6.4483,1.7199,-2.2514,3.0461,0.9842,-5.0E-4,0.1017,-0.0053,4068,2019-08-07 16:50:46:511
-6.5752,-6.4483,1.7199,-2.2514,3.0461,0.9842,-0.0058,0.0623,-0.0106,4073,2019-08-07 16:50:46:516
-6.6805,-6.5056,1.6633,-2.2514,3.0461,0.9842,-0.0058,0.0623,-0.0106,4078,2019-08-07 16:50:46:521
-6.6805,-6.5056,1.6633,-2.0769,3.1029,1.0659,-0.0292,-0.0017,0.0021,4082,2019-08-07 16:50:46:525
-6.6805,-6.5056,1.6633,-2.0769,3.1029,1.0659,-0.0292,-0.0017,0.0021,4088,2019-08-07 16:50:46:531
-6.6565,-6.539,1.6398,-2.0769,3.1029,1.0659,-0.0388,-0.0517,0.0085,4093,2019-08-07 16:50:46:536
-6.6565,-6.539,1.6398,-2.0769,3.1029,1.0659,-0.0388,-0.0517,0.0085,4097,2019-08-07 16:50:46:540
-6.4939,-6.6822,1.5785,-2.2801,3.1938,1.0281,-0.0303,-0.0901,0.0181,4103,2019-08-07 16:50:46:546
-6.4939,-6.6822,1.5785,-2.2801,3.1938,1.0281,-0.0303,-0.0901,0.0181,4107,2019-08-07 16:50:46:550
-6.4939,-6.6822,1.5785,-2.2801,3.1938,1.0281,-0.0197,-0.0773,0.0213,4113,2019-08-07 16:50:46:556
-6.3073,-6.7061,1.4748,-2.2801,3.1938,1.0281,-0.0197,-0.0773,0.0213,4118,2019-08-07 16:50:46:561
-6.3073,-6.7061,1.4748,-2.4811,3.2859,1.23,-0.0197,-0.0773,0.0213,4123,2019-08-07 16:50:46:566
-6.2546,-6.7013,1.4983,-2.4811,3.2859,1.23,-0.0143,-0.0294,0.017,4128,2019-08-07 16:50:46:571
-6.2546,-6.7013,1.4983,-2.4811,3.2859,1.23,-0.0143,-0.0294,0.017,4132,2019-08-07 16:50:46:575
-6.2546,-6.7013,1.4983,-2.4811,3.2859,1.23,-0.0015,0.0367,0.0085,4138,2019-08-07 16:50:46:581
-6.3647,-6.6584,1.5738,-2.4223,3.201,1.0854,-0.0015,0.0367,0.0085,4143,2019-08-07 16:50:46:586
-6.3647,-6.6584,1.5738,-2.4223,3.201,1.0854,0.0059,0.0633,0.0117,4149,2019-08-07 16:50:46:592
-6.446,-6.6536,1.5313,-2.4223,3.201,1.0854,0.0059,0.0633,0.0117,4152,2019-08-07 16:50:46:595
-6.446,-6.6536,1.5313,-2.4223,3.201,1.0854,0.0059,0.0633,0.0117,4158,2019-08-07 16:50:46:601
-6.446,-6.6536,1.5313,-2.31,3.1502,1.0846,0.008,0.074,0.0139,4164,2019-08-07 16:50:46:607
-6.5178,-6.6011,1.6492,-2.31,3.1502,1.0846,0.008,0.074,0.0139,4168,2019-08-07 16:50:46:611
-6.5178,-6.6011,1.6492,-2.31,3.1502,1.0846,0.0038,0.041,0.0117,4172,2019-08-07 16:50:46:615
-6.4843,-6.582,1.701,-2.31,3.1502,1.0846,0.0038,0.041,0.0117,4178,2019-08-07 16:50:46:621
-6.4843,-6.582,1.701,-2.2828,3.0813,0.9748,-0.0037,-6.0E-4,0.0245,4182,2019-08-07 16:50:46:625
-6.4843,-6.582,1.701,-2.2828,3.0813,0.9748,-0.0037,-6.0E-4,0.0245,4188,2019-08-07 16:50:46:631
-6.5465,-6.6345,1.3711,-2.2828,3.0813,0.9748,-0.0506,-0.0986,0.0234,4193,2019-08-07 16:50:46:636
-6.5465,-6.6345,1.3711,-2.2828,3.0813,0.9748,-0.0506,-0.0986,0.0234,4199,2019-08-07 16:50:46:642
-6.5465,-6.6345,1.3711,-2.4623,3.1892,0.5713,-0.0506,-0.0986,0.0234,4202,2019-08-07 16:50:46:645
-6.2642,-6.7061,2.0876,-2.4623,3.1892,0.5713,-0.0069,-0.023,0.0362,4208,2019-08-07 16:50:46:651
-6.2642,-6.7061,2.0876,-2.4623,3.1892,0.5713,0.057,0.0015,0.0511,4213,2019-08-07 16:50:46:656
-6.3455,-6.7156,1.5172,-2.4623,3.1892,0.5713,0.057,0.0015,0.0511,4217,2019-08-07 16:50:46:660
-6.3455,-6.7156,1.5172,-2.3243,3.1215,1.3253,0.057,0.0015,0.0511,4223,2019-08-07 16:50:46:666
-6.4221,-6.687,1.4842,-2.3243,3.1215,1.3253,0.0453,0.0846,0.0682,4228,2019-08-07 16:50:46:671
-6.4221,-6.687,1.4842,-2.3243,3.1215,1.3253,0.0453,0.0846,0.0682,4233,2019-08-07 16:50:46:676
-6.4221,-6.687,1.4842,-2.3243,3.1215,1.3253,0.0102,0.0505,0.0639,4237,2019-08-07 16:50:46:680
-6.5375,-6.5724,1.6679,-2.2347,3.0485,0.9525,0.0102,0.0505,0.0639,4243,2019-08-07 16:50:46:686
-6.5375,-6.5724,1.6679,-2.2347,3.0485,0.9525,0.0102,0.0303,0.0469,4248,2019-08-07 16:50:46:691
-6.5423,-6.644,1.5501,-2.2347,3.0485,0.9525,0.0102,0.0303,0.0469,4254,2019-08-07 16:50:46:697
-6.5423,-6.644,1.5501,-2.2347,3.0485,0.9525,-0.0111,0.0069,0.0277,4258,2019-08-07 16:50:46:701
-6.5423,-6.644,1.5501,-2.1364,3.0839,1.0861,-0.0111,0.0069,0.0277,4263,2019-08-07 16:50:46:706
-6.6619,-6.5055,1.5736,-2.1364,3.0839,1.0861,-0.0378,0.0047,0.0117,4268,2019-08-07 16:50:46:711
-6.6619,-6.5055,1.5736,-2.1364,3.0839,1.0861,-0.0378,0.0047,0.0117,4273,2019-08-07 16:50:46:716