ACCELEROMETER X (m/s²),ACCELEROMETER Y (m/s²),ACCELEROMETER Z (m/s²),LINEAR ACCELERATION X (m/s²),LINEAR ACCELERATION Y (m/s²),LINEAR ACCELERATION Z (m/s²),GYROSCOPE X (rad/s),GYROSCOPE Y (rad/s),GYROSCOPE Z (rad/s),Time since start in ms ,YYYY-MO-DD HH-MI-SS_SSS
-5.8608,-7.1793,1.6128,-0.1056,-0.4181,0.1808,-0.0016,0.0175,-0.0266,2,2019-08-07 16:48:12:835
-5.8608,-7.1793,1.6128,-0.1056,-0.4181,0.1808,-0.0016,0.0175,-0.0266,8,2019-08-07 16:48:12:841
-5.8608,-7.1793,1.6128,-0.1056,-0.4181,0.1808,-0.0026,0.0154,-0.0234,13,2019-08-07 16:48:12:846
-5.7795,-7.1841,1.6458,-0.1056,-0.4181,0.1808,-0.0026,0.0154,-0.0234,17,2019-08-07 16:48:12:850
-5.7795,-7.1841,1.6458,-0.1704,-0.3823,0.1308,-0.0016,0.0143,-0.0202,23,2019-08-07 16:48:12:856
-5.7795,-7.1841,1.6458,-0.1704,-0.3823,0.1308,-0.0016,0.0143,-0.0202,28,2019-08-07 16:48:12:861
-5.7365,-7.2461,1.6128,-0.1704,-0.3823,0.1308,-0.0016,0.0143,-0.0202,33,2019-08-07 16:48:12:866
-5.7365,-7.2461,1.6128,-0.1704,-0.3823,0.1308,-0.0016,0.0186,-0.0159,38,2019-08-07 16:48:12:871
-5.7365,-7.208,1.6222,-0.2309,-0.3747,0.1468,-0.0016,0.0186,-0.0159,43,2019-08-07 16:48:12:876
-5.7365,-7.208,1.6222,-0.2309,-0.3747,0.1468,0.0038,0.0132,-0.0074,47,2019-08-07 16:48:12:880
-5.7365,-7.208,1.6222,-0.2309,-0.3747,0.1468,0.0155,0.0069,0.0022,53,2019-08-07 16:48:12:886
-5.7652,-7.2318,1.7872,-0.2309,-0.3747,0.1468,0.0155,0.0069,0.0022,57,2019-08-07 16:48:12:890
-5.7652,-7.2318,1.7872,-0.2362,-0.3788,-0.0172,0.0155,0.0069,0.0022,63,2019-08-07 16:48:12:896
-5.7652,-7.2318,1.7872,-0.2362,-0.3788,-0.0172,0.0197,-0.0059,0.0086,67,2019-08-07 16:48:12:900
-5.7365,-7.1936,1.7636,-0.2362,-0.3788,-0.0172,0.0197,-0.0059,0.0086,73,2019-08-07 16:48:12:906
-5.7365,-7.1936,1.7636,-0.2362,-0.3788,-0.0172,0.0219,-0.0176,0.0107,78,2019-08-07 16:48:12:911
-5.7269,-7.2223,1.7401,-0.2425,-0.3574,0.0348,0.0155,-0.0208,0.0128,84,2019-08-07 16:48:12:917
-5.7269,-7.2223,1.7401,-0.2425,-0.3574,0.0348,0.0155,-0.0208,0.0128,88,2019-08-07 16:48:12:921
-5.7269,-7.2223,1.7401,-0.2425,-0.3574,0.0348,0.0155,-0.0208,0.0128,93,2019-08-07 16:48:12:926
-5.7413,-7.2127,1.6552,-0.2425,-0.3574,0.0348,0.0166,-0.0113,0.0128,99,2019-08-07 16:48:12:932
-5.7413,-7.2127,1.6552,-0.2537,-0.3504,0.1284,0.0166,-0.0113,0.0128,103,2019-08-07 16:48:12:936
-5.7413,-7.2127,1.6552,-0.2537,-0.3504,0.1284,0.0176,0.01,0.0043,108,2019-08-07 16:48:12:941
-5.7269,-7.2414,1.6552,-0.2537,-0.3504,0.1284,0.0176,0.01,0.0043,112,2019-08-07 16:48:12:945
-5.7269,-7.2414,1.6552,-0.2537,-0.3504,0.1284,0.0144,0.0335,-0.001,118,2019-08-07 16:48:12:951
-5.7748,-7.2079,1.6552,-0.1976,-0.3687,0.1226,0.0144,0.0335,-0.001,122,2019-08-07 16:48:12:955
-5.7748,-7.2079,1.6552,-0.1976,-0.3687,0.1226,0.0112,0.0484,-0.0042,128,2019-08-07 16:48:12:961
-5.7748,-7.2079,1.6552,-0.1976,-0.3687,0.1226,0.0112,0.0484,-0.0042,133,2019-08-07 16:48:12:966
-5.8131,-7.1745,1.7306,-0.1976,-0.3687,0.1226,0.0048,0.0484,-0.0031,138,2019-08-07 16:48:12:971
-5.8131,-7.1745,1.7306,-0.1705,-0.4067,0.0801,0.0048,0.0484,-0.0031,143,2019-08-07 16:48:12:976
-5.8131,-7.1745,1.7448,-0.1705,-0.4067,0.0801,0.0016,0.0367,0.0022,148,2019-08-07 16:48:12:981
-5.8131,-7.1745,1.7448,-0.1705,-0.4067,0.0801,0.0016,0.0367,0.0022,153,2019-08-07 16:48:12:986
-5.8131,-7.1745,1.7448,-0.1705,-0.4067,0.0801,0.0016,0.0367,0.0022,158,2019-08-07 16:48:12:991
-5.794,-7.1698,1.7636,-0.22,-0.4008,0.0162,0.0016,0.01,0.0128,163,2019-08-07 16:48:12:996
-5.794,-7.1698,1.7636,-0.22,-0.4008,0.0162,0.0016,0.01,0.0128,167,2019-08-07 16:48:13:000
-5.7517,-7.1936,1.7635,-0.22,-0.4008,0.0162,-5.0E-4,-0.0113,0.0235,173,2019-08-07 16:48:13:006
-5.7517,-7.1936,1.7635,-0.22,-0.4008,0.0162,-5.0E-4,-0.0113,0.0235,177,2019-08-07 16:48:13:010
-5.7517,-7.1936,1.7635,-0.2183,-0.3216,-0.0341,-0.0016,-0.023,0.0277,183,2019-08-07 16:48:13:016
-5.7421,-7.2604,1.7399,-0.2183,-0.3216,-0.0341,-0.0016,-0.023,0.0277,188,2019-08-07 16:48:13:021
-5.7421,-7.2604,1.7399,-0.2183,-0.3216,-0.0341,-0.0016,-0.0262,0.032,193,2019-08-07 16:48:13:026
-5.6799,-7.3033,1.6267,-0.2183,-0.3216,-0.0341,-0.0016,-0.0262,0.032,198,2019-08-07 16:48:13:031
-5.6799,-7.3033,1.6267,-0.2698,-0.2515,0.0949,-0.0026,-0.0038,0.0256,203,2019-08-07 16:48:13:036
-5.6799,-7.3033,1.6267,-0.2698,-0.2515,0.0949,-0.0026,-0.0038,0.0256,208,2019-08-07 16:48:13:041
-5.7422,-7.2699,1.5985,-0.2698,-0.2515,0.0949,-0.0026,-0.0038,0.0256,213,2019-08-07 16:48:13:046
-5.7422,-7.2699,1.5985,-0.2698,-0.2515,0.0949,0.0016,0.0196,0.0203,218,2019-08-07 16:48:13:051
-5.7422,-7.2699,1.5985,-0.2698,-0.2515,0.0949,0.0016,0.0196,0.0203,223,2019-08-07 16:48:13:056
-5.723,-7.3033,1.6267,-0.2642,-0.2632,0.1443,0.0102,0.0484,0.016,228,2019-08-07 16:48:13:061
-5.723,-7.3033,1.6267,-0.2642,-0.2632,0.1443,0.0102,0.0484,0.016,233,2019-08-07 16:48:13:066
-5.8618,-7.2747,1.6362,-0.2642,-0.2632,0.1443,0.0102,0.0697,0.0043,238,2019-08-07 16:48:13:071
-5.8618,-7.2747,1.6362,-0.0147,-0.3475,0.1324,0.0102,0.0697,0.0043,243,2019-08-07 16:48:13:076
-5.8618,-7.2747,1.6362,-0.0147,-0.3475,0.1324,0.0048,0.0718,0.0,248,2019-08-07 16:48:13:081
-5.924,-7.1983,1.6786,-0.0147,-0.3475,0.1324,0.0048,0.0718,0.0,252,2019-08-07 16:48:13:085
-5.924,-7.1983,1.6786,-0.0147,-0.3475,0.1324,0.0048,0.0527,-0.001,258,2019-08-07 16:48:13:091
-5.924,-7.1983,1.6786,-0.0229,-0.3893,0.0084,0.0048,0.0527,-0.001,263,2019-08-07 16:48:13:096
-5.9719,-7.1744,1.7493,-0.0229,-0.3893,0.0084,0.007,0.0239,-0.0042,268,2019-08-07 16:48:13:101
-5.9719,-7.1744,1.7493,-0.0229,-0.3893,0.0084,0.007,0.0239,-0.0042,272,2019-08-07 16:48:13:105
-5.9623,-7.1315,1.7304,-0.0229,-0.3893,0.0084,0.0059,-0.0113,0.0,278,2019-08-07 16:48:13:111
-5.9623,-7.1315,1.7304,-0.0229,-0.3893,0.0084,0.0059,-0.0113,0.0,283,2019-08-07 16:48:13:116
-5.9623,-7.1315,1.7304,-0.0623,-0.3928,0.0381,0.0059,-0.0411,0.0043,287,2019-08-07 16:48:13:120
-5.8379,-7.1601,1.7116,-0.0623,-0.3928,0.0381,0.0059,-0.0411,0.0043,293,2019-08-07 16:48:13:126
-5.8379,-7.1601,1.7116,-0.1676,-0.3873,0.0411,0.0059,-0.0475,0.0022,298,2019-08-07 16:48:13:131
-5.8284,-7.1983,1.6456,-0.1676,-0.3873,0.0411,0.0059,-0.0475,0.0022,303,2019-08-07 16:48:13:136
-5.8284,-7.1983,1.6456,-0.1676,-0.3873,0.0411,6.0E-4,-0.0571,0.0086,308,2019-08-07 16:48:13:141
-5.8284,-7.1983,1.6456,-0.1676,-0.3873,0.0411,6.0E-4,-0.0571,0.0086,313,2019-08-07 16:48:13:146
-5.7327,-7.1888,1.688,-0.263,-0.3717,0.0807,-5.0E-4,-0.0571,0.015,317,2019-08-07 16:48:13:150
-5.7327,-7.1888,1.688,-0.263,-0.3717,0.0807,-5.0E-4,-0.0571,0.015,323,2019-08-07 16:48:13:156
-5.6514,-7.2651,1.6126,-0.263,-0.3717,0.0807,-0.0069,-0.0272,0.0139,328,2019-08-07 16:48:13:161
-5.6514,-7.2651,1.6126,-0.263,-0.3717,0.0807,-0.0069,-0.0272,0.0139,333,2019-08-07 16:48:13:166
-5.6514,-7.2651,1.6126,-0.3447,-0.3133,0.1546,-0.0069,0.0122,0.0096,338,2019-08-07 16:48:13:171
-5.6706,-7.2365,1.6314,-0.3447,-0.3133,0.1546,-0.0069,0.0122,0.0096,343,2019-08-07 16:48:13:176
-5.6706,-7.2365,1.6314,-0.3447,-0.3133,0.1546,-0.0026,0.0473,0.0043,349,2019-08-07 16:48:13:182
-5.6706,-7.2365,1.6314,-0.3447,-0.3133,0.1546,-0.0026,0.0473,0.0043,352,2019-08-07 16:48:13:185
-5.7328,-7.2365,1.7257,-0.2655,-0.3223,0.0413,-0.0048,0.0697,0.0064,358,2019-08-07 16:48:13:191
-5.7328,-7.2365,1.7257,-0.2655,-0.3223,0.0413,-0.0048,0.0697,0.0064,363,2019-08-07 16:48:13:196
-5.8524,-7.1935,1.6503,-0.2655,-0.3223,0.0413,-0.0111,0.0729,0.0011,368,2019-08-07 16:48:13:201
-5.8524,-7.1935,1.6503,-0.2655,-0.3223,0.0413,-0.0111,0.0729,0.0011,373,2019-08-07 16:48:13:206
-5.8524,-7.1935,1.6503,-0.135,-0.3743,0.0645,-0.0133,0.0559,0.0022,378,2019-08-07 16:48:13:211
-5.9098,-7.1744,1.721,-0.135,-0.3743,0.0645,-0.0133,0.0559,0.0022,383,2019-08-07 16:48:13:216
-5.9098,-7.1744,1.721,-0.135,-0.3743,0.0645,-0.0133,0.0559,0.0022,387,2019-08-07 16:48:13:220
-5.8955,-7.184,1.7634,-0.135,-0.3743,0.0645,-0.0058,0.0079,0.0054,393,2019-08-07 16:48:13:226
-5.8955,-7.184,1.7634,-0.152,-0.3971,0.0219,-0.0058,0.0079,0.0054,398,2019-08-07 16:48:13:231
-5.8955,-7.184,1.7634,-0.152,-0.3971,0.0219,-0.0048,-0.0294,0.0139,403,2019-08-07 16:48:13:236
-5.819,-7.1553,1.6833,-0.152,-0.3971,0.0219,-0.0048,-0.0294,0.0139,407,2019-08-07 16:48:13:240
-5.819,-7.1553,1.6833,-0.152,-0.3971,0.0219,-0.0037,-0.0336,0.0213,413,2019-08-07 16:48:13:246
-5.752,-7.1601,1.6832,-0.2256,-0.3569,0.0341,-0.0037,-0.0336,0.0213,418,2019-08-07 16:48:13:251
-5.752,-7.1601,1.6832,-0.2256,-0.3569,0.0341,-0.0037,-0.0336,0.0213,422,2019-08-07 16:48:13:255
-5.752,-7.1601,1.6832,-0.2256,-0.3569,0.0341,6.0E-4,-0.0379,0.032,428,2019-08-07 16:48:13:261
-5.7185,-7.2269,1.622,-0.2256,-0.3569,0.0341,6.0E-4,-0.0379,0.032,432,2019-08-07 16:48:13:265
-5.7185,-7.2269,1.622,-0.3583,-0.2814,0.2034,6.0E-4,-0.0315,0.0373,438,2019-08-07 16:48:13:271
-5.7185,-7.2269,1.622,-0.3583,-0.2814,0.2034,6.0E-4,-0.0315,0.0373,442,2019-08-07 16:48:13:275
-5.7042,-7.3081,1.5795,-0.3583,-0.2814,0.2034,6.0E-4,-0.0134,0.0352,449,2019-08-07 16:48:13:282
-5.7042,-7.3081,1.5795,-0.3583,-0.2814,0.2034,6.0E-4,-0.0134,0.0352,452,2019-08-07 16:48:13:285
-5.7042,-7.3081,1.5795,-0.2908,-0.2254,0.1281,-5.0E-4,0.0207,0.0267,458,2019-08-07 16:48:13:291
-5.7521,-7.2794,1.5512,-0.2908,-0.2254,0.1281,-5.0E-4,0.0207,0.0267,463,2019-08-07 16:48:13:296
-5.7521,-7.2794,1.5512,-0.2908,-0.2254,0.1281,0.0027,0.0505,0.016,467,2019-08-07 16:48:13:300
-5.7616,-7.3176,1.5135,-0.2908,-0.2254,0.1281,0.0027,0.0505,0.016,473,2019-08-07 16:48:13:306
-5.7616,-7.3176,1.5135,-0.1612,-0.2759,0.1501,6.0E-4,0.0686,0.0086,478,2019-08-07 16:48:13:311
-5.7616,-7.3176,1.5135,-0.1612,-0.2759,0.1501,6.0E-4,0.0686,0.0086,483,2019-08-07 16:48:13:316
-5.91,-7.2603,1.5748,-0.1612,-0.2759,0.1501,6.0E-4,0.0729,0.0011,488,2019-08-07 16:48:13:321
-5.91,-7.2603,1.5748,-0.1612,-0.2759,0.1501,6.0E-4,0.0729,0.0011,493,2019-08-07 16:48:13:326
-5.9578,-7.2365,1.7209,-0.0644,-0.3085,0.023,-0.0026,0.0548,0.0011,497,2019-08-07 16:48:13:330
-5.9578,-7.2365,1.7209,-0.0644,-0.3085,0.023,-0.0026,0.0548,0.0011,502,2019-08-07 16:48:13:335
-5.9578,-7.2365,1.7209,-0.0644,-0.3085,0.023,-0.0026,0.0548,0.0011,508,2019-08-07 16:48:13:341
-5.9196,-7.2556,1.7445,-0.0644,-0.3085,0.023,0.007,0.0292,0.0011,513,2019-08-07 16:48:13:346
-5.9196,-7.2556,1.7445,-0.1383,-0.2789,0.0106,0.007,0.0292,0.0011,518,2019-08-07 16:48:13:351
-5.8813,-7.1887,1.7162,-0.1383,-0.2789,0.0106,0.0166,0.0047,0.0,522,2019-08-07 16:48:13:355
-5.8813,-7.1887,1.7162,-0.1383,-0.2789,0.0106,0.0166,0.0047,0.0,528,2019-08-07 16:48:13:361
-5.8813,-7.1887,1.7162,-0.1383,-0.2789,0.0106,0.0208,-0.0155,0.0054,532,2019-08-07 16:48:13:365
-5.8813,-7.184,1.7021,-0.1917,-0.3585,0.0336,0.0208,-0.0155,0.0054,538,2019-08-07 16:48:13:371
-5.8813,-7.184,1.7021,-0.1917,-0.3585,0.0336,0.0293,-0.0208,0.0128,543,2019-08-07 16:48:13:376
-5.8287,-7.1649,1.7398,-0.1917,-0.3585,0.0336,0.0293,-0.0208,0.0128,549,2019-08-07 16:48:13:382
-5.8287,-7.1649,1.7398,-0.1917,-0.3585,0.0336,0.0336,-0.0304,0.0128,553,2019-08-07 16:48:13:386
-5.8287,-7.1649,1.7398,-0.1789,-0.3695,0.0471,0.0336,-0.0304,0.0128,558,2019-08-07 16:48:13:391
-5.8383,-7.1123,1.6832,-0.1789,-0.3695,0.0471,0.0315,-0.0358,0.0171,563,2019-08-07 16:48:13:396
-5.8383,-7.1123,1.6832,-0.1789,-0.3695,0.0471,0.0315,-0.0358,0.0171,568,2019-08-07 16:48:13:401
-5.7426,-7.1744,1.5936,-0.1789,-0.3695,0.0471,0.0197,-0.0294,0.0171,573,2019-08-07 16:48:13:406
-5.7426,-7.1744,1.5936,-0.1789,-0.3695,0.0471,0.0197,-0.0294,0.0171,578,2019-08-07 16:48:13:411
-5.7426,-7.1744,1.5936,-0.3048,-0.3093,0.1393,0.0112,-0.0134,0.0096,582,2019-08-07 16:48:13:415
-5.714,-7.2221,1.6219,-0.3048,-0.3093,0.1393,0.0112,-0.0134,0.0096,588,2019-08-07 16:48:13:421
-5.714,-7.2221,1.6219,-0.3048,-0.3093,0.1393,0.0112,0.0207,0.0075,593,2019-08-07 16:48:13:426
-5.714,-7.2221,1.6219,-0.3048,-0.3093,0.1393,0.0112,0.0207,0.0075,597,2019-08-07 16:48:13:430
-5.7331,-7.2508,1.6361,-0.2967,-0.2842,0.1252,0.0112,0.0207,0.0075,603,2019-08-07 16:48:13:436
-5.7331,-7.2508,1.6361,-0.2967,-0.2842,0.1252,0.0038,0.0548,0.0032,609,2019-08-07 16:48:13:442
-5.8336,-7.2269,1.5889,-0.2967,-0.2842,0.1252,-5.0E-4,0.0665,0.0,614,2019-08-07 16:48:13:447
-5.8336,-7.2269,1.5889,-0.2967,-0.2842,0.1252,-5.0E-4,0.0665,0.0,618,2019-08-07 16:48:13:451
-5.8336,-7.2269,1.5889,-0.1367,-0.3792,0.1087,-5.0E-4,0.0665,0.0,623,2019-08-07 16:48:13:456
-5.8815,-7.1553,1.6832,-0.1367,-0.3792,0.1087,-0.0016,0.0548,0.0011,627,2019-08-07 16:48:13:460
-5.8815,-7.1553,1.6832,-0.1367,-0.3792,0.1087,-0.0016,0.0548,0.0011,633,2019-08-07 16:48:13:466
-5.8815,-7.1553,1.6832,-0.1367,-0.3792,0.1087,-0.0016,0.0346,0.0086,637,2019-08-07 16:48:13:470
-5.915,-7.1505,1.6926,-0.1208,-0.3828,0.0552,-0.0016,0.0346,0.0086,643,2019-08-07 16:48:13:476
-5.915,-7.1505,1.6926,-0.1208,-0.3828,0.0552,0.0048,0.0175,0.0075,649,2019-08-07 16:48:13:482
-5.9533,-7.1171,1.7445,-0.1208,-0.3828,0.0552,0.0048,0.0175,0.0075,653,2019-08-07 16:48:13:486
-5.9533,-7.1171,1.7445,-0.1208,-0.3828,0.0552,0.0048,0.0175,0.0075,658,2019-08-07 16:48:13:491
-5.9533,-7.1171,1.7445,-0.0999,-0.3757,0.0594,0.007,-0.0113,0.0128,663,2019-08-07 16:48:13:496
-5.8719,-7.1362,1.6549,-0.0999,-0.3757,0.0594,0.007,-0.0113,0.0128,667,2019-08-07 16:48:13:500
-5.8719,-7.1362,1.6549,-0.0999,-0.3757,0.0594,0.008,-0.0272,0.0213,673,2019-08-07 16:48:13:506
-5.8098,-7.1314,1.6737,-0.0999,-0.3757,0.0594,0.008,-0.0272,0.0213,678,2019-08-07 16:48:13:511
-5.8098,-7.1314,1.6737,-0.2076,-0.3489,0.1575,0.0144,-0.0166,0.0213,683,2019-08-07 16:48:13:516
-5.8241,-7.1887,1.6172,-0.2076,-0.3489,0.1575,0.0144,-0.0166,0.0213,688,2019-08-07 16:48:13:521
-5.8241,-7.1887,1.6172,-0.2076,-0.3489,0.1575,0.0123,-0.0081,0.0224,693,2019-08-07 16:48:13:526
-5.8241,-7.1887,1.6172,-0.2076,-0.3489,0.1575,0.0123,-0.0081,0.0224,698,2019-08-07 16:48:13:531
-5.7859,-7.246,1.6549,-0.2587,-0.2789,0.0988,0.0123,-0.0081,0.0224,703,2019-08-07 16:48:13:536
-5.7859,-7.246,1.6549,-0.2587,-0.2789,0.0988,0.0059,0.0079,0.0181,709,2019-08-07 16:48:13:542
-5.7907,-7.1792,1.6219,-0.2587,-0.2789,0.0988,0.0059,0.0079,0.0181,713,2019-08-07 16:48:13:546
-5.7907,-7.1792,1.6219,-0.2587,-0.2789,0.0988,0.008,0.0186,0.015,718,2019-08-07 16:48:13:551
-5.7907,-7.1792,1.6219,-0.2236,-0.3386,0.0884,0.008,0.0186,0.015,722,2019-08-07 16:48:13:555
-5.8337,-7.1792,1.6313,-0.2236,-0.3386,0.0884,0.0102,0.025,0.015,728,2019-08-07 16:48:13:561
-5.8337,-7.1792,1.6313,-0.2236,-0.3386,0.0884,0.0102,0.025,0.015,733,2019-08-07 16:48:13:566
-5.8337,-7.1792,1.6313,-0.2236,-0.3386,0.0884,0.007,0.0346,0.015,737,2019-08-07 16:48:13:570
-5.829,-7.1362,1.6454,-0.2224,-0.3839,0.105,0.007,0.0346,0.015,743,2019-08-07 16:48:13:576
-5.829,-7.1362,1.6454,-0.2224,-0.3839,0.105,0.0027,0.0303,0.0128,748,2019-08-07 16:48:13:581
-5.829,-7.1362,1.6454,-0.2224,-0.3839,0.105,0.0027,0.0303,0.0128,753,2019-08-07 16:48:13:586
-5.8816,-7.1457,1.636,-0.2224,-0.3839,0.105,-0.0069,0.0175,0.0107,758,2019-08-07 16:48:13:591
-5.8816,-7.1457,1.636,-0.1921,-0.3439,0.0121,-0.0069,0.0175,0.0107,763,2019-08-07 16:48:13:596
-5.8816,-7.1457,1.636,-0.1921,-0.3439,0.0121,-0.0069,0.0175,0.0107,768,2019-08-07 16:48:13:601
-5.829,-7.1887,1.7444,-0.1921,-0.3439,0.0121,-0.0026,-0.0059,0.015,773,2019-08-07 16:48:13:606
-5.829,-7.1887,1.7444,-0.1921,-0.3439,0.0121,-0.0026,-0.0059,0.015,778,2019-08-07 16:48:13:611
-5.7668,-7.1601,1.6501,-0.2905,-0.3559,0.0976,0.0038,-0.0155,0.0213,783,2019-08-07 16:48:13:616
-5.7668,-7.1601,1.6501,-0.2905,-0.3559,0.0976,0.0038,-0.0155,0.0213,787,2019-08-07 16:48:13:620
-5.7668,-7.1601,1.6501,-0.2905,-0.3559,0.0976,0.0091,-0.0134,0.0245,793,2019-08-07 16:48:13:626
-5.7094,-7.1839,1.636,-0.2905,-0.3559,0.0976,0.0091,-0.0134,0.0245,798,2019-08-07 16:48:13:631
-5.7094,-7.1839,1.636,-0.2888,-0.3767,0.147,0.0102,0.009,0.0288,803,2019-08-07 16:48:13:636
-5.7094,-7.1839,1.636,-0.2888,-0.3767,0.147,0.0102,0.009,0.0288,807,2019-08-07 16:48:13:640
-5.7764,-7.1362,1.6219,-0.2816,-0.3605,0.0856,0.007,0.0228,0.0331,814,2019-08-07 16:48:13:647
-5.7764,-7.1362,1.6219,-0.2816,-0.3605,0.0856,0.007,0.0228,0.0331,818,2019-08-07 16:48:13:651
-5.8674,-7.1935,1.6784,-0.2816,-0.3605,0.0856,0.007,0.0228,0.0331,822,2019-08-07 16:48:13:655
-5.8674,-7.1935,1.6784,-0.2816,-0.3605,0.0856,0.0048,0.0292,0.0331,828,2019-08-07 16:48:13:661
-5.8674,-7.1935,1.6784,-0.1633,-0.2463,0.1069,0.0048,0.0292,0.0331,833,2019-08-07 16:48:13:666
-5.8674,-7.2317,1.6124,-0.1633,-0.2463,0.1069,0.0059,0.0292,0.0299,837,2019-08-07 16:48:13:670
-5.8674,-7.2317,1.6124,-0.1633,-0.2463,0.1069,0.0059,0.0292,0.0299,843,2019-08-07 16:48:13:676
-5.92,-7.2555,1.5983,-0.1633,-0.2463,0.1069,0.0048,0.0346,0.0213,848,2019-08-07 16:48:13:681
-5.92,-7.2555,1.5983,-0.1015,-0.2525,0.1129,0.0048,0.0346,0.0213,853,2019-08-07 16:48:13:686
-5.92,-7.2555,1.5983,-0.1015,-0.2525,0.1129,6.0E-4,0.0356,0.0118,858,2019-08-07 16:48:13:691
-5.9727,-7.2364,1.5983,-0.1176,-0.2182,0.0916,6.0E-4,0.0356,0.0118,864,2019-08-07 16:48:13:697
-5.9727,-7.2364,1.5983,-0.1176,-0.2182,0.0916,-0.0026,0.0346,0.0075,868,2019-08-07 16:48:13:701
-5.9392,-7.2794,1.6454,-0.1176,-0.2182,0.0916,-0.0026,0.0346,0.0075,873,2019-08-07 16:48:13:706
-5.9392,-7.2794,1.6454,-0.1176,-0.2182,0.0916,-0.0016,0.0356,-0.0032,878,2019-08-07 16:48:13:711
-5.9392,-7.2794,1.6454,-0.1147,-0.2178,0.0632,-0.0016,0.0356,-0.0032,882,2019-08-07 16:48:13:715
-5.9584,-7.2698,1.6501,-0.1147,-0.2178,0.0632,-5.0E-4,0.0292,-0.0095,888,2019-08-07 16:48:13:721
-5.9584,-7.2698,1.6501,-0.1147,-0.2178,0.0632,-5.0E-4,0.0292,-0.0095,892,2019-08-07 16:48:13:725
-5.9871,-7.2364,1.7067,-0.1147,-0.2178,0.0632,0.0048,0.0164,-0.0106,898,2019-08-07 16:48:13:731
-5.9871,-7.2364,1.7067,-0.1289,-0.3092,0.0465,0.0048,0.0164,-0.0106,903,2019-08-07 16:48:13:736
-5.9871,-7.2364,1.7067,-0.1289,-0.3092,0.0465,0.0048,0.0164,-0.0106,907,2019-08-07 16:48:13:740
-5.9345,-7.16,1.6925,-0.1289,-0.3092,0.0465,0.0112,5.0E-4,-0.0085,913,2019-08-07 16:48:13:746
-5.9345,-7.16,1.6925,-0.1289,-0.3092,0.0465,0.0176,-0.0113,-0.0064,918,2019-08-07 16:48:13:751
-5.9345,-7.1218,1.7255,-0.1473,-0.3807,0.0115,0.0176,-0.0113,-0.0064,923,2019-08-07 16:48:13:756
-5.9297,-7.1218,1.7255,-0.1473,-0.3807,0.0115,0.0176,-0.0113,-0.0064,927,2019-08-07 16:48:13:760
-5.9297,-7.1218,1.7255,-0.1473,-0.3807,0.0115,0.0198,-0.0208,-0.0042,933,2019-08-07 16:48:13:766
-5.901,-7.0693,1.6312,-0.1473,-0.3807,0.0115,0.0198,-0.0208,-0.0042,938,2019-08-07 16:48:13:771
-5.901,-7.0693,1.6312,-0.1473,-0.3807,0.0115,0.0134,-0.0272,-0.0053,943,2019-08-07 16:48:13:776
-5.858,-7.1171,1.5935,-0.2469,-0.3897,0.0924,0.0144,-0.0134,-0.0053,949,2019-08-07 16:48:13:782
-5.858,-7.1171,1.5935,-0.2469,-0.3897,0.0924,0.0144,-0.0134,-0.0053,952,2019-08-07 16:48:13:785
-5.858,-7.1171,1.5935,-0.2469,-0.3897,0.0924,0.0144,-0.0134,-0.0053,958,2019-08-07 16:48:13:791
-5.7958,-7.1266,1.6501,-0.2469,-0.3897,0.0924,0.0123,5.0E-4,-0.0021,963,2019-08-07 16:48:13:796
-5.7958,-7.1266,1.6501,-0.2272,-0.3609,0.1706,0.0123,5.0E-4,-0.0021,967,2019-08-07 16:48:13:800
-5.7958,-7.1266,1.6501,-0.2272,-0.3609,0.1706,0.007,0.0196,-0.0064,973,2019-08-07 16:48:13:806
-5.7958,-7.1696,1.5841,-0.2272,-0.3609,0.1706,0.007,0.0196,-0.0064,978,2019-08-07 16:48:13:811
-5.7958,-7.1696,1.5841,-0.2272,-0.3609,0.1706,-0.0016,0.0399,-0.0074,983,2019-08-07 16:48:13:816
-5.8485,-7.1553,1.6548,-0.1987,-0.3566,0.1066,-0.0016,0.0399,-0.0074,987,2019-08-07 16:48:13:820
-5.8485,-7.1553,1.6548,-0.1987,-0.3566,0.1066,0.0016,0.0537,-0.0085,993,2019-08-07 16:48:13:826
-5.8485,-7.1553,1.6548,-0.1987,-0.3566,0.1066,0.0016,0.0537,-0.0085,998,2019-08-07 16:48:13:831
-5.8772,-7.1696,1.6642,-0.1987,-0.3566,0.1066,0.0016,0.0505,-0.0053,1003,2019-08-07 16:48:13:836
-5.8772,-7.1696,1.6642,-0.1898,-0.3287,0.049,0.0016,0.0505,-0.0053,1008,2019-08-07 16:48:13:841
-5.8868,-7.1409,1.6784,-0.1898,-0.3287,0.049,0.0048,0.0441,-0.0042,1014,2019-08-07 16:48:13:847
-5.8868,-7.1409,1.6784,-0.1898,-0.3287,0.049,0.0048,0.0441,-0.0042,1018,2019-08-07 16:48:13:851
-5.8868,-7.1409,1.6784,-0.1898,-0.3287,0.049,0.0048,0.0441,-0.0042,1022,2019-08-07 16:48:13:855
-5.8916,-7.1027,1.7349,-0.1862,-0.4002,-0.002,0.0048,0.0143,-0.001,1028,2019-08-07 16:48:13:861
-5.8916,-7.1027,1.7349,-0.1862,-0.4002,-0.002,0.0048,0.0143,-0.001,1032,2019-08-07 16:48:13:865
-5.8964,-7.1648,1.7396,-0.1862,-0.4002,-0.002,6.0E-4,-0.0123,0.0022,1038,2019-08-07 16:48:13:871
-5.8964,-7.1648,1.7396,-0.1862,-0.4002,-0.002,6.0E-4,-0.0123,0.0022,1043,2019-08-07 16:48:13:876
-5.8964,-7.1648,1.7396,-0.2011,-0.323,0.0323,-0.0058,-0.0304,-0.001,1047,2019-08-07 16:48:13:880
-5.9012,-7.1791,1.7019,-0.2011,-0.323,0.0323,-0.0058,-0.0304,-0.001,1053,2019-08-07 16:48:13:886
-5.9012,-7.1791,1.7019,-0.2011,-0.323,0.0323,-0.0058,-0.0315,-0.001,1057,2019-08-07 16:48:13:890
-5.8438,-7.203,1.5982,-0.2011,-0.323,0.0323,-0.0058,-0.0315,-0.001,1063,2019-08-07 16:48:13:896
-5.8438,-7.203,1.5982,-0.2528,-0.3089,0.1481,-0.0058,-0.0315,-0.001,1068,2019-08-07 16:48:13:901
-5.8438,-7.203,1.5982,-0.2528,-0.3089,0.1481,-5.0E-4,-0.0081,-0.0042,1073,2019-08-07 16:48:13:906
-5.8246,-7.2078,1.5746,-0.2528,-0.3089,0.1481,-5.0E-4,-0.0081,-0.0042,1078,2019-08-07 16:48:13:911
-5.8246,-7.2078,1.5746,-0.2528,-0.3089,0.1481,6.0E-4,0.0196,-0.0085,1082,2019-08-07 16:48:13:915
-5.8486,-7.1457,1.6218,-0.2282,-0.3431,0.1376,6.0E-4,0.0196,-0.0085,1088,2019-08-07 16:48:13:921
-5.8486,-7.1457,1.6218,-0.2282,-0.3431,0.1376,-0.0037,0.0388,-0.0032,1092,2019-08-07 16:48:13:925
-5.8486,-7.1457,1.6218,-0.2282,-0.3431,0.1376,-0.0037,0.0388,-0.0032,1098,2019-08-07 16:48:13:931
-5.8534,-7.1648,1.6171,-0.2282,-0.3431,0.1376,-0.0047,0.0473,-0.0106,1103,2019-08-07 16:48:13:936
-5.8534,-7.1648,1.6171,-0.1953,-0.3344,0.1503,-0.0047,0.0473,-0.0106,1108,2019-08-07 16:48:13:941
-5.8534,-7.1648,1.6171,-0.1953,-0.3344,0.1503,-0.0047,0.0473,-0.0106,1113,2019-08-07 16:48:13:946
-5.8821,-7.2077,1.5699,-0.1953,-0.3344,0.1503,-0.0069,0.0409,-0.0085,1117,2019-08-07 16:48:13:950
-5.8821,-7.2077,1.5699,-0.1953,-0.3344,0.1503,-0.0069,0.0409,-0.0085,1123,2019-08-07 16:48:13:956
-5.8391,-7.1839,1.7019,-0.2391,-0.3207,0.0223,0.0048,0.0239,-0.0021,1128,2019-08-07 16:48:13:961
-5.8391,-7.1839,1.7019,-0.2391,-0.3207,0.0223,0.0048,0.0239,-0.0021,1133,2019-08-07 16:48:13:966
-5.8391,-7.1839,1.7019,-0.2391,-0.3207,0.0223,0.0112,0.0026,0.0032,1138,2019-08-07 16:48:13:971
-5.8726,-7.2221,1.7302,-0.2391,-0.3207,0.0223,0.0112,0.0026,0.0032,1143,2019-08-07 16:48:13:976
-5.8726,-7.2221,1.7302,-0.1348,-0.3387,0.0049,0.0134,-0.0262,0.0118,1148,2019-08-07 16:48:13:981
-5.9157,-7.203,1.6359,-0.1348,-0.3387,0.0049,0.0134,-0.0262,0.0118,1153,2019-08-07 16:48:13:986
-5.9157,-7.203,1.6359,-0.1348,-0.3387,0.0049,0.0134,-0.0262,0.0118,1158,2019-08-07 16:48:13:991
-5.9157,-7.203,1.6359,-0.1348,-0.3387,0.0049,0.007,-0.0507,0.0224,1163,2019-08-07 16:48:13:996
-5.8362,-7.1694,1.5931,-0.2493,-0.3219,0.1765,0.007,-0.0507,0.0224,1167,2019-08-07 16:48:14:000
-5.8362,-7.1694,1.5931,-0.2493,-0.3219,0.1765,0.008,-0.0496,0.0192,1173,2019-08-07 16:48:14:006
-5.8027,-7.2219,1.5884,-0.2493,-0.3219,0.1765,0.008,-0.0496,0.0192,1178,2019-08-07 16:48:14:011
-5.8027,-7.2219,1.5884,-0.2493,-0.3219,0.1765,0.0144,-0.0262,0.0171,1183,2019-08-07 16:48:14:016
-5.8027,-7.2219,1.5884,-0.284,-0.291,0.1346,0.0144,-0.0262,0.0171,1187,2019-08-07 16:48:14:020
-5.7932,-7.198,1.5931,-0.284,-0.291,0.1346,0.024,0.0111,0.0139,1193,2019-08-07 16:48:14:026
-5.7932,-7.198,1.5931,-0.284,-0.291,0.1346,0.024,0.0111,0.0139,1198,2019-08-07 16:48:14:031
-5.8794,-7.1598,1.5695,-0.284,-0.291,0.1346,0.0251,0.0516,0.0107,1203,2019-08-07 16:48:14:036
-5.8794,-7.1598,1.5695,-0.284,-0.291,0.1346,0.0251,0.0516,0.0107,1208,2019-08-07 16:48:14:041
-5.8794,-7.1598,1.5695,-0.129,-0.3367,0.1425,0.0198,0.075,0.0043,1212,2019-08-07 16:48:14:045
-5.9847,-7.1312,1.692,-0.129,-0.3367,0.1425,0.0198,0.075,0.0043,1218,2019-08-07 16:48:14:051
-5.9847,-7.1312,1.692,-0.129,-0.3367,0.1425,0.0198,0.0665,0.0043,1223,2019-08-07 16:48:14:056
-6.0373,-7.0548,1.7439,-0.0328,-0.4155,-0.0274,0.0198,0.0665,0.0043,1228,2019-08-07 16:48:14:061
-6.0373,-7.0548,1.7439,-0.0328,-0.4155,-0.0274,0.0229,0.0367,0.0,1233,2019-08-07 16:48:14:066
-6.0326,-7.0882,1.7533,-0.0328,-0.4155,-0.0274,0.0229,0.0367,0.0,1238,2019-08-07 16:48:14:071
-6.0326,-7.0882,1.7533,-0.0328,-0.4155,-0.0274,0.0198,-0.0081,0.0,1243,2019-08-07 16:48:14:076
-6.0326,-7.0882,1.7533,-0.0328,-0.4155,-0.0274,0.0198,-0.0081,0.0,1248,2019-08-07 16:48:14:081
-5.9561,-7.1025,1.7344,-0.0872,-0.399,-0.0152,0.0198,-0.0081,0.0,1252,2019-08-07 16:48:14:085
-5.9561,-7.1025,1.7344,-0.0872,-0.399,-0.0152,0.0198,-0.0464,0.0085,1258,2019-08-07 16:48:14:091
-5.9561,-7.1025,1.7344,-0.2164,-0.3502,-0.0014,0.0198,-0.0464,0.0085,1263,2019-08-07 16:48:14:096
-5.8604,-7.1598,1.7439,-0.2164,-0.3502,-0.0014,0.0091,-0.072,0.0096,1268,2019-08-07 16:48:14:101
-5.8604,-7.1598,1.7439,-0.2164,-0.3502,-0.0014,0.0091,-0.072,0.0096,1272,2019-08-07 16:48:14:105
-5.7792,-7.1789,1.7203,-0.2164,-0.3502,-0.0014,0.0027,-0.0869,0.0181,1278,2019-08-07 16:48:14:111
-5.7792,-7.1789,1.7203,-0.3207,-0.3149,0.0567,0.0027,-0.0869,0.0181,1282,2019-08-07 16:48:14:115
-5.7792,-7.1789,1.7203,-0.3207,-0.3149,0.0567,-0.0037,-0.0677,0.0235,1288,2019-08-07 16:48:14:121
-5.6739,-7.1789,1.5836,-0.3207,-0.3149,0.0567,-0.0037,-0.0677,0.0235,1293,2019-08-07 16:48:14:126
-5.6739,-7.1789,1.5836,-0.3207,-0.3149,0.0567,-0.0079,-0.024,0.0181,1297,2019-08-07 16:48:14:130
-5.674,-7.2362,1.56,-0.4742,-0.2988,0.2281,-0.0079,-0.024,0.0181,1303,2019-08-07 16:48:14:136
-5.674,-7.2362,1.56,-0.4742,-0.2988,0.2281,-0.0079,-0.024,0.0181,1308,2019-08-07 16:48:14:141
-5.674,-7.2362,1.56,-0.4742,-0.2988,0.2281,-0.0069,0.0346,0.0128,1312,2019-08-07 16:48:14:145
-5.7266,-7.2266,1.5553,-0.4742,-0.2988,0.2281,-0.0069,0.0346,0.0128,1318,2019-08-07 16:48:14:151
-5.7266,-7.2266,1.5553,-0.2378,-0.2786,0.1522,-0.0047,0.0686,0.0085,1322,2019-08-07 16:48:14:155
-5.9228,-7.1836,1.6354,-0.2378,-0.2786,0.1522,-0.0047,0.0686,0.0085,1328,2019-08-07 16:48:14:161
-5.9228,-7.1836,1.6354,-0.2378,-0.2786,0.1522,-5.0E-4,0.0868,0.0064,1333,2019-08-07 16:48:14:166
-5.9228,-7.1836,1.6354,-0.2378,-0.2786,0.1522,-5.0E-4,0.0868,0.0064,1338,2019-08-07 16:48:14:171
-6.0999,-7.1073,1.692,0.0014,-0.3774,0.0472,-5.0E-4,0.0868,0.0064,1342,2019-08-07 16:48:14:175
-6.0999,-7.1073,1.692,0.0014,-0.3774,0.0472,0.0016,0.0708,0.0043,1348,2019-08-07 16:48:14:181
-6.1095,-7.112,1.6684,0.0014,-0.3774,0.0472,0.0016,0.0708,0.0043,1352,2019-08-07 16:48:14:185
-6.1095,-7.112,1.6684,0.0014,-0.3774,0.0472,-0.0079,0.0271,-0.001,1358,2019-08-07 16:48:14:191
-6.1095,-7.112,1.6684,0.0123,-0.3379,-0.0113,-0.0079,0.0271,-0.001,1363,2019-08-07 16:48:14:196
-6.1143,-7.1072,1.6731,0.0123,-0.3379,-0.0113,-0.0122,-0.0155,0.0,1367,2019-08-07 16:48:14:200
-6.1143,-7.1072,1.6731,0.0123,-0.3379,-0.0113,-0.0122,-0.0155,0.0,1373,2019-08-07 16:48:14:206
-5.9661,-7.1979,1.6259,0.0123,-0.3379,-0.0113,-0.0101,-0.0475,0.0064,1377,2019-08-07 16:48:14:210
-5.9661,-7.1979,1.6259,-0.1985,-0.2704,0.0563,-0.0101,-0.0475,0.0064,1383,2019-08-07 16:48:14:216
-5.9661,-7.1979,1.6259,-0.1985,-0.2704,0.0563,-0.0015,-0.0592,0.0085,1388,2019-08-07 16:48:14:221
-5.8656,-7.1932,1.6495,-0.1985,-0.2704,0.0563,-0.0015,-0.0592,0.0085,1393,2019-08-07 16:48:14:226
-5.8656,-7.1932,1.6495,-0.1985,-0.2704,0.0563,0.0123,-0.0475,0.0128,1398,2019-08-07 16:48:14:231
-5.7317,-7.2457,1.5741,-0.3268,-0.2551,0.1671,0.0123,-0.0475,0.0128,1403,2019-08-07 16:48:14:236
-5.7317,-7.2457,1.5741,-0.3268,-0.2551,0.1671,0.0123,-0.0475,0.0128,1408,2019-08-07 16:48:14:241
-5.7317,-7.2457,1.5741,-0.3268,-0.2551,0.1671,0.0166,-0.0219,0.0075,1413,2019-08-07 16:48:14:246
-5.7557,-7.2027,1.6118,-0.3268,-0.2551,0.1671,0.0166,-0.0219,0.0075,1418,2019-08-07 16:48:14:251
-5.7557,-7.2027,1.6118,-0.2885,-0.3017,0.1434,0.024,0.0101,0.0085,1423,2019-08-07 16:48:14:256
-5.7557,-7.2027,1.6118,-0.2885,-0.3017,0.1434,0.024,0.0101,0.0085,1428,2019-08-07 16:48:14:261
-5.8418,-7.1741,1.5835,-0.2885,-0.3017,0.1434,0.0261,0.0335,0.0032,1433,2019-08-07 16:48:14:266
-5.8418,-7.1741,1.5835,-0.2885,-0.3017,0.1434,0.0261,0.0335,0.0032,1438,2019-08-07 16:48:14:271
-5.9376,-7.1168,1.6919,-0.1658,-0.3623,0.0541,0.0315,0.0356,-0.001,1443,2019-08-07 16:48:14:276
-5.9376,-7.1168,1.6919,-0.1658,-0.3623,0.0541,0.0315,0.0356,-0.001,1449,2019-08-07 16:48:14:282
-5.9376,-7.1168,1.6919,-0.1658,-0.3623,0.0541,0.0251,0.0196,-0.0032,1453,2019-08-07 16:48:14:286
-5.9855,-7.0881,1.706,-0.1658,-0.3623,0.0541,0.0251,0.0196,-0.0032,1458,2019-08-07 16:48:14:291
-5.9855,-7.0881,1.706,-0.1431,-0.3945,0.1069,0.0251,0.0196,-0.0032,1463,2019-08-07 16:48:14:296
-5.9855,-7.0881,1.706,-0.1431,-0.3945,0.1069,0.0134,0.0047,-0.0074,1467,2019-08-07 16:48:14:300
-5.9568,-7.0881,1.6542,-0.1431,-0.3945,0.1069,0.0134,0.0047,-0.0074,1473,2019-08-07 16:48:14:306
-5.9568,-7.0881,1.6542,-0.1431,-0.3945,0.1069,0.0027,-0.008,-0.0074,1477,2019-08-07 16:48:14:310
-5.9138,-7.1311,1.6777,-0.1904,-0.3468,0.0708,0.0027,-0.008,-0.0074,1483,2019-08-07 16:48:14:316
-5.9138,-7.1311,1.6777,-0.1904,-0.3468,0.0708,-0.0015,-0.0208,-0.001,1488,2019-08-07 16:48:14:321
-5.9138,-7.1311,1.6777,-0.1904,-0.3468,0.0708,-0.0015,-0.0208,-0.001,1493,2019-08-07 16:48:14:326
-5.7799,-7.1502,1.6259,-0.1904,-0.3468,0.0708,-0.0037,-0.0272,0.0021,1498,2019-08-07 16:48:14:331
-5.7799,-7.1502,1.6259,-0.3375,-0.2612,0.13,-0.0037,-0.0272,0.0021,1503,2019-08-07 16:48:14:336
-5.7799,-7.1502,1.6259,-0.3375,-0.2612,0.13,-0.0037,-0.0272,0.0021,1508,2019-08-07 16:48:14:341
-5.732,-7.174,1.6023,-0.3375,-0.2612,0.13,-0.0047,-0.0187,0.0075,1513,2019-08-07 16:48:14:346
-5.732,-7.174,1.6023,-0.3375,-0.2612,0.13,-0.0047,-0.0187,0.0075,1518,2019-08-07 16:48:14:351
-5.7465,-7.2027,1.6211,-0.3567,-0.2753,0.1304,-0.0015,0.0047,0.0117,1523,2019-08-07 16:48:14:356
-5.7465,-7.2027,1.6211,-0.3567,-0.2753,0.1304,-0.0015,0.0047,0.0117,1528,2019-08-07 16:48:14:361
-5.7465,-7.2027,1.6211,-0.3567,-0.2753,0.1304,0.0091,0.0218,0.0128,1533,2019-08-07 16:48:14:366
-5.7752,-7.1693,1.6683,-0.3567,-0.2753,0.1304,0.0091,0.0218,0.0128,1538,2019-08-07 16:48:14:371
-5.7752,-7.1693,1.6683,-0.2967,-0.2692,0.1236,0.0112,0.041,0.0139,1543,2019-08-07 16:48:14:376
-5.9523,-7.1692,1.6777,-0.2967,-0.2692,0.1236,0.0112,0.041,0.0139,1549,2019-08-07 16:48:14:382
-5.9523,-7.1692,1.6777,-0.2967,-0.2692,0.1236,0.0112,0.041,0.0139,1553,2019-08-07 16:48:14:386
-5.9523,-7.1692,1.6777,-0.2967,-0.2692,0.1236,0.0123,0.0569,0.0128,1558,2019-08-07 16:48:14:391
-6.0097,-7.1215,1.6918,-0.1332,-0.3672,0.0297,0.0123,0.0569,0.0128,1562,2019-08-07 16:48:14:395
-6.0097,-7.1215,1.6918,-0.1332,-0.3672,0.0297,0.0155,0.0378,0.0075,1568,2019-08-07 16:48:14:401
-6.0911,-7.1215,1.6211,-0.1332,-0.3672,0.0297,0.0155,0.0378,0.0075,1573,2019-08-07 16:48:14:406
-6.0911,-7.1215,1.6211,-0.1332,-0.3672,0.0297,0.0123,0.0196,0.0,1578,2019-08-07 16:48:14:411
-6.0911,-7.1215,1.6211,-0.0349,-0.3896,0.1319,0.0123,0.0196,0.0,1583,2019-08-07 16:48:14:416
-6.0816,-7.0785,1.6541,-0.0349,-0.3896,0.1319,0.0091,5.0E-4,-0.0085,1588,2019-08-07 16:48:14:421
-6.0816,-7.0785,1.6541,-0.0349,-0.3896,0.1319,0.0091,5.0E-4,-0.0085,1592,2019-08-07 16:48:14:425
-5.9811,-7.0785,1.6776,-0.0349,-0.3896,0.1319,0.0134,-0.0144,-0.0053,1598,2019-08-07 16:48:14:431
-5.9811,-7.0785,1.6776,-0.226,-0.3795,0.097,0.0134,-0.0144,-0.0053,1603,2019-08-07 16:48:14:436
-5.9811,-7.0785,1.6776,-0.226,-0.3795,0.097,0.0123,-0.0166,-0.0085,1608,2019-08-07 16:48:14:441
-5.852,-7.1072,1.6399,-0.226,-0.3795,0.097,0.0123,-0.0166,-0.0085,1613,2019-08-07 16:48:14:446
-5.852,-7.1072,1.6399,-0.2205,-0.3606,0.1177,0.008,0.0015,-0.0106,1618,2019-08-07 16:48:14:451
-5.852,-7.0976,1.6541,-0.2205,-0.3606,0.1177,0.008,0.0015,-0.0106,1623,2019-08-07 16:48:14:456
-5.852,-7.0976,1.6541,-0.2205,-0.3606,0.1177,0.008,0.0015,-0.0106,1628,2019-08-07 16:48:14:461
-5.852,-7.0976,1.6541,-0.2205,-0.3606,0.1177,0.0112,0.009,-0.0032,1633,2019-08-07 16:48:14:466
-5.8329,-7.1024,1.753,-0.2196,-0.423,-0.013,0.0112,0.009,-0.0032,1637,2019-08-07 16:48:14:470
-5.8329,-7.1024,1.753,-0.2196,-0.423,-0.013,0.024,0.0037,0.0053,1643,2019-08-07 16:48:14:476
-5.8329,-7.1024,1.753,-0.2196,-0.423,-0.013,0.024,0.0037,0.0053,1648,2019-08-07 16:48:14:481
-5.7995,-7.1167,1.6446,-0.2196,-0.423,-0.013,0.0198,-0.0049,0.0096,1652,2019-08-07 16:48:14:485
-5.7995,-7.1167,1.6446,-0.2349,-0.3642,0.0894,0.0198,-0.0049,0.0096,1658,2019-08-07 16:48:14:491
-5.8856,-7.0881,1.6587,-0.2349,-0.3642,0.0894,0.0198,-0.0049,0.0096,1663,2019-08-07 16:48:14:496
-5.8856,-7.0881,1.6587,-0.2349,-0.3642,0.0894,0.0102,-0.0049,0.0075,1668,2019-08-07 16:48:14:501
-5.8856,-7.0881,1.6587,-0.2349,-0.3642,0.0894,0.0102,-0.0049,0.0075,1673,2019-08-07 16:48:14:506
-5.857,-7.1119,1.6682,-0.2556,-0.3575,0.087,0.0091,0.0037,0.0117,1678,2019-08-07 16:48:14:511
-5.857,-7.1119,1.6682,-0.2556,-0.3575,0.087,0.0091,0.0037,0.0117,1683,2019-08-07 16:48:14:516
-5.857,-7.1119,1.6682,-0.2556,-0.3575,0.087,0.0091,0.0037,0.0117,1688,2019-08-07 16:48:14:521
-5.9384,-7.131,1.6399,-0.2556,-0.3575,0.087,0.007,0.0239,0.0021,1693,2019-08-07 16:48:14:526
-5.9384,-7.131,1.6399,-0.2147,-0.3273,0.1002,0.007,0.0239,0.0021,1698,2019-08-07 16:48:14:531
-5.9097,-7.0928,1.621,-0.2147,-0.3273,0.1002,6.0E-4,0.0356,0.0011,1703,2019-08-07 16:48:14:536
-5.9097,-7.0928,1.621,-0.2147,-0.3273,0.1002,6.0E-4,0.0356,0.0011,1708,2019-08-07 16:48:14:541
-5.9097,-7.0928,1.621,-0.2147,-0.3273,0.1002,-0.0026,0.0452,-0.0064,1713,2019-08-07 16:48:14:546
-5.9767,-7.1549,1.6681,-0.1398,-0.3127,0.0811,-0.0026,0.0452,-0.0064,1718,2019-08-07 16:48:14:551
-5.9767,-7.1549,1.6681,-0.1398,-0.3127,0.0811,-0.0037,0.0356,-0.0096,1723,2019-08-07 16:48:14:556
-5.9815,-7.2026,1.7105,-0.1398,-0.3127,0.0811,-0.0037,0.0356,-0.0096,1727,2019-08-07 16:48:14:560
-5.9815,-7.2026,1.7105,-0.1398,-0.3127,0.0811,-5.0E-4,0.0207,-0.0128,1733,2019-08-07 16:48:14:566
-5.9815,-7.2026,1.7105,-0.1353,-0.323,0.0344,-5.0E-4,0.0207,-0.0128,1738,2019-08-07 16:48:14:571
-5.9959,-7.1262,1.7105,-0.1353,-0.323,0.0344,-5.0E-4,0.0207,-0.0128,1742,2019-08-07 16:48:14:575
-5.9959,-7.1262,1.7105,-0.1353,-0.323,0.0344,-0.0037,-0.0027,-0.0074,1749,2019-08-07 16:48:14:582
-5.9433,-7.1549,1.7812,-0.1353,-0.323,0.0344,-0.0015,-0.0272,-0.0021,1753,2019-08-07 16:48:14:586
-5.9433,-7.1549,1.7812,-0.1729,-0.2946,-0.0071,-0.0015,-0.0272,-0.0021,1758,2019-08-07 16:48:14:591
-5.9433,-7.1549,1.7812,-0.1729,-0.2946,-0.0071,-0.0015,-0.0272,-0.0021,1762,2019-08-07 16:48:14:595
-5.8286,-7.1358,1.7529,-0.1729,-0.2946,-0.0071,-0.0026,-0.0464,0.0043,1768,2019-08-07 16:48:14:601
-5.8286,-7.1358,1.7529,-0.1729,-0.2946,-0.0071,-0.0026,-0.0464,0.0043,1773,2019-08-07 16:48:14:606
-5.7473,-7.1549,1.5974,-0.3442,-0.2987,0.1261,-0.0047,-0.0496,0.0117,1777,2019-08-07 16:48:14:610
-5.7473,-7.1549,1.5974,-0.3442,-0.2987,0.1261,-0.0047,-0.0496,0.0117,1783,2019-08-07 16:48:14:616
-5.7473,-7.1549,1.5974,-0.3442,-0.2987,0.1261,-0.0069,-0.0262,0.0117,1788,2019-08-07 16:48:14:621
-5.7617,-7.1787,1.5832,-0.3442,-0.2987,0.1261,-0.0069,-0.0262,0.0117,1793,2019-08-07 16:48:14:626
-5.7617,-7.1787,1.5832,-0.3636,-0.2502,0.1941,6.0E-4,0.0069,0.0117,1798,2019-08-07 16:48:14:631
-5.7617,-7.1787,1.5832,-0.3636,-0.2502,0.1941,6.0E-4,0.0069,0.0117,1803,2019-08-07 16:48:14:636
-5.8526,-7.1692,1.5408,-0.3636,-0.2502,0.1941,0.0059,0.041,0.0064,1808,2019-08-07 16:48:14:641
-5.8526,-7.1692,1.5408,-0.3636,-0.2502,0.1941,0.0059,0.041,0.0064,1812,2019-08-07 16:48:14:645
-5.8526,-7.1692,1.5408,-0.1508,-0.2876,0.142,0.007,0.0676,0.0043,1818,2019-08-07 16:48:14:651
-6.0297,-7.1692,1.6633,-0.1508,-0.2876,0.142,0.007,0.0676,0.0043,1823,2019-08-07 16:48:14:656
-6.0297,-7.1692,1.6633,-0.1508,-0.2876,0.142,0.007,0.0676,0.0043,1828,2019-08-07 16:48:14:661
-6.1972,-7.088,1.7199,-0.1508,-0.2876,0.142,0.0017,0.0655,0.0064,1833,2019-08-07 16:48:14:666
-6.1972,-7.088,1.7199,0.0841,-0.3383,-0.0543,6.0E-4,0.0335,0.0064,1838,2019-08-07 16:48:14:671
-6.1972,-7.088,1.7199,0.0841,-0.3383,-0.0543,6.0E-4,0.0335,0.0064,1843,2019-08-07 16:48:14:676
-6.2068,-7.1596,1.7906,0.0841,-0.3383,-0.0543,6.0E-4,0.0335,0.0064,1848,2019-08-07 16:48:14:681
-6.2068,-7.1596,1.7906,0.0841,-0.3383,-0.0543,0.0102,-0.023,0.0075,1852,2019-08-07 16:48:14:685
-6.1542,-7.3028,2.0357,0.0291,-0.1593,-0.2934,0.0102,-0.023,0.0075,1858,2019-08-07 16:48:14:691
-6.1542,-7.3028,2.0357,0.0291,-0.1593,-0.2934,0.0304,-0.0634,0.0128,1862,2019-08-07 16:48:14:695
-6.1542,-7.3028,2.0357,0.0291,-0.1593,-0.2934,0.0304,-0.0634,0.0128,1868,2019-08-07 16:48:14:701
-6.1016,-7.3505,2.0734,0.0291,-0.1593,-0.2934,0.0475,-0.0933,0.0128,1873,2019-08-07 16:48:14:706
-6.1016,-7.3505,2.0734,-0.0325,-0.0699,-0.3566,0.0475,-0.0933,0.0128,1877,2019-08-07 16:48:14:710
-6.1208,-7.3696,2.1771,-0.0325,-0.0699,-0.3566,0.0688,-0.1135,0.0171,1883,2019-08-07 16:48:14:716
-6.1208,-7.3696,2.1771,-0.0325,-0.0699,-0.3566,0.0688,-0.1135,0.0171,1888,2019-08-07 16:48:14:721
-6.1208,-7.3696,2.1771,-0.0325,-0.0699,-0.3566,0.0688,-0.1135,0.0171,1893,2019-08-07 16:48:14:726
-6.1687,-7.3458,2.2902,0.0742,-0.145,-0.5574,0.0922,-0.1401,0.0203,1898,2019-08-07 16:48:14:731
-6.1687,-7.3458,2.2902,0.0742,-0.145,-0.5574,0.0922,-0.1401,0.0203,1903,2019-08-07 16:48:14:736
-6.1687,-7.3458,2.2902,0.0742,-0.145,-0.5574,0.0997,-0.1721,0.0298,1908,2019-08-07 16:48:14:741
-6.3649,-7.3076,2.5118,0.0742,-0.145,-0.5574,0.0997,-0.1721,0.0298,1912,2019-08-07 16:48:14:745
-6.3649,-7.3076,2.5118,0.4626,-0.1019,-1.0333,0.0943,-0.2147,0.0373,1918,2019-08-07 16:48:14:751
-6.7142,-7.3935,3.0963,0.4626,-0.1019,-1.0333,0.0943,-0.2147,0.0373,1923,2019-08-07 16:48:14:756
-6.7142,-7.3935,3.0963,0.4626,-0.1019,-1.0333,0.0837,-0.268,0.0416,1927,2019-08-07 16:48:14:760
-6.7142,-7.3935,3.0963,0.4626,-0.1019,-1.0333,0.0837,-0.268,0.0416,1933,2019-08-07 16:48:14:766
-7.2979,-7.446,3.7515,1.3151,0.0168,-2.0225,0.0794,-0.35,0.0639,1938,2019-08-07 16:48:14:771
-7.2979,-7.446,3.7515,1.3151,0.0168,-2.0225,0.0794,-0.35,0.0639,1943,2019-08-07 16:48:14:776
-7.7907,-7.4603,4.435,1.3151,0.0168,-2.0225,0.089,-0.4427,0.082,1948,2019-08-07 16:48:14:781
-7.7907,-7.4603,4.435,1.3151,0.0168,-2.0225,0.089,-0.4427,0.082,1953,2019-08-07 16:48:14:786
-7.7907,-7.4603,4.435,1.3151,0.0168,-2.0225,0.089,-0.4427,0.082,1958,2019-08-07 16:48:14:791
-8.6136,-7.4651,6.1272,2.4917,0.0585,-4.1521,0.1444,-0.5854,0.1215,1963,2019-08-07 16:48:14:796
-8.6136,-7.4651,6.1272,2.4917,0.0585,-4.1521,0.1444,-0.5854,0.1215,1968,2019-08-07 16:48:14:801
-8.6136,-7.4651,6.1272,2.4917,0.0585,-4.1521,0.2829,-0.8507,0.1992,1972,2019-08-07 16:48:14:805
-9.6183,-7.3505,8.4841,2.4917,0.0585,-4.1521,0.2829,-0.8507,0.1992,1978,2019-08-07 16:48:14:811
-9.6183,-7.3505,8.4841,3.7876,-0.0968,-7.3009,0.3915,-1.1628,0.2802,1983,2019-08-07 16:48:14:816
-10.3839,-6.9973,10.676,3.7876,-0.0968,-7.3009,0.3915,-1.1628,0.2802,1988,2019-08-07 16:48:14:821
-10.3839,-6.9973,10.676,3.7876,-0.0968,-7.3009,0.4246,-1.5964,0.3579,1993,2019-08-07 16:48:14:826
-10.3839,-6.9973,10.676,3.7876,-0.0968,-7.3009,0.4246,-1.5964,0.3579,1997,2019-08-07 16:48:14:830
-11.3742,-6.138,12.0713,5.2609,-1.1458,-9.6608,0.4246,-1.5964,0.3579,2002,2019-08-07 16:48:14:835
-11.3742,-6.138,12.0713,5.2609,-1.1458,-9.6608,0.3255,-2.2163,0.4474,2008,2019-08-07 16:48:14:841
-12.0489,-5.4267,12.9669,5.2609,-1.1458,-9.6608,0.3255,-2.2163,0.4474,2012,2019-08-07 16:48:14:845
-12.0489,-5.4267,12.9669,5.2609,-1.1458,-9.6608,0.1923,-2.7362,0.5103,2019,2019-08-07 16:48:14:852
-12.0872,-5.355,12.9575,5.9583,-1.8662,-10.2507,0.089,-3.2049,0.5316,2023,2019-08-07 16:48:14:856
-12.0872,-5.355,12.9575,5.9583,-1.8662,-10.2507,0.089,-3.2049,0.5316,2028,2019-08-07 16:48:14:861
-12.0872,-5.355,12.9575,5.9583,-1.8662,-10.2507,0.089,-3.2049,0.5316,2033,2019-08-07 16:48:14:866
-12.3408,-5.756,12.8726,5.9583,-1.8662,-10.2507,0.0677,-3.5735,0.5784,2037,2019-08-07 16:48:14:870
-12.3408,-5.756,12.8726,6.4537,-1.2492,-9.5662,0.0677,-3.5735,0.5784,2043,2019-08-07 16:48:14:876
-12.3408,-5.756,12.8726,6.4537,-1.2492,-9.5662,0.1124,-3.892,0.701,2048,2019-08-07 16:48:14:881
-12.604,-6.1666,12.9386,6.4537,-1.2492,-9.5662,0.1124,-3.892,0.701,2053,2019-08-07 16:48:14:886
-12.604,-6.1666,12.9386,6.4537,-1.2492,-9.5662,0.2147,-4.1455,0.8512,2058,2019-08-07 16:48:14:891
-12.9198,-5.8515,14.1029,7.0002,-0.9855,-10.054,0.2147,-4.1455,0.8512,2063,2019-08-07 16:48:14:896
-12.9198,-5.8515,14.1029,7.0002,-0.9855,-10.054,0.3361,-4.365,1.0131,2068,2019-08-07 16:48:14:901
-12.9198,-5.8515,14.1029,7.0002,-0.9855,-10.054,0.3361,-4.365,1.0131,2072,2019-08-07 16:48:14:905
-13.9915,-4.9206,15.3426,7.0002,-0.9855,-10.054,0.3692,-4.6185,1.2251,2078,2019-08-07 16:48:14:911
-13.9915,-4.9206,15.3426,8.9249,-2.2691,-11.8337,0.3692,-4.6185,1.2251,2083,2019-08-07 16:48:14:916
-13.9915,-4.9206,15.3426,8.9249,-2.2691,-11.8337,0.2786,-5.0872,1.4839,2088,2019-08-07 16:48:14:921
-16.0105,-3.5076,17.1575,8.9249,-2.2691,-11.8337,0.2786,-5.0872,1.4839,2093,2019-08-07 16:48:14:926
-16.0105,-3.5076,17.1575,8.9249,-2.2691,-11.8337,0.0166,-5.6731,1.7066,2097,2019-08-07 16:48:14:930
-17.9912,-2.6005,16.3985,12.4037,-3.9,-11.8262,0.0166,-5.6731,1.7066,2103,2019-08-07 16:48:14:936
-17.9912,-2.6005,16.3985,12.4037,-3.9,-11.8262,0.0166,-5.6731,1.7066,2108,2019-08-07 16:48:14:941
-17.9912,-2.6005,16.3985,12.4037,-3.9,-11.8262,-0.368,-6.3879,1.8919,2112,2019-08-07 16:48:14:945
-18.6849,-3.0588,14.2113,12.4037,-3.9,-11.8262,-0.368,-6.3879,1.8919,2118,2019-08-07 16:48:14:951
-18.6849,-3.0588,14.2113,13.7039,-2.9323,-7.3502,-0.7888,-7.353,2.0027,2123,2019-08-07 16:48:14:956
-18.6849,-3.0588,14.2113,13.7039,-2.9323,-7.3502,-0.7888,-7.353,2.0027,2127,2019-08-07 16:48:14:960
-18.1204,-4.0852,11.4066,13.7039,-2.9323,-7.3502,-0.9731,-7.9773,2.1188,2133,2019-08-07 16:48:14:966
-18.1204,-4.0852,11.4066,13.7039,-2.9323,-7.3502,-0.9731,-7.9773,2.1188,2138,2019-08-07 16:48:14:971
-16.4269,-4.8347,8.9931,12.1715,-1.4359,-2.7635,-1.102,-8.1637,2.2317,2142,2019-08-07 16:48:14:975
-16.4269,-4.8347,8.9931,12.1715,-1.4359,-2.7635,-1.102,-8.1637,2.2317,2149,2019-08-07 16:48:14:982
-16.4269,-4.8347,8.9931,12.1715,-1.4359,-2.7635,-1.102,-8.1637,2.2317,2152,2019-08-07 16:48:14:985
-16.4269,-4.8347,8.9931,12.1715,-1.4359,-2.7635,-1.4386,-7.712,2.334,2158,2019-08-07 16:48:14:991
-15.5179,-4.1138,7.4752,12.055,-2.3685,-0.6936,-1.4386,-7.712,2.334,2163,2019-08-07 16:48:14:996
-15.5179,-4.1138,7.4752,12.055,-2.3685,-0.6936,-1.7518,-7.2561,2.4022,2168,2019-08-07 16:48:15:001
-16.402,-2.8918,6.4903,12.055,-2.3685,-0.6936,-1.7518,-7.2561,2.4022,2173,2019-08-07 16:48:15:006
-16.402,-2.8918,6.4903,12.055,-2.3685,-0.6936,-2.0511,-6.8992,2.4693,2178,2019-08-07 16:48:15:011
-16.402,-2.8918,6.4903,13.7855,-3.9274,1.3767,-2.0511,-6.8992,2.4693,2183,2019-08-07 16:48:15:016
-16.78,-2.1137,4.7226,13.7855,-3.9274,1.3767,-2.0511,-6.8992,2.4693,2188,2019-08-07 16:48:15:021
-16.78,-2.1137,4.7226,13.7855,-3.9274,1.3767,-2.3526,-6.6074,2.53,2193,2019-08-07 16:48:15:026
-16.78,-2.1137,4.7226,13.7855,-3.9274,1.3767,-2.3526,-6.6074,2.53,2199,2019-08-07 16:48:15:032
-16.1437,-1.3164,3.0162,13.5318,-5.3675,4.139,-2.5209,-6.4039,2.5684,2203,2019-08-07 16:48:15:036
-16.1437,-1.3164,3.0162,13.5318,-5.3675,4.139,-2.5209,-6.4039,2.5684,2208,2019-08-07 16:48:15:041
-15.6462,-0.376,2.262,13.5318,-5.3675,4.139,-2.5933,-6.1045,2.5801,2213,2019-08-07 16:48:15:046
-15.6462,-0.376,2.262,13.5318,-5.3675,4.139,-2.5933,-6.1045,2.5801,2218,2019-08-07 16:48:15:051
-15.6462,-0.376,2.262,14.5447,-6.6897,5.4049,-2.6178,-5.9266,2.6227,2222,2019-08-07 16:48:15:055
-16.8614,-0.0705,1.3616,14.5447,-6.6897,5.4049,-2.6178,-5.9266,2.6227,2228,2019-08-07 16:48:15:061
-16.8614,-0.0705,1.3616,16.2672,-6.7915,5.8177,-2.6423,-6.0587,2.6994,2233,2019-08-07 16:48:15:066
-16.8614,-0.0705,1.3616,16.2672,-6.7915,5.8177,-2.6423,-6.0587,2.6994,2237,2019-08-07 16:48:15:070
-18.8661,-0.1659,0.1832,16.2672,-6.7915,5.8177,-2.6423,-6.0587,2.6994,2243,2019-08-07 16:48:15:076
-18.8661,-0.1659,0.1832,16.2672,-6.7915,5.8177,-2.6903,-6.651,2.7505,2248,2019-08-07 16:48:15:081
-18.2537,0.1539,-3.0788,16.9119,-7.2837,9.6819,-2.6903,-6.651,2.7505,2253,2019-08-07 16:48:15:086
-18.2537,0.1539,-3.0788,16.9119,-7.2837,9.6819,-2.8746,-7.3509,2.6973,2257,2019-08-07 16:48:15:090
-18.2537,0.1539,-3.0788,16.9119,-7.2837,9.6819,-2.8746,-7.3509,2.6973,2263,2019-08-07 16:48:15:096
-14.7565,0.2685,-5.7704,16.9119,-7.2837,9.6819,-3.1579,-7.9357,2.6195,2268,2019-08-07 16:48:15:101
-14.7565,0.2685,-5.7704,11.3509,-7.2421,13.4817,-3.1579,-7.9357,2.6195,2273,2019-08-07 16:48:15:106
-10.3933,-0.672,-8.1509,11.3509,-7.2421,13.4817,-3.4945,-8.4332,2.5822,2277,2019-08-07 16:48:15:110
-10.3933,-0.672,-8.1509,11.3509,-7.2421,13.4817,-3.4945,-8.4332,2.5822,2284,2019-08-07 16:48:15:117
-10.3933,-0.672,-8.1509,11.3509,-7.2421,13.4817,-3.8386,-7.7344,2.546,2287,2019-08-07 16:48:15:120
-5.9535,-1.6506,-11.0499,4.5413,-6.1197,16.8301,-3.8386,-7.7344,2.546,2293,2019-08-07 16:48:15:126
-5.9535,-1.6506,-11.0499,4.5413,-6.1197,16.8301,-3.844,-5.8052,2.3745,2298,2019-08-07 16:48:15:131
-5.9535,-1.6506,-11.0499,4.5413,-6.1197,16.8301,-3.844,-5.8052,2.3745,2303,2019-08-07 16:48:15:136
-5.9535,-1.6506,-11.0499,4.5413,-6.1197,16.8301,-3.844,-5.8052,2.3745,2308,2019-08-07 16:48:15:141
-2.2745,-3.1114,-9.7017,3.2744,-5.5392,16.1619,-3.5435,-4.8294,1.9995,2313,2019-08-07 16:48:15:146
-2.2745,-3.1114,-9.7017,3.2744,-5.5392,16.1619,-3.5435,-4.8294,1.9995,2318,2019-08-07 16:48:15:151
-3.5567,-2.9586,-11.9172,3.2744,-5.5392,16.1619,-3.3337,-3.1879,1.7534,2323,2019-08-07 16:48:15:156
-3.5567,-2.9586,-11.9172,3.2744,-5.5392,16.1619,-3.3337,-3.1879,1.7534,2328,2019-08-07 16:48:15:161
-3.5567,-2.9586,-11.9172,3.2744,-5.5392,16.1619,-3.257,-2.0832,1.5084,2333,2019-08-07 16:48:15:166
-2.2937,-4.7488,-12.8364,2.3588,-4.3604,17.1609,-3.257,-2.0832,1.5084,2338,2019-08-07 16:48:15:171
-2.2937,-4.7488,-12.8364,2.3588,-4.3604,17.1609,-3.2176,-1.15,1.0493,2343,2019-08-07 16:48:15:176
-3.3893,-5.8515,-12.9826,2.3588,-4.3604,17.1609,-3.2176,-1.15,1.0493,2348,2019-08-07 16:48:15:181
-3.3893,-5.8515,-12.9826,3.9627,-2.9844,16.4633,-3.1068,-0.2605,0.5262,2353,2019-08-07 16:48:15:186
-3.3893,-5.8515,-12.9826,3.9627,-2.9844,16.4633,-3.1068,-0.2605,0.5262,2358,2019-08-07 16:48:15:191
-4.4083,-6.2812,-11.988,3.9627,-2.9844,16.4633,-3.1068,-0.2605,0.5262,2363,2019-08-07 16:48:15:196
-4.4083,-6.2812,-11.988,3.9627,-2.9844,16.4633,-2.8266,0.0431,0.278,2367,2019-08-07 16:48:15:200
-3.552,-7.8231,-8.5799,3.9627,-2.9844,16.4633,-2.8266,0.0431,0.278,2373,2019-08-07 16:48:15:206
-3.552,-7.8231,-8.5799,3.1637,-1.1536,12.1834,-2.2961,-0.3372,0.0661,2378,2019-08-07 16:48:15:211
-3.552,-7.8231,-8.5799,3.1637,-1.1536,12.1834,-2.2961,-0.3372,0.0661,2383,2019-08-07 16:48:15:216
-2.6813,-9.494,-9.6311,3.1637,-1.1536,12.1834,-1.4812,-1.1585,-0.1896,2387,2019-08-07 16:48:15:220
-2.6813,-9.494,-9.6311,3.1637,-1.1536,12.1834,-1.4812,-1.1585,-0.1896,2393,2019-08-07 16:48:15:226
-2.2986,-10.2864,-9.6405,2.1339,0.8959,12.4738,-0.7664,-1.7796,-0.3206,2398,2019-08-07 16:48:15:231
-2.2986,-10.2864,-9.6405,2.1339,0.8959,12.4738,-0.7664,-1.7796,-0.3206,2403,2019-08-07 16:48:15:236
-2.2986,-10.2864,-9.6405,2.1339,0.8959,12.4738,-0.7664,-1.7796,-0.3206,2407,2019-08-07 16:48:15:240
-1.3418,-11.0598,-8.2499,2.1339,0.8959,12.4738,-0.0186,-2.2781,-0.3835,2413,2019-08-07 16:48:15:246
-1.3418,-11.0598,-8.2499,0.3593,2.0827,10.5299,-0.0186,-2.2781,-0.3835,2418,2019-08-07 16:48:15:251
0.792,-11.9381,-8.4526,0.3593,2.0827,10.5299,0.807,-2.7607,-0.4112,2422,2019-08-07 16:48:15:255
0.792,-11.9381,-8.4526,-1.1274,2.634,11.4965,0.807,-2.7607,-0.4112,2428,2019-08-07 16:48:15:261
0.792,-11.9381,-8.4526,-1.1274,2.634,11.4965,1.1724,-2.896,-0.4261,2433,2019-08-07 16:48:15:266
3.4711,-12.4394,-6.4728,-1.1274,2.634,11.4965,1.1724,-2.896,-0.4261,2437,2019-08-07 16:48:15:270
3.4711,-12.4394,-6.4728,-1.1274,2.634,11.4965,1.4675,-1.9948,-0.4591,2443,2019-08-07 16:48:15:276
5.3896,-12.1004,-11.2149,-4.5282,2.9157,14.3228,1.4675,-1.9948,-0.4591,2448,2019-08-07 16:48:15:281
5.3896,-12.1004,-11.2149,-4.5282,2.9157,14.3228,1.2682,-0.5417,-0.4847,2453,2019-08-07 16:48:15:286
5.3896,-12.1004,-11.2149,-4.5282,2.9157,14.3228,1.2682,-0.5417,-0.4847,2458,2019-08-07 16:48:15:291
6.3033,-11.2602,-8.0425,-4.5282,2.9157,14.3228,1.0403,0.5246,-0.523,2463,2019-08-07 16:48:15:296
6.3033,-11.2602,-8.0425,-5.703,1.4939,7.2368,1.0403,0.5246,-0.523,2467,2019-08-07 16:48:15:300
6.3033,-11.2602,-8.0425,-5.703,1.4939,7.2368,1.0403,0.5246,-0.523,2473,2019-08-07 16:48:15:306
4.0451,-9.7947,-6.388,-5.703,1.4939,7.2368,1.3087,1.461,-0.5539,2478,2019-08-07 16:48:15:311
4.0451,-9.7947,-6.388,-5.703,1.4939,7.2368,1.3087,1.461,-0.5539,2483,2019-08-07 16:48:15:316
3.0261,-8.5487,-4.7476,-2.6442,-0.411,8.1072,1.5037,2.5731,-0.5007,2488,2019-08-07 16:48:15:321
3.0261,-8.5487,-4.7476,-2.6442,-0.411,8.1072,1.5037,2.5731,-0.5007,2492,2019-08-07 16:48:15:325
3.0261,-8.5487,-4.7476,-2.6442,-0.411,8.1072,1.3929,3.1217,-0.5135,2498,2019-08-07 16:48:15:331
1.0932,-6.5724,-5.9779,-2.6442,-0.411,8.1072,1.3929,3.1217,-0.5135,2503,2019-08-07 16:48:15:336
1.0932,-6.5724,-5.9779,0.0393,-3.2674,8.7231,1.3929,3.1217,-0.5135,2507,2019-08-07 16:48:15:340
1.0932,-6.5724,-5.9779,0.0393,-3.2674,8.7231,1.1404,3.7875,-0.5262,2513,2019-08-07 16:48:15:346
-0.6196,-5.4075,-5.2331,0.0393,-3.2674,8.7231,1.1404,3.7875,-0.5262,2518,2019-08-07 16:48:15:351
-0.6196,-5.4075,-5.2331,0.0393,-3.2674,8.7231,1.1127,4.171,-0.4101,2523,2019-08-07 16:48:15:356
-1.6339,-5.5078,-5.384,1.8663,-3.5758,9.0813,1.1127,4.171,-0.4101,2528,2019-08-07 16:48:15:361
-1.6339,-5.5078,-5.384,1.8663,-3.5758,9.0813,1.199,4.4469,-0.3164,2533,2019-08-07 16:48:15:366
-1.6339,-5.5078,-5.384,1.8663,-3.5758,9.0813,1.199,4.4469,-0.3164,2538,2019-08-07 16:48:15:371
-2.5716,-5.5603,-6.1099,1.8663,-3.5758,9.0813,1.2949,4.7643,-0.2823,2543,2019-08-07 16:48:15:376
-2.5716,-5.5603,-6.1099,3.0132,-3.484,9.7261,1.2949,4.7643,-0.2823,2549,2019-08-07 16:48:15:382
-2.5716,-5.5603,-6.1099,3.0132,-3.484,9.7261,1.2949,4.7643,-0.2823,2552,2019-08-07 16:48:15:385
-4.3562,-5.799,-5.3416,3.0132,-3.484,9.7261,1.4525,5.1691,-0.2951,2558,2019-08-07 16:48:15:391
-4.3562,-5.799,-5.3416,3.0132,-3.484,9.7261,1.4525,5.1691,-0.2951,2563,2019-08-07 16:48:15:396
-4.3562,-5.799,-5.3416,5.0654,-2.7712,8.6146,1.5836,5.4695,-0.3409,2569,2019-08-07 16:48:15:402
-5.691,-6.157,-4.4035,5.0654,-2.7712,8.6146,1.5836,5.4695,-0.3409,2573,2019-08-07 16:48:15:406
-5.691,-6.157,-4.4035,5.0654,-2.7712,8.6146,1.6858,5.6634,-0.4485,2578,2019-08-07 16:48:15:411
-6.3034,-5.9231,-3.7248,5.0654,-2.7712,8.6146,1.6858,5.6634,-0.4485,2583,2019-08-07 16:48:15:416
-6.3034,-5.9231,-3.7248,5.5707,-3.0651,8.1009,1.7679,5.8946,-0.6498,2588,2019-08-07 16:48:15:421
-6.3034,-5.9231,-3.7248,5.5707,-3.0651,8.1009,1.7679,5.8946,-0.6498,2592,2019-08-07 16:48:15:425
-6.8201,-5.4934,-4.3187,5.5707,-3.0651,8.1009,1.7679,5.8946,-0.6498,2599,2019-08-07 16:48:15:432
-6.8201,-5.4934,-4.3187,5.5707,-3.0651,8.1009,1.6944,6.293,-0.8341,2602,2019-08-07 16:48:15:435
-6.8201,-5.4934,-4.3187,5.5707,-3.0651,8.1009,1.6944,6.293,-0.8341,2608,2019-08-07 16:48:15:441
-7.5282,-5.503,-4.3328,6.1461,-3.1892,8.6655,1.5889,6.5998,-0.8863,2613,2019-08-07 16:48:15:446
-7.5282,-5.503,-4.3328,6.1461,-3.1892,8.6655,1.5889,6.5998,-0.8863,2618,2019-08-07 16:48:15:451
-7.9636,-6.7919,-3.9746,6.1461,-3.1892,8.6655,1.4408,7.1399,-0.8927,2623,2019-08-07 16:48:15:456
-7.9636,-6.7919,-3.9746,6.2102,-1.2725,8.1823,1.4408,7.1399,-0.8927,2629,2019-08-07 16:48:15:462
-7.9636,-6.7919,-3.9746,6.2102,-1.2725,8.1823,1.4153,7.6246,-0.8969,2633,2019-08-07 16:48:15:466
-8.6621,-8.014,-3.5221,6.2102,-1.2725,8.1823,1.4153,7.6246,-0.8969,2638,2019-08-07 16:48:15:471
-8.6621,-8.014,-3.5221,6.2102,-1.2725,8.1823,1.4675,8.1679,-0.882,2643,2019-08-07 16:48:15:476
-10.3654,-8.9401,-2.6736,7.8923,0.4137,6.8473,1.4675,8.1679,-0.882,2648,2019-08-07 16:48:15:481
-10.3654,-8.9401,-2.6736,7.8923,0.4137,6.8473,1.5569,8.6717,-0.8639,2653,2019-08-07 16:48:15:486
-10.3654,-8.9401,-2.6736,7.8923,0.4137,6.8473,1.5569,8.6717,-0.8639,2658,2019-08-07 16:48:15:491
-12.1164,-9.0261,-1.4386,7.8923,0.4137,6.8473,1.6294,8.9082,-0.8533,2663,2019-08-07 16:48:15:496
-12.1164,-9.0261,-1.4386,9.8451,0.2304,4.9145,1.6294,8.9082,-0.8533,2669,2019-08-07 16:48:15:502
-12.1164,-9.0261,-1.4386,9.8451,0.2304,4.9145,1.6496,8.9679,-0.8405,2672,2019-08-07 16:48:15:505
-13.7909,-8.267,-0.4393,9.8451,0.2304,4.9145,1.6496,8.9679,-0.8405,2678,2019-08-07 16:48:15:511
-13.7909,-8.267,-0.4393,9.8451,0.2304,4.9145,1.5612,8.8528,-0.8139,2683,2019-08-07 16:48:15:516
-13.7909,-8.267,-0.4393,9.8451,0.2304,4.9145,1.5612,8.8528,-0.8139,2687,2019-08-07 16:48:15:520
-15.0397,-7.5462,-0.2696,11.3529,-0.8208,3.8245,1.3599,8.5801,-0.7414,2693,2019-08-07 16:48:15:526
-15.0397,-7.5462,-0.2696,11.3529,-0.8208,3.8245,1.3599,8.5801,-0.7414,2699,2019-08-07 16:48:15:532
-16.475,-7.1452,1.352,11.3529,-0.8208,3.8245,1.3599,8.5801,-0.7414,2703,2019-08-07 16:48:15:536
-16.475,-7.1452,1.352,11.3529,-0.8208,3.8245,1.085,7.9452,-0.5518,2708,2019-08-07 16:48:15:541
-16.475,-7.1452,1.352,13.2734,-1.0101,0.4328,1.085,7.9452,-0.5518,2713,2019-08-07 16:48:15:546
-17.6615,-7.4937,3.5627,13.2734,-1.0101,0.4328,0.9093,7.4477,-0.3931,2719,2019-08-07 16:48:15:552
-17.6615,-7.4937,3.5627,13.2734,-1.0101,0.4328,0.9093,7.4477,-0.3931,2722,2019-08-07 16:48:15:555
-17.2788,-7.9615,4.2934,13.2734,-1.0101,0.4328,0.7079,6.7297,-0.3302,2728,2019-08-07 16:48:15:561
-17.2788,-7.9615,4.2934,12.3535,-0.0224,-1.469,0.7079,6.7297,-0.3302,2733,2019-08-07 16:48:15:566
-17.2788,-7.9615,4.2934,12.3535,-0.0224,-1.469,0.7079,6.7297,-0.3302,2737,2019-08-07 16:48:15:570
-15.9105,-9.1072,3.4402,12.3535,-0.0224,-1.469,0.4832,6.1918,-0.3601,2743,2019-08-07 16:48:15:576
-15.9105,-9.1072,3.4402,12.3535,-0.0224,-1.469,0.4832,6.1918,-0.3601,2748,2019-08-07 16:48:15:581
-13.4753,-9.9378,2.2617,9.1031,1.6097,-0.4868,0.4906,6.2056,-0.424,2753,2019-08-07 16:48:15:586
-13.4753,-9.9378,2.2617,9.1031,1.6097,-0.4868,0.4906,6.2056,-0.424,2758,2019-08-07 16:48:15:591
-13.4753,-9.9378,2.2617,7.5119,1.4855,0.844,0.5886,6.4187,-0.473,2762,2019-08-07 16:48:15:595
-12.2554,-9.5321,0.4752,7.5119,1.4855,0.844,0.5886,6.4187,-0.473,2768,2019-08-07 16:48:15:601
-12.2554,-9.5321,0.4752,7.5119,1.4855,0.844,0.8326,7.224,-0.4687,2772,2019-08-07 16:48:15:605
-13.7385,-8.2622,1.0597,7.5119,1.4855,0.844,0.8326,7.224,-0.4687,2778,2019-08-07 16:48:15:611
-13.7385,-8.2622,1.0597,9.2827,-0.2827,-0.2662,1.0669,7.9058,-0.2887,2783,2019-08-07 16:48:15:616
-13.7385,-8.2622,1.0597,9.2827,-0.2827,-0.2662,1.0669,7.9058,-0.2887,2787,2019-08-07 16:48:15:620
-17.7908,-6.9399,3.9775,9.2827,-0.2827,-0.2662,1.1074,7.7151,-0.0735,2793,2019-08-07 16:48:15:626
-17.7908,-6.9399,3.9775,9.2827,-0.2827,-0.2662,1.1074,7.7151,-0.0735,2798,2019-08-07 16:48:15:631
-21.2116,-5.904,7.3196,15.4479,-2.1259,-6.3664,0.9934,6.6328,0.1236,2803,2019-08-07 16:48:15:636
-21.2116,-5.904,7.3196,15.4479,-2.1259,-6.3664,0.9934,6.6328,0.1236,2808,2019-08-07 16:48:15:641
-21.2116,-5.904,7.3196,15.4479,-2.1259,-6.3664,0.7154,4.8698,0.2557,2812,2019-08-07 16:48:15:645
-21.623,-5.417,8.0125,15.4479,-2.1259,-6.3664,0.7154,4.8698,0.2557,2818,2019-08-07 16:48:15:651
-21.623,-5.417,8.0125,15.3672,-2.7244,-7.6165,0.4203,2.915,0.2844,2823,2019-08-07 16:48:15:656
-21.623,-6.0185,7.56,15.3672,-2.7244,-7.6165,0.4203,2.915,0.2844,2828,2019-08-07 16:48:15:661
-18.2502,-6.0185,7.56,15.3672,-2.7244,-7.6165,0.2818,1.3587,0.2216,2833,2019-08-07 16:48:15:666
-18.2502,-6.0185,7.56,15.3672,-2.7244,-7.6165,0.2818,1.3587,0.2216,2837,2019-08-07 16:48:15:670
-13.3464,-7.2406,5.0664,7.8828,-0.9071,-5.0711,0.4384,1.3363,0.1896,2843,2019-08-07 16:48:15:676
-13.3464,-7.2406,5.0664,7.8828,-0.9071,-5.0711,0.4384,1.3363,0.1896,2848,2019-08-07 16:48:15:681
-13.3464,-7.2406,5.0664,7.8828,-0.9071,-5.0711,0.4384,1.3363,0.1896,2853,2019-08-07 16:48:15:686
-8.256,-8.0283,2.7707,7.8828,-0.9071,-5.0711,0.9156,1.8114,0.1949,2857,2019-08-07 16:48:15:690
-8.256,-8.0283,2.7707,2.0616,-0.1976,-2.6523,0.9156,1.8114,0.1949,2862,2019-08-07 16:48:15:695
-7.5671,-7.6034,3.8502,2.0616,-0.1976,-2.6523,1.2459,2.832,0.2578,2868,2019-08-07 16:48:15:701
-7.5671,-7.6034,3.8502,2.0616,-0.1976,-2.6523,1.2459,2.832,0.2578,2873,2019-08-07 16:48:15:706
-7.5671,-7.6034,3.8502,2.0616,-0.1976,-2.6523,1.6571,3.6256,0.3633,2878,2019-08-07 16:48:15:711
-10.7917,-6.3813,6.2778,5.2217,-1.693,-6.4043,1.6571,3.6256,0.3633,2883,2019-08-07 16:48:15:716
-10.7917,-6.3813,6.2778,5.2217,-1.693,-6.4043,1.9202,3.6703,0.4794,2888,2019-08-07 16:48:15:721
-10.7917,-6.3813,6.2778,5.2217,-1.693,-6.4043,1.9202,3.6703,0.4794,2892,2019-08-07 16:48:15:725
-15.0497,-4.9969,8.2623,5.2217,-1.693,-6.4043,1.8179,2.8085,0.5976,2898,2019-08-07 16:48:15:731
-15.0497,-4.9969,8.2623,10.6444,-3.4501,-9.3842,1.8179,2.8085,0.5976,2903,2019-08-07 16:48:15:736
-16.5998,-4.4909,9.3889,10.6444,-3.4501,-9.3842,1.492,1.2841,0.6189,2908,2019-08-07 16:48:15:741
-16.5998,-4.4909,9.3889,10.5692,-3.318,-8.9645,1.492,1.2841,0.6189,2913,2019-08-07 16:48:15:746
-16.5998,-4.4909,9.3889,10.5692,-3.318,-8.9645,1.1308,-0.5055,0.5678,2918,2019-08-07 16:48:15:751
-14.8919,-5.2356,7.7626,10.5692,-3.318,-8.9645,1.1308,-0.5055,0.5678,2923,2019-08-07 16:48:15:756
-14.8919,-5.2356,7.7626,10.5692,-3.318,-8.9645,0.856,-1.7881,0.473,2928,2019-08-07 16:48:15:761
-10.5047,-6.8539,4.7788,4.6492,-1.0141,-4.5711,0.856,-1.7881,0.473,2933,2019-08-07 16:48:15:766
-10.5047,-6.8539,4.7788,4.6492,-1.0141,-4.5711,0.7388,-2.1119,0.3015,2937,2019-08-07 16:48:15:770
-10.5047,-6.8539,4.7788,4.6492,-1.0141,-4.5711,0.7388,-2.1119,0.3015,2943,2019-08-07 16:48:15:776
-5.6296,-7.7896,1.6582,4.6492,-1.0141,-4.5711,0.6696,-1.7849,0.1097,2948,2019-08-07 16:48:15:781
-5.6296,-7.7896,1.6582,-2.4917,0.1513,1.0664,0.6696,-1.7849,0.1097,2953,2019-08-07 16:48:15:786
-5.6296,-7.7896,1.6582,-2.4917,0.1513,1.0664,0.6696,-1.7849,0.1097,2957,2019-08-07 16:48:15:790
-2.4146,-8.1906,-1.1323,-2.4917,0.1513,1.0664,0.5939,-0.7282,-0.033,2963,2019-08-07 16:48:15:796
-2.4146,-8.1906,-1.1323,-2.4917,0.1513,1.0664,0.5939,-0.7282,-0.033,2968,2019-08-07 16:48:15:801
-2.606,-8.4102,-0.5903,-3.2352,0.5573,1.2596,0.6536,1.0636,-0.1619,2973,2019-08-07 16:48:15:806
-2.606,-8.4102,-0.5903,-3.2352,0.5573,1.2596,0.6536,1.0636,-0.1619,2978,2019-08-07 16:48:15:811
-2.606,-8.4102,-0.5903,-3.2352,0.5573,1.2596,0.7804,2.2141,-0.1779,2983,2019-08-07 16:48:15:816
-6.0651,-7.4124,0.7155,-3.2352,0.5573,1.2596,0.7804,2.2141,-0.1779,2987,2019-08-07 16:48:15:820
-6.0651,-7.4124,0.7155,2.3295,-1.2914,-0.9826,0.7228,2.4975,-0.1396,2993,2019-08-07 16:48:15:826
-9.2897,-5.9851,1.8609,2.3295,-1.2914,-0.9826,0.7228,2.4975,-0.1396,2998,2019-08-07 16:48:15:831
-9.2897,-5.9851,1.8609,2.3295,-1.2914,-0.9826,0.5311,1.903,-0.0969,3003,2019-08-07 16:48:15:836
-9.2897,-5.9851,1.8609,2.3295,-1.2914,-0.9826,0.5311,1.903,-0.0969,3008,2019-08-07 16:48:15:841
-10.591,-5.4361,2.7424,2.3295,-1.2914,-0.9826,0.5311,1.903,-0.0969,3013,2019-08-07 16:48:15:846
-10.591,-5.4361,2.7424,4.7148,-2.4301,-2.3581,0.318,0.7781,-0.0586,3018,2019-08-07 16:48:15:851
-9.7969,-5.7511,2.2569,4.7148,-2.4301,-2.3581,0.318,0.7781,-0.0586,3023,2019-08-07 16:48:15:856
-9.7969,-5.7511,2.2569,4.7148,-2.4301,-2.3581,0.318,0.7781,-0.0586,3027,2019-08-07 16:48:15:860
-9.7969,-5.7511,2.2569,1.9315,-1.3817,-0.8103,0.0581,-0.9423,0.0298,3033,2019-08-07 16:48:15:866
-7.4,-6.5913,0.9794,1.9315,-1.3817,-0.8103,0.0581,-0.9423,0.0298,3037,2019-08-07 16:48:15:870
-7.4,-6.5913,0.9794,1.9315,-1.3817,-0.8103,0.007,-1.5122,0.0895,3043,2019-08-07 16:48:15:876
-5.1945,-7.0878,-0.1519,1.9315,-1.3817,-0.8103,0.007,-1.5122,0.0895,3048,2019-08-07 16:48:15:881
-5.1945,-7.0878,-0.1519,-1.399,-0.7051,1.4656,0.0634,-1.4525,0.1044,3053,2019-08-07 16:48:15:886
-5.1945,-7.0878,-0.1519,-1.399,-0.7051,1.4656,0.0634,-1.4525,0.1044,3058,2019-08-07 16:48:15:891
-3.8214,-7.1737,-1.5001,-1.399,-0.7051,1.4656,0.1337,-0.9284,0.1182,3063,2019-08-07 16:48:15:896
-3.8214,-7.1737,-1.5001,-2.2609,-0.654,2.3586,0.1337,-0.9284,0.1182,3068,2019-08-07 16:48:15:901
-3.8214,-7.1737,-1.5001,-2.2609,-0.654,2.3586,0.1337,-0.9284,0.1182,3073,2019-08-07 16:48:15:906
-2.9651,-7.1785,-1.4953,-2.2609,-0.654,2.3586,0.2328,-0.2573,0.1236,3078,2019-08-07 16:48:15:911
-2.9651,-7.1785,-1.4953,-2.2609,-0.654,2.3586,0.2328,-0.2573,0.1236,3082,2019-08-07 16:48:15:915
-3.9315,-7.0114,-0.9014,-2.2907,-0.7052,1.8333,0.3883,0.6705,0.0991,3088,2019-08-07 16:48:15:921
-3.9315,-7.0114,-0.9014,-2.2907,-0.7052,1.8333,0.3883,0.6705,0.0991,3093,2019-08-07 16:48:15:926
-3.9315,-7.0114,-0.9014,-2.2907,-0.7052,1.8333,0.4267,1.1254,0.1172,3098,2019-08-07 16:48:15:931
-6.0414,-6.429,0.5174,-2.2907,-0.7052,1.8333,0.4267,1.1254,0.1172,3102,2019-08-07 16:48:15:935
-6.0414,-6.429,0.5174,0.9091,-1.5865,-0.4064,0.4267,1.1254,0.1172,3108,2019-08-07 16:48:15:941
-7.6442,-6.0662,1.7147,0.9091,-1.5865,-0.4064,0.3958,1.0892,0.1736,3113,2019-08-07 16:48:15:946
-7.6442,-6.0662,1.7147,0.9091,-1.5865,-0.4064,0.3958,1.0892,0.1736,3117,2019-08-07 16:48:15:950
-7.6442,-6.0662,1.7147,0.9091,-1.5865,-0.4064,0.3116,0.7344,0.2024,3123,2019-08-07 16:48:15:956
-8.2374,-6.2715,2.172,2.2633,-1.4802,-1.4961,0.3116,0.7344,0.2024,3127,2019-08-07 16:48:15:960
-8.2374,-6.2715,2.172,2.2633,-1.4802,-1.4961,0.1998,0.2434,0.2131,3133,2019-08-07 16:48:15:966
-8.2374,-6.2715,2.172,2.2633,-1.4802,-1.4961,0.1998,0.2434,0.2131,3138,2019-08-07 16:48:15:971
-7.759,-7.1021,1.8938,2.2633,-1.4802,-1.4961,0.0954,-0.203,0.212,3143,2019-08-07 16:48:15:976
-7.759,-7.1021,1.8938,1.3802,-0.4542,-1.15,0.0954,-0.203,0.212,3148,2019-08-07 16:48:15:981
-6.9075,-7.5986,1.6723,1.3802,-0.4542,-1.15,0.0443,-0.4949,0.1981,3152,2019-08-07 16:48:15:985
-6.9075,-7.5986,1.6723,1.3802,-0.4542,-1.15,0.0443,-0.4949,0.1981,3158,2019-08-07 16:48:15:991
-6.9075,-7.5986,1.6723,1.3802,-0.4542,-1.15,0.0443,-0.4949,0.1981,3162,2019-08-07 16:48:15:995
-6.1994,-7.737,1.1915,0.1539,0.0505,-0.4126,0.0411,-0.6046,0.1832,3168,2019-08-07 16:48:16:001
-6.1994,-7.737,1.1915,0.1539,0.0505,-0.4126,0.0411,-0.6046,0.1832,3172,2019-08-07 16:48:16:005
-5.8932,-7.7131,0.8992,0.1539,0.0505,-0.4126,0.0528,-0.5172,0.1587,3178,2019-08-07 16:48:16:011
-5.8932,-7.7131,0.8992,0.1539,0.0505,-0.4126,0.0528,-0.5172,0.1587,3182,2019-08-07 16:48:16:015
-5.8932,-7.7131,0.8992,-0.2539,-0.0678,-0.0379,0.0752,-0.3713,0.1278,3188,2019-08-07 16:48:16:021
-5.7737,-7.5556,0.8756,-0.2539,-0.0678,-0.0379,0.0752,-0.3713,0.1278,3193,2019-08-07 16:48:16:026
-5.7737,-7.5556,0.8756,-0.2539,-0.0678,-0.0379,0.1199,-0.1614,0.0895,3198,2019-08-07 16:48:16:031
-5.7737,-7.5556,0.8756,-0.2539,-0.0678,-0.0379,0.1199,-0.1614,0.0895,3203,2019-08-07 16:48:16:036
-5.745,-7.2644,0.7059,-0.3271,-0.3882,0.1901,0.1412,0.026,0.0596,3208,2019-08-07 16:48:16:041
-5.745,-7.2644,0.7059,-0.3271,-0.3882,0.1901,0.1412,0.026,0.0596,3213,2019-08-07 16:48:16:046
-6.1182,-7.2262,0.8662,-0.3271,-0.3882,0.1901,0.1412,0.026,0.0596,3218,2019-08-07 16:48:16:051
-6.1182,-7.2262,0.8662,-0.3271,-0.3882,0.1901,0.1433,0.2157,0.0266,3223,2019-08-07 16:48:16:056
-6.1182,-7.2262,0.8662,0.3083,-0.4412,-0.1145,0.1433,0.2157,0.0266,3228,2019-08-07 16:48:16:061
-6.4579,-7.2167,1.1302,0.3083,-0.4412,-0.1145,0.1444,0.2551,0.0202,3233,2019-08-07 16:48:16:066
-6.4579,-7.2167,1.1302,0.3083,-0.4412,-0.1145,0.1444,0.2551,0.0202,3237,2019-08-07 16:48:16:070
-6.8598,-7.2119,1.2197,0.3083,-0.4412,-0.1145,0.1348,0.1805,0.0192,3243,2019-08-07 16:48:16:076
-6.8598,-7.2119,1.2197,0.8276,-0.4704,-0.3629,0.1348,0.1805,0.0192,3248,2019-08-07 16:48:16:081
-6.8598,-7.2119,1.2197,0.8276,-0.4704,-0.3629,0.122,0.0079,0.0192,3253,2019-08-07 16:48:16:086
-6.9029,-7.1069,1.2386,0.8276,-0.4704,-0.3629,0.122,0.0079,0.0192,3258,2019-08-07 16:48:16:091
-6.9029,-7.1069,1.2386,0.8276,-0.4704,-0.3629,0.1103,-0.1391,0.0181,3264,2019-08-07 16:48:16:097
-6.6972,-7.0543,1.1302,0.5947,-0.5711,-0.2087,0.1103,-0.1391,0.0181,3267,2019-08-07 16:48:16:100
-6.6972,-7.0543,1.1302,0.5947,-0.5711,-0.2087,0.1103,-0.1391,0.0181,3273,2019-08-07 16:48:16:106
-6.6972,-7.0543,1.1302,0.5947,-0.5711,-0.2087,0.0997,-0.2616,0.0266,3278,2019-08-07 16:48:16:111
-6.1805,-7.0734,0.9039,0.5947,-0.5711,-0.2087,0.0997,-0.2616,0.0266,3282,2019-08-07 16:48:16:115
-6.1805,-7.0734,0.9039,-0.1488,-0.5635,0.1832,0.105,-0.3148,0.0309,3288,2019-08-07 16:48:16:121
-5.8696,-7.0734,0.6871,-0.1488,-0.5635,0.1832,0.105,-0.3148,0.0309,3292,2019-08-07 16:48:16:125
-5.8696,-7.0734,0.6871,-0.3401,-0.5458,0.3137,0.1199,-0.2978,0.0351,3299,2019-08-07 16:48:16:132
-5.8696,-7.0734,0.6871,-0.3401,-0.5458,0.3137,0.1199,-0.2978,0.0351,3302,2019-08-07 16:48:16:135
-5.6399,-7.0257,0.72,-0.3401,-0.5458,0.3137,0.1444,-0.236,0.0426,3308,2019-08-07 16:48:16:141
-5.6399,-7.0257,0.72,-0.3401,-0.5458,0.3137,0.1444,-0.236,0.0426,3314,2019-08-07 16:48:16:147
-5.5491,-7.0161,0.6918,-0.5564,-0.5908,0.3539,0.1444,-0.236,0.0426,3318,2019-08-07 16:48:16:151
-5.5491,-7.0161,0.6918,-0.5564,-0.5908,0.3539,0.1572,-0.1497,0.0405,3323,2019-08-07 16:48:16:156
-5.5491,-7.0161,0.6918,-0.5564,-0.5908,0.3539,0.1572,-0.1497,0.0405,3328,2019-08-07 16:48:16:161
-5.5682,-6.997,0.7012,-0.5564,-0.5908,0.3539,0.1497,-0.0805,0.0447,3333,2019-08-07 16:48:16:166
-5.5682,-6.997,0.7012,-0.4743,-0.6592,0.2466,0.1497,-0.0805,0.0447,3337,2019-08-07 16:48:16:170
-5.5682,-6.997,0.7012,-0.4743,-0.6592,0.2466,0.1348,-0.0102,0.0309,3343,2019-08-07 16:48:16:176
-5.7931,-6.9589,0.7954,-0.4743,-0.6592,0.2466,0.1348,-0.0102,0.0309,3348,2019-08-07 16:48:16:181
-5.7931,-6.9589,0.7954,-0.4743,-0.6592,0.2466,0.105,-6.0E-4,0.0309,3353,2019-08-07 16:48:16:186
-5.8888,-7.0352,0.8614,-0.2265,-0.5564,0.2368,0.105,-6.0E-4,0.0309,3358,2019-08-07 16:48:16:191
-5.8888,-7.0352,0.8614,-0.2265,-0.5564,0.2368,0.072,-0.0198,0.0277,3363,2019-08-07 16:48:16:196
-5.8888,-7.0352,0.8614,-0.2265,-0.5564,0.2368,0.072,-0.0198,0.0277,3368,2019-08-07 16:48:16:201
-5.841,-7.0257,0.8803,-0.2265,-0.5564,0.2368,0.072,-0.0198,0.0277,3373,2019-08-07 16:48:16:206
-5.841,-7.0257,0.8803,-0.3553,-0.5272,0.277,0.0336,-0.056,0.0277,3378,2019-08-07 16:48:16:211
-5.7071,-7.0591,0.7247,-0.3553,-0.5272,0.277,0.0336,-0.056,0.0277,3382,2019-08-07 16:48:16:215
-5.7071,-7.0591,0.7247,-0.3553,-0.5272,0.277,0.0091,-0.056,0.0394,3388,2019-08-07 16:48:16:221
-5.7071,-7.0591,0.7247,-0.3553,-0.5272,0.277,0.0091,-0.056,0.0394,3393,2019-08-07 16:48:16:226
-5.4679,-7.1068,0.6022,-0.728,-0.485,0.554,0.0017,0.0037,0.0373,3398,2019-08-07 16:48:16:231
-5.4679,-7.1068,0.6022,-0.728,-0.485,0.554,0.0017,0.0037,0.0373,3403,2019-08-07 16:48:16:236
-5.2861,-7.1021,0.4183,-0.728,-0.485,0.554,0.007,0.1198,0.0298,3408,2019-08-07 16:48:16:241
-5.2861,-7.1021,0.4183,-0.728,-0.485,0.554,0.007,0.1198,0.0298,3413,2019-08-07 16:48:16:246
-5.2861,-7.1021,0.4183,-1.073,-0.5029,0.8336,0.0176,0.2966,0.0192,3418,2019-08-07 16:48:16:251
-5.1044,-7.0973,0.1826,-1.073,-0.5029,0.8336,0.0176,0.2966,0.0192,3423,2019-08-07 16:48:16:256
-5.1044,-7.0973,0.1826,-1.073,-0.5029,0.8336,0.0144,0.531,-0.0096,3428,2019-08-07 16:48:16:261
-5.1044,-7.0973,0.1826,-1.073,-0.5029,0.8336,0.0144,0.531,-0.0096,3432,2019-08-07 16:48:16:265
-5.1235,-7.1593,0.06,-1.073,-0.5029,0.8336,0.0144,0.531,-0.0096,3438,2019-08-07 16:48:16:271
-5.1235,-7.1593,0.06,-0.8648,-0.3837,0.8516,0.007,0.8655,-0.0501,3443,2019-08-07 16:48:16:276
-5.6498,-7.2214,0.2863,-0.8648,-0.3837,0.8516,0.007,0.8655,-0.0501,3448,2019-08-07 16:48:16:281
-5.6498,-7.2214,0.2863,-0.8648,-0.3837,0.8516,0.0048,1.0647,-0.0788,3452,2019-08-07 16:48:16:285
-5.6498,-7.2214,0.2863,-0.8648,-0.3837,0.8516,0.0048,1.0647,-0.0788,3458,2019-08-07 16:48:16:291
-6.1857,-7.2357,0.6728,0.0404,-0.3597,0.2108,6.0E-4,1.168,-0.0895,3463,2019-08-07 16:48:16:296
-6.1857,-7.2357,0.6728,0.0404,-0.3597,0.2108,6.0E-4,1.168,-0.0895,3468,2019-08-07 16:48:16:301
-6.9081,-7.2596,1.0688,0.0404,-0.3597,0.2108,-0.0207,1.0689,-0.0959,3473,2019-08-07 16:48:16:306
-6.9081,-7.2596,1.0688,0.0404,-0.3597,0.2108,-0.0207,1.0689,-0.0959,3478,2019-08-07 16:48:16:311
-6.9081,-7.2596,1.0688,1.0896,-0.4347,-0.5351,-0.0473,0.8431,-0.0884,3482,2019-08-07 16:48:16:315
-7.3722,-7.1498,1.4082,1.0896,-0.4347,-0.5351,-0.0473,0.8431,-0.0884,3488,2019-08-07 16:48:16:321
-7.3722,-7.1498,1.4082,1.0896,-0.4347,-0.5351,-0.0473,0.8431,-0.0884,3493,2019-08-07 16:48:16:326
-7.6928,-7.04,1.8041,1.0896,-0.4347,-0.5351,-0.0772,0.4127,-0.0682,3498,2019-08-07 16:48:16:331
-7.6928,-7.04,1.8041,1.525,-0.5769,-1.1165,-0.0772,0.4127,-0.0682,3503,2019-08-07 16:48:16:336
-7.6928,-7.04,1.8041,1.525,-0.5769,-1.1165,-0.1049,-0.0251,-0.0394,3508,2019-08-07 16:48:16:341
-7.4345,-7.0352,1.5354,1.525,-0.5769,-1.1165,-0.1049,-0.0251,-0.0394,3513,2019-08-07 16:48:16:346
-7.4345,-7.0352,1.5354,1.525,-0.5769,-1.1165,-0.1347,-0.3926,-0.0171,3518,2019-08-07 16:48:16:351
-6.6977,-7.1163,1.0075,0.702,-0.4901,-0.5191,-0.1347,-0.3926,-0.0171,3522,2019-08-07 16:48:16:355
-6.6977,-7.1163,1.0075,0.702,-0.4901,-0.5191,-0.1485,-0.6493,-0.0064,3528,2019-08-07 16:48:16:361
-6.6977,-7.1163,1.0075,0.702,-0.4901,-0.5191,-0.1485,-0.6493,-0.0064,3533,2019-08-07 16:48:16:366
-5.8844,-7.4219,0.5738,0.702,-0.4901,-0.5191,-0.1368,-0.7186,0.0096,3538,2019-08-07 16:48:16:371
-5.8844,-7.4219,0.5738,-0.5479,-0.1523,0.381,-0.1368,-0.7186,0.0096,3543,2019-08-07 16:48:16:376
-5.296,-7.5555,0.192,-0.5479,-0.1523,0.381,-0.0953,-0.6046,-0.0053,3548,2019-08-07 16:48:16:381
-5.296,-7.5555,0.192,-0.5479,-0.1523,0.381,-0.0953,-0.6046,-0.0053,3553,2019-08-07 16:48:16:386
-5.296,-7.5555,0.192,-0.5479,-0.1523,0.381,-0.0452,-0.3202,-0.0213,3558,2019-08-07 16:48:16:391
-5.2673,-7.5221,-0.0861,-0.8697,-0.0914,0.8658,-0.0452,-0.3202,-0.0213,3563,2019-08-07 16:48:16:396
-5.2673,-7.5221,-0.0861,-0.8697,-0.0914,0.8658,-0.0452,-0.3202,-0.0213,3568,2019-08-07 16:48:16:401
-5.4157,-7.4314,0.06,-0.8697,-0.0914,0.8658,-0.0058,-0.0198,-0.033,3572,2019-08-07 16:48:16:405
-5.4157,-7.4314,0.06,-0.8697,-0.0914,0.8658,-0.0058,-0.0198,-0.033,3578,2019-08-07 16:48:16:411
-5.4157,-7.4314,0.06,-0.4305,-0.3322,0.6152,0.0219,0.1571,-0.0522,3582,2019-08-07 16:48:16:415
-5.9133,-7.2452,0.2768,-0.4305,-0.3322,0.6152,0.0219,0.1571,-0.0522,3588,2019-08-07 16:48:16:421
-5.9133,-7.2452,0.2768,-0.4305,-0.3322,0.6152,0.0294,0.2476,-0.0565,3594,2019-08-07 16:48:16:427
-6.3008,-7.145,0.6539,-0.4305,-0.3322,0.6152,0.0294,0.2476,-0.0565,3599,2019-08-07 16:48:16:432
-6.3008,-7.145,0.6539,0.2381,-0.4714,0.0937,0.0294,0.2476,-0.0565,3603,2019-08-07 16:48:16:436
-6.3008,-7.145,0.6539,0.2381,-0.4714,0.0937,0.0272,0.2263,-0.0543,3608,2019-08-07 16:48:16:441
-6.3008,-7.145,0.6539,0.2381,-0.4714,0.0937,0.0272,0.2263,-0.0543,3613,2019-08-07 16:48:16:446
-6.6405,-7.0352,0.8095,0.2381,-0.4714,0.0937,0.023,0.1241,-0.0426,3618,2019-08-07 16:48:16:451
-6.6405,-7.0352,0.8095,0.5112,-0.6642,-0.0398,0.023,0.1241,-0.0426,3623,2019-08-07 16:48:16:456
-6.631,-6.9779,0.8142,0.5112,-0.6642,-0.0398,0.0112,-0.0091,-0.0341,3628,2019-08-07 16:48:16:461
-6.631,-6.9779,0.8142,0.5112,-0.6642,-0.0398,0.0112,-0.0091,-0.0341,3633,2019-08-07 16:48:16:466
-6.631,-6.9779,0.8142,0.5112,-0.6642,-0.0398,-5.0E-4,-0.1636,-0.016,3638,2019-08-07 16:48:16:471
-6.4683,-7.0065,0.8,0.2584,-0.6111,-0.046,-5.0E-4,-0.1636,-0.016,3643,2019-08-07 16:48:16:476
-6.4683,-7.0065,0.8,0.2584,-0.6111,-0.046,-0.0058,-0.2371,-0.0011,3648,2019-08-07 16:48:16:481
-6.2005,-7.0304,0.7105,0.2584,-0.6111,-0.046,-0.0058,-0.2371,-0.0011,3652,2019-08-07 16:48:16:485
-6.2005,-7.0304,0.7105,0.2584,-0.6111,-0.046,-0.0037,-0.269,0.0085,3658,2019-08-07 16:48:16:491
-6.2005,-7.0304,0.7105,-0.0181,-0.5086,0.1959,-0.0037,-0.269,0.0085,3663,2019-08-07 16:48:16:496
-6.0522,-7.1068,0.6162,-0.0181,-0.5086,0.1959,0.0038,-0.2509,0.0021,3667,2019-08-07 16:48:16:500
-6.0522,-7.1068,0.6162,-0.0181,-0.5086,0.1959,0.0038,-0.2509,0.0021,3673,2019-08-07 16:48:16:506
-6.0522,-7.1068,0.6162,-0.0181,-0.5086,0.1959,6.0E-4,-0.2285,-0.0032,3678,2019-08-07 16:48:16:511
-6.0331,-7.1306,0.6633,-0.0975,-0.4833,0.1871,6.0E-4,-0.2285,-0.0032,3683,2019-08-07 16:48:16:516
-6.0331,-7.1306,0.6633,-0.0975,-0.4833,0.1871,6.0E-4,-0.2285,-0.0032,3688,2019-08-07 16:48:16:521
-5.9374,-7.1497,0.668,-0.0975,-0.4833,0.1871,-0.0047,-0.1838,-0.0011,3694,2019-08-07 16:48:16:527
-5.9374,-7.1497,0.668,-0.0975,-0.4833,0.1871,-0.0047,-0.1838,-0.0011,3698,2019-08-07 16:48:16:531
-5.9374,-7.1497,0.668,-0.2915,-0.416,0.3385,-0.0026,-0.1273,0.0011,3702,2019-08-07 16:48:16:535
-5.8418,-7.207,0.4936,-0.2915,-0.416,0.3385,-0.0026,-0.1273,0.0011,3708,2019-08-07 16:48:16:541
-5.8418,-7.207,0.4936,-0.2915,-0.416,0.3385,0.0038,-0.0496,-0.0064,3713,2019-08-07 16:48:16:546
-5.8418,-7.164,0.6727,-0.2915,-0.416,0.3385,0.0038,-0.0496,-0.0064,3717,2019-08-07 16:48:16:550
-5.8418,-7.164,0.6727,-0.2714,-0.4019,0.1265,0.0208,0.0261,-0.0032,3723,2019-08-07 16:48:16:556
-5.8418,-7.164,0.6727,-0.2714,-0.4019,0.1265,0.0208,0.0261,-0.0032,3728,2019-08-07 16:48:16:561
-5.8562,-7.1402,0.7387,-0.2714,-0.4019,0.1265,0.023,0.0644,0.0032,3733,2019-08-07 16:48:16:566
-5.8562,-7.1402,0.7387,-0.2714,-0.4019,0.1265,0.023,0.0644,0.0032,3738,2019-08-07 16:48:16:571
-5.9567,-7.059,0.7811,-0.0825,-0.577,0.1176,0.0166,0.0719,0.0138,3743,2019-08-07 16:48:16:576
-5.9567,-7.059,0.7811,-0.0825,-0.577,0.1176,0.0166,0.0719,0.0138,3748,2019-08-07 16:48:16:581
-5.9567,-7.059,0.7811,-0.0825,-0.577,0.1176,0.0155,0.0591,0.0319,3753,2019-08-07 16:48:16:586
-6.1241,-7.0256,0.734,-0.0825,-0.577,0.1176,0.0155,0.0591,0.0319,3758,2019-08-07 16:48:16:591
-6.1241,-7.0256,0.734,-0.0329,-0.5712,0.0278,0.0187,0.0207,0.049,3763,2019-08-07 16:48:16:596
-6.105,-7.0542,0.7858,-0.0329,-0.5712,0.0278,0.0187,0.0207,0.049,3768,2019-08-07 16:48:16:601
-6.105,-7.0542,0.7858,-0.0329,-0.5712,0.0278,0.0187,0.0207,0.049,3772,2019-08-07 16:48:16:605
-6.105,-7.0542,0.7858,-0.0329,-0.5712,0.0278,0.023,-0.0198,0.0575,3778,2019-08-07 16:48:16:611
-6.0429,-7.0781,0.6303,-0.0329,-0.5712,0.0278,0.023,-0.0198,0.0575,3783,2019-08-07 16:48:16:616
-6.0429,-7.0781,0.6303,-0.0387,-0.5287,0.2302,0.0134,-0.0421,0.0671,3787,2019-08-07 16:48:16:620
-6.0429,-7.0781,0.6303,-0.0387,-0.5287,0.2302,0.0134,-0.0421,0.0671,3793,2019-08-07 16:48:16:626
-6.1242,-7.1067,0.602,-0.0387,-0.5287,0.2302,0.007,-0.0357,0.0682,3798,2019-08-07 16:48:16:631
-6.1242,-7.1067,0.602,-0.0387,-0.5287,0.2302,0.007,-0.0357,0.0682,3803,2019-08-07 16:48:16:636
-6.1721,-7.1736,0.5737,0.0071,-0.4234,0.268,0.0091,-0.0187,0.049,3807,2019-08-07 16:48:16:640
-6.1721,-7.1736,0.5737,0.0071,-0.4234,0.268,0.0091,-0.0187,0.049,3813,2019-08-07 16:48:16:646
-6.1721,-7.1736,0.5737,0.0071,-0.4234,0.268,0.0091,-0.0187,0.049,3817,2019-08-07 16:48:16:650
-6.2391,-7.1163,0.5124,0.0071,-0.4234,0.268,6.0E-4,-0.007,0.0319,3823,2019-08-07 16:48:16:656
-6.2391,-7.1163,0.5124,0.0892,-0.4543,0.3063,6.0E-4,-0.007,0.0319,3828,2019-08-07 16:48:16:661
-6.287,-7.102,0.5407,0.0892,-0.4543,0.3063,-0.0154,0.0079,0.0128,3833,2019-08-07 16:48:16:666
-6.287,-7.102,0.5407,0.0892,-0.4543,0.3063,-0.0154,0.0079,0.0128,3838,2019-08-07 16:48:16:671
-6.287,-7.102,0.5407,0.0892,-0.4543,0.3063,-0.0165,0.0314,-0.0075,3843,2019-08-07 16:48:16:676
-6.1722,-7.1306,0.5737,0.0092,-0.4569,0.2529,-0.0165,0.0314,-0.0075,3848,2019-08-07 16:48:16:681
-6.1722,-7.1306,0.5737,0.0092,-0.4569,0.2529,-0.0218,0.0697,-0.0277,3853,2019-08-07 16:48:16:686
-6.1961,-7.2261,0.6632,0.0092,-0.4569,0.2529,-0.0218,0.0697,-0.0277,3858,2019-08-07 16:48:16:691
-6.1961,-7.2261,0.6632,0.0092,-0.4569,0.2529,-0.0218,0.0793,-0.0373,3863,2019-08-07 16:48:16:696
-6.1961,-7.2261,0.6632,0.0586,-0.3832,0.108,-0.0218,0.0793,-0.0373,3868,2019-08-07 16:48:16:701
-6.2105,-7.1974,0.7481,0.0586,-0.3832,0.108,-0.0165,0.0633,-0.0373,3873,2019-08-07 16:48:16:706
-6.2105,-7.1974,0.7481,0.0586,-0.3832,0.108,-0.0165,0.0633,-0.0373,3878,2019-08-07 16:48:16:711
-6.0814,-7.2022,0.7292,0.0586,-0.3832,0.108,-0.009,0.058,-0.032,3882,2019-08-07 16:48:16:715
-6.0814,-7.2022,0.7292,-0.0819,-0.382,0.0971,-0.009,0.058,-0.032,3888,2019-08-07 16:48:16:721
-6.0814,-7.2022,0.7292,-0.0819,-0.382,0.0971,-0.0111,0.0633,-0.032,3893,2019-08-07 16:48:16:726
-5.957,-7.207,0.5689,-0.2,-0.3885,0.2286,-0.0111,0.0633,-0.032,3899,2019-08-07 16:48:16:732
-5.957,-7.207,0.5689,-0.2,-0.3885,0.2286,-0.0122,0.1134,-0.0309,3902,2019-08-07 16:48:16:735
-5.7848,-7.2308,0.5218,-0.2,-0.3885,0.2286,-0.0122,0.1134,-0.0309,3908,2019-08-07 16:48:16:741
-5.7848,-7.2308,0.5218,-0.2,-0.3885,0.2286,-0.0079,0.1869,-0.0373,3913,2019-08-07 16:48:16:746
-5.7848,-7.2308,0.5218,-0.326,-0.3501,0.1999,-0.0079,0.1869,-0.0373,3918,2019-08-07 16:48:16:751
-5.8757,-7.1831,0.5783,-0.326,-0.3501,0.1999,-0.0079,0.1869,-0.0373,3923,2019-08-07 16:48:16:756
-5.8757,-7.1831,0.5783,-0.326,-0.3501,0.1999,6.0E-4,0.2743,-0.0384,3928,2019-08-07 16:48:16:761
-5.8757,-7.1831,0.5783,-0.326,-0.3501,0.1999,6.0E-4,0.2743,-0.0384,3933,2019-08-07 16:48:16:766
-6.0575,-7.164,0.6113,-0.0953,-0.4403,0.1327,-0.0026,0.319,-0.0384,3937,2019-08-07 16:48:16:770
-6.0575,-7.164,0.6113,-0.0953,-0.4403,0.1327,-0.0026,0.319,-0.0384,3943,2019-08-07 16:48:16:776
-6.0575,-7.164,0.6113,-0.0953,-0.4403,0.1327,-0.0058,0.319,-0.0362,3948,2019-08-07 16:48:16:781
-6.3255,-7.1067,0.7197,-0.0953,-0.4403,0.1327,-0.0058,0.319,-0.0362,3952,2019-08-07 16:48:16:785
-6.3255,-7.1067,0.7197,0.2954,-0.543,-0.0773,-0.0186,0.2498,-0.0288,3957,2019-08-07 16:48:16:790
-6.4882,-7.0637,0.7952,0.2954,-0.543,-0.0773,-0.0186,0.2498,-0.0288,3962,2019-08-07 16:48:16:795
-6.4882,-7.0637,0.7952,0.2954,-0.543,-0.0773,-0.026,0.1635,-0.0277,3968,2019-08-07 16:48:16:801
-6.4882,-7.0637,0.7952,0.2954,-0.543,-0.0773,-0.026,0.1635,-0.0277,3973,2019-08-07 16:48:16:806
-6.5791,-7.1067,0.7669,0.4176,-0.5198,-0.1043,-0.026,0.1635,-0.0277,3978,2019-08-07 16:48:16:811
-6.5791,-7.1067,0.7669,0.4176,-0.5198,-0.1043,-0.0324,0.0591,-0.0192,3983,2019-08-07 16:48:16:816
-6.5552,-7.1067,0.7716,0.4176,-0.5198,-0.1043,-0.0324,0.0591,-0.0192,3988,2019-08-07 16:48:16:821
-6.5552,-7.1067,0.7716,0.4176,-0.5198,-0.1043,-0.0324,-0.0443,-0.0149,3993,2019-08-07 16:48:16:826
-6.5552,-7.1067,0.7716,0.3685,-0.4379,-0.1874,-0.0324,-0.0443,-0.0149,3998,2019-08-07 16:48:16:831
-6.4883,-7.1688,0.814,0.3685,-0.4379,-0.1874,-0.0282,-0.1433,-0.0107,4003,2019-08-07 16:48:16:836
-6.4883,-7.1688,0.814,0.2348,-0.4613,-0.0289,-0.0282,-0.1433,-0.0107,4008,2019-08-07 16:48:16:841
-6.2969,-7.1688,0.6349,0.2348,-0.4613,-0.0289,-0.0303,-0.2285,0.0,4013,2019-08-07 16:48:16:846
-6.2969,-7.1688,0.6349,0.2348,-0.4613,-0.0289,-0.0303,-0.2285,0.0,4017,2019-08-07 16:48:16:850
-6.2969,-7.1688,0.6349,0.2348,-0.4613,-0.0289,-0.0303,-0.2285,0.0,4023,2019-08-07 16:48:16:856
-6.0577,-7.2117,0.5359,-0.175,-0.3935,0.1744,-0.0239,-0.2413,-0.0011,4028,2019-08-07 16:48:16:861
-6.0577,-7.2117,0.5359,-0.175,-0.3935,0.1744,-0.0239,-0.2413,-0.0011,4033,2019-08-07 16:48:16:866
-5.9716,-7.2547,0.4275,-0.175,-0.3935,0.1744,-0.0133,-0.2062,-0.0075,4037,2019-08-07 16:48:16:870
-5.9716,-7.2547,0.4275,-0.175,-0.3935,0.1744,-0.0133,-0.2062,-0.0075,4043,2019-08-07 16:48:16:876
-5.9716,-7.2547,0.4275,-0.1669,-0.3894,0.346,-0.0037,-0.1604,-0.0075,4048,2019-08-07 16:48:16:881
-6.0052,-7.2022,0.418,-0.1669,-0.3894,0.346,-0.0037,-0.1604,-0.0075,4053,2019-08-07 16:48:16:886
-6.0052,-7.2022,0.418,-0.1669,-0.3894,0.346,0.0091,-0.1071,-0.0128,4058,2019-08-07 16:48:16:891
-6.0291,-7.1306,0.4416,-0.1669,-0.3894,0.346,0.0091,-0.1071,-0.0128,4063,2019-08-07 16:48:16:896
-6.0291,-7.1306,0.4416,-0.0979,-0.4996,0.34,0.0091,-0.1071,-0.0128,4068,2019-08-07 16:48:16:901
-6.0291,-7.1306,0.4416,-0.0979,-0.4996,0.34,0.0102,-0.0688,-0.0107,4073,2019-08-07 16:48:16:906
-6.0578,-7.1496,0.4699,-0.0979,-0.4996,0.34,0.0102,-0.0688,-0.0107,4078,2019-08-07 16:48:16:911
-6.0578,-7.1496,0.4699,-0.0979,-0.4996,0.34,0.0091,-0.0453,-0.0107,4082,2019-08-07 16:48:16:915
-6.0578,-7.1496,0.4699,-0.0877,-0.4231,0.2426,0.0091,-0.0453,-0.0107,4088,2019-08-07 16:48:16:921
-6.1153,-7.1496,0.5123,-0.0877,-0.4231,0.2426,0.0112,-0.0251,-0.0075,4092,2019-08-07 16:48:16:925
-6.1153,-7.1496,0.5123,0.0076,-0.4942,0.1925,0.0112,-0.0251,-0.0075,4099,2019-08-07 16:48:16:932
-6.1153,-7.1496,0.5123,0.0076,-0.4942,0.1925,0.0166,-0.0283,0.0021,4102,2019-08-07 16:48:16:935
-6.1775,-7.1067,0.6537,0.0076,-0.4942,0.1925,0.0166,-0.0283,0.0021,4108,2019-08-07 16:48:16:941
-6.1775,-7.1067,0.6537,0.0076,-0.4942,0.1925,0.0208,-0.0506,0.0032,4113,2019-08-07 16:48:16:946
-6.1775,-7.1067,0.6537,0.0076,-0.4942,0.1925,0.0208,-0.0506,0.0032,4117,2019-08-07 16:48:16:950
-6.2015,-7.1258,0.6348,0.0488,-0.4777,0.1193,0.0208,-0.0506,0.0032,4123,2019-08-07 16:48:16:956
-6.2015,-7.1258,0.6348,0.0488,-0.4777,0.1193,0.0251,-0.072,0.0064,4127,2019-08-07 16:48:16:960
-6.2302,-7.1162,0.6442,0.0488,-0.4777,0.1193,0.0251,-0.072,0.0064,4133,2019-08-07 16:48:16:966
-6.2302,-7.1162,0.6442,0.0488,-0.4777,0.1193,0.0208,-0.1135,0.0149,4138,2019-08-07 16:48:16:971
-6.2302,-7.1162,0.6442,0.0656,-0.4744,0.0528,0.0208,-0.1135,0.0149,4143,2019-08-07 16:48:16:976
-6.2063,-7.1162,0.7149,0.0656,-0.4744,0.0528,0.0187,-0.1529,0.0224,4147,2019-08-07 16:48:16:980
-6.2063,-7.1162,0.7149,0.0656,-0.4744,0.0528,0.0187,-0.1529,0.0224,4153,2019-08-07 16:48:16:986
-6.1585,-7.1687,0.7809,3.0E-4,-0.4266,0.0092,0.0155,-0.1945,0.0341,4157,2019-08-07 16:48:16:990
-6.1585,-7.1687,0.7809,3.0E-4,-0.4266,0.0092,0.0155,-0.1945,0.0341,4163,2019-08-07 16:48:16:996
-6.1585,-7.1687,0.7809,3.0E-4,-0.4266,0.0092,0.0155,-0.1945,0.0341,4168,2019-08-07 16:48:17:001
-6.0145,-7.1592,0.7292,3.0E-4,-0.4266,0.0092,0.0155,-0.2008,0.0383,4173,2019-08-07 16:48:17:006
-6.0145,-7.1592,0.7292,3.0E-4,-0.4266,0.0092,0.0155,-0.2008,0.0383,4178,2019-08-07 16:48:17:011
-6.0145,-7.1592,0.7292,-0.1812,-0.4156,0.1021,0.0176,-0.1923,0.0415,4182,2019-08-07 16:48:17:015
-6.0289,-7.164,0.7197,-0.1812,-0.4156,0.1021,0.0176,-0.1923,0.0415,4188,2019-08-07 16:48:17:021
-6.0289,-7.164,0.7197,-0.1812,-0.4156,0.1021,0.0208,-0.1625,0.0394,4192,2019-08-07 16:48:17:025
-6.0337,-7.1783,0.7103,-0.1812,-0.4156,0.1021,0.0208,-0.1625,0.0394,4198,2019-08-07 16:48:17:031
-6.0337,-7.1783,0.7103,-0.1093,-0.4189,0.1723,0.0187,-0.1316,0.0447,4203,2019-08-07 16:48:17:036
-6.0337,-7.1783,0.7103,-0.1093,-0.4189,0.1723,0.0187,-0.1316,0.0447,4207,2019-08-07 16:48:17:040
-6.0816,-7.1544,0.7009,-0.1093,-0.4189,0.1723,0.0219,-0.1071,0.0405,4213,2019-08-07 16:48:17:046
-6.0816,-7.1544,0.7009,-0.1093,-0.4189,0.1723,0.0219,-0.1071,0.0405,4218,2019-08-07 16:48:17:051
-6.0625,-7.0876,0.7103,-0.115,-0.4362,0.1747,0.0219,-0.0911,0.0426,4223,2019-08-07 16:48:17:056
-6.0625,-7.0876,0.7103,-0.115,-0.4362,0.1747,0.0219,-0.0911,0.0426,4228,2019-08-07 16:48:17:061
-6.0625,-7.0876,0.7103,-0.115,-0.4362,0.1747,0.0123,-0.0783,0.0437,4233,2019-08-07 16:48:17:066
-6.0721,-7.1449,0.7291,-0.115,-0.4362,0.1747,0.0123,-0.0783,0.0437,4238,2019-08-07 16:48:17:071
-6.0721,-7.1449,0.7291,-0.107,-0.3915,0.1105,0.0017,-0.0624,0.0373,4243,2019-08-07 16:48:17:076
-6.1104,-7.1497,0.8234,-0.107,-0.3915,0.1105,0.0017,-0.0624,0.0373,4248,2019-08-07 16:48:17:081
-6.1104,-7.1497,0.8234,-0.107,-0.3915,0.1105,-5.0E-4,-0.0464,0.0351,4253,2019-08-07 16:48:17:086
-6.1487,-7.1688,0.7904,-0.107,-0.3915,0.1105,-5.0E-4,-0.0464,0.0351,4258,2019-08-07 16:48:17:091
-6.1487,-7.1688,0.7904,0.0067,-0.3764,0.1022,-0.0111,-0.0368,0.0405,4263,2019-08-07 16:48:17:096
-6.1487,-7.1688,0.7904,0.0067,-0.3764,0.1022,-0.0111,-0.0368,0.0405,4268,2019-08-07 16:48:17:101
-6.1343,-7.226,0.8046,0.0067,-0.3764,0.1022,-0.0111,-0.0368,0.0405,4273,2019-08-07 16:48:17:106
-6.1343,-7.226,0.8046,0.0067,-0.3764,0.1022,-0.0186,-0.0389,0.0362,4278,2019-08-07 16:48:17:111
-6.2013,-7.2595,0.8328,-0.0284,-0.2994,0.0945,-0.0186,-0.0389,0.0362,4283,2019-08-07 16:48:17:116
-6.2013,-7.2595,0.8328,-0.0284,-0.2994,0.0945,-0.0228,-0.0453,0.033,4288,2019-08-07 16:48:17:121
-6.2013,-7.2595,0.8328,-0.0284,-0.2994,0.0945,-0.0228,-0.0453,0.033,4293,2019-08-07 16:48:17:126
-6.1774,-7.2404,0.8328,-0.0284,-0.2994,0.0945,-0.0218,-0.0411,0.0287,4299,2019-08-07 16:48:17:132
-6.1774,-7.2404,0.8328,-0.0241,-0.3664,0.106,-0.0218,-0.0411,0.0287,4303,2019-08-07 16:48:17:136
-6.1631,-7.1353,0.8045,-0.0241,-0.3664,0.106,-0.0228,-0.0325,0.0266,4308,2019-08-07 16:48:17:141
-6.1631,-7.1353,0.8045,-0.0362,-0.3977,0.092,-0.0228,-0.0325,0.0266,4313,2019-08-07 16:48:17:146
-6.1631,-7.1353,0.8045,-0.0362,-0.3977,0.092,-0.0239,-0.0315,0.033,4318,2019-08-07 16:48:17:151
-6.1583,-7.1162,0.7338,-0.0362,-0.3977,0.092,-0.0239,-0.0315,0.033,4322,2019-08-07 16:48:17:155
-6.1583,-7.1162,0.7338,-0.0362,-0.3977,0.092,-0.0239,-0.0315,0.033,4328,2019-08-07 16:48:17:161
-6.1583,-7.1162,0.7338,-0.0089,-0.3688,0.1898,-0.0303,-0.0325,0.033,4332,2019-08-07 16:48:17:165
-6.2062,-7.2165,0.7103,-0.0089,-0.3688,0.1898,-0.0218,-0.0336,0.0319,4338,2019-08-07 16:48:17:171
-6.2062,-7.2165,0.7103,-0.0089,-0.3688,0.1898,-0.0218,-0.0336,0.0319,4342,2019-08-07 16:48:17:175
-6.0483,-7.3215,0.6914,-0.0089,-0.3688,0.1898,-0.0218,-0.0336,0.0319,4348,2019-08-07 16:48:17:181
-6.0483,-7.3215,0.6914,-0.1474,-0.2458,0.2038,0.0038,-0.0038,0.0213,4353,2019-08-07 16:48:17:186
-6.0483,-7.3215,0.6914,-0.1474,-0.2458,0.2038,0.0038,-0.0038,0.0213,4357,2019-08-07 16:48:17:190
-6.0818,-7.2117,0.649,-0.1474,-0.2458,0.2038,0.0144,0.0207,0.0277,4363,2019-08-07 16:48:17:196
-6.0818,-7.2117,0.649,-0.1474,-0.2458,0.2038,0.0144,0.0207,0.0277,4367,2019-08-07 16:48:17:200
-5.9623,-7.2069,0.5924,-0.2523,-0.333,0.2815,0.0304,0.0751,0.0192,4373,2019-08-07 16:48:17:206
-5.9623,-7.2069,0.5924,-0.2523,-0.333,0.2815,0.0304,0.0751,0.0192,4377,2019-08-07 16:48:17:210
-5.9623,-7.2069,0.5924,-0.2523,-0.333,0.2815,0.0315,0.1102,0.0149,4383,2019-08-07 16:48:17:216
-6.1154,-7.1974,0.7338,-0.2523,-0.333,0.2815,0.0315,0.1102,0.0149,4387,2019-08-07 16:48:17:220
-6.1154,-7.1974,0.7338,-0.0522,-0.3676,0.1499,0.0272,0.1113,0.0223,4393,2019-08-07 16:48:17:226
-6.2063,-7.164,0.7527,-0.0522,-0.3676,0.1499,0.0272,0.1113,0.0223,4397,2019-08-07 16:48:17:230
-6.2063,-7.164,0.7527,-0.0522,-0.3676,0.1499,0.0272,0.1113,0.0223,4403,2019-08-07 16:48:17:236
-6.2063,-7.164,0.7527,-0.0522,-0.3676,0.1499,0.0176,0.0857,0.0309,4409,2019-08-07 16:48:17:242
-6.3164,-7.1114,0.7574,0.1073,-0.3955,0.0136,0.0176,0.0857,0.0309,4413,2019-08-07 16:48:17:246
-6.3164,-7.1114,0.7574,0.1073,-0.3955,0.0136,0.007,0.0367,0.033,4417,2019-08-07 16:48:17:250
-6.3164,-7.1114,0.7574,0.1073,-0.3955,0.0136,0.007,0.0367,0.033,4423,2019-08-07 16:48:17:256
-6.5269,-6.9682,0.8563,0.1073,-0.3955,0.0136,-0.0101,-0.0336,0.0351,4428,2019-08-07 16:48:17:261
-6.5269,-6.9682,0.8563,0.2714,-0.5367,0.0522,-0.0101,-0.0336,0.0351,4433,2019-08-07 16:48:17:266
-6.4695,-7.0541,0.8233,0.2714,-0.5367,0.0522,-0.0271,-0.1114,0.0351,4437,2019-08-07 16:48:17:270
-6.4695,-7.0541,0.8233,0.2714,-0.5367,0.0522,-0.0271,-0.1114,0.0351,4443,2019-08-07 16:48:17:276
-6.4695,-7.0541,0.8233,0.2714,-0.5367,0.0522,-0.0292,-0.1444,0.0266,4448,2019-08-07 16:48:17:281
-6.3834,-7.0685,0.8988,0.1036,-0.5023,-0.0485,-0.0292,-0.1444,0.0266,4452,2019-08-07 16:48:17:285
-6.3834,-7.0685,0.8988,0.1036,-0.5023,-0.0485,-0.0196,-0.1838,0.016,4458,2019-08-07 16:48:17:291
-6.2495,-7.0207,0.7196,0.1036,-0.5023,-0.0485,-0.0196,-0.1838,0.016,4463,2019-08-07 16:48:17:296
-6.2495,-7.0207,0.7196,0.1036,-0.5023,-0.0485,-0.0228,-0.1785,0.0042,4468,2019-08-07 16:48:17:301
-6.2495,-7.0207,0.7196,-0.0833,-0.4616,0.1729,-0.0228,-0.1785,0.0042,4473,2019-08-07 16:48:17:306
-6.1395,-7.0494,0.7149,-0.0833,-0.4616,0.1729,-0.0228,-0.1785,0.0042,4478,2019-08-07 16:48:17:311
-6.1395,-7.0494,0.7149,-0.0833,-0.4616,0.1729,-0.0122,-0.1369,-0.0022,4483,2019-08-07 16:48:17:316
-5.9481,-7.2833,0.6725,-0.0833,-0.4616,0.1729,-0.0122,-0.1369,-0.0022,4488,2019-08-07 16:48:17:321
-5.9481,-7.2833,0.6725,-0.3726,-0.2617,0.2614,0.008,-0.0815,-0.0085,4493,2019-08-07 16:48:17:326
-5.9481,-7.2833,0.6725,-0.3726,-0.2617,0.2614,0.008,-0.0815,-0.0085,4498,2019-08-07 16:48:17:331
-5.8381,-7.2594,0.6018,-0.3726,-0.2617,0.2614,0.0304,0.0175,-0.0192,4503,2019-08-07 16:48:17:336
-5.8381,-7.2594,0.6018,-0.3726,-0.2617,0.2614,0.0304,0.0175,-0.0192,4507,2019-08-07 16:48:17:340
-5.8525,-7.1639,0.6913,-0.384,-0.3545,0.2112,0.056,0.0846,-0.0139,4513,2019-08-07 16:48:17:346
-5.8525,-7.1639,0.6913,-0.384,-0.3545,0.2112,0.056,0.0846,-0.0139,4517,2019-08-07 16:48:17:350
-5.8525,-7.1639,0.6913,-0.384,-0.3545,0.2112,0.056,0.0846,-0.0139,4523,2019-08-07 16:48:17:356
-5.9817,-7.0589,0.6301,-0.2548,-0.46,0.2699,0.0592,0.1251,-0.0192,4528,2019-08-07 16:48:17:361
-5.9817,-7.0589,0.6301,-0.2548,-0.46,0.2699,0.0592,0.1251,-0.0192,4533,2019-08-07 16:48:17:366
-6.2113,-6.9491,0.7432,-0.2548,-0.46,0.2699,0.0379,0.1251,-0.0149,4538,2019-08-07 16:48:17:371
-6.2113,-6.9491,0.7432,-0.2548,-0.46,0.2699,0.0379,0.1251,-0.0149,4542,2019-08-07 16:48:17:375
-6.2113,-6.9491,0.7432,0.0354,-0.4835,0.0151,0.0379,0.1251,-0.0149,4548,2019-08-07 16:48:17:381
-6.2831,-6.9825,0.9694,0.0354,-0.4835,0.0151,0.0272,0.0761,0.0032,4553,2019-08-07 16:48:17:386
-6.2831,-6.9825,0.9694,0.0354,-0.4835,0.0151,0.0272,0.0761,0.0032,4558,2019-08-07 16:48:17:391
-6.2066,-7.1114,0.8563,0.0354,-0.4835,0.0151,0.0272,0.0122,0.001,4564,2019-08-07 16:48:17:397
-6.2066,-7.1114,0.8563,0.0226,-0.3857,-0.0062,0.0272,0.0122,0.001,4568,2019-08-07 16:48:17:401
-6.2066,-7.1114,0.8563,0.0226,-0.3857,-0.0062,0.0272,0.0122,0.001,4573,2019-08-07 16:48:17:406
-6.1588,-7.1401,0.7667,0.0226,-0.3857,-0.0062,0.0176,-0.0336,-0.0022,4578,2019-08-07 16:48:17:411
-6.1588,-7.1401,0.7667,0.0226,-0.3857,-0.0062,0.0176,-0.0336,-0.0022,4584,2019-08-07 16:48:17:417
-6.1588,-7.1401,0.7667,-0.1931,-0.3083,0.202,0.0176,-0.0336,-0.0022,4587,2019-08-07 16:48:17:420
-5.9913,-7.2021,0.6725,-0.1931,-0.3083,0.202,0.0123,-0.0474,0.0042,4593,2019-08-07 16:48:17:426
-5.9913,-7.2021,0.6725,-0.1931,-0.3083,0.202,0.0198,-0.0368,0.0064,4598,2019-08-07 16:48:17:431
-6.0105,-7.1639,0.6159,-0.1931,-0.3083,0.202,0.0198,-0.0368,0.0064,4603,2019-08-07 16:48:17:436
-6.0105,-7.1639,0.6159,-0.2601,-0.3744,0.2881,0.0198,-0.0368,0.0064,4608,2019-08-07 16:48:17:441
-6.0105,-7.1639,0.6159,-0.2601,-0.3744,0.2881,0.0304,-0.0229,0.0042,4613,2019-08-07 16:48:17:446
-6.0297,-7.0684,0.663,-0.2601,-0.3744,0.2881,0.0304,-0.0229,0.0042,4618,2019-08-07 16:48:17:451
-6.0297,-7.0684,0.663,-0.2601,-0.3744,0.2881,0.0325,-0.0187,0.0138,4623,2019-08-07 16:48:17:456
-6.1206,-7.0446,0.8563,-0.1232,-0.4675,0.049,0.0325,-0.0187,0.0138,4628,2019-08-07 16:48:17:461
-6.1206,-7.0446,0.8563,-0.1232,-0.4675,0.049,0.0475,-0.0208,0.0202,4633,2019-08-07 16:48:17:466
-6.1206,-7.0446,0.8563,-0.1232,-0.4675,0.049,0.0475,-0.0208,0.0202,4638,2019-08-07 16:48:17:471
-6.178,-7.0875,0.861,-0.1232,-0.4675,0.049,0.056,-0.0304,0.0202,4643,2019-08-07 16:48:17:476
-6.178,-7.0875,0.861,-0.0219,-0.42,0.0736,0.056,-0.0304,0.0202,4649,2019-08-07 16:48:17:482
-6.178,-7.0875,0.861,-0.0219,-0.42,0.0736,0.056,-0.0304,0.0202,4653,2019-08-07 16:48:17:486
-6.2498,-7.035,0.8987,-0.0219,-0.42,0.0736,0.0539,-0.0421,0.0106,4658,2019-08-07 16:48:17:491
-6.2498,-7.035,0.8987,-0.0219,-0.42,0.0736,0.0539,-0.0421,0.0106,4662,2019-08-07 16:48:17:495
-6.2498,-7.035,0.8987,-0.0674,-0.4401,0.0307,0.0496,-0.0592,0.0074,4667,2019-08-07 16:48:17:500
-6.2116,-7.0255,0.8657,-0.0674,-0.4401,0.0307,0.0496,-0.0592,0.0074,4673,2019-08-07 16:48:17:506
-6.2116,-7.0255,0.8657,-0.0674,-0.4401,0.0307,0.0475,-0.0762,0.0021,4678,2019-08-07 16:48:17:511
-6.1494,-7.0828,0.8091,-0.0674,-0.4401,0.0307,0.0475,-0.0762,0.0021,4683,2019-08-07 16:48:17:516
-6.1494,-7.0828,0.8091,-0.1635,-0.3902,0.1118,0.0549,-0.04,-0.0011,4689,2019-08-07 16:48:17:522
-6.1494,-7.0828,0.8091,-0.1635,-0.3902,0.1118,0.0549,-0.04,-0.0011,4693,2019-08-07 16:48:17:526
-6.0107,-7.226,0.7855,-0.1635,-0.3902,0.1118,0.0688,0.0058,-0.0011,4698,2019-08-07 16:48:17:531
-6.0107,-7.226,0.7855,-0.1635,-0.3902,0.1118,0.0688,0.0058,-0.0011,4703,2019-08-07 16:48:17:536
-6.0107,-7.226,0.7855,-0.2355,-0.2838,0.163,0.0688,0.0058,-0.0011,4709,2019-08-07 16:48:17:542
-5.982,-7.2021,0.7337,-0.2355,-0.2838,0.163,0.0816,0.09,0.0064,4713,2019-08-07 16:48:17:546
-5.982,-7.2021,0.7337,-0.2355,-0.2838,0.163,0.0816,0.09,0.0064,4718,2019-08-07 16:48:17:551
-6.1686,-7.0446,0.7525,-0.2355,-0.2838,0.163,0.0869,0.1336,-0.0054,4723,2019-08-07 16:48:17:556
-6.1686,-7.0446,0.7525,-0.0233,-0.4964,0.1175,0.0869,0.1336,-0.0054,4728,2019-08-07 16:48:17:561
-6.3408,-6.9538,0.8515,-0.0233,-0.4964,0.1175,0.0741,0.1283,-0.0107,4734,2019-08-07 16:48:17:567
-6.3408,-6.9538,0.8515,-0.0233,-0.4964,0.1175,0.0741,0.1283,-0.0107,4738,2019-08-07 16:48:17:571
-6.3408,-6.9538,0.8515,-0.0233,-0.4964,0.1175,0.0389,0.0751,-0.0117,4743,2019-08-07 16:48:17:576
-6.47,-6.9968,0.8704,0.2128,-0.4992,0.075,0.0389,0.0751,-0.0117,4748,2019-08-07 16:48:17:581
-6.47,-6.9968,0.8704,0.2128,-0.4992,0.075,0.0038,-0.0336,-0.0096,4753,2019-08-07 16:48:17:586
-6.47,-6.9968,0.8704,0.2128,-0.4992,0.075,0.0038,-0.0336,-0.0096,4757,2019-08-07 16:48:17:590
-6.5083,-6.9873,0.9364,0.107,-0.4841,-0.0692,0.0325,-0.0315,-0.0128,4764,2019-08-07 16:48:17:597
-6.5083,-6.9873,0.9364,0.107,-0.4841,-0.0692,0.0325,-0.0315,-0.0128,4768,2019-08-07 16:48:17:601
-6.2691,-7.0016,0.7949,0.107,-0.4841,-0.0692,0.0325,-0.0315,-0.0128,4772,2019-08-07 16:48:17:605
-6.2691,-7.0016,0.7949,0.0076,-0.4932,0.1534,0.0539,-0.0538,-0.0235,4778,2019-08-07 16:48:17:611
-6.1974,-7.0111,0.8138,0.0076,-0.4932,0.1534,0.0539,-0.0538,-0.0235,4783,2019-08-07 16:48:17:616
-6.1974,-7.0111,0.8138,0.0076,-0.4932,0.1534,0.0634,-0.0112,-0.016,4788,2019-08-07 16:48:17:621
-6.1974,-7.0111,0.8138,0.0076,-0.4932,0.1534,0.0634,-0.0112,-0.016,4793,2019-08-07 16:48:17:626
-6.1257,-7.0207,0.7902,-0.1395,-0.5311,0.1214,0.0549,-0.0134,-0.016,4798,2019-08-07 16:48:17:631
-6.1257,-7.0207,0.7902,-0.1395,-0.5311,0.1214,0.0549,-0.0134,-0.016,4802,2019-08-07 16:48:17:635
-6.2022,-6.8918,0.8326,-0.1395,-0.5311,0.1214,0.0379,-0.007,-0.0245,4808,2019-08-07 16:48:17:641
-6.2022,-6.8918,0.8326,-0.1395,-0.5311,0.1214,0.0379,-0.007,-0.0245,4812,2019-08-07 16:48:17:645
-6.2022,-6.8918,0.8326,0.0387,-0.6171,0.0239,0.024,-0.0251,-0.016,4818,2019-08-07 16:48:17:651
-6.2453,-6.9156,0.9458,0.0387,-0.6171,0.0239,0.024,-0.0251,-0.016,4822,2019-08-07 16:48:17:655
-6.2453,-6.9156,0.9458,0.0387,-0.6171,0.0239,0.0251,-0.0411,-0.0054,4828,2019-08-07 16:48:17:661
-6.1114,-7.0875,1.0825,0.0387,-0.6171,0.0239,0.0251,-0.0411,-0.0054,4834,2019-08-07 16:48:17:667
-6.1114,-7.0875,1.0825,-0.1383,-0.3867,-0.0323,0.0421,-0.0368,0.0,4838,2019-08-07 16:48:17:671