ACCELEROMETER X (m/s²),ACCELEROMETER Y (m/s²),ACCELEROMETER Z (m/s²),LINEAR ACCELERATION X (m/s²),LINEAR ACCELERATION Y (m/s²),LINEAR ACCELERATION Z (m/s²),GYROSCOPE X (rad/s),GYROSCOPE Y (rad/s),GYROSCOPE Z (rad/s),Time since start in ms ,YYYY-MO-DD HH-MI-SS_SSS
-6.6634,-6.534,1.3895,-0.1736,-0.3152,0.082,-0.0037,-0.0208,-0.0139,2,2019-08-07 16:48:42:526
-6.7686,-6.4672,1.2952,-0.1736,-0.3152,0.082,-0.0037,-0.0208,-0.0139,8,2019-08-07 16:48:42:532
-6.7686,-6.4672,1.2952,-0.0865,-0.4017,0.0367,-0.0037,-0.0208,-0.0139,12,2019-08-07 16:48:42:536
-6.7543,-6.4481,1.3471,-0.0865,-0.4017,0.0367,-0.0154,-0.057,-0.0075,18,2019-08-07 16:48:42:542
-6.7543,-6.4481,1.3471,-0.0865,-0.4017,0.0367,-0.0154,-0.057,-0.0075,22,2019-08-07 16:48:42:546
-6.7543,-6.4481,1.3471,-0.0811,-0.4016,-0.0068,-0.0239,-0.0911,0.0032,28,2019-08-07 16:48:42:552
-6.8117,-6.5293,1.4272,-0.0811,-0.4016,-0.0068,-0.0239,-0.0911,0.0032,32,2019-08-07 16:48:42:556
-6.8117,-6.5293,1.4272,-0.0811,-0.4016,-0.0068,-0.0101,-0.1295,0.017,38,2019-08-07 16:48:42:562
-6.8117,-6.5293,1.4272,-0.0811,-0.4016,-0.0068,-0.0101,-0.1295,0.017,43,2019-08-07 16:48:42:567
-6.6203,-6.6581,1.4225,-0.2618,-0.1848,0.0083,0.0123,-0.1199,0.0277,48,2019-08-07 16:48:42:572
-6.6203,-6.6581,1.4225,-0.2618,-0.1848,0.0083,0.0123,-0.1199,0.0277,53,2019-08-07 16:48:42:577
-6.5246,-6.5627,1.3471,-0.2618,-0.1848,0.0083,0.0443,-0.0592,0.0256,58,2019-08-07 16:48:42:582
-6.5246,-6.5627,1.3471,-0.2618,-0.1848,0.0083,0.0443,-0.0592,0.0256,62,2019-08-07 16:48:42:586
-6.5246,-6.5627,1.3471,-0.382,-0.2763,0.1421,0.0443,-0.0592,0.0256,68,2019-08-07 16:48:42:592
-6.5294,-6.4529,1.1538,-0.382,-0.2763,0.1421,0.0549,-0.0198,0.017,72,2019-08-07 16:48:42:596
-6.5294,-6.4529,1.1538,-0.382,-0.2763,0.1421,0.0549,-0.0198,0.017,78,2019-08-07 16:48:42:602
-6.5294,-6.4529,1.1538,-0.382,-0.2763,0.1421,0.0091,-0.0315,-0.0043,83,2019-08-07 16:48:42:607
-6.7207,-6.367,1.1444,-0.1631,-0.4695,0.309,0.0091,-0.0315,-0.0043,88,2019-08-07 16:48:42:612
-6.7207,-6.367,1.1444,-0.1631,-0.4695,0.309,-0.0559,-0.0496,-0.0117,92,2019-08-07 16:48:42:616
-6.936,-6.4338,1.4131,-0.1631,-0.4695,0.309,-0.0559,-0.0496,-0.0117,98,2019-08-07 16:48:42:622
-6.936,-6.4338,1.4131,-0.1631,-0.4695,0.309,-0.1091,-0.155,-0.0064,103,2019-08-07 16:48:42:627
-6.582,-6.6916,1.4131,-0.1084,-0.2327,0.0507,-0.1091,-0.155,-0.0064,108,2019-08-07 16:48:42:632
-6.582,-6.6916,1.4131,-0.1084,-0.2327,0.0507,-0.1251,-0.2051,-0.0501,113,2019-08-07 16:48:42:637
-6.582,-6.6916,1.4131,-0.1084,-0.2327,0.0507,-0.1251,-0.2051,-0.0501,117,2019-08-07 16:48:42:641
-6.4241,-6.5722,1.4649,-0.1084,-0.2327,0.0507,-0.1251,-0.2051,-0.0501,122,2019-08-07 16:48:42:646
-6.4241,-6.5722,1.4649,-0.2726,-0.3868,0.0647,-0.0548,-0.1124,-0.0756,127,2019-08-07 16:48:42:651
-6.4241,-6.5722,1.4649,-0.2726,-0.3868,0.0647,-0.0548,-0.1124,-0.0756,133,2019-08-07 16:48:42:657
-6.5389,-6.4338,1.4979,-0.2726,-0.3868,0.0647,0.0123,-0.0272,0.0053,138,2019-08-07 16:48:42:662
-6.5389,-6.4338,1.4979,-0.2726,-0.3868,0.0647,0.0123,-0.0272,0.0053,142,2019-08-07 16:48:42:666
-6.2662,-6.577,1.1727,-0.5647,-0.247,0.3152,0.0144,-6.0E-4,-0.0032,148,2019-08-07 16:48:42:672
-6.2662,-6.577,1.1727,-0.5647,-0.247,0.3152,0.0144,-6.0E-4,-0.0032,152,2019-08-07 16:48:42:676
-6.2662,-6.577,1.1727,-0.5647,-0.247,0.3152,-0.0058,0.025,-0.0128,158,2019-08-07 16:48:42:682
-6.601,-6.3956,1.3801,-0.5647,-0.247,0.3152,-0.0058,0.025,-0.0128,162,2019-08-07 16:48:42:686
-6.601,-6.3956,1.3801,-0.2343,-0.4721,-0.0359,0.0038,0.0175,0.0085,168,2019-08-07 16:48:42:692
-6.601,-6.3956,1.3801,-0.2343,-0.4721,-0.0359,0.0038,0.0175,0.0085,172,2019-08-07 16:48:42:696
-6.6441,-6.4338,1.5074,-0.2343,-0.4721,-0.0359,0.0038,0.0175,0.0085,177,2019-08-07 16:48:42:701
-6.6441,-6.4338,1.5074,-0.2343,-0.4721,-0.0359,0.0176,-6.0E-4,0.0096,183,2019-08-07 16:48:42:707
-6.6536,-6.4768,1.3895,-0.1645,-0.3982,0.0411,0.0176,-6.0E-4,0.0096,188,2019-08-07 16:48:42:712
-6.6536,-6.4768,1.3895,-0.1645,-0.3982,0.0411,0.0123,-0.0208,0.0032,192,2019-08-07 16:48:42:716
-6.6536,-6.4768,1.3895,-0.1645,-0.3982,0.0411,0.0123,-0.0208,0.0032,198,2019-08-07 16:48:42:722
-6.6249,-6.4242,1.4084,-0.1645,-0.3982,0.0411,0.0123,-0.0208,0.0032,202,2019-08-07 16:48:42:726
-6.6249,-6.4242,1.4084,-0.3091,-0.3821,0.0967,6.0E-4,-0.0144,0.0085,208,2019-08-07 16:48:42:732
-6.6249,-6.4242,1.4084,-0.3091,-0.3821,0.0967,6.0E-4,-0.0144,0.0085,212,2019-08-07 16:48:42:736
-6.5531,-6.5436,1.3707,-0.3091,-0.3821,0.0967,-0.0037,-0.0048,0.0021,218,2019-08-07 16:48:42:742
-6.5531,-6.5436,1.3707,-0.3091,-0.3821,0.0967,-0.0037,-0.0048,0.0021,223,2019-08-07 16:48:42:747
-6.5723,-6.4815,1.4461,-0.3288,-0.3098,0.0642,-0.0069,-0.0038,0.0043,228,2019-08-07 16:48:42:752
-6.5723,-6.4815,1.4461,-0.3288,-0.3098,0.0642,-0.0069,-0.0038,0.0043,233,2019-08-07 16:48:42:757
-6.5723,-6.4815,1.4461,-0.3288,-0.3098,0.0642,-0.0069,0.0037,0.0064,237,2019-08-07 16:48:42:761
-6.5388,-6.515,1.3942,-0.3288,-0.3098,0.0642,-0.0069,0.0037,0.0064,243,2019-08-07 16:48:42:767
-6.5388,-6.515,1.3942,-0.3061,-0.328,0.124,-0.0058,0.0079,0.0117,248,2019-08-07 16:48:42:772
-6.51,-6.5197,1.3283,-0.3061,-0.328,0.124,-0.0058,0.0079,0.0117,253,2019-08-07 16:48:42:777
-6.51,-6.5197,1.3283,-0.3313,-0.3081,0.1316,-0.009,0.0207,0.0224,258,2019-08-07 16:48:42:782
-6.51,-6.5197,1.3283,-0.3313,-0.3081,0.1316,-0.009,0.0207,0.0224,263,2019-08-07 16:48:42:787
-6.6153,-6.5818,1.4178,-0.3313,-0.3081,0.1316,-0.009,0.0207,0.0224,267,2019-08-07 16:48:42:791
-6.6153,-6.5818,1.4178,-0.3313,-0.3081,0.1316,-0.0058,0.0207,0.0234,273,2019-08-07 16:48:42:797
-6.6296,-6.5579,1.4838,-0.2446,-0.2856,-0.0181,-0.0058,0.0207,0.0234,277,2019-08-07 16:48:42:801
-6.6296,-6.5579,1.4838,-0.2446,-0.2856,-0.0181,-0.0037,0.0154,0.0277,283,2019-08-07 16:48:42:807
-6.6296,-6.5579,1.4838,-0.2446,-0.2856,-0.0181,-0.0037,0.0154,0.0277,287,2019-08-07 16:48:42:811
-6.6727,-6.6104,1.4131,-0.2446,-0.2856,-0.0181,-0.0069,0.0101,0.0266,293,2019-08-07 16:48:42:817
-6.6727,-6.6104,1.4131,-0.1722,-0.2103,-0.0158,-0.0069,0.0101,0.0266,298,2019-08-07 16:48:42:822
-6.6727,-6.6104,1.4131,-0.1722,-0.2103,-0.0158,-0.0037,0.0026,0.0224,302,2019-08-07 16:48:42:826
-6.6822,-6.6248,1.399,-0.1722,-0.2103,-0.0158,-0.0037,0.0026,0.0224,308,2019-08-07 16:48:42:832
-6.6822,-6.6248,1.399,-0.1722,-0.2103,-0.0158,6.0E-4,0.0069,0.017,312,2019-08-07 16:48:42:836
-6.6679,-6.6677,1.3566,-0.2136,-0.1693,0.1053,6.0E-4,0.0069,0.017,318,2019-08-07 16:48:42:842
-6.6679,-6.6677,1.3566,-0.2136,-0.1693,0.1053,6.0E-4,0.0069,0.017,322,2019-08-07 16:48:42:846
-6.6679,-6.6677,1.3566,-0.2136,-0.1693,0.1053,0.0102,0.0122,0.0128,328,2019-08-07 16:48:42:852
-6.7396,-6.6152,1.4131,-0.2136,-0.1693,0.1053,0.0102,0.0122,0.0128,333,2019-08-07 16:48:42:857
-6.7396,-6.6152,1.4131,-0.1483,-0.2393,0.0671,0.0144,0.0122,-0.0011,337,2019-08-07 16:48:42:861
-6.7587,-6.5866,1.3566,-0.1483,-0.2393,0.0671,0.0144,0.0122,-0.0011,343,2019-08-07 16:48:42:867
-6.7587,-6.5866,1.3566,-0.1483,-0.2393,0.0671,0.0144,0.0122,-0.0011,347,2019-08-07 16:48:42:871
-6.7587,-6.5866,1.3566,-0.1483,-0.2393,0.0671,0.0166,0.0154,-0.0043,353,2019-08-07 16:48:42:877
-6.7683,-6.5197,1.4084,-0.1483,-0.2393,0.0671,0.0155,0.0069,-0.0032,358,2019-08-07 16:48:42:882
-6.7683,-6.5197,1.4084,-0.1201,-0.2674,0.0341,0.0155,0.0069,-0.0032,363,2019-08-07 16:48:42:887
-6.7204,-6.5245,1.4367,-0.1201,-0.2674,0.0341,0.0155,0.0069,-0.0032,368,2019-08-07 16:48:42:892
-6.7204,-6.5245,1.4367,-0.1201,-0.2674,0.0341,0.0187,-0.0176,-0.0011,373,2019-08-07 16:48:42:897
-6.7204,-6.5245,1.4367,-0.1918,-0.3192,0.0239,0.0187,-0.0176,-0.0011,378,2019-08-07 16:48:42:902
-6.6487,-6.4863,1.4414,-0.1918,-0.3192,0.0239,0.0166,-0.0368,0.0021,383,2019-08-07 16:48:42:907
-6.6487,-6.4863,1.4414,-0.1918,-0.3192,0.0239,0.0166,-0.0368,0.0021,387,2019-08-07 16:48:42:911
-6.6487,-6.4863,1.4414,-0.1918,-0.3192,0.0239,0.0208,-0.0304,0.0064,393,2019-08-07 16:48:42:917
-6.5386,-6.5388,1.3943,-0.1918,-0.3192,0.0239,0.0208,-0.0304,0.0064,398,2019-08-07 16:48:42:922
-6.5386,-6.5388,1.3943,-0.3155,-0.2993,0.0971,0.0208,-0.0304,0.0064,403,2019-08-07 16:48:42:927
-6.6056,-6.4672,1.4273,-0.3155,-0.2993,0.0971,0.0187,-0.0176,0.0,408,2019-08-07 16:48:42:932
-6.6056,-6.4672,1.4273,-0.3155,-0.2993,0.0971,0.0187,-0.0176,0.0,413,2019-08-07 16:48:42:937
-6.6056,-6.4672,1.4273,-0.3155,-0.2993,0.0971,0.0187,-0.0027,0.0011,418,2019-08-07 16:48:42:942
-6.6199,-6.515,1.3236,-0.2675,-0.3177,0.1482,0.0187,-0.0027,0.0011,423,2019-08-07 16:48:42:947
-6.6199,-6.515,1.3236,-0.2675,-0.3177,0.1482,0.0198,0.0143,-0.0053,427,2019-08-07 16:48:42:951
-6.6199,-6.515,1.3236,-0.2675,-0.3177,0.1482,0.0198,0.0143,-0.0053,433,2019-08-07 16:48:42:957
-6.7156,-6.4959,1.4556,-0.2675,-0.3177,0.1482,0.0155,0.0175,-0.0075,438,2019-08-07 16:48:42:962
-6.7156,-6.4959,1.4556,-0.2199,-0.2983,0.0682,0.0155,0.0175,-0.0075,442,2019-08-07 16:48:42:966
-6.7012,-6.5054,1.3896,-0.2199,-0.2983,0.0682,0.0112,0.0271,-0.0245,448,2019-08-07 16:48:42:972
-6.7012,-6.5054,1.3896,-0.2199,-0.2983,0.0682,0.0112,0.0271,-0.0245,452,2019-08-07 16:48:42:976
-6.7012,-6.5054,1.3896,-0.2199,-0.2983,0.0682,0.0091,0.0218,-0.0224,458,2019-08-07 16:48:42:982
-6.7828,-6.4481,1.4225,-0.0988,-0.3859,0.0526,0.0091,0.0218,-0.0224,462,2019-08-07 16:48:42:986
-6.7828,-6.4481,1.4225,-0.0988,-0.3859,0.0526,0.0091,0.0218,-0.0224,468,2019-08-07 16:48:42:992
-6.6823,-6.5197,1.4744,-0.0988,-0.3859,0.0526,0.0038,-6.0E-4,-0.0171,472,2019-08-07 16:48:42:996
-6.6823,-6.5197,1.4744,-0.0988,-0.3859,0.0526,0.0038,-6.0E-4,-0.0171,478,2019-08-07 16:48:43:002
-6.6823,-6.5197,1.4744,-0.1642,-0.3539,-0.0643,0.0038,-0.023,-0.0181,483,2019-08-07 16:48:43:007
-6.7206,-6.429,1.4225,-0.1642,-0.3539,-0.0643,0.0038,-0.023,-0.0181,487,2019-08-07 16:48:43:011
-6.7206,-6.429,1.4225,-0.2394,-0.3738,0.0419,0.0038,-0.0432,-0.0139,493,2019-08-07 16:48:43:017
-6.5723,-6.4911,1.3707,-0.2394,-0.3738,0.0419,0.0038,-0.0432,-0.0139,497,2019-08-07 16:48:43:021
-6.5723,-6.4911,1.3707,-0.2394,-0.3738,0.0419,0.0038,-0.0389,-0.0075,503,2019-08-07 16:48:43:027
-6.5723,-6.4911,1.3707,-0.2394,-0.3738,0.0419,0.0038,-0.0389,-0.0075,508,2019-08-07 16:48:43:032
-6.5053,-6.5102,1.3094,-0.371,-0.3272,0.175,0.0048,-0.0187,-0.0032,513,2019-08-07 16:48:43:037
-6.5053,-6.5102,1.3094,-0.371,-0.3272,0.175,0.0048,-0.0187,-0.0032,517,2019-08-07 16:48:43:041
-6.5053,-6.5102,1.3094,-0.371,-0.3272,0.175,0.0048,-0.0187,-0.0032,523,2019-08-07 16:48:43:047
-6.4431,-6.4815,1.3754,-0.371,-0.3272,0.175,0.0112,-0.0048,0.0053,528,2019-08-07 16:48:43:052
-6.4431,-6.4815,1.3754,-0.433,-0.3077,0.1634,0.0112,-0.0048,0.0053,533,2019-08-07 16:48:43:057
-6.4957,-6.5341,1.3471,-0.433,-0.3077,0.1634,0.0112,0.0186,0.0106,537,2019-08-07 16:48:43:061
-6.4957,-6.5341,1.3471,-0.433,-0.3077,0.1634,0.0112,0.0186,0.0106,543,2019-08-07 16:48:43:067
-6.4957,-6.5341,1.3471,-0.433,-0.3077,0.1634,0.0059,0.0282,0.0064,547,2019-08-07 16:48:43:071
-6.6727,-6.5293,1.3895,-0.2053,-0.3063,0.0949,0.0059,0.0282,0.0064,553,2019-08-07 16:48:43:077
-6.6727,-6.5293,1.3895,-0.2053,-0.3063,0.0949,0.0059,0.0282,0.0064,557,2019-08-07 16:48:43:081
-6.6631,-6.6104,1.3801,-0.2053,-0.3063,0.0949,0.0102,0.026,0.0096,563,2019-08-07 16:48:43:087
-6.6631,-6.6104,1.3801,-0.2053,-0.3063,0.0949,0.0102,0.026,0.0096,567,2019-08-07 16:48:43:091
-6.6631,-6.6104,1.3801,-0.1884,-0.3095,0.1347,0.0123,0.025,-0.0021,573,2019-08-07 16:48:43:097
-6.7109,-6.5436,1.399,-0.1884,-0.3095,0.1347,0.0123,0.025,-0.0021,577,2019-08-07 16:48:43:101
-6.7109,-6.5436,1.399,-0.1884,-0.3095,0.1347,0.008,0.0271,-0.0064,583,2019-08-07 16:48:43:107
-6.7109,-6.5436,1.399,-0.1884,-0.3095,0.1347,0.008,0.0271,-0.0064,588,2019-08-07 16:48:43:112
-6.6966,-6.5197,1.3566,-0.179,-0.3099,0.0943,0.0059,0.0207,-0.016,593,2019-08-07 16:48:43:117
-6.6966,-6.5197,1.3566,-0.179,-0.3099,0.0943,0.0059,0.0207,-0.016,597,2019-08-07 16:48:43:121
-6.6966,-6.5197,1.3566,-0.179,-0.3099,0.0943,0.0091,0.0058,-0.0192,603,2019-08-07 16:48:43:127
-6.7157,-6.5293,1.399,-0.179,-0.3099,0.0943,0.0091,0.0058,-0.0192,607,2019-08-07 16:48:43:131
-6.7157,-6.5293,1.399,-0.187,-0.3209,0.0477,0.0134,-0.0166,-0.016,613,2019-08-07 16:48:43:137
-6.6056,-6.4625,1.4838,-0.187,-0.3209,0.0477,0.0134,-0.0166,-0.016,617,2019-08-07 16:48:43:141
-6.6056,-6.4625,1.4838,-0.187,-0.3209,0.0477,0.0102,-0.0325,-0.0096,623,2019-08-07 16:48:43:147
-6.6056,-6.4625,1.4838,-0.187,-0.3209,0.0477,0.0102,-0.0325,-0.0096,627,2019-08-07 16:48:43:151
-6.5578,-6.5197,1.366,-0.3665,-0.2552,0.0579,0.0123,-0.0325,-0.0064,633,2019-08-07 16:48:43:157
-6.5578,-6.5197,1.366,-0.3665,-0.2552,0.0579,0.0123,-0.0325,-0.0064,638,2019-08-07 16:48:43:162
-6.486,-6.5006,1.4603,-0.3665,-0.2552,0.0579,0.0123,-0.0325,-0.0064,643,2019-08-07 16:48:43:167
-6.486,-6.5006,1.4603,-0.3896,-0.3365,0.0279,0.0155,-0.0198,0.0011,648,2019-08-07 16:48:43:172
-6.486,-6.5006,1.4603,-0.3896,-0.3365,0.0279,0.0155,-0.0198,0.0011,652,2019-08-07 16:48:43:176
-6.5147,-6.5341,1.4273,-0.3896,-0.3365,0.0279,0.023,-6.0E-4,0.0075,658,2019-08-07 16:48:43:182
-6.5147,-6.5341,1.4273,-0.3183,-0.3783,0.0786,0.023,-6.0E-4,0.0075,662,2019-08-07 16:48:43:186
-6.5386,-6.4434,1.3189,-0.3183,-0.3783,0.0786,0.024,0.0207,0.0096,667,2019-08-07 16:48:43:191
-6.5386,-6.4434,1.3189,-0.3183,-0.3783,0.0786,0.024,0.0207,0.0096,673,2019-08-07 16:48:43:197
-6.5386,-6.4434,1.3189,-0.3183,-0.3783,0.0786,0.0219,0.0367,0.0096,677,2019-08-07 16:48:43:201
-6.7061,-6.3861,1.4131,-0.1682,-0.4091,0.0908,0.0219,0.0367,0.0096,683,2019-08-07 16:48:43:207
-6.7061,-6.3861,1.4131,-0.1682,-0.4091,0.0908,0.0208,0.0495,0.0043,687,2019-08-07 16:48:43:211
-6.7826,-6.4243,1.4273,-0.1682,-0.4091,0.0908,0.0208,0.0495,0.0043,693,2019-08-07 16:48:43:217
-6.7826,-6.4243,1.4273,-0.1682,-0.4091,0.0908,0.0166,0.042,-0.0053,698,2019-08-07 16:48:43:222
-6.7826,-6.4243,1.4273,-0.0899,-0.4785,0.0541,0.0166,0.042,-0.0053,703,2019-08-07 16:48:43:227
-6.8304,-6.367,1.4791,-0.0899,-0.4785,0.0541,0.0166,0.042,-0.0053,708,2019-08-07 16:48:43:232
-6.8304,-6.367,1.4791,-0.0899,-0.4785,0.0541,0.0144,0.026,-0.0043,713,2019-08-07 16:48:43:237
-6.8304,-6.3765,1.4791,-0.0899,-0.4785,0.0541,0.0144,0.026,-0.0043,717,2019-08-07 16:48:43:241
-6.7491,-6.3765,1.4791,-0.0899,-0.4785,0.0541,0.0102,0.0026,-0.0021,723,2019-08-07 16:48:43:247
-6.7491,-6.3765,1.4791,-0.1106,-0.434,0.0159,0.0102,0.0026,-0.0021,727,2019-08-07 16:48:43:251
-6.706,-6.3956,1.5027,-0.1106,-0.434,0.0159,0.0091,-0.0187,-0.0032,733,2019-08-07 16:48:43:257
-6.706,-6.3956,1.5027,-0.1106,-0.434,0.0159,0.0091,-0.0187,-0.0032,738,2019-08-07 16:48:43:262
-6.706,-6.3956,1.5027,-0.1106,-0.434,0.0159,0.0091,-0.04,0.0,743,2019-08-07 16:48:43:267
-6.6438,-6.3861,1.5074,-0.2397,-0.4426,-0.0167,0.0091,-0.04,0.0,748,2019-08-07 16:48:43:272
-6.6438,-6.3861,1.5074,-0.2397,-0.4426,-0.0167,0.0091,-0.04,0.0,753,2019-08-07 16:48:43:277
-6.4955,-6.3718,1.4179,-0.2397,-0.4426,-0.0167,0.007,-0.0507,0.0064,757,2019-08-07 16:48:43:281
-6.4955,-6.3718,1.4179,-0.2397,-0.4426,-0.0167,0.007,-0.0507,0.0064,763,2019-08-07 16:48:43:287
-6.4955,-6.3718,1.4179,-0.3972,-0.4555,0.02,0.0027,-0.0475,0.0128,768,2019-08-07 16:48:43:292
-6.4764,-6.3527,1.4697,-0.3972,-0.4555,0.02,0.0027,-0.0475,0.0128,773,2019-08-07 16:48:43:297
-6.4764,-6.3527,1.4697,-0.3972,-0.4555,0.02,-0.0037,-0.0283,0.0288,778,2019-08-07 16:48:43:302
-6.4764,-6.3527,1.4697,-0.3972,-0.4555,0.02,-0.0037,-0.0283,0.0288,782,2019-08-07 16:48:43:306
-6.4811,-6.3813,1.4273,-0.4049,-0.4421,0.0759,-0.0122,-0.007,0.0383,788,2019-08-07 16:48:43:312
-6.4811,-6.3813,1.4273,-0.4049,-0.4421,0.0759,-0.0122,-0.007,0.0383,792,2019-08-07 16:48:43:316
-6.5098,-6.3861,1.4226,-0.4049,-0.4421,0.0759,-0.0165,-6.0E-4,0.0437,798,2019-08-07 16:48:43:322
-6.5098,-6.3861,1.4226,-0.4049,-0.4421,0.0759,-0.0165,-6.0E-4,0.0437,803,2019-08-07 16:48:43:327
-6.6199,-6.3813,1.4367,-0.3155,-0.3981,0.0787,-0.0175,0.0122,0.0469,808,2019-08-07 16:48:43:332
-6.6199,-6.3813,1.4367,-0.3155,-0.3981,0.0787,-0.0175,0.0122,0.0469,813,2019-08-07 16:48:43:337
-6.6199,-6.3813,1.4367,-0.3155,-0.3981,0.0787,-0.0207,0.0282,0.0479,817,2019-08-07 16:48:43:341
-6.6151,-6.4672,1.399,-0.3155,-0.3981,0.0787,-0.0207,0.0282,0.0479,823,2019-08-07 16:48:43:347
-6.6151,-6.4672,1.399,-0.2277,-0.3295,0.1191,-0.0292,0.041,0.0469,827,2019-08-07 16:48:43:351
-6.6151,-6.4672,1.399,-0.2277,-0.3295,0.1191,-0.0292,0.041,0.0469,833,2019-08-07 16:48:43:357
-6.7442,-6.4481,1.3802,-0.2277,-0.3295,0.1191,-0.0356,0.0474,0.0405,837,2019-08-07 16:48:43:361
-6.7442,-6.4481,1.3802,-0.2277,-0.3295,0.1191,-0.0356,0.0474,0.0405,843,2019-08-07 16:48:43:367
-6.7825,-6.4291,1.4933,-0.0827,-0.3523,-0.0191,-0.0271,0.0378,0.0341,848,2019-08-07 16:48:43:372
-6.7825,-6.4291,1.4933,-0.0827,-0.3523,-0.0191,-0.0271,0.0378,0.0341,852,2019-08-07 16:48:43:376
-6.7825,-6.4291,1.4933,-0.0827,-0.3523,-0.0191,-0.025,0.026,0.0277,858,2019-08-07 16:48:43:382
-6.8447,-6.5054,1.4226,-0.0827,-0.3523,-0.0191,-0.025,0.026,0.0277,863,2019-08-07 16:48:43:387
-6.8447,-6.5054,1.4226,-0.0888,-0.2858,0.072,-0.0271,0.0079,0.0202,867,2019-08-07 16:48:43:391
-6.8447,-6.5054,1.4226,-0.0888,-0.2858,0.072,-0.0271,0.0079,0.0202,873,2019-08-07 16:48:43:397
-6.8255,-6.5389,1.4556,-0.0888,-0.2858,0.072,-0.026,-0.0155,0.0192,877,2019-08-07 16:48:43:401
-6.8255,-6.5389,1.4556,-0.0888,-0.2858,0.072,-0.026,-0.0155,0.0192,883,2019-08-07 16:48:43:407
-6.6772,-6.5914,1.5122,-0.2212,-0.2067,-0.0391,-0.026,-0.0155,0.0192,887,2019-08-07 16:48:43:411
-6.6772,-6.5914,1.5122,-0.2212,-0.2067,-0.0391,-0.0154,-0.0347,0.0224,893,2019-08-07 16:48:43:417
-6.6772,-6.5914,1.5122,-0.2212,-0.2067,-0.0391,-0.0154,-0.0347,0.0224,898,2019-08-07 16:48:43:422
-6.5719,-6.5245,1.4792,-0.2212,-0.2067,-0.0391,-0.0218,-0.0485,0.0277,903,2019-08-07 16:48:43:427
-6.5719,-6.5245,1.4792,-0.4094,-0.2186,0.0728,-0.0218,-0.0485,0.0277,908,2019-08-07 16:48:43:432
-6.5719,-6.5245,1.4792,-0.4094,-0.2186,0.0728,-0.0218,-0.0485,0.0277,912,2019-08-07 16:48:43:436
-6.4667,-6.5914,1.3943,-0.4094,-0.2186,0.0728,-0.0239,-0.0315,0.0298,917,2019-08-07 16:48:43:441
-6.4667,-6.5914,1.3943,-0.4094,-0.2186,0.0728,-0.0239,-0.0315,0.0298,923,2019-08-07 16:48:43:447
-6.4954,-6.5723,1.366,-0.4263,-0.2207,0.1111,-0.0229,-0.007,0.032,927,2019-08-07 16:48:43:451
-6.4954,-6.5723,1.366,-0.4263,-0.2207,0.1111,-0.0229,-0.007,0.032,933,2019-08-07 16:48:43:457
-6.4954,-6.5723,1.366,-0.4263,-0.2207,0.1111,-0.0175,0.0197,0.0351,937,2019-08-07 16:48:43:461
-6.5671,-6.6105,1.3519,-0.4263,-0.2207,0.1111,-0.0175,0.0197,0.0351,943,2019-08-07 16:48:43:467
-6.5671,-6.6105,1.3519,-0.3306,-0.136,0.0865,-0.0175,0.0399,0.0341,948,2019-08-07 16:48:43:472
-6.6341,-6.5961,1.3283,-0.3306,-0.136,0.0865,-0.0175,0.0399,0.0341,953,2019-08-07 16:48:43:477
-6.6341,-6.5961,1.3283,-0.3306,-0.136,0.0865,-0.0143,0.0505,0.0309,958,2019-08-07 16:48:43:482
-6.6341,-6.5961,1.3283,-0.3306,-0.136,0.0865,-0.0143,0.0505,0.0309,963,2019-08-07 16:48:43:487
-6.725,-6.6057,1.4226,-0.1783,-0.1945,0.0862,-0.0143,0.0505,0.0309,968,2019-08-07 16:48:43:492
-6.725,-6.6057,1.4226,-0.1783,-0.1945,0.0862,-0.0133,0.0559,0.0256,973,2019-08-07 16:48:43:497
-6.8015,-6.6057,1.3566,-0.1783,-0.1945,0.0862,-0.0133,0.0559,0.0256,977,2019-08-07 16:48:43:501
-6.8015,-6.6057,1.3566,-0.1783,-0.1945,0.0862,-0.0079,0.0495,0.0181,983,2019-08-07 16:48:43:507
-6.8015,-6.6057,1.3566,-0.0778,-0.1964,0.0394,-0.0079,0.0495,0.0181,988,2019-08-07 16:48:43:512
-6.8111,-6.6248,1.4509,-0.0778,-0.1964,0.0394,-0.0037,0.0324,0.0149,993,2019-08-07 16:48:43:517
-6.8111,-6.6248,1.4509,-0.0778,-0.1964,0.0394,-0.0037,0.0324,0.0149,998,2019-08-07 16:48:43:522
-6.8111,-6.6248,1.4509,-0.0778,-0.1964,0.0394,0.0155,0.0047,0.0085,1003,2019-08-07 16:48:43:527
-6.8206,-6.5866,1.5593,-0.0778,-0.1964,0.0394,0.0155,0.0047,0.0085,1007,2019-08-07 16:48:43:531
-6.8206,-6.5866,1.5593,-0.1569,-0.2562,-0.0565,0.0187,-0.0219,0.0128,1013,2019-08-07 16:48:43:537
-6.7154,-6.5293,1.4415,-0.1569,-0.2562,-0.0565,0.0187,-0.0219,0.0128,1018,2019-08-07 16:48:43:542
-6.7154,-6.5293,1.4415,-0.1569,-0.2562,-0.0565,0.0187,-0.0219,0.0128,1023,2019-08-07 16:48:43:547
-6.7154,-6.5293,1.4415,-0.2775,-0.2679,0.0355,0.0176,-0.0453,0.016,1028,2019-08-07 16:48:43:552
-6.6627,-6.4816,1.4509,-0.2775,-0.2679,0.0355,0.0176,-0.0453,0.016,1033,2019-08-07 16:48:43:557
-6.6627,-6.4816,1.4509,-0.2775,-0.2679,0.0355,0.0198,-0.0528,0.0181,1037,2019-08-07 16:48:43:561
-6.5527,-6.5007,1.4179,-0.2775,-0.2679,0.0355,0.0198,-0.0528,0.0181,1043,2019-08-07 16:48:43:567
-6.5527,-6.5007,1.4179,-0.3977,-0.2272,0.0681,0.0134,-0.0379,0.0192,1048,2019-08-07 16:48:43:572
-6.5527,-6.5007,1.4179,-0.3977,-0.2272,0.0681,0.0134,-0.0379,0.0192,1053,2019-08-07 16:48:43:577
-6.5623,-6.4673,1.3566,-0.3977,-0.2272,0.0681,0.0134,-0.0379,0.0192,1058,2019-08-07 16:48:43:582
-6.5623,-6.4673,1.3566,-0.3977,-0.2272,0.0681,0.0102,-0.0038,0.0149,1063,2019-08-07 16:48:43:587
-6.5623,-6.4673,1.3566,-0.3977,-0.2272,0.0681,0.0102,-0.0038,0.0149,1067,2019-08-07 16:48:43:591
-6.5527,-6.4195,1.3331,-0.3899,-0.3539,0.1358,0.008,0.0324,0.0075,1073,2019-08-07 16:48:43:597
-6.5527,-6.4195,1.3331,-0.3899,-0.3539,0.1358,0.008,0.0324,0.0075,1078,2019-08-07 16:48:43:602
-6.6866,-6.5102,1.3849,-0.3899,-0.3539,0.1358,0.0038,0.058,0.0032,1083,2019-08-07 16:48:43:607
-6.6866,-6.5102,1.3849,-0.1771,-0.3291,0.1049,0.0027,0.0708,0.0,1088,2019-08-07 16:48:43:612
-6.6866,-6.5102,1.3849,-0.1771,-0.3291,0.1049,0.0027,0.0708,0.0,1092,2019-08-07 16:48:43:616
-6.7967,-6.4529,1.3896,-0.1771,-0.3291,0.1049,0.0027,0.0708,0.0,1098,2019-08-07 16:48:43:622
-6.7967,-6.4529,1.3896,-0.1771,-0.3291,0.1049,-0.0015,0.0655,-0.0096,1103,2019-08-07 16:48:43:627
-6.7967,-6.4529,1.3896,-0.1771,-0.3291,0.1049,-0.0015,0.0655,-0.0096,1108,2019-08-07 16:48:43:632
-6.9258,-6.4625,1.5216,-0.0307,-0.3433,-0.0122,-0.0058,0.041,-0.0139,1113,2019-08-07 16:48:43:637
-6.9258,-6.4625,1.5216,-0.0307,-0.3433,-0.0122,-0.0058,0.041,-0.0139,1118,2019-08-07 16:48:43:642
-6.8971,-6.4243,1.4886,-0.0307,-0.3433,-0.0122,-0.0047,0.0026,-0.016,1123,2019-08-07 16:48:43:647
-6.8971,-6.4243,1.4886,-0.0307,-0.3433,-0.0122,-0.0047,0.0026,-0.016,1128,2019-08-07 16:48:43:652
-6.8971,-6.4243,1.4886,-0.1399,-0.2873,-0.0612,-0.0037,-0.0262,-0.0128,1132,2019-08-07 16:48:43:656
-6.7536,-6.41,1.4933,-0.1399,-0.2873,-0.0612,-0.0037,-0.0262,-0.0128,1138,2019-08-07 16:48:43:662
-6.7536,-6.41,1.4933,-0.2105,-0.3071,-0.0543,-0.0058,-0.0389,-0.0149,1142,2019-08-07 16:48:43:666
-6.6531,-6.4529,1.3802,-0.2105,-0.3071,-0.0543,-0.0058,-0.0389,-0.0149,1148,2019-08-07 16:48:43:672
-6.6531,-6.4529,1.3802,-0.2105,-0.3071,-0.0543,-0.0058,-0.0389,-0.0149,1153,2019-08-07 16:48:43:677
-6.6531,-6.4529,1.3802,-0.2105,-0.3071,-0.0543,-0.0037,-0.0432,-0.0075,1158,2019-08-07 16:48:43:682
-6.6148,-6.4482,1.3708,-0.3467,-0.3705,0.0268,-0.0037,-0.0432,-0.0075,1163,2019-08-07 16:48:43:687
-6.6148,-6.4482,1.3708,-0.3467,-0.3705,0.0268,-0.0058,-0.0251,-0.0053,1168,2019-08-07 16:48:43:692
-6.5622,-6.4291,1.3472,-0.3467,-0.3705,0.0268,-0.0058,-0.0251,-0.0053,1173,2019-08-07 16:48:43:697
-6.5622,-6.4291,1.3472,-0.3467,-0.3705,0.0268,-0.0069,-0.0059,-0.0053,1178,2019-08-07 16:48:43:702
-6.5622,-6.4291,1.3472,-0.3311,-0.3906,0.104,-0.0069,-0.0059,-0.0053,1183,2019-08-07 16:48:43:707
-6.61,-6.3813,1.3991,-0.3311,-0.3906,0.104,-0.0079,0.0143,-0.0043,1187,2019-08-07 16:48:43:711
-6.61,-6.3813,1.3991,-0.3407,-0.4147,0.0885,-0.0079,0.0143,-0.0043,1193,2019-08-07 16:48:43:717
-6.7105,-6.3909,1.4085,-0.3407,-0.4147,0.0885,-0.0122,0.026,-0.0043,1198,2019-08-07 16:48:43:722
-6.7105,-6.3909,1.4085,-0.3407,-0.4147,0.0885,-0.0122,0.026,-0.0043,1203,2019-08-07 16:48:43:727
-6.7105,-6.3909,1.4085,-0.3407,-0.4147,0.0885,-0.0229,0.0292,-0.0032,1208,2019-08-07 16:48:43:732
-6.7057,-6.4243,1.4321,-0.2363,-0.353,0.0216,-0.0229,0.0292,-0.0032,1213,2019-08-07 16:48:43:737
-6.7057,-6.4243,1.4321,-0.2363,-0.353,0.0216,-0.0229,0.0292,-0.0032,1218,2019-08-07 16:48:43:742
-6.7057,-6.4243,1.4321,-0.2363,-0.353,0.0216,-0.0218,0.0229,0.0032,1222,2019-08-07 16:48:43:746
-6.7487,-6.515,1.4274,-0.2363,-0.353,0.0216,-0.0218,0.0229,0.0032,1227,2019-08-07 16:48:43:751
-6.7487,-6.515,1.4274,-0.2423,-0.2337,0.0202,-0.0218,0.0111,0.0064,1233,2019-08-07 16:48:43:757
-6.7104,-6.4768,1.4792,-0.2423,-0.2337,0.0202,-0.0218,0.0111,0.0064,1237,2019-08-07 16:48:43:761
-6.7104,-6.4768,1.4792,-0.2813,-0.2286,0.0138,-0.0197,-0.0027,0.0117,1243,2019-08-07 16:48:43:767
-6.7104,-6.4768,1.4792,-0.2813,-0.2286,0.0138,-0.0197,-0.0027,0.0117,1247,2019-08-07 16:48:43:771
-6.6769,-6.5007,1.3802,-0.2813,-0.2286,0.0138,-0.0186,-0.0102,0.0138,1253,2019-08-07 16:48:43:777
-6.6769,-6.5007,1.3802,-0.2813,-0.2286,0.0138,-0.0186,-0.0102,0.0138,1257,2019-08-07 16:48:43:781
-6.6721,-6.4864,1.3944,-0.2733,-0.2894,0.05,-0.0218,-0.0091,0.0128,1263,2019-08-07 16:48:43:787
-6.6721,-6.4864,1.3944,-0.2733,-0.2894,0.05,-0.0218,-0.0091,0.0128,1268,2019-08-07 16:48:43:792
-6.6721,-6.4864,1.3944,-0.2733,-0.2894,0.05,-0.0218,-0.0091,0.0128,1272,2019-08-07 16:48:43:796
-6.7152,-6.515,1.3944,-0.2733,-0.2894,0.05,-0.0292,-0.0027,0.0075,1278,2019-08-07 16:48:43:802
-6.7152,-6.515,1.3944,-0.2122,-0.1981,0.0427,-0.0292,-0.0027,0.0075,1283,2019-08-07 16:48:43:807
-6.7678,-6.5723,1.4227,-0.2122,-0.1981,0.0427,-0.041,-0.008,0.0032,1288,2019-08-07 16:48:43:812
-6.7678,-6.5723,1.4227,-0.1599,-0.2126,0.0358,-0.041,-0.008,0.0032,1293,2019-08-07 16:48:43:817
-6.7678,-6.5723,1.4227,-0.1599,-0.2126,0.0358,-0.0537,-0.0091,-0.0032,1298,2019-08-07 16:48:43:822
-6.7247,-6.5293,1.4132,-0.1599,-0.2126,0.0358,-0.0537,-0.0091,-0.0032,1303,2019-08-07 16:48:43:827
-6.7247,-6.5293,1.4132,-0.1599,-0.2126,0.0358,-0.0537,-0.0091,-0.0032,1308,2019-08-07 16:48:43:832
-6.7247,-6.5293,1.4132,-0.245,-0.1676,0.0797,-0.0601,0.009,-0.0149,1313,2019-08-07 16:48:43:837
-6.7152,-6.6057,1.3472,-0.245,-0.1676,0.0797,-0.0601,0.009,-0.0149,1318,2019-08-07 16:48:43:842
-6.7152,-6.6057,1.3472,-0.245,-0.1676,0.0797,-0.0676,0.0356,-0.0245,1323,2019-08-07 16:48:43:847
-6.7295,-6.6009,1.3614,-0.245,-0.1676,0.0797,-0.0676,0.0356,-0.0245,1328,2019-08-07 16:48:43:852
-6.7295,-6.6009,1.3614,-0.1897,-0.1591,-0.0526,-0.0633,0.0527,-0.032,1332,2019-08-07 16:48:43:856
-6.7295,-6.6009,1.3614,-0.1897,-0.1591,-0.0526,-0.0633,0.0527,-0.032,1338,2019-08-07 16:48:43:862
-6.806,-6.5723,1.4462,-0.1897,-0.1591,-0.0526,-0.0484,0.0644,-0.0405,1342,2019-08-07 16:48:43:866
-6.806,-6.5723,1.4462,-0.1897,-0.1591,-0.0526,-0.0484,0.0644,-0.0405,1348,2019-08-07 16:48:43:872
-6.806,-6.5723,1.4462,-0.1147,-0.3704,-0.1509,-0.0292,0.0378,-0.0384,1352,2019-08-07 16:48:43:876
-6.8299,-6.4148,1.5169,-0.1147,-0.3704,-0.1509,-0.0292,0.0378,-0.0384,1358,2019-08-07 16:48:43:882
-6.8299,-6.4148,1.5169,-0.1147,-0.3704,-0.1509,-0.0218,-0.0038,-0.0352,1362,2019-08-07 16:48:43:886
-6.8634,-6.3718,1.5452,-0.1147,-0.3704,-0.1509,-0.0218,-0.0038,-0.0352,1368,2019-08-07 16:48:43:892
-6.8634,-6.3718,1.5452,-0.1147,-0.3704,-0.1509,-0.0218,-0.0038,-0.0352,1373,2019-08-07 16:48:43:897
-6.8634,-6.3718,1.5452,-0.1399,-0.4125,-0.1522,-0.0122,-0.0517,-0.0245,1377,2019-08-07 16:48:43:901
-6.8156,-6.3479,1.5688,-0.1399,-0.4125,-0.1522,-0.0122,-0.0517,-0.0245,1383,2019-08-07 16:48:43:907
-6.8156,-6.3479,1.5688,-0.1399,-0.4125,-0.1522,6.0E-4,-0.1167,-0.0075,1388,2019-08-07 16:48:43:912
-6.6529,-6.3479,1.5452,-0.1399,-0.4125,-0.1522,6.0E-4,-0.1167,-0.0075,1393,2019-08-07 16:48:43:917
-6.6529,-6.3479,1.5452,-0.2512,-0.4419,-0.0677,0.0059,-0.1391,0.0106,1398,2019-08-07 16:48:43:922
-6.6529,-6.3479,1.5452,-0.2512,-0.4419,-0.0677,0.0059,-0.1391,0.0106,1403,2019-08-07 16:48:43:927
-6.5572,-6.3479,1.4745,-0.2512,-0.4419,-0.0677,0.0059,-0.1391,0.0106,1407,2019-08-07 16:48:43:931
-6.5572,-6.3479,1.4745,-0.4027,-0.4771,-0.0883,0.0048,-0.1433,0.0245,1413,2019-08-07 16:48:43:937
-6.5428,-6.3718,1.484,-0.4027,-0.4771,-0.0883,0.0048,-0.1433,0.0245,1418,2019-08-07 16:48:43:942
-6.5428,-6.3718,1.484,-0.4027,-0.4771,-0.0883,0.007,-0.1327,0.0373,1422,2019-08-07 16:48:43:946
-6.5428,-6.3718,1.484,-0.3935,-0.4983,-0.0633,0.007,-0.1327,0.0373,1428,2019-08-07 16:48:43:952
-6.5428,-6.3623,1.5877,-0.3935,-0.4983,-0.0633,0.0038,-0.1092,0.049,1433,2019-08-07 16:48:43:957
-6.5428,-6.3623,1.5877,-0.3935,-0.4983,-0.0633,0.0038,-0.1092,0.049,1437,2019-08-07 16:48:43:961
-6.5428,-6.3623,1.5877,-0.3935,-0.4983,-0.0633,0.0016,-0.0922,0.0554,1443,2019-08-07 16:48:43:967
-6.7055,-6.3623,1.8705,-0.2298,-0.419,-0.4036,0.0016,-0.0922,0.0554,1448,2019-08-07 16:48:43:972
-6.7055,-6.3623,1.8705,-0.2298,-0.419,-0.4036,0.0016,-0.0922,0.0554,1452,2019-08-07 16:48:43:976
-7.0511,-6.491,2.5019,-0.2298,-0.419,-0.4036,0.0112,-0.1156,0.0735,1458,2019-08-07 16:48:43:982
-7.0511,-6.491,2.5019,0.3624,-0.1201,-1.4009,0.0155,-0.1817,0.0895,1463,2019-08-07 16:48:43:987
-7.0511,-6.491,2.5019,0.3624,-0.1201,-1.4009,0.0155,-0.1817,0.0895,1468,2019-08-07 16:48:43:992
-7.5534,-6.7393,3.2231,0.3624,-0.1201,-1.4009,0.0155,-0.1817,0.0895,1473,2019-08-07 16:48:43:997
-7.5534,-6.7393,3.2231,0.7797,0.0034,-1.8731,0.0166,-0.2946,0.1065,1477,2019-08-07 16:48:44:001
-8.0605,-6.7727,3.8029,0.7797,0.0034,-1.8731,0.0166,-0.2946,0.1065,1483,2019-08-07 16:48:44:007
-8.0605,-6.7727,3.8029,0.7797,0.0034,-1.8731,0.0027,-0.513,0.1193,1487,2019-08-07 16:48:44:011
-8.0605,-6.7727,3.8029,0.7797,0.0034,-1.8731,0.0027,-0.513,0.1193,1493,2019-08-07 16:48:44:017
-8.3428,-6.6534,4.2649,1.3927,-0.0838,-2.6706,-0.0399,-0.7377,0.13,1498,2019-08-07 16:48:44:022
-8.3428,-6.6534,4.2649,1.3927,-0.0838,-2.6706,-0.0399,-0.7377,0.13,1503,2019-08-07 16:48:44:027
-8.3332,-6.5531,4.675,1.3927,-0.0838,-2.6706,-0.0878,-0.9316,0.115,1508,2019-08-07 16:48:44:032
-8.3332,-6.5531,4.675,1.3927,-0.0838,-2.6706,-0.0878,-0.9316,0.115,1513,2019-08-07 16:48:44:037
-8.3332,-6.5531,4.675,1.3116,-0.1525,-3.4358,-0.0878,-0.9316,0.115,1518,2019-08-07 16:48:44:042
-8.3332,-6.5531,4.675,1.3116,-0.1525,-3.4358,-0.1336,-1.0957,0.0852,1522,2019-08-07 16:48:44:046
-8.2089,-6.5292,5.6177,1.3116,-0.1525,-3.4358,-0.1336,-1.0957,0.0852,1528,2019-08-07 16:48:44:052
-8.2089,-6.5292,5.6177,1.3116,-0.1525,-3.4358,-0.1432,-1.1223,0.0735,1533,2019-08-07 16:48:44:057
-8.5581,-6.3144,7.4373,1.5213,-0.3239,-5.1498,-0.1432,-1.1223,0.0735,1538,2019-08-07 16:48:44:062
-8.5581,-6.3144,7.4373,1.5213,-0.3239,-5.1498,-0.124,-1.1575,0.0884,1542,2019-08-07 16:48:44:066
-8.5581,-6.3144,7.4373,1.5213,-0.3239,-5.1498,-0.124,-1.1575,0.0884,1548,2019-08-07 16:48:44:072
-9.7159,-6.0089,9.648,1.5213,-0.3239,-5.1498,-0.1251,-1.3535,0.147,1553,2019-08-07 16:48:44:077
-9.7159,-6.0089,9.648,1.5213,-0.3239,-5.1498,-0.1251,-1.3535,0.147,1558,2019-08-07 16:48:44:082
-10.7972,-5.6652,11.2979,3.3323,-0.8303,-8.3935,-0.1635,-1.7529,0.2141,1562,2019-08-07 16:48:44:086
-10.7972,-5.6652,11.2979,3.3323,-0.8303,-8.3935,-0.1635,-1.7529,0.2141,1568,2019-08-07 16:48:44:092
-10.7972,-5.6652,11.2979,3.3323,-0.8303,-8.3935,-0.1635,-1.7529,0.2141,1572,2019-08-07 16:48:44:096
-12.108,-5.7225,13.2117,5.5702,-0.8254,-11.2254,-0.1667,-2.3346,0.2961,1578,2019-08-07 16:48:44:102
-12.108,-5.7225,13.2117,5.5702,-0.8254,-11.2254,-0.1667,-2.3346,0.2961,1583,2019-08-07 16:48:44:107
-12.108,-5.7225,13.2117,5.5702,-0.8254,-11.2254,-0.0026,-3.4456,0.441,1588,2019-08-07 16:48:44:112
-13.7155,-6.639,15.6629,5.5702,-0.8254,-11.2254,-0.0026,-3.4456,0.441,1593,2019-08-07 16:48:44:117
-13.7155,-6.639,15.6629,7.2649,0.0837,-13.0724,0.1657,-4.2254,0.5465,1597,2019-08-07 16:48:44:121
-13.7155,-6.639,15.6629,7.2649,0.0837,-13.0724,0.1657,-4.2254,0.5465,1603,2019-08-07 16:48:44:127
-13.7155,-6.639,15.6629,7.2649,0.0837,-13.0724,0.1657,-4.2254,0.5465,1607,2019-08-07 16:48:44:131
-14.0648,-5.7416,15.6299,7.4268,-0.7642,-12.4917,0.2232,-4.6856,0.621,1613,2019-08-07 16:48:44:137
-14.0648,-5.7416,15.6299,7.4268,-0.7642,-12.4917,0.2232,-4.6856,0.621,1618,2019-08-07 16:48:44:142
-14.261,-3.6506,16.2144,7.4268,-0.7642,-12.4917,0.1188,-5.2108,0.7329,1623,2019-08-07 16:48:44:147
-14.261,-3.6506,16.2144,8.3257,-3.4698,-12.5171,0.1188,-5.2108,0.7329,1628,2019-08-07 16:48:44:152
-14.261,-3.6506,16.2144,8.3257,-3.4698,-12.5171,-0.0836,-5.3461,0.817,1633,2019-08-07 16:48:44:157
-15.3326,-2.1087,16.648,8.3257,-3.4698,-12.5171,-0.0836,-5.3461,0.817,1637,2019-08-07 16:48:44:161
-15.3326,-2.1087,16.648,8.3257,-3.4698,-12.5171,-0.3339,-5.4526,0.9065,1643,2019-08-07 16:48:44:167
-16.8014,-1.4022,17.8642,10.7579,-4.8501,-13.3231,-0.3339,-5.4526,0.9065,1648,2019-08-07 16:48:44:172
-16.8014,-1.4022,17.8642,10.7579,-4.8501,-13.3231,-0.3339,-5.4526,0.9065,1653,2019-08-07 16:48:44:177
-16.8014,-1.4022,17.8642,10.7579,-4.8501,-13.3231,-0.9464,-5.8052,1.1398,1658,2019-08-07 16:48:44:182
-18.031,-1.0441,18.4016,12.1818,-5.1623,-13.5534,-0.9464,-5.8052,1.1398,1663,2019-08-07 16:48:44:187
-18.031,-1.0441,18.4016,12.1818,-5.1623,-13.5534,-1.4396,-6.2356,1.3007,1668,2019-08-07 16:48:44:192
-19.3753,-0.5429,17.3551,12.1818,-5.1623,-13.5534,-1.4396,-6.2356,1.3007,1673,2019-08-07 16:48:44:197
-19.3753,-0.5429,17.3551,14.2901,-5.6563,-11.5141,-1.9382,-6.7192,1.4669,1677,2019-08-07 16:48:44:201
-19.3753,-0.5429,17.3551,14.2901,-5.6563,-11.5141,-1.9382,-6.7192,1.4669,1683,2019-08-07 16:48:44:207
-19.7485,-0.3853,15.5544,14.2901,-5.6563,-11.5141,-2.3696,-7.3711,1.7119,1687,2019-08-07 16:48:44:211
-19.7485,-0.3853,15.5544,14.2901,-5.6563,-11.5141,-2.3696,-7.3711,1.7119,1693,2019-08-07 16:48:44:217
-19.2749,-0.5238,12.4056,14.4825,-5.7059,-6.5352,-2.5997,-7.7749,1.9175,1698,2019-08-07 16:48:44:222
-19.2749,-0.5238,12.4056,14.4825,-5.7059,-6.5352,-2.5997,-7.7749,1.9175,1702,2019-08-07 16:48:44:226
-18.8539,-0.5811,11.1423,14.3913,-5.6985,-5.0687,-2.7212,-7.9613,2.0911,1708,2019-08-07 16:48:44:232
-18.8539,-0.5811,11.1423,14.3913,-5.6985,-5.0687,-2.7212,-7.9613,2.0911,1712,2019-08-07 16:48:44:236
-18.8539,-0.5811,11.1423,14.3913,-5.6985,-5.0687,-2.7212,-7.9613,2.0911,1718,2019-08-07 16:48:44:242
-18.8539,-0.5811,11.1423,14.3913,-5.6985,-5.0687,-2.8032,-7.7632,2.2743,1722,2019-08-07 16:48:44:246
-18.6242,-0.118,7.8474,14.8903,-6.4996,-0.6742,-2.8032,-7.7632,2.2743,1728,2019-08-07 16:48:44:252
-18.6242,-0.118,7.8474,14.8903,-6.4996,-0.6742,-2.8671,-7.3221,2.3755,1733,2019-08-07 16:48:44:257
-19.849,0.8463,5.8487,14.8903,-6.4996,-0.6742,-2.8671,-7.3221,2.3755,1738,2019-08-07 16:48:44:262
-19.849,0.8463,5.8487,14.8903,-6.4996,-0.6742,-2.8767,-6.846,2.4256,1743,2019-08-07 16:48:44:267
-19.849,0.8463,5.8487,19.2169,-8.0529,1.4919,-2.8767,-6.846,2.4256,1748,2019-08-07 16:48:44:272
-23.1071,1.4621,5.0662,19.2169,-8.0529,1.4919,-2.9353,-6.6542,2.4746,1752,2019-08-07 16:48:44:276
-23.1071,1.4621,5.0662,19.2169,-8.0529,1.4919,-2.9353,-6.6542,2.4746,1758,2019-08-07 16:48:44:282
-27.0732,1.6149,4.2224,19.2169,-8.0529,1.4919,-2.9619,-7.0569,2.4767,1762,2019-08-07 16:48:44:286
-27.0732,1.6149,4.2224,25.6242,-8.4789,3.7672,-2.9619,-7.0569,2.4767,1768,2019-08-07 16:48:44:292
-27.0732,1.6149,4.2224,25.6242,-8.4789,3.7672,-2.9619,-7.0569,2.4767,1773,2019-08-07 16:48:44:297
-29.1687,1.7295,1.314,25.6242,-8.4789,3.7672,-2.9928,-7.613,2.498,1777,2019-08-07 16:48:44:301
-29.1687,1.7295,1.314,26.7424,-8.7718,6.8476,-2.9928,-7.613,2.498,1783,2019-08-07 16:48:44:307
-29.1687,1.7295,1.314,26.7424,-8.7718,6.8476,-3.1579,-8.3672,2.4661,1787,2019-08-07 16:48:44:311
-26.7909,1.9157,-4.55,26.7424,-8.7718,6.8476,-3.1579,-8.3672,2.4661,1793,2019-08-07 16:48:44:317
-26.7909,1.9157,-4.55,19.8705,-8.4499,14.7748,-3.4072,-9.2151,2.3851,1798,2019-08-07 16:48:44:322
-20.3418,0.9132,-9.4335,19.8705,-8.4499,14.7748,-3.4072,-9.2151,2.3851,1803,2019-08-07 16:48:44:327
-20.3418,0.9132,-9.4335,19.8705,-8.4499,14.7748,-3.6874,-10.2378,2.2903,1808,2019-08-07 16:48:44:332
-20.3418,0.9132,-9.4335,19.8705,-8.4499,14.7748,-3.6874,-10.2378,2.2903,1813,2019-08-07 16:48:44:337
-14.8495,-0.266,-12.8746,12.3719,-7.1324,19.3003,-3.6874,-10.2378,2.2903,1818,2019-08-07 16:48:44:342
-14.8495,-0.266,-12.8746,12.3719,-7.1324,19.3003,-3.8589,-10.6852,2.1518,1823,2019-08-07 16:48:44:347
-10.2758,-0.815,-10.8759,12.3719,-7.1324,19.3003,-3.8589,-10.6852,2.1518,1827,2019-08-07 16:48:44:351
-10.2758,-0.815,-10.8759,12.3719,-7.1324,19.3003,-3.7385,-10.111,1.9143,1833,2019-08-07 16:48:44:357
-10.2758,-0.815,-10.8759,12.3719,-7.1324,19.3003,-3.7385,-10.111,1.9143,1837,2019-08-07 16:48:44:361
-9.1706,-0.2135,-16.8624,9.0537,-7.8787,22.4068,-3.4008,-6.4838,1.6831,1843,2019-08-07 16:48:44:367
-9.1706,-0.2135,-16.8624,9.0537,-7.8787,22.4068,-3.4008,-6.4838,1.6831,1847,2019-08-07 16:48:44:371
-9.1706,-0.2135,-16.8624,9.0537,-7.8787,22.4068,-3.3667,-3.5639,1.2463,1853,2019-08-07 16:48:44:377
-9.5055,0.0109,-7.7506,9.0537,-7.8787,22.4068,-3.3667,-3.5639,1.2463,1857,2019-08-07 16:48:44:381
-9.5055,0.0109,-7.7506,10.7961,-8.1415,17.6849,-3.5744,-2.8747,0.9342,1863,2019-08-07 16:48:44:387
-11.113,-0.815,-12.5493,10.7961,-8.1415,17.6849,-3.5744,-2.8747,0.9342,1867,2019-08-07 16:48:44:391
-11.113,-0.815,-12.5493,10.7961,-8.1415,17.6849,-3.5744,-2.8747,0.9342,1873,2019-08-07 16:48:44:397
-11.113,-0.815,-12.5493,10.7961,-8.1415,17.6849,-3.7939,-2.2462,0.5593,1877,2019-08-07 16:48:44:401
-9.0749,-2.2758,-12.6342,8.6349,-6.1854,17.1461,-3.7939,-2.2462,0.5593,1883,2019-08-07 16:48:44:407
-9.0749,-2.2758,-12.6342,8.6349,-6.1854,17.1461,-3.9356,-2.4944,0.0149,1888,2019-08-07 16:48:44:412
-6.3479,-4.5385,-13.247,6.5616,-4.4892,17.0797,-3.9356,-2.4944,0.0149,1893,2019-08-07 16:48:44:417
-6.3479,-4.5385,-13.247,6.5616,-4.4892,17.0797,-3.8163,-3.2827,-0.2429,1897,2019-08-07 16:48:44:421
-6.3479,-4.5385,-13.247,6.5616,-4.4892,17.0797,-3.8163,-3.2827,-0.2429,1903,2019-08-07 16:48:44:427
-2.2861,-6.2667,-11.1964,6.5616,-4.4892,17.0797,-3.8163,-3.2827,-0.2429,1907,2019-08-07 16:48:44:431
-2.2861,-6.2667,-11.1964,1.628,-2.7369,14.5502,-3.4115,-4.4449,-0.375,1913,2019-08-07 16:48:44:437
-0.1236,-7.293,-13.4214,1.628,-2.7369,14.5502,-3.4115,-4.4449,-0.375,1917,2019-08-07 16:48:44:441
-0.1236,-7.293,-13.4214,1.628,-2.7369,14.5502,-2.5497,-5.1096,-0.3601,1923,2019-08-07 16:48:44:447
-0.1236,-7.293,-13.4214,1.628,-2.7369,14.5502,-2.5497,-5.1096,-0.3601,1927,2019-08-07 16:48:44:451
1.8523,-8.9161,-18.0079,-1.0328,-0.5599,20.41,-1.7464,-4.1626,-0.3079,1933,2019-08-07 16:48:44:457
1.8523,-8.9161,-18.0079,-1.0328,-0.5599,20.41,-1.7464,-4.1626,-0.3079,1938,2019-08-07 16:48:44:462
3.4263,-10.2289,-20.6241,-2.4929,0.7128,22.8168,-1.0423,-2.0565,-0.3057,1943,2019-08-07 16:48:44:467
3.4263,-10.2289,-20.6241,-2.4929,0.7128,22.8168,-1.0423,-2.0565,-0.3057,1948,2019-08-07 16:48:44:472
3.4263,-10.2289,-20.6241,-2.4929,0.7128,22.8168,-0.4447,1.0231,-0.3515,1953,2019-08-07 16:48:44:477
3.4263,-10.2289,-20.6241,-2.4929,0.7128,22.8168,-0.4447,1.0231,-0.3515,1958,2019-08-07 16:48:44:482
4.5362,-11.6993,-19.4315,-3.3263,2.4543,20.0095,-0.2338,2.458,-0.3867,1963,2019-08-07 16:48:44:487
4.5362,-11.6993,-19.4315,-3.3263,2.4543,20.0095,-0.2338,2.458,-0.3867,1968,2019-08-07 16:48:44:492
3.0005,-12.2244,-14.5904,-3.3263,2.4543,20.0095,-0.2338,2.458,-0.3867,1973,2019-08-07 16:48:44:497
3.0005,-12.2244,-14.5904,-3.3263,2.4543,20.0095,0.0453,3.7183,-0.4485,1977,2019-08-07 16:48:44:501
1.082,-11.3937,-10.7816,-0.4139,2.0855,13.4176,0.0453,3.7183,-0.4485,1983,2019-08-07 16:48:44:507
1.082,-11.3937,-10.7816,-0.4139,2.0855,13.4176,0.5322,3.7214,-0.4804,1987,2019-08-07 16:48:44:511
1.082,-11.3937,-10.7816,0.2925,1.2054,11.3475,0.5322,3.7214,-0.4804,1993,2019-08-07 16:48:44:517
0.4839,-10.2433,-8.6463,0.2925,1.2054,11.3475,1.1425,3.0418,-0.4741,1997,2019-08-07 16:48:44:521
0.4839,-10.2433,-8.6463,0.2925,1.2054,11.3475,1.1425,3.0418,-0.4741,2002,2019-08-07 16:48:44:526
0.6322,-9.3553,-8.5709,0.2925,1.2054,11.3475,1.8616,2.196,-0.4655,2008,2019-08-07 16:48:44:532
0.6322,-9.3553,-8.5709,0.1589,-0.6233,11.1799,1.8616,2.196,-0.4655,2012,2019-08-07 16:48:44:536
0.6322,-9.3553,-8.5709,0.1589,-0.6233,11.1799,1.8616,2.196,-0.4655,2018,2019-08-07 16:48:44:542
0.8954,-7.8038,-9.3109,0.1589,-0.6233,11.1799,2.6701,1.7582,-0.473,2022,2019-08-07 16:48:44:546
0.8954,-7.8038,-9.3109,0.0124,-1.6322,11.8354,2.6701,1.7582,-0.473,2028,2019-08-07 16:48:44:552
0.8954,-7.8038,-9.3109,0.0124,-1.6322,11.8354,3.3104,3.2016,-0.4496,2033,2019-08-07 16:48:44:557
1.3116,-6.8538,-12.7002,0.0124,-1.6322,11.8354,3.3104,3.2016,-0.4496,2037,2019-08-07 16:48:44:561
1.3116,-6.8538,-12.7002,0.0933,-3.1231,14.8748,3.059,4.8719,-0.3856,2043,2019-08-07 16:48:44:567
-0.382,-6.1998,-12.5163,0.0933,-3.1231,14.8748,3.059,4.8719,-0.3856,2048,2019-08-07 16:48:44:572
-0.382,-6.1998,-12.5163,0.0933,-3.1231,14.8748,3.059,4.8719,-0.3856,2053,2019-08-07 16:48:44:577
-0.382,-6.1998,-12.5163,0.0933,-3.1231,14.8748,1.5378,5.4429,-0.3334,2058,2019-08-07 16:48:44:582
-4.9223,-5.9373,-10.8146,6.2988,-3.3498,12.3997,1.5378,5.4429,-0.3334,2063,2019-08-07 16:48:44:587
-4.9223,-5.9373,-10.8146,6.2988,-3.3498,12.3997,0.8688,5.8786,-0.2748,2068,2019-08-07 16:48:44:592
-4.9223,-5.9373,-10.8146,6.2988,-3.3498,12.3997,0.8688,5.8786,-0.2748,2073,2019-08-07 16:48:44:597
-8.5344,-5.5363,-2.0752,8.8008,-3.5974,5.6448,1.2203,5.4578,-0.0011,2077,2019-08-07 16:48:44:601
-8.5344,-5.5363,-2.0752,8.8008,-3.5974,5.6448,1.2203,5.4578,-0.0011,2083,2019-08-07 16:48:44:607
-4.9319,-7.99,-1.1231,8.8008,-3.5974,5.6448,2.1961,5.999,0.2503,2087,2019-08-07 16:48:44:611
-4.9319,-7.99,-1.1231,4.4998,-0.9666,5.1352,2.1961,5.999,0.2503,2093,2019-08-07 16:48:44:617
-4.9319,-7.99,-1.1231,4.4998,-0.9666,5.1352,2.8406,5.6698,-0.0565,2097,2019-08-07 16:48:44:621
-6.2332,-7.737,-3.4564,4.4998,-0.9666,5.1352,2.8406,5.6698,-0.0565,2103,2019-08-07 16:48:44:627
-6.2332,-7.737,-3.4564,4.4998,-0.9666,5.1352,2.749,6.2195,-0.2834,2107,2019-08-07 16:48:44:631
-8.3669,-4.8584,-5.3938,7.5949,-3.9383,9.6667,2.749,6.2195,-0.2834,2113,2019-08-07 16:48:44:637
-8.3669,-4.8584,-5.3938,7.5949,-3.9383,9.6667,1.9564,7.1516,-0.2173,2118,2019-08-07 16:48:44:642
-8.3669,-4.8584,-5.3938,7.5949,-3.9383,9.6667,1.9564,7.1516,-0.2173,2123,2019-08-07 16:48:44:647
-9.386,-4.4383,-4.4934,8.2882,-4.2783,8.8582,1.6145,7.876,-0.1673,2128,2019-08-07 16:48:44:652
-9.386,-4.4383,-4.4934,8.2882,-4.2783,8.8582,1.6145,7.876,-0.1673,2132,2019-08-07 16:48:44:656
-11.7829,-5.2403,-1.9763,8.2882,-4.2783,8.8582,1.6145,7.876,-0.1673,2138,2019-08-07 16:48:44:662
-11.7829,-5.2403,-1.9763,8.2882,-4.2783,8.8582,1.9596,8.8049,-0.1491,2142,2019-08-07 16:48:44:666
-11.7829,-5.2403,-1.9763,10.7394,-3.0123,7.8079,1.9596,8.8049,-0.1491,2148,2019-08-07 16:48:44:672
-13.8353,-5.8848,-4.5123,10.7394,-3.0123,7.8079,1.9596,8.8049,-0.1491,2152,2019-08-07 16:48:44:676
-13.8353,-5.8848,-4.5123,10.7394,-3.0123,7.8079,1.8552,9.3972,-0.0746,2158,2019-08-07 16:48:44:682
-13.8353,-5.8848,-4.5123,10.7394,-3.0123,7.8079,1.8552,9.3972,-0.0746,2162,2019-08-07 16:48:44:686
-16.6437,-5.541,-2.622,13.9029,-2.864,6.8741,1.7561,9.5442,0.0266,2168,2019-08-07 16:48:44:692
-16.6437,-5.541,-2.622,13.9029,-2.864,6.8741,1.7561,9.5442,0.0266,2172,2019-08-07 16:48:44:696
-18.5718,-5.5076,1.1443,15.3883,-2.8123,2.9644,1.8563,9.2139,0.2205,2178,2019-08-07 16:48:44:702
-18.5718,-5.5076,1.1443,15.3883,-2.8123,2.9644,1.8563,9.2139,0.2205,2183,2019-08-07 16:48:44:707
-18.5718,-5.5076,1.1443,15.3883,-2.8123,2.9644,2.0896,8.024,0.3696,2187,2019-08-07 16:48:44:711
-20.0884,-5.6842,6.0891,15.3883,-2.8123,2.9644,2.0896,8.024,0.3696,2193,2019-08-07 16:48:44:717
-20.0884,-5.6842,6.0891,16.5048,-2.5605,-2.1495,2.0715,6.848,0.3334,2197,2019-08-07 16:48:44:721
-20.0884,-5.6842,6.0891,16.5048,-2.5605,-2.1495,2.0715,6.848,0.3334,2203,2019-08-07 16:48:44:727
-20.2941,-4.8727,5.2264,16.5048,-2.5605,-2.1495,2.0715,6.848,0.3334,2207,2019-08-07 16:48:44:731
-20.2941,-4.8727,5.2264,16.5048,-2.5605,-2.1495,1.7721,6.0309,0.2567,2213,2019-08-07 16:48:44:737
-17.7919,-4.6913,4.5806,13.832,-3.3448,-1.3369,1.7721,6.0309,0.2567,2217,2019-08-07 16:48:44:741
-17.7919,-4.6913,4.5806,13.832,-3.3448,-1.3369,1.526,5.151,0.2333,2223,2019-08-07 16:48:44:747
-17.7919,-4.6913,4.5806,13.832,-3.3448,-1.3369,1.526,5.151,0.2333,2227,2019-08-07 16:48:44:751
-14.7731,-5.5124,2.3416,13.832,-3.3448,-1.3369,1.6976,5.6709,0.1736,2233,2019-08-07 16:48:44:757
-14.7731,-5.5124,2.3416,9.0546,-2.1141,1.7231,1.6976,5.6709,0.1736,2237,2019-08-07 16:48:44:761
-13.7684,-5.4837,1.0311,9.0546,-2.1141,1.7231,1.8254,6.359,0.098,2243,2019-08-07 16:48:44:767
-13.7684,-5.4837,1.0311,9.0546,-2.1141,1.7231,1.8254,6.359,0.098,2248,2019-08-07 16:48:44:772
-13.7684,-5.4837,1.0311,9.0546,-2.1141,1.7231,1.8254,6.359,0.098,2253,2019-08-07 16:48:44:777
-15.6343,-4.5767,5.5093,10.155,-3.0345,-2.6311,1.8818,7.534,0.0341,2258,2019-08-07 16:48:44:782
-15.6343,-4.5767,5.5093,10.155,-3.0345,-2.6311,1.8818,7.534,0.0341,2262,2019-08-07 16:48:44:786
-19.2416,-4.2951,9.7093,10.155,-3.0345,-2.6311,1.7434,7.5404,-0.0139,2268,2019-08-07 16:48:44:792
-19.2416,-4.2951,9.7093,10.155,-3.0345,-2.6311,1.7434,7.5404,-0.0139,2272,2019-08-07 16:48:44:796
-19.2416,-4.2951,9.7093,14.9837,-2.9936,-9.1331,1.4472,6.6573,-0.1023,2278,2019-08-07 16:48:44:802
-21.6193,-4.6101,12.4951,14.9837,-2.9936,-9.1331,1.4472,6.6573,-0.1023,2282,2019-08-07 16:48:44:806
-21.6193,-4.6101,12.4951,14.9837,-2.9936,-9.1331,1.1766,4.7058,-0.2077,2288,2019-08-07 16:48:44:812
-21.6193,-4.6101,12.4951,14.9837,-2.9936,-9.1331,1.1766,4.7058,-0.2077,2293,2019-08-07 16:48:44:817
-20.8252,-5.0684,12.8392,13.9914,-2.2627,-10.6577,1.1117,3.1302,-0.2109,2298,2019-08-07 16:48:44:822
-20.8252,-5.0684,12.8392,13.9914,-2.2627,-10.6577,1.1117,3.1302,-0.2109,2303,2019-08-07 16:48:44:827
-16.1558,-5.5172,9.7045,9.9726,-1.8877,-7.9232,1.133,2.359,-0.1875,2308,2019-08-07 16:48:44:832
-16.1558,-5.5172,9.7045,9.9726,-1.8877,-7.9232,1.133,2.359,-0.1875,2313,2019-08-07 16:48:44:837
-16.1558,-5.5172,9.7045,9.9726,-1.8877,-7.9232,1.3396,2.2088,-0.2035,2317,2019-08-07 16:48:44:841
-9.8788,-5.9373,5.9194,9.9726,-1.8877,-7.9232,1.3396,2.2088,-0.2035,2323,2019-08-07 16:48:44:847
-9.8788,-5.9373,5.9194,2.4703,-1.5369,-2.8361,1.3396,2.2088,-0.2035,2327,2019-08-07 16:48:44:851
-7.592,-5.6317,3.9584,2.4703,-1.5369,-2.8361,1.5292,2.8873,-0.2035,2333,2019-08-07 16:48:44:857
-7.592,-5.6317,3.9584,2.4703,-1.5369,-2.8361,1.5292,2.8873,-0.2035,2337,2019-08-07 16:48:44:861
-7.592,-5.6317,3.9584,2.4703,-1.5369,-2.8361,1.6901,3.9324,-0.1705,2343,2019-08-07 16:48:44:867
-8.4436,-4.93,5.5517,2.0921,-2.3894,-4.0277,1.6901,3.9324,-0.1705,2347,2019-08-07 16:48:44:871
-8.4436,-4.93,5.5517,2.0921,-2.3894,-4.0277,1.8328,4.9763,-0.1012,2353,2019-08-07 16:48:44:877
-8.4436,-4.93,5.5517,2.0921,-2.3894,-4.0277,1.8328,4.9763,-0.1012,2357,2019-08-07 16:48:44:881
-11.4242,-4.2044,8.0594,5.0022,-3.085,-6.6961,1.8328,4.9763,-0.1012,2363,2019-08-07 16:48:44:887
-11.4242,-4.2044,8.0594,5.0022,-3.085,-6.6961,1.6688,4.6461,-0.032,2367,2019-08-07 16:48:44:891
-15.1654,-3.9084,10.4446,5.0022,-3.085,-6.6961,1.6688,4.6461,-0.032,2373,2019-08-07 16:48:44:897
-15.1654,-3.9084,10.4446,9.2042,-2.9747,-10.2767,1.4014,3.6288,0.0128,2377,2019-08-07 16:48:44:901
-15.1654,-3.9084,10.4446,9.2042,-2.9747,-10.2767,1.4014,3.6288,0.0128,2383,2019-08-07 16:48:44:907
-15.9022,-4.7438,11.8116,9.2042,-2.9747,-10.2767,1.2267,1.869,0.0596,2387,2019-08-07 16:48:44:911
-15.9022,-4.7438,11.8116,9.2042,-2.9747,-10.2767,1.2267,1.869,0.0596,2393,2019-08-07 16:48:44:917
-14.2373,-5.4933,11.0197,7.0003,-1.4477,-9.5897,1.1585,0.5811,0.1118,2397,2019-08-07 16:48:44:921
-14.2373,-5.4933,11.0197,7.0003,-1.4477,-9.5897,1.1585,0.5811,0.1118,2403,2019-08-07 16:48:44:927
-14.2373,-5.4933,11.0197,7.0003,-1.4477,-9.5897,1.1585,0.5811,0.1118,2408,2019-08-07 16:48:44:932
-10.7018,-6.1759,8.3187,4.064,-0.9654,-7.2333,1.1351,-0.1359,0.115,2412,2019-08-07 16:48:44:936
-10.7018,-6.1759,8.3187,4.064,-0.9654,-7.2333,1.1351,-0.1359,0.115,2418,2019-08-07 16:48:44:942
-10.7018,-6.1759,8.3187,4.064,-0.9654,-7.2333,1.2203,-0.317,0.0586,2423,2019-08-07 16:48:44:947
-7.6781,-6.5435,6.122,4.064,-0.9654,-7.2333,1.2203,-0.317,0.0586,2427,2019-08-07 16:48:44:951
-7.6781,-6.5435,6.122,0.4902,-0.529,-4.0893,1.3098,-0.0048,0.0394,2433,2019-08-07 16:48:44:957
-7.6781,-6.5435,6.122,0.4902,-0.529,-4.0893,1.3098,-0.0048,0.0394,2437,2019-08-07 16:48:44:961
-6.4964,-6.1855,4.2459,0.4902,-0.529,-4.0893,1.3087,0.5107,-0.0277,2443,2019-08-07 16:48:44:967
-6.4964,-6.1855,4.2459,0.4373,-1.2358,-2.2764,1.3087,0.5107,-0.0277,2447,2019-08-07 16:48:44:971
-6.4964,-6.1855,4.2459,0.4373,-1.2358,-2.2764,1.1884,1.0945,-0.146,2453,2019-08-07 16:48:44:977
-6.4964,-6.1855,4.2459,0.4373,-1.2358,-2.2764,1.1884,1.0945,-0.146,2457,2019-08-07 16:48:44:981
-7.9892,-5.4885,3.7368,1.5845,-1.5547,-2.37,1.0531,1.2671,-0.2045,2463,2019-08-07 16:48:44:987
-7.9892,-5.4885,3.7368,1.5845,-1.5547,-2.37,1.0531,1.2671,-0.2045,2468,2019-08-07 16:48:44:992
-7.9892,-5.4885,3.7368,1.5845,-1.5547,-2.37,1.0531,1.2671,-0.2045,2472,2019-08-07 16:48:44:996
-9.3001,-5.8752,3.7038,2.7816,-0.9817,-2.2742,0.9082,1.2458,-0.261,2478,2019-08-07 16:48:45:002
-9.3001,-5.8752,3.7038,2.7816,-0.9817,-2.2742,0.9082,1.2458,-0.261,2483,2019-08-07 16:48:45:007
-9.4771,-6.3382,3.7887,2.7816,-0.9817,-2.2742,0.6994,1.0104,-0.3079,2488,2019-08-07 16:48:45:012
-9.4771,-6.3382,3.7887,2.7816,-0.9817,-2.2742,0.6994,1.0104,-0.3079,2493,2019-08-07 16:48:45:017
-9.4771,-6.3382,3.7887,2.4039,-0.3365,-2.2227,0.546,0.6844,-0.3334,2498,2019-08-07 16:48:45:022
-8.9891,-6.8013,3.6614,2.4039,-0.3365,-2.2227,0.546,0.6844,-0.3334,2503,2019-08-07 16:48:45:027
-8.9891,-6.8013,3.6614,2.4039,-0.3365,-2.2227,0.4427,0.3392,-0.3547,2508,2019-08-07 16:48:45:032
-8.9891,-6.8013,3.6614,2.4039,-0.3365,-2.2227,0.4427,0.3392,-0.3547,2512,2019-08-07 16:48:45:036
-8.3289,-7.0352,3.1005,1.3341,-0.005,-1.3318,0.4001,-0.0443,-0.3579,2518,2019-08-07 16:48:45:042
-8.3289,-7.0352,3.1005,1.3341,-0.005,-1.3318,0.4001,-0.0443,-0.3579,2522,2019-08-07 16:48:45:046
-7.3195,-7.0973,2.5678,1.3341,-0.005,-1.3318,0.4001,-0.0443,-0.3579,2528,2019-08-07 16:48:45:052
-7.3195,-7.0973,2.5678,1.3341,-0.005,-1.3318,0.4405,-0.2594,-0.3409,2532,2019-08-07 16:48:45:056
-7.3195,-7.0973,2.5678,1.3341,-0.005,-1.3318,0.4405,-0.2594,-0.3409,2538,2019-08-07 16:48:45:062
-6.4631,-6.7297,2.3227,-0.1273,-0.3542,-0.7036,0.5045,-0.3894,-0.326,2543,2019-08-07 16:48:45:067
-6.4631,-6.7297,2.3227,-0.1273,-0.3542,-0.7036,0.5045,-0.3894,-0.326,2547,2019-08-07 16:48:45:071
-6.4631,-6.7297,2.3227,-0.1273,-0.3542,-0.7036,0.5034,-0.399,-0.2919,2553,2019-08-07 16:48:45:077
-5.9273,-5.9277,1.9691,-0.1273,-0.3542,-0.7036,0.5034,-0.399,-0.2919,2558,2019-08-07 16:48:45:082
-5.9273,-5.9277,1.9691,-0.7747,-1.3345,-0.1916,0.4437,-0.3606,-0.2472,2563,2019-08-07 16:48:45:087
-5.4967,-5.7511,1.823,-0.7747,-1.3345,-0.1916,0.4437,-0.3606,-0.2472,2567,2019-08-07 16:48:45:091
-5.4967,-5.7511,1.823,-0.7747,-1.3345,-0.1916,0.4437,-0.3606,-0.2472,2573,2019-08-07 16:48:45:097
-5.4967,-5.7511,1.823,-0.7747,-1.3345,-0.1916,0.3947,-0.2605,-0.228,2578,2019-08-07 16:48:45:102
-5.3388,-6.0088,1.8136,-1.151,-1.1109,0.0379,0.3947,-0.2605,-0.228,2583,2019-08-07 16:48:45:107
-5.3388,-6.0088,1.8136,-1.151,-1.1109,0.0379,0.2989,-0.0506,-0.2067,2587,2019-08-07 16:48:45:111
-5.3723,-6.1425,1.724,-1.0996,-0.9854,0.1586,0.2989,-0.0506,-0.2067,2593,2019-08-07 16:48:45:117
-5.3723,-6.1425,1.724,-1.0996,-0.9854,0.1586,0.2435,0.0537,-0.179,2598,2019-08-07 16:48:45:122
-5.3723,-6.1425,1.724,-1.0996,-0.9854,0.1586,0.2435,0.0537,-0.179,2603,2019-08-07 16:48:45:127
-5.4106,-6.4719,1.7193,-1.0996,-0.9854,0.1586,0.2435,0.0537,-0.179,2607,2019-08-07 16:48:45:131
-5.4106,-6.4719,1.7193,-0.9667,-0.6188,0.1271,0.1806,0.2008,-0.147,2613,2019-08-07 16:48:45:137
-5.6737,-6.5483,1.8607,-0.9667,-0.6188,0.1271,0.1806,0.2008,-0.147,2617,2019-08-07 16:48:45:141
-5.6737,-6.5483,1.8607,-0.9667,-0.6188,0.1271,0.1561,0.253,-0.1055,2623,2019-08-07 16:48:45:147
-5.6737,-6.5483,1.8607,-0.9667,-0.6188,0.1271,0.1561,0.253,-0.1055,2628,2019-08-07 16:48:45:152
-5.8268,-6.639,2.1954,-0.6147,-0.5128,-0.2992,0.1721,0.2327,-0.0682,2633,2019-08-07 16:48:45:157
-5.8268,-6.639,2.1954,-0.6147,-0.5128,-0.2992,0.1721,0.2327,-0.0682,2637,2019-08-07 16:48:45:161
-6.1856,-6.238,2.3698,-0.6147,-0.5128,-0.2992,0.2286,0.1592,-0.0384,2643,2019-08-07 16:48:45:167
-6.1856,-6.238,2.3698,-0.6147,-0.5128,-0.2992,0.2286,0.1592,-0.0384,2647,2019-08-07 16:48:45:171
-6.1856,-6.238,2.3698,0.101,-1.2562,-0.4527,0.2648,-0.0102,0.0192,2653,2019-08-07 16:48:45:177
-6.6449,-5.7367,2.351,0.101,-1.2562,-0.4527,0.2648,-0.0102,0.0192,2658,2019-08-07 16:48:45:182
-6.6449,-5.7367,2.351,0.101,-1.2562,-0.4527,0.2456,-0.171,0.0671,2663,2019-08-07 16:48:45:187
-6.6449,-5.7367,2.351,0.101,-1.2562,-0.4527,0.2456,-0.171,0.0671,2667,2019-08-07 16:48:45:191
-6.4966,-5.8131,2.285,0.0444,-1.3096,-0.317,0.2456,-0.171,0.0671,2673,2019-08-07 16:48:45:197
-6.4966,-5.8131,2.285,0.0444,-1.3096,-0.317,0.2168,-0.2754,0.0991,2678,2019-08-07 16:48:45:202
-5.9752,-6.2332,1.6486,0.0444,-1.3096,-0.317,0.2168,-0.2754,0.0991,2683,2019-08-07 16:48:45:207
-5.9752,-6.2332,1.6486,0.0444,-1.3096,-0.317,0.1891,-0.2136,0.1033,2688,2019-08-07 16:48:45:212
-5.9752,-6.2332,1.6486,-0.6464,-0.5128,0.6635,0.1891,-0.2136,0.1033,2693,2019-08-07 16:48:45:217
-5.7216,-6.7297,1.2385,-0.6464,-0.5128,0.6635,0.1582,-0.0187,0.0767,2697,2019-08-07 16:48:45:221
-5.7216,-6.7297,1.2385,-0.6464,-0.5128,0.6635,0.1582,-0.0187,0.0767,2703,2019-08-07 16:48:45:227
-5.7647,-6.9922,1.1301,-0.6464,-0.5128,0.6635,0.1305,0.2306,0.0522,2707,2019-08-07 16:48:45:231
-5.7647,-6.9922,1.1301,-0.5908,0.0098,0.8101,0.1305,0.2306,0.0522,2713,2019-08-07 16:48:45:237
-5.7647,-6.9922,1.1301,-0.5908,0.0098,0.8101,0.1305,0.2306,0.0522,2717,2019-08-07 16:48:45:241
-6.1043,-7.2071,1.526,-0.5908,0.0098,0.8101,0.1124,0.4809,0.0181,2723,2019-08-07 16:48:45:247
-6.1043,-7.2071,1.526,-0.5908,0.0098,0.8101,0.1124,0.4809,0.0181,2728,2019-08-07 16:48:45:252
-6.1043,-7.2071,1.526,-0.0804,0.0573,0.2221,0.0986,0.5651,-0.0011,2733,2019-08-07 16:48:45:257
-6.5493,-7.1927,1.8937,-0.0804,0.0573,0.2221,0.0986,0.5651,-0.0011,2737,2019-08-07 16:48:45:261
-6.5493,-7.1927,1.8937,-0.0804,0.0573,0.2221,0.1007,0.5384,-0.0171,2743,2019-08-07 16:48:45:267
-7.0851,-6.9779,2.4028,-0.0804,0.0573,0.2221,0.1007,0.5384,-0.0171,2747,2019-08-07 16:48:45:271
-7.0851,-6.9779,2.4028,0.7944,-0.1961,-0.554,0.1124,0.3392,-0.0128,2753,2019-08-07 16:48:45:277
-7.0851,-6.9779,2.4028,0.7944,-0.1961,-0.554,0.1124,0.3392,-0.0128,2757,2019-08-07 16:48:45:281
-7.42,-6.7917,2.8082,0.7944,-0.1961,-0.554,0.1178,0.1496,0.0,2763,2019-08-07 16:48:45:287
-7.42,-6.7917,2.8082,0.7944,-0.1961,-0.554,0.1178,0.1496,0.0,2767,2019-08-07 16:48:45:291
-7.42,-6.7917,2.8082,0.7944,-0.1961,-0.554,0.1178,0.1496,0.0,2773,2019-08-07 16:48:45:297
-7.3913,-6.5483,2.9213,0.872,-0.52,-0.9787,0.1231,-0.2019,0.0042,2777,2019-08-07 16:48:45:301
-7.3913,-6.5483,2.9213,0.872,-0.52,-0.9787,0.1231,-0.2019,0.0042,2783,2019-08-07 16:48:45:307
-6.9464,-6.4719,2.4782,0.872,-0.52,-0.9787,0.1103,-0.4618,-0.0053,2787,2019-08-07 16:48:45:311
-6.9464,-6.4719,2.4782,0.2045,-0.5633,-0.2941,0.1103,-0.4618,-0.0053,2792,2019-08-07 16:48:45:316
-6.9464,-6.4719,2.4782,0.2045,-0.5633,-0.2941,0.0784,-0.5439,-0.0256,2798,2019-08-07 16:48:45:322
-6.3436,-6.5912,2.087,0.2045,-0.5633,-0.2941,0.0784,-0.5439,-0.0256,2802,2019-08-07 16:48:45:326
-6.3436,-6.5912,2.087,0.2045,-0.5633,-0.2941,0.0784,-0.5439,-0.0256,2808,2019-08-07 16:48:45:332
-5.9513,-6.6724,1.8701,0.2045,-0.5633,-0.2941,0.0475,-0.5204,-0.0437,2812,2019-08-07 16:48:45:336
-5.9513,-6.6724,1.8701,-0.6107,-0.3123,0.2979,0.0475,-0.5204,-0.0437,2818,2019-08-07 16:48:45:342
-5.9513,-6.6724,1.8701,-0.6107,-0.3123,0.2979,0.0048,-0.285,-0.0916,2823,2019-08-07 16:48:45:347
-5.6642,-6.7822,1.7099,-0.6107,-0.3123,0.2979,0.0048,-0.285,-0.0916,2827,2019-08-07 16:48:45:351
-5.6642,-6.7822,1.7099,-0.728,-0.3216,0.3686,-0.0207,-0.1071,-0.1055,2833,2019-08-07 16:48:45:357
-5.7982,-6.744,1.823,-0.728,-0.3216,0.3686,-0.0207,-0.1071,-0.1055,2837,2019-08-07 16:48:45:361
-5.7982,-6.744,1.823,-0.728,-0.3216,0.3686,-0.0452,0.042,-0.1012,2843,2019-08-07 16:48:45:367
-5.7982,-6.744,1.823,-0.5667,-0.3442,0.2668,-0.0452,0.042,-0.1012,2847,2019-08-07 16:48:45:371
-6.1188,-6.6628,2.0163,-0.5667,-0.3442,0.2668,-0.0569,0.1166,-0.098,2853,2019-08-07 16:48:45:377
-6.1188,-6.6628,2.0163,-0.5667,-0.3442,0.2668,-0.0569,0.1166,-0.098,2857,2019-08-07 16:48:45:381
-6.4824,-6.5244,2.2567,0.045,-0.5731,-0.1539,-0.0633,0.0633,-0.0756,2863,2019-08-07 16:48:45:387
-6.4824,-6.5244,2.2567,0.045,-0.5731,-0.1539,-0.0633,0.0633,-0.0756,2868,2019-08-07 16:48:45:392
-6.4824,-6.5244,2.2567,0.045,-0.5731,-0.1539,-0.0633,0.0633,-0.0756,2873,2019-08-07 16:48:45:397
-6.5015,-6.4528,2.2897,0.045,-0.5731,-0.1539,-0.058,-0.0517,-0.0554,2878,2019-08-07 16:48:45:402
-6.5015,-6.4528,2.2897,0.045,-0.5731,-0.1539,-0.058,-0.0517,-0.0554,2882,2019-08-07 16:48:45:406
-6.5015,-6.4528,2.2897,0.0521,-0.6754,-0.0562,-0.0473,-0.219,-0.0213,2888,2019-08-07 16:48:45:412
-6.4106,-6.4432,2.0257,0.0521,-0.6754,-0.0562,-0.0473,-0.219,-0.0213,2892,2019-08-07 16:48:45:416
-6.4106,-6.4432,2.0257,0.0521,-0.6754,-0.0562,-0.0303,-0.2946,-0.0011,2898,2019-08-07 16:48:45:422
-6.4106,-6.4432,2.0257,0.0521,-0.6754,-0.0562,-0.0303,-0.2946,-0.0011,2902,2019-08-07 16:48:45:426
-5.98,-6.5387,1.592,-0.4395,-0.567,0.5372,-0.0175,-0.2893,-0.0021,2908,2019-08-07 16:48:45:432
-5.98,-6.5387,1.592,-0.4395,-0.567,0.5372,-0.0175,-0.2893,-0.0021,2912,2019-08-07 16:48:45:436
-5.7982,-6.6294,1.4223,-0.4395,-0.567,0.5372,-0.0175,-0.2893,-0.0021,2918,2019-08-07 16:48:45:442
-5.7982,-6.6294,1.4223,-0.4395,-0.567,0.5372,-0.0101,-0.1977,-0.0064,2923,2019-08-07 16:48:45:447
-5.7982,-6.6294,1.4223,-0.7344,-0.4549,0.7563,-0.0101,-0.1977,-0.0064,2927,2019-08-07 16:48:45:451
-5.7169,-6.6867,1.4176,-0.7344,-0.4549,0.7563,-0.0026,-0.089,-0.0128,2933,2019-08-07 16:48:45:457
-5.7169,-6.6867,1.4176,-0.7344,-0.4549,0.7563,-0.0026,-0.089,-0.0128,2937,2019-08-07 16:48:45:461
-5.8652,-6.6628,1.4129,-0.7344,-0.4549,0.7563,0.0027,0.0069,-0.0117,2943,2019-08-07 16:48:45:467
-5.8652,-6.6628,1.4129,-0.4191,-0.4487,0.7486,0.0027,0.0069,-0.0117,2947,2019-08-07 16:48:45:471
-5.8652,-6.6628,1.4129,-0.4191,-0.4487,0.7486,0.0027,0.0069,-0.0117,2953,2019-08-07 16:48:45:477
-6.2432,-6.6246,1.5732,-0.4191,-0.4487,0.7486,0.0048,0.0548,-0.0032,2957,2019-08-07 16:48:45:481
-6.2432,-6.6246,1.5732,-0.4191,-0.4487,0.7486,0.0048,0.0548,-0.0032,2963,2019-08-07 16:48:45:487
-6.4776,-6.6533,1.8371,0.0561,-0.4436,0.377,0.0112,-0.0134,0.0202,2967,2019-08-07 16:48:45:491
-6.4776,-6.6533,1.8371,0.0561,-0.4436,0.377,0.0112,-0.0134,0.0202,2973,2019-08-07 16:48:45:497
-6.4776,-6.6533,1.8371,0.0561,-0.4436,0.377,0.0198,-0.0986,0.0415,2977,2019-08-07 16:48:45:501
-6.5733,-6.6437,1.9597,0.0561,-0.4436,0.377,0.0198,-0.0986,0.0415,2983,2019-08-07 16:48:45:507
-6.5733,-6.6437,1.9597,0.2099,-0.4252,0.1632,0.0272,-0.2701,0.0724,2987,2019-08-07 16:48:45:511
-6.5972,-6.6581,2.0351,0.2099,-0.4252,0.1632,0.0272,-0.2701,0.0724,2993,2019-08-07 16:48:45:517
-6.5972,-6.6581,2.0351,0.2099,-0.4252,0.1632,0.023,-0.3979,0.1023,2997,2019-08-07 16:48:45:521
-6.5972,-6.6581,2.0351,0.2099,-0.4252,0.1632,0.023,-0.3979,0.1023,3002,2019-08-07 16:48:45:526
-6.5972,-6.6581,2.0351,0.2099,-0.4252,0.1632,0.023,-0.3979,0.1023,3008,2019-08-07 16:48:45:532
-6.425,-6.701,1.8088,0.0141,-0.3862,0.4066,0.024,-0.4672,0.114,3013,2019-08-07 16:48:45:537
-6.425,-6.701,1.8088,0.0141,-0.3862,0.4066,0.024,-0.4672,0.114,3017,2019-08-07 16:48:45:541
-6.425,-6.701,1.8088,0.0141,-0.3862,0.4066,0.024,-0.4672,0.114,3023,2019-08-07 16:48:45:547
-6.2193,-6.8061,1.6203,-0.2804,-0.2733,0.6261,0.0283,-0.4789,0.1108,3027,2019-08-07 16:48:45:551
-6.2193,-6.8061,1.6203,-0.2804,-0.2733,0.6261,0.0283,-0.4789,0.1108,3033,2019-08-07 16:48:45:557
-6.2193,-6.8061,1.6203,-0.2804,-0.2733,0.6261,0.0645,-0.2264,0.0351,3037,2019-08-07 16:48:45:561
-5.6308,-6.8968,1.3469,-0.2804,-0.2733,0.6261,0.0645,-0.2264,0.0351,3043,2019-08-07 16:48:45:567
-5.6308,-6.8968,1.3469,-0.7909,-0.1484,0.9012,0.0805,-0.0112,-0.0085,3047,2019-08-07 16:48:45:571
-5.6978,-6.8777,1.4742,-0.7909,-0.1484,0.9012,0.0805,-0.0112,-0.0085,3053,2019-08-07 16:48:45:577
-5.6978,-6.8777,1.4742,-0.675,-0.1639,0.7872,0.0847,0.188,-0.0405,3058,2019-08-07 16:48:45:582
-5.6978,-6.8777,1.4742,-0.675,-0.1639,0.7872,0.0847,0.188,-0.0405,3063,2019-08-07 16:48:45:587
-6.0136,-6.8872,1.8418,-0.675,-0.1639,0.7872,0.0847,0.188,-0.0405,3068,2019-08-07 16:48:45:592
-6.0136,-6.8872,1.8418,-0.675,-0.1639,0.7872,0.0911,0.3339,-0.0597,3072,2019-08-07 16:48:45:596
-6.0136,-6.8872,1.8418,-8.0E-4,-0.1825,0.194,0.0911,0.3339,-0.0597,3078,2019-08-07 16:48:45:602
-6.4825,-6.9015,2.1294,-8.0E-4,-0.1825,0.194,0.0997,0.3339,-0.0607,3083,2019-08-07 16:48:45:607
-6.4825,-6.9015,2.1294,-8.0E-4,-0.1825,0.194,0.0997,0.3339,-0.0607,3088,2019-08-07 16:48:45:612
-6.736,-6.8633,2.3556,-8.0E-4,-0.1825,0.194,0.105,0.2295,-0.0405,3093,2019-08-07 16:48:45:617
-6.736,-6.8633,2.3556,0.4129,-0.2633,-0.2073,0.105,0.2295,-0.0405,3097,2019-08-07 16:48:45:621
-6.736,-6.8633,2.3556,0.4129,-0.2633,-0.2073,0.1103,0.041,-0.0234,3103,2019-08-07 16:48:45:627
-6.8413,-6.8586,2.5913,0.4129,-0.2633,-0.2073,0.1103,0.041,-0.0234,3108,2019-08-07 16:48:45:632
-6.8413,-6.8586,2.5913,0.4129,-0.2633,-0.2073,0.1146,-0.1146,-0.0171,3113,2019-08-07 16:48:45:637
-6.6786,-6.7631,2.5395,0.2712,-0.3062,-0.2577,0.1146,-0.1146,-0.0171,3117,2019-08-07 16:48:45:641
-6.6786,-6.7631,2.5395,0.2712,-0.3062,-0.2577,0.1146,-0.1146,-0.0171,3123,2019-08-07 16:48:45:647
-6.6786,-6.7631,2.5395,0.2712,-0.3062,-0.2577,0.1092,-0.236,-0.0107,3128,2019-08-07 16:48:45:652
-6.3677,-6.8108,2.2849,0.2712,-0.3062,-0.2577,0.1092,-0.236,-0.0107,3133,2019-08-07 16:48:45:657
-6.3677,-6.8108,2.2849,-0.1902,-0.2396,0.0731,0.0869,-0.2893,-0.0117,3138,2019-08-07 16:48:45:662
-6.1285,-6.8824,2.2425,-0.1902,-0.2396,0.0731,0.0869,-0.2893,-0.0117,3143,2019-08-07 16:48:45:667
-6.1285,-6.8824,2.2425,-0.1902,-0.2396,0.0731,0.0762,-0.2807,-0.0213,3147,2019-08-07 16:48:45:671
-6.1285,-6.8824,2.2425,-0.1902,-0.2396,0.0731,0.0762,-0.2807,-0.0213,3153,2019-08-07 16:48:45:677
-5.9706,-6.8347,2.1906,-0.4796,-0.2301,0.2645,0.073,-0.2328,-0.033,3158,2019-08-07 16:48:45:682
-5.9706,-6.8347,2.1906,-0.4796,-0.2301,0.2645,0.073,-0.2328,-0.033,3163,2019-08-07 16:48:45:687
-5.9706,-6.8347,2.1906,-0.4796,-0.2301,0.2645,0.0741,-0.1305,-0.0533,3167,2019-08-07 16:48:45:691
-5.7362,-6.7392,2.0115,-0.4796,-0.2301,0.2645,0.0741,-0.1305,-0.0533,3173,2019-08-07 16:48:45:697
-5.7362,-6.7392,2.0115,-0.7038,-0.3777,0.334,0.0752,-0.0187,-0.0597,3177,2019-08-07 16:48:45:701
-5.674,-6.6437,2.0492,-0.7038,-0.3777,0.334,0.0752,-0.0187,-0.0597,3183,2019-08-07 16:48:45:707
-5.674,-6.6437,2.0492,-0.7038,-0.3777,0.334,0.0688,0.0942,-0.0565,3188,2019-08-07 16:48:45:712
-5.674,-6.6437,2.0492,-0.7038,-0.3777,0.334,0.0688,0.0942,-0.0565,3193,2019-08-07 16:48:45:717
-5.784,-6.6485,2.1152,-0.5258,-0.4452,0.3144,0.0709,0.1752,-0.0565,3198,2019-08-07 16:48:45:722
-5.784,-6.6485,2.1152,-0.5258,-0.4452,0.3144,0.0709,0.1752,-0.0565,3202,2019-08-07 16:48:45:726
-5.985,-6.6246,2.2095,-0.5258,-0.4452,0.3144,0.0677,0.2082,-0.0416,3208,2019-08-07 16:48:45:732
-5.985,-6.6246,2.2095,-0.5258,-0.4452,0.3144,0.0677,0.2082,-0.0416,3213,2019-08-07 16:48:45:737
-5.985,-6.6246,2.2095,-0.1471,-0.4805,0.0531,0.0677,0.2082,-0.0416,3217,2019-08-07 16:48:45:741
-6.1955,-6.6008,2.332,-0.1471,-0.4805,0.0531,0.0688,0.1805,-0.0213,3223,2019-08-07 16:48:45:747
-6.1955,-6.6008,2.332,-0.1471,-0.4805,0.0531,0.0688,0.1805,-0.0213,3228,2019-08-07 16:48:45:752
-6.1955,-6.6008,2.332,-0.1471,-0.4805,0.0531,0.0784,0.1187,-0.0096,3232,2019-08-07 16:48:45:756
-6.1763,-6.5912,2.3132,-0.1471,-0.4805,0.0531,0.0784,0.1187,-0.0096,3238,2019-08-07 16:48:45:762
-6.1763,-6.5912,2.3132,-0.2058,-0.4728,0.0927,0.0752,0.0857,-0.0064,3243,2019-08-07 16:48:45:767
-6.1668,-6.596,2.2613,-0.2058,-0.4728,0.0927,0.0752,0.0857,-0.0064,3248,2019-08-07 16:48:45:772
-6.1668,-6.596,2.2613,-0.2058,-0.4728,0.0927,0.0709,0.0399,-0.0011,3253,2019-08-07 16:48:45:777
-6.1668,-6.596,2.2613,-0.2058,-0.4728,0.0927,0.0709,0.0399,-0.0011,3257,2019-08-07 16:48:45:781
-6.0424,-6.6151,2.1671,-0.3281,-0.4548,0.214,0.0581,0.0261,0.0032,3263,2019-08-07 16:48:45:787
-6.0424,-6.6151,2.1671,-0.3281,-0.4548,0.214,0.0581,0.0261,0.0032,3267,2019-08-07 16:48:45:791
-5.8797,-6.6437,2.0492,-0.3281,-0.4548,0.214,0.0517,0.0399,0.0096,3273,2019-08-07 16:48:45:797
-5.8797,-6.6437,2.0492,-0.3281,-0.4548,0.214,0.0517,0.0399,0.0096,3278,2019-08-07 16:48:45:802
-5.8797,-6.6437,2.0492,-0.546,-0.3802,0.3433,0.0443,0.0601,0.0224,3282,2019-08-07 16:48:45:806
-5.7841,-6.701,2.0822,-0.546,-0.3802,0.3433,0.0443,0.0601,0.0224,3288,2019-08-07 16:48:45:812
-5.7841,-6.701,2.0822,-0.546,-0.3802,0.3433,0.0432,0.0857,0.0373,3293,2019-08-07 16:48:45:817
-5.7793,-6.6915,2.1718,-0.546,-0.3802,0.3433,0.0432,0.0857,0.0373,3298,2019-08-07 16:48:45:822
-5.7793,-6.6915,2.1718,-0.6153,-0.38,0.2209,0.0485,0.1027,0.0607,3303,2019-08-07 16:48:45:827
-5.7793,-6.6915,2.1718,-0.6153,-0.38,0.2209,0.0485,0.1027,0.0607,3308,2019-08-07 16:48:45:832
-5.8367,-6.6294,2.3273,-0.6153,-0.38,0.2209,0.0485,0.1027,0.0607,3313,2019-08-07 16:48:45:837
-5.8367,-6.6294,2.3273,-0.6153,-0.38,0.2209,0.0517,0.1091,0.0809,3317,2019-08-07 16:48:45:841
-5.8367,-6.6294,2.3273,-0.4335,-0.5313,-0.0957,0.0517,0.1091,0.0809,3323,2019-08-07 16:48:45:847
-5.9994,-6.5673,2.4829,-0.4335,-0.5313,-0.0957,0.0411,0.0846,0.0969,3328,2019-08-07 16:48:45:852
-5.9994,-6.5673,2.4829,-0.4335,-0.5313,-0.0957,0.0411,0.0846,0.0969,3332,2019-08-07 16:48:45:856
-6.0807,-6.4671,2.5489,-0.4335,-0.5313,-0.0957,0.0144,0.0314,0.1278,3338,2019-08-07 16:48:45:862
-6.0807,-6.4671,2.5489,-0.3378,-0.5764,-0.1773,0.0144,0.0314,0.1278,3343,2019-08-07 16:48:45:867
-6.0807,-6.4671,2.5489,-0.3378,-0.5764,-0.1773,0.0048,-0.0198,0.1449,3348,2019-08-07 16:48:45:872
-6.1046,-6.5005,2.5159,-0.3378,-0.5764,-0.1773,0.0048,-0.0198,0.1449,3353,2019-08-07 16:48:45:877
-6.1046,-6.5005,2.5159,-0.3378,-0.5764,-0.1773,-0.0101,-0.0688,0.1736,3358,2019-08-07 16:48:45:882
-6.0042,-6.4719,2.3085,-0.3824,-0.5696,0.107,-0.0101,-0.0688,0.1736,3363,2019-08-07 16:48:45:887
-6.0042,-6.4719,2.3085,-0.3824,-0.5696,0.107,-0.025,-0.0751,0.196,3367,2019-08-07 16:48:45:891
-6.0042,-6.4719,2.3085,-0.3824,-0.5696,0.107,-0.025,-0.0751,0.196,3373,2019-08-07 16:48:45:897
-5.9324,-6.5101,2.1576,-0.3824,-0.5696,0.107,-0.025,-0.0751,0.196,3378,2019-08-07 16:48:45:902
-5.9324,-6.5101,2.1576,-0.479,-0.4975,0.3614,-0.0367,-0.0347,0.2098,3382,2019-08-07 16:48:45:906
-5.9324,-6.5101,2.1576,-0.479,-0.4975,0.3614,-0.0367,-0.0347,0.2098,3388,2019-08-07 16:48:45:912
-6.0855,-6.5005,2.0398,-0.479,-0.4975,0.3614,-0.0463,0.0399,0.2173,3393,2019-08-07 16:48:45:917
-6.0855,-6.5005,2.0398,-0.479,-0.4975,0.3614,-0.0463,0.0399,0.2173,3398,2019-08-07 16:48:45:922
-6.0855,-6.5005,2.0398,-0.1493,-0.4471,0.2523,-0.0591,0.14,0.2184,3403,2019-08-07 16:48:45:927
-6.5017,-6.5769,2.1105,-0.1493,-0.4471,0.2523,-0.0591,0.14,0.2184,3408,2019-08-07 16:48:45:932
-6.5017,-6.5769,2.1105,0.0989,-0.3716,0.2567,-0.0633,0.1699,0.2056,3413,2019-08-07 16:48:45:937
-6.5017,-6.5769,2.1105,0.0989,-0.3716,0.2567,-0.0633,0.1699,0.2056,3418,2019-08-07 16:48:45:942
-6.9563,-6.6055,2.1058,0.0989,-0.3716,0.2567,-0.0633,0.1699,0.2056,3422,2019-08-07 16:48:45:946
-6.9563,-6.6055,2.1058,0.0989,-0.3716,0.2567,-0.0718,0.1805,0.1811,3428,2019-08-07 16:48:45:952
-6.9563,-6.6055,2.1058,0.6297,-0.2993,0.1607,-0.0718,0.1805,0.1811,3432,2019-08-07 16:48:45:956
-7.2003,-6.6246,2.1623,0.6297,-0.2993,0.1607,-0.0804,0.1571,0.1427,3438,2019-08-07 16:48:45:962
-7.2003,-6.6246,2.1623,0.6297,-0.2993,0.1607,-0.0804,0.1571,0.1427,3443,2019-08-07 16:48:45:967
-7.3055,-6.7201,2.1482,0.6297,-0.2993,0.1607,-0.0836,0.1091,0.114,3447,2019-08-07 16:48:45:971
-7.3055,-6.7201,2.1482,0.6669,-0.2154,0.1337,-0.0836,0.1091,0.114,3453,2019-08-07 16:48:45:977
-7.3055,-6.7201,2.1482,0.6669,-0.2154,0.1337,-0.0846,0.0814,0.0778,3458,2019-08-07 16:48:45:982
-7.1658,-6.7679,1.9457,0.6669,-0.2154,0.1337,-0.0846,0.0814,0.0778,3463,2019-08-07 16:48:45:987
-7.1658,-6.7679,1.9457,0.6669,-0.2154,0.1337,-0.0846,0.0814,0.0778,3467,2019-08-07 16:48:45:991
-7.1658,-6.7679,1.9457,0.6669,-0.2154,0.1337,-0.0814,0.0687,0.033,3473,2019-08-07 16:48:45:997
-7.1467,-6.7393,1.9787,0.5505,-0.1607,0.2832,-0.0814,0.0687,0.033,3477,2019-08-07 16:48:46:001
-7.1467,-6.7393,1.9787,0.5505,-0.1607,0.2832,-0.0782,0.0633,0.0064,3483,2019-08-07 16:48:46:007
-7.0606,-6.7679,1.9881,0.5505,-0.1607,0.2832,-0.0782,0.0633,0.0064,3488,2019-08-07 16:48:46:012
-7.0606,-6.7679,1.9881,0.4489,-0.2002,0.2713,-0.0708,0.0452,-0.0234,3493,2019-08-07 16:48:46:017
-7.0606,-6.7679,1.9881,0.4489,-0.2002,0.2713,-0.0708,0.0452,-0.0234,3498,2019-08-07 16:48:46:022
-7.0079,-6.725,1.9363,0.4489,-0.2002,0.2713,-0.058,0.0218,-0.0437,3503,2019-08-07 16:48:46:027
-7.0079,-6.725,1.9363,0.4489,-0.2002,0.2713,-0.058,0.0218,-0.0437,3507,2019-08-07 16:48:46:031
-6.9075,-6.6677,1.9033,0.3072,-0.2399,0.3235,-0.0442,0.0058,-0.0565,3513,2019-08-07 16:48:46:037
-6.9075,-6.6677,1.9033,0.3072,-0.2399,0.3235,-0.0442,0.0058,-0.0565,3517,2019-08-07 16:48:46:041
-6.9075,-6.6677,1.9033,0.3072,-0.2399,0.3235,-0.0442,0.0058,-0.0565,3523,2019-08-07 16:48:46:047
-6.8022,-6.6581,2.0117,0.2052,-0.2537,0.2115,-0.0378,-0.0166,-0.0693,3528,2019-08-07 16:48:46:052
-6.8022,-6.6581,2.0117,0.2052,-0.2537,0.2115,-0.0378,-0.0166,-0.0693,3532,2019-08-07 16:48:46:056
-6.6587,-6.6056,1.8986,0.2052,-0.2537,0.2115,-0.026,-0.0538,-0.0799,3538,2019-08-07 16:48:46:062
-6.6587,-6.6056,1.8986,0.0341,-0.345,0.1928,-0.026,-0.0538,-0.0799,3543,2019-08-07 16:48:46:067
-6.6587,-6.6056,1.8986,0.0341,-0.345,0.1928,-0.0165,-0.0783,-0.0778,3548,2019-08-07 16:48:46:072
-6.5343,-6.5865,2.0023,0.0341,-0.345,0.1928,-0.0165,-0.0783,-0.0778,3552,2019-08-07 16:48:46:076
-6.5343,-6.5865,2.0023,0.0341,-0.345,0.1928,-0.0101,-0.0911,-0.0693,3558,2019-08-07 16:48:46:082
-6.5343,-6.5865,2.0023,0.0341,-0.345,0.1928,-0.0101,-0.0911,-0.0693,3562,2019-08-07 16:48:46:086
-6.4194,-6.5388,2.0635,-0.1541,-0.3924,0.1686,-0.009,-0.1103,-0.0554,3568,2019-08-07 16:48:46:092
-6.4194,-6.5388,2.0635,-0.1541,-0.3924,0.1686,-0.009,-0.1103,-0.0554,3573,2019-08-07 16:48:46:097
-6.362,-6.5054,2.0353,-0.1541,-0.3924,0.1686,-0.0058,-0.1295,-0.0437,3579,2019-08-07 16:48:46:103
-6.362,-6.5054,2.0353,-0.2814,-0.4562,0.2106,-0.0058,-0.1295,-0.0437,3583,2019-08-07 16:48:46:107
-6.362,-6.5054,2.0353,-0.2814,-0.4562,0.2106,-0.0058,-0.1295,-0.0437,3587,2019-08-07 16:48:46:111
-6.2616,-6.4624,1.9457,-0.2814,-0.4562,0.2106,-0.0037,-0.1476,-0.0266,3593,2019-08-07 16:48:46:117
-6.2616,-6.4624,1.9457,-0.2814,-0.4562,0.2106,-0.0037,-0.1476,-0.0266,3598,2019-08-07 16:48:46:122
-6.2616,-6.4624,1.9457,-0.2814,-0.4562,0.2106,6.0E-4,-0.1305,-0.0053,3603,2019-08-07 16:48:46:127
-6.0989,-6.3622,1.9221,-0.4546,-0.5781,0.3407,6.0E-4,-0.1305,-0.0053,3608,2019-08-07 16:48:46:132
-6.0989,-6.3622,1.9221,-0.4546,-0.5781,0.3407,0.0016,-0.1082,0.0096,3613,2019-08-07 16:48:46:137
-6.0989,-6.3765,1.8373,-0.4546,-0.5781,0.3407,0.0016,-0.1082,0.0096,3617,2019-08-07 16:48:46:141
-6.0989,-6.3765,1.8373,-0.4546,-0.5781,0.3407,0.0016,-0.1082,0.0096,3623,2019-08-07 16:48:46:147
-6.0989,-6.3765,1.8373,-0.4711,-0.6244,0.4092,6.0E-4,-0.0677,0.0181,3627,2019-08-07 16:48:46:151
-6.1276,-6.3335,1.8514,-0.4711,-0.6244,0.4092,6.0E-4,-0.0677,0.0181,3633,2019-08-07 16:48:46:157
-6.1276,-6.3335,1.8514,-0.4711,-0.6244,0.4092,6.0E-4,-0.0368,0.0362,3637,2019-08-07 16:48:46:161
-6.1658,-6.3049,1.8844,-0.4711,-0.6244,0.4092,6.0E-4,-0.0368,0.0362,3643,2019-08-07 16:48:46:167
-6.1658,-6.3049,1.8844,-0.355,-0.7295,0.3524,-0.0026,-0.023,0.0522,3647,2019-08-07 16:48:46:171
-6.1658,-6.3049,1.8844,-0.355,-0.7295,0.3524,-0.0026,-0.023,0.0522,3653,2019-08-07 16:48:46:177
-6.2615,-6.324,1.8514,-0.355,-0.7295,0.3524,-0.0058,-0.0166,0.0703,3658,2019-08-07 16:48:46:182
-6.2615,-6.324,1.8514,-0.355,-0.7295,0.3524,-0.0058,-0.0166,0.0703,3663,2019-08-07 16:48:46:187
-6.3094,-6.3288,1.8561,-0.2738,-0.6201,0.4135,-0.0058,-0.0166,0.0703,3668,2019-08-07 16:48:46:192
-6.3094,-6.3288,1.8561,-0.2738,-0.6201,0.4135,-0.0037,-0.0016,0.0735,3673,2019-08-07 16:48:46:197
-6.3094,-6.3288,1.8561,-0.2738,-0.6201,0.4135,-0.0037,-0.0016,0.0735,3678,2019-08-07 16:48:46:202
-6.472,-6.3335,1.9221,-0.2738,-0.6201,0.4135,-0.0058,-0.007,0.066,3682,2019-08-07 16:48:46:206
-6.472,-6.3335,1.9221,-0.1039,-0.6048,0.3312,-0.0058,-0.007,0.066,3688,2019-08-07 16:48:46:212
-6.5007,-6.3622,1.974,-0.1039,-0.6048,0.3312,-0.009,-0.0198,0.066,3693,2019-08-07 16:48:46:217
-6.5007,-6.3622,1.974,-0.1039,-0.6048,0.3312,-0.009,-0.0198,0.066,3697,2019-08-07 16:48:46:221
-6.5007,-6.3622,1.974,-0.1039,-0.6048,0.3312,-0.0175,-0.0208,0.0682,3703,2019-08-07 16:48:46:227
-6.4146,-6.5006,2.0023,-0.1714,-0.4045,0.2736,-0.0175,-0.0208,0.0682,3708,2019-08-07 16:48:46:232
-6.4146,-6.5006,2.0023,-0.1714,-0.4045,0.2736,-0.0218,-0.0123,0.0607,3713,2019-08-07 16:48:46:237
-6.4146,-6.5006,2.0023,-0.1714,-0.4045,0.2736,-0.0218,-0.0123,0.0607,3717,2019-08-07 16:48:46:241
-6.3859,-6.4767,1.974,-0.1714,-0.4045,0.2736,-0.0218,-0.0123,0.0607,3723,2019-08-07 16:48:46:247
-6.3859,-6.4767,1.974,-0.2093,-0.3826,0.2656,-0.0239,-0.0048,0.0575,3728,2019-08-07 16:48:46:252
-6.4576,-6.5531,1.9457,-0.2093,-0.3826,0.2656,-0.0239,-0.0048,0.0575,3733,2019-08-07 16:48:46:257
-6.4576,-6.5531,1.9457,-0.2093,-0.3826,0.2656,-0.0239,0.0111,0.0543,3738,2019-08-07 16:48:46:262
-6.4576,-6.5531,1.9457,-0.2093,-0.3826,0.2656,-0.0239,0.0111,0.0543,3743,2019-08-07 16:48:46:267
-6.4576,-6.5961,2.0541,-0.1465,-0.2947,0.2126,-0.0207,0.0154,0.0501,3748,2019-08-07 16:48:46:272
-6.4576,-6.5961,2.0541,-0.1465,-0.2947,0.2126,-0.0207,0.0154,0.0501,3753,2019-08-07 16:48:46:277
-6.405,-6.5674,2.1107,-0.2034,-0.3202,0.1531,-0.0186,0.0154,0.0511,3758,2019-08-07 16:48:46:282
-6.405,-6.5674,2.1107,-0.2034,-0.3202,0.1531,-0.0186,0.0154,0.0511,3762,2019-08-07 16:48:46:286
-6.405,-6.5674,2.1107,-0.2034,-0.3202,0.1531,0.0112,0.0687,0.0266,3768,2019-08-07 16:48:46:292
-6.405,-6.5674,2.1107,-0.2034,-0.3202,0.1531,0.0112,0.0687,0.0266,3773,2019-08-07 16:48:46:297
-6.405,-6.5674,2.1107,-0.2034,-0.3202,0.1531,0.0112,0.0687,0.0266,3777,2019-08-07 16:48:46:301
-6.0605,-6.7107,2.1296,-0.5207,-0.1685,0.2073,0.0251,0.09,0.0202,3783,2019-08-07 16:48:46:307
-6.0605,-6.7107,2.1296,-0.5207,-0.1685,0.2073,0.0251,0.09,0.0202,3788,2019-08-07 16:48:46:312
-6.0605,-6.7107,2.1296,-0.5207,-0.1685,0.2073,0.0773,0.2785,0.017,3793,2019-08-07 16:48:46:317
-6.3189,-6.6677,1.8609,-0.3031,-0.1981,0.3249,0.0773,0.2785,0.017,3798,2019-08-07 16:48:46:322
-6.3189,-6.6677,1.8609,-0.3031,-0.1981,0.3249,0.0262,0.3254,0.016,3802,2019-08-07 16:48:46:326
-6.2949,-6.6104,2.1249,-0.3031,-0.1981,0.3249,0.0262,0.3254,0.016,3808,2019-08-07 16:48:46:332
-6.2949,-6.6104,2.1249,-0.3031,-0.1981,0.3249,0.0198,0.3169,-0.0021,3812,2019-08-07 16:48:46:336
-6.2949,-6.6104,2.1249,-0.2277,-0.282,0.0351,0.0198,0.3169,-0.0021,3818,2019-08-07 16:48:46:342
-6.4241,-6.6772,2.1861,-0.2277,-0.282,0.0351,0.0198,0.3169,-0.0021,3823,2019-08-07 16:48:46:347
-6.4241,-6.6772,2.1861,-0.2277,-0.282,0.0351,0.0283,0.3179,-0.0011,3827,2019-08-07 16:48:46:351
-6.5915,-6.6009,2.04,-0.2277,-0.282,0.0351,0.0283,0.3179,-0.0011,3833,2019-08-07 16:48:46:357
-6.5915,-6.6009,2.04,0.026,-0.2516,0.096,0.0027,0.2679,0.0096,3839,2019-08-07 16:48:46:363
-6.5915,-6.6009,2.04,0.026,-0.2516,0.096,0.0027,0.2679,0.0096,3842,2019-08-07 16:48:46:366
-6.7542,-6.5722,2.073,0.026,-0.2516,0.096,-0.0452,0.1805,0.0085,3848,2019-08-07 16:48:46:372
-6.7542,-6.5722,2.073,0.026,-0.2516,0.096,-0.0452,0.1805,0.0085,3852,2019-08-07 16:48:46:376
-6.9073,-6.4577,2.2663,0.2209,-0.4077,-0.2064,-0.0793,0.0846,0.016,3858,2019-08-07 16:48:46:382
-6.9073,-6.4577,2.2663,0.2209,-0.4077,-0.2064,-0.0793,0.0846,0.016,3863,2019-08-07 16:48:46:387
-6.9073,-6.4577,2.2663,0.2209,-0.4077,-0.2064,-0.075,-0.0453,0.0138,3867,2019-08-07 16:48:46:391
-6.9647,-6.5054,2.3276,0.2209,-0.4077,-0.2064,-0.075,-0.0453,0.0138,3873,2019-08-07 16:48:46:397
-6.9647,-6.5054,2.3276,0.2031,-0.2867,-0.0751,-0.0633,-0.1178,0.0192,3877,2019-08-07 16:48:46:401
-6.8451,-6.62,2.1484,0.2031,-0.2867,-0.0751,-0.0633,-0.1178,0.0192,3883,2019-08-07 16:48:46:407
-6.8451,-6.62,2.1484,0.2031,-0.2867,-0.0751,-0.0633,-0.1178,0.0192,3888,2019-08-07 16:48:46:412
-6.8451,-6.62,2.1484,0.1798,-0.281,0.0055,-0.0559,-0.1657,0.0202,3893,2019-08-07 16:48:46:417
-6.6011,-6.6009,2.0636,0.1798,-0.281,0.0055,-0.0559,-0.1657,0.0202,3897,2019-08-07 16:48:46:421
-6.6011,-6.6009,2.0636,0.1798,-0.281,0.0055,-0.0367,-0.1817,0.0085,3903,2019-08-07 16:48:46:427
-6.0461,-6.6391,1.809,-0.618,-0.2334,0.3343,-0.0367,-0.1817,0.0085,3908,2019-08-07 16:48:46:432
-6.0461,-6.6391,1.809,-0.618,-0.2334,0.3343,-0.0165,-0.1359,-0.0234,3913,2019-08-07 16:48:46:437
-6.0461,-6.6391,1.809,-0.618,-0.2334,0.3343,-0.0165,-0.1359,-0.0234,3917,2019-08-07 16:48:46:441
-6.0892,-6.6582,1.5639,-0.618,-0.2334,0.3343,-0.0015,0.0026,-0.0522,3923,2019-08-07 16:48:46:447
-6.0892,-6.6582,1.5639,-0.5134,-0.2653,0.5063,-0.0015,0.0026,-0.0522,3928,2019-08-07 16:48:46:452
-6.1513,-6.62,1.7148,-0.5134,-0.2653,0.5063,0.0059,0.1315,-0.0394,3933,2019-08-07 16:48:46:457
-6.1513,-6.62,1.7148,-0.5134,-0.2653,0.5063,0.0059,0.1315,-0.0394,3938,2019-08-07 16:48:46:462
-6.1513,-6.62,1.7148,-0.3794,-0.2685,0.3687,0.0112,0.1912,-0.0394,3943,2019-08-07 16:48:46:467
-6.4432,-6.5627,1.8373,-0.3794,-0.2685,0.3687,0.0112,0.1912,-0.0394,3948,2019-08-07 16:48:46:472
-6.4432,-6.5627,1.8373,-0.3794,-0.2685,0.3687,0.0123,0.2093,-0.0437,3952,2019-08-07 16:48:46:476
-6.4432,-6.5627,1.8373,-0.3794,-0.2685,0.3687,0.0123,0.2093,-0.0437,3958,2019-08-07 16:48:46:482
-6.558,-6.5149,2.0777,-0.1009,-0.3733,0.031,0.0166,0.1667,-0.0362,3962,2019-08-07 16:48:46:486
-6.558,-6.5149,2.0777,-0.1009,-0.3733,0.031,0.0166,0.1667,-0.0362,3968,2019-08-07 16:48:46:492
-6.558,-6.5149,2.0777,-0.1009,-0.3733,0.031,0.0166,0.1667,-0.0362,3972,2019-08-07 16:48:46:496
-6.5436,-6.5818,2.0777,-0.1009,-0.3733,0.031,0.0155,0.1241,-0.0245,3978,2019-08-07 16:48:46:502
-6.5436,-6.5818,2.0777,-0.1756,-0.3326,-0.0516,0.0155,0.1241,-0.0245,3982,2019-08-07 16:48:46:506
-6.4958,-6.5197,2.1296,-0.1756,-0.3326,-0.0516,0.0262,0.09,-0.0171,3988,2019-08-07 16:48:46:512
-6.4958,-6.5197,2.1296,-0.1768,-0.371,0.0242,0.0262,0.09,-0.0171,3992,2019-08-07 16:48:46:516
-6.4958,-6.5197,2.1296,-0.1768,-0.371,0.0242,0.0368,0.0719,-0.0139,3998,2019-08-07 16:48:46:522
-6.5723,-6.4433,2.0212,-0.1768,-0.371,0.0242,0.0368,0.0719,-0.0139,4003,2019-08-07 16:48:46:527
-6.5723,-6.4433,2.0212,-0.1768,-0.371,0.0242,0.0389,0.0591,-0.0085,4008,2019-08-07 16:48:46:532
-6.5149,-6.367,1.9693,-0.1508,-0.5128,0.1333,0.0389,0.0591,-0.0085,4013,2019-08-07 16:48:46:537
-6.5149,-6.367,1.9693,-0.1508,-0.5128,0.1333,0.024,0.0303,-0.0064,4018,2019-08-07 16:48:46:542
-6.5149,-6.367,1.9693,-0.1508,-0.5128,0.1333,0.024,0.0303,-0.0064,4022,2019-08-07 16:48:46:546
-6.4671,-6.3908,1.7713,-0.1508,-0.5128,0.1333,-0.0101,0.009,-0.0107,4028,2019-08-07 16:48:46:552
-6.4671,-6.3908,1.7713,-0.2238,-0.5029,0.4179,-0.0101,0.009,-0.0107,4032,2019-08-07 16:48:46:556
-6.4001,-6.3908,1.6865,-0.2238,-0.5029,0.4179,-0.0474,-0.0112,-0.0202,4038,2019-08-07 16:48:46:562
-6.4001,-6.3908,1.6865,-0.2238,-0.5029,0.4179,-0.0474,-0.0112,-0.0202,4043,2019-08-07 16:48:46:567
-6.4001,-6.3908,1.6865,-0.2238,-0.5029,0.4179,-0.0782,-0.0208,-0.0298,4048,2019-08-07 16:48:46:572
-6.4623,-6.4481,1.7855,-0.2021,-0.4458,0.2872,-0.0782,-0.0208,-0.0298,4052,2019-08-07 16:48:46:576
-6.4623,-6.4481,1.7855,-0.2021,-0.4458,0.2872,-0.0782,-0.0208,-0.0298,4058,2019-08-07 16:48:46:582
-6.4623,-6.4481,1.7855,-0.2021,-0.4458,0.2872,-0.0932,-0.0325,-0.0341,4062,2019-08-07 16:48:46:586
-6.4001,-6.4242,1.9316,-0.2619,-0.4735,0.1363,-0.0932,-0.0325,-0.0341,4068,2019-08-07 16:48:46:592
-6.4001,-6.4242,1.9316,-0.2619,-0.4735,0.1363,-0.0729,-0.0464,-0.0266,4072,2019-08-07 16:48:46:596
-6.5197,-6.4433,1.8279,-0.2619,-0.4735,0.1363,-0.0729,-0.0464,-0.0266,4078,2019-08-07 16:48:46:602
-6.5197,-6.4433,1.8279,-0.1809,-0.4077,0.2442,-0.0474,-0.0368,-0.016,4082,2019-08-07 16:48:46:606
-6.5197,-6.4433,1.8279,-0.1809,-0.4077,0.2442,-0.0474,-0.0368,-0.016,4088,2019-08-07 16:48:46:612
-6.4001,-6.5818,1.9552,-0.1809,-0.4077,0.2442,-0.0356,-0.0421,-0.0064,4092,2019-08-07 16:48:46:616
-6.4001,-6.5818,1.9552,-0.1809,-0.4077,0.2442,-0.0356,-0.0421,-0.0064,4098,2019-08-07 16:48:46:622
-6.4001,-6.5818,1.9552,-0.222,-0.3997,0.2028,-0.0175,-0.0602,0.0106,4102,2019-08-07 16:48:46:626
-6.3809,-6.5388,1.8939,-0.222,-0.3997,0.2028,-0.0175,-0.0602,0.0106,4107,2019-08-07 16:48:46:631
-6.3809,-6.5388,1.8939,-0.222,-0.3997,0.2028,-0.0037,-0.0507,0.0213,4113,2019-08-07 16:48:46:637
-6.2613,-6.5722,1.8043,-0.222,-0.3997,0.2028,-0.0037,-0.0507,0.0213,4117,2019-08-07 16:48:46:641
-6.2613,-6.5722,1.8043,-0.5097,-0.3165,0.4386,0.0059,-0.0262,0.0213,4123,2019-08-07 16:48:46:647
-6.2374,-6.5531,1.6441,-0.5097,-0.3165,0.4386,0.0059,-0.0262,0.0213,4127,2019-08-07 16:48:46:651
-6.2374,-6.5531,1.6441,-0.5097,-0.3165,0.4386,6.0E-4,0.0271,0.0192,4133,2019-08-07 16:48:46:657
-6.2374,-6.5531,1.6441,-0.5097,-0.3165,0.4386,6.0E-4,0.0271,0.0192,4138,2019-08-07 16:48:46:662
-6.1847,-6.5866,1.6111,-0.4179,-0.3239,0.4476,-0.0026,0.0729,0.0256,4142,2019-08-07 16:48:46:666
-6.1847,-6.5866,1.6111,-0.4179,-0.3239,0.4476,-0.0026,0.0729,0.0256,4148,2019-08-07 16:48:46:672
-6.1847,-6.5866,1.6111,-0.4179,-0.3239,0.4476,0.0016,0.1464,0.016,4152,2019-08-07 16:48:46:676
-6.3809,-6.515,1.7666,-0.4179,-0.3239,0.4476,0.0016,0.1464,0.016,4158,2019-08-07 16:48:46:682
-6.3809,-6.515,1.7666,-0.02,-0.3358,0.3284,-0.0122,0.1347,0.017,4163,2019-08-07 16:48:46:687
-6.6823,-6.5484,1.8845,-0.02,-0.3358,0.3284,-0.0122,0.1347,0.017,4168,2019-08-07 16:48:46:692
-6.6823,-6.5484,1.8845,-0.02,-0.3358,0.3284,-0.0122,0.1347,0.017,4172,2019-08-07 16:48:46:696
-6.6823,-6.5484,1.8845,-0.0682,-0.3483,-0.0359,0.007,0.1731,0.0224,4178,2019-08-07 16:48:46:702
-6.6297,-6.5436,2.0636,-0.0682,-0.3483,-0.0359,0.007,0.1731,0.0224,4182,2019-08-07 16:48:46:706
-6.6297,-6.5436,2.0636,-0.0682,-0.3483,-0.0359,0.0496,0.14,0.0192,4188,2019-08-07 16:48:46:712
-6.5435,-6.5054,1.7902,-0.1402,-0.3863,0.2267,0.0496,0.14,0.0192,4193,2019-08-07 16:48:46:717
-6.5435,-6.5054,1.7902,-0.1402,-0.3863,0.2267,0.0389,0.1166,0.0192,4198,2019-08-07 16:48:46:722
-6.5435,-6.5054,1.7902,-0.1402,-0.3863,0.2267,0.0389,0.1166,0.0192,4202,2019-08-07 16:48:46:726
-6.4765,-6.4911,1.8468,-0.1402,-0.3863,0.2267,0.023,0.1134,0.0202,4208,2019-08-07 16:48:46:732
-6.4765,-6.4911,1.8468,-0.2346,-0.3867,0.1107,0.023,0.1134,0.0202,4212,2019-08-07 16:48:46:736
-6.4765,-6.4911,1.8468,-0.2346,-0.3867,0.1107,0.0379,0.1134,0.0085,4218,2019-08-07 16:48:46:742
-6.5866,-6.5102,1.9222,-0.2346,-0.3867,0.1107,0.0379,0.1134,0.0085,4222,2019-08-07 16:48:46:746
-6.5866,-6.5102,1.9222,-0.0849,-0.3705,0.0914,0.0325,0.0932,0.0288,4228,2019-08-07 16:48:46:752
-6.6631,-6.577,1.7148,-0.0849,-0.3705,0.0914,0.0325,0.0932,0.0288,4232,2019-08-07 16:48:46:756
-6.6631,-6.577,1.7148,-0.0849,-0.3705,0.0914,-0.0015,0.0484,0.0373,4238,2019-08-07 16:48:46:762
-6.6631,-6.577,1.7148,-0.1747,-0.274,0.2009,-0.0015,0.0484,0.0373,4242,2019-08-07 16:48:46:766
-6.5196,-6.5675,1.8798,-0.1747,-0.274,0.2009,-0.0101,0.0207,0.0245,4248,2019-08-07 16:48:46:772
-6.5196,-6.5675,1.8798,-0.1747,-0.274,0.2009,-0.0101,0.0207,0.0245,4252,2019-08-07 16:48:46:776
-6.5626,-6.4959,1.9033,-0.1747,-0.274,0.2009,0.0016,0.0207,0.016,4258,2019-08-07 16:48:46:782
-6.5626,-6.4959,1.9033,-0.1745,-0.3422,0.1265,0.0016,0.0207,0.016,4262,2019-08-07 16:48:46:786
-6.5626,-6.4959,1.9033,-0.1745,-0.3422,0.1265,0.0016,0.0207,0.016,4268,2019-08-07 16:48:46:792
-6.5818,-6.472,1.6959,-0.1745,-0.3422,0.1265,0.0027,0.0218,0.0085,4272,2019-08-07 16:48:46:796