ACCELEROMETER X (m/s²),ACCELEROMETER Y (m/s²),ACCELEROMETER Z (m/s²),LINEAR ACCELERATION X (m/s²),LINEAR ACCELERATION Y (m/s²),LINEAR ACCELERATION Z (m/s²),GYROSCOPE X (rad/s),GYROSCOPE Y (rad/s),GYROSCOPE Z (rad/s),Time since start in ms ,YYYY-MO-DD HH-MI-SS_SSS
-6.5539,-6.4671,1.6863,-0.144,-0.3341,0.2342,0.0155,0.0452,0.0128,3,2019-08-07 16:48:48:206
-6.5539,-6.4671,1.6863,-0.144,-0.3341,0.2342,0.0155,0.0452,0.0128,8,2019-08-07 16:48:48:211
-6.573,-6.4433,1.7476,-0.144,-0.3341,0.2342,0.0219,0.0463,0.0085,13,2019-08-07 16:48:48:216
-6.573,-6.4433,1.7476,-0.144,-0.3341,0.2342,0.0219,0.0463,0.0085,17,2019-08-07 16:48:48:220
-6.573,-6.4433,1.7476,-0.144,-0.3341,0.2342,0.0283,0.041,0.0042,23,2019-08-07 16:48:48:226
-6.6544,-6.4146,1.8278,-0.1193,-0.4028,0.1411,0.0283,0.041,0.0042,28,2019-08-07 16:48:48:231
-6.6544,-6.4146,1.8278,-0.1193,-0.4028,0.1411,0.0304,0.0303,0.0021,33,2019-08-07 16:48:48:236
-6.6161,-6.448,1.8796,-0.1193,-0.4028,0.1411,0.0304,0.0303,0.0021,37,2019-08-07 16:48:48:240
-6.6161,-6.448,1.8796,-0.1193,-0.4028,0.1411,0.0304,0.0303,0.0021,43,2019-08-07 16:48:48:246
-6.6161,-6.448,1.8796,-0.1744,-0.3474,0.1046,0.0347,-0.0048,0.0074,48,2019-08-07 16:48:48:251
-6.5491,-6.448,1.856,-0.1744,-0.3474,0.1046,0.0347,-0.0048,0.0074,53,2019-08-07 16:48:48:256
-6.5491,-6.448,1.856,-0.1744,-0.3474,0.1046,0.0389,-0.0347,0.017,57,2019-08-07 16:48:48:260
-6.5491,-6.448,1.856,-0.1744,-0.3474,0.1046,0.0389,-0.0347,0.017,63,2019-08-07 16:48:48:266
-6.4056,-6.5149,1.8466,-0.3712,-0.2963,0.1328,0.0368,-0.0411,0.0192,68,2019-08-07 16:48:48:271
-6.4056,-6.5149,1.8466,-0.3712,-0.2963,0.1328,0.0368,-0.0411,0.0192,73,2019-08-07 16:48:48:276
-6.329,-6.6056,1.7665,-0.4481,-0.204,0.2176,0.0347,-0.0283,0.0192,78,2019-08-07 16:48:48:281
-6.329,-6.6056,1.7665,-0.4481,-0.204,0.2176,0.0347,-0.0283,0.0192,83,2019-08-07 16:48:48:286
-6.329,-6.6056,1.7665,-0.4481,-0.204,0.2176,0.0357,0.0058,0.0256,88,2019-08-07 16:48:48:291
-6.2621,-6.5483,1.7382,-0.4481,-0.204,0.2176,0.0357,0.0058,0.0256,92,2019-08-07 16:48:48:295
-6.2621,-6.5483,1.7382,-0.4933,-0.2483,0.2078,0.0325,0.042,0.0234,98,2019-08-07 16:48:48:301
-6.3673,-6.5387,1.8183,-0.4933,-0.2483,0.2078,0.0325,0.042,0.0234,103,2019-08-07 16:48:48:306
-6.3673,-6.5387,1.8183,-0.4933,-0.2483,0.2078,0.0293,0.0665,0.0224,108,2019-08-07 16:48:48:311
-6.3673,-6.5387,1.8183,-0.4933,-0.2483,0.2078,0.0293,0.0665,0.0224,112,2019-08-07 16:48:48:315
-6.5108,-6.4624,1.8655,-0.2739,-0.3396,0.1187,0.023,0.0761,0.0234,118,2019-08-07 16:48:48:321
-6.5108,-6.4624,1.8655,-0.2739,-0.3396,0.1187,0.023,0.0761,0.0234,122,2019-08-07 16:48:48:325
-6.6592,-6.4433,1.9786,-0.1291,-0.3562,0.0021,0.024,0.074,0.0245,128,2019-08-07 16:48:48:331
-6.6592,-6.4433,1.9786,-0.1291,-0.3562,0.0021,0.024,0.074,0.0245,133,2019-08-07 16:48:48:336
-6.6592,-6.4433,1.9786,-0.1291,-0.3562,0.0021,0.0155,0.0495,0.017,138,2019-08-07 16:48:48:341
-6.6305,-6.3812,1.9645,-0.1291,-0.3562,0.0021,0.0155,0.0495,0.017,142,2019-08-07 16:48:48:345
-6.6305,-6.3812,1.9645,-0.1017,-0.3897,0.0821,0.007,0.0186,0.0181,148,2019-08-07 16:48:48:351
-6.6305,-6.3812,1.9645,-0.1017,-0.3897,0.0821,0.007,0.0186,0.0181,152,2019-08-07 16:48:48:355
-6.6305,-6.4862,1.889,-0.1017,-0.3897,0.0821,0.007,0.0186,0.0181,158,2019-08-07 16:48:48:361
-6.6305,-6.4862,1.889,-0.1017,-0.3897,0.0821,0.0059,0.0026,0.017,163,2019-08-07 16:48:48:366
-6.6065,-6.4815,1.8277,-0.1911,-0.3102,0.1475,0.0059,0.0026,0.017,168,2019-08-07 16:48:48:371
-6.6065,-6.4815,1.8277,-0.1911,-0.3102,0.1475,0.0059,5.0E-4,0.016,173,2019-08-07 16:48:48:376
-6.4917,-6.5244,1.856,-0.3069,-0.2662,0.1193,0.0059,5.0E-4,0.016,178,2019-08-07 16:48:48:381
-6.4917,-6.5244,1.856,-0.3069,-0.2662,0.1193,0.007,0.0058,0.0106,182,2019-08-07 16:48:48:385
-6.4917,-6.5244,1.856,-0.3069,-0.2662,0.1193,0.007,0.0058,0.0106,188,2019-08-07 16:48:48:391
-6.4774,-6.4862,1.757,-0.3069,-0.2662,0.1193,0.0134,0.0282,0.0085,192,2019-08-07 16:48:48:395
-6.4774,-6.4862,1.757,-0.2899,-0.2549,0.1463,0.0134,0.0282,0.0085,198,2019-08-07 16:48:48:401
-6.4774,-6.4862,1.757,-0.2899,-0.2549,0.1463,0.0176,0.042,0.0117,203,2019-08-07 16:48:48:406
-6.5396,-6.4337,1.823,-0.2899,-0.2549,0.1463,0.0176,0.042,0.0117,207,2019-08-07 16:48:48:410
-6.5396,-6.4337,1.823,-0.2899,-0.2549,0.1463,0.0144,0.0527,0.0096,213,2019-08-07 16:48:48:416
-6.5683,-6.4815,1.8089,-0.2361,-0.3052,0.1606,0.0144,0.0527,0.0096,217,2019-08-07 16:48:48:420
-6.5683,-6.4815,1.8089,-0.2361,-0.3052,0.1606,0.0144,0.0516,0.0085,223,2019-08-07 16:48:48:426
-6.5683,-6.4815,1.8089,-0.2361,-0.3052,0.1606,0.0144,0.0516,0.0085,228,2019-08-07 16:48:48:431
-6.6065,-6.5149,1.8466,-0.2361,-0.3052,0.1606,0.0123,0.0388,0.0085,233,2019-08-07 16:48:48:436
-6.6065,-6.5149,1.8466,-0.1295,-0.3365,0.0614,0.0123,0.0388,0.0085,237,2019-08-07 16:48:48:440
-6.6065,-6.5149,1.8466,-0.1295,-0.3365,0.0614,0.0123,0.0388,0.0085,243,2019-08-07 16:48:48:446
-6.664,-6.4671,1.8702,-0.1295,-0.3365,0.0614,0.0155,0.025,0.0032,248,2019-08-07 16:48:48:451
-6.664,-6.4671,1.8702,-0.1295,-0.3365,0.0614,0.0155,0.025,0.0032,253,2019-08-07 16:48:48:456
-6.6353,-6.4003,1.8136,-0.1747,-0.3823,0.1501,0.0112,0.009,0.0032,258,2019-08-07 16:48:48:461
-6.6353,-6.4003,1.8136,-0.1747,-0.3823,0.1501,0.0112,0.009,0.0032,262,2019-08-07 16:48:48:465
-6.6353,-6.4003,1.8136,-0.1747,-0.3823,0.1501,0.0027,0.0047,0.0032,268,2019-08-07 16:48:48:471
-6.5874,-6.4624,1.8042,-0.1747,-0.3823,0.1501,0.0027,0.0047,0.0032,272,2019-08-07 16:48:48:475
-6.5874,-6.4624,1.8042,-0.3096,-0.2909,0.1212,0.0027,0.0058,0.0011,278,2019-08-07 16:48:48:481
-6.5109,-6.5531,1.823,-0.3096,-0.2909,0.1212,0.0027,0.0058,0.0011,282,2019-08-07 16:48:48:485
-6.5109,-6.5531,1.823,-0.3096,-0.2909,0.1212,0.0176,0.0229,0.0,288,2019-08-07 16:48:48:491
-6.5109,-6.5531,1.823,-0.3096,-0.2909,0.1212,0.0176,0.0229,0.0,293,2019-08-07 16:48:48:496
-6.4965,-6.5435,1.7947,-0.296,-0.2523,0.1529,0.0219,0.0346,0.0,298,2019-08-07 16:48:48:501
-6.4965,-6.5435,1.7947,-0.296,-0.2523,0.1529,0.0219,0.0346,0.0,302,2019-08-07 16:48:48:505
-6.4965,-6.5435,1.7947,-0.296,-0.2523,0.1529,0.0219,0.0346,0.0,308,2019-08-07 16:48:48:511
-6.5444,-6.5244,1.8183,-0.2681,-0.2568,0.1417,0.023,0.0516,0.0011,313,2019-08-07 16:48:48:516
-6.5444,-6.5244,1.8183,-0.2681,-0.2568,0.1417,0.023,0.0516,0.0011,317,2019-08-07 16:48:48:520
-6.5874,-6.4337,1.8937,-0.2681,-0.2568,0.1417,0.0293,0.0442,0.0011,323,2019-08-07 16:48:48:526
-6.5874,-6.4337,1.8937,-0.2513,-0.3458,0.0593,0.0293,0.0442,0.0011,328,2019-08-07 16:48:48:531
-6.5874,-6.4337,1.8937,-0.2513,-0.3458,0.0593,0.0336,0.0229,0.0053,333,2019-08-07 16:48:48:536
-6.5683,-6.3908,1.856,-0.2513,-0.3458,0.0593,0.0336,0.0229,0.0053,338,2019-08-07 16:48:48:541
-6.5683,-6.3908,1.856,-0.2513,-0.3458,0.0593,0.0336,0.0229,0.0053,342,2019-08-07 16:48:48:545
-6.5683,-6.3908,1.856,-0.2513,-0.3458,0.0593,0.0293,0.0037,0.0096,348,2019-08-07 16:48:48:551
-6.5252,-6.4099,1.8607,-0.2915,-0.367,0.0995,0.0293,0.0037,0.0096,352,2019-08-07 16:48:48:555
-6.5252,-6.4099,1.8607,-0.2915,-0.367,0.0995,0.0293,-0.0027,0.0128,358,2019-08-07 16:48:48:561
-6.5683,-6.386,1.9267,-0.2496,-0.389,0.0358,0.0293,-0.0027,0.0128,362,2019-08-07 16:48:48:565
-6.5683,-6.386,1.9267,-0.2496,-0.389,0.0358,0.0272,-0.0038,0.0181,368,2019-08-07 16:48:48:571
-6.5683,-6.386,1.9267,-0.2496,-0.389,0.0358,0.0272,-0.0038,0.0181,372,2019-08-07 16:48:48:575
-6.5013,-6.3764,1.8466,-0.2496,-0.389,0.0358,0.024,0.0069,0.016,378,2019-08-07 16:48:48:581
-6.5013,-6.3764,1.8466,-0.3576,-0.3374,0.1293,0.024,0.0069,0.016,383,2019-08-07 16:48:48:586
-6.5731,-6.4385,1.7523,-0.3576,-0.3374,0.1293,0.024,0.0069,0.016,387,2019-08-07 16:48:48:590
-6.5731,-6.4385,1.7523,-0.3576,-0.3374,0.1293,0.0091,0.025,0.0117,393,2019-08-07 16:48:48:596
-6.5731,-6.4385,1.7523,-0.3576,-0.3374,0.1293,0.0091,0.025,0.0117,397,2019-08-07 16:48:48:600
-6.6161,-6.4146,1.7853,-0.2076,-0.354,0.1788,0.0017,0.0399,0.0096,403,2019-08-07 16:48:48:606
-6.6161,-6.4146,1.7853,-0.2076,-0.354,0.1788,0.0017,0.0399,0.0096,407,2019-08-07 16:48:48:610
-6.6496,-6.5196,1.8277,-0.1757,-0.2483,0.1333,6.0E-4,0.0431,0.0042,413,2019-08-07 16:48:48:616
-6.6496,-6.5196,1.8277,-0.1757,-0.2483,0.1333,6.0E-4,0.0431,0.0042,418,2019-08-07 16:48:48:621
-6.6496,-6.5196,1.8277,-0.1757,-0.2483,0.1333,-5.0E-4,0.0388,-0.0053,422,2019-08-07 16:48:48:625
-6.664,-6.4337,1.8607,-0.1757,-0.2483,0.1333,-5.0E-4,0.0388,-0.0053,428,2019-08-07 16:48:48:631
-6.664,-6.4337,1.8607,-0.1774,-0.3152,0.0801,-5.0E-4,0.0388,-0.0053,433,2019-08-07 16:48:48:636
-6.664,-6.4337,1.8607,-0.1774,-0.3152,0.0801,-5.0E-4,0.0324,-0.0117,438,2019-08-07 16:48:48:641
-6.5922,-6.3955,1.7712,-0.1774,-0.3152,0.0801,-5.0E-4,0.0324,-0.0117,442,2019-08-07 16:48:48:645
-6.5922,-6.3955,1.7712,-0.1774,-0.3152,0.0801,-0.0047,0.0335,-0.0107,448,2019-08-07 16:48:48:651
-6.5635,-6.4146,1.8183,-0.2304,-0.3068,0.1737,-0.0047,0.0335,-0.0107,452,2019-08-07 16:48:48:655
-6.5635,-6.4146,1.8183,-0.2304,-0.3068,0.1737,-0.0015,0.0271,-0.0085,458,2019-08-07 16:48:48:661
-6.5635,-6.4146,1.8183,-0.2162,-0.3026,0.1333,-0.0015,0.0271,-0.0085,462,2019-08-07 16:48:48:665
-6.597,-6.448,1.7806,-0.2162,-0.3026,0.1333,6.0E-4,0.0175,-0.0043,468,2019-08-07 16:48:48:671
-6.597,-6.448,1.7806,-0.2162,-0.3026,0.1333,6.0E-4,0.0175,-0.0043,472,2019-08-07 16:48:48:675
-6.5683,-6.4051,1.8277,-0.2162,-0.3026,0.1333,6.0E-4,0.0175,-0.0043,478,2019-08-07 16:48:48:681
-6.5683,-6.4051,1.8277,-0.2551,-0.3743,0.0981,0.007,0.0058,0.0011,482,2019-08-07 16:48:48:685
-6.5683,-6.4051,1.8277,-0.2551,-0.3743,0.0981,0.007,0.0058,0.0011,488,2019-08-07 16:48:48:691
-6.5444,-6.4528,1.8325,-0.2551,-0.3743,0.0981,0.0112,-0.007,0.0149,492,2019-08-07 16:48:48:695
-6.5444,-6.4528,1.8325,-0.2551,-0.3743,0.0981,0.0112,-0.007,0.0149,498,2019-08-07 16:48:48:701
-6.487,-6.4671,1.8089,-0.3138,-0.3486,0.1516,0.0112,0.0015,0.0149,503,2019-08-07 16:48:48:706
-6.487,-6.4671,1.8089,-0.3138,-0.3486,0.1516,0.0112,0.0015,0.0149,508,2019-08-07 16:48:48:711
-6.487,-6.4671,1.8089,-0.3138,-0.3486,0.1516,0.0134,0.0037,0.0181,512,2019-08-07 16:48:48:715
-6.4965,-6.4385,1.8089,-0.3138,-0.3486,0.1516,0.0134,0.0037,0.0181,518,2019-08-07 16:48:48:721
-6.4965,-6.4385,1.8089,-0.3163,-0.3171,0.1198,0.0134,0.0037,0.0181,522,2019-08-07 16:48:48:725
-6.4965,-6.4385,1.8089,-0.3163,-0.3171,0.1198,0.0187,0.0143,0.0202,528,2019-08-07 16:48:48:731
-6.4822,-6.4003,1.8466,-0.3163,-0.3171,0.1198,0.0187,0.0143,0.0202,533,2019-08-07 16:48:48:736
-6.4822,-6.4003,1.8466,-0.3163,-0.3171,0.1198,0.0134,0.0239,0.0192,538,2019-08-07 16:48:48:741
-6.4822,-6.4003,1.8466,-0.3163,-0.3171,0.1198,0.0134,0.0239,0.0192,542,2019-08-07 16:48:48:745
-6.5731,-6.3812,1.7806,-0.2625,-0.3805,0.166,0.0123,0.0378,0.0138,548,2019-08-07 16:48:48:751
-6.5731,-6.3812,1.7806,-0.2625,-0.3805,0.166,0.0123,0.0378,0.0138,553,2019-08-07 16:48:48:756
-6.707,-6.386,1.8277,-0.2625,-0.3805,0.166,0.007,0.0346,0.0032,558,2019-08-07 16:48:48:761
-6.707,-6.386,1.8277,-0.1174,-0.326,0.0769,0.007,0.0346,0.0032,563,2019-08-07 16:48:48:766
-6.707,-6.386,1.8277,-0.1174,-0.326,0.0769,0.0038,0.0197,-0.0021,567,2019-08-07 16:48:48:770
-6.6114,-6.4146,1.823,-0.1174,-0.326,0.0769,0.0038,0.0197,-0.0021,573,2019-08-07 16:48:48:776
-6.6114,-6.4146,1.823,-0.1174,-0.326,0.0769,0.0038,0.0197,-0.0021,578,2019-08-07 16:48:48:781
-6.5205,-6.4528,1.79,-0.319,-0.3066,0.1513,0.0027,-0.0016,-0.0032,583,2019-08-07 16:48:48:786
-6.5205,-6.4528,1.79,-0.319,-0.3066,0.1513,0.0027,-0.0016,-0.0032,588,2019-08-07 16:48:48:791
-6.5205,-6.4528,1.79,-0.319,-0.3066,0.1513,-0.0037,0.0154,0.0,592,2019-08-07 16:48:48:795
-6.5396,-6.4242,1.7759,-0.3001,-0.3352,0.1646,-0.0037,0.0154,0.0,598,2019-08-07 16:48:48:801
-6.5396,-6.4242,1.7759,-0.3001,-0.3352,0.1646,-0.0133,0.025,0.0011,602,2019-08-07 16:48:48:805
-6.5731,-6.534,1.7523,-0.3001,-0.3352,0.1646,-0.0133,0.025,0.0011,608,2019-08-07 16:48:48:811
-6.5731,-6.534,1.7523,-0.316,-0.235,0.1589,-0.0154,0.0282,0.0064,612,2019-08-07 16:48:48:815
-6.5731,-6.534,1.7523,-0.316,-0.235,0.1589,-0.0154,0.0282,0.0064,618,2019-08-07 16:48:48:821
-6.53,-6.5196,1.8089,-0.316,-0.235,0.1589,-0.0079,0.0186,0.017,623,2019-08-07 16:48:48:826
-6.53,-6.5196,1.8089,-0.316,-0.235,0.1589,-0.0079,0.0186,0.017,628,2019-08-07 16:48:48:831
-6.4678,-6.5101,1.7995,-0.376,-0.2479,0.1312,0.0017,0.0143,0.0224,633,2019-08-07 16:48:48:836
-6.4678,-6.5101,1.7995,-0.376,-0.2479,0.1312,0.0017,0.0143,0.0224,638,2019-08-07 16:48:48:841
-6.4678,-6.5101,1.7995,-0.376,-0.2479,0.1312,0.0017,0.0143,0.0224,642,2019-08-07 16:48:48:845
-6.5109,-6.4337,1.8372,-0.376,-0.2479,0.1312,0.008,0.0186,0.0266,648,2019-08-07 16:48:48:851
-6.5109,-6.4337,1.8372,-0.3755,-0.3443,0.1296,0.008,0.0186,0.0266,652,2019-08-07 16:48:48:855
-6.5492,-6.4146,1.7476,-0.3755,-0.3443,0.1296,0.0027,0.025,0.033,659,2019-08-07 16:48:48:862
-6.5492,-6.4146,1.7476,-0.3755,-0.3443,0.1296,0.0027,0.025,0.033,663,2019-08-07 16:48:48:866
-6.5492,-6.4146,1.7476,-0.3755,-0.3443,0.1296,0.0048,0.0346,0.0319,667,2019-08-07 16:48:48:870
-6.6353,-6.4289,1.757,-0.2187,-0.3204,0.1678,0.0048,0.0346,0.0319,673,2019-08-07 16:48:48:876
-6.6353,-6.4289,1.757,-0.2187,-0.3204,0.1678,0.0048,0.0346,0.0319,678,2019-08-07 16:48:48:881
-6.6353,-6.4289,1.757,-0.2187,-0.3204,0.1678,0.0134,0.0346,0.0266,682,2019-08-07 16:48:48:885
-6.6975,-6.3144,1.7523,-0.2187,-0.3204,0.1678,0.0134,0.0346,0.0266,688,2019-08-07 16:48:48:891
-6.6975,-6.3144,1.7523,-0.2187,-0.3204,0.1678,0.0262,0.0271,0.0181,692,2019-08-07 16:48:48:895
-6.6927,-6.3526,1.7665,-0.1715,-0.4444,0.1656,0.0262,0.0271,0.0181,698,2019-08-07 16:48:48:901
-6.6927,-6.3526,1.7665,-0.1715,-0.4444,0.1656,0.0176,0.0324,0.0128,703,2019-08-07 16:48:48:906
-6.6927,-6.3526,1.7665,-0.1715,-0.4444,0.1656,0.0176,0.0324,0.0128,708,2019-08-07 16:48:48:911
-6.7214,-6.3239,1.691,-0.1715,-0.4444,0.1656,0.0112,0.0495,0.0053,712,2019-08-07 16:48:48:915
-6.7214,-6.3239,1.691,-0.1232,-0.4078,0.1616,0.0112,0.0495,0.0053,718,2019-08-07 16:48:48:921
-6.7645,-6.3764,1.7665,-0.1232,-0.4078,0.1616,0.0059,0.0442,0.0053,723,2019-08-07 16:48:48:926
-6.7645,-6.3764,1.7665,-0.1232,-0.4078,0.1616,0.0059,0.0442,0.0053,728,2019-08-07 16:48:48:931
-6.7645,-6.3764,1.7665,-0.1232,-0.4078,0.1616,0.0102,0.0271,0.0042,733,2019-08-07 16:48:48:936
-6.7214,-6.4146,1.8277,-0.1838,-0.2819,0.095,0.0102,0.0271,0.0042,738,2019-08-07 16:48:48:941
-6.7214,-6.4146,1.8277,-0.1838,-0.2819,0.095,0.0102,0.0271,0.0042,742,2019-08-07 16:48:48:945
-6.7214,-6.4146,1.8277,-0.1838,-0.2819,0.095,0.0102,0.0079,0.0032,748,2019-08-07 16:48:48:951
-6.6305,-6.4433,1.8089,-0.1838,-0.2819,0.095,0.0102,0.0079,0.0032,752,2019-08-07 16:48:48:955
-6.6305,-6.4433,1.8089,-0.2999,-0.3044,0.1518,0.0091,-0.0102,0.0096,758,2019-08-07 16:48:48:961
-6.5157,-6.4098,1.8325,-0.2999,-0.3044,0.1518,0.0091,-0.0102,0.0096,763,2019-08-07 16:48:48:966
-6.5157,-6.4098,1.8325,-0.2999,-0.3044,0.1518,0.0059,-0.0123,0.0138,767,2019-08-07 16:48:48:970
-6.5157,-6.4098,1.8325,-0.2999,-0.3044,0.1518,0.0059,-0.0123,0.0138,773,2019-08-07 16:48:48:976
-6.4583,-6.4146,1.8277,-0.411,-0.3217,0.0884,6.0E-4,-0.0038,0.017,777,2019-08-07 16:48:48:980
-6.4583,-6.4146,1.8277,-0.411,-0.3217,0.0884,6.0E-4,-0.0038,0.017,783,2019-08-07 16:48:48:986
-6.4583,-6.4146,1.8277,-0.411,-0.3217,0.0884,6.0E-4,0.0175,0.016,787,2019-08-07 16:48:48:990
-6.5061,-6.4433,1.8419,-0.411,-0.3217,0.0884,6.0E-4,0.0175,0.016,793,2019-08-07 16:48:48:996
-6.5061,-6.4433,1.8419,-0.3178,-0.3339,0.1011,-0.0047,0.0314,0.0181,798,2019-08-07 16:48:49:001
-6.6209,-6.3669,1.8183,-0.3178,-0.3339,0.1011,-0.0047,0.0314,0.0181,802,2019-08-07 16:48:49:005
-6.6209,-6.3669,1.8183,-0.3178,-0.3339,0.1011,-0.0047,0.0314,0.0181,808,2019-08-07 16:48:49:011
-6.6209,-6.3669,1.8183,-0.3178,-0.3339,0.1011,-0.0058,0.042,0.0138,812,2019-08-07 16:48:49:015
-6.6592,-6.3669,1.8513,-0.1829,-0.3938,0.0526,-0.0058,0.042,0.0138,818,2019-08-07 16:48:49:021
-6.6592,-6.3669,1.8513,-0.1829,-0.3938,0.0526,-0.0079,0.0463,0.0117,823,2019-08-07 16:48:49:026
-6.7405,-6.3669,1.79,-0.1829,-0.3938,0.0526,-0.0079,0.0463,0.0117,828,2019-08-07 16:48:49:031
-6.7405,-6.3669,1.79,-0.1829,-0.3938,0.0526,-0.0111,0.0431,0.0042,832,2019-08-07 16:48:49:035
-6.7405,-6.3669,1.79,-0.1005,-0.3443,0.0356,-0.0111,0.0431,0.0042,838,2019-08-07 16:48:49:041
-6.7692,-6.3764,1.823,-0.1005,-0.3443,0.0356,-0.0186,0.026,-0.0053,843,2019-08-07 16:48:49:046
-6.7692,-6.3764,1.823,-0.1005,-0.3443,0.0356,-0.0186,0.026,-0.0053,848,2019-08-07 16:48:49:051
-6.7549,-6.4003,1.8702,-0.1005,-0.3443,0.0356,-0.025,0.0069,0.0011,852,2019-08-07 16:48:49:055
-6.7549,-6.4003,1.8702,-0.1642,-0.2823,0.0726,-0.025,0.0069,0.0011,858,2019-08-07 16:48:49:061
-6.7549,-6.4003,1.8702,-0.1642,-0.2823,0.0726,-0.0282,-0.0134,0.0,862,2019-08-07 16:48:49:065
-6.5874,-6.4767,1.8513,-0.1642,-0.2823,0.0726,-0.0282,-0.0134,0.0,868,2019-08-07 16:48:49:071
-6.5874,-6.4767,1.8513,-0.1642,-0.2823,0.0726,-0.0282,-0.0134,0.0,872,2019-08-07 16:48:49:075
-6.5874,-6.4767,1.8513,-0.3026,-0.2114,0.0807,-0.0292,-0.0272,0.0074,878,2019-08-07 16:48:49:081
-6.5396,-6.5244,1.8277,-0.3026,-0.2114,0.0807,-0.0292,-0.0272,0.0074,882,2019-08-07 16:48:49:085
-6.5396,-6.5244,1.8277,-0.3026,-0.2114,0.0807,-0.0271,-0.0251,0.0149,888,2019-08-07 16:48:49:091
-6.5396,-6.5244,1.8277,-0.3026,-0.2114,0.0807,-0.0271,-0.0251,0.0149,892,2019-08-07 16:48:49:095
-6.4439,-6.5101,1.7853,-0.3793,-0.1876,0.0989,-0.0218,-0.0176,0.0181,898,2019-08-07 16:48:49:101
-6.4439,-6.5101,1.7853,-0.3793,-0.1876,0.0989,-0.0218,-0.0176,0.0181,902,2019-08-07 16:48:49:105
-6.4439,-6.5101,1.7853,-0.3793,-0.1876,0.0989,-0.0143,0.0111,0.0309,908,2019-08-07 16:48:49:111
-6.5731,-6.4194,1.823,-0.3793,-0.1876,0.0989,-0.0143,0.0111,0.0309,913,2019-08-07 16:48:49:116
-6.5731,-6.4194,1.823,-0.2587,-0.3327,0.1188,-0.0175,0.0218,0.0266,918,2019-08-07 16:48:49:121
-6.5731,-6.4194,1.823,-0.2587,-0.3327,0.1188,-0.0175,0.0218,0.0266,923,2019-08-07 16:48:49:126
-6.731,-6.3812,1.7853,-0.2587,-0.3327,0.1188,-0.0197,0.0292,0.0277,928,2019-08-07 16:48:49:131
-6.731,-6.3812,1.7853,-0.2587,-0.3327,0.1188,-0.0197,0.0292,0.0277,933,2019-08-07 16:48:49:136
-6.731,-6.3812,1.7853,-0.068,-0.3193,-0.0288,-0.0175,0.0207,0.0256,937,2019-08-07 16:48:49:140
-6.7979,-6.4194,1.9597,-0.068,-0.3193,-0.0288,-0.0175,0.0207,0.0256,943,2019-08-07 16:48:49:146
-6.7979,-6.4194,1.9597,-0.068,-0.3193,-0.0288,-0.0101,0.0026,0.0224,947,2019-08-07 16:48:49:150
-6.8267,-6.4528,1.9362,-0.068,-0.3193,-0.0288,-0.0101,0.0026,0.0224,953,2019-08-07 16:48:49:156
-6.8267,-6.4528,1.9362,-0.0338,-0.3157,0.0351,-0.0101,0.0026,0.0224,957,2019-08-07 16:48:49:160
-6.8267,-6.4528,1.9362,-0.0338,-0.3157,0.0351,-0.0111,-0.0208,0.016,963,2019-08-07 16:48:49:166
-6.8601,-6.4242,1.8655,-0.0338,-0.3157,0.0351,-0.0111,-0.0208,0.016,967,2019-08-07 16:48:49:170
-6.8601,-6.4242,1.8655,-0.0338,-0.3157,0.0351,-0.0133,-0.04,0.0149,973,2019-08-07 16:48:49:176
-6.774,-6.3764,1.8325,-0.1362,-0.3463,-0.009,-0.0133,-0.04,0.0149,978,2019-08-07 16:48:49:181
-6.774,-6.3764,1.8325,-0.1362,-0.3463,-0.009,-0.0122,-0.057,0.016,982,2019-08-07 16:48:49:185
-6.774,-6.3764,1.8325,-0.1362,-0.3463,-0.009,-0.0122,-0.057,0.016,988,2019-08-07 16:48:49:191
-6.6736,-6.386,1.9362,-0.1362,-0.3463,-0.009,-0.0154,-0.072,0.0213,993,2019-08-07 16:48:49:196
-6.6736,-6.386,1.9362,-0.2086,-0.3005,-0.0295,-0.0154,-0.072,0.0213,998,2019-08-07 16:48:49:201
-6.6114,-6.4576,1.9362,-0.2086,-0.3005,-0.0295,-0.0154,-0.072,0.0213,1003,2019-08-07 16:48:49:206
-6.6114,-6.4576,1.9362,-0.2086,-0.3005,-0.0295,-0.0175,-0.0794,0.0224,1008,2019-08-07 16:48:49:211
-6.6114,-6.4576,1.9362,-0.2038,-0.2466,-0.0813,-0.0175,-0.0794,0.0224,1013,2019-08-07 16:48:49:216
-6.731,-6.4862,2.0681,-0.2038,-0.2466,-0.0813,-0.0165,-0.0815,0.0245,1017,2019-08-07 16:48:49:220
-6.731,-6.4862,2.0681,-0.2038,-0.2466,-0.0813,-0.0165,-0.0815,0.0245,1023,2019-08-07 16:48:49:226
-6.731,-6.4862,2.0681,-0.2038,-0.2466,-0.0813,-0.0143,-0.0975,0.0256,1027,2019-08-07 16:48:49:230
-6.7788,-6.5292,2.12,-0.1179,-0.181,-0.2109,-0.0143,-0.0975,0.0256,1033,2019-08-07 16:48:49:236
-6.7788,-6.5292,2.12,-0.1179,-0.181,-0.2109,-0.0154,-0.122,0.017,1037,2019-08-07 16:48:49:240
-6.8697,-6.5053,2.2048,-0.1179,-0.181,-0.2109,-0.0154,-0.122,0.017,1043,2019-08-07 16:48:49:246
-6.8697,-6.5053,2.2048,0.0226,-0.2209,-0.2598,-0.025,-0.1444,0.0128,1048,2019-08-07 16:48:49:251
-6.8697,-6.5053,2.2048,0.0226,-0.2209,-0.2598,-0.025,-0.1444,0.0128,1052,2019-08-07 16:48:49:255
-6.8936,-6.4815,2.2096,0.0226,-0.2209,-0.2598,-0.025,-0.1444,0.0128,1058,2019-08-07 16:48:49:261
-6.8936,-6.4815,2.2096,0.0226,-0.2209,-0.2598,-0.0356,-0.1636,0.0117,1062,2019-08-07 16:48:49:265
-6.9176,-6.4528,2.2331,0.0226,-0.2209,-0.2598,-0.0356,-0.1636,0.0117,1068,2019-08-07 16:48:49:271
-6.9176,-6.4528,2.2331,0.0458,-0.2527,-0.2348,-0.0442,-0.1817,0.0117,1072,2019-08-07 16:48:49:275
-6.8697,-6.5101,2.2944,0.0458,-0.2527,-0.2348,-0.0442,-0.1817,0.0117,1078,2019-08-07 16:48:49:281
-6.8697,-6.5101,2.2944,0.0458,-0.2527,-0.2348,-0.0516,-0.1955,0.0106,1082,2019-08-07 16:48:49:285
-6.8697,-6.5101,2.2944,0.0458,-0.2527,-0.2348,-0.0516,-0.1955,0.0106,1088,2019-08-07 16:48:49:291
-6.8697,-6.5101,2.2944,0.1471,-0.0652,-0.8285,-0.0516,-0.1955,0.0106,1092,2019-08-07 16:48:49:295
-7.1616,-6.6867,2.9308,0.1471,-0.0652,-0.8285,-0.0505,-0.2222,0.0202,1098,2019-08-07 16:48:49:301
-7.1616,-6.6867,2.9308,0.1471,-0.0652,-0.8285,-0.0505,-0.2222,0.0202,1102,2019-08-07 16:48:49:305
-7.1616,-6.6867,2.9308,0.1471,-0.0652,-0.8285,-0.0186,-0.367,0.0458,1108,2019-08-07 16:48:49:311
-7.9031,-6.9588,4.2883,1.0246,0.2606,-2.2744,-0.0186,-0.367,0.0458,1113,2019-08-07 16:48:49:316
-7.9031,-6.9588,4.2883,1.0246,0.2606,-2.2744,-0.0047,-0.562,0.066,1117,2019-08-07 16:48:49:320
-7.9031,-6.9588,4.2883,1.0246,0.2606,-2.2744,-0.0047,-0.562,0.066,1123,2019-08-07 16:48:49:326
-8.7499,-6.9732,5.4668,1.0246,0.2606,-2.2744,-0.0111,-0.7814,0.0788,1127,2019-08-07 16:48:49:330
-8.7499,-6.9732,5.4668,2.073,0.2767,-3.7658,-0.0111,-0.7814,0.0788,1133,2019-08-07 16:48:49:336
-8.7499,-6.9732,5.4668,2.073,0.2767,-3.7658,-0.0218,-1.1894,0.0852,1138,2019-08-07 16:48:49:341
-9.2571,-6.7631,6.8432,2.073,0.2767,-3.7658,-0.0218,-1.1894,0.0852,1142,2019-08-07 16:48:49:345
-9.2571,-6.7631,6.8432,2.073,0.2767,-3.7658,-0.026,-1.5687,0.0895,1148,2019-08-07 16:48:49:351
-9.5728,-6.3573,7.7671,2.7312,-0.2884,-5.2551,-0.026,-1.5687,0.0895,1152,2019-08-07 16:48:49:355
-9.5728,-6.3573,7.7671,2.7312,-0.2884,-5.2551,-0.026,-1.5687,0.0895,1158,2019-08-07 16:48:49:361
-9.5728,-6.3573,7.7671,2.7312,-0.2884,-5.2551,-0.0378,-1.901,0.0969,1163,2019-08-07 16:48:49:366
-9.5633,-6.1282,8.7429,2.7312,-0.2884,-5.2551,-0.0378,-1.901,0.0969,1168,2019-08-07 16:48:49:371
-9.5633,-6.1282,8.7429,2.9783,-0.8447,-6.9205,-0.0548,-2.2675,0.1129,1173,2019-08-07 16:48:49:376
-9.5633,-5.584,10.1618,2.9783,-0.8447,-6.9205,-0.0548,-2.2675,0.1129,1178,2019-08-07 16:48:49:381
-9.879,-5.584,10.1618,2.9783,-0.8447,-6.9205,-0.0932,-2.5274,0.1598,1182,2019-08-07 16:48:49:385
-9.879,-5.584,10.1618,2.9783,-0.8447,-6.9205,-0.0932,-2.5274,0.1598,1188,2019-08-07 16:48:49:391
-10.7019,-5.0589,12.1793,4.075,-1.5403,-9.2175,-0.0932,-2.5274,0.1598,1193,2019-08-07 16:48:49:396
-10.7019,-5.0589,12.1793,4.075,-1.5403,-9.2175,-0.221,-2.9482,0.2525,1197,2019-08-07 16:48:49:400
-11.6157,-4.5576,13.3719,4.075,-1.5403,-9.2175,-0.221,-2.9482,0.2525,1203,2019-08-07 16:48:49:406
-11.6157,-4.5576,13.3719,4.075,-1.5403,-9.2175,-0.401,-3.5234,0.3686,1208,2019-08-07 16:48:49:411
-11.6157,-4.5576,13.3719,5.2977,-2.2402,-10.2595,-0.401,-3.5234,0.3686,1213,2019-08-07 16:48:49:416
-11.7688,-4.0134,13.7961,5.2977,-2.2402,-10.2595,-0.5054,-4.0582,0.4495,1218,2019-08-07 16:48:49:421
-11.7688,-4.0134,13.7961,5.2977,-2.2402,-10.2595,-0.5054,-4.0582,0.4495,1223,2019-08-07 16:48:49:426
-11.3717,-3.2544,13.3341,5.2977,-2.2402,-10.2595,-0.5992,-4.5162,0.5294,1228,2019-08-07 16:48:49:431
-11.3717,-3.2544,13.3341,4.9925,-3.3414,-9.3892,-0.5992,-4.5162,0.5294,1233,2019-08-07 16:48:49:436
-11.3717,-3.2544,13.3341,4.9925,-3.3414,-9.3892,-0.7089,-4.7847,0.6434,1238,2019-08-07 16:48:49:441
-10.1804,-3.0348,12.99,4.9925,-3.3414,-9.3892,-0.7089,-4.7847,0.6434,1242,2019-08-07 16:48:49:445
-10.1804,-3.0348,12.99,4.9925,-3.3414,-9.3892,-0.7632,-4.6611,0.6945,1248,2019-08-07 16:48:49:451
-10.1804,-3.0348,12.99,3.4763,-3.4175,-8.7059,-0.7632,-4.6611,0.6945,1252,2019-08-07 16:48:49:455
-9.2092,-2.9345,13.1173,3.4763,-3.4175,-8.7059,-0.7632,-4.6611,0.6945,1257,2019-08-07 16:48:49:460
-9.2092,-2.9345,13.1173,3.4763,-3.4175,-8.7059,-0.7962,-4.3074,0.7233,1262,2019-08-07 16:48:49:465
-9.2092,-2.9345,13.1173,3.4763,-3.4175,-8.7059,-0.7962,-4.3074,0.7233,1268,2019-08-07 16:48:49:471
-9.6542,-2.2184,13.7442,4.275,-4.3097,-8.9425,-0.8932,-3.7205,0.7435,1272,2019-08-07 16:48:49:475
-9.6542,-2.2184,13.7442,4.275,-4.3097,-8.9425,-0.8932,-3.7205,0.7435,1278,2019-08-07 16:48:49:481
-10.9124,-1.6551,14.2486,4.275,-4.3097,-8.9425,-1.0466,-3.3359,0.7393,1282,2019-08-07 16:48:49:485
-10.9124,-1.6551,14.2486,4.275,-4.3097,-8.9425,-1.0466,-3.3359,0.7393,1288,2019-08-07 16:48:49:491
-13.6155,-0.9343,14.9981,8.2257,-5.4701,-9.8825,-1.2255,-3.2369,0.7776,1293,2019-08-07 16:48:49:496
-13.6155,-0.9343,14.9981,8.2257,-5.4701,-9.8825,-1.2255,-3.2369,0.7776,1298,2019-08-07 16:48:49:501
-13.6155,-0.9343,14.9981,8.2257,-5.4701,-9.8825,-1.2255,-3.2369,0.7776,1302,2019-08-07 16:48:49:505
-16.5626,-0.7242,14.8614,8.2257,-5.4701,-9.8825,-1.4929,-3.5916,0.9055,1308,2019-08-07 16:48:49:511
-16.5626,-0.7242,14.8614,12.313,-5.7183,-9.1632,-1.4929,-3.5916,0.9055,1312,2019-08-07 16:48:49:515
-16.5626,-0.7242,14.8614,12.313,-5.7183,-9.1632,-1.7102,-4.2393,1.0439,1318,2019-08-07 16:48:49:521
-18.6103,-0.6622,14.0035,12.313,-5.7183,-9.1632,-1.7102,-4.2393,1.0439,1322,2019-08-07 16:48:49:525
-18.6103,-0.6622,14.0035,12.313,-5.7183,-9.1632,-1.951,-5.0861,1.1867,1328,2019-08-07 16:48:49:531
-20.1699,-0.476,12.0096,15.3552,-6.0011,-6.4327,-1.951,-5.0861,1.1867,1333,2019-08-07 16:48:49:536
-20.1699,-0.476,12.0096,15.3552,-6.0011,-6.4327,-2.2897,-6.2505,1.3657,1338,2019-08-07 16:48:49:541
-20.1699,-0.476,12.0096,15.3552,-6.0011,-6.4327,-2.2897,-6.2505,1.3657,1343,2019-08-07 16:48:49:546
-20.39,-0.3996,9.6197,15.3552,-6.0011,-6.4327,-2.4687,-7.0643,1.5414,1348,2019-08-07 16:48:49:551
-20.39,-0.3996,9.6197,15.175,-5.897,-1.6688,-2.4687,-7.0643,1.5414,1353,2019-08-07 16:48:49:556
-20.39,-0.3996,9.6197,15.175,-5.897,-1.6688,-2.4687,-7.0643,1.5414,1358,2019-08-07 16:48:49:561
-18.5098,-1.0154,5.7826,15.175,-5.897,-1.6688,-2.5294,-7.4809,1.6938,1362,2019-08-07 16:48:49:565
-18.5098,-1.0154,5.7826,15.175,-5.897,-1.6688,-2.5294,-7.4809,1.6938,1368,2019-08-07 16:48:49:571
-16.0459,-1.8604,1.2291,12.3601,-4.8681,4.8848,-2.5646,-7.058,1.7939,1372,2019-08-07 16:48:49:575
-16.0459,-1.8604,1.2291,12.3601,-4.8681,4.8848,-2.5646,-7.058,1.7939,1378,2019-08-07 16:48:49:581
-16.0459,-1.8604,1.2291,12.3601,-4.8681,4.8848,-2.5678,-6.5381,1.8227,1382,2019-08-07 16:48:49:585
-15.2565,-2.0609,-0.3878,12.3601,-4.8681,4.8848,-2.5678,-6.5381,1.8227,1388,2019-08-07 16:48:49:591
-15.2565,-2.0609,-0.3878,12.3601,-4.8681,4.8848,-2.5678,-6.5381,1.8227,1392,2019-08-07 16:48:49:595
-15.2565,-2.0609,-0.3878,12.6503,-4.8084,6.4597,-2.5209,-5.7296,1.8365,1398,2019-08-07 16:48:49:601
-17.1511,-1.9797,0.357,12.6503,-4.8084,6.4597,-2.5209,-5.7296,1.8365,1402,2019-08-07 16:48:49:605
-17.1511,-1.9797,0.357,12.6503,-4.8084,6.4597,-2.507,-5.0276,1.8589,1408,2019-08-07 16:48:49:611
-21.256,-1.5549,1.9644,20.1525,-5.6932,3.5421,-2.507,-5.0276,1.8589,1413,2019-08-07 16:48:49:616
-21.256,-1.5549,1.9644,20.1525,-5.6932,3.5421,-2.5965,-5.4856,1.8791,1418,2019-08-07 16:48:49:621
-21.256,-1.5549,1.9644,20.1525,-5.6932,3.5421,-2.5965,-5.4856,1.8791,1422,2019-08-07 16:48:49:625
-21.256,-1.5549,1.9644,20.1525,-5.6932,3.5421,-2.5965,-5.4856,1.8791,1428,2019-08-07 16:48:49:631
-25.7866,-0.92,0.489,23.0727,-6.2705,5.6076,-2.6892,-6.1173,1.8727,1432,2019-08-07 16:48:49:635
-25.7866,-0.92,0.489,23.0727,-6.2705,5.6076,-2.6892,-6.1173,1.8727,1438,2019-08-07 16:48:49:641
-25.7866,-0.92,0.489,23.0727,-6.2705,5.6076,-3.1057,-7.4116,1.6586,1442,2019-08-07 16:48:49:645
-20.4857,-1.8318,-6.709,16.6435,-5.3981,13.4545,-3.1057,-7.4116,1.6586,1448,2019-08-07 16:48:49:651
-20.4857,-1.8318,-6.709,16.6435,-5.3981,13.4545,-3.4477,-8.9424,1.437,1452,2019-08-07 16:48:49:655
-12.5773,-2.9059,-10.2255,16.6435,-5.3981,13.4545,-3.4477,-8.9424,1.437,1458,2019-08-07 16:48:49:661
-12.5773,-2.9059,-10.2255,16.6435,-5.3981,13.4545,-3.6458,-10.5137,1.2687,1463,2019-08-07 16:48:49:666
-12.5773,-2.9059,-10.2255,8.9779,-4.2516,17.0481,-3.6458,-10.5137,1.2687,1467,2019-08-07 16:48:49:670
-7.5635,-4.3476,-10.3056,8.9779,-4.2516,17.0481,-3.5127,-11.0314,1.1079,1473,2019-08-07 16:48:49:676
-7.5635,-4.3476,-10.3056,8.9779,-4.2516,17.0481,-3.5127,-11.0314,1.1079,1477,2019-08-07 16:48:49:680
-4.8077,-4.1471,-15.6181,4.4831,-3.2964,13.8363,-2.6189,-7.647,0.9971,1483,2019-08-07 16:48:49:686
-4.8077,-4.1471,-15.6181,4.4831,-3.2964,13.8363,-2.6189,-7.647,0.9971,1487,2019-08-07 16:48:49:690
-4.8077,-4.1471,-15.6181,4.4831,-3.2964,13.8363,-2.6189,-7.647,0.9971,1493,2019-08-07 16:48:49:696
-0.1718,-5.3023,-17.7723,-0.0372,-2.9955,23.4614,-2.6349,-5.0041,1.0003,1498,2019-08-07 16:48:49:701
-0.1718,-5.3023,-17.7723,-0.0372,-2.9955,23.4614,-2.6349,-5.0041,1.0003,1502,2019-08-07 16:48:49:705
-0.1718,-5.3023,-17.7723,-0.0372,-2.9955,23.4614,-3.143,-1.8691,0.9374,1508,2019-08-07 16:48:49:711
-0.6837,-6.8061,-16.3534,-0.0372,-2.9955,23.4614,-3.143,-1.8691,0.9374,1512,2019-08-07 16:48:49:715
-0.6837,-6.8061,-16.3534,0.9326,-0.6405,15.0127,-3.5521,-0.7111,0.718,1517,2019-08-07 16:48:49:720
-0.6837,-6.8061,-16.3534,0.9326,-0.6405,15.0127,-3.5521,-0.7111,0.718,1523,2019-08-07 16:48:49:726
-3.1524,-7.651,-10.1878,3.017,-1.2501,14.3094,-3.828,-1.1415,0.2588,1528,2019-08-07 16:48:49:731
-3.1524,-7.651,-10.1878,3.017,-1.2501,14.3094,-3.828,-1.1415,0.2588,1532,2019-08-07 16:48:49:735
-3.1524,-7.651,-10.1878,3.017,-1.2501,14.3094,-3.4807,-0.9561,0.1118,1538,2019-08-07 16:48:49:741
-2.8941,-8.243,-9.4571,3.017,-1.2501,14.3094,-3.4807,-0.9561,0.1118,1543,2019-08-07 16:48:49:746
-2.8941,-8.243,-9.4571,1.9483,-0.859,12.4824,-2.9172,-1.5921,-0.0661,1548,2019-08-07 16:48:49:751
-0.3584,-8.5103,-9.4618,1.9483,-0.859,12.4824,-2.9172,-1.5921,-0.0661,1553,2019-08-07 16:48:49:756
-0.3584,-8.5103,-9.4618,1.9483,-0.859,12.4824,-2.9172,-1.5921,-0.0661,1557,2019-08-07 16:48:49:760
-0.3584,-8.5103,-9.4618,1.9483,-0.859,12.4824,-2.3068,-2.7841,-0.2067,1563,2019-08-07 16:48:49:766
1.1726,-8.4817,-12.1911,-1.1024,-0.9048,15.0415,-2.3068,-2.7841,-0.2067,1568,2019-08-07 16:48:49:771
1.1726,-8.4817,-12.1911,-1.1024,-0.9048,15.0415,-1.6548,-3.7695,-0.2663,1573,2019-08-07 16:48:49:776
1.517,-8.7347,-15.4531,-1.3154,-0.7099,18.098,-1.6548,-3.7695,-0.2663,1578,2019-08-07 16:48:49:781
1.517,-8.7347,-15.4531,-1.3154,-0.7099,18.098,-1.2351,-3.0749,-0.2227,1582,2019-08-07 16:48:49:785
1.517,-8.7347,-15.4531,-1.3154,-0.7099,18.098,-1.2351,-3.0749,-0.2227,1588,2019-08-07 16:48:49:791
1.517,-8.7347,-15.4531,-1.3154,-0.7099,18.098,-1.2351,-3.0749,-0.2227,1592,2019-08-07 16:48:49:795
2.6892,-9.9902,-16.1837,-3.4006,0.8737,18.731,-0.5331,0.4894,-0.1225,1598,2019-08-07 16:48:49:801
2.6892,-9.9902,-16.1837,-3.4006,0.8737,18.731,-0.5331,0.4894,-0.1225,1602,2019-08-07 16:48:49:805
2.8614,-11.1741,-12.6484,-3.4006,0.8737,18.731,-0.3009,2.5166,-0.1577,1608,2019-08-07 16:48:49:811
2.8614,-11.1741,-12.6484,-3.4006,0.8737,18.731,-0.3009,2.5166,-0.1577,1613,2019-08-07 16:48:49:816
2.8614,-11.1741,-12.6484,-1.2283,2.3145,0.1518,-0.2114,2.9363,-0.179,1618,2019-08-07 16:48:49:821
1.273,-11.2362,-2.5891,-1.2283,2.3145,0.1518,-0.2114,2.9363,-0.179,1623,2019-08-07 16:48:49:826
1.273,-11.2362,-2.5891,-1.2283,2.3145,0.1518,0.5077,2.3228,-0.2269,1628,2019-08-07 16:48:49:831
0.7228,-9.847,-8.3588,-1.2283,2.3145,0.1518,0.5077,2.3228,-0.2269,1633,2019-08-07 16:48:49:836
0.7228,-9.847,-8.3588,-1.0752,0.1634,6.4413,0.856,1.4727,-0.3036,1638,2019-08-07 16:48:49:841
0.7228,-9.847,-8.3588,-1.0752,0.1634,6.4413,0.856,1.4727,-0.3036,1642,2019-08-07 16:48:49:845
0.3353,-9.4364,-3.9231,-1.0752,0.1634,6.4413,1.3556,0.2988,-0.2951,1648,2019-08-07 16:48:49:851
0.3353,-9.4364,-3.9231,-1.0752,0.1634,6.4413,1.3556,0.2988,-0.2951,1652,2019-08-07 16:48:49:855
0.4836,-8.8349,-3.348,-1.0752,0.1634,6.4413,1.3556,0.2988,-0.2951,1658,2019-08-07 16:48:49:861
0.4836,-8.8349,-3.348,-0.2518,-0.6369,5.8911,1.9777,0.0218,-0.2195,1663,2019-08-07 16:48:49:866
0.4836,-8.8349,-3.348,-0.2518,-0.6369,5.8911,1.9777,0.0218,-0.2195,1667,2019-08-07 16:48:49:870
3.1006,-7.1355,-8.7171,-0.2518,-0.6369,5.8911,2.1119,1.9638,-0.131,1673,2019-08-07 16:48:49:876
3.1006,-7.1355,-8.7171,-3.6121,-3.5333,10.8777,2.1119,1.9638,-0.131,1677,2019-08-07 16:48:49:880
3.7847,-5.6556,-8.7736,-3.6121,-3.5333,10.8777,1.6038,2.0192,-0.0245,1683,2019-08-07 16:48:49:886
3.7847,-5.6556,-8.7736,-3.6121,-3.5333,10.8777,1.6038,2.0192,-0.0245,1687,2019-08-07 16:48:49:890
3.7847,-5.6556,-8.7736,-3.6121,-3.5333,10.8777,1.6038,2.0192,-0.0245,1693,2019-08-07 16:48:49:896
1.6605,-5.2546,-9.278,-0.3793,-4.1984,6.3924,0.9892,3.4775,-0.0682,1698,2019-08-07 16:48:49:901
1.6605,-5.2546,-9.278,-0.3793,-4.1984,6.3924,0.9892,3.4775,-0.0682,1703,2019-08-07 16:48:49:906
1.6605,-5.2546,-9.278,-0.3793,-4.1984,6.3924,1.0456,3.7151,0.1342,1708,2019-08-07 16:48:49:911
-2.363,-6.1282,-3.9797,2.3033,-3.1607,7.1338,1.0456,3.7151,0.1342,1713,2019-08-07 16:48:49:916
-2.363,-6.1282,-3.9797,2.3033,-3.1607,7.1338,1.1894,4.2477,0.2876,1717,2019-08-07 16:48:49:920
-2.363,-6.1282,-3.9797,2.3033,-3.1607,7.1338,1.1894,4.2477,0.2876,1723,2019-08-07 16:48:49:926
-3.1715,-6.9397,-3.9184,2.3033,-3.1607,7.1338,1.0648,4.2839,0.2546,1727,2019-08-07 16:48:49:930
-3.1715,-6.9397,-3.9184,3.0888,-2.4049,7.3435,1.0648,4.2839,0.2546,1732,2019-08-07 16:48:49:935
-3.1715,-6.9397,-3.9184,3.0888,-2.4049,7.3435,1.0424,4.7345,0.2386,1738,2019-08-07 16:48:49:941
-3.1715,-6.9397,-3.9184,3.0888,-2.4049,7.3435,1.0424,4.7345,0.2386,1742,2019-08-07 16:48:49:945
-4.6977,-6.3335,-3.7063,4.3012,-2.8228,7.8905,1.0424,4.7345,0.2386,1748,2019-08-07 16:48:49:951
-4.6977,-6.3335,-3.7063,4.3012,-2.8228,7.8905,1.2363,5.134,0.2791,1752,2019-08-07 16:48:49:955
-5.2527,-6.5292,-5.507,4.3012,-2.8228,7.8905,1.2363,5.134,0.2791,1758,2019-08-07 16:48:49:961
-5.2527,-6.5292,-5.507,4.2576,-2.635,9.2122,1.4483,5.6815,0.2375,1762,2019-08-07 16:48:49:965
-6.133,-6.1473,-5.9076,4.2576,-2.635,9.2122,1.4483,5.6815,0.2375,1768,2019-08-07 16:48:49:971
-6.133,-6.1473,-5.9076,4.2576,-2.635,9.2122,1.6667,6.4017,0.0831,1773,2019-08-07 16:48:49:976
-6.133,-6.1473,-5.9076,4.2576,-2.635,9.2122,1.6667,6.4017,0.0831,1778,2019-08-07 16:48:49:981
-8.5931,-5.856,-4.7812,6.5588,-3.1632,8.606,1.8115,6.8214,0.0799,1783,2019-08-07 16:48:49:986
-8.5931,-5.856,-4.7812,6.5588,-3.1632,8.606,1.8115,6.8214,0.0799,1788,2019-08-07 16:48:49:991
-8.5931,-5.856,-4.7812,6.5588,-3.1632,8.606,1.8904,6.9599,0.1757,1793,2019-08-07 16:48:49:996
-10.9183,-6.2045,-2.6317,6.5588,-3.1632,8.606,1.8904,6.9599,0.1757,1798,2019-08-07 16:48:50:001
-10.9183,-6.2045,-2.6317,9.4749,-2.4199,5.0776,1.8904,6.9599,0.1757,1802,2019-08-07 16:48:50:005
-12.2196,-6.8251,-0.058,9.4749,-2.4199,5.0776,1.9223,6.5327,0.3142,1808,2019-08-07 16:48:50:011
-12.2196,-6.8251,-0.058,9.8827,-1.8434,3.3101,1.9223,6.5327,0.3142,1812,2019-08-07 16:48:50:015
-12.2196,-6.8251,-0.058,9.8827,-1.8434,3.3101,1.9671,5.9042,0.3728,1818,2019-08-07 16:48:50:021
-11.9613,-7.3168,0.5736,9.8827,-1.8434,3.3101,1.9671,5.9042,0.3728,1822,2019-08-07 16:48:50:025
-11.9613,-7.3168,0.5736,9.8827,-1.8434,3.3101,2.0565,5.4248,0.3867,1828,2019-08-07 16:48:50:031
-10.3585,-7.2452,-0.5671,7.7809,-1.3774,3.7793,2.0565,5.4248,0.3867,1832,2019-08-07 16:48:50:035
-10.3585,-7.2452,-0.5671,7.7809,-1.3774,3.7793,2.2014,5.4557,0.3696,1838,2019-08-07 16:48:50:041
-10.3585,-7.2452,-0.5671,7.7809,-1.3774,3.7793,2.2014,5.4557,0.3696,1842,2019-08-07 16:48:50:045
-9.1864,-6.6102,-0.8217,7.7809,-1.3774,3.7793,2.2781,5.7881,0.3707,1848,2019-08-07 16:48:50:051
-9.1864,-6.6102,-0.8217,5.996,-2.1592,3.7434,2.2781,5.7881,0.3707,1853,2019-08-07 16:48:50:056
-9.1864,-6.6102,-0.8217,5.996,-2.1592,3.7434,2.2781,5.7881,0.3707,1857,2019-08-07 16:48:50:060
-10.6935,-5.9658,1.0026,5.996,-2.1592,3.7434,2.374,6.5668,0.4026,1863,2019-08-07 16:48:50:066
-10.6935,-5.9658,1.0026,5.996,-2.1592,3.7434,2.374,6.5668,0.4026,1867,2019-08-07 16:48:50:070
-13.9037,-5.517,3.2416,9.3394,-2.636,0.7128,2.2419,6.9503,0.4186,1873,2019-08-07 16:48:50:076
-13.9037,-5.517,3.2416,9.3394,-2.636,0.7128,2.2419,6.9503,0.4186,1878,2019-08-07 16:48:50:081
-13.9037,-5.517,3.2416,9.3394,-2.636,0.7128,2.0789,6.6658,0.3792,1883,2019-08-07 16:48:50:086
-16.0806,-5.4502,5.0093,9.3394,-2.636,0.7128,2.0789,6.6658,0.3792,1887,2019-08-07 16:48:50:090
-16.0806,-5.4502,5.0093,12.0199,-2.4866,-2.0713,2.0075,6.0853,0.3057,1893,2019-08-07 16:48:50:096
-16.8413,-5.77,5.0564,12.0199,-2.4866,-2.0713,2.0075,6.0853,0.3057,1897,2019-08-07 16:48:50:100
-16.8413,-5.77,5.0564,12.0199,-2.4866,-2.0713,2.0075,6.0853,0.3057,1903,2019-08-07 16:48:50:106
-16.8413,-5.77,5.0564,12.0199,-2.4866,-2.0713,1.9841,5.4568,0.2098,1907,2019-08-07 16:48:50:110
-16.0806,-5.9371,4.5756,10.7418,-1.9615,-1.6723,1.9841,5.4568,0.2098,1913,2019-08-07 16:48:50:116
-16.0806,-5.9371,4.5756,10.7418,-1.9615,-1.6723,2.0544,5.1755,0.1257,1917,2019-08-07 16:48:50:120
-14.6405,-5.6125,4.6086,10.7418,-1.9615,-1.6723,2.0544,5.1755,0.1257,1923,2019-08-07 16:48:50:126
-14.6405,-5.6125,4.6086,10.7418,-1.9615,-1.6723,2.194,5.2363,0.0905,1928,2019-08-07 16:48:50:131
-14.6405,-5.6125,4.6086,8.8922,-2.3981,-2.4267,2.194,5.2363,0.0905,1933,2019-08-07 16:48:50:136
-14.3583,-4.9585,5.9756,8.8922,-2.3981,-2.4267,2.194,5.2363,0.0905,1937,2019-08-07 16:48:50:140
-14.3583,-4.9585,5.9756,9.0601,-3.0209,-4.1667,2.2249,5.3279,0.0618,1943,2019-08-07 16:48:50:146
-14.3583,-4.9585,5.9756,9.0601,-3.0209,-4.1667,2.2249,5.3279,0.0618,1947,2019-08-07 16:48:50:150
-15.3008,-4.166,8.375,9.0601,-3.0209,-4.1667,2.081,5.1841,0.0106,1953,2019-08-07 16:48:50:156
-15.3008,-4.166,8.375,9.0601,-3.0209,-4.1667,2.081,5.1841,0.0106,1957,2019-08-07 16:48:50:160
-15.6596,-3.9846,9.6854,9.7477,-3.4648,-7.505,1.8083,4.6962,-0.0575,1963,2019-08-07 16:48:50:166
-15.6596,-3.9846,9.6854,9.7477,-3.4648,-7.505,1.8083,4.6962,-0.0575,1967,2019-08-07 16:48:50:170
-15.6596,-3.9846,9.6854,9.7477,-3.4648,-7.505,1.4653,3.9153,-0.1875,1973,2019-08-07 16:48:50:176
-14.3775,-4.6386,9.9918,9.7477,-3.4648,-7.505,1.4653,3.9153,-0.1875,1978,2019-08-07 16:48:50:181
-14.3775,-4.6386,9.9918,7.0215,-2.2817,-6.9964,1.2576,3.4285,-0.2876,1983,2019-08-07 16:48:50:186
-14.3775,-4.6386,9.9918,7.0215,-2.2817,-6.9964,1.2576,3.4285,-0.2876,1987,2019-08-07 16:48:50:190
-11.4495,-5.5791,7.8046,7.0215,-2.2817,-6.9964,1.2576,3.4285,-0.2876,1993,2019-08-07 16:48:50:196
-11.4495,-5.5791,7.8046,4.8116,-1.6148,-5.3191,1.1404,3.3486,-0.3366,1997,2019-08-07 16:48:50:200
-9.6746,-6.1615,5.9615,4.8116,-1.6148,-5.3191,1.1404,3.3486,-0.3366,2002,2019-08-07 16:48:50:205
-9.6746,-6.1615,5.9615,4.8116,-1.6148,-5.3191,1.182,3.8163,-0.3175,2008,2019-08-07 16:48:50:211
-9.6746,-6.1615,5.9615,4.8116,-1.6148,-5.3191,1.182,3.8163,-0.3175,2012,2019-08-07 16:48:50:215
-8.6603,-6.51,5.5089,2.4292,-0.8566,-3.7363,1.395,4.2296,-0.2014,2018,2019-08-07 16:48:50:221
-8.6603,-6.51,5.5089,2.4292,-0.8566,-3.7363,1.395,4.2296,-0.2014,2022,2019-08-07 16:48:50:225
-9.4497,-5.9705,5.7164,2.4292,-0.8566,-3.7363,1.5782,4.5321,-0.0852,2028,2019-08-07 16:48:50:231
-9.4497,-5.9705,5.7164,4.2805,-2.0418,-5.3441,1.5782,4.5321,-0.0852,2032,2019-08-07 16:48:50:235
-9.4497,-5.9705,5.7164,4.2805,-2.0418,-5.3441,1.7359,4.498,0.066,2038,2019-08-07 16:48:50:241
-12.2294,-4.5241,8.2288,4.2805,-2.0418,-5.3441,1.7359,4.498,0.066,2043,2019-08-07 16:48:50:246
-12.2294,-4.5241,8.2288,4.2805,-2.0418,-5.3441,1.7455,3.8546,0.1534,2047,2019-08-07 16:48:50:250
-14.0714,-3.6886,9.2847,7.5565,-3.5471,-8.086,1.7455,3.8546,0.1534,2053,2019-08-07 16:48:50:256
-14.0714,-3.6886,9.2847,7.5565,-3.5471,-8.086,1.7455,3.8546,0.1534,2058,2019-08-07 16:48:50:261
-14.0714,-3.6886,9.2847,7.5565,-3.5471,-8.086,1.6187,2.8756,0.1885,2063,2019-08-07 16:48:50:266
-13.8848,-3.8223,9.2046,7.5565,-3.5471,-8.086,1.6187,2.8756,0.1885,2067,2019-08-07 16:48:50:270
-13.8848,-3.8223,9.2046,6.3122,-2.9131,-7.7278,1.3705,1.4578,0.1054,2073,2019-08-07 16:48:50:276
-12.5404,-4.3999,8.6813,6.3122,-2.9131,-7.7278,1.3705,1.4578,0.1054,2078,2019-08-07 16:48:50:281
-12.5404,-4.3999,8.6813,6.3122,-2.9131,-7.7278,1.3705,1.4578,0.1054,2082,2019-08-07 16:48:50:285
-12.5404,-4.3999,8.6813,6.3122,-2.9131,-7.7278,1.2438,0.9219,0.0447,2088,2019-08-07 16:48:50:291
-9.0719,-5.2926,6.7817,1.9413,-1.683,-5.0895,1.1596,0.7739,-0.0149,2093,2019-08-07 16:48:50:296
-9.0719,-5.2926,6.7817,1.9413,-1.683,-5.0895,1.1596,0.7739,-0.0149,2098,2019-08-07 16:48:50:301
-9.0719,-5.2926,6.7817,1.9413,-1.683,-5.0895,1.0456,0.9496,-0.114,2102,2019-08-07 16:48:50:305
-7.0864,-5.9896,4.7594,1.9413,-1.683,-5.0895,1.0456,0.9496,-0.114,2108,2019-08-07 16:48:50:311
-7.0864,-5.9896,4.7594,1.9413,-1.683,-5.0895,1.0456,0.9496,-0.114,2113,2019-08-07 16:48:50:316
-7.0864,-5.9896,4.7594,0.1861,-0.6057,-3.0374,1.0275,1.2405,-0.1257,2117,2019-08-07 16:48:50:320
-7.0434,-6.7248,4.1372,0.1861,-0.6057,-3.0374,1.0275,1.2405,-0.1257,2123,2019-08-07 16:48:50:326
-7.0434,-6.7248,4.1372,0.6697,-0.2016,-3.0705,1.0669,1.4343,-0.0831,2128,2019-08-07 16:48:50:331
-8.139,-6.7248,4.9951,0.6697,-0.2016,-3.0705,1.0669,1.4343,-0.0831,2133,2019-08-07 16:48:50:336
-8.139,-6.7248,4.9951,0.6697,-0.2016,-3.0705,1.0669,1.4343,-0.0831,2137,2019-08-07 16:48:50:340
-9.3733,-5.8989,5.0517,0.6697,-0.2016,-3.0705,1.0893,1.1883,0.0405,2143,2019-08-07 16:48:50:346
-9.3733,-5.8989,5.0517,2.8799,-1.4208,-3.7267,1.0893,1.1883,0.0405,2147,2019-08-07 16:48:50:350
-9.3733,-5.8989,5.0517,2.8799,-1.4208,-3.7267,0.9231,0.6333,0.1172,2153,2019-08-07 16:48:50:356
-9.7035,-5.1255,4.0901,2.8799,-1.4208,-3.7267,0.9231,0.6333,0.1172,2157,2019-08-07 16:48:50:360
-9.7035,-5.1255,4.0901,2.8799,-1.4208,-3.7267,0.693,-0.007,0.1598,2163,2019-08-07 16:48:50:366
-9.7035,-5.1255,4.0901,2.1959,-1.7458,-2.1679,0.693,-0.007,0.1598,2167,2019-08-07 16:48:50:370
-8.2778,-5.4693,2.822,2.1959,-1.7458,-2.1679,0.5247,-0.5172,0.1566,2173,2019-08-07 16:48:50:376
-8.2778,-5.4693,2.822,0.755,-1.0816,-0.6103,0.5247,-0.5172,0.1566,2177,2019-08-07 16:48:50:380
-6.3976,-6.2617,1.2523,0.755,-1.0816,-0.6103,0.4331,-0.4959,0.099,2183,2019-08-07 16:48:50:386
-6.3976,-6.2617,1.2523,0.755,-1.0816,-0.6103,0.4331,-0.4959,0.099,2188,2019-08-07 16:48:50:391
-5.4599,-6.5147,0.649,0.755,-1.0816,-0.6103,0.3383,-0.1359,0.0192,2193,2019-08-07 16:48:50:396
-5.4599,-6.5147,0.649,-1.4071,-0.3564,0.9308,0.3383,-0.1359,0.0192,2198,2019-08-07 16:48:50:401
-5.4599,-6.5147,0.649,-1.4071,-0.3564,0.9308,0.3383,-0.1359,0.0192,2202,2019-08-07 16:48:50:405
-5.4599,-6.5147,0.649,-1.4071,-0.3564,0.9308,0.2701,0.4522,-0.0501,2208,2019-08-07 16:48:50:411
-5.2972,-6.8155,0.3803,-1.4071,-0.3564,0.9308,0.2701,0.4522,-0.0501,2212,2019-08-07 16:48:50:415
-5.2972,-6.8155,0.3803,-1.1783,-0.0308,0.9703,0.2669,0.8751,-0.0842,2218,2019-08-07 16:48:50:421
-6.0914,-6.8632,1.0873,-1.1783,-0.0308,0.9703,0.2669,0.8751,-0.0842,2222,2019-08-07 16:48:50:425
-6.0914,-6.8632,1.0873,-0.4387,-0.1302,0.2044,0.3244,1.1084,-0.1065,2228,2019-08-07 16:48:50:431
-6.0914,-6.8632,1.0873,-0.4387,-0.1302,0.2044,0.3244,1.1084,-0.1065,2232,2019-08-07 16:48:50:435
-7.3066,-6.4813,1.7944,-0.4387,-0.1302,0.2044,0.3244,1.1084,-0.1065,2238,2019-08-07 16:48:50:441
-7.3066,-6.4813,1.7944,-0.4387,-0.1302,0.2044,0.3244,1.1084,-0.1065,2242,2019-08-07 16:48:50:445
-8.2874,-5.8464,2.7796,1.2818,-0.9831,-1.2226,0.4001,1.0136,-0.0884,2248,2019-08-07 16:48:50:451
-8.2874,-5.8464,2.7796,1.2818,-0.9831,-1.2226,0.4001,1.0136,-0.0884,2252,2019-08-07 16:48:50:455
-8.2874,-5.8464,2.7796,1.2818,-0.9831,-1.2226,0.3468,0.4042,-0.0309,2258,2019-08-07 16:48:50:461
-8.6845,-5.6363,3.1049,1.2818,-0.9831,-1.2226,0.3468,0.4042,-0.0309,2263,2019-08-07 16:48:50:466
-8.6845,-5.6363,3.1049,1.6953,-1.2768,-1.6484,0.2541,-0.1028,-0.0053,2268,2019-08-07 16:48:50:471
-8.2013,-5.8368,2.6853,1.6953,-1.2768,-1.6484,0.2541,-0.1028,-0.0053,2272,2019-08-07 16:48:50:475
-8.2013,-5.8368,2.6853,1.1924,-1.0009,-1.142,0.1689,-0.5396,0.017,2278,2019-08-07 16:48:50:481
-8.2013,-5.8368,2.6853,1.1924,-1.0009,-1.142,0.1689,-0.5396,0.017,2283,2019-08-07 16:48:50:486
-6.9814,-6.3142,2.1055,1.1924,-1.0009,-1.142,0.122,-0.7601,0.0117,2288,2019-08-07 16:48:50:491
-6.9814,-6.3142,2.1055,1.1924,-1.0009,-1.142,0.122,-0.7601,0.0117,2293,2019-08-07 16:48:50:496
-5.814,-6.6293,1.2523,-0.7671,-0.3238,0.0937,0.0997,-0.6451,-0.0096,2298,2019-08-07 16:48:50:501
-5.814,-6.6293,1.2523,-0.7671,-0.3238,0.0937,0.0997,-0.6451,-0.0096,2303,2019-08-07 16:48:50:506
-5.814,-6.6293,1.2523,-0.7671,-0.3238,0.0937,0.0997,-0.6451,-0.0096,2308,2019-08-07 16:48:50:511
-5.3787,-6.6722,0.8564,-0.7671,-0.3238,0.0937,0.089,-0.3319,-0.0416,2313,2019-08-07 16:48:50:516
-5.3787,-6.6722,0.8564,-1.443,-0.1439,0.7161,0.089,-0.3319,-0.0416,2317,2019-08-07 16:48:50:520
-5.3787,-6.6722,0.8564,-1.443,-0.1439,0.7161,0.0997,0.1262,-0.0661,2323,2019-08-07 16:48:50:526
-5.5557,-6.782,1.0072,-1.443,-0.1439,0.7161,0.0997,0.1262,-0.0661,2328,2019-08-07 16:48:50:531
-5.5557,-6.782,1.0072,-1.443,-0.1439,0.7161,0.1327,0.4223,-0.0757,2333,2019-08-07 16:48:50:536
-5.5557,-6.782,1.0072,-0.5284,-0.2254,0.2206,0.1327,0.4223,-0.0757,2337,2019-08-07 16:48:50:540
-6.3834,-6.615,1.4361,-0.5284,-0.2254,0.2206,0.1327,0.4223,-0.0757,2343,2019-08-07 16:48:50:546
-6.3834,-6.615,1.4361,-0.5284,-0.2254,0.2206,0.1657,0.5832,-0.0735,2347,2019-08-07 16:48:50:550
-7.2685,-6.3285,1.9122,-0.5284,-0.2254,0.2206,0.1657,0.5832,-0.0735,2353,2019-08-07 16:48:50:556
-7.2685,-6.3285,1.9122,0.7716,-0.8135,-0.623,0.1934,0.5384,-0.0533,2358,2019-08-07 16:48:50:561
-7.2685,-6.3285,1.9122,0.7716,-0.8135,-0.623,0.1934,0.5384,-0.0533,2363,2019-08-07 16:48:50:566
-7.9096,-5.9991,2.3789,0.7716,-0.8135,-0.623,0.1764,0.3254,-0.0224,2367,2019-08-07 16:48:50:570
-7.9096,-5.9991,2.3789,0.7716,-0.8135,-0.623,0.1764,0.3254,-0.0224,2373,2019-08-07 16:48:50:576
-8.0866,-6.0469,2.4213,1.2992,-0.8504,-0.9667,0.1252,0.0282,0.001,2377,2019-08-07 16:48:50:580
-8.0866,-6.0469,2.4213,1.2992,-0.8504,-0.9667,0.1252,0.0282,0.001,2383,2019-08-07 16:48:50:586
-8.0866,-6.0469,2.4213,1.2992,-0.8504,-0.9667,0.0432,-0.3777,0.0074,2388,2019-08-07 16:48:50:591
-7.8618,-6.233,2.2186,1.2992,-0.8504,-0.9667,0.0432,-0.3777,0.0074,2393,2019-08-07 16:48:50:596
-7.8618,-6.233,2.2186,0.6518,-0.4206,-0.4235,0.0017,-0.6046,0.0085,2398,2019-08-07 16:48:50:601
-7.0628,-6.5911,1.8085,0.6518,-0.4206,-0.4235,0.0017,-0.6046,0.0085,2402,2019-08-07 16:48:50:605
-7.0628,-6.5911,1.8085,0.6518,-0.4206,-0.4235,0.0017,-0.6046,0.0085,2408,2019-08-07 16:48:50:611
-7.0628,-6.5911,1.8085,-0.0807,-0.1998,0.0828,-0.0239,-0.6738,-0.0053,2413,2019-08-07 16:48:50:616
-6.283,-6.8345,1.3183,-0.0807,-0.1998,0.0828,-0.0239,-0.6738,-0.0053,2418,2019-08-07 16:48:50:621
-6.283,-6.8345,1.3183,-0.0807,-0.1998,0.0828,-0.0378,-0.5172,-0.0416,2422,2019-08-07 16:48:50:625
-5.8524,-6.8632,1.0967,-0.9737,-0.0411,0.5961,-0.0378,-0.5172,-0.0416,2428,2019-08-07 16:48:50:631
-5.8524,-6.8632,1.0967,-0.9737,-0.0411,0.5961,-0.0452,-0.2754,-0.0682,2433,2019-08-07 16:48:50:636
-5.8524,-6.8632,1.0967,-0.9737,-0.0411,0.5961,-0.0452,-0.2754,-0.0682,2438,2019-08-07 16:48:50:641
-5.7855,-6.8632,1.2287,-0.9737,-0.0411,0.5961,-0.0303,-0.0144,-0.0831,2442,2019-08-07 16:48:50:645
-5.7855,-6.8632,1.2287,-0.9737,-0.0411,0.5961,-0.0303,-0.0144,-0.0831,2447,2019-08-07 16:48:50:650
-5.7855,-6.8632,1.2287,-0.7786,-0.1285,0.3963,-0.0303,-0.0144,-0.0831,2453,2019-08-07 16:48:50:656
-6.1826,-6.6961,1.3937,-0.7786,-0.1285,0.3963,-0.0015,0.2274,-0.0895,2458,2019-08-07 16:48:50:661
-6.1826,-6.6961,1.3937,-0.4833,-0.2549,0.2584,-0.0015,0.2274,-0.0895,2463,2019-08-07 16:48:50:666
-6.551,-6.5863,1.6954,-0.4833,-0.2549,0.2584,0.0187,0.3147,-0.0852,2468,2019-08-07 16:48:50:671
-6.551,-6.5863,1.6954,-0.4833,-0.2549,0.2584,0.0187,0.3147,-0.0852,2472,2019-08-07 16:48:50:675
-6.551,-6.5863,1.6954,-0.0042,-0.4364,-0.1233,0.0304,0.2711,-0.0725,2478,2019-08-07 16:48:50:681
-6.8237,-6.4813,1.7048,-0.0042,-0.4364,-0.1233,0.0304,0.2711,-0.0725,2482,2019-08-07 16:48:50:685
-6.8237,-6.4813,1.7048,-0.0042,-0.4364,-0.1233,0.0325,0.156,-0.0533,2488,2019-08-07 16:48:50:691
-6.8572,-6.4097,1.6529,-0.0042,-0.4364,-0.1233,0.0325,0.156,-0.0533,2492,2019-08-07 16:48:50:695
-6.8572,-6.4097,1.6529,0.0866,-0.5646,0.0192,0.0325,0.156,-0.0533,2498,2019-08-07 16:48:50:701
-6.8572,-6.4097,1.6529,0.0866,-0.5646,0.0192,0.023,0.0495,-0.0373,2503,2019-08-07 16:48:50:706
-6.6945,-6.4431,1.5257,0.0866,-0.5646,0.0192,0.023,0.0495,-0.0373,2508,2019-08-07 16:48:50:711
-6.6945,-6.4431,1.5257,0.0866,-0.5646,0.0192,0.008,-0.0379,-0.0224,2513,2019-08-07 16:48:50:716
-6.6945,-6.4431,1.5257,0.0866,-0.5646,0.0192,0.008,-0.0379,-0.0224,2518,2019-08-07 16:48:50:721
-6.3597,-6.5004,1.2805,-0.3842,-0.4376,0.3388,0.0091,-0.0592,-0.0224,2523,2019-08-07 16:48:50:726
-6.3597,-6.5004,1.2805,-0.3842,-0.4376,0.3388,0.0091,-0.0592,-0.0224,2528,2019-08-07 16:48:50:731
-6.2353,-6.529,1.0731,-0.5063,-0.4105,0.5487,0.007,-0.0261,-0.0224,2532,2019-08-07 16:48:50:735
-6.2353,-6.529,1.0731,-0.5063,-0.4105,0.5487,0.007,-0.0261,-0.0224,2538,2019-08-07 16:48:50:741
-6.2353,-6.529,1.0731,-0.5063,-0.4105,0.5487,0.0059,0.0708,-0.0203,2543,2019-08-07 16:48:50:746
-6.0248,-6.5051,0.9082,-0.5063,-0.4105,0.5487,0.0059,0.0708,-0.0203,2548,2019-08-07 16:48:50:751
-6.0248,-6.5051,0.9082,-0.7242,-0.5151,0.7183,0.0059,0.0708,-0.0203,2553,2019-08-07 16:48:50:756
-6.0248,-6.5051,0.9082,-0.7242,-0.5151,0.7183,0.0176,0.2093,-0.0203,2558,2019-08-07 16:48:50:761
-6.0918,-6.3906,0.9364,-0.7242,-0.5151,0.7183,0.0176,0.2093,-0.0203,2562,2019-08-07 16:48:50:765
-6.0918,-6.3906,0.9364,-0.7242,-0.5151,0.7183,0.024,0.2902,-0.0096,2568,2019-08-07 16:48:50:771
-6.4267,-6.2951,1.1203,-0.3805,-0.6129,0.4909,0.024,0.2902,-0.0096,2572,2019-08-07 16:48:50:775
-6.4267,-6.2951,1.1203,-0.3805,-0.6129,0.4909,0.0294,0.3179,0.0042,2578,2019-08-07 16:48:50:781
-6.4267,-6.2951,1.1203,-0.3805,-0.6129,0.4909,0.0294,0.3179,0.0042,2583,2019-08-07 16:48:50:786
-6.8238,-6.2903,1.2711,-0.3805,-0.6129,0.4909,0.024,0.254,0.0266,2588,2019-08-07 16:48:50:791
-6.8238,-6.2903,1.2711,0.1845,-0.6321,0.1501,0.024,0.254,0.0266,2593,2019-08-07 16:48:50:796
-7.1348,-6.2951,1.4597,0.1845,-0.6321,0.1501,0.0155,0.1155,0.0426,2598,2019-08-07 16:48:50:801
-7.1348,-6.2951,1.4597,0.1845,-0.6321,0.1501,0.0155,0.1155,0.0426,2602,2019-08-07 16:48:50:805
-7.1348,-6.2951,1.4597,0.1845,-0.6321,0.1501,0.0155,0.1155,0.0426,2608,2019-08-07 16:48:50:811
-7.0917,-6.3619,1.4785,0.3288,-0.5688,0.0538,0.0059,-0.0261,0.0596,2613,2019-08-07 16:48:50:816
-7.0917,-6.3619,1.4785,0.3288,-0.5688,0.0538,0.0059,-0.0261,0.0596,2618,2019-08-07 16:48:50:821
-6.7856,-6.4669,1.2994,0.3288,-0.5688,0.0538,-0.0111,-0.1689,0.0682,2622,2019-08-07 16:48:50:825
-6.7856,-6.4669,1.2994,0.3288,-0.5688,0.0538,-0.0111,-0.1689,0.0682,2628,2019-08-07 16:48:50:831
-6.7856,-6.4669,1.2994,-0.2045,-0.3671,0.3588,-0.0165,-0.203,0.065,2632,2019-08-07 16:48:50:835
-6.4555,-6.5624,1.1297,-0.2045,-0.3671,0.3588,-0.0165,-0.203,0.065,2638,2019-08-07 16:48:50:841
-6.4555,-6.5624,1.1297,-0.3735,-0.3108,0.5247,-0.0079,-0.1497,0.0543,2642,2019-08-07 16:48:50:845
-6.2545,-6.5958,1.0684,-0.3735,-0.3108,0.5247,-0.0079,-0.1497,0.0543,2648,2019-08-07 16:48:50:851
-6.2545,-6.5958,1.0684,-0.3735,-0.3108,0.5247,0.0112,-0.0208,0.0447,2652,2019-08-07 16:48:50:855
-6.2545,-6.5958,1.0684,-0.3735,-0.3108,0.5247,0.0112,-0.0208,0.0447,2658,2019-08-07 16:48:50:861
-6.2258,-6.5529,1.0684,-0.4974,-0.3912,0.5256,0.0112,-0.0208,0.0447,2663,2019-08-07 16:48:50:866
-6.2258,-6.5529,1.0684,-0.4974,-0.3912,0.5256,0.0262,0.0953,0.0394,2667,2019-08-07 16:48:50:870
-6.4794,-6.5051,1.0165,-0.4974,-0.3912,0.5256,0.0262,0.0953,0.0394,2673,2019-08-07 16:48:50:876
-6.4794,-6.5051,1.0165,-0.4974,-0.3912,0.5256,0.0347,0.1784,0.0373,2678,2019-08-07 16:48:50:881
-6.4794,-6.5051,1.0165,-0.1397,-0.4135,0.389,0.0347,0.1784,0.0373,2683,2019-08-07 16:48:50:886
-6.6804,-6.4813,1.2475,-0.1397,-0.4135,0.389,0.0528,0.2093,0.0415,2688,2019-08-07 16:48:50:891
-6.6804,-6.4813,1.2475,-0.1397,-0.4135,0.389,0.0528,0.2093,0.0415,2693,2019-08-07 16:48:50:896
-6.8335,-6.4192,1.4314,-0.0128,-0.4712,0.189,0.0709,0.172,0.0543,2698,2019-08-07 16:48:50:901
-6.8335,-6.4192,1.4314,-0.0128,-0.4712,0.189,0.0709,0.172,0.0543,2702,2019-08-07 16:48:50:905
-6.8335,-6.4192,1.4314,-0.0128,-0.4712,0.189,0.0826,0.1273,0.0628,2708,2019-08-07 16:48:50:911
-6.8622,-6.4192,1.4172,0.0822,-0.4303,0.1396,0.0826,0.1273,0.0628,2712,2019-08-07 16:48:50:915
-6.8622,-6.4192,1.4172,0.0822,-0.4303,0.1396,0.0784,0.0857,0.065,2718,2019-08-07 16:48:50:921
-6.8861,-6.4096,1.3465,0.0822,-0.4303,0.1396,0.0784,0.0857,0.065,2723,2019-08-07 16:48:50:926
-6.8861,-6.4096,1.3465,0.0822,-0.4303,0.1396,0.0666,0.0569,0.0618,2728,2019-08-07 16:48:50:931
-6.8861,-6.4096,1.3465,-0.0172,-0.4602,0.0821,0.0666,0.0569,0.0618,2733,2019-08-07 16:48:50:936
-6.8192,-6.4431,1.4125,-0.0172,-0.4602,0.0821,0.0666,0.0569,0.0618,2738,2019-08-07 16:48:50:941
-6.8192,-6.4431,1.4125,-0.0172,-0.4602,0.0821,0.0453,0.025,0.0596,2742,2019-08-07 16:48:50:945
-6.6757,-6.5385,1.3323,-0.0172,-0.4602,0.0821,0.0453,0.025,0.0596,2748,2019-08-07 16:48:50:951
-6.6757,-6.5385,1.3323,-0.257,-0.2729,0.2543,0.0475,0.0261,0.0586,2753,2019-08-07 16:48:50:956
-6.6757,-6.5385,1.3323,-0.257,-0.2729,0.2543,0.0475,0.0261,0.0586,2758,2019-08-07 16:48:50:961
-6.5991,-6.6245,1.3418,-0.257,-0.2729,0.2543,0.0453,0.0495,0.0522,2763,2019-08-07 16:48:50:966
-6.5991,-6.6245,1.3418,-0.257,-0.2729,0.2543,0.0453,0.0495,0.0522,2767,2019-08-07 16:48:50:970
-6.6594,-6.5769,1.4176,-0.1908,-0.2793,0.1,0.0411,0.0825,0.0351,2773,2019-08-07 16:48:50:976
-6.6594,-6.5769,1.4176,-0.1908,-0.2793,0.1,0.0411,0.0825,0.0351,2778,2019-08-07 16:48:50:981
-6.6594,-6.5769,1.4176,-0.1908,-0.2793,0.1,0.0389,0.0857,0.0309,2782,2019-08-07 16:48:50:985
-6.7407,-6.6485,1.2998,-0.1908,-0.2793,0.1,0.0389,0.0857,0.0309,2788,2019-08-07 16:48:50:991
-6.7407,-6.6485,1.2998,-0.1908,-0.2793,0.1,0.0389,0.0857,0.0309,2792,2019-08-07 16:48:50:995
-6.7407,-6.6485,1.2998,-0.0496,-0.2023,0.1349,0.0421,0.091,0.0202,2798,2019-08-07 16:48:51:001
-6.8795,-6.6533,1.4082,-0.0496,-0.2023,0.1349,0.0421,0.091,0.0202,2802,2019-08-07 16:48:51:005
-6.8795,-6.6533,1.4082,-0.0496,-0.2023,0.1349,0.0421,0.0537,0.0181,2808,2019-08-07 16:48:51:011
-6.8555,-6.5626,1.4082,-0.0496,-0.2023,0.1349,0.0421,0.0537,0.0181,2812,2019-08-07 16:48:51:015
-6.8555,-6.5626,1.4082,0.0165,-0.2881,0.1689,0.0379,0.0229,0.0192,2818,2019-08-07 16:48:51:021
-6.7837,-6.5149,1.3893,0.0165,-0.2881,0.1689,0.0379,0.0229,0.0192,2823,2019-08-07 16:48:51:026
-6.7837,-6.5149,1.3893,0.0165,-0.2881,0.1689,0.0379,0.0197,0.016,2828,2019-08-07 16:48:51:031
-6.7837,-6.5149,1.3893,-0.0501,-0.4267,0.1608,0.0379,0.0197,0.016,2833,2019-08-07 16:48:51:036
-6.8411,-6.4242,1.3469,-0.0501,-0.4267,0.1608,0.0379,0.0197,0.016,2837,2019-08-07 16:48:51:040
-6.8411,-6.4242,1.3469,-0.0501,-0.4267,0.1608,0.0315,0.0229,0.0138,2843,2019-08-07 16:48:51:046
-6.8411,-6.4242,1.3469,-0.0501,-0.4267,0.1608,0.0315,0.0229,0.0138,2848,2019-08-07 16:48:51:051
-6.7215,-6.4194,1.2809,-0.1356,-0.4178,0.2076,0.0219,0.0271,0.016,2853,2019-08-07 16:48:51:056
-6.7215,-6.4194,1.2809,-0.1356,-0.4178,0.2076,0.0219,0.0271,0.016,2858,2019-08-07 16:48:51:061
-6.7359,-6.386,1.2008,-0.1356,-0.4178,0.2076,0.0166,0.026,0.0213,2862,2019-08-07 16:48:51:065
-6.7359,-6.386,1.2008,-0.1356,-0.4178,0.2076,0.0166,0.026,0.0213,2868,2019-08-07 16:48:51:071
-6.7359,-6.386,1.2008,-0.1356,-0.4178,0.2076,0.0347,0.0367,0.0277,2873,2019-08-07 16:48:51:076
-6.8411,-6.4671,1.3045,-0.0363,-0.3647,0.2001,0.0347,0.0367,0.0277,2878,2019-08-07 16:48:51:081
-6.8411,-6.4671,1.3045,-0.0363,-0.3647,0.2001,0.0421,0.0399,0.0256,2883,2019-08-07 16:48:51:086
-6.8411,-6.4671,1.3045,-0.0363,-0.3647,0.2001,0.0421,0.0399,0.0256,2888,2019-08-07 16:48:51:091
-6.9033,-6.4576,1.3941,-0.0363,-0.3647,0.2001,0.0283,0.0218,0.017,2892,2019-08-07 16:48:51:095
-6.9033,-6.4576,1.3941,-0.0471,-0.4065,0.1289,0.0283,0.0218,0.017,2898,2019-08-07 16:48:51:101
-6.9033,-6.4576,1.3941,-0.0471,-0.4065,0.1289,0.0283,0.0218,0.017,2902,2019-08-07 16:48:51:105
-6.8124,-6.4242,1.3186,-0.0471,-0.4065,0.1289,0.0198,-6.0E-4,0.0149,2908,2019-08-07 16:48:51:111
-6.8124,-6.4242,1.3186,-0.0471,-0.4065,0.1289,0.0198,-6.0E-4,0.0149,2913,2019-08-07 16:48:51:116
-6.7789,-6.4624,1.3469,-0.0938,-0.3595,0.2104,0.0262,0.0111,0.0053,2918,2019-08-07 16:48:51:121
-6.7789,-6.4624,1.3469,-0.0938,-0.3595,0.2104,0.0262,0.0111,0.0053,2922,2019-08-07 16:48:51:125
-6.7789,-6.4624,1.3469,-0.0938,-0.3595,0.2104,0.024,0.0143,-0.0021,2928,2019-08-07 16:48:51:131
-6.8411,-6.4433,1.3563,-0.0938,-0.3595,0.2104,0.024,0.0143,-0.0021,2932,2019-08-07 16:48:51:135
-6.8411,-6.4433,1.3563,-0.0861,-0.3527,0.084,0.0091,-6.0E-4,-0.0053,2938,2019-08-07 16:48:51:141
-6.8171,-6.5053,1.4506,-0.0861,-0.3527,0.084,0.0091,-6.0E-4,-0.0053,2942,2019-08-07 16:48:51:145
-6.8171,-6.5053,1.4506,-0.0861,-0.3527,0.084,-0.0015,-0.0027,-0.0117,2948,2019-08-07 16:48:51:151
-6.8171,-6.5053,1.4506,-0.0861,-0.3527,0.084,-0.0015,-0.0027,-0.0117,2952,2019-08-07 16:48:51:155
-6.7549,-6.4576,1.3092,-0.1337,-0.3625,0.197,-0.0015,-0.0027,-0.0117,2958,2019-08-07 16:48:51:161
-6.7549,-6.4576,1.3092,-0.1337,-0.3625,0.197,-0.0037,0.0015,-0.016,2963,2019-08-07 16:48:51:166
-6.7166,-6.6103,1.2904,-0.1337,-0.3625,0.197,-0.0037,0.0015,-0.016,2968,2019-08-07 16:48:51:171
-6.7166,-6.6103,1.2904,-0.1337,-0.3625,0.197,-0.0047,0.0218,-0.0256,2973,2019-08-07 16:48:51:176
-6.7166,-6.6103,1.2904,-0.1272,-0.2219,0.2685,-0.0047,0.0218,-0.0256,2978,2019-08-07 16:48:51:181
-6.6927,-6.6103,1.2951,-0.1272,-0.2219,0.2685,-0.0058,0.0229,-0.0341,2983,2019-08-07 16:48:51:186
-6.6927,-6.6103,1.2951,-0.1272,-0.2219,0.2685,-0.0058,0.0229,-0.0341,2988,2019-08-07 16:48:51:191
-6.7597,-6.5387,1.2432,-0.1272,-0.2219,0.2685,-0.0026,0.0239,-0.0341,2993,2019-08-07 16:48:51:196
-6.7597,-6.5387,1.2432,-0.0857,-0.3123,0.1689,-0.0026,0.0239,-0.0341,2997,2019-08-07 16:48:51:200
-6.7597,-6.5387,1.2432,-0.0857,-0.3123,0.1689,-0.0026,0.0239,-0.0341,3002,2019-08-07 16:48:51:205
-6.8266,-6.5387,1.3988,-0.0857,-0.3123,0.1689,0.0048,0.0154,-0.0373,3008,2019-08-07 16:48:51:211
-6.8266,-6.5387,1.3988,-0.0857,-0.3123,0.1689,0.0048,0.0154,-0.0373,3012,2019-08-07 16:48:51:215
-6.8219,-6.5006,1.3516,-0.0196,-0.307,0.1816,0.007,-0.0038,-0.0437,3018,2019-08-07 16:48:51:221
-6.8219,-6.5006,1.3516,-0.0196,-0.307,0.1816,0.007,-0.0038,-0.0437,3022,2019-08-07 16:48:51:225
-6.8219,-6.5006,1.3516,-0.0196,-0.307,0.1816,0.007,-0.0038,-0.0437,3028,2019-08-07 16:48:51:231
-6.7931,-6.5101,1.3234,-0.0196,-0.307,0.1816,-0.0133,-0.0506,-0.0554,3032,2019-08-07 16:48:51:235
-6.7931,-6.5101,1.3234,-0.108,-0.3614,0.2038,-0.0133,-0.0506,-0.0554,3038,2019-08-07 16:48:51:241
-6.7309,-6.5196,1.2809,-0.108,-0.3614,0.2038,-0.0165,-0.0666,-0.0565,3043,2019-08-07 16:48:51:246
-6.7309,-6.5196,1.2809,-0.108,-0.3614,0.2038,-0.0165,-0.0666,-0.0565,3047,2019-08-07 16:48:51:250
-6.7309,-6.5196,1.2809,-0.108,-0.3614,0.2038,-0.0165,-0.0666,-0.0565,3053,2019-08-07 16:48:51:256
-6.7309,-6.5196,1.2809,-0.295,-0.274,0.2324,-0.026,-0.0666,-0.0543,3058,2019-08-07 16:48:51:261
-6.5683,-6.5722,1.2715,-0.295,-0.274,0.2324,-0.026,-0.0666,-0.0543,3063,2019-08-07 16:48:51:266
-6.5683,-6.5722,1.2715,-0.295,-0.274,0.2324,-0.0303,-0.0475,-0.0533,3068,2019-08-07 16:48:51:271
-6.5778,-6.5244,1.248,-0.295,-0.274,0.2324,-0.0303,-0.0475,-0.0533,3072,2019-08-07 16:48:51:275
-6.5778,-6.5244,1.248,-0.301,-0.3396,0.2796,-0.0335,-0.0198,-0.0458,3078,2019-08-07 16:48:51:281
-6.5778,-6.5244,1.248,-0.301,-0.3396,0.2796,-0.0335,-0.0198,-0.0458,3083,2019-08-07 16:48:51:286
-6.5587,-6.5292,1.3045,-0.301,-0.3396,0.2796,-0.0399,0.0026,-0.0352,3087,2019-08-07 16:48:51:290
-6.5587,-6.5292,1.3045,-0.301,-0.3396,0.2796,-0.0399,0.0026,-0.0352,3093,2019-08-07 16:48:51:296
-6.5874,-6.5292,1.215,-0.2628,-0.3315,0.2825,-0.0431,0.0122,-0.0309,3098,2019-08-07 16:48:51:301
-6.5874,-6.5292,1.215,-0.2628,-0.3315,0.2825,-0.0431,0.0122,-0.0309,3103,2019-08-07 16:48:51:306
-6.5874,-6.5292,1.215,-0.2628,-0.3315,0.2825,-0.0431,0.0122,-0.0309,3108,2019-08-07 16:48:51:311
-6.6352,-6.4767,1.2621,-0.2628,-0.3315,0.2825,-0.0346,0.0165,-0.0192,3112,2019-08-07 16:48:51:315
-6.6352,-6.4767,1.2621,-0.1797,-0.445,0.2219,-0.0346,0.0165,-0.0192,3118,2019-08-07 16:48:51:321
-6.7022,-6.4146,1.314,-0.1797,-0.445,0.2219,-0.0282,0.0175,-0.0203,3122,2019-08-07 16:48:51:325
-6.7022,-6.4146,1.314,-0.1797,-0.445,0.2219,-0.0282,0.0175,-0.0203,3128,2019-08-07 16:48:51:331
-6.7022,-6.4146,1.314,-0.1797,-0.445,0.2219,-0.0324,0.0165,-0.0213,3132,2019-08-07 16:48:51:335
-6.7069,-6.4481,1.1678,-0.1215,-0.419,0.2935,-0.0324,0.0165,-0.0213,3138,2019-08-07 16:48:51:341
-6.7069,-6.4481,1.1678,-0.1215,-0.419,0.2935,-0.0335,0.0197,-0.0224,3143,2019-08-07 16:48:51:346
-6.7069,-6.4481,1.1678,-0.1215,-0.419,0.2935,-0.0335,0.0197,-0.0224,3147,2019-08-07 16:48:51:350
-6.7213,-6.4146,1.1961,-0.1215,-0.419,0.2935,-0.026,0.0175,-0.0245,3153,2019-08-07 16:48:51:356
-6.7213,-6.4146,1.1961,-0.1215,-0.419,0.2935,-0.026,0.0175,-0.0245,3158,2019-08-07 16:48:51:361
-6.6304,-6.4576,1.0971,-0.1919,-0.384,0.3412,-0.026,0.0229,-0.0234,3163,2019-08-07 16:48:51:366
-6.6304,-6.4576,1.0971,-0.1919,-0.384,0.3412,-0.026,0.0229,-0.0234,3168,2019-08-07 16:48:51:371
-6.6304,-6.4576,1.0971,-0.1919,-0.384,0.3412,-0.026,0.0229,-0.0234,3172,2019-08-07 16:48:51:375
-6.6686,-6.429,1.1867,-0.1919,-0.384,0.3412,-0.0218,0.0346,-0.0277,3178,2019-08-07 16:48:51:381
-6.6686,-6.429,1.1867,-0.1567,-0.4117,0.2987,-0.0218,0.0346,-0.0277,3182,2019-08-07 16:48:51:385
-6.6686,-6.429,1.1867,-0.1567,-0.4117,0.2987,-0.009,0.0442,-0.0192,3188,2019-08-07 16:48:51:391
-6.5729,-6.4815,1.1066,-0.1567,-0.4117,0.2987,-0.009,0.0442,-0.0192,3192,2019-08-07 16:48:51:395
-6.5729,-6.4815,1.1066,-0.1657,-0.3858,0.2932,-0.0026,0.0537,-0.016,3198,2019-08-07 16:48:51:401
-6.5729,-6.4815,1.1066,-0.1657,-0.3858,0.2932,-0.0026,0.0537,-0.016,3203,2019-08-07 16:48:51:406
-6.6829,-6.4481,1.2056,-0.1657,-0.3858,0.2932,-0.0026,0.0537,-0.016,3208,2019-08-07 16:48:51:411
-6.6829,-6.4481,1.2056,-0.1657,-0.3858,0.2932,0.0017,0.0442,-0.0075,3212,2019-08-07 16:48:51:415
-6.6829,-6.4481,1.2056,-0.1657,-0.3858,0.2932,0.0017,0.0442,-0.0075,3218,2019-08-07 16:48:51:421
-6.6734,-6.3955,1.2668,-0.172,-0.4812,0.1776,0.0038,0.0165,0.0053,3223,2019-08-07 16:48:51:426
-6.6734,-6.3955,1.2668,-0.172,-0.4812,0.1776,0.0038,0.0165,0.0053,3228,2019-08-07 16:48:51:431
-6.7212,-6.4481,1.3281,-0.172,-0.4812,0.1776,0.007,-0.0016,0.0106,3232,2019-08-07 16:48:51:435
-6.7212,-6.4481,1.3281,-0.172,-0.4812,0.1776,0.007,-0.0016,0.0106,3238,2019-08-07 16:48:51:441
-6.7212,-6.4481,1.3281,-0.1554,-0.412,0.0642,0.0048,-0.023,0.0096,3243,2019-08-07 16:48:51:446
-6.6973,-6.4481,1.3046,-0.1554,-0.412,0.0642,0.0048,-0.023,0.0096,3247,2019-08-07 16:48:51:450
-6.6973,-6.4481,1.3046,-0.1554,-0.412,0.0642,0.0048,-0.023,0.0096,3253,2019-08-07 16:48:51:456
-6.6973,-6.4481,1.3046,-0.1554,-0.412,0.0642,0.0048,-0.0379,0.0149,3258,2019-08-07 16:48:51:461
-6.5681,-6.5101,1.3611,-0.2812,-0.3618,0.0975,0.0048,-0.0379,0.0149,3262,2019-08-07 16:48:51:465
-6.5681,-6.5101,1.3611,-0.2812,-0.3618,0.0975,0.0027,-0.0325,0.0149,3268,2019-08-07 16:48:51:471
-6.5489,-6.5674,1.281,-0.2812,-0.3618,0.0975,0.0027,-0.0325,0.0149,3272,2019-08-07 16:48:51:475
-6.5489,-6.5674,1.281,-0.2812,-0.3618,0.0975,0.0048,-0.0102,0.016,3278,2019-08-07 16:48:51:481
-6.5489,-6.5674,1.281,-0.2973,-0.326,0.1383,0.0048,-0.0102,0.016,3283,2019-08-07 16:48:51:486
-6.5776,-6.5674,1.3753,-0.2973,-0.326,0.1383,0.008,0.0069,0.017,3288,2019-08-07 16:48:51:491
-6.5776,-6.5674,1.3753,-0.2797,-0.3293,0.1147,0.008,0.0069,0.017,3293,2019-08-07 16:48:51:496
-6.5968,-6.5626,1.3847,-0.2797,-0.3293,0.1147,0.0112,0.0047,0.0234,3298,2019-08-07 16:48:51:501
-6.5968,-6.5626,1.3847,-0.2797,-0.3293,0.1147,0.0112,0.0047,0.0234,3302,2019-08-07 16:48:51:505
-6.5968,-6.5626,1.3847,-0.2797,-0.3293,0.1147,0.0112,0.0047,0.0234,3308,2019-08-07 16:48:51:511
-6.5824,-6.5149,1.4224,-0.2981,-0.4156,0.069,0.0166,-0.0027,0.0373,3313,2019-08-07 16:48:51:516
-6.5824,-6.5149,1.4224,-0.2981,-0.4156,0.069,0.0166,-0.0027,0.0373,3318,2019-08-07 16:48:51:521
-6.6063,-6.4624,1.2574,-0.2981,-0.4156,0.069,0.0176,0.0037,0.0501,3322,2019-08-07 16:48:51:525
-6.6063,-6.4624,1.2574,-0.2981,-0.4156,0.069,0.0176,0.0037,0.0501,3328,2019-08-07 16:48:51:531
-6.6063,-6.4624,1.2574,-0.1858,-0.3985,0.174,0.0176,0.0122,0.0533,3333,2019-08-07 16:48:51:536
-6.6876,-6.5626,1.3376,-0.1858,-0.3985,0.174,0.0176,0.0122,0.0533,3337,2019-08-07 16:48:51:540
-6.6876,-6.5626,1.3376,-0.166,-0.318,0.141,0.0176,0.0122,0.0533,3343,2019-08-07 16:48:51:546
-6.6972,-6.5817,1.3423,-0.166,-0.318,0.141,0.0134,0.0069,0.049,3348,2019-08-07 16:48:51:551
-6.6972,-6.5817,1.3423,-0.166,-0.318,0.141,0.0134,0.0069,0.049,3352,2019-08-07 16:48:51:555
-6.6972,-6.5817,1.3423,-0.166,-0.318,0.141,0.0112,-0.0038,0.0469,3358,2019-08-07 16:48:51:561
-6.6828,-6.5865,1.2904,-0.2116,-0.2484,0.1797,0.0112,-0.0038,0.0469,3362,2019-08-07 16:48:51:565
-6.6828,-6.5865,1.2904,-0.2116,-0.2484,0.1797,0.0123,0.0037,0.0501,3368,2019-08-07 16:48:51:571
-6.6828,-6.5865,1.2904,-0.2116,-0.2484,0.1797,0.0123,0.0037,0.0501,3373,2019-08-07 16:48:51:576
-6.7306,-6.5292,1.2669,-0.2116,-0.2484,0.1797,0.0208,0.0047,0.0501,3377,2019-08-07 16:48:51:580
-6.7306,-6.5292,1.2669,-0.1474,-0.3409,0.2041,0.0208,0.0047,0.0501,3383,2019-08-07 16:48:51:586
-6.7306,-6.5292,1.2669,-0.1474,-0.3409,0.2041,0.0251,0.0143,0.0447,3387,2019-08-07 16:48:51:590
-6.7306,-6.5197,1.2574,-0.1474,-0.3409,0.2041,0.0251,0.0143,0.0447,3393,2019-08-07 16:48:51:596
-6.7306,-6.5197,1.2574,-0.1474,-0.3409,0.2041,0.0187,0.009,0.0383,3397,2019-08-07 16:48:51:600
-6.812,-6.5054,1.3282,-0.078,-0.324,0.1291,0.0187,0.009,0.0383,3403,2019-08-07 16:48:51:606
-6.812,-6.5054,1.3282,-0.078,-0.324,0.1291,0.0187,0.009,0.0383,3408,2019-08-07 16:48:51:611
-6.812,-6.5054,1.3282,-0.078,-0.324,0.1291,0.0134,0.0122,0.0256,3413,2019-08-07 16:48:51:616
-6.8263,-6.4433,1.3423,-0.078,-0.324,0.1291,0.0134,0.0122,0.0256,3418,2019-08-07 16:48:51:621
-6.8263,-6.4433,1.3423,-0.0498,-0.3523,0.1145,0.0134,0.0111,0.0202,3422,2019-08-07 16:48:51:625
-6.8646,-6.4767,1.3517,-0.0498,-0.3523,0.1145,0.0134,0.0111,0.0202,3428,2019-08-07 16:48:51:631
-6.8646,-6.4767,1.3517,-0.0498,-0.3523,0.1145,0.0091,0.0069,0.0074,3432,2019-08-07 16:48:51:635
-6.8646,-6.4767,1.3517,-0.0498,-0.3523,0.1145,0.0091,0.0069,0.0074,3438,2019-08-07 16:48:51:641
-6.7641,-6.4338,1.3046,-0.1716,-0.3692,0.1,-0.0037,-6.0E-4,-0.0021,3443,2019-08-07 16:48:51:646
-6.7641,-6.4338,1.3046,-0.1716,-0.3692,0.1,-0.0037,-6.0E-4,-0.0021,3448,2019-08-07 16:48:51:651
-6.6923,-6.4147,1.3659,-0.1716,-0.3692,0.1,-0.0037,-6.0E-4,-0.0021,3452,2019-08-07 16:48:51:655
-6.6923,-6.4147,1.3659,-0.1716,-0.3692,0.1,-0.0015,-0.0048,-0.0117,3458,2019-08-07 16:48:51:661
-6.6923,-6.4147,1.3659,-0.1521,-0.3649,0.1751,-0.0015,-0.0048,-0.0117,3462,2019-08-07 16:48:51:665
-6.6397,-6.4815,1.2339,-0.1521,-0.3649,0.1751,-0.0047,-0.0091,-0.0043,3468,2019-08-07 16:48:51:671
-6.6397,-6.4815,1.2339,-0.1521,-0.3649,0.1751,-0.0047,-0.0091,-0.0043,3473,2019-08-07 16:48:51:676
-6.6014,-6.5149,1.3235,-0.1521,-0.3649,0.1751,-0.0026,-0.0091,0.0064,3478,2019-08-07 16:48:51:681
-6.6014,-6.5149,1.3235,-0.3246,-0.293,0.1892,-0.0026,-0.0091,0.0064,3482,2019-08-07 16:48:51:685
-6.6014,-6.5149,1.3235,-0.3246,-0.293,0.1892,0.0027,-0.0038,0.0128,3488,2019-08-07 16:48:51:691
-6.5822,-6.4719,1.2009,-0.3246,-0.293,0.1892,0.0027,-0.0038,0.0128,3493,2019-08-07 16:48:51:696
-6.5822,-6.4719,1.2009,-0.3543,-0.3589,0.2032,0.0048,0.009,0.0234,3498,2019-08-07 16:48:51:701
-6.5822,-6.4719,1.2009,-0.3543,-0.3589,0.2032,0.0048,0.009,0.0234,3503,2019-08-07 16:48:51:706
-6.6396,-6.5101,1.2905,-0.3543,-0.3589,0.2032,0.0048,0.009,0.0234,3507,2019-08-07 16:48:51:710
-6.6396,-6.5101,1.2905,-0.22,-0.35,0.1825,0.008,0.0197,0.0298,3513,2019-08-07 16:48:51:716
-6.721,-6.4338,1.248,-0.22,-0.35,0.1825,0.008,0.0197,0.0298,3518,2019-08-07 16:48:51:721
-6.721,-6.4338,1.248,-0.22,-0.35,0.1825,0.0123,0.0186,0.0341,3522,2019-08-07 16:48:51:725
-6.721,-6.4338,1.248,-0.2134,-0.2948,0.257,0.0123,0.0186,0.0341,3528,2019-08-07 16:48:51:731
-6.7736,-6.491,1.1585,-0.2134,-0.2948,0.257,0.0112,0.0271,0.0298,3532,2019-08-07 16:48:51:735
-6.7736,-6.491,1.1585,-0.2134,-0.2948,0.257,0.0112,0.0271,0.0298,3538,2019-08-07 16:48:51:741
-6.8262,-6.4767,1.2669,-0.1333,-0.3374,0.1865,0.008,0.0388,0.0256,3544,2019-08-07 16:48:51:747
-6.8262,-6.4767,1.2669,-0.1333,-0.3374,0.1865,0.008,0.0388,0.0256,3548,2019-08-07 16:48:51:751
-6.8262,-6.4767,1.2669,-0.1333,-0.3374,0.1865,0.008,0.0388,0.0256,3552,2019-08-07 16:48:51:755
-6.764,-6.4911,1.1538,-0.1333,-0.3374,0.1865,0.0155,0.0505,0.0181,3558,2019-08-07 16:48:51:761
-6.764,-6.4911,1.1538,-0.1333,-0.3374,0.1865,0.0155,0.0505,0.0181,3562,2019-08-07 16:48:51:765
-6.7783,-6.4815,1.2245,-0.1479,-0.3194,0.2551,0.0262,0.0644,0.0138,3568,2019-08-07 16:48:51:771
-6.7783,-6.4815,1.2245,-0.1479,-0.3194,0.2551,0.0262,0.0644,0.0138,3573,2019-08-07 16:48:51:776
-6.7783,-6.4815,1.2245,-0.1311,-0.3511,0.167,0.0368,0.0729,0.0085,3578,2019-08-07 16:48:51:781
-6.7831,-6.472,1.347,-0.1311,-0.3511,0.167,0.0368,0.0729,0.0085,3582,2019-08-07 16:48:51:785
-6.7831,-6.472,1.347,-0.1311,-0.3511,0.167,0.0368,0.0729,0.0085,3588,2019-08-07 16:48:51:791
-6.7831,-6.472,1.347,-0.1311,-0.3511,0.167,0.0624,0.0708,0.0117,3593,2019-08-07 16:48:51:796
-6.8596,-6.4099,1.4225,-0.0642,-0.3899,0.0125,0.0624,0.0708,0.0117,3597,2019-08-07 16:48:51:800
-6.8596,-6.4099,1.4225,-0.0642,-0.3899,0.0125,0.0602,0.0463,0.0117,3603,2019-08-07 16:48:51:806
-6.8596,-6.4099,1.4225,-0.0642,-0.3899,0.0125,0.0602,0.0463,0.0117,3607,2019-08-07 16:48:51:810
-6.8453,-6.3669,1.347,-0.0642,-0.3899,0.0125,0.0581,0.0133,0.017,3613,2019-08-07 16:48:51:816
-6.8453,-6.3669,1.347,-0.1354,-0.3943,0.0966,0.0581,0.0133,0.017,3618,2019-08-07 16:48:51:821
-6.7544,-6.4338,1.3282,-0.1354,-0.3943,0.0966,0.0528,-0.0293,0.0245,3623,2019-08-07 16:48:51:826
-6.7544,-6.4338,1.3282,-0.142,-0.3341,0.13,0.0528,-0.0293,0.0245,3628,2019-08-07 16:48:51:831
-6.7544,-6.4338,1.3282,-0.142,-0.3341,0.13,0.0485,-0.0443,0.0277,3633,2019-08-07 16:48:51:836
-6.7256,-6.3956,1.4649,-0.142,-0.3341,0.13,0.0485,-0.0443,0.0277,3637,2019-08-07 16:48:51:840
-6.7256,-6.3956,1.4649,-0.142,-0.3341,0.13,0.0475,-0.0538,0.0341,3643,2019-08-07 16:48:51:846
-6.6204,-6.3192,1.2386,-0.3271,-0.433,0.1527,0.0475,-0.0538,0.0341,3647,2019-08-07 16:48:51:850
-6.6204,-6.3192,1.2386,-0.3271,-0.433,0.1527,0.0475,-0.0538,0.0341,3653,2019-08-07 16:48:51:856
-6.6204,-6.3192,1.2386,-0.3271,-0.433,0.1527,0.0379,-0.0198,0.0288,3657,2019-08-07 16:48:51:860
-6.6395,-6.3478,1.1774,-0.3271,-0.433,0.1527,0.0379,-0.0198,0.0288,3663,2019-08-07 16:48:51:866
-6.6395,-6.3478,1.1774,-0.3171,-0.4366,0.2303,0.0347,0.0186,0.0245,3667,2019-08-07 16:48:51:870
-6.6634,-6.3908,1.2952,-0.3171,-0.4366,0.2303,0.0347,0.0186,0.0245,3673,2019-08-07 16:48:51:876
-6.6634,-6.3908,1.2952,-0.3171,-0.4366,0.2303,0.0368,0.0527,0.0202,3678,2019-08-07 16:48:51:881
-6.6634,-6.3908,1.2952,-0.3171,-0.4366,0.2303,0.0368,0.0527,0.0202,3682,2019-08-07 16:48:51:885
-6.85,-6.3622,1.2905,-0.0925,-0.4129,0.1713,0.0347,0.0655,0.0096,3687,2019-08-07 16:48:51:890
-6.85,-6.3622,1.2905,-0.0925,-0.4129,0.1713,0.0347,0.0655,0.0096,3693,2019-08-07 16:48:51:896
-6.8548,-6.3478,1.3046,-0.0804,-0.4398,0.1781,0.0315,0.0612,0.0074,3698,2019-08-07 16:48:51:901
-6.8548,-6.3478,1.3046,-0.0804,-0.4398,0.1781,0.0315,0.0612,0.0074,3703,2019-08-07 16:48:51:906
-6.8548,-6.3478,1.3046,-0.0804,-0.4398,0.1781,0.0283,0.0399,0.0106,3709,2019-08-07 16:48:51:912
-6.8404,-6.3478,1.4508,-0.0804,-0.4398,0.1781,0.0283,0.0399,0.0106,3713,2019-08-07 16:48:51:916
-6.8404,-6.3478,1.4508,-0.099,-0.3692,0.0903,0.0283,0.0399,0.0106,3718,2019-08-07 16:48:51:921
-6.8404,-6.3478,1.4508,-0.099,-0.3692,0.0903,0.0251,0.0015,0.0117,3723,2019-08-07 16:48:51:926
-6.8165,-6.3956,1.3424,-0.099,-0.3692,0.0903,0.0251,0.0015,0.0117,3728,2019-08-07 16:48:51:931
-6.8165,-6.3956,1.3424,-0.099,-0.3692,0.0903,0.0251,-0.0166,0.0181,3732,2019-08-07 16:48:51:935
-6.8165,-6.3956,1.3424,-0.5701,-0.156,-0.0894,0.0251,-0.0166,0.0181,3737,2019-08-07 16:48:51:940
-6.3619,-6.5627,1.4743,-0.5701,-0.156,-0.0894,0.0943,0.0346,0.0074,3743,2019-08-07 16:48:51:946
-6.3619,-6.5627,1.4743,-0.5701,-0.156,-0.0894,0.0943,0.0346,0.0074,3747,2019-08-07 16:48:51:950
-6.5533,-6.429,1.1255,-0.5701,-0.156,-0.0894,0.0943,0.0346,0.0074,3753,2019-08-07 16:48:51:956
-6.5533,-6.429,1.1255,-0.5701,-0.156,-0.0894,0.0709,0.0932,0.0362,3757,2019-08-07 16:48:51:960
-6.1227,-6.5388,1.2905,-0.5687,-0.3906,0.2954,0.0709,0.0932,0.0362,3763,2019-08-07 16:48:51:966
-6.1227,-6.5388,1.2905,-0.5687,-0.3906,0.2954,0.0485,0.1635,0.0128,3768,2019-08-07 16:48:51:971
-6.1227,-6.5388,1.2905,-0.5687,-0.3906,0.2954,0.0485,0.1635,0.0128,3772,2019-08-07 16:48:51:975
-6.9565,-6.2045,1.2714,0.0803,-0.5677,0.1569,0.04,0.1901,0.0224,3778,2019-08-07 16:48:51:981
-6.9565,-6.2045,1.2714,0.0803,-0.5677,0.1569,0.04,0.1901,0.0224,3783,2019-08-07 16:48:51:986
-6.9565,-6.2045,1.2714,0.0803,-0.5677,0.1569,-0.0079,0.1166,0.065,3787,2019-08-07 16:48:51:990
-7.0283,-6.3239,1.4976,0.0803,-0.5677,0.1569,-0.0079,0.1166,0.065,3793,2019-08-07 16:48:51:996
-7.0283,-6.3239,1.4976,0.0625,-0.4337,-0.0063,-0.0186,0.0346,0.0405,3798,2019-08-07 16:48:52:001
-7.1383,-6.3048,1.3939,0.0625,-0.4337,-0.0063,-0.0186,0.0346,0.0405,3802,2019-08-07 16:48:52:005
-7.1383,-6.3048,1.3939,0.0625,-0.4337,-0.0063,-0.0186,0.0346,0.0405,3807,2019-08-07 16:48:52:010
-7.1383,-6.3048,1.3939,0.2212,-0.4826,0.0106,-0.0154,-0.0187,0.033,3813,2019-08-07 16:48:52:016
-7.1383,-6.2284,1.3562,0.2212,-0.4826,0.0106,-0.0154,-0.0187,0.033,3817,2019-08-07 16:48:52:020
-7.1383,-6.2284,1.3562,0.2212,-0.4826,0.0106,-0.0239,-0.0762,0.0351,3823,2019-08-07 16:48:52:026
-7.0092,-6.2713,1.2808,0.0242,-0.466,0.1526,-0.0239,-0.0762,0.0351,3827,2019-08-07 16:48:52:030
-7.0092,-6.2713,1.2808,0.0242,-0.466,0.1526,-0.0346,-0.1092,0.0266,3833,2019-08-07 16:48:52:036
-7.0092,-6.2713,1.2808,0.0242,-0.466,0.1526,-0.0346,-0.1092,0.0266,3837,2019-08-07 16:48:52:040
-6.8609,-6.3048,1.3232,0.0242,-0.466,0.1526,-0.0292,-0.1199,0.0181,3843,2019-08-07 16:48:52:046
-6.8609,-6.3048,1.3232,-0.2258,-0.3572,0.1079,-0.0292,-0.1199,0.0181,3847,2019-08-07 16:48:52:050
-6.8609,-6.3048,1.3232,-0.2258,-0.3572,0.1079,-0.0079,-0.0965,0.0181,3853,2019-08-07 16:48:52:056
-6.7173,-6.4193,1.3138,-0.2258,-0.3572,0.1079,-0.0079,-0.0965,0.0181,3857,2019-08-07 16:48:52:060
-6.7173,-6.4193,1.3138,-0.3165,-0.2845,0.1941,-5.0E-4,-0.0666,0.0149,3863,2019-08-07 16:48:52:066
-6.593,-6.3955,1.2054,-0.3165,-0.2845,0.1941,-5.0E-4,-0.0666,0.0149,3868,2019-08-07 16:48:52:071
-6.593,-6.3955,1.2054,-0.3165,-0.2845,0.1941,-5.0E-4,-0.0666,0.0149,3872,2019-08-07 16:48:52:075
-6.593,-6.3955,1.2054,-0.3741,-0.3688,0.182,-5.0E-4,-0.0347,0.017,3878,2019-08-07 16:48:52:081
-6.5882,-6.3334,1.2808,-0.3741,-0.3688,0.182,-5.0E-4,-0.0347,0.017,3882,2019-08-07 16:48:52:085
-6.5882,-6.3334,1.2808,-0.3741,-0.3688,0.182,0.008,0.0079,0.0202,3888,2019-08-07 16:48:52:091
-6.6695,-6.405,1.3562,-0.3741,-0.3688,0.182,0.008,0.0079,0.0202,3893,2019-08-07 16:48:52:096
-6.6695,-6.405,1.3562,-0.3741,-0.3688,0.182,0.0059,0.025,0.0224,3897,2019-08-07 16:48:52:100
-6.6695,-6.405,1.3562,-0.2579,-0.289,0.1012,0.0059,0.025,0.0224,3903,2019-08-07 16:48:52:106
-6.8561,-6.5005,1.3751,-0.2579,-0.289,0.1012,-0.0069,0.0239,0.0149,3907,2019-08-07 16:48:52:110
-6.8561,-6.5005,1.3751,-0.2579,-0.289,0.1012,-0.0069,0.0239,0.0149,3913,2019-08-07 16:48:52:116
-6.7556,-6.5148,1.3044,-0.2368,-0.2104,0.1494,-0.0133,-0.0038,0.0106,3918,2019-08-07 16:48:52:121
-6.7556,-6.5148,1.3044,-0.2368,-0.2104,0.1494,-0.0133,-0.0038,0.0106,3923,2019-08-07 16:48:52:126
-6.7556,-6.5148,1.3044,-0.2368,-0.2104,0.1494,-0.0133,0.009,0.0032,3928,2019-08-07 16:48:52:131
-6.7222,-6.4814,1.2855,-0.2368,-0.2104,0.1494,-0.0133,0.009,0.0032,3933,2019-08-07 16:48:52:136
-6.7222,-6.4814,1.2855,-0.1855,-0.3433,0.0899,-0.0133,0.009,0.0032,3938,2019-08-07 16:48:52:141
-6.7222,-6.4814,1.2855,-0.1855,-0.3433,0.0899,0.0112,0.0537,0.0021,3943,2019-08-07 16:48:52:146
-6.8418,-6.3238,1.3232,-0.1855,-0.3433,0.0899,0.0112,0.0537,0.0021,3947,2019-08-07 16:48:52:150
-6.8418,-6.3238,1.3232,-0.1855,-0.3433,0.0899,0.0027,0.0548,0.001,3953,2019-08-07 16:48:52:156
-6.8418,-6.3238,1.3232,-0.1855,-0.3433,0.0899,0.0027,0.0548,0.001,3958,2019-08-07 16:48:52:161
-6.8274,-6.4527,1.3609,-0.1451,-0.3327,0.0918,-0.0047,0.0452,-0.0032,3963,2019-08-07 16:48:52:166
-6.8274,-6.4527,1.3609,-0.1451,-0.3327,0.0918,-0.0047,0.0452,-0.0032,3968,2019-08-07 16:48:52:171
-6.7509,-6.4909,1.3939,-0.1451,-0.3327,0.0918,0.008,0.0367,0.0053,3972,2019-08-07 16:48:52:175
-6.7509,-6.4909,1.3939,-0.1451,-0.3327,0.0918,0.008,0.0367,0.0053,3978,2019-08-07 16:48:52:181
-6.7509,-6.4909,1.3939,-0.3235,-0.2511,0.1336,0.0166,0.0442,-0.0011,3983,2019-08-07 16:48:52:186
-6.8083,-6.4289,1.1771,-0.3235,-0.2511,0.1336,0.0166,0.0442,-0.0011,3988,2019-08-07 16:48:52:191
-6.8083,-6.4289,1.1771,-0.1762,-0.4369,0.178,0.0219,0.0484,0.0032,3993,2019-08-07 16:48:52:196
-6.7987,-6.257,1.3845,-0.1762,-0.4369,0.178,0.0219,0.0484,0.0032,3998,2019-08-07 16:48:52:201
-6.7987,-6.257,1.3845,-0.1762,-0.4369,0.178,0.0219,0.0484,0.0032,4003,2019-08-07 16:48:52:206
-6.7987,-6.257,1.3845,-0.1762,-0.4369,0.178,0.0379,0.042,0.0181,4008,2019-08-07 16:48:52:211
-6.8227,-6.4002,1.3939,-0.1802,-0.3186,0.0392,0.0379,0.042,0.0181,4013,2019-08-07 16:48:52:216
-6.8227,-6.4002,1.3939,-0.1802,-0.3186,0.0392,0.0304,0.025,0.017,4018,2019-08-07 16:48:52:221
-6.8179,-6.4098,1.2949,-0.1802,-0.3186,0.0392,0.0304,0.025,0.017,4024,2019-08-07 16:48:52:227
-6.8179,-6.4098,1.2949,-0.1802,-0.3186,0.0392,-0.0037,0.0111,0.0032,4027,2019-08-07 16:48:52:230
-6.8179,-6.4098,1.2949,-0.1211,-0.3538,0.3113,-0.0037,0.0111,0.0032,4033,2019-08-07 16:48:52:236
-7.2246,-6.3859,1.1441,-0.1211,-0.3538,0.3113,-0.075,-0.0624,0.0053,4037,2019-08-07 16:48:52:240
-7.2246,-6.3859,1.1441,-0.1402,-0.2489,-0.0425,-0.075,-0.0624,0.0053,4043,2019-08-07 16:48:52:246
-6.6887,-6.6103,1.5825,-0.1402,-0.2489,-0.0425,-0.0037,-0.0198,-0.0192,4048,2019-08-07 16:48:52:251
-6.6887,-6.6103,1.5825,-0.1402,-0.2489,-0.0425,-0.0037,-0.0198,-0.0192,4052,2019-08-07 16:48:52:255
-6.6887,-6.6103,1.5825,-0.1402,-0.2489,-0.0425,-0.0037,-0.0198,-0.0192,4058,2019-08-07 16:48:52:261
-6.8227,-6.4098,1.2336,-0.18,-0.3092,0.1998,0.0304,0.0026,-0.0288,4063,2019-08-07 16:48:52:266
-6.8227,-6.4098,1.2336,-0.18,-0.3092,0.1998,0.0304,0.0026,-0.0288,4068,2019-08-07 16:48:52:271
-6.8227,-6.4098,1.2336,-0.18,-0.3092,0.1998,0.007,0.0964,-0.0277,4073,2019-08-07 16:48:52:276
-6.7079,-6.2475,1.2431,-0.18,-0.3092,0.1998,0.007,0.0964,-0.0277,4077,2019-08-07 16:48:52:280
-6.7079,-6.2475,1.2431,-0.1649,-0.4842,0.212,-0.0143,0.1283,-0.0405,4083,2019-08-07 16:48:52:286
-6.7079,-6.2475,1.2431,-0.1649,-0.4842,0.212,-0.0143,0.1283,-0.0405,4087,2019-08-07 16:48:52:290
-7.0428,-6.2618,1.309,0.046,-0.4009,0.0551,-0.0378,0.1049,-0.0511,4093,2019-08-07 16:48:52:296
-7.0428,-6.2618,1.309,0.046,-0.4009,0.0551,-0.0378,0.1049,-0.0511,4098,2019-08-07 16:48:52:301
-7.1433,-6.2952,1.4646,0.046,-0.4009,0.0551,-0.0378,0.1049,-0.0511,4102,2019-08-07 16:48:52:305
-7.1433,-6.2952,1.4646,0.046,-0.4009,0.0551,-0.0431,0.0186,-0.0554,4108,2019-08-07 16:48:52:311
-6.8993,-6.405,1.4787,-0.0981,-0.3267,-0.0794,-0.0431,0.0186,-0.0554,4113,2019-08-07 16:48:52:316
-6.8993,-6.405,1.4787,-0.0981,-0.3267,-0.0794,-0.0271,-0.0336,-0.0618,4118,2019-08-07 16:48:52:321
-6.8993,-6.405,1.4787,-0.0981,-0.3267,-0.0794,-0.0271,-0.0336,-0.0618,4123,2019-08-07 16:48:52:326