ACCELEROMETER X (m/s²),ACCELEROMETER Y (m/s²),ACCELEROMETER Z (m/s²),LINEAR ACCELERATION X (m/s²),LINEAR ACCELERATION Y (m/s²),LINEAR ACCELERATION Z (m/s²),GYROSCOPE X (rad/s),GYROSCOPE Y (rad/s),GYROSCOPE Z (rad/s),Time since start in ms ,YYYY-MO-DD HH-MI-SS_SSS
-6.2056,-6.9778,1.1676,-0.1173,-0.3416,-0.0368,0.0038,-0.0219,0.0096,2,2019-08-07 16:48:19:149
-6.2056,-6.9778,1.1676,-0.2099,-0.3589,0.0457,0.0038,-0.0219,0.0096,8,2019-08-07 16:48:19:155
-6.1291,-6.9969,1.0451,-0.2099,-0.3589,0.0457,0.0017,-0.0368,0.017,13,2019-08-07 16:48:19:160
-6.1291,-6.9969,1.0451,-0.2099,-0.3589,0.0457,0.0017,-0.0368,0.017,17,2019-08-07 16:48:19:164
-6.1291,-6.9969,1.0451,-0.2099,-0.3589,0.0457,0.0048,-0.0261,0.0138,23,2019-08-07 16:48:19:170
-6.129,-7.0876,0.9932,-0.2547,-0.2708,0.1627,0.0048,-0.0261,0.0138,27,2019-08-07 16:48:19:174
-6.129,-7.0876,0.9932,-0.2547,-0.2708,0.1627,0.007,-0.008,0.0138,33,2019-08-07 16:48:19:180
-6.086,-7.059,0.9555,-0.2547,-0.2708,0.1627,0.007,-0.008,0.0138,37,2019-08-07 16:48:19:184
-6.086,-7.059,0.9555,-0.2547,-0.2708,0.1627,0.007,-0.008,0.0138,43,2019-08-07 16:48:19:190
-6.086,-7.059,0.9555,-0.2665,-0.3166,0.2005,0.0112,0.0239,0.0106,48,2019-08-07 16:48:19:195
-6.1673,-7.0542,0.9649,-0.2665,-0.3166,0.2005,0.0112,0.0239,0.0106,53,2019-08-07 16:48:19:200
-6.1673,-7.0542,0.9649,-0.2665,-0.3166,0.2005,0.0198,0.0601,0.0074,58,2019-08-07 16:48:19:205
-6.2151,-7.016,1.0262,-0.2665,-0.3166,0.2005,0.0198,0.0601,0.0074,63,2019-08-07 16:48:19:210
-6.2151,-7.016,1.0262,-0.1403,-0.3293,0.0821,0.0219,0.0697,0.0074,67,2019-08-07 16:48:19:214
-6.2151,-7.016,1.0262,-0.1403,-0.3293,0.0821,0.0219,0.0697,0.0074,73,2019-08-07 16:48:19:220
-6.3012,-7.059,1.1016,-0.1403,-0.3293,0.0821,0.0219,0.0644,0.0,78,2019-08-07 16:48:19:225
-6.3012,-7.059,1.1016,-0.1403,-0.3293,0.0821,0.0219,0.0644,0.0,83,2019-08-07 16:48:19:230
-6.3777,-6.9301,1.1346,-0.0568,-0.3612,0.011,0.0198,0.042,0.0021,88,2019-08-07 16:48:19:235
-6.3777,-6.9301,1.1346,-0.0568,-0.3612,0.011,0.0198,0.042,0.0021,93,2019-08-07 16:48:19:240
-6.3777,-6.9301,1.1346,-0.0568,-0.3612,0.011,0.0208,0.0143,-0.0021,98,2019-08-07 16:48:19:245
-6.349,-7.0304,1.2101,-0.0568,-0.3612,0.011,0.0208,0.0143,-0.0021,103,2019-08-07 16:48:19:250
-6.349,-7.0304,1.2101,-0.0633,-0.3404,-0.0722,0.0123,-0.0325,0.0021,108,2019-08-07 16:48:19:255
-6.349,-7.0304,1.2101,-0.0633,-0.3404,-0.0722,0.0123,-0.0325,0.0021,113,2019-08-07 16:48:19:260
-6.2342,-7.0256,1.1865,-0.0633,-0.3404,-0.0722,0.0091,-0.0624,0.0074,117,2019-08-07 16:48:19:264
-6.2342,-7.0256,1.1865,-0.0633,-0.3404,-0.0722,0.0091,-0.0624,0.0074,123,2019-08-07 16:48:19:270
-6.0763,-6.9683,1.0404,-0.3025,-0.3772,0.0734,0.007,-0.0581,0.0096,129,2019-08-07 16:48:19:276
-6.0763,-6.9683,1.0404,-0.3025,-0.3772,0.0734,0.007,-0.0581,0.0096,133,2019-08-07 16:48:19:280
-6.0763,-6.9683,1.0404,-0.3025,-0.3772,0.0734,0.0048,-0.0315,0.0074,137,2019-08-07 16:48:19:284
-6.0236,-7.0113,1.1017,-0.3025,-0.3772,0.0734,0.0048,-0.0315,0.0074,143,2019-08-07 16:48:19:290
-6.0236,-7.0113,1.1017,-0.3124,-0.3524,0.0685,6.0E-4,5.0E-4,0.0064,148,2019-08-07 16:48:19:295
-6.0236,-7.0113,1.1017,-0.3124,-0.3524,0.0685,6.0E-4,5.0E-4,0.0064,152,2019-08-07 16:48:19:299
-6.0858,-7.0113,1.0922,-0.3124,-0.3524,0.0685,-5.0E-4,0.0271,0.0032,158,2019-08-07 16:48:19:305
-6.0858,-7.0113,1.0922,-0.3124,-0.3524,0.0685,-5.0E-4,0.0271,0.0032,163,2019-08-07 16:48:19:310
-6.1719,-6.9301,1.1158,-0.2229,-0.4185,0.0418,-0.0015,0.0495,0.0042,167,2019-08-07 16:48:19:314
-6.1719,-6.9301,1.1158,-0.2229,-0.4185,0.0418,-0.0015,0.0495,0.0042,173,2019-08-07 16:48:19:320
-6.1719,-6.9301,1.1158,-0.2229,-0.4185,0.0418,-0.0026,0.0655,0.0085,178,2019-08-07 16:48:19:325
-6.2484,-6.954,1.0215,-0.2229,-0.4185,0.0418,-0.0026,0.0655,0.0085,183,2019-08-07 16:48:19:330
-6.2484,-6.954,1.0215,-0.164,-0.355,0.1036,-0.0026,0.0655,0.0085,188,2019-08-07 16:48:19:335
-6.2676,-6.997,1.1205,-0.164,-0.355,0.1036,-0.0069,0.0697,0.0074,193,2019-08-07 16:48:19:340
-6.2676,-6.997,1.1205,-0.0175,-0.3065,0.0187,-0.0069,0.0697,0.0074,199,2019-08-07 16:48:19:346
-6.2676,-6.997,1.1205,-0.0175,-0.3065,0.0187,-5.0E-4,0.0537,0.0,202,2019-08-07 16:48:19:349
-6.3489,-7.0495,1.1158,-0.0175,-0.3065,0.0187,-5.0E-4,0.0537,0.0,208,2019-08-07 16:48:19:355
-6.3489,-7.0495,1.1158,-0.0175,-0.3065,0.0187,6.0E-4,0.0324,-0.0075,213,2019-08-07 16:48:19:360
-6.4158,-7.0113,1.0828,0.0142,-0.3344,0.0553,6.0E-4,0.0324,-0.0075,217,2019-08-07 16:48:19:364
-6.4158,-7.0113,1.0828,0.0142,-0.3344,0.0553,0.0038,0.0047,-0.0043,223,2019-08-07 16:48:19:370
-6.4158,-7.0113,1.0828,0.0142,-0.3344,0.0553,0.0038,0.0047,-0.0043,228,2019-08-07 16:48:19:375
-6.2675,-7.0256,1.0121,0.0142,-0.3344,0.0553,0.0048,-0.008,-0.0085,233,2019-08-07 16:48:19:380
-6.2675,-7.0256,1.0121,-0.1342,-0.2914,0.0694,0.0048,-0.008,-0.0085,238,2019-08-07 16:48:19:385
-6.2675,-7.0256,1.0121,-0.1342,-0.2914,0.0694,0.0048,-0.008,-0.0085,242,2019-08-07 16:48:19:389
-6.2292,-7.0399,1.0687,-0.1578,-0.301,0.0615,0.0091,-0.0155,-0.0085,249,2019-08-07 16:48:19:396
-6.2292,-7.0399,1.0687,-0.1578,-0.301,0.0615,0.0176,-0.0166,-0.0021,254,2019-08-07 16:48:19:401
-6.2292,-7.0399,1.0687,-0.1578,-0.301,0.0615,0.0176,-0.0166,-0.0021,258,2019-08-07 16:48:19:405
-6.2292,-7.0352,1.064,-0.1578,-0.301,0.0615,0.0176,-0.0166,-0.0021,264,2019-08-07 16:48:19:411
-6.2292,-7.0352,1.064,-0.1578,-0.301,0.0615,0.0187,-0.0155,0.0,267,2019-08-07 16:48:19:414
-6.2053,-6.9683,1.0781,-0.1862,-0.2816,0.0564,0.0187,-0.0155,0.0,273,2019-08-07 16:48:19:420
-6.2053,-6.9683,1.0781,-0.1862,-0.2816,0.0564,0.0262,-0.0102,0.0042,278,2019-08-07 16:48:19:425
-6.2053,-6.9683,1.0781,-0.1862,-0.2816,0.0564,0.0262,-0.0102,0.0042,283,2019-08-07 16:48:19:430
-6.1909,-7.0113,1.1064,-0.1862,-0.2816,0.0564,0.0262,-0.0102,0.0042,287,2019-08-07 16:48:19:434
-6.1909,-7.0113,1.1064,-0.2016,-0.3324,0.1038,0.0315,0.0047,0.0106,292,2019-08-07 16:48:19:439
-6.1526,-7.0256,1.0404,-0.2016,-0.3324,0.1038,0.0283,0.0207,0.0096,299,2019-08-07 16:48:19:446
-6.1526,-7.0256,1.0404,-0.2016,-0.3324,0.1038,0.0283,0.0207,0.0096,302,2019-08-07 16:48:19:449
-6.1526,-7.0256,1.0404,-0.2016,-0.3324,0.1038,0.0283,0.0207,0.0096,308,2019-08-07 16:48:19:455
-6.2483,-7.0113,1.0499,-0.1559,-0.3303,0.1008,0.0283,0.0314,0.0032,313,2019-08-07 16:48:19:460
-6.2483,-7.0113,1.0499,-0.1559,-0.3303,0.1008,0.0283,0.0314,0.0032,318,2019-08-07 16:48:19:465
-6.2913,-6.9492,1.1489,-0.1559,-0.3303,0.1008,0.0336,0.0314,-0.0011,323,2019-08-07 16:48:19:470
-6.2913,-6.9492,1.1489,-0.1559,-0.3303,0.1008,0.0336,0.0314,-0.0011,328,2019-08-07 16:48:19:475
-6.2913,-6.9492,1.1489,-0.0668,-0.405,0.0498,0.0283,0.0207,-0.0053,333,2019-08-07 16:48:19:480
-6.3343,-6.9301,1.163,-0.0668,-0.405,0.0498,0.0283,0.0207,-0.0053,337,2019-08-07 16:48:19:484
-6.3343,-6.9301,1.163,-0.0668,-0.405,0.0498,0.0187,0.009,-0.0021,343,2019-08-07 16:48:19:490
-6.3008,-6.9349,1.2101,-0.0668,-0.405,0.0498,0.0187,0.009,-0.0021,347,2019-08-07 16:48:19:494
-6.3008,-6.9349,1.2101,-0.1301,-0.3942,-0.0191,0.0091,0.0015,0.0,353,2019-08-07 16:48:19:500
-6.3008,-6.9349,1.2101,-0.1301,-0.3942,-0.0191,0.0091,0.0015,0.0,358,2019-08-07 16:48:19:505
-6.2817,-6.9254,1.1913,-0.1301,-0.3942,-0.0191,-5.0E-4,-0.0155,0.001,362,2019-08-07 16:48:19:509
-6.2817,-6.9254,1.1913,-0.1301,-0.3942,-0.0191,-5.0E-4,-0.0155,0.001,368,2019-08-07 16:48:19:515
-6.186,-6.9349,1.1159,-0.2026,-0.3884,0.0071,-5.0E-4,-0.0325,0.0053,373,2019-08-07 16:48:19:520
-6.186,-6.9349,1.1159,-0.2026,-0.3884,0.0071,-5.0E-4,-0.0325,0.0053,378,2019-08-07 16:48:19:525
-6.186,-6.9349,1.1159,-0.2026,-0.3884,0.0071,-0.0079,-0.0357,0.0117,382,2019-08-07 16:48:19:529
-6.119,-7.0304,1.1017,-0.2026,-0.3884,0.0071,-0.0079,-0.0357,0.0117,388,2019-08-07 16:48:19:535
-6.119,-7.0304,1.1017,-0.2464,-0.3824,0.0529,-0.009,-0.0144,0.0085,393,2019-08-07 16:48:19:540
-6.1764,-6.9349,1.1064,-0.2464,-0.3824,0.0529,-0.009,-0.0144,0.0085,399,2019-08-07 16:48:19:546
-6.1764,-6.9349,1.1064,-0.2464,-0.3824,0.0529,-0.0101,0.0047,0.0138,403,2019-08-07 16:48:19:550
-6.1764,-6.9349,1.1064,-0.2464,-0.3824,0.0529,-0.0101,0.0047,0.0138,408,2019-08-07 16:48:19:555
-6.1859,-6.9874,1.0687,-0.2247,-0.3473,0.0893,-0.009,0.0165,0.0117,412,2019-08-07 16:48:19:559
-6.1859,-6.9874,1.0687,-0.2247,-0.3473,0.0893,-0.009,0.0165,0.0117,418,2019-08-07 16:48:19:565
-6.2672,-6.9397,1.0405,-0.2247,-0.3473,0.0893,-0.0111,0.0218,0.0053,423,2019-08-07 16:48:19:570
-6.2672,-6.9397,1.0405,-0.2247,-0.3473,0.0893,-0.0111,0.0218,0.0053,428,2019-08-07 16:48:19:575
-6.2672,-6.9397,1.0405,-0.0885,-0.4079,0.0657,-0.0154,0.0165,0.001,433,2019-08-07 16:48:19:580
-6.3055,-6.9445,1.0829,-0.0885,-0.4079,0.0657,-0.0154,0.0165,0.001,438,2019-08-07 16:48:19:585
-6.3055,-6.9445,1.0829,-0.0885,-0.4079,0.0657,-0.0154,0.0197,-0.0075,444,2019-08-07 16:48:19:591
-6.3055,-6.9445,1.0829,-0.0885,-0.4079,0.0657,-0.0154,0.0197,-0.0075,448,2019-08-07 16:48:19:595
-6.3342,-6.9731,0.9839,-0.0466,-0.4268,0.1408,-0.0154,0.0197,-0.0075,453,2019-08-07 16:48:19:600
-6.3342,-6.9731,0.9839,-0.0466,-0.4268,0.1408,-0.0175,0.0143,-0.0117,458,2019-08-07 16:48:19:605
-6.339,-7.0161,1.0735,-0.0466,-0.4268,0.1408,-0.0175,0.0143,-0.0117,463,2019-08-07 16:48:19:610
-6.339,-7.0161,1.0735,-0.0466,-0.4268,0.1408,-0.0207,-6.0E-4,-0.0075,468,2019-08-07 16:48:19:615
-6.339,-7.0161,1.0735,-0.1467,-0.3084,0.0427,-0.0207,-6.0E-4,-0.0075,473,2019-08-07 16:48:19:620
-6.2959,-6.9731,1.1159,-0.1467,-0.3084,0.0427,-0.0154,-0.0144,-0.0064,478,2019-08-07 16:48:19:625
-6.2959,-6.9731,1.1159,-0.1467,-0.3084,0.0427,-0.0154,-0.0144,-0.0064,484,2019-08-07 16:48:19:631
-6.2432,-7.0113,1.0876,-0.1467,-0.3084,0.0427,-0.0069,-0.0304,-0.0011,489,2019-08-07 16:48:19:636
-6.2432,-7.0113,1.0876,-0.1749,-0.366,-0.0129,-0.0069,-0.0304,-0.0011,493,2019-08-07 16:48:19:640
-6.2432,-7.0113,1.0876,-0.1749,-0.366,-0.0129,-0.0026,-0.04,0.0053,498,2019-08-07 16:48:19:645
-6.1332,-6.9827,1.1772,-0.1749,-0.366,-0.0129,-0.0026,-0.04,0.0053,503,2019-08-07 16:48:19:650
-6.1332,-6.9827,1.1772,-0.1749,-0.366,-0.0129,-5.0E-4,-0.0464,0.0138,508,2019-08-07 16:48:19:655
-6.1092,-6.9445,1.0688,-0.3046,-0.3885,0.0823,-5.0E-4,-0.0464,0.0138,512,2019-08-07 16:48:19:659
-6.1092,-6.9445,1.0688,-0.3046,-0.3885,0.0823,-5.0E-4,-0.0357,0.0213,518,2019-08-07 16:48:19:665
-6.1092,-6.9445,1.0688,-0.3046,-0.3885,0.0823,-5.0E-4,-0.0357,0.0213,522,2019-08-07 16:48:19:669
-6.1523,-7.0018,0.9981,-0.3046,-0.3885,0.0823,-0.0026,-0.0198,0.0287,528,2019-08-07 16:48:19:675
-6.1523,-7.0018,0.9981,-0.3218,-0.3617,0.0807,-0.0026,-0.0198,0.0287,533,2019-08-07 16:48:19:680
-6.1188,-6.9827,0.9886,-0.3218,-0.3617,0.0807,-0.0026,-0.0198,0.0287,538,2019-08-07 16:48:19:685
-6.1188,-6.9827,0.9886,-0.3218,-0.3617,0.0807,0.0038,-0.0038,0.0255,544,2019-08-07 16:48:19:691
-6.1475,-6.9922,1.0594,-0.3218,-0.3617,0.0807,0.0038,-0.0038,0.0255,548,2019-08-07 16:48:19:695
-6.1475,-6.9922,1.0594,-0.2301,-0.3725,0.1613,0.0091,0.0165,0.0224,553,2019-08-07 16:48:19:700
-6.1475,-6.9922,1.0594,-0.2301,-0.3725,0.1613,0.0091,0.0165,0.0224,558,2019-08-07 16:48:19:705
-6.224,-6.9922,1.0216,-0.2301,-0.3725,0.1613,0.0048,0.026,0.016,563,2019-08-07 16:48:19:710
-6.224,-6.9922,1.0216,-0.2301,-0.3725,0.1613,0.0048,0.026,0.016,567,2019-08-07 16:48:19:714
-6.2862,-6.9302,1.0122,-0.1382,-0.3935,0.1393,-0.0026,0.0324,0.0128,573,2019-08-07 16:48:19:720
-6.2862,-6.9302,1.0122,-0.1382,-0.3935,0.1393,-0.0026,0.0324,0.0128,577,2019-08-07 16:48:19:724
-6.2862,-6.9302,1.0122,-0.1382,-0.3935,0.1393,-0.0026,0.0303,0.0128,583,2019-08-07 16:48:19:730
-6.3197,-6.9875,1.1112,-0.1382,-0.3935,0.1393,-0.0026,0.0303,0.0128,588,2019-08-07 16:48:19:735
-6.3197,-6.9875,1.1112,-0.1605,-0.315,0.0034,-0.0079,0.009,0.0138,592,2019-08-07 16:48:19:739
-6.2479,-7.0113,1.1584,-0.1605,-0.315,0.0034,-0.0079,0.009,0.0138,598,2019-08-07 16:48:19:745
-6.2479,-7.0113,1.1584,-0.1605,-0.315,0.0034,-0.0069,-0.0102,0.0149,602,2019-08-07 16:48:19:749
-6.2479,-7.0113,1.1584,-0.1605,-0.315,0.0034,-0.0069,-0.0102,0.0149,608,2019-08-07 16:48:19:755
-6.2479,-6.997,1.1725,-0.1605,-0.315,0.0034,-0.0069,-0.0102,0.0149,613,2019-08-07 16:48:19:760
-6.2479,-6.997,1.1725,-0.1822,-0.3271,0.0129,-0.0058,-0.0325,0.0192,618,2019-08-07 16:48:19:765
-6.1713,-7.0066,1.1065,-0.1822,-0.3271,0.0129,-0.0058,-0.0325,0.0192,623,2019-08-07 16:48:19:770
-6.1713,-7.0066,1.1065,-0.1822,-0.3271,0.0129,-0.009,-0.0411,0.0234,627,2019-08-07 16:48:19:774
-6.1713,-7.0066,1.1065,-0.1822,-0.3271,0.0129,-0.009,-0.0411,0.0234,633,2019-08-07 16:48:19:780
-6.1474,-7.0257,1.0688,-0.2469,-0.2862,0.0687,-0.009,-0.0411,0.0234,637,2019-08-07 16:48:19:784
-6.1474,-7.0257,1.0688,-0.2469,-0.2862,0.0687,-0.0069,-0.0283,0.0277,643,2019-08-07 16:48:19:790
-6.1474,-7.0257,1.0688,-0.2469,-0.2862,0.0687,-0.0069,-0.0283,0.0277,648,2019-08-07 16:48:19:795
-6.1665,-7.0018,1.0217,-0.2469,-0.2862,0.0687,-0.0079,-0.0102,0.0266,653,2019-08-07 16:48:19:800
-6.1665,-7.0018,1.0217,-0.2503,-0.3546,0.15,-0.0079,-0.0102,0.0266,658,2019-08-07 16:48:19:805
-6.2191,-6.9684,1.0358,-0.2503,-0.3546,0.15,-0.0058,0.0101,0.0202,663,2019-08-07 16:48:19:810
-6.2191,-6.9684,1.0358,-0.2503,-0.3546,0.15,-0.0058,0.0101,0.0202,668,2019-08-07 16:48:19:815
-6.2191,-6.9684,1.0358,-0.2503,-0.3546,0.15,-0.0047,0.0271,0.016,672,2019-08-07 16:48:19:819
-6.286,-6.9923,1.017,-0.1535,-0.3186,0.132,-0.0047,0.0271,0.016,678,2019-08-07 16:48:19:825
-6.286,-6.9923,1.017,-0.1535,-0.3186,0.132,-0.0026,0.041,0.0117,683,2019-08-07 16:48:19:830
-6.3434,-6.9541,1.0594,-0.1535,-0.3186,0.132,-0.0026,0.041,0.0117,688,2019-08-07 16:48:19:835
-6.3434,-6.9541,1.0594,-0.1535,-0.3186,0.132,0.0027,0.0452,0.0085,692,2019-08-07 16:48:19:839
-6.3961,-6.9827,1.1065,-0.0709,-0.3641,0.0414,0.0027,0.0452,0.0085,698,2019-08-07 16:48:19:845
-6.3961,-6.9827,1.1065,-0.0709,-0.3641,0.0414,6.0E-4,0.0346,0.0042,703,2019-08-07 16:48:19:850
-6.3961,-6.9827,1.1065,-0.0709,-0.3641,0.0414,6.0E-4,0.0346,0.0042,707,2019-08-07 16:48:19:854
-6.3913,-6.9397,1.1914,-0.0709,-0.3641,0.0414,6.0E-4,0.0154,0.0064,713,2019-08-07 16:48:19:860
-6.3913,-6.9397,1.1914,-0.0785,-0.3622,-0.0326,6.0E-4,0.0154,0.0064,718,2019-08-07 16:48:19:865
-6.3913,-6.9397,1.1914,-0.0785,-0.3622,-0.0326,6.0E-4,-0.0123,0.0096,722,2019-08-07 16:48:19:869
-6.3386,-7.0018,1.1254,-0.0785,-0.3622,-0.0326,6.0E-4,-0.0123,0.0096,728,2019-08-07 16:48:19:875
-6.3386,-7.0018,1.1254,-0.0785,-0.3622,-0.0326,-5.0E-4,-0.0357,0.0096,733,2019-08-07 16:48:19:880
-6.3386,-7.0018,1.1254,-0.2092,-0.2649,0.0175,-5.0E-4,-0.0357,0.0096,738,2019-08-07 16:48:19:885
-6.2285,-7.0114,1.1443,-0.2092,-0.2649,0.0175,-0.0015,-0.0506,0.0085,743,2019-08-07 16:48:19:890
-6.2285,-7.0114,1.1443,-0.2092,-0.2649,0.0175,-0.0015,-0.0506,0.0085,748,2019-08-07 16:48:19:895
-6.1759,-6.997,1.0877,-0.2092,-0.2649,0.0175,0.0048,-0.0538,0.0181,753,2019-08-07 16:48:19:900
-6.1759,-6.997,1.0877,-0.3103,-0.3062,0.0385,0.0048,-0.0538,0.0181,758,2019-08-07 16:48:19:905
-6.1759,-6.997,1.0877,-0.3103,-0.3062,0.0385,0.0048,-0.0538,0.0181,763,2019-08-07 16:48:19:910
-6.085,-7.0018,1.0688,-0.3103,-0.3062,0.0385,0.0134,-0.0219,0.0181,768,2019-08-07 16:48:19:915
-6.085,-7.0018,1.0688,-0.3103,-0.3062,0.0385,0.0134,-0.0219,0.0181,773,2019-08-07 16:48:19:920
-6.1759,-7.0018,1.0783,-0.2738,-0.2991,0.0765,0.0112,-0.0091,0.017,778,2019-08-07 16:48:19:925
-6.1759,-7.0018,1.0783,-0.2738,-0.2991,0.0765,0.0112,-0.0091,0.017,784,2019-08-07 16:48:19:931
-6.1663,-7.0018,1.0594,-0.2738,-0.2991,0.0765,0.0027,0.0133,0.0192,789,2019-08-07 16:48:19:936
-6.1663,-7.0018,1.0594,-0.2738,-0.2991,0.0765,0.0027,0.0133,0.0192,793,2019-08-07 16:48:19:940
-6.1663,-7.0018,1.0594,-0.2625,-0.3347,0.0808,0.0027,0.0133,0.0192,798,2019-08-07 16:48:19:945
-6.2428,-6.9302,0.9887,-0.2625,-0.3347,0.0808,-0.0015,0.0282,0.0181,803,2019-08-07 16:48:19:950
-6.2428,-6.9302,0.9887,-0.2625,-0.3347,0.0808,-0.0015,0.0282,0.0181,808,2019-08-07 16:48:19:955
-6.2428,-6.9302,0.9887,-0.2625,-0.3347,0.0808,0.0016,0.0367,0.0117,813,2019-08-07 16:48:19:960
-6.3337,-6.9541,1.0406,-0.132,-0.342,0.0901,0.0016,0.0367,0.0117,817,2019-08-07 16:48:19:964
-6.3337,-6.9541,1.0406,-0.132,-0.342,0.0901,-5.0E-4,0.0378,0.0021,823,2019-08-07 16:48:19:970
-6.4007,-6.9159,1.083,-0.132,-0.342,0.0901,-5.0E-4,0.0378,0.0021,828,2019-08-07 16:48:19:975
-6.4007,-6.9159,1.083,-0.132,-0.342,0.0901,-0.0069,0.0229,-0.0085,833,2019-08-07 16:48:19:980
-6.4007,-6.9159,1.083,-0.1145,-0.3842,0.0478,-0.0069,0.0229,-0.0085,837,2019-08-07 16:48:19:984
-6.3576,-6.9063,1.0924,-0.1145,-0.3842,0.0478,-0.0069,0.0229,-0.0085,843,2019-08-07 16:48:19:990
-6.3576,-6.9063,1.0924,-0.1145,-0.3842,0.0478,-0.0111,0.0069,-0.0064,848,2019-08-07 16:48:19:995
-6.3289,-6.9827,1.0736,-0.1145,-0.3842,0.0478,-0.0111,0.0069,-0.0064,852,2019-08-07 16:48:19:999
-6.3289,-6.9827,1.0736,-0.1716,-0.3039,0.0826,-0.0133,-6.0E-4,-0.0107,858,2019-08-07 16:48:20:005
-6.3289,-6.9827,1.0736,-0.1716,-0.3039,0.0826,-0.0133,-6.0E-4,-0.0107,863,2019-08-07 16:48:20:010
-6.281,-6.9827,1.1113,-0.1716,-0.3039,0.0826,-0.0143,-0.008,-0.0117,868,2019-08-07 16:48:20:015
-6.281,-6.9827,1.1113,-0.1716,-0.3039,0.0826,-0.0143,-0.008,-0.0117,873,2019-08-07 16:48:20:020
-6.1422,-7.0257,1.0689,-0.3132,-0.2722,0.0727,-0.0047,-0.0166,-0.0096,878,2019-08-07 16:48:20:025
-6.1422,-7.0257,1.0689,-0.3132,-0.2722,0.0727,-0.0047,-0.0166,-0.0096,882,2019-08-07 16:48:20:029
-6.1422,-7.0257,1.0689,-0.3132,-0.2722,0.0727,0.0048,-0.0208,-0.0021,888,2019-08-07 16:48:20:035
-6.0896,-7.0257,1.0453,-0.3132,-0.2722,0.0727,0.0048,-0.0208,-0.0021,892,2019-08-07 16:48:20:039
-6.0896,-7.0257,1.0453,-0.3457,-0.2824,0.1598,0.007,-0.0016,0.0021,898,2019-08-07 16:48:20:045
-6.147,-6.9684,1.0595,-0.3457,-0.2824,0.1598,0.007,-0.0016,0.0021,903,2019-08-07 16:48:20:050
-6.147,-6.9684,1.0595,-0.3457,-0.2824,0.1598,0.0166,0.0175,0.0074,908,2019-08-07 16:48:20:055
-6.147,-6.9684,1.0595,-0.3457,-0.2824,0.1598,0.0166,0.0175,0.0074,912,2019-08-07 16:48:20:059
-6.214,-7.0018,1.0217,-0.2275,-0.2573,0.0983,0.0198,0.0197,0.0128,918,2019-08-07 16:48:20:065
-6.214,-7.0018,1.0217,-0.2275,-0.2573,0.0983,0.0198,0.0197,0.0128,923,2019-08-07 16:48:20:070
-6.3001,-7.0257,0.9793,-0.2275,-0.2573,0.0983,0.0176,0.0229,0.0096,928,2019-08-07 16:48:20:075
-6.3001,-7.0257,0.9793,-0.2275,-0.2573,0.0983,0.0176,0.0229,0.0096,934,2019-08-07 16:48:20:081
-6.3001,-7.0257,0.9793,-0.2275,-0.2573,0.0983,0.0176,0.0229,0.0096,937,2019-08-07 16:48:20:084
-6.3383,-6.9875,1.0123,-0.115,-0.3174,0.1023,0.0272,0.0229,0.0053,943,2019-08-07 16:48:20:090
-6.3383,-6.9875,1.0123,-0.115,-0.3174,0.1023,0.0347,0.0303,0.0053,948,2019-08-07 16:48:20:095
-6.3144,-6.9684,1.0312,-0.115,-0.3174,0.1023,0.0347,0.0303,0.0053,953,2019-08-07 16:48:20:100
-6.3144,-6.9684,1.0312,-0.115,-0.3174,0.1023,0.0347,0.0303,0.0053,958,2019-08-07 16:48:20:105
-6.3144,-6.9684,1.0312,-0.1361,-0.3682,0.1401,0.0357,0.0388,-0.0053,963,2019-08-07 16:48:20:110
-6.3957,-6.9302,1.0218,-0.1361,-0.3682,0.1401,0.0357,0.0388,-0.0053,968,2019-08-07 16:48:20:115
-6.3957,-6.9302,1.0218,-0.1361,-0.3682,0.1401,0.0251,0.041,-0.0128,973,2019-08-07 16:48:20:120
-6.4196,-6.8634,1.1019,-0.0412,-0.4298,0.0398,0.0251,0.041,-0.0128,978,2019-08-07 16:48:20:125
-6.4196,-6.8634,1.1019,-0.0412,-0.4298,0.0398,0.0304,0.0239,-0.0107,984,2019-08-07 16:48:20:131
-6.4196,-6.8634,1.1019,-0.0412,-0.4298,0.0398,0.0304,0.0239,-0.0107,988,2019-08-07 16:48:20:135
-6.3239,-6.8682,1.1113,-0.0412,-0.4298,0.0398,0.0304,0.0239,-0.0107,993,2019-08-07 16:48:20:140
-6.3239,-6.8682,1.1113,-0.1462,-0.3865,0.0478,0.0283,-0.0048,-0.0096,998,2019-08-07 16:48:20:145
-6.3239,-6.8682,1.1113,-0.1462,-0.3865,0.0478,0.0283,-0.0048,-0.0096,1002,2019-08-07 16:48:20:149
-6.2186,-6.9159,1.1443,-0.1462,-0.3865,0.0478,0.0261,-0.0176,-0.0064,1008,2019-08-07 16:48:20:155
-6.2186,-6.9159,1.1443,-0.2751,-0.3386,-0.0243,0.0261,-0.0176,-0.0064,1012,2019-08-07 16:48:20:159
-6.1325,-6.9541,1.2386,-0.2751,-0.3386,-0.0243,0.0261,-0.0315,0.0053,1018,2019-08-07 16:48:20:165
-6.1325,-6.9541,1.2386,-0.2751,-0.3386,-0.0243,0.0261,-0.0315,0.0053,1022,2019-08-07 16:48:20:169
-6.1325,-6.9541,1.2386,-0.2751,-0.3386,-0.0243,0.0261,-0.0357,0.0106,1028,2019-08-07 16:48:20:175
-6.1086,-6.9732,1.0972,-0.3515,-0.3182,0.0599,0.0261,-0.0357,0.0106,1033,2019-08-07 16:48:20:180
-6.1086,-6.9732,1.0972,-0.3515,-0.3182,0.0599,0.0176,-0.0166,0.0128,1038,2019-08-07 16:48:20:185
-6.1707,-6.9971,1.1113,-0.3515,-0.3182,0.0599,0.0176,-0.0166,0.0128,1043,2019-08-07 16:48:20:190
-6.1707,-6.9971,1.1113,-0.2476,-0.3354,0.0882,0.0166,-0.0016,0.0096,1048,2019-08-07 16:48:20:195
-6.1707,-6.9971,1.1113,-0.2476,-0.3354,0.0882,0.0166,-0.0016,0.0096,1053,2019-08-07 16:48:20:200
-6.252,-6.9589,1.0501,-0.2476,-0.3354,0.0882,0.0166,-0.0016,0.0096,1057,2019-08-07 16:48:20:204
-6.252,-6.9589,1.0501,-0.2476,-0.3354,0.0882,0.0091,0.025,0.0042,1063,2019-08-07 16:48:20:210
-6.2999,-6.9541,1.0595,-0.2476,-0.3354,0.0882,0.0091,0.025,0.0042,1068,2019-08-07 16:48:20:215
-6.2999,-6.9541,1.0595,-0.1343,-0.3439,0.1145,0.0016,0.0399,-0.0075,1073,2019-08-07 16:48:20:220
-6.2999,-6.9541,1.0595,-0.1343,-0.3439,0.1145,0.0016,0.0399,-0.0075,1077,2019-08-07 16:48:20:224
-6.386,-6.8634,1.0784,-0.1343,-0.3439,0.1145,-0.0026,0.0559,-0.016,1084,2019-08-07 16:48:20:231
-6.386,-6.8634,1.0784,-0.1343,-0.3439,0.1145,-0.0026,0.0559,-0.016,1087,2019-08-07 16:48:20:234
-6.386,-6.8634,1.0784,-0.0436,-0.3641,0.0741,-0.0026,0.0559,-0.016,1093,2019-08-07 16:48:20:240
-6.3955,-6.9493,1.0642,-0.0436,-0.3641,0.0741,-0.009,0.0537,-0.0256,1098,2019-08-07 16:48:20:245
-6.3955,-6.9493,1.0642,-0.0436,-0.3641,0.0741,-0.009,0.0537,-0.0256,1103,2019-08-07 16:48:20:250
-6.4242,-6.9159,1.1349,-0.0436,-0.3641,0.0741,-0.0101,0.0388,-0.0298,1108,2019-08-07 16:48:20:255
-6.4242,-6.9159,1.1349,-0.0323,-0.3239,-0.0092,-0.0101,0.0388,-0.0298,1113,2019-08-07 16:48:20:260
-6.4242,-6.9159,1.1349,-0.0323,-0.3239,-0.0092,-0.0101,0.0165,-0.0288,1117,2019-08-07 16:48:20:264
-6.3907,-6.9398,1.1962,-0.0323,-0.3239,-0.0092,-0.0101,0.0165,-0.0288,1124,2019-08-07 16:48:20:271
-6.3907,-6.9398,1.1962,-0.0323,-0.3239,-0.0092,-0.0015,-0.0251,-0.0181,1127,2019-08-07 16:48:20:274
-6.2472,-6.9828,1.1585,-0.2112,-0.3121,-0.0137,-0.0015,-0.0251,-0.0181,1133,2019-08-07 16:48:20:280
-6.2472,-6.9828,1.1585,-0.2112,-0.3121,-0.0137,6.0E-4,-0.0485,-0.0085,1138,2019-08-07 16:48:20:285
-6.2472,-6.9828,1.1585,-0.2112,-0.3121,-0.0137,6.0E-4,-0.0485,-0.0085,1143,2019-08-07 16:48:20:290
-6.1419,-7.0114,1.1208,-0.2112,-0.3121,-0.0137,0.0038,-0.0528,-0.0011,1148,2019-08-07 16:48:20:295
-6.1419,-7.0114,1.1208,-0.3477,-0.2844,0.0687,0.0038,-0.0528,-0.0011,1153,2019-08-07 16:48:20:300
-6.1419,-7.0114,1.1208,-0.3477,-0.2844,0.0687,0.0038,-0.0528,-0.0011,1158,2019-08-07 16:48:20:305
-6.0797,-6.9971,1.069,-0.3477,-0.2844,0.0687,0.0102,-0.0411,0.0032,1162,2019-08-07 16:48:20:309
-6.0797,-6.9971,1.069,-0.3477,-0.2844,0.0687,0.0102,-0.0411,0.0032,1169,2019-08-07 16:48:20:316
-6.1418,-6.9685,1.0312,-0.3331,-0.3171,0.1266,0.0144,-0.0155,0.0085,1173,2019-08-07 16:48:20:320
-6.1418,-6.9685,1.0312,-0.3331,-0.3171,0.1266,0.0144,-0.0155,0.0085,1178,2019-08-07 16:48:20:325
-6.1418,-6.9685,1.0312,-0.2476,-0.3832,0.2218,0.0144,0.0101,0.0042,1183,2019-08-07 16:48:20:330
-6.2519,-6.9159,1.0124,-0.2476,-0.3832,0.2218,0.0144,0.0101,0.0042,1188,2019-08-07 16:48:20:335
-6.2519,-6.9159,1.0124,-0.2476,-0.3832,0.2218,0.0144,0.0101,0.0042,1193,2019-08-07 16:48:20:340
-6.2519,-6.9159,1.0124,-0.2476,-0.3832,0.2218,0.0112,0.0282,0.0011,1198,2019-08-07 16:48:20:345
-6.2375,-6.873,1.0925,-0.2349,-0.4107,0.1351,0.0112,0.0282,0.0011,1202,2019-08-07 16:48:20:349
-6.2375,-6.873,1.0925,-0.2349,-0.4107,0.1351,0.0016,0.0367,-0.0021,1208,2019-08-07 16:48:20:355
-6.2375,-6.873,1.0925,-0.2349,-0.4107,0.1351,0.0016,0.0367,-0.0021,1213,2019-08-07 16:48:20:360
-6.381,-6.8921,1.0784,-0.2349,-0.4107,0.1351,-0.0037,0.0356,-0.0085,1218,2019-08-07 16:48:20:365
-6.381,-6.8921,1.0784,-0.1021,-0.3866,0.0171,-0.0037,0.0356,-0.0085,1223,2019-08-07 16:48:20:370
-6.381,-6.8921,1.0784,-0.1021,-0.3866,0.0171,-0.0069,0.0207,-0.0064,1227,2019-08-07 16:48:20:374
-6.2949,-6.8969,1.102,-0.1021,-0.3866,0.0171,-0.0069,0.0207,-0.0064,1233,2019-08-07 16:48:20:380
-6.2949,-6.8969,1.102,-0.1021,-0.3866,0.0171,-0.0133,-0.0038,-0.0053,1238,2019-08-07 16:48:20:385
-6.2949,-6.8969,1.102,-0.1021,-0.3866,0.0171,-0.0133,-0.0038,-0.0053,1243,2019-08-07 16:48:20:390
-6.2518,-7.021,1.1633,-0.2074,-0.2724,-0.0132,-0.009,-0.0219,-0.0021,1249,2019-08-07 16:48:20:396
-6.2518,-7.021,1.1633,-0.2074,-0.2724,-0.0132,-0.009,-0.0219,-0.0021,1254,2019-08-07 16:48:20:401
-6.2518,-7.021,1.1633,-0.2074,-0.2724,-0.0132,-0.009,-0.0219,-0.0021,1257,2019-08-07 16:48:20:404
-6.1609,-7.0257,1.1303,-0.2925,-0.2251,0.0175,-0.0122,-0.0379,0.0021,1263,2019-08-07 16:48:20:410
-6.1609,-7.0257,1.1303,-0.2925,-0.2251,0.0175,-0.0122,-0.0379,0.0021,1268,2019-08-07 16:48:20:415
-6.1609,-7.0257,1.1303,-0.2925,-0.2251,0.0175,-0.0122,-0.0389,0.0042,1273,2019-08-07 16:48:20:420
-6.1656,-7.0926,1.0737,-0.2925,-0.2251,0.0175,-0.0122,-0.0389,0.0042,1278,2019-08-07 16:48:20:425
-6.1656,-7.0926,1.0737,-0.2872,-0.2252,0.0673,-0.009,-0.024,0.0032,1283,2019-08-07 16:48:20:430
-6.1656,-7.0926,1.0737,-0.2872,-0.2252,0.0673,-0.009,-0.024,0.0032,1288,2019-08-07 16:48:20:435
-6.1417,-7.0735,1.0784,-0.2872,-0.2252,0.0673,-0.009,-0.024,0.0032,1292,2019-08-07 16:48:20:439
-6.1417,-7.0735,1.0784,-0.2872,-0.2252,0.0673,-0.0069,0.0026,0.0011,1298,2019-08-07 16:48:20:445
-6.1417,-7.0735,1.0784,-0.2872,-0.2252,0.0673,-0.0069,0.0026,0.0011,1303,2019-08-07 16:48:20:450
-6.1991,-6.9971,1.036,-0.2581,-0.2973,0.1179,-0.0015,0.0303,-0.0075,1308,2019-08-07 16:48:20:455
-6.1991,-6.9971,1.036,-0.2581,-0.2973,0.1179,-0.0015,0.0303,-0.0075,1313,2019-08-07 16:48:20:460
-6.3235,-6.978,1.0124,-0.2581,-0.2973,0.1179,-0.0015,0.0463,-0.0075,1319,2019-08-07 16:48:20:466
-6.3235,-6.978,1.0124,-0.2581,-0.2973,0.1179,-0.0015,0.0463,-0.0075,1322,2019-08-07 16:48:20:469
-6.3235,-6.978,1.0124,-0.0864,-0.3171,0.0549,0.0038,0.0463,-0.0128,1328,2019-08-07 16:48:20:475
-6.4143,-6.9255,1.1209,-0.0864,-0.3171,0.0549,0.0038,0.0463,-0.0128,1333,2019-08-07 16:48:20:480
-6.4143,-6.9255,1.1209,-0.0864,-0.3171,0.0549,0.008,0.0282,-0.0128,1338,2019-08-07 16:48:20:485
-6.4143,-6.9255,1.1209,-0.0864,-0.3171,0.0549,0.008,0.0282,-0.0128,1343,2019-08-07 16:48:20:490
-6.4717,-6.8921,1.168,-7.0E-4,-0.4031,-0.0616,0.0102,0.0058,-0.0107,1348,2019-08-07 16:48:20:495
-6.4717,-6.8921,1.168,-7.0E-4,-0.4031,-0.0616,0.0102,0.0058,-0.0107,1353,2019-08-07 16:48:20:500
-6.3617,-6.9112,1.1727,-7.0E-4,-0.4031,-0.0616,0.0102,0.0058,-0.0107,1357,2019-08-07 16:48:20:504
-6.3617,-6.9112,1.1727,-7.0E-4,-0.4031,-0.0616,-0.0015,-0.0379,-0.0085,1363,2019-08-07 16:48:20:510
-6.3617,-6.9112,1.1727,-0.1769,-0.3174,-0.0438,-0.0015,-0.0379,-0.0085,1368,2019-08-07 16:48:20:515
-6.2612,-7.0019,1.0879,-0.1769,-0.3174,-0.0438,-0.0037,-0.0517,-0.0085,1373,2019-08-07 16:48:20:520
-6.2612,-7.0019,1.0879,-0.1769,-0.3174,-0.0438,-0.0037,-0.0517,-0.0085,1378,2019-08-07 16:48:20:525
-6.1846,-7.0449,1.0643,-0.1769,-0.3174,-0.0438,-0.0037,-0.0528,-0.0096,1383,2019-08-07 16:48:20:530
-6.1846,-7.0449,1.0643,-0.2127,-0.1993,0.0894,-0.0037,-0.0528,-0.0096,1388,2019-08-07 16:48:20:535
-6.1846,-7.0449,1.0643,-0.2127,-0.1993,0.0894,-0.0037,-0.0528,-0.0096,1393,2019-08-07 16:48:20:540
-6.1511,-7.0449,1.0125,-0.2127,-0.1993,0.0894,0.0038,-0.0389,-0.0107,1399,2019-08-07 16:48:20:546
-6.1511,-7.0449,1.0125,-0.3107,-0.2581,0.1079,0.0038,-0.0144,-0.0085,1403,2019-08-07 16:48:20:550
-6.1511,-7.0449,1.0125,-0.3107,-0.2581,0.1079,0.0038,-0.0144,-0.0085,1408,2019-08-07 16:48:20:555
-6.1176,-6.9828,0.9936,-0.3107,-0.2581,0.1079,0.0038,-0.0144,-0.0085,1413,2019-08-07 16:48:20:560
-6.1176,-6.9828,0.9936,-0.2954,-0.2732,0.1835,0.0027,0.0122,-0.0128,1418,2019-08-07 16:48:20:565
-6.1176,-6.9828,0.9936,-0.2954,-0.2732,0.1835,0.0027,0.0122,-0.0128,1423,2019-08-07 16:48:20:570
-6.2085,-6.9589,1.003,-0.242,-0.341,0.1534,-5.0E-4,0.0335,-0.016,1428,2019-08-07 16:48:20:575
-6.2085,-6.9589,1.003,-0.242,-0.341,0.1534,-5.0E-4,0.0335,-0.016,1433,2019-08-07 16:48:20:580
-6.2085,-6.9589,1.003,-0.242,-0.341,0.1534,-5.0E-4,0.0335,-0.016,1438,2019-08-07 16:48:20:585
-6.3042,-6.916,1.1256,-0.242,-0.341,0.1534,-0.0015,0.041,-0.0117,1443,2019-08-07 16:48:20:590
-6.3042,-6.916,1.1256,-0.1651,-0.3709,0.0442,-0.0015,0.041,-0.0117,1448,2019-08-07 16:48:20:595
-6.2706,-6.8539,1.102,-0.1651,-0.3709,0.0442,0.007,0.0388,-0.0107,1453,2019-08-07 16:48:20:600
-6.2706,-6.8539,1.102,-0.1651,-0.3709,0.0442,0.007,0.0388,-0.0107,1458,2019-08-07 16:48:20:605
-6.2706,-6.8539,1.102,-0.1651,-0.3709,0.0442,0.0059,0.0079,-0.0064,1463,2019-08-07 16:48:20:610
-6.328,-6.8873,1.168,-0.1223,-0.414,-0.0188,0.0059,0.0079,-0.0064,1468,2019-08-07 16:48:20:615
-6.328,-6.8873,1.168,-0.1223,-0.414,-0.0188,0.0038,-0.0262,0.0032,1473,2019-08-07 16:48:20:620
-6.328,-6.8873,1.168,-0.1223,-0.414,-0.0188,0.0038,-0.0262,0.0032,1478,2019-08-07 16:48:20:625
-6.2371,-6.9208,1.1115,-0.1223,-0.414,-0.0188,0.0016,-0.0421,0.0032,1484,2019-08-07 16:48:20:631
-6.2371,-6.9208,1.1115,-0.242,-0.3129,0.0844,0.0016,-0.0421,0.0032,1487,2019-08-07 16:48:20:634
-6.1893,-6.9733,1.0643,-0.242,-0.3129,0.0844,0.0016,-0.0421,0.0032,1493,2019-08-07 16:48:20:640
-6.1893,-6.9733,1.0643,-0.242,-0.3129,0.0844,0.0091,-0.0464,0.0074,1498,2019-08-07 16:48:20:645
-6.1127,-7.021,1.0785,-0.242,-0.3129,0.0844,0.0091,-0.0464,0.0074,1503,2019-08-07 16:48:20:650
-6.1127,-7.021,1.0785,-0.3375,-0.3073,0.1528,0.0187,-0.0347,0.0096,1507,2019-08-07 16:48:20:654
-6.1127,-7.021,1.0785,-0.3375,-0.3073,0.1528,0.0187,-0.0347,0.0096,1513,2019-08-07 16:48:20:660
-6.0935,-7.021,1.0408,-0.3567,-0.2781,0.1224,0.0144,-0.0123,0.0074,1518,2019-08-07 16:48:20:665
-6.0935,-7.021,1.0408,-0.3567,-0.2781,0.1224,0.0144,-0.0123,0.0074,1523,2019-08-07 16:48:20:670
-6.0935,-7.021,1.0408,-0.3567,-0.2781,0.1224,0.0134,0.0079,0.0096,1528,2019-08-07 16:48:20:675
-6.1557,-7.0162,1.0502,-0.3567,-0.2781,0.1224,0.0134,0.0079,0.0096,1534,2019-08-07 16:48:20:681
-6.1557,-7.0162,1.0502,-0.3054,-0.2674,0.0806,0.0048,0.026,0.0117,1537,2019-08-07 16:48:20:684
-6.1557,-7.0162,1.0502,-0.3054,-0.2674,0.0806,0.0048,0.026,0.0117,1543,2019-08-07 16:48:20:690
-6.2036,-7.0067,1.0643,-0.3054,-0.2674,0.0806,0.0048,0.026,0.0117,1548,2019-08-07 16:48:20:695
-6.2036,-7.0067,1.0643,-0.2443,-0.2666,0.0039,0.0091,0.026,0.0106,1553,2019-08-07 16:48:20:700
-6.2705,-7.0401,1.1445,-0.2443,-0.2666,0.0039,0.0091,0.026,0.0106,1557,2019-08-07 16:48:20:704
-6.2705,-7.0401,1.1445,-0.2443,-0.2666,0.0039,0.0091,0.0207,0.0106,1563,2019-08-07 16:48:20:710
-6.2705,-7.0401,1.1445,-0.1463,-0.3076,0.0307,0.0091,0.0207,0.0106,1568,2019-08-07 16:48:20:715
-6.2848,-7.0162,1.1963,-0.1463,-0.3076,0.0307,0.0048,0.009,0.0085,1572,2019-08-07 16:48:20:719
-6.2848,-7.0162,1.1963,-0.1463,-0.3076,0.0307,0.0048,0.009,0.0085,1578,2019-08-07 16:48:20:725
-6.414,-6.9208,1.1822,-0.1285,-0.3113,0.0305,0.0038,-0.007,0.0117,1583,2019-08-07 16:48:20:730
-6.414,-6.9208,1.1822,-0.1285,-0.3113,0.0305,0.0038,-0.007,0.0117,1588,2019-08-07 16:48:20:735
-6.414,-6.9208,1.1822,-0.1285,-0.3113,0.0305,0.0038,-0.007,0.0117,1593,2019-08-07 16:48:20:740
-6.3614,-6.9876,1.2812,-0.1285,-0.3113,0.0305,0.0038,-0.0272,0.017,1597,2019-08-07 16:48:20:744
-6.3614,-6.9876,1.2812,-0.1407,-0.3179,-0.1502,0.0038,-0.0272,0.017,1603,2019-08-07 16:48:20:750
-6.3614,-6.9876,1.2812,-0.1407,-0.3179,-0.1502,0.0091,-0.0411,0.0138,1608,2019-08-07 16:48:20:755
-6.2896,-6.9972,1.2105,-0.1407,-0.3179,-0.1502,0.0091,-0.0411,0.0138,1613,2019-08-07 16:48:20:760
-6.2896,-6.9972,1.2105,-0.1407,-0.3179,-0.1502,0.0166,-0.0411,0.017,1619,2019-08-07 16:48:20:766
-6.323,-6.9828,1.2812,-0.1473,-0.2673,-0.0996,0.0166,-0.0411,0.017,1623,2019-08-07 16:48:20:770
-6.323,-6.9828,1.2812,-0.1473,-0.2673,-0.0996,0.023,-0.0336,0.0192,1628,2019-08-07 16:48:20:775
-6.323,-6.9828,1.2812,-0.1473,-0.2673,-0.0996,0.023,-0.0336,0.0192,1633,2019-08-07 16:48:20:780
-6.4235,-6.9781,1.4368,-0.0401,-0.3062,-0.2549,0.0336,-0.0357,0.0277,1637,2019-08-07 16:48:20:784
-6.4235,-6.9781,1.4368,-0.0401,-0.3062,-0.2549,0.0336,-0.0357,0.0277,1643,2019-08-07 16:48:20:790
-6.4235,-6.9781,1.4368,-0.0401,-0.3062,-0.2549,0.0336,-0.0357,0.0277,1648,2019-08-07 16:48:20:795
-6.5574,-6.9208,1.5499,0.0913,-0.3601,-0.3611,0.0411,-0.0592,0.0362,1653,2019-08-07 16:48:20:800
-6.5574,-6.9208,1.5499,0.0913,-0.3601,-0.3611,0.0411,-0.0592,0.0362,1658,2019-08-07 16:48:20:805
-6.5574,-6.9208,1.5499,0.0913,-0.3601,-0.3611,0.0421,-0.105,0.0501,1663,2019-08-07 16:48:20:810
-6.6962,-6.9494,1.795,0.0913,-0.3601,-0.3611,0.0421,-0.105,0.0501,1667,2019-08-07 16:48:20:814
-6.6962,-6.9494,1.795,0.305,-0.2598,-0.7519,0.04,-0.1753,0.065,1673,2019-08-07 16:48:20:820
-6.9354,-7.0879,2.2758,0.305,-0.2598,-0.7519,0.04,-0.1753,0.065,1678,2019-08-07 16:48:20:825
-6.9354,-7.0879,2.2758,0.305,-0.2598,-0.7519,0.0411,-0.2467,0.0831,1683,2019-08-07 16:48:20:830
-6.9354,-7.0879,2.2758,0.305,-0.2598,-0.7519,0.0411,-0.2467,0.0831,1688,2019-08-07 16:48:20:835
-7.4185,-7.2836,2.9405,0.938,0.0269,-1.6839,0.0411,-0.2467,0.0831,1693,2019-08-07 16:48:20:840
-7.4185,-7.2836,2.9405,0.938,0.0269,-1.6839,0.0794,-0.3543,0.1108,1698,2019-08-07 16:48:20:845
-8.2462,-7.4507,4.2274,0.938,0.0269,-1.6839,0.0794,-0.3543,0.1108,1703,2019-08-07 16:48:20:850
-8.2462,-7.4507,4.2274,0.938,0.0269,-1.6839,0.1838,-0.5279,0.164,1707,2019-08-07 16:48:20:854
-8.2462,-7.4507,4.2274,2.3325,0.335,-3.8689,0.1838,-0.5279,0.164,1713,2019-08-07 16:48:20:860
-9.2126,-7.5414,5.8018,2.3325,0.335,-3.8689,0.2701,-0.7346,0.2035,1718,2019-08-07 16:48:20:865
-9.2126,-7.5414,5.8018,2.3325,0.335,-3.8689,0.2701,-0.7346,0.2035,1723,2019-08-07 16:48:20:870
-9.7389,-7.4459,6.4664,2.3325,0.335,-3.8689,0.2957,-0.8688,0.2067,1728,2019-08-07 16:48:20:875
-9.7389,-7.4459,6.4664,3.539,0.1264,-5.4591,0.2957,-0.8688,0.2067,1733,2019-08-07 16:48:20:880
-9.7389,-7.4459,6.4664,3.539,0.1264,-5.4591,0.2957,-0.8688,0.2067,1738,2019-08-07 16:48:20:885
-10.9205,-6.7537,7.8711,3.539,0.1264,-5.4591,0.2499,-1.0903,0.1672,1743,2019-08-07 16:48:20:890
-10.9205,-6.7537,7.8711,3.539,0.1264,-5.4591,0.2499,-1.0903,0.1672,1749,2019-08-07 16:48:20:896
-12.2888,-6.114,8.9977,5.4852,-0.9476,-7.0321,0.171,-1.2981,0.1971,1753,2019-08-07 16:48:20:900
-12.2888,-6.114,8.9977,5.4852,-0.9476,-7.0321,0.171,-1.2981,0.1971,1758,2019-08-07 16:48:20:905
-12.2888,-6.114,8.9977,5.4852,-0.9476,-7.0321,0.106,-1.6134,0.2567,1762,2019-08-07 16:48:20:909
-13.4466,-5.8896,10.9493,5.4852,-0.9476,-7.0321,0.106,-1.6134,0.2567,1768,2019-08-07 16:48:20:915
-13.4466,-5.8896,10.9493,7.5804,-1.1791,-9.7085,0.121,-2.0246,0.3377,1773,2019-08-07 16:48:20:920
-14.6339,-6.0041,12.4151,7.5804,-1.1791,-9.7085,0.121,-2.0246,0.3377,1777,2019-08-07 16:48:20:924
-14.6339,-6.0041,12.4151,7.5804,-1.1791,-9.7085,0.2286,-2.505,0.4495,1783,2019-08-07 16:48:20:930
-14.6339,-6.0041,12.4151,7.5804,-1.1791,-9.7085,0.2286,-2.505,0.4495,1787,2019-08-07 16:48:20:934
-14.6339,-6.0041,12.4151,7.5804,-1.1791,-9.7085,0.2286,-2.505,0.4495,1793,2019-08-07 16:48:20:940
-16.5332,-6.3479,15.0831,10.0664,-0.6386,-12.7156,0.4288,-3.1271,0.6029,1798,2019-08-07 16:48:20:945
-16.5332,-6.3479,15.0831,10.0664,-0.6386,-12.7156,0.4288,-3.1271,0.6029,1803,2019-08-07 16:48:20:950
-17.9541,-5.4933,16.2003,10.0664,-0.6386,-12.7156,0.6781,-4.1178,0.8107,1808,2019-08-07 16:48:20:955
-17.9541,-5.4933,16.2003,12.078,-1.9694,-13.2092,0.6781,-4.1178,0.8107,1813,2019-08-07 16:48:20:960
-19.3655,-3.6984,16.2097,12.078,-1.9694,-13.2092,0.481,-4.8923,0.8224,1818,2019-08-07 16:48:20:965
-19.3655,-3.6984,16.2097,12.078,-1.9694,-13.2092,0.481,-4.8923,0.8224,1823,2019-08-07 16:48:20:970
-19.3655,-3.6984,16.2097,12.078,-1.9694,-13.2092,0.089,-5.5559,0.7542,1828,2019-08-07 16:48:20:975
-20.973,-1.7793,15.2481,14.7957,-4.8902,-11.5609,0.089,-5.5559,0.7542,1833,2019-08-07 16:48:20:980
-20.973,-1.7793,15.2481,14.7957,-4.8902,-11.5609,0.089,-5.5559,0.7542,1838,2019-08-07 16:48:20:985
-20.973,-1.7793,15.2481,14.7957,-4.8902,-11.5609,-0.4894,-6.2643,0.6626,1843,2019-08-07 16:48:20:990
-21.7958,-1.0728,13.339,14.7957,-4.8902,-11.5609,-0.4894,-6.2643,0.6626,1848,2019-08-07 16:48:20:995
-21.7958,-1.0728,13.339,15.6392,-5.466,-8.0069,-1.0679,-6.9035,0.6242,1853,2019-08-07 16:48:21:000
-20.8773,-1.2351,11.7835,15.6392,-5.466,-8.0069,-1.0679,-6.9035,0.6242,1859,2019-08-07 16:48:21:006
-20.8773,-1.2351,11.7835,15.6392,-5.466,-8.0069,-1.0679,-6.9035,0.6242,1863,2019-08-07 16:48:21:010
-20.8773,-1.2351,11.7835,15.6392,-5.466,-8.0069,-1.5132,-7.2284,0.6487,1868,2019-08-07 16:48:21:015
-19.6764,-1.808,10.8313,14.3086,-4.7295,-5.6685,-1.9563,-7.3637,0.6956,1874,2019-08-07 16:48:21:021
-19.6764,-1.808,10.8313,14.3086,-4.7295,-5.6685,-1.9563,-7.3637,0.6956,1878,2019-08-07 16:48:21:025
-19.418,-1.8223,9.9168,14.5071,-4.8392,-4.6496,-1.9563,-7.3637,0.6956,1883,2019-08-07 16:48:21:030
-19.418,-1.8223,9.9168,14.5071,-4.8392,-4.6496,-2.4026,-7.4574,0.751,1888,2019-08-07 16:48:21:035
-19.418,-1.8223,9.9168,14.5071,-4.8392,-4.6496,-2.4026,-7.4574,0.751,1893,2019-08-07 16:48:21:040
-19.5137,-1.259,8.0973,14.9348,-5.4831,-2.6371,-2.7041,-7.5139,0.8075,1898,2019-08-07 16:48:21:045
-19.5137,-1.259,8.0973,14.9348,-5.4831,-2.6371,-2.7041,-7.5139,0.8075,1903,2019-08-07 16:48:21:050
-18.2985,-0.8389,3.0346,14.9348,-5.4831,-2.6371,-3.1398,-7.5895,0.9406,1908,2019-08-07 16:48:21:055
-18.2985,-0.8389,3.0346,13.6179,-5.9864,4.4249,-3.1398,-7.5895,0.9406,1913,2019-08-07 16:48:21:060
-18.2985,-0.8389,3.0346,13.6179,-5.9864,4.4249,-3.3241,-7.402,1.0546,1918,2019-08-07 16:48:21:065
-16.9111,-1.3115,-0.6186,13.6179,-5.9864,4.4249,-3.3241,-7.402,1.0546,1923,2019-08-07 16:48:21:070
-16.9111,-1.3115,-0.6186,13.6179,-5.9864,4.4249,-3.3262,-7.0441,1.159,1928,2019-08-07 16:48:21:075
-17.8823,-1.7507,-2.3155,15.1888,-5.4912,7.8341,-3.3262,-7.0441,1.159,1933,2019-08-07 16:48:21:080
-17.8823,-1.7507,-2.3155,15.1888,-5.4912,7.8341,-3.1814,-6.6574,1.3486,1938,2019-08-07 16:48:21:085
-17.8823,-1.7507,-2.3155,15.1888,-5.4912,7.8341,-3.1814,-6.6574,1.3486,1944,2019-08-07 16:48:21:091
-21.6857,-1.6409,-0.1566,18.6317,-5.7595,5.8261,-3.012,-6.8577,1.5627,1948,2019-08-07 16:48:21:095
-21.6857,-1.6409,-0.1566,18.6317,-5.7595,5.8261,-3.012,-6.8577,1.5627,1953,2019-08-07 16:48:21:100
-26.5082,-0.8866,-3.3149,18.6317,-5.7595,5.8261,-3.012,-6.8577,1.5627,1958,2019-08-07 16:48:21:105
-26.5082,-0.8866,-3.3149,24.4009,-6.9908,11.4149,-2.9651,-7.336,1.6874,1962,2019-08-07 16:48:21:109
-26.5082,-0.8866,-3.3149,24.4009,-6.9908,11.4149,-2.9651,-7.336,1.6874,1968,2019-08-07 16:48:21:115
-25.2021,-0.6145,-9.0563,24.4009,-6.9908,11.4149,-3.1718,-7.8835,1.6959,1973,2019-08-07 16:48:21:120
-25.2021,-0.6145,-9.0563,24.4009,-6.9908,11.4149,-3.1718,-7.8835,1.6959,1978,2019-08-07 16:48:21:125
-18.9634,-1.7364,-11.5923,16.9692,-6.1858,17.0235,-3.4892,-9.4825,1.7183,1983,2019-08-07 16:48:21:130
-18.9634,-1.7364,-11.5923,16.9692,-6.1858,17.0235,-3.4892,-9.4825,1.7183,1988,2019-08-07 16:48:21:135
-18.9634,-1.7364,-11.5923,16.9692,-6.1858,17.0235,-3.4892,-9.4825,1.7183,1993,2019-08-07 16:48:21:140
-15.1935,-2.8152,-12.3748,13.6238,-5.2814,17.6867,-3.7278,-12.6431,1.8546,1999,2019-08-07 16:48:21:146
-15.1935,-2.8152,-12.3748,13.6238,-5.2814,17.6867,-3.7278,-12.6431,1.8546,2004,2019-08-07 16:48:21:151
-15.1935,-2.8152,-12.3748,13.6238,-5.2814,17.6867,-3.3784,-14.4274,1.959,2007,2019-08-07 16:48:21:154
-8.5338,-4.6293,-10.8381,5.1355,-3.7946,13.0431,-3.3784,-14.4274,1.959,2013,2019-08-07 16:48:21:160
-8.5338,-4.6293,-10.8381,5.1355,-3.7946,13.0431,-2.6445,-13.9523,1.8802,2019,2019-08-07 16:48:21:166
-4.7399,-3.9419,-16.1505,5.1355,-3.7946,13.0431,-2.6445,-13.9523,1.8802,2023,2019-08-07 16:48:21:170
-4.7399,-3.9419,-16.1505,5.1355,-3.7946,13.0431,-1.4705,-9.1395,1.9089,2028,2019-08-07 16:48:21:175
-0.3527,-4.0421,-22.3115,1.0359,-4.8139,28.6732,-1.4705,-9.1395,1.9089,2033,2019-08-07 16:48:21:180
-0.3527,-4.0421,-22.3115,1.0359,-4.8139,28.6732,-1.4705,-9.1395,1.9089,2037,2019-08-07 16:48:21:184
-0.3527,-4.0421,-22.3115,1.0359,-4.8139,28.6732,-1.7901,-5.1959,2.0751,2043,2019-08-07 16:48:21:190
-1.9937,-4.6484,-25.7149,2.2788,-4.114,30.1165,-2.4879,-1.7647,1.9228,2048,2019-08-07 16:48:21:195
-1.9937,-4.6484,-25.7149,2.2788,-4.114,30.1165,-2.4879,-1.7647,1.9228,2054,2019-08-07 16:48:21:201
-1.9937,-4.6484,-25.7149,2.2788,-4.114,30.1165,-2.4879,-1.7647,1.9228,2057,2019-08-07 16:48:21:204
-4.2183,-8.3386,-8.2879,2.2788,-4.114,30.1165,-3.0908,0.2988,1.4061,2063,2019-08-07 16:48:21:210
-4.2183,-8.3386,-8.2879,3.4762,-1.7117,2.8649,-3.0908,0.2988,1.4061,2069,2019-08-07 16:48:21:216
-4.2183,-8.3386,-8.2879,3.4762,-1.7117,2.8649,-3.0397,-1.4611,0.6136,2073,2019-08-07 16:48:21:220
-8.4524,-7.5843,-13.5391,3.4762,-1.7117,2.8649,-3.0397,-1.4611,0.6136,2077,2019-08-07 16:48:21:224
-8.4524,-7.5843,-13.5391,3.5653,-1.1716,14.6929,-2.5688,-1.8893,0.3164,2083,2019-08-07 16:48:21:230
-3.228,-8.2001,-11.2717,3.5653,-1.1716,14.6929,-2.5688,-1.8893,0.3164,2088,2019-08-07 16:48:21:235
-3.228,-8.2001,-11.2717,3.5653,-1.1716,14.6929,-2.5688,-1.8893,0.3164,2093,2019-08-07 16:48:21:240
-3.228,-8.2001,-11.2717,3.5653,-1.1716,14.6929,-1.7773,-3.7109,0.065,2099,2019-08-07 16:48:21:246
-0.8119,-9.9808,-11.4273,3.5653,-1.1716,14.6929,-1.7773,-3.7109,0.065,2103,2019-08-07 16:48:21:250
-0.8119,-9.9808,-11.4273,0.7319,1.301,14.7039,-0.3467,-6.1077,-0.2461,2108,2019-08-07 16:48:21:255
0.4128,-11.432,-12.2569,0.7319,1.301,14.7039,-0.3467,-6.1077,-0.2461,2113,2019-08-07 16:48:21:260
0.4128,-11.432,-12.2569,0.7319,1.301,14.7039,0.5886,-5.7775,-0.4197,2118,2019-08-07 16:48:21:265
0.4128,-11.432,-12.2569,0.7319,1.301,14.7039,0.5886,-5.7775,-0.4197,2122,2019-08-07 16:48:21:269
2.604,-12.1624,-12.5727,-1.9648,2.7793,15.363,0.5886,-5.7775,-0.4197,2128,2019-08-07 16:48:21:275
2.604,-12.1624,-12.5727,-1.9648,2.7793,15.363,1.9223,-0.8752,-0.4858,2133,2019-08-07 16:48:21:280
7.8045,-11.0692,-18.0926,-1.9648,2.7793,15.363,1.9223,-0.8752,-0.4858,2137,2019-08-07 16:48:21:284
7.8045,-11.0692,-18.0926,-1.9648,2.7793,15.363,1.5292,0.2327,-0.4069,2143,2019-08-07 16:48:21:290
7.8045,-11.0692,-18.0926,-4.9435,0.7382,20.6181,1.5292,0.2327,-0.4069,2148,2019-08-07 16:48:21:295
5.6516,-9.7039,-15.4104,-4.9435,0.7382,20.6181,0.7772,2.2066,-0.359,2153,2019-08-07 16:48:21:300
5.6516,-9.7039,-15.4104,-4.9435,0.7382,20.6181,0.7772,2.2066,-0.359,2158,2019-08-07 16:48:21:305
5.6516,-9.7039,-15.4104,-4.9435,0.7382,20.6181,0.2019,2.5592,-0.3302,2162,2019-08-07 16:48:21:309
3.3121,-7.8612,2.2569,-1.5827,-1.554,-2.0619,0.2019,2.5592,-0.3302,2168,2019-08-07 16:48:21:315
3.3121,-7.8612,2.2569,-1.5827,-1.554,-2.0619,0.5513,1.2223,-0.0245,2173,2019-08-07 16:48:21:320
0.5373,-7.3027,-5.0966,-1.5827,-1.554,-2.0619,0.5513,1.2223,-0.0245,2178,2019-08-07 16:48:21:325
0.5373,-7.3027,-5.0966,-1.5827,-1.554,-2.0619,1.2406,1.5771,0.0895,2183,2019-08-07 16:48:21:330
0.5373,-7.3027,-5.0966,-2.498,-1.7877,9.0406,1.2406,1.5771,0.0895,2188,2019-08-07 16:48:21:335
3.7906,-7.0115,-6.3552,-2.498,-1.7877,9.0406,1.2406,1.5771,0.0895,2193,2019-08-07 16:48:21:340
3.7906,-7.0115,-6.3552,-2.498,-1.7877,9.0406,1.8595,2.3547,-0.0618,2198,2019-08-07 16:48:21:345
3.36,-5.016,-6.4353,-2.498,-1.7877,9.0406,1.8595,2.3547,-0.0618,2203,2019-08-07 16:48:21:350
3.36,-5.016,-6.4353,-2.4378,-4.4597,11.0249,1.7146,3.1782,0.0,2208,2019-08-07 16:48:21:355
3.36,-5.016,-6.4353,-2.4378,-4.4597,11.0249,1.7146,3.1782,0.0,2213,2019-08-07 16:48:21:360
1.7812,-4.572,-12.271,-1.3943,-4.5349,15.8973,1.085,4.2189,0.1012,2219,2019-08-07 16:48:21:366
1.7812,-4.572,-12.271,-1.3943,-4.5349,15.8973,1.085,4.2189,0.1012,2222,2019-08-07 16:48:21:369
1.7812,-4.572,-12.271,-1.3943,-4.5349,15.8973,0.627,5.9798,-0.0011,2228,2019-08-07 16:48:21:375
-1.5486,-4.9921,-10.1498,-1.3943,-4.5349,15.8973,0.627,5.9798,-0.0011,2233,2019-08-07 16:48:21:380
-1.5486,-4.9921,-10.1498,4.5271,-3.9965,2.641,0.627,5.9798,-0.0011,2238,2019-08-07 16:48:21:385
-7.0648,-5.5077,-3.4656,4.5271,-3.9965,2.641,0.5748,6.4048,0.0,2242,2019-08-07 16:48:21:389
-7.0648,-5.5077,-3.4656,8.854,-2.629,6.9283,0.8304,6.2632,0.179,2248,2019-08-07 16:48:21:395
-7.0648,-5.5077,-3.4656,8.854,-2.629,6.9283,0.8304,6.2632,0.179,2253,2019-08-07 16:48:21:400
-9.0215,-7.7084,-1.6791,8.854,-2.629,6.9283,0.8304,6.2632,0.179,2258,2019-08-07 16:48:21:405
-9.0215,-7.7084,-1.6791,8.854,-2.629,6.9283,1.0073,5.6805,0.0447,2263,2019-08-07 16:48:21:410
-9.72,-7.9805,-1.0239,9.1225,-1.1636,5.0064,1.0073,5.6805,0.0447,2268,2019-08-07 16:48:21:415
-9.72,-7.9805,-1.0239,9.1225,-1.1636,5.0064,0.7644,4.3148,-0.2961,2273,2019-08-07 16:48:21:420
-9.72,-7.9805,-1.0239,9.1225,-1.1636,5.0064,0.7644,4.3148,-0.2961,2277,2019-08-07 16:48:21:424
-9.8205,-7.0878,-1.4104,9.1225,-1.1636,5.0064,0.5353,3.5148,-0.3601,2283,2019-08-07 16:48:21:430
-9.8205,-7.0878,-1.4104,7.3013,-1.6783,5.7892,0.5353,3.5148,-0.3601,2288,2019-08-07 16:48:21:435
-9.8205,-7.0878,-1.4104,7.3013,-1.6783,5.7892,0.5353,3.5148,-0.3601,2292,2019-08-07 16:48:21:439
-6.7729,-7.7848,-2.8246,7.3013,-1.6783,5.7892,0.4437,3.7342,-0.4069,2298,2019-08-07 16:48:21:445
-6.7729,-7.7848,-2.8246,7.3013,-1.6783,5.7892,0.4437,3.7342,-0.4069,2303,2019-08-07 16:48:21:450
-3.9263,-8.8064,-5.9875,2.5165,-0.139,9.7596,0.6525,4.4788,-0.6381,2308,2019-08-07 16:48:21:455
-3.9263,-8.8064,-5.9875,2.5165,-0.139,9.7596,0.6525,4.4788,-0.6381,2313,2019-08-07 16:48:21:460
-3.9263,-8.8064,-5.9875,2.5165,-0.139,9.7596,0.7282,5.8179,-0.7585,2318,2019-08-07 16:48:21:465
-4.1176,-9.2504,-7.034,2.5165,-0.139,9.7596,0.7282,5.8179,-0.7585,2323,2019-08-07 16:48:21:470
-4.1176,-9.2504,-7.034,3.4794,0.4072,10.162,0.8709,7.3252,-0.8117,2327,2019-08-07 16:48:21:474
-6.3614,-9.3411,-5.4549,3.4794,0.4072,10.162,0.8709,7.3252,-0.8117,2333,2019-08-07 16:48:21:480
-6.3614,-9.3411,-5.4549,3.4794,0.4072,10.162,1.2576,8.9476,-0.7585,2338,2019-08-07 16:48:21:485
-6.3614,-9.3411,-5.4549,3.4794,0.4072,10.162,1.2576,8.9476,-0.7585,2343,2019-08-07 16:48:21:490
-9.1411,-9.5416,-2.5889,3.4794,0.4072,10.162,1.2576,8.9476,-0.7585,2348,2019-08-07 16:48:21:495
-9.1411,-9.5416,-2.5889,8.0077,0.7862,4.6344,1.5995,9.6124,-0.6253,2353,2019-08-07 16:48:21:500
-9.1411,-9.5416,-2.5889,8.0077,0.7862,4.6344,1.5995,9.6124,-0.6253,2358,2019-08-07 16:48:21:505
-12.5666,-9.4509,1.2058,8.0077,0.7862,4.6344,1.8094,9.6049,-0.5262,2363,2019-08-07 16:48:21:510
-12.5666,-9.4509,1.2058,11.6358,-0.3109,0.6596,1.8094,9.6049,-0.5262,2368,2019-08-07 16:48:21:515
-12.5666,-9.4509,1.2058,11.6358,-0.3109,0.6596,1.7583,8.6483,-0.4069,2372,2019-08-07 16:48:21:519
-15.2362,-7.9137,3.03,11.6358,-0.3109,0.6596,1.7583,8.6483,-0.4069,2378,2019-08-07 16:48:21:525
-15.2362,-7.9137,3.03,11.6358,-0.3109,0.6596,1.5335,7.3913,-0.2706,2383,2019-08-07 16:48:21:530
-15.7816,-6.8014,4.0718,11.6358,-0.3109,0.6596,1.5335,7.3913,-0.2706,2387,2019-08-07 16:48:21:534
-15.7816,-6.8014,4.0718,12.2479,-2.0801,-1.2018,1.3098,6.1108,-0.0639,2393,2019-08-07 16:48:21:540
-15.7816,-6.8014,4.0718,12.2479,-2.0801,-1.2018,1.3098,6.1108,-0.0639,2398,2019-08-07 16:48:21:545
-14.2889,-6.367,3.8219,12.2479,-2.0801,-1.2018,1.1479,5.4472,0.1683,2402,2019-08-07 16:48:21:549
-14.2889,-6.367,3.8219,12.2479,-2.0801,-1.2018,1.1479,5.4472,0.1683,2408,2019-08-07 16:48:21:555
-11.7149,-6.6964,3.129,7.9192,-1.8856,-0.2693,1.0541,5.2906,0.3004,2413,2019-08-07 16:48:21:560
-11.7149,-6.6964,3.129,7.9192,-1.8856,-0.2693,1.0541,5.2906,0.3004,2418,2019-08-07 16:48:21:565
-11.7149,-6.6964,3.129,7.9192,-1.8856,-0.2693,0.8762,5.6815,0.4282,2423,2019-08-07 16:48:21:570
-9.8538,-7.3265,1.1681,7.9192,-1.8856,-0.2693,0.8762,5.6815,0.4282,2428,2019-08-07 16:48:21:575
-9.8538,-7.3265,1.1681,5.4177,-0.8473,1.86,0.8006,6.4613,0.4772,2433,2019-08-07 16:48:21:580
-9.5811,-8.2718,0.3526,5.4177,-0.8473,1.86,0.8006,6.4613,0.4772,2438,2019-08-07 16:48:21:585
-9.5811,-8.2718,0.3526,5.4177,-0.8473,1.86,0.8006,6.4613,0.4772,2443,2019-08-07 16:48:21:590
-9.5811,-8.2718,0.3526,5.4177,-0.8473,1.86,0.9476,7.3497,0.473,2448,2019-08-07 16:48:21:595
-11.1456,-9.0213,2.6011,6.5,0.6338,-0.5259,0.9476,7.3497,0.473,2453,2019-08-07 16:48:21:600
-11.1456,-9.0213,2.6011,6.5,0.6338,-0.5259,1.5175,8.2669,0.4463,2458,2019-08-07 16:48:21:605
-14.6285,-7.971,5.4152,6.5,0.6338,-0.5259,1.5175,8.2669,0.4463,2462,2019-08-07 16:48:21:609
-14.6285,-7.971,5.4152,6.5,0.6338,-0.5259,1.852,8.2808,0.4474,2469,2019-08-07 16:48:21:616
-14.6285,-7.971,5.4152,11.8085,-1.4574,-5.5049,1.852,8.2808,0.4474,2472,2019-08-07 16:48:21:619
-18.1592,-6.1044,8.3943,11.8085,-1.4574,-5.5049,1.7103,7.0536,0.4314,2478,2019-08-07 16:48:21:625
-18.1592,-6.1044,8.3943,11.8085,-1.4574,-5.5049,1.7103,7.0536,0.4314,2483,2019-08-07 16:48:21:630
-20.6279,-5.1592,9.7802,11.8085,-1.4574,-5.5049,1.7103,7.0536,0.4314,2488,2019-08-07 16:48:21:635
-20.6279,-5.1592,9.7802,16.0564,-3.2017,-9.0916,1.2885,4.8283,0.3824,2493,2019-08-07 16:48:21:640
-20.6279,-5.1592,9.7802,16.0564,-3.2017,-9.0916,1.2885,4.8283,0.3824,2498,2019-08-07 16:48:21:645
-21.269,-5.1067,10.1809,16.0564,-3.2017,-9.0916,0.97,2.8533,0.4495,2503,2019-08-07 16:48:21:650
-21.269,-5.1067,10.1809,16.0564,-3.2017,-9.0916,0.97,2.8533,0.4495,2508,2019-08-07 16:48:21:655
-16.6282,-6.6439,7.9701,11.1055,-1.4036,-6.9833,0.8219,1.3225,0.5092,2513,2019-08-07 16:48:21:660
-16.6282,-6.6439,7.9701,11.1055,-1.4036,-6.9833,0.8219,1.3225,0.5092,2518,2019-08-07 16:48:21:665
-16.6282,-6.6439,7.9701,11.1055,-1.4036,-6.9833,1.0073,1.1446,0.392,2522,2019-08-07 16:48:21:669
-9.8872,-8.2384,3.9492,11.1055,-1.4036,-6.9833,1.0073,1.1446,0.392,2528,2019-08-07 16:48:21:675
-9.8872,-8.2384,3.9492,2.8154,0.4898,-1.3549,1.0073,1.1446,0.392,2533,2019-08-07 16:48:21:680
-9.8872,-8.2384,3.9492,2.8154,0.4898,-1.3549,1.2118,1.9339,0.2897,2538,2019-08-07 16:48:21:685
-6.5478,-8.2861,2.2004,2.8154,0.4898,-1.3549,1.2118,1.9339,0.2897,2542,2019-08-07 16:48:21:689
-6.5478,-8.2861,2.2004,2.8154,0.4898,-1.3549,1.4142,2.8479,0.2951,2548,2019-08-07 16:48:21:695
-6.5478,-8.2861,2.2004,0.8818,-0.3896,-2.9687,1.4142,2.8479,0.2951,2552,2019-08-07 16:48:21:699
-7.1267,-7.212,4.4442,0.8818,-0.3896,-2.9687,1.9106,4.2573,0.3632,2558,2019-08-07 16:48:21:705
-7.1267,-7.212,4.4442,0.8818,-0.3896,-2.9687,1.9106,4.2573,0.3632,2563,2019-08-07 16:48:21:710
-11.6669,-5.0781,7.5035,0.8818,-0.3896,-2.9687,2.0203,4.367,0.5337,2568,2019-08-07 16:48:21:715
-11.6669,-5.0781,7.5035,7.6751,-3.4333,-7.5648,2.0203,4.367,0.5337,2573,2019-08-07 16:48:21:720
-11.6669,-5.0781,7.5035,7.6751,-3.4333,-7.5648,1.6901,3.2581,0.669,2578,2019-08-07 16:48:21:725
-15.6187,-3.751,9.8556,7.6751,-3.4333,-7.5648,1.6901,3.2581,0.669,2583,2019-08-07 16:48:21:730
-15.6187,-3.751,9.8556,7.6751,-3.4333,-7.5648,1.6901,3.2581,0.669,2587,2019-08-07 16:48:21:734
-15.6187,-3.751,9.8556,7.6751,-3.4333,-7.5648,1.3801,1.4972,0.6935,2593,2019-08-07 16:48:21:740
-16.3172,-3.9849,11.2227,10.2371,-3.6776,-10.4774,1.3801,1.4972,0.6935,2598,2019-08-07 16:48:21:745
-16.3172,-3.9849,11.2227,10.2371,-3.6776,-10.4774,1.2139,0.0964,0.6775,2604,2019-08-07 16:48:21:751
-12.6668,-5.8037,8.5641,10.2371,-3.6776,-10.4774,1.2139,0.0964,0.6775,2608,2019-08-07 16:48:21:755
-12.6668,-5.8037,8.5641,4.4363,-0.9077,-6.1871,0.9998,-1.525,0.6232,2613,2019-08-07 16:48:21:760
-12.6668,-5.8037,8.5641,4.4363,-0.9077,-6.1871,0.9998,-1.525,0.6232,2618,2019-08-07 16:48:21:765
-7.6768,-7.5318,5.7264,4.4363,-0.9077,-6.1871,0.8986,-1.803,0.4059,2623,2019-08-07 16:48:21:770
-7.6768,-7.5318,5.7264,4.4363,-0.9077,-6.1871,0.8986,-1.803,0.4059,2627,2019-08-07 16:48:21:774
-4.2417,-8.1715,2.455,-1.978,0.7128,-1.0701,0.8379,-1.2224,0.2237,2634,2019-08-07 16:48:21:781
-4.2417,-8.1715,2.455,-1.978,0.7128,-1.0701,0.8379,-1.2224,0.2237,2637,2019-08-07 16:48:21:784
-4.2417,-8.1715,2.455,-1.978,0.7128,-1.0701,0.8379,-1.2224,0.2237,2643,2019-08-07 16:48:21:790
-2.7347,-8.3577,1.5358,-1.978,0.7128,-1.0701,0.8176,-0.1199,0.0852,2648,2019-08-07 16:48:21:795
-2.7347,-8.3577,1.5358,-3.029,0.7346,-0.2376,0.8176,-0.1199,0.0852,2654,2019-08-07 16:48:21:801
-2.7347,-8.3577,1.5358,-3.029,0.7346,-0.2376,0.8869,1.6964,-0.0714,2657,2019-08-07 16:48:21:804
-4.8541,-7.4936,2.2476,-3.029,0.7346,-0.2376,0.8869,1.6964,-0.0714,2662,2019-08-07 16:48:21:809
-4.8541,-7.4936,2.2476,-3.029,0.7346,-0.2376,0.8357,2.3174,-0.1108,2668,2019-08-07 16:48:21:815
-8.3657,-6.0806,3.6334,2.1134,-1.3398,-2.1902,0.8357,2.3174,-0.1108,2673,2019-08-07 16:48:21:820
-8.3657,-6.0806,3.6334,2.1134,-1.3398,-2.1902,0.6333,2.1044,-0.0991,2678,2019-08-07 16:48:21:825
-8.3657,-6.0806,3.6334,2.1134,-1.3398,-2.1902,0.6333,2.1044,-0.0991,2683,2019-08-07 16:48:21:830
-10.4086,-5.3693,4.1991,2.1134,-1.3398,-2.1902,0.3873,1.3821,-0.0906,2688,2019-08-07 16:48:21:835
-10.4086,-5.3693,4.1991,2.1134,-1.3398,-2.1902,0.3873,1.3821,-0.0906,2692,2019-08-07 16:48:21:839
-10.2746,-5.713,4.2745,4.2354,-1.9625,-3.1437,0.2136,0.3989,-0.0927,2698,2019-08-07 16:48:21:845
-10.2746,-5.713,4.2745,4.2354,-1.9625,-3.1437,0.2136,0.3989,-0.0927,2703,2019-08-07 16:48:21:850
-10.2746,-5.713,4.2745,4.2354,-1.9625,-3.1437,0.2136,0.3989,-0.0927,2708,2019-08-07 16:48:21:855
-8.5188,-6.6344,2.785,1.7295,-0.6081,-1.1124,0.023,-0.6504,-0.0735,2712,2019-08-07 16:48:21:859
-8.5188,-6.6344,2.785,1.7295,-0.6081,-1.1124,0.023,-0.6504,-0.0735,2718,2019-08-07 16:48:21:865
-6.0645,-7.3075,1.4934,1.7295,-0.6081,-1.1124,-0.0868,-1.003,-0.0703,2723,2019-08-07 16:48:21:870
-6.0645,-7.3075,1.4934,1.7295,-0.6081,-1.1124,-0.0868,-1.003,-0.0703,2728,2019-08-07 16:48:21:875
-6.0645,-7.3075,1.4934,-1.4803,0.0286,0.8299,-0.09,-0.9519,-0.0959,2734,2019-08-07 16:48:21:881
-4.5957,-7.4555,0.4516,-1.4803,0.0286,0.8299,-0.09,-0.9519,-0.0959,2738,2019-08-07 16:48:21:885
-4.5957,-7.4555,0.4516,-1.4803,0.0286,0.8299,-0.09,-0.9519,-0.0959,2742,2019-08-07 16:48:21:889
-4.1029,-7.3839,0.2961,-1.4803,0.0286,0.8299,-0.0388,-0.5204,-0.1236,2748,2019-08-07 16:48:21:895
-4.1029,-7.3839,0.2961,-1.4803,0.0286,0.8299,-0.0388,-0.5204,-0.1236,2752,2019-08-07 16:48:21:899
-4.1029,-7.3839,0.2961,-2.0722,-0.1698,1.1723,0.0517,0.0964,-0.1481,2758,2019-08-07 16:48:21:905
-4.3421,-7.1261,0.4328,-2.0722,-0.1698,1.1723,0.0517,0.0964,-0.1481,2762,2019-08-07 16:48:21:909
-4.3421,-7.1261,0.4328,-2.0722,-0.1698,1.1723,0.1007,0.5001,-0.1673,2768,2019-08-07 16:48:21:915
-4.3421,-7.1261,0.4328,-2.0722,-0.1698,1.1723,0.1007,0.5001,-0.1673,2773,2019-08-07 16:48:21:920
-5.8348,-6.4291,1.319,-0.3757,-1.0218,0.1476,0.1082,0.6567,-0.1555,2778,2019-08-07 16:48:21:925
-5.8348,-6.4291,1.319,-0.3757,-1.0218,0.1476,0.1082,0.6567,-0.1555,2784,2019-08-07 16:48:21:931
-6.6385,-6.0281,1.8092,-0.3757,-1.0218,0.1476,0.1082,0.6567,-0.1555,2787,2019-08-07 16:48:21:934
-6.6385,-6.0281,1.8092,-0.3757,-1.0218,0.1476,0.073,0.5406,-0.1246,2793,2019-08-07 16:48:21:940
-6.6385,-6.0281,1.8092,0.6597,-1.4265,-0.4715,0.073,0.5406,-0.1246,2798,2019-08-07 16:48:21:945
-6.9309,-6.1569,1.8987,0.6597,-1.4265,-0.4715,0.0166,0.3254,-0.098,2803,2019-08-07 16:48:21:950
-6.9309,-6.1569,1.8987,0.6597,-1.4265,-0.4715,0.0166,0.3254,-0.098,2808,2019-08-07 16:48:21:955
-6.6965,-6.577,1.8751,0.6597,-1.4265,-0.4715,-0.0367,0.1027,-0.0639,2813,2019-08-07 16:48:21:960
-6.6965,-6.577,1.8751,0.3957,-0.7958,-0.3611,-0.0367,0.1027,-0.0639,2818,2019-08-07 16:48:21:965
-6.6965,-6.577,1.8751,0.3957,-0.7958,-0.3611,-0.0697,-0.1114,-0.0181,2822,2019-08-07 16:48:21:969
-6.2085,-7.0067,1.498,0.3957,-0.7958,-0.3611,-0.0697,-0.1114,-0.0181,2828,2019-08-07 16:48:21:975
-6.2085,-7.0067,1.498,0.3957,-0.7958,-0.3611,-0.0697,-0.1114,-0.0181,2833,2019-08-07 16:48:21:980
-5.7683,-7.3552,1.0926,-0.3851,-0.2301,0.2515,-0.075,-0.187,0.017,2838,2019-08-07 16:48:21:985
-5.7683,-7.3552,1.0926,-0.3851,-0.2301,0.2515,-0.075,-0.187,0.017,2842,2019-08-07 16:48:21:989
-5.7683,-7.3552,1.0926,-0.3851,-0.2301,0.2515,-0.0591,-0.1497,0.0202,2848,2019-08-07 16:48:21:995
-5.5339,-7.3408,0.937,-0.3851,-0.2301,0.2515,-0.0591,-0.1497,0.0202,2854,2019-08-07 16:48:22:001
-5.5339,-7.3408,0.937,-0.6592,-0.1982,0.4277,-0.0175,-0.0027,0.0106,2858,2019-08-07 16:48:22:005
-5.5339,-7.3408,0.937,-0.6592,-0.1982,0.4277,-0.0175,-0.0027,0.0106,2863,2019-08-07 16:48:22:010
-5.6774,-7.0831,0.97,-0.5302,-0.3849,0.4193,0.0027,0.1326,-0.0032,2868,2019-08-07 16:48:22:015
-5.6774,-7.0831,0.97,-0.5302,-0.3849,0.4193,0.0027,0.1326,-0.0032,2873,2019-08-07 16:48:22:020
-5.6774,-7.0831,0.97,-0.5302,-0.3849,0.4193,0.0027,0.1326,-0.0032,2878,2019-08-07 16:48:22:025
-5.8448,-6.9303,1.1963,-0.3645,-0.5381,0.1831,0.007,0.2221,-0.0075,2884,2019-08-07 16:48:22:031
-5.8448,-6.9303,1.1963,-0.3645,-0.5381,0.1831,0.007,0.2221,-0.0075,2888,2019-08-07 16:48:22:035
-6.285,-6.8396,1.4037,-0.3645,-0.5381,0.1831,-0.0015,0.287,-0.0245,2892,2019-08-07 16:48:22:039
-6.285,-6.8396,1.4037,0.1169,-0.5194,-0.0943,-0.0015,0.287,-0.0245,2898,2019-08-07 16:48:22:045
-6.4142,-7.0162,1.3896,0.1169,-0.5194,-0.0943,-0.0101,0.2551,-0.032,2903,2019-08-07 16:48:22:050
-6.4142,-7.0162,1.3896,0.1169,-0.5194,-0.0943,-0.0101,0.2551,-0.032,2908,2019-08-07 16:48:22:055
-6.4142,-7.0162,1.3896,0.1169,-0.5194,-0.0943,-0.0207,0.1901,-0.0352,2912,2019-08-07 16:48:22:059
-6.4907,-7.2358,1.432,0.2711,-0.2354,-0.115,-0.0207,0.1901,-0.0352,2918,2019-08-07 16:48:22:065
-6.4907,-7.2358,1.432,0.2711,-0.2354,-0.115,-0.0218,0.1059,-0.0373,2923,2019-08-07 16:48:22:070
-6.4907,-7.2358,1.432,0.2711,-0.2354,-0.115,-0.0218,0.1059,-0.0373,2928,2019-08-07 16:48:22:075
-6.4046,-7.3361,1.5169,0.2711,-0.2354,-0.115,-0.0218,0.1059,-0.0373,2933,2019-08-07 16:48:22:080
-6.4046,-7.3361,1.5169,0.115,-0.1437,-0.1572,-0.0239,0.026,-0.0394,2938,2019-08-07 16:48:22:085
-6.3089,-7.3504,1.3943,0.115,-0.1437,-0.1572,-0.0239,0.026,-0.0394,2943,2019-08-07 16:48:22:090
-6.3089,-7.3504,1.3943,0.115,-0.1437,-0.1572,-0.0346,-0.0293,-0.0426,2948,2019-08-07 16:48:22:095
-6.3089,-7.3504,1.3943,0.115,-0.1437,-0.1572,-0.0346,-0.0293,-0.0426,2953,2019-08-07 16:48:22:100
-6.218,-7.2311,1.432,0.0067,-0.2493,-0.1284,-0.0271,-0.0847,-0.0522,2958,2019-08-07 16:48:22:105
-6.218,-7.2311,1.432,0.0067,-0.2493,-0.1284,-0.0271,-0.0847,-0.0522,2963,2019-08-07 16:48:22:110
-6.218,-7.2311,1.432,0.0067,-0.2493,-0.1284,-0.0271,-0.0847,-0.0522,2967,2019-08-07 16:48:22:114
-6.1797,-7.1165,1.3566,0.0067,-0.2493,-0.1284,-0.0122,-0.1263,-0.0565,2973,2019-08-07 16:48:22:120
-6.1797,-7.1165,1.3566,-0.1219,-0.437,0.0537,-0.0122,-0.1263,-0.0565,2978,2019-08-07 16:48:22:125
-5.974,-6.978,1.3,-0.1219,-0.437,0.0537,-0.0069,-0.1497,-0.0533,2983,2019-08-07 16:48:22:130
-5.974,-6.978,1.3,-0.1219,-0.437,0.0537,-0.0069,-0.1497,-0.0533,2988,2019-08-07 16:48:22:135
-5.974,-6.978,1.3,-0.1219,-0.437,0.0537,0.007,-0.1348,-0.0618,2993,2019-08-07 16:48:22:140
-5.8926,-6.9351,1.3613,-0.3066,-0.6103,0.0345,0.007,-0.1348,-0.0618,2998,2019-08-07 16:48:22:145
-5.8926,-6.9351,1.3613,-0.3066,-0.6103,0.0345,0.0123,-0.1135,-0.0586,3003,2019-08-07 16:48:22:150
-5.8926,-6.9351,1.3613,-0.3066,-0.6103,0.0345,0.0123,-0.1135,-0.0586,3008,2019-08-07 16:48:22:155
-5.7539,-6.9303,1.1445,-0.3066,-0.6103,0.0345,-0.0026,-0.0773,-0.0426,3012,2019-08-07 16:48:22:159
-5.7539,-6.9303,1.1445,-0.5452,-0.4541,0.1983,-0.0026,-0.0773,-0.0426,3019,2019-08-07 16:48:22:166
-5.6151,-7.1594,1.2953,-0.5452,-0.4541,0.1983,-0.0058,-0.0208,-0.0447,3023,2019-08-07 16:48:22:170
-5.6151,-7.1594,1.2953,-0.5452,-0.4541,0.1983,-0.0058,-0.0208,-0.0447,3028,2019-08-07 16:48:22:175
-5.7395,-7.2836,1.168,-0.5452,-0.4541,0.1983,-0.0015,0.0335,-0.0426,3034,2019-08-07 16:48:22:181
-5.7395,-7.2836,1.168,-0.5452,-0.4541,0.1983,-0.0015,0.0335,-0.0426,3038,2019-08-07 16:48:22:185
-5.7395,-7.2836,1.168,-0.4224,-0.2269,0.1834,-0.0015,0.0335,-0.0426,3044,2019-08-07 16:48:22:191
-5.8639,-7.2883,1.1445,-0.4224,-0.2269,0.1834,-0.0026,0.0729,-0.0394,3047,2019-08-07 16:48:22:194
-5.8639,-7.2883,1.1445,-0.4224,-0.2269,0.1834,-0.0026,0.0729,-0.0394,3053,2019-08-07 16:48:22:200
-5.8639,-7.2883,1.1445,-0.2598,-0.2515,-0.0616,0.0048,0.074,-0.0373,3058,2019-08-07 16:48:22:205
-5.9309,-7.2501,1.3849,-0.2598,-0.2515,-0.0616,0.0048,0.074,-0.0373,3063,2019-08-07 16:48:22:210
-5.9309,-7.2501,1.3849,-0.2598,-0.2515,-0.0616,0.023,0.0548,-0.0352,3068,2019-08-07 16:48:22:215
-5.9309,-7.212,1.3095,-0.2598,-0.2515,-0.0616,0.023,0.0548,-0.0352,3072,2019-08-07 16:48:22:219
-5.9309,-7.212,1.3095,-0.2796,-0.4035,0.0999,0.0176,0.0314,-0.0362,3078,2019-08-07 16:48:22:225
-5.9309,-7.212,1.3095,-0.2796,-0.4035,0.0999,0.0176,0.0314,-0.0362,3083,2019-08-07 16:48:22:230
-5.8783,-7.0592,1.1869,-0.2796,-0.4035,0.0999,0.0102,0.0186,-0.0256,3088,2019-08-07 16:48:22:235
-5.8783,-7.0592,1.1869,-0.2796,-0.4035,0.0999,0.0102,0.0186,-0.0256,3093,2019-08-07 16:48:22:240
-5.8783,-7.0592,1.1869,-0.2796,-0.4035,0.0999,0.0102,0.0186,-0.0256,3098,2019-08-07 16:48:22:245
-5.8208,-7.0783,1.1633,-0.339,-0.4394,0.1696,0.0272,0.009,-0.0075,3103,2019-08-07 16:48:22:250
-5.8208,-7.0783,1.1633,-0.339,-0.4394,0.1696,0.0272,0.009,-0.0075,3108,2019-08-07 16:48:22:255
-5.7921,-7.064,1.1068,-0.339,-0.4394,0.1696,0.0421,0.0229,0.0053,3112,2019-08-07 16:48:22:259
-5.7921,-7.064,1.1068,-0.339,-0.4394,0.1696,0.0421,0.0229,0.0053,3118,2019-08-07 16:48:22:265
-5.7921,-7.064,1.1068,-0.3447,-0.4335,0.2895,0.0411,0.0388,0.0192,3123,2019-08-07 16:48:22:270
-5.8065,-7.1022,0.8852,-0.3447,-0.4335,0.2895,0.0411,0.0388,0.0192,3128,2019-08-07 16:48:22:275
-5.8065,-7.1022,0.8852,-0.3447,-0.4335,0.2895,0.0315,0.0697,0.0426,3133,2019-08-07 16:48:22:280
-5.8065,-7.1022,0.8852,-0.3447,-0.4335,0.2895,0.0315,0.0697,0.0426,3138,2019-08-07 16:48:22:285
-5.8782,-7.169,1.0266,-0.2902,-0.3424,0.3022,0.0368,0.1251,0.0586,3142,2019-08-07 16:48:22:289
-5.8782,-7.169,1.0266,-0.2902,-0.3424,0.3022,0.0368,0.1251,0.0586,3148,2019-08-07 16:48:22:295
-6.1174,-7.0926,1.1728,-0.2902,-0.3424,0.3022,0.0368,0.1251,0.0586,3152,2019-08-07 16:48:22:299
-6.1174,-7.0926,1.1728,-0.2902,-0.3424,0.3022,0.0453,0.1326,0.0841,3158,2019-08-07 16:48:22:305
-6.1174,-7.0926,1.1728,0.0145,-0.4698,0.0695,0.0453,0.1326,0.0841,3163,2019-08-07 16:48:22:310
-6.2418,-6.9828,1.267,0.0145,-0.4698,0.0695,0.0443,0.0623,0.1097,3167,2019-08-07 16:48:22:314
-6.2418,-6.9828,1.267,0.0145,-0.4698,0.0695,0.0443,0.0623,0.1097,3173,2019-08-07 16:48:22:320
-6.1844,-6.9542,1.3048,0.0145,-0.4698,0.0695,0.0411,-0.0123,0.1225,3178,2019-08-07 16:48:22:325
-6.1844,-6.9542,1.3048,-0.0631,-0.5672,0.0341,0.0411,-0.0123,0.1225,3183,2019-08-07 16:48:22:330
-6.1844,-6.9542,1.3048,-0.0631,-0.5672,0.0341,0.04,-0.057,0.1161,3188,2019-08-07 16:48:22:335
-6.0505,-6.8396,1.1775,-0.0631,-0.5672,0.0341,0.04,-0.057,0.1161,3193,2019-08-07 16:48:22:340
-6.0505,-6.8396,1.1775,-0.0631,-0.5672,0.0341,0.0432,-0.0453,0.1129,3198,2019-08-07 16:48:22:345
-5.9165,-6.8157,1.1586,-0.2531,-0.6696,0.2063,0.0432,-0.0453,0.1129,3203,2019-08-07 16:48:22:350
-5.9165,-6.8157,1.1586,-0.2531,-0.6696,0.2063,0.0432,0.0133,0.1118,3208,2019-08-07 16:48:22:355
-5.9165,-6.8157,1.1586,-0.2531,-0.6696,0.2063,0.0432,0.0133,0.1118,3213,2019-08-07 16:48:22:360
-5.8017,-6.8682,1.1021,-0.2531,-0.6696,0.2063,0.0485,0.1113,0.1044,3217,2019-08-07 16:48:22:364
-5.8017,-6.8682,1.1021,-0.4246,-0.5347,0.2172,0.0485,0.1113,0.1044,3223,2019-08-07 16:48:22:370
-5.9356,-6.9064,1.1303,-0.4246,-0.5347,0.2172,0.0592,0.1965,0.0937,3227,2019-08-07 16:48:22:374
-5.9356,-6.9064,1.1303,-0.4246,-0.5347,0.2172,0.0592,0.1965,0.0937,3233,2019-08-07 16:48:22:380
-5.9356,-6.9064,1.1303,-0.4246,-0.5347,0.2172,0.0666,0.2519,0.0969,3238,2019-08-07 16:48:22:385
-6.0217,-6.9924,1.2388,-0.2395,-0.4441,0.0774,0.0666,0.2519,0.0969,3243,2019-08-07 16:48:22:390
-6.0217,-6.9924,1.2388,-0.2395,-0.4441,0.0774,0.0666,0.2519,0.0969,3248,2019-08-07 16:48:22:395
-6.1509,-7.1833,1.0738,-0.2395,-0.4441,0.0774,0.0634,0.2785,0.1001,3253,2019-08-07 16:48:22:400
-6.1509,-7.1833,1.0738,-0.2395,-0.4441,0.0774,0.0634,0.2785,0.1001,3258,2019-08-07 16:48:22:405
-6.1509,-7.1833,1.0738,-0.0753,-0.2151,0.0786,0.057,0.2956,0.0905,3263,2019-08-07 16:48:22:410
-6.304,-7.2549,1.2953,-0.0753,-0.2151,0.0786,0.057,0.2956,0.0905,3267,2019-08-07 16:48:22:414
-6.304,-7.2549,1.2953,-0.0753,-0.2151,0.0786,0.0624,0.2711,0.0852,3273,2019-08-07 16:48:22:420
-6.304,-7.2549,1.2953,-0.0753,-0.2151,0.0786,0.0624,0.2711,0.0852,3278,2019-08-07 16:48:22:425
-6.3997,-7.2693,1.399,0.1336,-0.1207,-0.1348,0.0613,0.2253,0.082,3283,2019-08-07 16:48:22:430
-6.3997,-7.2693,1.399,0.1336,-0.1207,-0.1348,0.0613,0.2253,0.082,3288,2019-08-07 16:48:22:435
-6.4284,-7.1976,1.3943,0.1336,-0.1207,-0.1348,0.0613,0.2253,0.082,3292,2019-08-07 16:48:22:439
-6.4284,-7.1976,1.3943,0.1336,-0.1207,-0.1348,0.0443,0.1443,0.0746,3298,2019-08-07 16:48:22:445
-6.4284,-7.1976,1.3943,0.1068,-0.2466,-0.1381,0.0443,0.1443,0.0746,3303,2019-08-07 16:48:22:450
-6.4092,-7.1404,1.3142,0.1068,-0.2466,-0.1381,0.0496,0.0793,0.0724,3308,2019-08-07 16:48:22:455
-6.4092,-7.1404,1.3142,0.1068,-0.2466,-0.1381,0.0496,0.0793,0.0724,3313,2019-08-07 16:48:22:460
-6.3566,-7.1976,1.1775,0.1068,-0.2466,-0.1381,0.0581,0.0314,0.0618,3318,2019-08-07 16:48:22:465
-6.3566,-7.1976,1.1775,-0.0011,-0.1786,0.1085,0.0581,0.0314,0.0618,3322,2019-08-07 16:48:22:469
-6.3566,-7.1976,1.1775,-0.0011,-0.1786,0.1085,0.0634,0.0143,0.0522,3328,2019-08-07 16:48:22:475
-6.3087,-7.2311,1.1398,-0.0011,-0.1786,0.1085,0.0634,0.0143,0.0522,3332,2019-08-07 16:48:22:479
-6.3087,-7.2311,1.1398,-0.0011,-0.1786,0.1085,0.0815,0.026,0.049,3338,2019-08-07 16:48:22:485
-6.1174,-7.2358,1.1586,-0.2244,-0.1418,0.1018,0.0815,0.026,0.049,3344,2019-08-07 16:48:22:491
-6.1174,-7.2358,1.1586,-0.2244,-0.1418,0.1018,0.0965,0.0591,0.0288,3348,2019-08-07 16:48:22:495
-6.1174,-7.2358,1.1586,-0.2244,-0.1418,0.1018,0.0965,0.0591,0.0288,3353,2019-08-07 16:48:22:500
-6.0887,-7.1595,1.0031,-0.2244,-0.1418,0.1018,0.0965,0.0591,0.0288,3358,2019-08-07 16:48:22:505
-6.0887,-7.1595,1.0031,-0.1677,-0.1937,0.223,0.0997,0.1145,0.0181,3363,2019-08-07 16:48:22:510
-6.2178,-7.1308,1.1492,-0.1677,-0.1937,0.223,0.0997,0.1145,0.0181,3367,2019-08-07 16:48:22:514
-6.2178,-7.1308,1.1492,-0.1677,-0.1937,0.223,0.1039,0.1315,0.0138,3373,2019-08-07 16:48:22:520
-6.2178,-7.1308,1.1492,-0.1677,-0.1937,0.223,0.1039,0.1315,0.0138,3377,2019-08-07 16:48:22:524
-6.3279,-7.0019,1.2812,0.0032,-0.3079,-0.1261,0.1114,0.1134,0.0106,3384,2019-08-07 16:48:22:531
-6.3279,-7.0019,1.2812,0.0032,-0.3079,-0.1261,0.1114,0.1134,0.0106,3387,2019-08-07 16:48:22:534
-6.4188,-6.959,1.3425,0.0032,-0.3079,-0.1261,0.106,0.0655,0.0096,3394,2019-08-07 16:48:22:541
-6.4188,-6.959,1.3425,0.0032,-0.3079,-0.1261,0.106,0.0655,0.0096,3398,2019-08-07 16:48:22:545
-6.4188,-6.959,1.3425,0.0894,-0.4217,-0.0468,0.0879,0.0101,0.0106,3402,2019-08-07 16:48:22:549
-6.4044,-6.9876,1.3802,0.0894,-0.4217,-0.0468,0.0879,0.0101,0.0106,3408,2019-08-07 16:48:22:555
-6.4044,-6.9876,1.3802,0.0894,-0.4217,-0.0468,0.0741,-0.0464,0.0075,3412,2019-08-07 16:48:22:559
-6.3661,-6.9972,1.2293,0.0894,-0.4217,-0.0468,0.0741,-0.0464,0.0075,3418,2019-08-07 16:48:22:565
-6.3661,-6.9972,1.2293,-0.065,-0.2838,0.1598,0.0688,-0.0869,0.0096,3423,2019-08-07 16:48:22:570
-6.3661,-6.9972,1.2293,-0.065,-0.2838,0.1598,0.0688,-0.0869,0.0096,3428,2019-08-07 16:48:22:575
-6.2417,-7.1165,1.0219,-0.065,-0.2838,0.1598,0.0624,-0.0869,-0.0064,3433,2019-08-07 16:48:22:580
-6.2417,-7.1165,1.0219,-0.065,-0.2838,0.1598,0.0624,-0.0869,-0.0064,3438,2019-08-07 16:48:22:585
-6.146,-7.169,0.9889,-0.2109,-0.1872,0.3191,0.0645,-0.0549,-0.0149,3444,2019-08-07 16:48:22:591
-6.146,-7.169,0.9889,-0.2109,-0.1872,0.3191,0.0645,-0.0549,-0.0149,3448,2019-08-07 16:48:22:595
-6.146,-7.169,0.9889,-0.2109,-0.1872,0.3191,0.0773,-0.007,-0.0256,3453,2019-08-07 16:48:22:600
-6.0934,-7.2167,0.9418,-0.2109,-0.1872,0.3191,0.0773,-0.007,-0.0256,3458,2019-08-07 16:48:22:605
-6.0934,-7.2167,0.9418,-0.2109,-0.1872,0.3191,0.0773,-0.007,-0.0256,3463,2019-08-07 16:48:22:610
-6.1652,-7.2167,1.0549,-0.2165,-0.1697,0.2916,0.0901,0.041,-0.033,3468,2019-08-07 16:48:22:615
-6.1652,-7.2167,1.0549,-0.2165,-0.1697,0.2916,0.0901,0.041,-0.033,3473,2019-08-07 16:48:22:620
-6.1652,-7.2167,1.0549,-0.2165,-0.1697,0.2916,0.1199,0.074,-0.0352,3478,2019-08-07 16:48:22:625
-6.2896,-7.1977,1.2529,-0.2165,-0.1697,0.2916,0.1199,0.074,-0.0352,3483,2019-08-07 16:48:22:630
-6.2896,-7.1977,1.2529,0.0114,-0.214,0.049,0.1401,0.0719,-0.0298,3488,2019-08-07 16:48:22:635
-6.2896,-7.1977,1.2529,0.0114,-0.214,0.049,0.1401,0.0719,-0.0298,3493,2019-08-07 16:48:22:640
-6.5144,-7.1213,1.2624,0.0114,-0.214,0.049,0.1582,0.0442,-0.0341,3499,2019-08-07 16:48:22:646
-6.5144,-7.1213,1.2624,0.0114,-0.214,0.049,0.1582,0.0442,-0.0341,3502,2019-08-07 16:48:22:649
-6.6819,-6.9685,1.3896,0.3716,-0.3604,-0.0296,0.1561,-0.023,-0.033,3508,2019-08-07 16:48:22:655
-6.6819,-6.9685,1.3896,0.3716,-0.3604,-0.0296,0.1561,-0.023,-0.033,3513,2019-08-07 16:48:22:660
-6.6819,-6.9685,1.3896,0.3716,-0.3604,-0.0296,0.1476,-0.1029,-0.032,3517,2019-08-07 16:48:22:664
-6.7249,-6.9399,1.3142,0.3716,-0.3604,-0.0296,0.1476,-0.1029,-0.032,3523,2019-08-07 16:48:22:670
-6.7249,-6.9399,1.3142,0.2701,-0.4581,0.1341,0.1423,-0.1636,-0.0405,3528,2019-08-07 16:48:22:675
-6.5575,-6.9065,1.2058,0.2701,-0.4581,0.1341,0.1423,-0.1636,-0.0405,3533,2019-08-07 16:48:22:680
-6.5575,-6.9065,1.2058,0.2701,-0.4581,0.1341,0.1423,-0.1636,-0.0405,3538,2019-08-07 16:48:22:685
-6.5575,-6.9065,1.2058,0.2701,-0.4581,0.1341,0.1284,-0.1913,-0.0575,3543,2019-08-07 16:48:22:690
-6.5,-6.8492,1.2058,0.1647,-0.506,0.2087,0.1284,-0.1913,-0.0575,3549,2019-08-07 16:48:22:696
-6.5,-6.8492,1.2058,0.1647,-0.506,0.2087,0.1231,-0.1827,-0.0714,3552,2019-08-07 16:48:22:699
-6.5,-6.8492,1.2058,0.1647,-0.506,0.2087,0.1231,-0.1827,-0.0714,3558,2019-08-07 16:48:22:705
-6.3374,-6.7919,1.0502,0.1647,-0.506,0.2087,0.1082,-0.1582,-0.0852,3563,2019-08-07 16:48:22:710
-6.3374,-6.7919,1.0502,-0.0849,-0.6297,0.3922,0.1082,-0.1582,-0.0852,3567,2019-08-07 16:48:22:714
-6.2273,-6.7107,1.0738,-0.0849,-0.6297,0.3922,0.0922,-0.1039,-0.1033,3573,2019-08-07 16:48:22:720
-6.2273,-6.7107,1.0738,-0.0849,-0.6297,0.3922,0.0922,-0.1039,-0.1033,3578,2019-08-07 16:48:22:725
-6.2273,-6.7107,1.0738,-0.0849,-0.6297,0.3922,0.089,-0.0357,-0.1151,3584,2019-08-07 16:48:22:731
-6.1795,-6.6487,1.1257,-0.1264,-0.7199,0.3493,0.089,-0.0357,-0.1151,3587,2019-08-07 16:48:22:734
-6.1795,-6.6487,1.1257,-0.1264,-0.7199,0.3493,0.0826,0.0229,-0.1151,3593,2019-08-07 16:48:22:740
-6.1747,-6.6869,1.2105,-0.1264,-0.7199,0.3493,0.0826,0.0229,-0.1151,3598,2019-08-07 16:48:22:745
-6.1747,-6.6869,1.2105,-0.1264,-0.7199,0.3493,0.0858,0.0793,-0.1108,3603,2019-08-07 16:48:22:750
-6.1747,-6.6869,1.2105,-0.0937,-0.7157,0.1496,0.0858,0.0793,-0.1108,3607,2019-08-07 16:48:22:754
-6.2656,-6.6296,1.4321,-0.0937,-0.7157,0.1496,0.0901,0.09,-0.0991,3613,2019-08-07 16:48:22:760
-6.2656,-6.6296,1.4321,-0.0937,-0.7157,0.1496,0.0901,0.09,-0.0991,3617,2019-08-07 16:48:22:764
-6.2895,-6.5436,1.5405,-0.0937,-0.7157,0.1496,0.0901,0.09,-0.0991,3623,2019-08-07 16:48:22:770
-6.2895,-6.5436,1.5405,0.015,-0.8367,-0.1019,0.0677,0.0484,-0.0756,3627,2019-08-07 16:48:22:774
-6.2895,-6.5436,1.5405,0.015,-0.8367,-0.1019,0.0677,0.0484,-0.0756,3634,2019-08-07 16:48:22:781
-6.2512,-6.6105,1.5216,0.015,-0.8367,-0.1019,0.0677,0.0484,-0.0756,3637,2019-08-07 16:48:22:784
-6.2512,-6.6105,1.5216,0.015,-0.8367,-0.1019,0.0443,-0.0176,-0.0565,3643,2019-08-07 16:48:22:790
-6.122,-6.6678,1.4745,-0.1463,-0.7447,-0.0275,0.024,-0.0389,-0.049,3648,2019-08-07 16:48:22:795
-6.122,-6.6678,1.4745,-0.1463,-0.7447,-0.0275,0.024,-0.0389,-0.049,3653,2019-08-07 16:48:22:800
-6.122,-6.6678,1.4745,-0.1463,-0.7447,-0.0275,0.024,-0.0389,-0.049,3658,2019-08-07 16:48:22:805
-5.9785,-6.6821,1.4839,-0.1463,-0.7447,-0.0275,0.0155,-0.0602,-0.0394,3663,2019-08-07 16:48:22:810
-5.9785,-6.6821,1.4839,-0.2936,-0.6378,0.0204,0.0155,-0.0602,-0.0394,3668,2019-08-07 16:48:22:815
-5.9785,-6.6821,1.4839,-0.2936,-0.6378,0.0204,0.0155,-0.0602,-0.0256,3672,2019-08-07 16:48:22:819
-5.8637,-6.8683,1.4038,-0.2936,-0.6378,0.0204,0.0155,-0.0602,-0.0256,3678,2019-08-07 16:48:22:825
-5.8637,-6.8683,1.4038,-0.2936,-0.6378,0.0204,0.0048,-0.0432,-0.0224,3683,2019-08-07 16:48:22:830
-5.9354,-6.8253,1.3944,-0.3323,-0.5684,0.1173,0.0048,-0.0432,-0.0224,3688,2019-08-07 16:48:22:835
-5.9354,-6.8253,1.3944,-0.3323,-0.5684,0.1173,0.0027,-0.0059,-0.0128,3693,2019-08-07 16:48:22:840
-5.9354,-6.8253,1.3944,-0.3323,-0.5684,0.1173,0.0027,-0.0059,-0.0128,3698,2019-08-07 16:48:22:845
-6.0024,-6.8301,1.4321,-0.3323,-0.5684,0.1173,0.0027,-0.0059,-0.0128,3702,2019-08-07 16:48:22:849
-6.0024,-6.8301,1.4321,-0.2216,-0.5496,0.0385,0.0123,0.0143,-0.0032,3708,2019-08-07 16:48:22:855
-6.0885,-6.8444,1.4603,-0.2216,-0.5496,0.0385,0.0123,0.0143,-0.0032,3713,2019-08-07 16:48:22:860
-6.0885,-6.8444,1.4603,-0.2216,-0.5496,0.0385,0.0038,0.0154,0.0075,3718,2019-08-07 16:48:22:865
-6.0885,-6.8444,1.4603,-0.2216,-0.5496,0.0385,0.0038,0.0154,0.0075,3723,2019-08-07 16:48:22:870
-6.055,-6.8492,1.4651,-0.1909,-0.4902,0.0044,-0.0133,0.0037,0.016,3728,2019-08-07 16:48:22:875
-6.055,-6.8492,1.4651,-0.1909,-0.4902,0.0044,-0.0133,0.0037,0.016,3733,2019-08-07 16:48:22:880
-6.055,-6.8492,1.4651,-0.1909,-0.4902,0.0044,-0.0367,-0.0102,0.0256,3737,2019-08-07 16:48:22:884
-6.0981,-6.9876,1.4698,-0.1909,-0.4902,0.0044,-0.0367,-0.0102,0.0256,3743,2019-08-07 16:48:22:890
-6.0981,-6.9876,1.4698,-0.2285,-0.3681,0.0618,-0.0527,-0.0198,0.0256,3749,2019-08-07 16:48:22:896
-6.0933,-7.0592,1.3472,-0.2285,-0.3681,0.0618,-0.0527,-0.0198,0.0256,3752,2019-08-07 16:48:22:899
-6.0933,-7.0592,1.3472,-0.2285,-0.3681,0.0618,-0.074,-0.0198,0.033,3758,2019-08-07 16:48:22:905
-6.0933,-7.0592,1.3472,-0.2285,-0.3681,0.0618,-0.074,-0.0198,0.033,3763,2019-08-07 16:48:22:910
-5.9833,-7.1165,1.3472,-0.2805,-0.2852,0.2133,-0.0793,-0.0112,0.0298,3768,2019-08-07 16:48:22:915
-5.9833,-7.1165,1.3472,-0.2805,-0.2852,0.2133,-0.0793,-0.0112,0.0298,3772,2019-08-07 16:48:22:919
-5.9785,-7.107,1.1917,-0.2805,-0.2852,0.2133,-0.0846,0.0047,0.0224,3778,2019-08-07 16:48:22:925
-5.9785,-7.107,1.1917,-0.2805,-0.2852,0.2133,-0.0846,0.0047,0.0224,3783,2019-08-07 16:48:22:930
-5.9785,-7.107,1.1917,-0.3558,-0.247,0.2832,-0.0846,0.0047,0.0224,3787,2019-08-07 16:48:22:934
-5.9641,-7.1165,1.1681,-0.3558,-0.247,0.2832,-0.0804,0.0474,0.0181,3794,2019-08-07 16:48:22:941
-5.9641,-7.1165,1.1681,-0.282,-0.2951,0.3574,-0.0804,0.0474,0.0181,3798,2019-08-07 16:48:22:945
-6.0208,-7.1118,1.0693,-0.282,-0.2951,0.3574,-0.0697,0.0921,0.0139,3803,2019-08-07 16:48:22:950
-6.0208,-7.1118,1.0693,-0.282,-0.2951,0.3574,-0.0697,0.0921,0.0139,3808,2019-08-07 16:48:22:955
-6.0208,-7.1118,1.0693,-0.282,-0.2951,0.3574,-0.0559,0.14,0.0107,3812,2019-08-07 16:48:22:959
-6.0399,-7.1405,1.041,-0.23,-0.253,0.3111,-0.0559,0.14,0.0107,3818,2019-08-07 16:48:22:965
-6.0399,-7.1405,1.041,-0.23,-0.253,0.3111,-0.0559,0.14,0.0107,3822,2019-08-07 16:48:22:969
-6.1595,-7.193,1.0976,-0.23,-0.253,0.3111,-0.0399,0.1869,0.0053,3828,2019-08-07 16:48:22:975
-6.1595,-7.193,1.0976,-0.23,-0.253,0.3111,-0.0399,0.1869,0.0053,3833,2019-08-07 16:48:22:980
-6.1595,-7.193,1.0976,-0.0219,-0.2103,0.2593,-0.026,0.2135,0.0032,3838,2019-08-07 16:48:22:985
-6.2791,-7.1405,1.1635,-0.0219,-0.2103,0.2593,-0.026,0.2135,0.0032,3843,2019-08-07 16:48:22:990
-6.2791,-7.1405,1.1635,-0.0219,-0.2103,0.2593,-0.0154,0.2295,-0.0011,3849,2019-08-07 16:48:22:996
-6.2791,-7.1405,1.1635,-0.0219,-0.2103,0.2593,-0.0154,0.2295,-0.0011,3852,2019-08-07 16:48:22:999
-6.4322,-7.1452,1.2343,-0.0219,-0.2103,0.2593,-0.0037,0.2231,-0.0096,3858,2019-08-07 16:48:23:005
-6.4322,-7.1452,1.2343,0.1624,-0.2628,0.0721,-0.0037,0.2231,-0.0096,3863,2019-08-07 16:48:23:010
-6.4322,-7.1452,1.2343,0.1624,-0.2628,0.0721,0.0102,0.1954,-0.0096,3868,2019-08-07 16:48:23:015
-6.5374,-7.0593,1.3333,0.1624,-0.2628,0.0721,0.0102,0.1954,-0.0096,3873,2019-08-07 16:48:23:020
-6.5374,-7.0593,1.3333,0.1624,-0.2628,0.0721,0.0176,0.14,-0.0128,3878,2019-08-07 16:48:23:025
-6.5517,-7.0832,1.4417,0.2434,-0.3194,-0.0896,0.0176,0.14,-0.0128,3883,2019-08-07 16:48:23:030
-6.5517,-7.0832,1.4417,0.2434,-0.3194,-0.0896,0.0176,0.0772,-0.016,3888,2019-08-07 16:48:23:035
-6.5517,-7.0832,1.4417,0.2434,-0.3194,-0.0896,0.0176,0.0772,-0.016,3893,2019-08-07 16:48:23:040
-6.5182,-7.0545,1.4935,0.2434,-0.3194,-0.0896,0.0187,0.0037,-0.017,3898,2019-08-07 16:48:23:045
-6.5182,-7.0545,1.4935,0.1993,-0.3525,-0.1157,0.0187,0.0037,-0.017,3903,2019-08-07 16:48:23:050
-6.3699,-6.9972,1.4087,0.1993,-0.3525,-0.1157,0.0134,-0.0645,-0.0107,3907,2019-08-07 16:48:23:054
-6.3699,-6.9972,1.4087,0.1993,-0.3525,-0.1157,0.0134,-0.0645,-0.0107,3913,2019-08-07 16:48:23:060
-6.3699,-6.9972,1.4087,0.1993,-0.3525,-0.1157,0.0112,-0.1018,-0.0085,3918,2019-08-07 16:48:23:065
-6.2503,-7.002,1.2956,-0.0571,-0.3853,0.0755,0.0112,-0.1018,-0.0085,3923,2019-08-07 16:48:23:070
-6.2503,-7.002,1.2956,-0.0571,-0.3853,0.0755,0.0091,-0.1103,-0.0149,3927,2019-08-07 16:48:23:074
-6.1068,-7.002,1.2908,-0.0571,-0.3853,0.0755,0.0091,-0.1103,-0.0149,3934,2019-08-07 16:48:23:081
-6.1068,-7.002,1.2908,-0.0571,-0.3853,0.0755,0.0134,-0.0975,-0.0128,3938,2019-08-07 16:48:23:085
-6.1068,-7.002,1.2908,-0.2776,-0.3624,0.0857,0.0134,-0.0975,-0.0128,3943,2019-08-07 16:48:23:090
-6.0254,-7.0211,1.2296,-0.2776,-0.3624,0.0857,0.0166,-0.0634,-0.0149,3948,2019-08-07 16:48:23:095
-6.0254,-7.0211,1.2296,-0.2776,-0.3624,0.0857,0.0166,-0.0634,-0.0149,3953,2019-08-07 16:48:23:100
-6.0685,-7.0498,1.1777,-0.2776,-0.3624,0.0857,0.007,-0.0166,-0.0138,3958,2019-08-07 16:48:23:105
-6.0685,-7.0498,1.1777,-0.2214,-0.3305,0.1505,0.007,-0.0166,-0.0138,3963,2019-08-07 16:48:23:110
-6.0685,-7.0498,1.1777,-0.2214,-0.3305,0.1505,0.0091,0.0186,-0.0149,3967,2019-08-07 16:48:23:114
-6.0971,-7.0259,1.4181,-0.2214,-0.3305,0.1505,0.0091,0.0186,-0.0149,3973,2019-08-07 16:48:23:120
-6.0971,-7.0259,1.4181,-0.2214,-0.3305,0.1505,0.0091,0.0186,-0.0138,3977,2019-08-07 16:48:23:124
-6.1593,-6.9973,1.4794,-0.1531,-0.3746,-0.0616,0.0134,0.0239,-0.0138,3984,2019-08-07 16:48:23:131
-6.1593,-6.9973,1.4794,-0.1531,-0.3746,-0.0616,0.0134,0.0239,-0.0138,3987,2019-08-07 16:48:23:134
-6.1593,-6.9973,1.4794,-0.1531,-0.3746,-0.0616,0.0091,0.0069,-0.0117,3993,2019-08-07 16:48:23:140
-6.1258,-6.9447,1.4087,-0.1531,-0.3746,-0.0616,-0.0037,-0.0112,-0.0053,3998,2019-08-07 16:48:23:145
-6.1258,-6.9447,1.4087,-0.1575,-0.4321,-0.0274,-0.0037,-0.0112,-0.0053,4003,2019-08-07 16:48:23:150
-6.1258,-6.9447,1.4087,-0.1575,-0.4321,-0.0274,-0.0037,-0.0112,-0.0053,4008,2019-08-07 16:48:23:155
-6.1832,-6.94,1.4606,-0.1575,-0.4321,-0.0274,-0.0111,-0.0208,-0.0053,4013,2019-08-07 16:48:23:160
-6.1832,-6.94,1.4606,-0.1575,-0.4321,-0.0274,-0.0111,-0.0208,-0.0053,4018,2019-08-07 16:48:23:165
-6.0397,-6.9495,1.4794,-0.1859,-0.4604,-0.0294,-0.0133,-0.0507,0.0085,4023,2019-08-07 16:48:23:170
-6.0397,-6.9495,1.4794,-0.1859,-0.4604,-0.0294,-0.0133,-0.0507,0.0085,4027,2019-08-07 16:48:23:174
-6.0397,-6.9495,1.4794,-0.1859,-0.4604,-0.0294,-0.0122,-0.0581,0.017,4033,2019-08-07 16:48:23:180
-6.0492,-7.0164,1.3286,-0.1859,-0.4604,-0.0294,-0.0122,-0.0581,0.017,4038,2019-08-07 16:48:23:185
-6.0492,-7.0164,1.3286,-0.2348,-0.4012,0.0895,-0.0122,-0.0528,0.0181,4043,2019-08-07 16:48:23:190
-6.1066,-6.9591,1.3239,-0.2348,-0.4012,0.0895,-0.0122,-0.0528,0.0181,4047,2019-08-07 16:48:23:194
-6.1066,-6.9591,1.3239,-0.2348,-0.4012,0.0895,-0.0122,-0.0528,0.0181,4053,2019-08-07 16:48:23:200
-6.1066,-6.9591,1.3239,-0.2348,-0.4012,0.0895,-0.0165,-0.0347,0.0234,4057,2019-08-07 16:48:23:204
-6.1257,-6.9877,1.2814,-0.171,-0.4076,0.1296,-0.0165,-0.0347,0.0234,4063,2019-08-07 16:48:23:210
-6.1257,-6.9877,1.2814,-0.171,-0.4076,0.1296,-0.0111,-0.0187,0.0256,4067,2019-08-07 16:48:23:214
-6.121,-7.0641,1.2956,-0.171,-0.4076,0.1296,-0.0111,-0.0187,0.0256,4073,2019-08-07 16:48:23:220
-6.121,-7.0641,1.2956,-0.171,-0.4076,0.1296,-0.0143,-0.0027,0.016,4078,2019-08-07 16:48:23:225
-6.121,-7.0641,1.2956,-0.1121,-0.3906,0.0865,-0.0143,-0.0027,0.016,4083,2019-08-07 16:48:23:230
-6.2405,-6.9925,1.3757,-0.1121,-0.3906,0.0865,-0.0143,-0.0027,0.016,4087,2019-08-07 16:48:23:234
-6.2405,-6.9925,1.3757,-0.1121,-0.3906,0.0865,-0.0186,-0.0027,0.0075,4093,2019-08-07 16:48:23:240
-6.2357,-7.002,1.2202,-0.1121,-0.3906,0.0865,-0.0186,-0.0027,0.0075,4098,2019-08-07 16:48:23:245
-6.2357,-7.002,1.2202,-0.0808,-0.4275,0.1915,-0.0324,-0.0123,0.0053,4103,2019-08-07 16:48:23:250
-6.2357,-7.002,1.2202,-0.0808,-0.4275,0.1915,-0.0324,-0.0123,0.0053,4108,2019-08-07 16:48:23:255
-6.1018,-6.9973,1.3475,-0.0808,-0.4275,0.1915,-0.0367,-0.024,0.0085,4113,2019-08-07 16:48:23:260
-6.1018,-6.9973,1.3475,-0.0808,-0.4275,0.1915,-0.0367,-0.024,0.0085,4117,2019-08-07 16:48:23:264
-6.1305,-7.0068,1.4087,-0.178,-0.3743,-0.009,-0.0378,-0.0336,0.0128,4123,2019-08-07 16:48:23:270
-6.1305,-7.0068,1.4087,-0.178,-0.3743,-0.009,-0.0378,-0.0336,0.0128,4128,2019-08-07 16:48:23:275
-6.1305,-7.0068,1.4087,-0.178,-0.3743,-0.009,-0.0292,-0.0539,0.0224,4133,2019-08-07 16:48:23:280
-6.0683,-6.9209,1.338,-0.178,-0.3743,-0.009,-0.0292,-0.0539,0.0224,4138,2019-08-07 16:48:23:285
-6.0683,-6.9209,1.338,-0.178,-0.3743,-0.009,-0.0292,-0.0539,0.0224,4142,2019-08-07 16:48:23:289
-6.0013,-6.9495,1.2343,-0.2951,-0.4245,0.1386,-0.0324,-0.0453,0.032,4148,2019-08-07 16:48:23:295
-6.0013,-6.9495,1.2343,-0.2951,-0.4245,0.1386,-0.025,-0.0262,0.0373,4153,2019-08-07 16:48:23:300
-6.0013,-6.9495,1.2343,-0.2951,-0.4245,0.1386,-0.025,-0.0262,0.0373,4157,2019-08-07 16:48:23:304
-6.0252,-6.9209,1.338,-0.2951,-0.4245,0.1386,-0.025,-0.0262,0.0373,4163,2019-08-07 16:48:23:310
-6.0252,-6.9209,1.338,-0.2383,-0.4344,0.0531,-0.0175,-0.0112,0.049,4168,2019-08-07 16:48:23:315
-6.0252,-6.9209,1.338,-0.2383,-0.4344,0.0531,-0.0175,-0.0112,0.049,4173,2019-08-07 16:48:23:320
-6.0778,-6.9448,1.2673,-0.2383,-0.4344,0.0531,-0.009,-0.0027,0.0575,4178,2019-08-07 16:48:23:325
-6.0778,-6.9448,1.2673,-0.2383,-0.4344,0.0531,-0.009,-0.0027,0.0575,4183,2019-08-07 16:48:23:330
-6.0778,-6.9448,1.2673,-0.1801,-0.4749,0.1932,-0.009,-0.0027,0.0575,4187,2019-08-07 16:48:23:334
-6.2022,-6.9161,1.272,-0.1801,-0.4749,0.1932,-0.0101,5.0E-4,0.0597,4193,2019-08-07 16:48:23:340
-6.2022,-6.9161,1.272,-0.1801,-0.4749,0.1932,-0.0101,5.0E-4,0.0597,4198,2019-08-07 16:48:23:345
-6.1878,-6.983,1.2343,-0.1809,-0.3949,0.1387,-0.0101,0.0015,0.0607,4203,2019-08-07 16:48:23:350
-6.1878,-6.983,1.2343,-0.1809,-0.3949,0.1387,-0.0101,0.0015,0.0607,4208,2019-08-07 16:48:23:355
-6.1878,-6.983,1.2343,-0.1809,-0.3949,0.1387,-0.009,0.0026,0.0597,4213,2019-08-07 16:48:23:360
-6.2787,-6.9734,1.2532,-0.1809,-0.3949,0.1387,-0.009,0.0026,0.0597,4217,2019-08-07 16:48:23:364
-6.2787,-6.9734,1.2532,-0.1809,-0.3949,0.1387,-0.0122,0.009,0.0469,4223,2019-08-07 16:48:23:370
-6.2739,-6.9639,1.1778,-0.0756,-0.3824,0.1782,-0.0122,0.009,0.0469,4227,2019-08-07 16:48:23:374
-6.2739,-6.9639,1.1778,-0.0756,-0.3824,0.1782,-0.0143,0.0165,0.0458,4234,2019-08-07 16:48:23:381
-6.2739,-6.9639,1.1778,-0.0756,-0.3824,0.1782,-0.0143,0.0165,0.0458,4237,2019-08-07 16:48:23:384
-6.2643,-6.9686,1.2909,-0.0756,-0.3824,0.1782,-0.0154,0.0197,0.0426,4243,2019-08-07 16:48:23:390
-6.2643,-6.9686,1.2909,-0.0936,-0.381,0.1539,-0.0154,0.0197,0.0426,4248,2019-08-07 16:48:23:395
-6.2643,-6.9686,1.2909,-0.0936,-0.381,0.1539,-0.0111,0.0133,0.0415,4253,2019-08-07 16:48:23:400
-6.2547,-7.0355,1.3475,-0.0936,-0.381,0.1539,-0.0111,0.0133,0.0415,4257,2019-08-07 16:48:23:404
-6.2547,-7.0355,1.3475,-0.0936,-0.381,0.1539,-0.0111,0.0133,0.0415,4263,2019-08-07 16:48:23:410
-6.1973,-6.9591,1.3239,-0.1297,-0.3608,0.0662,-5.0E-4,-0.008,0.0479,4268,2019-08-07 16:48:23:415
-6.1973,-6.9591,1.3239,-0.1297,-0.3608,0.0662,-5.0E-4,-0.008,0.0479,4273,2019-08-07 16:48:23:420
-6.1973,-6.9591,1.3239,-0.1297,-0.3608,0.0662,0.0016,-0.0283,0.0618,4278,2019-08-07 16:48:23:425
-6.1303,-6.9877,1.2909,-0.1297,-0.3608,0.0662,0.0016,-0.0283,0.0618,4282,2019-08-07 16:48:23:429
-6.1303,-6.9877,1.2909,-0.2775,-0.3524,0.1069,0.0016,-0.0347,0.082,4288,2019-08-07 16:48:23:435
-6.1303,-6.9877,1.2909,-0.2775,-0.3524,0.1069,0.0016,-0.0347,0.082,4293,2019-08-07 16:48:23:440
-6.1542,-7.0021,1.2155,-0.2775,-0.3524,0.1069,0.0048,-0.0315,0.0906,4298,2019-08-07 16:48:23:445
-6.1542,-7.0021,1.2155,-0.2775,-0.3524,0.1069,0.0048,-0.0315,0.0906,4303,2019-08-07 16:48:23:450
-6.159,-7.0737,1.2202,-0.2805,-0.3074,0.2093,0.0048,-0.0315,0.0906,4307,2019-08-07 16:48:23:454
-6.159,-7.0737,1.2202,-0.2805,-0.3074,0.2093,0.0176,-0.0017,0.0959,4313,2019-08-07 16:48:23:460
-6.159,-7.0737,1.2202,-0.2805,-0.3074,0.2093,0.0176,-0.0017,0.0959,4318,2019-08-07 16:48:23:465
-6.1877,-7.0021,1.3239,-0.2805,-0.3074,0.2093,0.0293,0.025,0.0937,4323,2019-08-07 16:48:23:470
-6.1877,-7.0021,1.3239,-0.2088,-0.2945,0.065,0.0293,0.025,0.0937,4328,2019-08-07 16:48:23:475
-6.2594,-6.9973,1.3145,-0.2088,-0.2945,0.065,0.0421,0.0484,0.0916,4333,2019-08-07 16:48:23:480
-6.2594,-6.9973,1.3145,-0.2088,-0.2945,0.065,0.0421,0.0484,0.0916,4338,2019-08-07 16:48:23:485
-6.2594,-6.9973,1.3145,-0.2088,-0.2945,0.065,0.0453,0.0761,0.0788,4343,2019-08-07 16:48:23:490
-6.4029,-6.9114,1.3711,-0.0089,-0.3815,0.021,0.0453,0.0761,0.0788,4348,2019-08-07 16:48:23:495
-6.4029,-6.9114,1.3711,-0.0089,-0.3815,0.021,0.0453,0.0761,0.0788,4353,2019-08-07 16:48:23:500
-6.4029,-6.9114,1.3711,-0.0089,-0.3815,0.021,0.0475,0.0676,0.0682,4358,2019-08-07 16:48:23:505
-6.5416,-6.9018,1.4889,-0.0089,-0.3815,0.021,0.0475,0.0676,0.0682,4363,2019-08-07 16:48:23:510
-6.5416,-6.9018,1.4889,0.1542,-0.3886,-0.1307,0.0475,0.025,0.0629,4368,2019-08-07 16:48:23:515
-6.5608,-6.9018,1.5738,0.1542,-0.3886,-0.1307,0.0475,0.025,0.0629,4373,2019-08-07 16:48:23:520
-6.5608,-6.9018,1.5738,0.1542,-0.3886,-0.1307,0.0411,-0.0251,0.0522,4378,2019-08-07 16:48:23:525
-6.5608,-6.9018,1.5738,0.1542,-0.3886,-0.1307,0.0411,-0.0251,0.0522,4383,2019-08-07 16:48:23:530
-6.5081,-6.8541,1.4559,0.073,-0.4166,-0.055,0.0251,-0.073,0.0437,4388,2019-08-07 16:48:23:535
-6.5081,-6.8541,1.4559,0.073,-0.4166,-0.055,0.0251,-0.073,0.0437,4394,2019-08-07 16:48:23:541
-6.5081,-6.8541,1.4559,0.073,-0.4166,-0.055,0.0059,-0.1007,0.0426,4398,2019-08-07 16:48:23:545
-6.3311,-6.9018,1.4512,0.073,-0.4166,-0.055,0.0059,-0.1007,0.0426,4402,2019-08-07 16:48:23:549
-6.3311,-6.9018,1.4512,-0.1996,-0.2664,0.1103,-0.0079,-0.1061,0.0426,4408,2019-08-07 16:48:23:555
-6.2115,-6.9639,1.2391,-0.1996,-0.2664,0.1103,-0.0079,-0.1061,0.0426,4412,2019-08-07 16:48:23:559
-6.2115,-6.9639,1.2391,-0.1996,-0.2664,0.1103,-0.0175,-0.073,0.0373,4418,2019-08-07 16:48:23:565
-6.2115,-6.9639,1.2391,-0.1996,-0.2664,0.1103,-0.0175,-0.073,0.0373,4422,2019-08-07 16:48:23:569
-6.1493,-7.0021,1.3381,-0.289,-0.2956,0.1223,-0.0197,-0.04,0.032,4428,2019-08-07 16:48:23:575
-6.1493,-7.0021,1.3381,-0.289,-0.2956,0.1223,-0.0197,-0.04,0.032,4433,2019-08-07 16:48:23:580
-6.1636,-6.983,1.1873,-0.289,-0.2956,0.1223,-0.0218,5.0E-4,0.0266,4438,2019-08-07 16:48:23:585
-6.1636,-6.983,1.1873,-0.289,-0.2956,0.1223,-0.0218,5.0E-4,0.0266,4443,2019-08-07 16:48:23:590
-6.1636,-6.983,1.1873,-0.1875,-0.3169,0.1844,-0.0218,5.0E-4,0.0266,4448,2019-08-07 16:48:23:595
-6.2497,-6.9543,1.2815,-0.1875,-0.3169,0.1844,-0.0292,0.0495,0.0107,4453,2019-08-07 16:48:23:600
-6.2497,-6.9543,1.2815,-0.1875,-0.3169,0.1844,-0.0292,0.0495,0.0107,4457,2019-08-07 16:48:23:604
-6.4267,-6.8923,1.3994,-0.1875,-0.3169,0.1844,-0.0282,0.0623,0.0075,4463,2019-08-07 16:48:23:610
-6.4267,-6.8923,1.3994,-0.0337,-0.3871,0.0032,-0.0282,0.0623,0.0075,4468,2019-08-07 16:48:23:615
-6.4267,-6.8923,1.3994,-0.0337,-0.3871,0.0032,-0.0229,0.042,0.0053,4473,2019-08-07 16:48:23:620
-6.3693,-6.8732,1.4088,-0.0337,-0.3871,0.0032,-0.0229,0.042,0.0053,4477,2019-08-07 16:48:23:624
-6.3693,-6.8732,1.4088,-0.0337,-0.3871,0.0032,-0.0239,0.0143,-0.0043,4483,2019-08-07 16:48:23:630
-6.3693,-6.8732,1.4088,-0.0026,-0.4674,-0.008,-0.0239,0.0143,-0.0043,4488,2019-08-07 16:48:23:635
-6.4028,-6.7682,1.3523,-0.0026,-0.4674,-0.008,-0.0314,-0.0176,-0.0021,4494,2019-08-07 16:48:23:641
-6.4028,-6.7682,1.3523,-0.0026,-0.4674,-0.008,-0.0314,-0.0176,-0.0021,4497,2019-08-07 16:48:23:644
-6.2927,-6.7682,1.4465,-0.0026,-0.4674,-0.008,-0.0356,-0.0613,0.0,4503,2019-08-07 16:48:23:650
-6.2927,-6.7682,1.4465,-0.1845,-0.4145,-0.0253,-0.0356,-0.0613,0.0,4509,2019-08-07 16:48:23:656
-6.2927,-6.7682,1.4465,-0.1845,-0.4145,-0.0253,-0.0314,-0.0986,0.0064,4513,2019-08-07 16:48:23:660
-6.1779,-6.8589,1.324,-0.1845,-0.4145,-0.0253,-0.0314,-0.0986,0.0064,4518,2019-08-07 16:48:23:665
-6.1779,-6.8589,1.324,-0.1845,-0.4145,-0.0253,-0.0356,-0.1061,0.0075,4523,2019-08-07 16:48:23:670
-6.1779,-6.8589,1.324,-0.1845,-0.4145,-0.0253,-0.0356,-0.1061,0.0075,4528,2019-08-07 16:48:23:675
-6.0965,-6.8589,1.3051,-0.3552,-0.3952,0.1056,-0.0388,-0.0954,0.0139,4533,2019-08-07 16:48:23:680
-6.0965,-6.8589,1.3051,-0.3552,-0.3952,0.1056,-0.0388,-0.0954,0.0139,4538,2019-08-07 16:48:23:685
-6.0247,-6.9209,1.1967,-0.3552,-0.3952,0.1056,-0.0388,-0.0666,0.0234,4543,2019-08-07 16:48:23:690
-6.0247,-6.9209,1.1967,-0.3552,-0.3952,0.1056,-0.0388,-0.0666,0.0234,4548,2019-08-07 16:48:23:695
-6.0247,-6.9209,1.1967,-0.4416,-0.3418,0.2643,-0.0324,-0.0038,0.0266,4553,2019-08-07 16:48:23:700
-6.0678,-6.9591,1.1071,-0.4416,-0.3418,0.2643,-0.0324,-0.0038,0.0266,4558,2019-08-07 16:48:23:705
-6.0678,-6.9591,1.1071,-0.4416,-0.3418,0.2643,-0.0324,-0.0038,0.0266,4563,2019-08-07 16:48:23:710
-6.0678,-6.9591,1.1071,-0.4416,-0.3418,0.2643,-0.0314,0.0463,0.0192,4568,2019-08-07 16:48:23:715
-6.2448,-6.9209,1.1684,-0.2108,-0.3307,0.237,-0.0314,0.0463,0.0192,4573,2019-08-07 16:48:23:720
-6.2448,-6.9209,1.1684,-0.2108,-0.3307,0.237,-0.0303,0.0836,0.0021,4578,2019-08-07 16:48:23:725
-6.417,-6.8541,1.291,-0.2108,-0.3307,0.237,-0.0303,0.0836,0.0021,4582,2019-08-07 16:48:23:729
-6.417,-6.8541,1.291,-0.2108,-0.3307,0.237,-0.0303,0.0836,0.0021,4588,2019-08-07 16:48:23:735
-6.417,-6.8541,1.291,0.0148,-0.4352,0.0798,-0.0186,0.0857,-0.0075,4592,2019-08-07 16:48:23:739
-6.4457,-6.8541,1.2203,0.0148,-0.4352,0.0798,-0.0186,0.0857,-0.0075,4598,2019-08-07 16:48:23:745
-6.4457,-6.8541,1.2203,0.0148,-0.4352,0.0798,-0.0133,0.0814,-0.0202,4603,2019-08-07 16:48:23:750
-6.4505,-6.835,1.2769,0.0148,-0.4352,0.0798,-0.0133,0.0814,-0.0202,4608,2019-08-07 16:48:23:755
-6.4505,-6.835,1.2769,-0.0437,-0.389,0.0758,-0.0229,0.0559,-0.0298,4613,2019-08-07 16:48:23:760
-6.4457,-6.8111,1.3051,-0.0437,-0.389,0.0758,-0.0229,0.0559,-0.0298,4619,2019-08-07 16:48:23:766
-6.4457,-6.8111,1.3051,-0.0437,-0.389,0.0758,-0.0175,0.0122,-0.0234,4623,2019-08-07 16:48:23:770
-6.4457,-6.8111,1.3051,-0.0437,-0.389,0.0758,-0.0175,0.0122,-0.0234,4628,2019-08-07 16:48:23:775
-6.4457,-6.8064,1.39,-0.0136,-0.4487,-0.0197,-0.0175,0.0122,-0.0234,4634,2019-08-07 16:48:23:781
-6.4457,-6.8064,1.39,-0.0136,-0.4487,-0.0197,-0.0154,-0.0421,-0.0064,4638,2019-08-07 16:48:23:785
-6.326,-6.9066,1.39,-0.0136,-0.4487,-0.0197,-0.0154,-0.0421,-0.0064,4643,2019-08-07 16:48:23:790
-6.326,-6.9066,1.39,-0.0136,-0.4487,-0.0197,-0.025,-0.1103,0.0085,4649,2019-08-07 16:48:23:796
-6.326,-6.9066,1.39,-0.2324,-0.2528,0.03,-0.025,-0.1103,0.0085,4653,2019-08-07 16:48:23:800
-6.0629,-7.0451,1.2957,-0.2324,-0.2528,0.03,-0.0335,-0.1401,0.017,4658,2019-08-07 16:48:23:805
-6.0629,-7.0451,1.2957,-0.2324,-0.2528,0.03,-0.0335,-0.1401,0.017,4663,2019-08-07 16:48:23:810
-5.9768,-7.088,1.2863,-0.2324,-0.2528,0.03,-0.0324,-0.1327,0.0192,4668,2019-08-07 16:48:23:815
-5.9768,-7.088,1.2863,-0.498,-0.1855,0.0899,-0.0324,-0.1327,0.0192,4673,2019-08-07 16:48:23:820
-5.9768,-7.088,1.2863,-0.498,-0.1855,0.0899,-0.0165,-0.072,0.0266,4677,2019-08-07 16:48:23:824
-6.0102,-7.0498,1.2863,-0.498,-0.1855,0.0899,-0.0165,-0.072,0.0266,4683,2019-08-07 16:48:23:830
-6.0102,-7.0498,1.2863,-0.498,-0.1855,0.0899,-0.0165,-0.072,0.0266,4687,2019-08-07 16:48:23:834
-6.0102,-7.0498,1.2863,-0.3752,-0.2742,0.2208,-0.0069,0.0047,0.0298,4693,2019-08-07 16:48:23:840
-6.0102,-7.0498,1.2863,-0.3752,-0.2742,0.2208,-0.0069,0.0047,0.0298,4698,2019-08-07 16:48:23:845
-6.149,-6.9496,1.2297,-0.3752,-0.2742,0.2208,-0.009,0.0442,0.0266,4704,2019-08-07 16:48:23:851
-6.149,-6.9496,1.2297,-0.3752,-0.2742,0.2208,-0.009,0.0442,0.0266,4708,2019-08-07 16:48:23:855
-6.3355,-6.8303,1.3947,-0.1272,-0.419,-0.01,-0.009,0.0836,0.0234,4713,2019-08-07 16:48:23:860
-6.3355,-6.8303,1.3947,-0.1272,-0.419,-0.01,-0.009,0.0836,0.0234,4718,2019-08-07 16:48:23:865
-6.3355,-6.8303,1.3947,-0.1272,-0.419,-0.01,-0.0079,0.0857,0.0192,4723,2019-08-07 16:48:23:870
-6.5125,-6.8541,1.3382,-0.1272,-0.419,-0.01,-0.0079,0.0857,0.0192,4728,2019-08-07 16:48:23:875
-6.5125,-6.8541,1.3382,0.0817,-0.3966,0.1283,-0.0175,0.0761,0.017,4734,2019-08-07 16:48:23:881
-6.5747,-6.8684,1.3665,0.0817,-0.3966,0.1283,-0.0175,0.0761,0.017,4738,2019-08-07 16:48:23:885
-6.5747,-6.8684,1.3665,0.0817,-0.3966,0.1283,-0.0165,0.0473,0.017,4743,2019-08-07 16:48:23:890
-6.5747,-6.8684,1.3665,0.0817,-0.3966,0.1283,-0.0165,0.0473,0.017,4749,2019-08-07 16:48:23:896
-6.5699,-6.9496,1.4466,0.0667,-0.2979,-0.0872,-0.0165,0.0473,0.017,4753,2019-08-07 16:48:23:900
-6.5699,-6.9496,1.4466,0.0667,-0.2979,-0.0872,-0.0047,-0.0059,0.0139,4758,2019-08-07 16:48:23:905
-6.1298,-6.9782,1.4419,0.0667,-0.2979,-0.0872,-0.0047,-0.0059,0.0139,4763,2019-08-07 16:48:23:910
-6.1298,-6.9782,1.4419,0.0667,-0.2979,-0.0872,-5.0E-4,-0.0507,0.0,4768,2019-08-07 16:48:23:915
-6.1298,-6.9782,1.4419,-0.2013,-0.321,0.3028,-5.0E-4,-0.0507,0.0,4773,2019-08-07 16:48:23:920
-6.3068,-6.8398,1.1543,-0.2013,-0.321,0.3028,-0.009,-0.023,-0.0085,4777,2019-08-07 16:48:23:924
-6.3068,-6.8398,1.1543,-0.2013,-0.321,0.3028,-0.009,-0.023,-0.0085,4783,2019-08-07 16:48:23:930
-6.3881,-6.7777,1.2486,-0.2013,-0.321,0.3028,-0.009,-0.023,-0.0085,4788,2019-08-07 16:48:23:935
-6.3881,-6.7777,1.2486,-0.2013,-0.321,0.3028,-0.0846,-0.0677,0.0117,4793,2019-08-07 16:48:23:940
-6.3881,-6.7777,1.2486,-0.3726,-0.3217,-0.1964,-0.0846,-0.0677,0.0117,4798,2019-08-07 16:48:23:945
-6.0148,-7.0594,1.3853,-0.3726,-0.3217,-0.1964,6.0E-4,-0.0475,-0.0021,4803,2019-08-07 16:48:23:950
-6.0148,-7.0594,1.3853,-0.3726,-0.3217,-0.1964,6.0E-4,-0.0475,-0.0021,4807,2019-08-07 16:48:23:954
-6.1535,-7.0069,1.0318,-0.3187,-0.2362,0.3408,0.0389,-0.0038,0.0075,4813,2019-08-07 16:48:23:960
-6.1535,-7.0069,1.0318,-0.3187,-0.2362,0.3408,0.0389,-0.0038,0.0075,4818,2019-08-07 16:48:23:965
-6.1535,-7.0069,1.0318,-0.3187,-0.2362,0.3408,0.024,0.0548,0.0245,4823,2019-08-07 16:48:23:970
-6.1583,-6.7969,1.1638,-0.3187,-0.2362,0.3408,0.024,0.0548,0.0245,4827,2019-08-07 16:48:23:974
-6.1583,-6.7969,1.1638,-0.2084,-0.4526,0.167,0.024,0.0548,0.0245,4833,2019-08-07 16:48:23:980
-6.3736,-6.7587,1.2769,-0.2084,-0.4526,0.167,0.0261,0.0655,0.0064,4837,2019-08-07 16:48:23:984
-6.3736,-6.7587,1.2769,-0.2084,-0.4526,0.167,0.0261,0.0655,0.0064,4843,2019-08-07 16:48:23:990
-6.3736,-6.7587,1.2769,-0.2084,-0.4526,0.167,0.0176,0.0559,0.0043,4848,2019-08-07 16:48:23:995
-6.3496,-6.8923,1.2864,-0.0637,-0.307,0.1479,0.0176,0.0559,0.0043,4854,2019-08-07 16:48:24:001
-6.3496,-6.8923,1.2864,-0.0637,-0.307,0.1479,0.0176,0.0559,0.0043,4858,2019-08-07 16:48:24:005
-6.3783,-6.9687,1.2911,-0.0637,-0.307,0.1479,-5.0E-4,0.0271,0.0117,4863,2019-08-07 16:48:24:010
-6.3783,-6.9687,1.2911,-0.0637,-0.307,0.1479,-5.0E-4,0.0271,0.0117,4867,2019-08-07 16:48:24:014
-6.3783,-6.9687,1.2911,-0.1484,-0.2904,-0.0726,0.0059,0.0207,0.0192,4873,2019-08-07 16:48:24:020
-6.3305,-6.9735,1.4419,-0.1484,-0.2904,-0.0726,0.0059,0.0207,0.0192,4877,2019-08-07 16:48:24:024
-6.3305,-6.9735,1.4419,-0.1484,-0.2904,-0.0726,0.024,0.0101,0.0171,4883,2019-08-07 16:48:24:030
-6.2061,-6.9544,1.3901,-0.1484,-0.2904,-0.0726,0.024,0.0101,0.0171,4888,2019-08-07 16:48:24:035