ACCELEROMETER X (m/s²),ACCELEROMETER Y (m/s²),ACCELEROMETER Z (m/s²),LINEAR ACCELERATION X (m/s²),LINEAR ACCELERATION Y (m/s²),LINEAR ACCELERATION Z (m/s²),GYROSCOPE X (rad/s),GYROSCOPE Y (rad/s),GYROSCOPE Z (rad/s),Time since start in ms ,YYYY-MO-DD HH-MI-SS_SSS
-6.6066,-6.3626,1.5978,-0.3668,-0.3729,-0.1005,0.0432,-0.0379,0.0362,3,2019-08-07 16:49:48:000
-6.6066,-6.3626,1.5978,-0.3668,-0.3729,-0.1005,0.0432,-0.0379,0.0362,7,2019-08-07 16:49:48:004
-6.621,-6.3244,1.4799,-0.3668,-0.3729,-0.1005,0.0347,-0.0166,0.0416,13,2019-08-07 16:49:48:010
-6.621,-6.3244,1.4799,-0.3668,-0.3729,-0.1005,0.0347,-0.0166,0.0416,17,2019-08-07 16:49:48:014
-6.6736,-6.3387,1.4988,-0.3769,-0.3942,-0.017,0.0229,0.0165,0.0426,23,2019-08-07 16:49:48:020
-6.6736,-6.3387,1.4988,-0.3769,-0.3942,-0.017,0.0229,0.0165,0.0426,27,2019-08-07 16:49:48:024
-6.6736,-6.3387,1.4988,-0.3769,-0.3942,-0.017,0.0048,0.0367,0.0437,33,2019-08-07 16:49:48:030
-6.7501,-6.291,1.4988,-0.3769,-0.3942,-0.017,0.0048,0.0367,0.0437,37,2019-08-07 16:49:48:034
-6.7501,-6.291,1.4988,-0.2454,-0.3488,0.0095,0.0048,0.0367,0.0437,43,2019-08-07 16:49:48:040
-6.7501,-6.291,1.4988,-0.2454,-0.3488,0.0095,-0.0101,0.0527,0.0448,48,2019-08-07 16:49:48:045
-6.7836,-6.4772,1.4752,-0.2454,-0.3488,0.0095,-0.0101,0.0527,0.0448,53,2019-08-07 16:49:48:050
-6.7836,-6.4772,1.4752,-0.2454,-0.3488,0.0095,-0.0133,0.0463,0.0394,57,2019-08-07 16:49:48:054
-6.8267,-6.5297,1.5224,-0.2097,-0.1902,-0.0362,-0.0133,0.0463,0.0394,63,2019-08-07 16:49:48:060
-6.8267,-6.5297,1.5224,-0.2097,-0.1902,-0.0362,-0.0143,0.026,0.0405,67,2019-08-07 16:49:48:064
-6.8267,-6.5297,1.5224,-0.2097,-0.1902,-0.0362,-0.0143,0.026,0.0405,73,2019-08-07 16:49:48:070
-6.6975,-6.606,1.4281,-0.2097,-0.1902,-0.0362,-0.0101,0.0101,0.0458,77,2019-08-07 16:49:48:074
-6.6975,-6.606,1.4281,-0.2781,-0.118,-0.0311,-0.0101,0.0101,0.0458,83,2019-08-07 16:49:48:080
-6.7022,-6.6013,1.4328,-0.2781,-0.118,-0.0311,-0.0101,0.0101,0.0458,87,2019-08-07 16:49:48:084
-6.7022,-6.6013,1.4328,-0.2781,-0.118,-0.0311,-0.0026,0.0026,0.049,93,2019-08-07 16:49:48:090
-6.7022,-6.6013,1.4328,-0.2781,-0.118,-0.0311,-0.0026,0.0026,0.049,98,2019-08-07 16:49:48:095
-6.7118,-6.5822,1.5648,-0.2935,-0.1214,-0.0738,0.0102,-0.0102,0.0511,102,2019-08-07 16:49:48:099
-6.7118,-6.5822,1.5648,-0.2935,-0.1214,-0.0738,0.0102,-0.0102,0.0511,107,2019-08-07 16:49:48:104
-6.7788,-6.5201,1.4705,-0.2935,-0.1214,-0.0738,0.024,-0.0176,0.049,113,2019-08-07 16:49:48:110
-6.7788,-6.5201,1.4705,-0.2935,-0.1214,-0.0738,0.024,-0.0176,0.049,117,2019-08-07 16:49:48:114
-6.7788,-6.5201,1.4705,-0.2419,-0.2671,0.0962,0.0229,-0.0187,0.0458,123,2019-08-07 16:49:48:120
-6.7166,-6.4246,1.3668,-0.2419,-0.2671,0.0962,0.0229,-0.0187,0.0458,128,2019-08-07 16:49:48:125
-6.7166,-6.4246,1.3668,-0.2419,-0.2671,0.0962,0.0261,-0.0102,0.0373,133,2019-08-07 16:49:48:130
-6.7644,-6.3769,1.3008,-0.2419,-0.2671,0.0962,0.0261,-0.0102,0.0373,137,2019-08-07 16:49:48:134
-6.7644,-6.3769,1.3008,-0.2807,-0.2939,0.2044,0.0251,0.0111,0.0341,143,2019-08-07 16:49:48:140
-6.7644,-6.3769,1.3008,-0.2807,-0.2939,0.2044,0.0251,0.0111,0.0341,148,2019-08-07 16:49:48:145
-6.7788,-6.3674,1.2867,-0.2807,-0.2939,0.2044,0.0251,0.0111,0.0341,152,2019-08-07 16:49:48:149
-6.7788,-6.3674,1.2867,-0.2807,-0.2939,0.2044,0.0293,0.0367,0.0266,158,2019-08-07 16:49:48:155
-6.7883,-6.4008,1.3668,-0.2478,-0.3792,0.2032,0.0293,0.0473,0.0235,163,2019-08-07 16:49:48:160
-6.7883,-6.4008,1.3668,-0.2478,-0.3792,0.2032,0.0293,0.0473,0.0235,168,2019-08-07 16:49:48:165
-6.7883,-6.4008,1.3668,-0.2478,-0.3792,0.2032,0.0421,0.0537,0.0224,173,2019-08-07 16:49:48:170
-6.7644,-6.4151,1.4281,-0.2478,-0.3792,0.2032,0.0421,0.0537,0.0224,178,2019-08-07 16:49:48:175
-6.7644,-6.4151,1.4281,-0.2097,-0.3268,0.0406,0.0538,0.0378,0.0235,183,2019-08-07 16:49:48:180
-6.7644,-6.4151,1.4281,-0.2097,-0.3268,0.0406,0.0538,0.0378,0.0235,188,2019-08-07 16:49:48:185
-6.7883,-6.3101,1.4894,-0.2097,-0.3268,0.0406,0.0538,0.0378,0.0235,192,2019-08-07 16:49:48:189
-6.7883,-6.3101,1.4894,-0.2097,-0.3268,0.0406,0.0602,0.0122,0.0266,198,2019-08-07 16:49:48:195
-6.7883,-6.3101,1.4894,-0.2575,-0.3827,-0.0625,0.0602,0.0122,0.0266,203,2019-08-07 16:49:48:200
-6.774,-6.2814,1.5789,-0.2575,-0.3827,-0.0625,0.0613,-0.0304,0.0352,208,2019-08-07 16:49:48:205
-6.774,-6.2814,1.5789,-0.2575,-0.3827,-0.0625,0.0613,-0.0304,0.0352,213,2019-08-07 16:49:48:210
-6.7261,-6.2146,1.5554,-0.2575,-0.3827,-0.0625,0.0538,-0.0613,0.0448,217,2019-08-07 16:49:48:214
-6.7261,-6.2146,1.5554,-0.3723,-0.4508,0.0228,0.0538,-0.0613,0.0448,223,2019-08-07 16:49:48:220
-6.7261,-6.2146,1.5554,-0.3723,-0.4508,0.0228,0.0443,-0.0666,0.0501,227,2019-08-07 16:49:48:224
-6.6352,-6.2051,1.4988,-0.3723,-0.4508,0.0228,0.0443,-0.0666,0.0501,233,2019-08-07 16:49:48:230
-6.6352,-6.2051,1.4988,-0.3723,-0.4508,0.0228,0.0389,-0.0592,0.0512,238,2019-08-07 16:49:48:235
-6.573,-6.2098,1.4281,-0.4684,-0.4466,0.1038,0.0389,-0.0592,0.0512,242,2019-08-07 16:49:48:239
-6.573,-6.2098,1.4281,-0.4684,-0.4466,0.1038,0.0325,-0.0262,0.0522,248,2019-08-07 16:49:48:245
-6.573,-6.2098,1.4281,-0.4684,-0.4466,0.1038,0.0325,-0.0262,0.0522,253,2019-08-07 16:49:48:250
-6.5778,-6.1382,1.3668,-0.4684,-0.4466,0.1038,0.0325,-0.0262,0.0522,258,2019-08-07 16:49:48:255
-6.5778,-6.1382,1.3668,-0.4803,-0.5,0.2026,0.024,0.0346,0.0554,263,2019-08-07 16:49:48:260
-6.5778,-6.1382,1.3668,-0.4803,-0.5,0.2026,0.024,0.0346,0.0554,267,2019-08-07 16:49:48:264
-6.6495,-6.1239,1.4658,-0.4803,-0.5,0.2026,0.0123,0.0942,0.0512,273,2019-08-07 16:49:48:270
-6.6495,-6.1239,1.4658,-0.4803,-0.5,0.2026,0.0123,0.0942,0.0512,278,2019-08-07 16:49:48:275
-6.7978,-6.1096,1.4187,-0.2228,-0.5344,0.0317,0.0059,0.1134,0.0522,283,2019-08-07 16:49:48:280
-6.7978,-6.1096,1.4187,-0.2228,-0.5344,0.0317,0.0059,0.1134,0.0522,287,2019-08-07 16:49:48:284
-6.9892,-6.1764,1.5648,-0.0759,-0.458,-0.0468,0.0027,0.1123,0.0565,293,2019-08-07 16:49:48:290
-6.9892,-6.1764,1.5648,-0.0759,-0.458,-0.0468,0.0027,0.1123,0.0565,298,2019-08-07 16:49:48:295
-6.9892,-6.1764,1.5648,-0.0759,-0.458,-0.0468,0.0027,0.1123,0.0565,302,2019-08-07 16:49:48:299
-7.0562,-6.1716,1.6355,-0.0759,-0.458,-0.0468,0.0112,0.0655,0.0671,308,2019-08-07 16:49:48:305
-7.0562,-6.1716,1.6355,-0.0502,-0.3894,-0.1642,0.0112,0.0655,0.0671,313,2019-08-07 16:49:48:310
-7.0562,-6.1716,1.6355,-0.0502,-0.3894,-0.1642,0.0208,0.0314,0.0725,318,2019-08-07 16:49:48:315
-6.994,-6.2098,1.6591,-0.0502,-0.3894,-0.1642,0.0208,0.0314,0.0725,323,2019-08-07 16:49:48:320
-6.994,-6.2098,1.6591,-0.0502,-0.3894,-0.1642,0.0176,-0.0059,0.0799,328,2019-08-07 16:49:48:325
-6.994,-6.2098,1.6591,-0.0667,-0.3523,-0.048,0.0176,-0.0059,0.0799,332,2019-08-07 16:49:48:329
-7.0227,-6.2576,1.5601,-0.0667,-0.3523,-0.048,0.0208,-0.0272,0.0788,338,2019-08-07 16:49:48:335
-7.0227,-6.2576,1.5601,-0.0667,-0.3523,-0.048,0.0208,-0.0272,0.0788,343,2019-08-07 16:49:48:340
-6.9653,-6.3196,1.5742,-0.0667,-0.3523,-0.048,0.0208,-0.0272,0.0788,348,2019-08-07 16:49:48:345
-6.9653,-6.3196,1.5742,-0.1246,-0.3108,-0.0345,0.0283,-0.0411,0.0703,352,2019-08-07 16:49:48:349
-6.9318,-6.2862,1.5459,-0.1246,-0.3108,-0.0345,0.0283,-0.0411,0.0703,358,2019-08-07 16:49:48:355
-6.9318,-6.2862,1.5459,-0.1246,-0.3108,-0.0345,0.0261,-0.0379,0.0629,363,2019-08-07 16:49:48:360
-6.9318,-6.2862,1.5459,-0.1246,-0.3108,-0.0345,0.0261,-0.0379,0.0629,368,2019-08-07 16:49:48:365
-6.9365,-6.2337,1.513,-0.1246,-0.3108,-0.0345,0.0208,-0.024,0.048,372,2019-08-07 16:49:48:369
-6.9365,-6.2337,1.513,-0.1277,-0.3242,0.0592,0.0208,-0.024,0.048,378,2019-08-07 16:49:48:375
-6.9126,-6.291,1.4988,-0.1277,-0.3242,0.0592,0.0123,-0.007,0.0352,383,2019-08-07 16:49:48:380
-6.9126,-6.291,1.4988,-0.1277,-0.3242,0.0592,0.0123,-0.007,0.0352,387,2019-08-07 16:49:48:384
-6.9126,-6.291,1.4988,-0.1519,-0.3088,0.0184,6.0E-4,0.0175,0.0213,393,2019-08-07 16:49:48:390
-6.9605,-6.291,1.5082,-0.1519,-0.3088,0.0184,6.0E-4,0.0175,0.0213,398,2019-08-07 16:49:48:395
-6.9605,-6.291,1.5082,-0.1519,-0.3088,0.0184,-0.0037,0.0239,0.016,403,2019-08-07 16:49:48:400
-6.9605,-6.291,1.5082,-0.1519,-0.3088,0.0184,-0.0037,0.0239,0.016,408,2019-08-07 16:49:48:405
-6.9425,-6.3959,1.5221,-0.1519,-0.3088,0.0184,-0.0037,0.0122,0.0139,413,2019-08-07 16:49:48:410
-6.9425,-6.3959,1.5221,-0.2111,-0.1871,0.0389,-0.0037,0.0122,0.0139,418,2019-08-07 16:49:48:415
-6.976,-6.4436,1.5221,-0.2111,-0.1871,0.0389,-0.0069,0.0037,0.0032,422,2019-08-07 16:49:48:419
-6.976,-6.4436,1.5221,-0.2111,-0.1871,0.0389,-0.0069,0.0037,0.0032,428,2019-08-07 16:49:48:425
-6.976,-6.4436,1.5221,-0.2111,-0.1871,0.0389,-0.009,-0.0176,-0.0032,432,2019-08-07 16:49:48:429
-6.8946,-6.4723,1.5598,-0.221,-0.1057,-0.0322,-0.009,-0.0176,-0.0032,438,2019-08-07 16:49:48:435
-6.8946,-6.4723,1.5598,-0.221,-0.1057,-0.0322,-0.009,-0.0379,-0.0011,443,2019-08-07 16:49:48:440
-6.8516,-6.5391,1.5457,-0.221,-0.1057,-0.0322,-0.009,-0.0379,-0.0011,448,2019-08-07 16:49:48:445
-6.8516,-6.5391,1.5457,-0.221,-0.1057,-0.0322,-0.009,-0.0379,-0.0011,453,2019-08-07 16:49:48:450
-6.8516,-6.5391,1.5457,-0.2427,-0.1116,0.0202,-0.0069,-0.0507,-0.0064,457,2019-08-07 16:49:48:454
-6.8612,-6.4723,1.4891,-0.2427,-0.1116,0.0202,-0.0069,-0.0507,-0.0064,463,2019-08-07 16:49:48:460
-6.8612,-6.4723,1.4891,-0.2427,-0.1116,0.0202,-0.009,-0.0549,-0.0117,467,2019-08-07 16:49:48:464
-6.8612,-6.4723,1.4891,-0.2427,-0.1116,0.0202,-0.009,-0.0549,-0.0117,473,2019-08-07 16:49:48:470
-6.8373,-6.3291,1.4891,-0.2728,-0.2522,0.0503,-0.0101,-0.0464,-0.0181,478,2019-08-07 16:49:48:475
-6.8373,-6.3291,1.4891,-0.2728,-0.2522,0.0503,-0.0101,-0.0464,-0.0181,482,2019-08-07 16:49:48:479
-6.8373,-6.3291,1.4891,-0.2728,-0.2522,0.0503,-0.0101,-0.0357,-0.0213,488,2019-08-07 16:49:48:485
-6.8277,-6.2145,1.4703,-0.2728,-0.2522,0.0503,-0.0101,-0.0357,-0.0213,493,2019-08-07 16:49:48:490
-6.8277,-6.2145,1.4703,-0.2501,-0.3601,0.0923,-0.0101,-0.0219,-0.0287,498,2019-08-07 16:49:48:495
-6.8468,-6.1286,1.475,-0.2501,-0.3601,0.0923,-0.0101,-0.0219,-0.0287,502,2019-08-07 16:49:48:499
-6.8468,-6.1286,1.475,-0.2501,-0.3601,0.0923,-0.0101,-0.0219,-0.0287,508,2019-08-07 16:49:48:505
-6.8468,-6.1286,1.475,-0.2501,-0.3601,0.0923,-0.0101,-0.0049,-0.0309,513,2019-08-07 16:49:48:510
-6.866,-6.1047,1.4561,-0.237,-0.4831,0.0881,-0.0101,-0.0049,-0.0309,517,2019-08-07 16:49:48:514
-6.866,-6.1047,1.4561,-0.237,-0.4831,0.0881,-0.0101,-0.0049,-0.0309,523,2019-08-07 16:49:48:520
-6.866,-6.1047,1.4561,-0.237,-0.4831,0.0881,-0.0101,-0.0049,-0.0309,528,2019-08-07 16:49:48:525
-6.9473,-6.162,1.4656,-0.2018,-0.3849,0.1198,-0.0197,-0.0027,-0.0341,533,2019-08-07 16:49:48:530
-6.9473,-6.162,1.4656,-0.2018,-0.3849,0.1198,-0.0197,-0.0027,-0.0341,538,2019-08-07 16:49:48:535
-6.9473,-6.162,1.4656,-0.2018,-0.3849,0.1198,-0.0197,-0.0283,-0.0319,542,2019-08-07 16:49:48:539
-6.8517,-6.162,1.5363,-0.2504,-0.3892,0.0306,-0.0197,-0.0283,-0.0319,547,2019-08-07 16:49:48:544
-6.8517,-6.162,1.5363,-0.2504,-0.3892,0.0306,-0.0122,-0.0432,-0.0234,553,2019-08-07 16:49:48:550
-6.799,-6.2288,1.5221,-0.2504,-0.3892,0.0306,-0.0122,-0.0432,-0.0234,558,2019-08-07 16:49:48:555
-6.799,-6.2288,1.5221,-0.2504,-0.3892,0.0306,-0.0122,-0.0485,-0.017,562,2019-08-07 16:49:48:559
-6.799,-6.2288,1.5221,-0.3276,-0.4068,0.0498,-0.0122,-0.0485,-0.017,568,2019-08-07 16:49:48:565
-6.7847,-6.1429,1.4844,-0.3276,-0.4068,0.0498,-0.0101,-0.0411,-0.0138,572,2019-08-07 16:49:48:569
-6.7847,-6.1429,1.4844,-0.3276,-0.4068,0.0498,-0.0101,-0.0411,-0.0138,578,2019-08-07 16:49:48:575
-6.7034,-6.1763,1.4373,-0.3276,-0.4068,0.0498,-0.0037,-0.0368,-0.0085,582,2019-08-07 16:49:48:579
-6.7034,-6.1763,1.4373,-0.3778,-0.3844,0.1486,-0.0037,-0.0368,-0.0085,588,2019-08-07 16:49:48:585
-6.7034,-6.1763,1.4373,-0.3778,-0.3844,0.1486,6.0E-4,-0.0262,-0.0074,593,2019-08-07 16:49:48:590
-6.7369,-6.119,1.3524,-0.3778,-0.3844,0.1486,6.0E-4,-0.0262,-0.0074,597,2019-08-07 16:49:48:594
-6.7369,-6.119,1.3524,-0.3778,-0.3844,0.1486,0.0027,-0.0187,-0.0117,603,2019-08-07 16:49:48:600
-6.8326,-6.1047,1.3336,-0.2571,-0.4948,0.2222,0.0027,-0.0187,-0.0117,607,2019-08-07 16:49:48:604
-6.8326,-6.1047,1.3336,-0.2571,-0.4948,0.2222,0.0059,-0.0059,-0.0117,613,2019-08-07 16:49:48:610
-6.8326,-6.1047,1.3336,-0.2571,-0.4948,0.2222,0.0059,-0.0059,-0.0117,617,2019-08-07 16:49:48:614
-6.8565,-6.0474,1.4231,-0.2571,-0.4948,0.2222,0.0059,-0.0059,-0.0117,623,2019-08-07 16:49:48:620
-6.8565,-6.0474,1.4231,-0.209,-0.5139,0.1617,0.008,-6.0E-4,-0.0096,627,2019-08-07 16:49:48:624
-6.8087,-6.0951,1.3618,-0.209,-0.5139,0.1617,0.008,-6.0E-4,-0.0096,633,2019-08-07 16:49:48:630
-6.8087,-6.0951,1.3618,-0.209,-0.5139,0.1617,0.007,0.0101,-0.0149,638,2019-08-07 16:49:48:635
-6.8087,-6.0951,1.3618,-0.209,-0.5139,0.1617,0.007,0.0101,-0.0149,643,2019-08-07 16:49:48:640
-6.8565,-6.2049,1.3713,-0.2276,-0.4242,0.1458,0.0038,0.0218,-0.0149,648,2019-08-07 16:49:48:645
-6.8565,-6.2049,1.3713,-0.2276,-0.4242,0.1458,0.0038,0.0218,-0.0149,652,2019-08-07 16:49:48:649
-6.8757,-6.3147,1.4985,-0.2276,-0.4242,0.1458,0.0102,0.0154,-0.0117,658,2019-08-07 16:49:48:655
-6.8757,-6.3147,1.4985,-0.2276,-0.4242,0.1458,0.0102,0.0154,-0.0117,663,2019-08-07 16:49:48:660
-6.8757,-6.3147,1.4985,-0.2696,-0.2394,0.0034,0.0102,-0.008,-0.0085,667,2019-08-07 16:49:48:664
-6.8326,-6.3768,1.5315,-0.2696,-0.2394,0.0034,0.0102,-0.008,-0.0085,673,2019-08-07 16:49:48:670
-6.8326,-6.3768,1.5315,-0.2696,-0.2394,0.0034,0.0102,-0.008,-0.0085,677,2019-08-07 16:49:48:674
-6.8326,-6.3768,1.5315,-0.2696,-0.2394,0.0034,0.0059,-0.0336,-0.0042,683,2019-08-07 16:49:48:680
-6.7274,-6.4341,1.541,-0.3918,-0.1449,0.061,0.0059,-0.0336,-0.0042,688,2019-08-07 16:49:48:685
-6.7274,-6.4341,1.541,-0.3918,-0.1449,0.061,-0.0015,-0.0528,0.0011,693,2019-08-07 16:49:48:690
-6.6317,-6.4675,1.508,-0.4527,-0.1359,0.0551,-0.0015,-0.0528,0.0011,698,2019-08-07 16:49:48:695
-6.6317,-6.4675,1.508,-0.4527,-0.1359,0.0551,-0.0037,-0.0443,-0.0021,702,2019-08-07 16:49:48:699
-6.6317,-6.4675,1.508,-0.4527,-0.1359,0.0551,-0.0037,-0.0443,-0.0021,708,2019-08-07 16:49:48:705
-6.6843,-6.4579,1.4278,-0.4527,-0.1359,0.0551,-0.0037,-0.0294,-0.0011,713,2019-08-07 16:49:48:710
-6.6843,-6.4579,1.4278,-0.4697,-0.1372,0.0688,-0.0037,-0.0294,-0.0011,718,2019-08-07 16:49:48:715
-6.6843,-6.4579,1.4278,-0.4697,-0.1372,0.0688,-0.0069,-6.0E-4,-0.0011,723,2019-08-07 16:49:48:720
-6.6843,-6.372,1.4985,-0.4697,-0.1372,0.0688,-0.0069,-6.0E-4,-0.0011,728,2019-08-07 16:49:48:725
-6.6843,-6.372,1.4985,-0.4697,-0.1372,0.0688,-0.0069,-6.0E-4,-0.0011,733,2019-08-07 16:49:48:730
-6.6843,-6.372,1.4985,-0.4697,-0.1372,0.0688,-0.009,0.0292,-0.0042,737,2019-08-07 16:49:48:734
-6.7226,-6.3911,1.5457,-0.3588,-0.2151,0.0188,-0.009,0.0292,-0.0042,743,2019-08-07 16:49:48:740
-6.7226,-6.3911,1.5457,-0.3588,-0.2151,0.0188,-0.0026,0.0505,-0.0042,747,2019-08-07 16:49:48:744
-6.8087,-6.3434,1.5504,-0.3588,-0.2151,0.0188,0.0038,0.0516,0.0,753,2019-08-07 16:49:48:750
-6.8087,-6.3434,1.5504,-0.3588,-0.2151,0.0188,0.0038,0.0516,0.0,757,2019-08-07 16:49:48:754
-6.8087,-6.3434,1.5504,-0.25,-0.3729,0.0168,0.0038,0.0516,0.0,763,2019-08-07 16:49:48:760
-6.8901,-6.267,1.5645,-0.25,-0.3729,0.0168,0.0102,0.0388,0.0053,767,2019-08-07 16:49:48:764
-6.8901,-6.267,1.5645,-0.25,-0.3729,0.0168,0.0102,0.0388,0.0053,773,2019-08-07 16:49:48:770
-6.8901,-6.1906,1.6541,-0.25,-0.3729,0.0168,0.0091,0.0069,0.0128,777,2019-08-07 16:49:48:774
-6.8901,-6.1906,1.6541,-0.2048,-0.4086,-0.088,0.0091,0.0069,0.0128,783,2019-08-07 16:49:48:780
-6.8901,-6.1906,1.6541,-0.2048,-0.4086,-0.088,0.0059,-0.0198,0.0266,787,2019-08-07 16:49:48:784
-6.871,-6.1667,1.6399,-0.2048,-0.4086,-0.088,0.0059,-0.0198,0.0266,793,2019-08-07 16:49:48:790
-6.871,-6.1667,1.6399,-0.2048,-0.4086,-0.088,6.0E-4,-0.0517,0.0373,798,2019-08-07 16:49:48:795
-6.737,-6.2383,1.5598,-0.3231,-0.3602,-0.0153,6.0E-4,-0.0517,0.0373,802,2019-08-07 16:49:48:799
-6.737,-6.2383,1.5598,-0.3231,-0.3602,-0.0153,0.0038,-0.0613,0.0479,808,2019-08-07 16:49:48:805
-6.737,-6.2383,1.5598,-0.3231,-0.3602,-0.0153,0.0038,-0.0613,0.0479,813,2019-08-07 16:49:48:810
-6.7083,-6.2908,1.5268,-0.457,-0.3339,0.1256,0.0016,-0.056,0.0543,818,2019-08-07 16:49:48:815
-6.7083,-6.2908,1.5268,-0.457,-0.3339,0.1256,0.0016,-0.056,0.0543,822,2019-08-07 16:49:48:819
-6.7227,-6.2527,1.4749,-0.457,-0.3339,0.1256,-0.0015,-0.0368,0.0543,828,2019-08-07 16:49:48:825
-6.7227,-6.2527,1.4749,-0.3834,-0.3587,0.1472,-0.0015,-0.0368,0.0543,832,2019-08-07 16:49:48:829
-6.7227,-6.2527,1.4749,-0.3834,-0.3587,0.1472,-0.0026,-0.0144,0.0554,838,2019-08-07 16:49:48:835
-6.7131,-6.2527,1.4089,-0.3834,-0.3587,0.1472,-0.0026,-0.0144,0.0554,843,2019-08-07 16:49:48:840
-6.7131,-6.2527,1.4089,-0.3834,-0.3587,0.1472,-0.0069,0.0175,0.0511,848,2019-08-07 16:49:48:845
-6.8088,-6.2097,1.4467,-0.3379,-0.3321,0.0898,-0.0069,0.0175,0.0511,853,2019-08-07 16:49:48:850
-6.8088,-6.2097,1.4467,-0.3379,-0.3321,0.0898,-0.009,0.0431,0.0458,857,2019-08-07 16:49:48:854
-6.8088,-6.2097,1.4467,-0.2606,-0.3764,0.1145,-0.009,0.0431,0.0458,863,2019-08-07 16:49:48:860
-6.8997,-6.1858,1.4938,-0.2606,-0.3764,0.1145,-0.0111,0.0505,0.0448,867,2019-08-07 16:49:48:864
-6.8997,-6.1858,1.4938,-0.2606,-0.3764,0.1145,-0.0111,0.0505,0.0448,873,2019-08-07 16:49:48:870
-6.8997,-6.1858,1.4938,-0.2606,-0.3764,0.1145,-0.0143,0.0378,0.0394,877,2019-08-07 16:49:48:874
-6.9715,-6.2383,1.5126,-0.1729,-0.2884,-0.0207,-0.0143,0.0378,0.0394,883,2019-08-07 16:49:48:880
-6.9715,-6.2383,1.5126,-0.1729,-0.2884,-0.0207,-0.0143,0.0378,0.0394,887,2019-08-07 16:49:48:884
-6.9954,-6.2574,1.5786,-0.1729,-0.2884,-0.0207,-0.0186,5.0E-4,0.0437,893,2019-08-07 16:49:48:890
-6.9954,-6.2574,1.5786,-0.1729,-0.2884,-0.0207,-0.0229,-0.0304,0.0469,898,2019-08-07 16:49:48:895
-6.9954,-6.2574,1.5786,-0.1699,-0.3151,0.0106,-0.0229,-0.0304,0.0469,903,2019-08-07 16:49:48:900
-6.9476,-6.224,1.5315,-0.1699,-0.3151,0.0106,-0.0229,-0.0304,0.0469,908,2019-08-07 16:49:48:905
-6.9476,-6.224,1.5315,-0.1699,-0.3151,0.0106,-0.0229,-0.056,0.0479,912,2019-08-07 16:49:48:909
-6.8902,-6.3338,1.4938,-0.1699,-0.3151,0.0106,-0.0229,-0.056,0.0479,918,2019-08-07 16:49:48:915
-6.8902,-6.3338,1.4938,-0.256,-0.1894,0.0908,-0.026,-0.0645,0.0458,922,2019-08-07 16:49:48:919
-6.8902,-6.3338,1.4938,-0.256,-0.1894,0.0908,-0.026,-0.0645,0.0458,928,2019-08-07 16:49:48:925
-6.7706,-6.3577,1.3854,-0.256,-0.1894,0.0908,-0.0239,-0.0411,0.0426,933,2019-08-07 16:49:48:930
-6.7706,-6.3577,1.3854,-0.256,-0.1894,0.0908,-0.0239,-0.0411,0.0426,937,2019-08-07 16:49:48:934
-6.7802,-6.2622,1.3807,-0.3508,-0.2897,0.1872,-0.0143,-0.0123,0.0352,943,2019-08-07 16:49:48:940
-6.7802,-6.2622,1.3807,-0.3508,-0.2897,0.1872,-0.0143,-0.0123,0.0352,948,2019-08-07 16:49:48:945
-6.7802,-6.2622,1.3807,-0.3508,-0.2897,0.1872,-5.0E-4,0.026,0.0234,953,2019-08-07 16:49:48:950
-6.8806,-6.181,1.4325,-0.3508,-0.2897,0.1872,-5.0E-4,0.026,0.0234,957,2019-08-07 16:49:48:954
-6.8806,-6.181,1.4325,-0.2263,-0.3716,0.2113,0.0038,0.0473,0.0171,963,2019-08-07 16:49:48:960
-6.9811,-6.1619,1.3759,-0.2263,-0.3716,0.2113,0.0038,0.0473,0.0171,967,2019-08-07 16:49:48:964
-6.9811,-6.1619,1.3759,-0.2263,-0.3716,0.2113,6.0E-4,0.0537,0.0107,973,2019-08-07 16:49:48:970
-6.9811,-6.1619,1.3759,-0.2263,-0.3716,0.2113,6.0E-4,0.0537,0.0107,978,2019-08-07 16:49:48:975
-7.0672,-6.119,1.5032,-0.039,-0.3976,0.034,-0.0026,0.0335,0.0021,983,2019-08-07 16:49:48:980
-7.0672,-6.119,1.5032,-0.039,-0.3976,0.034,-0.0026,0.0335,0.0021,987,2019-08-07 16:49:48:984
-7.0673,-6.2479,1.5786,-0.039,-0.3976,0.034,-0.0047,-0.0049,0.0043,993,2019-08-07 16:49:48:990
-7.0673,-6.2479,1.5786,-0.039,-0.3976,0.034,-0.0047,-0.0049,0.0043,998,2019-08-07 16:49:48:995
-7.0673,-6.2479,1.5786,-0.1744,-0.3005,-0.0087,-0.0047,-0.0432,0.0053,1003,2019-08-07 16:49:49:000
-6.9285,-6.3147,1.5928,-0.1744,-0.3005,-0.0087,-0.0047,-0.0432,0.0053,1008,2019-08-07 16:49:49:005
-6.9285,-6.3147,1.5928,-0.1744,-0.3005,-0.0087,-0.0047,-0.0688,0.0085,1013,2019-08-07 16:49:49:010
-6.7706,-6.3004,1.5173,-0.1744,-0.3005,-0.0087,-0.0047,-0.0688,0.0085,1018,2019-08-07 16:49:49:015
-6.7706,-6.3004,1.5173,-0.4795,-0.2184,0.0424,-0.0101,-0.0741,0.0117,1022,2019-08-07 16:49:49:019
-6.7706,-6.3004,1.5173,-0.4795,-0.2184,0.0424,-0.0101,-0.0741,0.0117,1028,2019-08-07 16:49:49:025
-6.6511,-6.3768,1.4655,-0.4795,-0.2184,0.0424,-0.0133,-0.0539,0.016,1032,2019-08-07 16:49:49:029
-6.6511,-6.3768,1.4655,-0.4795,-0.2184,0.0424,-0.0133,-0.0539,0.016,1038,2019-08-07 16:49:49:035
-6.5936,-6.4245,1.3948,-0.5457,-0.1177,0.1756,-0.0079,-0.0208,0.0192,1043,2019-08-07 16:49:49:040
-6.5936,-6.4245,1.3948,-0.5457,-0.1177,0.1756,-0.0079,-0.0208,0.0192,1048,2019-08-07 16:49:49:045
-6.5936,-6.4245,1.3948,-0.5457,-0.1177,0.1756,-0.0079,-0.0208,0.0192,1052,2019-08-07 16:49:49:049
-6.7085,-6.372,1.4042,-0.5457,-0.1177,0.1756,-0.0069,0.0218,0.0192,1058,2019-08-07 16:49:49:055
-6.7085,-6.372,1.4042,-0.5457,-0.1177,0.1756,-0.0069,0.0218,0.0192,1063,2019-08-07 16:49:49:060
-6.809,-6.2861,1.4325,-0.4137,-0.2546,0.1823,-0.0026,0.0452,0.0128,1068,2019-08-07 16:49:49:065
-6.809,-6.2861,1.4325,-0.4137,-0.2546,0.1823,-0.0026,0.0452,0.0128,1072,2019-08-07 16:49:49:069
-6.809,-6.2861,1.4325,-0.4137,-0.2546,0.1823,-0.0015,0.0559,0.0075,1078,2019-08-07 16:49:49:075
-6.9477,-6.2335,1.522,-0.1825,-0.3342,0.0705,-0.0015,0.0559,0.0075,1083,2019-08-07 16:49:49:080
-6.9477,-6.2335,1.522,-0.1825,-0.3342,0.0705,-0.0015,0.0559,0.0075,1088,2019-08-07 16:49:49:085
-6.9477,-6.2335,1.522,-0.1825,-0.3342,0.0705,0.0016,0.0559,0.0075,1092,2019-08-07 16:49:49:089
-7.053,-6.1858,1.5032,-0.1825,-0.3342,0.0705,0.0027,0.0378,0.0021,1098,2019-08-07 16:49:49:095
-7.053,-6.1858,1.5032,-0.1825,-0.3342,0.0705,0.0027,0.0378,0.0021,1103,2019-08-07 16:49:49:100
-7.0386,-6.1715,1.555,-0.1518,-0.3421,0.0217,0.0027,0.0378,0.0021,1108,2019-08-07 16:49:49:105
-7.0386,-6.1715,1.555,-0.1518,-0.3421,0.0217,-0.0015,0.0058,-0.0021,1112,2019-08-07 16:49:49:109
-6.9669,-6.2813,1.4843,-0.1518,-0.3421,0.0217,-0.0015,0.0058,-0.0021,1118,2019-08-07 16:49:49:115
-6.9669,-6.2813,1.4843,-0.1518,-0.3421,0.0217,0.0059,-0.0208,0.0,1123,2019-08-07 16:49:49:120
-6.9669,-6.2813,1.4843,-0.2526,-0.1887,0.1123,0.0059,-0.0208,0.0,1128,2019-08-07 16:49:49:125
-6.8186,-6.3099,1.4702,-0.2526,-0.1887,0.1123,0.0091,-0.023,0.0,1133,2019-08-07 16:49:49:130
-6.8186,-6.3099,1.4702,-0.2526,-0.1887,0.1123,0.0091,-0.023,0.0,1137,2019-08-07 16:49:49:134
-6.8186,-6.3099,1.4702,-0.2526,-0.1887,0.1123,0.0123,-0.023,0.0021,1143,2019-08-07 16:49:49:140
-6.7899,-6.3147,1.4938,-0.3568,-0.2222,0.0651,0.0123,-0.023,0.0021,1148,2019-08-07 16:49:49:145
-6.7899,-6.3147,1.4938,-0.3568,-0.2222,0.0651,0.0123,-0.023,0.0021,1152,2019-08-07 16:49:49:149
-6.7851,-6.2288,1.4796,-0.3568,-0.2222,0.0651,0.0198,-0.008,0.0011,1158,2019-08-07 16:49:49:155
-6.7851,-6.2288,1.4796,-0.3568,-0.2222,0.0651,0.0198,-0.008,0.0011,1163,2019-08-07 16:49:49:160
-6.7851,-6.2288,1.4796,-0.3849,-0.3031,0.0975,0.0261,0.0047,0.0011,1168,2019-08-07 16:49:49:165
-6.7612,-6.2192,1.4843,-0.3849,-0.3031,0.0975,0.0261,0.0047,0.0011,1172,2019-08-07 16:49:49:169
-6.7612,-6.2192,1.4843,-0.3849,-0.3031,0.0975,0.0261,0.0186,0.0,1178,2019-08-07 16:49:49:175
-6.7947,-6.2144,1.4183,-0.3849,-0.3031,0.0975,0.0261,0.0186,0.0,1183,2019-08-07 16:49:49:180
-6.7947,-6.2144,1.4183,-0.3087,-0.3168,0.1172,0.0283,0.0356,-0.0032,1188,2019-08-07 16:49:49:185
-6.7947,-6.2144,1.4183,-0.3087,-0.3168,0.1172,0.0283,0.0356,-0.0032,1193,2019-08-07 16:49:49:190
-6.9239,-6.1333,1.4702,-0.2232,-0.4022,0.093,0.0272,0.0324,-0.0042,1198,2019-08-07 16:49:49:195
-6.9239,-6.1333,1.4702,-0.2232,-0.4022,0.093,0.0272,0.0324,-0.0042,1202,2019-08-07 16:49:49:199
-6.9239,-6.1333,1.4702,-0.2232,-0.4022,0.093,0.0272,0.0324,-0.0042,1208,2019-08-07 16:49:49:205
-6.8904,-6.1619,1.5267,-0.2232,-0.4022,0.093,0.023,0.025,-0.0053,1212,2019-08-07 16:49:49:209
-6.8904,-6.1619,1.5267,-0.3099,-0.3634,0.0313,0.023,0.025,-0.0053,1218,2019-08-07 16:49:49:215
-6.8091,-6.2049,1.4843,-0.3099,-0.3634,0.0313,0.0187,0.0143,-0.0053,1222,2019-08-07 16:49:49:219
-6.8091,-6.2049,1.4843,-0.3099,-0.3634,0.0313,0.0187,0.0143,-0.0053,1228,2019-08-07 16:49:49:225
-6.8091,-6.2049,1.4843,-0.3099,-0.3634,0.0313,0.0187,0.0047,-0.0021,1232,2019-08-07 16:49:49:229
-6.7947,-6.2908,1.5644,-0.3525,-0.2443,-5.0E-4,0.0187,0.0047,-0.0021,1238,2019-08-07 16:49:49:235
-6.7947,-6.2908,1.5644,-0.3525,-0.2443,-5.0E-4,0.0187,0.0047,-0.0021,1242,2019-08-07 16:49:49:239
-6.7947,-6.2908,1.5644,-0.3525,-0.2443,-5.0E-4,0.0187,-0.0027,0.0053,1248,2019-08-07 16:49:49:245
-6.7373,-6.3195,1.5314,-0.3525,-0.2443,-5.0E-4,0.0187,-0.0027,0.0053,1252,2019-08-07 16:49:49:249
-6.7373,-6.3195,1.5314,-0.4243,-0.2481,0.0362,0.0261,-0.0038,0.0149,1258,2019-08-07 16:49:49:255
-6.7278,-6.2717,1.522,-0.4243,-0.2481,0.0362,0.024,0.0047,0.0192,1263,2019-08-07 16:49:49:260
-6.7278,-6.2717,1.522,-0.4243,-0.2481,0.0362,0.024,0.0047,0.0192,1268,2019-08-07 16:49:49:265
-6.7278,-6.2717,1.522,-0.4243,-0.2481,0.0362,0.024,0.0047,0.0192,1272,2019-08-07 16:49:49:269
-6.7613,-6.1762,1.5267,-0.3503,-0.3544,0.039,0.0283,0.0143,0.0245,1278,2019-08-07 16:49:49:275
-6.7613,-6.1762,1.5267,-0.3503,-0.3544,0.039,0.0283,0.0143,0.0245,1283,2019-08-07 16:49:49:280
-6.833,-6.1906,1.489,-0.3503,-0.3544,0.039,0.0261,0.0282,0.0224,1288,2019-08-07 16:49:49:285
-6.833,-6.1906,1.489,-0.3503,-0.3544,0.039,0.0261,0.0282,0.0224,1292,2019-08-07 16:49:49:289
-6.833,-6.1906,1.489,-0.3303,-0.374,0.053,0.0219,0.0378,0.0181,1298,2019-08-07 16:49:49:295
-6.8952,-6.1428,1.5456,-0.3303,-0.374,0.053,0.0219,0.0378,0.0181,1302,2019-08-07 16:49:49:299
-6.8952,-6.1428,1.5456,-0.3303,-0.374,0.053,0.0219,0.0378,0.0181,1308,2019-08-07 16:49:49:305
-6.967,-6.1428,1.4702,-0.3303,-0.374,0.053,0.0123,0.0537,0.0021,1313,2019-08-07 16:49:49:310
-6.967,-6.1428,1.4702,-0.2048,-0.376,0.0807,0.0123,0.0537,0.0021,1318,2019-08-07 16:49:49:315
-6.967,-6.1428,1.4702,-0.2048,-0.376,0.0807,0.0059,0.0612,0.0043,1323,2019-08-07 16:49:49:320
-6.9431,-6.1953,1.4937,-0.2048,-0.376,0.0807,0.0059,0.0612,0.0043,1328,2019-08-07 16:49:49:325
-6.9431,-6.1953,1.4937,-0.2048,-0.376,0.0807,0.0027,0.0612,0.0011,1332,2019-08-07 16:49:49:329
-6.8905,-6.3099,1.4183,-0.2693,-0.2132,0.1381,0.0027,0.0612,0.0011,1338,2019-08-07 16:49:49:335
-6.8905,-6.3099,1.4183,-0.2693,-0.2132,0.1381,0.0016,0.0623,-0.0096,1342,2019-08-07 16:49:49:339
-6.8905,-6.3099,1.4183,-0.2693,-0.2132,0.1381,0.0016,0.0623,-0.0096,1348,2019-08-07 16:49:49:345
-6.8235,-6.3624,1.3665,-0.2693,-0.2132,0.1381,0.0134,0.0601,-0.0096,1353,2019-08-07 16:49:49:350
-6.8235,-6.3624,1.3665,-0.346,-0.1912,0.0825,0.0134,0.0601,-0.0096,1357,2019-08-07 16:49:49:354
-6.8235,-6.3624,1.3665,-0.346,-0.1912,0.0825,0.024,0.0559,0.0011,1363,2019-08-07 16:49:49:360
-6.8522,-6.3576,1.4702,-0.346,-0.1912,0.0825,0.024,0.0559,0.0011,1368,2019-08-07 16:49:49:365
-6.8522,-6.3576,1.4702,-0.346,-0.1912,0.0825,0.0283,0.0452,0.0096,1372,2019-08-07 16:49:49:369
-6.8427,-6.3004,1.4937,-0.3334,-0.238,-0.0018,0.0283,0.0452,0.0096,1378,2019-08-07 16:49:49:375
-6.8427,-6.3004,1.4937,-0.3334,-0.238,-0.0018,0.0325,0.0314,0.0171,1383,2019-08-07 16:49:49:380
-6.8427,-6.3004,1.4937,-0.3334,-0.238,-0.0018,0.0325,0.0314,0.0171,1387,2019-08-07 16:49:49:384
-6.8953,-6.2049,1.5503,-0.3334,-0.238,-0.0018,0.0325,0.0314,0.0171,1393,2019-08-07 16:49:49:390
-6.8953,-6.2049,1.5503,-0.2652,-0.3866,0.0035,0.0379,0.0228,0.0224,1398,2019-08-07 16:49:49:395
-6.8953,-6.2049,1.5503,-0.2652,-0.3866,0.0035,0.0379,0.0228,0.0224,1402,2019-08-07 16:49:49:399
-6.8643,-6.1192,1.5413,-0.2652,-0.3866,0.0035,0.0474,0.0164,0.0235,1408,2019-08-07 16:49:49:405
-6.8643,-6.1192,1.5413,-0.2652,-0.3866,0.0035,0.0474,0.0164,0.0235,1413,2019-08-07 16:49:49:410
-6.8978,-6.081,1.4942,-0.1712,-0.3953,0.0396,0.0432,0.0271,0.0171,1418,2019-08-07 16:49:49:415
-6.8978,-6.081,1.4942,-0.1712,-0.3953,0.0396,0.0432,0.0271,0.0171,1423,2019-08-07 16:49:49:420
-7.0126,-6.0523,1.5083,-0.1712,-0.3953,0.0396,0.0357,0.0378,0.0117,1428,2019-08-07 16:49:49:425
-7.0126,-6.0523,1.5083,-0.1712,-0.3953,0.0396,0.0357,0.0378,0.0117,1433,2019-08-07 16:49:49:430
-7.0126,-6.0523,1.5083,-0.1515,-0.4099,0.0296,0.0315,0.0452,0.0128,1437,2019-08-07 16:49:49:434
-7.0269,-6.1001,1.5319,-0.1515,-0.4099,0.0296,0.0315,0.0452,0.0128,1443,2019-08-07 16:49:49:440
-7.0269,-6.1001,1.5319,-0.1515,-0.4099,0.0296,0.0315,0.0452,0.0128,1448,2019-08-07 16:49:49:445
-6.9791,-6.1621,1.6498,-0.1515,-0.4099,0.0296,0.0261,0.0378,0.0149,1453,2019-08-07 16:49:49:450
-6.9791,-6.1621,1.6498,-0.1515,-0.4099,0.0296,0.0261,0.0378,0.0149,1458,2019-08-07 16:49:49:455
-6.9791,-6.1621,1.6498,-0.1267,-0.3056,-0.0985,0.0219,0.0218,0.0139,1462,2019-08-07 16:49:49:459
-7.0317,-6.1956,1.7393,-0.1267,-0.3056,-0.0985,0.0219,0.0218,0.0139,1468,2019-08-07 16:49:49:465
-7.0317,-6.1956,1.7393,-0.1267,-0.3056,-0.0985,0.0219,0.0026,0.0203,1473,2019-08-07 16:49:49:470
-6.9838,-6.1431,1.8666,-0.1267,-0.3056,-0.0985,0.0219,0.0026,0.0203,1478,2019-08-07 16:49:49:475
-6.9838,-6.1431,1.8666,-0.1922,-0.3534,-0.1975,0.0229,-0.0326,0.0277,1483,2019-08-07 16:49:49:480
-6.9838,-6.1431,1.8666,-0.1922,-0.3534,-0.1975,0.0229,-0.0326,0.0277,1488,2019-08-07 16:49:49:485
-6.9838,-6.1431,1.8666,-0.1922,-0.3534,-0.1975,0.0155,-0.0613,0.033,1492,2019-08-07 16:49:49:489
-6.9694,-6.1526,1.7723,-0.1922,-0.3534,-0.1975,0.0155,-0.0613,0.033,1498,2019-08-07 16:49:49:495
-6.9694,-6.1526,1.7723,-0.1812,-0.3802,-0.2087,-5.0E-4,-0.0752,0.0394,1503,2019-08-07 16:49:49:500
-7.0173,-6.0953,1.7158,-0.1812,-0.3802,-0.2087,-5.0E-4,-0.0752,0.0394,1507,2019-08-07 16:49:49:504
-7.0173,-6.0953,1.7158,-0.1812,-0.3802,-0.2087,-0.0122,-0.089,0.0416,1513,2019-08-07 16:49:49:510
-7.0173,-6.0953,1.7158,-0.1812,-0.3802,-0.2087,-0.0122,-0.089,0.0416,1517,2019-08-07 16:49:49:514
-6.9885,-6.0762,1.7158,-0.199,-0.4114,-0.1393,-0.0356,-0.0816,0.0341,1523,2019-08-07 16:49:49:520
-6.9885,-6.0762,1.7158,-0.199,-0.4114,-0.1393,-0.0356,-0.0816,0.0341,1528,2019-08-07 16:49:49:525
-7.0746,-6.0953,1.6969,-0.199,-0.4114,-0.1393,-0.0527,-0.0539,0.032,1533,2019-08-07 16:49:49:530
-7.0746,-6.0953,1.6969,-0.199,-0.4114,-0.1393,-0.0527,-0.0539,0.032,1537,2019-08-07 16:49:49:534
-7.0746,-6.0953,1.6969,-0.0636,-0.3875,-0.1862,-0.0591,-0.0283,0.0277,1543,2019-08-07 16:49:49:540
-7.1033,-6.2147,1.7535,-0.0636,-0.3875,-0.1862,-0.0591,-0.0283,0.0277,1548,2019-08-07 16:49:49:545
-7.1033,-6.2147,1.7535,-0.0636,-0.3875,-0.1862,-0.0591,-0.0283,0.0277,1553,2019-08-07 16:49:49:550
-7.1033,-6.2147,1.7535,-0.0636,-0.3875,-0.1862,-0.0527,-0.007,0.0192,1558,2019-08-07 16:49:49:555
-7.4621,-6.3388,2.1777,0.2679,-0.141,-0.5989,-0.0527,-0.007,0.0192,1563,2019-08-07 16:49:49:560
-7.4621,-6.3388,2.1777,0.2679,-0.141,-0.5989,-0.042,-0.0347,0.0256,1568,2019-08-07 16:49:49:565
-7.4621,-6.3388,2.1777,0.2679,-0.141,-0.5989,-0.042,-0.0347,0.0256,1572,2019-08-07 16:49:49:569
-8.0075,-6.5966,3.0639,0.2679,-0.141,-0.5989,-0.0175,-0.1135,0.0341,1578,2019-08-07 16:49:49:575
-8.0075,-6.5966,3.0639,1.0783,0.1377,-1.971,-0.0175,-0.1135,0.0341,1583,2019-08-07 16:49:49:580
-8.7586,-6.6539,4.3555,1.0783,0.1377,-1.971,0.0219,-0.2861,0.0522,1588,2019-08-07 16:49:49:585
-8.7586,-6.6539,4.3555,1.0783,0.1377,-1.971,0.0219,-0.2861,0.0522,1593,2019-08-07 16:49:49:590
-8.7586,-6.6539,4.3555,1.0783,0.1377,-1.971,0.0506,-0.5481,0.0831,1598,2019-08-07 16:49:49:595
-9.8063,-6.7207,5.8592,2.6112,0.2654,-4.1874,0.0506,-0.5481,0.0831,1603,2019-08-07 16:49:49:600
-9.8063,-6.7207,5.8592,2.6112,0.2654,-4.1874,0.0506,-0.5481,0.0831,1608,2019-08-07 16:49:49:605
-10.7919,-6.4152,7.5609,2.6112,0.2654,-4.1874,0.0219,-1.0169,0.1406,1613,2019-08-07 16:49:49:610
-10.7919,-6.4152,7.5609,2.6112,0.2654,-4.1874,0.0219,-1.0169,0.1406,1618,2019-08-07 16:49:49:615
-10.7919,-6.4152,7.5609,4.0956,-0.3743,-6.8206,-0.0761,-1.5697,0.1556,1622,2019-08-07 16:49:49:619
-11.6339,-5.8423,9.0646,4.0956,-0.3743,-6.8206,-0.0761,-1.5697,0.1556,1628,2019-08-07 16:49:49:625
-11.6339,-5.8423,9.0646,4.0956,-0.3743,-6.8206,-0.1944,-1.9511,0.1449,1633,2019-08-07 16:49:49:630
-11.6339,-5.8423,9.0646,4.0956,-0.3743,-6.8206,-0.1944,-1.9511,0.1449,1638,2019-08-07 16:49:49:635
-11.6339,-5.8423,9.0646,4.0956,-0.3743,-6.8206,-0.1944,-1.9511,0.1449,1642,2019-08-07 16:49:49:639
-11.5047,-5.1931,10.5825,4.3769,-1.1976,-8.4402,-0.2679,-2.1641,0.1076,1648,2019-08-07 16:49:49:645
-11.5047,-5.1931,10.5825,4.3769,-1.1976,-8.4402,-0.2679,-2.1641,0.1076,1653,2019-08-07 16:49:49:650
-11.5286,-4.4484,11.6101,4.3769,-1.1976,-8.4402,-0.286,-2.1205,0.0959,1658,2019-08-07 16:49:49:655
-11.5286,-4.4484,11.6101,4.7249,-2.3305,-9.592,-0.286,-2.1205,0.0959,1662,2019-08-07 16:49:49:659
-11.5286,-4.4484,11.6101,4.7249,-2.3305,-9.592,-0.2732,-2.0107,0.1406,1668,2019-08-07 16:49:49:665
-12.3323,-3.4936,13.2411,4.7249,-2.3305,-9.592,-0.2732,-2.0107,0.1406,1673,2019-08-07 16:49:49:670
-12.3323,-3.4936,13.2411,4.7249,-2.3305,-9.592,-0.2732,-2.0107,0.1406,1677,2019-08-07 16:49:49:674
-13.9589,-2.4434,15.1408,6.9816,-3.8833,-12.3974,-0.2519,-2.0097,0.2663,1683,2019-08-07 16:49:49:680
-13.9589,-2.4434,15.1408,6.9816,-3.8833,-12.3974,-0.2519,-2.0097,0.2663,1688,2019-08-07 16:49:49:685
-15.7195,-1.6462,16.2909,8.7741,-4.6442,-13.3877,-0.302,-2.3729,0.4773,1693,2019-08-07 16:49:49:690
-15.7195,-1.6462,16.2909,8.7741,-4.6442,-13.3877,-0.302,-2.3729,0.4773,1698,2019-08-07 16:49:49:695
-15.7195,-1.6462,16.2909,8.7741,-4.6442,-13.3877,-0.4309,-2.9812,0.6658,1703,2019-08-07 16:49:49:700
-18.4943,-0.5339,17.2054,8.7741,-4.6442,-13.3877,-0.4309,-2.9812,0.6658,1708,2019-08-07 16:49:49:705
-18.4943,-0.5339,17.2054,12.4513,-5.9696,-13.7997,-0.6226,-3.8334,0.8426,1712,2019-08-07 16:49:49:709
-18.4943,-0.5339,17.2054,12.4513,-5.9696,-13.7997,-0.6226,-3.8334,0.8426,1717,2019-08-07 16:49:49:714
-20.3936,0.3016,17.1536,12.4513,-5.9696,-13.7997,-0.9283,-5.0148,0.9939,1723,2019-08-07 16:49:49:720
-20.3936,0.3016,17.1536,12.4513,-5.9696,-13.7997,-0.9283,-5.0148,0.9939,1728,2019-08-07 16:49:49:725
-21.5562,1.4425,16.5738,14.9213,-7.5242,-12.6714,-1.1765,-5.9288,1.0802,1732,2019-08-07 16:49:49:729
-21.5562,1.4425,16.5738,14.9213,-7.5242,-12.6714,-1.1765,-5.9288,1.0802,1737,2019-08-07 16:49:49:734
-21.5562,1.4425,16.5738,14.9213,-7.5242,-12.6714,-1.1765,-5.9288,1.0802,1743,2019-08-07 16:49:49:740
-21.2548,2.1968,14.3253,14.7952,-8.2374,-10.0801,-1.4769,-6.5711,1.1303,1748,2019-08-07 16:49:49:745
-21.2548,2.1968,14.3253,14.7952,-8.2374,-10.0801,-1.4769,-6.5711,1.1303,1753,2019-08-07 16:49:49:750
-20.03,2.7744,12.1994,14.7952,-8.2374,-10.0801,-1.9489,-6.8886,1.1377,1757,2019-08-07 16:49:49:754
-20.03,2.7744,12.1994,13.7394,-8.8246,-6.7968,-1.9489,-6.8886,1.1377,1763,2019-08-07 16:49:49:760
-20.03,2.7744,12.1994,13.7394,-8.8246,-6.7968,-2.3217,-6.7693,1.1729,1768,2019-08-07 16:49:49:765
-19.2454,2.6503,10.6344,13.7394,-8.8246,-6.7968,-2.3217,-6.7693,1.1729,1772,2019-08-07 16:49:49:769
-19.2454,2.6503,10.6344,13.7394,-8.8246,-6.7968,-2.7158,-6.4891,1.2677,1778,2019-08-07 16:49:49:775
-19.2454,2.6503,10.6344,13.7394,-8.8246,-6.7968,-2.7158,-6.4891,1.2677,1783,2019-08-07 16:49:49:780
-19.1544,2.2206,9.3758,13.6532,-8.3243,-4.017,-3.1941,-6.1163,1.387,1788,2019-08-07 16:49:49:785
-19.1544,2.2206,9.3758,13.6532,-8.3243,-4.017,-3.1941,-6.1163,1.387,1792,2019-08-07 16:49:49:789
-20.7763,2.6885,8.3765,13.6532,-8.3243,-4.017,-3.1941,-6.1163,1.387,1798,2019-08-07 16:49:49:795
-20.7763,2.6885,8.3765,16.948,-9.3932,-2.1956,-3.5393,-5.9693,1.5042,1803,2019-08-07 16:49:49:800
-20.7763,2.6885,8.3765,16.948,-9.3932,-2.1956,-3.5393,-5.9693,1.5042,1808,2019-08-07 16:49:49:805
-22.8287,3.4666,6.9011,16.948,-9.3932,-2.1956,-3.8653,-6.1695,1.6491,1812,2019-08-07 16:49:49:809
-22.8287,3.4666,6.9011,16.948,-9.3932,-2.1956,-3.8653,-6.1695,1.6491,1818,2019-08-07 16:49:49:815
-22.8287,3.4666,6.9011,16.948,-9.3932,-2.1956,-4.2466,-6.7405,1.844,1823,2019-08-07 16:49:49:820
-25.2351,4.5121,3.8795,20.6286,-11.0424,1.81,-4.2466,-6.7405,1.844,1827,2019-08-07 16:49:49:824
-25.2351,4.5121,3.8795,20.6286,-11.0424,1.81,-4.4874,-7.3435,2.0517,1833,2019-08-07 16:49:49:830
-25.2351,4.5121,3.8795,20.6286,-11.0424,1.81,-4.4874,-7.3435,2.0517,1838,2019-08-07 16:49:49:835
-25.3308,4.5502,-1.5696,20.6286,-11.0424,1.81,-4.6695,-7.7355,2.2264,1843,2019-08-07 16:49:49:840
-25.3308,4.5502,-1.5696,20.2512,-11.0254,9.2907,-4.6695,-7.7355,2.2264,1848,2019-08-07 16:49:49:845
-22.422,3.2279,-6.5238,20.2512,-11.0254,9.2907,-4.6695,-7.7355,2.2264,1853,2019-08-07 16:49:49:850
-22.422,3.2279,-6.5238,20.2512,-11.0254,9.2907,-4.8677,-7.8857,2.2893,1857,2019-08-07 16:49:49:854
-22.422,3.2279,-6.5238,20.2512,-11.0254,9.2907,-4.8677,-7.8857,2.2893,1863,2019-08-07 16:49:49:860
-18.9916,1.4425,-9.9319,15.3943,-8.6458,15.5362,-4.9955,-7.7792,2.2467,1867,2019-08-07 16:49:49:864
-18.9916,1.4425,-9.9319,15.3943,-8.6458,15.5362,-4.9955,-7.7792,2.2467,1873,2019-08-07 16:49:49:870
-16.566,8.0E-4,-11.5723,15.3943,-8.6458,15.5362,-5.0317,-7.5491,2.1551,1878,2019-08-07 16:49:49:875
-16.566,8.0E-4,-11.5723,15.3943,-8.6458,15.5362,-5.0317,-7.5491,2.1551,1882,2019-08-07 16:49:49:879
-16.566,8.0E-4,-11.5723,12.658,-6.8981,17.744,-4.8996,-6.8577,1.9867,1887,2019-08-07 16:49:49:884
-15.1594,-1.0447,-13.0477,12.658,-6.8981,17.744,-4.8996,-6.8577,1.9867,1893,2019-08-07 16:49:49:890
-15.1594,-1.0447,-13.0477,12.658,-6.8981,17.744,-4.7367,-6.0161,1.844,1898,2019-08-07 16:49:49:895
-13.2457,-1.3216,-15.0558,12.658,-6.8981,17.744,-4.7367,-6.0161,1.844,1903,2019-08-07 16:49:49:900
-13.2457,-1.3216,-15.0558,9.957,-6.5912,20.2244,-4.7367,-6.0161,1.844,1908,2019-08-07 16:49:49:905
-13.2457,-1.3216,-15.0558,9.957,-6.5912,20.2244,-4.6163,-5.0904,1.6043,1913,2019-08-07 16:49:49:910
-11.4947,-1.6796,-16.0929,9.957,-6.5912,20.2244,-4.6163,-5.0904,1.6043,1918,2019-08-07 16:49:49:915
-11.4947,-1.6796,-16.0929,9.957,-6.5912,20.2244,-4.6163,-4.8507,1.3465,1922,2019-08-07 16:49:49:919
-10.5521,-1.8419,-16.8329,7.8721,-6.5324,21.1831,-4.6163,-4.8507,1.3465,1928,2019-08-07 16:49:49:925
-10.5521,-1.8419,-16.8329,7.8721,-6.5324,21.1831,-4.6653,-5.0297,1.0408,1932,2019-08-07 16:49:49:929
-10.5521,-1.8419,-16.8329,7.8721,-6.5324,21.1831,-4.6653,-5.0297,1.0408,1938,2019-08-07 16:49:49:935
-8.1744,-2.515,-17.1535,7.8721,-6.5324,21.1831,-4.6653,-5.0297,1.0408,1943,2019-08-07 16:49:49:940
-8.1744,-2.515,-17.1535,4.5422,-5.8812,21.0743,-4.6962,-5.7104,0.5944,1947,2019-08-07 16:49:49:944
-5.0407,-3.5557,-17.8888,4.5422,-5.8812,21.0743,-4.6962,-5.7104,0.5944,1953,2019-08-07 16:49:49:950
-5.0407,-3.5557,-17.8888,4.5422,-5.8812,21.0743,-4.5577,-6.2175,0.1129,1958,2019-08-07 16:49:49:955
-5.0407,-3.5557,-17.8888,4.5422,-5.8812,21.0743,-4.5577,-6.2175,0.1129,1963,2019-08-07 16:49:49:960
-2.4476,-5.1024,-19.9534,0.3779,-3.9611,23.0848,-4.2562,-5.8116,-0.229,1968,2019-08-07 16:49:49:965
-2.4476,-5.1024,-19.9534,0.3779,-3.9611,23.0848,-4.2562,-5.8116,-0.229,1972,2019-08-07 16:49:49:969
-2.4476,-5.1024,-19.9534,0.3779,-3.9611,23.0848,-3.746,-4.3607,-0.4932,1978,2019-08-07 16:49:49:975
-0.5434,-6.8449,-21.806,0.3779,-3.9611,23.0848,-3.746,-4.3607,-0.4932,1983,2019-08-07 16:49:49:980
-0.5434,-6.8449,-21.806,-2.0038,-1.4261,24.4506,-3.746,-4.3607,-0.4932,1988,2019-08-07 16:49:49:985
-0.5434,-6.8449,-21.806,-2.0038,-1.4261,24.4506,-2.833,-1.6059,-0.6722,1992,2019-08-07 16:49:49:989
0.3656,-8.6112,-21.3582,-2.0038,-1.4261,24.4506,-1.968,0.4244,-0.6743,1998,2019-08-07 16:49:49:995
0.3656,-8.6112,-21.3582,-2.0038,-1.4261,24.4506,-1.968,0.4244,-0.6743,2003,2019-08-07 16:49:50:000
0.0499,-10.5494,-16.3662,-1.6276,1.0811,18.3907,-1.968,0.4244,-0.6743,2008,2019-08-07 16:49:50:005
0.0499,-10.5494,-16.3662,-1.6276,1.0811,18.3907,-1.1009,1.4077,-0.5635,2013,2019-08-07 16:49:50:010
0.0499,-10.5494,-16.3662,-1.6276,1.0811,18.3907,-1.1009,1.4077,-0.5635,2017,2019-08-07 16:49:50:014
1.2986,-11.3466,-10.6437,-1.6276,1.0811,18.3907,-0.106,0.3829,-0.3611,2023,2019-08-07 16:49:50:020
1.2986,-11.3466,-10.6437,-3.8879,2.1644,10.781,-0.106,0.3829,-0.3611,2028,2019-08-07 16:49:50:025
2.8295,-11.9577,-8.8901,-3.8879,2.1644,10.781,0.579,-1.7966,-0.2184,2033,2019-08-07 16:49:50:030
2.8295,-11.9577,-8.8901,-3.8879,2.1644,10.781,0.579,-1.7966,-0.2184,2038,2019-08-07 16:49:50:035
2.8295,-11.9577,-8.8901,-3.8879,2.1644,10.781,1.1745,-3.7823,-0.0916,2043,2019-08-07 16:49:50:040
2.997,-11.8526,-11.742,-4.4306,2.2134,14.3948,1.1745,-3.7823,-0.0916,2047,2019-08-07 16:49:50:044
2.997,-11.8526,-11.742,-4.4306,2.2134,14.3948,1.1745,-3.7823,-0.0916,2053,2019-08-07 16:49:50:050
3.7147,-10.6783,-13.5473,-4.4306,2.2134,14.3948,1.966,-4.1562,0.0032,2057,2019-08-07 16:49:50:054
3.7147,-10.6783,-13.5473,-4.4306,2.2134,14.3948,1.966,-4.1562,0.0032,2064,2019-08-07 16:49:50:061
3.7147,-10.6783,-13.5473,-7.37,0.1726,17.8185,3.157,-0.4054,0.0405,2068,2019-08-07 16:49:50:065
6.2121,-9.4944,-15.6214,-7.37,0.1726,17.8185,3.157,-0.4054,0.0405,2073,2019-08-07 16:49:50:070
6.2121,-9.4944,-15.6214,-7.37,0.1726,17.8185,3.4829,1.6431,0.0682,2077,2019-08-07 16:49:50:074
4.2745,-6.6587,-14.1837,-7.37,0.1726,17.8185,3.4829,1.6431,0.0682,2083,2019-08-07 16:49:50:080
4.2745,-6.6587,-14.1837,-5.0008,-3.4377,14.4993,3.1719,4.4639,0.1588,2088,2019-08-07 16:49:50:085
4.2745,-6.6587,-14.1837,-5.0008,-3.4377,14.4993,3.1719,4.4639,0.1588,2092,2019-08-07 16:49:50:089
2.6096,-4.5105,-8.018,-5.0008,-3.4377,14.4993,3.1719,4.4639,0.1588,2098,2019-08-07 16:49:50:095
2.6096,-4.5105,-8.018,-5.0008,-3.4377,14.4993,2.2643,4.318,0.1076,2102,2019-08-07 16:49:50:099
2.6096,-4.5105,-8.018,2.2,-6.2963,15.5329,2.2643,4.318,0.1076,2108,2019-08-07 16:49:50:105
-4.6337,-2.8158,-12.1426,2.2,-6.2963,15.5329,1.6038,4.6461,0.0852,2113,2019-08-07 16:49:50:110
-4.6337,-2.8158,-12.1426,2.2,-6.2963,15.5329,1.6038,4.6461,0.0852,2117,2019-08-07 16:49:50:114
-6.8728,-4.0188,-1.7958,2.2,-6.2963,15.5329,1.884,6.4549,0.2195,2123,2019-08-07 16:49:50:120
-6.8728,-4.0188,-1.7958,5.4334,-4.8484,8.9614,1.884,6.4549,0.2195,2128,2019-08-07 16:49:50:125
-6.8728,-4.0188,-1.7958,5.4334,-4.8484,8.9614,1.884,6.4549,0.2195,2132,2019-08-07 16:49:50:129
-9.0113,-4.5869,-5.6234,5.4334,-4.8484,8.9614,2.3197,6.4709,0.196,2138,2019-08-07 16:49:50:135
-9.0113,-4.5869,-5.6234,5.4334,-4.8484,8.9614,2.5274,6.2205,0.1385,2143,2019-08-07 16:49:50:140
-9.0113,-4.5869,-5.6234,5.4334,-4.8484,8.9614,2.5274,6.2205,0.1385,2148,2019-08-07 16:49:50:145
-10.303,-4.3673,-5.5338,7.7583,-4.4967,8.8791,2.5274,6.2205,0.1385,2153,2019-08-07 16:49:50:150
-10.303,-4.3673,-5.5338,7.7583,-4.4967,8.8791,2.587,4.9326,0.0096,2158,2019-08-07 16:49:50:155
-10.7671,-4.1859,-6.6746,7.7583,-4.4967,8.8791,2.587,4.9326,0.0096,2162,2019-08-07 16:49:50:159
-10.7671,-4.1859,-6.6746,7.7583,-4.4967,8.8791,2.4731,4.0868,-0.0447,2168,2019-08-07 16:49:50:165
-10.7671,-4.1859,-6.6746,7.1247,-4.1904,8.6929,2.4731,4.0868,-0.0447,2172,2019-08-07 16:49:50:169
-9.8245,-5.1263,-3.1769,7.1247,-4.1904,8.6929,2.4837,3.421,-0.1662,2178,2019-08-07 16:49:50:175
-9.8245,-5.1263,-3.1769,7.1247,-4.1904,8.6929,2.4837,3.421,-0.1662,2182,2019-08-07 16:49:50:179
-9.8245,-5.1263,-3.1769,7.1247,-4.1904,8.6929,2.4837,3.421,-0.1662,2187,2019-08-07 16:49:50:184
-10.4273,-5.8376,-6.8914,7.2001,-2.673,10.5506,2.8597,5.4397,-0.3441,2193,2019-08-07 16:49:50:190
-10.4273,-5.8376,-6.8914,7.2001,-2.673,10.5506,2.8597,5.4397,-0.3441,2197,2019-08-07 16:49:50:194
-9.7384,-5.7135,-4.9257,7.2001,-2.673,10.5506,2.6467,5.5686,-0.4644,2203,2019-08-07 16:49:50:200
-9.7384,-5.7135,-4.9257,7.2001,-2.673,10.5506,2.6467,5.5686,-0.4644,2208,2019-08-07 16:49:50:205
-9.7384,-5.7135,-4.9257,6.7336,-2.8724,9.7293,2.2419,6.0288,-0.5848,2213,2019-08-07 16:49:50:210
-10.6234,-5.5369,-5.317,6.7336,-2.8724,9.7293,2.2419,6.0288,-0.5848,2218,2019-08-07 16:49:50:215
-10.6234,-5.5369,-5.317,6.7336,-2.8724,9.7293,2.0661,6.914,-0.605,2222,2019-08-07 16:49:50:219
-10.5182,-6.2386,-5.6658,6.7336,-2.8724,9.7293,2.0661,6.914,-0.605,2228,2019-08-07 16:49:50:225
-10.5182,-6.2386,-5.6658,6.4766,-1.7073,9.8701,2.2589,7.9111,-0.5614,2233,2019-08-07 16:49:50:230
-10.5182,-6.2386,-5.6658,6.4766,-1.7073,9.8701,2.2589,7.9111,-0.5614,2238,2019-08-07 16:49:50:235
-11.121,-6.907,-7.4618,6.4766,-1.7073,9.8701,2.4667,9.2416,-0.425,2243,2019-08-07 16:49:50:240
-11.121,-6.907,-7.4618,6.4766,-1.7073,9.8701,2.4667,9.2416,-0.425,2249,2019-08-07 16:49:50:246
-14.1876,-6.7304,-4.0914,8.598,-1.3527,8.1488,2.5913,10.2174,-0.3174,2252,2019-08-07 16:49:50:249
-14.1876,-6.7304,-4.0914,8.598,-1.3527,8.1488,2.5913,10.2174,-0.3174,2258,2019-08-07 16:49:50:255
-14.1876,-6.7304,-4.0914,8.598,-1.3527,8.1488,2.6797,10.6414,-0.1736,2263,2019-08-07 16:49:50:260
-19.4934,-6.1623,1.4191,8.598,-1.3527,8.1488,2.6797,10.6414,-0.1736,2268,2019-08-07 16:49:50:265
-19.4934,-6.1623,1.4191,16.1703,-1.7997,-0.4933,2.6797,10.6414,-0.1736,2273,2019-08-07 16:49:50:270
-19.4934,-6.1623,1.4191,16.1703,-1.7997,-0.4933,2.472,9.6848,-0.049,2277,2019-08-07 16:49:50:274
-23.536,-6.3103,3.8137,16.1703,-1.7997,-0.4933,2.472,9.6848,-0.049,2283,2019-08-07 16:49:50:280
-23.536,-6.3103,3.8137,16.1703,-1.7997,-0.4933,1.9489,7.6853,-0.0639,2288,2019-08-07 16:49:50:285
-23.6173,-6.6397,4.0541,17.9994,-1.2056,-2.2856,1.9489,7.6853,-0.0639,2293,2019-08-07 16:49:50:290
-23.6173,-6.6397,4.0541,17.9994,-1.2056,-2.2856,1.5377,5.738,-0.1427,2298,2019-08-07 16:49:50:295
-23.6173,-6.6397,4.0541,17.9994,-1.2056,-2.2856,1.5377,5.738,-0.1427,2302,2019-08-07 16:49:50:299
-18.9575,-6.7542,2.9652,17.9994,-1.2056,-2.2856,1.5377,5.738,-0.1427,2308,2019-08-07 16:49:50:305
-18.9575,-6.7542,2.9652,10.3803,-0.9566,-0.7856,1.3737,4.4085,-0.2002,2312,2019-08-07 16:49:50:309
-15.8238,-6.9118,1.7632,10.3803,-0.9566,-0.7856,1.3737,4.4085,-0.2002,2318,2019-08-07 16:49:50:315
-15.8238,-6.9118,1.7632,10.3803,-0.9566,-0.7856,1.8073,5.4972,-0.1054,2323,2019-08-07 16:49:50:320
-15.8238,-6.9118,1.7632,10.3803,-0.9566,-0.7856,1.8073,5.4972,-0.1054,2328,2019-08-07 16:49:50:325
-11.1974,-6.6253,-0.2449,5.2853,-1.2605,1.8265,1.9266,6.4901,-0.0277,2333,2019-08-07 16:49:50:330
-11.1974,-6.6253,-0.2449,5.2853,-1.2605,1.8265,1.9266,6.4901,-0.0277,2338,2019-08-07 16:49:50:335
-14.3741,-5.4749,0.6979,5.2853,-1.2605,1.8265,1.9425,7.7609,0.048,2343,2019-08-07 16:49:50:340
-14.3741,-5.4749,0.6979,5.2853,-1.2605,1.8265,1.9425,7.7609,0.048,2348,2019-08-07 16:49:50:345
-14.3741,-5.4749,0.6979,12.641,-2.6889,-4.7604,1.9425,7.7609,0.048,2353,2019-08-07 16:49:50:350
-20.4261,-4.8543,6.8258,12.641,-2.6889,-4.7604,2.1173,7.9164,0.228,2358,2019-08-07 16:49:50:355
-20.4261,-4.8543,6.8258,12.641,-2.6889,-4.7604,2.1173,7.9164,0.228,2362,2019-08-07 16:49:50:359
-20.4261,-4.8543,6.8258,12.641,-2.6889,-4.7604,2.1332,6.8778,0.2504,2368,2019-08-07 16:49:50:365
-22.0049,-4.9593,8.7349,15.7576,-2.6629,-9.1005,2.1332,6.8778,0.2504,2372,2019-08-07 16:49:50:369
-22.0049,-4.9593,8.7349,15.7576,-2.6629,-9.1005,2.0171,5.1436,0.1556,2378,2019-08-07 16:49:50:375
-20.8471,-5.3078,9.1592,15.7576,-2.6629,-9.1005,2.0171,5.1436,0.1556,2384,2019-08-07 16:49:50:381
-20.8471,-5.3078,9.1592,15.7576,-2.6629,-9.1005,1.8254,2.7382,0.1161,2387,2019-08-07 16:49:50:384
-19.8902,-5.6133,8.7585,13.4023,-1.8472,-8.439,1.8254,2.7382,0.1161,2393,2019-08-07 16:49:50:390
-19.8902,-5.6133,8.7585,13.4023,-1.8472,-8.439,1.918,2.4069,0.2845,2398,2019-08-07 16:49:50:395
-19.8902,-5.6133,8.7585,13.4023,-1.8472,-8.439,1.918,2.4069,0.2845,2403,2019-08-07 16:49:50:400
-14.0694,-6.8352,7.6033,13.4023,-1.8472,-8.439,1.918,2.4069,0.2845,2407,2019-08-07 16:49:50:404
-14.0694,-6.8352,7.6033,6.9529,-0.8272,-5.8994,2.2525,2.1608,0.4027,2413,2019-08-07 16:49:50:410
-14.0694,-6.8352,7.6033,6.9529,-0.8272,-5.8994,2.2525,2.1608,0.4027,2418,2019-08-07 16:49:50:415
-12.3375,-5.9139,5.4161,6.9529,-0.8272,-5.8994,2.5881,2.6018,0.4847,2422,2019-08-07 16:49:50:419
-12.3375,-5.9139,5.4161,6.9529,-0.8272,-5.8994,2.5881,2.6018,0.4847,2428,2019-08-07 16:49:50:425
-12.2227,-4.477,5.7413,5.8528,-2.9823,-5.8821,2.832,3.126,0.5614,2433,2019-08-07 16:49:50:430
-12.2227,-4.477,5.7413,5.8528,-2.9823,-5.8821,2.832,3.126,0.5614,2437,2019-08-07 16:49:50:434
-12.2227,-4.477,5.7413,5.8528,-2.9823,-5.8821,2.832,3.126,0.5614,2443,2019-08-07 16:49:50:440
-13.9307,-3.0878,6.0147,7.5066,-4.3253,-6.1346,2.9567,3.4029,0.5763,2448,2019-08-07 16:49:50:445
-13.9307,-3.0878,6.0147,7.5066,-4.3253,-6.1346,2.9567,3.4029,0.5763,2452,2019-08-07 16:49:50:449
-13.9307,-3.0878,6.0147,7.5066,-4.3253,-6.1346,2.7362,2.7339,0.5689,2458,2019-08-07 16:49:50:455
-15.8013,-2.1951,7.9851,9.4786,-5.0611,-8.2683,2.7362,2.7339,0.5689,2462,2019-08-07 16:49:50:459
-15.8013,-2.1951,7.9851,9.4786,-5.0611,-8.2683,2.4315,1.6676,0.505,2468,2019-08-07 16:49:50:465
-15.6147,-2.5531,8.2302,9.4786,-5.0611,-8.2683,2.4315,1.6676,0.505,2473,2019-08-07 16:49:50:470
-15.6147,-2.5531,8.2302,9.4786,-5.0611,-8.2683,2.0512,0.4149,0.441,2478,2019-08-07 16:49:50:475
-15.6147,-2.5531,8.2302,9.4786,-5.0611,-8.2683,2.0512,0.4149,0.441,2482,2019-08-07 16:49:50:479
-13.1891,-3.7514,7.1979,6.5521,-3.4702,-7.0095,1.6762,-0.6259,0.3611,2488,2019-08-07 16:49:50:485
-13.1891,-3.7514,7.1979,6.5521,-3.4702,-7.0095,1.6762,-0.6259,0.3611,2493,2019-08-07 16:49:50:490
-9.7588,-4.9448,5.3784,6.5521,-3.4702,-7.0095,1.4184,-1.1894,0.2504,2498,2019-08-07 16:49:50:495
-9.7588,-4.9448,5.3784,1.2178,-1.7161,-3.8779,1.4184,-1.1894,0.2504,2502,2019-08-07 16:49:50:499
-9.7588,-4.9448,5.3784,1.2178,-1.7161,-3.8779,1.4184,-1.1894,0.2504,2508,2019-08-07 16:49:50:505
-6.8739,-5.6466,3.8134,1.2178,-1.7161,-3.8779,1.2256,-1.3247,0.1204,2513,2019-08-07 16:49:50:510
-6.8739,-5.6466,3.8134,-0.7898,-1.3469,-2.0789,1.2256,-1.3247,0.1204,2517,2019-08-07 16:49:50:514
-6.8739,-5.6466,3.8134,-0.7898,-1.3469,-2.0789,1.0041,-0.7963,0.0288,2523,2019-08-07 16:49:50:520
-4.4483,-5.9187,1.7346,-0.7898,-1.3469,-2.0789,1.0041,-0.7963,0.0288,2528,2019-08-07 16:49:50:525
-4.4483,-5.9187,1.7346,-0.7898,-1.3469,-2.0789,0.7867,-0.1188,-0.0415,2533,2019-08-07 16:49:50:530
-4.4483,-5.9187,1.7346,-2.6588,-1.2836,-0.5468,0.7867,-0.1188,-0.0415,2537,2019-08-07 16:49:50:534
-4.1995,-5.8089,1.5696,-2.6588,-1.2836,-0.5468,0.7867,-0.1188,-0.0415,2543,2019-08-07 16:49:50:540
-4.1995,-5.8089,1.5696,-2.6588,-1.2836,-0.5468,0.5843,0.5214,-0.0895,2548,2019-08-07 16:49:50:545
-4.9937,-5.7755,1.7817,-2.6588,-1.2836,-0.5468,0.5843,0.5214,-0.0895,2553,2019-08-07 16:49:50:550
-4.9937,-5.7755,1.7817,-1.165,-1.4017,-0.9848,0.3574,1.0508,-0.1161,2558,2019-08-07 16:49:50:555
-4.9937,-5.7755,1.7817,-1.165,-1.4017,-0.9848,0.3574,1.0508,-0.1161,2563,2019-08-07 16:49:50:560
-6.6778,-5.6895,2.5925,-1.165,-1.4017,-0.9848,0.1945,1.0945,-0.1204,2568,2019-08-07 16:49:50:565
-6.6778,-5.6895,2.5925,-1.165,-1.4017,-0.9848,0.1945,1.0945,-0.1204,2573,2019-08-07 16:49:50:570
-7.5772,-5.6513,2.7103,0.8967,-1.4726,-1.785,0.0453,0.8484,-0.0873,2578,2019-08-07 16:49:50:575
-7.5772,-5.6513,2.7103,0.8967,-1.4726,-1.785,0.0453,0.8484,-0.0873,2583,2019-08-07 16:49:50:580
-7.5772,-5.6513,2.7103,0.8967,-1.4726,-1.785,0.0453,0.8484,-0.0873,2588,2019-08-07 16:49:50:585
-7.9408,-5.8136,2.9083,0.8967,-1.4726,-1.785,-0.091,0.1102,-0.0053,2592,2019-08-07 16:49:50:589
-7.9408,-5.8136,2.9083,1.1678,-1.2726,-1.8392,-0.091,0.1102,-0.0053,2598,2019-08-07 16:49:50:595
-7.4433,-5.9425,2.4982,1.1678,-1.2726,-1.8392,-0.1241,-0.4416,0.0714,2603,2019-08-07 16:49:50:600
-7.4433,-5.9425,2.4982,1.1678,-1.2726,-1.8392,-0.1241,-0.4416,0.0714,2608,2019-08-07 16:49:50:605
-7.4433,-5.9425,2.4982,1.1678,-1.2726,-1.8392,-0.1262,-0.807,0.1502,2614,2019-08-07 16:49:50:611
-6.6204,-5.933,1.5885,-0.0818,-1.1678,-0.6421,-0.1262,-0.807,0.1502,2618,2019-08-07 16:49:50:615
-6.6204,-5.933,1.5885,-0.0818,-1.1678,-0.6421,-0.1486,-0.9647,0.2237,2623,2019-08-07 16:49:50:620
-6.0032,-6.0237,0.773,-0.7058,-1.0631,0.2285,-0.1486,-0.9647,0.2237,2628,2019-08-07 16:49:50:625
-6.0032,-6.0237,0.773,-0.7058,-1.0631,0.2285,-0.1731,-0.8645,0.2429,2633,2019-08-07 16:49:50:630
-6.0032,-6.0237,0.773,-0.7058,-1.0631,0.2285,-0.1731,-0.8645,0.2429,2638,2019-08-07 16:49:50:635
-5.3191,-6.3053,0.2356,-0.7058,-1.0631,0.2285,-0.1518,-0.6025,0.2323,2642,2019-08-07 16:49:50:639
-5.3191,-6.3053,0.2356,-1.4769,-0.6928,0.9895,-0.1518,-0.6025,0.2323,2648,2019-08-07 16:49:50:645
-5.3191,-6.3053,0.2356,-1.4769,-0.6928,0.9895,-0.1166,-0.2371,0.2152,2652,2019-08-07 16:49:50:649
-5.1707,-6.4056,-0.1321,-1.4769,-0.6928,0.9895,-0.1166,-0.2371,0.2152,2658,2019-08-07 16:49:50:655
-5.1707,-6.4056,-0.1321,-1.4769,-0.6928,0.9895,-0.1166,-0.2371,0.2152,2663,2019-08-07 16:49:50:660
-5.5631,-6.5966,-0.1462,-1.1836,-0.4425,1.2281,-0.1006,0.1613,0.1971,2668,2019-08-07 16:49:50:665
-5.5631,-6.5966,-0.1462,-1.1836,-0.4425,1.2281,-0.1006,0.1613,0.1971,2673,2019-08-07 16:49:50:670
-5.5631,-6.5966,-0.1462,-1.1836,-0.4425,1.2281,-0.0878,0.5363,0.1769,2678,2019-08-07 16:49:50:675
-6.4864,-6.6443,0.2922,-1.1836,-0.4425,1.2281,-0.0878,0.5363,0.1769,2683,2019-08-07 16:49:50:680
-6.4864,-6.6443,0.2922,0.2634,-0.3535,0.3935,-0.0697,0.6205,0.1694,2688,2019-08-07 16:49:50:685
-7.4146,-6.6395,0.7447,0.2634,-0.3535,0.3935,-0.0697,0.6205,0.1694,2693,2019-08-07 16:49:50:690
-7.4146,-6.6395,0.7447,0.2634,-0.3535,0.3935,-0.0559,0.4756,0.1779,2698,2019-08-07 16:49:50:695
-7.4146,-6.6395,0.7447,0.2634,-0.3535,0.3935,-0.0559,0.4756,0.1779,2703,2019-08-07 16:49:50:700
-7.4146,-6.6395,0.7447,1.5001,-0.4586,-0.6058,-0.0559,0.4756,0.1779,2707,2019-08-07 16:49:50:704
-8.3236,-6.5297,1.5225,1.5001,-0.4586,-0.6058,-0.042,0.2636,0.196,2713,2019-08-07 16:49:50:710
-8.3236,-6.5297,1.5225,1.5001,-0.4586,-0.6058,-0.042,0.2636,0.196,2717,2019-08-07 16:49:50:714
-8.3618,-6.4677,1.7487,1.5001,-0.4586,-0.6058,-0.0229,-0.1902,0.2067,2723,2019-08-07 16:49:50:720
-8.3618,-6.4677,1.7487,1.4029,-0.4899,-0.7056,-0.0229,-0.1902,0.2067,2728,2019-08-07 16:49:50:725
-8.3618,-6.4677,1.7487,1.4029,-0.4899,-0.7056,-0.041,-0.5407,0.2088,2733,2019-08-07 16:49:50:730
-7.9121,-6.5202,1.2915,1.4029,-0.4899,-0.7056,-0.041,-0.5407,0.2088,2738,2019-08-07 16:49:50:735
-7.9121,-6.5202,1.2915,1.4029,-0.4899,-0.7056,-0.041,-0.5407,0.2088,2742,2019-08-07 16:49:50:739
-7.9121,-6.5202,1.2915,0.0719,-0.0713,0.1161,-0.058,-0.7644,0.2014,2748,2019-08-07 16:49:50:745
-6.9505,-6.8496,0.8955,0.0719,-0.0713,0.1161,-0.058,-0.7644,0.2014,2752,2019-08-07 16:49:50:749
-6.9505,-6.8496,0.8955,0.0719,-0.0713,0.1161,-0.0314,-0.7069,0.1609,2758,2019-08-07 16:49:50:755
-6.0798,-7.0883,0.2356,0.0719,-0.0713,0.1161,-0.0314,-0.7069,0.1609,2763,2019-08-07 16:49:50:760
-6.0798,-7.0883,0.2356,-1.0568,0.2701,1.0648,-0.0047,-0.4437,0.1119,2768,2019-08-07 16:49:50:765
-5.7927,-7.179,0.08,-1.0568,0.2701,1.0648,-0.0047,-0.4437,0.1119,2772,2019-08-07 16:49:50:769
-5.7927,-7.179,0.08,-1.0568,0.2701,1.0648,0.0208,-0.1039,0.065,2778,2019-08-07 16:49:50:775
-5.7927,-7.179,0.08,-1.0568,0.2701,1.0648,0.0208,-0.1039,0.065,2782,2019-08-07 16:49:50:779
-6.1132,-7.1551,0.4949,-0.6238,0.2115,0.5676,0.0666,0.254,0.0256,2788,2019-08-07 16:49:50:785
-6.1132,-7.1551,0.4949,-0.6238,0.2115,0.5676,0.0666,0.254,0.0256,2792,2019-08-07 16:49:50:789
-6.1132,-7.1551,0.4949,-0.6238,0.2115,0.5676,0.0666,0.254,0.0256,2798,2019-08-07 16:49:50:795
-6.8022,-6.9212,0.806,-0.6238,0.2115,0.5676,0.0901,0.385,0.0085,2803,2019-08-07 16:49:50:800
-6.8022,-6.9212,0.806,-0.6238,0.2115,0.5676,0.0901,0.385,0.0085,2807,2019-08-07 16:49:50:804
-7.3093,-6.7207,1.1406,0.4146,-0.1766,-0.0794,0.0975,0.3488,0.0053,2813,2019-08-07 16:49:50:810
-7.3093,-6.7207,1.1406,0.4146,-0.1766,-0.0794,0.0975,0.3488,0.0053,2818,2019-08-07 16:49:50:815
-7.6011,-6.4915,1.5083,0.4146,-0.1766,-0.0794,0.1028,0.1453,0.0128,2822,2019-08-07 16:49:50:819
-7.6011,-6.4915,1.5083,0.6826,-0.4555,-0.5114,0.1028,0.1453,0.0128,2828,2019-08-07 16:49:50:825
-7.6011,-6.4915,1.5083,0.6826,-0.4555,-0.5114,0.105,-0.0592,0.0288,2832,2019-08-07 16:49:50:829
-7.3811,-6.4868,1.414,0.6826,-0.4555,-0.5114,0.105,-0.0592,0.0288,2838,2019-08-07 16:49:50:835
-7.3811,-6.4868,1.414,0.6826,-0.4555,-0.5114,0.105,-0.0592,0.0288,2842,2019-08-07 16:49:50:839
-7.3811,-6.4868,1.414,0.6826,-0.4555,-0.5114,0.0911,-0.2339,0.0437,2848,2019-08-07 16:49:50:845
-6.9601,-6.5488,1.2962,0.0516,-0.3306,-0.2084,0.0911,-0.2339,0.0437,2852,2019-08-07 16:49:50:849
-6.9601,-6.5488,1.2962,0.0516,-0.3306,-0.2084,0.0805,-0.3532,0.049,2858,2019-08-07 16:49:50:855
-6.4338,-6.6109,0.9757,0.0516,-0.3306,-0.2084,0.0805,-0.3532,0.049,2862,2019-08-07 16:49:50:859
-6.4338,-6.6109,0.9757,-0.6071,-0.3368,0.2801,0.0805,-0.3383,0.0469,2868,2019-08-07 16:49:50:865
-6.4338,-6.6109,0.9757,-0.6071,-0.3368,0.2801,0.0805,-0.3383,0.0469,2873,2019-08-07 16:49:50:870
-6.2185,-6.5584,0.8531,-0.6071,-0.3368,0.2801,0.0709,-0.2264,0.0362,2878,2019-08-07 16:49:50:875
-6.2185,-6.5584,0.8531,-0.6071,-0.3368,0.2801,0.0709,-0.2264,0.0362,2883,2019-08-07 16:49:50:880
-6.2185,-6.4868,0.7824,-0.6071,-0.3368,0.2801,0.0709,-0.2264,0.0362,2887,2019-08-07 16:49:50:884
-6.2185,-6.4868,0.7824,-0.6773,-0.4371,0.3687,0.0656,-0.0752,0.0213,2893,2019-08-07 16:49:50:890
-6.2185,-6.4868,0.7824,-0.6773,-0.4371,0.3687,0.0656,-0.0752,0.0213,2897,2019-08-07 16:49:50:894
-6.319,-6.3913,0.8814,-0.6773,-0.4371,0.3687,0.0645,0.0058,0.016,2903,2019-08-07 16:49:50:900
-6.319,-6.3913,0.8814,-0.6773,-0.4371,0.3687,0.0645,0.0058,0.016,2908,2019-08-07 16:49:50:905
-6.6443,-6.2719,0.9898,-0.3691,-0.5384,0.2561,0.0602,0.0878,0.0149,2913,2019-08-07 16:49:50:910
-6.6443,-6.2719,0.9898,-0.3691,-0.5384,0.2561,0.0602,0.0878,0.0149,2918,2019-08-07 16:49:50:915
-6.6443,-6.2719,0.9898,-0.3691,-0.5384,0.2561,0.056,0.0942,0.0256,2923,2019-08-07 16:49:50:920
-6.9505,-6.1765,1.2066,-0.3691,-0.5384,0.2561,0.056,0.0942,0.0256,2928,2019-08-07 16:49:50:925
-6.9505,-6.1765,1.2066,0.1302,-0.7224,-0.013,0.0528,0.042,0.0405,2933,2019-08-07 16:49:50:930
-6.9505,-6.1765,1.2066,0.1302,-0.7224,-0.013,0.0528,0.042,0.0405,2938,2019-08-07 16:49:50:935
-7.1323,-6.1621,1.2821,0.1302,-0.7224,-0.013,0.0528,0.042,0.0405,2942,2019-08-07 16:49:50:939
-7.1323,-6.1621,1.2821,0.1302,-0.7224,-0.013,0.0421,-0.0357,0.0565,2948,2019-08-07 16:49:50:945
-6.9888,-6.2146,1.1878,0.0721,-0.6629,-1.0E-4,0.0421,-0.0357,0.0565,2953,2019-08-07 16:49:50:950
-6.9888,-6.2146,1.1878,0.0721,-0.6629,-1.0E-4,0.0315,-0.121,0.0735,2958,2019-08-07 16:49:50:955
-6.9888,-6.2146,1.1878,0.0721,-0.6629,-1.0E-4,0.0315,-0.121,0.0735,2963,2019-08-07 16:49:50:960
-6.7687,-6.3244,1.0605,0.0721,-0.6629,-1.0E-4,0.0325,-0.1263,0.0661,2968,2019-08-07 16:49:50:965
-6.7687,-6.3244,1.0605,-0.1709,-0.4882,0.1714,0.0325,-0.1263,0.0661,2973,2019-08-07 16:49:50:970
-6.7687,-6.3244,1.0605,-0.1709,-0.4882,0.1714,0.04,-0.1007,0.0544,2978,2019-08-07 16:49:50:975
-6.7304,-6.3292,1.0181,-0.2459,-0.4547,0.2182,0.04,-0.1007,0.0544,2983,2019-08-07 16:49:50:980
-6.7304,-6.3292,1.0181,-0.2459,-0.4547,0.2182,0.0421,-0.0485,0.048,2988,2019-08-07 16:49:50:985
-6.7017,-6.3722,0.8955,-0.2459,-0.4547,0.2182,0.0421,-0.0485,0.048,2993,2019-08-07 16:49:50:990
-6.7017,-6.3722,0.8955,-0.2459,-0.4547,0.2182,0.0538,0.0015,0.033,2997,2019-08-07 16:49:50:994
-6.7017,-6.3722,0.8955,-0.2184,-0.3704,0.2944,0.0538,0.0015,0.033,3002,2019-08-07 16:49:50:999
-6.74,-6.4772,0.9757,-0.2184,-0.3704,0.2944,0.0538,0.0015,0.033,3008,2019-08-07 16:49:51:005
-6.74,-6.4772,0.9757,-0.0821,-0.3868,0.178,0.0592,0.0356,0.0181,3013,2019-08-07 16:49:51:010
-6.917,-6.3913,1.0935,-0.0821,-0.3868,0.178,0.0592,0.0356,0.0181,3018,2019-08-07 16:49:51:015
-6.917,-6.3913,1.0935,-0.0821,-0.3868,0.178,0.0592,0.0356,0.0181,3023,2019-08-07 16:49:51:020
-6.917,-6.3913,1.0935,-0.07,-0.4128,0.0849,0.0613,0.0314,0.016,3028,2019-08-07 16:49:51:025
-6.9361,-6.3817,1.0652,-0.07,-0.4128,0.0849,0.0613,0.0314,0.016,3032,2019-08-07 16:49:51:029
-6.9361,-6.3817,1.0652,-0.07,-0.4128,0.0849,0.0645,-0.0027,0.0256,3038,2019-08-07 16:49:51:035
-6.9074,-6.4199,1.1076,-0.0462,-0.3875,0.1339,0.0645,-0.0027,0.0256,3042,2019-08-07 16:49:51:039
-6.9074,-6.4199,1.1076,-0.0462,-0.3875,0.1339,0.0624,-0.0357,0.0245,3048,2019-08-07 16:49:51:045
-6.9074,-6.4199,1.1076,-0.0462,-0.3875,0.1339,0.0624,-0.0357,0.0245,3053,2019-08-07 16:49:51:050
-6.8644,-6.3865,1.1406,-0.0462,-0.3875,0.1339,0.0624,-0.0357,0.0245,3057,2019-08-07 16:49:51:054
-6.8644,-6.3865,1.1406,-0.2036,-0.4521,0.139,0.0634,-0.0752,0.0341,3063,2019-08-07 16:49:51:060
-6.6874,-6.3483,1.1406,-0.2036,-0.4521,0.139,0.0634,-0.0752,0.0341,3068,2019-08-07 16:49:51:065
-6.6874,-6.3483,1.1406,-0.2036,-0.4521,0.139,0.0634,-0.0805,0.0469,3072,2019-08-07 16:49:51:069
-6.6874,-6.3483,1.1406,-0.2036,-0.4521,0.139,0.0634,-0.0805,0.0469,3077,2019-08-07 16:49:51:074
-6.5678,-6.3626,0.9568,-0.3766,-0.4191,0.3177,0.0666,-0.056,0.0607,3083,2019-08-07 16:49:51:080
-6.5678,-6.3626,0.9568,-0.3766,-0.4191,0.3177,0.0666,-0.056,0.0607,3088,2019-08-07 16:49:51:085
-6.6874,-6.4199,1.0652,-0.3766,-0.4191,0.3177,0.0709,-0.0176,0.0533,3093,2019-08-07 16:49:51:090
-6.6874,-6.4199,1.0652,-0.3766,-0.4191,0.3177,0.0709,-0.0176,0.0533,3098,2019-08-07 16:49:51:095
-6.6874,-6.4199,1.0652,-0.1354,-0.4236,0.164,0.0741,-0.0038,0.048,3102,2019-08-07 16:49:51:099
-6.8165,-6.3006,1.1406,-0.1354,-0.4236,0.164,0.0741,-0.0038,0.048,3108,2019-08-07 16:49:51:105
-6.8165,-6.3006,1.1406,-0.1354,-0.4236,0.164,0.0698,-0.0144,0.0554,3113,2019-08-07 16:49:51:110
-6.7878,-6.2146,1.1831,-0.1354,-0.4236,0.164,0.0698,-0.0144,0.0554,3118,2019-08-07 16:49:51:115
-6.7878,-6.2146,1.1831,-0.2779,-0.484,0.0632,0.0666,-0.0336,0.065,3123,2019-08-07 16:49:51:120
-6.7878,-6.2146,1.1831,-0.2779,-0.484,0.0632,0.0666,-0.0336,0.065,3127,2019-08-07 16:49:51:124
-6.6969,-6.3435,1.2491,-0.2779,-0.484,0.0632,0.0656,-0.0539,0.0725,3133,2019-08-07 16:49:51:130
-6.6969,-6.3435,1.2491,-0.2779,-0.484,0.0632,0.0656,-0.0539,0.0725,3137,2019-08-07 16:49:51:134
-6.6443,-6.3435,1.1689,-0.3446,-0.4139,0.1455,0.0656,-0.0666,0.0842,3143,2019-08-07 16:49:51:140
-6.6443,-6.3435,1.1689,-0.3446,-0.4139,0.1455,0.0656,-0.0666,0.0842,3148,2019-08-07 16:49:51:145
-6.6443,-6.3435,1.1689,-0.3446,-0.4139,0.1455,0.073,-0.0677,0.0863,3153,2019-08-07 16:49:51:150
-6.5773,-6.3435,1.1548,-0.3446,-0.4139,0.1455,0.073,-0.0677,0.0863,3158,2019-08-07 16:49:51:155
-6.5773,-6.3435,1.1548,-0.3972,-0.3527,0.1595,0.089,-0.0347,0.0671,3163,2019-08-07 16:49:51:160
-6.6443,-6.3961,1.1831,-0.3972,-0.3527,0.1595,0.089,-0.0347,0.0671,3167,2019-08-07 16:49:51:164
-6.6443,-6.3961,1.1831,-0.3972,-0.3527,0.1595,0.0837,-0.0091,0.0607,3173,2019-08-07 16:49:51:170
-6.6443,-6.3961,1.1831,-0.3972,-0.3527,0.1595,0.0837,-0.0091,0.0607,3177,2019-08-07 16:49:51:174
-6.7209,-6.3722,1.2491,-0.2622,-0.346,0.0447,0.0837,-0.0091,0.0607,3183,2019-08-07 16:49:51:180
-6.7209,-6.3722,1.2491,-0.2622,-0.346,0.0447,0.0741,0.0186,0.0533,3187,2019-08-07 16:49:51:184
-6.8883,-6.3913,1.3905,-0.1229,-0.3361,-0.041,0.0741,0.0186,0.0533,3193,2019-08-07 16:49:51:190
-6.8883,-6.3913,1.3905,-0.1229,-0.3361,-0.041,0.0624,0.0175,0.0437,3197,2019-08-07 16:49:51:194
-6.8883,-6.3913,1.3905,-0.1229,-0.3361,-0.041,0.0624,0.0175,0.0437,3203,2019-08-07 16:49:51:200
-7.0223,-6.3053,1.3716,-0.1229,-0.3361,-0.041,0.0624,0.0175,0.0437,3208,2019-08-07 16:49:51:205
-7.0223,-6.3053,1.3716,0.0144,-0.4334,0.0363,0.0325,-0.0102,0.0256,3213,2019-08-07 16:49:51:210
-7.0318,-6.3531,1.3528,0.0144,-0.4334,0.0363,0.0091,-0.0315,0.016,3218,2019-08-07 16:49:51:215
-7.0318,-6.3531,1.3528,0.0144,-0.4334,0.0363,0.0091,-0.0315,0.016,3223,2019-08-07 16:49:51:220
-7.0318,-6.3531,1.3528,0.0144,-0.4334,0.0363,0.0091,-0.0315,-0.0032,3228,2019-08-07 16:49:51:225
-6.917,-6.3817,1.2491,-0.1019,-0.3542,0.1079,-5.0E-4,-0.0411,-0.0032,3233,2019-08-07 16:49:51:230
-6.917,-6.3817,1.2491,-0.1019,-0.3542,0.1079,-5.0E-4,-0.0411,-0.0032,3238,2019-08-07 16:49:51:235
-6.917,-6.3817,1.2491,-0.1019,-0.3542,0.1079,-0.0101,-0.0272,-0.0245,3243,2019-08-07 16:49:51:240
-6.9266,-6.3865,1.1831,-0.0911,-0.3315,0.1796,-0.0101,-0.0272,-0.0245,3247,2019-08-07 16:49:51:244
-6.9266,-6.3865,1.1831,-0.0911,-0.3315,0.1796,-0.0186,-0.0134,-0.0351,3253,2019-08-07 16:49:51:250
-6.9266,-6.3865,1.1831,-0.0911,-0.3315,0.1796,-0.0186,-0.0134,-0.0351,3257,2019-08-07 16:49:51:254
-6.7878,-6.4486,1.3292,-0.0911,-0.3315,0.1796,-0.0186,0.0122,-0.0437,3263,2019-08-07 16:49:51:260
-6.7878,-6.4486,1.3292,-0.2106,-0.3322,0.0407,-0.0186,0.0122,-0.0437,3268,2019-08-07 16:49:51:265
-6.8692,-6.3674,1.2962,-0.2106,-0.3322,0.0407,-0.0069,0.0473,-0.0596,3272,2019-08-07 16:49:51:269
-6.8692,-6.3674,1.2962,-0.1025,-0.3646,0.0611,-0.0069,0.0473,-0.0596,3278,2019-08-07 16:49:51:275
-6.8692,-6.3674,1.2962,-0.1025,-0.3646,0.0611,-0.0165,0.0548,-0.0586,3283,2019-08-07 16:49:51:280
-6.9792,-6.4056,1.3151,-0.1025,-0.3646,0.0611,-0.0165,0.0548,-0.0586,3288,2019-08-07 16:49:51:285
-6.9792,-6.4056,1.3151,-0.1025,-0.3646,0.0611,-0.0218,0.0239,-0.0564,3293,2019-08-07 16:49:51:290
-6.984,-6.3961,1.4753,-0.0156,-0.3242,-0.1123,-0.0218,0.0239,-0.0564,3298,2019-08-07 16:49:51:295
-6.984,-6.3961,1.4753,-0.0156,-0.3242,-0.1123,-0.0282,-0.023,-0.0511,3303,2019-08-07 16:49:51:300
-6.984,-6.3961,1.4753,-0.0156,-0.3242,-0.1123,-0.0282,-0.023,-0.0511,3309,2019-08-07 16:49:51:306
-6.9027,-6.4199,1.3669,-0.0156,-0.3242,-0.1123,-0.0367,-0.0592,-0.0532,3313,2019-08-07 16:49:51:310
-6.9027,-6.4199,1.3669,-0.1426,-0.3267,-0.0741,-0.0367,-0.0592,-0.0532,3318,2019-08-07 16:49:51:315
-6.7878,-6.4199,1.3292,-0.1426,-0.3267,-0.0741,-0.0431,-0.0848,-0.0479,3323,2019-08-07 16:49:51:320
-6.7878,-6.4199,1.3292,-0.1426,-0.3267,-0.0741,-0.0431,-0.0848,-0.0479,3327,2019-08-07 16:49:51:324
-6.7878,-6.4199,1.3292,-0.1426,-0.3267,-0.0741,-0.0442,-0.0794,-0.0468,3333,2019-08-07 16:49:51:330
-6.7352,-6.4199,1.2349,-0.2538,-0.3294,0.1202,-0.0442,-0.0794,-0.0468,3337,2019-08-07 16:49:51:334
-6.7352,-6.4199,1.2349,-0.2538,-0.3294,0.1202,-0.041,-0.0656,-0.0437,3343,2019-08-07 16:49:51:340
-6.74,-6.3292,1.1784,-0.2538,-0.3294,0.1202,-0.041,-0.0656,-0.0437,3348,2019-08-07 16:49:51:345
-6.74,-6.3292,1.1784,-0.2538,-0.3294,0.1202,-0.0399,-0.0411,-0.0437,3353,2019-08-07 16:49:51:350
-6.74,-6.3292,1.1784,-0.2801,-0.4558,0.1645,-0.0399,-0.0411,-0.0437,3357,2019-08-07 16:49:51:354
-6.6874,-6.2767,1.1925,-0.2801,-0.4558,0.1645,-0.0388,-0.0187,-0.0351,3363,2019-08-07 16:49:51:360
-6.6874,-6.2767,1.1925,-0.2801,-0.4558,0.1645,-0.0388,-0.0187,-0.0351,3367,2019-08-07 16:49:51:364
-6.6587,-6.2433,1.1029,-0.2801,-0.4558,0.1645,-0.0229,0.0122,-0.0298,3373,2019-08-07 16:49:51:370
-6.6587,-6.2433,1.1029,-0.2904,-0.5419,0.2643,-0.0229,0.0122,-0.0298,3377,2019-08-07 16:49:51:374
-6.6587,-6.2433,1.1029,-0.2904,-0.5419,0.2643,-0.0058,0.0292,-0.0277,3383,2019-08-07 16:49:51:380
-6.7639,-6.2528,1.2114,-0.2904,-0.5419,0.2643,-0.0058,0.0292,-0.0277,3387,2019-08-07 16:49:51:384
-6.7639,-6.2528,1.2114,-0.2904,-0.5419,0.2643,-0.0058,0.0292,-0.0277,3393,2019-08-07 16:49:51:390
-6.9218,-6.2003,1.2208,-0.0883,-0.5395,0.0421,-0.0069,0.0133,-0.0223,3397,2019-08-07 16:49:51:394
-6.9218,-6.2003,1.2208,-0.0883,-0.5395,0.0421,-0.0079,-0.024,-0.0074,3403,2019-08-07 16:49:51:400
-6.9218,-6.2003,1.2208,-0.0883,-0.5395,0.0421,-0.0079,-0.024,-0.0074,3407,2019-08-07 16:49:51:404
-6.8127,-6.1429,1.329,-0.0883,-0.5395,0.0421,-0.0079,-0.024,-0.0074,3413,2019-08-07 16:49:51:410
-6.8127,-6.1429,1.329,-0.164,-0.6104,0.0784,-0.0079,-0.0602,0.0011,3418,2019-08-07 16:49:51:415
-6.8127,-6.1429,1.329,-0.164,-0.6104,0.0784,-0.0079,-0.0602,0.0011,3422,2019-08-07 16:49:51:419
-6.7649,-6.1573,1.3007,-0.164,-0.6104,0.0784,-0.0197,-0.0858,0.0128,3428,2019-08-07 16:49:51:425
-6.7649,-6.1573,1.3007,-0.164,-0.6104,0.0784,-0.0197,-0.0858,0.0128,3433,2019-08-07 16:49:51:430
-6.7649,-6.1573,1.3007,-0.3274,-0.4408,0.059,-0.0452,-0.1103,0.0203,3437,2019-08-07 16:49:51:434
-6.6118,-6.3052,1.3714,-0.3274,-0.4408,0.059,-0.0452,-0.1103,0.0203,3443,2019-08-07 16:49:51:440
-6.6118,-6.3052,1.3714,-0.3274,-0.4408,0.059,-0.0548,-0.1039,0.0245,3448,2019-08-07 16:49:51:445
-6.5879,-6.353,1.2111,-0.3274,-0.4408,0.059,-0.0548,-0.1039,0.0245,3452,2019-08-07 16:49:51:449
-6.5879,-6.353,1.2111,-0.4287,-0.4099,0.1977,-0.0548,-0.1039,0.0245,3458,2019-08-07 16:49:51:455
-6.5879,-6.353,1.2111,-0.4287,-0.4099,0.1977,-0.0591,-0.0741,0.0277,3463,2019-08-07 16:49:51:460
-6.5401,-6.3864,1.1121,-0.4287,-0.4099,0.1977,-0.0591,-0.0741,0.0277,3468,2019-08-07 16:49:51:465
-6.5401,-6.3864,1.1121,-0.4287,-0.4099,0.1977,-0.0623,-0.0208,0.0192,3472,2019-08-07 16:49:51:469
-6.5927,-6.4628,1.0414,-0.3875,-0.2943,0.3199,-0.0623,-0.0208,0.0192,3478,2019-08-07 16:49:51:475
-6.5927,-6.4628,1.0414,-0.3875,-0.2943,0.3199,-0.0612,0.0282,0.0096,3483,2019-08-07 16:49:51:480
-6.5927,-6.4628,1.0414,-0.3875,-0.2943,0.3199,-0.0612,0.0282,0.0096,3488,2019-08-07 16:49:51:485
-6.7028,-6.4103,1.0367,-0.3875,-0.2943,0.3199,-0.0516,0.0708,0.0053,3493,2019-08-07 16:49:51:490
-6.7028,-6.4103,1.0367,-0.18,-0.3663,0.2885,-0.0516,0.0708,0.0053,3498,2019-08-07 16:49:51:495
-6.8798,-6.4294,1.0273,-0.18,-0.3663,0.2885,-0.0388,0.0932,-0.0021,3503,2019-08-07 16:49:51:500
-6.8798,-6.4294,1.0273,-0.18,-0.3663,0.2885,-0.0388,0.0932,-0.0021,3507,2019-08-07 16:49:51:504
-6.8798,-6.4294,1.0273,-0.18,-0.3663,0.2885,-0.0356,0.0804,-0.0096,3512,2019-08-07 16:49:51:509
-7.0999,-6.3005,1.0744,0.0417,-0.4288,0.232,-0.0356,0.0804,-0.0096,3518,2019-08-07 16:49:51:515
-7.0999,-6.3005,1.0744,0.0417,-0.4288,0.232,-0.0239,0.026,-0.001,3523,2019-08-07 16:49:51:520
-7.0138,-6.2766,1.2064,0.026,-0.4808,0.1142,-0.0239,0.026,-0.001,3528,2019-08-07 16:49:51:525
-7.0138,-6.2766,1.2064,0.026,-0.4808,0.1142,-0.0239,0.026,-0.001,3532,2019-08-07 16:49:51:529
-7.0138,-6.2766,1.2064,0.026,-0.4808,0.1142,-0.0133,-0.0166,0.0021,3538,2019-08-07 16:49:51:535
-6.9468,-6.3959,1.1074,0.026,-0.4808,0.1142,-0.0111,-0.0549,0.0075,3543,2019-08-07 16:49:51:540
-6.9468,-6.3959,1.1074,0.026,-0.4808,0.1142,-0.0111,-0.0549,0.0075,3547,2019-08-07 16:49:51:544
-6.9468,-6.3959,1.1074,-0.1905,-0.3504,0.1959,-0.0111,-0.0549,0.0075,3553,2019-08-07 16:49:51:550
-6.7507,-6.3912,1.0744,-0.1905,-0.3504,0.1959,-0.0026,-0.0741,0.0139,3557,2019-08-07 16:49:51:554
-6.7507,-6.3912,1.0744,-0.1905,-0.3504,0.1959,-0.0026,-0.0741,0.0139,3563,2019-08-07 16:49:51:560
-6.6837,-6.4341,1.0037,-0.306,-0.3194,0.3264,0.0048,-0.056,0.0171,3567,2019-08-07 16:49:51:564
-6.6837,-6.4341,1.0037,-0.306,-0.3194,0.3264,0.0048,-0.056,0.0171,3573,2019-08-07 16:49:51:570
-6.6837,-6.4341,1.0037,-0.306,-0.3194,0.3264,0.007,-0.0176,0.0139,3577,2019-08-07 16:49:51:574
-6.6694,-6.4628,1.0933,-0.306,-0.3194,0.3264,0.007,-0.0176,0.0139,3583,2019-08-07 16:49:51:580
-6.6694,-6.4628,1.0933,-0.306,-0.3194,0.3264,0.0059,0.0154,0.0011,3587,2019-08-07 16:49:51:584
-6.7746,-6.353,1.0603,-0.2309,-0.3655,0.2899,0.0059,0.0154,0.0011,3593,2019-08-07 16:49:51:590
-6.7746,-6.353,1.0603,-0.2309,-0.3655,0.2899,0.0038,0.0548,-0.0064,3598,2019-08-07 16:49:51:595
-6.7746,-6.353,1.0603,-0.2309,-0.3655,0.2899,0.0038,0.0548,-0.0064,3602,2019-08-07 16:49:51:599
-6.8847,-6.3912,1.0885,-0.2309,-0.3655,0.2899,0.0038,0.0548,-0.0064,3608,2019-08-07 16:49:51:605
-6.8847,-6.3912,1.0885,-0.0842,-0.337,0.2001,6.0E-4,0.0963,-0.0234,3612,2019-08-07 16:49:51:609
-7.0426,-6.3577,1.164,-0.0842,-0.337,0.2001,6.0E-4,0.0963,-0.0234,3618,2019-08-07 16:49:51:615
-7.0426,-6.3577,1.164,-0.0842,-0.337,0.2001,-0.0016,0.091,-0.0245,3622,2019-08-07 16:49:51:619
-7.0426,-6.3577,1.164,-0.0842,-0.337,0.2001,-0.0016,0.091,-0.0245,3628,2019-08-07 16:49:51:625
-7.0809,-6.3816,1.2959,0.0873,-0.3723,0.0117,0.0038,0.0633,-0.0234,3632,2019-08-07 16:49:51:629
-7.0809,-6.3816,1.2959,0.0873,-0.3723,0.0117,0.0038,0.0633,-0.0234,3638,2019-08-07 16:49:51:635
-7.0809,-6.3816,1.2959,0.0873,-0.3723,0.0117,0.0091,0.0207,-0.0213,3643,2019-08-07 16:49:51:640
-6.9948,-6.4341,1.3619,0.0873,-0.3723,0.0117,0.0091,0.0207,-0.0213,3648,2019-08-07 16:49:51:645
-6.9948,-6.4341,1.3619,-0.0555,-0.326,-0.025,0.0048,-0.0208,-0.0149,3652,2019-08-07 16:49:51:649
-6.8273,-6.4341,1.3619,-0.0555,-0.326,-0.025,0.0048,-0.0208,-0.0149,3658,2019-08-07 16:49:51:655
-6.8273,-6.4341,1.3619,-0.1983,-0.2977,-0.0931,0.008,-0.0464,-0.0042,3663,2019-08-07 16:49:51:660
-6.8273,-6.4341,1.3619,-0.1983,-0.2977,-0.0931,0.008,-0.0464,-0.0042,3667,2019-08-07 16:49:51:664
-6.7221,-6.4437,1.3855,-0.1983,-0.2977,-0.0931,0.008,-0.0464,-0.0042,3673,2019-08-07 16:49:51:670
-6.7221,-6.4437,1.3855,-0.1983,-0.2977,-0.0931,0.0208,-0.0539,0.0053,3677,2019-08-07 16:49:51:674
-6.6503,-6.4341,1.2582,-0.3406,-0.3208,0.0585,0.0208,-0.0539,0.0053,3683,2019-08-07 16:49:51:680
-6.6503,-6.4341,1.2582,-0.3406,-0.3208,0.0585,0.0198,-0.0411,0.0181,3687,2019-08-07 16:49:51:684
-6.6312,-6.4102,1.2582,-0.3406,-0.3208,0.0585,0.0198,-0.0411,0.0181,3693,2019-08-07 16:49:51:690
-6.6312,-6.4102,1.2582,-0.3406,-0.3208,0.0585,0.0091,-0.0176,0.0213,3697,2019-08-07 16:49:51:694
-6.6312,-6.4102,1.2582,-0.3657,-0.3085,0.0424,0.0091,-0.0176,0.0213,3703,2019-08-07 16:49:51:700
-6.6934,-6.3912,1.1687,-0.3657,-0.3085,0.0424,0.0091,-0.0176,0.0213,3707,2019-08-07 16:49:51:704
-6.6934,-6.3912,1.1687,-0.3657,-0.3085,0.0424,0.0219,0.0228,0.0149,3712,2019-08-07 16:49:51:709
-6.8465,-6.3864,1.1451,-0.3657,-0.3085,0.0424,0.0219,0.0228,0.0149,3718,2019-08-07 16:49:51:715
-6.8465,-6.3864,1.1451,-0.082,-0.3577,0.1735,0.0219,0.0505,0.0096,3723,2019-08-07 16:49:51:720
-6.8465,-6.3864,1.1451,-0.082,-0.3577,0.1735,0.0219,0.0505,0.0096,3728,2019-08-07 16:49:51:725
-6.9853,-6.4055,1.2346,-0.082,-0.3577,0.1735,-5.0E-4,0.0527,0.0011,3732,2019-08-07 16:49:51:729
-6.9853,-6.4055,1.2346,-0.082,-0.3577,0.1735,-5.0E-4,0.0527,0.0011,3738,2019-08-07 16:49:51:735
-6.9375,-6.4246,1.2676,-0.0562,-0.275,0.0575,-0.0079,0.042,-0.001,3743,2019-08-07 16:49:51:740
-6.9375,-6.4246,1.2676,-0.0562,-0.275,0.0575,-0.0079,0.042,-0.001,3748,2019-08-07 16:49:51:745
-6.9375,-6.4246,1.2676,-0.0562,-0.275,0.0575,0.0027,0.0388,-0.0117,3752,2019-08-07 16:49:51:749
-7.0427,-6.3864,1.1639,-0.0562,-0.275,0.0575,0.0027,0.0388,-0.0117,3759,2019-08-07 16:49:51:756
-7.0427,-6.3864,1.1639,0.024,-0.3704,0.0705,0.0112,0.0186,-0.0128,3763,2019-08-07 16:49:51:760
-7.0427,-6.3864,1.1639,0.024,-0.3704,0.0705,0.0112,0.0186,-0.0128,3768,2019-08-07 16:49:51:765
-7.038,-6.3291,1.2629,0.024,-0.3704,0.0705,0.0112,0.0186,-0.0128,3773,2019-08-07 16:49:51:770
-7.038,-6.3291,1.2629,0.024,-0.3704,0.0705,0.0144,-0.0144,-0.0128,3778,2019-08-07 16:49:51:775
-6.8849,-6.3673,1.1828,-0.1146,-0.3798,0.1286,0.0144,-0.0144,-0.0128,3783,2019-08-07 16:49:51:780
-6.8849,-6.3673,1.1828,-0.1146,-0.3798,0.1286,0.0144,-0.0368,-0.0106,3788,2019-08-07 16:49:51:785
-6.8849,-6.3673,1.1828,-0.1146,-0.3798,0.1286,0.0144,-0.0368,-0.0106,3793,2019-08-07 16:49:51:790
-6.8275,-6.4293,1.1262,-0.1146,-0.3798,0.1286,0.0261,-0.0283,-0.0106,3798,2019-08-07 16:49:51:795
-6.8275,-6.4293,1.1262,-0.2469,-0.4089,0.1351,0.0261,-0.0283,-0.0106,3803,2019-08-07 16:49:51:800
-6.7462,-6.3482,1.1781,-0.2469,-0.4089,0.1351,0.0347,-0.0219,-0.0053,3808,2019-08-07 16:49:51:805
-6.7462,-6.3482,1.1781,-0.2469,-0.4089,0.1351,0.0347,-0.0219,-0.0053,3813,2019-08-07 16:49:51:810
-6.7462,-6.3482,1.1781,-0.2469,-0.4089,0.1351,0.0389,-0.0102,-0.0064,3817,2019-08-07 16:49:51:814
-6.7318,-6.3816,1.1168,-0.2366,-0.3654,0.1466,0.0389,-0.0102,-0.0064,3823,2019-08-07 16:49:51:820
-6.7318,-6.3816,1.1168,-0.2366,-0.3654,0.1466,0.0283,-0.0027,-0.0074,3827,2019-08-07 16:49:51:824
-6.751,-6.3577,1.0602,-0.2366,-0.3654,0.1466,0.0283,-0.0027,-0.0074,3833,2019-08-07 16:49:51:830
-6.751,-6.3577,1.0602,-0.2366,-0.3654,0.1466,0.0283,-0.0027,-0.0074,3838,2019-08-07 16:49:51:835
-6.751,-6.3577,1.0602,-0.2702,-0.3266,0.2055,0.024,0.0122,-0.0021,3842,2019-08-07 16:49:51:839
-6.751,-6.3911,1.1733,-0.2702,-0.3266,0.2055,0.024,0.0122,-0.0021,3848,2019-08-07 16:49:51:845
-6.751,-6.3911,1.1733,-0.2702,-0.3266,0.2055,0.0261,0.0324,-0.0032,3853,2019-08-07 16:49:51:850
-6.7653,-6.3577,1.1828,-0.2702,-0.3266,0.2055,0.0261,0.0324,-0.0032,3859,2019-08-07 16:49:51:856
-6.7653,-6.3577,1.1828,-0.1799,-0.4123,0.1662,0.0272,0.0463,-0.0128,3862,2019-08-07 16:49:51:859
-6.7653,-6.3577,1.1828,-0.1799,-0.4123,0.1662,0.0272,0.0463,-0.0128,3868,2019-08-07 16:49:51:865
-6.8898,-6.31,1.2488,-0.1799,-0.4123,0.1662,0.0293,0.0463,-0.0138,3872,2019-08-07 16:49:51:869
-6.8898,-6.31,1.2488,-0.1799,-0.4123,0.1662,0.0293,0.0463,-0.0138,3878,2019-08-07 16:49:51:875
-6.8898,-6.31,1.2488,-0.1138,-0.4452,-0.0341,0.0272,0.0314,-0.0074,3882,2019-08-07 16:49:51:879
-6.8563,-6.2957,1.31,-0.1138,-0.4452,-0.0341,0.0272,0.0314,-0.0074,3888,2019-08-07 16:49:51:885
-6.8563,-6.2957,1.31,-0.1138,-0.4452,-0.0341,0.0251,0.0133,0.0021,3893,2019-08-07 16:49:51:890
-6.7989,-6.3482,1.2629,-0.1138,-0.4452,-0.0341,0.0251,0.0133,0.0021,3898,2019-08-07 16:49:51:895
-6.7989,-6.3482,1.2629,-0.1726,-0.4003,0.0197,0.0251,-0.0102,0.0085,3903,2019-08-07 16:49:51:900
-6.7989,-6.3482,1.2629,-0.1726,-0.4003,0.0197,0.0251,-0.0102,0.0085,3907,2019-08-07 16:49:51:904
-6.8132,-6.2336,1.3147,-0.1726,-0.4003,0.0197,0.0325,-0.0283,0.0096,3913,2019-08-07 16:49:51:910
-6.8132,-6.2336,1.3147,-0.1726,-0.4003,0.0197,0.0325,-0.0283,0.0096,3917,2019-08-07 16:49:51:914
-6.7893,-6.2193,1.3195,-0.2129,-0.5207,0.0142,0.0325,-0.0283,0.0096,3923,2019-08-07 16:49:51:920
-6.7893,-6.2193,1.3195,-0.2129,-0.5207,0.0142,0.0315,-0.0389,0.0192,3927,2019-08-07 16:49:51:924
-6.7893,-6.2193,1.3195,-0.2129,-0.5207,0.0142,0.0315,-0.0389,0.0192,3933,2019-08-07 16:49:51:930
-6.7798,-6.2766,1.3053,-0.2129,-0.5207,0.0142,0.0134,-0.0379,0.0171,3938,2019-08-07 16:49:51:935
-6.7798,-6.2766,1.3053,-0.2393,-0.4162,0.0553,0.0134,-0.0379,0.0171,3943,2019-08-07 16:49:51:940
-6.7798,-6.2766,1.3053,-0.2393,-0.4162,0.0553,-0.0026,-0.0294,0.0117,3948,2019-08-07 16:49:51:945
-6.8085,-6.3482,1.2723,-0.2393,-0.4162,0.0553,-0.0026,-0.0294,0.0117,3953,2019-08-07 16:49:51:950
-6.8085,-6.3482,1.2723,-0.2393,-0.4162,0.0553,-0.0026,-0.0294,0.0117,3957,2019-08-07 16:49:51:954
-6.7798,-6.3911,1.2817,-0.2393,-0.4162,0.0553,-0.0165,-0.0112,0.0011,3963,2019-08-07 16:49:51:960
-6.7798,-6.3911,1.2817,-0.2354,-0.3291,0.0707,-0.0165,-0.0112,0.0011,3967,2019-08-07 16:49:51:964
-6.7798,-6.3911,1.2629,-0.2354,-0.3291,0.0707,-0.0271,0.0058,-0.0032,3973,2019-08-07 16:49:51:970
-6.6746,-6.4627,1.2629,-0.2354,-0.3291,0.0707,-0.0271,0.0058,-0.0032,3978,2019-08-07 16:49:51:975
-6.6746,-6.4627,1.2629,-0.2354,-0.3291,0.0707,-0.0335,0.0282,-0.0138,3982,2019-08-07 16:49:51:979
-6.5023,-6.668,1.0838,-0.4453,-0.1543,0.1679,-0.0335,0.0282,-0.0138,3988,2019-08-07 16:49:51:985
-6.5023,-6.668,1.0838,-0.4453,-0.1543,0.1679,-0.058,0.0569,-0.0319,3993,2019-08-07 16:49:51:990
-6.5023,-6.668,1.0838,-0.4453,-0.1543,0.1679,-0.058,0.0569,-0.0319,3998,2019-08-07 16:49:51:995
-6.8085,-6.3243,1.4703,-0.4453,-0.1543,0.1679,-0.0335,0.0793,-0.0106,4002,2019-08-07 16:49:51:999
-6.8085,-6.3243,1.4703,-0.3148,-0.3496,-0.0358,-0.0335,0.0793,-0.0106,4008,2019-08-07 16:49:52:005
-6.7416,-6.4436,1.2487,-0.3148,-0.3496,-0.0358,-0.0175,0.0473,-0.017,4013,2019-08-07 16:49:52:010
-6.7416,-6.4436,1.2487,-0.3148,-0.3496,-0.0358,-0.0175,0.0473,-0.017,4017,2019-08-07 16:49:52:014
-6.7416,-6.4436,1.2487,-0.3148,-0.3496,-0.0358,-0.0175,0.0473,-0.017,4023,2019-08-07 16:49:52:020
-6.9282,-6.2622,1.1922,-0.0761,-0.4798,0.1195,-0.0239,0.0239,0.0011,4027,2019-08-07 16:49:52:024
-6.9282,-6.2622,1.1922,-0.0761,-0.4798,0.1195,-0.0239,0.0239,0.0011,4033,2019-08-07 16:49:52:030
-6.7751,-6.267,1.2252,-0.0761,-0.4798,0.1195,-0.0175,-0.0219,0.016,4037,2019-08-07 16:49:52:034
-6.7751,-6.267,1.2252,-0.0761,-0.4798,0.1195,-0.0175,-0.0219,0.016,4043,2019-08-07 16:49:52:040
-6.7751,-6.267,1.2252,-0.1746,-0.4391,0.1741,-0.0058,-0.0325,0.0171,4048,2019-08-07 16:49:52:045
-6.7847,-6.372,1.1214,-0.1746,-0.4391,0.1741,-0.0058,-0.0325,0.0171,4053,2019-08-07 16:49:52:050
-6.7847,-6.372,1.1214,-0.1746,-0.4391,0.1741,-0.0058,-0.0325,0.0171,4057,2019-08-07 16:49:52:054
-6.8277,-6.3672,1.1497,-0.1746,-0.4391,0.1741,0.0016,-0.024,0.0128,4063,2019-08-07 16:49:52:060
-6.8277,-6.3672,1.1497,-0.1911,-0.379,0.1298,0.0016,-0.024,0.0128,4067,2019-08-07 16:49:52:064
-6.8277,-6.3672,1.1497,-0.1911,-0.379,0.1298,0.0038,-0.0102,0.0043,4073,2019-08-07 16:49:52:070
-6.8804,-6.3052,1.1733,-0.1911,-0.379,0.1298,0.0038,-0.0102,0.0043,4078,2019-08-07 16:49:52:075
-6.8804,-6.3052,1.1733,-0.1911,-0.379,0.1298,0.0027,-0.0017,-0.0064,4083,2019-08-07 16:49:52:080
-6.8804,-6.3052,1.1733,-0.0917,-0.4446,0.1444,0.0027,-0.0017,-0.0064,4087,2019-08-07 16:49:52:084
-6.9378,-6.3243,1.112,-0.0917,-0.4446,0.1444,-0.0069,-0.0112,-0.0106,4093,2019-08-07 16:49:52:090
-6.9378,-6.3243,1.112,-0.0917,-0.4446,0.1444,-0.0069,-0.0112,-0.0106,4098,2019-08-07 16:49:52:095
-6.8421,-6.3577,1.1921,-0.0917,-0.4446,0.1444,-0.0101,-0.0176,-0.0149,4103,2019-08-07 16:49:52:100
-6.8421,-6.3577,1.1921,-0.1676,-0.4215,0.0546,-0.0101,-0.0176,-0.0149,4109,2019-08-07 16:49:52:106
-6.8421,-6.3577,1.1921,-0.1676,-0.4215,0.0546,-0.009,-0.0251,-0.016,4112,2019-08-07 16:49:52:109
-6.756,-6.2622,1.1827,-0.1676,-0.4215,0.0546,-0.009,-0.0251,-0.016,4118,2019-08-07 16:49:52:115
-6.756,-6.2622,1.1827,-0.1676,-0.4215,0.0546,-0.009,-0.0294,-0.0053,4123,2019-08-07 16:49:52:120
-6.6508,-6.3768,1.2063,-0.3336,-0.3605,0.0757,-0.009,-0.0294,-0.0053,4128,2019-08-07 16:49:52:125
-6.6508,-6.3768,1.2063,-0.3336,-0.3605,0.0757,-0.0122,-0.0272,-0.0042,4132,2019-08-07 16:49:52:129
-6.6508,-6.3768,1.2063,-0.3336,-0.3605,0.0757,-0.0122,-0.0272,-0.0042,4138,2019-08-07 16:49:52:135
-6.6652,-6.4436,1.2487,-0.3336,-0.3605,0.0757,-0.0079,-0.024,0.0011,4143,2019-08-07 16:49:52:140
-6.6652,-6.4436,1.2487,-0.3659,-0.3039,0.0121,-0.0079,-0.024,0.0011,4148,2019-08-07 16:49:52:145
-6.6652,-6.4436,1.2487,-0.3659,-0.3039,0.0121,-0.0037,-0.0304,0.0128,4152,2019-08-07 16:49:52:149
-6.6078,-6.4579,1.2628,-0.3659,-0.3039,0.0121,-0.0037,-0.0304,0.0128,4158,2019-08-07 16:49:52:155
-6.6078,-6.4579,1.2628,-0.3659,-0.3039,0.0121,-0.0047,-0.0262,0.0171,4163,2019-08-07 16:49:52:160
-6.6413,-6.3911,1.2016,-0.3667,-0.3453,0.1193,-0.0047,-0.0262,0.0171,4168,2019-08-07 16:49:52:165
-6.6413,-6.3911,1.2016,-0.3667,-0.3453,0.1193,-0.0101,-0.0166,0.0192,4173,2019-08-07 16:49:52:170
-6.6413,-6.3911,1.2016,-0.3667,-0.3453,0.1193,-0.0101,-0.0166,0.0192,4178,2019-08-07 16:49:52:175
-6.6748,-6.3672,1.2581,-0.3667,-0.3453,0.1193,-0.0101,-0.0166,0.0192,4183,2019-08-07 16:49:52:180
-6.6748,-6.3672,1.2581,-0.3689,-0.386,0.1426,-0.0186,-0.0049,0.0149,4188,2019-08-07 16:49:52:185
-6.6748,-6.3672,1.2581,-0.3689,-0.386,0.1426,-0.0186,-0.0049,0.0149,4193,2019-08-07 16:49:52:190
-6.7753,-6.2861,1.1167,-0.3689,-0.386,0.1426,-0.026,0.0175,0.0053,4198,2019-08-07 16:49:52:195
-6.7753,-6.2861,1.1167,-0.3689,-0.386,0.1426,-0.026,0.0175,0.0053,4202,2019-08-07 16:49:52:199
-6.7753,-6.2861,1.1167,-0.3689,-0.386,0.1426,-0.0335,0.0282,0.0021,4208,2019-08-07 16:49:52:205
-6.8088,-6.4006,1.1403,-0.2036,-0.3327,0.1733,-0.0335,0.0282,0.0021,4213,2019-08-07 16:49:52:210
-6.8088,-6.4006,1.1403,-0.2036,-0.3327,0.1733,-0.0388,0.0441,-0.0117,4217,2019-08-07 16:49:52:214
-6.914,-6.3863,1.1167,-0.2036,-0.3327,0.1733,-0.0388,0.0441,-0.0117,4223,2019-08-07 16:49:52:220
-6.914,-6.3863,1.1167,-0.0753,-0.3866,0.1237,-0.0442,0.0431,-0.017,4227,2019-08-07 16:49:52:224
-6.914,-6.3863,1.1167,-0.0753,-0.3866,0.1237,-0.0442,0.0431,-0.017,4233,2019-08-07 16:49:52:230
-6.9762,-6.3577,1.2015,-0.0753,-0.3866,0.1237,-0.0378,0.0292,-0.0128,4237,2019-08-07 16:49:52:234
-6.9762,-6.3577,1.2015,-0.0753,-0.3866,0.1237,-0.0378,0.0292,-0.0128,4243,2019-08-07 16:49:52:240
-6.8758,-6.3577,1.1968,-0.1379,-0.3784,0.0954,-0.0324,0.0122,-0.0064,4248,2019-08-07 16:49:52:245
-6.8758,-6.3577,1.1968,-0.1379,-0.3784,0.0954,-0.0324,0.0122,-0.0064,4252,2019-08-07 16:49:52:249
-6.8758,-6.3577,1.1968,-0.1379,-0.3784,0.0954,-0.0292,-0.0102,-0.0042,4258,2019-08-07 16:49:52:255
-6.6222,-6.3529,1.2298,-0.1379,-0.3784,0.0954,-0.0292,-0.0102,-0.0042,4263,2019-08-07 16:49:52:260
-6.6222,-6.3529,1.2298,-0.3763,-0.3846,0.1393,-0.0154,-0.0144,-0.0074,4268,2019-08-07 16:49:52:265
-6.6796,-6.3529,1.0648,-0.3763,-0.3846,0.1393,-0.0154,-0.0144,-0.0074,4273,2019-08-07 16:49:52:270
-6.6796,-6.3529,1.0648,-0.3763,-0.3846,0.1393,-0.0154,-0.0144,-0.0074,4277,2019-08-07 16:49:52:274
-6.6796,-6.3529,1.0648,-0.3763,-0.3846,0.1393,-0.0229,0.0218,0.0085,4283,2019-08-07 16:49:52:280
-6.5457,-6.4388,1.1685,-0.3763,-0.3846,0.1393,-0.0229,0.0218,0.0085,4287,2019-08-07 16:49:52:284
-6.5457,-6.4388,1.1685,-0.4436,-0.2325,0.1388,-0.0271,0.0388,0.0011,4293,2019-08-07 16:49:52:290
-6.5457,-6.4388,1.1685,-0.4436,-0.2325,0.1388,-0.0271,0.0388,0.0011,4298,2019-08-07 16:49:52:295
-6.6701,-6.5009,1.145,-0.4436,-0.2325,0.1388,-0.0197,0.0633,-0.0053,4303,2019-08-07 16:49:52:300
-6.6701,-6.5009,1.145,-0.4436,-0.2325,0.1388,-0.0197,0.0633,-0.0053,4307,2019-08-07 16:49:52:304
-6.6988,-6.5057,1.145,-0.3198,-0.2196,0.0667,-0.0197,0.0633,-0.0053,4313,2019-08-07 16:49:52:310
-6.6988,-6.5057,1.145,-0.3198,-0.2196,0.0667,-0.0165,0.0708,-0.0053,4317,2019-08-07 16:49:52:314
-6.6988,-6.5057,1.145,-0.3198,-0.2196,0.0667,-0.0165,0.0708,-0.0053,4323,2019-08-07 16:49:52:320
-6.7084,-6.4913,1.1968,-0.3198,-0.2196,0.0667,-0.0154,0.0878,-0.0224,4327,2019-08-07 16:49:52:324
-6.7084,-6.4913,1.1968,-0.1619,-0.2412,0.1518,-0.0154,0.0878,-0.0224,4333,2019-08-07 16:49:52:330
-6.7084,-6.4913,1.1968,-0.1619,-0.2412,0.1518,-0.0122,0.0953,-0.0287,4337,2019-08-07 16:49:52:334
-6.9189,-6.4006,1.1921,-0.1619,-0.2412,0.1518,-0.0122,0.0953,-0.0287,4343,2019-08-07 16:49:52:340
-6.9189,-6.4006,1.1921,-0.1619,-0.2412,0.1518,-0.009,0.0857,-0.0266,4347,2019-08-07 16:49:52:344
-6.7945,-6.4341,1.2015,-0.1757,-0.278,0.0944,-0.009,0.0857,-0.0266,4353,2019-08-07 16:49:52:350
-6.7945,-6.4341,1.2015,-0.1757,-0.278,0.0944,-0.0037,0.0676,-0.0202,4358,2019-08-07 16:49:52:355
-6.7945,-6.4341,1.2015,-0.1757,-0.278,0.0944,-0.0037,0.0676,-0.0202,4363,2019-08-07 16:49:52:360
-6.8137,-6.3815,1.1261,-0.1757,-0.278,0.0944,-5.0E-4,0.0473,-0.017,4367,2019-08-07 16:49:52:364
-6.8137,-6.3815,1.1261,-0.1846,-0.314,0.0985,-5.0E-4,0.0473,-0.017,4373,2019-08-07 16:49:52:370
-6.7898,-6.4293,1.1732,-0.1846,-0.314,0.0985,-0.0037,0.0207,-0.0085,4378,2019-08-07 16:49:52:375
-6.7898,-6.4293,1.1732,-0.1846,-0.314,0.0985,-0.0037,0.0207,-0.0085,4383,2019-08-07 16:49:52:380
-6.7898,-6.4293,1.1732,-0.1846,-0.314,0.0985,-0.0037,0.0207,-0.0085,4388,2019-08-07 16:49:52:385
-6.6558,-6.5486,1.1308,-0.3565,-0.2005,0.099,-0.0047,0.0186,0.0043,4393,2019-08-07 16:49:52:390
-6.6558,-6.5486,1.1308,-0.3565,-0.2005,0.099,-0.0047,0.0186,0.0043,4398,2019-08-07 16:49:52:395
-6.6499,-6.544,1.0603,-0.3565,-0.2005,0.099,0.0134,0.0314,0.0107,4403,2019-08-07 16:49:52:400
-6.6499,-6.544,1.0603,-0.3565,-0.2005,0.099,0.0134,0.0314,0.0107,4408,2019-08-07 16:49:52:405
-6.6499,-6.544,1.0603,-0.4063,-0.205,0.1704,0.0187,0.0612,0.0107,4413,2019-08-07 16:49:52:410
-6.6642,-6.4485,1.0038,-0.4063,-0.205,0.1704,0.0187,0.0612,0.0107,4418,2019-08-07 16:49:52:415
-6.6642,-6.4485,1.0038,-0.4063,-0.205,0.1704,0.0176,0.075,0.0107,4423,2019-08-07 16:49:52:420
-6.9848,-6.3196,0.7539,-0.4063,-0.205,0.1704,0.0176,0.075,0.0107,4427,2019-08-07 16:49:52:424
-6.9848,-6.3196,0.7539,-0.0223,-0.4465,0.4207,-0.0356,0.0505,0.0085,4433,2019-08-07 16:49:52:430
-6.9848,-6.3196,0.7539,-0.0223,-0.4465,0.4207,-0.0356,0.0505,0.0085,4437,2019-08-07 16:49:52:434
-6.8317,-6.3912,1.2583,-0.0223,-0.4465,0.4207,0.0027,0.058,-0.001,4443,2019-08-07 16:49:52:440
-6.8317,-6.3912,1.2583,-0.0223,-0.4465,0.4207,0.0027,0.058,-0.001,4448,2019-08-07 16:49:52:445
-6.8317,-6.3912,1.2583,-0.0729,-0.2258,0.2084,0.0027,0.058,-0.001,4452,2019-08-07 16:49:52:449
-6.8843,-6.4676,1.0839,-0.0729,-0.2258,0.2084,0.0336,0.0537,-0.0032,4458,2019-08-07 16:49:52:455
-6.8843,-6.4676,1.0839,-0.0729,-0.2258,0.2084,0.0506,0.0931,-0.0042,4463,2019-08-07 16:49:52:460
-6.8843,-6.4676,1.0839,-0.0729,-0.2258,0.2084,0.0506,0.0931,-0.0042,4467,2019-08-07 16:49:52:464
-6.7647,-6.5153,1.1782,-0.266,-0.2822,0.0191,0.0506,0.0931,-0.0042,4473,2019-08-07 16:49:52:470
-6.7647,-6.5153,1.1782,-0.266,-0.2822,0.0191,0.0698,0.1006,-0.0096,4478,2019-08-07 16:49:52:475
-6.8987,-6.3864,0.9331,-0.266,-0.2822,0.0191,0.0698,0.1006,-0.0096,4483,2019-08-07 16:49:52:480
-6.8987,-6.3864,0.9331,-0.266,-0.2822,0.0191,0.0464,0.0995,-0.0074,4488,2019-08-07 16:49:52:485
-6.8987,-6.4628,1.197,-0.1628,-0.2862,0.0823,0.0464,0.0995,-0.0074,4493,2019-08-07 16:49:52:490
-6.8412,-6.4628,1.197,-0.1628,-0.2862,0.0823,0.0368,0.0878,-0.0064,4498,2019-08-07 16:49:52:495
-6.8412,-6.4628,1.197,-0.1628,-0.2862,0.0823,0.0368,0.0878,-0.0064,4503,2019-08-07 16:49:52:500
-6.8747,-6.6012,1.2395,-0.1628,-0.2862,0.0823,0.0485,0.0612,-0.0021,4507,2019-08-07 16:49:52:504
-6.8747,-6.6012,1.2395,-0.1452,-0.0897,0.0351,0.0485,0.0612,-0.0021,4513,2019-08-07 16:49:52:510
-6.8747,-6.6012,1.2395,-0.1452,-0.0897,0.0351,0.0517,0.0516,0.0053,4517,2019-08-07 16:49:52:514
-6.8078,-6.6347,1.1688,-0.1452,-0.0897,0.0351,0.0517,0.0516,0.0053,4523,2019-08-07 16:49:52:520