ACCELEROMETER X (m/s²),ACCELEROMETER Y (m/s²),ACCELEROMETER Z (m/s²),LINEAR ACCELERATION X (m/s²),LINEAR ACCELERATION Y (m/s²),LINEAR ACCELERATION Z (m/s²),GYROSCOPE X (rad/s),GYROSCOPE Y (rad/s),GYROSCOPE Z (rad/s),Time since start in ms ,YYYY-MO-DD HH-MI-SS_SSS
-6.7686,-6.3049,1.3801,-0.2286,-0.4093,0.0853,-0.0079,0.0037,0.0032,3,2019-08-07 16:48:53:937
-6.7686,-6.3049,1.3801,-0.2286,-0.4093,0.0853,-0.0047,-0.0016,0.0106,9,2019-08-07 16:48:53:943
-6.7255,-6.2858,1.2292,-0.3117,-0.3934,0.2113,-0.0047,-0.0016,0.0106,14,2019-08-07 16:48:53:948
-6.7255,-6.2858,1.2292,-0.3117,-0.3934,0.2113,-0.0069,5.0E-4,0.0128,19,2019-08-07 16:48:53:953
-6.7255,-6.2858,1.2292,-0.3117,-0.3934,0.2113,-0.0069,5.0E-4,0.0128,23,2019-08-07 16:48:53:957
-6.6777,-6.3526,1.2009,-0.3117,-0.3934,0.2113,-0.0101,0.0058,0.017,29,2019-08-07 16:48:53:963
-6.6777,-6.3526,1.2009,-0.3117,-0.3934,0.2113,-0.0101,0.0058,0.017,34,2019-08-07 16:48:53:968
-6.6777,-6.3526,1.2009,-0.3525,-0.3102,0.1661,-0.0101,0.0058,0.017,38,2019-08-07 16:48:53:972
-6.6777,-6.3526,1.2009,-0.3525,-0.3102,0.1661,-0.0047,0.0229,0.0192,44,2019-08-07 16:48:53:978
-6.6687,-6.3908,1.2574,-0.3525,-0.3102,0.1661,-0.0047,0.0229,0.0192,49,2019-08-07 16:48:53:983
-6.6687,-6.3908,1.2574,-0.3525,-0.3102,0.1661,-0.0047,0.0484,0.0192,53,2019-08-07 16:48:53:987
-6.6639,-6.3621,1.2951,-0.3504,-0.27,0.1225,-0.0047,0.0484,0.0192,59,2019-08-07 16:48:53:993
-6.6639,-6.3621,1.2951,-0.3504,-0.27,0.1225,-0.0058,0.0687,0.0149,63,2019-08-07 16:48:53:997
-6.6639,-6.3621,1.2951,-0.3504,-0.27,0.1225,-0.0058,0.0687,0.0149,69,2019-08-07 16:48:54:003
-6.7643,-6.386,1.3705,-0.3504,-0.27,0.1225,-0.0111,0.0804,0.0149,73,2019-08-07 16:48:54:007
-6.7643,-6.386,1.3705,-0.2588,-0.292,0.1154,-0.0111,0.0804,0.0149,79,2019-08-07 16:48:54:013
-6.8409,-6.3812,1.3752,-0.2588,-0.292,0.1154,-0.0111,0.0761,0.016,84,2019-08-07 16:48:54:018
-6.8409,-6.3812,1.3752,-0.2588,-0.292,0.1154,-0.0111,0.0761,0.016,88,2019-08-07 16:48:54:022
-6.8409,-6.3812,1.3752,-0.2588,-0.292,0.1154,-0.0111,0.0761,0.016,94,2019-08-07 16:48:54:028
-6.8839,-6.3335,1.4224,-0.1485,-0.347,-0.0285,-0.0069,0.0623,0.0128,98,2019-08-07 16:48:54:032
-6.8839,-6.3335,1.4224,-0.1485,-0.347,-0.0285,-0.0069,0.0623,0.0128,104,2019-08-07 16:48:54:038
-6.8887,-6.281,1.3941,-0.1485,-0.347,-0.0285,-0.0037,0.025,0.0213,109,2019-08-07 16:48:54:043
-6.8887,-6.281,1.3941,-0.1485,-0.347,-0.0285,-0.0037,0.025,0.0213,114,2019-08-07 16:48:54:048
-6.8887,-6.281,1.3941,-0.2104,-0.4245,0.0186,-0.0122,0.0037,0.0213,119,2019-08-07 16:48:54:053
-6.8552,-6.2141,1.3894,-0.2104,-0.4245,0.0186,-0.0122,0.0037,0.0213,123,2019-08-07 16:48:54:057
-6.8552,-6.2141,1.3894,-0.2362,-0.394,0.0557,-0.0133,-0.0016,0.0213,129,2019-08-07 16:48:54:063
-6.8074,-6.3335,1.3517,-0.2362,-0.394,0.0557,-0.0133,-0.0016,0.0213,133,2019-08-07 16:48:54:067
-6.8074,-6.3335,1.3517,-0.2362,-0.394,0.0557,-0.0154,-0.0059,0.0234,139,2019-08-07 16:48:54:073
-6.8074,-6.3335,1.3517,-0.2362,-0.394,0.0557,-0.0154,-0.0059,0.0234,143,2019-08-07 16:48:54:077
-6.7835,-6.3621,1.3705,-0.2728,-0.2764,0.0543,-0.0207,-0.0038,0.0277,149,2019-08-07 16:48:54:083
-6.7835,-6.3621,1.3705,-0.2728,-0.2764,0.0543,-0.0207,-0.0038,0.0277,153,2019-08-07 16:48:54:087
-6.6926,-6.4146,1.3187,-0.2728,-0.2764,0.0543,-0.0207,0.0175,0.0266,159,2019-08-07 16:48:54:093
-6.6926,-6.4146,1.3187,-0.2728,-0.2764,0.0543,-0.0207,0.0175,0.0266,163,2019-08-07 16:48:54:097
-6.6926,-6.4146,1.3187,-0.3195,-0.2067,0.078,-0.0218,0.0324,0.0287,169,2019-08-07 16:48:54:103
-6.7452,-6.4385,1.3234,-0.3195,-0.2067,0.078,-0.0218,0.0324,0.0287,173,2019-08-07 16:48:54:107
-6.7452,-6.4385,1.3234,-0.2882,-0.21,0.0411,-0.0197,0.042,0.0298,179,2019-08-07 16:48:54:113
-6.7117,-6.4194,1.3658,-0.2882,-0.21,0.0411,-0.0197,0.042,0.0298,184,2019-08-07 16:48:54:118
-6.7117,-6.4194,1.3658,-0.2882,-0.21,0.0411,-0.0197,0.042,0.0298,188,2019-08-07 16:48:54:122
-6.7117,-6.4194,1.3658,-0.2882,-0.21,0.0411,-0.0197,0.042,0.0298,194,2019-08-07 16:48:54:128
-6.75,-6.4433,1.2857,-0.2882,-0.21,0.0411,-0.0197,0.0463,0.033,199,2019-08-07 16:48:54:133
-6.75,-6.4433,1.2857,-0.2838,-0.192,0.0555,-0.0197,0.0463,0.033,203,2019-08-07 16:48:54:137
-6.75,-6.4433,1.2857,-0.2838,-0.192,0.0555,-0.0143,0.0559,0.0266,209,2019-08-07 16:48:54:143
-6.8361,-6.4481,1.2951,-0.2838,-0.192,0.0555,-0.0143,0.0559,0.0266,214,2019-08-07 16:48:54:148
-6.8361,-6.4481,1.2951,-0.1601,-0.2504,0.0739,-0.0079,0.0431,0.0287,219,2019-08-07 16:48:54:153
-6.8361,-6.4481,1.2951,-0.1601,-0.2504,0.0739,-0.0079,0.0431,0.0287,223,2019-08-07 16:48:54:157
-6.8696,-6.3573,1.2951,-0.1601,-0.2504,0.0739,-0.0058,0.0229,0.0277,229,2019-08-07 16:48:54:163
-6.8696,-6.3573,1.2951,-0.1601,-0.2504,0.0739,-0.0058,0.0229,0.0277,234,2019-08-07 16:48:54:168
-6.9031,-6.3048,1.2527,-0.1793,-0.3418,0.125,-0.0037,0.0282,0.0245,239,2019-08-07 16:48:54:173
-6.9031,-6.3048,1.2527,-0.1793,-0.3418,0.125,-0.0037,0.0282,0.0245,244,2019-08-07 16:48:54:178
-6.9509,-6.3096,1.1867,-0.134,-0.3349,0.1884,-0.0037,0.0282,0.0245,249,2019-08-07 16:48:54:183
-6.9509,-6.3096,1.1867,-0.134,-0.3349,0.1884,-0.0026,0.0229,0.0245,253,2019-08-07 16:48:54:187
-6.9509,-6.3096,1.1867,-0.134,-0.3349,0.1884,-0.0026,0.0229,0.0245,258,2019-08-07 16:48:54:192
-6.9557,-6.2857,1.2668,-0.134,-0.3349,0.1884,-5.0E-4,0.0218,0.0149,263,2019-08-07 16:48:54:197
-6.9557,-6.2857,1.2668,-0.1335,-0.398,0.1088,-5.0E-4,0.0218,0.0149,269,2019-08-07 16:48:54:203
-6.9222,-6.3335,1.2338,-0.1335,-0.398,0.1088,0.0027,0.0175,0.0149,273,2019-08-07 16:48:54:207
-6.9222,-6.3335,1.2338,-0.1335,-0.398,0.1088,0.0027,0.0175,0.0149,279,2019-08-07 16:48:54:213
-6.9222,-6.3335,1.2338,-0.1335,-0.398,0.1088,0.0017,0.025,0.0117,283,2019-08-07 16:48:54:217
-6.8839,-6.3526,1.2197,-0.2085,-0.276,0.204,0.0017,0.025,0.0117,289,2019-08-07 16:48:54:223
-6.8839,-6.3526,1.2197,-0.2085,-0.276,0.204,0.0017,0.025,0.0117,293,2019-08-07 16:48:54:227
-6.9126,-6.343,1.2668,-0.2085,-0.276,0.204,6.0E-4,0.0314,0.0064,299,2019-08-07 16:48:54:233
-6.9126,-6.343,1.2668,-0.2085,-0.276,0.204,6.0E-4,0.0314,0.0064,304,2019-08-07 16:48:54:238
-6.9126,-6.343,1.2668,-0.1868,-0.2983,0.0443,0.0027,0.0229,0.0064,309,2019-08-07 16:48:54:243
-6.8839,-6.3239,1.3187,-0.1868,-0.2983,0.0443,0.0027,0.0229,0.0064,313,2019-08-07 16:48:54:247
-6.8839,-6.3239,1.3187,-0.1868,-0.2983,0.0443,0.0027,0.0175,0.0074,319,2019-08-07 16:48:54:253
-6.8648,-6.3574,1.2763,-0.1868,-0.2983,0.0443,0.0027,0.0175,0.0074,323,2019-08-07 16:48:54:257
-6.8648,-6.3574,1.2763,-0.222,-0.2397,0.1174,0.007,0.0154,0.0042,329,2019-08-07 16:48:54:263
-6.8648,-6.3574,1.2763,-0.222,-0.2397,0.1174,0.007,0.0154,0.0042,333,2019-08-07 16:48:54:267
-6.8361,-6.386,1.2574,-0.222,-0.2397,0.1174,0.008,0.0218,0.0042,339,2019-08-07 16:48:54:273
-6.8361,-6.386,1.2574,-0.222,-0.2397,0.1174,0.008,0.0218,0.0042,343,2019-08-07 16:48:54:277
-6.8696,-6.3621,1.248,-0.228,-0.2722,0.1107,0.0123,0.0239,0.0011,349,2019-08-07 16:48:54:283
-6.8696,-6.3621,1.248,-0.228,-0.2722,0.1107,0.0123,0.0239,0.0011,354,2019-08-07 16:48:54:288
-6.8696,-6.3621,1.248,-0.228,-0.2722,0.1107,0.0123,0.0239,0.0011,359,2019-08-07 16:48:54:293
-6.8743,-6.3096,1.2527,-0.224,-0.3241,0.1051,0.0123,0.0229,0.0053,364,2019-08-07 16:48:54:298
-6.8743,-6.3096,1.2527,-0.224,-0.3241,0.1051,0.0123,0.0229,0.0053,369,2019-08-07 16:48:54:303
-6.8552,-6.3335,1.2951,-0.224,-0.3241,0.1051,0.0112,0.025,0.0042,373,2019-08-07 16:48:54:307
-6.8552,-6.3335,1.2951,-0.2495,-0.2751,0.07,0.0112,0.025,0.0042,379,2019-08-07 16:48:54:313
-6.8552,-6.3335,1.2951,-0.2495,-0.2751,0.07,0.0134,0.025,0.0021,383,2019-08-07 16:48:54:317
-6.8409,-6.2905,1.2904,-0.2495,-0.2751,0.07,0.0134,0.025,0.0021,389,2019-08-07 16:48:54:323
-6.8409,-6.2905,1.2904,-0.2495,-0.2751,0.07,0.0134,0.0207,0.0085,393,2019-08-07 16:48:54:327
-6.8696,-6.3478,1.2574,-0.2321,-0.2831,0.0967,0.0134,0.0207,0.0085,399,2019-08-07 16:48:54:333
-6.8696,-6.3478,1.2574,-0.2321,-0.2831,0.0967,0.0134,0.0207,0.0085,404,2019-08-07 16:48:54:338
-6.8696,-6.3478,1.2574,-0.2321,-0.2831,0.0967,0.0166,0.0218,0.0074,409,2019-08-07 16:48:54:343
-6.8504,-6.3239,1.2197,-0.2522,-0.3061,0.1337,0.0166,0.0218,0.0074,413,2019-08-07 16:48:54:347
-6.8504,-6.3239,1.2197,-0.2522,-0.3061,0.1337,0.0123,0.025,0.0106,419,2019-08-07 16:48:54:353
-6.8504,-6.3239,1.2197,-0.2522,-0.3061,0.1337,0.0123,0.025,0.0106,423,2019-08-07 16:48:54:357
-6.7834,-6.3812,1.2951,-0.2522,-0.3061,0.1337,0.0123,0.0186,0.0106,429,2019-08-07 16:48:54:363
-6.7834,-6.3812,1.2951,-0.2828,-0.2232,0.0894,0.0123,0.0186,0.0106,433,2019-08-07 16:48:54:367
-6.7643,-6.3478,1.2385,-0.2828,-0.2232,0.0894,0.0155,0.0186,0.0138,439,2019-08-07 16:48:54:373
-6.7643,-6.3478,1.2385,-0.2828,-0.2232,0.0894,0.0208,0.0197,0.0128,443,2019-08-07 16:48:54:377
-6.7643,-6.3478,1.2385,-0.2828,-0.2232,0.0894,0.0208,0.0197,0.0128,449,2019-08-07 16:48:54:383
-6.8265,-6.3812,1.2857,-0.2802,-0.245,0.065,0.0208,0.0197,0.0128,454,2019-08-07 16:48:54:388
-6.8265,-6.3812,1.2857,-0.2802,-0.245,0.065,0.0187,0.0229,0.0138,458,2019-08-07 16:48:54:392
-6.903,-6.3383,1.2715,-0.2048,-0.2868,0.0787,0.0187,0.0229,0.0138,464,2019-08-07 16:48:54:398
-6.903,-6.3383,1.2715,-0.2048,-0.2868,0.0787,0.0166,0.0218,0.016,468,2019-08-07 16:48:54:402
-6.903,-6.3383,1.2715,-0.2048,-0.2868,0.0787,0.0166,0.0218,0.016,474,2019-08-07 16:48:54:408
-6.927,-6.3478,1.2857,-0.2048,-0.2868,0.0787,0.0176,0.025,0.0149,479,2019-08-07 16:48:54:413
-6.927,-6.3478,1.2857,-0.1744,-0.2503,0.068,0.0176,0.025,0.0149,484,2019-08-07 16:48:54:418
-6.927,-6.3478,1.2857,-0.1744,-0.2503,0.068,0.024,0.0218,0.0085,488,2019-08-07 16:48:54:422
-6.9892,-6.3574,1.248,-0.1744,-0.2503,0.068,0.024,0.0218,0.0085,494,2019-08-07 16:48:54:428
-6.9892,-6.3574,1.248,-0.1744,-0.2503,0.068,0.0262,0.0154,0.0074,499,2019-08-07 16:48:54:433
-6.9078,-6.3574,1.3187,-0.1864,-0.2477,0.0069,0.0262,0.0154,0.0074,504,2019-08-07 16:48:54:438
-6.9078,-6.3574,1.3187,-0.1864,-0.2477,0.0069,0.0262,0.0154,0.0074,509,2019-08-07 16:48:54:443
-6.9078,-6.3574,1.3187,-0.1864,-0.2477,0.0069,0.0325,0.0186,-0.0021,513,2019-08-07 16:48:54:447
-6.9413,-6.3192,1.2951,-0.1864,-0.2477,0.0069,0.0325,0.0186,-0.0021,519,2019-08-07 16:48:54:453
-6.9413,-6.3192,1.2951,-0.2111,-0.3371,0.1171,0.0357,0.0239,-0.0053,523,2019-08-07 16:48:54:457
-6.9174,-6.2714,1.248,-0.2111,-0.3371,0.1171,0.0357,0.0239,-0.0053,529,2019-08-07 16:48:54:463
-6.9174,-6.2714,1.248,-0.2111,-0.3371,0.1171,0.0315,0.0314,-0.0096,533,2019-08-07 16:48:54:467
-6.9174,-6.2714,1.248,-0.2111,-0.3371,0.1171,0.0315,0.0314,-0.0096,539,2019-08-07 16:48:54:473
-6.9892,-6.1807,1.38,-0.1255,-0.4367,-0.0283,0.0368,0.0197,-0.0117,545,2019-08-07 16:48:54:479
-6.9892,-6.1807,1.38,-0.1255,-0.4367,-0.0283,0.0368,0.0197,-0.0117,548,2019-08-07 16:48:54:482
-6.9222,-6.1903,1.3281,-0.1255,-0.4367,-0.0283,0.0347,0.0037,-0.0149,554,2019-08-07 16:48:54:488
-6.9222,-6.1903,1.3281,-0.1255,-0.4367,-0.0283,0.0347,0.0037,-0.0149,558,2019-08-07 16:48:54:492
-6.9222,-6.1903,1.3281,-0.1776,-0.4031,0.0275,0.0272,-0.008,-0.016,564,2019-08-07 16:48:54:498
-6.8648,-6.2046,1.3375,-0.1776,-0.4031,0.0275,0.0272,-0.008,-0.016,568,2019-08-07 16:48:54:502
-6.8648,-6.2046,1.3375,-0.1776,-0.4031,0.0275,0.0219,-0.024,-0.0107,574,2019-08-07 16:48:54:508
-6.8648,-6.2046,1.3375,-0.1776,-0.4031,0.0275,0.0219,-0.024,-0.0107,579,2019-08-07 16:48:54:513
-6.8695,-6.2714,1.38,-0.2526,-0.3318,-0.0273,0.0166,-0.0261,-0.0043,583,2019-08-07 16:48:54:517
-6.8695,-6.2714,1.38,-0.2526,-0.3318,-0.0273,0.0166,-0.0261,-0.0043,589,2019-08-07 16:48:54:523
-6.8695,-6.2714,1.38,-0.2526,-0.3318,-0.0273,0.0166,-0.0261,-0.0043,593,2019-08-07 16:48:54:527
-6.7786,-6.238,1.3423,-0.3334,-0.3794,0.0231,0.0123,-0.0325,-0.0043,599,2019-08-07 16:48:54:533
-6.7786,-6.238,1.3423,-0.3334,-0.3794,0.0231,0.0123,-0.0325,-0.0043,603,2019-08-07 16:48:54:537
-6.7643,-6.2141,1.2857,-0.3334,-0.3794,0.0231,0.008,-0.0293,-0.0021,609,2019-08-07 16:48:54:543
-6.7643,-6.2141,1.2857,-0.3949,-0.4697,0.0949,0.008,-0.0293,-0.0021,613,2019-08-07 16:48:54:547
-6.7643,-6.2141,1.2857,-0.3949,-0.4697,0.0949,-0.0037,-0.0112,0.0042,619,2019-08-07 16:48:54:553
-6.7021,-6.2237,1.2763,-0.3949,-0.4697,0.0949,-0.0037,-0.0112,0.0042,624,2019-08-07 16:48:54:558
-6.7021,-6.2237,1.2763,-0.3949,-0.4697,0.0949,-0.0143,0.0175,0.0053,628,2019-08-07 16:48:54:562
-6.7834,-6.2046,1.2621,-0.3291,-0.4116,0.1066,-0.0143,0.0175,0.0053,633,2019-08-07 16:48:54:567
-6.7834,-6.2046,1.2621,-0.3291,-0.4116,0.1066,-0.0175,0.0378,0.0064,639,2019-08-07 16:48:54:573
-6.7834,-6.2046,1.2621,-0.3291,-0.4116,0.1066,-0.0175,0.0378,0.0064,643,2019-08-07 16:48:54:577
-6.8648,-6.2189,1.2386,-0.2491,-0.3967,0.1262,-0.0186,0.0346,0.0053,649,2019-08-07 16:48:54:583
-6.8648,-6.2189,1.2386,-0.2491,-0.3967,0.1262,-0.0186,0.0346,0.0053,653,2019-08-07 16:48:54:587
-6.9604,-6.2237,1.2433,-0.2491,-0.3967,0.1262,-0.0186,0.0346,0.0053,659,2019-08-07 16:48:54:593
-6.9604,-6.2237,1.2433,-0.2491,-0.3967,0.1262,-0.0154,0.0218,0.0074,663,2019-08-07 16:48:54:597
-6.9604,-6.2237,1.2433,-0.2324,-0.3479,0.0908,-0.0154,0.0218,0.0074,669,2019-08-07 16:48:54:603
-6.8887,-6.281,1.2763,-0.2324,-0.3479,0.0908,-0.0122,0.0101,0.0096,673,2019-08-07 16:48:54:607
-6.8887,-6.281,1.2763,-0.2324,-0.3479,0.0908,-0.0122,0.0101,0.0096,679,2019-08-07 16:48:54:613
-6.8791,-6.2046,1.2904,-0.2394,-0.4083,0.0632,-0.0154,0.009,0.0085,683,2019-08-07 16:48:54:617
-6.8791,-6.2046,1.2904,-0.2394,-0.4083,0.0632,-0.0154,0.009,0.0085,689,2019-08-07 16:48:54:623
-6.8791,-6.2046,1.2904,-0.2394,-0.4083,0.0632,-0.0154,0.009,0.0085,693,2019-08-07 16:48:54:627
-6.9413,-6.195,1.1678,-0.2394,-0.4083,0.0632,-0.0111,0.0079,0.0149,699,2019-08-07 16:48:54:633
-6.9413,-6.195,1.1678,-0.2471,-0.3343,0.0362,-0.0111,0.0079,0.0149,703,2019-08-07 16:48:54:637
-6.9413,-6.195,1.1678,-0.2471,-0.3343,0.0362,-0.0047,0.0037,0.0213,709,2019-08-07 16:48:54:643
-6.8647,-6.2571,1.2951,-0.2471,-0.3343,0.0362,-0.0047,0.0037,0.0213,713,2019-08-07 16:48:54:647
-6.8647,-6.2571,1.2951,-0.2471,-0.3343,0.0362,-0.0015,-0.0038,0.0224,719,2019-08-07 16:48:54:653
-6.8647,-6.2571,1.2951,-0.2471,-0.3343,0.0362,-0.0015,-0.0038,0.0224,723,2019-08-07 16:48:54:657
-6.8073,-6.1378,1.1914,-0.3175,-0.4692,0.1579,6.0E-4,0.0111,0.0213,729,2019-08-07 16:48:54:663
-6.8073,-6.1378,1.1914,-0.3175,-0.4692,0.1579,6.0E-4,0.0111,0.0213,733,2019-08-07 16:48:54:667
-6.9126,-6.2332,1.2197,-0.3175,-0.4692,0.1579,6.0E-4,0.025,0.0192,739,2019-08-07 16:48:54:673
-6.9126,-6.2332,1.2197,-0.3175,-0.4692,0.1579,6.0E-4,0.025,0.0192,743,2019-08-07 16:48:54:677
-6.9126,-6.2332,1.2197,-0.2068,-0.3795,0.1215,6.0E-4,0.025,0.0192,748,2019-08-07 16:48:54:682
-6.9317,-6.2237,1.2338,-0.2068,-0.3795,0.1215,6.0E-4,0.0229,0.016,754,2019-08-07 16:48:54:688
-6.9317,-6.2237,1.2338,-0.2068,-0.3795,0.1215,6.0E-4,0.0229,0.016,759,2019-08-07 16:48:54:693
-6.9174,-6.2905,1.2716,-0.2068,-0.3795,0.1215,-0.0015,0.0143,0.016,763,2019-08-07 16:48:54:697
-6.9174,-6.2905,1.2716,-0.2628,-0.3383,0.0902,-0.0015,0.0143,0.016,769,2019-08-07 16:48:54:703
-6.9174,-6.2905,1.2716,-0.2628,-0.3383,0.0902,6.0E-4,0.0165,0.0085,773,2019-08-07 16:48:54:707
-6.8456,-6.2905,1.2433,-0.2628,-0.3383,0.0902,6.0E-4,0.0165,0.0085,779,2019-08-07 16:48:54:713
-6.8456,-6.2905,1.2433,-0.2628,-0.3383,0.0902,-5.0E-4,0.0133,0.0096,784,2019-08-07 16:48:54:718
-6.8504,-6.3144,1.3187,-0.2696,-0.2793,0.0546,-5.0E-4,0.0133,0.0096,789,2019-08-07 16:48:54:723
-6.8504,-6.3144,1.3187,-0.2696,-0.2793,0.0546,-5.0E-4,0.0133,0.0096,794,2019-08-07 16:48:54:728
-6.8504,-6.3144,1.3187,-0.2944,-0.2357,0.0822,-0.0047,0.0015,0.0106,799,2019-08-07 16:48:54:733
-6.8456,-6.4051,1.2904,-0.2944,-0.2357,0.0822,-0.0047,0.0015,0.0106,803,2019-08-07 16:48:54:737
-6.8456,-6.4051,1.2904,-0.2944,-0.2357,0.0822,-0.0058,-0.0176,0.016,809,2019-08-07 16:48:54:743
-6.7786,-6.3955,1.3375,-0.2944,-0.2357,0.0822,-0.0058,-0.0176,0.016,813,2019-08-07 16:48:54:747
-6.7786,-6.3955,1.3375,-0.3576,-0.2294,-0.0011,-0.0079,-0.0261,0.0192,819,2019-08-07 16:48:54:753
-6.7786,-6.3955,1.3375,-0.3576,-0.2294,-0.0011,-0.0079,-0.0261,0.0192,823,2019-08-07 16:48:54:757
-6.7356,-6.3621,1.2998,-0.4013,-0.2332,0.043,-0.0122,-0.023,0.0213,829,2019-08-07 16:48:54:763
-6.7356,-6.3621,1.2998,-0.4013,-0.2332,0.043,-0.0122,-0.023,0.0213,833,2019-08-07 16:48:54:767
-6.7356,-6.3621,1.2998,-0.4013,-0.2332,0.043,-0.0207,-0.0112,0.0266,839,2019-08-07 16:48:54:773
-6.7356,-6.3048,1.314,-0.4013,-0.2332,0.043,-0.0207,-0.0112,0.0266,843,2019-08-07 16:48:54:777
-6.7356,-6.3048,1.314,-0.3512,-0.3212,0.1041,-0.0282,0.0069,0.0266,848,2019-08-07 16:48:54:782
-6.8647,-6.2667,1.3093,-0.3512,-0.3212,0.1041,-0.0282,0.0069,0.0266,854,2019-08-07 16:48:54:788
-6.8647,-6.2667,1.3093,-0.3512,-0.3212,0.1041,-0.0282,0.0069,0.0266,859,2019-08-07 16:48:54:793
-6.8647,-6.2667,1.3093,-0.3512,-0.3212,0.1041,-0.0282,0.0218,0.0213,864,2019-08-07 16:48:54:798
-6.9461,-6.2857,1.3234,-0.1683,-0.3327,0.0135,-0.0282,0.0218,0.0213,869,2019-08-07 16:48:54:803
-6.9461,-6.2857,1.3234,-0.1683,-0.3327,0.0135,-0.0324,0.0314,0.016,873,2019-08-07 16:48:54:807
-6.9987,-6.2094,1.3375,-0.1464,-0.3791,-0.0047,-0.0324,0.0314,0.016,879,2019-08-07 16:48:54:813
-6.9987,-6.2094,1.3375,-0.1464,-0.3791,-0.0047,-0.0346,0.0197,0.017,883,2019-08-07 16:48:54:817
-6.9987,-6.2094,1.3375,-0.1464,-0.3791,-0.0047,-0.0346,0.0197,0.017,889,2019-08-07 16:48:54:823
-7.0513,-6.1521,1.3564,-0.1464,-0.3791,-0.0047,-0.0431,-6.0E-4,0.017,895,2019-08-07 16:48:54:829
-7.0513,-6.1521,1.3564,-0.1217,-0.4427,-0.0485,-0.0431,-6.0E-4,0.017,899,2019-08-07 16:48:54:833
-7.08,-6.133,1.3611,-0.1217,-0.4427,-0.0485,-0.0431,-6.0E-4,0.017,904,2019-08-07 16:48:54:838
-7.08,-6.133,1.3611,-0.1217,-0.4427,-0.0485,-0.0484,-0.0304,0.0202,908,2019-08-07 16:48:54:842
-7.08,-6.133,1.3611,-0.1217,-0.4427,-0.0485,-0.0484,-0.0304,0.0202,914,2019-08-07 16:48:54:848
-7.0226,-6.2046,1.3988,-0.1301,-0.377,-0.0734,-0.0484,-0.0549,0.0298,919,2019-08-07 16:48:54:853
-7.0226,-6.2046,1.3988,-0.1301,-0.377,-0.0734,-0.0484,-0.0549,0.0298,924,2019-08-07 16:48:54:858
-7.0609,-6.2141,1.3894,-0.0936,-0.3653,-0.0622,-0.0463,-0.0688,0.0319,928,2019-08-07 16:48:54:862
-7.0609,-6.2141,1.3894,-0.0936,-0.3653,-0.0622,-0.0463,-0.0688,0.0319,934,2019-08-07 16:48:54:868
-7.0609,-6.2141,1.3894,-0.0936,-0.3653,-0.0622,-0.0463,-0.0688,0.0319,939,2019-08-07 16:48:54:873
-7.0991,-6.2332,1.5591,-0.0936,-0.3653,-0.0622,-0.0442,-0.0805,0.0362,944,2019-08-07 16:48:54:878
-7.0991,-6.2332,1.5591,-0.0299,-0.3459,-0.253,-0.0442,-0.0805,0.0362,949,2019-08-07 16:48:54:883
-7.0991,-6.2332,1.5591,-0.0299,-0.3459,-0.253,-0.0463,-0.0879,0.0341,954,2019-08-07 16:48:54:888
-7.1566,-6.2332,1.6864,-0.0299,-0.3459,-0.253,-0.0463,-0.0879,0.0341,959,2019-08-07 16:48:54:893
-7.1566,-6.2332,1.6864,-0.0299,-0.3459,-0.253,-0.0505,-0.106,0.0362,963,2019-08-07 16:48:54:897
-7.1566,-6.2332,1.6864,0.0866,-0.2781,-0.4349,-0.0505,-0.106,0.0362,969,2019-08-07 16:48:54:903
-7.3336,-6.2667,1.8796,0.0866,-0.2781,-0.4349,-0.0601,-0.1433,0.0309,973,2019-08-07 16:48:54:907
-7.3336,-6.2667,1.8796,0.0866,-0.2781,-0.4349,-0.0601,-0.1433,0.0309,979,2019-08-07 16:48:54:913
-7.434,-6.3669,2.0069,0.0866,-0.2781,-0.4349,-0.0687,-0.1785,0.0287,983,2019-08-07 16:48:54:917
-7.434,-6.3669,2.0069,0.277,-0.1728,-0.7927,-0.0687,-0.1785,0.0287,989,2019-08-07 16:48:54:923
-7.434,-6.3669,2.0069,0.277,-0.1728,-0.7927,-0.0687,-0.1785,0.0287,993,2019-08-07 16:48:54:927
-7.5584,-6.4815,2.2567,0.277,-0.1728,-0.7927,-0.0761,-0.2136,0.0309,999,2019-08-07 16:48:54:933
-7.5584,-6.4815,2.2567,0.277,-0.1728,-0.7927,-0.0761,-0.2136,0.0309,1004,2019-08-07 16:48:54:938
-7.9029,-6.6247,2.9214,0.7422,0.0664,-1.5253,-0.0729,-0.2594,0.0341,1009,2019-08-07 16:48:54:943
-7.9029,-6.6247,2.9214,0.7422,0.0664,-1.5253,-0.0729,-0.2594,0.0341,1014,2019-08-07 16:48:54:948
-7.9029,-6.6247,2.9214,0.7422,0.0664,-1.5253,-0.0569,-0.3287,0.0501,1018,2019-08-07 16:48:54:952
-8.3957,-6.8156,3.6426,0.7422,0.0664,-1.5253,-0.0569,-0.3287,0.0501,1024,2019-08-07 16:48:54:958
-8.3957,-6.8156,3.6426,1.5138,0.2969,-2.6935,-0.0197,-0.4352,0.0714,1029,2019-08-07 16:48:54:963
-8.9506,-6.8586,4.5099,1.5138,0.2969,-2.6935,-0.0197,-0.4352,0.0714,1034,2019-08-07 16:48:54:968
-8.9506,-6.8586,4.5099,1.5138,0.2969,-2.6935,0.0357,-0.6461,0.0937,1038,2019-08-07 16:48:54:972
-8.9506,-6.8586,4.5099,1.5138,0.2969,-2.6935,0.0357,-0.6461,0.0937,1044,2019-08-07 16:48:54:978
-9.6252,-6.8777,5.481,2.6091,0.3472,-4.1059,0.0613,-0.889,0.1076,1049,2019-08-07 16:48:54:983
-9.6252,-6.8777,5.481,2.6091,0.3472,-4.1059,0.0613,-0.889,0.1076,1054,2019-08-07 16:48:54:988
-9.6252,-6.8777,5.481,2.6091,0.3472,-4.1059,0.0613,-0.889,0.1076,1059,2019-08-07 16:48:54:993
-10.3907,-6.8443,6.7537,3.2431,0.3325,-5.097,0.0752,-1.1756,0.1044,1063,2019-08-07 16:48:54:997
-10.3907,-6.8443,6.7537,3.2431,0.3325,-5.097,0.0752,-1.1756,0.1044,1069,2019-08-07 16:48:55:003
-11.1083,-6.7011,8.5073,3.2431,0.3325,-5.097,0.089,-1.5665,0.065,1073,2019-08-07 16:48:55:007
-11.1083,-6.7011,8.5073,3.2431,0.3325,-5.097,0.089,-1.5665,0.065,1079,2019-08-07 16:48:55:013
-11.1083,-6.7011,8.5073,4.061,0.111,-7.2138,0.0975,-1.8382,0.0096,1084,2019-08-07 16:48:55:018
-11.314,-6.4481,9.8413,4.061,0.111,-7.2138,0.0975,-1.8382,0.0096,1089,2019-08-07 16:48:55:023
-11.314,-6.4481,9.8413,4.061,0.111,-7.2138,0.0975,-1.8382,0.0096,1094,2019-08-07 16:48:55:028
-12.07,-6.1521,10.949,5.0414,-0.3181,-8.7191,0.0911,-2.0033,-0.0597,1099,2019-08-07 16:48:55:033
-12.07,-6.1521,10.949,5.0414,-0.3181,-8.7191,0.0911,-2.0033,-0.0597,1104,2019-08-07 16:48:55:038
-12.07,-6.1521,10.949,5.0414,-0.3181,-8.7191,0.0283,-2.1428,-0.0959,1109,2019-08-07 16:48:55:043
-12.9263,-5.9086,11.9672,5.9502,-0.5576,-9.5677,0.0283,-2.1428,-0.0959,1114,2019-08-07 16:48:55:048
-12.9263,-5.9086,11.9672,5.9502,-0.5576,-9.5677,-0.026,-2.3591,-0.0725,1119,2019-08-07 16:48:55:053
-12.9263,-5.9086,11.9672,5.9502,-0.5576,-9.5677,-0.026,-2.3591,-0.0725,1124,2019-08-07 16:48:55:058
-14.3281,-5.2546,14.0695,5.9502,-0.5576,-9.5677,-0.0761,-2.7937,-0.0075,1129,2019-08-07 16:48:55:063
-14.3281,-5.2546,14.0695,7.8434,-1.371,-11.7781,-0.0761,-2.7937,-0.0075,1134,2019-08-07 16:48:55:068
-15.2228,-4.7963,15.0076,7.8434,-1.371,-11.7781,-0.0761,-2.7937,-0.0075,1138,2019-08-07 16:48:55:072
-15.2228,-4.7963,15.0076,7.8434,-1.371,-11.7781,-0.172,-3.5682,0.1268,1144,2019-08-07 16:48:55:078
-15.2228,-4.7963,15.0076,7.8434,-1.371,-11.7781,-0.172,-3.5682,0.1268,1148,2019-08-07 16:48:55:082
-16.1413,-4.2521,15.413,9.4819,-2.1693,-12.149,-0.2796,-4.3021,0.2695,1154,2019-08-07 16:48:55:088
-16.1413,-4.2521,15.413,9.4819,-2.1693,-12.149,-0.2796,-4.3021,0.2695,1158,2019-08-07 16:48:55:092
-16.8877,-3.6172,15.7759,10.3598,-2.7787,-12.2101,-0.401,-5.1298,0.4335,1164,2019-08-07 16:48:55:098
-16.8877,-3.6172,15.7759,10.3598,-2.7787,-12.2101,-0.401,-5.1298,0.4335,1169,2019-08-07 16:48:55:103
-16.8877,-3.6172,15.7759,10.3598,-2.7787,-12.2101,-0.6119,-6.2175,0.669,1174,2019-08-07 16:48:55:108
-17.7871,-2.7722,14.5126,10.3598,-2.7787,-12.2101,-0.6119,-6.2175,0.669,1178,2019-08-07 16:48:55:112
-17.7871,-2.7722,14.5126,11.4855,-3.8068,-9.5002,-0.8772,-6.9791,0.8181,1184,2019-08-07 16:48:55:118
-17.7871,-2.7722,14.5126,11.4855,-3.8068,-9.5002,-0.8772,-6.9791,0.8181,1188,2019-08-07 16:48:55:122
-17.7871,-2.7722,14.5126,11.4855,-3.8068,-9.5002,-0.8772,-6.9791,0.8181,1194,2019-08-07 16:48:55:128
-16.8303,-2.3855,11.9625,10.9312,-3.9187,-7.3048,-1.0594,-7.3924,0.9182,1198,2019-08-07 16:48:55:132
-16.8303,-2.3855,11.9625,10.9312,-3.9187,-7.3048,-1.0594,-7.3924,0.9182,1204,2019-08-07 16:48:55:138
-16.8303,-2.3855,11.9625,10.9312,-3.9187,-7.3048,-1.1989,-7.4383,1.0727,1208,2019-08-07 16:48:55:142
-14.285,-3.0682,9.4736,8.7796,-3.2082,-3.8518,-1.1989,-7.4383,1.0727,1214,2019-08-07 16:48:55:148
-14.285,-3.0682,9.4736,8.7796,-3.2082,-3.8518,-1.2575,-6.9994,1.1728,1218,2019-08-07 16:48:55:152
-13.8449,-2.4476,9.2426,8.7796,-3.2082,-3.8518,-1.2575,-6.9994,1.1728,1224,2019-08-07 16:48:55:158
-13.8449,-2.4476,9.2426,8.7796,-3.2082,-3.8518,-1.3502,-6.4039,1.2922,1228,2019-08-07 16:48:55:162
-13.8449,-2.4476,9.2426,10.1075,-4.2675,-4.3104,-1.3502,-6.4039,1.2922,1234,2019-08-07 16:48:55:168
-15.8734,-1.6647,10.3174,10.1075,-4.2675,-4.3104,-1.5249,-5.9448,1.4285,1238,2019-08-07 16:48:55:172
-15.8734,-1.6647,10.3174,10.1075,-4.2675,-4.3104,-1.5249,-5.9448,1.4285,1244,2019-08-07 16:48:55:178
-18.2033,-1.2971,10.9867,12.5532,-4.8245,-4.4268,-1.5249,-5.9448,1.4285,1248,2019-08-07 16:48:55:182
-18.2033,-1.2971,10.9867,12.5532,-4.8245,-4.4268,-1.7805,-6.0854,1.534,1254,2019-08-07 16:48:55:188
-18.2033,-1.2971,10.9867,12.5532,-4.8245,-4.4268,-1.7805,-6.0854,1.534,1259,2019-08-07 16:48:55:193
-21.5667,-0.8388,10.3268,18.1478,-5.6782,-3.591,-2.0309,-6.5786,1.6309,1264,2019-08-07 16:48:55:198
-21.5667,-0.8388,10.3268,18.1478,-5.6782,-3.591,-2.0309,-6.5786,1.6309,1268,2019-08-07 16:48:55:202
-23.5138,0.1064,6.98,18.1478,-5.6782,-3.591,-2.3622,-7.647,1.8376,1274,2019-08-07 16:48:55:208
-23.5138,0.1064,6.98,18.1478,-5.6782,-3.591,-2.3622,-7.647,1.8376,1279,2019-08-07 16:48:55:213
-23.5138,0.1064,6.98,19.7639,-7.0229,1.9098,-2.5848,-8.4119,2.073,1284,2019-08-07 16:48:55:218
-22.0738,0.6936,3.1382,19.7639,-7.0229,1.9098,-2.5848,-8.4119,2.073,1288,2019-08-07 16:48:55:222
-22.0738,0.6936,3.1382,19.7639,-7.0229,1.9098,-2.5848,-8.4119,2.073,1294,2019-08-07 16:48:55:228
-19.9065,0.9227,0.0083,18.1483,-7.4353,5.2476,-2.7425,-8.6761,2.2434,1298,2019-08-07 16:48:55:232
-19.9065,0.9227,0.0083,18.1483,-7.4353,5.2476,-2.7425,-8.6761,2.2434,1304,2019-08-07 16:48:55:238
-19.9065,0.9227,0.0083,18.1483,-7.4353,5.2476,-2.9033,-8.2191,2.2999,1309,2019-08-07 16:48:55:243
-17.6436,0.7795,-3.2018,15.2908,-7.5473,10.304,-2.9033,-8.2191,2.2999,1314,2019-08-07 16:48:55:248
-17.6436,0.7795,-3.2018,15.2908,-7.5473,10.304,-3.012,-7.4287,2.2583,1318,2019-08-07 16:48:55:252
-17.2082,-0.0034,-4.9082,15.2908,-7.5473,10.304,-3.012,-7.4287,2.2583,1324,2019-08-07 16:48:55:258
-17.2082,-0.0034,-4.9082,15.2908,-7.5473,10.304,-3.0759,-6.6159,2.1721,1329,2019-08-07 16:48:55:263
-17.2082,-0.0034,-4.9082,16.6515,-6.6502,11.3867,-3.0759,-6.6159,2.1721,1333,2019-08-07 16:48:55:267
-18.4856,-0.6049,-5.1581,16.6515,-6.6502,11.3867,-3.1632,-5.9703,2.0037,1339,2019-08-07 16:48:55:273
-18.4856,-0.6049,-5.1581,16.6515,-6.6502,11.3867,-3.1632,-5.9703,2.0037,1343,2019-08-07 16:48:55:277
-18.9257,-0.6956,-6.6146,17.7263,-6.7375,11.7867,-3.339,-5.8606,1.796,1349,2019-08-07 16:48:55:283
-18.9257,-0.6956,-6.6146,17.7263,-6.7375,11.7867,-3.339,-5.8606,1.796,1353,2019-08-07 16:48:55:287
-18.9257,-0.6956,-6.6146,17.7263,-6.7375,11.7867,-3.339,-5.8606,1.796,1359,2019-08-07 16:48:55:293
-17.0264,-0.4426,-9.1507,15.3489,-7.4095,15.5907,-3.8056,-6.2974,1.4253,1364,2019-08-07 16:48:55:298
-17.0264,-0.4426,-9.1507,15.3489,-7.4095,15.5907,-3.8056,-6.2974,1.4253,1368,2019-08-07 16:48:55:302
-12.2278,-0.0607,-11.0833,15.3489,-7.4095,15.5907,-4.3787,-7.565,1.0983,1374,2019-08-07 16:48:55:308
-12.2278,-0.0607,-11.0833,15.3489,-7.4095,15.5907,-4.3787,-7.565,1.0983,1378,2019-08-07 16:48:55:312
-12.2278,-0.0607,-11.0833,8.2943,-7.9692,19.0489,-4.6951,-8.6452,0.9055,1384,2019-08-07 16:48:55:318
-7.8359,-0.3614,-14.4914,8.2943,-7.9692,19.0489,-4.6951,-8.6452,0.9055,1389,2019-08-07 16:48:55:323
-7.8359,-0.3614,-14.4914,8.2943,-7.9692,19.0489,-4.6951,-8.6452,0.9055,1394,2019-08-07 16:48:55:328
-7.8359,-0.3614,-14.4914,8.2943,-7.9692,19.0489,-4.7739,-8.9957,0.685,1398,2019-08-07 16:48:55:332
-0.9083,-1.3305,-12.422,-0.3035,-7.0318,17.3766,-4.7739,-8.9957,0.685,1404,2019-08-07 16:48:55:338
-0.9083,-1.3305,-12.422,-0.3035,-7.0318,17.3766,-4.5619,-8.7357,0.4623,1408,2019-08-07 16:48:55:342
2.8521,-3.073,-14.6752,-0.3035,-7.0318,17.3766,-4.5619,-8.7357,0.4623,1414,2019-08-07 16:48:55:348
2.8521,-3.073,-14.6752,-0.3035,-7.0318,17.3766,-3.9771,-5.4121,0.4602,1418,2019-08-07 16:48:55:352
2.8521,-3.073,-14.6752,-4.0682,-4.1723,29.0075,-3.9771,-5.4121,0.4602,1424,2019-08-07 16:48:55:358
4.651,-5.2833,-27.379,-4.0682,-4.1723,29.0075,-3.714,-2.2952,0.4272,1428,2019-08-07 16:48:55:362
4.651,-5.2833,-27.379,-4.0682,-4.1723,29.0075,-3.714,-2.2952,0.4272,1434,2019-08-07 16:48:55:368
4.651,-5.2833,-27.379,-4.0682,-4.1723,29.0075,-3.4157,2.4357,0.2525,1438,2019-08-07 16:48:55:372
4.651,-5.2833,-27.379,-4.0682,-4.1723,29.0075,-3.4157,2.4357,0.2525,1444,2019-08-07 16:48:55:378
1.2159,-8.9591,-27.6759,0.08,0.1153,28.6342,-3.4157,2.4357,0.2525,1449,2019-08-07 16:48:55:383
1.2159,-8.9591,-27.6759,0.08,0.1153,28.6342,-2.9044,5.33,-0.0565,1454,2019-08-07 16:48:55:388
1.2159,-8.9591,-27.6759,0.08,0.1153,28.6342,-2.9044,5.33,-0.0565,1459,2019-08-07 16:48:55:393
-1.8891,-10.6633,-10.3338,0.08,0.1153,28.6342,-2.0149,5.7849,-0.2951,1464,2019-08-07 16:48:55:398
-1.8891,-10.6633,-10.3338,2.7373,1.1322,4.611,-2.0149,5.7849,-0.2951,1469,2019-08-07 16:48:55:403
-1.8891,-10.6633,-10.3338,2.7373,1.1322,4.611,-0.2466,1.2128,-0.2333,1473,2019-08-07 16:48:55:407
-2.4153,-10.7779,-5.5823,2.9576,1.2243,7.7432,-0.2466,1.2128,-0.2333,1479,2019-08-07 16:48:55:413
-2.4153,-10.7779,-5.5823,2.9576,1.2243,7.7432,0.6429,-2.0501,-0.1183,1484,2019-08-07 16:48:55:418
-2.4153,-10.7779,-5.5823,2.9576,1.2243,7.7432,0.6429,-2.0501,-0.1183,1488,2019-08-07 16:48:55:422
-0.8365,-11.0166,-13.4685,2.9576,1.2243,7.7432,0.6429,-2.0501,-0.1183,1494,2019-08-07 16:48:55:428
-0.8365,-11.0166,-13.4685,0.6625,1.0724,15.2176,1.1212,-3.9389,-0.1854,1498,2019-08-07 16:48:55:432
1.125,-9.4699,-10.9561,0.6625,1.0724,15.2176,1.1212,-3.9389,-0.1854,1503,2019-08-07 16:48:55:437
1.125,-9.4699,-10.9561,0.6625,1.0724,15.2176,1.5889,-4.9434,-0.2951,1509,2019-08-07 16:48:55:443
1.125,-9.4699,-10.9561,0.6625,1.0724,15.2176,1.5889,-4.9434,-0.2951,1514,2019-08-07 16:48:55:448
3.8568,-8.0043,-12.1958,-2.9351,-1.4672,14.5783,2.6819,-2.1418,-0.229,1519,2019-08-07 16:48:55:453
3.8568,-8.0043,-12.1958,-2.9351,-1.4672,14.5783,2.6819,-2.1418,-0.229,1524,2019-08-07 16:48:55:458
7.689,-7.9041,-14.8591,-6.6939,-1.5072,17.4424,2.4187,-0.8528,-0.1108,1529,2019-08-07 16:48:55:463
7.689,-7.9041,-14.8591,-6.6939,-1.5072,17.4424,2.4187,-0.8528,-0.1108,1534,2019-08-07 16:48:55:468
7.689,-7.9041,-14.8591,-6.6939,-1.5072,17.4424,1.395,1.5068,-0.0767,1539,2019-08-07 16:48:55:473
7.7608,-6.3765,-15.8396,-6.6939,-1.5072,17.4424,1.395,1.5068,-0.0767,1544,2019-08-07 16:48:55:478
7.7608,-6.3765,-15.8396,-5.5057,-3.3943,17.4289,0.7793,3.6916,-0.1438,1548,2019-08-07 16:48:55:482
4.0482,-5.3453,-10.6402,-5.5057,-3.3943,17.4289,0.7793,3.6916,-0.1438,1554,2019-08-07 16:48:55:488
4.0482,-5.3453,-10.6402,-5.5057,-3.3943,17.4289,0.7793,3.6916,-0.1438,1559,2019-08-07 16:48:55:493
4.0482,-5.3453,-10.6402,-5.5057,-3.3943,17.4289,0.8379,5.673,-0.0458,1563,2019-08-07 16:48:55:497
1.8187,-5.4742,1.3093,-0.902,-2.9848,1.3826,0.8379,5.673,-0.0458,1569,2019-08-07 16:48:55:503
1.8187,-5.4742,1.3093,-0.902,-2.9848,1.3826,1.6592,5.7369,0.2855,1574,2019-08-07 16:48:55:508
-1.5398,-7.9279,-7.449,-0.902,-2.9848,1.3826,1.6592,5.7369,0.2855,1579,2019-08-07 16:48:55:513
-1.5398,-7.9279,-7.449,-0.902,-2.9848,1.3826,1.9788,6.2461,0.4101,1584,2019-08-07 16:48:55:518
-1.5398,-7.9279,-7.449,3.6704,-0.4562,10.4892,1.9788,6.2461,0.4101,1588,2019-08-07 16:48:55:522
-3.6162,-9.1787,-3.5318,3.6704,-0.4562,10.4892,2.1695,6.914,0.3686,1594,2019-08-07 16:48:55:528
-3.6162,-9.1787,-3.5318,3.6704,-0.4562,10.4892,2.1695,6.914,0.3686,1598,2019-08-07 16:48:55:532
-6.9699,-7.4172,-3.2867,3.6704,-0.4562,10.4892,2.1663,6.276,0.2993,1604,2019-08-07 16:48:55:538
-6.9699,-7.4172,-3.2867,7.2225,-2.0508,6.275,2.1663,6.276,0.2993,1608,2019-08-07 16:48:55:542
-6.9699,-7.4172,-3.2867,7.2225,-2.0508,6.275,2.26,5.4429,0.409,1614,2019-08-07 16:48:55:548
-8.1612,-5.9946,-0.5197,7.2225,-2.0508,6.275,2.26,5.4429,0.409,1618,2019-08-07 16:48:55:552
-8.1612,-5.9946,-0.5197,7.2225,-2.0508,6.275,2.5338,4.6163,0.5017,1624,2019-08-07 16:48:55:558
-8.1612,-5.9946,-0.5197,5.8099,-2.9153,6.1309,2.5338,4.6163,0.5017,1628,2019-08-07 16:48:55:562
-6.3958,-5.9134,-3.4988,5.8099,-2.9153,6.1309,2.6499,4.3851,0.4144,1634,2019-08-07 16:48:55:568
-6.3958,-5.9134,-3.4988,5.8099,-2.9153,6.1309,2.6499,4.3851,0.4144,1639,2019-08-07 16:48:55:573
-6.3958,-5.9134,-3.4988,5.8099,-2.9153,6.1309,2.6499,4.3851,0.4144,1644,2019-08-07 16:48:55:578
-5.0084,-5.3167,-5.4173,3.6878,-3.4901,10.4079,2.2952,5.0488,0.2173,1649,2019-08-07 16:48:55:583
-5.0084,-5.3167,-5.4173,3.6878,-3.4901,10.4079,2.2952,5.0488,0.2173,1654,2019-08-07 16:48:55:588
-5.0084,-5.3167,-5.4173,3.6878,-3.4901,10.4079,2.015,6.6445,0.2493,1659,2019-08-07 16:48:55:593
-5.2906,-5.5649,-5.62,3.6878,-3.4901,10.4079,2.015,6.6445,0.2493,1664,2019-08-07 16:48:55:598
-5.2906,-5.5649,-5.62,4.146,-2.3939,10.5172,2.1375,7.9505,0.3238,1668,2019-08-07 16:48:55:602
-5.2906,-5.5649,-5.62,4.146,-2.3939,10.5172,2.1375,7.9505,0.3238,1674,2019-08-07 16:48:55:608
-7.8837,-6.4576,-5.983,4.146,-2.3939,10.5172,2.2174,8.8518,0.3952,1678,2019-08-07 16:48:55:612
-7.8837,-6.4576,-5.983,4.146,-2.3939,10.5172,2.2174,8.8518,0.3952,1684,2019-08-07 16:48:55:618
-7.8837,-6.4576,-5.983,8.9962,-2.2892,7.6295,2.3687,9.7114,0.5635,1689,2019-08-07 16:48:55:623
-12.8545,-5.8084,-2.1978,8.9962,-2.2892,7.6295,2.3687,9.7114,0.5635,1694,2019-08-07 16:48:55:628
-12.8545,-5.8084,-2.1978,8.9962,-2.2892,7.6295,2.5114,9.4984,0.7989,1698,2019-08-07 16:48:55:632
-16.5766,-5.0828,2.8837,8.9962,-2.2892,7.6295,2.5114,9.4984,0.7989,1704,2019-08-07 16:48:55:638
-16.5766,-5.0828,2.8837,8.9962,-2.2892,7.6295,2.5114,9.4984,0.7989,1708,2019-08-07 16:48:55:642
-16.5766,-5.0828,2.8837,13.6449,-3.2633,-0.0177,2.5402,8.366,0.9779,1714,2019-08-07 16:48:55:648
-18.3612,-4.5481,3.5248,13.6449,-3.2633,-0.0177,2.5402,8.366,0.9779,1719,2019-08-07 16:48:55:653
-18.3612,-4.5481,3.5248,13.6449,-3.2633,-0.0177,2.3335,6.6381,0.914,1724,2019-08-07 16:48:55:658
-18.1602,-4.3906,2.7046,13.123,-3.389,1.4557,2.3335,6.6381,0.914,1728,2019-08-07 16:48:55:662
-18.1602,-4.3906,2.7046,13.123,-3.389,1.4557,2.0789,5.3449,0.7276,1734,2019-08-07 16:48:55:668
-18.1602,-4.3906,2.7046,13.123,-3.389,1.4557,2.0789,5.3449,0.7276,1739,2019-08-07 16:48:55:673
-15.3567,-4.5576,0.3147,13.123,-3.389,1.4557,1.8627,4.3574,0.6104,1744,2019-08-07 16:48:55:678
-15.3567,-4.5576,0.3147,9.3201,-2.7524,5.5869,1.8627,4.3574,0.6104,1748,2019-08-07 16:48:55:682
-12.6536,-4.9491,-2.8577,9.3201,-2.7524,5.5869,1.8179,5.0307,0.6072,1754,2019-08-07 16:48:55:688
-12.6536,-4.9491,-2.8577,9.3201,-2.7524,5.5869,1.8179,5.0307,0.6072,1758,2019-08-07 16:48:55:692
-12.6536,-4.9491,-2.8577,5.8926,-2.2355,4.7972,1.9777,6.1194,0.5816,1764,2019-08-07 16:48:55:698
-11.8402,-5.0637,-2.2826,5.8926,-2.2355,4.7972,1.9777,6.1194,0.5816,1768,2019-08-07 16:48:55:702
-11.8402,-5.0637,-2.2826,5.8926,-2.2355,4.7972,2.1886,7.9388,0.5667,1774,2019-08-07 16:48:55:708
-11.8402,-5.0637,-2.2826,5.8926,-2.2355,4.7972,2.1886,7.9388,0.5667,1778,2019-08-07 16:48:55:712
-15.9403,-4.9252,2.8083,9.8903,-2.2333,0.088,2.2302,8.3362,0.5401,1784,2019-08-07 16:48:55:718
-15.9403,-4.9252,2.8083,9.8903,-2.2333,0.088,2.2302,8.3362,0.5401,1789,2019-08-07 16:48:55:723
-20.7485,-5.1209,7.5362,9.8903,-2.2333,0.088,2.1897,7.9047,0.441,1794,2019-08-07 16:48:55:728
-20.7485,-5.1209,7.5362,16.0689,-1.8898,-7.1195,2.1897,7.9047,0.441,1799,2019-08-07 16:48:55:733
-20.7485,-5.1209,7.5362,16.0689,-1.8898,-7.1195,2.0182,6.064,0.1981,1803,2019-08-07 16:48:55:737
-23.3559,-4.9204,9.9403,16.0689,-1.8898,-7.1195,2.0182,6.064,0.1981,1809,2019-08-07 16:48:55:743
-23.3559,-4.9204,9.9403,16.5499,-1.9981,-8.1974,2.0182,6.064,0.1981,1813,2019-08-07 16:48:55:747
-21.447,-4.4335,9.9591,16.5499,-1.9981,-8.1974,1.8222,4.0836,-0.0021,1819,2019-08-07 16:48:55:753
-21.447,-4.4335,9.9591,16.5499,-1.9981,-8.1974,1.8222,4.0836,-0.0021,1823,2019-08-07 16:48:55:757
-21.447,-4.4335,9.9591,16.5499,-1.9981,-8.1974,1.5889,2.2045,-0.1587,1829,2019-08-07 16:48:55:763
-17.2895,-4.2282,6.4191,11.3323,-2.5524,-5.5869,1.5889,2.2045,-0.1587,1833,2019-08-07 16:48:55:767
-17.2895,-4.2282,6.4191,11.3323,-2.5524,-5.5869,1.5889,2.2045,-0.1587,1839,2019-08-07 16:48:55:773
-17.2895,-4.2282,6.4191,11.3323,-2.5524,-5.5869,1.5165,2.1022,-0.2812,1843,2019-08-07 16:48:55:777
-11.8642,-4.7725,5.184,11.3323,-2.5524,-5.5869,1.5165,2.1022,-0.2812,1849,2019-08-07 16:48:55:783
-11.8642,-4.7725,5.184,3.9889,-1.9892,-1.5748,1.5697,2.5912,-0.3622,1854,2019-08-07 16:48:55:788
-11.8642,-4.7725,5.184,3.9889,-1.9892,-1.5748,1.5697,2.5912,-0.3622,1858,2019-08-07 16:48:55:792
-10.0653,-4.6006,2.714,3.9889,-1.9892,-1.5748,1.5175,3.7332,-0.3558,1864,2019-08-07 16:48:55:798
-10.0653,-4.6006,2.714,3.9889,-1.9892,-1.5748,1.5175,3.7332,-0.3558,1868,2019-08-07 16:48:55:802
-11.6154,-4.3571,5.0803,3.9627,-2.2628,-3.1519,1.5644,4.7931,-0.3356,1874,2019-08-07 16:48:55:808
-11.6154,-4.3571,5.0803,3.9627,-2.2628,-3.1519,1.5644,4.7931,-0.3356,1879,2019-08-07 16:48:55:813
-11.6154,-4.3571,5.0803,3.9627,-2.2628,-3.1519,1.6155,5.2224,-0.3111,1884,2019-08-07 16:48:55:818
-15.127,-3.8845,7.7059,3.9627,-2.2628,-3.1519,1.6155,5.2224,-0.3111,1889,2019-08-07 16:48:55:823
-15.127,-3.8845,7.7059,8.9494,-2.8125,-7.795,1.4983,4.5641,-0.2301,1893,2019-08-07 16:48:55:827
-16.5527,-4.0898,10.2184,8.9494,-2.8125,-7.795,1.4983,4.5641,-0.2301,1899,2019-08-07 16:48:55:833
-16.5527,-4.0898,10.2184,8.9494,-2.8125,-7.795,1.4983,4.5641,-0.2301,1903,2019-08-07 16:48:55:837
-16.5527,-4.0898,10.2184,8.9494,-2.8125,-7.795,1.411,3.0834,-0.1705,1909,2019-08-07 16:48:55:843
-16.1652,-4.4478,10.6898,8.6473,-2.1223,-10.0893,1.411,3.0834,-0.1705,1914,2019-08-07 16:48:55:848
-16.1652,-4.4478,10.6898,8.6473,-2.1223,-10.0893,1.3897,1.8924,-0.114,1918,2019-08-07 16:48:55:852
-13.1894,-5.0255,9.7659,8.6473,-2.1223,-10.0893,1.3897,1.8924,-0.114,1924,2019-08-07 16:48:55:858
-13.1894,-5.0255,9.7659,8.6473,-2.1223,-10.0893,1.4014,1.0626,-0.0639,1928,2019-08-07 16:48:55:862
-13.1894,-5.0255,9.7659,4.9622,-1.7139,-8.4456,1.4014,1.0626,-0.0639,1934,2019-08-07 16:48:55:868
-11.6106,-4.9109,8.3847,4.9622,-1.7139,-8.4456,1.4142,0.5384,0.0586,1938,2019-08-07 16:48:55:872
-11.6106,-4.9109,8.3847,3.8263,-1.7289,-7.1095,1.4142,0.5384,0.0586,1944,2019-08-07 16:48:55:878
-11.6106,-4.9109,8.3847,3.8263,-1.7289,-7.1095,1.4142,0.5384,0.0586,1948,2019-08-07 16:48:55:882
-10.0605,-5.0732,7.013,3.8263,-1.7289,-7.1095,1.3641,0.3936,0.1534,1954,2019-08-07 16:48:55:888
-10.0605,-5.0732,7.013,3.8263,-1.7289,-7.1095,1.3641,0.3936,0.1534,1959,2019-08-07 16:48:55:893
-8.9314,-5.1353,5.7544,1.7241,-1.4731,-4.967,1.3545,0.4596,0.1672,1964,2019-08-07 16:48:55:898
-8.9314,-5.1353,5.7544,1.7241,-1.4731,-4.967,1.3545,0.4596,0.1672,1969,2019-08-07 16:48:55:903
-8.6922,-4.7629,4.4628,1.7241,-1.4731,-4.967,1.3119,0.7526,0.1374,1973,2019-08-07 16:48:55:907
-8.6922,-4.7629,4.4628,1.7241,-1.4731,-4.967,1.3119,0.7526,0.1374,1979,2019-08-07 16:48:55:913
-8.6922,-4.7629,4.4628,1.5072,-1.8469,-3.2503,1.1798,1.0391,0.0799,1983,2019-08-07 16:48:55:917
-8.8549,-4.7104,4.1329,1.5072,-1.8469,-3.2503,1.1798,1.0391,0.0799,1989,2019-08-07 16:48:55:923
-8.8549,-4.7104,4.1329,1.7759,-1.7879,-3.0063,1.0137,1.2064,-0.0053,1994,2019-08-07 16:48:55:928
-8.8549,-4.7104,4.1329,1.7759,-1.7879,-3.0063,1.0137,1.2064,-0.0053,1999,2019-08-07 16:48:55:933
-9.1754,-4.8966,3.6143,1.7759,-1.7879,-3.0063,0.7846,1.266,-0.0863,2004,2019-08-07 16:48:55:938
-9.1754,-4.8966,3.6143,1.7759,-1.7879,-3.0063,0.7846,1.266,-0.0863,2009,2019-08-07 16:48:55:943
-9.1563,-5.7511,3.2325,1.8678,-0.7621,-2.4001,0.7846,1.266,-0.0863,2013,2019-08-07 16:48:55:947
-9.1563,-5.7511,3.2325,1.8678,-0.7621,-2.4001,0.628,1.168,-0.1353,2019,2019-08-07 16:48:55:953
-9.1563,-5.7511,3.2325,1.8678,-0.7621,-2.4001,0.628,1.168,-0.1353,2023,2019-08-07 16:48:55:957
-9.2472,-6.3096,3.209,1.8678,-0.7621,-2.4001,0.5034,0.8974,-0.1673,2029,2019-08-07 16:48:55:963
-9.2472,-6.3096,3.209,2.0624,-0.0896,-2.7071,0.5034,0.8974,-0.1673,2034,2019-08-07 16:48:55:968
-9.2472,-6.3096,3.209,2.0624,-0.0896,-2.7071,0.3745,0.3382,-0.1822,2038,2019-08-07 16:48:55:972
-9.4433,-6.343,3.4918,2.0624,-0.0896,-2.7071,0.3745,0.3382,-0.1822,2044,2019-08-07 16:48:55:978
-9.4433,-6.343,3.4918,2.1687,-0.2674,-2.5894,0.3745,0.3382,-0.1822,2048,2019-08-07 16:48:55:982
-9.185,-5.9898,3.1571,2.1687,-0.2674,-2.5894,0.2797,-0.2104,-0.1726,2054,2019-08-07 16:48:55:988
-9.185,-5.9898,3.1571,2.1687,-0.2674,-2.5894,0.2797,-0.2104,-0.1726,2058,2019-08-07 16:48:55:992
-9.185,-5.9898,3.1571,0.9047,-0.9382,-1.2622,0.1689,-0.7559,-0.163,2064,2019-08-07 16:48:55:998
-7.587,-5.5697,1.6864,0.9047,-0.9382,-1.2622,0.1689,-0.7559,-0.163,2069,2019-08-07 16:48:56:003
-7.587,-5.5697,1.6864,0.9047,-0.9382,-1.2622,0.0507,-1.1862,-0.1481,2073,2019-08-07 16:48:56:007
-7.587,-5.5697,1.6864,0.9047,-0.9382,-1.2622,0.0507,-1.1862,-0.1481,2079,2019-08-07 16:48:56:013
-5.9652,-5.8275,0.6494,-1.5319,-0.6619,0.6304,-0.0015,-1.1617,-0.1651,2083,2019-08-07 16:48:56:017
-5.9652,-5.8275,0.6494,-1.5319,-0.6619,0.6304,-0.0015,-1.1617,-0.1651,2089,2019-08-07 16:48:56:023
-5.9652,-5.8275,0.6494,-1.5319,-0.6619,0.6304,-0.0303,-0.84,-0.2195,2093,2019-08-07 16:48:56:027
-5.0179,-5.9373,-0.1803,-1.5319,-0.6619,0.6304,-0.0303,-0.84,-0.2195,2098,2019-08-07 16:48:56:032
-5.0179,-5.9373,-0.1803,-2.1728,-0.6172,1.3738,-0.0516,-0.3766,-0.2557,2104,2019-08-07 16:48:56:038
-5.0562,-6.0853,-0.2133,-2.1728,-0.6172,1.3738,-0.0516,-0.3766,-0.2557,2109,2019-08-07 16:48:56:043
-5.0562,-6.0853,-0.2133,-2.1728,-0.6172,1.3738,-0.0505,-0.0155,-0.2653,2114,2019-08-07 16:48:56:048
-5.6781,-6.1187,0.046,-2.1728,-0.6172,1.3738,-0.0505,-0.0155,-0.2653,2119,2019-08-07 16:48:56:053
-5.6781,-6.1187,0.046,-1.0935,-0.5813,0.8208,-0.0527,0.4511,-0.2599,2124,2019-08-07 16:48:56:058
-5.6781,-6.1187,0.046,-1.0935,-0.5813,0.8208,-0.0527,0.4511,-0.2599,2129,2019-08-07 16:48:56:063
-6.4053,-5.9611,0.4985,-1.0935,-0.5813,0.8208,-0.0484,0.5938,-0.2418,2133,2019-08-07 16:48:56:067
-6.4053,-5.9611,0.4985,-1.0935,-0.5813,0.8208,-0.0484,0.5938,-0.2418,2139,2019-08-07 16:48:56:073
-6.4053,-5.9611,0.4985,-1.0935,-0.5813,0.8208,-0.0484,0.5938,-0.2418,2143,2019-08-07 16:48:56:077
-7.2282,-5.6986,0.9322,0.2149,-0.9622,0.0567,-0.025,0.5299,-0.1971,2149,2019-08-07 16:48:56:083
-7.2282,-5.6986,0.9322,0.2149,-0.9622,0.0567,-0.025,0.5299,-0.1971,2154,2019-08-07 16:48:56:088
-7.8406,-5.5172,1.4177,0.2149,-0.9622,0.0567,6.0E-4,0.2295,-0.1225,2159,2019-08-07 16:48:56:093
-7.8406,-5.5172,1.4177,0.2149,-0.9622,0.0567,6.0E-4,0.2295,-0.1225,2164,2019-08-07 16:48:56:098
-7.8406,-5.4074,1.5638,0.7656,-1.2261,-0.5573,0.007,-0.1028,-0.0511,2168,2019-08-07 16:48:56:102
-7.7449,-5.4074,1.5638,0.7656,-1.2261,-0.5573,0.007,-0.1028,-0.0511,2174,2019-08-07 16:48:56:108
-7.7449,-5.4074,1.5638,0.7656,-1.2261,-0.5573,-0.0015,-0.4096,0.0106,2179,2019-08-07 16:48:56:113
-7.3287,-5.4981,1.1773,0.7656,-1.2261,-0.5573,-0.0015,-0.4096,0.0106,2183,2019-08-07 16:48:56:117
-7.3287,-5.4981,1.1773,0.1154,-1.1512,0.0634,-0.0239,-0.644,0.0895,2189,2019-08-07 16:48:56:123
-6.7019,-5.7511,0.7719,0.1154,-1.1512,0.0634,-0.0239,-0.644,0.0895,2194,2019-08-07 16:48:56:128
-6.7019,-5.7511,0.7719,0.1154,-1.1512,0.0634,-0.0239,-0.644,0.0895,2199,2019-08-07 16:48:56:133
-6.7019,-5.7511,0.7719,0.1154,-0.4935,0.7549,-0.0218,-0.5961,0.1001,2204,2019-08-07 16:48:56:138
-5.9655,-6.2666,0.324,-1.0799,-0.4935,0.7549,-0.0218,-0.5961,0.1001,2208,2019-08-07 16:48:56:142
-5.9655,-6.2666,0.324,-1.0799,-0.4935,0.7549,-0.009,-0.3724,0.0809,2214,2019-08-07 16:48:56:148
-5.9655,-6.2666,0.324,-1.0799,-0.4935,0.7549,-0.009,-0.3724,0.0809,2219,2019-08-07 16:48:56:153
-5.9321,-6.4146,0.2062,-1.0799,-0.4935,0.7549,0.0048,0.0111,0.0575,2224,2019-08-07 16:48:56:158
-5.9321,-6.4146,0.2062,-1.0522,-0.1818,0.8267,0.0048,0.0111,0.0575,2229,2019-08-07 16:48:56:163
-6.2095,-6.5292,0.5409,-1.0522,-0.1818,0.8267,0.0176,0.286,0.0426,2233,2019-08-07 16:48:56:167
-6.2095,-6.5292,0.5409,-1.0522,-0.1818,0.8267,0.0176,0.286,0.0426,2239,2019-08-07 16:48:56:173
-6.8171,-6.4814,0.885,-1.0522,-0.1818,0.8267,0.0347,0.4554,0.0298,2244,2019-08-07 16:48:56:178
-6.8171,-6.4814,0.885,-0.1303,-0.2443,0.1376,0.0347,0.4554,0.0298,2249,2019-08-07 16:48:56:183
-6.8171,-6.4814,0.885,-0.1303,-0.2443,0.1376,0.0347,0.4554,0.0298,2254,2019-08-07 16:48:56:188
-6.8171,-6.4814,0.885,-0.1303,-0.2443,0.1376,0.0475,0.45,0.0181,2258,2019-08-07 16:48:56:192
-7.5396,-6.3239,1.2715,-0.1303,-0.2443,0.1376,0.0475,0.45,0.0181,2264,2019-08-07 16:48:56:198
-7.5396,-6.3239,1.2715,0.6103,-0.4235,-0.4143,0.0475,0.3339,0.0234,2268,2019-08-07 16:48:56:202
-7.908,-6.2762,1.6203,0.6103,-0.4235,-0.4143,0.0475,0.3339,0.0234,2274,2019-08-07 16:48:56:208
-7.908,-6.2762,1.6203,0.7904,-0.3376,-0.5791,0.0485,0.1379,0.0309,2278,2019-08-07 16:48:56:212
-7.908,-6.2762,1.6203,0.7904,-0.3376,-0.5791,0.0485,0.1379,0.0309,2284,2019-08-07 16:48:56:218
-7.8218,-6.3048,1.5496,0.7904,-0.3376,-0.5791,0.0475,-0.1071,0.0447,2288,2019-08-07 16:48:56:222
-7.8218,-6.3048,1.5496,0.7904,-0.3376,-0.5791,0.0475,-0.1071,0.0447,2294,2019-08-07 16:48:56:228
-7.6257,-6.3573,1.4318,0.4763,-0.2743,-0.3619,0.0421,-0.253,0.0362,2298,2019-08-07 16:48:56:232
-7.6257,-6.3573,1.4318,0.4763,-0.2743,-0.3619,0.0421,-0.253,0.0362,2304,2019-08-07 16:48:56:238
-7.6257,-6.3573,1.4318,0.4763,-0.2743,-0.3619,0.0421,-0.253,0.0362,2308,2019-08-07 16:48:56:242
-7.219,-6.5053,1.1018,0.4763,-0.2743,-0.3619,0.0389,-0.3255,0.0245,2314,2019-08-07 16:48:56:248
-7.219,-6.5053,1.1018,-0.2061,-0.0103,0.1017,0.0389,-0.3255,0.0245,2318,2019-08-07 16:48:56:252
-6.7167,-6.6629,0.8803,-0.2061,-0.0103,0.1017,0.0549,-0.2914,0.0021,2324,2019-08-07 16:48:56:258
-6.7167,-6.6629,0.8803,-0.2061,-0.0103,0.1017,0.0549,-0.2914,0.0021,2328,2019-08-07 16:48:56:262
-6.7167,-6.6629,0.8803,-0.2061,-0.0103,0.1017,0.0709,-0.2243,-0.0266,2334,2019-08-07 16:48:56:268
-6.554,-6.6963,0.7577,-0.5843,0.0682,0.4038,0.0709,-0.2243,-0.0266,2339,2019-08-07 16:48:56:273
-6.554,-6.6963,0.7577,-0.5843,0.0682,0.4038,0.0826,-0.0634,-0.0703,2344,2019-08-07 16:48:56:278
-6.5397,-6.6581,0.8001,-0.5922,0.0248,0.3713,0.0826,-0.0634,-0.0703,2348,2019-08-07 16:48:56:282
-6.5397,-6.6581,0.8001,-0.5922,0.0248,0.3713,0.0922,0.0729,-0.0927,2354,2019-08-07 16:48:56:288
-6.5397,-6.6581,0.8001,-0.5922,0.0248,0.3713,0.0922,0.0729,-0.0927,2358,2019-08-07 16:48:56:292
-6.6641,-6.6294,0.8708,-0.5922,0.0248,0.3713,0.0922,0.0729,-0.0927,2364,2019-08-07 16:48:56:298
-6.6641,-6.6294,0.8708,-0.2354,-0.0314,0.2062,0.1018,0.1358,-0.1044,2368,2019-08-07 16:48:56:302
-6.6641,-6.6294,0.8708,-0.2354,-0.0314,0.2062,0.1018,0.1358,-0.1044,2374,2019-08-07 16:48:56:308
-7.0803,-6.5101,1.0971,-0.2354,-0.0314,0.2062,0.106,0.1379,-0.1001,2379,2019-08-07 16:48:56:313
-7.0803,-6.5101,1.0971,-0.2354,-0.0314,0.2062,0.106,0.1379,-0.1001,2383,2019-08-07 16:48:56:317
-7.0803,-6.5101,1.0971,0.1615,-0.233,-0.1649,0.1039,0.0569,-0.0756,2389,2019-08-07 16:48:56:323
-7.2717,-6.4289,1.3139,0.1615,-0.233,-0.1649,0.1039,0.0569,-0.0756,2393,2019-08-07 16:48:56:327
-7.2717,-6.4289,1.3139,0.1615,-0.233,-0.1649,0.0975,-0.0336,-0.0639,2399,2019-08-07 16:48:56:333
-7.2717,-6.4289,1.3139,0.1615,-0.233,-0.1649,0.0975,-0.0336,-0.0639,2404,2019-08-07 16:48:56:338
-7.243,-6.2666,1.2809,0.1615,-0.233,-0.1649,0.0975,-0.0336,-0.0639,2409,2019-08-07 16:48:56:343
-7.243,-6.2666,1.2809,0.0878,-0.4433,-0.0016,0.0879,-0.1263,-0.0565,2414,2019-08-07 16:48:56:348
-7.0468,-6.2762,1.0405,0.0878,-0.4433,-0.0016,0.0879,-0.1263,-0.0565,2418,2019-08-07 16:48:56:352
-7.0468,-6.2762,1.0405,0.0878,-0.4433,-0.0016,0.0869,-0.1859,-0.0416,2424,2019-08-07 16:48:56:358
-7.0468,-6.2762,1.0405,0.0878,-0.4433,-0.0016,0.0869,-0.1859,-0.0416,2428,2019-08-07 16:48:56:362
-6.7789,-6.3,0.9274,-0.2909,-0.3797,0.2498,0.1029,-0.1902,-0.0352,2434,2019-08-07 16:48:56:368
-6.7789,-6.3,0.9274,-0.2909,-0.3797,0.2498,0.1029,-0.1902,-0.0352,2439,2019-08-07 16:48:56:373
-6.6497,-6.2284,0.9792,-0.2909,-0.3797,0.2498,0.138,-0.1444,-0.0309,2444,2019-08-07 16:48:56:378
-6.6497,-6.2284,0.9792,-0.4882,-0.5342,0.2508,0.138,-0.1444,-0.0309,2449,2019-08-07 16:48:56:383
-6.6497,-6.2284,0.9792,-0.4882,-0.5342,0.2508,0.138,-0.1444,-0.0309,2453,2019-08-07 16:48:56:387
-6.6497,-6.2284,0.9792,-0.4882,-0.5342,0.2508,0.1529,-0.0826,-0.0203,2459,2019-08-07 16:48:56:393
-6.554,-6.047,1.0169,-0.5286,-0.6198,0.2579,0.1529,-0.0826,-0.0203,2464,2019-08-07 16:48:56:398
-6.554,-6.047,1.0169,-0.5286,-0.6198,0.2579,0.1646,-0.0538,0.0021,2468,2019-08-07 16:48:56:402
-6.5158,-5.9897,1.1018,-0.5286,-0.6198,0.2579,0.1646,-0.0538,0.0021,2474,2019-08-07 16:48:56:408
-6.5158,-5.9897,1.1018,-0.5286,-0.6198,0.2579,0.1764,-0.0261,0.0245,2478,2019-08-07 16:48:56:412
-6.5158,-5.9897,1.1018,-0.562,-0.7003,0.1407,0.1764,-0.0261,0.0245,2483,2019-08-07 16:48:56:417
-6.5923,-5.9086,1.2479,-0.562,-0.7003,0.1407,0.187,-0.0091,0.0692,2489,2019-08-07 16:48:56:423
-6.5923,-5.9086,1.2479,-0.562,-0.7003,0.1407,0.187,-0.0091,0.0692,2494,2019-08-07 16:48:56:428
-6.7502,-5.8704,1.4176,-0.3417,-0.7755,-0.0861,0.1806,-0.0208,0.1012,2499,2019-08-07 16:48:56:433
-6.7502,-5.8704,1.4176,-0.3417,-0.7755,-0.0861,0.1806,-0.0208,0.1012,2504,2019-08-07 16:48:56:438
-6.7502,-5.8704,1.4176,-0.3417,-0.7755,-0.0861,0.1806,-0.0208,0.1012,2508,2019-08-07 16:48:56:442
-6.9894,-5.7988,1.5685,-0.1684,-0.8349,-0.2026,0.1721,-0.0666,0.1331,2514,2019-08-07 16:48:56:448
-6.9894,-5.7988,1.5685,-0.1684,-0.8349,-0.2026,0.1721,-0.0666,0.1331,2518,2019-08-07 16:48:56:452
-6.9894,-5.7988,1.5685,-0.1684,-0.8349,-0.2026,0.1348,-0.155,0.1651,2524,2019-08-07 16:48:56:458
-7.1473,-5.8179,1.5543,-0.1684,-0.8349,-0.2026,0.1348,-0.155,0.1651,2529,2019-08-07 16:48:56:463
-7.1473,-5.8179,1.5543,0.0457,-0.7236,-0.1293,0.1071,-0.2168,0.1758,2534,2019-08-07 16:48:56:468
-7.1473,-5.8179,1.5543,0.0457,-0.7236,-0.1293,0.1071,-0.2168,0.1758,2538,2019-08-07 16:48:56:472
-7.0803,-6.0184,1.3799,0.0457,-0.7236,-0.1293,0.0847,-0.2477,0.1662,2544,2019-08-07 16:48:56:478
-7.0803,-6.0184,1.3799,0.0457,-0.7236,-0.1293,0.0847,-0.2477,0.1662,2548,2019-08-07 16:48:56:482
-7.0803,-6.0184,1.3799,-0.1447,-0.4886,0.1342,0.0847,-0.2477,0.1662,2554,2019-08-07 16:48:56:488
-6.9033,-6.1664,1.1725,-0.1447,-0.4886,0.1342,0.0773,-0.22,0.1459,2559,2019-08-07 16:48:56:493
-6.9033,-6.1664,1.1725,-0.1447,-0.4886,0.1342,0.0773,-0.22,0.1459,2564,2019-08-07 16:48:56:498
-6.9033,-6.1664,1.1725,-0.1447,-0.4886,0.1342,0.0805,-0.121,0.1023,2569,2019-08-07 16:48:56:503
-6.8172,-6.1425,1.1348,-0.3343,-0.41,0.3338,0.0805,-0.121,0.1023,2573,2019-08-07 16:48:56:507
-6.8172,-6.1425,1.1348,-0.3343,-0.41,0.3338,0.0773,0.0111,0.066,2579,2019-08-07 16:48:56:513
-6.932,-6.1711,1.1489,-0.3343,-0.41,0.3338,0.0773,0.0111,0.066,2584,2019-08-07 16:48:56:518
-6.932,-6.1711,1.1489,-0.3343,-0.41,0.3338,0.0752,0.1592,0.0319,2588,2019-08-07 16:48:56:522
-6.932,-6.1711,1.1489,-0.0956,-0.3703,0.1359,0.0752,0.1592,0.0319,2594,2019-08-07 16:48:56:528
-7.1856,-6.1998,1.3846,-0.0956,-0.3703,0.1359,0.0677,0.2157,0.0138,2598,2019-08-07 16:48:56:532
-7.1856,-6.1998,1.3846,-0.0956,-0.3703,0.1359,0.0677,0.2157,0.0138,2604,2019-08-07 16:48:56:538
-7.1856,-6.1998,1.3846,-0.0956,-0.3703,0.1359,0.0677,0.2157,0.0138,2608,2019-08-07 16:48:56:542
-7.4726,-6.2571,1.5779,0.3685,-0.2736,-0.1481,0.0634,0.1858,0.0021,2614,2019-08-07 16:48:56:548
-7.4726,-6.2571,1.5779,0.3685,-0.2736,-0.1481,0.0634,0.1858,0.0021,2618,2019-08-07 16:48:56:552
-7.5157,-6.3,1.7806,0.3685,-0.2736,-0.1481,0.0581,0.0697,0.0053,2624,2019-08-07 16:48:56:558
-7.5157,-6.3,1.7806,0.3685,-0.2736,-0.1481,0.0581,0.0697,0.0053,2629,2019-08-07 16:48:56:563
-7.5157,-6.3,1.7806,0.2915,-0.2875,-0.3669,0.0496,-0.0432,0.0032,2634,2019-08-07 16:48:56:568
-7.4343,-6.2619,1.7334,0.2915,-0.2875,-0.3669,0.0496,-0.0432,0.0032,2639,2019-08-07 16:48:56:573
-7.4343,-6.2619,1.7334,0.2915,-0.2875,-0.3669,0.0496,-0.0432,0.0032,2644,2019-08-07 16:48:56:578
-7.4343,-6.2619,1.7334,0.1767,-0.266,-0.3283,0.0389,-0.1497,0.0138,2648,2019-08-07 16:48:56:582
-7.1616,-6.2284,1.8042,0.1767,-0.266,-0.3283,0.0389,-0.1497,0.0138,2654,2019-08-07 16:48:56:588
-7.1616,-6.2284,1.8042,0.1767,-0.266,-0.3283,0.0144,-0.2509,0.0149,2658,2019-08-07 16:48:56:592
-6.7693,-6.3287,1.592,-0.4027,-0.1956,-0.0983,0.0144,-0.2509,0.0149,2664,2019-08-07 16:48:56:598
-6.7693,-6.3287,1.592,-0.4027,-0.1956,-0.0983,0.0027,-0.2445,0.0085,2669,2019-08-07 16:48:56:603
-6.5875,-6.2762,1.559,-0.4027,-0.1956,-0.0983,0.0027,-0.2445,0.0085,2674,2019-08-07 16:48:56:608
-6.5875,-6.2762,1.559,-0.4027,-0.1956,-0.0983,0.0038,-0.1859,0.0042,2678,2019-08-07 16:48:56:612
-6.5875,-6.2762,1.559,-0.6066,-0.2716,0.0387,0.0038,-0.1859,0.0042,2684,2019-08-07 16:48:56:618
-6.5253,-6.1902,1.4978,-0.6066,-0.2716,0.0387,0.0027,-0.089,-0.0107,2689,2019-08-07 16:48:56:623
-6.5253,-6.1902,1.4978,-0.6066,-0.2716,0.0387,0.0027,-0.089,-0.0107,2694,2019-08-07 16:48:56:628
-6.6784,-6.1616,1.4695,-0.532,-0.3584,0.0714,-5.0E-4,-0.0347,-0.0139,2699,2019-08-07 16:48:56:633
-6.6784,-6.1616,1.4695,-0.532,-0.3584,0.0714,-5.0E-4,-0.0347,-0.0139,2703,2019-08-07 16:48:56:637
-6.6784,-6.1616,1.4695,-0.532,-0.3584,0.0714,-5.0E-4,-0.0347,-0.0139,2709,2019-08-07 16:48:56:643
-6.8028,-6.1043,1.4553,-0.3904,-0.4367,0.0012,0.0027,-0.0038,-0.0117,2714,2019-08-07 16:48:56:648
-6.8028,-6.1043,1.4553,-0.3904,-0.4367,0.0012,0.0027,-0.0038,-0.0117,2719,2019-08-07 16:48:56:653
-6.8028,-6.1043,1.4553,-0.3904,-0.4367,0.0012,0.008,-0.0102,-0.0032,2724,2019-08-07 16:48:56:658
-6.8555,-6.0757,1.5402,-0.3904,-0.4367,0.0012,0.008,-0.0102,-0.0032,2729,2019-08-07 16:48:56:663
-6.8555,-6.0757,1.5402,-0.2277,-0.4456,0.0277,0.0059,-0.0315,0.0074,2733,2019-08-07 16:48:56:667
-6.8555,-6.0757,1.5402,-0.2277,-0.4456,0.0277,0.0059,-0.0315,0.0074,2739,2019-08-07 16:48:56:673
-6.932,-6.1043,1.4742,-0.2277,-0.4456,0.0277,0.0059,-0.0315,0.0074,2743,2019-08-07 16:48:56:677
-6.932,-6.1043,1.4742,-0.2618,-0.4346,0.0642,-0.0015,-0.0656,0.0202,2749,2019-08-07 16:48:56:683
-6.8507,-6.1234,1.4695,-0.2618,-0.4346,0.0642,-0.0015,-0.0656,0.0202,2754,2019-08-07 16:48:56:688
-6.8507,-6.1234,1.4695,-0.2618,-0.4346,0.0642,-0.0015,-0.0656,0.0202,2758,2019-08-07 16:48:56:692
-6.8507,-6.1234,1.4695,-0.3595,-0.4771,0.1758,0.0038,-0.0997,0.0383,2764,2019-08-07 16:48:56:698
-6.8028,-6.047,1.4035,-0.3595,-0.4771,0.1758,0.0038,-0.0997,0.0383,2768,2019-08-07 16:48:56:702
-6.8028,-6.047,1.4035,-0.3595,-0.4771,0.1758,-0.0015,-0.1007,0.0447,2774,2019-08-07 16:48:56:708
-6.8124,-5.9897,1.3516,-0.3595,-0.4771,0.1758,-0.0015,-0.1007,0.0447,2779,2019-08-07 16:48:56:713
-6.8124,-5.9897,1.3516,-0.3201,-0.5558,0.2315,-0.0207,-0.0911,0.0458,2784,2019-08-07 16:48:56:718
-6.8124,-5.9897,1.3516,-0.3201,-0.5558,0.2315,-0.0207,-0.0911,0.0458,2789,2019-08-07 16:48:56:723
-6.8172,-5.9134,1.2951,-0.3201,-0.5558,0.2315,-0.0303,-0.0656,0.0362,2793,2019-08-07 16:48:56:727
-6.8172,-5.9134,1.2951,-0.3201,-0.5558,0.2315,-0.0303,-0.0656,0.0362,2799,2019-08-07 16:48:56:733
-6.932,-5.9516,1.2998,-0.2384,-0.5546,0.2787,-0.026,-0.0293,0.0277,2804,2019-08-07 16:48:56:738
-6.932,-5.9516,1.2998,-0.2384,-0.5546,0.2787,-0.026,-0.0293,0.0277,2809,2019-08-07 16:48:56:743
-6.932,-5.9516,1.2998,-0.2384,-0.5546,0.2787,-0.0314,-0.0059,0.0224,2814,2019-08-07 16:48:56:748
-6.9655,-5.9516,1.3281,-0.2384,-0.5546,0.2787,-0.0314,-0.0059,0.0224,2818,2019-08-07 16:48:56:752
-6.9655,-5.9516,1.3281,-0.1955,-0.5835,0.2371,-0.0335,0.0133,0.0213,2824,2019-08-07 16:48:56:758
-6.9655,-5.9516,1.3281,-0.1955,-0.5835,0.2371,-0.0335,0.0133,0.0213,2828,2019-08-07 16:48:56:762
-7.0133,-5.942,1.3422,-0.1955,-0.5835,0.2371,-0.0228,0.0292,0.0202,2834,2019-08-07 16:48:56:768
-7.0133,-5.942,1.3422,-0.1955,-0.5835,0.2371,-0.0228,0.0292,0.0202,2838,2019-08-07 16:48:56:772
-7.0133,-5.942,1.3422,-0.1955,-0.5835,0.2371,-0.0228,0.0292,0.0202,2844,2019-08-07 16:48:56:778
-7.0468,-5.9563,1.3233,-0.1578,-0.5748,0.2621,-0.009,0.0303,0.0181,2848,2019-08-07 16:48:56:782
-7.0468,-5.9563,1.3233,-0.1578,-0.5748,0.2621,-0.009,0.0303,0.0181,2854,2019-08-07 16:48:56:788
-7.0899,-6.0232,1.3469,-0.1578,-0.5748,0.2621,0.008,0.0218,0.0256,2858,2019-08-07 16:48:56:792
-7.0899,-6.0232,1.3469,-0.0822,-0.4454,0.1257,0.008,0.0218,0.0256,2864,2019-08-07 16:48:56:798
-7.0899,-6.0232,1.3469,-0.0822,-0.4454,0.1257,0.0166,-0.0112,0.0373,2868,2019-08-07 16:48:56:802
-7.0229,-6.0088,1.4035,-0.0822,-0.4454,0.1257,0.0166,-0.0112,0.0373,2874,2019-08-07 16:48:56:808
-7.0229,-6.0088,1.4035,-0.133,-0.5322,0.1184,0.0262,-0.0336,0.0469,2879,2019-08-07 16:48:56:813
-7.0181,-5.9563,1.4553,-0.133,-0.5322,0.1184,0.0262,-0.0336,0.0469,2884,2019-08-07 16:48:56:818
-7.0181,-5.9563,1.4553,-0.133,-0.5322,0.1184,0.0315,-0.0645,0.0564,2889,2019-08-07 16:48:56:823
-7.0181,-5.9563,1.4553,-0.133,-0.5322,0.1184,0.0315,-0.0645,0.0564,2893,2019-08-07 16:48:56:827
-6.9559,-5.942,1.4365,-0.2404,-0.536,0.1397,0.0187,-0.0783,0.0618,2899,2019-08-07 16:48:56:833
-6.9559,-5.942,1.4365,-0.2404,-0.536,0.1397,0.0187,-0.0783,0.0618,2903,2019-08-07 16:48:56:837
-6.9559,-5.942,1.4365,-0.2404,-0.536,0.1397,-0.0069,-0.0837,0.0607,2909,2019-08-07 16:48:56:843
-6.8603,-5.9993,1.4789,-0.2404,-0.536,0.1397,-0.0069,-0.0837,0.0607,2914,2019-08-07 16:48:56:848
-6.8603,-5.9993,1.4789,-0.3808,-0.5259,0.1281,-0.0133,-0.0528,0.0501,2918,2019-08-07 16:48:56:852
-6.7933,-6.0375,1.4883,-0.3808,-0.5259,0.1281,-0.0133,-0.0528,0.0501,2924,2019-08-07 16:48:56:858
-6.7933,-6.0375,1.4883,-0.4074,-0.4268,0.1163,-0.0186,-0.0102,0.0437,2928,2019-08-07 16:48:56:862
-6.7933,-6.0375,1.4883,-0.4074,-0.4268,0.1163,-0.0186,-0.0102,0.0437,2934,2019-08-07 16:48:56:868
-6.8363,-6.0709,1.4553,-0.4074,-0.4268,0.1163,-0.0282,0.0548,0.0277,2938,2019-08-07 16:48:56:872
-6.8363,-6.0709,1.4553,-0.4074,-0.4268,0.1163,-0.0282,0.0548,0.0277,2944,2019-08-07 16:48:56:878
-6.9464,-6.0852,1.4318,-0.2649,-0.3748,0.1499,-0.0324,0.0836,0.0181,2948,2019-08-07 16:48:56:882
-6.9464,-6.0852,1.4318,-0.2649,-0.3748,0.1499,-0.0324,0.0836,0.0181,2954,2019-08-07 16:48:56:888
-6.9464,-6.0852,1.4318,-0.2649,-0.3748,0.1499,-0.0324,0.0836,0.0181,2958,2019-08-07 16:48:56:892
-7.1282,-6.1616,1.5732,-0.2649,-0.3748,0.1499,-0.0271,0.0889,0.0245,2964,2019-08-07 16:48:56:898
-7.1282,-6.1616,1.5732,-0.0799,-0.3287,0.0111,-0.0271,0.0889,0.0245,2968,2019-08-07 16:48:56:902
-7.2143,-6.1473,1.5732,-0.0799,-0.3287,0.0111,-0.0175,0.0591,0.0213,2974,2019-08-07 16:48:56:908
-7.2143,-6.1473,1.5732,-0.0799,-0.3287,0.0111,-0.0175,0.0591,0.0213,2978,2019-08-07 16:48:56:912
-7.2143,-6.1473,1.5732,-0.0799,-0.3287,0.0111,-0.0133,0.0239,0.0256,2984,2019-08-07 16:48:56:918
-7.1521,-6.1616,1.5119,-0.0711,-0.2912,0.0448,-0.0133,0.0239,0.0256,2988,2019-08-07 16:48:56:922
-7.1521,-6.1616,1.5119,-0.0711,-0.2912,0.0448,-0.0058,-0.0112,0.0277,2994,2019-08-07 16:48:56:928
-7.1186,-6.09,1.5119,-0.1067,-0.3604,0.0447,-0.0058,-0.0112,0.0277,2998,2019-08-07 16:48:56:932
-7.1186,-6.09,1.5119,-0.1067,-0.3604,0.0447,-0.0015,-0.0443,0.0341,3003,2019-08-07 16:48:56:937
-7.1186,-6.09,1.5119,-0.1067,-0.3604,0.0447,-0.0015,-0.0443,0.0341,3009,2019-08-07 16:48:56:943
-6.9033,-6.1473,1.4459,-0.1067,-0.3604,0.0447,-0.0015,-0.0443,0.0341,3014,2019-08-07 16:48:56:948
-6.9033,-6.1473,1.4459,-0.3781,-0.2407,0.1676,-0.0015,-0.0379,0.0351,3019,2019-08-07 16:48:56:953
-6.9033,-6.1473,1.4459,-0.3781,-0.2407,0.1676,-0.0015,-0.0379,0.0351,3024,2019-08-07 16:48:56:958
-6.8746,-6.1807,1.3988,-0.3781,-0.2407,0.1676,-0.0015,-0.0379,0.0351,3028,2019-08-07 16:48:56:962
-6.8746,-6.1807,1.3988,-0.3781,-0.2407,0.1676,0.007,5.0E-4,0.033,3034,2019-08-07 16:48:56:968
-6.8507,-6.1616,1.4176,-0.3917,-0.2979,0.0982,0.007,5.0E-4,0.033,3039,2019-08-07 16:48:56:973
-6.8507,-6.1616,1.4176,-0.3917,-0.2979,0.0982,0.0027,0.0335,0.0351,3044,2019-08-07 16:48:56:978
-6.8507,-6.1616,1.4176,-0.2846,-0.3,0.1432,0.0027,0.0335,0.0351,3049,2019-08-07 16:48:56:983
-6.9942,-6.133,1.4082,-0.2846,-0.3,0.1432,0.0027,0.0612,0.0245,3054,2019-08-07 16:48:56:988
-6.9942,-6.133,1.4082,-0.2846,-0.3,0.1432,0.0027,0.0612,0.0245,3059,2019-08-07 16:48:56:993
-6.9942,-6.133,1.4082,-0.2846,-0.3,0.1432,0.0027,0.0612,0.0245,3064,2019-08-07 16:48:56:998
-7.2287,-6.09,1.5496,-0.0275,-0.2951,-0.0156,0.0038,0.0569,0.0266,3069,2019-08-07 16:48:57:003
-7.2287,-6.09,1.5496,-0.0275,-0.2951,-0.0156,0.0038,0.0569,0.0266,3074,2019-08-07 16:48:57:008
-7.2,-6.1043,1.5355,-0.0275,-0.2951,-0.0156,0.007,0.0239,0.0245,3079,2019-08-07 16:48:57:013
-7.2,-6.1043,1.5355,-0.0275,-0.2951,-0.0156,0.007,0.0239,0.0245,3083,2019-08-07 16:48:57:017
-7.2,-6.1043,1.4365,-0.1423,-0.3665,0.0628,0.008,-0.0112,0.0181,3089,2019-08-07 16:48:57:023
-7.0995,-6.0661,1.4365,-0.1423,-0.3665,0.0628,0.008,-0.0112,0.0181,3094,2019-08-07 16:48:57:028
-7.0995,-6.0661,1.4365,-0.1423,-0.3665,0.0628,0.0112,-0.0272,0.0149,3099,2019-08-07 16:48:57:033
-6.9847,-6.0661,1.4977,-0.1423,-0.3665,0.0628,0.0112,-0.0272,0.0149,3104,2019-08-07 16:48:57:038
-6.9847,-6.0661,1.4977,-0.2975,-0.363,0.1381,0.0112,-0.0272,0.0149,3109,2019-08-07 16:48:57:043
-6.8746,-6.0804,1.427,-0.2975,-0.363,0.1381,0.0144,-0.0261,0.0138,3113,2019-08-07 16:48:57:047
-6.8746,-6.0804,1.427,-0.2975,-0.363,0.1381,0.0144,-0.0261,0.0138,3119,2019-08-07 16:48:57:053
-6.8746,-6.0804,1.427,-0.2975,-0.363,0.1381,0.0251,-0.007,0.0202,3123,2019-08-07 16:48:57:057
-6.8364,-6.0041,1.4035,-0.4478,-0.3979,0.1379,0.0251,-0.007,0.0202,3129,2019-08-07 16:48:57:063
-6.8364,-6.0041,1.4035,-0.4478,-0.3979,0.1379,0.0293,0.0122,0.0213,3133,2019-08-07 16:48:57:067
-6.8364,-6.0041,1.4035,-0.4478,-0.3979,0.1379,0.0293,0.0122,0.0213,3138,2019-08-07 16:48:57:072
-6.8555,-6.0375,1.3893,-0.4478,-0.3979,0.1379,0.0272,0.0452,0.0202,3144,2019-08-07 16:48:57:078
-6.8555,-6.0375,1.3893,-0.3318,-0.3749,0.2077,0.0272,0.0452,0.0202,3149,2019-08-07 16:48:57:083
-6.9368,-6.0661,1.3563,-0.3318,-0.3749,0.2077,0.0272,0.0452,0.0202,3154,2019-08-07 16:48:57:088
-6.9368,-6.0661,1.3563,-0.3318,-0.3749,0.2077,0.023,0.0633,0.0192,3159,2019-08-07 16:48:57:093
-6.9368,-6.0661,1.3563,-0.2435,-0.3679,0.1527,0.023,0.0633,0.0192,3163,2019-08-07 16:48:57:097
-7.066,-6.047,1.4836,-0.2435,-0.3679,0.1527,0.0272,0.0516,0.0213,3169,2019-08-07 16:48:57:103
-7.066,-6.047,1.4836,-0.2435,-0.3679,0.1527,0.0272,0.0516,0.0213,3173,2019-08-07 16:48:57:107
-7.1808,-5.9897,1.5637,-0.0813,-0.4202,-0.0116,0.0251,0.0378,0.0149,3179,2019-08-07 16:48:57:113
-7.1808,-5.9897,1.5637,-0.0813,-0.4202,-0.0116,0.0251,0.0378,0.0149,3184,2019-08-07 16:48:57:118
-7.1808,-5.9897,1.5637,-0.0813,-0.4202,-0.0116,0.0144,0.0154,0.0096,3188,2019-08-07 16:48:57:122
-7.1713,-5.9277,1.5685,-0.0813,-0.4202,-0.0116,0.0144,0.0154,0.0096,3194,2019-08-07 16:48:57:128
-7.1713,-5.9277,1.5685,-0.0813,-0.4202,-0.0116,0.0144,0.0154,0.0096,3199,2019-08-07 16:48:57:133
-7.1713,-5.9277,1.5685,-0.0423,-0.421,-0.0164,-5.0E-4,-0.0166,0.017,3204,2019-08-07 16:48:57:138
-7.1708,-6.0184,1.5356,-0.0423,-0.421,-0.0164,-5.0E-4,-0.0166,0.017,3208,2019-08-07 16:48:57:142
-7.1708,-6.0184,1.5356,-0.0423,-0.421,-0.0164,-0.0058,-0.0389,0.0149,3214,2019-08-07 16:48:57:148
-7.1708,-6.0184,1.4979,-0.2209,-0.3702,0.0595,-0.0058,-0.0389,0.0149,3218,2019-08-07 16:48:57:152
-7.0464,-6.0328,1.4979,-0.2209,-0.3702,0.0595,-0.0026,-0.0538,0.016,3224,2019-08-07 16:48:57:158
-7.0464,-6.0328,1.4979,-0.2209,-0.3702,0.0595,-0.0026,-0.0538,0.016,3229,2019-08-07 16:48:57:163
-6.9842,-6.09,1.5026,-0.2209,-0.3702,0.0595,6.0E-4,-0.0347,0.0138,3234,2019-08-07 16:48:57:168
-6.9842,-6.09,1.5026,-0.3081,-0.3389,0.1267,6.0E-4,-0.0347,0.0138,3239,2019-08-07 16:48:57:173
-6.9842,-6.09,1.5026,-0.3081,-0.3389,0.1267,-5.0E-4,5.0E-4,0.0128,3244,2019-08-07 16:48:57:178
-6.9459,-6.0948,1.4931,-0.3081,-0.3389,0.1267,-5.0E-4,5.0E-4,0.0128,3249,2019-08-07 16:48:57:183
-6.9459,-6.0948,1.4931,-0.3081,-0.3389,0.1267,-5.0E-4,5.0E-4,0.0128,3254,2019-08-07 16:48:57:188
-6.9459,-6.0948,1.4931,-0.3081,-0.3389,0.1267,-0.0037,0.0346,0.0117,3259,2019-08-07 16:48:57:193
-7.0081,-6.0471,1.545,-0.2627,-0.351,0.0157,-0.0037,0.0346,0.0117,3263,2019-08-07 16:48:57:197
-7.0081,-6.0471,1.545,-0.2627,-0.351,0.0157,0.0048,0.0484,0.0128,3269,2019-08-07 16:48:57:203
-7.1133,-6.0709,1.5214,-0.2627,-0.351,0.0157,0.0048,0.0484,0.0128,3273,2019-08-07 16:48:57:207
-7.1133,-6.0709,1.5214,-0.2627,-0.351,0.0157,0.0144,0.0548,0.0117,3279,2019-08-07 16:48:57:213
-7.1133,-6.0709,1.5214,-0.1229,-0.3817,0.0238,0.0144,0.0548,0.0117,3283,2019-08-07 16:48:57:217
-7.1899,-6.0566,1.5591,-0.1229,-0.3817,0.0238,0.0059,0.0378,0.0042,3289,2019-08-07 16:48:57:223
-7.1899,-6.0566,1.5591,-0.1229,-0.3817,0.0238,0.0059,0.0378,0.0042,3294,2019-08-07 16:48:57:228
-7.1946,-6.0853,1.5261,-0.1229,-0.3817,0.0238,-0.0015,0.0154,0.0,3298,2019-08-07 16:48:57:232
-7.1946,-6.0853,1.5261,-0.116,-0.2986,0.0241,-0.0015,0.0154,0.0,3304,2019-08-07 16:48:57:238
-7.1946,-6.0853,1.5261,-0.116,-0.2986,0.0241,-0.0015,0.0154,0.0,3308,2019-08-07 16:48:57:242
-7.1516,-6.0662,1.5874,-0.116,-0.2986,0.0241,-5.0E-4,-0.0048,-0.0021,3314,2019-08-07 16:48:57:248
-7.1516,-6.0662,1.5874,-0.116,-0.2986,0.0241,-5.0E-4,-0.0048,-0.0021,3318,2019-08-07 16:48:57:252
-7.0463,-6.0232,1.5073,-0.2455,-0.3696,-0.0029,-0.0015,-0.0272,0.0053,3324,2019-08-07 16:48:57:258
-7.0463,-6.0232,1.5073,-0.2455,-0.3696,-0.0029,-0.0015,-0.0272,0.0053,3329,2019-08-07 16:48:57:263
-7.0463,-6.0232,1.5073,-0.2455,-0.3696,-0.0029,6.0E-4,-0.0176,0.0021,3334,2019-08-07 16:48:57:268
-6.9315,-5.9564,1.3894,-0.2455,-0.3696,-0.0029,6.0E-4,-0.0176,0.0021,3339,2019-08-07 16:48:57:273
-6.9315,-5.9564,1.3894,-0.3083,-0.4827,0.1462,0.007,-0.0059,-0.0011,3344,2019-08-07 16:48:57:278
-7.0798,-5.9612,1.4554,-0.3083,-0.4827,0.1462,0.007,-0.0059,-0.0011,3348,2019-08-07 16:48:57:282
-7.0798,-5.9612,1.4554,-0.3083,-0.4827,0.1462,6.0E-4,5.0E-4,0.0032,3354,2019-08-07 16:48:57:288
-7.0798,-5.9612,1.4554,-0.3083,-0.4827,0.1462,6.0E-4,5.0E-4,0.0032,3359,2019-08-07 16:48:57:293
-7.0176,-6.0375,1.4602,-0.2616,-0.3525,0.0945,-0.0069,0.0101,0.0032,3364,2019-08-07 16:48:57:298
-7.0176,-6.0375,1.4602,-0.2616,-0.3525,0.0945,-0.0069,0.0101,0.0032,3368,2019-08-07 16:48:57:302
-7.0463,-6.0996,1.4177,-0.2616,-0.3525,0.0945,-0.009,0.0101,0.0011,3374,2019-08-07 16:48:57:308
-7.0463,-6.0996,1.4177,-0.2616,-0.3525,0.0945,-0.009,0.0101,0.0011,3378,2019-08-07 16:48:57:312
-7.0463,-6.0996,1.4177,-0.2148,-0.2804,0.1293,-0.0069,0.0175,-0.0011,3384,2019-08-07 16:48:57:318
-7.0176,-6.1473,1.3894,-0.2148,-0.2804,0.1293,-0.0069,0.0175,-0.0011,3388,2019-08-07 16:48:57:322
-7.0176,-6.1473,1.3894,-0.3011,-0.2664,0.1506,-0.0101,0.0229,-0.0075,3394,2019-08-07 16:48:57:328
-7.0176,-6.1473,1.3894,-0.3011,-0.2664,0.1506,-0.0101,0.0229,-0.0075,3399,2019-08-07 16:48:57:333
-6.9984,-6.133,1.413,-0.3011,-0.2664,0.1506,-0.0165,0.0271,-0.0149,3404,2019-08-07 16:48:57:338
-6.9984,-6.133,1.413,-0.3011,-0.2664,0.1506,-0.0165,0.0271,-0.0149,3408,2019-08-07 16:48:57:342
-7.0463,-6.1712,1.4507,-0.2334,-0.221,0.0925,-0.0165,0.0271,-0.0149,3414,2019-08-07 16:48:57:348
-7.0463,-6.1712,1.4507,-0.2334,-0.221,0.0925,-0.0175,0.0282,-0.0117,3418,2019-08-07 16:48:57:352
-7.0463,-6.1712,1.4507,-0.2334,-0.221,0.0925,-0.0175,0.0282,-0.0117,3424,2019-08-07 16:48:57:358
-7.0176,-6.1855,1.4036,-0.2334,-0.221,0.0925,-0.0154,0.0292,-0.016,3428,2019-08-07 16:48:57:362
-7.0176,-6.1855,1.4036,-0.2516,-0.2571,0.0577,-0.0154,0.0292,-0.016,3434,2019-08-07 16:48:57:368
-7.0558,-6.09,1.4413,-0.2516,-0.2571,0.0577,-0.0111,0.0165,-0.0128,3439,2019-08-07 16:48:57:373
-7.0558,-6.09,1.4413,-0.2081,-0.325,0.0604,-0.0111,0.0165,-0.0128,3444,2019-08-07 16:48:57:378
-7.0558,-6.09,1.4413,-0.2081,-0.325,0.0604,-0.0069,0.0101,-0.0192,3449,2019-08-07 16:48:57:383
-7.0223,-6.0566,1.4413,-0.2081,-0.325,0.0604,-0.0069,0.0101,-0.0192,3453,2019-08-07 16:48:57:387
-7.0223,-6.0566,1.4413,-0.2081,-0.325,0.0604,-0.0069,0.0101,-0.0192,3459,2019-08-07 16:48:57:393
-7.0223,-6.0566,1.4413,-0.2451,-0.4031,0.0828,0.0038,-0.0059,-0.016,3464,2019-08-07 16:48:57:398
-7.051,-5.9993,1.512,-0.2451,-0.4031,0.0828,0.0038,-0.0059,-0.016,3469,2019-08-07 16:48:57:403
-7.051,-5.9993,1.512,-0.2451,-0.4031,0.0828,0.0091,-0.007,-0.0139,3473,2019-08-07 16:48:57:407
-7.008,-5.9755,1.4979,-0.2451,-0.4031,0.0828,0.0091,-0.007,-0.0139,3479,2019-08-07 16:48:57:413
-7.008,-5.9755,1.4979,-0.2535,-0.3991,0.1086,0.0123,-0.007,-0.0171,3483,2019-08-07 16:48:57:417
-7.008,-5.9755,1.4979,-0.2535,-0.3991,0.1086,0.0123,-0.007,-0.0171,3489,2019-08-07 16:48:57:423
-6.9936,-6.0375,1.4319,-0.2535,-0.3991,0.1086,0.008,-0.0059,-0.0128,3494,2019-08-07 16:48:57:428
-6.9936,-6.0375,1.4319,-0.2535,-0.3991,0.1086,0.008,-0.0059,-0.0128,3499,2019-08-07 16:48:57:433
-6.9936,-6.0375,1.4319,-0.2569,-0.3048,0.1244,0.008,-0.0059,-0.0128,3504,2019-08-07 16:48:57:438
-6.9649,-6.1091,1.4177,-0.2569,-0.3048,0.1244,0.0102,0.0047,-0.0149,3508,2019-08-07 16:48:57:442
-6.9649,-6.1091,1.4177,-0.2569,-0.3048,0.1244,0.0102,0.0047,-0.0149,3514,2019-08-07 16:48:57:448
-6.9745,-6.0662,1.3847,-0.2569,-0.3048,0.1244,0.0166,0.0197,-0.0149,3518,2019-08-07 16:48:57:452
-6.9745,-6.0662,1.3847,-0.2796,-0.3015,0.1144,0.0166,0.0197,-0.0149,3523,2019-08-07 16:48:57:457
-6.9745,-6.0662,1.3847,-0.2796,-0.3015,0.1144,0.0176,0.0314,-0.0181,3529,2019-08-07 16:48:57:463
-7.0319,-6.071,1.4272,-0.2796,-0.3015,0.1144,0.0176,0.0314,-0.0181,3534,2019-08-07 16:48:57:468
-7.0319,-6.071,1.4272,-0.2796,-0.3015,0.1144,0.0112,0.0388,-0.0128,3539,2019-08-07 16:48:57:473
-7.0127,-6.0089,1.446,-0.1744,-0.3884,0.1436,0.0112,0.0388,-0.0128,3546,2019-08-07 16:48:57:480
-7.0127,-6.0089,1.446,-0.1744,-0.3884,0.1436,0.0144,0.0367,-0.0107,3548,2019-08-07 16:48:57:482
-7.0127,-6.0089,1.446,-0.1744,-0.3884,0.1436,0.0144,0.0367,-0.0107,3554,2019-08-07 16:48:57:488
-7.0558,-6.0232,1.3895,-0.1744,-0.3884,0.1436,0.0144,0.0367,-0.0107,3558,2019-08-07 16:48:57:492
-7.0558,-6.0232,1.3895,-0.1944,-0.4743,0.097,0.0134,0.0335,-0.0139,3563,2019-08-07 16:48:57:497
-7.0654,-5.9612,1.4837,-0.1944,-0.4743,0.097,0.0134,0.0335,-0.0139,3569,2019-08-07 16:48:57:503
-7.0654,-5.9612,1.4837,-0.1944,-0.4743,0.097,0.0091,0.0218,-0.0139,3575,2019-08-07 16:48:57:509
-7.0654,-5.9612,1.4837,-0.1801,-0.4936,0.1429,0.0091,0.0218,-0.0139,3578,2019-08-07 16:48:57:512
-7.051,-5.9803,1.3942,-0.1801,-0.4936,0.1429,0.0102,0.0197,-0.0171,3584,2019-08-07 16:48:57:518
-7.051,-5.9803,1.3942,-0.1801,-0.4936,0.1429,0.0102,0.0197,-0.0171,3588,2019-08-07 16:48:57:522
-7.051,-5.9803,1.3942,-0.1801,-0.4936,0.1429,0.0112,0.025,-0.0234,3594,2019-08-07 16:48:57:528
-7.0797,-5.9325,1.4602,-0.1939,-0.4709,0.0655,0.0112,0.025,-0.0234,3598,2019-08-07 16:48:57:532
-7.0797,-5.9325,1.4602,-0.1939,-0.4709,0.0655,0.0112,0.025,-0.0234,3604,2019-08-07 16:48:57:538
-7.0462,-5.9277,1.4649,-0.1939,-0.4709,0.0655,0.0048,0.025,-0.0245,3610,2019-08-07 16:48:57:544
-7.0462,-5.9277,1.4649,-0.1939,-0.4709,0.0655,0.0048,0.025,-0.0245,3613,2019-08-07 16:48:57:547
-7.0462,-5.9277,1.4649,-0.2214,-0.4633,0.0298,-0.0015,0.0165,-0.0245,3619,2019-08-07 16:48:57:553
-7.0366,-5.9707,1.4507,-0.2214,-0.4633,0.0298,-0.0015,0.0165,-0.0245,3623,2019-08-07 16:48:57:557
-7.0366,-5.9707,1.4507,-0.2252,-0.4409,0.09,-0.0058,0.0101,-0.0266,3629,2019-08-07 16:48:57:563
-7.0271,-6.0232,1.4272,-0.2252,-0.4409,0.09,-0.0058,0.0101,-0.0266,3633,2019-08-07 16:48:57:567
-7.0271,-6.0232,1.4272,-0.2252,-0.4409,0.09,-0.0101,0.0122,-0.0171,3639,2019-08-07 16:48:57:573
-6.9122,-6.0423,1.4696,-0.2252,-0.4409,0.09,-0.0101,0.0122,-0.0171,3644,2019-08-07 16:48:57:578
-6.9122,-6.0423,1.4696,-0.3668,-0.3864,0.0447,-0.009,0.0101,-0.0192,3648,2019-08-07 16:48:57:582
-6.9122,-6.0423,1.4696,-0.3668,-0.3864,0.0447,-0.009,0.0101,-0.0192,3654,2019-08-07 16:48:57:588
-6.9122,-6.0423,1.4696,-0.3668,-0.3864,0.0447,-0.009,0.0101,-0.0192,3658,2019-08-07 16:48:57:592
-6.9122,-6.1235,1.4979,-0.3668,-0.3864,0.0447,-0.0047,0.0165,-0.0117,3664,2019-08-07 16:48:57:598
-6.9122,-6.1235,1.4979,-0.4038,-0.3599,0.1081,-0.0047,0.0165,-0.0117,3669,2019-08-07 16:48:57:603
-6.8787,-6.1235,1.413,-0.4038,-0.3599,0.1081,0.0016,0.042,0.0042,3673,2019-08-07 16:48:57:607
-6.8787,-6.1235,1.413,-0.4038,-0.3599,0.1081,0.0016,0.042,0.0042,3679,2019-08-07 16:48:57:613
-6.8787,-6.1235,1.413,-0.4038,-0.3599,0.1081,0.0048,0.0612,0.0096,3683,2019-08-07 16:48:57:617
-7.0462,-6.0996,1.479,-0.2245,-0.3108,0.0307,0.0048,0.0612,0.0096,3689,2019-08-07 16:48:57:623
-7.0462,-6.0996,1.479,-0.2245,-0.3108,0.0307,0.0059,0.0591,0.0117,3694,2019-08-07 16:48:57:628
-7.0605,-6.0185,1.5309,-0.2245,-0.3108,0.0307,0.0059,0.0591,0.0117,3699,2019-08-07 16:48:57:633
-7.0605,-6.0185,1.5309,-0.2245,-0.3108,0.0307,0.0059,0.0591,0.0117,3704,2019-08-07 16:48:57:638
-7.0605,-6.0185,1.5309,-0.176,-0.3602,-0.018,-5.0E-4,0.025,0.0192,3708,2019-08-07 16:48:57:642
-7.0844,-5.985,1.4979,-0.176,-0.3602,-0.018,-5.0E-4,0.025,0.0192,3714,2019-08-07 16:48:57:648
-7.0844,-5.985,1.4979,-0.176,-0.3602,-0.018,0.0016,0.0026,0.0266,3718,2019-08-07 16:48:57:652
-6.9074,-6.0853,1.4319,-0.176,-0.3602,-0.018,0.0016,0.0026,0.0266,3724,2019-08-07 16:48:57:658
-6.9074,-6.0853,1.4319,-0.5003,-0.2653,0.0237,0.0112,0.0101,0.0192,3729,2019-08-07 16:48:57:663
-6.9074,-6.0853,1.4319,-0.5003,-0.2653,0.0237,0.0112,0.0101,0.0192,3734,2019-08-07 16:48:57:668
-7.0031,-6.0662,1.3848,-0.5003,-0.2653,0.0237,0.0102,0.0665,-0.0011,3739,2019-08-07 16:48:57:673
-7.0031,-6.0662,1.3848,-0.5003,-0.2653,0.0237,0.0102,0.0665,-0.0011,3744,2019-08-07 16:48:57:678
-7.1131,-6.0089,1.4225,-0.1678,-0.3929,0.0744,0.0059,0.0793,0.0032,3748,2019-08-07 16:48:57:682
-7.1131,-6.0089,1.4225,-0.1678,-0.3929,0.0744,0.0059,0.0793,0.0032,3754,2019-08-07 16:48:57:688
-7.1131,-6.0089,1.4225,-0.1678,-0.3929,0.0744,0.0059,0.0793,0.0032,3758,2019-08-07 16:48:57:692
-7.1179,-6.0137,1.3848,-0.1678,-0.3929,0.0744,6.0E-4,0.0836,-0.0021,3764,2019-08-07 16:48:57:698
-7.1179,-6.0137,1.3848,-0.1473,-0.3728,0.1046,6.0E-4,0.0836,-0.0021,3768,2019-08-07 16:48:57:702
-7.2088,-6.0901,1.4272,-0.1473,-0.3728,0.1046,-0.0069,0.0719,-0.0085,3774,2019-08-07 16:48:57:708
-7.2088,-6.0901,1.4272,-0.1473,-0.3728,0.1046,-0.0069,0.0719,-0.0085,3779,2019-08-07 16:48:57:713
-7.2088,-6.0901,1.4272,-0.1473,-0.3728,0.1046,-0.0037,0.0591,-0.0085,3783,2019-08-07 16:48:57:717
-7.0796,-6.1139,1.4838,-0.2064,-0.2874,-0.0095,-0.0037,0.0591,-0.0085,3789,2019-08-07 16:48:57:723
-7.0796,-6.1139,1.4838,-0.2064,-0.2874,-0.0095,-0.0015,0.0452,-0.016,3794,2019-08-07 16:48:57:728
-7.0796,-6.1139,1.4838,-0.2064,-0.2874,-0.0095,-0.0015,0.0452,-0.016,3798,2019-08-07 16:48:57:732
-7.07,-6.0805,1.4743,-0.2064,-0.2874,-0.0095,-0.0015,0.0452,-0.016,3804,2019-08-07 16:48:57:738
-7.07,-6.0805,1.4743,-0.2395,-0.2655,0.05,-0.0069,0.0314,-0.016,3809,2019-08-07 16:48:57:743
-7.0365,-6.1283,1.3989,-0.2395,-0.2655,0.05,-0.0069,0.0314,-0.016,3814,2019-08-07 16:48:57:748
-7.0365,-6.1283,1.3989,-0.2395,-0.2655,0.05,-0.009,0.0335,-0.0171,3819,2019-08-07 16:48:57:753
-7.0365,-6.1283,1.3989,-0.2395,-0.2655,0.05,-0.009,0.0335,-0.0171,3823,2019-08-07 16:48:57:757
-7.094,-6.1235,1.3612,-0.2147,-0.2584,0.0438,-0.0111,0.0271,-0.0171,3829,2019-08-07 16:48:57:763
-7.094,-6.1235,1.3612,-0.2147,-0.2584,0.0438,-0.0111,0.0271,-0.0171,3833,2019-08-07 16:48:57:767
-7.094,-6.1235,1.3612,-0.2147,-0.2584,0.0438,-0.0143,0.0101,-0.0171,3839,2019-08-07 16:48:57:773
-7.0892,-6.1044,1.4885,-0.2147,-0.2584,0.0438,-0.0143,0.0101,-0.0171,3844,2019-08-07 16:48:57:778
-7.0892,-6.1044,1.4885,-0.1366,-0.2608,0.0266,-0.0154,-0.007,-0.0245,3848,2019-08-07 16:48:57:782
-7.0796,-6.0853,1.4413,-0.1366,-0.2608,0.0266,-0.0154,-0.007,-0.0245,3854,2019-08-07 16:48:57:788
-7.0796,-6.0853,1.4413,-0.1366,-0.2608,0.0266,-0.0154,-0.007,-0.0245,3858,2019-08-07 16:48:57:792
-7.0796,-6.0853,1.4413,-0.1366,-0.2608,0.0266,-0.0165,-0.0155,-0.0266,3864,2019-08-07 16:48:57:798
-6.9695,-6.133,1.4508,-0.2862,-0.2743,-0.0015,-0.0165,-0.0155,-0.0266,3869,2019-08-07 16:48:57:803
-6.9695,-6.133,1.4508,-0.2862,-0.2743,-0.0015,-0.0122,-0.007,-0.0277,3874,2019-08-07 16:48:57:808
-6.9552,-6.1664,1.4743,-0.2862,-0.2743,-0.0015,-0.0122,-0.007,-0.0277,3879,2019-08-07 16:48:57:813
-6.9552,-6.1664,1.4743,-0.2862,-0.2743,-0.0015,-0.0058,-6.0E-4,-0.0341,3884,2019-08-07 16:48:57:818
-6.9552,-6.1664,1.4743,-0.3395,-0.3173,0.1486,-0.0058,-6.0E-4,-0.0341,3888,2019-08-07 16:48:57:822
-6.9026,-6.1569,1.3471,-0.3395,-0.3173,0.1486,0.0016,0.009,-0.0298,3894,2019-08-07 16:48:57:828
-6.9026,-6.1569,1.3471,-0.3395,-0.3173,0.1486,0.0016,0.009,-0.0298,3899,2019-08-07 16:48:57:833
-6.9026,-6.1569,1.3471,-0.3395,-0.3173,0.1486,0.0059,0.0218,-0.0192,3904,2019-08-07 16:48:57:838
-6.9217,-6.0376,1.4461,-0.3395,-0.3173,0.1486,0.0059,0.0218,-0.0192,3908,2019-08-07 16:48:57:842
-6.9217,-6.0376,1.4461,-0.4086,-0.3588,-0.0133,0.0155,0.0207,-0.0149,3914,2019-08-07 16:48:57:848
-6.9408,-6.0853,1.3895,-0.4086,-0.3588,-0.0133,0.0155,0.0207,-0.0149,3918,2019-08-07 16:48:57:852
-6.9408,-6.0853,1.3895,-0.4086,-0.3588,-0.0133,0.0166,0.0292,-0.0043,3924,2019-08-07 16:48:57:858
-6.9408,-6.0853,1.3895,-0.3318,-0.3738,0.1362,0.0166,0.0292,-0.0043,3929,2019-08-07 16:48:57:863
-6.9121,-6.0662,1.3801,-0.3318,-0.3738,0.1362,0.0176,0.0399,0.0,3933,2019-08-07 16:48:57:867
-6.9121,-6.0662,1.3801,-0.3318,-0.3738,0.1362,0.0176,0.0399,0.0,3939,2019-08-07 16:48:57:873
-6.9743,-6.0185,1.3895,-0.3318,-0.3738,0.1362,0.0134,0.042,0.0021,3943,2019-08-07 16:48:57:877
-6.9743,-6.0185,1.3895,-0.2953,-0.3775,0.0804,0.0134,0.042,0.0021,3949,2019-08-07 16:48:57:883
-6.9743,-6.0185,1.3895,-0.2953,-0.3775,0.0804,0.0048,0.0527,-0.0043,3954,2019-08-07 16:48:57:888
-6.9456,-6.028,1.3942,-0.2953,-0.3775,0.0804,0.0048,0.0527,-0.0043,3959,2019-08-07 16:48:57:893
-6.9456,-6.028,1.3942,-0.2953,-0.3775,0.0804,0.0048,0.0527,-0.0043,3963,2019-08-07 16:48:57:897
-6.9743,-6.0662,1.3518,-0.3012,-0.3544,0.0905,-0.009,0.0612,-0.0149,3969,2019-08-07 16:48:57:903
-6.9743,-6.0662,1.3518,-0.3012,-0.3544,0.0905,-0.009,0.0612,-0.0149,3973,2019-08-07 16:48:57:907
-6.9743,-6.0662,1.3518,-0.3012,-0.3544,0.0905,-0.0207,0.0665,-0.0192,3979,2019-08-07 16:48:57:913
-6.9695,-6.0423,1.2999,-0.3012,-0.3544,0.0905,-0.0207,0.0665,-0.0192,3984,2019-08-07 16:48:57:918
-6.9695,-6.0423,1.2999,-0.3012,-0.3544,0.0905,-0.0282,0.0729,-0.0277,3988,2019-08-07 16:48:57:922
-6.9456,-6.0423,1.3282,-0.3297,-0.3671,0.0301,-0.0282,0.0729,-0.0277,3994,2019-08-07 16:48:57:928
-6.9456,-6.0423,1.3282,-0.3297,-0.3671,0.0301,-0.0324,0.0846,-0.0309,3999,2019-08-07 16:48:57:933
-6.9456,-6.0423,1.3282,-0.3297,-0.3671,0.0301,-0.0324,0.0846,-0.0309,4004,2019-08-07 16:48:57:938
-6.9456,-6.0423,1.3282,-0.3297,-0.3671,0.0301,-0.0324,0.0846,-0.0309,4009,2019-08-07 16:48:57:943
-6.9025,-6.0376,1.3141,-0.3716,-0.3674,0.0647,-0.0324,0.1038,-0.0256,4014,2019-08-07 16:48:57:948
-6.9025,-6.0376,1.3141,-0.3716,-0.3674,0.0647,-0.0324,0.1038,-0.0256,4019,2019-08-07 16:48:57:953
-6.9934,-6.0519,1.3047,-0.3716,-0.3674,0.0647,-0.0218,0.1272,-0.0053,4023,2019-08-07 16:48:57:957
-6.9934,-6.0519,1.3047,-0.3716,-0.3674,0.0647,-0.0218,0.1272,-0.0053,4029,2019-08-07 16:48:57:963
-6.9934,-6.0519,1.3047,-0.3644,-0.3981,0.0056,-0.0101,0.1379,0.0021,4033,2019-08-07 16:48:57:967
-6.9647,-6.028,1.3282,-0.3644,-0.3981,0.0056,-0.0101,0.1379,0.0021,4039,2019-08-07 16:48:57:973
-6.9647,-6.028,1.3282,-0.3644,-0.3981,0.0056,-0.0069,0.1411,0.0,4044,2019-08-07 16:48:57:978
-7.1274,-6.0758,1.2669,-0.3644,-0.3981,0.0056,-0.0069,0.1411,0.0,4049,2019-08-07 16:48:57:983
-7.1274,-6.0758,1.2669,-0.1777,-0.3546,0.1481,-0.0069,0.1411,0.0,4053,2019-08-07 16:48:57:987
-7.1274,-6.0758,1.2669,-0.1777,-0.3546,0.1481,-0.0079,0.1411,0.0032,4059,2019-08-07 16:48:57:993
-7.1417,-6.1187,1.3612,-0.1777,-0.3546,0.1481,-0.0079,0.1411,0.0032,4064,2019-08-07 16:48:57:998
-7.1417,-6.1187,1.3612,-0.1777,-0.3546,0.1481,-0.0069,0.107,0.0,4068,2019-08-07 16:48:58:002
-7.2996,-6.1378,1.4178,-0.0101,-0.3106,-0.0837,-0.0069,0.107,0.0,4074,2019-08-07 16:48:58:008
-7.2996,-6.1378,1.4178,-0.0101,-0.3106,-0.0837,0.007,0.0921,-0.0043,4078,2019-08-07 16:48:58:012
-7.2996,-6.1378,1.4178,-0.0101,-0.3106,-0.0837,0.007,0.0921,-0.0043,4084,2019-08-07 16:48:58:018
-7.2278,-6.2715,1.3377,-0.0101,-0.3106,-0.0837,0.0198,0.0644,-0.0181,4088,2019-08-07 16:48:58:022
-7.2278,-6.2715,1.3377,-0.0597,-0.1914,0.0615,0.0198,0.0644,-0.0181,4094,2019-08-07 16:48:58:028
-7.2661,-6.2094,1.3141,-0.0597,-0.1914,0.0615,0.0272,0.0474,-0.0234,4099,2019-08-07 16:48:58:033
-7.2661,-6.2094,1.3141,-0.0597,-0.1914,0.0615,0.0272,0.0474,-0.0234,4104,2019-08-07 16:48:58:038
-7.2661,-6.2094,1.3141,-0.0597,-0.1914,0.0615,0.0272,0.0474,-0.0234,4108,2019-08-07 16:48:58:042
-7.2804,-6.1951,1.3424,-0.0062,-0.2312,0.0634,0.0262,0.0165,-0.0266,4114,2019-08-07 16:48:58:048
-7.2804,-6.1951,1.3424,-0.0062,-0.2312,0.0634,0.0262,0.0165,-0.0266,4118,2019-08-07 16:48:58:052
-7.2565,-6.1808,1.3235,-0.0062,-0.2312,0.0634,0.0176,-0.0293,-0.0384,4124,2019-08-07 16:48:58:058