ACCELEROMETER X (m/s²),ACCELEROMETER Y (m/s²),ACCELEROMETER Z (m/s²),LINEAR ACCELERATION X (m/s²),LINEAR ACCELERATION Y (m/s²),LINEAR ACCELERATION Z (m/s²),GYROSCOPE X (rad/s),GYROSCOPE Y (rad/s),GYROSCOPE Z (rad/s),Time since start in ms ,YYYY-MO-DD HH-MI-SS_SSS
-6.6813,-6.2434,1.3483,-0.3081,-0.3268,0.0483,0.0091,0.0058,0.0,4,2019-08-07 16:49:54:099
-6.6813,-6.2434,1.3483,-0.3374,-0.4262,0.0921,0.0091,0.0058,0.0,8,2019-08-07 16:49:54:103
-6.6813,-6.2434,1.3483,-0.3374,-0.4262,0.0921,-0.0037,0.0122,0.0011,14,2019-08-07 16:49:54:109
-6.7482,-6.2291,1.2588,-0.3374,-0.4262,0.0921,-0.0037,0.0122,0.0011,18,2019-08-07 16:49:54:113
-6.7482,-6.2291,1.2588,-0.3374,-0.4262,0.0921,-0.0111,0.0207,0.0,24,2019-08-07 16:49:54:119
-6.7482,-6.2291,1.2588,-0.2908,-0.4446,0.0514,-0.0111,0.0207,0.0,28,2019-08-07 16:49:54:123
-6.7817,-6.1957,1.3342,-0.2908,-0.4446,0.0514,-0.0111,0.0207,0.0,34,2019-08-07 16:49:54:129
-6.7817,-6.1957,1.3342,-0.2908,-0.4446,0.0514,-0.0197,0.0164,-0.0032,38,2019-08-07 16:49:54:133
-6.8008,-6.2196,1.3248,-0.2908,-0.4446,0.0514,-0.0197,0.0164,-0.0032,44,2019-08-07 16:49:54:139
-6.8008,-6.2196,1.3248,-0.3157,-0.4301,0.0376,-0.0261,0.0037,0.0032,49,2019-08-07 16:49:54:144
-6.8008,-6.2196,1.3248,-0.3157,-0.4301,0.0376,-0.0261,0.0037,0.0032,54,2019-08-07 16:49:54:149
-6.7434,-6.2577,1.2494,-0.3157,-0.4301,0.0376,-0.0218,0.0058,0.0064,58,2019-08-07 16:49:54:153
-6.7434,-6.2577,1.2494,-0.3157,-0.4301,0.0376,-0.0218,0.0058,0.0064,64,2019-08-07 16:49:54:159
-6.7673,-6.3341,1.2258,-0.2934,-0.3434,0.1134,-0.0207,0.0122,0.0064,68,2019-08-07 16:49:54:163
-6.7673,-6.3341,1.2258,-0.2934,-0.3434,0.1134,-0.0207,0.0122,0.0064,74,2019-08-07 16:49:54:169
-6.7673,-6.3341,1.2258,-0.2934,-0.3434,0.1134,-0.0186,0.0164,0.0139,79,2019-08-07 16:49:54:174
-6.7864,-6.4153,1.2494,-0.2934,-0.3434,0.1134,-0.0186,0.0164,0.0139,84,2019-08-07 16:49:54:179
-6.7864,-6.4153,1.2494,-0.3148,-0.2273,-0.0182,-0.0186,0.0164,0.0139,88,2019-08-07 16:49:54:183
-6.7481,-6.4057,1.3436,-0.3148,-0.2273,-0.0182,-0.009,0.0111,0.0224,94,2019-08-07 16:49:54:189
-6.7481,-6.4057,1.3436,-0.345,-0.2498,0.0515,-0.009,0.0111,0.0224,99,2019-08-07 16:49:54:194
-6.7481,-6.4057,1.3436,-0.345,-0.2498,0.0515,-0.0016,0.0026,0.0267,104,2019-08-07 16:49:54:199
-6.729,-6.4153,1.3295,-0.345,-0.2498,0.0515,-0.0016,0.0026,0.0267,109,2019-08-07 16:49:54:204
-6.729,-6.4153,1.3295,-0.345,-0.2498,0.0515,-0.0016,0.0047,0.0288,114,2019-08-07 16:49:54:209
-6.729,-6.4153,1.3295,-0.2866,-0.2794,-0.0157,-0.0016,0.0047,0.0288,119,2019-08-07 16:49:54:214
-6.729,-6.3389,1.2871,-0.2866,-0.2794,-0.0157,-5.0E-4,0.0026,0.0309,124,2019-08-07 16:49:54:219
-6.729,-6.3389,1.2871,-0.2866,-0.2794,-0.0157,-5.0E-4,0.0026,0.0309,129,2019-08-07 16:49:54:224
-6.7146,-6.401,1.2069,-0.2866,-0.2794,-0.0157,-0.0069,0.0186,0.0309,134,2019-08-07 16:49:54:229
-6.7146,-6.401,1.2069,-0.3197,-0.3421,0.1094,-0.0069,0.0186,0.0309,138,2019-08-07 16:49:54:233
-6.7146,-6.401,1.2069,-0.3197,-0.3421,0.1094,-0.0069,0.0186,0.0309,144,2019-08-07 16:49:54:239
-6.8246,-6.3198,1.2494,-0.3197,-0.3421,0.1094,-0.0122,0.0292,0.0245,149,2019-08-07 16:49:54:244
-6.8246,-6.3198,1.2494,-0.3197,-0.3421,0.1094,-0.0122,0.0292,0.0245,154,2019-08-07 16:49:54:249
-6.8246,-6.3198,1.2494,-0.2431,-0.3574,0.0706,-0.0133,0.0282,0.0203,159,2019-08-07 16:49:54:254
-6.8772,-6.3103,1.2541,-0.2431,-0.3574,0.0706,-0.0133,0.0282,0.0203,163,2019-08-07 16:49:54:258
-6.8772,-6.3103,1.2541,-0.2431,-0.3574,0.0706,-0.0165,0.026,0.0128,169,2019-08-07 16:49:54:264
-6.882,-6.2434,1.1787,-0.2431,-0.3574,0.0706,-0.0165,0.026,0.0128,173,2019-08-07 16:49:54:268
-6.882,-6.2434,1.1787,-0.2222,-0.3793,0.0877,-0.0229,0.0282,0.0075,179,2019-08-07 16:49:54:274
-6.882,-6.2434,1.1787,-0.2222,-0.3793,0.0877,-0.0229,0.0282,0.0075,183,2019-08-07 16:49:54:278
-6.8054,-6.2816,1.24,-0.2222,-0.3793,0.0877,-0.0239,0.025,0.0064,189,2019-08-07 16:49:54:284
-6.8054,-6.2816,1.24,-0.2222,-0.3793,0.0877,-0.0239,0.025,0.0064,193,2019-08-07 16:49:54:288
-6.8246,-6.3437,1.207,-0.2576,-0.3166,0.1041,-0.025,0.0271,0.0054,199,2019-08-07 16:49:54:294
-6.8246,-6.3437,1.207,-0.2576,-0.3166,0.1041,-0.025,0.0271,0.0054,204,2019-08-07 16:49:54:299
-6.8246,-6.3437,1.207,-0.2576,-0.3166,0.1041,-0.0239,0.0271,0.0107,209,2019-08-07 16:49:54:304
-6.7863,-6.4965,1.2211,-0.2576,-0.3166,0.1041,-0.0239,0.0271,0.0107,213,2019-08-07 16:49:54:308
-6.7863,-6.4965,1.2211,-0.3405,-0.0681,0.036,-0.0175,0.0218,0.0149,219,2019-08-07 16:49:54:314
-6.7863,-6.4965,1.2211,-0.3405,-0.0681,0.036,-0.0175,0.0218,0.0149,223,2019-08-07 16:49:54:318
-6.7288,-6.5108,1.3531,-0.3405,-0.0681,0.036,-0.0069,0.0186,0.016,229,2019-08-07 16:49:54:324
-6.7288,-6.5108,1.3531,-0.3405,-0.0681,0.036,-0.0069,0.0186,0.016,234,2019-08-07 16:49:54:329
-6.7288,-6.4965,1.3107,-0.3405,-0.0681,0.036,0.0038,0.0175,0.0245,239,2019-08-07 16:49:54:334
-6.7288,-6.4965,1.3107,-0.3667,-0.1236,0.0,0.0038,0.0175,0.0245,244,2019-08-07 16:49:54:339
-6.7288,-6.4965,1.3107,-0.3667,-0.1236,0.0,0.0048,0.0207,0.0288,249,2019-08-07 16:49:54:344
-6.7432,-6.4821,1.2164,-0.3667,-0.1236,0.0,0.0048,0.0207,0.0288,253,2019-08-07 16:49:54:348
-6.7432,-6.4821,1.2164,-0.3667,-0.1236,0.0,0.008,0.0282,0.0256,259,2019-08-07 16:49:54:354
-6.8867,-6.3914,1.24,-0.2271,-0.2535,0.0213,0.008,0.0282,0.0256,264,2019-08-07 16:49:54:359
-6.8867,-6.3914,1.24,-0.2271,-0.2535,0.0213,0.0112,0.0239,0.0224,269,2019-08-07 16:49:54:364
-6.8867,-6.3914,1.24,-0.2271,-0.2535,0.0213,0.0112,0.0239,0.0224,274,2019-08-07 16:49:54:369
-6.9106,-6.3962,1.273,-0.2271,-0.2535,0.0213,0.007,0.0154,0.0224,279,2019-08-07 16:49:54:374
-6.9106,-6.3962,1.273,-0.212,-0.283,0.0903,0.007,0.0154,0.0224,284,2019-08-07 16:49:54:379
-6.9441,-6.3771,1.1599,-0.212,-0.283,0.0903,0.007,0.0218,0.0086,289,2019-08-07 16:49:54:384
-6.9441,-6.3771,1.1599,-0.212,-0.283,0.0903,0.007,0.0218,0.0086,293,2019-08-07 16:49:54:388
-6.9441,-6.3771,1.1599,-0.212,-0.283,0.0903,0.007,0.0218,0.0086,299,2019-08-07 16:49:54:394
-6.968,-6.2339,1.2117,-0.1284,-0.4146,0.0823,-5.0E-4,0.0356,-0.0032,303,2019-08-07 16:49:54:398
-6.968,-6.2339,1.2117,-0.1284,-0.4146,0.0823,-5.0E-4,0.0356,-0.0032,309,2019-08-07 16:49:54:404
-6.968,-6.2339,1.2117,-0.1284,-0.4146,0.0823,-0.009,0.0324,-0.0117,313,2019-08-07 16:49:54:408
-6.9453,-6.334,1.1831,-0.1284,-0.4146,0.0823,-0.009,0.0324,-0.0117,319,2019-08-07 16:49:54:414
-6.9453,-6.334,1.1831,-0.1896,-0.3441,0.0667,-0.0111,0.0399,-0.0191,323,2019-08-07 16:49:54:418
-6.9406,-6.3531,1.2963,-0.1896,-0.3441,0.0667,-0.0111,0.0399,-0.0191,329,2019-08-07 16:49:54:424
-6.9406,-6.3531,1.2963,-0.1896,-0.3441,0.0667,-0.009,0.0324,-0.0234,334,2019-08-07 16:49:54:429
-6.9406,-6.3531,1.2963,-0.1896,-0.3441,0.0667,-0.009,0.0324,-0.0234,339,2019-08-07 16:49:54:434
-6.9166,-6.3674,1.3104,-0.1784,-0.2849,-0.0291,-0.0037,0.0282,-0.0234,345,2019-08-07 16:49:54:440
-6.9166,-6.3674,1.3104,-0.1784,-0.2849,-0.0291,-0.0037,0.0282,-0.0234,349,2019-08-07 16:49:54:444
-6.8449,-6.3722,1.2963,-0.1784,-0.2849,-0.0291,-5.0E-4,0.0186,-0.0223,354,2019-08-07 16:49:54:449
-6.8449,-6.3722,1.2963,-0.1784,-0.2849,-0.0291,-5.0E-4,0.0186,-0.0223,359,2019-08-07 16:49:54:454
-6.8449,-6.3722,1.2963,-0.3247,-0.2637,-0.0456,0.0038,0.0015,-0.0138,364,2019-08-07 16:49:54:459
-6.7875,-6.3388,1.4,-0.3247,-0.2637,-0.0456,0.0038,0.0015,-0.0138,369,2019-08-07 16:49:54:464
-6.7875,-6.3388,1.4,-0.3247,-0.2637,-0.0456,0.0102,-0.0134,-0.0085,373,2019-08-07 16:49:54:468
-6.7348,-6.3054,1.3057,-0.3247,-0.2637,-0.0456,0.0102,-0.0134,-0.0085,379,2019-08-07 16:49:54:474
-6.7348,-6.3054,1.3057,-0.3566,-0.3221,0.066,0.0091,-0.0112,-0.001,384,2019-08-07 16:49:54:479
-6.7348,-6.3054,1.3057,-0.3566,-0.3221,0.066,0.0091,-0.0112,-0.001,389,2019-08-07 16:49:54:484
-6.7396,-6.3102,1.1973,-0.3566,-0.3221,0.066,0.0112,-0.0038,0.0064,393,2019-08-07 16:49:54:488
-6.7396,-6.3102,1.1973,-0.3566,-0.3221,0.066,0.0112,-0.0038,0.0064,399,2019-08-07 16:49:54:494
-6.7396,-6.3102,1.1973,-0.357,-0.3689,0.0681,0.0059,0.0101,0.0064,404,2019-08-07 16:49:54:499
-6.7348,-6.2004,1.2161,-0.357,-0.3689,0.0681,0.0059,0.0101,0.0064,409,2019-08-07 16:49:54:504
-6.7348,-6.2004,1.2161,-0.357,-0.3689,0.0681,-5.0E-4,0.0271,0.0064,413,2019-08-07 16:49:54:508
-6.7301,-6.2433,1.1737,-0.357,-0.3689,0.0681,-5.0E-4,0.0271,0.0064,419,2019-08-07 16:49:54:514
-6.7301,-6.2433,1.1737,-0.3159,-0.4296,0.0928,-5.0E-4,0.0271,0.0064,423,2019-08-07 16:49:54:518
-6.7301,-6.2433,1.1737,-0.3159,-0.4296,0.0928,-0.0079,0.0409,0.0054,429,2019-08-07 16:49:54:524
-6.8257,-6.2147,1.2397,-0.3159,-0.4296,0.0928,-0.0079,0.0409,0.0054,434,2019-08-07 16:49:54:529
-6.8257,-6.2147,1.2397,-0.3159,-0.4296,0.0928,-0.0175,0.0559,0.0022,439,2019-08-07 16:49:54:534
-6.864,-6.2672,1.1879,-0.2321,-0.386,0.0836,-0.0175,0.0559,0.0022,443,2019-08-07 16:49:54:538
-6.864,-6.2672,1.1879,-0.2321,-0.386,0.0836,-0.0229,0.0505,-0.001,449,2019-08-07 16:49:54:544
-6.864,-6.2672,1.1879,-0.2321,-0.386,0.0836,-0.0229,0.0505,-0.001,454,2019-08-07 16:49:54:549
-6.8353,-6.3245,1.1737,-0.2321,-0.386,0.0836,-0.0282,0.0431,0.0011,458,2019-08-07 16:49:54:553
-6.8353,-6.3245,1.1737,-0.2242,-0.367,0.0877,-0.0282,0.0431,0.0011,464,2019-08-07 16:49:54:559
-6.8258,-6.4009,1.2067,-0.2242,-0.367,0.0877,-0.0271,0.0228,0.0022,469,2019-08-07 16:49:54:564
-6.8258,-6.4009,1.2067,-0.2242,-0.367,0.0877,-0.0271,0.0228,0.0022,474,2019-08-07 16:49:54:569
-6.8258,-6.4009,1.2067,-0.2242,-0.367,0.0877,-0.0165,0.0196,0.0075,478,2019-08-07 16:49:54:573
-6.8114,-6.3818,1.2539,-0.3163,-0.2571,0.0437,-0.0165,0.0196,0.0075,484,2019-08-07 16:49:54:579
-6.8114,-6.3818,1.2539,-0.3163,-0.2571,0.0437,-0.0101,0.0207,0.0096,489,2019-08-07 16:49:54:584
-6.8114,-6.3818,1.2539,-0.3163,-0.2571,0.0437,-0.0101,0.0207,0.0096,494,2019-08-07 16:49:54:589
-6.7875,-6.42,1.202,-0.3163,-0.2571,0.0437,-0.0079,0.0186,0.0107,499,2019-08-07 16:49:54:594
-6.7875,-6.42,1.202,-0.2892,-0.2419,0.0534,-0.0079,0.0186,0.0107,504,2019-08-07 16:49:54:599
-6.8975,-6.3961,1.2444,-0.2892,-0.2419,0.0534,-0.0079,0.0058,0.0117,509,2019-08-07 16:49:54:604
-6.8975,-6.3961,1.2444,-0.2892,-0.2419,0.0534,-0.0079,0.0058,0.0117,514,2019-08-07 16:49:54:609
-6.8975,-6.3961,1.2444,-0.2892,-0.2419,0.0534,-0.0079,0.0058,0.0117,518,2019-08-07 16:49:54:613
-6.7827,-6.42,1.0983,-0.3194,-0.2454,0.0561,-0.0058,0.0058,0.0107,524,2019-08-07 16:49:54:619
-6.7827,-6.42,1.0983,-0.3194,-0.2454,0.0561,-0.0058,0.0058,0.0107,529,2019-08-07 16:49:54:624
-6.8305,-6.3961,1.1549,-0.3194,-0.2454,0.0561,-0.0026,0.0164,0.0043,534,2019-08-07 16:49:54:629
-6.8305,-6.3961,1.1549,-0.3194,-0.2454,0.0561,-0.0026,0.0164,0.0043,539,2019-08-07 16:49:54:634
-6.8305,-6.3961,1.1549,-0.3194,-0.2454,0.0561,0.0048,0.0346,0.0032,543,2019-08-07 16:49:54:638
-6.8305,-6.3627,1.169,-0.2822,-0.2784,0.0433,0.0048,0.0346,0.0032,549,2019-08-07 16:49:54:644
-6.8305,-6.3627,1.169,-0.2822,-0.2784,0.0433,0.0091,0.0409,0.0022,554,2019-08-07 16:49:54:649
-6.8305,-6.3627,1.169,-0.2822,-0.2784,0.0433,0.0091,0.0409,0.0022,558,2019-08-07 16:49:54:653
-6.8592,-6.377,1.1549,-0.2357,-0.2827,0.0709,0.0123,0.0473,0.0,564,2019-08-07 16:49:54:659
-6.8592,-6.377,1.1549,-0.2357,-0.2827,0.0709,0.0123,0.0473,0.0,569,2019-08-07 16:49:54:664
-6.9789,-6.3293,1.2774,-0.2357,-0.2827,0.0709,0.0219,0.0399,0.0043,573,2019-08-07 16:49:54:668
-6.9789,-6.3293,1.2774,-0.2357,-0.2827,0.0709,0.0219,0.0399,0.0043,579,2019-08-07 16:49:54:674
-6.9789,-6.3293,1.2774,-0.2357,-0.2827,0.0709,0.0219,0.0399,0.0043,583,2019-08-07 16:49:54:678
-6.8975,-6.3054,1.2303,-0.209,-0.3431,0.0074,0.0251,0.0143,0.0043,589,2019-08-07 16:49:54:684
-6.8975,-6.3054,1.2303,-0.209,-0.3431,0.0074,0.0251,0.0143,0.0043,594,2019-08-07 16:49:54:689
-6.8784,-6.3054,1.2209,-0.209,-0.3431,0.0074,0.0208,-0.0059,0.0054,599,2019-08-07 16:49:54:694
-6.8784,-6.3054,1.2209,-0.209,-0.3431,0.0074,0.0208,-0.0059,0.0054,603,2019-08-07 16:49:54:698
-6.8784,-6.3054,1.2209,-0.2866,-0.3318,-0.0083,0.0155,-0.0112,0.0085,609,2019-08-07 16:49:54:704
-6.8353,-6.3436,1.2114,-0.2866,-0.3318,-0.0083,0.0155,-0.0112,0.0085,613,2019-08-07 16:49:54:708
-6.8353,-6.3436,1.2114,-0.2866,-0.3318,-0.0083,0.0176,-0.0166,0.0107,619,2019-08-07 16:49:54:714
-6.7492,-6.3865,1.2303,-0.2866,-0.3318,-0.0083,0.0176,-0.0166,0.0107,623,2019-08-07 16:49:54:718
-6.7492,-6.3865,1.2303,-0.3256,-0.2298,0.0533,0.0155,-0.0155,0.0075,629,2019-08-07 16:49:54:724
-6.7492,-6.3865,1.2303,-0.3256,-0.2298,0.0533,0.0155,-0.0155,0.0075,634,2019-08-07 16:49:54:729
-6.7109,-6.3388,1.1737,-0.3256,-0.2298,0.0533,0.0155,-0.0155,0.0075,639,2019-08-07 16:49:54:734
-6.7109,-6.3388,1.1737,-0.3256,-0.2298,0.0533,0.0027,0.0101,0.0054,645,2019-08-07 16:49:54:740
-6.7875,-6.2767,1.1643,-0.3692,-0.3531,0.0406,0.0027,0.0101,0.0054,649,2019-08-07 16:49:54:744
-6.7875,-6.2767,1.1643,-0.3692,-0.3531,0.0406,-0.0016,0.026,-0.001,654,2019-08-07 16:49:54:749
-6.7875,-6.2767,1.1643,-0.3692,-0.3531,0.0406,-0.0016,0.026,-0.001,659,2019-08-07 16:49:54:754
-6.8258,-6.2958,1.1266,-0.3692,-0.3531,0.0406,-0.0122,0.0484,-0.0074,663,2019-08-07 16:49:54:758
-6.8258,-6.2958,1.1266,-0.2837,-0.325,0.1286,-0.0122,0.0484,-0.0074,669,2019-08-07 16:49:54:764
-6.8688,-6.334,1.0512,-0.2837,-0.325,0.1286,-0.0239,0.058,-0.017,673,2019-08-07 16:49:54:768
-6.8688,-6.334,1.0512,-0.2837,-0.325,0.1286,-0.0239,0.058,-0.017,679,2019-08-07 16:49:54:774
-6.8688,-6.334,1.0512,-0.2837,-0.325,0.1286,-0.0186,0.0559,-0.0202,684,2019-08-07 16:49:54:779
-6.9119,-6.3006,1.1549,-0.1972,-0.3466,0.0747,-0.0186,0.0559,-0.0202,689,2019-08-07 16:49:54:784
-6.9119,-6.3006,1.1549,-0.1972,-0.3466,0.0747,-0.0154,0.0441,-0.0117,694,2019-08-07 16:49:54:789
-6.9215,-6.3436,1.1737,-0.1972,-0.3466,0.0747,-0.0154,0.0441,-0.0117,699,2019-08-07 16:49:54:794
-6.9215,-6.3436,1.1737,-0.1972,-0.3466,0.0747,-0.0154,0.0441,-0.0117,704,2019-08-07 16:49:54:799
-6.9215,-6.3436,1.1737,-0.2019,-0.3005,0.0945,-0.0154,0.0292,-0.0096,709,2019-08-07 16:49:54:804
-6.9023,-6.3579,1.0842,-0.2019,-0.3005,0.0945,-0.0154,0.0292,-0.0096,713,2019-08-07 16:49:54:808
-6.9023,-6.3579,1.0842,-0.2019,-0.3005,0.0945,-0.0133,0.0079,0.0,719,2019-08-07 16:49:54:814
-6.9023,-6.3579,1.0842,-0.2019,-0.3005,0.0945,-0.0133,0.0079,0.0,723,2019-08-07 16:49:54:818
-6.8162,-6.3722,1.1124,-0.2359,-0.3147,0.0779,-5.0E-4,-0.0081,0.0054,729,2019-08-07 16:49:54:824
-6.8162,-6.3722,1.1124,-0.2359,-0.3147,0.0779,0.008,-0.0102,0.0096,734,2019-08-07 16:49:54:829
-6.7827,-6.3722,1.1454,-0.2359,-0.3147,0.0779,0.008,-0.0102,0.0096,739,2019-08-07 16:49:54:834
-6.7827,-6.3722,1.1454,-0.2359,-0.3147,0.0779,0.008,-0.0102,0.0096,744,2019-08-07 16:49:54:839
-6.7827,-6.3722,1.1454,-0.3856,-0.332,0.1883,0.0134,-0.0049,0.0149,749,2019-08-07 16:49:54:844
-6.7492,-6.3293,1.0464,-0.3856,-0.332,0.1883,0.0134,-0.0049,0.0149,753,2019-08-07 16:49:54:848
-6.7492,-6.3293,1.0464,-0.3856,-0.332,0.1883,0.0166,0.0101,0.0149,759,2019-08-07 16:49:54:854
-6.7636,-6.3722,1.0936,-0.3856,-0.332,0.1883,0.0166,0.0101,0.0149,764,2019-08-07 16:49:54:859
-6.7636,-6.3722,1.0936,-0.2971,-0.2673,0.0893,0.0155,0.0196,0.0139,769,2019-08-07 16:49:54:864
-6.7636,-6.3722,1.0936,-0.2971,-0.2673,0.0893,0.0155,0.0196,0.0139,774,2019-08-07 16:49:54:869
-6.8066,-6.334,1.0606,-0.2971,-0.2673,0.0893,0.0144,0.042,0.0075,779,2019-08-07 16:49:54:874
-6.8066,-6.334,1.0606,-0.2971,-0.2673,0.0893,0.0144,0.042,0.0075,784,2019-08-07 16:49:54:879
-6.8497,-6.3293,1.0983,-0.2655,-0.3138,0.118,0.0123,0.0495,0.0032,788,2019-08-07 16:49:54:883
-6.8497,-6.3293,1.0983,-0.2655,-0.3138,0.118,0.0123,0.0495,0.0032,794,2019-08-07 16:49:54:889
-6.8497,-6.3293,1.0983,-0.2655,-0.3138,0.118,0.0059,0.0495,-0.0032,799,2019-08-07 16:49:54:894
-6.8784,-6.3579,1.1219,-0.2655,-0.3138,0.118,0.0059,0.0495,-0.0032,803,2019-08-07 16:49:54:898
-6.8784,-6.3579,1.1219,-0.2096,-0.3421,0.0689,0.0027,0.0431,-0.0053,809,2019-08-07 16:49:54:904
-6.8497,-6.3197,1.1973,-0.2096,-0.3421,0.0689,0.0027,0.0431,-0.0053,814,2019-08-07 16:49:54:909
-6.8497,-6.3197,1.1973,-0.2096,-0.3421,0.0689,-5.0E-4,0.0346,-0.0021,819,2019-08-07 16:49:54:914
-6.8497,-6.3197,1.1973,-0.2096,-0.3421,0.0689,-5.0E-4,0.0346,-0.0021,824,2019-08-07 16:49:54:919
-6.8449,-6.3388,1.1926,-0.3204,-0.3183,0.0124,6.0E-4,0.0164,0.0032,828,2019-08-07 16:49:54:923
-6.8449,-6.3388,1.1926,-0.3204,-0.3183,0.0124,6.0E-4,0.0164,0.0032,834,2019-08-07 16:49:54:929
-6.8449,-6.3388,1.1926,-0.3204,-0.3183,0.0124,6.0E-4,0.0037,0.0107,838,2019-08-07 16:49:54:933
-6.7397,-6.334,1.1454,-0.3204,-0.3183,0.0124,6.0E-4,0.0037,0.0107,844,2019-08-07 16:49:54:939
-6.7397,-6.334,1.1454,-0.4127,-0.2501,0.0726,-5.0E-4,0.0026,0.0149,849,2019-08-07 16:49:54:944
-6.754,-6.3531,1.1171,-0.4127,-0.2501,0.0726,-5.0E-4,0.0026,0.0149,854,2019-08-07 16:49:54:949
-6.754,-6.3531,1.1171,-0.4127,-0.2501,0.0726,-0.0016,0.0143,0.0213,859,2019-08-07 16:49:54:954
-6.754,-6.3531,1.1171,-0.4127,-0.2501,0.0726,-0.0016,0.0143,0.0213,863,2019-08-07 16:49:54:958
-6.7492,-6.42,1.0747,-0.3914,-0.1953,0.1737,0.0038,0.0367,0.0224,869,2019-08-07 16:49:54:964
-6.7492,-6.42,1.0747,-0.3914,-0.1953,0.1737,0.0038,0.0367,0.0224,873,2019-08-07 16:49:54:968
-6.8306,-6.3961,1.1313,-0.3914,-0.1953,0.1737,0.0038,0.0367,0.0224,879,2019-08-07 16:49:54:974
-6.8306,-6.3961,1.1313,-0.3914,-0.1953,0.1737,0.0048,0.0591,0.0192,884,2019-08-07 16:49:54:979
-6.8306,-6.3961,1.1313,-0.2422,-0.2259,0.1002,0.0048,0.0591,0.0192,889,2019-08-07 16:49:54:984
-6.931,-6.4009,1.1124,-0.2422,-0.2259,0.1002,0.0059,0.0708,0.016,893,2019-08-07 16:49:54:988
-6.931,-6.4009,1.1124,-0.2422,-0.2259,0.1002,0.0059,0.0708,0.016,899,2019-08-07 16:49:54:994
-6.9884,-6.3913,1.1124,-0.2422,-0.2259,0.1002,0.0027,0.0676,0.0117,904,2019-08-07 16:49:54:999
-6.9884,-6.3913,1.1124,-0.2422,-0.2259,0.1002,0.0027,0.0676,0.0117,908,2019-08-07 16:49:55:003
-6.9884,-6.3913,1.1124,-0.1167,-0.2379,0.0766,0.0038,0.0527,0.0064,914,2019-08-07 16:49:55:009
-6.9932,-6.3961,1.1454,-0.1167,-0.2379,0.0766,0.0038,0.0527,0.0064,919,2019-08-07 16:49:55:014
-6.9932,-6.3961,1.1454,-0.1167,-0.2379,0.0766,0.0112,0.0378,0.0011,924,2019-08-07 16:49:55:019
-6.9837,-6.3722,1.136,-0.1475,-0.2605,0.0429,0.0112,0.0378,0.0011,928,2019-08-07 16:49:55:023
-6.9837,-6.3722,1.136,-0.1475,-0.2605,0.0429,0.0155,0.0207,0.0011,933,2019-08-07 16:49:55:028
-6.9837,-6.3722,1.136,-0.1475,-0.2605,0.0429,0.0155,0.0207,0.0011,939,2019-08-07 16:49:55:034
-6.8928,-6.2958,1.1501,-0.1475,-0.2605,0.0429,0.0187,0.0069,0.0011,944,2019-08-07 16:49:55:039
-6.8928,-6.2958,1.1501,-0.1475,-0.2605,0.0429,0.0187,0.0069,0.0011,949,2019-08-07 16:49:55:044
-6.8928,-6.2958,1.1501,-0.3012,-0.2931,0.0245,0.0187,0.0069,0.0011,953,2019-08-07 16:49:55:048
-6.7588,-6.2624,1.136,-0.3012,-0.2931,0.0245,0.0219,5.0E-4,0.0117,959,2019-08-07 16:49:55:054
-6.7588,-6.2624,1.136,-0.3012,-0.2931,0.0245,0.0219,5.0E-4,0.0117,964,2019-08-07 16:49:55:059
-6.7588,-6.2624,1.136,-0.3012,-0.2931,0.0245,0.024,0.0015,0.0149,969,2019-08-07 16:49:55:064
-6.754,-6.3818,1.0747,-0.3792,-0.2482,0.1072,0.024,0.0015,0.0149,973,2019-08-07 16:49:55:068
-6.754,-6.3818,1.0747,-0.3792,-0.2482,0.1072,0.0208,0.0069,0.0224,979,2019-08-07 16:49:55:074
-6.7397,-6.3818,1.0464,-0.3792,-0.2482,0.1072,0.0208,0.0069,0.0224,983,2019-08-07 16:49:55:078
-6.7397,-6.3818,1.0464,-0.3792,-0.2482,0.1072,0.0251,0.026,0.0192,989,2019-08-07 16:49:55:084
-6.7397,-6.3818,1.0464,-0.3818,-0.2502,0.1212,0.0251,0.026,0.0192,993,2019-08-07 16:49:55:088
-6.7827,-6.377,1.0512,-0.3818,-0.2502,0.1212,0.0261,0.0548,0.0181,999,2019-08-07 16:49:55:094
-6.7827,-6.377,1.0512,-0.3818,-0.2502,0.1212,0.0261,0.0548,0.0181,1004,2019-08-07 16:49:55:099
-6.9167,-6.272,1.1077,-0.3818,-0.2502,0.1212,0.0304,0.0708,0.0139,1008,2019-08-07 16:49:55:103
-6.9167,-6.272,1.1077,-0.1992,-0.3328,0.0214,0.0304,0.0708,0.0139,1014,2019-08-07 16:49:55:109
-6.9167,-6.272,1.1077,-0.1992,-0.3328,0.0214,0.0251,0.0761,0.0117,1018,2019-08-07 16:49:55:113
-7.0267,-6.3149,1.169,-0.1992,-0.3328,0.0214,0.0251,0.0761,0.0117,1024,2019-08-07 16:49:55:119
-7.0267,-6.3149,1.169,-0.1992,-0.3328,0.0214,0.0219,0.0686,0.0096,1028,2019-08-07 16:49:55:123
-7.0554,-6.2433,1.1596,-0.0978,-0.3776,0.0048,0.0219,0.0686,0.0096,1034,2019-08-07 16:49:55:129
-7.0554,-6.2433,1.1596,-0.0978,-0.3776,0.0048,0.0187,0.0378,0.0085,1039,2019-08-07 16:49:55:134
-7.0554,-6.2433,1.1596,-0.0978,-0.3776,0.0048,0.0187,0.0378,0.0085,1045,2019-08-07 16:49:55:140
-7.0363,-6.2004,1.1643,-0.0978,-0.3776,0.0048,0.0187,0.0111,0.0075,1049,2019-08-07 16:49:55:144
-7.0363,-6.2004,1.1643,-0.1915,-0.3321,0.0024,0.0187,0.0111,0.0075,1054,2019-08-07 16:49:55:149
-7.0363,-6.2004,1.1643,-0.1915,-0.3321,0.0024,0.0187,-0.0081,0.0128,1059,2019-08-07 16:49:55:154
-6.9119,-6.2242,1.1831,-0.1915,-0.3321,0.0024,0.0187,-0.0081,0.0128,1063,2019-08-07 16:49:55:158
-6.9119,-6.2242,1.1831,-0.1915,-0.3321,0.0024,0.0166,-0.0155,0.0192,1069,2019-08-07 16:49:55:164
-6.7588,-6.2958,1.0983,-0.3659,-0.3768,0.0816,0.0166,-0.0155,0.0192,1074,2019-08-07 16:49:55:169
-6.7588,-6.2958,1.0983,-0.3659,-0.3768,0.0816,0.0166,-0.0155,0.0192,1078,2019-08-07 16:49:55:173
-6.7588,-6.2958,1.0983,-0.3659,-0.3768,0.0816,0.0123,-0.0091,0.0235,1084,2019-08-07 16:49:55:179
-6.7684,-6.3292,1.0889,-0.3659,-0.3768,0.0816,0.0123,-0.0091,0.0235,1089,2019-08-07 16:49:55:184
-6.7684,-6.3292,1.0889,-0.3659,-0.3768,0.0816,0.0123,-0.0091,0.0235,1093,2019-08-07 16:49:55:188
-6.7684,-6.3292,1.0889,-0.4022,-0.3305,0.0883,0.007,0.0143,0.0224,1099,2019-08-07 16:49:55:194
-6.7445,-6.2672,0.9993,-0.4022,-0.3305,0.0883,0.007,0.0143,0.0224,1104,2019-08-07 16:49:55:199
-6.7445,-6.2672,0.9993,-0.4022,-0.3305,0.0883,0.0048,0.0378,0.0235,1109,2019-08-07 16:49:55:204
-6.7732,-6.334,1.0464,-0.3818,-0.2748,0.1219,0.0048,0.0378,0.0235,1114,2019-08-07 16:49:55:209
-6.7732,-6.334,1.0464,-0.3818,-0.2748,0.1219,-0.0016,0.0633,0.0139,1119,2019-08-07 16:49:55:214
-6.7732,-6.334,1.0464,-0.3818,-0.2748,0.1219,-0.0016,0.0633,0.0139,1124,2019-08-07 16:49:55:219
-6.888,-6.3388,1.0653,-0.3818,-0.2748,0.1219,-0.0079,0.0804,0.0117,1129,2019-08-07 16:49:55:224
-6.888,-6.3388,1.0653,-0.189,-0.2208,0.0494,-0.0079,0.0804,0.0117,1134,2019-08-07 16:49:55:229
-6.9932,-6.3388,1.1596,-0.189,-0.2208,0.0494,-5.0E-4,0.0804,0.0075,1139,2019-08-07 16:49:55:234
-6.9932,-6.3388,1.1596,-0.189,-0.2208,0.0494,-5.0E-4,0.0804,0.0075,1143,2019-08-07 16:49:55:238
-6.9932,-6.3388,1.1596,-0.189,-0.2208,0.0494,-5.0E-4,0.0654,0.0075,1149,2019-08-07 16:49:55:244
-7.0554,-6.3865,1.2114,-0.1109,-0.281,-0.0503,-5.0E-4,0.0654,0.0075,1154,2019-08-07 16:49:55:249
-7.0554,-6.3865,1.2114,-0.1109,-0.281,-0.0503,-5.0E-4,0.0654,0.0075,1158,2019-08-07 16:49:55:253
-7.0076,-6.3149,1.1501,-0.1554,-0.2892,-0.0044,0.0038,0.0079,0.0139,1164,2019-08-07 16:49:55:259
-7.0076,-6.3149,1.1501,-0.1554,-0.2892,-0.0044,0.0038,0.0079,0.0139,1169,2019-08-07 16:49:55:264
-7.0076,-6.3149,1.1501,-0.1554,-0.2892,-0.0044,0.0091,-0.024,0.0288,1173,2019-08-07 16:49:55:268
-6.8832,-6.2433,1.1878,-0.1554,-0.2892,-0.0044,0.0091,-0.024,0.0288,1179,2019-08-07 16:49:55:274
-6.8832,-6.2433,1.1878,-0.1554,-0.2892,-0.0044,0.0091,-0.024,0.0288,1183,2019-08-07 16:49:55:278
-6.8832,-6.2433,1.1878,-0.3311,-0.3561,-0.0037,0.0198,-0.0336,0.0362,1189,2019-08-07 16:49:55:284
-6.8306,-6.2147,1.1737,-0.3311,-0.3561,-0.0037,0.0198,-0.0336,0.0362,1194,2019-08-07 16:49:55:289
-6.8306,-6.2147,1.1737,-0.3311,-0.3561,-0.0037,0.0304,-0.0272,0.0405,1199,2019-08-07 16:49:55:294
-6.8593,-6.2672,1.004,-0.3121,-0.3256,0.1549,0.0304,-0.0272,0.0405,1204,2019-08-07 16:49:55:299
-6.8593,-6.2672,1.004,-0.3121,-0.3256,0.1549,0.024,-0.0102,0.0437,1209,2019-08-07 16:49:55:304
-6.8593,-6.2672,1.004,-0.3121,-0.3256,0.1549,0.024,-0.0102,0.0437,1214,2019-08-07 16:49:55:309
-6.8689,-6.2194,1.0889,-0.3121,-0.3256,0.1549,0.0166,0.009,0.0384,1219,2019-08-07 16:49:55:314
-6.8689,-6.2194,1.0889,-0.3121,-0.3256,0.1549,0.0166,0.009,0.0384,1223,2019-08-07 16:49:55:318
-6.8689,-6.2194,1.0889,-0.3273,-0.3095,0.1381,0.0134,0.0292,0.0341,1229,2019-08-07 16:49:55:324
-6.8784,-6.2672,1.1171,-0.3273,-0.3095,0.1381,0.0134,0.0292,0.0341,1234,2019-08-07 16:49:55:329
-6.8784,-6.2672,1.1171,-0.3273,-0.3095,0.1381,0.0038,0.0463,0.0256,1239,2019-08-07 16:49:55:334
-6.8784,-6.2672,1.1171,-0.3273,-0.3095,0.1381,0.0038,0.0463,0.0256,1243,2019-08-07 16:49:55:338
-6.998,-6.3292,1.136,-0.1843,-0.252,0.0206,0.0038,0.0463,0.0256,1249,2019-08-07 16:49:55:344
-6.998,-6.3292,1.136,-0.1843,-0.252,0.0206,-0.0058,0.0441,0.0181,1254,2019-08-07 16:49:55:349
-7.0507,-6.3579,1.2256,-0.1843,-0.252,0.0206,-0.0058,0.0441,0.0181,1258,2019-08-07 16:49:55:353
-7.0507,-6.3579,1.2256,-0.1843,-0.252,0.0206,-0.0101,0.0143,0.0171,1264,2019-08-07 16:49:55:359
-7.0507,-6.3579,1.2256,-0.1114,-0.2823,-0.0788,-0.0101,0.0143,0.0171,1269,2019-08-07 16:49:55:364
-7.0363,-6.3149,1.2586,-0.1114,-0.2823,-0.0788,-0.0207,-0.0198,0.0117,1274,2019-08-07 16:49:55:369
-7.0363,-6.3149,1.2586,-0.1114,-0.2823,-0.0788,-0.0207,-0.0198,0.0117,1279,2019-08-07 16:49:55:374
-7.0363,-6.2672,1.2161,-0.1114,-0.2823,-0.0788,-0.0261,-0.0475,0.0117,1284,2019-08-07 16:49:55:379
-7.0363,-6.2672,1.2161,-0.1894,-0.3138,-0.0679,-0.0261,-0.0475,0.0117,1289,2019-08-07 16:49:55:384
-7.0363,-6.2672,1.2161,-0.1894,-0.3138,-0.0679,-0.0261,-0.0475,0.0117,1293,2019-08-07 16:49:55:388
-6.9167,-6.2194,1.0936,-0.1894,-0.3138,-0.0679,-0.0303,-0.0613,0.0117,1299,2019-08-07 16:49:55:394
-6.9167,-6.2194,1.0936,-0.1894,-0.3138,-0.0679,-0.0303,-0.0613,0.0117,1304,2019-08-07 16:49:55:399
-6.9167,-6.2194,1.0936,-0.2953,-0.3457,0.0735,-0.042,-0.0539,0.0107,1309,2019-08-07 16:49:55:404
-6.8689,-6.2147,1.0841,-0.2953,-0.3457,0.0735,-0.042,-0.0539,0.0107,1314,2019-08-07 16:49:55:409
-6.8689,-6.2147,1.0841,-0.2953,-0.3457,0.0735,-0.0442,-0.0294,0.0107,1319,2019-08-07 16:49:55:414
-6.888,-6.3197,1.0653,-0.2953,-0.3457,0.0735,-0.0442,-0.0294,0.0107,1324,2019-08-07 16:49:55:419
-6.888,-6.3197,1.0653,-0.3295,-0.2402,0.1191,-0.0452,-0.0081,0.0085,1329,2019-08-07 16:49:55:424
-6.888,-6.3197,1.0653,-0.3295,-0.2402,0.1191,-0.0452,-0.0081,0.0085,1334,2019-08-07 16:49:55:429
-6.9311,-6.3292,1.0606,-0.3295,-0.2402,0.1191,-0.0399,0.0218,0.0075,1339,2019-08-07 16:49:55:434
-6.9311,-6.3292,1.0606,-0.3295,-0.2402,0.1191,-0.0399,0.0218,0.0075,1344,2019-08-07 16:49:55:439
-6.9311,-6.3292,1.0606,-0.1397,-0.2208,0.0547,-0.0399,0.0218,0.0075,1349,2019-08-07 16:49:55:444
-7.0602,-6.3436,1.0889,-0.1397,-0.2208,0.0547,-0.0367,0.0207,0.0064,1354,2019-08-07 16:49:55:449
-7.0602,-6.3436,1.0889,-0.1397,-0.2208,0.0547,-0.0367,0.0207,0.0064,1359,2019-08-07 16:49:55:454
-7.0937,-6.3245,1.1784,-0.1397,-0.2208,0.0547,-0.0292,5.0E-4,0.0064,1364,2019-08-07 16:49:55:459
-7.0937,-6.3245,1.1784,-0.1126,-0.2582,-0.0549,-0.0292,5.0E-4,0.0064,1369,2019-08-07 16:49:55:464
-7.0937,-6.3245,1.1784,-0.1126,-0.2582,-0.0549,-0.0292,5.0E-4,0.0064,1373,2019-08-07 16:49:55:468
-7.1033,-6.2242,1.268,-0.1126,-0.2582,-0.0549,-0.0186,-0.0379,0.0064,1379,2019-08-07 16:49:55:474
-7.1033,-6.2242,1.268,-0.1126,-0.2582,-0.0549,-0.0186,-0.0379,0.0064,1384,2019-08-07 16:49:55:479
-7.0889,-6.2147,1.2774,-0.0657,-0.3568,-0.122,-0.0101,-0.0773,0.0096,1389,2019-08-07 16:49:55:484
-7.0889,-6.2147,1.2774,-0.0657,-0.3568,-0.122,-0.0101,-0.0773,0.0096,1394,2019-08-07 16:49:55:489
-7.0889,-6.2147,1.2774,-0.0657,-0.3568,-0.122,-0.0101,-0.0773,0.0096,1399,2019-08-07 16:49:55:494
-7.0746,-6.1574,1.3104,-0.0657,-0.3568,-0.122,-0.0165,-0.1178,0.0117,1403,2019-08-07 16:49:55:498
-7.0746,-6.1574,1.3104,-0.1997,-0.3637,-0.1592,-0.0165,-0.1178,0.0117,1409,2019-08-07 16:49:55:504
-7.0746,-6.1574,1.3104,-0.1997,-0.3637,-0.1592,-0.0303,-0.1444,0.0149,1414,2019-08-07 16:49:55:509
-7.0172,-6.2385,1.3104,-0.1997,-0.3637,-0.1592,-0.0303,-0.1444,0.0149,1418,2019-08-07 16:49:55:513
-7.0172,-6.2385,1.3104,-0.1997,-0.3637,-0.1592,-0.0516,-0.1487,0.0064,1424,2019-08-07 16:49:55:519
-7.0315,-6.272,1.4141,-0.2075,-0.3052,-0.212,-0.0516,-0.1487,0.0064,1429,2019-08-07 16:49:55:524
-7.0315,-6.272,1.4141,-0.2075,-0.3052,-0.212,-0.0623,-0.1433,0.0,1434,2019-08-07 16:49:55:529
-7.0315,-6.272,1.4141,-0.2075,-0.3052,-0.212,-0.0623,-0.1433,0.0,1439,2019-08-07 16:49:55:534
-6.9837,-6.3006,1.4754,-0.2075,-0.3052,-0.212,-0.0623,-0.1433,0.0,1444,2019-08-07 16:49:55:539
-6.9837,-6.3006,1.4754,-0.1992,-0.2399,-0.3168,-0.0825,-0.122,-0.0074,1449,2019-08-07 16:49:55:544
-7.0794,-6.2529,1.5791,-0.1992,-0.2399,-0.3168,-0.0825,-0.122,-0.0074,1454,2019-08-07 16:49:55:549
-7.0794,-6.2529,1.5791,-0.1992,-0.2399,-0.3168,-0.1017,-0.1124,-0.0128,1459,2019-08-07 16:49:55:554
-7.0794,-6.2529,1.5791,-0.1992,-0.2399,-0.3168,-0.1017,-0.1124,-0.0128,1463,2019-08-07 16:49:55:558
-7.1799,-6.2672,1.6969,0.0486,-0.281,-0.5122,-0.1123,-0.1231,-0.0117,1468,2019-08-07 16:49:55:563
-7.1799,-6.2672,1.6969,0.0486,-0.281,-0.5122,-0.1123,-0.1231,-0.0117,1474,2019-08-07 16:49:55:569
-7.3569,-6.3245,2.0599,0.0486,-0.281,-0.5122,-0.1219,-0.1636,-0.0085,1479,2019-08-07 16:49:55:574
-7.3569,-6.3245,2.0599,0.0486,-0.281,-0.5122,-0.1219,-0.1636,-0.0085,1485,2019-08-07 16:49:55:580
-7.3569,-6.3245,2.0599,0.6076,-0.1297,-1.5526,-0.1219,-0.1636,-0.0085,1488,2019-08-07 16:49:55:583
-7.931,-6.525,2.9979,0.6076,-0.1297,-1.5526,-0.1145,-0.2573,0.0064,1494,2019-08-07 16:49:55:589
-7.931,-6.525,2.9979,0.6076,-0.1297,-1.5526,-0.1145,-0.2573,0.0064,1499,2019-08-07 16:49:55:594
-8.6438,-6.6491,4.266,0.6076,-0.1297,-1.5526,-0.0825,-0.4011,0.0213,1503,2019-08-07 16:49:55:598
-8.6438,-6.6491,4.266,1.7749,0.0475,-3.5241,-0.0825,-0.4011,0.0213,1509,2019-08-07 16:49:55:604
-8.6438,-6.6491,4.266,1.7749,0.0475,-3.5241,-0.0431,-0.6344,0.032,1513,2019-08-07 16:49:55:608
-9.6342,-6.3674,5.6942,1.7749,0.0475,-3.5241,-0.0431,-0.6344,0.032,1519,2019-08-07 16:49:55:614
-9.6342,-6.3674,5.6942,1.7749,0.0475,-3.5241,-0.0292,-1.0371,0.0469,1524,2019-08-07 16:49:55:619
-10.4666,-5.7134,6.4202,3.3031,-0.8382,-5.0076,-0.0292,-1.0371,0.0469,1529,2019-08-07 16:49:55:624
-10.4666,-5.7134,6.4202,3.3031,-0.8382,-5.0076,-0.0868,-1.394,0.049,1534,2019-08-07 16:49:55:629
-10.4666,-5.7134,6.4202,3.3031,-0.8382,-5.0076,-0.0868,-1.394,0.049,1538,2019-08-07 16:49:55:633
-10.7393,-4.9735,7.1084,3.3031,-0.8382,-5.0076,-0.0868,-1.394,0.049,1544,2019-08-07 16:49:55:639
-10.7393,-4.9735,7.1084,3.3031,-0.8382,-5.0076,-0.1443,-1.6933,0.048,1548,2019-08-07 16:49:55:643
-10.792,-4.3051,7.5279,3.6152,-2.029,-5.8117,-0.1443,-1.6933,0.048,1554,2019-08-07 16:49:55:649
-10.792,-4.3051,7.5279,3.6152,-2.029,-5.8117,-0.1752,-1.9138,0.1087,1558,2019-08-07 16:49:55:653
-10.792,-4.3051,7.5279,3.6152,-2.029,-5.8117,-0.1752,-1.9138,0.1087,1564,2019-08-07 16:49:55:659
-10.7776,-3.9137,8.3623,3.7998,-2.6451,-6.6778,-0.1752,-1.9543,0.1939,1569,2019-08-07 16:49:55:664
-10.7776,-3.9137,8.3623,3.7998,-2.6451,-6.6778,-0.1752,-1.9543,0.1939,1574,2019-08-07 16:49:55:669
-10.7776,-3.9137,8.3623,3.7998,-2.6451,-6.6778,-0.1518,-2.015,0.3271,1579,2019-08-07 16:49:55:674
-11.4713,-3.2835,9.8471,4.3951,-3.1846,-7.7674,-0.1518,-2.015,0.3271,1584,2019-08-07 16:49:55:679
-11.4713,-3.2835,9.8471,4.3951,-3.1846,-7.7674,-0.1113,-2.2227,0.5667,1589,2019-08-07 16:49:55:684
-11.4713,-3.2835,9.8471,4.3951,-3.1846,-7.7674,-0.1113,-2.2227,0.5667,1594,2019-08-07 16:49:55:689
-12.8217,-2.701,11.8927,4.3951,-3.1846,-7.7674,-0.1113,-2.2227,0.5667,1598,2019-08-07 16:49:55:693
-12.8217,-2.701,11.8927,6.3611,-3.7674,-10.1746,-0.107,-2.4752,0.7233,1604,2019-08-07 16:49:55:699
-12.8217,-2.701,11.8927,6.3611,-3.7674,-10.1746,-0.107,-2.4752,0.7233,1609,2019-08-07 16:49:55:704
-14.7354,-2.2571,13.6179,6.3611,-3.7674,-10.1746,-0.1667,-3.1197,0.9982,1613,2019-08-07 16:49:55:708
-14.7354,-2.2571,13.6179,8.7805,-4.3469,-11.4132,-0.1667,-3.1197,0.9982,1619,2019-08-07 16:49:55:714
-14.7354,-2.2571,13.6179,8.7805,-4.3469,-11.4132,-0.2966,-3.9485,1.2485,1624,2019-08-07 16:49:55:719
-16.2089,-1.6126,14.4145,8.7805,-4.3469,-11.4132,-0.2966,-3.9485,1.2485,1628,2019-08-07 16:49:55:723
-16.2089,-1.6126,14.4145,8.7805,-4.3469,-11.4132,-0.4585,-4.6313,1.4136,1634,2019-08-07 16:49:55:729
-16.8835,-1.0206,14.2448,10.018,-5.0974,-10.5292,-0.4585,-4.6313,1.4136,1639,2019-08-07 16:49:55:734
-16.8835,-1.0206,14.2448,10.018,-5.0974,-10.5292,-0.4585,-4.6313,1.4136,1643,2019-08-07 16:49:55:738
-16.8835,-1.0206,14.2448,10.018,-5.0974,-10.5292,-0.6375,-5.1469,1.5436,1649,2019-08-07 16:49:55:744
-16.7161,-0.6196,12.7128,10.018,-5.0974,-10.5292,-0.6375,-5.1469,1.5436,1654,2019-08-07 16:49:55:749
-16.7161,-0.6196,12.7128,10.018,-5.0974,-10.5292,-0.6375,-5.1469,1.5436,1658,2019-08-07 16:49:55:753
-16.63,-0.3284,11.6522,9.8919,-5.4201,-7.654,-0.9315,-5.4196,1.6437,1664,2019-08-07 16:49:55:759
-16.63,-0.3284,11.6522,9.8919,-5.4201,-7.654,-0.9315,-5.4196,1.6437,1669,2019-08-07 16:49:55:764
-16.63,-0.3284,11.6522,9.8919,-5.4201,-7.654,-1.2106,-5.2097,1.7119,1674,2019-08-07 16:49:55:769
-16.7831,-0.3714,11.1337,9.8919,-5.4201,-7.654,-1.2106,-5.2097,1.7119,1679,2019-08-07 16:49:55:774
-16.7831,-0.3714,11.1337,10.3485,-5.2644,-6.4106,-1.4024,-4.9093,1.7758,1684,2019-08-07 16:49:55:779
-16.7831,-0.3714,11.1337,10.3485,-5.2644,-6.4106,-1.4024,-4.9093,1.7758,1689,2019-08-07 16:49:55:784
-17.5725,-0.3714,11.6145,10.3485,-5.2644,-6.4106,-1.4024,-4.9093,1.7758,1693,2019-08-07 16:49:55:788
-17.5725,-0.3714,11.6145,10.3485,-5.2644,-6.4106,-1.6761,-4.676,1.8216,1699,2019-08-07 16:49:55:794
-17.5725,-0.3714,11.6145,13.3314,-5.4885,-7.4301,-1.6761,-4.676,1.8216,1704,2019-08-07 16:49:55:799
-20.1991,0.0678,12.6327,13.3314,-5.4885,-7.4301,-1.9755,-4.7091,1.8813,1708,2019-08-07 16:49:55:803
-20.1991,0.0678,12.6327,13.3314,-5.4885,-7.4301,-2.3292,-5.0734,1.9676,1714,2019-08-07 16:49:55:809
-23.6772,0.8937,12.4819,13.3314,-5.4885,-7.4301,-2.3292,-5.0734,1.9676,1719,2019-08-07 16:49:55:814
-23.6772,0.8937,12.4819,18.3313,-6.5877,-6.509,-2.3292,-5.0734,1.9676,1723,2019-08-07 16:49:55:818
-23.6772,0.8937,12.4819,18.3313,-6.5877,-6.509,-2.8597,-6.1099,2.0538,1729,2019-08-07 16:49:55:824
-25.9928,1.8866,11.0536,20.7412,-7.6439,-4.8325,-2.8597,-6.1099,2.0538,1734,2019-08-07 16:49:55:829
-25.9928,1.8866,11.0536,20.7412,-7.6439,-4.8325,-3.4232,-7.4106,2.2104,1739,2019-08-07 16:49:55:834
-25.9928,1.8866,11.0536,20.7412,-7.6439,-4.8325,-3.4232,-7.4106,2.2104,1744,2019-08-07 16:49:55:839
-27.3324,3.505,7.7209,20.7412,-7.6439,-4.8325,-3.4232,-7.4106,2.2104,1748,2019-08-07 16:49:55:843
-27.3324,3.505,7.7209,21.4163,-9.3716,1.4835,-3.8184,-8.4758,2.4235,1754,2019-08-07 16:49:55:849
-27.3324,3.505,7.7209,21.4163,-9.3716,1.4835,-3.8184,-8.4758,2.4235,1759,2019-08-07 16:49:55:854
-24.8877,3.4047,1.7438,21.4163,-9.3716,1.4835,-4.1795,-9.2599,2.6376,1764,2019-08-07 16:49:55:859
-24.8877,3.4047,1.7438,21.4163,-9.3716,1.4835,-4.1795,-9.2599,2.6376,1769,2019-08-07 16:49:55:864
-24.8877,3.4047,1.7438,17.1686,-8.4369,9.086,-4.6152,-9.5272,2.8102,1774,2019-08-07 16:49:55:869
-20.778,2.364,-3.465,17.1686,-8.4369,9.086,-4.6152,-9.5272,2.8102,1779,2019-08-07 16:49:55:874
-20.778,2.364,-3.465,14.7667,-8.0238,11.9959,-4.8623,-8.969,2.8933,1784,2019-08-07 16:49:55:879
-17.1803,1.7291,-6.0811,14.7667,-8.0238,11.9959,-4.8623,-8.969,2.8933,1789,2019-08-07 16:49:55:884
-17.1803,1.7291,-6.0811,14.7667,-8.0238,11.9959,-4.8623,-8.969,2.8933,1794,2019-08-07 16:49:55:889
-17.1803,1.7291,-6.0811,14.7667,-8.0238,11.9959,-4.9273,-7.6172,2.8049,1798,2019-08-07 16:49:55:893
-15.3288,1.2088,-7.2502,12.0754,-7.6162,14.0188,-4.9273,-7.6172,2.8049,1804,2019-08-07 16:49:55:899
-15.3288,1.2088,-7.2502,12.0754,-7.6162,14.0188,-4.8283,-6.031,2.4842,1809,2019-08-07 16:49:55:904
-16.3144,0.8412,-8.2024,12.0754,-7.6162,14.0188,-4.8283,-6.031,2.4842,1814,2019-08-07 16:49:55:909
-16.3144,0.8412,-8.2024,12.0754,-7.6162,14.0188,-4.7952,-4.9956,2.1891,1819,2019-08-07 16:49:55:914
-16.3144,0.8412,-8.2024,14.7143,-7.7242,15.8687,-4.7952,-4.9956,2.1891,1824,2019-08-07 16:49:55:919
-18.4817,0.8173,-10.6394,14.7143,-7.7242,15.8687,-4.9082,-4.2393,1.8578,1829,2019-08-07 16:49:55:924
-18.4817,0.8173,-10.6394,15.6972,-8.2052,17.7189,-4.9082,-4.2393,1.8578,1833,2019-08-07 16:49:55:928
-18.4817,0.8173,-10.6394,15.6972,-8.2052,17.7189,-5.2469,-3.99,1.3902,1839,2019-08-07 16:49:55:934
-16.2666,1.2804,-13.9579,15.6972,-8.2052,17.7189,-5.2469,-3.99,1.3902,1844,2019-08-07 16:49:55:939
-16.2666,1.2804,-13.9579,15.6972,-8.2052,17.7189,-5.4898,-4.4726,1.0642,1849,2019-08-07 16:49:55:944
-12.7262,1.1515,-16.8098,10.1195,-8.9703,22.1302,-5.4898,-4.4726,1.0642,1854,2019-08-07 16:49:55:949
-12.7262,1.1515,-16.8098,10.1195,-8.9703,22.1302,-5.4898,-4.4726,1.0642,1859,2019-08-07 16:49:55:954
-12.7262,1.1515,-16.8098,10.1195,-8.9703,22.1302,-5.7753,-5.8713,0.5199,1865,2019-08-07 16:49:55:960
-8.6214,0.2874,-16.6731,10.1195,-8.9703,22.1302,-5.7753,-5.8713,0.5199,1869,2019-08-07 16:49:55:964
-8.6214,0.2874,-16.6731,4.6599,-7.6862,20.5702,-5.7817,-7.6172,0.0863,1873,2019-08-07 16:49:55:968
-8.6214,0.2874,-16.6731,4.6599,-7.6862,20.5702,-5.7817,-7.6172,0.0863,1879,2019-08-07 16:49:55:974
-5.9231,-1.7415,-16.7014,3.8469,-6.5468,21.4461,-5.4866,-8.119,-0.114,1884,2019-08-07 16:49:55:979
-5.9231,-1.7415,-16.7014,3.8469,-6.5468,21.4461,-5.4866,-8.119,-0.114,1889,2019-08-07 16:49:55:984
-5.9231,-1.7415,-16.7014,3.8469,-6.5468,21.4461,-5.4866,-8.119,-0.114,1894,2019-08-07 16:49:55:989
-4.0477,-3.7703,-19.8738,3.8469,-6.5468,21.4461,-4.9039,-6.9578,-0.1917,1898,2019-08-07 16:49:55:993
-4.0477,-3.7703,-19.8738,0.3084,-3.6281,25.5019,-4.9039,-6.9578,-0.1917,1904,2019-08-07 16:49:55:999
-0.2634,-6.3339,-22.6738,0.3084,-3.6281,25.5019,-3.8972,-3.8185,-0.261,1908,2019-08-07 16:49:56:003
-0.2634,-6.3339,-22.6738,0.3084,-3.6281,25.5019,-3.8972,-3.8185,-0.261,1914,2019-08-07 16:49:56:009
-0.2634,-6.3339,-22.6738,0.3084,-3.6281,25.5019,-3.0802,-1.2896,-0.3643,1919,2019-08-07 16:49:56:014
2.8225,-8.8926,-22.3862,-4.2691,0.0545,24.8265,-3.0802,-1.2896,-0.3643,1924,2019-08-07 16:49:56:019
2.8225,-8.8926,-22.3862,-4.2691,0.0545,24.8265,-2.3835,0.205,-0.506,1928,2019-08-07 16:49:56:023
2.8225,-8.8926,-22.3862,-4.2691,0.0545,24.8265,-2.3835,0.205,-0.506,1934,2019-08-07 16:49:56:029
4.0664,-11.4514,-19.8408,-4.2691,0.0545,24.8265,-1.6271,0.4319,-0.6391,1938,2019-08-07 16:49:56:033
4.0664,-11.4514,-19.8408,-4.2691,0.0545,24.8265,-1.6271,0.4319,-0.6391,1944,2019-08-07 16:49:56:039
2.9803,-12.8263,-16.0414,-4.2196,3.2627,19.1944,-0.891,0.042,-0.6413,1949,2019-08-07 16:49:56:044
2.9803,-12.8263,-16.0414,-4.2196,3.2627,19.1944,-0.891,0.042,-0.6413,1954,2019-08-07 16:49:56:049
2.9803,-12.8263,-16.0414,-4.2196,3.2627,19.1944,-0.891,0.042,-0.6413,1959,2019-08-07 16:49:56:054
1.7986,-12.6783,-12.2091,-2.6304,2.9167,13.311,0.1178,-0.2445,-0.5337,1964,2019-08-07 16:49:56:059
1.7986,-12.6783,-12.2091,-2.6304,2.9167,13.311,0.1178,-0.2445,-0.5337,1969,2019-08-07 16:49:56:064
1.7986,-12.6783,-12.2091,-2.6304,2.9167,13.311,1.64,-0.2722,-0.3377,1974,2019-08-07 16:49:56:069
2.5832,-11.9479,-10.498,-2.6304,2.9167,13.311,1.64,-0.2722,-0.3377,1979,2019-08-07 16:49:56:074
2.5832,-11.9479,-10.498,-3.9843,1.666,13.6369,2.4677,-0.1487,-0.2578,1984,2019-08-07 16:49:56:079
3.3869,-10.8165,-11.3229,-3.9843,1.666,13.6369,2.4677,-0.1487,-0.2578,1990,2019-08-07 16:49:56:085
3.3869,-10.8165,-11.3229,-3.9843,1.666,13.6369,3.3349,0.2455,-0.1683,1994,2019-08-07 16:49:56:089
3.497,-8.9833,-11.1485,-3.9843,1.666,13.6369,3.3349,0.2455,-0.1683,1999,2019-08-07 16:49:56:094
3.497,-8.9833,-11.1485,-3.9843,1.666,13.6369,3.3349,0.2455,-0.1683,2004,2019-08-07 16:49:56:099
3.497,-8.9833,-11.1485,-4.8495,-1.2785,15.1852,3.6108,2.2471,-0.0415,2008,2019-08-07 16:49:56:103
4.2816,-7.26,-9.7532,-4.8495,-1.2785,15.1852,3.6108,2.2471,-0.0415,2014,2019-08-07 16:49:56:109
4.2816,-7.26,-9.7532,-5.0889,-3.0258,13.7043,2.7767,2.6061,0.0788,2019,2019-08-07 16:49:56:114
4.2816,-7.26,-9.7532,-5.0889,-3.0258,13.7043,2.7767,2.6061,0.0788,2024,2019-08-07 16:49:56:119
2.5497,-5.4507,-12.6428,-5.0889,-3.0258,13.7043,1.7551,2.7116,0.1183,2029,2019-08-07 16:49:56:124
2.5497,-5.4507,-12.6428,-5.0889,-3.0258,13.7043,1.7551,2.7116,0.1183,2034,2019-08-07 16:49:56:129
2.5497,-5.4507,-12.6428,-0.6454,-4.1626,14.6931,1.297,5.0765,0.2035,2038,2019-08-07 16:49:56:133
-1.5792,-5.064,-6.0859,-0.6454,-4.1626,14.6931,1.297,5.0765,0.2035,2044,2019-08-07 16:49:56:139
-1.5792,-5.064,-6.0859,-0.6454,-4.1626,14.6931,1.9585,5.5164,0.4506,2049,2019-08-07 16:49:56:144
-3.4211,-7.2027,-5.8219,-0.6454,-4.1626,14.6931,1.9585,5.5164,0.4506,2053,2019-08-07 16:49:56:148
-3.4211,-7.2027,-5.8219,3.1012,-1.6657,9.821,1.9585,5.5164,0.4506,2059,2019-08-07 16:49:56:154
-3.4211,-7.2027,-5.8219,3.1012,-1.6657,9.821,2.6009,5.8285,0.5891,2063,2019-08-07 16:49:56:158
-6.0716,-7.1931,-4.4361,3.1012,-1.6657,9.821,2.6009,5.8285,0.5891,2069,2019-08-07 16:49:56:164
-6.0716,-7.1931,-4.4361,3.1012,-1.6657,9.821,3.1388,6.0299,0.4048,2074,2019-08-07 16:49:56:169
-7.9374,-5.804,-4.4926,5.465,-2.5599,8.1789,3.1388,6.0299,0.4048,2080,2019-08-07 16:49:56:175
-7.9374,-5.804,-4.4926,5.465,-2.5599,8.1789,3.1388,6.0299,0.4048,2083,2019-08-07 16:49:56:178
-7.9374,-5.804,-4.4926,5.465,-2.5599,8.1789,3.1399,5.4781,0.2163,2089,2019-08-07 16:49:56:184
-7.9374,-5.804,-4.4926,5.465,-2.5599,8.1789,3.1399,5.4781,0.2163,2094,2019-08-07 16:49:56:189
-10.2195,-3.9422,-4.5634,7.874,-4.6994,8.5293,2.8033,4.5875,0.196,2099,2019-08-07 16:49:56:194
-10.2195,-3.9422,-4.5634,7.874,-4.6994,8.5293,2.8033,4.5875,0.196,2104,2019-08-07 16:49:56:199
-10.2195,-3.9422,-4.5634,7.874,-4.6994,8.5293,2.2515,3.7864,0.2184,2109,2019-08-07 16:49:56:204
-10.2865,-4.5389,-4.5351,7.874,-4.6994,8.5293,2.2515,3.7864,0.2184,2114,2019-08-07 16:49:56:209
-10.2865,-4.5389,-4.5351,6.5058,-3.2427,6.3429,2.0363,4.7675,0.0703,2119,2019-08-07 16:49:56:214
-9.1383,-5.8469,-1.7304,6.5058,-3.2427,6.3429,2.0363,4.7675,0.0703,2123,2019-08-07 16:49:56:218
-9.1383,-5.8469,-1.7304,6.5058,-3.2427,6.3429,2.1482,5.1627,-0.115,2129,2019-08-07 16:49:56:224
-9.1383,-5.8469,-1.7304,6.5058,-3.2427,6.3429,2.1482,5.1627,-0.115,2134,2019-08-07 16:49:56:229
-9.7172,-6.6537,-4.9593,6.2442,-1.4668,9.2292,1.9468,6.245,-0.2365,2139,2019-08-07 16:49:56:234
-9.7172,-6.6537,-4.9593,6.2442,-1.4668,9.2292,1.9468,6.245,-0.2365,2144,2019-08-07 16:49:56:239
-9.7172,-6.6537,-4.9593,6.2442,-1.4668,9.2292,1.7956,6.8895,-0.3323,2149,2019-08-07 16:49:56:244
-10.3057,-6.8112,-5.5156,6.362,-1.1534,9.7034,1.7956,6.8895,-0.3323,2154,2019-08-07 16:49:56:249
-10.3057,-6.8112,-5.5156,6.362,-1.1534,9.7034,1.7956,6.8895,-0.3323,2159,2019-08-07 16:49:56:254
-12.0281,-6.6155,-3.8092,6.362,-1.1534,9.7034,1.9202,7.9985,-0.4186,2164,2019-08-07 16:49:56:259
-12.0281,-6.6155,-3.8092,9.0016,-1.1083,6.9948,1.9202,7.9985,-0.4186,2168,2019-08-07 16:49:56:263
-12.0281,-6.6155,-3.8092,9.0016,-1.1083,6.9948,2.1993,8.7697,-0.3323,2174,2019-08-07 16:49:56:269
-15.2814,-7.1788,-1.6502,9.0016,-1.1083,6.9948,2.1993,8.7697,-0.3323,2179,2019-08-07 16:49:56:274
-15.2814,-7.1788,-1.6502,9.0016,-1.1083,6.9948,2.292,8.807,-0.2567,2184,2019-08-07 16:49:56:279
-15.2814,-7.1788,-1.6502,13.6014,-0.8456,1.7767,2.292,8.807,-0.2567,2189,2019-08-07 16:49:56:284
-19.1566,-6.8017,2.0784,13.6014,-0.8456,1.7767,2.3154,8.1412,-0.1566,2194,2019-08-07 16:49:56:289
-19.1566,-6.8017,2.0784,13.6014,-0.8456,1.7767,2.3154,8.1412,-0.1566,2199,2019-08-07 16:49:56:294
-20.3144,-6.3291,3.5821,13.6014,-0.8456,1.7767,2.3154,8.1412,-0.1566,2204,2019-08-07 16:49:56:299
-20.3144,-6.3291,3.5821,14.5057,-1.4394,-0.5138,2.3314,6.7883,-0.0884,2209,2019-08-07 16:49:56:304
-20.3144,-6.3291,3.5821,14.5057,-1.4394,-0.5138,2.3314,6.7883,-0.0884,2214,2019-08-07 16:49:56:309
-18.4964,-6.0808,2.7195,14.5057,-1.4394,-0.5138,2.3016,5.6283,-0.1417,2219,2019-08-07 16:49:56:314
-18.4964,-6.0808,2.7195,14.5057,-1.4394,-0.5138,2.3016,5.6283,-0.1417,2223,2019-08-07 16:49:56:318
-16.2095,-5.8326,0.8528,10.4098,-1.66,1.6888,2.2163,4.6461,-0.1821,2229,2019-08-07 16:49:56:324
-16.2095,-5.8326,0.8528,10.4098,-1.66,1.6888,2.2163,4.6461,-0.1821,2234,2019-08-07 16:49:56:329
-16.2095,-5.8326,0.8528,10.4098,-1.66,1.6888,2.1886,5.493,-0.0607,2239,2019-08-07 16:49:56:334
-13.5782,-5.6512,1.1686,10.4098,-1.66,1.6888,2.1886,5.493,-0.0607,2244,2019-08-07 16:49:56:339
-13.5782,-5.6512,1.1686,10.4098,-1.66,1.6888,2.1886,5.493,-0.0607,2249,2019-08-07 16:49:56:344
-14.5638,-5.1117,1.7013,7.4909,-1.9517,0.4791,2.26,5.8434,-0.0128,2254,2019-08-07 16:49:56:349
-14.5638,-5.1117,1.7013,7.4909,-1.9517,0.4791,2.26,5.8434,-0.0128,2258,2019-08-07 16:49:56:353
-14.5638,-5.1117,1.7013,7.4909,-1.9517,0.4791,2.2121,6.5849,0.0117,2264,2019-08-07 16:49:56:359
-17.4726,-4.5102,4.3646,11.5535,-2.7537,-3.106,2.2121,6.5849,0.0117,2269,2019-08-07 16:49:56:364
-17.4726,-4.5102,4.3646,11.5535,-2.7537,-3.106,1.9447,6.2823,-0.0277,2273,2019-08-07 16:49:56:368
-19.0084,-4.515,6.3255,11.5535,-2.7537,-3.106,1.9447,6.2823,-0.0277,2279,2019-08-07 16:49:56:374
-19.0084,-4.515,6.3255,11.5535,-2.7537,-3.106,1.9447,6.2823,-0.0277,2284,2019-08-07 16:49:56:379
-19.0084,-4.515,6.3255,11.5535,-2.7537,-3.106,1.8456,5.5803,-0.1459,2288,2019-08-07 16:49:56:383
-18.707,-4.6821,5.84,12.5306,-2.5359,-4.9865,1.8137,4.873,-0.2525,2294,2019-08-07 16:49:56:389
-18.707,-4.6821,5.84,12.5306,-2.5359,-4.9865,1.8137,4.873,-0.2525,2299,2019-08-07 16:49:56:394
-18.707,-4.6821,5.84,12.5306,-2.5359,-4.9865,1.8137,4.873,-0.2525,2304,2019-08-07 16:49:56:399
-16.3101,-4.8874,4.2278,12.5306,-2.5359,-4.9865,1.8105,4.432,-0.3174,2309,2019-08-07 16:49:56:404
-16.3101,-4.8874,4.2278,9.1176,-2.2944,-3.1188,1.8105,4.5033,-0.3739,2314,2019-08-07 16:49:56:409
-14.1572,-4.6582,3.205,9.1176,-2.2944,-3.1188,1.9159,4.5033,-0.3739,2319,2019-08-07 16:49:56:414
-14.1572,-4.6582,3.205,9.1176,-2.2944,-3.1188,1.9159,4.5033,-0.3739,2324,2019-08-07 16:49:56:419
-14.1572,-4.6582,3.205,9.1176,-2.2944,-3.1188,2.0576,4.8506,-0.3803,2329,2019-08-07 16:49:56:424
-13.7171,-3.8562,3.5491,6.9885,-3.0621,-2.4901,2.0576,4.8506,-0.3803,2334,2019-08-07 16:49:56:429
-13.7171,-3.8562,3.5491,6.9885,-3.0621,-2.4901,2.162,5.2384,-0.3089,2339,2019-08-07 16:49:56:434
-13.7171,-3.8562,3.5491,6.9885,-3.0621,-2.4901,2.227,5.3311,-0.2226,2344,2019-08-07 16:49:56:439
-15.5399,-2.8871,7.2588,6.9885,-3.0621,-2.4901,2.227,5.3311,-0.2226,2349,2019-08-07 16:49:56:444
-15.5399,-2.8871,7.2588,9.941,-4.5458,-8.4997,2.227,5.3311,-0.2226,2354,2019-08-07 16:49:56:449
-18.0325,-2.362,10.2662,9.941,-4.5458,-8.4997,2.1418,4.7207,-0.1044,2359,2019-08-07 16:49:56:454
-18.0325,-2.362,10.2662,11.559,-4.7459,-10.7605,2.1418,4.7207,-0.1044,2363,2019-08-07 16:49:56:458
-18.0325,-2.362,10.2662,11.559,-4.7459,-10.7605,1.9458,3.8184,-0.0831,2369,2019-08-07 16:49:56:464
-18.4631,-2.6962,11.8171,11.559,-4.7459,-10.7605,1.9458,3.8184,-0.0831,2374,2019-08-07 16:49:56:469
-18.4631,-2.6962,11.8171,11.559,-4.7459,-10.7605,1.6464,1.8668,-0.0991,2379,2019-08-07 16:49:56:474
-15.9992,-3.7416,11.4447,9.9793,-3.643,-11.6641,1.6464,1.8668,-0.0991,2384,2019-08-07 16:49:56:479
-15.9992,-3.7416,11.4447,9.9793,-3.643,-11.6641,1.5708,0.596,-0.1076,2389,2019-08-07 16:49:56:484
-15.9992,-3.7416,11.4447,9.9793,-3.643,-11.6641,1.5708,0.596,-0.1076,2394,2019-08-07 16:49:56:489
-11.9039,-4.7489,9.1161,9.9793,-3.643,-11.6641,1.5942,-0.1018,-0.1353,2399,2019-08-07 16:49:56:494
-11.9039,-4.7489,9.1161,3.6603,-2.1905,-8.0039,1.5942,-0.1018,-0.1353,2404,2019-08-07 16:49:56:499
-11.9039,-4.7489,9.1161,3.6603,-2.1905,-8.0039,1.6017,-0.3319,-0.1662,2409,2019-08-07 16:49:56:504
-8.1531,-4.9972,6.6083,3.6603,-2.1905,-8.0039,1.6017,-0.3319,-0.1662,2414,2019-08-07 16:49:56:509
-8.1531,-4.9972,6.6083,3.6603,-2.1905,-8.0039,1.5804,-0.0102,-0.1758,2418,2019-08-07 16:49:56:513
-8.1531,-4.9972,6.6083,0.3499,-2.3905,-4.9666,1.5804,-0.0102,-0.1758,2424,2019-08-07 16:49:56:519
-6.9379,-4.4864,4.9208,0.3499,-2.3905,-4.9666,1.5228,0.3456,-0.147,2429,2019-08-07 16:49:56:524
-6.9379,-4.4864,4.9208,0.1581,-2.749,-3.9902,1.5228,0.3456,-0.147,2434,2019-08-07 16:49:56:529
-6.9379,-4.4864,4.9208,0.1581,-2.749,-3.9902,1.346,0.8378,-0.0841,2439,2019-08-07 16:49:56:534
-7.7034,-4.0997,4.4965,0.1581,-2.749,-3.9902,1.346,0.8378,-0.0841,2444,2019-08-07 16:49:56:539
-7.7034,-4.0997,4.4965,0.1581,-2.749,-3.9902,1.1756,0.9304,-0.0224,2449,2019-08-07 16:49:56:544
-8.8086,-3.818,4.7558,1.8751,-3.2115,-4.0313,1.1756,0.9304,-0.0224,2454,2019-08-07 16:49:56:549
-8.8086,-3.818,4.7558,1.8751,-3.2115,-4.0313,1.1756,0.9304,-0.0224,2458,2019-08-07 16:49:56:553
-8.8086,-3.818,4.7558,1.8751,-3.2115,-4.0313,0.9849,0.695,0.0543,2464,2019-08-07 16:49:56:559
-9.1817,-4.0042,4.3739,1.8751,-3.2115,-4.0313,0.9849,0.695,0.0543,2469,2019-08-07 16:49:56:564
-9.1817,-4.0042,4.3739,2.2744,-2.8058,-3.2615,0.7122,0.1858,0.1161,2473,2019-08-07 16:49:56:568
-8.7177,-4.5866,3.549,2.2744,-2.8058,-3.2615,0.7122,0.1858,0.1161,2479,2019-08-07 16:49:56:574
-8.7177,-4.5866,3.549,2.2744,-2.8058,-3.2615,0.5076,-0.2499,0.1406,2484,2019-08-07 16:49:56:579
-8.7177,-4.5866,3.549,2.2744,-2.8058,-3.2615,0.5076,-0.2499,0.1406,2489,2019-08-07 16:49:56:584
-7.4403,-5.3456,2.611,0.6089,-1.6361,-1.7032,0.3468,-0.5801,0.1555,2494,2019-08-07 16:49:56:589
-7.4403,-5.3456,2.611,0.6089,-1.6361,-1.7032,0.3468,-0.5801,0.1555,2499,2019-08-07 16:49:56:594
-7.4403,-5.3456,2.611,0.6089,-1.6361,-1.7032,0.3468,-0.5801,0.1555,2504,2019-08-07 16:49:56:599
-6.2347,-5.971,1.5127,0.6089,-1.6361,-1.7032,0.204,-0.6898,0.1513,2509,2019-08-07 16:49:56:604
-6.2347,-5.971,1.5127,-1.172,-0.6665,0.1026,0.204,-0.6898,0.1513,2514,2019-08-07 16:49:56:609
-5.5649,-6.3338,0.782,-1.172,-0.6665,0.1026,0.1167,-0.5503,0.1555,2518,2019-08-07 16:49:56:613
-5.5649,-6.3338,0.782,-1.172,-0.6665,0.1026,0.1167,-0.5503,0.1555,2524,2019-08-07 16:49:56:619
-5.3066,-6.5916,0.3955,-1.172,-0.6665,0.1026,0.0411,-0.2413,0.1481,2528,2019-08-07 16:49:56:623
-5.3066,-6.5916,0.3955,-1.3907,-0.3243,0.6408,0.0411,-0.2413,0.1481,2534,2019-08-07 16:49:56:629
-5.3066,-6.5916,0.3955,-1.3907,-0.3243,0.6408,0.0411,-0.2413,0.1481,2539,2019-08-07 16:49:56:634
-5.8376,-6.563,0.5086,-1.3907,-0.3243,0.6408,0.007,0.025,0.131,2543,2019-08-07 16:49:56:638
-5.8376,-6.563,0.5086,-1.3907,-0.3243,0.6408,0.0027,0.0953,0.1193,2549,2019-08-07 16:49:56:644
-5.8376,-6.563,0.5086,-0.5266,-0.5909,0.3704,0.0027,0.0953,0.1193,2554,2019-08-07 16:49:56:649
-6.4979,-6.224,0.7302,-0.5266,-0.5909,0.3704,0.0027,0.0953,0.1193,2559,2019-08-07 16:49:56:654
-6.4979,-6.224,0.7302,-0.5266,-0.5909,0.3704,-0.0197,0.1208,0.1001,2564,2019-08-07 16:49:56:659
-6.4979,-6.224,0.7302,-0.5266,-0.5909,0.3704,-0.0197,0.1208,0.1001,2569,2019-08-07 16:49:56:664
-6.6079,-6.2049,0.6453,-0.3008,-0.681,0.4393,-0.0388,0.075,0.0938,2574,2019-08-07 16:49:56:669
-6.6079,-6.2049,0.6453,-0.3008,-0.681,0.4393,-0.0388,0.075,0.0938,2579,2019-08-07 16:49:56:674
-6.4405,-6.4532,0.6123,-0.3008,-0.681,0.4393,-0.0399,0.0655,0.0874,2584,2019-08-07 16:49:56:679
-6.4405,-6.4532,0.6123,-0.3008,-0.681,0.4393,-0.0399,0.0655,0.0874,2589,2019-08-07 16:49:56:684
-6.4405,-6.4532,0.6123,-0.4583,-0.2593,0.3931,-0.009,0.1166,0.0852,2594,2019-08-07 16:49:56:689
-6.4405,-6.7109,0.5699,-0.4583,-0.2593,0.3931,-0.009,0.1166,0.0852,2599,2019-08-07 16:49:56:694
-6.4405,-6.7109,0.5699,-0.4583,-0.2593,0.3931,-0.009,0.1166,0.0852,2604,2019-08-07 16:49:56:699
-6.4405,-6.7109,0.5699,-0.4583,-0.2593,0.3931,0.0357,0.238,0.081,2608,2019-08-07 16:49:56:703
-6.4883,-6.878,0.4897,-0.4583,-0.2593,0.3931,0.0357,0.238,0.081,2614,2019-08-07 16:49:56:709
-6.4883,-6.878,0.4897,-0.358,0.0468,0.4581,0.073,0.335,0.0693,2619,2019-08-07 16:49:56:714
-6.7515,-6.921,0.8386,-0.358,0.0468,0.4581,0.073,0.335,0.0693,2623,2019-08-07 16:49:56:718
-6.7515,-6.921,0.8386,-0.358,0.0468,0.4581,0.073,0.335,0.0693,2629,2019-08-07 16:49:56:724
-6.7515,-6.921,0.8386,0.1336,0.0189,0.03,0.1124,0.3499,0.0639,2634,2019-08-07 16:49:56:729
-7.1438,-6.8446,0.9517,0.1336,0.0189,0.03,0.1124,0.3499,0.0639,2638,2019-08-07 16:49:56:733
-7.1438,-6.8446,0.9517,0.1336,0.0189,0.03,0.1444,0.2966,0.0682,2644,2019-08-07 16:49:56:739
-7.4357,-6.7157,1.2487,0.1336,0.0189,0.03,0.1444,0.2966,0.0682,2649,2019-08-07 16:49:56:744
-7.4357,-6.7157,1.2487,0.6237,-0.1907,-0.4679,0.1465,0.1794,0.0714,2653,2019-08-07 16:49:56:748
-7.4357,-6.7157,1.2487,0.6237,-0.1907,-0.4679,0.1465,0.1794,0.0714,2659,2019-08-07 16:49:56:754
-7.5409,-6.5582,1.4938,0.6237,-0.1907,-0.4679,0.1348,0.0111,0.081,2663,2019-08-07 16:49:56:758
-7.5409,-6.5582,1.4938,0.5827,-0.2682,-0.4994,0.1348,0.0111,0.081,2668,2019-08-07 16:49:56:763
-7.1917,-6.6059,1.2345,0.5827,-0.2682,-0.4994,0.106,-0.1444,0.0991,2674,2019-08-07 16:49:56:769
-7.1917,-6.6059,1.2345,0.5827,-0.2682,-0.4994,0.106,-0.1444,0.0991,2679,2019-08-07 16:49:56:774
-7.1917,-6.6059,1.2345,-0.0375,-0.1931,0.0102,0.106,-0.1444,0.0991,2684,2019-08-07 16:49:56:779
-7.1917,-6.6059,1.2345,-0.0375,-0.1931,0.0102,0.0752,-0.1551,0.0906,2689,2019-08-07 16:49:56:784
-6.8138,-6.6345,0.9752,-0.0375,-0.1931,0.0102,0.0752,-0.1551,0.0906,2694,2019-08-07 16:49:56:789
-6.8138,-6.6345,0.9752,-0.2288,-0.1527,0.2185,0.0645,-0.1274,0.0831,2699,2019-08-07 16:49:56:794
-6.5793,-6.7157,0.7066,-0.2288,-0.1527,0.2185,0.0645,-0.1274,0.0831,2704,2019-08-07 16:49:56:799
-6.5793,-6.7157,0.7066,-0.2288,-0.1527,0.2185,0.0261,0.042,0.0479,2708,2019-08-07 16:49:56:803
-6.5793,-6.7157,0.7066,-0.2288,-0.1527,0.2185,0.0261,0.042,0.0479,2714,2019-08-07 16:49:56:809
-6.4922,-6.816,0.5889,-0.4849,-0.0025,0.4424,0.0059,0.2029,0.0139,2719,2019-08-07 16:49:56:814
-6.4922,-6.816,0.5889,-0.4849,-0.0025,0.4424,0.0059,0.2029,0.0139,2723,2019-08-07 16:49:56:818
-6.6836,-6.8208,0.7209,-0.2957,0.002,0.2937,0.0059,0.2029,0.0139,2729,2019-08-07 16:49:56:824
-6.6836,-6.8208,0.7209,-0.2957,0.002,0.2937,0.008,0.3925,-0.0266,2734,2019-08-07 16:49:56:829
-6.6836,-6.8208,0.7209,-0.2957,0.002,0.2937,0.008,0.3925,-0.0266,2738,2019-08-07 16:49:56:833
-7.0903,-6.6919,0.9283,-0.2957,0.002,0.2937,0.008,0.3925,-0.0266,2744,2019-08-07 16:49:56:839
-7.0903,-6.6919,0.9283,0.3369,-0.2365,-0.1368,0.0048,0.4575,-0.0554,2748,2019-08-07 16:49:56:843
-7.4969,-6.5774,1.2017,0.3369,-0.2365,-0.1368,0.0048,0.4575,-0.0554,2754,2019-08-07 16:49:56:849
-7.4969,-6.5774,1.2017,0.3369,-0.2365,-0.1368,0.0123,0.3786,-0.0671,2758,2019-08-07 16:49:56:853
-7.4969,-6.5774,1.2017,0.3369,-0.2365,-0.1368,0.0123,0.3786,-0.0671,2764,2019-08-07 16:49:56:859
-7.7218,-6.4771,1.5552,0.8428,-0.3183,-0.6706,0.0261,0.2519,-0.0714,2769,2019-08-07 16:49:56:864
-7.7218,-6.4771,1.5552,0.8428,-0.3183,-0.6706,0.0261,0.2519,-0.0714,2773,2019-08-07 16:49:56:868
-7.8079,-6.4294,1.56,0.8428,-0.3183,-0.6706,0.04,-0.0155,-0.0575,2779,2019-08-07 16:49:56:874
-7.8079,-6.4294,1.56,0.8428,-0.3183,-0.6706,0.04,-0.0155,-0.0575,2784,2019-08-07 16:49:56:879
-7.8079,-6.4294,1.56,0.6407,-0.3876,-0.5444,0.0336,-0.2754,-0.0447,2789,2019-08-07 16:49:56:884
-7.4252,-6.3625,1.4138,0.6407,-0.3876,-0.5444,0.0336,-0.2754,-0.0447,2794,2019-08-07 16:49:56:889
-7.4252,-6.3625,1.4138,0.6407,-0.3876,-0.5444,0.0336,-0.4171,-0.0319,2798,2019-08-07 16:49:56:893
-6.8702,-6.3243,1.0414,0.6407,-0.3876,-0.5444,0.0336,-0.4171,-0.0319,2804,2019-08-07 16:49:56:899
-6.8702,-6.3243,1.0414,-0.1824,-0.4751,0.0179,0.0325,-0.4416,-0.017,2809,2019-08-07 16:49:56:904
-6.8702,-6.3243,1.0414,-0.1824,-0.4751,0.0179,0.0325,-0.4416,-0.017,2814,2019-08-07 16:49:56:909
-6.454,-6.4437,0.6879,-0.1824,-0.4751,0.0179,0.0325,-0.4416,-0.017,2818,2019-08-07 16:49:56:913
-6.454,-6.4437,0.6879,-0.1824,-0.4751,0.0179,0.024,-0.3276,-0.0234,2824,2019-08-07 16:49:56:919
-6.1669,-6.4723,0.6455,-0.7928,-0.364,0.3853,0.024,-0.3276,-0.0234,2829,2019-08-07 16:49:56:924
-6.1669,-6.4723,0.6455,-0.7928,-0.364,0.3853,0.0219,-0.2136,-0.0373,2834,2019-08-07 16:49:56:929
-6.1669,-6.4723,0.6455,-0.7928,-0.364,0.3853,0.0219,-0.2136,-0.0373,2838,2019-08-07 16:49:56:933
-6.1813,-6.3721,0.6502,-0.7928,-0.364,0.3853,0.0219,-0.2136,-0.0373,2844,2019-08-07 16:49:56:939
-6.1813,-6.3721,0.6502,-0.7019,-0.4428,0.4403,0.0283,0.0165,-0.0458,2849,2019-08-07 16:49:56:944
-6.3966,-6.415,0.5795,-0.7019,-0.4428,0.4403,0.0283,0.0165,-0.0458,2853,2019-08-07 16:49:56:948
-6.3966,-6.415,0.5795,-0.7019,-0.4428,0.4403,0.0176,0.1698,-0.0373,2859,2019-08-07 16:49:56:954
-6.3966,-6.415,0.5795,-0.7019,-0.4428,0.4403,0.0176,0.1698,-0.0373,2864,2019-08-07 16:49:56:959
-6.6166,-6.4437,0.7209,-0.3313,-0.4053,0.3059,0.007,0.2242,-0.0266,2869,2019-08-07 16:49:56:964
-6.6166,-6.4437,0.7209,-0.3313,-0.4053,0.3059,0.007,0.2242,-0.0266,2874,2019-08-07 16:49:56:969
-6.6166,-6.4437,0.7209,-0.3313,-0.4053,0.3059,0.007,0.2178,-0.0202,2878,2019-08-07 16:49:56:973
-6.8271,-6.3482,0.9095,-0.3313,-0.4053,0.3059,0.007,0.2178,-0.0202,2884,2019-08-07 16:49:56:979
-6.8271,-6.3482,0.9095,-0.138,-0.5833,0.1115,0.007,0.2178,-0.0202,2889,2019-08-07 16:49:56:984
-6.8271,-6.3482,0.9095,-0.138,-0.5833,0.1115,0.0091,0.1517,-0.0032,2894,2019-08-07 16:49:56:989
-6.7841,-6.2671,0.8482,-0.2265,-0.5967,0.0921,0.0102,0.124,0.0117,2899,2019-08-07 16:49:56:994
-6.7841,-6.2671,0.8482,-0.2265,-0.5967,0.0921,0.0102,0.124,0.0117,2904,2019-08-07 16:49:56:999
-6.7554,-6.205,0.9236,-0.2265,-0.5967,0.0921,0.0102,0.124,0.0117,2908,2019-08-07 16:49:57:003
-6.7554,-6.205,0.9236,-0.2265,-0.5967,0.0921,0.0208,0.1038,0.0298,2914,2019-08-07 16:49:57:009
-6.7554,-6.205,0.9236,0.0479,-0.6479,0.084,0.0208,0.1038,0.0298,2919,2019-08-07 16:49:57:014
-6.9802,-6.162,0.9424,0.0479,-0.6479,0.084,0.0272,0.0431,0.0362,2924,2019-08-07 16:49:57:019
-6.9802,-6.162,0.9424,0.1342,-0.6052,0.0635,0.0272,0.0431,0.0362,2929,2019-08-07 16:49:57:024
-7.0424,-6.2432,0.9283,0.1342,-0.6052,0.0635,0.0261,-0.0294,0.0426,2934,2019-08-07 16:49:57:029
-7.0424,-6.2432,0.9283,0.1342,-0.6052,0.0635,0.0261,-0.0294,0.0426,2939,2019-08-07 16:49:57:034
-6.9515,-6.353,0.8293,0.1342,-0.6052,0.0635,0.0251,-0.0858,0.0405,2944,2019-08-07 16:49:57:039
-6.9515,-6.353,0.8293,-0.1026,-0.544,0.2291,0.0251,-0.0858,0.0405,2949,2019-08-07 16:49:57:044
-6.9515,-6.353,0.8293,-0.1026,-0.544,0.2291,0.0251,-0.0858,0.0405,2954,2019-08-07 16:49:57:049
-6.9515,-6.353,0.8293,-0.1026,-0.544,0.2291,0.0368,-0.0847,0.0341,2959,2019-08-07 16:49:57:054
-6.7267,-6.3243,0.6879,-0.1026,-0.544,0.2291,0.0368,-0.0847,0.0341,2964,2019-08-07 16:49:57:059
-6.7267,-6.3243,0.6879,-0.3078,-0.4468,0.3136,0.0432,-0.0453,0.0277,2969,2019-08-07 16:49:57:064
-6.6549,-6.3434,0.702,-0.3078,-0.4468,0.3136,0.0432,-0.0453,0.0277,2973,2019-08-07 16:49:57:068
-6.6549,-6.3434,0.702,-0.3078,-0.4468,0.3136,0.0368,0.0111,0.0181,2979,2019-08-07 16:49:57:074
-6.6549,-6.3434,0.702,-0.3078,-0.4468,0.3136,0.0368,0.0111,0.0181,2984,2019-08-07 16:49:57:079
-6.7649,-6.2671,0.7445,-0.2255,-0.5478,0.258,0.0336,0.0612,0.0085,2989,2019-08-07 16:49:57:084
-6.7649,-6.2671,0.7445,-0.2255,-0.5478,0.258,0.0336,0.0612,0.0085,2994,2019-08-07 16:49:57:089
-6.7649,-6.2671,0.7445,-0.2255,-0.5478,0.258,0.0336,0.0612,0.0085,2999,2019-08-07 16:49:57:094
-6.7793,-6.2814,0.7633,-0.2255,-0.5478,0.258,0.0336,0.0878,0.0096,3004,2019-08-07 16:49:57:099
-6.7793,-6.2814,0.7633,-0.2255,-0.5478,0.258,0.0336,0.0878,0.0096,3009,2019-08-07 16:49:57:104
-6.9946,-6.2289,0.9095,-0.0341,-0.5537,0.0709,0.0304,0.0857,0.0075,3014,2019-08-07 16:49:57:109
-6.9946,-6.2289,0.9095,-0.0341,-0.5537,0.0709,0.0304,0.0857,0.0075,3019,2019-08-07 16:49:57:114
-6.9946,-6.2289,0.9095,-0.0318,-0.5706,-0.0685,0.0336,0.0686,0.0117,3024,2019-08-07 16:49:57:119
-7.0137,-6.2241,0.9943,-0.0318,-0.5706,-0.0685,0.0336,0.0686,0.0117,3028,2019-08-07 16:49:57:123
-7.0137,-6.2241,0.9943,-0.0318,-0.5706,-0.0685,0.0166,-0.0389,0.0213,3034,2019-08-07 16:49:57:129
-6.9515,-6.3052,0.867,-0.0414,-0.5031,0.1239,0.0166,-0.0389,0.0213,3039,2019-08-07 16:49:57:134
-6.9515,-6.3052,0.867,-0.0414,-0.5031,0.1239,0.0155,-0.0645,0.0245,3044,2019-08-07 16:49:57:139
-6.9515,-6.3052,0.867,-0.0414,-0.5031,0.1239,0.0155,-0.0645,0.0245,3049,2019-08-07 16:49:57:144
-6.9515,-6.3005,0.9849,-0.0414,-0.5031,0.1239,0.0155,-0.0645,0.0245,3053,2019-08-07 16:49:57:148
-6.9515,-6.3005,0.9849,-0.0414,-0.5031,0.1239,0.0102,-0.0943,0.0224,3059,2019-08-07 16:49:57:154
-6.9515,-6.3005,0.9849,-0.1214,-0.4738,0.0561,0.0102,-0.0943,0.0224,3064,2019-08-07 16:49:57:159
-6.7554,-6.415,0.9519,-0.1214,-0.4738,0.0561,0.0016,-0.1039,0.0171,3068,2019-08-07 16:49:57:163
-6.7554,-6.415,0.9519,-0.1214,-0.4738,0.0561,-0.0058,-0.0975,0.0181,3074,2019-08-07 16:49:57:169
-6.6645,-6.5678,0.7492,-0.1214,-0.4738,0.0561,-0.0058,-0.0975,0.0181,3079,2019-08-07 16:49:57:174
-6.6645,-6.5678,0.7492,-0.3324,-0.2231,0.2251,-0.0111,-0.056,0.0149,3084,2019-08-07 16:49:57:179
-6.6645,-6.5678,0.7492,-0.3324,-0.2231,0.2251,-0.0111,-0.056,0.0149,3088,2019-08-07 16:49:57:183
-6.6214,-6.6681,0.702,-0.3324,-0.2231,0.2251,-0.0111,-0.056,0.0149,3094,2019-08-07 16:49:57:189
-6.6214,-6.6681,0.702,-0.3324,-0.2231,0.2251,-0.0037,-0.0123,0.0075,3099,2019-08-07 16:49:57:194
-6.6214,-6.6681,0.702,-0.3806,-0.1269,0.2795,-0.0037,-0.0123,0.0075,3103,2019-08-07 16:49:57:198
-6.6501,-6.6442,0.7727,-0.3806,-0.1269,0.2795,0.008,0.058,-0.0117,3109,2019-08-07 16:49:57:204
-6.6501,-6.6442,0.7727,-0.3806,-0.1269,0.2795,0.008,0.058,-0.0117,3114,2019-08-07 16:49:57:209
-6.7793,-6.606,0.867,-0.3806,-0.1269,0.2795,0.0027,0.0793,-0.0096,3119,2019-08-07 16:49:57:214
-6.7793,-6.606,0.867,-0.2126,-0.1955,0.1344,0.0027,0.0793,-0.0096,3123,2019-08-07 16:49:57:218
-6.7793,-6.606,0.867,-0.2126,-0.1955,0.1344,0.0016,0.0718,0.0011,3129,2019-08-07 16:49:57:224
-6.741,-6.4819,0.999,-0.2126,-0.1955,0.1344,0.0016,0.0718,0.0011,3134,2019-08-07 16:49:57:229
-6.741,-6.4819,0.999,-0.2126,-0.1955,0.1344,0.0016,0.0718,0.0011,3139,2019-08-07 16:49:57:234
-6.8702,-6.5057,0.9896,-0.1569,-0.2619,0.0355,0.0091,0.0463,0.0139,3147,2019-08-07 16:49:57:242
-6.8702,-6.5057,0.9896,-0.1569,-0.2619,0.0355,0.0091,0.0463,0.0139,3148,2019-08-07 16:49:57:243
-6.8702,-6.5057,0.9896,-0.1569,-0.2619,0.0355,0.0166,0.0047,0.0235,3154,2019-08-07 16:49:57:249
-6.9994,-6.5296,1.0273,-0.1569,-0.2619,0.0355,0.0166,0.0047,0.0235,3158,2019-08-07 16:49:57:253
-6.9994,-6.5296,1.0273,0.0252,-0.3383,-0.0054,0.0219,-0.0571,0.0448,3164,2019-08-07 16:49:57:259
-6.9803,-6.4771,1.0084,0.0252,-0.3383,-0.0054,0.0219,-0.0571,0.0448,3168,2019-08-07 16:49:57:263
-6.9803,-6.4771,1.0084,0.0252,-0.3383,-0.0054,0.0198,-0.1114,0.049,3174,2019-08-07 16:49:57:269
-6.9803,-6.4771,1.0084,0.0252,-0.3383,-0.0054,0.0198,-0.1114,0.049,3179,2019-08-07 16:49:57:274
-6.8032,-6.458,0.8199,-0.2053,-0.3301,0.1994,0.007,-0.1338,0.0458,3184,2019-08-07 16:49:57:279
-6.8032,-6.458,0.8199,-0.2053,-0.3301,0.1994,0.007,-0.1338,0.0458,3188,2019-08-07 16:49:57:283
-6.7363,-6.5153,0.6879,-0.2053,-0.3301,0.1994,0.0016,-0.1061,0.033,3194,2019-08-07 16:49:57:289
-6.7363,-6.5153,0.6879,-0.2053,-0.3301,0.1994,0.0016,-0.1061,0.033,3199,2019-08-07 16:49:57:294
-6.7363,-6.5153,0.6879,-0.2751,-0.2487,0.3072,-5.0E-4,-0.0592,0.0213,3203,2019-08-07 16:49:57:298
-6.6741,-6.5964,0.7727,-0.2751,-0.2487,0.3072,-5.0E-4,-0.0592,0.0213,3209,2019-08-07 16:49:57:304
-6.6741,-6.5964,0.7727,-0.2751,-0.2487,0.3072,-0.0016,-0.0049,0.0053,3214,2019-08-07 16:49:57:309
-6.6262,-6.6394,0.6879,-0.2751,-0.2487,0.3072,-0.0016,-0.0049,0.0053,3219,2019-08-07 16:49:57:314
-6.6262,-6.6394,0.6879,-0.3513,-0.1631,0.3162,6.0E-4,0.0473,-0.0255,3223,2019-08-07 16:49:57:318
-6.6262,-6.6394,0.6879,-0.3513,-0.1631,0.3162,6.0E-4,0.0473,-0.0255,3229,2019-08-07 16:49:57:324
-6.7889,-6.5869,0.7916,-0.3513,-0.1631,0.3162,6.0E-4,0.0473,-0.0255,3234,2019-08-07 16:49:57:329
-6.7889,-6.5869,0.7916,-0.3513,-0.1631,0.3162,-0.0026,0.0676,-0.0341,3238,2019-08-07 16:49:57:333
-6.7841,-6.5774,0.9,-0.224,-0.2299,0.2015,0.007,0.0495,-0.0309,3244,2019-08-07 16:49:57:339
-6.7841,-6.5774,0.9,-0.224,-0.2299,0.2015,0.007,0.0495,-0.0309,3249,2019-08-07 16:49:57:344
-6.7841,-6.5774,0.9,-0.224,-0.2299,0.2015,0.007,0.0495,-0.0309,3253,2019-08-07 16:49:57:348
-6.8367,-6.4294,1.0273,-0.224,-0.2299,0.2015,0.0166,0.0037,-0.0255,3259,2019-08-07 16:49:57:354
-6.8367,-6.4294,1.0273,-0.1927,-0.4285,-0.0024,0.0166,0.0037,-0.0255,3264,2019-08-07 16:49:57:359
-6.8367,-6.4294,1.0273,-0.1927,-0.4285,-0.0024,0.0208,-0.0432,-0.001,3269,2019-08-07 16:49:57:364
-6.765,-6.31,1.0791,-0.1927,-0.4285,-0.0024,0.0208,-0.0432,-0.001,3273,2019-08-07 16:49:57:368
-6.765,-6.31,1.0791,-0.1927,-0.4285,-0.0024,0.0176,-0.0911,0.0298,3279,2019-08-07 16:49:57:374
-6.6214,-6.2289,1.098,-0.4195,-0.5198,-0.064,0.0176,-0.0911,0.0298,3283,2019-08-07 16:49:57:378
-6.6214,-6.2289,1.098,-0.4195,-0.5198,-0.064,0.008,-0.1167,0.0533,3289,2019-08-07 16:49:57:384
-6.5401,-6.2575,0.9754,-0.4195,-0.5198,-0.064,0.008,-0.1167,0.0533,3294,2019-08-07 16:49:57:389
-6.5401,-6.2575,0.9754,-0.4195,-0.5198,-0.064,-0.0101,-0.1167,0.0714,3299,2019-08-07 16:49:57:394
-6.5401,-6.2575,0.9754,-0.5024,-0.4297,0.1922,-0.0101,-0.1167,0.0714,3304,2019-08-07 16:49:57:399
-6.5497,-6.3578,0.7916,-0.5024,-0.4297,0.1922,-0.0271,-0.0826,0.0767,3309,2019-08-07 16:49:57:404
-6.5497,-6.3578,0.7916,-0.5024,-0.4297,0.1922,-0.0271,-0.0826,0.0767,3314,2019-08-07 16:49:57:409
-6.4923,-6.4962,0.6643,-0.5024,-0.4297,0.1922,-0.0303,-0.0283,0.0746,3319,2019-08-07 16:49:57:414
-6.4923,-6.4962,0.6643,-0.4679,-0.2012,0.3531,-0.0303,-0.0283,0.0746,3324,2019-08-07 16:49:57:419
-6.4923,-6.4962,0.6643,-0.4679,-0.2012,0.3531,-0.0282,0.0228,0.0597,3329,2019-08-07 16:49:57:424
-6.631,-6.5678,0.7162,-0.4679,-0.2012,0.3531,-0.0282,0.0228,0.0597,3334,2019-08-07 16:49:57:429
-6.631,-6.5678,0.7162,-0.4679,-0.2012,0.3531,-0.0186,0.0825,0.0384,3338,2019-08-07 16:49:57:433
-6.7458,-6.5774,0.7256,-0.2838,-0.1862,0.3112,-0.0186,0.0825,0.0384,3344,2019-08-07 16:49:57:439
-6.7458,-6.5774,0.7256,-0.2838,-0.1862,0.3112,-0.0133,0.1102,0.0245,3348,2019-08-07 16:49:57:443
-6.7458,-6.5774,0.7256,-0.2838,-0.1862,0.3112,-0.0133,0.1102,0.0245,3354,2019-08-07 16:49:57:449
-6.8942,-6.5153,0.8623,-0.2838,-0.1862,0.3112,-0.0154,0.1123,0.0224,3358,2019-08-07 16:49:57:453
-6.8942,-6.5153,0.8623,-0.0508,-0.2351,0.0847,-0.0154,0.1123,0.0224,3364,2019-08-07 16:49:57:459
-7.0712,-6.5487,1.0226,-0.0508,-0.2351,0.0847,-0.0165,0.0793,0.0288,3368,2019-08-07 16:49:57:463
-7.0712,-6.5487,1.0226,-0.0508,-0.2351,0.0847,-0.0165,0.0793,0.0288,3374,2019-08-07 16:49:57:469
-7.0712,-6.5487,1.0226,-0.0508,-0.2351,0.0847,-0.0197,0.0101,0.032,3379,2019-08-07 16:49:57:474
-7.1286,-6.458,1.0556,0.0432,-0.3156,-0.1272,-0.0197,0.0101,0.032,3385,2019-08-07 16:49:57:480
-7.1286,-6.458,1.0556,0.0432,-0.3156,-0.1272,-0.0197,0.0101,0.032,3389,2019-08-07 16:49:57:484
-7.1286,-6.458,1.0556,0.0432,-0.3156,-0.1272,-0.0133,-0.0784,0.0437,3394,2019-08-07 16:49:57:489
-6.9611,-6.4532,1.0509,0.0432,-0.3156,-0.1272,-0.0133,-0.0784,0.0437,3398,2019-08-07 16:49:57:493
-6.9611,-6.4532,1.0509,-0.2441,-0.2374,0.0805,-0.0229,-0.1252,0.0394,3404,2019-08-07 16:49:57:499
-6.7171,-6.5296,0.9,-0.2441,-0.2374,0.0805,-0.0229,-0.1252,0.0394,3408,2019-08-07 16:49:57:503
-6.7171,-6.5296,0.9,-0.2441,-0.2374,0.0805,-0.0229,-0.1252,0.0394,3414,2019-08-07 16:49:57:509
-6.7171,-6.5296,0.9,-0.2441,-0.2374,0.0805,-0.042,-0.1178,0.0288,3418,2019-08-07 16:49:57:513
-6.6167,-6.5439,0.7963,-0.4654,-0.12,0.2413,-0.042,-0.1178,0.0288,3424,2019-08-07 16:49:57:519
-6.6167,-6.5439,0.7963,-0.4654,-0.12,0.2413,-0.0463,-0.073,0.0181,3429,2019-08-07 16:49:57:524
-6.5641,-6.5869,0.7916,-0.4654,-0.12,0.2413,-0.0527,-0.0134,0.0053,3434,2019-08-07 16:49:57:529
-6.5641,-6.5869,0.7916,-0.4654,-0.12,0.2413,-0.0527,-0.0134,0.0053,3439,2019-08-07 16:49:57:534
-6.5641,-6.5869,0.7916,-0.4654,-0.12,0.2413,-0.0527,-0.0134,0.0053,3444,2019-08-07 16:49:57:539
-6.6358,-6.606,0.7727,-0.412,-0.1407,0.25,-0.0548,0.0399,-0.0074,3448,2019-08-07 16:49:57:543
-6.6358,-6.606,0.7727,-0.412,-0.1407,0.25,-0.0548,0.0399,-0.0074,3454,2019-08-07 16:49:57:549
-6.6358,-6.606,0.7727,-0.412,-0.1407,0.25,-0.058,0.0782,-0.0149,3459,2019-08-07 16:49:57:554
-6.8415,-6.606,0.867,-0.0905,-0.1159,0.0432,-0.058,0.0782,-0.0149,3464,2019-08-07 16:49:57:559
-6.8415,-6.606,0.867,-0.0905,-0.1159,0.0432,-0.0527,0.0846,-0.0234,3469,2019-08-07 16:49:57:564
-7.0664,-6.5678,0.9801,-0.0905,-0.1159,0.0432,-0.0527,0.0846,-0.0234,3474,2019-08-07 16:49:57:569
-7.0664,-6.5678,0.9801,0.0295,-0.1988,-0.0275,-0.0506,0.0452,-0.0234,3479,2019-08-07 16:49:57:574
-7.0664,-6.5678,0.9801,0.0295,-0.1988,-0.0275,-0.0506,0.0452,-0.0234,3484,2019-08-07 16:49:57:579
-7.0664,-6.5678,1.0037,0.0295,-0.1988,-0.0275,-0.0431,-0.0123,-0.0181,3489,2019-08-07 16:49:57:584
-7.0664,-6.5678,1.0037,0.0295,-0.1988,-0.0275,-0.0431,-0.0123,-0.0181,3494,2019-08-07 16:49:57:589
-7.0233,-6.4914,0.999,0.0069,-0.2824,-0.0444,-0.0346,-0.0624,-0.0138,3498,2019-08-07 16:49:57:593
-7.0233,-6.4914,0.999,0.0069,-0.2824,-0.0444,-0.0346,-0.0624,-0.0138,3503,2019-08-07 16:49:57:598
-7.0233,-6.4914,0.999,0.0069,-0.2824,-0.0444,-0.0356,-0.0933,-0.0096,3509,2019-08-07 16:49:57:604
-6.9564,-6.5201,1.0414,0.0069,-0.2824,-0.0444,-0.0356,-0.0933,-0.0096,3514,2019-08-07 16:49:57:609
-6.9564,-6.5201,1.0414,-0.139,-0.2028,2.0E-4,-0.0356,-0.0933,-0.0096,3519,2019-08-07 16:49:57:614
-6.7841,-6.4962,0.9189,-0.139,-0.2028,2.0E-4,-0.041,-0.1146,-0.001,3524,2019-08-07 16:49:57:619
-6.7841,-6.4962,0.9189,-0.139,-0.2028,2.0E-4,-0.041,-0.1146,-0.001,3529,2019-08-07 16:49:57:624
-6.7841,-6.4962,0.9189,-0.139,-0.2028,2.0E-4,-0.0346,-0.1135,0.0064,3533,2019-08-07 16:49:57:628
-6.6645,-6.5917,0.8482,-0.3759,-0.1654,0.1569,-0.0346,-0.1135,0.0064,3539,2019-08-07 16:49:57:634
-6.6645,-6.5917,0.8482,-0.3759,-0.1654,0.1569,-0.025,-0.0688,0.0043,3544,2019-08-07 16:49:57:639
-6.6837,-6.6585,0.7397,-0.3759,-0.1654,0.1569,-0.025,-0.0688,0.0043,3549,2019-08-07 16:49:57:644
-6.6837,-6.6585,0.7397,-0.3759,-0.1654,0.1569,-0.025,-0.0688,0.0043,3553,2019-08-07 16:49:57:648
-6.6837,-6.6585,0.7397,-0.3981,-0.157,0.1519,-0.0207,-0.0283,-0.0053,3559,2019-08-07 16:49:57:654
-6.6597,-6.5917,0.9189,-0.3981,-0.157,0.1519,-0.0207,-0.0283,-0.0053,3564,2019-08-07 16:49:57:659
-6.6597,-6.5917,0.9189,-0.3981,-0.157,0.1519,-0.0175,0.0122,-0.0202,3569,2019-08-07 16:49:57:664
-6.6597,-6.5917,0.9189,-0.3981,-0.157,0.1519,-0.0175,0.0122,-0.0202,3574,2019-08-07 16:49:57:669
-6.7794,-6.5344,0.9189,-0.2566,-0.2273,0.0867,-0.0175,0.0356,-0.0341,3579,2019-08-07 16:49:57:674
-6.7794,-6.5344,0.9189,-0.2566,-0.2273,0.0867,-0.0175,0.0356,-0.0341,3584,2019-08-07 16:49:57:679
-6.7794,-6.5344,0.9189,-0.2566,-0.2273,0.0867,-0.0229,0.0367,-0.0351,3589,2019-08-07 16:49:57:684
-6.8942,-6.5964,0.9377,-0.2566,-0.2273,0.0867,-0.0229,0.0367,-0.0351,3594,2019-08-07 16:49:57:689
-6.8942,-6.5964,0.9377,-0.071,-0.2086,0.0639,-0.0229,0.0367,-0.0351,3599,2019-08-07 16:49:57:694
-6.8942,-6.5964,0.9377,-0.071,-0.2086,0.0639,-0.0261,0.0165,-0.0341,3603,2019-08-07 16:49:57:698
-7.0138,-6.563,0.9754,-0.071,-0.2086,0.0639,-0.0261,0.0165,-0.0341,3609,2019-08-07 16:49:57:704
-7.0138,-6.563,0.9754,-0.071,-0.2086,0.0639,-0.025,-0.0187,-0.0351,3614,2019-08-07 16:49:57:709
-6.9851,-6.5344,1.0037,-0.0431,-0.2371,-0.0096,-0.0261,-0.0528,-0.0298,3619,2019-08-07 16:49:57:714
-6.9851,-6.5344,1.0037,-0.0431,-0.2371,-0.0096,-0.0261,-0.0528,-0.0298,3624,2019-08-07 16:49:57:719
-6.9851,-6.5344,1.0037,-0.0431,-0.2371,-0.0096,-0.0261,-0.0528,-0.0298,3629,2019-08-07 16:49:57:724
-6.7937,-6.4055,0.8717,-0.0431,-0.2371,-0.0096,-0.0197,-0.0773,-0.0245,3633,2019-08-07 16:49:57:728
-6.7937,-6.4055,0.8717,-0.2588,-0.3935,0.1331,-0.0197,-0.0773,-0.0245,3639,2019-08-07 16:49:57:734
-6.7315,-6.4007,0.8529,-0.2588,-0.3935,0.1331,-0.0079,-0.0805,-0.0224,3644,2019-08-07 16:49:57:739
-6.7315,-6.4007,0.8529,-0.2588,-0.3935,0.1331,-0.0079,-0.0805,-0.0224,3649,2019-08-07 16:49:57:744
-6.7315,-6.4007,0.8529,-0.2588,-0.3935,0.1331,-0.0079,-0.0805,-0.0224,3654,2019-08-07 16:49:57:749
-6.7602,-6.2957,1.0084,-0.26,-0.4816,0.0016,0.008,-0.0666,-0.0149,3659,2019-08-07 16:49:57:754
-6.7602,-6.2957,1.0084,-0.26,-0.4816,0.0016,0.008,-0.0666,-0.0149,3664,2019-08-07 16:49:57:759
-6.7602,-6.2957,1.0084,-0.26,-0.4816,0.0016,0.0059,-0.0666,-0.0106,3669,2019-08-07 16:49:57:764
-6.8224,-6.2909,0.9424,-0.26,-0.4816,0.0016,0.0059,-0.0666,-0.0106,3673,2019-08-07 16:49:57:768
-6.8224,-6.2909,0.9424,-0.2439,-0.4724,0.2283,-0.0047,-0.072,-0.0064,3679,2019-08-07 16:49:57:774
-6.7698,-6.3434,0.801,-0.2439,-0.4724,0.2283,-0.0047,-0.072,-0.0064,3683,2019-08-07 16:49:57:778
-6.7698,-6.3434,0.801,-0.2439,-0.4724,0.2283,-0.0165,-0.0549,-0.0128,3689,2019-08-07 16:49:57:784
-6.7698,-6.3434,0.801,-0.2439,-0.4724,0.2283,-0.0165,-0.0549,-0.0128,3693,2019-08-07 16:49:57:788
-6.7889,-6.4532,0.8623,-0.2465,-0.3119,0.1848,-0.0229,-0.0251,-0.0202,3699,2019-08-07 16:49:57:794
-6.7889,-6.4532,0.8623,-0.2465,-0.3119,0.1848,-0.0229,-0.0251,-0.0202,3704,2019-08-07 16:49:57:799
-6.7065,-6.4915,0.8201,-0.2465,-0.3119,0.1848,-0.0282,0.0101,-0.0298,3709,2019-08-07 16:49:57:804
-6.7065,-6.4915,0.8201,-0.2465,-0.3119,0.1848,-0.0282,0.0101,-0.0298,3714,2019-08-07 16:49:57:809
-6.7065,-6.4915,0.8201,-0.3396,-0.2879,0.1451,-0.0282,0.0101,-0.0298,3718,2019-08-07 16:49:57:813
-6.7113,-6.4915,0.9568,-0.3396,-0.2879,0.1451,-0.0324,0.0612,-0.049,3724,2019-08-07 16:49:57:819
-6.7113,-6.4915,0.9568,-0.3396,-0.2879,0.1451,-0.0324,0.0612,-0.049,3728,2019-08-07 16:49:57:823
-6.7878,-6.5345,0.7918,-0.3396,-0.2879,0.1451,-0.0356,0.074,-0.05,3734,2019-08-07 16:49:57:829
-6.7878,-6.5345,0.7918,-0.2819,-0.3289,0.1061,-0.0356,0.074,-0.05,3739,2019-08-07 16:49:57:834
-6.7878,-6.5345,0.7918,-0.2819,-0.3289,0.1061,-0.0282,0.0718,-0.0575,3744,2019-08-07 16:49:57:839
-6.7447,-6.4247,0.9851,-0.2819,-0.3289,0.1061,-0.0282,0.0718,-0.0575,3748,2019-08-07 16:49:57:843
-6.7447,-6.4247,0.9851,-0.2819,-0.3289,0.1061,-0.0133,0.0409,-0.0522,3754,2019-08-07 16:49:57:849
-6.7734,-6.4342,0.9238,-0.228,-0.3654,0.0668,-0.0133,0.0409,-0.0522,3760,2019-08-07 16:49:57:855
-6.7734,-6.4342,0.9238,-0.228,-0.3654,0.0668,-0.0133,0.0409,-0.0522,3763,2019-08-07 16:49:57:858
-6.7734,-6.4342,0.9238,-0.228,-0.3654,0.0668,-5.0E-4,0.0154,-0.0458,3769,2019-08-07 16:49:57:864
-6.7638,-6.4008,0.8484,-0.228,-0.3654,0.0668,-5.0E-4,0.0154,-0.0458,3774,2019-08-07 16:49:57:869
-6.7638,-6.4008,0.8484,-0.228,-0.3654,0.0668,0.0016,-0.023,-0.0245,3779,2019-08-07 16:49:57:874
-6.649,-6.4152,0.9003,-0.3238,-0.4611,0.136,0.0016,-0.023,-0.0245,3784,2019-08-07 16:49:57:879
-6.649,-6.4152,0.9003,-0.3238,-0.4611,0.136,0.0091,-0.0411,-0.0085,3789,2019-08-07 16:49:57:884
-6.649,-6.4152,0.9003,-0.3238,-0.4611,0.136,0.0091,-0.0411,-0.0085,3794,2019-08-07 16:49:57:889
-6.5724,-6.4915,0.806,-0.4369,-0.3331,0.2369,0.0144,-0.0592,0.0043,3799,2019-08-07 16:49:57:894
-6.5724,-6.4915,0.806,-0.4369,-0.3331,0.2369,0.0144,-0.0592,0.0043,3803,2019-08-07 16:49:57:898
-6.5724,-6.4915,0.806,-0.4369,-0.3331,0.2369,0.0144,-0.0592,0.0043,3809,2019-08-07 16:49:57:904
-6.4815,-6.5536,0.7023,-0.4369,-0.3331,0.2369,0.0219,-0.0368,0.016,3814,2019-08-07 16:49:57:909
-6.4815,-6.5536,0.7023,-0.4369,-0.3331,0.2369,0.0219,-0.0368,0.016,3818,2019-08-07 16:49:57:913
-6.4815,-6.5441,0.7211,-0.5279,-0.2844,0.3087,0.0261,0.0207,0.0075,3824,2019-08-07 16:49:57:919
-6.4815,-6.5441,0.7211,-0.5279,-0.2844,0.3087,0.0261,0.0207,0.0075,3829,2019-08-07 16:49:57:924
-6.4815,-6.5441,0.7211,-0.5279,-0.2844,0.3087,0.0272,0.0718,0.0085,3834,2019-08-07 16:49:57:929
-6.625,-6.4534,0.8013,-0.5279,-0.2844,0.3087,0.0272,0.0718,0.0085,3839,2019-08-07 16:49:57:934
-6.625,-6.4534,0.8013,-0.3387,-0.3881,0.1324,0.0272,0.1017,0.0107,3844,2019-08-07 16:49:57:939
-6.735,-6.4008,0.872,-0.3387,-0.3881,0.1324,0.0272,0.1017,0.0107,3849,2019-08-07 16:49:57:944
-6.735,-6.4008,0.872,-0.3387,-0.3881,0.1324,0.0229,0.1102,0.0096,3853,2019-08-07 16:49:57:948
-6.735,-6.4008,0.872,-0.3387,-0.3881,0.1324,0.0229,0.1102,0.0096,3859,2019-08-07 16:49:57:954
-6.912,-6.3961,0.9333,-0.0897,-0.4043,0.0497,0.0187,0.09,0.0128,3864,2019-08-07 16:49:57:959
-6.912,-6.3961,0.9333,-0.0897,-0.4043,0.0497,0.0187,0.09,0.0128,3869,2019-08-07 16:49:57:964
-6.9216,-6.3579,1.037,-0.0897,-0.4043,0.0497,0.0198,0.0548,0.0192,3873,2019-08-07 16:49:57:968
-6.9216,-6.3579,1.037,-0.0897,-0.4043,0.0497,0.0198,0.0548,0.0192,3879,2019-08-07 16:49:57:974
-6.9216,-6.3579,1.037,-0.152,-0.3762,-0.0264,0.0155,0.0133,0.0245,3883,2019-08-07 16:49:57:978
-6.8594,-6.4772,1.0134,-0.152,-0.3762,-0.0264,0.0155,0.0133,0.0245,3889,2019-08-07 16:49:57:984
-6.8594,-6.4772,1.0134,-0.152,-0.3762,-0.0264,0.0091,-0.0176,0.0288,3894,2019-08-07 16:49:57:989
-6.7446,-6.4199,0.9097,-0.152,-0.3762,-0.0264,0.0091,-0.0176,0.0288,3899,2019-08-07 16:49:57:994
-6.7446,-6.4199,0.9097,-0.2328,-0.2951,0.0706,6.0E-4,-0.023,0.0288,3903,2019-08-07 16:49:57:998
-6.7446,-6.4199,0.9097,-0.2328,-0.2951,0.0706,6.0E-4,-0.023,0.0288,3909,2019-08-07 16:49:58:004
-6.7302,-6.5584,0.872,-0.2328,-0.2951,0.0706,0.007,-0.0059,0.0203,3914,2019-08-07 16:49:58:009
-6.7302,-6.5584,0.872,-0.2328,-0.2951,0.0706,0.007,-0.0059,0.0203,3918,2019-08-07 16:49:58:013
-6.7063,-6.5297,0.8437,-0.3075,-0.2251,0.1376,6.0E-4,0.0292,0.0096,3924,2019-08-07 16:49:58:019
-6.7063,-6.5297,0.8437,-0.3075,-0.2251,0.1376,6.0E-4,0.0292,0.0096,3929,2019-08-07 16:49:58:024
-6.7063,-6.5297,0.8437,-0.3075,-0.2251,0.1376,6.0E-4,0.0292,0.0096,3933,2019-08-07 16:49:58:028
-6.8354,-6.482,0.9239,-0.3075,-0.2251,0.1376,-0.0069,0.0655,-0.0032,3939,2019-08-07 16:49:58:034
-6.8354,-6.482,0.9239,-0.1942,-0.3345,0.0253,-0.0069,0.0655,-0.0032,3943,2019-08-07 16:49:58:038
-6.8928,-6.4056,0.9663,-0.1942,-0.3345,0.0253,-0.0143,0.0878,-0.0074,3949,2019-08-07 16:49:58:044
-6.8928,-6.4056,0.9663,-0.1942,-0.3345,0.0253,-0.0165,0.0878,-0.0128,3954,2019-08-07 16:49:58:049
-6.8928,-6.4056,0.9663,-0.1942,-0.3345,0.0253,-0.0165,0.0878,-0.0128,3959,2019-08-07 16:49:58:054
-6.9789,-6.5011,1.0087,-0.0375,-0.2876,-0.05,-0.0143,0.074,-0.0192,3964,2019-08-07 16:49:58:059
-6.9789,-6.5011,1.0087,-0.0375,-0.2876,-0.05,-0.0143,0.074,-0.0192,3969,2019-08-07 16:49:58:064
-6.9789,-6.5011,1.0087,-0.0375,-0.2876,-0.05,-0.0143,0.074,-0.0192,3974,2019-08-07 16:49:58:069
-6.9933,-6.4152,0.971,-0.0375,-0.2876,-0.05,-0.0111,0.0378,-0.0149,3979,2019-08-07 16:49:58:074
-6.9933,-6.4152,0.971,-0.0136,-0.2697,-0.0116,-0.0111,0.0378,-0.0149,3984,2019-08-07 16:49:58:079
-6.955,-6.4581,1.0276,-0.0136,-0.2697,-0.0116,-0.0037,-0.0112,-0.0085,3989,2019-08-07 16:49:58:084
-6.955,-6.4581,1.0276,-0.0136,-0.2697,-0.0116,-0.0037,-0.0112,-0.0085,3994,2019-08-07 16:49:58:089
-6.955,-6.4581,1.0276,-0.0136,-0.2697,-0.0116,0.0027,-0.0581,0.0022,3999,2019-08-07 16:49:58:094
-6.8401,-6.4152,1.037,-0.2096,-0.3362,-0.0543,0.0027,-0.0581,0.0022,4004,2019-08-07 16:49:58:099
-6.8401,-6.4152,1.037,-0.2096,-0.3362,-0.0543,0.0102,-0.0837,0.0171,4009,2019-08-07 16:49:58:104
-6.6775,-6.4581,0.8673,-0.2096,-0.3362,-0.0543,0.0102,-0.0837,0.0171,4014,2019-08-07 16:49:58:109
-6.6775,-6.4581,0.8673,-0.2096,-0.3362,-0.0543,0.008,-0.0794,0.0213,4018,2019-08-07 16:49:58:113
-6.6775,-6.4581,0.8673,-0.4308,-0.3429,0.1417,0.008,-0.0794,0.0213,4024,2019-08-07 16:49:58:119
-6.5578,-6.4295,0.7778,-0.4308,-0.3429,0.1417,0.0038,-0.0496,0.0213,4029,2019-08-07 16:49:58:124
-6.5578,-6.4295,0.7778,-0.4308,-0.3429,0.1417,0.0038,-0.0496,0.0213,4034,2019-08-07 16:49:58:129
-6.5961,-6.4772,0.8296,-0.4308,-0.3429,0.1417,0.0038,-0.0112,0.0203,4039,2019-08-07 16:49:58:134
-6.5961,-6.4772,0.8296,-0.3992,-0.3307,0.1414,0.0038,-0.0112,0.0203,4044,2019-08-07 16:49:58:139
-6.5961,-6.4772,0.8296,-0.3992,-0.3307,0.1414,-0.0016,0.0282,0.0096,4049,2019-08-07 16:49:58:144
-6.6583,-6.4916,0.8815,-0.3992,-0.3307,0.1414,-0.0016,0.0282,0.0096,4054,2019-08-07 16:49:58:149
-6.6583,-6.4916,0.8815,-0.3992,-0.3307,0.1414,-0.0037,0.0537,0.0,4059,2019-08-07 16:49:58:154
-6.7444,-6.4629,0.8438,-0.2769,-0.3199,0.1207,-0.0037,0.0537,0.0,4064,2019-08-07 16:49:58:159
-6.7444,-6.4629,0.8438,-0.2769,-0.3199,0.1207,-0.0133,0.0633,-0.001,4069,2019-08-07 16:49:58:164
-6.7444,-6.4629,0.8438,-0.2769,-0.3199,0.1207,-0.0133,0.0633,-0.001,4074,2019-08-07 16:49:58:169
-6.8066,-6.3961,0.9475,-0.2769,-0.3199,0.1207,-0.0197,0.0516,-0.0053,4079,2019-08-07 16:49:58:174
-6.8066,-6.3961,0.9475,-0.1591,-0.4294,-0.0499,-0.0197,0.0516,-0.0053,4084,2019-08-07 16:49:58:179
-6.8066,-6.3961,0.9475,-0.1591,-0.4294,-0.0499,-0.0197,0.0516,-0.0053,4089,2019-08-07 16:49:58:184
-6.8592,-6.3388,1.0087,-0.1591,-0.4294,-0.0499,-0.0314,0.0111,-0.0032,4094,2019-08-07 16:49:58:189
-6.8592,-6.3388,1.0087,-0.1591,-0.4294,-0.0499,-0.0314,0.0111,-0.0032,4099,2019-08-07 16:49:58:194
-6.8592,-6.3388,1.0087,-0.2607,-0.3573,0.0256,-0.0314,0.0111,-0.0032,4104,2019-08-07 16:49:58:199
-6.7635,-6.4247,0.9239,-0.2607,-0.3573,0.0256,-0.0431,-0.0358,0.0075,4109,2019-08-07 16:49:58:204
-6.7635,-6.4247,0.9239,-0.2607,-0.3573,0.0256,-0.0431,-0.0358,0.0075,4114,2019-08-07 16:49:58:209
-6.6726,-6.525,0.8862,-0.2607,-0.3573,0.0256,-0.0484,-0.0507,0.0171,4118,2019-08-07 16:49:58:213
-6.6726,-6.525,0.8862,-0.4385,-0.2467,0.1671,-0.0484,-0.0507,0.0171,4124,2019-08-07 16:49:58:219
-6.6726,-6.525,0.8862,-0.4385,-0.2467,0.1671,-0.0442,-0.0368,0.0235,4129,2019-08-07 16:49:58:224
-6.529,-6.5632,0.7401,-0.4385,-0.2467,0.1671,-0.0442,-0.0368,0.0235,4134,2019-08-07 16:49:58:229
-6.529,-6.5632,0.7401,-0.4385,-0.2467,0.1671,-0.042,-0.0059,0.0277,4139,2019-08-07 16:49:58:234
-6.5099,-6.6157,0.7259,-0.4385,-0.2467,0.1671,-0.042,-0.0059,0.0277,4144,2019-08-07 16:49:58:239
-6.5099,-6.6157,0.7259,-0.4694,-0.2022,0.2655,-0.041,0.0346,0.0245,4148,2019-08-07 16:49:58:243
-6.5099,-6.6157,0.7259,-0.4694,-0.2022,0.2655,-0.041,0.0346,0.0245,4154,2019-08-07 16:49:58:249
-6.6438,-6.6014,0.6882,-0.4694,-0.2022,0.2655,-0.0367,0.0729,0.0203,4159,2019-08-07 16:49:58:254
-6.6438,-6.6014,0.6882,-0.4694,-0.2022,0.2655,-0.0367,0.0729,0.0203,4164,2019-08-07 16:49:58:259
-6.7443,-6.63,0.7589,-0.3389,-0.1481,0.1754,-0.0367,0.0729,0.0203,4169,2019-08-07 16:49:58:264
-6.7443,-6.63,0.7589,-0.3389,-0.1481,0.1754,-0.0261,0.0953,0.0149,4173,2019-08-07 16:49:58:268
-6.7921,-6.6634,0.8061,-0.3389,-0.1481,0.1754,-0.0261,0.0953,0.0149,4179,2019-08-07 16:49:58:274
-6.7921,-6.6634,0.8061,-0.3389,-0.1481,0.1754,-0.0218,0.1027,0.0054,4183,2019-08-07 16:49:58:278
-6.7921,-6.6634,0.8061,-0.122,-0.1569,0.1237,-0.0218,0.1027,0.0054,4189,2019-08-07 16:49:58:284
-6.9739,-6.5966,0.8579,-0.122,-0.1569,0.1237,-0.0186,0.0697,-0.0042,4194,2019-08-07 16:49:58:289
-6.9739,-6.5966,0.8579,-0.122,-0.1569,0.1237,-0.0186,0.0697,-0.0042,4199,2019-08-07 16:49:58:294
-6.9739,-6.5966,0.8579,-0.122,-0.1569,0.1237,-0.0186,0.0697,-0.0042,4203,2019-08-07 16:49:58:298
-6.9547,-6.5775,0.8862,-0.0798,-0.2006,0.0131,-0.0122,0.0196,-0.0117,4209,2019-08-07 16:49:58:304
-6.9547,-6.5775,0.8862,-0.0798,-0.2006,0.0131,-0.0122,0.0196,-0.0117,4214,2019-08-07 16:49:58:309
-6.883,-6.5918,0.8626,-0.0798,-0.2006,0.0131,-0.0016,-0.0166,-0.0128,4218,2019-08-07 16:49:58:313
-6.883,-6.5918,0.8626,-0.0798,-0.2006,0.0131,-0.0016,-0.0166,-0.0128,4224,2019-08-07 16:49:58:319
-6.883,-6.5918,0.8626,-0.2455,-0.2119,0.1227,0.0091,-0.0443,-0.0064,4229,2019-08-07 16:49:58:324
-6.6581,-6.6062,0.8108,-0.2455,-0.2119,0.1227,0.0091,-0.0443,-0.0064,4234,2019-08-07 16:49:58:329
-6.6581,-6.6062,0.8108,-0.2455,-0.2119,0.1227,0.0229,-0.0251,-0.017,4239,2019-08-07 16:49:58:334
-6.6581,-6.6062,0.8108,-0.2455,-0.2119,0.1227,0.0229,-0.0251,-0.017,4244,2019-08-07 16:49:58:339
-6.572,-6.5107,0.693,-0.352,-0.3102,0.3407,0.007,-0.0443,-0.0223,4249,2019-08-07 16:49:58:344
-6.572,-6.5107,0.693,-0.352,-0.3102,0.3407,0.007,-0.0443,-0.0223,4254,2019-08-07 16:49:58:349
-6.5911,-6.5441,0.8815,-0.352,-0.3102,0.3407,-0.025,-0.0049,-0.016,4259,2019-08-07 16:49:58:354
-6.5911,-6.5441,0.8815,-0.352,-0.3102,0.3407,-0.025,-0.0049,-0.016,4264,2019-08-07 16:49:58:359
-6.5911,-6.5441,0.8815,-0.5493,-0.2136,0.1102,0.0176,0.0164,-0.0234,4268,2019-08-07 16:49:58:363
-6.5432,-6.5632,0.6223,-0.5493,-0.2136,0.1102,0.0176,0.0164,-0.0234,4274,2019-08-07 16:49:58:369
-6.5432,-6.5632,0.6223,-0.5493,-0.2136,0.1102,0.0325,0.0697,-0.0245,4278,2019-08-07 16:49:58:373
-6.7155,-6.4582,0.627,-0.5493,-0.2136,0.1102,0.0325,0.0697,-0.0245,4284,2019-08-07 16:49:58:379
-6.7155,-6.4582,0.627,-0.3076,-0.3172,0.2558,0.0325,0.0697,-0.0245,4288,2019-08-07 16:49:58:383
-6.7155,-6.4582,0.627,-0.3076,-0.3172,0.2558,0.0272,0.123,-0.0191,4294,2019-08-07 16:49:58:389
-6.8063,-6.5346,0.7872,-0.3076,-0.3172,0.2558,0.0272,0.123,-0.0191,4299,2019-08-07 16:49:58:394
-6.8063,-6.5346,0.7872,-0.3076,-0.3172,0.2558,0.0443,0.1507,-0.0223,4304,2019-08-07 16:49:58:399
-6.8063,-6.5346,0.7872,-0.2025,-0.2427,0.0565,0.0443,0.1507,-0.0223,4309,2019-08-07 16:49:58:404
-6.7681,-6.6062,0.8957,-0.2025,-0.2427,0.0565,0.0719,0.1816,-0.0223,4314,2019-08-07 16:49:58:409
-6.7681,-6.6062,0.8957,-0.2025,-0.2427,0.0565,0.0719,0.1816,-0.0223,4319,2019-08-07 16:49:58:414
-6.7681,-6.6062,0.8957,-0.2025,-0.2427,0.0565,0.0911,0.222,-0.0191,4324,2019-08-07 16:49:58:419
-6.8542,-6.5155,0.8202,-0.2025,-0.2427,0.0565,0.0911,0.222,-0.0191,4329,2019-08-07 16:49:58:424
-6.8542,-6.5155,0.8202,-0.1365,-0.3204,0.1099,0.0698,0.1826,-0.017,4334,2019-08-07 16:49:58:429
-6.8542,-6.5155,0.8202,-0.1365,-0.3204,0.1099,0.0698,0.1826,-0.017,4339,2019-08-07 16:49:58:434
-6.8541,-6.4773,0.8532,-0.1365,-0.3204,0.1099,0.0698,0.1826,-0.017,4344,2019-08-07 16:49:58:439
-6.8541,-6.4773,0.8532,-0.3094,-0.3026,0.0138,0.0592,0.1475,-0.0266,4349,2019-08-07 16:49:58:444
-6.7584,-6.4725,0.7213,-0.3094,-0.3026,0.0138,0.0592,0.1475,-0.0266,4353,2019-08-07 16:49:58:448
-6.7584,-6.4725,0.7213,-0.3094,-0.3026,0.0138,0.0421,0.1038,-0.0383,4359,2019-08-07 16:49:58:454