ACCELEROMETER X (m/s²),ACCELEROMETER Y (m/s²),ACCELEROMETER Z (m/s²),LINEAR ACCELERATION X (m/s²),LINEAR ACCELERATION Y (m/s²),LINEAR ACCELERATION Z (m/s²),GYROSCOPE X (rad/s),GYROSCOPE Y (rad/s),GYROSCOPE Z (rad/s),Time since start in ms ,YYYY-MO-DD HH-MI-SS_SSS
2.5161,9.7305,1.0969,-0.0267,-0.3438,-0.0648,-0.009,0.0239,-0.0639,4,2019-08-07 16:59:14:977
2.5113,9.6923,0.9697,0.0029,-0.2641,0.0418,-0.0207,-0.0112,-0.0693,9,2019-08-07 16:59:14:982
2.5113,9.6923,0.9697,0.0029,-0.2641,0.0418,-0.0207,-0.0112,-0.0693,13,2019-08-07 16:59:14:986
2.5113,9.6923,0.9697,0.0029,-0.2641,0.0418,-0.0239,0.0037,-0.0671,19,2019-08-07 16:59:14:992
2.564,9.7257,1.1582,0.0029,-0.2641,0.0418,-0.0239,0.0037,-0.0671,24,2019-08-07 16:59:14:997
2.564,9.7257,1.1582,0.0029,-0.2641,0.0418,-0.0239,0.0037,-0.0671,28,2019-08-07 16:59:15:001
2.5783,9.6541,1.2148,-0.101,-0.2755,-0.0993,-0.0239,0.0016,-0.065,34,2019-08-07 16:59:15:007
2.5783,9.6541,1.2148,-0.101,-0.2755,-0.0993,-0.0239,0.0016,-0.065,39,2019-08-07 16:59:15:012
2.5783,9.6541,1.2148,-0.101,-0.2755,-0.0993,-0.0314,-0.0134,-0.0714,43,2019-08-07 16:59:15:016
2.674,9.5825,1.1158,-0.2427,-0.2251,-0.0222,-0.0356,0.0037,-0.0799,49,2019-08-07 16:59:15:022
2.674,9.5825,1.1158,-0.2427,-0.2251,-0.0222,-0.0356,0.0037,-0.0799,54,2019-08-07 16:59:15:027
2.7027,9.6923,1.1488,-0.2427,-0.2251,-0.0222,-0.0356,0.0037,-0.0799,59,2019-08-07 16:59:15:032
2.7027,9.6923,1.1488,-0.2427,-0.2251,-0.0222,-0.0303,0.0548,-0.0927,64,2019-08-07 16:59:15:037
2.7027,9.6923,1.1488,-0.2427,-0.2251,-0.0222,-0.0303,0.0548,-0.0927,68,2019-08-07 16:59:15:041
2.5879,9.5873,1.1205,-0.1208,-0.1787,-0.1126,-0.0186,0.0836,-0.097,74,2019-08-07 16:59:15:047
2.5879,9.5873,1.1205,-0.1208,-0.1787,-0.1126,-0.0186,0.0836,-0.097,78,2019-08-07 16:59:15:051
2.5544,9.6207,1.3845,-0.1208,-0.1787,-0.1126,-0.0143,0.0655,-0.1044,84,2019-08-07 16:59:15:057
2.5544,9.6207,1.3845,-0.1208,-0.1787,-0.1126,-0.0143,0.0655,-0.1044,89,2019-08-07 16:59:15:062
2.5544,9.6207,1.3845,-0.1701,-0.2363,-0.3399,-0.0015,0.0165,-0.1097,94,2019-08-07 16:59:15:067
2.7267,9.5491,1.2478,-0.1701,-0.2363,-0.3399,-0.0015,0.0165,-0.1097,99,2019-08-07 16:59:15:072
2.7267,9.5491,1.2478,-0.1701,-0.2363,-0.3399,0.0155,0.0101,-0.1215,104,2019-08-07 16:59:15:077
2.7267,9.5491,1.2478,-0.1701,-0.2363,-0.3399,0.0155,0.0101,-0.1215,109,2019-08-07 16:59:15:082
2.7697,9.4345,1.3091,-0.3387,0.0123,-0.2681,0.0155,0.0101,-0.1215,114,2019-08-07 16:59:15:087
2.7697,9.4345,1.3091,-0.3387,0.0123,-0.2681,0.0368,0.0548,-0.1279,119,2019-08-07 16:59:15:092
2.7506,9.53,1.3138,-0.3387,0.0123,-0.2681,0.0368,0.0548,-0.1279,123,2019-08-07 16:59:15:096
2.7506,9.53,1.3138,-0.3387,0.0123,-0.2681,0.0464,0.0814,-0.13,129,2019-08-07 16:59:15:102
2.7506,9.53,1.3138,-0.2857,-0.1008,-0.1906,0.0464,0.0814,-0.13,133,2019-08-07 16:59:15:106
2.588,9.6064,1.1535,-0.2857,-0.1008,-0.1906,0.0592,0.0942,-0.1332,139,2019-08-07 16:59:15:112
2.588,9.6064,1.1535,-0.2857,-0.1008,-0.1906,0.0592,0.0942,-0.1332,144,2019-08-07 16:59:15:117
2.3535,9.6637,1.2525,-0.2857,-0.1008,-0.1906,0.0677,0.1017,-0.1374,149,2019-08-07 16:59:15:122
2.3535,9.6637,1.2525,0.0787,-0.1885,-0.239,0.0677,0.1017,-0.1374,154,2019-08-07 16:59:15:127
2.3535,9.6637,1.2525,0.0787,-0.1885,-0.239,0.073,0.0772,-0.1332,159,2019-08-07 16:59:15:132
2.2579,9.7066,1.1488,0.0787,-0.1885,-0.239,0.073,0.0772,-0.1332,164,2019-08-07 16:59:15:137
2.2579,9.7066,1.1488,0.0787,-0.1885,-0.239,0.0709,0.0527,-0.1289,168,2019-08-07 16:59:15:141
2.1957,9.7114,1.1394,0.1751,-0.2855,-0.0837,0.0709,0.0527,-0.1289,174,2019-08-07 16:59:15:147
2.1957,9.7114,1.1394,0.1751,-0.2855,-0.0837,0.072,0.0484,-0.1193,179,2019-08-07 16:59:15:152
2.1957,9.7114,1.1394,0.1751,-0.2855,-0.0837,0.072,0.0484,-0.1193,184,2019-08-07 16:59:15:157
2.1909,9.7257,1.1111,0.1751,-0.2855,-0.0837,0.0666,0.0239,-0.1097,189,2019-08-07 16:59:15:162
2.1909,9.7257,1.1111,0.0976,-0.2734,0.0468,0.0666,0.0239,-0.1097,195,2019-08-07 16:59:15:168
2.3296,9.7544,1.0262,0.0976,-0.2734,0.0468,0.0549,-6.0E-4,-0.1119,199,2019-08-07 16:59:15:172
2.3296,9.7544,1.0262,0.0976,-0.2734,0.0468,0.0549,-6.0E-4,-0.1119,203,2019-08-07 16:59:15:176
2.3296,9.7544,1.0262,0.0976,-0.2734,0.0468,0.0421,-0.0091,-0.1151,209,2019-08-07 16:59:15:182
2.5402,9.721,0.7906,-0.2348,-0.2384,0.2104,0.0421,-0.0091,-0.1151,213,2019-08-07 16:59:15:186
2.5402,9.721,0.7906,-0.2348,-0.2384,0.2104,0.0251,0.0197,-0.1236,219,2019-08-07 16:59:15:192
2.5402,9.721,0.7906,-0.2348,-0.2384,0.2104,0.0251,0.0197,-0.1236,223,2019-08-07 16:59:15:196
2.588,9.7687,0.7198,-0.2348,-0.2384,0.2104,0.0123,0.0729,-0.1353,229,2019-08-07 16:59:15:202
2.588,9.7687,0.7198,-0.2436,-0.2943,0.2145,0.0123,0.0729,-0.1353,233,2019-08-07 16:59:15:206
2.521,9.7878,0.8801,-0.2436,-0.2943,0.2145,-0.0026,0.1059,-0.146,239,2019-08-07 16:59:15:212
2.521,9.7878,0.8801,-0.2436,-0.2943,0.2145,-0.0026,0.1059,-0.146,244,2019-08-07 16:59:15:217
2.4349,9.9071,0.9932,-0.2436,-0.2943,0.2145,-0.0207,0.0825,-0.1428,249,2019-08-07 16:59:15:222
2.4349,9.9071,0.9932,-0.1478,-0.4264,0.0545,-0.0207,0.0825,-0.1428,254,2019-08-07 16:59:15:227
2.4349,9.9071,0.9932,-0.1478,-0.4264,0.0545,-0.0207,0.0825,-0.1428,259,2019-08-07 16:59:15:232
2.167,9.8976,0.7576,-0.1478,-0.4264,0.0545,-0.075,0.0665,-0.1353,263,2019-08-07 16:59:15:236
2.167,9.8976,0.7576,-0.1478,-0.4264,0.0545,-0.075,0.0665,-0.1353,269,2019-08-07 16:59:15:242
2.167,9.8976,0.7576,0.1193,-0.3782,0.0896,-0.1038,0.1432,-0.1481,273,2019-08-07 16:59:15:246
2.0809,9.8928,0.9791,0.1193,-0.3782,0.0896,-0.1038,0.1432,-0.1481,279,2019-08-07 16:59:15:252
2.0809,9.8928,0.9791,0.1193,-0.3782,0.0896,-0.0942,0.1102,-0.1364,283,2019-08-07 16:59:15:256
1.813,9.9024,0.965,0.1193,-0.3782,0.0896,-0.0942,0.1102,-0.1364,289,2019-08-07 16:59:15:262
1.813,9.9024,0.965,0.3938,-0.3304,-0.0706,-0.1123,0.0335,-0.1225,294,2019-08-07 16:59:15:267
1.813,9.9024,0.965,0.3938,-0.3304,-0.0706,-0.1123,0.0335,-0.1225,298,2019-08-07 16:59:15:271
1.7269,9.9406,1.2242,0.3938,-0.3304,-0.0706,-0.1123,0.0335,-0.1225,304,2019-08-07 16:59:15:277
1.7269,9.9406,1.2242,0.3938,-0.3304,-0.0706,-0.1123,-0.0464,-0.1119,308,2019-08-07 16:59:15:281
1.9278,9.9119,1.4081,0.24,-0.4037,-0.3451,-0.1123,-0.0464,-0.1119,314,2019-08-07 16:59:15:287
1.9278,9.9119,1.4081,0.24,-0.4037,-0.3451,-0.1155,-0.1114,-0.0938,319,2019-08-07 16:59:15:292
1.9278,9.9119,1.4081,0.24,-0.4037,-0.3451,-0.1155,-0.1114,-0.0938,323,2019-08-07 16:59:15:296
2.2962,9.8069,1.4646,0.24,-0.4037,-0.3451,-0.1038,-0.1753,-0.0863,329,2019-08-07 16:59:15:302
2.2962,9.8069,1.4646,-0.2622,-0.1159,-0.2435,-0.1038,-0.1753,-0.0863,333,2019-08-07 16:59:15:306
2.2962,9.8069,1.4646,-0.2622,-0.1159,-0.2435,-0.0857,-0.1689,-0.0906,339,2019-08-07 16:59:15:312
2.502,9.487,1.2808,-0.2622,-0.1159,-0.2435,-0.0857,-0.1689,-0.0906,345,2019-08-07 16:59:15:318
2.502,9.487,1.2808,-0.2622,-0.1159,-0.2435,-0.0537,-0.0911,-0.1044,349,2019-08-07 16:59:15:322
2.5737,9.5921,1.5448,-0.4325,-0.0808,-0.455,-0.0537,-0.0911,-0.1044,354,2019-08-07 16:59:15:327
2.5737,9.5921,1.5448,-0.4325,-0.0808,-0.455,-0.0228,-0.0506,-0.1108,359,2019-08-07 16:59:15:332
2.5737,9.5921,1.5448,-0.4325,-0.0808,-0.455,-0.0228,-0.0506,-0.1108,364,2019-08-07 16:59:15:337
2.325,9.7448,1.4505,-0.4325,-0.0808,-0.455,-0.0154,-0.0538,-0.1065,368,2019-08-07 16:59:15:341
2.325,9.7448,1.4505,-0.2117,-0.2681,-0.1773,-0.0154,-0.0538,-0.1065,374,2019-08-07 16:59:15:347
2.325,9.8164,1.2337,-0.2117,-0.2681,-0.1773,-0.0197,-0.007,-0.13,379,2019-08-07 16:59:15:352
2.325,9.8164,1.2337,-0.2117,-0.2681,-0.1773,-0.0197,-0.007,-0.13,383,2019-08-07 16:59:15:356
2.2436,9.8976,1.6909,-0.2117,-0.2681,-0.1773,-0.0037,0.0218,-0.1598,389,2019-08-07 16:59:15:362
2.2436,9.8976,1.6909,-0.0904,-0.3248,-0.5632,-0.0037,0.0218,-0.1598,394,2019-08-07 16:59:15:367
2.2436,9.8976,1.6909,-0.0904,-0.3248,-0.5632,6.0E-4,-0.04,-0.1587,399,2019-08-07 16:59:15:372
2.1097,9.6159,1.4458,-0.0904,-0.3248,-0.5632,6.0E-4,-0.04,-0.1587,403,2019-08-07 16:59:15:376
2.1097,9.6159,1.4458,-0.0904,-0.3248,-0.5632,6.0E-4,-0.04,-0.1587,409,2019-08-07 16:59:15:382
2.2197,9.3629,1.5542,-0.154,0.1638,-0.4542,0.0059,-0.073,-0.1715,414,2019-08-07 16:59:15:387
2.2197,9.3629,1.5542,-0.154,0.1638,-0.4542,0.0784,-0.0304,-0.1939,419,2019-08-07 16:59:15:392
2.2197,9.3629,1.5542,-0.154,0.1638,-0.4542,0.0784,-0.0304,-0.1939,424,2019-08-07 16:59:15:397
2.5116,9.5873,1.8276,-0.154,0.1638,-0.4542,0.1412,-0.0134,-0.2014,429,2019-08-07 16:59:15:402
2.5116,9.5873,1.8276,-0.154,0.1638,-0.4542,0.1412,-0.0134,-0.2014,433,2019-08-07 16:59:15:406
2.5116,9.5873,1.8276,-0.6241,0.006,-0.8843,0.1412,-0.0134,-0.2014,439,2019-08-07 16:59:15:412
2.6408,9.5539,1.8229,-0.6241,0.006,-0.8843,0.1987,-0.0208,-0.1992,444,2019-08-07 16:59:15:417
2.6408,9.5539,1.8229,-0.6241,0.006,-0.8843,0.2797,0.1006,-0.1907,449,2019-08-07 16:59:15:422
2.3537,9.5252,1.7475,-0.3572,0.0223,-0.7009,0.2797,0.1006,-0.1907,454,2019-08-07 16:59:15:427
2.3537,9.5252,1.7475,-0.3572,0.0223,-0.7009,0.2797,0.1006,-0.1907,459,2019-08-07 16:59:15:432
2.3537,9.5252,1.7475,-0.3572,0.0223,-0.7009,0.3766,0.2604,-0.196,463,2019-08-07 16:59:15:436
1.416,9.931,2.6431,-0.3572,0.0223,-0.7009,0.3766,0.2604,-0.196,469,2019-08-07 16:59:15:442
1.416,9.931,2.6431,0.8661,-0.8787,-1.8026,0.4821,0.1091,-0.1779,474,2019-08-07 16:59:15:447
1.416,9.931,2.6431,0.8661,-0.8787,-1.8026,0.4821,0.1091,-0.1779,479,2019-08-07 16:59:15:452
0.9424,10.7951,2.7138,0.8661,-0.8787,-1.8026,0.4821,0.1091,-0.1779,484,2019-08-07 16:59:15:457
0.9424,10.7951,2.7138,0.8661,-0.8787,-1.8026,0.5151,-0.2051,-0.1918,489,2019-08-07 16:59:15:462
0.8036,11.3393,3.0061,0.8661,-0.8787,-1.8026,0.5151,-0.2051,-0.1918,493,2019-08-07 16:59:15:466
0.8036,11.3393,3.0061,1.0004,-1.7246,-2.1921,0.6547,-0.5013,-0.1918,499,2019-08-07 16:59:15:472
0.8036,11.3393,3.0061,1.0004,-1.7246,-2.1921,0.6547,-0.5013,-0.1918,504,2019-08-07 16:59:15:477
1.7844,11.2438,3.8027,1.0004,-1.7246,-2.1921,0.9061,-1.0179,-0.1683,509,2019-08-07 16:59:15:482
1.7844,11.2438,3.8027,1.0004,-1.7246,-2.1921,0.9061,-1.0179,-0.1683,513,2019-08-07 16:59:15:486
3.5498,10.9956,4.7973,-1.1792,-1.5003,-3.6504,1.1149,-1.362,-0.1492,519,2019-08-07 16:59:15:492
3.5498,10.9956,4.7973,-1.1792,-1.5003,-3.6504,1.1149,-1.362,-0.1492,523,2019-08-07 16:59:15:496
3.5498,10.9956,4.7973,-1.1792,-1.5003,-3.6504,1.3513,-1.5399,-0.2546,529,2019-08-07 16:59:15:502
5.5688,10.8476,6.565,-1.1792,-1.5003,-3.6504,1.3513,-1.5399,-0.2546,533,2019-08-07 16:59:15:506
5.5688,10.8476,6.565,-4.2312,-1.2483,-6.2732,1.5868,-1.7263,-0.3665,539,2019-08-07 16:59:15:512
6.8127,11.1531,8.1677,-4.2312,-1.2483,-6.2732,1.5868,-1.7263,-0.3665,544,2019-08-07 16:59:15:517
6.8127,11.1531,8.1677,-4.2312,-1.2483,-6.2732,1.7668,-2.2451,-0.4048,549,2019-08-07 16:59:15:522
6.8127,11.1531,8.1677,-4.2312,-1.2483,-6.2732,1.7668,-2.2451,-0.4048,553,2019-08-07 16:59:15:526
6.0663,12.1174,9.6761,-4.2318,-2.4808,-9.5992,1.7625,-2.733,-0.2578,559,2019-08-07 16:59:15:532
6.0663,12.1174,9.6761,-4.2318,-2.4808,-9.5992,1.7625,-2.733,-0.2578,563,2019-08-07 16:59:15:536
5.2148,12.2606,5.7024,-4.2318,-2.4808,-9.5992,1.4579,-2.4283,0.0863,569,2019-08-07 16:59:15:542
5.2148,12.2606,5.7024,-4.2318,-2.4808,-9.5992,1.4579,-2.4283,0.0863,574,2019-08-07 16:59:15:547
5.2148,12.2606,5.7024,-2.4371,-1.0288,-7.6428,1.4579,-2.4283,0.0863,579,2019-08-07 16:59:15:552
3.4207,10.3177,8.7569,-2.4371,-1.0288,-7.6428,1.1436,-1.4227,0.2887,585,2019-08-07 16:59:15:558
3.4207,10.3177,8.7569,-2.4371,-1.0288,-7.6428,0.7899,-1.0403,0.3206,589,2019-08-07 16:59:15:562
1.6457,11.3393,14.0034,-2.4371,-1.0288,-7.6428,0.7899,-1.0403,0.3206,593,2019-08-07 16:59:15:566
1.6457,11.3393,14.0034,0.3016,-1.6855,-15.2426,0.2744,-1.574,0.5358,599,2019-08-07 16:59:15:572
1.6457,11.3393,14.0034,0.3016,-1.6855,-15.2426,0.2744,-1.574,0.5358,604,2019-08-07 16:59:15:577
3.2245,10.1745,13.9044,0.3016,-1.6855,-15.2426,0.2744,-1.574,0.5358,608,2019-08-07 16:59:15:581
3.2245,10.1745,13.9044,0.3016,-1.6855,-15.2426,-0.1784,-1.3396,0.6168,614,2019-08-07 16:59:15:587
3.2245,10.1745,13.9044,-2.9842,-0.1215,-14.1716,-0.1784,-1.3396,0.6168,618,2019-08-07 16:59:15:591
5.2004,9.6827,13.4707,-2.9842,-0.1215,-14.1716,-0.596,-0.9306,0.6296,624,2019-08-07 16:59:15:597
5.2004,9.6827,13.4707,-2.9842,-0.1215,-14.1716,-0.596,-0.9306,0.6296,629,2019-08-07 16:59:15:602
5.0426,8.9571,11.7926,-2.9842,-0.1215,-14.1716,-0.9507,-0.6152,0.5742,634,2019-08-07 16:59:15:607
5.0426,8.9571,11.7926,-1.8607,0.1834,-11.7188,-0.9507,-0.6152,0.5742,639,2019-08-07 16:59:15:612
5.0426,8.9571,11.7926,-1.8607,0.1834,-11.7188,-1.2724,-0.2925,0.5273,644,2019-08-07 16:59:15:617
3.8369,9.6923,10.4539,-1.8607,0.1834,-11.7188,-1.6197,-0.089,0.5529,649,2019-08-07 16:59:15:622
3.8369,9.6923,10.4539,-1.8607,0.1834,-11.7188,-1.6197,-0.089,0.5529,654,2019-08-07 16:59:15:627
3.1767,9.3295,8.0404,-0.9446,0.2228,-7.9555,-1.6197,-0.089,0.5529,659,2019-08-07 16:59:15:632
3.1767,9.3295,8.0404,-0.9446,0.2228,-7.9555,-1.8487,0.3062,0.5678,664,2019-08-07 16:59:15:637
3.1767,9.3295,8.0404,-0.9446,0.2228,-7.9555,-1.8487,0.3062,0.5678,669,2019-08-07 16:59:15:642
2.5165,8.9046,7.998,-0.9446,0.2228,-7.9555,-2.082,0.6077,0.4293,673,2019-08-07 16:59:15:646
2.5165,8.9046,7.998,1.2752,0.0,-7.0008,-2.082,0.6077,0.4293,679,2019-08-07 16:59:15:652
0.7272,9.4488,6.9468,1.2752,0.0,-7.0008,-2.2002,0.6812,0.3462,683,2019-08-07 16:59:15:656
0.7272,9.4488,6.9468,1.2752,0.0,-7.0008,-2.2002,0.6812,0.3462,689,2019-08-07 16:59:15:662
0.7272,9.4488,6.9468,1.2752,0.0,-7.0008,-2.3004,0.4841,0.3302,694,2019-08-07 16:59:15:667
0.2536,9.3963,5.231,2.1535,0.0247,-3.956,-2.3004,0.4841,0.3302,698,2019-08-07 16:59:15:671
0.2536,9.3963,5.231,2.1535,0.0247,-3.956,-2.3686,0.352,0.3313,704,2019-08-07 16:59:15:677
0.2536,9.3963,5.231,2.1535,0.0247,-3.956,-2.3686,0.352,0.3313,708,2019-08-07 16:59:15:681
0.6267,9.3533,3.2182,2.1535,0.0247,-3.956,-2.4218,0.2338,0.409,714,2019-08-07 16:59:15:687
0.6267,9.3533,3.2182,1.6279,0.4565,-1.166,-2.4218,0.2338,0.409,718,2019-08-07 16:59:15:691
0.6794,8.7805,2.1388,1.6279,0.4565,-1.166,-2.408,0.2103,0.4314,724,2019-08-07 16:59:15:697
0.6794,8.7805,2.1388,1.6279,0.4565,-1.166,-2.408,0.2103,0.4314,728,2019-08-07 16:59:15:701
0.6794,8.7805,2.1388,1.6279,0.4565,-1.166,-2.3654,0.2838,0.4399,734,2019-08-07 16:59:15:707
0.7464,8.5084,1.3044,1.672,0.7689,0.6467,-2.3654,0.2838,0.4399,739,2019-08-07 16:59:15:712
0.7464,8.5084,1.3044,1.672,0.7689,0.6467,-2.2684,0.3254,0.424,744,2019-08-07 16:59:15:717
1.2152,8.136,0.5785,1.672,0.7689,0.6467,-2.2684,0.3254,0.424,749,2019-08-07 16:59:15:722
1.2152,8.136,0.5785,1.672,0.7689,0.6467,-2.2684,0.3254,0.424,754,2019-08-07 16:59:15:727
1.2152,8.136,0.5785,1.672,0.7689,0.6467,-2.1981,0.319,0.3398,759,2019-08-07 16:59:15:732
2.0381,8.6373,0.258,0.6718,0.5628,2.2296,-2.1981,0.319,0.3398,764,2019-08-07 16:59:15:737
2.0381,8.6373,0.258,0.6718,0.5628,2.2296,-2.1598,0.4149,0.2972,769,2019-08-07 16:59:15:742
3.2055,8.6277,-0.8215,0.6718,0.5628,2.2296,-2.1598,0.4149,0.2972,774,2019-08-07 16:59:15:747
3.2055,8.6277,-0.8215,0.6718,0.5628,2.2296,-2.1598,0.4149,0.2972,779,2019-08-07 16:59:15:752
3.2055,8.6277,-0.8215,-1.0608,0.3677,4.141,-2.0202,0.6684,0.2695,783,2019-08-07 16:59:15:756
3.8322,8.6229,-1.9245,-1.0608,0.3677,4.141,-2.0202,0.6684,0.2695,789,2019-08-07 16:59:15:762
3.8322,8.6229,-1.9245,-1.0608,0.3677,4.141,-1.919,1.1265,0.1981,794,2019-08-07 16:59:15:767
3.5069,8.2029,-2.2074,-0.9573,0.7207,5.3863,-1.7944,1.5387,0.163,799,2019-08-07 16:59:15:772
3.5069,8.2029,-2.2074,-0.9573,0.7207,5.3863,-1.7944,1.5387,0.163,803,2019-08-07 16:59:15:776
3.5069,8.2029,-2.2074,-0.9573,0.7207,5.3863,-1.7944,1.5387,0.163,809,2019-08-07 16:59:15:782
2.8515,8.0453,-2.3676,-0.9573,0.7207,5.3863,-1.6612,1.7518,0.1704,813,2019-08-07 16:59:15:786
2.8515,8.0453,-2.3676,-0.9573,0.7207,5.3863,-1.6612,1.7518,0.1704,819,2019-08-07 16:59:15:792
2.8515,8.0453,-2.3676,0.2015,1.0504,6.3313,-1.5558,1.8434,0.1875,823,2019-08-07 16:59:15:796
1.9568,7.5775,-3.1407,0.2015,1.0504,6.3313,-1.5558,1.8434,0.1875,829,2019-08-07 16:59:15:802
1.9568,7.5775,-3.1407,0.2015,1.0504,6.3313,-1.4375,1.8519,0.2333,834,2019-08-07 16:59:15:807
1.2535,7.482,-3.367,0.2015,1.0504,6.3313,-1.4375,1.8519,0.2333,839,2019-08-07 16:59:15:812
1.2535,7.482,-3.367,1.2258,1.2768,7.2742,-1.3086,1.8189,0.2897,843,2019-08-07 16:59:15:816
1.2535,7.482,-3.367,1.2258,1.2768,7.2742,-1.3086,1.8189,0.2897,849,2019-08-07 16:59:15:822
0.6842,6.6943,-4.0693,1.2258,1.2768,7.2742,-1.1787,1.7486,0.3249,853,2019-08-07 16:59:15:826
0.6842,6.6943,-4.0693,1.2258,1.2768,7.2742,-1.1787,1.7486,0.3249,859,2019-08-07 16:59:15:832
0.6651,6.2838,-4.1164,1.6874,2.3687,8.0126,-1.0093,1.6303,0.3015,863,2019-08-07 16:59:15:836
0.6651,6.2838,-4.1164,1.6874,2.3687,8.0126,-1.0093,1.6303,0.3015,869,2019-08-07 16:59:15:842
0.6651,6.2838,-4.1164,1.6874,2.3687,8.0126,-0.776,1.38,0.2812,873,2019-08-07 16:59:15:846
1.3158,6.1453,-4.9744,1.6874,2.3687,8.0126,-0.776,1.38,0.2812,879,2019-08-07 16:59:15:852
1.3158,6.1453,-4.9744,0.6322,2.701,9.4273,-0.548,1.2458,0.2652,884,2019-08-07 16:59:15:857
1.3158,6.1453,-4.9744,0.6322,2.701,9.4273,-0.548,1.2458,0.2652,889,2019-08-07 16:59:15:862
1.5837,5.5486,-6.2754,0.6322,2.701,9.4273,-0.3467,1.2809,0.2173,894,2019-08-07 16:59:15:867
1.5837,5.5486,-6.2754,0.6322,2.701,9.4273,-0.3467,1.2809,0.2173,899,2019-08-07 16:59:15:872
1.1962,5.181,-7.0956,0.9263,3.3822,11.5407,-0.3467,1.2809,0.2173,903,2019-08-07 16:59:15:876
1.1962,5.181,-7.0956,0.9263,3.3822,11.5407,-0.2189,1.5909,0.1566,909,2019-08-07 16:59:15:882
1.1962,5.181,-7.0956,0.9263,3.3822,11.5407,-0.2189,1.5909,0.1566,914,2019-08-07 16:59:15:887
1.0479,8.475,8.9314,0.9263,3.3822,11.5407,-0.0548,1.1233,0.098,919,2019-08-07 16:59:15:892
1.0479,8.475,8.9314,1.3779,2.762,-14.6952,-0.0548,1.1233,0.098,924,2019-08-07 16:59:15:897
1.0479,8.475,8.9314,1.3779,2.762,-14.6952,-0.0548,1.1233,0.098,929,2019-08-07 16:59:15:902
5.6055,3.7013,8.6953,1.3779,2.762,-14.6952,1.9458,-0.824,0.3089,934,2019-08-07 16:59:15:907
5.6055,3.7013,8.6953,1.3779,2.762,-14.6952,1.9458,-0.824,0.3089,939,2019-08-07 16:59:15:912
7.213,14.9962,-1.2555,-4.9942,-6.3247,5.2704,2.0544,-4.5738,-0.6775,944,2019-08-07 16:59:15:917
7.213,14.9962,-1.2555,-4.9942,-6.3247,5.2704,2.0544,-4.5738,-0.6775,949,2019-08-07 16:59:15:922
-1.9202,37.8484,-12.1067,-4.9942,-6.3247,5.2704,2.9887,0.9294,-1.665,954,2019-08-07 16:59:15:927
-1.9202,37.8484,-12.1067,-4.9942,-6.3247,5.2704,2.9887,0.9294,-1.665,958,2019-08-07 16:59:15:931
-1.9202,37.8484,-12.1067,4.091,-25.6924,14.563,2.9887,0.9294,-1.665,964,2019-08-07 16:59:15:937
-2.4656,26.4247,-13.1108,4.091,-25.6924,14.563,3.3828,2.0692,-0.081,968,2019-08-07 16:59:15:941
-2.4656,26.4247,-13.1108,4.091,-25.6924,14.563,3.3828,2.0692,-0.081,973,2019-08-07 16:59:15:946
-2.4656,26.4247,-13.1108,4.091,-25.6924,14.563,3.4201,2.5806,0.7467,979,2019-08-07 16:59:15:952
4.5768,18.1612,-8.5667,-3.8592,-8.4819,7.4804,3.4201,2.5806,0.7467,984,2019-08-07 16:59:15:957
4.5768,18.1612,-8.5667,-3.8592,-8.4819,7.4804,2.8619,0.7387,0.7116,988,2019-08-07 16:59:15:961
0.4576,13.65,2.7276,-3.8592,-8.4819,7.4804,2.8619,0.7387,0.7116,994,2019-08-07 16:59:15:967
0.4576,13.65,2.7276,-3.8592,-8.4819,7.4804,2.2941,-3.0973,-0.2546,999,2019-08-07 16:59:15:972
0.4576,13.65,2.7276,10.9961,-0.968,-0.5074,2.2941,-3.0973,-0.2546,1003,2019-08-07 16:59:15:976
0.491,7.4583,-3.9189,10.9961,-0.968,-0.5074,3.1346,-0.0592,0.0639,1009,2019-08-07 16:59:15:982
0.491,7.4583,-3.9189,10.9961,-0.968,-0.5074,3.1346,-0.0592,0.0639,1014,2019-08-07 16:59:15:987
0.491,7.4583,-3.9189,10.9961,-0.968,-0.5074,2.4017,-1.7742,0.6125,1018,2019-08-07 16:59:15:991
6.2034,-3.0345,-7.8879,-6.5168,13.5518,8.241,2.4017,-1.7742,0.6125,1024,2019-08-07 16:59:15:997
6.2034,-3.0345,-7.8879,-6.5168,13.5518,8.241,1.4579,-3.338,0.8128,1029,2019-08-07 16:59:16:002
6.9019,2.4363,-11.4185,-6.5168,13.5518,8.241,1.4579,-3.338,0.8128,1034,2019-08-07 16:59:16:007
6.9019,2.4363,-11.4185,-6.5168,13.5518,8.241,1.2139,-0.3489,0.1289,1039,2019-08-07 16:59:16:012
6.9019,2.4363,-11.4185,-2.183,-10.4015,18.2874,1.2139,-0.3489,0.1289,1044,2019-08-07 16:59:16:017
3.462,23.0592,-16.7781,-2.183,-10.4015,18.2874,0.2104,1.0764,-0.2951,1049,2019-08-07 16:59:16:022
3.462,23.0592,-16.7781,-2.183,-10.4015,18.2874,0.2104,1.0764,-0.2951,1054,2019-08-07 16:59:16:027
3.462,23.0592,-16.7781,-2.183,-10.4015,18.2874,1.7167,0.6311,0.1907,1059,2019-08-07 16:59:16:032
-0.5376,15.4449,7.8704,0.6184,-4.7618,13.0826,1.7167,0.6311,0.1907,1064,2019-08-07 16:59:16:037
-0.5376,15.4449,7.8704,0.6184,-4.7618,13.0826,0.9412,0.0697,0.3686,1069,2019-08-07 16:59:16:042
-0.5376,15.4449,7.8704,0.6184,-4.7618,13.0826,0.9412,0.0697,0.3686,1073,2019-08-07 16:59:16:046
3.9069,7.4726,3.7458,0.6184,-4.7618,13.0826,0.9412,0.0697,0.3686,1079,2019-08-07 16:59:16:052
3.9069,7.4726,3.7458,2.0357,-0.5785,3.7612,0.6142,-1.167,-0.0075,1083,2019-08-07 16:59:16:056
0.7349,10.5756,-5.4697,2.0357,-0.5785,3.7612,0.6142,-1.167,-0.0075,1089,2019-08-07 16:59:16:062
0.7349,10.5756,-5.4697,2.0357,-0.5785,3.7612,0.4416,0.0111,0.1789,1093,2019-08-07 16:59:16:066
3.3567,10.4276,-1.8825,2.0357,-0.5785,3.7612,0.4416,0.0111,0.1789,1099,2019-08-07 16:59:16:072
3.3567,10.4276,-1.8825,-0.2057,-0.7027,2.3027,0.4256,0.5672,0.1981,1103,2019-08-07 16:59:16:076
3.3567,10.4276,-1.8825,-0.2057,-0.7027,2.3027,0.4256,0.5672,0.1981,1109,2019-08-07 16:59:16:082
1.7492,10.1221,-1.5478,-0.2057,-0.7027,2.3027,0.1369,0.1613,0.147,1114,2019-08-07 16:59:16:087
1.7492,10.1221,-1.5478,-0.2057,-0.7027,2.3027,0.1369,0.1613,0.147,1119,2019-08-07 16:59:16:092
1.7492,10.1221,-1.5478,-0.2057,-0.7027,2.3027,0.1369,0.1613,0.147,1123,2019-08-07 16:59:16:096
2.9931,10.4181,-2.1983,-0.5579,-0.9543,3.0599,-0.2157,-0.3436,0.1885,1129,2019-08-07 16:59:16:102
2.9931,10.4181,-2.1983,-0.5579,-0.9543,3.0599,-0.2157,-0.3436,0.1885,1133,2019-08-07 16:59:16:106
2.9931,10.4181,-2.1983,-0.5579,-0.9543,3.0599,-0.3531,-0.2392,0.1534,1139,2019-08-07 16:59:16:112
4.4714,10.0553,-3.3108,-0.5579,-0.9543,3.0599,-0.3531,-0.2392,0.1534,1143,2019-08-07 16:59:16:116
4.4714,10.0553,-3.3108,-2.2687,-1.0636,4.8779,-0.5683,0.3723,0.0607,1149,2019-08-07 16:59:16:122
4.4044,10.9623,-3.4664,-2.2687,-1.0636,4.8779,-0.5683,0.3723,0.0607,1154,2019-08-07 16:59:16:127
4.4044,10.9623,-3.4664,-2.2687,-1.0636,4.8779,-0.8133,0.8037,-0.0373,1159,2019-08-07 16:59:16:132
4.4044,10.9623,-3.4664,-2.2687,-1.0636,4.8779,-0.8133,0.8037,-0.0373,1164,2019-08-07 16:59:16:137
3.2657,11.3394,-2.9101,-0.7975,-1.9027,3.9553,-0.9848,0.8772,-0.0778,1169,2019-08-07 16:59:16:142
3.2657,11.3394,-2.9101,-0.7975,-1.9027,3.9553,-0.9848,0.8772,-0.0778,1173,2019-08-07 16:59:16:146
2.5337,12.1224,-0.7229,-0.7975,-1.9027,3.9553,-1.2095,0.8346,-0.098,1179,2019-08-07 16:59:16:152
2.5337,12.1224,-0.7229,0.6759,-3.1407,0.5446,-1.2095,0.8346,-0.098,1184,2019-08-07 16:59:16:157
2.5337,12.1224,-0.7229,0.6759,-3.1407,0.5446,-1.4524,0.1273,-0.032,1189,2019-08-07 16:59:16:162
2.5337,12.1224,-0.7229,0.6759,-3.1407,0.5446,-1.4524,0.1273,-0.032,1193,2019-08-07 16:59:16:166
1.5386,12.0173,-1.5997,0.6759,-3.1407,0.5446,-1.9606,-0.4693,-0.0799,1199,2019-08-07 16:59:16:172
1.5386,12.0173,-1.5997,0.6759,-3.1407,0.5446,-1.9606,-0.4693,-0.0799,1204,2019-08-07 16:59:16:177
1.5386,12.0173,-1.5997,-0.074,-0.5336,6.0374,-1.9606,-0.4693,-0.0799,1209,2019-08-07 16:59:16:182
2.5145,10.0983,-3.9236,-0.074,-0.5336,6.0374,-2.3568,-0.1572,-0.4719,1213,2019-08-07 16:59:16:186
2.5145,10.0983,-3.9236,-0.074,-0.5336,6.0374,-2.3568,-0.1572,-0.4719,1219,2019-08-07 16:59:16:192
2.1844,11.3824,-4.791,-0.074,-0.5336,6.0374,-2.5827,-0.1998,-0.49,1224,2019-08-07 16:59:16:197
2.1844,11.3824,-4.791,0.1964,-2.1232,7.3794,-2.5827,-0.1998,-0.49,1228,2019-08-07 16:59:16:201
2.1844,11.3824,-4.791,0.1964,-2.1232,7.3794,-2.7467,0.0037,-0.456,1235,2019-08-07 16:59:16:208
1.7347,12.2226,-6.0071,0.1964,-2.1232,7.3794,-2.7467,0.0037,-0.456,1239,2019-08-07 16:59:16:212
1.7347,12.2226,-6.0071,0.1964,-2.1232,7.3794,-2.8319,0.6759,-0.3729,1244,2019-08-07 16:59:16:217
0.2085,15.7552,-1.6799,1.7441,-5.672,5.5522,-2.8319,0.6759,-0.3729,1249,2019-08-07 16:59:16:222
0.2085,15.7552,-1.6799,1.7441,-5.672,5.5522,-2.8319,0.6759,-0.3729,1254,2019-08-07 16:59:16:227
0.2085,15.7552,-1.6799,1.7441,-5.672,5.5522,-2.9353,0.0623,0.1779,1258,2019-08-07 16:59:16:231
2.0073,16.6241,-1.298,1.7441,-5.672,5.5522,-2.9353,0.0623,0.1779,1264,2019-08-07 16:59:16:237
2.0073,16.6241,-1.298,-0.2045,-7.0328,3.4619,-3.094,-0.3574,0.5379,1268,2019-08-07 16:59:16:241
2.0073,16.6241,-1.298,-0.2045,-7.0328,3.4619,-3.094,-0.3574,0.5379,1274,2019-08-07 16:59:16:247
3.3756,13.8028,-2.6509,-0.2045,-7.0328,3.4619,-3.0056,0.205,0.3941,1278,2019-08-07 16:59:16:251
3.3756,13.8028,-2.6509,-0.2045,-7.0328,3.4619,-3.0056,0.205,0.3941,1283,2019-08-07 16:59:16:256
2.8493,12.6905,2.0158,-0.5996,-4.4658,2.0516,-3.078,0.1411,0.4058,1289,2019-08-07 16:59:16:262
2.8493,12.6905,2.0158,-0.5996,-4.4658,2.0516,-3.078,0.1411,0.4058,1293,2019-08-07 16:59:16:266
2.8493,12.6905,2.0158,-0.5996,-4.4658,2.0516,-3.078,0.1411,0.4058,1299,2019-08-07 16:59:16:272
3.4665,9.3917,1.2333,-0.5996,-4.4658,2.0516,-2.9928,-0.2275,0.5433,1303,2019-08-07 16:59:16:276
3.4665,9.3917,1.2333,-1.3936,-0.1996,1.5014,-2.9928,-0.2275,0.5433,1309,2019-08-07 16:59:16:282
3.4665,9.3917,1.2333,-1.3936,-0.1996,1.5014,-2.9108,0.1283,0.4538,1314,2019-08-07 16:59:16:287
4.4759,9.134,4.5754,-1.3936,-0.1996,1.5014,-2.9108,0.1283,0.4538,1318,2019-08-07 16:59:16:291
4.4759,9.134,4.5754,-1.3936,-0.1996,1.5014,-2.507,0.4788,0.3217,1324,2019-08-07 16:59:16:297
3.9018,10.6616,3.7221,-1.4551,-2.3128,0.8107,-2.507,0.4788,0.3217,1329,2019-08-07 16:59:16:302
3.9018,10.6616,3.7221,-1.4551,-2.3128,0.8107,-2.05,0.5832,0.212,1334,2019-08-07 16:59:16:307
3.9018,10.6616,3.7221,-1.4551,-2.3128,0.8107,-2.05,0.5832,0.212,1338,2019-08-07 16:59:16:311
0.0888,9.9121,4.4104,-1.4551,-2.3128,0.8107,-1.5206,0.6652,0.1683,1344,2019-08-07 16:59:16:317
0.0888,9.9121,4.4104,2.096,1.2895,0.036,-1.5206,0.6652,0.1683,1349,2019-08-07 16:59:16:322
0.9308,5.5822,-2.2314,2.096,1.2895,0.036,-1.5206,0.6652,0.1683,1354,2019-08-07 16:59:16:327
0.9308,5.5822,-2.2314,2.096,1.2895,0.036,-0.4894,-0.7282,0.0926,1358,2019-08-07 16:59:16:331
0.9308,5.5822,-2.2314,2.096,1.2895,0.036,-0.4894,-0.7282,0.0926,1364,2019-08-07 16:59:16:337
0.4332,5.377,-4.9984,2.2896,2.5963,7.0691,0.0517,-1.8595,0.0511,1369,2019-08-07 16:59:16:342
0.4332,5.377,-4.9984,2.2896,2.5963,7.0691,0.0517,-1.8595,0.0511,1374,2019-08-07 16:59:16:347
-0.6624,6.241,-0.7937,2.2896,2.5963,7.0691,0.4789,-4.0283,-0.0299,1379,2019-08-07 16:59:16:352
-0.6624,6.241,-0.7937,2.2896,2.5963,7.0691,0.4789,-4.0283,-0.0299,1384,2019-08-07 16:59:16:357
-0.6624,6.241,-0.7937,2.9447,1.0602,3.248,0.7857,-5.0478,-0.3643,1389,2019-08-07 16:59:16:362
-0.0835,7.0335,1.0258,2.9447,1.0602,3.248,0.7857,-5.0478,-0.3643,1393,2019-08-07 16:59:16:366
-0.0835,7.0335,1.0258,2.9447,1.0602,3.248,1.4238,-3.9697,-0.5359,1399,2019-08-07 16:59:16:372
2.6052,9.0624,-8.3876,1.8133,0.469,11.9562,1.4238,-3.9697,-0.5359,1404,2019-08-07 16:59:16:377
2.6052,9.0624,-8.3876,1.8133,0.469,11.9562,1.4238,-3.9697,-0.5359,1409,2019-08-07 16:59:16:382
2.6052,9.0624,-8.3876,1.8133,0.469,11.9562,1.8861,-1.9979,-0.4719,1414,2019-08-07 16:59:16:387
4.7246,8.9669,1.4501,-1.7975,-0.0097,2.863,1.8861,-1.9979,-0.4719,1418,2019-08-07 16:59:16:391
4.7246,8.9669,1.4501,-1.7975,-0.0097,2.863,2.2366,-1.64,-0.5007,1424,2019-08-07 16:59:16:397
4.5811,8.8762,-1.7789,-1.7975,-0.0097,2.863,2.2366,-1.64,-0.5007,1429,2019-08-07 16:59:16:402
4.5811,8.8762,-1.7789,-1.0961,-0.6403,5.2506,2.4603,-1.3833,-0.75,1434,2019-08-07 16:59:16:407
4.5811,8.8762,-1.7789,-1.0961,-0.6403,5.2506,2.4603,-1.3833,-0.75,1438,2019-08-07 16:59:16:411
3.1362,9.9169,-2.3021,-1.0961,-0.6403,5.2506,2.7053,-0.5066,-0.8512,1444,2019-08-07 16:59:16:417
3.1362,9.9169,-2.3021,-0.2869,-1.7077,4.979,2.7053,-0.5066,-0.8512,1449,2019-08-07 16:59:16:422
3.2845,10.9003,-1.3829,-0.2869,-1.7077,4.979,2.7053,-0.5066,-0.8512,1454,2019-08-07 16:59:16:427
3.2845,10.9003,-1.3829,-0.2869,-1.7077,4.979,2.9056,0.2008,-0.8395,1459,2019-08-07 16:59:16:432
3.2845,10.9003,-1.3829,0.13,-2.169,3.6271,2.9056,0.2008,-0.8395,1464,2019-08-07 16:59:16:437
2.4138,11.2774,-0.6099,0.13,-2.169,3.6271,2.9865,0.5576,-0.8448,1469,2019-08-07 16:59:16:442
2.4138,11.2774,-0.6099,0.13,-2.169,3.6271,2.9865,0.5576,-0.8448,1473,2019-08-07 16:59:16:446
1.5861,11.1772,0.578,0.13,-2.169,3.6271,3.1591,0.8527,-0.8288,1479,2019-08-07 16:59:16:452
1.5861,11.1772,0.578,1.2888,-1.8829,1.3963,3.1591,0.8527,-0.8288,1484,2019-08-07 16:59:16:457
1.5861,11.1772,0.578,1.2888,-1.8829,1.3963,3.2805,0.7408,-0.7819,1489,2019-08-07 16:59:16:462
1.61,10.6807,0.4036,1.2888,-1.8829,1.3963,3.2805,0.7408,-0.7819,1494,2019-08-07 16:59:16:467
1.61,10.6807,0.4036,1.2888,-1.8829,1.3963,3.2805,0.7408,-0.7819,1498,2019-08-07 16:59:16:471
1.61,10.6807,0.4036,0.5752,-1.2691,1.3449,3.3082,0.7653,-0.7542,1503,2019-08-07 16:59:16:476
2.2893,10.8144,0.3847,0.5752,-1.2691,1.3449,3.3082,0.7653,-0.7542,1509,2019-08-07 16:59:16:482
2.2893,10.8144,0.3847,0.5752,-1.2691,1.3449,3.3402,0.9805,-0.7372,1513,2019-08-07 16:59:16:486
2.2893,10.8144,0.3847,0.5752,-1.2691,1.3449,3.3402,0.9805,-0.7372,1519,2019-08-07 16:59:16:492
2.5763,11.1867,0.6487,-0.1182,-1.7373,0.3011,3.3072,1.2021,-0.6893,1524,2019-08-07 16:59:16:497
2.5763,11.1867,0.6487,-0.1182,-1.7373,0.3011,3.3072,1.2021,-0.6893,1529,2019-08-07 16:59:16:502
2.3897,11.0101,0.9032,-0.1182,-1.7373,0.3011,3.2251,1.3725,-0.685,1534,2019-08-07 16:59:16:507
2.3897,11.0101,0.9032,-0.1182,-1.7373,0.3011,3.2251,1.3725,-0.685,1539,2019-08-07 16:59:16:512
2.3897,11.0101,0.9032,0.4949,-1.6215,-0.9956,3.125,1.5462,-0.6285,1544,2019-08-07 16:59:16:517
1.4616,11.1056,1.8978,0.4949,-1.6215,-0.9956,3.125,1.5462,-0.6285,1549,2019-08-07 16:59:16:522
1.4616,11.1056,1.8978,0.4949,-1.6215,-0.9956,3.125,1.5462,-0.6285,1554,2019-08-07 16:59:16:527
1.4616,11.1056,1.8978,0.4949,-1.6215,-0.9956,2.9748,1.5409,-0.5295,1558,2019-08-07 16:59:16:531
1.0023,10.442,3.0292,1.1778,-0.878,-3.1413,2.9748,1.5409,-0.5295,1564,2019-08-07 16:59:16:537
1.0023,10.442,3.0292,1.1778,-0.878,-3.1413,2.8502,1.3491,-0.4879,1569,2019-08-07 16:59:16:542
0.4186,9.6257,3.4063,1.1778,-0.878,-3.1413,2.8502,1.3491,-0.4879,1574,2019-08-07 16:59:16:547
0.4186,9.6257,3.4063,1.1778,-0.878,-3.1413,2.6936,1.0817,-0.4325,1579,2019-08-07 16:59:16:552
0.4186,9.6257,3.4063,1.7324,0.6404,-4.7116,2.6936,1.0817,-0.4325,1584,2019-08-07 16:59:16:557
0.2894,8.4131,4.3019,1.7324,0.6404,-4.7116,2.5402,0.7249,-0.3814,1589,2019-08-07 16:59:16:562
0.2894,8.4131,4.3019,1.7324,0.6404,-4.7116,2.5402,0.7249,-0.3814,1593,2019-08-07 16:59:16:566
0.1267,6.2602,4.4574,1.7324,0.6404,-4.7116,2.5061,0.5534,-0.3761,1599,2019-08-07 16:59:16:572
0.1267,6.2602,4.4574,1.8136,3.0622,-4.2762,2.5061,0.5534,-0.3761,1604,2019-08-07 16:59:16:577
0.1267,6.2602,4.4574,1.8136,3.0622,-4.2762,2.5061,0.5534,-0.3761,1609,2019-08-07 16:59:16:582
1.2079,10.991,4.3537,1.8136,3.0622,-4.2762,2.3559,0.4788,-0.2823,1614,2019-08-07 16:59:16:587
1.2079,10.991,4.3537,1.8136,3.0622,-4.2762,2.3559,0.4788,-0.2823,1619,2019-08-07 16:59:16:592
0.9926,7.8069,11.8015,0.8792,1.4524,-12.4723,1.59,0.5108,-0.1513,1624,2019-08-07 16:59:16:597
0.9926,7.8069,11.8015,0.8792,1.4524,-12.4723,1.59,0.5108,-0.1513,1629,2019-08-07 16:59:16:602
0.9926,7.8069,11.8015,0.6701,1.3522,-9.7996,1.3684,0.4042,-0.0991,1634,2019-08-07 16:59:16:607
2.514,9.64,7.2574,0.6701,1.3522,-9.7996,1.3684,0.4042,-0.0991,1639,2019-08-07 16:59:16:612
2.514,9.64,7.2574,0.6701,1.3522,-9.7996,0.1721,0.498,-0.0331,1643,2019-08-07 16:59:16:616
2.4662,10.5852,25.6413,0.6701,1.3522,-9.7996,0.1721,0.498,-0.0331,1649,2019-08-07 16:59:16:622
2.4662,10.5852,25.6413,-0.4576,1.3772,-21.3746,-0.3254,0.1827,0.3952,1654,2019-08-07 16:59:16:627
2.4662,10.5852,25.6413,-0.4576,1.3772,-21.3746,-0.3254,0.1827,0.3952,1658,2019-08-07 16:59:16:631
4.2602,8.4991,15.0729,-0.4576,1.3772,-21.3746,-0.3254,0.1827,0.3952,1665,2019-08-07 16:59:16:638
4.2602,8.4991,15.0729,-0.4576,1.3772,-21.3746,-1.2468,0.7185,0.4005,1669,2019-08-07 16:59:16:642
4.3655,11.0483,30.7369,-2.2965,-1.5329,-31.9257,-1.2468,0.7185,0.4005,1674,2019-08-07 16:59:16:647
4.3655,11.0483,30.7369,-2.2965,-1.5329,-31.9257,-2.3877,0.1177,0.4463,1679,2019-08-07 16:59:16:652
4.3655,11.0483,30.7369,-2.2965,-1.5329,-31.9257,-2.3877,0.1177,0.4463,1684,2019-08-07 16:59:16:657
5.4467,10.3847,22.8366,-2.2965,-1.5329,-31.9257,-2.3877,0.1177,0.4463,1689,2019-08-07 16:59:16:662
5.4467,10.3847,22.8366,-5.7147,-1.5042,-1.06,-2.9555,-0.1188,0.8905,1694,2019-08-07 16:59:16:667
9.4511,13.0581,-0.6571,-5.7147,-1.5042,-1.06,-2.5305,-0.1316,1.0184,1699,2019-08-07 16:59:16:672
9.4511,13.0581,-0.6571,-5.7147,-1.5042,-1.06,-2.5305,-0.1316,1.0184,1704,2019-08-07 16:59:16:677
9.4511,13.0581,-0.6571,-5.7147,-1.5042,-1.06,-1.5504,0.2998,0.7382,1709,2019-08-07 16:59:16:682
6.2313,19.5505,-10.853,-3.8288,-10.0411,10.6638,-1.5504,0.2998,0.7382,1715,2019-08-07 16:59:16:688
6.2313,19.5505,-10.853,-3.8288,-10.0411,10.6638,-1.5504,0.2998,0.7382,1719,2019-08-07 16:59:16:692
-7.7961,24.0904,-5.3426,-3.8288,-10.0411,10.6638,-1.0487,2.0788,-0.2695,1723,2019-08-07 16:59:16:696
-7.7961,24.0904,-5.3426,-3.8288,-10.0411,10.6638,-1.0487,2.0788,-0.2695,1729,2019-08-07 16:59:16:702
-7.7961,24.0904,-5.3426,7.3891,-0.9504,-16.7866,-1.0849,2.4378,-0.0799,1734,2019-08-07 16:59:16:707
-2.8684,11.3777,1.3369,7.3891,-0.9504,-16.7866,-1.0849,2.4378,-0.0799,1738,2019-08-07 16:59:16:711
-2.8684,11.3777,1.3369,7.3891,-0.9504,-16.7866,-0.792,-0.7942,0.7702,1744,2019-08-07 16:59:16:717
-2.8684,11.3777,1.3369,7.3891,-0.9504,-16.7866,-0.792,-0.7942,0.7702,1749,2019-08-07 16:59:16:722
4.7625,5.9165,5.2116,-0.7224,4.2477,-5.6851,-1.1904,-1.8946,0.4112,1754,2019-08-07 16:59:16:727
4.7625,5.9165,5.2116,-0.7224,4.2477,-5.6851,-1.1904,-1.8946,0.4112,1759,2019-08-07 16:59:16:732
2.0259,7.9501,-1.251,-0.7224,4.2477,-5.6851,-0.6258,-1.363,0.1267,1764,2019-08-07 16:59:16:737
2.0259,7.9501,-1.251,-0.7224,4.2477,-5.6851,-0.6258,-1.363,0.1267,1768,2019-08-07 16:59:16:741
2.0259,7.9501,-1.251,-3.0535,2.6214,-5.004,-0.4617,-0.2371,0.3472,1774,2019-08-07 16:59:16:747
6.1594,6.4082,5.7443,-3.0535,2.6214,-5.004,-0.4617,-0.2371,0.3472,1778,2019-08-07 16:59:16:751
6.1594,6.4082,5.7443,-3.0535,2.6214,-5.004,-0.2913,-0.4405,0.3856,1783,2019-08-07 16:59:16:756
4.6715,6.6373,1.6998,-3.0535,2.6214,-5.004,-0.2913,-0.4405,0.3856,1789,2019-08-07 16:59:16:762
4.6715,6.6373,1.6998,-1.4065,2.621,-1.0037,-0.0953,0.1571,0.2247,1794,2019-08-07 16:59:16:767
4.6715,6.6373,1.6998,-1.4065,2.621,-1.0037,-0.0953,0.1571,0.2247,1798,2019-08-07 16:59:16:771
4.4036,7.8785,2.9584,-1.4065,2.621,-1.0037,-0.0953,0.1571,0.2247,1804,2019-08-07 16:59:16:777
4.4036,7.8785,2.9584,-1.4065,2.621,-1.0037,0.1295,0.6077,0.1502,1808,2019-08-07 16:59:16:781
4.4036,7.8785,2.9584,-1.4065,2.621,-1.0037,0.1295,0.6077,0.1502,1814,2019-08-07 16:59:16:787
4.1787,9.9217,3.7079,-1.4782,-0.5006,-3.2757,0.2062,0.1827,0.1534,1819,2019-08-07 16:59:16:792
4.1787,9.9217,3.7079,-1.4782,-0.5006,-3.2757,0.2062,0.1827,0.1534,1823,2019-08-07 16:59:16:796
4.1787,9.2916,0.8749,-1.4782,-0.5006,-3.2757,0.3085,0.1656,0.1086,1829,2019-08-07 16:59:16:802
2.9874,9.2916,0.8749,-0.1844,0.1713,-0.29,0.3085,0.1656,0.1086,1834,2019-08-07 16:59:16:807
2.9874,9.2916,0.8749,-0.1844,0.1713,-0.29,0.4214,0.7142,0.0298,1838,2019-08-07 16:59:16:811
2.8869,9.3727,1.8459,-0.1844,0.1713,-0.29,0.4214,0.7142,0.0298,1844,2019-08-07 16:59:16:817
2.8869,9.3727,1.8459,-0.1844,0.1713,-0.29,0.4214,0.7142,0.0298,1849,2019-08-07 16:59:16:822
2.8869,9.3727,1.8459,0.0792,0.0138,-1.0496,0.4523,0.5832,0.0543,1854,2019-08-07 16:59:16:827
2.5425,9.3775,0.9173,0.0792,0.0138,-1.0496,0.4523,0.5832,0.0543,1859,2019-08-07 16:59:16:832
2.5425,9.3775,0.9173,0.0792,0.0138,-1.0496,0.4267,0.0751,0.1171,1864,2019-08-07 16:59:16:837
2.5425,9.3775,0.9173,0.4759,-0.0543,0.6235,0.4267,0.0751,0.1171,1869,2019-08-07 16:59:16:842
2.064,9.6687,-0.9729,0.4759,-0.0543,0.6235,0.382,0.2998,0.1193,1873,2019-08-07 16:59:16:846
2.064,9.6687,-0.9729,0.4759,-0.0543,0.6235,0.382,0.2998,0.1193,1879,2019-08-07 16:59:16:852
2.0114,10.7094,-0.0867,0.4759,-0.0543,0.6235,0.3255,0.3904,0.1363,1884,2019-08-07 16:59:16:857
2.0114,10.7094,-0.0867,0.7646,-1.3412,-0.0179,0.3255,0.3904,0.1363,1888,2019-08-07 16:59:16:861
2.0114,10.7094,-0.0867,0.7646,-1.3412,-0.0179,0.2754,0.1017,0.1608,1894,2019-08-07 16:59:16:867
1.9252,10.7619,0.6486,0.7646,-1.3412,-0.0179,0.2754,0.1017,0.1608,1898,2019-08-07 16:59:16:871
1.9252,10.7619,0.6486,0.7646,-1.3412,-0.0179,0.2115,-0.2008,0.164,1904,2019-08-07 16:59:16:877
2.8534,10.2654,-0.5251,0.1606,-0.9601,0.492,0.2115,-0.2008,0.164,1909,2019-08-07 16:59:16:882
2.8534,10.2654,-0.5251,0.1606,-0.9601,0.492,0.138,-0.269,0.1438,1914,2019-08-07 16:59:16:887
2.8534,10.2654,-0.5251,-0.5465,-0.6776,1.163,0.138,-0.269,0.1438,1918,2019-08-07 16:59:16:891
3.5202,9.9836,-1.1187,-0.5465,-0.6776,1.163,0.138,-0.269,0.1438,1924,2019-08-07 16:59:16:897
3.5202,9.9836,-1.1187,-0.5465,-0.6776,1.163,0.056,-0.0528,0.1235,1929,2019-08-07 16:59:16:902
3.3288,9.7449,-1.7362,-0.5465,-0.6776,1.163,0.056,-0.0528,0.1235,1934,2019-08-07 16:59:16:907
3.3288,9.7449,-1.7362,-0.3009,-0.4751,1.9174,0.056,-0.0528,0.1235,1939,2019-08-07 16:59:16:912
3.3288,9.7449,-1.7362,-0.3009,-0.4751,1.9174,-0.0782,0.2412,0.0927,1944,2019-08-07 16:59:16:917
2.6973,9.8022,-0.4399,-0.3009,-0.4751,1.9174,-0.0782,0.2412,0.0927,1948,2019-08-07 16:59:16:921
2.6973,9.8022,-0.4399,-0.3009,-0.4751,1.9174,-0.173,0.091,0.1033,1954,2019-08-07 16:59:16:927
2.6973,9.8022,-0.4399,0.7605,-0.747,-0.1956,-0.173,0.091,0.1033,1959,2019-08-07 16:59:16:932
2.0897,10.0791,0.6867,0.7605,-0.747,-0.1956,-0.2093,-0.1433,0.1182,1964,2019-08-07 16:59:16:937
2.0897,10.0791,0.6867,0.7605,-0.747,-0.1956,-0.2093,-0.1433,0.1182,1969,2019-08-07 16:59:16:942
2.9604,9.468,1.0779,0.7605,-0.747,-0.1956,-0.188,-0.2807,0.1022,1974,2019-08-07 16:59:16:947
2.9604,9.468,1.0779,-0.3299,0.0865,-0.9231,-0.188,-0.2807,0.1022,1979,2019-08-07 16:59:16:952
2.9604,9.468,1.0779,-0.3299,0.0865,-0.9231,-0.1677,-0.3106,0.0895,1984,2019-08-07 16:59:16:957
4.1278,9.2532,0.8611,-0.3299,0.0865,-0.9231,-0.1677,-0.3106,0.0895,1989,2019-08-07 16:59:16:962
4.1278,9.2532,0.8611,-0.3299,0.0865,-0.9231,-0.1485,-0.2392,0.0415,1994,2019-08-07 16:59:16:967
4.4723,9.1291,0.5217,-1.6105,0.2357,-0.3891,-0.1485,-0.2392,0.0415,1999,2019-08-07 16:59:16:972
4.4723,9.1291,0.5217,-1.6105,0.2357,-0.3891,-0.1209,-0.0464,0.0,2004,2019-08-07 16:59:16:977
4.4723,9.1291,0.5217,-1.6105,0.2357,-0.3891,-0.1209,-0.0464,0.0,2009,2019-08-07 16:59:16:982
3.9747,9.258,0.286,-1.6105,0.2357,-0.3891,-0.1209,-0.0464,0.0,2013,2019-08-07 16:59:16:986
3.9747,9.258,0.286,-0.5073,0.0132,-0.4277,-0.1081,0.1123,-0.033,2019,2019-08-07 16:59:16:992
3.9747,9.258,0.286,-0.5073,0.0132,-0.4277,-0.1081,0.1123,-0.033,2024,2019-08-07 16:59:16:997
2.8026,9.616,0.9837,-0.5073,0.0132,-0.4277,-0.0985,0.0399,-0.0533,2029,2019-08-07 16:59:17:002
2.8026,9.616,0.9837,-0.5073,0.0132,-0.4277,-0.0985,0.0399,-0.0533,2034,2019-08-07 16:59:17:007
2.8026,9.616,0.9837,0.4712,-0.5903,-0.9418,-0.0985,0.0399,-0.0533,2038,2019-08-07 16:59:17:011
2.3816,9.9788,1.2429,0.4712,-0.5903,-0.9418,-0.0793,-0.0581,-0.0522,2044,2019-08-07 16:59:17:017
2.3816,9.9788,1.2429,0.3638,-0.5264,-0.3445,-0.0537,-0.0198,-0.0501,2049,2019-08-07 16:59:17:022
2.5729,9.8642,0.5029,0.3638,-0.5264,-0.3445,-0.0537,-0.0198,-0.0501,2054,2019-08-07 16:59:17:027
2.5729,9.8642,0.5029,0.3638,-0.5264,-0.3445,-0.0537,-0.0198,-0.0501,2059,2019-08-07 16:59:17:032
2.5729,9.8642,0.5029,0.3638,-0.5264,-0.3445,-0.0527,0.0079,-0.049,2064,2019-08-07 16:59:17:037
2.7213,9.6446,1.0449,0.1274,-0.0936,-0.8307,-0.0527,0.0079,-0.049,2068,2019-08-07 16:59:17:041
2.7213,9.6446,1.0449,0.1274,-0.0936,-0.8307,-0.0335,-0.0347,-0.0469,2074,2019-08-07 16:59:17:047
2.9366,9.5539,0.3426,0.1274,-0.0936,-0.8307,-0.0335,-0.0347,-0.0469,2079,2019-08-07 16:59:17:052
2.9366,9.5539,0.3426,0.1274,-0.0936,-0.8307,-0.0452,0.0537,-0.0426,2084,2019-08-07 16:59:17:057
2.9366,9.5539,0.3426,0.0182,-0.3968,0.0455,-0.0452,0.0537,-0.0426,2088,2019-08-07 16:59:17:061
2.7739,9.8165,0.3756,0.0182,-0.3968,0.0455,-0.0516,0.1241,-0.049,2094,2019-08-07 16:59:17:067
2.7739,9.8165,0.3756,0.0182,-0.3968,0.0455,-0.0516,0.1241,-0.049,2099,2019-08-07 16:59:17:072
2.4247,9.6828,0.8753,0.0182,-0.3968,0.0455,-0.0697,0.0495,-0.0405,2104,2019-08-07 16:59:17:077
2.4247,9.6828,0.8753,0.0182,-0.3968,0.0455,-0.0697,0.0495,-0.0405,2109,2019-08-07 16:59:17:082
2.4247,9.6828,0.8753,0.3124,-0.2507,-0.6231,-0.091,-0.1167,-0.0203,2115,2019-08-07 16:59:17:088
2.8457,9.4489,0.9083,0.3124,-0.2507,-0.6231,-0.091,-0.1167,-0.0203,2118,2019-08-07 16:59:17:091
2.8457,9.4489,0.9083,0.3124,-0.2507,-0.6231,0.0613,0.3478,-0.0938,2124,2019-08-07 16:59:17:097
2.8457,9.4489,0.9083,0.3124,-0.2507,-0.6231,0.0613,0.3478,-0.0938,2129,2019-08-07 16:59:17:102
2.4534,10.6137,-0.9726,0.3809,-1.2286,1.3232,-0.1976,0.2391,0.0053,2134,2019-08-07 16:59:17:107
2.4534,10.6137,-0.9726,0.3809,-1.2286,1.3232,-0.1976,0.2391,0.0053,2139,2019-08-07 16:59:17:112
1.5205,9.7926,1.3231,0.3809,-1.2286,1.3232,-0.075,-0.3542,-0.0469,2144,2019-08-07 16:59:17:117
1.5205,9.7926,1.3231,1.3616,-1.0266,0.812,-0.075,-0.3542,-0.0469,2149,2019-08-07 16:59:17:122
1.5205,9.7926,1.3231,1.3616,-1.0266,0.812,-0.075,-0.3542,-0.0469,2154,2019-08-07 16:59:17:127
1.5205,9.7926,1.3231,1.3616,-1.0266,0.812,-0.1475,-0.1497,0.0255,2159,2019-08-07 16:59:17:132
2.5395,9.9263,0.7291,1.3616,-1.0266,0.812,-0.1475,-0.1497,0.0255,2163,2019-08-07 16:59:17:136
2.5395,9.9263,0.7291,-0.0635,-0.4926,-0.1142,-0.0974,-0.0986,0.0096,2169,2019-08-07 16:59:17:142
2.9414,9.9406,0.4605,-0.0635,-0.4926,-0.1142,-0.0974,-0.0986,0.0096,2173,2019-08-07 16:59:17:146
2.9414,9.9406,0.4605,-0.0635,-0.4926,-0.1142,-0.1219,-0.1774,-0.0171,2179,2019-08-07 16:59:17:152
3.2237,9.3343,0.6396,-0.3882,-0.0873,-0.1977,-0.1219,-0.1774,-0.0171,2184,2019-08-07 16:59:17:157
3.2237,9.3343,0.6396,-0.3882,-0.0873,-0.1977,-0.1304,-0.1795,-0.0682,2189,2019-08-07 16:59:17:162
3.2237,9.3343,0.6396,-0.3882,-0.0873,-0.1977,-0.1304,-0.1795,-0.0682,2194,2019-08-07 16:59:17:167
2.8362,9.5587,0.7009,-0.0789,-0.172,-0.256,-0.1454,-0.1913,-0.0192,2199,2019-08-07 16:59:17:172
2.8362,9.5587,0.7009,-0.0789,-0.172,-0.256,-0.1454,-0.1913,-0.0192,2204,2019-08-07 16:59:17:177
2.8362,9.5587,0.7009,-0.0789,-0.172,-0.256,-0.1454,-0.1913,-0.0192,2209,2019-08-07 16:59:17:182
3.1998,9.6828,0.6302,-0.0789,-0.172,-0.256,-0.1358,-0.0677,-0.0288,2214,2019-08-07 16:59:17:187
3.1998,9.6828,0.6302,-0.0789,-0.172,-0.256,-0.1358,-0.0677,-0.0288,2219,2019-08-07 16:59:17:192
3.1998,9.6828,0.6302,-0.3161,-0.3871,-0.1574,-0.1443,-0.0475,-0.0501,2224,2019-08-07 16:59:17:197
3.0945,9.7783,0.5783,-0.3161,-0.3871,-0.1574,-0.1443,-0.0475,-0.0501,2229,2019-08-07 16:59:17:202
3.0945,9.7783,0.5783,-0.3161,-0.3871,-0.1574,-0.1517,-0.0581,-0.0639,2234,2019-08-07 16:59:17:207
3.0945,9.7783,0.5783,-0.3161,-0.3871,-0.1574,-0.1517,-0.0581,-0.0639,2239,2019-08-07 16:59:17:212
3.262,9.6255,0.6066,-0.4545,-0.2377,-0.1359,-0.1368,0.0101,-0.0884,2244,2019-08-07 16:59:17:217
3.262,9.6255,0.6066,-0.4545,-0.2377,-0.1359,-0.1368,0.0101,-0.0884,2249,2019-08-07 16:59:17:222
3.1615,9.2532,0.7009,-0.4545,-0.2377,-0.1359,-0.1283,0.1486,-0.1193,2253,2019-08-07 16:59:17:226
3.1615,9.2532,0.7009,-0.4545,-0.2377,-0.1359,-0.1283,0.1486,-0.1193,2259,2019-08-07 16:59:17:232
3.1615,9.2532,0.7009,-0.186,-0.081,-0.6267,-0.1113,0.2018,-0.1172,2263,2019-08-07 16:59:17:236
3.0515,9.5253,1.2194,-0.186,-0.081,-0.6267,-0.1113,0.2018,-0.1172,2270,2019-08-07 16:59:17:243
3.0515,9.5253,1.2194,-0.186,-0.081,-0.6267,-0.1017,0.1528,-0.1215,2273,2019-08-07 16:59:17:246
2.9128,9.4155,1.0497,-0.186,-0.081,-0.6267,-0.1017,0.1528,-0.1215,2279,2019-08-07 16:59:17:252
2.9128,9.4155,1.0497,9.0E-4,-0.138,-0.3852,-0.0964,0.1294,-0.1247,2283,2019-08-07 16:59:17:256
2.9128,9.4155,1.0497,9.0E-4,-0.138,-0.3852,-0.0964,0.1294,-0.1247,2289,2019-08-07 16:59:17:262
2.6592,9.7019,1.012,9.0E-4,-0.138,-0.3852,-0.0995,0.0868,-0.1172,2293,2019-08-07 16:59:17:266
2.6592,9.7019,1.012,9.0E-4,-0.138,-0.3852,-0.0995,0.0868,-0.1172,2299,2019-08-07 16:59:17:272
2.6592,9.7019,1.012,0.2337,-0.3422,-0.5601,-0.0964,-0.0038,-0.1097,2304,2019-08-07 16:59:17:277
2.4631,9.6781,1.1817,0.2337,-0.3422,-0.5601,-0.0964,-0.0038,-0.1097,2309,2019-08-07 16:59:17:282
2.4631,9.6781,1.1817,0.2337,-0.3422,-0.5601,-0.0964,-0.0038,-0.1097,2314,2019-08-07 16:59:17:287
2.6209,9.5778,1.2807,0.2337,-0.3422,-0.5601,-0.0878,-0.0762,-0.0948,2319,2019-08-07 16:59:17:292
2.6209,9.5778,1.2807,0.0597,-0.1607,-0.7244,-0.0878,-0.0762,-0.0948,2324,2019-08-07 16:59:17:297
2.6209,9.5778,1.2807,0.0597,-0.1607,-0.7244,-0.0782,-0.1614,-0.0927,2329,2019-08-07 16:59:17:302
2.8506,9.4585,1.2005,0.0597,-0.1607,-0.7244,-0.0782,-0.1614,-0.0927,2334,2019-08-07 16:59:17:307
2.8506,9.4585,1.2005,0.0597,-0.1607,-0.7244,-0.0527,-0.1614,-0.0948,2339,2019-08-07 16:59:17:312
3.109,9.4155,0.6679,-0.3764,0.0102,-0.1834,-0.0527,-0.1614,-0.0948,2344,2019-08-07 16:59:17:317
3.109,9.4155,0.6679,-0.3764,0.0102,-0.1834,-0.0346,-0.0858,-0.0948,2349,2019-08-07 16:59:17:322
3.109,9.4155,0.6679,-0.3764,0.0102,-0.1834,-0.0346,-0.0858,-0.0948,2353,2019-08-07 16:59:17:326
2.9989,9.6399,0.4699,-0.3764,0.0102,-0.1834,-0.0346,-0.0858,-0.0948,2359,2019-08-07 16:59:17:332
2.9989,9.6399,0.4699,0.0755,-0.329,-0.13,-0.0495,0.1166,-0.1097,2363,2019-08-07 16:59:17:336
2.1952,9.8213,0.8376,0.0755,-0.329,-0.13,-0.0495,0.1166,-0.1097,2369,2019-08-07 16:59:17:342
2.1952,9.8213,0.8376,0.0755,-0.329,-0.13,-0.0559,0.1603,-0.0991,2374,2019-08-07 16:59:17:347
2.1952,9.8213,0.8376,0.0755,-0.329,-0.13,-0.0559,0.1603,-0.0991,2379,2019-08-07 16:59:17:352
1.9751,9.7687,0.847,0.686,-0.3469,-0.2273,-0.0559,0.1603,-0.0991,2383,2019-08-07 16:59:17:356
1.9751,9.7687,0.847,0.686,-0.3469,-0.2273,-0.0793,0.1177,-0.0735,2389,2019-08-07 16:59:17:362
1.9751,9.7687,0.847,0.686,-0.3469,-0.2273,-0.0793,0.1177,-0.0735,2393,2019-08-07 16:59:17:366
1.9751,9.9072,0.8234,0.686,-0.3469,-0.2273,-0.1006,0.0633,-0.0469,2399,2019-08-07 16:59:17:372
1.9751,9.9072,0.8234,0.5632,-0.3531,-0.0675,-0.1006,0.0633,-0.0469,2404,2019-08-07 16:59:17:377
2.1521,9.8404,0.6585,0.5632,-0.3531,-0.0675,-0.1198,0.0016,-0.0277,2409,2019-08-07 16:59:17:382
2.1521,9.8404,0.6585,0.5632,-0.3531,-0.0675,-0.1198,0.0016,-0.0277,2414,2019-08-07 16:59:17:387
2.1521,9.8404,0.6585,0.5632,-0.3531,-0.0675,-0.1358,-0.0219,-0.0096,2419,2019-08-07 16:59:17:392
2.1761,9.8117,1.0827,0.4027,-0.2621,-0.4612,-0.1358,-0.0219,-0.0096,2424,2019-08-07 16:59:17:397
2.1761,9.8117,1.0827,0.4027,-0.2621,-0.4612,-0.1454,-0.1092,0.0117,2429,2019-08-07 16:59:17:402
2.31,9.721,1.3373,0.4027,-0.2621,-0.4612,-0.1454,-0.1092,0.0117,2434,2019-08-07 16:59:17:407
2.31,9.721,1.3373,0.4027,-0.2621,-0.4612,-0.1411,-0.2552,0.0255,2438,2019-08-07 16:59:17:411
2.31,9.721,1.3373,-0.0764,-0.1885,-0.6275,-0.1411,-0.2552,0.0255,2444,2019-08-07 16:59:17:417
2.7837,9.5253,1.3702,-0.0764,-0.1885,-0.6275,-0.1347,-0.3031,0.0181,2449,2019-08-07 16:59:17:422
2.7837,9.5253,1.3702,-0.0764,-0.1885,-0.6275,-0.1347,-0.3031,0.0181,2453,2019-08-07 16:59:17:426
3.0086,9.2245,1.507,-0.0764,-0.1885,-0.6275,-0.0974,-0.2861,0.0181,2459,2019-08-07 16:59:17:432
3.0086,9.2245,1.507,-0.535,0.2612,-0.5394,-0.0974,-0.2861,0.0181,2463,2019-08-07 16:59:17:436
3.0086,9.2245,1.507,-0.535,0.2612,-0.5394,-0.0974,-0.2861,0.0181,2469,2019-08-07 16:59:17:442
3.3052,9.3248,0.8423,-0.535,0.2612,-0.5394,-0.0665,-0.1327,0.0096,2473,2019-08-07 16:59:17:446
3.3052,9.3248,0.8423,-0.535,0.2612,-0.5394,-0.0665,-0.1327,0.0096,2479,2019-08-07 16:59:17:452
3.3052,9.3248,0.8423,-0.3978,0.0149,-0.3431,-0.0442,0.0292,-0.0011,2483,2019-08-07 16:59:17:456
2.9894,9.4489,1.177,-0.3978,0.0149,-0.3431,-0.0442,0.0292,-0.0011,2489,2019-08-07 16:59:17:462
2.9894,9.4489,1.177,-0.3978,0.0149,-0.3431,-0.026,0.041,-0.0096,2493,2019-08-07 16:59:17:466
2.6641,9.4823,1.0827,-0.0299,-0.0714,-0.3748,-0.026,0.041,-0.0096,2499,2019-08-07 16:59:17:472
2.6641,9.4823,1.0827,-0.0299,-0.0714,-0.3748,-0.0207,0.0324,-0.0117,2504,2019-08-07 16:59:17:477
2.6641,9.4823,1.0827,-0.0299,-0.0714,-0.3748,-0.0207,0.0324,-0.0117,2509,2019-08-07 16:59:17:482
2.4632,9.6017,1.3137,-0.0299,-0.0714,-0.3748,-0.0207,0.0324,-0.0117,2513,2019-08-07 16:59:17:486
2.4632,9.6017,1.3137,0.3012,-0.1903,-0.6012,-0.0069,0.0133,-0.0032,2518,2019-08-07 16:59:17:491
2.4632,9.6017,1.3137,0.3012,-0.1903,-0.6012,-0.0069,0.0133,-0.0032,2524,2019-08-07 16:59:17:497
2.2814,9.53,1.2948,0.3012,-0.1903,-0.6012,0.0038,-0.0155,0.0181,2529,2019-08-07 16:59:17:502
2.2814,9.53,1.2948,0.201,-0.2241,-0.4097,0.0038,-0.0155,0.0181,2534,2019-08-07 16:59:17:507
2.4967,9.7831,1.045,0.201,-0.2241,-0.4097,0.0187,-0.0464,0.0394,2539,2019-08-07 16:59:17:512
2.4967,9.7831,1.045,0.201,-0.2241,-0.4097,0.0187,-0.0464,0.0394,2543,2019-08-07 16:59:17:516
2.4967,9.7831,1.045,0.201,-0.2241,-0.4097,0.0102,-0.0496,0.0383,2549,2019-08-07 16:59:17:522
2.5541,9.8785,0.847,0.201,-0.2241,-0.4097,0.0102,-0.0496,0.0383,2553,2019-08-07 16:59:17:526
2.5541,9.8785,0.847,0.1068,-0.4738,-0.1024,0.0102,-0.0496,0.0383,2559,2019-08-07 16:59:17:532
2.602,9.8022,0.9366,0.1068,-0.4738,-0.1024,6.0E-4,-0.0549,0.0458,2564,2019-08-07 16:59:17:537
2.602,9.8022,0.9366,0.1068,-0.4738,-0.1024,6.0E-4,-0.0549,0.0458,2568,2019-08-07 16:59:17:541
2.602,9.8022,0.9366,0.1068,-0.4738,-0.1024,-0.0037,-0.0709,0.0426,2574,2019-08-07 16:59:17:547
2.6067,9.7067,1.0827,0.062,-0.2945,-0.3583,-0.0037,-0.0709,0.0426,2579,2019-08-07 16:59:17:552
2.6067,9.7067,1.0827,0.062,-0.2945,-0.3583,-0.0069,-0.0986,0.0437,2583,2019-08-07 16:59:17:556
2.7933,9.573,1.0262,0.062,-0.2945,-0.3583,-0.0122,-0.0996,0.0405,2589,2019-08-07 16:59:17:562
2.7933,9.573,1.0262,0.062,-0.2945,-0.3583,-0.0122,-0.0996,0.0405,2594,2019-08-07 16:59:17:567
2.7933,9.573,1.0262,-0.0577,-0.1396,-0.3454,-0.0122,-0.0996,0.0405,2599,2019-08-07 16:59:17:572
2.8603,9.4346,1.2477,-0.0577,-0.1396,-0.3454,-0.0026,-0.0815,0.0319,2603,2019-08-07 16:59:17:576
2.8603,9.4346,1.2477,-0.0577,-0.1396,-0.3454,-0.0026,-0.0815,0.0319,2609,2019-08-07 16:59:17:582
2.8603,9.4346,1.2477,-0.0577,-0.1396,-0.3454,0.008,-0.0858,0.0394,2614,2019-08-07 16:59:17:587
2.8508,9.4823,1.0403,-0.1634,-0.0752,-0.3185,0.008,-0.0858,0.0394,2618,2019-08-07 16:59:17:591
2.8508,9.4823,1.0403,-0.1634,-0.0752,-0.3185,-0.0026,-0.1028,0.049,2624,2019-08-07 16:59:17:597
2.8651,9.6971,0.9837,-0.1634,-0.0752,-0.3185,-0.0026,-0.1028,0.049,2629,2019-08-07 16:59:17:602
2.8651,9.6971,0.9837,-0.1634,-0.0752,-0.3185,-0.0218,-0.1423,0.033,2634,2019-08-07 16:59:17:607
2.8651,9.6971,0.9837,0.3343,-0.4503,-2.2615,-0.0218,-0.1423,0.033,2639,2019-08-07 16:59:17:612
2.5302,9.4107,1.2619,0.3343,-0.4503,-2.2615,0.0219,-0.4299,0.0287,2645,2019-08-07 16:59:17:618
2.5302,9.4107,1.2619,0.3343,-0.4503,-2.2615,0.0219,-0.4299,0.0287,2648,2019-08-07 16:59:17:621
2.9847,9.721,0.88,0.3343,-0.4503,-2.2615,0.0219,-0.4299,0.0287,2654,2019-08-07 16:59:17:627
2.9847,9.721,0.88,-0.2998,-0.2567,-0.3033,-0.0047,-0.0261,0.0383,2658,2019-08-07 16:59:17:631
2.9847,9.721,0.88,-0.2998,-0.2567,-0.3033,-0.0047,-0.0261,0.0383,2664,2019-08-07 16:59:17:637
3.0469,9.8403,0.8895,-0.2998,-0.2567,-0.3033,0.0176,0.0239,0.049,2668,2019-08-07 16:59:17:641
3.0469,9.8403,0.8895,-0.2998,-0.2567,-0.3033,0.0176,0.0239,0.049,2674,2019-08-07 16:59:17:647
3.0182,9.7067,0.5077,-0.3002,-0.307,0.1958,0.0379,0.1571,0.0287,2679,2019-08-07 16:59:17:652
3.0182,9.7067,0.5077,-0.3002,-0.307,0.1958,0.0379,0.1571,0.0287,2683,2019-08-07 16:59:17:656
3.0182,9.7067,0.5077,-0.3002,-0.307,0.1958,0.0368,0.2892,0.0245,2689,2019-08-07 16:59:17:662
2.5877,9.7496,1.2194,-0.3002,-0.307,0.1958,0.0368,0.2892,0.0245,2693,2019-08-07 16:59:17:666
2.5877,9.7496,1.2194,0.2126,-0.2268,-0.8611,0.0155,0.0878,0.0181,2699,2019-08-07 16:59:17:672
2.5877,9.7496,1.2194,0.2126,-0.2268,-0.8611,0.0155,0.0878,0.0181,2704,2019-08-07 16:59:17:677
2.7886,9.4823,0.9036,0.2126,-0.2268,-0.8611,0.0283,0.0601,0.0021,2708,2019-08-07 16:59:17:681
2.7886,9.4823,0.9036,0.2126,-0.2268,-0.8611,0.0283,0.0601,0.0021,2714,2019-08-07 16:59:17:687
2.8556,9.6685,0.8376,-0.0932,-0.2509,-0.0483,0.007,0.1198,0.016,2719,2019-08-07 16:59:17:692
2.8556,9.6685,0.8376,-0.0932,-0.2509,-0.0483,0.007,0.1198,0.016,2724,2019-08-07 16:59:17:697