ACCELEROMETER X (m/s²),ACCELEROMETER Y (m/s²),ACCELEROMETER Z (m/s²),LINEAR ACCELERATION X (m/s²),LINEAR ACCELERATION Y (m/s²),LINEAR ACCELERATION Z (m/s²),GYROSCOPE X (rad/s),GYROSCOPE Y (rad/s),GYROSCOPE Z (rad/s),Time since start in ms ,YYYY-MO-DD HH-MI-SS_SSS
2.3157,9.6211,0.9546,-0.3205,-0.1139,0.0915,-0.0463,-0.0187,0.0053,4,2019-08-07 16:57:20:182
2.3157,9.6211,0.9546,-0.0963,-0.1585,0.2163,-0.0463,-0.0187,0.0053,8,2019-08-07 16:57:20:186
2.0047,9.7118,0.8415,-0.0963,-0.1585,0.2163,-0.0591,-0.0165,0.0074,14,2019-08-07 16:57:20:192
2.0047,9.7118,0.8415,-0.0963,-0.1585,0.2163,-0.0591,-0.0165,0.0074,19,2019-08-07 16:57:20:197
2.0047,9.7118,0.8415,-0.0963,-0.1585,0.2163,-0.0612,-0.0602,0.017,24,2019-08-07 16:57:20:202
1.5789,9.8169,1.1102,0.4876,-0.2789,-0.1136,-0.0612,-0.0602,0.017,29,2019-08-07 16:57:20:207
1.5789,9.8169,1.1102,0.4876,-0.2789,-0.1136,-0.075,-0.106,0.0394,34,2019-08-07 16:57:20:212
1.5741,9.8503,0.9735,0.4876,-0.2789,-0.1136,-0.075,-0.106,0.0394,39,2019-08-07 16:57:20:217
1.5741,9.8503,0.9735,0.4876,-0.2789,-0.1136,-0.091,-0.1412,0.0575,45,2019-08-07 16:57:20:223
1.5741,9.8503,0.9735,0.4648,-0.3863,0.0237,-0.091,-0.1412,0.0575,50,2019-08-07 16:57:20:228
1.6985,10.0365,1.096,0.4648,-0.3863,0.0237,-0.091,-0.1412,0.0575,53,2019-08-07 16:57:20:231
1.6985,10.0365,1.096,0.4648,-0.3863,0.0237,-0.1038,-0.2381,0.0767,59,2019-08-07 16:57:20:237
1.6985,10.0365,1.096,0.4648,-0.3863,0.0237,-0.1038,-0.2381,0.0767,63,2019-08-07 16:57:20:241
2.1865,9.8026,1.36,-0.0979,-0.2717,-0.3421,-0.1006,-0.3319,0.0745,69,2019-08-07 16:57:20:247
2.1865,9.8026,1.36,-0.0979,-0.2717,-0.3421,-0.1006,-0.3319,0.0745,74,2019-08-07 16:57:20:252
2.684,9.7166,0.9075,-0.0979,-0.2717,-0.3421,-0.0995,-0.3201,0.0756,79,2019-08-07 16:57:20:257
2.684,9.7166,0.9075,-0.0979,-0.2717,-0.3421,-0.0995,-0.3201,0.0756,84,2019-08-07 16:57:20:262
2.684,9.7166,0.9075,-0.8252,-0.1486,0.3044,-0.09,-0.155,0.0553,88,2019-08-07 16:57:20:266
2.8802,9.6593,0.799,-0.8252,-0.1486,0.3044,-0.09,-0.155,0.0553,94,2019-08-07 16:57:20:272
2.8802,9.6593,0.799,-0.8252,-0.1486,0.3044,-0.0697,0.0037,0.0277,99,2019-08-07 16:57:20:277
2.4783,9.6737,0.8367,-0.8252,-0.1486,0.3044,-0.0697,0.0037,0.0277,103,2019-08-07 16:57:20:281
2.4783,9.6737,0.8367,-0.2494,-0.2001,0.1749,-0.0825,0.0538,0.0277,109,2019-08-07 16:57:20:287
2.4783,9.6737,0.8367,-0.2494,-0.2001,0.1749,-0.0825,0.0538,0.0277,113,2019-08-07 16:57:20:291
2.0286,9.9124,0.8745,-0.2494,-0.2001,0.1749,-0.0995,0.0463,0.017,119,2019-08-07 16:57:20:297
2.0286,9.9124,0.8745,-0.2494,-0.2001,0.1749,-0.0995,0.0463,0.017,123,2019-08-07 16:57:20:301
1.9903,9.984,1.0819,0.1781,-0.5416,-0.0129,-0.123,-0.0102,0.0191,129,2019-08-07 16:57:20:307
1.9903,9.984,1.0819,0.1781,-0.5416,-0.0129,-0.123,-0.0102,0.0191,134,2019-08-07 16:57:20:312
1.9903,9.984,1.0819,0.1781,-0.5416,-0.0129,-0.1507,-0.0922,0.0053,139,2019-08-07 16:57:20:317
2.2725,9.898,0.8792,0.1781,-0.5416,-0.0129,-0.1507,-0.0922,0.0053,144,2019-08-07 16:57:20:322
2.2725,9.898,0.8792,-0.2546,-0.3587,0.077,-0.1603,-0.105,-0.0107,148,2019-08-07 16:57:20:326
2.4974,9.7309,1.2091,-0.2546,-0.3587,0.077,-0.1603,-0.105,-0.0107,154,2019-08-07 16:57:20:332
2.4974,9.7309,1.2091,-0.2546,-0.3587,0.077,-0.1603,-0.105,-0.0107,158,2019-08-07 16:57:20:336
2.4974,9.7309,1.2091,-0.2546,-0.3587,0.077,-0.1464,-0.0954,-0.0256,164,2019-08-07 16:57:20:342
2.7031,9.6784,1.0536,-0.5738,-0.1661,0.0503,-0.1464,-0.0954,-0.0256,168,2019-08-07 16:57:20:346
2.7031,9.6784,1.0536,-0.5738,-0.1661,0.0503,-0.1443,-0.0187,-0.049,174,2019-08-07 16:57:20:352
2.7031,9.6784,1.0536,-0.5738,-0.1661,0.0503,-0.1443,-0.0187,-0.049,179,2019-08-07 16:57:20:357
2.66,9.6116,0.9499,-0.5738,-0.1661,0.0503,-0.1326,0.0612,-0.065,184,2019-08-07 16:57:20:362
2.66,9.6116,0.9499,-0.5038,-0.1104,0.1939,-0.1326,0.0612,-0.065,188,2019-08-07 16:57:20:366
2.66,9.6116,0.9499,-0.5038,-0.1104,0.1939,-0.1326,0.0612,-0.065,194,2019-08-07 16:57:20:372
2.4448,9.583,1.0489,-0.5038,-0.1104,0.1939,-0.1294,0.1198,-0.0767,199,2019-08-07 16:57:20:377
2.4448,9.583,1.0489,-0.5038,-0.1104,0.1939,-0.1294,0.1198,-0.0767,204,2019-08-07 16:57:20:382
2.0142,9.7119,1.1856,0.0925,-0.201,-0.0271,-0.1326,0.1241,-0.0746,209,2019-08-07 16:57:20:387
2.0142,9.7119,1.1856,0.0925,-0.201,-0.0271,-0.1326,0.1241,-0.0746,214,2019-08-07 16:57:20:392
2.0142,9.7119,1.1856,0.0925,-0.201,-0.0271,-0.1347,0.0878,-0.0629,218,2019-08-07 16:57:20:396
1.6601,9.7262,1.36,0.0925,-0.201,-0.0271,-0.1347,0.0878,-0.0629,224,2019-08-07 16:57:20:402
1.6601,9.7262,1.36,0.4242,-0.2058,-0.4436,-0.1358,0.0122,-0.0576,228,2019-08-07 16:57:20:406
1.6984,9.7739,1.7088,0.4242,-0.2058,-0.4436,-0.1358,0.0122,-0.0576,234,2019-08-07 16:57:20:412
1.6984,9.7739,1.7088,0.4242,-0.2058,-0.4436,-0.1358,0.0122,-0.0576,238,2019-08-07 16:57:20:416
1.6984,9.7739,1.7088,0.4242,-0.2058,-0.4436,-0.1187,-0.1177,-0.0544,245,2019-08-07 16:57:20:423
2.0716,9.6546,1.8078,-0.0746,-0.092,-0.6165,-0.1187,-0.1177,-0.0544,249,2019-08-07 16:57:20:427
2.0716,9.6546,1.8078,-0.0746,-0.092,-0.6165,-0.0846,-0.1572,-0.0554,253,2019-08-07 16:57:20:431
2.0716,9.6546,1.8078,-0.0746,-0.092,-0.6165,-0.0846,-0.1572,-0.0554,258,2019-08-07 16:57:20:436
2.4352,9.3634,1.6428,-0.0746,-0.092,-0.6165,-0.0484,-0.0805,-0.0618,264,2019-08-07 16:57:20:442
2.4352,9.3634,1.6428,-0.4064,0.0655,-0.4025,-0.0484,-0.0805,-0.0618,269,2019-08-07 16:57:20:447
2.4352,9.3634,1.6428,-0.4064,0.0655,-0.4025,-0.0079,0.0271,-0.0725,274,2019-08-07 16:57:20:452
2.4639,9.4875,1.8125,-0.4064,0.0655,-0.4025,-0.0079,0.0271,-0.0725,278,2019-08-07 16:57:20:456
2.4639,9.4875,1.8125,-0.3937,-0.0051,-0.7483,0.0443,0.0719,-0.0949,284,2019-08-07 16:57:20:462
2.3825,9.4875,1.8549,-0.3937,-0.0051,-0.7483,0.0443,0.0719,-0.0949,288,2019-08-07 16:57:20:466
2.3825,9.4875,1.8549,-0.3937,-0.0051,-0.7483,0.0869,0.0655,-0.1087,294,2019-08-07 16:57:20:472
2.3825,9.4875,1.8549,-0.4218,-0.0768,-0.3627,0.0869,0.0655,-0.1087,299,2019-08-07 16:57:20:477
2.416,9.6164,1.5485,-0.4218,-0.0768,-0.3627,0.0869,0.0655,-0.1087,303,2019-08-07 16:57:20:481
2.416,9.6164,1.5485,-0.4218,-0.0768,-0.3627,0.138,0.1251,-0.1321,309,2019-08-07 16:57:20:487
2.416,9.6164,1.5485,-0.4218,-0.0768,-0.3627,0.138,0.1251,-0.1321,313,2019-08-07 16:57:20:491
2.1911,9.731,1.8361,-0.0901,-0.2452,-0.7822,0.1774,0.1454,-0.1375,319,2019-08-07 16:57:20:497
2.1911,9.731,1.8361,-0.0901,-0.2452,-0.7822,0.1774,0.1454,-0.1375,323,2019-08-07 16:57:20:501
2.0715,9.8169,1.9728,-0.0901,-0.2452,-0.7822,0.2062,0.0825,-0.1385,329,2019-08-07 16:57:20:507
2.0715,9.8169,1.9728,-0.0901,-0.2452,-0.7822,0.2062,0.0825,-0.1385,333,2019-08-07 16:57:20:511
2.0715,9.8169,1.9728,-0.0901,-0.2452,-0.7822,0.2062,0.0825,-0.1385,339,2019-08-07 16:57:20:517
2.0237,9.9649,1.8691,-0.0334,-0.4308,-0.6956,0.2222,0.009,-0.1471,343,2019-08-07 16:57:20:521
2.0237,9.9649,1.8691,-0.0334,-0.4308,-0.6956,0.2222,0.009,-0.1471,348,2019-08-07 16:57:20:526
2.215,10.0365,1.8643,-0.0334,-0.4308,-0.6956,0.2531,-0.0783,-0.1577,354,2019-08-07 16:57:20:532
2.215,10.0365,1.8643,-0.0334,-0.4308,-0.6956,0.2531,-0.0783,-0.1577,358,2019-08-07 16:57:20:536
2.215,10.0365,1.8643,-0.329,-0.4721,-0.449,0.2722,-0.1486,-0.1556,364,2019-08-07 16:57:20:542
2.3107,9.8312,1.4637,-0.329,-0.4721,-0.449,0.2722,-0.1486,-0.1556,368,2019-08-07 16:57:20:546
2.3107,9.8312,1.4637,-0.329,-0.4721,-0.449,0.3159,-0.0272,-0.1492,374,2019-08-07 16:57:20:552
2.2629,9.5209,0.9263,-0.329,-0.4721,-0.449,0.3159,-0.0272,-0.1492,379,2019-08-07 16:57:20:557
2.2629,9.5209,0.9263,-0.2401,-0.035,-0.0431,0.3575,0.1315,-0.1566,383,2019-08-07 16:57:20:561
2.2629,9.5209,0.9263,-0.2401,-0.035,-0.0431,0.3575,0.1315,-0.1566,389,2019-08-07 16:57:20:567
1.7892,9.8837,1.4448,-0.2401,-0.035,-0.0431,0.3628,0.1454,-0.1598,394,2019-08-07 16:57:20:572
1.7892,9.8837,1.4448,-0.2401,-0.035,-0.0431,0.3628,0.1454,-0.1598,399,2019-08-07 16:57:20:577
1.5644,9.8121,1.2892,0.3756,-0.279,-0.2467,0.3628,0.1454,-0.1598,403,2019-08-07 16:57:20:581
1.5644,9.8121,1.2892,0.3756,-0.279,-0.2467,0.3479,0.0889,-0.1769,409,2019-08-07 16:57:20:587
1.5644,9.8121,1.2892,0.3756,-0.279,-0.2467,0.3479,0.0889,-0.1769,414,2019-08-07 16:57:20:592
1.9806,10.3516,1.7936,0.3756,-0.279,-0.2467,0.3894,0.0516,-0.2238,419,2019-08-07 16:57:20:597
1.9806,10.3516,1.7936,-0.2058,-0.9042,-0.975,0.3894,0.0516,-0.2238,424,2019-08-07 16:57:20:602
2.2868,10.385,2.3829,-0.2058,-0.9042,-0.975,0.5013,-0.0027,-0.2355,429,2019-08-07 16:57:20:607
2.2868,10.385,2.3829,-0.2058,-0.9042,-0.975,0.5013,-0.0027,-0.2355,434,2019-08-07 16:57:20:612
2.2868,10.385,2.3829,-0.2058,-0.9042,-0.975,0.6749,0.0271,-0.2461,439,2019-08-07 16:57:20:617
2.5499,10.2418,3.0758,-0.7329,-0.6391,-2.2256,0.6749,0.0271,-0.2461,445,2019-08-07 16:57:20:623
2.5499,10.2418,3.0758,-0.7329,-0.6391,-2.2256,0.6749,0.0271,-0.2461,448,2019-08-07 16:57:20:626
2.4686,10.5712,5.3054,-0.7329,-0.6391,-2.2256,0.8986,0.0921,-0.2578,454,2019-08-07 16:57:20:632
2.4686,10.5712,5.3054,-0.7329,-0.6391,-2.2256,0.8986,0.0921,-0.2578,458,2019-08-07 16:57:20:636
2.4686,10.5712,5.3054,-0.4461,-1.3769,-4.3575,1.1138,0.1273,-0.2216,464,2019-08-07 16:57:20:642
2.5977,10.6714,6.0078,-0.4461,-1.3769,-4.3575,1.1138,0.1273,-0.2216,469,2019-08-07 16:57:20:647
2.5977,10.6714,6.0078,-0.4461,-1.3769,-4.3575,1.2555,0.0239,-0.2589,474,2019-08-07 16:57:20:652
2.5977,10.6714,6.0078,-0.4461,-1.3769,-4.3575,1.2555,0.0239,-0.2589,478,2019-08-07 16:57:20:656
3.4541,10.8528,8.0536,-1.7171,-1.4766,-7.5019,1.247,-0.204,-0.2333,484,2019-08-07 16:57:20:662
3.4541,10.8528,8.0536,-1.7171,-1.4766,-7.5019,1.247,-0.204,-0.2333,488,2019-08-07 16:57:20:666
4.2196,11.4018,9.034,-1.7171,-1.4766,-7.5019,1.247,-0.204,-0.2333,494,2019-08-07 16:57:20:672
4.2196,11.4018,9.034,-1.7171,-1.4766,-7.5019,1.085,-0.2296,0.083,499,2019-08-07 16:57:20:677
4.6406,11.2443,10.3633,-3.2475,-1.6129,-9.3466,1.085,-0.2296,0.083,504,2019-08-07 16:57:20:682
4.6406,11.2443,10.3633,-3.2475,-1.6129,-9.3466,0.7687,0.5118,0.2727,509,2019-08-07 16:57:20:687
4.6406,11.2443,10.3633,-0.7412,-1.8123,-12.3655,0.7687,0.5118,0.2727,514,2019-08-07 16:57:20:692
0.9711,11.4066,14.2051,-0.7412,-1.8123,-12.3655,0.4832,0.7068,0.3291,519,2019-08-07 16:57:20:697
0.9711,11.4066,14.2051,-0.7412,-1.8123,-12.3655,0.4832,0.7068,0.3291,524,2019-08-07 16:57:20:702
0.9711,11.4066,14.2051,-0.7412,-1.8123,-12.3655,0.0709,0.0772,0.3217,529,2019-08-07 16:57:20:707
-1.9138,11.1583,15.7653,3.9686,-1.5165,-15.4998,0.0709,0.0772,0.3217,533,2019-08-07 16:57:20:711
-1.9138,11.1583,15.7653,3.9686,-1.5165,-15.4998,-0.2924,-0.6291,0.3472,539,2019-08-07 16:57:20:717
-1.9138,11.1583,15.7653,3.9686,-1.5165,-15.4998,-0.2924,-0.6291,0.3472,544,2019-08-07 16:57:20:722
-0.5455,10.3229,15.1997,3.9686,-1.5165,-15.4998,-0.63,-1.1532,0.3472,548,2019-08-07 16:57:20:726
-0.5455,10.3229,15.1997,1.0686,0.0956,-13.2737,-0.63,-1.1532,0.3472,554,2019-08-07 16:57:20:732
1.2007,9.0435,12.9606,1.0686,0.0956,-13.2737,-0.63,-1.1532,0.3472,559,2019-08-07 16:57:20:737
1.2007,9.0435,12.9606,1.0686,0.0956,-13.2737,-0.9762,-1.0552,0.1661,564,2019-08-07 16:57:20:742
1.2007,9.0435,12.9606,1.0686,0.0956,-13.2737,-0.9762,-1.0552,0.1661,569,2019-08-07 16:57:20:747
0.5357,8.9958,11.8764,1.6334,0.588,-11.0423,-1.217,-0.7154,0.017,573,2019-08-07 16:57:20:751
0.5357,8.9958,11.8764,1.6334,0.588,-11.0423,-1.217,-0.7154,0.017,579,2019-08-07 16:57:20:757
-0.3829,9.2058,10.8771,1.6334,0.588,-11.0423,-1.5142,-0.6621,-0.0331,583,2019-08-07 16:57:20:761
-0.3829,9.2058,10.8771,1.6334,0.588,-11.0423,-1.5142,-0.6621,-0.0331,589,2019-08-07 16:57:20:767
-0.3829,9.2058,10.8771,1.6334,0.588,-11.0423,-1.7688,-0.6813,-0.0032,593,2019-08-07 16:57:20:771
-0.2776,9.1008,9.4724,2.1773,0.4764,-8.5214,-1.7688,-0.6813,-0.0032,599,2019-08-07 16:57:20:777
-0.2776,9.1008,9.4724,2.1773,0.4764,-8.5214,-1.984,-0.661,0.0564,604,2019-08-07 16:57:20:782
0.9184,8.8717,7.601,2.1773,0.4764,-8.5214,-1.984,-0.661,0.0564,609,2019-08-07 16:57:20:787
0.9184,8.8717,7.601,0.7021,0.6052,-5.6024,-2.1374,-0.5982,0.1022,613,2019-08-07 16:57:20:791
0.9184,8.8717,7.601,0.7021,0.6052,-5.6024,-2.1374,-0.5982,0.1022,619,2019-08-07 16:57:20:797
1.8466,8.9719,5.9465,0.7021,0.6052,-5.6024,-2.2077,-0.4064,0.1459,624,2019-08-07 16:57:20:802
1.8466,8.9719,5.9465,0.7021,0.6052,-5.6024,-2.2077,-0.4064,0.1459,628,2019-08-07 16:57:20:806
2.4302,9.1724,4.5889,-0.4737,0.2716,-2.7947,-2.1821,-0.0954,0.1683,634,2019-08-07 16:57:20:812
2.4302,9.1724,4.5889,-0.4737,0.2716,-2.7947,-2.1821,-0.0954,0.1683,638,2019-08-07 16:57:20:816
2.4302,9.1724,4.5889,-0.4737,0.2716,-2.7947,-2.1076,0.2444,0.1555,645,2019-08-07 16:57:20:823
2.5929,9.0388,3.665,-0.4737,0.2716,-2.7947,-2.1076,0.2444,0.1555,649,2019-08-07 16:57:20:827
2.5929,9.0388,3.665,-0.4737,0.2716,-2.7947,-1.9978,0.5459,0.1182,653,2019-08-07 16:57:20:831
2.3441,9.0053,2.6609,-0.4862,0.2915,-1.0898,-1.9978,0.5459,0.1182,659,2019-08-07 16:57:20:837
2.3441,9.0053,2.6609,-0.4862,0.2915,-1.0898,-1.9094,0.7632,0.0852,664,2019-08-07 16:57:20:842
2.3441,9.0053,2.6609,-0.4862,0.2915,-1.0898,-1.9094,0.7632,0.0852,669,2019-08-07 16:57:20:847
2.1145,8.3657,0.3276,-0.2167,1.002,2.6901,-1.9084,0.8484,0.0692,674,2019-08-07 16:57:20:852
2.1145,8.3657,0.3276,-0.2167,1.002,2.6901,-1.9084,0.8484,0.0692,679,2019-08-07 16:57:20:857
2.6072,8.2702,-0.4785,-0.2167,1.002,2.6901,-1.9211,0.9177,0.0415,684,2019-08-07 16:57:20:862
2.6072,8.2702,-0.4785,-0.2167,1.002,2.6901,-1.9211,0.9177,0.0415,689,2019-08-07 16:57:20:867
2.6072,8.2702,-0.4785,-0.2167,1.002,2.6901,-1.8615,1.0146,0.0159,694,2019-08-07 16:57:20:872
2.8369,8.8717,-1.4542,-0.8949,0.3644,4.1636,-1.8615,1.0146,0.0159,699,2019-08-07 16:57:20:877
2.8369,8.8717,-1.4542,-0.8949,0.3644,4.1636,-1.837,1.1009,0.0479,703,2019-08-07 16:57:20:881
2.8369,8.8717,-1.4542,-0.8949,0.3644,4.1636,-1.837,1.1009,0.0479,709,2019-08-07 16:57:20:887
2.5689,8.1843,-2.3074,-0.553,1.0548,5.489,-1.7582,1.1947,0.0809,714,2019-08-07 16:57:20:892
2.5689,8.1843,-2.3074,-0.553,1.0548,5.489,-1.7582,1.1947,0.0809,719,2019-08-07 16:57:20:897
2.5689,8.1843,-2.3074,-0.553,1.0548,5.489,-1.7582,1.1947,0.0809,723,2019-08-07 16:57:20:901
1.2301,7.344,-2.2695,-0.553,1.0548,5.489,-1.6804,1.2458,0.0905,729,2019-08-07 16:57:20:907
1.2301,7.344,-2.2695,-0.553,1.0548,5.489,-1.6804,1.2458,0.0905,733,2019-08-07 16:57:20:911
0.4168,6.795,-3.2594,1.2869,2.0914,6.6399,-1.5866,1.1339,0.1619,739,2019-08-07 16:57:20:917
0.4168,6.795,-3.2594,1.2869,2.0914,6.6399,-1.5866,1.1339,0.1619,743,2019-08-07 16:57:20:921
0.4168,6.795,-3.2594,1.2869,2.0914,6.6399,-1.5472,0.8037,0.2269,748,2019-08-07 16:57:20:926
0.4072,6.6852,-4.9281,1.2869,2.0914,6.6399,-1.5472,0.8037,0.2269,754,2019-08-07 16:57:20:932
0.4072,6.6852,-4.9281,1.0583,2.2161,9.671,-1.3928,0.4895,0.3099,759,2019-08-07 16:57:20:937
1.4502,6.2365,-7.0729,1.0583,2.2161,9.671,-1.3928,0.4895,0.3099,764,2019-08-07 16:57:20:942
1.4502,6.2365,-7.0729,1.0583,2.2161,9.671,-1.185,0.3041,0.343,768,2019-08-07 16:57:20:946
1.4502,6.2365,-7.0729,1.0583,2.2161,9.671,-1.185,0.3041,0.343,774,2019-08-07 16:57:20:952
3.096,5.086,-7.9308,-1.2883,3.6685,11.9716,-1.0231,0.1741,0.3664,780,2019-08-07 16:57:20:958
3.096,5.086,-7.9308,-1.2883,3.6685,11.9716,-1.0231,0.1741,0.3664,784,2019-08-07 16:57:20:962
3.096,5.086,-7.9308,-1.2883,3.6685,11.9716,-0.8261,-0.1327,0.4165,789,2019-08-07 16:57:20:967
5.4355,4.9428,-3.4857,-1.2883,3.6685,11.9716,-0.8261,-0.1327,0.4165,795,2019-08-07 16:57:20:973
5.4355,4.9428,-3.4857,-3.3826,4.4491,3.0319,-0.8261,-0.1327,0.4165,798,2019-08-07 16:57:20:976
5.8182,2.6561,-4.1362,-3.3826,4.4491,3.0319,-0.1336,-0.6493,0.3536,804,2019-08-07 16:57:20:982
5.8182,2.6561,-4.1362,-3.3826,4.4491,3.0319,-0.1336,-0.6493,0.3536,809,2019-08-07 16:57:20:987
5.8182,2.6561,-4.1362,-3.3826,4.4491,3.0319,1.7295,-0.6504,-0.0608,814,2019-08-07 16:57:20:992
9.8083,5.3772,-8.8783,-7.7516,3.3758,12.8016,1.7295,-0.6504,-0.0608,819,2019-08-07 16:57:20:997
9.8083,5.3772,-8.8783,-7.7516,3.3758,12.8016,2.8534,-1.2011,-0.4581,824,2019-08-07 16:57:21:002
4.6126,42.4077,8.6995,-7.7516,3.3758,12.8016,2.8534,-1.2011,-0.4581,830,2019-08-07 16:57:21:008
4.6126,42.4077,8.6995,-7.7516,3.3758,12.8016,1.7679,-1.2395,-0.9321,834,2019-08-07 16:57:21:012
4.6126,42.4077,8.6995,7.2933,-29.1989,-13.8297,1.7679,-1.2395,-0.9321,838,2019-08-07 16:57:21:016
-1.7456,35.858,-5.046,7.2933,-29.1989,-13.8297,3.6236,1.054,-0.3036,845,2019-08-07 16:57:21:023
-1.7456,35.858,-5.046,7.2933,-29.1989,-13.8297,3.6236,1.054,-0.3036,849,2019-08-07 16:57:21:027
-1.7456,35.858,-5.046,7.2933,-29.1989,-13.8297,3.6236,1.054,-0.3036,853,2019-08-07 16:57:21:031
-3.2575,19.9516,-15.4305,3.0461,-8.6885,20.399,4.8167,2.1694,0.6093,859,2019-08-07 16:57:21:037
-3.2575,19.9516,-15.4305,3.0461,-8.6885,20.399,4.8167,2.1694,0.6093,864,2019-08-07 16:57:21:042
-0.0807,21.8946,-32.8904,3.0461,-8.6885,20.399,2.6851,2.6786,0.3355,869,2019-08-07 16:57:21:047
-0.0807,21.8946,-32.8904,3.0461,-8.6885,20.399,2.6851,2.6786,0.3355,873,2019-08-07 16:57:21:051
-0.0807,21.8946,-32.8904,9.3742,-0.6366,-59.7344,2.6851,2.6786,0.3355,879,2019-08-07 16:57:21:057
-10.9314,1.5581,8.6665,9.3742,-0.6366,-59.7344,0.6845,-5.3908,0.0852,884,2019-08-07 16:57:21:062
-10.9314,1.5581,8.6665,9.3742,-0.6366,-59.7344,2.6563,-4.203,0.4729,889,2019-08-07 16:57:21:067
-10.9314,1.5581,8.6665,9.3742,-0.6366,-59.7344,2.6563,-4.203,0.4729,894,2019-08-07 16:57:21:072
6.091,-4.5762,-13.8278,-5.279,13.5008,18.548,2.6563,-4.203,0.4729,899,2019-08-07 16:57:21:077
6.091,-4.5762,-13.8278,-5.279,13.5008,18.548,3.0121,0.3382,0.4793,903,2019-08-07 16:57:21:081
15.1284,7.1387,-13.2197,-5.279,13.5008,18.548,3.0121,0.3382,0.4793,909,2019-08-07 16:57:21:087
15.1284,7.1387,-13.2197,-5.279,13.5008,18.548,0.1572,0.2476,0.7297,914,2019-08-07 16:57:21:092
15.1284,7.1387,-13.2197,-6.9943,-7.8731,10.2614,0.1572,0.2476,0.7297,919,2019-08-07 16:57:21:097
7.1052,18.5672,-12.5079,-6.9943,-7.8731,10.2614,0.6035,-0.2893,0.0479,924,2019-08-07 16:57:21:102
7.1052,18.5672,-12.5079,-6.9943,-7.8731,10.2614,0.6035,-0.2893,0.0479,929,2019-08-07 16:57:21:107
-6.1758,14.92,12.5271,-6.9943,-7.8731,10.2614,0.5897,1.8306,-0.3708,934,2019-08-07 16:57:21:112
-6.1758,14.92,12.5271,4.9506,-4.9125,7.3191,0.5897,1.8306,-0.3708,939,2019-08-07 16:57:21:117
-0.7457,11.8314,-5.046,4.9506,-4.9125,7.3191,1.3034,1.6378,0.294,944,2019-08-07 16:57:21:122
-0.7457,11.8314,-5.046,4.9506,-4.9125,7.3191,1.3034,1.6378,0.294,949,2019-08-07 16:57:21:127
-0.7457,11.8314,-5.046,4.9506,-4.9125,7.3191,0.3553,-0.4139,0.1789,954,2019-08-07 16:57:21:132
1.1967,10.4661,-2.9342,1.0047,-0.9644,3.9866,0.3553,-0.4139,0.1789,959,2019-08-07 16:57:21:137
1.1967,10.4661,-2.9342,1.0047,-0.9644,3.9866,-0.1848,-2.0331,0.2034,964,2019-08-07 16:57:21:142
1.1967,10.4661,-2.9342,1.0047,-0.9644,3.9866,-0.1848,-2.0331,0.2034,969,2019-08-07 16:57:21:147
2.9812,8.5136,-4.8385,1.0047,-0.9644,3.9866,0.0357,-1.0115,0.3142,974,2019-08-07 16:57:21:152
2.9812,8.5136,-4.8385,-2.1427,-0.288,8.0431,0.0357,-1.0115,0.3142,978,2019-08-07 16:57:21:156
3.8233,10.5186,0.2147,-2.1427,-0.288,8.0431,-0.1336,0.809,0.1938,984,2019-08-07 16:57:21:162
3.8233,10.5186,0.2147,-2.1427,-0.288,8.0431,-0.1336,0.809,0.1938,989,2019-08-07 16:57:21:167
3.8233,10.5186,0.2147,-2.1427,-0.288,8.0431,-0.1794,0.4255,0.1289,994,2019-08-07 16:57:21:172
2.5985,11.0246,-2.9577,-0.4076,-1.5921,3.5934,-0.1794,0.4255,0.1289,999,2019-08-07 16:57:21:177
2.5985,11.0246,-2.9577,-0.4076,-1.5921,3.5934,-0.1794,0.4255,0.1289,1004,2019-08-07 16:57:21:182
2.5985,11.0246,-2.9577,-0.4076,-1.5921,3.5934,-0.6545,-0.4735,0.0063,1008,2019-08-07 16:57:21:186
3.7802,10.4661,-1.0015,-1.4667,-0.9922,2.0644,-0.6545,-0.4735,0.0063,1014,2019-08-07 16:57:21:192
3.7802,10.4661,-1.0015,-1.4667,-0.9922,2.0644,-0.8346,-0.6216,-0.0842,1019,2019-08-07 16:57:21:197
5.4547,10.657,-2.6513,-1.4667,-0.9922,2.0644,-0.8346,-0.6216,-0.0842,1024,2019-08-07 16:57:21:202
5.4547,10.657,-2.6513,-3.0076,-1.4085,3.4428,-0.8644,-0.0954,-0.1641,1029,2019-08-07 16:57:21:207
5.4547,10.657,-2.6513,-3.0076,-1.4085,3.4428,-0.8644,-0.0954,-0.1641,1033,2019-08-07 16:57:21:211
4.6558,10.6427,-2.1941,-3.0076,-1.4085,3.4428,-0.8644,-0.0954,-0.1641,1039,2019-08-07 16:57:21:217
4.6558,10.6427,-2.1941,-3.0076,-1.4085,3.4428,-1.0838,0.27,-0.2397,1044,2019-08-07 16:57:21:222
3.3544,10.2274,-2.5665,-1.0734,-0.7843,3.9306,-1.4641,0.2231,-0.4485,1049,2019-08-07 16:57:21:227
3.3544,10.2274,-2.5665,-1.0734,-0.7843,3.9306,-1.4641,0.2231,-0.4485,1054,2019-08-07 16:57:21:232
3.3544,10.2274,-2.5665,-1.0734,-0.7843,3.9306,-1.4641,0.2231,-0.4485,1058,2019-08-07 16:57:21:236
2.4502,11.0437,-1.6709,-1.0734,-0.7843,3.9306,-1.6953,0.0293,-0.6403,1063,2019-08-07 16:57:21:241
2.4502,11.0437,-1.6709,-1.0734,-0.7843,3.9306,-1.6953,0.0293,-0.6403,1069,2019-08-07 16:57:21:247
2.4502,11.0437,-1.6709,-0.6608,-1.7455,4.5525,-1.9062,-0.0954,-0.6616,1074,2019-08-07 16:57:21:252
3.1487,11.2251,-3.481,-0.6608,-1.7455,4.5525,-1.9062,-0.0954,-0.6616,1078,2019-08-07 16:57:21:256
3.1487,11.2251,-3.481,-0.6608,-1.7455,4.5525,-2.0841,0.2231,-0.6871,1084,2019-08-07 16:57:21:262
2.5985,12.0748,-5.0224,-0.6608,-1.7455,4.5525,-2.0841,0.2231,-0.6871,1089,2019-08-07 16:57:21:267
2.5985,12.0748,-5.0224,-0.1409,-3.0899,5.9354,-2.2929,0.8325,-0.6935,1093,2019-08-07 16:57:21:271
2.5985,12.0748,-5.0224,-0.1409,-3.0899,5.9354,-2.2929,0.8325,-0.6935,1099,2019-08-07 16:57:21:277
-0.0519,13.2349,-2.7173,-0.1409,-3.0899,5.9354,-2.2631,0.9635,-0.5167,1103,2019-08-07 16:57:21:281
-0.0519,13.2349,-2.7173,-0.1409,-3.0899,5.9354,-2.2631,0.9635,-0.5167,1109,2019-08-07 16:57:21:287
-1.2767,13.865,0.9312,3.0918,-4.7157,3.2675,-2.4389,0.7707,-0.1726,1113,2019-08-07 16:57:21:291
-1.2767,13.865,0.9312,3.0918,-4.7157,3.2675,-2.4389,0.7707,-0.1726,1118,2019-08-07 16:57:21:296
-1.2767,13.865,0.9312,3.0918,-4.7157,3.2675,-2.4943,0.2008,0.1171,1124,2019-08-07 16:57:21:302
0.0725,12.915,-1.0109,3.0918,-4.7157,3.2675,-2.4943,0.2008,0.1171,1129,2019-08-07 16:57:21:307
0.0725,12.915,-1.0109,1.5496,-3.4524,1.8671,-2.6136,-0.0943,0.3046,1134,2019-08-07 16:57:21:312
0.0725,12.915,-1.0109,1.5496,-3.4524,1.8671,-2.6136,-0.0943,0.3046,1138,2019-08-07 16:57:21:316
-0.0375,11.607,-0.8177,1.5496,-3.4524,1.8671,-2.6136,-0.0943,0.3046,1144,2019-08-07 16:57:21:322
-0.0375,11.607,-0.8177,1.5496,-3.4524,1.8671,-2.5731,0.2945,0.3014,1148,2019-08-07 16:57:21:326
0.1777,11.6404,2.8073,1.7132,-2.6317,0.5845,-2.5731,0.2945,0.3014,1154,2019-08-07 16:57:21:332
0.1777,11.6404,2.8073,1.7132,-2.6317,0.5845,-2.5092,-0.1646,0.1075,1158,2019-08-07 16:57:21:336
0.1777,11.6404,2.8073,1.7132,-2.6317,0.5845,-2.5092,-0.1646,0.1075,1164,2019-08-07 16:57:21:342
0.1682,12.7957,1.9258,1.7132,-2.6317,0.5845,-2.3867,-0.872,0.1874,1169,2019-08-07 16:57:21:347
0.1682,12.7957,1.9258,0.4991,-3.634,1.5828,-2.3867,-0.872,0.1874,1174,2019-08-07 16:57:21:352
0.1682,12.7957,1.9258,0.4991,-3.634,1.5828,-2.0319,-1.1148,0.2024,1179,2019-08-07 16:57:21:357
3.1201,11.9841,0.6908,0.4991,-3.634,1.5828,-2.0319,-1.1148,0.2024,1185,2019-08-07 16:57:21:363
3.1201,11.9841,0.6908,0.4991,-3.634,1.5828,-2.0319,-1.1148,0.2024,1189,2019-08-07 16:57:21:367
3.6463,9.9648,-4.7065,-1.2341,-0.6771,9.8249,-1.5291,-1.232,0.1949,1194,2019-08-07 16:57:21:372
3.6463,9.9648,-4.7065,-1.2341,-0.6771,9.8249,-1.5291,-1.232,0.1949,1199,2019-08-07 16:57:21:377
1.1442,6.6183,-3.8581,-1.2341,-0.6771,9.8249,-0.8527,-1.1724,0.2961,1204,2019-08-07 16:57:21:382
1.1442,6.6183,-3.8581,-1.2341,-0.6771,9.8249,-0.8527,-1.1724,0.2961,1208,2019-08-07 16:57:21:386
1.1442,6.6183,-3.8581,0.6339,3.1281,6.6404,0.0262,-1.1851,0.2578,1214,2019-08-07 16:57:21:392
2.101,5.4583,-2.2459,0.6339,3.1281,6.6404,0.0262,-1.1851,0.2578,1219,2019-08-07 16:57:21:397
2.101,5.4583,-2.2459,0.6339,3.1281,6.6404,0.0262,-1.1851,0.2578,1224,2019-08-07 16:57:21:402
2.101,5.4583,-2.2459,0.6339,3.1281,6.6404,1.0243,-1.9415,-0.0735,1228,2019-08-07 16:57:21:406
2.2733,7.5827,-3.5847,0.0617,0.795,6.6498,1.0243,-1.9415,-0.0735,1233,2019-08-07 16:57:21:411
2.2733,7.5827,-3.5847,0.0617,0.795,6.6498,1.5772,-2.4528,-0.2227,1239,2019-08-07 16:57:21:417
2.2733,7.5827,-3.5847,0.0617,0.795,6.6498,1.5772,-2.4528,-0.2227,1244,2019-08-07 16:57:21:422
2.8378,9.4635,-7.1294,-0.3871,-0.6793,10.7444,1.8286,-1.7455,-0.1801,1249,2019-08-07 16:57:21:427
2.8378,9.4635,-7.1294,-0.3871,-0.6793,10.7444,1.8286,-1.7455,-0.1801,1254,2019-08-07 16:57:21:432
5.7514,9.3108,-0.5348,-0.3871,-0.6793,10.7444,1.9319,-0.3478,-0.2973,1258,2019-08-07 16:57:21:436
5.7514,9.3108,-0.5348,-2.6362,-0.2966,2.3751,1.9319,-0.3478,-0.2973,1264,2019-08-07 16:57:21:442
5.7514,9.3108,-0.5348,-2.6362,-0.2966,2.3751,2.3186,-0.1998,-0.4443,1268,2019-08-07 16:57:21:446
3.3784,10.7572,-2.0809,-2.6362,-0.2966,2.3751,2.3186,-0.1998,-0.4443,1274,2019-08-07 16:57:21:452
3.3784,10.7572,-2.0809,-2.6362,-0.2966,2.3751,2.3186,-0.1998,-0.4443,1279,2019-08-07 16:57:21:457
3.144,11.9793,-0.7988,-2.6362,-0.2966,2.3751,2.4337,0.1965,-0.4112,1284,2019-08-07 16:57:21:462
3.144,11.9793,-0.7988,-0.7506,-2.7294,2.7861,2.4337,0.1965,-0.4112,1288,2019-08-07 16:57:21:466
3.144,11.9793,-0.7988,-0.7506,-2.7294,2.7861,2.5072,0.3169,-0.3985,1294,2019-08-07 16:57:21:472
2.4264,11.5545,0.21,-0.0454,-2.3709,2.2858,2.5072,0.3169,-0.3985,1299,2019-08-07 16:57:21:477
2.4264,11.5545,0.21,-0.0454,-2.3709,2.2858,2.6073,0.3424,-0.3995,1304,2019-08-07 16:57:21:482
2.4264,11.5545,0.21,-0.0454,-2.3709,2.2858,2.6073,0.3424,-0.3995,1308,2019-08-07 16:57:21:486
1.1059,12.1417,-0.2803,1.2285,-2.7339,1.7907,2.5359,0.2125,-0.3409,1314,2019-08-07 16:57:21:492
1.1059,12.1417,-0.2803,1.2285,-2.7339,1.7907,2.5359,0.2125,-0.3409,1319,2019-08-07 16:57:21:497
1.326,11.3731,-0.1577,1.2285,-2.7339,1.7907,2.5626,-0.1391,-0.2557,1323,2019-08-07 16:57:21:501
1.326,11.3731,-0.1577,1.2285,-2.7339,1.7907,2.5626,-0.1391,-0.2557,1329,2019-08-07 16:57:21:507
1.326,11.3731,-0.1577,1.2285,-2.7339,1.7907,2.5828,-0.3244,-0.195,1334,2019-08-07 16:57:21:512
2.0102,11.206,0.0591,0.3158,-1.7579,1.4768,2.5828,-0.3244,-0.195,1338,2019-08-07 16:57:21:516
2.0102,11.206,0.0591,0.3158,-1.7579,1.4768,2.5828,-0.3244,-0.195,1344,2019-08-07 16:57:21:522
1.9528,10.7859,1.3083,0.3158,-1.7579,1.4768,2.5295,-0.1689,-0.163,1349,2019-08-07 16:57:21:527
1.9528,10.7859,1.3083,0.5948,-1.1069,-0.7103,2.5295,-0.1689,-0.163,1354,2019-08-07 16:57:21:532
1.9528,10.7859,1.3083,0.5948,-1.1069,-0.7103,2.4454,0.0516,-0.1822,1359,2019-08-07 16:57:21:537
1.1203,9.9361,2.4066,0.5948,-1.1069,-0.7103,2.4454,0.0516,-0.1822,1364,2019-08-07 16:57:21:542
1.1203,9.9361,2.4066,1.2843,-0.202,-2.0176,2.3495,0.1347,-0.2088,1368,2019-08-07 16:57:21:546
0.1443,8.9814,3.9433,1.2843,-0.202,-2.0176,2.3495,0.1347,-0.2088,1374,2019-08-07 16:57:21:552
0.1443,8.9814,3.9433,1.2843,-0.202,-2.0176,2.3495,0.1347,-0.2088,1379,2019-08-07 16:57:21:557
0.1443,8.9814,3.9433,2.1165,1.0571,-3.164,2.1418,0.0601,-0.1992,1384,2019-08-07 16:57:21:562
0.1109,8.399,3.5238,2.1165,1.0571,-3.164,2.1418,0.0601,-0.1992,1388,2019-08-07 16:57:21:566
0.1109,8.399,3.5238,2.1165,1.0571,-3.164,1.9309,0.2093,-0.1982,1394,2019-08-07 16:57:21:572
0.2257,8.5135,3.7312,2.1165,1.0571,-3.164,1.9309,0.2093,-0.1982,1399,2019-08-07 16:57:21:577
0.2257,8.5135,3.7312,1.7659,1.0425,-3.7459,1.753,0.2551,-0.2046,1404,2019-08-07 16:57:21:582
0.2257,8.5135,3.7312,1.7659,1.0425,-3.7459,1.753,0.2551,-0.2046,1408,2019-08-07 16:57:21:586
0.3596,8.5947,3.8349,1.7659,1.0425,-3.7459,1.6624,0.2551,-0.1982,1414,2019-08-07 16:57:21:592
0.3596,8.5947,3.8349,1.4395,1.1906,-4.0159,1.6624,0.2551,-0.1982,1419,2019-08-07 16:57:21:597
0.3596,8.5947,3.8349,1.4395,1.1906,-4.0159,1.6624,0.2551,-0.1982,1423,2019-08-07 16:57:21:601
1.0247,8.1125,4.1224,1.4395,1.1906,-4.0159,1.4451,0.4309,-0.2333,1429,2019-08-07 16:57:21:607
1.0247,8.1125,4.1224,1.4395,1.1906,-4.0159,1.4451,0.4309,-0.2333,1434,2019-08-07 16:57:21:612
1.8906,10.299,3.6275,0.1049,-0.7,-3.9661,1.3183,0.4458,-0.2237,1438,2019-08-07 16:57:21:616
1.8906,10.299,3.6275,0.1049,-0.7,-3.9661,1.3183,0.4458,-0.2237,1444,2019-08-07 16:57:21:622
2.4169,8.6138,9.1144,0.1049,-0.7,-3.9661,0.9838,0.5054,-0.162,1448,2019-08-07 16:57:21:626
2.4169,8.6138,9.1144,0.1049,-0.7,-3.9661,0.9838,0.5054,-0.162,1454,2019-08-07 16:57:21:632
2.4169,8.6138,9.1144,-0.6933,1.6486,-6.8389,1.1074,1.0445,-0.31,1459,2019-08-07 16:57:21:637
2.4408,9.2678,5.7864,-0.6933,1.6486,-6.8389,1.1074,1.0445,-0.31,1463,2019-08-07 16:57:21:641
2.4408,9.2678,5.7864,-0.6933,1.6486,-6.8389,1.1074,1.0445,-0.31,1468,2019-08-07 16:57:21:646
1.948,11.0484,10.3352,-0.6933,1.6486,-6.8389,0.7665,0.8921,-0.2781,1474,2019-08-07 16:57:21:652
1.948,11.0484,10.3352,-0.344,-0.9731,-10.8535,0.7665,0.8921,-0.2781,1479,2019-08-07 16:57:21:657
1.948,9.7309,8.6524,-0.344,-0.9731,-10.8535,0.6536,0.9827,-0.0256,1484,2019-08-07 16:57:21:662
3.9,9.7309,8.6524,-2.0084,-0.2639,-10.0642,0.6536,0.9827,-0.0256,1489,2019-08-07 16:57:21:667
3.9,9.7309,8.6524,-2.0084,-0.2639,-10.0642,0.2573,0.9646,-0.114,1494,2019-08-07 16:57:21:672
1.7854,11.1153,13.8046,-2.0084,-0.2639,-10.0642,0.2573,0.9646,-0.114,1499,2019-08-07 16:57:21:677
1.7854,11.1153,13.8046,-2.0084,-0.2639,-10.0642,0.2573,0.9646,-0.114,1504,2019-08-07 16:57:21:682
1.7854,11.1153,13.8046,-0.0967,-0.7246,-13.1676,-0.0111,0.6013,0.1278,1509,2019-08-07 16:57:21:687
2.2399,10.2894,13.4416,-0.0967,-0.7246,-13.1676,-0.0111,0.6013,0.1278,1514,2019-08-07 16:57:21:692
2.2399,10.2894,13.4416,-0.0967,-0.7246,-13.1676,-0.3435,0.2913,0.164,1519,2019-08-07 16:57:21:697
2.2399,10.2894,13.4416,-0.0967,-0.7246,-13.1676,-0.3435,0.2913,0.164,1524,2019-08-07 16:57:21:702
1.2304,9.7595,14.7992,0.7371,-0.1569,-15.194,-0.6758,-0.0709,0.2205,1528,2019-08-07 16:57:21:706
1.2304,9.7595,14.7992,0.7371,-0.1569,-15.194,-0.6758,-0.0709,0.2205,1534,2019-08-07 16:57:21:712
1.2304,9.7595,14.7992,0.7371,-0.1569,-15.194,-0.6758,-0.0709,0.3739,1539,2019-08-07 16:57:21:717
2.3308,8.9718,15.8645,0.7371,-0.1569,-15.194,-1.1179,-0.6525,0.3739,1543,2019-08-07 16:57:21:721
2.3308,8.9718,15.8645,-0.9905,1.1451,-15.3443,-1.1179,-0.6525,0.3739,1549,2019-08-07 16:57:21:727
2.3308,8.9718,15.8645,-0.9905,1.1451,-15.3443,-1.3981,-0.8059,0.408,1553,2019-08-07 16:57:21:731
4.0292,7.4299,12.2773,-0.9905,1.1451,-15.3443,-1.3981,-0.8059,0.408,1559,2019-08-07 16:57:21:737
4.0292,7.4299,12.2773,-0.9905,1.1451,-15.3443,-1.3299,-0.7122,0.4111,1563,2019-08-07 16:57:21:741
5.7707,8.3512,-0.1577,-3.6384,1.2235,0.2781,-1.3299,-0.7122,0.4111,1568,2019-08-07 16:57:21:746
5.7707,8.3512,-0.1577,-3.6384,1.2235,0.2781,-1.3299,-0.7122,0.4111,1574,2019-08-07 16:57:21:752
5.7707,8.3512,-0.1577,-3.6384,1.2235,0.2781,-0.8367,-0.4192,0.3526,1579,2019-08-07 16:57:21:757
3.857,9.2153,-1.8594,-3.6384,1.2235,0.2781,-0.8367,-0.4192,0.3526,1584,2019-08-07 16:57:21:762
3.857,9.2153,-1.8594,-0.6395,0.3898,1.391,-0.5938,0.1475,0.3547,1589,2019-08-07 16:57:21:767
3.857,9.2153,-1.8594,-0.6395,0.3898,1.391,-0.5938,0.1475,0.3547,1593,2019-08-07 16:57:21:771
2.2543,10.5758,2.8214,-0.6395,0.3898,1.391,-0.2487,0.4351,0.2194,1599,2019-08-07 16:57:21:777
2.2543,10.5758,2.8214,-0.6395,0.3898,1.391,-0.2487,0.4351,0.2194,1604,2019-08-07 16:57:21:782
0.3693,13.5547,5.6356,1.878,-4.012,-5.2865,-0.237,0.3254,0.0596,1608,2019-08-07 16:57:21:786
0.3693,13.5547,5.6356,1.878,-4.012,-5.2865,-0.237,0.3254,0.0596,1614,2019-08-07 16:57:21:792
0.3693,13.5547,5.6356,1.878,-4.012,-5.2865,-0.0537,0.2317,0.1693,1618,2019-08-07 16:57:21:796
1.0965,12.3899,4.7588,1.878,-4.012,-5.2865,-0.0537,0.2317,0.1693,1624,2019-08-07 16:57:21:802
1.0965,12.3899,4.7588,0.4134,-1.7736,-2.1657,0.1444,0.3861,0.1587,1628,2019-08-07 16:57:21:806
1.8237,11.0771,2.1898,0.4134,-1.7736,-2.1657,0.1444,0.3861,0.1587,1634,2019-08-07 16:57:21:812
1.8237,11.0771,2.1898,0.4134,-1.7736,-2.1657,0.1444,0.3861,0.1587,1639,2019-08-07 16:57:21:817
1.8237,11.0771,2.1898,0.4134,-1.7736,-2.1657,0.3063,0.6375,0.1182,1644,2019-08-07 16:57:21:822
1.441,9.6831,1.7373,0.4134,-1.7736,-2.1657,0.3063,0.6375,0.1182,1649,2019-08-07 16:57:21:827
1.441,9.6831,1.7373,0.6807,0.0426,-1.4153,0.3649,0.5363,0.1502,1654,2019-08-07 16:57:21:832
2.2734,8.9289,1.742,0.6807,0.0426,-1.4153,0.3649,0.5363,0.1502,1658,2019-08-07 16:57:21:836
2.2734,8.9289,1.742,0.6807,0.0426,-1.4153,0.3681,0.1134,0.1619,1664,2019-08-07 16:57:21:842
2.2734,8.9289,1.742,-1.1253,0.7292,-0.5224,0.3681,0.1134,0.1619,1668,2019-08-07 16:57:21:846
3.8283,8.7665,0.6012,-1.1253,0.7292,-0.5224,0.3511,-0.1082,0.1619,1674,2019-08-07 16:57:21:852
3.8283,8.7665,0.6012,-1.1253,0.7292,-0.5224,0.3511,-0.1082,0.1619,1679,2019-08-07 16:57:21:857
3.8283,8.7665,0.6012,-2.4168,0.6243,0.3603,0.3308,-0.1955,0.1427,1684,2019-08-07 16:57:21:862
4.8521,9.1437,-0.4829,-2.4168,0.6243,0.3603,0.3308,-0.1955,0.1427,1688,2019-08-07 16:57:21:866
4.8521,9.1437,-0.4829,-2.4168,0.6243,0.3603,0.3085,-0.0144,0.1012,1694,2019-08-07 16:57:21:872
4.8521,9.1437,-0.4829,-1.2642,-0.209,0.8878,0.3085,-0.0144,0.1012,1699,2019-08-07 16:57:21:877
3.3595,9.75,-0.5678,-1.2642,-0.209,0.8878,0.3116,0.3201,0.0554,1704,2019-08-07 16:57:21:882
3.3595,9.75,-0.5678,-1.2642,-0.209,0.8878,0.3116,0.3201,0.0554,1709,2019-08-07 16:57:21:887
2.1108,9.9361,-0.3179,-1.2642,-0.209,0.8878,0.3021,0.498,0.0223,1714,2019-08-07 16:57:21:892
2.1108,9.9361,-0.3179,0.556,-0.6678,0.5019,0.3021,0.498,0.0223,1719,2019-08-07 16:57:21:897
2.1108,9.9361,-0.3179,0.556,-0.6678,0.5019,0.2381,0.4564,0.0106,1724,2019-08-07 16:57:21:902
1.5114,10.4853,-0.2428,0.556,-0.6678,0.5019,0.2381,0.4564,0.0106,1729,2019-08-07 16:57:21:907
1.5114,10.4853,-0.2428,0.556,-0.6678,0.5019,0.2019,0.4,0.0213,1734,2019-08-07 16:57:21:912
1.5114,10.4853,-0.2428,0.556,-0.6678,0.5019,0.2019,0.4,0.0213,1738,2019-08-07 16:57:21:916
1.3678,10.5044,-0.5869,0.9994,-0.9856,0.7492,0.2019,0.4,0.0213,1744,2019-08-07 16:57:21:922
1.3678,10.5044,-0.5869,0.9994,-0.9856,0.7492,0.1167,0.3563,0.0479,1748,2019-08-07 16:57:21:926
1.2052,10.786,-0.5115,0.9994,-0.9856,0.7492,0.1167,0.3563,0.0479,1754,2019-08-07 16:57:21:932
1.2052,10.786,-0.5115,0.9994,-0.9856,0.7492,0.0102,0.1976,0.1033,1759,2019-08-07 16:57:21:937
1.2052,10.786,-0.5115,1.1262,-0.9288,0.564,0.0102,0.1976,0.1033,1764,2019-08-07 16:57:21:942
1.7123,10.0652,0.7282,1.1262,-0.9288,0.564,0.0102,0.1976,0.1033,1769,2019-08-07 16:57:21:947
1.7123,10.0652,0.7282,1.1262,-0.9288,0.564,-0.0623,-0.1614,0.1288,1774,2019-08-07 16:57:21:952
1.7123,10.0652,0.7282,1.1262,-0.9288,0.564,-0.0623,-0.1614,0.1288,1779,2019-08-07 16:57:21:957
2.7935,10.0079,-1.5014,-0.4003,-0.4957,1.6634,-0.1358,-0.285,0.1555,1784,2019-08-07 16:57:21:962
2.7935,10.0079,-1.5014,-0.4003,-0.4957,1.6634,-0.1358,-0.285,0.1555,1789,2019-08-07 16:57:21:967
3.2671,9.521,-0.0119,-0.4003,-0.4957,1.6634,-0.1603,-0.0325,0.0884,1794,2019-08-07 16:57:21:972
3.2671,9.521,-0.0119,-0.4003,-0.4957,1.6634,-0.1603,-0.0325,0.0884,1799,2019-08-07 16:57:21:977
3.2671,9.521,-0.0119,-0.7016,-0.4222,0.6284,-0.1603,-0.0325,0.0884,1804,2019-08-07 16:57:21:982
2.937,10.2275,-0.0967,-0.7016,-0.4222,0.6284,-0.2242,-0.0091,0.0681,1808,2019-08-07 16:57:21:986
2.937,10.2275,-0.0967,-0.7016,-0.4222,0.6284,-0.2242,-0.0091,0.0681,1814,2019-08-07 16:57:21:992
2.937,10.2275,-0.0967,-0.7016,-0.4222,0.6284,-0.2433,-0.0485,0.0372,1819,2019-08-07 16:57:21:997
2.3533,10.5139,0.6905,0.0805,-1.0133,-0.4651,-0.2433,-0.0485,0.0372,1824,2019-08-07 16:57:22:002
2.3533,10.5139,0.6905,0.0805,-1.0133,-0.4651,-0.222,0.0314,0.0117,1829,2019-08-07 16:57:22:007
2.7456,9.9506,0.5397,0.0805,-1.0133,-0.4651,-0.222,0.0314,0.0117,1834,2019-08-07 16:57:22:012
2.7456,9.9506,0.5397,0.0805,-1.0133,-0.4651,-0.2125,-0.0102,-0.0256,1838,2019-08-07 16:57:22:016
2.7456,9.9506,0.5397,-0.5362,-0.0025,-0.0621,-0.2125,-0.0102,-0.0256,1844,2019-08-07 16:57:22:022
3.1283,9.3634,0.3228,-0.5362,-0.0025,-0.0621,-0.2157,-0.0283,-0.0629,1849,2019-08-07 16:57:22:027
3.1283,9.3634,0.3228,-0.5362,-0.0025,-0.0621,-0.2157,-0.0283,-0.0629,1854,2019-08-07 16:57:22:032
3.3293,9.2441,0.172,-0.5362,-0.0025,-0.0621,-0.2157,-0.0283,-0.0629,1858,2019-08-07 16:57:22:036
3.3293,9.2441,0.172,-0.8629,0.1601,0.205,-0.1975,0.1177,-0.097,1864,2019-08-07 16:57:22:042
3.3293,9.2441,0.172,-0.8629,0.1601,0.205,-0.1975,0.1177,-0.097,1869,2019-08-07 16:57:22:047
2.7551,9.4159,0.5161,-0.8629,0.1601,0.205,-0.1805,0.3222,-0.1183,1874,2019-08-07 16:57:22:052
2.7551,9.4159,0.5161,-0.8629,0.1601,0.205,-0.1805,0.3222,-0.1183,1879,2019-08-07 16:57:22:057
2.7551,9.4159,0.5161,0.488,0.0017,-0.574,-0.1805,0.3222,-0.1183,1883,2019-08-07 16:57:22:061
1.7887,9.5353,1.0393,0.488,0.0017,-0.574,-0.188,0.2306,-0.1034,1889,2019-08-07 16:57:22:067
1.7887,9.5353,1.0393,0.488,0.0017,-0.574,-0.188,0.2306,-0.1034,1893,2019-08-07 16:57:22:071
1.6356,9.7835,1.1901,0.488,0.0017,-0.574,-0.1912,0.0175,-0.0863,1899,2019-08-07 16:57:22:077
1.6356,9.7835,1.1901,0.6696,-0.2711,-0.6493,-0.1912,0.0175,-0.0863,1904,2019-08-07 16:57:22:082
1.6356,9.7835,1.1901,0.6696,-0.2711,-0.6493,-0.1741,-0.1391,-0.0672,1909,2019-08-07 16:57:22:087
1.98,9.6976,0.846,0.6696,-0.2711,-0.6493,-0.1741,-0.1391,-0.0672,1914,2019-08-07 16:57:22:092
1.98,9.6976,0.846,0.6696,-0.2711,-0.6493,-0.1453,-0.1124,-0.0586,1919,2019-08-07 16:57:22:097
2.2671,9.4494,0.9827,0.096,0.0128,-0.4976,-0.1453,-0.1124,-0.0586,1924,2019-08-07 16:57:22:102
2.2671,9.4494,0.9827,0.096,0.0128,-0.4976,-0.1262,-0.0517,-0.048,1929,2019-08-07 16:57:22:107
2.2671,9.4494,0.9827,0.096,0.0128,-0.4976,-0.1262,-0.0517,-0.048,1934,2019-08-07 16:57:22:112
2.2001,9.5496,1.2938,0.096,0.0128,-0.4976,-0.0878,-0.0261,-0.0384,1939,2019-08-07 16:57:22:117
2.2001,9.5496,1.2938,0.096,0.0128,-0.4976,-0.0878,-0.0261,-0.0384,1944,2019-08-07 16:57:22:122
2.1905,9.7931,1.0393,0.0388,-0.2535,-0.6844,-0.0878,-0.0261,-0.0384,1948,2019-08-07 16:57:22:126
2.1905,9.7931,1.0393,0.0388,-0.2535,-0.6844,-0.0665,-0.0165,-0.0448,1954,2019-08-07 16:57:22:132
2.1905,9.7931,1.0393,0.0388,-0.2535,-0.6844,-0.0665,-0.0165,-0.0448,1959,2019-08-07 16:57:22:137
2.3436,9.8026,0.7517,-0.0037,-0.3236,-0.2779,-0.0505,0.0058,-0.0416,1964,2019-08-07 16:57:22:142
2.3436,9.8026,0.7517,-0.0037,-0.3236,-0.2779,-0.0505,0.0058,-0.0416,1969,2019-08-07 16:57:22:147
2.3436,9.8026,0.7517,-0.0037,-0.3236,-0.2779,-0.0527,-0.0624,-0.0331,1973,2019-08-07 16:57:22:151
2.2288,9.7119,0.615,-0.0037,-0.3236,-0.2779,-0.0527,-0.0624,-0.0331,1979,2019-08-07 16:57:22:157
2.2288,9.7119,0.615,0.2231,-0.2123,-0.2125,-0.0505,-0.0655,-0.032,1984,2019-08-07 16:57:22:162
2.1187,9.6928,0.9639,0.2231,-0.2123,-0.2125,-0.0505,-0.0655,-0.032,1989,2019-08-07 16:57:22:167
2.1187,9.6928,0.9639,0.2231,-0.2123,-0.2125,-0.0463,-0.0687,-0.0214,1994,2019-08-07 16:57:22:172
2.1952,9.7931,1.0157,0.2231,-0.2123,-0.2125,-0.0463,-0.0687,-0.0214,1999,2019-08-07 16:57:22:177
2.1952,9.7931,1.0157,0.0549,-0.2115,-0.5279,-0.0463,-0.0687,-0.0214,2004,2019-08-07 16:57:22:182
2.1952,9.7931,1.0157,0.0549,-0.2115,-0.5279,-0.0388,-0.1071,-0.0192,2008,2019-08-07 16:57:22:186
2.3292,9.7358,0.747,0.0054,-0.2207,-0.2473,-0.0388,-0.1071,-0.0192,2014,2019-08-07 16:57:22:192
2.3292,9.7358,0.747,0.0054,-0.2207,-0.2473,-0.0196,-0.0645,-0.015,2019,2019-08-07 16:57:22:197
2.3292,9.7358,0.747,0.0054,-0.2207,-0.2473,-0.0196,-0.0645,-0.015,2024,2019-08-07 16:57:22:202
2.9559,9.6021,0.6197,0.0054,-0.2207,-0.2473,0.0038,0.0623,-0.0565,2028,2019-08-07 16:57:22:206
2.9559,9.6021,0.6197,-0.1528,-0.2244,-0.1266,0.0038,0.0623,-0.0565,2034,2019-08-07 16:57:22:212
2.9559,9.6021,0.6197,-0.1528,-0.2244,-0.1266,0.0336,0.2945,-0.0522,2039,2019-08-07 16:57:22:217
1.8316,9.922,0.9497,-0.1528,-0.2244,-0.1266,0.0336,0.2945,-0.0522,2044,2019-08-07 16:57:22:222
1.8316,9.922,0.9497,-0.1528,-0.2244,-0.1266,0.0336,0.2945,-0.0522,2048,2019-08-07 16:57:22:226
1.8316,9.922,0.9497,0.3842,-0.1549,-0.8667,0.0379,0.172,-0.0203,2054,2019-08-07 16:57:22:232
1.9321,9.6737,1.3787,0.3842,-0.1549,-0.8667,0.0379,0.172,-0.0203,2059,2019-08-07 16:57:22:237
1.9321,9.6737,1.3787,0.3842,-0.1549,-0.8667,0.0379,-0.1529,-0.0182,2064,2019-08-07 16:57:22:242
1.999,9.6499,0.7046,0.3842,-0.1549,-0.8667,0.0379,-0.1529,-0.0182,2068,2019-08-07 16:57:22:246
1.999,9.6499,0.7046,-0.0641,-0.0723,-0.0626,0.0326,-0.1998,-0.0043,2074,2019-08-07 16:57:22:252
2.4296,9.5974,0.351,-0.0641,-0.0723,-0.0626,0.0326,-0.1998,-0.0043,2079,2019-08-07 16:57:22:257
2.4296,9.5974,0.351,-0.0641,-0.0723,-0.0626,0.0326,-0.1998,-0.0043,2083,2019-08-07 16:57:22:261
2.4296,9.5974,0.351,-0.0641,-0.0723,-0.0626,0.0198,-0.171,-0.0256,2089,2019-08-07 16:57:22:267
2.5109,9.6117,0.0588,-0.3001,-0.1332,0.446,0.0198,-0.171,-0.0256,2094,2019-08-07 16:57:22:272
2.5109,9.6117,0.0588,-0.3001,-0.1332,0.446,0.0272,-0.0932,-0.0469,2099,2019-08-07 16:57:22:277
2.4631,9.9602,0.5396,-0.3001,-0.1332,0.446,0.0272,-0.0932,-0.0469,2104,2019-08-07 16:57:22:282
2.4631,9.9602,0.5396,-0.3001,-0.1332,0.446,0.0176,-0.0315,-0.0544,2109,2019-08-07 16:57:22:287
2.4631,9.9602,0.5396,-0.0897,-0.3454,0.0585,0.0176,-0.0315,-0.0544,2114,2019-08-07 16:57:22:292
2.3913,9.8838,0.4265,-0.0897,-0.3454,0.0585,0.0166,0.0207,-0.0554,2119,2019-08-07 16:57:22:297
2.3913,9.8838,0.4265,-0.0897,-0.3454,0.0585,0.0166,0.0207,-0.0554,2124,2019-08-07 16:57:22:302
2.3913,9.8838,0.4265,-0.0897,-0.3454,0.0585,0.0038,0.0122,-0.0704,2129,2019-08-07 16:57:22:307
2.3482,9.8456,0.6574,0.0125,-0.3089,-0.1442,0.0038,0.0122,-0.0704,2134,2019-08-07 16:57:22:312
2.3482,9.8456,0.6574,0.0125,-0.3089,-0.1442,0.0038,0.0122,-0.0704,2139,2019-08-07 16:57:22:317
2.3482,9.8456,0.6574,0.0125,-0.3089,-0.1442,6.0E-4,0.025,-0.0768,2143,2019-08-07 16:57:22:321
2.1712,9.7979,0.5302,0.0125,-0.3089,-0.1442,6.0E-4,0.025,-0.0768,2149,2019-08-07 16:57:22:327
2.1712,9.7979,0.5302,0.0125,-0.3089,-0.1442,-0.0058,0.0463,-0.0672,2153,2019-08-07 16:57:22:331
2.0468,9.8313,0.6244,0.1355,-0.2766,-0.1467,-0.0058,0.0463,-0.0672,2159,2019-08-07 16:57:22:337
2.0468,9.8313,0.6244,0.1355,-0.2766,-0.1467,-0.0058,0.0463,-0.0672,2163,2019-08-07 16:57:22:341
2.0468,9.8313,0.6244,0.1355,-0.2766,-0.1467,-0.0101,0.0325,-0.0586,2169,2019-08-07 16:57:22:347
2.0755,9.6403,0.6339,0.1355,-0.2766,-0.1467,-0.0101,0.0325,-0.0586,2173,2019-08-07 16:57:22:351
2.0755,9.6403,0.6339,0.1459,-0.1209,-0.2267,-0.0314,-0.0389,-0.0437,2179,2019-08-07 16:57:22:357
2.0994,9.7119,0.4594,0.1459,-0.1209,-0.2267,-0.0314,-0.0389,-0.0437,2184,2019-08-07 16:57:22:362
2.0994,9.7119,0.4594,0.1459,-0.1209,-0.2267,-0.0378,-0.0592,-0.032,2188,2019-08-07 16:57:22:366
2.0994,9.7119,0.4594,0.1459,-0.1209,-0.2267,-0.0378,-0.0592,-0.032,2194,2019-08-07 16:57:22:372
2.2955,9.817,0.5349,-0.0437,-0.2816,-0.0428,-0.0441,-0.0112,-0.0395,2199,2019-08-07 16:57:22:377
2.2955,9.817,0.5349,-0.0437,-0.2816,-0.0428,-0.0441,-0.0112,-0.0395,2204,2019-08-07 16:57:22:382
2.2955,9.817,0.5349,-0.0437,-0.2816,-0.0428,-0.0527,-0.0123,-0.0416,2208,2019-08-07 16:57:22:386
2.0898,9.9172,0.6103,-0.0437,-0.2816,-0.0428,-0.0527,-0.0123,-0.0416,2214,2019-08-07 16:57:22:392
2.0898,9.9172,0.6103,0.3492,-0.3373,-0.1275,-0.091,-0.1337,-0.032,2218,2019-08-07 16:57:22:396
2.0898,9.9172,0.6103,0.3492,-0.3373,-0.1275,-0.091,-0.1337,-0.032,2224,2019-08-07 16:57:22:402
1.4391,9.5831,4.2399,0.7997,-0.0459,-3.7239,-0.1049,-0.987,-0.0171,2229,2019-08-07 16:57:22:407
1.4391,9.5831,4.2399,0.7997,-0.0459,-3.7239,-0.1049,-0.987,-0.0171,2233,2019-08-07 16:57:22:411
1.4391,9.5831,4.2399,0.7997,-0.0459,-3.7239,-0.1336,-0.5566,-0.0395,2239,2019-08-07 16:57:22:417
2.9844,9.6212,-0.6672,0.7997,-0.0459,-3.7239,-0.1336,-0.5566,-0.0395,2244,2019-08-07 16:57:22:422
2.9844,9.6212,-0.6672,-1.0158,0.0928,-0.0066,-0.1294,-0.1327,-0.0501,2249,2019-08-07 16:57:22:427
2.8074,9.6451,0.582,-1.0158,0.0928,-0.0066,-0.1294,-0.1327,-0.0501,2253,2019-08-07 16:57:22:431
2.8074,9.6451,0.582,-1.0158,0.0928,-0.0066,-0.1294,-0.1327,-0.0501,2259,2019-08-07 16:57:22:437
2.8074,9.6451,0.582,-1.0158,0.0928,-0.0066,-0.0633,0.0048,-0.0373,2264,2019-08-07 16:57:22:442
2.3576,9.6308,0.5867,-0.1216,-0.093,-0.0711,-0.0633,0.0048,-0.0373,2269,2019-08-07 16:57:22:447
2.3576,9.6308,0.5867,-0.1216,-0.093,-0.0711,-0.0729,0.106,-0.0512,2274,2019-08-07 16:57:22:452
2.3576,9.6308,0.5867,-0.1216,-0.093,-0.0711,-0.0729,0.106,-0.0512,2278,2019-08-07 16:57:22:456
1.9223,9.7406,0.6668,-0.1216,-0.093,-0.0711,-0.0654,0.0857,-0.0373,2284,2019-08-07 16:57:22:462
1.9223,9.7406,0.6668,0.3979,-0.3968,-0.2738,-0.0654,0.0857,-0.0373,2289,2019-08-07 16:57:22:467
1.8266,10.0557,0.8931,0.3979,-0.3968,-0.2738,-0.0718,0.009,-0.0118,2294,2019-08-07 16:57:22:472
1.8266,10.0557,0.8931,0.3979,-0.3968,-0.2738,-0.0718,0.009,-0.0118,2299,2019-08-07 16:57:22:477
1.8266,10.0557,0.8931,0.3979,-0.3968,-0.2738,-0.0718,0.009,-0.0118,2303,2019-08-07 16:57:22:481
1.8313,9.9888,0.8507,0.3926,-0.4252,-0.2336,-0.0644,-0.0229,0.0063,2309,2019-08-07 16:57:22:487
1.8313,9.9888,0.8507,0.3926,-0.4252,-0.2336,-0.0644,-0.0229,0.0063,2314,2019-08-07 16:57:22:492
1.9509,9.9506,0.8082,0.3926,-0.4252,-0.2336,-0.0676,-0.0357,0.017,2318,2019-08-07 16:57:22:496
1.9509,9.9506,0.8082,0.3926,-0.4252,-0.2336,-0.0676,-0.0357,0.017,2324,2019-08-07 16:57:22:502
1.9509,9.9506,0.8082,0.2019,-0.2781,-0.1928,-0.0612,-0.0602,0.0223,2329,2019-08-07 16:57:22:507
2.0753,9.7931,0.6998,0.2019,-0.2781,-0.1928,-0.0612,-0.0602,0.0223,2334,2019-08-07 16:57:22:512
2.0753,9.7931,0.6998,0.2019,-0.2781,-0.1928,-0.0537,-0.0059,0.017,2339,2019-08-07 16:57:22:517
2.458,9.7072,0.6574,0.2019,-0.2781,-0.1928,-0.0537,-0.0059,0.017,2344,2019-08-07 16:57:22:522
2.458,9.7072,0.6574,-0.2872,-0.1411,0.1144,-0.0378,0.1283,0.0042,2349,2019-08-07 16:57:22:527
2.458,9.7072,0.6574,-0.2872,-0.1411,0.1144,-0.0378,0.1283,0.0042,2354,2019-08-07 16:57:22:532
2.5681,9.6451,0.4735,-0.2872,-0.1411,0.1144,-0.0378,0.1283,0.0042,2359,2019-08-07 16:57:22:537
2.5681,9.6451,0.4735,-0.2872,-0.1411,0.1144,-0.0196,0.3297,0.0042,2364,2019-08-07 16:57:22:542
2.4724,9.6451,0.5254,-0.2488,-0.1087,0.0645,-0.0196,0.3297,0.0042,2369,2019-08-07 16:57:22:547
2.4724,9.6451,0.5254,-0.2488,-0.1087,0.0645,-5.0E-4,0.4628,0.0021,2373,2019-08-07 16:57:22:551
2.4724,9.6451,0.5254,-0.2488,-0.1087,0.0645,-5.0E-4,0.4628,0.0021,2379,2019-08-07 16:57:22:557
2.1805,9.7836,0.7847,-0.2488,-0.1087,0.0645,-0.0154,0.5235,0.0021,2384,2019-08-07 16:57:22:562
2.1805,9.7836,0.7847,0.5015,-0.343,-1.1487,-0.0154,0.5235,0.0021,2389,2019-08-07 16:57:22:567
1.549,9.774,1.5719,0.5015,-0.343,-1.1487,-0.0761,0.0996,0.0106,2394,2019-08-07 16:57:22:572
1.549,9.774,1.5719,0.5015,-0.343,-1.1487,-0.0761,0.0996,0.0106,2399,2019-08-07 16:57:22:577
1.549,9.774,1.5719,0.5015,-0.343,-1.1487,-0.0804,-0.2168,0.0138,2403,2019-08-07 16:57:22:581
2.0417,9.86,0.4641,0.0468,-0.2866,0.214,-0.0804,-0.2168,0.0138,2409,2019-08-07 16:57:22:587
2.0417,9.86,0.4641,0.0468,-0.2866,0.214,-0.0761,-0.1114,0.0191,2414,2019-08-07 16:57:22:592
2.2905,9.8456,0.6904,0.0468,-0.2866,0.214,-0.0761,-0.1114,0.0191,2419,2019-08-07 16:57:22:597
2.2905,9.8456,0.6904,0.0468,-0.2866,0.214,-0.0644,0.0772,0.0223,2423,2019-08-07 16:57:22:601