ACCELEROMETER X (m/s²),ACCELEROMETER Y (m/s²),ACCELEROMETER Z (m/s²),LINEAR ACCELERATION X (m/s²),LINEAR ACCELERATION Y (m/s²),LINEAR ACCELERATION Z (m/s²),GYROSCOPE X (rad/s),GYROSCOPE Y (rad/s),GYROSCOPE Z (rad/s),Time since start in ms ,YYYY-MO-DD HH-MI-SS_SSS
2.2332,9.6017,0.3049,-0.007,-0.0223,-0.1339,-0.0505,-0.0368,-0.0362,4,2019-08-07 16:58:26:793
2.1184,9.5492,0.4086,-0.007,-0.0223,-0.1339,-0.0505,-0.0368,-0.0362,9,2019-08-07 16:58:26:798
2.1184,9.5492,0.4086,-0.007,-0.0223,-0.1339,-0.0473,-0.0783,-0.0405,14,2019-08-07 16:58:26:803
2.1184,9.5492,0.4086,-0.0575,-0.0112,-0.304,-0.0473,-0.0783,-0.0405,19,2019-08-07 16:58:26:808
2.3002,9.6972,0.3991,-0.0575,-0.0112,-0.304,-0.0473,-0.0783,-0.0405,23,2019-08-07 16:58:26:812
2.3002,9.6972,0.3991,-0.0575,-0.0112,-0.304,-0.0495,-0.1391,-0.0416,29,2019-08-07 16:58:26:818
2.415,9.7879,-0.0392,-0.0575,-0.0112,-0.304,-0.0495,-0.1391,-0.0416,33,2019-08-07 16:58:26:822
2.415,9.7879,-0.0392,-0.0652,-0.0907,0.2643,-0.0442,-0.0783,-0.0607,39,2019-08-07 16:58:26:828
2.415,9.7879,-0.0392,-0.0652,-0.0907,0.2643,-0.0442,-0.0783,-0.0607,43,2019-08-07 16:58:26:832
2.2284,9.5349,0.0409,-0.0652,-0.0907,0.2643,-0.0282,0.0154,-0.0725,49,2019-08-07 16:58:26:838
2.2284,9.5349,0.0409,-0.0652,-0.0907,0.2643,-0.0282,0.0154,-0.0725,54,2019-08-07 16:58:26:843
2.0036,9.721,1.0072,0.179,-0.1592,-0.7985,-0.0239,-0.0144,-0.0671,59,2019-08-07 16:58:26:848
2.0036,9.721,1.0072,0.179,-0.1592,-0.7985,-0.0239,-0.0144,-0.0671,64,2019-08-07 16:58:26:853
2.0036,9.721,1.0072,0.179,-0.1592,-0.7985,-0.0207,-0.0709,-0.048,68,2019-08-07 16:58:26:857
2.1519,10.0313,0.4557,0.179,-0.1592,-0.7985,-0.0207,-0.0709,-0.048,74,2019-08-07 16:58:26:863
2.1519,10.0313,0.4557,-0.0765,-0.6723,-0.2749,-0.0111,-0.0496,-0.0565,79,2019-08-07 16:58:26:868
2.1854,10.2605,0.6018,-0.0765,-0.6723,-0.2749,-0.0111,-0.0496,-0.0565,84,2019-08-07 16:58:26:873
2.1854,10.2605,0.6018,-0.0765,-0.6723,-0.2749,0.0144,-0.0304,-0.0522,89,2019-08-07 16:58:26:878
2.1854,10.2605,0.6018,-0.0765,-0.6723,-0.2749,0.0144,-0.0304,-0.0522,93,2019-08-07 16:58:26:882
2.0993,9.573,0.7998,-0.001,0.0176,-0.6187,0.0144,-0.0304,-0.0522,99,2019-08-07 16:58:26:888
2.0993,9.573,0.7998,-0.001,0.0176,-0.6187,0.0315,-0.1146,-0.0458,103,2019-08-07 16:58:26:892
2.3431,9.702,0.7903,-0.001,0.0176,-0.6187,0.0315,-0.1146,-0.0458,109,2019-08-07 16:58:26:898
2.3431,9.702,0.7903,-0.001,0.0176,-0.6187,0.0325,-0.2094,-0.0575,114,2019-08-07 16:58:26:903
2.3431,9.702,0.7903,-0.4924,-0.7871,-0.458,0.0325,-0.2094,-0.0575,119,2019-08-07 16:58:26:908
2.7688,10.3989,0.5971,-0.4924,-0.7871,-0.458,-0.0058,-0.2829,-0.0618,124,2019-08-07 16:58:26:913
2.7688,10.3989,0.5971,-0.4924,-0.7871,-0.458,-0.0058,-0.2829,-0.0618,129,2019-08-07 16:58:26:918
2.9267,10.0218,-0.1053,-0.4924,-0.7871,-0.458,-0.0878,-0.1934,-0.0874,133,2019-08-07 16:58:26:922
2.9267,10.0218,-0.1053,-0.6885,-0.2837,0.0937,-0.0878,-0.1934,-0.0874,139,2019-08-07 16:58:26:928
2.9267,10.0218,-0.1053,-0.6885,-0.2837,0.0937,-0.0804,-0.0102,-0.1108,145,2019-08-07 16:58:26:934
2.6157,9.9263,0.3143,-0.6885,-0.2837,0.0937,-0.0804,-0.0102,-0.1108,148,2019-08-07 16:58:26:937
2.6157,9.9263,0.3143,-0.6885,-0.2837,0.0937,-0.0463,0.0569,-0.1406,154,2019-08-07 16:58:26:943
2.6157,9.9263,0.3143,-0.6885,-0.2837,0.0937,-0.0463,0.0569,-0.1406,158,2019-08-07 16:58:26:947
1.9794,9.8929,0.3614,0.1396,-0.317,-0.1424,-0.0633,-0.0166,-0.1598,164,2019-08-07 16:58:26:953
1.9794,9.8929,0.3614,0.1396,-0.317,-0.1424,-0.0633,-0.0166,-0.1598,168,2019-08-07 16:58:26:957
1.8168,9.8118,0.5075,0.1396,-0.317,-0.1424,-0.0527,-0.138,-0.1545,174,2019-08-07 16:58:26:963
1.8168,9.8118,0.5075,0.1396,-0.317,-0.1424,-0.0527,-0.138,-0.1545,179,2019-08-07 16:58:26:968
1.9124,10.0218,-0.0817,0.1741,-0.291,0.0217,-0.0314,-0.2307,-0.1449,184,2019-08-07 16:58:26:973
1.9124,10.0218,-0.0817,0.1741,-0.291,0.0217,-0.0314,-0.2307,-0.1449,189,2019-08-07 16:58:26:978
1.9124,10.0218,-0.0817,0.1741,-0.291,0.0217,-0.0314,-0.1657,-0.1342,194,2019-08-07 16:58:26:983
1.9555,10.0504,-0.0063,0.1741,-0.291,0.0217,-0.0314,-0.1657,-0.1342,199,2019-08-07 16:58:26:988
1.9555,10.0504,-0.0063,0.0647,-0.4423,0.1637,-5.0E-4,-0.0613,-0.1417,203,2019-08-07 16:58:26:992
1.9555,10.0504,-0.0063,0.0647,-0.4423,0.1637,-5.0E-4,-0.0613,-0.1417,209,2019-08-07 16:58:26:998
1.879,9.9645,0.088,0.1652,-0.3724,0.1337,0.0038,-0.0528,-0.1279,213,2019-08-07 16:58:27:002
1.879,9.9645,0.088,0.1652,-0.3724,0.1337,0.0038,-0.0528,-0.1279,219,2019-08-07 16:58:27:008
1.879,9.9645,0.088,0.1652,-0.3724,0.1337,0.0038,-0.0528,-0.1279,224,2019-08-07 16:58:27:013
2.0368,9.6638,0.1021,0.1652,-0.3724,0.1337,-0.0069,-0.0943,-0.1193,229,2019-08-07 16:58:27:018
2.0368,9.6638,0.1021,-0.0309,0.1292,0.0451,-0.0069,-0.0943,-0.1193,233,2019-08-07 16:58:27:022
1.9746,9.3105,0.22,-0.0309,0.1292,0.0451,0.0155,-0.0805,-0.1215,239,2019-08-07 16:58:27:028
1.9746,9.3105,0.22,-0.0309,0.1292,0.0451,0.0155,-0.0805,-0.1215,243,2019-08-07 16:58:27:032
1.9746,9.3105,0.22,-0.0309,0.1292,0.0451,0.0315,-0.0357,-0.1151,249,2019-08-07 16:58:27:038
2.0368,9.6113,0.6065,-0.0389,-0.0092,-0.3941,0.0315,-0.0357,-0.1151,254,2019-08-07 16:58:27:043
2.0368,9.6113,0.6065,-0.0389,-0.0092,-0.3941,0.04,-0.04,-0.1066,259,2019-08-07 16:58:27:048
2.099,9.9359,0.7715,-0.0389,-0.0092,-0.3941,0.04,-0.04,-0.1066,263,2019-08-07 16:58:27:052
2.099,9.9359,0.7715,-0.0389,-0.0092,-0.3941,0.0581,-0.0688,-0.1087,269,2019-08-07 16:58:27:058
2.099,9.9359,0.7715,-0.1504,-0.3055,-0.816,0.0581,-0.0688,-0.1087,273,2019-08-07 16:58:27:062
2.2425,10.0266,0.9647,-0.1504,-0.3055,-0.816,0.089,-0.0996,-0.1087,279,2019-08-07 16:58:27:068
2.2425,10.0266,0.9647,-0.1504,-0.3055,-0.816,0.089,-0.0996,-0.1087,284,2019-08-07 16:58:27:073
2.5535,9.9836,0.8563,-0.1504,-0.3055,-0.816,0.1103,-0.1007,-0.1034,288,2019-08-07 16:58:27:077
2.5535,9.9836,0.8563,-0.6037,-0.3636,-0.7061,0.1103,-0.1007,-0.1034,294,2019-08-07 16:58:27:083
2.5535,9.9836,0.8563,-0.6037,-0.3636,-0.7061,0.1401,-0.0453,-0.1023,299,2019-08-07 16:58:27:088
2.4435,10.0982,0.6536,-0.6037,-0.3636,-0.7061,0.1401,-0.0453,-0.1023,303,2019-08-07 16:58:27:092
2.4435,10.0982,0.6536,-0.6037,-0.3636,-0.7061,0.1604,0.0804,-0.0991,309,2019-08-07 16:58:27:098
2.3334,10.0839,0.5546,-0.424,-0.4743,-0.3022,0.1604,0.0804,-0.0991,313,2019-08-07 16:58:27:102
2.3334,10.0839,0.5546,-0.424,-0.4743,-0.3022,0.171,0.1763,-0.098,319,2019-08-07 16:58:27:108
2.3334,10.0839,0.5546,-0.424,-0.4743,-0.3022,0.171,0.1763,-0.098,324,2019-08-07 16:58:27:113
1.9985,10.0505,0.5971,-0.424,-0.4743,-0.3022,0.1891,0.14,-0.1012,329,2019-08-07 16:58:27:118
1.9985,10.0505,0.5971,0.0926,-0.4223,-0.3556,0.1891,0.14,-0.1012,334,2019-08-07 16:58:27:123
1.9985,10.0505,0.5971,0.0926,-0.4223,-0.3556,0.1891,0.14,-0.1012,338,2019-08-07 16:58:27:127
1.678,9.8786,0.3237,0.0926,-0.4223,-0.3556,0.1913,0.0825,-0.0575,344,2019-08-07 16:58:27:133
1.678,9.8786,0.3237,0.0926,-0.4223,-0.3556,0.2019,0.1081,-0.0448,349,2019-08-07 16:58:27:138
1.678,9.8786,0.3237,0.5419,-0.1517,-0.0441,0.2019,0.1081,-0.0448,354,2019-08-07 16:58:27:143
1.2761,9.764,0.1634,0.5419,-0.1517,-0.0441,0.2115,0.1251,-0.0256,359,2019-08-07 16:58:27:148
1.2761,9.764,0.1634,0.5419,-0.1517,-0.0441,0.2115,0.1251,-0.0256,364,2019-08-07 16:58:27:153
0.8168,9.4824,0.4368,0.5419,-0.1517,-0.0441,0.2094,0.041,-0.0128,369,2019-08-07 16:58:27:158
0.8168,9.4824,0.4368,1.0604,0.2187,-0.3617,0.2094,0.041,-0.0128,374,2019-08-07 16:58:27:163
0.8168,9.4824,0.4368,1.0604,0.2187,-0.3617,0.2094,0.041,-0.0128,379,2019-08-07 16:58:27:168
0.8599,9.511,0.253,1.0604,0.2187,-0.3617,0.2286,-0.0922,-0.0022,383,2019-08-07 16:58:27:172
0.8599,9.511,0.253,1.0604,0.2187,-0.3617,0.2286,-0.0922,-0.0022,389,2019-08-07 16:58:27:178
1.4148,9.4824,0.0691,0.5657,0.1248,-0.0349,0.2115,-0.1582,0.0128,395,2019-08-07 16:58:27:184
1.4148,9.4824,0.0691,0.5657,0.1248,-0.0349,0.2115,-0.1582,0.0128,399,2019-08-07 16:58:27:188
1.4148,9.4824,0.0691,0.5657,0.1248,-0.0349,0.2083,-0.0975,0.0032,403,2019-08-07 16:58:27:192
1.6827,9.4585,-0.4635,0.5657,0.1248,-0.0349,0.2083,-0.0975,0.0032,409,2019-08-07 16:58:27:198
1.6827,9.4585,-0.4635,0.0149,0.2156,0.3808,0.1934,0.0154,-0.0085,414,2019-08-07 16:58:27:203
1.6827,9.4585,-0.4635,0.0149,0.2156,0.3808,0.1934,0.0154,-0.0085,419,2019-08-07 16:58:27:208
2.0511,9.3296,-0.2043,0.0149,0.2156,0.3808,0.1934,0.0687,-0.0299,424,2019-08-07 16:58:27:213
2.0511,9.3296,-0.2043,0.0149,0.2156,0.3808,0.1934,0.0687,-0.0299,429,2019-08-07 16:58:27:218
2.3477,9.4919,-0.5107,-0.4611,0.1348,0.4512,0.1913,0.0548,-0.032,433,2019-08-07 16:58:27:222
2.3477,9.4919,-0.5107,-0.4611,0.1348,0.4512,0.1913,0.0548,-0.032,439,2019-08-07 16:58:27:228
2.3477,9.4919,-0.5107,-0.4611,0.1348,0.4512,0.1732,0.0569,-0.0341,445,2019-08-07 16:58:27:234
2.5726,9.8452,-0.3504,-0.4611,0.1348,0.4512,0.1732,0.0569,-0.0341,449,2019-08-07 16:58:27:238
2.5726,9.8452,-0.3504,-0.6734,-0.4332,0.2653,0.1732,0.0569,-0.0341,453,2019-08-07 16:58:27:242
2.5008,10.1937,-0.2326,-0.6734,-0.4332,0.2653,0.1774,0.0921,-0.0309,459,2019-08-07 16:58:27:248
2.5008,10.1937,-0.2326,-0.6734,-0.4332,0.2653,0.1774,0.0921,-0.0309,463,2019-08-07 16:58:27:252
2.5008,10.1937,-0.2326,-0.6734,-0.4332,0.2653,0.1764,0.1454,-0.0181,469,2019-08-07 16:58:27:258
2.1181,10.2366,0.0267,-0.1638,-0.6241,-0.1935,0.1764,0.1454,-0.0181,474,2019-08-07 16:58:27:263
2.1181,10.2366,0.0267,-0.1638,-0.6241,-0.1935,0.1646,0.14,-0.0139,479,2019-08-07 16:58:27:268
1.7975,10.4228,0.6018,-0.1638,-0.6241,-0.1935,0.1646,0.14,-0.0139,484,2019-08-07 16:58:27:273
1.7975,10.4228,0.6018,-0.1638,-0.6241,-0.1935,0.1433,0.0239,-0.0171,489,2019-08-07 16:58:27:278
1.7975,10.4228,0.6018,0.0759,-1.3587,-1.0591,0.1433,0.0239,-0.0171,495,2019-08-07 16:58:27:284
1.8549,11.0004,0.7809,0.0759,-1.3587,-1.0591,0.1071,-0.1444,0.001,499,2019-08-07 16:58:27:288
1.8549,11.0004,0.7809,0.0759,-1.3587,-1.0591,0.1071,-0.1444,0.001,503,2019-08-07 16:58:27:292
2.032,10.609,0.7385,0.0759,-1.3587,-1.0591,0.0496,-0.1913,-0.0085,509,2019-08-07 16:58:27:298
2.032,10.609,0.7385,-0.1654,-0.8239,-1.0739,0.0496,-0.1913,-0.0085,514,2019-08-07 16:58:27:303
2.032,10.609,0.7385,-0.1654,-0.8239,-1.0739,0.0592,-0.2126,-0.0213,519,2019-08-07 16:58:27:308
2.1755,10.2032,1.1203,-0.1654,-0.8239,-1.0739,0.0592,-0.2126,-0.0213,524,2019-08-07 16:58:27:313
2.1755,10.2032,1.1203,-0.1654,-0.8239,-1.0739,0.0762,-0.3447,-0.0373,529,2019-08-07 16:58:27:318
2.1755,10.2032,1.1203,-0.1654,-0.8239,-1.0739,0.0762,-0.3447,-0.0373,534,2019-08-07 16:58:27:323
2.496,10.1221,2.0678,-0.6246,-0.4938,-2.2417,0.0762,-0.3447,-0.0373,538,2019-08-07 16:58:27:327
2.496,10.1221,2.0678,-0.6246,-0.4938,-2.2417,0.2009,-0.6142,-0.0682,544,2019-08-07 16:58:27:333
3.3285,9.8929,2.0725,-0.6246,-0.4938,-2.2417,0.2009,-0.6142,-0.0682,549,2019-08-07 16:58:27:338
3.3285,9.8929,2.0725,-0.6246,-0.4938,-2.2417,0.3596,-0.7335,-0.065,553,2019-08-07 16:58:27:342
3.3285,9.8929,2.0725,-2.3003,-0.4461,-3.0073,0.3596,-0.7335,-0.065,559,2019-08-07 16:58:27:348
4.5389,10.1268,2.9492,-2.3003,-0.4461,-3.0073,0.5045,-0.8017,-0.0767,564,2019-08-07 16:58:27:353
4.5389,10.1268,2.9492,-2.3003,-0.4461,-3.0073,0.5045,-0.8017,-0.0767,568,2019-08-07 16:58:27:357
4.5389,10.1268,2.9492,-2.3003,-0.4461,-3.0073,0.6866,-0.677,-0.0767,574,2019-08-07 16:58:27:363
5.2422,10.6281,3.2556,-3.3778,-1.0032,-3.6046,0.6866,-0.677,-0.0767,579,2019-08-07 16:58:27:368
5.2422,10.6281,3.2556,-3.3778,-1.0032,-3.6046,0.7825,-0.4054,-0.0746,584,2019-08-07 16:58:27:373
4.8211,11.2296,4.0004,-3.3778,-1.0032,-3.6046,0.7825,-0.4054,-0.0746,589,2019-08-07 16:58:27:378
4.8211,11.2296,4.0004,-3.3778,-1.0032,-3.6046,0.7505,-0.1593,-0.0725,594,2019-08-07 16:58:27:383
4.8211,11.2296,4.0004,-2.1931,-2.0446,-6.1573,0.7505,-0.1593,-0.0725,599,2019-08-07 16:58:27:388
3.515,11.8741,6.9324,-2.1931,-2.0446,-6.1573,0.6376,-0.2594,0.0287,603,2019-08-07 16:58:27:392
3.515,11.8741,6.9324,-2.1931,-2.0446,-6.1573,0.6376,-0.2594,0.0287,609,2019-08-07 16:58:27:398
2.7352,11.4015,8.8368,-2.1931,-2.0446,-6.1573,0.546,-0.3564,0.1502,614,2019-08-07 16:58:27:403
2.7352,11.4015,8.8368,-0.7547,-1.3594,-10.0779,0.546,-0.3564,0.1502,618,2019-08-07 16:58:27:407
2.7352,11.4015,8.8368,-0.7547,-1.3594,-10.0779,0.546,-0.3564,0.1502,624,2019-08-07 16:58:27:413
2.9505,10.5756,10.991,-0.7547,-1.3594,-10.0779,0.3223,-0.2339,0.3366,629,2019-08-07 16:58:27:418
2.9505,10.5756,10.991,-0.7547,-1.3594,-10.0779,0.3223,-0.2339,0.3366,634,2019-08-07 16:58:27:423
3.7208,10.06,11.5237,-1.7142,-0.5282,-12.2154,0.0602,-0.3787,0.4197,639,2019-08-07 16:58:27:428
3.7208,10.06,11.5237,-1.7142,-0.5282,-12.2154,0.0602,-0.3787,0.4197,644,2019-08-07 16:58:27:433
3.7208,10.06,11.5237,-1.7142,-0.5282,-12.2154,-0.188,-0.2541,0.424,649,2019-08-07 16:58:27:438
3.4193,9.8452,11.4435,-1.7142,-0.5282,-12.2154,-0.188,-0.2541,0.424,653,2019-08-07 16:58:27:442
3.4193,9.8452,11.4435,-0.9577,-0.4126,-12.5809,-0.4766,-0.0251,0.4122,659,2019-08-07 16:58:27:448
2.075,9.998,12.8058,-0.9577,-0.4126,-12.5809,-0.4766,-0.0251,0.4122,664,2019-08-07 16:58:27:453
2.075,9.998,12.8058,-0.9577,-0.4126,-12.5809,-0.7813,-0.0901,0.4058,669,2019-08-07 16:58:27:458
2.075,9.998,12.8058,-0.9577,-0.4126,-12.5809,-0.7813,-0.0901,0.4058,674,2019-08-07 16:58:27:463
0.7067,10.0123,13.2348,1.3953,-0.4347,-13.5303,-1.1275,-0.3106,0.3899,679,2019-08-07 16:58:27:468
0.7067,10.0123,13.2348,1.3953,-0.4347,-13.5303,-1.1275,-0.3106,0.3899,684,2019-08-07 16:58:27:473
0.7067,10.0123,13.2348,1.3953,-0.4347,-13.5303,-1.1275,-0.3106,0.3899,688,2019-08-07 16:58:27:477
0.4531,10.1221,13.0934,1.3953,-0.4347,-13.5303,-1.5121,-0.7548,0.3504,694,2019-08-07 16:58:27:483
0.4531,10.1221,13.0934,1.2401,-0.6726,-12.5582,-1.7432,-1.0158,0.3334,699,2019-08-07 16:58:27:488
1.4243,10.3035,11.863,1.2401,-0.6726,-12.5582,-1.7432,-1.0158,0.3334,704,2019-08-07 16:58:27:493
1.4243,10.3035,11.863,1.2401,-0.6726,-12.5582,-1.7432,-1.0158,0.3334,709,2019-08-07 16:58:27:498
1.4243,10.3035,11.863,1.2401,-0.6726,-12.5582,-1.919,-0.9412,0.3291,714,2019-08-07 16:58:27:503
2.2615,10.418,10.0954,-0.0597,-0.8907,-9.6172,-1.919,-0.9412,0.3291,719,2019-08-07 16:58:27:508
2.2615,10.418,10.0954,-0.0597,-0.8907,-9.6172,-2.1012,-0.5226,0.3153,724,2019-08-07 16:58:27:513
1.9266,10.5231,9.4401,-0.0597,-0.8907,-9.6172,-2.1012,-0.5226,0.3153,729,2019-08-07 16:58:27:518
1.9266,10.5231,9.4401,-0.0597,-0.8907,-9.6172,-2.2269,-0.2701,0.3334,734,2019-08-07 16:58:27:523
1.9266,10.5231,9.4401,0.8829,-0.8429,-7.6803,-2.2269,-0.2701,0.3334,739,2019-08-07 16:58:27:528
1.2329,10.2557,8.3371,0.8829,-0.8429,-7.6803,-2.3345,-0.0815,0.3654,744,2019-08-07 16:58:27:533
1.2329,10.2557,8.3371,0.8829,-0.8429,-7.6803,-2.3345,-0.0815,0.3654,749,2019-08-07 16:58:27:538
1.0894,9.9884,7.2812,0.8829,-0.8429,-7.6803,-2.4506,0.0101,0.3994,753,2019-08-07 16:58:27:542
1.0894,9.9884,7.2812,1.2566,-0.4608,-5.5787,-2.4506,0.0101,0.3994,759,2019-08-07 16:58:27:548
1.0894,9.9884,7.2812,1.2566,-0.4608,-5.5787,-2.5422,0.0516,0.4005,764,2019-08-07 16:58:27:553
1.3573,9.8834,6.1688,1.2566,-0.4608,-5.5787,-2.5422,0.0516,0.4005,768,2019-08-07 16:58:27:557
1.3573,9.8834,6.1688,1.2566,-0.4608,-5.5787,-2.5422,0.0516,0.4005,774,2019-08-07 16:58:27:563
2.1706,9.9454,4.8913,0.2445,-0.617,-3.0521,-2.605,0.1635,0.3803,779,2019-08-07 16:58:27:568
2.1706,9.9454,4.8913,0.2445,-0.617,-3.0521,-2.605,0.1635,0.3803,784,2019-08-07 16:58:27:573
2.1706,9.9454,4.8913,0.2445,-0.617,-3.0521,-2.5592,0.466,0.3153,789,2019-08-07 16:58:27:578
2.7017,10.1268,4.0475,0.2445,-0.617,-3.0521,-2.5592,0.466,0.3153,793,2019-08-07 16:58:27:582
2.7017,10.1268,4.0475,-0.2895,-1.2022,-1.2224,-2.4431,0.8016,0.2684,799,2019-08-07 16:58:27:588
2.7112,10.566,3.3028,-0.2895,-1.2022,-1.2224,-2.4431,0.8016,0.2684,804,2019-08-07 16:58:27:593
2.7112,10.566,3.3028,-0.2895,-1.2022,-1.2224,-2.4431,0.8016,0.2684,808,2019-08-07 16:58:27:597
2.7112,10.566,3.3028,-0.2895,-1.2022,-1.2224,-2.2769,1.0444,0.2152,814,2019-08-07 16:58:27:603
2.2184,11.0864,3.3028,0.3405,-2.0375,-0.2796,-2.2769,1.0444,0.2152,818,2019-08-07 16:58:27:607
2.2184,11.0864,3.3028,0.3405,-2.0375,-0.2796,-2.1289,0.8271,0.2109,824,2019-08-07 16:58:27:613
1.9123,10.6281,0.8044,0.3405,-2.0375,-0.2796,-2.1289,0.8271,0.2109,828,2019-08-07 16:58:27:617
1.9123,10.6281,0.8044,0.3405,-2.0375,-0.2796,-2.0927,0.5832,0.1949,834,2019-08-07 16:58:27:623
1.9123,10.6281,0.8044,-0.3192,-0.5018,5.0124,-2.0927,0.5832,0.1949,839,2019-08-07 16:58:27:628
2.9122,9.3535,-1.8306,-0.3192,-0.5018,5.0124,-2.0042,0.9081,0.0138,846,2019-08-07 16:58:27:635
2.9122,9.3535,-1.8306,-0.3192,-0.5018,5.0124,-2.0042,0.9081,0.0138,849,2019-08-07 16:58:27:638
3.979,9.0862,-1.1895,-0.3192,-0.5018,5.0124,-2.0042,0.9081,0.0138,854,2019-08-07 16:58:27:643
3.979,9.0862,-1.1895,-2.0928,-0.0223,4.6948,-1.8359,1.2522,0.0756,859,2019-08-07 16:58:27:648
3.979,9.0862,-1.1895,-2.0928,-0.0223,4.6948,-1.8359,1.2522,0.0756,864,2019-08-07 16:58:27:653
4.8928,8.413,-1.7882,-2.0928,-0.0223,4.6948,-1.6154,1.5419,0.18,868,2019-08-07 16:58:27:657
4.8928,8.413,-1.7882,-2.0928,-0.0223,4.6948,-1.6154,1.5419,0.18,874,2019-08-07 16:58:27:663
4.8928,8.413,-1.7882,-2.0928,-0.0223,4.6948,-1.3843,2.277,0.1161,879,2019-08-07 16:58:27:668
3.4719,8.7043,-1.7976,-1.1685,-0.0101,5.7145,-1.3843,2.277,0.1161,884,2019-08-07 16:58:27:673
3.4719,8.7043,-1.7976,-1.1685,-0.0101,5.7145,-1.1062,2.702,0.1459,888,2019-08-07 16:58:27:677
1.2568,7.4726,-2.4339,-1.1685,-0.0101,5.7145,-1.1062,2.702,0.1459,894,2019-08-07 16:58:27:683
1.2568,7.4726,-2.4339,-1.1685,-0.0101,5.7145,-1.1062,2.702,0.1459,898,2019-08-07 16:58:27:687
1.2568,7.4726,-2.4339,1.6644,1.4088,7.5279,-0.8431,2.4889,0.2045,903,2019-08-07 16:58:27:692
0.1612,7.0477,-4.5316,1.6644,1.4088,7.5279,-0.8431,2.4889,0.2045,909,2019-08-07 16:58:27:698
0.1612,7.0477,-4.5316,1.7678,1.6105,8.5482,-0.7334,2.4122,0.114,914,2019-08-07 16:58:27:703
0.1612,7.0477,-4.5316,1.7678,1.6105,8.5482,-0.7334,2.4122,0.114,919,2019-08-07 16:58:27:708
-0.0206,7.148,-3.2777,1.7678,1.6105,8.5482,-0.4106,2.0447,-0.0054,923,2019-08-07 16:58:27:712
-0.0206,7.148,-3.2777,1.7678,1.6105,8.5482,-0.4106,2.0447,-0.0054,929,2019-08-07 16:58:27:718
0.0703,6.303,-5.908,2.0264,1.8482,9.863,-0.1677,1.8413,0.0149,934,2019-08-07 16:58:27:723
0.0703,6.303,-5.908,2.0264,1.8482,9.863,-0.1677,1.8413,0.0149,938,2019-08-07 16:58:27:727
0.0703,6.303,-5.908,2.0264,1.8482,9.863,-0.1677,1.8413,0.0149,944,2019-08-07 16:58:27:733
0.6205,4.699,-7.3222,2.0264,1.8482,9.863,0.122,1.9797,-0.2344,948,2019-08-07 16:58:27:737
0.6205,4.699,-7.3222,1.1603,4.076,12.0524,0.122,1.9797,-0.2344,954,2019-08-07 16:58:27:743
0.4004,4.6322,-7.7653,1.1603,4.076,12.0524,0.2445,2.065,-0.4378,958,2019-08-07 16:58:27:747
0.4004,4.6322,-7.7653,1.1603,4.076,12.0524,0.2445,2.065,-0.4378,964,2019-08-07 16:58:27:753
0.4004,4.6322,-7.7653,1.1603,4.076,12.0524,0.2776,1.8295,-0.5316,969,2019-08-07 16:58:27:758
1.1132,6.346,-8.4818,0.2762,2.3432,12.8182,0.2776,1.8295,-0.5316,974,2019-08-07 16:58:27:763
1.1132,6.346,-8.4818,0.2762,2.3432,12.8182,0.0464,0.9624,-0.5966,979,2019-08-07 16:58:27:768
0.2042,4.8613,5.6644,0.2762,2.3432,12.8182,0.0464,0.9624,-0.5966,984,2019-08-07 16:58:27:773
0.2042,4.8613,5.6644,0.2762,2.3432,12.8182,0.888,-0.9369,-0.6179,988,2019-08-07 16:58:27:777
0.2042,4.8613,5.6644,0.4234,5.2426,-0.1128,0.888,-0.9369,-0.6179,994,2019-08-07 16:58:27:783
2.2088,4.6274,-1.7976,0.4234,5.2426,-0.1128,2.0139,-2.5444,-0.4474,998,2019-08-07 16:58:27:787
2.2088,4.6274,-1.7976,0.4234,5.2426,-0.1128,2.0139,-2.5444,-0.4474,1004,2019-08-07 16:58:27:793
14.8249,26.1955,12.3485,0.4234,5.2426,-0.1128,2.0139,-2.5444,-0.4474,1009,2019-08-07 16:58:27:798
14.8249,26.1955,12.3485,-11.8356,-16.5598,-31.2281,1.1532,-5.1511,0.1097,1013,2019-08-07 16:58:27:802
14.8249,26.1955,12.3485,-11.8356,-16.5598,-31.2281,1.1532,-5.1511,0.1097,1019,2019-08-07 16:58:27:808
6.4716,31.0505,-6.4831,-11.8356,-16.5598,-31.2281,3.3839,-3.6683,-0.2408,1024,2019-08-07 16:58:27:813
6.4716,31.0505,-6.4831,-11.8356,-16.5598,-31.2281,3.3839,-3.6683,-0.2408,1029,2019-08-07 16:58:27:818
9.0455,23.2596,-17.174,-6.1468,-19.0737,18.4623,4.0198,-0.6525,0.1459,1034,2019-08-07 16:58:27:823
9.0455,23.2596,-17.174,-6.1468,-19.0737,18.4623,4.0198,-0.6525,0.1459,1038,2019-08-07 16:58:27:827
9.0455,23.2596,-17.174,-6.1468,-19.0737,18.4623,4.2276,2.0405,-0.4762,1044,2019-08-07 16:58:27:833
0.1946,12.5711,-27.1532,-6.1468,-19.0737,18.4623,4.2276,2.0405,-0.4762,1049,2019-08-07 16:58:27:838
0.1946,12.5711,-27.1532,6.7917,-3.3032,20.6812,2.6297,5.2512,-1.0557,1053,2019-08-07 16:58:27:842
0.1946,12.5711,-27.1532,6.7917,-3.3032,20.6812,2.6297,5.2512,-1.0557,1059,2019-08-07 16:58:27:848
-10.6752,11.0291,49.5122,6.7917,-3.3032,20.6812,3.0185,-0.6578,0.2333,1063,2019-08-07 16:58:27:852
-10.6752,11.0291,49.5122,6.7917,-3.3032,20.6812,3.0185,-0.6578,0.2333,1069,2019-08-07 16:58:27:858
-2.1449,11.3203,-13.3464,3.5831,-1.8164,15.307,3.3562,-1.265,1.0418,1073,2019-08-07 16:58:27:862
-2.1449,11.3203,-13.3464,3.5831,-1.8164,15.307,3.3562,-1.265,1.0418,1079,2019-08-07 16:58:27:868
6.4572,10.8429,-18.3761,-4.8844,-1.2941,19.9829,2.1833,-1.8637,1.0674,1084,2019-08-07 16:58:27:873
6.4572,10.8429,-18.3761,-4.8844,-1.2941,19.9829,2.1833,-1.8637,1.0674,1089,2019-08-07 16:58:27:878
6.4572,10.8429,-18.3761,-4.8844,-1.2941,19.9829,2.1833,-1.8637,1.0674,1094,2019-08-07 16:58:27:883
4.7062,14.1798,-18.7296,-4.8844,-1.2941,19.9829,0.4874,-2.0714,0.3707,1098,2019-08-07 16:58:27:887
4.7062,14.1798,-18.7296,2.0999,-2.16,-41.7784,0.4874,-2.0714,0.3707,1104,2019-08-07 16:58:27:893
-1.0622,9.4202,8.6438,2.0999,-2.16,-41.7784,2.0331,-0.6003,0.3718,1109,2019-08-07 16:58:27:898
-1.0622,9.4202,8.6438,2.0999,-2.16,-41.7784,2.0331,-0.6003,0.3718,1113,2019-08-07 16:58:27:902
4.832,13.0817,-18.5219,2.0999,-2.16,-41.7784,1.2693,0.4777,0.5284,1120,2019-08-07 16:58:27:909
4.832,13.0817,-18.5219,-4.3564,-0.2716,12.8108,1.2693,0.4777,0.5284,1124,2019-08-07 16:58:27:913
4.832,13.0817,-18.5219,-4.3564,-0.2716,12.8108,1.2693,0.4777,0.5284,1129,2019-08-07 16:58:27:918
4.698,10.2079,17.8263,-2.8142,-0.6276,-16.8743,0.2584,0.2274,0.2024,1134,2019-08-07 16:58:27:923
4.698,10.2079,17.8263,-2.8142,-0.6276,-16.8743,0.2584,0.2274,0.2024,1139,2019-08-07 16:58:27:928
4.698,10.2079,17.8263,-2.8142,-0.6276,-16.8743,0.2584,0.2274,0.2024,1144,2019-08-07 16:58:27:933
-0.4546,11.1483,-8.3589,2.3546,-1.5662,9.258,0.3564,-1.1937,0.1044,1149,2019-08-07 16:58:27:938
-0.4546,11.1483,-8.3589,2.3546,-1.5662,9.258,0.3564,-1.1937,0.1044,1153,2019-08-07 16:58:27:942
3.0953,11.0051,-0.8734,2.3546,-1.5662,9.258,0.1785,1.2223,0.2322,1159,2019-08-07 16:58:27:948
3.0953,11.0051,-0.8734,-0.237,-0.7841,0.4194,0.1785,1.2223,0.2322,1164,2019-08-07 16:58:27:953
3.0953,11.0051,-0.8734,-0.237,-0.7841,0.4194,0.0293,0.9134,0.1427,1169,2019-08-07 16:58:27:958
0.641,10.9908,-4.4464,-0.237,-0.7841,0.4194,0.0293,0.9134,0.1427,1173,2019-08-07 16:58:27:962
0.641,10.9908,-4.4464,-0.237,-0.7841,0.4194,-0.4713,0.1826,0.1576,1179,2019-08-07 16:58:27:968
0.6219,11.3488,-1.637,1.3203,-1.7741,2.5255,-0.4713,0.1826,0.1576,1184,2019-08-07 16:58:27:973
0.6219,11.3488,-1.637,1.3203,-1.7741,2.5255,-0.7803,-0.2349,0.196,1189,2019-08-07 16:58:27:978
0.6219,11.3488,-1.637,1.3203,-1.7741,2.5255,-0.7803,-0.2349,0.196,1193,2019-08-07 16:58:27:982
3.0762,10.8141,-3.0276,1.3203,-1.7741,2.5255,-0.956,-0.04,0.1896,1199,2019-08-07 16:58:27:988
3.0762,10.8141,-3.0276,-2.0493,-1.1335,3.4698,-0.956,-0.04,0.1896,1203,2019-08-07 16:58:27:992
3.0762,10.8141,-3.0276,-2.0493,-1.1335,3.4698,-1.2266,0.1816,0.0927,1209,2019-08-07 16:58:27:998
4.0475,11.239,-0.7697,-2.0493,-1.1335,3.4698,-1.2266,0.1816,0.0927,1214,2019-08-07 16:58:28:003
4.0475,11.239,-0.7697,-2.0493,-1.1335,3.4698,-1.2266,0.1816,0.0927,1219,2019-08-07 16:58:28:008
4.0475,11.239,-0.7697,-2.0493,-1.1335,3.4698,-1.5771,0.123,-0.0458,1223,2019-08-07 16:58:28:012
2.7797,7.1431,-7.9205,-0.3258,2.3031,3.7214,-1.5771,0.123,-0.0458,1229,2019-08-07 16:58:28:018
2.7797,7.1431,-7.9205,-0.3258,2.3031,3.7214,-1.2958,0.0218,-0.0948,1234,2019-08-07 16:58:28:023
2.7797,7.1431,-7.9205,-0.3258,2.3031,3.7214,-1.2958,0.0218,-0.0948,1239,2019-08-07 16:58:28:028
8.6117,12.1699,-6.1434,-0.3258,2.3031,3.7214,-1.2958,0.0218,-0.0948,1244,2019-08-07 16:58:28:033
8.6117,12.1699,-6.1434,-4.1181,1.3276,-7.2505,-2.4218,-0.9838,-0.3952,1249,2019-08-07 16:58:28:038
3.7748,8.2554,-4.7858,-4.1181,1.3276,-7.2505,-2.4218,-0.9838,-0.3952,1254,2019-08-07 16:58:28:043
3.7748,8.2554,-4.7858,-4.1181,1.3276,-7.2505,-2.4218,-0.9838,-0.3952,1258,2019-08-07 16:58:28:047
3.7748,8.2554,-4.7858,-4.1181,1.3276,-7.2505,-2.2631,0.3083,-0.7159,1264,2019-08-07 16:58:28:053
3.9853,11.7403,-8.8963,-2.0765,-2.3141,10.8303,-2.2631,0.3083,-0.7159,1269,2019-08-07 16:58:28:058
3.9853,11.7403,-8.8963,-2.0765,-2.3141,10.8303,-2.6977,1.4993,-0.6296,1273,2019-08-07 16:58:28:062
1.2631,11.9312,0.1165,-2.0765,-2.3141,10.8303,-2.6977,1.4993,-0.6296,1279,2019-08-07 16:58:28:068
1.2631,11.9312,0.1165,-2.0765,-2.3141,10.8303,-2.5837,0.891,-0.4389,1284,2019-08-07 16:58:28:073
1.2631,11.9312,0.1165,0.9782,-3.9819,7.7405,-2.5837,0.891,-0.4389,1288,2019-08-07 16:58:28:077
1.2631,11.9312,0.1165,0.9782,-3.9819,7.7405,-2.5837,0.891,-0.4389,1294,2019-08-07 16:58:28:083
-0.6506,15.4447,-0.27,0.9782,-3.9819,7.7405,-2.8607,0.4958,-0.2866,1299,2019-08-07 16:58:28:088
-0.6506,15.4447,-0.27,0.9782,-3.9819,7.7405,-2.8607,0.4958,-0.2866,1304,2019-08-07 16:58:28:093
0.268,15.65,-0.6754,1.7095,-6.557,5.0067,-2.8788,0.4351,0.0809,1309,2019-08-07 16:58:28:098
0.268,15.65,-0.6754,1.7095,-6.557,5.0067,-2.8788,0.4351,0.0809,1314,2019-08-07 16:58:28:103
0.268,15.65,-0.6754,0.8871,-5.7336,3.4223,-2.9086,0.4585,0.2578,1319,2019-08-07 16:58:28:108
0.8087,14.3086,-0.0861,0.8871,-5.7336,3.4223,-2.9086,0.4585,0.2578,1323,2019-08-07 16:58:28:112
0.8087,14.3086,-0.0861,0.8871,-5.7336,3.4223,-2.8916,0.4617,0.3441,1329,2019-08-07 16:58:28:118
0.8087,14.3086,-0.0861,0.8871,-5.7336,3.4223,-2.8916,0.4617,0.3441,1333,2019-08-07 16:58:28:122
1.3589,11.0194,1.7617,-0.0175,-1.3915,1.6192,-2.9236,0.3893,0.2791,1339,2019-08-07 16:58:28:128
1.3589,11.0194,1.7617,-0.0175,-1.3915,1.6192,-2.9236,0.3893,0.2791,1343,2019-08-07 16:58:28:132
3.8371,9.4536,4.128,-0.0175,-1.3915,1.6192,-2.9076,0.3776,0.0138,1349,2019-08-07 16:58:28:138
3.8371,9.4536,4.128,-0.0175,-1.3915,1.6192,-2.9076,0.3776,0.0138,1354,2019-08-07 16:58:28:143
4.5691,12.2415,1.3469,-3.1869,-3.0153,2.58,-2.816,0.4255,-0.2035,1359,2019-08-07 16:58:28:148
4.5691,12.2415,1.3469,-3.1869,-3.0153,2.58,-2.816,0.4255,-0.2035,1363,2019-08-07 16:58:28:152
4.5691,12.2415,1.3469,-3.1869,-3.0153,2.58,-2.5273,0.2817,-0.0426,1369,2019-08-07 16:58:28:158
0.8374,12.8621,3.6755,-3.1869,-3.0153,2.58,-2.5273,0.2817,-0.0426,1374,2019-08-07 16:58:28:163
0.8374,12.8621,3.6755,1.9535,-3.1324,0.0108,-2.5273,0.2817,-0.0426,1379,2019-08-07 16:58:28:168
-1.4829,8.4177,4.2034,1.9535,-3.1324,0.0108,-1.8562,-0.5215,0.311,1384,2019-08-07 16:58:28:173
-1.4829,8.4177,4.2034,1.9535,-3.1324,0.0108,-1.8562,-0.5215,0.311,1389,2019-08-07 16:58:28:178
-1.4829,8.4177,4.2034,1.9535,-3.1324,0.0108,-1.8562,-0.5215,0.311,1394,2019-08-07 16:58:28:183
-0.2486,5.5868,-3.7959,1.9959,2.6963,8.7531,-1.2,-1.8691,0.3292,1398,2019-08-07 16:58:28:187
-0.2486,5.5868,-3.7959,1.9959,2.6963,8.7531,-1.2,-1.8691,0.3292,1403,2019-08-07 16:58:28:192
-0.2486,5.5868,-3.7959,1.9959,2.6963,8.7531,-0.2966,-2.8331,0.294,1409,2019-08-07 16:58:28:198
2.1483,3.5054,-5.7285,1.9959,2.6963,8.7531,-0.2966,-2.8331,0.294,1413,2019-08-07 16:58:28:202
2.1483,3.5054,-5.7285,-1.0052,3.7818,9.4506,0.6216,-3.8707,0.0266,1419,2019-08-07 16:58:28:208
2.4067,6.236,-1.274,-1.0052,3.7818,9.4506,0.6216,-3.8707,0.0266,1424,2019-08-07 16:58:28:213
2.4067,6.236,-1.274,-1.0052,3.7818,9.4506,1.2896,-5.0254,-0.2898,1429,2019-08-07 16:58:28:218
2.4067,6.236,-1.274,-1.0052,3.7818,9.4506,1.2896,-5.0254,-0.2898,1434,2019-08-07 16:58:28:223
1.0384,9.191,-9.5326,1.4515,-0.7769,13.9187,1.2896,-5.0254,-0.2898,1438,2019-08-07 16:58:28:227
1.0384,9.191,-9.5326,1.4515,-0.7769,13.9187,1.5228,-3.1282,-0.31,1444,2019-08-07 16:58:28:233
1.0384,9.191,-9.5326,1.4515,-0.7769,13.9187,1.5228,-3.1282,-0.31,1449,2019-08-07 16:58:28:238
6.6504,10.4895,-6.9258,1.4515,-0.7769,13.9187,1.8797,-0.8986,-0.2333,1453,2019-08-07 16:58:28:242
6.6504,10.4895,-6.9258,-4.3135,-1.47,1.9524,1.8797,-0.8986,-0.2333,1459,2019-08-07 16:58:28:248
7.2532,9.5013,1.4742,-4.3135,-1.47,1.9524,2.2217,-0.0443,-0.228,1464,2019-08-07 16:58:28:253
7.2532,9.5013,1.4742,-4.3135,-1.47,1.9524,2.2217,-0.0443,-0.228,1469,2019-08-07 16:58:28:258
7.2532,9.5013,1.4742,-4.3135,-1.47,1.9524,2.2494,-0.2637,-0.3153,1473,2019-08-07 16:58:28:262
3.9425,10.9812,0.357,-1.056,-2.2341,3.8488,2.2494,-0.2637,-0.3153,1479,2019-08-07 16:58:28:268
3.9425,10.9812,0.357,-1.056,-2.2341,3.8488,2.2494,-0.2637,-0.3153,1484,2019-08-07 16:58:28:273
4.1961,11.3249,0.5785,-1.056,-2.2341,3.8488,2.325,0.7685,-0.3079,1489,2019-08-07 16:58:28:278
4.1961,11.3249,0.5785,-1.056,-2.2341,3.8488,2.325,0.7685,-0.3079,1493,2019-08-07 16:58:28:282
4.1961,11.3249,0.5785,-1.056,-2.2341,3.8488,2.325,0.7685,-0.3079,1499,2019-08-07 16:58:28:288
3.6937,10.7855,2.5725,-1.1804,-1.834,0.5564,2.3058,1.413,-0.2642,1504,2019-08-07 16:58:28:293
3.6937,10.7855,2.5725,-1.1804,-1.834,0.5564,2.3058,1.413,-0.2642,1508,2019-08-07 16:58:28:297
1.914,11.4013,2.6008,-1.1804,-1.834,0.5564,2.2771,1.5025,-0.2908,1514,2019-08-07 16:58:28:303
1.914,11.4013,2.6008,0.658,-2.0472,0.2728,2.2771,1.5025,-0.2908,1519,2019-08-07 16:58:28:308
1.914,11.4013,2.6008,0.658,-2.0472,0.2728,2.3122,1.4716,-0.2099,1523,2019-08-07 16:58:28:312
1.6844,10.7616,2.4971,0.658,-2.0472,0.2728,2.3122,1.4716,-0.2099,1529,2019-08-07 16:58:28:318
1.6844,10.7616,2.4971,0.658,-2.0472,0.2728,2.2739,1.2383,-0.1896,1533,2019-08-07 16:58:28:322
1.0242,10.3272,2.384,1.2311,-1.0889,0.0251,2.2739,1.2383,-0.1896,1539,2019-08-07 16:58:28:328
1.0242,10.3272,2.384,1.2311,-1.0889,0.0251,2.2739,1.2383,-0.1896,1544,2019-08-07 16:58:28:333
1.0242,10.3272,2.384,1.2311,-1.0889,0.0251,2.2163,0.9209,-0.1726,1548,2019-08-07 16:58:28:337
0.4405,10.4465,2.7139,1.2311,-1.0889,0.0251,2.2163,0.9209,-0.1726,1554,2019-08-07 16:58:28:343
0.4405,10.4465,2.7139,1.8298,-0.9853,-0.6351,2.113,0.5864,-0.0906,1559,2019-08-07 16:58:28:348
0.3927,10.4036,2.7375,1.8298,-0.9853,-0.6351,2.113,0.5864,-0.0906,1563,2019-08-07 16:58:28:352
0.3927,10.4036,2.7375,1.8298,-0.9853,-0.6351,1.9948,0.2253,-0.0277,1568,2019-08-07 16:58:28:357
0.3927,10.4036,2.7375,1.8298,-0.9853,-0.6351,1.9948,0.2253,-0.0277,1574,2019-08-07 16:58:28:363
0.3257,10.0025,2.7752,1.8298,-0.9853,-0.6351,1.8723,-0.056,-0.0085,1579,2019-08-07 16:58:28:368
0.3257,10.0025,2.7752,1.7521,-0.506,-1.034,1.8723,-0.056,-0.0085,1584,2019-08-07 16:58:28:373
0.3257,10.0025,2.7752,1.7521,-0.506,-1.034,1.8723,-0.056,-0.0085,1589,2019-08-07 16:58:28:378
0.8664,9.8402,2.7234,1.7521,-0.506,-1.034,1.7838,-0.3468,-0.0117,1593,2019-08-07 16:58:28:382
0.8664,9.8402,2.7234,1.7521,-0.506,-1.034,1.7838,-0.3468,-0.0117,1599,2019-08-07 16:58:28:388
0.8664,9.8402,2.7234,0.8533,-0.4687,-0.8224,1.7167,-0.4693,-0.0096,1603,2019-08-07 16:58:28:392
1.5505,9.9214,2.3698,0.8533,-0.4687,-0.8224,1.7167,-0.4693,-0.0096,1609,2019-08-07 16:58:28:398
1.5505,9.9214,2.3698,0.8533,-0.4687,-0.8224,1.7189,-0.4341,-0.0352,1613,2019-08-07 16:58:28:402
1.9189,10.0216,2.8412,0.8533,-0.4687,-0.8224,1.7189,-0.4341,-0.0352,1618,2019-08-07 16:58:28:407
1.9189,10.0216,2.8412,0.2073,-0.4608,-1.7416,1.7327,-0.2903,-0.0543,1624,2019-08-07 16:58:28:413
1.9189,10.0216,2.8412,0.2073,-0.4608,-1.7416,1.7327,-0.2903,-0.0543,1629,2019-08-07 16:58:28:418
2.029,9.7591,3.0345,0.2073,-0.4608,-1.7416,1.7103,-0.1391,-0.0565,1634,2019-08-07 16:58:28:423
2.029,9.7591,3.0345,0.2073,-0.4608,-1.7416,1.7103,-0.1391,-0.0565,1638,2019-08-07 16:58:28:427
1.7419,9.3772,3.5766,0.265,0.1517,-2.8993,1.7103,-0.1391,-0.0565,1644,2019-08-07 16:58:28:433
1.7419,9.3772,3.5766,0.265,0.1517,-2.8993,1.6986,-0.0475,-0.0511,1648,2019-08-07 16:58:28:437
1.7419,9.3772,3.5766,0.265,0.1517,-2.8993,1.6986,-0.0475,-0.0511,1654,2019-08-07 16:58:28:443
1.5171,9.1194,3.6991,0.265,0.1517,-2.8993,1.6443,0.0378,-0.0011,1659,2019-08-07 16:58:28:448
1.5171,9.1194,3.6991,0.6954,0.5948,-3.5578,1.6443,0.0378,-0.0011,1663,2019-08-07 16:58:28:452
1.2731,8.9523,3.9443,0.6954,0.5948,-3.5578,1.6027,0.0367,0.0053,1669,2019-08-07 16:58:28:458
1.2731,8.9523,3.9443,0.6954,0.5948,-3.5578,1.6027,0.0367,0.0053,1673,2019-08-07 16:58:28:462
1.2731,8.9523,3.9443,0.6954,0.5948,-3.5578,1.6027,0.0367,0.0053,1679,2019-08-07 16:58:28:468
0.8473,9.043,4.1941,1.2436,0.493,-4.2512,1.5569,-0.0517,0.0074,1684,2019-08-07 16:58:28:473
0.8473,9.043,4.1941,1.2436,0.493,-4.2512,1.5569,-0.0517,0.0074,1689,2019-08-07 16:58:28:478
0.8473,9.043,4.1941,1.2436,0.493,-4.2512,1.5569,-0.0517,0.0074,1693,2019-08-07 16:58:28:482
0.8521,9.1862,4.3496,1.2436,0.493,-4.2512,1.5292,-0.3084,0.0128,1699,2019-08-07 16:58:28:488
0.8521,9.1862,4.3496,1.0632,0.5935,-4.4799,1.5292,-0.3084,0.0128,1703,2019-08-07 16:58:28:492
1.0961,8.8186,4.5052,1.0632,0.5935,-4.4799,1.5442,-0.5353,-0.0384,1709,2019-08-07 16:58:28:498
1.0961,8.8186,4.5052,1.0632,0.5935,-4.4799,1.5442,-0.5353,-0.0384,1713,2019-08-07 16:58:28:502
1.1536,8.6086,4.3072,1.0632,0.5935,-4.4799,1.5527,-0.6302,-0.0842,1720,2019-08-07 16:58:28:509
1.1536,8.6086,4.3072,0.908,1.1753,-5.0822,1.5527,-0.6302,-0.0842,1724,2019-08-07 16:58:28:513
1.1536,8.6086,4.3072,0.908,1.1753,-5.0822,1.6688,-0.7495,-0.1044,1729,2019-08-07 16:58:28:518
2.0626,9.191,2.4264,0.908,1.1753,-5.0822,1.6688,-0.7495,-0.1044,1734,2019-08-07 16:58:28:523
2.0626,9.191,2.4264,0.908,1.1753,-5.0822,1.3481,-0.7505,0.0202,1739,2019-08-07 16:58:28:528
2.0626,9.191,2.4264,-0.6692,-0.5202,-8.883,1.3481,-0.7505,0.0202,1743,2019-08-07 16:58:28:532
2.8424,9.4058,9.2756,-0.6692,-0.5202,-8.883,1.3481,-0.7505,0.0202,1749,2019-08-07 16:58:28:538
2.8424,9.4058,9.2756,-0.6692,-0.5202,-8.883,1.281,-0.3255,0.0586,1754,2019-08-07 16:58:28:543
3.4022,6.5988,3.9066,-0.6692,-0.5202,-8.883,1.281,-0.3255,0.0586,1759,2019-08-07 16:58:28:548
3.4022,6.5988,3.9066,-1.7068,0.0033,-6.9812,1.1074,0.1358,-0.1097,1763,2019-08-07 16:58:28:552
2.2109,12.4706,18.7786,-1.7068,0.0033,-6.9812,1.1074,0.1358,-0.1097,1769,2019-08-07 16:58:28:558
2.2109,12.4706,18.7786,-1.7068,0.0033,-6.9812,0.072,-0.1891,0.0778,1774,2019-08-07 16:58:28:563
2.2109,12.4706,18.7786,-1.7068,0.0033,-6.9812,0.072,-0.1891,0.0778,1779,2019-08-07 16:58:28:568
4.6126,8.9714,12.7968,-2.5265,0.5655,-13.7621,-0.1517,-0.0581,0.3153,1784,2019-08-07 16:58:28:573
4.6126,8.9714,12.7968,-2.5265,0.5655,-13.7621,-0.1517,-0.0581,0.3153,1789,2019-08-07 16:58:28:578
4.6126,8.9714,12.7968,-2.5265,0.5655,-13.7621,-0.1517,-0.0581,0.3153,1793,2019-08-07 16:58:28:582
4.8471,10.4656,19.7921,-2.5265,0.5655,-13.7621,-0.6418,0.3989,0.2162,1799,2019-08-07 16:58:28:588
4.8471,10.4656,19.7921,-2.1154,-1.884,-22.2282,-0.6418,0.3989,0.2162,1804,2019-08-07 16:58:28:593
4.8471,10.4656,19.7921,-2.1154,-1.884,-22.2282,-1.5888,0.5225,0.2429,1809,2019-08-07 16:58:28:598
4.0768,11.8786,24.5483,-2.1154,-1.884,-22.2282,-1.5888,0.5225,0.2429,1814,2019-08-07 16:58:28:603
4.0768,11.8786,24.5483,-1.7135,-1.4855,-23.9815,-1.5888,0.5225,0.2429,1818,2019-08-07 16:58:28:607
4.0768,11.8786,24.5483,-1.7135,-1.4855,-23.9815,-1.9339,0.3371,0.3313,1824,2019-08-07 16:58:28:613
4.7562,9.0812,-0.7177,-1.7135,-1.4855,-23.9815,-1.9339,0.3371,0.3313,1829,2019-08-07 16:58:28:618
4.7562,9.0812,-0.7177,-3.0189,-0.0162,-0.6521,-1.4918,0.1113,0.4666,1834,2019-08-07 16:58:28:623
4.8663,9.3915,-1.5897,-3.0189,-0.0162,-0.6521,-1.4918,0.1113,0.4666,1839,2019-08-07 16:58:28:628
4.8663,9.3915,-1.5897,-3.0189,-0.0162,-0.6521,-0.8005,-0.2222,0.424,1843,2019-08-07 16:58:28:632
4.8663,9.3915,-1.5897,-3.0189,-0.0162,-0.6521,-0.8005,-0.2222,0.424,1849,2019-08-07 16:58:28:638
3.7037,10.6422,-6.7561,-0.934,-2.4759,2.1938,-0.4277,-0.0283,0.3185,1854,2019-08-07 16:58:28:643
3.7037,10.6422,-6.7561,-0.934,-2.4759,2.1938,-0.4277,-0.0283,0.3185,1859,2019-08-07 16:58:28:648
1.8139,10.8952,9.9025,-0.934,-2.4759,2.1938,-0.2306,0.2572,-0.0661,1864,2019-08-07 16:58:28:653
1.8139,10.8952,9.9025,-0.934,-2.4759,2.1938,-0.2306,0.2572,-0.0661,1869,2019-08-07 16:58:28:658
1.8139,10.8952,9.9025,0.9953,-3.5263,-1.2467,-0.2306,0.2572,-0.0661,1873,2019-08-07 16:58:28:662
1.7135,12.2558,2.6857,0.9953,-3.5263,-1.2467,-0.4564,-0.0102,0.2045,1879,2019-08-07 16:58:28:668
1.7135,12.2558,2.6857,0.9953,-3.5263,-1.2467,-0.4564,-0.0102,0.2045,1884,2019-08-07 16:58:28:673
1.7135,12.2558,2.6857,0.9953,-3.5263,-1.2467,-0.1091,0.1699,0.1299,1889,2019-08-07 16:58:28:678
0.838,12.1364,-0.5008,0.9953,-3.5263,-1.2467,-0.1091,0.1699,0.1299,1894,2019-08-07 16:58:28:683
0.838,12.1364,-0.5008,1.9892,-2.8606,-0.3226,-0.0569,0.6045,0.1054,1899,2019-08-07 16:58:28:688
0.3739,10.7616,4.2696,1.9892,-2.8606,-0.3226,-0.0569,0.6045,0.1054,1904,2019-08-07 16:58:28:693
0.3739,10.7616,4.2696,1.9892,-2.8606,-0.3226,-0.0569,0.6045,0.1054,1909,2019-08-07 16:58:28:698
0.3739,10.7616,4.2696,1.9892,-2.8606,-0.3226,0.1092,0.1528,0.2024,1914,2019-08-07 16:58:28:703
1.3117,9.3437,0.6871,1.1175,-0.1433,-0.8251,0.1092,0.1528,0.2024,1919,2019-08-07 16:58:28:708
1.3117,9.3437,0.6871,1.1175,-0.1433,-0.8251,0.0858,-0.1401,0.2141,1924,2019-08-07 16:58:28:713
1.3117,9.3437,0.6871,1.1175,-0.1433,-0.8251,0.0858,-0.1401,0.2141,1929,2019-08-07 16:58:28:718
1.9958,8.6181,-0.152,-0.4005,0.7116,-0.0172,0.1582,0.2583,0.2003,1934,2019-08-07 16:58:28:723
1.9958,8.6181,-0.152,-0.4005,0.7116,-0.0172,0.1582,0.2583,0.2003,1938,2019-08-07 16:58:28:727
1.9958,8.6181,-0.152,-0.4005,0.7116,-0.0172,0.1582,0.2583,0.2003,1944,2019-08-07 16:58:28:733
4.3353,9.0477,1.0689,-0.4005,0.7116,-0.0172,0.1593,0.2274,0.1683,1948,2019-08-07 16:58:28:737
4.3353,9.0477,1.0689,-2.1675,0.2941,-0.315,0.17,0.041,0.1331,1954,2019-08-07 16:58:28:743
4.5746,9.2005,0.1921,-2.1675,0.2941,-0.315,0.17,0.041,0.1331,1959,2019-08-07 16:58:28:748
4.5746,9.2005,0.1921,-2.1675,0.2941,-0.315,0.17,0.041,0.1331,1964,2019-08-07 16:58:28:753
4.5746,9.2005,0.1921,-2.1675,0.2941,-0.315,0.1902,0.2785,0.1097,1968,2019-08-07 16:58:28:757
3.8187,9.0048,-0.1567,-2.1675,0.2941,-0.315,0.1902,0.2785,0.1097,1974,2019-08-07 16:58:28:763
3.8187,9.0048,-0.1567,-0.9327,0.4094,-0.1166,0.1902,0.2785,0.1097,1978,2019-08-07 16:58:28:767
2.8236,9.3485,0.6871,-0.9327,0.4094,-0.1166,0.1582,0.5608,0.1108,1984,2019-08-07 16:58:28:773
2.8236,9.3485,0.6871,-0.9327,0.4094,-0.1166,0.1582,0.5608,0.1108,1989,2019-08-07 16:58:28:778
2.8236,9.3485,0.6871,-0.9327,0.4094,-0.1166,0.1028,0.1997,0.1321,1994,2019-08-07 16:58:28:783
2.1968,9.9691,0.2204,0.3439,-0.4942,-0.1359,0.1028,0.1997,0.1321,1999,2019-08-07 16:58:28:788
2.1968,9.9691,0.2204,0.3439,-0.4942,-0.1359,0.072,0.0037,0.1257,2004,2019-08-07 16:58:28:793
2.1968,9.9691,0.2204,0.3439,-0.4942,-0.1359,0.072,0.0037,0.1257,2009,2019-08-07 16:58:28:798
2.2447,10.5228,0.1261,0.3439,-0.4942,-0.1359,0.0624,-0.0016,0.1268,2014,2019-08-07 16:58:28:803
2.2447,10.5228,0.1261,0.1392,-1.1965,-0.0072,0.0624,-0.0016,0.1268,2018,2019-08-07 16:58:28:807
2.2447,10.5228,0.1261,0.1392,-1.1965,-0.0072,0.0592,0.1272,0.1268,2024,2019-08-07 16:58:28:813
2.4791,10.8093,-0.2274,0.1392,-1.1965,-0.0072,0.0592,0.1272,0.1268,2029,2019-08-07 16:58:28:818
2.4791,10.8093,-0.2274,0.1392,-1.1965,-0.0072,0.0581,0.2135,0.1299,2033,2019-08-07 16:58:28:822
2.4791,10.8093,-0.2274,0.5046,-1.0351,0.2416,0.0581,0.2135,0.1299,2039,2019-08-07 16:58:28:828
1.972,10.1791,0.0083,0.5046,-1.0351,0.2416,0.0581,0.2135,0.1299,2043,2019-08-07 16:58:28:832
1.972,10.1791,0.0083,0.5046,-1.0351,0.2416,0.0389,0.2466,0.1427,2049,2019-08-07 16:58:28:838
2.24,9.6779,0.5598,0.5046,-1.0351,0.2416,0.0389,0.2466,0.1427,2053,2019-08-07 16:58:28:842
2.24,9.6779,0.5598,0.2217,-0.1488,-0.5155,0.007,0.0537,0.1736,2059,2019-08-07 16:58:28:848
2.24,9.6779,0.5598,0.2217,-0.1488,-0.5155,0.007,0.0537,0.1736,2064,2019-08-07 16:58:28:853
3.0102,9.6158,0.0507,0.2217,-0.1488,-0.5155,-0.026,-0.0592,0.1779,2069,2019-08-07 16:58:28:858
3.0102,9.6158,0.0507,0.2217,-0.1488,-0.5155,-0.026,-0.0592,0.1779,2074,2019-08-07 16:58:28:863
3.0437,9.6206,-0.5903,-0.4028,-0.1731,0.6646,-0.0367,0.042,0.1683,2079,2019-08-07 16:58:28:868
3.0437,9.6206,-0.5903,-0.4028,-0.1731,0.6646,-0.0367,0.042,0.1683,2084,2019-08-07 16:58:28:873
3.0437,9.6206,-0.5903,-0.4028,-0.1731,0.6646,-0.0452,0.1624,0.1598,2088,2019-08-07 16:58:28:877
2.6132,9.3867,0.0366,-0.4028,-0.1731,0.6646,-0.0452,0.1624,0.1598,2094,2019-08-07 16:58:28:883
2.6132,9.3867,0.0366,0.1269,0.0708,-0.2174,-0.058,0.1081,0.1683,2099,2019-08-07 16:58:28:888
2.6132,9.3867,0.0366,0.1269,0.0708,-0.2174,-0.058,0.1081,0.1683,2103,2019-08-07 16:58:28:892
2.6548,9.5587,0.569,0.1269,0.0708,-0.2174,-0.058,0.1081,0.1683,2109,2019-08-07 16:58:28:898
2.6548,9.5587,0.569,0.1269,0.0708,-0.2174,-0.0761,-0.0112,0.1683,2113,2019-08-07 16:58:28:902
2.9849,9.8021,0.7104,-0.2797,-0.3731,-0.6037,-0.0761,-0.0112,0.1683,2119,2019-08-07 16:58:28:908
2.9849,9.8021,0.7104,-0.2797,-0.3731,-0.6037,-0.0676,-0.1295,0.1779,2123,2019-08-07 16:58:28:912
2.9849,9.8021,0.7104,-0.2797,-0.3731,-0.6037,-0.0676,-0.1295,0.1779,2129,2019-08-07 16:58:28:918
3.3867,9.3868,0.0881,-0.2797,-0.3731,-0.6037,-0.0623,-0.0645,0.1502,2134,2019-08-07 16:58:28:923
3.3867,9.3868,0.0881,-0.6022,0.1987,0.1775,-0.0623,-0.0645,0.1502,2139,2019-08-07 16:58:28:928
3.3867,9.3868,0.0881,-0.6022,0.1987,0.1775,-0.0548,0.0932,0.1321,2144,2019-08-07 16:58:28:933
3.2145,9.1863,-0.0533,-0.6022,0.1987,0.1775,-0.0548,0.0932,0.1321,2149,2019-08-07 16:58:28:938
3.2145,9.1863,-0.0533,-0.1381,0.1133,-0.1265,-0.0548,0.0932,0.1321,2154,2019-08-07 16:58:28:943
2.2337,9.6923,1.1205,-0.1381,0.1133,-0.1265,-0.0505,0.1113,0.1374,2158,2019-08-07 16:58:28:947
2.2337,9.6923,1.1205,-0.1381,0.1133,-0.1265,-0.0505,0.1113,0.1374,2164,2019-08-07 16:58:28:953
2.2337,9.6923,1.1205,0.6981,-0.4952,-1.2649,-0.0378,-0.0421,0.163,2169,2019-08-07 16:58:28:958
2.1285,10.017,1.2525,0.6981,-0.4952,-1.2649,-0.0378,-0.0421,0.163,2173,2019-08-07 16:58:28:962
2.1285,10.017,1.2525,0.6981,-0.4952,-1.2649,-0.0218,-0.2381,0.1832,2179,2019-08-07 16:58:28:968
2.5543,10.2031,0.5124,0.6981,-0.4952,-1.2649,-0.0218,-0.2381,0.1832,2184,2019-08-07 16:58:28:973
2.5543,10.2031,0.5124,0.0493,-0.6618,-0.2873,-0.0218,-0.2381,0.1832,2188,2019-08-07 16:58:28:977
2.5543,10.2031,0.5124,0.0493,-0.6618,-0.2873,-0.0015,-0.2232,0.1694,2194,2019-08-07 16:58:28:983
2.8748,9.869,0.7104,-0.1306,-0.3945,-0.6311,-0.0015,-0.2232,0.1694,2199,2019-08-07 16:58:28:988
2.8748,9.869,0.7104,-0.1306,-0.3945,-0.6311,0.0219,-0.1849,0.1726,2204,2019-08-07 16:58:28:993
3.0901,9.5873,0.3615,-0.1306,-0.3945,-0.6311,0.0219,-0.1849,0.1726,2208,2019-08-07 16:58:28:997
3.0901,9.5873,0.3615,-0.1306,-0.3945,-0.6311,0.0315,-0.1465,0.1704,2214,2019-08-07 16:58:29:003
3.0901,9.5873,0.3615,-0.1543,-0.2661,-0.1861,0.0315,-0.1465,0.1704,2219,2019-08-07 16:58:29:008
2.9322,9.6828,0.4181,-0.1543,-0.2661,-0.1861,0.04,-0.0283,0.1438,2223,2019-08-07 16:58:29:012
2.9322,9.6828,0.4181,-0.1543,-0.2661,-0.1861,0.04,-0.0283,0.1438,2229,2019-08-07 16:58:29:018
3.0518,9.573,0.9885,-0.1543,-0.2661,-0.1861,0.0634,-0.0134,0.1417,2234,2019-08-07 16:58:29:023
3.0518,9.573,0.9885,-0.3514,-0.1409,-0.5278,0.0634,-0.0134,0.1417,2239,2019-08-07 16:58:29:028
3.0518,9.573,0.9885,-0.3514,-0.1409,-0.5278,0.0634,-0.0134,0.1417,2243,2019-08-07 16:58:29:032
3.3436,9.3964,0.3992,-0.3514,-0.1409,-0.5278,0.0624,-0.138,0.1278,2249,2019-08-07 16:58:29:038
3.3436,9.3964,0.3992,-0.6099,0.0458,-0.2584,0.0624,-0.138,0.1278,2253,2019-08-07 16:58:29:042
3.5781,9.3439,-0.0533,-0.6099,0.0458,-0.2584,0.0688,-0.0837,0.0959,2259,2019-08-07 16:58:29:048
3.5781,9.3439,-0.0533,-0.6099,0.0458,-0.2584,0.0688,-0.0837,0.0959,2264,2019-08-07 16:58:29:053
3.5781,9.3439,-0.0533,-0.4105,-0.2569,0.3085,0.0507,-0.0251,0.0873,2269,2019-08-07 16:58:29:058
3.3341,9.6207,-0.2183,-0.4105,-0.2569,0.3085,0.0507,-0.0251,0.0873,2273,2019-08-07 16:58:29:062
3.3341,9.6207,-0.2183,-0.4105,-0.2569,0.3085,0.0325,-0.0347,0.0767,2279,2019-08-07 16:58:29:068
2.6403,9.826,0.7386,-0.4105,-0.2569,0.3085,0.0325,-0.0347,0.0767,2283,2019-08-07 16:58:29:072
2.6403,9.826,0.7386,-0.4105,-0.2569,0.3085,0.0325,-0.0347,0.0767,2289,2019-08-07 16:58:29:078
2.6403,9.826,0.7386,0.2679,-0.3852,-0.9473,0.0411,-0.154,0.0831,2293,2019-08-07 16:58:29:082
2.7886,9.7162,0.9649,0.2679,-0.3852,-0.9473,0.0411,-0.154,0.0831,2299,2019-08-07 16:58:29:088
2.7886,9.7162,0.9649,0.2679,-0.3852,-0.9473,0.0528,-0.2999,0.0767,2303,2019-08-07 16:58:29:092
2.7886,9.7162,0.9649,0.2679,-0.3852,-0.9473,0.0528,-0.2999,0.0767,2309,2019-08-07 16:58:29:098
3.5398,9.5205,0.5548,-0.5875,-0.1655,-0.4919,0.0762,-0.3415,0.0575,2313,2019-08-07 16:58:29:102
3.5398,9.5205,0.5548,-0.5875,-0.1655,-0.4919,0.0762,-0.3415,0.0575,2319,2019-08-07 16:58:29:108
3.5398,9.5205,0.6066,-0.5875,-0.1655,-0.4919,0.1391,-0.2051,0.0224,2324,2019-08-07 16:58:29:113
3.7024,9.2818,0.6066,-0.5875,-0.1655,-0.4919,0.1391,-0.2051,0.0224,2328,2019-08-07 16:58:29:117
3.7024,9.2818,0.6066,-0.7525,0.1698,-0.2661,0.1732,-0.0709,0.0149,2334,2019-08-07 16:58:29:123
3.6259,9.2723,0.0457,-0.7525,0.1698,-0.2661,0.1732,-0.0709,0.0149,2338,2019-08-07 16:58:29:127
3.6259,9.2723,0.0457,-0.7525,0.1698,-0.2661,0.1796,0.0037,-0.0203,2344,2019-08-07 16:58:29:133
3.6259,9.2723,0.0457,-0.7525,0.1698,-0.2661,0.1796,0.0037,-0.0203,2349,2019-08-07 16:58:29:138
3.3532,9.6207,0.8329,-0.386,-0.2702,-0.8364,0.1796,0.0037,-0.0203,2354,2019-08-07 16:58:29:143
3.3532,9.6207,0.8329,-0.386,-0.2702,-0.8364,0.1987,-0.0901,-0.032,2359,2019-08-07 16:58:29:148
3.5589,9.5205,0.173,-0.386,-0.2702,-0.8364,0.1987,-0.0901,-0.032,2364,2019-08-07 16:58:29:153
3.5589,9.5205,0.173,-0.386,-0.2702,-0.8364,0.1913,-0.1423,-0.0458,2368,2019-08-07 16:58:29:157
3.5589,9.5205,0.173,-0.5764,-0.1784,0.3626,0.1913,-0.1423,-0.0458,2374,2019-08-07 16:58:29:163
3.5828,9.4584,-0.8782,-0.5764,-0.1784,0.3626,0.1785,-0.0645,-0.0682,2378,2019-08-07 16:58:29:167
3.5828,9.4584,-0.8782,-0.5764,-0.1784,0.3626,0.1785,-0.0645,-0.0682,2384,2019-08-07 16:58:29:173
3.1809,9.3295,-1.0385,-0.5764,-0.1784,0.3626,0.1465,0.0239,-0.0863,2389,2019-08-07 16:58:29:178
3.1809,9.3295,-1.0385,-0.2191,0.0157,0.8502,0.1465,0.0239,-0.0863,2393,2019-08-07 16:58:29:182
3.1809,9.3295,-1.0385,-0.2191,0.0157,0.8502,0.1061,0.0484,-0.0938,2399,2019-08-07 16:58:29:188
2.7838,9.4823,-0.5247,-0.2191,0.0157,0.8502,0.1061,0.0484,-0.0938,2403,2019-08-07 16:58:29:192
2.7838,9.4823,-0.5247,-0.2191,0.0157,0.8502,0.0485,-0.0038,-0.097,2409,2019-08-07 16:58:29:198
2.8077,9.7974,-0.5765,0.1344,-0.341,0.4365,0.0485,-0.0038,-0.097,2414,2019-08-07 16:58:29:203
2.8077,9.7974,-0.5765,0.1344,-0.341,0.4365,0.0166,-0.0208,-0.0938,2419,2019-08-07 16:58:29:208
2.8077,9.7974,-0.5765,0.1344,-0.341,0.4365,0.0166,-0.0208,-0.0938,2424,2019-08-07 16:58:29:213
2.8747,9.9597,-0.6802,0.1344,-0.341,0.4365,0.0166,-0.0208,-0.0938,2429,2019-08-07 16:58:29:218
2.8747,9.9597,-0.6802,0.1669,-0.478,0.3498,-0.0079,0.0292,-0.098,2434,2019-08-07 16:58:29:223
2.8747,9.9597,-0.6802,0.1669,-0.478,0.3498,-0.0079,0.0292,-0.098,2439,2019-08-07 16:58:29:228
2.7073,9.4584,0.0504,0.1669,-0.478,0.3498,-0.0207,0.0985,-0.0895,2443,2019-08-07 16:58:29:232
2.7073,9.4584,0.0504,0.1669,-0.478,0.3498,-0.0207,0.0985,-0.0895,2449,2019-08-07 16:58:29:238
2.6833,9.764,-0.0769,0.1865,-0.2955,-0.2491,-0.0356,0.0548,-0.0682,2453,2019-08-07 16:58:29:242
2.6833,9.764,-0.0769,0.1865,-0.2955,-0.2491,-0.0356,0.0548,-0.0682,2459,2019-08-07 16:58:29:248
2.6833,9.764,-0.0769,0.275,-0.4222,0.232,-0.0548,0.0303,-0.0565,2464,2019-08-07 16:58:29:253
2.6259,9.8929,-0.1146,0.275,-0.4222,0.232,-0.0548,0.0303,-0.0565,2469,2019-08-07 16:58:29:258
2.6259,9.8929,-0.1146,0.275,-0.4222,0.232,-0.0846,-0.0038,-0.0405,2474,2019-08-07 16:58:29:263
2.6259,9.8929,-0.1146,0.275,-0.4222,0.232,-0.0846,-0.0038,-0.0405,2479,2019-08-07 16:58:29:268
2.535,9.8881,0.206,0.2923,-0.4567,-0.3692,-0.0921,-0.057,-0.033,2483,2019-08-07 16:58:29:272
2.535,9.8881,0.206,0.2923,-0.4567,-0.3692,-0.0921,-0.057,-0.033,2489,2019-08-07 16:58:29:278
2.535,9.8881,0.206,0.2923,-0.4567,-0.3692,-0.0921,-0.057,-0.033,2494,2019-08-07 16:58:29:283
2.6498,9.5969,0.5925,0.2923,-0.4567,-0.3692,-0.1006,-0.1412,-0.0107,2498,2019-08-07 16:58:29:287
2.6498,9.5969,0.5925,-0.0949,-0.1306,-0.5896,-0.0857,-0.2744,0.001,2504,2019-08-07 16:58:29:293
3.0278,9.5109,-0.0156,-0.0949,-0.1306,-0.5896,-0.0857,-0.2744,0.001,2508,2019-08-07 16:58:29:297
3.0278,9.5109,-0.0156,-0.0949,-0.1306,-0.5896,-0.0857,-0.2744,0.001,2514,2019-08-07 16:58:29:303
3.0278,9.5109,-0.0156,-0.0949,-0.1306,-0.5896,-0.0516,-0.0879,-0.0139,2518,2019-08-07 16:58:29:307
3.1904,9.4012,-0.1099,-0.3009,0.0318,-0.3181,-0.0516,-0.0879,-0.0139,2524,2019-08-07 16:58:29:313
3.1904,9.4012,-0.1099,-0.3009,0.0318,-0.3181,-0.0143,0.0751,-0.0224,2529,2019-08-07 16:58:29:318
3.2048,9.2961,0.6255,-0.3009,0.0318,-0.3181,-0.0143,0.0751,-0.0224,2533,2019-08-07 16:58:29:322
3.2048,9.2961,0.6255,-0.3009,0.0318,-0.3181,0.008,-0.0187,-0.0373,2539,2019-08-07 16:58:29:328
3.2048,9.2961,0.6255,-0.3009,0.0318,-0.3181,0.008,-0.0187,-0.0373,2544,2019-08-07 16:58:29:333
3.2765,9.3725,0.3804,-0.4087,0.0088,-0.4329,0.0027,-0.0506,-0.048,2549,2019-08-07 16:58:29:338
3.2765,9.3725,0.3804,-0.4087,0.0088,-0.4329,0.0027,-0.0506,-0.048,2553,2019-08-07 16:58:29:342
3.5253,9.3295,0.2814,-0.4087,0.0088,-0.4329,0.0347,-0.023,-0.0767,2559,2019-08-07 16:58:29:348
3.5253,9.3295,0.2814,-0.4833,0.0445,-0.2893,0.0347,-0.023,-0.0767,2564,2019-08-07 16:58:29:353
3.5253,9.3295,0.2814,-0.4833,0.0445,-0.2893,0.0379,0.0133,-0.0884,2568,2019-08-07 16:58:29:357
3.2048,9.6112,0.1918,-0.4833,0.0445,-0.2893,0.0379,0.0133,-0.0884,2574,2019-08-07 16:58:29:363
3.2048,9.6112,0.1918,-0.4833,0.0445,-0.2893,0.0475,0.0601,-0.1023,2579,2019-08-07 16:58:29:368
2.9943,9.8117,0.0127,-0.1505,-0.4231,-0.0727,0.0475,0.0601,-0.1023,2583,2019-08-07 16:58:29:372
2.9943,9.8117,0.0127,-0.1505,-0.4231,-0.0727,0.0453,0.0697,-0.1087,2589,2019-08-07 16:58:29:378
2.9943,9.8117,0.0127,-0.1505,-0.4231,-0.0727,0.0453,0.0697,-0.1087,2593,2019-08-07 16:58:29:382
2.7359,9.721,0.0174,-0.1505,-0.4231,-0.0727,0.0357,0.0442,-0.0948,2599,2019-08-07 16:58:29:388
2.7359,9.721,0.0174,0.0343,-0.2259,-0.0293,0.0357,0.0442,-0.0948,2603,2019-08-07 16:58:29:392
2.7359,9.721,0.0174,0.0343,-0.2259,-0.0293,0.0357,0.0442,-0.0948,2609,2019-08-07 16:58:29:398
2.8986,9.6064,-0.0863,0.0343,-0.2259,-0.0293,0.0112,0.0069,-0.1172,2613,2019-08-07 16:58:29:402
2.8986,9.6064,-0.0863,0.0343,-0.2259,-0.0293,0.0112,0.0069,-0.1172,2619,2019-08-07 16:58:29:408
2.8124,9.6351,-0.1853,-0.0116,-0.2336,0.1199,0.0091,0.0079,-0.1215,2623,2019-08-07 16:58:29:412
2.8124,9.6351,-0.1853,-0.0116,-0.2336,0.1199,0.0091,0.0079,-0.1215,2629,2019-08-07 16:58:29:418
2.8124,9.6351,-0.1853,-0.0116,-0.2336,0.1199,0.0166,0.1358,-0.1108,2634,2019-08-07 16:58:29:423
2.5302,9.8069,0.008,-0.0116,-0.2336,0.1199,0.0166,0.1358,-0.1108,2639,2019-08-07 16:58:29:428
2.5302,9.8069,0.008,0.5112,-0.3844,-0.5963,0.0262,0.1858,-0.0788,2644,2019-08-07 16:58:29:433
2.5302,9.8069,0.008,0.5112,-0.3844,-0.5963,0.0262,0.1858,-0.0788,2649,2019-08-07 16:58:29:438
2.2096,9.7353,0.5359,0.5112,-0.3844,-0.5963,0.0262,0.1858,-0.0788,2653,2019-08-07 16:58:29:442
2.2096,9.7353,0.5359,0.5112,-0.3844,-0.5963,0.023,0.0506,-0.0458,2659,2019-08-07 16:58:29:448
2.3388,9.6733,0.3615,0.5112,-0.3844,-0.5963,0.023,0.0506,-0.0458,2663,2019-08-07 16:58:29:452
2.3388,9.6733,0.3615,0.3391,-0.2465,-0.4137,0.0102,-0.106,-0.0298,2669,2019-08-07 16:58:29:458
2.3388,9.6733,0.3615,0.3391,-0.2465,-0.4137,0.0102,-0.106,-0.0298,2674,2019-08-07 16:58:29:463
2.7502,9.5969,0.0174,0.3391,-0.2465,-0.4137,-0.0154,-0.2083,-0.0064,2679,2019-08-07 16:58:29:468
2.7502,9.5969,0.0174,0.3391,-0.2465,-0.4137,-0.0154,-0.2083,-0.0064,2684,2019-08-07 16:58:29:473
3.0181,9.6112,-0.5294,-0.2333,-0.198,0.3791,-0.0282,-0.1827,-0.0149,2689,2019-08-07 16:58:29:478
3.0181,9.6112,-0.5294,-0.2333,-0.198,0.3791,-0.0282,-0.1827,-0.0149,2693,2019-08-07 16:58:29:482
3.0181,9.6112,-0.5294,-0.2333,-0.198,0.3791,-0.0282,-0.1827,-0.0149,2699,2019-08-07 16:58:29:488
2.8698,9.6112,-0.3644,-0.2333,-0.198,0.3791,-0.041,-0.04,-0.0149,2704,2019-08-07 16:58:29:493
2.8698,9.6112,-0.3644,-0.0588,-0.3739,-0.0743,-0.041,-0.04,-0.0149,2709,2019-08-07 16:58:29:498
2.6067,9.8929,0.2201,-0.0588,-0.3739,-0.0743,-0.0591,-0.0421,-0.016,2714,2019-08-07 16:58:29:503
2.6067,9.8929,0.2201,0.2162,-0.4638,-0.3564,-0.0591,-0.0421,-0.016,2719,2019-08-07 16:58:29:508
2.6067,9.8929,0.2201,0.2162,-0.4638,-0.3564,-0.075,-0.1763,-0.0149,2724,2019-08-07 16:58:29:513
2.688,9.7401,0.107,0.2162,-0.4638,-0.3564,-0.075,-0.1763,-0.0149,2729,2019-08-07 16:58:29:518
2.688,9.7401,0.107,0.2162,-0.4638,-0.3564,-0.091,-0.2094,-0.0171,2734,2019-08-07 16:58:29:523
2.688,9.7401,0.107,-0.2423,-0.2191,-0.0944,-0.091,-0.2094,-0.0171,2739,2019-08-07 16:58:29:528
3.0803,9.6542,-0.0627,-0.2423,-0.2191,-0.0944,-0.091,-0.2094,-0.0171,2744,2019-08-07 16:58:29:533
3.0803,9.6542,-0.0627,-0.2423,-0.2191,-0.0944,-0.0772,-0.1199,-0.0298,2749,2019-08-07 16:58:29:538
3.0133,9.573,0.2012,-0.2423,-0.2191,-0.0944,-0.0772,-0.1199,-0.0298,2754,2019-08-07 16:58:29:543
3.0133,9.573,0.2012,-0.241,-0.0701,-0.17,-0.0569,-0.0283,-0.0224,2758,2019-08-07 16:58:29:547
3.0133,9.573,0.2012,-0.241,-0.0701,-0.17,-0.0569,-0.0283,-0.0224,2764,2019-08-07 16:58:29:553
2.8746,9.5444,-0.091,-0.241,-0.0701,-0.17,-0.0495,0.0101,-0.0256,2768,2019-08-07 16:58:29:557
2.8746,9.5444,-0.091,-0.241,-0.0701,-0.17,-0.0495,0.0101,-0.0256,2774,2019-08-07 16:58:29:563
2.865,9.5014,0.3285,-0.1206,-0.0832,-0.3615,-0.0431,0.0292,-0.0267,2779,2019-08-07 16:58:29:568
2.865,9.5014,0.3285,-0.1206,-0.0832,-0.3615,-0.0431,0.0292,-0.0267,2784,2019-08-07 16:58:29:573
2.865,9.5014,0.3285,-0.1206,-0.0832,-0.3615,-0.1358,-0.4086,-0.0032,2789,2019-08-07 16:58:29:578
2.7789,9.425,1.9736,-0.1206,-0.0832,-0.3615,-0.1358,-0.4086,-0.0032,2794,2019-08-07 16:58:29:583
2.7789,9.425,1.9736,-0.2347,-0.0832,-0.3615,-0.1358,-0.4086,-0.0032,2798,2019-08-07 16:58:29:587
2.9081,9.8213,-1.0479,-0.2347,0.0374,0.6517,-0.0037,-0.187,-0.0341,2804,2019-08-07 16:58:29:593
2.9081,9.8213,-1.0479,-0.2347,0.0374,0.6517,-0.0037,-0.187,-0.0341,2808,2019-08-07 16:58:29:597
2.9081,9.8213,-1.0479,-0.2347,0.0374,0.6517,-0.0473,0.0676,-0.0181,2814,2019-08-07 16:58:29:603
3.1808,9.6112,0.6867,-0.4422,-0.1912,-0.7102,-0.0473,0.0676,-0.0181,2818,2019-08-07 16:58:29:607
3.1808,9.6112,0.6867,-0.4422,-0.1912,-0.7102,-0.0079,0.0207,-0.0384,2824,2019-08-07 16:58:29:613
3.1808,9.6112,0.6867,-0.4422,-0.1912,-0.7102,-0.0079,0.0207,-0.0384,2828,2019-08-07 16:58:29:617
2.8363,9.6971,-0.2607,-0.4422,-0.1912,-0.7102,-0.0239,0.1113,-0.0448,2834,2019-08-07 16:58:29:623
2.8363,9.6971,-0.2607,-0.1622,-0.2369,0.0458,-0.0239,0.1113,-0.0448,2839,2019-08-07 16:58:29:628
2.865,9.7258,-0.0298,-0.1622,-0.2369,0.0458,-0.026,0.1411,-0.0522,2844,2019-08-07 16:58:29:633
2.865,9.7258,-0.0298,-0.1622,-0.2369,0.0458,-0.026,0.1411,-0.0522,2849,2019-08-07 16:58:29:638
2.865,9.7258,-0.0298,-0.1622,-0.2369,0.0458,-0.0463,0.1177,-0.0586,2854,2019-08-07 16:58:29:643
2.6736,9.8833,-0.1759,0.0474,-0.4582,0.1724,-0.0463,0.1177,-0.0586,2859,2019-08-07 16:58:29:648
2.6736,9.8833,-0.1759,0.0474,-0.4582,0.1724,-0.0463,0.1177,-0.0586,2864,2019-08-07 16:58:29:653
2.6736,9.8833,-0.1759,0.0474,-0.4582,0.1724,-0.0399,0.2103,-0.0522,2869,2019-08-07 16:58:29:658
2.5827,9.8642,-0.1335,0.0474,-0.4582,0.1724,-0.0399,0.2103,-0.0522,2873,2019-08-07 16:58:29:662
2.5827,9.8642,-0.1335,0.1418,-0.2785,-0.0068,-0.0335,0.3009,-0.0352,2879,2019-08-07 16:58:29:668
2.5396,9.5587,0.0457,0.1418,-0.2785,-0.0068,-0.0197,0.3787,-0.0224,2884,2019-08-07 16:58:29:673
2.5396,9.5587,0.0457,0.1418,-0.2785,-0.0068,-0.0197,0.3787,-0.0224,2889,2019-08-07 16:58:29:678
2.5396,9.5587,0.0457,0.1418,-0.2785,-0.0068,-0.0197,0.3787,-0.0224,2893,2019-08-07 16:58:29:682
2.5492,9.573,0.1682,0.0884,-0.1719,-0.306,-0.0346,0.4064,-0.0021,2899,2019-08-07 16:58:29:688
2.5492,9.573,0.1682,0.0884,-0.1719,-0.306,-0.0346,0.4064,-0.0021,2904,2019-08-07 16:58:29:693
2.4057,9.7162,0.8329,0.0884,-0.1719,-0.306,-0.0857,0.1241,-0.0032,2909,2019-08-07 16:58:29:698
2.4057,9.7162,0.8329,0.0884,-0.1719,-0.306,-0.0857,0.1241,-0.0032,2914,2019-08-07 16:58:29:703
2.4057,9.7162,0.8329,0.2826,-0.1572,-0.0598,-0.1272,-0.2754,0.0117,2918,2019-08-07 16:58:29:707
2.5157,9.5587,-0.1712,0.2826,-0.1572,-0.0598,-0.1272,-0.2754,0.0117,2924,2019-08-07 16:58:29:713
2.5157,9.5587,-0.1712,0.2826,-0.1572,-0.0598,-0.123,-0.2062,0.0096,2928,2019-08-07 16:58:29:717
3.2477,9.721,-0.2796,0.2826,-0.1572,-0.0598,-0.123,-0.2062,0.0096,2934,2019-08-07 16:58:29:723
3.2477,9.721,-0.2796,-0.4844,-0.3683,-0.1228,-0.1262,0.0527,-0.0075,2938,2019-08-07 16:58:29:727