ACCELEROMETER X (m/s²),ACCELEROMETER Y (m/s²),ACCELEROMETER Z (m/s²),LINEAR ACCELERATION X (m/s²),LINEAR ACCELERATION Y (m/s²),LINEAR ACCELERATION Z (m/s²),GYROSCOPE X (rad/s),GYROSCOPE Y (rad/s),GYROSCOPE Z (rad/s),Time since start in ms ,YYYY-MO-DD HH-MI-SS_SSS
2.415,9.6929,0.8837,-0.0691,-0.1587,0.0112,-0.0047,0.0229,-0.0309,2,2019-08-07 16:58:46:237
2.415,9.6929,0.8837,-0.0691,-0.1587,0.0112,-0.0047,0.0229,-0.0309,8,2019-08-07 16:58:46:243
2.415,9.6929,0.8837,0.1146,-0.1617,-0.4149,-0.0026,0.0175,-0.0352,12,2019-08-07 16:58:46:247
2.3768,9.6069,1.1571,0.1146,-0.1617,-0.4149,-0.0026,0.0175,-0.0352,18,2019-08-07 16:58:46:253
2.3768,9.6069,1.1571,0.1146,-0.1617,-0.4149,0.0134,-0.0496,-0.0235,22,2019-08-07 16:58:46:257
2.5729,9.6403,0.7187,0.1146,-0.1617,-0.4149,0.0134,-0.0496,-0.0235,28,2019-08-07 16:58:46:263
2.5729,9.6403,0.7187,-0.1575,-0.2511,0.0726,0.0049,-0.0464,-0.0214,32,2019-08-07 16:58:46:267
2.5729,9.6403,0.7187,-0.1575,-0.2511,0.0726,0.0049,-0.0464,-0.0214,38,2019-08-07 16:58:46:273
2.6016,9.774,0.8271,-0.1575,-0.2511,0.0726,0.0198,0.0175,-0.0341,42,2019-08-07 16:58:46:277
2.6016,9.774,0.8271,-0.1575,-0.2511,0.0726,0.0198,0.0175,-0.0341,48,2019-08-07 16:58:46:283
2.6016,9.774,0.8271,-0.1347,-0.1396,-0.1938,0.0283,0.0143,-0.0331,52,2019-08-07 16:58:46:287
2.5633,9.5974,0.846,-0.1347,-0.1396,-0.1938,0.0283,0.0143,-0.0331,58,2019-08-07 16:58:46:293
2.5633,9.5974,0.846,-0.1347,-0.1396,-0.1938,0.0251,-0.0038,-0.0405,63,2019-08-07 16:58:46:298
2.5633,9.6403,0.7281,-0.1347,-0.1396,-0.1938,0.0251,-0.0038,-0.0405,67,2019-08-07 16:58:46:302
2.5633,9.6403,0.7281,-0.1128,-0.2854,-0.0149,0.0294,0.0282,-0.0448,73,2019-08-07 16:58:46:308
2.5633,9.6403,0.7281,-0.1128,-0.2854,-0.0149,0.0294,0.0282,-0.0448,78,2019-08-07 16:58:46:313
2.4868,9.7501,0.6763,-0.1128,-0.2854,-0.0149,0.0283,0.0463,-0.0427,82,2019-08-07 16:58:46:317
2.4868,9.7501,0.6763,-0.1128,-0.2854,-0.0149,0.0283,0.0463,-0.0427,88,2019-08-07 16:58:46:323
2.4868,9.7501,0.6763,-0.1128,-0.2854,-0.0149,0.0283,0.0463,-0.0427,92,2019-08-07 16:58:46:327
2.4102,9.6356,0.8318,0.0359,-0.1635,-0.1029,0.0251,0.0335,-0.0427,98,2019-08-07 16:58:46:333
2.4102,9.6356,0.8318,0.0359,-0.1635,-0.1029,0.0251,0.0335,-0.0427,102,2019-08-07 16:58:46:337
2.4437,9.626,0.9591,0.0359,-0.1635,-0.1029,0.0272,-0.0112,-0.0448,108,2019-08-07 16:58:46:343
2.4437,9.626,0.9591,0.0359,-0.1635,-0.1029,0.0272,-0.0112,-0.0448,112,2019-08-07 16:58:46:347
2.5824,9.5449,0.8742,-0.1258,-0.1275,-0.2339,0.0347,-0.0421,-0.0405,118,2019-08-07 16:58:46:353
2.5824,9.5449,0.8742,-0.1258,-0.1275,-0.2339,0.0347,-0.0421,-0.0405,122,2019-08-07 16:58:46:357
2.5824,9.5449,0.8742,-0.2294,-0.0978,0.0449,0.0368,-0.0229,-0.0437,128,2019-08-07 16:58:46:363
2.6733,9.5401,0.7045,-0.2294,-0.0978,0.0449,0.0368,-0.0229,-0.0437,132,2019-08-07 16:58:46:367
2.6733,9.5401,0.7045,-0.2294,-0.0978,0.0449,0.0485,0.0516,-0.0554,138,2019-08-07 16:58:46:373
2.6733,9.5401,0.7045,-0.2294,-0.0978,0.0449,0.0485,0.0516,-0.0554,142,2019-08-07 16:58:46:377
2.4963,9.6881,0.78,-0.0712,-0.2095,-0.0655,0.0517,0.0633,-0.0501,148,2019-08-07 16:58:46:383
2.4963,9.6881,0.78,-0.0712,-0.2095,-0.0655,0.0517,0.0633,-0.0501,153,2019-08-07 16:58:46:388
2.4963,9.6881,0.78,-0.0712,-0.2095,-0.0655,0.0517,0.0633,-0.0501,157,2019-08-07 16:58:46:392
2.4724,9.8218,0.549,-0.0712,-0.2095,-0.0655,0.0379,0.0719,-0.0576,163,2019-08-07 16:58:46:398
2.4724,9.8218,0.549,0.0702,-0.4877,0.0702,0.0379,0.0719,-0.0576,167,2019-08-07 16:58:46:402
2.2619,10.0366,0.78,0.0702,-0.4877,0.0702,6.0E-4,0.0474,-0.0469,173,2019-08-07 16:58:46:408
2.2619,10.0366,0.78,0.1692,-0.6007,-0.0469,6.0E-4,0.0474,-0.0469,177,2019-08-07 16:58:46:412
2.2619,10.0366,0.78,0.1692,-0.6007,-0.0469,-0.0388,-0.04,-0.0299,183,2019-08-07 16:58:46:418
2.1279,10.8147,1.1806,0.1692,-0.6007,-0.0469,-0.0388,-0.04,-0.0299,187,2019-08-07 16:58:46:422
2.1279,10.8147,1.1806,0.1692,-0.6007,-0.0469,-0.14,-0.2371,0.0085,193,2019-08-07 16:58:46:428
1.7308,10.5044,1.0628,0.6659,-1.259,-0.4965,-0.14,-0.2371,0.0085,198,2019-08-07 16:58:46:433
1.7308,10.5044,1.0628,0.6659,-1.259,-0.4965,-0.3019,-0.4948,0.0809,203,2019-08-07 16:58:46:438
1.7547,9.3873,1.1429,0.6659,-1.259,-0.4965,-0.3019,-0.4948,0.0809,208,2019-08-07 16:58:46:443
1.7547,9.3873,1.1429,0.6659,-1.259,-0.4965,-0.3019,-0.4948,0.0809,212,2019-08-07 16:58:46:447
1.7547,9.3873,1.1429,0.4806,0.4246,0.3253,-0.2338,-0.5481,0.0692,218,2019-08-07 16:58:46:453
2.2236,9.0961,-0.0497,0.4806,0.4246,0.3253,-0.2338,-0.5481,0.0692,222,2019-08-07 16:58:46:457
2.2236,9.0961,-0.0497,0.4806,0.4246,0.3253,-0.2199,-0.4693,0.0394,228,2019-08-07 16:58:46:463
2.2236,9.0961,-0.0497,0.4806,0.4246,0.3253,-0.2199,-0.4693,0.0394,233,2019-08-07 16:58:46:468
2.6972,9.2203,0.8931,-0.2638,0.2522,-0.1271,-0.1421,-0.3883,0.0213,237,2019-08-07 16:58:46:472
2.6972,9.2203,0.8931,-0.2638,0.2522,-0.1271,-0.1421,-0.3883,0.0213,243,2019-08-07 16:58:46:478
2.7594,9.5162,0.5537,-0.32,-0.0456,0.2156,-0.0761,-0.2829,0.0191,247,2019-08-07 16:58:46:482
2.7594,9.5162,0.5537,-0.32,-0.0456,0.2156,-0.0761,-0.2829,0.0191,253,2019-08-07 16:58:46:488
2.7594,9.5162,0.5537,-0.32,-0.0456,0.2156,-0.0761,-0.2829,0.0191,257,2019-08-07 16:58:46:492
2.8982,9.5353,0.6857,-0.32,-0.0456,0.2156,-0.0718,-0.1667,0.0074,263,2019-08-07 16:58:46:498
2.8982,9.5353,0.6857,-0.2875,-0.1291,-0.0843,-0.0718,-0.1667,0.0074,267,2019-08-07 16:58:46:502
2.6829,9.5926,0.9119,-0.2875,-0.1291,-0.0843,-0.0111,-0.0837,-0.0139,273,2019-08-07 16:58:46:508
2.6829,9.5926,0.9119,-0.2875,-0.1291,-0.0843,-0.0111,-0.0837,-0.0139,278,2019-08-07 16:58:46:513
2.7929,9.5497,1.1853,-0.2875,-0.1291,-0.0843,0.0081,-0.1028,-0.0182,283,2019-08-07 16:58:46:518
2.7929,9.5497,1.1853,-0.4303,-0.0528,-0.3828,0.0081,-0.1028,-0.0182,287,2019-08-07 16:58:46:522
2.7929,9.5497,1.1853,-0.4303,-0.0528,-0.3828,0.0262,-0.1295,-0.0288,293,2019-08-07 16:58:46:528
3.1039,9.6022,0.7328,-0.4303,-0.0528,-0.3828,0.0262,-0.1295,-0.0288,298,2019-08-07 16:58:46:533
3.1039,9.6022,0.7328,-0.4303,-0.0528,-0.3828,0.0262,-0.1295,-0.0288,303,2019-08-07 16:58:46:538
3.1374,9.6642,0.7941,-0.6758,-0.1565,0.0021,0.0432,-0.0389,-0.0576,308,2019-08-07 16:58:46:543
3.1374,9.6642,0.7941,-0.6758,-0.1565,0.0021,0.0432,-0.0389,-0.0576,313,2019-08-07 16:58:46:548
3.1374,9.6642,0.7941,-0.6758,-0.1565,0.0021,0.0528,0.0495,-0.0853,317,2019-08-07 16:58:46:552
2.9125,9.6595,0.8978,-0.6758,-0.1565,0.0021,0.0528,0.0495,-0.0853,323,2019-08-07 16:58:46:558
2.9125,9.6595,0.8978,-0.4738,-0.2814,-0.2879,0.056,0.0665,-0.097,328,2019-08-07 16:58:46:563
2.9125,9.6595,0.8978,-0.4738,-0.2814,-0.2879,0.056,0.0665,-0.097,333,2019-08-07 16:58:46:568
2.6541,9.8456,1.0628,-0.4738,-0.2814,-0.2879,0.0709,0.0186,-0.1108,337,2019-08-07 16:58:46:572
2.6541,9.8456,1.0628,-0.4738,-0.2814,-0.2879,0.0709,0.0186,-0.1108,343,2019-08-07 16:58:46:578
2.4389,9.7597,0.8177,-0.0259,-0.28,-0.0763,0.0677,-0.0187,-0.1204,347,2019-08-07 16:58:46:582
2.4389,9.7597,0.8177,-0.0259,-0.28,-0.0763,0.0677,-0.0187,-0.1204,353,2019-08-07 16:58:46:588
2.4101,9.7788,0.6008,-0.0087,-0.2957,0.1337,0.0507,-0.0485,-0.1194,358,2019-08-07 16:58:46:593
2.4101,9.7788,0.6008,-0.0087,-0.2957,0.1337,0.0507,-0.0485,-0.1194,363,2019-08-07 16:58:46:598
2.4101,9.7788,0.6008,-0.0087,-0.2957,0.1337,0.0507,-0.0485,-0.1194,368,2019-08-07 16:58:46:603
2.0752,9.6976,0.7658,-0.0087,-0.2957,0.1337,0.0517,-0.0379,-0.1258,372,2019-08-07 16:58:46:607
2.0752,9.6976,0.7658,0.3731,-0.2216,-0.1851,0.0517,-0.0379,-0.1258,378,2019-08-07 16:58:46:613
2.0752,9.6976,0.7658,0.3731,-0.2216,-0.1851,0.0411,-0.041,-0.1215,382,2019-08-07 16:58:46:617
2.0513,9.8265,0.9779,0.3731,-0.2216,-0.1851,0.0411,-0.041,-0.1215,388,2019-08-07 16:58:46:623
2.0513,9.8265,0.9779,0.3731,-0.2216,-0.1851,0.0368,-0.0986,-0.113,392,2019-08-07 16:58:46:627
2.3049,9.9459,0.8601,0.0479,-0.4489,-0.1476,0.0368,-0.0986,-0.113,398,2019-08-07 16:58:46:633
2.3049,9.9459,0.8601,0.0479,-0.4489,-0.1476,0.0475,-0.106,-0.1247,402,2019-08-07 16:58:46:637
2.3049,9.9459,0.8601,0.0479,-0.4489,-0.1476,0.0475,-0.106,-0.1247,408,2019-08-07 16:58:46:643
2.4006,9.7836,0.8271,0.0479,-0.4489,-0.1476,0.0475,-0.106,-0.1247,412,2019-08-07 16:58:46:647
2.4006,9.7836,0.8271,-0.1382,-0.2321,-0.3118,0.0634,-0.0538,-0.13,418,2019-08-07 16:58:46:653
2.5058,9.6976,1.19,-0.1382,-0.2321,-0.3118,0.0634,-0.0538,-0.13,423,2019-08-07 16:58:46:658
2.5058,9.6976,1.19,-0.1382,-0.2321,-0.3118,0.0837,-0.0655,-0.1449,428,2019-08-07 16:58:46:663
2.5058,9.6976,1.19,-0.1382,-0.2321,-0.3118,0.0837,-0.0655,-0.1449,432,2019-08-07 16:58:46:667
2.7115,9.7072,1.0863,-0.5032,-0.2056,-0.3328,0.0965,-0.1145,-0.1577,438,2019-08-07 16:58:46:673
2.7115,9.7072,1.0863,-0.5032,-0.2056,-0.3328,0.0965,-0.1145,-0.1577,442,2019-08-07 16:58:46:677
3.2665,9.8981,0.9166,-0.5032,-0.2056,-0.3328,0.0986,-0.1071,-0.1886,448,2019-08-07 16:58:46:683
3.2665,9.8981,0.9166,-0.5032,-0.2056,-0.3328,0.0986,-0.1071,-0.1886,452,2019-08-07 16:58:46:687
3.2665,9.8981,0.9166,-1.3045,-0.4973,0.0259,0.1188,-0.0528,-0.2536,457,2019-08-07 16:58:46:692
3.6349,9.9363,0.6008,-1.3045,-0.4973,0.0259,0.1188,-0.0528,-0.2536,463,2019-08-07 16:58:46:698
3.6349,9.9363,0.6008,-1.3045,-0.4973,0.0259,0.1678,0.0729,-0.3218,467,2019-08-07 16:58:46:702
3.6349,9.9363,0.6008,-1.3045,-0.4973,0.0259,0.1678,0.0729,-0.3218,473,2019-08-07 16:58:46:708
3.6253,9.817,0.4547,-1.3045,-0.4973,0.0259,0.2126,0.2008,-0.3495,477,2019-08-07 16:58:46:712
3.6253,9.817,0.4547,-1.1722,-0.1864,0.2216,0.2126,0.2008,-0.3495,483,2019-08-07 16:58:46:718
2.5489,9.5688,0.5584,-1.1722,-0.1864,0.2216,0.2499,0.4266,-0.3463,488,2019-08-07 16:58:46:723
2.5489,9.5688,0.5584,-1.1722,-0.1864,0.2216,0.2499,0.4266,-0.3463,492,2019-08-07 16:58:46:727
2.5489,9.5688,0.5584,-1.1722,-0.1864,0.2216,0.2754,0.5267,-0.3164,498,2019-08-07 16:58:46:733
1.0849,9.8504,1.4399,0.748,-0.1876,-0.6327,0.2754,0.5267,-0.3164,503,2019-08-07 16:58:46:738
1.0849,9.8504,1.4399,0.748,-0.1876,-0.6327,0.2754,0.5267,-0.3164,507,2019-08-07 16:58:46:742
1.0849,9.8504,1.4399,0.748,-0.1876,-0.6327,0.2957,0.4021,-0.2664,513,2019-08-07 16:58:46:748
0.128,10.3564,2.3638,0.748,-0.1876,-0.6327,0.2957,0.4021,-0.2664,518,2019-08-07 16:58:46:753
0.128,10.3564,2.3638,2.1773,-0.9152,-1.7357,0.3191,-0.04,-0.2078,523,2019-08-07 16:58:46:758
-0.1495,10.5044,2.0904,2.1773,-0.9152,-1.7357,0.3191,-0.04,-0.2078,528,2019-08-07 16:58:46:763
-0.1495,10.5044,2.0904,2.1773,-0.9152,-1.7357,0.3447,-0.3351,-0.1822,533,2019-08-07 16:58:46:768
-0.1495,10.5044,2.0904,2.1773,-0.9152,-1.7357,0.3447,-0.3351,-0.1822,537,2019-08-07 16:58:46:772
1.0562,10.4089,2.2978,0.9758,-0.8247,-1.798,0.3947,-0.4799,-0.2195,543,2019-08-07 16:58:46:778
1.0562,10.4089,2.2978,0.9758,-0.8247,-1.798,0.3947,-0.4799,-0.2195,547,2019-08-07 16:58:46:782
1.0562,10.4089,2.2978,0.9758,-0.8247,-1.798,0.4906,-0.6482,-0.2802,553,2019-08-07 16:58:46:788
2.9364,10.3278,3.1415,0.9758,-0.8247,-1.798,0.4906,-0.6482,-0.2802,557,2019-08-07 16:58:46:792
2.9364,10.3278,3.1415,-1.7712,-0.3861,-2.5785,0.6312,-0.6216,-0.309,563,2019-08-07 16:58:46:798
4.8548,9.6213,2.9059,-1.7712,-0.3861,-2.5785,0.6312,-0.6216,-0.309,568,2019-08-07 16:58:46:803
4.8548,9.6213,2.9059,-1.7712,-0.3861,-2.5785,0.775,-0.301,-0.374,573,2019-08-07 16:58:46:808
4.8548,9.6213,2.9059,-1.7712,-0.3861,-2.5785,0.775,-0.301,-0.374,577,2019-08-07 16:58:46:812
5.4529,9.774,3.3961,-3.5089,-0.1622,-3.1313,0.8741,0.0687,-0.3889,583,2019-08-07 16:58:46:818
5.4529,9.774,3.3961,-3.5089,-0.1622,-3.1313,0.8741,0.0687,-0.3889,588,2019-08-07 16:58:46:823
5.0701,10.2037,4.2917,-3.1542,-0.5845,-4.0985,0.8741,0.0687,-0.3889,592,2019-08-07 16:58:46:827
5.0701,10.2037,4.2917,-3.1542,-0.5845,-4.0985,0.8837,0.2807,-0.4208,598,2019-08-07 16:58:46:833
5.0701,10.2037,4.2917,-3.1542,-0.5845,-4.0985,0.8837,0.2807,-0.4208,602,2019-08-07 16:58:46:837
2.9316,10.829,8.2843,-3.1542,-0.5845,-4.0985,0.7569,0.204,-0.4144,609,2019-08-07 16:58:46:844
2.9316,10.829,8.2843,-0.6209,-1.275,-7.8334,0.7569,0.204,-0.4144,613,2019-08-07 16:58:46:848
2.9316,10.829,8.2843,-0.6209,-1.275,-7.8334,0.6366,0.0101,-0.3154,617,2019-08-07 16:58:46:852
1.8073,11.4496,8.5671,-0.6209,-1.275,-7.8334,0.6366,0.0101,-0.3154,623,2019-08-07 16:58:46:858
1.8073,11.4496,8.5671,-0.6209,-1.275,-7.8334,0.4949,-0.1891,-0.1652,628,2019-08-07 16:58:46:863
2.6062,11.5594,9.2695,-0.8103,-1.9152,-9.2536,0.4949,-0.1891,-0.1652,632,2019-08-07 16:58:46:867
2.6062,11.5594,9.2695,-0.8103,-1.9152,-9.2536,0.3383,-0.3766,0.0692,638,2019-08-07 16:58:46:873
3.6827,10.9579,9.2129,-0.8103,-1.9152,-9.2536,0.3383,-0.3766,0.0692,642,2019-08-07 16:58:46:877
3.6827,10.9579,9.2129,-0.8103,-1.9152,-9.2536,0.1977,-0.3095,0.1533,648,2019-08-07 16:58:46:883
3.6827,10.9579,9.2129,-2.2383,-0.9893,-9.8285,0.1977,-0.3095,0.1533,652,2019-08-07 16:58:46:887
4.1754,10.4519,10.0755,-2.2383,-0.9893,-9.8285,0.0773,-0.253,0.1661,658,2019-08-07 16:58:46:893
4.1754,10.4519,10.0755,-2.2383,-0.9893,-9.8285,0.0773,-0.253,0.1661,662,2019-08-07 16:58:46:897
4.1754,10.4519,10.0755,-2.2383,-0.9893,-9.8285,-0.0644,-0.1604,0.1555,668,2019-08-07 16:58:46:903
3.7448,9.9173,10.8533,-1.8805,-0.2861,-10.8172,-0.0644,-0.1604,0.1555,672,2019-08-07 16:58:46:907
3.7448,9.9173,10.8533,-1.8805,-0.2861,-10.8172,-0.0644,-0.1604,0.1555,678,2019-08-07 16:58:46:913
3.7448,9.9173,10.8533,-1.8805,-0.2861,-10.8172,-0.1709,-0.0943,0.1523,682,2019-08-07 16:58:46:917
3.2472,9.774,10.7166,-1.8805,-0.2861,-10.8172,-0.1709,-0.0943,0.1523,688,2019-08-07 16:58:46:923
3.2472,9.774,10.7166,-1.0493,-0.1365,-10.6143,-0.2945,-0.0613,0.1565,693,2019-08-07 16:58:46:928
2.8406,9.6738,10.693,-1.0493,-0.1365,-10.6143,-0.2945,-0.0613,0.1565,697,2019-08-07 16:58:46:932
2.8406,9.6738,10.693,-1.0493,-0.1365,-10.6143,-0.4383,0.0026,0.1608,703,2019-08-07 16:58:46:938
2.8406,9.6738,10.693,-1.0493,-0.1365,-10.6143,-0.4383,0.0026,0.1608,707,2019-08-07 16:58:46:942
2.4865,9.5258,10.5092,-0.4322,0.1019,-10.4566,-0.5693,0.0964,0.1587,712,2019-08-07 16:58:46:947
2.4865,9.5258,10.5092,-0.4322,0.1019,-10.4566,-0.5693,0.0964,0.1587,718,2019-08-07 16:58:46:953
2.2138,9.5115,10.2264,-0.4322,0.1019,-10.4566,-0.7653,0.253,0.1683,723,2019-08-07 16:58:46:958
2.2138,9.5115,10.2264,-0.4322,0.1019,-10.4566,-0.7653,0.253,0.1683,727,2019-08-07 16:58:46:962
2.2138,9.5115,10.2264,-0.0275,-0.0517,-9.7643,-0.9571,0.4213,0.1885,733,2019-08-07 16:58:46:968
1.8502,9.817,10.2829,-0.0275,-0.0517,-9.7643,-0.9571,0.4213,0.1885,737,2019-08-07 16:58:46:972
1.8502,9.817,10.2829,-0.0275,-0.0517,-9.7643,-1.1456,0.5129,0.2215,743,2019-08-07 16:58:46:978
0.8359,10.4949,9.3355,-0.0275,-0.0517,-9.7643,-1.1456,0.5129,0.2215,748,2019-08-07 16:58:46:983
0.8359,10.4949,9.3355,1.3845,-0.9381,-8.1138,-1.3576,0.3744,0.3163,753,2019-08-07 16:58:46:988
0.8359,10.4949,9.3355,1.3845,-0.9381,-8.1138,-1.3576,0.3744,0.3163,758,2019-08-07 16:58:46:993
0.6207,10.3564,7.7469,1.3845,-0.9381,-8.1138,-1.6016,0.0761,0.3653,762,2019-08-07 16:58:46:997
0.6207,10.3564,7.7469,1.3845,-0.9381,-8.1138,-1.6016,0.0761,0.3653,768,2019-08-07 16:58:47:003
1.0943,10.0557,6.2526,0.9629,-0.533,-5.1027,-1.8594,-0.1806,0.3323,772,2019-08-07 16:58:47:007
1.0943,10.0557,6.2526,0.9629,-0.533,-5.1027,-1.8594,-0.1806,0.3323,778,2019-08-07 16:58:47:013
1.0943,10.0557,6.2526,0.9629,-0.533,-5.1027,-2.0713,-0.3201,0.3504,782,2019-08-07 16:58:47:017
2.2856,9.8552,4.5038,0.9629,-0.533,-5.1027,-2.0713,-0.3201,0.3504,788,2019-08-07 16:58:47:023
2.2856,9.8552,4.5038,0.9629,-0.533,-5.1027,-2.2333,-0.2424,0.4069,792,2019-08-07 16:58:47:027
3.9887,9.2537,2.7503,-1.1467,-0.0217,-1.952,-2.2333,-0.2424,0.4069,798,2019-08-07 16:58:47:033
3.9887,9.2537,2.7503,-1.1467,-0.0217,-1.952,-2.3451,0.0708,0.441,803,2019-08-07 16:58:47:038
3.9887,9.2537,2.7503,-1.1467,-0.0217,-1.952,-2.3451,0.0708,0.441,807,2019-08-07 16:58:47:042
4.6681,9.0389,1.8405,-2.3935,0.3807,0.2616,-2.4484,0.4255,0.4165,813,2019-08-07 16:58:47:048
4.6681,9.0389,1.8405,-2.3935,0.3807,0.2616,-2.4484,0.4255,0.4165,817,2019-08-07 16:58:47:052
4.6681,9.0389,1.8405,-2.3935,0.3807,0.2616,-2.4484,0.4255,0.4165,823,2019-08-07 16:58:47:058
4.1036,8.7429,1.7839,-1.8363,0.5309,0.4727,-2.4889,0.7696,0.3962,827,2019-08-07 16:58:47:062
4.1036,8.7429,1.7839,-1.8363,0.5309,0.4727,-2.4889,0.7696,0.3962,833,2019-08-07 16:58:47:068
4.1036,8.7429,1.7839,-1.8363,0.5309,0.4727,-2.4879,0.9699,0.3781,837,2019-08-07 16:58:47:072
3.2233,8.6236,1.6095,-1.8363,0.5309,0.4727,-2.4879,0.9699,0.3781,843,2019-08-07 16:58:47:078
3.2233,8.6236,1.6095,-0.6563,0.4905,1.2088,-2.4506,0.9486,0.3579,848,2019-08-07 16:58:47:083
2.5582,8.5663,1.1004,-0.6563,0.4905,1.2088,-2.4506,0.9486,0.3579,853,2019-08-07 16:58:47:088
2.5582,8.5663,1.1004,-0.6563,0.4905,1.2088,-2.4058,0.9379,0.3302,858,2019-08-07 16:58:47:093
2.5582,8.5663,1.1004,-0.6563,0.4905,1.2088,-2.4058,0.9379,0.3302,862,2019-08-07 16:58:47:097
2.0846,8.3992,0.926,0.2282,0.5701,2.305,-2.4058,0.9379,0.3302,868,2019-08-07 16:58:47:103
2.0846,8.3992,0.926,0.2282,0.5701,2.305,-2.3259,0.8495,0.3248,873,2019-08-07 16:58:47:108
2.0846,8.0746,0.6715,0.2282,0.5701,2.305,-2.3259,0.8495,0.3248,877,2019-08-07 16:58:47:112
2.0846,8.0746,0.6715,0.2282,0.5701,2.305,-2.2567,0.6109,0.3376,883,2019-08-07 16:58:47:118
2.0846,8.0746,0.6715,0.0033,0.6588,3.451,-2.2567,0.6109,0.3376,888,2019-08-07 16:58:47:123
2.3382,8.1414,-0.54,0.0033,0.6588,3.451,-2.1267,0.303,0.393,892,2019-08-07 16:58:47:127
2.3382,8.1414,-0.54,-0.1379,0.6503,5.3185,-2.1267,0.303,0.393,898,2019-08-07 16:58:47:133
2.8118,7.7643,-2.6188,-0.1379,0.6503,5.3185,-2.1267,0.303,0.393,902,2019-08-07 16:58:47:137
2.8118,7.7643,-2.6188,-0.1379,0.6503,5.3185,-1.9648,0.2626,0.4868,909,2019-08-07 16:58:47:144
2.8118,7.7643,-2.6188,-0.1379,0.6503,5.3185,-1.9648,0.2626,0.4868,913,2019-08-07 16:58:47:148
3.0175,7.2153,-3.0807,-0.5886,1.5029,7.3015,-1.8306,0.3084,0.5411,917,2019-08-07 16:58:47:152
3.0175,7.2153,-3.0807,-0.5886,1.5029,7.3015,-1.8306,0.3084,0.5411,923,2019-08-07 16:58:47:158
3.0175,7.2153,-3.0807,-0.5886,1.5029,7.3015,-1.5728,0.4213,0.5826,927,2019-08-07 16:58:47:162
2.6204,6.4467,-3.4201,-0.5886,1.5029,7.3015,-1.5728,0.4213,0.5826,933,2019-08-07 16:58:47:168
2.6204,6.4467,-3.4201,0.3511,1.9326,8.4737,-1.3779,0.5566,0.5613,937,2019-08-07 16:58:47:172
1.9076,6.4753,-4.7117,0.3511,1.9326,8.4737,-1.3779,0.5566,0.5613,943,2019-08-07 16:58:47:178
1.9076,6.4753,-4.7117,0.3511,1.9326,8.4737,-1.1797,0.743,0.5081,948,2019-08-07 16:58:47:183
1.9076,6.4753,-4.7117,0.3511,1.9326,8.4737,-1.1797,0.743,0.5081,952,2019-08-07 16:58:47:187
1.8119,6.6472,-4.7258,0.718,1.6562,9.2963,-0.8463,0.8303,0.4239,958,2019-08-07 16:58:47:193
1.8119,6.6472,-4.7258,0.718,1.6562,9.2963,-0.8463,0.8303,0.4239,963,2019-08-07 16:58:47:198
1.4387,6.2176,-5.8336,0.718,1.6562,9.2963,-0.8463,0.8303,0.4239,968,2019-08-07 16:58:47:203
1.4387,6.2176,-5.8336,0.718,1.6562,9.2963,-0.482,0.9273,0.4207,972,2019-08-07 16:58:47:207
1.4387,6.2176,-5.8336,1.1645,2.671,10.7873,-0.482,0.9273,0.4207,978,2019-08-07 16:58:47:213
1.2856,5.6208,-5.8902,1.1645,2.671,10.7873,-0.1784,1.2628,0.3792,982,2019-08-07 16:58:47:217
1.2856,5.6208,-5.8902,1.1645,2.671,10.7873,-0.1784,1.2628,0.3792,988,2019-08-07 16:58:47:223
0.8263,5.3678,-4.1932,1.1645,2.671,10.7873,0.0251,1.511,0.36,992,2019-08-07 16:58:47:227
0.8263,5.3678,-4.1932,1.4613,2.8254,8.7163,0.0251,1.511,0.36,998,2019-08-07 16:58:47:233
0.8263,5.3678,-4.1932,1.4613,2.8254,8.7163,0.1774,1.3417,0.2279,1003,2019-08-07 16:58:47:238
1.9697,6.967,2.227,1.4613,2.8254,8.7163,0.1774,1.3417,0.2279,1008,2019-08-07 16:58:47:243
1.9697,6.967,2.227,1.4613,2.8254,8.7163,0.1774,1.3417,0.2279,1012,2019-08-07 16:58:47:247
1.9697,6.967,2.227,-3.7209,4.308,-0.9687,1.0509,0.253,0.2727,1018,2019-08-07 16:58:47:253
8.084,5.1053,3.1745,-3.7209,4.308,-0.9687,1.0509,0.253,0.2727,1022,2019-08-07 16:58:47:257
8.084,5.1053,3.1745,-3.7209,4.308,-0.9687,2.5029,-0.8421,-0.1769,1028,2019-08-07 16:58:47:263
5.0555,17.2689,-0.9925,-3.7209,4.308,-0.9687,2.5029,-0.8421,-0.1769,1033,2019-08-07 16:58:47:268
5.0555,17.2689,-0.9925,-1.5908,-12.8475,12.7398,2.537,-1.6411,-1.2326,1037,2019-08-07 16:58:47:272
5.0555,17.2689,-0.9925,-1.5908,-12.8475,12.7398,2.537,-1.6411,-1.2326,1043,2019-08-07 16:58:47:278
-1.3649,38.627,-7.6107,-1.5908,-12.8475,12.7398,3.0078,2.3686,-1.4371,1048,2019-08-07 16:58:47:283
-1.3649,38.627,-7.6107,-1.5908,-12.8475,12.7398,3.0078,2.3686,-1.4371,1053,2019-08-07 16:58:47:288
-1.3649,38.627,-7.6107,-1.5908,-12.8475,12.7398,3.0078,2.3686,-1.4371,1057,2019-08-07 16:58:47:292
-4.8478,26.7736,-8.4733,6.8017,-21.7648,11.6359,3.6086,3.1356,-0.3473,1063,2019-08-07 16:58:47:298
-4.8478,26.7736,-8.4733,6.8017,-21.7648,11.6359,3.6086,3.1356,-0.3473,1067,2019-08-07 16:58:47:302
5.2469,19.5222,-9.7178,6.8017,-21.7648,11.6359,3.8579,1.7262,1.2687,1073,2019-08-07 16:58:47:308
5.2469,19.5222,-9.7178,6.8017,-21.7648,11.6359,3.8579,1.7262,1.2687,1077,2019-08-07 16:58:47:312
5.2469,19.5222,-9.7178,-3.0113,-11.4753,15.5243,3.9666,-0.8805,1.5638,1083,2019-08-07 16:58:47:318
4.5388,25.5945,-32.7777,-3.0113,-11.4753,15.5243,3.9666,-0.8805,1.5638,1087,2019-08-07 16:58:47:322
4.5388,25.5945,-32.7777,-3.0113,-11.4753,15.5243,0.9508,1.0487,-0.799,1093,2019-08-07 16:58:47:328
-9.101,3.3819,53.6311,11.2842,5.8273,-51.0502,0.9508,1.0487,-0.799,1098,2019-08-07 16:58:47:333
-9.101,3.3819,53.6311,11.2842,5.8273,-51.0502,3.4893,-3.5319,-0.4741,1102,2019-08-07 16:58:47:337
-9.101,3.3819,53.6311,11.2842,5.8273,-51.0502,3.4893,-3.5319,-0.4741,1108,2019-08-07 16:58:47:343
-6.2018,3.4058,-15.577,8.3891,5.8915,17.8159,1.9777,-1.0818,1.0886,1113,2019-08-07 16:58:47:348
-6.2018,3.4058,-15.577,8.3891,5.8915,17.8159,1.9777,-1.0818,1.0886,1117,2019-08-07 16:58:47:352
-6.2018,3.4058,-15.577,8.3891,5.8915,17.8159,1.9777,-1.0818,1.0886,1123,2019-08-07 16:58:47:358
16.3894,-13.0973,-15.0821,-12.4022,9.5373,16.9802,0.3553,-2.1055,0.9874,1127,2019-08-07 16:58:47:362
16.3894,-13.0973,-15.0821,-12.4022,9.5373,16.9802,0.3553,-2.1055,0.9874,1133,2019-08-07 16:58:47:368
7.3424,33.6766,-30.3973,-12.4022,9.5373,16.9802,0.6643,-1.9298,-0.4539,1137,2019-08-07 16:58:47:372
7.3424,33.6766,-30.3973,-12.4022,9.5373,16.9802,0.6643,-1.9298,-0.4539,1143,2019-08-07 16:58:47:378
7.3424,33.6766,-30.3973,-12.4022,9.5373,16.9802,-1.8306,3.0685,-0.4453,1147,2019-08-07 16:58:47:382
1.0272,18.2285,30.5146,5.4246,-12.5895,-21.4346,-1.8306,3.0685,-0.4453,1153,2019-08-07 16:58:47:388
1.0272,18.2285,30.5146,5.4246,-12.5895,-21.4346,-1.8306,3.0685,-0.4453,1158,2019-08-07 16:58:47:393
4.735,12.5715,-8.3272,5.4246,-12.5895,-21.4346,2.6638,2.5135,0.2173,1162,2019-08-07 16:58:47:397
4.735,12.5715,-8.3272,1.6507,2.8536,9.646,2.6638,2.5135,0.2173,1168,2019-08-07 16:58:47:403
4.735,12.5715,-8.3272,1.6507,2.8536,9.646,-0.5704,0.0229,-0.3239,1173,2019-08-07 16:58:47:408
-1.5563,7.6783,7.3085,1.6507,2.8536,9.646,-0.5704,0.0229,-0.3239,1178,2019-08-07 16:58:47:413
-1.5563,7.6783,7.3085,1.6507,2.8536,9.646,0.0507,-2.488,-0.1588,1182,2019-08-07 16:58:47:417
-0.8578,10.5808,-8.1481,3.2157,-1.2005,9.7872,0.0507,-2.488,-0.1588,1188,2019-08-07 16:58:47:423
-0.8578,10.5808,-8.1481,3.2157,-1.2005,9.7872,-0.3531,-0.4885,0.1267,1193,2019-08-07 16:58:47:428
-0.8578,10.5808,-8.1481,3.2157,-1.2005,9.7872,-0.3531,-0.4885,0.1267,1197,2019-08-07 16:58:47:432
6.1367,8.8002,1.2607,3.2157,-1.2005,9.7872,-0.4628,0.6301,0.0969,1203,2019-08-07 16:58:47:438
6.1367,8.8002,1.2607,3.2157,-1.2005,9.7872,-0.4628,0.6301,0.0969,1208,2019-08-07 16:58:47:443
4.3139,9.3683,-0.2996,-2.71,0.5564,0.8209,-0.6492,0.1113,-0.0661,1213,2019-08-07 16:58:47:448
4.3139,9.3683,-0.2996,-2.71,0.5564,0.8209,-0.6492,0.1113,-0.0661,1217,2019-08-07 16:58:47:452
4.3139,9.3683,-0.2996,-2.71,0.5564,0.8209,-0.6492,0.1113,-0.0661,1223,2019-08-07 16:58:47:458
2.5246,11.4449,-1.5346,-2.71,0.5564,0.8209,-0.8463,0.042,-0.1098,1228,2019-08-07 16:58:47:463
2.5246,11.4449,-1.5346,-0.7753,-2.064,3.8333,-0.8463,0.042,-0.1098,1233,2019-08-07 16:58:47:468
2.5246,11.4449,-1.5346,-0.7753,-2.064,3.8333,-1.0189,0.4096,-0.1428,1238,2019-08-07 16:58:47:473
3.936,11.1155,-0.078,-1.5742,-1.7868,1.9844,-1.0189,0.4096,-0.1428,1243,2019-08-07 16:58:47:478
3.936,11.1155,-0.078,-1.5742,-1.7868,1.9844,-1.1946,0.237,-0.227,1248,2019-08-07 16:58:47:483
3.936,11.1155,-0.078,-1.5742,-1.7868,1.9844,-1.1946,0.237,-0.227,1253,2019-08-07 16:58:47:488
3.0844,10.3708,-2.0343,-1.5742,-1.7868,1.9844,-1.1946,0.237,-0.227,1257,2019-08-07 16:58:47:492
3.0844,10.3708,-2.0343,-0.5907,-1.0675,4.8904,-1.3565,0.3595,-0.2909,1263,2019-08-07 16:58:47:498
2.8547,10.5283,-2.4491,-0.5907,-1.0675,4.8904,-1.3565,0.3595,-0.2909,1268,2019-08-07 16:58:47:503
2.8547,10.5283,-2.4491,-0.5907,-1.0675,4.8904,-1.6069,0.6546,-0.3399,1272,2019-08-07 16:58:47:507
2.8547,10.5283,-2.4491,-0.5907,-1.0675,4.8904,-1.6069,0.6546,-0.3399,1278,2019-08-07 16:58:47:513
2.2997,11.4306,-3.4484,-0.0751,-2.1869,5.8653,-1.8711,0.4532,-0.358,1282,2019-08-07 16:58:47:517
2.2997,11.4306,-3.4484,-0.0751,-2.1869,5.8653,-1.8711,0.4532,-0.358,1288,2019-08-07 16:58:47:523
1.5438,13.1682,-3.5333,0.634,-3.9604,6.1232,-2.0777,0.5012,-0.3356,1292,2019-08-07 16:58:47:527
1.5438,13.1682,-3.5333,0.634,-3.9604,6.1232,-2.0777,0.5012,-0.3356,1298,2019-08-07 16:58:47:533
1.5438,13.1682,-3.5333,0.634,-3.9604,6.1232,-2.246,0.4756,-0.1066,1303,2019-08-07 16:58:47:538
1.2855,15.1398,-3.0619,0.634,-3.9604,6.1232,-2.246,0.4756,-0.1066,1307,2019-08-07 16:58:47:542
1.2855,15.1398,-3.0619,0.287,-5.7974,5.2082,-2.246,0.4756,-0.1066,1313,2019-08-07 16:58:47:548
2.0605,14.166,-2.6659,0.287,-5.7974,5.2082,-2.392,0.2157,0.1576,1318,2019-08-07 16:58:47:553
2.0605,14.166,-2.6659,0.287,-5.7974,5.2082,-2.392,0.2157,0.1576,1322,2019-08-07 16:58:47:557
2.0605,14.166,-2.6659,0.287,-5.7974,5.2082,-2.5017,0.3084,0.1597,1328,2019-08-07 16:58:47:563
0.2138,13.5311,-0.9548,1.8971,-4.5798,4.3687,-2.5017,0.3084,0.1597,1333,2019-08-07 16:58:47:568
0.2138,13.5311,-0.9548,1.8971,-4.5798,4.3687,-2.7126,0.3169,0.1832,1338,2019-08-07 16:58:47:573
-0.4943,12.7004,0.2189,2.5937,-3.8401,3.4312,-2.7126,0.3169,0.1832,1343,2019-08-07 16:58:47:578
-0.4943,12.7004,0.2189,2.5937,-3.8401,3.4312,-2.7126,0.3169,0.1832,1348,2019-08-07 16:58:47:583
-0.4943,12.7004,0.2189,2.5937,-3.8401,3.4312,-2.8756,-0.3244,0.3206,1352,2019-08-07 16:58:47:587
-0.4943,12.7004,0.2189,2.5937,-3.8401,3.4312,-2.8756,-0.3244,0.3206,1358,2019-08-07 16:58:47:593
-0.102,12.7338,0.8176,1.7247,-4.144,2.5406,-3.012,-0.7697,0.4175,1363,2019-08-07 16:58:47:598
-0.102,12.7338,0.8176,1.7247,-4.144,2.5406,-3.012,-0.7697,0.4175,1368,2019-08-07 16:58:47:603
-0.102,12.7338,0.8176,1.7247,-4.144,2.5406,-2.9757,-1.0786,0.5315,1373,2019-08-07 16:58:47:608
3.0748,11.4163,3.1038,1.7247,-4.144,2.5406,-2.9757,-1.0786,0.5315,1377,2019-08-07 16:58:47:612
3.0748,11.4163,3.1038,-2.8121,-1.3882,-3.0207,-2.866,-1.1276,0.3994,1383,2019-08-07 16:58:47:618
3.0748,11.4163,3.1038,-2.8121,-1.3882,-3.0207,-2.866,-1.1276,0.3994,1387,2019-08-07 16:58:47:622
6.218,8.1939,7.7044,-2.8121,-1.3882,-3.0207,-2.4271,-1.0008,0.0905,1393,2019-08-07 16:58:47:628
6.218,8.1939,7.7044,-2.8121,-1.3882,-3.0207,-2.4271,-1.0008,0.0905,1398,2019-08-07 16:58:47:633
5.6295,9.3922,1.3832,-3.1411,-1.2933,3.5617,-2.0564,0.1198,-0.1556,1403,2019-08-07 16:58:47:638
5.6295,9.3922,1.3832,-3.1411,-1.2933,3.5617,-2.0564,0.1198,-0.1556,1408,2019-08-07 16:58:47:643
5.6295,9.3922,1.3832,-3.1411,-1.2933,3.5617,-2.0564,0.1198,-0.1556,1412,2019-08-07 16:58:47:647
1.4481,10.0223,8.0815,-3.1411,-1.2933,3.5617,-1.6548,0.5864,-0.1492,1418,2019-08-07 16:58:47:653
1.4481,10.0223,8.0815,3.1648,-0.9715,-0.5768,-1.6548,0.5864,-0.1492,1423,2019-08-07 16:58:47:658
-0.9775,8.3515,4.1455,3.1648,-0.9715,-0.5768,-1.0444,-0.3446,-0.1066,1427,2019-08-07 16:58:47:662
-0.9775,8.3515,4.1455,3.1648,-0.9715,-0.5768,-1.0444,-0.3446,-0.1066,1433,2019-08-07 16:58:47:668
-0.9775,8.3515,4.1455,3.1648,-0.9715,-0.5768,-0.1315,-1.8786,-0.064,1438,2019-08-07 16:58:47:673
0.1516,7.4826,-5.5225,2.1494,0.3513,9.1904,-0.1315,-1.8786,-0.064,1443,2019-08-07 16:58:47:678
0.1516,7.4826,-5.5225,2.1494,0.3513,9.1904,0.187,-3.8845,-0.0736,1448,2019-08-07 16:58:47:683
0.1516,7.4826,-5.5225,2.1494,0.3513,9.1904,0.187,-3.8845,-0.0736,1452,2019-08-07 16:58:47:687
-0.3986,8.2464,-4.3393,2.1494,0.3513,9.1904,0.187,-3.8845,-0.0736,1458,2019-08-07 16:58:47:693
-0.3986,8.2464,-4.3393,1.7088,-1.404,2.4049,0.2051,-6.0534,-0.097,1463,2019-08-07 16:58:47:698
1.338,8.3037,2.1516,1.7088,-1.404,2.4049,0.2051,-6.0534,-0.097,1467,2019-08-07 16:58:47:702
1.338,8.3037,2.1516,1.7088,-1.404,2.4049,0.2051,-6.0534,-0.097,1473,2019-08-07 16:58:47:708
1.338,8.3037,2.1516,1.7088,-1.404,2.4049,1.4771,-4.0997,-0.2642,1477,2019-08-07 16:58:47:712
6.3376,9.86,-11.1791,-4.6049,-1.8483,14.0542,1.4771,-4.0997,-0.2642,1483,2019-08-07 16:58:47:718
6.3376,9.86,-11.1791,-4.6049,-1.8483,14.0542,1.3119,-1.836,-0.2408,1487,2019-08-07 16:58:47:722
7.2131,8.9577,-0.6437,-4.6049,-1.8483,14.0542,1.3119,-1.836,-0.2408,1493,2019-08-07 16:58:47:728
7.2131,8.9577,-0.6437,-4.6049,-1.8483,14.0542,1.8169,-0.0485,-0.473,1497,2019-08-07 16:58:47:732
7.2131,8.9577,-0.6437,-0.9182,-1.162,4.2163,1.8169,-0.0485,-0.473,1503,2019-08-07 16:58:47:738
3.4383,9.9889,-0.342,-0.9182,-1.162,4.2163,1.8169,-0.0485,-0.473,1507,2019-08-07 16:58:47:742
3.4383,9.9889,-0.342,-0.9182,-1.162,4.2163,2.1311,-0.1923,-0.6456,1513,2019-08-07 16:58:47:748
3.4383,9.9889,-0.342,-0.9182,-1.162,4.2163,2.1311,-0.1923,-0.6456,1517,2019-08-07 16:58:47:752
2.0939,10.3803,-1.8787,-0.9182,-1.162,4.2163,2.3165,0.4053,-0.6829,1523,2019-08-07 16:58:47:758
2.0939,10.3803,-1.8787,1.0756,-1.9952,5.5587,2.3165,0.4053,-0.6829,1527,2019-08-07 16:58:47:762
2.0844,10.7909,-0.5165,1.0756,-1.9952,5.5587,2.488,0.8474,-0.684,1533,2019-08-07 16:58:47:768
2.0844,10.7909,-0.5165,1.0756,-1.9952,5.5587,2.488,0.8474,-0.684,1537,2019-08-07 16:58:47:772
2.0844,10.7909,-0.5165,1.0756,-1.9952,5.5587,2.5839,0.8815,-0.636,1543,2019-08-07 16:58:47:778
1.2423,10.7766,-0.4033,1.8679,-2.0411,3.6055,2.5839,0.8815,-0.636,1547,2019-08-07 16:58:47:782
1.2423,10.7766,-0.4033,1.8679,-2.0411,3.6055,2.7085,0.9166,-0.6424,1553,2019-08-07 16:58:47:788
1.2423,10.7766,-0.4033,1.8679,-2.0411,3.6055,2.7085,0.9166,-0.6424,1558,2019-08-07 16:58:47:793
1.1371,10.5188,0.299,1.8679,-2.0411,3.6055,2.7085,0.9166,-0.6424,1563,2019-08-07 16:58:47:798
1.1371,10.5188,0.299,1.817,-1.2635,2.2139,2.7841,0.7781,-0.6584,1567,2019-08-07 16:58:47:802
1.0797,9.86,0.4075,1.817,-1.2635,2.2139,2.7841,0.7781,-0.6584,1573,2019-08-07 16:58:47:808
1.0797,9.86,0.4075,1.7463,-0.7447,2.1908,2.8363,0.547,-0.6296,1578,2019-08-07 16:58:47:813
1.0797,9.86,0.4075,1.7463,-0.7447,2.1908,2.8363,0.547,-0.6296,1583,2019-08-07 16:58:47:818
1.271,9.7072,-0.4269,1.7463,-0.7447,2.1908,2.8161,0.5619,-0.6243,1588,2019-08-07 16:58:47:823
1.271,9.7072,-0.4269,1.7463,-0.7447,2.1908,2.8161,0.5619,-0.6243,1593,2019-08-07 16:58:47:828
1.3715,10.2276,0.761,1.263,-0.9496,1.4072,2.7596,0.5566,-0.6158,1598,2019-08-07 16:58:47:833
1.3715,10.2276,0.761,1.263,-0.9496,1.4072,2.7596,0.5566,-0.6158,1603,2019-08-07 16:58:47:838
1.3715,10.2276,0.761,1.263,-0.9496,1.4072,2.7596,0.5566,-0.6158,1607,2019-08-07 16:58:47:842
1.4624,10.2133,0.9401,1.263,-0.9496,1.4072,2.6883,0.4895,-0.5774,1612,2019-08-07 16:58:47:847
1.4624,10.2133,0.9401,0.9874,-0.6024,0.427,2.6883,0.4895,-0.5774,1618,2019-08-07 16:58:47:853
1.4767,9.6452,1.3643,0.9874,-0.6024,0.427,2.5732,0.5683,-0.5966,1623,2019-08-07 16:58:47:858
1.4767,9.6452,1.3643,0.9473,-0.0531,-0.337,2.5732,0.5683,-0.5966,1627,2019-08-07 16:58:47:862
1.4767,9.6452,1.3643,0.9473,-0.0531,-0.337,2.504,0.597,-0.6094,1633,2019-08-07 16:58:47:868
1.6059,9.0914,2.3401,0.9473,-0.0531,-0.337,2.504,0.597,-0.6094,1637,2019-08-07 16:58:47:872
1.6059,9.0914,2.3401,0.9473,-0.0531,-0.337,2.4795,0.5438,-0.6051,1643,2019-08-07 16:58:47:878
1.9552,9.0723,2.6654,0.5011,0.4459,-1.757,2.4795,0.5438,-0.6051,1647,2019-08-07 16:58:47:882
1.9552,9.0723,2.6654,0.5011,0.4459,-1.757,2.4688,0.5406,-0.5977,1653,2019-08-07 16:58:47:888
1.9552,9.0723,2.6654,0.5011,0.4459,-1.757,2.4688,0.5406,-0.5977,1657,2019-08-07 16:58:47:892
2.4106,9.0436,3.0521,0.5011,0.4459,-1.757,2.4688,0.5406,-0.5977,1663,2019-08-07 16:58:47:898
2.4106,9.0436,3.0521,-0.1956,0.4843,-2.8826,2.4667,0.612,-0.5806,1667,2019-08-07 16:58:47:902
2.4106,9.0436,3.0521,-0.1956,0.4843,-2.8826,2.4667,0.612,-0.5806,1672,2019-08-07 16:58:47:907
2.224,9.0579,3.2454,-0.1956,0.4843,-2.8826,2.4294,0.7121,-0.522,1678,2019-08-07 16:58:47:913
2.224,9.0579,3.2454,-0.1956,0.4843,-2.8826,2.4294,0.7121,-0.522,1683,2019-08-07 16:58:47:918
1.4634,8.5948,4.1598,0.482,0.8788,-3.9947,2.3175,0.8186,-0.4336,1687,2019-08-07 16:58:47:922
1.4634,8.5948,4.1598,0.482,0.8788,-3.9947,2.3175,0.8186,-0.4336,1693,2019-08-07 16:58:47:928
1.4634,8.5948,4.1598,0.482,0.8788,-3.9947,2.2163,0.7057,-0.3622,1698,2019-08-07 16:58:47:933
0.6835,8.3323,5.0272,0.482,0.8788,-3.9947,2.2163,0.7057,-0.3622,1703,2019-08-07 16:58:47:938
0.6835,8.3323,5.0272,0.482,0.8788,-3.9947,2.2163,0.7057,-0.3622,1707,2019-08-07 16:58:47:942
0.7984,8.0697,4.9753,1.3908,1.4327,-5.3945,2.0885,0.4703,-0.26,1712,2019-08-07 16:58:47:947
0.7984,8.0697,4.9753,1.3908,1.4327,-5.3945,2.0885,0.4703,-0.26,1717,2019-08-07 16:58:47:952
0.7984,8.0697,4.9753,1.3908,1.4327,-5.3945,2.0683,0.0985,-0.1886,1722,2019-08-07 16:58:47:957
1.3486,6.3702,1.7841,0.2675,1.7704,-1.0996,2.0683,0.0985,-0.1886,1728,2019-08-07 16:58:47:963
1.3486,6.3702,1.7841,0.2675,1.7704,-1.0996,2.1322,-0.1028,-0.0427,1733,2019-08-07 16:58:47:968
1.3486,6.3702,1.7841,0.2675,1.7704,-1.0996,2.1322,-0.1028,-0.0427,1738,2019-08-07 16:58:47:973
3.6881,10.3468,8.6474,0.2675,1.7704,-1.0996,1.5442,0.1124,0.115,1743,2019-08-07 16:58:47:978
3.6881,10.3468,8.6474,-2.6028,2.098,-13.6522,1.5442,0.1124,0.115,1748,2019-08-07 16:58:47:983
3.6881,10.3468,8.6474,-2.6028,2.098,-13.6522,1.5442,0.1124,0.115,1753,2019-08-07 16:58:47:988
3.6881,10.3468,8.6474,-2.5414,1.6354,-7.2744,1.525,0.6109,-0.1066,1758,2019-08-07 16:58:47:993
4.5684,7.8979,6.1585,-2.5414,1.6354,-7.2744,1.525,0.6109,-0.1066,1763,2019-08-07 16:58:47:998
4.5684,7.8979,6.1585,-2.5414,1.6354,-7.2744,0.3937,0.7835,-0.1353,1767,2019-08-07 16:58:48:002
3.535,10.6046,25.6642,-2.5414,1.6354,-7.2744,0.3937,0.7835,-0.1353,1773,2019-08-07 16:58:48:008
3.535,10.6046,25.6642,-2.6867,0.7526,-15.7511,-0.0601,0.3595,0.344,1778,2019-08-07 16:58:48:013
3.535,10.6046,25.6642,-2.6867,0.7526,-15.7511,-0.0601,0.3595,0.344,1783,2019-08-07 16:58:48:018
5.3434,10.5187,21.6104,-2.6867,0.7526,-15.7511,-1.0934,1.1574,0.3398,1788,2019-08-07 16:58:48:023
5.3434,10.5187,21.6104,-2.6867,0.7526,-15.7511,-1.0934,1.1574,0.3398,1792,2019-08-07 16:58:48:027
2.7217,13.2732,35.7848,-0.5755,-3.7355,-36.5986,-2.1757,0.1848,0.3749,1798,2019-08-07 16:58:48:033
2.7217,13.2732,35.7848,-0.5755,-3.7355,-36.5986,-2.1757,0.1848,0.3749,1803,2019-08-07 16:58:48:038
2.7217,13.2732,35.7848,-0.5755,-3.7355,-36.5986,-2.1757,0.1848,0.3749,1808,2019-08-07 16:58:48:043
4.0948,10.638,11.6501,-1.9001,-1.0918,-12.1885,-2.8777,-0.2094,0.6817,1813,2019-08-07 16:58:48:048
4.0948,10.638,11.6501,-1.9001,-1.0918,-12.1885,-2.8777,-0.2094,0.6817,1818,2019-08-07 16:58:48:053
7.3193,12.0702,-1.9775,-1.9001,-1.0918,-12.1885,-2.4655,-0.4458,0.8234,1823,2019-08-07 16:58:48:058
7.3193,12.0702,-1.9775,-4.6757,-5.0837,6.2542,-2.4655,-0.4458,0.8234,1827,2019-08-07 16:58:48:062
7.3193,12.0702,-1.9775,-4.6757,-5.0837,6.2542,-0.9624,-0.2466,0.3163,1833,2019-08-07 16:58:48:068
3.846,24.1193,-15.36,-4.6757,-5.0837,6.2542,-0.9624,-0.2466,0.3163,1838,2019-08-07 16:58:48:073
3.846,24.1193,-15.36,-4.6757,-5.0837,6.2542,-1.1169,1.2085,-0.2717,1843,2019-08-07 16:58:48:078
-5.1579,9.2154,46.5936,7.5115,0.3064,-46.4185,-1.1169,1.2085,-0.2717,1848,2019-08-07 16:58:48:083
-5.1579,9.2154,46.5936,7.5115,0.3064,-46.4185,0.0017,-0.4608,0.4612,1853,2019-08-07 16:58:48:088
-5.1579,9.2154,46.5936,7.5115,0.3064,-46.4185,0.0017,-0.4608,0.4612,1857,2019-08-07 16:58:48:092
-0.7182,12.1704,-9.9816,3.0953,-2.6546,10.1664,-0.6982,-0.3681,0.702,1863,2019-08-07 16:58:48:098
-0.7182,12.1704,-9.9816,3.0953,-2.6546,10.1664,-0.6982,-0.3681,0.702,1868,2019-08-07 16:58:48:103
-0.7182,12.1704,-9.9816,3.0953,-2.6546,10.1664,-0.6982,-0.3681,0.702,1872,2019-08-07 16:58:48:107
0.4731,6.3464,3.0521,2.68,0.7045,2.3008,-0.4372,-0.9135,0.246,1878,2019-08-07 16:58:48:113
0.4731,6.3464,3.0521,2.68,0.7045,2.3008,-0.4372,-0.9135,0.246,1883,2019-08-07 16:58:48:118
0.4731,6.3464,3.0521,2.68,0.7045,2.3008,-0.222,-0.1572,0.3984,1887,2019-08-07 16:58:48:122
4.0518,7.3202,5.2723,2.68,0.7045,2.3008,-0.222,-0.1572,0.3984,1893,2019-08-07 16:58:48:128
4.0518,7.3202,5.2723,2.68,0.7045,2.3008,-0.1017,-0.6664,0.458,1898,2019-08-07 16:58:48:133
6.286,7.8835,1.4447,-3.8708,1.8396,-1.7894,-0.1017,-0.6664,0.458,1903,2019-08-07 16:58:48:138
6.286,7.8835,1.4447,-3.8708,1.8396,-1.7894,-0.1017,-0.6664,0.458,1908,2019-08-07 16:58:48:143
6.286,7.8835,1.4447,-3.8708,1.8396,-1.7894,0.0315,-0.4863,0.3984,1913,2019-08-07 16:58:48:148
5.1043,7.9981,-0.997,-3.8708,1.8396,-1.7894,0.0315,-0.4863,0.3984,1918,2019-08-07 16:58:48:153
5.1043,7.9981,-0.997,-2.6467,1.2589,-0.5557,0.1519,0.8112,0.23,1923,2019-08-07 16:58:48:158
5.2239,9.034,4.9047,-2.6467,1.2589,-0.5557,0.1519,0.8112,0.23,1928,2019-08-07 16:58:48:163
5.2239,9.034,4.9047,-2.6467,1.2589,-0.5557,0.2371,0.1262,0.1757,1932,2019-08-07 16:58:48:167
5.2239,9.034,4.9047,-2.6467,1.2589,-0.5557,0.2371,0.1262,0.1757,1938,2019-08-07 16:58:48:173
5.2239,9.034,4.9047,-2.6467,1.2589,-0.5557,0.2371,0.1262,0.1757,1943,2019-08-07 16:58:48:178
4.2097,9.9267,1.5956,-1.501,-0.5027,-1.3013,0.236,-0.4107,0.1747,1947,2019-08-07 16:58:48:182
4.2097,9.9267,1.5956,-1.501,-0.5027,-1.3013,0.236,-0.4107,0.1747,1953,2019-08-07 16:58:48:188
4.2097,9.9267,1.5956,-1.501,-0.5027,-1.3013,0.3894,0.1944,0.0628,1957,2019-08-07 16:58:48:192
3.2863,8.972,-0.2381,-0.529,0.2545,-0.1934,0.3894,0.1944,0.0628,1963,2019-08-07 16:58:48:198
3.2863,8.972,-0.2381,-0.529,0.2545,-0.1934,0.4022,0.5683,0.05,1967,2019-08-07 16:58:48:202
3.2863,8.972,-0.2381,-0.529,0.2545,-0.1934,0.4022,0.5683,0.05,1973,2019-08-07 16:58:48:208
2.0903,10.5998,1.0488,-0.529,0.2545,-0.1934,0.4342,0.4138,0.0862,1977,2019-08-07 16:58:48:212
2.0903,10.5998,1.0488,1.3152,-1.4938,-0.0769,0.4342,0.4138,0.0862,1983,2019-08-07 16:58:48:218
2.0903,10.5998,1.0488,1.3152,-1.4938,-0.0769,0.4405,0.4341,0.1267,1987,2019-08-07 16:58:48:222
0.8129,10.5473,0.1814,1.9352,-1.1313,-0.0327,0.4405,0.4341,0.1267,1993,2019-08-07 16:58:48:228
0.8129,10.5473,0.1814,1.9352,-1.1313,-0.0327,0.4171,0.3584,0.1629,1998,2019-08-07 16:58:48:233
0.8129,10.5473,0.1814,1.9352,-1.1313,-0.0327,0.4171,0.3584,0.1629,2003,2019-08-07 16:58:48:238
1.6071,10.0843,0.073,1.9352,-1.1313,-0.0327,0.4171,0.3584,0.1629,2007,2019-08-07 16:58:48:242
1.6071,10.0843,0.073,0.7113,-0.5635,0.4482,0.3319,-0.0293,0.2119,2013,2019-08-07 16:58:48:248
2.8366,9.731,-1.1243,0.7113,-0.5635,0.4482,0.3319,-0.0293,0.2119,2017,2019-08-07 16:58:48:252
2.8366,9.731,-1.1243,0.7113,-0.5635,0.4482,0.2168,-0.269,0.2279,2023,2019-08-07 16:58:48:258
2.8366,9.731,-1.1243,0.7113,-0.5635,0.4482,0.2168,-0.269,0.2279,2027,2019-08-07 16:58:48:262
3.5686,9.6642,-0.8745,-0.7562,-0.266,0.8967,0.1732,-0.0986,0.2055,2033,2019-08-07 16:58:48:268
3.5686,9.6642,-0.8745,-0.7562,-0.266,0.8967,0.1732,-0.0986,0.2055,2038,2019-08-07 16:58:48:273
3.7026,9.4923,-0.1768,-0.868,-0.1007,0.1813,0.1455,0.042,0.1938,2042,2019-08-07 16:58:48:277
3.7026,9.4923,-0.1768,-0.868,-0.1007,0.1813,0.1455,0.042,0.1938,2048,2019-08-07 16:58:48:283
3.7026,9.4923,-0.1768,-0.868,-0.1007,0.1813,0.1455,0.042,0.1938,2053,2019-08-07 16:58:48:288
3.2912,9.8647,-0.2381,-0.868,-0.1007,0.1813,0.0762,0.0197,0.1342,2058,2019-08-07 16:58:48:293
3.2912,9.8647,-0.2381,-0.3508,-0.4691,-0.1923,0.0762,0.0197,0.1342,2063,2019-08-07 16:58:48:298
3.2912,9.8647,-0.2381,-0.3508,-0.4691,-0.1923,0.0613,-0.0123,0.1022,2068,2019-08-07 16:58:48:303
3.4969,9.6737,0.0777,-0.3508,-0.4691,-0.1923,0.0613,-0.0123,0.1022,2073,2019-08-07 16:58:48:308
3.4969,9.6737,0.0777,-0.3508,-0.4691,-0.1923,0.0166,-0.0453,0.0735,2078,2019-08-07 16:58:48:313
3.8796,9.2966,-0.0637,-0.9068,-0.0083,0.3292,0.0166,-0.0453,0.0735,2082,2019-08-07 16:58:48:317
3.8796,9.2966,-0.0637,-0.9068,-0.0083,0.3292,0.007,0.025,0.0255,2088,2019-08-07 16:58:48:323
3.8796,9.2966,-0.0637,-0.9068,-0.0083,0.3292,0.007,0.025,0.0255,2092,2019-08-07 16:58:48:327
3.5591,9.8121,-0.9546,-0.8039,-0.2349,0.4742,0.007,0.025,0.0255,2098,2019-08-07 16:58:48:333
3.5591,9.8121,-0.9546,-0.8039,-0.2349,0.4742,-0.026,0.1443,-1.0E-4,2103,2019-08-07 16:58:48:338
3.5591,9.8121,-0.9546,-0.8039,-0.2349,0.4742,-0.026,0.1443,-1.0E-4,2108,2019-08-07 16:58:48:343
2.8415,9.8742,0.7612,0.0577,-0.5024,-0.7778,-0.0346,0.1912,-0.0288,2112,2019-08-07 16:58:48:347
2.8415,9.8742,0.7612,0.0577,-0.5024,-0.7778,-0.0346,0.1912,-0.0288,2117,2019-08-07 16:58:48:352
2.8415,9.8742,0.7612,0.0577,-0.5024,-0.7778,-0.0196,0.1294,-0.0235,2123,2019-08-07 16:58:48:358
2.5688,9.984,0.5491,0.0577,-0.5024,-0.7778,-0.0196,0.1294,-0.0235,2127,2019-08-07 16:58:48:362
2.5688,9.984,0.5491,0.141,-0.3664,-0.7097,-0.0228,0.0495,-0.0182,2133,2019-08-07 16:58:48:368
2.8511,9.7071,0.5444,0.141,-0.3664,-0.7097,-0.0228,0.0495,-0.0182,2138,2019-08-07 16:58:48:373
2.8511,9.7071,0.5444,0.141,-0.3664,-0.7097,-0.0228,0.0495,-0.0182,2142,2019-08-07 16:58:48:377
2.8511,9.7071,0.5444,0.0475,-0.251,-0.3288,-0.0037,0.0229,-0.0256,2148,2019-08-07 16:58:48:383
2.7267,9.4732,0.1626,0.0475,-0.251,-0.3288,-0.0037,0.0229,-0.0256,2153,2019-08-07 16:58:48:388
2.7267,9.4732,0.1626,0.0475,-0.251,-0.3288,-0.0037,0.0878,-0.0075,2157,2019-08-07 16:58:48:392
2.564,9.5448,0.1579,0.321,-0.1686,-0.1488,-0.0037,0.0878,-0.0075,2163,2019-08-07 16:58:48:398
2.564,9.5448,0.1579,0.321,-0.1686,-0.1488,-0.0143,0.107,-0.0096,2167,2019-08-07 16:58:48:402
2.564,9.5448,0.1579,0.321,-0.1686,-0.1488,-0.0143,0.107,-0.0096,2173,2019-08-07 16:58:48:408
2.3487,9.7739,0.9309,0.321,-0.1686,-0.1488,-0.0218,0.0314,0.0095,2178,2019-08-07 16:58:48:413
2.3487,9.7739,0.9309,0.1085,-0.3829,-0.7923,-0.0218,0.0314,0.0095,2182,2019-08-07 16:58:48:417
2.3487,9.7739,0.9309,0.1085,-0.3829,-0.7923,-0.0154,-0.1476,0.0308,2188,2019-08-07 16:58:48:423
3.2051,9.6212,0.3653,0.1085,-0.3829,-0.7923,-0.0154,-0.1476,0.0308,2193,2019-08-07 16:58:48:428
3.2051,9.6212,0.3653,0.1085,-0.3829,-0.7923,-0.0143,-0.122,0.0127,2198,2019-08-07 16:58:48:433
3.2051,9.6212,0.3653,-0.5973,0.0399,-0.0647,-0.0143,-0.122,0.0127,2203,2019-08-07 16:58:48:438
3.497,9.2822,0.1249,-0.5973,0.0399,-0.0647,-0.0143,-0.122,0.0127,2207,2019-08-07 16:58:48:442
3.497,9.2822,0.1249,-0.5973,0.0399,-0.0647,-0.009,-0.0389,-1.0E-4,2213,2019-08-07 16:58:48:448
3.5496,9.3968,0.1815,-0.5973,0.0399,-0.0647,-0.009,-0.0389,-1.0E-4,2217,2019-08-07 16:58:48:452
3.5496,9.3968,0.1815,-0.5973,0.0399,-0.0647,-0.0133,-0.0176,-0.0331,2223,2019-08-07 16:58:48:458
3.5496,9.3968,0.1815,-0.4559,-0.3429,-0.299,-0.0133,-0.0176,-0.0331,2228,2019-08-07 16:58:48:463
3.076,9.731,0.2993,-0.4559,-0.3429,-0.299,0.0176,0.0399,-0.0522,2233,2019-08-07 16:58:48:468
3.076,9.731,0.2993,-0.4559,-0.3429,-0.299,0.0176,0.0399,-0.0522,2237,2019-08-07 16:58:48:472
3.076,9.731,0.2993,-0.4559,-0.3429,-0.299,0.024,0.107,-0.0533,2243,2019-08-07 16:58:48:478
2.6741,9.8551,0.5161,0.2087,-0.4783,-0.4939,0.024,0.107,-0.0533,2247,2019-08-07 16:58:48:482
2.6741,9.8551,0.5161,0.2087,-0.4783,-0.4939,0.0251,-0.0091,-0.0491,2253,2019-08-07 16:58:48:488
2.6741,9.8551,0.5161,0.2087,-0.4783,-0.4939,0.0251,-0.0091,-0.0491,2257,2019-08-07 16:58:48:492
2.588,9.688,0.5114,0.0867,-0.2025,-0.409,0.0294,-0.0613,-0.048,2263,2019-08-07 16:58:48:498
2.588,9.688,0.5114,0.0867,-0.2025,-0.409,0.0294,-0.0613,-0.048,2267,2019-08-07 16:58:48:502
2.7555,9.5114,0.139,0.0867,-0.2025,-0.409,0.0294,-0.0613,-0.048,2273,2019-08-07 16:58:48:508
2.7555,9.5114,0.139,0.0867,-0.2025,-0.409,0.0283,-0.0059,-0.032,2277,2019-08-07 16:58:48:512
2.7555,9.5114,0.139,0.0867,-0.2025,-0.409,0.0283,-0.0059,-0.032,2283,2019-08-07 16:58:48:518
2.7076,9.6832,-0.1061,0.1549,-0.3002,0.1225,0.0166,0.0804,-0.0299,2287,2019-08-07 16:58:48:522
2.7076,9.6832,-0.1061,0.1549,-0.3002,0.1225,0.0166,0.0804,-0.0299,2293,2019-08-07 16:58:48:528
2.4445,9.5066,0.4596,0.4138,-0.1223,-0.4415,0.0017,0.0111,-0.0096,2298,2019-08-07 16:58:48:533
2.4445,9.5066,0.4596,0.4138,-0.1223,-0.4415,0.0017,0.0111,-0.0096,2303,2019-08-07 16:58:48:538
2.3871,9.435,0.1438,0.4138,-0.1223,-0.4415,-0.0047,-0.0762,0.0031,2308,2019-08-07 16:58:48:543
2.3871,9.435,0.1438,0.4138,-0.1223,-0.4415,-0.0047,-0.0762,0.0031,2312,2019-08-07 16:58:48:547
2.3871,9.435,0.1438,0.1755,-0.0543,-0.1919,-0.0047,-0.0762,0.0031,2318,2019-08-07 16:58:48:553
2.6837,9.4541,0.2145,0.1755,-0.0543,-0.1919,-0.0101,-0.1028,0.0063,2323,2019-08-07 16:58:48:558
2.6837,9.4541,0.2145,0.1755,-0.0543,-0.1919,-0.0101,-0.1028,0.0063,2328,2019-08-07 16:58:48:563
2.6837,9.4541,0.2145,0.1755,-0.0543,-0.1919,-0.0026,-0.0528,0.0159,2333,2019-08-07 16:58:48:568
2.8081,9.5448,0.4879,0.0473,-0.1596,-0.4707,-0.0026,-0.0528,0.0159,2337,2019-08-07 16:58:48:572
2.8081,9.5448,0.4879,0.0473,-0.1596,-0.4707,0.0134,-0.0176,0.0138,2343,2019-08-07 16:58:48:578
2.9086,9.6737,0.7943,0.0473,-0.1596,-0.4707,0.0134,-0.0176,0.0138,2347,2019-08-07 16:58:48:582
2.9086,9.6737,0.7943,0.0473,-0.1596,-0.4707,0.0283,-0.0837,0.0159,2353,2019-08-07 16:58:48:588
2.9086,9.6737,0.7943,-0.1319,-0.2463,-0.7113,0.0283,-0.0837,0.0159,2358,2019-08-07 16:58:48:593
3.0808,9.645,0.2852,-0.1319,-0.2463,-0.7113,0.0347,-0.0911,0.0181,2363,2019-08-07 16:58:48:598
3.0808,9.645,0.2852,-0.1319,-0.2463,-0.7113,0.0347,-0.0911,0.0181,2367,2019-08-07 16:58:48:602
3.0808,9.645,0.2852,-0.1319,-0.2463,-0.7113,0.0347,-0.0911,0.0181,2373,2019-08-07 16:58:48:608
3.0761,9.4875,-0.1202,-0.1758,0.1296,0.1645,0.0272,-0.0176,0.001,2378,2019-08-07 16:58:48:613
3.0761,9.4875,-0.1202,-0.1758,0.1296,0.1645,0.0272,-0.0176,0.001,2382,2019-08-07 16:58:48:617
2.7842,9.6785,0.0259,-0.1758,0.1296,0.1645,-0.0047,0.1102,-0.0299,2388,2019-08-07 16:58:48:623
2.7842,9.6785,0.0259,-0.1758,0.1296,0.1645,-0.0047,0.1102,-0.0299,2392,2019-08-07 16:58:48:627
2.7842,9.6785,0.0259,-0.0739,-0.2083,-0.4362,0.0027,0.1092,-0.0128,2398,2019-08-07 16:58:48:633
2.9948,9.6594,0.1956,-0.0739,-0.2083,-0.4362,0.0027,0.1092,-0.0128,2402,2019-08-07 16:58:48:637
2.9948,9.6594,0.1956,-0.0085,-0.2317,0.1698,-0.0154,0.0186,-0.0214,2408,2019-08-07 16:58:48:643
2.7843,9.688,0.1721,-0.0085,-0.2317,0.1698,-0.0154,0.0186,-0.0214,2413,2019-08-07 16:58:48:648
2.7843,9.688,0.1721,-0.0085,-0.2317,0.1698,-0.0196,0.0175,-0.0192,2417,2019-08-07 16:58:48:652
2.7843,9.688,0.1721,-0.0085,-0.2317,0.1698,-0.0196,0.0175,-0.0192,2423,2019-08-07 16:58:48:658
2.789,9.6976,0.3182,0.096,-0.3112,-0.4042,-0.0196,0.0175,-0.0192,2428,2019-08-07 16:58:48:663
2.789,9.6976,0.3182,0.096,-0.3112,-0.4042,-0.0186,0.0261,-0.015,2433,2019-08-07 16:58:48:668
2.7269,9.7644,0.1249,0.096,-0.3112,-0.4042,-0.0186,0.0431,-0.0171,2438,2019-08-07 16:58:48:673
2.7269,9.7644,0.1249,0.096,-0.3112,-0.4042,-0.0186,0.0431,-0.0171,2443,2019-08-07 16:58:48:678
2.7269,9.7644,0.1249,0.1679,-0.3479,0.0364,-0.0186,0.0431,-0.0171,2448,2019-08-07 16:58:48:683
2.6455,9.6594,0.0872,0.1679,-0.3479,0.0364,-0.0207,0.0719,-0.0182,2453,2019-08-07 16:58:48:688
2.6455,9.6594,0.0872,0.2464,-0.2373,-0.0202,-0.0207,0.0719,-0.0182,2458,2019-08-07 16:58:48:693
2.6455,9.6594,0.0872,0.2464,-0.2373,-0.0202,-0.0473,0.0761,-0.0054,2462,2019-08-07 16:58:48:697
2.6073,9.7644,0.0448,0.2464,-0.2373,-0.0202,-0.0473,0.0761,-0.0054,2468,2019-08-07 16:58:48:703
2.6073,9.7644,0.0448,0.2464,-0.2373,-0.0202,-0.058,0.0793,-0.0011,2472,2019-08-07 16:58:48:707
2.5164,9.8694,0.1155,0.2813,-0.4082,-0.1278,-0.058,0.0793,-0.0011,2478,2019-08-07 16:58:48:713
2.5164,9.8694,0.1155,0.2813,-0.4082,-0.1278,-0.0793,0.0484,0.0127,2482,2019-08-07 16:58:48:717
2.5164,9.8694,0.1155,0.2813,-0.4082,-0.1278,-0.0793,0.0484,0.0127,2488,2019-08-07 16:58:48:723
2.8896,9.7596,0.5397,0.2813,-0.4082,-0.1278,-0.074,0.0016,0.0117,2492,2019-08-07 16:58:48:727
2.8896,9.7596,0.5397,1.6683,-0.7615,-2.1441,-0.074,0.0016,0.0117,2498,2019-08-07 16:58:48:733
2.8896,9.7596,0.5397,1.6683,-0.7615,-2.1441,-0.3477,-1.7849,0.0575,2503,2019-08-07 16:58:48:738
1.9901,8.8764,2.5243,1.6683,-0.7615,-2.1441,-0.3477,-1.7849,0.0575,2507,2019-08-07 16:58:48:742
1.9901,8.8764,2.5243,1.0334,0.4125,0.9242,-0.1049,-1.0552,0.0308,2513,2019-08-07 16:58:48:748
4.6071,9.4493,-1.6899,1.0334,0.4125,0.9242,-0.1049,-1.0552,0.0308,2518,2019-08-07 16:58:48:753
4.6071,9.4493,-1.6899,1.0334,0.4125,0.9242,-0.1049,-1.0552,0.0308,2522,2019-08-07 16:58:48:757
4.6071,9.4493,-1.6899,-1.0384,-0.144,-0.9103,-0.091,-0.3095,-0.0203,2528,2019-08-07 16:58:48:763
3.6646,9.583,0.9451,-1.0384,-0.144,-0.9103,-0.091,-0.3095,-0.0203,2533,2019-08-07 16:58:48:768
3.6646,9.583,0.9451,-1.0384,-0.144,-0.9103,0.0102,-0.1071,0.033,2538,2019-08-07 16:58:48:773
3.6646,9.583,0.9451,-1.0384,-0.144,-0.9103,0.0102,-0.1071,0.033,2543,2019-08-07 16:58:48:778
2.8035,9.6164,0.0448,0.118,-0.3168,-0.0749,0.0347,0.0048,-0.0309,2547,2019-08-07 16:58:48:782
2.8035,9.6164,0.0448,0.118,-0.3168,-0.0749,0.0347,0.0048,-0.0309,2553,2019-08-07 16:58:48:788
2.703,9.6164,0.1721,0.118,-0.3168,-0.0749,0.0517,0.107,-0.0224,2558,2019-08-07 16:58:48:793
2.703,9.6164,0.1721,0.118,-0.3168,-0.0749,0.0517,0.107,-0.0224,2563,2019-08-07 16:58:48:798
2.703,9.6164,0.1721,0.0365,-0.1005,0.172,0.0794,0.2189,-0.0054,2568,2019-08-07 16:58:48:803
2.7604,9.5114,-0.4596,0.0365,-0.1005,0.172,0.0794,0.2189,-0.0054,2573,2019-08-07 16:58:48:808
2.7604,9.5114,-0.4596,0.0365,-0.1005,0.172,0.0816,0.3691,-0.0107,2578,2019-08-07 16:58:48:813
2.5117,9.8837,-0.2286,0.0365,-0.1005,0.172,0.0816,0.3691,-0.0107,2582,2019-08-07 16:58:48:817
2.5117,9.8837,-0.2286,0.1338,-0.3669,-0.2041,0.0389,0.4841,0.0213,2588,2019-08-07 16:58:48:823
2.5117,9.8837,-0.2286,0.1338,-0.3669,-0.2041,0.0389,0.4841,0.0213,2592,2019-08-07 16:58:48:827
2.8418,9.7739,0.1438,0.1338,-0.3669,-0.2041,0.0432,0.4895,0.0308,2598,2019-08-07 16:58:48:833
2.8418,9.7739,0.1438,0.1338,-0.3669,-0.2041,0.0432,0.4895,0.0308,2602,2019-08-07 16:58:48:837
2.5739,9.8026,0.2758,0.4191,-0.3679,-0.5297,-5.0E-4,0.4788,0.0202,2608,2019-08-07 16:58:48:843
2.5739,9.8026,0.2758,0.4191,-0.3679,-0.5297,-5.0E-4,0.4788,0.0202,2612,2019-08-07 16:58:48:847
2.5739,9.8026,0.2758,0.4191,-0.3679,-0.5297,-0.0516,-0.0208,0.0436,2618,2019-08-07 16:58:48:853
2.4351,9.7739,1.3694,0.4191,-0.3679,-0.5297,-0.0516,-0.0208,0.0436,2622,2019-08-07 16:58:48:857
2.4351,9.7739,1.3694,-0.1227,-0.3548,-0.2325,-0.0793,-0.383,0.0426,2629,2019-08-07 16:58:48:864
3.3154,9.731,-0.2946,-0.1227,-0.3548,-0.2325,-0.0793,-0.383,0.0426,2633,2019-08-07 16:58:48:868
3.3154,9.731,-0.2946,-0.1227,-0.3548,-0.2325,-0.0793,-0.383,0.0426,2637,2019-08-07 16:58:48:872
3.3154,9.731,-0.2946,-0.6867,-0.2275,0.6453,-0.0644,-0.1359,0.0245,2642,2019-08-07 16:58:48:877
3.4925,9.5209,-0.4077,-0.6867,-0.2275,0.6453,-0.0644,-0.1359,0.0245,2648,2019-08-07 16:58:48:883
3.4925,9.5209,-0.4077,-0.6867,-0.2275,0.6453,-0.0335,0.3105,0.0042,2652,2019-08-07 16:58:48:887