ACCELEROMETER X (m/s²),ACCELEROMETER Y (m/s²),ACCELEROMETER Z (m/s²),LINEAR ACCELERATION X (m/s²),LINEAR ACCELERATION Y (m/s²),LINEAR ACCELERATION Z (m/s²),GYROSCOPE X (rad/s),GYROSCOPE Y (rad/s),GYROSCOPE Z (rad/s),Time since start in ms ,YYYY-MO-DD HH-MI-SS_SSS
2.7727,9.5827,0.7147,-0.3239,-0.1957,0.0023,0.056,0.0069,-0.0629,2,2019-08-07 16:58:07:048
2.7727,9.5827,0.7147,-0.3239,-0.1957,0.0023,0.0539,-0.0229,-0.0576,8,2019-08-07 16:58:07:054
2.7344,9.6591,0.6252,-0.3239,-0.1957,0.0023,0.0539,-0.0229,-0.0576,13,2019-08-07 16:58:07:059
2.7344,9.6591,0.6252,-0.2004,-0.1063,-0.018,0.0634,0.0037,-0.0554,18,2019-08-07 16:58:07:064
2.61,9.6114,0.7949,-0.2004,-0.1063,-0.018,0.0634,0.0037,-0.0554,23,2019-08-07 16:58:07:069
2.61,9.6114,0.7949,-0.2004,-0.1063,-0.018,0.0773,0.0463,-0.0426,28,2019-08-07 16:58:07:074
2.61,9.6114,0.7949,0.0244,-0.208,-0.2882,0.0773,0.0463,-0.0426,32,2019-08-07 16:58:07:078
2.4521,9.6925,0.8656,0.0244,-0.208,-0.2882,0.0773,0.0463,-0.0426,38,2019-08-07 16:58:07:084
2.4521,9.6925,0.8656,0.0244,-0.208,-0.2882,0.0773,0.0538,-0.0331,43,2019-08-07 16:58:07:089
2.4138,9.7689,0.7053,0.0244,-0.208,-0.2882,0.0773,0.0538,-0.0331,48,2019-08-07 16:58:07:094
2.4138,9.7689,0.7053,0.0244,-0.208,-0.2882,0.0762,0.0452,-0.0331,52,2019-08-07 16:58:07:098
2.4138,9.7689,0.7053,0.026,-0.3054,-0.0026,0.0762,0.0452,-0.0331,58,2019-08-07 16:58:07:104
2.4138,9.745,0.5262,0.026,-0.3054,-0.0026,0.0784,0.0197,-0.0235,62,2019-08-07 16:58:07:108
2.4138,9.745,0.5262,0.026,-0.3054,-0.0026,0.0784,0.0197,-0.0235,68,2019-08-07 16:58:07:114
2.4138,9.745,0.5262,0.026,-0.3054,-0.0026,0.0784,0.0197,-0.0235,73,2019-08-07 16:58:07:119
2.5143,9.7498,0.6676,-0.0272,-0.2792,-0.0685,0.072,-0.0112,-0.0181,78,2019-08-07 16:58:07:124
2.5143,9.7498,0.6676,-0.0272,-0.2792,-0.0685,0.072,-0.0325,-0.0064,83,2019-08-07 16:58:07:129
2.5813,9.6161,0.6204,-0.0272,-0.2792,-0.0685,0.072,-0.0325,-0.0064,87,2019-08-07 16:58:07:133
2.5813,9.6161,0.6204,-0.0272,-0.2792,-0.0685,0.072,-0.0325,-0.0064,93,2019-08-07 16:58:07:139
2.5813,9.6161,0.6204,-0.2099,-0.0776,-0.0171,0.073,-0.0123,0.0,98,2019-08-07 16:58:07:144
2.7248,9.5588,0.5733,-0.2099,-0.0776,-0.0171,0.073,-0.0123,0.0,102,2019-08-07 16:58:07:148
2.7248,9.5588,0.5733,-0.2099,-0.0776,-0.0171,0.089,0.0452,-0.0064,108,2019-08-07 16:58:07:154
2.7631,9.6114,0.6346,-0.2099,-0.0776,-0.0171,0.089,0.0452,-0.0064,113,2019-08-07 16:58:07:159
2.7631,9.6114,0.6346,-0.2193,-0.0767,-0.0555,0.1029,0.0814,-0.0086,118,2019-08-07 16:58:07:164
2.7631,9.6114,0.6346,-0.2193,-0.0767,-0.0555,0.1029,0.0814,-0.0086,122,2019-08-07 16:58:07:168
2.7152,9.5636,0.512,-0.2193,-0.0767,-0.0555,0.0922,0.1198,-0.0235,128,2019-08-07 16:58:07:174
2.7152,9.5636,0.512,-0.2193,-0.0767,-0.0555,0.0922,0.1198,-0.0235,132,2019-08-07 16:58:07:178
2.5765,9.6639,0.7619,-0.1792,-0.1945,-0.1726,0.0986,0.1528,-0.0458,138,2019-08-07 16:58:07:184
2.5765,9.6639,0.7619,-0.1792,-0.1945,-0.1726,0.0986,0.1528,-0.0458,142,2019-08-07 16:58:07:188
2.5765,9.6639,0.7619,-0.0649,-0.2788,-0.234,0.1061,0.1443,-0.0384,147,2019-08-07 16:58:07:193
2.5812,9.745,0.7901,-0.0649,-0.2788,-0.234,0.1061,0.1443,-0.0384,153,2019-08-07 16:58:07:199
2.5812,9.745,0.7901,-0.0649,-0.2788,-0.234,0.1156,0.1123,-0.0373,157,2019-08-07 16:58:07:203
2.4616,9.6591,0.6911,-0.0649,-0.2788,-0.234,0.1156,0.1123,-0.0373,163,2019-08-07 16:58:07:209
2.4616,9.6591,0.6911,0.0459,-0.2136,-0.1154,0.121,0.1017,-0.032,168,2019-08-07 16:58:07:214
2.4616,9.6591,0.6911,0.0459,-0.2136,-0.1154,0.121,0.1017,-0.032,173,2019-08-07 16:58:07:219
2.3085,9.7116,0.7807,0.0459,-0.2136,-0.1154,0.1401,0.0964,-0.0277,177,2019-08-07 16:58:07:223
2.3085,9.7116,0.7807,0.0459,-0.2136,-0.1154,0.1401,0.0964,-0.0277,183,2019-08-07 16:58:07:229
2.3085,9.7116,0.7807,0.1385,-0.158,-0.2335,0.1476,0.0538,-0.0139,188,2019-08-07 16:58:07:234
2.3229,9.6591,0.8373,0.1385,-0.158,-0.2335,0.1476,0.0538,-0.0139,192,2019-08-07 16:58:07:238
2.3229,9.6591,0.8373,0.1385,-0.158,-0.2335,0.1508,-0.0102,0.0042,198,2019-08-07 16:58:07:244
2.4233,9.5875,0.776,0.1385,-0.158,-0.2335,0.1508,-0.0102,0.0042,203,2019-08-07 16:58:07:249
2.4233,9.5875,0.776,-0.0307,-0.1323,-0.2632,0.1508,-0.0102,0.0042,208,2019-08-07 16:58:07:254
2.4233,9.5875,0.776,-0.0307,-0.1323,-0.2632,0.17,-0.0059,0.0106,212,2019-08-07 16:58:07:258
2.6099,9.5875,0.6534,-0.0307,-0.1323,-0.2632,0.17,-0.0059,0.0106,218,2019-08-07 16:58:07:264
2.6099,9.5875,0.6534,-0.0307,-0.1323,-0.2632,0.203,0.0324,0.0128,223,2019-08-07 16:58:07:269
2.7295,9.5684,0.8278,-0.2956,-0.1362,-0.3572,0.203,0.0324,0.0128,228,2019-08-07 16:58:07:274
2.7295,9.5684,0.8278,-0.2956,-0.1362,-0.3572,0.2264,0.0548,0.0128,233,2019-08-07 16:58:07:279
2.7295,9.5684,0.8278,-0.2956,-0.1362,-0.3572,0.2264,0.0548,0.0128,237,2019-08-07 16:58:07:283
2.7056,9.5398,0.7336,-0.2956,-0.1362,-0.3572,0.2264,0.0548,0.0128,243,2019-08-07 16:58:07:289
2.7056,9.5398,0.7336,-0.1968,-0.0302,-0.2684,0.2499,0.0889,0.0032,247,2019-08-07 16:58:07:293
2.7056,9.5398,0.7336,-0.1968,-0.0302,-0.2684,0.2499,0.0889,0.0032,253,2019-08-07 16:58:07:299
2.7391,9.6114,0.743,-0.1968,-0.0302,-0.2684,0.2765,0.1081,-0.0011,258,2019-08-07 16:58:07:304
2.7391,9.6114,0.743,-0.1968,-0.0302,-0.2684,0.2765,0.1081,-0.0011,263,2019-08-07 16:58:07:309
2.7199,9.6209,0.644,-0.2544,-0.1333,-0.2666,0.2914,0.0857,-0.0149,268,2019-08-07 16:58:07:314
2.7199,9.6209,0.644,-0.2544,-0.1333,-0.2666,0.2914,0.0857,-0.0149,272,2019-08-07 16:58:07:318
2.7199,9.6209,0.644,-0.2544,-0.1333,-0.2666,0.3063,0.0687,-0.0299,278,2019-08-07 16:58:07:324
2.7534,9.6496,0.545,-0.2544,-0.1333,-0.2666,0.3063,0.0687,-0.0299,283,2019-08-07 16:58:07:329
2.7534,9.6496,0.545,-0.201,-0.0825,-0.0615,0.318,0.0591,-0.0352,287,2019-08-07 16:58:07:333
2.7534,9.6496,0.545,-0.201,-0.0825,-0.0615,0.318,0.0591,-0.0352,293,2019-08-07 16:58:07:339
2.6099,9.5302,0.4837,-0.201,-0.0825,-0.0615,0.3255,0.0474,-0.0341,297,2019-08-07 16:58:07:343
2.6099,9.5302,0.4837,-0.201,-0.0825,-0.0615,0.3255,0.0474,-0.0341,303,2019-08-07 16:58:07:349
2.6195,9.6209,0.5403,-0.1641,-0.1269,-0.2752,0.3255,0.0474,-0.0341,308,2019-08-07 16:58:07:354
2.6195,9.6209,0.5403,-0.1641,-0.1269,-0.2752,0.317,-0.0198,-0.0373,313,2019-08-07 16:58:07:359
2.6195,9.6209,0.5403,-0.1641,-0.1269,-0.2752,0.317,-0.0198,-0.0373,318,2019-08-07 16:58:07:364
2.6577,9.7068,0.0359,-0.1641,-0.1269,-0.2752,0.3116,-0.0272,-0.0373,322,2019-08-07 16:58:07:368
2.6577,9.7068,0.0359,-0.075,-0.348,0.308,0.3116,-0.0272,-0.0373,327,2019-08-07 16:58:07:373
2.4185,9.8596,-0.0961,-0.075,-0.348,0.308,0.3106,0.0197,-0.0426,333,2019-08-07 16:58:07:379
2.4185,9.8596,-0.0961,-0.075,-0.348,0.308,0.3106,0.0197,-0.0426,337,2019-08-07 16:58:07:383
2.4185,9.8596,-0.0961,-0.075,-0.348,0.308,0.2978,0.0293,-0.0341,344,2019-08-07 16:58:07:390
2.1219,9.9789,-0.2611,0.3606,-0.5068,0.4325,0.2978,0.0293,-0.0341,348,2019-08-07 16:58:07:394
2.1219,9.9789,-0.2611,0.3606,-0.5068,0.4325,0.268,-0.0134,-0.0267,352,2019-08-07 16:58:07:398
2.0405,10.0124,-0.5439,0.3606,-0.5068,0.4325,0.268,-0.0134,-0.0267,358,2019-08-07 16:58:07:404
2.0405,10.0124,-0.5439,0.3606,-0.5068,0.4325,0.2339,-0.0719,-0.0096,363,2019-08-07 16:58:07:409
2.0405,10.0124,-0.5439,0.3106,-0.4614,0.487,0.2339,-0.0719,-0.0096,368,2019-08-07 16:58:07:414
2.1649,9.9408,-0.4166,0.3106,-0.4614,0.487,0.2051,-0.1188,-0.0075,372,2019-08-07 16:58:07:418
2.1649,9.9408,-0.4166,0.3106,-0.4614,0.487,0.2051,-0.1188,-0.0075,377,2019-08-07 16:58:07:423
2.452,9.8548,-0.2705,0.3106,-0.4614,0.487,0.1774,-0.1401,-0.0011,383,2019-08-07 16:58:07:429
2.452,9.8548,-0.2705,-0.1268,-0.346,0.3187,0.1774,-0.1401,-0.0011,387,2019-08-07 16:58:07:433
2.452,9.8548,-0.2705,-0.1268,-0.346,0.3187,0.1561,-0.1369,-0.0054,393,2019-08-07 16:58:07:439
2.5955,9.788,-0.3553,-0.1268,-0.346,0.3187,0.1561,-0.1369,-0.0054,398,2019-08-07 16:58:07:444
2.5955,9.788,-0.3553,-0.1268,-0.346,0.3187,0.1444,-0.1007,-0.0022,403,2019-08-07 16:58:07:449
2.5429,9.8357,-0.2375,-0.1123,-0.3316,0.2436,0.1444,-0.1007,-0.0022,410,2019-08-07 16:58:07:456
2.5429,9.8357,-0.2375,-0.1123,-0.3316,0.2436,0.1444,-0.1007,-0.0022,413,2019-08-07 16:58:07:459
2.5429,9.8357,-0.2375,-0.1123,-0.3316,0.2436,0.1231,-0.0783,-0.0075,418,2019-08-07 16:58:07:464
2.5429,9.8357,-0.2375,-0.1123,-0.3316,0.2436,0.1231,-0.0783,-0.0075,422,2019-08-07 16:58:07:468
2.495,9.7832,-0.2186,-0.0464,-0.2979,0.1398,0.0997,-0.1103,-0.0032,428,2019-08-07 16:58:07:474
2.495,9.7832,-0.2186,-0.0464,-0.2979,0.1398,0.0997,-0.1103,-0.0032,433,2019-08-07 16:58:07:479
2.4998,9.8644,-0.1904,-0.0464,-0.2979,0.1398,0.0634,-0.1668,-0.0096,438,2019-08-07 16:58:07:484
2.4998,9.8644,-0.1904,-0.0464,-0.2979,0.1398,0.0634,-0.1668,-0.0096,443,2019-08-07 16:58:07:489
2.4998,9.8644,-0.1904,-0.0464,-0.2979,0.1398,0.0634,-0.1668,-0.0096,447,2019-08-07 16:58:07:493
2.605,9.8835,-0.3082,-0.1772,-0.3788,0.2636,0.0443,-0.1572,-0.0192,453,2019-08-07 16:58:07:499
2.605,9.8835,-0.3082,-0.1772,-0.3788,0.2636,0.0443,-0.1572,-0.0192,458,2019-08-07 16:58:07:504
2.4519,9.8835,-0.2234,-0.1772,-0.3788,0.2636,0.0379,-0.1295,-0.0267,463,2019-08-07 16:58:07:509
2.4519,9.8835,-0.2234,-0.1772,-0.3788,0.2636,0.0379,-0.1295,-0.0267,468,2019-08-07 16:58:07:514
2.4519,9.8835,-0.2234,0.0662,-0.3775,0.0697,0.024,-0.1007,-0.0277,472,2019-08-07 16:58:07:518
2.2462,9.8739,-0.1998,0.0662,-0.3775,0.0697,0.024,-0.1007,-0.0277,478,2019-08-07 16:58:07:524
2.2462,9.8739,-0.1998,0.0662,-0.3775,0.0697,0.0091,-0.0901,-0.0267,483,2019-08-07 16:58:07:529
2.074,9.7689,-0.1197,0.0662,-0.3775,0.0697,0.0091,-0.0901,-0.0267,488,2019-08-07 16:58:07:534
2.074,9.7689,-0.1197,0.3221,-0.2563,0.0668,-0.009,-0.1039,-0.0181,494,2019-08-07 16:58:07:540
2.074,9.7689,-0.1197,0.3221,-0.2563,0.0668,-0.009,-0.1039,-0.0181,497,2019-08-07 16:58:07:543
2.184,9.7785,-0.1904,0.3221,-0.2563,0.0668,-0.0292,-0.121,-0.0149,503,2019-08-07 16:58:07:549
2.184,9.7785,-0.1904,0.3221,-0.2563,0.0668,-0.0292,-0.121,-0.0149,507,2019-08-07 16:58:07:553
2.3849,9.8548,-0.3695,0.0921,-0.3362,0.1973,-0.0505,-0.0901,-0.0149,513,2019-08-07 16:58:07:559
2.3849,9.8548,-0.3695,0.0921,-0.3362,0.1973,-0.0505,-0.0901,-0.0149,518,2019-08-07 16:58:07:564
2.3849,9.8548,-0.3695,0.0921,-0.3362,0.1973,-0.074,0.0207,-0.0235,523,2019-08-07 16:58:07:569
2.4854,9.7832,-0.1479,0.0921,-0.3362,0.1973,-0.074,0.0207,-0.0235,528,2019-08-07 16:58:07:574
2.4854,9.7832,-0.1479,-0.1467,-0.2825,-0.0596,-0.0665,0.0942,-0.0267,532,2019-08-07 16:58:07:578
2.4854,9.7832,-0.1479,-0.1467,-0.2825,-0.0596,-0.0665,0.0942,-0.0267,538,2019-08-07 16:58:07:584
2.6528,9.8835,0.1726,-0.1467,-0.2825,-0.0596,-0.0836,0.0857,-0.0384,544,2019-08-07 16:58:07:590
2.6528,9.8835,0.1726,-0.1467,-0.2825,-0.0596,-0.0836,0.0857,-0.0384,547,2019-08-07 16:58:07:593
2.5524,9.7116,0.2433,-0.1293,-0.2664,-0.2832,-0.0793,0.0857,-0.0522,553,2019-08-07 16:58:07:599
2.5524,9.7116,0.2433,-0.1293,-0.2664,-0.2832,-0.0793,0.0857,-0.0522,557,2019-08-07 16:58:07:603
2.6337,9.6352,0.2009,-0.1293,-0.2664,-0.2832,-0.0591,0.1028,-0.0576,563,2019-08-07 16:58:07:609
2.6337,9.6352,0.2009,-0.1293,-0.2664,-0.2832,-0.0591,0.1028,-0.0576,568,2019-08-07 16:58:07:614
2.6337,9.6352,0.2009,-0.2583,-0.3451,-0.4901,-0.0612,0.0836,-0.065,573,2019-08-07 16:58:07:619
2.7102,10.0744,0.6345,-0.2583,-0.3451,-0.4901,-0.0612,0.0836,-0.065,578,2019-08-07 16:58:07:624
2.7102,10.0744,0.6345,-0.2583,-0.3451,-0.4901,-0.0697,0.0314,-0.0757,583,2019-08-07 16:58:07:629
2.7102,10.0744,0.6345,-0.2583,-0.3451,-0.4901,-0.0697,0.0314,-0.0757,588,2019-08-07 16:58:07:634
2.3419,10.4468,1.4642,0.034,-0.9288,-1.4585,-0.0591,-0.1082,-0.0607,593,2019-08-07 16:58:07:639
2.3419,10.4468,1.4642,0.034,-0.9288,-1.4585,-0.0591,-0.1082,-0.0607,597,2019-08-07 16:58:07:643
1.916,9.8787,1.351,0.034,-0.9288,-1.4585,-0.0537,-0.3862,-0.0277,603,2019-08-07 16:58:07:649
1.916,9.8787,1.351,0.034,-0.9288,-1.4585,-0.0537,-0.3862,-0.0277,607,2019-08-07 16:58:07:653
1.916,9.8787,1.351,0.3403,0.1715,-0.5584,-0.075,-0.6419,-0.0128,613,2019-08-07 16:58:07:659
2.2127,9.0767,0.5261,0.3403,0.1715,-0.5584,-0.075,-0.6419,-0.0128,618,2019-08-07 16:58:07:664
2.2127,9.0767,0.5261,0.3403,0.1715,-0.5584,-0.0378,-0.7228,-0.048,623,2019-08-07 16:58:07:669
2.2127,9.0767,0.5261,0.3403,0.1715,-0.5584,-0.0378,-0.7228,-0.048,628,2019-08-07 16:58:07:674
2.8633,8.9717,0.0924,-0.6607,0.5358,-0.1952,0.0421,-0.6429,-0.0842,632,2019-08-07 16:58:07:678
2.8633,8.9717,0.0924,-0.6607,0.5358,-0.1952,0.0421,-0.6429,-0.0842,638,2019-08-07 16:58:07:684
3.1743,8.9908,0.5026,-0.6607,0.5358,-0.1952,0.1338,-0.4821,-0.1332,643,2019-08-07 16:58:07:689
3.1743,8.9908,0.5026,-0.6607,0.5358,-0.1952,0.1338,-0.4821,-0.1332,648,2019-08-07 16:58:07:694
3.1743,8.9908,0.5026,-0.7648,0.3873,-0.9593,0.1338,-0.4821,-0.1332,653,2019-08-07 16:58:07:699
3.0547,9.2724,1.285,-0.7648,0.3873,-0.9593,0.2754,-0.2339,-0.2014,657,2019-08-07 16:58:07:703
3.0547,9.2724,1.285,-0.7648,0.3873,-0.9593,0.2754,-0.2339,-0.2014,663,2019-08-07 16:58:07:709
3.0547,9.2724,1.285,-0.7648,0.3873,-0.9593,0.3915,-0.1518,-0.2482,668,2019-08-07 16:58:07:714
3.1073,9.6925,2.5059,-0.8374,-0.2052,-2.7262,0.3915,-0.1518,-0.2482,673,2019-08-07 16:58:07:719
3.1073,9.6925,2.5059,-0.8374,-0.2052,-2.7262,0.5151,-0.2062,-0.2866,678,2019-08-07 16:58:07:724
3.27,9.8835,2.3174,-0.8374,-0.2052,-2.7262,0.5151,-0.2062,-0.2866,683,2019-08-07 16:58:07:729
3.27,9.8835,2.3174,-0.8374,-0.2052,-2.7262,0.6398,-0.1966,-0.3281,688,2019-08-07 16:58:07:734
3.27,9.8835,2.3174,-0.9932,-0.5615,-2.5767,0.6398,-0.1966,-0.3281,693,2019-08-07 16:58:07:739
3.2317,10.2081,2.5813,-0.9932,-0.5615,-2.5767,0.7825,-0.1316,-0.3857,698,2019-08-07 16:58:07:744
3.2317,10.2081,2.5813,-0.9932,-0.5615,-2.5767,0.7825,-0.1316,-0.3857,702,2019-08-07 16:58:07:748
3.2317,10.2081,2.5813,-0.9932,-0.5615,-2.5767,0.9561,-0.2616,-0.392,708,2019-08-07 16:58:07:754
2.7628,10.7428,2.8736,-0.4971,-1.3323,-3.4061,0.9561,-0.2616,-0.392,713,2019-08-07 16:58:07:759
2.7628,10.7428,2.8736,-0.4971,-1.3323,-3.4061,1.0627,-0.4256,-0.3697,718,2019-08-07 16:58:07:764
2.6097,11.4875,3.7928,-0.4971,-1.3323,-3.4061,1.0627,-0.4256,-0.3697,723,2019-08-07 16:58:07:769
2.6097,11.4875,3.7928,-0.4971,-1.3323,-3.4061,1.1447,-0.6568,-0.3356,728,2019-08-07 16:58:07:774
2.6097,11.4875,3.7928,-0.5134,-2.4289,-5.2379,1.1447,-0.6568,-0.3356,733,2019-08-07 16:58:07:779
2.5714,12.0365,4.8817,-0.5134,-2.4289,-5.2379,1.1447,-0.6568,-0.3356,738,2019-08-07 16:58:07:784
2.5714,12.0365,4.8817,-0.5134,-2.4289,-5.2379,1.1404,-1.133,-0.2248,744,2019-08-07 16:58:07:790
3.6479,12.0174,4.5706,-0.5134,-2.4289,-5.2379,1.1404,-1.133,-0.2248,748,2019-08-07 16:58:07:794
3.6479,12.0174,4.5706,-0.5134,-2.4289,-5.2379,1.0573,-1.4344,-0.2418,752,2019-08-07 16:58:07:798
3.6479,12.0174,4.5706,-1.7452,-2.4521,-5.3526,1.0573,-1.4344,-0.2418,758,2019-08-07 16:58:07:804
3.7244,12.5807,4.0002,-1.7452,-2.4521,-5.3526,0.9668,-1.5143,-0.3409,762,2019-08-07 16:58:07:808
3.7244,12.5807,4.0002,-1.7452,-2.4521,-5.3526,0.9668,-1.5143,-0.3409,768,2019-08-07 16:58:07:814
3.667,12.4566,5.9658,-1.7119,-2.898,-6.9894,0.7814,-1.5303,-0.3643,773,2019-08-07 16:58:07:819
3.667,12.4566,5.9658,-1.7119,-2.898,-6.9894,0.7814,-1.5303,-0.3643,778,2019-08-07 16:58:07:824
3.667,12.4566,5.9658,-1.7119,-2.898,-6.9894,0.5801,-1.5601,-0.3633,782,2019-08-07 16:58:07:828
3.1455,11.5257,7.3187,-1.7119,-2.898,-6.9894,0.5801,-1.5601,-0.3633,788,2019-08-07 16:58:07:834
3.1455,11.5257,7.3187,-1.7119,-2.898,-6.9894,0.3969,-1.5196,-0.3026,792,2019-08-07 16:58:07:838
3.1455,11.5257,7.3187,-0.7995,-2.0093,-8.8645,0.3969,-1.5196,-0.3026,797,2019-08-07 16:58:07:843
2.7054,11.2345,7.6911,-0.7995,-2.0093,-8.8645,0.3969,-1.5196,-0.3026,803,2019-08-07 16:58:07:849
2.7054,11.2345,7.6911,-0.7995,-2.0093,-8.8645,0.0347,-1.1788,-0.0576,808,2019-08-07 16:58:07:854
3.6622,10.4325,7.7382,-0.7995,-2.0093,-8.8645,0.0347,-1.1788,-0.0576,813,2019-08-07 16:58:07:859
3.6622,10.4325,7.7382,-1.9704,-0.6805,-8.9552,-0.3286,-0.8166,0.1608,818,2019-08-07 16:58:07:864
3.6622,10.4325,7.7382,-1.9704,-0.6805,-8.9552,-0.3286,-0.8166,0.1608,823,2019-08-07 16:58:07:869
3.8153,9.6639,8.2049,-1.9704,-0.6805,-8.9552,-0.8154,-0.2999,0.2982,828,2019-08-07 16:58:07:874
3.8153,9.6639,8.2049,-1.9704,-0.6805,-8.9552,-0.8154,-0.2999,0.2982,833,2019-08-07 16:58:07:879
4.1933,10.2702,9.2184,-2.1521,-0.5145,-10.046,-0.8154,-0.2999,0.2982,837,2019-08-07 16:58:07:883
4.1933,10.2702,9.2184,-2.1521,-0.5145,-10.046,-1.282,-0.0485,0.4207,843,2019-08-07 16:58:07:889
4.1933,10.2702,9.2184,-2.1521,-0.5145,-10.046,-1.282,-0.0485,0.4207,847,2019-08-07 16:58:07:893
5.1026,10.738,8.1248,-3.1191,-1.2423,-8.0577,-1.5472,0.0942,0.4719,853,2019-08-07 16:58:07:899
5.1026,10.738,8.1248,-3.1191,-1.2423,-8.0577,-1.5472,0.0942,0.4719,858,2019-08-07 16:58:07:904
5.1026,10.738,8.1248,-3.1191,-1.2423,-8.0577,-1.5472,0.0942,0.4719,863,2019-08-07 16:58:07:909
4.0214,10.9528,6.2252,-3.1191,-1.2423,-8.0577,-1.7635,0.9443,0.4868,868,2019-08-07 16:58:07:914
4.0214,10.9528,6.2252,-3.1191,-1.2423,-8.0577,-1.7635,0.9443,0.4868,873,2019-08-07 16:58:07:919
2.8636,10.8525,6.0413,-1.0695,-1.3035,-6.3174,-1.8871,1.4152,0.4729,878,2019-08-07 16:58:07:924
2.8636,10.8525,6.0413,-1.0695,-1.3035,-6.3174,-1.8871,1.4152,0.4729,883,2019-08-07 16:58:07:929
2.8636,10.8525,6.0413,-1.0695,-1.3035,-6.3174,-2.033,1.6804,0.4431,888,2019-08-07 16:58:07:934
1.4714,10.6329,5.3861,-1.0695,-1.3035,-6.3174,-2.033,1.6804,0.4431,894,2019-08-07 16:58:07:940
1.4714,10.6329,5.3861,0.8042,-1.0596,-4.9858,-2.1246,1.8114,0.4176,898,2019-08-07 16:58:07:944
1.4714,10.6329,5.3861,0.8042,-1.0596,-4.9858,-2.1246,1.8114,0.4176,902,2019-08-07 16:58:07:948
0.9929,10.3322,5.0986,0.8042,-1.0596,-4.9858,-2.1246,1.8114,0.4176,908,2019-08-07 16:58:07:954
0.9929,10.3322,5.0986,0.8042,-1.0596,-4.9858,-2.1747,1.9254,0.3792,913,2019-08-07 16:58:07:959
0.5241,9.9646,4.943,1.5497,-0.4543,-4.2664,-2.1747,1.9254,0.3792,918,2019-08-07 16:58:07:964
0.5241,9.9646,4.943,1.5497,-0.4543,-4.2664,-2.2152,1.8711,0.3206,922,2019-08-07 16:58:07:968
0.5241,9.9646,4.943,1.5497,-0.4543,-4.2664,-2.2152,1.8711,0.3206,927,2019-08-07 16:58:07:973
-0.0022,10.0744,4.811,1.5497,-0.4543,-4.2664,-2.2897,1.6676,0.2354,933,2019-08-07 16:58:07:979
-0.0022,10.0744,4.811,2.2157,-0.8099,-3.3405,-2.2897,1.6676,0.2354,937,2019-08-07 16:58:07:983
-0.0022,10.0744,4.811,2.2157,-0.8099,-3.3405,-2.343,1.3033,0.1385,943,2019-08-07 16:58:07:989
0.0265,11.0292,5.2023,2.2157,-0.8099,-3.3405,-2.343,1.3033,0.1385,948,2019-08-07 16:58:07:994
0.0265,11.0292,5.2023,2.2157,-0.8099,-3.3405,-2.3419,0.7217,0.0703,953,2019-08-07 16:58:07:999
0.7585,11.3777,3.1376,1.4316,-1.9915,-1.3103,-2.3419,0.7217,0.0703,957,2019-08-07 16:58:08:003
0.7585,11.3777,3.1376,1.4316,-1.9915,-1.3103,-2.4197,0.237,0.0064,963,2019-08-07 16:58:08:009
0.7585,11.3777,3.1376,1.4316,-1.9915,-1.3103,-2.4197,0.237,0.0064,967,2019-08-07 16:58:08:013
2.4904,11.0865,1.879,1.4316,-1.9915,-1.3103,-2.4527,0.0346,-0.0735,973,2019-08-07 16:58:08:019
2.4904,11.0865,1.879,-0.9315,-1.89,0.9733,-2.4527,0.0346,-0.0735,977,2019-08-07 16:58:08:023
3.3276,11.0005,0.446,-0.9315,-1.89,0.9733,-2.3931,0.0378,-0.0586,983,2019-08-07 16:58:08:029
3.3276,11.0005,0.446,-0.9315,-1.89,0.9733,-2.3931,0.0378,-0.0586,988,2019-08-07 16:58:08:034
3.3276,11.0005,0.446,-0.9315,-1.89,0.9733,-2.3675,0.2583,0.0223,993,2019-08-07 16:58:08:039
3.9974,9.6448,-1.1001,-1.818,-0.2736,3.8356,-2.3675,0.2583,0.0223,997,2019-08-07 16:58:08:043
3.9974,9.6448,-1.1001,-1.818,-0.2736,3.8356,-2.3675,0.2583,0.0223,1003,2019-08-07 16:58:08:049
3.9974,9.6448,-1.1001,-1.818,-0.2736,3.8356,-2.2663,0.8112,-0.0458,1008,2019-08-07 16:58:08:054
3.452,8.9669,-0.6429,-1.818,-0.2736,3.8356,-2.2663,0.8112,-0.0458,1013,2019-08-07 16:58:08:059
3.452,8.9669,-0.6429,-0.6698,0.1917,3.1055,-2.1747,1.0242,-0.0682,1017,2019-08-07 16:58:08:063
2.677,8.7377,0.1679,-0.6698,0.1917,3.1055,-2.1747,1.0242,-0.0682,1023,2019-08-07 16:58:08:069
2.677,8.7377,0.1679,-0.6698,0.1917,3.1055,-2.0415,0.8314,0.0479,1028,2019-08-07 16:58:08:074
2.677,8.7377,0.1679,-0.6698,0.1917,3.1055,-2.0415,0.8314,0.0479,1033,2019-08-07 16:58:08:079
2.7296,8.0217,-0.393,-0.5419,1.053,4.0035,-1.9222,0.7419,0.0895,1038,2019-08-07 16:58:08:084
2.7296,8.0217,-0.393,-0.5419,1.053,4.0035,-1.9222,0.7419,0.0895,1044,2019-08-07 16:58:08:090
2.4665,7.5109,-0.4637,-0.5419,1.053,4.0035,-1.7496,0.8655,0.1395,1048,2019-08-07 16:58:08:094
2.4665,7.5109,-0.4637,-0.5419,1.053,4.0035,-1.7496,0.8655,0.1395,1052,2019-08-07 16:58:08:098
2.4665,7.5109,-0.4637,-0.5352,1.6975,4.7128,-1.4982,0.9688,0.2269,1058,2019-08-07 16:58:08:104
2.5717,7.0478,-0.9681,-0.5352,1.6975,4.7128,-1.4982,0.9688,0.2269,1062,2019-08-07 16:58:08:108
2.5717,7.0478,-0.9681,-0.5352,1.6975,4.7128,-1.3139,1.0125,0.2748,1068,2019-08-07 16:58:08:114
2.7105,6.728,-1.529,-0.5352,1.6975,4.7128,-1.3139,1.0125,0.2748,1072,2019-08-07 16:58:08:118
2.7105,6.728,-1.529,-0.8786,2.0377,6.0918,-1.3139,1.0125,0.2748,1078,2019-08-07 16:58:08:124
2.7105,6.728,-1.529,-0.8786,2.0377,6.0918,-1.1328,1.086,0.327,1083,2019-08-07 16:58:08:129
3.1745,6.642,-2.2078,-0.8786,2.0377,6.0918,-1.1328,1.086,0.327,1087,2019-08-07 16:58:08:133
3.1745,6.642,-2.2078,-0.8786,2.0377,6.0918,-0.8868,1.2756,0.3749,1093,2019-08-07 16:58:08:139
1.9211,7.4536,-4.395,0.1034,1.1547,8.6417,-0.8868,1.2756,0.3749,1098,2019-08-07 16:58:08:144
1.9211,7.4536,-4.395,0.1034,1.1547,8.6417,-0.7259,1.7156,0.4474,1103,2019-08-07 16:58:08:149
1.9211,7.4536,-4.395,0.1034,1.1547,8.6417,-0.7259,1.7156,0.4474,1108,2019-08-07 16:58:08:154
1.9737,5.8018,-5.1493,0.1034,1.1547,8.6417,-0.7185,2.3057,0.2961,1113,2019-08-07 16:58:08:159
1.9737,5.8018,-5.1493,0.1034,1.1547,8.6417,-0.7185,2.3057,0.2961,1118,2019-08-07 16:58:08:164
-0.8012,5.9976,-2.4341,1.7991,2.9911,4.8728,-0.3232,2.2077,-0.0959,1123,2019-08-07 16:58:08:169
-0.8012,5.9976,-2.4341,1.7991,2.9911,4.8728,-0.3232,2.2077,-0.0959,1128,2019-08-07 16:58:08:174
-0.8012,5.9976,-2.4341,1.7991,2.9911,4.8728,-0.2199,1.6453,0.0128,1133,2019-08-07 16:58:08:179
1.6436,5.6873,-5.2058,-0.0721,2.853,9.3713,-0.2199,1.6453,0.0128,1137,2019-08-07 16:58:08:183
1.6436,5.6873,-5.2058,-0.0721,2.853,9.3713,-0.2199,1.6453,0.0128,1143,2019-08-07 16:58:08:189
1.6436,5.6873,-5.2058,-0.0721,2.853,9.3713,-0.1858,1.2564,-0.0916,1147,2019-08-07 16:58:08:193
0.6676,5.7398,-4.5317,-0.0721,2.853,9.3713,-0.1858,1.2564,-0.0916,1153,2019-08-07 16:58:08:199
0.6676,5.7398,-4.5317,-0.0721,2.853,9.3713,0.2307,1.2788,-0.1556,1158,2019-08-07 16:58:08:204
0.792,4.8948,-6.6105,1.0379,3.6997,10.8078,0.2307,1.2788,-0.1556,1163,2019-08-07 16:58:08:209
0.792,4.8948,-6.6105,1.0379,3.6997,10.8078,0.4672,1.4919,-0.1577,1167,2019-08-07 16:58:08:213
0.792,4.8948,-6.6105,1.0379,3.6997,10.8078,0.4672,1.4919,-0.1577,1173,2019-08-07 16:58:08:219
1.1556,4.8519,-1.1142,1.0379,3.6997,10.8078,0.6142,0.808,-0.0948,1177,2019-08-07 16:58:08:223
1.1556,4.8519,-1.1142,0.6326,4.1893,5.6964,0.6142,0.808,-0.0948,1183,2019-08-07 16:58:08:229
1.1556,4.8519,-1.1142,0.6326,4.1893,5.6964,0.5918,-0.1529,-0.0554,1187,2019-08-07 16:58:08:233
1.9019,4.5988,1.4736,0.6326,4.1893,5.6964,0.5918,-0.1529,-0.0554,1193,2019-08-07 16:58:08:239
1.9019,4.5988,1.4736,0.6326,4.1893,5.6964,1.1085,-0.872,-0.1257,1198,2019-08-07 16:58:08:244
5.4853,7.7305,5.5087,-2.5918,2.6265,0.5009,1.1085,-0.872,-0.1257,1202,2019-08-07 16:58:08:248
5.4853,7.7305,5.5087,-2.5918,2.6265,0.5009,1.1085,-0.872,-0.1257,1208,2019-08-07 16:58:08:254
5.4853,7.7305,5.5087,-7.6321,-7.23,-36.0787,0.8496,-2.162,-0.1566,1213,2019-08-07 16:58:08:259
5.2892,13.5927,53.1935,-7.6321,-7.23,-36.0787,0.8496,-2.162,-0.1566,1217,2019-08-07 16:58:08:263
5.2892,13.5927,53.1935,-7.6321,-7.23,-36.0787,2.1801,-3.1069,-0.31,1223,2019-08-07 16:58:08:269
-0.2223,25.4604,-12.2624,-7.6321,-7.23,-36.0787,2.1801,-3.1069,-0.31,1228,2019-08-07 16:58:08:274
-0.2223,25.4604,-12.2624,2.2609,-21.18,15.7815,2.6329,0.0388,-0.3026,1233,2019-08-07 16:58:08:279
-0.2223,25.4604,-12.2624,2.2609,-21.18,15.7815,2.6329,0.0388,-0.3026,1237,2019-08-07 16:58:08:283
-0.2223,25.4604,-12.2624,2.2609,-21.18,15.7815,2.6329,0.0388,-0.3026,1243,2019-08-07 16:58:08:289
1.8302,32.7787,-17.1883,2.2609,-21.18,15.7815,4.1008,1.8881,-0.2397,1248,2019-08-07 16:58:08:294
1.8302,32.7787,-17.1883,2.7356,-15.2927,26.4164,4.1008,1.8881,-0.2397,1253,2019-08-07 16:58:08:299
-2.5905,26.7732,-23.5614,2.7356,-15.2927,26.4164,4.6771,3.3816,0.1278,1258,2019-08-07 16:58:08:304
-2.5905,26.7732,-23.5614,4.476,-24.3509,32.9525,4.6771,3.3816,0.1278,1263,2019-08-07 16:58:08:309
-2.5905,26.7732,-23.5614,4.476,-24.3509,32.9525,0.741,2.2333,1.1622,1267,2019-08-07 16:58:08:313
-0.6194,20.171,58.737,4.476,-24.3509,32.9525,0.741,2.2333,1.1622,1273,2019-08-07 16:58:08:319
-0.6194,20.171,58.737,4.476,-24.3509,32.9525,1.9404,-8.6441,0.7755,1278,2019-08-07 16:58:08:324
-6.8341,-4.5192,-9.2503,8.5939,13.9109,11.4715,1.9404,-8.6441,0.7755,1283,2019-08-07 16:58:08:329
-6.8341,-4.5192,-9.2503,8.5939,13.9109,11.4715,4.4577,-1.0275,0.3622,1288,2019-08-07 16:58:08:334
-6.8341,-4.5192,-9.2503,8.5939,13.9109,11.4715,4.4577,-1.0275,0.3622,1292,2019-08-07 16:58:08:338
13.1257,-8.9827,-27.3419,8.5939,13.9109,11.4715,2.0928,-0.5524,0.0213,1298,2019-08-07 16:58:08:344
13.1257,-8.9827,-27.3419,-7.2345,13.696,19.1605,2.0928,-0.5524,0.0213,1303,2019-08-07 16:58:08:349
13.1257,-8.9827,-27.3419,-7.2345,13.696,19.1605,2.0928,-0.5524,0.0213,1308,2019-08-07 16:58:08:354
8.9491,9.3774,4.7073,-7.2345,13.696,19.1605,-0.4905,-1.2054,0.5752,1313,2019-08-07 16:58:08:359
8.9491,9.3774,4.7073,-7.2345,13.696,19.1605,-0.4905,-1.2054,0.5752,1317,2019-08-07 16:58:08:363
-1.1744,27.327,-5.2247,-0.0702,-20.1746,15.5656,0.5982,1.5377,-0.1161,1323,2019-08-07 16:58:08:369
-1.1744,27.327,-5.2247,-0.0702,-20.1746,15.5656,0.5982,1.5377,-0.1161,1327,2019-08-07 16:58:08:373
-1.1744,27.327,-5.2247,-0.0702,-20.1746,15.5656,1.4547,2.0543,-0.048,1333,2019-08-07 16:58:08:379
-1.5906,14.2133,1.1814,-0.0702,-20.1746,15.5656,1.4547,2.0543,-0.048,1338,2019-08-07 16:58:08:384
-1.5906,14.2133,1.1814,2.0706,0.6787,6.9764,0.9295,-0.1497,0.3664,1343,2019-08-07 16:58:08:389
-1.5906,14.2133,1.1814,2.0706,0.6787,6.9764,0.9295,-0.1497,0.3664,1348,2019-08-07 16:58:08:394
3.4185,5.8066,0.8703,2.0706,0.6787,6.9764,0.9295,-0.1497,0.3664,1352,2019-08-07 16:58:08:398
3.4185,5.8066,0.8703,2.0706,0.6787,6.9764,0.2669,-1.8392,0.0873,1358,2019-08-07 16:58:08:404
2.7296,9.7975,-1.4866,-0.7096,-0.261,2.5865,0.2669,-1.8392,0.0873,1362,2019-08-07 16:58:08:408
2.7296,9.7975,-1.4866,-0.7096,-0.261,2.5865,0.1817,-0.7889,0.0895,1368,2019-08-07 16:58:08:414
2.7296,9.7975,-1.4866,-0.7096,-0.261,2.5865,0.1817,-0.7889,0.0895,1373,2019-08-07 16:58:08:419
2.8588,10.8,-6.9028,-0.7096,-0.261,2.5865,0.2967,1.2618,0.0692,1378,2019-08-07 16:58:08:424
2.8588,10.8,-6.9028,1.1684,-0.5326,-3.1685,0.2967,1.2618,0.0692,1383,2019-08-07 16:58:08:429
2.8588,10.8,-6.9028,1.1684,-0.5326,-3.1685,0.2488,1.1116,0.0639,1387,2019-08-07 16:58:08:433
-0.1745,10.1365,-1.3452,1.1684,-0.5326,-3.1685,0.2488,1.1116,0.0639,1393,2019-08-07 16:58:08:439
-0.1745,10.1365,-1.3452,1.1684,-0.5326,-3.1685,-0.3264,-0.1316,0.1864,1398,2019-08-07 16:58:08:444
1.9976,10.7809,0.1255,0.0269,-1.2403,0.9298,-0.3264,-0.1316,0.1864,1402,2019-08-07 16:58:08:448
1.9976,10.7809,0.1255,0.0269,-1.2403,0.9298,-0.3264,-0.1316,0.1864,1408,2019-08-07 16:58:08:454
1.9976,10.7809,0.1255,0.0269,-1.2403,0.9298,-0.7291,-1.0893,0.1992,1412,2019-08-07 16:58:08:458
3.4281,10.8382,-3.3392,0.0269,-1.2403,0.9298,-0.7291,-1.0893,0.1992,1418,2019-08-07 16:58:08:464
3.4281,10.8382,-3.3392,-2.5403,-1.5909,6.3963,-0.7249,0.1155,0.0969,1423,2019-08-07 16:58:08:469
5.2844,10.9337,-4.1264,-2.5403,-1.5909,6.3963,-0.7249,0.1155,0.0969,1428,2019-08-07 16:58:08:474
5.2844,10.9337,-4.1264,-2.5403,-1.5909,6.3963,-0.8612,0.8186,0.0032,1433,2019-08-07 16:58:08:479
5.2844,10.9337,-4.1264,-2.5403,-1.5909,6.3963,-0.8612,0.8186,0.0032,1437,2019-08-07 16:58:08:483
5.0978,10.5518,-2.6651,-2.6798,-1.2689,4.0279,-1.1062,0.7632,-0.1524,1443,2019-08-07 16:58:08:489
5.0978,10.5518,-2.6651,-2.6798,-1.2689,4.0279,-1.1062,0.7632,-0.1524,1448,2019-08-07 16:58:08:494
3.4711,12.7382,-0.9587,-2.6798,-1.2689,4.0279,-1.1062,0.7632,-0.1524,1452,2019-08-07 16:58:08:498
3.4711,12.7382,-0.9587,-2.6798,-1.2689,4.0279,-1.7869,0.5139,-0.3569,1458,2019-08-07 16:58:08:504
3.4711,12.7382,-0.9587,-2.6798,-1.2689,4.0279,-1.7869,0.5139,-0.3569,1463,2019-08-07 16:58:08:509
1.4857,6.1933,-7.591,1.2326,3.9297,3.5156,-1.9968,0.4223,-0.5263,1468,2019-08-07 16:58:08:514
1.4857,6.1933,-7.591,1.2326,3.9297,3.5156,-1.9968,0.4223,-0.5263,1472,2019-08-07 16:58:08:518
1.4857,6.1933,-7.591,1.2326,3.9297,3.5156,-1.6388,0.3989,-0.5305,1478,2019-08-07 16:58:08:524
5.9446,14.8673,-11.0038,1.2326,3.9297,3.5156,-1.6388,0.3989,-0.5305,1482,2019-08-07 16:58:08:528
5.9446,14.8673,-11.0038,-3.6164,-4.3891,14.1749,-3.3582,-1.1979,-0.6158,1488,2019-08-07 16:58:08:534
2.9975,8.733,3.0339,-3.6164,-4.3891,14.1749,-3.3582,-1.1979,-0.6158,1493,2019-08-07 16:58:08:539
2.9975,8.733,3.0339,-3.6164,-4.3891,14.1749,-3.3582,-1.1979,-0.6158,1498,2019-08-07 16:58:08:544
2.9975,8.733,3.0339,-3.6164,-4.3891,14.1749,-2.7776,-0.8837,-0.6722,1502,2019-08-07 16:58:08:548
1.6866,13.3015,-11.1829,0.0896,-2.7304,12.776,-2.7776,-0.8837,-0.6722,1508,2019-08-07 16:58:08:554
1.6866,13.3015,-11.1829,0.0896,-2.7304,12.776,-2.5827,0.8175,-0.5508,1512,2019-08-07 16:58:08:558
0.5384,17.0012,1.6528,0.0896,-2.7304,12.776,-2.5827,0.8175,-0.5508,1518,2019-08-07 16:58:08:564
0.5384,17.0012,1.6528,0.0896,-2.7304,12.776,-3.1814,0.8964,0.0138,1522,2019-08-07 16:58:08:568
0.5384,17.0012,1.6528,0.9404,-6.5472,6.9784,-3.1814,0.8964,0.0138,1528,2019-08-07 16:58:08:574
0.3518,18.7246,3.9578,0.9404,-6.5472,6.9784,-3.0024,0.3531,0.0351,1533,2019-08-07 16:58:08:579
0.3518,18.7246,3.9578,0.9404,-6.5472,6.9784,-3.0024,0.3531,0.0351,1538,2019-08-07 16:58:08:584
0.3518,18.7246,3.9578,0.9404,-6.5472,6.9784,-3.0024,0.3531,0.0351,1543,2019-08-07 16:58:08:589
1.1508,13.9889,-1.0435,0.5541,-4.9889,4.5548,-3.0248,-0.2339,0.3483,1548,2019-08-07 16:58:08:594
1.1508,13.9889,-1.0435,0.5541,-4.9889,4.5548,-3.0248,-0.2339,0.3483,1553,2019-08-07 16:58:08:599
6.5426,8.6996,1.5443,0.5541,-4.9889,4.5548,-2.7893,0.858,0.3973,1557,2019-08-07 16:58:08:603
6.5426,8.6996,1.5443,0.5541,-4.9889,4.5548,-2.7893,0.858,0.3973,1563,2019-08-07 16:58:08:609
6.5426,8.6996,1.5443,-4.4724,-0.5046,-1.5954,-2.7457,1.2916,-0.0267,1568,2019-08-07 16:58:08:614
3.8443,11.4875,5.2164,-4.4724,-0.5046,-1.5954,-2.7457,1.2916,-0.0267,1572,2019-08-07 16:58:08:618
3.8443,11.4875,5.2164,-4.4724,-0.5046,-1.5954,-2.4325,0.793,-0.0331,1578,2019-08-07 16:58:08:624
-1.959,13.7312,5.042,-4.4724,-0.5046,-1.5954,-2.4325,0.793,-0.0331,1582,2019-08-07 16:58:08:628
-1.959,13.7312,5.042,4.0081,-4.3497,-1.531,-1.9435,0.2103,0.3472,1588,2019-08-07 16:58:08:634
-1.959,13.7312,5.042,4.0081,-4.3497,-1.531,-1.9435,0.2103,0.3472,1593,2019-08-07 16:58:08:639
-1.9111,8.1506,4.3962,4.0081,-4.3497,-1.531,-1.331,-1.1383,0.4676,1598,2019-08-07 16:58:08:644
-1.9111,8.1506,4.3962,4.0081,-4.3497,-1.531,-1.331,-1.1383,0.4676,1603,2019-08-07 16:58:08:649
-1.9111,8.1506,4.3962,2.0313,2.4554,6.5867,-1.331,-1.1383,0.4676,1607,2019-08-07 16:58:08:653
0.1987,5.334,-3.5796,2.0313,2.4554,6.5867,-0.8143,-2.6062,0.5635,1613,2019-08-07 16:58:08:659
0.1987,5.334,-3.5796,2.0313,2.4554,6.5867,-0.8143,-2.6062,0.5635,1618,2019-08-07 16:58:08:664
0.1987,5.334,-3.5796,2.0313,2.4554,6.5867,0.3191,-3.9442,0.2642,1623,2019-08-07 16:58:08:669
3.3037,5.7446,-2.6651,-1.1528,2.6402,7.2809,0.3191,-3.9442,0.2642,1628,2019-08-07 16:58:08:674
3.3037,5.7446,-2.6651,-1.1528,2.6402,7.2809,0.905,-4.4821,-0.0086,1633,2019-08-07 16:58:08:679
3.3037,5.7446,-2.6651,-1.1528,2.6402,7.2809,0.905,-4.4821,-0.0086,1638,2019-08-07 16:58:08:684
1.7392,8.1744,-7.7466,-1.1528,2.6402,7.2809,1.4142,-3.0323,-0.1556,1643,2019-08-07 16:58:08:689
1.7392,8.1744,-7.7466,-0.2179,-0.2334,15.2359,1.4142,-3.0323,-0.1556,1648,2019-08-07 16:58:08:694
5.3178,9.2008,-7.2893,-0.2179,-0.2334,15.2359,1.4962,-1.3524,-0.1651,1653,2019-08-07 16:58:08:699
5.3178,9.2008,-7.2893,-0.2179,-0.2334,15.2359,1.4962,-1.3524,-0.1651,1657,2019-08-07 16:58:08:703
5.3178,9.2008,-7.2893,-0.2179,-0.2334,15.2359,1.4962,-1.3524,-0.1651,1664,2019-08-07 16:58:08:710
5.7101,8.2174,0.38,-3.0293,0.462,5.1936,2.1301,-0.5822,-0.2024,1667,2019-08-07 16:58:08:713
5.7101,8.2174,0.38,-3.0293,0.462,5.1936,2.1301,-0.5822,-0.2024,1673,2019-08-07 16:58:08:719
5.7101,8.2174,0.38,-3.0293,0.462,5.1936,2.2313,-0.7441,-0.2877,1677,2019-08-07 16:58:08:723
3.3802,9.8357,-2.1513,-3.0293,0.462,5.1936,2.2313,-0.7441,-0.2877,1682,2019-08-07 16:58:08:728
3.3802,9.8357,-2.1513,0.3627,-0.7736,5.9465,2.2313,-0.7441,-0.2877,1688,2019-08-07 16:58:08:734
3.3802,9.8357,-2.1513,0.3627,-0.7736,5.9465,2.5061,-0.1231,-0.3388,1692,2019-08-07 16:58:08:738
2.1698,9.9407,-3.5984,0.4393,-1.1482,5.968,2.5061,-0.1231,-0.3388,1698,2019-08-07 16:58:08:744
2.1698,9.9407,-3.5984,0.4393,-1.1482,5.968,2.6126,0.2764,-0.309,1703,2019-08-07 16:58:08:749
1.4282,9.8119,-1.119,0.4393,-1.1482,5.968,2.6126,0.2764,-0.309,1707,2019-08-07 16:58:08:753
1.4282,9.8119,-1.119,0.4393,-1.1482,5.968,2.6499,0.1688,-0.2631,1713,2019-08-07 16:58:08:759
0.9929,10.0935,-1.2227,1.5395,-0.9627,3.7626,2.6499,0.1688,-0.2631,1718,2019-08-07 16:58:08:764
0.9929,10.0935,-1.2227,1.5395,-0.9627,3.7626,2.6776,-0.1082,-0.2621,1723,2019-08-07 16:58:08:769
0.9929,10.0935,-1.2227,1.5395,-0.9627,3.7626,2.6776,-0.1082,-0.2621,1728,2019-08-07 16:58:08:774
1.0503,10.3704,-1.1614,1.5395,-0.9627,3.7626,2.6712,-0.3074,-0.2972,1732,2019-08-07 16:58:08:778
1.0503,10.3704,-1.1614,1.101,-1.3021,2.8965,2.6712,-0.3074,-0.2972,1738,2019-08-07 16:58:08:784
1.0503,10.3704,-1.1614,1.101,-1.3021,2.8965,2.7181,-0.4704,-0.3175,1742,2019-08-07 16:58:08:788
1.878,10.5995,-0.4685,1.101,-1.3021,2.8965,2.7181,-0.4704,-0.3175,1748,2019-08-07 16:58:08:794
1.878,10.5995,-0.4685,1.101,-1.3021,2.8965,2.798,-0.6131,-0.3207,1752,2019-08-07 16:58:08:798
1.878,10.5995,-0.4685,-0.9504,-1.1287,2.7166,2.798,-0.6131,-0.3207,1758,2019-08-07 16:58:08:804
3.385,10.5232,-1.2839,-0.9504,-1.1287,2.7166,2.8491,-0.5694,-0.3164,1762,2019-08-07 16:58:08:808
3.385,10.5232,-1.2839,-0.9504,-1.1287,2.7166,2.8491,-0.5694,-0.3164,1767,2019-08-07 16:58:08:813
3.4855,10.399,-1.6328,-0.9504,-1.1287,2.7166,2.9631,0.0154,-0.3601,1773,2019-08-07 16:58:08:819
3.4855,10.399,-1.6328,-0.8182,-1.082,1.5481,2.9631,0.0154,-0.3601,1778,2019-08-07 16:58:08:824
3.4855,10.399,-1.6328,-0.8182,-1.082,1.5481,3.0472,0.5374,-0.4442,1783,2019-08-07 16:58:08:829
2.6386,10.9051,1.0494,-0.8182,-1.082,1.5481,3.0472,0.5374,-0.4442,1787,2019-08-07 16:58:08:833
2.6386,10.9051,1.0494,-0.8182,-1.082,1.5481,3.0227,0.4319,-0.3974,1793,2019-08-07 16:58:08:839
2.6386,10.9051,1.0494,-0.8182,-1.082,1.5481,3.0227,0.4319,-0.3974,1798,2019-08-07 16:58:08:844
1.5574,11.3347,1.4124,0.7318,-1.7998,-1.1283,2.8331,0.2476,-0.2759,1803,2019-08-07 16:58:08:849
1.5574,11.3347,1.4124,0.7318,-1.7998,-1.1283,2.8331,0.2476,-0.2759,1808,2019-08-07 16:58:08:854
1.2608,10.843,1.912,0.9947,-1.2958,-1.8928,2.7564,0.3094,-0.2173,1813,2019-08-07 16:58:08:859
1.2608,10.843,1.912,0.9947,-1.2958,-1.8928,2.7564,0.3094,-0.2173,1818,2019-08-07 16:58:08:864
1.1651,9.6639,2.5012,0.9947,-1.2958,-1.8928,2.5871,0.466,-0.1332,1822,2019-08-07 16:58:08:868
1.1651,9.6639,2.5012,0.9947,-1.2958,-1.8928,2.5871,0.466,-0.1332,1828,2019-08-07 16:58:08:874
1.1651,9.6639,2.5012,0.948,0.2353,-3.1648,2.5871,0.466,-0.1332,1833,2019-08-07 16:58:08:879
1.4904,9.1101,2.7511,0.948,0.2353,-3.1648,2.3751,0.4447,-0.1268,1838,2019-08-07 16:58:08:884
1.4904,9.1101,2.7511,0.948,0.2353,-3.1648,2.3751,0.4447,-0.1268,1843,2019-08-07 16:58:08:889
1.7303,9.3487,2.4495,0.948,0.2353,-3.1648,2.1641,0.4724,-0.1641,1847,2019-08-07 16:58:08:893
1.7303,9.3487,2.4495,0.3141,-0.1206,-2.6689,2.1641,0.4724,-0.1641,1853,2019-08-07 16:58:08:899
1.7303,9.3487,2.4495,0.3141,-0.1206,-2.6689,2.1641,0.4724,-0.1641,1858,2019-08-07 16:58:08:904
2.711,12.7381,2.6334,0.3141,-0.1206,-2.6689,1.7785,0.6812,-0.1396,1862,2019-08-07 16:58:08:908
2.711,12.7381,2.6334,0.3141,-0.1206,-2.6689,1.7785,0.6812,-0.1396,1868,2019-08-07 16:58:08:914
1.692,9.7306,8.8085,0.1559,-0.865,-10.6932,1.6667,0.6535,-0.1172,1872,2019-08-07 16:58:08:918
1.692,9.7306,8.8085,0.1559,-0.865,-10.6932,1.6667,0.6535,-0.1172,1878,2019-08-07 16:58:08:924
1.692,9.7306,8.8085,0.1559,-0.865,-10.6932,1.7657,0.6759,-0.1651,1883,2019-08-07 16:58:08:929
1.0174,10.504,6.7627,0.1559,-0.865,-10.6932,1.7657,0.6759,-0.1651,1887,2019-08-07 16:58:08:933
1.0174,10.504,6.7627,1.1853,-1.4003,-9.1538,1.2821,0.2849,-0.0916,1893,2019-08-07 16:58:08:939
1.0174,10.504,6.7627,1.1853,-1.4003,-9.1538,1.2821,0.2849,-0.0916,1898,2019-08-07 16:58:08:944
0.8021,10.2844,10.2697,1.1853,-1.4003,-9.1538,1.2821,0.2849,-0.0916,1903,2019-08-07 16:58:08:949
0.8021,10.2844,10.2697,1.1853,-1.4003,-9.1538,0.938,-0.0688,0.1033,1908,2019-08-07 16:58:08:954
1.6872,9.8929,9.8502,0.6865,0.1194,-11.4287,0.938,-0.0688,0.1033,1913,2019-08-07 16:58:08:959
1.6872,9.8929,9.8502,0.6865,0.1194,-11.4287,0.5407,0.1518,0.1225,1918,2019-08-07 16:58:08:964
1.6872,9.8929,9.8502,0.6865,0.1194,-11.4287,0.5407,0.1518,0.1225,1922,2019-08-07 16:58:08:968
1.5007,12.8957,16.6899,0.6865,0.1194,-11.4287,0.5407,0.1518,0.1225,1928,2019-08-07 16:58:08:974
1.5007,12.8957,16.6899,0.856,-2.7256,-18.5268,-0.2796,-0.2158,0.2855,1933,2019-08-07 16:58:08:979
1.6968,11.707,16.5014,0.856,-2.7256,-18.5268,-0.2796,-0.2158,0.2855,1938,2019-08-07 16:58:08:984
1.6968,11.707,16.5014,0.856,-2.7256,-18.5268,-1.0103,-0.2094,0.4229,1943,2019-08-07 16:58:08:989
1.6968,11.707,16.5014,0.856,-2.7256,-18.5268,-1.0103,-0.2094,0.4229,1948,2019-08-07 16:58:08:994
2.3475,13.0103,20.4704,-0.0942,-3.5509,-21.7665,-1.0103,-0.2094,0.4229,1953,2019-08-07 16:58:08:999
2.3475,13.0103,20.4704,-0.0942,-3.5509,-21.7665,-1.9478,-0.4331,0.392,1957,2019-08-07 16:58:09:003
4.51,14.4281,21.2435,-0.0942,-3.5509,-21.7665,-1.9478,-0.4331,0.392,1963,2019-08-07 16:58:09:009
4.51,14.4281,21.2435,-0.0942,-3.5509,-21.7665,-2.3963,-0.5332,0.327,1968,2019-08-07 16:58:09:014
4.51,14.4281,21.2435,-3.4404,-4.1886,-19.2352,-2.3963,-0.5332,0.327,1973,2019-08-07 16:58:09:019
6.3184,11.8216,11.6415,-3.4404,-4.1886,-19.2352,-2.359,-0.2435,0.3302,1977,2019-08-07 16:58:09:023
6.3184,11.8216,11.6415,-3.4404,-4.1886,-19.2352,-2.359,-0.2435,0.3302,1983,2019-08-07 16:58:09:029
6.3184,11.8216,11.6415,-3.4404,-4.1886,-19.2352,-1.5675,0.1752,0.3781,1987,2019-08-07 16:58:09:033
7.8685,12.5806,-2.5141,-5.4633,-3.0794,2.0928,-1.5675,0.1752,0.3781,1993,2019-08-07 16:58:09:039
7.8685,12.5806,-2.5141,-5.4633,-3.0794,2.0928,-1.2522,0.6897,0.3078,1998,2019-08-07 16:58:09:044
7.8685,12.5806,-2.5141,-5.4633,-3.0794,2.0928,-1.2522,0.6897,0.3078,2002,2019-08-07 16:58:09:048
2.1753,10.5422,-2.8535,-5.4633,-3.0794,2.0928,-1.2522,0.6897,0.3078,2008,2019-08-07 16:58:09:054
2.1753,10.5422,-2.8535,3.551,-0.5228,1.0464,-0.7898,2.1033,0.213,2012,2019-08-07 16:58:09:058
-2.7525,9.4251,2.4825,3.551,-0.5228,1.0464,-0.7898,2.1033,0.213,2017,2019-08-07 16:58:09:063
-2.7525,9.4251,2.4825,3.551,-0.5228,1.0464,-0.6045,1.9254,0.1576,2023,2019-08-07 16:58:09:069
-2.7525,9.4251,2.4825,3.551,-0.5228,1.0464,-0.6045,1.9254,0.1576,2028,2019-08-07 16:58:09:074
-4.9389,7.9261,4.6415,7.4956,1.5675,-4.6223,-0.6045,1.9254,0.1576,2033,2019-08-07 16:58:09:079
-4.9389,7.9261,4.6415,7.4956,1.5675,-4.6223,-0.8314,-0.1423,0.0777,2038,2019-08-07 16:58:09:084
-1.8482,7.8497,5.4051,7.4956,1.5675,-4.6223,-0.8431,-1.7082,0.1885,2043,2019-08-07 16:58:09:089
-1.8482,7.8497,5.4051,7.4956,1.5675,-4.6223,-0.8431,-1.7082,0.1885,2048,2019-08-07 16:58:09:094
-1.8482,7.8497,5.4051,-0.7534,1.6488,-2.282,-0.8431,-1.7082,0.1885,2052,2019-08-07 16:58:09:098
5.1128,7.7829,0.9553,-0.7534,1.6488,-2.282,-0.7515,-2.0853,0.2056,2058,2019-08-07 16:58:09:104
5.1128,7.7829,0.9553,-0.7534,1.6488,-2.282,-0.7515,-2.0853,0.2056,2062,2019-08-07 16:58:09:108
5.1128,7.7829,0.9553,-0.7534,1.6488,-2.282,-0.5885,-1.1947,0.1896,2068,2019-08-07 16:58:09:114
7.6006,7.8975,-0.0441,-5.317,1.6272,0.0112,-0.5885,-1.1947,0.1896,2072,2019-08-07 16:58:09:118
7.6006,7.8975,-0.0441,-5.317,1.6272,0.0112,-0.4351,-0.1518,0.2471,2078,2019-08-07 16:58:09:124
8.1078,7.654,1.5586,-5.317,1.6272,0.0112,-0.4351,-0.1518,0.2471,2082,2019-08-07 16:58:09:128
8.1078,7.654,1.5586,-5.317,1.6272,0.0112,-0.2657,0.5321,0.1576,2088,2019-08-07 16:58:09:134
5.5099,8.5706,2.9209,-2.8999,0.8787,-2.5527,-0.2657,0.5321,0.1576,2093,2019-08-07 16:58:09:139
5.5099,8.5706,2.9209,-2.8999,0.8787,-2.5527,-0.2657,0.5321,0.1576,2098,2019-08-07 16:58:09:144
5.5099,8.5706,2.9209,-2.8999,0.8787,-2.5527,-0.1784,0.6641,0.1097,2103,2019-08-07 16:58:09:149
3.0174,9.3105,2.8597,-2.8999,0.8787,-2.5527,-0.1784,0.6641,0.1097,2107,2019-08-07 16:58:09:153
3.0174,9.3105,2.8597,-2.8999,0.8787,-2.5527,-0.1581,0.6077,0.1065,2113,2019-08-07 16:58:09:159
3.0174,9.3105,2.8597,0.2467,-0.215,-2.4902,-0.1581,0.6077,0.1065,2117,2019-08-07 16:58:09:163
1.3955,10.3417,2.9209,0.2467,-0.215,-2.4902,-0.0782,0.3062,0.0841,2123,2019-08-07 16:58:09:169
1.3955,10.3417,2.9209,0.2467,-0.215,-2.4902,-0.0782,0.3062,0.0841,2127,2019-08-07 16:58:09:173
0.7975,10.7331,2.6947,1.8033,-1.3399,-2.1852,-0.0782,0.3062,0.0841,2133,2019-08-07 16:58:09:179
0.7975,10.7331,2.6947,1.8033,-1.3399,-2.1852,0.0198,0.0037,0.0905,2138,2019-08-07 16:58:09:184
0.7975,10.7331,2.6947,1.8033,-1.3399,-2.1852,0.0198,0.0037,0.0905,2143,2019-08-07 16:58:09:189
1.1946,11.1294,2.8314,1.8033,-1.3399,-2.1852,0.089,-0.2722,0.0905,2148,2019-08-07 16:58:09:194
1.1946,11.1294,2.8314,0.7675,-1.6614,-1.8896,0.089,-0.2722,0.0905,2153,2019-08-07 16:58:09:199
1.1946,11.1294,2.8314,0.7675,-1.6614,-1.8896,0.089,-0.2722,0.0905,2157,2019-08-07 16:58:09:203
2.4433,10.8525,1.4408,0.7675,-1.6614,-1.8896,0.17,-0.3681,0.1129,2163,2019-08-07 16:58:09:209
2.4433,10.8525,1.4408,0.7675,-1.6614,-1.8896,0.17,-0.3681,0.1129,2168,2019-08-07 16:58:09:214
2.4433,10.8525,1.4408,0.7675,-1.6614,-1.8896,0.2594,0.1006,0.0426,2172,2019-08-07 16:58:09:218
3.1705,9.9598,-0.7417,-0.5099,-0.5281,1.19,0.2594,0.1006,0.0426,2178,2019-08-07 16:58:09:224
3.1705,9.9598,-0.7417,-0.5099,-0.5281,1.19,0.2893,0.4127,0.0373,2183,2019-08-07 16:58:09:229
2.8069,9.5301,-0.3127,-0.5099,-0.5281,1.19,0.2893,0.4127,0.0373,2187,2019-08-07 16:58:09:233
2.8069,9.5301,-0.3127,0.0794,0.1356,0.2977,0.2509,0.3829,0.0522,2193,2019-08-07 16:58:09:239
2.539,9.2437,0.3755,0.0794,0.1356,0.2977,0.2509,0.3829,0.0522,2198,2019-08-07 16:58:09:244
2.539,9.2437,0.3755,0.0794,0.1356,0.2977,0.1934,0.1656,0.0543,2203,2019-08-07 16:58:09:249
2.539,9.2437,0.3755,0.0794,0.1356,0.2977,0.1934,0.1656,0.0543,2208,2019-08-07 16:58:09:254
2.7591,9.6304,-0.2467,0.0794,0.1356,0.2977,0.1934,0.1656,0.0543,2213,2019-08-07 16:58:09:259
2.7591,9.6304,-0.2467,-0.1746,-0.2094,0.7163,0.1316,0.1379,0.0692,2218,2019-08-07 16:58:09:264
2.7591,9.6304,-0.2467,-0.1746,-0.2094,0.7163,0.1316,0.1379,0.0692,2223,2019-08-07 16:58:09:269
2.9887,9.8022,0.0974,-0.1746,-0.2094,0.7163,0.1007,0.1965,0.0543,2227,2019-08-07 16:58:09:273
2.9887,9.8022,0.0974,-0.1746,-0.2094,0.7163,0.1007,0.1965,0.0543,2233,2019-08-07 16:58:09:279
2.9887,9.8022,0.0974,-0.264,-0.5319,-0.5588,0.1007,0.1965,0.0543,2238,2019-08-07 16:58:09:284
3.0318,9.7879,1.0024,-0.264,-0.5319,-0.5588,0.0645,0.0495,0.0618,2243,2019-08-07 16:58:09:289
3.0318,9.7879,1.0024,-0.264,-0.5319,-0.5588,0.0645,0.0495,0.0618,2248,2019-08-07 16:58:09:294
3.0892,9.4108,0.3189,-0.264,-0.5319,-0.5588,0.0389,-0.0549,0.0639,2253,2019-08-07 16:58:09:299
3.0892,9.4108,0.3189,-0.2744,0.0708,0.2584,0.0389,-0.0549,0.0639,2258,2019-08-07 16:58:09:304
2.8069,9.5301,-0.0865,-0.2744,0.0708,0.2584,0.0102,0.0442,0.0607,2264,2019-08-07 16:58:09:310
2.8069,9.5301,-0.0865,-0.0769,-0.2364,0.4494,0.0102,0.0442,0.0607,2268,2019-08-07 16:58:09:314
2.8069,9.5301,-0.0865,-0.0769,-0.2364,0.4494,-0.0047,0.1368,0.0575,2272,2019-08-07 16:58:09:318
2.4529,10.3369,0.1917,-0.0769,-0.2364,0.4494,-0.0047,0.1368,0.0575,2278,2019-08-07 16:58:09:324
2.4529,10.3369,0.1917,-0.0769,-0.2364,0.4494,-0.0111,0.0942,0.0479,2283,2019-08-07 16:58:09:329
2.4529,10.3369,0.1917,0.6463,-0.9687,-0.5895,-0.0111,0.0942,0.0479,2288,2019-08-07 16:58:09:334
2.0702,10.1412,1.026,0.6463,-0.9687,-0.5895,0.0208,0.0303,0.0596,2293,2019-08-07 16:58:09:339
2.0702,10.1412,1.026,0.6463,-0.9687,-0.5895,0.0208,0.0303,0.0596,2297,2019-08-07 16:58:09:343
2.5725,9.8118,1.2994,0.6463,-0.9687,-0.5895,0.04,-0.0134,0.0543,2303,2019-08-07 16:58:09:349
2.5725,9.8118,1.2994,0.031,-0.4313,-0.8878,0.04,-0.0134,0.0543,2307,2019-08-07 16:58:09:353
2.5725,9.8118,1.2994,0.031,-0.4313,-0.8878,0.0592,-0.0293,0.0426,2313,2019-08-07 16:58:09:359
3.051,10.0839,0.993,0.031,-0.4313,-0.8878,0.0592,-0.0293,0.0426,2318,2019-08-07 16:58:09:364
3.051,10.0839,0.993,0.031,-0.4313,-0.8878,0.0943,-0.0528,0.017,2322,2019-08-07 16:58:09:368
3.5055,9.2485,0.663,-0.6537,-0.0278,-0.5296,0.0943,-0.0528,0.017,2328,2019-08-07 16:58:09:374
3.5055,9.2485,0.663,-0.6537,-0.0278,-0.5296,0.0805,-0.0879,-0.0096,2333,2019-08-07 16:58:09:379
3.5055,9.2485,0.663,-0.6537,-0.0278,-0.5296,0.0805,-0.0879,-0.0096,2338,2019-08-07 16:58:09:384
3.5055,9.2485,0.663,-0.6537,-0.0278,-0.5296,0.0805,-0.0879,-0.0096,2343,2019-08-07 16:58:09:389
3.826,8.8427,-0.1383,-1.0163,0.4439,0.4777,0.0688,-0.0016,-0.0554,2348,2019-08-07 16:58:09:394
3.826,8.8427,-0.1383,-1.0163,0.4439,0.4777,0.0688,-0.0016,-0.0554,2353,2019-08-07 16:58:09:399
3.826,8.8427,-0.1383,-1.0163,0.4439,0.4777,0.057,0.1528,-0.0863,2357,2019-08-07 16:58:09:403
3.2711,9.4537,0.3991,-1.0163,0.4439,0.4777,0.057,0.1528,-0.0863,2363,2019-08-07 16:58:09:409
3.2711,9.4537,0.3991,-0.067,-0.173,-0.3751,0.056,0.1603,-0.1097,2368,2019-08-07 16:58:09:414
2.4482,9.5826,0.894,-0.067,-0.173,-0.3751,0.056,0.1603,-0.1097,2373,2019-08-07 16:58:09:419
2.4482,9.5826,0.894,-0.067,-0.173,-0.3751,0.0634,0.1219,-0.098,2378,2019-08-07 16:58:09:424
2.4482,9.5826,0.894,-0.067,-0.173,-0.3751,0.0634,0.1219,-0.098,2383,2019-08-07 16:58:09:429
2.6061,9.6256,0.5452,0.093,-0.2001,-0.2112,0.0549,0.074,-0.097,2388,2019-08-07 16:58:09:434
2.6061,9.6256,0.5452,0.093,-0.2001,-0.2112,0.0549,0.074,-0.097,2393,2019-08-07 16:58:09:439
2.6061,9.6256,0.5452,0.093,-0.2001,-0.2112,0.0347,0.0868,-0.0991,2397,2019-08-07 16:58:09:443
2.6731,10.017,-0.0157,0.093,-0.2001,-0.2112,0.0347,0.0868,-0.0991,2402,2019-08-07 16:58:09:448
2.6731,10.017,-0.0157,0.0627,-0.6141,0.444,0.0347,0.0868,-0.0991,2408,2019-08-07 16:58:09:454
2.4243,10.0218,-0.0723,0.0627,-0.6141,0.444,0.0198,0.1581,-0.0959,2413,2019-08-07 16:58:09:459
2.4243,10.0218,-0.0723,0.0627,-0.6141,0.444,0.0198,0.1581,-0.0959,2417,2019-08-07 16:58:09:463
2.4243,10.0218,-0.0723,0.0627,-0.6141,0.444,-0.0037,0.1858,-0.081,2423,2019-08-07 16:58:09:469
2.1181,9.7497,0.5876,0.558,-0.3219,-0.2319,-0.0037,0.1858,-0.081,2428,2019-08-07 16:58:09:474
2.1181,9.7497,0.5876,0.558,-0.3219,-0.2319,-0.0303,0.0953,-0.0533,2433,2019-08-07 16:58:09:479
2.1181,9.7497,0.5876,0.558,-0.3219,-0.2319,-0.0303,0.0953,-0.0533,2438,2019-08-07 16:58:09:484
2.0798,9.9645,0.6253,0.558,-0.3219,-0.2319,-0.0644,-0.0464,-0.0288,2443,2019-08-07 16:58:09:489
2.0798,9.9645,0.6253,0.4876,-0.4524,-0.3515,-0.0644,-0.0464,-0.0288,2448,2019-08-07 16:58:09:494
2.3143,9.8404,0.6206,0.4876,-0.4524,-0.3515,-0.0644,-0.0464,-0.0288,2452,2019-08-07 16:58:09:498
2.3143,9.8404,0.6206,0.4876,-0.4524,-0.3515,-0.0655,-0.0741,-0.0149,2458,2019-08-07 16:58:09:504
2.3143,9.8404,0.6206,0.4876,-0.4524,-0.3515,-0.0655,-0.0741,-0.0149,2463,2019-08-07 16:58:09:509
2.6827,9.6829,0.4839,-0.0954,-0.1843,-0.0769,-0.0836,-0.1028,-0.0149,2467,2019-08-07 16:58:09:513
2.6827,9.6829,0.4839,-0.0954,-0.1843,-0.0769,-0.0836,-0.1028,-0.0149,2473,2019-08-07 16:58:09:519
2.6396,9.6638,0.4839,-0.0954,-0.1843,-0.0769,-0.0889,-0.0741,-0.0149,2477,2019-08-07 16:58:09:523
2.6396,9.6638,0.4839,-0.0954,-0.1843,-0.0769,-0.0889,-0.0741,-0.0149,2483,2019-08-07 16:58:09:529
2.6396,9.6638,0.4839,-0.0074,-0.3416,-0.2131,-0.0942,-0.0198,-0.0139,2488,2019-08-07 16:58:09:534
2.5966,9.7163,0.6159,-0.0074,-0.3416,-0.2131,-0.0942,-0.0198,-0.0139,2493,2019-08-07 16:58:09:539
2.5966,9.7163,0.6159,-0.0074,-0.3416,-0.2131,-0.0942,-0.0517,-0.0181,2498,2019-08-07 16:58:09:544
2.654,9.6495,0.8563,-0.0074,-0.3416,-0.2131,-0.0942,-0.0517,-0.0181,2503,2019-08-07 16:58:09:549
2.654,9.6495,0.8563,-0.0074,-0.3416,-0.2131,-0.0942,-0.0517,-0.0181,2508,2019-08-07 16:58:09:554
2.654,9.6495,0.8563,-0.0636,-0.2316,-0.4918,-0.0921,-0.1103,-0.0192,2513,2019-08-07 16:58:09:559
2.7688,9.6638,1.0543,-0.0636,-0.2316,-0.4918,-0.0921,-0.1103,-0.0192,2518,2019-08-07 16:58:09:564
2.7688,9.6638,1.0543,-0.0636,-0.2316,-0.4918,-0.0644,-0.1103,-0.0235,2522,2019-08-07 16:58:09:568
2.7688,9.6638,1.0543,-0.0636,-0.2316,-0.4918,-0.0644,-0.1103,-0.0235,2528,2019-08-07 16:58:09:574
3.0559,9.7306,1.0967,-0.4244,-0.2889,-0.6905,-0.0335,-0.0421,-0.0394,2533,2019-08-07 16:58:09:579
3.0559,9.7306,1.0967,-0.4244,-0.2889,-0.6905,-0.0335,-0.0421,-0.0394,2538,2019-08-07 16:58:09:584
2.9506,9.4346,0.9883,-0.4244,-0.2889,-0.6905,0.0038,0.0292,-0.0448,2543,2019-08-07 16:58:09:589
2.9506,9.4346,0.9883,-0.4244,-0.2889,-0.6905,0.0038,0.0292,-0.0448,2548,2019-08-07 16:58:09:594
2.9506,9.4346,0.9883,-0.1052,0.1995,-0.8769,0.04,0.0527,-0.048,2552,2019-08-07 16:58:09:598
2.5631,9.215,1.4644,-0.1052,0.1995,-0.8769,0.04,0.0527,-0.048,2558,2019-08-07 16:58:09:604
2.5631,9.215,1.4644,-0.1052,0.1995,-0.8769,0.072,0.0122,-0.0416,2562,2019-08-07 16:58:09:608
2.4005,9.2866,0.9742,0.2299,0.2213,-0.4653,0.072,0.0122,-0.0416,2568,2019-08-07 16:58:09:614
2.4005,9.2866,0.9742,0.2299,0.2213,-0.4653,0.072,0.0122,-0.0416,2573,2019-08-07 16:58:09:619
2.4005,9.2866,0.9742,0.2299,0.2213,-0.4653,0.0837,0.0101,-0.0277,2578,2019-08-07 16:58:09:624
2.3335,9.3057,0.6489,0.2299,0.2213,-0.4653,0.0837,0.0101,-0.0277,2583,2019-08-07 16:58:09:629
2.3335,9.3057,0.6489,0.2299,0.2213,-0.4653,0.0922,0.0111,-0.0309,2588,2019-08-07 16:58:09:634
2.5105,9.6113,0.4227,0.1502,-0.1101,-0.1262,0.0922,0.0111,-0.0309,2593,2019-08-07 16:58:09:639
2.5105,9.6113,0.4227,0.1502,-0.1101,-0.1262,0.0922,0.0111,-0.0309,2598,2019-08-07 16:58:09:644
2.5105,9.6113,0.4227,0.1502,-0.1101,-0.1262,0.0773,-0.04,-0.0235,2602,2019-08-07 16:58:09:648
2.3909,9.8165,0.1728,0.1502,-0.1101,-0.1262,0.0773,-0.04,-0.0235,2608,2019-08-07 16:58:09:654
2.3909,9.8165,0.1728,0.2925,-0.3607,-0.1109,0.0741,-0.0027,-0.0171,2612,2019-08-07 16:58:09:658
2.2665,9.7115,0.7621,0.2925,-0.3607,-0.1109,0.0741,-0.0027,-0.0171,2618,2019-08-07 16:58:09:664
2.2665,9.7115,0.7621,0.2925,-0.3607,-0.1109,0.0752,-0.024,-0.0107,2623,2019-08-07 16:58:09:669
2.2665,9.7115,0.7621,0.2925,-0.3607,-0.1109,0.0752,-0.024,-0.0107,2627,2019-08-07 16:58:09:673
2.4196,9.7927,0.8563,0.1775,-0.3398,-0.4902,0.0645,-0.1316,0.0042,2633,2019-08-07 16:58:09:679
2.4196,9.7927,0.8563,0.1775,-0.3398,-0.4902,0.0645,-0.1316,0.0042,2638,2019-08-07 16:58:09:684
2.4196,9.7927,0.8563,0.1775,-0.3398,-0.4902,0.0581,-0.2147,0.0096,2643,2019-08-07 16:58:09:689
2.6636,9.9359,0.4133,0.1775,-0.3398,-0.4902,0.0581,-0.2147,0.0096,2648,2019-08-07 16:58:09:694
2.6636,9.9359,0.4133,-0.0982,-0.33,-0.1665,0.0805,-0.0901,0.0021,2653,2019-08-07 16:58:09:699
2.6636,9.9359,0.4133,-0.0982,-0.33,-0.1665,0.0805,-0.0901,0.0021,2657,2019-08-07 16:58:09:703
2.5871,9.6065,0.7149,-0.0982,-0.33,-0.1665,0.0805,-0.0368,0.016,2663,2019-08-07 16:58:09:709
2.5871,9.6065,0.7149,-0.0982,-0.33,-0.1665,0.0805,-0.0368,0.016,2667,2019-08-07 16:58:09:713
2.1852,9.6685,0.4415,0.3193,-0.177,-0.1357,0.0805,-0.0368,0.016,2673,2019-08-07 16:58:09:719
2.1852,9.6685,0.4415,0.3193,-0.177,-0.1357,0.0517,-0.0666,0.0213,2678,2019-08-07 16:58:09:724
2.1852,9.6685,0.4415,0.3193,-0.177,-0.1357,0.0517,-0.0666,0.0213,2683,2019-08-07 16:58:09:729
2.0417,9.8738,0.517,0.3193,-0.177,-0.1357,0.0464,-0.1146,0.05,2687,2019-08-07 16:58:09:733
2.0417,9.8738,0.517,0.4364,-0.4731,-0.1863,0.0464,-0.1146,0.05,2693,2019-08-07 16:58:09:739
2.0417,9.8738,0.517,0.4364,-0.4731,-0.1863,0.0464,-0.1146,0.05,2698,2019-08-07 16:58:09:744
2.2713,9.8929,0.3096,0.4364,-0.4731,-0.1863,0.0315,-0.1423,0.0618,2703,2019-08-07 16:58:09:749
2.2713,9.8929,0.3096,0.4364,-0.4731,-0.1863,0.0315,-0.1423,0.0618,2708,2019-08-07 16:58:09:754
2.3383,9.8977,0.4415,0.2738,-0.4467,-0.1378,0.0166,-0.1359,0.0692,2713,2019-08-07 16:58:09:759
2.3383,9.8977,0.4415,0.2738,-0.4467,-0.1378,0.0166,-0.1359,0.0692,2718,2019-08-07 16:58:09:764
2.6397,9.764,0.5735,0.2738,-0.4467,-0.1378,0.0017,-0.1486,0.0916,2723,2019-08-07 16:58:09:769
2.6397,9.764,0.5735,0.2738,-0.4467,-0.1378,0.0017,-0.1486,0.0916,2728,2019-08-07 16:58:09:774
2.6397,9.764,0.5735,-0.3933,0.0357,-0.1347,0.0027,-0.1359,0.0831,2733,2019-08-07 16:58:09:779
3.099,9.3964,0.253,-0.3933,0.0357,-0.1347,0.0027,-0.1359,0.0831,2737,2019-08-07 16:58:09:783
3.099,9.3964,0.253,-0.3702,-0.0335,-0.1656,-0.0303,-0.1146,0.0586,2743,2019-08-07 16:58:09:789
3.099,9.3964,0.253,-0.3702,-0.0335,-0.1656,-0.0303,-0.1146,0.0586,2748,2019-08-07 16:58:09:794
2.8263,9.764,0.187,-0.3702,-0.0335,-0.1656,-0.0303,-0.1146,0.0586,2753,2019-08-07 16:58:09:799
2.8263,9.764,0.187,-0.3702,-0.0335,-0.1656,-0.0165,-0.0751,0.0724,2757,2019-08-07 16:58:09:803
2.8263,9.764,0.187,-0.3702,-0.0335,-0.1656,-0.0165,-0.0751,0.0724,2763,2019-08-07 16:58:09:809
2.8216,9.9597,0.4133,-0.1503,-0.4909,0.0403,-0.0399,-0.0634,0.0564,2767,2019-08-07 16:58:09:813
2.8216,9.9597,0.4133,-0.1503,-0.4909,0.0403,-0.0399,-0.0634,0.0564,2773,2019-08-07 16:58:09:819
3.0177,9.6112,0.517,-0.1503,-0.4909,0.0403,-0.0484,-0.2062,0.0394,2778,2019-08-07 16:58:09:824
3.0177,9.6112,0.517,-0.3205,-0.1888,-0.1969,-0.0484,-0.2062,0.0394,2782,2019-08-07 16:58:09:828
3.0177,9.6112,0.517,-0.3205,-0.1888,-0.1969,-0.0697,-0.2861,0.0138,2788,2019-08-07 16:58:09:834
3.0273,9.5492,0.5641,-0.3205,-0.1888,-0.1969,-0.0697,-0.2861,0.0138,2793,2019-08-07 16:58:09:839
3.0273,9.5492,0.5641,-0.3205,-0.1888,-0.1969,-0.0697,-0.2861,0.0138,2798,2019-08-07 16:58:09:844
3.0273,9.5492,0.5641,-0.2669,-0.1379,-0.136,-0.0548,-0.2403,0.0032,2803,2019-08-07 16:58:09:849
2.9603,9.616,0.3756,-0.2669,-0.1379,-0.136,-0.0548,-0.2403,0.0032,2807,2019-08-07 16:58:09:853
2.9603,9.616,0.3756,-0.2669,-0.1379,-0.136,-0.0367,-0.0911,0.001,2813,2019-08-07 16:58:09:859
2.9221,9.6924,0.5783,-0.2669,-0.1379,-0.136,-0.0367,-0.0911,0.001,2818,2019-08-07 16:58:09:864
2.9221,9.6924,0.5783,-0.1839,-0.2817,-0.472,-0.0154,-0.0102,-0.0128,2822,2019-08-07 16:58:09:868
2.8647,9.6876,0.7432,-0.1839,-0.2817,-0.472,-0.0154,-0.0102,-0.0128,2828,2019-08-07 16:58:09:874
2.8647,9.6876,0.7432,-0.1839,-0.2817,-0.472,-0.0026,-0.0198,-0.0139,2833,2019-08-07 16:58:09:879
2.8647,9.6876,0.7432,-0.1839,-0.2817,-0.472,-0.0026,-0.0198,-0.0139,2838,2019-08-07 16:58:09:884
2.9651,9.6017,0.4038,-0.2955,-0.1667,-0.1025,0.007,0.0484,-0.0309,2843,2019-08-07 16:58:09:889
2.9651,9.6017,0.4038,-0.2955,-0.1667,-0.1025,0.007,0.0484,-0.0309,2848,2019-08-07 16:58:09:894
2.9651,9.6017,0.4038,-0.2955,-0.1667,-0.1025,0.0219,0.1273,-0.032,2852,2019-08-07 16:58:09:898
2.7443,9.7163,0.5498,-0.2955,-0.1667,-0.1025,0.0219,0.1273,-0.032,2857,2019-08-07 16:58:09:903
2.7443,9.7163,0.5498,-0.2955,-0.1667,-0.1025,0.0294,0.14,-0.0309,2863,2019-08-07 16:58:09:909
2.7443,9.7163,0.5498,0.0198,-0.1366,-0.24,0.0294,0.14,-0.0309,2867,2019-08-07 16:58:09:913
2.5864,9.5015,0.4037,0.0198,-0.1366,-0.24,0.0315,0.1699,-0.0373,2873,2019-08-07 16:58:09:919
2.5864,9.5015,0.4037,0.0198,-0.1366,-0.24,0.0315,0.1699,-0.0373,2877,2019-08-07 16:58:09:923
2.5338,9.6352,0.5592,0.121,-0.2679,-0.3444,0.0283,0.1368,-0.0331,2883,2019-08-07 16:58:09:929
2.5338,9.6352,0.5592,0.121,-0.2679,-0.3444,0.0283,0.1368,-0.0331,2888,2019-08-07 16:58:09:934
2.5338,9.7211,0.5828,0.121,-0.2679,-0.3444,0.0283,0.1368,-0.0331,2893,2019-08-07 16:58:09:939
2.5338,9.7211,0.5828,0.1311,-0.2477,-0.3239,0.0283,0.0676,-0.0299,2897,2019-08-07 16:58:09:943
2.5338,9.7211,0.5828,0.1311,-0.2477,-0.3239,0.0283,0.0676,-0.0299,2903,2019-08-07 16:58:09:949
2.4859,9.745,0.6299,0.1311,-0.2477,-0.3239,0.0155,-0.0155,-0.0171,2908,2019-08-07 16:58:09:954
2.4859,9.745,0.6299,0.1311,-0.2477,-0.3239,0.0155,-0.0155,-0.0171,2913,2019-08-07 16:58:09:959
2.5625,9.6638,0.5262,0.1161,-0.2127,-0.1033,0.0059,-0.0443,-0.0107,2918,2019-08-07 16:58:09:964
2.5625,9.6638,0.5262,0.1161,-0.2127,-0.1033,0.0059,-0.0443,-0.0107,2922,2019-08-07 16:58:09:968
2.5625,9.6638,0.5262,0.1161,-0.2127,-0.1033,0.0059,-0.0443,-0.0107,2928,2019-08-07 16:58:09:974
2.8639,9.554,0.7054,0.1161,-0.2127,-0.1033,0.0144,-0.0506,-0.0032,2933,2019-08-07 16:58:09:979
2.8639,9.554,0.7054,-0.2433,-0.1265,-0.2704,0.0144,-0.0506,-0.0032,2938,2019-08-07 16:58:09:984
2.8639,9.554,0.7054,-0.2433,-0.1265,-0.2704,0.0283,-0.024,-0.0043,2943,2019-08-07 16:58:09:989
2.883,9.6638,0.333,-0.2433,-0.1265,-0.2704,0.0283,-0.024,-0.0043,2948,2019-08-07 16:58:09:994
2.883,9.6638,0.333,-0.2433,-0.1265,-0.2704,0.0283,-0.024,-0.0043,2952,2019-08-07 16:58:09:998
2.883,9.6638,0.333,-0.1187,-0.1837,-0.1303,0.0272,0.0314,-0.0139,2958,2019-08-07 16:58:10:004
2.6486,9.6925,0.5121,-0.1187,-0.1837,-0.1303,0.0272,0.0314,-0.0139,2962,2019-08-07 16:58:10:008
2.6486,9.6925,0.5121,0.0181,-0.2165,-0.1781,0.0166,0.0293,-0.0181,2968,2019-08-07 16:58:10:014
2.6486,9.6925,0.5121,0.0181,-0.2165,-0.1781,0.0166,0.0293,-0.0181,2973,2019-08-07 16:58:10:019
2.5433,9.788,0.4508,0.0181,-0.2165,-0.1781,0.0102,0.041,-0.016,2978,2019-08-07 16:58:10:024
2.5433,9.788,0.4508,0.0181,-0.2165,-0.1781,0.0102,0.041,-0.016,2983,2019-08-07 16:58:10:029
2.5433,9.788,0.4508,0.1665,-0.3919,-0.1347,0.0017,0.0495,-0.0139,2987,2019-08-07 16:58:10:033
2.3137,9.8596,0.3235,0.1665,-0.3919,-0.1347,0.0017,0.0495,-0.0139,2993,2019-08-07 16:58:10:039
2.3137,9.8596,0.3235,0.1665,-0.3919,-0.1347,-0.0218,0.0239,-0.0022,2998,2019-08-07 16:58:10:044
2.4046,9.8309,0.5734,0.1665,-0.3919,-0.1347,-0.0218,0.0239,-0.0022,3002,2019-08-07 16:58:10:048
2.4046,9.8309,0.5734,0.3152,-0.4386,-0.2612,-0.0218,0.0239,-0.0022,3008,2019-08-07 16:58:10:054
2.4046,9.8309,0.5734,0.3152,-0.4386,-0.2612,-0.0367,-0.0315,0.0042,3012,2019-08-07 16:58:10:058
2.4046,9.8309,0.5734,0.3152,-0.4386,-0.2612,-0.0367,-0.0315,0.0042,3018,2019-08-07 16:58:10:064
2.4093,9.85,0.6252,0.2233,-0.405,-0.3141,-0.0463,-0.0698,0.0106,3023,2019-08-07 16:58:10:069
2.4093,9.85,0.6252,0.2233,-0.405,-0.3141,-0.0463,-0.0698,0.0106,3028,2019-08-07 16:58:10:074
2.4093,9.85,0.6252,0.2233,-0.405,-0.3141,-0.0452,-0.0538,0.0255,3033,2019-08-07 16:58:10:079
2.706,9.597,0.3848,-0.0699,-0.1531,-0.0675,-0.0452,-0.0538,0.0255,3037,2019-08-07 16:58:10:083
2.706,9.597,0.3848,-0.0699,-0.1531,-0.0675,-0.0367,-0.0048,0.0213,3043,2019-08-07 16:58:10:089
3.0409,9.5206,0.4084,-0.0699,-0.1531,-0.0675,-0.0367,-0.0048,0.0213,3048,2019-08-07 16:58:10:094
3.0409,9.5206,0.4084,-0.0699,-0.1531,-0.0675,-0.0356,0.0442,0.0064,3052,2019-08-07 16:58:10:098
3.0409,9.5206,0.4084,-0.3753,-0.0452,-0.332,-0.0356,0.0442,0.0064,3058,2019-08-07 16:58:10:104
2.9212,9.5493,0.7101,-0.3753,-0.0452,-0.332,-0.0218,0.0239,0.0,3063,2019-08-07 16:58:10:109
2.9212,9.5493,0.7101,-0.3753,-0.0452,-0.332,-0.0218,0.0239,0.0,3068,2019-08-07 16:58:10:114
2.8112,9.5779,0.5687,-0.3753,-0.0452,-0.332,-0.0165,0.0314,-0.0075,3073,2019-08-07 16:58:10:119
2.8112,9.5779,0.5687,-0.1924,-0.084,-0.2861,-0.0165,0.0314,-0.0075,3078,2019-08-07 16:58:10:124
2.8112,9.5779,0.5687,-0.1924,-0.084,-0.2861,-0.0186,0.0207,-0.0181,3083,2019-08-07 16:58:10:129
2.8256,9.5111,0.7478,-0.1924,-0.084,-0.2861,-0.0186,0.0207,-0.0181,3088,2019-08-07 16:58:10:134
2.8256,9.5111,0.7478,-0.1924,-0.084,-0.2861,-0.0026,0.0474,-0.0288,3093,2019-08-07 16:58:10:139
2.8256,9.5111,0.7478,-0.2,-0.2457,-0.2369,-0.0026,0.0474,-0.0288,3097,2019-08-07 16:58:10:143
2.7681,9.702,0.5875,-0.2,-0.2457,-0.2369,-0.0026,0.0474,-0.0288,3103,2019-08-07 16:58:10:149
2.7681,9.702,0.5875,-0.2,-0.2457,-0.2369,-0.0015,0.0697,-0.0352,3108,2019-08-07 16:58:10:154
2.6533,9.6973,0.6724,-0.2,-0.2457,-0.2369,-0.0015,0.0697,-0.0352,3113,2019-08-07 16:58:10:159
2.6533,9.6973,0.6724,0.0365,-0.3584,-0.1984,-0.0015,0.0463,-0.0405,3118,2019-08-07 16:58:10:164
2.6533,9.6973,0.6724,0.0365,-0.3584,-0.1984,-0.0015,0.0463,-0.0405,3122,2019-08-07 16:58:10:168
2.5768,9.8882,0.5545,0.0365,-0.3584,-0.1984,-0.0111,0.0506,-0.0373,3128,2019-08-07 16:58:10:174
2.5768,9.8882,0.5545,0.0365,-0.3584,-0.1984,-0.0111,0.0506,-0.0373,3132,2019-08-07 16:58:10:178
1.2898,9.9932,3.5619,1.3324,-0.5469,-3.2059,-0.2529,-0.8208,-0.0224,3138,2019-08-07 16:58:10:184
1.2898,9.9932,3.5619,1.3324,-0.5469,-3.2059,-0.2529,-0.8208,-0.0224,3143,2019-08-07 16:58:10:189
1.2898,9.9932,3.5619,1.3324,-0.5469,-3.2059,-0.0995,-0.6248,-0.0863,3148,2019-08-07 16:58:10:194
2.3328,9.9025,-0.4071,1.3324,-0.5469,-3.2059,-0.0995,-0.6248,-0.0863,3153,2019-08-07 16:58:10:199
2.3328,9.9025,-0.4071,-0.1478,-0.5017,-0.3264,-0.0335,-0.3372,-0.0224,3157,2019-08-07 16:58:10:203
3.0552,9.7116,0.8043,-0.1478,-0.5017,-0.3264,-0.0335,-0.3372,-0.0224,3163,2019-08-07 16:58:10:209
3.0552,9.7116,0.8043,-0.1478,-0.5017,-0.3264,-0.009,-0.2999,0.0117,3167,2019-08-07 16:58:10:213
3.0552,9.7116,0.8043,-0.1478,-0.5017,-0.3264,-0.009,-0.2999,0.0117,3173,2019-08-07 16:58:10:219
2.7777,9.8166,0.1444,-0.086,-0.364,0.2411,0.008,-0.2051,0.0106,3178,2019-08-07 16:58:10:224
2.7777,9.8166,0.1444,-0.086,-0.364,0.2411,0.008,-0.2051,0.0106,3183,2019-08-07 16:58:10:229
2.7777,9.8166,0.1444,-0.086,-0.364,0.2411,0.008,-0.2051,0.0106,3188,2019-08-07 16:58:10:234
2.8877,9.6973,0.333,-0.086,-0.364,0.2411,0.0666,0.0356,0.0181,3193,2019-08-07 16:58:10:239
2.8877,9.6973,0.333,-0.287,-0.2743,0.0516,0.0666,0.0356,0.0181,3198,2019-08-07 16:58:10:244
2.8973,9.7259,0.2387,-0.287,-0.2743,0.0516,0.0784,0.1656,0.0085,3203,2019-08-07 16:58:10:249
2.8973,9.7259,0.2387,-0.287,-0.2743,0.0516,0.0784,0.1656,0.0085,3209,2019-08-07 16:58:10:255
2.8973,9.7259,0.2387,-0.287,-0.2743,0.0516,0.105,0.2828,0.0,3212,2019-08-07 16:58:10:258
2.792,9.7354,0.2481,-0.1865,-0.2502,0.0787,0.105,0.2828,0.0,3218,2019-08-07 16:58:10:264
2.792,9.7354,0.2481,-0.1865,-0.2502,0.0787,0.1252,0.4341,-0.0128,3222,2019-08-07 16:58:10:268
2.969,9.4538,0.5592,-0.1865,-0.2502,0.0787,0.1252,0.4341,-0.0128,3228,2019-08-07 16:58:10:274
2.969,9.4538,0.5592,-0.1865,-0.2502,0.0787,0.1455,0.4926,-0.048,3233,2019-08-07 16:58:10:279
2.969,9.4538,0.5592,0.4499,-0.4051,-0.3128,0.1455,0.4926,-0.048,3238,2019-08-07 16:58:10:284
2.0457,9.7975,0.7902,0.4499,-0.4051,-0.3128,0.0911,0.2924,-0.0181,3243,2019-08-07 16:58:10:289
2.0457,9.7975,0.7902,0.4499,-0.4051,-0.3128,0.0911,0.2924,-0.0181,3247,2019-08-07 16:58:10:293
2.3519,9.6113,0.4744,0.4499,-0.4051,-0.3128,0.0837,0.1443,-0.0277,3253,2019-08-07 16:58:10:299
2.3519,9.6113,0.4744,0.4499,-0.4051,-0.3128,0.0837,0.1443,-0.0277,3258,2019-08-07 16:58:10:304
2.3519,9.6113,0.4744,0.2301,-0.2545,0.0111,0.0837,0.1443,-0.0277,3262,2019-08-07 16:58:10:308
2.4763,9.6877,0.8515,0.2301,-0.2545,0.0111,0.0134,0.0484,-0.0075,3268,2019-08-07 16:58:10:314
2.4763,9.6877,0.8515,0.2301,-0.2545,0.0111,0.0134,0.0484,-0.0075,3272,2019-08-07 16:58:10:318