ACCELEROMETER X (m/s²),ACCELEROMETER Y (m/s²),ACCELEROMETER Z (m/s²),LINEAR ACCELERATION X (m/s²),LINEAR ACCELERATION Y (m/s²),LINEAR ACCELERATION Z (m/s²),GYROSCOPE X (rad/s),GYROSCOPE Y (rad/s),GYROSCOPE Z (rad/s),Time since start in ms ,YYYY-MO-DD HH-MI-SS_SSS
2.1277,9.8122,0.7658,0.0224,-0.3021,-0.2797,0.0933,0.0325,-0.0661,3,2019-08-07 16:58:42:005
2.1612,9.7693,0.6856,-0.0529,-0.2121,-0.0128,0.0933,0.0325,-0.0661,7,2019-08-07 16:58:42:009
2.1612,9.7693,0.6856,-0.0529,-0.2121,-0.0128,0.0997,0.0484,-0.0608,13,2019-08-07 16:58:42:015
2.1038,9.5879,0.7469,-0.0529,-0.2121,-0.0128,0.0997,0.0484,-0.0608,17,2019-08-07 16:58:42:019
2.1038,9.5879,0.7469,-0.0529,-0.2121,-0.0128,0.0997,0.0484,-0.0608,23,2019-08-07 16:58:42:025
2.1038,9.5879,0.7469,0.0013,-0.127,-0.1614,0.0965,0.0282,-0.065,28,2019-08-07 16:58:42:030
2.0846,9.7359,0.8412,0.0013,-0.127,-0.1614,0.0965,0.0282,-0.065,33,2019-08-07 16:58:42:035
2.0846,9.7359,0.8412,0.0013,-0.127,-0.1614,0.0965,0.0282,-0.065,37,2019-08-07 16:58:42:039
2.1468,9.7072,0.7563,0.0013,-0.127,-0.1614,0.1018,0.009,-0.0682,43,2019-08-07 16:58:42:045
2.1468,9.7072,0.7563,-0.131,-0.1756,-0.0564,0.1018,0.009,-0.0682,47,2019-08-07 16:58:42:049
2.1468,9.7072,0.7563,-0.131,-0.1756,-0.0564,0.1071,0.0175,-0.0693,53,2019-08-07 16:58:42:055
2.252,9.6977,0.6149,-0.131,-0.1756,-0.0564,0.1071,0.0175,-0.0693,57,2019-08-07 16:58:42:059
2.252,9.6977,0.6149,-0.131,-0.1756,-0.0564,0.1007,0.0516,-0.0704,63,2019-08-07 16:58:42:065
2.252,9.6977,0.6149,-0.0293,-0.2288,-0.0604,0.1007,0.0516,-0.0704,68,2019-08-07 16:58:42:070
2.0989,9.8409,0.629,-0.0293,-0.2288,-0.0604,0.1007,0.0847,-0.0693,73,2019-08-07 16:58:42:075
2.0989,9.8409,0.629,-0.0293,-0.2288,-0.0604,0.1007,0.0847,-0.0693,78,2019-08-07 16:58:42:080
1.9744,9.8361,0.6102,-0.0293,-0.2288,-0.0604,0.0858,0.0793,-0.0565,83,2019-08-07 16:58:42:085
1.9744,9.8361,0.6102,0.0857,-0.3346,0.0615,0.0858,0.0793,-0.0565,87,2019-08-07 16:58:42:089
1.9744,9.8361,0.6102,0.0857,-0.3346,0.0615,0.0858,0.0793,-0.0565,92,2019-08-07 16:58:42:094
1.9601,9.8743,0.5065,0.0857,-0.3346,0.0615,0.073,0.0719,-0.0565,98,2019-08-07 16:58:42:100
1.9601,9.8743,0.5065,0.0857,-0.3346,0.0615,0.073,0.0719,-0.0565,102,2019-08-07 16:58:42:104
1.8978,10.0748,0.6149,0.1438,-0.498,-0.0205,0.0634,0.0634,-0.0586,108,2019-08-07 16:58:42:110
1.8978,10.0748,0.6149,0.1438,-0.498,-0.0205,0.0634,0.0634,-0.0586,112,2019-08-07 16:58:42:114
1.8978,10.0748,0.6149,0.1438,-0.498,-0.0205,0.0517,0.042,-0.0544,118,2019-08-07 16:58:42:120
1.9743,9.9173,0.5866,0.1438,-0.498,-0.0205,0.0517,0.042,-0.0544,123,2019-08-07 16:58:42:125
1.9743,9.9173,0.5866,0.1438,-0.498,-0.0205,0.0432,0.0335,-0.0469,128,2019-08-07 16:58:42:130
1.9073,9.8218,0.5913,0.0841,-0.2134,0.0137,0.0432,0.0335,-0.0469,133,2019-08-07 16:58:42:135
1.9073,9.8218,0.5913,0.0841,-0.2134,0.0137,0.0336,0.0314,-0.0416,137,2019-08-07 16:58:42:139
1.8977,9.8314,0.629,0.0841,-0.2134,0.0137,0.0336,0.0314,-0.0416,144,2019-08-07 16:58:42:146
1.8977,9.8314,0.629,0.1317,-0.2396,-0.1237,0.0294,0.0175,-0.0373,148,2019-08-07 16:58:42:150
1.8977,9.8314,0.629,0.1317,-0.2396,-0.1237,0.0294,0.0175,-0.0373,152,2019-08-07 16:58:42:154
1.8977,9.8314,0.629,0.1317,-0.2396,-0.1237,0.0294,0.0175,-0.0373,158,2019-08-07 16:58:42:160
1.9551,9.8123,0.6997,0.0605,-0.229,-0.121,0.0283,-6.0E-4,-0.0384,163,2019-08-07 16:58:42:165
1.9551,9.8123,0.6997,0.0605,-0.229,-0.121,0.0283,-6.0E-4,-0.0384,168,2019-08-07 16:58:42:170
2.1082,9.7789,0.7892,0.0605,-0.229,-0.121,0.0304,-0.0219,-0.0373,172,2019-08-07 16:58:42:174
2.1082,9.7789,0.7892,-0.195,-0.1271,-0.2438,0.0304,-0.0219,-0.0373,178,2019-08-07 16:58:42:180
2.1082,9.7789,0.7892,-0.195,-0.1271,-0.2438,0.0443,-0.008,-0.0437,183,2019-08-07 16:58:42:185
2.266,9.6356,0.7704,-0.195,-0.1271,-0.2438,0.0443,-0.008,-0.0437,187,2019-08-07 16:58:42:189
2.266,9.6356,0.7704,-0.195,-0.1271,-0.2438,0.0528,0.0218,-0.0501,193,2019-08-07 16:58:42:195
2.2325,9.6118,0.6243,-0.2312,-0.0247,-0.0587,0.0528,0.0218,-0.0501,198,2019-08-07 16:58:42:200
2.2325,9.6118,0.6243,-0.2312,-0.0247,-0.0587,0.0539,0.0484,-0.0469,202,2019-08-07 16:58:42:204
2.2325,9.6118,0.6243,-0.2312,-0.0247,-0.0587,0.0539,0.0484,-0.0469,208,2019-08-07 16:58:42:210
1.9933,9.6929,0.6431,-0.2312,-0.0247,-0.0587,0.056,0.0697,-0.0533,212,2019-08-07 16:58:42:214
1.9933,9.6929,0.6431,0.098,-0.1224,-0.1229,0.056,0.0697,-0.0533,218,2019-08-07 16:58:42:220
1.9933,9.6929,0.6431,0.098,-0.1224,-0.1229,0.056,0.0697,-0.0533,222,2019-08-07 16:58:42:224
1.931,9.7073,0.6808,0.098,-0.1224,-0.1229,0.0581,0.0623,-0.048,228,2019-08-07 16:58:42:230
1.931,9.7073,0.6808,0.098,-0.1224,-0.1229,0.0453,0.0112,-0.0469,233,2019-08-07 16:58:42:235
1.9932,9.7836,0.4687,0.098,-0.1224,-0.1229,0.0453,0.0112,-0.0469,237,2019-08-07 16:58:42:239
1.9932,9.7836,0.4687,-0.027,-0.2105,0.076,0.0453,0.0112,-0.0469,243,2019-08-07 16:58:42:245
1.9932,9.7836,0.4687,-0.027,-0.2105,0.076,0.0379,0.0069,-0.0501,247,2019-08-07 16:58:42:249
2.0171,9.9364,0.5488,-0.027,-0.2105,0.076,0.0379,0.0069,-0.0501,253,2019-08-07 16:58:42:255
2.0171,9.9364,0.5488,-0.027,-0.2105,0.076,0.0368,0.0165,-0.0512,257,2019-08-07 16:58:42:259
1.9596,9.9746,0.6808,9.0E-4,-0.3893,-0.1524,0.0368,0.0165,-0.0512,263,2019-08-07 16:58:42:265
1.9596,9.9746,0.6808,9.0E-4,-0.3893,-0.1524,0.0379,0.0037,-0.0523,268,2019-08-07 16:58:42:270
1.9596,9.9746,0.6808,9.0E-4,-0.3893,-0.1524,0.0379,0.0037,-0.0523,272,2019-08-07 16:58:42:274
1.9692,9.9125,0.6996,9.0E-4,-0.3893,-0.1524,0.0326,0.0069,-0.0597,278,2019-08-07 16:58:42:280
1.9692,9.9125,0.6996,-0.001,-0.2482,-0.2289,0.0326,0.0069,-0.0597,282,2019-08-07 16:58:42:284
1.9692,9.9125,0.6996,-0.001,-0.2482,-0.2289,0.0485,0.0271,-0.065,288,2019-08-07 16:58:42:290
1.9931,9.798,1.0343,-0.001,-0.2482,-0.2289,0.0485,0.0271,-0.065,293,2019-08-07 16:58:42:295
1.9931,9.798,1.0343,-0.001,-0.2482,-0.2289,0.073,-0.0016,-0.0682,298,2019-08-07 16:58:42:300
2.1557,9.6834,0.8835,-0.1382,-0.1307,-0.4801,0.073,-0.0016,-0.0682,303,2019-08-07 16:58:42:305
2.1557,9.6834,0.8835,-0.1382,-0.1307,-0.4801,0.073,-0.0336,-0.0597,308,2019-08-07 16:58:42:310
2.1557,9.6834,0.8835,-0.1382,-0.1307,-0.4801,0.073,-0.0336,-0.0597,313,2019-08-07 16:58:42:315
2.3805,9.6166,0.3649,-0.1382,-0.1307,-0.4801,0.073,0.041,-0.0693,318,2019-08-07 16:58:42:320
2.3805,9.6166,0.3649,-0.4489,-0.0994,0.3349,0.073,0.041,-0.0693,322,2019-08-07 16:58:42:324
2.2705,9.7312,0.2047,-0.4489,-0.0994,0.3349,0.0826,0.1571,-0.0789,328,2019-08-07 16:58:42:330
2.2705,9.7312,0.2047,-0.4489,-0.0994,0.3349,0.0826,0.1571,-0.0789,333,2019-08-07 16:58:42:335
2.2705,9.7312,0.2047,-0.4489,-0.0994,0.3349,0.0752,0.1731,-0.0704,338,2019-08-07 16:58:42:340
1.7681,9.755,0.4215,0.1528,-0.1482,0.0837,0.0752,0.1731,-0.0704,343,2019-08-07 16:58:42:345
1.7681,9.755,0.4215,0.1528,-0.1482,0.0837,0.0528,0.0974,-0.0555,348,2019-08-07 16:58:42:350
1.4475,9.8696,0.5016,0.1528,-0.1482,0.0837,0.0528,0.0974,-0.0555,352,2019-08-07 16:58:42:354
1.4475,9.8696,0.5016,0.1528,-0.1482,0.0837,0.0528,0.0974,-0.0555,358,2019-08-07 16:58:42:360
1.4475,9.8696,0.5016,0.4202,-0.3024,-0.0505,0.0379,0.0154,-0.0427,362,2019-08-07 16:58:42:364
1.524,9.9746,0.61,0.4202,-0.3024,-0.0505,0.0379,0.0154,-0.0427,368,2019-08-07 16:58:42:370
1.524,9.9746,0.61,0.4202,-0.3024,-0.0505,0.0336,-0.0528,-0.0352,373,2019-08-07 16:58:42:375
1.7728,9.9317,0.7467,0.4202,-0.3024,-0.0505,0.0336,-0.0528,-0.0352,378,2019-08-07 16:58:42:380
1.7728,9.9317,0.7467,0.1052,-0.329,-0.2644,0.0315,-0.0879,-0.0267,382,2019-08-07 16:58:42:384
1.7728,9.9317,0.7467,0.1052,-0.329,-0.2644,0.0315,-0.0879,-0.0267,388,2019-08-07 16:58:42:390
1.7728,9.9317,0.7467,0.1052,-0.329,-0.2644,0.0315,-0.0879,-0.0267,392,2019-08-07 16:58:42:394
1.9737,9.8648,0.676,-0.0789,-0.2519,-0.1886,0.0368,-0.089,-0.0224,398,2019-08-07 16:58:42:400
1.9737,9.8648,0.676,-0.0789,-0.2519,-0.1886,0.0368,-0.089,-0.0224,402,2019-08-07 16:58:42:404
2.0454,9.7885,0.7137,-0.0789,-0.2519,-0.1886,0.039,-0.0538,-0.0331,408,2019-08-07 16:58:42:410
2.0454,9.7885,0.7137,-0.1547,-0.2316,-0.3056,0.039,-0.0538,-0.0331,413,2019-08-07 16:58:42:415
2.0454,9.7885,0.7137,-0.1547,-0.2316,-0.3056,0.056,-0.0432,-0.0384,418,2019-08-07 16:58:42:420
1.9927,9.798,0.7985,-0.1547,-0.2316,-0.3056,0.056,-0.0432,-0.0384,423,2019-08-07 16:58:42:425
1.9927,9.798,0.7985,-0.1547,-0.2316,-0.3056,0.0624,-0.0528,-0.0373,428,2019-08-07 16:58:42:430
2.074,9.8696,0.5676,-0.1898,-0.2536,-0.1001,0.0624,-0.0528,-0.0373,433,2019-08-07 16:58:42:435
2.074,9.8696,0.5676,-0.1898,-0.2536,-0.1001,0.0624,-0.0528,-0.0373,437,2019-08-07 16:58:42:439
2.074,9.8696,0.5676,-0.1898,-0.2536,-0.1001,0.0677,-0.0336,-0.0491,444,2019-08-07 16:58:42:446
2.1171,9.7598,0.4167,-0.1898,-0.2536,-0.1001,0.0677,-0.0336,-0.0491,448,2019-08-07 16:58:42:450
2.1171,9.7598,0.4167,-0.2836,0.0302,-0.0676,0.0794,-0.008,-0.0576,453,2019-08-07 16:58:42:455
2.1171,9.7598,0.4167,-0.2836,0.0302,-0.0676,0.0794,-0.008,-0.0576,458,2019-08-07 16:58:42:460
2.1218,9.4591,0.5204,-0.2836,0.0302,-0.0676,0.0848,-0.008,-0.0544,462,2019-08-07 16:58:42:464
2.1218,9.4591,0.5204,-0.2212,0.1508,0.0423,0.0848,-0.008,-0.0544,468,2019-08-07 16:58:42:470
1.9735,9.4877,0.2376,-0.2212,0.1508,0.0423,0.0698,0.0197,-0.0491,473,2019-08-07 16:58:42:475
1.9735,9.4877,0.2376,-0.2212,0.1508,0.0423,0.0698,0.0197,-0.0491,478,2019-08-07 16:58:42:480
1.9735,9.4877,0.2376,0.037,-0.1713,0.0335,0.056,0.0697,-0.0555,482,2019-08-07 16:58:42:484
1.7534,9.8696,0.3978,0.037,-0.1713,0.0335,0.056,0.0697,-0.0555,488,2019-08-07 16:58:42:490
1.7534,9.8696,0.3978,0.037,-0.1713,0.0335,0.0592,0.0442,-0.0501,494,2019-08-07 16:58:42:496
1.5955,10.1465,0.7891,0.037,-0.1713,0.0335,0.0592,0.0442,-0.0501,497,2019-08-07 16:58:42:499
1.5955,10.1465,0.7891,0.25,-0.4646,-0.3192,0.0592,0.0442,-0.0501,503,2019-08-07 16:58:42:505
1.5955,10.1465,0.7891,0.25,-0.4646,-0.3192,0.0698,-0.0645,-0.0395,507,2019-08-07 16:58:42:509
1.7007,10.051,0.6382,0.25,-0.4646,-0.3192,0.0698,-0.0645,-0.0395,513,2019-08-07 16:58:42:515
1.7007,10.051,0.6382,0.25,-0.4646,-0.3192,0.0762,-0.0954,-0.0341,517,2019-08-07 16:58:42:519
1.8633,9.9222,0.6806,-0.0206,-0.2954,-0.2731,0.0762,-0.0954,-0.0341,523,2019-08-07 16:58:42:525
1.8633,9.9222,0.6806,-0.0206,-0.2954,-0.2731,0.0794,-0.089,-0.0331,528,2019-08-07 16:58:42:530
1.8633,9.9222,0.6806,-0.0206,-0.2954,-0.2731,0.0794,-0.089,-0.0331,533,2019-08-07 16:58:42:535
1.9303,9.9078,0.9729,-0.0206,-0.2954,-0.2731,0.0933,-0.138,-0.031,538,2019-08-07 16:58:42:540
1.9303,9.9078,0.9729,-0.0206,-0.2954,-0.2731,0.0933,-0.138,-0.031,542,2019-08-07 16:58:42:544
2.0116,10.0749,0.6524,-0.1308,-0.3271,-0.3519,0.0826,-0.1593,-0.0288,548,2019-08-07 16:58:42:550
2.0116,10.0749,0.6524,-0.1308,-0.3271,-0.3519,0.0826,-0.1593,-0.0288,553,2019-08-07 16:58:42:555
2.0116,10.0749,0.6524,-0.1308,-0.3271,-0.3519,0.0826,-0.1593,-0.0288,557,2019-08-07 16:58:42:559
2.222,10.495,0.6429,-0.3414,-0.8172,-0.1799,0.0464,-0.1145,-0.0459,563,2019-08-07 16:58:42:565
2.222,10.495,0.6429,-0.3414,-0.8172,-0.1799,0.0464,-0.1145,-0.0459,567,2019-08-07 16:58:42:569
2.2364,10.3232,0.4496,-0.3414,-0.8172,-0.1799,-0.0314,-0.09,-0.0672,573,2019-08-07 16:58:42:575
2.2364,10.3232,0.4496,-0.3414,-0.8172,-0.1799,-0.0314,-0.09,-0.0672,577,2019-08-07 16:58:42:579
2.2364,10.3232,0.4496,-0.3414,-0.8172,-0.1799,-0.0559,-0.1252,-0.0736,582,2019-08-07 16:58:42:584
1.9254,10.2898,0.6523,-0.199,-0.7628,-0.4548,-0.0559,-0.1252,-0.0736,588,2019-08-07 16:58:42:590
1.9254,10.2898,0.6523,-0.199,-0.7628,-0.4548,-0.0548,-0.2605,-0.0533,594,2019-08-07 16:58:42:596
1.9254,10.2898,0.6523,-0.199,-0.7628,-0.4548,-0.0548,-0.2605,-0.0533,597,2019-08-07 16:58:42:599
1.777,9.8124,0.6052,-0.199,-0.7628,-0.4548,-0.0548,-0.2605,-0.0533,603,2019-08-07 16:58:42:605
1.777,9.8124,0.6052,0.0171,-0.0642,-0.2986,-0.0015,-0.3926,-0.0448,608,2019-08-07 16:58:42:610
1.8057,9.8792,0.4638,0.0171,-0.0642,-0.2986,-0.0015,-0.3926,-0.0448,613,2019-08-07 16:58:42:615
1.8057,9.8792,0.4638,0.0171,-0.0642,-0.2986,0.0645,-0.4544,-0.0437,618,2019-08-07 16:58:42:620
1.8057,9.8792,0.4638,0.0171,-0.0642,-0.2986,0.0645,-0.4544,-0.0437,622,2019-08-07 16:58:42:624
2.0066,9.7694,-0.4837,-0.1984,-0.1339,0.8343,0.0379,-0.4448,-0.0459,628,2019-08-07 16:58:42:630
2.0066,9.7694,-0.4837,-0.1984,-0.1339,0.8343,0.0379,-0.4448,-0.0459,633,2019-08-07 16:58:42:635
2.0066,9.7694,-0.4837,-0.1984,-0.1339,0.8343,0.1284,-0.2786,-0.1396,637,2019-08-07 16:58:42:639
2.3654,10.2563,0.6099,-0.1984,-0.1339,0.8343,0.1284,-0.2786,-0.1396,644,2019-08-07 16:58:42:646
2.3654,10.2563,0.6099,-0.5579,-0.8461,-0.5496,0.1924,-0.2094,-0.1364,648,2019-08-07 16:58:42:650
2.6093,10.5189,1.185,-0.5579,-0.8461,-0.5496,0.1924,-0.2094,-0.1364,653,2019-08-07 16:58:42:655
2.6093,10.5189,1.185,-0.5579,-0.8461,-0.5496,0.2659,-0.1039,-0.1705,658,2019-08-07 16:58:42:660
2.6093,10.5189,1.185,-0.5579,-0.8461,-0.5496,0.2659,-0.1039,-0.1705,662,2019-08-07 16:58:42:664
2.6428,10.7242,1.9957,-0.8755,-1.0786,-1.7203,0.3841,0.0516,-0.228,668,2019-08-07 16:58:42:670
2.6428,10.7242,1.9957,-0.8755,-1.0786,-1.7203,0.3841,0.0516,-0.228,672,2019-08-07 16:58:42:674
2.7002,11.0249,3.3722,-0.9533,-1.3748,-3.1268,0.481,0.058,-0.2312,678,2019-08-07 16:58:42:680
2.7002,11.0249,3.3722,-0.9533,-1.3748,-3.1268,0.481,0.058,-0.2312,683,2019-08-07 16:58:42:685
2.7002,11.0249,3.3722,-0.9533,-1.3748,-3.1268,0.7474,-0.09,-0.1865,687,2019-08-07 16:58:42:689
3.4608,10.729,3.6408,-0.9533,-1.3748,-3.1268,0.7474,-0.09,-0.1865,693,2019-08-07 16:58:42:695
3.4608,10.729,3.6408,-2.3342,-0.7035,-4.1847,0.8997,-0.0613,-0.2504,698,2019-08-07 16:58:42:700
4.609,10.3853,5.4981,-2.3342,-0.7035,-4.1847,0.8997,-0.0613,-0.2504,702,2019-08-07 16:58:42:704
4.609,10.3853,5.4981,-2.3342,-0.7035,-4.1847,0.8997,-0.0613,-0.2504,708,2019-08-07 16:58:42:710
4.609,10.3853,5.4981,-2.3342,-0.7035,-4.1847,1.0446,-0.1103,-0.3292,713,2019-08-07 16:58:42:715
5.1448,11.3973,8.4678,-3.4716,-1.7311,-8.4882,1.0446,-0.1103,-0.3292,718,2019-08-07 16:58:42:720
5.1448,11.3973,8.4678,-3.4716,-1.7311,-8.4882,1.133,-0.6024,-0.2323,722,2019-08-07 16:58:42:724
6.5992,11.9558,7.0253,-3.4716,-1.7311,-8.4882,1.133,-0.6024,-0.2323,728,2019-08-07 16:58:42:730
6.5992,11.9558,7.0253,-3.4716,-1.7311,-8.4882,1.1415,-0.6003,0.1086,733,2019-08-07 16:58:42:735
6.5992,11.9558,7.0253,-4.7192,-1.3996,-6.0552,1.1415,-0.6003,0.1086,738,2019-08-07 16:58:42:740
4.8242,11.0966,7.6475,-4.7192,-1.3996,-6.0552,1.0648,0.4895,0.0937,742,2019-08-07 16:58:42:744
4.8242,11.0966,7.6475,-4.7192,-1.3996,-6.0552,1.0648,0.4895,0.0937,748,2019-08-07 16:58:42:750
4.8242,11.0966,7.6475,-4.7192,-1.3996,-6.0552,0.7804,0.3148,0.2375,753,2019-08-07 16:58:42:755
1.7144,11.2827,13.2098,-0.002,-1.6296,-13.5557,0.7804,0.3148,0.2375,758,2019-08-07 16:58:42:760
1.7144,11.2827,13.2098,-0.002,-1.6296,-13.5557,0.7804,0.3148,0.2375,762,2019-08-07 16:58:42:764
1.3508,10.223,11.7391,-0.002,-1.6296,-13.5557,0.4683,-0.465,0.3248,768,2019-08-07 16:58:42:770
1.3508,10.223,11.7391,-0.002,-1.6296,-13.5557,0.4683,-0.465,0.3248,772,2019-08-07 16:58:42:774
1.3508,10.223,11.7391,-0.1043,0.1055,-12.7039,0.1529,-0.4469,0.3909,778,2019-08-07 16:58:42:780
2.2167,9.3494,12.7432,-0.1043,0.1055,-12.7039,0.1529,-0.4469,0.3909,783,2019-08-07 16:58:42:785
2.2167,9.3494,12.7432,-0.1043,0.1055,-12.7039,-0.2785,-0.5502,0.4218,787,2019-08-07 16:58:42:789
2.2167,8.7622,12.597,-0.1043,0.1055,-12.7039,-0.2785,-0.5502,0.4218,793,2019-08-07 16:58:42:795
2.1258,8.7622,12.597,-0.2159,0.91,-12.5514,-0.5938,-0.6333,0.4015,798,2019-08-07 16:58:42:800
2.1258,8.7622,12.597,-0.2159,0.91,-12.5514,-0.5938,-0.6333,0.4015,802,2019-08-07 16:58:42:804
1.6138,8.7144,11.1687,-0.2159,0.91,-12.5514,-0.5938,-0.6333,0.4015,808,2019-08-07 16:58:42:810
1.6138,8.7144,11.1687,-0.2159,0.91,-12.5514,-0.94,-0.4288,0.4101,812,2019-08-07 16:58:42:814
1.6138,8.7144,11.1687,-0.0194,0.918,-11.7904,-0.94,-0.4288,0.4101,818,2019-08-07 16:58:42:820
1.6999,8.7383,11.9276,-0.0194,0.918,-11.7904,-1.299,-0.3841,0.3738,822,2019-08-07 16:58:42:824
1.6999,8.7383,11.9276,-0.0194,0.918,-11.7904,-1.5792,-0.2871,0.4005,829,2019-08-07 16:58:42:831
1.4081,9.1059,9.632,-0.0194,0.918,-11.7904,-1.5792,-0.2871,0.4005,833,2019-08-07 16:58:42:835
1.4081,9.1059,9.632,0.4365,0.8093,-9.5997,-1.5792,-0.2871,0.4005,838,2019-08-07 16:58:42:840
1.4081,9.1059,9.632,0.4365,0.8093,-9.5997,-1.8551,-0.1348,0.4452,842,2019-08-07 16:58:42:844
1.5181,8.7288,9.3869,0.4365,0.8093,-9.5997,-1.8551,-0.1348,0.4452,848,2019-08-07 16:58:42:850
1.5181,8.7288,9.3869,0.4365,0.8093,-9.5997,-2.0468,0.0442,0.4452,852,2019-08-07 16:58:42:854
1.5181,8.7288,9.3869,0.4365,0.8093,-9.5997,-2.0468,0.0442,0.4452,858,2019-08-07 16:58:42:860
1.3458,9.0057,8.1707,0.7389,0.5555,-7.4818,-2.1672,0.1752,0.4644,862,2019-08-07 16:58:42:864
1.3458,9.0057,8.1707,0.7389,0.5555,-7.4818,-2.1672,0.1752,0.4644,868,2019-08-07 16:58:42:870
1.3649,9.4449,7.1007,0.7389,0.5555,-7.4818,-2.2855,0.351,0.458,873,2019-08-07 16:58:42:875
1.3649,9.4449,7.1007,0.6961,-0.0491,-5.6578,-2.2855,0.351,0.458,877,2019-08-07 16:58:42:879
1.3649,9.4449,7.1007,0.6961,-0.0491,-5.6578,-2.2982,0.4287,0.4282,883,2019-08-07 16:58:42:885
1.6137,10.0225,6.1485,0.6961,-0.0491,-5.6578,-2.2982,0.4287,0.4282,887,2019-08-07 16:58:42:889
1.6137,10.0225,6.1485,0.6961,-0.0491,-5.6578,-2.2301,0.499,0.3909,894,2019-08-07 16:58:42:896
1.6584,10.8386,4.5037,0.5609,-1.4282,-2.8439,-2.2301,0.499,0.3909,898,2019-08-07 16:58:42:900
1.6584,10.8386,4.5037,0.5609,-1.4282,-2.8439,-2.2077,0.4,0.4005,902,2019-08-07 16:58:42:904
1.6584,10.8386,4.5037,0.5609,-1.4282,-2.8439,-2.2077,0.4,0.4005,908,2019-08-07 16:58:42:910
2.1799,10.2419,1.6142,0.0673,-0.8799,0.267,-2.3249,0.4085,0.3589,913,2019-08-07 16:58:42:915
2.1799,10.2419,1.6142,0.0673,-0.8799,0.267,-2.3249,0.4085,0.3589,918,2019-08-07 16:58:42:920
3.1032,9.9364,0.596,0.0673,-0.8799,0.267,-2.3451,0.6184,0.2971,923,2019-08-07 16:58:42:925
3.1032,9.9364,0.596,0.0673,-0.8799,0.267,-2.3451,0.6184,0.2971,928,2019-08-07 16:58:42:930
3.1032,9.9364,0.596,-1.044,-0.7167,1.9162,-2.311,0.9081,0.328,933,2019-08-07 16:58:42:935
3.7156,9.9173,0.6572,-1.044,-0.7167,1.9162,-2.311,0.9081,0.328,938,2019-08-07 16:58:42:940
3.7156,9.9173,0.6572,-1.044,-0.7167,1.9162,-2.2535,1.1318,0.3717,943,2019-08-07 16:58:42:945
3.7156,9.9173,0.6572,-1.044,-0.7167,1.9162,-2.2535,1.1318,0.3717,948,2019-08-07 16:58:42:950
3.7921,9.3158,0.8364,-1.4758,-0.2008,1.9542,-2.1725,1.4961,0.3621,953,2019-08-07 16:58:42:955
3.7921,9.3158,0.8364,-1.4758,-0.2008,1.9542,-2.1725,1.4961,0.3621,958,2019-08-07 16:58:42:960
2.8114,8.8241,0.8835,-1.4758,-0.2008,1.9542,-2.1725,1.4961,0.3621,963,2019-08-07 16:58:42:965
2.8114,8.8241,0.8835,-1.4758,-0.2008,1.9542,-2.0926,1.6208,0.3472,967,2019-08-07 16:58:42:969
2.8114,8.8241,0.8835,-0.0666,0.4573,2.7274,-2.0926,1.6208,0.3472,973,2019-08-07 16:58:42:975
1.955,8.4326,0.464,-0.0666,0.4573,2.7274,-2.0127,1.6272,0.278,977,2019-08-07 16:58:42:979
1.955,8.4326,0.464,-0.0666,0.4573,2.7274,-2.0127,1.6272,0.278,983,2019-08-07 16:58:42:985
1.955,8.4326,0.464,-0.0666,0.4573,2.7274,-1.8647,1.4748,0.2524,987,2019-08-07 16:58:42:989
1.089,7.9553,-0.2431,1.1405,0.8763,3.8857,-1.8647,1.4748,0.2524,993,2019-08-07 16:58:42:995
1.089,7.9553,-0.2431,1.1405,0.8763,3.8857,-1.7347,1.3821,0.2407,998,2019-08-07 16:58:43:000
1.0507,7.3013,-0.7946,1.1405,0.8763,3.8857,-1.7347,1.3821,0.2407,1003,2019-08-07 16:58:43:005
1.0507,7.3013,-0.7946,1.1405,0.8763,3.8857,-1.7347,1.3821,0.2407,1007,2019-08-07 16:58:43:009
1.0507,7.3013,-0.7946,1.3623,1.4707,5.1411,-1.5792,1.2895,0.1906,1013,2019-08-07 16:58:43:015
0.8067,7.0864,-1.5724,1.3623,1.4707,5.1411,-1.5792,1.2895,0.1906,1018,2019-08-07 16:58:43:020
0.8067,7.0864,-1.5724,1.3623,1.4707,5.1411,-1.3992,1.1222,0.1523,1022,2019-08-07 16:58:43:024
0.6919,6.2033,-2.732,1.3623,1.4707,5.1411,-1.3992,1.1222,0.1523,1028,2019-08-07 16:58:43:030
0.6919,6.2033,-2.732,1.2799,2.589,7.5615,-1.2223,1.0295,0.1331,1032,2019-08-07 16:58:43:034
0.6919,6.2033,-2.732,1.2799,2.589,7.5615,-1.2223,1.0295,0.1331,1038,2019-08-07 16:58:43:040
1.0316,5.9789,-4.6081,1.2799,2.589,7.5615,-1.1105,0.9667,0.1246,1044,2019-08-07 16:58:43:046
1.0316,5.9789,-4.6081,1.2799,2.589,7.5615,-1.1105,0.9667,0.1246,1047,2019-08-07 16:58:43:049
1.2229,5.4681,-6.2768,0.7967,3.0011,10.5393,-1.0306,1.0722,0.0468,1053,2019-08-07 16:58:43:055
1.2229,5.4681,-6.2768,0.7967,3.0011,10.5393,-1.0306,1.0722,0.0468,1057,2019-08-07 16:58:43:059
1.2229,5.4681,-6.2768,0.7967,3.0011,10.5393,-0.9816,1.184,-0.0533,1063,2019-08-07 16:58:43:065
1.0029,6.3179,-2.5906,0.7967,3.0011,10.5393,-0.9816,1.184,-0.0533,1068,2019-08-07 16:58:43:070
1.0029,6.3179,-2.5906,0.5596,2.5452,5.3408,-0.9816,1.184,-0.0533,1072,2019-08-07 16:58:43:074
2.5864,4.6948,0.2754,0.5596,2.5452,5.3408,-0.3275,0.7227,0.0745,1079,2019-08-07 16:58:43:081
2.5864,4.6948,0.2754,0.5596,2.5452,5.3408,-0.3275,0.7227,0.0745,1083,2019-08-07 16:58:43:085
2.5864,4.6948,0.2754,-2.6081,5.5884,4.5013,1.6645,0.3638,-0.3122,1088,2019-08-07 16:58:43:090
7.5955,3.148,-5.9562,-2.6081,5.5884,4.5013,1.6645,0.3638,-0.3122,1093,2019-08-07 16:58:43:095
7.5955,3.148,-5.9562,-2.6081,5.5884,4.5013,1.6645,0.3638,-0.3122,1098,2019-08-07 16:58:43:100
7.5955,3.148,-5.9562,-8.0064,-5.125,12.025,2.8512,-0.7388,-0.7255,1103,2019-08-07 16:58:43:105
7.8539,24.678,-8.893,-8.0064,-5.125,12.025,2.8512,-0.7388,-0.7255,1108,2019-08-07 16:58:43:110
7.8539,24.678,-8.893,-8.0064,-5.125,12.025,3.8004,-2.4965,-0.8757,1112,2019-08-07 16:58:43:114
7.8539,24.678,-8.893,-8.0064,-5.125,12.025,3.8004,-2.4965,-0.8757,1118,2019-08-07 16:58:43:120
-1.0783,47.2581,-8.8977,5.703,-30.2449,-14.9431,0.4011,-0.0858,-0.3761,1123,2019-08-07 16:58:43:125
-1.0783,47.2581,-8.8977,5.703,-30.2449,-14.9431,0.4011,-0.0858,-0.3761,1128,2019-08-07 16:58:43:130
3.6533,21.0928,-4.8202,5.703,-30.2449,-14.9431,3.7003,2.343,0.7648,1133,2019-08-07 16:58:43:135
3.6533,21.0928,-4.8202,5.703,-30.2449,-14.9431,3.7003,2.343,0.7648,1138,2019-08-07 16:58:43:140
3.6533,21.0928,-4.8202,5.703,-30.2449,-14.9431,3.7003,2.343,0.7648,1142,2019-08-07 16:58:43:144
3.8255,11.7505,-13.5361,-1.9424,-2.6231,16.5991,4.9029,1.9265,0.8021,1148,2019-08-07 16:58:43:150
3.8255,11.7505,-13.5361,-1.9424,-2.6231,16.5991,4.9029,1.9265,0.8021,1153,2019-08-07 16:58:43:155
-3.9537,16.1328,0.7279,-1.9424,-2.6231,16.5991,4.0156,2.0852,-0.1822,1158,2019-08-07 16:58:43:160
-3.9537,16.1328,0.7279,5.1806,3.8928,-15.3564,4.0156,2.0852,-0.1822,1163,2019-08-07 16:58:43:165
-3.9537,16.1328,0.7279,5.1806,3.8928,-15.3564,0.0752,-3.8344,-0.3921,1167,2019-08-07 16:58:43:169
-4.6378,3.6302,21.1057,5.1806,3.8928,-15.3564,0.0752,-3.8344,-0.3921,1173,2019-08-07 16:58:43:175
-4.6378,3.6302,21.1057,5.1806,3.8928,-15.3564,2.7682,-3.0941,-0.1204,1178,2019-08-07 16:58:43:180
-4.1403,5.7211,-13.4748,5.1806,3.8928,-15.3564,2.7682,-3.0941,-0.1204,1183,2019-08-07 16:58:43:185
-4.1403,5.7211,-13.4748,2.0898,3.6137,17.2436,2.3144,-1.2714,0.9139,1187,2019-08-07 16:58:43:189
-4.1403,5.7211,-13.4748,2.0898,3.6137,17.2436,2.3144,-1.2714,0.9139,1193,2019-08-07 16:58:43:195
9.0307,9.4543,-19.6169,2.0898,3.6137,17.2436,0.6983,-1.199,0.8894,1198,2019-08-07 16:58:43:200
9.0307,9.4543,-19.6169,-8.6409,-7.6196,20.7566,0.6983,-1.199,0.8894,1203,2019-08-07 16:58:43:205
9.0307,9.4543,-19.6169,-8.6409,-7.6196,20.7566,0.6983,-1.199,0.8894,1207,2019-08-07 16:58:43:209
8.9542,19.5795,-19.9751,-8.6409,-7.6196,20.7566,-0.2359,-0.5726,-0.1833,1213,2019-08-07 16:58:43:215
8.9542,19.5795,-19.9751,-8.6409,-7.6196,20.7566,-0.2359,-0.5726,-0.1833,1218,2019-08-07 16:58:43:220
3.6723,10.2563,-2.0202,-1.5825,-0.794,3.5482,1.7274,1.8487,0.0894,1223,2019-08-07 16:58:43:225
3.6723,10.2563,-2.0202,-1.5825,-0.794,3.5482,1.7274,1.8487,0.0894,1228,2019-08-07 16:58:43:230
3.6723,10.2563,-2.0202,-1.5825,-0.794,3.5482,1.7274,1.8487,0.0894,1232,2019-08-07 16:58:43:234
-2.0113,11.1728,1.4915,-1.5825,-0.794,3.5482,-0.1709,1.1712,-0.2547,1238,2019-08-07 16:58:43:240
-2.0113,11.1728,1.4915,-1.5825,-0.794,3.5482,-0.1709,1.1712,-0.2547,1242,2019-08-07 16:58:43:244
-2.0113,11.1728,1.4915,3.7418,-2.7409,-1.2262,-0.2199,-0.6738,-0.0618,1248,2019-08-07 16:58:43:250
-1.2411,12.3376,-2.4445,3.7418,-2.7409,-1.2262,-0.2199,-0.6738,-0.0618,1252,2019-08-07 16:58:43:254
-1.2411,12.3376,-2.4445,3.7418,-2.7409,-1.2262,-0.548,-1.1425,0.1757,1258,2019-08-07 16:58:43:260
1.8734,10.4854,-6.5031,3.7418,-2.7409,-1.2262,-0.548,-1.1425,0.1757,1262,2019-08-07 16:58:43:264
1.8734,10.4854,-6.5031,-1.4132,-1.5299,6.5054,-0.5842,0.2903,0.2332,1268,2019-08-07 16:58:43:270
3.4235,10.0796,-0.7758,-1.4132,-1.5299,6.5054,-0.5842,0.2903,0.2332,1273,2019-08-07 16:58:43:275
3.4235,10.0796,-0.7758,-1.4132,-1.5299,6.5054,-1.1019,-0.1635,0.1107,1278,2019-08-07 16:58:43:280
3.4235,10.0796,-0.7758,0.4154,-1.5446,4.1868,-1.1019,-0.1635,0.1107,1283,2019-08-07 16:58:43:285
1.6199,11.2826,-3.2741,0.4154,-1.5446,4.1868,-1.1019,-0.1635,0.1107,1287,2019-08-07 16:58:43:289
1.6199,11.2826,-3.2741,0.4154,-1.5446,4.1868,-1.445,-0.3148,-0.0171,1293,2019-08-07 16:58:43:295
1.6199,11.2826,-3.2741,0.4154,-1.5446,4.1868,-1.445,-0.3148,-0.0171,1298,2019-08-07 16:58:43:300
2.9786,11.7075,-4.1509,0.4154,-1.5446,4.1868,-1.7091,-0.0197,-0.0256,1302,2019-08-07 16:58:43:304
2.9786,11.7075,-4.1509,-1.4226,-2.6751,6.1698,-1.7091,-0.0197,-0.0256,1308,2019-08-07 16:58:43:310
3.6388,12.309,-4.1697,-1.4226,-2.6751,6.1698,-1.9701,0.1422,-0.179,1312,2019-08-07 16:58:43:314
3.6388,12.309,-4.1697,-1.4226,-2.6751,6.1698,-1.9701,0.1422,-0.179,1318,2019-08-07 16:58:43:320
3.6388,12.309,-4.1697,-1.4226,-2.6751,6.1698,-2.2173,0.5161,-0.3473,1323,2019-08-07 16:58:43:325
2.8015,13.0394,-6.1166,-0.7361,-3.7109,8.341,-2.2173,0.5161,-0.3473,1328,2019-08-07 16:58:43:330
2.8015,13.0394,-6.1166,-0.7361,-3.7109,8.341,-2.4314,0.7654,-0.3164,1332,2019-08-07 16:58:43:334
2.8015,13.0394,-6.1166,-0.7361,-3.7109,8.341,-2.4314,0.7654,-0.3164,1338,2019-08-07 16:58:43:340
2.8015,13.0394,-6.1166,-0.7361,-3.7109,8.341,-2.4314,0.7654,-0.3164,1342,2019-08-07 16:58:43:344
1.7729,14.2711,-4.2122,-0.0047,-5.314,7.1004,-2.653,0.6258,-0.1705,1348,2019-08-07 16:58:43:350
1.7729,14.2711,-4.2122,-0.0047,-5.314,7.1004,-2.653,0.6258,-0.1705,1353,2019-08-07 16:58:43:355
1.7729,14.2711,-4.2122,-0.0047,-5.314,7.1004,-2.9108,0.1741,0.1033,1357,2019-08-07 16:58:43:359
2.9977,14.9442,-3.3684,-0.0047,-5.314,7.1004,-2.9108,0.1741,0.1033,1363,2019-08-07 16:58:43:365
2.9977,14.9442,-3.3684,-0.178,-6.0051,4.8032,-3.0088,0.0825,0.1097,1367,2019-08-07 16:58:43:369
2.9977,14.9442,-3.3684,-0.178,-6.0051,4.8032,-3.0088,0.0825,0.1097,1373,2019-08-07 16:58:43:375
0.7538,14.2281,-1.3839,-0.178,-6.0051,4.8032,-3.0173,0.221,0.1512,1378,2019-08-07 16:58:43:380
0.7538,14.2281,-1.3839,-0.178,-6.0051,4.8032,-3.0173,0.221,0.1512,1383,2019-08-07 16:58:43:385
0.7538,14.2281,-1.3839,1.6235,-3.0448,2.0412,-3.0503,-0.1497,0.3398,1387,2019-08-07 16:58:43:389
1.481,10.2276,3.7871,1.6235,-3.0448,2.0412,-3.0503,-0.1497,0.3398,1393,2019-08-07 16:58:43:395
1.481,10.2276,3.7871,1.6235,-3.0448,2.0412,-3.0887,-1.2128,0.3376,1398,2019-08-07 16:58:43:400
3.8253,7.5447,5.8047,1.6235,-3.0448,2.0412,-3.0887,-1.2128,0.3376,1403,2019-08-07 16:58:43:405
3.8253,7.5447,5.8047,-1.9962,1.0196,-1.6,-3.0887,-1.2128,0.3376,1407,2019-08-07 16:58:43:409
3.8253,7.5447,5.8047,-1.9962,1.0196,-1.6,-3.0791,-1.8552,0.3334,1413,2019-08-07 16:58:43:415
5.4424,9.459,3.1225,-3.2186,-1.0046,1.3286,-3.0791,-1.8552,0.3334,1417,2019-08-07 16:58:43:419
5.4424,9.459,3.1225,-3.2186,-1.0046,1.3286,-2.572,-0.7739,0.3813,1423,2019-08-07 16:58:43:425
5.4424,9.459,3.1225,-3.2186,-1.0046,1.3286,-2.572,-0.7739,0.3813,1428,2019-08-07 16:58:43:430
5.5141,13.1683,1.3548,-3.2186,-1.0046,1.3286,-1.9723,0.661,0.2577,1433,2019-08-07 16:58:43:435
5.5141,13.1683,1.3548,-0.5414,-2.7362,5.2225,-1.9723,0.661,0.2577,1437,2019-08-07 16:58:43:439
0.4955,9.2442,-0.361,-0.5414,-2.7362,5.2225,-1.2308,1.7379,0.0042,1443,2019-08-07 16:58:43:445
0.4955,9.2442,-0.361,-0.5414,-2.7362,5.2225,-1.2308,1.7379,0.0042,1448,2019-08-07 16:58:43:450
0.4955,9.2442,-0.361,-0.5414,-2.7362,5.2225,-1.2308,1.7379,0.0042,1452,2019-08-07 16:58:43:454
-1.3608,7.3824,-4.3819,3.4991,0.7838,9.3795,-0.2274,1.0221,-0.0299,1458,2019-08-07 16:58:43:460
-1.3608,7.3824,-4.3819,3.4991,0.7838,9.3795,-0.2274,1.0221,-0.0299,1463,2019-08-07 16:58:43:465
-1.3608,7.3824,-4.3819,3.4991,0.7838,9.3795,0.4374,-0.0837,-0.0096,1467,2019-08-07 16:58:43:469
-4.2314,6.3513,-7.1819,3.4991,0.7838,9.3795,0.4374,-0.0837,-0.0096,1473,2019-08-07 16:58:43:475
-4.2314,6.3513,-7.1819,5.7744,2.4928,4.9499,0.8528,-1.787,-0.0959,1478,2019-08-07 16:58:43:480
-3.5042,6.0124,-5.188,5.7744,2.4928,4.9499,0.8528,-1.787,-0.0959,1482,2019-08-07 16:58:43:484
-3.5042,6.0124,-5.188,5.7744,2.4928,4.9499,0.8528,-1.787,-0.0959,1488,2019-08-07 16:58:43:490
-3.5042,6.0124,-5.188,5.7744,2.4928,4.9499,0.9806,-5.3109,-0.424,1492,2019-08-07 16:58:43:494
-1.1408,8.0126,-4.2358,1.352,-0.051,4.0997,1.133,-6.3165,-0.5338,1498,2019-08-07 16:58:43:500
-1.1408,8.0126,-4.2358,1.352,-0.051,4.0997,1.133,-6.3165,-0.5338,1503,2019-08-07 16:58:43:505
2.2034,8.0794,-5.3011,1.352,-0.051,4.0997,1.133,-6.3165,-0.5338,1508,2019-08-07 16:58:43:510
2.2034,8.0794,-5.3011,1.352,-0.051,4.0997,2.3506,-4.1902,-0.5742,1512,2019-08-07 16:58:43:514
2.2034,8.0794,-5.3011,-4.3725,-1.4988,16.9067,2.3506,-4.1902,-0.5742,1518,2019-08-07 16:58:43:520
9.5472,10.5666,-12.5038,-4.3725,-1.4988,16.9067,2.4038,-1.395,-0.5519,1523,2019-08-07 16:58:43:525
9.5472,10.5666,-12.5038,-5.4355,-1.9976,11.0648,2.4038,-1.395,-0.5519,1528,2019-08-07 16:58:43:530
7.6287,10.1895,1.2275,-5.4355,-1.9976,11.0648,2.6307,1.3768,-0.8235,1533,2019-08-07 16:58:43:535
7.6287,10.1895,1.2275,-5.4355,-1.9976,11.0648,2.6307,1.3768,-0.8235,1538,2019-08-07 16:58:43:540
7.6287,10.1895,1.2275,-5.4355,-1.9976,11.0648,2.6307,1.3768,-0.8235,1543,2019-08-07 16:58:43:545
4.3132,11.2779,3.2545,-0.1139,-3.4136,3.3157,3.239,1.0391,-0.8704,1548,2019-08-07 16:58:43:550
4.3132,11.2779,3.2545,-0.1139,-3.4136,3.3157,3.239,1.0391,-0.8704,1553,2019-08-07 16:58:43:555
4.3132,11.2779,3.2545,-0.1139,-3.4136,3.3157,2.9674,0.0634,-0.7788,1558,2019-08-07 16:58:43:560
1.5479,12.3043,2.5804,1.0171,-3.243,0.1676,2.9674,0.0634,-0.7788,1563,2019-08-07 16:58:43:565
1.5479,12.3043,2.5804,1.0171,-3.243,0.1676,3.271,0.5225,-0.7202,1567,2019-08-07 16:58:43:569
3.8061,11.7648,0.3696,1.0171,-3.243,0.1676,3.271,0.5225,-0.7202,1573,2019-08-07 16:58:43:575
3.8061,11.7648,0.3696,1.0171,-3.243,0.1676,3.2987,0.825,-0.6382,1577,2019-08-07 16:58:43:579
3.8061,11.7648,0.3696,-1.5169,-2.2265,0.6529,3.2987,0.825,-0.6382,1583,2019-08-07 16:58:43:585
3.2271,10.9628,1.4774,-1.5169,-2.2265,0.6529,3.3168,0.9454,-0.5774,1588,2019-08-07 16:58:43:590
3.2271,10.9628,1.4774,-1.5169,-2.2265,0.6529,3.3168,0.9454,-0.5774,1593,2019-08-07 16:58:43:595
3.2271,10.9628,1.4774,-1.5169,-2.2265,0.6529,3.3168,0.9454,-0.5774,1597,2019-08-07 16:58:43:599
2.0933,10.9198,1.1568,0.1702,-1.5048,0.4147,3.2465,1.2767,-0.522,1603,2019-08-07 16:58:43:605
2.0933,10.9198,1.1568,0.1702,-1.5048,0.4147,3.2465,1.2767,-0.522,1608,2019-08-07 16:58:43:610
1.4139,10.0224,3.212,0.1702,-1.5048,0.4147,3.0206,1.2554,-0.4517,1613,2019-08-07 16:58:43:615
1.4139,10.0224,3.212,0.9358,-0.362,-1.9958,3.0206,1.2554,-0.4517,1618,2019-08-07 16:58:43:620
1.0981,9.8266,3.1366,0.9358,-0.362,-1.9958,2.7383,0.9209,-0.4049,1623,2019-08-07 16:58:43:625
1.0981,9.8266,3.1366,0.9358,-0.362,-1.9958,2.7383,0.9209,-0.4049,1628,2019-08-07 16:58:43:630
1.0981,9.8266,3.1366,0.9358,-0.362,-1.9958,2.4976,0.8293,-0.3857,1633,2019-08-07 16:58:43:635
1.2273,9.545,3.3817,0.7466,0.0227,-2.6963,2.4976,0.8293,-0.3857,1638,2019-08-07 16:58:43:640
1.2273,9.545,3.3817,0.7466,0.0227,-2.6963,2.3016,0.6919,-0.3505,1643,2019-08-07 16:58:43:645
1.2273,9.545,3.3817,0.7466,0.0227,-2.6963,2.3016,0.6919,-0.3505,1648,2019-08-07 16:58:43:650
1.4474,9.4495,3.0942,0.7466,0.0227,-2.6963,2.3016,0.6919,-0.3505,1652,2019-08-07 16:58:43:654
1.4474,9.4495,3.0942,0.7466,0.0227,-2.6963,2.0299,0.498,-0.3324,1658,2019-08-07 16:58:43:660
1.5335,9.2347,3.1885,0.46,0.3795,-2.9908,2.0299,0.498,-0.3324,1662,2019-08-07 16:58:43:664
1.5335,9.2347,3.1885,0.46,0.3795,-2.9908,1.9042,0.3861,-0.325,1667,2019-08-07 16:58:43:669
1.5335,9.2347,3.1885,0.46,0.3795,-2.9908,1.9042,0.3861,-0.325,1673,2019-08-07 16:58:43:675
1.8492,9.0103,3.5467,0.46,0.3795,-2.9908,1.7892,0.2658,-0.3101,1678,2019-08-07 16:58:43:680
1.8492,9.0103,3.5467,-0.1251,0.9102,-3.9405,1.7892,0.2658,-0.3101,1683,2019-08-07 16:58:43:685
1.8492,9.0103,3.5467,-0.1251,0.9102,-3.9405,1.7466,0.0857,-0.2696,1688,2019-08-07 16:58:43:690
2.5238,9.6309,2.8161,-0.1251,0.9102,-3.9405,1.7466,0.0857,-0.2696,1692,2019-08-07 16:58:43:694
2.5238,9.6309,2.8161,-0.1251,0.9102,-3.9405,1.4121,0.1869,-0.1268,1697,2019-08-07 16:58:43:699
3.3658,9.1583,6.7474,-1.3757,-0.0343,-6.5569,1.4121,0.1869,-0.1268,1703,2019-08-07 16:58:43:705
3.3658,9.1583,6.7474,-1.3757,-0.0343,-6.5569,1.3098,0.5299,-0.0608,1707,2019-08-07 16:58:43:709
3.3658,9.1583,6.7474,-1.3757,-0.0343,-6.5569,1.3098,0.5299,-0.0608,1713,2019-08-07 16:58:43:715
2.7534,7.9983,5.7056,-1.3757,-0.0343,-6.5569,1.1767,0.7196,-0.1524,1717,2019-08-07 16:58:43:719
2.7534,7.9983,5.7056,-0.101,0.6687,-6.5502,1.1767,0.7196,-0.1524,1723,2019-08-07 16:58:43:725
1.5573,10.0606,6.8982,-0.101,0.6687,-6.5502,0.986,0.5864,-0.0874,1728,2019-08-07 16:58:43:730
1.5573,10.0606,6.8982,-0.101,0.6687,-6.5502,0.986,0.5864,-0.0874,1733,2019-08-07 16:58:43:735
1.5573,10.0606,6.8982,-0.101,0.6687,-6.5502,0.5801,0.2988,0.1661,1738,2019-08-07 16:58:43:740
2.9974,10.7576,8.6565,-1.137,-1.1483,-9.3182,0.5801,0.2988,0.1661,1743,2019-08-07 16:58:43:745
2.9974,10.7576,8.6565,-1.137,-1.1483,-9.3182,0.3308,0.3488,0.246,1748,2019-08-07 16:58:43:750
3.3418,10.1513,11.8854,-1.137,-1.1483,-9.3182,0.3308,0.3488,0.246,1752,2019-08-07 16:58:43:754
3.3418,10.1513,11.8854,-1.137,-1.1483,-9.3182,0.3308,0.3488,0.246,1758,2019-08-07 16:58:43:760
3.3418,10.1513,11.8854,-0.6965,-0.6868,-12.0674,0.1625,0.4223,0.3025,1763,2019-08-07 16:58:43:765
2.2223,10.9676,12.5123,-0.6965,-0.6868,-12.0674,0.1625,0.4223,0.3025,1767,2019-08-07 16:58:43:769
2.2223,10.9676,12.5123,-0.6965,-0.6868,-12.0674,-0.2902,0.1986,0.3568,1773,2019-08-07 16:58:43:775
1.4568,11.2827,17.5844,-0.6965,-0.6868,-12.0674,-0.2902,0.1986,0.3568,1778,2019-08-07 16:58:43:780
1.4568,11.2827,17.5844,0.6225,-0.923,-17.6799,-0.6492,-0.0943,0.4079,1783,2019-08-07 16:58:43:785
1.4568,11.2827,17.5844,0.6225,-0.923,-17.6799,-0.6492,-0.0943,0.4079,1788,2019-08-07 16:58:43:790
1.6673,11.6216,18.1406,0.3639,-2.0333,-18.5594,-1.0412,-0.285,0.4282,1793,2019-08-07 16:58:43:795
1.6673,11.6216,18.1406,0.3639,-2.0333,-18.5594,-1.0412,-0.285,0.4282,1798,2019-08-07 16:58:43:800
1.6673,11.6216,18.1406,0.3639,-2.0333,-18.5594,-1.0412,-0.285,0.4282,1802,2019-08-07 16:58:43:804
2.2988,11.6741,20.9218,0.3639,-2.0333,-18.5594,-1.5856,-0.513,0.491,1808,2019-08-07 16:58:43:810
2.2988,11.6741,20.9218,0.0359,-2.2394,-21.8071,-1.5856,-0.513,0.491,1813,2019-08-07 16:58:43:815
2.2988,11.6741,20.9218,0.0359,-2.2394,-21.8071,-1.9286,-0.4725,0.5113,1817,2019-08-07 16:58:43:819
1.8204,9.2061,7.4403,0.0359,-2.2394,-21.8071,-1.9286,-0.4725,0.5113,1823,2019-08-07 16:58:43:825
1.8204,9.2061,7.4403,0.0359,-2.2394,-21.8071,-1.7613,-0.041,0.5113,1827,2019-08-07 16:58:43:829
3.5762,9.8267,-0.6863,-1.3537,-0.2756,0.959,-1.7613,-0.041,0.5113,1833,2019-08-07 16:58:43:835
3.5762,9.8267,-0.6863,-1.3537,-0.2756,0.959,-1.0263,0.0463,0.295,1838,2019-08-07 16:58:43:840
2.5332,10.495,-1.3368,-0.2758,-0.9559,1.7186,-1.0263,0.0463,0.295,1843,2019-08-07 16:58:43:845
2.5332,10.495,-1.3368,-0.2758,-0.9559,1.7186,-0.6375,0.3297,0.1693,1848,2019-08-07 16:58:43:850
2.5332,10.495,-1.3368,-0.2758,-0.9559,1.7186,-0.6375,0.3297,0.1693,1853,2019-08-07 16:58:43:855
2.6337,10.4282,7.6477,-0.2758,-0.9559,1.7186,-0.6375,0.3297,0.1693,1858,2019-08-07 16:58:43:860
2.6337,10.4282,7.6477,-1.06,-0.0505,-6.8748,-0.3893,-0.0133,0.2854,1862,2019-08-07 16:58:43:864
2.6337,10.4282,7.6477,-1.06,-0.0505,-6.8748,-0.3893,-0.0133,0.2854,1868,2019-08-07 16:58:43:870
3.624,9.4352,2.6558,-1.06,-0.0505,-6.8748,-0.2806,-0.1689,0.1949,1873,2019-08-07 16:58:43:875
3.624,9.4352,2.6558,-1.06,-0.0505,-6.8748,-0.2806,-0.1689,0.1949,1877,2019-08-07 16:58:43:879
2.8633,8.8433,2.3635,-0.5161,0.6636,-1.7756,-0.1549,0.4522,0.2279,1883,2019-08-07 16:58:43:885
2.8633,8.8433,2.3635,-0.5161,0.6636,-1.7756,-0.1549,0.4522,0.2279,1888,2019-08-07 16:58:43:890
2.8633,8.8433,2.3635,-0.5161,0.6636,-1.7756,0.0379,0.6237,0.2918,1893,2019-08-07 16:58:43:895
1.7823,7.8742,3.4242,-0.5161,0.6636,-1.7756,0.0379,0.6237,0.2918,1898,2019-08-07 16:58:43:900
1.7823,7.8742,3.4242,1.0603,1.8232,-3.3825,0.0379,0.6237,0.2918,1902,2019-08-07 16:58:43:904
1.7823,7.8742,3.4242,1.0603,1.8232,-3.3825,0.0389,-0.057,0.3153,1908,2019-08-07 16:58:43:910
1.4618,7.8837,3.5844,1.0603,1.8232,-3.3825,0.0389,-0.057,0.3153,1913,2019-08-07 16:58:43:915
1.4618,7.8837,3.5844,1.0603,1.8232,-3.3825,0.1306,-0.6365,0.3621,1917,2019-08-07 16:58:43:919
3.8108,8.6141,1.4444,-1.3448,0.8606,-0.8238,0.1306,-0.6365,0.3621,1923,2019-08-07 16:58:43:925
3.8108,8.6141,1.4444,-1.3448,0.8606,-0.8238,0.1306,-0.6365,0.3621,1927,2019-08-07 16:58:43:929
3.8108,8.6141,1.4444,-1.3448,0.8606,-0.8238,0.2595,-0.66,0.311,1933,2019-08-07 16:58:43:935
4.6768,9.6214,0.7184,-1.3448,0.8606,-0.8238,0.2595,-0.66,0.311,1937,2019-08-07 16:58:43:939
4.6768,9.6214,0.7184,-1.3448,0.8606,-0.8238,0.3702,0.1773,0.213,1943,2019-08-07 16:58:43:945
4.7964,10.2849,0.8834,-2.342,-0.6523,-0.3737,0.3702,0.1773,0.213,1947,2019-08-07 16:58:43:949
4.7964,10.2849,0.8834,-2.342,-0.6523,-0.3737,0.4374,0.5587,0.1469,1953,2019-08-07 16:58:43:955
4.7964,10.2849,0.8834,-2.342,-0.6523,-0.3737,0.4374,0.5587,0.1469,1957,2019-08-07 16:58:43:959
3.9878,10.3852,0.6901,-2.342,-0.6523,-0.3737,0.4821,0.6599,0.0937,1963,2019-08-07 16:58:43:965
3.9878,10.3852,0.6901,-0.9527,-0.7768,-0.2217,0.4821,0.6599,0.0937,1967,2019-08-07 16:58:43:969
2.5526,9.8935,0.478,-0.9527,-0.7768,-0.2217,0.5268,0.7366,0.0639,1973,2019-08-07 16:58:43:975
2.5526,9.8935,0.478,-0.9527,-0.7768,-0.2217,0.5268,0.7366,0.0639,1978,2019-08-07 16:58:43:980
2.5526,9.8935,0.478,1.095,-0.3886,-0.3042,0.4949,0.7899,0.0937,1983,2019-08-07 16:58:43:985
1.2273,9.8362,0.9164,1.095,-0.3886,-0.3042,0.4949,0.7899,0.0937,1988,2019-08-07 16:58:43:990
1.2273,9.8362,0.9164,1.095,-0.3886,-0.3042,0.4949,0.7899,0.0937,1992,2019-08-07 16:58:43:994
1.0024,10.0749,0.8693,1.095,-0.3886,-0.3042,0.4501,0.7217,0.1427,1998,2019-08-07 16:58:44:000
1.0024,10.0749,0.8693,1.0587,-0.786,0.1822,0.4501,0.7217,0.1427,2003,2019-08-07 16:58:44:005
1.0024,10.0749,0.8693,1.0587,-0.786,0.1822,0.3468,0.3169,0.2045,2007,2019-08-07 16:58:44:009
2.0693,10.2945,-0.955,1.0587,-0.786,0.1822,0.3468,0.3169,0.2045,2013,2019-08-07 16:58:44:015
2.0693,10.2945,-0.955,0.2909,-0.8132,1.6326,0.2573,0.0016,0.2268,2018,2019-08-07 16:58:44:020
2.0693,10.2945,-0.955,0.2909,-0.8132,1.6326,0.2573,0.0016,0.2268,2023,2019-08-07 16:58:44:025
2.7248,10.4807,-1.4546,0.2909,-0.8132,1.6326,0.1796,-0.0261,0.2279,2028,2019-08-07 16:58:44:030
2.7248,10.4807,-1.4546,0.2909,-0.8132,1.6326,0.1796,-0.0261,0.2279,2033,2019-08-07 16:58:44:035
2.7248,10.4807,-1.4546,0.5195,-1.7828,0.5908,0.0677,-0.0112,0.2993,2037,2019-08-07 16:58:44:039
1.7775,11.0201,-0.1018,0.5195,-1.7828,0.5908,0.0677,-0.0112,0.2993,2043,2019-08-07 16:58:44:045
1.7775,11.0201,-0.1018,0.5195,-1.7828,0.5908,-0.0889,-0.2903,0.3664,2048,2019-08-07 16:58:44:050
1.5622,10.0892,-0.0782,0.5195,-1.7828,0.5908,-0.0889,-0.2903,0.3664,2053,2019-08-07 16:58:44:055
1.5622,10.0892,-0.0782,1.0689,-0.6099,0.3851,-0.2199,-0.3958,0.3749,2058,2019-08-07 16:58:44:060
1.5622,10.0892,-0.0782,1.0689,-0.6099,0.3851,-0.2199,-0.3958,0.3749,2063,2019-08-07 16:58:44:065
1.8875,9.9746,-0.4695,1.0689,-0.6099,0.3851,-0.2583,-0.3457,0.3845,2068,2019-08-07 16:58:44:070
1.8875,9.9746,-0.4695,1.0689,-0.6099,0.3851,-0.2583,-0.3457,0.3845,2073,2019-08-07 16:58:44:075
2.6003,9.6787,0.379,0.1663,-0.2724,-0.0556,-0.2508,-0.3713,0.3675,2077,2019-08-07 16:58:44:079
2.6003,9.6787,0.379,0.1663,-0.2724,-0.0556,-0.2508,-0.3713,0.3675,2083,2019-08-07 16:58:44:085
2.6003,9.6787,0.379,0.1663,-0.2724,-0.0556,-0.2093,-0.4235,0.3163,2088,2019-08-07 16:58:44:090
3.6002,9.4782,0.3036,0.1663,-0.2724,-0.0556,-0.2093,-0.4235,0.3163,2093,2019-08-07 16:58:44:095
3.6002,9.4782,0.3036,-1.1368,0.1309,-0.0218,-0.1645,-0.3127,0.2726,2098,2019-08-07 16:58:44:100
4.3896,9.0676,0.3413,-1.1368,0.1309,-0.0218,-0.1645,-0.3127,0.2726,2103,2019-08-07 16:58:44:105
4.3896,9.0676,0.3413,-1.1368,0.1309,-0.0218,-0.1645,-0.3127,0.2726,2108,2019-08-07 16:58:44:110
4.3896,9.0676,0.3413,-1.1368,0.1309,-0.0218,-0.1134,-0.1327,0.2077,2113,2019-08-07 16:58:44:115
4.6097,9.1201,0.4403,-1.7155,0.2464,-0.0834,-0.1134,-0.1327,0.2077,2118,2019-08-07 16:58:44:120
4.6097,9.1201,0.4403,-1.7155,0.2464,-0.0834,-0.0665,0.0389,0.1182,2122,2019-08-07 16:58:44:124
4.6097,9.1201,0.4403,-1.7155,0.2464,-0.0834,-0.0665,0.0389,0.1182,2128,2019-08-07 16:58:44:130
4.1504,8.996,1.2464,-1.7155,0.2464,-0.0834,-0.0143,0.0815,0.0607,2133,2019-08-07 16:58:44:135
4.1504,8.996,1.2464,-1.1279,0.4424,-0.5094,-0.0143,0.0815,0.0607,2138,2019-08-07 16:58:44:140
4.1265,8.9244,0.3366,-1.1279,0.4424,-0.5094,0.0113,0.0879,0.0202,2143,2019-08-07 16:58:44:145
4.1265,8.9244,0.3366,-1.1279,0.4424,-0.5094,0.0113,0.0879,0.0202,2148,2019-08-07 16:58:44:150
4.1265,8.9244,0.3366,-1.1279,0.4424,-0.5094,0.0113,0.0879,0.0202,2152,2019-08-07 16:58:44:154
3.6624,9.3254,0.2753,-0.7337,0.0296,0.102,0.0198,0.2221,-0.0629,2158,2019-08-07 16:58:44:160
3.6624,9.3254,0.2753,-0.7337,0.0296,0.102,0.0198,0.2221,-0.0629,2162,2019-08-07 16:58:44:164
3.6624,9.3254,0.2753,-0.7337,0.0296,0.102,0.0326,0.2679,-0.0672,2168,2019-08-07 16:58:44:170
2.8491,9.5164,0.5346,-0.7337,0.0296,0.102,0.0326,0.2679,-0.0672,2173,2019-08-07 16:58:44:175
2.8491,9.5164,0.5346,0.5574,-0.3433,-0.2126,0.0262,0.2508,-0.0597,2178,2019-08-07 16:58:44:180
1.9975,9.8267,0.7514,0.5574,-0.3433,-0.2126,0.0262,0.2508,-0.0597,2182,2019-08-07 16:58:44:184
1.9975,9.8267,0.7514,0.5574,-0.3433,-0.2126,0.024,0.1379,-0.0203,2188,2019-08-07 16:58:44:190
1.9975,9.8267,0.7514,0.5574,-0.3433,-0.2126,0.024,0.1379,-0.0203,2192,2019-08-07 16:58:44:194
1.8444,9.8648,0.8551,0.8194,-0.4343,-0.2889,0.024,0.1379,-0.0203,2198,2019-08-07 16:58:44:200
1.8444,9.8648,0.8551,0.8194,-0.4343,-0.2889,0.0027,-0.041,0.0234,2202,2019-08-07 16:58:44:204
2.4902,10.0081,0.6288,0.8194,-0.4343,-0.2889,0.0027,-0.041,0.0234,2208,2019-08-07 16:58:44:210
2.4902,10.0081,0.6288,0.8194,-0.4343,-0.2889,-0.0111,-0.1646,0.0468,2212,2019-08-07 16:58:44:214
2.4902,10.0081,0.6288,0.0916,-0.7409,-0.3539,-0.0111,-0.1646,0.0468,2218,2019-08-07 16:58:44:220
2.8156,10.0367,0.7278,0.0916,-0.7409,-0.3539,-0.0175,-0.2094,0.0617,2222,2019-08-07 16:58:44:224
2.8156,10.0367,0.7278,0.0916,-0.7409,-0.3539,-0.0175,-0.2094,0.0617,2228,2019-08-07 16:58:44:230
3.0069,9.8028,0.3413,-0.0986,-0.4419,0.0476,-0.0399,-0.1891,0.0575,2232,2019-08-07 16:58:44:234
3.0069,9.8028,0.3413,-0.0986,-0.4419,0.0476,-0.0399,-0.1891,0.0575,2238,2019-08-07 16:58:44:240
3.0069,9.8028,0.3413,-0.0986,-0.4419,0.0476,-0.0399,-0.1891,0.0575,2243,2019-08-07 16:58:44:245
3.1983,9.7073,0.2093,-0.2036,-0.2921,-0.1289,-0.0665,-0.1071,0.0149,2248,2019-08-07 16:58:44:250
3.1983,9.7073,0.2093,-0.2036,-0.2921,-0.1289,-0.0665,-0.1071,0.0149,2253,2019-08-07 16:58:44:255
3.1983,9.7073,0.2093,-0.2036,-0.2921,-0.1289,-0.0559,-0.0794,0.001,2257,2019-08-07 16:58:44:259
3.0452,9.5068,0.2894,-0.1265,-0.1492,0.1006,-0.0559,-0.0794,0.001,2263,2019-08-07 16:58:44:265
3.0452,9.5068,0.2894,-0.1265,-0.1492,0.1006,-0.0708,-0.0687,-0.0043,2268,2019-08-07 16:58:44:270
3.0452,9.5068,0.2894,-0.1265,-0.1492,0.1006,-0.0708,-0.0687,-0.0043,2273,2019-08-07 16:58:44:275
3.0308,9.6787,0.3554,-0.1123,-0.3261,0.1045,-0.0793,-0.073,-0.015,2278,2019-08-07 16:58:44:280
3.0308,9.6787,0.3554,-0.1123,-0.3261,0.1045,-0.0793,-0.073,-0.015,2282,2019-08-07 16:58:44:284
3.0308,9.6787,0.3554,-0.1123,-0.3261,0.1045,-0.0846,-0.0975,-0.016,2288,2019-08-07 16:58:44:290
2.8921,9.6214,0.5251,-0.1123,-0.3261,0.1045,-0.0846,-0.0975,-0.016,2292,2019-08-07 16:58:44:294
2.8921,9.6214,0.5251,-0.0336,-0.0727,-0.2994,-0.0804,-0.1348,-0.0203,2298,2019-08-07 16:58:44:300
2.8921,9.6214,0.5251,-0.0336,-0.0727,-0.2994,-0.0804,-0.1348,-0.0203,2303,2019-08-07 16:58:44:305
2.6481,9.4734,1.0531,-0.0336,-0.0727,-0.2994,-0.0804,-0.1348,-0.0203,2308,2019-08-07 16:58:44:310
2.6481,9.4734,1.0531,0.2088,-0.0582,-0.6618,-0.0761,-0.1849,0.0042,2313,2019-08-07 16:58:44:315
2.6481,9.4734,1.0531,0.2088,-0.0582,-0.6618,-0.0761,-0.1849,0.0042,2318,2019-08-07 16:58:44:320
2.8634,9.3493,0.8409,0.2088,-0.0582,-0.6618,-0.0718,-0.1934,0.0276,2323,2019-08-07 16:58:44:325
2.8634,9.3493,0.8409,-0.1828,-0.0172,-0.0765,-0.0718,-0.1934,0.0276,2328,2019-08-07 16:58:44:330
3.1408,9.397,0.4544,-0.1828,-0.0172,-0.0765,-0.0654,-0.154,0.0223,2333,2019-08-07 16:58:44:335
3.1408,9.397,0.4544,-0.1828,-0.0172,-0.0765,-0.0654,-0.154,0.0223,2337,2019-08-07 16:58:44:339
3.404,9.44,0.4026,-0.1828,-0.0172,-0.0765,-0.0772,-0.1635,0.0138,2343,2019-08-07 16:58:44:345
3.404,9.44,0.4026,-0.1828,-0.0172,-0.0765,-0.0772,-0.1635,0.0138,2347,2019-08-07 16:58:44:349
3.404,9.44,0.4026,-0.5774,-0.1199,0.1775,-0.0814,-0.0847,-0.0182,2353,2019-08-07 16:58:44:355
3.4279,9.5593,0.1292,-0.5774,-0.1199,0.1775,-0.0814,-0.0847,-0.0182,2357,2019-08-07 16:58:44:359
3.4279,9.5593,0.1292,-0.5774,-0.1199,0.1775,-0.0814,-0.0847,-0.0182,2363,2019-08-07 16:58:44:365
3.4279,9.5593,0.1292,-0.5774,-0.1199,0.1775,-0.0612,0.1102,-0.032,2368,2019-08-07 16:58:44:370
3.27,9.6262,0.4686,-0.3446,-0.2727,-0.0326,-0.0612,0.1102,-0.032,2372,2019-08-07 16:58:44:374
3.27,9.6262,0.4686,-0.3446,-0.2727,-0.0326,-0.0388,0.2104,-0.0587,2378,2019-08-07 16:58:44:380
3.3848,9.4495,0.7749,-0.3446,-0.2727,-0.0326,-0.0388,0.2104,-0.0587,2382,2019-08-07 16:58:44:384
3.3848,9.4495,0.7749,-0.3446,-0.2727,-0.0326,-0.0346,0.1614,-0.0885,2388,2019-08-07 16:58:44:390
2.9351,9.3922,0.7042,-0.108,0.0214,-0.1963,-0.0346,0.1614,-0.0885,2393,2019-08-07 16:58:44:395
2.9351,9.3922,0.7042,-0.108,0.0214,-0.1963,-0.0548,0.0953,-0.0746,2398,2019-08-07 16:58:44:400
2.9351,9.3922,0.7042,-0.108,0.0214,-0.1963,-0.0548,0.0953,-0.0746,2402,2019-08-07 16:58:44:404
2.9351,9.3922,0.7042,-0.108,0.0214,-0.1963,-0.0548,0.0953,-0.0746,2408,2019-08-07 16:58:44:410
2.4758,9.6214,0.9729,0.4446,-0.3228,-0.4898,-0.0644,-0.0378,-0.0512,2412,2019-08-07 16:58:44:414
2.4758,9.6214,0.9729,0.4446,-0.3228,-0.4898,-0.0644,-0.0378,-0.0512,2418,2019-08-07 16:58:44:420
2.4758,9.6214,0.9729,0.4446,-0.3228,-0.4898,-0.0644,-0.2392,-0.0267,2423,2019-08-07 16:58:44:425
2.6719,9.798,0.5817,0.4446,-0.3228,-0.4898,-0.0644,-0.2392,-0.0267,2428,2019-08-07 16:58:44:430
2.6719,9.798,0.5817,0.0829,-0.3683,0.0222,-0.0484,-0.1955,-0.0203,2433,2019-08-07 16:58:44:435
2.6719,9.798,0.5817,0.0829,-0.3683,0.0222,-0.0484,-0.1955,-0.0203,2438,2019-08-07 16:58:44:440
3.0403,9.7169,0.5534,0.0829,-0.3683,0.0222,-0.0335,-0.1231,-0.0299,2443,2019-08-07 16:58:44:445
3.0403,9.7169,0.5534,0.0829,-0.3683,0.0222,-0.0335,-0.1231,-0.0299,2448,2019-08-07 16:58:44:450
3.1264,9.4161,0.4874,-0.2455,-0.0331,-0.0447,-0.0271,-0.0698,-0.0459,2453,2019-08-07 16:58:44:455
3.1264,9.4161,0.4874,-0.2455,-0.0331,-0.0447,-0.0271,-0.0698,-0.0459,2458,2019-08-07 16:58:44:460
3.1264,9.4161,0.4874,-0.2455,-0.0331,-0.0447,-0.0164,-6.0E-4,-0.0618,2463,2019-08-07 16:58:44:465
3.3082,9.4973,0.7042,-0.2455,-0.0331,-0.0447,-0.0164,-6.0E-4,-0.0618,2468,2019-08-07 16:58:44:470
3.3082,9.4973,0.7042,-0.3687,-0.1453,-0.2108,-0.0164,-6.0E-4,-0.0618,2473,2019-08-07 16:58:44:475
3.3082,9.6691,0.5251,-0.3687,-0.1453,-0.2108,-0.0175,0.0314,-0.0704,2478,2019-08-07 16:58:44:480
3.3082,9.6691,0.5251,-0.3687,-0.1453,-0.2108,-0.0175,0.0314,-0.0704,2482,2019-08-07 16:58:44:484
3.3082,9.6691,0.5251,-0.3687,-0.1453,-0.2108,-0.0164,0.0751,-0.0832,2488,2019-08-07 16:58:44:490
3.3082,9.6691,0.5251,-0.3687,-0.1453,-0.2108,-0.0164,0.0751,-0.0832,2492,2019-08-07 16:58:44:494
3.0451,9.8505,0.6241,-0.1806,-0.4806,-0.1384,-0.0186,0.0644,-0.0832,2498,2019-08-07 16:58:44:500
3.0451,9.8505,0.6241,-0.1806,-0.4806,-0.1384,-0.0186,0.0644,-0.0832,2503,2019-08-07 16:58:44:505
2.959,9.5737,0.4827,-0.1806,-0.4806,-0.1384,-0.0186,0.0644,-0.0832,2508,2019-08-07 16:58:44:510
2.959,9.5737,0.4827,-0.0396,-0.1847,-0.0171,-0.0473,0.0527,-0.0938,2513,2019-08-07 16:58:44:515
2.7724,9.6214,0.7231,-0.0396,-0.1847,-0.0171,-0.0473,0.0527,-0.0938,2518,2019-08-07 16:58:44:520
2.7724,9.6214,0.7231,-0.0396,-0.1847,-0.0171,-0.0505,0.0282,-0.0981,2523,2019-08-07 16:58:44:525
2.7724,9.6214,0.7231,-0.0396,-0.1847,-0.0171,-0.0505,0.0282,-0.0981,2528,2019-08-07 16:58:44:530
2.8106,9.3493,0.7231,0.0173,0.0306,-0.2162,-0.0548,0.0239,-0.1023,2532,2019-08-07 16:58:44:534
2.8106,9.3493,0.7231,0.0173,0.0306,-0.2162,-0.0548,0.0239,-0.1023,2538,2019-08-07 16:58:44:540
2.9254,9.4066,0.8032,-0.107,-0.0242,-0.2892,-0.0591,-0.0027,-0.0938,2542,2019-08-07 16:58:44:544
2.9254,9.4066,0.8032,-0.107,-0.0242,-0.2892,-0.0591,-0.0027,-0.0938,2548,2019-08-07 16:58:44:550
2.9254,9.4066,0.8032,-0.107,-0.0242,-0.2892,-0.0591,-0.0027,-0.0938,2552,2019-08-07 16:58:44:554
2.6958,9.6166,0.7938,-0.107,-0.0242,-0.2892,-0.0473,0.0538,-0.0757,2558,2019-08-07 16:58:44:560
2.6958,9.6166,0.7938,0.1582,-0.3779,-0.1768,-0.0473,0.0538,-0.0757,2562,2019-08-07 16:58:44:564
2.6958,9.6166,0.7938,0.1582,-0.3779,-0.1768,-0.0292,0.0985,-0.0672,2568,2019-08-07 16:58:44:570
2.5953,9.8028,0.6241,0.1582,-0.3779,-0.1768,-0.0292,0.0985,-0.0672,2572,2019-08-07 16:58:44:574
2.5953,9.8028,0.6241,0.1582,-0.3779,-0.1768,-0.0218,0.1198,-0.0555,2578,2019-08-07 16:58:44:580
2.624,9.6023,0.6948,0.1625,-0.2119,-0.1556,-0.0218,0.1198,-0.0555,2582,2019-08-07 16:58:44:584
2.624,9.6023,0.6948,0.1625,-0.2119,-0.1556,-0.0314,0.0644,-0.0533,2588,2019-08-07 16:58:44:590
2.624,9.6023,0.6948,0.1625,-0.2119,-0.1556,-0.0314,0.0644,-0.0533,2593,2019-08-07 16:58:44:595
2.7484,9.65,0.5439,0.1625,-0.2119,-0.1556,-0.0495,-0.0048,-0.0576,2598,2019-08-07 16:58:44:600
2.7484,9.65,0.5439,0.2266,-0.4426,0.0473,-0.0495,-0.0048,-0.0576,2602,2019-08-07 16:58:44:604
2.7484,9.65,0.5439,0.2266,-0.4426,0.0473,-0.0495,-0.0048,-0.0576,2608,2019-08-07 16:58:44:610
2.5905,9.798,0.5345,0.2266,-0.4426,0.0473,-0.0676,-0.008,-0.0427,2613,2019-08-07 16:58:44:615
2.5905,9.798,0.5345,0.2266,-0.4426,0.0473,-0.0676,-0.008,-0.0427,2618,2019-08-07 16:58:44:620
2.6527,9.7073,0.6712,0.1102,-0.3113,-0.1086,-0.0761,0.0293,-0.0491,2623,2019-08-07 16:58:44:625
2.6527,9.7073,0.6712,0.1102,-0.3113,-0.1086,-0.0761,0.0293,-0.0491,2628,2019-08-07 16:58:44:630
2.6527,9.7073,0.6712,0.1102,-0.3113,-0.1086,-0.0708,0.0452,-0.0416,2632,2019-08-07 16:58:44:634
2.9876,9.5402,0.6052,0.1102,-0.3113,-0.1086,-0.0708,0.0452,-0.0416,2638,2019-08-07 16:58:44:640
2.9876,9.5402,0.6052,0.1102,-0.3113,-0.1086,-0.0708,0.0452,-0.0416,2642,2019-08-07 16:58:44:644
3.1359,8.9387,2.0759,0.0967,0.091,-2.5153,-0.1965,-0.3713,-0.0363,2648,2019-08-07 16:58:44:650
3.1359,8.9387,2.0759,0.0967,0.091,-2.5153,-0.1965,-0.3713,-0.0363,2652,2019-08-07 16:58:44:654
3.1359,8.9387,2.0759,0.0967,0.091,-2.5153,-0.0804,-0.2243,-0.0895,2658,2019-08-07 16:58:44:660
3.0067,9.7121,1.0248,-0.8234,-0.2224,-0.2118,-0.0804,-0.2243,-0.0895,2662,2019-08-07 16:58:44:664
3.0067,9.7121,1.0248,-0.8234,-0.2224,-0.2118,-0.0622,-0.0986,-0.0523,2668,2019-08-07 16:58:44:670
3.533,9.6644,0.8833,-0.8234,-0.2224,-0.2118,-0.0622,-0.0986,-0.0523,2673,2019-08-07 16:58:44:675
3.533,9.6644,0.8833,-0.8234,-0.2224,-0.2118,-0.0037,-0.0091,-0.0714,2677,2019-08-07 16:58:44:679
3.533,9.6644,0.8833,-0.1368,-0.359,-0.1883,-0.0037,-0.0091,-0.0714,2683,2019-08-07 16:58:44:685
2.9062,9.6787,0.7702,-0.1368,-0.359,-0.1883,0.0528,0.1081,-0.0384,2687,2019-08-07 16:58:44:689
2.9062,9.6787,0.7702,-0.1368,-0.359,-0.1883,0.0528,0.1081,-0.0384,2693,2019-08-07 16:58:44:695
2.6096,9.7455,0.6052,-0.1368,-0.359,-0.1883,0.0805,0.1646,-0.0373,2698,2019-08-07 16:58:44:700
2.6096,9.7455,0.6052,0.2552,-0.3177,-0.0135,0.0805,0.1646,-0.0373,2703,2019-08-07 16:58:44:705
2.6096,9.7455,0.6052,0.2552,-0.3177,-0.0135,0.0805,0.1646,-0.0373,2708,2019-08-07 16:58:44:710
2.3943,9.7503,0.7231,0.2552,-0.3177,-0.0135,0.0954,0.2476,-0.0224,2713,2019-08-07 16:58:44:715
2.3943,9.7503,0.7231,0.2552,-0.3177,-0.0135,0.0954,0.2476,-0.0224,2717,2019-08-07 16:58:44:719
2.3943,9.7503,0.7231,0.2552,-0.3177,-0.0135,0.1061,0.2775,0.0042,2722,2019-08-07 16:58:44:724
2.3704,9.7837,0.6806,0.3515,-0.3769,-0.0976,0.1061,0.2775,0.0042,2728,2019-08-07 16:58:44:730
2.3704,9.7837,0.6806,0.3515,-0.3769,-0.0976,0.089,0.2168,0.0223,2732,2019-08-07 16:58:44:734
2.3704,9.7837,0.6806,0.3515,-0.3769,-0.0976,0.089,0.2168,0.0223,2738,2019-08-07 16:58:44:740
2.5809,9.8362,1.0342,0.3515,-0.3769,-0.0976,0.0549,-0.0442,0.0117,2743,2019-08-07 16:58:44:745
2.5809,9.8362,1.0342,0.164,-0.4146,-0.5266,0.0549,-0.0442,0.0117,2748,2019-08-07 16:58:44:750
2.6622,9.6739,0.8456,0.164,-0.4146,-0.5266,0.0549,-0.0442,0.0117,2752,2019-08-07 16:58:44:754
2.6622,9.6739,0.8456,0.164,-0.4146,-0.5266,0.0464,-0.2147,0.0117,2758,2019-08-07 16:58:44:760
2.6622,9.6739,0.8456,0.164,-0.4146,-0.5266,0.0464,-0.2147,0.0117,2763,2019-08-07 16:58:44:765
3.3272,9.44,0.3931,-0.601,-0.0331,0.1669,0.0453,-0.1433,0.0021,2767,2019-08-07 16:58:44:769
3.3272,9.44,0.3931,-0.601,-0.0331,0.1669,0.0453,-0.1433,0.0021,2773,2019-08-07 16:58:44:775