ACCELEROMETER X (m/s²),ACCELEROMETER Y (m/s²),ACCELEROMETER Z (m/s²),LINEAR ACCELERATION X (m/s²),LINEAR ACCELERATION Y (m/s²),LINEAR ACCELERATION Z (m/s²),GYROSCOPE X (rad/s),GYROSCOPE Y (rad/s),GYROSCOPE Z (rad/s),Time since start in ms ,YYYY-MO-DD HH-MI-SS_SSS
2.6086,9.7642,0.2808,-0.0377,-0.3537,0.2312,0.1369,0.0069,-0.0245,3,2019-08-07 16:57:30:478
2.6038,9.7642,0.3562,-0.0377,-0.3537,0.2312,0.1369,0.0069,-0.0245,8,2019-08-07 16:57:30:483
2.6038,9.7642,0.3562,-1.0E-4,-0.3075,0.2352,0.1369,0.0069,-0.0245,13,2019-08-07 16:57:30:488
2.6038,9.7642,0.3562,-1.0E-4,-0.3075,0.2352,0.1082,-0.0751,-0.0171,18,2019-08-07 16:57:30:493
2.7091,9.6306,0.1488,-1.0E-4,-0.3075,0.2352,0.1082,-0.0751,-0.0171,22,2019-08-07 16:57:30:497
2.7091,9.6306,0.1488,-1.0E-4,-0.3075,0.2352,0.0645,-0.1305,-0.0107,28,2019-08-07 16:57:30:503
2.7809,9.6974,-0.0256,-0.2349,-0.2391,0.5683,0.0645,-0.1305,-0.0107,33,2019-08-07 16:57:30:508
2.7809,9.6974,-0.0256,-0.2349,-0.2391,0.5683,0.0347,-0.0986,-0.0277,37,2019-08-07 16:57:30:512
2.7809,9.6974,-0.0256,-0.2349,-0.2391,0.5683,0.0347,-0.0986,-0.0277,43,2019-08-07 16:57:30:518
2.757,9.8454,0.7569,-0.2349,-0.2391,0.5683,0.0262,-0.0932,-0.0384,47,2019-08-07 16:57:30:522
2.757,9.8454,0.7569,-0.249,-0.3041,-0.0317,0.0262,-0.0932,-0.0384,53,2019-08-07 16:57:30:528
2.7857,9.7451,0.3939,-0.249,-0.3041,-0.0317,0.0176,-0.1018,-0.0448,57,2019-08-07 16:57:30:532
2.7857,9.7451,0.3939,-0.249,-0.3041,-0.0317,0.0176,-0.1018,-0.0448,63,2019-08-07 16:57:30:538
2.7857,9.7451,0.3939,-0.3,-0.2839,0.1759,0.0155,-0.0091,-0.0618,68,2019-08-07 16:57:30:543
2.6948,9.7165,0.5683,-0.3,-0.2839,0.1759,0.0155,-0.0091,-0.0618,72,2019-08-07 16:57:30:547
2.6948,9.7165,0.5683,-0.3,-0.2839,0.1759,0.0251,0.0846,-0.0746,78,2019-08-07 16:57:30:553
2.6948,9.7165,0.5683,-0.3,-0.2839,0.1759,0.0251,0.0846,-0.0746,83,2019-08-07 16:57:30:558
2.5896,9.8024,0.7192,-0.0644,-0.3376,-0.1928,0.0144,0.0633,-0.0661,88,2019-08-07 16:57:30:563
2.5896,9.8024,0.7192,-0.0644,-0.3376,-0.1928,0.0144,0.0633,-0.0661,93,2019-08-07 16:57:30:568
2.6135,9.8693,0.1064,-0.0644,-0.3376,-0.1928,-0.0154,0.0751,-0.0831,98,2019-08-07 16:57:30:573
2.6135,9.8693,0.1064,0.2066,-0.3668,0.4073,-0.0154,0.0751,-0.0831,103,2019-08-07 16:57:30:578
2.2021,9.7738,0.2714,0.2066,-0.3668,0.4073,-0.0228,0.1017,-0.0778,108,2019-08-07 16:57:30:583
2.2021,9.7738,0.2714,0.2066,-0.3668,0.4073,-0.0228,0.1017,-0.0778,113,2019-08-07 16:57:30:588
2.2021,9.7738,0.2714,0.2066,-0.3668,0.4073,-0.0623,-0.04,-0.0512,118,2019-08-07 16:57:30:593
2.3265,9.5924,0.7757,0.1489,-0.1344,-0.2051,-0.0623,-0.04,-0.0512,122,2019-08-07 16:57:30:597
2.3265,9.5924,0.7757,0.1489,-0.1344,-0.2051,-0.0623,-0.04,-0.0512,128,2019-08-07 16:57:30:603
2.5753,9.5733,0.5919,0.1489,-0.1344,-0.2051,-0.0814,-0.1646,-0.0427,133,2019-08-07 16:57:30:608
2.5753,9.5733,0.5919,0.1489,-0.1344,-0.2051,-0.0814,-0.1646,-0.0427,137,2019-08-07 16:57:30:612
2.5753,9.5733,0.5919,0.1489,-0.1344,-0.2051,-0.09,-0.1476,-0.0427,143,2019-08-07 16:57:30:618
2.8049,9.5828,0.6485,-0.3073,-0.1094,-0.1392,-0.09,-0.1476,-0.0427,148,2019-08-07 16:57:30:623
2.8049,9.5828,0.6485,-0.3073,-0.1094,-0.1392,-0.0782,-0.0911,-0.0427,152,2019-08-07 16:57:30:627
2.8049,9.5828,0.6485,-0.3073,-0.1094,-0.1392,-0.0782,-0.0911,-0.0427,158,2019-08-07 16:57:30:633
2.714,9.621,0.7098,-0.1651,-0.2946,-0.2546,-0.0665,-0.0059,-0.0544,163,2019-08-07 16:57:30:638
2.714,9.621,0.7098,-0.1651,-0.2946,-0.2546,-0.0665,-0.0059,-0.0544,168,2019-08-07 16:57:30:643
2.714,9.621,0.7098,-0.1651,-0.2946,-0.2546,-0.0665,-0.0059,-0.0544,172,2019-08-07 16:57:30:647
2.3456,9.9934,0.8842,-0.1651,-0.2946,-0.2546,-0.0484,0.0271,-0.0565,177,2019-08-07 16:57:30:652
2.3456,9.9934,0.8842,-0.1651,-0.2946,-0.2546,-0.0484,0.0271,-0.0565,182,2019-08-07 16:57:30:657
2.25,9.7642,0.9596,0.2672,-0.2635,-0.3588,-0.0612,-0.0474,-0.0427,188,2019-08-07 16:57:30:663
2.25,9.7642,0.9596,0.2672,-0.2635,-0.3588,-0.0612,-0.0474,-0.0427,192,2019-08-07 16:57:30:667
2.25,9.7642,0.9596,0.2672,-0.2635,-0.3588,-0.0484,-0.1444,-0.0448,198,2019-08-07 16:57:30:673
2.2883,9.8358,0.8606,-0.0142,-0.2521,-0.3148,-0.0484,-0.1444,-0.0448,203,2019-08-07 16:57:30:678
2.2883,9.8358,0.8606,-0.0142,-0.2521,-0.3148,-0.0452,-0.2296,-0.0373,207,2019-08-07 16:57:30:682
2.6136,9.5017,0.9502,-0.0142,-0.2521,-0.3148,-0.0452,-0.2296,-0.0373,213,2019-08-07 16:57:30:688
2.6136,9.5017,0.9502,-0.155,0.0014,-0.3807,-0.0282,-0.2424,-0.0309,217,2019-08-07 16:57:30:692
2.6136,9.5017,0.9502,-0.155,0.0014,-0.3807,-0.0282,-0.2424,-0.0309,223,2019-08-07 16:57:30:698
2.7284,9.3823,0.9549,-0.155,0.0014,-0.3807,-0.0037,-0.1998,-0.0352,228,2019-08-07 16:57:30:703
2.7284,9.3823,0.9549,-0.155,0.0014,-0.3807,-0.0037,-0.1998,-0.0352,233,2019-08-07 16:57:30:708
2.8385,9.3441,1.299,-0.3775,0.1313,-0.6405,-0.0037,-0.1998,-0.0352,237,2019-08-07 16:57:30:712
2.8385,9.3441,1.299,-0.3775,0.1313,-0.6405,0.0507,-0.1401,-0.0554,243,2019-08-07 16:57:30:718
2.8385,9.3441,1.299,-0.3775,0.1313,-0.6405,0.0507,-0.1401,-0.0554,248,2019-08-07 16:57:30:723
2.7907,9.3203,1.1104,-0.3775,0.1313,-0.6405,0.0986,-0.0592,-0.0597,252,2019-08-07 16:57:30:727
2.7907,9.3203,1.1104,-0.3841,0.1577,-0.4518,0.0986,-0.0592,-0.0597,258,2019-08-07 16:57:30:733
2.7715,9.2152,0.936,-0.3841,0.1577,-0.4518,0.1497,0.0484,-0.0725,262,2019-08-07 16:57:30:737
2.7715,9.2152,0.936,-0.3841,0.1577,-0.4518,0.1497,0.0484,-0.0725,268,2019-08-07 16:57:30:743
2.7715,9.2152,0.936,-0.3841,0.1577,-0.4518,0.1987,0.1123,-0.0874,273,2019-08-07 16:57:30:748
2.6137,9.2582,0.8323,-0.1773,0.2294,-0.2983,0.1987,0.1123,-0.0874,278,2019-08-07 16:57:30:753
2.6137,9.2582,0.8323,-0.1773,0.2294,-0.2983,0.2307,0.1443,-0.0959,283,2019-08-07 16:57:30:758
2.6137,9.2582,0.8323,-0.1773,0.2294,-0.2983,0.2307,0.1443,-0.0959,288,2019-08-07 16:57:30:763
2.4127,9.3919,0.6626,-0.1773,0.2294,-0.2983,0.2605,0.1741,-0.0949,293,2019-08-07 16:57:30:768
2.4127,9.3919,0.6626,0.0758,0.098,-0.0805,0.2605,0.1741,-0.0949,298,2019-08-07 16:57:30:773
2.2979,9.3966,0.6202,0.0758,0.098,-0.0805,0.2605,0.1741,-0.0949,302,2019-08-07 16:57:30:777
2.2979,9.3966,0.6202,0.0758,0.098,-0.0805,0.2712,0.1347,-0.0949,308,2019-08-07 16:57:30:783
2.2979,9.3966,0.6202,0.0758,0.098,-0.0805,0.2712,0.1347,-0.0949,312,2019-08-07 16:57:30:787
2.2884,9.5208,0.4835,0.108,-0.0187,-0.0307,0.2637,0.0804,-0.0927,318,2019-08-07 16:57:30:793
2.2884,9.5208,0.4835,0.108,-0.0187,-0.0307,0.2637,0.0804,-0.0927,322,2019-08-07 16:57:30:797
2.2932,9.4491,0.2054,0.0939,0.0563,0.2233,0.2605,0.0527,-0.0821,328,2019-08-07 16:57:30:803
2.2932,9.4491,0.2054,0.0939,0.0563,0.2233,0.2605,0.0527,-0.0821,332,2019-08-07 16:57:30:807
2.2932,9.4491,0.2054,0.0939,0.0563,0.2233,0.2371,0.0601,-0.0789,338,2019-08-07 16:57:30:813
2.2884,9.874,0.361,0.0939,0.0563,0.2233,0.2371,0.0601,-0.0789,344,2019-08-07 16:57:30:819
2.2884,9.874,0.361,0.1391,-0.5533,-0.1288,0.2147,0.0048,-0.0661,347,2019-08-07 16:57:30:822
2.1066,9.9981,0.3657,0.1391,-0.5533,-0.1288,0.2147,0.0048,-0.0661,353,2019-08-07 16:57:30:828
2.1066,9.9981,0.3657,0.1391,-0.5533,-0.1288,0.2147,0.0048,-0.0661,357,2019-08-07 16:57:30:832
2.1066,9.9981,0.3657,0.1391,-0.5533,-0.1288,0.1987,-0.0624,-0.049,363,2019-08-07 16:57:30:838
2.1927,9.9074,0.1017,0.1642,-0.3909,0.239,0.1987,-0.0624,-0.049,367,2019-08-07 16:57:30:842
2.1927,9.9074,0.1017,0.1642,-0.3909,0.239,0.1796,-0.0432,-0.048,373,2019-08-07 16:57:30:848
2.1927,9.9074,0.1017,0.1642,-0.3909,0.239,0.1796,-0.0432,-0.048,378,2019-08-07 16:57:30:853
2.0923,10.0363,0.1771,0.1642,-0.3909,0.239,0.154,-0.0485,-0.0373,382,2019-08-07 16:57:30:857
2.0923,10.0363,0.1771,0.2348,-0.6018,0.0047,0.154,-0.0485,-0.0373,388,2019-08-07 16:57:30:863
2.188,10.2416,0.2478,0.2348,-0.6018,0.0047,0.1327,-0.0815,-0.0277,392,2019-08-07 16:57:30:867
2.188,10.2416,0.2478,0.2348,-0.6018,0.0047,0.1327,-0.0815,-0.0277,398,2019-08-07 16:57:30:873
2.188,10.2416,0.2478,0.2348,-0.6018,0.0047,0.1135,-0.1199,-0.016,403,2019-08-07 16:57:30:878
2.1162,10.423,0.5165,0.2571,-0.8715,-0.2687,0.1135,-0.1199,-0.016,408,2019-08-07 16:57:30:883
2.1162,10.423,0.5165,0.2571,-0.8715,-0.2687,0.1135,-0.1199,-0.016,412,2019-08-07 16:57:30:887
2.1928,10.2082,0.6957,0.2571,-0.8715,-0.2687,0.089,-0.2051,0.0021,418,2019-08-07 16:57:30:893
2.1928,10.2082,0.6957,0.2571,-0.8715,-0.2687,0.089,-0.2051,0.0021,422,2019-08-07 16:57:30:897
2.1928,10.2082,0.6957,0.2571,-0.8715,-0.2687,0.0773,-0.2807,0.0064,428,2019-08-07 16:57:30:903
2.3261,9.9552,0.3797,0.0134,-0.4316,-0.1289,0.0773,-0.2807,0.0064,432,2019-08-07 16:57:30:907
2.3261,9.9552,0.3797,0.0134,-0.4316,-0.1289,0.0634,-0.2552,-0.0086,438,2019-08-07 16:57:30:913
2.704,9.5829,0.3373,0.0134,-0.4316,-0.1289,0.0634,-0.2552,-0.0086,444,2019-08-07 16:57:30:919
2.704,9.5829,0.3373,-0.4453,-0.0635,-0.2477,0.089,-0.1668,-0.0309,447,2019-08-07 16:57:30:922
2.704,9.5829,0.3373,-0.4453,-0.0635,-0.2477,0.089,-0.1668,-0.0309,453,2019-08-07 16:57:30:928
2.771,9.559,0.5352,-0.4453,-0.0635,-0.2477,0.1167,-0.1007,-0.0512,458,2019-08-07 16:57:30:933
2.771,9.559,0.5352,-0.4453,-0.0635,-0.2477,0.1167,-0.1007,-0.0512,463,2019-08-07 16:57:30:938
2.594,9.4778,0.5682,-0.2596,0.0482,-0.3664,0.1487,-0.0411,-0.0597,468,2019-08-07 16:57:30:943
2.594,9.4778,0.5682,-0.2596,0.0482,-0.3664,0.1487,-0.0411,-0.0597,473,2019-08-07 16:57:30:948
2.594,9.4778,0.5682,-0.2596,0.0482,-0.3664,0.1849,-0.0112,-0.0682,478,2019-08-07 16:57:30:953
2.3883,9.7404,1.115,-0.2596,0.0482,-0.3664,0.1849,-0.0112,-0.0682,483,2019-08-07 16:57:30:958
2.3883,9.7404,1.115,0.1112,-0.144,-0.8774,0.2136,-0.1114,-0.0522,488,2019-08-07 16:57:30:963
2.3883,9.7404,1.115,0.1112,-0.144,-0.8774,0.2136,-0.1114,-0.0522,493,2019-08-07 16:57:30:968
2.1873,9.6354,0.7097,0.1112,-0.144,-0.8774,0.2328,-0.1731,-0.0512,498,2019-08-07 16:57:30:973
2.1873,9.6354,0.7097,0.1112,-0.144,-0.8774,0.2328,-0.1731,-0.0512,502,2019-08-07 16:57:30:977
2.4505,9.8788,0.4551,-0.172,-0.3985,-0.4259,0.2328,-0.1731,-0.0512,508,2019-08-07 16:57:30:983
2.4505,9.8788,0.4551,-0.172,-0.3985,-0.4259,0.2467,-0.1625,-0.0831,512,2019-08-07 16:57:30:987
2.4505,9.8788,0.4551,-0.172,-0.3985,-0.4259,0.2467,-0.1625,-0.0831,518,2019-08-07 16:57:30:993
2.8619,9.9982,0.6201,-0.172,-0.3985,-0.4259,0.236,-0.2158,-0.1289,523,2019-08-07 16:57:30:998
2.8619,9.9982,0.6201,-0.172,-0.3985,-0.4259,0.236,-0.2158,-0.1289,528,2019-08-07 16:57:31:003
3.6322,10.0077,0.375,-1.2211,-0.461,-0.2564,0.236,-0.2158,-0.1289,533,2019-08-07 16:57:31:008
3.6322,10.0077,0.375,-1.2211,-0.461,-0.2564,0.2094,-0.1092,-0.2312,538,2019-08-07 16:57:31:013
3.6322,10.0077,0.375,-1.2211,-0.461,-0.2564,0.2094,-0.1092,-0.2312,543,2019-08-07 16:57:31:018
4.1154,9.7547,1.2235,-1.2211,-0.461,-0.2564,0.2232,0.0783,-0.358,547,2019-08-07 16:57:31:022
4.1154,9.7547,1.2235,-1.8618,-0.0305,-1.7689,0.2232,0.0783,-0.358,553,2019-08-07 16:57:31:028
3.857,9.5113,2.5339,-1.8618,-0.0305,-1.7689,0.3415,0.1187,-0.4336,557,2019-08-07 16:57:31:032
3.857,9.5113,2.5339,-1.8618,-0.0305,-1.7689,0.3415,0.1187,-0.4336,563,2019-08-07 16:57:31:038
3.857,9.5113,2.5339,-1.8618,-0.0305,-1.7689,0.5215,0.1145,-0.4496,567,2019-08-07 16:57:31:042
3.3069,9.8454,3.3541,-1.1275,-0.2806,-3.3739,0.5215,0.1145,-0.4496,573,2019-08-07 16:57:31:048
3.3069,9.8454,3.3541,-1.1275,-0.2806,-3.3739,0.7974,0.1795,-0.391,578,2019-08-07 16:57:31:053
2.9815,10.3228,3.7925,-1.1275,-0.2806,-3.3739,0.7974,0.1795,-0.391,583,2019-08-07 16:57:31:058
2.9815,10.3228,3.7925,-1.1275,-0.2806,-3.3739,0.7974,0.1795,-0.391,588,2019-08-07 16:57:31:063
2.4553,11.0866,4.4901,-0.4474,-1.2348,-4.5411,0.9274,0.1379,-0.3601,592,2019-08-07 16:57:31:067
2.4553,11.0866,4.4901,-0.4474,-1.2348,-4.5411,0.9274,0.1379,-0.3601,598,2019-08-07 16:57:31:073
2.4553,11.0866,4.4901,-0.4474,-1.2348,-4.5411,0.937,-0.2158,-0.3441,602,2019-08-07 16:57:31:077
2.8619,12.1846,5.7817,-0.4474,-1.2348,-4.5411,0.937,-0.2158,-0.3441,608,2019-08-07 16:57:31:083
2.8619,12.1846,5.7817,-0.9755,-2.6556,-6.6111,0.8571,-0.9188,-0.3281,612,2019-08-07 16:57:31:087
2.8619,12.1846,5.7817,-0.9755,-2.6556,-6.6111,0.8571,-0.9188,-0.3281,618,2019-08-07 16:57:31:093
4.168,12.3087,4.7447,-0.9755,-2.6556,-6.6111,0.8379,-1.5686,-0.1684,623,2019-08-07 16:57:31:098
4.168,12.3087,4.7447,-0.9755,-2.6556,-6.6111,0.8379,-1.5686,-0.1684,628,2019-08-07 16:57:31:103
4.5508,12.1846,3.3541,-2.7706,-2.506,-3.3307,0.7804,-1.4142,-0.1811,633,2019-08-07 16:57:31:108
4.5508,12.1846,3.3541,-2.7706,-2.506,-3.3307,0.7804,-1.4142,-0.1811,637,2019-08-07 16:57:31:112
4.5508,12.1846,3.3541,-2.7706,-2.506,-3.3307,0.6153,-0.8155,-0.3377,643,2019-08-07 16:57:31:118
2.8045,12.3374,8.6524,-2.7706,-2.506,-3.3307,0.6153,-0.8155,-0.3377,648,2019-08-07 16:57:31:123
2.8045,12.3374,8.6524,-0.462,-2.4714,-9.9319,0.5993,-1.1298,-0.2195,653,2019-08-07 16:57:31:128
2.8045,12.3374,8.6524,-0.462,-2.4714,-9.9319,0.5993,-1.1298,-0.2195,658,2019-08-07 16:57:31:133
2.8715,11.5688,8.0066,-1.3622,-1.5773,-8.303,0.5993,-1.1298,-0.2195,662,2019-08-07 16:57:31:137
2.8715,11.5688,8.0066,-1.3622,-1.5773,-8.303,0.416,-1.1841,-0.0352,668,2019-08-07 16:57:31:143
4.3546,9.9266,8.9588,-1.3622,-1.5773,-8.303,0.416,-1.1841,-0.0352,672,2019-08-07 16:57:31:147
4.3546,9.9266,8.9588,-1.3622,-1.5773,-8.303,0.122,-0.8762,0.115,678,2019-08-07 16:57:31:153
4.3546,9.9266,8.9588,-2.0698,-0.1777,-9.8937,0.122,-0.8762,0.115,682,2019-08-07 16:57:31:157
3.7375,9.5542,8.7703,-2.0698,-0.1777,-9.8937,-0.2093,-0.6791,0.2972,688,2019-08-07 16:57:31:163
3.7375,9.5542,8.7703,-2.0698,-0.1777,-9.8937,-0.2093,-0.6791,0.2972,692,2019-08-07 16:57:31:167
3.0916,8.9193,9.4114,-2.0698,-0.1777,-9.8937,-0.6482,-0.5226,0.4463,698,2019-08-07 16:57:31:173
3.0916,8.9193,9.4114,-0.9673,0.7512,-10.1929,-0.6482,-0.5226,0.4463,703,2019-08-07 16:57:31:178
3.0916,8.9193,9.4114,-0.9673,0.7512,-10.1929,-1.1542,-0.4735,0.556,707,2019-08-07 16:57:31:182
3.0916,8.9193,9.4114,-0.9673,0.7512,-10.1929,-1.1542,-0.4735,0.556,713,2019-08-07 16:57:31:188
2.9241,9.1532,9.6376,-0.9673,0.7512,-10.1929,-1.1542,-0.4735,0.556,717,2019-08-07 16:57:31:192
2.9241,9.1532,9.6376,-1.4046,0.1769,-9.0367,-1.4908,-0.3851,0.6381,723,2019-08-07 16:57:31:198
3.4265,9.5351,8.1811,-1.4046,0.1769,-9.0367,-1.4908,-0.3851,0.6381,728,2019-08-07 16:57:31:203
3.4265,9.5351,8.1811,-1.4046,0.1769,-9.0367,-1.7081,-0.0102,0.5912,733,2019-08-07 16:57:31:208
3.4265,9.5351,8.1811,-1.4046,0.1769,-9.0367,-1.7081,-0.0102,0.5912,738,2019-08-07 16:57:31:213
2.3213,10.1319,6.9743,-0.1113,-0.5742,-6.9184,-1.8881,0.4234,0.4985,743,2019-08-07 16:57:31:218
2.3213,10.1319,6.9743,-0.1113,-0.5742,-6.9184,-1.8881,0.4234,0.4985,748,2019-08-07 16:57:31:223
2.3213,10.1319,6.9743,-0.1113,-0.5742,-6.9184,-1.8881,0.4234,0.4985,752,2019-08-07 16:57:31:227
1.5894,10.0459,5.3905,-0.1113,-0.5742,-6.9184,-2.0394,0.7781,0.4357,758,2019-08-07 16:57:31:233
1.5894,10.0459,5.3905,0.7427,-0.3771,-4.7778,-2.0394,0.7781,0.4357,762,2019-08-07 16:57:31:237
1.5894,10.0459,5.3905,0.7427,-0.3771,-4.7778,-2.131,1.0658,0.3984,768,2019-08-07 16:57:31:243
1.4985,9.6831,5.4518,0.7427,-0.3771,-4.7778,-2.131,1.0658,0.3984,773,2019-08-07 16:57:31:248
1.4985,9.6831,5.4518,0.7427,-0.3771,-4.7778,-2.1789,1.3108,0.3717,778,2019-08-07 16:57:31:253
1.3836,9.664,4.8767,0.9524,-0.1904,-3.8622,-2.1789,1.3108,0.3717,783,2019-08-07 16:57:31:258
1.3836,9.664,4.8767,0.9524,-0.1904,-3.8622,-2.2311,1.511,0.3259,788,2019-08-07 16:57:31:263
1.3836,9.664,4.8767,0.9053,-0.4299,-3.2893,-2.2311,1.511,0.3259,794,2019-08-07 16:57:31:269
1.4315,9.8979,4.3299,0.9053,-0.4299,-3.2893,-2.2311,1.511,0.3259,798,2019-08-07 16:57:31:273
1.4315,9.8979,4.3299,0.9053,-0.4299,-3.2893,-2.2429,1.4812,0.2609,803,2019-08-07 16:57:31:278
1.575,10.3658,3.2174,0.9053,-0.4299,-3.2893,-2.2429,1.4812,0.2609,808,2019-08-07 16:57:31:283
1.575,10.3658,3.2174,0.5839,-1.1372,-0.8221,-2.2492,1.4524,0.2077,813,2019-08-07 16:57:31:288
1.575,10.3658,3.2174,0.5839,-1.1372,-0.8221,-2.2492,1.4524,0.2077,817,2019-08-07 16:57:31:292
2.0104,10.6331,1.5205,0.5839,-1.1372,-0.8221,-2.2173,1.5004,0.1491,823,2019-08-07 16:57:31:298
2.0104,10.6331,1.5205,0.5839,-1.1372,-0.8221,-2.2173,1.5004,0.1491,828,2019-08-07 16:57:31:303
2.7902,10.4231,0.4834,-0.4886,-1.1609,1.7861,-2.1981,1.5803,0.0724,833,2019-08-07 16:57:31:308
2.7902,10.4231,0.4834,-0.4886,-1.1609,1.7861,-2.1981,1.5803,0.0724,837,2019-08-07 16:57:31:312
2.7902,10.4231,0.4834,-0.4886,-1.1609,1.7861,-2.1768,1.6335,-0.1034,844,2019-08-07 16:57:31:319
3.3595,10.213,-0.8365,-0.4886,-1.1609,1.7861,-2.1768,1.6335,-0.1034,847,2019-08-07 16:57:31:322
3.3595,10.213,-0.8365,-1.5527,-0.3127,6.4837,-2.1768,1.6335,-0.1034,853,2019-08-07 16:57:31:328
3.3595,10.213,-0.8365,-1.5527,-0.3127,6.4837,-2.147,1.6889,-0.1556,857,2019-08-07 16:57:31:332
4.3355,9.6067,-4.353,-1.5527,-0.3127,6.4837,-2.147,1.6889,-0.1556,863,2019-08-07 16:57:31:338
4.3355,9.6067,-4.353,-1.5527,-0.3127,6.4837,-2.0926,1.9265,-0.0597,868,2019-08-07 16:57:31:343
4.4982,9.6258,-3.5705,-1.9404,-0.2903,6.7824,-2.0926,1.9265,-0.0597,872,2019-08-07 16:57:31:347
4.4982,9.6258,-3.5705,-1.9404,-0.2903,6.7824,-1.9723,2.7851,0.0415,878,2019-08-07 16:57:31:353
4.4982,9.6258,-3.5705,-1.9404,-0.2903,6.7824,-1.9723,2.7851,0.0415,882,2019-08-07 16:57:31:357
2.1204,8.0075,-0.8647,-1.9404,-0.2903,6.7824,-1.5973,3.6394,0.0852,888,2019-08-07 16:57:31:363
2.1204,8.0075,-0.8647,-1.9404,-0.2903,6.7824,-1.5973,3.6394,0.0852,892,2019-08-07 16:57:31:367
-0.0181,7.6495,2.1474,1.3212,1.4274,1.3118,-1.5973,3.6394,0.0852,897,2019-08-07 16:57:31:372
-0.0181,7.6495,2.1474,1.3212,1.4274,1.3118,-1.4364,3.0386,0.0649,903,2019-08-07 16:57:31:378
-0.0181,7.6495,2.1474,1.3212,1.4274,1.3118,-1.4364,3.0386,0.0649,907,2019-08-07 16:57:31:382
-1.7309,6.8713,-0.9873,1.3212,1.4274,1.3118,-1.3917,2.2024,0.098,913,2019-08-07 16:57:31:388
-1.7309,6.8713,-0.9873,3.1736,3.1514,5.3511,-1.3917,2.2024,0.098,918,2019-08-07 16:57:31:393
-1.7309,6.8713,-0.9873,3.1736,3.1514,5.3511,-1.0061,1.4855,-0.0448,922,2019-08-07 16:57:31:397
-0.4726,4.6849,-3.8533,3.1736,3.1514,5.3511,-1.0061,1.4855,-0.0448,928,2019-08-07 16:57:31:403
-0.4726,4.6849,-3.8533,3.1736,3.1514,5.3511,-0.7121,1.0572,-0.1044,933,2019-08-07 16:57:31:408
-0.4726,4.6849,-3.8533,0.6929,3.2612,9.1554,-0.7121,1.0572,-0.1044,937,2019-08-07 16:57:31:412
1.642,5.8879,-3.8957,0.6929,3.2612,9.1554,-0.5501,0.597,-0.1353,944,2019-08-07 16:57:31:419
1.642,5.8879,-3.8957,0.6929,3.2612,9.1554,-0.5501,0.597,-0.1353,947,2019-08-07 16:57:31:422
1.7521,5.4869,-6.0782,0.6929,3.2612,9.1554,-0.5501,0.597,-0.1353,953,2019-08-07 16:57:31:428
1.7521,5.4869,-6.0782,-0.2317,3.3752,10.47,-0.2583,0.6056,-0.2877,957,2019-08-07 16:57:31:432
1.7521,5.4869,-6.0782,-0.2317,3.3752,10.47,-0.2583,0.6056,-0.2877,963,2019-08-07 16:57:31:438
1.1349,5.0334,-6.0923,-0.2317,3.3752,10.47,-0.0708,1.1446,-0.4613,968,2019-08-07 16:57:31:443
1.1349,5.0334,-6.0923,-0.2317,3.3752,10.47,-0.0708,1.1446,-0.4613,972,2019-08-07 16:57:31:447
0.6661,5.0764,-4.4802,0.6553,3.7374,8.5799,-0.0452,1.217,-0.4166,978,2019-08-07 16:57:31:453
0.6661,5.0764,-4.4802,0.6553,3.7374,8.5799,-0.0452,1.217,-0.4166,983,2019-08-07 16:57:31:458
0.6661,5.0764,-4.4802,0.6553,3.7374,8.5799,-0.0729,-0.0869,-0.2919,987,2019-08-07 16:57:31:462
-0.3291,5.0573,3.7312,0.6553,3.7374,8.5799,-0.0729,-0.0869,-0.2919,994,2019-08-07 16:57:31:469
-0.3291,5.0573,3.7312,-0.0205,4.0734,2.2487,0.84,-1.0467,-0.162,998,2019-08-07 16:57:31:473
3.3787,4.7852,-0.5442,-0.0205,4.0734,2.2487,0.84,-1.0467,-0.162,1003,2019-08-07 16:57:31:478
3.3787,4.7852,-0.5442,-0.0205,4.0734,2.2487,1.7039,-1.7252,-0.1194,1007,2019-08-07 16:57:31:482
8.1917,16.0943,19.4754,-0.0205,4.0734,2.2487,1.7039,-1.7252,-0.1194,1013,2019-08-07 16:57:31:488
8.1917,16.0943,19.4754,-5.1046,-8.2429,-14.1431,1.6326,-4.3564,-0.1449,1017,2019-08-07 16:57:31:492
8.1917,16.0943,19.4754,-5.1046,-8.2429,-14.1431,1.6326,-4.3564,-0.1449,1023,2019-08-07 16:57:31:498
4.0581,27.9955,-3.2546,-5.1046,-8.2429,-14.1431,2.0065,-0.824,-0.1321,1028,2019-08-07 16:57:31:503
4.0581,27.9955,-3.2546,-5.1046,-8.2429,-14.1431,2.0065,-0.824,-0.1321,1033,2019-08-07 16:57:31:508
4.0581,27.9955,-3.2546,-0.0086,-20.5787,10.205,2.7884,0.9156,0.2844,1037,2019-08-07 16:57:31:512
1.8239,27.7998,-8.7839,-0.0086,-20.5787,10.205,2.7884,0.9156,0.2844,1043,2019-08-07 16:57:31:518
1.8239,27.7998,-8.7839,-0.0086,-20.5787,10.205,3.402,1.4748,0.4836,1048,2019-08-07 16:57:31:523
1.8239,27.7998,-8.7839,-0.0086,-20.5787,10.205,3.402,1.4748,0.4836,1052,2019-08-07 16:57:31:527
1.245,21.484,-14.4311,0.3022,-12.3613,18.1441,3.402,1.4748,0.4836,1058,2019-08-07 16:57:31:533
1.245,21.484,-14.4311,0.3022,-12.3613,18.1441,3.3434,1.3225,0.6572,1063,2019-08-07 16:57:31:538
1.4316,17.1255,15.3366,0.3022,-12.3613,18.1441,3.3434,1.3225,0.6572,1068,2019-08-07 16:57:31:543
1.4316,17.1255,15.3366,0.3022,-12.3613,18.1441,0.839,-4.4257,0.393,1072,2019-08-07 16:57:31:547
-8.1034,0.9041,8.1528,9.7409,8.474,-5.7848,0.839,-4.4257,0.393,1078,2019-08-07 16:57:31:553
-8.1034,0.9041,8.1528,9.7409,8.474,-5.7848,2.9865,-1.6805,0.3707,1083,2019-08-07 16:57:31:558
-8.1034,0.9041,8.1528,9.7409,8.474,-5.7848,2.9865,-1.6805,0.3707,1087,2019-08-07 16:57:31:562
-8.1034,0.9041,8.1528,9.7409,8.474,-5.7848,2.9865,-1.6805,0.3707,1093,2019-08-07 16:57:31:568
9.0194,2.6895,-18.0701,-6.5555,11.7659,9.696,1.851,-1.1031,0.3387,1097,2019-08-07 16:57:31:572
9.0194,2.6895,-18.0701,-6.5555,11.7659,9.696,1.851,-1.1031,0.3387,1103,2019-08-07 16:57:31:578
9.7896,2.5844,-6.757,-6.5555,11.7659,9.696,0.17,-1.6347,0.4026,1107,2019-08-07 16:57:31:582
9.7896,2.5844,-6.757,-6.5555,11.7659,9.696,0.17,-1.6347,0.4026,1113,2019-08-07 16:57:31:588
9.7896,2.5844,-6.757,-0.4763,-14.082,16.5513,1.0051,-1.5814,-0.0821,1117,2019-08-07 16:57:31:592
1.3215,25.0357,-19.7907,-0.4763,-14.082,16.5513,1.0051,-1.5814,-0.0821,1123,2019-08-07 16:57:31:598
1.3215,25.0357,-19.7907,-0.4763,-14.082,16.5513,-0.4095,2.4368,-0.1662,1128,2019-08-07 16:57:31:603
2.7568,15.5167,19.8525,-0.4763,-14.082,16.5513,-0.4095,2.4368,-0.1662,1133,2019-08-07 16:57:31:608
2.7568,15.5167,19.8525,-1.7982,-1.3223,-2.8103,0.8379,0.1422,0.0255,1137,2019-08-07 16:57:31:612
2.7568,15.5167,19.8525,-1.7982,-1.3223,-2.8103,0.8379,0.1422,0.0255,1143,2019-08-07 16:57:31:618
2.6133,9.7595,-10.9334,-1.7982,-1.3223,-2.8103,0.8379,0.1422,0.0255,1147,2019-08-07 16:57:31:622
2.6133,9.7595,-10.9334,-1.7982,-1.3223,-2.8103,-0.5342,-0.4959,-0.2653,1153,2019-08-07 16:57:31:628
2.6133,9.7595,-10.9334,-0.0636,-1.8601,6.7548,-0.5342,-0.4959,-0.2653,1158,2019-08-07 16:57:31:633
2.4219,12.2276,-8.3031,-0.0636,-1.8601,6.7548,-0.1933,0.2796,-0.3015,1162,2019-08-07 16:57:31:637
2.4219,12.2276,-8.3031,-0.0636,-1.8601,6.7548,-0.1933,0.2796,-0.3015,1168,2019-08-07 16:57:31:643
0.8527,11.1391,0.6013,-0.0636,-1.8601,6.7548,-0.8165,1.1116,-0.2493,1172,2019-08-07 16:57:31:647
0.8527,11.1391,0.6013,2.0749,-1.2271,1.8224,-0.8165,1.1116,-0.2493,1178,2019-08-07 16:57:31:653
0.8527,11.1391,0.6013,2.0749,-1.2271,1.8224,-0.7813,0.9901,-0.2195,1183,2019-08-07 16:57:31:658
-1.3816,10.9529,-2.0667,2.0749,-1.2271,1.8224,-0.7813,0.9901,-0.2195,1188,2019-08-07 16:57:31:663
-1.3816,10.9529,-2.0667,2.0749,-1.2271,1.8224,-1.2468,0.5033,-0.1407,1192,2019-08-07 16:57:31:667
-1.3816,10.9529,-2.0667,2.0749,-1.2271,1.8224,-1.2468,0.5033,-0.1407,1198,2019-08-07 16:57:31:673
-1.2237,12.1941,0.3373,2.9305,-2.723,1.5655,-1.38,-0.2072,0.0436,1202,2019-08-07 16:57:31:677
-1.2237,12.1941,0.3373,2.9305,-2.723,1.5655,-1.38,-0.2072,0.0436,1208,2019-08-07 16:57:31:683
0.2594,11.8361,-2.8209,2.9305,-2.723,1.5655,-1.6122,-0.4096,0.0649,1213,2019-08-07 16:57:31:688
0.2594,11.8361,-2.8209,2.9305,-2.723,1.5655,-1.6122,-0.4096,0.0649,1218,2019-08-07 16:57:31:693
0.2594,11.8361,-2.8209,0.9593,-2.2109,3.9205,-1.7219,-0.3404,-0.1204,1223,2019-08-07 16:57:31:698
0.7618,12.2085,-1.5294,0.9593,-2.2109,3.9205,-1.7219,-0.3404,-0.1204,1228,2019-08-07 16:57:31:703
0.7618,12.2085,-1.5294,0.9593,-2.2109,3.9205,-1.8285,-0.6397,-0.1087,1233,2019-08-07 16:57:31:708
0.7618,12.2085,-1.5294,0.9593,-2.2109,3.9205,-1.8285,-0.6397,-0.1087,1238,2019-08-07 16:57:31:713
2.465,11.2776,-2.029,-0.3202,-2.2402,4.3531,-1.9382,-0.465,-0.0416,1243,2019-08-07 16:57:31:718
2.465,11.2776,-2.029,-0.3202,-2.2402,4.3531,-1.9382,-0.465,-0.0416,1248,2019-08-07 16:57:31:723
2.465,11.2776,-2.029,-0.3202,-2.2402,4.3531,-1.9382,-0.465,-0.0416,1253,2019-08-07 16:57:31:728
3.5175,12.008,-0.9778,-0.3202,-2.2402,4.3531,-2.0543,-0.383,-0.0192,1258,2019-08-07 16:57:31:733
3.5175,12.008,-0.9778,-1.8423,-3.4318,4.027,-2.0543,-0.383,-0.0192,1262,2019-08-07 16:57:31:737
3.6324,13.063,-0.3415,-1.8423,-3.4318,4.027,-2.1235,-0.3915,0.131,1268,2019-08-07 16:57:31:743
3.6324,13.063,-0.3415,-1.8423,-3.4318,4.027,-2.1235,-0.3915,0.131,1273,2019-08-07 16:57:31:748
3.6324,13.063,-0.3415,-1.8423,-3.4318,4.027,-2.1225,-0.0922,0.1779,1277,2019-08-07 16:57:31:752
3.6515,10.6522,1.1151,-1.8604,-1.5356,2.0339,-2.1225,-0.0922,0.1779,1283,2019-08-07 16:57:31:758
3.6515,10.6522,1.1151,-1.8604,-1.5356,2.0339,-2.1033,-0.0528,0.1374,1287,2019-08-07 16:57:31:762
3.9529,9.01,3.1892,-1.8604,-1.5356,2.0339,-2.1033,-0.0528,0.1374,1293,2019-08-07 16:57:31:768
3.9529,9.01,3.1892,-1.8604,-1.5356,2.0339,-2.1033,-0.0528,0.1374,1297,2019-08-07 16:57:31:772
3.9529,9.01,3.1892,-2.6337,0.0299,1.1811,-2.1118,-0.0901,0.0948,1303,2019-08-07 16:57:31:778
4.704,9.7404,1.5582,-2.6337,0.0299,1.1811,-2.1118,-0.0901,0.0948,1308,2019-08-07 16:57:31:783
4.704,9.7404,1.5582,-2.8371,-1.1263,1.9313,-2.1065,0.2104,-0.0522,1313,2019-08-07 16:57:31:788
4.3213,11.0675,2.4255,-2.8371,-1.1263,1.9313,-2.1065,0.2104,-0.0522,1318,2019-08-07 16:57:31:793
4.3213,11.0675,2.4255,-2.8371,-1.1263,1.9313,-1.9893,0.3851,-0.1407,1323,2019-08-07 16:57:31:798
4.3213,11.0675,2.4255,-2.8371,-1.1263,1.9313,-1.9893,0.3851,-0.1407,1329,2019-08-07 16:57:31:804
3.5032,11.9889,2.8686,-1.6912,-3.2469,1.1972,-1.7848,0.3595,-0.1289,1333,2019-08-07 16:57:31:808
3.5032,11.9889,2.8686,-1.6912,-3.2469,1.1972,-1.7848,0.3595,-0.1289,1337,2019-08-07 16:57:31:812
3.5032,11.9889,2.8686,-1.6912,-3.2469,1.1972,-1.4524,-0.0283,0.0223,1343,2019-08-07 16:57:31:818
1.6517,10.2416,3.5851,-1.6912,-3.2469,1.1972,-1.4524,-0.0283,0.0223,1348,2019-08-07 16:57:31:823
1.6517,10.2416,3.5851,0.4736,-0.6231,1.4015,-1.4524,-0.0283,0.0223,1353,2019-08-07 16:57:31:828
1.6517,10.2416,3.5851,0.4736,-0.6231,1.4015,-0.9816,-0.7654,0.2173,1357,2019-08-07 16:57:31:832
1.6517,10.2416,3.5851,0.4736,-0.6231,1.4015,-0.9816,-0.7654,0.2173,1363,2019-08-07 16:57:31:838
1.6948,7.4824,-2.8586,0.1538,1.0925,7.2506,-0.6119,-1.0669,0.2769,1368,2019-08-07 16:57:31:843
1.6948,7.4824,-2.8586,0.1538,1.0925,7.2506,-0.6119,-1.0669,0.2769,1373,2019-08-07 16:57:31:848
2.0249,6.1027,-1.0957,0.1538,1.0925,7.2506,-0.6119,-1.0669,0.2769,1378,2019-08-07 16:57:31:853
2.0249,6.1027,-1.0957,-0.1424,2.0613,6.0621,0.4555,-1.6581,0.2599,1383,2019-08-07 16:57:31:858
2.0249,6.1027,-1.0957,-0.1424,2.0613,6.0621,0.4555,-1.6581,0.2599,1387,2019-08-07 16:57:31:862
2.2067,7.9979,-3.7307,-0.1424,2.0613,6.0621,1.0339,-1.9596,0.1885,1393,2019-08-07 16:57:31:868
2.2067,7.9979,-3.7307,-0.1424,2.0613,6.0621,1.0339,-1.9596,0.1885,1398,2019-08-07 16:57:31:873
1.9101,8.3178,-5.4795,0.3669,0.4223,9.5099,1.3769,-1.1777,0.0628,1403,2019-08-07 16:57:31:878
1.9101,8.3178,-5.4795,0.3669,0.4223,9.5099,1.3769,-1.1777,0.0628,1408,2019-08-07 16:57:31:883
1.9101,8.3178,-5.4795,0.3669,0.4223,9.5099,1.3769,-1.1777,0.0628,1412,2019-08-07 16:57:31:887
2.044,8.3178,-0.9496,0.3669,0.4223,9.5099,1.7647,-0.6163,-0.0064,1418,2019-08-07 16:57:31:893
2.044,8.3178,-0.9496,0.25,0.36,5.0014,1.9703,-0.6301,-0.0554,1423,2019-08-07 16:57:31:898
2.044,8.3178,-0.9496,0.25,0.36,5.0014,1.9703,-0.6301,-0.0554,1428,2019-08-07 16:57:31:903
1.9582,8.8906,-1.7131,0.4245,-0.1518,4.9932,2.0363,-0.5076,-0.1257,1433,2019-08-07 16:57:31:908
1.9582,8.8906,-1.7131,0.4245,-0.1518,4.9932,2.0363,-0.5076,-0.1257,1438,2019-08-07 16:57:31:913
1.9582,8.8906,-1.7131,0.4245,-0.1518,4.9932,2.0363,-0.5076,-0.1257,1443,2019-08-07 16:57:31:918
1.8434,9.9838,-1.699,0.4245,-0.1518,4.9932,2.1833,0.0996,-0.2152,1448,2019-08-07 16:57:31:923
1.8434,9.9838,-1.699,0.5699,-1.6129,3.0557,2.1833,0.0996,-0.2152,1453,2019-08-07 16:57:31:928
1.5324,10.6331,0.097,0.5699,-1.6129,3.0557,2.2004,0.4064,-0.2397,1458,2019-08-07 16:57:31:933
1.5324,10.6331,0.097,0.5699,-1.6129,3.0557,2.2004,0.4064,-0.2397,1463,2019-08-07 16:57:31:938
1.5324,10.6331,0.097,0.5699,-1.6129,3.0557,2.2121,0.5108,-0.2727,1467,2019-08-07 16:57:31:942
1.2597,10.8049,-0.0586,0.9088,-1.6914,2.407,2.2121,0.5108,-0.2727,1473,2019-08-07 16:57:31:948
1.2597,10.8049,-0.0586,0.9088,-1.6914,2.407,2.1801,0.6759,-0.2919,1477,2019-08-07 16:57:31:952
1.2597,10.8049,-0.0586,0.9088,-1.6914,2.407,2.1801,0.6759,-0.2919,1483,2019-08-07 16:57:31:958
1.2549,10.781,0.7663,0.8892,-1.517,1.6455,2.1343,0.6769,-0.2429,1487,2019-08-07 16:57:31:962
1.2549,10.781,0.7663,0.8892,-1.517,1.6455,2.1343,0.6769,-0.2429,1493,2019-08-07 16:57:31:968
1.2454,10.8956,1.6431,0.8892,-1.517,1.6455,2.0459,0.646,-0.2056,1497,2019-08-07 16:57:31:972
1.2454,10.8956,1.6431,0.9601,-1.0125,0.1758,2.0459,0.646,-0.2056,1503,2019-08-07 16:57:31:978
1.1353,10.2416,1.9259,0.9601,-1.0125,0.1758,1.9884,0.5171,-0.162,1507,2019-08-07 16:57:31:982
1.1353,10.2416,1.9259,0.9601,-1.0125,0.1758,1.9884,0.5171,-0.162,1513,2019-08-07 16:57:31:988
1.1353,10.2416,1.9259,0.9601,-1.0125,0.1758,1.9085,0.3797,-0.1577,1517,2019-08-07 16:57:31:992
1.0014,10.022,1.6007,0.9845,-0.5721,0.1462,1.9085,0.3797,-0.1577,1523,2019-08-07 16:57:31:998
1.0014,10.022,1.6007,0.9845,-0.5721,0.1462,1.8339,0.2839,-0.1321,1528,2019-08-07 16:57:32:003
1.0923,10.0554,1.7845,0.9845,-0.5721,0.1462,1.8339,0.2839,-0.1321,1533,2019-08-07 16:57:32:008
1.0923,10.0554,1.7845,0.9845,-0.5721,0.1462,1.754,0.0303,-0.0608,1538,2019-08-07 16:57:32:013
1.0923,10.0554,1.7845,0.9845,-0.5721,0.1462,1.754,0.0303,-0.0608,1543,2019-08-07 16:57:32:018
1.4128,9.8692,1.5536,0.561,-0.3543,-0.2101,1.7082,-0.1359,-0.0544,1547,2019-08-07 16:57:32:022
1.4128,9.8692,1.5536,0.561,-0.3543,-0.2101,1.7082,-0.1359,-0.0544,1553,2019-08-07 16:57:32:028
1.4128,9.8692,1.5536,0.561,-0.3543,-0.2101,1.7082,-0.1359,-0.0544,1558,2019-08-07 16:57:32:033
1.7143,10.0554,2.0485,0.1779,-0.5021,-1.1225,1.6965,-0.2797,-0.0512,1563,2019-08-07 16:57:32:038
1.7143,10.0554,2.0485,0.1779,-0.5021,-1.1225,1.6965,-0.2797,-0.0512,1568,2019-08-07 16:57:32:043
1.7143,10.0554,2.0485,0.1779,-0.5021,-1.1225,1.6848,-0.4608,-0.0384,1573,2019-08-07 16:57:32:048
1.8674,10.0745,1.7421,0.1779,-0.5021,-1.1225,1.6848,-0.4608,-0.0384,1578,2019-08-07 16:57:32:053
1.8674,10.0745,1.7421,0.1779,-0.5021,-1.1225,1.64,-0.4927,-0.0256,1583,2019-08-07 16:57:32:058
1.9439,10.1461,2.0626,0.0186,-0.5582,-1.3874,1.64,-0.4927,-0.0256,1587,2019-08-07 16:57:32:062
1.9439,10.1461,2.0626,0.0186,-0.5582,-1.3874,1.64,-0.4927,-0.0256,1593,2019-08-07 16:57:32:068
2.3123,11.1057,2.7886,0.0186,-0.5582,-1.3874,1.5782,-0.7058,0.0522,1598,2019-08-07 16:57:32:073
2.3123,11.1057,2.7886,-0.8006,-1.5999,-3.8246,1.5782,-0.7058,0.0522,1603,2019-08-07 16:57:32:078
2.3123,11.1057,2.7886,-0.8006,-1.5999,-3.8246,1.3812,-0.6887,0.2194,1608,2019-08-07 16:57:32:083
3.0108,9.6258,4.3394,-0.8006,-1.5999,-3.8246,1.3812,-0.6887,0.2194,1612,2019-08-07 16:57:32:087
3.0108,9.6258,4.3394,-0.8539,0.1513,-4.5315,1.346,-0.1604,0.0213,1618,2019-08-07 16:57:32:093
3.0108,9.6258,4.3394,-0.8539,0.1513,-4.5315,1.346,-0.1604,0.0213,1623,2019-08-07 16:57:32:098
1.8435,10.2321,6.1967,-0.8539,0.1513,-4.5315,1.2214,-0.5673,0.049,1627,2019-08-07 16:57:32:102
1.8435,10.2321,6.1967,-0.8539,0.1513,-4.5315,1.2214,-0.5673,0.049,1633,2019-08-07 16:57:32:108
2.8721,9.2964,4.8485,-0.4714,-0.1439,-4.9125,1.0563,-0.5321,0.1598,1638,2019-08-07 16:57:32:113
2.8721,9.2964,4.8485,-0.4714,-0.1439,-4.9125,1.0563,-0.5321,0.1598,1642,2019-08-07 16:57:32:117
2.8721,9.2964,4.8485,-1.3951,0.8542,-5.5756,0.986,-0.0624,0.0596,1648,2019-08-07 16:57:32:123
2.9821,8.9956,6.2297,-1.3951,0.8542,-5.5756,0.986,-0.0624,0.0596,1652,2019-08-07 16:57:32:127
2.9821,8.9956,6.2297,-1.3951,0.8542,-5.5756,0.986,-0.0624,0.0596,1658,2019-08-07 16:57:32:133
1.5947,9.7403,6.9933,-1.3951,0.8542,-5.5756,0.7569,0.057,0.1044,1663,2019-08-07 16:57:32:138
1.5947,9.7403,6.9933,0.5063,-0.1013,-7.6149,0.7569,0.057,0.1044,1668,2019-08-07 16:57:32:143
1.5947,9.7403,6.9933,0.5063,-0.1013,-7.6149,0.4927,0.3105,0.1406,1672,2019-08-07 16:57:32:147
0.9441,9.7976,9.1192,0.5063,-0.1013,-7.6149,0.4927,0.3105,0.1406,1678,2019-08-07 16:57:32:153
0.9441,9.7976,9.1192,0.5063,-0.1013,-7.6149,0.2349,0.0921,0.1704,1683,2019-08-07 16:57:32:158
0.9441,9.7976,9.1192,1.7583,-0.7225,-10.3259,0.2349,0.0921,0.1704,1687,2019-08-07 16:57:32:162
0.5278,10.3323,10.8351,1.7583,-0.7225,-10.3259,0.2349,0.0921,0.1704,1693,2019-08-07 16:57:32:168
0.5278,10.3323,10.8351,1.7583,-0.7225,-10.3259,-0.0772,-0.0528,0.2439,1698,2019-08-07 16:57:32:173
1.3603,10.867,11.0048,1.7583,-0.7225,-10.3259,-0.0772,-0.0528,0.2439,1703,2019-08-07 16:57:32:178
1.3603,10.867,11.0048,0.6178,-2.161,-11.4343,-0.4319,-0.1976,0.1864,1708,2019-08-07 16:57:32:183
1.8866,11.583,10.6701,0.6178,-2.161,-11.4343,-0.4319,-0.1976,0.1864,1713,2019-08-07 16:57:32:188
1.8866,11.583,10.6701,0.6178,-2.161,-11.4343,-0.7174,-0.3095,0.1225,1718,2019-08-07 16:57:32:193
1.8866,11.583,10.6701,0.6178,-2.161,-11.4343,-0.7174,-0.3095,0.1225,1722,2019-08-07 16:57:32:197
3.4223,9.4491,9.6472,-1.2896,0.1262,-9.643,-0.8037,-0.563,0.0809,1728,2019-08-07 16:57:32:203
3.4223,9.4491,9.6472,-1.2896,0.1262,-9.643,-0.8037,-0.563,0.0809,1733,2019-08-07 16:57:32:208
3.4223,9.4491,9.6472,-1.2896,0.1262,-9.643,-0.6673,-0.5662,0.0596,1738,2019-08-07 16:57:32:213
5.3552,8.3703,4.561,-1.2896,0.1262,-9.643,-0.6673,-0.5662,0.0596,1743,2019-08-07 16:57:32:218
5.3552,8.3703,4.561,-3.032,1.3302,-3.3318,-0.6673,-0.5662,0.0596,1748,2019-08-07 16:57:32:223
5.3552,8.3703,4.561,-3.032,1.3302,-3.3318,-0.4575,-0.1902,0.033,1753,2019-08-07 16:57:32:228
4.2883,7.8642,3.6418,-3.032,1.3302,-3.3318,-0.4575,-0.1902,0.033,1758,2019-08-07 16:57:32:233
4.2883,7.8642,3.6418,-3.032,1.3302,-3.3318,-0.2487,0.0197,0.033,1763,2019-08-07 16:57:32:238
1.8675,8.5708,5.1455,0.318,0.9895,-4.8988,-0.2487,0.0197,0.033,1768,2019-08-07 16:57:32:243
1.8675,8.5708,5.1455,0.318,0.9895,-4.8988,-0.2444,-0.4597,0.1331,1772,2019-08-07 16:57:32:247
1.8675,8.5708,5.1455,0.318,0.9895,-4.8988,-0.2444,-0.4597,0.1331,1778,2019-08-07 16:57:32:253
1.0781,8.7426,6.8802,0.318,0.9895,-4.8988,-0.3243,-1.0211,0.2205,1783,2019-08-07 16:57:32:258
1.0781,8.7426,6.8802,0.8178,0.8132,-7.4869,-0.3243,-1.0211,0.2205,1788,2019-08-07 16:57:32:263
1.0781,8.7426,6.8802,0.8178,0.8132,-7.4869,-0.3243,-1.0211,0.2205,1792,2019-08-07 16:57:32:267
1.9392,8.2318,9.2041,0.8178,0.8132,-7.4869,-0.5193,-1.2416,0.3217,1798,2019-08-07 16:57:32:273
1.9392,8.2318,9.2041,0.8178,0.8132,-7.4869,-0.5193,-1.2416,0.3217,1802,2019-08-07 16:57:32:277
4.0204,5.7399,6.0411,-1.7218,3.7874,-5.6114,-0.6705,-1.0381,0.3962,1808,2019-08-07 16:57:32:283
4.0204,5.7399,6.0411,-1.7218,3.7874,-5.6114,-0.6705,-1.0381,0.3962,1812,2019-08-07 16:57:32:287
4.0204,5.7399,6.0411,-1.7218,3.7874,-5.6114,-0.3914,-0.5066,0.344,1818,2019-08-07 16:57:32:293
5.0442,7.3725,-2.175,-1.7218,3.7874,-5.6114,-0.3914,-0.5066,0.344,1823,2019-08-07 16:57:32:298
5.0442,7.3725,-2.175,-0.9754,1.5999,0.9749,-0.2806,0.2572,0.2194,1828,2019-08-07 16:57:32:303
2.4942,8.4466,-0.2047,-0.9754,1.5999,0.9749,-0.2806,0.2572,0.2194,1833,2019-08-07 16:57:32:308
2.4942,8.4466,-0.2047,-0.9754,1.5999,0.9749,-0.2806,0.2572,0.2194,1838,2019-08-07 16:57:32:313
2.4942,8.4466,-0.2047,-0.9754,1.5999,0.9749,0.0752,1.0285,0.1768,1843,2019-08-07 16:57:32:318
1.3125,11.9888,0.6438,1.3867,-3.0436,-0.7155,0.0752,1.0285,0.1768,1848,2019-08-07 16:57:32:323
1.3125,11.9888,0.6438,1.3867,-3.0436,-0.7155,0.0677,0.9134,0.1747,1852,2019-08-07 16:57:32:327
-0.1084,13.2777,4.2405,1.3867,-3.0436,-0.7155,0.0677,0.9134,0.1747,1858,2019-08-07 16:57:32:333
-0.1084,13.2777,4.2405,1.3867,-3.0436,-0.7155,0.0901,0.4213,0.2322,1863,2019-08-07 16:57:32:338
-0.1084,13.2777,4.2405,1.3867,-3.0436,-0.7155,0.0901,0.4213,0.2322,1868,2019-08-07 16:57:32:343
0.1021,12.5664,3.1044,2.3262,-3.0781,-2.5471,0.1412,0.0133,0.327,1873,2019-08-07 16:57:32:348
0.1021,12.5664,3.1044,2.3262,-3.0781,-2.5471,0.1412,0.0133,0.327,1877,2019-08-07 16:57:32:352
0.1021,12.5664,3.1044,2.3262,-3.0781,-2.5471,0.1412,0.0133,0.327,1883,2019-08-07 16:57:32:358
2.2742,11.2584,1.5065,-0.2944,-1.3625,-0.5212,0.171,-0.1444,0.3142,1888,2019-08-07 16:57:32:363
2.2742,11.2584,1.5065,-0.2944,-1.3625,-0.5212,0.171,-0.1444,0.3142,1893,2019-08-07 16:57:32:368
3.7382,10.0793,-0.3791,-0.2944,-1.3625,-0.5212,0.1593,-0.2509,0.295,1898,2019-08-07 16:57:32:373
3.7382,10.0793,-0.3791,-0.2944,-1.3625,-0.5212,0.1593,-0.2509,0.295,1903,2019-08-07 16:57:32:378
3.7382,10.0793,-0.3791,-0.2944,-1.3625,-0.5212,0.1593,-0.2509,0.295,1908,2019-08-07 16:57:32:383
4.6185,9.3871,-0.8033,-2.0719,0.0741,1.2905,0.0954,0.0037,0.1736,1913,2019-08-07 16:57:32:388
4.6185,9.3871,-0.8033,-2.0719,0.0741,1.2905,0.0954,0.0037,0.1736,1918,2019-08-07 16:57:32:393
3.987,10.2082,-0.9824,-2.0719,0.0741,1.2905,0.04,0.3861,0.1065,1923,2019-08-07 16:57:32:398
3.987,10.2082,-0.9824,-2.0719,0.0741,1.2905,0.04,0.3861,0.1065,1928,2019-08-07 16:57:32:403
3.987,10.2082,-0.9824,-0.8779,-0.6596,1.046,-0.0228,0.4969,0.0596,1933,2019-08-07 16:57:32:408
2.7813,9.917,-0.4026,-0.8779,-0.6596,1.046,-0.0228,0.4969,0.0596,1937,2019-08-07 16:57:32:412
2.7813,9.917,-0.4026,-0.8779,-0.6596,1.046,-0.0953,0.3115,0.0543,1943,2019-08-07 16:57:32:418
2.7813,9.917,-0.4026,-0.8779,-0.6596,1.046,-0.0953,0.3115,0.0543,1948,2019-08-07 16:57:32:423
2.4704,9.8024,-0.2659,0.1149,-0.3526,0.7701,-0.1965,0.0527,0.082,1952,2019-08-07 16:57:32:427
2.4704,9.8024,-0.2659,0.1149,-0.3526,0.7701,-0.1965,0.0527,0.082,1958,2019-08-07 16:57:32:433
2.4656,9.9361,-0.4733,0.1149,-0.3526,0.7701,-0.2604,0.0101,0.1097,1962,2019-08-07 16:57:32:437
2.4656,9.9361,-0.4733,0.2939,-0.8749,0.7624,-0.2604,0.0101,0.1097,1968,2019-08-07 16:57:32:443
2.4656,9.9361,-0.4733,0.2939,-0.8749,0.7624,-0.2774,0.1603,0.1289,1973,2019-08-07 16:57:32:448
2.0446,10.5089,0.0735,0.2939,-0.8749,0.7624,-0.2774,0.1603,0.1289,1978,2019-08-07 16:57:32:453
2.0446,10.5089,0.0735,0.2939,-0.8749,0.7624,-0.2817,0.2189,0.1672,1983,2019-08-07 16:57:32:458
1.5135,10.5757,0.7805,0.2939,-0.8749,0.7624,-0.2817,0.2189,0.1672,1987,2019-08-07 16:57:32:462
1.5135,10.5757,0.7805,1.1598,-1.0319,-0.2591,-0.2817,0.2189,0.1672,1993,2019-08-07 16:57:32:468
1.5135,10.5757,0.7805,1.1598,-1.0319,-0.2591,-0.286,0.1347,0.1981,1997,2019-08-07 16:57:32:472
1.547,10.0649,1.0398,1.1598,-1.0319,-0.2591,-0.286,0.1347,0.1981,2003,2019-08-07 16:57:32:478
1.547,10.0649,1.0398,1.1598,-1.0319,-0.2591,-0.3009,-0.0411,0.2354,2007,2019-08-07 16:57:32:482
2.6187,9.5637,1.0162,0.2228,-0.2294,-0.3672,-0.3009,-0.0411,0.2354,2013,2019-08-07 16:57:32:488
2.6187,9.5637,1.0162,0.2228,-0.2294,-0.3672,-0.3147,-0.0943,0.246,2018,2019-08-07 16:57:32:493
2.6187,9.5637,1.0162,0.2228,-0.2294,-0.3672,-0.3147,-0.0943,0.246,2023,2019-08-07 16:57:32:498
3.4416,9.4109,0.559,0.2228,-0.2294,-0.3672,-0.319,-0.0421,0.2279,2028,2019-08-07 16:57:32:503
3.4416,9.4109,0.559,-0.9137,-0.033,0.1559,-0.319,-0.0421,0.2279,2033,2019-08-07 16:57:32:508
3.4416,9.4109,0.559,-0.9137,-0.033,0.1559,-0.3254,0.0261,0.1896,2038,2019-08-07 16:57:32:513
3.499,9.4682,0.5731,-0.9137,-0.033,0.1559,-0.3254,0.0261,0.1896,2043,2019-08-07 16:57:32:518
3.499,9.4682,0.5731,-0.9137,-0.033,0.1559,-0.335,0.057,0.1725,2048,2019-08-07 16:57:32:523
3.499,9.4682,0.5731,-0.6191,-0.1072,-0.0406,-0.335,0.057,0.1725,2053,2019-08-07 16:57:32:528
3.322,9.4157,1.1011,-0.6191,-0.1072,-0.0406,-0.335,0.057,0.1725,2058,2019-08-07 16:57:32:533
3.322,9.4157,1.1011,-0.6191,-0.1072,-0.0406,-0.3392,0.0175,0.1257,2063,2019-08-07 16:57:32:538
3.2646,9.2725,1.8836,-0.6191,-0.1072,-0.0406,-0.3392,0.0175,0.1257,2068,2019-08-07 16:57:32:543
3.2646,9.2725,1.8836,-0.5401,0.1081,-1.0365,-0.3232,-0.0933,0.0681,2073,2019-08-07 16:57:32:548
3.2646,9.2725,1.8836,-0.5401,0.1081,-1.0365,-0.3232,-0.0933,0.0681,2078,2019-08-07 16:57:32:553
3.6569,9.2534,1.7186,-0.5401,0.1081,-1.0365,-0.2668,-0.0911,0.0543,2083,2019-08-07 16:57:32:558
3.6569,9.2534,1.7186,-0.5401,0.1081,-1.0365,-0.2668,-0.0911,0.0543,2088,2019-08-07 16:57:32:563
3.6187,9.0052,1.728,-0.9288,0.3793,-0.8127,-0.1837,0.1102,0.0266,2093,2019-08-07 16:57:32:568
3.6187,9.0052,1.728,-0.9288,0.3793,-0.8127,-0.1837,0.1102,0.0266,2098,2019-08-07 16:57:32:573
3.6187,9.0052,1.728,-0.9288,0.3793,-0.8127,-0.1059,0.3115,0.0095,2103,2019-08-07 16:57:32:578
3.0015,9.1436,1.7422,-0.9288,0.3793,-0.8127,-0.1059,0.3115,0.0095,2108,2019-08-07 16:57:32:583
3.0015,9.1436,1.7422,-0.019,0.1884,-0.8102,-0.0708,0.3499,0.0053,2113,2019-08-07 16:57:32:588
2.4896,9.4109,1.7799,-0.019,0.1884,-0.8102,-0.0708,0.3499,0.0053,2118,2019-08-07 16:57:32:593
2.4896,9.4109,1.7799,-0.019,0.1884,-0.8102,-0.0452,0.2519,0.0095,2123,2019-08-07 16:57:32:598
2.4896,9.4109,1.7799,-0.019,0.1884,-0.8102,-0.0452,0.2519,0.0095,2128,2019-08-07 16:57:32:603
2.3126,9.5971,1.7752,0.4713,-0.2424,-0.7878,-0.025,0.188,0.0277,2132,2019-08-07 16:57:32:607
2.3126,9.5971,1.7752,0.4713,-0.2424,-0.7878,-0.025,0.188,0.0277,2138,2019-08-07 16:57:32:613
2.3126,9.5971,1.7752,0.4713,-0.2424,-0.7878,-0.025,0.188,0.0277,2143,2019-08-07 16:57:32:618
2.6236,9.5112,1.5065,0.4713,-0.2424,-0.7878,-0.0133,0.1091,0.0479,2148,2019-08-07 16:57:32:623
2.6236,9.5112,1.5065,-0.1756,-0.0826,-0.3075,-0.0133,0.1091,0.0479,2153,2019-08-07 16:57:32:628
2.6236,9.5112,1.5065,-0.1756,-0.0826,-0.3075,-0.0165,-0.0421,0.0458,2158,2019-08-07 16:57:32:633
3.3029,9.5446,1.3179,-0.1756,-0.0826,-0.3075,-0.0165,-0.0421,0.0458,2163,2019-08-07 16:57:32:638
3.3029,9.5446,1.3179,-0.1756,-0.0826,-0.3075,-0.0079,-0.0975,0.0404,2168,2019-08-07 16:57:32:643
3.4656,9.5923,0.9927,-0.6652,-0.2439,0.0079,-0.0079,-0.0975,0.0404,2173,2019-08-07 16:57:32:648
3.4656,9.5923,0.9927,-0.6652,-0.2439,0.0079,0.0049,-0.0059,0.0106,2178,2019-08-07 16:57:32:653
3.4656,9.5923,0.9927,-0.6652,-0.2439,0.0079,0.0049,-0.0059,0.0106,2183,2019-08-07 16:57:32:658
2.8819,9.3966,1.0587,-0.6652,-0.2439,0.0079,0.0123,0.0793,-0.0107,2187,2019-08-07 16:57:32:662
2.8819,9.3966,1.0587,-4.0E-4,-0.0625,-0.2178,0.0123,0.0793,-0.0107,2193,2019-08-07 16:57:32:668
2.7049,9.4825,1.0257,-4.0E-4,-0.0625,-0.2178,-0.0026,0.0048,-0.0022,2198,2019-08-07 16:57:32:673
2.7049,9.4825,1.0257,-4.0E-4,-0.0625,-0.2178,-0.0026,0.0048,-0.0022,2202,2019-08-07 16:57:32:677
2.7049,9.4825,1.0257,-4.0E-4,-0.0625,-0.2178,-0.0026,0.0048,-0.0022,2208,2019-08-07 16:57:32:683
2.3222,9.6735,0.7428,-4.0E-4,-0.0625,-0.2178,-0.0378,0.0261,0.0085,2213,2019-08-07 16:57:32:688
2.3222,9.6735,0.7428,0.456,-0.3387,0.1657,-0.0378,0.0261,0.0085,2218,2019-08-07 16:57:32:693
2.2217,10.0506,1.0964,0.456,-0.3387,0.1657,-0.0399,0.0218,0.0149,2223,2019-08-07 16:57:32:698
2.2217,10.0506,1.0964,0.456,-0.3387,0.1657,-0.0399,0.0218,0.0149,2228,2019-08-07 16:57:32:703
2.2217,10.0506,1.0964,0.2594,-0.5495,-0.1137,-0.0505,-0.0709,0.0372,2233,2019-08-07 16:57:32:708
2.6475,9.8406,1.153,0.2594,-0.5495,-0.1137,-0.0505,-0.0709,0.0372,2238,2019-08-07 16:57:32:713
2.6475,9.8406,1.153,0.2594,-0.5495,-0.1137,-0.0505,-0.0709,0.0372,2242,2019-08-07 16:57:32:717
3.0111,9.6926,1.0493,0.2594,-0.5495,-0.1137,-0.0484,-0.1114,0.033,2248,2019-08-07 16:57:32:723
3.0111,9.6926,1.0493,-0.5209,-0.166,0.0032,-0.0484,-0.1114,0.033,2253,2019-08-07 16:57:32:728
3.0111,9.6926,1.0493,-0.5209,-0.166,0.0032,-0.0442,-0.0837,0.0223,2258,2019-08-07 16:57:32:733
3.4035,9.3775,1.021,-0.5209,-0.166,0.0032,-0.0442,-0.0837,0.0223,2263,2019-08-07 16:57:32:738
3.4035,9.3775,1.021,-0.5209,-0.166,0.0032,-0.042,-0.0336,0.0127,2268,2019-08-07 16:57:32:743
3.4035,9.3775,1.021,-0.5209,-0.166,0.0032,-0.042,-0.0336,0.0127,2273,2019-08-07 16:57:32:748
3.2886,9.1245,1.3839,-0.4746,0.2176,-0.3627,-0.0484,-0.0197,0.0032,2278,2019-08-07 16:57:32:753
3.2886,9.1245,1.3839,-0.4746,0.2176,-0.3627,-0.0484,-0.0197,0.0032,2283,2019-08-07 16:57:32:758
3.0255,9.4014,1.1954,-0.4746,0.2176,-0.3627,-0.0655,-0.0688,-0.0032,2288,2019-08-07 16:57:32:763
3.0255,9.4014,1.1954,-0.4746,0.2176,-0.3627,-0.0655,-0.0688,-0.0032,2292,2019-08-07 16:57:32:767
2.5949,9.6066,0.79,0.1063,-0.2375,0.0989,-0.0761,-0.0592,0.0032,2298,2019-08-07 16:57:32:773
2.5949,9.6066,0.79,0.1063,-0.2375,0.0989,-0.0761,-0.0592,0.0032,2302,2019-08-07 16:57:32:777
2.5949,9.6066,0.79,0.1063,-0.2375,0.0989,-0.0761,-0.0592,0.0032,2308,2019-08-07 16:57:32:783
2.1261,9.8788,1.1907,0.1063,-0.2375,0.0989,-0.0921,-0.0485,0.0213,2312,2019-08-07 16:57:32:787
2.1261,9.8788,1.1907,0.7982,-0.6346,-0.2656,-0.0921,-0.0485,0.0213,2318,2019-08-07 16:57:32:793
2.0495,9.9313,1.0917,0.7982,-0.6346,-0.2656,-0.1283,-0.2413,0.049,2323,2019-08-07 16:57:32:798
2.0495,9.9313,1.0917,0.7982,-0.6346,-0.2656,-0.1283,-0.2413,0.049,2328,2019-08-07 16:57:32:803
2.0495,9.9313,1.0917,0.7982,-0.6346,-0.2656,-0.1496,-0.3521,0.0586,2333,2019-08-07 16:57:32:808
2.4849,9.831,1.1812,0.338,-0.4952,-0.128,-0.1496,-0.3521,0.0586,2337,2019-08-07 16:57:32:812
2.4849,9.831,1.1812,0.338,-0.4952,-0.128,-0.14,-0.3692,0.066,2343,2019-08-07 16:57:32:818
2.9538,9.6735,0.8277,0.338,-0.4952,-0.128,-0.14,-0.3692,0.066,2348,2019-08-07 16:57:32:823
2.9538,9.6735,0.8277,0.338,-0.4952,-0.128,-0.14,-0.3692,0.066,2353,2019-08-07 16:57:32:828
2.9538,9.6735,0.8277,-0.313,-0.2437,-0.0471,-0.1208,-0.269,0.0458,2358,2019-08-07 16:57:32:833
3.1165,9.5446,1.2567,-0.313,-0.2437,-0.0471,-0.1208,-0.269,0.0458,2363,2019-08-07 16:57:32:838
3.1165,9.5446,1.2567,-0.313,-0.2437,-0.0471,-0.1017,-0.2136,0.0234,2368,2019-08-07 16:57:32:843
3.2409,9.2916,1.7092,-0.313,-0.2437,-0.0471,-0.1017,-0.2136,0.0234,2373,2019-08-07 16:57:32:848
3.2409,9.2916,1.7092,-0.4868,0.0902,-0.466,-0.1102,-0.2466,0.017,2378,2019-08-07 16:57:32:853
3.2409,9.2916,1.7092,-0.4868,0.0902,-0.466,-0.1102,-0.2466,0.017,2383,2019-08-07 16:57:32:858
3.6427,9.3154,0.9503,-0.4868,0.0902,-0.466,-0.124,-0.17,-0.0395,2388,2019-08-07 16:57:32:863
3.6427,9.3154,0.9503,-0.4868,0.0902,-0.466,-0.124,-0.17,-0.0395,2392,2019-08-07 16:57:32:867
3.6427,9.3154,0.9503,-0.7582,-0.2232,0.087,-0.1134,-0.0911,-0.0618,2398,2019-08-07 16:57:32:873
3.6906,9.6448,0.988,-0.7582,-0.2232,0.087,-0.1134,-0.0911,-0.0618,2402,2019-08-07 16:57:32:877
3.6906,9.6448,0.988,-0.7582,-0.2232,0.087,-0.1134,-0.0911,-0.0618,2408,2019-08-07 16:57:32:883
3.4753,9.5971,0.8419,-0.7582,-0.2232,0.087,-0.1038,-0.0389,-0.1034,2413,2019-08-07 16:57:32:888
3.4753,9.5971,0.8419,-0.6021,-0.2311,0.2434,-0.1038,-0.0389,-0.1034,2418,2019-08-07 16:57:32:893
3.4753,9.5971,0.8419,-0.6021,-0.2311,0.2434,-0.0868,-0.0229,-0.1492,2423,2019-08-07 16:57:32:898
3.3847,9.535,1.0069,-0.5468,-0.2093,0.0951,-0.0868,-0.0229,-0.1492,2428,2019-08-07 16:57:32:903
3.3847,9.535,1.0069,-0.5468,-0.2093,0.0951,-0.0814,-0.0261,-0.1598,2432,2019-08-07 16:57:32:907
3.3847,9.535,1.0069,-0.5468,-0.2093,0.0951,-0.0814,-0.0261,-0.1598,2438,2019-08-07 16:57:32:913
3.3895,9.4109,0.9598,-0.5468,-0.2093,0.0951,-0.0814,-0.0261,-0.1598,2442,2019-08-07 16:57:32:917
3.3895,9.4109,0.9598,-0.474,-0.0879,0.023,-0.0676,0.0314,-0.1843,2448,2019-08-07 16:57:32:923
3.0163,9.3202,1.318,-0.474,-0.0879,0.023,-0.0676,0.0314,-0.1843,2452,2019-08-07 16:57:32:927
3.0163,9.3202,1.318,-0.474,-0.0879,0.023,-0.0505,0.1177,-0.1737,2458,2019-08-07 16:57:32:933
3.0163,9.3202,1.318,-0.474,-0.0879,0.023,-0.0505,0.1177,-0.1737,2463,2019-08-07 16:57:32:938
2.5905,7.7496,2.8689,-0.016,1.0181,-1.0323,0.0027,0.0239,-0.1907,2467,2019-08-07 16:57:32:942
2.5905,7.7496,2.8689,-0.016,1.0181,-1.0323,0.0027,0.0239,-0.1907,2473,2019-08-07 16:57:32:948
2.0738,10.2797,1.7564,-0.016,1.0181,-1.0323,-0.091,-0.0858,-0.1822,2478,2019-08-07 16:57:32:953
2.0738,10.2797,1.7564,-0.016,1.0181,-1.0323,-0.091,-0.0858,-0.1822,2483,2019-08-07 16:57:32:958
2.0738,10.2797,1.7564,0.335,-0.1082,-0.3879,6.0E-4,-0.0975,-0.113,2487,2019-08-07 16:57:32:962
2.4279,9.5159,1.1059,0.335,-0.1082,-0.3879,6.0E-4,-0.0975,-0.113,2493,2019-08-07 16:57:32:968
2.4279,9.5159,1.1059,0.335,-0.1082,-0.3879,-0.0431,-0.0645,-0.114,2498,2019-08-07 16:57:32:973
2.3896,9.8405,1.4783,0.335,-0.1082,-0.3879,-0.0431,-0.0645,-0.114,2503,2019-08-07 16:57:32:978
2.3896,9.8405,1.4783,0.1549,-0.3407,-0.2022,-0.0431,-0.0645,-0.114,2508,2019-08-07 16:57:32:983
2.3896,9.8405,1.4783,0.1549,-0.3407,-0.2022,-0.0165,-0.007,-0.0714,2512,2019-08-07 16:57:32:987
2.471,9.7594,1.0823,0.1549,-0.3407,-0.2022,-0.0165,-0.007,-0.0714,2518,2019-08-07 16:57:32:993
2.471,9.7594,1.0823,0.1549,-0.3407,-0.2022,-0.0111,0.0048,-0.0682,2522,2019-08-07 16:57:32:997
2.3179,9.8262,1.1389,0.3824,-0.4652,0.0085,-0.0111,0.0048,-0.0682,2528,2019-08-07 16:57:33:003
2.3179,9.8262,1.1389,0.3824,-0.4652,0.0085,-0.0218,-0.0581,-0.048,2533,2019-08-07 16:57:33:008
2.3179,9.8262,1.1389,0.3824,-0.4652,0.0085,-0.0218,-0.0581,-0.048,2538,2019-08-07 16:57:33:013
2.3179,9.8262,1.1389,0.3824,-0.4652,0.0085,-0.0218,-0.0581,-0.048,2543,2019-08-07 16:57:33:018
3.1264,9.4347,1.3322,-0.6361,-0.0188,0.4099,0.0049,0.0048,-0.0544,2547,2019-08-07 16:57:33:022
3.1264,9.4347,1.3322,-0.6361,-0.0188,0.4099,0.0049,0.0048,-0.0544,2553,2019-08-07 16:57:33:028
3.2891,9.5207,1.4076,-0.6361,-0.0188,0.4099,0.0368,0.3147,-0.0916,2558,2019-08-07 16:57:33:033
3.2891,9.5207,1.4076,-0.6361,-0.0188,0.4099,0.0368,0.3147,-0.0916,2563,2019-08-07 16:57:33:038
3.2891,9.5207,1.4076,0.2368,-0.2619,-0.5661,0.0357,0.2721,-0.1087,2568,2019-08-07 16:57:33:043
2.0978,9.6496,1.4595,0.2368,-0.2619,-0.5661,0.0357,0.2721,-0.1087,2572,2019-08-07 16:57:33:047
2.0978,9.6496,1.4595,0.2368,-0.2619,-0.5661,0.0464,0.1464,-0.0757,2578,2019-08-07 16:57:33:053
2.3849,9.4968,1.5867,0.2368,-0.2619,-0.5661,0.0464,0.1464,-0.0757,2582,2019-08-07 16:57:33:057
2.3849,9.4968,1.5867,0.2921,-0.1415,-0.5832,0.0208,-0.0112,-0.0522,2588,2019-08-07 16:57:33:063
2.3849,9.4968,1.5867,0.2921,-0.1415,-0.5832,0.0208,-0.0112,-0.0522,2593,2019-08-07 16:57:33:068
2.5667,9.4061,1.3699,0.2921,-0.1415,-0.5832,-0.0037,-0.1774,-0.0437,2597,2019-08-07 16:57:33:072
2.5667,9.4061,1.3699,0.2921,-0.1415,-0.5832,-0.0037,-0.1774,-0.0437,2603,2019-08-07 16:57:33:078
2.5667,9.4061,1.3699,0.2921,-0.1415,-0.5832,-0.0037,-0.1774,-0.0437,2608,2019-08-07 16:57:33:083
3.0882,9.2342,0.9127,-0.4451,0.1425,0.2396,0.0038,-0.0773,-0.0512,2613,2019-08-07 16:57:33:088
3.0882,9.2342,0.9127,-0.4451,0.1425,0.2396,0.0038,-0.0773,-0.0512,2618,2019-08-07 16:57:33:093
3.0595,9.4347,0.9692,-0.4451,0.1425,0.2396,0.0272,0.2008,-0.0757,2623,2019-08-07 16:57:33:098
3.0595,9.4347,0.9692,-0.4451,0.1425,0.2396,0.0272,0.2008,-0.0757,2628,2019-08-07 16:57:33:103
3.0595,9.4347,0.9692,-0.3321,-0.0691,0.0458,0.0272,0.2008,-0.0757,2633,2019-08-07 16:57:33:108
2.5954,9.6161,1.0069,-0.3321,-0.0691,0.0458,0.056,0.3073,-0.0906,2638,2019-08-07 16:57:33:113
2.5954,9.6161,1.0069,-0.3321,-0.0691,0.0458,0.056,0.3073,-0.0906,2643,2019-08-07 16:57:33:118
2.2749,9.6734,1.2096,-0.3321,-0.0691,0.0458,0.0592,0.3723,-0.0703,2648,2019-08-07 16:57:33:123
2.2749,9.6734,1.2096,0.2894,-0.2683,-0.0849,0.0592,0.3723,-0.0703,2653,2019-08-07 16:57:33:128
2.2749,9.6734,1.2096,0.2894,-0.2683,-0.0849,0.0592,0.3723,-0.0703,2658,2019-08-07 16:57:33:133
2.4185,9.7546,1.0117,0.2894,-0.2683,-0.0849,0.056,0.3925,-0.0746,2663,2019-08-07 16:57:33:138
2.4185,9.7546,1.0117,0.1681,-0.5631,0.0279,0.056,0.3925,-0.0746,2668,2019-08-07 16:57:33:143
2.4185,9.7546,1.0117,0.1681,-0.5631,0.0279,0.0134,0.303,-0.0842,2673,2019-08-07 16:57:33:148
2.3898,9.9217,1.1766,0.1681,-0.5631,0.0279,0.0134,0.303,-0.0842,2678,2019-08-07 16:57:33:153
2.3898,9.9217,1.1766,0.1557,-0.4364,0.039,-0.0143,0.2082,-0.0821,2683,2019-08-07 16:57:33:158
2.3706,9.7737,1.0447,0.1557,-0.4364,0.039,-0.0143,0.2082,-0.0821,2688,2019-08-07 16:57:33:163
2.3706,9.7737,1.0447,0.1557,-0.4364,0.039,-0.0463,0.1496,-0.0746,2693,2019-08-07 16:57:33:168
2.3706,9.7737,1.0447,0.1557,-0.4364,0.039,-0.0463,0.1496,-0.0746,2698,2019-08-07 16:57:33:173
2.4902,9.7164,1.3416,0.0586,-0.3182,-0.1529,-0.0676,0.0772,-0.0639,2703,2019-08-07 16:57:33:178
2.4902,9.7164,1.3416,0.0586,-0.3182,-0.1529,-0.0676,0.0772,-0.0639,2707,2019-08-07 16:57:33:182
2.4902,9.7164,1.3416,0.0586,-0.3182,-0.1529,-0.0676,0.0772,-0.0639,2713,2019-08-07 16:57:33:188
2.5477,9.7975,1.6527,0.0586,-0.3182,-0.1529,-0.0612,0.0271,-0.0639,2718,2019-08-07 16:57:33:193
2.5477,9.7975,1.6527,-0.0706,-0.2878,-0.2962,-0.0612,0.0271,-0.0639,2722,2019-08-07 16:57:33:197
2.5477,9.7975,1.6527,-0.0706,-0.2878,-0.2962,-0.0463,0.0111,-0.0714,2728,2019-08-07 16:57:33:203
2.6625,9.5589,1.3793,-0.0706,-0.2878,-0.2962,-0.0463,0.0111,-0.0714,2733,2019-08-07 16:57:33:208
2.6625,9.5589,1.3793,-0.0706,-0.2878,-0.2962,-0.0463,0.0111,-0.0714,2738,2019-08-07 16:57:33:213
2.5668,9.5732,1.549,-0.0842,-0.1473,-0.3266,-0.0282,0.0761,-0.0682,2743,2019-08-07 16:57:33:218
2.5668,9.5732,1.549,-0.0842,-0.1473,-0.3266,-0.0282,0.0761,-0.0682,2748,2019-08-07 16:57:33:223
2.5668,9.5732,1.549,-0.0842,-0.1473,-0.3266,-0.0069,0.074,-0.0682,2753,2019-08-07 16:57:33:228
2.5525,9.4634,1.3369,-0.0842,-0.1473,-0.3266,-0.0069,0.074,-0.0682,2758,2019-08-07 16:57:33:233
2.5525,9.4634,1.3369,0.0824,-0.1538,-0.1207,-0.0079,0.0889,-0.0789,2763,2019-08-07 16:57:33:238
2.2989,9.5732,1.2992,0.0824,-0.1538,-0.1207,-0.0079,0.0889,-0.0789,2768,2019-08-07 16:57:33:243
2.2989,9.5732,1.2992,0.0824,-0.1538,-0.1207,-0.0218,0.0346,-0.049,2772,2019-08-07 16:57:33:247
2.2989,9.5732,1.2992,0.0824,-0.1538,-0.1207,-0.0218,0.0346,-0.049,2778,2019-08-07 16:57:33:253
2.3564,9.5732,1.3982,0.1364,-0.1655,-0.1663,-0.0303,-0.0506,-0.0426,2782,2019-08-07 16:57:33:257
2.3564,9.5732,1.3982,0.1364,-0.1655,-0.1663,-0.0303,-0.0506,-0.0426,2788,2019-08-07 16:57:33:263
2.3564,9.5732,1.3982,0.1364,-0.1655,-0.1663,-0.0303,-0.0815,-0.0288,2792,2019-08-07 16:57:33:267
2.409,9.5445,1.3888,0.1364,-0.1655,-0.1663,-0.0303,-0.0815,-0.0288,2798,2019-08-07 16:57:33:273
2.409,9.5445,1.3888,-0.122,-0.0691,-0.1637,-0.0367,-0.1146,-0.0245,2803,2019-08-07 16:57:33:278
2.7535,9.4586,1.2474,-0.122,-0.0691,-0.1637,-0.0367,-0.1146,-0.0245,2807,2019-08-07 16:57:33:282
2.7535,9.4586,1.2474,-0.122,-0.0691,-0.1637,-0.0452,-0.0986,-0.0384,2813,2019-08-07 16:57:33:288
2.7439,9.5254,1.4076,-0.122,-0.0691,-0.1637,-0.0452,-0.0986,-0.0384,2818,2019-08-07 16:57:33:293
2.7439,9.5254,1.4076,-0.3019,-0.1452,-0.1362,-0.0228,0.0048,-0.0448,2823,2019-08-07 16:57:33:298
2.7439,9.5254,1.4076,-0.3019,-0.1452,-0.1362,-0.0228,0.0048,-0.0448,2828,2019-08-07 16:57:33:303
2.6387,9.6495,1.2427,-0.1576,-0.2399,-0.0019,-0.0079,0.0623,-0.0522,2833,2019-08-07 16:57:33:308
2.6387,9.6495,1.2427,-0.1576,-0.2399,-0.0019,-0.0079,0.0623,-0.0522,2837,2019-08-07 16:57:33:312
2.6387,9.6495,1.2427,-0.1576,-0.2399,-0.0019,-0.0069,0.0623,-0.049,2843,2019-08-07 16:57:33:318
2.4329,9.6734,1.3652,-0.1576,-0.2399,-0.0019,-0.0069,0.0623,-0.049,2848,2019-08-07 16:57:33:323
2.4329,9.6734,1.3652,-0.0021,-0.4236,0.2481,-0.0069,0.0623,-0.049,2852,2019-08-07 16:57:33:327
2.4329,9.6734,1.3652,-0.0021,-0.4236,0.2481,-0.123,-0.3628,-0.0671,2858,2019-08-07 16:57:33:333
2.3086,9.5063,1.7659,-0.0021,-0.4236,0.2481,-0.123,-0.3628,-0.0671,2863,2019-08-07 16:57:33:338
2.3086,9.5063,1.7659,0.5442,-0.1985,0.6981,0.0315,0.0442,-0.0416,2868,2019-08-07 16:57:33:343
2.3086,9.5063,1.7659,0.5442,-0.1985,0.6981,0.0315,0.0442,-0.0416,2872,2019-08-07 16:57:33:347
2.7727,9.6734,1.4878,0.5442,-0.1985,0.6981,-0.0228,-0.1071,-0.0224,2878,2019-08-07 16:57:33:353
2.7727,9.6734,1.4878,0.7231,-0.4108,-0.2486,-0.0228,-0.1071,-0.0224,2882,2019-08-07 16:57:33:357
2.2177,9.6639,1.2144,0.7231,-0.4108,-0.2486,0.008,-0.0751,-0.0096,2888,2019-08-07 16:57:33:363
2.2177,9.6639,1.2144,0.7231,-0.4108,-0.2486,0.008,-0.0751,-0.0096,2893,2019-08-07 16:57:33:368
2.2177,9.6639,1.2144,0.7231,-0.4108,-0.2486,6.0E-4,-0.0293,-0.0096,2898,2019-08-07 16:57:33:373
2.4282,9.6639,1.2898,0.0364,-0.2522,-0.0398,6.0E-4,-0.0293,-0.0096,2903,2019-08-07 16:57:33:378
2.4282,9.6639,1.2898,0.0364,-0.2522,-0.0398,0.0091,0.0122,-0.0075,2908,2019-08-07 16:57:33:383
2.5478,9.5588,1.0871,0.0364,-0.2522,-0.0398,0.0091,0.0122,-0.0075,2913,2019-08-07 16:57:33:388
2.5478,9.5588,1.0871,0.0364,-0.2522,-0.0398,0.0123,0.1251,-0.0192,2917,2019-08-07 16:57:33:392
2.5478,9.5588,1.0871,-0.0488,-0.2798,-0.0633,0.0123,0.1251,-0.0192,2923,2019-08-07 16:57:33:398
2.4713,9.6591,1.3794,-0.0488,-0.2798,-0.0633,0.0187,0.1443,-0.0054,2928,2019-08-07 16:57:33:403
2.4713,9.6591,1.3794,-0.0488,-0.2798,-0.0633,0.0187,0.1443,-0.0054,2933,2019-08-07 16:57:33:408
2.4713,9.6591,1.3794,-0.0488,-0.2798,-0.0633,0.0187,0.1443,-0.0054,2938,2019-08-07 16:57:33:413
2.2512,9.7164,1.337,0.1466,-0.2312,-0.205,0.0123,0.1294,0.0053,2943,2019-08-07 16:57:33:418
2.2512,9.7164,1.337,0.1466,-0.2312,-0.205,0.0123,0.1294,0.0053,2947,2019-08-07 16:57:33:422
2.2991,9.6209,1.4642,0.1466,-0.2312,-0.205,0.0134,0.1177,0.0159,2953,2019-08-07 16:57:33:428
2.2991,9.6209,1.4642,0.1466,-0.2312,-0.205,0.0134,0.1177,0.0159,2958,2019-08-07 16:57:33:433
2.2991,9.6209,1.4642,0.0406,-0.2221,-0.1439,0.0017,0.0708,0.0223,2963,2019-08-07 16:57:33:438
2.3134,9.6543,1.403,0.0406,-0.2221,-0.1439,0.0017,0.0708,0.0223,2967,2019-08-07 16:57:33:442
2.3134,9.6543,1.403,0.0406,-0.2221,-0.1439,-0.0037,0.0069,0.0266,2973,2019-08-07 16:57:33:448
2.3134,9.6543,1.403,0.0406,-0.2221,-0.1439,-0.0037,0.0069,0.0266,2977,2019-08-07 16:57:33:452
2.4857,9.6161,1.4925,-0.1614,-0.123,-0.2367,0.0091,-0.0229,0.0191,2983,2019-08-07 16:57:33:458
2.4857,9.6161,1.4925,-0.1614,-0.123,-0.2367,0.0091,-0.0229,0.0191,2987,2019-08-07 16:57:33:462
2.6531,9.5493,1.5585,-0.1614,-0.123,-0.2367,0.0102,-0.0038,0.0191,2993,2019-08-07 16:57:33:468
2.6531,9.5493,1.5585,-0.1614,-0.123,-0.2367,0.0102,-0.0038,0.0191,2998,2019-08-07 16:57:33:473
2.5862,9.64,1.2333,-0.1323,-0.2245,0.017,-0.0015,-0.0368,0.0181,3003,2019-08-07 16:57:33:478
2.5862,9.64,1.2333,-0.1323,-0.2245,0.017,-0.0015,-0.0368,0.0181,3008,2019-08-07 16:57:33:483