ACCELEROMETER X (m/s²),ACCELEROMETER Y (m/s²),ACCELEROMETER Z (m/s²),LINEAR ACCELERATION X (m/s²),LINEAR ACCELERATION Y (m/s²),LINEAR ACCELERATION Z (m/s²),GYROSCOPE X (rad/s),GYROSCOPE Y (rad/s),GYROSCOPE Z (rad/s),Time since start in ms ,YYYY-MO-DD HH-MI-SS_SSS
2.6673,9.6305,1.0258,-0.1283,-0.2209,-0.2655,0.0091,0.0229,-0.0117,3,2019-08-07 16:59:04:796
2.6673,9.6305,1.0258,-0.0207,-0.2729,-0.396,0.0176,0.0271,-0.0128,8,2019-08-07 16:59:04:801
2.6721,9.5875,1.0447,-0.0207,-0.2729,-0.396,0.0176,0.0271,-0.0128,13,2019-08-07 16:59:04:806
2.6721,9.5875,1.0447,-0.0207,-0.2729,-0.396,0.0272,0.0197,-0.0139,17,2019-08-07 16:59:04:810
2.6721,9.5875,1.0447,-0.0207,-0.2729,-0.396,0.0272,0.0197,-0.0139,23,2019-08-07 16:59:04:816
2.7822,9.5254,1.1484,-0.1428,-0.1097,-0.3645,0.0325,0.0026,-0.0107,28,2019-08-07 16:59:04:821
2.7822,9.5254,1.1484,-0.1428,-0.1097,-0.3645,0.0325,0.0026,-0.0107,33,2019-08-07 16:59:04:826
2.8731,9.5875,1.0777,-0.1428,-0.1097,-0.3645,0.0421,5.0E-4,-0.0171,38,2019-08-07 16:59:04:831
2.8731,9.5875,1.0777,-0.1428,-0.1097,-0.3645,0.0421,5.0E-4,-0.0171,42,2019-08-07 16:59:04:835
2.8731,9.5875,1.0777,-0.2931,-0.1564,-0.1532,0.0507,0.0218,-0.0245,48,2019-08-07 16:59:04:841
2.9018,9.5302,0.8703,-0.2931,-0.1564,-0.1532,0.0507,0.0218,-0.0245,53,2019-08-07 16:59:04:846
2.9018,9.5302,0.8703,-0.2931,-0.1564,-0.1532,0.0592,0.0548,-0.032,58,2019-08-07 16:59:04:851
2.6482,9.5397,0.9221,-0.2931,-0.1564,-0.1532,0.0592,0.0548,-0.032,63,2019-08-07 16:59:04:856
2.6482,9.5397,0.9221,0.0079,-0.1687,-0.1416,0.056,0.0708,-0.0277,68,2019-08-07 16:59:04:861
2.6482,9.5397,0.9221,0.0079,-0.1687,-0.1416,0.056,0.0708,-0.0277,72,2019-08-07 16:59:04:865
2.5813,9.6782,0.7901,0.0079,-0.1687,-0.1416,0.0475,0.058,-0.0224,77,2019-08-07 16:59:04:870
2.5813,9.6782,0.7901,0.0079,-0.1687,-0.1416,0.0475,0.058,-0.0224,83,2019-08-07 16:59:04:876
2.4377,9.5588,0.8231,0.1446,-0.2809,-0.1187,0.0294,0.0378,-0.0171,87,2019-08-07 16:59:04:880
2.4377,9.5588,0.8231,0.1446,-0.2809,-0.1187,0.0294,0.0378,-0.0171,93,2019-08-07 16:59:04:886
2.4377,9.5588,0.8231,0.1446,-0.2809,-0.1187,0.0294,0.0378,-0.0171,97,2019-08-07 16:59:04:890
2.5855,9.8405,0.7712,0.1446,-0.2809,-0.1187,0.0155,0.0239,-0.0224,103,2019-08-07 16:59:04:896
2.5855,9.8405,0.7712,0.0869,-0.4416,-0.0077,0.0155,0.0239,-0.0224,107,2019-08-07 16:59:04:900
2.6286,9.6639,0.7712,0.0869,-0.4416,-0.0077,-0.0015,0.0303,-0.0149,113,2019-08-07 16:59:04:906
2.6286,9.6639,0.7712,0.0869,-0.4416,-0.0077,-0.0015,0.0303,-0.0149,118,2019-08-07 16:59:04:911
2.6286,9.6639,0.7712,0.0869,-0.4416,-0.0077,-0.0101,0.025,-0.0139,122,2019-08-07 16:59:04:915
2.6525,9.6639,0.8325,-0.0364,-0.2402,-0.0666,-0.0101,0.025,-0.0139,128,2019-08-07 16:59:04:921
2.6525,9.6639,0.8325,-0.0364,-0.2402,-0.0666,-0.0218,-6.0E-4,-0.0149,133,2019-08-07 16:59:04:926
2.6525,9.6639,0.8325,-0.0364,-0.2402,-0.0666,-0.0218,-6.0E-4,-0.0149,138,2019-08-07 16:59:04:931
2.7147,9.5493,0.7995,-0.0364,-0.2402,-0.0666,-0.0292,-0.0112,-0.0149,143,2019-08-07 16:59:04:936
2.7147,9.5493,0.7995,-0.1491,-0.1539,-0.0714,-0.0292,-0.0112,-0.0149,148,2019-08-07 16:59:04:941
2.7147,9.5493,0.7995,-0.1491,-0.1539,-0.0714,-0.0324,-0.008,-0.0213,152,2019-08-07 16:59:04:945
2.7482,9.7212,0.8325,-0.1491,-0.1539,-0.0714,-0.0324,-0.008,-0.0213,158,2019-08-07 16:59:04:951
2.7482,9.7212,0.8325,-0.1491,-0.1539,-0.0714,-0.0378,-0.0059,-0.0267,163,2019-08-07 16:59:04:956
2.8534,9.5828,0.8372,-0.2435,-0.1583,-0.06,-0.0378,-0.0059,-0.0267,168,2019-08-07 16:59:04:961
2.8534,9.5828,0.8372,-0.2435,-0.1583,-0.06,-0.0452,0.0048,-0.0373,173,2019-08-07 16:59:04:966
2.8534,9.5828,0.8372,-0.2435,-0.1583,-0.06,-0.0452,0.0048,-0.0373,178,2019-08-07 16:59:04:971
2.8822,9.6687,0.9126,-0.2435,-0.1583,-0.06,-0.0399,0.0356,-0.0437,183,2019-08-07 16:59:04:976
2.8822,9.6687,0.9126,-0.1256,-0.2623,0.0289,-0.0399,0.0356,-0.0437,188,2019-08-07 16:59:04:981
2.6573,9.6353,0.7712,-0.1256,-0.2623,0.0289,-0.0399,0.0356,-0.0437,193,2019-08-07 16:59:04:986
2.6573,9.6353,0.7712,-0.1256,-0.2623,0.0289,-0.0548,0.0751,-0.0448,198,2019-08-07 16:59:04:991
2.6573,9.6353,0.7712,-0.1256,-0.2623,0.0289,-0.0548,0.0751,-0.0448,202,2019-08-07 16:59:04:995
2.442,9.683,1.0681,0.1747,-0.2939,-0.3012,-0.0505,0.0612,-0.048,208,2019-08-07 16:59:05:001
2.442,9.683,1.0681,0.1747,-0.2939,-0.3012,-0.0505,0.0612,-0.048,213,2019-08-07 16:59:05:006
2.4516,9.64,1.0493,0.1747,-0.2939,-0.3012,-0.0548,0.0165,-0.0299,217,2019-08-07 16:59:05:010
2.4516,9.64,1.0493,0.1747,-0.2939,-0.3012,-0.0548,0.0165,-0.0299,223,2019-08-07 16:59:05:016
2.4516,9.64,1.0493,0.1286,-0.1688,-0.26,-0.0548,-0.0027,-0.0256,228,2019-08-07 16:59:05:021
2.4181,9.621,1.0022,0.1286,-0.1688,-0.26,-0.0548,-0.0027,-0.0256,232,2019-08-07 16:59:05:025
2.4181,9.621,1.0022,0.1286,-0.1688,-0.26,-0.0495,-0.0016,-0.0181,238,2019-08-07 16:59:05:031
2.4707,9.7021,1.0917,0.1286,-0.1688,-0.26,-0.0495,-0.0016,-0.0181,243,2019-08-07 16:59:05:036
2.4707,9.7021,1.0917,0.0478,-0.1781,-0.475,-0.0452,-0.0123,-0.0139,247,2019-08-07 16:59:05:040
2.4707,9.7021,1.0917,0.0478,-0.1781,-0.475,-0.0452,-0.0123,-0.0139,253,2019-08-07 16:59:05:046
2.6477,9.5541,1.3085,0.0478,-0.1781,-0.475,-0.0324,-0.057,-0.0064,257,2019-08-07 16:59:05:050
2.6477,9.5541,1.3085,0.0478,-0.1781,-0.475,-0.0324,-0.057,-0.0064,263,2019-08-07 16:59:05:056
2.863,9.473,1.1907,-0.2827,-0.045,-0.3592,-0.0175,-0.0688,-0.0128,268,2019-08-07 16:59:05:061
2.863,9.473,1.1907,-0.2827,-0.045,-0.3592,-0.0175,-0.0688,-0.0128,272,2019-08-07 16:59:05:065
2.863,9.473,1.1907,-0.2827,-0.045,-0.3592,0.0027,-0.0251,-0.016,278,2019-08-07 16:59:05:071
3.0065,9.5159,1.054,-0.2827,-0.045,-0.3592,0.0027,-0.0251,-0.016,282,2019-08-07 16:59:05:075
3.0065,9.5159,1.054,-0.3069,-0.1261,-0.269,0.0027,-0.0251,-0.016,288,2019-08-07 16:59:05:081
2.7386,9.5255,1.3038,-0.3069,-0.1261,-0.269,0.024,0.0474,-0.032,293,2019-08-07 16:59:05:086
2.7386,9.5255,1.3038,-0.3069,-0.1261,-0.269,0.024,0.0474,-0.032,297,2019-08-07 16:59:05:090
2.7386,9.5255,1.3038,-0.3069,-0.1261,-0.269,0.0443,0.058,-0.0267,303,2019-08-07 16:59:05:096
2.5855,9.5637,1.2756,-0.3069,-0.1261,-0.269,0.0443,0.058,-0.0267,307,2019-08-07 16:59:05:100
2.5855,9.5637,1.2756,-0.0258,-0.1483,-0.3875,0.0475,0.0218,-0.0213,313,2019-08-07 16:59:05:106
2.4898,9.6257,1.1341,-0.0258,-0.1483,-0.3875,0.0475,0.0218,-0.0213,318,2019-08-07 16:59:05:111
2.4898,9.6257,1.1341,-0.0258,-0.1483,-0.3875,0.056,0.0101,-0.0213,323,2019-08-07 16:59:05:116
2.4898,9.6257,1.1341,-0.0258,-0.1483,-0.3875,0.056,0.0101,-0.0213,328,2019-08-07 16:59:05:121
2.4276,9.7308,0.8419,0.136,-0.2703,-0.1165,0.0602,0.0303,-0.0128,332,2019-08-07 16:59:05:125
2.4276,9.7308,0.8419,0.136,-0.2703,-0.1165,0.0602,0.0303,-0.0128,338,2019-08-07 16:59:05:131
2.4276,9.7308,0.8419,0.136,-0.2703,-0.1165,0.0507,0.0335,-0.0043,343,2019-08-07 16:59:05:136
2.3846,9.7689,0.9786,0.2612,-0.3401,-0.1815,0.0507,0.0335,-0.0043,348,2019-08-07 16:59:05:141
2.3846,9.7689,0.9786,0.2612,-0.3401,-0.1815,0.0507,-6.0E-4,-0.0011,353,2019-08-07 16:59:05:146
2.4037,9.7833,0.9927,0.2612,-0.3401,-0.1815,0.0507,-6.0E-4,-0.0011,358,2019-08-07 16:59:05:151
2.4037,9.7833,0.9927,0.2612,-0.3401,-0.1815,0.0389,-0.0549,0.0117,362,2019-08-07 16:59:05:155
2.4037,9.7833,0.9927,0.2612,-0.3401,-0.1815,0.0389,-0.0549,0.0117,368,2019-08-07 16:59:05:161
2.7386,9.6878,0.7759,-0.1734,-0.2535,0.0309,0.0357,-0.0506,0.0021,372,2019-08-07 16:59:05:165
2.7386,9.6878,0.7759,-0.1734,-0.2535,0.0309,0.0357,-0.0506,0.0021,377,2019-08-07 16:59:05:170
2.8678,9.7403,0.7005,-0.1734,-0.2535,0.0309,0.0283,0.0069,0.001,383,2019-08-07 16:59:05:176
2.8678,9.7403,0.7005,-0.1734,-0.2535,0.0309,0.0283,0.0069,0.001,387,2019-08-07 16:59:05:180
2.7625,9.7642,0.7712,-0.2484,-0.3727,0.0374,0.0155,0.0261,-0.0054,393,2019-08-07 16:59:05:186
2.7625,9.7642,0.7712,-0.2484,-0.3727,0.0374,0.0155,0.0261,-0.0054,397,2019-08-07 16:59:05:190
2.7625,9.7642,0.7712,-0.2484,-0.3727,0.0374,0.0155,0.0261,-0.0054,403,2019-08-07 16:59:05:196
2.6094,9.6926,0.7853,-0.2484,-0.3727,0.0374,-0.0079,-0.0059,-0.0107,407,2019-08-07 16:59:05:200
2.6094,9.6926,0.7853,-0.0442,-0.2147,0.0466,-0.0079,-0.0059,-0.0107,413,2019-08-07 16:59:05:206
2.5664,9.6687,0.7995,-0.0442,-0.2147,0.0466,-0.0207,-0.0102,-0.0107,418,2019-08-07 16:59:05:211
2.5664,9.6687,0.7995,-0.0442,-0.2147,0.0466,-0.0207,-0.0102,-0.0107,422,2019-08-07 16:59:05:215
2.5664,9.6687,0.7995,-0.0442,-0.2147,0.0466,-0.0324,-0.0155,-0.0086,428,2019-08-07 16:59:05:221
2.5759,9.7164,0.7947,-0.0128,-0.2813,0.0082,-0.0324,-0.0155,-0.0086,433,2019-08-07 16:59:05:226
2.5759,9.7164,0.7947,-0.0128,-0.2813,0.0082,-0.042,-0.0112,-0.0043,437,2019-08-07 16:59:05:230
2.4133,9.6782,0.9362,-0.0128,-0.2813,0.0082,-0.042,-0.0112,-0.0043,443,2019-08-07 16:59:05:236
2.4133,9.6782,0.9362,-0.0128,-0.2813,0.0082,-0.042,-0.0038,0.001,448,2019-08-07 16:59:05:241
2.4133,9.6782,0.9362,0.1387,-0.2481,-0.1399,-0.042,-0.0038,0.001,452,2019-08-07 16:59:05:245
2.4468,9.6926,0.922,0.1387,-0.2481,-0.1399,-0.042,-0.0038,0.001,458,2019-08-07 16:59:05:251
2.4468,9.6926,0.922,0.1387,-0.2481,-0.1399,-0.041,-0.0251,0.0127,463,2019-08-07 16:59:05:256
2.4276,9.6401,1.0163,0.1387,-0.2481,-0.1399,-0.041,-0.0251,0.0127,468,2019-08-07 16:59:05:261
2.4276,9.6401,1.0163,0.1497,-0.2396,-0.1133,-0.042,-0.04,0.0213,472,2019-08-07 16:59:05:265
2.4276,9.6401,1.0163,0.1497,-0.2396,-0.1133,-0.042,-0.04,0.0213,478,2019-08-07 16:59:05:271
2.3941,9.683,1.0116,0.1497,-0.2396,-0.1133,-0.0378,-0.0336,0.0298,483,2019-08-07 16:59:05:276
2.3941,9.683,1.0116,0.1497,-0.2396,-0.1133,-0.0378,-0.0336,0.0298,487,2019-08-07 16:59:05:280
2.4898,9.979,1.483,0.073,-0.3894,-0.5589,-0.0314,-0.0837,0.0383,493,2019-08-07 16:59:05:286
2.4898,9.979,1.483,0.073,-0.3894,-0.5589,-0.0314,-0.0837,0.0383,497,2019-08-07 16:59:05:290
2.4898,9.979,1.483,0.073,-0.3894,-0.5589,-0.0186,-0.2179,0.0607,503,2019-08-07 16:59:05:296
2.442,10.0124,1.4877,0.073,-0.3894,-0.5589,-0.0186,-0.2179,0.0607,507,2019-08-07 16:59:05:300
2.442,10.0124,1.4877,0.1335,-0.4405,-0.4944,-0.0271,-0.3638,0.0852,513,2019-08-07 16:59:05:306
2.4037,9.9933,1.7186,0.1335,-0.4405,-0.4944,-0.0271,-0.3638,0.0852,518,2019-08-07 16:59:05:311
2.4037,9.9933,1.7186,0.1335,-0.4405,-0.4944,-0.0165,-0.4565,0.1001,522,2019-08-07 16:59:05:315
2.4037,9.9933,1.7186,0.1335,-0.4405,-0.4944,-0.0165,-0.4565,0.1001,528,2019-08-07 16:59:05:321
2.3319,9.6305,1.3321,0.2731,-0.2074,-0.5232,-0.0207,-0.6365,0.1427,533,2019-08-07 16:59:05:326
2.3319,9.6305,1.3321,0.2731,-0.2074,-0.5232,-0.0207,-0.6365,0.1427,537,2019-08-07 16:59:05:330
2.3319,9.6305,1.3321,0.2731,-0.2074,-0.5232,-0.0655,-0.6887,0.1331,543,2019-08-07 16:59:05:336
2.8104,8.9717,0.6863,0.2731,-0.2074,-0.5232,-0.0655,-0.6887,0.1331,548,2019-08-07 16:59:05:341
2.8104,8.9717,0.6863,-0.5463,0.1998,0.1159,-0.0655,-0.6887,0.1331,552,2019-08-07 16:59:05:345
3.2697,9.4443,0.7099,-0.5463,0.1998,0.1159,-0.0122,-0.4799,0.0713,558,2019-08-07 16:59:05:351
3.2697,9.4443,0.7099,-0.5463,0.1998,0.1159,-0.0122,-0.4799,0.0713,562,2019-08-07 16:59:05:355
3.2697,9.4443,0.7099,-0.5463,0.1998,0.1159,0.0123,-0.3553,0.0522,568,2019-08-07 16:59:05:361
3.3175,9.4014,0.9362,-0.6392,0.0093,-0.1747,0.0123,-0.3553,0.0522,573,2019-08-07 16:59:05:366
3.3175,9.4014,0.9362,-0.6392,0.0093,-0.1747,0.0325,-0.2925,0.0234,578,2019-08-07 16:59:05:371
3.1692,9.5303,0.8843,-0.6392,0.0093,-0.1747,0.0325,-0.2925,0.0234,583,2019-08-07 16:59:05:376
3.1692,9.5303,0.8843,-0.6392,0.0093,-0.1747,0.0634,-0.2062,0.001,588,2019-08-07 16:59:05:381
3.1692,9.5303,0.8843,-0.1709,-0.3831,-0.5676,0.0634,-0.2062,0.001,593,2019-08-07 16:59:05:386
2.7434,9.8262,1.2661,-0.1709,-0.3831,-0.5676,0.0741,-0.2616,0.0138,598,2019-08-07 16:59:05:391
2.7434,9.8262,1.2661,-0.1709,-0.3831,-0.5676,0.0741,-0.2616,0.0138,602,2019-08-07 16:59:05:395
2.7434,9.8262,1.2661,-0.1709,-0.3831,-0.5676,0.0741,-0.2616,0.0138,608,2019-08-07 16:59:05:401
2.2123,9.7594,1.0304,0.5032,-0.3871,-0.3068,0.073,-0.3329,0.0149,613,2019-08-07 16:59:05:406
2.2123,9.7594,1.0304,0.5032,-0.3871,-0.3068,0.073,-0.3329,0.0149,618,2019-08-07 16:59:05:411
2.2123,9.7594,1.0304,0.5032,-0.3871,-0.3068,0.0571,-0.3819,0.0117,623,2019-08-07 16:59:05:416
2.3941,9.6782,0.922,0.5032,-0.3871,-0.3068,0.0571,-0.3819,0.0117,627,2019-08-07 16:59:05:420
2.3941,9.6782,0.922,0.072,-0.1139,-0.4121,0.0592,-0.4032,-0.0149,633,2019-08-07 16:59:05:426
2.8295,9.387,1.0823,0.072,-0.1139,-0.4121,0.0592,-0.4032,-0.0149,637,2019-08-07 16:59:05:430
2.8295,9.387,1.0823,0.072,-0.1139,-0.4121,0.0922,-0.3479,-0.0469,643,2019-08-07 16:59:05:436
2.8295,9.387,1.0823,0.072,-0.1139,-0.4121,0.0922,-0.3479,-0.0469,647,2019-08-07 16:59:05:440
3.3366,9.1913,1.2237,-0.7135,0.1655,-0.6942,0.0922,-0.3479,-0.0469,653,2019-08-07 16:59:05:446
3.3366,9.1913,1.2237,-0.7135,0.1655,-0.6942,0.1401,-0.2445,-0.1012,657,2019-08-07 16:59:05:450
3.3366,9.1913,1.2237,-0.7135,0.1655,-0.6942,0.1401,-0.2445,-0.1012,663,2019-08-07 16:59:05:456
3.4371,9.1388,1.4877,-0.7621,0.2781,-0.8528,0.1998,-0.1582,-0.1353,668,2019-08-07 16:59:05:461
3.4371,9.1388,1.4877,-0.7621,0.2781,-0.8528,0.1998,-0.1582,-0.1353,672,2019-08-07 16:59:05:465
3.2792,9.1531,1.6668,-0.7621,0.2781,-0.8528,0.2744,-0.0624,-0.1683,678,2019-08-07 16:59:05:471
3.2792,9.1531,1.6668,-0.7621,0.2781,-0.8528,0.2744,-0.0624,-0.1683,682,2019-08-07 16:59:05:475
3.1309,9.3823,1.8601,-0.4981,0.0726,-1.3918,0.3511,-0.0347,-0.1854,688,2019-08-07 16:59:05:481
3.1309,9.3823,1.8601,-0.4981,0.0726,-1.3918,0.3511,-0.0347,-0.1854,693,2019-08-07 16:59:05:486
3.1309,9.3823,1.8601,-0.4981,0.0726,-1.3918,0.4203,-0.0421,-0.2099,697,2019-08-07 16:59:05:490
3.1548,9.6687,1.9968,-0.4981,0.0726,-1.3918,0.4203,-0.0421,-0.2099,703,2019-08-07 16:59:05:496
3.1548,9.6687,1.9968,-0.5857,-0.2812,-1.6428,0.4203,-0.0421,-0.2099,708,2019-08-07 16:59:05:501
3.1548,9.6687,1.9968,-0.5857,-0.2812,-1.6428,0.5247,-0.1146,-0.2578,712,2019-08-07 16:59:05:505
3.3653,9.9408,2.4351,-0.5857,-0.2812,-1.6428,0.5247,-0.1146,-0.2578,718,2019-08-07 16:59:05:511
3.3653,9.9408,2.4351,-0.5857,-0.2812,-1.6428,0.6429,-0.1625,-0.2834,722,2019-08-07 16:59:05:515
3.5902,10.2272,1.4405,-0.9518,-0.6789,-1.33,0.6429,-0.1625,-0.2834,727,2019-08-07 16:59:05:520
3.5902,10.2272,1.4405,-0.9518,-0.6789,-1.33,0.6429,0.0037,-0.3494,733,2019-08-07 16:59:05:526
3.5902,10.2272,1.4405,-0.9518,-0.6789,-1.33,0.6429,0.0037,-0.3494,737,2019-08-07 16:59:05:530
3.7146,10.4039,1.45,-0.9518,-0.6789,-1.33,0.6941,0.2434,-0.5018,743,2019-08-07 16:59:05:536
3.7146,10.4039,1.45,-0.9426,-0.7901,-1.6775,0.6941,0.2434,-0.5018,747,2019-08-07 16:59:05:540
3.4371,10.3323,3.8729,-0.9426,-0.7901,-1.6775,0.6941,0.2434,-0.5018,753,2019-08-07 16:59:05:546
3.4371,10.3323,3.8729,-0.9426,-0.7901,-1.6775,0.97,0.1464,-0.5721,757,2019-08-07 16:59:05:550
3.4371,10.3323,3.8729,-0.9426,-0.7901,-1.6775,0.97,0.1464,-0.5721,763,2019-08-07 16:59:05:556
4.9058,9.2295,3.4533,-2.502,0.2801,-3.2964,1.0967,-0.0166,-0.5721,768,2019-08-07 16:59:05:561
4.9058,9.2295,3.4533,-2.502,0.2801,-3.2964,1.0967,-0.0166,-0.5721,773,2019-08-07 16:59:05:566
6.7143,9.5064,4.5941,-2.502,0.2801,-3.2964,1.2544,0.0048,-0.6818,778,2019-08-07 16:59:05:571
6.7143,9.5064,4.5941,-2.502,0.2801,-3.2964,1.2544,0.0048,-0.6818,782,2019-08-07 16:59:05:575
6.7143,9.5064,4.5941,-4.8289,-1.0206,-4.9945,1.4217,0.2455,-0.7329,788,2019-08-07 16:59:05:581
7.1879,11.5448,5.6311,-4.8289,-1.0206,-4.9945,1.4217,0.2455,-0.7329,793,2019-08-07 16:59:05:586
7.1879,11.5448,5.6311,-4.8289,-1.0206,-4.9945,1.444,0.4586,-0.7478,798,2019-08-07 16:59:05:591
5.3364,12.0652,11.5846,-4.8289,-1.0206,-4.9945,1.444,0.4586,-0.7478,803,2019-08-07 16:59:05:596
5.3364,12.0652,11.5846,-2.7214,-2.5903,-11.3929,1.4834,-0.1561,-0.489,808,2019-08-07 16:59:05:601
5.3364,12.0652,11.5846,-2.7214,-2.5903,-11.3929,1.4834,-0.1561,-0.489,812,2019-08-07 16:59:05:605
3.7959,12.0174,8.4547,-2.7214,-2.5903,-11.3929,1.0371,-0.4341,-0.1598,818,2019-08-07 16:59:05:611
3.7959,12.0174,8.4547,-2.7214,-2.5903,-11.3929,1.0371,-0.4341,-0.1598,822,2019-08-07 16:59:05:615
3.7959,12.0174,8.4547,-0.6073,-2.1515,-11.363,1.0371,-0.4341,-0.1598,828,2019-08-07 16:59:05:621
2.5663,11.6976,12.3106,-0.6073,-2.1515,-11.363,0.5364,-0.2584,0.0831,833,2019-08-07 16:59:05:626
2.5663,11.6976,12.3106,-0.6073,-2.1515,-11.363,0.5364,-0.2584,0.0831,838,2019-08-07 16:59:05:631
3.7337,11.1199,15.3698,-0.6073,-2.1515,-11.363,0.0102,-0.8187,0.4314,843,2019-08-07 16:59:05:636
3.7337,11.1199,15.3698,-2.4439,-1.1127,-14.7589,0.0102,-0.8187,0.4314,848,2019-08-07 16:59:05:641
5.7957,10.2034,13.4984,-2.4439,-1.1127,-14.7589,-0.4213,-0.8453,0.5464,852,2019-08-07 16:59:05:645
5.7957,10.2034,13.4984,-2.4439,-1.1127,-14.7589,-0.4213,-0.8453,0.5464,858,2019-08-07 16:59:05:651
5.7957,10.2034,13.4984,-2.4439,-1.1127,-14.7589,-0.7749,-0.3074,0.5848,863,2019-08-07 16:59:05:656
6.0014,9.8453,11.6271,-3.7086,-0.3132,-11.9709,-0.7749,-0.3074,0.5848,868,2019-08-07 16:59:05:661
6.0014,9.8453,11.6271,-3.7086,-0.3132,-11.9709,-1.1712,0.3957,0.5528,873,2019-08-07 16:59:05:666
6.0014,9.8453,11.6271,-3.7086,-0.3132,-11.9709,-1.1712,0.3957,0.5528,878,2019-08-07 16:59:05:671
3.5806,10.0888,11.9712,-3.7086,-0.3132,-11.9709,-1.1712,0.3957,0.5528,882,2019-08-07 16:59:05:675
3.5806,10.0888,11.9712,0.3803,-0.8983,-11.8704,-1.4908,0.6333,0.5113,888,2019-08-07 16:59:05:681
1.4708,10.5232,11.5092,0.3803,-0.8983,-11.8704,-1.4908,0.6333,0.5113,893,2019-08-07 16:59:05:686
1.4708,10.5232,11.5092,1.1146,-1.0785,-10.7723,-1.7645,0.4543,0.5187,898,2019-08-07 16:59:05:691
1.4708,10.5232,11.5092,1.1146,-1.0785,-10.7723,-1.7645,0.4543,0.5187,902,2019-08-07 16:59:05:695
1.4468,10.8478,8.4547,1.1146,-1.0785,-10.7723,-2.0373,0.3339,0.5209,908,2019-08-07 16:59:05:701
1.4468,10.8478,8.4547,1.1146,-1.0785,-10.7723,-2.0373,0.3339,0.5209,913,2019-08-07 16:59:05:706
1.4468,10.8478,8.4547,0.9808,-1.3587,-6.6076,-2.1896,0.6215,0.4783,918,2019-08-07 16:59:05:711
1.5329,10.7571,6.9792,0.9808,-1.3587,-6.6076,-2.1896,0.6215,0.4783,923,2019-08-07 16:59:05:716
1.5329,10.7571,6.9792,0.9808,-1.3587,-6.6076,-2.2375,1.0136,0.3973,927,2019-08-07 16:59:05:720
0.8057,10.8526,6.0553,0.9808,-1.3587,-6.6076,-2.2375,1.0136,0.3973,933,2019-08-07 16:59:05:726
0.8057,10.8526,6.0553,2.2094,-1.5668,-4.8919,-2.2407,1.2586,0.3398,938,2019-08-07 16:59:05:731
0.8057,10.8526,6.0553,2.2094,-1.5668,-4.8919,-2.2407,1.2586,0.3398,943,2019-08-07 16:59:05:736
-0.3568,11.2918,5.6688,2.2094,-1.5668,-4.8919,-2.2034,1.1638,0.3281,947,2019-08-07 16:59:05:740
-0.3568,11.2918,5.6688,2.2094,-1.5668,-4.8919,-2.2034,1.1638,0.3281,953,2019-08-07 16:59:05:746
-0.7396,11.1677,3.5382,3.3295,-1.8476,-1.9059,-2.1907,0.8261,0.3249,957,2019-08-07 16:59:05:750
-0.7396,11.1677,3.5382,3.3295,-1.8476,-1.9059,-2.1907,0.8261,0.3249,963,2019-08-07 16:59:05:756
-0.7396,11.1677,3.5382,3.3295,-1.8476,-1.9059,-2.2301,0.449,0.2652,968,2019-08-07 16:59:05:761
-0.0554,10.8192,2.4587,3.3295,-1.8476,-1.9059,-2.2301,0.449,0.2652,972,2019-08-07 16:59:05:765
-0.0554,10.8192,2.4587,2.2926,-1.2093,1.3019,-2.2684,0.0964,0.2514,978,2019-08-07 16:59:05:771
0.7531,10.0315,-0.3649,2.2926,-1.2093,1.3019,-2.2684,0.0964,0.2514,982,2019-08-07 16:59:05:775
0.7531,10.0315,-0.3649,2.2926,-1.2093,1.3019,-2.2844,0.2167,0.2407,988,2019-08-07 16:59:05:781
0.7531,10.0315,-0.3649,2.2926,-1.2093,1.3019,-2.2844,0.2167,0.2407,993,2019-08-07 16:59:05:786
2.1836,9.072,-1.9534,0.2583,0.0999,4.7383,-2.2429,0.7536,0.1576,998,2019-08-07 16:59:05:791
2.1836,9.072,-1.9534,0.2583,0.0999,4.7383,-2.2429,0.7536,0.1576,1003,2019-08-07 16:59:05:796
2.1836,9.072,-1.9534,0.2583,0.0999,4.7383,-2.2429,0.7536,0.1576,1007,2019-08-07 16:59:05:800
2.7386,8.628,-3.3628,-0.1272,0.4345,6.0626,-2.2556,1.3427,0.0586,1013,2019-08-07 16:59:05:806
2.7386,8.628,-3.3628,-0.1272,0.4345,6.0626,-2.2556,1.3427,0.0586,1018,2019-08-07 16:59:05:811
2.4802,7.53,-3.5137,-0.1272,0.4345,6.0626,-2.1108,1.8658,-0.0171,1022,2019-08-07 16:59:05:815
2.4802,7.53,-3.5137,0.1567,1.6139,6.7385,-2.1108,1.8658,-0.0171,1028,2019-08-07 16:59:05:821
2.4802,7.53,-3.5137,0.1567,1.6139,6.7385,-1.9499,2.065,-0.0618,1032,2019-08-07 16:59:05:825
1.7961,7.0001,-3.212,0.1567,1.6139,6.7385,-1.9499,2.065,-0.0618,1038,2019-08-07 16:59:05:831
1.7961,7.0001,-3.212,0.1567,1.6139,6.7385,-1.9499,2.065,-0.0618,1043,2019-08-07 16:59:05:836
1.7961,7.0001,-3.212,0.1567,1.6139,6.7385,-1.7539,2.2642,-0.1907,1048,2019-08-07 16:59:05:841
0.4039,6.5037,-2.3918,1.9421,2.3441,5.9203,-1.7539,2.2642,-0.1907,1053,2019-08-07 16:59:05:846
0.4039,6.5037,-2.3918,1.9421,2.3441,5.9203,-1.4546,2.1598,-0.2493,1058,2019-08-07 16:59:05:851
0.112,6.5657,-2.7925,1.9421,2.3441,5.9203,-1.4546,2.1598,-0.2493,1063,2019-08-07 16:59:05:856
0.112,6.5657,-2.7925,1.9421,2.3441,5.9203,-1.2426,1.8391,-0.2813,1067,2019-08-07 16:59:05:860
0.112,6.5657,-2.7925,1.8007,2.3257,7.337,-1.2426,1.8391,-0.2813,1073,2019-08-07 16:59:05:866
0.6096,6.4655,-3.8955,1.8007,2.3257,7.337,-1.0348,1.4812,-0.294,1078,2019-08-07 16:59:05:871
0.6096,6.4655,-3.8955,1.8007,2.3257,7.337,-1.0348,1.4812,-0.294,1082,2019-08-07 16:59:05:875
1.2602,6.728,-5.2625,1.8007,2.3257,7.337,-1.0348,1.4812,-0.294,1088,2019-08-07 16:59:05:881
1.2602,6.728,-5.2625,0.5895,2.1177,9.7604,-0.7739,1.2767,-0.2685,1092,2019-08-07 16:59:05:885
1.4468,6.0024,-7.0726,0.5895,2.1177,9.7604,-0.7739,1.2767,-0.2685,1098,2019-08-07 16:59:05:891
1.4468,6.0024,-7.0726,0.4947,2.9167,11.3591,-0.5533,1.3907,-0.2919,1103,2019-08-07 16:59:05:896
1.4468,6.0024,-7.0726,0.4947,2.9167,11.3591,-0.5533,1.3907,-0.2919,1108,2019-08-07 16:59:05:901
1.3998,4.8089,-7.7418,0.4947,2.9167,11.3591,-0.2529,1.4407,-0.2386,1112,2019-08-07 16:59:05:905
1.3998,4.8089,-7.7418,0.4947,2.9167,11.3591,-0.2529,1.4407,-0.2386,1118,2019-08-07 16:59:05:911
1.3998,4.8089,-7.7418,-0.4137,5.1728,12.9382,-0.2529,1.4407,-0.2386,1122,2019-08-07 16:59:05:915
2.0984,3.2908,-8.6751,-0.4137,5.1728,12.9382,-0.221,1.3204,-0.3228,1128,2019-08-07 16:59:05:921
2.0984,3.2908,-8.6751,-0.4137,5.1728,12.9382,-0.221,1.3204,-0.3228,1133,2019-08-07 16:59:05:926
2.0984,3.2908,-8.6751,-0.4137,5.1728,12.9382,-0.1975,1.1606,-0.3942,1137,2019-08-07 16:59:05:930
2.0984,3.2621,-6.3324,-0.5087,5.4996,10.4482,-0.1975,1.1606,-0.3942,1143,2019-08-07 16:59:05:936
2.0984,3.2621,-6.3324,-0.5087,5.4996,10.4482,-0.222,1.3534,-0.6349,1147,2019-08-07 16:59:05:940
1.5673,3.644,11.6838,-0.5087,5.4996,10.4482,-0.222,1.3534,-0.6349,1153,2019-08-07 16:59:05:946
1.5673,3.644,11.6838,-0.5087,5.4996,10.4482,-0.222,1.3534,-0.6349,1158,2019-08-07 16:59:05:951
1.5673,3.644,11.6838,-5.0162,-1.3117,-11.5187,1.1926,0.3179,-0.5902,1163,2019-08-07 16:59:05:956
8.6815,20.9587,33.1317,-5.0162,-1.3117,-11.5187,1.1926,0.3179,-0.5902,1167,2019-08-07 16:59:05:960
8.6815,20.9587,33.1317,-5.0162,-1.3117,-11.5187,0.5726,-6.8438,-0.0512,1173,2019-08-07 16:59:05:966
8.6815,20.9587,33.1317,-5.0162,-1.3117,-11.5187,0.5726,-6.8438,-0.0512,1177,2019-08-07 16:59:05:970
3.7203,23.5747,-5.5734,-1.2861,-19.6018,15.3635,2.782,-3.7578,-0.391,1183,2019-08-07 16:59:05:976
3.7203,23.5747,-5.5734,-1.2861,-19.6018,15.3635,2.782,-3.7578,-0.391,1188,2019-08-07 16:59:05:981
3.615,35.3088,-17.9519,-1.2861,-19.6018,15.3635,3.5437,-0.1263,-0.0618,1193,2019-08-07 16:59:05:986
3.615,35.3088,-17.9519,-1.2861,-19.6018,15.3635,3.5437,-0.1263,-0.0618,1198,2019-08-07 16:59:05:991
1.5626,15.063,-28.7842,-0.787,-8.7789,30.393,3.8643,2.4144,0.1534,1203,2019-08-07 16:59:05:996
1.5626,15.063,-28.7842,1.1238,-2.1268,-0.1836,2.8704,3.6469,0.0596,1212,2019-08-07 16:59:06:005
1.5626,15.063,-28.7842,1.1238,-2.1268,-0.1836,2.8704,3.6469,0.0596,1213,2019-08-07 16:59:06:006
-2.2026,12.9339,47.9943,1.1238,-2.1268,-0.1836,2.8704,3.6469,0.0596,1218,2019-08-07 16:59:06:011
-2.2026,12.9339,47.9943,1.1238,-2.1268,-0.1836,2.8704,3.6469,0.0596,1222,2019-08-07 16:59:06:015
0.3139,15.9844,-9.2172,1.1238,-2.1268,-0.1836,1.95,-2.8938,0.866,1228,2019-08-07 16:59:06:021
0.3139,15.9844,-9.2172,-1.4326,-7.2449,12.5532,1.95,-2.8938,0.866,1232,2019-08-07 16:59:06:025
0.3139,15.9844,-9.2172,-1.4326,-7.2449,12.5532,2.9599,-1.6975,0.654,1238,2019-08-07 16:59:06:031
0.3139,15.9844,-9.2172,-1.4326,-7.2449,12.5532,2.9599,-1.6975,0.654,1242,2019-08-07 16:59:06:035
5.8302,10.8095,23.1478,-3.9442,-1.4264,-20.9946,1.232,1.9499,0.2088,1248,2019-08-07 16:59:06:041
5.8302,10.8095,23.1478,-3.9442,-1.4264,-20.9946,1.232,1.9499,0.2088,1253,2019-08-07 16:59:06:046
3.7873,-0.2275,-11.4987,-3.9442,-1.4264,-20.9946,1.7008,-1.4973,-0.0916,1258,2019-08-07 16:59:06:051
3.7873,-0.2275,-11.4987,-1.0773,4.5433,16.2197,1.7008,-1.4973,-0.0916,1262,2019-08-07 16:59:06:055
3.7873,-0.2275,-11.4987,-1.0773,4.5433,16.2197,1.3343,-1.7892,0.3185,1268,2019-08-07 16:59:06:061
4.4332,15.6884,-20.7896,-1.0773,4.5433,16.2197,1.3343,-1.7892,0.3185,1273,2019-08-07 16:59:06:066
4.4332,15.6884,-20.7896,-1.0773,4.5433,16.2197,-0.7217,-0.677,0.2961,1277,2019-08-07 16:59:06:070
3.95,15.9748,-6.2192,-1.9092,-6.5107,7.8011,-0.7217,-0.677,0.2961,1283,2019-08-07 16:59:06:076
3.95,15.9748,-6.2192,-1.9092,-6.5107,7.8011,0.0496,2.3494,-0.1311,1288,2019-08-07 16:59:06:081
3.95,15.9748,-6.2192,-1.9092,-6.5107,7.8011,0.0496,2.3494,-0.1311,1292,2019-08-07 16:59:06:085
5.591,12.8241,-9.1418,-1.9092,-6.5107,7.8011,0.0496,2.3494,-0.1311,1298,2019-08-07 16:59:06:091
5.591,12.8241,-9.1418,0.7025,-1.4181,8.469,0.9487,1.7667,-0.1705,1303,2019-08-07 16:59:06:096
5.591,12.8241,-9.1418,0.7025,-1.4181,8.469,0.9487,1.7667,-0.1705,1307,2019-08-07 16:59:06:100
-1.3031,10.7093,3.5148,0.7025,-1.4181,8.469,-0.335,-0.2594,-0.1811,1313,2019-08-07 16:59:06:106
-1.3031,10.7093,3.5148,3.9003,-2.1711,-0.8072,-0.335,-0.2594,-0.1811,1317,2019-08-07 16:59:06:110
-2.9871,11.8741,-3.1882,3.9003,-2.1711,-0.8072,-0.6503,-0.7644,-0.0277,1323,2019-08-07 16:59:06:116
-2.9871,11.8741,-3.1882,3.9003,-2.1711,-0.8072,-0.6503,-0.7644,-0.0277,1328,2019-08-07 16:59:06:121
-2.9871,11.8741,-3.1882,0.0244,-2.4024,4.2218,-0.6886,-0.0325,0.1566,1332,2019-08-07 16:59:06:125
2.9214,11.2965,-1.5242,0.0244,-2.4024,4.2218,-0.6886,-0.0325,0.1566,1338,2019-08-07 16:59:06:131
2.9214,11.2965,-1.5242,0.0244,-2.4024,4.2218,-1.1052,-0.6642,0.0937,1343,2019-08-07 16:59:06:136
3.5864,10.4229,-1.1236,0.0244,-2.4024,4.2218,-1.1052,-0.6642,0.0937,1348,2019-08-07 16:59:06:141
3.5864,10.4229,-1.1236,-1.0927,-1.4278,4.1394,-1.2916,-0.759,-0.0916,1352,2019-08-07 16:59:06:145
3.5864,10.4229,-1.1236,-1.0927,-1.4278,4.1394,-1.2916,-0.759,-0.0916,1358,2019-08-07 16:59:06:151
3.1989,11.2201,-4.7202,-1.0927,-1.4278,4.1394,-1.2916,-0.759,-0.0916,1362,2019-08-07 16:59:06:155
3.1989,11.2201,-4.7202,-1.957,-2.2643,6.0969,-1.4673,0.1347,-0.1151,1368,2019-08-07 16:59:06:161
3.1989,11.2201,-4.7202,-1.957,-2.2643,6.0969,-1.4673,0.1347,-0.1151,1372,2019-08-07 16:59:06:165
4.6486,11.5113,-2.6131,-1.957,-2.2643,6.0969,-1.6634,0.368,-0.163,1378,2019-08-07 16:59:06:171
4.6486,11.5113,-2.6131,-1.957,-2.2643,6.0969,-1.6634,0.368,-0.163,1382,2019-08-07 16:59:06:175
3.4047,12.447,-4.2771,-1.9432,-2.7122,6.6883,-1.8583,0.4894,-0.3452,1388,2019-08-07 16:59:06:181
3.4047,12.447,-4.2771,-1.9432,-2.7122,6.6883,-1.8583,0.4894,-0.3452,1392,2019-08-07 16:59:06:185
1.7541,13.3397,-1.8259,-1.9432,-2.7122,6.6883,-2.0437,0.9028,-0.3899,1398,2019-08-07 16:59:06:191
1.7541,13.3397,-1.8259,-1.9432,-2.7122,6.6883,-2.0437,0.9028,-0.3899,1403,2019-08-07 16:59:06:196
1.7541,13.3397,-1.8259,0.0101,-3.9148,4.5298,-2.2578,0.5534,-0.1161,1407,2019-08-07 16:59:06:200
2.1129,13.2728,-2.4199,0.0101,-3.9148,4.5298,-2.2578,0.5534,-0.1161,1413,2019-08-07 16:59:06:206
2.1129,13.2728,-2.4199,0.0101,-3.9148,4.5298,-2.3835,0.385,-0.0054,1418,2019-08-07 16:59:06:211
2.1129,13.2728,-2.4199,0.0101,-3.9148,4.5298,-2.3835,0.385,-0.0054,1422,2019-08-07 16:59:06:215
1.8068,13.8266,-0.9114,-0.0168,-4.6609,3.9152,-2.474,0.4575,0.0756,1428,2019-08-07 16:59:06:221
1.8068,13.8266,-0.9114,-0.0168,-4.6609,3.9152,-2.474,0.4575,0.0756,1433,2019-08-07 16:59:06:226
1.5867,12.7668,-0.2562,-0.0168,-4.6609,3.9152,-2.474,0.4575,0.0756,1437,2019-08-07 16:59:06:230
1.5867,12.7668,-0.2562,-0.0168,-4.6609,3.9152,-2.6114,0.2785,0.1949,1443,2019-08-07 16:59:06:236
1.5867,12.7668,-0.2562,0.0758,-3.3042,3.3289,-2.6114,0.2785,0.1949,1448,2019-08-07 16:59:06:241
1.6872,12.3753,0.5593,0.0758,-3.3042,3.3289,-2.7414,-0.0016,0.294,1452,2019-08-07 16:59:06:245
1.6872,12.3753,0.5593,0.0758,-3.3042,3.3289,-2.7414,-0.0016,0.294,1458,2019-08-07 16:59:06:251
0.8595,12.0269,3.4866,0.0758,-3.3042,3.3289,-2.7094,-0.0826,0.4314,1462,2019-08-07 16:59:06:255
0.8595,12.0269,3.4866,0.8947,-2.3433,-0.6378,-2.7094,-0.0826,0.4314,1468,2019-08-07 16:59:06:261
0.8595,12.0269,3.4866,0.8947,-2.3433,-0.6378,-2.5283,-0.2168,0.5081,1472,2019-08-07 16:59:06:265
2.7828,7.4965,7.366,-0.8854,1.1811,-3.2025,-2.5283,-0.2168,0.5081,1478,2019-08-07 16:59:06:271
2.7828,7.4965,7.366,-0.8854,1.1811,-3.2025,-2.3909,-0.807,0.3781,1482,2019-08-07 16:59:06:275
2.7828,7.4965,7.366,-0.8854,1.1811,-3.2025,-2.3909,-0.807,0.3781,1488,2019-08-07 16:59:06:281
3.8353,9.6065,2.5014,-0.8854,1.1811,-3.2025,-2.1172,-0.3926,0.1427,1493,2019-08-07 16:59:06:286
3.8353,9.6065,2.5014,-1.668,-2.4199,2.965,-2.1172,-0.3926,0.1427,1497,2019-08-07 16:59:06:290
3.2469,11.5017,2.7229,-1.668,-2.4199,2.965,-2.1172,-0.3926,0.1427,1502,2019-08-07 16:59:06:295
3.2469,11.5017,2.7229,-1.668,-2.4199,2.965,-1.6591,0.6482,0.0927,1508,2019-08-07 16:59:06:301
3.2469,11.5017,2.7229,-1.668,-2.4199,2.965,-1.6591,0.6482,0.0927,1512,2019-08-07 16:59:06:305
1.2279,9.0289,4.0569,0.7701,-0.7232,0.7659,-1.0881,0.4404,0.0245,1518,2019-08-07 16:59:06:311
1.2279,9.0289,4.0569,0.7701,-0.7232,0.7659,-1.0881,0.4404,0.0245,1523,2019-08-07 16:59:06:316
1.2279,9.0289,4.0569,0.7701,-0.7232,0.7659,-0.3765,-0.4608,-0.0405,1528,2019-08-07 16:59:06:321
0.5964,6.9809,-4.1592,0.7701,-0.7232,0.7659,-0.3765,-0.4608,-0.0405,1533,2019-08-07 16:59:06:326
0.5964,6.9809,-4.1592,1.9381,2.1475,8.917,0.3617,-1.6549,-0.0544,1538,2019-08-07 16:59:06:331
0.5964,6.3651,-0.4919,1.9381,2.1475,8.917,0.3617,-1.6549,-0.0544,1542,2019-08-07 16:59:06:335
0.1754,6.3651,-0.4919,2.0963,1.7437,5.5963,0.3617,-1.6549,-0.0544,1548,2019-08-07 16:59:06:341
0.1754,6.3651,-0.4919,2.0963,1.7437,5.5963,0.6994,-3.3615,-0.0725,1553,2019-08-07 16:59:06:346
-0.1786,7.7495,-3.2966,2.0963,1.7437,5.5963,0.6994,-3.3615,-0.0725,1558,2019-08-07 16:59:06:351
-0.1786,7.7495,-3.2966,2.0963,1.7437,5.5963,0.7985,-3.9101,-0.1801,1563,2019-08-07 16:59:06:356
1.2375,8.9573,-4.0461,1.7565,-0.1522,6.9729,0.7985,-3.9101,-0.1801,1568,2019-08-07 16:59:06:361
1.2375,8.9573,-4.0461,1.7565,-0.1522,6.9729,1.5218,-2.8214,-0.2919,1572,2019-08-07 16:59:06:365
1.2375,8.9573,-4.0461,1.7565,-0.1522,6.9729,1.5218,-2.8214,-0.2919,1578,2019-08-07 16:59:06:371
4.2899,10.0553,-1.9437,1.7565,-0.1522,6.9729,1.7519,-2.0352,-0.2418,1583,2019-08-07 16:59:06:376
4.2899,10.0553,-1.9437,-2.3773,-0.9678,4.344,1.7519,-2.0352,-0.2418,1588,2019-08-07 16:59:06:381
4.2899,10.0553,-1.9437,-2.3773,-0.9678,4.344,2.0352,-1.7157,-0.2791,1593,2019-08-07 16:59:06:386
5.2707,9.1625,-1.3781,-2.3773,-0.9678,4.344,2.0352,-1.7157,-0.2791,1598,2019-08-07 16:59:06:391
5.2707,9.1625,-1.3781,-2.3773,-0.9678,4.344,2.0352,-1.7157,-0.2791,1602,2019-08-07 16:59:06:395
4.577,9.9836,-2.0993,-1.9195,-1.1964,5.5575,2.3325,-0.7058,-0.4464,1608,2019-08-07 16:59:06:401
4.577,9.9836,-2.0993,-1.9195,-1.1964,5.5575,2.3325,-0.7058,-0.4464,1612,2019-08-07 16:59:06:405
4.577,9.9836,-2.0993,-1.9195,-1.1964,5.5575,2.5444,0.3105,-0.505,1618,2019-08-07 16:59:06:411
3.5005,10.8763,-0.2468,-1.9195,-1.1964,5.5575,2.5444,0.3105,-0.505,1623,2019-08-07 16:59:06:416
3.5005,10.8763,-0.2468,0.022,-2.0741,2.6613,2.6882,0.7313,-0.506,1628,2019-08-07 16:59:06:421
1.893,11.1437,0.6536,0.022,-2.0741,2.6613,2.6882,0.7313,-0.506,1633,2019-08-07 16:59:06:426
1.893,11.1437,0.6536,0.022,-2.0741,2.6613,2.8097,0.7408,-0.473,1638,2019-08-07 16:59:06:431
1.893,11.1437,0.6536,0.022,-2.0741,2.6613,2.8097,0.7408,-0.473,1642,2019-08-07 16:59:06:435
1.118,11.2248,0.9176,1.4478,-2.0498,1.4613,2.8906,0.6269,-0.4272,1648,2019-08-07 16:59:06:441
1.118,11.2248,0.9176,1.4478,-2.0498,1.4613,2.8906,0.6269,-0.4272,1652,2019-08-07 16:59:06:445
1.0606,10.6997,1.323,1.4478,-2.0498,1.4613,2.8906,0.6269,-0.4272,1658,2019-08-07 16:59:06:451
1.0606,10.6997,1.323,1.4478,-2.0498,1.4613,2.9279,0.4554,-0.3878,1662,2019-08-07 16:59:06:455
1.0606,10.6997,1.323,1.1126,-0.7148,0.3934,2.9279,0.4554,-0.3878,1668,2019-08-07 16:59:06:461
1.2041,9.9025,1.6011,1.1126,-0.7148,0.3934,2.9673,0.3574,-0.375,1673,2019-08-07 16:59:06:466
1.2041,9.9025,1.6011,1.1126,-0.7148,0.3934,2.9673,0.3574,-0.375,1677,2019-08-07 16:59:06:470
1.4051,9.6829,1.5869,1.1126,-0.7148,0.3934,2.961,0.3211,-0.3665,1683,2019-08-07 16:59:06:476
1.4051,9.6829,1.5869,0.6215,-0.3372,-0.2006,2.961,0.3211,-0.3665,1688,2019-08-07 16:59:06:481
1.4051,9.6829,1.5869,0.6215,-0.3372,-0.2006,2.8086,0.2625,-0.3473,1692,2019-08-07 16:59:06:485
1.6826,9.9884,1.7849,0.6215,-0.3372,-0.2006,2.8086,0.2625,-0.3473,1698,2019-08-07 16:59:06:491
1.6826,9.9884,1.7849,0.6215,-0.3372,-0.2006,2.6446,0.2231,-0.3484,1703,2019-08-07 16:59:06:496
1.6826,9.9884,1.7849,0.6215,-0.3372,-0.2006,2.6446,0.2231,-0.3484,1708,2019-08-07 16:59:06:501
1.5965,10.1555,1.7708,0.5435,-0.625,-0.8617,2.4784,0.1986,-0.3377,1713,2019-08-07 16:59:06:506
1.5965,10.1555,1.7708,0.5435,-0.625,-0.8617,2.4784,0.1986,-0.3377,1718,2019-08-07 16:59:06:511
1.807,9.9264,2.0866,0.5435,-0.625,-0.8617,2.2685,0.1443,-0.3281,1723,2019-08-07 16:59:06:516
1.807,9.9264,2.0866,0.2761,-0.1144,-1.7613,2.2685,0.1443,-0.3281,1728,2019-08-07 16:59:06:521
1.807,9.9264,2.0866,0.2761,-0.1144,-1.7613,2.1609,0.1059,-0.3345,1733,2019-08-07 16:59:06:526
1.7496,9.5779,2.393,0.2761,-0.1144,-1.7613,2.1609,0.1059,-0.3345,1737,2019-08-07 16:59:06:530
1.7496,9.5779,2.393,0.2761,-0.1144,-1.7613,2.0491,0.0825,-0.3356,1743,2019-08-07 16:59:06:536
1.7496,9.5779,2.393,0.2761,-0.1144,-1.7613,2.0491,0.0825,-0.3356,1748,2019-08-07 16:59:06:541
1.8214,9.2341,2.5768,0.1795,0.3693,-2.4962,2.0491,0.0825,-0.3356,1752,2019-08-07 16:59:06:545
1.8214,9.2341,2.5768,0.1795,0.3693,-2.4962,1.9372,0.0655,-0.342,1758,2019-08-07 16:59:06:551
1.8979,8.9716,2.9869,0.0695,0.6386,-3.0826,1.9372,0.0655,-0.342,1763,2019-08-07 16:59:06:556
1.8979,8.9716,2.9869,0.0695,0.6386,-3.0826,1.8659,0.0143,-0.3313,1767,2019-08-07 16:59:06:560
1.8979,8.9716,2.9869,0.0695,0.6386,-3.0826,1.8659,0.0143,-0.3313,1773,2019-08-07 16:59:06:566
1.8262,8.4512,3.2886,0.0695,0.6386,-3.0826,1.7732,-0.0272,-0.2578,1777,2019-08-07 16:59:06:570
1.8262,8.4512,3.2886,0.0482,1.3244,-3.3175,1.7732,-0.0272,-0.2578,1783,2019-08-07 16:59:06:576
1.8166,8.0741,3.628,0.0482,1.3244,-3.3175,1.7732,-0.0272,-0.2578,1788,2019-08-07 16:59:06:581
1.8166,8.0741,3.628,0.0482,1.3244,-3.3175,1.6805,0.0079,-0.1641,1792,2019-08-07 16:59:06:585
1.8166,8.0741,3.628,0.0482,1.3244,-3.3175,1.6805,0.0079,-0.1641,1798,2019-08-07 16:59:06:591
1.2521,7.4105,2.525,0.6234,2.1915,-3.2452,1.6454,-0.0379,-0.0586,1803,2019-08-07 16:59:06:596
1.2521,7.4105,2.525,0.6234,2.1915,-3.2452,1.6454,-0.0379,-0.0586,1807,2019-08-07 16:59:06:600
1.2521,5.9784,-1.0481,0.6234,2.1915,-3.2452,1.6294,0.189,-0.0544,1813,2019-08-07 16:59:06:606
1.7209,5.9784,-1.0481,0.6234,2.1915,-3.2452,1.6294,0.189,-0.0544,1818,2019-08-07 16:59:06:611
1.7209,5.9784,-1.0481,-1.9435,-2.7261,0.6213,1.1234,0.2668,0.2098,1822,2019-08-07 16:59:06:615
4.07,13.4494,6.725,-1.9435,-2.7261,0.6213,1.1234,0.2668,0.2098,1828,2019-08-07 16:59:06:621
4.07,13.4494,6.725,-1.9435,-2.7261,0.6213,0.17,0.6066,0.506,1833,2019-08-07 16:59:06:626
4.07,13.4494,6.725,-1.9435,-2.7261,0.6213,0.17,0.6066,0.506,1838,2019-08-07 16:59:06:631
4.1753,7.7113,9.888,-2.2026,1.8385,-10.9588,0.2467,1.3811,0.3867,1843,2019-08-07 16:59:06:636
4.1753,7.7113,9.888,-2.2026,1.8385,-10.9588,0.2467,1.3811,0.3867,1847,2019-08-07 16:59:06:640
1.1038,8.098,15.1769,-2.2026,1.8385,-10.9588,-0.3392,1.3427,0.3494,1853,2019-08-07 16:59:06:646
1.1038,8.098,15.1769,1.4681,1.1401,-15.1386,-0.8058,1.1169,0.4804,1867,2019-08-07 16:59:06:660
1.1038,8.098,15.1769,1.4681,1.1401,-15.1386,-0.8058,1.1169,0.4804,1867,2019-08-07 16:59:06:660
0.3958,9.0527,21.418,1.4681,1.1401,-15.1386,-0.8058,1.1169,0.4804,1868,2019-08-07 16:59:06:661
0.3958,9.0527,21.418,2.1491,-0.6931,-28.3187,-0.8058,1.1169,0.4804,1873,2019-08-07 16:59:06:666
0.3958,9.0527,21.418,2.1491,-0.6931,-28.3187,-1.9947,0.645,0.1054,1878,2019-08-07 16:59:06:671
-1.3313,13.1821,29.686,2.1491,-0.6931,-28.3187,-1.9947,0.645,0.1054,1882,2019-08-07 16:59:06:675
-1.3313,13.1821,29.686,2.1491,-0.6931,-28.3187,-2.8873,-0.53,0.4346,1888,2019-08-07 16:59:06:681
-1.3313,13.1821,29.686,-2.3427,-2.0276,-17.7342,-2.8873,-0.53,0.4346,1892,2019-08-07 16:59:06:685
5.735,12.2464,9.4213,-2.3427,-2.0276,-17.7342,-2.964,-1.0147,0.7425,1898,2019-08-07 16:59:06:691
5.735,12.2464,9.4213,-2.3427,-2.0276,-17.7342,-2.964,-1.0147,0.7425,1902,2019-08-07 16:59:06:695
5.735,12.2464,9.4213,-2.3427,-2.0276,-17.7342,-2.1172,-1.1692,0.98,1908,2019-08-07 16:59:06:701
11.1221,17.3878,-4.0932,-8.3932,-8.7496,6.11,-2.1172,-1.1692,0.98,1912,2019-08-07 16:59:06:705
11.1221,17.3878,-4.0932,-8.3932,-8.7496,6.11,-1.004,-0.1668,0.4122,1917,2019-08-07 16:59:06:710
-0.207,20.6579,-11.2157,-8.3932,-8.7496,6.11,-1.004,-0.1668,0.4122,1923,2019-08-07 16:59:06:716
-0.207,20.6579,-11.2157,-8.3932,-8.7496,6.11,-0.6844,2.7489,0.0703,1928,2019-08-07 16:59:06:721
-0.207,20.6579,-11.2157,5.1215,1.0429,-26.3275,-0.6844,2.7489,0.0703,1933,2019-08-07 16:59:06:726
-2.3647,7.7877,15.6718,5.1215,1.0429,-26.3275,-0.5427,0.3957,0.2652,1938,2019-08-07 16:59:06:731
-2.3647,7.7877,15.6718,4.4903,1.4939,2.794,-0.5427,0.3957,0.2652,1942,2019-08-07 16:59:06:735
-0.1639,5.8447,1.9735,4.4903,1.4939,2.794,-0.5427,0.3957,0.2652,1948,2019-08-07 16:59:06:741
-0.1639,5.8447,1.9735,4.4903,1.4939,2.794,-1.1946,-1.6411,0.4208,1953,2019-08-07 16:59:06:746
-0.1639,5.8447,1.9735,4.4903,1.4939,2.794,-1.1946,-1.6411,0.4208,1958,2019-08-07 16:59:06:751
0.6972,6.1025,5.8577,1.4636,2.9872,-1.9873,-0.776,-2.749,0.2205,1962,2019-08-07 16:59:06:755
0.6972,6.1025,5.8577,1.4636,2.9872,-1.9873,-0.776,-2.749,0.2205,1968,2019-08-07 16:59:06:761
0.6972,6.1025,5.8577,1.4636,2.9872,-1.9873,-0.4298,-0.1156,0.2716,1973,2019-08-07 16:59:06:766
7.1847,7.4583,1.0496,1.4636,2.9872,-1.9873,-0.4298,-0.1156,0.2716,1977,2019-08-07 16:59:06:770
7.1847,7.4583,1.0496,-5.4807,2.8182,-5.4781,-0.2199,0.1986,0.2556,1983,2019-08-07 16:59:06:776
7.1847,7.4583,1.0496,-5.4807,2.8182,-5.4781,-0.2199,0.1986,0.2556,1988,2019-08-07 16:59:06:781
5.1418,7.9595,1.092,-5.4807,2.8182,-5.4781,-0.0516,0.1773,0.212,1993,2019-08-07 16:59:06:786
5.1418,7.9595,1.092,-5.4807,2.8182,-5.4781,-0.0516,0.1773,0.212,1997,2019-08-07 16:59:06:790
2.8693,8.3653,1.5163,-0.2689,1.0626,-0.7495,-0.0516,0.1773,0.212,2002,2019-08-07 16:59:06:795
2.8693,8.3653,1.5163,-0.2689,1.0626,-0.7495,0.0155,1.2255,0.1949,2008,2019-08-07 16:59:06:801
2.8789,9.9072,4.2267,-0.2689,-0.4851,-3.4217,0.0155,1.2255,0.1949,2013,2019-08-07 16:59:06:806
2.8789,9.9072,4.2267,-0.2689,-0.4851,-3.4217,0.0741,0.6833,0.1353,2018,2019-08-07 16:59:06:811
2.8789,9.9072,4.2267,-0.2689,-0.4851,-3.4217,0.0741,0.6833,0.1353,2023,2019-08-07 16:59:06:816
2.9124,10.2939,2.2469,-0.2689,-0.4851,-3.4217,0.0507,-0.3564,0.1438,2028,2019-08-07 16:59:06:821
2.9124,10.2939,2.2469,-0.5449,-0.1012,-1.2954,0.0507,-0.3564,0.1438,2033,2019-08-07 16:59:06:826
2.9124,10.2939,2.2469,-0.5449,-0.1012,-1.2954,0.1412,-0.448,0.0895,2037,2019-08-07 16:59:06:830
3.276,9.7211,0.7432,-0.5449,-0.1012,-1.2954,0.1412,-0.448,0.0895,2043,2019-08-07 16:59:06:836
3.276,9.7211,0.7432,-0.5449,-0.1012,-1.2954,0.1316,0.0921,0.1321,2048,2019-08-07 16:59:06:841
2.8933,9.8022,0.8469,-0.23,-0.3923,-0.0739,0.1316,0.0921,0.1321,2053,2019-08-07 16:59:06:846
2.8933,9.8022,0.8469,-0.23,-0.3923,-0.0739,0.1316,0.0921,0.1321,2058,2019-08-07 16:59:06:851
2.8933,9.8022,0.8469,-0.23,-0.3923,-0.0739,0.0837,0.2711,0.1619,2063,2019-08-07 16:59:06:856
1.6111,10.1841,1.1863,-0.23,-0.3923,-0.0739,0.0837,0.2711,0.1619,2067,2019-08-07 16:59:06:860
1.6111,10.1841,1.1863,1.5354,-1.2137,-0.1172,0.1306,0.1145,0.1566,2072,2019-08-07 16:59:06:865
1.6111,10.1841,1.1863,1.5354,-1.2137,-0.1172,0.1306,0.1145,0.1566,2078,2019-08-07 16:59:06:871
1.0705,10.6806,0.8846,1.5354,-1.2137,-0.1172,0.0826,-0.1199,0.1885,2082,2019-08-07 16:59:06:875
1.0705,10.6806,0.8846,1.5354,-1.2137,-0.1172,0.0826,-0.1199,0.1885,2088,2019-08-07 16:59:06:881
1.836,9.9979,0.5452,1.5354,-1.2137,-0.1172,0.04,-0.3244,0.2152,2092,2019-08-07 16:59:06:885
1.836,9.9979,0.5452,0.6303,-0.4846,0.312,0.04,-0.3244,0.2152,2098,2019-08-07 16:59:06:891
1.836,9.9979,0.5452,0.6303,-0.4846,0.312,0.04,-0.3244,0.2152,2102,2019-08-07 16:59:06:895
3.3705,9.7403,0.083,0.6303,-0.4846,0.312,-0.0165,-0.2967,0.2077,2108,2019-08-07 16:59:06:901
3.3705,9.7403,0.083,0.6303,-0.4846,0.312,-0.0165,-0.2967,0.2077,2113,2019-08-07 16:59:06:906
3.3705,9.7403,0.083,-0.9205,-0.5634,0.095,-0.0367,-0.1817,0.1864,2118,2019-08-07 16:59:06:911
3.8393,10.0744,1.2049,-0.9205,-0.5634,0.095,-0.0367,-0.1817,0.1864,2122,2019-08-07 16:59:06:915
3.8393,10.0744,1.2049,-0.9205,-0.5634,0.095,-0.0399,-0.0443,0.1331,2128,2019-08-07 16:59:06:921
3.9015,9.6925,1.5914,-0.9205,-0.5634,0.095,-0.0399,-0.0443,0.1331,2132,2019-08-07 16:59:06:925
3.9015,9.6925,1.5914,-1.1055,-0.2021,-0.5845,-0.0399,-0.0443,0.1331,2138,2019-08-07 16:59:06:931
3.9015,9.6925,1.5914,-1.1055,-0.2021,-0.5845,-0.025,0.009,0.0884,2142,2019-08-07 16:59:06:935
4.002,9.2438,0.5544,-1.1055,-0.2021,-0.5845,-0.0207,0.1187,0.0351,2148,2019-08-07 16:59:06:941
4.002,9.2438,0.5544,-1.1055,-0.2021,-0.5845,-0.0207,0.1187,0.0351,2152,2019-08-07 16:59:06:945
3.4087,9.2963,1.4312,-0.6469,0.1211,-0.5666,-0.0207,0.1187,0.0351,2158,2019-08-07 16:59:06:951
3.4087,9.2963,1.4312,-0.6469,0.1211,-0.5666,-0.009,0.1294,-0.0011,2162,2019-08-07 16:59:06:955
3.4087,9.2963,1.4312,-0.6469,0.1211,-0.5666,-0.009,0.1294,-0.0011,2168,2019-08-07 16:59:06:961
3.404,9.2677,1.3086,-0.6469,0.1211,-0.5666,-0.026,-0.0379,-0.0149,2172,2019-08-07 16:59:06:965
3.404,9.2677,1.3086,-0.6303,0.0432,-0.3996,-0.026,-0.0379,-0.0149,2178,2019-08-07 16:59:06:971
3.4135,9.3106,1.1483,-0.6303,0.0432,-0.3996,-0.0186,-0.0964,-0.0437,2183,2019-08-07 16:59:06:976
3.4135,9.3106,1.1483,-0.6303,0.0432,-0.3996,-0.0186,-0.0964,-0.0437,2188,2019-08-07 16:59:06:981
3.4135,9.3106,1.1483,-0.6303,0.0432,-0.3996,-5.0E-4,-0.0187,-0.0544,2193,2019-08-07 16:59:06:986
3.2796,9.2915,1.0541,-0.4713,0.0775,-0.2991,-5.0E-4,-0.0187,-0.0544,2197,2019-08-07 16:59:06:990
3.2796,9.2915,1.0541,-0.4713,0.0775,-0.2991,-0.0047,0.0719,-0.0639,2203,2019-08-07 16:59:06:996
3.2796,9.2915,1.0541,-0.4713,0.0775,-0.2991,-0.0047,0.0719,-0.0639,2207,2019-08-07 16:59:07:000
3.0308,9.5732,0.7665,-0.4713,0.0775,-0.2991,-0.0079,0.1326,-0.0821,2213,2019-08-07 16:59:07:006
3.0308,9.5732,0.7665,0.0365,-0.4822,0.0428,-0.0079,0.1326,-0.0821,2217,2019-08-07 16:59:07:010
2.5763,9.9885,1.0022,0.0365,-0.4822,0.0428,-0.0207,0.1773,-0.0831,2223,2019-08-07 16:59:07:016
2.5763,9.9885,1.0022,0.0365,-0.4822,0.0428,-0.0207,0.1773,-0.0831,2227,2019-08-07 16:59:07:020
2.5763,9.9885,1.0022,0.0365,-0.4822,0.0428,-0.026,0.1475,-0.081,2233,2019-08-07 16:59:07:026
2.3992,9.9694,1.3086,0.374,-0.5918,-0.5308,-0.026,0.1475,-0.081,2238,2019-08-07 16:59:07:031
2.3992,9.9694,1.3086,0.374,-0.5918,-0.5308,-0.0154,0.1315,-0.0682,2242,2019-08-07 16:59:07:035
2.3657,9.4586,1.219,0.374,-0.5918,-0.5308,-0.0154,0.1315,-0.0682,2248,2019-08-07 16:59:07:041
2.3657,9.4586,1.219,0.374,-0.5918,-0.5308,-5.0E-4,0.156,-0.0618,2252,2019-08-07 16:59:07:045
2.3657,9.4586,1.219,0.2797,0.0997,-0.7807,-5.0E-4,0.156,-0.0618,2258,2019-08-07 16:59:07:051
2.5667,9.2104,1.5254,0.2797,0.0997,-0.7807,-0.0079,0.1134,-0.049,2262,2019-08-07 16:59:07:055
2.5667,9.2104,1.5254,0.2797,0.0997,-0.7807,-0.0079,0.1134,-0.049,2267,2019-08-07 16:59:07:060
2.5667,9.2104,1.5254,0.2797,0.0997,-0.7807,-0.0399,0.042,-0.0352,2273,2019-08-07 16:59:07:066
3.026,9.7928,1.3227,-0.2797,-0.4095,-0.5176,-0.0399,0.042,-0.0352,2278,2019-08-07 16:59:07:071
3.026,9.7928,1.3227,-0.2797,-0.4095,-0.5176,-0.0399,0.042,-0.0352,2282,2019-08-07 16:59:07:075
3.026,9.7928,1.3227,-0.2797,-0.4095,-0.5176,-0.0228,0.0655,-0.0352,2288,2019-08-07 16:59:07:081
3.0259,9.5827,0.6628,-0.2797,-0.4095,-0.5176,-0.0228,0.0655,-0.0352,2293,2019-08-07 16:59:07:086
3.0259,9.5827,0.6628,-0.4064,-0.2555,-0.1255,-0.0527,0.091,-0.0362,2298,2019-08-07 16:59:07:091
3.0259,9.5827,0.6628,-0.4064,-0.2555,-0.1255,-0.0527,0.091,-0.0362,2303,2019-08-07 16:59:07:096
2.6958,10.0362,1.6291,-0.4064,-0.2555,-0.1255,-0.0612,0.0154,-0.0533,2308,2019-08-07 16:59:07:101
2.6958,10.0362,1.6291,-0.4064,-0.2555,-0.1255,-0.0612,0.0154,-0.0533,2313,2019-08-07 16:59:07:106
2.6958,10.0362,1.6291,0.1339,-1.1039,-0.8202,-0.0686,-0.1582,-0.0064,2318,2019-08-07 16:59:07:111
2.4279,10.4229,1.5254,0.1339,-1.1039,-0.8202,-0.0686,-0.1582,-0.0064,2322,2019-08-07 16:59:07:115
2.4279,10.4229,1.5254,0.5414,-0.6844,-0.5055,-0.107,-0.3191,0.0277,2328,2019-08-07 16:59:07:121
2.2461,10.041,1.3982,0.5414,-0.6844,-0.5055,-0.107,-0.3191,0.0277,2332,2019-08-07 16:59:07:125
2.2461,10.041,1.3982,0.5414,-0.6844,-0.5055,-0.1816,-0.3681,0.0298,2338,2019-08-07 16:59:07:131
2.3466,9.8453,1.0588,0.5414,-0.6844,-0.5055,-0.1816,-0.3681,0.0298,2343,2019-08-07 16:59:07:136
2.3466,9.8453,1.0588,0.43,-0.0151,-0.3011,-0.221,-0.3851,0.0213,2348,2019-08-07 16:59:07:141
2.3466,9.8453,1.0588,0.43,-0.0151,-0.3011,-0.221,-0.3851,0.0213,2353,2019-08-07 16:59:07:146
2.5858,8.9621,1.5443,0.43,-0.0151,-0.3011,-0.221,-0.3851,0.0213,2357,2019-08-07 16:59:07:150
2.5858,8.9621,1.5443,0.0332,0.4074,-0.5688,-0.1507,-0.4554,0.0117,2363,2019-08-07 16:59:07:156
3.0163,9.1101,0.7288,0.0332,0.4074,-0.5688,-0.1507,-0.4554,0.0117,2368,2019-08-07 16:59:07:161
3.0163,9.1101,0.7288,0.0332,0.4074,-0.5688,-0.1315,-0.3809,-0.0299,2372,2019-08-07 16:59:07:165
3.0163,9.1101,0.7288,-0.5199,0.281,-0.4757,-0.1315,-0.3809,-0.0299,2378,2019-08-07 16:59:07:171
3.2938,9.0958,1.3982,-0.5199,0.281,-0.4757,-0.075,-0.253,-0.0277,2382,2019-08-07 16:59:07:175
3.2938,9.0958,1.3982,-0.5199,0.281,-0.4757,-0.075,-0.253,-0.0277,2388,2019-08-07 16:59:07:181
3.2938,9.0958,1.3982,-0.5199,0.281,-0.4757,-0.075,-0.253,-0.0277,2393,2019-08-07 16:59:07:186
3.4613,9.0385,0.6769,-0.676,0.094,0.1254,-0.0537,-0.1295,-0.0384,2398,2019-08-07 16:59:07:191
3.4613,9.0385,0.6769,-0.676,0.094,0.1254,-0.0537,-0.1295,-0.0384,2402,2019-08-07 16:59:07:195
3.4613,9.0385,0.6769,-0.676,0.094,0.1254,-0.0537,-0.1295,-0.0384,2408,2019-08-07 16:59:07:201
3.1455,9.6162,0.9739,-0.3985,-0.2392,-0.101,-0.0314,0.0239,-0.0789,2412,2019-08-07 16:59:07:205
3.1455,9.6162,0.9739,-0.3985,-0.2392,-0.101,-0.0314,0.0239,-0.0789,2418,2019-08-07 16:59:07:211
2.7436,9.4538,0.9126,-0.3985,-0.2392,-0.101,-0.0239,0.074,-0.0853,2422,2019-08-07 16:59:07:215
2.7436,9.4538,0.9126,-0.3985,-0.2392,-0.101,-0.0239,0.074,-0.0853,2428,2019-08-07 16:59:07:221
2.7436,9.4538,0.9126,0.0688,-0.1255,-0.0218,-0.0346,0.1017,-0.081,2432,2019-08-07 16:59:07:225
2.3369,9.7116,0.9833,0.0688,-0.1255,-0.0218,-0.0346,0.1017,-0.081,2438,2019-08-07 16:59:07:231
2.3369,9.7116,0.9833,0.0688,-0.1255,-0.0218,-0.0473,0.0921,-0.0735,2443,2019-08-07 16:59:07:236
2.3369,9.7116,0.9833,0.0688,-0.1255,-0.0218,-0.0473,0.0921,-0.0735,2448,2019-08-07 16:59:07:241
2.1647,9.8405,1.384,0.5465,-0.4554,-0.4873,-0.074,-0.0666,-0.0426,2453,2019-08-07 16:59:07:246
2.1647,9.8405,1.384,0.5465,-0.4554,-0.4873,-0.074,-0.0666,-0.0426,2458,2019-08-07 16:59:07:251
2.447,9.7976,0.9079,0.5465,-0.4554,-0.4873,-0.074,-0.0666,-0.0426,2463,2019-08-07 16:59:07:256
2.447,9.7976,0.9079,0.5465,-0.4554,-0.4873,-0.0995,-0.1337,-0.0309,2468,2019-08-07 16:59:07:261
2.447,9.7976,0.9079,0.0833,-0.2821,-0.0511,-0.0995,-0.1337,-0.0309,2472,2019-08-07 16:59:07:265
2.9493,9.6305,1.12,0.0833,-0.2821,-0.0511,-0.1091,-0.1018,-0.0384,2478,2019-08-07 16:59:07:271
2.9493,9.6305,1.12,0.0833,-0.2821,-0.0511,-0.1187,-0.1614,-0.0608,2483,2019-08-07 16:59:07:276
2.4757,9.7451,1.3746,0.1291,-0.2198,-0.5101,-0.1187,-0.1614,-0.0608,2488,2019-08-07 16:59:07:281
2.4757,9.7451,1.3746,0.1291,-0.2198,-0.5101,-0.1187,-0.1614,-0.0608,2492,2019-08-07 16:59:07:285
3.0833,9.3059,1.5961,0.1291,-0.2198,-0.5101,-0.075,-0.0847,-0.0426,2498,2019-08-07 16:59:07:291
3.0833,9.3059,1.5961,0.1291,-0.2198,-0.5101,-0.075,-0.0847,-0.0426,2503,2019-08-07 16:59:07:296
3.0833,9.3059,1.5961,0.1291,-0.2198,-0.5101,-0.0686,-0.0379,-0.049,2507,2019-08-07 16:59:07:300
3.1837,9.1961,2.0958,-0.4925,0.1903,-1.1523,-0.0686,-0.0379,-0.049,2513,2019-08-07 16:59:07:306
3.1837,9.1961,2.0958,-0.4925,0.1903,-1.1523,-0.0399,-0.0357,-0.0533,2517,2019-08-07 16:59:07:310
3.3416,9.3632,0.6204,-0.4925,0.1903,-1.1523,-0.0399,-0.0357,-0.0533,2523,2019-08-07 16:59:07:316
3.3416,9.3632,0.6204,-0.4925,0.1903,-1.1523,-0.0058,0.1965,-0.0735,2527,2019-08-07 16:59:07:320
3.3416,9.3632,0.6204,-0.5908,-0.1617,0.1049,-0.0058,0.1965,-0.0735,2533,2019-08-07 16:59:07:326
2.9923,9.7069,1.054,-0.5908,-0.1617,0.1049,-0.0058,0.1965,-0.0735,2537,2019-08-07 16:59:07:330
2.9923,9.7069,1.054,-0.5908,-0.1617,0.1049,-0.0101,0.2839,-0.0853,2543,2019-08-07 16:59:07:336
2.624,9.6782,1.0493,-0.5908,-0.1617,0.1049,-0.0101,0.2839,-0.0853,2547,2019-08-07 16:59:07:340
2.624,9.6782,1.0493,0.0242,-0.2623,-0.1002,-0.0047,0.2657,-0.1023,2553,2019-08-07 16:59:07:346
2.624,9.6782,1.0493,0.0242,-0.2623,-0.1002,-0.0047,0.2657,-0.1023,2558,2019-08-07 16:59:07:351
2.6048,9.5398,1.1342,0.0242,-0.2623,-0.1002,-0.0026,0.2785,-0.1108,2562,2019-08-07 16:59:07:355
2.6048,9.5398,1.1342,0.0242,-0.2623,-0.1002,-0.0026,0.2785,-0.1108,2568,2019-08-07 16:59:07:361
2.4182,9.8071,1.4877,0.1925,-0.3374,-0.4976,-0.0037,0.2743,-0.1129,2572,2019-08-07 16:59:07:365
2.4182,9.8071,1.4877,0.1925,-0.3374,-0.4976,-0.0037,0.2743,-0.1129,2578,2019-08-07 16:59:07:371
2.4182,9.8071,1.4877,0.1925,-0.3374,-0.4976,-0.0069,0.2317,-0.0895,2583,2019-08-07 16:59:07:376
2.1599,9.8787,1.7422,0.1925,-0.3374,-0.4976,-0.0069,0.2317,-0.0895,2587,2019-08-07 16:59:07:380
2.1599,9.8787,1.7422,0.4778,-0.4516,-1.0353,-0.0122,0.0964,-0.0597,2593,2019-08-07 16:59:07:386
2.2843,9.7642,1.9827,0.4778,-0.4516,-1.0353,-0.0122,0.0964,-0.0597,2598,2019-08-07 16:59:07:391
2.2843,9.7642,1.9827,0.4778,-0.4516,-1.0353,-0.0303,-0.1423,-0.0341,2602,2019-08-07 16:59:07:395
2.6813,9.5016,1.1907,0.4778,-0.4516,-1.0353,-0.0303,-0.1423,-0.0341,2608,2019-08-07 16:59:07:401
2.6813,9.5016,1.1907,-0.2,-0.0251,-0.1339,-0.0718,-0.1827,-0.0256,2613,2019-08-07 16:59:07:406
2.6813,9.5016,1.1907,-0.2,-0.0251,-0.1339,-0.0718,-0.1827,-0.0256,2618,2019-08-07 16:59:07:411
2.978,9.4348,1.1672,-0.2,-0.0251,-0.1339,-0.0441,-0.1007,-0.0437,2622,2019-08-07 16:59:07:415
2.978,9.4348,1.1672,-0.2,-0.0251,-0.1339,-0.0441,-0.1007,-0.0437,2628,2019-08-07 16:59:07:421
2.978,9.4348,1.1672,-0.3787,0.0369,-0.327,-0.0441,-0.1007,-0.0437,2632,2019-08-07 16:59:07:425
2.9923,9.3584,1.3227,-0.3787,0.0369,-0.327,-0.026,-0.0506,-0.0501,2638,2019-08-07 16:59:07:431
2.9923,9.3584,1.3227,-0.3787,0.0369,-0.327,-0.026,-0.0506,-0.0501,2643,2019-08-07 16:59:07:436
2.9923,9.3584,1.3227,-0.4295,0.1663,-0.3104,-0.025,-0.0229,-0.0618,2647,2019-08-07 16:59:07:440
2.9779,9.3011,1.2944,-0.4295,0.1663,-0.3104,0.0027,0.0495,-0.0693,2653,2019-08-07 16:59:07:446
2.9779,9.3011,1.2944,-0.4295,0.1663,-0.3104,0.0027,0.0495,-0.0693,2657,2019-08-07 16:59:07:450
2.5474,9.4539,1.3463,0.0374,-0.0459,-0.3243,0.0027,0.0495,-0.0693,2663,2019-08-07 16:59:07:456
2.5474,9.4539,1.3463,0.0374,-0.0459,-0.3243,-0.0026,0.0836,-0.0597,2667,2019-08-07 16:59:07:460
2.5474,9.4539,1.3463,0.0374,-0.0459,-0.3243,-0.0026,0.0836,-0.0597,2673,2019-08-07 16:59:07:466
2.4421,9.6687,1.3698,0.0374,-0.0459,-0.3243,0.0091,0.0729,-0.0693,2678,2019-08-07 16:59:07:471
2.4421,9.6687,1.3698,0.161,-0.3765,-0.2574,0.0091,0.0729,-0.0693,2683,2019-08-07 16:59:07:476
2.4421,9.6687,1.3698,0.161,-0.3765,-0.2574,-0.0015,0.0644,-0.0618,2688,2019-08-07 16:59:07:481
2.4804,9.7116,1.2049,0.161,-0.3765,-0.2574,-0.0015,0.0644,-0.0618,2693,2019-08-07 16:59:07:486
2.4804,9.7116,1.2049,0.161,-0.3765,-0.2574,-0.0015,0.0964,-0.0586,2697,2019-08-07 16:59:07:490
2.4134,9.6305,1.3746,0.1416,-0.2156,-0.3412,-0.0015,0.0964,-0.0586,2703,2019-08-07 16:59:07:496
2.4134,9.6305,1.3746,0.1416,-0.2156,-0.3412,-0.0015,0.0964,-0.0586,2707,2019-08-07 16:59:07:500
2.4134,9.6305,1.3746,0.1416,-0.2156,-0.3412,-0.0111,0.0687,-0.0533,2713,2019-08-07 16:59:07:506
2.4516,9.6448,1.252,0.116,-0.1522,-0.2572,-0.0111,0.0687,-0.0533,2717,2019-08-07 16:59:07:510
2.4516,9.6448,1.252,0.116,-0.1522,-0.2572,-5.0E-4,0.1049,-0.0458,2723,2019-08-07 16:59:07:516
2.5712,9.6353,1.2756,0.116,-0.1522,-0.2572,-5.0E-4,0.1049,-0.0458,2727,2019-08-07 16:59:07:520
2.5712,9.6353,1.2756,-0.0919,-0.2501,-0.3295,-5.0E-4,0.1507,-0.0469,2733,2019-08-07 16:59:07:526
2.5712,9.6353,1.2756,-0.0919,-0.2501,-0.3295,-5.0E-4,0.1507,-0.0469,2738,2019-08-07 16:59:07:531
2.5569,9.6735,1.582,-0.0919,-0.2501,-0.3295,0.0059,0.1123,-0.0501,2743,2019-08-07 16:59:07:536
2.5569,9.6735,1.582,-0.0919,-0.2501,-0.3295,0.0059,0.1123,-0.0501,2747,2019-08-07 16:59:07:540
2.643,9.6162,1.4783,-0.1171,-0.1957,-0.4243,0.0059,0.1123,-0.0501,2753,2019-08-07 16:59:07:546
2.643,9.6162,1.4783,-0.1171,-0.1957,-0.4243,-0.0175,0.009,-0.0384,2757,2019-08-07 16:59:07:550
2.643,9.6162,1.4783,-0.1171,-0.1957,-0.4243,-0.0175,0.009,-0.0384,2763,2019-08-07 16:59:07:556
2.5186,9.5207,1.4028,-0.1171,-0.1957,-0.4243,-0.0271,-0.0059,-0.0458,2768,2019-08-07 16:59:07:561
2.5186,9.5207,1.4028,0.0564,-0.1656,-0.4221,-0.0271,-0.0059,-0.0458,2773,2019-08-07 16:59:07:566
2.5186,9.5207,1.4028,0.0564,-0.1656,-0.4221,-0.0271,-0.0059,-0.0458,2777,2019-08-07 16:59:07:570
2.4516,9.6305,1.3981,0.0564,-0.1656,-0.4221,-0.0282,-0.0592,-0.0363,2783,2019-08-07 16:59:07:576
2.4516,9.6305,1.3981,0.0564,-0.1656,-0.4221,-0.0282,-0.0592,-0.0363,2787,2019-08-07 16:59:07:580
2.4229,9.6066,1.3038,0.0564,-0.1656,-0.4221,-0.0527,-0.1444,-0.0245,2793,2019-08-07 16:59:07:586
2.4229,9.6066,1.3038,0.0846,-0.2411,-0.2852,-0.0527,-0.1444,-0.0245,2797,2019-08-07 16:59:07:590
2.4229,9.6066,1.3038,0.0846,-0.2411,-0.2852,-0.0559,-0.1785,-0.0192,2803,2019-08-07 16:59:07:596
2.5282,9.7498,1.1389,0.0846,-0.2411,-0.2852,-0.0559,-0.1785,-0.0192,2808,2019-08-07 16:59:07:601
2.5282,9.7498,1.1389,0.0846,-0.2411,-0.2852,-0.0559,-0.1785,-0.0192,2812,2019-08-07 16:59:07:605
2.643,9.6973,1.1106,-0.1893,-0.2937,0.0288,-0.0569,-0.1199,-0.0235,2818,2019-08-07 16:59:07:611
2.643,9.6973,1.1106,-0.1893,-0.2937,0.0288,-0.0569,-0.1199,-0.0235,2822,2019-08-07 16:59:07:615
2.643,9.6973,1.1106,-0.1893,-0.2937,0.0288,-0.0559,-0.0688,-0.0331,2828,2019-08-07 16:59:07:621
2.5664,9.6448,1.2991,-0.1893,-0.2937,0.0288,-0.0559,-0.0688,-0.0331,2833,2019-08-07 16:59:07:626
2.5664,9.6448,1.2991,-0.069,-0.2265,-0.2328,-0.0559,-0.0688,-0.0331,2837,2019-08-07 16:59:07:630
2.5664,9.6448,1.2991,-0.069,-0.2265,-0.2328,-0.0505,-0.0432,-0.0416,2843,2019-08-07 16:59:07:636
2.6382,9.5637,1.2614,-0.069,-0.2265,-0.2328,-0.0388,0.0218,-0.0448,2848,2019-08-07 16:59:07:641
2.6382,9.5637,1.2614,-0.069,-0.2265,-0.2328,-0.0388,0.0218,-0.0448,2853,2019-08-07 16:59:07:646
2.6382,9.5637,1.2614,-0.2049,-0.1209,-0.4396,-0.0388,0.0218,-0.0448,2858,2019-08-07 16:59:07:651
2.6956,9.5064,1.5018,-0.2049,-0.1209,-0.4396,-0.0335,0.0346,-0.0458,2863,2019-08-07 16:59:07:656
2.6956,9.5064,1.5018,-0.2049,-0.1209,-0.4396,-0.0335,0.0346,-0.0458,2867,2019-08-07 16:59:07:660
2.509,9.5875,1.4971,-0.2049,-0.1209,-0.4396,-0.041,0.0154,-0.0394,2873,2019-08-07 16:59:07:666
2.509,9.5875,1.4971,0.0784,-0.1677,-0.4231,-0.041,0.0154,-0.0394,2878,2019-08-07 16:59:07:671
2.509,9.5875,1.4971,0.0784,-0.1677,-0.4231,-0.0441,-0.04,-0.0277,2883,2019-08-07 16:59:07:676
2.2841,9.683,1.5914,0.0784,-0.1677,-0.4231,-0.0441,-0.04,-0.0277,2888,2019-08-07 16:59:07:681
2.2841,9.683,1.5914,0.0784,-0.1677,-0.4231,-0.0548,-0.138,-0.0107,2893,2019-08-07 16:59:07:686
2.3607,9.6973,1.6338,0.1875,-0.301,-0.489,-0.0548,-0.138,-0.0107,2897,2019-08-07 16:59:07:690
2.3607,9.6973,1.6338,0.1875,-0.301,-0.489,-0.0548,-0.138,-0.0107,2903,2019-08-07 16:59:07:696
2.3607,9.6973,1.6338,0.1875,-0.301,-0.489,-0.0697,-0.2957,-0.0117,2908,2019-08-07 16:59:07:701
2.6477,9.6066,1.3745,0.1875,-0.301,-0.489,-0.0697,-0.2957,-0.0117,2913,2019-08-07 16:59:07:706
2.6477,9.6066,1.3745,-0.1199,-0.3356,-0.1188,-0.075,-0.3393,-0.0256,2918,2019-08-07 16:59:07:711
2.0592,9.2152,4.4998,-0.1199,-0.3356,-0.1188,-0.075,-0.3393,-0.0256,2923,2019-08-07 16:59:07:716
2.0592,9.2152,4.4998,-0.1199,-0.3356,-0.1188,-0.1145,-0.9519,-0.0331,2928,2019-08-07 16:59:07:721
2.0592,9.2152,4.4998,-0.1199,-0.3356,-0.1188,-0.1145,-0.9519,-0.0331,2933,2019-08-07 16:59:07:726
2.4372,9.7355,0.2385,0.0603,-0.3126,0.8605,-0.0644,-0.2328,-0.016,2938,2019-08-07 16:59:07:731
2.4372,9.7355,0.2385,0.0603,-0.3126,0.8605,-0.0644,-0.2328,-0.016,2943,2019-08-07 16:59:07:736
3.2027,9.5923,1.959,0.0603,-0.3126,0.8605,-0.0516,-0.1146,0.001,2948,2019-08-07 16:59:07:741
3.2027,9.5923,1.959,0.0603,-0.3126,0.8605,-0.0516,-0.1146,0.001,2952,2019-08-07 16:59:07:745
3.2027,9.5923,1.959,-0.3779,-0.229,0.2564,-0.0271,-0.0379,-0.0107,2959,2019-08-07 16:59:07:752
2.7816,9.6353,0.559,-0.3779,-0.229,0.2564,-0.0271,-0.0379,-0.0107,2963,2019-08-07 16:59:07:756
2.7816,9.6353,0.559,-0.3779,-0.229,0.2564,-0.0271,-0.0379,-0.0107,2968,2019-08-07 16:59:07:761
2.7816,9.6353,0.559,-0.3779,-0.229,0.2564,-0.0069,0.254,-0.0331,2973,2019-08-07 16:59:07:766
2.7242,9.6591,1.5112,-0.2437,-0.2097,-0.3854,-0.0069,0.254,-0.0331,2978,2019-08-07 16:59:07:771
2.7242,9.6591,1.5112,-0.2437,-0.2097,-0.3854,0.0389,0.3733,-0.0384,2983,2019-08-07 16:59:07:776
2.7242,9.6591,1.5112,-0.2437,-0.2097,-0.3854,0.0389,0.3733,-0.0384,2987,2019-08-07 16:59:07:780
2.8725,9.4921,1.1436,-0.2437,-0.2097,-0.3854,0.0475,0.5416,-0.0448,2993,2019-08-07 16:59:07:786
2.8725,9.4921,1.1436,-0.3598,-0.1597,-0.2611,0.0475,0.5416,-0.0448,2997,2019-08-07 16:59:07:790
2.5807,9.6687,1.4641,-0.3598,-0.1597,-0.2611,0.0475,0.5416,-0.0448,3002,2019-08-07 16:59:07:795
2.5807,9.6687,1.4641,-0.3598,-0.1597,-0.2611,0.0475,0.6056,-0.0533,3008,2019-08-07 16:59:07:801
2.5807,9.6687,1.4641,-0.3598,-0.1597,-0.2611,0.0475,0.6056,-0.0533,3013,2019-08-07 16:59:07:806
2.1166,9.7117,1.7941,0.386,-0.2946,-0.643,0.0326,0.4735,-0.0405,3018,2019-08-07 16:59:07:811
2.1166,9.7117,1.7941,0.386,-0.2946,-0.643,0.0326,0.4735,-0.0405,3022,2019-08-07 16:59:07:815
2.1166,9.7117,1.7941,0.386,-0.2946,-0.643,0.0102,0.156,-0.0363,3028,2019-08-07 16:59:07:821
2.0975,9.788,1.4217,0.386,-0.2946,-0.643,0.0102,0.156,-0.0363,3032,2019-08-07 16:59:07:825
2.0975,9.788,1.4217,0.2712,-0.3351,-0.2033,-0.0133,0.0783,-0.0107,3038,2019-08-07 16:59:07:831
2.3175,9.7499,1.3887,0.2712,-0.3351,-0.2033,-0.0133,0.0783,-0.0107,3043,2019-08-07 16:59:07:836
2.3175,9.7499,1.3887,0.2712,-0.3351,-0.2033,-0.0282,0.0069,0.001,3047,2019-08-07 16:59:07:840
2.3175,9.7499,1.3887,0.2712,-0.3351,-0.2033,-0.0282,0.0069,0.001,3053,2019-08-07 16:59:07:846
2.1788,9.6019,1.5442,0.2451,-0.1828,-0.3982,-0.0441,-0.1146,0.0138,3057,2019-08-07 16:59:07:850