ACCELEROMETER X (m/s²),ACCELEROMETER Y (m/s²),ACCELEROMETER Z (m/s²),LINEAR ACCELERATION X (m/s²),LINEAR ACCELERATION Y (m/s²),LINEAR ACCELERATION Z (m/s²),GYROSCOPE X (rad/s),GYROSCOPE Y (rad/s),GYROSCOPE Z (rad/s),Time since start in ms ,YYYY-MO-DD HH-MI-SS_SSS
2.6599,9.6875,-0.171,-0.1248,-0.1934,0.0821,0.0815,-0.1273,0.0309,3,2019-08-07 16:58:16:997
2.6599,9.74,-0.2088,-0.1248,-0.1934,0.0821,0.0815,-0.1273,0.0309,9,2019-08-07 16:58:17:003
2.6599,9.74,-0.2088,-0.1248,-0.1934,0.0821,0.0634,-0.1572,0.0298,14,2019-08-07 16:58:17:008
2.5355,10.0647,0.3051,0.0141,-0.534,-0.3022,0.0634,-0.1572,0.0298,18,2019-08-07 16:58:17:012
2.5355,10.0647,0.3051,0.0141,-0.534,-0.3022,0.0634,-0.1572,0.0298,24,2019-08-07 16:58:17:018
2.5355,10.0647,0.3051,0.0141,-0.534,-0.3022,0.0645,-0.2648,0.0671,29,2019-08-07 16:58:17:023
2.4973,10.3368,0.5926,0.0141,-0.534,-0.3022,0.0645,-0.2648,0.0671,34,2019-08-07 16:58:17:028
2.4973,10.3368,0.5926,0.2002,-0.7661,-0.4221,0.0453,-0.5258,0.115,39,2019-08-07 16:58:17:033
2.4877,10.0026,-0.3549,0.2002,-0.7661,-0.4221,0.0453,-0.5258,0.115,43,2019-08-07 16:58:17:037
2.4877,10.0026,-0.3549,0.2002,-0.7661,-0.4221,-0.0026,-0.6259,0.1225,49,2019-08-07 16:58:17:043
2.4877,10.0026,-0.3549,0.2002,-0.7661,-0.4221,-0.0026,-0.6259,0.1225,53,2019-08-07 16:58:17:047
2.6217,9.8307,-0.4869,-0.0347,-0.3709,0.2505,-0.0239,-0.6163,0.114,59,2019-08-07 16:58:17:053
2.6217,9.8307,-0.4869,-0.0347,-0.3709,0.2505,-0.0239,-0.6163,0.114,64,2019-08-07 16:58:17:058
2.8274,9.4966,-0.7602,-0.0347,-0.3709,0.2505,-0.0442,-0.5694,0.1012,68,2019-08-07 16:58:17:062
2.8274,9.4966,-0.7602,-0.0347,-0.3709,0.2505,-0.0442,-0.5694,0.1012,74,2019-08-07 16:58:17:068
2.8274,9.4966,-0.7602,-0.2743,0.1531,0.5342,-0.0463,-0.4768,0.0863,79,2019-08-07 16:58:17:073
2.8801,9.2388,-0.7225,-0.2743,0.1531,0.5342,-0.0463,-0.4768,0.0863,84,2019-08-07 16:58:17:078
2.8801,9.2388,-0.7225,-0.2743,0.1531,0.5342,-0.0463,-0.4768,0.0863,89,2019-08-07 16:58:17:083
2.8801,9.2388,-0.7225,-0.2743,0.1531,0.5342,-0.041,-0.3383,0.065,94,2019-08-07 16:58:17:088
2.904,9.3199,-0.4067,-0.2457,0.0675,0.1464,-0.041,-0.3383,0.065,99,2019-08-07 16:58:17:093
2.904,9.3199,-0.4067,-0.2457,0.0675,0.1464,-0.0292,-0.2413,0.0458,104,2019-08-07 16:58:17:098
2.8753,9.4966,-0.3926,-0.2457,0.0675,0.1464,-0.0292,-0.2413,0.0458,109,2019-08-07 16:58:17:103
2.8753,9.4966,-0.3926,-0.2457,0.0675,0.1464,-0.0186,-0.1817,0.0319,113,2019-08-07 16:58:17:107
2.8753,9.4966,-0.3926,-0.2426,-0.1306,0.0634,-0.0186,-0.1817,0.0319,118,2019-08-07 16:58:17:112
2.9184,9.5968,-0.3926,-0.2426,-0.1306,0.0634,-0.0069,-0.0879,0.0106,124,2019-08-07 16:58:17:118
2.9184,9.5968,-0.3926,-0.2426,-0.1306,0.0634,-0.0069,-0.0879,0.0106,129,2019-08-07 16:58:17:123
2.7031,9.425,-0.303,-0.2426,-0.1306,0.0634,0.0027,-0.0208,-0.0043,133,2019-08-07 16:58:17:127
2.7031,9.425,-0.303,-0.0783,0.0025,-0.0391,0.0027,-0.0208,-0.0043,139,2019-08-07 16:58:17:133
2.7701,9.4679,-0.3878,-0.0783,0.0025,-0.0391,0.0017,-0.0059,-0.0043,144,2019-08-07 16:58:17:138
2.7701,9.4679,-0.3878,-0.0783,0.0025,-0.0391,0.0017,-0.0059,-0.0043,149,2019-08-07 16:58:17:143
2.7701,9.4679,-0.3878,-0.0783,0.0025,-0.0391,0.0017,-0.0059,-0.0043,154,2019-08-07 16:58:17:148
2.8467,9.7543,-0.4633,-0.2176,-0.3077,0.172,-0.0143,0.0047,-0.016,159,2019-08-07 16:58:17:153
2.8467,9.7543,-0.4633,-0.2176,-0.3077,0.172,-0.0303,0.0175,-0.0192,164,2019-08-07 16:58:17:158
2.8084,9.7209,-0.3973,-0.2176,-0.3077,0.172,-0.0303,0.0175,-0.0192,169,2019-08-07 16:58:17:163
2.8084,9.7209,-0.3973,-0.2176,-0.3077,0.172,-0.0303,0.0175,-0.0192,174,2019-08-07 16:58:17:168
2.8084,9.7209,-0.3973,-0.0767,-0.2113,0.2815,-0.041,0.0079,-0.0096,179,2019-08-07 16:58:17:173
2.6697,9.6875,-0.4774,-0.0767,-0.2113,0.2815,-0.041,0.0079,-0.0096,183,2019-08-07 16:58:17:177
2.6697,9.6875,-0.4774,-0.0767,-0.2113,0.2815,-0.0601,0.009,-0.0181,189,2019-08-07 16:58:17:183
2.4257,9.8307,-0.0437,-0.0767,-0.2113,0.2815,-0.0697,-0.0144,-0.0075,194,2019-08-07 16:58:17:188
2.4257,9.8307,-0.0437,0.1302,-0.2672,-0.2488,-0.0697,-0.0144,-0.0075,199,2019-08-07 16:58:17:193
2.4257,9.8307,-0.0437,0.1302,-0.2672,-0.2488,-0.0697,-0.0144,-0.0075,203,2019-08-07 16:58:17:197
2.5453,9.5061,-0.2653,0.1302,-0.2672,-0.2488,-0.0761,-0.0997,0.0106,209,2019-08-07 16:58:17:203
2.5453,9.5061,-0.2653,0.1302,-0.2672,-0.2488,-0.0761,-0.0997,0.0106,214,2019-08-07 16:58:17:208
2.5453,9.5061,-0.2653,-0.1945,-0.0762,0.1805,-0.0729,-0.0688,0.0074,218,2019-08-07 16:58:17:212
2.8324,9.5156,-0.3548,-0.1945,-0.0762,0.1805,-0.0729,-0.0688,0.0074,224,2019-08-07 16:58:17:218
2.8324,9.5156,-0.3548,-0.1945,-0.0762,0.1805,-0.0676,-0.0155,0.0021,229,2019-08-07 16:58:17:223
2.8372,9.6493,-0.1333,-0.1945,-0.0762,0.1805,-0.0676,-0.0155,0.0021,234,2019-08-07 16:58:17:228
2.8372,9.6493,-0.1333,-0.1748,-0.2574,-0.057,-0.0569,0.0356,-0.0149,239,2019-08-07 16:58:17:233
2.8372,9.6493,-0.1333,-0.1748,-0.2574,-0.057,-0.0569,0.0356,-0.0149,244,2019-08-07 16:58:17:238
2.7655,9.6684,-0.1945,-0.1748,-0.2574,-0.057,-0.0495,0.0772,-0.0256,249,2019-08-07 16:58:17:243
2.7655,9.6684,-0.1945,-0.1748,-0.2574,-0.057,-0.0495,0.0772,-0.0256,254,2019-08-07 16:58:17:248
2.7655,9.6684,-0.1945,-0.1748,-0.2574,-0.057,-0.0495,0.0772,-0.0256,259,2019-08-07 16:58:17:253
2.6315,9.6684,0.027,-0.0115,-0.2177,-0.2645,-0.0431,0.0814,-0.033,264,2019-08-07 16:58:17:258
2.6315,9.6684,0.027,-0.0115,-0.2177,-0.2645,-0.0431,0.0814,-0.033,269,2019-08-07 16:58:17:263
2.555,9.6684,0.2109,-0.0115,-0.2177,-0.2645,-0.0335,0.0655,-0.0224,273,2019-08-07 16:58:17:267
2.555,9.6684,0.2109,-0.0503,-0.2875,-0.449,-0.0335,0.0655,-0.0224,279,2019-08-07 16:58:17:273
2.555,9.6684,0.2109,-0.0503,-0.2875,-0.449,-0.0271,0.0516,-0.0139,283,2019-08-07 16:58:17:277
2.8086,9.7782,0.0789,-0.0503,-0.2875,-0.449,-0.0271,0.0516,-0.0139,289,2019-08-07 16:58:17:283
2.8086,9.7782,0.0789,-0.0503,-0.2875,-0.449,-0.0271,0.0516,-0.0139,293,2019-08-07 16:58:17:287
2.7655,9.8259,-0.0767,-0.1531,-0.3726,-0.1387,-0.0154,0.0463,-0.0203,299,2019-08-07 16:58:17:293
2.7655,9.8259,-0.0767,-0.1531,-0.3726,-0.1387,-0.0143,0.0708,-0.0256,304,2019-08-07 16:58:17:298
2.7655,9.8259,-0.0767,-0.1531,-0.3726,-0.1387,-0.0143,0.0708,-0.0256,308,2019-08-07 16:58:17:302
2.756,9.8307,-0.1757,-0.1531,-0.3726,-0.1387,-0.0143,0.0708,-0.0256,314,2019-08-07 16:58:17:308
2.756,9.8307,-0.1757,0.062,-0.4379,-0.1177,-0.0154,0.0793,-0.032,319,2019-08-07 16:58:17:313
2.756,9.8307,-0.1757,0.062,-0.4379,-0.1177,-0.0154,0.0793,-0.032,324,2019-08-07 16:58:17:318
2.5407,9.7066,-0.1002,0.062,-0.4379,-0.1177,-0.0303,0.0367,-0.0277,329,2019-08-07 16:58:17:323
2.5407,9.7066,-0.1002,0.062,-0.4379,-0.1177,-0.0303,0.0367,-0.0277,333,2019-08-07 16:58:17:327
2.4833,9.6732,-0.4538,0.062,-0.4379,-0.1177,-0.0442,-6.0E-4,-0.0288,339,2019-08-07 16:58:17:333
2.4833,9.6732,-0.4538,0.094,-0.1783,0.2474,-0.0442,-6.0E-4,-0.0288,344,2019-08-07 16:58:17:338
2.4833,9.6732,-0.4538,0.094,-0.1783,0.2474,-0.0623,-0.0112,-0.0309,349,2019-08-07 16:58:17:343
2.6891,9.6541,-0.4161,0.094,-0.1783,0.2474,-0.0623,-0.0112,-0.0309,354,2019-08-07 16:58:17:348
2.6891,9.6541,-0.4161,0.094,-0.1783,0.2474,-0.0793,-0.0261,-0.0352,359,2019-08-07 16:58:17:353
2.7321,9.74,-0.2699,-0.1129,-0.248,0.0831,-0.0793,-0.0261,-0.0352,364,2019-08-07 16:58:17:358
2.7321,9.74,-0.2699,-0.1129,-0.248,0.0831,-0.0878,-0.0379,-0.0426,368,2019-08-07 16:58:17:362
2.7321,9.74,-0.2699,-0.1129,-0.248,0.0831,-0.0878,-0.0379,-0.0426,374,2019-08-07 16:58:17:368
2.7369,9.697,-0.1568,-0.1129,-0.248,0.0831,-0.0932,-0.0368,-0.0533,378,2019-08-07 16:58:17:372
2.7369,9.697,-0.1568,-0.1593,-0.2169,0.0225,-0.0932,-0.0368,-0.0533,384,2019-08-07 16:58:17:378
2.6987,9.7257,-0.1615,-0.1593,-0.2169,0.0225,-0.1017,-0.0389,-0.0597,388,2019-08-07 16:58:17:382
2.6987,9.7257,-0.1615,-0.1593,-0.2169,0.0225,-0.1017,-0.0389,-0.0597,394,2019-08-07 16:58:17:388
2.6987,9.7257,-0.1615,-0.1593,-0.2169,0.0225,-0.1038,-0.0464,-0.0618,399,2019-08-07 16:58:17:393
2.6604,9.7686,-0.0059,-0.0844,-0.3042,-0.1527,-0.1038,-0.0464,-0.0618,403,2019-08-07 16:58:17:397
2.6604,9.7686,-0.0059,-0.0844,-0.3042,-0.1527,-0.1038,-0.0464,-0.0618,409,2019-08-07 16:58:17:403
2.6748,9.7591,-0.1191,-0.105,-0.2928,-0.0309,-0.1027,-0.0453,-0.065,414,2019-08-07 16:58:17:408
2.6748,9.7591,-0.1191,-0.105,-0.2928,-0.0309,-0.1027,-0.0453,-0.065,419,2019-08-07 16:58:17:413
2.6748,9.7591,-0.1191,-0.105,-0.2928,-0.0309,-0.1049,-0.0112,-0.0767,424,2019-08-07 16:58:17:418
2.737,9.8832,0.1638,-0.105,-0.2928,-0.0309,-0.1049,-0.0112,-0.0767,428,2019-08-07 16:58:17:422
2.737,9.8832,0.1638,-0.1908,-0.3603,-0.3407,-0.0942,-0.008,-0.081,434,2019-08-07 16:58:17:428
2.7992,9.7734,0.0648,-0.1908,-0.3603,-0.3407,-0.0942,-0.008,-0.081,438,2019-08-07 16:58:17:432
2.7992,9.7734,0.0648,-0.1908,-0.3603,-0.3407,-0.0825,0.0047,-0.0927,444,2019-08-07 16:58:17:438
2.7992,9.7734,0.0648,-0.1908,-0.3603,-0.3407,-0.0825,0.0047,-0.0927,448,2019-08-07 16:58:17:442
2.7897,9.6015,0.1119,-0.2494,-0.1268,-0.2237,-0.0676,0.041,-0.1012,454,2019-08-07 16:58:17:448
2.7897,9.6015,0.1119,-0.2494,-0.1268,-0.2237,-0.0676,0.041,-0.1012,460,2019-08-07 16:58:17:454
2.6796,9.4249,0.423,-0.2494,-0.1268,-0.2237,-0.0505,0.0516,-0.1097,464,2019-08-07 16:58:17:458
2.6796,9.4249,0.423,-0.2494,-0.1268,-0.2237,-0.0505,0.0516,-0.1097,469,2019-08-07 16:58:17:463
2.6796,9.4249,0.423,-0.2305,0.0695,-0.429,-0.0505,0.0516,-0.1097,473,2019-08-07 16:58:17:467
2.7945,9.444,0.291,-0.2305,0.0695,-0.429,-0.026,0.0335,-0.1151,479,2019-08-07 16:58:17:473
2.7945,9.444,0.291,-0.2305,0.0695,-0.429,-0.026,0.0335,-0.1151,483,2019-08-07 16:58:17:477
2.871,9.6302,0.3476,-0.2305,0.0695,-0.429,-0.0101,0.0548,-0.1289,489,2019-08-07 16:58:17:483
2.871,9.6302,0.3476,-0.3667,-0.173,-0.4534,0.0048,0.0793,-0.1449,494,2019-08-07 16:58:17:488
2.871,9.6302,0.3476,-0.3667,-0.173,-0.4534,0.0048,0.0793,-0.1449,499,2019-08-07 16:58:17:493
2.9141,9.9023,0.4325,-0.3667,-0.173,-0.4534,0.0048,0.0793,-0.1449,504,2019-08-07 16:58:17:498
2.9141,9.9023,0.4325,-0.3667,-0.173,-0.4534,0.0251,0.0772,-0.1705,508,2019-08-07 16:58:17:502
2.9141,9.9023,0.4325,-0.4669,-0.7097,-0.5806,0.0251,0.0772,-0.1705,513,2019-08-07 16:58:17:507
2.9524,10.2937,0.4702,-0.4669,-0.7097,-0.5806,0.0283,0.0655,-0.1939,519,2019-08-07 16:58:17:513
2.9524,10.2937,0.4702,-0.4669,-0.7097,-0.5806,0.0283,0.0655,-0.1939,523,2019-08-07 16:58:17:517
3.0194,10.604,-0.0955,-0.4669,-0.7097,-0.5806,0.0017,0.0996,-0.2259,529,2019-08-07 16:58:17:523
3.0194,10.604,-0.0955,-0.591,-1.1964,0.2935,0.0017,0.0996,-0.2259,533,2019-08-07 16:58:17:527
3.0194,10.604,-0.0955,-0.591,-1.1964,0.2935,-0.1049,0.3371,-0.3068,539,2019-08-07 16:58:17:533
3.0051,10.7759,-0.4396,-0.591,-1.1964,0.2935,-0.1049,0.3371,-0.3068,544,2019-08-07 16:58:17:538
3.0051,10.7759,-0.4396,-0.591,-1.1964,0.2935,-0.2561,0.5693,-0.3782,549,2019-08-07 16:58:17:543
2.5075,9.654,1.9833,-0.1361,-0.135,-2.0083,-0.2561,0.5693,-0.3782,553,2019-08-07 16:58:17:547
2.5075,9.654,1.9833,-0.1361,-0.135,-2.0083,-0.2561,0.5693,-0.3782,559,2019-08-07 16:58:17:553
2.5075,9.654,1.9833,-0.1361,-0.135,-2.0083,-0.1166,0.253,-0.4006,564,2019-08-07 16:58:17:558
1.833,9.7877,1.6062,-0.1361,-0.135,-2.0083,-0.1166,0.253,-0.4006,569,2019-08-07 16:58:17:563
1.833,9.7877,1.6062,0.3994,-0.2833,-1.3304,0.0038,-0.1199,-0.3185,574,2019-08-07 16:58:17:568
2.0244,9.7829,1.4224,0.3994,-0.2833,-1.3304,0.0038,-0.1199,-0.3185,579,2019-08-07 16:58:17:573
2.0244,9.7829,1.4224,0.3994,-0.2833,-1.3304,0.1124,-0.2552,-0.2855,584,2019-08-07 16:58:17:578
2.0244,9.7829,1.4224,0.3994,-0.2833,-1.3304,0.1124,-0.2552,-0.2855,589,2019-08-07 16:58:17:583
2.2444,10.1601,0.885,-0.0459,-0.6371,-0.8595,0.17,-0.2871,-0.2663,594,2019-08-07 16:58:17:588
2.2444,10.1601,0.885,-0.0459,-0.6371,-0.8595,0.17,-0.2871,-0.2663,599,2019-08-07 16:58:17:593
2.6081,10.4178,0.9369,-0.0459,-0.6371,-0.8595,0.2062,-0.3788,-0.2535,603,2019-08-07 16:58:17:597
2.6081,10.4178,0.9369,-0.0459,-0.6371,-0.8595,0.2062,-0.3788,-0.2535,609,2019-08-07 16:58:17:603
2.6081,10.4178,0.9369,-0.716,-1.2228,-1.5852,0.2243,-0.5226,-0.245,613,2019-08-07 16:58:17:607
2.9765,10.8188,1.6534,-0.716,-1.2228,-1.5852,0.2243,-0.5226,-0.245,619,2019-08-07 16:58:17:613
2.9765,10.8188,1.6534,-0.716,-1.2228,-1.5852,0.2349,-0.7239,-0.2333,624,2019-08-07 16:58:17:618
3.8329,10.857,3.3551,-0.716,-1.2228,-1.5852,0.2349,-0.7239,-0.2333,628,2019-08-07 16:58:17:622
3.8329,10.857,3.3551,-2.0044,-1.3097,-4.0279,0.2307,-1.0701,-0.2131,634,2019-08-07 16:58:17:628
3.8329,10.857,3.3551,-2.0044,-1.3097,-4.0279,0.2307,-1.0701,-0.2131,639,2019-08-07 16:58:17:633
4.7754,10.8809,3.9631,-2.0044,-1.3097,-4.0279,0.2307,-1.0701,-0.2131,644,2019-08-07 16:58:17:638
4.7754,10.8809,3.9631,-2.6882,-1.2641,-3.8283,0.2541,-1.2821,-0.1779,649,2019-08-07 16:58:17:643
4.6558,10.6279,2.8413,-2.6882,-1.2641,-3.8283,0.2541,-1.2821,-0.1779,654,2019-08-07 16:58:17:648
4.6558,10.6279,2.8413,-2.6882,-1.2641,-3.8283,0.2403,-0.9039,-0.1492,658,2019-08-07 16:58:17:652
4.6558,10.6279,2.8413,-1.5611,-1.0983,-4.142,0.2403,-0.9039,-0.1492,664,2019-08-07 16:58:17:658
3.3497,10.6565,4.4393,-1.5611,-1.0983,-4.142,0.1007,-0.6866,-0.1087,668,2019-08-07 16:58:17:662
3.3497,10.6565,4.4393,-1.5611,-1.0983,-4.142,0.1007,-0.6866,-0.1087,674,2019-08-07 16:58:17:668
1.9192,10.1028,5.8393,-1.5611,-1.0983,-4.142,-0.1539,-0.9252,0.0469,679,2019-08-07 16:58:17:673
1.9192,10.1028,5.8393,-1.5611,-1.0983,-4.142,-0.1539,-0.9252,0.0469,683,2019-08-07 16:58:17:677
1.9192,10.1028,5.8393,0.4393,-0.1748,-6.0281,-0.1539,-0.9252,0.0469,689,2019-08-07 16:58:17:683
1.7327,9.9882,5.9288,0.4393,-0.1748,-6.0281,-0.3041,-0.8389,0.2077,694,2019-08-07 16:58:17:688
1.7327,9.9882,5.9288,0.4393,-0.1748,-6.0281,-0.3041,-0.8389,0.2077,699,2019-08-07 16:58:17:693
1.7327,9.9882,5.9288,0.4393,-0.1748,-6.0281,-0.3041,-0.8389,0.2077,704,2019-08-07 16:58:17:698
4.2396,8.9666,6.0514,-1.8072,0.561,-6.3319,-0.4468,-0.8027,0.36,709,2019-08-07 16:58:17:703
4.2396,8.9666,6.0514,-1.8072,0.561,-6.3319,-0.4468,-0.8027,0.36,713,2019-08-07 16:58:17:707
4.2396,8.9666,6.0514,-1.8072,0.561,-6.3319,-0.5001,-0.5002,0.3078,719,2019-08-07 16:58:17:713
4.7611,9.401,5.3537,-1.8072,0.561,-6.3319,-0.5001,-0.5002,0.3078,723,2019-08-07 16:58:17:717
4.7611,9.401,5.3537,-2.6478,0.2337,-5.2083,-0.5065,0.0452,0.2844,729,2019-08-07 16:58:17:723
4.5841,9.2053,5.448,-2.6478,0.2337,-5.2083,-0.5065,0.0452,0.2844,733,2019-08-07 16:58:17:727
4.5841,9.2053,5.448,-2.6478,0.2337,-5.2083,-0.5448,0.613,0.212,739,2019-08-07 16:58:17:733
2.7422,9.3724,6.2211,-2.6478,0.2337,-5.2083,-0.5448,0.613,0.212,744,2019-08-07 16:58:17:738
2.7422,9.3724,6.2211,-0.1531,0.1577,-6.294,-0.6226,0.7344,0.2248,749,2019-08-07 16:58:17:743
2.7422,9.3724,6.2211,-0.1531,0.1577,-6.294,-0.6226,0.7344,0.2248,754,2019-08-07 16:58:17:748
1.6514,9.2339,6.8103,-0.1531,0.1577,-6.294,-0.6226,0.7344,0.2248,760,2019-08-07 16:58:17:754
1.6514,9.2339,6.8103,-0.1531,0.1577,-6.294,-0.743,0.6226,0.2535,763,2019-08-07 16:58:17:757
0.9769,9.1957,6.8433,1.2293,0.3531,-6.5095,-0.743,0.6226,0.2535,769,2019-08-07 16:58:17:763
0.9769,9.1957,6.8433,1.2293,0.3531,-6.5095,-0.8665,0.5374,0.2663,773,2019-08-07 16:58:17:767
0.8573,9.0716,6.7679,1.2293,0.3531,-6.5095,-0.8665,0.5374,0.2663,779,2019-08-07 16:58:17:773
0.8573,9.0716,6.7679,1.2293,0.3531,-6.5095,-0.9869,0.5001,0.2322,784,2019-08-07 16:58:17:778
0.8573,9.0716,6.7679,1.3644,0.6191,-6.3774,-0.9869,0.5001,0.2322,788,2019-08-07 16:58:17:782
1.1109,8.895,6.6359,1.3644,0.6191,-6.3774,-1.1052,0.4298,0.1544,794,2019-08-07 16:58:17:788
1.1109,8.895,6.6359,1.3644,0.6191,-6.3774,-1.1052,0.4298,0.1544,799,2019-08-07 16:58:17:793
1.1109,8.895,6.6359,1.3644,0.6191,-6.3774,-1.2458,0.3531,0.1023,803,2019-08-07 16:58:17:797
1.6993,9.3485,6.3295,0.6715,0.1308,-5.4585,-1.2458,0.3531,0.1023,809,2019-08-07 16:58:17:803
1.6993,9.3485,6.3295,0.6715,0.1308,-5.4585,-1.3661,0.2391,0.0948,814,2019-08-07 16:58:17:808
2.2735,9.8832,6.2353,0.6715,0.1308,-5.4585,-1.3661,0.2391,0.0948,819,2019-08-07 16:58:17:813
2.2735,9.8832,6.2353,0.6715,0.1308,-5.4585,-1.3661,0.2391,0.0948,824,2019-08-07 16:58:17:818
2.2735,9.8832,6.2353,-0.0453,-0.5543,-4.2652,-1.4492,0.1017,0.0788,829,2019-08-07 16:58:17:823
2.4218,10.098,5.1417,-0.0453,-0.5543,-4.2652,-1.4492,0.1017,0.0788,833,2019-08-07 16:58:17:827
2.4218,10.098,5.1417,-0.0453,-0.5543,-4.2652,-1.4982,0.0516,0.0682,839,2019-08-07 16:58:17:833
2.4218,10.098,5.1417,-0.0453,-0.5543,-4.2652,-1.4982,0.0516,0.0682,844,2019-08-07 16:58:17:838
2.3883,10.2364,5.3444,-0.0159,-0.835,-3.8683,-1.5377,-0.0741,0.0873,849,2019-08-07 16:58:17:843
2.3883,10.2364,5.3444,-0.0159,-0.835,-3.8683,-1.5377,-0.0741,0.0873,854,2019-08-07 16:58:17:848
2.5845,10.2603,5.0285,-0.0159,-0.835,-3.8683,-1.5377,-0.0741,0.0873,858,2019-08-07 16:58:17:852
2.5845,10.2603,5.0285,-0.0159,-0.835,-3.8683,-1.5781,-0.203,0.1342,864,2019-08-07 16:58:17:858
2.9242,10.0789,4.4016,-0.4286,-0.7676,-2.71,-1.5994,-0.2232,0.1758,869,2019-08-07 16:58:17:863
2.9242,10.0789,4.4016,-0.4286,-0.7676,-2.71,-1.5994,-0.2232,0.1758,873,2019-08-07 16:58:17:867
2.9242,10.0789,4.4016,-0.4286,-0.7676,-2.71,-1.5994,-0.2232,0.1758,879,2019-08-07 16:58:17:873
3.1108,9.8354,3.5343,-0.4286,-0.7676,-2.71,-1.6197,-0.1391,0.2184,883,2019-08-07 16:58:17:877
3.1108,9.8354,3.5343,-0.7262,-0.52,-1.4266,-1.6197,-0.1391,0.2184,889,2019-08-07 16:58:17:883
3.2352,9.8211,3.638,-0.7262,-0.52,-1.4266,-1.6325,0.0655,0.2311,894,2019-08-07 16:58:17:888
3.2352,9.8211,3.638,-0.7262,-0.52,-1.4266,-1.6325,0.0655,0.2311,899,2019-08-07 16:58:17:893
3.2352,9.8211,3.638,-0.7262,-0.52,-1.4266,-1.6239,0.156,0.229,903,2019-08-07 16:58:17:897
3.4488,9.9454,3.911,-0.9407,-0.7768,-1.4855,-1.6239,0.156,0.229,909,2019-08-07 16:58:17:903
3.4488,9.9454,3.911,-0.9407,-0.7768,-1.4855,-1.6069,0.1997,0.2226,914,2019-08-07 16:58:17:908
3.4488,9.9454,3.911,-0.9407,-0.7768,-1.4855,-1.6069,0.1997,0.2226,919,2019-08-07 16:58:17:913
3.8267,10.0552,3.5292,-0.9407,-0.7768,-1.4855,-1.5536,0.3627,0.2066,924,2019-08-07 16:58:17:918
3.8267,10.0552,3.5292,-1.3633,-0.7733,-0.6091,-1.5536,0.3627,0.2066,929,2019-08-07 16:58:17:923
3.8458,9.7067,3.2699,-1.3633,-0.7733,-0.6091,-1.4844,0.597,0.2024,934,2019-08-07 16:58:17:928
3.8458,9.7067,3.2699,-1.3633,-0.7733,-0.6091,-1.4844,0.597,0.2024,939,2019-08-07 16:58:17:933
3.6162,9.4107,3.2652,-1.3633,-0.7733,-0.6091,-1.4354,0.8303,0.1917,944,2019-08-07 16:58:17:938
3.6162,9.4107,3.2652,-0.8721,-0.3657,-0.4978,-1.4354,0.8303,0.1917,948,2019-08-07 16:58:17:942
3.6162,9.4107,3.2652,-0.8721,-0.3657,-0.4978,-1.4354,0.8303,0.1917,954,2019-08-07 16:58:17:948
3.6162,9.4107,3.2652,-0.8721,-0.3657,-0.4978,-1.4056,0.9198,0.1779,959,2019-08-07 16:58:17:953
3.0564,9.4966,3.7036,-0.8721,-0.3657,-0.4978,-1.4056,0.9198,0.1779,963,2019-08-07 16:58:17:957
3.0564,9.4966,3.7036,-0.2259,-0.5286,0.2508,-1.3821,0.8612,0.1821,969,2019-08-07 16:58:17:963
2.6928,9.2532,2.874,-0.2259,-0.5286,0.2508,-1.3821,0.8612,0.1821,973,2019-08-07 16:58:17:967
2.6928,9.2532,2.874,-0.2259,-0.5286,0.2508,-1.3651,0.8229,0.2034,979,2019-08-07 16:58:17:973
2.6928,9.2532,2.874,-0.2259,-0.5286,0.2508,-1.3651,0.8229,0.2034,984,2019-08-07 16:58:17:978
2.7311,8.7949,2.643,-0.2558,0.0686,1.0771,-1.3235,0.808,0.2056,989,2019-08-07 16:58:17:983
2.7311,8.7949,2.643,-0.2558,0.0686,1.0771,-1.3235,0.808,0.2056,995,2019-08-07 16:58:17:989
2.6785,8.4989,2.016,-0.2558,0.0686,1.0771,-1.2905,0.8165,0.2077,998,2019-08-07 16:58:17:992
2.6785,8.4989,2.016,-0.2558,0.0686,1.0771,-1.2905,0.8165,0.2077,1003,2019-08-07 16:58:17:997
2.6785,8.4989,2.016,-0.2558,0.0686,1.0771,-1.2905,0.8165,0.2077,1009,2019-08-07 16:58:18:003
2.4536,8.0263,1.6672,-0.0532,0.4939,2.1929,-1.2522,0.8633,0.2098,1014,2019-08-07 16:58:18:008
2.4536,8.0263,1.6672,-0.0532,0.4939,2.1929,-1.2522,0.8633,0.2098,1019,2019-08-07 16:58:18:013
2.4536,7.4964,1.1864,-0.0532,0.4939,2.1929,-1.2021,0.9337,0.2056,1023,2019-08-07 16:58:18:017
2.0661,7.4964,1.1864,-0.0532,0.4939,2.1929,-1.2021,0.9337,0.2056,1029,2019-08-07 16:58:18:023
2.0661,7.4964,1.1864,0.5316,1.2289,3.1343,-1.1542,0.9869,0.1843,1033,2019-08-07 16:58:18:027
1.8077,7.0381,0.8282,0.5316,1.2289,3.1343,-1.1542,0.9869,0.1843,1039,2019-08-07 16:58:18:033
1.8077,7.0381,0.8282,0.5316,1.2289,3.1343,-1.0743,0.9614,0.1491,1044,2019-08-07 16:58:18:038
1.8077,7.0381,0.8282,0.5316,1.2289,3.1343,-1.0743,0.9614,0.1491,1048,2019-08-07 16:58:18:042
1.4106,6.766,0.0598,0.9735,1.7073,4.2709,-0.9816,0.9518,0.1363,1054,2019-08-07 16:58:18:048
1.4106,6.766,0.0598,0.9735,1.7073,4.2709,-0.9816,0.9518,0.1363,1059,2019-08-07 16:58:18:053
1.535,6.6371,-0.4728,0.9735,1.7073,4.2709,-0.9816,0.9518,0.1363,1064,2019-08-07 16:58:18:058
1.535,6.6371,-0.4728,0.9735,1.7073,4.2709,-0.8484,1.0136,0.1044,1068,2019-08-07 16:58:18:062
1.535,6.6371,-0.4728,0.832,1.8227,5.2232,-0.8484,1.0136,0.1044,1074,2019-08-07 16:58:18:068
1.3723,6.4318,-0.9772,0.832,1.8227,5.2232,-0.6737,1.0519,0.0767,1079,2019-08-07 16:58:18:073
1.3723,6.4318,-0.9772,0.832,1.8227,5.2232,-0.6737,1.0519,0.0767,1083,2019-08-07 16:58:18:077
1.3723,6.4318,-0.9772,0.832,1.8227,5.2232,-0.4543,1.0551,0.0479,1089,2019-08-07 16:58:18:083
1.3054,5.7253,-1.953,0.9315,2.6417,6.5601,-0.4543,1.0551,0.0479,1094,2019-08-07 16:58:18:088
1.3054,5.7253,-1.953,0.9315,2.6417,6.5601,-0.2412,1.0668,0.0138,1099,2019-08-07 16:58:18:093
1.1523,5.8208,-3.6547,0.9315,2.6417,6.5601,-0.2412,1.0668,0.0138,1104,2019-08-07 16:58:18:098
1.1523,5.8208,-3.6547,0.9315,2.6417,6.5601,-0.2412,1.0668,0.0138,1109,2019-08-07 16:58:18:103
1.1523,5.8208,-3.6547,0.9205,2.6183,8.7139,-0.0442,1.1659,-0.0277,1114,2019-08-07 16:58:18:108
1.224,5.9401,-3.8904,0.9205,2.6183,8.7139,-0.0442,1.1659,-0.0277,1119,2019-08-07 16:58:18:113
1.224,5.9401,-3.8904,0.9205,2.6183,8.7139,0.3234,1.2426,-0.0703,1123,2019-08-07 16:58:18:117
1.291,5.8256,-5.8796,0.9205,2.6183,8.7139,0.3234,1.2426,-0.0703,1129,2019-08-07 16:58:18:123
1.291,5.8256,-5.8796,0.6471,2.656,10.6586,0.4959,1.2628,-0.0671,1134,2019-08-07 16:58:18:128
1.291,5.8256,-5.8796,0.6471,2.656,10.6586,0.4959,1.2628,-0.0671,1138,2019-08-07 16:58:18:132
1.5493,5.7015,-5.1867,0.6471,2.656,10.6586,0.5503,1.2607,-0.1076,1144,2019-08-07 16:58:18:138
1.5493,5.7015,-5.1867,0.6471,2.656,10.6586,0.5503,1.2607,-0.1076,1149,2019-08-07 16:58:18:143
1.5493,5.7015,-5.1867,0.8042,3.1908,8.9725,0.5503,1.2607,-0.1076,1153,2019-08-07 16:58:18:147
0.8652,5.3005,-4.1873,0.8042,3.1908,8.9725,0.6057,1.2863,-0.2216,1159,2019-08-07 16:58:18:153
0.8652,5.3005,-4.1873,0.8042,3.1908,8.9725,0.6057,1.2863,-0.2216,1164,2019-08-07 16:58:18:158
-0.0486,5.205,8.6436,0.8042,3.1908,8.9725,0.6557,1.2724,-0.3334,1169,2019-08-07 16:58:18:163
-0.0486,5.205,8.6436,2.0322,4.3269,-6.3284,0.6557,1.2724,-0.3334,1174,2019-08-07 16:58:18:168
-0.0486,5.205,8.6436,2.0322,4.3269,-6.3284,1.4845,-0.1806,-0.3462,1179,2019-08-07 16:58:18:173
5.482,11.4587,6.7958,-3.7807,-2.7992,-2.5116,1.4845,-0.1806,-0.3462,1184,2019-08-07 16:58:18:178
5.482,11.4587,6.7958,-3.7807,-2.7992,-2.5116,0.5087,-3.2997,-0.3856,1189,2019-08-07 16:58:18:183
5.482,11.4587,6.7958,-3.7807,-2.7992,-2.5116,0.5087,-3.2997,-0.3856,1194,2019-08-07 16:58:18:188
2.7262,15.0056,46.9103,-3.7807,-2.7992,-2.5116,1.7647,-4.4513,-0.2429,1199,2019-08-07 16:58:18:193
2.7262,15.0056,46.9103,1.6299,-9.1236,13.4719,1.7647,-4.4513,-0.2429,1203,2019-08-07 16:58:18:197
2.7262,15.0056,46.9103,1.6299,-9.1236,13.4719,1.7647,-4.4513,-0.2429,1209,2019-08-07 16:58:18:203
2.7549,29.0407,-14.4352,1.6299,-9.1236,13.4719,2.9322,-0.399,-0.0874,1214,2019-08-07 16:58:18:208
2.7549,29.0407,-14.4352,1.6299,-9.1236,13.4719,2.9322,-0.399,-0.0874,1219,2019-08-07 16:58:18:213
2.7549,29.0407,-14.4352,-1.6727,-16.2953,23.2923,3.9431,1.8306,-0.5966,1223,2019-08-07 16:58:18:217
1.7981,22.3716,-22.4675,-1.6727,-16.2953,23.2923,3.9431,1.8306,-0.5966,1229,2019-08-07 16:58:18:223
1.7981,22.3716,-22.4675,4.9525,-10.4316,24.626,3.3338,3.3124,-0.75,1234,2019-08-07 16:58:18:228
-2.2685,17.34,6.5979,4.9525,-10.4316,24.626,3.3338,3.3124,-0.75,1239,2019-08-07 16:58:18:233
-2.2685,17.34,6.5979,4.9525,-10.4316,24.626,1.2544,-1.7647,0.6168,1244,2019-08-07 16:58:18:238
-2.2685,17.34,6.5979,4.9525,-10.4316,24.626,1.2544,-1.7647,0.6168,1249,2019-08-07 16:58:18:243
-1.991,14.2323,0.4322,-0.1218,-3.3546,-1.1178,2.766,-4.284,0.9118,1254,2019-08-07 16:58:18:248
-1.991,14.2323,0.4322,-0.1218,-3.3546,-1.1178,2.766,-4.284,0.9118,1259,2019-08-07 16:58:18:253
-1.991,14.2323,0.4322,-0.1218,-3.3546,-1.1178,2.766,-4.284,0.9118,1263,2019-08-07 16:58:18:257
4.4677,7.2339,-17.485,-0.1218,-3.3546,-1.1178,2.9397,0.4617,0.2194,1269,2019-08-07 16:58:18:263
4.4677,7.2339,-17.485,-8.2467,9.1716,8.3443,2.9397,0.4617,0.2194,1273,2019-08-07 16:58:18:267
8.3142,0.3452,-3.5416,-8.2467,9.1716,8.3443,1.3684,-0.6291,0.05,1279,2019-08-07 16:58:18:273
8.3142,0.3452,-3.5416,-8.2467,9.1716,8.3443,1.3684,-0.6291,0.05,1284,2019-08-07 16:58:18:278
8.3142,0.3452,-3.5416,-8.2467,9.1716,8.3443,0.9402,-1.4493,0.3845,1289,2019-08-07 16:58:18:283
0.7551,12.9242,-12.5496,0.7924,-4.0678,14.7076,0.9402,-1.4493,0.3845,1294,2019-08-07 16:58:18:288
0.7551,12.9242,-12.5496,0.7924,-4.0678,14.7076,0.9402,-1.4493,0.3845,1299,2019-08-07 16:58:18:293
-1.9337,18.9727,0.1305,0.7924,-4.0678,14.7076,0.1519,0.9166,-0.1065,1303,2019-08-07 16:58:18:297
-1.9337,18.9727,0.1305,0.7924,-4.0678,14.7076,0.1519,0.9166,-0.1065,1309,2019-08-07 16:58:18:303
-1.9337,18.9727,0.1305,1.5819,-7.1549,4.5825,0.5268,0.7867,-0.0394,1313,2019-08-07 16:58:18:307
1.3101,15.6596,-6.582,1.5819,-7.1549,4.5825,0.5268,0.7867,-0.0394,1319,2019-08-07 16:58:18:313
1.3101,15.6596,-6.582,1.5819,-7.1549,4.5825,0.0315,-1.0339,0.4133,1323,2019-08-07 16:58:18:317
1.3101,15.6596,-6.582,1.5819,-7.1549,4.5825,0.0315,-1.0339,0.4133,1329,2019-08-07 16:58:18:323
2.6353,9.6685,1.9972,1.4505,-1.0782,5.1745,-0.1677,-1.3631,0.0426,1334,2019-08-07 16:58:18:328
2.6353,9.6685,1.9972,1.4505,-1.0782,5.1745,-0.1677,-1.3631,0.0426,1339,2019-08-07 16:58:18:333
2.6353,9.6685,1.9972,1.4505,-1.0782,5.1745,-0.1677,-1.3631,0.0426,1343,2019-08-07 16:58:18:337
1.8267,12.2846,-7.7321,1.4505,-1.0782,5.1745,-0.531,0.4639,0.164,1349,2019-08-07 16:58:18:343
1.8267,12.2846,-7.7321,-9.0E-4,-1.8928,0.9879,-0.6545,0.58,0.1853,1354,2019-08-07 16:58:18:348
2.0038,11.22,-1.2601,-9.0E-4,-1.8928,0.9879,-0.6545,0.58,0.1853,1358,2019-08-07 16:58:18:352
2.0038,11.22,-1.2601,-9.0E-4,-1.8928,0.9879,-0.6545,0.58,0.1853,1365,2019-08-07 16:58:18:359
1.4966,11.726,-1.6325,-9.0E-4,-1.8928,0.9879,-1.0796,-0.2072,0.082,1369,2019-08-07 16:58:18:363
1.4966,11.726,-1.6325,-9.0E-4,-1.8928,0.9879,-1.0796,-0.2072,0.082,1373,2019-08-07 16:58:18:367
1.4966,11.726,-1.6325,0.458,-2.3698,3.7288,-1.429,-0.9199,0.0437,1379,2019-08-07 16:58:18:373
2.2812,12.1461,-3.617,0.458,-2.3698,3.7288,-1.429,-0.9199,0.0437,1384,2019-08-07 16:58:18:378
2.2812,12.1461,-3.617,0.458,-2.3698,3.7288,-1.429,-0.9199,0.0437,1388,2019-08-07 16:58:18:382
4.1327,12.4278,-5.3564,0.458,-2.3698,3.7288,-1.7198,-0.3819,0.0213,1394,2019-08-07 16:58:18:388
4.1327,12.4278,-5.3564,-2.2475,-3.1651,7.3863,-1.8647,0.1049,-0.0064,1399,2019-08-07 16:58:18:393
4.1327,12.4278,-5.3564,-2.2475,-3.1651,7.3863,-1.8647,0.1049,-0.0064,1404,2019-08-07 16:58:18:398
4.3863,13.4207,-4.7719,-2.2475,-3.1651,7.3863,-1.8647,0.1049,-0.0064,1409,2019-08-07 16:58:18:403
4.3863,13.4207,-4.7719,-2.2475,-3.1651,7.3863,-2.1022,0.5757,-0.033,1414,2019-08-07 16:58:18:408
4.3863,13.4207,-4.7719,-1.5604,-4.4338,6.3968,-2.1022,0.5757,-0.033,1418,2019-08-07 16:58:18:412
3.4677,13.8265,-3.9328,-1.5604,-4.4338,6.3968,-2.2674,0.7004,0.0298,1424,2019-08-07 16:58:18:418
3.4677,13.8265,-3.9328,-1.2057,-4.7296,6.0238,-2.2674,0.7004,0.0298,1429,2019-08-07 16:58:18:423
3.0897,13.7644,-2.3018,-1.2057,-4.7296,6.0238,-2.4474,0.6375,0.1193,1433,2019-08-07 16:58:18:427
3.0897,13.7644,-2.3018,-1.2057,-4.7296,6.0238,-2.4474,0.6375,0.1193,1439,2019-08-07 16:58:18:433
3.0897,13.7644,-2.3018,-1.2057,-4.7296,6.0238,-2.556,0.5374,0.1363,1444,2019-08-07 16:58:18:438
1.664,13.2632,-0.8688,0.1705,-4.289,4.5689,-2.556,0.5374,0.1363,1448,2019-08-07 16:58:18:442
1.664,13.2632,-0.8688,0.1705,-4.289,4.5689,-2.6796,0.3936,0.1992,1454,2019-08-07 16:58:18:448
1.664,13.2632,-0.8688,0.1705,-4.289,4.5689,-2.6796,0.3936,0.1992,1459,2019-08-07 16:58:18:453
1.2143,12.3753,3.7507,0.1705,-4.289,4.5689,-2.6732,0.0229,0.2929,1464,2019-08-07 16:58:18:458
1.2143,12.3753,3.7507,0.6676,-1.979,-2.0066,-2.6732,0.0229,0.2929,1468,2019-08-07 16:58:18:462
1.9559,7.9786,5.4571,0.6676,-1.979,-2.0066,-2.588,-0.7441,0.3004,1474,2019-08-07 16:58:18:468
1.9559,7.9786,5.4571,0.6676,-1.979,-2.0066,-2.588,-0.7441,0.3004,1479,2019-08-07 16:58:18:473
1.9559,7.9786,5.4571,0.6676,-1.979,-2.0066,-2.6604,-1.5718,0.3078,1484,2019-08-07 16:58:18:478
3.5729,8.222,3.8261,-1.28,0.4574,0.1293,-2.6604,-1.5718,0.3078,1489,2019-08-07 16:58:18:483
3.5729,8.222,3.8261,-1.28,0.4574,0.1293,-2.4591,-1.2768,0.3185,1494,2019-08-07 16:58:18:488
5.3383,10.862,1.3749,-2.9477,-2.2934,2.7604,-2.4591,-1.2768,0.3185,1499,2019-08-07 16:58:18:493
5.3383,10.862,1.3749,-2.9477,-2.2934,2.7604,-2.4591,-1.2768,0.3185,1503,2019-08-07 16:58:18:497
5.3383,10.862,1.3749,-2.9477,-2.2934,2.7604,-1.9691,0.1091,0.1097,1509,2019-08-07 16:58:18:503
4.0801,12.17,0.1163,-2.9477,-2.2934,2.7604,-1.9691,0.1091,0.1097,1514,2019-08-07 16:58:18:508
4.0801,12.17,0.1163,1.3498,-3.1856,1.6344,-1.495,0.7504,0.0458,1519,2019-08-07 16:58:18:513
0.7454,8.9429,1.9547,1.3498,-3.1856,1.6344,-1.495,0.7504,0.0458,1524,2019-08-07 16:58:18:518
0.7454,8.9429,1.9547,1.3498,-3.1856,1.6344,-0.8442,0.3456,0.0809,1529,2019-08-07 16:58:18:523
0.7454,8.9429,1.9547,1.3498,-3.1856,1.6344,-0.8442,0.3456,0.0809,1533,2019-08-07 16:58:18:527
1.4104,8.2364,-5.2857,0.9914,0.0947,9.8748,-0.1528,-0.514,-0.0117,1539,2019-08-07 16:58:18:533
1.4104,8.2364,-5.2857,0.9914,0.0947,9.8748,-0.1528,-0.514,-0.0117,1544,2019-08-07 16:58:18:538
1.4104,8.2364,-4.3712,0.9914,0.0947,9.8748,0.2648,-1.7647,-0.0522,1549,2019-08-07 16:58:18:543
-1.7759,8.3939,-4.3712,0.9914,0.0947,9.8748,0.2648,-1.7647,-0.0522,1554,2019-08-07 16:58:18:548
-1.7759,8.3939,-4.3712,4.3326,1.5313,6.3784,0.2648,-1.7647,-0.0522,1558,2019-08-07 16:58:18:552
-1.0535,6.556,-4.8567,4.3326,1.5313,6.3784,0.6089,-4.1146,0.0703,1565,2019-08-07 16:58:18:559
-1.0535,6.556,-4.8567,4.3326,1.5313,6.3784,0.6089,-4.1146,0.0703,1568,2019-08-07 16:58:18:562
-1.0535,6.556,-4.8567,4.3326,1.5313,6.3784,1.036,-4.6387,-0.1385,1574,2019-08-07 16:58:18:568
2.5491,6.9522,0.9601,0.4582,1.6402,5.4233,1.036,-4.6387,-0.1385,1578,2019-08-07 16:58:18:572
2.5491,6.9522,0.9601,0.4582,1.6402,5.4233,1.689,-3.8888,-0.3121,1584,2019-08-07 16:58:18:578
4.8072,7.7542,-10.6594,0.4582,1.6402,5.4233,1.689,-3.8888,-0.3121,1589,2019-08-07 16:58:18:583
4.8072,7.7542,-10.6594,0.4582,1.6402,5.4233,1.9916,-1.1777,-0.3111,1593,2019-08-07 16:58:18:587
6.1659,9.4107,-6.5019,-3.8496,-0.5888,11.9088,1.9916,-1.1777,-0.3111,1599,2019-08-07 16:58:18:593
6.1659,9.4107,-6.5019,-3.8496,-0.5888,11.9088,1.9916,-1.1777,-0.3111,1603,2019-08-07 16:58:18:597
6.1659,9.4107,-6.5019,-3.8496,-0.5888,11.9088,2.2451,1.3278,-0.5614,1609,2019-08-07 16:58:18:603
3.104,9.912,2.0019,-3.8496,-0.5888,11.9088,2.2451,1.3278,-0.5614,1614,2019-08-07 16:58:18:608
3.104,9.912,2.0019,0.9383,-1.6055,2.9566,2.5902,1.2841,-0.5497,1618,2019-08-07 16:58:18:612
3.104,9.912,2.0019,0.9383,-1.6055,2.9566,2.5902,1.2841,-0.5497,1624,2019-08-07 16:58:18:618
1.0707,11.0529,0.1965,0.9383,-1.6055,2.9566,2.5753,0.6258,-0.5145,1629,2019-08-07 16:58:18:623
1.0707,11.0529,0.1965,0.9383,-1.6055,2.9566,2.5753,0.6258,-0.5145,1634,2019-08-07 16:58:18:628
1.0707,11.0529,0.1965,1.6599,-1.7859,3.3482,2.7404,0.6226,-0.5007,1639,2019-08-07 16:58:18:633
1.3434,10.8858,-1.048,1.6599,-1.7859,3.3482,2.7404,0.6226,-0.5007,1644,2019-08-07 16:58:18:638
1.3434,10.8858,-1.048,1.6599,-1.7859,3.3482,2.7905,0.9134,-0.4378,1649,2019-08-07 16:58:18:643
1.9797,10.375,0.4887,1.6599,-1.7859,3.3482,2.7905,0.9134,-0.4378,1654,2019-08-07 16:58:18:648
1.9797,10.375,0.4887,1.6599,-1.7859,3.3482,2.7905,0.9134,-0.4378,1658,2019-08-07 16:58:18:652
1.2525,10.313,0.7574,0.9002,-1.0329,1.3793,2.8491,0.9528,-0.4528,1664,2019-08-07 16:58:18:658
1.2525,10.313,0.7574,0.9002,-1.0329,1.3793,2.8491,0.9528,-0.4528,1668,2019-08-07 16:58:18:662
1.2525,10.313,0.7574,0.9002,-1.0329,1.3793,2.8544,0.6578,-0.4591,1674,2019-08-07 16:58:18:668
0.5397,10.2461,1.5163,1.9439,-0.7899,-0.1276,2.8544,0.6578,-0.4591,1678,2019-08-07 16:58:18:672
0.5397,10.2461,1.5163,1.9439,-0.7899,-0.1276,2.848,0.3115,-0.4485,1684,2019-08-07 16:58:18:678
0.5397,10.2461,1.5163,1.9439,-0.7899,-0.1276,2.848,0.3115,-0.4485,1689,2019-08-07 16:58:18:683
0.7645,9.616,2.8551,1.9439,-0.7899,-0.1276,2.8289,-0.0315,-0.4581,1694,2019-08-07 16:58:18:688
0.7645,9.616,2.8551,1.5064,-0.4288,-1.0564,2.8289,-0.0315,-0.4581,1699,2019-08-07 16:58:18:693
0.9511,10.0982,1.8133,1.5064,-0.4288,-1.0564,2.6627,-0.1295,-0.4251,1704,2019-08-07 16:58:18:698
0.9511,10.0982,1.8133,1.5064,-0.4288,-1.0564,2.6627,-0.1295,-0.4251,1709,2019-08-07 16:58:18:703
0.9511,10.0982,1.8133,0.9677,-0.7443,-1.0976,2.6627,-0.1295,-0.4251,1714,2019-08-07 16:58:18:708
1.5156,10.1936,2.5628,0.9677,-0.7443,-1.0976,2.4507,-0.0325,-0.4272,1719,2019-08-07 16:58:18:713
1.5156,10.1936,2.5628,0.9677,-0.7443,-1.0976,2.4507,-0.0325,-0.4272,1724,2019-08-07 16:58:18:718
1.4582,10.1841,3.2934,0.687,-0.7226,-2.7699,2.2195,-0.154,-0.4101,1729,2019-08-07 16:58:18:723
1.4582,10.1841,3.2934,0.687,-0.7226,-2.7699,2.2195,-0.154,-0.4101,1734,2019-08-07 16:58:18:728
1.4582,10.1841,3.2934,0.687,-0.7226,-2.7699,2.2195,-0.154,-0.4101,1739,2019-08-07 16:58:18:733
2.0802,10.2987,2.987,0.687,-0.7226,-2.7699,1.9426,-0.2062,-0.3856,1744,2019-08-07 16:58:18:738
2.0802,10.2987,2.987,0.687,-0.7226,-2.7699,1.9426,-0.2062,-0.3856,1749,2019-08-07 16:58:18:743
2.4246,10.4323,3.7601,-0.1851,-0.754,-3.7013,1.7913,-0.1433,-0.408,1754,2019-08-07 16:58:18:748
2.4246,10.4323,3.7601,-0.1851,-0.754,-3.7013,1.7913,-0.1433,-0.408,1759,2019-08-07 16:58:18:753
2.4246,10.4323,3.7601,-0.1851,-0.754,-3.7013,1.672,-0.122,-0.3899,1764,2019-08-07 16:58:18:758
2.5394,10.418,3.7554,-0.3755,-0.8273,-4.1199,1.672,-0.122,-0.3899,1769,2019-08-07 16:58:18:763
2.5394,10.418,3.7554,-0.3755,-0.8273,-4.1199,1.5367,0.0154,-0.3707,1774,2019-08-07 16:58:18:768
2.5394,10.418,3.7554,-0.3755,-0.8273,-4.1199,1.5367,0.0154,-0.3707,1779,2019-08-07 16:58:18:773
2.0754,10.2605,3.9722,-0.0234,-0.6766,-4.3892,1.4451,0.1326,-0.3239,1784,2019-08-07 16:58:18:778
2.0754,10.2605,3.9722,-0.0234,-0.6766,-4.3892,1.4451,0.1326,-0.3239,1788,2019-08-07 16:58:18:782
1.9223,10.2032,4.2362,-0.0234,-0.6766,-4.3892,1.3599,0.0846,-0.2631,1794,2019-08-07 16:58:18:788
1.9223,10.2032,4.2362,-0.0234,-0.6766,-4.3892,1.3599,0.0846,-0.2631,1799,2019-08-07 16:58:18:793
1.9223,10.2032,4.2362,0.0402,-0.6109,-4.7542,1.3599,0.0846,-0.2631,1804,2019-08-07 16:58:18:798
1.9223,10.2032,4.2362,0.0402,-0.6109,-4.7542,1.2778,-0.0272,-0.1726,1808,2019-08-07 16:58:18:802
2.2141,10.0075,3.8119,0.0402,-0.6109,-4.7542,1.2778,-0.0272,-0.1726,1815,2019-08-07 16:58:18:809
2.2141,10.0075,3.8119,0.0402,-0.6109,-4.7542,1.2406,-0.0166,-0.1215,1819,2019-08-07 16:58:18:813
2.5681,9.5587,3.6611,-0.6622,-0.0586,-4.4678,1.2406,-0.0166,-0.1215,1823,2019-08-07 16:58:18:817
2.5681,9.5587,3.6611,-0.6622,-0.0586,-4.4678,1.2171,0.0729,-0.1065,1829,2019-08-07 16:58:18:823
2.3911,9.4919,3.5951,-0.4115,0.1243,-4.7139,1.2171,0.0729,-0.1065,1834,2019-08-07 16:58:18:828
2.3911,9.4919,3.5951,-0.4115,0.1243,-4.7139,1.2523,0.1166,-0.0352,1839,2019-08-07 16:58:18:833
2.3911,9.4919,3.5951,-0.4115,0.1243,-4.7139,1.2523,0.1166,-0.0352,1843,2019-08-07 16:58:18:837
2.9939,10.819,5.9002,-0.4115,0.1243,-4.7139,1.2523,0.1166,-0.0352,1848,2019-08-07 16:58:18:842
2.9939,10.819,5.9002,-0.9965,-0.2358,-8.4536,1.0307,0.0484,0.0682,1854,2019-08-07 16:58:18:848
2.9939,10.819,5.9002,-0.9965,-0.2358,-8.4536,1.0307,0.0484,0.0682,1859,2019-08-07 16:58:18:853
2.7451,8.1409,5.6173,-0.9965,-0.2358,-8.4536,1.1191,0.3137,0.0682,1864,2019-08-07 16:58:18:858
2.7451,8.1409,5.6173,-0.9965,-0.2358,-8.4536,1.1191,0.3137,0.0682,1868,2019-08-07 16:58:18:862
3.4819,10.5755,4.651,-1.4879,-1.0576,-5.943,0.8645,0.6162,0.0522,1874,2019-08-07 16:58:18:868
3.4819,10.5755,4.651,-1.4879,-1.0576,-5.943,0.8645,0.6162,0.0522,1878,2019-08-07 16:58:18:872
3.1709,10.3321,16.2705,-1.4879,-1.0576,-5.943,0.1348,0.5608,0.2514,1884,2019-08-07 16:58:18:878
3.1709,10.3321,16.2705,-1.4879,-1.0576,-5.943,0.1348,0.5608,0.2514,1889,2019-08-07 16:58:18:883
3.1709,10.3321,16.2705,-1.4879,-1.0576,-5.943,-0.1411,0.9582,0.4229,1893,2019-08-07 16:58:18:887
3.0944,9.7401,11.9715,-1.2781,1.4586,-11.0841,-0.1411,0.9582,0.4229,1899,2019-08-07 16:58:18:893
3.0944,9.7401,11.9715,-1.2781,1.4586,-11.0841,-0.1411,0.9582,0.4229,1904,2019-08-07 16:58:18:898
3.0944,9.7401,11.9715,-1.2781,1.4586,-11.0841,-0.9656,1.2692,0.3675,1908,2019-08-07 16:58:18:902
2.1525,10.5278,22.639,0.4517,-1.3607,-25.0931,-0.9656,1.2692,0.3675,1914,2019-08-07 16:58:18:908
2.1525,10.5278,22.639,0.4517,-1.3607,-25.0931,-1.6623,0.5917,0.2216,1919,2019-08-07 16:58:18:913
1.875,11.8644,25.0619,0.4517,-1.3607,-25.0931,-1.6623,0.5917,0.2216,1924,2019-08-07 16:58:18:918
1.875,11.8644,25.0619,0.4517,-1.3607,-25.0931,-2.2098,-0.0198,0.3078,1929,2019-08-07 16:58:18:923
1.875,11.8644,25.0619,-2.9207,-0.7757,-4.5636,-2.2098,-0.0198,0.3078,1934,2019-08-07 16:58:18:928
5.9799,10.4275,0.8471,-2.9207,-0.7757,-4.5636,-2.229,-0.4278,0.6849,1939,2019-08-07 16:58:18:933
5.9799,10.4275,0.8471,-7.1183,-0.2878,0.7593,-2.229,-0.4278,0.6849,1944,2019-08-07 16:58:18:938
9.8121,9.53,-3.7017,-7.1183,-0.2878,0.7593,-1.608,-0.7047,0.7052,1949,2019-08-07 16:58:18:943
9.8121,9.53,-3.7017,-7.1183,-0.2878,0.7593,-1.608,-0.7047,0.7052,1953,2019-08-07 16:58:18:947
9.8121,9.53,-3.7017,-7.1183,-0.2878,0.7593,-1.608,-0.7047,0.7052,1959,2019-08-07 16:58:18:953
7.219,13.034,-13.0822,-3.3376,-4.2711,14.6462,-0.744,-0.1348,0.3089,1964,2019-08-07 16:58:18:958
7.219,13.034,-13.0822,-3.3376,-4.2711,14.6462,-0.744,-0.1348,0.3089,1969,2019-08-07 16:58:18:963
7.219,13.034,-13.0822,-3.3376,-4.2711,14.6462,-0.8048,1.8722,-0.1215,1973,2019-08-07 16:58:18:967
-2.2155,9.2293,22.2666,-3.3376,-4.2711,14.6462,-0.8048,1.8722,-0.1215,1979,2019-08-07 16:58:18:973
-2.2155,9.2293,22.2666,3.5519,-3.3686,2.5816,-0.5789,0.9656,0.2216,1984,2019-08-07 16:58:18:978
-2.2155,9.2293,22.2666,3.5519,-3.3686,2.5816,-0.5789,0.9656,0.2216,1988,2019-08-07 16:58:18:982
-0.0195,10.2127,5.4383,3.5519,-3.3686,2.5816,-0.5789,0.9656,0.2216,1994,2019-08-07 16:58:18:988
-0.0195,10.2127,5.4383,1.6305,0.305,-8.2217,-0.9443,-0.399,0.3728,1999,2019-08-07 16:58:18:993
-0.1487,11.2343,2.742,1.6305,0.305,-8.2217,-0.9443,-0.399,0.3728,2004,2019-08-07 16:58:18:998
-0.1487,11.2343,2.742,1.6305,0.305,-8.2217,-0.5821,-1.2821,0.1939,2009,2019-08-07 16:58:19:003
1.9229,11.1913,2.101,0.5676,-1.7076,-1.7954,-0.5821,-1.2821,0.1939,2014,2019-08-07 16:58:19:008
1.9229,11.1913,2.101,0.5676,-1.7076,-1.7954,-0.4788,-0.7399,0.2876,2019,2019-08-07 16:58:19:013
1.9229,11.1913,2.101,0.5676,-1.7076,-1.7954,-0.4788,-0.7399,0.2876,2023,2019-08-07 16:58:19:017
3.9897,7.4916,1.3986,0.5676,-1.7076,-1.7954,-0.4053,-0.5918,0.3015,2029,2019-08-07 16:58:19:023
3.9897,7.4916,1.3986,-0.9422,2.5145,-0.3676,-0.4053,-0.5918,0.3015,2034,2019-08-07 16:58:19:028
3.1333,7.1288,-0.0155,-0.9422,2.5145,-0.3676,-0.3254,-0.2658,0.3334,2039,2019-08-07 16:58:19:033
3.1333,7.1288,-0.0155,-0.9422,2.5145,-0.3676,-0.3254,-0.2658,0.3334,2043,2019-08-07 16:58:19:037
3.1333,7.1288,-0.0155,-0.9422,2.5145,-0.3676,-0.2221,0.5534,0.2791,2049,2019-08-07 16:58:19:043
3.0807,8.5036,0.7292,-0.505,0.6421,-0.8309,-0.2221,0.5534,0.2791,2054,2019-08-07 16:58:19:048
3.0807,8.5036,0.7292,-0.505,0.6421,-0.8309,-0.1677,0.6993,0.2109,2059,2019-08-07 16:58:19:053
3.0807,8.5036,0.7292,-0.505,0.6421,-0.8309,-0.1677,0.6993,0.2109,2063,2019-08-07 16:58:19:057
3.0089,9.678,2.3602,-0.3612,-0.2435,-1.8946,-0.1869,-0.0176,0.2482,2069,2019-08-07 16:58:19:063
3.0089,9.678,2.3602,-0.3612,-0.2435,-1.8946,-0.1869,-0.0176,0.2482,2073,2019-08-07 16:58:19:067
3.2529,9.9788,2.6242,-0.5798,-0.5526,-2.1357,-0.1944,-0.4746,0.2578,2079,2019-08-07 16:58:19:073
3.2529,9.9788,2.6242,-0.5798,-0.5526,-2.1357,-0.1944,-0.4746,0.2578,2083,2019-08-07 16:58:19:077
3.2529,9.9788,2.6242,-0.5798,-0.5526,-2.1357,-0.1038,-0.2775,0.2013,2089,2019-08-07 16:58:19:083
4.3006,9.3725,0.5407,-0.5798,-0.5526,-2.1357,-0.1038,-0.2775,0.2013,2094,2019-08-07 16:58:19:088
4.3006,9.3725,0.5407,-1.6653,0.0378,-0.0883,-0.1038,-0.2775,0.2013,2099,2019-08-07 16:58:19:093
4.3006,9.3725,0.5407,-1.6653,0.0378,-0.0883,-0.0388,0.1304,0.1406,2103,2019-08-07 16:58:19:097
3.6739,9.783,1.0734,-1.6653,0.0378,-0.0883,-0.0388,0.1304,0.1406,2109,2019-08-07 16:58:19:103
3.6739,9.783,1.0734,-1.6653,0.0378,-0.0883,-0.0239,0.1283,0.0959,2114,2019-08-07 16:58:19:108
3.6739,9.783,1.0734,0.1617,-0.6969,-0.4398,-0.0239,0.1283,0.0959,2118,2019-08-07 16:58:19:112
2.119,10.1745,0.7245,0.1617,-0.6969,-0.4398,0.0038,0.1528,0.0831,2124,2019-08-07 16:58:19:118
2.119,10.1745,0.7245,0.1617,-0.6969,-0.4398,0.0038,0.1528,0.0831,2128,2019-08-07 16:58:19:122
1.899,9.9453,0.6255,0.7546,-0.4852,-0.1859,0.0187,0.1912,0.1065,2134,2019-08-07 16:58:19:128
1.899,9.9453,0.6255,0.7546,-0.4852,-0.1859,0.0187,0.1912,0.1065,2139,2019-08-07 16:58:19:133
1.899,9.9453,0.6255,0.7546,-0.4852,-0.1859,-0.0047,0.0655,0.1204,2144,2019-08-07 16:58:19:138
2.5018,9.8881,1.309,0.7546,-0.4852,-0.1859,-0.0047,0.0655,0.1204,2149,2019-08-07 16:58:19:143
2.5018,9.8881,1.309,0.7546,-0.4852,-0.1859,-0.0047,0.0655,0.1204,2154,2019-08-07 16:58:19:148
2.5018,9.8881,1.309,-0.3445,-0.3484,-0.5372,0.0187,-0.0506,0.1257,2159,2019-08-07 16:58:19:153
3.296,9.6876,0.8565,-0.3445,-0.3484,-0.5372,0.0187,-0.0506,0.1257,2163,2019-08-07 16:58:19:157
3.296,9.6876,0.8565,-0.3445,-0.3484,-0.5372,0.0517,0.0793,0.0927,2169,2019-08-07 16:58:19:163
3.8749,9.3152,0.9602,-0.3445,-0.3484,-0.5372,0.0517,0.0793,0.0927,2174,2019-08-07 16:58:19:168
3.8749,9.3152,0.9602,-1.0428,0.017,-0.3804,0.0997,0.2253,0.05,2178,2019-08-07 16:58:19:172
3.8749,9.3152,0.9602,-1.0428,0.017,-0.3804,0.0997,0.2253,0.05,2184,2019-08-07 16:58:19:178
3.4491,9.4011,0.9838,-1.0428,0.017,-0.3804,0.1178,0.205,0.0224,2189,2019-08-07 16:58:19:183
3.4491,9.4011,0.9838,-1.0428,0.017,-0.3804,0.1178,0.205,0.0224,2194,2019-08-07 16:58:19:188
3.4491,9.4011,0.9838,-0.2499,0.053,-0.5089,0.1135,0.0665,0.0085,2199,2019-08-07 16:58:19:193
3.0329,9.2579,0.8188,-0.2499,0.053,-0.5089,0.1135,0.0665,0.0085,2203,2019-08-07 16:58:19:197
3.0329,9.2579,0.8188,-0.2499,0.053,-0.5089,0.105,-0.0656,0.0106,2209,2019-08-07 16:58:19:203
3.0616,9.3868,0.7387,-0.2499,0.053,-0.5089,0.105,-0.0656,0.0106,2214,2019-08-07 16:58:19:208
3.0616,9.3868,0.7387,-0.289,-0.0713,-0.429,0.105,-0.0656,0.0106,2219,2019-08-07 16:58:19:213
3.0616,9.3868,0.7387,-0.289,-0.0713,-0.429,0.1029,-0.0815,0.0064,2223,2019-08-07 16:58:19:217
2.9898,9.5252,0.8,-0.289,-0.0713,-0.429,0.1029,-0.0815,0.0064,2229,2019-08-07 16:58:19:223
2.9898,9.5252,0.8,-0.289,-0.0713,-0.429,0.1284,0.0335,-0.0085,2234,2019-08-07 16:58:19:228
2.9898,9.5252,0.8,-0.3783,-0.3332,-0.3228,0.1284,0.0335,-0.0085,2238,2019-08-07 16:58:19:232
3.2482,9.6732,1.0262,-0.3783,-0.3332,-0.3228,0.1465,0.0623,-0.0352,2244,2019-08-07 16:58:19:238
3.2482,9.6732,1.0262,-0.3783,-0.3332,-0.3228,0.1465,0.0623,-0.0352,2249,2019-08-07 16:58:19:243
3.6548,9.5587,0.4464,-0.6948,-0.2132,-0.591,0.1465,0.0623,-0.0352,2253,2019-08-07 16:58:19:247
3.6548,9.5587,0.4464,-0.6948,-0.2132,-0.591,0.1519,0.1273,-0.0746,2259,2019-08-07 16:58:19:253
3.6548,9.5587,0.4464,-0.6948,-0.2132,-0.591,0.1519,0.1273,-0.0746,2263,2019-08-07 16:58:19:257
3.4587,9.7592,-0.0957,-0.3797,-0.4094,0.4599,0.1519,0.1273,-0.0746,2268,2019-08-07 16:58:19:262
3.4587,9.7592,-0.0957,-0.3797,-0.4094,0.4599,0.1444,0.3755,-0.1129,2274,2019-08-07 16:58:19:268
2.3296,9.7305,0.2767,0.468,-0.3384,0.1686,0.1444,0.3755,-0.1129,2279,2019-08-07 16:58:19:273
2.3296,9.7305,0.2767,0.468,-0.3384,0.1686,0.1337,0.4862,-0.0991,2284,2019-08-07 16:58:19:278
2.3296,9.7305,0.2767,0.468,-0.3384,0.1686,0.1337,0.4862,-0.0991,2288,2019-08-07 16:58:19:282
1.9373,10.0074,0.734,0.468,-0.3384,0.1686,0.0624,0.2604,-0.0788,2294,2019-08-07 16:58:19:288
1.9373,10.0074,0.734,0.8095,-0.6409,-0.2855,0.0624,0.2604,-0.0788,2298,2019-08-07 16:58:19:292
1.9373,10.0074,0.734,0.8095,-0.6409,-0.2855,0.0624,0.2604,-0.0788,2304,2019-08-07 16:58:19:298
2.1621,10.0026,0.3757,0.8095,-0.6409,-0.2855,0.0155,-0.1178,-0.0543,2309,2019-08-07 16:58:19:303
2.1621,10.0026,0.3757,0.4754,-0.5427,0.3144,0.0155,-0.1178,-0.0543,2313,2019-08-07 16:58:19:307
2.8798,9.5587,0.1495,0.4754,-0.5427,0.3144,-0.0197,-0.1146,-0.0362,2319,2019-08-07 16:58:19:313
2.8798,9.5587,0.1495,0.4754,-0.5427,0.3144,-0.0197,-0.1146,-0.0362,2324,2019-08-07 16:58:19:318
2.8798,9.5587,0.1495,-0.3819,-0.388,-0.0448,-0.0282,-0.0453,-0.0341,2328,2019-08-07 16:58:19:322
3.2338,9.8403,0.6067,-0.3819,-0.388,-0.0448,-0.0282,-0.0453,-0.0341,2334,2019-08-07 16:58:19:328
3.2338,9.8403,0.6067,-0.3819,-0.388,-0.0448,-0.041,-0.0379,-0.0469,2338,2019-08-07 16:58:19:332
2.8319,9.8451,0.008,-0.3819,-0.388,-0.0448,-0.041,-0.0379,-0.0469,2344,2019-08-07 16:58:19:338
2.8319,9.8451,0.008,0.1086,-0.3528,0.1491,-0.0612,0.0314,-0.0522,2349,2019-08-07 16:58:19:343
2.8319,9.8451,0.008,0.1086,-0.3528,0.1491,-0.0612,0.0314,-0.0522,2353,2019-08-07 16:58:19:347
2.2626,9.5539,0.6916,0.1086,-0.3528,0.1491,-0.0473,0.1177,-0.0533,2359,2019-08-07 16:58:19:353
2.2626,9.5539,0.6916,0.1086,-0.3528,0.1491,-0.0473,0.1177,-0.0533,2364,2019-08-07 16:58:19:358
2.4444,9.4393,1.0027,0.2911,-0.0298,-0.5404,-0.0473,0.1177,-0.0533,2369,2019-08-07 16:58:19:363
2.4444,9.4393,1.0027,0.2911,-0.0298,-0.5404,-0.0633,-0.0432,-0.0384,2374,2019-08-07 16:58:19:368
2.4444,9.4393,1.0027,0.0381,-0.4108,-0.4301,-0.0633,-0.0432,-0.0384,2379,2019-08-07 16:58:19:373
2.8415,9.869,0.8188,0.0381,-0.4108,-0.4301,-0.0889,-0.17,-0.0384,2384,2019-08-07 16:58:19:378
2.8415,9.869,0.8188,0.0381,-0.4108,-0.4301,-0.0889,-0.17,-0.0384,2388,2019-08-07 16:58:19:382
2.8415,9.869,0.8188,0.0381,-0.4108,-0.4301,-0.0889,-0.17,-0.0384,2394,2019-08-07 16:58:19:388
3.1956,9.5587,0.3286,-0.4935,-0.0422,-0.1076,-0.1166,-0.0869,-0.0522,2399,2019-08-07 16:58:19:393
3.1956,9.5587,0.3286,-0.4935,-0.0422,-0.1076,-0.1166,-0.0869,-0.0522,2403,2019-08-07 16:58:19:397
3.1956,9.5587,0.3286,-0.4935,-0.0422,-0.1076,-0.0857,-0.0357,-0.0703,2409,2019-08-07 16:58:19:403
3.0329,9.4298,0.602,-0.4935,-0.0422,-0.1076,-0.0857,-0.0357,-0.0703,2414,2019-08-07 16:58:19:408
3.0329,9.4298,0.602,-0.1551,-0.3073,-0.5754,-0.0964,-0.0283,-0.0714,2419,2019-08-07 16:58:19:413
2.6358,9.7735,1.2289,-0.1551,-0.3073,-0.5754,-0.0964,-0.0283,-0.0714,2424,2019-08-07 16:58:19:418
2.6358,9.7735,1.2289,-0.1551,-0.3073,-0.5754,-0.0708,-0.024,-0.0693,2429,2019-08-07 16:58:19:423
2.6358,9.7735,1.2289,-0.1551,-0.3073,-0.5754,-0.0708,-0.024,-0.0693,2434,2019-08-07 16:58:19:428
2.631,9.6255,1.4175,0.0272,-0.1468,-0.8128,-0.0388,-0.0357,-0.0607,2439,2019-08-07 16:58:19:433
2.631,9.6255,1.4175,0.0272,-0.1468,-0.8128,-0.0388,-0.0357,-0.0607,2444,2019-08-07 16:58:19:438
2.631,9.6255,1.4175,0.0272,-0.1468,-0.8128,-0.0133,-0.0538,-0.065,2448,2019-08-07 16:58:19:442
3.0186,9.3486,0.7293,0.0272,-0.1468,-0.8128,-0.0133,-0.0538,-0.065,2454,2019-08-07 16:58:19:448
3.0186,9.3486,0.7293,0.0272,-0.1468,-0.8128,-5.0E-4,-0.0155,-0.081,2459,2019-08-07 16:58:19:453
3.1621,9.4393,0.5973,-0.5187,0.0278,-0.0842,-5.0E-4,-0.0155,-0.081,2463,2019-08-07 16:58:19:457
3.1621,9.4393,0.5973,-0.5187,0.0278,-0.0842,0.0102,0.0708,-0.0895,2469,2019-08-07 16:58:19:463
3.1621,9.4393,0.5973,-0.5187,0.0278,-0.0842,0.0102,0.0708,-0.0895,2473,2019-08-07 16:58:19:467
2.7172,9.4345,0.4794,-0.5187,0.0278,-0.0842,0.0091,0.1624,-0.0842,2479,2019-08-07 16:58:19:473
2.7172,9.4345,0.4794,0.216,-0.0488,0.0409,0.0091,0.1624,-0.0842,2483,2019-08-07 16:58:19:477
2.7172,9.4345,0.4794,0.216,-0.0488,0.0409,-0.0026,0.1464,-0.0757,2489,2019-08-07 16:58:19:483
2.0426,9.5968,0.5879,0.216,-0.0488,0.0409,-0.0026,0.1464,-0.0757,2493,2019-08-07 16:58:19:487
2.0426,9.5968,0.5879,0.216,-0.0488,0.0409,-0.041,0.0047,-0.0522,2499,2019-08-07 16:58:19:493
1.9517,10.036,0.8188,0.7418,-0.5402,-0.2612,-0.041,0.0047,-0.0522,2503,2019-08-07 16:58:19:497
1.9517,10.036,0.8188,0.7418,-0.5402,-0.2612,-0.0591,-0.1721,-0.0245,2509,2019-08-07 16:58:19:503
1.9517,10.036,0.8188,0.7418,-0.5402,-0.2612,-0.0591,-0.1721,-0.0245,2514,2019-08-07 16:58:19:508
2.4445,10.0504,0.6774,0.7418,-0.5402,-0.2612,-0.0665,-0.2317,-0.0224,2518,2019-08-07 16:58:19:512
2.4445,10.0504,0.6774,-0.1166,-0.4478,-0.0361,-0.0665,-0.2317,-0.0224,2524,2019-08-07 16:58:19:518
2.7315,9.8021,0.602,-0.1166,-0.4478,-0.0361,-0.0442,-0.1178,-0.0362,2529,2019-08-07 16:58:19:523
2.7315,9.8021,0.602,-0.0899,-0.2993,-0.1201,-0.0442,-0.1178,-0.0362,2534,2019-08-07 16:58:19:528
2.7315,9.8021,0.602,-0.0899,-0.2993,-0.1201,-0.0442,-0.1178,-0.0362,2538,2019-08-07 16:58:19:532
2.6454,9.5682,0.9225,-0.0899,-0.2993,-0.1201,-0.0186,0.0079,-0.0384,2544,2019-08-07 16:58:19:538
2.6454,9.5682,0.9225,-0.0899,-0.2993,-0.1201,-0.0186,0.0079,-0.0384,2549,2019-08-07 16:58:19:543
2.722,9.4775,1.4363,-0.1114,-0.059,-0.9103,0.0027,-0.0762,-0.0512,2553,2019-08-07 16:58:19:547
2.722,9.4775,1.4363,-0.1114,-0.059,-0.9103,0.0027,-0.0762,-0.0512,2559,2019-08-07 16:58:19:553
2.722,9.4775,1.4363,-0.1114,-0.059,-0.9103,0.0208,-0.1295,-0.0607,2563,2019-08-07 16:58:19:557
3.8319,9.0383,0.5266,-0.1114,-0.059,-0.9103,0.0208,-0.1295,-0.0607,2569,2019-08-07 16:58:19:563
3.8319,9.0383,0.5266,-0.9698,-0.09,1.0006,0.0688,0.3222,-0.1374,2574,2019-08-07 16:58:19:568
3.2243,9.5491,0.5596,-0.9698,-0.09,1.0006,0.0688,0.3222,-0.1374,2579,2019-08-07 16:58:19:573
3.2243,9.5491,0.5596,-0.4032,0.1567,-0.4588,0.0837,0.483,-0.1097,2584,2019-08-07 16:58:19:578
3.2243,9.5491,0.5596,-0.4032,0.1567,-0.4588,0.0837,0.483,-0.1097,2588,2019-08-07 16:58:19:582
2.0522,9.5252,1.4458,-0.4032,0.1567,-0.4588,0.0837,0.483,-0.1097,2594,2019-08-07 16:58:19:588
2.0522,9.5252,1.4458,-0.4032,0.1567,-0.4588,0.0464,0.1038,-0.032,2599,2019-08-07 16:58:19:593
2.3823,9.6255,0.7246,0.2009,-0.1634,-0.2489,0.0464,0.1038,-0.032,2604,2019-08-07 16:58:19:598
2.3823,9.6255,0.7246,0.2009,-0.1634,-0.2489,0.0176,-0.1156,-0.065,2609,2019-08-07 16:58:19:603
2.3823,9.6255,0.7246,0.2009,-0.1634,-0.2489,0.0176,-0.1156,-0.065,2614,2019-08-07 16:58:19:608
2.3488,9.931,0.9461,0.2009,-0.1634,-0.2489,0.0347,-0.1423,-0.0714,2619,2019-08-07 16:58:19:613
2.3488,9.931,0.9461,0.0723,-0.4693,-0.0699,0.0347,-0.1423,-0.0714,2624,2019-08-07 16:58:19:618
2.3584,9.9024,0.4936,0.0723,-0.4693,-0.0699,0.0517,-0.0751,-0.0767,2629,2019-08-07 16:58:19:623
2.3584,9.9024,0.4936,0.0723,-0.4693,-0.0699,0.0517,-0.0751,-0.0767,2634,2019-08-07 16:58:19:628
2.3584,9.9024,0.4936,0.0723,-0.4693,-0.0699,0.0517,-0.0751,-0.0767,2638,2019-08-07 16:58:19:632
2.3345,9.487,0.3286,0.2376,-0.0345,0.1904,0.0272,0.0484,-0.1012,2644,2019-08-07 16:58:19:638
2.3345,9.487,0.3286,0.2376,-0.0345,0.1904,0.0272,0.0484,-0.1012,2649,2019-08-07 16:58:19:643
2.3345,9.487,0.3286,0.2376,-0.0345,0.1904,-0.0026,0.0506,-0.1534,2653,2019-08-07 16:58:19:647
1.8225,9.9978,1.6013,0.2376,-0.0345,0.1904,-0.0026,0.0506,-0.1534,2659,2019-08-07 16:58:19:653
1.8225,9.9978,1.6013,0.6449,-0.3375,-0.9737,0.0155,-0.1763,-0.0639,2663,2019-08-07 16:58:19:657
2.3584,9.7305,1.0168,0.6449,-0.3375,-0.9737,0.0155,-0.1763,-0.0639,2669,2019-08-07 16:58:19:663
2.3584,9.7305,1.0168,0.6449,-0.3375,-0.9737,0.0368,-0.219,-0.0309,2673,2019-08-07 16:58:19:667
2.3584,9.7305,1.0168,0.6449,-0.3375,-0.9737,0.0368,-0.219,-0.0309,2679,2019-08-07 16:58:19:673
2.9947,9.635,0.5124,-0.4592,-0.2067,0.0945,0.0528,-0.1188,-0.0533,2684,2019-08-07 16:58:19:678
2.9947,9.635,0.5124,-0.4592,-0.2067,0.0945,0.0528,-0.1188,-0.0533,2688,2019-08-07 16:58:19:682
3.1334,9.6828,0.3097,-0.4592,-0.2067,0.0945,0.0677,-0.0336,-0.0416,2694,2019-08-07 16:58:19:688
3.1334,9.6828,0.3097,-0.4592,-0.2067,0.0945,0.0677,-0.0336,-0.0416,2699,2019-08-07 16:58:19:693
3.1334,9.6828,0.3097,-0.3307,-0.2235,0.3188,0.0677,-0.0336,-0.0416,2703,2019-08-07 16:58:19:697
2.6167,9.6828,0.2485,-0.3307,-0.2235,0.3188,0.0507,0.0942,-0.0735,2709,2019-08-07 16:58:19:703
2.6167,9.6828,0.2485,0.0303,-0.164,0.2072,0.0507,0.0942,-0.0735,2714,2019-08-07 16:58:19:708
2.6167,9.6828,0.2485,0.0303,-0.164,0.2072,0.0379,0.1667,-0.0767,2719,2019-08-07 16:58:19:713
2.3919,9.6112,0.503,0.0303,-0.164,0.2072,0.0379,0.1667,-0.0767,2723,2019-08-07 16:58:19:717
2.3919,9.6112,0.503,0.0303,-0.164,0.2072,0.0102,0.1581,-0.0682,2729,2019-08-07 16:58:19:723
2.2866,9.7878,0.5172,0.2096,-0.2886,0.0271,0.0102,0.1581,-0.0682,2734,2019-08-07 16:58:19:728
2.2866,9.7878,0.5172,0.2096,-0.2886,0.0271,-0.0207,0.0868,-0.0543,2738,2019-08-07 16:58:19:732
2.2866,9.7878,0.5172,0.2096,-0.2886,0.0271,-0.0207,0.0868,-0.0543,2744,2019-08-07 16:58:19:738
2.301,9.8546,0.7576,0.2096,-0.2886,0.0271,-0.0143,0.0303,-0.0565,2749,2019-08-07 16:58:19:743
2.301,9.8546,0.7576,0.1775,-0.3525,-0.2664,-0.0143,0.0303,-0.0565,2753,2019-08-07 16:58:19:747
2.4158,9.6971,0.8236,0.1775,-0.3525,-0.2664,-0.009,0.0111,-0.0405,2759,2019-08-07 16:58:19:753
2.4158,9.6971,0.8236,0.1775,-0.3525,-0.2664,-0.009,0.0111,-0.0405,2764,2019-08-07 16:58:19:758
2.4158,9.6971,0.8236,0.1775,-0.3525,-0.2664,-0.009,0.0111,-0.0405,2768,2019-08-07 16:58:19:762
2.4828,9.6828,0.6727,-0.0559,-0.2406,-0.1259,-0.0069,-0.0123,-0.032,2774,2019-08-07 16:58:19:768
2.4828,9.6828,0.6727,-0.0559,-0.2406,-0.1259,-0.0069,-0.0123,-0.032,2778,2019-08-07 16:58:19:772
2.5641,9.7066,0.701,-0.0559,-0.2406,-0.1259,-0.0143,-0.0123,-0.033,2783,2019-08-07 16:58:19:777
2.5641,9.7066,0.701,-0.0559,-0.2406,-0.1259,-0.0143,-0.0123,-0.033,2789,2019-08-07 16:58:19:783
2.5641,9.7066,0.701,-0.0559,-0.2406,-0.1259,-0.0079,0.0388,-0.0352,2794,2019-08-07 16:58:19:788
2.612,9.888,0.5879,-0.1291,-0.411,-0.0802,-0.0079,0.0388,-0.0352,2798,2019-08-07 16:58:19:792
2.612,9.888,0.5879,-0.1291,-0.411,-0.0802,-0.0079,0.0388,-0.0352,2803,2019-08-07 16:58:19:797
2.612,9.888,0.5879,-0.1291,-0.411,-0.0802,-0.0111,0.09,-0.0298,2809,2019-08-07 16:58:19:803
2.6168,9.7878,0.4889,-0.1291,-0.411,-0.0802,-0.0111,0.09,-0.0298,2814,2019-08-07 16:58:19:808
2.6168,9.7878,0.4889,-0.012,-0.2853,-0.008,-0.0143,0.1251,-0.0426,2819,2019-08-07 16:58:19:813
2.4637,9.6684,0.5879,-0.012,-0.2853,-0.008,-0.0143,0.1251,-0.0426,2824,2019-08-07 16:58:19:818
2.4637,9.6684,0.5879,-0.012,-0.2853,-0.008,-0.0165,0.14,-0.0448,2829,2019-08-07 16:58:19:823
2.3345,9.6732,0.6162,0.1304,-0.1924,-0.0919,-0.0165,0.14,-0.0448,2834,2019-08-07 16:58:19:828
2.3345,9.6732,0.6162,0.1304,-0.1924,-0.0919,-0.0346,0.0953,-0.0341,2839,2019-08-07 16:58:19:833
2.3345,9.6732,0.6162,0.1304,-0.1924,-0.0919,-0.0346,0.0953,-0.0341,2844,2019-08-07 16:58:19:838
2.1766,9.7448,0.7104,0.2835,-0.2631,-0.1798,-0.0484,0.0399,-0.0256,2849,2019-08-07 16:58:19:843
2.1766,9.7448,0.7104,0.2835,-0.2631,-0.1798,-0.0484,0.0399,-0.0256,2854,2019-08-07 16:58:19:848
2.1766,9.7448,0.7104,0.2835,-0.2631,-0.1798,-0.0484,0.0399,-0.0256,2859,2019-08-07 16:58:19:853
2.2436,9.7162,0.8236,0.2835,-0.2631,-0.1798,-0.0569,-0.0357,-0.0128,2864,2019-08-07 16:58:19:858
2.2436,9.7162,0.8236,0.1721,-0.2288,-0.3463,-0.0569,-0.0357,-0.0128,2869,2019-08-07 16:58:19:863
2.435,9.6112,0.8377,0.1721,-0.2288,-0.3463,-0.0505,-0.0965,-0.0085,2874,2019-08-07 16:58:19:868
2.435,9.6112,0.8377,0.1721,-0.2288,-0.3463,-0.0505,-0.0965,-0.0085,2879,2019-08-07 16:58:19:873
2.435,9.6112,0.8377,0.1721,-0.2288,-0.3463,-0.0399,-0.1156,-0.0032,2884,2019-08-07 16:58:19:878
2.6264,9.5157,0.8613,-0.1729,-0.0334,-0.3105,-0.0399,-0.1156,-0.0032,2888,2019-08-07 16:58:19:882
2.6264,9.5157,0.8613,-0.1729,-0.0334,-0.3105,-0.0442,-0.1487,0.0,2894,2019-08-07 16:58:19:888
2.6072,9.6159,0.668,-0.1729,-0.0334,-0.3105,-0.0442,-0.1487,0.0,2899,2019-08-07 16:58:19:893
2.6072,9.6159,0.668,-0.1729,-0.0334,-0.3105,-0.0612,-0.1966,0.0106,2904,2019-08-07 16:58:19:898
2.6072,9.6159,0.668,-0.1936,-0.1059,-0.0336,-0.0612,-0.1966,0.0106,2909,2019-08-07 16:58:19:903
2.7834,9.554,0.6301,-0.1936,-0.1059,-0.0336,-0.0612,-0.1966,0.0106,2914,2019-08-07 16:58:19:908
2.7834,9.554,0.6301,-0.1936,-0.1059,-0.0336,-0.0623,-0.1742,-0.0064,2919,2019-08-07 16:58:19:913
2.5107,9.764,0.2813,-0.1936,-0.1059,-0.0336,-0.0623,-0.1742,-0.0064,2923,2019-08-07 16:58:19:917
2.5107,9.764,0.2813,0.5874,-0.4359,-0.4158,-0.1209,-0.2946,-0.0107,2929,2019-08-07 16:58:19:923
2.5107,9.764,0.2813,0.5874,-0.4359,-0.4158,-0.1209,-0.2946,-0.0107,2934,2019-08-07 16:58:19:928
2.2523,9.4251,-0.6709,0.5874,-0.4359,-0.4158,-0.0601,-0.4363,-0.049,2938,2019-08-07 16:58:19:932
2.2523,9.4251,-0.6709,0.5874,-0.4359,-0.4158,-0.0601,-0.4363,-0.049,2944,2019-08-07 16:58:19:938
2.8934,9.807,1.0355,-0.384,-0.455,-0.7535,-0.0665,-0.3223,-0.0213,2948,2019-08-07 16:58:19:942
2.8934,9.807,1.0355,-0.384,-0.455,-0.7535,-0.0665,-0.3223,-0.0213,2954,2019-08-07 16:58:19:948
2.8934,9.807,1.0355,-0.384,-0.455,-0.7535,-0.0623,-0.2168,-0.0203,2958,2019-08-07 16:58:19:952
2.4915,9.9836,0.7951,-0.384,-0.455,-0.7535,-0.0623,-0.2168,-0.0203,2964,2019-08-07 16:58:19:958
2.4915,9.9836,0.7951,-0.0681,-0.393,-0.3524,-0.0111,-0.0751,0.0149,2969,2019-08-07 16:58:19:963
2.4915,9.9836,0.7951,-0.0681,-0.393,-0.3524,-0.0111,-0.0751,0.0149,2974,2019-08-07 16:58:19:968
2.4293,9.8547,1.0119,-0.0681,-0.393,-0.3524,0.0102,-0.0751,0.0213,2979,2019-08-07 16:58:19:973
2.4293,9.8547,1.0119,-0.0681,-0.393,-0.3524,0.0102,-0.0751,0.0213,2984,2019-08-07 16:58:19:978
2.4293,9.8547,1.0119,0.1169,-0.3555,0.0694,0.0102,-0.0751,0.0213,2988,2019-08-07 16:58:19:982
2.3289,9.8356,0.4698,0.1169,-0.3555,0.0694,0.0251,-0.0549,0.0245,2994,2019-08-07 16:58:19:988
2.3289,9.8356,0.4698,0.1169,-0.3555,0.0694,0.0251,-0.0549,0.0245,2999,2019-08-07 16:58:19:993
2.4819,9.6494,0.7102,0.1169,-0.3555,0.0694,0.0102,-0.0411,0.0245,3004,2019-08-07 16:58:19:998
2.4819,9.6494,0.7102,-0.0605,-0.1654,-0.0963,0.0102,-0.0411,0.0245,3009,2019-08-07 16:58:20:003
2.4819,9.6494,0.7102,-0.0605,-0.1654,-0.0963,0.0102,-0.056,0.017,3014,2019-08-07 16:58:20:008
2.525,9.6447,0.649,-0.0605,-0.1654,-0.0963,0.0102,-0.056,0.017,3019,2019-08-07 16:58:20:013
2.525,9.6447,0.649,-0.0605,-0.1654,-0.0963,0.0102,-0.056,0.017,3023,2019-08-07 16:58:20:017
2.8168,9.6351,0.484,-0.3471,-0.157,0.0645,0.0219,0.0964,0.0202,3031,2019-08-07 16:58:20:025
2.8168,9.6351,0.484,-0.3471,-0.157,0.0645,0.0219,0.0964,0.0202,3033,2019-08-07 16:58:20:027
2.8168,9.6351,0.484,-0.3471,-0.157,0.0645,0.0368,0.1869,0.0234,3039,2019-08-07 16:58:20:033
2.5872,9.6208,0.7055,-0.3471,-0.157,0.0645,0.0368,0.1869,0.0234,3044,2019-08-07 16:58:20:038
2.5872,9.6208,0.7055,-0.1046,-0.1722,0.194,0.0507,0.204,0.0223,3049,2019-08-07 16:58:20:043
2.5872,9.6208,0.7055,-0.1046,-0.1722,0.194,0.0507,0.204,0.0223,3054,2019-08-07 16:58:20:048
2.6589,9.8165,0.1917,-0.1569,-0.3824,0.2745,0.0539,0.3297,0.0138,3059,2019-08-07 16:58:20:053
2.6589,9.8165,0.1917,-0.1569,-0.3824,0.2745,0.0539,0.3297,0.0138,3064,2019-08-07 16:58:20:058
2.4628,9.659,1.1203,-0.1569,-0.3824,0.2745,0.0155,0.286,0.0021,3068,2019-08-07 16:58:20:062
2.4628,9.659,1.1203,-0.1569,-0.3824,0.2745,0.0155,0.286,0.0021,3074,2019-08-07 16:58:20:068
2.4628,9.659,1.1203,0.0784,-0.2483,-0.1864,0.0283,0.1315,-0.0245,3079,2019-08-07 16:58:20:073
2.4341,9.7831,0.6207,0.0784,-0.2483,-0.1864,0.0283,0.1315,-0.0245,3084,2019-08-07 16:58:20:078
2.4341,9.7831,0.6207,0.0784,-0.2483,-0.1864,0.0134,0.204,-0.0107,3089,2019-08-07 16:58:20:083
2.4532,9.807,0.7244,0.0784,-0.2483,-0.1864,0.0134,0.204,-0.0107,3094,2019-08-07 16:58:20:088
2.4532,9.807,0.7244,0.059,-0.3381,-0.1988,-0.0218,0.1017,-0.0011,3098,2019-08-07 16:58:20:092
2.4532,9.807,0.7244,0.059,-0.3381,-0.1988,-0.0218,0.1017,-0.0011,3104,2019-08-07 16:58:20:098