ACCELEROMETER X (m/s²),ACCELEROMETER Y (m/s²),ACCELEROMETER Z (m/s²),LINEAR ACCELERATION X (m/s²),LINEAR ACCELERATION Y (m/s²),LINEAR ACCELERATION Z (m/s²),GYROSCOPE X (rad/s),GYROSCOPE Y (rad/s),GYROSCOPE Z (rad/s),Time since start in ms ,YYYY-MO-DD HH-MI-SS_SSS
2.6385,9.7546,0.9928,-0.0762,-0.2907,-0.3461,0.0208,-0.1923,0.0628,3,2019-08-07 16:57:56:636
2.6385,9.7546,0.9928,-0.0762,-0.2907,-0.3461,0.0336,-0.1955,0.0649,8,2019-08-07 16:57:56:641
2.4998,9.8692,0.7383,-0.033,-0.4034,-0.1514,0.0336,-0.1955,0.0649,13,2019-08-07 16:57:56:646
2.4998,9.8692,0.7383,-0.033,-0.4034,-0.1514,0.0411,-0.1689,0.0671,17,2019-08-07 16:57:56:650
2.4998,9.8692,0.7383,-0.033,-0.4034,-0.1514,0.0411,-0.1689,0.0671,23,2019-08-07 16:57:56:656
2.3706,9.4872,0.8325,-0.033,-0.4034,-0.1514,0.0539,-0.1508,0.0596,28,2019-08-07 16:57:56:661
2.3706,9.4872,0.8325,0.2196,0.0332,-0.4125,0.0539,-0.1508,0.0596,33,2019-08-07 16:57:56:666
2.3706,9.4872,0.8325,0.2196,0.0332,-0.4125,0.0539,-0.1508,0.0596,37,2019-08-07 16:57:56:670
2.5094,9.5541,1.0871,0.2196,0.0332,-0.4125,0.0645,-0.2285,0.0724,43,2019-08-07 16:57:56:676
2.5094,9.5541,1.0871,0.2196,0.0332,-0.4125,0.0645,-0.2285,0.0724,48,2019-08-07 16:57:56:681
2.5094,9.5541,1.0871,-0.0809,-0.0745,-0.155,0.0805,-0.2275,0.0703,53,2019-08-07 16:57:56:686
2.605,9.5445,0.7948,-0.0809,-0.0745,-0.155,0.0805,-0.2275,0.0703,58,2019-08-07 16:57:56:691
2.605,9.5445,0.7948,-0.0809,-0.0745,-0.155,0.0922,-0.171,0.0671,63,2019-08-07 16:57:56:696
2.8108,9.7641,0.7854,-0.0809,-0.0745,-0.155,0.0922,-0.171,0.0671,68,2019-08-07 16:57:56:701
2.8108,9.7641,0.7854,-0.3046,-0.4161,-0.0766,0.0847,-0.1955,0.0575,72,2019-08-07 16:57:56:705
2.8108,9.7641,0.7854,-0.3046,-0.4161,-0.0766,0.0847,-0.1955,0.0575,78,2019-08-07 16:57:56:711
2.916,9.8548,0.4931,-0.3046,-0.4161,-0.0766,0.0752,-0.2211,0.0394,83,2019-08-07 16:57:56:716
2.916,9.8548,0.4931,-0.3046,-0.4161,-0.0766,0.0752,-0.2211,0.0394,87,2019-08-07 16:57:56:720
2.7868,9.6639,0.4413,-0.1874,-0.2219,0.1319,0.0741,-0.1763,0.0266,93,2019-08-07 16:57:56:726
2.7868,9.6639,0.4413,-0.1874,-0.2219,0.1319,0.0741,-0.1763,0.0266,98,2019-08-07 16:57:56:731
2.7868,9.6639,0.4413,-0.1874,-0.2219,0.1319,0.0602,-0.1465,0.0319,102,2019-08-07 16:57:56:735
2.6098,9.6496,0.5921,-0.1874,-0.2219,0.1319,0.0602,-0.1465,0.0319,107,2019-08-07 16:57:56:740
2.6098,9.6496,0.5921,-0.0318,-0.3134,-0.0767,0.0475,-0.17,0.0277,113,2019-08-07 16:57:56:746
2.5811,9.7737,0.7383,-0.0318,-0.3134,-0.0767,0.0475,-0.17,0.0277,117,2019-08-07 16:57:56:750
2.5811,9.7737,0.7383,-0.0318,-0.3134,-0.0767,0.0389,-0.1902,0.0277,123,2019-08-07 16:57:56:756
2.5811,9.7737,0.7383,-0.0318,-0.3134,-0.0767,0.0389,-0.1902,0.0277,127,2019-08-07 16:57:56:760
2.8155,9.788,0.5874,-0.2016,-0.3526,0.0477,0.0485,-0.1518,0.0277,132,2019-08-07 16:57:56:765
2.8155,9.788,0.5874,-0.2016,-0.3526,0.0477,0.0485,-0.1518,0.0277,138,2019-08-07 16:57:56:771
2.8155,9.788,0.5874,-0.2016,-0.3526,0.0477,0.0485,-0.1518,0.0277,142,2019-08-07 16:57:56:775
2.8203,9.6448,0.314,-0.2026,-0.2052,0.2138,0.0453,-0.0485,0.0202,148,2019-08-07 16:57:56:781
2.8203,9.6448,0.314,-0.2026,-0.2052,0.2138,0.0453,-0.0485,0.0202,153,2019-08-07 16:57:56:786
2.5428,9.4443,0.5968,-0.2026,-0.2052,0.2138,0.0475,0.0111,0.0117,157,2019-08-07 16:57:56:790
2.5428,9.4443,0.5968,0.1062,0.124,-0.1967,0.0475,0.0111,0.0117,163,2019-08-07 16:57:56:796
2.5428,9.4443,0.5968,0.1062,0.124,-0.1967,0.056,-0.0251,0.0298,167,2019-08-07 16:57:56:800
2.5476,9.3106,0.7948,0.1062,0.124,-0.1967,0.056,-0.0251,0.0298,173,2019-08-07 16:57:56:806
2.5476,9.3106,0.7948,0.1062,0.124,-0.1967,0.0677,-0.056,0.0373,178,2019-08-07 16:57:56:811
2.7677,9.5923,0.8184,-0.1403,-0.1542,-0.3125,0.0677,-0.056,0.0373,183,2019-08-07 16:57:56:816
2.7677,9.5923,0.8184,-0.1403,-0.1542,-0.3125,0.0677,-0.056,0.0373,188,2019-08-07 16:57:56:821
2.7677,9.5923,0.8184,-0.1403,-0.1542,-0.3125,0.0837,-0.0528,0.0436,194,2019-08-07 16:57:56:827
2.6912,9.535,0.8608,-0.1403,-0.1542,-0.3125,0.0837,-0.0528,0.0436,197,2019-08-07 16:57:56:830
2.6912,9.535,0.8608,0.0267,-0.0556,-0.4473,0.0997,-0.0794,0.0522,203,2019-08-07 16:57:56:836
2.5381,9.5111,0.7901,0.0267,-0.0556,-0.4473,0.0997,-0.0794,0.0522,207,2019-08-07 16:57:56:840
2.5381,9.5111,0.7901,0.0267,-0.0556,-0.4473,0.105,-0.1327,0.0575,213,2019-08-07 16:57:56:846
2.5381,9.5111,0.7901,0.0267,-0.0556,-0.4473,0.105,-0.1327,0.0575,217,2019-08-07 16:57:56:850
2.6912,9.4825,0.677,-0.0955,-0.1293,-0.2036,0.1029,-0.17,0.0554,222,2019-08-07 16:57:56:855
2.6912,9.4825,0.677,-0.0955,-0.1293,-0.2036,0.1029,-0.17,0.0554,228,2019-08-07 16:57:56:861
2.7916,9.6973,0.611,-0.0955,-0.1293,-0.2036,0.1092,-0.1785,0.0479,233,2019-08-07 16:57:56:866
2.7916,9.6973,0.611,-0.0955,-0.1293,-0.2036,0.1092,-0.1785,0.0479,238,2019-08-07 16:57:56:871
2.7916,9.6973,0.611,-0.0955,-0.1293,-0.2036,0.1092,-0.1785,0.0479,242,2019-08-07 16:57:56:875
2.8299,9.3488,0.3753,-0.1791,0.0119,0.0645,0.0943,-0.1476,0.0426,248,2019-08-07 16:57:56:881
2.8299,9.3488,0.3753,-0.1791,0.0119,0.0645,0.0943,-0.1476,0.0426,253,2019-08-07 16:57:56:886
2.7534,9.4682,0.4884,-0.1791,0.0119,0.0645,0.1124,-0.0496,0.0213,257,2019-08-07 16:57:56:890
2.7534,9.4682,0.4884,-0.1791,0.0119,0.0645,0.1124,-0.0496,0.0213,263,2019-08-07 16:57:56:896
2.7534,9.4682,0.4884,-0.1095,-0.1275,0.0068,0.1156,-0.007,0.017,268,2019-08-07 16:57:56:901
2.6864,9.5111,0.3894,-0.1095,-0.1275,0.0068,0.1156,-0.007,0.017,273,2019-08-07 16:57:56:906
2.6864,9.5111,0.3894,-0.1095,-0.1275,0.0068,0.1188,0.0058,0.0074,278,2019-08-07 16:57:56:911
2.6864,9.5111,0.3894,-0.1095,-0.1275,0.0068,0.1188,0.0058,0.0074,283,2019-08-07 16:57:56:916
2.6672,9.5827,0.3942,0.0027,-0.151,-0.0063,0.1188,0.0058,0.0074,287,2019-08-07 16:57:56:920
2.6672,9.5827,0.3942,0.0027,-0.151,-0.0063,0.1114,-0.0325,0.0138,293,2019-08-07 16:57:56:926
2.6194,9.7689,0.6487,0.0027,-0.151,-0.0063,0.1114,-0.0325,0.0138,298,2019-08-07 16:57:56:931
2.6194,9.7689,0.6487,0.0027,-0.151,-0.0063,0.1092,-0.0613,0.0128,303,2019-08-07 16:57:56:936
2.6194,9.7689,0.6487,0.0433,-0.4563,-0.2358,0.1092,-0.0613,0.0128,308,2019-08-07 16:57:56:941
2.6003,9.9503,0.4271,0.0433,-0.4563,-0.2358,0.1135,-0.0773,0.0223,313,2019-08-07 16:57:56:946
2.6003,9.9503,0.4271,0.0433,-0.4563,-0.2358,0.1135,-0.0773,0.0223,317,2019-08-07 16:57:56:950
2.5668,9.8166,0.2339,0.0433,-0.4563,-0.2358,0.1146,-0.0826,0.0319,323,2019-08-07 16:57:56:956
2.5668,9.8166,0.2339,0.1525,-0.3848,0.0916,0.1146,-0.0826,0.0319,328,2019-08-07 16:57:56:961
2.5668,9.8166,0.2339,0.1525,-0.3848,0.0916,0.1039,-0.122,0.033,333,2019-08-07 16:57:56:966
2.5189,9.8692,0.38,0.1525,-0.3848,0.0916,0.1039,-0.122,0.033,337,2019-08-07 16:57:56:970
2.5189,9.8692,0.38,0.1525,-0.3848,0.0916,0.0869,-0.2008,0.0394,344,2019-08-07 16:57:56:977
2.6051,9.7164,0.1773,0.0962,-0.3808,0.0085,0.0869,-0.2008,0.0394,347,2019-08-07 16:57:56:980
2.6051,9.7164,0.1773,0.0962,-0.3808,0.0085,0.0805,-0.2435,0.0447,353,2019-08-07 16:57:56:986
2.6051,9.7164,0.1773,0.0962,-0.3808,0.0085,0.0805,-0.2435,0.0447,357,2019-08-07 16:57:56:990
2.8825,9.6066,0.1962,0.0962,-0.3808,0.0085,0.0794,-0.2168,0.0319,362,2019-08-07 16:57:56:995
2.8825,9.6066,0.1962,-0.3007,-0.1583,-0.0204,0.0794,-0.2168,0.0319,368,2019-08-07 16:57:57:001
2.9782,9.5254,0.446,-0.3007,-0.1583,-0.0204,0.0784,-0.1891,0.0149,373,2019-08-07 16:57:57:006
2.9782,9.5254,0.446,-0.2688,-0.0921,-0.2777,0.0784,-0.1891,0.0149,378,2019-08-07 16:57:57:011
2.9782,9.5254,0.446,-0.2688,-0.0921,-0.2777,0.0965,-0.1582,0.0096,382,2019-08-07 16:57:57:015
2.9639,9.4538,0.4554,-0.2688,-0.0921,-0.2777,0.0965,-0.1582,0.0096,388,2019-08-07 16:57:57:021
2.9639,9.4538,0.4554,-0.2688,-0.0921,-0.2777,0.1018,-0.0847,0.0042,393,2019-08-07 16:57:57:026
2.8538,9.4538,0.4554,-0.1975,0.0554,-0.1226,0.1018,-0.0847,0.0042,398,2019-08-07 16:57:57:031
2.8538,9.4538,0.4554,-0.1975,0.0554,-0.1226,0.1135,-0.0379,-0.0022,403,2019-08-07 16:57:57:036
2.8538,9.4538,0.4554,-0.1975,0.0554,-0.1226,0.1135,-0.0379,-0.0022,408,2019-08-07 16:57:57:041
2.8012,9.6352,0.5214,-0.1975,0.0554,-0.1226,0.1188,-0.0464,-0.0054,413,2019-08-07 16:57:57:046
2.8012,9.6352,0.5214,-0.1065,-0.2544,-0.3806,0.1188,-0.0464,-0.0054,417,2019-08-07 16:57:57:050
2.8012,9.6352,0.5214,-0.1065,-0.2544,-0.3806,0.1327,-0.0581,-0.0096,423,2019-08-07 16:57:57:056
2.8778,9.7307,0.512,-0.1065,-0.2544,-0.3806,0.1327,-0.0581,-0.0096,428,2019-08-07 16:57:57:061
2.8778,9.7307,0.512,-0.1065,-0.2544,-0.3806,0.1327,-0.0581,-0.0096,432,2019-08-07 16:57:57:065
3.0787,9.6687,0.4083,-0.3225,-0.2488,-0.3032,0.1455,-0.0453,-0.0128,438,2019-08-07 16:57:57:071
3.0787,9.6687,0.4083,-0.3225,-0.2488,-0.3032,0.1455,-0.0453,-0.0128,443,2019-08-07 16:57:57:076
3.0787,9.6687,0.4083,-0.3225,-0.2488,-0.3032,0.1583,0.0048,-0.0277,447,2019-08-07 16:57:57:080
3.0452,9.7068,0.0925,-0.3225,-0.2488,-0.3032,0.1583,0.0048,-0.0277,453,2019-08-07 16:57:57:086
3.0452,9.7068,0.0925,-0.3065,-0.214,0.0209,0.1678,0.0644,-0.0373,458,2019-08-07 16:57:57:091
3.0452,9.7068,0.0925,-0.3065,-0.214,0.0209,0.1678,0.0644,-0.0373,463,2019-08-07 16:57:57:096
2.8634,9.6209,0.2905,-0.3065,-0.214,0.0209,0.171,0.0825,-0.0501,467,2019-08-07 16:57:57:100
2.8634,9.6209,0.2905,-0.3065,-0.214,0.0209,0.171,0.0825,-0.0501,473,2019-08-07 16:57:57:106
2.7582,9.6257,0.3753,-0.0711,-0.1919,-0.2324,0.1721,0.058,-0.0522,478,2019-08-07 16:57:57:111
2.7582,9.6257,0.3753,-0.0711,-0.1919,-0.2324,0.1721,0.058,-0.0522,483,2019-08-07 16:57:57:116
2.7582,9.6257,0.3753,-0.0711,-0.1919,-0.2324,0.1732,0.0378,-0.0565,487,2019-08-07 16:57:57:120
2.8251,9.6018,0.0642,-0.0711,-0.1919,-0.2324,0.1732,0.0378,-0.0565,493,2019-08-07 16:57:57:126
2.8251,9.6018,0.0642,-0.1823,-0.1694,0.0483,0.17,0.0452,-0.0682,498,2019-08-07 16:57:57:131
2.8491,9.6209,0.2103,-0.1823,-0.1694,0.0483,0.17,0.0452,-0.0682,502,2019-08-07 16:57:57:135
2.8491,9.6209,0.2103,-0.1823,-0.1694,0.0483,0.1668,0.0612,-0.0767,508,2019-08-07 16:57:57:141
2.8491,9.6209,0.2103,-0.1823,-0.1694,0.0483,0.1668,0.0612,-0.0767,512,2019-08-07 16:57:57:145
2.6768,9.7116,0.2433,0.0615,-0.2461,-0.0882,0.1636,0.0452,-0.0778,518,2019-08-07 16:57:57:151
2.6768,9.7116,0.2433,0.0615,-0.2461,-0.0882,0.1636,0.0452,-0.0778,522,2019-08-07 16:57:57:155
2.6051,9.7641,0.1726,0.0615,-0.2461,-0.0882,0.1583,0.009,-0.0735,528,2019-08-07 16:57:57:161
2.6051,9.7641,0.1726,0.0615,-0.2461,-0.0882,0.1583,0.009,-0.0735,533,2019-08-07 16:57:57:166
2.6051,9.7641,0.1726,-0.016,-0.3896,-0.1125,0.1497,-0.0272,-0.0778,538,2019-08-07 16:57:57:171
2.6099,9.8071,0.1208,-0.016,-0.3896,-0.1125,0.1497,-0.0272,-0.0778,544,2019-08-07 16:57:57:177
2.6099,9.8071,0.1208,-0.016,-0.3896,-0.1125,0.1401,-0.0485,-0.0789,547,2019-08-07 16:57:57:180
2.8204,9.7021,0.0453,-0.016,-0.3896,-0.1125,0.1401,-0.0485,-0.0789,553,2019-08-07 16:57:57:186
2.8204,9.7021,0.0453,-0.2181,-0.2658,-0.0659,0.138,-0.0251,-0.0916,557,2019-08-07 16:57:57:190
2.8204,9.7021,0.0453,-0.2181,-0.2658,-0.0659,0.138,-0.0251,-0.0916,562,2019-08-07 16:57:57:195
2.8826,9.6687,0.0029,-0.2181,-0.2658,-0.0659,0.1348,0.0271,-0.1076,568,2019-08-07 16:57:57:201
2.8826,9.6687,0.0029,-0.2181,-0.2658,-0.0659,0.1348,0.0271,-0.1076,572,2019-08-07 16:57:57:205
2.8347,9.7546,0.0218,-0.2228,-0.2987,-0.0201,0.1348,0.0751,-0.1193,578,2019-08-07 16:57:57:211
2.8347,9.7546,0.0218,-0.2228,-0.2987,-0.0201,0.1348,0.0751,-0.1193,583,2019-08-07 16:57:57:216
2.8347,9.7546,0.0218,-0.2228,-0.2987,-0.0201,0.1306,0.0868,-0.1321,588,2019-08-07 16:57:57:221
2.8347,9.7546,0.0218,-0.2228,-0.2987,-0.0201,0.1306,0.0868,-0.1321,593,2019-08-07 16:57:57:226
2.629,9.8166,0.149,0.0826,-0.4065,-0.2805,0.1252,0.0452,-0.1321,598,2019-08-07 16:57:57:231
2.629,9.8166,0.149,0.0826,-0.4065,-0.2805,0.1252,0.0452,-0.1321,603,2019-08-07 16:57:57:236
2.629,9.8166,0.149,0.0826,-0.4065,-0.2805,0.1252,0.0452,-0.1321,608,2019-08-07 16:57:57:241
2.5285,9.8882,0.1113,0.0826,-0.4065,-0.2805,0.105,-0.0432,-0.1311,613,2019-08-07 16:57:57:246
2.5285,9.8882,0.1113,0.0826,-0.4065,-0.2805,0.105,-0.0432,-0.1311,617,2019-08-07 16:57:57:250
2.7677,9.9742,0.0595,-0.1351,-0.4042,-0.1032,0.0741,-0.089,-0.1492,623,2019-08-07 16:57:57:256
2.7677,9.9742,0.0595,-0.1351,-0.4042,-0.1032,0.0741,-0.089,-0.1492,628,2019-08-07 16:57:57:261
2.7677,9.9742,0.0595,-0.1351,-0.4042,-0.1032,0.0379,-0.0624,-0.1726,633,2019-08-07 16:57:57:266
2.9352,9.998,0.1019,-0.1351,-0.4042,-0.1032,0.0379,-0.0624,-0.1726,637,2019-08-07 16:57:57:270
2.9352,9.998,0.1019,-0.3808,-0.4629,-0.1722,-0.0037,0.0026,-0.2078,643,2019-08-07 16:57:57:276
2.9352,9.998,0.1019,-0.3808,-0.4629,-0.1722,-0.0037,0.0026,-0.2078,647,2019-08-07 16:57:57:280
2.9639,9.5636,0.2386,-0.3808,-0.4629,-0.1722,-0.0037,0.0026,-0.2078,653,2019-08-07 16:57:57:286
2.9639,9.5636,0.2386,-0.3808,-0.4629,-0.1722,-0.0154,0.0388,-0.2632,657,2019-08-07 16:57:57:290
3.0548,9.5589,0.3753,-0.5329,-0.1176,-0.3041,-0.0154,0.0388,-0.2632,663,2019-08-07 16:57:57:296
3.0548,9.5589,0.3753,-0.5329,-0.1176,-0.3041,-0.0548,0.1315,-0.3345,667,2019-08-07 16:57:57:300
3.0548,9.5589,0.3753,-0.5329,-0.1176,-0.3041,-0.0548,0.1315,-0.3345,673,2019-08-07 16:57:57:306
3.2844,9.4634,1.2474,-0.5329,-0.1176,-0.3041,0.0155,0.2615,-0.4474,678,2019-08-07 16:57:57:311
3.2844,9.4634,1.2474,-0.9282,0.1047,-1.3991,0.0155,0.2615,-0.4474,683,2019-08-07 16:57:57:316
3.2844,9.4634,1.2474,-0.9282,0.1047,-1.3991,0.0155,0.2615,-0.4474,687,2019-08-07 16:57:57:320
3.4662,9.4109,2.0628,-0.9282,0.1047,-1.3991,0.2935,0.2998,-0.5316,693,2019-08-07 16:57:57:326
3.4662,9.4109,2.0628,-0.9282,0.1047,-1.3991,0.2935,0.2998,-0.5316,698,2019-08-07 16:57:57:331
3.6815,9.43,3.7127,-1.3691,0.1084,-3.3877,0.5098,0.2072,-0.5646,703,2019-08-07 16:57:57:336
3.6815,9.43,3.7127,-1.3691,0.1084,-3.3877,0.5098,0.2072,-0.5646,708,2019-08-07 16:57:57:341
3.6815,9.43,3.7127,-1.3691,0.1084,-3.3877,0.7729,0.0623,-0.587,712,2019-08-07 16:57:57:345
3.1696,9.9551,4.5093,-1.3691,0.1084,-3.3877,0.7729,0.0623,-0.587,718,2019-08-07 16:57:57:351
3.1696,9.9551,4.5093,-0.6315,-0.6077,-4.7496,1.1042,0.0495,-0.5124,723,2019-08-07 16:57:57:356
2.5668,10.485,4.7639,-0.6315,-0.6077,-4.7496,1.1042,0.0495,-0.5124,728,2019-08-07 16:57:57:361
2.5668,10.485,4.7639,-0.6315,-0.6077,-4.7496,1.2512,0.0633,-0.4176,733,2019-08-07 16:57:57:366
2.5668,10.485,4.7639,-0.6315,-0.6077,-4.7496,1.2512,0.0633,-0.4176,738,2019-08-07 16:57:57:371
1.5095,11.8932,5.4144,0.6275,-2.3251,-5.7602,1.2651,-0.2381,-0.3633,743,2019-08-07 16:57:57:376
1.5095,11.8932,5.4144,0.6275,-2.3251,-5.7602,1.2651,-0.2381,-0.3633,748,2019-08-07 16:57:57:381
1.5669,12.4566,7.2433,0.6275,-2.3251,-5.7602,1.2416,-1.1798,-0.3377,753,2019-08-07 16:57:57:386
1.5669,12.4566,7.2433,0.6275,-2.3251,-5.7602,1.2416,-1.1798,-0.3377,759,2019-08-07 16:57:57:392
1.5669,12.4566,7.2433,-0.4189,-3.0255,-8.749,1.1532,-2.4049,-0.2152,763,2019-08-07 16:57:57:396
3.7198,12.3372,7.6676,-0.4189,-3.0255,-8.749,1.1532,-2.4049,-0.2152,767,2019-08-07 16:57:57:400
3.7198,12.3372,7.6676,-0.4189,-3.0255,-8.749,1.1532,-2.4049,-0.2152,773,2019-08-07 16:57:57:406
5.7244,11.9362,3.4251,-0.4189,-3.0255,-8.749,1.0627,-2.8182,-0.2046,778,2019-08-07 16:57:57:411
5.7244,11.9362,3.4251,-3.7758,-2.6898,-3.9692,1.0627,-2.8182,-0.2046,783,2019-08-07 16:57:57:416
5.7244,11.9362,3.4251,-3.7758,-2.6898,-3.9692,0.8752,-2.0129,-0.2908,788,2019-08-07 16:57:57:421
5.1455,13.4829,5.9187,-3.7758,-2.6898,-3.9692,0.8752,-2.0129,-0.2908,793,2019-08-07 16:57:57:426
5.1455,13.4829,5.9187,-3.7758,-2.6898,-3.9692,0.5311,-1.5793,-0.2482,798,2019-08-07 16:57:57:431
5.1455,13.4829,5.9187,-1.9254,-4.1384,-10.2954,0.5311,-1.5793,-0.2482,803,2019-08-07 16:57:57:436
3.1409,13.2968,9.2514,-1.9254,-4.1384,-10.2954,0.5311,-1.5793,-0.2482,807,2019-08-07 16:57:57:440
3.1409,13.2968,9.2514,-1.9254,-4.1384,-10.2954,0.0688,-1.8499,-0.0991,813,2019-08-07 16:57:57:446
3.1409,13.2968,9.2514,-1.9254,-4.1384,-10.2954,0.0688,-1.8499,-0.0991,817,2019-08-07 16:57:57:450
2.7773,12.5616,8.073,-1.2981,-2.7475,-8.9585,-0.2892,-1.5026,0.213,823,2019-08-07 16:57:57:456
2.7773,12.5616,8.073,-1.2981,-2.7475,-8.9585,-0.2892,-1.5026,0.213,828,2019-08-07 16:57:57:461
4.6145,10.9671,8.7046,-1.2981,-2.7475,-8.9585,-0.6247,-1.1873,0.457,832,2019-08-07 16:57:57:465
4.6145,10.9671,8.7046,-1.2981,-2.7475,-8.9585,-0.6247,-1.1873,0.457,838,2019-08-07 16:57:57:471
4.6145,10.9671,8.7046,-1.2981,-2.7475,-8.9585,-0.6247,-1.1873,0.457,842,2019-08-07 16:57:57:475
4.3274,9.8071,7.9787,-2.4408,-0.3664,-9.2753,-0.89,-0.7782,0.5976,848,2019-08-07 16:57:57:481
4.3274,9.8071,7.9787,-2.4408,-0.3664,-9.2753,-0.89,-0.7782,0.5976,852,2019-08-07 16:57:57:485
4.0882,9.1817,7.9645,-2.4408,-0.3664,-9.2753,-1.2596,-0.2594,0.7307,858,2019-08-07 16:57:57:491
4.0882,9.1817,7.9645,-1.7027,0.5098,-8.6069,-1.2596,-0.2594,0.7307,863,2019-08-07 16:57:57:496
4.0882,9.1817,7.9645,-1.7027,0.5098,-8.6069,-1.5483,-0.0411,0.7968,868,2019-08-07 16:57:57:501
3.0644,8.881,6.8002,-1.7027,0.5098,-8.6069,-1.5483,-0.0411,0.7968,872,2019-08-07 16:57:57:505
3.0644,8.881,6.8002,-1.7027,0.5098,-8.6069,-1.8199,0.2753,0.8341,878,2019-08-07 16:57:57:511
2.1841,8.6852,6.5268,0.0558,0.8606,-6.8363,-1.8199,0.2753,0.8341,882,2019-08-07 16:57:57:515
2.1841,8.6852,6.5268,0.0558,0.8606,-6.8363,-2.1108,0.6194,0.833,888,2019-08-07 16:57:57:521
2.1841,8.6852,6.5268,0.0558,0.8606,-6.8363,-2.1108,0.6194,0.833,892,2019-08-07 16:57:57:525
1.2416,9.3965,5.4097,0.0558,0.8606,-6.8363,-2.3217,0.6365,0.8032,898,2019-08-07 16:57:57:531
1.2416,9.3965,5.4097,1.6769,-0.0372,-3.9306,-2.3217,0.6365,0.8032,902,2019-08-07 16:57:57:535
0.4235,9.6543,3.4016,1.6769,-0.0372,-3.9306,-2.4847,0.7622,0.7414,908,2019-08-07 16:57:57:541
0.4235,9.6543,3.4016,1.6769,-0.0372,-3.9306,-2.4847,0.7622,0.7414,913,2019-08-07 16:57:57:546
0.4235,9.6543,3.4016,1.6769,-0.0372,-3.9306,-2.5688,1.0998,0.6519,918,2019-08-07 16:57:57:551
0.0838,9.6543,3.3686,2.4458,-0.235,-2.6918,-2.5688,1.0998,0.6519,922,2019-08-07 16:57:57:555
0.0838,9.6543,3.3686,2.4458,-0.235,-2.6918,-2.5667,1.3875,0.5518,928,2019-08-07 16:57:57:561
0.2369,9.8596,2.9773,2.4458,-0.235,-2.6918,-2.5667,1.3875,0.5518,933,2019-08-07 16:57:57:566
0.2369,9.8596,2.9773,2.4458,-0.235,-2.6918,-2.5667,1.3875,0.5518,938,2019-08-07 16:57:57:571
0.2369,9.8596,2.9773,1.7272,-0.7826,-0.9847,-2.5134,1.6133,0.3888,943,2019-08-07 16:57:57:576
0.9976,10.294,2.1053,1.7272,-0.7826,-0.9847,-2.5134,1.6133,0.3888,948,2019-08-07 16:57:57:581
0.9976,10.294,2.1053,1.7272,-0.7826,-0.9847,-2.4634,1.6847,0.2418,953,2019-08-07 16:57:57:586
0.9976,10.294,2.1053,1.7272,-0.7826,-0.9847,-2.4634,1.6847,0.2418,958,2019-08-07 16:57:57:591
1.7966,10.8478,1.8649,0.5218,-1.4246,0.4753,-2.3931,1.5473,0.1235,963,2019-08-07 16:57:57:596
1.7966,10.8478,1.8649,0.5218,-1.4246,0.4753,-2.3931,1.5473,0.1235,968,2019-08-07 16:57:57:601
2.4951,10.6521,0.2952,0.5218,-1.4246,0.4753,-2.3547,1.4013,0.0245,973,2019-08-07 16:57:57:606
2.4951,10.6521,0.2952,0.5218,-1.4246,0.4753,-2.3547,1.4013,0.0245,978,2019-08-07 16:57:57:611
2.4951,10.6521,0.2952,0.5218,-1.4246,0.4753,-2.3547,1.4013,0.0245,982,2019-08-07 16:57:57:615
3.007,10.5852,-0.888,-0.5367,-1.3704,3.2908,-2.3643,1.6133,-0.0789,988,2019-08-07 16:57:57:621
3.007,10.5852,-0.888,-0.5367,-1.3704,3.2908,-2.3643,1.6133,-0.0789,993,2019-08-07 16:57:57:626
3.007,10.5852,-0.888,-0.5367,-1.3704,3.2908,-2.2801,1.886,-0.1364,997,2019-08-07 16:57:57:630
3.0165,10.7093,-0.3506,-0.5367,-1.3704,3.2908,-2.2801,1.886,-0.1364,1002,2019-08-07 16:57:57:635
3.0165,10.7093,-0.3506,-0.6272,-1.1976,3.8264,-2.1576,1.8754,-0.0821,1008,2019-08-07 16:57:57:641
3.0596,9.2772,-2.6887,-0.6272,-1.1976,3.8264,-2.1576,1.8754,-0.0821,1012,2019-08-07 16:57:57:645
3.0596,9.2772,-2.6887,-0.6272,-1.1976,3.8264,-2.1001,1.8519,-0.0267,1018,2019-08-07 16:57:57:651
3.0596,9.2772,-2.6887,-0.6272,-1.1976,3.8264,-2.1001,1.8519,-0.0267,1023,2019-08-07 16:57:57:656
3.0596,8.3511,-3.0516,-0.8189,0.6194,6.3297,-1.9499,2.1576,-0.0352,1028,2019-08-07 16:57:57:661
3.0596,8.3511,-3.0516,-0.8189,0.6194,6.3297,-1.9499,2.1576,-0.0352,1032,2019-08-07 16:57:57:665
2.2128,8.3511,-2.0476,-0.8189,0.6194,6.3297,-1.8295,2.4325,-0.0096,1038,2019-08-07 16:57:57:671
2.2128,8.3511,-2.0476,0.4978,0.7124,4.8727,-1.8295,2.4325,-0.0096,1043,2019-08-07 16:57:57:676
1.1938,8.0551,-0.4826,0.4978,0.7124,4.8727,-1.723,2.522,-0.0011,1048,2019-08-07 16:57:57:681
1.1938,8.0551,-0.4826,0.4978,0.7124,4.8727,-1.723,2.522,-0.0011,1053,2019-08-07 16:57:57:686
1.1938,8.0551,-0.4826,0.4978,0.7124,4.8727,-1.5973,2.3845,-0.0437,1057,2019-08-07 16:57:57:690
0.2991,8.246,-0.1903,0.4978,0.7124,4.8727,-1.5973,2.3845,-0.0437,1063,2019-08-07 16:57:57:696
0.2991,8.246,-0.1903,2.0503,0.3664,4.6904,-1.4727,2.0852,-0.0735,1068,2019-08-07 16:57:57:701
-0.1889,8.0121,-0.7701,2.0503,0.3664,4.6904,-1.4727,2.0852,-0.0735,1073,2019-08-07 16:57:57:706
-0.1889,8.0121,-0.7701,2.0503,0.3664,4.6904,-1.331,1.5984,-0.1161,1078,2019-08-07 16:57:57:711
-0.1889,8.0121,-0.7701,2.0503,0.3664,4.6904,-1.331,1.5984,-0.1161,1083,2019-08-07 16:57:57:716
0.28,7.2483,-1.6328,1.4156,1.4002,5.9413,-1.331,1.5984,-0.1161,1087,2019-08-07 16:57:57:720
0.28,7.2483,-1.6328,1.4156,1.4002,5.9413,-1.0498,0.8271,-0.1044,1093,2019-08-07 16:57:57:726
0.28,7.2483,-1.6328,1.4156,1.4002,5.9413,-1.0498,0.8271,-0.1044,1098,2019-08-07 16:57:57:731
1.3325,6.5513,-2.7311,1.4156,1.4002,5.9413,-0.8016,0.4671,-0.0639,1103,2019-08-07 16:57:57:736
1.3325,6.5513,-2.7311,-0.2899,2.39,8.1344,-0.8016,0.4671,-0.0639,1108,2019-08-07 16:57:57:741
2.031,6.1026,-4.0981,-0.2899,2.39,8.1344,-0.4841,0.4309,-0.0693,1113,2019-08-07 16:57:57:746
2.031,6.1026,-4.0981,-0.2899,2.39,8.1344,-0.4841,0.4309,-0.0693,1117,2019-08-07 16:57:57:750
1.5143,5.6014,-4.4092,-0.2899,2.39,8.1344,-0.1166,0.5012,-0.0959,1123,2019-08-07 16:57:57:756
1.5143,5.6014,-4.4092,0.1702,3.1117,9.0813,-0.1166,0.5012,-0.0959,1127,2019-08-07 16:57:57:760
1.5143,5.6014,-4.4092,0.1702,3.1117,9.0813,0.171,0.4458,-0.1193,1133,2019-08-07 16:57:57:766
1.1651,5.4868,-4.6732,0.1702,3.1117,9.0813,0.171,0.4458,-0.1193,1138,2019-08-07 16:57:57:771
1.1651,5.4868,-4.6732,0.1702,3.1117,9.0813,0.171,0.4458,-0.1193,1142,2019-08-07 16:57:57:775
1.1651,5.4868,-4.6732,0.4159,2.5809,7.592,0.415,0.0676,-0.1556,1148,2019-08-07 16:57:57:781
1.0359,6.1217,-3.3533,0.4159,2.5809,7.592,0.415,0.0676,-0.1556,1152,2019-08-07 16:57:57:785
1.0359,6.1217,-3.3533,0.4159,2.5809,7.592,0.5226,-0.3862,-0.1385,1158,2019-08-07 16:57:57:791
1.5574,6.2363,-3.3675,0.4159,2.5809,7.592,0.5226,-0.3862,-0.1385,1162,2019-08-07 16:57:57:795
1.5574,6.2363,-3.3675,-0.7421,2.2421,5.9235,0.5652,-0.4725,-0.1417,1168,2019-08-07 16:57:57:801
1.5574,6.2363,-3.3675,-0.7421,2.2421,5.9235,0.5652,-0.4725,-0.1417,1173,2019-08-07 16:57:57:806
1.7679,6.6898,4.5989,-0.7421,2.2421,5.9235,0.6451,-0.4235,-0.2088,1177,2019-08-07 16:57:57:810
1.7679,6.6898,4.5989,-0.7421,2.2421,5.9235,0.6451,-0.4235,-0.2088,1183,2019-08-07 16:57:57:816
7.552,10.7428,12.5605,-5.9711,-1.9482,-8.5117,1.3279,-0.9817,-0.0288,1187,2019-08-07 16:57:57:820
7.552,10.7428,12.5605,-5.9711,-1.9482,-8.5117,1.3279,-0.9817,-0.0288,1193,2019-08-07 16:57:57:826
7.552,10.7428,12.5605,-5.9711,-1.9482,-8.5117,0.7356,-4.4971,0.0532,1197,2019-08-07 16:57:57:830
5.2604,11.1008,32.0945,-5.9711,-1.9482,-8.5117,0.7356,-4.4971,0.0532,1203,2019-08-07 16:57:57:836
5.2604,11.1008,32.0945,-1.9939,-5.0195,13.1255,0.7356,-4.4971,0.0532,1208,2019-08-07 16:57:57:841
4.3753,20.3859,-12.8752,-1.9939,-5.0195,13.1255,2.276,-1.6794,0.1129,1213,2019-08-07 16:57:57:846
4.3753,20.3859,-12.8752,-1.9939,-5.0195,13.1255,2.276,-1.6794,0.1129,1218,2019-08-07 16:57:57:851
4.3753,20.3859,-12.8752,-1.9939,-5.0195,13.1255,2.7458,1.0796,-0.3835,1223,2019-08-07 16:57:57:856
4.2365,26.3102,-15.6375,-0.251,-16.8621,19.4984,2.7458,1.0796,-0.3835,1228,2019-08-07 16:57:57:861
4.2365,26.3102,-15.6375,-0.251,-16.8621,19.4984,2.8576,3.0461,-0.7383,1233,2019-08-07 16:57:57:866
-4.6287,20.3668,10.015,-0.251,-16.8621,19.4984,2.8576,3.0461,-0.7383,1238,2019-08-07 16:57:57:871
-4.6287,20.3668,10.015,-0.251,-16.8621,19.4984,2.8576,3.0461,-0.7383,1243,2019-08-07 16:57:57:876
-4.6287,20.3668,10.015,5.7905,-7.3404,10.8418,2.0555,0.2072,0.2642,1247,2019-08-07 16:57:57:880
-4.1215,16.5907,-8.0341,5.7905,-7.3404,10.8418,2.0555,0.2072,0.2642,1252,2019-08-07 16:57:57:885
-4.1215,16.5907,-8.0341,5.7905,-7.3404,10.8418,3.1037,-1.7402,1.2474,1258,2019-08-07 16:57:57:891
-4.1215,16.5907,-8.0341,5.7905,-7.3404,10.8418,3.1037,-1.7402,1.2474,1262,2019-08-07 16:57:57:895
7.6661,11.583,9.0014,-0.7767,2.3618,10.5971,2.4315,-0.5993,0.1065,1268,2019-08-07 16:57:57:901
7.6661,11.583,9.0014,-0.7767,2.3618,10.5971,2.4315,-0.5993,0.1065,1273,2019-08-07 16:57:57:906
7.6661,11.583,9.0014,-0.7767,2.3618,10.5971,2.4315,-0.5993,0.1065,1278,2019-08-07 16:57:57:911
5.671,0.0781,0.1065,-0.7767,2.3618,10.5971,2.0661,-0.4395,-0.1524,1282,2019-08-07 16:57:57:915
5.671,0.0781,0.1065,0.4647,7.912,11.187,2.0661,-0.4395,-0.1524,1288,2019-08-07 16:57:57:921
5.671,5.1288,-13.0168,0.4647,7.912,11.187,1.5708,-1.412,0.6594,1293,2019-08-07 16:57:57:926
3.3841,5.1288,-13.0168,0.4647,7.912,11.187,1.5708,-1.412,0.6594,1297,2019-08-07 16:57:57:930
3.3841,5.1288,-13.0168,0.4647,7.912,11.187,0.7026,0.2072,0.3707,1303,2019-08-07 16:57:57:936
0.9107,18.0516,-10.4619,0.4647,7.912,11.187,0.7026,0.2072,0.3707,1308,2019-08-07 16:57:57:941
0.9107,18.0516,-10.4619,2.9605,-10.1627,0.6567,0.1849,1.3768,-0.1311,1313,2019-08-07 16:57:57:946
-1.448,17.7651,-0.5488,2.9605,-10.1627,0.6567,0.1849,1.3768,-0.1311,1318,2019-08-07 16:57:57:951
-1.448,17.7651,-0.5488,2.9605,-10.1627,0.6567,0.8848,-0.399,0.3036,1323,2019-08-07 16:57:57:956
-1.448,17.7651,-0.5488,2.9605,-10.1627,0.6567,0.8848,-0.399,0.3036,1328,2019-08-07 16:57:57:961
4.9055,8.7713,1.9684,-2.0753,-1.0378,1.3754,0.236,-1.4685,0.36,1332,2019-08-07 16:57:57:965
4.9055,8.7713,1.9684,-2.0753,-1.0378,1.3754,0.236,-1.4685,0.36,1338,2019-08-07 16:57:57:971
4.9055,8.7713,1.9684,-2.0753,-1.0378,1.3754,0.236,-1.4685,0.36,1343,2019-08-07 16:57:57:976
5.3791,7.9549,-4.9986,-2.0753,-1.0378,1.3754,0.3766,-0.9476,0.0298,1347,2019-08-07 16:57:57:980
5.3791,7.9549,-4.9986,-4.0229,-0.0565,7.2634,0.3766,-0.9476,0.0298,1353,2019-08-07 16:57:57:986
4.3409,9.831,-1.0296,-4.0229,-0.0565,7.2634,0.0901,0.661,-0.0618,1358,2019-08-07 16:57:57:991
4.3409,9.831,-1.0296,-4.0229,-0.0565,7.2634,0.0901,0.661,-0.0618,1363,2019-08-07 16:57:57:996
4.3409,9.831,-1.0296,-4.0229,-0.0565,7.2634,6.0E-4,0.9741,-0.1875,1368,2019-08-07 16:57:58:001
-0.4816,10.4755,-0.1905,2.6525,-0.9838,1.387,6.0E-4,0.9741,-0.1875,1373,2019-08-07 16:57:58:006
-0.4816,10.4755,-0.1905,2.6525,-0.9838,1.387,-0.3179,0.2924,-0.0576,1378,2019-08-07 16:57:58:011
-0.1084,10.8097,0.6815,2.2509,-1.3157,0.5474,-0.3179,0.2924,-0.0576,1384,2019-08-07 16:57:58:017
-0.1084,10.8097,0.6815,2.2509,-1.3157,0.5474,-0.5288,-0.3425,0.0096,1388,2019-08-07 16:57:58:021
-0.1084,10.8097,0.6815,2.2509,-1.3157,0.5474,-0.5288,-0.3425,0.0096,1392,2019-08-07 16:57:58:025
2.4081,10.7572,-0.2518,-1.4271,-1.2033,2.6853,-0.6513,-0.3606,0.0149,1399,2019-08-07 16:57:58:032
2.4081,10.7572,-0.2518,-1.4271,-1.2033,2.6853,-0.6513,-0.3606,0.0149,1402,2019-08-07 16:57:58:035
4.006,10.7381,-1.7602,-1.4271,-1.2033,2.6853,-0.6513,-0.3606,0.0149,1408,2019-08-07 16:57:58:041
4.006,10.7381,-1.7602,-1.4271,-1.2033,2.6853,-0.8239,-0.0528,-0.0416,1413,2019-08-07 16:57:58:046
4.006,10.7381,-1.7602,-1.4271,-1.2033,2.6853,-0.8239,-0.0528,-0.0416,1418,2019-08-07 16:57:58:051
3.5036,11.0006,-1.2229,-1.3497,-1.5384,2.659,-0.9912,-0.0474,-0.1172,1423,2019-08-07 16:57:58:056
3.5036,11.0006,-1.2229,-1.3497,-1.5384,2.659,-0.9912,-0.0474,-0.1172,1427,2019-08-07 16:57:58:060
3.5036,11.0006,-1.2229,-1.3919,-1.5361,3.9126,-1.217,-0.0304,-0.1747,1432,2019-08-07 16:57:58:065
3.628,10.824,-2.7077,-1.3919,-1.5361,3.9126,-1.217,-0.0304,-0.1747,1438,2019-08-07 16:57:58:071
3.628,10.824,-2.7077,-1.3919,-1.5361,3.9126,-1.217,-0.0304,-0.1747,1442,2019-08-07 16:57:58:075
3.7094,10.2416,-2.2788,-1.3919,-1.5361,3.9126,-1.5749,0.2114,-0.3995,1448,2019-08-07 16:57:58:081
3.7094,10.2416,-2.2788,-1.0279,-0.9377,3.9692,-1.6388,0.2604,-0.5817,1452,2019-08-07 16:57:58:085
3.7094,10.2416,-2.2788,-1.0279,-0.9377,3.9692,-1.6388,0.2604,-0.5817,1458,2019-08-07 16:57:58:091
1.9727,11.373,-2.3778,-1.0279,-0.9377,3.9692,-1.6388,0.2604,-0.5817,1462,2019-08-07 16:57:58:095
1.9727,11.373,-2.3778,-1.0279,-0.9377,3.9692,-1.8018,0.3701,-0.5444,1467,2019-08-07 16:57:58:100
1.2742,12.4471,-0.9966,0.5393,-2.9667,3.8912,-1.8018,0.3701,-0.5444,1473,2019-08-07 16:57:58:106
1.2742,12.4471,-0.9966,0.5393,-2.9667,3.8912,-1.9414,0.4767,-0.3974,1477,2019-08-07 16:57:58:110
1.2742,12.4471,-0.9966,0.5393,-2.9667,3.8912,-1.9414,0.4767,-0.3974,1482,2019-08-07 16:57:58:115
0.724,13.4019,-1.5104,0.5393,-2.9667,3.8912,-2.0373,0.351,-0.228,1488,2019-08-07 16:57:58:121
0.724,13.4019,-1.5104,0.5393,-2.9667,3.8912,-2.0373,0.351,-0.228,1493,2019-08-07 16:57:58:126
0.724,13.4019,-1.5104,0.8979,-4.5314,3.4279,-2.0373,0.351,-0.228,1497,2019-08-07 16:57:58:130
1.4512,13.9413,-0.8033,0.8979,-4.5314,3.4279,-2.1353,0.1294,0.0511,1502,2019-08-07 16:57:58:135
1.4512,13.9413,-0.8033,0.8979,-4.5314,3.4279,-2.1353,0.1294,0.0511,1508,2019-08-07 16:57:58:141
1.9391,13.168,-0.0161,0.0431,-3.7263,2.0713,-2.2152,0.2572,0.1512,1512,2019-08-07 16:57:58:145
1.9391,13.168,-0.0161,0.0431,-3.7263,2.0713,-2.2152,0.2572,0.1512,1518,2019-08-07 16:57:58:151
1.7191,11.5496,2.1286,0.0431,-3.7263,2.0713,-2.261,0.155,0.1033,1523,2019-08-07 16:57:58:156
1.7191,11.5496,2.1286,0.0431,-3.7263,2.0713,-2.261,0.155,0.1033,1529,2019-08-07 16:57:58:162
1.7191,11.5496,2.1286,-0.6401,-1.0117,1.4186,-2.278,-0.1497,0.1534,1533,2019-08-07 16:57:58:166
2.9917,9.7499,1.431,-0.6401,-1.0117,1.4186,-2.278,-0.1497,0.1534,1538,2019-08-07 16:57:58:171
2.9917,9.7499,1.431,-0.6401,-1.0117,1.4186,-2.278,-0.1497,0.1534,1542,2019-08-07 16:57:58:175
2.9917,9.7499,1.431,-1.6833,-0.5795,2.5213,-2.261,0.0729,0.2151,1548,2019-08-07 16:57:58:181
4.226,9.812,1.2424,-1.6833,-0.5795,2.5213,-2.261,0.0729,0.2151,1552,2019-08-07 16:57:58:185
4.226,9.812,1.2424,-1.6833,-0.5795,2.5213,-2.1044,0.7877,0.1033,1558,2019-08-07 16:57:58:191
3.6519,11.0627,2.3313,-1.3212,-2.5977,1.5476,-2.1044,0.7877,0.1033,1563,2019-08-07 16:57:58:196
3.6519,11.0627,2.3313,-1.3212,-2.5977,1.5476,-1.8839,0.8197,-0.0096,1568,2019-08-07 16:57:58:201
3.6519,11.0627,2.3313,-1.3212,-2.5977,1.5476,-1.8839,0.8197,-0.0096,1572,2019-08-07 16:57:58:205
0.9822,11.9459,2.897,-1.3212,-2.5977,1.5476,-1.5291,0.1603,0.1374,1578,2019-08-07 16:57:58:211
0.9822,11.9459,2.897,0.9069,-1.8441,0.3726,-1.5291,0.1603,0.1374,1583,2019-08-07 16:57:58:216
1.6712,9.2009,0.1394,0.9069,-1.8441,0.3726,-1.5291,0.1603,0.1374,1587,2019-08-07 16:57:58:220
1.6712,9.2009,0.1394,0.9069,-1.8441,0.3726,-0.9933,-0.791,0.229,1593,2019-08-07 16:57:58:226
1.6712,9.2009,0.1394,0.9069,-1.8441,0.3726,-0.9933,-0.791,0.229,1598,2019-08-07 16:57:58:231
3.006,7.8165,-5.9791,-0.8249,1.2648,10.5145,-0.4596,-1.1053,0.2759,1602,2019-08-07 16:57:58:235
3.006,7.8165,-5.9791,-0.8249,1.2648,10.5145,-0.4596,-1.1053,0.2759,1608,2019-08-07 16:57:58:241
1.4128,6.5419,-7.1811,-0.8249,1.2648,10.5145,0.4437,-1.4824,0.3174,1613,2019-08-07 16:57:58:246
1.4128,6.5419,-7.1811,-0.8249,1.2648,10.5145,0.4437,-1.4824,0.3174,1617,2019-08-07 16:57:58:250
1.4128,6.5419,-7.1811,0.0368,0.7321,5.8107,1.3247,-2.0395,0.2961,1623,2019-08-07 16:57:58:256
1.9869,8.3273,4.1179,0.0368,0.7321,5.8107,1.3247,-2.0395,0.2961,1628,2019-08-07 16:57:58:261
1.9869,8.3273,4.1179,0.0368,0.7321,5.8107,1.6219,-3.2571,0.1885,1633,2019-08-07 16:57:58:266
1.9869,8.3273,4.1179,0.0368,0.7321,5.8107,1.6219,-3.2571,0.1885,1638,2019-08-07 16:57:58:271
2.2979,9.4635,-5.1684,0.0368,0.7321,5.8107,1.6219,-3.2571,0.1885,1642,2019-08-07 16:57:58:275
2.2979,9.4635,-5.1684,-0.2863,-0.2096,8.1801,1.6113,-2.6573,0.0415,1648,2019-08-07 16:57:58:281
5.0631,9.0482,-4.7205,-0.2863,-0.2096,8.1801,2.1801,-1.4408,0.0042,1653,2019-08-07 16:57:58:286
5.0631,9.0482,-4.7205,-0.2863,-0.2096,8.1801,2.1801,-1.4408,0.0042,1657,2019-08-07 16:57:58:290
5.0631,9.0482,-4.7205,-2.0411,-1.0555,5.4425,2.1801,-1.4408,0.0042,1663,2019-08-07 16:57:58:296
4.2785,10.1652,-2.6512,-2.0411,-1.0555,5.4425,2.4901,-0.8379,-0.0458,1668,2019-08-07 16:57:58:301
4.2785,10.1652,-2.6512,-2.0411,-1.0555,5.4425,2.4901,-0.8379,-0.0458,1672,2019-08-07 16:57:58:305
4.2785,10.1652,-2.6512,-2.0411,-1.0555,5.4425,2.4933,-0.285,-0.1375,1678,2019-08-07 16:57:58:311
1.8768,11.0579,-1.1663,-2.0411,-1.0555,5.4425,2.4933,-0.285,-0.1375,1682,2019-08-07 16:57:58:315
1.8768,11.0579,-1.1663,1.0371,-2.1099,2.7634,2.6957,5.0E-4,-0.1726,1688,2019-08-07 16:57:58:321
1.5515,11.6022,0.196,1.0371,-2.1099,2.7634,2.6957,5.0E-4,-0.1726,1693,2019-08-07 16:57:58:326
1.5515,11.6022,0.196,1.0067,-2.4221,2.1599,2.6691,-0.1167,-0.1641,1698,2019-08-07 16:57:58:331
1.5515,11.6022,0.196,1.0067,-2.4221,2.1599,2.6691,-0.1167,-0.1641,1703,2019-08-07 16:57:58:336
1.6472,11.5258,-0.0633,1.0067,-2.4221,2.1599,2.6946,-0.0411,-0.1683,1707,2019-08-07 16:57:58:340
1.6472,11.5258,-0.0633,1.0067,-2.4221,2.1599,2.6946,-0.0411,-0.1683,1713,2019-08-07 16:57:58:346
1.274,11.2775,0.1158,1.1013,-2.0197,2.0511,2.6946,-0.0411,-0.1683,1718,2019-08-07 16:57:58:351
1.274,11.2775,0.1158,1.1013,-2.0197,2.0511,2.6925,0.3275,-0.2333,1723,2019-08-07 16:57:58:356
1.274,11.2775,0.1158,1.771,-1.5701,0.6341,2.6925,0.3275,-0.2333,1728,2019-08-07 16:57:58:361
0.3602,10.8192,1.2613,1.771,-1.5701,0.6341,2.6797,0.1827,-0.2653,1732,2019-08-07 16:57:58:365
0.3602,10.8192,1.2613,1.771,-1.5701,0.6341,2.6797,0.1827,-0.2653,1738,2019-08-07 16:57:58:371
0.3602,10.8192,1.2613,1.771,-1.5701,0.6341,2.6797,0.1827,-0.2653,1743,2019-08-07 16:57:58:376
-0.2379,10.6713,1.2141,2.6934,-1.0955,-0.0551,2.6062,-0.1891,-0.3239,1748,2019-08-07 16:57:58:381
-0.2379,10.6713,1.2141,2.6934,-1.0955,-0.0551,2.6062,-0.1891,-0.3239,1753,2019-08-07 16:57:58:386
0.0492,10.509,1.1623,2.6934,-1.0955,-0.0551,2.504,-0.3393,-0.3622,1757,2019-08-07 16:57:58:390
0.0492,10.509,1.1623,2.6934,-1.0955,-0.0551,2.504,-0.3393,-0.3622,1763,2019-08-07 16:57:58:396
0.0492,10.509,1.1623,1.9581,-0.8056,-0.8189,2.3559,-0.448,-0.3739,1767,2019-08-07 16:57:58:400
0.4654,10.1987,1.3367,1.9581,-0.8056,-0.8189,2.3559,-0.448,-0.3739,1773,2019-08-07 16:57:58:406
0.4654,10.1987,1.3367,1.9581,-0.8056,-0.8189,2.2078,-0.4331,-0.391,1777,2019-08-07 16:57:58:410
0.7237,10.1891,1.5488,1.9581,-0.8056,-0.8189,2.2078,-0.4331,-0.391,1782,2019-08-07 16:57:58:415
0.7237,10.1891,1.5488,1.4633,-0.6135,-1.6506,2.0182,-0.2946,-0.4102,1788,2019-08-07 16:57:58:421
0.7237,10.1891,1.5488,1.4633,-0.6135,-1.6506,2.0182,-0.2946,-0.4102,1792,2019-08-07 16:57:58:425
0.8625,10.0841,2.468,1.4633,-0.6135,-1.6506,1.8904,-0.285,-0.4166,1798,2019-08-07 16:57:58:431
0.8625,10.0841,2.468,1.4633,-0.6135,-1.6506,1.8904,-0.285,-0.4166,1803,2019-08-07 16:57:58:436
0.8625,10.0841,2.468,1.022,-0.2196,-3.0513,1.8904,-0.285,-0.4166,1808,2019-08-07 16:57:58:441
1.1208,9.769,2.7367,1.022,-0.2196,-3.0513,1.7657,-0.269,-0.4283,1812,2019-08-07 16:57:58:445
1.1208,9.769,2.7367,1.022,-0.2196,-3.0513,1.7657,-0.269,-0.4283,1817,2019-08-07 16:57:58:450
1.4414,9.6783,3.0714,1.022,-0.2196,-3.0513,1.656,-0.1785,-0.4379,1822,2019-08-07 16:57:58:455
1.4414,9.6783,3.0714,0.5272,-0.0852,-3.729,1.656,-0.1785,-0.4379,1828,2019-08-07 16:57:58:461
1.6662,9.5924,3.2646,0.5272,-0.0852,-3.729,1.5761,-0.0805,-0.4432,1833,2019-08-07 16:57:58:466
1.6662,9.5924,3.2646,0.5272,-0.0852,-3.729,1.5761,-0.0805,-0.4432,1838,2019-08-07 16:57:58:471
1.6662,9.5924,3.2646,0.5272,-0.0852,-3.729,1.4845,0.0048,-0.424,1842,2019-08-07 16:57:58:475
1.8911,9.8931,2.9441,0.0701,-0.3219,-3.8278,1.4845,0.0048,-0.424,1848,2019-08-07 16:57:58:481
1.8911,9.8931,2.9441,0.0701,-0.3219,-3.8278,1.3183,0.106,-0.3441,1853,2019-08-07 16:57:58:486
1.8911,9.8931,2.9441,0.0701,-0.3219,-3.8278,1.3183,0.106,-0.3441,1857,2019-08-07 16:57:58:490
2.8527,10.4517,4.198,0.0701,-0.3219,-3.8278,1.3183,0.106,-0.3441,1863,2019-08-07 16:57:58:496
2.8527,10.4517,4.198,-0.9934,-0.2796,-5.9647,1.1958,0.3147,-0.2909,1868,2019-08-07 16:57:58:501
2.9196,9.5876,4.0141,-0.9934,-0.2796,-5.9647,1.1958,0.3147,-0.2909,1873,2019-08-07 16:57:58:506
2.9196,9.5876,4.0141,-1.0777,-0.1433,-5.0756,1.133,0.6034,-0.2632,1878,2019-08-07 16:57:58:511
2.9196,9.5876,4.0141,-1.0777,-0.1433,-5.0756,1.133,0.6034,-0.2632,1883,2019-08-07 16:57:58:516
3.1541,10.614,3.9387,-1.0777,-0.1433,-5.0756,1.133,0.6034,-0.2632,1887,2019-08-07 16:57:58:520
3.1541,10.614,3.9387,-1.0777,-0.1433,-5.0756,0.9007,0.7377,-0.2216,1893,2019-08-07 16:57:58:526
3.1541,10.614,3.9387,-1.0777,-0.1433,-5.0756,0.9007,0.7377,-0.2216,1898,2019-08-07 16:57:58:531
3.3741,11.459,5.4094,-1.5083,-1.9173,-6.7179,0.7601,0.8367,-0.1577,1902,2019-08-07 16:57:58:535
3.3741,11.459,5.4094,-1.5083,-1.9173,-6.7179,0.7601,0.8367,-0.1577,1908,2019-08-07 16:57:58:541
3.4937,10.8049,7.8653,-1.5083,-1.9173,-6.7179,0.529,0.9592,0.0042,1912,2019-08-07 16:57:58:545
3.4937,10.8049,7.8653,-1.2886,-0.9003,-8.5946,0.529,0.9592,0.0042,1917,2019-08-07 16:57:58:550
3.4937,10.8049,7.8653,-1.2886,-0.9003,-8.5946,0.3905,0.8953,0.0543,1923,2019-08-07 16:57:58:556
2.6326,11.3444,7.4128,-1.2886,-0.9003,-8.5946,0.3905,0.8953,0.0543,1928,2019-08-07 16:57:58:561
2.6326,11.3444,7.4128,-1.2886,-0.9003,-8.5946,0.1881,0.548,0.1693,1933,2019-08-07 16:57:58:566
2.6326,11.3444,7.4128,-1.034,-1.6414,-8.8943,0.1881,0.548,0.1693,1937,2019-08-07 16:57:58:570
3.0966,11.0341,7.3609,-1.034,-1.6414,-8.8943,0.073,0.4309,0.197,1943,2019-08-07 16:57:58:576
3.0966,11.0341,7.3609,-1.034,-1.6414,-8.8943,0.073,0.4309,0.197,1948,2019-08-07 16:57:58:581
3.111,10.6331,7.7521,-1.034,-1.6414,-8.8943,0.073,0.4309,0.197,1953,2019-08-07 16:57:58:586
3.111,10.6331,7.7521,-1.034,-1.6414,-8.8943,-0.0644,0.4511,0.2269,1958,2019-08-07 16:57:58:591
3.111,10.6331,7.7521,-0.9045,-0.6803,-9.6834,-0.0644,0.4511,0.2269,1963,2019-08-07 16:57:58:596
2.7186,9.9361,8.1387,-0.9045,-0.6803,-9.6834,-0.1571,0.2711,0.3025,1968,2019-08-07 16:57:58:601
2.7186,9.9361,8.1387,-0.9045,-0.6803,-9.6834,-0.1571,0.2711,0.3025,1973,2019-08-07 16:57:58:606
2.0441,9.4969,9.1191,0.0186,0.0248,-10.2678,-0.3829,0.2796,0.3749,1978,2019-08-07 16:57:58:611
2.0441,9.4969,9.1191,0.0186,0.0248,-10.2678,-0.3829,0.2796,0.3749,1983,2019-08-07 16:57:58:616
2.0441,9.4969,9.1191,0.0186,0.0248,-10.2678,-0.8005,0.3669,0.3653,1987,2019-08-07 16:57:58:620
0.8863,9.1484,13.3333,0.0186,0.0248,-10.2678,-0.8005,0.3669,0.3653,1993,2019-08-07 16:57:58:626
0.8863,9.1484,13.3333,1.6922,-0.0675,-15.0935,-0.8005,0.3669,0.3653,1998,2019-08-07 16:57:58:631
0.8863,9.1484,13.3333,1.6922,-0.0675,-15.0935,-1.3832,-0.0208,0.3941,2003,2019-08-07 16:57:58:636
0.647,9.664,15.4451,1.6922,-0.0675,-15.0935,-1.3832,-0.0208,0.3941,2008,2019-08-07 16:57:58:641
0.647,9.664,15.4451,1.2453,0.3596,-15.5511,-1.7283,-0.0549,0.4474,2014,2019-08-07 16:57:58:647
0.647,9.664,15.4451,1.2453,0.3596,-15.5511,-1.7283,-0.0549,0.4474,2017,2019-08-07 16:57:58:650
2.4124,6.9334,1.2942,1.2453,0.3596,-15.5511,-1.6399,-0.0123,0.4889,2023,2019-08-07 16:57:58:656
2.4124,6.9334,1.2942,-2.1624,-1.0176,1.9321,-1.6399,-0.0123,0.4889,2028,2019-08-07 16:57:58:661
4.7423,10.466,-2.8728,-2.1624,-1.0176,1.9321,-1.3267,-0.2413,0.5571,2033,2019-08-07 16:57:58:666
4.7423,10.466,-2.8728,-2.1624,-1.0176,1.9321,-1.3267,-0.2413,0.5571,2038,2019-08-07 16:57:58:671
4.7423,10.466,-2.8728,-2.1624,-1.0176,1.9321,-1.3267,-0.2413,0.5571,2042,2019-08-07 16:57:58:675
4.2782,10.6856,-5.5125,-1.9731,-2.2634,2.9789,-1.005,-0.1572,0.4101,2048,2019-08-07 16:57:58:681
4.2782,10.6856,-5.5125,-1.9731,-2.2634,2.9789,-1.005,-0.1572,0.4101,2053,2019-08-07 16:57:58:686
4.1826,11.3301,7.9737,-1.9731,-2.2634,2.9789,-0.7408,-0.1902,0.2769,2057,2019-08-07 16:57:58:690
4.1826,11.3301,7.9737,-1.9731,-2.2634,2.9789,-0.7408,-0.1902,0.2769,2063,2019-08-07 16:57:58:696
3.3644,10.6856,5.037,-1.9731,-2.2634,2.9789,-0.7131,-0.203,0.2365,2067,2019-08-07 16:57:58:700
3.3644,10.6856,5.037,-0.938,-1.4408,-3.0091,-0.7131,-0.203,0.2365,2073,2019-08-07 16:57:58:706
3.3644,10.6856,5.037,-0.938,-1.4408,-3.0091,-0.7131,-0.203,0.2365,2077,2019-08-07 16:57:58:710
3.685,10.657,1.3461,-1.2196,-1.1619,-1.3095,-0.7238,0.3137,0.2897,2082,2019-08-07 16:57:58:715
3.685,10.657,1.3461,-1.2196,-1.1619,-1.3095,-0.7238,0.3137,0.2897,2088,2019-08-07 16:57:58:721
3.685,10.657,1.3461,-1.2196,-1.1619,-1.3095,-0.7238,0.3137,0.2897,2092,2019-08-07 16:57:58:725
1.7856,11.8504,1.2518,-1.2196,-1.1619,-1.3095,-0.532,0.3392,0.1704,2098,2019-08-07 16:57:58:731
1.7856,11.8504,1.2518,1.7619,-2.49,-3.761,-0.532,0.3392,0.1704,2102,2019-08-07 16:57:58:735
0.5178,10.8145,3.2599,1.7619,-2.49,-3.761,-0.4511,-0.3415,0.2279,2108,2019-08-07 16:57:58:741
0.5178,10.8145,3.2599,1.7619,-2.49,-3.761,-0.4511,-0.3415,0.2279,2113,2019-08-07 16:57:58:746
0.5178,10.8145,3.2599,1.7619,-2.49,-3.761,-0.483,-0.8677,0.2865,2118,2019-08-07 16:57:58:751
2.0774,8.7856,0.6531,0.4612,0.6868,-0.3993,-0.483,-0.8677,0.2865,2123,2019-08-07 16:57:58:756
2.0774,8.7856,0.6531,0.4612,0.6868,-0.3993,-0.4362,-0.7313,0.2258,2128,2019-08-07 16:57:58:761
3.6467,8.9002,-0.5112,0.4612,0.6868,-0.3993,-0.4362,-0.7313,0.2258,2133,2019-08-07 16:57:58:766
3.6467,8.9002,-0.5112,0.4612,0.6868,-0.3993,-0.3701,-0.1476,0.1811,2137,2019-08-07 16:57:58:770
3.6467,8.9002,-0.5112,-1.5358,0.2706,-0.1151,-0.3701,-0.1476,0.1811,2143,2019-08-07 16:57:58:776
4.1299,9.1246,0.5259,-1.5358,0.2706,-0.1151,-0.3701,0.0548,0.1906,2149,2019-08-07 16:57:58:782
4.1299,9.1246,0.5259,-1.5358,0.2706,-0.1151,-0.3701,0.0548,0.1906,2152,2019-08-07 16:57:58:785
4.1299,9.1246,0.5259,-1.5358,0.2706,-0.1151,-0.3701,0.0548,0.1906,2158,2019-08-07 16:57:58:791
3.3165,9.0339,0.243,-0.3601,0.309,0.0622,-0.3467,0.2104,0.1289,2163,2019-08-07 16:57:58:796
3.3165,9.0339,0.243,-0.3601,0.309,0.0622,-0.3467,0.2104,0.1289,2167,2019-08-07 16:57:58:800
2.2783,9.9027,1.5252,-0.3601,0.309,0.0622,-0.2998,0.27,0.1203,2173,2019-08-07 16:57:58:806
2.2783,9.9027,1.5252,-0.3601,0.309,0.0622,-0.2998,0.27,0.1203,2178,2019-08-07 16:57:58:811
2.2783,9.9027,1.5252,0.2473,-0.5876,-0.8741,-0.2998,0.27,0.1203,2183,2019-08-07 16:57:58:816
2.4841,9.9552,1.2235,0.2473,-0.5876,-0.8741,-0.3254,-0.0826,0.1342,2187,2019-08-07 16:57:58:820
2.4841,9.9552,1.2235,0.2473,-0.5876,-0.8741,-0.3254,-0.0826,0.1342,2193,2019-08-07 16:57:58:826
2.9768,9.8741,1.1434,0.2473,-0.5876,-0.8741,-0.3424,-0.22,0.1012,2198,2019-08-07 16:57:58:831
2.9768,9.8741,1.1434,-0.5036,-0.3493,-0.2857,-0.3424,-0.22,0.1012,2203,2019-08-07 16:57:58:836
2.9768,9.8741,1.1434,-0.5036,-0.3493,-0.2857,-0.3424,-0.22,0.1012,2207,2019-08-07 16:57:58:840
3.4026,9.5113,0.6484,-0.5036,-0.3493,-0.2857,-0.2785,-0.073,0.0937,2213,2019-08-07 16:57:58:846
3.4026,9.5113,0.6484,-0.5036,-0.3493,-0.2857,-0.2785,-0.073,0.0937,2218,2019-08-07 16:57:58:851
3.1538,9.2821,1.1245,-0.4574,0.1331,-0.5597,-0.2316,0.0644,0.0724,2223,2019-08-07 16:57:58:856
3.1538,9.2821,1.1245,-0.4574,0.1331,-0.5597,-0.2316,0.0644,0.0724,2227,2019-08-07 16:57:58:860
2.9337,9.368,1.4733,-0.4574,0.1331,-0.5597,-0.2093,0.0761,0.0767,2233,2019-08-07 16:57:58:866
2.9337,9.368,1.4733,-0.4574,0.1331,-0.5597,-0.2093,0.0761,0.0767,2238,2019-08-07 16:57:58:871
2.9337,9.368,1.4733,-0.2114,0.1349,-0.7983,-0.1688,0.0388,0.0862,2242,2019-08-07 16:57:58:875
3.0485,9.1771,1.1858,-0.2114,0.1349,-0.7983,-0.1688,0.0388,0.0862,2249,2019-08-07 16:57:58:882
3.0485,9.1771,1.1858,-0.2114,0.1349,-0.7983,-0.1166,0.1443,0.0841,2252,2019-08-07 16:57:58:885
3.0485,9.1771,1.1858,-0.2114,0.1349,-0.7983,-0.1166,0.1443,0.0841,2258,2019-08-07 16:57:58:891
3.0725,9.3537,1.0019,-0.2326,-0.0205,-0.4761,-0.0804,0.2625,0.0724,2263,2019-08-07 16:57:58:896
3.0725,9.3537,1.0019,-0.2326,-0.0205,-0.4761,-0.0804,0.2625,0.0724,2268,2019-08-07 16:57:58:901
2.4417,9.5255,1.464,-0.2326,-0.0205,-0.4761,-0.0804,0.2625,0.0724,2272,2019-08-07 16:57:58:905
2.4417,9.5255,1.464,-0.2326,-0.0205,-0.4761,-0.0378,0.3254,0.0831,2278,2019-08-07 16:57:58:911
2.4417,9.5255,1.464,0.4549,-0.2209,-0.8914,-0.0378,0.3254,0.0831,2282,2019-08-07 16:57:58:915
2.3317,9.7021,1.6479,0.4549,-0.2209,-0.8914,-0.0154,0.221,0.0916,2288,2019-08-07 16:57:58:921
2.3317,9.7021,1.6479,0.4549,-0.2209,-0.8914,-0.0154,0.221,0.0916,2292,2019-08-07 16:57:58:925
2.3317,9.7021,1.6479,0.4549,-0.2209,-0.8914,0.0176,0.0857,0.1044,2298,2019-08-07 16:57:58:931
2.6809,9.6783,1.6573,-0.0947,-0.2454,-0.8112,0.0176,0.0857,0.1044,2303,2019-08-07 16:57:58:936
2.6809,9.6783,1.6573,-0.0947,-0.2454,-0.8112,0.0432,-0.0251,0.1086,2308,2019-08-07 16:57:58:941
2.6809,9.6783,1.6573,-0.0947,-0.2454,-0.8112,0.0432,-0.0251,0.1086,2312,2019-08-07 16:57:58:945
3.0445,9.5016,1.0681,-0.28,-0.1148,-0.3753,0.0581,-0.0134,0.098,2318,2019-08-07 16:57:58:951
3.0445,9.5016,1.0681,-0.28,-0.1148,-0.3753,0.0581,-0.0134,0.098,2323,2019-08-07 16:57:58:956
3.0158,9.4444,0.8277,-0.28,-0.1148,-0.3753,0.0879,0.0282,0.0809,2327,2019-08-07 16:57:58:960
3.0158,9.4444,0.8277,-0.2374,-0.1194,-0.3733,0.0879,0.0282,0.0809,2333,2019-08-07 16:57:58:966
3.0158,9.4444,0.8277,-0.2374,-0.1194,-0.3733,0.0975,0.009,0.0767,2338,2019-08-07 16:57:58:971
3.0493,9.5351,1.0539,-0.2374,-0.1194,-0.3733,0.0975,0.009,0.0767,2343,2019-08-07 16:57:58:976
3.0493,9.5351,1.0539,-0.3061,-0.1975,-0.3292,0.0975,-0.0379,0.0649,2347,2019-08-07 16:57:58:980
3.0828,9.6114,0.8937,-0.3061,-0.1975,-0.3292,0.0975,-0.0379,0.0649,2353,2019-08-07 16:57:58:986
3.0828,9.6114,0.8937,-0.3061,-0.1975,-0.3292,0.0975,-0.0379,0.0649,2358,2019-08-07 16:57:58:991
3.0828,9.6114,0.8937,-0.3061,-0.1975,-0.3292,0.1061,-0.0251,0.0564,2363,2019-08-07 16:57:58:996
3.0732,9.6258,0.8465,-0.2685,-0.248,-0.1933,0.1061,-0.0251,0.0564,2368,2019-08-07 16:57:59:001
3.0732,9.6258,0.8465,-0.2685,-0.248,-0.1933,0.1082,0.0239,0.066,2373,2019-08-07 16:57:59:006
2.6522,9.5064,0.3893,-0.2685,-0.248,-0.1933,0.1082,0.0239,0.066,2378,2019-08-07 16:57:59:011
2.6522,9.5064,0.3893,0.3267,-0.1833,0.344,0.0901,0.0825,0.0703,2383,2019-08-07 16:57:59:016
2.6522,9.5064,0.3893,0.3267,-0.1833,0.344,0.0901,0.0825,0.0703,2387,2019-08-07 16:57:59:020
2.3221,9.8788,0.4411,0.3267,-0.1833,0.344,0.0571,0.0804,0.0777,2393,2019-08-07 16:57:59:026
2.3221,9.8788,0.4411,0.3267,-0.1833,0.344,0.0571,0.0804,0.0777,2398,2019-08-07 16:57:59:031
2.3221,9.8788,0.4411,0.3267,-0.1833,0.344,0.0571,0.0804,0.0777,2403,2019-08-07 16:57:59:036
2.3891,10.2129,0.7051,0.4661,-0.7873,0.0623,0.0123,-0.0453,0.1012,2408,2019-08-07 16:57:59:041
2.3891,10.2129,0.7051,0.4661,-0.7873,0.0623,0.0123,-0.0453,0.1012,2413,2019-08-07 16:57:59:046
2.8484,9.7021,0.5826,0.4661,-0.7873,0.0623,-0.0047,-0.1593,0.1108,2418,2019-08-07 16:57:59:051
2.8484,9.7021,0.5826,0.4661,-0.7873,0.0623,-0.0047,-0.1593,0.1108,2423,2019-08-07 16:57:59:056
2.8484,9.7021,0.5826,-0.346,-0.1008,0.2346,-0.0537,-0.2094,0.1022,2428,2019-08-07 16:57:59:061
3.432,9.4873,0.3422,-0.346,-0.1008,0.2346,-0.0537,-0.2094,0.1022,2432,2019-08-07 16:57:59:065
3.432,9.4873,0.3422,-0.346,-0.1008,0.2346,-0.0537,-0.2094,0.1022,2438,2019-08-07 16:57:59:071
3.432,9.4873,0.3422,-0.346,-0.1008,0.2346,-0.0633,-0.0773,0.0671,2442,2019-08-07 16:57:59:075
3.5086,9.7499,0.1489,-0.5921,-0.3652,0.5029,-0.0633,-0.0773,0.0671,2448,2019-08-07 16:57:59:081
3.5086,9.7499,0.1489,-0.5921,-0.3652,0.5029,-0.0804,0.0655,0.049,2453,2019-08-07 16:57:59:086
2.9919,9.7737,0.6721,-0.5921,-0.3652,0.5029,-0.0804,0.0655,0.049,2457,2019-08-07 16:57:59:090
2.9919,9.7737,0.6721,-0.5921,-0.3652,0.5029,-0.0846,0.0857,0.033,2463,2019-08-07 16:57:59:096
2.5613,9.7165,1.2943,0.2145,-0.3641,-0.4302,-0.0846,0.0857,0.033,2468,2019-08-07 16:57:59:101
2.5613,9.7165,1.2943,0.2145,-0.3641,-0.4302,-0.1006,-0.0496,0.0298,2473,2019-08-07 16:57:59:106
2.5613,9.7165,1.2943,0.2145,-0.3641,-0.4302,-0.1006,-0.0496,0.0298,2477,2019-08-07 16:57:59:110
2.8819,9.5876,1.1718,0.2145,-0.3641,-0.4302,-0.0953,-0.1476,0.0255,2483,2019-08-07 16:57:59:116
2.8819,9.5876,1.1718,-0.1302,-0.2141,-0.4955,-0.0953,-0.1476,0.0255,2488,2019-08-07 16:57:59:121
2.8819,9.5876,1.1718,-0.1302,-0.2141,-0.4955,-0.0804,-0.1433,0.0032,2493,2019-08-07 16:57:59:126
3.4847,9.3059,1.0869,-0.1302,-0.2141,-0.4955,-0.0804,-0.1433,0.0032,2498,2019-08-07 16:57:59:131
3.4847,9.3059,1.0869,-0.1302,-0.2141,-0.4955,-0.0569,-0.0709,-0.0128,2502,2019-08-07 16:57:59:135
3.4847,9.3059,1.0869,-0.7698,-0.1212,0.1687,-0.0569,-0.0709,-0.0128,2508,2019-08-07 16:57:59:141
3.5325,9.282,0.6627,-0.7698,-0.1212,0.1687,-0.0516,0.0804,-0.032,2513,2019-08-07 16:57:59:146
3.5325,9.282,0.6627,-0.569,0.2078,-0.4896,-0.0516,0.0804,-0.032,2518,2019-08-07 16:57:59:151
3.5325,9.282,0.6627,-0.569,0.2078,-0.4896,-0.0516,0.0804,-0.032,2522,2019-08-07 16:57:59:155
3.0924,9.5255,0.724,-0.569,0.2078,-0.4896,-0.025,0.1763,-0.0458,2528,2019-08-07 16:57:59:161
3.0924,9.5255,0.724,-0.569,0.2078,-0.4896,-0.025,0.1763,-0.0458,2533,2019-08-07 16:57:59:166
2.3317,9.5685,1.4216,0.4259,-0.1867,-0.5756,-0.0346,0.1379,-0.0384,2538,2019-08-07 16:57:59:171
2.3317,9.5685,1.4216,0.4259,-0.1867,-0.5756,-0.0346,0.1379,-0.0384,2542,2019-08-07 16:57:59:175
2.3317,9.5685,1.4216,0.4259,-0.1867,-0.5756,-0.0346,0.1379,-0.0384,2548,2019-08-07 16:57:59:181
2.4896,9.621,1.0492,0.4259,-0.1867,-0.5756,-0.0143,-0.0091,-0.016,2552,2019-08-07 16:57:59:185
2.4896,9.621,1.0492,0.096,-0.1704,-0.3505,-0.0143,-0.0091,-0.016,2558,2019-08-07 16:57:59:191
2.4896,9.621,1.0492,0.096,-0.1704,-0.3505,-0.0154,-0.0815,-0.0299,2563,2019-08-07 16:57:59:196
3.1306,9.5971,1.4688,0.096,-0.1704,-0.3505,-0.0154,-0.0815,-0.0299,2568,2019-08-07 16:57:59:201
3.1306,9.5971,1.4688,0.096,-0.1704,-0.3505,0.0315,-0.0474,-0.0576,2572,2019-08-07 16:57:59:205
3.7,9.3441,0.3374,-0.8791,-0.0403,0.1711,0.0315,-0.0474,-0.0576,2578,2019-08-07 16:57:59:211
3.7,9.3441,0.3374,-0.8791,-0.0403,0.1711,0.0326,0.1166,-0.0757,2583,2019-08-07 16:57:59:216
3.7,9.3441,0.3374,-0.8791,-0.0403,0.1711,0.0326,0.1166,-0.0757,2587,2019-08-07 16:57:59:220
3.4464,9.2248,0.4176,-0.8791,-0.0403,0.1711,0.0411,0.3201,-0.1034,2593,2019-08-07 16:57:59:226
3.4464,9.2248,0.4176,-0.1996,0.1788,0.3989,0.0411,0.3201,-0.1034,2598,2019-08-07 16:57:59:231
3.4464,9.2248,0.4176,-0.1996,0.1788,0.3989,0.0411,0.3201,-0.1034,2603,2019-08-07 16:57:59:236
2.4465,9.368,0.7145,-0.1996,0.1788,0.3989,0.0049,0.3499,-0.0991,2608,2019-08-07 16:57:59:241
2.4465,9.368,0.7145,-0.1996,0.1788,0.3989,0.0049,0.3499,-0.0991,2613,2019-08-07 16:57:59:246
2.4465,9.368,0.7145,0.4445,-0.4115,-0.5303,-0.0378,0.14,-0.0863,2618,2019-08-07 16:57:59:251
2.4561,9.9026,1.2708,0.4445,-0.4115,-0.5303,-0.0378,0.14,-0.0863,2622,2019-08-07 16:57:59:255
2.4561,9.9026,1.2708,0.042,-0.7861,-0.1988,-0.0516,-0.057,-0.0927,2628,2019-08-07 16:57:59:261
3.0828,10.2368,0.7051,0.042,-0.7861,-0.1988,-0.0516,-0.057,-0.0927,2633,2019-08-07 16:57:59:266
3.0828,10.2368,0.7051,0.042,-0.7861,-0.1988,-0.0441,-0.0368,-0.1023,2638,2019-08-07 16:57:59:271
3.0828,10.2368,0.7051,0.042,-0.7861,-0.1988,-0.0441,-0.0368,-0.1023,2643,2019-08-07 16:57:59:276
3.145,9.8119,0.2762,-0.1963,-0.3132,0.49,-0.0463,0.1081,-0.1225,2648,2019-08-07 16:57:59:281
3.145,9.8119,0.2762,-0.1963,-0.3132,0.49,-0.0463,0.1081,-0.1225,2653,2019-08-07 16:57:59:286
3.145,9.8119,0.2762,-0.1963,-0.3132,0.49,-0.0463,0.1081,-0.1225,2658,2019-08-07 16:57:59:291
2.5852,9.6258,0.8277,-0.1963,-0.3132,0.49,-0.058,0.2892,-0.113,2663,2019-08-07 16:57:59:296
2.5852,9.6258,0.8277,0.4743,-0.4835,-0.4939,-0.058,0.2892,-0.113,2668,2019-08-07 16:57:59:301
2.1977,9.831,1.3603,0.4743,-0.4835,-0.4939,-0.0686,0.1443,-0.097,2672,2019-08-07 16:57:59:305
2.1977,9.831,1.3603,0.4743,-0.4835,-0.4939,-0.0686,0.1443,-0.097,2678,2019-08-07 16:57:59:311
2.1977,9.831,1.3603,0.4743,-0.4835,-0.4939,-0.0655,0.0261,-0.0778,2683,2019-08-07 16:57:59:316
2.346,9.6449,1.5065,0.3617,-0.2354,-0.7225,-0.0655,0.0261,-0.0778,2687,2019-08-07 16:57:59:320
2.346,9.6449,1.5065,0.3617,-0.2354,-0.7225,-0.0463,-0.0261,-0.0682,2693,2019-08-07 16:57:59:326
2.523,9.2868,1.1152,0.3617,-0.2354,-0.7225,-0.0463,-0.0261,-0.0682,2697,2019-08-07 16:57:59:330
2.523,9.2868,1.1152,0.3617,-0.2354,-0.7225,-0.0463,-0.0751,-0.0384,2703,2019-08-07 16:57:59:336
2.523,9.2868,1.1152,0.3617,-0.2354,-0.7225,-0.0463,-0.0751,-0.0384,2708,2019-08-07 16:57:59:341
3.0589,9.3632,0.889,-0.2948,0.0152,-0.0867,-0.0463,-0.0751,-0.0384,2713,2019-08-07 16:57:59:346
3.0589,9.3632,0.889,-0.2948,0.0152,-0.0867,-0.0335,-0.0272,-0.0565,2718,2019-08-07 16:57:59:351
3.1928,9.3346,0.9078,-0.2948,0.0152,-0.0867,-0.0335,-0.0272,-0.0565,2722,2019-08-07 16:57:59:355
3.1928,9.3346,0.9078,-0.2948,0.0152,-0.0867,-0.0207,0.0665,-0.0682,2728,2019-08-07 16:57:59:361
3.1928,9.3346,0.9078,-0.6143,-0.0832,-0.3252,-0.0207,0.0665,-0.0682,2733,2019-08-07 16:57:59:366
3.4033,9.621,1.0162,-0.6143,-0.0832,-0.3252,-0.0207,0.0665,-0.0682,2738,2019-08-07 16:57:59:371
3.4033,9.621,1.0162,-0.6143,-0.0832,-0.3252,0.008,0.1347,-0.0895,2743,2019-08-07 16:57:59:376
3.2311,9.6878,1.3462,-0.6143,-0.0832,-0.3252,0.008,0.1347,-0.0895,2748,2019-08-07 16:57:59:381
3.2311,9.6878,1.3462,-0.4476,-0.2036,-0.4966,0.0453,0.204,-0.1161,2752,2019-08-07 16:57:59:385
3.2311,9.6878,1.3462,-0.4476,-0.2036,-0.4966,0.0453,0.204,-0.1161,2758,2019-08-07 16:57:59:391
2.8723,9.3202,1.0492,-0.4476,-0.2036,-0.4966,0.0592,0.2444,-0.1151,2763,2019-08-07 16:57:59:396
2.8723,9.3202,1.0492,-0.4476,-0.2036,-0.4966,0.0592,0.2444,-0.1151,2768,2019-08-07 16:57:59:401
2.657,9.6687,1.0398,-0.0655,-0.2016,-0.0871,0.0379,0.1933,-0.1151,2772,2019-08-07 16:57:59:405
2.657,9.6687,1.0398,-0.0655,-0.2016,-0.0871,0.0379,0.1933,-0.1151,2778,2019-08-07 16:57:59:411
2.657,9.6687,1.0398,-0.0655,-0.2016,-0.0871,0.0475,0.091,-0.1225,2783,2019-08-07 16:57:59:416
2.2838,9.9217,1.2331,-0.0655,-0.2016,-0.0871,0.0475,0.091,-0.1225,2788,2019-08-07 16:57:59:421
2.2838,9.9217,1.2331,0.3662,-0.4088,-0.5239,0.0517,0.0037,-0.1247,2793,2019-08-07 16:57:59:426
2.2838,9.9217,1.2331,0.3662,-0.4088,-0.5239,0.0517,0.0037,-0.1247,2798,2019-08-07 16:57:59:431
2.236,9.7403,1.3321,0.3662,-0.4088,-0.5239,0.04,-0.1156,-0.1098,2803,2019-08-07 16:57:59:436
2.236,9.7403,1.3321,0.3662,-0.4088,-0.5239,0.04,-0.1156,-0.1098,2808,2019-08-07 16:57:59:441
2.236,9.7403,1.3321,0.1368,-0.0242,-0.4336,0.04,-0.1156,-0.1098,2812,2019-08-07 16:57:59:445
2.5805,9.3393,1.2566,0.1368,-0.0242,-0.4336,0.0389,-0.2296,-0.1023,2817,2019-08-07 16:57:59:450
2.5805,9.3393,1.2566,0.1368,-0.0242,-0.4336,0.0389,-0.2296,-0.1023,2823,2019-08-07 16:57:59:456
2.7527,9.5828,0.3987,0.1368,-0.0242,-0.4336,0.0507,-0.1348,-0.0895,2827,2019-08-07 16:57:59:460
2.7527,9.5828,0.3987,-0.1414,-0.1855,0.4148,0.0507,-0.1348,-0.0895,2833,2019-08-07 16:57:59:466
2.7527,9.5828,0.3987,-0.1414,-0.1855,0.4148,0.056,0.1177,-0.0842,2838,2019-08-07 16:57:59:471
2.6379,9.7785,0.7994,-0.1414,-0.1855,0.4148,0.056,0.1177,-0.0842,2843,2019-08-07 16:57:59:476
2.6379,9.7785,0.7994,-0.1414,-0.1855,0.4148,0.0634,0.1241,-0.0906,2848,2019-08-07 16:57:59:481
2.6379,9.7785,0.7994,0.2462,-0.4614,-0.5098,0.0634,0.1241,-0.0906,2852,2019-08-07 16:57:59:485
2.2503,9.8358,1.2566,0.2462,-0.4614,-0.5098,0.0634,0.1241,-0.0906,2858,2019-08-07 16:57:59:491
2.2503,9.8358,1.2566,0.2462,-0.4614,-0.5098,0.0539,0.0154,-0.0735,2862,2019-08-07 16:57:59:495
2.2838,9.5828,0.625,0.2462,-0.4614,-0.5098,0.0539,0.0154,-0.0735,2868,2019-08-07 16:57:59:501
2.2838,9.5828,0.625,0.1435,-0.251,0.2794,0.0262,-0.0059,-0.0501,2873,2019-08-07 16:57:59:506
2.4561,9.8215,0.5684,0.1435,-0.251,0.2794,0.0262,-0.0059,-0.0501,2878,2019-08-07 16:57:59:511
2.4561,9.8215,0.5684,0.1435,-0.251,0.2794,0.008,0.0143,-0.0544,2883,2019-08-07 16:57:59:516
2.4561,9.8215,0.5684,0.1435,-0.251,0.2794,0.008,0.0143,-0.0544,2888,2019-08-07 16:57:59:521
2.4082,9.8453,0.9408,0.1651,-0.4098,-0.1758,0.0049,-0.007,-0.0437,2893,2019-08-07 16:57:59:526
2.4082,9.8453,0.9408,0.1651,-0.4098,-0.1758,0.0049,-0.007,-0.0437,2898,2019-08-07 16:57:59:531
2.4082,9.8453,0.9408,0.1651,-0.4098,-0.1758,-0.0218,-0.0549,-0.0267,2903,2019-08-07 16:57:59:536
2.4704,9.7212,0.9502,0.1651,-0.4098,-0.1758,-0.0218,-0.0549,-0.0267,2907,2019-08-07 16:57:59:540
2.4704,9.7212,0.9502,0.0522,-0.2742,-0.2172,-0.0218,-0.0549,-0.0267,2913,2019-08-07 16:57:59:546
2.4704,9.7212,0.9502,0.0522,-0.2742,-0.2172,-0.025,-0.0964,-0.032,2917,2019-08-07 16:57:59:550
2.6379,9.6258,0.9078,0.0522,-0.2742,-0.2172,-0.025,-0.0964,-0.032,2923,2019-08-07 16:57:59:556
2.6379,9.6258,0.9078,0.0522,-0.2742,-0.2172,-0.0218,-0.1263,-0.0299,2928,2019-08-07 16:57:59:561
3.0876,9.1579,0.3799,-0.5245,0.2803,0.3856,-0.0218,-0.1263,-0.0299,2933,2019-08-07 16:57:59:566
3.0876,9.1579,0.3799,-0.5245,0.2803,0.3856,-0.0378,-0.007,-0.0842,2937,2019-08-07 16:57:59:570
3.0876,9.1579,0.3799,-0.5245,0.2803,0.3856,-0.0378,-0.007,-0.0842,2943,2019-08-07 16:57:59:576
2.9441,9.5541,0.6344,-0.5245,0.2803,0.3856,-0.0271,0.1645,-0.1012,2948,2019-08-07 16:57:59:581
2.9441,9.5541,0.6344,-0.4288,-0.1747,-0.0403,-0.0271,0.1645,-0.1012,2953,2019-08-07 16:57:59:586
2.9441,9.5541,0.6344,-0.4288,-0.1747,-0.0403,-0.0271,0.1645,-0.1012,2957,2019-08-07 16:57:59:590
2.8197,9.5637,1.0209,-0.4288,-0.1747,-0.0403,-0.0154,0.2327,-0.1279,2963,2019-08-07 16:57:59:596
2.8197,9.5637,1.0209,-0.4288,-0.1747,-0.0403,-0.0154,0.2327,-0.1279,2967,2019-08-07 16:57:59:600
2.8197,9.5637,1.0209,-0.0683,-0.0685,-0.1798,-0.0133,0.1858,-0.1385,2973,2019-08-07 16:57:59:606
2.6762,9.5207,1.1011,-0.0683,-0.0685,-0.1798,-0.0133,0.1858,-0.1385,2978,2019-08-07 16:57:59:611
2.6762,9.5207,1.1011,-0.0683,-0.0685,-0.1798,-0.0165,0.2082,-0.146,2982,2019-08-07 16:57:59:615
2.6762,9.5207,1.1011,-0.0683,-0.0685,-0.1798,-0.0165,0.2082,-0.146,2988,2019-08-07 16:57:59:621
2.0255,10.2654,1.1152,0.101,-0.4767,-0.288,0.0027,0.2189,-0.1087,2993,2019-08-07 16:57:59:626
2.0255,10.2654,1.1152,0.101,-0.4767,-0.288,0.0027,0.2189,-0.1087,2998,2019-08-07 16:57:59:631
2.3317,9.8453,0.9738,0.101,-0.4767,-0.288,0.0027,0.2189,-0.1087,3003,2019-08-07 16:57:59:636
2.3317,9.8453,0.9738,0.101,-0.4767,-0.288,0.007,0.1475,-0.097,3007,2019-08-07 16:57:59:640
2.3317,9.8453,0.9738,0.101,-0.4767,-0.288,0.007,0.1475,-0.097,3014,2019-08-07 16:57:59:647
2.3317,9.8453,0.9738,0.101,-0.4767,-0.288,0.007,0.1475,-0.097,3017,2019-08-07 16:57:59:650
2.2121,9.8979,0.9314,0.254,-0.4377,-0.1194,6.0E-4,0.1006,-0.0735,3023,2019-08-07 16:57:59:656
2.2121,9.8979,0.9314,0.254,-0.4377,-0.1194,6.0E-4,0.1006,-0.0735,3027,2019-08-07 16:57:59:660
2.2121,9.8979,0.9314,0.254,-0.4377,-0.1194,-0.0047,0.025,-0.0437,3033,2019-08-07 16:57:59:666
2.413,9.6305,1.0681,0.254,-0.4377,-0.1194,-0.0047,0.025,-0.0437,3037,2019-08-07 16:57:59:670
2.413,9.6305,1.0681,-0.0083,-0.0992,0.0507,-0.0037,0.0026,-0.0458,3043,2019-08-07 16:57:59:676
2.4991,9.4921,0.6863,-0.0083,-0.0992,0.0507,-0.0037,0.0026,-0.0458,3047,2019-08-07 16:57:59:680
2.4991,9.4921,0.6863,-0.0083,-0.0992,0.0507,-0.0143,0.0378,-0.0512,3053,2019-08-07 16:57:59:686
2.4991,9.4921,0.6863,-0.0083,-0.0992,0.0507,-0.0143,0.0378,-0.0512,3057,2019-08-07 16:57:59:690
2.4226,9.6114,0.889,0.1438,-0.24,0.0304,-0.0111,0.0687,-0.0565,3063,2019-08-07 16:57:59:696
2.4226,9.6114,0.889,0.1438,-0.24,0.0304,-0.0111,0.0687,-0.0565,3067,2019-08-07 16:57:59:700
2.4369,9.621,1.0021,0.1438,-0.24,0.0304,-0.026,0.057,-0.0608,3073,2019-08-07 16:57:59:706
2.4369,9.621,1.0021,0.1438,-0.24,0.0304,-0.026,0.057,-0.0608,3078,2019-08-07 16:57:59:711
2.4369,9.621,1.0021,0.0397,-0.3089,-0.0418,-0.0271,0.0293,-0.0618,3083,2019-08-07 16:57:59:716
2.3843,9.7785,0.8701,0.0397,-0.3089,-0.0418,-0.0271,0.0293,-0.0618,3088,2019-08-07 16:57:59:721
2.3843,9.7785,0.8701,0.0397,-0.3089,-0.0418,-0.0271,0.0293,-0.0618,3093,2019-08-07 16:57:59:726
2.4465,9.6258,1.0257,0.0397,-0.3089,-0.0418,-0.0303,0.0463,-0.0618,3097,2019-08-07 16:57:59:730
2.4465,9.6258,1.0257,0.0217,-0.0437,-0.3443,-0.0175,0.0591,-0.065,3103,2019-08-07 16:57:59:736
2.4465,9.6258,1.0257,0.0217,-0.0437,-0.3443,-0.0175,0.0591,-0.065,3108,2019-08-07 16:57:59:741
2.4465,9.5016,0.9832,0.0217,-0.0437,-0.3443,-0.0175,0.0591,-0.065,3113,2019-08-07 16:57:59:746
2.4465,9.5016,0.9832,0.0217,-0.0437,-0.3443,-0.0282,0.0516,-0.064,3117,2019-08-07 16:57:59:750
2.5996,9.6592,0.7098,-0.1539,-0.2989,0.092,-0.0335,0.0815,-0.0703,3123,2019-08-07 16:57:59:756
2.5996,9.6592,0.7098,-0.1539,-0.2989,0.092,-0.0335,0.0815,-0.0703,3127,2019-08-07 16:57:59:760
2.4178,9.8167,0.7664,-0.1539,-0.2989,0.092,-0.0335,0.1155,-0.0821,3133,2019-08-07 16:57:59:766
2.4178,9.8167,0.7664,-0.1539,-0.2989,0.092,-0.0335,0.1155,-0.0821,3138,2019-08-07 16:57:59:771
2.4178,9.8167,0.7664,-0.1539,-0.2989,0.092,-0.0335,0.1155,-0.0821,3143,2019-08-07 16:57:59:776
2.3317,9.8215,0.988,0.0155,-0.2574,-0.08,-0.0463,0.1209,-0.0757,3148,2019-08-07 16:57:59:781
2.3317,9.8215,0.988,0.0155,-0.2574,-0.08,-0.0463,0.1209,-0.0757,3152,2019-08-07 16:57:59:785
2.3317,9.8215,0.988,0.0155,-0.2574,-0.08,-0.0463,0.0996,-0.065,3158,2019-08-07 16:57:59:791
2.2408,9.7881,1.2142,0.0155,-0.2574,-0.08,-0.0463,0.0996,-0.065,3162,2019-08-07 16:57:59:795
2.2408,9.7881,1.2142,-0.0049,-0.1642,-0.1685,-0.0527,0.0729,-0.0522,3169,2019-08-07 16:57:59:802
2.3269,9.7785,1.2991,-0.0049,-0.1642,-0.1685,-0.0527,0.0729,-0.0522,3173,2019-08-07 16:57:59:806
2.3269,9.7785,1.2991,-0.0049,-0.1642,-0.1685,-0.042,0.0442,-0.0565,3178,2019-08-07 16:57:59:811
2.3269,9.7785,1.2991,-0.0049,-0.1642,-0.1685,-0.042,0.0442,-0.0565,3182,2019-08-07 16:57:59:815
2.2982,9.7308,1.4452,0.0548,-0.2484,-0.5598,-0.042,0.0442,-0.0565,3188,2019-08-07 16:57:59:821
2.2982,9.7308,1.4452,0.0548,-0.2484,-0.5598,-0.0196,0.0335,-0.048,3192,2019-08-07 16:57:59:825
2.5039,9.6305,1.1341,0.0548,-0.2484,-0.5598,-0.0196,0.0335,-0.048,3198,2019-08-07 16:57:59:831
2.5039,9.6305,1.1341,0.0548,-0.2484,-0.5598,-0.0165,0.0303,-0.0437,3202,2019-08-07 16:57:59:835
2.5039,9.6305,1.1341,-0.2654,-0.1131,-0.0481,-0.0165,0.0303,-0.0437,3208,2019-08-07 16:57:59:841
2.6379,9.6592,0.8135,-0.2654,-0.1131,-0.0481,-0.0133,0.0442,-0.0586,3213,2019-08-07 16:57:59:846
2.6379,9.6592,0.8135,-0.2654,-0.1131,-0.0481,-0.0133,0.0442,-0.0586,3217,2019-08-07 16:57:59:850
2.4322,9.6496,1.0398,-0.2654,-0.1131,-0.0481,-0.0207,0.0921,-0.0618,3223,2019-08-07 16:57:59:856
2.4322,9.6496,1.0398,-0.052,-0.087,-0.1269,-0.0207,0.0921,-0.0618,3228,2019-08-07 16:57:59:861
2.4322,9.6496,1.0398,-0.052,-0.087,-0.1269,-0.0207,0.1113,-0.0608,3233,2019-08-07 16:57:59:866
2.3795,9.7069,0.988,-0.052,-0.087,-0.1269,-0.0207,0.1113,-0.0608,3238,2019-08-07 16:57:59:871
2.3795,9.7069,0.988,-0.052,-0.087,-0.1269,-0.0303,0.1187,-0.0682,3243,2019-08-07 16:57:59:876
2.2934,9.8549,0.9455,0.0383,-0.3421,-0.0598,-0.0303,0.1187,-0.0682,3248,2019-08-07 16:57:59:881
2.2934,9.8549,0.9455,0.0383,-0.3421,-0.0598,-0.0378,0.1464,-0.0597,3253,2019-08-07 16:57:59:886
2.2934,9.8549,0.9455,0.0383,-0.3421,-0.0598,-0.0378,0.1464,-0.0597,3257,2019-08-07 16:57:59:890
2.2453,9.7165,0.8559,0.0383,-0.3421,-0.0598,-0.0452,0.1368,-0.0533,3263,2019-08-07 16:57:59:896
2.2453,9.7165,0.8559,0.1679,-0.3019,-0.0831,-0.0452,0.1368,-0.0533,3268,2019-08-07 16:57:59:901
0.078,10.5567,4.6222,0.1679,-0.3019,-0.0831,-0.2029,-0.4032,-0.0608,3272,2019-08-07 16:57:59:905
0.078,10.5567,4.6222,0.1679,-0.3019,-0.0831,-0.2029,-0.4032,-0.0608,3278,2019-08-07 16:57:59:911
0.078,10.5567,4.6222,0.1679,-0.3019,-0.0831,-0.2061,-1.2821,-0.0948,3283,2019-08-07 16:57:59:916
2.5658,9.7022,-0.8411,-0.2626,-0.2118,1.7711,-0.2061,-1.2821,-0.0948,3288,2019-08-07 16:57:59:921
2.5658,9.7022,-0.8411,-0.2626,-0.2118,1.7711,-0.0697,-0.1614,-0.1694,3293,2019-08-07 16:57:59:926
3.0347,9.8692,1.5441,-0.2626,-0.2118,1.7711,-0.0697,-0.1614,-0.1694,3298,2019-08-07 16:57:59:931
3.0347,9.8692,1.5441,-0.2626,-0.2118,1.7711,-0.091,-0.1966,-0.0256,3303,2019-08-07 16:57:59:936
3.0347,9.8692,1.5441,0.1441,-0.2807,-0.0836,-0.091,-0.1966,-0.0256,3308,2019-08-07 16:57:59:941
2.0013,9.6687,1.1293,0.1441,-0.2807,-0.0836,0.0017,-0.0368,0.0053,3313,2019-08-07 16:57:59:946
2.0013,9.6687,1.1293,0.1441,-0.2807,-0.0836,0.0017,-0.0368,0.0053,3318,2019-08-07 16:57:59:951
2.0013,9.6687,1.1293,0.1441,-0.2807,-0.0836,0.0656,0.1123,0.0053,3322,2019-08-07 16:57:59:955
2.4127,9.7976,1.134,-0.1582,-0.3185,-0.0622,0.0656,0.1123,0.0053,3328,2019-08-07 16:57:59:961
2.4127,9.7976,1.134,-0.1582,-0.3185,-0.0622,0.0677,0.1603,0.0085,3332,2019-08-07 16:57:59:965
2.4749,9.7213,0.6768,-0.1582,-0.3185,-0.0622,0.0677,0.1603,0.0085,3338,2019-08-07 16:57:59:971
2.4749,9.7213,0.6768,-0.1582,-0.3185,-0.0622,0.1146,0.3882,0.0362,3343,2019-08-07 16:57:59:976
2.6184,9.6735,0.8653,-0.2872,-0.1747,-0.0165,0.1146,0.3882,0.0362,3348,2019-08-07 16:57:59:981
2.6184,9.6735,0.8653,-0.2872,-0.1747,-0.0165,0.1146,0.3882,0.0362,3352,2019-08-07 16:57:59:985
2.6184,9.6735,0.8653,-0.2872,-0.1747,-0.0165,0.1433,0.531,0.0298,3358,2019-08-07 16:57:59:991
2.1735,9.7881,1.0492,-0.2872,-0.1747,-0.0165,0.1433,0.531,0.0298,3363,2019-08-07 16:57:59:996
2.1735,9.7881,1.0492,0.6551,-0.1257,-0.6152,0.0784,0.3403,0.0245,3367,2019-08-07 16:58:00:000
2.1735,9.7881,1.0492,0.6551,-0.1257,-0.6152,0.0784,0.3403,0.0245,3373,2019-08-07 16:58:00:006
1.6329,9.5924,1.8929,0.6551,-0.1257,-0.6152,0.0198,-0.1092,0.0245,3377,2019-08-07 16:58:00:010
1.6329,9.5924,1.8929,0.6551,-0.1257,-0.6152,0.0198,-0.1092,0.0245,3383,2019-08-07 16:58:00:016
1.6329,9.5924,1.8929,-0.0736,-0.3357,0.2665,-0.0015,-0.2935,0.0138,3387,2019-08-07 16:58:00:020
2.4462,9.8693,0.6626,-0.0736,-0.3357,0.2665,-0.0015,-0.2935,0.0138,3393,2019-08-07 16:58:00:026
2.4462,9.8693,0.6626,-0.0736,-0.3357,0.2665,0.0144,-0.0911,0.0404,3398,2019-08-07 16:58:00:031
2.4414,9.7069,1.2236,-0.0736,-0.3357,0.2665,0.0144,-0.0911,0.0404,3403,2019-08-07 16:58:00:036
2.4414,9.7069,1.2236,-0.0541,-0.1415,-0.1991,0.0144,-0.0911,0.0404,3408,2019-08-07 16:58:00:041