ACCELEROMETER X (m/s²),ACCELEROMETER Y (m/s²),ACCELEROMETER Z (m/s²),LINEAR ACCELERATION X (m/s²),LINEAR ACCELERATION Y (m/s²),LINEAR ACCELERATION Z (m/s²),GYROSCOPE X (rad/s),GYROSCOPE Y (rad/s),GYROSCOPE Z (rad/s),Time since start in ms ,YYYY-MO-DD HH-MI-SS_SSS
0.2146,9.8442,0.6793,-0.3056,-0.2014,0.3324,-0.0037,0.107,-0.0191,3,2019-08-07 17:05:42:748
0.1524,9.954,0.7359,-0.0459,-0.2012,0.3167,-0.0037,0.107,-0.0191,8,2019-08-07 17:05:42:753
0.1524,9.954,0.7359,-0.0459,-0.2012,0.3167,-0.0037,0.107,-0.0191,12,2019-08-07 17:05:42:757
-0.0677,9.8681,0.9433,-0.0459,-0.2012,0.3167,-0.0111,0.0953,-0.0149,18,2019-08-07 17:05:42:763
-0.0677,9.8681,0.9433,-0.0459,-0.2012,0.3167,-0.0111,0.0953,-0.0149,22,2019-08-07 17:05:42:767
-0.0677,9.8681,0.9433,0.2403,-0.2824,0.1667,-0.0037,0.0441,-0.0064,28,2019-08-07 17:05:42:773
-0.1107,9.9635,0.8208,0.2403,-0.2824,0.1667,-0.0037,0.0441,-0.0064,32,2019-08-07 17:05:42:777
-0.1107,9.9635,0.8208,0.2403,-0.2824,0.1667,-0.0069,0.0111,-0.0064,38,2019-08-07 17:05:42:783
-0.0964,9.9492,0.849,0.2403,-0.2824,0.1667,-0.0069,0.0111,-0.0064,42,2019-08-07 17:05:42:787
-0.0964,9.9492,0.849,0.0604,-0.1534,0.2082,-0.0016,-6.0E-4,0.0,48,2019-08-07 17:05:42:793
-0.0964,9.9492,0.849,0.0604,-0.1534,0.2082,-0.0016,-6.0E-4,0.0,52,2019-08-07 17:05:42:797
0.0759,9.8728,0.8208,0.0604,-0.1534,0.2082,-0.0037,-0.0134,0.0,58,2019-08-07 17:05:42:803
0.0759,9.8728,0.8208,0.0604,-0.1534,0.2082,-0.0037,-0.0134,0.0,62,2019-08-07 17:05:42:807
0.0759,9.8728,0.8208,-0.0445,-0.201,0.0896,0.0016,-0.0081,0.0054,68,2019-08-07 17:05:42:813
0.2338,9.954,0.8726,-0.0445,-0.201,0.0896,0.0016,-0.0081,0.0054,73,2019-08-07 17:05:42:818
0.2338,9.954,0.8726,-0.0445,-0.201,0.0896,0.0048,-0.0091,-0.0021,78,2019-08-07 17:05:42:823
0.2099,9.8394,0.7218,-0.0445,-0.201,0.0896,0.0048,-0.0091,-0.0021,83,2019-08-07 17:05:42:828
0.2099,9.8394,0.7218,-0.125,-0.1196,0.2991,6.0E-4,0.0356,-0.0021,87,2019-08-07 17:05:42:832
0.2099,9.8394,0.7218,-0.125,-0.1196,0.2991,6.0E-4,0.0356,-0.0021,93,2019-08-07 17:05:42:838
0.1764,9.8728,0.8208,-0.125,-0.1196,0.2991,-0.0069,0.0346,0.0011,98,2019-08-07 17:05:42:843
0.1764,9.8728,0.8208,-0.125,-0.1196,0.2991,-0.0069,0.0346,0.0011,102,2019-08-07 17:05:42:847
0.186,10.0733,1.014,-0.0871,-0.32,0.0343,-0.0069,0.0346,0.0011,108,2019-08-07 17:05:42:853
0.186,10.0733,1.014,-0.0871,-0.32,0.0343,0.0155,0.0111,-0.0042,113,2019-08-07 17:05:42:858
0.186,10.0733,1.014,-0.0871,-0.32,0.0343,0.0155,0.0111,-0.0042,118,2019-08-07 17:05:42:863
0.0233,9.9778,0.6888,-0.0871,-0.32,0.0343,0.0059,-6.0E-4,-0.0032,123,2019-08-07 17:05:42:868
0.0233,9.9778,0.6888,0.0315,-0.1954,0.4728,0.0059,-6.0E-4,-0.0032,127,2019-08-07 17:05:42:872
0.0377,9.9206,0.5945,0.0315,-0.1954,0.4728,-0.0048,0.0495,-0.001,133,2019-08-07 17:05:42:878
0.0377,9.9206,0.5945,0.0315,-0.1954,0.4728,-0.0048,0.0495,-0.001,137,2019-08-07 17:05:42:882
0.0223,10.0209,0.929,0.0315,-0.1954,0.4728,-0.0207,0.0271,-0.0021,144,2019-08-07 17:05:42:889
0.0223,10.0209,0.929,0.1931,-0.2242,0.1911,-0.0207,0.0271,-0.0021,148,2019-08-07 17:05:42:893
0.0223,10.0209,0.929,0.1931,-0.2242,0.1911,-0.0111,-0.0208,0.0022,153,2019-08-07 17:05:42:898
-0.083,9.9779,0.8724,0.1931,-0.2242,0.1911,-0.0111,-0.0208,0.0022,157,2019-08-07 17:05:42:902
-0.083,9.9779,0.8724,0.1931,-0.2242,0.1911,-0.0111,-0.0208,0.0022,163,2019-08-07 17:05:42:908
-0.0256,9.7488,0.632,0.1224,0.0049,0.4132,-0.0101,-0.0507,0.0086,167,2019-08-07 17:05:42:912
-0.0256,9.7488,0.632,0.1224,0.0049,0.4132,-0.0229,-0.0549,0.0192,173,2019-08-07 17:05:42:918
-0.0256,9.7488,0.632,0.1224,0.0049,0.4132,-0.0229,-0.0549,0.0192,178,2019-08-07 17:05:42:923
0.2519,10.0161,0.9478,0.1224,0.0049,0.4132,-0.0229,-0.0549,0.0192,183,2019-08-07 17:05:42:928
0.2519,10.0161,0.9478,0.0729,-0.2292,-0.0332,-0.0058,-0.0336,0.0043,188,2019-08-07 17:05:42:933
0.1275,9.8538,0.9855,0.0729,-0.2292,-0.0332,-0.0058,-0.0336,0.0043,194,2019-08-07 17:05:42:939
0.1275,9.8538,0.9855,0.0729,-0.2292,-0.0332,0.0038,-0.0421,0.0139,198,2019-08-07 17:05:42:943
0.1275,9.8538,0.9855,0.0729,-0.2292,-0.0332,0.0038,-0.0421,0.0139,202,2019-08-07 17:05:42:947
0.2088,9.8634,0.7357,0.0729,-0.2292,-0.0332,0.0038,-0.0421,0.0139,208,2019-08-07 17:05:42:953
0.2088,9.8634,0.7357,-0.0964,-0.2052,0.3091,-0.0079,-0.0049,0.0,213,2019-08-07 17:05:42:958
0.2088,9.8634,0.7357,-0.0964,-0.2052,0.3091,-0.0079,-0.0049,0.0,217,2019-08-07 17:05:42:962
0.161,10.0352,0.8771,-0.0964,-0.2052,0.3091,-0.0058,0.0101,0.0064,223,2019-08-07 17:05:42:968
0.161,10.0352,0.8771,0.0341,-0.0953,0.3647,-0.0058,0.0101,0.0064,228,2019-08-07 17:05:42:973
0.0318,9.7727,0.5896,0.0341,-0.0953,0.3647,-0.009,0.0101,0.0032,233,2019-08-07 17:05:42:978
0.0318,9.7727,0.5896,0.0341,-0.0953,0.3647,-0.009,0.0101,0.0032,238,2019-08-07 17:05:42:983
0.0318,9.7727,0.5896,0.0341,-0.0953,0.3647,-0.0229,0.0346,0.0032,243,2019-08-07 17:05:42:988
0.0558,10.083,0.8394,0.0341,-0.0953,0.3647,-0.0229,0.0346,0.0032,248,2019-08-07 17:05:42:993
0.0558,10.083,0.8394,0.1864,-0.2816,0.1819,-0.0239,0.009,0.0043,253,2019-08-07 17:05:42:998
-0.0878,9.8634,0.797,0.1864,-0.2816,0.1819,-0.0239,0.009,0.0043,258,2019-08-07 17:05:43:003
-0.0878,9.8634,0.797,0.1864,-0.2816,0.1819,-0.0143,-0.0123,0.0171,263,2019-08-07 17:05:43:008
-0.0878,9.8634,0.797,0.1864,-0.2816,0.1819,-0.0143,-0.0123,0.0171,267,2019-08-07 17:05:43:012
0.0653,9.9588,0.9855,0.0395,-0.2054,0.0612,-0.0101,-0.0379,0.0118,273,2019-08-07 17:05:43:018
0.0653,9.9588,0.9855,0.0395,-0.2054,0.0612,-0.0101,-0.0379,0.0118,277,2019-08-07 17:05:43:022
0.1275,9.6867,0.9667,0.0075,-0.0336,0.0948,6.0E-4,-0.0528,0.0118,283,2019-08-07 17:05:43:028
0.1275,9.6867,0.9667,0.0075,-0.0336,0.0948,6.0E-4,-0.0528,0.0118,288,2019-08-07 17:05:43:033
0.1275,9.6867,0.9667,0.0075,-0.0336,0.0948,0.0123,-0.0571,0.0171,293,2019-08-07 17:05:43:038
0.4146,9.9875,1.0798,0.0075,-0.0336,0.0948,0.0123,-0.0571,0.0171,298,2019-08-07 17:05:43:043
0.4146,9.9875,1.0798,-0.3217,-0.1003,0.1589,0.024,-0.0421,0.0086,302,2019-08-07 17:05:43:047
0.338,9.8252,0.6933,-0.3217,-0.1003,0.1589,0.024,-0.0421,0.0086,308,2019-08-07 17:05:43:053
0.338,9.8252,0.6933,-0.3217,-0.1003,0.1589,0.024,-0.0421,0.0086,313,2019-08-07 17:05:43:058
0.338,9.8252,0.6933,-0.3217,-0.1003,0.1589,0.0176,0.0186,0.0075,318,2019-08-07 17:05:43:063
0.2136,9.8729,0.8206,-0.0985,-0.1188,0.2186,0.0176,0.0186,0.0075,322,2019-08-07 17:05:43:067
0.2136,9.8729,0.8206,-0.0985,-0.1188,0.2186,0.0112,0.0388,-0.001,328,2019-08-07 17:05:43:073
-0.0256,10.1259,0.9808,-0.0985,-0.1188,0.2186,0.0112,0.0388,-0.001,332,2019-08-07 17:05:43:077
-0.0256,10.1259,0.9808,-0.0985,-0.1188,0.2186,0.0187,0.025,-0.0053,338,2019-08-07 17:05:43:083
-0.0256,10.1259,0.9808,0.1147,-0.1565,0.1814,0.0187,0.025,-0.0053,342,2019-08-07 17:05:43:087
-0.0447,9.9111,1.0044,0.1147,-0.1565,0.1814,0.024,-0.0102,-0.0042,348,2019-08-07 17:05:43:093
-0.0447,9.9111,1.0044,0.1147,-0.1565,0.1814,0.024,-0.0102,-0.0042,352,2019-08-07 17:05:43:097
-0.0447,9.9111,1.0044,0.1147,-0.1565,0.1814,0.024,-0.0102,-0.0042,358,2019-08-07 17:05:43:103
0.1419,9.8538,0.8017,0.0278,-0.0794,0.2639,0.0368,-0.0272,-0.0064,363,2019-08-07 17:05:43:108
0.1419,9.8538,0.8017,0.0278,-0.0794,0.2639,0.0368,-0.0272,-0.0064,367,2019-08-07 17:05:43:112
0.2232,9.9541,1.061,0.0278,-0.0794,0.2639,0.0336,-0.0017,-0.0053,373,2019-08-07 17:05:43:118
0.2232,9.9541,1.061,0.0278,-0.0794,0.2639,0.0336,-0.0017,-0.0053,378,2019-08-07 17:05:43:123
0.2232,9.9541,1.061,-0.0921,-0.0404,-0.0126,0.0485,0.0015,-0.0085,383,2019-08-07 17:05:43:128
0.2136,9.935,1.2071,-0.0921,-0.0404,-0.0126,0.0485,0.0015,-0.0085,387,2019-08-07 17:05:43:132
0.2136,9.935,1.2071,-0.0921,-0.0404,-0.0126,0.073,-0.0027,-0.0138,393,2019-08-07 17:05:43:138
0.2232,9.6867,0.9997,-0.0921,-0.0404,-0.0126,0.073,-0.0027,-0.0138,398,2019-08-07 17:05:43:143
0.2232,9.6867,0.9997,-0.1457,-8.0E-4,0.1111,0.0794,0.0154,-0.0085,402,2019-08-07 17:05:43:147
0.2232,9.6867,0.9997,-0.1457,-8.0E-4,0.1111,0.0794,0.0154,-0.0085,408,2019-08-07 17:05:43:153
0.2471,9.9207,0.698,-0.1457,-8.0E-4,0.1111,0.0741,0.0548,-0.0096,413,2019-08-07 17:05:43:158
0.2471,9.9207,0.698,-0.1457,-8.0E-4,0.1111,0.0741,0.0548,-0.0096,417,2019-08-07 17:05:43:162
0.2471,9.9207,0.698,0.0722,-0.2854,0.2023,0.0688,0.0953,-0.0064,423,2019-08-07 17:05:43:168
-0.0065,9.9588,0.8441,0.0722,-0.2854,0.2023,0.0688,0.0953,-0.0064,427,2019-08-07 17:05:43:172
-0.0065,9.9588,0.8441,0.0722,-0.2854,0.2023,0.0805,0.075,-0.001,433,2019-08-07 17:05:43:178
-0.0686,10.0018,0.8818,0.0722,-0.2854,0.2023,0.0805,0.075,-0.001,437,2019-08-07 17:05:43:182
-0.0686,10.0018,0.8818,0.1219,-0.1072,0.337,0.0773,0.0164,0.0011,443,2019-08-07 17:05:43:188
-0.1213,10.0066,0.7121,0.1219,-0.1072,0.337,0.0773,0.0164,0.0011,448,2019-08-07 17:05:43:193
-0.1213,10.0066,0.7121,0.1219,-0.1072,0.337,0.0773,0.0164,0.0011,452,2019-08-07 17:05:43:197
-0.1213,10.0066,0.7121,0.1219,-0.1072,0.337,0.073,0.0154,0.0043,458,2019-08-07 17:05:43:203
-0.1213,10.0973,0.6933,0.2262,-0.2917,0.2777,0.073,0.0154,0.0043,463,2019-08-07 17:05:43:208
-0.1213,10.0973,0.6933,0.2262,-0.2917,0.2777,0.0634,-0.0081,0.0203,467,2019-08-07 17:05:43:212
-0.0447,9.935,0.8111,0.2262,-0.2917,0.2777,0.0634,-0.0081,0.0203,473,2019-08-07 17:05:43:218
-0.0447,9.935,0.8111,0.2262,-0.2917,0.2777,0.0709,-0.0475,0.0107,478,2019-08-07 17:05:43:223
-0.0447,9.935,0.8111,-0.1392,-0.0945,0.131,0.0709,-0.0475,0.0107,483,2019-08-07 17:05:43:228
0.271,9.8681,0.7498,-0.1392,-0.0945,0.131,0.0698,-0.0805,0.0139,487,2019-08-07 17:05:43:232
0.271,9.8681,0.7498,-0.1392,-0.0945,0.131,0.0698,-0.0805,0.0139,493,2019-08-07 17:05:43:238
0.338,9.9827,0.6084,-0.2273,-0.2179,0.3257,0.0613,-0.04,0.0128,498,2019-08-07 17:05:43:243
0.338,9.9827,0.6084,-0.2273,-0.2179,0.3257,0.0613,-0.04,0.0128,502,2019-08-07 17:05:43:247
0.1801,10.0686,0.2879,-0.2273,-0.2179,0.3257,0.0379,0.0495,0.0032,508,2019-08-07 17:05:43:253
0.1801,10.0686,0.2879,0.067,-0.2405,0.4624,0.0379,0.0495,0.0032,513,2019-08-07 17:05:43:258
0.1801,10.0686,0.2879,0.067,-0.2405,0.4624,0.0379,0.0495,0.0032,517,2019-08-07 17:05:43:262
-0.0352,9.9541,0.7263,0.067,-0.2405,0.4624,0.0166,0.0686,0.0032,523,2019-08-07 17:05:43:268
-0.0352,9.9541,0.7263,0.067,-0.2405,0.4624,0.0166,0.0686,0.0032,528,2019-08-07 17:05:43:273
-0.1213,10.0496,0.7781,0.2329,-0.2829,0.1362,0.0261,-0.007,0.0086,533,2019-08-07 17:05:43:278
-0.1213,10.0496,0.7781,0.2329,-0.2829,0.1362,0.0261,-0.007,0.0086,538,2019-08-07 17:05:43:283
-0.1213,10.0496,0.7781,0.2329,-0.2829,0.1362,0.0272,-0.0421,0.0107,542,2019-08-07 17:05:43:287
-0.0782,10.0209,0.5896,0.2329,-0.2829,0.1362,0.0272,-0.0421,0.0107,548,2019-08-07 17:05:43:293
-0.0782,10.0209,0.5896,0.0486,-0.1247,0.2604,0.0219,-0.024,0.0235,552,2019-08-07 17:05:43:297
0.0988,9.8443,0.7216,0.0486,-0.1247,0.2604,0.0219,-0.024,0.0235,558,2019-08-07 17:05:43:303
0.0988,9.8443,0.7216,0.0486,-0.1247,0.2604,0.0166,-0.0176,0.0224,563,2019-08-07 17:05:43:308
0.0988,9.8443,0.7216,0.0486,-0.1247,0.2604,0.0166,-0.0176,0.0224,567,2019-08-07 17:05:43:312
0.1562,9.8443,0.9714,-0.0325,-0.0193,-0.1164,0.0283,-0.023,0.0245,573,2019-08-07 17:05:43:318
0.1562,9.8443,0.9714,-0.0325,-0.0193,-0.1164,0.0283,-0.023,0.0245,578,2019-08-07 17:05:43:323
0.3476,9.787,0.995,-0.0325,-0.0193,-0.1164,0.0442,-0.04,0.0256,583,2019-08-07 17:05:43:328
0.3476,9.787,0.995,-0.0325,-0.0193,-0.1164,0.0442,-0.04,0.0256,588,2019-08-07 17:05:43:333
0.3476,9.787,0.995,-0.2985,-0.0854,0.2613,0.0528,-0.0347,0.0128,593,2019-08-07 17:05:43:338
0.4002,9.9636,0.599,-0.2985,-0.0854,0.2613,0.0528,-0.0347,0.0128,598,2019-08-07 17:05:43:343
0.4002,9.9636,0.599,-0.2985,-0.0854,0.2613,0.0528,-0.0347,0.0128,602,2019-08-07 17:05:43:347
0.4002,9.9636,0.599,-0.2985,-0.0854,0.2613,0.0474,0.0431,0.0086,608,2019-08-07 17:05:43:353
0.2136,9.9207,0.5566,-0.2985,-0.0854,0.2613,0.0474,0.0431,0.0086,613,2019-08-07 17:05:43:358
0.2136,9.9207,0.5566,-0.0185,-0.156,0.0942,0.0389,0.0942,0.0107,617,2019-08-07 17:05:43:362
-0.0065,9.9111,0.8677,-0.0185,-0.156,0.0942,0.0389,0.0942,0.0107,623,2019-08-07 17:05:43:368
-0.0065,9.9111,0.8677,0.1964,-0.189,3.0E-4,0.0464,0.0708,0.0118,628,2019-08-07 17:05:43:373
-0.0065,9.9111,0.8677,0.1964,-0.189,3.0E-4,0.0464,0.0708,0.0118,633,2019-08-07 17:05:43:378
-0.1835,9.9732,0.9573,0.1964,-0.189,3.0E-4,0.0688,0.0015,0.0086,638,2019-08-07 17:05:43:383
-0.1835,9.9732,0.9573,0.1964,-0.189,3.0E-4,0.0688,0.0015,0.0086,643,2019-08-07 17:05:43:388
-0.016,9.9398,0.9195,0.153,-0.1164,-0.0772,0.0815,-0.0528,0.0086,648,2019-08-07 17:05:43:393
-0.016,9.9398,0.9195,0.153,-0.1164,-0.0772,0.0815,-0.0528,0.0086,653,2019-08-07 17:05:43:398
-0.016,9.9398,0.9195,0.153,-0.1164,-0.0772,0.0943,-0.0741,0.0022,657,2019-08-07 17:05:43:402
0.3476,9.8634,0.8206,0.153,-0.1164,-0.0772,0.0943,-0.0741,0.0022,662,2019-08-07 17:05:43:407
0.3476,9.8634,0.8206,-0.2696,-0.0528,0.0652,0.0943,-0.0741,0.0022,668,2019-08-07 17:05:43:413
0.3476,9.8634,0.8206,-0.2696,-0.0528,0.0652,0.1092,-0.0304,-0.0053,672,2019-08-07 17:05:43:417
0.4863,9.7345,0.797,-0.2696,-0.0528,0.0652,0.1092,-0.0304,-0.0053,678,2019-08-07 17:05:43:423
0.4863,9.7345,0.797,-0.2696,-0.0528,0.0652,0.1135,0.025,-0.0127,682,2019-08-07 17:05:43:427
0.4863,9.7345,0.797,-0.2876,0.0064,0.0195,0.1135,0.025,-0.0127,688,2019-08-07 17:05:43:433
0.3811,9.8395,0.9431,-0.2876,0.0064,0.0195,0.1295,0.0559,-0.0277,693,2019-08-07 17:05:43:438
0.3811,9.8395,0.9431,-0.2876,0.0064,0.0195,0.1295,0.0559,-0.0277,698,2019-08-07 17:05:43:443
0.2423,9.8013,0.9195,-0.2876,0.0064,0.0195,0.1295,0.0559,-0.0277,702,2019-08-07 17:05:43:447
0.2423,9.8013,0.9195,-0.0675,-0.0487,-0.0346,0.1636,0.0495,-0.0309,708,2019-08-07 17:05:43:453
0.2423,9.8013,0.9195,-0.0675,-0.0487,-0.0346,0.1636,0.0495,-0.0309,713,2019-08-07 17:05:43:458
0.0749,9.8443,0.7828,-0.0675,-0.0487,-0.0346,0.1753,0.0516,-0.0351,717,2019-08-07 17:05:43:462
0.0749,9.8443,0.7828,-0.0675,-0.0487,-0.0346,0.1753,0.0516,-0.0351,723,2019-08-07 17:05:43:468
0.0653,9.787,1.0091,0.0682,-0.022,-0.1962,0.1945,0.0473,-0.0362,728,2019-08-07 17:05:43:473
0.0653,9.787,1.0091,0.0682,-0.022,-0.1962,0.1945,0.0473,-0.0362,732,2019-08-07 17:05:43:477
0.0653,9.787,1.0091,0.0682,-0.022,-0.1962,0.219,0.0026,-0.0372,738,2019-08-07 17:05:43:483
0.1036,9.7297,1.1222,0.0682,-0.022,-0.1962,0.219,0.0026,-0.0372,743,2019-08-07 17:05:43:488
0.1036,9.7297,1.1222,-0.0686,0.0624,-0.1709,0.2445,-0.0379,-0.0362,747,2019-08-07 17:05:43:492
0.2949,9.8156,0.7121,-0.0686,0.0624,-0.1709,0.2445,-0.0379,-0.0362,753,2019-08-07 17:05:43:498
0.2949,9.8156,0.7121,-0.0686,0.0624,-0.1709,0.2445,-0.0379,-0.0362,758,2019-08-07 17:05:43:503
0.2949,9.8156,0.7121,-0.0686,0.0624,-0.1709,0.2658,-0.0166,-0.0479,763,2019-08-07 17:05:43:508
0.405,9.8252,0.6603,-0.2997,-0.0389,0.0132,0.2658,-0.0166,-0.0479,767,2019-08-07 17:05:43:512
0.405,9.8252,0.6603,-0.2997,-0.0389,0.0132,0.2765,0.0431,-0.0543,773,2019-08-07 17:05:43:518
0.405,9.8252,0.6603,-0.2997,-0.0389,0.0132,0.2765,0.0431,-0.0543,777,2019-08-07 17:05:43:522
0.3045,9.8538,0.6886,-0.2997,-0.0389,0.0132,0.2882,0.0612,-0.0586,783,2019-08-07 17:05:43:528
0.3045,9.8538,0.6886,0.0247,-0.1067,0.0747,0.2882,0.0612,-0.0586,788,2019-08-07 17:05:43:533
-0.016,9.9732,0.6084,0.0247,-0.1067,0.0747,0.3042,0.0857,-0.0628,793,2019-08-07 17:05:43:538
-0.016,9.9732,0.6084,0.0247,-0.1067,0.0747,0.3042,0.0857,-0.0628,798,2019-08-07 17:05:43:543
-0.016,9.9732,0.6084,0.0247,-0.1067,0.0747,0.3202,0.075,-0.0617,802,2019-08-07 17:05:43:547
0.0414,9.7297,1.0327,-0.0086,0.0212,-0.5463,0.3202,0.075,-0.0617,808,2019-08-07 17:05:43:553
0.0414,9.7297,1.0327,-0.0086,0.0212,-0.5463,0.3628,-0.0294,-0.0724,813,2019-08-07 17:05:43:558
0.1514,9.9445,0.8111,-0.0086,0.0212,-0.5463,0.3628,-0.0294,-0.0724,818,2019-08-07 17:05:43:563
0.1514,9.9445,0.8111,-0.0086,0.0212,-0.5463,0.3628,-0.0294,-0.0724,823,2019-08-07 17:05:43:568
0.1514,9.9445,0.8111,-0.1837,-0.0942,0.5362,0.383,-0.1007,-0.0639,827,2019-08-07 17:05:43:572
0.338,9.9493,-0.2023,-0.1837,-0.0942,0.5362,0.383,-0.1007,-0.0639,833,2019-08-07 17:05:43:578
0.338,9.9493,-0.2023,-0.1837,-0.0942,0.5362,0.35,0.0473,-0.0745,837,2019-08-07 17:05:43:582
0.1562,10.0209,-0.1458,-0.1837,-0.0942,0.5362,0.35,0.0473,-0.0745,843,2019-08-07 17:05:43:588
0.1562,10.0209,-0.1458,-0.0773,-0.3342,0.2955,0.3233,0.1368,-0.0809,848,2019-08-07 17:05:43:593
0.1562,10.0209,-0.1458,-0.0773,-0.3342,0.2955,0.3233,0.1368,-0.0809,853,2019-08-07 17:05:43:598
0.0462,10.0734,0.3727,-0.0773,-0.3342,0.2955,0.3233,0.1368,-0.0809,857,2019-08-07 17:05:43:602
0.0462,10.0734,0.3727,-0.0773,-0.3342,0.2955,0.3255,0.0761,-0.0809,863,2019-08-07 17:05:43:608
-0.0352,9.9254,-0.0138,0.0729,-0.1215,0.3575,0.3255,0.0761,-0.0809,867,2019-08-07 17:05:43:612
-0.0352,9.9254,-0.0138,0.0729,-0.1215,0.3575,0.3138,0.0314,-0.0809,873,2019-08-07 17:05:43:618
-0.0352,9.9254,-0.0138,0.0729,-0.1215,0.3575,0.3138,0.0314,-0.0809,878,2019-08-07 17:05:43:623
-0.083,10.0639,-0.1835,0.0729,-0.1215,0.3575,0.2829,0.0559,-0.082,883,2019-08-07 17:05:43:628
-0.083,10.0639,-0.1835,0.1033,-0.3152,0.2754,0.2829,0.0559,-0.082,888,2019-08-07 17:05:43:633
-0.083,10.0639,-0.1835,0.1033,-0.3152,0.2754,0.2829,0.0559,-0.082,892,2019-08-07 17:05:43:637
-0.0639,10.1021,0.0145,0.1033,-0.3152,0.2754,0.2712,0.0527,-0.0852,898,2019-08-07 17:05:43:643
-0.0639,10.1021,0.0145,0.1033,-0.3152,0.2754,0.2712,0.0527,-0.0852,903,2019-08-07 17:05:43:648
-0.2361,10.04,-0.0374,0.2435,-0.1992,0.2761,0.2669,0.0324,-0.0767,910,2019-08-07 17:05:43:655
-0.2361,10.04,-0.0374,0.2435,-0.1992,0.2761,0.2669,0.0324,-0.0767,913,2019-08-07 17:05:43:658
-0.2552,10.0543,-0.1316,0.2435,-0.1992,0.2761,0.2498,0.0218,-0.0767,918,2019-08-07 17:05:43:663
-0.2552,10.0543,-0.1316,0.2435,-0.1992,0.2761,0.2498,0.0218,-0.0767,922,2019-08-07 17:05:43:667
-0.2552,10.0543,-0.1316,0.2435,-0.2172,0.1723,0.2392,-0.0123,-0.0767,928,2019-08-07 17:05:43:673
-0.1117,10.0114,-0.0279,0.1263,-0.2172,0.1723,0.2392,-0.0123,-0.0767,932,2019-08-07 17:05:43:677
-0.1117,10.0114,-0.0279,0.1263,-0.2172,0.1723,0.2413,-0.0698,-0.0724,938,2019-08-07 17:05:43:683
-0.1117,10.0114,-0.0279,0.1263,-0.2172,0.1723,0.2413,-0.0698,-0.0724,943,2019-08-07 17:05:43:688
-0.0208,9.9636,-0.1929,0.1263,-0.2172,0.1723,0.2413,-0.0698,-0.0724,947,2019-08-07 17:05:43:692
-0.0208,9.9636,-0.1929,-0.0172,-0.2022,0.5087,0.2264,-0.0794,-0.0692,953,2019-08-07 17:05:43:698
-0.0495,10.0877,-0.6124,-0.0172,-0.2022,0.5087,0.2264,-0.0794,-0.0692,957,2019-08-07 17:05:43:702
-0.0495,10.0877,-0.6124,-0.0172,-0.2022,0.5087,0.1987,-0.0326,-0.0713,963,2019-08-07 17:05:43:708
-0.0495,10.0877,-0.6124,-0.0172,-0.2022,0.5087,0.1987,-0.0326,-0.0713,967,2019-08-07 17:05:43:712
-0.2361,10.1546,-0.3438,0.193,-0.345,0.4207,0.1774,0.0175,-0.082,973,2019-08-07 17:05:43:718
-0.2361,10.1546,-0.3438,0.193,-0.345,0.4207,0.1774,0.0175,-0.082,977,2019-08-07 17:05:43:722
-0.1548,9.9541,0.1842,0.193,-0.345,0.4207,0.1742,-0.0049,-0.0841,983,2019-08-07 17:05:43:728
-0.1548,9.9541,0.1842,0.193,-0.345,0.4207,0.1742,-0.0049,-0.0841,988,2019-08-07 17:05:43:733
-0.1548,9.9541,0.1842,0.0267,-0.0537,-0.1616,0.1891,-0.0933,-0.0916,992,2019-08-07 17:05:43:737
0.0175,9.8681,0.1653,0.0267,-0.0537,-0.1616,0.1891,-0.0933,-0.0916,998,2019-08-07 17:05:43:743
0.0175,9.8681,0.1653,0.0267,-0.0537,-0.1616,0.1966,-0.1561,-0.098,1003,2019-08-07 17:05:43:748
0.1993,9.9398,-0.1694,0.0267,-0.0537,-0.1616,0.1966,-0.1561,-0.098,1007,2019-08-07 17:05:43:752
0.1993,9.9398,-0.1694,-0.2876,-0.111,0.2286,0.1891,-0.137,-0.1065,1013,2019-08-07 17:05:43:758
0.1993,9.9398,-0.1694,-0.2876,-0.111,0.2286,0.1891,-0.137,-0.1065,1017,2019-08-07 17:05:43:762
0.2471,10.0018,-0.1882,-0.2876,-0.111,0.2286,0.1859,-0.0826,-0.115,1023,2019-08-07 17:05:43:768
0.2471,10.0018,-0.1882,-0.2876,-0.111,0.2286,0.1859,-0.0826,-0.115,1027,2019-08-07 17:05:43:772
0.1036,9.9779,-0.1222,-0.2217,-0.1685,0.0677,0.1859,-0.0581,-0.1214,1033,2019-08-07 17:05:43:778
0.1036,9.9779,-0.1222,-0.2217,-0.1685,0.0677,0.1859,-0.0581,-0.1214,1038,2019-08-07 17:05:43:783
0.1036,9.9779,-0.1222,-0.2217,-0.1685,0.0677,0.1827,-0.0603,-0.1299,1043,2019-08-07 17:05:43:788
0.0222,9.9923,-0.2589,-0.2217,-0.1685,0.0677,0.1827,-0.0603,-0.1299,1048,2019-08-07 17:05:43:793
0.0222,9.9923,-0.2589,-0.0883,-0.1404,0.2043,0.1859,-0.0666,-0.1374,1053,2019-08-07 17:05:43:798
-0.083,9.9684,-0.372,-0.0883,-0.1404,0.2043,0.1859,-0.0666,-0.1374,1058,2019-08-07 17:05:43:803
-0.083,9.9684,-0.372,-0.0883,-0.1404,0.2043,0.1774,-0.0666,-0.1353,1062,2019-08-07 17:05:43:807
-0.083,9.9684,-0.372,-0.0883,-0.1404,0.2043,0.1774,-0.0666,-0.1353,1068,2019-08-07 17:05:43:813
-0.1404,9.9636,-0.3108,-0.01,-0.1554,0.1994,0.1742,-0.0613,-0.1406,1072,2019-08-07 17:05:43:817
-0.1404,9.9636,-0.3108,-0.01,-0.1554,0.1994,0.1742,-0.0613,-0.1406,1078,2019-08-07 17:05:43:823
-0.1883,10.0209,-0.3202,-0.01,-0.1554,0.1994,0.1753,-0.072,-0.1406,1083,2019-08-07 17:05:43:828
-0.1883,10.0209,-0.3202,-0.01,-0.1554,0.1994,0.1753,-0.072,-0.1406,1088,2019-08-07 17:05:43:833
-0.1883,10.0209,-0.3202,-0.01,-0.1554,0.1994,0.1753,-0.072,-0.1406,1092,2019-08-07 17:05:43:837
-0.1978,10.0734,-0.2542,0.0475,-0.2137,0.2151,0.1774,-0.0858,-0.1491,1098,2019-08-07 17:05:43:843
-0.1978,10.0734,-0.2542,0.0475,-0.2137,0.2151,0.1817,-0.0901,-0.1598,1103,2019-08-07 17:05:43:848
-0.1978,10.0734,-0.2542,0.0475,-0.2137,0.2151,0.1817,-0.0901,-0.1598,1108,2019-08-07 17:05:43:853
-0.1261,10.0448,-0.3532,-0.0935,-0.2006,0.2447,0.1817,-0.0901,-0.1598,1113,2019-08-07 17:05:43:858
-0.1261,10.0448,-0.3532,-0.0935,-0.2006,0.2447,0.187,-0.0933,-0.1651,1118,2019-08-07 17:05:43:863
-0.2026,9.8968,-0.4899,-0.0935,-0.2006,0.2447,0.187,-0.0933,-0.1651,1122,2019-08-07 17:05:43:867
-0.2026,9.8968,-0.4899,-0.0935,-0.2006,0.2447,0.1806,-0.0666,-0.1693,1128,2019-08-07 17:05:43:873
-0.2026,9.8968,-0.4899,-0.0789,-0.1735,-0.0331,0.1806,-0.0666,-0.1693,1133,2019-08-07 17:05:43:878
-0.1261,10.0543,-0.0751,-0.0789,-0.1735,-0.0331,0.1849,-0.0443,-0.1693,1138,2019-08-07 17:05:43:883
-0.1261,10.0543,-0.0751,-0.0789,-0.1735,-0.0331,0.1849,-0.0443,-0.1693,1143,2019-08-07 17:05:43:888
-0.1261,10.0543,-0.0751,-0.0789,-0.1735,-0.0331,0.2072,-0.0635,-0.1768,1148,2019-08-07 17:05:43:893
-0.1549,10.04,-0.0185,-0.1126,-0.1991,-0.1075,0.2072,-0.0635,-0.1768,1153,2019-08-07 17:05:43:898
-0.1549,10.04,-0.0185,-0.1126,-0.1991,-0.1075,0.2072,-0.0635,-0.1768,1158,2019-08-07 17:05:43:903
-0.1645,10.0018,-0.3674,-0.1126,-0.1991,-0.1075,0.2168,-0.0677,-0.1864,1163,2019-08-07 17:05:43:908
-0.1645,10.0018,-0.3674,-0.1126,-0.1991,-0.1075,0.2168,-0.0677,-0.1864,1168,2019-08-07 17:05:43:913
-0.1645,10.0018,-0.3674,-0.1154,-0.106,0.3347,0.2019,-0.0358,-0.1885,1173,2019-08-07 17:05:43:918
-0.241,9.9159,-0.702,-0.1154,-0.106,0.3347,0.2019,-0.0358,-0.1885,1177,2019-08-07 17:05:43:922
-0.241,9.9159,-0.702,-0.1154,-0.106,0.3347,0.1806,5.0E-4,-0.1843,1183,2019-08-07 17:05:43:928
-0.241,9.9159,-0.702,-0.1154,-0.106,0.3347,0.1806,5.0E-4,-0.1843,1188,2019-08-07 17:05:43:933
-0.5664,9.9541,-0.8105,0.22,-0.1133,0.4222,0.1593,0.0228,-0.1864,1193,2019-08-07 17:05:43:938
-0.5664,9.9541,-0.8105,0.22,-0.1133,0.4222,0.1593,0.0228,-0.1864,1198,2019-08-07 17:05:43:943
-0.5568,9.7584,-0.3956,0.22,-0.1133,0.4222,0.1646,-0.0198,-0.1725,1203,2019-08-07 17:05:43:948
-0.5568,9.7584,-0.3956,0.22,-0.1133,0.4222,0.1646,-0.0198,-0.1725,1208,2019-08-07 17:05:43:953
-0.5568,9.7584,-0.3956,0.22,-0.1133,0.4222,0.1646,-0.0198,-0.1725,1212,2019-08-07 17:05:43:957
-0.4133,9.8061,-0.127,0.0641,0.0082,-0.2374,0.1785,-0.0965,-0.1598,1217,2019-08-07 17:05:43:962
-0.4133,9.8061,-0.127,0.0641,0.0082,-0.2374,0.1785,-0.0965,-0.1598,1223,2019-08-07 17:05:43:968
-0.4133,9.8061,-0.127,0.0641,0.0082,-0.2374,0.1849,-0.1391,-0.1608,1227,2019-08-07 17:05:43:972
-0.2315,9.8682,-0.5418,-0.1019,-0.1855,0.2364,0.1849,-0.1391,-0.1608,1232,2019-08-07 17:05:43:977
-0.2315,9.8682,-0.5418,-0.1019,-0.1855,0.2364,0.1849,-0.0858,-0.164,1238,2019-08-07 17:05:43:983
-0.2315,9.9589,-0.7445,-0.1019,-0.1855,0.2364,0.1849,-0.0858,-0.164,1243,2019-08-07 17:05:43:988
-0.3224,9.9589,-0.7445,-0.123,-0.1154,0.2927,0.1849,-0.0858,-0.164,1248,2019-08-07 17:05:43:993
-0.3224,9.9589,-0.7445,-0.123,-0.1154,0.2927,0.1806,-0.0113,-0.1544,1253,2019-08-07 17:05:43:998
-0.3607,9.8109,-0.3014,-0.123,-0.1154,0.2927,0.1806,-0.0113,-0.1544,1258,2019-08-07 17:05:44:003
-0.3607,9.8109,-0.3014,-0.0289,-0.0945,-0.2941,0.187,-0.007,-0.1534,1263,2019-08-07 17:05:44:008
-0.4755,9.9875,-0.2589,-0.0289,-0.0945,-0.2941,0.187,-0.007,-0.1534,1267,2019-08-07 17:05:44:012
-0.4755,9.9875,-0.2589,-0.0289,-0.0945,-0.2941,0.1955,-0.0379,-0.1619,1273,2019-08-07 17:05:44:018
-0.4755,9.9875,-0.2589,-0.0289,-0.0945,-0.2941,0.1955,-0.0379,-0.1619,1278,2019-08-07 17:05:44:023
-0.3798,10.0973,-0.5182,-0.0289,-0.0945,-0.2941,0.1955,-0.0379,-0.1619,1283,2019-08-07 17:05:44:028
-0.3798,10.0973,-0.5182,-0.0844,-0.4512,0.1112,0.2072,-0.0581,-0.1661,1287,2019-08-07 17:05:44:032
-0.5329,10.2453,-0.9754,-0.0844,-0.4512,0.1112,0.2072,-0.0581,-0.1661,1293,2019-08-07 17:05:44:038
-0.5329,10.2453,-0.9754,-0.0844,-0.4512,0.1112,0.1987,-0.0187,-0.1651,1298,2019-08-07 17:05:44:043
-0.5329,10.2453,-0.9754,-0.0844,-0.4512,0.1112,0.1987,-0.0187,-0.1651,1303,2019-08-07 17:05:44:048
-0.6717,10.0543,-1.1451,0.117,-0.25,0.6287,0.1987,-0.0187,-0.1651,1307,2019-08-07 17:05:44:052
-0.6717,10.0543,-1.1451,0.117,-0.25,0.6287,0.1721,0.0473,-0.1598,1313,2019-08-07 17:05:44:058
-0.6477,9.9255,-0.7303,0.2059,-0.1899,0.256,0.1721,0.0473,-0.1598,1317,2019-08-07 17:05:44:062
-0.6477,9.9255,-0.7303,0.2059,-0.1899,0.256,0.1593,0.0409,-0.1544,1323,2019-08-07 17:05:44:068
-0.6477,9.9255,-0.7303,0.2059,-0.1899,0.256,0.1593,0.0409,-0.1544,1327,2019-08-07 17:05:44:072
-0.5999,9.83,-0.8152,0.2059,-0.1899,0.256,0.154,0.0207,-0.1523,1332,2019-08-07 17:05:44:077
-0.5999,9.83,-0.8152,0.0127,-0.0361,0.2418,0.154,0.0207,-0.1523,1338,2019-08-07 17:05:44:083
-0.5473,9.8204,-0.9377,0.0127,-0.0361,0.2418,0.1348,0.009,-0.147,1343,2019-08-07 17:05:44:088
-0.5473,9.8204,-0.9377,0.0127,-0.0361,0.2418,0.1348,0.009,-0.147,1348,2019-08-07 17:05:44:093
-0.5473,9.8204,-0.9377,0.0127,-0.0361,0.2418,0.1348,0.009,-0.147,1353,2019-08-07 17:05:44:098
-0.5473,9.8204,-0.9377,0.0081,0.0033,0.4905,0.1209,0.0303,-0.1448,1357,2019-08-07 17:05:44:102
-0.619,9.7297,-1.0933,0.0081,0.0033,0.4905,0.1209,0.0303,-0.1448,1363,2019-08-07 17:05:44:108
-0.619,9.7297,-1.0933,0.0081,0.0033,0.4905,0.1135,0.0516,-0.1363,1368,2019-08-07 17:05:44:113
-0.7817,9.577,-0.9519,0.0081,0.0033,0.4905,0.1135,0.0516,-0.1363,1373,2019-08-07 17:05:44:118
-0.7817,9.577,-0.9519,0.1525,0.1907,0.299,0.1028,0.0591,-0.1363,1378,2019-08-07 17:05:44:123
-0.7817,9.577,-0.9519,0.1525,0.1907,0.299,0.1028,0.0591,-0.1363,1383,2019-08-07 17:05:44:128
-0.7865,9.6533,-0.7728,0.1525,0.1907,0.299,0.0986,0.0282,-0.1278,1388,2019-08-07 17:05:44:133
-0.7865,9.6533,-0.7728,0.1525,0.1907,0.299,0.0986,0.0282,-0.1278,1393,2019-08-07 17:05:44:138
-0.7865,9.6295,-0.7775,0.1165,0.1064,0.1642,0.1082,0.0154,-0.1203,1398,2019-08-07 17:05:44:143
-0.7865,9.6295,-0.7775,0.1165,0.1064,0.1642,0.1082,0.0154,-0.1203,1402,2019-08-07 17:05:44:147
-0.7865,9.6295,-0.7775,0.1165,0.1064,0.1642,0.1082,0.0154,-0.1203,1407,2019-08-07 17:05:44:152
-0.7769,9.7488,-0.966,0.1165,0.1064,0.1642,0.0986,0.0047,-0.1054,1413,2019-08-07 17:05:44:158
-0.7769,9.7488,-0.966,0.0941,-0.0209,0.2977,0.0986,0.0047,-0.1054,1418,2019-08-07 17:05:44:163
-0.9348,9.9493,-0.9095,0.0941,-0.0209,0.2977,0.0869,0.0101,-0.1033,1422,2019-08-07 17:05:44:167
-0.9348,9.9493,-0.9095,0.0941,-0.0209,0.2977,0.0869,0.0101,-0.1033,1428,2019-08-07 17:05:44:173
-0.9348,9.9493,-0.9095,0.0941,-0.0209,0.2977,0.0901,-0.0081,-0.0894,1433,2019-08-07 17:05:44:178
-0.9157,9.9207,-0.8623,0.212,-0.1621,0.1468,0.0901,-0.0081,-0.0894,1438,2019-08-07 17:05:44:183
-0.9157,9.9207,-0.8623,0.212,-0.1621,0.1468,0.0964,-0.0443,-0.0852,1443,2019-08-07 17:05:44:188
-0.8343,9.8682,-0.8105,0.1216,-0.111,0.0854,0.0964,-0.0443,-0.0852,1448,2019-08-07 17:05:44:193
-0.8343,9.8682,-0.8105,0.1216,-0.111,0.0854,0.0964,-0.0443,-0.0852,1453,2019-08-07 17:05:44:198
-0.8343,9.8682,-0.8105,0.1216,-0.111,0.0854,0.0996,-0.1007,-0.0777,1457,2019-08-07 17:05:44:202
-0.6047,9.8729,-0.7822,0.1216,-0.111,0.0854,0.0996,-0.1007,-0.0777,1463,2019-08-07 17:05:44:208
-0.6047,9.8729,-0.7822,-0.2579,-0.0133,0.1278,0.1082,-0.1188,-0.0713,1467,2019-08-07 17:05:44:212
-0.509,9.7966,-0.9472,-0.2579,-0.0133,0.1278,0.1082,-0.1188,-0.0713,1473,2019-08-07 17:05:44:218
-0.509,9.7966,-0.9472,-0.2168,-0.0051,0.3581,0.0954,-0.0901,-0.0671,1478,2019-08-07 17:05:44:223
-0.509,9.7966,-0.9472,-0.2168,-0.0051,0.3581,0.0954,-0.0901,-0.0671,1483,2019-08-07 17:05:44:228
-0.7722,9.7727,-1.1404,-0.2168,-0.0051,0.3581,0.0741,-0.0166,-0.0607,1487,2019-08-07 17:05:44:232
-0.7722,9.7727,-1.1404,-0.2168,-0.0051,0.3581,0.0741,-0.0166,-0.0607,1493,2019-08-07 17:05:44:238
-0.997,9.7966,-0.834,0.2489,-0.0455,0.0632,0.0634,0.0058,-0.0511,1498,2019-08-07 17:05:44:243
-0.997,9.7966,-0.834,0.2489,-0.0455,0.0632,0.0634,0.0058,-0.0511,1503,2019-08-07 17:05:44:248
-0.997,9.7966,-0.834,0.2489,-0.0455,0.0632,0.0634,0.0058,-0.0511,1508,2019-08-07 17:05:44:253
-1.064,9.8443,-0.5654,0.2489,-0.0455,0.0632,0.0805,-0.024,-0.0479,1513,2019-08-07 17:05:44:258
-1.064,9.8443,-0.5654,0.2269,-0.2099,-0.2432,0.0805,-0.024,-0.0479,1517,2019-08-07 17:05:44:262
-0.8822,10.0018,-0.5748,0.2269,-0.2099,-0.2432,0.1188,-0.1029,-0.0458,1523,2019-08-07 17:05:44:268
-0.8822,10.0018,-0.5748,0.2269,-0.2099,-0.2432,0.1188,-0.1029,-0.0458,1528,2019-08-07 17:05:44:273
-0.8822,10.0018,-0.5748,0.2269,-0.2099,-0.2432,0.1327,-0.1188,-0.0511,1533,2019-08-07 17:05:44:278
-0.6047,10.0878,-1.0226,-0.2293,-0.3082,0.252,0.1327,-0.1188,-0.0511,1538,2019-08-07 17:05:44:283
-0.6047,10.0878,-1.0226,-0.2293,-0.3082,0.252,0.1327,-0.1188,-0.0511,1542,2019-08-07 17:05:44:287
-0.6047,10.0878,-1.0226,-0.2293,-0.3082,0.252,0.1241,-0.0624,-0.0586,1548,2019-08-07 17:05:44:293
-0.5425,10.0448,-1.395,-0.2345,-0.3002,0.5732,0.1241,-0.0624,-0.0586,1552,2019-08-07 17:05:44:297
-0.5425,10.0448,-1.395,-0.2345,-0.3002,0.5732,0.0954,0.0654,-0.0628,1558,2019-08-07 17:05:44:303
-0.5425,10.0448,-1.395,-0.2345,-0.3002,0.5732,0.0954,0.0654,-0.0628,1563,2019-08-07 17:05:44:308
-0.9779,9.9541,-1.1357,0.2947,-0.2601,0.103,0.0837,0.1038,-0.0618,1567,2019-08-07 17:05:44:312
-0.9779,9.9541,-1.1357,0.2947,-0.2601,0.103,0.0837,0.1038,-0.0618,1573,2019-08-07 17:05:44:318
-1.1549,9.9636,-0.7869,0.2947,-0.2601,0.103,0.0996,0.0388,-0.0564,1578,2019-08-07 17:05:44:323
-1.1549,9.9636,-0.7869,0.2947,-0.2601,0.103,0.0996,0.0388,-0.0564,1583,2019-08-07 17:05:44:328
-1.1549,9.9636,-0.7869,0.1723,-0.0528,0.0401,0.1231,-0.0294,-0.0511,1588,2019-08-07 17:05:44:333
-0.9588,9.8348,-0.9,0.1723,-0.0528,0.0401,0.1231,-0.0294,-0.0511,1593,2019-08-07 17:05:44:338
-0.9588,9.8348,-0.9,0.1723,-0.0528,0.0401,0.1231,-0.0294,-0.0511,1598,2019-08-07 17:05:44:343
-0.9588,9.8348,-0.9,0.0042,-0.1785,0.1363,0.1199,-0.0049,-0.0511,1603,2019-08-07 17:05:44:348
-0.6239,9.9064,-0.9142,0.0042,-0.1785,0.1363,0.1199,-0.0049,-0.0511,1608,2019-08-07 17:05:44:353
-0.6239,9.9064,-0.9142,0.0042,-0.1785,0.1363,0.1082,0.0239,-0.0532,1613,2019-08-07 17:05:44:358
-0.4468,10.1164,-0.7398,-0.487,-0.4533,-0.2578,0.1082,0.0239,-0.0532,1618,2019-08-07 17:05:44:363
-0.4468,10.1164,-0.7398,-0.487,-0.4533,-0.2578,0.1295,0.0388,-0.0809,1623,2019-08-07 17:05:44:368
-0.4468,10.1164,-0.7398,-0.487,-0.4533,-0.2578,0.1295,0.0388,-0.0809,1628,2019-08-07 17:05:44:373
-0.2507,10.7131,-0.7021,-0.5691,-0.98,-0.2086,0.154,0.0473,-0.1171,1633,2019-08-07 17:05:44:378
-0.2507,10.7131,-0.7021,-0.5691,-0.98,-0.2086,0.154,0.0473,-0.1171,1637,2019-08-07 17:05:44:382
0.1416,11.7013,-0.6691,-0.5691,-0.98,-0.2086,0.1721,0.0505,-0.1864,1643,2019-08-07 17:05:44:388
0.1416,11.7013,-0.6691,-0.5691,-0.98,-0.2086,0.1721,0.0505,-0.1864,1647,2019-08-07 17:05:44:392
0.1416,11.7013,-0.6691,-1.0041,-3.1665,-0.8092,0.2637,0.0559,-0.2407,1653,2019-08-07 17:05:44:398
0.0029,13.9928,0.6367,-1.0041,-3.1665,-0.8092,0.2637,0.0559,-0.2407,1657,2019-08-07 17:05:44:402
0.0029,13.9928,0.6367,-0.789,-4.4686,-1.6256,0.2637,0.0559,-0.2407,1663,2019-08-07 17:05:44:408
-0.5138,13.7397,0.9949,-0.789,-4.4686,-1.6256,0.432,0.0718,-0.2237,1668,2019-08-07 17:05:44:413
-0.5138,13.7397,0.9949,-0.789,-4.4686,-1.6256,0.432,0.0718,-0.2237,1673,2019-08-07 17:05:44:418
-0.5138,13.7397,0.9949,-0.789,-4.4686,-1.6256,0.5566,-0.0645,-0.2258,1677,2019-08-07 17:05:44:422
-0.533,10.5079,2.7956,-0.3554,-0.8138,-3.6351,0.5566,-0.0645,-0.2258,1683,2019-08-07 17:05:44:428
-0.533,10.5079,2.7956,-0.3554,-0.8138,-3.6351,1.1596,-0.4778,-0.3036,1688,2019-08-07 17:05:44:433
-0.533,10.5079,2.7956,-0.3554,-0.8138,-3.6351,1.1596,-0.4778,-0.3036,1692,2019-08-07 17:05:44:437
-0.6382,13.2958,0.6602,-0.3554,-0.8138,-3.6351,1.917,-1.1287,-0.3132,1698,2019-08-07 17:05:44:443
-0.6382,13.2958,0.6602,-0.0757,-5.5967,-0.2029,1.917,-1.1287,-0.3132,1702,2019-08-07 17:05:44:447
-0.9014,16.9859,-3.4455,-0.0757,-5.5967,-0.2029,1.917,-1.1287,-0.3132,1708,2019-08-07 17:05:44:453
-0.9014,16.9859,-3.4455,-0.0757,-5.5967,-0.2029,2.6392,-1.6241,-0.3195,1712,2019-08-07 17:05:44:457
-0.9014,16.9859,-3.4455,-0.0757,-5.5967,-0.2029,2.6392,-1.6241,-0.3195,1718,2019-08-07 17:05:44:463
-1.4324,17.4347,-5.1519,0.3542,-7.8393,3.4192,3.0302,-1.1617,-0.4484,1723,2019-08-07 17:05:44:468
-1.4324,17.4347,-5.1519,0.3542,-7.8393,3.4192,3.0302,-1.1617,-0.4484,1727,2019-08-07 17:05:44:472
-0.8727,19.7213,-4.2421,0.3542,-7.8393,3.4192,3.2997,-0.9167,-0.5443,1733,2019-08-07 17:05:44:478
-0.8727,19.7213,-4.2421,0.3542,-7.8393,3.4192,3.2997,-0.9167,-0.5443,1738,2019-08-07 17:05:44:483
-0.8727,19.7213,-4.2421,-0.4596,-11.3244,2.8291,3.7098,-1.0169,-0.6775,1743,2019-08-07 17:05:44:488
-0.9636,21.7836,-6.9101,-0.4596,-11.3244,2.8291,3.7098,-1.0169,-0.6775,1748,2019-08-07 17:05:44:493
-0.9636,21.7836,-6.9101,-0.4596,-11.3244,2.8291,4.1615,-1.0371,-0.7478,1753,2019-08-07 17:05:44:498
-0.9636,21.7836,-6.9101,-0.4596,-11.3244,2.8291,4.1615,-1.0371,-0.7478,1758,2019-08-07 17:05:44:503
-0.3703,24.3901,-9.2529,-0.9827,-15.2558,5.787,4.1615,-1.0371,-0.7478,1763,2019-08-07 17:05:44:508
-0.3703,24.3901,-9.2529,-0.9827,-15.2558,5.787,4.1604,-0.9498,-0.9619,1768,2019-08-07 17:05:44:513
-2.595,23.5786,-4.1007,-0.9827,-15.2558,5.787,4.1604,-0.9498,-0.9619,1773,2019-08-07 17:05:44:518
-2.595,23.5786,-4.1007,-0.9827,-15.2558,5.787,4.3298,0.0484,-1.159,1778,2019-08-07 17:05:44:523
-2.595,23.5786,-4.1007,1.5648,-14.1059,0.5331,4.3298,0.0484,-1.159,1783,2019-08-07 17:05:44:528
-3.681,23.3256,-4.6287,1.5648,-14.1059,0.5331,4.4353,0.4532,-1.2815,1788,2019-08-07 17:05:44:533
-3.681,23.3256,-4.6287,1.5648,-14.1059,0.5331,4.4353,0.4532,-1.2815,1792,2019-08-07 17:05:44:537
-4.059,24.9916,-3.7189,1.5648,-14.1059,0.5331,4.5844,0.1208,-1.2176,1798,2019-08-07 17:05:44:543
-4.059,24.9916,-3.7189,2.0183,-16.4571,-1.3159,4.5844,0.1208,-1.2176,1802,2019-08-07 17:05:44:547
-4.059,24.9916,-3.7189,2.0183,-16.4571,-1.3159,4.5844,0.1208,-1.2176,1808,2019-08-07 17:05:44:553
-3.4849,24.0894,-3.2947,2.0183,-16.4571,-1.3159,4.8656,-0.9263,-1.127,1812,2019-08-07 17:05:44:557
-3.4849,24.0894,-3.2947,2.0183,-16.4571,-1.3159,4.8656,-0.9263,-1.127,1818,2019-08-07 17:05:44:563
-3.4849,24.0894,-3.2947,1.8078,-14.4581,-0.6812,4.921,-1.2832,-1.1483,1823,2019-08-07 17:05:44:568
-3.7671,22.156,-5.0199,1.8078,-14.4581,-0.6812,4.921,-1.2832,-1.1483,1828,2019-08-07 17:05:44:573
-3.7671,22.156,-5.0199,1.8078,-14.4581,-0.6812,4.6781,-0.8017,-1.061,1833,2019-08-07 17:05:44:578
-3.7671,22.156,-5.0199,1.8078,-14.4581,-0.6812,4.6781,-0.8017,-1.061,1837,2019-08-07 17:05:44:582
-2.906,20.9243,-7.2543,0.5372,-13.3606,0.9726,4.2659,-0.0624,-0.9832,1843,2019-08-07 17:05:44:588
-2.906,20.9243,-7.2543,0.5372,-13.3606,0.9726,4.2659,-0.0624,-0.9832,1848,2019-08-07 17:05:44:593
-3.0543,19.3633,-4.1997,0.5372,-13.3606,0.9726,3.8835,0.4415,-0.8309,1852,2019-08-07 17:05:44:597
-3.0543,19.3633,-4.1997,0.5372,-13.3606,0.9726,3.8835,0.4415,-0.8309,1858,2019-08-07 17:05:44:603
-3.0543,19.3633,-4.1997,0.7542,-10.9341,-3.9816,3.8835,0.4415,-0.8309,1863,2019-08-07 17:05:44:608
-3.3079,17.5827,-2.6724,0.7542,-10.9341,-3.9816,3.4265,0.5672,-0.6338,1868,2019-08-07 17:05:44:613
-3.3079,17.5827,-2.6724,0.7542,-10.9341,-3.9816,3.4265,0.5672,-0.6338,1873,2019-08-07 17:05:44:618
-3.4418,16.1457,-2.8091,0.7542,-10.9341,-3.9816,2.8821,0.694,-0.4623,1878,2019-08-07 17:05:44:623
-3.4418,16.1457,-2.8091,0.9186,-9.1894,-4.9393,2.8821,0.694,-0.4623,1883,2019-08-07 17:05:44:628
-3.4418,16.1457,-2.8091,0.9186,-9.1894,-4.9393,2.1439,1.2085,-0.2428,1887,2019-08-07 17:05:44:632
-2.7625,14.6802,-1.0085,0.9186,-9.1894,-4.9393,2.1439,1.2085,-0.2428,1893,2019-08-07 17:05:44:638
-2.7625,14.6802,-1.0085,0.9186,-9.1894,-4.9393,1.5399,1.2628,-0.0852,1898,2019-08-07 17:05:44:643
-1.9731,13.4676,0.3727,-0.2887,-7.2801,-7.6414,1.5399,1.2628,-0.0852,1903,2019-08-07 17:05:44:648
-1.9731,13.4676,0.3727,-0.2887,-7.2801,-7.6414,1.5399,1.2628,-0.0852,1908,2019-08-07 17:05:44:653
-1.9731,13.4676,0.3727,-0.2887,-7.2801,-7.6414,0.8986,1.168,0.0341,1913,2019-08-07 17:05:44:658
-2.2601,12.6227,0.3538,0.0861,-6.4839,-7.6904,0.8986,1.168,0.0341,1918,2019-08-07 17:05:44:663
-2.2601,12.6227,0.3538,0.0861,-6.4839,-7.6904,-0.0314,1.332,0.1918,1923,2019-08-07 17:05:44:668
-2.6381,12.0403,1.6313,0.0861,-6.4839,-7.6904,-0.0314,1.332,0.1918,1927,2019-08-07 17:05:44:672
-2.6381,12.0403,1.6313,0.652,-5.8069,-11.0212,-0.8815,1.3853,0.3377,1933,2019-08-07 17:05:44:678
-2.6381,12.0403,1.6313,0.652,-5.8069,-11.0212,-0.8815,1.3853,0.3377,1938,2019-08-07 17:05:44:683
-2.3558,12.0021,5.3646,0.652,-5.8069,-11.0212,-0.8815,1.3853,0.3377,1943,2019-08-07 17:05:44:688
-2.3558,12.0021,5.3646,0.4459,-5.5713,-12.8439,-1.9297,0.9848,0.5689,1948,2019-08-07 17:05:44:693
-2.3558,12.0021,5.3646,0.4459,-5.5713,-12.8439,-1.9297,0.9848,0.5689,1953,2019-08-07 17:05:44:698
-2.0783,11.6679,4.9734,0.4459,-5.5713,-12.8439,-3.3103,0.5959,0.8235,1958,2019-08-07 17:05:44:703
-2.0783,11.6679,4.9734,0.1028,-4.2653,-11.4517,-3.3103,0.5959,0.8235,1963,2019-08-07 17:05:44:708
-1.6812,11.0807,4.9686,0.1028,-4.2653,-11.4517,-3.3103,0.5959,0.8235,1968,2019-08-07 17:05:44:713
-1.6812,11.0807,4.9686,0.1028,-4.2653,-11.4517,-4.6855,0.6918,0.9833,1973,2019-08-07 17:05:44:718
-1.6812,11.0807,4.9686,0.1028,-4.2653,-11.4517,-4.6855,0.6918,0.9833,1977,2019-08-07 17:05:44:722
-1.4325,11.2765,6.6845,0.1028,-4.2653,-11.4517,-5.6826,0.4969,1.0387,1982,2019-08-07 17:05:44:727
-1.4325,11.2765,6.6845,0.0996,-4.2324,-12.9798,-5.6826,0.4969,1.0387,1988,2019-08-07 17:05:44:733
-1.7721,12.5081,6.3168,0.0996,-4.2324,-12.9798,-6.5796,0.0814,1.1122,1992,2019-08-07 17:05:44:737
-1.7721,12.5081,6.3168,0.0996,-4.2324,-12.9798,-6.5796,0.0814,1.1122,1998,2019-08-07 17:05:44:743
-2.0496,13.7254,4.5114,0.8039,-5.3694,-9.4975,-7.3902,-0.2264,1.1697,2003,2019-08-07 17:05:44:748
-2.0496,13.7254,4.5114,0.8039,-5.3694,-9.4975,-7.3902,-0.2264,1.1697,2007,2019-08-07 17:05:44:752
-2.0496,13.7254,4.5114,0.8039,-5.3694,-9.4975,-8.1391,-0.4459,1.2176,2013,2019-08-07 17:05:44:758
-1.8104,14.9332,3.5545,0.8039,-5.3694,-9.4975,-8.1391,-0.4459,1.2176,2018,2019-08-07 17:05:44:763
-1.8104,14.9332,3.5545,0.8039,-5.3694,-9.4975,-8.7602,-0.6749,1.2538,2023,2019-08-07 17:05:44:768
-1.8104,14.9332,3.5545,0.7576,-6.5283,-6.656,-8.7602,-0.6749,1.2538,2027,2019-08-07 17:05:44:772
-1.7004,16.0073,3.0218,0.7576,-6.5283,-6.656,-9.28,-0.9167,1.2975,2033,2019-08-07 17:05:44:778
-1.7004,16.0073,3.0218,0.7576,-6.5283,-6.656,-9.28,-0.9167,1.2975,2037,2019-08-07 17:05:44:782
-2.0401,16.604,3.2858,0.7576,-6.5283,-6.656,-9.671,-1.1809,1.3487,2043,2019-08-07 17:05:44:788
-2.0401,16.604,3.2858,1.2763,-7.2018,-4.7529,-9.671,-1.1809,1.3487,2048,2019-08-07 17:05:44:793
-2.0401,16.604,3.2858,1.2763,-7.2018,-4.7529,-9.9607,-1.4749,1.4435,2052,2019-08-07 17:05:44:797
-2.3032,17.239,2.2063,1.2763,-7.2018,-4.7529,-9.9607,-1.4749,1.4435,2058,2019-08-07 17:05:44:803
-2.3032,17.239,2.2063,1.2763,-7.2018,-4.7529,-9.9607,-1.4749,1.4435,2063,2019-08-07 17:05:44:808
-2.3128,16.4131,0.9855,1.8624,-6.9628,-0.9963,-10.1631,-1.7306,1.5692,2068,2019-08-07 17:05:44:813
-2.3128,16.4131,0.9855,1.8624,-6.9628,-0.9963,-10.1631,-1.7306,1.5692,2072,2019-08-07 17:05:44:817
-2.3128,16.4131,0.9855,1.8624,-6.9628,-0.9963,-10.3453,-1.8424,1.7332,2078,2019-08-07 17:05:44:823
-1.6573,14.3603,0.4575,1.8624,-6.9628,-0.9963,-10.3453,-1.8424,1.7332,2083,2019-08-07 17:05:44:828
-1.6573,14.3603,0.4575,0.9427,-3.9478,1.8016,-10.488,-1.7732,1.8856,2087,2019-08-07 17:05:44:832
-0.844,12.8805,0.8912,0.9427,-3.9478,1.8016,-10.488,-1.7732,1.8856,2093,2019-08-07 17:05:44:838
-0.844,12.8805,0.8912,0.9427,-3.9478,1.8016,-10.5913,-1.6294,2.0038,2098,2019-08-07 17:05:44:843
-0.844,12.8805,0.8912,0.9427,-3.9478,1.8016,-10.5913,-1.6294,2.0038,2102,2019-08-07 17:05:44:847
-0.4278,10.4601,0.1794,0.718,-2.1959,4.0102,-10.7245,-1.3098,2.1316,2108,2019-08-07 17:05:44:853
-0.4278,10.4601,0.1794,0.718,-2.1959,4.0102,-10.7245,-1.3098,2.1316,2113,2019-08-07 17:05:44:858
-0.4278,10.4601,0.1794,0.718,-2.1959,4.0102,-10.7245,-1.3098,2.1316,2118,2019-08-07 17:05:44:863
-1.1072,9.133,-0.4051,0.718,-2.1959,4.0102,-11.1048,-0.7431,2.2605,2123,2019-08-07 17:05:44:868
-1.1072,9.133,-0.4051,2.2769,-1.9471,6.9861,-11.1048,-0.7431,2.2605,2128,2019-08-07 17:05:44:873
-1.1072,9.133,-0.4051,2.2769,-1.9471,6.9861,-11.4894,-0.3841,2.3585,2133,2019-08-07 17:05:44:878
-2.5185,12.6036,-2.1822,2.2769,-1.9471,6.9861,-11.4894,-0.3841,2.3585,2138,2019-08-07 17:05:44:883
-2.5185,12.6036,-2.1822,2.2769,-1.9471,6.9861,-11.8132,-0.3095,2.4001,2143,2019-08-07 17:05:44:888
-2.5185,12.6036,-2.1822,4.8972,-10.9312,13.8893,-11.8132,-0.3095,2.4001,2147,2019-08-07 17:05:44:892
-3.7967,18.2893,-7.5278,4.8972,-10.9312,13.8893,-12.0188,-0.2808,2.5471,2153,2019-08-07 17:05:44:898
-3.7967,18.2893,-7.5278,4.8972,-10.9312,13.8893,-12.0188,-0.2808,2.5471,2158,2019-08-07 17:05:44:903
-2.8399,26.4955,-12.2935,4.8972,-10.9312,13.8893,-12.0188,-0.2808,2.5471,2162,2019-08-07 17:05:44:907
-2.8399,26.4955,-12.2935,3.7692,-26.2631,22.7618,-11.9687,-0.4139,2.6323,2168,2019-08-07 17:05:44:913
-2.8399,26.4955,-12.2935,3.7692,-26.2631,22.7618,-11.9687,-0.4139,2.6323,2173,2019-08-07 17:05:44:918
-1.7922,36.3964,-17.507,3.7692,-26.2631,22.7618,-11.2465,-0.023,2.5769,2178,2019-08-07 17:05:44:923
-1.7922,36.3964,-17.507,3.7692,-26.2631,22.7618,-11.2465,-0.023,2.5769,2183,2019-08-07 17:05:44:928
-1.7922,36.3964,-17.507,-0.525,-36.6152,35.7438,-9.5666,1.3874,2.3521,2188,2019-08-07 17:05:44:933
3.0734,37.3225,-27.9198,-0.525,-36.6152,35.7438,-9.5666,1.3874,2.3521,2193,2019-08-07 17:05:44:938
3.0734,37.3225,-27.9198,-0.525,-36.6152,35.7438,-8.3106,3.1643,1.37,2198,2019-08-07 17:05:44:943
2.5041,30.0615,-35.5279,-0.525,-36.6152,35.7438,-8.3106,3.1643,1.37,2203,2019-08-07 17:05:44:948
2.5041,30.0615,-35.5279,1.6863,-25.8132,46.8438,-7.06,5.7795,0.1779,2208,2019-08-07 17:05:44:953
2.5041,30.0615,-35.5279,1.6863,-25.8132,46.8438,-7.06,5.7795,0.1779,2212,2019-08-07 17:05:44:957
-6.4568,20.9292,-35.9851,1.6863,-25.8132,46.8438,-5.7359,7.7833,-0.0926,2217,2019-08-07 17:05:44:962
-6.4568,20.9292,-35.9851,1.6863,-25.8132,46.8438,-5.7359,7.7833,-0.0926,2223,2019-08-07 17:05:44:968
-6.4568,20.9292,-35.9851,9.3174,-13.6253,37.7412,-4.2871,7.2496,0.6839,2228,2019-08-07 17:05:44:973
-8.892,10.7944,-26.0201,9.3174,-13.6253,37.7412,-4.2871,7.2496,0.6839,2232,2019-08-07 17:05:44:977
-8.892,10.7944,-26.0201,9.3174,-13.6253,37.7412,-2.5571,3.5478,1.5905,2238,2019-08-07 17:05:44:983
-8.892,10.7944,-26.0201,9.3174,-13.6253,37.7412,-2.5571,3.5478,1.5905,2243,2019-08-07 17:05:44:988
2.2504,-2.8253,-18.6666,-5.8517,5.596,28.9533,-0.8793,-2.0693,1.3625,2248,2019-08-07 17:05:44:993
2.2504,-2.8253,-18.6666,-5.8517,5.596,28.9533,-0.8793,-2.0693,1.3625,2252,2019-08-07 17:05:44:997
2.2504,-2.8253,-18.6666,-5.8517,5.596,28.9533,-0.8793,-2.0693,1.3625,2258,2019-08-07 17:05:45:003
2.5183,-12.1152,-25.2754,-3.4775,10.7193,34.9381,1.0488,-5.2737,-0.0969,2262,2019-08-07 17:05:45:007
2.5183,-12.1152,-25.2754,-3.4775,10.7193,34.9381,1.0488,-5.2737,-0.0969,2268,2019-08-07 17:05:45:013
-0.6967,-4.9688,-19.4444,-3.4775,10.7193,34.9381,3.9389,-4.6451,-1.9153,2273,2019-08-07 17:05:45:018
-0.6967,-4.9688,-19.4444,0.5687,-1.7625,23.61,3.9389,-4.6451,-1.9153,2278,2019-08-07 17:05:45:023
-0.6967,-4.9688,-19.4444,0.5687,-1.7625,23.61,6.879,-3.8217,-2.0559,2283,2019-08-07 17:05:45:028
-0.2135,8.3216,-7.7023,0.5687,-1.7625,23.61,6.879,-3.8217,-2.0559,2288,2019-08-07 17:05:45:033
-0.2135,8.3216,-7.7023,0.5687,-1.7625,23.61,9.7531,-3.3988,-1.3955,2292,2019-08-07 17:05:45:037
-3.1175,31.6417,-7.707,3.8957,-30.7128,17.4419,9.7531,-3.3988,-1.3955,2298,2019-08-07 17:05:45:043
-3.1175,31.6417,-7.707,3.8957,-30.7128,17.4419,6.1248,-5.0489,-0.5475,2303,2019-08-07 17:05:45:048
-3.1175,31.6417,-7.707,3.8957,-30.7128,17.4419,6.1248,-5.0489,-0.5475,2307,2019-08-07 17:05:45:052
7.8097,10.4984,-22.9892,-6.5351,-8.86,32.5771,6.1248,-5.0489,-0.5475,2313,2019-08-07 17:05:45:058
7.8097,10.4984,-22.9892,-6.5351,-8.86,32.5771,7.0377,0.1688,-1.5499,2318,2019-08-07 17:05:45:063
5.5563,26.2998,-20.7407,-6.5351,-8.86,32.5771,7.0377,0.1688,-1.5499,2323,2019-08-07 17:05:45:068
5.5563,26.2998,-20.7407,4.5954,-26.3178,26.9872,7.2145,3.111,-2.2115,2328,2019-08-07 17:05:45:073
5.5563,26.2998,-20.7407,4.5954,-26.3178,26.9872,7.2145,3.111,-2.2115,2333,2019-08-07 17:05:45:078
-3.2659,22.1704,-6.9434,4.5954,-26.3178,26.9872,5.3162,5.1702,-1.5031,2338,2019-08-07 17:05:45:083
-3.2659,22.1704,-6.9434,4.5954,-26.3178,26.9872,5.3162,5.1702,-1.5031,2343,2019-08-07 17:05:45:088
-3.2659,22.1704,-6.9434,4.5954,-26.3178,26.9872,6.5647,6.245,-0.8437,2348,2019-08-07 17:05:45:093
-3.8544,22.0177,12.9772,3.7952,-17.7272,-4.1553,6.5647,6.245,-0.8437,2352,2019-08-07 17:05:45:097
-3.8544,22.0177,12.9772,3.7952,-17.7272,-4.1553,7.0963,2.7062,-0.4303,2358,2019-08-07 17:05:45:103
-3.6104,17.4587,2.9462,3.7952,-17.7272,-4.1553,7.0963,2.7062,-0.4303,2362,2019-08-07 17:05:45:107
-3.6104,17.4587,2.9462,5.5533,-13.9,10.074,7.549,0.6066,-0.5571,2368,2019-08-07 17:05:45:113
-3.6104,17.4587,2.9462,5.5533,-13.9,10.074,7.549,0.6066,-0.5571,2372,2019-08-07 17:05:45:117
-6.5192,20.9817,-2.3097,5.5533,-13.9,10.074,7.3541,-0.2637,-0.3984,2378,2019-08-07 17:05:45:123
-6.5192,20.9817,-2.3097,4.4262,-14.5385,9.2881,7.3541,-0.2637,-0.3984,2383,2019-08-07 17:05:45:128
-6.5192,20.9817,-2.3097,4.4262,-14.5385,9.2881,7.3541,-0.2637,-0.3984,2387,2019-08-07 17:05:45:132
-1.6823,20.5855,-5.2417,4.4262,-14.5385,9.2881,6.8406,0.8463,-0.3217,2393,2019-08-07 17:05:45:138
-1.6823,20.5855,-5.2417,4.4262,-14.5385,9.2881,6.8406,0.8463,-0.3217,2398,2019-08-07 17:05:45:143
-2.6966,21.8983,1.8714,1.727,-14.801,6.0671,6.4923,1.1169,-0.4037,2402,2019-08-07 17:05:45:147
-2.6966,21.8983,1.8714,1.727,-14.801,6.0671,6.4923,1.1169,-0.4037,2408,2019-08-07 17:05:45:153
-2.6966,21.8983,1.8714,2.2649,-12.7226,1.4718,6.4678,0.6876,-0.5145,2413,2019-08-07 17:05:45:158
-3.8783,19.6355,5.4209,2.2649,-12.7226,1.4718,6.4678,0.6876,-0.5145,2417,2019-08-07 17:05:45:162
-3.8783,19.6355,5.4209,2.2649,-12.7226,1.4718,6.4678,0.6876,-0.5145,2423,2019-08-07 17:05:45:168
-4.9405,18.9338,5.4209,2.2649,-12.7226,1.4718,6.6244,-0.7772,-0.6104,2428,2019-08-07 17:05:45:173
-4.9405,18.9338,5.4209,3.6974,-10.217,0.1079,6.6244,-0.7772,-0.6104,2433,2019-08-07 17:05:45:178
-4.9405,18.9338,5.4209,3.6974,-10.217,0.1079,6.6265,-1.6187,-0.7734,2437,2019-08-07 17:05:45:182
-3.3712,18.0984,2.1024,3.6974,-10.217,0.1079,6.6265,-1.6187,-0.7734,2443,2019-08-07 17:05:45:188
-3.3712,18.0984,2.1024,3.6974,-10.217,0.1079,6.3858,-1.5037,-0.8884,2448,2019-08-07 17:05:45:193
-1.0939,18.8526,0.3112,0.6142,-9.7067,3.3445,6.3858,-1.5037,-0.8884,2452,2019-08-07 17:05:45:197
-1.0939,18.8526,0.3112,0.6142,-9.7067,3.3445,6.3858,-1.5037,-0.8884,2458,2019-08-07 17:05:45:203
-1.0939,18.8526,0.3112,0.6142,-9.7067,3.3445,6.0172,-1.1095,-0.9481,2463,2019-08-07 17:05:45:208
-0.0127,19.3682,-0.6788,0.6142,-9.7067,3.3445,6.0172,-1.1095,-0.9481,2468,2019-08-07 17:05:45:213
-0.0127,19.3682,-0.6788,-0.9035,-9.9631,3.7412,5.4345,-0.334,-1.0269,2473,2019-08-07 17:05:45:218
-1.0079,19.4684,0.0707,-0.9035,-9.9631,3.7412,5.4345,-0.334,-1.0269,2478,2019-08-07 17:05:45:223
-1.0079,19.4684,0.0707,-0.9035,-9.9631,3.7412,4.9636,0.5001,-1.0173,2483,2019-08-07 17:05:45:228
-1.0079,19.4684,0.0707,-0.9035,-9.9631,3.7412,4.9636,0.5001,-1.0173,2488,2019-08-07 17:05:45:233
-1.5198,19.1772,3.8936,0.2314,-9.6107,-2.1452,4.6228,0.907,-0.8437,2492,2019-08-07 17:05:45:237
-1.5198,19.1772,3.8936,0.2314,-9.6107,-2.1452,4.6228,0.907,-0.8437,2498,2019-08-07 17:05:45:243
-1.5198,19.1772,3.8936,0.2314,-9.6107,-2.1452,4.2765,0.6982,-0.6658,2503,2019-08-07 17:05:45:248
-2.1083,18.485,4.2943,0.2314,-9.6107,-2.1452,4.2765,0.6982,-0.6658,2507,2019-08-07 17:05:45:252
-2.1083,18.485,4.2943,1.0644,-8.7601,-2.9756,4.2765,0.6982,-0.6658,2513,2019-08-07 17:05:45:258
-2.7207,18.4278,3.5165,1.0644,-8.7601,-2.9756,3.974,0.5885,-0.5283,2517,2019-08-07 17:05:45:262
-2.7207,18.4278,3.5165,1.0644,-8.7601,-2.9756,3.974,0.5885,-0.5283,2523,2019-08-07 17:05:45:268
-2.7207,18.4278,3.5165,1.0644,-8.7601,-2.9756,3.6044,0.6098,-0.3909,2527,2019-08-07 17:05:45:272
-3.0077,18.1079,4.5441,1.5791,-8.344,-4.7243,3.6044,0.6098,-0.3909,2533,2019-08-07 17:05:45:278
-3.0077,18.1079,4.5441,1.5791,-8.344,-4.7243,3.1878,0.4575,-0.2407,2538,2019-08-07 17:05:45:283
-3.4718,17.8883,5.4068,1.5791,-8.344,-4.7243,3.1878,0.4575,-0.2407,2543,2019-08-07 17:05:45:288
-3.4718,17.8883,5.4068,1.5791,-8.344,-4.7243,2.9034,0.1975,-0.1108,2548,2019-08-07 17:05:45:293
-3.4718,17.8883,5.4068,1.9175,-8.2215,-4.9551,2.9034,0.1975,-0.1108,2553,2019-08-07 17:05:45:298
-3.4718,17.8883,5.4068,1.9175,-8.2215,-4.9551,2.9034,0.1975,-0.1108,2557,2019-08-07 17:05:45:302
-3.4575,18.0124,3.9266,1.9175,-8.2215,-4.9551,2.5924,0.0367,-0.0309,2563,2019-08-07 17:05:45:308
-3.4575,18.0124,3.9266,1.9175,-8.2215,-4.9551,2.5924,0.0367,-0.0309,2568,2019-08-07 17:05:45:313
-3.4575,18.0124,3.9266,1.3745,-8.8277,-3.9016,2.1077,0.0612,0.081,2573,2019-08-07 17:05:45:318
-2.8882,18.3991,2.965,1.3745,-8.8277,-3.9016,2.1077,0.0612,0.081,2578,2019-08-07 17:05:45:323
-2.8882,18.3991,2.965,1.3745,-8.8277,-3.9016,1.8179,0.1251,0.1321,2583,2019-08-07 17:05:45:328
-3.1465,17.8549,2.635,1.3745,-8.8277,-3.9016,1.8179,0.1251,0.1321,2588,2019-08-07 17:05:45:333
-3.1465,17.8549,2.635,2.0741,-8.223,-4.1662,1.5079,0.303,0.1151,2592,2019-08-07 17:05:45:337
-3.1465,17.8549,2.635,2.0741,-8.223,-4.1662,1.5079,0.303,0.1151,2598,2019-08-07 17:05:45:343
-3.8594,17.7547,3.5872,2.0741,-8.223,-4.1662,1.2864,0.3456,0.1854,2603,2019-08-07 17:05:45:348
-3.8594,17.7547,3.5872,2.0741,-8.223,-4.1662,1.2864,0.3456,0.1854,2607,2019-08-07 17:05:45:352
-3.6058,17.0243,4.2047,2.0884,-7.4496,-5.708,1.1628,0.2135,0.26,2613,2019-08-07 17:05:45:358
-3.6058,17.0243,4.2047,2.0884,-7.4496,-5.708,1.1628,0.2135,0.26,2618,2019-08-07 17:05:45:363
-3.6058,17.0243,4.2047,2.0884,-7.4496,-5.708,1.0552,0.1773,0.3303,2623,2019-08-07 17:05:45:368
-2.6586,16.7522,3.4081,2.0884,-7.4496,-5.708,1.0552,0.1773,0.3303,2627,2019-08-07 17:05:45:372
-2.6586,16.7522,3.4081,2.0884,-7.4496,-5.708,1.0552,0.1773,0.3303,2632,2019-08-07 17:05:45:377
-1.3908,16.3941,2.932,0.4537,-6.9256,-4.6907,0.9146,0.3573,0.4219,2638,2019-08-07 17:05:45:383
-1.3908,16.3941,2.932,0.4537,-6.9256,-4.6907,0.709,0.727,0.4869,2642,2019-08-07 17:05:45:387
-1.3908,16.3941,2.932,0.4537,-6.9256,-4.6907,0.709,0.727,0.4869,2648,2019-08-07 17:05:45:393
-0.7832,16.2557,3.1394,-0.6429,-6.7173,-5.1114,0.709,0.727,0.4869,2653,2019-08-07 17:05:45:398
-0.7832,16.2557,3.1394,-0.6429,-6.7173,-5.1114,0.416,1.2937,0.5934,2657,2019-08-07 17:05:45:402
-0.7832,16.2557,3.1394,-0.6429,-6.7173,-5.1114,0.416,1.2937,0.5934,2663,2019-08-07 17:05:45:408
-0.5535,15.8165,3.7758,-0.6851,-6.2645,-5.6361,0.2371,1.6005,0.653,2667,2019-08-07 17:05:45:412
-0.5535,15.8165,3.7758,-0.6851,-6.2645,-5.6361,0.2371,1.6005,0.653,2673,2019-08-07 17:05:45:418
-0.5535,15.8165,3.7758,-0.6851,-6.2645,-5.6361,0.2371,1.6005,0.653,2678,2019-08-07 17:05:45:423
-1.276,14.4464,4.6242,0.3565,-4.4141,-7.1419,-0.1273,2.0586,0.6829,2683,2019-08-07 17:05:45:428
-1.276,14.4464,4.6242,0.3565,-4.4141,-7.1419,-0.1273,2.0586,0.6829,2687,2019-08-07 17:05:45:432
-1.3717,13.1193,5.8357,0.3565,-4.4141,-7.1419,-0.3392,2.0948,0.7138,2693,2019-08-07 17:05:45:438
-1.3717,13.1193,5.8357,0.3565,-4.4141,-7.1419,-0.3392,2.0948,0.7138,2697,2019-08-07 17:05:45:442
-1.3717,13.1193,5.8357,1.1057,-2.0926,-6.8772,-0.3392,2.0948,0.7138,2703,2019-08-07 17:05:45:448
-1.9314,11.7015,5.0815,1.1057,-2.0926,-6.8772,-0.5917,2.0522,0.5742,2707,2019-08-07 17:05:45:452
-1.9314,11.7015,5.0815,1.1057,-2.0926,-6.8772,-0.5917,2.0522,0.5742,2713,2019-08-07 17:05:45:458
-3.1849,11.0379,4.7421,1.1057,-2.0926,-6.8772,-0.7909,2.1853,0.4016,2717,2019-08-07 17:05:45:462
-3.1849,11.0379,4.7421,1.1057,-2.0926,-6.8772,-0.7909,2.1853,0.4016,2723,2019-08-07 17:05:45:468
-3.1849,11.0379,4.7421,2.7239,-1.4182,-6.0827,-0.94,2.3377,0.2163,2727,2019-08-07 17:05:45:472
-3.3141,10.9186,3.5118,2.7239,-1.4182,-6.0827,-0.94,2.3377,0.2163,2732,2019-08-07 17:05:45:477
-3.3141,10.9186,3.5118,2.7239,-1.4182,-6.0827,-1.0636,2.392,-0.0405,2738,2019-08-07 17:05:45:483
-3.2615,11.6919,-1.3812,2.7239,-1.4182,-6.0827,-1.0636,2.392,-0.0405,2743,2019-08-07 17:05:45:488
-3.2615,11.6919,-1.3812,2.2431,-2.5949,2.7226,-1.9041,1.3289,-0.2269,2748,2019-08-07 17:05:45:493
-3.2615,11.6919,-1.3812,2.2431,-2.5949,2.7226,-1.9041,1.3289,-0.2269,2753,2019-08-07 17:05:45:498
-3.2615,11.6919,-1.3812,2.2431,-2.5949,2.7226,-1.9041,1.3289,-0.2269,2757,2019-08-07 17:05:45:502
-11.6483,22.8913,33.7226,2.2431,-2.5949,2.7226,-2.5635,-0.1401,0.6104,2763,2019-08-07 17:05:45:508
-11.6483,22.8913,33.7226,2.1867,3.6663,-16.1089,-2.5635,-0.1401,0.6104,2767,2019-08-07 17:05:45:512
-6.2086,16.7999,10.5212,2.1867,3.6663,-16.1089,-1.6772,0.1592,0.342,2773,2019-08-07 17:05:45:518
-6.2086,16.7999,10.5212,2.1867,3.6663,-16.1089,-1.6772,0.1592,0.342,2777,2019-08-07 17:05:45:522
-6.2086,16.7999,10.5212,2.1867,3.6663,-16.1089,-2.359,-2.4635,0.9332,2783,2019-08-07 17:05:45:528
4.0823,11.4914,11.6996,-4.5403,-1.7055,-12.2115,-2.359,-2.4635,0.9332,2788,2019-08-07 17:05:45:533
4.0823,11.4914,11.6996,-4.5403,-1.7055,-12.2115,-1.6367,-2.4816,1.0248,2793,2019-08-07 17:05:45:538
6.8093,18.0268,-4.5253,-4.5403,-1.7055,-12.2115,-1.6367,-2.4816,1.0248,2797,2019-08-07 17:05:45:542
6.8093,18.0268,-4.5253,-4.5403,-1.7055,-12.2115,-1.5504,-1.1468,0.8331,2802,2019-08-07 17:05:45:547
6.8093,18.0268,-4.5253,-6.9599,-8.0306,8.3416,-1.5504,-1.1468,0.8331,2808,2019-08-07 17:05:45:553
5.5558,16.7044,-10.8559,-6.9599,-8.0306,8.3416,-1.5504,-1.1468,0.8331,2813,2019-08-07 17:05:45:558
5.5558,16.7044,-10.8559,-6.9599,-8.0306,8.3416,-1.3502,0.8761,0.5678,2818,2019-08-07 17:05:45:563
-1.7211,14.5228,-5.0957,-6.9599,-8.0306,8.3416,-1.3502,0.8761,0.5678,2822,2019-08-07 17:05:45:567
-1.7211,14.5228,-5.0957,2.749,-3.8022,1.5428,-1.5963,3.3134,0.3707,2828,2019-08-07 17:05:45:573
-1.7211,14.5228,-5.0957,2.749,-3.8022,1.5428,-1.5963,3.3134,0.3707,2833,2019-08-07 17:05:45:578
-4.3285,10.6178,16.7717,2.749,-3.8022,1.5428,-1.7411,3.8503,0.4336,2837,2019-08-07 17:05:45:582
-4.3285,10.6178,16.7717,2.749,-3.8022,1.5428,-1.7411,3.8503,0.4336,2843,2019-08-07 17:05:45:588
-4.1993,12.0786,9.536,4.1054,-1.701,-12.1139,-1.0189,-0.2531,0.5028,2848,2019-08-07 17:05:45:593
-4.1993,12.0786,9.536,4.1054,-1.701,-12.1139,-1.0189,-0.2531,0.5028,2852,2019-08-07 17:05:45:597
-4.1993,12.0786,9.536,4.1054,-1.701,-12.1139,-0.6386,-2.3037,0.5433,2858,2019-08-07 17:05:45:603
-2.5631,12.5035,5.8781,4.1054,-1.701,-12.1139,-0.6386,-2.3037,0.5433,2863,2019-08-07 17:05:45:608
-2.5631,12.5035,5.8781,0.5923,-1.0509,-3.2131,-0.6386,-2.3037,0.5433,2867,2019-08-07 17:05:45:612
-2.5631,12.5035,5.8781,0.5923,-1.0509,-3.2131,-0.0676,-2.7905,0.3995,2873,2019-08-07 17:05:45:618
1.6422,9.811,-4.4075,0.5923,-1.0509,-3.2131,-0.0676,-2.7905,0.3995,2877,2019-08-07 17:05:45:622
1.6422,9.811,-4.4075,0.5923,-1.0509,-3.2131,-0.4649,-1.2747,0.3303,2883,2019-08-07 17:05:45:628
4.6611,8.4171,-1.3765,-4.2683,0.9998,3.139,-0.4649,-1.2747,0.3303,2888,2019-08-07 17:05:45:633
4.6611,8.4171,-1.3765,-4.2683,0.9998,3.139,-0.5342,0.156,0.3526,2892,2019-08-07 17:05:45:637
4.6611,8.4171,-1.3765,-4.2683,0.9998,3.139,-0.5342,0.156,0.3526,2898,2019-08-07 17:05:45:643
3.6803,8.398,0.3346,-4.2683,0.9998,3.139,-0.5416,0.6151,0.294,2903,2019-08-07 17:05:45:648
3.6803,8.398,0.3346,-4.2683,0.9998,3.139,-0.5416,0.6151,0.294,2907,2019-08-07 17:05:45:652
3.6803,8.398,0.3346,-1.6757,0.8668,0.4749,-0.5416,0.6151,0.294,2913,2019-08-07 17:05:45:658
0.9054,9.2143,0.1932,-1.6757,0.8668,0.4749,-0.5352,0.6727,0.146,2917,2019-08-07 17:05:45:662
0.9054,9.2143,0.1932,-1.6757,0.8668,0.4749,-0.5352,0.6727,0.146,2923,2019-08-07 17:05:45:668
0.3361,9.1475,2.0646,-0.0831,0.6241,-1.2355,-0.4394,0.5438,0.1055,2928,2019-08-07 17:05:45:673
0.3361,9.1475,2.0646,-0.0831,0.6241,-1.2355,-0.4394,0.5438,0.1055,2933,2019-08-07 17:05:45:678
0.3361,9.1475,2.0646,-0.0831,0.6241,-1.2355,-0.3158,-0.0496,0.1513,2938,2019-08-07 17:05:45:683
0.8432,9.1236,1.8006,-0.0831,0.6241,-1.2355,-0.3158,-0.0496,0.1513,2942,2019-08-07 17:05:45:687
0.8432,9.1236,1.8006,-0.7782,0.5304,-0.4786,-0.303,-0.399,0.1534,2947,2019-08-07 17:05:45:692
0.8432,9.1236,1.8006,-0.7782,0.5304,-0.4786,-0.303,-0.399,0.1534,2953,2019-08-07 17:05:45:698
1.3312,9.4817,1.2727,-0.7782,0.5304,-0.4786,-0.2625,-0.416,0.1385,2957,2019-08-07 17:05:45:702
1.3312,9.4817,1.2727,-0.7782,0.5304,-0.4786,-0.2625,-0.416,0.1385,2963,2019-08-07 17:05:45:708
1.1206,10.1309,1.6545,-0.793,-0.3736,-0.6936,-0.1922,-0.3074,0.1204,2968,2019-08-07 17:05:45:713
1.1206,10.1309,1.6545,-0.793,-0.3736,-0.6936,-0.1922,-0.3074,0.1204,2973,2019-08-07 17:05:45:718
1.1206,10.1309,1.6545,-0.793,-0.3736,-0.6936,-0.1922,-0.3074,0.1204,2978,2019-08-07 17:05:45:723
0.4556,10.1166,1.4424,-0.1131,-0.3616,-0.4626,-0.1518,-0.1327,0.0916,2983,2019-08-07 17:05:45:728
0.4556,10.1166,1.4424,-0.1131,-0.3616,-0.4626,-0.1518,-0.1327,0.0916,2988,2019-08-07 17:05:45:733
-0.0372,9.7967,2.0363,-0.1131,-0.3616,-0.4626,-0.0058,0.0718,0.0693,2993,2019-08-07 17:05:45:738
-0.0372,9.7967,2.0363,0.2392,0.0563,-0.8746,-0.0058,0.0718,0.0693,2998,2019-08-07 17:05:45:743
-0.0372,9.7967,2.0363,0.2392,0.0563,-0.8746,0.0911,0.0921,0.0512,3003,2019-08-07 17:05:45:748
0.4747,9.6344,1.0747,0.2392,0.0563,-0.8746,0.0911,0.0921,0.0512,3008,2019-08-07 17:05:45:753
0.4747,9.6344,1.0747,0.2392,0.0563,-0.8746,0.0911,0.0921,0.0512,3014,2019-08-07 17:05:45:759
0.4747,9.6344,1.0747,0.2392,0.0563,-0.8746,0.0911,0.0921,0.0512,3018,2019-08-07 17:05:45:763
0.7666,9.7299,0.6174,-0.7121,-0.1275,0.4906,0.1572,0.2242,0.0213,3023,2019-08-07 17:05:45:768
0.7666,9.7299,0.6174,-0.7121,-0.1275,0.4906,0.1998,0.5224,-0.017,3028,2019-08-07 17:05:45:773
1.2498,10.0163,0.7636,-0.7121,-0.1275,0.4906,0.1998,0.5224,-0.017,3033,2019-08-07 17:05:45:778
1.2498,10.0163,0.7636,-0.7554,-0.2191,0.2359,0.1998,0.5224,-0.017,3037,2019-08-07 17:05:45:782
1.001,9.854,0.5797,-0.7554,-0.2191,0.2359,0.204,0.4766,-0.0319,3043,2019-08-07 17:05:45:788
1.001,9.854,0.5797,-0.7554,-0.2191,0.2359,0.204,0.4766,-0.0319,3048,2019-08-07 17:05:45:793
1.001,9.854,0.5797,-0.7554,-0.2191,0.2359,0.1859,0.2742,-0.0607,3053,2019-08-07 17:05:45:798
1.221,9.6917,0.641,-0.7554,-0.2191,0.2359,0.1859,0.2742,-0.0607,3058,2019-08-07 17:05:45:803
1.221,9.6917,0.641,-0.9664,0.1095,0.2775,0.1859,0.2742,-0.0607,3062,2019-08-07 17:05:45:807
1.221,9.6917,0.641,-0.9664,0.1095,0.2775,0.17,0.0495,-0.0682,3068,2019-08-07 17:05:45:813
1.5224,9.9972,-0.7873,-0.9664,0.1095,0.2775,0.17,0.0495,-0.0682,3073,2019-08-07 17:05:45:818
1.5224,9.9972,-0.7873,-0.9664,0.1095,0.2775,0.0879,0.0761,-0.1044,3078,2019-08-07 17:05:45:823
1.5224,9.9972,-0.7873,-1.0171,-0.4787,2.3684,0.0879,0.0761,-0.1044,3083,2019-08-07 17:05:45:828
1.0535,10.4603,-1.4425,-1.0171,-0.4787,2.3684,-5.0E-4,0.3829,-0.1289,3088,2019-08-07 17:05:45:833
1.0535,10.4603,-1.4425,-1.0171,-0.4787,2.3684,-5.0E-4,0.3829,-0.1289,3093,2019-08-07 17:05:45:838
-0.1425,10.3219,-0.7684,-1.0171,-0.4787,2.3684,-0.0804,0.6013,-0.114,3097,2019-08-07 17:05:45:842
-0.1425,10.3219,-0.7684,0.7754,-0.5197,1.4483,-0.0804,0.6013,-0.114,3103,2019-08-07 17:05:45:848
-0.1425,10.3219,-0.7684,0.7754,-0.5197,1.4483,-0.1347,0.6034,-0.0852,3108,2019-08-07 17:05:45:853
-1.7405,10.4508,0.2969,0.7754,-0.5197,1.4483,-0.1347,0.6034,-0.0852,3113,2019-08-07 17:05:45:858
-1.7405,10.4508,0.2969,0.7754,-0.5197,1.4483,-0.1347,0.6034,-0.0852,3117,2019-08-07 17:05:45:862
-2.1424,10.594,1.2443,2.447,-0.8072,-0.2188,-0.1358,0.2977,-0.05,3123,2019-08-07 17:05:45:868
-2.1424,10.594,1.2443,2.447,-0.8072,-0.2188,-0.1358,0.2977,-0.05,3127,2019-08-07 17:05:45:872
-2.1424,10.594,1.2443,2.447,-0.8072,-0.2188,-0.0836,-0.1891,0.0107,3133,2019-08-07 17:05:45:878
-0.8459,10.4603,0.41,2.447,-0.8072,-0.2188,-0.0836,-0.1891,0.0107,3137,2019-08-07 17:05:45:882
-0.8459,10.4603,0.41,0.5711,-0.4407,1.0698,-0.0559,-0.5002,0.0618,3143,2019-08-07 17:05:45:888
0.313,10.0353,-0.7588,0.5711,-0.4407,1.0698,-0.0559,-0.5002,0.0618,3148,2019-08-07 17:05:45:893
0.313,10.0353,-0.7588,0.5711,-0.4407,1.0698,-0.1464,-0.4054,0.0671,3153,2019-08-07 17:05:45:898
0.313,10.0353,-0.7588,0.5711,-0.4407,1.0698,-0.1464,-0.4054,0.0671,3158,2019-08-07 17:05:45:903
0.6239,10.0401,-0.2026,-0.3447,-0.275,1.0972,-0.1997,-0.2946,0.081,3163,2019-08-07 17:05:45:908
0.6239,10.0401,-0.2026,-0.3447,-0.275,1.0972,-0.1997,-0.2946,0.081,3167,2019-08-07 17:05:45:912
0.6239,10.0401,-0.2026,-0.3447,-0.275,1.0972,-0.1997,-0.2946,0.081,3173,2019-08-07 17:05:45:918
0.2986,10.0258,0.8062,-0.3447,-0.275,1.0972,-0.2359,-0.3362,0.0703,3177,2019-08-07 17:05:45:922
0.2986,10.0258,0.8062,0.1117,-0.1887,-0.3852,-0.2359,-0.3362,0.0703,3183,2019-08-07 17:05:45:928
0.2699,9.9064,1.4331,0.1117,-0.1887,-0.3852,-0.238,-0.4523,0.0394,3187,2019-08-07 17:05:45:932
0.2699,9.9064,1.4331,0.1117,-0.1887,-0.3852,-0.238,-0.4523,0.0394,3193,2019-08-07 17:05:45:938
0.2699,9.9064,1.4331,0.1117,-0.1887,-0.3852,-0.2231,-0.5876,0.0405,3197,2019-08-07 17:05:45:942
0.7531,9.8062,0.2311,-0.3563,-0.012,1.467,-0.2231,-0.5876,0.0405,3203,2019-08-07 17:05:45:948
0.7531,9.8062,0.2311,-0.3563,-0.012,1.467,-0.2753,-0.5162,0.0394,3207,2019-08-07 17:05:45:952
1.4564,9.8969,-0.9756,-0.3563,-0.012,1.467,-0.2753,-0.5162,0.0394,3213,2019-08-07 17:05:45:958
1.4564,9.8969,-0.9756,-0.3563,-0.012,1.467,-0.3307,-0.2286,-0.0096,3217,2019-08-07 17:05:45:962
1.4564,9.8969,-0.9756,0.0722,-0.6708,1.6965,-0.3307,-0.2286,-0.0096,3223,2019-08-07 17:05:45:968
0.3273,10.1786,-0.476,0.0722,-0.6708,1.6965,-0.3872,-0.1306,0.0778,3228,2019-08-07 17:05:45:973
0.3273,10.1786,-0.476,0.0722,-0.6708,1.6965,-0.3872,-0.1306,0.0778,3233,2019-08-07 17:05:45:978
0.3273,10.1786,-0.476,0.0722,-0.6708,1.6965,-0.3275,-0.0975,0.0746,3237,2019-08-07 17:05:45:982
-0.6582,10.5079,1.6735,0.7974,-0.9316,-0.6019,-0.3275,-0.0975,0.0746,3243,2019-08-07 17:05:45:988
-0.6582,10.5079,1.6735,0.7974,-0.9316,-0.6019,-0.2902,-0.2999,0.048,3247,2019-08-07 17:05:45:992
0.0403,10.317,1.1644,0.7974,-0.9316,-0.6019,-0.2902,-0.2999,0.048,3253,2019-08-07 17:05:45:998
0.0403,10.317,1.1644,0.7974,-0.9316,-0.6019,-0.2178,-0.3745,0.0096,3257,2019-08-07 17:05:46:002
0.3895,9.5771,-0.1554,0.1576,0.1654,1.2413,-0.2178,-0.3745,0.0096,3263,2019-08-07 17:05:46:008
0.3895,9.5771,-0.1554,0.1576,0.1654,1.2413,-0.2604,-0.2147,0.0746,3268,2019-08-07 17:05:46:013
0.3895,9.5771,-0.1554,0.1576,0.1654,1.2413,-0.2604,-0.2147,0.0746,3273,2019-08-07 17:05:46:018
0.6909,9.9399,0.7449,0.1576,0.1654,1.2413,-0.2807,-0.0368,0.0661,3278,2019-08-07 17:05:46:023
0.6909,9.9399,0.7449,-0.1305,-0.3037,-0.0337,-0.2807,-0.0368,0.0661,3282,2019-08-07 17:05:46:027
0.6909,9.9399,0.7449,-0.1305,-0.3037,-0.0337,-0.2487,-6.0E-4,0.0576,3288,2019-08-07 17:05:46:033
0.3512,10.1213,1.5934,-0.1305,-0.3037,-0.0337,-0.2487,-6.0E-4,0.0576,3292,2019-08-07 17:05:46:037
0.3512,10.1213,1.5934,-0.1305,-0.3037,-0.0337,-0.2093,-0.0603,0.0618,3298,2019-08-07 17:05:46:043
0.3943,9.6821,1.3435,-0.0035,0.0432,-0.1177,-0.2093,-0.0603,0.0618,3303,2019-08-07 17:05:46:048
0.3943,9.6821,1.3435,-0.0035,0.0432,-0.1177,-0.1624,-0.1338,0.0458,3308,2019-08-07 17:05:46:053
0.3943,9.6821,1.3435,-0.0035,0.0432,-0.1177,-0.1624,-0.1338,0.0458,3313,2019-08-07 17:05:46:058
0.4374,9.7966,1.7442,-0.0035,0.0432,-0.1177,-0.1624,-0.1338,0.0458,3317,2019-08-07 17:05:46:062
0.4374,9.7966,1.7442,-0.1182,0.0432,-0.7216,-0.123,-0.2605,0.0544,3323,2019-08-07 17:05:46:068
0.5809,9.5389,1.9092,-0.1182,0.0432,-0.7216,-0.123,-0.2605,0.0544,3327,2019-08-07 17:05:46:072
0.5809,9.5389,1.9092,-0.1182,0.0432,-0.7216,-0.0548,-0.3798,0.0607,3333,2019-08-07 17:05:46:078
0.5809,9.5389,1.9092,-0.1182,0.0432,-0.7216,-0.0548,-0.3798,0.0607,3338,2019-08-07 17:05:46:083
0.8775,9.6343,1.386,-0.4472,0.1173,0.1977,0.0059,-0.5002,0.0618,3343,2019-08-07 17:05:46:088
0.8775,9.6343,1.386,-0.4472,0.1173,0.1977,0.0059,-0.5002,0.0618,3347,2019-08-07 17:05:46:092
1.2842,9.6057,0.5893,-0.4472,0.1173,0.1977,0.0272,-0.4672,0.0416,3353,2019-08-07 17:05:46:098
1.2842,9.6057,0.5893,-0.4472,0.1173,0.1977,0.0272,-0.4672,0.0416,3357,2019-08-07 17:05:46:102
1.2842,9.6057,0.5893,-0.8678,0.0655,0.6928,0.0283,-0.3095,0.0032,3363,2019-08-07 17:05:46:108
1.2124,9.6964,0.5941,-0.8678,0.0655,0.6928,0.0283,-0.3095,0.0032,3368,2019-08-07 17:05:46:113
1.2124,9.6964,0.5941,-0.8678,0.0655,0.6928,0.0219,-0.1455,-0.0085,3372,2019-08-07 17:05:46:117
1.0354,9.6821,1.0513,-0.6238,-0.0726,0.2261,0.0219,-0.1455,-0.0085,3378,2019-08-07 17:05:46:123
1.0354,9.6821,1.0513,-0.6238,-0.0726,0.2261,0.0389,-0.0113,-0.0255,3383,2019-08-07 17:05:46:128
1.0354,9.6821,1.0513,-0.6238,-0.0726,0.2261,0.0389,-0.0113,-0.0255,3388,2019-08-07 17:05:46:133
0.49,9.62,1.4001,0.0632,0.1482,-0.2064,0.0549,-0.0176,-0.0341,3393,2019-08-07 17:05:46:138
0.49,9.62,1.4001,0.0632,0.1482,-0.2064,0.0549,-0.0176,-0.0341,3398,2019-08-07 17:05:46:143
0.49,9.62,1.4001,0.0632,0.1482,-0.2064,0.0847,-0.0901,-0.0234,3402,2019-08-07 17:05:46:147
0.4278,9.663,1.1833,0.0632,0.1482,-0.2064,0.0847,-0.0901,-0.0234,3408,2019-08-07 17:05:46:153
0.4278,9.663,1.1833,0.0975,-0.1548,0.383,0.0964,-0.1252,-0.0373,3413,2019-08-07 17:05:46:158
0.3465,9.9399,0.7638,0.0975,-0.1548,0.383,0.0964,-0.1252,-0.0373,3418,2019-08-07 17:05:46:163
0.3465,9.9399,0.7638,0.0975,-0.1548,0.383,0.0964,-0.1252,-0.0373,3422,2019-08-07 17:05:46:167
0.3465,9.9399,0.7638,0.0762,-0.1246,0.5645,0.0943,-0.0901,-0.0181,3428,2019-08-07 17:05:46:173
0.5857,9.8635,0.5752,0.0762,-0.1246,0.5645,0.0943,-0.0901,-0.0181,3433,2019-08-07 17:05:46:178
0.5857,9.8635,0.5752,0.0762,-0.1246,0.5645,0.089,-0.0816,-0.0287,3438,2019-08-07 17:05:46:183
0.6957,9.9685,0.726,-0.2454,-0.241,0.4614,0.089,-0.0816,-0.0287,3443,2019-08-07 17:05:46:188
0.6957,9.9685,0.726,-0.2454,-0.241,0.4614,0.0826,-0.0986,-0.0277,3448,2019-08-07 17:05:46:193
0.6957,9.9685,0.726,-0.2454,-0.241,0.4614,0.0826,-0.0986,-0.0277,3453,2019-08-07 17:05:46:198
0.7292,10.0831,0.0991,-0.2454,-0.241,0.4614,0.0719,-0.0432,-0.0309,3458,2019-08-07 17:05:46:203
0.7292,10.0831,0.0991,-0.2454,-0.241,0.4614,0.0719,-0.0432,-0.0309,3463,2019-08-07 17:05:46:208
0.7292,10.0831,0.0991,-0.0374,-0.4053,1.3344,0.0272,0.091,-0.0394,3467,2019-08-07 17:05:46:212
0.313,10.1595,0.0614,-0.0374,-0.4053,1.3344,0.0272,0.091,-0.0394,3473,2019-08-07 17:05:46:218
0.313,10.1595,0.0614,0.2633,-0.3662,0.7442,-0.0026,0.1549,-0.033,3477,2019-08-07 17:05:46:222
0.1312,10.0067,0.9287,0.2633,-0.3662,0.7442,-0.0026,0.1549,-0.033,3483,2019-08-07 17:05:46:228
0.1312,10.0067,0.9287,0.2633,-0.3662,0.7442,-0.0026,0.0463,-0.0266,3488,2019-08-07 17:05:46:233
0.1312,10.0067,0.9287,0.2633,-0.3662,0.7442,-0.0026,0.0463,-0.0266,3493,2019-08-07 17:05:46:238
-0.108,9.9303,0.8203,0.539,-0.1984,0.3377,-0.0016,-0.0784,-0.0021,3497,2019-08-07 17:05:46:242
-0.108,9.9303,0.8203,0.539,-0.1984,0.3377,-0.0016,-0.0784,-0.0021,3502,2019-08-07 17:05:46:247
0.2651,9.9828,0.8062,0.539,-0.1984,0.3377,-0.0069,-0.1242,-0.0021,3508,2019-08-07 17:05:46:253
0.2651,9.9828,0.8062,0.539,-0.1984,0.3377,-0.0069,-0.1242,-0.0021,3513,2019-08-07 17:05:46:258
0.2651,9.9828,0.8062,-0.1396,-0.3318,0.613,-0.0133,-0.1348,0.0075,3518,2019-08-07 17:05:46:263
0.557,10.0258,0.2452,-0.1396,-0.3318,0.613,-0.0133,-0.1348,0.0075,3523,2019-08-07 17:05:46:268
0.557,10.0258,0.2452,-0.1396,-0.3318,0.613,-0.0399,-0.0539,0.0011,3528,2019-08-07 17:05:46:273
0.4565,10.0831,0.2264,-0.1396,-0.3318,0.613,-0.0399,-0.0539,0.0011,3533,2019-08-07 17:05:46:278
0.4565,10.0831,0.2264,-0.045,-0.4033,0.8321,-0.0697,0.0473,-0.001,3538,2019-08-07 17:05:46:283
0.4565,10.0831,0.2264,-0.045,-0.4033,0.8321,-0.0697,0.0473,-0.001,3543,2019-08-07 17:05:46:288
0.2795,10.0544,0.6271,-0.045,-0.4033,0.8321,-0.0729,0.0271,-0.0032,3548,2019-08-07 17:05:46:293
0.2795,10.0544,0.6271,-0.045,-0.4033,0.8321,-0.0729,0.0271,-0.0032,3553,2019-08-07 17:05:46:298
0.2412,9.9064,0.8816,0.1919,-0.1753,0.2817,-0.0729,0.0271,-0.0032,3558,2019-08-07 17:05:46:303
0.2412,9.9064,0.8816,0.1919,-0.1753,0.2817,-0.0655,-0.0475,-0.0096,3562,2019-08-07 17:05:46:307
0.4278,9.9351,0.7732,0.1919,-0.1753,0.2817,-0.0665,-0.0677,-0.0202,3568,2019-08-07 17:05:46:313
0.4278,9.9351,0.7732,0.1919,-0.1753,0.2817,-0.0665,-0.0677,-0.0202,3573,2019-08-07 17:05:46:318
0.4278,9.9351,0.7732,-0.135,-0.1382,0.2773,-0.0601,-0.0432,-0.0181,3578,2019-08-07 17:05:46:323
0.667,9.8014,1.0277,-0.135,-0.1382,0.2773,-0.0601,-0.0432,-0.0181,3582,2019-08-07 17:05:46:327
0.667,9.8014,1.0277,-0.135,-0.1382,0.2773,-0.0601,-0.0432,-0.0181,3588,2019-08-07 17:05:46:333
0.667,9.8014,1.0277,-0.135,-0.1382,0.2773,-0.041,-0.0304,-0.0159,3593,2019-08-07 17:05:46:338
0.6766,9.8635,1.1031,-0.2314,-0.1679,0.1115,-0.041,-0.0304,-0.0159,3598,2019-08-07 17:05:46:343
0.6766,9.8635,1.1031,-0.2314,-0.1679,0.1115,-0.0239,-0.0251,-0.0202,3603,2019-08-07 17:05:46:348
0.7101,9.9876,0.9429,-0.2799,-0.2587,0.2403,-0.0239,-0.0251,-0.0202,3608,2019-08-07 17:05:46:353
0.7101,9.9876,0.9429,-0.2799,-0.2587,0.2403,-0.009,-0.0166,-0.033,3613,2019-08-07 17:05:46:358
0.7101,9.9876,0.9429,-0.2799,-0.2587,0.2403,-0.009,-0.0166,-0.033,3617,2019-08-07 17:05:46:362
0.6574,9.9494,0.8392,-0.2799,-0.2587,0.2403,-0.009,-0.0166,-0.033,3623,2019-08-07 17:05:46:368
0.6574,9.9494,0.8392,-0.1033,-0.1962,0.3237,-0.0026,0.0271,-0.0394,3627,2019-08-07 17:05:46:372
0.6574,9.9494,0.8392,-0.1033,-0.1962,0.3237,-0.0026,0.0271,-0.0394,3633,2019-08-07 17:05:46:378
0.5331,9.8014,1.0372,-0.1033,-0.1962,0.3237,0.0016,0.0218,-0.0277,3638,2019-08-07 17:05:46:383
0.5331,9.8014,1.0372,-0.1033,-0.1962,0.3237,0.0016,0.0218,-0.0277,3643,2019-08-07 17:05:46:388
0.6909,9.8205,1.0089,-0.2714,-0.0908,0.1713,0.0144,-0.0123,-0.0277,3648,2019-08-07 17:05:46:393
0.6909,9.8205,1.0089,-0.2714,-0.0908,0.1713,0.0144,-0.0123,-0.0277,3653,2019-08-07 17:05:46:398
0.6909,9.8205,1.0089,-0.2714,-0.0908,0.1713,0.0091,0.0154,-0.0309,3658,2019-08-07 17:05:46:403
0.5378,9.9446,0.4668,-0.2714,-0.0908,0.1713,0.0091,0.0154,-0.0309,3663,2019-08-07 17:05:46:408
0.5378,9.9446,0.4668,-0.1906,-0.2473,0.608,0.0091,0.0154,-0.0309,3667,2019-08-07 17:05:46:412
0.5187,9.9781,0.6365,-0.1906,-0.2473,0.608,-0.0069,0.1187,-0.0405,3673,2019-08-07 17:05:46:418
0.5187,9.9781,0.6365,-0.1906,-0.2473,0.608,-0.0069,0.1187,-0.0405,3678,2019-08-07 17:05:46:423
0.5187,9.9781,0.6365,-0.1906,-0.2473,0.608,-0.0143,0.1485,-0.0458,3683,2019-08-07 17:05:46:428
0.136,10.0306,0.5328,0.3617,-0.2706,0.6022,-0.0143,0.1485,-0.0458,3687,2019-08-07 17:05:46:432
0.136,10.0306,0.5328,0.3617,-0.2706,0.6022,-0.0261,0.1592,-0.0341,3693,2019-08-07 17:05:46:438
-0.0793,9.959,0.7873,0.3617,-0.2706,0.6022,-0.0261,0.1592,-0.0341,3698,2019-08-07 17:05:46:443
-0.0793,9.959,0.7873,0.3617,-0.2706,0.6022,-0.0261,0.107,-0.0277,3703,2019-08-07 17:05:46:448
-0.0793,9.959,0.7873,0.4058,-0.2418,0.0354,-0.0261,0.107,-0.0277,3708,2019-08-07 17:05:46:453
0.0116,9.9637,1.0749,0.4058,-0.2418,0.0354,-0.0122,-0.0049,-0.0117,3713,2019-08-07 17:05:46:458
0.0116,9.9637,1.0749,0.4058,-0.2418,0.0354,-0.0122,-0.0049,-0.0117,3717,2019-08-07 17:05:46:462
0.0116,9.9637,1.0749,0.4058,-0.2418,0.0354,-0.0122,-0.0049,-0.0117,3723,2019-08-07 17:05:46:468
0.3321,9.959,0.7826,-0.0755,-0.1939,0.4167,-0.0048,-0.0762,-0.0042,3727,2019-08-07 17:05:46:472
0.3321,9.959,0.7826,-0.0755,-0.1939,0.4167,-0.0048,-0.0762,-0.0042,3733,2019-08-07 17:05:46:478
0.6,9.9828,0.6271,-0.0755,-0.1939,0.4167,-0.0111,-0.0528,0.0,3738,2019-08-07 17:05:46:483
0.6,9.9828,0.6271,-0.0755,-0.1939,0.4167,-0.0111,-0.0528,0.0,3742,2019-08-07 17:05:46:487
0.6192,9.9876,0.6836,-0.2306,-0.2557,0.4894,-0.0111,0.009,0.0,3748,2019-08-07 17:05:46:493
0.6192,9.9876,0.6836,-0.2306,-0.2557,0.4894,-0.0111,0.009,0.0,3753,2019-08-07 17:05:46:498
0.6192,9.9876,0.6836,-0.2306,-0.2557,0.4894,-0.0175,0.0324,-0.0085,3759,2019-08-07 17:05:46:504
0.5905,9.8014,0.7543,-0.2306,-0.2557,0.4894,-0.0175,0.0324,-0.0085,3763,2019-08-07 17:05:46:508
0.5905,9.8014,0.7543,0.017,-0.1746,0.3766,-0.0218,0.0282,-0.0159,3767,2019-08-07 17:05:46:512
0.5905,9.8014,0.7543,0.017,-0.1746,0.3766,-0.0218,0.0282,-0.0159,3773,2019-08-07 17:05:46:518
0.3752,9.9542,0.8675,0.017,-0.1746,0.3766,-0.0186,0.009,-0.0085,3778,2019-08-07 17:05:46:523
0.3752,9.9542,0.8675,0.017,-0.1746,0.3766,-0.0186,0.009,-0.0085,3783,2019-08-07 17:05:46:528
0.4565,9.916,0.759,-0.0713,-0.1841,0.4151,-0.0186,-0.0027,-0.0223,3788,2019-08-07 17:05:46:533
0.4565,9.916,0.759,-0.0713,-0.1841,0.4151,-0.0186,-0.0027,-0.0223,3792,2019-08-07 17:05:46:537
0.4565,9.916,0.759,-0.0713,-0.1841,0.4151,-0.0133,0.0164,-0.0202,3798,2019-08-07 17:05:46:543
0.5905,9.9064,0.7873,-0.0713,-0.1841,0.4151,-0.0133,0.0164,-0.0202,3803,2019-08-07 17:05:46:548
0.5905,9.9064,0.7873,-0.0713,-0.1841,0.4151,-0.0133,0.0164,-0.0202,3808,2019-08-07 17:05:46:553
0.5905,9.9064,0.7873,-0.1225,-0.1696,0.372,-0.0133,0.026,-0.0202,3813,2019-08-07 17:05:46:558
0.4326,9.9446,0.7968,-0.1225,-0.1696,0.372,-0.0133,0.026,-0.0202,3817,2019-08-07 17:05:46:562
0.4326,9.9446,0.7968,-0.1225,-0.1696,0.372,-0.009,0.0378,-0.0149,3823,2019-08-07 17:05:46:568
0.3608,9.8969,1.0607,-0.1225,-0.1696,0.372,-0.009,0.0378,-0.0149,3828,2019-08-07 17:05:46:573
0.3608,9.8969,1.0607,0.0552,-0.2602,0.1412,0.0048,0.0037,-0.0138,3832,2019-08-07 17:05:46:577
0.3608,9.8969,1.0607,0.0552,-0.2602,0.1412,0.0048,0.0037,-0.0138,3838,2019-08-07 17:05:46:583
0.4661,10.021,0.9994,0.0552,-0.2602,0.1412,0.007,-0.04,-0.0223,3843,2019-08-07 17:05:46:588
0.4661,10.021,0.9994,0.0552,-0.2602,0.1412,0.007,-0.04,-0.0223,3848,2019-08-07 17:05:46:593
0.5044,10.0974,0.7072,0.0758,-0.3216,0.491,0.007,-0.04,-0.0223,3853,2019-08-07 17:05:46:598
0.5044,10.0974,0.7072,0.0758,-0.3216,0.491,-0.0026,0.0015,-0.033,3858,2019-08-07 17:05:46:603
0.5044,10.0974,0.7072,0.0758,-0.3216,0.491,-0.0026,0.0015,-0.033,3862,2019-08-07 17:05:46:607
0.5426,9.9351,0.9005,0.0758,-0.3216,0.491,-0.0069,0.0218,-0.0426,3868,2019-08-07 17:05:46:613
0.5426,9.9351,0.9005,-0.0885,-0.2447,0.1634,-0.0069,0.0218,-0.0426,3872,2019-08-07 17:05:46:617
0.3752,9.8348,0.8769,-0.0885,-0.2447,0.1634,0.0112,0.0196,-0.0362,3878,2019-08-07 17:05:46:623
0.3752,9.8348,0.8769,-0.0885,-0.2447,0.1634,0.0112,0.0196,-0.0362,3883,2019-08-07 17:05:46:628
0.3752,9.8348,0.8769,-0.0885,-0.2447,0.1634,0.0059,-6.0E-4,-0.0319,3888,2019-08-07 17:05:46:633
0.4087,9.7966,0.9146,-0.0476,-0.0627,0.2497,0.0059,-6.0E-4,-0.0319,3893,2019-08-07 17:05:46:638
0.4087,9.7966,0.9146,-0.0476,-0.0627,0.2497,0.0176,-0.0081,-0.0341,3898,2019-08-07 17:05:46:643
0.38,10.0162,0.7496,-0.0476,-0.0627,0.2497,0.0176,-0.0081,-0.0341,3903,2019-08-07 17:05:46:648
0.38,10.0162,0.7496,-0.0476,-0.0627,0.2497,0.0176,0.0303,-0.0362,3908,2019-08-07 17:05:46:653
0.38,10.0162,0.7496,-0.0204,-0.2049,0.5402,0.0176,0.0303,-0.0362,3913,2019-08-07 17:05:46:658
0.4087,10.0258,0.7685,-0.0204,-0.2049,0.5402,0.0176,0.0303,-0.0362,3917,2019-08-07 17:05:46:662
0.4087,10.0258,0.7685,-0.0204,-0.2049,0.5402,-0.1028,-0.5375,-0.0415,3923,2019-08-07 17:05:46:668
0.0977,9.8492,-0.0659,-0.0204,-0.2049,0.5402,-0.1028,-0.5375,-0.0415,3928,2019-08-07 17:05:46:673
0.0977,9.8492,-0.0659,0.4443,-0.4861,2.2818,0.1486,-0.2637,-0.049,3933,2019-08-07 17:05:46:678
0.0977,9.8492,-0.0659,0.4443,-0.4861,2.2818,0.1486,-0.2637,-0.049,3938,2019-08-07 17:05:46:683
0.4326,9.8444,0.6742,0.4443,-0.4861,2.2818,-0.0548,-0.1923,0.0043,3943,2019-08-07 17:05:46:688
0.4326,9.8444,0.6742,0.4443,-0.4861,2.2818,-0.0548,-0.1923,0.0043,3947,2019-08-07 17:05:46:692
0.2747,9.9828,1.221,0.1153,-0.2033,-0.1745,0.0496,-0.187,-0.0149,3953,2019-08-07 17:05:46:698
0.2747,9.9828,1.221,0.1153,-0.2033,-0.1745,0.0496,-0.187,-0.0149,3957,2019-08-07 17:05:46:702
0.2747,9.9828,1.221,0.1153,-0.2033,-0.1745,0.0496,-0.187,-0.0149,3962,2019-08-07 17:05:46:707
0.2699,9.8444,0.6506,0.1153,-0.2033,-0.1745,0.0102,-0.3085,-0.0191,3968,2019-08-07 17:05:46:713
0.2699,9.8444,0.6506,-0.0745,-0.1878,0.7484,0.0102,-0.3085,-0.0191,3973,2019-08-07 17:05:46:718
0.6527,10.1547,0.2028,-0.0745,-0.1878,0.7484,0.0336,-0.1465,-0.0202,3978,2019-08-07 17:05:46:723
0.6527,10.1547,0.2028,-0.0745,-0.1878,0.7484,0.0336,-0.1465,-0.0202,3982,2019-08-07 17:05:46:727
0.6527,10.1547,0.2028,-0.0745,-0.1878,0.7484,-0.0016,0.0974,-0.0213,3988,2019-08-07 17:05:46:733
0.6862,9.9303,0.5092,-0.3337,-0.1914,0.6158,-0.0016,0.0974,-0.0213,3992,2019-08-07 17:05:46:737
0.6862,9.9303,0.5092,-0.3337,-0.1914,0.6158,0.0059,0.286,-0.0255,3998,2019-08-07 17:05:46:743
0.6862,9.9303,0.5092,-0.3337,-0.1914,0.6158,0.0059,0.286,-0.0255,4003,2019-08-07 17:05:46:748
0.4996,9.9876,0.5846,-0.3337,-0.1914,0.6158,0.0091,0.4202,-0.0191,4008,2019-08-07 17:05:46:753
0.4996,9.9876,0.5846,-0.1868,-0.1858,0.6876,0.0091,0.4202,-0.0191,4012,2019-08-07 17:05:46:757
0.6144,10.0067,0.1981,-0.1868,-0.1858,0.6876,0.0091,0.4202,-0.0191,4018,2019-08-07 17:05:46:763
0.6144,10.0067,0.1981,-0.1868,-0.1858,0.6876,0.0155,0.7003,-0.0234,4022,2019-08-07 17:05:46:767
0.6144,10.0067,0.1981,-0.1868,-0.1858,0.6876,0.0155,0.7003,-0.0234,4028,2019-08-07 17:05:46:773
0.0068,9.9733,1.5368,0.3967,-0.0948,-1.1947,-0.0814,0.5565,-0.0309,4032,2019-08-07 17:05:46:777
0.0068,9.9733,1.5368,0.3967,-0.0948,-1.1947,-0.0814,0.5565,-0.0309,4038,2019-08-07 17:05:46:783
-0.3042,9.6725,2.5691,0.3967,-0.0948,-1.1947,0.0283,0.1017,-0.0287,4043,2019-08-07 17:05:46:788
-0.3042,9.6725,2.5691,0.3967,-0.0948,-1.1947,0.0283,0.1017,-0.0287,4047,2019-08-07 17:05:46:792
-0.2181,9.9542,0.4621,0.5276,-0.214,0.6643,0.0464,-0.1401,-0.0159,4053,2019-08-07 17:05:46:798