ACCELEROMETER X (m/s²),ACCELEROMETER Y (m/s²),ACCELEROMETER Z (m/s²),LINEAR ACCELERATION X (m/s²),LINEAR ACCELERATION Y (m/s²),LINEAR ACCELERATION Z (m/s²),GYROSCOPE X (rad/s),GYROSCOPE Y (rad/s),GYROSCOPE Z (rad/s),Time since start in ms ,YYYY-MO-DD HH-MI-SS_SSS
0.0273,9.6924,1.6954,0.4236,-0.1564,-0.1928,0.1657,-0.0496,-0.0735,3,2019-08-07 17:04:46:023
0.0273,9.6924,1.6954,-0.0047,0.0065,-0.0323,0.1657,-0.0496,-0.0735,7,2019-08-07 17:04:46:027
0.3143,9.6304,1.7095,-0.0047,0.0065,-0.0323,0.1902,-0.0379,-0.0725,13,2019-08-07 17:04:46:033
0.3143,9.6304,1.7095,-0.1972,0.0099,0.0814,0.1902,-0.0379,-0.0725,18,2019-08-07 17:04:46:038
0.3143,9.6304,1.7095,-0.1972,0.0099,0.0814,0.1849,0.0314,-0.065,23,2019-08-07 17:04:46:043
0.3143,9.6304,1.7095,-0.1972,0.0099,0.0814,0.1849,0.0314,-0.065,27,2019-08-07 17:04:46:047
0.3765,9.7211,1.158,-0.2316,-0.0582,0.5285,0.1721,0.1294,-0.0703,33,2019-08-07 17:04:46:053
0.3765,9.7211,1.158,-0.2316,-0.0582,0.5285,0.1721,0.1294,-0.0703,38,2019-08-07 17:04:46:058
-0.1498,9.8595,1.3465,-0.2316,-0.0582,0.5285,0.1721,0.1294,-0.0703,43,2019-08-07 17:04:46:063
-0.1498,9.8595,1.3465,0.4139,-0.19,0.0294,0.1636,0.1901,-0.0725,47,2019-08-07 17:04:46:067
-0.3508,9.8166,1.9169,0.4139,-0.19,0.0294,0.1636,0.1901,-0.0725,53,2019-08-07 17:04:46:073
-0.3508,9.8166,1.9169,0.4139,-0.19,0.0294,0.1945,0.0729,-0.0639,58,2019-08-07 17:04:46:078
-0.3508,9.8166,1.9169,0.4139,-0.19,0.0294,0.1945,0.0729,-0.0639,64,2019-08-07 17:04:46:084
-0.1498,9.8309,1.7048,0.2564,-0.1551,-0.0912,0.2381,-0.0688,-0.0554,67,2019-08-07 17:04:46:087
-0.1498,9.8309,1.7048,0.2564,-0.1551,-0.0912,0.2381,-0.0688,-0.0554,73,2019-08-07 17:04:46:093
0.2376,9.9216,0.9317,0.2564,-0.1551,-0.0912,0.2392,-0.072,-0.0544,78,2019-08-07 17:04:46:098
0.2376,9.9216,0.9317,0.2564,-0.1551,-0.0912,0.2392,-0.072,-0.0544,83,2019-08-07 17:04:46:103
0.2376,9.9216,0.9317,-0.1595,-0.3233,0.664,0.2392,-0.072,-0.0544,87,2019-08-07 17:04:46:107
0.2711,10.0218,1.0401,-0.1595,-0.3233,0.664,0.2211,0.0612,-0.0789,93,2019-08-07 17:04:46:113
0.2711,10.0218,1.0401,-0.1595,-0.3233,0.664,0.2222,0.1081,-0.0863,98,2019-08-07 17:04:46:118
0.2711,10.0218,1.0401,-0.1595,-0.3233,0.664,0.2222,0.1081,-0.0863,103,2019-08-07 17:04:46:123
0.185,9.9741,1.2569,-0.0577,-0.2298,0.3486,0.2222,0.1081,-0.0863,108,2019-08-07 17:04:46:128
0.185,9.9741,1.2569,-0.0577,-0.2298,0.3486,0.2307,0.0974,-0.0938,113,2019-08-07 17:04:46:133
0.1323,9.8452,1.1438,-0.0577,-0.2298,0.3486,0.2307,0.0974,-0.0938,117,2019-08-07 17:04:46:137
0.1323,9.8452,1.1438,-0.0577,-0.2298,0.3486,0.2264,0.091,-0.1023,123,2019-08-07 17:04:46:143
0.2184,9.8261,1.0919,-0.1604,-0.1268,0.3764,0.2264,0.091,-0.1023,128,2019-08-07 17:04:46:148
0.2184,9.8261,1.0919,-0.1604,-0.1268,0.3764,0.2158,0.0814,-0.1044,133,2019-08-07 17:04:46:153
0.2184,9.8261,1.0919,-0.1604,-0.1268,0.3764,0.2158,0.0814,-0.1044,137,2019-08-07 17:04:46:157
0.2184,9.8261,1.0919,-0.1604,-0.1268,0.3764,0.2158,0.0814,-0.1044,143,2019-08-07 17:04:46:163
0.1945,9.9359,0.9552,-0.1011,-0.2678,0.5989,0.2126,0.0889,-0.1066,148,2019-08-07 17:04:46:168
0.1945,9.9359,0.9552,-0.1011,-0.2678,0.5989,0.2126,0.0889,-0.1066,153,2019-08-07 17:04:46:173
0.027,9.9932,0.9175,-0.1011,-0.2678,0.5989,0.1955,0.1273,-0.114,158,2019-08-07 17:04:46:178
0.027,9.9932,0.9175,-0.1011,-0.2678,0.5989,0.1955,0.1273,-0.114,162,2019-08-07 17:04:46:182
0.027,9.9932,0.9175,0.0932,-0.2139,0.3536,0.1891,0.139,-0.1161,168,2019-08-07 17:04:46:188
-0.1118,9.8882,1.1061,0.0932,-0.2139,0.3536,0.1891,0.139,-0.1161,173,2019-08-07 17:04:46:193
-0.1118,9.8882,1.1061,0.0932,-0.2139,0.3536,0.1934,0.1102,-0.1279,178,2019-08-07 17:04:46:198
-0.0161,9.8739,1.5586,0.0932,-0.2139,0.3536,0.1934,0.1102,-0.1279,183,2019-08-07 17:04:46:203
-0.0161,9.8739,1.5586,-0.1352,-0.132,-0.1573,0.2211,0.0356,-0.1225,188,2019-08-07 17:04:46:208
-0.0161,9.8739,1.5586,-0.1352,-0.132,-0.1573,0.2211,0.0356,-0.1225,192,2019-08-07 17:04:46:212
0.2996,9.893,1.0919,-0.1352,-0.132,-0.1573,0.2413,-0.024,-0.1108,198,2019-08-07 17:04:46:218
0.2996,9.893,1.0919,-0.1352,-0.132,-0.1573,0.2413,-0.024,-0.1108,202,2019-08-07 17:04:46:222
0.3905,10.041,-0.0206,-0.428,-0.3161,1.3094,0.1838,0.1102,-0.1385,207,2019-08-07 17:04:46:227
0.3905,10.041,-0.0206,-0.428,-0.3161,1.3094,0.1838,0.1102,-0.1385,212,2019-08-07 17:04:46:232
0.3905,10.041,-0.0206,-0.428,-0.3161,1.3094,0.1359,0.2732,-0.1534,218,2019-08-07 17:04:46:238
-0.0497,9.9837,0.7761,-0.428,-0.3161,1.3094,0.1359,0.2732,-0.1534,222,2019-08-07 17:04:46:242
-0.0497,9.9837,0.7761,0.235,-0.2497,-0.0122,0.1423,0.2455,-0.1577,228,2019-08-07 17:04:46:248
-0.0497,9.9837,0.7761,0.235,-0.2497,-0.0122,0.1423,0.2455,-0.1577,232,2019-08-07 17:04:46:252
-0.4229,9.9407,1.3559,0.235,-0.2497,-0.0122,0.1721,0.1134,-0.1481,238,2019-08-07 17:04:46:258
-0.4229,9.9407,1.3559,0.235,-0.2497,-0.0122,0.1721,0.1134,-0.1481,243,2019-08-07 17:04:46:263
-0.4708,9.8739,1.0542,0.2949,-0.1073,0.2464,0.1838,0.0452,-0.1332,248,2019-08-07 17:04:46:268
-0.4708,9.8739,1.0542,0.2949,-0.1073,0.2464,0.1838,0.0452,-0.1332,252,2019-08-07 17:04:46:272
-0.4708,9.8739,1.0542,0.2949,-0.1073,0.2464,0.1838,0.0452,-0.1332,258,2019-08-07 17:04:46:278
-0.2268,9.788,1.1814,0.1033,-0.0526,0.0203,0.1902,0.0495,-0.1417,262,2019-08-07 17:04:46:282
-0.2268,9.788,1.1814,0.1033,-0.0526,0.0203,0.1902,0.0495,-0.1417,268,2019-08-07 17:04:46:288
-0.2268,9.788,1.1814,0.1033,-0.0526,0.0203,0.2136,0.0442,-0.1332,273,2019-08-07 17:04:46:293
-0.1024,9.9646,0.9269,0.1033,-0.0526,0.0203,0.2136,0.0442,-0.1332,278,2019-08-07 17:04:46:298
-0.1024,9.9646,0.9269,-0.0873,-0.1148,0.4874,0.1987,0.0633,-0.1279,282,2019-08-07 17:04:46:302
-0.2077,9.7402,0.5451,-0.0873,-0.1148,0.4874,0.1987,0.0633,-0.1279,288,2019-08-07 17:04:46:308
-0.2077,9.7402,0.5451,-0.0873,-0.1148,0.4874,0.1987,0.0633,-0.1279,292,2019-08-07 17:04:46:312
-0.2077,9.7402,0.5451,-0.0873,-0.1148,0.4874,0.1583,0.1539,-0.1289,298,2019-08-07 17:04:46:318
-0.6288,9.7927,0.809,0.4475,-0.0485,0.3107,0.1583,0.1539,-0.1289,303,2019-08-07 17:04:46:323
-0.6288,9.7927,0.809,0.4475,-0.0485,0.3107,0.138,0.0932,-0.1151,308,2019-08-07 17:04:46:328
-0.9876,10.0505,0.9646,0.7382,-0.2859,0.1546,0.138,0.0932,-0.1151,312,2019-08-07 17:04:46:332
-0.9876,10.0505,0.9646,0.7382,-0.2859,0.1546,0.1476,-0.0304,-0.1055,318,2019-08-07 17:04:46:338
-0.9876,10.0505,0.9646,0.7382,-0.2859,0.1546,0.1476,-0.0304,-0.1055,323,2019-08-07 17:04:46:343
-1.1886,10.1365,1.1107,0.7382,-0.2859,0.1546,0.1561,-0.1529,-0.0959,328,2019-08-07 17:04:46:348
-1.1886,10.1365,1.1107,0.793,-0.4502,-0.0678,0.1561,-0.1529,-0.0959,333,2019-08-07 17:04:46:353
-0.7341,10.3083,1.1626,0.793,-0.4502,-0.0678,0.1561,-0.1529,-0.0959,338,2019-08-07 17:04:46:358
-0.7341,10.3083,1.1626,0.793,-0.4502,-0.0678,0.1593,-0.2754,-0.1002,343,2019-08-07 17:04:46:363
-0.7341,10.3083,1.1626,0.793,-0.4502,-0.0678,0.1593,-0.2754,-0.1002,348,2019-08-07 17:04:46:368
-0.1313,10.2272,0.6959,-0.1088,-0.4759,0.349,0.154,-0.2999,-0.1183,353,2019-08-07 17:04:46:373
-0.1313,10.2272,0.6959,-0.1088,-0.4759,0.349,0.154,-0.2999,-0.1183,357,2019-08-07 17:04:46:377
0.2706,10.7332,0.2811,-0.5192,-0.9805,0.7477,0.1199,-0.2392,-0.1577,363,2019-08-07 17:04:46:383
0.2706,10.7332,0.2811,-0.5192,-0.9805,0.7477,0.1199,-0.2392,-0.1577,367,2019-08-07 17:04:46:387
0.2706,10.7332,0.2811,-0.5192,-0.9805,0.7477,0.0624,-0.0368,-0.2195,373,2019-08-07 17:04:46:393
0.2466,10.8716,-0.2233,-0.5192,-0.9805,0.7477,0.0624,-0.0368,-0.2195,377,2019-08-07 17:04:46:397
0.2466,10.8716,-0.2233,-0.2321,-0.9025,1.0394,0.0357,0.1315,-0.2291,383,2019-08-07 17:04:46:403
0.2466,10.8716,-0.2233,-0.2321,-0.9025,1.0394,0.0357,0.1315,-0.2291,387,2019-08-07 17:04:46:407
-0.8107,10.3513,0.7571,-0.2321,-0.9025,1.0394,0.0357,0.1315,-0.2291,393,2019-08-07 17:04:46:413
-0.8107,10.3513,0.7571,-0.2321,-0.9025,1.0394,0.0326,0.1379,-0.1588,397,2019-08-07 17:04:46:417
-2.0403,10.1222,1.0965,1.4705,-0.4732,-0.0781,0.0326,0.1379,-0.1588,403,2019-08-07 17:04:46:423
-2.0403,10.1222,1.0965,1.4705,-0.4732,-0.0781,0.0155,-0.0485,-0.0629,408,2019-08-07 17:04:46:428
-2.0403,10.1222,1.0965,1.4705,-0.4732,-0.0781,0.0155,-0.0485,-0.0629,413,2019-08-07 17:04:46:433
-2.7915,10.8669,1.7753,1.4705,-0.4732,-0.0781,0.0059,-0.2701,-0.0181,417,2019-08-07 17:04:46:437
-2.7915,10.8669,1.7753,2.7397,-2.0879,-2.5255,0.0059,-0.2701,-0.0181,423,2019-08-07 17:04:46:443
-2.7915,10.8669,1.7753,2.7397,-2.0879,-2.5255,0.0059,-0.2701,-0.0181,427,2019-08-07 17:04:46:447
-2.7915,11.2774,3.3167,2.7397,-2.0879,-2.5255,0.0847,-0.7697,0.0713,433,2019-08-07 17:04:46:453
-2.7915,11.2774,3.3167,2.7397,-2.0879,-2.5255,0.0847,-0.7697,0.0713,437,2019-08-07 17:04:46:457
-0.763,9.9026,1.5868,0.4341,-0.1477,-0.6012,0.2786,-1.3641,0.0223,442,2019-08-07 17:04:46:462
-0.763,9.9026,1.5868,0.4341,-0.1477,-0.6012,0.2786,-1.3641,0.0223,448,2019-08-07 17:04:46:468
-0.763,9.9026,1.5868,0.4341,-0.1477,-0.6012,0.4374,-1.4003,-0.0938,452,2019-08-07 17:04:46:472
1.9736,10.8335,1.879,0.4341,-0.1477,-0.6012,0.4374,-1.4003,-0.0938,458,2019-08-07 17:04:46:478
1.9736,10.8335,1.879,-3.6054,-2.3122,-1.4654,0.53,-1.248,-0.2163,462,2019-08-07 17:04:46:482
3.9207,13.0963,2.3032,-3.6054,-2.3122,-1.4654,0.53,-1.248,-0.2163,468,2019-08-07 17:04:46:488
3.9207,13.0963,2.3032,-3.6054,-2.3122,-1.4654,0.5982,-0.6035,-0.3462,472,2019-08-07 17:04:46:492
3.9207,13.0963,2.3032,-3.6054,-2.3122,-1.4654,0.5982,-0.6035,-0.3462,478,2019-08-07 17:04:46:498
4.3991,14.4807,1.9827,-4.3583,-4.6954,-1.2623,0.6057,0.3392,-0.4805,483,2019-08-07 17:04:46:503
4.3991,14.4807,1.9827,-4.3583,-4.6954,-1.2623,0.6057,0.3392,-0.4805,488,2019-08-07 17:04:46:508
4.3991,14.4807,1.9827,-4.3583,-4.6954,-1.2623,0.6057,0.3392,-0.4805,492,2019-08-07 17:04:46:512
1.0405,14.4377,3.8258,-1.4338,-4.6643,-3.0765,0.5279,1.2607,-0.6221,498,2019-08-07 17:04:46:518
1.0405,14.4377,3.8258,-1.4338,-4.6643,-3.0765,0.5279,1.2607,-0.6221,503,2019-08-07 17:04:46:523
-2.2989,15.3686,9.1147,-1.4338,-4.6643,-3.0765,0.6653,0.9443,-0.6956,508,2019-08-07 17:04:46:528
-2.2989,15.3686,9.1147,1.5331,-5.4804,-6.1983,0.6653,0.9443,-0.6956,513,2019-08-07 17:04:46:533
-2.2989,15.3686,9.1147,1.5331,-5.4804,-6.1983,1.247,-0.3745,-0.5987,517,2019-08-07 17:04:46:537
-0.744,15.1347,-0.0584,1.5331,-5.4804,-6.1983,1.247,-0.3745,-0.5987,523,2019-08-07 17:04:46:543
-0.744,15.1347,-0.0584,1.5331,-5.4804,-6.1983,1.7359,-1.4046,-0.604,528,2019-08-07 17:04:46:548
1.0452,18.2329,-5.3332,-1.6989,-8.4506,5.6734,1.7359,-1.4046,-0.604,533,2019-08-07 17:04:46:553
1.0452,18.2329,-5.3332,-1.6989,-8.4506,5.6734,2.2036,-1.7625,-0.7521,538,2019-08-07 17:04:46:558
1.0452,18.2329,-5.3332,-1.6989,-8.4506,5.6734,2.2036,-1.7625,-0.7521,542,2019-08-07 17:04:46:562
1.7772,20.5005,-8.8025,-2.4945,-10.7175,8.9262,2.6424,-1.6656,-0.7084,548,2019-08-07 17:04:46:568
1.7772,20.5005,-8.8025,-2.4945,-10.7175,8.9262,2.6424,-1.6656,-0.7084,552,2019-08-07 17:04:46:572
-0.1796,23.7323,-12.6726,-2.4945,-10.7175,8.9262,2.6009,-1.411,-0.6168,558,2019-08-07 17:04:46:578
-0.1796,23.7323,-12.6726,-0.9402,-11.9862,10.0395,2.6009,-1.411,-0.6168,563,2019-08-07 17:04:46:583
-0.1796,23.7323,-12.6726,-0.9402,-11.9862,10.0395,2.8225,1.3971,-0.8831,568,2019-08-07 17:04:46:588
0.3754,22.7155,-8.0436,-0.9402,-11.9862,10.0395,2.8225,1.3971,-0.8831,572,2019-08-07 17:04:46:592
0.3754,22.7155,-8.0436,-0.9402,-11.9862,10.0395,3.043,1.5355,-0.93,578,2019-08-07 17:04:46:598
-1.4953,25.5798,-0.8126,0.4992,-15.8731,-0.1992,3.043,1.5355,-0.93,583,2019-08-07 17:04:46:603
-1.4953,25.5798,-0.8126,0.4992,-15.8731,-0.1992,3.043,1.5355,-0.93,588,2019-08-07 17:04:46:608
-1.4953,25.5798,-0.8126,0.4992,-15.8731,-0.1992,3.8228,0.4372,-0.7287,592,2019-08-07 17:04:46:612
-3.1315,25.8567,-0.0773,2.0691,-16.2009,-1.2914,3.8228,0.4372,-0.7287,598,2019-08-07 17:04:46:618
-3.1315,25.8567,-0.0773,2.0691,-16.2009,-1.2914,4.1828,0.1017,-0.8448,602,2019-08-07 17:04:46:622
-3.1315,25.8567,-0.0773,2.0691,-16.2009,-1.2914,4.1828,0.1017,-0.8448,607,2019-08-07 17:04:46:627
-2.5622,23.0879,-1.8073,2.0691,-16.2009,-1.2914,4.1999,0.3936,-0.8405,612,2019-08-07 17:04:46:632
-2.5622,23.0879,-1.8073,0.1679,-12.9908,0.1835,4.1999,0.3936,-0.8405,618,2019-08-07 17:04:46:638
-1.0887,23.1595,-0.9352,0.1679,-12.9908,0.1835,3.9431,0.548,-0.7691,623,2019-08-07 17:04:46:643
-1.0887,23.1595,-0.9352,0.1679,-12.9908,0.1835,3.9431,0.548,-0.7691,630,2019-08-07 17:04:46:650
-1.0887,23.1595,-0.9352,0.1679,-12.9908,0.1835,3.8568,0.7845,-0.6275,632,2019-08-07 17:04:46:652
-1.6437,23.1977,0.0877,0.2651,-14.1673,-3.0358,3.8568,0.7845,-0.6275,638,2019-08-07 17:04:46:658
-1.6437,23.1977,0.0877,0.2651,-14.1673,-3.0358,3.6779,0.9827,-0.5721,643,2019-08-07 17:04:46:663
-1.6437,23.1977,0.0877,0.2651,-14.1673,-3.0358,3.6779,0.9827,-0.5721,648,2019-08-07 17:04:46:668
-1.8399,21.7083,0.6863,0.2651,-14.1673,-3.0358,3.6779,0.9827,-0.5721,653,2019-08-07 17:04:46:673
-1.8399,21.7083,0.6863,0.7679,-13.1307,-5.4792,3.4957,0.9848,-0.4996,657,2019-08-07 17:04:46:677
-1.4237,20.8012,2.817,0.7679,-13.1307,-5.4792,3.4957,0.9848,-0.4996,663,2019-08-07 17:04:46:683
-1.4237,20.8012,2.817,0.7679,-13.1307,-5.4792,3.3008,0.7387,-0.3612,667,2019-08-07 17:04:46:687
-1.4237,20.8012,2.817,0.7679,-13.1307,-5.4792,3.3008,0.7387,-0.3612,673,2019-08-07 17:04:46:693
-0.2994,18.2711,3.0621,-1.0594,-9.4985,-7.2371,2.9247,0.6066,-0.359,678,2019-08-07 17:04:46:698
-0.2994,18.2711,3.0621,-1.0594,-9.4985,-7.2371,2.9247,0.6066,-0.359,682,2019-08-07 17:04:46:702
0.4278,16.7817,4.7732,-1.0594,-9.4985,-7.2371,2.3825,0.7611,-0.2898,688,2019-08-07 17:04:46:708
0.4278,16.7817,4.7732,-1.0594,-9.4985,-7.2371,2.3825,0.7611,-0.2898,692,2019-08-07 17:04:46:712
0.4278,16.7817,4.7732,-2.4883,-7.3483,-11.0653,1.8648,0.9358,-0.2014,698,2019-08-07 17:04:46:718
1.4324,15.2207,7.691,-2.4883,-7.3483,-11.0653,1.8648,0.9358,-0.2014,703,2019-08-07 17:04:46:723
1.4324,15.2207,7.691,-2.4883,-7.3483,-11.0653,0.8603,1.1456,-0.0725,707,2019-08-07 17:04:46:727
1.0018,13.9556,10.0244,-2.4883,-7.3483,-11.0653,0.8603,1.1456,-0.0725,713,2019-08-07 17:04:46:733
1.0018,13.9556,10.0244,-2.0646,-5.2819,-15.2025,-0.0303,1.2788,0.05,717,2019-08-07 17:04:46:737
1.0018,13.9556,10.0244,-2.0646,-5.2819,-15.2025,-0.0303,1.2788,0.05,723,2019-08-07 17:04:46:743
-0.0029,12.4757,11.7496,-1.1529,-3.9215,-16.4106,-1.0221,1.3683,0.1981,728,2019-08-07 17:04:46:748
-0.0029,12.4757,11.7496,-1.1529,-3.9215,-16.4106,-1.0221,1.3683,0.1981,733,2019-08-07 17:04:46:753
-0.0029,12.4757,11.7496,-1.1529,-3.9215,-16.4106,-2.3664,1.3331,0.3984,737,2019-08-07 17:04:46:757
-1.3425,10.8144,13.39,-1.1529,-3.9215,-16.4106,-2.3664,1.3331,0.3984,743,2019-08-07 17:04:46:763
-1.3425,10.8144,13.39,0.6819,-1.6722,-17.8786,-3.4626,1.1297,0.5241,748,2019-08-07 17:04:46:768
-2.0123,10.337,13.5597,0.6819,-1.6722,-17.8786,-3.4626,1.1297,0.5241,753,2019-08-07 17:04:46:773
-2.0123,10.337,13.5597,0.6819,-1.6722,-17.8786,-3.4626,1.1297,0.5241,758,2019-08-07 17:04:46:778
-2.0123,10.337,13.5597,0.6819,-1.6722,-17.8786,-4.498,0.8506,0.605,763,2019-08-07 17:04:46:783
-1.7253,10.5566,13.1072,0.774,-1.5715,-16.4051,-4.498,0.8506,0.605,768,2019-08-07 17:04:46:788
-1.7253,10.5566,13.1072,0.774,-1.5715,-16.4051,-5.7092,0.5235,0.6413,772,2019-08-07 17:04:46:792
-0.9981,11.2632,11.825,0.2716,-1.9271,-14.7482,-5.7092,0.5235,0.6413,778,2019-08-07 17:04:46:798
-0.9981,11.2632,11.825,0.2716,-1.9271,-14.7482,-6.6509,0.3861,0.6327,782,2019-08-07 17:04:46:802
-0.9981,11.2632,11.825,0.2716,-1.9271,-14.7482,-6.6509,0.3861,0.6327,788,2019-08-07 17:04:46:808
-1.3139,13.1823,12.2587,0.2716,-1.9271,-14.7482,-6.6509,0.3861,0.6327,792,2019-08-07 17:04:46:812
-1.3139,13.1823,12.2587,0.8586,-4.0712,-14.2577,-7.7641,0.1507,0.5901,798,2019-08-07 17:04:46:818
-1.3139,13.1823,12.2587,0.8586,-4.0712,-14.2577,-7.7641,0.1507,0.5901,802,2019-08-07 17:04:46:822
-1.6823,14.4951,13.5125,0.8586,-4.0712,-14.2577,-8.676,-0.4725,0.6008,808,2019-08-07 17:04:46:828
-1.6823,14.4951,13.5125,0.8586,-4.0712,-14.2577,-8.676,-0.4725,0.6008,812,2019-08-07 17:04:46:832
-2.156,16.1754,13.1024,1.6747,-6.3803,-12.857,-9.3524,-1.0349,0.6775,818,2019-08-07 17:04:46:838
-2.156,16.1754,13.1024,1.6747,-6.3803,-12.857,-9.3524,-1.0349,0.6775,822,2019-08-07 17:04:46:842
-2.156,16.1754,13.1024,1.6747,-6.3803,-12.857,-9.9873,-1.493,0.7957,828,2019-08-07 17:04:46:848
-2.6057,18.1423,11.8061,1.6747,-6.3803,-12.857,-9.9873,-1.493,0.7957,832,2019-08-07 17:04:46:852
-2.6057,18.1423,11.8061,2.5181,-9.1397,-8.5073,-9.9873,-1.493,0.7957,838,2019-08-07 17:04:46:858
-2.6057,18.1423,11.8061,2.5181,-9.1397,-8.5073,-10.5913,-2.1034,1.0556,842,2019-08-07 17:04:46:862
-2.7732,18.7103,9.9866,2.5181,-9.1397,-8.5073,-10.5913,-2.1034,1.0556,848,2019-08-07 17:04:46:868
-2.7732,18.7103,9.9866,2.5181,-9.1397,-8.5073,-10.9769,-2.4592,1.3614,852,2019-08-07 17:04:46:872
-2.7158,19.2737,5.7064,2.8015,-10.4449,-1.4307,-10.9769,-2.4592,1.3614,857,2019-08-07 17:04:46:877
-2.7158,19.2737,5.7064,2.8015,-10.4449,-1.4307,-11.3604,-2.5561,1.7268,863,2019-08-07 17:04:46:883
-2.7158,19.2737,5.7064,2.8015,-10.4449,-1.4307,-11.3604,-2.5561,1.7268,867,2019-08-07 17:04:46:887
-2.5605,19.9943,1.8651,2.8015,-10.4449,-1.4307,-11.7834,-2.4315,2.2061,873,2019-08-07 17:04:46:893
-2.5605,19.9943,1.8651,2.3889,-12.8136,6.1252,-11.7834,-2.4315,2.2061,878,2019-08-07 17:04:46:898
-1.2449,21.0254,-2.0615,2.3889,-12.8136,6.1252,-12.0838,-2.1705,2.6067,883,2019-08-07 17:04:46:903
-1.2449,21.0254,-2.0615,2.3889,-12.8136,6.1252,-12.0838,-2.1705,2.6067,887,2019-08-07 17:04:46:907
-1.2449,21.0254,-2.0615,2.3889,-12.8136,6.1252,-12.0838,-2.1705,2.6067,892,2019-08-07 17:04:46:912
-0.1732,23.1975,-7.1052,0.7915,-19.2551,16.6553,-12.3394,-1.6262,2.8634,898,2019-08-07 17:04:46:918
-0.1732,23.1975,-7.1052,0.7915,-19.2551,16.6553,-12.3394,-1.6262,2.8634,902,2019-08-07 17:04:46:922
2.5012,30.2819,-11.2015,0.7915,-19.2551,16.6553,-12.2254,-0.4704,3.0008,908,2019-08-07 17:04:46:928
2.5012,30.2819,-11.2015,0.7915,-19.2551,16.6553,-12.2254,-0.4704,3.0008,913,2019-08-07 17:04:46:933
2.5012,30.2819,-11.2015,-1.0751,-33.4232,23.8227,-11.6268,0.6439,2.9028,917,2019-08-07 17:04:46:937
2.8026,38.8843,-16.3349,-1.0751,-33.4232,23.8227,-11.6268,0.6439,2.9028,923,2019-08-07 17:04:46:943
2.8026,38.8843,-16.3349,-1.0751,-33.4232,23.8227,-10.4678,2.1001,2.5364,927,2019-08-07 17:04:46:947
3.5202,41.6054,-22.7221,-1.0751,-33.4232,23.8227,-10.4678,2.1001,2.5364,933,2019-08-07 17:04:46:953
3.5202,41.6054,-22.7221,-1.9569,-37.7279,36.6173,-10.4678,2.1001,2.5364,937,2019-08-07 17:04:46:957
3.5202,41.6054,-22.7221,-1.9569,-37.7279,36.6173,-8.2169,4.7036,1.7087,943,2019-08-07 17:04:46:963
1.3195,33.8288,-36.6655,-1.9569,-37.7279,36.6173,-8.2169,4.7036,1.7087,947,2019-08-07 17:04:46:967
1.3195,33.8288,-36.6655,-1.9569,-37.7279,36.6173,-7.1665,6.7021,0.8692,953,2019-08-07 17:04:46:973
1.3195,33.8288,-36.6655,-1.9569,-37.7279,36.6173,-7.1665,6.7021,0.8692,958,2019-08-07 17:04:46:978
-3.8523,22.1759,-48.9921,3.9496,-21.7083,58.7905,-6.7532,8.4906,0.1853,963,2019-08-07 17:04:46:983
-3.8523,22.1759,-48.9921,3.9496,-21.7083,58.7905,-6.7532,8.4906,0.1853,967,2019-08-07 17:04:46:987
-3.8523,22.1759,-48.9921,3.9496,-21.7083,58.7905,-6.7532,8.4906,0.1853,973,2019-08-07 17:04:46:993
-11.3061,-0.1035,-36.7881,3.9496,-21.7083,58.7905,-6.4847,8.6994,0.1566,978,2019-08-07 17:04:46:998
-11.3061,-0.1035,-36.7881,7.6435,1.6398,40.535,-6.4847,8.6994,0.1566,983,2019-08-07 17:04:47:003
-11.3061,-0.1035,-36.7881,7.6435,1.6398,40.535,-6.0011,4.0219,0.8543,988,2019-08-07 17:04:47:008
-11.3061,-0.1035,-36.7881,7.6435,1.6398,40.535,-6.0011,4.0219,0.8543,992,2019-08-07 17:04:47:012
4.2474,-5.6698,-0.4399,7.6435,1.6398,40.535,-4.6344,-1.5804,0.9481,998,2019-08-07 17:04:47:018
4.2474,-5.6698,-0.4399,-6.3911,4.3101,4.8283,-4.6344,-1.5804,0.9481,1003,2019-08-07 17:04:47:023
-1.3071,-8.4768,-8.2224,-6.3911,4.3101,4.8283,0.1401,-9.0606,-0.3771,1007,2019-08-07 17:04:47:027
-1.3071,-8.4768,-8.2224,1.7722,7.6219,21.6577,0.1401,-9.0606,-0.3771,1013,2019-08-07 17:04:47:033
-1.3071,-8.4768,-8.2224,1.7722,7.6219,21.6577,4.2414,-8.7965,-1.5084,1017,2019-08-07 17:04:47:037
-4.3546,-9.0783,-27.3416,1.7722,7.6219,21.6577,4.2414,-8.7965,-1.5084,1023,2019-08-07 17:04:47:043
-4.3546,-9.0783,-27.3416,1.7722,7.6219,21.6577,8.0732,-4.9189,-1.7513,1028,2019-08-07 17:04:47:048
-0.7473,1.1091,-30.778,2.145,0.5378,41.1148,8.0732,-4.9189,-1.7513,1033,2019-08-07 17:04:47:053
-0.7473,1.1091,-30.778,2.145,0.5378,41.1148,8.0732,-4.9189,-1.7513,1037,2019-08-07 17:04:47:057
-0.7473,1.1091,-30.778,2.145,0.5378,41.1148,10.143,-1.9042,-0.9087,1043,2019-08-07 17:04:47:063
1.0707,20.3571,-26.8938,2.145,0.5378,41.1148,10.143,-1.9042,-0.9087,1048,2019-08-07 17:04:47:068
1.0707,20.3571,-26.8938,-0.9975,-21.892,38.9886,3.5895,-6.993,0.1438,1052,2019-08-07 17:04:47:072
10.3856,13.0532,-25.6635,-0.9975,-21.892,38.9886,3.5895,-6.993,0.1438,1058,2019-08-07 17:04:47:078
10.3856,13.0532,-25.6635,-0.9975,-21.892,38.9886,3.8291,-3.3817,-0.8938,1062,2019-08-07 17:04:47:082
10.3856,13.0532,-25.6635,-0.9975,-21.892,38.9886,3.8291,-3.3817,-0.8938,1068,2019-08-07 17:04:47:088
10.3617,17.383,-11.4231,-8.7402,-15.5442,20.9218,7.6055,6.9982,-1.8344,1072,2019-08-07 17:04:47:092
10.3617,17.383,-11.4231,-8.7402,-15.5442,20.9218,7.6055,6.9982,-1.8344,1078,2019-08-07 17:04:47:098
0.9033,23.4649,-6.1813,0.0805,-20.8757,15.5922,4.9455,2.8469,-1.1835,1082,2019-08-07 17:04:47:102
0.9033,23.4649,-6.1813,0.0805,-20.8757,15.5922,4.9455,2.8469,-1.1835,1088,2019-08-07 17:04:47:108
0.9033,23.4649,-6.1813,0.0805,-20.8757,15.5922,4.9455,2.8469,-1.1835,1093,2019-08-07 17:04:47:113
-4.9909,14.8577,4.1325,0.0805,-20.8757,15.5922,6.194,2.9683,-0.8011,1097,2019-08-07 17:04:47:117
-4.9909,14.8577,4.1325,5.5311,-11.9697,4.4818,6.194,2.9683,-0.8011,1103,2019-08-07 17:04:47:123
-4.9909,14.8577,4.1325,5.5311,-11.9697,4.4818,6.8492,1.6314,-0.195,1107,2019-08-07 17:04:47:127
-3.3164,14.1368,-3.0466,5.5311,-11.9697,4.4818,6.8492,1.6314,-0.195,1113,2019-08-07 17:04:47:133
-3.3164,14.1368,-3.0466,5.5311,-11.9697,4.4818,6.6883,0.6151,-0.3548,1118,2019-08-07 17:04:47:138
-3.3164,14.1368,-3.0466,3.9396,-10.2267,11.7127,6.6883,0.6151,-0.3548,1122,2019-08-07 17:04:47:142
-3.3164,14.1368,-3.0466,3.9396,-10.2267,11.7127,6.6883,0.6151,-0.3548,1128,2019-08-07 17:04:47:148
-4.6464,16.3328,-2.6412,3.948,-10.7749,11.255,6.8012,0.8314,-0.2642,1132,2019-08-07 17:04:47:152
-4.6464,16.3328,-2.6412,3.948,-10.7749,11.255,6.8012,0.8314,-0.2642,1138,2019-08-07 17:04:47:158
-4.6464,16.3328,-2.6412,3.948,-10.7749,11.255,6.8012,0.8314,-0.2642,1142,2019-08-07 17:04:47:162
-2.9528,16.6669,-1.8163,3.948,-10.7749,11.255,6.1823,0.7707,-0.1907,1148,2019-08-07 17:04:47:168
-2.9528,16.6669,-1.8163,4.1488,-11.1665,4.377,6.1823,0.7707,-0.1907,1152,2019-08-07 17:04:47:172
-4.3737,16.9486,3.9769,4.1488,-11.1665,4.377,6.2601,0.2348,-0.3633,1158,2019-08-07 17:04:47:178
-4.3737,16.9486,3.9769,4.1488,-11.1665,4.377,6.2601,0.2348,-0.3633,1163,2019-08-07 17:04:47:183
-4.3737,16.9486,3.9769,4.1488,-11.1665,4.377,6.4912,-0.5769,-0.4922,1168,2019-08-07 17:04:47:188
-3.4934,16.5094,4.6227,3.1386,-9.1035,1.9736,6.4912,-0.5769,-0.4922,1172,2019-08-07 17:04:47:192
-3.4934,16.5094,4.6227,3.1386,-9.1035,1.9736,6.4912,-0.5769,-0.4922,1178,2019-08-07 17:04:47:198
-2.881,16.5189,1.8322,3.1386,-9.1035,1.9736,6.6489,-1.3844,-0.6402,1182,2019-08-07 17:04:47:202
-2.881,16.5189,1.8322,3.1386,-9.1035,1.9736,6.6489,-1.3844,-0.6402,1188,2019-08-07 17:04:47:208
-2.881,16.5189,1.8322,3.1386,-9.1035,1.9736,6.585,-1.1798,-0.848,1192,2019-08-07 17:04:47:212
-2.3069,16.7767,0.0126,2.08,-8.447,5.1643,6.585,-1.1798,-0.848,1198,2019-08-07 17:04:47:218
-2.3069,16.7767,0.0126,2.08,-8.447,5.1643,6.3506,-0.5652,-0.8906,1203,2019-08-07 17:04:47:223
-1.063,17.9129,1.5776,2.08,-8.447,5.1643,6.3506,-0.5652,-0.8906,1207,2019-08-07 17:04:47:227
-1.063,17.9129,1.5776,2.08,-8.447,5.1643,6.0875,-0.2158,-0.8671,1213,2019-08-07 17:04:47:233
-1.063,17.9129,1.5776,0.5922,-8.881,1.99,6.0875,-0.2158,-0.8671,1218,2019-08-07 17:04:47:238
-1.2496,17.6599,2.0443,0.5922,-8.881,1.99,5.7211,0.2157,-0.8565,1223,2019-08-07 17:04:47:243
-1.2496,17.6599,2.0443,0.5922,-8.881,1.99,5.7211,0.2157,-0.8565,1228,2019-08-07 17:04:47:248
-1.9433,18.2327,3.1567,1.4382,-8.8932,-0.1982,5.3429,0.7057,-0.7883,1232,2019-08-07 17:04:47:252
-1.9433,18.2327,3.1567,1.4382,-8.8932,-0.1982,5.3429,0.7057,-0.7883,1238,2019-08-07 17:04:47:258
-1.9433,18.2327,3.1567,1.4382,-8.8932,-0.1982,5.3429,0.7057,-0.7883,1242,2019-08-07 17:04:47:262
-1.508,19.03,5.8389,0.9093,-9.5513,-3.3827,5.002,0.8538,-0.6466,1248,2019-08-07 17:04:47:268
-1.508,19.03,5.8389,0.9093,-9.5513,-3.3827,5.002,0.8538,-0.6466,1253,2019-08-07 17:04:47:273
-1.1731,19.7222,4.915,0.9093,-9.5513,-3.3827,4.6622,0.5651,-0.5018,1257,2019-08-07 17:04:47:277
-1.1731,19.7222,4.915,0.9093,-9.5513,-3.3827,4.6622,0.5651,-0.5018,1263,2019-08-07 17:04:47:283
-1.1731,19.7222,4.915,0.4945,-10.1263,-2.5389,4.2979,0.6088,-0.4315,1267,2019-08-07 17:04:47:287
-1.5941,19.8511,3.3783,0.4945,-10.1263,-2.5389,4.2979,0.6088,-0.4315,1273,2019-08-07 17:04:47:293
-1.5941,19.8511,3.3783,0.4945,-10.1263,-2.5389,3.8323,0.9805,-0.3558,1277,2019-08-07 17:04:47:297
-2.2782,19.4978,5.3345,1.4522,-9.7501,-4.6025,3.8323,0.9805,-0.3558,1283,2019-08-07 17:04:47:303
-2.2782,19.4978,5.3345,1.4522,-9.7501,-4.6025,3.3168,1.1563,-0.3026,1288,2019-08-07 17:04:47:308
-2.2782,19.4978,5.3345,1.4522,-9.7501,-4.6025,3.3168,1.1563,-0.3026,1293,2019-08-07 17:04:47:313
-2.9384,18.9631,7.9318,1.4522,-9.7501,-4.6025,3.3168,1.1563,-0.3026,1298,2019-08-07 17:04:47:318
-2.9384,18.9631,7.9318,1.4522,-9.7501,-4.6025,3.0526,0.8154,-0.2227,1302,2019-08-07 17:04:47:322
-2.9384,18.9631,7.9318,2.2845,-8.9175,-8.4935,3.0526,0.8154,-0.2227,1308,2019-08-07 17:04:47:328
-3.0724,18.5096,7.9507,2.2845,-8.9175,-8.4935,2.8214,0.3605,-0.1321,1313,2019-08-07 17:04:47:333
-3.0724,18.5096,7.9507,2.2845,-8.9175,-8.4935,2.8214,0.3605,-0.1321,1318,2019-08-07 17:04:47:338
-3.4073,18.2614,6.282,2.4829,-8.5034,-6.6871,2.2664,0.2114,-0.1151,1323,2019-08-07 17:04:47:343
-3.4073,18.2614,6.282,2.4829,-8.5034,-6.6871,2.2664,0.2114,-0.1151,1328,2019-08-07 17:04:47:348
-3.4073,18.2614,6.282,2.4829,-8.5034,-6.6871,2.2664,0.2114,-0.1151,1332,2019-08-07 17:04:47:352
-3.6082,17.9272,7.7291,2.4829,-8.5034,-6.6871,1.9362,0.0953,-0.0852,1338,2019-08-07 17:04:47:358
-3.6082,17.9272,7.7291,2.4829,-8.5034,-6.6871,1.9362,0.0953,-0.0852,1342,2019-08-07 17:04:47:362
-3.6082,17.9272,7.7291,2.1194,-7.5726,-8.9001,1.7583,-0.1881,-0.0426,1348,2019-08-07 17:04:47:368
-2.6035,17.1013,7.8753,2.1194,-7.5726,-8.9001,1.7583,-0.1881,-0.0426,1352,2019-08-07 17:04:47:372
-2.6035,17.1013,7.8753,2.1194,-7.5726,-8.9001,1.443,-0.6909,-0.0139,1358,2019-08-07 17:04:47:378
-1.728,16.6335,6.5554,2.1194,-7.5726,-8.9001,1.443,-0.6909,-0.0139,1362,2019-08-07 17:04:47:382
-1.728,16.6335,6.5554,0.3562,-6.8145,-6.9835,1.1394,-0.6515,0.0181,1368,2019-08-07 17:04:47:388
-1.728,16.6335,6.5554,0.3562,-6.8145,-6.9835,1.1394,-0.6515,0.0181,1372,2019-08-07 17:04:47:392
-0.7999,16.4044,5.9945,-0.1684,-6.7047,-7.0966,0.8943,-0.5321,0.0458,1378,2019-08-07 17:04:47:398
-0.7999,16.4044,5.9945,-0.1684,-6.7047,-7.0966,0.8943,-0.5321,0.0458,1382,2019-08-07 17:04:47:402
-0.7999,16.4044,5.9945,-0.1684,-6.7047,-7.0966,0.8943,-0.5321,0.0458,1388,2019-08-07 17:04:47:408
-0.6372,16.1418,7.0221,-0.1684,-6.7047,-7.0966,0.4587,-0.4938,0.1566,1393,2019-08-07 17:04:47:413
-0.6372,16.1418,7.0221,-0.2369,-6.2398,-8.1157,0.4587,-0.4938,0.1566,1398,2019-08-07 17:04:47:418
-0.8142,15.7122,6.8099,-0.2369,-6.2398,-8.1157,0.17,-0.5098,0.2439,1402,2019-08-07 17:04:47:422
-0.8142,15.7122,6.8099,-0.2369,-6.2398,-8.1157,0.17,-0.5098,0.2439,1408,2019-08-07 17:04:47:428
-0.8142,15.7122,6.8099,-0.2369,-6.2398,-8.1157,-0.1656,-0.4267,0.3281,1413,2019-08-07 17:04:47:433
-0.1827,15.1011,7.2955,-0.7263,-5.3998,-8.4332,-0.1656,-0.4267,0.3281,1417,2019-08-07 17:04:47:437
-0.1827,15.1011,7.2955,-0.7263,-5.3998,-8.4332,-0.5139,-0.2967,0.3867,1423,2019-08-07 17:04:47:443
-0.1827,15.1011,7.2955,-0.7263,-5.3998,-8.4332,-0.5139,-0.2967,0.3867,1427,2019-08-07 17:04:47:447
0.401,14.6953,7.4086,-0.7263,-5.3998,-8.4332,-0.7579,-0.2094,0.4218,1432,2019-08-07 17:04:47:452
0.401,14.6953,7.4086,-1.4567,-4.7793,-7.4213,-0.7579,-0.2094,0.4218,1438,2019-08-07 17:04:47:458
0.401,14.6953,7.4086,-1.4567,-4.7793,-7.4213,-0.7579,-0.2094,0.4218,1443,2019-08-07 17:04:47:463
0.5589,14.5569,5.7163,-1.4567,-4.7793,-7.4213,-1.0285,0.058,0.408,1448,2019-08-07 17:04:47:468
0.5589,14.5569,5.7163,-1.4567,-4.7793,-7.4213,-1.0285,0.058,0.408,1452,2019-08-07 17:04:47:472
0.5589,14.5569,5.7163,-1.294,-4.4735,-6.3484,-1.3566,0.4522,0.4005,1458,2019-08-07 17:04:47:478
0.6163,14.0986,5.7588,-1.294,-4.4735,-6.3484,-1.3566,0.4522,0.4005,1463,2019-08-07 17:04:47:483
0.6163,14.0986,5.7588,-1.294,-4.4735,-6.3484,-1.5046,0.6652,0.3558,1467,2019-08-07 17:04:47:487
0.6163,14.0986,5.7588,-1.294,-4.4735,-6.3484,-1.5046,0.6652,0.3558,1473,2019-08-07 17:04:47:493
0.1235,13.2489,5.9756,-0.7769,-3.4697,-6.3969,-1.5419,0.7685,0.31,1477,2019-08-07 17:04:47:497
0.1235,13.2489,5.9756,-0.7769,-3.4697,-6.3969,-1.5419,0.7685,0.31,1483,2019-08-07 17:04:47:503
0.1235,13.2489,5.9756,-0.7769,-3.4697,-6.3969,-1.5419,0.7685,0.31,1487,2019-08-07 17:04:47:507
-0.7999,13.015,4.0948,-0.7769,-3.4697,-6.3969,-1.5813,0.9187,0.2492,1493,2019-08-07 17:04:47:513
-0.7999,13.015,4.0948,0.5502,-3.252,-3.6979,-1.5813,0.9187,0.2492,1497,2019-08-07 17:04:47:517
-1.7663,13.0531,3.449,0.5502,-3.252,-3.6979,-1.5792,1.0871,0.1939,1503,2019-08-07 17:04:47:523
-1.7663,13.0531,3.449,0.5502,-3.252,-3.6979,-1.5792,1.0871,0.1939,1508,2019-08-07 17:04:47:528
-1.7663,13.0531,3.449,0.5502,-3.252,-3.6979,-1.5568,1.1275,0.1608,1513,2019-08-07 17:04:47:533
-2.393,12.4325,2.9965,1.825,-2.6416,-2.7731,-1.5568,1.1275,0.1608,1518,2019-08-07 17:04:47:538
-2.393,12.4325,2.9965,1.825,-2.6416,-2.7731,-1.5579,0.9102,0.1193,1522,2019-08-07 17:04:47:542
-2.4169,11.726,2.5628,1.8526,-1.9397,-2.182,-1.5579,0.9102,0.1193,1528,2019-08-07 17:04:47:548
-2.4169,11.726,2.5628,1.8526,-1.9397,-2.182,-1.5867,0.5161,0.0351,1532,2019-08-07 17:04:47:552
-2.4169,11.726,2.5628,1.8526,-1.9397,-2.182,-1.5867,0.5161,0.0351,1538,2019-08-07 17:04:47:558
-2.4169,11.726,2.5628,1.8526,-1.9397,-2.182,-1.5867,0.5161,0.0351,1543,2019-08-07 17:04:47:563
-2.2782,17.7792,-6.2284,2.5101,-14.1335,2.6777,-1.5749,0.2103,-0.033,1548,2019-08-07 17:04:47:568
-2.2782,17.7792,-6.2284,2.5101,-14.1335,2.6777,-1.5749,0.2103,-0.033,1552,2019-08-07 17:04:47:572
4.1901,9.2293,1.8369,2.5101,-14.1335,2.6777,-1.7124,-0.7356,0.865,1558,2019-08-07 17:04:47:578
4.1901,9.2293,1.8369,2.5101,-14.1335,2.6777,-1.7124,-0.7356,0.865,1563,2019-08-07 17:04:47:583
4.1901,9.2293,1.8369,-4.063,1.207,10.5223,-1.0072,0.8293,0.3781,1567,2019-08-07 17:04:47:587
2.7644,10.3846,-9.5281,-4.063,1.207,10.5223,-1.0072,0.8293,0.3781,1573,2019-08-07 17:04:47:593
2.7644,10.3846,-9.5281,-4.063,1.207,10.5223,-0.9155,0.956,0.1651,1577,2019-08-07 17:04:47:597
0.8172,12.275,8.4456,-4.063,1.207,10.5223,-0.9155,0.956,0.1651,1583,2019-08-07 17:04:47:603
0.8172,12.275,8.4456,-3.7455,0.4438,-9.5046,-0.9709,0.3243,0.653,1588,2019-08-07 17:04:47:608
0.8172,12.275,8.4456,-3.7455,0.4438,-9.5046,-0.9709,0.3243,0.653,1593,2019-08-07 17:04:47:613
3.5442,9.974,6.7722,-3.7455,0.4438,-9.5046,-0.8026,-0.2115,0.4772,1598,2019-08-07 17:04:47:618
3.5442,9.974,6.7722,-3.7455,0.4438,-9.5046,-0.8026,-0.2115,0.4772,1603,2019-08-07 17:04:47:623
3.5442,9.974,6.7722,-3.7455,0.4438,-9.5046,-0.8026,-0.2115,0.4772,1608,2019-08-07 17:04:47:628
3.6686,16.8579,17.1332,-3.9058,-7.1454,-15.7739,-0.8591,-1.1308,0.6935,1613,2019-08-07 17:04:47:633
3.6686,16.8579,17.1332,-3.9058,-7.1454,-15.7739,-0.8591,-1.1308,0.6935,1617,2019-08-07 17:04:47:637
3.7882,19.345,0.0409,-3.9058,-7.1454,-15.7739,-0.3957,-1.1511,0.7084,1623,2019-08-07 17:04:47:643
3.7882,19.345,0.0409,-0.3402,-6.6564,7.558,-0.3957,-1.1511,0.7084,1628,2019-08-07 17:04:47:648
3.7882,19.345,0.0409,-0.3402,-6.6564,7.558,-0.0463,1.4514,-0.0746,1633,2019-08-07 17:04:47:653
-6.0434,11.5685,-8.2082,-0.3402,-6.6564,7.558,-0.0463,1.4514,-0.0746,1637,2019-08-07 17:04:47:657
-6.0434,11.5685,-8.2082,-0.3402,-6.6564,7.558,-0.0463,1.4514,-0.0746,1643,2019-08-07 17:04:47:663
-6.0434,11.5685,-8.2082,-0.3402,-6.6564,7.558,-0.4511,2.6221,0.0884,1647,2019-08-07 17:04:47:667
-3.058,4.6035,15.2335,2.9514,5.0857,-13.7023,-0.0708,0.4394,0.2855,1653,2019-08-07 17:04:47:673
-3.058,4.6035,15.2335,2.9514,5.0857,-13.7023,-0.0708,0.4394,0.2855,1658,2019-08-07 17:04:47:678
-0.8429,5.8399,3.1143,0.7466,3.8431,-1.5438,-0.0708,0.4394,0.2855,1662,2019-08-07 17:04:47:682
-0.8429,5.8399,3.1143,0.7466,3.8431,-1.5438,0.22,-1.9628,0.2514,1668,2019-08-07 17:04:47:688
-0.8429,5.8399,3.1143,0.7466,3.8431,-1.5438,0.22,-1.9628,0.2514,1673,2019-08-07 17:04:47:693
0.8507,9.1243,1.4221,0.7466,3.8431,-1.5438,0.4576,-2.0256,0.2365,1678,2019-08-07 17:04:47:698
0.8507,9.1243,1.4221,-1.5572,-0.6151,7.7714,0.4576,-2.0256,0.2365,1682,2019-08-07 17:04:47:702
2.0611,11.8883,-8.4156,-1.5572,-0.6151,7.7714,0.4576,-2.0256,0.2365,1688,2019-08-07 17:04:47:708
2.0611,11.8883,-8.4156,-1.5572,-0.6151,7.7714,-0.287,0.286,0.2919,1693,2019-08-07 17:04:47:713
2.0611,11.8883,-8.4156,-1.5572,-0.6151,7.7714,-0.287,0.286,0.2919,1698,2019-08-07 17:04:47:718
1.5779,9.8069,2.4968,-1.4936,-0.1126,-0.9975,-0.3595,1.788,0.2791,1703,2019-08-07 17:04:47:723
1.5779,9.8069,2.4968,-1.4936,-0.1126,-0.9975,-0.3595,1.788,0.2791,1708,2019-08-07 17:04:47:728
-0.9912,9.7544,5.5231,-1.4936,-0.1126,-0.9975,-0.303,0.9315,0.2205,1712,2019-08-07 17:04:47:732
-0.9912,9.7544,5.5231,-1.4936,-0.1126,-0.9975,-0.303,0.9315,0.2205,1718,2019-08-07 17:04:47:738
-0.9912,9.7544,5.5231,1.4727,0.3421,-3.4325,0.0304,-0.6951,0.2109,1722,2019-08-07 17:04:47:742
-0.6132,9.2961,3.1992,1.4727,0.3421,-3.4325,0.0304,-0.6951,0.2109,1728,2019-08-07 17:04:47:748
-0.6132,9.2961,3.1992,1.4727,0.3421,-3.4325,0.0539,-1.1692,0.2354,1733,2019-08-07 17:04:47:753
-0.6132,9.2961,3.1992,1.4727,0.3421,-3.4325,0.0539,-1.1692,0.2354,1738,2019-08-07 17:04:47:758
2.0277,9.8929,-1.8352,-1.8557,-0.21,3.3999,0.0539,-1.1692,0.2354,1743,2019-08-07 17:04:47:763
2.0277,9.8929,-1.8352,-1.8557,-0.21,3.3999,-0.09,-0.6046,0.1491,1747,2019-08-07 17:04:47:767
2.5252,9.8356,0.8941,-1.8557,-0.21,3.3999,-0.09,-0.6046,0.1491,1753,2019-08-07 17:04:47:773
2.5252,9.8356,0.8941,-1.8557,-0.21,3.3999,-0.1134,0.1784,0.1555,1757,2019-08-07 17:04:47:777
2.5252,9.8356,0.8941,-2.2958,-0.084,-0.5158,-0.1134,0.1784,0.1555,1763,2019-08-07 17:04:47:783
2.0181,9.6542,1.7992,-2.2958,-0.084,-0.5158,-0.0516,0.2061,0.1065,1768,2019-08-07 17:04:47:788
2.0181,9.6542,1.7992,-2.2958,-0.084,-0.5158,-0.0516,0.2061,0.1065,1772,2019-08-07 17:04:47:792
0.6881,9.7162,0.2059,-2.2958,-0.084,-0.5158,-0.0175,0.3414,0.05,1778,2019-08-07 17:04:47:798
0.6881,9.7162,0.2059,-0.0597,-0.0371,1.6181,-0.0175,0.3414,0.05,1783,2019-08-07 17:04:47:803
0.6881,9.7162,0.2059,-0.0597,-0.0371,1.6181,-0.058,0.6428,0.0586,1787,2019-08-07 17:04:47:807
-0.0965,10.0265,0.9366,-0.0597,-0.0371,1.6181,-0.058,0.6428,0.0586,1793,2019-08-07 17:04:47:813
-0.0965,10.0265,0.9366,-0.0597,-0.0371,1.6181,-0.0495,0.5374,0.0724,1797,2019-08-07 17:04:47:817
-0.5893,10.4514,1.2712,0.7007,-0.7685,0.1786,-0.0495,0.5374,0.0724,1803,2019-08-07 17:04:47:823
-0.5893,10.4514,1.2712,0.7007,-0.7685,0.1786,-0.0495,0.5374,0.0724,1807,2019-08-07 17:04:47:827
-0.5893,10.4514,1.2712,0.7007,-0.7685,0.1786,-0.0314,0.3169,0.0511,1813,2019-08-07 17:04:47:833
-0.8237,10.5469,0.8706,0.7007,-0.7685,0.1786,-0.0314,0.3169,0.0511,1818,2019-08-07 17:04:47:838
-0.8237,10.5469,0.8706,0.8645,-0.6973,0.6395,-0.0548,0.1539,0.0117,1823,2019-08-07 17:04:47:843
-0.3453,10.2223,1.2712,0.8645,-0.6973,0.6395,-0.0548,0.1539,0.0117,1828,2019-08-07 17:04:47:848
-0.3453,10.2223,1.2712,0.8645,-0.6973,0.6395,-0.0548,0.1539,0.0117,1833,2019-08-07 17:04:47:853
-0.3453,10.2223,1.2712,0.8645,-0.6973,0.6395,-0.042,-0.0304,0.0266,1837,2019-08-07 17:04:47:857
-0.3453,10.2223,1.2712,0.8645,-0.6973,0.6395,-0.042,-0.0304,0.0266,1843,2019-08-07 17:04:47:863
-0.3453,10.2223,1.2712,0.8645,-0.6973,0.6395,-0.042,-0.0304,0.0266,1847,2019-08-07 17:04:47:867
0.4297,9.8308,1.6201,-0.4683,-0.0685,0.3455,-0.0367,-0.0794,0.0351,1853,2019-08-07 17:04:47:873
0.4297,9.8308,1.6201,-0.4683,-0.0685,0.3455,-0.0367,-0.0794,0.0351,1857,2019-08-07 17:04:47:877
0.9034,9.7974,0.5029,-0.6746,-0.0875,0.9272,-0.0495,5.0E-4,0.0181,1863,2019-08-07 17:04:47:883
0.9034,9.7974,0.5029,-0.6746,-0.0875,0.9272,-0.0495,5.0E-4,0.0181,1868,2019-08-07 17:04:47:888
0.9034,9.7974,0.5029,-0.6746,-0.0875,0.9272,-0.0559,0.0506,0.0192,1872,2019-08-07 17:04:47:892
0.7557,9.7019,1.5212,-0.6746,-0.0875,0.9272,-0.0559,0.0506,0.0192,1879,2019-08-07 17:04:47:899
0.7557,9.7019,1.5212,-0.3289,-0.0841,0.9113,-0.0516,-0.0389,0.0319,1882,2019-08-07 17:04:47:902
0.2486,9.9549,0.0976,-0.3289,-0.0841,0.9113,-0.0516,-0.0389,0.0319,1888,2019-08-07 17:04:47:908
0.2486,9.9549,0.0976,-0.3289,-0.0841,0.9113,-0.0516,-0.0389,0.0319,1892,2019-08-07 17:04:47:912
0.2486,9.9549,0.0976,0.3676,-0.4565,1.7502,-0.0846,0.0335,0.0287,1898,2019-08-07 17:04:47:918
-0.6748,10.4561,0.0552,0.3676,-0.4565,1.7502,-0.0846,0.0335,0.0287,1903,2019-08-07 17:04:47:923
-0.6748,10.4561,0.0552,0.3676,-0.4565,1.7502,-0.1507,0.1848,0.0767,1907,2019-08-07 17:04:47:927
-1.4498,10.3081,1.1441,1.6964,-0.6358,0.4751,-0.1507,0.1848,0.0767,1913,2019-08-07 17:04:47:933
-1.4498,10.3081,1.1441,1.6964,-0.6358,0.4751,-0.1667,0.0878,0.1033,1917,2019-08-07 17:04:47:937
-1.4498,10.3081,1.1441,1.6964,-0.6358,0.4751,-0.1667,0.0878,0.1033,1923,2019-08-07 17:04:47:943
-1.1484,10.122,1.7852,1.6964,-0.6358,0.4751,-0.1347,-0.2413,0.1427,1927,2019-08-07 17:04:47:947
-1.1484,10.122,1.7852,0.8388,-0.407,0.2762,-0.1347,-0.2413,0.1427,1933,2019-08-07 17:04:47:953
-1.1484,10.122,1.7852,0.8388,-0.407,0.2762,-0.1027,-0.5215,0.1502,1938,2019-08-07 17:04:47:958
-0.0337,10.0122,0.5879,0.8388,-0.407,0.2762,-0.1027,-0.5215,0.1502,1943,2019-08-07 17:04:47:963
-0.0337,10.0122,0.5879,0.1141,-0.3178,1.2475,-0.1027,-0.5215,0.1502,1948,2019-08-07 17:04:47:968
0.9615,9.7162,0.8236,0.1141,-0.3178,1.2475,-0.1219,-0.3851,0.1406,1952,2019-08-07 17:04:47:972
0.9615,9.7162,0.8236,0.1141,-0.3178,1.2475,-0.1219,-0.3851,0.1406,1958,2019-08-07 17:04:47:978
1.4686,9.382,1.9313,-1.1384,0.2793,-0.2623,-0.1209,-0.1774,0.1427,1964,2019-08-07 17:04:47:984
1.4686,9.382,1.9313,-1.1384,0.2793,-0.2623,-0.1209,-0.1774,0.1427,1968,2019-08-07 17:04:47:988
1.4686,9.382,1.9313,-1.1384,0.2793,-0.2623,-0.0825,-0.1423,0.1204,1973,2019-08-07 17:04:47:993
1.5882,9.3486,1.5165,-1.1384,0.2793,-0.2623,-0.0825,-0.1423,0.1204,1977,2019-08-07 17:04:47:997
1.5882,9.3486,1.5165,-1.1814,0.0938,0.4323,-0.0665,-0.0421,0.0841,1983,2019-08-07 17:04:48:003
1.5882,9.3486,1.5165,-1.1814,0.0938,0.4323,-0.0665,-0.0421,0.0841,1988,2019-08-07 17:04:48:008
1.3825,9.7019,1.2667,-1.1814,0.0938,0.4323,-0.0665,-0.0421,0.0841,1993,2019-08-07 17:04:48:013
1.3825,9.7019,1.2667,-0.989,-0.0696,0.4363,-0.0473,0.1081,0.049,1997,2019-08-07 17:04:48:017
1.3825,9.7019,1.2667,-0.989,-0.0696,0.4363,-0.0473,0.1081,0.049,2002,2019-08-07 17:04:48:022
1.1816,9.7544,1.5071,-0.989,-0.0696,0.4363,-0.0143,0.1549,0.0064,2008,2019-08-07 17:04:48:028
1.1816,9.7544,1.5071,-0.989,-0.0696,0.4363,-0.0143,0.1549,0.0064,2012,2019-08-07 17:04:48:032
0.8084,9.8212,1.5495,-0.5247,-0.1374,0.172,0.0187,0.1059,-0.0192,2018,2019-08-07 17:04:48:038
0.8084,9.8212,1.5495,-0.5247,-0.1374,0.172,0.0187,0.1059,-0.0192,2022,2019-08-07 17:04:48:042
0.8228,9.7162,1.3704,-0.5247,-0.1374,0.172,0.0453,0.0974,-0.0288,2028,2019-08-07 17:04:48:048
0.8228,9.7162,1.3704,-0.5247,-0.1374,0.172,0.0453,0.0974,-0.0288,2032,2019-08-07 17:04:48:052
0.8228,9.7162,1.3704,-0.3195,-0.0498,0.4843,0.0421,0.1379,-0.0501,2038,2019-08-07 17:04:48:058
0.8228,9.7162,1.3704,-0.3195,-0.0498,0.4843,0.0421,0.1379,-0.0501,2043,2019-08-07 17:04:48:063
0.4161,9.8689,1.1865,-0.3195,-0.0498,0.4843,0.0421,0.1379,-0.0501,2048,2019-08-07 17:04:48:068
0.4161,9.8689,1.1865,0.2352,-0.3051,0.5717,0.0432,0.1528,-0.0469,2053,2019-08-07 17:04:48:073
0.0047,10.0503,1.1206,0.2352,-0.3051,0.5717,0.0432,0.1528,-0.0469,2058,2019-08-07 17:04:48:078
0.0047,10.0503,1.1206,0.2352,-0.3051,0.5717,0.0517,0.1326,-0.0586,2063,2019-08-07 17:04:48:083
0.0047,10.0503,1.1206,0.2352,-0.3051,0.5717,0.0517,0.1326,-0.0586,2068,2019-08-07 17:04:48:088
-0.2201,10.079,1.2573,0.2352,-0.3051,0.5717,0.0485,0.0474,-0.0448,2073,2019-08-07 17:04:48:093
-0.2201,10.079,1.2573,0.4708,-0.2783,0.3562,0.0485,0.0474,-0.0448,2077,2019-08-07 17:04:48:097
0.0239,9.8737,1.0829,0.4708,-0.2783,0.3562,0.0485,-0.0283,-0.033,2083,2019-08-07 17:04:48:103
0.0239,9.8737,1.0829,0.4708,-0.2783,0.3562,0.0485,-0.0283,-0.033,2088,2019-08-07 17:04:48:108
0.0239,9.8737,1.0829,0.4708,-0.2783,0.3562,0.0485,-0.0283,-0.033,2093,2019-08-07 17:04:48:113
-0.024,10.1697,0.7906,0.3142,-0.5524,0.8649,0.0283,-0.0517,-0.0213,2097,2019-08-07 17:04:48:117
-0.024,10.1697,0.7906,0.3142,-0.5524,0.8649,0.0283,-0.0517,-0.0213,2103,2019-08-07 17:04:48:123
0.1913,10.0551,0.7576,0.3142,-0.5524,0.8649,-0.0239,-0.0166,-0.0256,2107,2019-08-07 17:04:48:127
0.1913,10.0551,0.7576,0.3142,-0.5524,0.8649,-0.0239,-0.0166,-0.0256,2113,2019-08-07 17:04:48:133
0.1913,10.0551,0.7576,0.1414,-0.246,0.7335,-0.0431,-0.0038,-0.033,2117,2019-08-07 17:04:48:137
0.2009,9.8689,0.9886,0.1414,-0.246,0.7335,-0.0431,-0.0038,-0.033,2123,2019-08-07 17:04:48:143
0.2009,9.8689,0.9886,0.3574,-0.3511,0.7724,-0.0442,0.0122,-0.0245,2128,2019-08-07 17:04:48:148
0.0191,10.0742,1.0499,0.3574,-0.3511,0.7724,-0.0442,0.0122,-0.0245,2133,2019-08-07 17:04:48:153
0.0191,10.0742,1.0499,0.3574,-0.3511,0.7724,-0.0442,0.0122,-0.0245,2138,2019-08-07 17:04:48:158
0.0191,10.0742,1.0499,0.3574,-0.3511,0.7724,-0.0537,-0.0357,-0.0053,2143,2019-08-07 17:04:48:163
-0.134,10.1554,1.5684,0.4001,-0.4666,0.0483,-0.0537,-0.0357,-0.0053,2148,2019-08-07 17:04:48:168
-0.134,10.1554,1.5684,0.4001,-0.4666,0.0483,-0.0292,-0.1763,0.0138,2153,2019-08-07 17:04:48:173
-0.134,10.1554,1.5684,0.4001,-0.4666,0.0483,-0.0292,-0.1763,0.0138,2157,2019-08-07 17:04:48:177
0.2488,9.7018,1.2054,0.4001,-0.4666,0.0483,-0.0111,-0.2541,0.0128,2163,2019-08-07 17:04:48:183
0.2488,9.7018,1.2054,-0.1417,-0.0611,0.6894,-0.0111,-0.2541,0.0128,2168,2019-08-07 17:04:48:188
0.6602,9.7925,1.064,-0.1417,-0.0611,0.6894,-0.0122,-0.203,0.0085,2172,2019-08-07 17:04:48:192
0.6602,9.7925,1.064,-0.3418,-0.1087,0.5224,-0.0122,-0.203,0.0085,2178,2019-08-07 17:04:48:198
0.6602,9.7925,1.064,-0.3418,-0.1087,0.5224,-0.0133,-0.1231,0.0138,2183,2019-08-07 17:04:48:203
0.7942,9.783,1.2054,-0.3418,-0.1087,0.5224,-0.0133,-0.1231,0.0138,2188,2019-08-07 17:04:48:208
0.7942,9.783,1.2054,-0.3418,-0.1087,0.5224,-0.0037,-0.0496,-0.0011,2192,2019-08-07 17:04:48:212
0.3971,10.1363,1.4553,-0.0522,-0.4714,0.1905,-0.0037,-0.0496,-0.0011,2198,2019-08-07 17:04:48:218
0.3971,10.1363,1.4553,-0.0522,-0.4714,0.1905,0.0134,-0.0357,0.0096,2202,2019-08-07 17:04:48:222
0.3971,10.1363,1.4553,-0.0522,-0.4714,0.1905,0.0134,-0.0357,0.0096,2208,2019-08-07 17:04:48:228
0.134,9.9405,1.5872,-0.0522,-0.4714,0.1905,0.0411,-0.0911,0.0181,2212,2019-08-07 17:04:48:232
0.134,9.9405,1.5872,0.2857,-0.1602,0.0665,0.0411,-0.0911,0.0181,2218,2019-08-07 17:04:48:238
0.134,9.9405,1.5872,0.2857,-0.1602,0.0665,0.0411,-0.0911,0.0181,2222,2019-08-07 17:04:48:242
0.1723,9.7018,1.196,0.1615,0.0368,0.5764,0.0709,-0.2264,0.0266,2228,2019-08-07 17:04:48:248
0.1723,9.7018,1.196,0.1615,0.0368,0.5764,0.0709,-0.2264,0.0266,2232,2019-08-07 17:04:48:252
0.4593,9.678,0.9415,0.1615,0.0368,0.5764,0.0709,-0.2349,0.016,2238,2019-08-07 17:04:48:258
0.4593,9.678,0.9415,0.1615,0.0368,0.5764,0.0709,-0.2349,0.016,2242,2019-08-07 17:04:48:262
0.4593,9.678,0.9415,-0.3094,0.0636,0.5282,0.0613,-0.1838,0.017,2248,2019-08-07 17:04:48:268
0.7081,9.6398,1.0263,-0.3094,0.0636,0.5282,0.0613,-0.1838,0.017,2252,2019-08-07 17:04:48:272
0.7081,9.6398,1.0263,-0.3094,0.0636,0.5282,0.0581,-0.0634,0.0128,2258,2019-08-07 17:04:48:278
0.689,9.7305,0.9368,-0.3094,0.0636,0.5282,0.0581,-0.0634,0.0128,2262,2019-08-07 17:04:48:282
0.689,9.7305,0.9368,-0.2109,-0.1011,0.6439,0.0496,0.0037,-0.0032,2268,2019-08-07 17:04:48:288
0.689,9.7305,0.9368,-0.2109,-0.1011,0.6439,0.0496,0.0037,-0.0032,2272,2019-08-07 17:04:48:292
0.4881,9.8498,1.0687,-0.2109,-0.1011,0.6439,0.0453,0.0271,-0.0096,2278,2019-08-07 17:04:48:298
0.4881,9.8498,1.0687,-0.2109,-0.1011,0.6439,0.0453,0.0271,-0.0096,2283,2019-08-07 17:04:48:303
0.4881,9.8498,1.0687,-0.121,-0.0799,0.3528,0.0549,0.0261,-0.0075,2288,2019-08-07 17:04:48:308
0.4977,9.7639,1.2762,-0.121,-0.0799,0.3528,0.0549,0.0261,-0.0075,2292,2019-08-07 17:04:48:312
0.4977,9.7639,1.2762,-0.121,-0.0799,0.3528,0.0634,0.0261,-0.0149,2298,2019-08-07 17:04:48:318
0.4355,9.8737,1.0923,-0.121,-0.0799,0.3528,0.0634,0.0261,-0.0149,2302,2019-08-07 17:04:48:322
0.4355,9.8737,1.0923,-0.121,-0.0799,0.3528,0.0634,0.0261,-0.0149,2308,2019-08-07 17:04:48:328
0.4355,9.8737,1.0923,0.0055,-0.1393,0.6107,0.0624,0.0548,-0.0075,2313,2019-08-07 17:04:48:333
0.3685,9.8259,0.9273,0.0055,-0.1393,0.6107,0.0624,0.0548,-0.0075,2318,2019-08-07 17:04:48:338
0.3685,9.8259,0.9273,0.0055,-0.1393,0.6107,0.0538,0.1241,-0.0021,2322,2019-08-07 17:04:48:342
0.1532,10.0599,1.0923,0.25,-0.342,0.4494,0.0538,0.1241,-0.0021,2328,2019-08-07 17:04:48:348
0.1532,10.0599,1.0923,0.25,-0.342,0.4494,0.0507,0.1049,0.0096,2333,2019-08-07 17:04:48:353
0.1532,10.0599,1.0923,0.25,-0.342,0.4494,0.0507,0.1049,0.0096,2338,2019-08-07 17:04:48:358
-0.0908,9.74,1.1253,0.25,-0.342,0.4494,0.0507,0.1049,0.0096,2343,2019-08-07 17:04:48:363
-0.0908,9.74,1.1253,0.25,-0.342,0.4494,0.0538,0.0612,0.0266,2348,2019-08-07 17:04:48:368
-0.0908,9.74,1.1253,0.4671,-0.1917,0.4877,0.0538,0.0612,0.0266,2352,2019-08-07 17:04:48:372
-0.1625,9.9787,0.9839,0.4671,-0.1917,0.4877,0.0517,0.0186,0.033,2358,2019-08-07 17:04:48:378
-0.1625,9.9787,0.9839,0.482,-0.3529,0.5888,0.0517,0.0186,0.033,2363,2019-08-07 17:04:48:383
-0.0285,9.9405,1.0876,0.482,-0.3529,0.5888,0.0581,-0.0112,0.0426,2368,2019-08-07 17:04:48:388
-0.0285,9.9405,1.0876,0.482,-0.3529,0.5888,0.0581,-0.0112,0.0426,2373,2019-08-07 17:04:48:393
-0.0285,9.9405,1.0876,0.482,-0.3529,0.5888,0.0656,-0.0538,0.0479,2378,2019-08-07 17:04:48:398
0.426,9.7878,1.163,-0.0564,-0.1026,0.3526,0.0656,-0.0538,0.0479,2383,2019-08-07 17:04:48:403
0.426,9.7878,1.163,-0.0564,-0.1026,0.3526,0.0656,-0.0538,0.0479,2387,2019-08-07 17:04:48:407
0.426,9.7878,1.163,-0.0564,-0.1026,0.3526,0.0709,-0.0837,0.0309,2393,2019-08-07 17:04:48:413
0.9235,9.7925,0.9981,-0.0564,-0.1026,0.3526,0.0709,-0.0837,0.0309,2397,2019-08-07 17:04:48:417
0.9235,9.7925,0.9981,-0.7041,-0.2052,0.8619,0.0656,-0.0208,0.0192,2403,2019-08-07 17:04:48:423
0.9235,9.7925,0.9981,-0.7041,-0.2052,0.8619,0.0656,-0.0208,0.0192,2407,2019-08-07 17:04:48:427
0.9523,9.9405,0.2768,-0.5669,-0.2515,1.2103,0.0262,0.1273,-0.0043,2413,2019-08-07 17:04:48:433
0.9523,9.9405,0.2768,-0.5669,-0.2515,1.2103,0.0262,0.1273,-0.0043,2417,2019-08-07 17:04:48:437
0.9523,9.9405,0.2768,-0.5669,-0.2515,1.2103,-0.0122,0.2359,-0.0245,2423,2019-08-07 17:04:48:443
0.3351,10.0264,0.9792,-0.5669,-0.2515,1.2103,-0.0122,0.2359,-0.0245,2427,2019-08-07 17:04:48:447
0.3351,10.0264,0.9792,0.1892,-0.3078,0.3621,-0.0069,0.139,-0.0266,2432,2019-08-07 17:04:48:452
0.1103,10.0026,1.196,0.1892,-0.3078,0.3621,-0.0069,0.139,-0.0266,2438,2019-08-07 17:04:48:458
0.1103,10.0026,1.196,0.1892,-0.3078,0.3621,-0.0069,0.139,-0.0266,2442,2019-08-07 17:04:48:462
0.1103,10.0026,1.196,0.1892,-0.3078,0.3621,-0.0037,0.009,-0.0245,2448,2019-08-07 17:04:48:468
0.1533,10.0408,0.8284,0.214,-0.35,0.6519,-0.0037,0.009,-0.0245,2453,2019-08-07 17:04:48:473
0.1533,10.0408,0.8284,0.214,-0.35,0.6519,-0.009,-0.0198,-0.0277,2458,2019-08-07 17:04:48:478
0.4212,9.8641,0.9179,-0.0562,-0.173,0.5605,-0.009,-0.0198,-0.0277,2463,2019-08-07 17:04:48:483
0.4212,9.8641,0.9179,-0.0562,-0.173,0.5605,-0.0143,-0.008,-0.0192,2468,2019-08-07 17:04:48:488
0.4212,9.8641,0.9179,-0.0562,-0.173,0.5605,-0.0143,-0.008,-0.0192,2473,2019-08-07 17:04:48:493
0.5696,9.9596,0.8519,-0.0562,-0.173,0.5605,-0.0058,-0.0027,-0.0235,2478,2019-08-07 17:04:48:498
0.5696,9.9596,0.8519,-0.1257,-0.2967,0.7892,-0.0058,-0.0027,-0.0235,2482,2019-08-07 17:04:48:502
0.5696,9.9596,0.8519,-0.1257,-0.2967,0.7892,-0.0431,0.0378,-0.0341,2488,2019-08-07 17:04:48:508
0.4021,10.0837,0.8519,-0.1257,-0.2967,0.7892,-0.0431,0.0378,-0.0341,2493,2019-08-07 17:04:48:513
0.4021,10.0837,0.8519,-0.1257,-0.2967,0.7892,-0.0399,0.0878,-0.0352,2498,2019-08-07 17:04:48:518
0.3352,10.0217,1.0405,0.1057,-0.2729,0.5182,-0.0399,0.0878,-0.0352,2503,2019-08-07 17:04:48:523
0.3352,10.0217,1.0405,0.1057,-0.2729,0.5182,-0.0505,0.0633,-0.0373,2508,2019-08-07 17:04:48:528
0.3352,10.0217,1.0405,0.1057,-0.2729,0.5182,-0.0505,0.0633,-0.0373,2513,2019-08-07 17:04:48:533
0.0098,10.0742,0.9415,0.1057,-0.2729,0.5182,-0.0495,0.0388,-0.0341,2517,2019-08-07 17:04:48:537
0.0098,10.0742,0.9415,0.3104,-0.2305,0.463,-0.0495,0.0388,-0.0341,2523,2019-08-07 17:04:48:543
0.139,9.8689,1.1159,0.3104,-0.2305,0.463,-0.0527,0.0133,-0.0256,2527,2019-08-07 17:04:48:547
0.139,9.8689,1.1159,0.3104,-0.2305,0.463,-0.0527,0.0133,-0.0256,2533,2019-08-07 17:04:48:553
0.139,9.8689,1.1159,0.3104,-0.2305,0.463,-0.0527,0.0133,-0.0256,2537,2019-08-07 17:04:48:557
0.139,9.8689,1.1159,0.0171,-0.198,0.2487,-0.0463,-0.0496,-0.0213,2543,2019-08-07 17:04:48:563
0.3208,9.888,1.2432,0.0171,-0.198,0.2487,-0.0463,-0.0496,-0.0213,2548,2019-08-07 17:04:48:568
0.3208,9.888,1.2432,0.0171,-0.198,0.2487,-0.0378,-0.0613,-0.0203,2553,2019-08-07 17:04:48:573
0.3208,9.888,1.2432,0.0171,-0.198,0.2487,-0.0378,-0.0613,-0.0203,2557,2019-08-07 17:04:48:577
0.5074,9.8116,1.0641,-0.2189,-0.0935,0.4458,-0.0292,-0.0368,-0.0266,2563,2019-08-07 17:04:48:583
0.5074,9.8116,1.0641,-0.2189,-0.0935,0.4458,-0.0292,-0.0368,-0.0266,2568,2019-08-07 17:04:48:588
0.4644,9.8975,1.1018,-0.2189,-0.0935,0.4458,-0.0346,0.0069,-0.032,2573,2019-08-07 17:04:48:593
0.4644,9.8975,1.1018,-0.2189,-0.0935,0.4458,-0.0346,0.0069,-0.032,2578,2019-08-07 17:04:48:598
0.4644,9.8975,1.1018,-0.1085,-0.2561,0.2838,-0.025,0.0069,-0.0384,2583,2019-08-07 17:04:48:603
0.3735,9.8784,1.1112,-0.1085,-0.2561,0.2838,-0.025,0.0069,-0.0384,2588,2019-08-07 17:04:48:608
0.3735,9.8784,1.1112,-0.0357,-0.2323,0.3555,-0.0229,-0.0144,-0.0416,2593,2019-08-07 17:04:48:613
0.3735,9.8784,1.1112,-0.0357,-0.2323,0.3555,-0.0229,-0.0144,-0.0416,2598,2019-08-07 17:04:48:618
0.4835,9.9309,1.2055,-0.0357,-0.2323,0.3555,-0.0229,-0.0144,-0.0416,2602,2019-08-07 17:04:48:622
0.4835,9.9309,1.2055,-0.0357,-0.2323,0.3555,-0.0047,-0.0027,-0.0565,2608,2019-08-07 17:04:48:628
0.273,9.8928,1.0782,-0.0017,-0.2366,0.3358,-0.0047,-0.0027,-0.0565,2613,2019-08-07 17:04:48:633
0.273,9.8928,1.0782,-0.0017,-0.2366,0.3358,-0.0058,0.0026,-0.0437,2618,2019-08-07 17:04:48:638
0.273,9.8928,1.0782,-0.0017,-0.2366,0.3358,-0.0058,0.0026,-0.0437,2622,2019-08-07 17:04:48:642
0.407,9.8546,1.2903,-0.0017,-0.2366,0.3358,0.0059,-0.0272,-0.048,2628,2019-08-07 17:04:48:648
0.407,9.8546,1.2903,-0.0338,-0.2455,0.5452,0.0059,-0.0272,-0.048,2633,2019-08-07 17:04:48:653
0.407,9.8546,1.2903,-0.0338,-0.2455,0.5452,0.0059,-0.0272,-0.048,2638,2019-08-07 17:04:48:658
0.2922,9.95,0.8755,-0.0338,-0.2455,0.5452,0.0017,0.0058,-0.0554,2643,2019-08-07 17:04:48:663
0.2922,9.95,0.8755,0.0998,-0.2591,0.6174,0.0017,0.0058,-0.0554,2648,2019-08-07 17:04:48:668
0.2252,9.8737,1.2998,0.0998,-0.2591,0.6174,-0.0047,0.0346,-0.0511,2653,2019-08-07 17:04:48:673
0.2252,9.8737,1.2998,0.0998,-0.2591,0.6174,-0.0047,0.0346,-0.0511,2658,2019-08-07 17:04:48:678
0.2252,9.8737,1.2998,0.0166,-0.1773,0.2429,0.0027,0.0047,-0.0511,2663,2019-08-07 17:04:48:683
0.187,9.8832,1.2479,0.0166,-0.1773,0.2429,0.0027,0.0047,-0.0511,2668,2019-08-07 17:04:48:688
0.187,9.8832,1.2479,0.0166,-0.1773,0.2429,0.0198,-0.0517,-0.0458,2672,2019-08-07 17:04:48:692
0.2922,9.888,0.9651,0.0166,-0.1773,0.2429,0.0198,-0.0517,-0.0458,2678,2019-08-07 17:04:48:698
0.2922,9.888,0.9651,-0.097,-0.2333,0.5424,0.0123,-0.024,-0.0458,2682,2019-08-07 17:04:48:702
0.2922,9.888,0.9651,-0.097,-0.2333,0.5424,0.0123,-0.024,-0.0458,2688,2019-08-07 17:04:48:708
0.364,9.9262,1.0075,-0.097,-0.2333,0.5424,0.0059,0.0079,-0.0543,2693,2019-08-07 17:04:48:713
0.364,9.9262,1.0075,-0.097,-0.2333,0.5424,0.0059,0.0079,-0.0543,2698,2019-08-07 17:04:48:718
0.1631,9.9166,1.05,0.113,-0.2226,0.4282,0.0059,0.0079,-0.0543,2703,2019-08-07 17:04:48:723
0.1631,9.9166,1.05,0.113,-0.2226,0.4282,0.008,0.0047,-0.0448,2708,2019-08-07 17:04:48:728
0.1631,9.9166,1.05,0.113,-0.2226,0.4282,0.008,0.0047,-0.0448,2712,2019-08-07 17:04:48:732
0.1727,9.8689,1.1301,0.0987,-0.1743,0.3456,0.0134,-0.0315,-0.0448,2718,2019-08-07 17:04:48:738
0.1727,9.8689,1.1301,0.0987,-0.1743,0.3456,0.0134,-0.0315,-0.0448,2722,2019-08-07 17:04:48:742
0.2636,9.9118,1.0452,0.0987,-0.1743,0.3456,0.007,-0.0432,-0.0458,2728,2019-08-07 17:04:48:748
0.2636,9.9118,1.0452,0.0987,-0.1743,0.3456,0.007,-0.0432,-0.0458,2733,2019-08-07 17:04:48:753
0.2636,9.9118,1.0452,0.0477,-0.221,0.5475,-0.0026,-0.023,-0.0352,2738,2019-08-07 17:04:48:758
0.2636,9.9118,1.0452,0.0477,-0.221,0.5475,-0.0026,-0.023,-0.0352,2742,2019-08-07 17:04:48:762
0.2253,9.9118,0.984,0.0477,-0.221,0.5475,-0.0026,-0.023,-0.0352,2748,2019-08-07 17:04:48:768
0.2253,9.9118,0.984,0.0477,-0.221,0.5475,-0.0037,-0.0176,-0.0373,2752,2019-08-07 17:04:48:772
0.2253,9.9118,0.984,0.0311,-0.2108,0.2853,-0.0037,-0.0176,-0.0373,2758,2019-08-07 17:04:48:778
0.1966,9.8832,1.1254,0.0311,-0.2108,0.2853,-0.0047,-0.0304,-0.0416,2763,2019-08-07 17:04:48:783
0.1966,9.8832,1.1254,0.0272,-0.2248,0.4443,-0.0047,-0.0304,-0.0416,2767,2019-08-07 17:04:48:787
0.1966,9.8832,1.1254,0.0272,-0.2248,0.4443,-0.0047,-0.0304,-0.0416,2773,2019-08-07 17:04:48:793
0.2062,9.9548,0.9745,0.0272,-0.2248,0.4443,-0.0026,-0.0283,-0.0384,2777,2019-08-07 17:04:48:797
0.2062,9.9548,0.9745,0.0272,-0.2248,0.4443,-0.0026,-0.0283,-0.0384,2783,2019-08-07 17:04:48:803
0.2062,9.9548,0.9745,-0.0468,-0.2241,0.3844,-5.0E-4,-0.0144,-0.0373,2787,2019-08-07 17:04:48:807
0.2062,9.9548,0.9745,-0.0468,-0.2241,0.3844,-5.0E-4,-0.0144,-0.0373,2793,2019-08-07 17:04:48:813
0.3115,9.8927,1.1631,-0.06,-0.2191,0.3734,0.0038,-0.0155,-0.0469,2798,2019-08-07 17:04:48:818
0.3115,9.8927,1.1631,-0.06,-0.2191,0.3734,0.0038,-0.0155,-0.0469,2802,2019-08-07 17:04:48:822
0.2206,9.8689,0.8756,-0.06,-0.2191,0.3734,0.0059,0.0015,-0.048,2808,2019-08-07 17:04:48:828
0.2206,9.8689,0.8756,-0.06,-0.2191,0.3734,0.0059,0.0015,-0.048,2812,2019-08-07 17:04:48:832
0.2206,9.8689,0.8756,0.046,-0.2038,0.4346,-0.0069,0.0207,-0.0458,2817,2019-08-07 17:04:48:837
0.1058,9.9023,1.0971,0.046,-0.2038,0.4346,-0.0069,0.0207,-0.0458,2823,2019-08-07 17:04:48:843
0.1058,9.9023,1.0971,0.0268,-0.3323,0.8243,-0.0133,-0.0549,-0.0448,2828,2019-08-07 17:04:48:848
0.4072,8.8091,8.3705,0.0268,-0.3323,0.8243,-0.0133,-0.0549,-0.0448,2833,2019-08-07 17:04:48:853
0.4072,8.8091,8.3705,0.0268,-0.3323,0.8243,0.2861,-0.6376,-0.1225,2837,2019-08-07 17:04:48:857
0.4072,8.8091,8.3705,0.0268,-0.3323,0.8243,0.2861,-0.6376,-0.1225,2843,2019-08-07 17:04:48:863
0.1919,10.7807,-2.0659,0.0401,-1.0807,3.5127,0.2861,-0.6376,-0.1225,2848,2019-08-07 17:04:48:868
0.1919,10.7807,-2.0659,0.0401,-1.0807,3.5127,-0.0037,-0.3756,-0.0043,2852,2019-08-07 17:04:48:872
0.1919,10.7807,-2.0659,0.0401,-1.0807,3.5127,-0.0037,-0.3756,-0.0043,2858,2019-08-07 17:04:48:878
1.4789,9.6063,0.9086,0.0401,-1.0807,3.5127,-0.0814,0.1496,-0.0405,2862,2019-08-07 17:04:48:882
1.4789,9.6063,0.9086,-0.0522,-0.5701,0.2228,-0.0814,0.1496,-0.0405,2868,2019-08-07 17:04:48:888
0.1105,9.8689,1.2055,-0.0522,-0.5701,0.2228,-0.0079,0.2008,-0.049,2872,2019-08-07 17:04:48:892
0.1105,9.8689,1.2055,0.0349,-0.0684,0.4146,-0.0079,0.2008,-0.049,2878,2019-08-07 17:04:48:898
0.1105,9.8689,1.2055,0.0349,-0.0684,0.4146,0.0038,0.2966,-0.0543,2882,2019-08-07 17:04:48:902
0.101,10.0789,0.8237,0.0349,-0.0684,0.4146,0.0038,0.2966,-0.0543,2888,2019-08-07 17:04:48:908
0.101,10.0789,0.8237,0.0349,-0.0684,0.4146,0.0155,0.4181,-0.0479,2893,2019-08-07 17:04:48:913
0.1967,9.845,0.8709,0.0342,-0.1723,0.542,0.0155,0.4181,-0.0479,2898,2019-08-07 17:04:48:918
0.1967,9.845,0.8709,0.0342,-0.1723,0.542,0.0155,0.4181,-0.0479,2903,2019-08-07 17:04:48:923
0.1967,9.845,0.8709,0.0342,-0.1723,0.542,-0.0026,0.499,-0.032,2908,2019-08-07 17:04:48:928
0.0771,9.9023,1.2951,0.0342,-0.1723,0.542,-0.0026,0.499,-0.032,2913,2019-08-07 17:04:48:933
0.0771,9.9023,1.2951,0.3908,-0.1911,-0.5881,-0.0505,0.1794,-0.0426,2918,2019-08-07 17:04:48:938
-0.3965,9.8355,2.1342,0.3908,-0.1911,-0.5881,-0.0505,0.1794,-0.0426,2923,2019-08-07 17:04:48:943
-0.3965,9.8355,2.1342,0.3908,-0.1911,-0.5881,0.04,-0.0815,-0.0405,2928,2019-08-07 17:04:48:948
-0.3965,9.8355,2.1342,0.3908,-0.1911,-0.5881,0.04,-0.0815,-0.0405,2932,2019-08-07 17:04:48:952
0.1249,9.993,0.7012,0.0506,-0.2909,0.7391,0.0315,-0.1433,-0.0203,2938,2019-08-07 17:04:48:958
0.1249,9.993,0.7012,0.0506,-0.2909,0.7391,0.0315,-0.1433,-0.0203,2942,2019-08-07 17:04:48:962
0.1249,9.993,0.7012,-0.2745,-0.2042,0.7762,0.0091,-0.0506,-0.0224,2948,2019-08-07 17:04:48:968
0.4551,9.9739,0.6446,-0.2745,-0.2042,0.7762,0.0091,-0.0506,-0.0224,2953,2019-08-07 17:04:48:973
0.4551,9.9739,0.6446,-0.2745,-0.2042,0.7762,-0.0197,0.0676,-0.0288,2958,2019-08-07 17:04:48:978