ACCELEROMETER X (m/s²),ACCELEROMETER Y (m/s²),ACCELEROMETER Z (m/s²),LINEAR ACCELERATION X (m/s²),LINEAR ACCELERATION Y (m/s²),LINEAR ACCELERATION Z (m/s²),GYROSCOPE X (rad/s),GYROSCOPE Y (rad/s),GYROSCOPE Z (rad/s),Time since start in ms ,YYYY-MO-DD HH-MI-SS_SSS
0.2512,10.1069,0.3349,0.0866,-0.2966,0.3803,0.0432,0.0026,-0.0085,2,2019-08-07 17:05:37:015
0.2991,9.9923,0.1888,0.0866,-0.2966,0.3803,0.0443,-0.0294,-0.0106,8,2019-08-07 17:05:37:021
0.2991,9.9923,0.1888,0.0866,-0.2966,0.3803,0.0443,-0.0294,-0.0106,12,2019-08-07 17:05:37:025
0.2991,9.9923,0.1888,-0.016,-0.1716,0.5465,0.0357,-0.0368,-0.0117,18,2019-08-07 17:05:37:031
0.323,9.9923,0.1841,-0.016,-0.1716,0.5465,0.0357,-0.0368,-0.0117,23,2019-08-07 17:05:37:036
0.323,9.9923,0.1841,-0.016,-0.1716,0.5465,0.0357,-0.0368,-0.0117,28,2019-08-07 17:05:37:041
0.323,9.9923,0.1841,-0.016,-0.1716,0.5465,0.0293,-0.0368,-0.0128,32,2019-08-07 17:05:37:045
0.2369,10.0353,0.2453,-0.016,-0.1716,0.5465,0.0293,-0.0368,-0.0128,38,2019-08-07 17:05:37:051
0.2369,10.0353,0.2453,0.1017,-0.2233,0.4471,0.0197,-0.024,-0.0053,42,2019-08-07 17:05:37:055
0.1795,9.9446,0.4386,0.1017,-0.2233,0.4471,0.0197,-0.024,-0.0053,48,2019-08-07 17:05:37:061
0.1795,9.9446,0.4386,0.1017,-0.2233,0.4471,0.0197,-0.0358,-0.0085,52,2019-08-07 17:05:37:065
0.1795,9.9446,0.4386,0.1017,-0.2233,0.4471,0.0197,-0.0358,-0.0085,58,2019-08-07 17:05:37:071
0.2082,9.9541,0.3208,0.076,-0.1703,0.3371,0.0219,-0.0635,-0.0042,63,2019-08-07 17:05:37:076
0.2082,9.9541,0.3208,0.076,-0.1703,0.3371,0.0219,-0.0635,-0.0042,68,2019-08-07 17:05:37:081
0.213,10.0544,0.3255,0.0707,-0.2703,0.3287,0.0219,-0.0635,-0.0042,73,2019-08-07 17:05:37:086
0.213,10.0544,0.3255,0.0707,-0.2703,0.3287,0.024,-0.0698,-0.0096,78,2019-08-07 17:05:37:091
0.213,10.0544,0.3255,0.0707,-0.2703,0.3287,0.024,-0.0698,-0.0096,83,2019-08-07 17:05:37:096
0.304,9.9303,0.2595,0.0707,-0.2703,0.3287,0.024,-0.0592,-0.0149,87,2019-08-07 17:05:37:100
0.304,9.9303,0.2595,-0.055,-0.1695,0.4429,0.024,-0.0592,-0.0149,93,2019-08-07 17:05:37:106
0.3949,9.978,0.2689,-0.055,-0.1695,0.4429,0.0166,-0.0485,-0.0223,97,2019-08-07 17:05:37:110
0.3949,9.978,0.2689,-0.055,-0.1695,0.4429,0.0166,-0.0485,-0.0223,103,2019-08-07 17:05:37:116
0.3949,9.978,0.2689,-0.055,-0.1695,0.4429,0.0187,-0.0539,-0.0298,107,2019-08-07 17:05:37:120
0.4667,10.0401,0.3255,-0.1874,-0.2549,0.3138,0.0187,-0.0539,-0.0298,113,2019-08-07 17:05:37:126
0.4667,10.0401,0.3255,-0.1874,-0.2549,0.3138,0.0229,-0.0656,-0.0298,118,2019-08-07 17:05:37:131
0.4667,10.0401,0.3255,-0.1874,-0.2549,0.3138,0.0229,-0.0656,-0.0298,123,2019-08-07 17:05:37:136
0.5336,9.9255,0.2124,-0.1874,-0.2549,0.3138,0.0144,-0.056,-0.0373,128,2019-08-07 17:05:37:141
0.5336,9.9255,0.2124,-0.134,-0.154,0.4287,0.0144,-0.056,-0.0373,132,2019-08-07 17:05:37:145
0.3614,9.978,0.3773,-0.134,-0.154,0.4287,0.007,-0.0432,-0.0426,138,2019-08-07 17:05:37:151
0.3614,9.978,0.3773,-0.134,-0.154,0.4287,0.007,-0.0432,-0.0426,142,2019-08-07 17:05:37:155
0.3614,9.978,0.3773,-0.134,-0.154,0.4287,0.0134,-0.0826,-0.0458,148,2019-08-07 17:05:37:161
0.4236,9.9971,0.3773,-0.1554,-0.2109,0.2504,0.0134,-0.0826,-0.0458,152,2019-08-07 17:05:37:165
0.4236,9.9971,0.3773,-0.1554,-0.2109,0.2504,0.0155,-0.0922,-0.0532,157,2019-08-07 17:05:37:170
0.3471,10.0401,-0.0469,-0.1554,-0.2109,0.2504,0.0155,-0.0922,-0.0532,163,2019-08-07 17:05:37:176
0.3471,10.0401,-0.0469,-0.1554,-0.2109,0.2504,0.0155,-0.0922,-0.0532,168,2019-08-07 17:05:37:181
0.3471,10.0401,-0.0469,-0.0305,-0.2579,0.6534,-0.0079,-0.0251,-0.0596,173,2019-08-07 17:05:37:186
0.2466,10.0257,0.1087,-0.0305,-0.2579,0.6534,-0.0079,-0.0251,-0.0596,178,2019-08-07 17:05:37:191
0.2466,10.0257,0.1087,0.0067,-0.1575,0.3369,-0.0122,0.0111,-0.0607,183,2019-08-07 17:05:37:196
0.1558,9.8443,0.3491,0.0067,-0.1575,0.3369,-0.0122,0.0111,-0.0607,188,2019-08-07 17:05:37:201
0.1558,9.8443,0.3491,0.0067,-0.1575,0.3369,-0.0122,0.0111,-0.0607,192,2019-08-07 17:05:37:205
0.1558,9.8443,0.3491,0.0067,-0.1575,0.3369,-0.0175,-0.0144,-0.0575,198,2019-08-07 17:05:37:211
0.0409,10.0496,0.1417,0.1902,-0.2956,0.5117,-0.0175,-0.0144,-0.0575,202,2019-08-07 17:05:37:215
0.0409,10.0496,0.1417,0.1902,-0.2956,0.5117,-0.0314,-0.0262,-0.0543,208,2019-08-07 17:05:37:221
0.0409,10.0496,0.1417,0.1902,-0.2956,0.5117,-0.0314,-0.0262,-0.0543,213,2019-08-07 17:05:37:226
0.0601,10.0496,0.3019,0.1902,-0.2956,0.5117,-0.0314,-0.0528,-0.0554,218,2019-08-07 17:05:37:231
0.0601,10.0496,0.3019,0.0777,-0.2143,0.1893,-0.0314,-0.0528,-0.0554,222,2019-08-07 17:05:37:235
0.261,9.9589,0.2595,0.0777,-0.2143,0.1893,-0.0282,-0.1082,-0.0554,228,2019-08-07 17:05:37:241
0.261,9.9589,0.2595,0.0777,-0.2143,0.1893,-0.0282,-0.1082,-0.0554,233,2019-08-07 17:05:37:246
0.261,9.9589,0.2595,0.0777,-0.2143,0.1893,-0.0388,-0.1135,-0.0649,237,2019-08-07 17:05:37:250
0.3615,9.9875,-0.061,-0.1665,-0.2286,0.6532,-0.0388,-0.1135,-0.0649,243,2019-08-07 17:05:37:256
0.3615,9.9875,-0.061,-0.1665,-0.2286,0.6532,-0.0623,-0.0677,-0.0756,247,2019-08-07 17:05:37:260
0.4811,10.0019,0.1323,-0.1665,-0.2286,0.6532,-0.0623,-0.0677,-0.0756,253,2019-08-07 17:05:37:266
0.4811,10.0019,0.1323,-0.1665,-0.2286,0.6532,-0.0623,-0.0677,-0.0756,258,2019-08-07 17:05:37:271
0.4811,10.0019,0.1323,-0.1797,-0.2241,0.6383,-0.0836,-0.0496,-0.0916,263,2019-08-07 17:05:37:276
0.3472,10.0209,-0.0657,-0.1797,-0.2241,0.6383,-0.0836,-0.0496,-0.0916,268,2019-08-07 17:05:37:281
0.3472,10.0209,-0.0657,-0.1797,-0.2241,0.6383,-0.0942,0.0026,-0.1012,272,2019-08-07 17:05:37:285
-0.002,10.0305,0.3632,-0.1797,-0.2241,0.6383,-0.1017,0.0409,-0.098,278,2019-08-07 17:05:37:291
-0.002,10.0305,0.3632,0.1782,-0.1865,0.0266,-0.1017,0.0409,-0.098,282,2019-08-07 17:05:37:295
-0.002,10.0305,0.3632,0.1782,-0.1865,0.0266,-0.1017,0.0409,-0.098,288,2019-08-07 17:05:37:301
0.1702,9.8252,0.8393,0.1782,-0.1865,0.0266,-0.0719,-0.0208,-0.0937,292,2019-08-07 17:05:37:305
0.1702,9.8252,0.8393,0.1782,-0.1865,0.0266,-0.0719,-0.0208,-0.0937,298,2019-08-07 17:05:37:311
0.1702,9.8252,0.8393,0.0163,-0.1346,0.2717,-0.0474,-0.0826,-0.0884,302,2019-08-07 17:05:37:315
0.1224,9.9207,0.1935,0.0163,-0.1346,0.2717,-0.0474,-0.0826,-0.0884,308,2019-08-07 17:05:37:321
0.1224,9.9207,0.1935,0.0163,-0.1346,0.2717,-0.0516,-0.0272,-0.0831,313,2019-08-07 17:05:37:326
0.0076,10.0448,0.2737,0.0163,-0.1346,0.2717,-0.0516,-0.0272,-0.0831,318,2019-08-07 17:05:37:331
0.0076,10.0448,0.2737,0.2096,-0.1777,0.1752,-0.0612,0.0377,-0.0852,322,2019-08-07 17:05:37:335
0.0076,10.0448,0.2737,0.2096,-0.1777,0.1752,-0.0612,0.0377,-0.0852,328,2019-08-07 17:05:37:341
-0.0546,9.8729,0.7026,0.2096,-0.1777,0.1752,-0.0612,0.0377,-0.0852,332,2019-08-07 17:05:37:345
-0.0546,9.8729,0.7026,0.2096,-0.1777,0.1752,-0.0367,-0.0134,-0.0873,338,2019-08-07 17:05:37:351
0.1894,9.8682,0.5989,-0.0574,-0.0825,0.0793,-0.0367,-0.0134,-0.0873,342,2019-08-07 17:05:37:355
0.1894,9.8682,0.5989,-0.0574,-0.0825,0.0793,-0.0026,-0.0922,-0.0937,348,2019-08-07 17:05:37:361
0.1894,9.8682,0.5989,-0.0574,-0.0825,0.0793,-0.0026,-0.0922,-0.0937,353,2019-08-07 17:05:37:366
0.51,9.9255,0.2548,-0.0574,-0.0825,0.0793,-0.0037,-0.0421,-0.1129,357,2019-08-07 17:05:37:370
0.51,9.9255,0.2548,-0.4093,-0.0822,0.3174,-0.0037,-0.0421,-0.1129,363,2019-08-07 17:05:37:376
0.51,9.9255,0.2548,-0.4093,-0.0822,0.3174,-0.0037,-0.0421,-0.1129,368,2019-08-07 17:05:37:381
0.51,9.83,0.401,-0.4093,-0.0822,0.3174,-0.0048,0.0154,-0.1225,373,2019-08-07 17:05:37:386
0.51,9.83,0.401,-0.4093,-0.0822,0.3174,-0.0048,0.0154,-0.1225,378,2019-08-07 17:05:37:391
0.3425,9.9016,0.4905,-0.4093,-0.0822,0.3174,-0.0037,0.0377,-0.1299,383,2019-08-07 17:05:37:396
0.3425,9.9016,0.4905,-0.1685,-0.1392,0.1752,-0.0037,0.0377,-0.1299,387,2019-08-07 17:05:37:400
0.3425,9.9016,0.4905,-0.1685,-0.1392,0.1752,-0.0037,0.0314,-0.1427,393,2019-08-07 17:05:37:406
0.132,10.0496,0.5424,-0.1685,-0.1392,0.1752,-0.0037,0.0314,-0.1427,397,2019-08-07 17:05:37:410
0.132,10.0496,0.5424,-0.1685,-0.1392,0.1752,-0.0037,0.0314,-0.1427,403,2019-08-07 17:05:37:416
0.0842,9.9684,0.4387,0.0236,-0.1962,0.2269,-0.0111,0.0186,-0.1512,407,2019-08-07 17:05:37:420
0.0842,9.9684,0.4387,0.0236,-0.1962,0.2269,-0.0111,0.0186,-0.1512,413,2019-08-07 17:05:37:426
0.0842,9.9684,0.4387,-0.0298,-0.2964,0.3306,-0.0175,0.0314,-0.1555,417,2019-08-07 17:05:37:430
0.0029,10.145,0.2407,-0.0298,-0.2964,0.3306,-0.0175,0.0314,-0.1555,423,2019-08-07 17:05:37:436
0.0029,10.145,0.2407,-0.0298,-0.2964,0.3306,-0.058,0.0527,-0.1566,428,2019-08-07 17:05:37:441
-0.0832,10.0066,0.1134,-0.0298,-0.2964,0.3306,-0.058,0.0527,-0.1566,433,2019-08-07 17:05:37:446
-0.0832,10.0066,0.1134,0.1148,-0.2297,0.4956,-0.058,0.0527,-0.1566,438,2019-08-07 17:05:37:451
-0.0832,10.0066,0.1134,0.1148,-0.2297,0.4956,-0.0857,0.0836,-0.1587,442,2019-08-07 17:05:37:455
-0.0497,9.8109,0.4528,0.1148,-0.2297,0.4956,-0.0857,0.0836,-0.1587,448,2019-08-07 17:05:37:461
-0.0497,9.8109,0.4528,0.1148,-0.2297,0.4956,-0.1177,0.0857,-0.1725,453,2019-08-07 17:05:37:466
-0.0497,9.8109,0.4528,-0.0441,0.2512,0.2065,-0.1177,0.0857,-0.1725,458,2019-08-07 17:05:37:471
0.0938,9.5054,0.599,-0.0441,0.2512,0.2065,-0.0825,0.107,-0.1725,463,2019-08-07 17:05:37:476
0.0938,9.5054,0.599,-0.0441,0.2512,0.2065,-0.0825,0.107,-0.1725,467,2019-08-07 17:05:37:480
0.1369,9.744,0.8017,-0.0441,0.2512,0.2065,-0.0197,0.124,-0.1491,473,2019-08-07 17:05:37:486
0.1369,9.744,0.8017,-0.1818,0.045,-0.0929,-0.0197,0.124,-0.1491,477,2019-08-07 17:05:37:490
0.1369,9.744,0.8017,-0.1818,0.045,-0.0929,0.0112,0.1485,-0.1278,483,2019-08-07 17:05:37:496
0.0365,9.9016,0.5424,-0.1818,0.045,-0.0929,0.0112,0.1485,-0.1278,487,2019-08-07 17:05:37:500
0.0365,9.9016,0.5424,-0.1818,0.045,-0.0929,0.0506,0.2444,-0.1299,493,2019-08-07 17:05:37:506
-0.2267,10.0114,0.5141,0.1444,-0.1839,0.2496,0.0506,0.2444,-0.1299,497,2019-08-07 17:05:37:510
-0.2267,10.0114,0.5141,0.1444,-0.1839,0.2496,0.0773,0.2849,-0.1321,503,2019-08-07 17:05:37:516
-0.2267,10.0114,0.5141,0.1444,-0.1839,0.2496,0.0773,0.2849,-0.1321,507,2019-08-07 17:05:37:520
-0.4706,10.1021,0.8912,0.1444,-0.1839,0.2496,0.1146,0.237,-0.1235,513,2019-08-07 17:05:37:526
-0.4706,10.1021,0.8912,0.3664,-0.2498,-0.2621,0.1146,0.237,-0.1235,517,2019-08-07 17:05:37:530
-0.4706,10.1021,0.8912,0.3664,-0.2498,-0.2621,0.1561,0.1304,-0.1257,523,2019-08-07 17:05:37:536
-0.5567,10.0925,0.7357,0.3664,-0.2498,-0.2621,0.1561,0.1304,-0.1257,527,2019-08-07 17:05:37:540
-0.5567,10.0925,0.7357,0.3664,-0.2498,-0.2621,0.1561,0.1304,-0.1257,532,2019-08-07 17:05:37:545
-0.461,9.7631,0.4481,0.3228,-0.0428,0.1069,0.1891,0.0111,-0.1193,538,2019-08-07 17:05:37:551
-0.461,9.7631,0.4481,0.3228,-0.0428,0.1069,0.1891,0.0111,-0.1193,542,2019-08-07 17:05:37:555
-0.461,9.7631,0.4481,0.3228,-0.0428,0.1069,0.2126,-0.0496,-0.1076,548,2019-08-07 17:05:37:561
-0.1692,9.6151,0.5141,0.3228,-0.0428,0.1069,0.2126,-0.0496,-0.1076,552,2019-08-07 17:05:37:565
-0.1692,9.6151,0.5141,-0.1724,0.1697,0.022,0.2158,-0.0965,-0.1012,558,2019-08-07 17:05:37:571
0.1609,9.7822,0.5943,-0.1724,0.1697,0.022,0.2158,-0.0965,-0.1012,563,2019-08-07 17:05:37:576
0.1609,9.7822,0.5943,-0.1724,0.1697,0.022,0.2275,-0.1433,-0.1065,568,2019-08-07 17:05:37:581
0.1609,9.7822,0.5943,-0.1724,0.1697,0.022,0.2275,-0.1433,-0.1065,572,2019-08-07 17:05:37:585
0.1609,9.7822,0.5943,-0.5191,-0.1239,0.2887,0.2275,-0.1433,-0.1065,578,2019-08-07 17:05:37:591
0.2949,9.9923,0.2737,-0.5191,-0.1239,0.2887,0.2275,-0.1316,-0.1065,583,2019-08-07 17:05:37:596
0.2949,9.9923,0.2737,-0.5191,-0.1239,0.2887,0.2275,-0.1316,-0.1065,587,2019-08-07 17:05:37:600
0.0844,10.0925,-0.0468,-0.5191,-0.1239,0.2887,0.219,-0.0336,-0.1108,593,2019-08-07 17:05:37:606
0.0844,10.0925,-0.0468,-0.1067,-0.3602,0.4052,0.219,-0.0336,-0.1108,597,2019-08-07 17:05:37:610
0.0844,10.0925,-0.0468,-0.1067,-0.3602,0.4052,0.2221,0.009,-0.0905,603,2019-08-07 17:05:37:616
-0.26,10.0257,0.434,-0.1067,-0.3602,0.4052,0.2221,0.009,-0.0905,608,2019-08-07 17:05:37:621
-0.26,10.0257,0.434,-0.1067,-0.3602,0.4052,0.236,-0.039,-0.0788,613,2019-08-07 17:05:37:626
-0.5854,9.892,0.5377,0.3725,-0.0958,-0.0643,0.236,-0.039,-0.0788,618,2019-08-07 17:05:37:631
-0.5854,9.892,0.5377,0.3725,-0.0958,-0.0643,0.236,-0.039,-0.0788,622,2019-08-07 17:05:37:635
-0.5854,9.892,0.5377,0.3725,-0.0958,-0.0643,0.2498,-0.1402,-0.0767,628,2019-08-07 17:05:37:641
-0.7145,9.9732,0.1182,0.3725,-0.0958,-0.0643,0.2498,-0.1402,-0.0767,633,2019-08-07 17:05:37:646
-0.7145,9.9732,0.1182,0.3978,-0.0795,0.3796,0.2509,-0.1647,-0.0777,637,2019-08-07 17:05:37:650
-0.7145,9.9732,0.1182,0.3978,-0.0795,0.3796,0.2509,-0.1647,-0.0777,643,2019-08-07 17:05:37:656
-0.5279,9.8061,-0.0374,0.3978,-0.0795,0.3796,0.2477,-0.1529,-0.0756,648,2019-08-07 17:05:37:661
-0.5279,9.8061,-0.0374,0.3978,-0.0795,0.3796,0.2477,-0.1529,-0.0756,653,2019-08-07 17:05:37:666
-0.4418,9.6581,-0.1882,0.1947,0.1418,0.5577,0.2477,-0.1284,-0.082,658,2019-08-07 17:05:37:671
-0.4418,9.6581,-0.1882,0.1947,0.1418,0.5577,0.2477,-0.1284,-0.082,663,2019-08-07 17:05:37:676
-0.4418,9.6581,-0.1882,0.1947,0.1418,0.5577,0.2477,-0.1284,-0.082,667,2019-08-07 17:05:37:680
-0.2695,9.7631,-0.0609,0.1947,0.1418,0.5577,0.2381,-0.1018,-0.082,673,2019-08-07 17:05:37:686
-0.2695,9.7631,-0.0609,-0.1515,-0.0382,0.2904,0.2381,-0.1018,-0.082,678,2019-08-07 17:05:37:691
-0.2695,9.7631,-0.0609,-0.1515,-0.0382,0.2904,0.2296,-0.1125,-0.0905,682,2019-08-07 17:05:37:695
-0.0829,9.9445,-0.0562,-0.1515,-0.0382,0.2904,0.2296,-0.1125,-0.0905,688,2019-08-07 17:05:37:701
-0.0829,9.9445,-0.0562,-0.1515,-0.0382,0.2904,0.2253,-0.1295,-0.0894,693,2019-08-07 17:05:37:706
0.0654,9.9779,-0.2353,-0.3723,-0.1804,0.4636,0.2253,-0.1295,-0.0894,698,2019-08-07 17:05:37:711
0.0654,9.9779,-0.2353,-0.3723,-0.1804,0.4636,0.2232,-0.0954,-0.098,702,2019-08-07 17:05:37:715
0.2041,9.9779,-0.1835,-0.3723,-0.1804,0.4636,0.2232,-0.0954,-0.098,708,2019-08-07 17:05:37:721
0.2041,9.9779,-0.1835,-0.3723,-0.1804,0.4636,0.2211,-0.0784,-0.1054,712,2019-08-07 17:05:37:725
0.2041,9.9779,-0.1835,-0.5552,-0.0412,0.3459,0.2211,-0.0784,-0.1054,718,2019-08-07 17:05:37:731
0.2185,9.8204,-0.1788,-0.5552,-0.0412,0.3459,0.2211,-0.0784,-0.1054,722,2019-08-07 17:05:37:735
0.2185,9.8204,-0.1788,-0.5552,-0.0412,0.3459,0.2211,-0.073,-0.1033,728,2019-08-07 17:05:37:741
-0.0638,9.7011,-0.4286,-0.5552,-0.0412,0.3459,0.2104,-0.0464,-0.1139,733,2019-08-07 17:05:37:746
-0.0638,9.7011,-0.4286,-0.5552,-0.0412,0.3459,0.2104,-0.0464,-0.1139,738,2019-08-07 17:05:37:751
-0.0638,9.7011,-0.4286,-0.2098,0.131,0.5207,0.2104,-0.0464,-0.1139,743,2019-08-07 17:05:37:756
-0.1977,9.787,-0.0703,-0.2098,0.131,0.5207,0.1945,-0.0113,-0.1139,748,2019-08-07 17:05:37:761
-0.1977,9.787,-0.0703,-0.2098,0.131,0.5207,0.1945,-0.0113,-0.1139,752,2019-08-07 17:05:37:765
-0.1977,9.787,-0.0703,-0.2098,0.131,0.5207,0.1881,-0.0379,-0.1139,758,2019-08-07 17:05:37:771
-0.3651,10.0877,0.0994,0.0312,-0.2844,0.0379,0.1881,-0.0379,-0.1139,762,2019-08-07 17:05:37:775
-0.3651,10.0877,0.0994,0.0312,-0.2844,0.0379,0.1838,-0.0485,-0.1129,768,2019-08-07 17:05:37:781
-0.5134,10.1546,-0.5229,0.0312,-0.2844,0.0379,0.1838,-0.0485,-0.1129,773,2019-08-07 17:05:37:786
-0.5134,10.1546,-0.5229,0.0312,-0.2844,0.0379,0.1572,0.0175,-0.1161,778,2019-08-07 17:05:37:791
-0.5134,10.1546,-0.5229,0.2323,-0.3611,0.6637,0.1572,0.0175,-0.1161,783,2019-08-07 17:05:37:796
-0.6522,10.1546,-0.5794,0.2323,-0.3611,0.6637,0.1572,0.0175,-0.1161,787,2019-08-07 17:05:37:800
-0.6522,10.1546,-0.5794,0.2323,-0.3611,0.6637,0.1209,0.1102,-0.1097,793,2019-08-07 17:05:37:806
-0.7861,10.0352,-0.4003,0.2323,-0.3611,0.6637,0.1209,0.1102,-0.1097,798,2019-08-07 17:05:37:811
-0.7861,10.0352,-0.4003,0.3938,-0.2998,0.4356,0.1103,0.1187,-0.1054,803,2019-08-07 17:05:37:816
-0.7861,10.0352,-0.4003,0.3938,-0.2998,0.4356,0.1103,0.1187,-0.1054,808,2019-08-07 17:05:37:821
-0.8579,10.0686,-0.2164,0.3938,-0.2998,0.4356,0.1028,0.0772,-0.1044,813,2019-08-07 17:05:37:826
-0.8579,10.0686,-0.2164,0.3938,-0.2998,0.4356,0.1028,0.0772,-0.1044,817,2019-08-07 17:05:37:830
-0.7669,9.9922,-0.2777,0.3648,-0.2385,0.2094,0.106,0.0132,-0.0926,823,2019-08-07 17:05:37:836
-0.7669,9.9922,-0.2777,0.3648,-0.2385,0.2094,0.106,0.0132,-0.0926,828,2019-08-07 17:05:37:841
-0.7669,9.9922,-0.2777,0.3648,-0.2385,0.2094,0.1039,-0.0251,-0.0863,832,2019-08-07 17:05:37:845
-0.6282,10.0304,-0.5228,0.3648,-0.2385,0.2094,0.1039,-0.0251,-0.0863,838,2019-08-07 17:05:37:851
-0.6282,10.0304,-0.5228,0.1066,-0.1867,0.5199,0.0964,-0.0272,-0.0724,842,2019-08-07 17:05:37:855
-0.4607,10.0113,-0.3531,0.1066,-0.1867,0.5199,0.0964,-0.0272,-0.0724,848,2019-08-07 17:05:37:861
-0.4607,10.0113,-0.3531,0.1066,-0.1867,0.5199,0.0879,-0.0176,-0.0703,853,2019-08-07 17:05:37:866
-0.4607,10.0113,-0.3531,0.1066,-0.1867,0.5199,0.0879,-0.0176,-0.0703,858,2019-08-07 17:05:37:871
-0.4846,10.0257,-0.3484,0.0443,-0.2255,0.3479,0.0901,-0.0272,-0.0671,863,2019-08-07 17:05:37:876
-0.4846,10.0257,-0.3484,0.0443,-0.2255,0.3479,0.0901,-0.0272,-0.0671,868,2019-08-07 17:05:37:881
-0.4846,10.0257,-0.3484,0.0443,-0.2255,0.3479,0.0933,-0.0507,-0.066,872,2019-08-07 17:05:37:885
-0.5389,10.0115,-0.1838,0.0443,-0.2255,0.3479,0.0933,-0.0507,-0.066,878,2019-08-07 17:05:37:891
-0.5389,10.0115,-0.1838,0.0374,-0.2168,0.1589,0.0986,-0.0645,-0.0639,883,2019-08-07 17:05:37:896
-0.5055,9.9638,-0.1697,0.0374,-0.2168,0.1589,0.0986,-0.0645,-0.0639,888,2019-08-07 17:05:37:901
-0.5055,9.9638,-0.1697,0.0374,-0.2168,0.1589,0.0986,-0.0645,-0.0639,893,2019-08-07 17:05:37:906
-0.5055,9.9638,-0.1697,0.0374,-0.2168,0.1589,0.1124,-0.0752,-0.065,897,2019-08-07 17:05:37:910
-0.5342,10.002,-0.0848,0.0675,-0.2031,0.0431,0.1124,-0.0752,-0.065,903,2019-08-07 17:05:37:916
-0.5342,10.002,-0.0848,0.0675,-0.2031,0.0431,0.1455,-0.0848,-0.0596,908,2019-08-07 17:05:37:921
-0.5342,10.002,-0.0848,0.0675,-0.2031,0.0431,0.1455,-0.0848,-0.0596,913,2019-08-07 17:05:37:926
-0.4768,10.0115,-0.0235,0.0675,-0.2031,0.0431,0.1785,-0.0922,-0.0618,917,2019-08-07 17:05:37:930
-0.4768,10.0115,-0.0235,-0.0164,-0.562,-0.3877,0.1785,-0.0922,-0.0618,923,2019-08-07 17:05:37:936
-0.4098,10.4507,0.4714,-0.0164,-0.562,-0.3877,0.1785,-0.0922,-0.0618,928,2019-08-07 17:05:37:941
-0.4098,10.4507,0.4714,-0.0164,-0.562,-0.3877,0.253,-0.1167,-0.0777,933,2019-08-07 17:05:37:946
-0.4098,10.4507,0.4714,-0.0164,-0.562,-0.3877,0.253,-0.1167,-0.0777,937,2019-08-07 17:05:37:950
0.3605,10.804,0.594,-1.0824,-1.1216,-0.8415,0.2648,-0.1625,-0.1342,943,2019-08-07 17:05:37:956
0.3605,10.804,0.594,-1.0824,-1.1216,-0.8415,0.2648,-0.1625,-0.1342,948,2019-08-07 17:05:37:961
1.1786,11.4914,1.7489,-1.0824,-1.1216,-0.8415,0.2765,-0.1497,-0.1821,953,2019-08-07 17:05:37:966
1.1786,11.4914,1.7489,-1.0824,-1.1216,-0.8415,0.2765,-0.1497,-0.1821,958,2019-08-07 17:05:37:971
1.1786,11.4914,1.7489,-1.9607,-1.5912,-2.5597,0.4704,-0.0816,-0.1747,962,2019-08-07 17:05:37:975
1.4082,11.4818,2.4842,-1.9607,-1.5912,-2.5597,0.4704,-0.0816,-0.1747,968,2019-08-07 17:05:37:981
1.4082,11.4818,2.4842,-1.9607,-1.5912,-2.5597,0.4704,-0.0816,-0.1747,972,2019-08-07 17:05:37:985
1.2072,11.5391,2.7199,-1.9607,-1.5912,-2.5597,0.8038,-0.1625,-0.1502,978,2019-08-07 17:05:37:991
1.2072,11.5391,2.7199,-1.6981,-1.7333,-2.6741,0.8038,-0.1625,-0.1502,982,2019-08-07 17:05:37:995
1.2072,11.5391,2.7199,-1.6981,-1.7333,-2.6741,1.0573,-0.2318,-0.1715,988,2019-08-07 17:05:38:001
1.1355,11.6442,2.0882,-1.6981,-1.7333,-2.6741,1.0573,-0.2318,-0.1715,992,2019-08-07 17:05:38:005
1.1355,11.6442,2.0882,-1.6981,-1.7333,-2.6741,1.2885,-0.187,-0.2205,998,2019-08-07 17:05:38:011
0.8149,12.7851,2.6586,-1.3787,-3.0039,-3.1559,1.2885,-0.187,-0.2205,1003,2019-08-07 17:05:38:016
0.8149,12.7851,2.6586,-1.3787,-3.0039,-3.1559,1.5431,-0.3692,-0.1576,1007,2019-08-07 17:05:38:020
0.8149,12.7851,2.6586,-1.3787,-3.0039,-3.1559,1.5431,-0.3692,-0.1576,1013,2019-08-07 17:05:38:026
0.48,12.9522,1.9374,-1.3787,-3.0039,-3.1559,1.8126,-0.5524,-0.1566,1018,2019-08-07 17:05:38:031
0.48,12.9522,1.9374,-0.0365,-3.5751,-1.1138,1.8126,-0.5524,-0.1566,1022,2019-08-07 17:05:38:035
-1.2136,14.012,-0.4572,-0.0365,-3.5751,-1.1138,2.0182,-0.5258,-0.2759,1028,2019-08-07 17:05:38:041
-1.2136,14.012,-0.4572,-0.0365,-3.5751,-1.1138,2.0182,-0.5258,-0.2759,1033,2019-08-07 17:05:38:046
-1.2136,14.012,-0.4572,-0.0365,-3.5751,-1.1138,2.2813,-0.4651,-0.3387,1037,2019-08-07 17:05:38:050
-1.4576,15.8976,-1.1219,0.5623,-6.3908,-0.0989,2.2813,-0.4651,-0.3387,1043,2019-08-07 17:05:38:056
-1.4576,15.8976,-1.1219,0.5623,-6.3908,-0.0989,2.6584,-0.6035,-0.376,1048,2019-08-07 17:05:38:061
-0.7926,16.7331,-1.6498,0.5623,-6.3908,-0.0989,2.6584,-0.6035,-0.376,1053,2019-08-07 17:05:38:066
-0.7926,16.7331,-1.6498,0.5623,-6.3908,-0.0989,3.0344,-0.6568,-0.441,1058,2019-08-07 17:05:38:071
-0.7926,16.7331,-1.6498,0.5623,-6.3908,-0.0989,3.0344,-0.6568,-0.441,1062,2019-08-07 17:05:38:075
-0.6348,18.5901,-5.9677,-0.1926,-8.2513,3.0535,3.0344,-0.6568,-0.441,1067,2019-08-07 17:05:38:080
-0.6348,18.5901,-5.9677,-0.1926,-8.2513,3.0535,3.3274,-0.4714,-0.506,1073,2019-08-07 17:05:38:086
-0.6108,22.3805,-8.3293,-0.1926,-8.2513,3.0535,3.3274,-0.4714,-0.506,1078,2019-08-07 17:05:38:091
-0.6108,22.3805,-8.3293,-0.1926,-8.2513,3.0535,3.4552,-0.0997,-0.5092,1083,2019-08-07 17:05:38:096
-0.6108,22.3805,-8.3293,-0.5998,-13.5114,5.2907,3.4552,-0.0997,-0.5092,1087,2019-08-07 17:05:38:100
-0.8788,22.7051,-6.4108,-0.5998,-13.5114,5.2907,3.4243,0.645,-0.6018,1093,2019-08-07 17:05:38:106
-0.8788,22.7051,-6.4108,0.5992,-12.8564,2.215,3.4243,0.645,-0.6018,1097,2019-08-07 17:05:38:110
-2.826,21.5164,-3.2195,0.5992,-12.8564,2.215,3.4361,1.3576,-0.6732,1103,2019-08-07 17:05:38:116
-2.826,21.5164,-3.2195,0.5992,-12.8564,2.215,3.4361,1.3576,-0.6732,1108,2019-08-07 17:05:38:121
-2.826,21.5164,-3.2195,0.5992,-12.8564,2.215,3.6321,1.1808,-0.7968,1113,2019-08-07 17:05:38:126
-4.6775,22.3184,-2.4889,3.7146,-13.1701,-0.9195,3.6321,1.1808,-0.7968,1117,2019-08-07 17:05:38:130
-4.6775,22.3184,-2.4889,3.7146,-13.1701,-0.9195,3.9218,0.1315,-0.8011,1123,2019-08-07 17:05:38:136
-4.6775,22.3184,-2.4889,3.7146,-13.1701,-0.9195,3.9218,0.1315,-0.8011,1127,2019-08-07 17:05:38:140
-4.6583,24.3043,-1.9562,3.7146,-13.1701,-0.9195,3.9218,0.1315,-0.8011,1132,2019-08-07 17:05:38:145
-4.6583,24.3043,-1.9562,3.0764,-14.9927,-0.8058,4.3959,-1.2747,-0.7339,1138,2019-08-07 17:05:38:151
-4.1799,23.0631,-6.2552,3.0764,-14.9927,-0.8058,4.3959,-1.2747,-0.7339,1143,2019-08-07 17:05:38:156
-4.1799,23.0631,-6.2552,3.0764,-14.9927,-0.8058,4.807,-2.3761,-0.8607,1148,2019-08-07 17:05:38:161
-4.1799,23.0631,-6.2552,3.0764,-14.9927,-0.8058,4.807,-2.3761,-0.8607,1153,2019-08-07 17:05:38:166
-4.4096,22.0941,-10.4411,2.9368,-13.7089,5.567,4.7857,-2.1503,-0.9513,1158,2019-08-07 17:05:38:171
-4.4096,22.0941,-10.4411,2.9368,-13.7089,5.567,4.7857,-2.1503,-0.9513,1162,2019-08-07 17:05:38:175
-3.2805,21.2109,-8.3387,2.9368,-13.7089,5.567,4.6068,-1.6507,-0.9278,1168,2019-08-07 17:05:38:181
-3.2805,21.2109,-8.3387,2.9368,-13.7089,5.567,4.6068,-1.6507,-0.9278,1173,2019-08-07 17:05:38:186
-3.2805,21.2109,-8.3387,1.0439,-12.8623,1.24,4.6068,-1.6507,-0.9278,1177,2019-08-07 17:05:38:190
-2.7447,20.5617,-6.6606,1.0439,-12.8623,1.24,4.4299,-1.3748,-0.9023,1183,2019-08-07 17:05:38:196
-2.7447,20.5617,-6.6606,1.0439,-12.8623,1.24,4.4299,-1.3748,-0.9023,1188,2019-08-07 17:05:38:201
-2.5055,18.8288,-5.6189,1.0439,-12.8623,1.24,4.1018,-1.1617,-0.8,1193,2019-08-07 17:05:38:206
-2.5055,18.8288,-5.6189,0.2011,-11.0953,-0.7706,4.1018,-1.1617,-0.8,1198,2019-08-07 17:05:38:211
-2.5055,18.8288,-5.6189,0.2011,-11.0953,-0.7706,3.6768,-0.7058,-0.654,1203,2019-08-07 17:05:38:216
-1.5582,17.0529,-4.6007,0.2011,-11.0953,-0.7706,3.6768,-0.7058,-0.654,1207,2019-08-07 17:05:38:220
-1.5582,17.0529,-4.6007,0.2011,-11.0953,-0.7706,3.0739,0.0367,-0.5081,1213,2019-08-07 17:05:38:226
-1.386,16.2509,-2.6586,-0.7248,-9.5225,-3.4062,3.0739,0.0367,-0.5081,1218,2019-08-07 17:05:38:231
-1.386,16.2509,-2.6586,-0.7248,-9.5225,-3.4062,2.1428,0.9954,-0.2247,1223,2019-08-07 17:05:38:236
-1.386,16.2509,-2.6586,-0.7248,-9.5225,-3.4062,2.1428,0.9954,-0.2247,1227,2019-08-07 17:05:38:240
-1.0894,14.6708,0.9522,-0.7248,-9.5225,-3.4062,1.3876,1.2884,0.0043,1233,2019-08-07 17:05:38:246
-1.0894,14.6708,0.9522,-0.9124,-7.4519,-8.9017,1.3876,1.2884,0.0043,1238,2019-08-07 17:05:38:251
-1.0894,14.6708,0.9522,-0.9124,-7.4519,-8.9017,1.3876,1.2884,0.0043,1243,2019-08-07 17:05:38:256
-1.2855,13.3102,3.3468,-0.9124,-7.4519,-8.9017,0.612,1.2458,0.1992,1248,2019-08-07 17:05:38:261
-1.2855,13.3102,3.3468,-0.9124,-7.4519,-8.9017,0.612,1.2458,0.1992,1253,2019-08-07 17:05:38:266
-1.4243,12.2934,3.738,-0.5353,-5.8557,-10.6749,-0.4159,1.184,0.4453,1258,2019-08-07 17:05:38:271
-1.4243,12.2934,3.738,-0.5353,-5.8557,-10.6749,-0.4159,1.184,0.4453,1263,2019-08-07 17:05:38:276
-1.4243,12.2934,3.738,-0.056,-5.1576,-10.806,-1.3054,1.1989,0.5891,1267,2019-08-07 17:05:38:280
-1.8931,11.6442,4.167,-0.056,-5.1576,-10.806,-1.3054,1.1989,0.5891,1273,2019-08-07 17:05:38:286
-1.8931,11.6442,4.167,-0.056,-5.1576,-10.806,-2.2557,1.1914,0.7255,1278,2019-08-07 17:05:38:291
-2.2615,11.0809,4.9778,-0.056,-5.1576,-10.806,-2.2557,1.1914,0.7255,1284,2019-08-07 17:05:38:297
-2.2615,11.0809,4.9778,0.7861,-3.8605,-11.6307,-2.2557,1.1914,0.7255,1287,2019-08-07 17:05:38:300
-2.2615,11.0809,4.9778,0.7861,-3.8605,-11.6307,-3.4722,1.0998,0.8608,1293,2019-08-07 17:05:38:306
-2.2759,10.7371,5.1145,0.7861,-3.8605,-11.6307,-3.4722,1.0998,0.8608,1297,2019-08-07 17:05:38:310
-2.2759,10.7371,5.1145,0.7861,-3.8605,-11.6307,-4.5012,0.9411,0.9225,1303,2019-08-07 17:05:38:316
-2.2759,10.7371,5.1145,0.9147,-3.9995,-12.618,-4.5012,0.9411,0.9225,1308,2019-08-07 17:05:38:321
-2.1754,11.9927,6.7737,0.9147,-3.9995,-12.618,-5.5164,0.7643,0.9801,1313,2019-08-07 17:05:38:326
-2.1754,11.9927,6.7737,0.9147,-3.9995,-12.618,-5.5164,0.7643,0.9801,1318,2019-08-07 17:05:38:331
-2.0176,12.8376,6.604,0.9147,-3.9995,-12.618,-6.4773,0.482,1.0131,1323,2019-08-07 17:05:38:336
-2.0176,12.8376,6.604,0.9147,-3.9995,-12.618,-6.4773,0.482,1.0131,1327,2019-08-07 17:05:38:340
-2.4242,14.012,6.5522,1.2272,-5.143,-11.3674,-7.4094,0.1784,1.0046,1333,2019-08-07 17:05:38:346
-2.4242,14.012,6.5522,1.2272,-5.143,-11.3674,-7.4094,0.1784,1.0046,1337,2019-08-07 17:05:38:350
-2.4242,14.012,6.5522,1.2272,-5.143,-11.3674,-8.4395,-0.2307,1.0003,1343,2019-08-07 17:05:38:356
-2.3955,15.2818,7.6222,1.4077,-6.2993,-11.4239,-8.4395,-0.2307,1.0003,1347,2019-08-07 17:05:38:360
-2.3955,15.2818,7.6222,1.4077,-6.2993,-11.4239,-9.1138,-0.6579,1.0195,1352,2019-08-07 17:05:38:365
-2.0894,15.807,8.6734,1.4077,-6.2993,-11.4239,-9.1138,-0.6579,1.0195,1358,2019-08-07 17:05:38:371
-2.0894,15.807,8.6734,1.4077,-6.2993,-11.4239,-9.7349,-1.0339,1.0568,1363,2019-08-07 17:05:38:376
-2.0894,15.807,8.6734,1.3515,-6.9632,-10.464,-9.7349,-1.0339,1.0568,1368,2019-08-07 17:05:38:381
-2.0798,16.8906,8.9232,1.3515,-6.9632,-10.464,-10.3218,-1.297,1.1281,1373,2019-08-07 17:05:38:386
-2.0798,16.8906,8.9232,1.3515,-6.9632,-10.464,-10.3218,-1.297,1.1281,1377,2019-08-07 17:05:38:390
-1.3,17.9074,9.239,1.3515,-6.9632,-10.464,-10.815,-1.5133,1.2475,1383,2019-08-07 17:05:38:396
-1.3,17.9074,9.239,0.4964,-8.1884,-8.5038,-10.815,-1.5133,1.2475,1388,2019-08-07 17:05:38:401
-1.3,17.9074,9.239,0.4964,-8.1884,-8.5038,-10.815,-1.5133,1.2475,1393,2019-08-07 17:05:38:406
-0.7641,17.6353,8.4565,0.4964,-8.1884,-8.5038,-11.2348,-1.5974,1.3774,1398,2019-08-07 17:05:38:411
-0.7641,17.6353,8.4565,0.4964,-8.1884,-8.5038,-11.2348,-1.5974,1.3774,1403,2019-08-07 17:05:38:416
-0.7641,17.6353,8.4565,0.5886,-7.8227,-4.9003,-11.7141,-1.4334,1.5809,1407,2019-08-07 17:05:38:420
-0.7833,17.2248,7.6929,0.5886,-7.8227,-4.9003,-11.7141,-1.4334,1.5809,1413,2019-08-07 17:05:38:426
-0.7833,17.2248,7.6929,0.5886,-7.8227,-4.9003,-12.0465,-1.4195,1.7907,1418,2019-08-07 17:05:38:431
-1.4531,17.3966,4.8599,0.5886,-7.8227,-4.9003,-12.0465,-1.4195,1.7907,1423,2019-08-07 17:05:38:436
-1.4531,17.3966,4.8599,0.5886,-7.8227,-4.9003,-12.0465,-1.4195,1.7907,1428,2019-08-07 17:05:38:441
-1.4531,17.3966,4.8599,2.3908,-9.1677,3.3018,-12.3533,-1.5324,2.0134,1433,2019-08-07 17:05:38:446
-2.52,17.8645,-0.0755,2.3908,-9.1677,3.3018,-12.3533,-1.5324,2.0134,1437,2019-08-07 17:05:38:450
-2.52,17.8645,-0.0755,2.3908,-9.1677,3.3018,-12.7591,-1.6028,2.3638,1443,2019-08-07 17:05:38:456
-2.6492,20.1273,-4.8694,2.3908,-9.1677,3.3018,-12.7591,-1.6028,2.3638,1447,2019-08-07 17:05:38:460
-2.6492,20.1273,-4.8694,3.357,-14.0195,12.7785,-13.1437,-1.5303,2.6089,1453,2019-08-07 17:05:38:466
-2.6492,20.1273,-4.8694,3.357,-14.0195,12.7785,-13.1437,-1.5303,2.6089,1457,2019-08-07 17:05:38:470
-0.9221,25.4501,-9.3428,3.357,-14.0195,12.7785,-13.3642,-1.33,2.7804,1463,2019-08-07 17:05:38:476
-0.9221,25.4501,-9.3428,3.357,-14.0195,12.7785,-13.3642,-1.33,2.7804,1468,2019-08-07 17:05:38:481
-0.9221,25.4501,-9.3428,0.4079,-27.8871,19.8329,-13.018,-0.6877,2.8251,1473,2019-08-07 17:05:38:486
1.6949,37.7713,-12.0485,0.4079,-27.8871,19.8329,-13.018,-0.6877,2.8251,1479,2019-08-07 17:05:38:492
1.6949,37.7713,-12.0485,0.4079,-27.8871,19.8329,-11.9389,0.3243,2.66,1482,2019-08-07 17:05:38:495
2.6661,49.3908,-15.6546,0.4079,-27.8871,19.8329,-11.9389,0.3243,2.66,1488,2019-08-07 17:05:38:501
2.6661,49.3908,-15.6546,-1.4774,-48.079,25.7645,-11.9389,0.3243,2.66,1493,2019-08-07 17:05:38:506
2.6661,49.3908,-15.6546,-1.4774,-48.079,25.7645,-9.7317,2.3323,1.8855,1498,2019-08-07 17:05:38:511
3.1876,49.0518,-23.4041,-1.4774,-48.079,25.7645,-9.7317,2.3323,1.8855,1503,2019-08-07 17:05:38:516
3.1876,49.0518,-23.4041,-1.4774,-48.079,25.7645,-8.0145,4.4597,0.9268,1508,2019-08-07 17:05:38:521
0.5658,40.7168,-40.3267,0.4388,-39.8686,50.0482,-8.0145,4.4597,0.9268,1512,2019-08-07 17:05:38:525
0.5658,40.7168,-40.3267,0.4388,-39.8686,50.0482,-7.4882,6.1928,0.5412,1518,2019-08-07 17:05:38:531
0.5658,40.7168,-40.3267,0.4388,-39.8686,50.0482,-7.4882,6.1928,0.5412,1523,2019-08-07 17:05:38:536
-4.0319,29.546,-60.5018,0.4388,-39.8686,50.0482,-7.4882,6.1928,0.5412,1528,2019-08-07 17:05:38:541
-4.0319,29.546,-60.5018,9.7544,-18.6888,74.383,-6.6967,7.7439,0.5156,1533,2019-08-07 17:05:38:546
-14.5524,-4.2908,-60.2944,9.7544,-18.6888,74.383,-6.6967,7.7439,0.5156,1538,2019-08-07 17:05:38:551
-14.5524,-4.2908,-60.2944,9.7544,-18.6888,74.383,-7.4392,7.7641,1.0099,1543,2019-08-07 17:05:38:556
-6.3762,-19.0515,-28.1556,9.7544,-18.6888,74.383,-7.4392,7.7641,1.0099,1548,2019-08-07 17:05:38:561
-6.3762,-19.0515,-28.1556,1.5651,16.5706,27.5198,-7.843,3.5148,0.898,1553,2019-08-07 17:05:38:566
-6.3762,-19.0515,-28.1556,1.5651,16.5706,27.5198,-7.843,3.5148,0.898,1557,2019-08-07 17:05:38:570
8.1918,-11.0744,32.6054,1.5651,16.5706,27.5198,-4.3308,-5.4068,-0.3313,1563,2019-08-07 17:05:38:576
8.1918,-11.0744,32.6054,1.5651,16.5706,27.5198,-4.3308,-5.4068,-0.3313,1568,2019-08-07 17:05:38:581
8.1918,-11.0744,32.6054,-0.5786,14.1844,5.7852,5.671,-9.5688,-2.0581,1572,2019-08-07 17:05:38:585
-1.2762,-18.5645,-23.7341,-0.5786,14.1844,5.7852,5.671,-9.5688,-2.0581,1578,2019-08-07 17:05:38:591
-1.2762,-18.5645,-23.7341,-0.5786,14.1844,5.7852,9.8244,-7.7206,-2.8112,1583,2019-08-07 17:05:38:596
-7.8162,-6.4772,-51.1826,-0.5786,14.1844,5.7852,9.8244,-7.7206,-2.8112,1588,2019-08-07 17:05:38:601
-7.8162,-6.4772,-51.1826,7.3539,1.2097,60.666,9.8244,-7.7206,-2.8112,1593,2019-08-07 17:05:38:606
-7.8162,-6.4772,-51.1826,7.3539,1.2097,60.666,12.168,-2.5785,-2.2594,1598,2019-08-07 17:05:38:611
-1.9316,19.9363,-37.8708,7.3539,1.2097,60.666,12.168,-2.5785,-2.2594,1603,2019-08-07 17:05:38:616
-1.9316,19.9363,-37.8708,7.3539,1.2097,60.666,7.891,-4.2244,-0.5081,1608,2019-08-07 17:05:38:621
-1.9316,19.9363,-37.8708,-1.5232,-23.4397,42.7084,7.891,-4.2244,-0.5081,1612,2019-08-07 17:05:38:625
7.2685,20.4519,-29.8573,-1.5232,-23.4397,42.7084,2.4027,-7.2817,-0.474,1618,2019-08-07 17:05:38:631
7.2685,20.4519,-29.8573,-1.5232,-23.4397,42.7084,2.4027,-7.2817,-0.474,1622,2019-08-07 17:05:38:635
7.2685,20.4519,-29.8573,-1.5232,-23.4397,42.7084,8.2393,5.82,-3.0786,1628,2019-08-07 17:05:38:641
16.0667,22.8484,-4.9684,-11.5928,-24.6441,15.5247,8.2393,5.82,-3.0786,1633,2019-08-07 17:05:38:646
16.0667,22.8484,-4.9684,-11.5928,-24.6441,15.5247,10.0886,6.5891,-2.9412,1638,2019-08-07 17:05:38:651
-2.6397,29.842,-10.4977,-11.5928,-24.6441,15.5247,10.0886,6.5891,-2.9412,1643,2019-08-07 17:05:38:656
-2.6397,29.842,-10.4977,-11.5928,-24.6441,15.5247,6.5679,1.4301,-1.8642,1648,2019-08-07 17:05:38:661
-2.6397,29.842,-10.4977,7.3583,-16.4555,26.3001,6.5679,1.4301,-1.8642,1653,2019-08-07 17:05:38:666
-8.2469,22.8818,-14.1415,7.3583,-16.4555,26.3001,6.5679,1.4301,-1.8642,1658,2019-08-07 17:05:38:671
-8.2469,22.8818,-14.1415,7.3583,-16.4555,26.3001,7.8644,5.4834,-1.3145,1663,2019-08-07 17:05:38:676
-8.3952,30.3194,1.3575,7.3583,-16.4555,26.3001,7.8644,5.4834,-1.3145,1668,2019-08-07 17:05:38:681
-8.3952,30.3194,1.3575,0.8679,-16.7069,2.3732,6.8779,4.4245,-0.3824,1672,2019-08-07 17:05:38:685
-0.7308,20.8386,6.5521,0.8679,-16.7069,2.3732,6.8779,4.4245,-0.3824,1678,2019-08-07 17:05:38:691
-0.7308,20.8386,6.5521,2.2447,-16.7261,3.1688,7.8079,2.654,-0.5784,1683,2019-08-07 17:05:38:696
-0.7308,20.8386,6.5521,2.2447,-16.7261,3.1688,7.8079,2.654,-0.5784,1688,2019-08-07 17:05:38:701
-6.2997,21.7313,3.0073,2.2447,-16.7261,3.1688,8.0146,0.0133,-0.506,1692,2019-08-07 17:05:38:705
-6.2997,21.7313,3.0073,2.2447,-16.7261,3.1688,8.0146,0.0133,-0.506,1698,2019-08-07 17:05:38:711
-6.2949,20.4233,1.7063,5.4327,-13.4995,5.1896,8.2947,-0.9998,-0.555,1703,2019-08-07 17:05:38:716
-6.2949,20.4233,1.7063,5.4327,-13.4995,5.1896,8.2947,-0.9998,-0.555,1707,2019-08-07 17:05:38:720
-5.1371,20.1607,0.707,4.2911,-12.6692,5.5698,8.3192,-0.9945,-0.6295,1713,2019-08-07 17:05:38:726
-5.1371,20.1607,0.707,4.2911,-12.6692,5.5698,8.3192,-0.9945,-0.6295,1718,2019-08-07 17:05:38:731
-5.1371,20.1607,0.707,4.2911,-12.6692,5.5698,8.1967,-1.0126,-0.7041,1722,2019-08-07 17:05:38:735
-5.1371,20.1607,0.707,4.2911,-12.6692,5.5698,8.1967,-1.0126,-0.7041,1728,2019-08-07 17:05:38:741
-3.4292,19.9172,2.5077,2.287,-11.4524,1.7238,8.1168,-1.4344,-0.817,1732,2019-08-07 17:05:38:745
-3.4292,19.9172,2.5077,2.287,-11.4524,1.7238,8.1168,-1.4344,-0.817,1738,2019-08-07 17:05:38:751
-3.4292,19.9172,2.5077,2.287,-11.4524,1.7238,8.1168,-1.4344,-0.817,1743,2019-08-07 17:05:38:756
-2.4532,19.4876,2.173,1.5983,-10.6772,2.0558,7.9922,-1.7157,-0.9204,1747,2019-08-07 17:05:38:760
-2.4532,19.4876,2.173,1.5983,-10.6772,2.0558,7.9922,-1.7157,-0.9204,1753,2019-08-07 17:05:38:766
-0.4391,18.9052,-1.3906,1.5983,-10.6772,2.0558,7.5213,-1.2491,-1.0695,1758,2019-08-07 17:05:38:771
-0.4391,18.9052,-1.3906,-0.9169,-9.8446,4.0735,7.5213,-1.2491,-1.0695,1763,2019-08-07 17:05:38:776
-0.4391,18.9052,-1.3906,-0.9169,-9.8446,4.0735,7.01,-0.2105,-1.2069,1768,2019-08-07 17:05:38:781
0.5369,19.5974,0.1555,-0.9169,-9.8446,4.0735,7.01,-0.2105,-1.2069,1773,2019-08-07 17:05:38:786
0.5369,19.5974,0.1555,-0.9169,-9.8446,4.0735,6.5434,0.7909,-1.2378,1778,2019-08-07 17:05:38:791
-0.0515,19.3396,2.9649,-1.1276,-9.7158,-1.4722,6.5434,0.7909,-1.2378,1783,2019-08-07 17:05:38:796
-0.0515,19.3396,2.9649,-1.1276,-9.7158,-1.4722,6.1706,1.3779,-1.257,1788,2019-08-07 17:05:38:801
-0.0515,19.3396,2.9649,-1.1276,-9.7158,-1.4722,6.1706,1.3779,-1.257,1792,2019-08-07 17:05:38:805
-2.0896,19.4446,2.8471,0.7731,-9.763,-1.9701,5.7828,1.6229,-1.2431,1798,2019-08-07 17:05:38:811
-2.0896,19.4446,2.8471,0.7731,-9.763,-1.9701,5.7828,1.6229,-1.2431,1803,2019-08-07 17:05:38:816
-2.0896,19.4446,2.8471,0.7731,-9.763,-1.9701,5.7828,1.6229,-1.2431,1807,2019-08-07 17:05:38:820
-3.7306,19.3539,2.6915,0.7731,-9.763,-1.9701,5.3642,1.7731,-1.1036,1813,2019-08-07 17:05:38:826
-3.7306,19.3539,2.6915,2.3196,-9.3236,-2.9181,5.0553,1.6878,-1.0226,1818,2019-08-07 17:05:38:831
-4.0655,18.91,2.9413,2.3196,-9.3236,-2.9181,5.0553,1.6878,-1.0226,1823,2019-08-07 17:05:38:836
-4.0655,18.91,2.9413,2.3196,-9.3236,-2.9181,4.8539,1.5632,-0.9385,1828,2019-08-07 17:05:38:841
-4.0655,18.91,2.9413,2.3196,-9.3236,-2.9181,4.8539,1.5632,-0.9385,1833,2019-08-07 17:05:38:846
-4.3191,18.17,2.3851,2.5896,-8.5968,-3.6496,4.8539,1.5632,-0.9385,1838,2019-08-07 17:05:38:851
-4.3191,18.17,2.3851,2.5896,-8.5968,-3.6496,4.4832,1.3065,-0.8128,1843,2019-08-07 17:05:38:856
-4.2952,17.0911,1.7534,2.5896,-8.5968,-3.6496,4.4832,1.3065,-0.8128,1848,2019-08-07 17:05:38:861
-4.2952,17.0911,1.7534,2.5896,-8.5968,-3.6496,4.1647,1.1478,-0.718,1853,2019-08-07 17:05:38:866
-4.2952,17.0911,1.7534,2.6018,-7.1876,-3.9291,4.1647,1.1478,-0.718,1858,2019-08-07 17:05:38:871
-4.6492,16.2653,1.6497,2.6018,-7.1876,-3.9291,3.8164,0.9731,-0.6168,1863,2019-08-07 17:05:38:876
-4.6492,16.2653,1.6497,2.6018,-7.1876,-3.9291,3.8164,0.9731,-0.6168,1867,2019-08-07 17:05:38:880
-4.6492,16.2653,1.6497,2.6018,-7.1876,-3.9291,3.3359,0.7227,-0.4698,1872,2019-08-07 17:05:38:885
-6.1409,16.5277,1.3388,4.2265,-7.3318,-4.1684,3.3359,0.7227,-0.4698,1878,2019-08-07 17:05:38:891
-6.1409,16.5277,1.3388,4.2265,-7.3318,-4.1684,2.9833,0.4255,-0.3302,1883,2019-08-07 17:05:38:896
-6.5428,16.3559,2.2439,4.2265,-7.3318,-4.1684,2.9833,0.4255,-0.3302,1888,2019-08-07 17:05:38:901
-6.5428,16.3559,2.2439,4.2265,-7.3318,-4.1684,2.9833,0.4255,-0.3302,1892,2019-08-07 17:05:38:905
-6.5428,16.3559,2.2439,3.6921,-6.8065,-5.6022,2.6744,-0.1923,-0.1715,1898,2019-08-07 17:05:38:911
-5.3276,15.6732,2.1072,3.6921,-6.8065,-5.6022,2.6744,-0.1923,-0.1715,1903,2019-08-07 17:05:38:916
-5.3276,15.6732,2.1072,3.6921,-6.8065,-5.6022,2.4102,-0.8219,-0.115,1908,2019-08-07 17:05:38:921
-3.8828,14.876,0.6931,3.6921,-6.8065,-5.6022,2.4102,-0.8219,-0.115,1912,2019-08-07 17:05:38:925
-3.8828,14.876,0.6931,1.4054,-5.7774,-3.5773,2.2216,-0.9178,-0.1161,1918,2019-08-07 17:05:38:931
-3.8828,14.876,0.6931,1.4054,-5.7774,-3.5773,2.2216,-0.9178,-0.1161,1923,2019-08-07 17:05:38:936
-2.7011,14.1122,-1.3622,1.4054,-5.7774,-3.5773,2.2216,-0.9178,-0.1161,1928,2019-08-07 17:05:38:941
-2.7011,14.1122,-1.3622,1.4054,-5.7774,-3.5773,1.8414,-0.7239,-0.115,1933,2019-08-07 17:05:38:946
-2.4618,13.7923,-0.7069,0.3714,-5.1384,-3.2503,1.8414,-0.7239,-0.115,1938,2019-08-07 17:05:38:951
-2.4618,13.7923,-0.7069,0.3714,-5.1384,-3.2503,1.4919,-0.594,-0.0628,1942,2019-08-07 17:05:38:955
-2.4618,13.7923,-0.7069,0.2651,-5.0964,-3.4945,1.4919,-0.594,-0.0628,1948,2019-08-07 17:05:38:961
-2.4953,13.9403,-0.6787,0.2651,-5.0964,-3.4945,1.232,-0.5961,-0.0042,1953,2019-08-07 17:05:38:966
-2.4953,13.9403,-0.6787,0.2651,-5.0964,-3.4945,1.232,-0.5961,-0.0042,1957,2019-08-07 17:05:38:970
-2.4953,13.9403,-0.6787,0.2651,-5.0964,-3.4945,0.9764,-0.6174,0.0639,1963,2019-08-07 17:05:38:976
-2.4762,14.3843,-0.2214,0.1856,-5.8797,-4.0138,0.9764,-0.6174,0.0639,1968,2019-08-07 17:05:38:981
-2.4762,14.3843,-0.2214,0.1856,-5.8797,-4.0138,0.7495,-0.5833,0.13,1973,2019-08-07 17:05:38:986
-2.0599,14.4798,-0.1743,0.1856,-5.8797,-4.0138,0.7495,-0.5833,0.13,1978,2019-08-07 17:05:38:991
-2.0599,14.4798,-0.1743,0.1856,-5.8797,-4.0138,0.5311,-0.529,0.196,1982,2019-08-07 17:05:38:995
-2.0599,14.4798,-0.1743,0.0619,-6.2248,-4.8649,0.5311,-0.529,0.196,1988,2019-08-07 17:05:39:001
-2.5623,14.8235,0.5328,0.0619,-6.2248,-4.8649,0.5311,-0.529,0.196,1992,2019-08-07 17:05:39:005
-2.5623,14.8235,0.5328,0.0619,-6.2248,-4.8649,0.2946,-0.4342,0.3026,1998,2019-08-07 17:05:39:011
-2.5623,14.8235,0.5328,0.0619,-6.2248,-4.8649,0.2946,-0.4342,0.3026,2002,2019-08-07 17:05:39:015
-2.524,14.2984,-0.0329,0.2107,-5.5866,-4.4442,0.0751,-0.3607,0.4165,2008,2019-08-07 17:05:39:021
-2.524,14.2984,-0.0329,0.2107,-5.5866,-4.4442,0.0751,-0.3607,0.4165,2013,2019-08-07 17:05:39:026
-2.0551,13.4056,0.7968,0.2107,-5.5866,-4.4442,-0.1635,-0.3212,0.5359,2018,2019-08-07 17:05:39:031
-2.0551,13.4056,0.7968,0.2107,-5.5866,-4.4442,-0.1635,-0.3212,0.5359,2023,2019-08-07 17:05:39:036
-2.0551,13.4056,0.7968,-0.2437,-4.2768,-4.8439,-0.4628,-0.2094,0.6754,2028,2019-08-07 17:05:39:041
-1.8542,12.7707,0.5139,-0.2437,-4.2768,-4.8439,-0.4628,-0.2094,0.6754,2033,2019-08-07 17:05:39:046
-1.8542,12.7707,0.5139,-0.2437,-4.2768,-4.8439,-0.4628,-0.2094,0.6754,2038,2019-08-07 17:05:39:051
-2.0456,12.4843,0.7072,-0.2437,-4.2768,-4.8439,-0.8101,-0.0848,0.8043,2043,2019-08-07 17:05:39:056
-2.0456,12.4843,0.7072,0.0776,-3.6575,-5.2003,-0.8101,-0.0848,0.8043,2047,2019-08-07 17:05:39:060
-2.0456,12.4843,0.7072,0.0776,-3.6575,-5.2003,-1.0658,-0.0784,0.8853,2053,2019-08-07 17:05:39:066
-2.1747,12.2743,1.3011,0.0776,-3.6575,-5.2003,-1.0658,-0.0784,0.8853,2057,2019-08-07 17:05:39:070
-2.1747,12.2743,1.3011,0.0776,-3.6575,-5.2003,-1.2831,-0.1348,0.9428,2063,2019-08-07 17:05:39:076
-2.1747,12.2743,1.3011,0.2365,-3.3032,-5.074,-1.2831,-0.1348,0.9428,2068,2019-08-07 17:05:39:081
-2.0073,12.1501,1.1974,0.2365,-3.3032,-5.074,-1.5334,-0.1732,0.995,2072,2019-08-07 17:05:39:085
-2.0073,12.1501,1.1974,0.2365,-3.3032,-5.074,-1.5334,-0.1732,0.995,2078,2019-08-07 17:05:39:091
-1.792,12.1454,0.6836,0.2365,-3.3032,-5.074,-1.7475,-0.1103,1.0056,2083,2019-08-07 17:05:39:096
-1.792,12.1454,0.6836,0.1005,-3.2147,-4.0704,-1.7475,-0.1103,1.0056,2087,2019-08-07 17:05:39:100
-1.792,12.1454,0.6836,0.1005,-3.2147,-4.0704,-1.7475,-0.1103,1.0056,2093,2019-08-07 17:05:39:106
-1.6054,12.3506,0.5375,0.1005,-3.2147,-4.0704,-1.9691,-6.0E-4,0.995,2097,2019-08-07 17:05:39:110
-1.6054,12.3506,0.5375,0.1005,-3.2147,-4.0704,-1.9691,-6.0E-4,0.995,2103,2019-08-07 17:05:39:116
-1.6054,12.3506,0.5375,0.1005,-3.2147,-4.0704,-2.2205,0.1517,0.9534,2108,2019-08-07 17:05:39:121
-1.5097,12.6991,0.4244,0.0188,-3.5171,-3.5395,-2.2205,0.1517,0.9534,2113,2019-08-07 17:05:39:126
-1.5097,12.6991,0.4244,0.0188,-3.5171,-3.5395,-2.3696,0.2742,0.9385,2118,2019-08-07 17:05:39:131
-1.4188,12.532,0.316,0.0188,-3.5171,-3.5395,-2.3696,0.2742,0.9385,2123,2019-08-07 17:05:39:136
-1.4188,12.532,0.316,0.0188,-3.5171,-3.5395,-2.3696,0.2742,0.9385,2127,2019-08-07 17:05:39:140
-1.4188,12.532,0.316,0.3179,-3.3433,-3.1735,-2.5401,0.3488,0.9247,2133,2019-08-07 17:05:39:146
-1.6676,12.7707,0.5092,0.3179,-3.3433,-3.1735,-2.5401,0.3488,0.9247,2137,2019-08-07 17:05:39:150
-1.6676,12.7707,0.5092,0.3179,-3.3433,-3.1735,-2.7297,0.3243,0.9076,2143,2019-08-07 17:05:39:156
-1.5958,12.9092,0.3065,0.3179,-3.3433,-3.1735,-2.7297,0.3243,0.9076,2148,2019-08-07 17:05:39:161
-1.5958,12.9092,0.3065,0.4698,-3.5636,-2.5412,-2.8277,0.2465,0.9023,2152,2019-08-07 17:05:39:165
-1.5958,12.9092,0.3065,0.4698,-3.5636,-2.5412,-2.8277,0.2465,0.9023,2158,2019-08-07 17:05:39:171
-1.1844,13.0046,0.4102,0.1694,-3.4233,-2.2554,-2.8277,0.2465,0.9023,2162,2019-08-07 17:05:39:175
-1.1844,13.0046,0.4102,0.1694,-3.4233,-2.2554,-2.881,0.1081,0.8629,2168,2019-08-07 17:05:39:181
-1.1844,13.0046,0.4102,0.1694,-3.4233,-2.2554,-2.881,0.1081,0.8629,2173,2019-08-07 17:05:39:186
-0.3615,12.7373,-0.2638,0.1694,-3.4233,-2.2554,-2.881,0.1081,0.8629,2177,2019-08-07 17:05:39:190
-0.3615,12.7373,-0.2638,-0.9592,-2.8086,-0.5366,-2.8117,0.0985,0.8022,2183,2019-08-07 17:05:39:196
1.136,12.3077,-1.4706,-0.9592,-2.8086,-0.5366,-2.8117,0.0985,0.8022,2188,2019-08-07 17:05:39:201
1.136,12.3077,-1.4706,-0.9592,-2.8086,-0.5366,-2.6796,0.2977,0.6584,2193,2019-08-07 17:05:39:206
1.136,12.3077,-1.4706,-0.9592,-2.8086,-0.5366,-2.6796,0.2977,0.6584,2198,2019-08-07 17:05:39:211
2.155,12.0117,-2.9696,-2.8436,-2.2551,2.2136,-2.4996,0.7579,0.4964,2203,2019-08-07 17:05:39:216
2.155,12.0117,-2.9696,-2.8436,-2.2551,2.2136,-2.4996,0.7579,0.4964,2207,2019-08-07 17:05:39:220
2.0689,11.7253,-4.4403,-2.6988,-1.95,3.9084,-2.327,1.5355,0.3143,2213,2019-08-07 17:05:39:226
2.0689,11.7253,-4.4403,-2.6988,-1.95,3.9084,-2.327,1.5355,0.3143,2218,2019-08-07 17:05:39:231
2.0689,11.7253,-4.4403,-2.6988,-1.95,3.9084,-2.1694,2.5411,0.1374,2222,2019-08-07 17:05:39:235
1.557,11.8207,-4.4308,-2.6988,-1.95,3.9084,-2.1694,2.5411,0.1374,2228,2019-08-07 17:05:39:241
1.557,11.8207,-4.4308,-2.0376,-2.1425,3.6126,-2.1694,2.5411,0.1374,2233,2019-08-07 17:05:39:246
1.026,12.2838,-2.7291,-2.0376,-2.1425,3.6126,-2.0383,3.0951,0.0831,2237,2019-08-07 17:05:39:250
1.026,12.2838,-2.7291,-2.0376,-2.1425,3.6126,-2.0383,3.0951,0.0831,2243,2019-08-07 17:05:39:256
0.1696,12.1072,-2.946,-0.6945,-2.3129,3.1293,-1.7731,3.2698,0.2301,2248,2019-08-07 17:05:39:261
0.1696,12.1072,-2.946,-0.6945,-2.3129,3.1293,-1.7731,3.2698,0.2301,2253,2019-08-07 17:05:39:266
0.1696,12.1072,-2.946,-0.6945,-2.3129,3.1293,-1.7614,2.8927,0.3793,2257,2019-08-07 17:05:39:270
-0.2705,12.6084,-5.3547,-0.224,-2.8163,5.6807,-1.7614,2.8927,0.3793,2263,2019-08-07 17:05:39:276
-0.2705,12.6084,-5.3547,-0.224,-2.8163,5.6807,-1.6037,2.359,0.3867,2268,2019-08-07 17:05:39:281
-0.2705,12.6084,-5.3547,-0.224,-2.8163,5.6807,-1.6037,2.359,0.3867,2273,2019-08-07 17:05:39:286
-4.9782,10.126,4.3698,-0.224,-2.8163,5.6807,-1.6037,2.359,0.3867,2277,2019-08-07 17:05:39:290
-4.9782,10.126,4.3698,4.2422,0.9533,-1.1369,-1.2394,2.2258,0.4943,2283,2019-08-07 17:05:39:296
-5.5093,9.0424,2.1119,4.2422,0.9533,-1.1369,-1.1968,1.56,0.2621,2288,2019-08-07 17:05:39:301
-5.5093,9.0424,2.1119,4.2422,0.9533,-1.1369,-1.1968,1.56,0.2621,2293,2019-08-07 17:05:39:306
-5.5093,9.0424,2.1119,4.2422,0.9533,-1.1369,-0.8378,-0.0304,0.3132,2298,2019-08-07 17:05:39:311
-6.3322,10.3122,11.1247,5.8939,-0.5478,-10.2873,-0.8378,-0.0304,0.3132,2303,2019-08-07 17:05:39:316
-6.3322,10.3122,11.1247,5.8939,-0.5478,-10.2873,-0.6269,-2.2867,0.4794,2308,2019-08-07 17:05:39:321
-6.3322,10.3122,11.1247,5.8939,-0.5478,-10.2873,-0.6269,-2.2867,0.4794,2313,2019-08-07 17:05:39:326
-2.3947,9.4768,5.7274,5.8939,-0.5478,-10.2873,-0.6269,-2.2867,0.4794,2318,2019-08-07 17:05:39:331
-2.3947,9.4768,5.7274,-1.7801,-1.2078,-1.2321,-0.3755,-3.2731,0.5369,2322,2019-08-07 17:05:39:335
3.3416,12.4175,0.6837,-1.7801,-1.2078,-1.2321,-0.3755,-3.2731,0.5369,2328,2019-08-07 17:05:39:341
3.3416,12.4175,0.6837,-1.7801,-1.2078,-1.2321,-0.3872,-3.288,0.6552,2332,2019-08-07 17:05:39:345
8.1497,15.0478,-0.9615,-5.9414,-3.9974,0.7429,-0.3872,-3.288,0.6552,2338,2019-08-07 17:05:39:351
8.1497,15.0478,-0.9615,-5.9414,-3.9974,0.7429,-0.2785,-2.5114,0.8746,2342,2019-08-07 17:05:39:355
8.1497,15.0478,-0.9615,-5.9414,-3.9974,0.7429,-0.2785,-2.5114,0.8746,2348,2019-08-07 17:05:39:361
8.0541,14.179,-6.4672,-8.0104,-4.4301,7.5592,-0.2839,-0.692,0.5731,2353,2019-08-07 17:05:39:366
8.0541,14.179,-6.4672,-8.0104,-4.4301,7.5592,-0.2839,-0.692,0.5731,2357,2019-08-07 17:05:39:370
8.0541,14.179,-6.4672,-8.0104,-4.4301,7.5592,-0.6279,1.7528,0.0245,2363,2019-08-07 17:05:39:376
0.7677,11.6584,-5.317,-8.0104,-4.4301,7.5592,-0.6279,1.7528,0.0245,2368,2019-08-07 17:05:39:381
0.7677,11.6584,-5.317,1.6462,-0.1528,-0.7161,-0.8261,3.0311,0.0331,2372,2019-08-07 17:05:39:385
-1.5335,8.5507,8.7113,1.6462,-0.1528,-0.7161,-0.8261,3.0311,0.0331,2378,2019-08-07 17:05:39:391
-1.5335,8.5507,8.7113,1.6462,-0.1528,-0.7161,-0.4958,2.0415,0.1311,2383,2019-08-07 17:05:39:396
-1.5335,8.5507,8.7113,1.6462,-0.1528,-0.7161,-0.4958,2.0415,0.1311,2388,2019-08-07 17:05:39:401
-2.9401,7.9587,4.5631,3.4949,1.4128,-2.4976,-0.4958,2.0415,0.1311,2392,2019-08-07 17:05:39:405
-2.9401,7.9587,4.5631,3.4949,1.4128,-2.4976,-0.2008,-0.2925,0.0618,2398,2019-08-07 17:05:39:411
-2.9401,7.9587,4.5631,3.4949,1.4128,-2.4976,-0.2008,-0.2925,0.0618,2402,2019-08-07 17:05:39:415
-2.4186,8.5936,3.5214,3.4949,1.4128,-2.4976,0.0741,-1.2342,0.1907,2408,2019-08-07 17:05:39:421
-2.4186,8.5936,3.5214,0.6002,0.4173,2.3856,0.0741,-1.2342,0.1907,2413,2019-08-07 17:05:39:426
-0.1461,9.6773,-1.8712,0.6002,0.4173,2.3856,0.0443,-0.9007,0.2472,2417,2019-08-07 17:05:39:430
-0.1461,9.6773,-1.8712,0.6002,0.4173,2.3856,0.0443,-0.9007,0.2472,2423,2019-08-07 17:05:39:436
-0.1461,9.6773,-1.8712,0.6002,0.4173,2.3856,-0.1155,0.0985,0.2355,2428,2019-08-07 17:05:39:441
1.227,10.4315,-0.2921,0.6002,0.4173,2.3856,-0.1155,0.0985,0.2355,2432,2019-08-07 17:05:39:445
1.227,10.4315,-0.2921,-1.1788,-0.7225,0.9364,-0.074,0.2987,0.2056,2438,2019-08-07 17:05:39:451
1.227,10.4315,-0.2921,-1.1788,-0.7225,0.9364,-0.074,0.2987,0.2056,2442,2019-08-07 17:05:39:455
1.1313,10.231,2.1308,-1.1788,-0.7225,0.9364,-0.0016,-0.0219,0.147,2448,2019-08-07 17:05:39:461
1.1313,10.231,2.1308,-0.828,0.106,-0.0461,-0.0016,-0.0219,0.147,2452,2019-08-07 17:05:39:465
0.9304,9.3956,0.5187,-0.828,0.106,-0.0461,0.0421,-0.1561,0.1204,2458,2019-08-07 17:05:39:471
0.9304,9.3956,0.5187,-0.828,0.106,-0.0461,0.0421,-0.1561,0.1204,2462,2019-08-07 17:05:39:475
0.9304,9.3956,0.5187,-0.8966,0.4839,1.4547,0.0283,0.0378,0.1279,2468,2019-08-07 17:05:39:481
1.0356,9.2094,-0.3015,-0.8966,0.4839,1.4547,0.0283,0.0378,0.1279,2473,2019-08-07 17:05:39:486
1.0356,9.2094,-0.3015,-0.8966,0.4839,1.4547,0.007,0.2316,0.1151,2478,2019-08-07 17:05:39:491
1.0356,9.2094,-0.3015,-0.8966,0.4839,1.4547,0.007,0.2316,0.1151,2482,2019-08-07 17:05:39:495
0.7869,9.5245,1.3012,-0.6065,0.1939,0.024,0.007,0.2316,0.1151,2487,2019-08-07 17:05:39:500
0.7869,9.5245,1.3012,-0.6065,0.1939,0.024,0.0432,0.1848,0.0991,2493,2019-08-07 17:05:39:506
0.9543,10.1212,1.419,-0.6065,0.1939,0.024,0.0432,0.1848,0.0991,2498,2019-08-07 17:05:39:511
0.9543,10.1212,1.419,-0.6065,0.1939,0.024,0.1092,-0.0443,0.0735,2502,2019-08-07 17:05:39:515
0.9543,10.1212,1.419,-0.7537,-0.3823,1.0331,0.1092,-0.0443,0.0735,2508,2019-08-07 17:05:39:521
1.0213,10.0496,-1.1076,-0.7537,-0.3823,1.0331,0.073,0.0868,0.048,2513,2019-08-07 17:05:39:526
1.0213,10.0496,-1.1076,-0.7537,-0.3823,1.0331,0.073,0.0868,0.048,2518,2019-08-07 17:05:39:531
1.0213,10.0496,-1.1076,-0.7537,-0.3823,1.0331,0.073,0.0868,0.048,2522,2019-08-07 17:05:39:535
1.0213,10.0496,-1.1076,-0.2547,-0.7748,2.6392,-0.0356,0.4042,0.0405,2528,2019-08-07 17:05:39:541
0.3037,10.5509,-1.1311,-0.2547,-0.7748,2.6392,-0.0356,0.4042,0.0405,2532,2019-08-07 17:05:39:545
0.3037,10.5509,-1.1311,-0.2547,-0.7748,2.6392,-0.09,0.5097,0.0267,2538,2019-08-07 17:05:39:551
-0.9355,10.8516,0.1557,-0.2547,-0.7748,2.6392,-0.09,0.5097,0.0267,2543,2019-08-07 17:05:39:556
-0.9355,10.8516,0.1557,1.26,-1.0954,1.0205,-0.1475,0.4255,0.0224,2547,2019-08-07 17:05:39:560
-0.9355,10.8516,0.1557,1.26,-1.0954,1.0205,-0.1475,0.4255,0.0224,2553,2019-08-07 17:05:39:566
-1.3373,10.2167,0.5375,1.26,-1.0954,1.0205,-0.1709,0.1848,0.0522,2558,2019-08-07 17:05:39:571
-1.3373,10.2167,0.5375,1.26,-1.0954,1.0205,-0.1709,0.1848,0.0522,2563,2019-08-07 17:05:39:576
-1.0216,10.0974,0.4621,1.3962,-0.3972,0.8268,-0.1986,-0.072,0.0959,2568,2019-08-07 17:05:39:581
-1.0216,10.0974,0.4621,1.3962,-0.3972,0.8268,-0.1986,-0.072,0.0959,2572,2019-08-07 17:05:39:585
-1.0216,10.0974,0.4621,1.3962,-0.3972,0.8268,-0.2253,-0.2648,0.1193,2578,2019-08-07 17:05:39:591
-0.103,10.2263,0.5517,1.3962,-0.3972,0.8268,-0.2253,-0.2648,0.1193,2583,2019-08-07 17:05:39:596
-0.103,10.2263,0.5517,-0.006,-0.4789,1.1306,-0.2253,-0.2648,0.1193,2588,2019-08-07 17:05:39:601
-0.103,10.2263,0.5517,-0.006,-0.4789,1.1306,-0.2434,-0.3159,0.1236,2592,2019-08-07 17:05:39:605
0.763,10.1738,-0.2072,-0.6288,-0.4817,1.5388,-0.2434,-0.3159,0.1236,2598,2019-08-07 17:05:39:611
0.763,10.1738,-0.2072,-0.6288,-0.4817,1.5388,-0.2657,-0.1764,0.1012,2603,2019-08-07 17:05:39:616
0.8778,10.0067,0.1793,-0.6288,-0.4817,1.5388,-0.2657,-0.1764,0.1012,2608,2019-08-07 17:05:39:621
0.8778,10.0067,0.1793,-0.6288,-0.4817,1.5388,-0.2775,0.0154,0.0895,2614,2019-08-07 17:05:39:627
0.8778,10.0067,0.1793,-0.3914,-0.1114,0.6671,-0.2775,0.0154,0.0895,2618,2019-08-07 17:05:39:631
0.5573,9.6391,1.0796,-0.3914,-0.1114,0.6671,-0.2551,0.0708,0.1023,2623,2019-08-07 17:05:39:636
0.5573,9.6391,1.0796,-0.3914,-0.1114,0.6671,-0.2551,0.0708,0.1023,2628,2019-08-07 17:05:39:641
0.2128,9.6439,1.5133,-0.3914,-0.1114,0.6671,-0.2274,-0.0507,0.0853,2633,2019-08-07 17:05:39:646
0.2128,9.6439,1.5133,0.0819,0.005,-0.0713,-0.2274,-0.0507,0.0853,2638,2019-08-07 17:05:39:651
0.2128,9.6439,1.5133,0.0819,0.005,-0.0713,-0.2274,-0.0507,0.0853,2643,2019-08-07 17:05:39:656
0.4568,9.6343,1.8716,0.0819,0.005,-0.0713,-0.1528,-0.2328,0.0821,2648,2019-08-07 17:05:39:661
0.4568,9.6343,1.8716,0.0819,0.005,-0.0713,-0.1528,-0.2328,0.0821,2653,2019-08-07 17:05:39:666
0.4568,9.6343,1.8716,-0.497,0.1334,-0.1078,-0.0719,-0.3777,0.0533,2657,2019-08-07 17:05:39:670
0.9591,9.5532,1.32,-0.497,0.1334,-0.1078,-0.0719,-0.3777,0.0533,2663,2019-08-07 17:05:39:676
0.9591,9.5532,1.32,-0.497,0.1334,-0.1078,-0.0271,-0.317,0.0213,2668,2019-08-07 17:05:39:681
0.9591,9.5532,1.32,-0.497,0.1334,-0.1078,-0.0271,-0.317,0.0213,2673,2019-08-07 17:05:39:686
1.3849,9.5722,1.0419,-1.1211,0.0894,0.4363,0.0123,-0.187,0.0011,2678,2019-08-07 17:05:39:691
1.3849,9.5722,1.0419,-1.1211,0.0894,0.4363,0.0123,-0.187,0.0011,2682,2019-08-07 17:05:39:695
1.5763,9.6343,1.0136,-1.1211,0.0894,0.4363,0.0528,-0.0379,-0.0479,2688,2019-08-07 17:05:39:701
1.5763,9.6343,1.0136,-1.1211,0.0894,0.4363,0.0528,-0.0379,-0.0479,2693,2019-08-07 17:05:39:706
1.5763,9.6343,1.0136,-0.9341,0.0673,0.6642,0.0528,-0.0379,-0.0479,2698,2019-08-07 17:05:39:711
1.1792,9.5675,0.7402,-0.9341,0.0673,0.6642,0.0719,0.0718,-0.0724,2703,2019-08-07 17:05:39:716
1.1792,9.5675,0.7402,-0.9341,0.0673,0.6642,0.0719,0.0718,-0.0724,2708,2019-08-07 17:05:39:721
1.1792,9.5675,0.7402,-0.9341,0.0673,0.6642,0.0624,0.1485,-0.1033,2712,2019-08-07 17:05:39:725
1.6433,9.3861,0.3726,-0.8849,-0.2541,1.0139,0.0624,0.1485,-0.1033,2717,2019-08-07 17:05:39:730
1.6433,9.3861,0.3726,-0.8849,-0.2541,1.0139,0.0102,0.0921,-0.1299,2723,2019-08-07 17:05:39:736
0.0549,10.083,-0.1177,-0.8849,-0.2541,1.0139,0.0102,0.0921,-0.1299,2728,2019-08-07 17:05:39:741
0.0549,10.083,-0.1177,-0.8849,-0.2541,1.0139,0.0261,0.1358,-0.0511,2733,2019-08-07 17:05:39:746
0.0549,10.083,-0.1177,0.045,-0.7099,0.4788,0.0261,0.1358,-0.0511,2738,2019-08-07 17:05:39:751
0.0358,10.5795,1.0844,0.045,-0.7099,0.4788,0.0261,0.1358,-0.0511,2742,2019-08-07 17:05:39:755
0.0358,10.5795,1.0844,0.045,-0.7099,0.4788,0.0325,0.0782,-0.1182,2748,2019-08-07 17:05:39:761
-1.0693,10.2358,0.5753,0.045,-0.7099,0.4788,0.0325,0.0782,-0.1182,2753,2019-08-07 17:05:39:766
-1.0693,10.2358,0.5753,1.315,-0.2586,1.2785,0.0187,0.1368,-0.0841,2757,2019-08-07 17:05:39:770
-1.0693,10.2358,0.5753,1.315,-0.2586,1.2785,0.0187,0.1368,-0.0841,2763,2019-08-07 17:05:39:776
-0.9545,10.083,0.151,1.315,-0.2586,1.2785,-0.0101,0.1432,-0.0692,2768,2019-08-07 17:05:39:781
-0.9545,10.083,0.151,1.263,-0.482,1.1045,-0.0101,0.1432,-0.0692,2773,2019-08-07 17:05:39:786
-0.9545,10.083,0.151,1.263,-0.482,1.1045,-0.0431,-0.0603,-0.0554,2778,2019-08-07 17:05:39:791
-0.744,10.4793,1.0089,1.263,-0.482,1.1045,-0.0431,-0.0603,-0.0554,2783,2019-08-07 17:05:39:796
-0.744,10.4793,1.0089,0.6252,-0.6157,0.9377,-0.0495,-0.1849,-0.0319,2788,2019-08-07 17:05:39:801
-0.744,10.4793,1.0089,0.6252,-0.6157,0.9377,-0.0495,-0.1849,-0.0319,2793,2019-08-07 17:05:39:806
-0.2464,10.2788,0.1746,0.6252,-0.6157,0.9377,-0.0793,-0.1785,-0.0277,2798,2019-08-07 17:05:39:811
-0.2464,10.2788,0.1746,0.6252,-0.6157,0.9377,-0.0793,-0.1785,-0.0277,2803,2019-08-07 17:05:39:816
-0.2464,10.2788,0.1746,0.0584,-0.1342,0.707,-0.0793,-0.1785,-0.0277,2808,2019-08-07 17:05:39:821
0.1746,9.8348,0.7355,0.0584,-0.1342,0.707,-0.0878,-0.1998,-0.0106,2812,2019-08-07 17:05:39:825
0.1746,9.8348,0.7355,0.0584,-0.1342,0.707,-0.0804,-0.317,0.0011,2818,2019-08-07 17:05:39:831
0.2272,9.6964,0.9712,0.0584,-0.1342,0.707,-0.0804,-0.317,0.0011,2823,2019-08-07 17:05:39:836
0.2272,9.6964,0.9712,0.0584,-0.1342,0.707,-0.0804,-0.317,0.0011,2828,2019-08-07 17:05:39:841
0.2272,9.6964,0.9712,0.0324,-0.0452,0.6417,-0.0623,-0.4192,-0.0064,2833,2019-08-07 17:05:39:846
0.2559,9.7727,0.7638,0.0324,-0.0452,0.6417,-0.0474,-0.4832,-0.0096,2838,2019-08-07 17:05:39:851
0.2559,9.7727,0.7638,0.0324,-0.0452,0.6417,-0.0474,-0.4832,-0.0096,2843,2019-08-07 17:05:39:856
0.8587,9.7584,0.745,0.0324,-0.0452,0.6417,-0.0474,-0.4832,-0.0096,2847,2019-08-07 17:05:39:860
0.8587,9.7584,0.745,-0.9,0.0353,1.0204,-0.0378,-0.4746,-0.0394,2853,2019-08-07 17:05:39:866
1.0214,10.1356,0.2406,-0.9,0.0353,1.0204,-0.0378,-0.4746,-0.0394,2858,2019-08-07 17:05:39:871
1.0214,10.1356,0.2406,-0.9,0.0353,1.0204,-0.0559,-0.2754,-0.0639,2863,2019-08-07 17:05:39:876
1.0214,10.1356,0.2406,-0.9806,-0.337,1.1132,-0.0559,-0.2754,-0.0639,2867,2019-08-07 17:05:39:880
1.1984,9.9398,0.2217,-0.9806,-0.337,1.1132,-0.0719,-0.1039,-0.0745,2873,2019-08-07 17:05:39:886
1.1984,9.9398,0.2217,-0.9806,-0.337,1.1132,-0.0719,-0.1039,-0.0745,2878,2019-08-07 17:05:39:891
1.1984,9.9398,0.2217,-0.5096,-0.1605,1.3502,-0.0719,-0.1039,-0.0745,2883,2019-08-07 17:05:39:896
0.3328,9.8873,0.0992,-0.5096,-0.1605,1.3502,-0.0974,-0.0059,-0.098,2888,2019-08-07 17:05:39:901
0.3328,9.8873,0.0992,-0.5096,-0.1605,1.3502,-0.0974,-0.0059,-0.098,2893,2019-08-07 17:05:39:906
-0.1457,9.9875,1.0797,-0.5096,-0.1605,1.3502,-0.1198,0.0314,-0.0831,2898,2019-08-07 17:05:39:911
-0.1457,9.9875,1.0797,0.4852,-0.2909,0.2563,-0.1198,0.0314,-0.0831,2903,2019-08-07 17:05:39:916
-0.1457,9.9875,1.0797,0.4852,-0.2909,0.2563,-0.1006,-0.1103,-0.0649,2908,2019-08-07 17:05:39:921
-0.3896,9.9302,0.9524,0.4852,-0.2909,0.2563,-0.1006,-0.1103,-0.0649,2912,2019-08-07 17:05:39:925
-0.3896,9.9302,0.9524,0.4852,-0.2909,0.2563,-0.0857,-0.2392,-0.0596,2918,2019-08-07 17:05:39:931
0.0218,9.9016,0.8723,0.3521,-0.1592,0.582,-0.0857,-0.2392,-0.0596,2923,2019-08-07 17:05:39:936
0.0218,9.9016,0.8723,0.3521,-0.1592,0.582,-0.0868,-0.2957,-0.0586,2928,2019-08-07 17:05:39:941
0.0218,9.9016,0.8723,0.3521,-0.1592,0.582,-0.0868,-0.2957,-0.0586,2933,2019-08-07 17:05:39:946
0.4811,10.0639,0.3632,0.3521,-0.1592,0.582,-0.0985,-0.2275,-0.0522,2938,2019-08-07 17:05:39:951
0.4811,10.0639,0.3632,-0.3101,-0.3275,1.4297,-0.0985,-0.2275,-0.0522,2943,2019-08-07 17:05:39:956
0.4811,10.0639,0.3632,-0.3101,-0.3275,1.4297,-0.0985,-0.2275,-0.0522,2948,2019-08-07 17:05:39:961
0.4189,9.9971,-0.0752,-0.3101,-0.3275,1.4297,-0.1251,-0.0283,-0.0468,2953,2019-08-07 17:05:39:966
0.4189,9.9971,-0.0752,-0.3101,-0.3275,1.4297,-0.1251,-0.0283,-0.0468,2957,2019-08-07 17:05:39:970
-0.2413,9.9398,0.8676,0.3558,-0.2772,0.7897,-0.155,0.1379,-0.0394,2963,2019-08-07 17:05:39:976
-0.2413,9.9398,0.8676,0.3558,-0.2772,0.7897,-0.155,0.1379,-0.0394,2967,2019-08-07 17:05:39:980
-0.2413,9.9398,0.8676,0.3558,-0.2772,0.7897,-0.1411,0.0431,-0.0245,2973,2019-08-07 17:05:39:986
-0.4183,9.8204,1.5087,0.3558,-0.2772,0.7897,-0.1411,0.0431,-0.0245,2978,2019-08-07 17:05:39:991
-0.4183,9.8204,1.5087,0.3972,-0.1473,0.0751,-0.0889,-0.1455,-0.0213,2983,2019-08-07 17:05:39:996
-0.4183,9.8204,1.5087,0.3972,-0.1473,0.0751,-0.0889,-0.1455,-0.0213,2988,2019-08-07 17:05:40:001
-0.0451,9.9398,0.9855,0.3972,-0.1473,0.0751,-0.0889,-0.1455,-0.0213,2993,2019-08-07 17:05:40:006
-0.0451,9.9398,0.9855,0.3972,-0.1473,0.0751,-0.0516,-0.2392,-0.0255,2998,2019-08-07 17:05:40:011
0.5481,9.8348,0.8346,-0.3196,-0.2057,0.6247,-0.0516,-0.2392,-0.0255,3003,2019-08-07 17:05:40:016
0.5481,9.8348,0.8346,-0.3196,-0.2057,0.6247,-0.0548,-0.1508,-0.0362,3008,2019-08-07 17:05:40:021
0.5481,9.8348,0.8346,-0.3196,-0.2057,0.6247,-0.0548,-0.1508,-0.0362,3012,2019-08-07 17:05:40:025
0.5481,9.8348,0.8346,-0.3196,-0.2057,0.6247,-0.0548,-0.1508,-0.0362,3018,2019-08-07 17:05:40:031
0.6055,9.7966,0.6838,-0.4003,-0.1105,0.8572,-0.0601,-0.0986,-0.0415,3023,2019-08-07 17:05:40:036
0.6055,9.7966,0.6838,-0.4003,-0.1105,0.8572,-0.0601,-0.0986,-0.0415,3027,2019-08-07 17:05:40:040
0.3089,9.7632,1.2871,-0.4003,-0.1105,0.8572,-0.0452,0.0015,-0.0266,3033,2019-08-07 17:05:40:046
0.3089,9.7632,1.2871,-0.4003,-0.1105,0.8572,-0.0452,0.0015,-0.0266,3038,2019-08-07 17:05:40:051
0.3089,9.7632,1.2871,-0.0387,-0.0976,0.3576,-0.0452,0.0015,-0.0266,3042,2019-08-07 17:05:40:055
0.2228,9.8395,1.207,-0.0387,-0.0976,0.3576,-0.0229,-0.0539,-0.0372,3048,2019-08-07 17:05:40:061
0.2228,9.8395,1.207,-0.0387,-0.0976,0.3576,-0.0229,-0.0539,-0.0372,3052,2019-08-07 17:05:40:065
0.108,9.9064,0.7592,-0.0387,-0.0976,0.3576,-0.0069,-0.0571,-0.033,3058,2019-08-07 17:05:40:071
0.108,9.9064,0.7592,0.171,-0.2069,0.7934,-0.0069,-0.0571,-0.033,3063,2019-08-07 17:05:40:076
0.108,9.9064,0.7592,0.171,-0.2069,0.7934,-0.0207,-0.023,-0.0277,3068,2019-08-07 17:05:40:081
0.1654,9.8395,0.9242,0.171,-0.2069,0.7934,-0.0207,-0.023,-0.0277,3073,2019-08-07 17:05:40:086
0.1654,9.8395,0.9242,0.171,-0.2069,0.7934,-0.0016,-0.0539,-0.0362,3078,2019-08-07 17:05:40:091
0.1654,9.9541,0.9383,0.0228,-0.2685,0.6075,-0.0016,-0.0539,-0.0362,3082,2019-08-07 17:05:40:095
0.1654,9.9541,0.9383,0.0228,-0.2685,0.6075,0.0102,-0.0794,-0.0309,3088,2019-08-07 17:05:40:101
0.1654,9.9541,0.9383,0.0228,-0.2685,0.6075,0.0102,-0.0794,-0.0309,3092,2019-08-07 17:05:40:105
0.1942,9.978,0.5848,0.0228,-0.2685,0.6075,-0.0037,-0.0166,-0.0298,3097,2019-08-07 17:05:40:110
0.1942,9.978,0.5848,-0.0389,-0.3005,0.8351,-0.0037,-0.0166,-0.0298,3103,2019-08-07 17:05:40:116
0.1846,10.0639,0.877,-0.0389,-0.3005,0.8351,-0.0037,-0.0166,-0.0298,3108,2019-08-07 17:05:40:121
0.1846,10.0639,0.877,-0.0389,-0.3005,0.8351,-0.0356,0.0026,-0.0479,3113,2019-08-07 17:05:40:126
0.1846,10.0639,0.877,-0.0389,-0.3005,0.8351,-0.0356,0.0026,-0.0479,3117,2019-08-07 17:05:40:130
0.1511,10.0496,0.7404,0.1004,-0.3864,0.8967,-0.0356,0.0079,-0.0543,3123,2019-08-07 17:05:40:136
0.1511,10.0496,0.7404,0.1004,-0.3864,0.8967,-0.0356,0.0079,-0.0543,3128,2019-08-07 17:05:40:141
0.0937,9.83,0.8252,0.1004,-0.3864,0.8967,-0.0442,0.0441,-0.0447,3132,2019-08-07 17:05:40:145
0.0937,9.83,0.8252,0.0756,-0.1429,0.7134,-0.0442,0.0441,-0.0447,3138,2019-08-07 17:05:40:151
0.0937,9.83,0.8252,0.0756,-0.1429,0.7134,-0.0442,0.0441,-0.0447,3142,2019-08-07 17:05:40:155
0.1176,9.8491,1.0326,0.0756,-0.1429,0.7134,-0.0442,0.0196,-0.0479,3148,2019-08-07 17:05:40:161
0.1176,9.8491,1.0326,0.0845,-0.2912,0.6745,-0.0442,0.0196,-0.0479,3152,2019-08-07 17:05:40:165
0.1368,9.9637,0.7451,0.0845,-0.2912,0.6745,-0.0303,-0.0176,-0.0468,3158,2019-08-07 17:05:40:171
0.1368,9.9637,0.7451,0.0845,-0.2912,0.6745,-0.0303,-0.0176,-0.0468,3163,2019-08-07 17:05:40:176
0.1368,9.9637,0.7451,0.0845,-0.2912,0.6745,-0.041,0.0132,-0.0575,3168,2019-08-07 17:05:40:181
0.266,9.8873,0.8912,-0.0689,-0.2531,0.5907,-0.041,0.0132,-0.0575,3173,2019-08-07 17:05:40:186
0.266,9.8873,0.8912,-0.0689,-0.2531,0.5907,-0.0293,0.0537,-0.0447,3178,2019-08-07 17:05:40:191
0.266,9.8873,0.8912,-0.0689,-0.2531,0.5907,-0.0293,0.0537,-0.0447,3183,2019-08-07 17:05:40:196
0.1272,9.9064,0.8346,-0.0689,-0.2531,0.5907,-0.0293,0.0537,-0.0447,3187,2019-08-07 17:05:40:200
0.1272,9.9064,0.8346,0.1157,-0.2721,0.6717,-0.0356,0.0708,-0.0532,3193,2019-08-07 17:05:40:206
-0.0259,9.9589,0.9431,0.1157,-0.2721,0.6717,-0.0356,0.0708,-0.0532,3198,2019-08-07 17:05:40:211
-0.0259,9.9589,0.9431,0.1157,-0.2721,0.6717,-0.0378,0.0591,-0.05,3202,2019-08-07 17:05:40:215
-0.0259,9.9589,0.9431,0.1157,-0.2721,0.6717,-0.0378,0.0591,-0.05,3208,2019-08-07 17:05:40:221
0.0124,9.9111,1.0468,0.0749,-0.2102,0.6266,-0.0197,0.0143,-0.0372,3212,2019-08-07 17:05:40:225
0.0124,9.9111,1.0468,0.0749,-0.2102,0.6266,-0.0197,0.0143,-0.0372,3218,2019-08-07 17:05:40:231
0.0124,9.9111,1.0468,0.0749,-0.2102,0.6266,-0.0111,0.0047,-0.0426,3223,2019-08-07 17:05:40:236
0.2421,9.9923,0.7828,0.0749,-0.2102,0.6266,-0.0111,0.0047,-0.0426,3228,2019-08-07 17:05:40:241
0.2421,9.9923,0.7828,0.0749,-0.2102,0.6266,-0.0111,0.0047,-0.0426,3233,2019-08-07 17:05:40:246
0.2421,9.9923,0.7828,-0.0956,-0.3718,0.736,-0.0069,0.0463,-0.0479,3237,2019-08-07 17:05:40:250
0.2708,9.9875,0.8158,-0.0956,-0.3718,0.736,-0.0069,0.0463,-0.0479,3243,2019-08-07 17:05:40:256
0.2708,9.9875,0.8158,-0.0956,-0.3718,0.736,-0.0324,-0.0283,-0.0468,3248,2019-08-07 17:05:40:261
0.3282,8.9039,3.036,-0.2117,0.7802,-1.4732,0.0592,-0.9604,-0.1235,3253,2019-08-07 17:05:40:266
0.3282,8.9039,3.036,-0.2117,0.7802,-1.4732,0.0592,-0.9604,-0.1235,3258,2019-08-07 17:05:40:271
0.3282,8.9039,3.036,-0.2117,0.7802,-1.4732,0.0592,-0.9604,-0.1235,3263,2019-08-07 17:05:40:276
-0.9348,10.5317,-1.2253,-0.2117,0.7802,-1.4732,0.0485,-0.7111,-0.1065,3268,2019-08-07 17:05:40:281
-0.9348,10.5317,-1.2253,-0.2117,0.7802,-1.4732,0.0485,-0.7111,-0.1065,3272,2019-08-07 17:05:40:285
-0.9348,10.5317,-1.2253,-0.2454,0.1159,1.0609,-0.1177,-0.2882,-0.0181,3278,2019-08-07 17:05:40:291
0.5866,9.725,1.1552,-0.2454,0.1159,1.0609,-0.1177,-0.2882,-0.0181,3283,2019-08-07 17:05:40:296
0.5866,9.725,1.1552,-0.2454,0.1159,1.0609,0.0251,-0.1647,-0.0309,3288,2019-08-07 17:05:40:301
-0.1502,10.0066,0.8299,-0.2454,0.1159,1.0609,0.0251,-0.1647,-0.0309,3293,2019-08-07 17:05:40:306
-0.1502,10.0066,0.8299,0.1726,-0.1709,0.8604,0.008,-0.1039,0.0096,3298,2019-08-07 17:05:40:311
-0.1502,10.0066,0.8299,0.1726,-0.1709,0.8604,0.008,-0.1039,0.0096,3302,2019-08-07 17:05:40:315
0.2134,9.8395,0.2266,0.1726,-0.1709,0.8604,0.0251,0.1613,0.0022,3308,2019-08-07 17:05:40:321
0.2134,9.8395,0.2266,0.1726,-0.1709,0.8604,0.0251,0.1613,0.0022,3313,2019-08-07 17:05:40:326
0.4048,9.9111,0.368,-0.2625,-0.207,1.2102,0.0325,0.466,0.0277,3318,2019-08-07 17:05:40:331
0.4048,9.9111,0.368,-0.2625,-0.207,1.2102,0.0325,0.466,0.0277,3322,2019-08-07 17:05:40:335
0.4048,9.9111,0.368,-0.2625,-0.207,1.2102,0.0155,0.7089,0.0469,3328,2019-08-07 17:05:40:341
0.4383,9.8443,0.6037,-0.2625,-0.207,1.2102,0.0155,0.7089,0.0469,3333,2019-08-07 17:05:40:346
0.4383,9.8443,0.6037,-0.2907,-0.0905,0.8783,0.0187,0.8601,0.0384,3337,2019-08-07 17:05:40:350
0.7301,9.9732,0.5471,-0.2907,-0.0905,0.8783,0.0187,0.8601,0.0384,3344,2019-08-07 17:05:40:357
0.7301,9.9732,0.5471,-0.2907,-0.0905,0.8783,-0.0378,0.8793,-0.0138,3348,2019-08-07 17:05:40:361
0.7301,9.9732,0.5471,-0.2907,-0.0905,0.8783,-0.0378,0.8793,-0.0138,3353,2019-08-07 17:05:40:366
-0.7434,10.0878,2.4468,0.8295,-0.3961,-0.9302,-0.0378,0.8793,-0.0138,3358,2019-08-07 17:05:40:371
-0.7434,10.0878,2.4468,0.8295,-0.3961,-0.9302,-0.0633,0.1943,0.0043,3363,2019-08-07 17:05:40:376
-0.6381,9.6677,2.1074,0.8295,-0.3961,-0.9302,-0.0633,0.1943,0.0043,3367,2019-08-07 17:05:40:380
-0.6381,9.6677,2.1074,0.8295,-0.3961,-0.9302,0.0975,-0.2573,-0.0053,3373,2019-08-07 17:05:40:386
-0.6381,9.6677,2.1074,0.2486,-0.3968,0.7339,0.0975,-0.2573,-0.0053,3378,2019-08-07 17:05:40:391
-0.6381,9.6677,2.1074,0.2486,-0.3968,0.7339,0.0975,-0.2573,-0.0053,3382,2019-08-07 17:05:40:395
0.1178,10.0782,0.4434,0.2486,-0.3968,0.7339,0.0634,-0.3713,-0.0064,3388,2019-08-07 17:05:40:401
0.1178,10.0782,0.4434,0.2486,-0.3968,0.7339,0.0634,-0.3713,-0.0064,3392,2019-08-07 17:05:40:405
0.1178,10.0782,0.4434,-0.5238,-0.2265,1.4765,0.0634,-0.3713,-0.0064,3398,2019-08-07 17:05:40:411
0.1178,10.0782,0.4434,-0.5238,-0.2265,1.4765,0.0634,-0.3713,-0.0064,3403,2019-08-07 17:05:40:416
0.5292,9.8682,0.3916,-0.5238,-0.2265,1.4765,-0.0324,0.2838,-0.0074,3408,2019-08-07 17:05:40:421
0.5292,9.8682,0.3916,-0.5238,-0.2265,1.4765,-0.0324,0.2838,-0.0074,3413,2019-08-07 17:05:40:426
0.5292,9.8682,0.3916,0.3363,-0.1316,-0.1218,-0.0346,0.2604,-0.0213,3417,2019-08-07 17:05:40:430
-0.2649,9.8156,1.603,0.3363,-0.1316,-0.1218,-0.0346,0.2604,-0.0213,3423,2019-08-07 17:05:40:436
-0.2649,9.8156,1.603,0.3363,-0.1316,-0.1218,0.0357,-0.0251,-0.001,3428,2019-08-07 17:05:40:441
-0.0736,9.8825,0.8771,0.3363,-0.1316,-0.1218,0.0357,-0.0251,-0.001,3433,2019-08-07 17:05:40:446
-0.0736,9.8825,0.8771,0.0173,-0.2399,0.8824,0.0357,-0.0251,-0.001,3438,2019-08-07 17:05:40:451
-0.0736,9.8825,0.8771,0.0173,-0.2399,0.8824,0.0347,0.0154,0.0022,3443,2019-08-07 17:05:40:456
0.0891,9.9207,0.6037,0.0173,-0.2399,0.8824,0.0347,0.0154,0.0022,3448,2019-08-07 17:05:40:461
0.0891,9.9207,0.6037,0.0173,-0.2399,0.8824,0.0134,0.1091,0.0011,3453,2019-08-07 17:05:40:466
-0.0783,9.8061,1.1128,0.1492,-0.1095,0.3727,0.0134,0.1091,0.0011,3458,2019-08-07 17:05:40:471
-0.0783,9.8061,1.1128,0.1492,-0.1095,0.3727,0.0197,0.1144,0.0022,3463,2019-08-07 17:05:40:476
-0.0783,9.8061,1.1128,0.1492,-0.1095,0.3727,0.0197,0.1144,0.0022,3468,2019-08-07 17:05:40:481
-0.1214,9.8538,1.1882,0.1492,-0.1095,0.3727,0.04,0.0282,0.0149,3473,2019-08-07 17:05:40:486
-0.1214,9.8538,1.1882,0.181,-0.1224,0.5619,0.04,0.0282,0.0149,3478,2019-08-07 17:05:40:491
-0.0831,9.8395,0.8064,0.181,-0.1224,0.5619,0.0464,-0.0113,0.0203,3483,2019-08-07 17:05:40:496
-0.0831,9.8395,0.8064,0.181,-0.1224,0.5619,0.0464,-0.0113,0.0203,3487,2019-08-07 17:05:40:500
-0.0831,9.8395,0.8064,0.181,-0.1224,0.5619,0.0432,0.0101,0.0277,3494,2019-08-07 17:05:40:507
0.07,9.9207,0.9195,0.0272,-0.2206,0.5434,0.0432,0.0101,0.0277,3498,2019-08-07 17:05:40:511
0.07,9.9207,0.9195,0.0272,-0.2206,0.5434,0.04,0.0175,0.0309,3503,2019-08-07 17:05:40:516
0.0892,10.0018,0.8394,0.0272,-0.2206,0.5434,0.04,0.0175,0.0309,3507,2019-08-07 17:05:40:520
0.0892,10.0018,0.8394,0.0272,-0.2206,0.5434,0.0464,0.0154,0.0235,3513,2019-08-07 17:05:40:526
0.0892,10.0018,0.8394,-0.0682,-0.2282,0.6287,0.0464,0.0154,0.0235,3517,2019-08-07 17:05:40:530
0.1801,9.9589,0.8394,-0.0682,-0.2282,0.6287,0.0474,0.0282,0.0277,3523,2019-08-07 17:05:40:536
0.1801,9.9589,0.8394,-0.0682,-0.2282,0.6287,0.0474,0.0282,0.0277,3527,2019-08-07 17:05:40:540
0.1609,9.9398,0.7875,-0.0682,-0.2282,0.6287,0.0432,0.0665,0.0256,3533,2019-08-07 17:05:40:546
0.1609,9.9398,0.7875,-0.0015,-0.2738,0.6757,0.0432,0.0665,0.0256,3538,2019-08-07 17:05:40:551
0.1609,9.9398,0.7875,-0.0015,-0.2738,0.6757,0.04,0.0974,0.0235,3544,2019-08-07 17:05:40:557
0.0031,9.9684,0.6414,-0.0015,-0.2738,0.6757,0.04,0.0974,0.0235,3548,2019-08-07 17:05:40:561
0.0031,9.9684,0.6414,-0.0015,-0.2738,0.6757,0.0347,0.0931,0.0245,3553,2019-08-07 17:05:40:566
0.0031,9.9684,0.6414,-0.0015,-0.2738,0.6757,0.0347,0.0931,0.0245,3557,2019-08-07 17:05:40:570
-0.0448,9.9684,0.8724,0.1291,-0.2625,0.5502,0.0347,0.0931,0.0245,3563,2019-08-07 17:05:40:576
-0.0448,9.9684,0.8724,0.1291,-0.2625,0.5502,0.0421,0.0516,0.0256,3567,2019-08-07 17:05:40:580
0.0844,9.8968,1.1458,0.1291,-0.2625,0.5502,0.0421,0.0516,0.0256,3573,2019-08-07 17:05:40:586
0.0844,9.8968,1.1458,0.1291,-0.2625,0.5502,0.0602,-0.0134,0.0277,3577,2019-08-07 17:05:40:590
0.2184,9.9493,0.5943,-0.0825,-0.2511,0.6268,0.0602,-0.0134,0.0277,3583,2019-08-07 17:05:40:596
0.2184,9.9493,0.5943,-0.0825,-0.2511,0.6268,0.0496,0.0132,0.0245,3588,2019-08-07 17:05:40:601
0.2184,9.9493,0.5943,-0.0825,-0.2511,0.6268,0.0496,0.0132,0.0245,3593,2019-08-07 17:05:40:606
0.1801,9.9063,0.6131,-0.0444,-0.2154,0.6582,0.0347,0.0836,0.0203,3598,2019-08-07 17:05:40:611
0.1801,9.9063,0.6131,-0.0444,-0.2154,0.6582,0.0347,0.0836,0.0203,3603,2019-08-07 17:05:40:616
0.1801,9.9063,0.6131,-0.0444,-0.2154,0.6582,0.0293,0.0708,0.0288,3608,2019-08-07 17:05:40:621
0.027,9.8777,0.9525,-0.0444,-0.2154,0.6582,0.0293,0.0708,0.0288,3613,2019-08-07 17:05:40:626
0.027,9.8777,0.9525,0.145,-0.2235,0.6054,0.0379,0.0058,0.0267,3618,2019-08-07 17:05:40:631
-0.0687,9.9302,0.7404,0.145,-0.2235,0.6054,0.0379,0.0058,0.0267,3622,2019-08-07 17:05:40:635
-0.0687,9.9302,0.7404,0.145,-0.2235,0.6054,0.0379,-0.0102,0.0267,3628,2019-08-07 17:05:40:641
-0.0687,9.9302,0.7404,0.145,-0.2235,0.6054,0.0379,-0.0102,0.0267,3633,2019-08-07 17:05:40:646
0.0653,9.9254,0.797,0.145,-0.2235,0.6054,0.0379,-0.0102,0.0267,3638,2019-08-07 17:05:40:651
0.0653,9.9254,0.797,0.0397,-0.1979,0.4989,0.0325,0.0026,0.0299,3643,2019-08-07 17:05:40:656
0.1467,9.9063,0.8724,0.0397,-0.1979,0.4989,0.0325,0.0026,0.0299,3648,2019-08-07 17:05:40:661
0.1467,9.9063,0.8724,0.0397,-0.1979,0.4989,0.04,0.0015,0.0288,3652,2019-08-07 17:05:40:665
0.1467,9.9063,0.8724,0.0397,-0.1979,0.4989,0.04,0.0015,0.0288,3658,2019-08-07 17:05:40:671
0.1706,9.9636,0.6037,-0.0643,-0.2488,0.755,0.0293,0.0377,0.0192,3662,2019-08-07 17:05:40:675
0.1706,9.9636,0.6037,-0.0643,-0.2488,0.755,0.0293,0.0377,0.0192,3668,2019-08-07 17:05:40:681
0.1084,9.9254,0.8111,-0.0643,-0.2488,0.755,0.0293,0.0377,0.0192,3672,2019-08-07 17:05:40:685
0.1084,9.9254,0.8111,-0.0643,-0.2488,0.755,0.0251,0.0612,0.0235,3678,2019-08-07 17:05:40:691
0.1084,9.9254,0.8111,0.039,-0.1901,0.3632,0.0251,0.0612,0.0235,3682,2019-08-07 17:05:40:695
-0.0208,9.9016,1.028,0.039,-0.1901,0.3632,0.0357,0.0122,0.0288,3688,2019-08-07 17:05:40:701
-0.0208,9.9016,1.028,0.039,-0.1901,0.3632,0.0357,0.0122,0.0288,3693,2019-08-07 17:05:40:706
0.0079,9.935,0.7923,0.039,-0.1901,0.3632,0.0411,-0.0283,0.0299,3698,2019-08-07 17:05:40:711
0.0079,9.935,0.7923,0.1064,-0.1982,0.5785,0.0411,-0.0283,0.0299,3703,2019-08-07 17:05:40:716
0.0079,9.935,0.7923,0.1064,-0.1982,0.5785,0.0368,-0.0166,0.0352,3708,2019-08-07 17:05:40:721
0.0701,9.8538,0.7357,0.1064,-0.1982,0.5785,0.0368,-0.0166,0.0352,3712,2019-08-07 17:05:40:725
0.0701,9.8538,0.7357,0.1064,-0.1982,0.5785,0.0368,-0.0113,0.0363,3718,2019-08-07 17:05:40:731
-0.0782,9.9493,0.7169,0.1612,-0.1967,0.5432,0.0368,-0.0113,0.0363,3722,2019-08-07 17:05:40:735
-0.0782,9.9493,0.7169,0.1612,-0.1967,0.5432,0.0347,-0.0198,0.0395,3728,2019-08-07 17:05:40:741
-0.0782,9.9493,0.7169,0.1612,-0.1967,0.5432,0.0347,-0.0198,0.0395,3732,2019-08-07 17:05:40:745
-0.0016,9.8299,1.0138,0.1612,-0.1967,0.5432,0.0368,-0.0603,0.0405,3738,2019-08-07 17:05:40:751
-0.0016,9.8299,1.0138,0.0493,-0.1237,0.3533,0.0368,-0.0603,0.0405,3742,2019-08-07 17:05:40:755
0.1276,9.849,0.9478,0.0493,-0.1237,0.3533,0.0453,-0.0997,0.0384,3748,2019-08-07 17:05:40:761
0.1276,9.849,0.9478,0.0493,-0.1237,0.3533,0.0453,-0.0997,0.0384,3753,2019-08-07 17:05:40:766
0.1276,9.849,0.9478,0.0493,-0.1237,0.3533,0.0453,-0.0997,0.0384,3758,2019-08-07 17:05:40:771
0.3285,10.0257,0.3539,-0.1888,-0.3034,0.9476,0.0357,-0.0592,0.0299,3762,2019-08-07 17:05:40:775
0.3285,10.0257,0.3539,-0.1888,-0.3034,0.9476,0.0357,-0.0592,0.0299,3768,2019-08-07 17:05:40:781
0.3285,10.0257,0.3539,-0.1888,-0.3034,0.9476,0.0357,-0.0592,0.0299,3772,2019-08-07 17:05:40:785
0.2424,10.0686,0.6744,-0.1888,-0.3034,0.9476,0.007,0.0527,0.0149,3778,2019-08-07 17:05:40:791
0.2424,10.0686,0.6744,-0.0506,-0.2307,0.5052,0.007,0.0527,0.0149,3783,2019-08-07 17:05:40:796
0.1324,9.9159,0.7404,-0.0506,-0.2307,0.5052,-0.0143,0.0473,0.0096,3788,2019-08-07 17:05:40:801
0.1324,9.9159,0.7404,-0.0506,-0.2307,0.5052,-0.0143,0.0473,0.0096,3793,2019-08-07 17:05:40:806
0.1324,9.9159,0.7404,-0.0506,-0.2307,0.5052,-0.0079,0.0207,0.0086,3797,2019-08-07 17:05:40:810
0.0654,10.04,0.7122,0.0792,-0.3163,0.5785,-0.0079,0.0207,0.0086,3803,2019-08-07 17:05:40:816
0.0654,10.04,0.7122,0.0792,-0.3163,0.5785,-0.0111,0.0143,0.0075,3807,2019-08-07 17:05:40:820
0.0654,10.04,0.7122,0.0792,-0.3163,0.5785,-0.0111,0.0143,0.0075,3813,2019-08-07 17:05:40:826
0.1276,9.9684,0.7216,0.0792,-0.3163,0.5785,-0.0122,0.0026,0.0096,3818,2019-08-07 17:05:40:831
0.1276,9.9684,0.7216,0.0708,-0.2969,0.5618,-0.0122,0.0026,0.0096,3822,2019-08-07 17:05:40:835
0.0463,9.9636,0.764,0.0708,-0.2969,0.5618,-0.0122,-0.0102,0.0192,3828,2019-08-07 17:05:40:841
0.0463,9.9636,0.764,0.0708,-0.2969,0.5618,-0.0122,-0.0102,0.0192,3832,2019-08-07 17:05:40:845
0.0463,9.9636,0.764,0.0708,-0.2969,0.5618,-0.0143,-0.0219,0.0192,3838,2019-08-07 17:05:40:851
0.0463,9.9636,0.764,0.0708,-0.2969,0.5618,-0.0143,-0.0219,0.0192,3842,2019-08-07 17:05:40:855
0.0415,9.9159,0.797,0.1075,-0.1917,0.489,-0.0143,-0.0219,0.0192,3848,2019-08-07 17:05:40:861
0.0415,9.9159,0.797,0.1075,-0.1917,0.489,-0.0069,-0.0517,0.0203,3853,2019-08-07 17:05:40:866
0.1564,9.9206,0.7734,0.1075,-0.1917,0.489,-0.0069,-0.0517,0.0203,3857,2019-08-07 17:05:40:870
0.1564,9.9206,0.7734,-0.0403,-0.2821,0.6087,-0.0058,-0.0539,0.0192,3863,2019-08-07 17:05:40:876
0.209,9.997,0.632,-0.0403,-0.2821,0.6087,-0.0058,-0.0539,0.0192,3867,2019-08-07 17:05:40:880
0.209,9.997,0.632,-0.0403,-0.2821,0.6087,-0.0154,-0.0176,0.0139,3873,2019-08-07 17:05:40:886
0.209,9.997,0.632,-0.0403,-0.2821,0.6087,-0.0154,-0.0176,0.0139,3878,2019-08-07 17:05:40:891
0.2509,9.9255,0.7921,-0.0974,-0.239,0.489,-0.0143,0.0132,0.016,3883,2019-08-07 17:05:40:896
0.2509,9.9255,0.7921,-0.0974,-0.239,0.489,-0.0143,0.0132,0.016,3888,2019-08-07 17:05:40:901
0.1074,9.9017,0.7449,-0.0974,-0.239,0.489,-0.0111,0.0239,0.0075,3894,2019-08-07 17:05:40:907
0.1074,9.9017,0.7449,-0.0974,-0.239,0.489,-0.0111,0.0239,0.0075,3898,2019-08-07 17:05:40:911
0.1074,9.9017,0.7449,0.0382,-0.1624,0.539,-0.0186,0.042,0.0096,3903,2019-08-07 17:05:40:916
0.1074,9.8969,0.7873,0.0382,-0.1624,0.539,-0.0186,0.042,0.0096,3908,2019-08-07 17:05:40:921
0.1074,9.8969,0.7873,0.0382,-0.1624,0.539,-0.0143,0.042,0.0086,3913,2019-08-07 17:05:40:926
0.0691,9.9399,0.8345,0.0382,-0.1624,0.539,-0.0143,0.042,0.0086,3918,2019-08-07 17:05:40:931
0.0691,9.9399,0.8345,0.1297,-0.1624,0.4729,-0.0101,0.0175,0.0203,3922,2019-08-07 17:05:40:935
0.0691,9.9399,0.8345,0.1297,-0.1624,0.4729,-0.0101,0.0175,0.0203,3928,2019-08-07 17:05:40:941
0.0117,9.9303,0.7685,0.1297,-0.1624,0.4729,-0.0101,0.0175,0.0203,3932,2019-08-07 17:05:40:945
0.0117,9.9303,0.7685,0.1297,-0.1624,0.4729,-0.0154,-0.0027,0.0171,3938,2019-08-07 17:05:40:951
0.0117,9.9303,0.7685,0.1297,-0.1624,0.4729,-0.0154,-0.0027,0.0171,3943,2019-08-07 17:05:40:956
0.0499,9.9494,0.8769,0.1132,-0.2243,0.4008,-0.0165,-0.0262,0.0235,3947,2019-08-07 17:05:40:960
0.0499,9.9494,0.8769,0.1132,-0.2243,0.4008,-0.0165,-0.0262,0.0235,3952,2019-08-07 17:05:40:965
0.1265,9.8682,0.8062,0.1132,-0.2243,0.4008,-0.0122,-0.0656,0.0235,3958,2019-08-07 17:05:40:971
0.1265,9.8682,0.8062,0.1132,-0.2243,0.4008,-0.0122,-0.0656,0.0235,3963,2019-08-07 17:05:40:976
0.1265,9.8682,0.8062,0.009,-0.2338,0.5125,-0.0154,-0.0603,0.0213,3968,2019-08-07 17:05:40:981
0.2556,9.8921,0.7402,0.009,-0.2338,0.5125,-0.0154,-0.0603,0.0213,3973,2019-08-07 17:05:40:986
0.2556,9.8921,0.7402,0.009,-0.2338,0.5125,-0.0207,-0.0496,0.0181,3978,2019-08-07 17:05:40:991
0.2509,9.8921,0.7685,0.009,-0.2338,0.5125,-0.0207,-0.0496,0.0181,3982,2019-08-07 17:05:40:995
0.2509,9.8921,0.7685,-0.1572,-0.1813,0.4506,-0.0207,-0.0496,0.0181,3988,2019-08-07 17:05:41:001
0.2509,9.8921,0.7685,-0.1572,-0.1813,0.4506,-0.0133,-0.0326,0.0149,3993,2019-08-07 17:05:41:006
0.3657,9.8778,0.7873,-0.1572,-0.1813,0.4506,-0.0133,-0.0326,0.0149,3998,2019-08-07 17:05:41:011
0.3657,9.8778,0.7873,-0.1572,-0.1813,0.4506,-0.009,-0.007,0.0096,4002,2019-08-07 17:05:41:015
0.2795,9.9351,0.7261,-0.0857,-0.1907,0.5853,-0.009,-0.007,0.0096,4008,2019-08-07 17:05:41:021
0.2795,9.9351,0.7261,-0.0857,-0.1907,0.5853,-0.0101,0.0186,0.0107,4012,2019-08-07 17:05:41:025
0.2795,9.9351,0.7261,-0.0857,-0.1907,0.5853,-0.0101,0.0186,0.0107,4018,2019-08-07 17:05:41:031
0.1791,9.9399,0.7166,-0.0857,-0.1907,0.5853,-0.0133,0.0335,0.0064,4022,2019-08-07 17:05:41:035
0.1791,9.9399,0.7166,0.1118,-0.2239,0.555,-0.0133,0.0335,0.0064,4028,2019-08-07 17:05:41:041
0.0068,9.9255,0.8439,0.1118,-0.2239,0.555,-0.0165,0.0367,0.0075,4033,2019-08-07 17:05:41:046
0.0068,9.9255,0.8439,0.1118,-0.2239,0.555,-0.0165,0.0367,0.0075,4038,2019-08-07 17:05:41:051
0.0068,9.9255,0.8439,0.1118,-0.2239,0.555,-0.0111,-0.0166,0.0139,4042,2019-08-07 17:05:41:055
0.0547,9.8873,1.0042,0.1263,-0.1618,0.2671,-0.0111,-0.0166,0.0139,4048,2019-08-07 17:05:41:061
0.0547,9.8873,1.0042,0.1263,-0.1618,0.2671,-5.0E-4,-0.0539,0.0181,4052,2019-08-07 17:05:41:065
0.1695,9.8969,0.7873,0.1263,-0.1618,0.2671,-5.0E-4,-0.0539,0.0181,4058,2019-08-07 17:05:41:071
0.1695,9.8969,0.7873,0.1263,-0.1618,0.2671,6.0E-4,-0.0517,0.0181,4063,2019-08-07 17:05:41:076
0.1695,9.8969,0.7873,-0.0985,-0.2092,0.542,6.0E-4,-0.0517,0.0181,4068,2019-08-07 17:05:41:081
0.2795,9.9542,0.7355,-0.0985,-0.2092,0.542,-0.0058,-0.024,0.016,4073,2019-08-07 17:05:41:086
0.2795,9.9542,0.7355,-0.0985,-0.2092,0.542,-0.0058,-0.024,0.016,4078,2019-08-07 17:05:41:091
0.2795,9.9542,0.7355,-0.0985,-0.2092,0.542,-0.0047,5.0E-4,0.0054,4082,2019-08-07 17:05:41:095
0.3752,9.9637,0.7166,-0.1518,-0.2231,0.4865,-0.0047,5.0E-4,0.0054,4088,2019-08-07 17:05:41:101
0.3752,9.9637,0.7166,-0.1518,-0.2231,0.4865,-0.0047,0.0132,0.0,4092,2019-08-07 17:05:41:105
0.313,9.9303,0.8392,-0.1518,-0.2231,0.4865,-0.0047,0.0132,0.0,4098,2019-08-07 17:05:41:111
0.313,9.9303,0.8392,-0.1518,-0.2231,0.4865,-0.0047,0.0132,0.0,4102,2019-08-07 17:05:41:115
0.2843,9.9112,0.7685,-0.0936,-0.1845,0.5119,-0.0016,0.0143,-0.001,4108,2019-08-07 17:05:41:121
0.2843,9.9112,0.7685,-0.0936,-0.1845,0.5119,-0.0037,0.0335,-0.0106,4113,2019-08-07 17:05:41:126
0.2843,9.9112,0.7685,-0.0936,-0.1845,0.5119,-0.0037,0.0335,-0.0106,4118,2019-08-07 17:05:41:131
0.0929,9.9446,0.7685,-0.0936,-0.1845,0.5119,-0.0037,0.0335,-0.0106,4123,2019-08-07 17:05:41:136
0.0929,9.9446,0.7685,0.0671,-0.2079,0.3907,-0.0037,0.0324,0.0064,4128,2019-08-07 17:05:41:141
0.0929,9.9446,0.7685,0.0671,-0.2079,0.3907,-0.0037,0.0324,0.0064,4133,2019-08-07 17:05:41:146
-0.0171,9.959,0.8439,0.0671,-0.2079,0.3907,-0.0047,-0.0017,0.0032,4138,2019-08-07 17:05:41:151
-0.0171,9.959,0.8439,0.0671,-0.2079,0.3907,-0.0047,-0.0017,0.0032,4143,2019-08-07 17:05:41:156
-0.0698,9.9112,0.8062,0.2574,-0.1837,0.4492,-0.0016,-0.0219,0.0107,4148,2019-08-07 17:05:41:161
-0.0698,9.9112,0.8062,0.2574,-0.1837,0.4492,-0.0016,-0.0219,0.0107,4153,2019-08-07 17:05:41:166
-0.0698,9.9112,0.8062,0.2574,-0.1837,0.4492,-0.0016,-0.0219,0.0107,4157,2019-08-07 17:05:41:170
0.1838,9.8778,0.9052,0.2574,-0.1837,0.4492,0.0038,-0.0539,0.016,4163,2019-08-07 17:05:41:176
0.1838,9.8778,0.9052,-0.0315,-0.2167,0.5164,0.0038,-0.0539,0.016,4168,2019-08-07 17:05:41:181
0.1838,9.8778,0.9052,-0.0315,-0.2167,0.5164,-0.0016,-0.056,0.0117,4173,2019-08-07 17:05:41:186
0.2842,10.0162,0.6459,-0.0315,-0.2167,0.5164,-0.0016,-0.056,0.0117,4177,2019-08-07 17:05:41:190
0.2842,10.0162,0.6459,-0.0315,-0.2167,0.5164,-0.0047,-0.0219,0.0096,4183,2019-08-07 17:05:41:196
0.2555,10.0115,0.7213,-0.0614,-0.2831,0.5264,-0.0047,-0.0219,0.0096,4187,2019-08-07 17:05:41:200
0.2555,10.0115,0.7213,-0.0614,-0.2831,0.5264,-0.0133,-0.0017,0.0064,4194,2019-08-07 17:05:41:207
0.2555,10.0115,0.7213,-0.0614,-0.2831,0.5264,-0.0133,-0.0017,0.0064,4198,2019-08-07 17:05:41:211
0.1646,9.9542,0.9004,-0.0614,-0.2831,0.5264,-0.0133,-0.0017,0.0064,4202,2019-08-07 17:05:41:215
0.1646,9.9542,0.9004,0.0017,-0.1827,0.3696,-0.0047,-0.0368,0.0011,4208,2019-08-07 17:05:41:221
0.1646,9.9542,0.9004,0.0017,-0.1827,0.3696,-0.0047,-0.0368,0.0011,4212,2019-08-07 17:05:41:225
-1.2324,10.4507,1.32,0.0017,-0.1827,0.3696,-0.3467,-1.3503,0.0086,4218,2019-08-07 17:05:41:231
-1.2324,10.4507,1.32,0.0017,-0.1827,0.3696,-0.3467,-1.3503,0.0086,4222,2019-08-07 17:05:41:235
-0.2947,9.9494,-1.9373,0.4948,-0.8807,3.3033,0.1987,-0.824,-0.1086,4228,2019-08-07 17:05:41:241
-0.2947,9.9494,-1.9373,0.4948,-0.8807,3.3033,0.1987,-0.824,-0.1086,4233,2019-08-07 17:05:41:246
-0.2947,9.9494,-1.9373,0.4948,-0.8807,3.3033,-0.14,-0.3532,0.032,4238,2019-08-07 17:05:41:251
1.1645,9.5055,-0.4147,0.4948,-0.8807,3.3033,-0.14,-0.3532,0.032,4243,2019-08-07 17:05:41:256
1.1645,9.5055,-0.4147,-0.3191,-0.1307,0.4641,-0.041,0.1059,0.0011,4248,2019-08-07 17:05:41:261
0.2268,10.0544,1.1456,-0.3191,-0.1307,0.4641,-0.041,0.1059,0.0011,4253,2019-08-07 17:05:41:266
0.2268,10.0544,1.1456,-0.3191,-0.1307,0.4641,-0.0026,0.1613,0.0256,4258,2019-08-07 17:05:41:271
0.2268,10.0544,1.1456,-0.3191,-0.1307,0.4641,-0.0026,0.1613,0.0256,4263,2019-08-07 17:05:41:276
0.2555,9.9065,0.6836,-0.0087,-0.1831,0.6757,0.0091,0.2338,0.016,4268,2019-08-07 17:05:41:281
0.2555,9.9065,0.6836,-0.0087,-0.1831,0.6757,0.0091,0.2338,0.016,4272,2019-08-07 17:05:41:285
1.0162,9.9255,-0.4996,-0.0087,-0.1831,0.6757,0.0709,0.6418,0.0288,4278,2019-08-07 17:05:41:291
1.0162,9.9255,-0.4996,-0.0087,-0.1831,0.6757,0.0709,0.6418,0.0288,4283,2019-08-07 17:05:41:296
1.0162,9.9255,-0.4996,-0.7656,-0.5434,2.085,0.0709,0.6418,0.0288,4287,2019-08-07 17:05:41:300
1.0162,9.9255,-0.4996,-0.7656,-0.5434,2.085,-0.0676,1.0806,-0.0255,4293,2019-08-07 17:05:41:306
-0.5052,10.3218,0.8392,-0.7656,-0.5434,2.085,-0.0676,1.0806,-0.0255,4297,2019-08-07 17:05:41:310
-0.5052,10.3218,0.8392,-0.7656,-0.5434,2.085,-0.221,0.6354,0.0086,4303,2019-08-07 17:05:41:316
-1.0698,9.4148,4.1341,-0.7656,-0.5434,2.085,-0.221,0.6354,0.0086,4307,2019-08-07 17:05:41:320
-1.0698,9.4148,4.1341,1.1851,0.1487,-2.2476,0.0688,-0.0911,0.0075,4313,2019-08-07 17:05:41:326
-1.0698,9.4148,4.1341,1.1851,0.1487,-2.2476,0.0688,-0.0911,0.0075,4317,2019-08-07 17:05:41:330
-0.2469,10.0879,0.891,1.1851,0.1487,-2.2476,0.0645,-0.6589,0.0043,4323,2019-08-07 17:05:41:336