ACCELEROMETER X (m/s²),ACCELEROMETER Y (m/s²),ACCELEROMETER Z (m/s²),LINEAR ACCELERATION X (m/s²),LINEAR ACCELERATION Y (m/s²),LINEAR ACCELERATION Z (m/s²),GYROSCOPE X (rad/s),GYROSCOPE Y (rad/s),GYROSCOPE Z (rad/s),Time since start in ms ,YYYY-MO-DD HH-MI-SS_SSS
-0.0512,9.9929,0.7202,0.1078,-0.2123,0.0362,0.1348,0.1251,-0.1864,3,2019-08-07 17:05:08:015
-0.0321,10.0884,0.3525,0.1078,-0.2123,0.0362,0.1348,0.1251,-0.1864,7,2019-08-07 17:05:08:019
-0.0321,10.0884,0.3525,0.0633,-0.2672,0.474,0.1316,0.1091,-0.1896,13,2019-08-07 17:05:08:025
-0.0321,10.0884,0.3525,0.0633,-0.2672,0.474,0.1316,0.1091,-0.1896,18,2019-08-07 17:05:08:030
-0.0081,10.055,0.2205,0.0633,-0.2672,0.474,0.1178,0.1336,-0.196,23,2019-08-07 17:05:08:035
-0.0081,10.055,0.2205,0.0633,-0.2672,0.474,0.1178,0.1336,-0.196,28,2019-08-07 17:05:08:040
-0.1564,10.0597,0.0084,0.1325,-0.2747,0.6911,0.0965,0.1539,-0.1907,33,2019-08-07 17:05:08:045
-0.1564,10.0597,0.0084,0.1325,-0.2747,0.6911,0.0965,0.1539,-0.1907,37,2019-08-07 17:05:08:049
-0.1564,10.0597,0.0084,0.1325,-0.2747,0.6911,0.0965,0.1539,-0.1907,43,2019-08-07 17:05:08:055
-0.5105,10.0072,0.098,0.4654,-0.2215,0.5901,0.0762,0.1837,-0.1854,47,2019-08-07 17:05:08:059
-0.5105,10.0072,0.098,0.4654,-0.2215,0.5901,0.0762,0.1837,-0.1854,53,2019-08-07 17:05:08:065
-0.6875,9.907,0.6778,0.4654,-0.2215,0.5901,0.0677,0.139,-0.1673,58,2019-08-07 17:05:08:070
-0.6875,9.907,0.6778,0.6394,-0.087,-0.0284,0.0677,0.139,-0.1673,63,2019-08-07 17:05:08:075
-0.6875,9.907,0.6778,0.6394,-0.087,-0.0284,0.0794,0.0367,-0.1566,68,2019-08-07 17:05:08:080
-0.7736,9.9786,0.7579,0.6394,-0.087,-0.0284,0.0794,0.0367,-0.1566,73,2019-08-07 17:05:08:085
-0.7736,9.9786,0.7579,0.6394,-0.087,-0.0284,0.0997,-0.0549,-0.1417,78,2019-08-07 17:05:08:090
-0.7736,9.9786,0.7579,0.6394,-0.087,-0.0284,0.0997,-0.0549,-0.1417,82,2019-08-07 17:05:08:094
-0.5057,9.9881,0.6778,0.3858,-0.2008,-0.022,0.1124,-0.1082,-0.1289,88,2019-08-07 17:05:08:100
-0.5057,9.9881,0.6778,0.3858,-0.2008,-0.022,0.1124,-0.1082,-0.1289,92,2019-08-07 17:05:08:104
-0.2473,10.0311,0.4609,0.3858,-0.2008,-0.022,0.1124,-0.1082,-0.1289,98,2019-08-07 17:05:08:110
-0.2473,10.0311,0.4609,0.3858,-0.2008,-0.022,0.1039,-0.0975,-0.131,102,2019-08-07 17:05:08:114
-0.2473,10.0311,0.4609,-0.013,-0.2331,0.121,0.1039,-0.0975,-0.131,107,2019-08-07 17:05:08:119
-0.0177,10.012,0.5646,-0.013,-0.2331,0.121,0.1039,-0.0794,-0.1246,113,2019-08-07 17:05:08:125
-0.0177,10.012,0.5646,-0.013,-0.2331,0.121,0.1039,-0.0794,-0.1246,118,2019-08-07 17:05:08:130
-0.0177,10.012,0.5646,-0.1364,-0.4565,0.5806,0.0752,-0.0741,-0.1289,123,2019-08-07 17:05:08:135
-0.032,10.2459,0.032,-0.1364,-0.4565,0.5806,0.0752,-0.0741,-0.1289,128,2019-08-07 17:05:08:140
-0.032,10.2459,0.032,-0.1364,-0.4565,0.5806,0.0411,-0.0251,-0.1353,132,2019-08-07 17:05:08:144
-0.1995,10.055,0.164,-0.1364,-0.4565,0.5806,0.0411,-0.0251,-0.1353,138,2019-08-07 17:05:08:150
-0.1995,10.055,0.164,-0.1364,-0.4565,0.5806,0.0411,-0.0251,-0.1353,142,2019-08-07 17:05:08:154
-0.1995,10.055,0.164,0.0285,-0.1507,0.2526,0.0293,0.0143,-0.1374,148,2019-08-07 17:05:08:160
-0.2713,9.9213,0.4892,0.0285,-0.1507,0.2526,0.0293,0.0143,-0.1374,152,2019-08-07 17:05:08:164
-0.2713,9.9213,0.4892,0.0285,-0.1507,0.2526,0.0304,-0.0389,-0.1289,158,2019-08-07 17:05:08:170
-0.4387,9.8736,0.2583,0.0285,-0.1507,0.2526,0.0304,-0.0389,-0.1289,163,2019-08-07 17:05:08:175
-0.4387,9.8736,0.2583,0.2033,-0.0745,0.3727,0.0304,-0.0805,-0.1151,167,2019-08-07 17:05:08:179
-0.4387,9.8736,0.2583,0.2033,-0.0745,0.3727,0.0304,-0.0805,-0.1151,173,2019-08-07 17:05:08:185
-0.654,9.6826,0.1734,0.4204,0.1069,0.4161,0.0102,-0.0783,-0.1172,177,2019-08-07 17:05:08:189
-0.654,9.6826,0.1734,0.4204,0.1069,0.4161,0.0102,-0.0783,-0.1172,183,2019-08-07 17:05:08:195
-0.654,9.6921,0.7155,0.4204,0.1069,0.4161,0.0102,-0.0783,-0.1172,187,2019-08-07 17:05:08:199
-0.654,9.6921,0.7155,0.4204,0.1069,0.4161,0.0134,-0.1604,-0.1012,193,2019-08-07 17:05:08:205
-0.654,9.6921,0.7155,0.3298,0.0443,-0.2683,0.0134,-0.1604,-0.1012,197,2019-08-07 17:05:08:209
-0.5248,9.7781,0.8239,0.3298,0.0443,-0.2683,0.0432,-0.2797,-0.0937,203,2019-08-07 17:05:08:215
-0.5248,9.7781,0.8239,0.3298,0.0443,-0.2683,0.0432,-0.2797,-0.0937,208,2019-08-07 17:05:08:220
-0.1947,9.8401,0.7579,0.3298,0.0443,-0.2683,0.072,-0.3053,-0.082,213,2019-08-07 17:05:08:225
-0.1947,9.8401,0.7579,-0.24,0.0396,-0.2239,0.072,-0.3053,-0.082,217,2019-08-07 17:05:08:229
-0.1947,9.8401,0.7579,-0.24,0.0396,-0.2239,0.0858,-0.2222,-0.0906,223,2019-08-07 17:05:08:235
0.322,9.8783,0.7343,-0.5992,-0.0891,-0.1598,0.0858,-0.2222,-0.0906,228,2019-08-07 17:05:08:240
0.322,9.8783,0.7343,-0.5992,-0.0891,-0.1598,0.0847,-0.1316,-0.0842,233,2019-08-07 17:05:08:245
0.322,9.8783,0.7343,-0.5992,-0.0891,-0.1598,0.0847,-0.1316,-0.0842,237,2019-08-07 17:05:08:249
0.566,9.8497,-0.2556,-0.5992,-0.0891,-0.1598,0.0783,0.0399,-0.1151,243,2019-08-07 17:05:08:255
0.566,9.8497,-0.2556,-0.5764,-0.0978,0.6502,0.0783,0.0399,-0.1151,248,2019-08-07 17:05:08:260
0.566,9.8497,-0.2556,-0.5764,-0.0978,0.6502,0.0783,0.0399,-0.1151,252,2019-08-07 17:05:08:264
0.0589,9.8879,0.5741,-0.5764,-0.0978,0.6502,0.0752,0.1571,-0.1268,257,2019-08-07 17:05:08:269
0.0589,9.8879,0.5741,-0.5764,-0.0978,0.6502,0.0752,0.1571,-0.1268,263,2019-08-07 17:05:08:275
-0.032,9.9356,0.7815,-0.2033,-0.0881,-0.1434,0.0986,0.0836,-0.1374,268,2019-08-07 17:05:08:280
-0.032,9.9356,0.7815,-0.2033,-0.0881,-0.1434,0.0986,0.0836,-0.1374,273,2019-08-07 17:05:08:285
-0.1564,9.864,0.1498,-0.1692,-0.0736,0.3778,0.1092,0.0708,-0.1502,278,2019-08-07 17:05:08:290
-0.1564,9.864,0.1498,-0.1692,-0.0736,0.3778,0.1092,0.0708,-0.1502,283,2019-08-07 17:05:08:295
-0.1564,9.864,0.1498,-0.1692,-0.0736,0.3778,0.1092,0.0708,-0.1502,288,2019-08-07 17:05:08:300
-0.233,9.7494,0.4185,-0.1692,-0.0736,0.3778,0.1007,0.1123,-0.1438,293,2019-08-07 17:05:08:305
-0.233,9.7494,0.4185,-0.1026,0.0173,0.0627,0.1007,0.1123,-0.1438,298,2019-08-07 17:05:08:310
-0.4244,9.8258,0.4892,-0.1026,0.0173,0.0627,0.0922,0.091,-0.1321,303,2019-08-07 17:05:08:315
-0.4244,9.8258,0.4892,-0.1026,0.0173,0.0627,0.0922,0.091,-0.1321,308,2019-08-07 17:05:08:320
-0.4244,9.8258,0.4892,-0.1026,0.0173,0.0627,0.0965,0.0942,-0.1374,312,2019-08-07 17:05:08:324
-0.5105,9.8258,0.8098,0.1273,-0.0353,-0.324,0.0965,0.0942,-0.1374,318,2019-08-07 17:05:08:330
-0.5105,9.8258,0.8098,0.1273,-0.0353,-0.324,0.1167,0.0463,-0.1172,322,2019-08-07 17:05:08:334
-0.5105,9.8258,0.8098,0.1273,-0.0353,-0.324,0.1167,0.0463,-0.1172,328,2019-08-07 17:05:08:340
-0.4818,10.0836,0.2865,0.1273,-0.0353,-0.324,0.1124,0.0229,-0.1225,333,2019-08-07 17:05:08:345
-0.4818,10.0836,0.2865,0.3742,-0.4315,0.5901,0.1124,0.0229,-0.1225,338,2019-08-07 17:05:08:350
-0.4818,10.0836,0.2865,0.3742,-0.4315,0.5901,0.1124,0.0229,-0.1225,342,2019-08-07 17:05:08:354
-0.9123,10.2507,0.0084,0.3742,-0.4315,0.5901,0.1018,0.1006,-0.131,348,2019-08-07 17:05:08:360
-0.9123,10.2507,0.0084,0.3742,-0.4315,0.5901,0.1018,0.1006,-0.131,352,2019-08-07 17:05:08:364
-0.9506,10.3127,0.7438,0.5111,-0.5224,-0.3047,0.1124,0.075,-0.1289,358,2019-08-07 17:05:08:370
-0.9506,10.3127,0.7438,0.5111,-0.5224,-0.3047,0.1124,0.075,-0.1289,363,2019-08-07 17:05:08:375
-0.9506,10.3127,0.7438,0.5111,-0.5224,-0.3047,0.1295,-0.0581,-0.1236,368,2019-08-07 17:05:08:380
-0.8597,10.4225,0.5175,0.5111,-0.5224,-0.3047,0.1295,-0.0581,-0.1236,372,2019-08-07 17:05:08:384
-0.8597,10.4225,0.5175,0.2159,-0.3461,0.219,0.0986,-0.1018,-0.1246,378,2019-08-07 17:05:08:390
-0.4913,9.9595,0.1357,0.2159,-0.3461,0.219,0.0986,-0.1018,-0.1246,383,2019-08-07 17:05:08:395
-0.4913,9.9595,0.1357,0.2159,-0.3461,0.219,0.0496,-0.1369,-0.1193,388,2019-08-07 17:05:08:400
-0.4913,9.9595,0.1357,0.2159,-0.3461,0.219,0.0496,-0.1369,-0.1193,392,2019-08-07 17:05:08:404
-0.2569,9.9452,0.2017,-0.2558,-0.2511,0.1881,0.056,-0.2062,-0.1214,398,2019-08-07 17:05:08:410
-0.2569,9.9452,0.2017,-0.2558,-0.2511,0.1881,0.056,-0.2062,-0.1214,402,2019-08-07 17:05:08:414
-0.2569,9.9452,0.2017,-0.2558,-0.2511,0.1881,0.056,-0.2062,-0.1214,408,2019-08-07 17:05:08:420
-0.0751,10.2746,-0.2084,-0.424,-0.4853,0.6056,0.0613,-0.1987,-0.1385,413,2019-08-07 17:05:08:425
-0.0751,10.2746,-0.2084,-0.424,-0.4853,0.6056,0.0613,-0.1987,-0.1385,418,2019-08-07 17:05:08:430
0.0876,10.962,-0.298,-0.424,-0.4853,0.6056,0.0304,-0.0656,-0.1683,423,2019-08-07 17:05:08:435
0.0876,10.962,-0.298,-0.424,-0.4853,0.6056,0.0304,-0.0656,-0.1683,427,2019-08-07 17:05:08:439
0.0876,10.962,-0.298,-0.5311,-1.6319,0.513,0.0176,-0.0091,-0.1662,433,2019-08-07 17:05:08:445
-0.5679,11.7783,0.2818,-0.5311,-1.6319,0.513,0.0176,-0.0091,-0.1662,438,2019-08-07 17:05:08:450
-0.5679,11.7783,0.2818,-0.5311,-1.6319,0.513,0.0688,0.0154,-0.1513,443,2019-08-07 17:05:08:455
-2.4624,12.4228,3.2515,1.9046,-2.636,-2.8727,0.0688,0.0154,-0.1513,448,2019-08-07 17:05:08:460
-2.4624,12.4228,3.2515,1.9046,-2.636,-2.8727,0.1625,-0.2456,-0.0362,453,2019-08-07 17:05:08:465
-2.4624,12.4228,3.2515,1.9046,-2.636,-2.8727,0.1625,-0.2456,-0.0362,457,2019-08-07 17:05:08:469
-3.0748,12.4132,5.7121,2.5091,-2.6268,-5.3361,0.2328,-0.7559,0.0149,463,2019-08-07 17:05:08:475
-3.0748,12.4132,5.7121,2.5091,-2.6268,-5.3361,0.2328,-0.7559,0.0149,468,2019-08-07 17:05:08:480
-3.0748,12.4132,5.7121,2.5091,-2.6268,-5.3361,0.4981,-1.6379,-0.0618,472,2019-08-07 17:05:08:484
-1.0941,14.213,7.0131,-0.316,-5.5329,-6.2568,0.4981,-1.6379,-0.0618,478,2019-08-07 17:05:08:490
-1.0941,14.213,7.0131,-0.316,-5.5329,-6.2568,0.8006,-1.9564,-0.212,483,2019-08-07 17:05:08:495
1.7621,15.8933,4.9532,-0.316,-5.5329,-6.2568,0.8006,-1.9564,-0.212,488,2019-08-07 17:05:08:500
1.7621,15.8933,4.9532,-0.316,-5.5329,-6.2568,0.8006,-1.9564,-0.212,493,2019-08-07 17:05:08:505
1.7621,15.8933,4.9532,-0.316,-5.5329,-6.2568,1.1617,-1.8478,-0.4346,498,2019-08-07 17:05:08:510
4.4604,17.5021,3.7276,-5.0696,-7.7127,-3.55,1.1617,-1.8478,-0.4346,503,2019-08-07 17:05:08:515
4.4604,17.5021,3.7276,-5.0696,-7.7127,-3.55,1.8435,-1.7018,-0.5199,507,2019-08-07 17:05:08:519
3.7092,17.3255,-3.7721,-4.8065,-7.451,1.5571,1.8435,-1.7018,-0.5199,513,2019-08-07 17:05:08:525
3.7092,17.3255,-3.7721,-4.8065,-7.451,1.5571,2.3165,-1.1308,-0.7116,518,2019-08-07 17:05:08:530
3.7092,17.3255,-3.7721,-4.8065,-7.451,1.5571,2.3165,-1.1308,-0.7116,522,2019-08-07 17:05:08:534
-0.7114,22.3953,-10.1451,-4.8065,-7.451,1.5571,2.4848,-0.7591,-0.9854,528,2019-08-07 17:05:08:540
-0.7114,22.3953,-10.1451,2.6495,-16.8351,10.0798,2.4848,-0.7591,-0.9854,533,2019-08-07 17:05:08:545
-5.0124,30.3055,-7.1047,2.6495,-16.8351,10.0798,2.4411,-0.7654,-0.8096,537,2019-08-07 17:05:08:549
-5.0124,30.3055,-7.1047,2.6495,-16.8351,10.0798,2.4411,-0.7654,-0.8096,543,2019-08-07 17:05:08:555
-5.0124,30.3055,-7.1047,2.6495,-16.8351,10.0798,2.8853,-0.7058,-0.6392,548,2019-08-07 17:05:08:560
-3.6059,23.9611,7.4987,2.6395,-14.2472,-8.4698,2.8853,-0.7058,-0.6392,552,2019-08-07 17:05:08:564
-3.6059,23.9611,7.4987,2.6395,-14.2472,-8.4698,3.7173,-0.4555,-0.8512,558,2019-08-07 17:05:08:570
-2.1419,23.3214,-2.0185,2.6395,-14.2472,-8.4698,3.7173,-0.4555,-0.8512,562,2019-08-07 17:05:08:574
-2.1419,23.3214,-2.0185,2.6395,-14.2472,-8.4698,3.8313,-1.3396,-0.9332,568,2019-08-07 17:05:08:580
-2.1419,23.3214,-2.0185,-0.2158,-18.2218,2.3366,3.8313,-1.3396,-0.9332,572,2019-08-07 17:05:08:584
0.0062,29.451,-1.8724,-0.2158,-18.2218,2.3366,3.9026,-1.9511,-0.8842,578,2019-08-07 17:05:08:590
0.0062,29.451,-1.8724,-0.2158,-18.2218,2.3366,3.9026,-1.9511,-0.8842,582,2019-08-07 17:05:08:594
0.0062,29.451,-1.8724,-0.2158,-18.2218,2.3366,4.056,-0.7196,-1.1239,588,2019-08-07 17:05:08:600
1.4032,28.1907,-2.9801,-2.8026,-18.7785,0.5951,4.056,-0.7196,-1.1239,592,2019-08-07 17:05:08:604
1.4032,28.1907,-2.9801,-2.8026,-18.7785,0.5951,3.4712,1.3949,-1.3007,598,2019-08-07 17:05:08:610
1.2358,26.5819,-0.6798,-2.8026,-18.7785,0.5951,3.4712,1.3949,-1.3007,602,2019-08-07 17:05:08:614
1.2358,26.5819,-0.6798,-2.8026,-18.7785,0.5951,3.4712,1.3949,-1.3007,608,2019-08-07 17:05:08:620
1.2358,26.5819,-0.6798,-2.5618,-16.3943,-8.6351,2.9641,2.4378,-1.1409,613,2019-08-07 17:05:08:625
-0.1995,25.0257,7.5128,-2.5618,-16.3943,-8.6351,2.9641,2.4378,-1.1409,617,2019-08-07 17:05:08:629
-0.1995,25.0257,7.5128,-2.5618,-16.3943,-8.6351,2.6478,2.1832,-0.9641,623,2019-08-07 17:05:08:635
-1.8787,22.8154,7.2771,-2.5618,-16.3943,-8.6351,2.6478,2.1832,-0.9641,628,2019-08-07 17:05:08:640
-1.8787,22.8154,7.2771,0.6666,-12.9397,-10.3732,2.3367,1.6889,-0.6967,633,2019-08-07 17:05:08:645
-1.8787,22.8154,7.2771,0.6666,-12.9397,-10.3732,2.3367,1.6889,-0.6967,637,2019-08-07 17:05:08:649
-1.6778,23.5505,5.2549,0.1244,-14.6264,-9.0209,1.9053,1.3406,-0.4687,643,2019-08-07 17:05:08:655
-1.6778,23.5505,5.2549,0.1244,-14.6264,-9.0209,1.9053,1.3406,-0.4687,648,2019-08-07 17:05:08:660
-1.6778,23.5505,5.2549,0.1244,-14.6264,-9.0209,1.0062,1.4546,-0.1321,653,2019-08-07 17:05:08:665
-1.0846,17.9986,3.8502,0.1244,-14.6264,-9.0209,1.0062,1.4546,-0.1321,657,2019-08-07 17:05:08:669
-1.0846,17.9986,3.8502,-0.4086,-8.4626,-8.8632,1.0062,1.4546,-0.1321,663,2019-08-07 17:05:08:675
-0.4865,15.7549,6.669,-0.4086,-8.4626,-8.8632,0.1465,1.592,0.0266,668,2019-08-07 17:05:08:680
-0.4865,15.7549,6.669,-0.4086,-8.4626,-8.8632,0.1465,1.592,0.0266,673,2019-08-07 17:05:08:685
-0.4865,15.7549,6.669,-0.4086,-8.4626,-8.8632,-0.613,1.2852,0.0937,678,2019-08-07 17:05:08:690
-0.9841,15.4016,6.9707,-0.376,-6.5053,-10.8747,-0.613,1.2852,0.0937,683,2019-08-07 17:05:08:695
-0.9841,15.4016,6.9707,-0.376,-6.5053,-10.8747,-1.3651,0.7558,0.1662,687,2019-08-07 17:05:08:699
-0.9841,15.4016,6.9707,-0.376,-6.5053,-10.8747,-1.3651,0.7558,0.1662,693,2019-08-07 17:05:08:705
-0.9075,15.8647,4.562,-0.4075,-6.8981,-8.3178,-1.9883,0.5012,0.2397,698,2019-08-07 17:05:08:710
-0.9075,15.8647,4.562,-0.4075,-6.8981,-8.3178,-1.9883,0.5012,0.2397,703,2019-08-07 17:05:08:715
-0.8453,16.1225,2.2663,-0.4075,-6.8981,-8.3178,-3.1025,0.6428,0.359,708,2019-08-07 17:05:08:720
-0.8453,16.1225,2.2663,-0.2982,-6.2257,-5.8867,-3.1025,0.6428,0.359,713,2019-08-07 17:05:08:725
-0.8453,16.1225,2.2663,-0.2982,-6.2257,-5.8867,-3.9398,0.9464,0.4368,718,2019-08-07 17:05:08:730
-1.2855,15.2966,3.2468,-0.2982,-6.2257,-5.8867,-3.9398,0.9464,0.4368,722,2019-08-07 17:05:08:734
-1.2855,15.2966,3.2468,-0.2982,-6.2257,-5.8867,-4.7729,0.9912,0.4858,728,2019-08-07 17:05:08:740
-1.5247,14.3037,3.2421,0.459,-4.8428,-5.607,-4.7729,0.9912,0.4858,732,2019-08-07 17:05:08:744
-1.5247,14.3037,3.2421,0.459,-4.8428,-5.607,-5.7721,0.7962,0.5166,738,2019-08-07 17:05:08:750
-1.5247,14.3037,3.2421,0.459,-4.8428,-5.607,-5.7721,0.7962,0.5166,743,2019-08-07 17:05:08:755
-1.7304,13.9408,2.4078,0.459,-4.8428,-5.607,-6.5146,0.5768,0.5262,748,2019-08-07 17:05:08:760
-1.7304,13.9408,2.4078,0.8962,-4.4522,-3.5691,-6.5146,0.5768,0.5262,752,2019-08-07 17:05:08:764
-1.7304,13.9408,2.4078,0.8962,-4.4522,-3.5691,-6.5146,0.5768,0.5262,758,2019-08-07 17:05:08:770
-2.295,14.0793,2.2993,0.8962,-4.4522,-3.5691,-7.1931,0.3211,0.5188,763,2019-08-07 17:05:08:775
-2.295,14.0793,2.2993,0.8962,-4.4522,-3.5691,-7.1931,0.3211,0.5188,767,2019-08-07 17:05:08:779
-2.295,14.0793,2.2993,1.8245,-4.7491,-1.0864,-7.9623,-0.1146,0.5305,773,2019-08-07 17:05:08:785
-2.6634,14.5185,1.3896,1.8245,-4.7491,-1.0864,-7.9623,-0.1146,0.5305,778,2019-08-07 17:05:08:790
-2.6634,14.5185,1.3896,1.8245,-4.7491,-1.0864,-8.4597,-0.5375,0.5731,783,2019-08-07 17:05:08:795
-2.6634,14.5185,1.3896,1.8245,-4.7491,-1.0864,-8.4597,-0.5375,0.5731,788,2019-08-07 17:05:08:800
-3.1753,13.0052,0.4138,1.8245,-4.7491,-1.0864,-8.8869,-0.8677,0.6562,793,2019-08-07 17:05:08:805
-3.1753,13.0052,0.4138,2.4122,-2.8559,1.4386,-8.8869,-0.8677,0.6562,798,2019-08-07 17:05:08:810
-3.1753,13.0052,0.4138,2.4122,-2.8559,1.4386,-9.2544,-1.2001,0.7404,803,2019-08-07 17:05:08:815
-2.9552,10.7233,1.7478,2.4122,-2.8559,1.4386,-9.2544,-1.2001,0.7404,808,2019-08-07 17:05:08:820
-2.9552,10.7233,1.7478,2.4122,-2.8559,1.4386,-9.4653,-1.4376,0.8171,813,2019-08-07 17:05:08:825
-2.5198,9.759,1.1397,2.2204,-1.1299,2.469,-9.4653,-1.4376,0.8171,817,2019-08-07 17:05:08:829
-2.5198,9.759,1.1397,2.2204,-1.1299,2.469,-9.7498,-1.6581,0.9896,823,2019-08-07 17:05:08:835
-1.5008,7.0713,2.8744,2.2204,-1.1299,2.469,-9.7498,-1.6581,0.9896,828,2019-08-07 17:05:08:840
-1.5008,7.0713,2.8744,2.2204,-1.1299,2.469,-9.917,-1.8137,1.1441,833,2019-08-07 17:05:08:845
-1.5008,7.0713,2.8744,0.2509,3.9865,0.5261,-9.917,-1.8137,1.1441,838,2019-08-07 17:05:08:850
0.5612,2.3596,6.4805,0.2509,3.9865,0.5261,-10.0736,-2.0001,1.3273,842,2019-08-07 17:05:08:854
0.5612,2.3596,6.4805,0.2509,3.9865,0.5261,-10.0736,-2.0001,1.3273,848,2019-08-07 17:05:08:860
0.5612,2.3596,6.4805,0.2509,3.9865,0.5261,-10.0736,-2.0001,1.3273,853,2019-08-07 17:05:08:865
0.8626,5.2525,4.43,-0.9764,1.9741,0.231,-10.1397,-1.8754,1.5159,858,2019-08-07 17:05:08:870
0.8626,5.2525,4.43,-0.9764,1.9741,0.231,-10.1397,-1.8754,1.5159,863,2019-08-07 17:05:08:875
0.8626,5.2525,4.43,-0.9764,1.9741,0.231,-10.6574,-1.8531,1.8834,867,2019-08-07 17:05:08:879
-1.118,14.1843,0.6731,-0.9764,1.9741,0.231,-10.6574,-1.8531,1.8834,873,2019-08-07 17:05:08:885
-1.118,14.1843,0.6731,1.3434,-9.0628,15.9067,-11.0643,-0.3915,2.0911,877,2019-08-07 17:05:08:889
-2.5817,21.6887,-14.2649,1.3434,-9.0628,15.9067,-11.0643,-0.3915,2.0911,883,2019-08-07 17:05:08:895
-2.5817,21.6887,-14.2649,1.3434,-9.0628,15.9067,-11.0643,-0.3915,2.0911,887,2019-08-07 17:05:08:899
-2.5817,21.6887,-14.2649,1.3434,-9.0628,15.9067,-12.3181,1.0998,2.3894,892,2019-08-07 17:05:08:904
-3.529,26.7919,-16.8292,3.9448,-23.9873,26.9253,-12.3181,1.0998,2.3894,898,2019-08-07 17:05:08:910
-3.529,26.7919,-16.8292,3.9448,-23.9873,26.9253,-12.1264,2.3515,2.3936,902,2019-08-07 17:05:08:914
0.2554,30.8401,-20.7464,3.9448,-23.9873,26.9253,-12.1264,2.3515,2.3936,908,2019-08-07 17:05:08:920
0.2554,30.8401,-20.7464,3.9448,-23.9873,26.9253,-11.0664,3.2762,1.6799,913,2019-08-07 17:05:08:925
0.2554,30.8401,-20.7464,-1.17,-32.5249,30.3167,-11.0664,3.2762,1.6799,918,2019-08-07 17:05:08:930
2.858,33.4944,-22.4387,-1.17,-32.5249,30.3167,-7.9079,4.3745,0.5049,923,2019-08-07 17:05:08:935
2.858,33.4944,-22.4387,-3.225,-31.5299,36.5192,-7.9079,4.3745,0.5049,927,2019-08-07 17:05:08:939
0.9013,25.0399,-36.4575,-3.225,-31.5299,36.5192,-5.3353,5.6325,-0.375,933,2019-08-07 17:05:08:945
0.9013,25.0399,-36.4575,-3.225,-31.5299,36.5192,-5.3353,5.6325,-0.375,937,2019-08-07 17:05:08:949
0.9013,25.0399,-36.4575,-3.225,-31.5299,36.5192,-5.3353,5.6325,-0.375,943,2019-08-07 17:05:08:955
-5.1269,7.2622,-49.9956,3.9723,-8.2259,59.6896,-3.8876,7.0909,-0.7105,948,2019-08-07 17:05:08:960
-5.1269,7.2622,-49.9956,3.9723,-8.2259,59.6896,-3.8876,7.0909,-0.7105,952,2019-08-07 17:05:08:964
-5.1269,7.2622,-49.9956,3.9723,-8.2259,59.6896,-3.7481,6.2216,-0.0075,957,2019-08-07 17:05:08:969
-2.1989,3.1042,-36.8535,3.9723,-8.2259,59.6896,-3.7481,6.2216,-0.0075,963,2019-08-07 17:05:08:975
-2.1989,3.1042,-36.8535,-4.7601,0.0439,34.8528,-3.339,1.9584,0.9811,968,2019-08-07 17:05:08:980
5.2215,-5.0876,-16.9801,-4.7601,0.0439,34.8528,-3.339,1.9584,0.9811,973,2019-08-07 17:05:08:985
5.2215,-5.0876,-16.9801,-4.7601,0.0439,34.8528,-1.6271,-4.4427,1.143,978,2019-08-07 17:05:08:990
5.2215,-5.0876,-16.9801,-4.7601,0.0439,34.8528,-1.6271,-4.4427,1.143,983,2019-08-07 17:05:08:995
3.1212,-3.8608,-10.5269,-4.7071,1.8815,20.0033,2.0533,-5.7839,-0.3973,988,2019-08-07 17:05:09:000
3.1212,-3.8608,-10.5269,-4.7071,1.8815,20.0033,2.0533,-5.7839,-0.3973,993,2019-08-07 17:05:09:005
3.1212,-3.8608,-10.5269,-4.7071,1.8815,20.0033,2.0533,-5.7839,-0.3973,998,2019-08-07 17:05:09:010
2.0782,-5.4695,-8.5612,-4.7071,1.8815,20.0033,6.178,-3.3828,-1.5904,1003,2019-08-07 17:05:09:015
2.0782,-5.4695,-8.5612,-1.9788,-0.0781,24.193,6.178,-3.3828,-1.5904,1007,2019-08-07 17:05:09:019
0.2459,1.4811,-15.7592,-1.9788,-0.0781,24.193,8.3533,-1.7721,-1.714,1013,2019-08-07 17:05:09:025
0.2459,1.4811,-15.7592,-1.9788,-0.0781,24.193,8.3533,-1.7721,-1.714,1017,2019-08-07 17:05:09:029
0.2459,1.4811,-15.7592,-1.9788,-0.0781,24.193,4.5152,-4.2446,-0.2823,1023,2019-08-07 17:05:09:035
-1.0172,14.0315,-25.71,-2.2054,-10.4582,35.6095,4.5152,-4.2446,-0.2823,1027,2019-08-07 17:05:09:039
-1.0172,14.0315,-25.71,-2.2054,-10.4582,35.6095,3.2411,-0.4224,0.0884,1033,2019-08-07 17:05:09:045
13.7661,7.8733,-17.1026,-2.2054,-10.4582,35.6095,3.2411,-0.4224,0.0884,1037,2019-08-07 17:05:09:049
13.7661,7.8733,-17.1026,-2.2054,-10.4582,35.6095,3.2411,-0.4224,0.0884,1043,2019-08-07 17:05:09:055
13.7661,7.8733,-17.1026,-9.9231,-16.0231,12.4515,4.0667,7.3838,-0.4463,1047,2019-08-07 17:05:09:059
5.5038,15.984,6.0092,-9.9231,-16.0231,12.4515,4.0667,7.3838,-0.4463,1053,2019-08-07 17:05:09:065
5.5038,15.984,6.0092,-9.9231,-16.0231,12.4515,2.032,5.7625,0.1374,1057,2019-08-07 17:05:09:069
2.0687,9.0715,4.1897,-9.9231,-16.0231,12.4515,2.032,5.7625,0.1374,1063,2019-08-07 17:05:09:075
2.0687,9.0715,4.1897,-0.6618,-9.396,10.0196,3.5181,4.3318,0.5124,1067,2019-08-07 17:05:09:079
2.0687,9.0715,4.1897,-0.6618,-9.396,10.0196,3.5181,4.3318,0.5124,1073,2019-08-07 17:05:09:085
2.0687,9.0715,4.1897,-0.6618,-9.396,10.0196,3.5181,4.3318,0.5124,1077,2019-08-07 17:05:09:089
-6.9783,11.3009,2.1109,5.4766,-8.7913,6.9528,2.5093,2.4655,0.2546,1083,2019-08-07 17:05:09:095
-6.9783,11.3009,2.1109,5.4766,-8.7913,6.9528,2.5093,2.4655,0.2546,1088,2019-08-07 17:05:09:100
-6.9783,11.3009,2.1109,5.4766,-8.7913,6.9528,3.0302,2.5092,0.8192,1093,2019-08-07 17:05:09:105
-9.3035,12.9526,7.8381,6.06,-8.5811,1.4369,3.0302,2.5092,0.8192,1098,2019-08-07 17:05:09:110
-9.3035,12.9526,7.8381,6.06,-8.5811,1.4369,3.3104,0.3126,1.1217,1102,2019-08-07 17:05:09:114
-9.3035,12.9526,7.8381,6.06,-8.5811,1.4369,3.3104,0.3126,1.1217,1108,2019-08-07 17:05:09:120
-8.7485,10.1217,6.1789,6.2217,-7.251,2.855,3.7855,-1.2224,1.1079,1112,2019-08-07 17:05:09:124
-8.7485,10.1217,6.1789,6.2217,-7.251,2.855,3.7855,-1.2224,1.1079,1118,2019-08-07 17:05:09:130
-8.7485,10.1217,6.1789,6.2217,-7.251,2.855,4.3373,-4.4289,0.9779,1123,2019-08-07 17:05:09:135
-7.1553,11.2006,5.6415,6.2217,-7.251,2.855,4.3373,-4.4289,0.9779,1128,2019-08-07 17:05:09:140
-7.1553,11.2006,5.6415,4.5752,-7.6809,3.4599,4.9477,-5.8308,0.7531,1132,2019-08-07 17:05:09:144
-7.1553,11.2006,5.6415,4.5752,-7.6809,3.4599,4.9477,-5.8308,0.7531,1138,2019-08-07 17:05:09:150
-3.5336,12.0981,2.0166,4.5752,-7.6809,3.4599,4.9477,-5.8308,0.7531,1142,2019-08-07 17:05:09:154
-3.5336,12.0981,2.0166,0.6694,-8.1022,9.1109,5.4601,-6.5839,0.359,1148,2019-08-07 17:05:09:160
-0.3473,14.127,-2.6972,0.6694,-8.1022,9.1109,5.4601,-6.5839,0.359,1153,2019-08-07 17:05:09:165
-0.3473,14.127,-2.6972,0.6694,-8.1022,9.1109,5.8851,-6.1589,-0.163,1158,2019-08-07 17:05:09:170
-0.3473,14.127,-2.6972,-1.4078,-10.4895,12.6155,5.8851,-6.1589,-0.163,1163,2019-08-07 17:05:09:175
3.5088,18.2898,-5.8602,-1.4078,-10.4895,12.6155,5.9725,-5.1735,-0.4677,1167,2019-08-07 17:05:09:179
3.5088,18.2898,-5.8602,-1.4078,-10.4895,12.6155,5.9725,-5.1735,-0.4677,1173,2019-08-07 17:05:09:185
3.5088,18.2898,-5.8602,-1.4078,-10.4895,12.6155,5.9107,-3.4233,-0.6903,1178,2019-08-07 17:05:09:190
6.2693,19.1204,-7.3167,-5.7821,-12.8868,14.8759,5.9107,-3.4233,-0.6903,1182,2019-08-07 17:05:09:194
6.2693,19.1204,-7.3167,-5.7821,-12.8868,14.8759,5.9107,-3.4233,-0.6903,1188,2019-08-07 17:05:09:200
6.2693,19.1204,-7.3167,-5.7821,-12.8868,14.8759,5.7147,-0.5875,-0.9822,1192,2019-08-07 17:05:09:204
4.6761,20.3091,-4.0642,-5.7821,-12.8868,14.8759,5.7147,-0.5875,-0.9822,1198,2019-08-07 17:05:09:210
4.6761,20.3091,-4.0642,-2.5933,-14.3506,5.7121,5.655,0.9315,-0.9129,1203,2019-08-07 17:05:09:215
2.3845,21.6744,4.0954,-2.5933,-14.3506,5.7121,5.655,0.9315,-0.9129,1207,2019-08-07 17:05:09:219
2.3845,21.6744,4.0954,-2.5933,-14.3506,5.7121,5.8521,1.429,-0.7137,1213,2019-08-07 17:05:09:225
2.3845,21.6744,4.0954,-2.5933,-14.3506,5.7121,5.8521,1.429,-0.7137,1218,2019-08-07 17:05:09:230
0.2124,21.8606,4.0105,0.03,-13.9657,1.8074,5.9778,1.756,-0.6424,1222,2019-08-07 17:05:09:234
0.2124,21.8606,4.0105,0.03,-13.9657,1.8074,5.9778,1.756,-0.6424,1228,2019-08-07 17:05:09:240
-1.0889,22.3284,3.9823,0.03,-13.9657,1.8074,5.835,2.1598,-0.6381,1233,2019-08-07 17:05:09:245
-1.0889,22.3284,3.9823,0.03,-13.9657,1.8074,5.835,2.1598,-0.6381,1237,2019-08-07 17:05:09:249
-1.0889,22.3284,3.9823,1.3985,-13.9098,-1.0259,5.835,2.1598,-0.6381,1243,2019-08-07 17:05:09:255
-1.6725,22.3523,6.6739,1.3985,-13.9098,-1.0259,5.6955,2.245,-0.6818,1247,2019-08-07 17:05:09:259
-1.6725,22.3523,6.6739,1.3985,-13.9098,-1.0259,5.6955,2.245,-0.6818,1253,2019-08-07 17:05:09:265
-1.6725,22.3523,6.6739,1.3985,-13.9098,-1.0259,5.6465,1.6634,-0.7489,1257,2019-08-07 17:05:09:269
-3.3949,20.6289,9.7755,3.0003,-11.5873,-5.9902,5.6465,1.6634,-0.7489,1263,2019-08-07 17:05:09:275
-3.3949,20.6289,9.7755,3.0003,-11.5873,-5.9902,5.4814,1.0892,-0.767,1268,2019-08-07 17:05:09:280
-3.3949,20.6289,9.7755,3.0003,-11.5873,-5.9902,5.4814,1.0892,-0.767,1272,2019-08-07 17:05:09:284
-4.9067,19.3686,9.4974,3.0003,-11.5873,-5.9902,5.2672,0.695,-0.7755,1278,2019-08-07 17:05:09:290
-4.9067,19.3686,9.4974,4.5773,-9.6339,-6.8808,5.2672,0.695,-0.7755,1283,2019-08-07 17:05:09:295
-4.9067,19.3686,9.4974,4.5773,-9.6339,-6.8808,4.9221,-0.0389,-0.7297,1287,2019-08-07 17:05:09:299
-5.1889,18.2134,10.7654,4.5773,-9.6339,-6.8808,4.9221,-0.0389,-0.7297,1293,2019-08-07 17:05:09:305
-5.1889,18.2134,10.7654,4.5773,-9.6339,-6.8808,4.9221,-0.0389,-0.7297,1297,2019-08-07 17:05:09:309
-3.6197,17.3302,11.3264,3.1759,-7.7267,-9.3695,4.6654,-0.7441,-0.6839,1303,2019-08-07 17:05:09:315
-3.6197,17.3302,11.3264,3.1759,-7.7267,-9.3695,4.6654,-0.7441,-0.6839,1308,2019-08-07 17:05:09:320
-3.6197,17.3302,11.3264,3.1759,-7.7267,-9.3695,4.3831,-1.1766,-0.6562,1313,2019-08-07 17:05:09:325
-1.4524,16.8862,9.818,3.1759,-7.7267,-9.3695,4.3831,-1.1766,-0.6562,1317,2019-08-07 17:05:09:329
-1.4524,16.8862,9.818,-0.0489,-7.0948,-7.9177,3.7258,-1.2789,-0.5784,1323,2019-08-07 17:05:09:335
-1.4524,16.8862,9.818,-0.0489,-7.0948,-7.9177,3.7258,-1.2789,-0.5784,1327,2019-08-07 17:05:09:339
-0.3712,16.9101,8.22,-0.0489,-7.0948,-7.9177,3.1836,-1.0904,-0.5518,1333,2019-08-07 17:05:09:345
-0.3712,16.9101,8.22,-0.0489,-7.0948,-7.9177,3.1836,-1.0904,-0.5518,1338,2019-08-07 17:05:09:350
-0.3712,16.9101,8.22,-0.0489,-7.0948,-7.9177,3.1836,-1.0904,-0.5518,1342,2019-08-07 17:05:09:354
0.6526,17.1965,8.3048,-1.6038,-7.4423,-7.8726,2.8257,-0.9412,-0.5017,1348,2019-08-07 17:05:09:360
0.6526,17.1965,8.3048,-1.6038,-7.4423,-7.8726,2.8257,-0.9412,-0.5017,1353,2019-08-07 17:05:09:365
0.6526,17.1965,8.3048,-1.6038,-7.4423,-7.8726,2.292,-0.8571,-0.3675,1358,2019-08-07 17:05:09:370
1.3416,17.4066,7.5223,-2.4278,-7.6879,-7.1822,2.292,-0.8571,-0.3675,1363,2019-08-07 17:05:09:375
1.3416,17.4066,7.5223,-2.4278,-7.6879,-7.1822,1.983,-0.7686,-0.2653,1368,2019-08-07 17:05:09:380
1.3416,17.4066,7.5223,-2.4278,-7.6879,-7.1822,1.983,-0.7686,-0.2653,1373,2019-08-07 17:05:09:385
1.7961,17.1345,6.1223,-2.4278,-7.6879,-7.1822,1.6326,-0.5045,-0.1459,1378,2019-08-07 17:05:09:390
1.7961,17.1345,6.1223,-2.6353,-7.2195,-6.6711,1.6326,-0.5045,-0.1459,1383,2019-08-07 17:05:09:395
1.3559,16.8337,6.655,-2.6353,-7.2195,-6.6711,1.6326,-0.5045,-0.1459,1388,2019-08-07 17:05:09:400
1.3559,16.8337,6.655,-2.0764,-7.0,-7.2596,1.2874,-0.2371,-0.0245,1393,2019-08-07 17:05:09:405
1.3559,16.8337,6.655,-2.0764,-7.0,-7.2596,1.2874,-0.2371,-0.0245,1398,2019-08-07 17:05:09:410
0.6575,16.533,6.4617,-2.0764,-7.0,-7.2596,1.0776,-0.1923,0.1118,1402,2019-08-07 17:05:09:414
0.6575,16.533,6.4617,-2.0764,-7.0,-7.2596,1.0776,-0.1923,0.1118,1408,2019-08-07 17:05:09:420
0.2269,16.2322,5.8725,-1.2456,-6.4953,-6.4979,0.8603,-0.0464,0.2162,1413,2019-08-07 17:05:09:425
0.2269,16.2322,5.8725,-1.2456,-6.4953,-6.4979,0.8603,-0.0464,0.2162,1418,2019-08-07 17:05:09:430
0.2269,16.2322,5.8725,-1.2456,-6.4953,-6.4979,0.5694,0.2828,0.2951,1422,2019-08-07 17:05:09:434
0.1455,16.1272,6.3486,-1.2456,-6.4953,-6.4979,0.5694,0.2828,0.2951,1428,2019-08-07 17:05:09:440
0.1455,16.1272,6.3486,-1.1304,-5.8885,-7.2911,0.4107,0.5097,0.327,1433,2019-08-07 17:05:09:445
0.1455,16.1272,6.3486,-1.1304,-5.8885,-7.2911,0.4107,0.5097,0.327,1438,2019-08-07 17:05:09:450
-0.0793,15.1486,6.0799,-1.1304,-5.8885,-7.2911,0.4107,0.5097,0.327,1443,2019-08-07 17:05:09:455
-0.0793,15.1486,6.0799,-1.1304,-5.8885,-7.2911,0.2552,0.6609,0.3302,1448,2019-08-07 17:05:09:460
-0.5912,14.3704,6.292,-0.2803,-4.6277,-7.0379,0.2552,0.6609,0.3302,1453,2019-08-07 17:05:09:465
-0.5912,14.3704,6.292,-0.2803,-4.6277,-7.0379,0.0261,0.7749,0.3292,1458,2019-08-07 17:05:09:470
-0.5912,14.3704,6.292,-0.2803,-4.6277,-7.0379,0.0261,0.7749,0.3292,1463,2019-08-07 17:05:09:475
-0.6343,13.5493,7.0604,-0.1976,-3.8022,-7.7938,-0.0687,0.7014,0.3387,1468,2019-08-07 17:05:09:480
-0.6343,13.5493,7.0604,-0.1976,-3.8022,-7.7938,-0.0687,0.7014,0.3387,1472,2019-08-07 17:05:09:484
-1.1845,12.4657,6.8624,-0.1976,-3.8022,-7.7938,-0.1933,0.4202,0.3633,1478,2019-08-07 17:05:09:490
-1.1845,12.4657,6.8624,0.8983,-2.7219,-7.2474,-0.1933,0.4202,0.3633,1482,2019-08-07 17:05:09:494
-1.1845,12.4657,6.8624,0.8983,-2.7219,-7.2474,-0.3925,0.075,0.4293,1488,2019-08-07 17:05:09:500
-1.7346,12.3798,6.5607,0.8983,-2.7219,-7.2474,-0.3925,0.075,0.4293,1493,2019-08-07 17:05:09:505
-1.7346,12.3798,6.5607,0.8983,-2.7219,-7.2474,-0.5193,-0.2456,0.4836,1498,2019-08-07 17:05:09:510
-1.3088,12.6232,6.0658,0.6382,-2.8511,-6.6061,-0.5193,-0.2456,0.4836,1503,2019-08-07 17:05:09:515
-1.3088,12.6232,6.0658,0.6382,-2.8511,-6.6061,-0.5193,-0.2456,0.4836,1507,2019-08-07 17:05:09:519
-1.3088,12.6232,6.0658,0.6382,-2.8511,-6.6061,-0.6716,-0.5045,0.5209,1513,2019-08-07 17:05:09:525
-0.6151,12.2461,4.9439,-0.0069,-2.4664,-5.3989,-0.6716,-0.5045,0.5209,1518,2019-08-07 17:05:09:530
-0.6151,12.2461,4.9439,-0.0069,-2.4664,-5.3989,-0.6716,-0.5045,0.5209,1522,2019-08-07 17:05:09:534
-0.4572,12.0933,4.3453,-0.0069,-2.4664,-5.3989,-0.9262,-0.382,0.49,1528,2019-08-07 17:05:09:540
-0.4572,12.0933,4.3453,-0.0069,-2.4664,-5.3989,-0.9262,-0.382,0.49,1532,2019-08-07 17:05:09:544
-0.4572,12.0933,4.3453,-0.2122,-2.2145,-4.7099,-1.0242,-0.3479,0.4442,1538,2019-08-07 17:05:09:550
-0.4572,12.0933,4.3453,-0.2122,-2.2145,-4.7099,-1.0242,-0.3479,0.4442,1542,2019-08-07 17:05:09:554
-0.218,11.7496,4.3075,-0.2122,-2.2145,-4.7099,-1.0434,-0.4001,0.3888,1548,2019-08-07 17:05:09:560
-0.218,11.7496,4.3075,-0.2122,-2.2145,-4.7099,-1.0434,-0.4001,0.3888,1553,2019-08-07 17:05:09:565
-0.285,10.8521,2.9264,-0.1605,-1.21,-3.041,-1.0402,-0.3361,0.2535,1557,2019-08-07 17:05:09:569
-0.285,10.8521,2.9264,-0.1605,-1.21,-3.041,-1.0402,-0.3361,0.2535,1563,2019-08-07 17:05:09:575
-0.285,10.8521,2.9264,-0.1605,-1.21,-3.041,-1.0306,-0.2051,0.163,1568,2019-08-07 17:05:09:580
-0.3472,9.8592,2.9547,-0.1605,-1.21,-3.041,-1.0306,-0.2051,0.163,1573,2019-08-07 17:05:09:585
-0.3472,9.8592,2.9547,0.0521,0.0066,-2.8223,-0.9922,-0.1476,0.1161,1578,2019-08-07 17:05:09:590
-0.5816,9.8353,2.9971,0.0521,0.0066,-2.8223,-0.9922,-0.1476,0.1161,1582,2019-08-07 17:05:09:594
-0.5816,9.8353,2.9971,0.0521,0.0066,-2.8223,-0.9922,-0.1476,0.1161,1588,2019-08-07 17:05:09:600
-0.5816,9.8353,2.9971,0.0521,0.0066,-2.8223,-0.9145,-0.2328,0.0842,1592,2019-08-07 17:05:09:604
-0.4476,9.8305,1.3284,-0.0667,0.0341,-0.686,-0.9145,-0.2328,0.0842,1598,2019-08-07 17:05:09:610
-0.4476,9.8305,1.3284,-0.0667,0.0341,-0.686,-0.8793,-0.1029,0.082,1602,2019-08-07 17:05:09:614
0.4566,9.1383,0.3857,-0.0667,0.0341,-0.686,-0.8793,-0.1029,0.082,1608,2019-08-07 17:05:09:620
0.4566,9.1383,0.3857,-0.0667,0.0341,-0.686,-0.8719,0.2828,0.0607,1612,2019-08-07 17:05:09:624
0.4566,9.1383,0.3857,-1.0712,0.2883,0.2232,-0.8719,0.2828,0.0607,1618,2019-08-07 17:05:09:630
0.4997,10.2602,0.8429,-1.0712,0.2883,0.2232,-0.8527,0.5331,0.0149,1623,2019-08-07 17:05:09:635
0.4997,10.2602,0.8429,-1.0712,0.2883,0.2232,-0.8527,0.5331,0.0149,1628,2019-08-07 17:05:09:640
0.0404,10.6659,1.4416,-1.0712,0.2883,0.2232,-0.6993,0.4415,0.0149,1633,2019-08-07 17:05:09:645
0.0404,10.6659,1.4416,-0.4092,-0.6919,0.0071,-0.6993,0.4415,0.0149,1638,2019-08-07 17:05:09:650
0.0404,10.6659,1.4416,-0.4092,-0.6919,0.0071,-0.6993,0.4415,0.0149,1642,2019-08-07 17:05:09:654
0.2557,10.2506,-0.015,-0.4092,-0.6919,0.0071,-0.5363,0.1976,0.0106,1648,2019-08-07 17:05:09:660
0.2557,10.2506,-0.015,-0.4092,-0.6919,0.0071,-0.5363,0.1976,0.0106,1653,2019-08-07 17:05:09:665
0.2557,10.2506,-0.015,-1.525,1.1193,1.6378,-0.4117,0.4735,-0.0479,1657,2019-08-07 17:05:09:669
1.2269,8.4366,-0.9012,-1.525,1.1193,1.6378,-0.4117,0.4735,-0.0479,1663,2019-08-07 17:05:09:675
1.2269,8.4366,-0.9012,-1.525,1.1193,1.6378,-0.434,0.8793,-0.1364,1668,2019-08-07 17:05:09:680
0.9733,10.37,1.8045,-1.525,1.1193,1.6378,-0.434,0.8793,-0.1364,1673,2019-08-07 17:05:09:685
0.9733,10.37,1.8045,-1.3718,-1.5046,-2.1608,-0.5597,0.8378,-0.13,1678,2019-08-07 17:05:09:690
0.9733,10.37,1.8045,-1.3718,-1.5046,-2.1608,-0.5597,0.8378,-0.13,1682,2019-08-07 17:05:09:694
1.9684,16.3372,13.589,-1.3718,-1.5046,-2.1608,-0.8143,0.0857,0.2045,1688,2019-08-07 17:05:09:700
1.9684,16.3372,13.589,-1.3718,-1.5046,-2.1608,-0.8143,0.0857,0.2045,1692,2019-08-07 17:05:09:704
1.9684,16.3372,13.589,-3.319,-8.3923,-25.2322,-0.8143,0.0857,0.2045,1698,2019-08-07 17:05:09:710
2.2794,17.2252,24.0584,-3.319,-8.3923,-25.2322,-0.4873,-1.0744,0.5848,1702,2019-08-07 17:05:09:714
2.2794,17.2252,24.0584,-3.319,-8.3923,-25.2322,-0.4873,-1.0744,0.5848,1708,2019-08-07 17:05:09:720
0.0452,10.3127,-6.0817,-3.319,-8.3923,-25.2322,-0.0942,-0.0677,0.5305,1712,2019-08-07 17:05:09:724
0.0452,10.3127,-6.0817,0.4393,-1.1771,11.096,-0.0942,-0.0677,0.5305,1718,2019-08-07 17:05:09:730
0.0452,10.3127,-6.0817,0.4393,-1.1771,11.096,-0.4735,1.3715,-0.0075,1722,2019-08-07 17:05:09:734
-5.1361,13.282,-7.1753,0.4393,-1.1771,11.096,-0.4735,1.3715,-0.0075,1728,2019-08-07 17:05:09:740
-5.1361,13.282,-7.1753,0.4393,-1.1771,11.096,-0.1816,1.8199,0.1534,1733,2019-08-07 17:05:09:745
-3.0406,8.131,1.6914,2.748,1.6001,-0.4852,-0.1816,1.8199,0.1534,1737,2019-08-07 17:05:09:749
-3.0406,8.131,1.6914,2.748,1.6001,-0.4852,-0.1816,1.8199,0.1534,1743,2019-08-07 17:05:09:755
-3.0406,8.131,1.6914,2.748,1.6001,-0.4852,0.155,0.5097,0.1747,1747,2019-08-07 17:05:09:759
-1.1843,10.4989,8.0456,2.748,1.6001,-0.4852,0.155,0.5097,0.1747,1753,2019-08-07 17:05:09:765
-1.1843,10.4989,8.0456,0.259,-1.4044,-5.3527,0.4874,-2.537,0.1406,1757,2019-08-07 17:05:09:769
0.3227,10.6803,-1.0473,0.259,-1.4044,-5.3527,0.4874,-2.537,0.1406,1763,2019-08-07 17:05:09:775
0.3227,10.6803,-1.0473,0.259,-1.4044,-5.3527,0.7345,-2.0342,0.2674,1767,2019-08-07 17:05:09:779
0.3227,10.6803,-1.0473,0.259,-1.4044,-5.3527,0.7345,-2.0342,0.2674,1773,2019-08-07 17:05:09:785
3.1645,10.4893,-8.4386,-3.6409,-0.3501,8.6339,0.2104,-0.35,0.3196,1777,2019-08-07 17:05:09:789
3.1645,10.4893,-8.4386,-3.6409,-0.3501,8.6339,0.2104,-0.35,0.3196,1783,2019-08-07 17:05:09:795
3.1645,10.4893,-8.4386,-3.6409,-0.3501,8.6339,0.2104,-0.35,0.3196,1788,2019-08-07 17:05:09:800
0.3227,9.3627,4.2651,-3.6409,-0.3501,8.6339,-0.0932,1.3257,0.0863,1792,2019-08-07 17:05:09:804
0.3227,9.3627,4.2651,1.8086,0.1026,-3.5642,-0.0932,1.3257,0.0863,1798,2019-08-07 17:05:09:810
-2.8253,9.9212,3.0867,1.8086,0.1026,-3.5642,0.1018,0.2636,0.114,1802,2019-08-07 17:05:09:814
-2.8253,9.9212,3.0867,1.8086,0.1026,-3.5642,0.1018,0.2636,0.114,1808,2019-08-07 17:05:09:820
-2.8253,9.9212,3.0867,1.8086,0.1026,-3.5642,0.2424,-0.7271,0.1779,1813,2019-08-07 17:05:09:825
-1.634,9.7016,0.6826,1.0163,0.0487,1.0871,0.2424,-0.7271,0.1779,1817,2019-08-07 17:05:09:829
-1.634,9.7016,0.6826,1.0163,0.0487,1.0871,0.2935,-0.9583,0.2312,1823,2019-08-07 17:05:09:835
0.428,9.9976,-1.3914,1.0163,0.0487,1.0871,0.2935,-0.9583,0.2312,1828,2019-08-07 17:05:09:840
0.428,9.9976,-1.3914,1.0163,0.0487,1.0871,0.2435,-0.5204,0.1949,1833,2019-08-07 17:05:09:845
0.428,9.9976,-1.3914,-1.0155,-0.3263,-0.8184,0.2435,-0.5204,0.1949,1838,2019-08-07 17:05:09:850
1.0356,9.9785,2.587,-1.0155,-0.3263,-0.8184,0.2285,-0.1934,0.1896,1843,2019-08-07 17:05:09:855
1.0356,9.9785,2.587,-1.0155,-0.3263,-0.8184,0.2285,-0.1934,0.1896,1847,2019-08-07 17:05:09:859
1.0356,9.9785,2.587,-1.0155,-0.3263,-0.8184,0.2285,-0.1934,0.1896,1853,2019-08-07 17:05:09:865
1.6623,9.2911,1.4416,-1.0155,-0.3263,-0.8184,0.3585,-0.3702,0.1928,1858,2019-08-07 17:05:09:870
1.6623,9.2911,1.4416,-1.7197,0.4613,0.0593,0.3585,-0.3702,0.1928,1863,2019-08-07 17:05:09:875
1.9494,9.6443,-1.0567,-1.7197,0.4613,0.0593,0.318,-0.2136,0.1172,1868,2019-08-07 17:05:09:880
1.9494,9.6443,-1.0567,-1.7197,0.4613,0.0593,0.318,-0.2136,0.1172,1872,2019-08-07 17:05:09:884
1.9494,9.6443,-1.0567,-2.0838,-0.3676,2.3945,0.2136,0.1315,0.0905,1878,2019-08-07 17:05:09:890
2.0926,10.1695,-1.4528,-2.0838,-0.3676,2.3945,0.2136,0.1315,0.0905,1882,2019-08-07 17:05:09:894
2.0926,10.1695,-1.4528,-2.0838,-0.3676,2.3945,0.1146,0.4873,0.0533,1888,2019-08-07 17:05:09:900
1.308,10.327,-1.4433,-2.0838,-0.3676,2.3945,0.1146,0.4873,0.0533,1893,2019-08-07 17:05:09:905
1.308,10.327,-1.4433,-2.0838,-0.3676,2.3945,0.0198,0.7249,-0.0021,1898,2019-08-07 17:05:09:910
1.308,10.327,-1.4433,-0.3516,-0.8419,2.1549,0.0198,0.7249,-0.0021,1902,2019-08-07 17:05:09:914
-0.5531,10.8521,-1.1275,-0.3516,-0.8419,2.1549,-0.0559,0.8026,-0.033,1908,2019-08-07 17:05:09:920
-0.5531,10.8521,-1.1275,0.9107,-1.1279,1.8161,-0.0559,0.8026,-0.033,1912,2019-08-07 17:05:09:924
-0.5531,10.8521,-1.1275,0.9107,-1.1279,1.8161,-0.1038,0.7558,-0.0458,1918,2019-08-07 17:05:09:930
-1.7204,10.6278,0.2584,0.9107,-1.1279,1.8161,-0.1038,0.7558,-0.0458,1923,2019-08-07 17:05:09:935
-1.7204,10.6278,0.2584,0.9107,-1.1279,1.8161,-0.1049,0.597,-0.0352,1928,2019-08-07 17:05:09:940
-1.6534,10.2268,1.8469,1.6638,-0.4514,-1.0235,-0.1049,0.597,-0.0352,1933,2019-08-07 17:05:09:945
-1.6534,10.2268,1.8469,1.6638,-0.4514,-1.0235,-0.0474,0.0719,0.0479,1938,2019-08-07 17:05:09:950
-0.6774,9.9547,0.7439,1.6638,-0.4514,-1.0235,-0.0474,0.0719,0.0479,1943,2019-08-07 17:05:09:955
-0.6774,9.9547,0.7439,1.6638,-0.4514,-1.0235,-0.0367,-0.1412,0.0447,1948,2019-08-07 17:05:09:960
-0.6774,9.9547,0.7439,0.1569,-0.1419,1.2064,-0.0367,-0.1412,0.0447,1953,2019-08-07 17:05:09:965
0.0067,10.0215,-0.4487,0.1569,-0.1419,1.2064,-0.0367,-0.1412,0.0447,1957,2019-08-07 17:05:09:969
0.0067,10.0215,-0.4487,0.1569,-0.1419,1.2064,-0.0719,0.041,0.0394,1963,2019-08-07 17:05:09:975
0.7052,9.8305,1.2765,0.1569,-0.1419,1.2064,-0.0719,0.041,0.0394,1967,2019-08-07 17:05:09:979
0.7052,9.8305,1.2765,-0.7752,0.0529,-0.6408,-0.0548,0.2125,0.0543,1973,2019-08-07 17:05:09:985
0.7052,9.8305,1.2765,-0.7752,0.0529,-0.6408,-0.0548,0.2125,0.0543,1978,2019-08-07 17:05:09:990
0.6765,9.5441,1.1116,-0.7752,0.0529,-0.6408,-0.0356,0.2189,0.033,1982,2019-08-07 17:05:09:994
0.6765,9.5441,1.1116,-0.7752,0.0529,-0.6408,-0.0356,0.2189,0.033,1988,2019-08-07 17:05:10:000
0.0498,9.864,0.0604,-0.1109,-0.0195,0.6838,-0.0367,0.3179,0.0362,1993,2019-08-07 17:05:10:005
0.0498,9.864,0.0604,-0.1109,-0.0195,0.6838,-0.0367,0.3179,0.0362,1998,2019-08-07 17:05:10:010
0.0498,9.864,0.0604,-0.1109,-0.0195,0.6838,-0.0367,0.3179,0.0362,2003,2019-08-07 17:05:10:015
0.0498,9.864,0.0604,-0.1109,-0.0195,0.6838,-0.0548,0.4138,0.0309,2008,2019-08-07 17:05:10:020
-0.3712,10.0645,0.8099,0.4525,-0.3256,-0.055,-0.0548,0.4138,0.0309,2012,2019-08-07 17:05:10:024
-0.3712,10.0645,0.8099,0.4525,-0.3256,-0.055,-0.0303,0.3286,0.0351,2018,2019-08-07 17:05:10:030
-0.4287,10.2697,1.0361,0.4525,-0.3256,-0.055,-0.0303,0.3286,0.0351,2022,2019-08-07 17:05:10:034
-0.4287,10.2697,1.0361,0.4525,-0.3256,-0.055,0.0016,0.1581,0.0298,2028,2019-08-07 17:05:10:040
-0.4287,10.2697,1.0361,0.3935,-0.4453,0.1237,0.0016,0.1581,0.0298,2032,2019-08-07 17:05:10:044
-0.2134,10.117,0.5695,0.3935,-0.4453,0.1237,0.0272,0.0133,0.0447,2038,2019-08-07 17:05:10:050
-0.2134,10.117,0.5695,0.3935,-0.4453,0.1237,0.0272,0.0133,0.0447,2042,2019-08-07 17:05:10:054
0.3129,9.778,0.6072,-0.0056,-0.2158,0.3935,0.0272,0.0133,0.0447,2048,2019-08-07 17:05:10:060
0.3129,9.778,0.6072,-0.0056,-0.2158,0.3935,0.0176,-0.0134,0.0405,2052,2019-08-07 17:05:10:064
0.3129,9.778,0.6072,-0.0056,-0.2158,0.3935,0.0176,-0.0134,0.0405,2058,2019-08-07 17:05:10:070
0.6813,9.7207,0.5648,-0.6054,-0.0054,0.4309,0.0038,-0.0176,0.0394,2063,2019-08-07 17:05:10:075
0.6813,9.7207,0.5648,-0.6054,-0.0054,0.4309,0.0038,-0.0176,0.0394,2067,2019-08-07 17:05:10:079
0.0402,10.0597,0.2442,-0.6054,-0.0054,0.4309,-0.0186,0.0814,0.0117,2073,2019-08-07 17:05:10:085
0.0402,10.0597,0.2442,-0.6054,-0.0054,0.4309,-0.0186,0.0814,0.0117,2078,2019-08-07 17:05:10:090
0.0402,10.0597,0.2442,0.1008,-0.1915,0.3025,-0.0282,0.1592,-0.0011,2082,2019-08-07 17:05:10:094
-0.0555,10.0215,0.692,0.1008,-0.1915,0.3025,-0.0282,0.1592,-0.0011,2088,2019-08-07 17:05:10:100
-0.0555,10.0215,0.692,0.1008,-0.1915,0.3025,-0.0282,0.1592,-0.0011,2092,2019-08-07 17:05:10:104
-0.0555,9.9785,0.8193,0.1008,-0.1915,0.3025,-0.0239,0.0878,-0.0107,2098,2019-08-07 17:05:10:110
-0.0555,9.9785,0.8193,0.0919,-0.1727,0.2069,-0.0239,0.0878,-0.0107,2102,2019-08-07 17:05:10:114
-0.0555,9.9785,0.8193,0.0919,-0.1727,0.2069,-0.0058,-0.0123,-0.0085,2108,2019-08-07 17:05:10:120
-0.0507,9.8449,0.5836,0.0919,-0.1727,0.2069,-0.0058,-0.0123,-0.0085,2112,2019-08-07 17:05:10:124
-0.0507,9.8449,0.5836,0.0919,-0.1727,0.2069,-0.0239,0.0324,0.0,2117,2019-08-07 17:05:10:129
-0.2373,9.9881,0.2442,0.2765,-0.2156,0.6117,-0.0239,0.0324,0.0,2123,2019-08-07 17:05:10:135
-0.2373,9.9881,0.2442,0.2765,-0.2156,0.6117,-0.0378,0.123,0.0053,2127,2019-08-07 17:05:10:139
-0.2373,9.9881,0.2442,0.2765,-0.2156,0.6117,-0.0378,0.123,0.0053,2132,2019-08-07 17:05:10:144
-0.5339,9.9451,0.8193,0.2765,-0.2156,0.6117,-0.0367,0.074,0.033,2138,2019-08-07 17:05:10:150
-0.5339,9.9451,0.8193,0.2765,-0.2156,0.6117,-0.0367,0.074,0.033,2142,2019-08-07 17:05:10:154
-0.7109,10.0215,0.9277,0.6812,-0.1923,-0.037,-0.0239,-0.04,0.0415,2148,2019-08-07 17:05:10:160
-0.7109,10.0215,0.9277,0.6812,-0.1923,-0.037,-0.0239,-0.04,0.0415,2152,2019-08-07 17:05:10:164
-0.7109,10.0215,0.9277,0.6812,-0.1923,-0.037,-0.0239,-0.04,0.0415,2158,2019-08-07 17:05:10:170
-0.309,9.9594,1.1446,0.0564,-0.1067,-0.0756,-5.0E-4,-0.1625,0.0522,2162,2019-08-07 17:05:10:174
-0.309,9.9594,1.1446,0.0564,-0.1067,-0.0756,-5.0E-4,-0.1625,0.0522,2168,2019-08-07 17:05:10:180
-0.309,9.9594,1.1446,0.0564,-0.1067,-0.0756,0.024,-0.2339,0.0415,2172,2019-08-07 17:05:10:184
0.533,9.9308,0.2678,0.0564,-0.1067,-0.0756,0.024,-0.2339,0.0415,2178,2019-08-07 17:05:10:190
0.533,9.9308,0.2678,-0.6741,-0.1443,0.5771,0.0144,-0.0911,0.0213,2183,2019-08-07 17:05:10:195
0.533,9.9308,0.2678,-0.6741,-0.1443,0.5771,0.0144,-0.0911,0.0213,2188,2019-08-07 17:05:10:200
0.533,9.9308,0.2678,-0.6741,-0.1443,0.5771,0.0144,-0.0911,0.0213,2192,2019-08-07 17:05:10:204
0.8153,9.8114,0.6119,-0.6741,-0.1443,0.5771,0.0166,0.0271,0.0053,2198,2019-08-07 17:05:10:210
0.8153,9.8114,0.6119,-0.4766,0.0995,-0.0922,0.0166,0.0271,0.0053,2202,2019-08-07 17:05:10:214
0.4708,9.7112,0.9183,-0.4766,0.0995,-0.0922,0.0325,0.091,-0.016,2208,2019-08-07 17:05:10:220
0.4708,9.7112,0.9183,-0.4766,0.0995,-0.0922,0.0325,0.091,-0.016,2213,2019-08-07 17:05:10:225
0.4708,9.7112,0.9183,-0.4766,0.0995,-0.0922,0.0475,0.0655,-0.032,2217,2019-08-07 17:05:10:229
0.0498,10.0645,0.8146,-0.4766,0.0995,-0.0922,0.0475,0.0655,-0.032,2223,2019-08-07 17:05:10:235
0.0498,10.0645,0.8146,0.0203,-0.3342,-0.0626,0.057,0.0282,-0.032,2228,2019-08-07 17:05:10:240
0.1455,10.0454,0.7533,0.0203,-0.3342,-0.0626,0.057,0.0282,-0.032,2233,2019-08-07 17:05:10:245
0.1455,10.0454,0.7533,0.0203,-0.3342,-0.0626,0.057,0.0282,-0.032,2237,2019-08-07 17:05:10:249
0.1455,10.0454,0.7533,0.0203,-0.3342,-0.0626,0.073,-0.0624,-0.0533,2243,2019-08-07 17:05:10:255
0.399,9.9021,0.4846,-0.3458,-0.1275,0.3462,0.073,-0.0624,-0.0533,2247,2019-08-07 17:05:10:259
0.399,9.9021,0.4846,-0.3458,-0.1275,0.3462,0.072,-0.0475,-0.0746,2253,2019-08-07 17:05:10:265
0.5856,9.7733,0.3903,-0.3458,-0.1275,0.3462,0.072,-0.0475,-0.0746,2257,2019-08-07 17:05:10:269
0.5856,9.7733,0.3903,-0.3458,-0.1275,0.3462,0.0507,0.0154,-0.0884,2263,2019-08-07 17:05:10:275
0.5856,9.7733,0.3903,-0.4954,-0.0545,0.6787,0.0507,0.0154,-0.0884,2267,2019-08-07 17:05:10:279
0.1981,9.7876,-0.4581,-0.4954,-0.0545,0.6787,-0.0165,0.0846,-0.0937,2273,2019-08-07 17:05:10:285
0.1981,9.7876,-0.4581,0.2941,-0.2783,1.1346,-0.0165,0.0846,-0.0937,2278,2019-08-07 17:05:10:290
-0.0794,10.0597,0.6967,0.2941,-0.2783,1.1346,-0.009,0.1443,-0.0937,2283,2019-08-07 17:05:10:295
-0.0794,10.0597,0.6967,0.2941,-0.2783,1.1346,-0.009,0.1443,-0.0937,2288,2019-08-07 17:05:10:300
-0.4908,10.2793,0.593,0.2941,-0.2783,1.1346,-0.0229,0.0079,-0.098,2293,2019-08-07 17:05:10:305
-0.4908,10.2793,0.593,0.5534,-0.4599,0.3358,-0.0229,0.0079,-0.098,2298,2019-08-07 17:05:10:310
-0.4908,10.2793,0.593,0.5534,-0.4599,0.3358,-0.0229,0.0079,-0.098,2303,2019-08-07 17:05:10:315
-0.5243,9.9499,0.1358,0.5534,-0.4599,0.3358,-0.009,0.0069,-0.081,2307,2019-08-07 17:05:10:319
-0.5243,9.9499,0.1358,0.5534,-0.4599,0.3358,-0.009,0.0069,-0.081,2313,2019-08-07 17:05:10:325
-0.5243,9.9499,0.1358,0.543,-0.2307,0.6134,-0.0484,0.0612,-0.0735,2318,2019-08-07 17:05:10:330
-0.5674,10.0501,0.527,0.543,-0.2307,0.6134,-0.0484,0.0612,-0.0735,2322,2019-08-07 17:05:10:334
-0.5674,10.0501,0.527,0.4338,-0.1785,0.0565,-0.0516,0.0143,-0.0522,2328,2019-08-07 17:05:10:340
-0.3856,9.9451,0.7439,0.4338,-0.1785,0.0565,-0.0516,0.0143,-0.0522,2333,2019-08-07 17:05:10:345
-0.3856,9.9451,0.7439,0.4338,-0.1785,0.0565,-0.0495,-0.0911,-0.0437,2338,2019-08-07 17:05:10:350
-0.3856,9.9451,0.7439,0.4338,-0.1785,0.0565,-0.0495,-0.0911,-0.0437,2342,2019-08-07 17:05:10:354
-0.2325,10.0406,0.4516,0.2027,-0.2652,0.3714,-0.0516,-0.105,-0.0405,2348,2019-08-07 17:05:10:360
-0.2325,10.0406,0.4516,0.2027,-0.2652,0.3714,-0.0516,-0.105,-0.0405,2352,2019-08-07 17:05:10:364
-0.2325,10.0406,0.4516,0.2027,-0.2652,0.3714,-0.0516,-0.105,-0.0405,2358,2019-08-07 17:05:10:370
0.002,9.864,0.4469,0.2027,-0.2652,0.3714,-0.0591,-0.0698,-0.032,2362,2019-08-07 17:05:10:374
0.002,9.864,0.4469,0.0485,-0.2134,0.3139,-0.0591,-0.0698,-0.032,2368,2019-08-07 17:05:10:380
-0.0172,9.9928,0.7109,0.0485,-0.2134,0.3139,-0.0591,-0.0464,-0.0426,2372,2019-08-07 17:05:10:384
-0.0172,9.9928,0.7109,0.0115,-0.2378,0.0551,-0.0591,-0.0464,-0.0426,2378,2019-08-07 17:05:10:390
-0.0172,9.9928,0.7109,0.0115,-0.2378,0.0551,-0.0442,-0.0645,-0.0362,2383,2019-08-07 17:05:10:395
0.0068,9.8735,0.9843,0.0115,-0.2378,0.0551,-0.0442,-0.0645,-0.0362,2388,2019-08-07 17:05:10:400
0.0068,9.8735,0.9843,0.0115,-0.2378,0.0551,-0.0229,-0.0943,-0.0256,2393,2019-08-07 17:05:10:405
-0.0028,9.6778,0.8382,-0.1178,0.1196,-0.0785,-0.0229,-0.0943,-0.0256,2398,2019-08-07 17:05:10:410
-0.0028,9.6778,0.8382,-0.1178,0.1196,-0.0785,-0.0101,-0.0805,-0.016,2403,2019-08-07 17:05:10:415
-0.0028,9.6778,0.8382,-0.1178,0.1196,-0.0785,-0.0101,-0.0805,-0.016,2408,2019-08-07 17:05:10:420
-0.1368,9.8067,0.7439,-0.1178,0.1196,-0.0785,-0.0101,-0.0805,-0.016,2413,2019-08-07 17:05:10:425
-0.1368,9.8067,0.7439,0.1623,-0.0906,0.0316,-0.0079,-0.0624,-0.0032,2418,2019-08-07 17:05:10:430
-0.1368,9.8067,0.7439,0.1623,-0.0906,0.0316,-0.0079,-0.0624,-0.0032,2422,2019-08-07 17:05:10:434
-0.2803,9.8974,0.8806,0.1623,-0.0906,0.0316,0.0027,-0.0634,-0.0053,2428,2019-08-07 17:05:10:440
-0.2803,9.8974,0.8806,0.1623,-0.0906,0.0316,0.0027,-0.0634,-0.0053,2433,2019-08-07 17:05:10:445
-0.2803,9.8974,0.8806,0.1328,-0.1239,-0.0975,0.0347,-0.1071,0.0085,2437,2019-08-07 17:05:10:449
-0.1176,9.8496,0.9937,0.1328,-0.1239,-0.0975,0.0347,-0.1071,0.0085,2443,2019-08-07 17:05:10:455
-0.1176,9.8496,0.9937,0.1328,-0.1239,-0.0975,0.0538,-0.1391,-0.0011,2447,2019-08-07 17:05:10:459
0.0977,9.9165,0.7203,0.1328,-0.1239,-0.0975,0.0538,-0.1391,-0.0011,2453,2019-08-07 17:05:10:465
0.0977,9.9165,0.7203,-0.309,-0.0944,0.2507,0.0538,-0.1391,-0.0011,2457,2019-08-07 17:05:10:469
0.0977,9.9165,0.7203,-0.309,-0.0944,0.2507,0.0688,-0.0997,-0.0064,2463,2019-08-07 17:05:10:475
0.3608,9.9021,0.4893,-0.309,-0.0944,0.2507,0.0688,-0.0997,-0.0064,2467,2019-08-07 17:05:10:479
0.3608,9.9021,0.4893,-0.309,-0.0944,0.2507,0.0666,0.0346,-0.0181,2473,2019-08-07 17:05:10:485
0.1838,9.9308,0.4799,-0.1985,-0.1598,0.319,0.0666,0.0346,-0.0181,2478,2019-08-07 17:05:10:490
0.1838,9.9308,0.4799,-0.1985,-0.1598,0.319,0.0602,0.0825,-0.0234,2483,2019-08-07 17:05:10:495
0.1838,9.9308,0.4799,-0.1985,-0.1598,0.319,0.0602,0.0825,-0.0234,2488,2019-08-07 17:05:10:500
-0.065,9.9356,0.6308,-0.1985,-0.1598,0.319,0.0581,0.0729,-0.0373,2493,2019-08-07 17:05:10:505
-0.065,9.9356,0.6308,0.1481,-0.2017,0.1172,0.0581,0.0729,-0.0373,2498,2019-08-07 17:05:10:510
-0.1703,9.9642,0.6213,0.1481,-0.2017,0.1172,0.0581,0.0729,-0.0373,2503,2019-08-07 17:05:10:515
-0.1703,9.9642,0.6213,0.1481,-0.2017,0.1172,0.0666,0.0197,-0.0362,2508,2019-08-07 17:05:10:520
-0.1703,9.9642,0.6213,0.0962,-0.2441,0.1902,0.0666,0.0197,-0.0362,2513,2019-08-07 17:05:10:525
-0.1033,9.9928,0.5129,0.0962,-0.2441,0.1902,0.0581,0.0101,-0.0384,2518,2019-08-07 17:05:10:530
-0.1033,9.9928,0.5129,0.0962,-0.2441,0.1902,0.0581,0.0101,-0.0384,2523,2019-08-07 17:05:10:535
0.0403,9.9403,0.5695,-0.1076,-0.1524,0.2055,0.0507,0.0143,-0.0405,2527,2019-08-07 17:05:10:539
0.0403,9.9403,0.5695,-0.1076,-0.1524,0.2055,0.0507,0.0143,-0.0405,2533,2019-08-07 17:05:10:545
0.0403,9.9403,0.5695,-0.1076,-0.1524,0.2055,0.0507,0.0143,-0.0405,2538,2019-08-07 17:05:10:550
0.0068,9.9403,0.5271,-0.1076,-0.1524,0.2055,0.0517,0.0218,-0.0437,2543,2019-08-07 17:05:10:555
0.0068,9.9403,0.5271,-0.0393,-0.1897,0.2786,0.0517,0.0218,-0.0437,2548,2019-08-07 17:05:10:560
0.0068,9.9403,0.5271,-0.0393,-0.1897,0.2786,0.0389,0.042,-0.0415,2552,2019-08-07 17:05:10:564
-0.0793,9.9499,0.4799,-0.0393,-0.1897,0.2786,0.0389,0.042,-0.0415,2558,2019-08-07 17:05:10:570
-0.0793,9.9499,0.4799,0.0327,-0.1416,0.2829,0.0357,0.0516,-0.0437,2562,2019-08-07 17:05:10:574
-0.1176,9.9594,0.4563,0.0327,-0.1416,0.2829,0.0357,0.0516,-0.0437,2568,2019-08-07 17:05:10:580
-0.1176,9.9594,0.4563,0.0327,-0.1416,0.2829,0.023,0.041,-0.0437,2573,2019-08-07 17:05:10:585
-0.1176,9.9594,0.4563,0.0327,-0.1416,0.2829,0.023,0.041,-0.0437,2577,2019-08-07 17:05:10:589
-0.175,10.0024,0.3479,0.0802,-0.2221,0.3967,0.0166,0.042,-0.0362,2583,2019-08-07 17:05:10:595
-0.175,10.0024,0.3479,0.0802,-0.2221,0.3967,0.0166,0.042,-0.0362,2587,2019-08-07 17:05:10:599
-0.3568,10.0024,0.3762,0.0802,-0.2221,0.3967,0.0166,0.042,-0.0362,2593,2019-08-07 17:05:10:605
-0.3568,10.0024,0.3762,0.0802,-0.2221,0.3967,-5.0E-4,0.0537,-0.032,2598,2019-08-07 17:05:10:610
-0.3568,10.0024,0.3762,0.3768,-0.2123,0.2267,-5.0E-4,0.0537,-0.032,2603,2019-08-07 17:05:10:615
-0.4908,9.969,0.5789,0.3768,-0.2123,0.2267,-0.0015,0.0079,-0.016,2608,2019-08-07 17:05:10:620
-0.4908,9.969,0.5789,0.3539,-0.1694,0.0992,-0.0015,0.0079,-0.016,2612,2019-08-07 17:05:10:624
-0.4382,9.9069,0.6072,0.3539,-0.1694,0.0992,0.0016,-0.0389,-0.0085,2618,2019-08-07 17:05:10:630
-0.4382,9.9069,0.6072,0.3539,-0.1694,0.0992,0.0016,-0.0389,-0.0085,2623,2019-08-07 17:05:10:635
-0.4382,9.9069,0.6072,0.3539,-0.1694,0.0992,6.0E-4,-0.0549,-0.0021,2628,2019-08-07 17:05:10:640
-0.2994,10.0454,0.4941,0.2074,-0.2552,0.2484,6.0E-4,-0.0549,-0.0021,2633,2019-08-07 17:05:10:645
-0.2994,10.0454,0.4941,0.2074,-0.2552,0.2484,-0.0101,-0.0251,0.0096,2637,2019-08-07 17:05:10:649
-0.2994,10.0454,0.4941,0.2074,-0.2552,0.2484,-0.0101,-0.0251,0.0096,2643,2019-08-07 17:05:10:655
-0.2516,9.8974,0.5553,0.2074,-0.2552,0.2484,-0.0154,-0.008,0.0075,2648,2019-08-07 17:05:10:660
-0.2516,9.8974,0.5553,0.0549,-0.1263,0.0927,-0.0154,-0.008,0.0075,2653,2019-08-07 17:05:10:665
-0.2516,9.8974,0.5553,0.0549,-0.1263,0.0927,-0.0154,-0.008,0.0075,2658,2019-08-07 17:05:10:670
0.0163,9.9499,0.7156,0.0549,-0.1263,0.0927,-0.0026,-0.0496,0.0117,2663,2019-08-07 17:05:10:675
0.0163,9.9499,0.7156,0.0549,-0.1263,0.0927,-0.0026,-0.0496,0.0117,2667,2019-08-07 17:05:10:679
-0.0746,9.9117,0.3196,-0.1567,-0.1549,0.3986,-0.0037,-0.0421,0.0106,2673,2019-08-07 17:05:10:685
-0.0746,9.9117,0.3196,-0.1567,-0.1549,0.3986,-0.0037,-0.0421,0.0106,2678,2019-08-07 17:05:10:690
-0.0746,9.9117,0.3196,-0.1567,-0.1549,0.3986,-0.0175,0.0015,0.0128,2683,2019-08-07 17:05:10:695
-0.8687,9.9785,2.3042,-0.1567,-0.1549,0.3986,-0.0175,0.0015,0.0128,2687,2019-08-07 17:05:10:699
-0.8687,9.9785,2.3042,-0.1721,0.4267,-1.5131,0.0858,-0.2722,0.0245,2693,2019-08-07 17:05:10:705
-0.3664,10.3604,-1.2548,-0.1721,0.4267,-1.5131,0.0858,-0.2722,0.0245,2698,2019-08-07 17:05:10:710
-0.3664,10.3604,-1.2548,-0.1721,0.4267,-1.5131,0.0858,-0.2722,0.0245,2702,2019-08-07 17:05:10:714
-0.3664,10.3604,-1.2548,-0.1721,0.4267,-1.5131,-0.0623,-0.1369,0.0341,2708,2019-08-07 17:05:10:720
0.4087,9.6491,0.9089,-0.4844,0.127,-0.2391,-0.0623,-0.1369,0.0341,2712,2019-08-07 17:05:10:724
0.4087,9.6491,0.9089,-0.4844,0.127,-0.2391,0.0613,0.0303,0.0043,2718,2019-08-07 17:05:10:730
0.0355,10.0979,0.0133,-0.4844,0.127,-0.2391,0.0613,0.0303,0.0043,2723,2019-08-07 17:05:10:735
0.0355,10.0979,0.0133,-0.4844,0.127,-0.2391,-0.0058,0.0495,0.0053,2728,2019-08-07 17:05:10:740
0.0355,10.0979,0.0133,-0.1854,-0.0347,0.0554,-0.0058,0.0495,0.0053,2733,2019-08-07 17:05:10:745
0.0307,9.8305,0.6732,-0.1854,-0.0347,0.0554,0.0389,0.1187,-0.0032,2737,2019-08-07 17:05:10:749
0.0307,9.8305,0.6732,-0.1669,-0.1634,0.2075,0.0389,0.1187,-0.0032,2743,2019-08-07 17:05:10:755
0.069,9.9308,0.5318,-0.1669,-0.1634,0.2075,0.0134,0.1187,-0.0149,2747,2019-08-07 17:05:10:759
0.069,9.9308,0.5318,-0.1669,-0.1634,0.2075,0.0134,0.1187,-0.0149,2753,2019-08-07 17:05:10:765
0.069,9.9308,0.5318,-0.1669,-0.1634,0.2075,0.0134,0.1187,-0.0149,2757,2019-08-07 17:05:10:769
-0.0315,9.864,0.7015,-0.0946,-0.0818,0.0137,0.0261,0.1209,-0.0149,2763,2019-08-07 17:05:10:775
-0.0315,9.864,0.7015,-0.0946,-0.0818,0.0137,0.0261,0.1209,-0.0149,2768,2019-08-07 17:05:10:780
-0.1463,9.9547,0.7298,-0.0946,-0.0818,0.0137,0.0251,0.0356,-0.017,2773,2019-08-07 17:05:10:785
-0.1463,9.9547,0.7298,-0.0946,-0.0818,0.0137,0.0251,0.0356,-0.017,2778,2019-08-07 17:05:10:790
-0.1463,9.9547,0.7298,0.1206,-0.2151,0.3231,0.0251,0.0356,-0.017,2782,2019-08-07 17:05:10:794
-0.1702,9.9785,0.4328,0.1206,-0.2151,0.3231,0.0251,0.0452,-0.0192,2788,2019-08-07 17:05:10:800
-0.1702,9.9785,0.4328,0.013,-0.1194,0.2158,0.0208,0.058,-0.0117,2794,2019-08-07 17:05:10:806
-0.1894,9.8974,0.5223,0.013,-0.1194,0.2158,0.0208,0.058,-0.0117,2798,2019-08-07 17:05:10:810
-0.1894,9.8974,0.5223,0.013,-0.1194,0.2158,0.0208,0.058,-0.0117,2803,2019-08-07 17:05:10:815
-0.1894,9.8974,0.5223,0.013,-0.1194,0.2158,0.0187,0.0591,-0.0085,2807,2019-08-07 17:05:10:819
-0.242,9.9928,0.5271,0.1909,-0.2527,0.1868,0.0187,0.0591,-0.0085,2813,2019-08-07 17:05:10:825
-0.242,9.9928,0.5271,0.1909,-0.2527,0.1868,0.0155,0.0335,0.0011,2817,2019-08-07 17:05:10:829
-0.3425,10.0215,0.3904,0.1909,-0.2527,0.1868,0.0155,0.0335,0.0011,2823,2019-08-07 17:05:10:835