ACCELEROMETER X (m/s²),ACCELEROMETER Y (m/s²),ACCELEROMETER Z (m/s²),LINEAR ACCELERATION X (m/s²),LINEAR ACCELERATION Y (m/s²),LINEAR ACCELERATION Z (m/s²),GYROSCOPE X (rad/s),GYROSCOPE Y (rad/s),GYROSCOPE Z (rad/s),Time since start in ms ,YYYY-MO-DD HH-MI-SS_SSS
0.3074,9.8545,1.2905,-0.0867,-0.1059,0.1986,0.0091,0.0229,-0.0011,2,2019-08-07 17:04:49:804
0.1734,9.864,0.9464,-0.0867,-0.1059,0.1986,0.0091,0.0229,-0.0011,8,2019-08-07 17:04:49:810
0.1734,9.864,0.9464,-0.0867,-0.1059,0.1986,0.0016,0.0378,-0.0075,13,2019-08-07 17:04:49:815
0.1256,9.9786,1.2198,0.069,-0.2724,0.1901,0.0016,0.0378,-0.0075,18,2019-08-07 17:04:49:820
0.1256,9.9786,1.2198,0.069,-0.2724,0.1901,0.0112,0.0229,-0.0011,23,2019-08-07 17:04:49:825
0.1256,9.9786,1.2198,0.069,-0.2724,0.1901,0.0112,0.0229,-0.0011,28,2019-08-07 17:04:49:830
0.0873,9.907,1.1868,0.069,-0.2724,0.1901,0.0059,0.0101,-0.0064,33,2019-08-07 17:04:49:835
0.0873,9.907,1.1868,0.0958,-0.1621,0.2198,0.0059,0.0101,-0.0064,37,2019-08-07 17:04:49:839
0.0873,9.907,1.1868,0.0958,-0.1621,0.2198,0.0059,0.0101,-0.0064,43,2019-08-07 17:04:49:845
0.2595,9.9213,1.1962,0.0958,-0.1621,0.2198,0.0112,0.009,-0.0075,48,2019-08-07 17:04:49:850
0.2595,9.9213,1.1962,0.0958,-0.1621,0.2198,0.0112,0.009,-0.0075,52,2019-08-07 17:04:49:854
0.2595,9.9213,1.1962,-0.269,-0.1758,0.3335,0.0123,5.0E-4,-0.0224,58,2019-08-07 17:04:49:860
0.4748,9.8831,1.0878,-0.269,-0.1758,0.3335,0.0123,5.0E-4,-0.0224,63,2019-08-07 17:04:49:865
0.4748,9.8831,1.0878,-0.269,-0.1758,0.3335,0.0102,0.0367,-0.0266,68,2019-08-07 17:04:49:870
0.4748,9.8831,1.0878,-0.269,-0.1758,0.3335,0.0102,0.0367,-0.0266,72,2019-08-07 17:04:49:874
0.5418,9.8258,0.9229,-0.269,-0.1758,0.3335,0.0102,0.0367,-0.0266,78,2019-08-07 17:04:49:880
0.5418,9.8258,0.9229,-0.1964,-0.2227,0.4086,-0.0037,0.0729,-0.0394,82,2019-08-07 17:04:49:884
0.2059,9.8832,1.0829,-0.1964,-0.2227,0.4086,-0.0026,0.1006,-0.0405,88,2019-08-07 17:04:49:890
0.2059,9.8832,1.0829,-0.1964,-0.2227,0.4086,-0.0026,0.1006,-0.0405,92,2019-08-07 17:04:49:894
0.2059,9.8832,1.0829,0.2195,-0.1985,0.1199,-0.0026,0.1006,-0.0405,98,2019-08-07 17:04:49:900
-0.0237,9.9119,1.3045,0.2195,-0.1985,0.1199,-0.0015,0.0953,-0.033,102,2019-08-07 17:04:49:904
-0.0237,9.9119,1.3045,0.2195,-0.1985,0.1199,-0.0015,0.0953,-0.033,108,2019-08-07 17:04:49:910
-0.0237,9.9119,1.3045,0.2195,-0.1985,0.1199,6.0E-4,0.0495,-0.0298,113,2019-08-07 17:04:49:915
-0.1433,9.888,1.1206,0.2195,-0.1985,0.1199,6.0E-4,0.0495,-0.0298,118,2019-08-07 17:04:49:920
-0.1433,9.888,1.1206,0.2772,-0.3175,0.2456,6.0E-4,0.0079,-0.0203,123,2019-08-07 17:04:49:925
-0.1433,9.888,1.1206,0.2772,-0.3175,0.2456,6.0E-4,0.0079,-0.0203,127,2019-08-07 17:04:49:929
-0.0237,9.9023,1.0829,0.2772,-0.3175,0.2456,0.0027,-0.0134,-0.0181,133,2019-08-07 17:04:49:935
-0.0237,9.9023,1.0829,0.2772,-0.3175,0.2456,0.0027,-0.0134,-0.0181,137,2019-08-07 17:04:49:939
0.115,9.6684,1.13,0.0432,-0.0592,0.3984,-0.0101,-0.0347,-0.0181,143,2019-08-07 17:04:49:945
0.115,9.6684,1.13,0.0432,-0.0592,0.3984,-0.0101,-0.0347,-0.0181,147,2019-08-07 17:04:49:949
0.115,9.6684,1.13,0.0432,-0.0592,0.3984,-0.0122,-0.0411,-0.0117,153,2019-08-07 17:04:49:955
0.3399,9.9739,1.4082,0.0432,-0.0592,0.3984,-0.0122,-0.0411,-0.0117,157,2019-08-07 17:04:49:959
0.3399,9.9739,1.4082,-0.2446,-0.2121,0.1208,-5.0E-4,-0.0602,-0.0128,163,2019-08-07 17:04:49:965
0.3733,9.8307,1.1772,-0.2446,-0.2121,0.1208,-5.0E-4,-0.0602,-0.0128,168,2019-08-07 17:04:49:970
0.3733,9.8307,1.1772,-0.2446,-0.2121,0.1208,0.0102,-0.04,-0.0256,173,2019-08-07 17:04:49:975
0.4786,9.8403,1.0688,-0.2446,-0.2121,0.1208,0.0102,-0.04,-0.0256,178,2019-08-07 17:04:49:980
0.4786,9.8403,1.0688,-0.3032,-0.1256,0.3482,0.007,0.0165,-0.0341,183,2019-08-07 17:04:49:985
0.4786,9.8403,1.0688,-0.3032,-0.1256,0.3482,0.007,0.0165,-0.0341,188,2019-08-07 17:04:49:990
0.1915,9.8689,1.2102,-0.3032,-0.1256,0.3482,-5.0E-4,0.0623,-0.0405,192,2019-08-07 17:04:49:994
0.1915,9.8689,1.2102,-0.3032,-0.1256,0.3482,-5.0E-4,0.0623,-0.0405,198,2019-08-07 17:04:50:000
0.1915,9.8689,1.2102,0.0944,-0.192,0.1008,0.0134,0.0282,-0.0469,203,2019-08-07 17:04:50:005
0.0384,9.8737,1.3327,0.0944,-0.192,0.1008,0.0134,0.0282,-0.0469,208,2019-08-07 17:04:50:010
0.0384,9.8737,1.3327,0.0461,-0.2107,0.0895,0.024,-0.024,-0.0458,213,2019-08-07 17:04:50:015
0.1532,9.8641,1.0876,0.0461,-0.2107,0.0895,0.024,-0.024,-0.0458,218,2019-08-07 17:04:50:020
0.1532,9.8641,1.0876,0.0461,-0.2107,0.0895,0.024,-0.024,-0.0458,223,2019-08-07 17:04:50:025
0.1532,9.8641,1.0876,0.0461,-0.2107,0.0895,0.0198,-0.0219,-0.049,227,2019-08-07 17:04:50:029
0.2394,9.9214,0.9462,-0.0535,-0.2048,0.4545,0.0198,-0.0219,-0.049,233,2019-08-07 17:04:50:035
0.2394,9.9214,0.9462,-0.0535,-0.2048,0.4545,0.0048,0.0282,-0.0554,237,2019-08-07 17:04:50:039
-0.0333,9.8928,1.1206,-0.0535,-0.2048,0.4545,0.0048,0.0282,-0.0554,243,2019-08-07 17:04:50:045
-0.0333,9.8928,1.1206,-0.0535,-0.2048,0.4545,-0.0037,0.0484,-0.0543,248,2019-08-07 17:04:50:050
-0.0333,9.8928,1.1206,0.1592,-0.1469,0.0933,-0.0037,0.0484,-0.0543,253,2019-08-07 17:04:50:055
-0.0094,9.845,1.4081,0.1592,-0.1469,0.0933,0.0091,-0.0027,-0.048,257,2019-08-07 17:04:50:059
-0.0094,9.845,1.4081,0.12,-0.1086,-0.0908,0.0091,-0.0027,-0.048,263,2019-08-07 17:04:50:065
-0.0094,9.845,1.4081,0.12,-0.1086,-0.0908,0.0091,-0.0027,-0.048,268,2019-08-07 17:04:50:070
0.1484,9.8546,1.3469,0.12,-0.1086,-0.0908,0.0272,-0.0475,-0.0448,273,2019-08-07 17:04:50:075
0.1484,9.8546,1.3469,0.12,-0.1086,-0.0908,0.0272,-0.0475,-0.0448,277,2019-08-07 17:04:50:079
0.3255,9.8259,1.2102,-0.2942,-0.0694,0.1385,0.0347,-0.023,-0.048,283,2019-08-07 17:04:50:085
0.3255,9.8259,1.2102,-0.2942,-0.0694,0.1385,0.0347,-0.023,-0.048,287,2019-08-07 17:04:50:089
0.3255,9.8259,1.2102,-0.2942,-0.0694,0.1385,0.0389,0.0452,-0.0575,293,2019-08-07 17:04:50:095
0.3398,9.8498,0.9509,-0.2942,-0.0694,0.1385,0.0389,0.0452,-0.0575,297,2019-08-07 17:04:50:099
0.3398,9.8498,0.9509,-0.0937,-0.1634,0.3692,0.024,0.1049,-0.0629,303,2019-08-07 17:04:50:105
0.3398,9.8498,0.9509,-0.0937,-0.1634,0.3692,0.024,0.1049,-0.0629,307,2019-08-07 17:04:50:109
0.0097,10.0742,1.1065,0.1998,-0.3633,0.2242,0.0283,0.107,-0.0565,313,2019-08-07 17:04:50:115
0.0097,10.0742,1.1065,0.1998,-0.3633,0.2242,0.0283,0.107,-0.0565,317,2019-08-07 17:04:50:119
-0.1578,9.8689,1.1819,0.1998,-0.3633,0.2242,0.0283,0.107,-0.0565,323,2019-08-07 17:04:50:125
-0.1578,9.8689,1.1819,0.1998,-0.3633,0.2242,0.0251,0.0218,-0.0501,327,2019-08-07 17:04:50:129
-0.1578,9.8689,1.1819,0.1914,-0.2906,0.382,0.0251,0.0218,-0.0501,332,2019-08-07 17:04:50:134
-0.1434,10.0312,0.8472,0.1914,-0.2906,0.382,0.0187,-0.0368,-0.0469,338,2019-08-07 17:04:50:140
-0.1434,10.0312,0.8472,0.1914,-0.2906,0.382,0.0187,-0.0368,-0.0469,343,2019-08-07 17:04:50:145
-0.1721,9.9644,0.7953,0.1914,-0.2906,0.382,-0.0026,-0.0155,-0.0384,348,2019-08-07 17:04:50:150
-0.1721,9.9644,0.7953,0.2635,-0.2755,0.3246,-0.0026,-0.0155,-0.0384,352,2019-08-07 17:04:50:154
-0.1721,9.9644,0.7953,0.2635,-0.2755,0.3246,-0.0175,-0.0038,-0.032,358,2019-08-07 17:04:50:160
-0.1195,9.9501,1.262,0.2635,-0.2755,0.3246,-0.0175,-0.0038,-0.032,363,2019-08-07 17:04:50:165
-0.1195,9.9501,1.262,0.2635,-0.2755,0.3246,-0.0101,-0.0581,-0.0277,368,2019-08-07 17:04:50:170
-0.1195,9.9501,1.262,0.0753,-0.1181,0.1327,-0.0101,-0.0581,-0.0277,372,2019-08-07 17:04:50:174
0.0575,9.7878,1.2007,0.0753,-0.1181,0.1327,-0.0101,-0.0581,-0.0277,378,2019-08-07 17:04:50:180
0.0575,9.7878,1.2007,0.0753,-0.1181,0.1327,-0.0069,-0.0698,-0.0298,383,2019-08-07 17:04:50:185
0.2967,9.8641,1.1583,0.0753,-0.1181,0.1327,-0.0069,-0.0698,-0.0298,387,2019-08-07 17:04:50:189
0.2967,9.8641,1.1583,-0.2438,-0.18,0.2967,-0.0037,-0.0357,-0.0352,393,2019-08-07 17:04:50:195
0.2967,9.8641,1.1583,-0.2438,-0.18,0.2967,-0.0037,-0.0357,-0.0352,398,2019-08-07 17:04:50:200
0.3254,9.9167,0.9698,-0.2438,-0.18,0.2967,-0.0058,0.0186,-0.0448,403,2019-08-07 17:04:50:205
0.3254,9.9167,0.9698,-0.2438,-0.18,0.2967,-0.0058,0.0186,-0.0448,407,2019-08-07 17:04:50:209
0.0623,9.931,1.1394,0.006,-0.2036,0.1445,-0.0058,0.0569,-0.0522,413,2019-08-07 17:04:50:215
0.0623,9.931,1.1394,0.006,-0.2036,0.1445,-0.0058,0.0569,-0.0522,417,2019-08-07 17:04:50:219
0.0623,9.931,1.1394,0.006,-0.2036,0.1445,0.0027,0.0335,-0.0469,423,2019-08-07 17:04:50:225
-0.11,9.8832,1.2149,0.006,-0.2036,0.1445,0.0027,0.0335,-0.0469,427,2019-08-07 17:04:50:229
-0.11,9.8832,1.2149,0.1573,-0.1891,0.0774,0.0123,-6.0E-4,-0.0416,433,2019-08-07 17:04:50:235
-0.11,9.8832,1.2149,0.1573,-0.1891,0.0774,0.0123,-6.0E-4,-0.0416,437,2019-08-07 17:04:50:239
-0.0573,9.9023,1.2667,0.1573,-0.1891,0.0774,0.0123,-6.0E-4,-0.0416,443,2019-08-07 17:04:50:245
-0.0573,9.9023,1.2667,0.0192,-0.1124,0.132,0.0251,-0.0272,-0.0416,448,2019-08-07 17:04:50:250
0.1053,9.7925,1.1677,0.0192,-0.1124,0.132,0.0251,-0.0272,-0.0416,453,2019-08-07 17:04:50:255
0.1053,9.7925,1.1677,0.0192,-0.1124,0.132,0.0315,-0.0304,-0.0469,458,2019-08-07 17:04:50:260
0.2106,9.8498,1.163,-0.227,-0.1066,0.1859,0.0315,-0.0304,-0.0469,463,2019-08-07 17:04:50:265
0.2106,9.8498,1.163,-0.227,-0.1066,0.1859,0.0315,-0.0027,-0.0501,468,2019-08-07 17:04:50:270
0.2106,9.8498,1.163,-0.227,-0.1066,0.1859,0.0315,-0.0027,-0.0501,473,2019-08-07 17:04:50:275
0.1771,9.8164,1.1394,-0.227,-0.1066,0.1859,0.0357,0.0388,-0.0586,478,2019-08-07 17:04:50:280
0.1771,9.8164,1.1394,-0.227,-0.1066,0.1859,0.0357,0.0388,-0.0586,483,2019-08-07 17:04:50:285
0.1771,9.8164,1.1394,-0.0653,-0.1627,0.1399,0.0357,0.0388,-0.0586,487,2019-08-07 17:04:50:289
-0.0047,9.8546,1.1724,-0.0653,-0.1627,0.1399,0.0389,0.0591,-0.0618,493,2019-08-07 17:04:50:295
-0.0047,9.8546,1.1724,0.0138,-0.1144,0.1732,0.0389,0.0591,-0.0618,498,2019-08-07 17:04:50:300
-0.0047,9.8546,1.1724,0.0138,-0.1144,0.1732,0.0464,0.0665,-0.0703,503,2019-08-07 17:04:50:305
-0.0908,9.9167,1.1677,0.0138,-0.1144,0.1732,0.0464,0.0665,-0.0703,508,2019-08-07 17:04:50:310
-0.0908,9.9167,1.1677,0.0138,-0.1144,0.1732,0.057,0.042,-0.0703,513,2019-08-07 17:04:50:315
-0.0143,9.8546,1.2479,0.0269,-0.1511,0.0448,0.057,0.042,-0.0703,518,2019-08-07 17:04:50:320
-0.0143,9.8546,1.2479,0.0269,-0.1511,0.0448,0.057,0.042,-0.0703,523,2019-08-07 17:04:50:325
-0.0143,9.8546,1.2479,0.0269,-0.1511,0.0448,0.0752,0.0175,-0.0703,528,2019-08-07 17:04:50:330
-0.0717,9.783,1.196,0.0269,-0.1511,0.0448,0.0752,0.0175,-0.0703,532,2019-08-07 17:04:50:334
-0.0717,9.783,1.196,-0.0069,-0.006,0.0304,0.0805,0.0218,-0.0682,538,2019-08-07 17:04:50:340
0.0096,9.7162,1.4506,-0.0069,-0.006,0.0304,0.0805,0.0218,-0.0682,542,2019-08-07 17:04:50:344
0.0096,9.7162,1.4506,-0.0069,-0.006,0.0304,0.0997,0.0197,-0.0703,548,2019-08-07 17:04:50:350
0.0096,9.7162,1.4506,-0.0069,-0.006,0.0304,0.0997,0.0197,-0.0703,553,2019-08-07 17:04:50:355
0.0575,9.8069,1.4176,-0.0877,-0.0801,-0.143,0.1242,-0.0219,-0.0693,557,2019-08-07 17:04:50:359
0.0575,9.8069,1.4176,-0.0877,-0.0801,-0.143,0.1242,-0.0219,-0.0693,563,2019-08-07 17:04:50:365
0.0479,9.8785,0.8896,-0.0877,-0.0801,-0.143,0.1284,0.0037,-0.0746,567,2019-08-07 17:04:50:369
0.0479,9.8785,0.8896,-0.0877,-0.0801,-0.143,0.1284,0.0037,-0.0746,573,2019-08-07 17:04:50:375
0.0479,9.8785,0.8896,-0.0533,-0.1769,0.3815,0.1284,0.0037,-0.0746,577,2019-08-07 17:04:50:379
-0.0095,9.9739,1.0122,-0.0533,-0.1769,0.3815,0.1231,0.0527,-0.0831,583,2019-08-07 17:04:50:385
-0.0095,9.9739,1.0122,-0.0533,-0.1769,0.3815,0.1231,0.0527,-0.0831,587,2019-08-07 17:04:50:389
-0.0095,9.9739,1.0122,-0.0533,-0.1769,0.3815,0.1433,0.0271,-0.082,593,2019-08-07 17:04:50:395
0.0144,9.8116,1.3987,-0.1325,-0.0591,-0.0736,0.1433,0.0271,-0.082,598,2019-08-07 17:04:50:400
0.0144,9.8116,1.3987,-0.1325,-0.0591,-0.0736,0.1604,-0.0134,-0.0927,602,2019-08-07 17:04:50:404
0.0527,9.7878,1.0357,-0.1325,-0.0591,-0.0736,0.1604,-0.0134,-0.0927,608,2019-08-07 17:04:50:410
0.0527,9.7878,1.0357,-0.1325,-0.0591,-0.0736,0.1668,0.009,-0.0991,612,2019-08-07 17:04:50:414
0.0527,9.7878,1.0357,-0.1739,-0.0313,-0.0026,0.1668,0.009,-0.0991,618,2019-08-07 17:04:50:420
0.1675,9.7448,1.2573,-0.1739,-0.0313,-0.0026,0.1796,0.0442,-0.1055,622,2019-08-07 17:04:50:424
0.1675,9.7448,1.2573,-0.1739,-0.0313,-0.0026,0.1796,0.0442,-0.1055,629,2019-08-07 17:04:50:431
0.1675,9.8021,1.1583,-0.1739,-0.0313,-0.0026,0.1923,0.0442,-0.1044,633,2019-08-07 17:04:50:435
0.177,9.8021,1.1583,-0.2556,-0.0271,0.0418,0.1923,0.0442,-0.1044,638,2019-08-07 17:04:50:440
0.177,9.8021,1.1583,-0.2556,-0.0271,0.0418,0.1923,0.0442,-0.1044,642,2019-08-07 17:04:50:444
0.1627,9.8546,0.7623,-0.2556,-0.0271,0.0418,0.1977,0.0772,-0.1055,648,2019-08-07 17:04:50:450
0.1627,9.8546,0.7623,-0.2556,-0.0271,0.0418,0.1977,0.0772,-0.1055,652,2019-08-07 17:04:50:454
0.1627,9.8546,0.7623,-0.1285,-0.2374,0.3354,0.1827,0.1304,-0.1119,657,2019-08-07 17:04:50:459
-0.0718,9.9883,0.7623,-0.1285,-0.2374,0.3354,0.1827,0.1304,-0.1119,663,2019-08-07 17:04:50:465
-0.0718,9.9883,0.7623,-0.1285,-0.2374,0.3354,0.1785,0.1475,-0.1097,668,2019-08-07 17:04:50:470
-0.3875,10.0312,0.8377,-0.1285,-0.2374,0.3354,0.1785,0.1475,-0.1097,673,2019-08-07 17:04:50:475
-0.3875,10.0312,0.8377,-0.1285,-0.2374,0.3354,0.1785,0.1475,-0.1097,677,2019-08-07 17:04:50:479
-0.3875,10.0312,0.8377,0.3435,-0.2621,0.1369,0.1785,0.1241,-0.1044,683,2019-08-07 17:04:50:485
-0.4928,10.0312,0.8849,0.3435,-0.2621,0.1369,0.1785,0.1241,-0.1044,687,2019-08-07 17:04:50:489
-0.4928,10.0312,0.8849,0.3435,-0.2621,0.1369,0.1849,0.0548,-0.1119,693,2019-08-07 17:04:50:495
-0.3636,9.9262,0.965,0.1457,-0.2441,0.0992,0.1849,0.0548,-0.1119,697,2019-08-07 17:04:50:499
-0.3636,9.9262,0.965,0.1457,-0.2441,0.0992,0.1934,-0.0261,-0.1183,703,2019-08-07 17:04:50:505
-0.3636,9.9262,0.965,0.1457,-0.2441,0.0992,0.1934,-0.0261,-0.1183,707,2019-08-07 17:04:50:509
-0.0909,10.0169,0.5691,0.1457,-0.2441,0.0992,0.1838,-0.0347,-0.1193,713,2019-08-07 17:04:50:515
-0.0909,10.0169,0.5691,-0.178,-0.3072,0.521,0.1838,-0.0347,-0.1193,717,2019-08-07 17:04:50:519
-0.0909,10.0169,0.5691,-0.178,-0.3072,0.521,0.1657,0.0292,-0.1332,723,2019-08-07 17:04:50:525
-0.0239,10.036,0.5549,-0.1809,-0.2483,0.4226,0.1657,0.0292,-0.1332,728,2019-08-07 17:04:50:530
-0.0239,10.036,0.5549,-0.1809,-0.2483,0.4226,0.1401,0.0506,-0.1374,732,2019-08-07 17:04:50:534
-0.1005,10.0599,0.4606,-0.1809,-0.2483,0.4226,0.1401,0.0506,-0.1374,738,2019-08-07 17:04:50:540
-0.1005,10.0599,0.4606,-0.1809,-0.2483,0.4226,0.1135,0.0612,-0.1492,742,2019-08-07 17:04:50:544
-0.1005,10.0599,0.4606,-0.0466,-0.394,0.6424,0.1135,0.0612,-0.1492,748,2019-08-07 17:04:50:550
-0.2057,10.1076,0.3522,-0.0466,-0.394,0.6424,0.0879,0.0655,-0.1609,753,2019-08-07 17:04:50:555
-0.2057,10.1076,0.3522,-0.0466,-0.394,0.6424,0.0879,0.0655,-0.1609,757,2019-08-07 17:04:50:559
-0.2919,10.1601,0.3758,-0.0466,-0.394,0.6424,0.0634,0.0495,-0.1577,763,2019-08-07 17:04:50:565
-0.2919,10.1601,0.3758,0.0407,-0.369,0.6264,0.0634,0.0495,-0.1577,768,2019-08-07 17:04:50:570
-0.2919,10.1601,0.3758,0.0407,-0.369,0.6264,0.04,0.041,-0.1481,773,2019-08-07 17:04:50:575
-0.3828,10.0694,0.3145,0.0407,-0.369,0.6264,0.04,0.041,-0.1481,777,2019-08-07 17:04:50:579
-0.3828,10.0694,0.3145,0.0407,-0.369,0.6264,0.0176,0.0431,-0.1481,783,2019-08-07 17:04:50:585
-0.6172,10.0551,0.5031,0.3202,-0.2925,0.413,0.0176,0.0431,-0.1481,787,2019-08-07 17:04:50:589
-0.6172,10.0551,0.5031,0.3202,-0.2925,0.413,0.0176,0.0431,-0.1481,793,2019-08-07 17:04:50:595
-0.6172,10.0551,0.5031,0.3202,-0.2925,0.413,-0.0015,0.0239,-0.1332,798,2019-08-07 17:04:50:600
-0.7129,9.9835,0.6398,0.4009,-0.2212,0.275,-0.0015,0.0239,-0.1332,803,2019-08-07 17:04:50:605
-0.7129,9.9835,0.6398,0.4009,-0.2212,0.275,-0.0058,-0.0304,-0.1225,808,2019-08-07 17:04:50:610
-0.7129,9.993,0.6775,0.4009,-0.2212,0.275,-0.0058,-0.0304,-0.1225,812,2019-08-07 17:04:50:614
-0.7129,9.993,0.6775,0.3265,-0.1935,0.3554,-0.0207,-0.0645,-0.1193,818,2019-08-07 17:04:50:620
-0.7129,9.993,0.6775,0.3265,-0.1935,0.3554,-0.0207,-0.0645,-0.1193,823,2019-08-07 17:04:50:625
-0.6363,9.9835,0.5172,0.3265,-0.1935,0.3554,-0.042,-0.0506,-0.1129,828,2019-08-07 17:04:50:630
-0.6363,9.9835,0.5172,0.3265,-0.1935,0.3554,-0.042,-0.0506,-0.1129,833,2019-08-07 17:04:50:635
-0.6316,10.0121,0.5738,0.2509,-0.2378,0.3189,-0.0601,-0.0389,-0.1012,838,2019-08-07 17:04:50:640
-0.6316,10.0121,0.5738,0.2509,-0.2378,0.3189,-0.0601,-0.0389,-0.1012,842,2019-08-07 17:04:50:644
-0.6316,10.0121,0.5738,0.2509,-0.2378,0.3189,-0.0601,-0.0389,-0.1012,848,2019-08-07 17:04:50:650
-0.6459,9.9644,0.5926,0.2509,-0.2378,0.3189,-0.0729,-0.0602,-0.098,853,2019-08-07 17:04:50:655
-0.6459,9.9644,0.5926,0.2509,-0.2378,0.3189,-0.0729,-0.0602,-0.098,857,2019-08-07 17:04:50:659
-0.5981,9.9119,0.6209,0.2928,-0.2015,0.269,-0.0761,-0.0975,-0.081,863,2019-08-07 17:04:50:665
-0.5981,9.9119,0.6209,0.2928,-0.2015,0.269,-0.0761,-0.0975,-0.081,868,2019-08-07 17:04:50:670
-0.5981,9.9119,0.6209,0.2928,-0.2015,0.269,-0.0761,-0.0975,-0.081,872,2019-08-07 17:04:50:674
-0.5981,9.9119,0.6209,0.2928,-0.2015,0.269,-0.0718,-0.1465,-0.0703,878,2019-08-07 17:04:50:680
-0.4928,9.993,0.5879,0.0634,-0.2129,0.3576,-0.0718,-0.1465,-0.0703,882,2019-08-07 17:04:50:684
-0.4928,9.993,0.5879,0.0634,-0.2129,0.3576,-0.0772,-0.1732,-0.065,888,2019-08-07 17:04:50:690
-0.2919,9.7639,0.4559,0.0634,-0.2129,0.3576,-0.0772,-0.1732,-0.065,892,2019-08-07 17:04:50:694
-0.2919,9.7639,0.4559,0.0634,-0.2129,0.3576,-0.0857,-0.1476,-0.0693,898,2019-08-07 17:04:50:700
-0.2919,9.7639,0.4559,-0.157,0.172,0.3808,-0.0857,-0.1476,-0.0693,903,2019-08-07 17:04:50:705
-0.1579,9.6016,0.7812,-0.157,0.172,0.3808,-0.0889,-0.1412,-0.0682,907,2019-08-07 17:04:50:709
-0.1579,9.6016,0.7812,-0.157,0.172,0.3808,-0.0889,-0.1412,-0.0682,913,2019-08-07 17:04:50:715
-0.0049,9.7162,0.8802,-0.157,0.172,0.3808,-0.075,-0.1561,-0.0671,918,2019-08-07 17:04:50:720
-0.0049,9.7162,0.8802,-0.409,-0.0114,0.0489,-0.075,-0.1561,-0.0671,923,2019-08-07 17:04:50:725
-0.0049,9.7162,0.8802,-0.409,-0.0114,0.0489,-0.0718,-0.1167,-0.0735,927,2019-08-07 17:04:50:729
-0.0049,9.9262,0.9226,-0.409,-0.0114,0.0489,-0.0718,-0.1167,-0.0735,933,2019-08-07 17:04:50:735
-0.0049,9.9262,0.9226,-0.409,-0.0114,0.0489,-0.0718,-0.1167,-0.0735,938,2019-08-07 17:04:50:740
-0.0049,9.9262,0.9226,-0.3844,-0.1803,-0.2002,-0.0665,-0.0379,-0.0756,942,2019-08-07 17:04:50:744
-0.1245,9.9119,1.2667,-0.3844,-0.1803,-0.2002,-0.0665,-0.0379,-0.0756,948,2019-08-07 17:04:50:750
-0.1245,9.9119,1.2667,-0.3844,-0.1803,-0.2002,-0.0559,-0.0112,-0.0799,952,2019-08-07 17:04:50:754
-0.0814,9.8689,1.0404,-0.3844,-0.1803,-0.2002,-0.0559,-0.0112,-0.0799,958,2019-08-07 17:04:50:760
-0.0814,9.8689,1.0404,-0.3015,-0.1344,0.0715,-0.042,0.0186,-0.0959,963,2019-08-07 17:04:50:765
-0.0814,9.8689,1.0404,-0.3015,-0.1344,0.0715,-0.042,0.0186,-0.0959,968,2019-08-07 17:04:50:770
-0.1484,10.0169,0.8613,-0.3015,-0.1344,0.0715,-0.042,0.0186,-0.0959,972,2019-08-07 17:04:50:774
-0.1484,10.0169,0.8613,-0.3015,-0.1344,0.0715,-0.0175,0.0814,-0.1087,977,2019-08-07 17:04:50:779
-0.134,9.8212,1.0074,-0.3495,-0.1691,0.0136,0.0123,0.1017,-0.1129,983,2019-08-07 17:04:50:785
-0.134,9.8212,1.0074,-0.3495,-0.1691,0.0136,0.0123,0.1017,-0.1129,987,2019-08-07 17:04:50:789
-0.134,9.8212,1.0074,-0.3495,-0.1691,0.0136,0.0123,0.1017,-0.1129,993,2019-08-07 17:04:50:795
-0.1484,9.7878,1.2054,-0.3495,-0.1691,0.0136,0.0251,0.1315,-0.1215,997,2019-08-07 17:04:50:799
-0.1484,9.7878,1.2054,-0.1675,-0.2605,-0.2357,0.0251,0.1315,-0.1215,1002,2019-08-07 17:04:50:804
-0.1484,9.7878,1.2054,-0.1675,-0.2605,-0.2357,0.0283,0.1805,-0.1577,1008,2019-08-07 17:04:50:810
-0.4115,10.5229,1.3987,-0.1675,-0.2605,-0.2357,0.0283,0.1805,-0.1577,1013,2019-08-07 17:04:50:815
-0.4115,10.5229,1.3987,-0.1675,-0.2605,-0.2357,0.0688,0.1986,-0.2035,1018,2019-08-07 17:04:50:820
-0.7751,11.4156,1.5259,0.2583,-1.6699,-0.5317,0.0688,0.1986,-0.2035,1022,2019-08-07 17:04:50:824
-0.7751,11.4156,1.5259,0.2583,-1.6699,-0.5317,0.0688,0.1549,-0.244,1028,2019-08-07 17:04:50:830
-0.7751,11.4156,1.5259,0.2583,-1.6699,-0.5317,0.1423,0.1549,-0.244,1032,2019-08-07 17:04:50:834
-0.5886,12.2081,1.8135,0.2583,-1.6699,-0.5317,0.1423,0.1549,-0.244,1038,2019-08-07 17:04:50:840
-0.5886,12.2081,1.8135,-0.2167,-1.9375,-1.671,0.1785,-0.0762,-0.3121,1043,2019-08-07 17:04:50:845
-0.3398,11.5016,2.7751,-0.2167,-1.9375,-1.671,0.1785,-0.0762,-0.3121,1048,2019-08-07 17:04:50:850
-0.3398,11.5016,2.7751,-0.2167,-1.9375,-1.671,0.2104,-0.2083,-0.244,1052,2019-08-07 17:04:50:854
-0.3398,11.5016,2.7751,-0.2167,-1.9375,-1.671,0.2104,-0.2083,-0.244,1058,2019-08-07 17:04:50:860
-0.225,13.0053,3.7367,-0.3924,-3.2502,-3.0102,0.1838,-0.2861,-0.1247,1063,2019-08-07 17:04:50:865
-0.225,13.0053,3.7367,-0.3924,-3.2502,-3.0102,0.1838,-0.2861,-0.1247,1068,2019-08-07 17:04:50:870
-0.225,13.0053,3.7367,-0.3924,-3.2502,-3.0102,0.5162,-0.3969,-0.2184,1072,2019-08-07 17:04:50:874
0.6984,9.9596,1.4788,-0.3924,-3.2502,-3.0102,0.5162,-0.3969,-0.2184,1078,2019-08-07 17:04:50:880
0.6984,9.9596,1.4788,-1.6028,-1.7109,0.6809,1.1575,-0.6099,-0.2748,1082,2019-08-07 17:04:50:884
1.4266,13.1532,0.6164,-1.6028,-1.7109,0.6809,1.1575,-0.6099,-0.2748,1088,2019-08-07 17:04:50:890
1.4266,13.1532,0.6164,-1.6028,-1.7109,0.6809,1.1575,-0.6099,-0.2748,1092,2019-08-07 17:04:50:894
1.4266,13.1532,0.6164,-1.6028,-1.7109,0.6809,1.5346,-1.0467,-0.2493,1098,2019-08-07 17:04:50:900
2.1108,14.5042,-2.4759,-2.2842,-5.7825,4.8466,1.5346,-1.0467,-0.2493,1103,2019-08-07 17:04:50:905
2.1108,14.5042,-2.4759,-2.2842,-5.7825,4.8466,1.9777,-0.5055,-0.4709,1108,2019-08-07 17:04:50:910
0.1445,17.02,-6.2893,-2.2842,-5.7825,4.8466,1.9777,-0.5055,-0.4709,1113,2019-08-07 17:04:50:915
0.1445,17.02,-6.2893,-2.2842,-5.7825,4.8466,2.2483,-0.1007,-0.5966,1117,2019-08-07 17:04:50:919
0.1445,17.02,-6.2893,2.4603,-10.3237,6.5969,2.2483,-0.1007,-0.5966,1123,2019-08-07 17:04:50:925
-3.7308,20.8629,-5.2664,2.4603,-10.3237,6.5969,2.2483,-0.1007,-0.5966,1127,2019-08-07 17:04:50:929
-3.7308,20.8629,-5.2664,2.4603,-10.3237,6.5969,2.4965,0.0101,-0.5156,1133,2019-08-07 17:04:50:935
-3.1184,21.1923,1.7901,2.4603,-10.3237,6.5969,2.4965,0.0101,-0.5156,1137,2019-08-07 17:04:50:939
-3.1184,21.1923,1.7901,2.4603,-10.3237,6.5969,3.1793,-0.1242,-0.3175,1143,2019-08-07 17:04:50:945
-3.1184,21.1923,1.7901,1.5774,-11.1318,-2.1991,3.1793,-0.1242,-0.3175,1148,2019-08-07 17:04:50:950
-2.2955,21.7031,0.145,1.5774,-11.1318,-2.1991,3.712,-0.8922,-0.4251,1153,2019-08-07 17:04:50:955
-2.2955,21.7031,0.145,1.5774,-11.1318,-2.1991,3.712,-0.8922,-0.4251,1157,2019-08-07 17:04:50:959
-2.0228,24.1091,-1.4812,1.5774,-11.1318,-2.1991,4.0997,-1.4376,-0.44,1163,2019-08-07 17:04:50:965
-2.0228,24.1091,-1.4812,0.685,-14.6826,0.6852,4.0997,-1.4376,-0.44,1167,2019-08-07 17:04:50:969
-2.0228,24.1091,-1.4812,0.685,-14.6826,0.6852,4.3181,-0.97,-0.4219,1173,2019-08-07 17:04:50:975
-2.0228,24.1091,-1.4812,0.685,-14.6826,0.6852,4.3181,-0.97,-0.4219,1177,2019-08-07 17:04:50:979
0.3072,24.5483,-4.4698,0.685,-14.6826,0.6852,4.3181,-0.97,-0.4219,1182,2019-08-07 17:04:50:984
0.3072,24.5483,-4.4698,-1.4145,-14.929,2.0769,4.2361,-0.2903,-0.5923,1188,2019-08-07 17:04:50:990
-0.6114,24.5817,-1.7924,-1.4145,-14.929,2.0769,4.2361,-0.2903,-0.5923,1193,2019-08-07 17:04:50:995
-0.6114,24.5817,-1.7924,-0.1396,-15.0739,-1.4627,4.1764,0.2647,-0.6935,1197,2019-08-07 17:04:50:999
-0.6114,24.5817,-1.7924,-0.1396,-15.0739,-1.4627,4.1764,0.2647,-0.6935,1203,2019-08-07 17:04:51:005
-1.6926,23.4265,1.5309,-0.1396,-15.0739,-1.4627,4.1381,0.1688,-0.701,1208,2019-08-07 17:04:51:010
-1.6926,23.4265,1.5309,-0.1396,-15.0739,-1.4627,4.1381,0.1688,-0.701,1212,2019-08-07 17:04:51:014
-3.0848,22.2664,1.2528,1.6062,-13.117,-4.593,4.1381,0.1688,-0.701,1218,2019-08-07 17:04:51:020
-3.0848,22.2664,1.2528,1.6062,-13.117,-4.593,3.9879,-0.1646,-0.6125,1222,2019-08-07 17:04:51:024
-3.0848,22.2664,1.2528,1.6062,-13.117,-4.593,3.9879,-0.1646,-0.6125,1228,2019-08-07 17:04:51:030
-2.9222,21.6124,0.871,1.6062,-13.117,-4.593,3.7951,-0.2328,-0.4996,1232,2019-08-07 17:04:51:034
-2.9222,21.6124,0.871,0.8406,-12.3854,-4.9401,3.7951,-0.2328,-0.4996,1238,2019-08-07 17:04:51:040
-1.6113,21.1637,1.4743,0.8406,-12.3854,-4.9401,3.3881,-0.0954,-0.31,1243,2019-08-07 17:04:51:045
-1.6113,21.1637,1.4743,0.8406,-12.3854,-4.9401,3.3881,-0.0954,-0.31,1247,2019-08-07 17:04:51:049
-1.6113,21.1637,1.4743,0.8406,-12.3854,-4.9401,3.108,-0.0123,-0.2152,1252,2019-08-07 17:04:51:054
-1.573,20.0657,1.842,0.1804,-11.3789,-6.1822,3.108,-0.0123,-0.2152,1258,2019-08-07 17:04:51:060
-1.573,20.0657,1.842,0.1804,-11.3789,-6.1822,2.6211,0.1837,-0.0533,1263,2019-08-07 17:04:51:065
-1.5969,18.5428,3.242,0.1804,-11.3789,-6.1822,2.6211,0.1837,-0.0533,1267,2019-08-07 17:04:51:069
-1.5969,18.5428,3.242,0.1804,-11.3789,-6.1822,2.0576,0.2881,0.1118,1273,2019-08-07 17:04:51:075
-1.5969,18.5428,3.242,0.04,-9.6868,-8.4165,2.0576,0.2881,0.1118,1278,2019-08-07 17:04:51:080
-1.3768,18.0368,3.7464,0.04,-9.6868,-8.4165,1.6752,0.2732,0.2013,1283,2019-08-07 17:04:51:085
-1.3768,18.0368,3.7464,0.04,-9.6868,-8.4165,1.6752,0.2732,0.2013,1287,2019-08-07 17:04:51:089
-1.3768,18.0368,3.7464,0.04,-9.6868,-8.4165,1.6752,0.2732,0.2013,1293,2019-08-07 17:04:51:095
-1.0132,17.1059,4.7881,-0.4097,-8.5105,-9.8888,0.921,0.3968,0.3739,1298,2019-08-07 17:04:51:100
-1.0132,17.1059,4.7881,-0.4097,-8.5105,-9.8888,0.921,0.3968,0.3739,1303,2019-08-07 17:04:51:105
-0.8744,15.7836,6.009,-0.4097,-8.5105,-9.8888,0.008,0.6269,0.5305,1308,2019-08-07 17:04:51:110
-0.8744,15.7836,6.009,-0.4097,-8.5105,-9.8888,0.008,0.6269,0.5305,1313,2019-08-07 17:04:51:115
-0.8744,15.7836,6.009,-0.1109,-6.9337,-11.7193,-0.7962,0.7941,0.6647,1318,2019-08-07 17:04:51:120
-1.1711,15.058,7.1922,-0.1109,-6.9337,-11.7193,-0.7962,0.7941,0.6647,1322,2019-08-07 17:04:51:124
-1.1711,15.058,7.1922,-0.1109,-6.9337,-11.7193,-0.7962,0.7941,0.6647,1328,2019-08-07 17:04:51:130
-1.1711,15.058,7.1922,-0.1109,-6.9337,-11.7193,-1.6367,0.841,0.7957,1333,2019-08-07 17:04:51:135
-1.6686,14.5472,7.6824,0.7951,-5.8829,-12.3719,-1.6367,0.841,0.7957,1338,2019-08-07 17:04:51:140
-1.6686,14.5472,7.6824,0.7951,-5.8829,-12.3719,-2.9129,0.8122,0.9459,1343,2019-08-07 17:04:51:145
-2.0274,14.6761,7.8851,0.7951,-5.8829,-12.3719,-2.9129,0.8122,0.9459,1348,2019-08-07 17:04:51:150
-2.0274,14.6761,7.8851,0.7951,-5.8829,-12.3719,-3.7491,0.7238,1.0003,1353,2019-08-07 17:04:51:155
-2.0274,14.6761,7.8851,1.7268,-6.0873,-12.2007,-3.7491,0.7238,1.0003,1357,2019-08-07 17:04:51:159
-2.4819,15.0102,8.4131,1.7268,-6.0873,-12.2007,-4.547,0.4958,1.0322,1363,2019-08-07 17:04:51:165
-2.4819,15.0102,8.4131,1.7268,-6.0873,-12.2007,-4.547,0.4958,1.0322,1368,2019-08-07 17:04:51:170
-2.4675,14.2034,10.0723,1.7268,-6.0873,-12.2007,-4.547,0.4958,1.0322,1372,2019-08-07 17:04:51:174
-2.4675,14.2034,10.0723,1.7268,-6.0873,-12.2007,-5.543,0.14,1.0301,1378,2019-08-07 17:04:51:180
-2.4675,14.2034,10.0723,1.8427,-4.1692,-14.0677,-5.543,0.14,1.0301,1383,2019-08-07 17:04:51:185
-2.3479,12.9097,12.3302,1.8427,-4.1692,-14.0677,-6.146,-0.1039,0.9949,1388,2019-08-07 17:04:51:190
-2.3479,12.9097,12.3302,1.8427,-4.1692,-14.0677,-6.146,-0.1039,0.9949,1393,2019-08-07 17:04:51:195
-2.3862,12.4276,15.7478,2.0558,-2.7958,-18.0779,-7.1591,-0.6866,0.9758,1397,2019-08-07 17:04:51:199
-2.3862,12.4276,15.7478,2.0558,-2.7958,-18.0779,-7.1591,-0.6866,0.9758,1403,2019-08-07 17:04:51:205
-2.3862,12.4276,15.7478,2.0558,-2.7958,-18.0779,-8.1753,-1.3737,1.0397,1408,2019-08-07 17:04:51:210
-1.4915,13.0482,17.9633,2.0558,-2.7958,-18.0779,-8.1753,-1.3737,1.0397,1413,2019-08-07 17:04:51:215
-1.4915,13.0482,17.9633,0.5559,-3.287,-18.4009,-9.0265,-1.6208,1.1547,1418,2019-08-07 17:04:51:220
-1.4915,13.0482,17.9633,0.5559,-3.287,-18.4009,-9.0265,-1.6208,1.1547,1422,2019-08-07 17:04:51:224
0.049,12.9288,17.968,0.5559,-3.287,-18.4009,-9.0265,-1.6208,1.1547,1428,2019-08-07 17:04:51:230
0.049,12.9288,17.968,-0.2121,-2.9266,-16.8105,-9.9745,-1.4909,1.2847,1432,2019-08-07 17:04:51:234
0.1112,12.0982,17.8171,-0.2121,-2.9266,-16.8105,-9.9745,-1.4909,1.2847,1438,2019-08-07 17:04:51:240
0.1112,12.0982,17.8171,-0.2121,-2.9266,-16.8105,-11.1197,-1.0648,1.3582,1442,2019-08-07 17:04:51:244
0.1112,12.0982,17.8171,1.1838,-3.5229,-14.6706,-11.1197,-1.0648,1.3582,1448,2019-08-07 17:04:51:250
-1.2092,13.072,16.8649,1.1838,-3.5229,-14.6706,-11.9112,-1.1063,1.4764,1453,2019-08-07 17:04:51:255
-1.2092,13.072,16.8649,1.1838,-3.5229,-14.6706,-11.9112,-1.1063,1.4764,1458,2019-08-07 17:04:51:260
-2.5392,14.8097,11.6609,1.1838,-3.5229,-14.6706,-12.5962,-1.4366,1.6543,1463,2019-08-07 17:04:51:265
-2.5392,14.8097,11.6609,3.831,-8.3049,-1.2571,-12.5962,-1.4366,1.6543,1467,2019-08-07 17:04:51:269
-2.5392,14.8097,11.6609,3.831,-8.3049,-1.2571,-13.4643,-1.6592,2.0378,1473,2019-08-07 17:04:51:275
-3.1851,18.4235,1.2245,3.831,-8.3049,-1.2571,-13.4643,-1.6592,2.0378,1478,2019-08-07 17:04:51:280
-3.1851,18.4235,1.2245,4.1002,-11.7817,6.9371,-14.2803,-1.6315,2.3137,1482,2019-08-07 17:04:51:284
-3.5535,26.6297,-8.3586,4.1002,-11.7817,6.9371,-14.2803,-1.6315,2.3137,1488,2019-08-07 17:04:51:290
-3.5535,26.6297,-8.3586,4.1002,-11.7817,6.9371,-14.2803,-1.6315,2.3137,1492,2019-08-07 17:04:51:294
-3.5535,26.6297,-8.3586,4.1002,-11.7817,6.9371,-14.976,-1.7444,2.5619,1498,2019-08-07 17:04:51:300
-3.4626,44.9612,-14.4206,5.0629,-35.6139,21.8482,-14.976,-1.7444,2.5619,1503,2019-08-07 17:04:51:305
-3.4626,44.9612,-14.4206,5.0629,-35.6139,21.8482,-14.5957,-0.9774,2.7697,1508,2019-08-07 17:04:51:310
-1.2283,61.0442,-14.3122,5.0629,-35.6139,21.8482,-14.5957,-0.9774,2.7697,1513,2019-08-07 17:04:51:315
-1.2283,61.0442,-14.3122,-4.1263,-65.1166,23.377,-12.2553,0.547,2.8325,1518,2019-08-07 17:04:51:320
-1.2283,61.0442,-14.3122,-4.1263,-65.1166,23.377,-12.2553,0.547,2.8325,1522,2019-08-07 17:04:51:324
-1.2283,61.0442,-14.3122,-4.1263,-65.1166,23.377,-12.2553,0.547,2.8325,1528,2019-08-07 17:04:51:330
11.9331,63.2974,-23.556,-4.1263,-65.1166,23.377,-9.1905,1.8018,1.9771,1532,2019-08-07 17:04:51:334
11.9331,63.2974,-23.556,-4.1263,-65.1166,23.377,-9.1905,1.8018,1.9771,1538,2019-08-07 17:04:51:340
9.4597,42.9896,-62.9775,-10.0043,-45.1421,65.8955,-6.62,4.9092,0.2908,1542,2019-08-07 17:04:51:344
9.4597,42.9896,-62.9775,-10.0043,-45.1421,65.8955,-6.62,4.9092,0.2908,1548,2019-08-07 17:04:51:350
9.4597,42.9896,-62.9775,-10.0043,-45.1421,65.8955,-6.7851,8.333,0.6487,1552,2019-08-07 17:04:51:354
-10.2944,16.6572,-86.4617,-10.0043,-45.1421,65.8955,-6.7851,8.333,0.6487,1558,2019-08-07 17:04:51:360
-10.2944,16.6572,-86.4617,15.6346,-1.9529,94.8773,-8.6792,10.9897,1.7364,1563,2019-08-07 17:04:51:365
-17.4851,-11.8378,-75.6624,15.6346,-1.9529,94.8773,-8.6792,10.9897,1.7364,1567,2019-08-07 17:04:51:369
-17.4851,-11.8378,-75.6624,15.6346,-1.9529,94.8773,-8.6792,10.9897,1.7364,1573,2019-08-07 17:04:51:375
-17.4851,-11.8378,-75.6624,15.6346,-1.9529,94.8773,-10.178,8.9625,1.9643,1577,2019-08-07 17:04:51:379
-11.3852,-25.4479,-26.4125,6.6459,22.8956,24.4936,-10.178,8.9625,1.9643,1583,2019-08-07 17:04:51:385
-11.3852,-25.4479,-26.4125,6.6459,22.8956,24.4936,-6.195,3.061,0.5816,1588,2019-08-07 17:04:51:390
-11.3852,-25.4479,-26.4125,6.6459,22.8956,24.4936,-6.195,3.061,0.5816,1592,2019-08-07 17:04:51:394
2.2068,-28.3074,27.3155,6.6459,22.8956,24.4936,7.3573,-4.1956,-1.3028,1598,2019-08-07 17:04:51:400
2.2068,-28.3074,27.3155,-0.5773,22.8264,15.9366,7.3573,-4.1956,-1.3028,1602,2019-08-07 17:04:51:404
2.2068,-28.3074,27.3155,-0.5773,22.8264,15.9366,14.5116,-10.2069,-2.7292,1608,2019-08-07 17:04:51:410
2.2068,-28.3074,27.3155,-0.5773,22.8264,15.9366,14.5116,-10.2069,-2.7292,1612,2019-08-07 17:04:51:414
-14.4902,-11.2076,-36.2974,13.4206,10.1058,45.9864,16.0008,-9.9043,-2.4959,1618,2019-08-07 17:04:51:420
-14.4902,-11.2076,-36.2974,13.4206,10.1058,45.9864,16.0008,-9.9043,-2.4959,1622,2019-08-07 17:04:51:424
-14.4902,-11.2076,-36.2974,13.4206,10.1058,45.9864,16.0008,-9.9043,-2.4959,1628,2019-08-07 17:04:51:430
-21.4321,44.6652,-66.6637,12.7672,-29.8089,73.789,5.247,-14.1356,0.4218,1632,2019-08-07 17:04:51:434
-21.4321,44.6652,-66.6637,12.7672,-29.8089,73.789,5.247,-14.1356,0.4218,1638,2019-08-07 17:04:51:440
21.961,21.8559,-42.2792,12.7672,-29.8089,73.789,3.8973,-3.2731,-0.3792,1642,2019-08-07 17:04:51:444
21.961,21.8559,-42.2792,12.7672,-29.8089,73.789,3.8973,-3.2731,-0.3792,1648,2019-08-07 17:04:51:450
21.3773,31.8713,0.6919,-26.8665,-23.6736,9.8271,8.0508,11.3913,-3.2001,1652,2019-08-07 17:04:51:454
21.3773,31.8713,0.6919,-26.8665,-23.6736,9.8271,8.0508,11.3913,-3.2001,1658,2019-08-07 17:04:51:460
21.3773,31.8713,0.6919,-3.0628,-23.9749,-4.5008,6.2356,6.3377,-2.5566,1662,2019-08-07 17:04:51:464
3.2259,18.3471,6.5135,-3.0628,-23.9749,-4.5008,6.2356,6.3377,-2.5566,1668,2019-08-07 17:04:51:470
3.2259,18.3471,6.5135,-3.0628,-23.9749,-4.5008,8.0455,3.9068,-1.7502,1672,2019-08-07 17:04:51:474
3.2259,18.3471,6.5135,-3.0628,-23.9749,-4.5008,8.0455,3.9068,-1.7502,1678,2019-08-07 17:04:51:480
-8.7012,21.6315,-10.2441,11.0577,-20.2747,19.4981,8.0455,3.9068,-1.7502,1682,2019-08-07 17:04:51:484
-8.7012,21.6315,-10.2441,11.0577,-20.2747,19.4981,7.6971,3.5883,-1.5382,1688,2019-08-07 17:04:51:490
-8.4715,22.5719,-1.8394,11.0577,-20.2747,19.4981,7.6971,3.5883,-1.5382,1693,2019-08-07 17:04:51:495
-8.4715,22.5719,-1.8394,11.0577,-20.2747,19.4981,6.6244,2.9619,-0.3388,1698,2019-08-07 17:04:51:500
-8.4715,22.5719,-1.8394,-2.8078,-12.9739,2.4139,6.6244,2.9619,-0.3388,1702,2019-08-07 17:04:51:504
2.3743,19.0059,3.9161,-2.8078,-12.9739,2.4139,7.5288,2.6189,0.0011,1708,2019-08-07 17:04:51:510
2.3743,19.0059,3.9161,-4.0174,-10.926,6.5665,7.5288,2.6189,0.0011,1713,2019-08-07 17:04:51:515
0.0349,17.674,-0.8118,-4.0174,-10.926,6.5665,7.1528,1.2213,-0.1119,1718,2019-08-07 17:04:51:520
0.0349,17.674,-0.8118,-4.0174,-10.926,6.5665,7.1528,1.2213,-0.1119,1722,2019-08-07 17:04:51:524
0.0349,17.674,-0.8118,-4.0174,-10.926,6.5665,7.1528,1.2213,-0.1119,1727,2019-08-07 17:04:51:529
-3.826,19.2828,-4.4414,3.093,-11.2111,8.9987,6.8129,2.1065,0.0351,1733,2019-08-07 17:04:51:535
-3.826,19.2828,-4.4414,3.093,-11.2111,8.9987,6.8129,2.1065,0.0351,1737,2019-08-07 17:04:51:539
-5.9311,17.3207,7.3478,3.093,-11.2111,8.9987,6.2547,2.2951,0.3728,1743,2019-08-07 17:04:51:545
-5.9311,17.3207,7.3478,3.093,-11.2111,8.9987,6.2547,2.2951,0.3728,1747,2019-08-07 17:04:51:549
-5.9311,17.3207,7.3478,5.0259,-7.1448,-8.2458,6.4987,0.8005,0.6051,1753,2019-08-07 17:04:51:555
-6.7731,15.015,12.3774,5.0259,-7.1448,-8.2458,6.4987,0.8005,0.6051,1758,2019-08-07 17:04:51:560
-6.7731,15.015,12.3774,5.0259,-7.1448,-8.2458,6.8619,-1.7114,0.6434,1763,2019-08-07 17:04:51:565
-6.7635,14.17,8.4791,5.2585,-5.6093,-3.9309,6.8619,-1.7114,0.6434,1767,2019-08-07 17:04:51:569
-6.7635,14.17,8.4791,5.2585,-5.6093,-3.9309,6.8619,-1.7114,0.6434,1773,2019-08-07 17:04:51:575
-6.7635,14.17,8.4791,5.2585,-5.6093,-3.9309,6.8886,-3.3572,0.4101,1777,2019-08-07 17:04:51:579
-3.6968,13.2773,0.9088,1.3204,-4.5128,5.3939,6.8886,-3.3572,0.4101,1783,2019-08-07 17:04:51:585
-3.6968,13.2773,0.9088,1.3204,-4.5128,5.3939,6.3453,-2.7085,0.1097,1788,2019-08-07 17:04:51:590
-3.6968,13.2773,0.9088,1.3204,-4.5128,5.3939,6.3453,-2.7085,0.1097,1792,2019-08-07 17:04:51:594
-1.3525,15.0579,-1.7263,1.3204,-4.5128,5.3939,5.9234,-1.9245,-0.0788,1798,2019-08-07 17:04:51:600
-1.3525,15.0579,-1.7263,-0.1566,-5.1866,0.4077,5.9234,-1.9245,-0.0788,1802,2019-08-07 17:04:51:604
-1.3525,15.0579,-1.7263,-0.1566,-5.1866,0.4077,5.3376,-0.7377,-0.2951,1808,2019-08-07 17:04:51:610
-1.5152,14.6569,3.4118,-0.1566,-5.1866,0.4077,5.3376,-0.7377,-0.2951,1812,2019-08-07 17:04:51:614
-1.5152,14.6569,3.4118,-0.1566,-5.1866,0.4077,5.0286,-0.6014,-0.3654,1818,2019-08-07 17:04:51:620
-1.5152,14.6569,3.4118,1.1849,-5.7422,-2.1161,5.0286,-0.6014,-0.3654,1823,2019-08-07 17:04:51:625
-2.1706,15.6069,3.1478,1.1849,-5.7422,-2.1161,5.0286,-0.6014,-0.3654,1828,2019-08-07 17:04:51:630
-2.1706,15.6069,3.1478,1.1849,-5.7422,-2.1161,4.7154,-0.5322,-0.3494,1833,2019-08-07 17:04:51:635
-1.3668,16.2896,1.6347,1.1849,-5.7422,-2.1161,4.7154,-0.5322,-0.3494,1838,2019-08-07 17:04:51:640
-1.3668,16.2896,1.6347,1.1849,-5.7422,-2.1161,4.2009,-0.2019,-0.3121,1842,2019-08-07 17:04:51:644
-1.3668,16.2896,1.6347,-0.0689,-6.7431,-0.9493,4.2009,-0.2019,-0.3121,1848,2019-08-07 17:04:51:650
-0.9937,16.7622,1.465,-0.0689,-6.7431,-0.9493,3.7727,0.2029,-0.2535,1852,2019-08-07 17:04:51:654
-0.9937,16.7622,1.465,-0.0689,-6.7431,-0.9493,3.7727,0.2029,-0.2535,1858,2019-08-07 17:04:51:660
-0.9937,16.7622,1.465,-0.0689,-6.7431,-0.9493,3.7727,0.2029,-0.2535,1862,2019-08-07 17:04:51:664
-1.1994,16.7479,2.8084,0.0401,-7.0143,-3.5167,3.3285,0.4735,-0.2003,1868,2019-08-07 17:04:51:670
-1.1994,16.7479,2.8084,0.0401,-7.0143,-3.5167,3.3285,0.4735,-0.2003,1872,2019-08-07 17:04:51:674
-1.1994,16.7479,2.8084,0.0401,-7.0143,-3.5167,2.8576,0.499,-0.0501,1878,2019-08-07 17:04:51:680
-1.5677,16.5903,3.9115,0.6096,-6.6453,-4.5354,2.4805,0.5246,0.0767,1883,2019-08-07 17:04:51:685
-1.5677,16.5903,3.9115,0.6096,-6.6453,-4.5354,2.4805,0.5246,0.0767,1888,2019-08-07 17:04:51:690
-1.5677,16.5903,3.9115,0.6096,-6.6453,-4.5354,2.4805,0.5246,0.0767,1893,2019-08-07 17:04:51:695
-2.3189,16.2036,3.6428,0.6096,-6.6453,-4.5354,2.0757,0.6237,0.1885,1898,2019-08-07 17:04:51:700
-2.3189,16.2036,3.6428,0.6096,-6.6453,-4.5354,2.0757,0.6237,0.1885,1903,2019-08-07 17:04:51:705
-2.4672,16.0604,4.5243,1.291,-6.4858,-5.6246,1.6432,0.6194,0.2812,1908,2019-08-07 17:04:51:710
-2.4672,16.0604,4.5243,1.291,-6.4858,-5.6246,1.6432,0.6194,0.2812,1913,2019-08-07 17:04:51:715
-2.4672,16.0604,4.5243,1.291,-6.4858,-5.6246,1.3982,0.532,0.3579,1918,2019-08-07 17:04:51:720
-2.1992,16.0986,4.4818,1.291,-6.4858,-5.6246,1.3982,0.532,0.3579,1922,2019-08-07 17:04:51:724
-2.1992,16.0986,4.4818,0.9388,-6.5557,-5.5666,1.134,0.4788,0.4218,1928,2019-08-07 17:04:51:730
-1.9313,16.1177,3.195,0.9388,-6.5557,-5.5666,1.134,0.4788,0.4218,1933,2019-08-07 17:04:51:735
-1.9313,16.1177,3.195,0.9388,-6.5557,-5.5666,1.134,0.4788,0.4218,1937,2019-08-07 17:04:51:739
-1.9313,16.1177,3.195,0.9388,-6.5557,-5.5666,0.627,0.6471,0.4644,1943,2019-08-07 17:04:51:745
-2.2136,16.2132,3.36,1.2221,-6.6112,-5.1081,0.627,0.6471,0.4644,1948,2019-08-07 17:04:51:750
-2.2136,16.2132,3.36,1.2221,-6.6112,-5.1081,0.2839,0.7408,0.5113,1952,2019-08-07 17:04:51:754
-2.2088,15.5735,4.3121,1.2221,-6.6112,-5.1081,0.2839,0.7408,0.5113,1958,2019-08-07 17:04:51:760
-2.2088,15.5735,4.3121,1.2221,-6.6112,-5.1081,0.0485,0.743,0.5433,1963,2019-08-07 17:04:51:765
-2.2088,15.5735,4.3121,1.3833,-5.4065,-6.3865,0.0485,0.743,0.5433,1968,2019-08-07 17:04:51:770
-2.2662,14.7046,4.7175,1.3833,-5.4065,-6.3865,0.0485,0.743,0.5433,1972,2019-08-07 17:04:51:774
-2.2662,14.7046,4.7175,1.3833,-5.4065,-6.3865,-0.3904,0.6471,0.6072,1978,2019-08-07 17:04:51:780
-2.2662,14.7046,4.7175,1.3833,-5.4065,-6.3865,-0.3904,0.6471,0.6072,1983,2019-08-07 17:04:51:785
-2.4049,13.6449,4.9108,1.6702,-4.0079,-6.5919,-0.7046,0.5704,0.6178,1988,2019-08-07 17:04:51:790
-2.4049,13.6449,4.9108,1.6702,-4.0079,-6.5919,-0.7046,0.5704,0.6178,1993,2019-08-07 17:04:51:795
-2.381,13.0004,5.4529,1.6702,-4.0079,-6.5919,-0.9347,0.5001,0.604,1998,2019-08-07 17:04:51:800
-2.381,13.0004,5.4529,1.6702,-4.0079,-6.5919,-0.9347,0.5001,0.604,2002,2019-08-07 17:04:51:804
-2.381,13.0004,5.4529,1.3108,-3.0037,-7.1244,-1.2575,0.4074,0.5209,2008,2019-08-07 17:04:51:810
-1.6059,12.5755,5.665,1.3108,-3.0037,-7.1244,-1.2575,0.4074,0.5209,2013,2019-08-07 17:04:51:815
-1.6059,12.5755,5.665,1.3108,-3.0037,-7.1244,-1.4833,0.434,0.3739,2017,2019-08-07 17:04:51:819
-1.6059,12.5755,5.665,1.3108,-3.0037,-7.1244,-1.4833,0.434,0.3739,2023,2019-08-07 17:04:51:825
-1.0222,13.7165,4.5337,0.4961,-3.9872,-5.6743,-1.6506,0.5651,0.2035,2028,2019-08-07 17:04:51:830
-1.0222,13.7165,4.5337,0.4961,-3.9872,-5.6743,-1.6506,0.5651,0.2035,2033,2019-08-07 17:04:51:835
-1.0222,13.7165,4.5337,0.4961,-3.9872,-5.6743,-1.6506,0.5651,0.2035,2037,2019-08-07 17:04:51:839
-1.4002,15.6737,2.7142,0.4961,-3.9872,-5.6743,-1.7433,1.0114,0.0543,2043,2019-08-07 17:04:51:845
-1.4002,15.6737,2.7142,1.4633,-6.5761,-2.7432,-1.7433,1.0114,0.0543,2048,2019-08-07 17:04:51:850
-1.4002,15.6737,2.7142,1.4633,-6.5761,-2.7432,-2.0841,1.1563,0.0256,2052,2019-08-07 17:04:51:854
-2.07,16.9436,-10.1074,1.4633,-6.5761,-2.7432,-2.0841,1.1563,0.0256,2058,2019-08-07 17:04:51:860
-2.07,16.9436,-10.1074,1.4633,-6.5761,-2.7432,-3.5457,-0.6334,0.4762,2062,2019-08-07 17:04:51:864
-1.8929,32.9215,8.6583,1.4458,-23.1254,-8.9264,-3.5457,-0.6334,0.4762,2068,2019-08-07 17:04:51:870
-1.8929,32.9215,8.6583,1.4458,-23.1254,-8.9264,-3.5457,-0.6334,0.4762,2072,2019-08-07 17:04:51:874
-1.8929,32.9215,8.6583,1.4458,-23.1254,-8.9264,-1.5994,2.409,1.5574,2077,2019-08-07 17:04:51:879
8.2018,8.9044,5.8064,-8.4806,0.9014,-5.7506,-1.5994,2.409,1.5574,2083,2019-08-07 17:04:51:885
8.2018,8.9044,5.8064,-8.4806,0.9014,-5.7506,-2.1789,2.2407,0.3345,2087,2019-08-07 17:04:51:889
8.2018,8.9044,5.8064,-8.4806,0.9014,-5.7506,-2.1789,2.2407,0.3345,2093,2019-08-07 17:04:51:895
0.924,21.0348,15.9221,-1.5598,-9.9004,-19.1615,-2.0064,-0.0656,0.7084,2098,2019-08-07 17:04:51:900
0.924,21.0348,15.9221,-1.5598,-9.9004,-19.1615,-2.0064,-0.0656,0.7084,2102,2019-08-07 17:04:51:904
4.9714,18.5095,12.8298,-1.5598,-9.9004,-19.1615,-1.1531,-0.6919,0.6626,2108,2019-08-07 17:04:51:910
4.9714,18.5095,12.8298,-1.5598,-9.9004,-19.1615,-1.1531,-0.6919,0.6626,2113,2019-08-07 17:04:51:915
4.9714,18.5095,12.8298,-2.1166,-16.1813,1.3462,-1.0625,-1.4983,0.7265,2117,2019-08-07 17:04:51:919
0.2111,24.7966,-2.3534,-2.1166,-16.1813,1.3462,-1.0625,-1.4983,0.7265,2123,2019-08-07 17:04:51:925
0.2111,24.7966,-2.3534,9.433,-8.4733,1.8491,-0.4724,0.4181,0.4719,2128,2019-08-07 17:04:51:930
-9.0512,12.3322,1.1443,9.433,-8.4733,1.8491,-0.4724,0.4181,0.4719,2133,2019-08-07 17:04:51:935
-9.0512,12.3322,1.1443,9.433,-8.4733,1.8491,-0.4724,0.4181,0.4719,2138,2019-08-07 17:04:51:940
-9.0512,12.3322,1.1443,9.433,-8.4733,1.8491,-0.6013,3.0162,0.522,2143,2019-08-07 17:04:51:945
-3.9177,7.6347,12.217,2.5884,3.4016,-12.0143,-0.6013,3.0162,0.522,2148,2019-08-07 17:04:51:950
-3.9177,7.6347,12.217,2.5884,3.4016,-12.0143,-0.2529,0.564,0.7606,2152,2019-08-07 17:04:51:954
-1.1429,5.033,4.6608,2.5884,3.4016,-12.0143,-0.2529,0.564,0.7606,2158,2019-08-07 17:04:51:960
-1.1429,5.033,4.6608,2.5884,3.4016,-12.0143,0.0602,-2.3516,0.5656,2162,2019-08-07 17:04:51:964
-1.1429,5.033,4.6608,0.133,0.6496,0.0021,0.0602,-2.3516,0.5656,2168,2019-08-07 17:04:51:970
1.388,9.95,1.9975,0.133,0.6496,0.0021,0.3308,-3.3828,0.3867,2172,2019-08-07 17:04:51:974
1.388,9.95,1.9975,0.133,0.6496,0.0021,0.3308,-3.3828,0.3867,2178,2019-08-07 17:04:51:980
3.6557,9.2578,-11.7621,0.133,0.6496,0.0021,0.0965,-1.0712,0.3047,2182,2019-08-07 17:04:51:984
3.6557,9.2578,-11.7621,-3.4491,-0.109,12.8709,0.0965,-1.0712,0.3047,2188,2019-08-07 17:04:51:990
3.6557,9.2578,-11.7621,-3.4491,-0.109,12.8709,0.0965,-1.0712,0.3047,2192,2019-08-07 17:04:51:994
3.8136,9.296,-9.4429,-3.4491,-0.109,12.8709,-0.5938,0.9582,0.3984,2198,2019-08-07 17:04:52:000
3.8136,9.296,-9.4429,-2.7521,1.6149,7.0567,-0.5938,0.9582,0.3984,2203,2019-08-07 17:04:52:005
3.8136,9.296,-9.4429,-2.7521,1.6149,7.0567,-0.8719,2.4431,0.3334,2208,2019-08-07 17:04:52:010
0.8043,7.587,4.3779,-2.7521,1.6149,7.0567,-0.8719,2.4431,0.3334,2213,2019-08-07 17:04:52:015
0.8043,7.587,4.3779,-0.5183,2.4571,-5.1674,-0.629,0.7962,0.3206,2217,2019-08-07 17:04:52:019
0.8043,7.587,4.3779,-0.5183,2.4571,-5.1674,-0.629,0.7962,0.3206,2223,2019-08-07 17:04:52:025
0.8043,7.587,4.3779,-0.5183,2.4571,-5.1674,-0.629,0.7962,0.3206,2227,2019-08-07 17:04:52:029
2.0052,7.7206,4.7032,-2.0162,1.6931,-3.753,-0.3744,-0.873,0.31,2233,2019-08-07 17:04:52:035
2.0052,7.7206,4.7032,-2.0162,1.6931,-3.753,-0.3744,-0.873,0.31,2237,2019-08-07 17:04:52:039
2.0052,7.7206,4.7032,-2.0162,1.6931,-3.753,-0.074,-1.7306,0.3142,2243,2019-08-07 17:04:52:045
5.378,10.5849,-2.6032,-2.0162,1.6931,-3.753,-0.074,-1.7306,0.3142,2248,2019-08-07 17:04:52:050
5.378,10.5849,-2.6032,-4.5103,-2.2826,6.2616,-0.5544,-0.5002,0.3206,2252,2019-08-07 17:04:52:054
5.378,10.5849,-2.6032,-4.5103,-2.2826,6.2616,-0.5544,-0.5002,0.3206,2258,2019-08-07 17:04:52:060
3.3352,12.3847,-3.5413,-2.6577,-2.6771,4.7826,-0.7526,0.7696,0.2695,2262,2019-08-07 17:04:52:064
3.3352,12.3847,-3.5413,-2.6577,-2.6771,4.7826,-0.7526,0.7696,0.2695,2268,2019-08-07 17:04:52:070
3.3352,12.3847,-3.5413,-2.6577,-2.6771,4.7826,-0.7526,0.7696,0.2695,2272,2019-08-07 17:04:52:074
3.3352,12.3847,-3.5413,-2.6577,-2.6771,4.7826,-0.7302,1.8913,0.1779,2278,2019-08-07 17:04:52:080
-3.4154,10.6756,6.2399,4.4876,-0.6807,-5.2899,-0.7302,1.8913,0.1779,2282,2019-08-07 17:04:52:084
-3.4154,10.6756,6.2399,4.4876,-0.6807,-5.2899,-0.4958,1.1616,0.2109,2288,2019-08-07 17:04:52:090
-3.4154,10.6756,6.2399,4.4876,-0.6807,-5.2899,-0.4958,1.1616,0.2109,2293,2019-08-07 17:04:52:095
-4.0996,10.3606,3.5813,4.4876,-0.6807,-5.2899,-0.1315,-0.3138,0.1758,2298,2019-08-07 17:04:52:100
-4.0996,10.3606,3.5813,3.6019,-0.822,-0.3309,-0.1315,-0.3138,0.1758,2303,2019-08-07 17:04:52:105
-4.0996,10.3606,3.5813,3.6019,-0.822,-0.3309,-0.0314,-0.6632,0.2194,2307,2019-08-07 17:04:52:109
0.2637,10.3797,-1.2315,0.4156,-0.7079,2.7254,-0.0314,-0.6632,0.2194,2313,2019-08-07 17:04:52:115
0.2637,10.3797,-1.2315,0.4156,-0.7079,2.7254,-0.0772,-0.3819,0.228,2317,2019-08-07 17:04:52:119
0.2637,10.3797,-1.2315,0.4156,-0.7079,2.7254,-0.0772,-0.3819,0.228,2323,2019-08-07 17:04:52:125
2.5553,9.592,-0.9864,0.4156,-0.7079,2.7254,-0.0772,-0.3819,0.228,2328,2019-08-07 17:04:52:130
2.5553,9.592,-0.9864,-2.1295,0.4711,1.2802,-0.2327,0.2338,0.2471,2333,2019-08-07 17:04:52:135
3.1199,8.7327,2.12,-2.1295,0.4711,1.2802,-0.2327,0.2338,0.2471,2337,2019-08-07 17:04:52:139
3.1199,8.7327,2.12,-2.1295,0.4711,1.2802,-0.336,0.2647,0.2333,2343,2019-08-07 17:04:52:145
3.1199,8.7327,2.12,-2.1295,0.4711,1.2802,-0.336,0.2647,0.2333,2347,2019-08-07 17:04:52:149
2.3257,8.8664,2.5207,-1.5268,0.7846,-0.9535,-0.2508,-0.0922,0.2301,2353,2019-08-07 17:04:52:155
2.3257,8.8664,2.5207,-1.5268,0.7846,-0.9535,-0.2508,-0.0922,0.2301,2357,2019-08-07 17:04:52:159
2.3496,9.6636,0.3712,-1.5268,0.7846,-0.9535,-0.2093,-0.2509,0.1843,2363,2019-08-07 17:04:52:165
2.3496,9.6636,0.3712,-1.5268,0.7846,-0.9535,-0.2093,-0.2509,0.1843,2368,2019-08-07 17:04:52:170
2.3496,9.6636,0.3712,-1.4723,-0.5623,1.8097,-0.238,-0.0826,0.0788,2373,2019-08-07 17:04:52:175
2.3496,9.6636,0.3712,-1.4723,-0.5623,1.8097,-0.238,-0.0826,0.0788,2378,2019-08-07 17:04:52:180
2.4309,9.7543,0.2675,-1.4723,-0.5623,1.8097,-0.238,-0.0826,0.0788,2383,2019-08-07 17:04:52:185
2.4309,9.7543,0.2675,-1.4723,-0.5623,1.8097,-0.27,0.1081,0.0319,2390,2019-08-07 17:04:52:192
2.4309,9.7543,0.2675,-1.4723,-0.5623,1.8097,-0.27,0.1081,0.0319,2392,2019-08-07 17:04:52:194
2.6845,9.8736,0.5503,-1.4723,-0.5623,1.8097,-0.2934,0.1496,-0.0021,2398,2019-08-07 17:04:52:200
2.6845,9.8736,0.5503,-1.6804,-0.4375,1.2052,-0.2934,0.1496,-0.0021,2402,2019-08-07 17:04:52:204
2.6845,9.8736,0.5503,-1.6804,-0.4375,1.2052,-0.2934,0.1496,-0.0021,2408,2019-08-07 17:04:52:210
1.0817,10.1983,0.7389,-0.012,-0.4889,0.6943,-0.3414,0.4511,-0.1161,2412,2019-08-07 17:04:52:214
1.0817,10.1983,0.7389,-0.012,-0.4889,0.6943,-0.3414,0.4511,-0.1161,2418,2019-08-07 17:04:52:220
1.0817,10.1983,0.7389,-0.012,-0.4889,0.6943,-0.3105,0.335,-0.0991,2423,2019-08-07 17:04:52:225
0.2493,9.4679,2.1436,-0.012,-0.4889,0.6943,-0.3105,0.335,-0.0991,2427,2019-08-07 17:04:52:229
0.2493,9.4679,2.1436,0.6872,-0.0448,-0.3197,-0.2721,0.0857,-0.0948,2433,2019-08-07 17:04:52:235
0.2493,9.4679,2.1436,0.6872,-0.0448,-0.3197,-0.2721,0.0857,-0.0948,2437,2019-08-07 17:04:52:239
-0.0808,10.4751,0.6776,0.6872,-0.0448,-0.3197,-0.2721,0.0857,-0.0948,2443,2019-08-07 17:04:52:245
-0.0808,10.4751,0.6776,0.6872,-0.0448,-0.3197,-0.2753,-0.0826,-0.0991,2448,2019-08-07 17:04:52:250
-0.0808,10.4751,0.6776,0.973,-1.259,1.3378,-0.2753,-0.0826,-0.0991,2452,2019-08-07 17:04:52:254
-0.1765,10.7807,0.6634,0.973,-1.259,1.3378,-0.2529,0.0165,-0.0714,2458,2019-08-07 17:04:52:260
-0.1765,10.7807,0.6634,0.973,-1.259,1.3378,-0.2529,0.0165,-0.0714,2463,2019-08-07 17:04:52:265
-0.0761,10.1458,1.5166,0.973,-1.259,1.3378,-0.2593,-0.0443,-0.0213,2468,2019-08-07 17:04:52:270
-0.0761,10.1458,1.5166,0.8897,-0.2494,0.3976,-0.2593,-0.0443,-0.0213,2472,2019-08-07 17:04:52:274
-0.0761,10.1458,1.5166,0.8897,-0.2494,0.3976,-0.2593,-0.0443,-0.0213,2478,2019-08-07 17:04:52:280
-0.1765,9.9739,1.1867,0.8897,-0.2494,0.3976,-0.2828,-0.187,0.0064,2482,2019-08-07 17:04:52:284
-0.1765,9.9739,1.1867,0.9802,-0.4591,1.0096,-0.2828,-0.187,0.0064,2488,2019-08-07 17:04:52:290
-0.0426,10.1123,0.819,0.9802,-0.4591,1.0096,-0.3307,-0.2285,0.0117,2493,2019-08-07 17:04:52:295
-0.0426,10.1123,0.819,0.9802,-0.4591,1.0096,-0.3307,-0.2285,0.0117,2498,2019-08-07 17:04:52:300
-0.0426,10.1123,0.819,0.2102,-0.055,0.4463,-0.3701,-0.2254,0.0,2503,2019-08-07 17:04:52:305
0.6655,9.6302,1.6062,0.2102,-0.055,0.4463,-0.3701,-0.2254,0.0,2508,2019-08-07 17:04:52:310
0.6655,9.6302,1.6062,0.2102,-0.055,0.4463,-0.3201,-0.2946,0.0011,2513,2019-08-07 17:04:52:315
1.3257,9.401,1.9786,0.2102,-0.055,0.4463,-0.3201,-0.2946,0.0011,2517,2019-08-07 17:04:52:319
1.3257,9.401,1.9786,-0.8989,0.2859,0.1941,-0.2434,-0.3702,-0.0032,2523,2019-08-07 17:04:52:325
1.3257,9.401,1.9786,-0.8989,0.2859,0.1941,-0.2434,-0.3702,-0.0032,2527,2019-08-07 17:04:52:329
2.0146,9.3247,1.5638,-0.8989,0.2859,0.1941,-0.2529,-0.3404,-0.0394,2533,2019-08-07 17:04:52:335
2.0146,9.3247,1.5638,-0.8989,0.2859,0.1941,-0.2529,-0.3404,-0.0394,2537,2019-08-07 17:04:52:339
2.0146,9.3247,1.5638,-0.8989,0.2859,0.1941,-0.2529,-0.3404,-0.0394,2543,2019-08-07 17:04:52:345
2.4739,9.4154,1.6628,-1.66,0.1472,0.3697,-0.2252,-0.219,-0.0725,2547,2019-08-07 17:04:52:349
2.4739,9.4154,1.6628,-1.66,0.1472,0.3697,-0.2252,-0.219,-0.0725,2552,2019-08-07 17:04:52:354
2.2108,9.4917,1.9739,-1.66,0.1472,0.3697,-0.1773,-0.0783,-0.1225,2558,2019-08-07 17:04:52:360
2.2108,9.4917,1.9739,-1.2575,0.0449,-0.0304,-0.1773,-0.0783,-0.1225,2563,2019-08-07 17:04:52:365
2.2108,9.4917,1.9739,-1.2575,0.0449,-0.0304,-0.1411,-0.0155,-0.1683,2567,2019-08-07 17:04:52:369
1.895,9.4345,2.087,-1.2575,0.0449,-0.0304,-0.1411,-0.0155,-0.1683,2573,2019-08-07 17:04:52:375
1.895,9.4345,2.087,-1.2575,0.0449,-0.0304,-0.1411,-0.0155,-0.1683,2578,2019-08-07 17:04:52:380
1.895,9.4345,2.087,-1.2575,0.0449,-0.0304,-0.0729,0.0537,-0.195,2582,2019-08-07 17:04:52:384
1.4501,9.3867,2.1671,-0.6688,0.167,-0.0808,-0.0729,0.0537,-0.195,2588,2019-08-07 17:04:52:390
1.4501,9.3867,2.1671,-0.6688,0.167,-0.0808,-0.0197,0.1954,-0.1939,2593,2019-08-07 17:04:52:395
0.7803,9.444,1.955,-0.0197,0.1106,0.1347,-0.0197,0.1954,-0.1939,2598,2019-08-07 17:04:52:400
0.7803,9.444,1.955,-0.0197,0.1106,0.1347,0.0027,0.238,-0.1907,2602,2019-08-07 17:04:52:404
-0.3153,9.7352,2.3415,-0.0197,0.1106,0.1347,0.0027,0.238,-0.1907,2608,2019-08-07 17:04:52:410
-0.3153,9.7352,2.3415,-0.0197,0.1106,0.1347,0.0538,0.123,-0.1641,2612,2019-08-07 17:04:52:414
-0.3153,9.7352,2.3415,1.1829,-0.2153,-0.0376,0.0538,0.123,-0.1641,2618,2019-08-07 17:04:52:420
-0.5497,9.802,1.9267,1.1829,-0.2153,-0.0376,0.0538,0.123,-0.1641,2623,2019-08-07 17:04:52:425
-0.5497,9.802,1.9267,1.1829,-0.2153,-0.0376,0.1029,-0.1007,-0.1353,2628,2019-08-07 17:04:52:430
-0.1862,9.9357,1.8089,1.1829,-0.2153,-0.0376,0.1029,-0.1007,-0.1353,2633,2019-08-07 17:04:52:435
-0.1862,9.9357,1.8089,0.7442,-0.3753,0.3458,0.1444,-0.252,-0.1044,2638,2019-08-07 17:04:52:440
-0.1862,9.9357,1.8089,0.7442,-0.3753,0.3458,0.1444,-0.252,-0.1044,2643,2019-08-07 17:04:52:445
0.2875,9.8546,1.3186,0.7442,-0.3753,0.3458,0.1625,-0.2882,-0.097,2647,2019-08-07 17:04:52:449
0.2875,9.8546,1.3186,0.7442,-0.3753,0.3458,0.1625,-0.2882,-0.097,2653,2019-08-07 17:04:52:455
0.2875,9.8546,1.3186,0.1838,-0.2323,0.9233,0.1274,-0.1753,-0.0735,2658,2019-08-07 17:04:52:460
0.5698,9.8641,1.0971,0.1838,-0.2323,0.9233,0.1274,-0.1753,-0.0735,2663,2019-08-07 17:04:52:465
0.5698,9.8641,1.0971,0.0983,-0.3097,0.784,0.0986,-0.1284,-0.0629,2668,2019-08-07 17:04:52:470
0.5698,9.8641,1.0971,0.0983,-0.3097,0.784,0.0986,-0.1284,-0.0629,2672,2019-08-07 17:04:52:474
0.8329,9.783,0.6021,0.0983,-0.3097,0.784,0.04,-0.1998,-0.0661,2678,2019-08-07 17:04:52:480
0.8329,9.783,0.6021,0.0983,-0.3097,0.784,0.04,-0.1998,-0.0661,2682,2019-08-07 17:04:52:484
-0.0426,10.4752,0.4277,0.6028,-1.0009,1.4801,-0.0058,-0.1444,-0.0554,2688,2019-08-07 17:04:52:490
-0.0426,10.4752,0.4277,0.6028,-1.0009,1.4801,-0.0058,-0.1444,-0.0554,2692,2019-08-07 17:04:52:494
-0.0426,10.4752,0.4277,0.6028,-1.0009,1.4801,-0.091,-0.2179,-0.0075,2698,2019-08-07 17:04:52:500
0.5984,9.9262,0.357,0.6028,-1.0009,1.4801,-0.091,-0.2179,-0.0075,2702,2019-08-07 17:04:52:504
0.5984,9.9262,0.357,-0.0053,-0.494,1.3018,-0.14,-0.3404,-0.0362,2708,2019-08-07 17:04:52:510
0.2588,10.2651,0.588,-0.0053,-0.494,1.3018,-0.14,-0.3404,-0.0362,2713,2019-08-07 17:04:52:515
0.2588,10.2651,0.588,-0.0053,-0.494,1.3018,-0.1784,-0.3074,0.0,2718,2019-08-07 17:04:52:520
0.2588,10.2651,0.588,-0.0053,-0.494,1.3018,-0.1784,-0.3074,0.0,2722,2019-08-07 17:04:52:524
0.2588,10.2651,0.588,0.308,-1.1044,1.1966,-0.1784,-0.3074,0.0,2728,2019-08-07 17:04:52:530
0.3544,10.6852,0.8048,0.308,-1.1044,1.1966,-0.2103,-0.2232,0.0042,2732,2019-08-07 17:04:52:534
0.3544,10.6852,0.8048,0.308,-1.1044,1.1966,-0.2103,-0.2232,0.0042,2738,2019-08-07 17:04:52:540
-0.2101,10.1983,1.1301,0.308,-1.1044,1.1966,-0.2231,-0.0347,0.0011,2743,2019-08-07 17:04:52:545
-0.2101,10.1983,1.1301,0.9714,-0.1185,0.6317,-0.2231,-0.0347,0.0011,2748,2019-08-07 17:04:52:550
-0.2101,10.1983,1.1301,0.9714,-0.1185,0.6317,-0.2348,-0.1891,0.0213,2752,2019-08-07 17:04:52:554
-0.0666,9.5681,2.3038,0.9714,-0.1185,0.6317,-0.2348,-0.1891,0.0213,2758,2019-08-07 17:04:52:560
-0.0666,9.5681,2.3038,0.9714,-0.1185,0.6317,-0.1731,-0.4139,0.0309,2762,2019-08-07 17:04:52:564
0.4453,9.8928,1.4553,0.2275,-0.3276,0.616,-0.1731,-0.4139,0.0309,2768,2019-08-07 17:04:52:570
0.4453,9.8928,1.4553,0.2275,-0.3276,0.616,-0.1858,-0.334,0.0405,2773,2019-08-07 17:04:52:575
0.6223,9.8116,0.6634,0.0622,-0.2491,1.4167,-0.1858,-0.334,0.0405,2777,2019-08-07 17:04:52:579
0.6223,9.8116,0.6634,0.0622,-0.2491,1.4167,-0.2487,-0.1636,0.0639,2783,2019-08-07 17:04:52:585
0.6223,9.8116,0.6634,0.0622,-0.2491,1.4167,-0.2487,-0.1636,0.0639,2787,2019-08-07 17:04:52:589
1.0768,9.4822,2.7422,0.0622,-0.2491,1.4167,-0.2487,-0.1636,0.0639,2793,2019-08-07 17:04:52:595
1.0768,9.4822,2.7422,-0.2746,-0.04,-0.6877,-0.1986,-0.2754,0.0543,2798,2019-08-07 17:04:52:600
1.0768,9.4822,2.7422,-0.2746,-0.04,-0.6877,-0.1986,-0.2754,0.0543,2802,2019-08-07 17:04:52:604
0.852,9.6875,2.0446,-0.2746,-0.04,-0.6877,-0.1219,-0.432,0.0383,2808,2019-08-07 17:04:52:610
0.852,9.6875,2.0446,-0.2746,-0.04,-0.6877,-0.1219,-0.432,0.0383,2813,2019-08-07 17:04:52:615
1.2156,9.5825,1.6203,-0.4821,-0.0366,0.5185,-0.1517,-0.3788,0.0309,2817,2019-08-07 17:04:52:619
1.2156,9.5825,1.6203,-0.4821,-0.0366,0.5185,-0.1517,-0.3788,0.0309,2823,2019-08-07 17:04:52:625
1.2156,9.5825,1.6203,-0.4821,-0.0366,0.5185,-0.1038,-0.3212,0.0181,2828,2019-08-07 17:04:52:630
1.2873,9.3867,2.2378,-0.4821,-0.0366,0.5185,-0.1038,-0.3212,0.0181,2833,2019-08-07 17:04:52:635
1.2873,9.3867,2.2378,-0.5157,0.1251,0.1334,-0.1038,-0.3212,0.0181,2837,2019-08-07 17:04:52:639
1.2156,9.3629,1.7664,-0.5157,0.1251,0.1334,-0.0505,-0.3308,0.0256,2843,2019-08-07 17:04:52:645
1.2156,9.3629,1.7664,-0.5157,0.1251,0.1334,-0.0505,-0.3308,0.0256,2847,2019-08-07 17:04:52:649
1.2156,9.3629,1.7664,-0.5157,0.1251,0.1334,-0.0367,-0.2435,0.0266,2852,2019-08-07 17:04:52:654
1.1247,9.5299,1.9786,-0.3613,-0.0152,0.1064,-0.0367,-0.2435,0.0266,2858,2019-08-07 17:04:52:660
1.1247,9.5299,1.9786,-0.3613,-0.0152,0.1064,-0.0047,-0.1668,0.0266,2862,2019-08-07 17:04:52:664
1.139,9.5538,2.0446,-0.3613,-0.0152,0.1064,-0.0047,-0.1668,0.0266,2868,2019-08-07 17:04:52:670
1.139,9.5538,2.0446,-0.3613,-0.0152,0.1064,0.0315,-0.1316,0.0149,2872,2019-08-07 17:04:52:674
1.139,9.5538,2.0446,-0.3613,-0.0152,0.1064,0.0315,-0.1316,0.0149,2878,2019-08-07 17:04:52:680
1.1247,9.5729,1.7334,-0.3335,-0.0341,0.4161,0.0539,-0.0847,0.0064,2883,2019-08-07 17:04:52:685
1.1247,9.5729,1.7334,-0.3335,-0.0341,0.4161,0.0539,-0.0847,0.0064,2888,2019-08-07 17:04:52:690
1.1247,9.5729,1.7334,-0.3335,-0.0341,0.4161,0.0539,-0.0847,0.0064,2893,2019-08-07 17:04:52:695
1.1103,9.7352,1.7759,-0.3335,-0.0341,0.4161,0.0741,-0.0102,0.0,2897,2019-08-07 17:04:52:699
1.1103,9.7352,1.7759,-0.2513,-0.3126,0.4142,0.0741,-0.0102,0.0,2903,2019-08-07 17:04:52:705
0.7993,9.8355,1.5307,-0.2513,-0.3126,0.4142,0.0805,0.0527,-0.0032,2908,2019-08-07 17:04:52:710
0.7993,9.8355,1.5307,-0.2513,-0.3126,0.4142,0.0805,0.0527,-0.0032,2913,2019-08-07 17:04:52:715
0.7993,9.8355,1.5307,0.0952,-0.3796,0.3284,0.0922,0.0623,0.0032,2918,2019-08-07 17:04:52:720
0.6606,9.9596,1.8277,0.0952,-0.3796,0.3284,0.0922,0.0623,0.0032,2923,2019-08-07 17:04:52:725
0.6606,9.9596,1.8277,0.0952,-0.3796,0.3284,0.1188,0.0388,0.0053,2928,2019-08-07 17:04:52:730
0.5697,9.8259,1.493,0.1656,-0.119,0.5707,0.1188,0.0388,0.0053,2933,2019-08-07 17:04:52:735
0.5697,9.8259,1.493,0.1656,-0.119,0.5707,0.1071,0.0516,0.0266,2938,2019-08-07 17:04:52:740
0.5697,9.8259,1.493,0.1656,-0.119,0.5707,0.1071,0.0516,0.0266,2943,2019-08-07 17:04:52:745
0.3544,10.4179,2.6903,0.1656,-0.119,0.5707,0.1071,0.0516,0.0266,2948,2019-08-07 17:04:52:750
0.3544,10.4179,2.6903,0.6926,-0.9735,-1.1107,0.1636,-0.0528,0.0724,2952,2019-08-07 17:04:52:754
-0.1241,10.2938,2.3227,0.6926,-0.9735,-1.1107,0.1636,-0.0528,0.0724,2958,2019-08-07 17:04:52:760
-0.1241,10.2938,2.3227,0.6926,-0.9735,-1.1107,0.2381,-0.3745,0.1395,2963,2019-08-07 17:04:52:765
-0.1241,10.2938,2.3227,0.6003,-0.1922,1.1185,0.2381,-0.3745,0.1395,2968,2019-08-07 17:04:52:770
0.3161,9.7161,0.7577,0.6003,-0.1922,1.1185,0.2381,-0.3745,0.1395,2973,2019-08-07 17:04:52:775
0.3161,9.7161,0.7577,0.6003,-0.1922,1.1185,0.236,-0.4448,0.1097,2978,2019-08-07 17:04:52:780
0.895,9.6302,0.7105,0.6003,-0.1922,1.1185,0.2158,-0.4001,0.0937,2983,2019-08-07 17:04:52:785
0.895,9.6302,0.7105,0.6003,-0.1922,1.1185,0.2158,-0.4001,0.0937,2988,2019-08-07 17:04:52:790
0.895,9.6302,0.7105,-0.2718,-0.5315,0.4467,0.2158,-0.4001,0.0937,2993,2019-08-07 17:04:52:795
1.1916,10.2126,2.2284,-0.2718,-0.5315,0.4467,0.1891,-0.367,0.1182,2998,2019-08-07 17:04:52:800
1.1916,10.2126,2.2284,-0.2718,-0.5315,0.4467,0.1891,-0.367,0.1182,3003,2019-08-07 17:04:52:805
1.1916,10.2126,2.2284,-0.2718,-0.5315,0.4467,0.1796,-0.4576,0.1321,3008,2019-08-07 17:04:52:810
1.1916,10.2126,2.2284,-0.2718,-0.5315,0.4467,0.1796,-0.4576,0.1321,3018,2019-08-07 17:04:52:820
1.1916,10.2126,2.2284,-0.2718,-0.5315,0.4467,0.1796,-0.4576,0.1321,3019,2019-08-07 17:04:52:821
1.1916,10.2126,2.2284,-0.2718,-0.5315,0.4467,0.1796,-0.4576,0.1321,3025,2019-08-07 17:04:52:827
0.718,9.6588,0.4984,0.1799,-0.0816,1.427,0.1668,-0.4363,0.1225,3028,2019-08-07 17:04:52:830
0.718,9.6588,0.4984,0.1799,-0.0816,1.427,0.1668,-0.4363,0.1225,3033,2019-08-07 17:04:52:835
0.718,9.6588,0.4984,0.1799,-0.0816,1.427,0.1668,-0.4363,0.1225,3038,2019-08-07 17:04:52:840
0.9285,9.697,1.0075,0.0116,-0.1124,0.8596,0.0826,-0.3074,0.0724,3043,2019-08-07 17:04:52:845
0.9285,9.697,1.0075,0.0116,-0.1124,0.8596,0.0826,-0.3074,0.0724,3048,2019-08-07 17:04:52:850
1.1485,9.6923,1.2573,0.0116,-0.1124,0.8596,0.0709,-0.2893,0.0756,3052,2019-08-07 17:04:52:854
1.1485,9.6923,1.2573,0.0116,-0.1124,0.8596,0.0709,-0.2893,0.0756,3058,2019-08-07 17:04:52:860
1.1485,9.6923,1.2573,-0.0148,-0.1913,0.8256,0.0475,-0.2509,0.0714,3063,2019-08-07 17:04:52:865
0.9859,9.845,1.2385,-0.0148,-0.1913,0.8256,0.0475,-0.2509,0.0714,3068,2019-08-07 17:04:52:870
0.9859,9.845,1.2385,-0.0148,-0.1913,0.8256,0.0475,-0.2509,0.0714,3073,2019-08-07 17:04:52:875
1.0241,9.8928,1.2998,-0.0148,-0.1913,0.8256,0.0112,-0.2424,0.0511,3078,2019-08-07 17:04:52:880
1.0241,9.8928,1.2998,-0.0084,-0.2479,0.6034,0.0112,-0.2424,0.0511,3083,2019-08-07 17:04:52:885
1.0241,9.8928,1.2998,-0.0084,-0.2479,0.6034,0.0198,-0.2371,0.033,3087,2019-08-07 17:04:52:889
1.2347,9.7686,1.3752,-0.0084,-0.2479,0.6034,0.0198,-0.2371,0.033,3093,2019-08-07 17:04:52:895
1.2347,9.7686,1.3752,-0.0084,-0.2479,0.6034,0.0357,-0.2307,0.033,3098,2019-08-07 17:04:52:900
1.6652,9.6875,0.8331,-0.67,-0.1276,0.8952,0.0357,-0.2307,0.033,3103,2019-08-07 17:04:52:905
1.6652,9.6875,0.8331,-0.67,-0.1276,0.8952,0.0315,-0.1369,0.0277,3108,2019-08-07 17:04:52:910
1.6652,9.6875,0.8331,-0.67,-0.1276,0.8952,0.0315,-0.1369,0.0277,3113,2019-08-07 17:04:52:915
1.7705,9.6302,1.1536,-0.67,-0.1276,0.8952,0.0144,-0.0411,0.0064,3118,2019-08-07 17:04:52:920
1.7705,9.6302,1.1536,-0.6566,-0.074,0.6933,0.0144,-0.0411,0.0064,3123,2019-08-07 17:04:52:925
1.56,9.6397,1.2951,-0.6566,-0.074,0.6933,0.0134,0.0165,-0.0053,3128,2019-08-07 17:04:52:930
1.56,9.6397,1.2951,-0.6566,-0.074,0.6933,0.0134,0.0165,-0.0053,3133,2019-08-07 17:04:52:935
1.56,9.6397,1.2951,-0.6566,-0.074,0.6933,0.0134,0.0165,-0.0053,3137,2019-08-07 17:04:52:939
1.1485,9.6779,1.3658,-0.1288,-0.0875,0.4284,0.0134,0.0506,-0.0043,3143,2019-08-07 17:04:52:945
1.1485,9.6779,1.3658,-0.1288,-0.0875,0.4284,0.0123,0.0399,-0.0107,3148,2019-08-07 17:04:52:950
1.1485,9.6779,1.3658,-0.1288,-0.0875,0.4284,0.0123,0.0399,-0.0107,3153,2019-08-07 17:04:52:955
0.9141,9.8975,1.3469,-0.1288,-0.0875,0.4284,0.0123,0.0399,-0.0107,3158,2019-08-07 17:04:52:960
0.9141,9.8975,1.3469,0.1252,-0.2912,0.4272,0.023,0.0133,-0.0149,3163,2019-08-07 17:04:52:965
1.0528,9.8498,1.2573,0.1252,-0.2912,0.4272,0.023,0.0133,-0.0149,3167,2019-08-07 17:04:52:969
1.0528,9.8498,1.2573,0.1252,-0.2912,0.4272,0.0293,-0.0112,-0.0128,3173,2019-08-07 17:04:52:975
1.0528,9.8498,1.2573,0.1252,-0.2912,0.4272,0.0293,-0.0112,-0.0128,3177,2019-08-07 17:04:52:979
1.1055,9.8259,1.2243,-0.1114,-0.2222,0.5913,0.0262,0.0026,-0.016,3183,2019-08-07 17:04:52:985
1.1055,9.8259,1.2243,-0.1114,-0.2222,0.5913,0.0262,0.0026,-0.016,3187,2019-08-07 17:04:52:989
1.1055,9.8259,1.2243,-0.1114,-0.2222,0.5913,0.0262,0.0026,-0.016,3193,2019-08-07 17:04:52:995
1.1629,9.74,1.3186,-0.1507,-0.1449,0.4551,0.0219,0.0186,-0.016,3198,2019-08-07 17:04:53:000
1.1629,9.74,1.3186,-0.1507,-0.1449,0.4551,0.0219,0.0186,-0.016,3202,2019-08-07 17:04:53:004
1.005,9.8498,1.2102,-0.1507,-0.1449,0.4551,0.0187,0.0186,-0.0224,3208,2019-08-07 17:04:53:010
1.005,9.8498,1.2102,-0.0641,-0.2432,0.5226,0.0187,0.0186,-0.0224,3212,2019-08-07 17:04:53:014
1.005,9.8498,1.2102,-0.0641,-0.2432,0.5226,0.0166,0.026,-0.0213,3218,2019-08-07 17:04:53:020
1.1198,9.8928,1.1395,-0.0641,-0.2432,0.5226,0.0166,0.026,-0.0213,3222,2019-08-07 17:04:53:024
1.1198,9.8928,1.1395,-0.0641,-0.2432,0.5226,0.0112,0.0559,-0.0373,3228,2019-08-07 17:04:53:030
1.072,9.845,1.1819,-0.0717,-0.2459,0.5768,0.0112,0.0559,-0.0373,3233,2019-08-07 17:04:53:035
1.072,9.845,1.1819,-0.0717,-0.2459,0.5768,-0.0037,0.042,-0.0352,3238,2019-08-07 17:04:53:040
1.072,9.845,1.1819,-0.0717,-0.2459,0.5768,-0.0037,0.042,-0.0352,3243,2019-08-07 17:04:53:045
1.0193,9.7973,1.0924,-0.0231,-0.1975,0.6648,-5.0E-4,0.0378,-0.0437,3247,2019-08-07 17:04:53:049
1.0193,9.7973,1.0924,-0.0231,-0.1975,0.6648,-5.0E-4,0.0378,-0.0437,3253,2019-08-07 17:04:53:055
1.3303,9.8259,1.0311,-0.0231,-0.1975,0.6648,-0.009,0.0932,-0.0565,3257,2019-08-07 17:04:53:059
1.3303,9.8259,1.0311,-0.339,-0.1959,0.7984,-0.009,0.0932,-0.0565,3263,2019-08-07 17:04:53:065
1.3303,9.8259,1.0311,-0.339,-0.1959,0.7984,-0.0388,0.1763,-0.0703,3267,2019-08-07 17:04:53:069
1.2777,9.6541,0.9698,-0.339,-0.1959,0.7984,-0.0388,0.1763,-0.0703,3273,2019-08-07 17:04:53:075
1.2777,9.6541,0.9698,-0.339,-0.1959,0.7984,-0.0388,0.1763,-0.0703,3277,2019-08-07 17:04:53:079
1.1294,9.8641,1.1301,-0.1614,-0.2621,0.6309,-0.0601,0.1997,-0.0714,3283,2019-08-07 17:04:53:085
1.1294,9.8641,1.1301,-0.1614,-0.2621,0.6309,-0.0601,0.1997,-0.0714,3287,2019-08-07 17:04:53:089
1.1294,9.8641,1.1301,-0.1614,-0.2621,0.6309,-0.0591,0.2221,-0.0884,3293,2019-08-07 17:04:53:095
0.6127,9.9835,1.0782,-0.1614,-0.2621,0.6309,-0.0591,0.2221,-0.0884,3297,2019-08-07 17:04:53:099
0.6127,9.9835,1.0782,0.4437,-0.276,0.5437,-0.075,0.2189,-0.0799,3303,2019-08-07 17:04:53:105
0.6127,9.9835,1.0782,0.4437,-0.276,0.5437,-0.075,0.2189,-0.0799,3307,2019-08-07 17:04:53:109
0.3495,9.845,1.3516,0.4437,-0.276,0.5437,-0.0772,0.1816,-0.0778,3313,2019-08-07 17:04:53:115
0.3495,9.845,1.3516,0.4437,-0.276,0.5437,-0.0772,0.1816,-0.0778,3317,2019-08-07 17:04:53:119
-0.1146,9.5634,3.5482,0.4437,-0.276,0.5437,-0.0772,0.1816,-0.0778,3323,2019-08-07 17:04:53:125
-0.1146,9.5634,3.5482,0.5986,0.0784,-0.1678,-0.1762,-0.6749,-0.0895,3327,2019-08-07 17:04:53:129
-0.1146,9.5634,3.5482,0.5986,0.0784,-0.1678,-0.1762,-0.6749,-0.0895,3333,2019-08-07 17:04:53:135
1.1198,10.1458,1.3516,0.5986,0.0784,-0.1678,-0.0772,-0.4693,-0.1641,3337,2019-08-07 17:04:53:139
1.1198,10.1458,1.3516,0.5986,0.0784,-0.1678,-0.0772,-0.4693,-0.1641,3343,2019-08-07 17:04:53:145
1.3494,10.184,0.5833,-0.4337,-0.6567,1.0569,-0.1272,-0.3468,-0.1215,3347,2019-08-07 17:04:53:149
1.3494,10.184,0.5833,-0.4337,-0.6567,1.0569,-0.1272,-0.3468,-0.1215,3353,2019-08-07 17:04:53:155
1.3494,10.184,0.5833,-0.4337,-0.6567,1.0569,-0.1272,0.0612,-0.1151,3358,2019-08-07 17:04:53:160
1.1628,9.6588,0.8755,-0.4337,-0.6567,1.0569,-0.1272,0.0612,-0.1151,3362,2019-08-07 17:04:53:164
1.1628,9.6588,0.8755,-0.0156,-0.152,0.3088,-0.0687,0.2359,-0.0991,3368,2019-08-07 17:04:53:170
1.1628,9.6588,0.8755,-0.0156,-0.152,0.3088,-0.0687,0.2359,-0.0991,3372,2019-08-07 17:04:53:174
0.6174,10.0169,1.9785,-0.0156,-0.152,0.3088,-0.0228,0.1645,-0.082,3378,2019-08-07 17:04:53:180
0.6174,10.0169,1.9785,-0.0156,-0.152,0.3088,-0.0228,0.1645,-0.082,3383,2019-08-07 17:04:53:185
0.8184,9.8212,1.2338,0.1164,-0.2565,0.3898,-0.0228,0.1645,-0.082,3388,2019-08-07 17:04:53:190
0.8184,9.8212,1.2338,0.1164,-0.2565,0.3898,0.0549,0.2657,-0.0714,3393,2019-08-07 17:04:53:195
0.8184,9.8212,1.2338,0.1164,-0.2565,0.3898,0.0549,0.2657,-0.0714,3397,2019-08-07 17:04:53:199
1.3446,9.7877,0.7812,0.1164,-0.2565,0.3898,0.1029,0.5054,-0.0607,3403,2019-08-07 17:04:53:205
1.3446,9.7877,0.7812,-0.6873,-0.18,0.9598,0.1029,0.5054,-0.0607,3407,2019-08-07 17:04:53:209
1.9187,9.888,0.588,-0.6873,-0.18,0.9598,0.0709,0.7398,-0.0693,3413,2019-08-07 17:04:53:215
1.9187,9.888,0.588,-0.6873,-0.18,0.9598,0.0709,0.7398,-0.0693,3418,2019-08-07 17:04:53:220
1.9187,9.888,0.588,-0.6873,-0.18,0.9598,-0.0836,0.8207,-0.1673,3423,2019-08-07 17:04:53:225
0.3925,10.3033,1.3799,0.4129,-0.6966,0.436,-0.0836,0.8207,-0.1673,3428,2019-08-07 17:04:53:230
0.3925,10.3033,1.3799,0.4129,-0.6966,0.436,-0.1688,0.4479,-0.1364,3433,2019-08-07 17:04:53:235
0.3925,10.3033,1.3799,0.4129,-0.6966,0.436,-0.1688,0.4479,-0.1364,3438,2019-08-07 17:04:53:240
0.0289,9.7066,2.7139,0.4129,-0.6966,0.436,-0.1688,0.4479,-0.1364,3442,2019-08-07 17:04:53:244
0.0289,9.7066,2.7139,0.488,-0.2028,-0.2547,-0.0186,0.172,-0.1151,3448,2019-08-07 17:04:53:250
0.4308,10.1028,0.9745,0.488,-0.2028,-0.2547,-0.0186,0.172,-0.1151,3453,2019-08-07 17:04:53:255
0.4308,10.1028,0.9745,0.488,-0.2028,-0.2547,-0.0346,0.0037,-0.1246,3457,2019-08-07 17:04:53:259