ACCELEROMETER X (m/s²),ACCELEROMETER Y (m/s²),ACCELEROMETER Z (m/s²),LINEAR ACCELERATION X (m/s²),LINEAR ACCELERATION Y (m/s²),LINEAR ACCELERATION Z (m/s²),GYROSCOPE X (rad/s),GYROSCOPE Y (rad/s),GYROSCOPE Z (rad/s),Time since start in ms ,YYYY-MO-DD HH-MI-SS_SSS
0.1773,10.0069,0.6455,0.0372,-0.1774,0.4072,0.1231,-0.0283,-0.0532,3,2019-08-07 17:05:32:834
0.1773,10.0069,0.6455,0.0372,-0.1774,0.4072,0.1231,-0.0283,-0.0532,7,2019-08-07 17:05:32:838
0.1773,10.0069,0.6455,0.0794,-0.1691,0.511,0.1103,0.0165,-0.0564,13,2019-08-07 17:05:32:844
0.1199,9.878,0.6597,0.0794,-0.1691,0.511,0.1103,0.0165,-0.0564,18,2019-08-07 17:05:32:849
0.1199,9.878,0.6597,0.0794,-0.1691,0.511,0.1092,0.0069,-0.0532,23,2019-08-07 17:05:32:854
0.1199,9.878,0.6597,0.0794,-0.1691,0.511,0.1092,0.0069,-0.0532,28,2019-08-07 17:05:32:859
0.0864,9.9353,0.8577,0.1489,-0.2376,0.3264,0.1114,-0.0208,-0.0543,32,2019-08-07 17:05:32:863
0.0864,9.9353,0.8577,0.1489,-0.2376,0.3264,0.1114,-0.0208,-0.0543,38,2019-08-07 17:05:32:869
0.0624,9.9639,0.6408,0.1489,-0.2376,0.3264,0.1103,-0.0326,-0.0543,42,2019-08-07 17:05:32:873
0.0624,9.9639,0.6408,0.1489,-0.2376,0.3264,0.1103,-0.0326,-0.0543,48,2019-08-07 17:05:32:879
0.0624,9.9639,0.6408,0.0185,-0.2203,0.5038,0.1103,-0.0326,-0.0543,52,2019-08-07 17:05:32:883
0.1115,9.9638,0.5845,0.0185,-0.2203,0.5038,0.1018,-0.0144,-0.0554,58,2019-08-07 17:05:32:889
0.1115,9.9638,0.5845,0.0164,-0.2283,0.3596,0.1018,-0.0144,-0.0554,62,2019-08-07 17:05:32:893
0.1881,9.9686,0.8061,0.0164,-0.2283,0.3596,0.1007,0.0069,-0.0607,68,2019-08-07 17:05:32:899
0.1881,9.9686,0.8061,0.0164,-0.2283,0.3596,0.1007,0.0069,-0.0607,73,2019-08-07 17:05:32:904
0.1881,9.9686,0.8061,0.0164,-0.2283,0.3596,0.1188,-0.0304,-0.066,78,2019-08-07 17:05:32:909
0.3412,9.8635,0.9003,-0.2154,-0.0728,0.2373,0.1188,-0.0304,-0.066,83,2019-08-07 17:05:32:914
0.3412,9.8635,0.9003,-0.2154,-0.0728,0.2373,0.1188,-0.0304,-0.066,88,2019-08-07 17:05:32:919
0.3842,9.8635,0.4761,-0.2154,-0.0728,0.2373,0.1241,-0.0379,-0.0724,93,2019-08-07 17:05:32:924
0.3842,9.8635,0.4761,-0.2154,-0.0728,0.2373,0.1241,-0.0379,-0.0724,97,2019-08-07 17:05:32:928
0.3842,9.8635,0.4761,-0.252,-0.146,0.2992,0.1124,0.0271,-0.0863,103,2019-08-07 17:05:32:934
0.3555,9.9304,0.7589,-0.252,-0.146,0.2992,0.1124,0.0271,-0.0863,108,2019-08-07 17:05:32:939
0.3555,9.9304,0.7589,-0.198,-0.0778,0.2727,0.1167,0.075,-0.082,114,2019-08-07 17:05:32:945
0.2551,9.8683,0.7259,-0.198,-0.0778,0.2727,0.1167,0.075,-0.082,118,2019-08-07 17:05:32:949
0.2551,9.8683,0.7259,-0.198,-0.0778,0.2727,0.1178,0.0804,-0.0852,123,2019-08-07 17:05:32:954
0.2551,9.8683,0.7259,-0.198,-0.0778,0.2727,0.1178,0.0804,-0.0852,128,2019-08-07 17:05:32:959
0.0206,9.9017,0.3206,0.1566,-0.1465,0.6941,0.1103,0.1049,-0.0873,133,2019-08-07 17:05:32:964
0.0206,9.9017,0.3206,0.1566,-0.1465,0.6941,0.1103,0.1049,-0.0873,138,2019-08-07 17:05:32:969
0.0206,9.9017,0.3206,0.1566,-0.1465,0.6941,0.0826,0.1315,-0.0863,143,2019-08-07 17:05:32:974
-0.1851,10.0115,0.528,0.1566,-0.1465,0.6941,0.0826,0.1315,-0.0863,147,2019-08-07 17:05:32:978
-0.1851,10.0115,0.528,0.3213,-0.3208,0.2678,0.0847,0.0836,-0.0767,153,2019-08-07 17:05:32:984
-0.2138,10.0879,0.6647,0.3213,-0.3208,0.2678,0.0847,0.0836,-0.0767,157,2019-08-07 17:05:32:988
-0.2138,10.0879,0.6647,0.3213,-0.3208,0.2678,0.0933,0.0079,-0.0745,163,2019-08-07 17:05:32:994
-0.2138,10.0879,0.6647,0.3213,-0.3208,0.2678,0.0933,0.0079,-0.0745,167,2019-08-07 17:05:32:998
-0.0463,10.0593,0.5845,0.0366,-0.2517,0.3836,0.1018,-0.023,-0.0682,173,2019-08-07 17:05:33:004
-0.0463,10.0593,0.5845,0.0366,-0.2517,0.3836,0.1018,-0.023,-0.0682,178,2019-08-07 17:05:33:009
0.3221,9.916,0.4761,0.0366,-0.2517,0.3836,0.1018,-0.023,-0.0682,183,2019-08-07 17:05:33:014
0.3221,9.916,0.4761,0.0366,-0.2517,0.3836,0.0922,-0.0081,-0.0713,188,2019-08-07 17:05:33:019
0.3221,9.916,0.4761,0.0366,-0.2517,0.3836,0.0922,-0.0081,-0.0713,193,2019-08-07 17:05:33:024
0.346,9.9208,0.2734,-0.2766,-0.154,0.6434,0.0751,0.0654,-0.0852,198,2019-08-07 17:05:33:029
0.346,9.9208,0.2734,-0.2766,-0.154,0.6434,0.0751,0.0654,-0.0852,203,2019-08-07 17:05:33:034
0.346,9.9208,0.2734,-0.2766,-0.154,0.6434,0.0751,0.0654,-0.0852,207,2019-08-07 17:05:33:038
0.2073,9.9399,0.4148,-0.2766,-0.154,0.6434,0.0506,0.1507,-0.0927,213,2019-08-07 17:05:33:044
0.2073,9.9399,0.4148,-0.0648,-0.1714,0.5887,0.0347,0.1709,-0.0937,218,2019-08-07 17:05:33:049
-0.0654,10.0067,0.2169,-0.0648,-0.1714,0.5887,0.0347,0.1709,-0.0937,222,2019-08-07 17:05:33:053
-0.0654,10.0067,0.2169,-0.0648,-0.1714,0.5887,0.0347,0.1709,-0.0937,228,2019-08-07 17:05:33:059
-0.3333,10.0545,0.5468,-0.0648,-0.1714,0.5887,0.0229,0.1912,-0.1012,233,2019-08-07 17:05:33:064
-0.3333,10.0545,0.5468,0.3654,-0.2563,0.1828,0.0229,0.1912,-0.1012,238,2019-08-07 17:05:33:069
-0.3333,10.0545,0.5468,0.3654,-0.2563,0.1828,0.0283,0.1432,-0.0873,243,2019-08-07 17:05:33:074
-0.142,9.8778,0.9145,0.3654,-0.2563,0.1828,0.0283,0.1432,-0.0873,248,2019-08-07 17:05:33:079
-0.142,9.8778,0.9145,0.3654,-0.2563,0.1828,0.0453,0.0527,-0.0863,252,2019-08-07 17:05:33:083
-0.142,9.8778,0.9145,0.0135,-0.1649,0.1333,0.0453,0.0527,-0.0863,258,2019-08-07 17:05:33:089
0.0398,9.9495,0.5421,0.0135,-0.1649,0.1333,0.056,0.0292,-0.0873,262,2019-08-07 17:05:33:093
0.0398,9.9495,0.5421,0.0135,-0.1649,0.1333,0.056,0.0292,-0.0873,268,2019-08-07 17:05:33:099
0.2073,10.0258,0.2734,0.0135,-0.1649,0.1333,0.0432,0.0942,-0.1022,273,2019-08-07 17:05:33:104
0.2073,10.0258,0.2734,-0.2007,-0.2735,0.4777,0.0432,0.0942,-0.1022,278,2019-08-07 17:05:33:109
0.2073,10.0258,0.2734,-0.2007,-0.2735,0.4777,0.0368,0.1368,-0.1044,283,2019-08-07 17:05:33:114
0.1786,10.0211,0.4478,-0.2007,-0.2735,0.4777,0.0368,0.1368,-0.1044,288,2019-08-07 17:05:33:119
0.1786,10.0211,0.4478,-0.2007,-0.2735,0.4777,0.0261,0.1443,-0.1086,292,2019-08-07 17:05:33:123
-0.0654,10.0163,0.429,-0.0407,-0.2583,0.4437,0.0261,0.1443,-0.1086,298,2019-08-07 17:05:33:129
-0.0654,10.0163,0.429,-0.0407,-0.2583,0.4437,0.0166,0.1528,-0.114,302,2019-08-07 17:05:33:133
-0.0654,10.0163,0.429,-0.0407,-0.2583,0.4437,0.0166,0.1528,-0.114,308,2019-08-07 17:05:33:139
-0.1276,10.1165,0.594,-0.0407,-0.2583,0.4437,0.0112,0.1347,-0.1012,313,2019-08-07 17:05:33:144
-0.1276,10.1165,0.594,0.0493,-0.4297,0.2489,0.0112,0.1347,-0.1012,318,2019-08-07 17:05:33:149
-0.0845,10.0163,0.3866,0.0493,-0.4297,0.2489,0.0016,0.1155,-0.098,323,2019-08-07 17:05:33:154
-0.0845,10.0163,0.3866,0.0493,-0.4297,0.2489,0.0016,0.1155,-0.098,329,2019-08-07 17:05:33:160
-0.0845,10.0163,0.3866,0.0493,-0.4297,0.2489,-0.0229,0.1581,-0.098,333,2019-08-07 17:05:33:164
-0.228,10.1261,0.066,0.1466,-0.3531,0.7814,-0.0229,0.1581,-0.098,337,2019-08-07 17:05:33:168
-0.228,10.1261,0.066,0.1466,-0.3531,0.7814,-0.0229,0.1581,-0.098,343,2019-08-07 17:05:33:174
-0.4338,10.1643,0.429,0.1466,-0.3531,0.7814,-0.0527,0.1954,-0.0905,347,2019-08-07 17:05:33:178
-0.4338,10.1643,0.429,0.1466,-0.3531,0.7814,-0.0527,0.1954,-0.0905,353,2019-08-07 17:05:33:184
-0.4338,10.1643,0.429,0.4537,-0.3443,0.2972,-0.0676,0.1581,-0.0713,357,2019-08-07 17:05:33:188
-0.6251,10.0831,0.5893,0.4537,-0.3443,0.2972,-0.0676,0.1581,-0.0713,363,2019-08-07 17:05:33:194
-0.6251,10.0831,0.5893,0.4537,-0.3443,0.2972,-0.0687,0.091,-0.0564,367,2019-08-07 17:05:33:198
-0.4768,10.0736,0.6835,0.4537,-0.3443,0.2972,-0.0687,0.091,-0.0564,373,2019-08-07 17:05:33:204
-0.4768,10.0736,0.6835,0.3123,-0.2882,0.1487,-0.0655,0.0186,-0.049,378,2019-08-07 17:05:33:209
-0.4768,10.0736,0.6835,0.3123,-0.2882,0.1487,-0.0655,0.0186,-0.049,383,2019-08-07 17:05:33:214
-0.161,9.8969,0.6223,0.3123,-0.2882,0.1487,-0.0655,0.0186,-0.049,388,2019-08-07 17:05:33:219
-0.161,9.8969,0.6223,0.3123,-0.2882,0.1487,-0.0484,-0.0166,-0.0351,393,2019-08-07 17:05:33:224
-0.161,9.8969,0.6223,-0.0596,-0.1841,0.4213,-0.0484,-0.0166,-0.0351,398,2019-08-07 17:05:33:229
-0.0701,10.0067,0.396,-0.0596,-0.1841,0.4213,-0.0506,0.0143,-0.0298,403,2019-08-07 17:05:33:234
-0.0701,10.0067,0.396,-0.0596,-0.1841,0.4213,-0.0538,0.0963,-0.0373,408,2019-08-07 17:05:33:239
-0.2328,9.9638,0.5421,-0.0596,-0.1841,0.4213,-0.0538,0.0963,-0.0373,413,2019-08-07 17:05:33:244
-0.2328,9.9638,0.5421,0.1807,-0.1801,0.1597,-0.0378,0.1315,-0.0447,418,2019-08-07 17:05:33:249
-0.2328,9.9638,0.5421,0.1807,-0.1801,0.1597,-0.0378,0.1315,-0.0447,423,2019-08-07 17:05:33:254
-0.3859,9.8301,1.2681,0.1807,-0.1801,0.1597,-0.0378,0.1315,-0.0447,428,2019-08-07 17:05:33:259
-0.3859,9.8301,1.2681,0.1807,-0.1801,0.1597,-0.0048,0.0282,-0.0341,433,2019-08-07 17:05:33:264
-0.1084,9.768,1.3011,-0.0397,6.0E-4,-0.4137,-0.0048,0.0282,-0.0341,438,2019-08-07 17:05:33:269
-0.1084,9.768,1.3011,-0.0397,6.0E-4,-0.4137,0.0325,-0.121,-0.0362,443,2019-08-07 17:05:33:274
-0.1084,9.768,1.3011,-0.0397,6.0E-4,-0.4137,0.0325,-0.121,-0.0362,447,2019-08-07 17:05:33:278
0.1021,9.9542,0.693,-0.0397,6.0E-4,-0.4137,0.0389,-0.0858,-0.0458,453,2019-08-07 17:05:33:284
0.1021,9.9542,0.693,-0.355,-0.2852,0.2861,0.0389,-0.0858,-0.0458,457,2019-08-07 17:05:33:288
0.2792,10.0163,0.5751,-0.355,-0.2852,0.2861,0.0315,-0.0038,-0.0522,463,2019-08-07 17:05:33:294
0.2792,10.0163,0.5751,-0.355,-0.2852,0.2861,0.0315,-0.0038,-0.0522,468,2019-08-07 17:05:33:299
0.2792,10.0163,0.5751,-0.355,-0.2852,0.2861,0.0315,-0.0038,-0.0522,473,2019-08-07 17:05:33:304
0.0447,9.7728,0.5374,-0.0955,0.0496,0.3006,0.0357,0.0495,-0.0596,478,2019-08-07 17:05:33:309
0.0447,9.7728,0.5374,-0.0955,0.0496,0.3006,0.0357,0.0495,-0.0596,482,2019-08-07 17:05:33:313
-0.1131,9.6487,0.5657,-0.0955,0.0496,0.3006,0.0357,0.025,-0.0586,488,2019-08-07 17:05:33:319
-0.1131,9.6487,0.5657,-0.0955,0.0496,0.3006,0.0357,0.025,-0.0586,492,2019-08-07 17:05:33:323
-0.1131,9.6487,0.5657,-0.0731,0.2699,0.1114,0.0474,-0.0251,-0.0586,498,2019-08-07 17:05:33:329
-0.1179,9.5341,0.7307,-0.0731,0.2699,0.1114,0.0474,-0.0251,-0.0586,502,2019-08-07 17:05:33:333
-0.1179,9.5341,0.7307,-0.0731,0.2699,0.1114,0.073,-0.1071,-0.0437,508,2019-08-07 17:05:33:339
-0.1179,9.5341,0.7307,-0.0731,0.2699,0.1114,0.073,-0.1071,-0.0437,512,2019-08-07 17:05:33:343
0.0878,9.7442,0.528,-0.2753,-0.0726,0.3652,0.0656,-0.0943,-0.0437,518,2019-08-07 17:05:33:349
0.0878,9.7442,0.528,-0.2753,-0.0726,0.3652,0.0656,-0.0943,-0.0437,522,2019-08-07 17:05:33:353
0.0065,9.9494,0.5233,-0.2753,-0.0726,0.3652,0.0624,-0.0176,-0.0554,528,2019-08-07 17:05:33:359
0.0065,9.9494,0.5233,-0.2753,-0.0726,0.3652,0.0624,-0.0176,-0.0554,533,2019-08-07 17:05:33:364
-0.2088,10.0354,0.7307,0.0216,-0.2624,0.1006,0.0688,0.0378,-0.0575,538,2019-08-07 17:05:33:369
-0.2088,10.0354,0.7307,0.0216,-0.2624,0.1006,0.0688,0.0378,-0.0575,542,2019-08-07 17:05:33:373
-0.2088,10.0354,0.7307,0.0216,-0.2624,0.1006,0.0837,0.0569,-0.0596,548,2019-08-07 17:05:33:379
-0.4624,9.9256,0.8721,0.0216,-0.2624,0.1006,0.0837,0.0569,-0.0596,552,2019-08-07 17:05:33:383
-0.4624,9.9256,0.8721,0.2934,-0.1324,-0.143,0.1007,0.0399,-0.0713,558,2019-08-07 17:05:33:389
-0.4624,9.9256,0.8721,0.2934,-0.1324,-0.143,0.1007,0.0399,-0.0713,562,2019-08-07 17:05:33:393
-0.4002,9.959,0.9051,0.2934,-0.1324,-0.143,0.1007,0.0399,-0.0713,568,2019-08-07 17:05:33:399
-0.4002,9.959,0.9051,0.2934,-0.1324,-0.143,0.1188,0.009,-0.0735,572,2019-08-07 17:05:33:403
-0.0796,10.1499,0.8627,0.2934,-0.1324,-0.143,0.1188,0.009,-0.0735,578,2019-08-07 17:05:33:409
-0.0796,10.1499,0.8627,-0.1571,-0.4555,-0.0104,0.1518,-0.0112,-0.0799,583,2019-08-07 17:05:33:414
-0.0796,10.1499,0.8627,-0.1571,-0.4555,-0.0104,0.1518,-0.0112,-0.0799,587,2019-08-07 17:05:33:418
-0.027,10.3695,0.6506,-0.1571,-0.4555,-0.0104,0.1934,0.0164,-0.082,593,2019-08-07 17:05:33:424
-0.027,10.3695,0.6506,-0.1571,-0.4555,-0.0104,0.1934,0.0164,-0.082,598,2019-08-07 17:05:33:429
0.0113,10.021,0.5799,-0.2249,-0.3097,0.1697,0.2136,0.0761,-0.0937,602,2019-08-07 17:05:33:433
0.0113,10.021,0.5799,-0.2249,-0.3097,0.1697,0.2136,0.0761,-0.0937,608,2019-08-07 17:05:33:439
0.0113,10.021,0.5799,-0.2249,-0.3097,0.1697,0.2349,0.107,-0.1012,612,2019-08-07 17:05:33:443
-0.1179,10.0783,0.8438,-0.2249,-0.3097,0.1697,0.2349,0.107,-0.1012,618,2019-08-07 17:05:33:449
-0.1179,10.0783,0.8438,-0.1249,-0.154,-0.2388,0.2349,0.107,-0.1012,623,2019-08-07 17:05:33:454
-0.0939,9.7442,0.9947,-0.1249,-0.154,-0.2388,0.2861,0.0527,-0.1044,628,2019-08-07 17:05:33:459
-0.0939,9.7442,0.9947,-0.1249,-0.154,-0.2388,0.2861,0.0527,-0.1044,632,2019-08-07 17:05:33:463
-0.0939,9.7442,0.9947,-0.1249,-0.154,-0.2388,0.3106,0.0079,-0.1108,638,2019-08-07 17:05:33:469
-0.0557,10.1404,0.8014,-0.2168,-0.3559,-0.1494,0.3106,0.0079,-0.1108,642,2019-08-07 17:05:33:473
-0.0557,10.1404,0.8014,-0.2168,-0.3559,-0.1494,0.3202,0.0335,-0.1129,648,2019-08-07 17:05:33:479
-0.0317,10.3982,0.8061,-0.2168,-0.3559,-0.1494,0.3202,0.0335,-0.1129,652,2019-08-07 17:05:33:483
-0.0317,10.3982,0.8061,-0.2168,-0.3559,-0.1494,0.3244,0.0793,-0.1267,658,2019-08-07 17:05:33:489
-0.0317,10.3982,0.8061,-0.1961,-1.0591,-0.4615,0.3244,0.0793,-0.1267,663,2019-08-07 17:05:33:494
-0.1705,11.0617,1.4142,-0.1961,-1.0591,-0.4615,0.3809,-6.0E-4,-0.1097,668,2019-08-07 17:05:33:499
-0.1705,11.0617,1.4142,-0.1961,-1.0591,-0.4615,0.3809,-6.0E-4,-0.1097,673,2019-08-07 17:05:33:504
-0.2853,10.9615,1.1125,-0.1961,-1.0591,-0.4615,0.4895,-0.1732,-0.0841,679,2019-08-07 17:05:33:510
-0.2853,10.9615,1.1125,0.0185,-1.1319,-0.4604,0.4895,-0.1732,-0.0841,682,2019-08-07 17:05:33:513
-0.2853,10.9615,1.1125,0.0185,-1.1319,-0.4604,0.4895,-0.1732,-0.0841,688,2019-08-07 17:05:33:519
-0.3762,10.9328,0.594,0.0185,-1.1319,-0.4604,0.5897,-0.2786,-0.0852,692,2019-08-07 17:05:33:523
-0.3762,10.9328,0.594,0.0185,-1.1319,-0.4604,0.5897,-0.2786,-0.0852,698,2019-08-07 17:05:33:529
-0.2518,10.5605,0.759,-0.0201,-0.8646,-0.2565,0.6397,-0.3244,-0.1065,703,2019-08-07 17:05:33:534
-0.2518,10.5605,0.759,-0.0201,-0.8646,-0.2565,0.6397,-0.3244,-0.1065,708,2019-08-07 17:05:33:539
-0.2518,10.5605,0.759,-0.0201,-0.8646,-0.2565,0.7005,-0.4352,-0.1491,712,2019-08-07 17:05:33:543
-0.29,10.6034,1.5085,-0.0201,-0.8646,-0.2565,0.7005,-0.4352,-0.1491,718,2019-08-07 17:05:33:549
-0.29,10.6034,1.5085,-0.1688,-0.7464,-1.4979,0.8315,-0.7133,-0.1438,722,2019-08-07 17:05:33:553
0.0401,10.7132,1.829,-0.1688,-0.7464,-1.4979,0.8315,-0.7133,-0.1438,728,2019-08-07 17:05:33:559
0.0401,10.7132,1.829,-0.1688,-0.7464,-1.4979,0.8315,-0.7133,-0.1438,732,2019-08-07 17:05:33:563
0.0401,10.7132,1.829,-0.1688,-0.7464,-1.4979,0.9657,-0.9998,-0.0969,738,2019-08-07 17:05:33:569
0.8008,10.3648,-0.1178,-1.1692,-0.5623,0.2249,0.9657,-0.9998,-0.0969,742,2019-08-07 17:05:33:573
0.8008,10.3648,-0.1178,-1.1692,-0.5623,0.2249,1.0669,-1.0339,-0.1108,748,2019-08-07 17:05:33:579
0.8008,10.3648,-0.1178,-1.1692,-0.5623,0.2249,1.0669,-1.0339,-0.1108,753,2019-08-07 17:05:33:584
0.9826,11.0856,-1.4895,-1.1692,-0.5623,0.2249,1.1905,-0.8006,-0.2652,757,2019-08-07 17:05:33:588
0.9826,11.0856,-1.4895,-0.915,-2.2009,1.3793,1.1905,-0.8006,-0.2652,763,2019-08-07 17:05:33:594
0.3559,12.174,-1.5036,-0.915,-2.2009,1.3793,1.2874,-0.7175,-0.3036,768,2019-08-07 17:05:33:599
0.3559,12.174,-1.5036,-0.915,-2.2009,1.3793,1.2874,-0.7175,-0.3036,773,2019-08-07 17:05:33:604
0.3559,12.174,-1.5036,-0.915,-2.2009,1.3793,1.5047,-0.643,-0.3121,778,2019-08-07 17:05:33:609
-0.1034,12.1693,-1.7959,-0.2915,-2.3924,1.5566,1.5047,-0.643,-0.3121,783,2019-08-07 17:05:33:614
-0.1034,12.1693,-1.7959,-0.2915,-2.3924,1.5566,1.5047,-0.643,-0.3121,788,2019-08-07 17:05:33:619
-0.6536,12.5559,-2.4464,-0.2915,-2.3924,1.5566,1.721,-0.6834,-0.3622,792,2019-08-07 17:05:33:623
-0.6536,12.5559,-2.4464,-0.2915,-2.3924,1.5566,1.721,-0.6834,-0.3622,798,2019-08-07 17:05:33:629
-0.6536,12.5559,-2.4464,0.6751,-3.8873,1.6468,1.8872,-0.7527,-0.4026,803,2019-08-07 17:05:33:634
-1.2469,13.8783,-2.3238,0.6751,-3.8873,1.6468,1.8872,-0.7527,-0.4026,807,2019-08-07 17:05:33:638
-1.2469,13.8783,-2.3238,0.6751,-3.8873,1.6468,2.0363,-0.7846,-0.4463,813,2019-08-07 17:05:33:644
-1.2612,14.6469,-1.5885,0.6751,-3.8873,1.6468,2.0363,-0.7846,-0.4463,817,2019-08-07 17:05:33:648
-1.2612,14.6469,-1.5885,0.7134,-5.2648,-0.0689,2.2802,-0.6941,-0.5933,823,2019-08-07 17:05:33:654
-1.2612,14.6469,-1.5885,0.7134,-5.2648,-0.0689,2.2802,-0.6941,-0.5933,828,2019-08-07 17:05:33:659
-1.553,15.4393,-0.8767,0.7134,-5.2648,-0.0689,2.5125,-0.6291,-0.6796,833,2019-08-07 17:05:33:664
-1.553,15.4393,-0.8767,0.7134,-5.2648,-0.0689,2.5125,-0.6291,-0.6796,838,2019-08-07 17:05:33:669
-1.5052,15.826,-1.5083,0.7056,-6.1838,-0.1119,2.7181,-0.5833,-0.7766,843,2019-08-07 17:05:33:674
-1.5052,15.826,-1.5083,0.7056,-6.1838,-0.1119,2.7181,-0.5833,-0.7766,848,2019-08-07 17:05:33:679
-1.5052,15.826,-1.5083,0.7056,-6.1838,-0.1119,2.8768,-0.5396,-0.8831,853,2019-08-07 17:05:33:684
-1.6726,17.2534,-1.2208,0.7056,-6.1838,-0.1119,2.8768,-0.5396,-0.8831,858,2019-08-07 17:05:33:689
-1.6726,17.2534,-1.2208,0.6689,-8.4221,-1.1624,3.0611,-0.481,-0.9821,862,2019-08-07 17:05:33:693
-1.6487,18.0076,-1.0888,0.6689,-8.4221,-1.1624,3.0611,-0.481,-0.9821,868,2019-08-07 17:05:33:699
-1.6487,18.0076,-1.0888,0.6689,-8.4221,-1.1624,3.0611,-0.481,-0.9821,872,2019-08-07 17:05:33:703
-1.6487,18.0076,-1.0888,0.6689,-8.4221,-1.1624,3.2454,-0.481,-1.0855,879,2019-08-07 17:05:33:710
-1.8353,18.2893,-1.711,0.6689,-8.4221,-1.1624,3.2454,-0.481,-1.0855,882,2019-08-07 17:05:33:713
-1.8353,18.2893,-1.711,0.5612,-9.0558,-0.8714,3.3572,-0.5162,-1.1547,888,2019-08-07 17:05:33:719
-1.8353,18.2893,-1.711,0.5612,-9.0558,-0.8714,3.3572,-0.5162,-1.1547,892,2019-08-07 17:05:33:723
-1.6056,18.9815,-1.9656,0.5612,-9.0558,-0.8714,3.3839,-0.4959,-1.2218,898,2019-08-07 17:05:33:729
-1.6056,18.9815,-1.9656,0.5612,-9.0558,-0.8714,3.3839,-0.4959,-1.2218,902,2019-08-07 17:05:33:733
-1.8448,19.6641,-1.9561,0.2999,-10.3566,-1.4326,3.4105,-0.3766,-1.224,908,2019-08-07 17:05:33:739
-1.8448,19.6641,-1.9561,0.2999,-10.3566,-1.4326,3.4105,-0.3766,-1.224,913,2019-08-07 17:05:33:744
-1.8448,19.6641,-1.9561,0.2999,-10.3566,-1.4326,3.3913,-0.3425,-1.2016,918,2019-08-07 17:05:33:749
-2.1749,20.3134,-1.8289,0.5941,-11.578,-2.0983,3.3913,-0.3425,-1.2016,923,2019-08-07 17:05:33:754
-2.1749,20.3134,-1.8289,0.5941,-11.578,-2.0983,3.3892,-0.3543,-1.1494,928,2019-08-07 17:05:33:759
-2.1749,20.3134,-1.8289,0.5941,-11.578,-2.0983,3.3892,-0.3543,-1.1494,932,2019-08-07 17:05:33:763
-2.2945,20.5425,-2.3427,0.5941,-11.578,-2.0983,3.3892,-0.3543,-1.1494,938,2019-08-07 17:05:33:769
-2.2945,20.5425,-2.3427,0.5941,-11.578,-2.0983,3.2954,-0.3734,-1.0461,942,2019-08-07 17:05:33:773
-1.6343,20.1511,-3.2713,-0.1506,-11.8013,-1.4336,3.2954,-0.3734,-1.0461,948,2019-08-07 17:05:33:779
-1.6343,20.1511,-3.2713,-0.1506,-11.8013,-1.4336,3.1708,-0.154,-0.9534,952,2019-08-07 17:05:33:783
-0.8162,18.7953,-3.9265,-0.1506,-11.8013,-1.4336,3.1708,-0.154,-0.9534,958,2019-08-07 17:05:33:789
-0.8162,18.7953,-3.9265,-0.1506,-11.8013,-1.4336,2.9876,0.2849,-0.8458,963,2019-08-07 17:05:33:794
-0.8162,18.7953,-3.9265,-1.2533,-10.2457,-1.2785,2.9876,0.2849,-0.8458,968,2019-08-07 17:05:33:799
-0.8162,18.7953,-3.9265,-1.2533,-10.2457,-1.2785,2.9876,0.2849,-0.8458,973,2019-08-07 17:05:33:804
-1.2085,17.9408,-3.4693,-1.2533,-10.2457,-1.2785,2.6936,0.9912,-0.7307,978,2019-08-07 17:05:33:809
-1.2085,17.9408,-3.4693,-0.606,-8.9685,-2.7916,2.6936,0.9912,-0.7307,983,2019-08-07 17:05:33:814
-1.5434,16.7187,-2.5124,-0.606,-8.9685,-2.7916,2.3878,1.3949,-0.5731,987,2019-08-07 17:05:33:818
-1.5434,16.7187,-2.5124,-0.606,-8.9685,-2.7916,2.3878,1.3949,-0.5731,992,2019-08-07 17:05:33:823
-1.5434,16.7187,-2.5124,-0.2823,-8.438,-3.4077,2.0959,1.4109,-0.4261,998,2019-08-07 17:05:33:829
-1.7969,15.9071,-2.0928,-0.2823,-8.438,-3.4077,2.0959,1.4109,-0.4261,1003,2019-08-07 17:05:33:834
-1.7969,15.9071,-2.0928,-0.2823,-8.438,-3.4077,1.623,1.4151,-0.2588,1007,2019-08-07 17:05:33:838
-1.8113,14.9715,-1.7393,-0.2823,-8.438,-3.4077,1.623,1.4151,-0.2588,1013,2019-08-07 17:05:33:844
-1.8113,14.9715,-1.7393,-0.0119,-7.3301,-4.5846,1.1788,1.3416,-0.1534,1018,2019-08-07 17:05:33:849
-1.8113,14.9715,-1.7393,-0.0119,-7.3301,-4.5846,1.1788,1.3416,-0.1534,1023,2019-08-07 17:05:33:854
-1.8974,14.7041,0.2971,-0.0119,-7.3301,-4.5846,0.7495,1.1105,-0.0436,1028,2019-08-07 17:05:33:859
-1.8974,14.7041,0.2971,-0.0119,-7.3301,-4.5846,0.7495,1.1105,-0.0436,1033,2019-08-07 17:05:33:864
-1.7826,14.1122,0.1887,0.0364,-6.7639,-6.4784,0.2914,0.8133,0.0682,1037,2019-08-07 17:05:33:868
-1.7826,14.1122,0.1887,0.0364,-6.7639,-6.4784,0.2914,0.8133,0.0682,1043,2019-08-07 17:05:33:874
-1.7826,14.1122,0.1887,0.0364,-6.7639,-6.4784,-0.303,0.6258,0.1715,1048,2019-08-07 17:05:33:879
-1.8161,13.1861,-0.0282,0.0364,-6.7639,-6.4784,-0.303,0.6258,0.1715,1052,2019-08-07 17:05:33:883
-1.8161,13.1861,-0.0282,0.0776,-5.3378,-6.7106,-0.9976,0.6535,0.2791,1058,2019-08-07 17:05:33:889
-1.8161,13.1861,-0.0282,0.0776,-5.3378,-6.7106,-0.9976,0.6535,0.2791,1062,2019-08-07 17:05:33:893
-1.6681,12.6658,1.5179,0.0776,-5.3378,-6.7106,-1.7006,0.597,0.3974,1068,2019-08-07 17:05:33:899
-1.6681,12.6658,1.5179,0.0776,-5.3378,-6.7106,-1.7006,0.597,0.3974,1072,2019-08-07 17:05:33:903
-1.5341,12.618,2.3051,-9.0E-4,-4.866,-8.1176,-1.7006,0.597,0.3974,1078,2019-08-07 17:05:33:909
-1.5341,12.618,2.3051,-9.0E-4,-4.866,-8.1176,-2.4165,0.3627,0.5114,1083,2019-08-07 17:05:33:914
-1.5341,12.618,2.3051,-9.0E-4,-4.866,-8.1176,-2.4165,0.3627,0.5114,1087,2019-08-07 17:05:33:918
-1.7111,13.2911,2.0647,-9.0E-4,-4.866,-8.1176,-3.3742,0.1773,0.6605,1093,2019-08-07 17:05:33:924
-1.7111,13.2911,2.0647,0.2223,-5.6554,-7.5293,-3.3742,0.1773,0.6605,1097,2019-08-07 17:05:33:928
-1.4958,13.926,2.3051,0.2223,-5.6554,-7.5293,-4.1018,0.0495,0.7798,1102,2019-08-07 17:05:33:933
-1.4958,13.926,2.3051,0.2223,-5.6554,-7.5293,-4.1018,0.0495,0.7798,1108,2019-08-07 17:05:33:939
-1.4958,13.926,2.3051,0.2223,-5.6554,-7.5293,-4.7622,-0.1529,0.8746,1112,2019-08-07 17:05:33:943
-1.7638,14.2793,2.1212,0.5536,-5.7517,-6.587,-4.7622,-0.1529,0.8746,1118,2019-08-07 17:05:33:949
-1.7638,14.2793,2.1212,0.5536,-5.7517,-6.587,-5.3982,-0.2754,0.9907,1122,2019-08-07 17:05:33:953
-1.7781,14.3796,1.9845,0.5536,-5.7517,-6.587,-5.3982,-0.2754,0.9907,1128,2019-08-07 17:05:33:959
-1.7781,14.3796,1.9845,0.5536,-5.7517,-6.587,-6.0341,-0.3649,1.1175,1133,2019-08-07 17:05:33:964
-1.7781,14.3796,1.9845,0.2549,-5.0128,-6.2004,-6.0341,-0.3649,1.1175,1137,2019-08-07 17:05:33:968
-1.137,13.9404,3.3563,0.2549,-5.0128,-6.2004,-6.0341,-0.3649,1.1175,1143,2019-08-07 17:05:33:974
-1.137,13.9404,3.3563,0.2549,-5.0128,-6.2004,-6.767,-0.5471,1.2368,1148,2019-08-07 17:05:33:979
-1.137,13.9404,3.3563,0.2549,-5.0128,-6.2004,-6.767,-0.5471,1.2368,1153,2019-08-07 17:05:33:984
-0.2041,12.8806,5.6425,-0.8729,-3.0634,-8.2501,-7.4467,-0.7963,1.3646,1158,2019-08-07 17:05:33:989
-0.2041,12.8806,5.6425,-0.8729,-3.0634,-8.2501,-7.4467,-0.7963,1.3646,1162,2019-08-07 17:05:33:993
0.4035,12.0929,7.6694,-0.8729,-3.0634,-8.2501,-8.0102,-0.8134,1.4807,1168,2019-08-07 17:05:33:999
0.4035,12.0929,7.6694,-0.8729,-3.0634,-8.2501,-8.0102,-0.8134,1.4807,1173,2019-08-07 17:05:34:004
0.4035,12.0929,7.6694,-0.8729,-3.0634,-8.2501,-8.0102,-0.8134,1.4807,1177,2019-08-07 17:05:34:008
0.9537,11.8447,10.8701,-1.5889,-2.0676,-11.361,-8.6398,-0.6685,1.6288,1183,2019-08-07 17:05:34:014
0.9537,11.8447,10.8701,-1.5889,-2.0676,-11.361,-8.6398,-0.6685,1.6288,1187,2019-08-07 17:05:34:018
1.4513,12.0977,13.5947,-1.5889,-2.0676,-11.361,-9.5548,-0.3756,1.7183,1193,2019-08-07 17:05:34:024
1.4513,12.0977,13.5947,-1.6717,-2.527,-13.0218,-9.5548,-0.3756,1.7183,1198,2019-08-07 17:05:34:029
1.4513,12.0977,13.5947,-1.6717,-2.527,-13.0218,-10.1301,-0.1551,1.8025,1202,2019-08-07 17:05:34:033
0.6427,12.6657,14.5704,-1.6717,-2.527,-13.0218,-10.1301,-0.1551,1.8025,1208,2019-08-07 17:05:34:039
0.6427,12.6657,14.5704,-1.6717,-2.527,-13.0218,-11.0515,-0.1785,1.9559,1212,2019-08-07 17:05:34:043
-0.8452,13.8258,13.128,-1.6717,-2.527,-13.0218,-11.0515,-0.1785,1.9559,1218,2019-08-07 17:05:34:049
-0.8452,13.8258,13.128,1.3353,-5.1694,-8.9232,-11.0515,-0.1785,1.9559,1222,2019-08-07 17:05:34:053
-0.8452,13.8258,13.128,1.3353,-5.1694,-8.9232,-11.8643,-0.5364,2.0624,1228,2019-08-07 17:05:34:059
-2.5627,15.3104,7.9899,1.3353,-5.1694,-8.9232,-12.5003,-0.9348,2.269,1233,2019-08-07 17:05:34:064
-2.5627,15.3104,7.9899,1.3353,-5.1694,-8.9232,-12.5003,-0.9348,2.269,1238,2019-08-07 17:05:34:069
-2.5627,15.3104,7.9899,4.0971,-8.4302,0.8559,-12.5003,-0.9348,2.269,1243,2019-08-07 17:05:34:074
-4.0267,17.6544,2.6822,4.0971,-8.4302,0.8559,-13.2375,-1.2022,2.4384,1248,2019-08-07 17:05:34:079
-4.0267,17.6544,2.6822,4.0971,-8.4302,0.8559,-13.2375,-1.2022,2.4384,1253,2019-08-07 17:05:34:084
-4.0267,17.6544,2.6822,4.0971,-8.4302,0.8559,-13.9192,-1.5506,2.5449,1258,2019-08-07 17:05:34:089
-4.2372,26.3189,-3.1299,5.2644,-20.1117,10.6567,-13.9192,-1.5506,2.5449,1263,2019-08-07 17:05:34:094
-4.2372,26.3189,-3.1299,5.2644,-20.1117,10.6567,-13.9789,-1.8083,2.6664,1268,2019-08-07 17:05:34:099
-4.2372,26.3189,-3.1299,5.2644,-20.1117,10.6567,-13.9789,-1.8083,2.6664,1273,2019-08-07 17:05:34:104
-1.5437,46.7031,-6.4862,5.2644,-20.1117,10.6567,-13.3323,-1.7753,2.8347,1278,2019-08-07 17:05:34:109
-1.5437,46.7031,-6.4862,1.111,-52.5736,14.605,-13.3323,-1.7753,2.8347,1283,2019-08-07 17:05:34:114
2.4368,67.2639,-10.3845,1.111,-52.5736,14.605,-13.3323,-1.7753,2.8347,1288,2019-08-07 17:05:34:119
2.4368,67.2639,-10.3845,1.111,-52.5736,14.605,-10.7575,-0.1849,2.3958,1293,2019-08-07 17:05:34:124
2.4368,67.2639,-10.3845,1.111,-52.5736,14.605,-10.7575,-0.1849,2.3958,1298,2019-08-07 17:05:34:129
7.7043,55.148,-30.0741,-5.9293,-53.3197,39.5473,-8.1828,2.7425,1.4754,1303,2019-08-07 17:05:34:134
7.7043,55.148,-30.0741,-5.9293,-53.3197,39.5473,-8.1828,2.7425,1.4754,1308,2019-08-07 17:05:34:139
7.7043,55.148,-30.0741,-5.9293,-53.3197,39.5473,-7.0919,6.3526,0.6349,1312,2019-08-07 17:05:34:143
5.8336,31.4651,-62.604,-5.9293,-53.3197,39.5473,-7.0919,6.3526,0.6349,1318,2019-08-07 17:05:34:149
5.8336,31.4651,-62.604,-3.4795,-23.0459,77.3504,-7.5404,9.1692,0.4698,1323,2019-08-07 17:05:34:154
5.8336,31.4651,-62.604,-3.4795,-23.0459,77.3504,-7.5404,9.1692,0.4698,1327,2019-08-07 17:05:34:158
-3.687,15.6255,-66.6673,-3.4795,-23.0459,77.3504,-8.349,9.2928,0.7862,1333,2019-08-07 17:05:34:164
-3.687,15.6255,-66.6673,-3.4795,-23.0459,77.3504,-8.349,9.2928,0.7862,1338,2019-08-07 17:05:34:169
-17.2934,-8.3056,-46.002,15.6353,2.5861,61.5831,-8.349,9.2928,0.7862,1343,2019-08-07 17:05:34:174
-17.2934,-8.3056,-46.002,15.6353,2.5861,61.5831,-8.5002,7.8419,1.0142,1348,2019-08-07 17:05:34:179
-17.2934,-8.3056,-46.002,15.6353,2.5861,61.5831,-8.5002,7.8419,1.0142,1353,2019-08-07 17:05:34:184
-5.8877,-26.0833,-3.8323,15.6353,2.5861,61.5831,-6.3463,3.0919,0.5231,1358,2019-08-07 17:05:34:189
-5.8877,-26.0833,-3.8323,-8.5326,27.0635,-19.7272,-6.3463,3.0919,0.5231,1363,2019-08-07 17:05:34:194
-0.8117,-25.6823,36.2964,-8.5326,27.0635,-19.7272,0.7569,-6.8193,-1.0386,1367,2019-08-07 17:05:34:198
-0.8117,-25.6823,36.2964,-8.5326,27.0635,-19.7272,0.7569,-6.8193,-1.0386,1373,2019-08-07 17:05:34:204
-0.8117,-25.6823,36.2964,-8.5326,27.0635,-19.7272,11.6652,-12.2213,-2.7015,1378,2019-08-07 17:05:34:209
-7.7249,-16.6503,-22.5037,6.9789,14.7891,32.1066,11.6652,-12.2213,-2.7015,1383,2019-08-07 17:05:34:214
-7.7249,-16.6503,-22.5037,6.9789,14.7891,32.1066,15.3297,-11.9848,-3.0733,1388,2019-08-07 17:05:34:219
-7.7249,-16.6503,-22.5037,6.9789,14.7891,32.1066,15.3297,-11.9848,-3.0733,1393,2019-08-07 17:05:34:224
-12.4326,7.2761,-40.5151,6.9789,14.7891,32.1066,15.3297,-11.9848,-3.0733,1398,2019-08-07 17:05:34:229
-12.4326,7.2761,-40.5151,30.2548,-75.3852,63.7457,14.4147,-9.7627,-1.9451,1403,2019-08-07 17:05:34:234
-12.4326,7.2761,-40.5151,30.2548,-75.3852,63.7457,14.4147,-9.7627,-1.9451,1408,2019-08-07 17:05:34:239
1.9776,24.2948,-55.9246,30.2548,-75.3852,63.7457,2.3729,-7.4489,0.5572,1413,2019-08-07 17:05:34:244
1.9776,24.2948,-55.9246,30.2548,-75.3852,63.7457,2.3729,-7.4489,0.5572,1418,2019-08-07 17:05:34:249
31.4437,13.7733,-27.0431,-28.5254,-11.8985,36.2194,6.6382,10.9141,-3.1084,1423,2019-08-07 17:05:34:254
31.4437,13.7733,-27.0431,-28.5254,-11.8985,36.2194,6.6382,10.9141,-3.1084,1428,2019-08-07 17:05:34:259
31.4437,13.7733,-27.0431,-28.5254,-11.8985,36.2194,6.6382,10.9141,-3.1084,1433,2019-08-07 17:05:34:264
12.6225,24.3521,-0.9521,-10.8078,-21.7035,10.2219,9.4846,13.1927,-4.0608,1437,2019-08-07 17:05:34:268
12.6225,24.3521,-0.9521,-10.8078,-21.7035,10.2219,9.4846,13.1927,-4.0608,1443,2019-08-07 17:05:34:274
-2.4622,16.4036,3.559,-10.8078,-21.7035,10.2219,4.7751,4.0527,-1.453,1448,2019-08-07 17:05:34:279
-2.4622,16.4036,3.559,9.3084,-10.626,13.1173,4.7751,4.0527,-1.453,1453,2019-08-07 17:05:34:284
-10.8346,22.939,-3.6249,9.3084,-10.626,13.1173,8.2532,6.0384,-1.175,1458,2019-08-07 17:05:34:289
-10.8346,22.939,-3.6249,9.3084,-10.626,13.1173,8.2532,6.0384,-1.175,1463,2019-08-07 17:05:34:294
-10.8346,22.939,-3.6249,9.3084,-10.626,13.1173,6.9994,2.0426,-0.4857,1468,2019-08-07 17:05:34:299
-4.706,17.7546,5.798,4.0867,-12.3924,2.3934,6.9994,2.0426,-0.4857,1473,2019-08-07 17:05:34:304
-4.706,17.7546,5.798,4.0867,-12.3924,2.3934,7.4351,-0.7878,-0.4932,1477,2019-08-07 17:05:34:308
-4.706,17.7546,5.798,4.0867,-12.3924,2.3934,7.4351,-0.7878,-0.4932,1483,2019-08-07 17:05:34:314
-4.5625,18.5041,4.2566,4.0867,-12.3924,2.3934,7.4351,-0.7878,-0.4932,1488,2019-08-07 17:05:34:319
-4.5625,18.5041,4.2566,3.4366,-10.8695,13.4054,8.2787,-1.5016,-0.5635,1493,2019-08-07 17:05:34:324
-2.3809,15.9406,-8.9138,3.4366,-10.8695,13.4054,8.2787,-1.5016,-0.5635,1498,2019-08-07 17:05:34:329
-2.3809,15.9406,-8.9138,1.3283,-9.1544,14.618,7.6556,-0.5716,-0.6285,1503,2019-08-07 17:05:34:334
-2.3809,15.9406,-8.9138,1.3283,-9.1544,14.618,7.6556,-0.5716,-0.6285,1508,2019-08-07 17:05:34:339
-3.0985,17.9981,-1.7299,1.3283,-9.1544,14.618,7.3829,0.483,-0.67,1513,2019-08-07 17:05:34:344
-3.0985,17.9981,-1.7299,1.3283,-9.1544,14.618,7.3829,0.483,-0.67,1518,2019-08-07 17:05:34:349
-3.62,15.7114,5.1852,2.9579,-7.5899,0.2771,7.369,-0.0933,-0.6029,1522,2019-08-07 17:05:34:353
-3.62,15.7114,5.1852,2.9579,-7.5899,0.2771,7.369,-0.0933,-0.6029,1528,2019-08-07 17:05:34:359
-3.62,15.7114,5.1852,2.9579,-7.5899,0.2771,7.613,-1.4962,-0.6498,1533,2019-08-07 17:05:34:364
-4.1463,15.1911,4.0963,2.9579,-7.5899,0.2771,7.613,-1.4962,-0.6498,1538,2019-08-07 17:05:34:369
-4.1463,15.1911,4.0963,2.9579,-7.5899,0.2771,7.613,-1.4962,-0.6498,1542,2019-08-07 17:05:34:373
-4.1463,15.1911,4.0963,2.3574,-6.2167,3.0788,7.6193,-2.3367,-0.7052,1548,2019-08-07 17:05:34:379
-1.8498,15.2675,-1.7865,2.3574,-6.2167,3.0788,7.6193,-2.3367,-0.7052,1553,2019-08-07 17:05:34:384
-1.8498,15.2675,-1.7865,2.3574,-6.2167,3.0788,7.0047,-1.4526,-0.8884,1558,2019-08-07 17:05:34:389
-1.8498,15.2675,-1.7865,2.3574,-6.2167,3.0788,7.0047,-1.4526,-0.8884,1562,2019-08-07 17:05:34:393
1.614,16.0265,-5.3784,-2.308,-6.652,8.1844,6.3677,0.0793,-1.0695,1567,2019-08-07 17:05:34:398
1.614,16.0265,-5.3784,-2.308,-6.652,8.1844,6.3677,0.0793,-1.0695,1573,2019-08-07 17:05:34:404
0.9825,16.2413,-0.2969,-2.308,-6.652,8.1844,5.8606,1.4535,-1.1462,1577,2019-08-07 17:05:34:408
0.9825,16.2413,-0.2969,-0.787,-6.5984,-1.1287,5.8606,1.4535,-1.1462,1583,2019-08-07 17:05:34:414
-1.2374,16.4562,3.7334,-0.787,-6.5984,-1.1287,5.5101,1.9542,-1.1483,1588,2019-08-07 17:05:34:419
-1.2374,16.4562,3.7334,-0.787,-6.5984,-1.1287,5.5101,1.9542,-1.1483,1593,2019-08-07 17:05:34:424
-1.2374,16.4562,3.7334,1.0954,-6.6752,-2.8883,5.2395,1.7454,-1.0599,1597,2019-08-07 17:05:34:428
-3.2085,16.1506,3.3516,1.0954,-6.6752,-2.8883,5.2395,1.7454,-1.0599,1603,2019-08-07 17:05:34:434
-3.2085,16.1506,3.3516,1.0954,-6.6752,-2.8883,4.9253,1.5195,-0.9811,1608,2019-08-07 17:05:34:439
-3.2085,16.1506,3.3516,1.0954,-6.6752,-2.8883,4.9253,1.5195,-0.9811,1612,2019-08-07 17:05:34:443
-3.7205,15.9215,2.3994,2.427,-6.1972,-2.3734,4.5439,1.4524,-0.8937,1618,2019-08-07 17:05:34:449
-3.7205,15.9215,2.3994,2.427,-6.1972,-2.3734,4.5439,1.4524,-0.8937,1623,2019-08-07 17:05:34:454
-3.7061,15.4966,2.8142,2.427,-6.1972,-2.3734,4.1647,1.3757,-0.7819,1628,2019-08-07 17:05:34:459
-3.7061,15.4966,2.8142,2.7758,-5.7503,-3.7195,4.1647,1.3757,-0.7819,1633,2019-08-07 17:05:34:464
-3.7061,15.4966,2.8142,2.7758,-5.7503,-3.7195,4.1647,1.3757,-0.7819,1638,2019-08-07 17:05:34:469
-4.8734,15.4346,2.4041,2.7758,-5.7503,-3.7195,3.7088,1.1637,-0.6583,1642,2019-08-07 17:05:34:473
-4.8734,15.4346,2.4041,2.7758,-5.7503,-3.7195,3.7088,1.1637,-0.6583,1648,2019-08-07 17:05:34:479
-4.8734,15.4346,2.4041,2.7758,-5.7503,-3.7195,3.3221,0.8996,-0.555,1653,2019-08-07 17:05:34:484
-5.6868,15.4584,2.1071,4.1264,-5.8983,-3.6578,3.3221,0.8996,-0.555,1657,2019-08-07 17:05:34:488
-5.6868,15.4584,2.1071,4.1264,-5.8983,-3.6578,2.978,0.58,-0.4357,1663,2019-08-07 17:05:34:494
-5.5337,15.2913,2.4937,4.1264,-5.8983,-3.6578,2.978,0.58,-0.4357,1668,2019-08-07 17:05:34:499
-5.5337,15.2913,2.4937,4.1264,-5.8983,-3.6578,2.6563,0.1198,-0.3068,1672,2019-08-07 17:05:34:503
-5.5337,15.2913,2.4937,3.6539,-5.7147,-4.2873,2.6563,0.1198,-0.3068,1678,2019-08-07 17:05:34:509
-5.2466,15.1768,1.796,3.6539,-5.7147,-4.2873,2.3878,-0.2275,-0.3036,1682,2019-08-07 17:05:34:513
-5.2466,15.1768,1.796,3.6539,-5.7147,-4.2873,2.3878,-0.2275,-0.3036,1688,2019-08-07 17:05:34:519
-5.1127,15.9072,1.1219,3.6539,-5.7147,-4.2873,2.3878,-0.2275,-0.3036,1692,2019-08-07 17:05:34:523
-5.1127,15.9072,1.1219,3.2183,-6.7188,-3.4382,2.0171,-0.4832,-0.2876,1697,2019-08-07 17:05:34:528
-5.1127,15.9072,1.1219,3.2183,-6.7188,-3.4382,2.0171,-0.4832,-0.2876,1703,2019-08-07 17:05:34:534
-3.974,16.5182,0.198,3.2183,-6.7188,-3.4382,1.722,-0.6355,-0.2365,1707,2019-08-07 17:05:34:538
-3.974,16.5182,0.198,3.2183,-6.7188,-3.4382,1.722,-0.6355,-0.2365,1713,2019-08-07 17:05:34:544
-2.9693,16.332,0.0283,1.2586,-7.1843,-2.7441,1.3897,-0.6685,-0.2397,1717,2019-08-07 17:05:34:548
-2.9693,16.332,0.0283,1.2586,-7.1843,-2.7441,1.3897,-0.6685,-0.2397,1723,2019-08-07 17:05:34:554
-2.9693,16.332,0.0283,1.2586,-7.1843,-2.7441,1.0754,-0.5279,-0.2194,1728,2019-08-07 17:05:34:559
-2.4335,15.7305,1.2728,1.2586,-7.1843,-2.7441,1.0754,-0.5279,-0.2194,1732,2019-08-07 17:05:34:563
-2.4335,15.7305,1.2728,0.3256,-6.4237,-4.7267,0.8549,-0.48,-0.1523,1738,2019-08-07 17:05:34:569
-2.4335,15.7305,1.2728,0.3256,-6.4237,-4.7267,0.8549,-0.48,-0.1523,1743,2019-08-07 17:05:34:574
-1.8737,15.3677,2.1118,0.3256,-6.4237,-4.7267,0.7356,-0.5599,-0.1022,1747,2019-08-07 17:05:34:578
-1.8737,15.3677,2.1118,0.3256,-6.4237,-4.7267,0.7356,-0.5599,-0.1022,1753,2019-08-07 17:05:34:584
-1.8737,15.3677,2.1118,-0.6022,-6.2779,-4.2535,0.5108,-0.7367,0.0054,1758,2019-08-07 17:05:34:589
-1.1704,15.6828,0.7873,-0.6022,-6.2779,-4.2535,0.5108,-0.7367,0.0054,1763,2019-08-07 17:05:34:594
-1.1704,15.6828,0.7873,-0.8925,-6.9529,-3.761,0.2743,-0.66,0.1566,1768,2019-08-07 17:05:34:599
-1.1704,15.6828,0.7873,-0.8925,-6.9529,-3.761,0.2743,-0.66,0.1566,1773,2019-08-07 17:05:34:604
-1.1704,15.6828,0.7873,-0.8925,-6.9529,-3.761,0.2743,-0.66,0.1566,1777,2019-08-07 17:05:34:608
-0.9025,16.1697,0.1462,-0.8925,-6.9529,-3.761,-0.0346,-0.4501,0.3026,1783,2019-08-07 17:05:34:614
-0.9025,16.1697,0.1462,-0.694,-7.9014,-2.889,-0.0346,-0.4501,0.3026,1787,2019-08-07 17:05:34:618
-1.3666,17.5303,0.3866,-0.694,-7.9014,-2.889,-0.4341,-0.2637,0.424,1793,2019-08-07 17:05:34:624
-1.3666,17.5303,0.3866,-0.694,-7.9014,-2.889,-0.4341,-0.2637,0.424,1797,2019-08-07 17:05:34:628
-0.5915,16.3559,1.3906,-0.694,-7.9014,-2.889,-0.6908,-0.0155,0.6051,1803,2019-08-07 17:05:34:634
-0.5915,16.3559,1.3906,-1.2526,-6.8525,-4.3324,-0.6908,-0.0155,0.6051,1807,2019-08-07 17:05:34:638
-0.5915,16.3559,1.3906,-1.2526,-6.8525,-4.3324,-0.9049,0.3009,0.6754,1813,2019-08-07 17:05:34:644
-0.692,15.5682,1.5839,-1.2526,-6.8525,-4.3324,-0.9049,0.3009,0.6754,1818,2019-08-07 17:05:34:649
-0.692,15.5682,1.5839,-1.2526,-6.8525,-4.3324,-1.1009,0.5161,0.6882,1823,2019-08-07 17:05:34:654
-0.692,15.5682,1.5839,-1.2526,-6.8525,-4.3324,-1.1009,0.5161,0.6882,1828,2019-08-07 17:05:34:659
-1.2183,15.1243,1.4472,-0.4221,-5.8255,-4.1078,-1.1009,0.5161,0.6882,1834,2019-08-07 17:05:34:665
-1.2183,15.1243,1.4472,-0.4221,-5.8255,-4.1078,-1.3172,0.6013,0.7468,1838,2019-08-07 17:05:34:669
-1.3666,14.1552,1.0748,-0.4221,-5.8255,-4.1078,-1.3172,0.6013,0.7468,1843,2019-08-07 17:05:34:674
-1.3666,14.1552,1.0748,-0.1457,-4.3818,-3.6092,-1.5196,0.6513,0.7936,1847,2019-08-07 17:05:34:678
-1.3857,13.3389,1.5556,-0.1457,-4.3818,-3.6092,-1.5196,0.6513,0.7936,1853,2019-08-07 17:05:34:684
-1.3857,13.3389,1.5556,-0.1457,-4.3818,-3.6092,-1.6985,0.6833,0.7958,1858,2019-08-07 17:05:34:689
-1.3857,13.3389,1.5556,-0.1457,-4.3818,-3.6092,-1.6985,0.6833,0.7958,1863,2019-08-07 17:05:34:694
-1.4001,12.9188,1.9374,0.1259,-3.4132,-4.0008,-1.7869,0.5523,0.815,1867,2019-08-07 17:05:34:698
-1.4001,12.9188,1.9374,0.1259,-3.4132,-4.0008,-1.7869,0.5523,0.815,1873,2019-08-07 17:05:34:704
-1.4001,12.9188,1.9374,0.1259,-3.4132,-4.0008,-1.8679,0.3733,0.8182,1877,2019-08-07 17:05:34:708
-1.2613,12.9283,1.4755,0.1259,-3.4132,-4.0008,-1.8679,0.3733,0.8182,1883,2019-08-07 17:05:34:714
-1.2613,12.9283,1.4755,-0.1051,-3.4851,-2.9062,-1.9467,0.3137,0.815,1887,2019-08-07 17:05:34:718
-1.2613,12.9283,1.4755,-0.1051,-3.4851,-2.9062,-1.9467,0.3137,0.815,1893,2019-08-07 17:05:34:724
-0.5341,13.019,1.1125,-0.1051,-3.4851,-2.9062,-1.9467,0.3137,0.815,1898,2019-08-07 17:05:34:729
-0.5341,13.019,1.1125,-0.1051,-3.4851,-2.9062,-2.0149,0.3999,0.7883,1903,2019-08-07 17:05:34:734
0.5711,11.52,-0.3441,-1.4967,-1.8395,-0.9472,-2.0149,0.3999,0.7883,1908,2019-08-07 17:05:34:739
0.5711,11.52,-0.3441,-1.4967,-1.8395,-0.9472,-1.902,0.8537,0.6701,1913,2019-08-07 17:05:34:744
0.5711,11.52,-0.3441,-1.4967,-1.8395,-0.9472,-1.902,0.8537,0.6701,1918,2019-08-07 17:05:34:749
-1.8928,19.3443,-4.4168,-1.4967,-1.8395,-0.9472,-2.8138,-0.0762,0.5934,1923,2019-08-07 17:05:34:754
-1.8928,19.3443,-4.4168,-1.4967,-1.8395,-0.9472,-2.8138,-0.0762,0.5934,1928,2019-08-07 17:05:34:759
-1.8928,19.3443,-4.4168,1.6004,-10.6147,-2.2488,-2.5209,0.2178,0.865,1932,2019-08-07 17:05:34:763
-1.2757,14.2316,2.1448,1.6004,-10.6147,-2.2488,-2.5209,0.2178,0.865,1938,2019-08-07 17:05:34:769
-1.2757,14.2316,2.1448,1.6004,-10.6147,-2.2488,-2.5209,0.2178,0.865,1943,2019-08-07 17:05:34:774
-0.9503,10.8326,-2.4653,1.6004,-10.6147,-2.2488,-2.0011,1.2713,0.5454,1947,2019-08-07 17:05:34:778
-0.9503,10.8326,-2.4653,1.7441,-3.4629,1.1536,-2.0011,1.2713,0.5454,1953,2019-08-07 17:05:34:784
-0.9503,10.8326,5.6566,1.7441,-3.4629,1.1536,-1.8658,0.4287,0.6019,1957,2019-08-07 17:05:34:788
-2.7779,13.8449,5.6566,1.7441,-3.4629,1.1536,-1.8658,0.4287,0.6019,1963,2019-08-07 17:05:34:794
-2.7779,13.8449,5.6566,1.7441,-3.4629,1.1536,-1.5206,-0.2392,0.8448,1967,2019-08-07 17:05:34:798
-0.247,9.4768,4.8081,-0.0857,0.1143,-5.065,-1.5206,-0.2392,0.8448,1973,2019-08-07 17:05:34:804
-0.247,9.4768,4.8081,-0.0857,0.1143,-5.065,-1.4418,-0.5332,0.6807,1978,2019-08-07 17:05:34:809
-0.247,9.4768,4.8081,-0.0857,0.1143,-5.065,-1.4418,-0.5332,0.6807,1982,2019-08-07 17:05:34:813
0.2936,11.6967,4.6667,-1.4095,-2.0789,-3.6863,-1.429,-0.6675,0.75,1988,2019-08-07 17:05:34:819
0.2936,11.6967,4.6667,-1.4095,-2.0789,-3.6863,-1.429,-0.6675,0.75,1993,2019-08-07 17:05:34:824
1.5183,11.6346,2.7671,-1.4095,-2.0789,-3.6863,-1.3534,-0.6557,0.7361,1998,2019-08-07 17:05:34:829
1.5183,11.6346,2.7671,-2.0869,-1.714,-1.1112,-1.3534,-0.6557,0.7361,2003,2019-08-07 17:05:34:834
1.5183,11.6346,2.7671,-2.0869,-1.714,-1.1112,-1.3534,-0.6557,0.7361,2007,2019-08-07 17:05:34:838
1.614,11.8017,0.3583,-2.0869,-1.714,-1.1112,-1.1595,-0.2669,0.6509,2013,2019-08-07 17:05:34:844
1.614,11.8017,0.3583,-2.0869,-1.714,-1.1112,-1.1595,-0.2669,0.6509,2018,2019-08-07 17:05:34:849
1.614,11.8017,0.3583,-1.1615,-2.0296,0.5673,-1.1073,0.1816,0.5518,2023,2019-08-07 17:05:34:854
0.7194,11.6871,0.3819,-1.1615,-2.0296,0.5673,-1.1073,0.1816,0.5518,2028,2019-08-07 17:05:34:859
0.7194,11.6871,0.3819,-1.1615,-2.0296,0.5673,-1.0903,0.3925,0.441,2032,2019-08-07 17:05:34:863
-0.027,11.0952,1.6075,-1.1615,-2.0296,0.5673,-1.0903,0.3925,0.441,2038,2019-08-07 17:05:34:869
-0.027,11.0952,1.6075,-0.0439,-1.1771,-1.2286,-1.0903,0.3925,0.441,2042,2019-08-07 17:05:34:873
-0.027,11.0952,1.6075,-0.0439,-1.1771,-1.2286,-1.0061,0.3158,0.3249,2048,2019-08-07 17:05:34:879
0.5759,10.5414,3.4034,-0.0439,-1.1771,-1.2286,-1.0061,0.3158,0.3249,2053,2019-08-07 17:05:34:884
0.5759,10.5414,3.4034,-0.0439,-1.1771,-1.2286,-0.8559,-0.1412,0.309,2057,2019-08-07 17:05:34:888
1.4798,10.7706,2.3805,-1.2971,-0.9873,-1.5646,-0.8559,-0.1412,0.309,2063,2019-08-07 17:05:34:894
1.4798,10.7706,2.3805,-1.2971,-0.9873,-1.5646,-0.7089,-0.481,0.3185,2068,2019-08-07 17:05:34:899
1.4798,10.7706,2.3805,-1.2971,-0.9873,-1.5646,-0.7089,-0.481,0.3185,2072,2019-08-07 17:05:34:903
1.8817,10.6894,1.4236,-1.2971,-0.9873,-1.5646,-0.596,-0.2637,0.2951,2078,2019-08-07 17:05:34:909
1.8817,10.6894,1.4236,-1.5292,-0.8846,-0.0479,-0.596,-0.2637,0.2951,2083,2019-08-07 17:05:34:914
1.0875,10.2072,1.9138,-1.5292,-0.8846,-0.0479,-0.5491,0.0665,0.2685,2087,2019-08-07 17:05:34:918
1.0875,10.2072,1.9138,-1.5292,-0.8846,-0.0479,-0.5491,0.0665,0.2685,2093,2019-08-07 17:05:34:924
1.0875,10.2072,1.9138,-0.7892,-0.3386,-0.9423,-0.5491,0.0665,0.2685,2098,2019-08-07 17:05:34:929
0.3842,9.7919,3.1206,-0.7892,-0.3386,-0.9423,-0.4436,0.1336,0.2291,2103,2019-08-07 17:05:34:934
0.3842,9.7919,3.1206,-0.7892,-0.3386,-0.9423,-0.4436,0.1336,0.2291,2107,2019-08-07 17:05:34:938
-0.0655,9.9399,2.7812,0.2481,-0.2282,-1.4077,-0.2625,-0.1519,0.1737,2113,2019-08-07 17:05:34:944
-0.0655,9.9399,2.7812,0.2481,-0.2282,-1.4077,-0.2625,-0.1519,0.1737,2118,2019-08-07 17:05:34:949
-0.099,9.7871,0.8956,0.2481,-0.2282,-1.4077,-0.0985,-0.1093,0.1481,2123,2019-08-07 17:05:34:954
-0.099,9.7871,0.8956,0.2481,-0.2282,-1.4077,-0.0985,-0.1093,0.1481,2128,2019-08-07 17:05:34:959
-0.099,9.7871,0.8956,0.0554,0.7839,0.8453,-0.0697,0.2252,0.1321,2133,2019-08-07 17:05:34:964
0.2551,8.9613,1.0276,0.0554,0.7839,0.8453,-0.0697,0.2252,0.1321,2138,2019-08-07 17:05:34:969
0.2551,8.9613,1.0276,0.0554,0.7839,0.8453,-0.0697,0.2252,0.1321,2143,2019-08-07 17:05:34:974
0.2551,8.9613,1.0276,0.0554,0.7839,0.8453,-0.0282,0.483,0.1204,2148,2019-08-07 17:05:34:979
0.1307,9.2716,1.5933,0.1077,0.3906,-0.1342,-0.0282,0.483,0.1204,2152,2019-08-07 17:05:34:983
0.1307,9.2716,1.5933,0.1077,0.3906,-0.1342,0.0411,0.4585,0.1289,2158,2019-08-07 17:05:34:989
0.1307,9.2716,1.5933,0.1077,0.3906,-0.1342,0.0411,0.4585,0.1289,2162,2019-08-07 17:05:34:993
0.0589,9.6869,1.7583,0.1077,0.3906,-0.1342,0.1348,0.3062,0.1428,2168,2019-08-07 17:05:34:999
0.0589,9.6869,1.7583,-0.1876,0.1346,-0.5594,0.1348,0.3062,0.1428,2172,2019-08-07 17:05:35:003
0.0589,9.6869,1.7583,-0.1876,0.1346,-0.5594,0.2179,0.1219,0.13,2178,2019-08-07 17:05:35:009
0.8914,9.6248,1.8431,-0.1876,0.1346,-0.5594,0.2179,0.1219,0.13,2183,2019-08-07 17:05:35:014
0.8914,9.6248,1.8431,-0.1876,0.1346,-0.5594,0.2179,0.1219,0.13,2187,2019-08-07 17:05:35:018
1.4559,9.8015,1.3246,-1.1837,-0.089,0.0281,0.2786,-0.0336,0.0959,2193,2019-08-07 17:05:35:024
1.4559,9.8015,1.3246,-1.1837,-0.089,0.0281,0.2786,-0.0336,0.0959,2197,2019-08-07 17:05:35:028
1.4559,9.8015,1.3246,-1.1837,-0.089,0.0281,0.3351,-0.0219,0.065,2203,2019-08-07 17:05:35:034
2.3745,9.6678,0.8768,-1.1837,-0.089,0.0281,0.3351,-0.0219,0.065,2207,2019-08-07 17:05:35:038
2.3745,9.6678,0.8768,-2.0138,-0.0468,0.929,0.3681,0.091,0.0128,2213,2019-08-07 17:05:35:044
1.9391,9.7824,-0.1037,-2.0138,-0.0468,0.929,0.3681,0.091,0.0128,2218,2019-08-07 17:05:35:049
1.9391,9.7824,-0.1037,-2.0138,-0.0468,0.929,0.3617,0.4553,-0.0213,2223,2019-08-07 17:05:35:054
1.9391,9.7824,-0.1037,-2.0138,-0.0468,0.929,0.3617,0.4553,-0.0213,2227,2019-08-07 17:05:35:058
0.6426,9.9733,0.0236,-0.0578,-0.3278,1.0432,0.317,0.7568,-0.0383,2233,2019-08-07 17:05:35:064
0.6426,9.9733,0.0236,-0.0578,-0.3278,1.0432,0.317,0.7568,-0.0383,2238,2019-08-07 17:05:35:069
0.6426,9.9733,0.0236,-0.0578,-0.3278,1.0432,0.317,0.7568,-0.0383,2243,2019-08-07 17:05:35:074
-0.4769,10.1118,0.4148,-0.0578,-0.3278,1.0432,0.2733,0.7334,-0.0277,2248,2019-08-07 17:05:35:079
-0.4769,10.1118,0.4148,1.1231,-0.3436,1.0826,0.2733,0.7334,-0.0277,2253,2019-08-07 17:05:35:084
-0.8645,10.1595,-0.2121,1.1231,-0.3436,1.0826,0.2871,0.3967,-0.0234,2257,2019-08-07 17:05:35:088
-0.8645,10.1595,-0.2121,1.1231,-0.3436,1.0826,0.2871,0.3967,-0.0234,2263,2019-08-07 17:05:35:094
-0.8645,10.1595,-0.2121,1.1231,-0.3436,1.0826,0.2584,0.1027,0.0054,2268,2019-08-07 17:05:35:099
-0.4817,10.465,-1.4094,0.7747,-0.7463,2.704,0.2584,0.1027,0.0054,2272,2019-08-07 17:05:35:103
-0.4817,10.465,-1.4094,0.7747,-0.7463,2.704,0.1582,0.0548,0.0373,2278,2019-08-07 17:05:35:109
-0.7353,10.4603,-1.7252,0.7747,-0.7463,2.704,0.1582,0.0548,0.0373,2283,2019-08-07 17:05:35:114
-0.7353,10.4603,-1.7252,0.7747,-0.7463,2.704,0.1582,0.0548,0.0373,2287,2019-08-07 17:05:35:118
-0.7353,10.4603,-1.7252,0.7747,-0.7463,2.704,0.007,0.1698,0.0948,2293,2019-08-07 17:05:35:124
-0.8597,10.4221,-0.7353,1.1112,-0.6703,1.7724,0.007,0.1698,0.0948,2298,2019-08-07 17:05:35:129
-0.8597,10.4221,-0.7353,1.1112,-0.6703,1.7724,-0.0506,0.0186,0.1396,2303,2019-08-07 17:05:35:134
-0.8597,10.4221,-0.7353,1.1112,-0.6703,1.7724,-0.0506,0.0186,0.1396,2308,2019-08-07 17:05:35:139
-1.2185,10.3648,0.7118,1.1112,-0.6703,1.7724,-0.0506,0.0186,0.1396,2312,2019-08-07 17:05:35:143
-1.2185,10.3648,0.7118,1.2616,-0.5326,0.4133,-0.0442,-0.2616,0.1811,2318,2019-08-07 17:05:35:149
-0.1755,10.3314,-0.6646,1.2616,-0.5326,0.4133,-0.0442,-0.2616,0.1811,2323,2019-08-07 17:05:35:154
-0.1755,10.3314,-0.6646,1.2616,-0.5326,0.4133,-0.0814,-0.448,0.195,2328,2019-08-07 17:05:35:159
-0.1755,10.3314,-0.6646,1.2616,-0.5326,0.4133,-0.0814,-0.448,0.195,2333,2019-08-07 17:05:35:164
0.5086,10.551,-1.697,-0.1021,-0.7962,2.6407,-0.0814,-0.448,0.195,2337,2019-08-07 17:05:35:168
0.5086,10.551,-1.697,-0.1021,-0.7962,2.6407,-0.188,-0.2818,0.179,2343,2019-08-07 17:05:35:174
0.5086,10.551,-1.697,-0.1021,-0.7962,2.6407,-0.188,-0.2818,0.179,2347,2019-08-07 17:05:35:178
0.5469,10.2598,-0.4667,-0.1246,-0.4376,1.1913,-0.2902,-0.0475,0.1545,2353,2019-08-07 17:05:35:184
0.5469,10.2598,-0.4667,-0.1246,-0.4376,1.1913,-0.2902,-0.0475,0.1545,2357,2019-08-07 17:05:35:188
0.5469,10.2598,-0.4667,-0.1246,-0.4376,1.1913,-0.3041,-0.04,0.1492,2363,2019-08-07 17:05:35:194
0.212,9.8588,0.9051,-0.1246,-0.4376,1.1913,-0.3041,-0.04,0.1492,2367,2019-08-07 17:05:35:198
0.212,9.8588,0.9051,-0.1246,-0.4376,1.1913,-0.2689,-0.2637,0.1449,2373,2019-08-07 17:05:35:204
0.3699,9.6487,1.0606,0.1359,0.0564,0.0016,-0.2689,-0.2637,0.1449,2378,2019-08-07 17:05:35:209
0.3699,9.6487,1.0606,0.1359,0.0564,0.0016,-0.2285,-0.4342,0.1396,2383,2019-08-07 17:05:35:214
0.3699,9.6487,1.0606,0.1359,0.0564,0.0016,-0.2285,-0.4342,0.1396,2387,2019-08-07 17:05:35:218
0.987,9.6487,0.6976,0.1359,0.0564,0.0016,-0.2285,-0.4342,0.1396,2393,2019-08-07 17:05:35:224
0.987,9.6487,0.6976,-0.8051,0.0024,0.5549,-0.204,-0.4927,0.1236,2397,2019-08-07 17:05:35:228
1.3124,9.9256,0.264,-0.8051,0.0024,0.5549,-0.204,-0.4927,0.1236,2402,2019-08-07 17:05:35:233
1.3124,9.9256,0.264,-0.8051,0.0024,0.5549,-0.2029,-0.3873,0.1002,2408,2019-08-07 17:05:35:239
1.3124,9.9256,0.264,-0.8051,0.0024,0.5549,-0.2029,-0.3873,0.1002,2413,2019-08-07 17:05:35:244
1.4415,9.8253,0.1226,-0.9839,-0.0983,1.0654,-0.2295,-0.2307,0.0661,2418,2019-08-07 17:05:35:249
1.4415,9.8253,0.1226,-0.9839,-0.0983,1.0654,-0.2295,-0.2307,0.0661,2422,2019-08-07 17:05:35:253
1.4415,9.8253,0.1226,-0.9839,-0.0983,1.0654,-0.2295,-0.2307,0.0661,2428,2019-08-07 17:05:35:259
1.121,9.5867,0.4997,-0.9839,-0.0983,1.0654,-0.2444,-0.1071,0.0277,2433,2019-08-07 17:05:35:264
1.121,9.5867,0.4997,-0.522,-0.3236,0.4594,-0.2444,-0.1071,0.0277,2438,2019-08-07 17:05:35:269
1.121,9.5867,0.4997,-0.522,-0.3236,0.4594,-0.205,-0.186,-0.001,2443,2019-08-07 17:05:35:274
0.4847,10.0879,0.9663,0.0411,-0.2689,0.0535,-0.205,-0.186,-0.001,2448,2019-08-07 17:05:35:279
0.4847,10.0879,0.9663,0.0411,-0.2689,0.0535,-0.1592,-0.1998,-0.0106,2453,2019-08-07 17:05:35:284
0.7335,9.7728,1.004,0.0411,-0.2689,0.0535,-0.1592,-0.1998,-0.0106,2457,2019-08-07 17:05:35:288
0.7335,9.7728,1.004,0.0411,-0.2689,0.0535,-0.107,-0.2307,-0.0383,2463,2019-08-07 17:05:35:294
0.7335,9.7728,1.004,-0.2388,2.0E-4,0.4344,-0.107,-0.2307,-0.0383,2467,2019-08-07 17:05:35:298
0.8818,9.6057,0.9475,-0.2388,2.0E-4,0.4344,-0.107,-0.2307,-0.0383,2473,2019-08-07 17:05:35:304
0.8818,9.6057,0.9475,-0.2388,2.0E-4,0.4344,-0.0687,-0.268,-0.0362,2478,2019-08-07 17:05:35:309
1.121,9.8397,0.4761,-0.2388,2.0E-4,0.4344,-0.0601,-0.1529,-0.0575,2483,2019-08-07 17:05:35:314
1.121,9.8397,0.4761,-0.5333,-0.3922,1.1433,-0.0601,-0.1529,-0.0575,2488,2019-08-07 17:05:35:319
1.121,9.8397,0.4761,-0.5333,-0.3922,1.1433,-0.0601,-0.1529,-0.0575,2492,2019-08-07 17:05:35:323
1.0636,10.0163,0.0848,-0.5333,-0.3922,1.1433,-0.0804,-0.0315,-0.0671,2498,2019-08-07 17:05:35:329
1.0636,10.0163,0.0848,-0.5333,-0.3922,1.1433,-0.0804,-0.0315,-0.0671,2503,2019-08-07 17:05:35:334
1.0636,10.0163,0.0848,-0.1517,-0.3734,1.0411,-0.0878,0.0676,-0.099,2507,2019-08-07 17:05:35:338
0.5564,10.0402,0.2498,-0.1517,-0.3734,1.0411,-0.0878,0.0676,-0.099,2513,2019-08-07 17:05:35:344
0.5564,10.0402,0.2498,-0.1517,-0.3734,1.0411,-0.1028,0.0825,-0.1022,2518,2019-08-07 17:05:35:349
0.5564,10.0402,0.2498,-0.1517,-0.3734,1.0411,-0.1028,0.0825,-0.1022,2522,2019-08-07 17:05:35:353
0.0349,9.9686,0.429,0.5041,-0.2405,0.8144,-0.1251,0.0484,-0.0905,2528,2019-08-07 17:05:35:359
0.0349,9.9686,0.429,0.5041,-0.2405,0.8144,-0.1251,0.0484,-0.0905,2532,2019-08-07 17:05:35:363
-0.099,10.0115,0.7118,0.5041,-0.2405,0.8144,-0.1251,0.0484,-0.0905,2537,2019-08-07 17:05:35:368
-0.099,10.0115,0.7118,0.5041,-0.2405,0.8144,-0.1166,-0.0624,-0.0703,2543,2019-08-07 17:05:35:374
-0.099,10.0115,0.7118,0.6289,-0.2135,0.6115,-0.1166,-0.0624,-0.0703,2548,2019-08-07 17:05:35:379
-0.1947,9.8874,0.7589,0.6289,-0.2135,0.6115,-0.1059,-0.17,-0.049,2552,2019-08-07 17:05:35:383
-0.1947,9.8874,0.7589,0.6289,-0.2135,0.6115,-0.1059,-0.17,-0.049,2558,2019-08-07 17:05:35:389
0.0637,9.959,0.7825,0.6289,-0.2135,0.6115,-0.0878,-0.22,-0.0298,2564,2019-08-07 17:05:35:395
0.0637,9.959,0.7825,0.1108,-0.1959,0.6008,-0.0878,-0.22,-0.0298,2567,2019-08-07 17:05:35:398
0.0637,9.959,0.7825,0.1108,-0.1959,0.6008,-0.0878,-0.22,-0.0298,2573,2019-08-07 17:05:35:404
0.5229,10.0163,0.5515,0.1108,-0.1959,0.6008,-0.0793,-0.2456,-0.0405,2578,2019-08-07 17:05:35:409
0.5229,10.0163,0.5515,0.1108,-0.1959,0.6008,-0.0793,-0.2456,-0.0405,2583,2019-08-07 17:05:35:414
0.7717,10.0115,0.3394,-0.3485,-0.3018,0.9944,-0.0783,-0.203,-0.0522,2588,2019-08-07 17:05:35:419
0.7717,10.0115,0.3394,-0.3485,-0.3018,0.9944,-0.0783,-0.203,-0.0522,2593,2019-08-07 17:05:35:424
0.7717,10.0115,0.3394,-0.3485,-0.3018,0.9944,-0.0825,-0.138,-0.0554,2598,2019-08-07 17:05:35:429
0.7861,9.9065,0.4949,-0.3485,-0.3018,0.9944,-0.0825,-0.138,-0.0554,2603,2019-08-07 17:05:35:434
0.7861,9.9065,0.4949,-0.3596,-0.212,0.6258,-0.0814,-0.0272,-0.0692,2608,2019-08-07 17:05:35:439
0.7861,9.9065,0.4949,-0.3596,-0.212,0.6258,-0.0814,-0.0272,-0.0692,2612,2019-08-07 17:05:35:443
0.6378,9.8015,0.7966,-0.3596,-0.212,0.6258,-0.0719,-0.0262,-0.0767,2618,2019-08-07 17:05:35:449
0.6378,9.8015,0.7966,-0.3596,-0.212,0.6258,-0.0719,-0.0262,-0.0767,2623,2019-08-07 17:05:35:454
0.6378,9.8015,0.7966,-0.3596,-0.212,0.6258,-0.0719,-0.0262,-0.0767,2627,2019-08-07 17:05:35:458
0.6043,9.8588,0.9616,-0.1994,-0.1508,0.3905,-0.0442,-0.0634,-0.0703,2633,2019-08-07 17:05:35:464
0.6043,9.8588,0.9616,-0.1994,-0.1508,0.3905,-0.0442,-0.0634,-0.0703,2638,2019-08-07 17:05:35:469
0.6043,9.8588,0.9616,-0.1994,-0.1508,0.3905,-0.0314,-0.0603,-0.0756,2642,2019-08-07 17:05:35:473
0.4655,9.9256,0.6788,-0.1994,-0.1508,0.3905,-0.0314,-0.0603,-0.0756,2648,2019-08-07 17:05:35:479
0.4655,9.9256,0.6788,-0.0343,-0.1792,0.5429,-0.0133,0.0079,-0.0756,2653,2019-08-07 17:05:35:484
0.3555,9.7155,0.9663,-0.0343,-0.1792,0.5429,-0.0133,0.0079,-0.0756,2658,2019-08-07 17:05:35:489
0.3555,9.7155,0.9663,-0.0343,-0.1792,0.5429,-0.0037,0.0164,-0.0682,2663,2019-08-07 17:05:35:494
0.3794,9.8158,1.1266,-6.0E-4,-0.1067,0.225,-0.0037,0.0164,-0.0682,2667,2019-08-07 17:05:35:498
0.3794,9.8158,1.1266,-6.0E-4,-0.1067,0.225,0.0389,-0.0176,-0.0639,2673,2019-08-07 17:05:35:504
0.3794,9.8158,1.1266,-6.0E-4,-0.1067,0.225,0.0389,-0.0176,-0.0639,2677,2019-08-07 17:05:35:508
0.145,9.8683,0.6694,-6.0E-4,-0.1067,0.225,0.0528,-0.0017,-0.0532,2683,2019-08-07 17:05:35:514
0.145,9.8683,0.6694,-6.0E-4,-0.1067,0.225,0.0528,-0.0017,-0.0532,2687,2019-08-07 17:05:35:518
0.145,9.8683,0.6694,0.1735,-0.2427,0.7857,0.0528,-0.0017,-0.0532,2693,2019-08-07 17:05:35:524
0.1402,10.0402,0.7401,0.1735,-0.2427,0.7857,0.057,0.058,-0.0564,2697,2019-08-07 17:05:35:528
0.1402,10.0402,0.7401,0.0949,-0.2509,0.4998,0.057,0.058,-0.0564,2703,2019-08-07 17:05:35:534
0.1306,9.6726,0.8202,0.0949,-0.2509,0.4998,0.0773,0.0399,-0.05,2708,2019-08-07 17:05:35:539
0.1306,9.6726,0.8202,0.0949,-0.2509,0.4998,0.0773,0.0399,-0.05,2713,2019-08-07 17:05:35:544
0.1306,9.6726,0.8202,0.0949,-0.2509,0.4998,0.0922,0.0505,-0.0479,2718,2019-08-07 17:05:35:549
0.2454,9.8779,0.7259,0.1012,-0.1619,0.5841,0.0922,0.0505,-0.0479,2723,2019-08-07 17:05:35:554
0.2454,9.8779,0.7259,0.1012,-0.1619,0.5841,0.0965,0.0431,-0.0426,2728,2019-08-07 17:05:35:559
0.4272,9.8779,0.6741,0.1012,-0.1619,0.5841,0.0965,0.0431,-0.0426,2732,2019-08-07 17:05:35:563
0.4272,9.8779,0.6741,0.1012,-0.1619,0.5841,0.0965,0.0431,-0.0426,2738,2019-08-07 17:05:35:569
0.4272,9.8779,0.6741,-0.0755,-0.2109,0.7205,0.1018,0.0548,-0.0426,2743,2019-08-07 17:05:35:574
0.3363,9.9542,0.4572,-0.0755,-0.2109,0.7205,0.1018,0.0548,-0.0426,2747,2019-08-07 17:05:35:578
0.3363,9.9542,0.4572,-0.0755,-0.2109,0.7205,0.1007,0.0889,-0.0351,2753,2019-08-07 17:05:35:584
0.2406,9.9495,0.5138,-0.0755,-0.2109,0.7205,0.1007,0.0889,-0.0351,2758,2019-08-07 17:05:35:589
0.2406,9.9495,0.5138,0.1057,-0.2073,0.7048,0.0943,0.1038,-0.0373,2762,2019-08-07 17:05:35:593
0.2406,9.9495,0.5138,0.1057,-0.2073,0.7048,0.0943,0.1038,-0.0373,2768,2019-08-07 17:05:35:599
0.1019,9.8588,0.7118,0.1057,-0.2073,0.7048,0.0975,0.0644,-0.0245,2773,2019-08-07 17:05:35:604
0.1019,9.8588,0.7118,0.1057,-0.2073,0.7048,0.0975,0.0644,-0.0245,2778,2019-08-07 17:05:35:609
0.1163,10.002,0.5751,0.2493,-0.2278,0.6434,0.1028,0.0228,-0.0181,2782,2019-08-07 17:05:35:613
0.1163,10.002,0.5751,0.2493,-0.2278,0.6434,0.1028,0.0228,-0.0181,2788,2019-08-07 17:05:35:619
0.1163,10.002,0.5751,0.2493,-0.2278,0.6434,0.1028,0.0228,-0.0181,2792,2019-08-07 17:05:35:623
0.1163,9.9733,0.5845,0.2493,-0.2278,0.6434,0.105,0.0143,-0.0149,2798,2019-08-07 17:05:35:629
0.1163,9.9733,0.5845,0.2299,-0.2243,0.6175,0.105,0.0143,-0.0149,2802,2019-08-07 17:05:35:633
0.1163,9.9733,0.5845,0.2299,-0.2243,0.6175,0.1071,-0.0038,0.0,2808,2019-08-07 17:05:35:639
0.2024,9.9686,0.6175,0.2299,-0.2243,0.6175,0.1071,-0.0038,0.0,2813,2019-08-07 17:05:35:644
0.2024,9.9686,0.6175,0.2299,-0.2243,0.6175,0.1156,-0.0091,0.0022,2817,2019-08-07 17:05:35:648
0.4224,9.9113,0.5845,-0.0339,-0.2258,0.5813,0.1156,-0.0091,0.0022,2823,2019-08-07 17:05:35:654
0.4224,9.9113,0.5845,-0.0339,-0.2258,0.5813,0.1114,0.0026,0.0043,2827,2019-08-07 17:05:35:658
0.4224,9.9113,0.5845,-0.0339,-0.2258,0.5813,0.1114,0.0026,0.0043,2833,2019-08-07 17:05:35:664
0.3172,9.9447,0.2451,-0.0339,-0.2258,0.5813,0.0922,0.0111,0.0213,2838,2019-08-07 17:05:35:669
0.3172,9.9447,0.2451,-0.022,-0.256,0.8509,0.0922,0.0111,0.0213,2842,2019-08-07 17:05:35:673
0.2885,10.064,0.5185,-0.022,-0.256,0.8509,0.0922,0.0303,0.0213,2848,2019-08-07 17:05:35:679
0.2885,10.064,0.5185,-0.022,-0.256,0.8509,0.0922,0.0303,0.0213,2853,2019-08-07 17:05:35:684
0.2885,10.064,0.5185,-0.022,-0.256,0.8509,0.0922,0.0303,0.0213,2857,2019-08-07 17:05:35:688
0.5612,9.9829,0.5232,-0.2431,-0.2439,0.611,0.0965,0.0047,0.0096,2863,2019-08-07 17:05:35:694
0.5612,9.9829,0.5232,-0.2431,-0.2439,0.611,0.0965,0.0047,0.0096,2868,2019-08-07 17:05:35:699
0.5612,9.9829,0.5232,-0.2431,-0.2439,0.611,0.0879,0.025,0.0054,2873,2019-08-07 17:05:35:704
0.3698,10.0784,-0.1603,-0.2431,-0.2439,0.611,0.0879,0.025,0.0054,2878,2019-08-07 17:05:35:709
0.3698,10.0784,-0.1603,0.0445,-0.3651,1.1469,0.0613,0.1326,0.0032,2883,2019-08-07 17:05:35:714
0.3698,10.0784,-0.1603,0.0445,-0.3651,1.1469,0.0613,0.1326,0.0032,2887,2019-08-07 17:05:35:718
0.0828,10.0211,0.5279,0.0445,-0.3651,1.1469,0.0389,0.1784,-0.001,2893,2019-08-07 17:05:35:724
0.0828,10.0211,0.5279,0.0445,-0.3651,1.1469,0.0389,0.1784,-0.001,2897,2019-08-07 17:05:35:728
0.0828,10.0211,0.5279,0.2879,-0.3158,0.4838,0.0411,0.1272,0.0022,2903,2019-08-07 17:05:35:734
0.011,10.0497,0.6364,0.2879,-0.3158,0.4838,0.0411,0.1272,0.0022,2908,2019-08-07 17:05:35:739
0.011,10.0497,0.6364,0.2879,-0.3158,0.4838,0.056,0.0026,0.0054,2912,2019-08-07 17:05:35:743
0.078,10.0688,0.1744,0.2879,-0.3158,0.4838,0.056,0.0026,0.0054,2918,2019-08-07 17:05:35:749
0.078,10.0688,0.1744,0.1765,-0.2567,0.8826,0.0432,0.0026,0.0117,2923,2019-08-07 17:05:35:754
0.078,10.0688,0.1744,0.1765,-0.2567,0.8826,0.0432,0.0026,0.0117,2928,2019-08-07 17:05:35:759
0.188,9.9447,0.3535,0.1765,-0.2567,0.8826,0.0219,0.0378,0.0149,2933,2019-08-07 17:05:35:764
0.188,9.9447,0.3535,0.1765,-0.2567,0.8826,0.0219,0.0378,0.0149,2938,2019-08-07 17:05:35:769
0.188,9.9447,0.3535,0.1765,-0.2567,0.8826,0.0219,0.0378,0.0149,2942,2019-08-07 17:05:35:773
0.1402,10.0306,0.4525,0.1731,-0.2842,0.6176,0.0134,0.0303,0.0235,2948,2019-08-07 17:05:35:779
0.1402,10.0306,0.4525,0.1731,-0.2842,0.6176,0.0134,0.0303,0.0235,2953,2019-08-07 17:05:35:784
0.1306,9.9065,0.5279,0.1731,-0.2842,0.6176,0.024,-0.0187,0.0309,2958,2019-08-07 17:05:35:789
0.1306,9.9065,0.5279,0.1731,-0.2842,0.6176,0.024,-0.0187,0.0309,2963,2019-08-07 17:05:35:794
0.1306,9.9065,0.5279,0.1489,-0.164,0.637,0.024,-0.0304,0.0373,2967,2019-08-07 17:05:35:798
0.3459,9.9208,0.3205,0.1489,-0.164,0.637,0.024,-0.0304,0.0373,2973,2019-08-07 17:05:35:804
0.3459,9.9208,0.3205,0.1489,-0.164,0.637,0.0229,-0.0251,0.0309,2978,2019-08-07 17:05:35:809
0.4416,9.8874,0.4289,-0.1354,-0.1537,0.6837,0.0229,-0.0251,0.0309,2983,2019-08-07 17:05:35:814
0.4416,9.8874,0.4289,-0.1354,-0.1537,0.6837,0.0166,0.0164,0.032,2987,2019-08-07 17:05:35:818
0.3363,9.8731,0.2592,-0.1354,-0.1537,0.6837,0.0166,0.0164,0.032,2993,2019-08-07 17:05:35:824
0.3363,9.8731,0.2592,-0.1354,-0.1537,0.6837,0.0166,0.0164,0.032,2998,2019-08-07 17:05:35:829
0.3363,9.8731,0.2592,0.0468,-0.1864,0.4354,0.0059,0.0463,0.0277,3002,2019-08-07 17:05:35:833
0.298,9.8922,0.6882,0.0468,-0.1864,0.4354,0.0059,0.0463,0.0277,3008,2019-08-07 17:05:35:839
0.298,9.8922,0.6882,0.0468,-0.1864,0.4354,0.0229,-0.0134,0.0267,3013,2019-08-07 17:05:35:844
0.298,9.8922,0.6882,0.0468,-0.1864,0.4354,0.0229,-0.0134,0.0267,3018,2019-08-07 17:05:35:849
0.298,9.9495,0.7023,0.035,-0.2005,0.3383,0.0293,-0.0262,0.0267,3022,2019-08-07 17:05:35:853
0.298,9.9495,0.7023,0.035,-0.2005,0.3383,0.0293,-0.0262,0.0267,3028,2019-08-07 17:05:35:859
0.6186,9.854,0.4054,-0.2778,-0.1041,0.6239,0.0357,-0.0262,0.0288,3033,2019-08-07 17:05:35:864
0.6186,9.854,0.4054,-0.2778,-0.1041,0.6239,0.0357,-0.0262,0.0288,3037,2019-08-07 17:05:35:868
0.6186,9.854,0.4054,-0.2778,-0.1041,0.6239,0.0357,-0.0262,0.0288,3043,2019-08-07 17:05:35:874
0.5612,9.9447,0.3582,-0.2169,-0.1943,0.6648,0.0336,-6.0E-4,0.0203,3048,2019-08-07 17:05:35:879
0.5612,9.9447,0.3582,-0.2169,-0.1943,0.6648,0.0336,-6.0E-4,0.0203,3053,2019-08-07 17:05:35:884
0.5612,9.9447,0.3582,-0.2169,-0.1943,0.6648,0.0336,-6.0E-4,0.0203,3058,2019-08-07 17:05:35:889
0.4127,9.9161,0.3724,-0.2169,-0.1943,0.6648,0.0336,0.0207,0.0128,3062,2019-08-07 17:05:35:893
0.4127,9.9161,0.3724,-0.0748,-0.2266,0.6817,0.0336,0.0207,0.0128,3068,2019-08-07 17:05:35:899
0.3171,9.9638,0.4148,-0.0748,-0.2266,0.6817,0.0304,0.0271,-0.0021,3073,2019-08-07 17:05:35:904
0.3171,9.9638,0.4148,-0.0748,-0.2266,0.6817,0.0304,0.0271,-0.0021,3077,2019-08-07 17:05:35:908
0.384,9.9113,0.4902,-0.0367,-0.1587,0.511,0.0315,0.0218,0.0022,3083,2019-08-07 17:05:35:914
0.384,9.9113,0.4902,-0.0367,-0.1587,0.511,0.0315,0.0218,0.0022,3087,2019-08-07 17:05:35:918
0.384,9.9113,0.4902,-0.0367,-0.1587,0.511,0.0368,0.0228,-0.0032,3093,2019-08-07 17:05:35:924
0.3936,10.0354,0.2969,-0.0367,-0.1587,0.511,0.0368,0.0228,-0.0032,3098,2019-08-07 17:05:35:929
0.3936,10.0354,0.2969,-0.0367,-0.1587,0.511,0.0304,0.0399,-0.0042,3102,2019-08-07 17:05:35:933
0.3936,10.0354,0.2969,-0.0468,-0.1766,0.6222,0.0304,0.0399,-0.0042,3108,2019-08-07 17:05:35:939
0.3505,9.9733,0.4195,-0.0468,-0.1766,0.6222,0.0315,0.0516,-0.0032,3112,2019-08-07 17:05:35:943
0.3505,9.9733,0.4195,-0.0468,-0.1766,0.6222,0.0315,0.0516,-0.0032,3118,2019-08-07 17:05:35:949
0.3601,9.9543,0.5373,-0.0468,-0.1766,0.6222,0.0315,0.0516,-0.0032,3122,2019-08-07 17:05:35:953
0.3601,9.9543,0.5373,-0.0153,-0.2901,0.4475,0.0325,0.0239,-0.0021,3128,2019-08-07 17:05:35:959
0.3601,9.9543,0.5373,-0.0153,-0.2901,0.4475,0.0325,0.0239,-0.0021,3133,2019-08-07 17:05:35:964
0.1209,9.9781,0.1602,-0.0153,-0.2901,0.4475,0.0283,0.0058,0.0054,3137,2019-08-07 17:05:35:968
0.1209,9.9781,0.1602,-0.0153,-0.2901,0.4475,0.0283,0.0058,0.0054,3143,2019-08-07 17:05:35:974
0.317,9.9972,0.1697,0.0601,-0.2412,0.893,0.0091,0.0207,-0.001,3148,2019-08-07 17:05:35:979
0.317,9.9972,0.1697,0.0601,-0.2412,0.893,0.0091,0.0207,-0.001,3153,2019-08-07 17:05:35:984
0.317,9.9972,0.1697,0.0601,-0.2412,0.893,-0.0708,-0.1977,-0.0064,3158,2019-08-07 17:05:35:989
-0.3528,10.1595,1.9515,0.0601,-0.2412,0.893,-0.0708,-0.1977,-0.0064,3163,2019-08-07 17:05:35:994
-0.3528,10.1595,1.9515,0.2936,0.2263,-1.1863,0.1199,-0.3564,-0.0064,3168,2019-08-07 17:05:35:999
0.1496,10.0115,-0.7024,0.2936,0.2263,-1.1863,0.1199,-0.3564,-0.0064,3172,2019-08-07 17:05:36:003
0.1496,10.0115,-0.7024,-0.0435,-0.3166,1.514,-0.0058,-0.3617,-0.0032,3178,2019-08-07 17:05:36:009
0.1496,10.0115,-0.7024,-0.0435,-0.3166,1.514,-0.0058,-0.3617,-0.0032,3183,2019-08-07 17:05:36:014
0.5754,10.0641,-0.0613,-0.0435,-0.3166,1.514,0.008,-0.073,-0.0021,3187,2019-08-07 17:05:36:018
0.5754,10.0641,-0.0613,-0.0435,-0.3166,1.514,0.008,-0.073,-0.0021,3193,2019-08-07 17:05:36:024
0.3744,9.8922,0.2027,-0.0241,-0.2251,1.0327,-0.0101,0.0644,0.016,3197,2019-08-07 17:05:36:028
0.3744,9.8922,0.2027,-0.0241,-0.2251,1.0327,-0.0101,0.0644,0.016,3203,2019-08-07 17:05:36:034
0.3744,9.8922,0.2027,-0.0241,-0.2251,1.0327,-0.0101,0.0644,0.016,3208,2019-08-07 17:05:36:039
-0.0609,9.959,0.6458,-0.0241,-0.2251,1.0327,-0.0037,0.0548,0.0085,3213,2019-08-07 17:05:36:044
-0.0609,9.959,0.6458,0.3675,-0.3013,0.3381,-0.0037,0.0548,0.0085,3217,2019-08-07 17:05:36:048
0.1974,9.9065,0.4289,0.3675,-0.3013,0.3381,0.0293,-0.0272,0.0245,3223,2019-08-07 17:05:36:054
0.1974,9.9065,0.4289,0.3675,-0.3013,0.3381,0.0293,-0.0272,0.0245,3227,2019-08-07 17:05:36:058
0.1974,9.9065,0.4289,0.3675,-0.3013,0.3381,0.0347,0.042,0.0245,3233,2019-08-07 17:05:36:064
0.5706,9.8492,-0.1886,-0.2168,-0.0902,1.1229,0.0347,0.042,0.0245,3238,2019-08-07 17:05:36:069
0.5706,9.8492,-0.1886,-0.2168,-0.0902,1.1229,0.0166,0.2306,0.0213,3243,2019-08-07 17:05:36:074
0.5706,9.8492,-0.1886,-0.2168,-0.0902,1.1229,0.0166,0.2306,0.0213,3248,2019-08-07 17:05:36:079
0.9725,9.9495,-0.1933,-0.2168,-0.0902,1.1229,6.0E-4,0.4607,-0.0021,3253,2019-08-07 17:05:36:084
0.9725,9.9495,-0.1933,-0.1644,-0.309,0.8408,6.0E-4,0.4607,-0.0021,3258,2019-08-07 17:05:36:089
-0.0466,10.0259,1.0323,-0.1644,-0.309,0.8408,-0.0687,0.3989,0.0117,3262,2019-08-07 17:05:36:093
-0.0466,10.0259,1.0323,-0.1644,-0.309,0.8408,-0.0687,0.3989,0.0117,3268,2019-08-07 17:05:36:099
-0.0466,10.0259,1.0323,-0.1644,-0.309,0.8408,0.057,-0.0283,0.0107,3273,2019-08-07 17:05:36:104
-0.1279,9.854,1.2868,0.4755,-0.095,-0.35,0.057,-0.0283,0.0107,3278,2019-08-07 17:05:36:109
-0.1279,9.854,1.2868,0.4755,-0.095,-0.35,0.0751,-0.2243,0.0192,3283,2019-08-07 17:05:36:114
-0.1279,9.854,1.2868,0.4755,-0.095,-0.35,0.0751,-0.2243,0.0192,3288,2019-08-07 17:05:36:119