ACCELEROMETER X (m/s²),ACCELEROMETER Y (m/s²),ACCELEROMETER Z (m/s²),LINEAR ACCELERATION X (m/s²),LINEAR ACCELERATION Y (m/s²),LINEAR ACCELERATION Z (m/s²),GYROSCOPE X (rad/s),GYROSCOPE Y (rad/s),GYROSCOPE Z (rad/s),Time since start in ms ,YYYY-MO-DD HH-MI-SS_SSS
0.062,10.0017,0.0289,0.0758,-0.2324,0.2546,-0.0506,0.0164,0.0501,3,2019-08-07 17:06:18:529
0.062,10.0017,0.0289,0.0758,-0.2324,0.2546,-0.0506,0.0164,0.0501,8,2019-08-07 17:06:18:534
0.1673,10.0064,-0.103,0.0758,-0.2324,0.2546,-0.0506,0.0164,0.0501,13,2019-08-07 17:06:18:539
0.1673,10.0064,-0.103,0.0946,-0.2329,0.4269,-0.0687,0.0175,0.048,17,2019-08-07 17:06:18:543
0.1673,10.0064,-0.103,0.0946,-0.2329,0.4269,-0.0687,0.0175,0.048,23,2019-08-07 17:06:18:549
0.1625,9.973,-0.0323,0.0946,-0.2329,0.4269,-0.0825,0.0388,0.0416,28,2019-08-07 17:06:18:554
0.1625,9.973,-0.0323,0.0946,-0.2329,0.4269,-0.0825,0.0388,0.0416,34,2019-08-07 17:06:18:560
0.1625,9.973,-0.0323,0.0213,-0.0378,0.0016,-0.0644,0.0441,0.0437,37,2019-08-07 17:06:18:563
0.2486,9.8155,0.4296,0.0213,-0.0378,0.0016,-0.0644,0.0441,0.0437,43,2019-08-07 17:06:18:569
0.2486,9.8155,0.4296,0.0213,-0.0378,0.0016,-0.0399,-0.0208,0.0405,48,2019-08-07 17:06:18:574
0.3969,9.7821,0.4108,0.0213,-0.0378,0.0016,-0.0399,-0.0208,0.0405,53,2019-08-07 17:06:18:579
0.3969,9.7821,0.4108,-0.2756,0.0238,0.0153,-0.0101,-0.0645,0.0384,58,2019-08-07 17:06:18:584
0.3969,9.7821,0.4108,-0.2756,0.0238,0.0153,-0.0101,-0.0645,0.0384,63,2019-08-07 17:06:18:589
0.6409,9.8823,0.0572,-0.39,-0.1673,0.3164,-0.0026,-0.0528,0.0245,68,2019-08-07 17:06:18:594
0.6409,9.8823,0.0572,-0.39,-0.1673,0.3164,-0.0026,-0.0528,0.0245,73,2019-08-07 17:06:18:599
0.5644,10.0208,-0.3293,-0.39,-0.1673,0.3164,-0.0026,-0.0528,0.0245,78,2019-08-07 17:06:18:604
0.5644,10.0208,-0.3293,-0.39,-0.1673,0.3164,-0.0367,0.0164,0.0075,83,2019-08-07 17:06:18:609
0.5644,10.0208,-0.3293,-0.036,-0.2247,0.6133,-0.0367,0.0164,0.0075,87,2019-08-07 17:06:18:613
0.2008,10.0828,-0.1643,-0.036,-0.2247,0.6133,-0.0612,0.0729,0.0,93,2019-08-07 17:06:18:619
0.2008,10.0828,-0.1643,-0.036,-0.2247,0.6133,-0.0612,0.0729,0.0,98,2019-08-07 17:06:18:624
-0.1293,9.9826,0.0525,-0.036,-0.2247,0.6133,-0.0751,0.0761,-0.001,103,2019-08-07 17:06:18:629
-0.1293,9.9826,0.0525,0.4303,-0.2155,0.1529,-0.0751,0.0761,-0.001,107,2019-08-07 17:06:18:633
-0.1293,9.9826,0.0525,0.4303,-0.2155,0.1529,-0.057,-0.0166,0.0107,113,2019-08-07 17:06:18:639
-0.1054,9.9301,0.3023,0.4303,-0.2155,0.1529,-0.057,-0.0166,0.0107,118,2019-08-07 17:06:18:644
-0.1054,9.9301,0.3023,0.4303,-0.2155,0.1529,-0.0271,-0.1444,0.0192,123,2019-08-07 17:06:18:649
0.1625,9.9826,-0.0418,0.0684,-0.1823,0.4138,-0.0271,-0.1444,0.0192,128,2019-08-07 17:06:18:654
0.1625,9.9826,-0.0418,0.0684,-0.1823,0.4138,-0.0218,-0.1561,0.015,133,2019-08-07 17:06:18:659
0.1625,9.9826,-0.0418,0.0684,-0.1823,0.4138,-0.0218,-0.1561,0.015,137,2019-08-07 17:06:18:663
0.6027,10.0017,-0.1502,0.0684,-0.1823,0.4138,-0.025,-0.1178,-0.001,143,2019-08-07 17:06:18:669
0.6027,10.0017,-0.1502,-0.5579,-0.2445,0.626,-0.025,-0.1178,-0.001,148,2019-08-07 17:06:18:674
0.8227,10.0828,-0.2869,-0.5579,-0.2445,0.626,-0.0367,-0.0794,-0.0202,152,2019-08-07 17:06:18:678
0.8227,10.0828,-0.2869,-0.5579,-0.2445,0.626,-0.0367,-0.0794,-0.0202,158,2019-08-07 17:06:18:684
0.8227,10.0828,-0.2869,-0.5579,-0.2445,0.626,-0.0644,-0.007,-0.0458,162,2019-08-07 17:06:18:688
0.6696,9.9682,-0.2209,-0.3488,-0.1969,0.6018,-0.0644,-0.007,-0.0458,168,2019-08-07 17:06:18:694
0.6696,9.9682,-0.2209,-0.3488,-0.1969,0.6018,-0.0857,0.0473,-0.0553,172,2019-08-07 17:06:18:698
0.6696,10.0351,-0.1313,-0.3488,-0.1969,0.6018,-0.0857,0.0473,-0.0553,178,2019-08-07 17:06:18:704
0.2869,10.0351,-0.1313,-0.3488,-0.1969,0.6018,-0.0857,0.0473,-0.0553,182,2019-08-07 17:06:18:708
0.2869,10.0351,-0.1313,0.2953,-0.1781,0.3244,-0.1017,0.0441,-0.0522,188,2019-08-07 17:06:18:714
-0.1485,9.9348,0.1279,0.2953,-0.1781,0.3244,-0.1017,0.0441,-0.0522,193,2019-08-07 17:06:18:719
-0.1485,9.9348,0.1279,0.2953,-0.1781,0.3244,-0.0878,0.0282,-0.0394,198,2019-08-07 17:06:18:724
-0.1485,9.9348,0.1279,0.2953,-0.1781,0.3244,-0.0878,0.0282,-0.0394,202,2019-08-07 17:06:18:728
-0.1485,9.8871,0.5616,0.3861,-0.1691,-0.0408,-0.0644,-0.0805,-0.0213,208,2019-08-07 17:06:18:734
-0.1485,9.8871,0.5616,0.3861,-0.1691,-0.0408,-0.0644,-0.0805,-0.0213,213,2019-08-07 17:06:18:739
-0.091,9.9826,0.1279,0.3861,-0.1691,-0.0408,-0.0516,-0.138,-0.0042,218,2019-08-07 17:06:18:744
-0.091,9.9826,0.1279,0.3861,-0.1691,-0.0408,-0.0516,-0.138,-0.0042,222,2019-08-07 17:06:18:748
-0.091,9.9826,0.1279,0.3861,-0.1691,-0.0408,-0.0516,-0.1082,-0.0042,228,2019-08-07 17:06:18:754
0.1577,9.911,0.062,0.054,-0.112,0.3535,-0.0516,-0.1082,-0.0042,233,2019-08-07 17:06:18:759
0.1577,9.911,0.062,0.054,-0.112,0.3535,-0.042,-0.0709,0.0,238,2019-08-07 17:06:18:764
0.5022,9.8871,0.4673,0.054,-0.112,0.3535,-0.042,-0.0709,0.0,243,2019-08-07 17:06:18:769
0.5022,9.8871,0.4673,0.054,-0.112,0.3535,-0.0239,-0.073,-0.0021,248,2019-08-07 17:06:18:774
0.5022,9.8871,0.4673,-0.4508,-0.036,0.1343,-0.0239,-0.073,-0.0021,253,2019-08-07 17:06:18:779
0.6218,9.8966,0.0855,-0.4508,-0.036,0.1343,-0.0143,-0.0379,-0.0159,258,2019-08-07 17:06:18:784
0.6218,9.8966,0.0855,-0.4508,-0.036,0.1343,-0.0143,-0.0379,-0.0159,263,2019-08-07 17:06:18:789
0.641,9.9014,0.0148,-0.4508,-0.036,0.1343,-0.0143,0.0559,-0.0223,268,2019-08-07 17:06:18:794
0.641,9.9014,0.0148,-0.3689,-0.0838,0.3652,-0.0143,0.0559,-0.0223,273,2019-08-07 17:06:18:799
0.641,9.9014,0.0148,-0.3689,-0.0838,0.3652,-0.0229,0.1134,-0.0319,279,2019-08-07 17:06:18:805
0.3109,9.9682,0.2034,-0.3689,-0.0838,0.3652,-0.0229,0.1134,-0.0319,282,2019-08-07 17:06:18:808
0.3109,9.9682,0.2034,-0.3689,-0.0838,0.3652,-0.0229,0.1134,-0.0319,288,2019-08-07 17:06:18:814
0.0525,9.9301,0.3448,0.1319,-0.1458,0.132,-0.0122,0.1134,-0.0298,292,2019-08-07 17:06:18:818
0.0525,9.9301,0.3448,0.1319,-0.1458,0.132,-0.0122,0.1134,-0.0298,298,2019-08-07 17:06:18:824
0.0525,9.9301,0.3448,0.1319,-0.1458,0.132,6.0E-4,0.0537,-0.0287,302,2019-08-07 17:06:18:828
-0.1102,9.911,0.3684,0.1319,-0.1458,0.132,6.0E-4,0.0537,-0.0287,308,2019-08-07 17:06:18:834
-0.1102,9.911,0.3684,0.3107,-0.1408,0.1504,0.0176,0.0037,-0.0138,313,2019-08-07 17:06:18:839
-1.0E-4,9.8632,0.3306,0.3107,-0.1408,0.1504,0.0176,0.0037,-0.0138,318,2019-08-07 17:06:18:844
-1.0E-4,9.8632,0.3306,0.3107,-0.1408,0.1504,0.0336,-0.023,-0.0095,322,2019-08-07 17:06:18:848
-1.0E-4,9.8632,0.3306,0.3107,-0.1408,0.1504,0.0336,-0.023,-0.0095,328,2019-08-07 17:06:18:854
0.153,9.8489,0.4343,0.0445,-0.0498,-0.0165,0.0496,-0.04,-0.0085,333,2019-08-07 17:06:18:859
0.153,9.8489,0.4343,0.0445,-0.0498,-0.0165,0.0496,-0.04,-0.0085,338,2019-08-07 17:06:18:864
0.153,9.8489,0.4343,0.0445,-0.0498,-0.0165,0.0496,-0.04,-0.0085,343,2019-08-07 17:06:18:869
0.5118,9.8346,0.3825,0.0445,-0.0498,-0.0165,0.0783,-0.0326,-0.017,347,2019-08-07 17:06:18:873
0.5118,9.8346,0.3825,-0.2959,-0.0778,0.1811,0.0783,-0.0326,-0.017,353,2019-08-07 17:06:18:879
0.4398,9.8203,0.1326,-0.2959,-0.0778,0.1811,0.0922,0.0431,-0.0277,358,2019-08-07 17:06:18:884
0.4398,9.8203,0.1326,-0.2959,-0.0778,0.1811,0.0922,0.0431,-0.0277,363,2019-08-07 17:06:18:889
0.4398,9.8203,0.1326,-0.2959,-0.0778,0.1811,0.105,0.1081,-0.0394,367,2019-08-07 17:06:18:893
0.3011,9.8155,0.4956,-0.1098,-0.0149,-0.1123,0.105,0.1081,-0.0394,373,2019-08-07 17:06:18:899
0.3011,9.8155,0.4956,-0.1098,-0.0149,-0.1123,0.105,0.1081,-0.0394,377,2019-08-07 17:06:18:903
0.2293,9.8012,0.6181,-0.1098,-0.0149,-0.1123,0.1369,0.0878,-0.0404,383,2019-08-07 17:06:18:909
0.2293,9.8012,0.6181,-0.1098,-0.0149,-0.1123,0.1369,0.0878,-0.0404,388,2019-08-07 17:06:18:914
0.2293,9.8012,0.6181,-0.0322,0.0054,-0.2507,0.1731,0.0196,-0.0458,393,2019-08-07 17:06:18:919
0.2771,9.7964,0.5616,-0.0322,0.0054,-0.2507,0.1731,0.0196,-0.0458,398,2019-08-07 17:06:18:924
0.2771,9.7964,0.5616,-0.0322,0.0054,-0.2507,0.1998,-0.0081,-0.0479,402,2019-08-07 17:06:18:928
0.2771,9.7964,0.5616,-0.0322,0.0054,-0.2507,0.1998,-0.0081,-0.0479,408,2019-08-07 17:06:18:934
0.4015,9.9158,0.1232,-0.2414,-0.1221,0.3331,0.203,0.0143,-0.0607,413,2019-08-07 17:06:18:939
0.4015,9.9158,0.1232,-0.2414,-0.1221,0.3331,0.203,0.0143,-0.0607,417,2019-08-07 17:06:18:943
0.3393,9.8823,-0.1172,-0.2414,-0.1221,0.3331,0.1987,0.0676,-0.0681,423,2019-08-07 17:06:18:949
0.3393,9.8823,-0.1172,-0.2414,-0.1221,0.3331,0.1987,0.0676,-0.0681,427,2019-08-07 17:06:18:953
0.2149,9.973,-0.0088,-0.053,-0.1683,0.2863,0.1966,0.0825,-0.0767,433,2019-08-07 17:06:18:959
0.2149,9.973,-0.0088,-0.053,-0.1683,0.2863,0.1966,0.0825,-0.0767,437,2019-08-07 17:06:18:963
0.2149,9.973,-0.0088,-0.053,-0.1683,0.2863,0.1966,0.0825,-0.0767,443,2019-08-07 17:06:18:969
0.124,9.9348,0.0431,-0.053,-0.1683,0.2863,0.1934,0.0622,-0.083,448,2019-08-07 17:06:18:974
0.124,9.9348,0.0431,0.0406,-0.1765,0.3684,0.1934,0.0622,-0.083,453,2019-08-07 17:06:18:979
0.124,9.9348,0.0431,0.0406,-0.1765,0.3684,0.1859,0.0516,-0.0798,457,2019-08-07 17:06:18:983
-0.0051,9.9539,-0.4472,0.0406,-0.1765,0.3684,0.1859,0.0516,-0.0798,463,2019-08-07 17:06:18:989
-0.0051,9.9539,-0.4472,0.0406,-0.1765,0.3684,0.1582,0.0804,-0.0788,468,2019-08-07 17:06:18:994
-0.0051,9.9539,-0.4472,0.3816,-0.2375,0.64,0.1582,0.0804,-0.0788,473,2019-08-07 17:06:18:999
-0.273,10.1163,-0.3482,0.3816,-0.2375,0.64,0.1444,0.0899,-0.066,478,2019-08-07 17:06:19:004
-0.273,10.1163,-0.3482,0.3816,-0.2375,0.64,0.1444,0.0899,-0.066,482,2019-08-07 17:06:19:008
-0.4309,9.9969,-0.0984,0.3816,-0.2375,0.64,0.1476,0.0431,-0.0511,488,2019-08-07 17:06:19:014
-0.4309,9.9969,-0.0984,0.3816,-0.2375,0.64,0.1476,0.0431,-0.0511,492,2019-08-07 17:06:19:018
-0.4309,9.9969,-0.0984,0.5279,-0.1269,0.2123,0.1593,-0.04,-0.0394,498,2019-08-07 17:06:19:024
-0.3352,9.8441,0.0289,0.5279,-0.1269,0.2123,0.1593,-0.04,-0.0394,502,2019-08-07 17:06:19:028
-0.3352,9.8441,0.0289,0.5279,-0.1269,0.2123,0.1593,-0.04,-0.0394,508,2019-08-07 17:06:19:034
-0.053,9.9301,-0.1785,0.1554,-0.1215,0.3109,0.1625,-0.138,-0.0191,512,2019-08-07 17:06:19:038
-0.053,9.9301,-0.1785,0.1554,-0.1215,0.3109,0.1625,-0.138,-0.0191,518,2019-08-07 17:06:19:044
-0.053,9.9301,-0.1785,0.1554,-0.1215,0.3109,0.1604,-0.1508,-0.017,522,2019-08-07 17:06:19:048
-3.0E-4,10.0494,-0.4849,0.1554,-0.1215,0.3109,0.1604,-0.1508,-0.017,529,2019-08-07 17:06:19:055
-3.0E-4,10.0494,-0.4849,-0.0109,-0.1831,0.4869,0.1508,-0.1061,-0.0149,532,2019-08-07 17:06:19:058
0.1193,9.9396,-0.1644,-0.0109,-0.1831,0.4869,0.1508,-0.1061,-0.0149,538,2019-08-07 17:06:19:064
0.1193,9.9396,-0.1644,-0.0109,-0.1831,0.4869,0.1508,-0.1061,-0.0149,542,2019-08-07 17:06:19:068
0.1193,9.9396,-0.1644,-0.0109,-0.1831,0.4869,0.1518,-0.0752,-0.0181,548,2019-08-07 17:06:19:074
0.1049,9.8346,-0.0229,0.0243,-0.0682,0.2294,0.1518,-0.0752,-0.0181,552,2019-08-07 17:06:19:078
0.1049,9.8346,-0.0229,0.0243,-0.0682,0.2294,0.1561,-0.1359,-0.0095,558,2019-08-07 17:06:19:084
0.1049,9.8346,-0.0229,0.0243,-0.0682,0.2294,0.1561,-0.1359,-0.0095,562,2019-08-07 17:06:19:088
-0.1295,10.0733,-0.7253,0.0243,-0.0682,0.2294,0.1401,-0.1572,0.0,568,2019-08-07 17:06:19:094
-0.1295,10.0733,-0.7253,0.0243,-0.0682,0.2294,0.1401,-0.1572,0.0,572,2019-08-07 17:06:19:098
-0.4501,10.121,-1.0788,0.6141,-0.2972,1.2201,0.1199,-0.1402,0.0075,578,2019-08-07 17:06:19:104
-0.4501,10.121,-1.0788,0.6141,-0.2972,1.2201,0.1199,-0.1402,0.0075,583,2019-08-07 17:06:19:109
-0.8663,10.1926,-0.4896,0.6141,-0.2972,1.2201,0.0538,-0.1125,0.0384,588,2019-08-07 17:06:19:114
-0.8663,10.1926,-0.4896,0.7904,-0.364,0.1032,0.0538,-0.1125,0.0384,593,2019-08-07 17:06:19:119
-0.8663,10.1926,-0.4896,0.7904,-0.364,0.1032,0.0379,-0.2169,0.0448,598,2019-08-07 17:06:19:124
-0.1774,10.0637,0.2599,0.7904,-0.364,0.1032,0.0379,-0.2169,0.0448,602,2019-08-07 17:06:19:128
-0.1774,10.0637,0.2599,0.7904,-0.364,0.1032,0.0379,-0.2169,0.0448,607,2019-08-07 17:06:19:133
-0.1774,10.0637,0.2599,0.7904,-0.364,0.1032,0.0517,-0.3894,0.0182,613,2019-08-07 17:06:19:139
0.6025,9.8871,0.0478,-0.5049,-0.0776,-0.0463,0.0517,-0.3894,0.0182,617,2019-08-07 17:06:19:143
0.6025,9.8871,0.0478,-0.5049,-0.0776,-0.0463,0.0762,-0.3958,0.0075,623,2019-08-07 17:06:19:149
1.1479,9.7534,-0.0654,-0.5049,-0.0776,-0.0463,0.0762,-0.3958,0.0075,628,2019-08-07 17:06:19:154
1.1479,9.7534,-0.0654,-0.5049,-0.0776,-0.0463,0.0932,-0.2648,-0.0053,633,2019-08-07 17:06:19:159
1.1479,9.7534,-0.0654,-1.1231,0.0369,0.1105,0.0932,-0.2648,-0.0053,637,2019-08-07 17:06:19:163
1.2244,9.7678,-0.1314,-1.1231,0.0369,0.1105,0.1039,-0.1007,-0.033,643,2019-08-07 17:06:19:169
1.2244,9.7678,-0.1314,-1.1231,0.0369,0.1105,0.1039,-0.1007,-0.033,648,2019-08-07 17:06:19:174
0.746,9.7153,0.4956,-0.5302,0.1132,-0.4812,0.1305,0.01,-0.0447,655,2019-08-07 17:06:19:181
0.746,9.7153,0.4956,-0.5302,0.1132,-0.4812,0.1305,0.01,-0.0447,658,2019-08-07 17:06:19:184
0.746,9.7153,0.4956,-0.5302,0.1132,-0.4812,0.1657,0.0186,-0.0426,662,2019-08-07 17:06:19:188
0.2054,9.9444,-0.1219,-0.1027,-0.1351,0.0692,0.1657,0.0186,-0.0426,668,2019-08-07 17:06:19:194
0.2054,9.9444,-0.1219,-0.1027,-0.1351,0.0692,0.1774,-0.0145,-0.0564,673,2019-08-07 17:06:19:199
0.2054,9.9444,-0.1219,-0.1027,-0.1351,0.0692,0.1774,-0.0145,-0.0564,678,2019-08-07 17:06:19:204
-0.2348,10.0399,-0.4095,-0.1027,-0.1351,0.0692,0.1913,0.0047,-0.0596,683,2019-08-07 17:06:19:209
-0.2348,10.0399,-0.4095,0.2045,-0.2116,0.125,0.1913,0.0047,-0.0596,687,2019-08-07 17:06:19:213
0.1623,9.9253,0.142,0.2045,-0.2116,0.125,0.2094,-0.0443,-0.0617,693,2019-08-07 17:06:19:219
0.1623,9.9253,0.142,0.2045,-0.2116,0.125,0.2094,-0.0443,-0.0617,698,2019-08-07 17:06:19:224
0.1623,9.9253,0.142,0.2045,-0.2116,0.125,0.2392,-0.121,-0.0735,703,2019-08-07 17:06:19:229
0.4876,9.9444,-0.0371,-0.4095,-0.1356,-0.0955,0.2392,-0.121,-0.0735,708,2019-08-07 17:06:19:234
0.4876,9.9444,-0.0371,-0.4095,-0.1356,-0.0955,0.2616,-0.1082,-0.0969,712,2019-08-07 17:06:19:238
0.6168,10.0208,-0.4236,-0.4095,-0.1356,-0.0955,0.2616,-0.1082,-0.0969,718,2019-08-07 17:06:19:244
0.6168,10.0208,-0.4236,-0.4095,-0.1356,-0.0955,0.269,-0.0113,-0.1193,722,2019-08-07 17:06:19:248
0.6168,10.0208,-0.4236,-0.7792,-0.1364,0.1104,0.269,-0.0113,-0.1193,728,2019-08-07 17:06:19:254
0.8656,9.9348,-0.0607,-0.7792,-0.1364,0.1104,0.2946,0.0654,-0.1544,733,2019-08-07 17:06:19:259
0.8656,9.9348,-0.0607,-0.7792,-0.1364,0.1104,0.2946,0.0654,-0.1544,738,2019-08-07 17:06:19:264
0.8656,9.9348,-0.0607,-0.7792,-0.1364,0.1104,0.2946,0.0654,-0.1544,742,2019-08-07 17:06:19:268
0.679,10.0399,0.4673,-0.6693,-0.2807,-0.7994,0.3383,0.074,-0.1672,748,2019-08-07 17:06:19:274
0.679,10.0399,0.4673,-0.6693,-0.2807,-0.7994,0.3383,0.074,-0.1672,752,2019-08-07 17:06:19:278
0.569,10.4313,0.3777,-0.6693,-0.2807,-0.7994,0.3862,0.0761,-0.196,758,2019-08-07 17:06:19:284
0.569,10.4313,0.3777,-0.6693,-0.2807,-0.7994,0.3862,0.0761,-0.196,763,2019-08-07 17:06:19:289
0.7699,11.1474,0.7124,-0.6618,-1.2136,-0.9566,0.4373,0.075,-0.2407,768,2019-08-07 17:06:19:294
0.7699,11.1474,0.7124,-0.6618,-1.2136,-0.9566,0.4373,0.075,-0.2407,772,2019-08-07 17:06:19:298
0.7699,11.1474,0.7124,-0.6618,-1.2136,-0.9566,0.5172,0.0878,-0.2908,778,2019-08-07 17:06:19:304
1.3536,11.9924,1.7919,-0.6618,-1.2136,-0.9566,0.5172,0.0878,-0.2908,783,2019-08-07 17:06:19:309
1.3536,11.9924,1.7919,-1.6929,-2.8642,-2.7439,0.6525,0.058,-0.3398,788,2019-08-07 17:06:19:314
1.3536,11.9924,1.7919,-1.6929,-2.8642,-2.7439,0.6525,0.058,-0.3398,792,2019-08-07 17:06:19:318
2.3104,13.8207,3.4087,-1.6929,-2.8642,-2.7439,0.8187,0.0228,-0.4229,798,2019-08-07 17:06:19:324
2.3104,13.8207,3.4087,-1.6929,-2.8642,-2.7439,0.8187,0.0228,-0.4229,802,2019-08-07 17:06:19:328
2.0952,16.6039,5.9447,-2.2163,-6.8105,-6.5033,1.117,0.0569,-0.4996,808,2019-08-07 17:06:19:334
2.0952,16.6039,5.9447,-2.2163,-6.8105,-6.5033,1.117,0.0569,-0.4996,813,2019-08-07 17:06:19:339
2.0952,16.6039,5.9447,-2.2163,-6.8105,-6.5033,1.5015,-0.2179,-0.4314,818,2019-08-07 17:06:19:344
3.1812,17.5873,10.1259,-2.2163,-6.8105,-6.5033,1.5015,-0.2179,-0.4314,823,2019-08-07 17:06:19:349
3.1812,17.5873,10.1259,-2.1823,-7.6427,-11.2819,2.1673,-0.8667,-0.3334,828,2019-08-07 17:06:19:354
0.0762,17.9883,9.3811,-2.1823,-7.6427,-11.2819,2.1673,-0.8667,-0.3334,833,2019-08-07 17:06:19:359
0.0762,17.9883,9.3811,-2.1823,-7.6427,-11.2819,2.6403,-1.0637,-0.3749,838,2019-08-07 17:06:19:364
0.0762,17.9883,9.3811,-2.1823,-7.6427,-11.2819,2.6403,-1.0637,-0.3749,842,2019-08-07 17:06:19:368
-2.402,20.3752,11.7427,2.1415,-10.7027,-13.4629,3.1207,-1.5868,-0.3387,848,2019-08-07 17:06:19:374
-2.402,20.3752,11.7427,2.1415,-10.7027,-13.4629,3.1207,-1.5868,-0.3387,852,2019-08-07 17:06:19:378
-1.6653,20.1413,7.7926,2.1415,-10.7027,-13.4629,3.7918,-2.5871,-0.3025,858,2019-08-07 17:06:19:384
-1.6653,20.1413,7.7926,2.1415,-10.7027,-13.4629,3.7918,-2.5871,-0.3025,863,2019-08-07 17:06:19:389
-1.6653,20.1413,7.7926,0.2047,-11.7518,-4.0773,4.3202,-3.0366,-0.4708,868,2019-08-07 17:06:19:394
-0.6988,22.2752,0.7171,0.2047,-11.7518,-4.0773,4.3202,-3.0366,-0.4708,873,2019-08-07 17:06:19:399
-0.6988,22.2752,0.7171,0.2047,-11.7518,-4.0773,4.3447,-3.5256,-0.5539,878,2019-08-07 17:06:19:404
-0.517,23.5402,-6.6176,0.2047,-11.7518,-4.0773,4.3447,-3.5256,-0.5539,883,2019-08-07 17:06:19:409
-0.517,23.5402,-6.6176,-0.3464,-16.8502,10.6041,4.5109,-3.5064,-0.67,888,2019-08-07 17:06:19:414
-0.517,23.5402,-6.6176,-0.3464,-16.8502,10.6041,4.5109,-3.5064,-0.67,893,2019-08-07 17:06:19:419
-0.7515,30.5912,-16.7617,-0.3464,-16.8502,10.6041,4.5109,-3.5064,-0.67,897,2019-08-07 17:06:19:423
-0.7515,30.5912,-16.7617,-0.3464,-16.8502,10.6041,4.5684,-2.3623,-0.4761,903,2019-08-07 17:06:19:429
-0.7515,30.5912,-16.7617,-0.3464,-16.8502,10.6041,4.5684,-2.3623,-0.4761,907,2019-08-07 17:06:19:433
-0.3974,30.2284,-11.8876,-0.5886,-21.1435,8.3199,3.5202,-0.0549,-0.7403,912,2019-08-07 17:06:19:438
-0.3974,30.2284,-11.8876,-0.5886,-21.1435,8.3199,3.5202,-0.0549,-0.7403,918,2019-08-07 17:06:19:444
-0.053,25.2731,-3.827,-0.5886,-21.1435,8.3199,3.5202,-0.0549,-0.7403,922,2019-08-07 17:06:19:448
-0.053,25.2731,-3.827,-0.5886,-21.1435,8.3199,3.7759,2.392,-1.2048,928,2019-08-07 17:06:19:454
-0.053,25.2731,-3.827,3.554,-20.8136,-0.1481,3.7759,2.392,-1.2048,933,2019-08-07 17:06:19:459
-6.062,30.5578,-4.4822,3.554,-20.8136,-0.1481,3.9953,0.6961,-0.8298,938,2019-08-07 17:06:19:464
-6.062,30.5578,-4.4822,3.554,-20.8136,-0.1481,3.9953,0.6961,-0.8298,942,2019-08-07 17:06:19:468
-6.7318,26.5096,-1.8896,3.554,-20.8136,-0.1481,4.2808,-1.183,-0.6487,948,2019-08-07 17:06:19:474
-6.7318,26.5096,-1.8896,5.4272,-15.7779,-5.2854,4.2808,-1.183,-0.6487,953,2019-08-07 17:06:19:479
-6.7318,26.5096,-1.8896,5.4272,-15.7779,-5.2854,4.5418,-2.8704,-0.6551,958,2019-08-07 17:06:19:484
-4.5023,20.2368,-0.9516,5.4272,-15.7779,-5.2854,4.5418,-2.8704,-0.6551,963,2019-08-07 17:06:19:489
-4.5023,20.2368,-0.9516,5.4272,-15.7779,-5.2854,4.2382,-3.0217,-0.6231,967,2019-08-07 17:06:19:493
-0.9668,18.9574,-11.6802,-0.0572,-11.0798,4.3871,4.2382,-3.0217,-0.6231,973,2019-08-07 17:06:19:499
-0.9668,18.9574,-11.6802,-0.0572,-11.0798,4.3871,3.4297,-1.2715,-0.5592,977,2019-08-07 17:06:19:503
1.7555,17.1863,-11.6378,-0.0572,-11.0798,4.3871,3.4297,-1.2715,-0.5592,983,2019-08-07 17:06:19:509
1.7555,17.1863,-11.6378,-0.0572,-11.0798,4.3871,2.2664,1.1435,-0.4495,988,2019-08-07 17:06:19:514
1.7555,17.1863,-11.6378,-3.6532,-8.3421,1.292,2.2664,1.1435,-0.4495,993,2019-08-07 17:06:19:519
1.301,14.6753,-2.5401,-3.6532,-8.3421,1.292,2.2664,1.1435,-0.4495,998,2019-08-07 17:06:19:524
1.301,14.6753,-2.5401,-3.6532,-8.3421,1.292,1.2224,2.3504,-0.2918,1002,2019-08-07 17:06:19:528
1.301,14.6753,-2.5401,-3.6532,-8.3421,1.292,1.2224,2.3504,-0.2918,1008,2019-08-07 17:06:19:534
-0.761,12.0592,4.4929,-0.7689,-4.6781,-10.771,0.5769,1.772,-0.0479,1012,2019-08-07 17:06:19:538
-0.761,12.0592,4.4929,-0.7689,-4.6781,-10.771,0.5769,1.772,-0.0479,1018,2019-08-07 17:06:19:544
-0.761,12.0592,4.4929,-0.7689,-4.6781,-10.771,-0.1752,1.2085,0.1992,1022,2019-08-07 17:06:19:548
0.9661,11.2333,2.2868,-0.7689,-4.6781,-10.771,-0.1752,1.2085,0.1992,1028,2019-08-07 17:06:19:554
0.9661,11.2333,2.2868,-3.1678,-3.3225,-8.0725,-1.2085,1.4087,0.408,1032,2019-08-07 17:06:19:558
2.674,9.9396,2.4895,-3.1678,-3.3225,-8.0725,-1.2085,1.4087,0.408,1038,2019-08-07 17:06:19:564
2.674,9.9396,2.4895,-3.1678,-3.3225,-8.0725,-2.3984,1.9563,0.5455,1042,2019-08-07 17:06:19:568
2.674,9.9396,2.4895,-3.1678,-3.3225,-8.0725,-2.3984,1.9563,0.5455,1048,2019-08-07 17:06:19:574
2.0712,9.3143,5.4498,-3.0617,-1.539,-11.349,-3.583,2.1512,0.6222,1052,2019-08-07 17:06:19:578
2.0712,9.3143,5.4498,-3.0617,-1.539,-11.349,-3.583,2.1512,0.6222,1058,2019-08-07 17:06:19:584
2.0712,9.3143,5.4498,-3.0617,-1.539,-11.349,-4.6855,1.9563,0.668,1062,2019-08-07 17:06:19:588
1.2675,9.3954,7.9245,-3.0617,-1.539,-11.349,-4.6855,1.9563,0.668,1068,2019-08-07 17:06:19:594
1.2675,9.3954,7.9245,-1.8583,-1.54,-13.1378,-5.7167,1.6356,0.734,1072,2019-08-07 17:06:19:598
1.3105,10.2261,7.7454,-1.8583,-1.54,-13.1378,-5.7167,1.6356,0.734,1078,2019-08-07 17:06:19:604
1.3105,10.2261,7.7454,-1.8583,-1.54,-13.1378,-6.7969,1.3374,0.7628,1083,2019-08-07 17:06:19:609
1.2914,11.6868,7.9717,-1.8583,-1.54,-13.1378,-6.7969,1.3374,0.7628,1088,2019-08-07 17:06:19:614
1.2914,11.6868,7.9717,-1.6495,-2.9878,-12.1716,-7.9016,1.0753,0.7724,1093,2019-08-07 17:06:19:619
1.2914,11.6868,7.9717,-1.6495,-2.9878,-12.1716,-7.9016,1.0753,0.7724,1097,2019-08-07 17:06:19:623
1.1766,13.3959,9.3528,-1.6495,-2.9878,-12.1716,-9.0446,0.5192,0.767,1103,2019-08-07 17:06:19:629
1.1766,13.3959,9.3528,-1.6495,-2.9878,-12.1716,-9.0446,0.5192,0.767,1108,2019-08-07 17:06:19:634
1.1766,13.3959,9.3528,-0.8633,-5.6589,-11.0036,-9.0446,0.5192,0.767,1113,2019-08-07 17:06:19:639
0.4972,15.8066,8.5892,-0.8633,-5.6589,-11.0036,-9.7626,-0.1018,0.7841,1118,2019-08-07 17:06:19:644
0.4972,15.8066,8.5892,-0.8633,-5.6589,-11.0036,-9.7626,-0.1018,0.7841,1123,2019-08-07 17:06:19:649
0.2819,18.079,6.9299,-0.8633,-5.6589,-11.0036,-10.4944,-0.774,0.9439,1128,2019-08-07 17:06:19:654
0.2819,18.079,6.9299,-0.1778,-8.6859,-6.2001,-10.4944,-0.774,0.9439,1132,2019-08-07 17:06:19:658
0.2819,18.079,6.9299,-0.1778,-8.6859,-6.2001,-10.9567,-1.1106,1.1207,1138,2019-08-07 17:06:19:664
0.0475,18.5611,4.474,-0.1778,-8.6859,-6.2001,-10.9567,-1.1106,1.1207,1142,2019-08-07 17:06:19:668
0.0475,18.5611,4.474,-0.1778,-8.6859,-6.2001,-11.3392,-1.2267,1.3625,1148,2019-08-07 17:06:19:674
-0.23,18.1267,3.3851,0.5612,-8.3782,-1.3043,-11.3392,-1.2267,1.3625,1153,2019-08-07 17:06:19:679
-0.23,18.1267,3.3851,0.5612,-8.3782,-1.3043,-11.7589,-1.2012,1.6917,1158,2019-08-07 17:06:19:684
-0.23,18.1267,3.3851,0.5612,-8.3782,-1.3043,-11.7589,-1.2012,1.6917,1163,2019-08-07 17:06:19:689
-1.206,17.1863,2.1878,0.5612,-8.3782,-1.3043,-11.7589,-1.2012,1.6917,1168,2019-08-07 17:06:19:694
-1.206,17.1863,2.1878,2.3362,-7.9389,2.8159,-12.0113,-1.2651,1.9623,1173,2019-08-07 17:06:19:699
-1.8614,16.3509,1.0282,2.3362,-7.9389,2.8159,-12.0113,-1.2651,1.9623,1178,2019-08-07 17:06:19:704
-1.8614,16.3509,1.0282,2.3362,-7.9389,2.8159,-12.2212,-1.4483,2.2936,1183,2019-08-07 17:06:19:709
-1.8614,16.3509,1.0282,2.3362,-7.9389,2.8159,-12.2212,-1.4483,2.2936,1188,2019-08-07 17:06:19:714
-1.8136,16.1313,-0.0701,3.0135,-9.0684,6.4632,-12.4641,-1.6006,2.6291,1193,2019-08-07 17:06:19:719
-1.8136,16.1313,-0.0701,3.0135,-9.0684,6.4632,-12.4641,-1.6006,2.6291,1198,2019-08-07 17:06:19:724
-2.292,20.1126,-0.3293,3.0135,-9.0684,6.4632,-12.6207,-1.7466,2.823,1203,2019-08-07 17:06:19:729
-2.292,20.1126,-0.3293,3.0135,-9.0684,6.4632,-12.6207,-1.7466,2.823,1208,2019-08-07 17:06:19:734
-2.8135,28.0085,-5.3024,4.6406,-22.3383,13.0964,-12.6015,-2.4134,3.2342,1213,2019-08-07 17:06:19:739
-2.8135,28.0085,-5.3024,4.6406,-22.3383,13.0964,-12.6015,-2.4134,3.2342,1218,2019-08-07 17:06:19:744
-2.8135,28.0085,-5.3024,4.6406,-22.3383,13.0964,-12.0859,-2.6084,3.7807,1222,2019-08-07 17:06:19:748
-0.0434,34.7539,-14.2775,4.6406,-22.3383,13.0964,-12.0859,-2.6084,3.7807,1228,2019-08-07 17:06:19:754
-0.0434,34.7539,-14.2775,-0.0129,-36.6332,26.6453,-11.1602,-1.5729,3.8222,1233,2019-08-07 17:06:19:759
4.2528,43.8337,-19.7031,-0.0129,-36.6332,26.6453,-11.1602,-1.5729,3.8222,1237,2019-08-07 17:06:19:763
4.2528,43.8337,-19.7031,-0.0129,-36.6332,26.6453,-11.1602,-1.5729,3.8222,1243,2019-08-07 17:06:19:769
4.2528,43.8337,-19.7031,-0.0129,-36.6332,26.6453,-9.476,1.0913,3.2821,1248,2019-08-07 17:06:19:774
5.6116,48.7412,-25.7509,-0.5809,-46.049,42.6129,-9.476,1.0913,3.2821,1253,2019-08-07 17:06:19:779
5.6116,48.7412,-25.7509,-0.5809,-46.049,42.6129,-7.0856,6.4378,2.2573,1257,2019-08-07 17:06:19:783
5.6116,48.7412,-25.7509,-0.5809,-46.049,42.6129,-7.0856,6.4378,2.2573,1263,2019-08-07 17:06:19:789
-3.2967,34.224,-56.0088,5.2472,-33.2667,65.5752,-6.7436,11.4361,1.3316,1268,2019-08-07 17:06:19:794
-3.2967,34.224,-56.0088,5.2472,-33.2667,65.5752,-6.7436,11.4361,1.3316,1273,2019-08-07 17:06:19:799
-3.2967,34.224,-56.0088,5.2472,-33.2667,65.5752,-6.7436,11.4361,1.3316,1278,2019-08-07 17:06:19:804
-5.1865,14.5559,-64.5597,5.2472,-33.2667,65.5752,-7.5053,13.8393,0.0959,1283,2019-08-07 17:06:19:809
-5.1865,14.5559,-64.5597,6.0484,-7.1297,69.2751,-7.5053,13.8393,0.0959,1288,2019-08-07 17:06:19:814
-5.1865,14.5559,-64.5597,6.0484,-7.1297,69.2751,-8.6185,8.1859,-0.3749,1292,2019-08-07 17:06:19:818
-14.5731,-7.2795,-41.0944,6.0484,-7.1297,69.2751,-8.6185,8.1859,-0.3749,1298,2019-08-07 17:06:19:824
-14.5731,-7.2795,-41.0944,6.0484,-7.1297,69.2751,-8.5823,2.115,0.0906,1302,2019-08-07 17:06:19:828
-2.823,-16.2925,37.0794,9.3761,13.0135,8.3016,-8.5823,2.115,0.0906,1308,2019-08-07 17:06:19:834
-2.823,-16.2925,37.0794,9.3761,13.0135,8.3016,-5.02,-9.0362,0.1151,1313,2019-08-07 17:06:19:839
-2.823,-16.2925,37.0794,9.3761,13.0135,8.3016,-5.02,-9.0362,0.1151,1318,2019-08-07 17:06:19:844
-10.6501,-9.5805,13.6471,9.3761,13.0135,8.3016,-5.02,-9.0362,0.1151,1323,2019-08-07 17:06:19:849
-10.6501,-9.5805,13.6471,5.224,10.7245,24.2707,4.8678,-10.5393,-1.3699,1328,2019-08-07 17:06:19:854
-3.9473,-12.0104,-35.7159,5.224,10.7245,24.2707,4.8678,-10.5393,-1.3699,1332,2019-08-07 17:06:19:858
-3.9473,-12.0104,-35.7159,5.224,10.7245,24.2707,8.8977,-7.6332,-1.9728,1338,2019-08-07 17:06:19:864
-3.9473,-12.0104,-35.7159,5.224,10.7245,24.2707,8.8977,-7.6332,-1.9728,1342,2019-08-07 17:06:19:868
0.8704,-1.2836,-48.1509,0.1985,0.0424,57.8232,10.6181,-4.3906,-1.6341,1348,2019-08-07 17:06:19:874
0.8704,-1.2836,-48.1509,0.1985,0.0424,57.8232,10.6181,-4.3906,-1.6341,1353,2019-08-07 17:06:19:879
0.8704,-1.2836,-48.1509,0.1985,0.0424,57.8232,8.038,-3.272,-0.5337,1358,2019-08-07 17:06:19:884
-4.1476,44.9269,-42.2632,0.1985,0.0424,57.8232,8.038,-3.272,-0.5337,1363,2019-08-07 17:06:19:889
-4.1476,44.9269,-42.2632,-1.3927,-14.1269,42.6344,0.0474,-5.4888,-0.2652,1368,2019-08-07 17:06:19:894
-4.1476,44.9269,-42.2632,-1.3927,-14.1269,42.6344,0.0474,-5.4888,-0.2652,1373,2019-08-07 17:06:19:899
13.2718,9.9968,0.6277,-1.3927,-14.1269,42.6344,0.0474,-5.4888,-0.2652,1378,2019-08-07 17:06:19:904
13.2718,9.9968,0.6277,-1.3927,-14.1269,42.6344,4.5919,8.824,-1.5361,1383,2019-08-07 17:06:19:909
6.7174,17.5633,5.4499,-8.1562,-13.9883,7.036,4.5919,8.824,-1.5361,1387,2019-08-07 17:06:19:913
6.7174,17.5633,5.4499,-8.1562,-13.9883,7.036,9.3951,9.379,-1.8354,1393,2019-08-07 17:06:19:919
6.7174,17.5633,5.4499,-8.1562,-13.9883,7.036,9.3951,9.379,-1.8354,1398,2019-08-07 17:06:19:924
-2.5257,23.4113,2.2115,-8.1562,-13.9883,7.036,7.8633,0.8644,-0.849,1403,2019-08-07 17:06:19:929
-2.5257,23.4113,2.2115,9.2091,-9.2211,23.8232,7.8633,0.8644,-0.849,1408,2019-08-07 17:06:19:934
-10.2953,15.1669,-16.8181,9.2091,-9.2211,23.8232,6.6659,-1.3098,-1.1547,1412,2019-08-07 17:06:19:938
-10.2953,15.1669,-16.8181,9.2091,-9.2211,23.8232,6.6659,-1.3098,-1.1547,1418,2019-08-07 17:06:19:944
-10.2953,15.1669,-16.8181,9.2091,-9.2211,23.8232,6.6659,-1.3098,-1.1547,1422,2019-08-07 17:06:19:948
-6.6593,25.0582,3.7907,7.0369,-21.0087,5.1365,6.3581,1.6676,-0.6657,1428,2019-08-07 17:06:19:954
-6.6593,25.0582,3.7907,7.0369,-21.0087,5.1365,6.3581,1.6676,-0.6657,1433,2019-08-07 17:06:19:959
-6.6593,25.0582,3.7907,7.0369,-21.0087,5.1365,6.3581,1.6676,-0.6657,1437,2019-08-07 17:06:19:963
-0.5642,18.0312,2.4661,7.0369,-21.0087,5.1365,6.7767,1.9435,-0.5379,1443,2019-08-07 17:06:19:969
-0.5642,18.0312,2.4661,4.9787,-14.3876,3.3399,6.7767,1.9435,-0.5379,1447,2019-08-07 17:06:19:973
-7.2143,17.2483,4.5025,4.9787,-14.3876,3.3399,7.0025,-0.1806,-0.6093,1453,2019-08-07 17:06:19:979
-7.2143,17.2483,4.5025,4.9787,-14.3876,3.3399,7.0025,-0.1806,-0.6093,1458,2019-08-07 17:06:19:984
-7.2143,17.2483,4.5025,4.9787,-14.3876,3.3399,7.1986,-1.0328,-0.6775,1463,2019-08-07 17:06:19:989
-6.2861,18.036,-1.2342,5.7191,-12.1609,8.7667,7.1986,-1.0328,-0.6775,1467,2019-08-07 17:06:19:993
-6.2861,18.036,-1.2342,5.7191,-12.1609,8.7667,7.1751,-1.133,-0.7392,1473,2019-08-07 17:06:19:999
-2.4539,18.4322,1.4196,2.4662,-11.4631,5.4845,7.1751,-1.133,-0.7392,1477,2019-08-07 17:06:20:003
-2.4539,18.4322,1.4196,2.4662,-11.4631,5.4845,7.1698,-1.0712,-0.882,1483,2019-08-07 17:06:20:009
-2.4539,18.4322,1.4196,2.4662,-11.4631,5.4845,7.1698,-1.0712,-0.882,1488,2019-08-07 17:06:20:014
-0.1001,18.4608,0.4675,2.4662,-11.4631,5.4845,7.2529,-0.8752,-1.1408,1493,2019-08-07 17:06:20:019
-0.1001,18.4608,0.4675,0.0179,-10.928,6.5721,7.2529,-0.8752,-1.1408,1498,2019-08-07 17:06:20:024
-0.1001,18.4608,0.4675,0.0179,-10.928,6.5721,7.0281,-0.7111,-1.3209,1503,2019-08-07 17:06:20:029
-0.2149,19.597,-2.5824,0.0179,-10.928,6.5721,7.0281,-0.7111,-1.3209,1508,2019-08-07 17:06:20:034
-0.2149,19.597,-2.5824,0.0179,-10.928,6.5721,6.6297,-0.0507,-1.3933,1513,2019-08-07 17:06:20:039
-0.4589,19.8309,-2.573,0.337,-11.1601,6.4721,6.6297,-0.0507,-1.3933,1517,2019-08-07 17:06:20:043
-0.4589,19.8309,-2.573,0.337,-11.1601,6.4721,6.1535,0.8995,-1.356,1523,2019-08-07 17:06:20:049
-0.6167,19.4633,1.8816,0.337,-11.1601,6.4721,6.1535,0.8995,-1.356,1528,2019-08-07 17:06:20:054
-0.6167,19.4633,1.8816,0.337,-11.1601,6.4721,6.0119,1.1339,-1.2644,1533,2019-08-07 17:06:20:059
-0.6167,19.4633,1.8816,0.4374,-9.9157,0.145,6.0119,1.1339,-1.2644,1538,2019-08-07 17:06:20:064
-1.1813,19.0862,3.0223,0.4374,-9.9157,0.145,6.0119,1.1339,-1.2644,1542,2019-08-07 17:06:20:068
-1.1813,19.0862,3.0223,1.325,-9.8384,1.6405,5.9373,0.7685,-1.1547,1548,2019-08-07 17:06:20:074
-2.2577,19.2151,0.6607,1.325,-9.8384,1.6405,5.9373,0.7685,-1.1547,1553,2019-08-07 17:06:20:079
-2.2577,19.2151,0.6607,1.325,-9.8384,1.6405,5.6667,0.907,-1.0141,1557,2019-08-07 17:06:20:083
-2.2577,19.2151,0.6607,1.325,-9.8384,1.6405,5.6667,0.907,-1.0141,1563,2019-08-07 17:06:20:089
-3.1237,19.4013,-0.3857,1.325,-9.8384,1.6405,5.4121,1.1477,-0.9107,1568,2019-08-07 17:06:20:094
-3.1237,19.4013,-0.3857,2.4063,-9.8842,1.2392,5.4121,1.1477,-0.9107,1573,2019-08-07 17:06:20:099
-3.4586,19.4156,2.7159,2.4063,-9.8842,1.2392,5.4121,1.1477,-0.9107,1577,2019-08-07 17:06:20:103
-3.4586,19.4156,2.7159,2.4063,-9.8842,1.2392,5.0915,1.0881,-0.7137,1583,2019-08-07 17:06:20:109
-3.4586,19.4156,2.7159,2.3867,-9.1886,-2.2634,5.0915,1.0881,-0.7137,1587,2019-08-07 17:06:20:113
-3.5112,18.8523,2.8149,2.3867,-9.1886,-2.2634,4.8933,0.4649,-0.5667,1593,2019-08-07 17:06:20:119
-3.5112,18.8523,2.8149,2.3867,-9.1886,-2.2634,4.8933,0.4649,-0.5667,1597,2019-08-07 17:06:20:123
-3.3533,18.6518,2.2257,2.3746,-9.0235,-2.0946,4.6994,0.0527,-0.491,1603,2019-08-07 17:06:20:129
-3.3533,18.6518,2.2257,2.3746,-9.0235,-2.0946,4.6994,0.0527,-0.491,1608,2019-08-07 17:06:20:134
-3.3533,18.6518,2.2257,2.3746,-9.0235,-2.0946,4.4459,-0.1572,-0.3909,1613,2019-08-07 17:06:20:139
-2.5782,17.9166,2.9564,1.2237,-7.9543,-3.8005,4.4459,-0.1572,-0.3909,1618,2019-08-07 17:06:20:144
-2.5782,17.9166,2.9564,1.2237,-7.9543,-3.8005,4.153,-0.3202,-0.3057,1623,2019-08-07 17:06:20:149
-2.5782,17.9166,2.9564,1.2237,-7.9543,-3.8005,4.153,-0.3202,-0.3057,1628,2019-08-07 17:06:20:154
-2.2672,16.7375,3.7011,1.2237,-7.9543,-3.8005,3.8472,-0.578,-0.2215,1634,2019-08-07 17:06:20:160
-2.2672,16.7375,3.7011,1.2237,-7.9543,-3.8005,3.8472,-0.578,-0.2215,1637,2019-08-07 17:06:20:163
-2.2672,16.7375,3.7011,0.9476,-6.5976,-5.1667,3.8472,-0.578,-0.2215,1643,2019-08-07 17:06:20:169
-2.1763,16.0405,3.8143,0.9476,-6.5976,-5.1667,3.4446,-0.937,-0.0809,1648,2019-08-07 17:06:20:174
-2.1763,16.0405,3.8143,0.9476,-6.5976,-5.1667,3.4446,-0.937,-0.0809,1652,2019-08-07 17:06:20:178
-1.8175,15.945,3.3995,0.4128,-6.4291,-5.1698,3.0451,-1.2193,0.0672,1658,2019-08-07 17:06:20:184
-1.8175,15.945,3.3995,0.4128,-6.4291,-5.1698,3.0451,-1.2193,0.0672,1663,2019-08-07 17:06:20:189
-1.4013,15.8734,2.7207,0.4128,-6.4291,-5.1698,2.7255,-1.2949,0.1705,1668,2019-08-07 17:06:20:194
-1.4013,15.8734,2.7207,0.4128,-6.4291,-5.1698,2.7255,-1.2949,0.1705,1673,2019-08-07 17:06:20:199
-1.4013,15.8734,2.7207,0.4128,-6.4291,-5.1698,2.3857,-1.2161,0.2632,1677,2019-08-07 17:06:20:203
-0.7315,15.4867,1.7213,-0.638,-6.0777,-4.1361,2.3857,-1.2161,0.2632,1682,2019-08-07 17:06:20:208
-0.7315,15.4867,1.7213,-0.638,-6.0777,-4.1361,2.3857,-1.2161,0.2632,1688,2019-08-07 17:06:20:214
-0.7315,15.4867,1.7213,-0.638,-6.0777,-4.1361,1.901,-0.9593,0.2983,1693,2019-08-07 17:06:20:219
-0.1526,15.5106,1.2358,-0.638,-6.0777,-4.1361,1.901,-0.9593,0.2983,1697,2019-08-07 17:06:20:223
-0.1526,15.5106,1.2358,-1.6673,-6.1819,-4.3118,1.6155,-0.7761,0.3026,1703,2019-08-07 17:06:20:229
0.5603,15.353,1.6695,-1.6673,-6.1819,-4.3118,1.6155,-0.7761,0.3026,1707,2019-08-07 17:06:20:233
0.5603,15.353,1.6695,-1.6673,-6.1819,-4.3118,1.1702,-0.4693,0.2845,1713,2019-08-07 17:06:20:239
0.5603,15.353,1.6695,-1.6673,-6.1819,-4.3118,1.1702,-0.4693,0.2845,1718,2019-08-07 17:06:20:244
0.0388,15.544,1.5799,-1.357,-6.2713,-4.4981,0.7271,-0.1572,0.2738,1723,2019-08-07 17:06:20:249
0.0388,15.544,1.5799,-1.357,-6.2713,-4.4981,0.7271,-0.1572,0.2738,1728,2019-08-07 17:06:20:254
-0.2817,15.7636,2.7113,-1.357,-6.2713,-4.4981,0.4,-0.088,0.3005,1732,2019-08-07 17:06:20:258
-0.2817,15.7636,2.7113,-1.357,-6.2713,-4.4981,0.4,-0.088,0.3005,1738,2019-08-07 17:06:20:264
-0.2817,15.7636,2.7113,-0.6797,-6.6031,-6.3936,0.4,-0.088,0.3005,1743,2019-08-07 17:06:20:269
-0.6932,15.8352,3.4843,-0.6797,-6.6031,-6.3936,0.138,-0.1892,0.359,1748,2019-08-07 17:06:20:274
-0.6932,15.8352,3.4843,-0.6797,-6.6031,-6.3936,0.138,-0.1892,0.359,1753,2019-08-07 17:06:20:279
-1.6117,15.6299,2.4237,-0.6797,-6.6031,-6.3936,-0.1848,-0.3244,0.4602,1758,2019-08-07 17:06:20:284
-1.6117,15.6299,2.4237,0.4084,-6.222,-5.2165,-0.1848,-0.3244,0.4602,1763,2019-08-07 17:06:20:289
-1.6117,15.6299,2.4237,0.4084,-6.222,-5.2165,-0.4937,-0.3649,0.5188,1768,2019-08-07 17:06:20:294
-0.9611,14.9186,3.0459,0.4084,-6.222,-5.2165,-0.4937,-0.3649,0.5188,1772,2019-08-07 17:06:20:298
-0.9611,14.9186,3.0459,0.4084,-6.222,-5.2165,-0.76,-0.2999,0.5689,1778,2019-08-07 17:06:20:304
-0.6118,14.0641,2.9847,-0.5017,-4.7221,-5.7637,-0.76,-0.2999,0.5689,1782,2019-08-07 17:06:20:308
-0.6118,14.0641,2.9847,-0.5017,-4.7221,-5.7637,-1.0551,-0.1561,0.5625,1788,2019-08-07 17:06:20:314
-0.6118,14.0641,2.9847,-0.5017,-4.7221,-5.7637,-1.0551,-0.1561,0.5625,1792,2019-08-07 17:06:20:318
-0.8558,13.2717,2.287,-0.5017,-4.7221,-5.7637,-1.2746,0.042,0.5657,1798,2019-08-07 17:06:20:324
-0.8558,13.2717,2.287,-0.2164,-3.7016,-4.8437,-1.2746,0.042,0.5657,1802,2019-08-07 17:06:20:328
-0.6261,13.1237,2.2776,-0.2164,-3.7016,-4.8437,-1.2746,0.042,0.5657,1808,2019-08-07 17:06:20:334
-0.6261,13.1237,2.2776,-0.4502,-3.6092,-4.6723,-1.4578,0.1741,0.5476,1813,2019-08-07 17:06:20:339
-0.6261,13.1237,2.2776,-0.4502,-3.6092,-4.6723,-1.4578,0.1741,0.5476,1818,2019-08-07 17:06:20:344
0.1202,13.1571,2.7867,-0.4502,-3.6092,-4.6723,-1.6378,0.2646,0.4826,1822,2019-08-07 17:06:20:348
0.1202,13.1571,2.7867,-0.4502,-3.6092,-4.6723,-1.6378,0.2646,0.4826,1828,2019-08-07 17:06:20:354
0.1202,13.1571,2.7867,-1.2274,-4.2499,-4.39,-1.7763,0.3744,0.4049,1833,2019-08-07 17:06:20:359
0.4025,14.002,2.0136,-1.2274,-4.2499,-4.39,-1.7763,0.3744,0.4049,1837,2019-08-07 17:06:20:363
0.4025,14.002,2.0136,-1.2274,-4.2499,-4.39,-1.8626,0.4436,0.2887,1843,2019-08-07 17:06:20:369
0.5891,15.0236,0.755,-1.2274,-4.2499,-4.39,-1.8626,0.4436,0.2887,1848,2019-08-07 17:06:20:374
0.5891,15.0236,0.755,-1.5477,-5.3544,-2.2695,-1.8434,0.5054,0.2504,1853,2019-08-07 17:06:20:379
0.5891,15.0236,0.755,-1.5477,-5.3544,-2.2695,-1.8434,0.5054,0.2504,1857,2019-08-07 17:06:20:383
0.8044,14.5319,0.4392,-1.5477,-5.3544,-2.2695,-1.7827,0.825,0.2227,1863,2019-08-07 17:06:20:389
0.8044,14.5319,0.4392,-1.5477,-5.3544,-2.2695,-1.7827,0.825,0.2227,1867,2019-08-07 17:06:20:393
0.8044,14.5319,0.4392,-1.0495,-4.6017,-0.7245,-1.7518,1.1211,0.2014,1873,2019-08-07 17:06:20:399
0.2494,14.4651,-0.5931,-1.0495,-4.6017,-0.7245,-1.7518,1.1211,0.2014,1878,2019-08-07 17:06:20:404
0.2494,14.4651,-0.5931,-0.4762,-5.3608,-1.0627,-1.6559,1.1318,0.2376,1883,2019-08-07 17:06:20:409
-0.3342,15.1096,0.015,-0.4762,-5.3608,-1.0627,-1.6559,1.1318,0.2376,1888,2019-08-07 17:06:20:414
-0.3342,15.1096,0.015,-0.4762,-5.3608,-1.0627,-1.6559,1.1318,0.2376,1893,2019-08-07 17:06:20:419
-0.3342,15.1096,0.015,-0.4762,-5.3608,-1.0627,-1.5068,1.0444,0.3335,1898,2019-08-07 17:06:20:424
-0.1955,13.0616,-1.715,-0.4373,-2.9096,1.0054,-1.5068,1.0444,0.3335,1902,2019-08-07 17:06:20:428
-0.1955,13.0616,-1.715,-0.4373,-2.9096,1.0054,-1.3236,1.0572,0.3686,1908,2019-08-07 17:06:20:434
-0.516,13.897,-3.5534,-0.4373,-2.9096,1.0054,-1.3236,1.0572,0.3686,1913,2019-08-07 17:06:20:439
-0.516,13.897,-3.5534,-0.4373,-2.9096,1.0054,-1.5302,0.7174,0.4283,1918,2019-08-07 17:06:20:444
-0.516,13.897,-3.5534,-1.3223,-6.278,-5.5021,-1.5302,0.7174,0.4283,1922,2019-08-07 17:06:20:448
1.1967,13.5008,7.2601,-1.3223,-6.278,-5.5021,-1.5004,1.3267,0.7212,1928,2019-08-07 17:06:20:454
1.1967,13.5008,7.2601,-1.3223,-6.278,-5.5021,-1.5004,1.3267,0.7212,1933,2019-08-07 17:06:20:459
1.1728,8.0682,6.0534,-1.3223,-6.278,-5.5021,-1.7667,1.5312,0.2877,1938,2019-08-07 17:06:20:464
1.1728,8.0682,6.0534,-1.3223,-6.278,-5.5021,-1.7667,1.5312,0.2877,1943,2019-08-07 17:06:20:469
1.1728,8.0682,6.0534,0.5513,-0.9396,-8.4484,-1.7667,1.5312,0.2877,1948,2019-08-07 17:06:20:474
-2.1139,13.3814,15.547,0.5513,-0.9396,-8.4484,-1.5771,0.5278,0.4176,1953,2019-08-07 17:06:20:479
-2.1139,13.3814,15.547,0.5513,-0.9396,-8.4484,-1.739,-0.9316,0.6349,1958,2019-08-07 17:06:20:484
-2.1139,13.3814,15.547,0.5513,-0.9396,-8.4484,-1.739,-0.9316,0.6349,1962,2019-08-07 17:06:20:488
1.9383,8.6363,7.0339,-2.1599,1.17,-6.8761,-1.4333,-1.4632,0.6435,1968,2019-08-07 17:06:20:494
1.9383,8.6363,7.0339,-2.1599,1.17,-6.8761,-1.4333,-1.4632,0.6435,1973,2019-08-07 17:06:20:499
4.9811,16.7804,0.6655,-2.1599,1.17,-6.8761,-1.4333,-1.4632,0.6435,1978,2019-08-07 17:06:20:504
4.9811,16.7804,0.6655,-5.7689,-11.3383,4.0881,-1.0775,-2.1311,0.8832,1983,2019-08-07 17:06:20:509
4.9811,16.7804,0.6655,-5.7689,-11.3383,4.0881,-1.0775,-2.1311,0.8832,1988,2019-08-07 17:06:20:514
1.2685,24.3135,-6.3204,-5.7689,-11.3383,4.0881,-0.6567,-0.6227,0.4549,1992,2019-08-07 17:06:20:518
1.2685,24.3135,-6.3204,-5.7689,-11.3383,4.0881,-0.6567,-0.6227,0.4549,1998,2019-08-07 17:06:20:524
-7.5201,12.25,5.1153,7.5271,-2.4562,-4.5529,-0.7845,3.5275,-0.2673,2003,2019-08-07 17:06:20:529
-7.5201,12.25,5.1153,7.5271,-2.4562,-4.5529,-0.7845,3.5275,-0.2673,2007,2019-08-07 17:06:20:533
-7.5201,12.25,5.1153,7.5271,-2.4562,-4.5529,-0.6088,4.596,0.0032,2013,2019-08-07 17:06:20:539
-0.7934,3.4376,11.2621,7.5271,-2.4562,-4.5529,-0.6088,4.596,0.0032,2018,2019-08-07 17:06:20:544
-0.7934,3.4376,11.2621,7.5271,-2.4562,-4.5529,-0.6088,4.596,0.0032,2022,2019-08-07 17:06:20:548
-0.7934,3.4376,11.2621,-0.6833,5.3068,-1.645,-0.1006,-0.1583,0.2014,2028,2019-08-07 17:06:20:554
-0.6308,6.5119,0.5477,-0.6833,5.3068,-1.645,-0.1006,-0.1583,0.2014,2033,2019-08-07 17:06:20:559
-0.6308,6.5119,0.5477,-0.6833,5.3068,-1.645,-0.1177,-2.766,0.1332,2038,2019-08-07 17:06:20:564
0.9959,8.8654,1.7874,-0.6833,5.3068,-1.645,-0.1177,-2.766,0.1332,2043,2019-08-07 17:06:20:569
0.9959,8.8654,1.7874,-2.2471,0.8891,1.402,0.269,-1.8914,0.2429,2048,2019-08-07 17:06:20:574
0.9959,8.8654,1.7874,-2.2471,0.8891,1.402,0.269,-1.8914,0.2429,2053,2019-08-07 17:06:20:579
5.1725,11.1664,-6.6362,-2.2471,0.8891,1.402,0.269,-1.8914,0.2429,2057,2019-08-07 17:06:20:583
5.1725,11.1664,-6.6362,-2.2471,0.8891,1.402,-0.155,0.1485,0.1002,2063,2019-08-07 17:06:20:589
4.5506,10.0827,-2.2665,-4.4433,-0.297,2.9485,-0.155,0.1485,0.1002,2068,2019-08-07 17:06:20:594
4.5506,10.0827,-2.2665,-4.4433,-0.297,2.9485,-0.2434,2.0309,0.0011,2073,2019-08-07 17:06:20:599
0.0725,9.19,3.1073,-4.4433,-0.297,2.9485,-0.2434,2.0309,0.0011,2078,2019-08-07 17:06:20:604
0.0725,9.19,3.1073,-4.4433,-0.297,2.9485,-0.1187,1.838,-0.0031,2082,2019-08-07 17:06:20:608
0.0725,9.19,3.1073,1.3991,0.8113,-5.0552,-0.1187,1.838,-0.0031,2088,2019-08-07 17:06:20:614
-1.8986,9.2139,4.9975,1.3991,0.8113,-5.0552,-0.1187,1.838,-0.0031,2093,2019-08-07 17:06:20:619
-1.8986,9.2139,4.9975,1.3991,0.8113,-5.0552,0.1295,0.5704,0.0096,2097,2019-08-07 17:06:20:623
-1.5637,10.1352,1.6083,1.3991,0.8113,-5.0552,0.1295,0.5704,0.0096,2102,2019-08-07 17:06:20:628
-1.5637,10.1352,1.6083,1.1457,-0.2952,-0.3483,0.367,-0.7516,0.1396,2108,2019-08-07 17:06:20:634
-1.5637,10.1352,1.6083,1.1457,-0.2952,-0.3483,0.367,-0.7516,0.1396,2112,2019-08-07 17:06:20:638
0.2257,9.8011,-1.4698,-0.1322,-0.0154,2.1544,0.3883,-0.774,0.097,2118,2019-08-07 17:06:20:644
0.2257,9.8011,-1.4698,-0.1322,-0.0154,2.1544,0.3883,-0.774,0.097,2123,2019-08-07 17:06:20:649
0.2257,9.8011,-1.4698,-0.1322,-0.0154,2.1544,0.253,-0.0411,0.064,2128,2019-08-07 17:06:20:654
0.6658,10.5362,-3.2422,-0.1322,-0.0154,2.1544,0.253,-0.0411,0.064,2133,2019-08-07 17:06:20:659
0.6658,10.5362,-3.2422,-1.0531,-0.2634,1.1983,0.1433,0.7429,0.0853,2138,2019-08-07 17:06:20:664
0.6658,10.5362,-3.2422,-1.0531,-0.2634,1.1983,0.1433,0.7429,0.0853,2142,2019-08-07 17:06:20:668
0.5941,9.8918,1.3396,-1.0531,-0.2634,1.1983,0.1518,0.7909,0.0704,2148,2019-08-07 17:06:20:674
0.5941,9.8918,1.3396,-1.0531,-0.2634,1.1983,0.1518,0.7909,0.0704,2153,2019-08-07 17:06:20:679
-1.0756,10.4264,0.6467,0.9055,-0.472,-0.3357,0.204,0.3424,0.0789,2157,2019-08-07 17:06:20:683
-1.0756,10.4264,0.6467,0.9055,-0.472,-0.3357,0.204,0.3424,0.0789,2163,2019-08-07 17:06:20:689
-1.0756,10.4264,0.6467,0.9055,-0.472,-0.3357,0.204,0.3424,0.0789,2168,2019-08-07 17:06:20:694
-1.4871,10.6365,-1.0692,0.9055,-0.472,-0.3357,0.204,0.042,0.1247,2172,2019-08-07 17:06:20:698
-1.4871,10.6365,-1.0692,1.3151,-0.7368,2.0965,0.1636,-0.0581,0.1311,2178,2019-08-07 17:06:20:704
-1.4871,10.6365,-1.0692,1.3151,-0.7368,2.0965,0.1636,-0.0581,0.1311,2182,2019-08-07 17:06:20:708
-0.7742,10.5219,-1.5547,1.3151,-0.7368,2.0965,0.1636,-0.0581,0.1311,2188,2019-08-07 17:06:20:714
-0.7742,10.5219,-1.5547,1.3151,-0.7368,2.0965,0.1092,-0.1636,0.1566,2193,2019-08-07 17:06:20:719
-0.7742,10.5219,-1.5547,1.3151,-0.7368,2.0965,0.1092,-0.1636,0.1566,2198,2019-08-07 17:06:20:724
1.1682,10.0398,-0.8335,-1.0084,-0.2435,1.3278,0.0762,-0.1987,0.1396,2203,2019-08-07 17:06:20:729
1.1682,10.0398,-0.8335,-1.0084,-0.2435,1.3278,0.0762,-0.1987,0.1396,2208,2019-08-07 17:06:20:734
1.1682,10.0398,-1.55,-1.0084,-0.2435,1.3278,-0.0175,-0.0507,0.0778,2212,2019-08-07 17:06:20:738
1.2256,10.2021,-1.55,-0.5175,-0.5582,2.2953,-0.0175,-0.0507,0.0778,2218,2019-08-07 17:06:20:744
1.2256,10.2021,-1.55,-0.5175,-0.5582,2.2953,-0.1603,0.2849,0.0309,2222,2019-08-07 17:06:20:748
-0.4919,10.0827,-1.7621,-0.5175,-0.5582,2.2953,-0.1603,0.2849,0.0309,2228,2019-08-07 17:06:20:754
-0.4919,10.0827,-1.7621,-0.5175,-0.5582,2.2953,-0.1954,0.4159,0.0437,2233,2019-08-07 17:06:20:759
-0.4919,10.0827,-1.7621,1.3183,-0.2824,-0.134,-0.1954,0.4159,0.0437,2238,2019-08-07 17:06:20:764
-1.0516,10.0684,1.0945,1.3183,-0.2824,-0.134,-0.1954,0.4159,0.0437,2242,2019-08-07 17:06:20:768
-1.0516,10.0684,1.0945,1.3183,-0.2824,-0.134,-0.1805,0.2657,0.0991,2248,2019-08-07 17:06:20:774
-0.4823,9.9395,0.5713,1.3183,-0.2824,-0.134,-0.1805,0.2657,0.0991,2252,2019-08-07 17:06:20:778
-0.4823,9.9395,0.5713,0.2881,-0.1985,0.2866,-0.1123,-0.1881,0.1162,2258,2019-08-07 17:06:20:784
-0.4823,9.9395,0.5713,0.2881,-0.1985,0.2866,-0.1123,-0.1881,0.1162,2263,2019-08-07 17:06:20:789
0.709,9.844,-0.2678,0.2881,-0.1985,0.2866,-0.0857,-0.2754,0.1119,2268,2019-08-07 17:06:20:794
0.709,9.844,-0.2678,0.2881,-0.1985,0.2866,-0.0857,-0.2754,0.1119,2273,2019-08-07 17:06:20:799
1.3453,9.8249,-0.9654,-1.1183,-0.0326,1.5079,-0.1145,-0.0667,0.0736,2278,2019-08-07 17:06:20:804
1.3453,9.8249,-0.9654,-1.1183,-0.0326,1.5079,-0.1145,-0.0667,0.0736,2282,2019-08-07 17:06:20:808
1.3453,9.8249,-0.9654,-1.1183,-0.0326,1.5079,-0.1443,0.124,0.0427,2288,2019-08-07 17:06:20:814
0.9626,9.8393,-0.7156,-1.1183,-0.0326,1.5079,-0.1443,0.124,0.0427,2293,2019-08-07 17:06:20:819
0.9626,9.8393,-0.7156,-1.1183,-0.0326,1.5079,-0.1443,0.124,0.0427,2298,2019-08-07 17:06:20:824
0.0248,10.0588,0.213,-0.0513,-0.201,0.8572,-0.1667,0.2178,0.0203,2303,2019-08-07 17:06:20:829
0.0248,10.0588,0.213,-0.0513,-0.201,0.8572,-0.1667,0.2178,0.0203,2307,2019-08-07 17:06:20:833
0.0248,10.0588,0.213,-0.0513,-0.201,0.8572,-0.1464,0.123,0.0246,2313,2019-08-07 17:06:20:839
0.0201,10.0445,0.4299,0.1601,-0.2792,0.2455,-0.1464,0.123,0.0246,2318,2019-08-07 17:06:20:844
0.0201,10.0445,0.4299,0.1601,-0.2792,0.2455,-0.1464,0.123,0.0246,2322,2019-08-07 17:06:20:848
0.0201,10.0445,0.4299,0.1601,-0.2792,0.2455,-0.1092,-0.073,0.0064,2328,2019-08-07 17:06:20:854
0.2114,10.0302,0.0339,0.0317,-0.2415,0.5654,-0.1092,-0.073,0.0064,2333,2019-08-07 17:06:20:859
0.2114,10.0302,0.0339,0.0317,-0.2415,0.5654,-0.0836,-0.0549,1.0E-4,2337,2019-08-07 17:06:20:863
0.2114,10.0302,0.0339,0.0317,-0.2415,0.5654,-0.0836,-0.0549,1.0E-4,2343,2019-08-07 17:06:20:869
0.6133,9.6769,0.2837,0.0317,-0.2415,0.5654,-0.0729,0.0463,-0.0138,2348,2019-08-07 17:06:20:874
0.6133,9.6769,0.2837,-0.3591,0.0775,0.0974,-0.0729,0.0463,-0.0138,2353,2019-08-07 17:06:20:879
0.6133,9.6769,0.2837,-0.3591,0.0775,0.0974,-0.0474,0.0931,-0.0234,2358,2019-08-07 17:06:20:884
0.5269,9.677,0.7833,-0.3591,0.0775,0.0974,-0.0474,0.0931,-0.0234,2362,2019-08-07 17:06:20:888
0.5269,9.677,0.7833,0.0189,-0.1378,0.3657,-0.0197,0.0793,-0.0394,2368,2019-08-07 17:06:20:894
0.5269,9.677,0.7833,0.0189,-0.1378,0.3657,-0.0197,0.0793,-0.0394,2373,2019-08-07 17:06:20:899
0.2111,9.887,-0.0982,0.0189,-0.1378,0.3657,-0.0165,0.1081,-0.05,2377,2019-08-07 17:06:20:903
0.2111,9.887,-0.0982,0.0189,-0.1378,0.3657,-0.0165,0.1081,-0.05,2383,2019-08-07 17:06:20:909
-0.2099,9.9395,-0.2726,0.0189,-0.1378,0.3657,-0.0175,0.1784,-0.0372,2388,2019-08-07 17:06:20:914
-0.2099,9.9395,-0.2726,0.4608,-0.1326,0.74,-0.0175,0.1784,-0.0372,2393,2019-08-07 17:06:20:919
-0.2099,9.9395,-0.2726,0.4608,-0.1326,0.74,-0.0143,0.172,-0.017,2398,2019-08-07 17:06:20:924
-0.3247,9.8727,0.3449,0.5464,-0.0847,0.2735,-0.0143,0.172,-0.017,2402,2019-08-07 17:06:20:928
-0.3247,9.8727,0.3449,0.5464,-0.0847,0.2735,0.0091,0.0345,0.0139,2408,2019-08-07 17:06:20:934
-0.1956,10.0302,-0.0086,0.5464,-0.0847,0.2735,0.0091,0.0345,0.0139,2413,2019-08-07 17:06:20:939
-0.1956,10.0302,-0.0086,0.5464,-0.0847,0.2735,0.0134,-0.0517,0.0214,2417,2019-08-07 17:06:20:943
-0.1956,10.0302,-0.0086,0.3157,-0.3325,0.9602,0.0134,-0.0517,0.0214,2423,2019-08-07 17:06:20:949
-0.052,10.1114,-0.5365,0.3157,-0.3325,0.9602,6.0E-4,-0.0613,0.0224,2428,2019-08-07 17:06:20:954
-0.052,10.1114,-0.5365,0.3157,-0.3325,0.9602,6.0E-4,-0.0613,0.0224,2432,2019-08-07 17:06:20:958
0.1776,10.0398,-0.3244,0.3157,-0.3325,0.9602,-0.0207,-0.0166,0.0288,2438,2019-08-07 17:06:20:964
0.1776,10.0398,-0.3244,0.0135,-0.2176,0.8489,-0.0207,-0.0166,0.0288,2443,2019-08-07 17:06:20:969
0.1776,10.0398,-0.3244,0.0135,-0.2176,0.8489,-0.0207,-0.0166,0.0288,2447,2019-08-07 17:06:20:973
0.259,9.9204,0.0857,0.0135,-0.2176,0.8489,-0.0175,-0.0432,0.0246,2453,2019-08-07 17:06:20:979
0.259,9.9204,0.0857,0.0135,-0.2176,0.8489,-0.0175,-0.0432,0.0246,2458,2019-08-07 17:06:20:984
0.2829,9.9252,0.1894,-0.0627,-0.1412,0.5221,-0.009,-0.0826,0.0107,2463,2019-08-07 17:06:20:989
0.2829,9.9252,0.1894,-0.0627,-0.1412,0.5221,-0.009,-0.0826,0.0107,2467,2019-08-07 17:06:20:993
0.2829,9.9252,0.1894,-0.0627,-0.1412,0.5221,0.0038,-0.056,0.0107,2473,2019-08-07 17:06:20:999
0.5795,9.9061,0.3544,-0.0627,-0.1412,0.5221,0.0038,-0.056,0.0107,2478,2019-08-07 17:06:21:004
0.5795,9.9061,0.3544,-0.4362,-0.0409,0.4104,0.0208,-0.0475,0.0022,2482,2019-08-07 17:06:21:008
0.5795,9.9061,0.3544,-0.4362,-0.0409,0.4104,0.0208,-0.0475,0.0022,2488,2019-08-07 17:06:21:014
0.6561,9.8775,0.1847,-0.4362,-0.0409,0.4104,0.0208,-0.0475,0.0022,2492,2019-08-07 17:06:21:018
0.6561,9.8775,0.1847,-0.4362,-0.0409,0.4104,0.0357,-0.0155,-0.0106,2498,2019-08-07 17:06:21:024
0.7326,9.8297,0.0951,-0.5532,-0.0261,0.4481,0.0357,-0.0155,-0.0106,2503,2019-08-07 17:06:21:029
0.7326,9.8297,0.0951,-0.5532,-0.0261,0.4481,0.0474,0.0207,-0.0213,2508,2019-08-07 17:06:21:034
0.7326,9.8297,0.0951,-0.5532,-0.0261,0.4481,0.0474,0.0207,-0.0213,2514,2019-08-07 17:06:21:040
0.4599,10.1162,-0.3386,-0.5532,-0.0261,0.4481,0.0336,0.0473,-0.0362,2518,2019-08-07 17:06:21:044
0.4599,10.1162,-0.3386,0.1654,-0.2972,1.1358,0.0336,0.0473,-0.0362,2522,2019-08-07 17:06:21:048
-0.0855,10.0398,-0.7157,0.1654,-0.2972,1.1358,0.0016,0.124,-0.0415,2528,2019-08-07 17:06:21:054
-0.0855,10.0398,-0.7157,0.4033,-0.3827,1.1729,0.0016,0.124,-0.0415,2533,2019-08-07 17:06:21:059
-0.0855,10.0398,-0.7157,0.4033,-0.3827,1.1729,-0.0239,0.1176,-0.033,2538,2019-08-07 17:06:21:064
-0.3582,10.1257,-0.1359,0.4033,-0.3827,1.1729,-0.0239,0.1176,-0.033,2542,2019-08-07 17:06:21:068
-0.3582,10.1257,-0.1359,0.4033,-0.3827,1.1729,-0.0239,0.1176,-0.033,2548,2019-08-07 17:06:21:074
-0.3821,9.9634,-0.1312,0.6402,-0.2248,0.6763,-0.0207,0.026,-0.0266,2553,2019-08-07 17:06:21:079
-0.3821,9.9634,-0.1312,0.6402,-0.2248,0.6763,-0.0207,0.026,-0.0266,2558,2019-08-07 17:06:21:084
-0.3821,9.9634,-0.1312,0.6402,-0.2248,0.6763,-0.0186,-0.0496,-0.0031,2563,2019-08-07 17:06:21:089
-0.0903,9.9825,-0.0982,0.6402,-0.2248,0.6763,-0.0186,-0.0496,-0.0031,2568,2019-08-07 17:06:21:094
-0.0903,9.9825,-0.0982,0.206,-0.1482,0.7688,-0.0271,-0.0422,0.0032,2572,2019-08-07 17:06:21:098
-0.0903,9.9825,-0.0982,0.206,-0.1482,0.7688,-0.0271,-0.0422,0.0032,2578,2019-08-07 17:06:21:104
0.1298,9.9157,-0.0416,0.206,-0.1482,0.7688,-0.0239,-0.0304,0.0107,2583,2019-08-07 17:06:21:109
0.1298,9.9157,-0.0416,0.206,-0.1482,0.7688,-0.0239,-0.0304,0.0107,2587,2019-08-07 17:06:21:113
0.1298,9.9157,-0.0416,0.206,-0.1482,0.7688,-0.0239,-0.0304,0.0107,2593,2019-08-07 17:06:21:119
0.1203,9.8727,0.3402,0.0928,-0.0814,0.2272,-0.0048,-0.0283,0.0118,2597,2019-08-07 17:06:21:123
0.1203,9.8727,0.3402,0.0928,-0.0814,0.2272,-0.0048,-0.0283,0.0118,2603,2019-08-07 17:06:21:129
0.1203,9.8727,0.3402,0.0928,-0.0814,0.2272,0.0102,-0.0358,0.0107,2608,2019-08-07 17:06:21:134
0.1681,9.887,0.0244,0.0049,-0.0717,0.5379,0.0102,-0.0358,0.0107,2613,2019-08-07 17:06:21:139
0.1681,9.887,0.0244,0.0049,-0.0717,0.5379,0.0208,-0.0326,0.0118,2618,2019-08-07 17:06:21:144
0.1681,9.887,0.0244,0.0049,-0.0717,0.5379,0.0208,-0.0326,0.0118,2623,2019-08-07 17:06:21:149
0.2207,9.9395,0.015,0.0049,-0.0717,0.5379,0.0272,-0.0358,0.0107,2628,2019-08-07 17:06:21:154
0.2207,9.9395,0.015,-0.011,-0.0807,0.5474,0.0272,-0.0358,0.0107,2633,2019-08-07 17:06:21:159
0.2686,9.9634,0.0951,-0.011,-0.0807,0.5474,0.0272,-0.0358,0.0107,2638,2019-08-07 17:06:21:164
0.2686,9.9634,0.0951,-0.011,-0.0807,0.5474,0.0347,-0.0251,0.0022,2643,2019-08-07 17:06:21:169
0.2686,9.9634,0.0951,-0.1633,-0.1234,0.4387,0.0347,-0.0251,0.0022,2648,2019-08-07 17:06:21:174
0.5509,9.887,0.0621,-0.1633,-0.1234,0.4387,0.0442,-0.0485,-0.0085,2653,2019-08-07 17:06:21:179
0.5509,9.887,0.0621,-0.1633,-0.1234,0.4387,0.0442,-0.0485,-0.0085,2657,2019-08-07 17:06:21:183
0.46,9.9204,-0.2914,-0.2389,-0.1275,0.8259,0.0442,-0.0379,-0.0255,2663,2019-08-07 17:06:21:189
0.46,9.9204,-0.2914,-0.2389,-0.1275,0.8259,0.0442,-0.0379,-0.0255,2668,2019-08-07 17:06:21:194
0.46,9.9204,-0.2914,-0.2389,-0.1275,0.8259,0.0357,0.0239,-0.0372,2672,2019-08-07 17:06:21:198
0.3451,9.8536,-0.0981,-0.2389,-0.1275,0.8259,0.0357,0.0239,-0.0372,2678,2019-08-07 17:06:21:204
0.3451,9.8536,-0.0981,0.0077,-0.1792,0.488,0.0325,0.0644,-0.05,2683,2019-08-07 17:06:21:209
0.3451,9.8536,-0.0981,0.0077,-0.1792,0.488,0.0325,0.0644,-0.05,2687,2019-08-07 17:06:21:213
0.082,9.9443,0.1375,0.0077,-0.1792,0.488,0.041,0.0495,-0.0521,2693,2019-08-07 17:06:21:219
0.082,9.9443,0.1375,0.0077,-0.1792,0.488,0.041,0.0495,-0.0521,2698,2019-08-07 17:06:21:224
0.0485,10.0016,0.0668,0.1823,-0.1449,0.51,0.041,0.0495,-0.0521,2703,2019-08-07 17:06:21:229
0.0485,10.0016,0.0668,0.1823,-0.1449,0.51,0.0517,0.042,-0.05,2707,2019-08-07 17:06:21:233
0.0342,9.8966,0.0291,0.1823,-0.1449,0.51,0.0592,0.0409,-0.0394,2713,2019-08-07 17:06:21:239
0.0342,9.8966,0.0291,0.1823,-0.1449,0.51,0.0592,0.0409,-0.0394,2718,2019-08-07 17:06:21:244
0.0342,9.8966,0.0291,0.1823,-0.1449,0.51,0.0592,0.0409,-0.0394,2723,2019-08-07 17:06:21:249
0.1251,9.9634,-0.0133,0.1147,-0.1391,0.4946,0.0613,0.0303,-0.0383,2728,2019-08-07 17:06:21:254
0.1251,9.9634,-0.0133,0.1147,-0.1391,0.4946,0.0613,0.0303,-0.0383,2733,2019-08-07 17:06:21:259
0.1251,9.9634,-0.0133,0.1147,-0.1391,0.4946,0.0709,0.0207,-0.0319,2737,2019-08-07 17:06:21:263
0.0581,9.9682,-0.2867,0.1147,-0.1391,0.4946,0.0709,0.0207,-0.0319,2743,2019-08-07 17:06:21:269
0.0581,9.9682,-0.2867,0.1122,-0.1667,0.7731,0.0624,0.0271,-0.0298,2748,2019-08-07 17:06:21:274
0.0581,9.9682,-0.2867,0.1122,-0.1667,0.7731,0.0624,0.0271,-0.0298,2752,2019-08-07 17:06:21:278
0.0055,10.0064,-0.2961,0.1122,-0.1667,0.7731,0.0496,0.0548,-0.0244,2758,2019-08-07 17:06:21:284
0.0055,10.0064,-0.2961,0.1122,-0.1667,0.7731,0.0496,0.0548,-0.0244,2763,2019-08-07 17:06:21:289
0.0533,9.9777,-0.249,0.1242,-0.1801,0.7092,0.0496,0.0452,-0.0255,2768,2019-08-07 17:06:21:294
0.0533,9.9777,-0.249,0.1242,-0.1801,0.7092,0.0496,0.0452,-0.0255,2772,2019-08-07 17:06:21:298
0.0725,9.9586,-0.0227,0.1242,-0.1801,0.7092,0.0528,0.026,-0.0191,2778,2019-08-07 17:06:21:304
0.0725,9.9586,-0.0227,0.1242,-0.1801,0.7092,0.0528,0.026,-0.0191,2783,2019-08-07 17:06:21:309
0.0725,9.9586,-0.0227,0.1427,-0.1985,0.6052,0.0528,0.026,-0.0191,2787,2019-08-07 17:06:21:313
0.106,9.9586,-0.2207,0.1427,-0.1985,0.6052,0.0517,0.01,-0.0117,2793,2019-08-07 17:06:21:319
0.106,9.9586,-0.2207,0.1427,-0.1985,0.6052,0.0517,0.01,-0.0117,2798,2019-08-07 17:06:21:324
0.0868,10.0064,-0.2301,0.1427,-0.1985,0.6052,0.0421,0.0154,-0.0127,2802,2019-08-07 17:06:21:328
0.0868,10.0064,-0.2301,0.0965,-0.193,0.7273,0.0421,0.0154,-0.0127,2808,2019-08-07 17:06:21:334
0.0868,10.0064,-0.2301,0.0965,-0.193,0.7273,0.0357,0.0207,-0.0117,2812,2019-08-07 17:06:21:338
0.0533,9.9729,-0.1076,0.0965,-0.193,0.7273,0.0357,0.0207,-0.0117,2818,2019-08-07 17:06:21:344
0.0533,9.9729,-0.1076,0.0965,-0.193,0.7273,0.0421,0.009,-0.0042,2822,2019-08-07 17:06:21:348
0.0486,9.9634,-0.1123,0.1176,-0.1637,0.5312,0.0421,0.009,-0.0042,2828,2019-08-07 17:06:21:354
0.0486,9.9634,-0.1123,0.1176,-0.1637,0.5312,0.0432,-0.0081,-0.001,2833,2019-08-07 17:06:21:359
0.0486,9.9634,-0.1123,0.1176,-0.1637,0.5312,0.0432,-0.0081,-0.001,2837,2019-08-07 17:06:21:363
0.0533,9.9825,-0.2207,0.1176,-0.1637,0.5312,0.0379,-0.007,1.0E-4,2843,2019-08-07 17:06:21:369
0.0533,9.9825,-0.2207,0.0591,-0.1489,0.7304,0.0379,-0.007,1.0E-4,2848,2019-08-07 17:06:21:374
0.2256,9.9682,-0.2207,0.0591,-0.1489,0.7304,0.0379,-0.007,1.0E-4,2853,2019-08-07 17:06:21:379
0.2256,9.9682,-0.2207,0.0591,-0.1489,0.7304,0.0336,-0.0038,-0.0063,2858,2019-08-07 17:06:21:384
0.2256,9.9682,-0.2207,0.0591,-0.1489,0.7304,0.0336,-0.0038,-0.0063,2863,2019-08-07 17:06:21:389
0.2782,9.9347,-0.1453,-0.1136,-0.1341,0.5396,0.0336,0.0058,-0.001,2867,2019-08-07 17:06:21:393
0.2782,9.9347,-0.1453,-0.1136,-0.1341,0.5396,0.0336,0.0058,-0.001,2873,2019-08-07 17:06:21:399
0.2782,9.9347,-0.1453,-0.1136,-0.1341,0.5396,0.0347,0.0239,-0.0074,2877,2019-08-07 17:06:21:403
0.2064,9.9347,-0.1877,-0.1136,-0.1341,0.5396,0.0347,0.0239,-0.0074,2883,2019-08-07 17:06:21:409
0.2064,9.9347,-0.1877,0.0193,-0.167,0.5706,0.0347,0.0239,-0.0074,2887,2019-08-07 17:06:21:413
0.106,9.9586,-0.1453,0.0193,-0.167,0.5706,0.0336,0.025,-0.0074,2893,2019-08-07 17:06:21:419
0.106,9.9586,-0.1453,0.0193,-0.167,0.5706,0.0336,0.025,-0.0074,2898,2019-08-07 17:06:21:424
0.106,9.9586,-0.1453,0.0193,-0.167,0.5706,0.0357,0.0207,-0.0053,2902,2019-08-07 17:06:21:428
0.0534,9.9586,-0.1641,0.1417,-0.1188,0.5216,0.0357,0.0207,-0.0053,2908,2019-08-07 17:06:21:434
0.0534,9.9586,-0.1641,0.1417,-0.1188,0.5216,0.0379,0.0164,0.0054,2913,2019-08-07 17:06:21:439
-0.1237,9.9586,-0.1641,0.1417,-0.1188,0.5216,0.0379,0.0164,0.0054,2918,2019-08-07 17:06:21:444
-0.1237,9.9586,-0.1641,0.1417,-0.1188,0.5216,0.0357,-0.0049,0.0256,2922,2019-08-07 17:06:21:448
-0.1237,9.9586,-0.1641,0.2959,-0.1423,0.4771,0.0357,-0.0049,0.0256,2928,2019-08-07 17:06:21:454
-0.1428,9.9586,-0.1217,0.2959,-0.1423,0.4771,0.0347,-0.0379,0.0352,2932,2019-08-07 17:06:21:458
-0.1428,9.9586,-0.1217,0.2959,-0.1423,0.4771,0.0347,-0.0379,0.0352,2938,2019-08-07 17:06:21:464
0.0342,10.0016,-0.0086,0.2959,-0.1423,0.4771,0.0442,-0.0762,0.0416,2943,2019-08-07 17:06:21:469
0.0342,10.0016,-0.0086,0.2959,-0.1423,0.4771,0.0442,-0.0762,0.0416,2947,2019-08-07 17:06:21:473
0.0342,10.0016,-0.0086,0.0918,-0.1992,0.4897,0.0442,-0.0762,0.0416,2953,2019-08-07 17:06:21:479
0.283,9.9347,-0.3338,0.0918,-0.1992,0.4897,0.0432,-0.0986,0.0427,2958,2019-08-07 17:06:21:484
0.283,9.9347,-0.3338,0.0918,-0.1992,0.4897,0.0432,-0.0986,0.0427,2963,2019-08-07 17:06:21:489
0.283,9.9347,-0.3338,-0.2384,-0.2562,0.6308,0.041,-0.0656,0.0267,2967,2019-08-07 17:06:21:493
0.3213,10.0207,-0.3715,-0.2384,-0.2562,0.6308,0.041,-0.0656,0.0267,2973,2019-08-07 17:06:21:499
0.3213,10.0207,-0.3715,-0.2384,-0.2562,0.6308,0.0336,0.0079,0.0171,2978,2019-08-07 17:06:21:504
-0.7743,9.9538,-1.1729,-0.2384,-0.2562,0.6308,0.0336,0.0079,0.0171,2982,2019-08-07 17:06:21:508
-0.7743,9.9538,-1.1729,0.5392,0.3309,-5.9867,-0.1273,-1.1585,0.0789,2988,2019-08-07 17:06:21:514
-0.7743,9.9538,-1.1729,0.5392,0.3309,-5.9867,-0.1273,-1.1585,0.0789,2993,2019-08-07 17:06:21:519
0.8524,9.6531,0.6985,0.5392,0.3309,-5.9867,0.1529,-0.5396,0.0096,2997,2019-08-07 17:06:21:523
0.8524,9.6531,0.6985,0.5392,0.3309,-5.9867,0.1529,-0.5396,0.0096,3003,2019-08-07 17:06:21:529
1.0246,9.9204,-1.6773,-0.8304,-0.1169,1.9758,0.0293,-0.1774,0.0405,3009,2019-08-07 17:06:21:535
1.0246,9.9204,-1.6773,-0.8304,-0.1169,1.9758,0.0293,-0.1774,0.0405,3013,2019-08-07 17:06:21:539
1.0246,9.9204,-1.6773,-0.8304,-0.1169,1.9758,0.0293,-0.1774,0.0405,3018,2019-08-07 17:06:21:544
0.7615,10.1639,-1.385,-0.3283,-0.2456,1.2498,0.0442,0.1677,0.0214,3023,2019-08-07 17:06:21:549
0.7615,10.1639,-1.385,-0.3283,-0.2456,1.2498,0.0442,0.1677,0.0214,3028,2019-08-07 17:06:21:554
0.7615,10.1639,-1.385,-0.3283,-0.2456,1.2498,0.0197,0.2156,0.0331,3033,2019-08-07 17:06:21:559
-0.1332,9.9204,0.6231,0.3381,-0.0786,-0.1758,0.0197,0.2156,0.0331,3038,2019-08-07 17:06:21:564
-0.1332,9.9204,0.6231,0.3381,-0.0786,-0.1758,0.0442,0.0409,0.0373,3042,2019-08-07 17:06:21:568
-0.1332,9.9204,0.6231,0.3381,-0.0786,-0.1758,0.0442,0.0409,0.0373,3048,2019-08-07 17:06:21:574
-0.0949,9.9538,-0.414,0.2976,-0.1501,0.7002,0.0368,0.0772,0.0512,3053,2019-08-07 17:06:21:579
-0.0949,9.9538,-0.414,0.2976,-0.1501,0.7002,0.0368,0.0772,0.0512,3057,2019-08-07 17:06:21:583
0.3835,10.0589,-0.8665,0.2976,-0.1501,0.7002,-0.0069,0.2178,0.0395,3063,2019-08-07 17:06:21:589
0.3835,10.0589,-0.8665,0.2976,-0.1501,0.7002,-0.0069,0.2178,0.0395,3067,2019-08-07 17:06:21:593
0.3835,10.0589,-0.8665,0.1148,-0.2932,0.6558,-0.0069,0.2178,0.0395,3073,2019-08-07 17:06:21:599
0.0103,9.8679,0.5477,0.1148,-0.2932,0.6558,-0.0175,0.0718,0.0459,3078,2019-08-07 17:06:21:604
0.0103,9.8679,0.5477,0.1148,-0.2932,0.6558,-0.0175,0.0718,0.0459,3083,2019-08-07 17:06:21:609
0.0103,9.8679,0.5477,0.1148,-0.2932,0.6558,0.0165,-0.105,0.0277,3088,2019-08-07 17:06:21:614
0.1204,10.0111,-0.0981,0.097,-0.2075,0.3756,0.0165,-0.105,0.0277,3093,2019-08-07 17:06:21:619
0.1204,10.0111,-0.0981,0.097,-0.2075,0.3756,0.0197,-0.1306,0.0224,3097,2019-08-07 17:06:21:623
0.3261,9.992,-0.8948,0.097,-0.2075,0.3756,0.0197,-0.1306,0.0224,3103,2019-08-07 17:06:21:629
0.3261,9.992,-0.8948,0.097,-0.2075,0.3756,-0.0154,0.0143,0.0235,3108,2019-08-07 17:06:21:634