ACCELEROMETER X (m/s²),ACCELEROMETER Y (m/s²),ACCELEROMETER Z (m/s²),LINEAR ACCELERATION X (m/s²),LINEAR ACCELERATION Y (m/s²),LINEAR ACCELERATION Z (m/s²),GYROSCOPE X (rad/s),GYROSCOPE Y (rad/s),GYROSCOPE Z (rad/s),Time since start in ms ,YYYY-MO-DD HH-MI-SS_SSS
0.3463,9.821,-0.279,-0.1687,-0.0991,0.313,0.0357,-0.008,-0.0213,2,2019-08-07 17:06:01:221
0.2267,9.7685,-0.1801,-0.1687,-0.0991,0.313,0.0315,0.0154,-0.0192,8,2019-08-07 17:06:01:227
0.2267,9.7685,-0.1801,0.0382,0.0108,0.1629,0.0315,0.0154,-0.0192,12,2019-08-07 17:06:01:231
0.0353,9.9165,-0.0151,0.0382,0.0108,0.1629,0.0389,-0.0123,-0.0181,18,2019-08-07 17:06:01:237
0.0353,9.9165,-0.0151,0.0382,0.0108,0.1629,0.0389,-0.0123,-0.0181,22,2019-08-07 17:06:01:241
0.0353,9.9165,-0.0151,0.0382,0.0108,0.1629,0.0624,-0.0581,-0.017,28,2019-08-07 17:06:01:247
0.0066,9.9929,0.0839,0.1913,-0.1849,-0.0819,0.0624,-0.0581,-0.017,33,2019-08-07 17:06:01:252
0.0066,9.9929,0.0839,0.1913,-0.1849,-0.0819,0.0624,-0.0581,-0.017,37,2019-08-07 17:06:01:256
0.0066,9.9929,0.0839,0.1913,-0.1849,-0.0819,0.0752,-0.0709,-0.017,43,2019-08-07 17:06:01:262
0.1836,9.9308,-0.0622,0.1913,-0.1849,-0.0819,0.0752,-0.0709,-0.017,47,2019-08-07 17:06:01:266
0.1836,9.9308,-0.0622,-0.1045,-0.0463,0.1704,0.0911,-0.0794,-0.0245,53,2019-08-07 17:06:01:272
0.3607,9.9594,-0.3309,-0.1045,-0.0463,0.1704,0.0911,-0.0794,-0.0245,57,2019-08-07 17:06:01:276
0.3607,9.9594,-0.3309,-0.1211,-0.0893,0.4941,0.0911,-0.0581,-0.0309,63,2019-08-07 17:06:01:282
0.3607,9.9594,-0.3309,-0.1211,-0.0893,0.4941,0.0911,-0.0581,-0.0309,67,2019-08-07 17:06:01:286
0.2985,9.8831,-0.5289,-0.1211,-0.0893,0.4941,0.0837,-6.0E-4,-0.0394,73,2019-08-07 17:06:01:292
0.2985,9.8831,-0.5289,-0.1211,-0.0893,0.4941,0.0837,-6.0E-4,-0.0394,78,2019-08-07 17:06:01:297
0.2506,9.9117,-0.2743,-0.0656,-0.1036,0.2285,0.0837,-6.0E-4,-0.0394,82,2019-08-07 17:06:01:301
0.2506,9.9117,-0.2743,-0.0656,-0.1036,0.2285,0.0805,-0.0017,-0.0394,88,2019-08-07 17:06:01:307
0.2506,9.9117,-0.2743,-0.0656,-0.1036,0.2285,0.0805,-0.0017,-0.0394,93,2019-08-07 17:06:01:312
0.1358,9.8878,-0.1753,-0.0656,-0.1036,0.2285,0.0847,-0.0283,-0.0384,97,2019-08-07 17:06:01:316
0.1358,9.8878,-0.1753,0.0125,-0.1894,0.1025,0.0847,-0.0283,-0.0384,103,2019-08-07 17:06:01:322
0.1119,10.0072,-0.4063,0.0125,-0.1894,0.1025,0.0847,-0.057,-0.0362,108,2019-08-07 17:06:01:327
0.1119,10.0072,-0.4063,0.0125,-0.1894,0.1025,0.0847,-0.057,-0.0362,113,2019-08-07 17:06:01:332
0.1119,10.0072,-0.4063,0.0125,-0.1894,0.1025,0.0783,-0.057,-0.0405,117,2019-08-07 17:06:01:336
0.0354,10.1456,-0.675,0.1428,-0.3136,0.5726,0.0783,-0.057,-0.0405,123,2019-08-07 17:06:01:342
0.0354,10.1456,-0.675,0.1428,-0.3136,0.5726,0.0741,-0.0421,-0.0416,127,2019-08-07 17:06:01:346
0.0306,9.9785,-0.5383,0.1428,-0.3136,0.5726,0.0741,-0.0421,-0.0416,133,2019-08-07 17:06:01:352
0.0306,9.9785,-0.5383,0.1428,-0.3136,0.5726,0.0666,-0.0347,-0.0405,137,2019-08-07 17:06:01:356
0.021,9.9212,-0.5006,0.1381,-0.1131,0.3995,0.0666,-0.0347,-0.0405,144,2019-08-07 17:06:01:363
0.021,9.9212,-0.5006,0.1381,-0.1131,0.3995,0.0549,-0.0613,-0.0352,148,2019-08-07 17:06:01:367
0.021,9.9212,-0.5006,0.1381,-0.1131,0.3995,0.0549,-0.0613,-0.0352,152,2019-08-07 17:06:01:371
-0.0412,9.9833,-0.3922,0.1381,-0.1131,0.3995,0.0592,-0.0794,-0.0266,158,2019-08-07 17:06:01:377
-0.0412,9.9833,-0.3922,0.1683,-0.1847,0.1638,0.0592,-0.0794,-0.0266,163,2019-08-07 17:06:01:382
-0.0412,9.9833,-0.3922,0.1683,-0.1847,0.1638,0.0613,-0.0709,-0.0245,168,2019-08-07 17:06:01:387
0.1024,10.0167,-0.2979,0.1683,-0.1847,0.1638,0.0613,-0.0709,-0.0245,173,2019-08-07 17:06:01:392
0.1024,10.0167,-0.2979,0.1683,-0.1847,0.1638,0.0624,-0.072,-0.0288,178,2019-08-07 17:06:01:397
0.1024,10.0167,-0.2979,0.0857,-0.1848,0.3383,0.0624,-0.072,-0.0288,182,2019-08-07 17:06:01:401
0.0593,9.9929,-0.4676,0.0857,-0.1848,0.3383,0.0613,-0.0613,-0.032,188,2019-08-07 17:06:01:407
0.0593,9.9929,-0.4676,0.0857,-0.1848,0.3383,0.0613,-0.0613,-0.032,193,2019-08-07 17:06:01:412
0.155,9.8544,-0.3639,0.0857,-0.1848,0.3383,0.0624,-0.0453,-0.0384,198,2019-08-07 17:06:01:417
0.155,9.8544,-0.3639,-0.1172,-0.0608,0.1588,0.0624,-0.0453,-0.0384,203,2019-08-07 17:06:01:422
0.289,9.8544,-0.3356,-0.1172,-0.0608,0.1588,0.0624,-0.0453,-0.0384,208,2019-08-07 17:06:01:427
0.289,9.8544,-0.3356,-0.1172,-0.0608,0.1588,0.0645,-0.0613,-0.0352,213,2019-08-07 17:06:01:432
0.289,9.8544,-0.3356,-0.1172,-0.0608,0.1588,0.0645,-0.0613,-0.0352,217,2019-08-07 17:06:01:436
0.1981,9.9069,-0.6373,-0.0087,-0.1277,0.4733,0.0666,-0.0741,-0.0362,223,2019-08-07 17:06:01:442
0.1981,9.9069,-0.6373,-0.0087,-0.1277,0.4733,0.0666,-0.0741,-0.0362,228,2019-08-07 17:06:01:447
0.1981,9.9069,-0.6373,-0.0087,-0.1277,0.4733,0.0602,-0.0325,-0.0298,232,2019-08-07 17:06:01:451
0.0019,9.8974,-0.5147,-0.0087,-0.1277,0.4733,0.0602,-0.0325,-0.0298,238,2019-08-07 17:06:01:457
0.0019,9.8974,-0.5147,0.209,-0.147,0.0731,0.0496,-6.0E-4,-0.0266,244,2019-08-07 17:06:01:463
-0.0794,9.9308,-0.2555,0.209,-0.147,0.0731,0.0496,-6.0E-4,-0.0266,248,2019-08-07 17:06:01:467
-0.0794,9.9308,-0.2555,0.209,-0.147,0.0731,0.0592,-0.0208,-0.0266,253,2019-08-07 17:06:01:472
-0.0794,9.9308,-0.2555,0.209,-0.147,0.0731,0.0592,-0.0208,-0.0266,258,2019-08-07 17:06:01:477
-0.0555,10.0024,-0.4581,0.209,-0.147,0.0731,0.0634,-0.0688,-0.0202,263,2019-08-07 17:06:01:482
-0.0555,10.0024,-0.4581,0.1501,-0.2044,0.4558,0.0634,-0.0688,-0.0202,267,2019-08-07 17:06:01:486
-0.0889,9.926,-0.7315,0.1501,-0.2044,0.4558,0.0709,-0.0634,-0.0192,273,2019-08-07 17:06:01:492
-0.0889,9.926,-0.7315,0.1501,-0.2044,0.4558,0.0709,-0.0634,-0.0192,278,2019-08-07 17:06:01:497
-0.0889,9.926,-0.7315,0.1501,-0.2044,0.4558,0.0656,-0.0187,-0.0096,283,2019-08-07 17:06:01:502
-0.0267,9.8735,-0.2884,0.1404,-0.0663,0.0854,0.0656,-0.0187,-0.0096,288,2019-08-07 17:06:01:507
-0.0267,9.8735,-0.2884,0.1404,-0.0663,0.0854,0.0698,-0.0347,-0.0085,293,2019-08-07 17:06:01:512
-0.0315,9.8878,-0.0292,0.1404,-0.0663,0.0854,0.0698,-0.0347,-0.0085,297,2019-08-07 17:06:01:516
-0.0315,9.8878,-0.0292,0.1404,-0.0663,0.0854,0.0922,-0.0741,-0.0139,303,2019-08-07 17:06:01:522
-0.0315,9.8878,-0.0292,0.1179,-0.0904,-0.2395,0.0922,-0.0741,-0.0139,307,2019-08-07 17:06:01:526
0.0737,9.9356,0.018,0.1179,-0.0904,-0.2395,0.1167,-0.1124,-0.0202,313,2019-08-07 17:06:01:532
0.0737,9.9356,0.018,0.1179,-0.0904,-0.2395,0.1167,-0.1124,-0.0202,317,2019-08-07 17:06:01:536
0.3512,9.8496,-0.0575,0.1179,-0.0904,-0.2395,0.1369,-0.1348,-0.0298,323,2019-08-07 17:06:01:542
0.3512,9.8496,-0.0575,-0.2882,-0.0383,-0.1394,0.1369,-0.1348,-0.0298,327,2019-08-07 17:06:01:546
0.3512,9.8496,-0.0575,-0.2882,-0.0383,-0.1394,0.155,-0.1476,-0.0373,333,2019-08-07 17:06:01:552
0.4326,9.9069,-0.4299,-0.2882,-0.0383,-0.1394,0.155,-0.1476,-0.0373,337,2019-08-07 17:06:01:556
0.4326,9.9069,-0.4299,-0.2882,-0.0383,-0.1394,0.1646,-0.105,-0.0469,343,2019-08-07 17:06:01:562
0.2843,9.8496,-0.5147,-0.2225,-0.0773,0.2244,0.1646,-0.105,-0.0469,348,2019-08-07 17:06:01:567
0.2843,9.8496,-0.5147,-0.2225,-0.0773,0.2244,0.1742,-0.056,-0.0554,352,2019-08-07 17:06:01:571
0.2843,9.8496,-0.5147,-0.2225,-0.0773,0.2244,0.1742,-0.056,-0.0554,358,2019-08-07 17:06:01:577
0.3034,9.7923,-0.0905,-0.2225,-0.0773,0.2244,0.1891,-0.0741,-0.0597,362,2019-08-07 17:06:01:581
0.3034,9.7923,-0.0905,-0.2563,0.0268,-0.2064,0.1891,-0.0741,-0.0597,368,2019-08-07 17:06:01:587
0.3178,9.9499,-0.1659,-0.2563,0.0268,-0.2064,0.2115,-0.1231,-0.0692,372,2019-08-07 17:06:01:591
0.3178,9.9499,-0.1659,-0.2563,0.0268,-0.2064,0.2115,-0.1231,-0.0692,378,2019-08-07 17:06:01:597
0.3178,9.9499,-0.1659,-0.2563,0.0268,-0.2064,0.2392,-0.121,-0.081,382,2019-08-07 17:06:01:601
0.2508,10.0692,-0.609,-0.1737,-0.2657,0.2596,0.2392,-0.121,-0.081,388,2019-08-07 17:06:01:607
0.2508,10.0692,-0.609,-0.1737,-0.2657,0.2596,0.2456,-0.0634,-0.0884,393,2019-08-07 17:06:01:612
0.2508,10.0692,-0.609,-0.1737,-0.2657,0.2596,0.2456,-0.0634,-0.0884,397,2019-08-07 17:06:01:616
0.1743,9.9403,-0.642,-0.1737,-0.2657,0.2596,0.2456,-0.0144,-0.0948,403,2019-08-07 17:06:01:622
0.1743,9.9403,-0.642,0.0575,-0.0623,0.1567,0.2456,-0.0144,-0.0948,408,2019-08-07 17:06:01:627
-0.0362,9.8783,-0.444,0.0575,-0.0623,0.1567,0.2456,-0.0144,-0.0948,412,2019-08-07 17:06:01:631
-0.0362,9.8783,-0.444,0.0575,-0.0623,0.1567,0.2552,-0.0155,-0.1001,418,2019-08-07 17:06:01:637
-0.0362,9.8783,-0.444,0.0575,-0.0623,0.1567,0.2552,-0.0155,-0.1001,423,2019-08-07 17:06:01:642
-0.1032,9.8878,-0.1706,0.151,-0.1074,-0.2335,0.2893,-0.0602,-0.1076,428,2019-08-07 17:06:01:647
-0.1032,9.8878,-0.1706,0.151,-0.1074,-0.2335,0.2893,-0.0602,-0.1076,432,2019-08-07 17:06:01:651
0.0164,9.9737,-0.3968,0.151,-0.1074,-0.2335,0.3138,-0.106,-0.114,438,2019-08-07 17:06:01:657
0.0164,9.9737,-0.3968,0.151,-0.1074,-0.2335,0.3138,-0.106,-0.114,442,2019-08-07 17:06:01:661
0.27,9.9976,-0.6325,-0.2316,-0.1771,0.0123,0.3276,-0.1082,-0.1342,448,2019-08-07 17:06:01:667
0.27,9.9976,-0.6325,-0.2316,-0.1771,0.0123,0.3276,-0.1082,-0.1342,453,2019-08-07 17:06:01:672
0.27,9.9976,-0.6325,-0.2316,-0.1771,0.0123,0.3276,-0.1082,-0.1342,458,2019-08-07 17:06:01:677
0.3035,9.8162,-0.8588,-0.2316,-0.1771,0.0123,0.3436,-0.072,-0.1481,462,2019-08-07 17:06:01:681
0.3035,9.8162,-0.8588,-0.2633,-0.0664,0.2919,0.3436,-0.072,-0.1481,468,2019-08-07 17:06:01:687
0.3035,9.8162,-0.8588,-0.2633,-0.0664,0.2919,0.3415,-0.0357,-0.1428,472,2019-08-07 17:06:01:691
0.2891,9.8783,-0.9625,-0.2633,-0.0664,0.2919,0.3415,-0.0357,-0.1428,478,2019-08-07 17:06:01:697
0.2891,9.8783,-0.9625,-0.2633,-0.0664,0.2919,0.3276,-0.0166,-0.1396,482,2019-08-07 17:06:01:701
0.2891,9.8783,-0.9625,-0.0749,-0.1138,0.7273,0.3276,-0.0166,-0.1396,488,2019-08-07 17:06:01:707
-0.0888,9.9451,-1.4433,-0.0749,-0.1138,0.7273,0.3031,5.0E-4,-0.1491,494,2019-08-07 17:06:01:713
-0.0888,9.9451,-1.4433,-0.0749,-0.1138,0.7273,0.3031,5.0E-4,-0.1491,498,2019-08-07 17:06:01:717
-0.2515,10.1122,-1.0238,-0.0749,-0.1138,0.7273,0.2839,0.0218,-0.1396,503,2019-08-07 17:06:01:722
-0.2515,10.1122,-1.0238,0.1439,-0.2615,0.2311,0.2839,0.0218,-0.1396,508,2019-08-07 17:06:01:727
-0.2515,10.1122,-1.0238,0.1439,-0.2615,0.2311,0.2722,-0.0048,-0.1332,513,2019-08-07 17:06:01:732
-0.2467,10.074,-1.2547,0.1439,-0.2615,0.2311,0.2722,-0.0048,-0.1332,518,2019-08-07 17:06:01:737
-0.2467,10.074,-1.2547,0.1439,-0.2615,0.2311,0.2509,-0.023,-0.1278,522,2019-08-07 17:06:01:741
-0.6103,10.0788,-1.679,0.5889,-0.2995,0.9702,0.2509,-0.023,-0.1278,528,2019-08-07 17:06:01:747
-0.6103,10.0788,-1.679,0.5889,-0.2995,0.9702,0.2158,0.0133,-0.1097,533,2019-08-07 17:06:01:752
-0.6103,10.0788,-1.679,0.5889,-0.2995,0.9702,0.2158,0.0133,-0.1097,537,2019-08-07 17:06:01:756
-0.773,10.0167,-1.349,0.5889,-0.2995,0.9702,0.1881,0.0207,-0.0895,543,2019-08-07 17:06:01:762
-0.773,10.0167,-1.349,0.6451,-0.2271,0.3964,0.1881,0.0207,-0.0895,548,2019-08-07 17:06:01:767
-0.7012,10.0119,-1.2029,0.6451,-0.2271,0.3964,0.1881,0.0207,-0.0895,552,2019-08-07 17:06:01:771
-0.7012,10.0119,-1.2029,0.6451,-0.2271,0.3964,0.1732,-0.04,-0.0767,558,2019-08-07 17:06:01:777
-0.7012,10.0119,-1.2029,0.6451,-0.2271,0.3964,0.1732,-0.04,-0.0767,562,2019-08-07 17:06:01:781
-0.5002,10.0644,-1.3443,0.2904,-0.2927,0.5666,0.1604,-0.0517,-0.0735,568,2019-08-07 17:06:01:787
-0.5002,10.0644,-1.3443,0.2904,-0.2927,0.5666,0.1604,-0.0517,-0.0735,572,2019-08-07 17:06:01:791
-0.2371,10.117,-1.4857,0.2904,-0.2927,0.5666,0.1369,-0.024,-0.0756,578,2019-08-07 17:06:01:797
-0.2371,10.117,-1.4857,0.2904,-0.2927,0.5666,0.1369,-0.024,-0.0756,582,2019-08-07 17:06:01:801
-0.2371,10.117,-1.4857,0.0592,-0.3291,0.4462,0.1242,-0.0059,-0.0692,588,2019-08-07 17:06:01:807
-0.2227,10.0835,-1.2689,0.0592,-0.3291,0.4462,0.1242,-0.0059,-0.0692,592,2019-08-07 17:06:01:811
-0.2227,10.0835,-1.2689,0.0592,-0.3291,0.4462,0.1156,0.0058,-0.0661,598,2019-08-07 17:06:01:817
-0.2227,10.0835,-1.2689,0.0592,-0.3291,0.4462,0.1156,0.0058,-0.0661,602,2019-08-07 17:06:01:821
-0.2371,10.0453,-1.0945,0.0592,-0.3291,0.4462,0.1156,0.0058,-0.0661,608,2019-08-07 17:06:01:827
-0.2371,10.0453,-1.0945,0.0695,-0.3459,0.1008,0.1199,-0.0112,-0.0629,612,2019-08-07 17:06:01:831
-0.2084,10.2554,-0.9766,0.0695,-0.3459,0.1008,0.1199,-0.0112,-0.0629,618,2019-08-07 17:06:01:837
-0.2084,10.2554,-0.9766,0.0695,-0.3459,0.1008,0.1508,-0.0453,-0.0586,622,2019-08-07 17:06:01:841
-0.2084,10.2554,-0.9766,0.0695,-0.3459,0.1008,0.1508,-0.0453,-0.0586,628,2019-08-07 17:06:01:847
-0.1701,10.4702,-0.8399,-0.0149,-0.7068,-0.0964,0.1945,-0.0815,-0.065,633,2019-08-07 17:06:01:852
-0.1701,10.4702,-0.8399,-0.0149,-0.7068,-0.0964,0.1945,-0.0815,-0.065,638,2019-08-07 17:06:01:857
0.093,10.876,0.0039,-0.0149,-0.7068,-0.0964,0.285,-0.1625,-0.0799,643,2019-08-07 17:06:01:862
0.093,10.876,0.0039,-0.0149,-0.7068,-0.0964,0.285,-0.1625,-0.0799,648,2019-08-07 17:06:01:867
0.093,10.876,0.0039,-0.5951,-1.1408,-1.6185,0.285,-0.1625,-0.0799,652,2019-08-07 17:06:01:871
0.6911,10.9762,1.0032,-0.5951,-1.1408,-1.6185,0.4171,-0.2541,-0.1513,658,2019-08-07 17:06:01:877
0.6911,10.9762,1.0032,-0.5951,-1.1408,-1.6185,0.4171,-0.2541,-0.1513,663,2019-08-07 17:06:01:882
1.4718,11.5872,1.2768,-0.5951,-1.1408,-1.6185,0.5332,-0.2658,-0.2013,667,2019-08-07 17:06:01:886
1.4718,11.5872,1.2768,-1.7545,-1.9797,-2.2772,0.5332,-0.2658,-0.2013,673,2019-08-07 17:06:01:892
1.4718,11.5872,1.2768,-1.7545,-1.9797,-2.2772,0.6717,-0.2041,-0.2535,678,2019-08-07 17:06:01:897
1.07,12.203,1.2438,-1.7545,-1.9797,-2.2772,0.6717,-0.2041,-0.2535,683,2019-08-07 17:06:01:902
1.07,12.203,1.2438,-1.7545,-1.9797,-2.2772,0.8773,-0.0656,-0.2961,687,2019-08-07 17:06:01:906
0.4863,12.8379,2.5354,-0.902,-2.9024,-3.3223,0.8773,-0.0656,-0.2961,694,2019-08-07 17:06:01:913
0.4863,12.8379,2.5354,-0.902,-2.9024,-3.3223,0.8773,-0.0656,-0.2961,697,2019-08-07 17:06:01:916
0.4863,12.8379,2.5354,-0.902,-2.9024,-3.3223,1.118,-0.0475,-0.3505,703,2019-08-07 17:06:01:922
-0.1452,13.998,4.1381,-0.902,-2.9024,-3.3223,1.118,-0.0475,-0.3505,707,2019-08-07 17:06:01:926
-0.1452,13.998,4.1381,-0.1356,-4.7542,-5.8765,1.4579,-0.1433,-0.4559,713,2019-08-07 17:06:01:932
-0.504,15.4015,4.3361,-0.1356,-4.7542,-5.8765,1.4579,-0.1433,-0.4559,717,2019-08-07 17:06:01:936
-0.504,15.4015,4.3361,-0.1356,-4.7542,-5.8765,1.7529,-0.2073,-0.5411,723,2019-08-07 17:06:01:942
-0.504,15.4015,4.3361,-0.1356,-4.7542,-5.8765,1.7529,-0.2073,-0.5411,728,2019-08-07 17:06:01:947
-1.0972,16.8527,3.2566,0.6389,-7.1983,-4.9357,1.982,-0.1764,-0.6381,733,2019-08-07 17:06:01:952
-1.0972,16.8527,3.2566,0.6389,-7.1983,-4.9357,1.982,-0.1764,-0.6381,738,2019-08-07 17:06:01:957
-1.0972,16.8527,3.2566,0.6389,-7.1983,-4.9357,1.9916,-0.0219,-0.8139,742,2019-08-07 17:06:01:961
-1.8005,18.872,3.8317,0.6389,-7.1983,-4.9357,1.9916,-0.0219,-0.8139,748,2019-08-07 17:06:01:967
-1.8005,18.872,3.8317,1.6449,-8.6926,-7.7708,1.738,0.2082,-0.9183,752,2019-08-07 17:06:01:971
-1.9296,16.361,6.7637,1.6449,-8.6926,-7.7708,1.738,0.2082,-0.9183,758,2019-08-07 17:06:01:977
-1.9296,16.361,6.7637,0.5793,-4.7294,-8.068,1.7327,-0.2594,-0.9662,763,2019-08-07 17:06:01:982
-0.9919,13.4728,4.4115,0.5793,-4.7294,-8.068,1.7327,-0.2594,-0.9662,768,2019-08-07 17:06:01:987
-0.9919,13.4728,4.4115,0.5793,-4.7294,-8.068,1.7327,-0.2594,-0.9662,772,2019-08-07 17:06:01:991
-0.9919,13.4728,4.4115,0.5793,-4.7294,-8.068,2.7554,-0.9274,-1.1228,778,2019-08-07 17:06:01:997
-0.1594,15.0386,1.3899,-0.787,-5.6219,-3.9718,2.7554,-0.9274,-1.1228,783,2019-08-07 17:06:02:002
-0.1594,15.0386,1.3899,-0.787,-5.6219,-3.9718,2.8363,-1.77,-1.0866,788,2019-08-07 17:06:02:007
-0.1594,15.0386,1.3899,-0.787,-5.6219,-3.9718,2.8363,-1.77,-1.0866,793,2019-08-07 17:06:02:012
1.6682,15.6927,-8.9616,-0.787,-5.6219,-3.9718,2.7703,-1.7998,-1.1249,797,2019-08-07 17:06:02:016
1.6682,15.6927,-8.9616,-3.9771,-11.0065,9.2756,2.7703,-1.7998,-1.1249,803,2019-08-07 17:06:02:022
3.1561,22.9298,-14.6181,-3.9771,-11.0065,9.2756,2.7724,-1.4035,-1.0983,807,2019-08-07 17:06:02:026
3.1561,22.9298,-14.6181,-3.9771,-11.0065,9.2756,2.7724,-1.4035,-1.0983,813,2019-08-07 17:06:02:032
3.1561,22.9298,-14.6181,-3.9771,-11.0065,9.2756,2.1279,0.4671,-1.2559,817,2019-08-07 17:06:02:036
-0.6808,23.7318,-14.6276,-0.44,-13.4397,9.6902,2.1279,0.4671,-1.2559,823,2019-08-07 17:06:02:042
-0.6808,23.7318,-14.6276,-0.44,-13.4397,9.6902,1.2619,3.126,-1.2325,828,2019-08-07 17:06:02:047
-0.92,19.6024,-2.6781,-0.44,-13.4397,9.6902,1.2619,3.126,-1.2325,833,2019-08-07 17:06:02:052
-0.92,19.6024,-2.6781,-0.44,-13.4397,9.6902,1.7455,3.3593,-1.1047,838,2019-08-07 17:06:02:057
-0.92,19.6024,-2.6781,2.7402,-12.1438,-7.5858,1.7455,3.3593,-1.1047,844,2019-08-07 17:06:02:063
-4.1446,21.0871,3.1388,2.7402,-12.1438,-7.5858,2.2813,1.3821,-0.8128,848,2019-08-07 17:06:02:067
-4.1446,21.0871,3.1388,2.7402,-12.1438,-7.5858,2.2813,1.3821,-0.8128,853,2019-08-07 17:06:02:072
-4.7904,21.5215,-3.8942,2.7402,-12.1438,-7.5858,2.2813,1.3821,-0.8128,857,2019-08-07 17:06:02:076
-4.7904,21.5215,-3.8942,3.5619,-12.2738,1.1687,2.7788,-1.0179,-0.6445,863,2019-08-07 17:06:02:082
-4.7904,21.5215,-3.8942,3.5619,-12.2738,1.1687,2.7788,-1.0179,-0.6445,868,2019-08-07 17:06:02:087
-4.0441,19.23,-4.9595,3.5619,-12.2738,1.1687,2.7873,-1.9809,-0.5518,873,2019-08-07 17:06:02:092
-4.0441,19.23,-4.9595,3.5619,-12.2738,1.1687,2.7873,-1.9809,-0.5518,877,2019-08-07 17:06:02:096
-1.4462,18.0891,-7.4626,-0.3687,-9.6854,2.7382,2.7404,-1.4856,-0.5742,883,2019-08-07 17:06:02:102
-1.4462,18.0891,-7.4626,-0.3687,-9.6854,2.7382,2.7404,-1.4856,-0.5742,887,2019-08-07 17:06:02:106
-1.4462,18.0891,-7.4626,-0.3687,-9.6854,2.7382,2.1652,-0.3873,-0.5198,894,2019-08-07 17:06:02:113
0.8933,18.2514,-11.4316,-0.3687,-9.6854,2.7382,2.1652,-0.3873,-0.5198,897,2019-08-07 17:06:02:116
0.8933,18.2514,-11.4316,-1.065,-10.2945,3.3939,1.7732,0.5193,-0.5688,903,2019-08-07 17:06:02:122
0.8933,18.2514,-11.4316,-1.065,-10.2945,3.3939,1.7732,0.5193,-0.5688,907,2019-08-07 17:06:02:126
-1.9103,18.2466,-6.4019,-1.065,-10.2945,3.3939,1.4057,1.2692,-0.5017,913,2019-08-07 17:06:02:132
-1.9103,18.2466,-6.4019,-1.065,-10.2945,3.3939,1.4057,1.2692,-0.5017,917,2019-08-07 17:06:02:136
-3.5895,16.7142,-5.1198,1.7244,-8.6934,-0.2115,0.9614,1.429,-0.3675,923,2019-08-07 17:06:02:142
-3.5895,16.7142,-5.1198,1.7244,-8.6934,-0.2115,0.9614,1.429,-0.3675,928,2019-08-07 17:06:02:147
-3.5895,16.7142,-5.1198,1.7244,-8.6934,-0.2115,0.9614,1.429,-0.3675,932,2019-08-07 17:06:02:151
-3.7809,15.5112,-3.2531,1.7244,-8.6934,-0.2115,0.6216,0.9326,-0.1832,938,2019-08-07 17:06:02:157
-3.7809,15.5112,-3.2531,1.7244,-8.6934,-0.2115,0.6216,0.9326,-0.1832,942,2019-08-07 17:06:02:161
-2.6374,13.3201,-3.5359,1.3129,-6.2983,-2.6976,0.4171,0.3637,-0.0479,948,2019-08-07 17:06:02:167
-2.6374,13.3201,-3.5359,1.3129,-6.2983,-2.6976,0.4171,0.3637,-0.0479,953,2019-08-07 17:06:02:172
-2.6374,13.3201,-3.5359,1.3129,-6.2983,-2.6976,0.0613,0.0974,0.0171,957,2019-08-07 17:06:02:176
-2.0298,11.716,-5.8174,1.3129,-6.2983,-2.6976,0.0613,0.0974,0.0171,963,2019-08-07 17:06:02:182
-2.0298,11.716,-5.8174,0.1745,-3.5163,0.4656,-0.5938,0.5491,0.1012,968,2019-08-07 17:06:02:187
-1.4844,10.2648,-5.8787,0.1745,-3.5163,0.4656,-0.5938,0.5491,0.1012,973,2019-08-07 17:06:02:192
-1.4844,10.2648,-5.8787,0.1745,-3.5163,0.4656,-0.5938,0.5491,0.1012,977,2019-08-07 17:06:02:196
-1.4844,10.2648,-5.8787,0.1745,-3.5163,0.4656,-1.2223,1.1062,0.1523,983,2019-08-07 17:06:02:202
-1.3934,9.5344,-4.2194,-0.2501,-1.6253,-0.6784,-1.2223,1.1062,0.1523,987,2019-08-07 17:06:02:206
-1.3934,9.5344,-4.2194,-0.2501,-1.6253,-0.6784,-1.9851,1.445,0.2131,993,2019-08-07 17:06:02:212
-1.3934,9.5344,-4.2194,-0.2501,-1.6253,-0.6784,-1.9851,1.445,0.2131,997,2019-08-07 17:06:02:216
-1.3743,8.8995,-1.8342,-0.2501,-1.6253,-0.6784,-1.9851,1.445,0.2131,1002,2019-08-07 17:06:02:221
-1.3743,8.8995,-1.8342,-0.089,-0.2671,-3.9279,-2.6732,1.3012,0.2599,1008,2019-08-07 17:06:02:227
-1.159,7.8445,-0.5285,-0.089,-0.2671,-3.9279,-2.6732,1.3012,0.2599,1012,2019-08-07 17:06:02:231
-1.159,7.8445,-0.5285,-0.3346,0.716,-4.4503,-3.2378,1.1094,0.326,1018,2019-08-07 17:06:02:237
-1.159,7.8445,-0.5285,-0.3346,0.716,-4.4503,-3.2378,1.1094,0.326,1023,2019-08-07 17:06:02:242
-0.8145,7.9352,0.5038,-0.3346,0.716,-4.4503,-3.8653,0.9816,0.3974,1028,2019-08-07 17:06:02:247
-0.8145,7.9352,0.5038,-0.3346,0.716,-4.4503,-3.8653,0.9816,0.3974,1033,2019-08-07 17:06:02:252
-0.8145,7.9352,0.5038,-0.2989,0.1217,-5.9256,-4.7441,0.8644,0.5081,1037,2019-08-07 17:06:02:256
-1.0441,9.0475,1.9745,-0.2989,0.1217,-5.9256,-4.7441,0.8644,0.5081,1044,2019-08-07 17:06:02:263
-1.0441,9.0475,1.9745,-0.2989,0.1217,-5.9256,-5.4727,0.7142,0.5784,1047,2019-08-07 17:06:02:266
-0.9149,9.8877,3.6055,-0.2989,0.1217,-5.9256,-5.4727,0.7142,0.5784,1053,2019-08-07 17:06:02:272
-0.9149,9.8877,3.6055,-0.1697,-0.8938,-7.2764,-6.13,0.3744,0.6392,1057,2019-08-07 17:06:02:276
-0.9149,9.8877,3.6055,-0.1697,-0.8938,-7.2764,-6.13,0.3744,0.6392,1063,2019-08-07 17:06:02:282
-0.9436,10.6419,5.2648,-0.1697,-0.8938,-7.2764,-6.6925,-0.1465,0.7148,1067,2019-08-07 17:06:02:286
-0.9436,10.6419,5.2648,-0.1697,-0.8938,-7.2764,-6.6925,-0.1465,0.7148,1073,2019-08-07 17:06:02:292
-0.4795,10.4892,6.5752,-0.3012,-1.0592,-8.0359,-7.1868,-0.7495,0.8235,1078,2019-08-07 17:06:02:297
-0.4795,10.4892,6.5752,-0.3012,-1.0592,-8.0359,-7.1868,-0.7495,0.8235,1083,2019-08-07 17:06:02:302
-0.4795,10.4892,6.5752,-0.3012,-1.0592,-8.0359,-7.6107,-1.3513,0.9694,1087,2019-08-07 17:06:02:306
-0.1877,10.2314,8.2345,-0.3012,-1.0592,-8.0359,-7.6107,-1.3513,0.9694,1093,2019-08-07 17:06:02:312
-0.1877,10.2314,8.2345,-0.513,-0.7108,-8.5104,-8.0464,-1.7423,1.1878,1098,2019-08-07 17:06:02:317
0.0037,10.4366,7.9752,-0.513,-0.7108,-8.5104,-8.0464,-1.7423,1.1878,1103,2019-08-07 17:06:02:322
0.0037,10.4366,7.9752,-0.513,-0.7108,-8.5104,-8.0464,-1.7423,1.1878,1107,2019-08-07 17:06:02:326
0.0037,10.4366,7.9752,-0.513,-0.7108,-8.5104,-8.4906,-1.7892,1.4679,1113,2019-08-07 17:06:02:332
1.0419,8.8947,10.252,-1.5206,0.8063,-8.8748,-8.4906,-1.7892,1.4679,1117,2019-08-07 17:06:02:336
1.0419,8.8947,10.252,-1.5206,0.8063,-8.8748,-9.0371,-1.5857,1.8131,1123,2019-08-07 17:06:02:342
1.0419,8.8947,10.252,-1.5206,0.8063,-8.8748,-9.0371,-1.5857,1.8131,1127,2019-08-07 17:06:02:346
1.5586,7.0663,11.0675,-1.5206,0.8063,-8.8748,-9.5484,-1.2161,2.0304,1132,2019-08-07 17:06:02:351
1.5586,7.0663,11.0675,-1.5305,2.3584,-7.8121,-9.5484,-1.2161,2.0304,1138,2019-08-07 17:06:02:357
1.5586,7.0663,11.0675,-1.5305,2.3584,-7.8121,-9.5484,-1.2161,2.0304,1143,2019-08-07 17:06:02:362
1.5347,6.8706,11.4917,-0.7234,2.1482,-7.9832,-9.9714,-0.8709,2.187,1148,2019-08-07 17:06:02:367
1.5347,6.8706,11.4917,-0.7234,2.1482,-7.9832,-9.9714,-0.8709,2.187,1152,2019-08-07 17:06:02:371
-0.9196,7.7824,9.9598,-0.7234,2.1482,-7.9832,-10.7671,-0.6472,2.4384,1158,2019-08-07 17:06:02:377
-0.9196,7.7824,9.9598,-0.7234,2.1482,-7.9832,-10.7671,-0.6472,2.4384,1162,2019-08-07 17:06:02:381
-0.9196,7.7824,9.9598,2.7953,-1.742,-0.8547,-11.2614,-0.7772,2.6184,1168,2019-08-07 17:06:02:387
-2.2161,9.7397,5.9577,2.7953,-1.742,-0.8547,-11.2614,-0.7772,2.6184,1172,2019-08-07 17:06:02:391
-2.2161,9.7397,5.9577,2.7953,-1.742,-0.8547,-11.7706,-0.9274,2.7942,1178,2019-08-07 17:06:02:397
-2.7567,13.0909,-0.8584,2.7953,-1.742,-0.8547,-11.7706,-0.9274,2.7942,1183,2019-08-07 17:06:02:402
-2.7567,13.0909,-0.8584,4.1638,-9.8549,11.6209,-12.4023,-1.0094,2.8464,1188,2019-08-07 17:06:02:407
-2.7567,13.0909,-0.8584,4.1638,-9.8549,11.6209,-12.4023,-1.0094,2.8464,1193,2019-08-07 17:06:02:412
-2.7471,21.8508,-7.5803,4.0548,-19.2007,16.8526,-12.6665,-0.9913,2.8528,1199,2019-08-07 17:06:02:418
-2.7471,21.8508,-7.5803,4.0548,-19.2007,16.8526,-12.6665,-0.9913,2.8528,1203,2019-08-07 17:06:02:422
-2.7471,21.8508,-7.5803,4.0548,-19.2007,16.8526,-12.397,-0.4395,2.7335,1208,2019-08-07 17:06:02:427
-1.795,36.9886,-13.6093,4.0548,-19.2007,16.8526,-12.397,-0.4395,2.7335,1213,2019-08-07 17:06:02:432
-1.795,36.9886,-13.6093,1.3316,-42.978,23.811,-11.1005,0.6002,2.367,1217,2019-08-07 17:06:02:436
3.1902,50.3649,-14.3163,1.3316,-42.978,23.811,-11.1005,0.6002,2.367,1223,2019-08-07 17:06:02:442
3.1902,50.3649,-14.3163,1.3316,-42.978,23.811,-9.2161,1.6431,1.7673,1227,2019-08-07 17:06:02:446
3.1902,50.3649,-14.3163,-3.3337,-49.1389,26.0843,-9.2161,1.6431,1.7673,1233,2019-08-07 17:06:02:452
3.2237,43.6004,-28.4012,-3.3337,-49.1389,26.0843,-6.3111,3.8237,0.424,1238,2019-08-07 17:06:02:457
3.2237,43.6004,-28.4012,-3.3337,-49.1389,26.0843,-6.3111,3.8237,0.424,1243,2019-08-07 17:06:02:462
-2.6561,25.1543,-57.8295,3.5957,-24.5774,67.5773,-5.6251,6.7212,-0.1385,1248,2019-08-07 17:06:02:467
-2.6561,25.1543,-57.8295,3.5957,-24.5774,67.5773,-5.6251,6.7212,-0.1385,1253,2019-08-07 17:06:02:472
-2.6561,25.1543,-57.8295,3.5957,-24.5774,67.5773,-5.6251,6.7212,-0.1385,1258,2019-08-07 17:06:02:477
-2.0628,12.561,-64.047,2.2429,-12.5399,73.8553,-6.0757,8.4938,-0.0245,1263,2019-08-07 17:06:02:482
-2.0628,12.561,-64.047,2.2429,-12.5399,73.8553,-6.0757,8.4938,-0.0245,1268,2019-08-07 17:06:02:487
-2.0628,12.561,-64.047,2.2429,-12.5399,73.8553,-6.9758,5.4717,0.6285,1272,2019-08-07 17:06:02:491
-4.5698,-1.8607,-39.6106,3.8576,6.9076,37.7346,-6.9758,5.4717,0.6285,1278,2019-08-07 17:06:02:497
-4.5698,-1.8607,-39.6106,3.8576,6.9076,37.7346,-6.5465,1.8008,1.1068,1283,2019-08-07 17:06:02:502
-3.6225,-13.1842,-7.651,3.8576,6.9076,37.7346,-6.5465,1.8008,1.1068,1288,2019-08-07 17:06:02:507
-3.6225,-13.1842,-7.651,3.8576,6.9076,37.7346,-6.5465,1.8008,1.1068,1293,2019-08-07 17:06:02:512
-1.0294,-12.1483,45.2851,3.8576,6.9076,37.7346,-1.1968,-2.6169,0.6882,1298,2019-08-07 17:06:02:517
-1.0294,-12.1483,45.2851,-3.7834,12.6374,-9.5075,-1.1968,-2.6169,0.6882,1302,2019-08-07 17:06:02:521
-1.0294,-12.1483,45.2851,-3.7834,12.6374,-9.5075,7.5629,-2.9301,-0.8181,1308,2019-08-07 17:06:02:527
-1.8523,-8.9355,-19.6712,-3.7834,12.6374,-9.5075,7.5629,-2.9301,-0.8181,1313,2019-08-07 17:06:02:532
-1.8523,-8.9355,-19.6712,-3.7834,12.6374,-9.5075,9.7765,-2.7852,-1.2772,1318,2019-08-07 17:06:02:537
-1.3116,-1.3165,-37.2867,0.9034,2.8409,45.0598,9.7765,-2.7852,-1.2772,1323,2019-08-07 17:06:02:542
-1.3116,-1.3165,-37.2867,0.9034,2.8409,45.0598,9.7488,-2.5189,-1.0365,1328,2019-08-07 17:06:02:547
-1.3116,-1.3165,-37.2867,4.5968,-18.5994,46.15,9.7488,-2.5189,-1.0365,1332,2019-08-07 17:06:02:551
-6.4403,25.7224,-37.8382,4.5968,-18.5994,46.15,3.0323,-7.1815,-0.3036,1338,2019-08-07 17:06:02:557
-6.4403,25.7224,-37.8382,4.5968,-18.5994,46.15,3.0323,-7.1815,-0.3036,1342,2019-08-07 17:06:02:561
-6.4403,25.7224,-37.8382,4.5968,-18.5994,46.15,3.0323,-7.1815,-0.3036,1348,2019-08-07 17:06:02:567
5.683,13.9788,-26.4214,-12.4613,-10.3448,13.2062,2.6989,-4.4449,-0.5774,1353,2019-08-07 17:06:02:572
5.683,13.9788,-26.4214,-12.4613,-10.3448,13.2062,2.6989,-4.4449,-0.5774,1358,2019-08-07 17:06:02:577
5.683,13.9788,-26.4214,-12.4613,-10.3448,13.2062,6.9376,8.7399,-1.534,1362,2019-08-07 17:06:02:581
7.678,24.0324,23.5544,-12.4613,-10.3448,13.2062,6.9376,8.7399,-1.534,1368,2019-08-07 17:06:02:587
7.678,24.0324,23.5544,-6.7257,-13.621,8.5577,6.1972,1.3139,-1.0258,1373,2019-08-07 17:06:02:592
-3.1104,14.0933,-7.0712,-6.7257,-13.621,8.5577,6.1972,1.3139,-1.0258,1379,2019-08-07 17:06:02:598
-3.1104,14.0933,-7.0712,4.6593,-11.8141,18.2317,7.2678,0.0601,-1.2581,1382,2019-08-07 17:06:02:601
-3.1104,14.0933,-7.0712,4.6593,-11.8141,18.2317,7.2678,0.0601,-1.2581,1388,2019-08-07 17:06:02:607
-10.2102,21.3018,-3.6018,4.6593,-11.8141,18.2317,6.4699,0.5086,-0.8107,1393,2019-08-07 17:06:02:612
-10.2102,21.3018,-3.6018,4.6593,-11.8141,18.2317,6.4699,0.5086,-0.8107,1397,2019-08-07 17:06:02:616
-1.0101,17.7978,-3.927,1.7453,-13.5037,14.0327,6.4699,0.5086,-0.8107,1403,2019-08-07 17:06:02:622
-1.0101,17.7978,-3.927,1.7453,-13.5037,14.0327,6.5733,2.1438,-0.1875,1408,2019-08-07 17:06:02:627
-1.0101,17.7978,-3.927,1.7453,-13.5037,14.0327,6.5733,2.1438,-0.1875,1414,2019-08-07 17:06:02:633
0.4443,18.2752,5.1282,1.7453,-13.5037,14.0327,6.7458,0.5427,-0.3047,1418,2019-08-07 17:06:02:637
0.4443,18.2752,5.1282,0.5764,-11.6663,8.0375,6.7458,0.5427,-0.3047,1423,2019-08-07 17:06:02:642
0.4443,18.2752,5.1282,0.5764,-11.6663,8.0375,6.5306,0.4319,-0.392,1428,2019-08-07 17:06:02:647
-4.2299,18.3516,-4.9358,0.5764,-11.6663,8.0375,6.5306,0.4319,-0.392,1433,2019-08-07 17:06:02:652
-4.2299,18.3516,-4.9358,0.5764,-11.6663,8.0375,6.1248,0.7355,-0.212,1438,2019-08-07 17:06:02:657
-4.2299,18.3516,-4.9358,3.0728,-12.6608,7.8724,6.1248,0.7355,-0.212,1442,2019-08-07 17:06:02:661
-3.5457,18.743,3.0635,3.0728,-12.6608,7.8724,6.0172,0.7185,-0.1246,1448,2019-08-07 17:06:02:667
-3.5457,18.743,3.0635,3.0728,-12.6608,7.8724,6.0172,0.7185,-0.1246,1452,2019-08-07 17:06:02:671
-3.5457,18.743,3.0635,3.0728,-12.6608,7.8724,6.0172,0.7185,-0.1246,1458,2019-08-07 17:06:02:677
-3.316,17.9601,6.4952,2.5962,-10.6475,0.4684,6.3112,-0.7463,-0.1907,1462,2019-08-07 17:06:02:681
-3.316,17.9601,6.4952,2.5962,-10.6475,0.4684,6.3112,-0.7463,-0.1907,1468,2019-08-07 17:06:02:687
-3.9284,18.6332,1.3194,2.5962,-10.6475,0.4684,6.4646,-1.9287,-0.31,1473,2019-08-07 17:06:02:692
-3.9284,18.6332,1.3194,2.5962,-10.6475,0.4684,6.4646,-1.9287,-0.31,1478,2019-08-07 17:06:02:697
-3.9284,18.6332,1.3194,1.9293,-10.4376,5.9074,6.3027,-1.8403,-0.4879,1483,2019-08-07 17:06:02:702
-2.4166,18.7096,-0.9102,1.9293,-10.4376,5.9074,6.3027,-1.8403,-0.4879,1487,2019-08-07 17:06:02:706
-2.4166,18.7096,-0.9102,1.9293,-10.4376,5.9074,6.0971,-1.6006,-0.6679,1493,2019-08-07 17:06:02:712
-2.4166,18.7096,-0.9102,1.9293,-10.4376,5.9074,6.0971,-1.6006,-0.6679,1498,2019-08-07 17:06:02:717
-1.2635,19.1488,0.8057,0.0971,-10.258,3.2558,5.9288,-1.248,-0.7968,1503,2019-08-07 17:06:02:722
-1.2635,19.1488,0.8057,0.0971,-10.258,3.2558,5.9288,-1.248,-0.7968,1507,2019-08-07 17:06:02:726
-0.7277,19.2395,0.6831,0.0971,-10.258,3.2558,5.9288,-1.248,-0.7968,1513,2019-08-07 17:06:02:732
-0.7277,19.2395,0.6831,0.0971,-10.258,3.2558,5.7115,-0.8645,-0.9545,1518,2019-08-07 17:06:02:737
-0.7277,19.2395,0.6831,-0.2449,-10.7136,3.1573,5.7115,-0.8645,-0.9545,1522,2019-08-07 17:06:02:741
-0.8233,20.0988,-0.5378,-0.2449,-10.7136,3.1573,5.3993,-0.2669,-0.9672,1528,2019-08-07 17:06:02:747
-0.8233,20.0988,-0.5378,-0.2449,-10.7136,3.1573,5.3993,-0.2669,-0.9672,1533,2019-08-07 17:06:02:752
-1.12,20.5666,-1.4334,-0.2449,-10.7136,3.1573,5.3993,-0.2669,-0.9672,1538,2019-08-07 17:06:02:757
-1.12,20.5666,-1.4334,-0.2449,-10.7136,3.1573,4.9178,0.7014,-0.9214,1542,2019-08-07 17:06:02:761
-1.12,20.5666,-1.4334,0.2921,-11.3403,2.9248,4.9178,0.7014,-0.9214,1548,2019-08-07 17:06:02:767
-1.962,21.0822,0.24,0.2921,-11.3403,2.9248,4.6611,1.2106,-0.8415,1553,2019-08-07 17:06:02:772
-1.962,21.0822,0.24,0.2921,-11.3403,2.9248,4.6611,1.2106,-0.8415,1557,2019-08-07 17:06:02:776
-2.9762,20.9199,2.6582,1.5549,-11.2812,-1.513,4.3777,1.3693,-0.6083,1563,2019-08-07 17:06:02:782
-2.9762,20.9199,2.6582,1.5549,-11.2812,-1.513,4.3777,1.3693,-0.6083,1568,2019-08-07 17:06:02:787
-2.9762,20.9199,2.6582,1.5549,-11.2812,-1.513,4.1487,1.0359,-0.4612,1572,2019-08-07 17:06:02:791
-4.1148,20.3184,1.9087,1.5549,-11.2812,-1.513,4.1487,1.0359,-0.4612,1578,2019-08-07 17:06:02:797
-4.1148,20.3184,1.9087,2.8163,-10.4043,-1.2668,3.958,0.842,-0.3249,1583,2019-08-07 17:06:02:802
-4.2009,19.9699,1.6353,2.8163,-10.4043,-1.2668,3.958,0.842,-0.3249,1588,2019-08-07 17:06:02:807
-4.2009,19.9699,1.6353,2.8163,-10.4043,-1.2668,3.7343,0.6588,-0.2152,1593,2019-08-07 17:06:02:812
-4.2009,19.9699,1.6353,2.8163,-10.4043,-1.2668,3.7343,0.6588,-0.2152,1598,2019-08-07 17:06:02:817
-3.9904,19.6023,2.1963,2.5554,-9.9459,-2.7215,3.5213,0.4159,-0.2024,1603,2019-08-07 17:06:02:822
-3.9904,19.6023,2.1963,2.5554,-9.9459,-2.7215,3.5213,0.4159,-0.2024,1607,2019-08-07 17:06:02:826
-3.9904,19.6023,2.1963,2.5554,-9.9459,-2.7215,3.5213,0.4159,-0.2024,1613,2019-08-07 17:06:02:832
-4.4066,19.5784,2.201,2.5554,-9.9459,-2.7215,3.3349,0.0846,-0.2045,1618,2019-08-07 17:06:02:837
-4.4066,19.5784,2.201,2.5841,-9.3656,-3.7453,3.3349,0.0846,-0.2045,1622,2019-08-07 17:06:02:841
-4.153,18.8003,2.8703,2.5841,-9.3656,-3.7453,3.1474,-0.2882,-0.2141,1628,2019-08-07 17:06:02:847
-4.153,18.8003,2.8703,2.5841,-9.3656,-3.7453,3.1474,-0.2882,-0.2141,1633,2019-08-07 17:06:02:852
-4.153,18.8003,2.8703,2.5841,-9.3656,-3.7453,3.1474,-0.2882,-0.2141,1637,2019-08-07 17:06:02:856
-3.9569,18.2083,3.8178,2.2628,-8.5203,-5.5138,2.9599,-0.6057,-0.2525,1643,2019-08-07 17:06:02:862
-3.9569,18.2083,3.8178,2.2628,-8.5203,-5.5138,2.8289,-0.9284,-0.2567,1648,2019-08-07 17:06:02:867
-3.732,17.7023,3.634,2.2628,-8.5203,-5.5138,2.8289,-0.9284,-0.2567,1652,2019-08-07 17:06:02:871
-3.732,17.7023,3.634,2.2628,-8.5203,-5.5138,2.8289,-0.9284,-0.2567,1658,2019-08-07 17:06:02:877
-3.0526,16.9194,3.1296,1.2732,-7.5083,-5.2513,2.6968,-1.2011,-0.2322,1663,2019-08-07 17:06:02:882
-3.0526,16.9194,3.1296,1.2732,-7.5083,-5.2513,2.6968,-1.2011,-0.2322,1667,2019-08-07 17:06:02:886
-3.0526,16.9194,3.1296,1.2732,-7.5083,-5.2513,2.4869,-1.3545,-0.1427,1673,2019-08-07 17:06:02:892
-2.1245,16.1079,2.6394,0.3001,-6.7537,-4.9649,2.4869,-1.3545,-0.1427,1678,2019-08-07 17:06:02:897
-2.1245,16.1079,2.6394,0.3001,-6.7537,-4.9649,2.2813,-1.394,-0.0831,1683,2019-08-07 17:06:02:902
-2.1245,16.1079,2.6394,0.3001,-6.7537,-4.9649,2.2813,-1.394,-0.0831,1688,2019-08-07 17:06:02:907
-1.2729,15.2724,2.8609,0.3001,-6.7537,-4.9649,2.0693,-1.4131,-0.0373,1693,2019-08-07 17:06:02:912
-1.2729,15.2724,2.8609,-0.7892,-6.0447,-5.3711,2.0693,-1.4131,-0.0373,1697,2019-08-07 17:06:02:916
-0.7323,15.2199,2.2953,-0.7892,-6.0447,-5.3711,1.8712,-1.4525,0.0543,1703,2019-08-07 17:06:02:922
-0.7323,15.2199,2.2953,-0.7892,-6.0447,-5.3711,1.8712,-1.4525,0.0543,1707,2019-08-07 17:06:02:926
-0.7323,15.2199,2.2953,-0.7892,-6.0447,-5.3711,1.6464,-1.4003,0.1428,1713,2019-08-07 17:06:02:932
-0.2442,14.776,1.772,-1.7182,-5.6189,-4.6931,1.6464,-1.4003,0.1428,1717,2019-08-07 17:06:02:936
-0.2442,14.776,1.772,-1.7182,-5.6189,-4.6931,1.3833,-1.1926,0.2056,1723,2019-08-07 17:06:02:942
-0.2442,14.776,1.772,-1.7182,-5.6189,-4.6931,1.3833,-1.1926,0.2056,1728,2019-08-07 17:06:02:947
-0.2251,14.4132,1.6966,-1.7182,-5.6189,-4.6931,1.1415,-0.987,0.2887,1733,2019-08-07 17:06:02:952
-0.2251,14.4132,1.6966,-2.1328,-5.0208,-5.4315,1.1415,-0.987,0.2887,1737,2019-08-07 17:06:02:956
0.3155,13.6732,2.4461,-2.1328,-5.0208,-5.4315,0.9433,-0.8081,0.375,1743,2019-08-07 17:06:02:962
0.3155,13.6732,2.4461,-2.3558,-4.5944,-5.4664,0.9433,-0.8081,0.375,1747,2019-08-07 17:06:02:966
0.3155,13.6732,2.4461,-2.3558,-4.5944,-5.4664,0.9433,-0.8081,0.375,1753,2019-08-07 17:06:02:972
0.3299,13.4918,1.9465,-2.3558,-4.5944,-5.4664,0.6706,-0.4821,0.473,1757,2019-08-07 17:06:02:976
0.3299,13.4918,1.9465,-2.3558,-4.5944,-5.4664,0.6706,-0.4821,0.473,1763,2019-08-07 17:06:02:982
0.2917,13.1242,2.2764,-2.197,-4.138,-5.3894,0.4278,-0.1487,0.5582,1767,2019-08-07 17:06:02:986
0.2917,13.1242,2.2764,-2.197,-4.138,-5.3894,0.4278,-0.1487,0.5582,1773,2019-08-07 17:06:02:992
0.2917,13.1242,2.2764,-2.197,-4.138,-5.3894,0.1785,0.1134,0.6583,1778,2019-08-07 17:06:02:997
0.1099,12.6612,2.4838,-2.197,-4.138,-5.3894,0.1785,0.1134,0.6583,1783,2019-08-07 17:06:03:002
0.1099,12.6612,2.4838,-1.6296,-3.2763,-5.8265,-0.0996,0.3094,0.75,1787,2019-08-07 17:06:03:006
-0.2394,12.2458,2.9081,-1.6296,-3.2763,-5.8265,-0.0996,0.3094,0.75,1793,2019-08-07 17:06:03:012
-0.2394,12.2458,2.9081,-1.3923,-3.0569,-6.4537,-0.3776,0.4202,0.8405,1798,2019-08-07 17:06:03:017
-0.4403,12.0119,3.5445,-1.3923,-3.0569,-6.4537,-0.3776,0.4202,0.8405,1803,2019-08-07 17:06:03:022
-0.4403,12.0119,3.5445,-1.3923,-3.0569,-6.4537,-0.3776,0.4202,0.8405,1807,2019-08-07 17:06:03:026
-0.4403,12.0119,3.5445,-1.3923,-3.0569,-6.4537,-0.6663,0.3488,0.9225,1813,2019-08-07 17:06:03:032
-0.7704,11.7732,3.4078,-0.6781,-2.5222,-6.4141,-0.6663,0.3488,0.9225,1818,2019-08-07 17:06:03:037
-0.7704,11.7732,3.4078,-0.6781,-2.5222,-6.4141,-0.94,0.173,0.996,1822,2019-08-07 17:06:03:041
-0.7704,11.7732,3.4078,-0.6781,-2.5222,-6.4141,-0.94,0.173,0.996,1828,2019-08-07 17:06:03:047
-0.7751,11.2576,3.0071,-0.6781,-2.5222,-6.4141,-1.1606,0.0814,1.0291,1833,2019-08-07 17:06:03:052
-0.7751,11.2576,3.0071,-0.5053,-1.7514,-5.5924,-1.1606,0.0814,1.0291,1838,2019-08-07 17:06:03:057
-0.8134,10.9808,2.6017,-0.5053,-1.7514,-5.5924,-1.3491,0.0186,1.0461,1843,2019-08-07 17:06:03:062
-0.8134,10.9808,2.6017,-0.3422,-1.6001,-5.1045,-1.3491,0.0186,1.0461,1848,2019-08-07 17:06:03:067
-0.8134,10.9808,2.6017,-0.3422,-1.6001,-5.1045,-1.5813,-0.0741,1.0333,1853,2019-08-07 17:06:03:072
-0.7607,10.828,1.9606,-0.3422,-1.6001,-5.1045,-1.5813,-0.0741,1.0333,1858,2019-08-07 17:06:03:077
-0.7607,10.828,1.9606,-0.3422,-1.6001,-5.1045,-1.5813,-0.0741,1.0333,1863,2019-08-07 17:06:03:082
-0.7607,10.828,1.9606,-0.5053,-1.4012,-4.2329,-1.7283,-0.0975,1.0088,1868,2019-08-07 17:06:03:087
-0.3971,10.8948,1.8381,-0.5053,-1.4012,-4.2329,-1.7283,-0.0975,1.0088,1872,2019-08-07 17:06:03:091
-0.3971,10.8948,1.8381,-0.5053,-1.4012,-4.2329,-1.8402,-0.0922,0.9769,1878,2019-08-07 17:06:03:097
0.2535,10.7707,2.1492,-0.5053,-1.4012,-4.2329,-1.8402,-0.0922,0.9769,1883,2019-08-07 17:06:03:102
0.2535,10.7707,2.1492,-1.4068,-1.0618,-4.4048,-1.9286,-0.0091,0.8778,1888,2019-08-07 17:06:03:107
0.2535,10.7707,2.1492,-1.4068,-1.0618,-4.4048,-1.9286,-0.0091,0.8778,1893,2019-08-07 17:06:03:112
1.2487,10.4652,1.5553,-1.4068,-1.0618,-4.4048,-1.9584,0.0932,0.7521,1898,2019-08-07 17:06:03:117
1.2487,10.4652,1.5553,-1.4068,-1.0618,-4.4048,-1.9584,0.0932,0.7521,1903,2019-08-07 17:06:03:122
1.2487,10.4652,1.5553,-1.4068,-1.0618,-4.4048,-1.9584,0.0932,0.7521,1908,2019-08-07 17:06:03:127
1.5597,11.9737,-0.8818,-2.3585,-1.4344,-1.6602,-1.9339,0.3456,0.6062,1913,2019-08-07 17:06:03:132
1.5597,11.9737,-0.8818,-2.3585,-1.4344,-1.6602,-1.9339,0.3456,0.6062,1918,2019-08-07 17:06:03:137
1.5597,11.9737,-0.8818,-2.3585,-1.4344,-1.6602,-2.2556,0.5651,0.5838,1922,2019-08-07 17:06:03:141
1.2296,22.309,-8.9942,-2.3585,-1.4344,-1.6602,-2.2556,0.5651,0.5838,1928,2019-08-07 17:06:03:147
1.2296,22.309,-8.9942,-3.3466,-14.1172,7.7444,-2.0405,0.5725,1.0791,1933,2019-08-07 17:06:03:152
1.2296,22.309,-8.9942,-3.3466,-14.1172,7.7444,-2.0405,0.5725,1.0791,1938,2019-08-07 17:06:03:157
2.7032,7.2906,-8.3437,-3.3466,-14.1172,7.7444,-1.8263,2.0841,0.5998,1943,2019-08-07 17:06:03:162
2.7032,7.2906,-8.3437,1.1691,-2.8915,7.8272,-1.8263,2.0841,0.5998,1948,2019-08-07 17:06:03:167
-2.6647,13.9739,-7.6367,1.1691,-2.8915,7.8272,-1.7145,3.5158,0.1619,1952,2019-08-07 17:06:03:171
-2.6647,13.9739,-7.6367,1.1691,-2.8915,7.8272,-1.7145,3.5158,0.1619,1958,2019-08-07 17:06:03:177
-3.6599,12.7948,1.5364,3.4746,-5.7094,1.8443,-1.4929,1.7954,0.7255,1963,2019-08-07 17:06:03:182
-3.6599,12.7948,1.5364,3.4746,-5.7094,1.8443,-1.4929,1.7954,0.7255,1968,2019-08-07 17:06:03:187
-3.6599,12.7948,1.5364,3.4746,-5.7094,1.8443,-1.4929,1.7954,0.7255,1972,2019-08-07 17:06:03:191
-3.2723,7.5531,12.8166,3.1901,2.0574,-11.2848,-1.0764,0.5683,0.6264,1978,2019-08-07 17:06:03:197
-3.2723,7.5531,12.8166,3.1901,2.0574,-11.2848,-1.0764,0.5683,0.6264,1982,2019-08-07 17:06:03:201
-2.923,10.5034,5.6044,3.1901,2.0574,-11.2848,-1.1883,-0.0847,0.3878,1988,2019-08-07 17:06:03:207
-2.923,10.5034,5.6044,3.1901,2.0574,-11.2848,-1.1883,-0.0847,0.3878,1993,2019-08-07 17:06:03:212
-2.923,10.5034,5.6044,3.1901,2.0574,-11.2848,-1.2607,-1.1564,0.5678,1997,2019-08-07 17:06:03:216
2.3444,11.9928,2.4792,-1.4075,-1.7396,-3.8705,-1.2607,-1.1564,0.5678,2002,2019-08-07 17:06:03:221
2.3444,11.9928,2.4792,-1.4075,-1.7396,-3.8705,-1.0125,-1.5569,0.6669,2008,2019-08-07 17:06:03:227
2.3444,11.9928,2.4792,-1.4075,-1.7396,-3.8705,-1.0125,-1.5569,0.6669,2013,2019-08-07 17:06:03:232
4.9614,17.454,-3.1915,-4.7933,-8.7909,4.3615,-0.842,-1.5921,0.7084,2018,2019-08-07 17:06:03:237
4.9614,17.454,-3.1915,-4.7933,-8.7909,4.3615,-0.842,-1.5921,0.7084,2023,2019-08-07 17:06:03:242
3.818,17.1724,-4.0494,-4.7933,-8.7909,4.3615,-0.7536,-0.627,0.5603,2028,2019-08-07 17:06:03:247
3.818,17.1724,-4.0494,-1.3594,-4.9689,3.1363,-0.7536,-0.627,0.5603,2032,2019-08-07 17:06:03:251
3.818,17.1724,-4.0494,-1.3594,-4.9689,3.1363,-1.0721,2.2727,0.0117,2038,2019-08-07 17:06:03:257
-2.9708,10.6848,1.2819,-1.3594,-4.9689,3.1363,-1.0721,2.2727,0.0117,2043,2019-08-07 17:06:03:262
-2.9708,10.6848,1.2819,-1.3594,-4.9689,3.1363,-1.0167,2.49,0.131,2048,2019-08-07 17:06:03:267
-3.8463,7.9923,7.8859,4.3584,1.3079,-6.7445,-1.0167,2.49,0.131,2052,2019-08-07 17:06:03:271
-3.8463,7.9923,7.8859,4.3584,1.3079,-6.7445,-1.0167,2.49,0.131,2058,2019-08-07 17:06:03:277
-3.8463,7.9923,7.8859,2.4183,2.5351,-5.1388,-0.515,0.2987,0.3079,2062,2019-08-07 17:06:03:281
-2.057,7.534,4.3977,2.4183,2.5351,-5.1388,-0.515,0.2987,0.3079,2068,2019-08-07 17:06:03:287
-2.057,7.534,4.3977,2.4183,2.5351,-5.1388,-0.2657,-1.6603,0.3111,2072,2019-08-07 17:06:03:291
0.3686,9.7013,1.527,2.4183,2.5351,-5.1388,-0.2657,-1.6603,0.3111,2078,2019-08-07 17:06:03:297
0.3686,9.7013,1.527,-1.7315,0.3052,1.7518,-0.1241,-1.5751,0.3132,2082,2019-08-07 17:06:03:301
0.3686,9.7013,1.527,-1.7315,0.3052,1.7518,-0.1241,-1.5751,0.3132,2088,2019-08-07 17:06:03:307
3.6076,10.2121,-4.7801,-1.7315,0.3052,1.7518,-0.3882,-0.4182,0.2866,2093,2019-08-07 17:06:03:312
3.6076,10.2121,-4.7801,-1.7315,0.3052,1.7518,-0.3882,-0.4182,0.2866,2097,2019-08-07 17:06:03:316
3.1962,9.8398,-2.1356,-3.2452,-0.119,3.5144,-0.548,0.7749,0.2599,2103,2019-08-07 17:06:03:322
3.1962,9.8398,-2.1356,-3.2452,-0.119,3.5144,-0.548,0.7749,0.2599,2107,2019-08-07 17:06:03:326
3.1962,9.8398,-2.1356,-3.2452,-0.119,3.5144,-0.6056,1.1488,0.2163,2113,2019-08-07 17:06:03:332
0.6605,9.6822,1.5553,-3.2452,-0.119,3.5144,-0.6056,1.1488,0.2163,2117,2019-08-07 17:06:03:336
0.6605,9.6822,1.5553,0.6773,0.0818,-1.9418,-0.4852,0.7131,0.2045,2123,2019-08-07 17:06:03:342
-1.2053,9.4913,3.1062,0.6773,0.0818,-1.9418,-0.4852,0.7131,0.2045,2127,2019-08-07 17:06:03:346
-1.2053,9.4913,3.1062,0.6773,0.0818,-1.9418,-0.3222,-0.0443,0.2386,2133,2019-08-07 17:06:03:352
-1.2053,9.4913,3.1062,0.6773,0.0818,-1.9418,-0.3222,-0.0443,0.2386,2138,2019-08-07 17:06:03:357
-1.5928,9.8636,1.0038,2.0108,-0.0932,-0.2289,-0.2327,-0.4864,0.2972,2143,2019-08-07 17:06:03:362
-1.5928,9.8636,1.0038,2.0108,-0.0932,-0.2289,-0.2327,-0.4864,0.2972,2148,2019-08-07 17:06:03:367
-0.99,10.5463,-0.415,1.4349,-0.7785,1.208,-0.2327,-0.4864,0.2972,2153,2019-08-07 17:06:03:372
-0.99,10.5463,-0.415,1.4349,-0.7785,1.208,-0.2157,-0.4129,0.3313,2158,2019-08-07 17:06:03:377
-0.99,10.5463,-0.415,1.4349,-0.7785,1.208,-0.2157,-0.4129,0.3313,2162,2019-08-07 17:06:03:381
0.2348,10.1596,-0.3443,1.4349,-0.7785,1.208,-0.1944,-0.235,0.3281,2168,2019-08-07 17:06:03:387
0.2348,10.1596,-0.3443,-0.607,0.1276,0.4685,-0.1944,-0.235,0.3281,2173,2019-08-07 17:06:03:392
1.6557,9.6345,0.6786,-0.607,0.1276,0.4685,-0.1944,-0.235,0.3281,2178,2019-08-07 17:06:03:397
1.6557,9.6345,0.6786,-0.607,0.1276,0.4685,-0.1645,-0.2456,0.293,2183,2019-08-07 17:06:03:402
1.6557,9.6345,0.6786,-0.607,0.1276,0.4685,-0.1645,-0.2456,0.293,2187,2019-08-07 17:06:03:406
2.0528,10.0307,0.1553,-1.4589,-0.2988,0.8392,-0.1518,-0.1061,0.244,2193,2019-08-07 17:06:03:412
2.0528,10.0307,0.1553,-1.4589,-0.2988,0.8392,-0.1518,-0.1061,0.244,2198,2019-08-07 17:06:03:417
2.0194,9.94,-0.1652,-1.4589,-0.2988,0.8392,-0.1518,-0.1061,0.244,2202,2019-08-07 17:06:03:421
2.0194,9.94,-0.1652,-1.4589,-0.2988,0.8392,-0.1539,0.3105,0.2088,2208,2019-08-07 17:06:03:427
2.0194,9.94,-0.1652,-0.9201,0.0299,0.1581,-0.1539,0.3105,0.2088,2213,2019-08-07 17:06:03:432
1.3879,9.6536,0.9237,-0.9201,0.0299,0.1581,-0.1251,0.4894,0.1779,2217,2019-08-07 17:06:03:436
1.3879,9.6536,0.9237,-0.9201,0.0299,0.1581,-0.0612,0.3808,0.1502,2223,2019-08-07 17:06:03:442
0.8186,9.3815,1.9325,-0.9201,0.0299,0.1581,-0.0612,0.3808,0.1502,2228,2019-08-07 17:06:03:447
0.8186,9.3815,1.9325,0.1934,0.2642,-0.8698,-0.0612,0.3808,0.1502,2232,2019-08-07 17:06:03:451
0.8186,9.3815,1.9325,0.1934,0.2642,-0.8698,0.0283,0.1166,0.1534,2238,2019-08-07 17:06:03:457
0.321,9.5868,0.9803,0.1934,0.2642,-0.8698,0.0283,0.1166,0.1534,2243,2019-08-07 17:06:03:462
0.321,9.5868,0.9803,0.1934,0.2642,-0.8698,0.0847,-0.0634,0.1737,2248,2019-08-07 17:06:03:467
0.3258,9.6393,0.0846,0.3666,0.1058,0.8046,0.0847,-0.0634,0.1737,2252,2019-08-07 17:06:03:471
0.3258,9.6393,0.0846,0.3666,0.1058,0.8046,0.0847,-0.0634,0.1737,2258,2019-08-07 17:06:03:477
0.3258,9.6393,0.0846,0.3666,0.1058,0.8046,0.1018,-0.0187,0.1747,2263,2019-08-07 17:06:03:482
0.6177,9.8493,0.4853,0.0913,-0.1043,0.3912,0.1018,-0.0187,0.1747,2268,2019-08-07 17:06:03:487
0.6177,9.8493,0.4853,0.0913,-0.1043,0.3912,0.122,0.0431,0.1598,2273,2019-08-07 17:06:03:492
1.1918,10.0021,0.523,0.0913,-0.1043,0.3912,0.122,0.0431,0.1598,2278,2019-08-07 17:06:03:497
1.1918,10.0021,0.523,-0.4732,-0.1377,0.5751,0.17,0.0367,0.1449,2282,2019-08-07 17:06:03:501
1.1918,10.0021,0.523,-0.4732,-0.1377,0.5751,0.17,0.0367,0.1449,2288,2019-08-07 17:06:03:507
1.187,9.8111,0.0517,-0.4732,-0.1377,0.5751,0.1668,0.2039,0.114,2293,2019-08-07 17:06:03:512
1.187,9.8111,0.0517,-0.4732,-0.1377,0.5751,0.1668,0.2039,0.114,2298,2019-08-07 17:06:03:517
0.9,10.045,0.0658,-0.1345,-0.2987,0.7458,0.1486,0.3318,0.0916,2302,2019-08-07 17:06:03:521
0.9,10.045,0.0658,-0.1345,-0.2987,0.7458,0.1486,0.3318,0.0916,2308,2019-08-07 17:06:03:527
0.9,10.045,0.0658,-0.1345,-0.2987,0.7458,0.1572,0.3424,0.0714,2313,2019-08-07 17:06:03:532
0.7469,9.9352,0.7305,-0.1345,-0.2987,0.7458,0.1572,0.3424,0.0714,2318,2019-08-07 17:06:03:537
0.7469,9.9352,0.7305,0.0328,-0.173,-0.008,0.1572,0.3424,0.0714,2322,2019-08-07 17:06:03:541
0.7469,9.9352,0.7305,0.0328,-0.173,-0.008,0.1998,0.1187,0.0629,2328,2019-08-07 17:06:03:547
0.7661,9.9352,0.556,0.0328,-0.173,-0.008,0.1998,0.1187,0.0629,2333,2019-08-07 17:06:03:552
0.7661,9.9352,0.556,0.0328,-0.173,-0.008,0.1998,0.1187,0.0629,2337,2019-08-07 17:06:03:556
0.7661,9.9352,0.556,0.0328,-0.173,-0.008,0.2126,-0.0443,0.0575,2343,2019-08-07 17:06:03:562
0.6608,10.0212,-1.1881,0.1254,-0.2704,1.923,0.2126,-0.0443,0.0575,2347,2019-08-07 17:06:03:566
0.6608,10.0212,-1.1881,0.1254,-0.2704,1.923,0.138,-0.0315,0.0533,2353,2019-08-07 17:06:03:572
0.6608,10.0212,-1.1881,0.1254,-0.2704,1.923,0.138,-0.0315,0.0533,2357,2019-08-07 17:06:03:576
0.7278,9.8923,-0.7072,0.1254,-0.2704,1.923,0.0815,-0.0294,0.0671,2363,2019-08-07 17:06:03:582
0.7278,9.8923,-0.7072,0.1654,-0.1827,0.5145,0.0815,-0.0294,0.0671,2367,2019-08-07 17:06:03:586
0.4456,9.9114,0.886,0.1654,-0.1827,0.5145,0.0688,-0.1369,0.0852,2373,2019-08-07 17:06:03:592
0.4456,9.9114,0.886,0.1654,-0.1827,0.5145,0.0688,-0.1369,0.0852,2378,2019-08-07 17:06:03:597
0.5604,10.4221,-0.9759,0.2541,-0.6696,1.6548,0.0528,-0.284,0.098,2383,2019-08-07 17:06:03:602
0.5604,10.4221,-0.9759,0.2541,-0.6696,1.6548,0.0528,-0.284,0.098,2388,2019-08-07 17:06:03:607
0.5604,10.4221,-0.9759,0.2541,-0.6696,1.6548,0.0176,-0.2605,0.0874,2392,2019-08-07 17:06:03:611
0.2303,10.6083,-1.98,0.2541,-0.6696,1.6548,0.0176,-0.2605,0.0874,2398,2019-08-07 17:06:03:617
0.2303,10.6083,-1.98,0.2541,-0.6696,1.6548,-0.0751,-0.0155,0.098,2403,2019-08-07 17:06:03:622
0.2303,10.6083,-1.98,0.8968,-0.6838,1.9633,-0.0751,-0.0155,0.098,2407,2019-08-07 17:06:03:626
-0.2002,10.3123,-0.6978,0.8968,-0.6838,1.9633,-0.1464,0.1688,0.1161,2413,2019-08-07 17:06:03:632
-0.2002,10.3123,-0.6978,0.8968,-0.6838,1.9633,-0.1464,0.1688,0.1161,2418,2019-08-07 17:06:03:637
-0.2385,10.0307,0.886,0.8968,-0.6838,1.9633,-0.1464,0.1688,0.1161,2422,2019-08-07 17:06:03:641
-0.2385,10.0307,0.886,0.8819,-0.1759,-0.2748,-0.1198,-0.0081,0.1524,2428,2019-08-07 17:06:03:647
-0.2385,10.0307,0.886,0.8819,-0.1759,-0.2748,-0.1198,-0.0081,0.1524,2433,2019-08-07 17:06:03:652
0.881,10.1309,0.3157,0.8819,-0.1759,-0.2748,-0.0719,-0.301,0.131,2438,2019-08-07 17:06:03:657
0.881,10.1309,0.3157,0.8819,-0.1759,-0.2748,-0.0719,-0.301,0.131,2443,2019-08-07 17:06:03:662
1.8188,9.9018,-0.9005,-0.7856,-0.1984,1.4078,-0.0601,-0.2861,0.1204,2448,2019-08-07 17:06:03:667
1.8188,9.9018,-0.9005,-0.7856,-0.1984,1.4078,-0.0601,-0.2861,0.1204,2453,2019-08-07 17:06:03:672
1.8188,9.9018,-0.9005,-0.7856,-0.1984,1.4078,-0.0601,-0.2861,0.1204,2458,2019-08-07 17:06:03:677
1.9814,9.9257,-0.8911,-0.7856,-0.1984,1.4078,-0.1155,-0.0421,0.0842,2463,2019-08-07 17:06:03:682
1.9814,9.9257,-0.8911,-0.8049,0.0039,0.2214,-0.1155,-0.0421,0.0842,2468,2019-08-07 17:06:03:687
1.5892,9.4387,1.6308,-0.8049,0.0039,0.2214,-0.1017,0.1027,0.0554,2472,2019-08-07 17:06:03:691
1.5892,9.4387,1.6308,-0.8049,0.0039,0.2214,-0.1017,0.1027,0.0554,2478,2019-08-07 17:06:03:697
1.5892,9.4387,1.6308,-0.8049,0.0039,0.2214,-0.0314,-0.0922,0.0394,2483,2019-08-07 17:06:03:702
1.3356,9.7299,1.1736,-0.4171,0.0106,-0.4558,-0.0314,-0.0922,0.0394,2487,2019-08-07 17:06:03:706
1.3356,9.7299,1.1736,-0.4171,0.0106,-0.4558,0.0517,-0.2328,0.0139,2493,2019-08-07 17:06:03:712
1.3356,9.7299,1.1736,-0.4171,0.0106,-0.4558,0.0517,-0.2328,0.0139,2498,2019-08-07 17:06:03:717
1.3069,9.7968,0.4335,-0.4171,0.0106,-0.4558,0.0517,-0.2328,0.0139,2503,2019-08-07 17:06:03:722
1.3069,9.7968,0.4335,-0.411,-0.2322,0.7665,0.0815,-0.0443,-0.0266,2508,2019-08-07 17:06:03:727
1.3213,10.0068,0.0659,-0.411,-0.2322,0.7665,0.0815,-0.0443,-0.0266,2512,2019-08-07 17:06:03:731
1.3213,10.0068,0.0659,-0.411,-0.2322,0.7665,0.0964,0.0697,-0.0575,2518,2019-08-07 17:06:03:737
1.0678,9.9877,0.7777,-0.411,-0.2322,0.7665,0.0964,0.0697,-0.0575,2523,2019-08-07 17:06:03:742
1.0678,9.9877,0.7777,-0.0513,-0.2585,-0.103,0.1476,0.1006,-0.0671,2528,2019-08-07 17:06:03:747
1.0678,9.9877,0.7777,-0.0513,-0.2585,-0.103,0.1476,0.1006,-0.0671,2533,2019-08-07 17:06:03:752
0.7042,9.8493,0.6551,-0.0513,-0.2585,-0.103,0.1955,0.0825,-0.0735,2538,2019-08-07 17:06:03:757
0.7042,9.8493,0.6551,-0.0513,-0.2585,-0.103,0.1955,0.0825,-0.0735,2543,2019-08-07 17:06:03:762
0.6898,9.453,0.5891,0.2476,0.2753,0.045,0.2435,0.0782,-0.0703,2548,2019-08-07 17:06:03:767
0.6898,9.453,0.5891,0.2476,0.2753,0.045,0.2435,0.0782,-0.0703,2553,2019-08-07 17:06:03:772
0.6898,9.453,0.5891,0.2476,0.2753,0.045,0.2637,0.0399,-0.0788,2557,2019-08-07 17:06:03:776
1.0582,9.7824,-0.1132,0.2476,0.2753,0.045,0.2637,0.0399,-0.0788,2563,2019-08-07 17:06:03:782
1.0582,9.7824,-0.1132,-0.3277,-0.1589,0.9138,0.2839,0.0207,-0.0959,2568,2019-08-07 17:06:03:787
1.0582,9.7824,-0.1132,-0.3277,-0.1589,0.9138,0.2839,0.0207,-0.0959,2572,2019-08-07 17:06:03:791
1.1539,9.7872,-0.7402,-0.3277,-0.1589,0.9138,0.2765,0.0559,-0.1108,2578,2019-08-07 17:06:03:797
1.1539,9.7872,-0.7402,-0.3277,-0.1589,0.9138,0.2765,0.0559,-0.1108,2583,2019-08-07 17:06:03:802
1.1539,9.7872,-0.7402,-0.1899,-0.4401,1.1209,0.2765,0.0559,-0.1108,2587,2019-08-07 17:06:03:806
0.8669,10.1643,-0.3536,-0.1899,-0.4401,1.1209,0.22,0.1826,-0.1257,2593,2019-08-07 17:06:03:812
0.8669,10.1643,-0.3536,0.2414,-0.1989,0.4898,0.22,0.1826,-0.1257,2598,2019-08-07 17:06:03:817
0.5416,9.8015,0.344,0.2414,-0.1989,0.4898,0.2147,0.188,-0.0841,2602,2019-08-07 17:06:03:821
0.5416,9.8015,0.344,0.2414,-0.1989,0.4898,0.2147,0.188,-0.0841,2608,2019-08-07 17:06:03:827
0.5416,9.8015,0.344,0.5608,-0.0347,0.026,0.2285,0.0963,-0.0809,2613,2019-08-07 17:06:03:832
0.0919,9.8493,0.4383,0.5608,-0.0347,0.026,0.2285,0.0963,-0.0809,2618,2019-08-07 17:06:03:837
0.0919,9.8493,0.4383,0.5608,-0.0347,0.026,0.2669,-0.073,-0.0564,2622,2019-08-07 17:06:03:841
0.4842,9.9256,-0.0567,0.3088,-0.193,0.6615,0.2669,-0.073,-0.0564,2628,2019-08-07 17:06:03:847
0.4842,9.9256,-0.0567,0.3088,-0.193,0.6615,0.2807,-0.1359,-0.0628,2633,2019-08-07 17:06:03:852
0.4842,9.9256,-0.0567,0.3088,-0.193,0.6615,0.2807,-0.1359,-0.0628,2638,2019-08-07 17:06:03:857
1.0057,9.854,-1.2351,0.3088,-0.193,0.6615,0.2552,-0.0986,-0.0724,2642,2019-08-07 17:06:03:861
1.0057,9.854,-1.2351,-0.2819,-0.1034,1.9583,0.2552,-0.0986,-0.0724,2648,2019-08-07 17:06:03:867
1.0057,9.854,-1.2351,-0.2819,-0.1034,1.9583,0.1721,0.0186,-0.0905,2653,2019-08-07 17:06:03:872
0.9818,9.9113,-1.5839,-0.2819,-0.1034,1.9583,0.1721,0.0186,-0.0905,2658,2019-08-07 17:06:03:877
0.9818,9.9113,-1.5839,-0.0842,-0.1353,1.7773,0.1178,0.1347,-0.0863,2663,2019-08-07 17:06:03:882
0.5454,9.8446,-0.8629,-0.0842,-0.1353,1.7773,0.1178,0.1347,-0.0863,2668,2019-08-07 17:06:03:887
0.5454,9.8446,-0.8629,-0.0842,-0.1353,1.7773,0.0741,0.1272,-0.0756,2673,2019-08-07 17:06:03:892
0.5454,9.8446,-0.8629,-0.0842,-0.1353,1.7773,0.0741,0.1272,-0.0756,2677,2019-08-07 17:06:03:896
0.3684,9.8303,0.2637,0.3908,-0.0757,0.1766,0.0911,0.0069,-0.0586,2683,2019-08-07 17:06:03:902
0.3684,9.8303,0.2637,0.3908,-0.0757,0.1766,0.0911,0.0069,-0.0586,2688,2019-08-07 17:06:03:907
0.4258,10.1262,-0.236,0.3908,-0.0757,0.1766,0.1199,-0.1284,-0.0554,2693,2019-08-07 17:06:03:912
0.4258,10.1262,-0.236,0.2904,-0.3221,0.7616,0.1199,-0.1284,-0.0554,2698,2019-08-07 17:06:03:917
0.4258,10.1262,-0.236,0.2904,-0.3221,0.7616,0.1199,-0.1284,-0.0554,2702,2019-08-07 17:06:03:921
0.6698,9.9114,-0.7592,0.2904,-0.3221,0.7616,0.1124,-0.0986,-0.066,2708,2019-08-07 17:06:03:927
0.6698,9.9114,-0.7592,0.2904,-0.3221,0.7616,0.1124,-0.0986,-0.066,2712,2019-08-07 17:06:03:931
1.0047,9.9066,-0.7404,-0.2488,-0.1292,0.9999,0.0826,-0.0144,-0.0767,2718,2019-08-07 17:06:03:937
1.0047,9.9066,-0.7404,-0.2488,-0.1292,0.9999,0.0826,-0.0144,-0.0767,2722,2019-08-07 17:06:03:941
1.0047,9.9066,-0.7404,-0.2488,-0.1292,0.9999,0.0826,-0.0144,-0.0767,2728,2019-08-07 17:06:03:947
1.0717,9.983,-0.6697,-0.2488,-0.1292,0.9999,0.0741,-0.0059,-0.0884,2733,2019-08-07 17:06:03:952
1.0717,9.983,-0.6697,-0.2396,-0.118,0.9919,0.0741,-0.0059,-0.0884,2738,2019-08-07 17:06:03:957
1.0717,9.983,-0.6697,-0.2396,-0.118,0.9919,0.0666,0.0154,-0.1012,2742,2019-08-07 17:06:03:961
0.8708,9.8828,-0.7922,-0.2396,-0.118,0.9919,0.0666,0.0154,-0.1012,2747,2019-08-07 17:06:03:966
0.8708,9.8828,-0.7922,-0.2396,-0.118,0.9919,0.0517,0.075,-0.1054,2753,2019-08-07 17:06:03:972
0.4737,9.7682,-0.4622,-0.2396,-0.118,0.9919,0.0517,0.075,-0.1054,2757,2019-08-07 17:06:03:976
0.4737,9.7682,-0.4622,0.3517,0.0081,0.5698,0.0411,0.0974,-0.0863,2763,2019-08-07 17:06:03:982
0.4737,9.7682,-0.4622,0.3517,0.0081,0.5698,0.0411,0.0974,-0.0863,2767,2019-08-07 17:06:03:986
0.0048,9.8541,-0.17,0.3517,0.0081,0.5698,0.0379,0.0655,-0.0607,2773,2019-08-07 17:06:03:992
0.0048,9.8541,-0.17,0.3517,0.0081,0.5698,0.0379,0.0655,-0.0607,2778,2019-08-07 17:06:03:997
0.0766,9.9544,-3.0E-4,0.6969,-0.1431,0.2626,0.056,-0.0208,-0.0479,2783,2019-08-07 17:06:04:002
0.0766,9.9544,-3.0E-4,0.6969,-0.1431,0.2626,0.056,-0.0208,-0.0479,2788,2019-08-07 17:06:04:007
0.5742,10.0976,0.1411,0.6969,-0.1431,0.2626,0.0869,-0.1167,-0.0437,2793,2019-08-07 17:06:04:012
0.5742,10.0976,0.1411,0.6969,-0.1431,0.2626,0.0869,-0.1167,-0.0437,2798,2019-08-07 17:06:04:017
0.5742,10.0976,0.1411,-0.204,-0.3806,0.5072,0.1082,-0.1508,-0.0564,2803,2019-08-07 17:06:04:022
1.0717,10.1596,-0.8865,-0.204,-0.3806,0.5072,0.1082,-0.1508,-0.0564,2808,2019-08-07 17:06:04:027
1.0717,10.1596,-0.8865,-0.204,-0.3806,0.5072,0.105,-0.0837,-0.0607,2813,2019-08-07 17:06:04:032
1.0717,10.1596,-0.8865,-0.204,-0.3806,0.5072,0.105,-0.0837,-0.0607,2817,2019-08-07 17:06:04:036
1.0096,10.0069,-0.9525,-0.3278,-0.2219,1.114,0.0645,0.0985,-0.0714,2823,2019-08-07 17:06:04:042
1.0096,10.0069,-0.9525,-0.3278,-0.2219,1.114,0.0645,0.0985,-0.0714,2828,2019-08-07 17:06:04:047
0.6125,10.0212,-0.7451,-0.3278,-0.2219,1.114,0.0304,0.1272,-0.0809,2833,2019-08-07 17:06:04:052
0.6125,10.0212,-0.7451,-0.3278,-0.2219,1.114,0.0304,0.1272,-0.0809,2838,2019-08-07 17:06:04:057
0.6125,10.0212,-0.7451,-0.3278,-0.2219,1.114,0.0304,0.1272,-0.0809,2842,2019-08-07 17:06:04:061
0.4594,10.0117,-0.434,0.1782,-0.2063,0.6798,0.0347,0.1038,-0.082,2848,2019-08-07 17:06:04:067
0.4594,10.0117,-0.434,0.1782,-0.2063,0.6798,0.0347,0.1038,-0.082,2852,2019-08-07 17:06:04:071
0.4594,10.0117,-0.434,0.1782,-0.2063,0.6798,0.0411,0.0218,-0.082,2858,2019-08-07 17:06:04:077
0.5503,9.9257,-0.4952,0.1266,-0.1572,0.6541,0.0411,0.0218,-0.082,2862,2019-08-07 17:06:04:081
0.5503,9.9257,-0.4952,0.1266,-0.1572,0.6541,0.0347,0.009,-0.0756,2868,2019-08-07 17:06:04:087
0.3876,9.9257,-0.8016,0.1266,-0.1572,0.6541,0.0347,0.009,-0.0756,2873,2019-08-07 17:06:04:092
0.3876,9.9257,-0.8016,0.1266,-0.1572,0.6541,0.0198,0.0463,-0.0714,2878,2019-08-07 17:06:04:097
0.3876,9.9257,-0.8016,0.3349,-0.1703,0.7361,0.0198,0.0463,-0.0714,2883,2019-08-07 17:06:04:102
0.3446,9.8637,-0.4905,0.3349,-0.1703,0.7361,0.008,0.0601,-0.0618,2887,2019-08-07 17:06:04:106
0.3446,9.8637,-0.4905,0.2845,-0.165,0.4458,0.008,0.0601,-0.0618,2893,2019-08-07 17:06:04:112
0.2824,9.94,-0.269,0.2845,-0.165,0.4458,0.0198,0.0282,-0.0564,2899,2019-08-07 17:06:04:118
0.2824,9.94,-0.269,0.2845,-0.165,0.4458,0.0198,0.0282,-0.0564,2902,2019-08-07 17:06:04:121
0.2824,9.94,-0.269,0.2845,-0.165,0.4458,0.0198,0.0282,-0.0564,2908,2019-08-07 17:06:04:127
0.445,9.9448,-0.5282,0.1671,-0.1546,0.6409,0.0272,-0.0123,-0.0373,2912,2019-08-07 17:06:04:131
0.445,9.9448,-0.5282,0.1671,-0.1546,0.6409,0.0272,-0.0123,-0.0373,2918,2019-08-07 17:06:04:137
0.445,9.9448,-0.5282,0.1671,-0.1546,0.6409,0.0272,-0.0123,-0.0373,2923,2019-08-07 17:06:04:142
0.3829,10.0689,-0.7828,0.1671,-0.1546,0.6409,0.0123,0.009,-0.0287,2928,2019-08-07 17:06:04:147
0.3829,10.0689,-0.7828,0.2641,-0.2113,0.8999,0.0123,0.009,-0.0287,2933,2019-08-07 17:06:04:152
0.3829,10.0689,-0.7828,0.2641,-0.2113,0.8999,-0.0026,0.0527,-0.0245,2937,2019-08-07 17:06:04:156
0.1915,9.9114,-0.5518,0.2641,-0.2113,0.8999,-0.0026,0.0527,-0.0245,2943,2019-08-07 17:06:04:162
0.1915,9.9114,-0.5518,0.2641,-0.2113,0.8999,-0.0111,0.0239,-0.0096,2948,2019-08-07 17:06:04:167
0.2537,9.9448,-0.4481,0.3437,-0.1535,0.5478,-0.0111,0.0239,-0.0096,2953,2019-08-07 17:06:04:172
0.2537,9.9448,-0.4481,0.3437,-0.1535,0.5478,-0.0058,-0.0272,-0.001,2957,2019-08-07 17:06:04:176
0.2537,9.9448,-0.4481,0.3437,-0.1535,0.5478,-0.0058,-0.0272,-0.001,2963,2019-08-07 17:06:04:182
0.3781,10.0069,-0.4292,0.3437,-0.1535,0.5478,-0.0016,-0.0379,0.0032,2967,2019-08-07 17:06:04:186
0.3781,10.0069,-0.4292,-0.0122,-0.182,0.4072,-0.0016,-0.0379,0.0032,2973,2019-08-07 17:06:04:192
0.5982,9.9878,-0.3915,-0.0122,-0.182,0.4072,0.0038,-0.0283,-0.001,2978,2019-08-07 17:06:04:197
0.5982,9.9878,-0.3915,-0.0122,-0.182,0.4072,0.0038,-0.0283,-0.001,2983,2019-08-07 17:06:04:202
0.5982,9.9878,-0.3915,-0.0122,-0.182,0.4072,0.0038,-0.0283,-0.001,2987,2019-08-07 17:06:04:206
0.823,10.0307,-0.7309,-0.2267,-0.2393,0.821,0.0038,-0.024,-0.0138,2993,2019-08-07 17:06:04:212
0.823,10.0307,-0.7309,-0.2267,-0.2393,0.821,0.0038,-0.024,-0.0138,2998,2019-08-07 17:06:04:217
0.823,10.0307,-0.7309,-0.2267,-0.2393,0.821,-0.0079,0.0282,-0.0181,3002,2019-08-07 17:06:04:221
0.5312,9.8875,-0.7262,-0.2267,-0.2393,0.821,-0.0079,0.0282,-0.0181,3008,2019-08-07 17:06:04:227
0.5312,9.8875,-0.7262,-0.2267,-0.2393,0.821,-0.0239,0.0537,-0.016,3012,2019-08-07 17:06:04:231
0.5121,9.9114,-0.3114,0.0806,-0.1197,0.3978,-0.0239,0.0537,-0.016,3018,2019-08-07 17:06:04:237
0.5121,9.9114,-0.3114,0.0806,-0.1197,0.3978,-0.0058,0.0026,-0.0192,3022,2019-08-07 17:06:04:241
0.5121,9.9114,-0.3114,0.0806,-0.1197,0.3978,-0.0058,0.0026,-0.0192,3028,2019-08-07 17:06:04:247
0.5073,9.8493,-0.6555,0.048,-0.0335,0.7821,-0.0026,-0.0528,-0.0117,3032,2019-08-07 17:06:04:251
0.5073,9.8493,-0.6555,0.048,-0.0335,0.7821,-0.0026,-0.0528,-0.0117,3038,2019-08-07 17:06:04:257
0.5073,9.8493,-0.6555,0.048,-0.0335,0.7821,-0.009,-0.0166,-0.0085,3043,2019-08-07 17:06:04:262
0.5934,9.9066,-0.5424,0.048,-0.0335,0.7821,-0.009,-0.0166,-0.0085,3048,2019-08-07 17:06:04:267
0.5934,9.9066,-0.5424,0.0643,-0.1479,0.4956,-0.0122,0.0101,-0.0192,3052,2019-08-07 17:06:04:271
0.5934,9.9066,-0.5424,0.0643,-0.1479,0.4956,-0.0122,0.0101,-0.0192,3058,2019-08-07 17:06:04:277
0.5025,9.983,-0.2454,0.0643,-0.1479,0.4956,-0.0016,-0.0102,-0.0117,3063,2019-08-07 17:06:04:282
0.5025,9.983,-0.2454,0.0643,-0.1479,0.4956,-0.0016,-0.0102,-0.0117,3068,2019-08-07 17:06:04:287
0.5121,9.9066,-0.3868,0.0656,-0.1763,0.526,0.0112,-0.0123,-0.0213,3073,2019-08-07 17:06:04:292
0.5121,9.9066,-0.3868,0.0656,-0.1763,0.526,0.0112,-0.0123,-0.0213,3078,2019-08-07 17:06:04:297
0.6173,9.9544,-0.4905,0.0656,-0.1763,0.526,0.0048,0.0079,-0.0213,3082,2019-08-07 17:06:04:301
0.6173,9.9544,-0.4905,0.0656,-0.1763,0.526,0.0048,0.0079,-0.0213,3088,2019-08-07 17:06:04:307
0.6173,9.9544,-0.4905,-0.034,-0.1522,0.4501,0.0059,0.0154,-0.017,3093,2019-08-07 17:06:04:312
0.5791,9.9066,-0.4009,-0.034,-0.1522,0.4501,0.0059,0.0154,-0.017,3098,2019-08-07 17:06:04:317
0.5791,9.9066,-0.4009,-0.034,-0.1522,0.4501,0.0059,0.0154,-0.017,3102,2019-08-07 17:06:04:321
0.5791,9.9066,-0.4009,-0.034,-0.1522,0.4501,0.0059,0.0069,-0.0213,3108,2019-08-07 17:06:04:327
0.3494,9.9591,-0.6602,-0.034,-0.1522,0.4501,0.0059,0.0069,-0.0213,3113,2019-08-07 17:06:04:332
0.3494,9.9591,-0.6602,0.1623,-0.1423,0.7031,6.0E-4,-0.0017,-0.0106,3118,2019-08-07 17:06:04:337
0.469,9.8828,-0.5848,0.1623,-0.1423,0.7031,6.0E-4,-0.0017,-0.0106,3122,2019-08-07 17:06:04:341
0.469,9.8828,-0.5848,0.1623,-0.1423,0.7031,-0.0058,-0.0112,-0.0128,3128,2019-08-07 17:06:04:347
0.469,9.8828,-0.5848,0.025,-0.0943,0.628,-0.0058,-0.0112,-0.0128,3133,2019-08-07 17:06:04:352
0.5456,9.8875,-0.5659,0.025,-0.0943,0.628,-0.0079,-0.0251,-0.0106,3137,2019-08-07 17:06:04:356
0.5456,9.8875,-0.5659,0.025,-0.0943,0.628,-0.0079,-0.0251,-0.0106,3143,2019-08-07 17:06:04:362
0.5504,10.0164,-0.5094,0.019,-0.2231,0.57,-0.0079,-0.0102,-0.0149,3148,2019-08-07 17:06:04:367
0.5504,10.0164,-0.5094,0.019,-0.2231,0.57,-0.0079,-0.0102,-0.0149,3152,2019-08-07 17:06:04:371
0.5982,9.94,-0.5046,0.019,-0.2231,0.57,-0.0122,-0.0049,-0.0234,3158,2019-08-07 17:06:04:377
0.5982,9.94,-0.5046,0.019,-0.2231,0.57,-0.0122,-0.0049,-0.0234,3163,2019-08-07 17:06:04:382
0.5982,9.94,-0.5046,0.0345,-0.1609,0.6004,-0.0122,-0.0049,-0.0234,3167,2019-08-07 17:06:04:386
0.5504,9.9066,-0.4339,0.0345,-0.1609,0.6004,-0.0111,0.0111,-0.0202,3173,2019-08-07 17:06:04:392
0.5504,9.9066,-0.4339,0.0345,-0.1609,0.6004,-0.0111,0.0111,-0.0202,3178,2019-08-07 17:06:04:397
0.5504,9.9066,-0.4339,0.0345,-0.1609,0.6004,-0.0079,0.0069,-0.0234,3183,2019-08-07 17:06:04:402
0.5791,9.9735,-0.4339,-0.0176,-0.1797,0.49,-0.0079,0.0069,-0.0234,3187,2019-08-07 17:06:04:406
0.5791,9.9735,-0.4339,-0.0176,-0.1797,0.49,-0.009,0.0037,-0.0277,3193,2019-08-07 17:06:04:412
0.493,9.9782,-0.6319,-0.0176,-0.1797,0.49,-0.009,0.0037,-0.0277,3198,2019-08-07 17:06:04:417
0.493,9.9782,-0.6319,-0.0176,-0.1797,0.49,-0.0143,0.0207,-0.0256,3202,2019-08-07 17:06:04:421
0.493,9.9782,-0.6319,0.13,-0.1889,0.7601,-0.0143,0.0207,-0.0256,3208,2019-08-07 17:06:04:427
0.4547,10.0069,-0.6366,0.13,-0.1889,0.7601,-0.0282,0.0303,-0.0234,3213,2019-08-07 17:06:04:432
0.4547,10.0069,-0.6366,0.13,-0.1889,0.7601,-0.0282,0.0303,-0.0234,3217,2019-08-07 17:06:04:436
0.4547,10.0069,-0.6366,0.13,-0.1889,0.7601,-0.0356,0.0122,-0.0181,3223,2019-08-07 17:06:04:442
0.2873,9.9926,-0.4151,0.2626,-0.1981,0.4695,-0.0356,0.0122,-0.0181,3228,2019-08-07 17:06:04:447
0.2873,9.9926,-0.4151,0.2626,-0.1981,0.4695,-0.0335,-0.0198,-0.0128,3233,2019-08-07 17:06:04:452
0.4834,9.9305,-0.4905,0.2626,-0.1981,0.4695,-0.0335,-0.0198,-0.0128,3237,2019-08-07 17:06:04:456
0.4834,9.9305,-0.4905,0.2626,-0.1981,0.4695,-0.0324,-0.0336,-0.0096,3243,2019-08-07 17:06:04:462
0.4834,9.9305,-0.4905,-0.0471,-0.1597,0.7307,-0.0324,-0.0336,-0.0096,3248,2019-08-07 17:06:04:467
0.5887,9.9639,-0.7592,-0.0471,-0.1597,0.7307,-0.041,-0.0198,-0.0138,3253,2019-08-07 17:06:04:472
0.5887,9.9639,-0.7592,-0.0471,-0.1597,0.7307,-0.041,-0.0198,-0.0138,3257,2019-08-07 17:06:04:476
0.5265,9.9878,-0.5753,-0.0471,-0.1597,0.7307,-0.0591,0.025,-0.0181,3263,2019-08-07 17:06:04:482
0.5265,9.9878,-0.5753,0.0507,-0.1453,0.6818,-0.0591,0.025,-0.0181,3267,2019-08-07 17:06:04:486
0.5265,9.9878,-0.5753,0.0507,-0.1453,0.6818,-0.0591,0.025,-0.0181,3273,2019-08-07 17:06:04:492
0.5074,9.9066,-0.5093,0.0342,-0.1118,0.5727,-0.0655,0.0324,-0.017,3277,2019-08-07 17:06:04:496
0.5074,9.9066,-0.5093,0.0342,-0.1118,0.5727,-0.0655,0.0324,-0.017,3283,2019-08-07 17:06:04:502
0.5074,9.9066,-0.5093,0.0342,-0.1118,0.5727,-0.0655,0.0111,-0.0192,3287,2019-08-07 17:06:04:506
0.3447,10.0069,-0.6555,0.0342,-0.1118,0.5727,-0.0655,0.0111,-0.0192,3293,2019-08-07 17:06:04:512
0.3447,10.0069,-0.6555,0.2207,-0.2071,0.6849,-0.074,0.0154,-0.0138,3298,2019-08-07 17:06:04:517
0.1246,9.9782,-0.613,0.2207,-0.2071,0.6849,-0.074,0.0154,-0.0138,3303,2019-08-07 17:06:04:522
0.1246,9.9782,-0.613,0.2207,-0.2071,0.6849,-0.0878,0.0196,0.0011,3307,2019-08-07 17:06:04:526
0.1246,9.9782,-0.613,0.2207,-0.2071,0.6849,-0.0878,0.0196,0.0011,3313,2019-08-07 17:06:04:532
0.1581,9.983,-0.1417,0.3752,-0.1879,0.2256,-0.0878,0.0196,0.0011,3318,2019-08-07 17:06:04:537
0.1581,9.983,-0.1417,0.3752,-0.1879,0.2256,-0.0729,-0.0357,0.0107,3323,2019-08-07 17:06:04:542
0.1581,9.983,-0.1417,0.3752,-0.1879,0.2256,-0.0729,-0.0357,0.0107,3328,2019-08-07 17:06:04:547
0.5457,9.9591,-0.2171,0.3752,-0.1879,0.2256,-0.0474,-0.0954,0.0096,3332,2019-08-07 17:06:04:551
0.5457,9.9591,-0.2171,-0.221,-0.1594,0.5783,-0.0474,-0.0954,0.0096,3338,2019-08-07 17:06:04:557
0.761,9.9257,-0.4811,-0.221,-0.1594,0.5783,-0.0474,-0.0816,0.0085,3342,2019-08-07 17:06:04:561
0.761,9.9257,-0.4811,-0.221,-0.1594,0.5783,-0.0474,-0.0816,0.0085,3347,2019-08-07 17:06:04:566
0.761,9.9257,-0.4811,-0.221,-0.1594,0.5783,-0.058,-0.0134,-0.0021,3353,2019-08-07 17:06:04:572
0.7418,9.94,-0.5329,-0.2955,-0.1787,0.5034,-0.058,-0.0134,-0.0021,3357,2019-08-07 17:06:04:576
0.7418,9.94,-0.5329,-0.2955,-0.1787,0.5034,-0.0665,0.0143,-0.0117,3362,2019-08-07 17:06:04:581
-0.9231,10.0689,3.5917,-0.2955,-0.1787,0.5034,-0.0665,0.0143,-0.0117,3368,2019-08-07 17:06:04:587
-0.9231,10.0689,3.5917,-0.2955,-0.1787,0.5034,0.1433,-0.7069,-0.0479,3373,2019-08-07 17:06:04:592
-0.9231,10.0689,3.5917,0.6744,-0.3694,1.9627,0.1433,-0.7069,-0.0479,3377,2019-08-07 17:06:04:596
0.096,10.3601,-2.145,0.6744,-0.3694,1.9627,-0.0207,-0.7399,-0.0213,3383,2019-08-07 17:06:04:602
0.096,10.3601,-2.145,0.6744,-0.3694,1.9627,-0.0207,-0.7399,-0.0213,3387,2019-08-07 17:06:04:606
1.2011,10.0737,-1.7774,0.6744,-0.3694,1.9627,-0.0463,-0.1934,-0.0383,3393,2019-08-07 17:06:04:612
1.2011,10.0737,-1.7774,0.6744,-0.3694,1.9627,-0.0463,-0.1934,-0.0383,3398,2019-08-07 17:06:04:617
1.2011,10.0737,-1.7774,-0.2991,-0.498,1.8784,-0.1049,0.188,-0.0106,3402,2019-08-07 17:06:04:621
0.6414,9.7109,-0.8016,-0.2991,-0.498,1.8784,-0.1049,0.188,-0.0106,3408,2019-08-07 17:06:04:627
0.6414,9.7109,-0.8016,-0.2991,-0.498,1.8784,-0.0964,0.2167,-0.0266,3412,2019-08-07 17:06:04:631
0.0864,9.8446,0.6173,0.4373,-0.1255,-0.413,-0.0964,0.2167,-0.0266,3418,2019-08-07 17:06:04:637
0.0864,9.8446,0.6173,0.4373,-0.1255,-0.413,-0.0431,0.0143,-0.0042,3422,2019-08-07 17:06:04:641
0.0864,9.8446,0.6173,0.4373,-0.1255,-0.413,-0.0431,0.0143,-0.0042,3428,2019-08-07 17:06:04:647
0.2778,9.9591,-0.4811,0.4373,-0.1255,-0.413,-0.0175,0.1113,0.0,3433,2019-08-07 17:06:04:652
0.2778,9.9591,-0.4811,-0.0721,-0.3116,1.5266,-0.0175,0.1113,0.0,3437,2019-08-07 17:06:04:656
0.6701,10.088,-1.3672,-0.0721,-0.3116,1.5266,-0.0175,0.1113,0.0,3443,2019-08-07 17:06:04:662
0.6701,10.088,-1.3672,-0.0721,-0.3116,1.5266,-0.0612,0.3744,0.0149,3448,2019-08-07 17:06:04:667
0.6701,10.088,-1.3672,-0.0721,-0.3116,1.5266,-0.0612,0.3744,0.0149,3452,2019-08-07 17:06:04:671
0.8997,9.878,-0.4198,-0.3178,-0.1449,0.2051,-0.0974,0.5225,-0.0032,3458,2019-08-07 17:06:04:677
0.8997,9.878,-0.4198,-0.3178,-0.1449,0.2051,-0.0974,0.5225,-0.0032,3463,2019-08-07 17:06:04:682
0.0529,9.9973,0.8058,-0.3178,-0.1449,0.2051,-0.0974,0.5225,-0.0032,3467,2019-08-07 17:06:04:686
0.0529,9.9973,0.8058,-0.3178,-0.1449,0.2051,-0.0932,0.1752,-0.0042,3473,2019-08-07 17:06:04:692
0.2491,9.7157,0.9237,0.2703,0.0795,-0.7751,0.024,-0.1561,-0.0042,3478,2019-08-07 17:06:04:697
0.2491,9.7157,0.9237,0.2703,0.0795,-0.7751,0.024,-0.1561,-0.0042,3483,2019-08-07 17:06:04:702
0.2491,9.7157,0.9237,0.2703,0.0795,-0.7751,0.024,-0.1561,-0.0042,3488,2019-08-07 17:06:04:707
0.9428,10.0594,-0.9996,0.2703,0.0795,-0.7751,0.0506,-0.2275,-0.0128,3493,2019-08-07 17:06:04:712
0.9428,10.0594,-0.9996,0.2703,0.0795,-0.7751,0.0506,-0.2275,-0.0128,3498,2019-08-07 17:06:04:717
0.9428,10.0594,-0.9996,-0.4856,-0.1495,1.4953,6.0E-4,0.0218,-0.0192,3503,2019-08-07 17:06:04:722
0.694,9.8971,-0.712,-0.4856,-0.1495,1.4953,6.0E-4,0.0218,-0.0192,3507,2019-08-07 17:06:04:726