ACCELEROMETER X (m/s²),ACCELEROMETER Y (m/s²),ACCELEROMETER Z (m/s²),LINEAR ACCELERATION X (m/s²),LINEAR ACCELERATION Y (m/s²),LINEAR ACCELERATION Z (m/s²),GYROSCOPE X (rad/s),GYROSCOPE Y (rad/s),GYROSCOPE Z (rad/s),Time since start in ms ,YYYY-MO-DD HH-MI-SS_SSS
0.0563,9.9827,0.7688,0.3767,-0.1851,0.175,0.0187,0.0409,-0.0234,2,2019-08-07 17:05:52:178
0.0563,9.9827,0.7688,0.3767,-0.1851,0.175,0.0187,0.0409,-0.0234,8,2019-08-07 17:05:52:184
0.0563,9.9827,0.7688,0.3767,-0.1851,0.175,0.0251,-0.0208,-0.017,12,2019-08-07 17:05:52:188
0.1472,9.9683,0.6698,0.3067,-0.232,0.231,0.0251,-0.0208,-0.017,18,2019-08-07 17:05:52:194
0.1472,9.9683,0.6698,0.3067,-0.232,0.231,0.0197,-0.0507,-0.0053,23,2019-08-07 17:05:52:199
0.4917,10.0447,0.6085,0.3067,-0.232,0.231,0.0197,-0.0507,-0.0053,27,2019-08-07 17:05:52:203
0.4917,10.0447,0.6085,0.3067,-0.232,0.231,0.007,-0.0485,-0.0042,33,2019-08-07 17:05:52:209
0.4917,10.0447,0.6085,-0.0865,-0.2458,0.3476,0.007,-0.0485,-0.0042,38,2019-08-07 17:05:52:214
0.5586,10.0781,0.4577,-0.0865,-0.2458,0.3476,-0.0069,-0.023,-0.0074,43,2019-08-07 17:05:52:219
0.5586,10.0781,0.4577,-0.0865,-0.2458,0.3476,-0.0069,-0.023,-0.0074,48,2019-08-07 17:05:52:224
0.506,9.9683,0.4671,-0.0819,-0.2552,0.4641,-0.0069,-0.023,-0.0074,53,2019-08-07 17:05:52:229
0.506,9.9683,0.4671,-0.0819,-0.2552,0.4641,-0.0261,0.0015,-0.0095,58,2019-08-07 17:05:52:234
0.506,9.9683,0.4671,-0.0819,-0.2552,0.4641,-0.0261,0.0015,-0.0095,63,2019-08-07 17:05:52:239
0.5204,9.9922,0.7264,0.0409,-0.2267,0.1792,-0.025,-0.0208,-0.0106,67,2019-08-07 17:05:52:243
0.5204,9.9922,0.7264,0.0409,-0.2267,0.1792,-0.025,-0.0208,-0.0106,73,2019-08-07 17:05:52:249
0.439,9.9206,0.552,0.0409,-0.2267,0.1792,-0.0282,-0.0517,-0.0117,79,2019-08-07 17:05:52:255
0.439,9.9206,0.552,0.0409,-0.2267,0.1792,-0.0282,-0.0517,-0.0117,83,2019-08-07 17:05:52:259
0.439,9.9206,0.552,0.0409,-0.2267,0.1792,-0.0282,-0.0517,-0.0117,88,2019-08-07 17:05:52:264
0.5156,10.059,0.4813,-0.0178,-0.2889,0.3237,-0.0399,-0.0272,-0.0095,92,2019-08-07 17:05:52:268
0.5156,10.059,0.4813,-0.0178,-0.2889,0.3237,-0.0399,-0.0272,-0.0095,98,2019-08-07 17:05:52:274
0.5156,10.059,0.4813,-0.0178,-0.2889,0.3237,-0.0516,-0.0027,-0.0085,103,2019-08-07 17:05:52:279
0.3003,10.0781,0.5661,-0.0178,-0.2889,0.3237,-0.0516,-0.0027,-0.0085,108,2019-08-07 17:05:52:284
0.3003,10.0781,0.5661,0.281,-0.194,0.2883,-0.0612,0.009,-0.0021,113,2019-08-07 17:05:52:289
0.1998,9.9397,0.5661,0.281,-0.194,0.2883,-0.0612,0.009,-0.0021,117,2019-08-07 17:05:52:293
0.1998,9.9397,0.5661,0.281,-0.194,0.2883,-0.0751,-0.023,0.0032,123,2019-08-07 17:05:52:299
0.1998,9.9397,0.5661,0.281,-0.194,0.2883,-0.0751,-0.023,0.0032,128,2019-08-07 17:05:52:304
0.0946,9.9254,0.8489,0.3844,-0.1663,0.0266,-0.0665,-0.0624,0.0192,133,2019-08-07 17:05:52:309
0.0946,9.9254,0.8489,0.3844,-0.1663,0.0266,-0.0665,-0.0624,0.0192,137,2019-08-07 17:05:52:313
0.3912,9.8299,0.8489,0.3844,-0.1663,0.0266,-0.0655,-0.1263,0.0192,143,2019-08-07 17:05:52:319
0.3912,9.8299,0.8489,0.3844,-0.1663,0.0266,-0.0655,-0.1263,0.0192,147,2019-08-07 17:05:52:323
0.3912,9.8299,0.8489,-0.0274,-0.1246,0.0054,-0.0655,-0.1263,0.0192,153,2019-08-07 17:05:52:329
0.5921,9.7917,0.9055,-0.0274,-0.1246,0.0054,-0.041,-0.1199,0.0192,158,2019-08-07 17:05:52:334
0.5921,9.7917,0.9055,-0.0274,-0.1246,0.0054,-0.041,-0.1199,0.0192,163,2019-08-07 17:05:52:339
0.8265,9.7822,0.9197,-0.0274,-0.1246,0.0054,-0.0325,-0.088,0.0213,167,2019-08-07 17:05:52:343
0.8265,9.7822,0.9197,-0.3925,0.0558,0.0641,-0.0325,-0.088,0.0213,173,2019-08-07 17:05:52:349
0.8265,9.7822,0.9197,-0.3925,0.0558,0.0641,-0.0229,-0.0358,0.0128,177,2019-08-07 17:05:52:353
0.8505,9.6962,0.8772,-0.3925,0.0558,0.0641,-0.0229,-0.0358,0.0128,183,2019-08-07 17:05:52:359
0.8505,9.6962,0.8772,-0.3925,0.0558,0.0641,-0.0122,-6.0E-4,0.0011,187,2019-08-07 17:05:52:363
0.8505,9.6962,0.8772,-0.483,0.0217,-0.3744,-0.0122,-6.0E-4,0.0011,193,2019-08-07 17:05:52:369
0.9605,9.7535,1.2685,-0.483,0.0217,-0.3744,0.0197,-0.007,-0.0085,197,2019-08-07 17:05:52:373
0.9605,9.7535,1.2685,-0.483,0.0217,-0.3744,0.0197,-0.007,-0.0085,203,2019-08-07 17:05:52:379
0.7452,9.8776,0.7688,-0.483,0.0217,-0.3744,0.0197,-0.007,-0.0085,207,2019-08-07 17:05:52:383
0.7452,9.8776,0.7688,-0.1478,-0.1212,0.1548,0.0325,0.0463,-0.0202,213,2019-08-07 17:05:52:389
0.5395,9.8299,1.1553,-0.1478,-0.1212,0.1548,0.0325,0.0463,-0.0202,217,2019-08-07 17:05:52:393
0.5395,9.8299,1.1553,-0.1478,-0.1212,0.1548,0.0602,0.1027,-0.0298,223,2019-08-07 17:05:52:399
0.5395,9.8299,1.1553,-0.1478,-0.1212,0.1548,0.0602,0.1027,-0.0298,227,2019-08-07 17:05:52:403
0.5873,9.701,1.4617,-0.0874,0.0278,-0.5694,0.1039,0.0505,-0.0351,233,2019-08-07 17:05:52:409
0.5873,9.701,1.4617,-0.0874,0.0278,-0.5694,0.1039,0.0505,-0.0351,237,2019-08-07 17:05:52:413
0.7165,9.7488,1.2025,-0.0874,0.0278,-0.5694,0.1465,0.0196,-0.0404,243,2019-08-07 17:05:52:419
0.7165,9.7488,1.2025,-0.0874,0.0278,-0.5694,0.1465,0.0196,-0.0404,247,2019-08-07 17:05:52:423
0.7165,9.7488,1.2025,-0.2955,0.0446,-0.2589,0.1721,0.0591,-0.0554,253,2019-08-07 17:05:52:429
0.8744,9.6342,1.1318,-0.2955,0.0446,-0.2589,0.1721,0.0591,-0.0554,258,2019-08-07 17:05:52:434
0.8744,9.6342,1.1318,-0.2955,0.0446,-0.2589,0.1976,0.0985,-0.066,263,2019-08-07 17:05:52:439
0.9318,9.7869,0.9856,-0.2955,0.0446,-0.2589,0.1976,0.0985,-0.066,267,2019-08-07 17:05:52:443
0.9318,9.7869,0.9856,-0.402,-0.0472,-0.0404,0.2221,0.1251,-0.0724,273,2019-08-07 17:05:52:449
0.9318,9.7869,0.9856,-0.402,-0.0472,-0.0404,0.2221,0.1251,-0.0724,277,2019-08-07 17:05:52:453
0.7261,9.8251,0.8301,-0.402,-0.0472,-0.0404,0.2403,0.1752,-0.0841,283,2019-08-07 17:05:52:459
0.7261,9.8251,0.8301,-0.402,-0.0472,-0.0404,0.2403,0.1752,-0.0841,287,2019-08-07 17:05:52:463
0.6112,9.8729,0.7641,-0.156,-0.1047,0.0183,0.2466,0.1773,-0.0905,293,2019-08-07 17:05:52:469
0.6112,9.8729,0.7641,-0.156,-0.1047,0.0183,0.2466,0.1773,-0.0905,297,2019-08-07 17:05:52:473
0.6112,9.8729,0.7641,-0.156,-0.1047,0.0183,0.2466,0.1773,-0.0905,303,2019-08-07 17:05:52:479
0.4103,9.8585,0.7452,-0.156,-0.1047,0.0183,0.2743,0.1677,-0.1022,308,2019-08-07 17:05:52:484
0.4103,9.8585,0.7452,0.0083,-0.0807,-0.0607,0.2743,0.1677,-0.1022,313,2019-08-07 17:05:52:489
0.4103,9.8585,0.7452,0.0083,-0.0807,-0.0607,0.2786,0.14,-0.1044,317,2019-08-07 17:05:52:493
0.4246,9.9158,0.7028,0.0083,-0.0807,-0.0607,0.2786,0.14,-0.1044,323,2019-08-07 17:05:52:499
0.4246,9.9158,0.7028,0.0083,-0.0807,-0.0607,0.2967,0.1272,-0.1022,328,2019-08-07 17:05:52:504
0.4103,9.9158,0.6887,1.0E-4,-0.1377,-0.0134,0.2967,0.1272,-0.1022,333,2019-08-07 17:05:52:509
0.4103,9.9158,0.6887,1.0E-4,-0.1377,-0.0134,0.3052,0.124,-0.1054,338,2019-08-07 17:05:52:514
0.4103,9.9158,0.6887,1.0E-4,-0.1377,-0.0134,0.3052,0.124,-0.1054,343,2019-08-07 17:05:52:519
0.3672,9.6962,0.4671,1.0E-4,-0.1377,-0.0134,0.3106,0.1411,-0.1033,348,2019-08-07 17:05:52:524
0.3672,9.6962,0.4671,0.2548,-0.0946,0.0954,0.3106,0.1411,-0.1033,353,2019-08-07 17:05:52:529
0.1089,9.9111,0.5567,0.2548,-0.0946,0.0954,0.3031,0.1592,-0.0937,358,2019-08-07 17:05:52:534
0.1089,9.9111,0.5567,0.2548,-0.0946,0.0954,0.3031,0.1592,-0.0937,363,2019-08-07 17:05:52:539
0.1089,9.9111,0.5567,0.2548,-0.0946,0.0954,0.3063,0.1475,-0.0926,367,2019-08-07 17:05:52:543
0.0132,10.0638,0.4624,0.366,-0.3192,0.1719,0.3063,0.1475,-0.0926,373,2019-08-07 17:05:52:549
0.0132,10.0638,0.4624,0.366,-0.3192,0.1719,0.3212,0.1049,-0.0958,378,2019-08-07 17:05:52:554
-0.0634,10.0256,0.387,0.366,-0.3192,0.1719,0.3212,0.1049,-0.0958,383,2019-08-07 17:05:52:559
-0.0634,10.0256,0.387,0.366,-0.3192,0.1719,0.3308,0.0527,-0.0926,387,2019-08-07 17:05:52:563
-0.0634,10.0256,0.387,0.3193,-0.1383,0.1723,0.3308,0.0527,-0.0926,393,2019-08-07 17:05:52:569
0.018,9.9683,0.2833,0.3193,-0.1383,0.1723,0.3383,-0.0091,-0.0873,397,2019-08-07 17:05:52:573
0.018,9.9683,0.2833,0.3193,-0.1383,0.1723,0.3383,-0.0091,-0.0873,403,2019-08-07 17:05:52:579
0.018,9.9683,0.2833,0.3193,-0.1383,0.1723,0.3383,-0.0091,-0.0873,407,2019-08-07 17:05:52:583
0.0993,9.9158,0.222,0.1475,-0.1441,0.1621,0.318,-0.0539,-0.0831,413,2019-08-07 17:05:52:589
0.0993,9.9158,0.222,0.1475,-0.1441,0.1621,0.318,-0.0539,-0.0831,417,2019-08-07 17:05:52:593
0.2476,10.0256,0.4294,0.1475,-0.1441,0.1621,0.3202,-0.0666,-0.0852,423,2019-08-07 17:05:52:599
0.2476,10.0256,0.4294,0.1475,-0.1441,0.1621,0.3202,-0.0666,-0.0852,427,2019-08-07 17:05:52:603
0.2476,10.0256,0.4294,0.0345,-0.1267,0.0693,0.3255,-0.0816,-0.0884,433,2019-08-07 17:05:52:609
0.2715,9.9254,0.288,0.0345,-0.1267,0.0693,0.3255,-0.0816,-0.0884,437,2019-08-07 17:05:52:613
0.2715,9.9254,0.288,0.0345,-0.1267,0.0693,0.3404,-0.0773,-0.1012,443,2019-08-07 17:05:52:619
0.3337,9.8824,0.684,0.0345,-0.1267,0.0693,0.3404,-0.0773,-0.1012,447,2019-08-07 17:05:52:623
0.3337,9.8824,0.684,-0.2998,-0.0809,-0.4266,0.3628,-0.0911,-0.0948,453,2019-08-07 17:05:52:629
0.3337,9.8824,0.684,-0.2998,-0.0809,-0.4266,0.3628,-0.0911,-0.0948,457,2019-08-07 17:05:52:633
0.7356,9.8585,0.5001,-0.2998,-0.0809,-0.4266,0.3883,-0.121,-0.1065,463,2019-08-07 17:05:52:639
0.7356,9.8585,0.5001,-0.2998,-0.0809,-0.4266,0.3883,-0.121,-0.1065,467,2019-08-07 17:05:52:643
0.5586,10.1116,-0.1504,-0.2998,-0.0809,-0.4266,0.3883,-0.121,-0.1065,473,2019-08-07 17:05:52:649
0.5586,10.1116,-0.1504,-0.2609,-0.3314,0.3484,0.3958,-0.0571,-0.1278,478,2019-08-07 17:05:52:654
0.5586,10.1116,-0.1504,-0.2609,-0.3314,0.3484,0.3958,-0.0571,-0.1278,483,2019-08-07 17:05:52:659
0.4629,10.04,0.1042,-0.2609,-0.3314,0.3484,0.4075,0.0047,-0.147,487,2019-08-07 17:05:52:663
0.4629,10.04,0.1042,-0.2609,-0.3314,0.3484,0.4075,0.0047,-0.147,493,2019-08-07 17:05:52:669
0.3816,9.8776,0.6085,-0.1631,-0.0715,-0.425,0.4363,-0.0432,-0.164,497,2019-08-07 17:05:52:673
0.3816,9.8776,0.6085,-0.1631,-0.0715,-0.425,0.4363,-0.0432,-0.164,503,2019-08-07 17:05:52:679
0.3816,9.8776,0.6085,-0.1631,-0.0715,-0.425,0.4704,-0.1252,-0.1715,508,2019-08-07 17:05:52:684
0.2476,9.9683,0.2079,-0.1631,-0.0715,-0.425,0.4704,-0.1252,-0.1715,513,2019-08-07 17:05:52:689
0.2476,9.9683,0.2079,-0.0663,-0.1464,-0.1464,0.4704,-0.1252,-0.1715,518,2019-08-07 17:05:52:694
0.3624,10.0734,0.4247,-0.0663,-0.1464,-0.1464,0.5087,-0.1242,-0.1821,522,2019-08-07 17:05:52:698
0.3624,10.0734,0.4247,-0.2225,-0.2175,-0.5772,0.5087,-0.1242,-0.1821,528,2019-08-07 17:05:52:704
0.3624,10.0734,0.4247,-0.2225,-0.2175,-0.5772,0.5524,-0.1359,-0.1917,532,2019-08-07 17:05:52:708
0.6638,9.9206,0.6887,-0.2225,-0.2175,-0.5772,0.5524,-0.1359,-0.1917,538,2019-08-07 17:05:52:714
0.6638,9.9206,0.6887,-0.2225,-0.2175,-0.5772,0.6046,-0.1519,-0.2077,543,2019-08-07 17:05:52:719
0.6877,9.8872,0.3681,-0.5698,-0.0553,-0.4886,0.6046,-0.1519,-0.2077,548,2019-08-07 17:05:52:724
0.6877,9.8872,0.3681,-0.5698,-0.0553,-0.4886,0.6483,-0.0943,-0.2205,552,2019-08-07 17:05:52:728
0.6877,9.8872,0.3681,-0.5698,-0.0553,-0.4886,0.6483,-0.0943,-0.2205,559,2019-08-07 17:05:52:735
0.8265,10.145,0.5331,-0.5698,-0.0553,-0.4886,0.6717,-0.0102,-0.2375,563,2019-08-07 17:05:52:739
0.8265,10.145,0.5331,-0.696,-0.5105,-0.6554,0.6717,-0.0102,-0.2375,568,2019-08-07 17:05:52:744
0.8265,10.145,0.5331,-0.696,-0.5105,-0.6554,0.6717,-0.0102,-0.2375,572,2019-08-07 17:05:52:748
0.616,10.5746,0.0759,-0.696,-0.5105,-0.6554,0.71,0.0505,-0.278,578,2019-08-07 17:05:52:754
0.616,10.5746,0.0759,-0.696,-0.5105,-0.6554,0.71,0.0505,-0.278,582,2019-08-07 17:05:52:758
0.3624,10.9374,0.3776,-0.3163,-0.9822,-0.7479,0.7953,0.1113,-0.2876,588,2019-08-07 17:05:52:764
0.3624,10.9374,0.3776,-0.3163,-0.9822,-0.7479,0.7953,0.1113,-0.2876,592,2019-08-07 17:05:52:768
0.3624,10.9374,0.3776,-0.3163,-0.9822,-0.7479,0.8475,0.1219,-0.2982,598,2019-08-07 17:05:52:774
-0.1064,11.8492,0.1183,-0.3163,-0.9822,-0.7479,0.8475,0.1219,-0.2982,602,2019-08-07 17:05:52:778
-0.1064,11.8492,0.1183,0.2863,-2.2738,-0.6599,0.906,0.1411,-0.3078,608,2019-08-07 17:05:52:784
-0.1064,11.8492,0.1183,0.2863,-2.2738,-0.6599,0.906,0.1411,-0.3078,613,2019-08-07 17:05:52:789
-0.2595,12.4651,0.4247,0.2863,-2.2738,-0.6599,0.9646,0.1752,-0.3558,618,2019-08-07 17:05:52:794
-0.2595,12.4651,0.4247,0.2863,-2.2738,-0.6599,0.9646,0.1752,-0.3558,622,2019-08-07 17:05:52:798
-0.0299,13.6824,1.3627,-0.0312,-3.8993,-2.0858,1.0637,0.1379,-0.4175,628,2019-08-07 17:05:52:804
-0.0299,13.6824,1.3627,-0.0312,-3.8993,-2.0858,1.0637,0.1379,-0.4175,632,2019-08-07 17:05:52:808
-0.0299,13.6824,1.3627,-0.0312,-3.8993,-2.0858,1.0637,0.1379,-0.4175,638,2019-08-07 17:05:52:814
0.1854,14.7756,2.1641,-0.0312,-3.8993,-2.0858,1.2086,0.1581,-0.5273,643,2019-08-07 17:05:52:819
0.1854,14.7756,2.1641,-0.0243,-5.279,-3.0873,1.2086,0.1581,-0.5273,648,2019-08-07 17:05:52:824
-0.317,15.253,2.3903,-0.0243,-5.279,-3.0873,1.314,0.4244,-0.6274,653,2019-08-07 17:05:52:829
-0.317,15.253,2.3903,-0.0243,-5.279,-3.0873,1.314,0.4244,-0.6274,658,2019-08-07 17:05:52:834
-0.317,15.253,2.3903,-0.0243,-5.279,-3.0873,1.5005,0.5576,-0.6849,663,2019-08-07 17:05:52:839
-0.3552,15.716,4.4927,0.1382,-6.0637,-5.6845,1.5005,0.5576,-0.6849,668,2019-08-07 17:05:52:844
-0.3552,15.716,4.4927,0.1382,-6.0637,-5.6845,1.5005,0.5576,-0.6849,672,2019-08-07 17:05:52:848
-1.0729,16.9429,4.0496,0.1382,-6.0637,-5.6845,1.7061,0.3456,-0.7148,678,2019-08-07 17:05:52:854
-1.0729,16.9429,4.0496,0.1382,-6.0637,-5.6845,1.7061,0.3456,-0.7148,683,2019-08-07 17:05:52:859
-1.0729,16.9429,4.0496,1.4185,-8.7223,-7.1804,1.786,0.2327,-0.6498,688,2019-08-07 17:05:52:864
-1.9771,18.6519,6.3641,1.4185,-8.7223,-7.1804,1.786,0.2327,-0.6498,692,2019-08-07 17:05:52:868
-1.9771,18.6519,6.3641,1.4185,-8.7223,-7.1804,1.786,0.2327,-0.6498,698,2019-08-07 17:05:52:874
-2.4555,16.117,4.9358,1.4185,-8.7223,-7.1804,1.9266,-0.3053,-0.49,702,2019-08-07 17:05:52:878
-2.4555,16.117,4.9358,0.8039,-3.8159,-2.4231,1.9266,-0.3053,-0.49,709,2019-08-07 17:05:52:885
-2.4555,16.117,4.9358,0.8039,-3.8159,-2.4231,2.3037,-1.0446,-0.3536,713,2019-08-07 17:05:52:889
0.3958,11.9829,-2.2481,0.8039,-3.8159,-2.4231,2.3037,-1.0446,-0.3536,717,2019-08-07 17:05:52:893
0.3958,11.9829,-2.2481,0.8039,-3.8159,-2.4231,3.0398,-1.5633,-0.6104,722,2019-08-07 17:05:52:898
0.4915,15.2625,-8.079,-1.1549,-5.7601,5.7339,3.0398,-1.5633,-0.6104,728,2019-08-07 17:05:52:904
0.4915,15.2625,-8.079,-1.1549,-5.7601,5.7339,3.0398,-1.5633,-0.6104,732,2019-08-07 17:05:52:908
0.4915,15.2625,-8.079,-1.1549,-5.7601,5.7339,3.2635,-1.8105,-0.702,738,2019-08-07 17:05:52:914
1.1039,22.1416,-17.0164,-1.1549,-5.7601,5.7339,3.2635,-1.8105,-0.702,742,2019-08-07 17:05:52:918
1.1039,22.1416,-17.0164,-0.2587,-16.1133,17.3782,3.615,-1.3961,-0.6018,748,2019-08-07 17:05:52:924
-1.3744,22.767,-20.4481,-0.2587,-16.1133,17.3782,3.615,-1.3961,-0.6018,752,2019-08-07 17:05:52:928
-1.3744,22.767,-20.4481,-0.2587,-16.1133,17.3782,1.6943,-1.4685,-0.7403,758,2019-08-07 17:05:52:934
-1.3744,22.767,-20.4481,-0.2587,-16.1133,17.3782,1.6943,-1.4685,-0.7403,762,2019-08-07 17:05:52:938
-3.0297,20.6713,-2.611,-0.1071,-14.024,-0.9234,2.6797,4.1017,-0.7978,768,2019-08-07 17:05:52:944
-3.0297,20.6713,-2.611,-0.1071,-14.024,-0.9234,2.6797,4.1017,-0.7978,773,2019-08-07 17:05:52:949
-3.0297,20.6713,-2.611,-0.1071,-14.024,-0.9234,2.5466,2.4133,-0.3888,778,2019-08-07 17:05:52:954
-0.1927,19.6306,-0.8763,-0.1071,-14.024,-0.9234,2.5466,2.4133,-0.3888,783,2019-08-07 17:05:52:959
-0.1927,19.6306,-0.8763,3.2344,-10.9311,-3.108,3.2709,-0.0997,-0.5667,788,2019-08-07 17:05:52:964
-5.3118,20.3705,-0.8575,3.2344,-10.9311,-3.108,3.2709,-0.0997,-0.5667,792,2019-08-07 17:05:52:968
-5.3118,20.3705,-0.8575,3.2344,-10.9311,-3.108,3.2709,-0.0997,-0.5667,798,2019-08-07 17:05:52:974
-5.3118,20.3705,-0.8575,3.2344,-10.9311,-3.108,3.2954,-1.787,-0.6583,802,2019-08-07 17:05:52:978
-6.771,19.8597,-1.7814,3.2344,-10.9311,-3.108,3.2954,-1.787,-0.6583,808,2019-08-07 17:05:52:984
-6.771,19.8597,-1.7814,3.7061,-10.991,-0.8022,3.5372,-2.0459,-0.49,813,2019-08-07 17:05:52:989
-1.6854,18.0648,-7.2494,3.7061,-10.991,-0.8022,3.2922,-1.6528,-0.5177,818,2019-08-07 17:05:52:994
-1.6854,18.0648,-7.2494,3.7061,-10.991,-0.8022,3.2922,-1.6528,-0.5177,823,2019-08-07 17:05:52:999
-1.6854,18.0648,-7.2494,3.7061,-10.991,-0.8022,3.2922,-1.6528,-0.5177,828,2019-08-07 17:05:53:004
-0.2501,17.8834,-10.5067,-1.1581,-9.5672,5.4972,2.8086,-0.3798,-0.6775,833,2019-08-07 17:05:53:009
-0.2501,17.8834,-10.5067,-1.1581,-9.5672,5.4972,2.8086,-0.3798,-0.6775,838,2019-08-07 17:05:53:014
-0.5802,17.1959,-5.5619,-1.1581,-9.5672,5.4972,2.292,0.841,-0.6903,842,2019-08-07 17:05:53:018
-0.5802,17.1959,-5.5619,-1.1581,-9.5672,5.4972,2.292,0.841,-0.6903,847,2019-08-07 17:05:53:023
-0.5802,17.1959,-5.5619,0.0022,-8.7725,-2.4051,1.8445,1.3384,-0.6892,853,2019-08-07 17:05:53:029
-2.4317,16.4082,-1.5881,0.0022,-8.7725,-2.4051,1.8445,1.3384,-0.6892,858,2019-08-07 17:05:53:034
-2.4317,16.4082,-1.5881,0.0022,-8.7725,-2.4051,1.5633,1.0263,-0.5869,863,2019-08-07 17:05:53:039
-2.4317,16.4082,-1.5881,0.0022,-8.7725,-2.4051,1.5633,1.0263,-0.5869,867,2019-08-07 17:05:53:043
-2.6279,15.6397,0.0146,1.2044,-7.7667,-5.6914,1.5633,1.0263,-0.5869,873,2019-08-07 17:05:53:049
-2.6279,15.6397,0.0146,1.2044,-7.7667,-5.6914,1.1788,0.5981,-0.3813,877,2019-08-07 17:05:53:053
-1.6758,14.451,-0.5699,1.2044,-7.7667,-5.6914,1.1788,0.5981,-0.3813,883,2019-08-07 17:05:53:059
-1.6758,14.451,-0.5699,1.2044,-7.7667,-5.6914,0.7495,0.434,-0.2556,888,2019-08-07 17:05:53:064
-1.6758,14.451,-0.5699,-0.3261,-5.8722,-5.4118,0.7495,0.434,-0.2556,893,2019-08-07 17:05:53:069
-0.8099,13.1382,0.0051,-0.3261,-5.8722,-5.4118,0.2339,0.5107,-0.1161,898,2019-08-07 17:05:53:074
-0.8099,13.1382,0.0051,-0.3261,-5.8722,-5.4118,0.2339,0.5107,-0.1161,903,2019-08-07 17:05:53:079
-0.695,11.8302,0.9149,-0.3261,-5.8722,-5.4118,-0.5012,0.7057,0.0416,908,2019-08-07 17:05:53:084
-0.695,11.8302,0.9149,-0.5569,-3.9265,-6.8661,-0.5012,0.7057,0.0416,913,2019-08-07 17:05:53:089
-0.695,11.8302,0.9149,-0.5569,-3.9265,-6.8661,-0.5012,0.7057,0.0416,917,2019-08-07 17:05:53:093
-1.0969,11.5055,1.9567,-0.5569,-3.9265,-6.8661,-1.3012,0.6971,0.2344,923,2019-08-07 17:05:53:099
-1.0969,11.5055,1.9567,-0.5569,-3.9265,-6.8661,-1.3012,0.6971,0.2344,928,2019-08-07 17:05:53:104
-1.6758,11.8349,3.055,0.3215,-3.8043,-8.5705,-1.9616,0.5161,0.4112,933,2019-08-07 17:05:53:109
-1.6758,11.8349,3.055,0.3215,-3.8043,-8.5705,-1.9616,0.5161,0.4112,937,2019-08-07 17:05:53:113
-1.6758,11.8349,3.055,0.3215,-3.8043,-8.5705,-2.4911,0.3105,0.5337,943,2019-08-07 17:05:53:119
-2.0251,11.9686,4.4644,0.3215,-3.8043,-8.5705,-2.4911,0.3105,0.5337,947,2019-08-07 17:05:53:123
-2.0251,11.9686,4.4644,0.8426,-3.6685,-10.7513,-3.5926,-0.1753,0.7947,953,2019-08-07 17:05:53:129
-2.0251,11.9686,4.4644,0.8426,-3.6685,-10.7513,-3.5926,-0.1753,0.7947,958,2019-08-07 17:05:53:134
-1.4175,11.6583,6.3169,0.8426,-3.6685,-10.7513,-3.5926,-0.1753,0.7947,962,2019-08-07 17:05:53:138
-1.4175,11.6583,6.3169,0.8426,-3.6685,-10.7513,-4.3223,-0.578,0.9439,968,2019-08-07 17:05:53:144
-1.4175,11.6583,6.3169,-0.3048,-2.676,-11.3832,-4.3223,-0.578,0.9439,972,2019-08-07 17:05:53:148
-0.7859,11.5055,7.3917,-0.3048,-2.676,-11.3832,-5.0935,-1.003,1.077,978,2019-08-07 17:05:53:154
-0.7859,11.5055,7.3917,-0.3048,-2.676,-11.3832,-5.0935,-1.003,1.077,982,2019-08-07 17:05:53:158
-0.1736,11.3241,8.5513,-0.3048,-2.676,-11.3832,-5.8435,-1.3407,1.2325,988,2019-08-07 17:05:53:164
-0.1736,11.3241,8.5513,-0.7119,-2.6584,-12.1742,-5.8435,-1.3407,1.2325,992,2019-08-07 17:05:53:168
-0.1449,12.4937,9.329,-0.7119,-2.6584,-12.1742,-6.5891,-1.5996,1.3977,998,2019-08-07 17:05:53:174
-0.1449,12.4937,9.329,-0.7119,-2.6584,-12.1742,-6.5891,-1.5996,1.3977,1003,2019-08-07 17:05:53:179
-0.1449,12.4937,9.329,-0.7119,-2.6584,-12.1742,-7.5266,-1.6848,1.6629,1008,2019-08-07 17:05:53:184
0.2235,13.7492,10.6631,-0.9015,-4.1285,-12.4568,-7.5266,-1.6848,1.6629,1012,2019-08-07 17:05:53:188
0.2235,13.7492,10.6631,-0.9015,-4.1285,-12.4568,-7.5266,-1.6848,1.6629,1018,2019-08-07 17:05:53:194
0.2235,13.7492,10.6631,-0.9015,-4.1285,-12.4568,-8.5098,-1.6326,1.9431,1023,2019-08-07 17:05:53:199
0.6493,14.007,12.1243,-0.9015,-4.1285,-12.4568,-8.5098,-1.6326,1.9431,1028,2019-08-07 17:05:53:204
0.6493,14.007,12.1243,-1.528,-4.4312,-13.017,-9.2566,-1.5729,2.1625,1032,2019-08-07 17:05:53:208
1.2521,14.3698,13.4112,-1.528,-4.4312,-13.017,-9.2566,-1.5729,2.1625,1038,2019-08-07 17:05:53:214
1.2521,14.3698,13.4112,-1.528,-4.4312,-13.017,-9.9618,-1.2842,2.3457,1042,2019-08-07 17:05:53:218
1.2521,14.3698,13.4112,-1.528,-4.4312,-13.017,-9.9618,-1.2842,2.3457,1048,2019-08-07 17:05:53:224
0.9411,13.4771,12.3223,-0.5149,-3.6107,-10.4153,-10.6979,-0.8091,2.4874,1053,2019-08-07 17:05:53:229
0.9411,13.4771,12.3223,-0.5149,-3.6107,-10.4153,-10.6979,-0.8091,2.4874,1059,2019-08-07 17:05:53:235
-0.762,12.7801,13.3688,-0.5149,-3.6107,-10.4153,-11.4372,-0.4693,2.5758,1063,2019-08-07 17:05:53:239
-0.762,12.7801,13.3688,-0.5149,-3.6107,-10.4153,-11.4372,-0.4693,2.5758,1067,2019-08-07 17:05:53:243
-0.762,12.7801,13.3688,3.0987,-5.3476,-7.6969,-12.2606,-0.6046,2.6493,1073,2019-08-07 17:05:53:249
-2.7523,14.7804,11.0637,3.0987,-5.3476,-7.6969,-12.2606,-0.6046,2.6493,1078,2019-08-07 17:05:53:254
-2.7523,14.7804,11.0637,3.0987,-5.3476,-7.6969,-12.8444,-0.9348,2.7015,1083,2019-08-07 17:05:53:259
-3.7139,18.2128,4.9122,3.0987,-5.3476,-7.6969,-12.8444,-0.9348,2.7015,1087,2019-08-07 17:05:53:263
-3.7139,18.2128,4.9122,5.1499,-12.8064,4.2923,-13.4601,-1.2033,2.7644,1093,2019-08-07 17:05:53:269
-3.7139,18.2128,4.9122,5.1499,-12.8064,4.2923,-13.4601,-1.2033,2.7644,1098,2019-08-07 17:05:53:274
-4.4603,24.5619,-2.3141,5.1499,-12.8064,4.2923,-13.4601,-1.2033,2.7644,1102,2019-08-07 17:05:53:278
-4.4603,24.5619,-2.3141,5.1499,-12.8064,4.2923,-14.112,-1.2725,2.7761,1108,2019-08-07 17:05:53:284
-4.6851,35.0023,-10.8696,6.4112,-29.6602,18.9144,-14.112,-1.2725,2.7761,1113,2019-08-07 17:05:53:289
-4.6851,35.0023,-10.8696,6.4112,-29.6602,18.9144,-14.569,-0.7782,2.8241,1117,2019-08-07 17:05:53:293
-4.6851,35.0023,-10.8696,6.4112,-29.6602,18.9144,-14.569,-0.7782,2.8241,1123,2019-08-07 17:05:53:299
-2.3074,42.3015,-15.2488,4.2231,-38.2154,23.9591,-14.2122,-0.0773,2.84,1127,2019-08-07 17:05:53:303
-2.3074,42.3015,-15.2488,4.2231,-38.2154,23.9591,-14.2122,-0.0773,2.84,1133,2019-08-07 17:05:53:309
6.7731,54.3315,-15.6447,4.2231,-38.2154,23.9591,-12.0902,0.9091,2.6131,1137,2019-08-07 17:05:53:313
6.7731,54.3315,-15.6447,4.2231,-38.2154,23.9591,-12.0902,0.9091,2.6131,1143,2019-08-07 17:05:53:319
6.7731,54.3315,-15.6447,-6.259,-55.1075,27.8763,-12.0902,0.9091,2.6131,1147,2019-08-07 17:05:53:323
8.7538,57.3867,-19.8966,-6.259,-55.1075,27.8763,-10.1035,1.8221,2.0688,1153,2019-08-07 17:05:53:329
8.7538,57.3867,-19.8966,-6.259,-55.1075,27.8763,-10.1035,1.8221,2.0688,1158,2019-08-07 17:05:53:334
8.7538,57.3867,-19.8966,-6.259,-55.1075,27.8763,-5.4099,6.7297,0.8118,1163,2019-08-07 17:05:53:339
4.1322,30.6867,-52.5774,-2.8228,-30.6407,62.2995,-5.4099,6.7297,0.8118,1167,2019-08-07 17:05:53:343
4.1322,30.6867,-52.5774,-2.8228,-30.6407,62.2995,-5.4099,6.7297,0.8118,1173,2019-08-07 17:05:53:349
-3.824,6.3212,-70.2919,-2.8228,-30.6407,62.2995,-5.1478,9.8307,0.8586,1177,2019-08-07 17:05:53:353
-3.824,6.3212,-70.2919,-2.8228,-30.6407,62.2995,-5.1478,9.8307,0.8586,1183,2019-08-07 17:05:53:359
-3.824,6.3212,-70.2919,7.1843,1.0166,72.0894,-6.2216,9.6358,1.2325,1188,2019-08-07 17:05:53:364
-8.2925,-9.3131,-44.5026,7.1843,1.0166,72.0894,-6.2216,9.6358,1.2325,1192,2019-08-07 17:05:53:368
-8.2925,-9.3131,-44.5026,7.1843,1.0166,72.0894,-6.3463,6.6466,1.2198,1198,2019-08-07 17:05:53:374
-8.2925,-9.3131,-44.5026,7.1843,1.0166,72.0894,-6.3463,6.6466,1.2198,1202,2019-08-07 17:05:53:378
-3.3121,-14.6693,1.8105,4.208,11.9124,19.5088,-2.9065,1.6591,0.0405,1208,2019-08-07 17:05:53:384
-3.3121,-14.6693,1.8105,4.208,11.9124,19.5088,-2.9065,1.6591,0.0405,1213,2019-08-07 17:05:53:389
-3.3121,-14.6693,1.8105,4.208,11.9124,19.5088,-2.9065,1.6591,0.0405,1217,2019-08-07 17:05:53:393
-4.9004,-17.1756,-3.4407,4.208,11.9124,19.5088,7.7376,-4.4981,-1.5766,1223,2019-08-07 17:05:53:399
-4.9004,-17.1756,-3.4407,3.1302,12.3024,17.7335,7.7376,-4.4981,-1.5766,1228,2019-08-07 17:05:53:404
-4.9004,-17.1756,-3.4407,3.1302,12.3024,17.7335,11.1187,-6.879,-2.2051,1233,2019-08-07 17:05:53:409
-9.8234,-0.6104,-24.0919,3.1302,12.3024,17.7335,11.1187,-6.879,-2.2051,1238,2019-08-07 17:05:53:414
-9.8234,-0.6104,-24.0919,3.1302,12.3024,17.7335,13.5561,-8.8252,-1.8237,1242,2019-08-07 17:05:53:418
-22.9323,37.5658,-33.6279,22.8876,-36.9831,43.4205,13.5561,-8.8252,-1.8237,1248,2019-08-07 17:05:53:424
-22.9323,37.5658,-33.6279,22.8876,-36.9831,43.4205,5.8542,-13.6125,0.5625,1253,2019-08-07 17:05:53:429
8.4093,17.7497,-48.6037,22.8876,-36.9831,43.4205,5.8542,-13.6125,0.5625,1259,2019-08-07 17:05:53:435
8.4093,17.7497,-48.6037,22.8876,-36.9831,43.4205,5.8542,-13.6125,0.5625,1263,2019-08-07 17:05:53:439
8.4093,17.7497,-48.6037,-27.0392,-18.8776,40.824,5.7317,-4.6537,-0.7904,1268,2019-08-07 17:05:53:444
8.4093,17.7497,-48.6037,-27.0392,-18.8776,40.824,5.7317,-4.6537,-0.7904,1273,2019-08-07 17:05:53:449
24.1351,24.2373,-17.1296,-27.0392,-18.8776,40.824,6.3794,8.3021,-2.7941,1278,2019-08-07 17:05:53:454
24.1351,24.2373,-17.1296,-27.0392,-18.8776,40.824,6.3794,8.3021,-2.7941,1283,2019-08-07 17:05:53:459
-2.0108,20.1987,11.224,-0.4034,-16.2305,0.367,6.0704,6.4964,-2.6162,1288,2019-08-07 17:05:53:464
-2.0108,20.1987,11.224,-0.4034,-16.2305,0.367,6.0704,6.4964,-2.6162,1293,2019-08-07 17:05:53:469
-2.0108,20.1987,11.224,3.9495,-14.786,3.0474,7.2635,4.8794,-1.7236,1298,2019-08-07 17:05:53:474
-5.7377,17.363,0.09,3.9495,-14.786,3.0474,7.2635,4.8794,-1.7236,1303,2019-08-07 17:05:53:479
-5.7377,17.363,0.09,3.9495,-14.786,3.0474,7.3402,2.8863,-1.5861,1308,2019-08-07 17:05:53:484
-8.881,20.6188,-4.6427,3.9495,-14.786,3.0474,7.3402,2.8863,-1.5861,1313,2019-08-07 17:05:53:489
-8.881,20.6188,-4.6427,7.9186,-16.2644,11.3305,7.2124,1.2713,-0.7808,1318,2019-08-07 17:05:53:494
-8.881,20.6188,-4.6427,7.9186,-16.2644,11.3305,7.2124,1.2713,-0.7808,1323,2019-08-07 17:05:53:499
-3.6757,19.0911,3.5358,7.9186,-16.2644,11.3305,7.3956,1.0029,-0.49,1328,2019-08-07 17:05:53:504
-3.6757,19.0911,3.5358,7.9186,-16.2644,11.3305,7.3956,1.0029,-0.49,1333,2019-08-07 17:05:53:509
-3.6757,19.0911,3.5358,0.8422,-9.9865,8.8286,7.3956,1.0029,-0.49,1337,2019-08-07 17:05:53:513
-1.8529,16.1218,-1.8521,0.8422,-9.9865,8.8286,7.1283,0.7643,-0.5614,1343,2019-08-07 17:05:53:519
-1.8529,16.1218,-1.8521,0.8422,-9.9865,8.8286,7.0388,0.3019,-0.4154,1348,2019-08-07 17:05:53:524
-4.1493,17.2007,2.2583,0.8422,-9.9865,8.8286,7.0388,0.3019,-0.4154,1352,2019-08-07 17:05:53:528
-4.1493,17.2007,2.2583,0.8422,-9.9865,8.8286,7.0388,0.3019,-0.4154,1358,2019-08-07 17:05:53:534
-3.6374,15.5633,3.4933,2.9555,-8.9956,2.8485,6.9994,0.0686,-0.2876,1363,2019-08-07 17:05:53:539
-3.6374,15.5633,3.4933,2.9555,-8.9956,2.8485,6.9994,0.0686,-0.2876,1368,2019-08-07 17:05:53:544
-3.6374,15.5633,3.4933,2.9555,-8.9956,2.8485,7.0409,-0.9711,-0.3579,1372,2019-08-07 17:05:53:548
-3.2595,15.3198,2.9701,2.376,-7.057,2.2435,7.0409,-0.9711,-0.3579,1378,2019-08-07 17:05:53:554
-3.2595,15.3198,2.9701,2.376,-7.057,2.2435,7.1272,-2.0321,-0.4261,1383,2019-08-07 17:05:53:559
-3.2595,15.3198,2.9701,2.376,-7.057,2.2435,7.1272,-2.0321,-0.4261,1388,2019-08-07 17:05:53:564
-1.7907,14.1311,-0.1646,2.376,-7.057,2.2435,7.0739,-2.39,-0.6061,1392,2019-08-07 17:05:53:568
-1.7907,14.1311,-0.1646,0.1943,-5.204,7.0684,7.0739,-2.39,-0.6061,1398,2019-08-07 17:05:53:574
-1.7907,14.1311,-0.1646,0.1943,-5.204,7.0684,6.6574,-1.4632,-0.898,1403,2019-08-07 17:05:53:579
-0.5086,14.9761,-3.7188,0.1943,-5.204,7.0684,6.6574,-1.4632,-0.898,1408,2019-08-07 17:05:53:584
-0.5086,14.9761,-3.7188,0.1943,-5.204,7.0684,6.4017,-0.7282,-0.9928,1413,2019-08-07 17:05:53:589
0.056,15.8163,-1.706,-1.064,-6.3909,3.9285,6.4017,-0.7282,-0.9928,1418,2019-08-07 17:05:53:594
0.056,15.8163,-1.706,-1.064,-6.3909,3.9285,6.4017,-0.7282,-0.9928,1422,2019-08-07 17:05:53:598
0.0177,15.9691,-0.636,-1.064,-6.3909,3.9285,6.112,0.1315,-1.0748,1428,2019-08-07 17:05:53:604
0.0177,15.9691,-0.636,-1.064,-6.3909,3.9285,6.112,0.1315,-1.0748,1432,2019-08-07 17:05:53:608
0.0177,15.9691,-0.636,0.0485,-7.3616,2.6971,5.6901,0.6833,-1.0908,1438,2019-08-07 17:05:53:614
-1.4128,17.2389,-1.2676,0.0485,-7.3616,2.6971,5.6901,0.6833,-1.0908,1442,2019-08-07 17:05:53:618
-1.4128,17.2389,-1.2676,0.0485,-7.3616,2.6971,5.3897,1.0412,-1.0045,1448,2019-08-07 17:05:53:624
-1.4128,17.2389,-1.2676,0.0485,-7.3616,2.6971,5.3897,1.0412,-1.0045,1453,2019-08-07 17:05:53:629
-2.6471,17.9359,-0.9518,1.4382,-8.2614,1.0676,5.3897,1.0412,-1.0045,1457,2019-08-07 17:05:53:633
-2.6471,17.9359,-0.9518,1.4382,-8.2614,1.0676,5.0318,1.1403,-0.8756,1463,2019-08-07 17:05:53:639
-3.2739,17.8929,0.7876,1.4382,-8.2614,1.0676,5.0318,1.1403,-0.8756,1467,2019-08-07 17:05:53:643
-3.2739,17.8929,0.7876,1.4382,-8.2614,1.0676,4.8017,0.988,-0.751,1473,2019-08-07 17:05:53:649
-3.2739,17.8929,0.7876,1.4382,-8.2614,1.0676,4.8017,0.988,-0.751,1477,2019-08-07 17:05:53:653
-3.6279,17.4108,0.698,2.168,-7.7244,-1.226,4.5535,0.809,-0.6498,1483,2019-08-07 17:05:53:659
-3.6279,17.4108,0.698,2.168,-7.7244,-1.226,4.5535,0.809,-0.6498,1487,2019-08-07 17:05:53:663
-3.8049,16.9286,0.5236,2.168,-7.7244,-1.226,4.2733,0.7025,-0.5422,1493,2019-08-07 17:05:53:669
-3.8049,16.9286,0.5236,2.4031,-7.331,-1.8583,4.2733,0.7025,-0.5422,1498,2019-08-07 17:05:53:674
-3.8049,16.9286,0.5236,2.4031,-7.331,-1.8583,3.9548,0.581,-0.4239,1503,2019-08-07 17:05:53:679
-4.3407,16.7758,0.0334,2.4031,-7.331,-1.8583,3.9548,0.581,-0.4239,1507,2019-08-07 17:05:53:683
-4.3407,16.7758,0.0334,2.4031,-7.331,-1.8583,3.5617,0.4479,-0.3717,1513,2019-08-07 17:05:53:689
-4.8574,16.9095,0.5943,3.2272,-7.4696,-2.7076,3.5617,0.4479,-0.3717,1518,2019-08-07 17:05:53:694
-4.8574,16.9095,0.5943,3.2272,-7.4696,-2.7076,3.5617,0.4479,-0.3717,1522,2019-08-07 17:05:53:698
-4.8574,16.9095,0.5943,3.2272,-7.4696,-2.7076,3.1506,0.1954,-0.2673,1528,2019-08-07 17:05:53:704
-3.6135,16.7567,1.6031,3.2272,-7.4696,-2.7076,3.1506,0.1954,-0.2673,1533,2019-08-07 17:05:53:709
-3.6135,16.7567,1.6031,3.2272,-7.4696,-2.7076,2.897,-0.1955,-0.2418,1538,2019-08-07 17:05:53:714
-3.6135,16.7567,1.6031,1.5233,-7.7121,-3.7837,2.897,-0.1955,-0.2418,1543,2019-08-07 17:05:53:719
-3.1734,17.1387,0.6226,1.5233,-7.7121,-3.7837,2.6019,-0.4629,-0.2737,1548,2019-08-07 17:05:53:724
-3.1734,17.1387,0.6226,1.5233,-7.7121,-3.7837,2.6019,-0.4629,-0.2737,1553,2019-08-07 17:05:53:729
-2.7524,17.1912,0.1324,1.5233,-7.7121,-3.7837,2.2323,-0.3947,-0.2865,1558,2019-08-07 17:05:53:734
-2.7524,17.1912,0.1324,0.8005,-8.0206,-3.3377,2.2323,-0.3947,-0.2865,1563,2019-08-07 17:05:53:739
-2.7524,17.1912,0.1324,0.8005,-8.0206,-3.3377,1.8062,-0.3255,-0.2503,1567,2019-08-07 17:05:53:743
-1.8386,16.709,1.0327,0.8005,-8.0206,-3.3377,1.8062,-0.3255,-0.2503,1573,2019-08-07 17:05:53:749
-1.8386,16.709,1.0327,0.8005,-8.0206,-3.3377,1.5175,-0.3884,-0.213,1577,2019-08-07 17:05:53:753
-1.5994,16.3367,0.7593,-0.2343,-7.3187,-4.246,1.5175,-0.3884,-0.213,1583,2019-08-07 17:05:53:759
-1.5994,16.3367,0.7593,-0.2343,-7.3187,-4.246,1.5175,-0.3884,-0.213,1587,2019-08-07 17:05:53:763
-1.5994,16.3367,0.7593,-0.3604,-7.2854,-3.9542,1.1148,-0.3053,-0.1246,1593,2019-08-07 17:05:53:769
-1.2932,16.1171,0.4718,-0.3604,-7.2854,-3.9542,1.1148,-0.3053,-0.1246,1598,2019-08-07 17:05:53:774
-1.2932,16.1171,0.4718,-0.3604,-7.2854,-3.9542,0.6994,-0.1295,-0.0106,1603,2019-08-07 17:05:53:779
-1.0301,15.907,1.028,-0.3604,-7.2854,-3.9542,0.6994,-0.1295,-0.0106,1608,2019-08-07 17:05:53:784
-1.0301,15.907,1.028,-0.8186,-6.8792,-4.699,0.6994,-0.1295,-0.0106,1612,2019-08-07 17:05:53:788
-1.0301,15.907,1.028,-0.8186,-6.8792,-4.699,0.4096,-0.0358,0.1055,1618,2019-08-07 17:05:53:794
-1.2406,15.6635,1.4758,-0.8186,-6.8792,-4.699,0.4096,-0.0358,0.1055,1623,2019-08-07 17:05:53:799
-1.2406,15.6635,1.4758,-0.8186,-6.8792,-4.699,0.1476,0.0186,0.2291,1628,2019-08-07 17:05:53:804
-1.5659,15.5442,1.5889,-0.3148,-6.6466,-5.1395,0.1476,0.0186,0.2291,1633,2019-08-07 17:05:53:809
-1.5659,15.5442,1.5889,-0.3148,-6.6466,-5.1395,-0.1667,-0.0134,0.3846,1637,2019-08-07 17:05:53:813
-1.5659,15.5442,1.5889,-0.3148,-6.6466,-5.1395,-0.1667,-0.0134,0.3846,1643,2019-08-07 17:05:53:819
-1.6425,15.1575,1.9849,-0.3148,-6.6466,-5.1395,-0.3904,-0.1071,0.505,1648,2019-08-07 17:05:53:824
-1.6425,15.1575,1.9849,-0.0922,-5.8871,-5.6802,-0.3904,-0.1071,0.505,1652,2019-08-07 17:05:53:828
-1.6712,14.4128,2.2347,-0.0922,-5.8871,-5.6802,-0.6034,-0.1774,0.5998,1658,2019-08-07 17:05:53:834
-1.6712,14.4128,2.2347,-0.0922,-5.8871,-5.6802,-0.6034,-0.1774,0.5998,1663,2019-08-07 17:05:53:839
-1.6712,14.4128,2.2347,-0.0922,-5.8871,-5.6802,-0.8133,-0.2563,0.6637,1667,2019-08-07 17:05:53:843
-1.4798,13.7015,2.5223,-0.1624,-4.6295,-5.8746,-0.8133,-0.2563,0.6637,1673,2019-08-07 17:05:53:849
-1.4798,13.7015,2.5223,-0.1624,-4.6295,-5.8746,-0.9997,-0.3436,0.717,1679,2019-08-07 17:05:53:855
-1.4798,13.7015,2.5223,-0.1624,-4.6295,-5.8746,-0.9997,-0.3436,0.717,1682,2019-08-07 17:05:53:858
-1.4989,13.0905,2.5128,-0.1624,-4.6295,-5.8746,-0.9997,-0.3436,0.717,1688,2019-08-07 17:05:53:864
-1.4989,13.0905,2.5128,0.2241,-3.7111,-5.3598,-1.2255,-0.4288,0.7777,1693,2019-08-07 17:05:53:869
-1.9535,12.8088,2.0745,0.2241,-3.7111,-5.3598,-1.2255,-0.4288,0.7777,1697,2019-08-07 17:05:53:873
-1.9535,12.8088,2.0745,0.2241,-3.7111,-5.3598,-1.4567,-0.4981,0.8736,1703,2019-08-07 17:05:53:879
-1.9535,12.8088,2.0745,0.2241,-3.7111,-5.3598,-1.4567,-0.4981,0.8736,1707,2019-08-07 17:05:53:883
-2.03,12.742,2.0368,0.5018,-3.2794,-4.8965,-1.6218,-0.5535,0.9492,1713,2019-08-07 17:05:53:889
-2.03,12.742,2.0368,0.5018,-3.2794,-4.8965,-1.6218,-0.5535,0.9492,1718,2019-08-07 17:05:53:894
-1.7413,12.728,1.6637,0.5018,-3.2794,-4.8965,-1.7518,-0.6142,1.0099,1723,2019-08-07 17:05:53:899
-1.7413,12.728,1.6637,0.5018,-3.2794,-4.8965,-1.7518,-0.6142,1.0099,1728,2019-08-07 17:05:53:904
-1.7413,12.728,1.6637,0.1102,-3.4726,-3.1022,-1.919,-0.6611,1.0717,1733,2019-08-07 17:05:53:909
-1.239,12.9714,0.5418,0.1102,-3.4726,-3.1022,-1.919,-0.6611,1.0717,1738,2019-08-07 17:05:53:914
-1.239,12.9714,0.5418,-0.2544,-3.7112,-2.484,-2.0927,-0.5769,1.0834,1743,2019-08-07 17:05:53:919
-0.6267,13.1624,0.1788,-0.2544,-3.7112,-2.484,-2.0927,-0.5769,1.0834,1748,2019-08-07 17:05:53:924
-0.6267,13.1624,0.1788,-0.2544,-3.7112,-2.484,-2.0927,-0.5769,1.0834,1753,2019-08-07 17:05:53:929
-0.6267,13.1624,0.1788,-0.2544,-3.7112,-2.484,-2.2439,-0.4352,1.0301,1758,2019-08-07 17:05:53:934
-0.1052,13.3581,0.6125,-0.9158,-3.8156,-2.3551,-2.2439,-0.4352,1.0301,1763,2019-08-07 17:05:53:939
-0.1052,13.3581,0.6125,-0.9158,-3.8156,-2.3551,-2.277,-0.3479,0.9726,1767,2019-08-07 17:05:53:943
-0.1052,13.3581,0.6125,-0.9158,-3.8156,-2.3551,-2.277,-0.3479,0.9726,1773,2019-08-07 17:05:53:949
0.1387,13.635,-0.1936,-0.9158,-3.8156,-2.3551,-2.2897,-0.2701,0.9236,1778,2019-08-07 17:05:53:954
0.1387,13.635,-0.1936,-0.8194,-4.0797,-0.0883,-2.2897,-0.2701,0.9236,1783,2019-08-07 17:05:53:959
0.2487,13.4679,-1.438,-0.8194,-4.0797,-0.0883,-2.2588,0.0346,0.8863,1788,2019-08-07 17:05:53:964
0.2487,13.4679,-1.438,-0.8194,-4.0797,-0.0883,-2.2588,0.0346,0.8863,1793,2019-08-07 17:05:53:969
0.2487,13.4679,-1.438,-1.091,-3.4063,0.4442,-2.1949,0.4671,0.8576,1798,2019-08-07 17:05:53:974
0.5262,12.6373,-1.669,-1.091,-3.4063,0.4442,-2.1949,0.4671,0.8576,1802,2019-08-07 17:05:53:978
0.5262,12.6373,-1.669,-1.091,-3.4063,0.4442,-2.1949,0.4671,0.8576,1808,2019-08-07 17:05:53:984
0.5262,12.6373,-1.669,-1.091,-3.4063,0.4442,-2.2343,0.8186,0.8128,1813,2019-08-07 17:05:53:989
-0.0097,14.4036,-5.3599,-0.4909,-4.628,4.7094,-2.2343,0.8186,0.8128,1818,2019-08-07 17:05:53:994
-0.0097,14.4036,-5.3599,-0.4909,-4.628,4.7094,-2.2397,0.3232,0.9726,1822,2019-08-07 17:05:53:998
-0.4021,16.2463,-0.0616,-0.0045,-6.454,-0.365,-2.2397,0.3232,0.9726,1828,2019-08-07 17:05:54:004
-0.4021,16.2463,-0.0616,-0.0045,-6.454,-0.365,-2.0522,1.2958,0.8299,1832,2019-08-07 17:05:54:008
-1.0815,10.9474,-1.5842,-0.0045,-6.454,-0.365,-2.0522,1.2958,0.8299,1838,2019-08-07 17:05:54:014
-1.0815,10.9474,-1.5842,-0.0045,-6.454,-0.365,-2.0192,1.3289,0.5039,1843,2019-08-07 17:05:54:019
-1.0815,10.9474,-1.5842,2.5914,-3.5037,-1.0247,-2.0192,1.3289,0.5039,1848,2019-08-07 17:05:54:024
-3.775,13.7114,8.9417,2.5914,-3.5037,-1.0247,-2.0192,1.3289,0.5039,1853,2019-08-07 17:05:54:029
-3.775,13.7114,8.9417,2.5914,-3.5037,-1.0247,-1.7326,-0.0326,0.8618,1857,2019-08-07 17:05:54:033
-0.6988,9.7682,4.0959,0.5812,0.0342,-3.73,-1.5781,-0.8219,0.7883,1863,2019-08-07 17:05:54:039
-0.6988,9.7682,4.0959,0.5812,0.0342,-3.73,-1.5781,-0.8219,0.7883,1867,2019-08-07 17:05:54:043
-0.6988,9.7682,4.0959,0.5812,0.0342,-3.73,-1.5781,-0.8219,0.7883,1873,2019-08-07 17:05:54:049
0.4781,13.9931,2.9363,0.5812,0.0342,-3.73,-1.5025,-1.0264,0.7031,1878,2019-08-07 17:05:54:054
0.4781,13.9931,2.9363,0.5812,0.0342,-3.73,-1.5025,-1.0264,0.7031,1883,2019-08-07 17:05:54:059
0.4781,13.9931,2.9363,-2.5128,-5.9733,-1.9135,-1.3789,-1.1894,0.8309,1887,2019-08-07 17:05:54:063
3.76,16.9815,2.8326,-2.5128,-5.9733,-1.9135,-1.3789,-1.1894,0.8309,1893,2019-08-07 17:05:54:069
3.76,16.9815,2.8326,-2.5128,-5.9733,-1.9135,-1.0764,-0.758,0.7915,1898,2019-08-07 17:05:54:074
3.76,16.9815,2.8326,-2.5128,-5.9733,-1.9135,-1.0764,-0.758,0.7915,1903,2019-08-07 17:05:54:079
1.9228,15.1483,-0.2832,-1.6954,-5.3842,1.2035,-0.9582,0.6034,0.4538,1907,2019-08-07 17:05:54:083
1.9228,15.1483,-0.2832,-1.6954,-5.3842,1.2035,-0.9582,0.6034,0.4538,1913,2019-08-07 17:05:54:089
-0.6416,8.613,-0.0193,-1.6954,-5.3842,1.2035,-0.9582,0.6034,0.4538,1917,2019-08-07 17:05:54:093
-0.6416,8.613,-0.0193,-1.6954,-5.3842,1.2035,-1.0956,1.821,0.2045,1923,2019-08-07 17:05:54:099
-0.6416,8.613,-0.0193,0.2227,3.2094,-4.873,-1.0956,1.821,0.2045,1928,2019-08-07 17:05:54:104
0.5784,6.1067,7.6878,0.2227,3.2094,-4.873,-0.808,0.8378,0.2322,1932,2019-08-07 17:05:54:108
0.5784,6.1067,7.6878,0.2227,3.2094,-4.873,-0.808,0.8378,0.2322,1938,2019-08-07 17:05:54:114
1.3438,7.9112,4.3363,0.2227,3.2094,-4.873,-0.4713,-0.7218,0.244,1943,2019-08-07 17:05:54:119
1.3438,7.9112,4.3363,-1.193,1.3191,-1.6689,-0.4713,-0.7218,0.244,1947,2019-08-07 17:05:54:123
1.3438,7.9112,4.3363,-1.193,1.3191,-1.6689,-0.385,-0.6717,0.2013,1953,2019-08-07 17:05:54:129
2.4393,10.1597,-1.3722,-1.193,1.3191,-1.6689,-0.385,-0.6717,0.2013,1957,2019-08-07 17:05:54:133
2.4393,10.1597,-1.3722,-1.193,1.3191,-1.6689,-0.5672,0.2444,0.2408,1963,2019-08-07 17:05:54:139
2.4393,10.1597,-1.3722,-2.1786,-0.3114,0.8945,-0.5672,0.2444,0.2408,1967,2019-08-07 17:05:54:143
2.0853,9.7444,2.0501,-2.1786,-0.3114,0.8945,-0.5672,0.2444,0.2408,1973,2019-08-07 17:05:54:149
2.0853,9.7444,2.0501,-2.1786,-0.3114,0.8945,-0.5022,0.7483,0.2322,1977,2019-08-07 17:05:54:153
-0.0773,9.372,3.7376,-2.1786,-0.3114,0.8945,-0.5022,0.7483,0.2322,1983,2019-08-07 17:05:54:159
-0.0773,9.372,3.7376,0.7176,0.5589,-2.3183,-0.3073,0.3968,0.1854,1987,2019-08-07 17:05:54:163
-0.0773,9.372,3.7376,0.7176,0.5589,-2.3183,-0.3073,0.3968,0.1854,1993,2019-08-07 17:05:54:169
-0.527,8.3552,2.908,0.7176,0.5589,-2.3183,-0.1411,-0.1103,0.1715,1997,2019-08-07 17:05:54:173
-0.527,8.3552,2.908,0.7176,0.5589,-2.3183,-0.1411,-0.1103,0.1715,2002,2019-08-07 17:05:54:178
-0.527,8.3552,2.908,0.1198,1.0805,-0.6567,0.0155,-0.4128,0.196,2008,2019-08-07 17:05:54:184
0.9082,9.0331,2.2197,0.1198,1.0805,-0.6567,0.0155,-0.4128,0.196,2013,2019-08-07 17:05:54:189
0.9082,9.0331,2.2197,0.1198,1.0805,-0.6567,0.0155,-0.4128,0.196,2017,2019-08-07 17:05:54:193
0.9082,9.0331,2.2197,0.1198,1.0805,-0.6567,0.0773,-0.3415,0.2088,2023,2019-08-07 17:05:54:199
1.6306,10.1454,1.4184,-1.1337,-0.4672,0.1051,0.0773,-0.3415,0.2088,2027,2019-08-07 17:05:54:203
1.6306,10.1454,1.4184,-1.1337,-0.4672,0.1051,0.1614,0.0612,0.1555,2033,2019-08-07 17:05:54:209
1.6306,10.1454,1.4184,-1.1337,-0.4672,0.1051,0.1614,0.0612,0.1555,2038,2019-08-07 17:05:54:214
1.1138,9.5821,1.6776,-1.1337,-0.4672,0.1051,0.236,0.4372,0.1033,2043,2019-08-07 17:05:54:219
1.1138,9.5821,1.6776,-0.347,0.3871,-0.6008,0.236,0.4372,0.1033,2047,2019-08-07 17:05:54:223
1.1138,9.5821,1.6776,-0.347,0.3871,-0.6008,0.3021,0.4639,0.0639,2053,2019-08-07 17:05:54:229
0.6736,9.4437,1.6493,-0.347,0.3871,-0.6008,0.3021,0.4639,0.0639,2058,2019-08-07 17:05:54:234
0.6736,9.4437,1.6493,-0.347,0.3871,-0.6008,0.3681,0.3275,0.0394,2063,2019-08-07 17:05:54:239
0.5779,10.007,0.7066,-0.0601,-0.315,0.7191,0.3681,0.3275,0.0394,2067,2019-08-07 17:05:54:243
0.5779,10.007,0.7066,-0.0601,-0.315,0.7191,0.4033,0.2306,0.0416,2073,2019-08-07 17:05:54:249
0.5779,10.007,0.7066,-0.0601,-0.315,0.7191,0.4033,0.2306,0.0416,2078,2019-08-07 17:05:54:254
0.6401,9.9688,0.6028,-0.0601,-0.315,0.7191,0.4064,0.1709,0.0543,2083,2019-08-07 17:05:54:259
0.6401,9.9688,0.6028,-0.0849,-0.1361,0.7768,0.4064,0.1709,0.0543,2087,2019-08-07 17:05:54:263
0.6065,9.8399,0.4897,-0.0849,-0.1361,0.7768,0.3958,0.1155,0.0575,2093,2019-08-07 17:05:54:269
0.6065,9.8399,0.4897,-0.0849,-0.1361,0.7768,0.3958,0.1155,0.0575,2098,2019-08-07 17:05:54:274
0.6065,9.8399,0.4897,-0.0849,-0.1361,0.7768,0.3724,0.0399,0.0543,2102,2019-08-07 17:05:54:278
0.7835,9.8304,0.4944,-0.2843,-0.1114,0.6006,0.3724,0.0399,0.0543,2108,2019-08-07 17:05:54:284
0.7835,9.8304,0.4944,-0.2843,-0.1114,0.6006,0.3649,-0.0507,0.0533,2113,2019-08-07 17:05:54:289
1.1231,9.8924,0.4237,-0.2843,-0.1114,0.6006,0.3649,-0.0507,0.0533,2117,2019-08-07 17:05:54:293
1.1231,9.8924,0.4237,-0.2843,-0.1114,0.6006,0.3649,-0.0507,0.0533,2123,2019-08-07 17:05:54:299
1.1231,9.8924,0.4237,-0.2843,-0.1114,0.6006,0.3244,-0.0794,0.0522,2127,2019-08-07 17:05:54:303
1.0609,10.3221,-1.2403,-0.5118,-0.599,2.4216,0.3244,-0.0794,0.0522,2133,2019-08-07 17:05:54:309
1.0609,10.3221,-1.2403,-0.5118,-0.599,2.4216,0.236,0.2348,0.0171,2137,2019-08-07 17:05:54:313
1.0609,10.3221,-1.2403,-0.5118,-0.599,2.4216,0.236,0.2348,0.0171,2143,2019-08-07 17:05:54:319
0.1949,10.5035,-0.9292,0.4704,-0.587,1.3447,0.17,0.4319,0.0128,2148,2019-08-07 17:05:54:324
0.1949,10.5035,-0.9292,0.4704,-0.587,1.3447,0.17,0.4319,0.0128,2153,2019-08-07 17:05:54:329
0.1949,10.5035,-0.9292,0.4704,-0.587,1.3447,0.17,0.4319,0.0128,2158,2019-08-07 17:05:54:334
-0.2883,10.3364,0.188,0.4704,-0.587,1.3447,0.0997,0.3403,0.0171,2163,2019-08-07 17:05:54:339
-0.2883,10.3364,0.188,0.9186,-0.7028,1.7714,0.0997,0.3403,0.0171,2168,2019-08-07 17:05:54:344
-0.3027,10.4414,-0.8726,0.9186,-0.7028,1.7714,0.0485,0.1592,0.0309,2173,2019-08-07 17:05:54:349
-0.3027,10.4414,-0.8726,0.9186,-0.7028,1.7714,0.0485,0.1592,0.0309,2178,2019-08-07 17:05:54:354
-0.121,10.5799,-0.5003,0.9186,-0.7028,1.7714,-0.0058,0.1517,0.0405,2182,2019-08-07 17:05:54:358
-0.121,10.5799,-0.5003,0.5196,-0.7966,0.9884,-0.0058,0.1517,0.0405,2188,2019-08-07 17:05:54:364
-0.121,10.5799,-0.5003,0.5196,-0.7966,0.9884,-0.058,0.1262,0.0565,2193,2019-08-07 17:05:54:369
0.0656,10.3126,0.3906,0.5196,-0.7966,0.9884,-0.058,0.1262,0.0565,2198,2019-08-07 17:05:54:374
0.0656,10.3126,0.3906,0.5196,-0.7966,0.9884,-0.0964,0.0559,0.0511,2203,2019-08-07 17:05:54:379
0.0656,10.3126,0.3906,0.5196,-0.7966,0.9884,-0.0964,0.0559,0.0511,2207,2019-08-07 17:05:54:383
0.0655,10.4176,0.2539,0.4721,-0.6835,0.8388,-0.1219,-6.0E-4,0.0682,2212,2019-08-07 17:05:54:388
0.0655,10.4176,0.2539,0.4721,-0.6835,0.8388,-0.1219,-6.0E-4,0.0682,2218,2019-08-07 17:05:54:394
0.0655,10.4176,0.2539,0.4721,-0.6835,0.8388,-0.1219,-6.0E-4,0.0682,2222,2019-08-07 17:05:54:398
0.3143,10.4844,0.3576,0.4721,-0.6835,0.8388,-0.1731,-0.0517,0.0511,2228,2019-08-07 17:05:54:404
0.3143,10.4844,0.3576,0.1279,-0.5482,0.6968,-0.1731,-0.0517,0.0511,2232,2019-08-07 17:05:54:408
0.6252,10.198,0.4613,0.1279,-0.5482,0.6968,-0.1507,-0.1412,0.0479,2238,2019-08-07 17:05:54:414
0.6252,10.198,0.4613,-0.1099,-0.4163,0.6711,-0.1507,-0.1412,0.0479,2243,2019-08-07 17:05:54:419
0.6252,10.198,0.4613,-0.1099,-0.4163,0.6711,-0.1283,-0.2808,0.0629,2248,2019-08-07 17:05:54:424
0.6156,9.9211,0.268,-0.1099,-0.4163,0.6711,-0.1283,-0.2808,0.0629,2253,2019-08-07 17:05:54:429
0.6156,9.9211,0.268,-0.1099,-0.4163,0.6711,-0.1283,-0.3361,0.0714,2257,2019-08-07 17:05:54:433
0.6156,9.9211,0.268,-0.1521,0.1299,1.3267,-0.1283,-0.3361,0.0714,2263,2019-08-07 17:05:54:439
0.7591,9.6586,-0.1326,-0.1521,0.1299,1.3267,-0.1496,-0.2808,0.0511,2268,2019-08-07 17:05:54:444
0.7591,9.6586,-0.1326,-0.1521,0.1299,1.3267,-0.1496,-0.2808,0.0511,2273,2019-08-07 17:05:54:449
0.7782,9.8734,0.0606,-0.1521,0.1299,1.3267,-0.1741,-0.2222,0.032,2277,2019-08-07 17:05:54:453
0.7782,9.8734,0.0606,-0.2025,-0.1025,1.0956,-0.1741,-0.2222,0.032,2283,2019-08-07 17:05:54:459
0.7782,9.8734,0.0606,-0.2025,-0.1025,1.0956,-0.1762,-0.1337,0.0149,2287,2019-08-07 17:05:54:463
0.7255,9.8066,0.3199,-0.1308,-0.0852,0.8536,-0.1762,-0.1337,0.0149,2293,2019-08-07 17:05:54:469
0.7255,9.8066,0.3199,-0.1308,-0.0852,0.8536,-0.1635,-0.0858,0.0021,2298,2019-08-07 17:05:54:474
0.7255,9.8066,0.3199,-0.1308,-0.0852,0.8536,-0.1635,-0.0858,0.0021,2303,2019-08-07 17:05:54:479
0.668,9.6729,1.0458,-0.1308,-0.0852,0.8536,-0.1251,-0.1242,0.0096,2308,2019-08-07 17:05:54:484
0.668,9.6729,1.0458,-0.1459,0.0448,-0.33,-0.1251,-0.1242,0.0096,2313,2019-08-07 17:05:54:489
0.8928,9.7397,2.064,-0.1459,0.0448,-0.33,-0.1251,-0.1242,0.0096,2318,2019-08-07 17:05:54:494
0.8928,9.7397,2.064,-0.1459,0.0448,-0.33,-0.0516,-0.2488,-0.0032,2323,2019-08-07 17:05:54:499
0.8928,9.7397,2.064,-0.1459,0.0448,-0.33,-0.0516,-0.2488,-0.0032,2328,2019-08-07 17:05:54:504
1.0937,9.5727,0.7299,-0.4869,0.1431,0.4833,-0.0122,-0.2914,-0.017,2333,2019-08-07 17:05:54:509
1.0937,9.5727,0.7299,-0.4869,0.1431,0.4833,-0.0122,-0.2914,-0.017,2338,2019-08-07 17:05:54:514
1.0937,9.5727,0.7299,-0.4869,0.1431,0.4833,-0.0207,-0.1625,-0.0511,2342,2019-08-07 17:05:54:518
0.9741,9.9164,0.0794,-0.4869,0.1431,0.4833,-0.0207,-0.1625,-0.0511,2348,2019-08-07 17:05:54:524
0.9741,9.9164,0.0794,-0.2629,-0.1903,0.8025,-0.0399,-0.0453,-0.0671,2353,2019-08-07 17:05:54:529
0.7922,9.9737,0.5178,-0.2629,-0.1903,0.8025,-0.0399,-0.0453,-0.0671,2357,2019-08-07 17:05:54:533
0.7922,9.9737,0.5178,-0.2629,-0.1903,0.8025,-0.0335,-0.0144,-0.0692,2363,2019-08-07 17:05:54:539
0.7922,9.9737,0.5178,-0.2629,-0.1903,0.8025,-0.0335,-0.0144,-0.0692,2368,2019-08-07 17:05:54:544
0.3807,9.9546,0.202,0.2123,-0.2372,1.0054,-0.0335,-0.0144,-0.0692,2372,2019-08-07 17:05:54:548
0.3807,9.9546,0.202,0.2123,-0.2372,1.0054,-0.0346,0.0303,-0.066,2378,2019-08-07 17:05:54:554
0.3807,9.9546,0.202,0.2123,-0.2372,1.0054,-0.0346,0.0303,-0.066,2382,2019-08-07 17:05:54:558
0.1415,9.8973,0.7488,0.2123,-0.2372,1.0054,-0.0367,0.025,-0.0394,2388,2019-08-07 17:05:54:564
0.1415,9.8973,0.7488,0.5471,-0.2606,0.3108,-0.0367,0.025,-0.0394,2393,2019-08-07 17:05:54:569
-0.1552,9.9928,1.0929,0.5471,-0.2606,0.3108,-0.0367,0.025,-0.0394,2398,2019-08-07 17:05:54:574
-0.1552,9.9928,1.0929,0.5471,-0.2606,0.3108,-0.0133,-0.056,-0.0085,2403,2019-08-07 17:05:54:579
-0.4566,9.883,1.206,0.5471,-0.2606,0.3108,-0.0133,-0.056,-0.0085,2408,2019-08-07 17:05:54:584
-0.4566,9.883,1.206,1.0377,-0.1934,-0.3016,0.0198,-0.1433,0.0107,2413,2019-08-07 17:05:54:589
-0.4566,9.883,1.206,1.0377,-0.1934,-0.3016,0.0198,-0.1433,0.0107,2417,2019-08-07 17:05:54:593
-0.2749,9.9116,1.5737,1.0377,-0.1934,-0.3016,0.0539,-0.2935,0.0394,2423,2019-08-07 17:05:54:599
-0.2749,9.9116,1.5737,1.0377,-0.1934,-0.3016,0.0539,-0.2935,0.0394,2427,2019-08-07 17:05:54:603
0.17,9.6586,0.8336,0.4873,0.0607,0.1985,0.0943,-0.4693,0.0543,2433,2019-08-07 17:05:54:609
0.17,9.6586,0.8336,0.4873,0.0607,0.1985,0.0943,-0.4693,0.0543,2438,2019-08-07 17:05:54:614
0.17,9.6586,0.8336,0.3862,-0.1097,0.4696,0.1284,-0.5417,0.0362,2442,2019-08-07 17:05:54:618
0.3183,9.8973,0.7817,0.3862,-0.1097,0.4696,0.1284,-0.5417,0.0362,2448,2019-08-07 17:05:54:624
0.3183,9.8973,0.7817,0.3862,-0.1097,0.4696,0.1508,-0.5236,0.0298,2453,2019-08-07 17:05:54:629
0.3183,9.8973,0.7817,0.3862,-0.1097,0.4696,0.1508,-0.5236,0.0298,2459,2019-08-07 17:05:54:635
3.4759,8.0451,0.7157,-3.2437,2.4378,0.3844,0.121,-0.6046,-0.0682,2463,2019-08-07 17:05:54:639
3.4759,8.0451,0.7157,-3.2437,2.4378,0.3844,0.121,-0.6046,-0.0682,2468,2019-08-07 17:05:54:644
3.4759,8.0451,0.7157,-3.2437,2.4378,0.3844,0.121,-0.6046,-0.0682,2473,2019-08-07 17:05:54:649
0.945,9.9976,-0.557,-0.3291,-0.272,1.6843,0.1689,-0.4746,0.0234,2478,2019-08-07 17:05:54:654
0.945,9.9976,-0.557,-0.3291,-0.272,1.6843,0.1689,-0.4746,0.0234,2482,2019-08-07 17:05:54:658
1.1985,10.7948,-0.3449,-0.3291,-0.272,1.6843,-0.0069,-0.0922,-0.1108,2488,2019-08-07 17:05:54:664
1.1985,10.7948,-0.3449,-0.2949,-1.2759,1.1447,-0.0069,-0.0922,-0.1108,2493,2019-08-07 17:05:54:669
1.1985,10.7948,-0.3449,-0.2949,-1.2759,1.1447,0.0443,0.2806,-0.1055,2497,2019-08-07 17:05:54:673
0.6291,10.5609,0.6497,-0.2949,-1.2759,1.1447,0.0443,0.2806,-0.1055,2503,2019-08-07 17:05:54:679
0.6291,10.5609,0.6497,-0.2949,-1.2759,1.1447,0.089,0.2625,-0.0916,2508,2019-08-07 17:05:54:684
0.9974,9.9498,0.4187,-0.4034,-0.2179,0.6643,0.089,0.2625,-0.0916,2513,2019-08-07 17:05:54:689
0.9974,9.9498,0.4187,-0.4034,-0.2179,0.6643,0.0943,0.2764,-0.1587,2517,2019-08-07 17:05:54:693
0.9974,9.9498,0.4187,-0.4034,-0.2179,0.6643,0.0943,0.2764,-0.1587,2523,2019-08-07 17:05:54:699
0.7247,10.1265,0.2961,-0.1477,-0.3923,0.7755,0.0943,0.2764,-0.1587,2527,2019-08-07 17:05:54:703
0.7247,10.1265,0.2961,-0.1477,-0.3923,0.7755,0.0602,0.2721,-0.1097,2533,2019-08-07 17:05:54:709
0.7247,10.1265,0.2961,-0.1477,-0.3923,0.7755,0.0602,0.2721,-0.1097,2538,2019-08-07 17:05:54:714
0.3754,9.9308,0.6827,0.6873,-0.4227,0.3427,0.057,0.1752,-0.0841,2543,2019-08-07 17:05:54:719
0.3754,9.9308,0.6827,0.6873,-0.4227,0.3427,0.057,0.1752,-0.0841,2548,2019-08-07 17:05:54:724
-0.7776,10.2267,1.0079,0.6873,-0.4227,0.3427,0.0752,-0.138,-0.0671,2552,2019-08-07 17:05:54:728
-0.7776,10.2267,1.0079,0.6873,-0.4227,0.3427,0.0752,-0.138,-0.0671,2558,2019-08-07 17:05:54:734
-0.7776,10.2267,1.0079,0.6873,-0.4227,0.3427,0.1668,-0.4938,-0.0437,2562,2019-08-07 17:05:54:738
-0.6676,9.9355,0.9325,1.2003,-0.1951,0.1049,0.1668,-0.4938,-0.0437,2568,2019-08-07 17:05:54:744
-0.6676,9.9355,0.9325,1.2003,-0.1951,0.1049,0.1668,-0.4938,-0.0437,2573,2019-08-07 17:05:54:749
0.404,9.7732,-0.6372,1.2003,-0.1951,0.1049,0.1945,-0.563,-0.0096,2578,2019-08-07 17:05:54:754
0.404,9.7732,-0.6372,1.2003,-0.1951,0.1049,0.1945,-0.563,-0.0096,2583,2019-08-07 17:05:54:759
0.404,9.7732,-0.6372,-0.387,0.0105,1.3162,0.1274,-0.3532,-0.0128,2587,2019-08-07 17:05:54:763
0.8872,9.7398,0.0934,-0.387,0.0105,1.3162,0.1274,-0.3532,-0.0128,2593,2019-08-07 17:05:54:769
0.8872,9.7398,0.0934,-0.387,0.0105,1.3162,0.0784,-0.1977,-0.032,2598,2019-08-07 17:05:54:774
0.4135,9.883,0.5506,-0.387,0.0105,1.3162,0.0784,-0.1977,-0.032,2603,2019-08-07 17:05:54:779
0.4135,9.883,0.5506,0.1977,-0.1494,0.3763,0.0815,-0.2168,-0.0288,2607,2019-08-07 17:05:54:783
0.4135,9.883,0.5506,0.1977,-0.1494,0.3763,0.0815,-0.2168,-0.0288,2613,2019-08-07 17:05:54:789
0.4421,9.8592,0.4281,0.1977,-0.1494,0.3763,0.0815,-0.2168,-0.0288,2618,2019-08-07 17:05:54:794
0.4421,9.8592,0.4281,0.1977,-0.1494,0.3763,0.0879,-0.236,-0.0266,2622,2019-08-07 17:05:54:798
1.0114,10.0072,0.1405,-0.3296,-0.2282,0.7297,0.0879,-0.236,-0.0266,2628,2019-08-07 17:05:54:804
1.0114,10.0072,0.1405,-0.3296,-0.2282,0.7297,0.0869,-0.1785,-0.0351,2633,2019-08-07 17:05:54:809
1.0114,10.0072,0.1405,-0.3296,-0.2282,0.7297,0.0869,-0.1785,-0.0351,2638,2019-08-07 17:05:54:814
1.3654,9.9929,-0.1989,-0.3296,-0.2282,0.7297,0.0677,-0.0262,-0.0469,2643,2019-08-07 17:05:54:819
1.3654,9.9929,-0.1989,-0.8031,-0.1924,1.2233,0.0677,-0.0262,-0.0469,2648,2019-08-07 17:05:54:824
1.3654,9.9929,-0.1989,-0.8031,-0.1924,1.2233,0.0038,0.2146,-0.0639,2652,2019-08-07 17:05:54:828
0.753,9.8162,-0.2413,-0.8031,-0.1924,1.2233,0.0038,0.2146,-0.0639,2658,2019-08-07 17:05:54:834
0.753,9.8162,-0.2413,-0.8031,-0.1924,1.2233,-0.0314,0.2956,-0.0575,2663,2019-08-07 17:05:54:839
0.0592,9.9833,0.7109,0.388,-0.1577,0.3032,-0.0314,0.2956,-0.0575,2667,2019-08-07 17:05:54:843
0.0592,9.9833,0.7109,0.388,-0.1577,0.3032,-0.0314,0.2956,-0.0575,2673,2019-08-07 17:05:54:849
0.0592,9.9833,0.7109,0.388,-0.1577,0.3032,-0.0133,0.2007,-0.0405,2677,2019-08-07 17:05:54:853
-0.2422,9.9929,0.4799,0.388,-0.1577,0.3032,-0.0133,0.2007,-0.0405,2683,2019-08-07 17:05:54:859
-0.2422,9.9929,0.4799,0.7063,-0.2906,0.7761,0.0027,0.0804,-0.0181,2687,2019-08-07 17:05:54:863
-0.1227,10.0931,-9.0E-4,0.7063,-0.2906,0.7761,0.0027,0.0804,-0.0181,2693,2019-08-07 17:05:54:869
-0.1227,10.0931,-9.0E-4,0.7063,-0.2906,0.7761,-0.0154,0.0857,-0.0117,2697,2019-08-07 17:05:54:873
-0.1227,10.0931,-9.0E-4,0.7063,-0.2906,0.7761,-0.0154,0.0857,-0.0117,2703,2019-08-07 17:05:54:879
0.1213,10.0597,0.3573,0.435,-0.3042,0.5371,-0.0175,0.0548,-0.0053,2707,2019-08-07 17:05:54:883
0.1213,10.0597,0.3573,0.435,-0.3042,0.5371,-0.0175,0.0548,-0.0053,2713,2019-08-07 17:05:54:889
0.1213,10.0597,0.3573,0.435,-0.3042,0.5371,-0.0079,0.0218,-0.0053,2718,2019-08-07 17:05:54:894
0.4292,9.8972,0.3859,0.435,-0.3042,0.5371,-0.0079,0.0218,-0.0053,2722,2019-08-07 17:05:54:898
0.4292,9.8972,0.3859,-0.0099,-0.1319,0.5399,-0.0101,0.0303,-0.0085,2728,2019-08-07 17:05:54:904
0.4292,9.8972,0.3859,-0.0099,-0.1319,0.5399,-0.0101,0.0303,-0.0085,2732,2019-08-07 17:05:54:908
0.6779,9.8399,0.3058,-0.0099,-0.1319,0.5399,-0.0101,0.0303,-0.0085,2738,2019-08-07 17:05:54:914
0.6779,9.8399,0.3058,-0.0099,-0.1319,0.5399,-0.0175,0.0559,-0.0106,2743,2019-08-07 17:05:54:919
0.6827,9.8304,0.3482,-0.1882,-0.0744,0.5528,-0.0175,0.0559,-0.0106,2747,2019-08-07 17:05:54:923
0.6827,9.8304,0.3482,-0.1882,-0.0744,0.5528,-0.0207,0.0836,-0.0106,2753,2019-08-07 17:05:54:929
0.6827,9.8304,0.3482,-0.1882,-0.0744,0.5528,-0.0207,0.0836,-0.0106,2757,2019-08-07 17:05:54:933
0.477,9.859,0.4048,-0.1882,-0.0744,0.5528,-0.025,0.1198,0.0053,2763,2019-08-07 17:05:54:939
0.477,9.859,0.4048,0.0394,-0.0744,0.4271,-0.025,0.1198,0.0053,2768,2019-08-07 17:05:54:944
0.4626,9.8686,0.4378,0.0394,-0.0744,0.4271,-0.025,0.1198,0.0053,2773,2019-08-07 17:05:54:949
0.4626,9.8686,0.4378,0.0394,-0.0744,0.4271,-0.0303,0.1251,0.0149,2778,2019-08-07 17:05:54:954
0.4626,9.8686,0.4378,0.0394,-0.0744,0.4271,-0.0303,0.1251,0.0149,2783,2019-08-07 17:05:54:959
0.4961,9.797,0.2398,0.0636,-0.0747,0.6422,-0.0431,0.1507,0.0192,2788,2019-08-07 17:05:54:964
0.4961,9.797,0.2398,0.0636,-0.0747,0.6422,-0.0431,0.1507,0.0192,2793,2019-08-07 17:05:54:969
0.5343,9.8638,0.5179,0.0636,-0.0747,0.6422,-0.0548,0.1794,0.016,2797,2019-08-07 17:05:54:973
0.5343,9.8638,0.5179,0.0636,-0.0747,0.6422,-0.0548,0.1794,0.016,2803,2019-08-07 17:05:54:979
0.5343,9.8638,0.5179,-0.1032,-0.1424,0.3538,-0.0484,0.1858,0.0085,2807,2019-08-07 17:05:54:983
0.5391,9.8829,0.532,-0.1032,-0.1424,0.3538,-0.0484,0.1858,0.0085,2813,2019-08-07 17:05:54:989
0.5391,9.8829,0.532,-0.1032,-0.1424,0.3538,-0.0484,0.1858,0.0085,2818,2019-08-07 17:05:54:994
0.2376,10.0787,0.2916,-0.1032,-0.1424,0.3538,-0.0356,0.1975,-0.0075,2823,2019-08-07 17:05:54:999
0.2376,10.0787,0.2916,0.3506,-0.3574,0.5945,-0.0356,0.1975,-0.0075,2828,2019-08-07 17:05:55:004
0.2376,10.0787,0.2916,0.3506,-0.3574,0.5945,-0.0292,0.2199,-0.016,2832,2019-08-07 17:05:55:008
0.0797,10.093,0.6923,0.3506,-0.3574,0.5945,-0.0292,0.2199,-0.016,2838,2019-08-07 17:05:55:014
0.0797,10.093,0.6923,0.3506,-0.3574,0.5945,0.0027,0.1741,-0.0117,2842,2019-08-07 17:05:55:018
0.1611,9.9116,0.9185,0.3178,-0.1567,0.0025,0.0027,0.1741,-0.0117,2848,2019-08-07 17:05:55:024
0.1611,9.9116,0.9185,0.3178,-0.1567,0.0025,0.0443,0.0495,0.0,2853,2019-08-07 17:05:55:029
0.1611,9.9116,0.9185,0.3178,-0.1567,0.0025,0.0443,0.0495,0.0,2858,2019-08-07 17:05:55:034
0.3428,9.9307,0.4189,0.3178,-0.1567,0.0025,0.0506,0.0473,-0.0021,2863,2019-08-07 17:05:55:039
0.3428,9.9307,0.4189,-0.0485,-0.208,0.5048,0.0506,0.0473,-0.0021,2868,2019-08-07 17:05:55:044
0.3428,9.9307,0.4189,-0.0485,-0.208,0.5048,0.0506,0.0473,-0.0021,2873,2019-08-07 17:05:55:049
0.5964,9.8925,0.4707,-0.0485,-0.208,0.5048,0.0485,0.1017,-0.0011,2878,2019-08-07 17:05:55:054
0.5964,9.8925,0.4707,-0.0485,-0.208,0.5048,0.0485,0.1017,-0.0011,2883,2019-08-07 17:05:55:059
0.692,9.8209,0.5697,-0.2173,-0.0636,0.3278,0.057,0.123,-0.0106,2887,2019-08-07 17:05:55:063
0.692,9.8209,0.5697,-0.2173,-0.0636,0.3278,0.057,0.123,-0.0106,2893,2019-08-07 17:05:55:069
0.692,9.8209,0.5697,-0.2173,-0.0636,0.3278,0.0624,0.139,-0.0106,2898,2019-08-07 17:05:55:074
0.6585,9.8829,0.1596,-0.2173,-0.0636,0.3278,0.0624,0.139,-0.0106,2902,2019-08-07 17:05:55:078
0.6585,9.8829,0.1596,-0.1301,-0.1575,0.8077,0.0517,0.1741,-0.0192,2908,2019-08-07 17:05:55:084
0.5246,9.9498,0.0795,-0.1301,-0.1575,0.8077,0.0517,0.1741,-0.0192,2913,2019-08-07 17:05:55:089
0.5246,9.9498,0.0795,-0.1301,-0.1575,0.8077,0.0517,0.1741,-0.0192,2917,2019-08-07 17:05:55:093
0.5246,9.9498,0.0795,-0.1301,-0.1575,0.8077,0.0325,0.2252,-0.0298,2923,2019-08-07 17:05:55:099
0.4815,10.0166,0.1737,-0.1301,-0.1575,0.8077,0.0325,0.2252,-0.0298,2927,2019-08-07 17:05:55:103
0.4815,10.0166,0.1737,0.0376,-0.2181,0.6645,0.0219,0.2572,-0.0362,2933,2019-08-07 17:05:55:109
0.4815,10.0166,0.1737,0.0376,-0.2181,0.6645,0.0219,0.2572,-0.0362,2937,2019-08-07 17:05:55:113
0.4384,9.8734,0.0842,0.0376,-0.2181,0.6645,0.0102,0.2721,-0.0362,2943,2019-08-07 17:05:55:119
0.4384,9.8734,0.0842,0.0376,-0.2181,0.6645,0.0102,0.2721,-0.0362,2947,2019-08-07 17:05:55:123
0.4384,9.9832,-0.0667,-0.0417,-0.1358,0.8001,-0.0079,0.3126,-0.0511,2953,2019-08-07 17:05:55:129
0.4432,9.9832,-0.0667,-0.0417,-0.1358,0.8001,-0.0079,0.3126,-0.0511,2957,2019-08-07 17:05:55:133
0.4432,9.9832,-0.0667,-0.0417,-0.1358,0.8001,-0.0271,0.3723,-0.0533,2963,2019-08-07 17:05:55:139
0.357,10.0023,-0.0101,-0.0417,-0.1358,0.8001,-0.0271,0.3723,-0.0533,2967,2019-08-07 17:05:55:143
0.357,10.0023,-0.0101,0.1135,-0.264,0.734,-0.0399,0.4085,-0.0575,2973,2019-08-07 17:05:55:149
0.357,10.0023,-0.0101,0.1135,-0.264,0.734,-0.0399,0.4085,-0.0575,2977,2019-08-07 17:05:55:153
0.3666,10.0882,0.3953,0.1135,-0.264,0.734,-0.0324,0.3882,-0.0575,2983,2019-08-07 17:05:55:159
0.3666,10.0882,0.3953,0.1135,-0.264,0.734,-0.0324,0.3882,-0.0575,2988,2019-08-07 17:05:55:164
0.1656,10.05,0.3528,0.2136,-0.2732,0.5468,-0.0229,0.3595,-0.0533,2993,2019-08-07 17:05:55:169
0.1656,10.05,0.3528,0.2136,-0.2732,0.5468,-0.0229,0.3595,-0.0533,2997,2019-08-07 17:05:55:173
0.1656,10.05,0.3528,0.2136,-0.2732,0.5468,-0.0229,0.3147,-0.0394,3003,2019-08-07 17:05:55:179
0.1656,10.05,0.3528,0.2136,-0.2732,0.5468,-0.0122,0.3147,-0.0394,3007,2019-08-07 17:05:55:183
0.1799,10.0071,0.7111,0.2491,-0.2203,0.2537,-0.0122,0.3147,-0.0394,3013,2019-08-07 17:05:55:189
0.1799,10.0071,0.7111,0.2491,-0.2203,0.2537,-0.0122,0.3147,-0.0394,3017,2019-08-07 17:05:55:193
0.1847,9.9737,0.4235,0.2491,-0.2203,0.2537,0.008,0.2679,-0.0277,3022,2019-08-07 17:05:55:198
0.1847,9.9737,0.4235,0.2491,-0.2203,0.2537,0.008,0.2679,-0.0277,3028,2019-08-07 17:05:55:204
0.1034,10.0691,0.2491,0.2512,-0.2674,0.5198,0.0102,0.2242,-0.0213,3032,2019-08-07 17:05:55:208
0.1034,10.0691,0.2491,0.2512,-0.2674,0.5198,0.0102,0.2242,-0.0213,3038,2019-08-07 17:05:55:214
0.1034,10.0691,0.2491,0.2512,-0.2674,0.5198,0.007,0.2103,-0.0149,3042,2019-08-07 17:05:55:218
0.1512,10.1026,0.4282,0.2512,-0.2674,0.5198,0.007,0.2103,-0.0149,3048,2019-08-07 17:05:55:224
0.1512,10.1026,0.4282,0.2424,-0.281,0.3552,0.0198,0.172,-0.0053,3052,2019-08-07 17:05:55:228
0.1177,9.9975,0.5272,0.2424,-0.281,0.3552,0.0198,0.172,-0.0053,3058,2019-08-07 17:05:55:234
0.1177,9.9975,0.5272,0.2424,-0.281,0.3552,0.0219,0.1081,0.0011,3063,2019-08-07 17:05:55:239
0.1177,9.9975,0.5272,0.2424,-0.281,0.3552,0.0219,0.1081,0.0011,3067,2019-08-07 17:05:55:243
0.242,9.9689,0.4235,0.1281,-0.2039,0.4385,0.0219,0.1081,0.0011,3073,2019-08-07 17:05:55:249
0.242,9.9689,0.4235,0.1281,-0.2039,0.4385,0.0198,0.0804,-0.0043,3078,2019-08-07 17:05:55:254
0.3664,10.0357,0.4377,0.1281,-0.2039,0.4385,0.0198,0.0804,-0.0043,3082,2019-08-07 17:05:55:258
0.3664,10.0357,0.4377,0.1281,-0.2039,0.4385,0.0187,0.091,-0.0011,3088,2019-08-07 17:05:55:264
0.3664,10.0357,0.4377,-0.0366,-0.208,0.4364,0.0187,0.091,-0.0011,3092,2019-08-07 17:05:55:268
0.4094,9.9498,0.3434,-0.0366,-0.208,0.4364,-0.0154,-0.0102,-0.0096,3098,2019-08-07 17:05:55:274
0.4094,9.9498,0.3434,-0.0366,-0.208,0.4364,-0.0154,-0.0102,-0.0096,3103,2019-08-07 17:05:55:279
0.0506,9.2671,2.3185,-0.0366,-0.208,0.4364,0.1508,-0.6941,-0.0447,3108,2019-08-07 17:05:55:284
0.0506,9.2671,2.3185,0.5433,-0.724,3.3777,0.1508,-0.6941,-0.0447,3113,2019-08-07 17:05:55:289
0.0506,9.2671,2.3185,0.5433,-0.724,3.3777,0.0144,-0.366,0.0117,3117,2019-08-07 17:05:55:293
0.8591,9.8925,-1.2735,0.5433,-0.724,3.3777,0.0144,-0.366,0.0117,3123,2019-08-07 17:05:55:299
0.8591,9.8925,-1.2735,0.5433,-0.724,3.3777,-0.1091,0.1368,-0.0064,3127,2019-08-07 17:05:55:303
0.8591,9.8925,-1.2735,-0.1889,-0.2172,0.0718,-0.1091,0.1368,-0.0064,3133,2019-08-07 17:05:55:309
0.462,10.1264,0.8525,-0.1889,-0.2172,0.0718,-0.1091,0.1368,-0.0064,3137,2019-08-07 17:05:55:313
0.462,10.1264,0.8525,-0.1889,-0.2172,0.0718,-0.0218,0.1624,0.0075,3143,2019-08-07 17:05:55:319
-0.2269,9.84,0.6262,-0.1889,-0.2172,0.0718,-0.0218,0.1624,0.0075,3148,2019-08-07 17:05:55:324
-0.2269,9.84,0.6262,0.5236,-0.0979,0.3771,-0.0058,0.1059,0.0117,3153,2019-08-07 17:05:55:329
-0.2269,9.84,0.6262,0.5236,-0.0979,0.3771,-0.0058,0.1059,0.0117,3158,2019-08-07 17:05:55:334
0.1366,10.0071,0.3245,0.5236,-0.0979,0.3771,0.0389,0.1869,0.0437,3163,2019-08-07 17:05:55:339
0.1366,10.0071,0.3245,0.5236,-0.0979,0.3771,0.0389,0.1869,0.0437,3167,2019-08-07 17:05:55:343
0.2323,10.0119,0.0605,0.139,-0.2452,0.7822,0.0315,0.3041,0.0543,3173,2019-08-07 17:05:55:349
0.2323,10.0119,0.0605,0.139,-0.2452,0.7822,0.0315,0.3041,0.0543,3178,2019-08-07 17:05:55:354
0.2323,10.0119,0.0605,0.139,-0.2452,0.7822,0.0219,0.3723,0.0618,3182,2019-08-07 17:05:55:358
0.8351,9.9641,0.3952,0.139,-0.2452,0.7822,0.0219,0.3723,0.0618,3188,2019-08-07 17:05:55:364
0.8351,9.9641,0.3952,-0.1959,-0.2879,0.2869,0.0144,0.3392,0.0192,3192,2019-08-07 17:05:55:368
0.8351,9.9641,0.3952,-0.1959,-0.2879,0.2869,0.0144,0.3392,0.0192,3198,2019-08-07 17:05:55:374
0.194,9.8352,1.272,-0.1959,-0.2879,0.2869,0.0102,0.0452,0.0277,3203,2019-08-07 17:05:55:379
0.194,9.8352,1.272,-0.1959,-0.2879,0.2869,0.0102,0.0452,0.0277,3208,2019-08-07 17:05:55:384
0.3566,9.8353,0.7534,0.0218,-0.0683,0.0834,0.0741,-0.1231,0.032,3213,2019-08-07 17:05:55:389
0.3566,9.8353,0.7534,0.0218,-0.0683,0.0834,0.0741,-0.1231,0.032,3218,2019-08-07 17:05:55:394
0.3566,9.8353,0.7534,0.0218,-0.0683,0.0834,0.0709,-0.1071,0.0256,3223,2019-08-07 17:05:55:399
0.7441,9.9355,-0.1092,0.0218,-0.0683,0.0834,0.0709,-0.1071,0.0256,3228,2019-08-07 17:05:55:404
0.7441,9.9355,-0.1092,-0.4237,-0.2389,1.091,0.0709,-0.1071,0.0256,3233,2019-08-07 17:05:55:409
0.6149,9.988,-0.1799,-0.4237,-0.2389,1.091,0.0166,0.0623,0.0075,3237,2019-08-07 17:05:55:413