ACCELEROMETER X (m/s²),ACCELEROMETER Y (m/s²),ACCELEROMETER Z (m/s²),LINEAR ACCELERATION X (m/s²),LINEAR ACCELERATION Y (m/s²),LINEAR ACCELERATION Z (m/s²),GYROSCOPE X (rad/s),GYROSCOPE Y (rad/s),GYROSCOPE Z (rad/s),Time since start in ms ,YYYY-MO-DD HH-MI-SS_SSS
0.4916,9.9497,0.8196,0.1346,-0.1324,-0.1086,0.0783,-0.0315,0.0021,2,2019-08-07 17:05:20:290
0.6159,9.8113,0.2587,-0.0059,-0.0973,0.4484,0.0783,-0.0315,0.0021,8,2019-08-07 17:05:20:296
0.6159,9.8113,0.2587,-0.0059,-0.0973,0.4484,0.0602,-0.0027,0.0,13,2019-08-07 17:05:20:301
0.7978,9.9688,0.584,-0.0059,-0.0973,0.4484,0.0602,-0.0027,0.0,18,2019-08-07 17:05:20:306
0.7978,9.9688,0.584,-0.0059,-0.0973,0.4484,0.0602,-0.023,-0.0138,22,2019-08-07 17:05:20:310
0.7978,9.9688,0.584,-0.0059,-0.0973,0.4484,0.0602,-0.023,-0.0138,28,2019-08-07 17:05:20:316
0.9748,10.0643,0.254,-0.2979,-0.3109,0.5513,0.0549,-0.008,-0.0234,33,2019-08-07 17:05:20:321
0.9748,10.0643,0.254,-0.2979,-0.3109,0.5513,0.0549,-0.008,-0.0234,37,2019-08-07 17:05:20:325
0.9891,10.1598,0.0749,-0.2979,-0.3109,0.5513,0.0549,-0.008,-0.0234,43,2019-08-07 17:05:20:331
0.9891,10.1598,0.0749,-0.2979,-0.3109,0.5513,0.007,0.0495,-0.0437,48,2019-08-07 17:05:20:336
0.9891,10.1598,0.0749,-0.1736,-0.3955,0.3279,0.007,0.0495,-0.0437,53,2019-08-07 17:05:20:341
0.7978,10.0882,0.5462,-0.1736,-0.3955,0.3279,-0.0058,0.0548,-0.0426,57,2019-08-07 17:05:20:345
0.7978,10.0882,0.5462,-0.1736,-0.3955,0.3279,-0.0058,0.0548,-0.0426,63,2019-08-07 17:05:20:351
0.5059,10.0977,0.4755,-0.1736,-0.3955,0.3279,-0.0165,0.0314,-0.0415,67,2019-08-07 17:05:20:355
0.5059,10.0977,0.4755,0.1708,-0.3232,0.318,-0.0165,0.0314,-0.0415,73,2019-08-07 17:05:20:361
0.5059,10.0977,0.4755,0.1708,-0.3232,0.318,-0.0324,-0.0049,-0.0362,78,2019-08-07 17:05:20:366
0.4437,10.112,0.617,0.1708,-0.3232,0.318,-0.0324,-0.0049,-0.0362,83,2019-08-07 17:05:20:371
0.4437,10.112,0.617,0.1708,-0.3232,0.318,-0.0324,-0.0049,-0.0362,88,2019-08-07 17:05:20:376
0.8121,9.7397,0.2964,-0.0672,-0.0317,0.4533,-0.0271,-0.0102,-0.0394,93,2019-08-07 17:05:20:381
0.8121,9.7397,0.2964,-0.0672,-0.0317,0.4533,-0.0271,-0.0102,-0.0394,98,2019-08-07 17:05:20:386
0.8121,9.7397,0.2964,-0.0672,-0.0317,0.4533,-0.0399,-0.0038,-0.0565,103,2019-08-07 17:05:20:391
0.9461,10.05,-0.0713,-0.0672,-0.0317,0.4533,-0.0399,-0.0038,-0.0565,107,2019-08-07 17:05:20:395
0.9461,10.05,-0.0713,-0.1097,-0.2461,0.9874,-0.0452,0.0804,-0.0692,113,2019-08-07 17:05:20:401
0.5969,9.8447,0.5274,-0.1097,-0.2461,0.9874,-0.0452,0.0804,-0.0692,118,2019-08-07 17:05:20:406
0.5969,9.8447,0.5274,-0.1097,-0.2461,0.9874,-0.0665,0.1326,-0.082,122,2019-08-07 17:05:20:410
0.5969,9.8447,0.5274,-0.1097,-0.2461,0.9874,-0.0665,0.1326,-0.082,128,2019-08-07 17:05:20:416
0.6351,9.9306,1.0459,-0.0079,-0.1743,-0.2357,-0.0388,0.0569,-0.0884,133,2019-08-07 17:05:20:421
0.6351,9.9306,1.0459,-0.0079,-0.1743,-0.2357,-0.0388,0.0569,-0.0884,138,2019-08-07 17:05:20:426
0.6351,9.9306,1.0459,-0.0079,-0.1743,-0.2357,0.0027,-0.0389,-0.0831,143,2019-08-07 17:05:20:431
0.8648,9.8924,0.6452,-0.0079,-0.1743,-0.2357,0.0027,-0.0389,-0.0831,148,2019-08-07 17:05:20:436
0.8648,9.8924,0.6452,-0.3204,-0.0348,0.4147,0.0123,-0.0123,-0.0969,152,2019-08-07 17:05:20:440
0.7835,9.7779,0.3766,-0.3204,-0.0348,0.4147,0.0123,-0.0123,-0.0969,158,2019-08-07 17:05:20:446
0.7835,9.7779,0.3766,-0.3204,-0.0348,0.4147,-0.0026,0.0537,-0.0991,162,2019-08-07 17:05:20:450
0.7835,9.7779,0.3766,-0.3204,-0.0348,0.4147,-0.0026,0.0537,-0.0991,167,2019-08-07 17:05:20:455
0.6112,9.8256,0.7678,-0.0195,-0.0669,0.0404,6.0E-4,0.0942,-0.1065,173,2019-08-07 17:05:20:461
0.6112,9.8256,0.7678,-0.0195,-0.0669,0.0404,6.0E-4,0.0942,-0.1065,178,2019-08-07 17:05:20:466
0.6112,9.8256,0.7678,-0.0195,-0.0669,0.0404,0.007,0.0697,-0.1097,183,2019-08-07 17:05:20:471
0.3577,10.0309,0.4284,-0.0195,-0.0669,0.0404,0.007,0.0697,-0.1097,187,2019-08-07 17:05:20:475
0.3577,10.0309,0.4284,0.248,-0.175,0.3718,0.0123,0.0963,-0.1118,193,2019-08-07 17:05:20:481
0.329,9.9354,0.4991,0.248,-0.175,0.3718,0.0123,0.0963,-0.1118,198,2019-08-07 17:05:20:486
0.329,9.9354,0.4991,0.248,-0.175,0.3718,0.007,0.1049,-0.1118,203,2019-08-07 17:05:20:491
0.329,9.9354,0.4991,0.248,-0.175,0.3718,0.007,0.1049,-0.1118,208,2019-08-07 17:05:20:496
0.5156,9.859,0.6075,0.0034,-0.1733,0.3267,0.0112,0.0878,-0.1065,213,2019-08-07 17:05:20:501
0.5156,9.859,0.6075,0.0034,-0.1733,0.3267,0.0112,0.0878,-0.1065,218,2019-08-07 17:05:20:506
0.5156,9.859,0.6075,0.0034,-0.1733,0.3267,0.0027,0.1123,-0.1097,223,2019-08-07 17:05:20:511
0.3386,9.9545,0.2917,0.0034,-0.1733,0.3267,0.0027,0.1123,-0.1097,228,2019-08-07 17:05:20:516
0.3386,9.9545,0.2917,0.1081,-0.1527,0.1068,-0.0111,0.1102,-0.1033,233,2019-08-07 17:05:20:521
0.396,9.9115,0.7678,0.1081,-0.1527,0.1068,-0.0111,0.1102,-0.1033,237,2019-08-07 17:05:20:525
0.396,9.9115,0.7678,0.1081,-0.1527,0.1068,-0.0111,0.1102,-0.1033,243,2019-08-07 17:05:20:531
0.396,9.9115,0.7678,0.1081,-0.1527,0.1068,0.0102,0.0335,-0.0969,248,2019-08-07 17:05:20:536
0.2907,9.9831,0.5745,0.2157,-0.2182,0.2419,0.0102,0.0335,-0.0969,253,2019-08-07 17:05:20:541
0.2907,9.9831,0.5745,0.2157,-0.2182,0.2419,0.0176,0.0058,-0.0959,258,2019-08-07 17:05:20:546
0.4486,10.0118,0.6264,0.2157,-0.2182,0.2419,0.0176,0.0058,-0.0959,262,2019-08-07 17:05:20:550
0.4486,10.0118,0.6264,0.2157,-0.2182,0.2419,0.0219,0.0143,-0.1001,268,2019-08-07 17:05:20:556
0.4486,10.0118,0.6264,-0.2296,-0.2455,0.1281,0.0219,0.0143,-0.1001,272,2019-08-07 17:05:20:560
0.683,9.9688,0.617,-0.2296,-0.2455,0.1281,0.0357,0.009,-0.1097,278,2019-08-07 17:05:20:566
0.683,9.9688,0.617,-0.2296,-0.2455,0.1281,0.0357,0.009,-0.1097,283,2019-08-07 17:05:20:571
0.5874,9.9497,0.2823,-0.2296,-0.2455,0.1281,0.0357,0.0612,-0.1161,288,2019-08-07 17:05:20:576
0.5874,9.9497,0.2823,-0.2296,-0.2455,0.1281,0.0357,0.0612,-0.1161,293,2019-08-07 17:05:20:581
0.5874,9.9497,0.2823,-0.1035,-0.2579,0.5661,0.0166,0.1155,-0.1246,298,2019-08-07 17:05:20:586
0.3625,9.9593,0.3483,-0.1035,-0.2579,0.5661,0.0166,0.1155,-0.1246,303,2019-08-07 17:05:20:591
0.3625,9.9593,0.3483,-0.1035,-0.2579,0.5661,0.0016,0.1432,-0.1225,308,2019-08-07 17:05:20:596
0.3625,9.9593,0.3483,-0.1035,-0.2579,0.5661,0.0016,0.1432,-0.1225,312,2019-08-07 17:05:20:600
0.1137,9.9688,0.683,0.3132,-0.1992,0.0968,0.0059,0.0782,-0.1193,318,2019-08-07 17:05:20:606
0.1137,9.9688,0.683,0.3132,-0.1992,0.0968,0.0059,0.0782,-0.1193,322,2019-08-07 17:05:20:610
0.0946,10.1025,0.4708,0.3132,-0.1992,0.0968,0.0102,0.0239,-0.1161,328,2019-08-07 17:05:20:616
0.0946,10.1025,0.4708,0.3132,-0.1992,0.0968,0.0102,0.0239,-0.1161,332,2019-08-07 17:05:20:620
0.2094,10.0929,0.6028,0.2627,-0.3314,0.4091,0.0059,0.0143,-0.114,338,2019-08-07 17:05:20:626
0.2094,10.0929,0.6028,0.2627,-0.3314,0.4091,0.0059,0.0143,-0.114,343,2019-08-07 17:05:20:631
0.2094,10.0929,0.6028,0.2627,-0.3314,0.4091,0.0059,-0.007,-0.1108,348,2019-08-07 17:05:20:636
0.4439,9.9736,0.551,0.2627,-0.3314,0.4091,0.0059,-0.007,-0.1108,353,2019-08-07 17:05:20:641
0.4439,9.9736,0.551,-0.0661,-0.1584,0.3166,0.0048,-0.0208,-0.1086,358,2019-08-07 17:05:20:646
0.4439,9.9736,0.551,-0.0661,-0.1584,0.3166,0.0048,-0.0208,-0.1086,363,2019-08-07 17:05:20:651
0.3386,9.9784,0.1692,-0.0661,-0.1584,0.3166,-0.0197,0.0442,-0.1182,367,2019-08-07 17:05:20:655
0.3386,9.9784,0.1692,-0.0661,-0.1584,0.3166,-0.0197,0.0442,-0.1182,373,2019-08-07 17:05:20:661
0.0229,9.9974,0.5038,0.2405,-0.2433,0.3805,-0.0431,0.0846,-0.1086,378,2019-08-07 17:05:20:666
0.0229,9.9974,0.5038,0.2405,-0.2433,0.3805,-0.0431,0.0846,-0.1086,383,2019-08-07 17:05:20:671
0.0229,9.9974,0.5038,0.2405,-0.2433,0.3805,-0.0431,0.0846,-0.1086,387,2019-08-07 17:05:20:675
-0.1398,9.9974,0.7631,0.2405,-0.2433,0.3805,-0.0314,-0.0027,-0.0991,393,2019-08-07 17:05:20:681
-0.1398,9.9974,0.7631,0.426,-0.2478,0.02,-0.0314,-0.0027,-0.0991,398,2019-08-07 17:05:20:686
-0.1398,9.9974,0.7631,0.426,-0.2478,0.02,-0.0154,-0.1103,-0.0937,403,2019-08-07 17:05:20:691
0.0324,10.0738,0.6028,0.426,-0.2478,0.02,-0.0154,-0.1103,-0.0937,407,2019-08-07 17:05:20:695
0.0324,10.0738,0.6028,0.426,-0.2478,0.02,-0.0218,-0.1636,-0.0991,413,2019-08-07 17:05:20:701
0.3482,9.7826,0.518,0.0815,-0.1041,0.2523,-0.0218,-0.1636,-0.0991,417,2019-08-07 17:05:20:705
0.3482,9.7826,0.518,0.0815,-0.1041,0.2523,-0.0282,-0.1551,-0.1023,423,2019-08-07 17:05:20:711
0.3482,9.7826,0.518,0.0815,-0.1041,0.2523,-0.0282,-0.1551,-0.1023,428,2019-08-07 17:05:20:716
0.5013,9.7444,0.8197,0.0815,-0.1041,0.2523,-0.0037,-0.1519,-0.0927,433,2019-08-07 17:05:20:721
0.5013,9.7444,0.8197,-0.212,0.0252,0.0047,-0.0037,-0.1519,-0.0927,437,2019-08-07 17:05:20:725
0.4582,9.8304,0.716,-0.212,0.0252,0.0047,0.0059,-0.1359,-0.0991,443,2019-08-07 17:05:20:731
0.4582,9.8304,0.716,-0.212,0.0252,0.0047,0.0059,-0.1359,-0.0991,448,2019-08-07 17:05:20:736
0.4582,9.8304,0.716,-0.212,0.0252,0.0047,0.0272,-0.1274,-0.1055,453,2019-08-07 17:05:20:741
0.487,9.8876,0.7348,-0.2091,-0.1125,0.0436,0.0272,-0.1274,-0.1055,457,2019-08-07 17:05:20:745
0.487,9.8876,0.7348,-0.2091,-0.1125,0.0436,0.0485,-0.1306,-0.1033,463,2019-08-07 17:05:20:751
0.243,9.9593,0.6358,-0.2091,-0.1125,0.0436,0.0485,-0.1306,-0.1033,468,2019-08-07 17:05:20:756
0.243,9.9593,0.6358,-0.2091,-0.1125,0.0436,0.0581,-0.122,-0.1023,473,2019-08-07 17:05:20:761
0.243,9.9593,0.6358,0.1649,-0.2209,0.0649,0.0581,-0.122,-0.1023,478,2019-08-07 17:05:20:766
0.0803,9.9449,0.8338,0.1649,-0.2209,0.0649,0.0581,-0.122,-0.1023,482,2019-08-07 17:05:20:770
0.0803,9.9449,0.8338,0.1649,-0.2209,0.0649,0.0805,-0.1231,-0.0948,488,2019-08-07 17:05:20:776
0.0803,9.9449,0.8338,0.1649,-0.2209,0.0649,0.0805,-0.1231,-0.0948,494,2019-08-07 17:05:20:782
0.3291,9.6394,1.0082,-0.1202,0.1102,-0.1586,0.1146,-0.1444,-0.0916,498,2019-08-07 17:05:20:786
0.3291,9.6394,1.0082,-0.1202,0.1102,-0.1586,0.1146,-0.1444,-0.0916,503,2019-08-07 17:05:20:791
0.5061,9.7826,0.6028,-0.1202,0.1102,-0.1586,0.1263,-0.1242,-0.1055,508,2019-08-07 17:05:20:796
0.5061,9.7826,0.6028,-0.1202,0.1102,-0.1586,0.1263,-0.1242,-0.1055,513,2019-08-07 17:05:20:801
0.5061,9.7826,0.6028,-0.1893,-0.0545,0.4837,0.1327,-0.0496,-0.1033,517,2019-08-07 17:05:20:805
0.286,9.8065,0.2116,-0.1893,-0.0545,0.4837,0.1327,-0.0496,-0.1033,523,2019-08-07 17:05:20:811
0.286,9.8065,0.2116,-0.1893,-0.0545,0.4837,0.1231,0.0196,-0.1097,527,2019-08-07 17:05:20:815
0.286,9.8065,0.2116,-0.1893,-0.0545,0.4837,0.1231,0.0196,-0.1097,533,2019-08-07 17:05:20:821
-0.0154,9.7635,0.6453,0.2816,-0.009,-0.0672,0.1231,0.0196,-0.1097,538,2019-08-07 17:05:20:826
-0.0154,9.7635,0.6453,0.2816,-0.009,-0.0672,0.1487,-0.0496,-0.1001,543,2019-08-07 17:05:20:831
0.0516,9.8256,0.9375,0.2816,-0.009,-0.0672,0.1487,-0.0496,-0.1001,548,2019-08-07 17:05:20:836
0.0516,9.8256,0.9375,0.2816,-0.009,-0.0672,0.1763,-0.2094,-0.0969,553,2019-08-07 17:05:20:841
0.0516,9.8256,0.9375,0.0096,-0.2308,0.193,0.1763,-0.2094,-0.0969,557,2019-08-07 17:05:20:845
0.2669,10.0977,0.2965,0.0096,-0.2308,0.193,0.1849,-0.2626,-0.0959,563,2019-08-07 17:05:20:851
0.2669,10.0977,0.2965,0.0096,-0.2308,0.193,0.1849,-0.2626,-0.0959,568,2019-08-07 17:05:20:856
0.2669,10.0977,0.2965,0.0096,-0.2308,0.193,0.1689,-0.1732,-0.1033,573,2019-08-07 17:05:20:861
0.3243,10.0977,0.0796,-0.1121,-0.2947,0.5781,0.1689,-0.1732,-0.1033,579,2019-08-07 17:05:20:867
0.3243,10.0977,0.0796,-0.1121,-0.2947,0.5781,0.1327,-0.0901,-0.1172,582,2019-08-07 17:05:20:870
0.0804,10.0595,0.1645,-0.1121,-0.2947,0.5781,0.1327,-0.0901,-0.1172,588,2019-08-07 17:05:20:876
0.0804,10.0595,0.1645,-0.1121,-0.2947,0.5781,0.1178,-0.056,-0.1161,594,2019-08-07 17:05:20:882
0.0804,10.0595,0.1645,0.2042,-0.2019,0.4549,0.1178,-0.056,-0.1161,597,2019-08-07 17:05:20:885
-0.1063,10.0261,0.1786,0.2042,-0.2019,0.4549,0.1092,-0.0624,-0.1086,603,2019-08-07 17:05:20:891
-0.1063,10.0261,0.1786,0.2042,-0.2019,0.4549,0.1092,-0.0624,-0.1086,607,2019-08-07 17:05:20:895
-0.0584,10.0404,0.2257,0.2042,-0.2019,0.4549,0.0943,-0.057,-0.1086,613,2019-08-07 17:05:20:901
-0.0584,10.0404,0.2257,0.0526,-0.2479,0.4309,0.0943,-0.057,-0.1086,617,2019-08-07 17:05:20:905
-0.0584,10.0404,0.2257,0.0526,-0.2479,0.4309,0.0954,-0.0485,-0.1065,623,2019-08-07 17:05:20:911
0.1856,10.007,0.188,0.0526,-0.2479,0.4309,0.0954,-0.0485,-0.1065,627,2019-08-07 17:05:20:915
0.1856,10.007,0.188,0.0526,-0.2479,0.4309,0.0847,-0.0208,-0.1065,633,2019-08-07 17:05:20:921
0.3961,9.9449,0.0985,-0.2922,-0.1509,0.4521,0.0847,-0.0208,-0.1065,638,2019-08-07 17:05:20:926
0.3961,9.9449,0.0985,-0.2922,-0.1509,0.4521,0.0847,-0.0208,-0.1065,642,2019-08-07 17:05:20:930
0.3961,9.9449,0.0985,-0.2922,-0.1509,0.4521,0.0688,0.0537,-0.114,648,2019-08-07 17:05:20:936
0.3674,9.8876,-0.0241,-0.2922,-0.1509,0.4521,0.0688,0.0537,-0.114,652,2019-08-07 17:05:20:940
0.3674,9.8876,-0.0241,-0.1848,-0.0639,0.4592,0.0506,0.1496,-0.1225,658,2019-08-07 17:05:20:946
0.3674,9.8876,-0.0241,-0.1848,-0.0639,0.4592,0.0506,0.1496,-0.1225,663,2019-08-07 17:05:20:951
0.1521,9.8972,0.188,-0.1848,-0.0639,0.4592,0.0357,0.1784,-0.1193,668,2019-08-07 17:05:20:956
0.1521,9.8972,0.188,-0.1848,-0.0639,0.4592,0.0357,0.1784,-0.1193,672,2019-08-07 17:05:20:960
-0.1111,10.1645,0.2682,-0.1848,-0.0639,0.4592,0.0357,0.1784,-0.1193,678,2019-08-07 17:05:20:966
-0.1111,10.1645,0.2682,0.2106,-0.3878,0.1905,0.0325,0.1454,-0.1161,683,2019-08-07 17:05:20:971
-0.2259,10.155,0.5463,0.2106,-0.3878,0.1905,0.0485,0.0729,-0.1182,688,2019-08-07 17:05:20:976
-0.2259,10.155,0.5463,0.2106,-0.3878,0.1905,0.0485,0.0729,-0.1182,694,2019-08-07 17:05:20:982
-0.2259,10.155,0.5463,0.2106,-0.3878,0.1905,0.0485,0.0729,-0.1182,698,2019-08-07 17:05:20:986
-0.1876,9.9831,0.4473,0.1991,-0.2201,-0.0739,0.0709,-0.0176,-0.1097,703,2019-08-07 17:05:20:991
-0.1876,9.9831,0.4473,0.1991,-0.2201,-0.0739,0.0709,-0.0176,-0.1097,708,2019-08-07 17:05:20:996
-0.1876,9.9831,0.4473,0.1991,-0.2201,-0.0739,0.0858,-0.0581,-0.098,713,2019-08-07 17:05:21:001
-0.0536,9.9831,0.2069,0.1991,-0.2201,-0.0739,0.0858,-0.0581,-0.098,718,2019-08-07 17:05:21:006
-0.0536,9.9831,0.2069,0.1399,-0.1236,0.2991,0.0826,-0.0443,-0.1023,722,2019-08-07 17:05:21:010
-0.0919,9.7922,0.4379,0.1399,-0.1236,0.2991,0.0826,-0.0443,-0.1023,728,2019-08-07 17:05:21:016
-0.0919,9.7922,0.4379,0.1399,-0.1236,0.2991,0.1018,-0.0251,-0.0959,733,2019-08-07 17:05:21:021
-0.0919,9.7922,0.4379,0.1399,-0.1236,0.2991,0.1018,-0.0251,-0.0959,737,2019-08-07 17:05:21:025
-0.0106,9.8017,0.6783,0.0051,-0.0034,-0.2242,0.1231,-0.057,-0.1086,743,2019-08-07 17:05:21:031
-0.0106,9.8017,0.6783,0.0051,-0.0034,-0.2242,0.1231,-0.057,-0.1086,747,2019-08-07 17:05:21:035
-0.0106,9.8017,0.6783,0.0051,-0.0034,-0.2242,0.1476,-0.0347,-0.1065,753,2019-08-07 17:05:21:041
0.0803,9.816,0.4662,0.0051,-0.0034,-0.2242,0.1476,-0.0347,-0.1065,757,2019-08-07 17:05:21:045
0.0803,9.816,0.4662,-0.1448,-0.0212,-0.0155,0.1518,0.0228,-0.1086,763,2019-08-07 17:05:21:051
0.1091,9.9545,0.3907,-0.1448,-0.0212,-0.0155,0.1518,0.0228,-0.1086,767,2019-08-07 17:05:21:055
0.1091,9.9545,0.3907,-0.1448,-0.0212,-0.0155,0.154,0.091,-0.1108,773,2019-08-07 17:05:21:061
0.1091,9.9545,0.3907,-0.1448,-0.0212,-0.0155,0.154,0.091,-0.1108,778,2019-08-07 17:05:21:066
-0.0201,9.9306,0.3483,-0.0329,-0.1297,0.0711,0.1636,0.1315,-0.114,783,2019-08-07 17:05:21:071
-0.0201,9.9306,0.3483,-0.0329,-0.1297,0.0711,0.1636,0.1315,-0.114,787,2019-08-07 17:05:21:075
0.0756,10.007,0.353,-0.0329,-0.1297,0.0711,0.1817,0.1102,-0.1118,793,2019-08-07 17:05:21:081
0.0756,10.007,0.353,-0.0329,-0.1297,0.0711,0.1817,0.1102,-0.1118,798,2019-08-07 17:05:21:086
0.0756,10.007,0.353,-0.094,-0.2239,0.262,0.1817,0.1102,-0.1118,803,2019-08-07 17:05:21:091
-0.0105,10.0356,0.0796,-0.094,-0.2239,0.262,0.1891,0.0932,-0.1182,807,2019-08-07 17:05:21:095
-0.0105,10.0356,0.0796,-0.094,-0.2239,0.262,0.1891,0.0932,-0.1182,813,2019-08-07 17:05:21:101
-0.0392,10.0547,0.1739,-0.094,-0.2239,0.262,0.1934,0.1017,-0.1214,817,2019-08-07 17:05:21:105
-0.0392,10.0547,0.1739,-0.1035,-0.2465,0.1413,0.1934,0.1017,-0.1214,823,2019-08-07 17:05:21:111
-0.0392,10.0547,0.1739,-0.1035,-0.2465,0.1413,0.1934,0.1017,-0.1214,828,2019-08-07 17:05:21:116
0.0469,9.9163,0.3389,-0.1035,-0.2465,0.1413,0.203,0.0718,-0.131,833,2019-08-07 17:05:21:121
0.0469,9.9163,0.3389,-0.1035,-0.2465,0.1413,0.2104,0.0346,-0.1374,838,2019-08-07 17:05:21:126
0.0469,9.9163,0.3389,-0.1386,-0.255,0.0108,0.2104,0.0346,-0.1374,842,2019-08-07 17:05:21:130
0.0421,10.0738,0.2493,-0.1386,-0.255,0.0108,0.2104,0.0346,-0.1374,848,2019-08-07 17:05:21:136
0.0421,10.0738,0.2493,-0.1386,-0.255,0.0108,0.2051,0.0186,-0.1331,853,2019-08-07 17:05:21:141
-0.0057,10.303,-0.0806,-0.1386,-0.255,0.0108,0.2051,0.0186,-0.1331,858,2019-08-07 17:05:21:146
-0.0057,10.303,-0.0806,-0.126,-0.4833,0.3745,0.1902,0.0601,-0.1374,862,2019-08-07 17:05:21:150
-0.0057,10.303,-0.0806,-0.126,-0.4833,0.3745,0.1902,0.0601,-0.1374,868,2019-08-07 17:05:21:156
-0.2067,10.2839,-0.0901,-0.126,-0.4833,0.3745,0.1902,0.0601,-0.1374,873,2019-08-07 17:05:21:161
-0.2067,10.2839,-0.0901,-0.126,-0.4833,0.3745,0.17,0.1006,-0.1395,878,2019-08-07 17:05:21:166
-0.2067,10.2839,-0.0901,0.3051,-0.5449,0.2706,0.17,0.1006,-0.1395,883,2019-08-07 17:05:21:171
-0.532,10.3746,-0.0194,0.3051,-0.5449,0.2706,0.1668,0.0708,-0.1225,887,2019-08-07 17:05:21:175
-0.532,10.3746,-0.0194,0.3051,-0.5449,0.2706,0.1678,0.0282,-0.1182,894,2019-08-07 17:05:21:182
-0.7281,10.217,-0.2456,0.3051,-0.5449,0.2706,0.1678,0.0282,-0.1182,897,2019-08-07 17:05:21:185
-0.7281,10.217,-0.2456,0.593,-0.3394,0.4324,0.1678,0.0282,-0.1182,903,2019-08-07 17:05:21:191
-0.7281,10.217,-0.2456,0.593,-0.3394,0.4324,0.1657,-0.008,-0.1236,908,2019-08-07 17:05:21:196
-0.7329,10.0356,0.0089,0.593,-0.3394,0.4324,0.1657,-0.008,-0.1236,913,2019-08-07 17:05:21:201
-0.7329,10.0356,0.0089,0.593,-0.3394,0.4324,0.1753,-0.0709,-0.1118,917,2019-08-07 17:05:21:205
-0.4411,10.1645,-0.1325,0.208,-0.3585,0.2836,0.1753,-0.0709,-0.1118,923,2019-08-07 17:05:21:211
-0.4411,10.1645,-0.1325,0.208,-0.3585,0.2836,0.1582,-0.1071,-0.1268,927,2019-08-07 17:05:21:215
-0.4411,10.1645,-0.1325,0.208,-0.3585,0.2836,0.1582,-0.1071,-0.1268,933,2019-08-07 17:05:21:221
-0.2019,10.6992,-0.2928,0.208,-0.3585,0.2836,0.1295,-0.0613,-0.1268,938,2019-08-07 17:05:21:226
-0.2019,10.6992,-0.2928,-0.1178,-1.6905,-0.3834,0.1295,-0.0613,-0.1268,943,2019-08-07 17:05:21:231
-0.1301,11.9404,0.815,-0.1178,-1.6905,-0.3834,0.1018,-0.1242,-0.1129,948,2019-08-07 17:05:21:236
-0.1301,11.9404,0.815,-0.1178,-1.6905,-0.3834,0.1018,-0.1242,-0.1129,953,2019-08-07 17:05:21:241
-0.1301,11.9404,0.815,-0.1178,-1.6905,-0.3834,0.0943,-0.2733,-0.0831,958,2019-08-07 17:05:21:246
-0.1205,11.9929,0.584,-0.1935,-2.1491,-0.4595,0.0943,-0.2733,-0.0831,963,2019-08-07 17:05:21:251
-0.1205,11.9929,0.584,-0.1935,-2.1491,-0.4595,0.1572,-0.3628,-0.0831,968,2019-08-07 17:05:21:256
0.0469,11.5537,0.6924,-0.1935,-2.1491,-0.4595,0.1572,-0.3628,-0.0831,973,2019-08-07 17:05:21:261
0.0469,11.5537,0.6924,-0.1935,-2.1491,-0.4595,0.2605,-0.4352,-0.1182,978,2019-08-07 17:05:21:266
0.0469,11.5537,0.6924,-0.4583,-0.6838,-1.0336,0.2605,-0.4352,-0.1182,983,2019-08-07 17:05:21:271
0.2909,10.0881,0.8433,-0.4583,-0.6838,-1.0336,0.2605,-0.4352,-0.1182,987,2019-08-07 17:05:21:275
0.2909,10.0881,0.8433,-0.4583,-0.6838,-1.0336,0.6046,-0.579,-0.1331,994,2019-08-07 17:05:21:282
0.9129,10.5894,-1.047,-0.4583,-0.6838,-1.0336,0.6046,-0.579,-0.1331,998,2019-08-07 17:05:21:286
0.9129,10.5894,-1.047,-1.5027,-1.8347,1.0958,0.8304,-0.6142,-0.1811,1002,2019-08-07 17:05:21:290
0.9129,10.5894,-1.047,-1.5027,-1.8347,1.0958,0.8304,-0.6142,-0.1811,1008,2019-08-07 17:05:21:296
1.6544,12.4369,-1.3251,-1.5027,-1.8347,1.0958,0.9465,-0.546,-0.2429,1012,2019-08-07 17:05:21:300
1.6544,12.4369,-1.3251,-1.5027,-1.8347,1.0958,0.9465,-0.546,-0.2429,1018,2019-08-07 17:05:21:306
2.3625,13.1386,-2.1924,-2.7117,-3.3382,1.9359,1.3513,-0.2413,-0.3174,1023,2019-08-07 17:05:21:311
2.3625,13.1386,-2.1924,-2.7117,-3.3382,1.9359,1.3513,-0.2413,-0.3174,1027,2019-08-07 17:05:21:315
2.3625,13.1386,-2.1924,-2.7117,-3.3382,1.9359,1.7817,-0.0965,-0.408,1033,2019-08-07 17:05:21:321
2.6209,13.6971,-3.4086,-2.7117,-3.3382,1.9359,1.7817,-0.0965,-0.408,1037,2019-08-07 17:05:21:325
2.6209,13.6971,-3.4086,-2.7117,-3.3382,1.9359,1.7817,-0.0965,-0.408,1043,2019-08-07 17:05:21:331
2.6209,13.6971,-3.4086,-2.647,-5.4096,4.4352,2.3889,0.0868,-0.5635,1047,2019-08-07 17:05:21:335
1.7262,16.9768,-6.218,-2.647,-5.4096,4.4352,2.3889,0.0868,-0.5635,1053,2019-08-07 17:05:21:341
1.7262,16.9768,-6.218,-2.647,-5.4096,4.4352,3.0898,0.2114,-0.6924,1057,2019-08-07 17:05:21:345
1.2526,20.2086,-9.0039,-2.647,-5.4096,4.4352,3.0898,0.2114,-0.6924,1063,2019-08-07 17:05:21:351
1.2526,20.2086,-9.0039,-1.5956,-10.9658,8.101,3.6353,0.581,-0.7041,1067,2019-08-07 17:05:21:355
1.2526,20.2086,-9.0039,-1.5956,-10.9658,8.101,3.6353,0.581,-0.7041,1073,2019-08-07 17:05:21:361
-0.5941,22.2805,-8.8436,-1.5956,-10.9658,8.101,3.9761,1.4034,-0.6487,1078,2019-08-07 17:05:21:366
-0.5941,22.2805,-8.8436,-1.5956,-10.9658,8.101,3.9761,1.4034,-0.6487,1083,2019-08-07 17:05:21:371
-2.1299,22.1086,-5.5345,0.9435,-12.4757,4.3897,3.9761,1.4034,-0.6487,1088,2019-08-07 17:05:21:376
-2.1299,22.1086,-5.5345,0.9435,-12.4757,4.3897,4.1679,2.1417,-0.7755,1092,2019-08-07 17:05:21:380
-5.1631,24.3237,-1.2449,4.1962,-14.0956,-0.2371,4.1679,2.1417,-0.7755,1098,2019-08-07 17:05:21:386
-5.1631,24.3237,-1.2449,4.1962,-14.0956,-0.2371,4.5226,1.6825,-0.7297,1103,2019-08-07 17:05:21:391
-5.1631,24.3237,-1.2449,4.1962,-14.0956,-0.2371,4.5226,1.6825,-0.7297,1107,2019-08-07 17:05:21:395
-5.4118,25.3978,0.2352,4.1962,-14.0956,-0.2371,5.034,-0.2232,-0.7638,1113,2019-08-07 17:05:21:401
-5.4118,25.3978,0.2352,4.908,-16.1843,-3.6529,5.034,-0.2232,-0.7638,1118,2019-08-07 17:05:21:406
-5.4118,25.3978,0.2352,4.908,-16.1843,-3.6529,5.034,-0.2232,-0.7638,1122,2019-08-07 17:05:21:410
-5.4118,25.14,0.6689,4.908,-16.1843,-3.6529,5.4206,-2.0097,-0.9513,1128,2019-08-07 17:05:21:416
-6.4548,25.14,0.6689,4.908,-16.1843,-3.6529,5.4206,-2.0097,-0.9513,1133,2019-08-07 17:05:21:421
-6.4548,25.14,0.6689,5.1759,-16.3813,-3.1356,5.4206,-2.0097,-0.9513,1138,2019-08-07 17:05:21:426
-5.4023,24.8249,-3.4086,5.1759,-16.3813,-3.1356,5.6784,-3.7652,-1.1164,1142,2019-08-07 17:05:21:430
-5.4023,24.8249,-3.4086,5.1759,-16.3813,-3.1356,5.6784,-3.7652,-1.1164,1148,2019-08-07 17:05:21:436
-2.3021,24.0229,-7.6227,5.1759,-16.3813,-3.1356,5.459,-3.3487,-1.159,1153,2019-08-07 17:05:21:441
-2.3021,24.0229,-7.6227,0.0804,-15.5203,2.9065,5.459,-3.3487,-1.159,1158,2019-08-07 17:05:21:446
-2.3021,24.0229,-7.6227,0.0804,-15.5203,2.9065,5.002,-1.9213,-1.1228,1162,2019-08-07 17:05:21:450
-0.4936,23.1398,-8.4193,0.0804,-15.5203,2.9065,5.002,-1.9213,-1.1228,1168,2019-08-07 17:05:21:456
-0.4936,23.1398,-8.4193,0.0804,-15.5203,2.9065,4.3596,-0.3234,-1.0344,1173,2019-08-07 17:05:21:461
-0.4936,23.1398,-8.4193,-1.3924,-14.1067,-0.0316,4.3596,-0.3234,-1.0344,1177,2019-08-07 17:05:21:465
-0.7998,21.5883,-4.8227,-1.3924,-14.1067,-0.0316,4.3596,-0.3234,-1.0344,1183,2019-08-07 17:05:21:471
-0.7998,21.5883,-4.8227,-1.3924,-14.1067,-0.0316,4.0283,0.4788,-0.8447,1187,2019-08-07 17:05:21:475
-1.0964,19.8792,-2.6921,-1.3924,-14.1067,-0.0316,4.0283,0.4788,-0.8447,1193,2019-08-07 17:05:21:481
-1.0964,19.8792,-2.6921,-0.7779,-12.3166,-3.4435,3.6981,0.9858,-0.6487,1198,2019-08-07 17:05:21:486
-1.7471,18.8624,-3.0692,-0.7779,-12.3166,-3.4435,3.6981,0.9858,-0.6487,1203,2019-08-07 17:05:21:491
-1.7471,18.8624,-3.0692,-0.7779,-12.3166,-3.4435,3.6981,0.9858,-0.6487,1207,2019-08-07 17:05:21:495
-1.7471,18.8624,-3.0692,-0.7779,-12.3166,-3.4435,2.9439,1.642,-0.3835,1213,2019-08-07 17:05:21:501
-1.5366,16.9242,-1.3392,-0.3241,-10.1348,-5.4929,2.2877,1.9957,-0.2663,1218,2019-08-07 17:05:21:506
-1.5366,16.9242,-1.3392,-0.3241,-10.1348,-5.4929,2.2877,1.9957,-0.2663,1223,2019-08-07 17:05:21:511
-2.2686,14.8094,1.0696,-0.3241,-10.1348,-5.4929,1.7508,2.0436,-0.2226,1228,2019-08-07 17:05:21:516
-2.2686,14.8094,1.0696,-0.3241,-10.1348,-5.4929,1.7508,2.0436,-0.2226,1233,2019-08-07 17:05:21:521
-2.2686,14.8094,1.0696,1.0355,-7.1523,-8.8963,0.8283,1.7709,-0.1385,1238,2019-08-07 17:05:21:526
-2.8235,13.1243,2.3517,1.0355,-7.1523,-8.8963,0.8283,1.7709,-0.1385,1242,2019-08-07 17:05:21:530
-2.8235,13.1243,2.3517,1.0355,-7.1523,-8.8963,0.8283,1.7709,-0.1385,1247,2019-08-07 17:05:21:535
-2.8235,13.1243,2.3517,1.0355,-7.1523,-8.8963,0.0443,1.4855,-0.0628,1253,2019-08-07 17:05:21:541
-3.0292,12.0168,3.9026,1.5926,-5.2644,-11.3513,0.0443,1.4855,-0.0628,1258,2019-08-07 17:05:21:546
-3.0292,12.0168,3.9026,1.5926,-5.2644,-11.3513,-1.0487,1.1627,0.081,1263,2019-08-07 17:05:21:551
-3.0292,11.272,5.4628,1.5926,-5.2644,-11.3513,-1.0487,1.1627,0.081,1268,2019-08-07 17:05:21:556
-3.0292,11.272,5.4628,1.5926,-5.2644,-11.3513,-1.0487,1.1627,0.081,1273,2019-08-07 17:05:21:561
-3.0292,11.272,5.4628,1.5926,-5.2644,-11.3513,-2.2727,0.7866,0.2258,1277,2019-08-07 17:05:21:565
-2.9288,11.3675,7.1928,1.6778,-4.548,-14.133,-2.2727,0.7866,0.2258,1283,2019-08-07 17:05:21:571
-2.9288,11.3675,7.1928,1.6778,-4.548,-14.133,-3.5617,0.2806,0.3952,1288,2019-08-07 17:05:21:576
-2.0628,12.0693,7.5275,1.6778,-4.548,-14.133,-3.5617,0.2806,0.3952,1292,2019-08-07 17:05:21:580
-2.0628,12.0693,7.5275,1.6778,-4.548,-14.133,-3.5617,0.2806,0.3952,1298,2019-08-07 17:05:21:586
-2.0628,12.0693,7.5275,0.5462,-5.0264,-13.4708,-4.5928,0.0399,0.5124,1303,2019-08-07 17:05:21:591
-0.8237,12.8474,6.4527,0.5462,-5.0264,-13.4708,-4.5928,0.0399,0.5124,1307,2019-08-07 17:05:21:595
-0.8237,12.8474,6.4527,0.5462,-5.0264,-13.4708,-6.1822,-0.0784,0.6136,1313,2019-08-07 17:05:21:601
-0.1348,13.826,5.6891,-0.9354,-5.7604,-11.1697,-6.1822,-0.0784,0.6136,1317,2019-08-07 17:05:21:605
-0.1348,13.826,5.6891,-0.9354,-5.7604,-11.1697,-7.1825,-0.1668,0.6402,1323,2019-08-07 17:05:21:611
-0.1348,13.826,5.6891,-0.9354,-5.7604,-11.1697,-7.1825,-0.1668,0.6402,1328,2019-08-07 17:05:21:616
-0.1347,15.072,5.2743,-0.9354,-5.7604,-11.1697,-7.1825,-0.1668,0.6402,1333,2019-08-07 17:05:21:621
-0.1347,15.072,5.2743,-0.7856,-6.6443,-9.5404,-8.0645,-0.3159,0.6967,1337,2019-08-07 17:05:21:625
-0.1347,15.072,5.2743,-0.7856,-6.6443,-9.5404,-8.0645,-0.3159,0.6967,1343,2019-08-07 17:05:21:631
-0.2448,15.621,5.3968,-0.7856,-6.6443,-9.5404,-8.8209,-0.5354,0.7702,1348,2019-08-07 17:05:21:636
-0.2448,15.621,5.3968,-0.7856,-6.6443,-9.5404,-8.8209,-0.5354,0.7702,1353,2019-08-07 17:05:21:641
-0.3883,16.1366,6.8204,-0.4737,-6.6607,-9.208,-9.5953,-0.8965,0.8661,1357,2019-08-07 17:05:21:645
-0.3883,16.1366,6.8204,-0.4737,-6.6607,-9.208,-9.5953,-0.8965,0.8661,1363,2019-08-07 17:05:21:651
-0.3883,16.1366,6.8204,-0.4737,-6.6607,-9.208,-10.1034,-1.2331,1.0205,1367,2019-08-07 17:05:21:655
-0.6275,16.8049,7.009,-0.4737,-6.6607,-9.208,-10.1034,-1.2331,1.0205,1373,2019-08-07 17:05:21:661
-0.6275,16.8049,7.009,0.2409,-7.3781,-6.7767,-10.1034,-1.2331,1.0205,1378,2019-08-07 17:05:21:666
-1.1107,17.182,6.349,0.2409,-7.3781,-6.7767,-10.6723,-1.4664,1.2283,1383,2019-08-07 17:05:21:671
-1.1107,17.182,6.349,0.2409,-7.3781,-6.7767,-10.6723,-1.4664,1.2283,1388,2019-08-07 17:05:21:676
-1.1107,17.182,6.349,0.2409,-7.3781,-6.7767,-11.1293,-1.5101,1.4616,1393,2019-08-07 17:05:21:681
-0.905,16.2702,6.8298,0.2409,-7.3781,-6.7767,-11.1293,-1.5101,1.4616,1398,2019-08-07 17:05:21:686
-0.905,16.2702,6.8298,0.4761,-6.5817,-5.1364,-11.3285,-1.5601,1.6043,1402,2019-08-07 17:05:21:690
-0.905,16.2702,6.8298,0.4761,-6.5817,-5.1364,-11.3285,-1.5601,1.6043,1408,2019-08-07 17:05:21:696
-1.1298,16.2941,6.2312,0.4761,-6.5817,-5.1364,-11.6033,-1.6816,1.8589,1412,2019-08-07 17:05:21:700
-1.1298,16.2941,6.2312,0.4761,-6.5817,-5.1364,-11.6033,-1.6816,1.8589,1418,2019-08-07 17:05:21:706
-2.235,16.6617,2.908,1.9697,-7.797,0.2868,-11.6033,-1.6816,1.8589,1422,2019-08-07 17:05:21:710
-2.235,16.6617,2.908,1.9697,-7.797,0.2868,-11.8334,-1.8424,2.1433,1428,2019-08-07 17:05:21:716
-2.8713,16.084,-0.3823,1.9697,-7.797,0.2868,-12.088,-1.7647,2.4235,1434,2019-08-07 17:05:21:722
-2.8713,16.084,-0.3823,1.9697,-7.797,0.2868,-12.088,-1.7647,2.4235,1437,2019-08-07 17:05:21:725
-2.8713,16.084,-0.3823,3.314,-7.8436,8.2992,-12.088,-1.7647,2.4235,1443,2019-08-07 17:05:21:731
-2.5364,15.9886,-3.1446,3.314,-7.8436,8.2992,-12.4236,-1.4291,2.6397,1447,2019-08-07 17:05:21:735
-2.5364,15.9886,-3.1446,3.1375,-9.8925,10.7341,-12.4236,-1.4291,2.6397,1453,2019-08-07 17:05:21:741
-2.058,19.0534,-4.7708,3.1375,-9.8925,10.7341,-12.6771,-1.2256,2.7686,1458,2019-08-07 17:05:21:746
-2.058,19.0534,-4.7708,3.1375,-9.8925,10.7341,-12.6771,-1.2256,2.7686,1462,2019-08-07 17:05:21:750
-2.058,19.0534,-4.7708,3.1375,-9.8925,10.7341,-12.6558,-1.264,2.8592,1468,2019-08-07 17:05:21:756
-2.0867,26.8586,-9.4187,3.4795,-21.9402,17.7916,-12.6558,-1.264,2.8592,1473,2019-08-07 17:05:21:761
-2.0867,26.8586,-9.4187,3.4795,-21.9402,17.7916,-12.3426,-0.888,2.8443,1478,2019-08-07 17:05:21:766
-1.3834,38.7692,-16.4752,3.3016,-32.5774,24.468,-12.3426,-0.888,2.8443,1483,2019-08-07 17:05:21:771
-1.3834,38.7692,-16.4752,3.3016,-32.5774,24.468,-12.3426,-0.888,2.8443,1488,2019-08-07 17:05:21:776
-1.3834,38.7692,-16.4752,3.3016,-32.5774,24.468,-10.6925,1.0338,2.4203,1492,2019-08-07 17:05:21:780
1.913,48.2644,-20.8355,3.3016,-32.5774,24.468,-10.6925,1.0338,2.4203,1498,2019-08-07 17:05:21:786
1.913,48.2644,-20.8355,-0.6344,-46.1464,36.0262,-8.4022,3.485,1.6916,1503,2019-08-07 17:05:21:791
1.6881,41.1991,-40.9729,-0.6344,-46.1464,36.0262,-8.4022,3.485,1.6916,1507,2019-08-07 17:05:21:795
1.6881,41.1991,-40.9729,-0.6344,-46.1464,36.0262,-6.8086,6.1268,0.8746,1513,2019-08-07 17:05:21:801
1.6881,41.1991,-40.9729,-0.6344,-46.1464,36.0262,-6.8086,6.1268,0.8746,1518,2019-08-07 17:05:21:806
-1.0676,24.8297,-64.5655,1.5491,-24.4226,74.3552,-6.8086,6.1268,0.8746,1523,2019-08-07 17:05:21:811
-1.0676,24.8297,-64.5655,1.5491,-24.4226,74.3552,-6.929,8.5716,-0.1875,1528,2019-08-07 17:05:21:816
-1.0676,24.8297,-64.5655,1.5491,-24.4226,74.3552,-7.9154,8.2936,-0.4314,1533,2019-08-07 17:05:21:821
-8.665,5.5578,-60.3608,1.5491,-24.4226,74.3552,-7.9154,8.2936,-0.4314,1538,2019-08-07 17:05:21:826
-8.665,5.5578,-60.3608,8.4914,3.0676,51.9676,-7.9154,8.2936,-0.4314,1543,2019-08-07 17:05:21:831
-7.9856,-8.821,-26.657,8.4914,3.0676,51.9676,-8.5087,5.0754,0.1214,1548,2019-08-07 17:05:21:836
-7.9856,-8.821,-26.657,8.4914,3.0676,51.9676,-8.5087,5.0754,0.1214,1553,2019-08-07 17:05:21:841
-7.9856,-8.821,-26.657,8.4914,3.0676,51.9676,-6.4325,-2.1535,0.7127,1557,2019-08-07 17:05:21:845
3.6018,-11.986,24.0447,-2.0682,8.6135,-20.4214,-6.4325,-2.1535,0.7127,1563,2019-08-07 17:05:21:851
3.6018,-11.986,24.0447,-2.0682,8.6135,-20.4214,0.5907,-7.1901,-0.1086,1568,2019-08-07 17:05:21:856
-0.7758,-18.3209,-9.0085,-2.0682,8.6135,-20.4214,0.5907,-7.1901,-0.1086,1572,2019-08-07 17:05:21:860
-0.7758,-18.3209,-9.0085,-2.0682,8.6135,-20.4214,7.1197,-5.8095,-1.535,1578,2019-08-07 17:05:21:866
-0.7758,-18.3209,-9.0085,3.1577,11.5178,44.5969,7.1197,-5.8095,-1.535,1583,2019-08-07 17:05:21:871
-2.5268,-11.122,-37.6119,3.1577,11.5178,44.5969,7.1197,-5.8095,-1.535,1588,2019-08-07 17:05:21:876
-2.5268,-11.122,-37.6119,3.1577,11.5178,44.5969,10.8844,-3.4084,-2.1934,1593,2019-08-07 17:05:21:881
0.162,6.4361,-36.6173,3.1577,11.5178,44.5969,10.8844,-3.4084,-2.1934,1598,2019-08-07 17:05:21:886
0.162,6.4361,-36.6173,1.6104,-21.3444,41.8193,11.8804,-2.537,-1.7992,1603,2019-08-07 17:05:21:891
0.162,6.4361,-36.6173,1.6104,-21.3444,41.8193,11.8804,-2.537,-1.7992,1608,2019-08-07 17:05:21:896
-5.0625,30.8065,-33.9634,1.6104,-21.3444,41.8193,2.4326,-11.205,-0.5699,1612,2019-08-07 17:05:21:900
-5.0625,30.8065,-33.9634,1.6104,-21.3444,41.8193,2.4326,-11.205,-0.5699,1619,2019-08-07 17:05:21:907
20.1505,15.7594,-8.7351,-18.1764,-14.638,18.2788,3.0068,-4.871,-0.7478,1623,2019-08-07 17:05:21:911
20.1505,15.7594,-8.7351,-18.1764,-14.638,18.2788,3.0068,-4.871,-0.7478,1628,2019-08-07 17:05:21:916
20.1505,15.7594,-8.7351,-18.1764,-14.638,18.2788,7.7195,8.4683,-2.2562,1634,2019-08-07 17:05:21:922
16.0552,19.378,-6.4584,-14.5597,-17.6097,15.9911,7.7195,8.4683,-2.2562,1637,2019-08-07 17:05:21:925
16.0552,19.378,-6.4584,-14.5597,-17.6097,15.9911,9.7168,7.517,-2.138,1643,2019-08-07 17:05:21:931
-2.7612,25.1113,-5.7749,-14.5597,-17.6097,15.9911,9.7168,7.517,-2.138,1648,2019-08-07 17:05:21:936
-2.7612,25.1113,-5.7749,4.5171,-14.96,16.0449,5.2065,0.4521,-1.2037,1653,2019-08-07 17:05:21:941
-2.7612,25.1113,-5.7749,4.5171,-14.96,16.0449,5.2065,0.4521,-1.2037,1658,2019-08-07 17:05:21:946
-5.0194,19.989,2.6346,4.5171,-14.96,16.0449,7.9443,3.8908,-0.947,1663,2019-08-07 17:05:21:951
-5.0194,19.989,2.6346,4.5171,-14.96,16.0449,7.9443,3.8908,-0.947,1668,2019-08-07 17:05:21:956
-5.0194,19.989,2.6346,3.863,-21.7101,11.9752,7.9443,3.8908,-0.947,1672,2019-08-07 17:05:21:960
-3.1487,23.851,-3.418,3.863,-21.7101,11.9752,6.9205,2.2599,-0.3153,1678,2019-08-07 17:05:21:966
-3.1487,23.851,-3.418,3.863,-21.7101,11.9752,7.14,1.1978,-0.4304,1683,2019-08-07 17:05:21:971
-7.3732,23.4405,5.8871,3.863,-21.7101,11.9752,7.14,1.1978,-0.4304,1688,2019-08-07 17:05:21:976
-7.3732,23.4405,5.8871,7.3664,-17.5654,2.799,7.14,1.1978,-0.4304,1692,2019-08-07 17:05:21:980
-7.3732,23.4405,5.8871,7.3664,-17.5654,2.799,7.663,0.7355,-0.0895,1698,2019-08-07 17:05:21:986
-6.4403,20.0606,3.3746,7.3664,-17.5654,2.799,7.663,0.7355,-0.0895,1703,2019-08-07 17:05:21:991
-6.4403,20.0606,3.3746,7.3664,-17.5654,2.799,7.4841,-0.8326,-0.1651,1707,2019-08-07 17:05:21:995
-6.5599,21.2732,7.6171,7.3664,-17.5654,2.799,7.4841,-0.8326,-0.1651,1713,2019-08-07 17:05:22:001
-6.5599,21.2732,7.6171,5.995,-14.1299,-0.9171,7.6715,-1.9948,-0.2865,1718,2019-08-07 17:05:22:006
-6.5599,21.2732,7.6171,5.995,-14.1299,-0.9171,7.6715,-1.9948,-0.2865,1722,2019-08-07 17:05:22:010
-3.1344,18.3373,5.8352,5.995,-14.1299,-0.9171,7.6715,-1.9948,-0.2865,1728,2019-08-07 17:05:22:016
-3.1344,18.3373,5.8352,5.995,-14.1299,-0.9171,7.7759,-3.0664,-0.636,1733,2019-08-07 17:05:22:021
-3.1344,18.5378,1.3713,1.5002,-10.3373,2.2836,7.7759,-3.0664,-0.636,1738,2019-08-07 17:05:22:026
-0.6944,18.5378,1.3713,1.5002,-10.3373,2.2836,7.3094,-2.9759,-1.0471,1742,2019-08-07 17:05:22:030
-0.6944,18.5378,1.3713,1.5002,-10.3373,2.2836,7.3094,-2.9759,-1.0471,1747,2019-08-07 17:05:22:035
1.3628,18.3755,-1.1695,1.5002,-10.3373,2.2836,7.3094,-2.9759,-1.0471,1753,2019-08-07 17:05:22:041
1.3628,18.3755,-1.1695,-2.2257,-9.4937,5.564,6.5796,-1.4675,-1.3092,1758,2019-08-07 17:05:22:046
1.3628,18.3755,-1.1695,-2.2257,-9.4937,5.564,6.5796,-1.4675,-1.3092,1763,2019-08-07 17:05:22:051
1.9082,18.4805,0.7915,-2.2257,-9.4937,5.564,6.0012,-0.1423,-1.42,1768,2019-08-07 17:05:22:056
1.9082,18.4805,0.7915,-2.2257,-9.4937,5.564,6.0012,-0.1423,-1.42,1772,2019-08-07 17:05:22:060
0.3247,18.2609,4.1383,-1.0626,-9.1682,-0.6808,5.6646,0.5267,-1.42,1778,2019-08-07 17:05:22:066
0.3247,18.2609,4.1383,-1.0626,-9.1682,-0.6808,5.6646,0.5267,-1.42,1783,2019-08-07 17:05:22:071
0.3247,18.2609,4.1383,-1.0626,-9.1682,-0.6808,5.5165,0.4873,-1.3316,1788,2019-08-07 17:05:22:076
-1.1441,17.4589,3.8696,-1.0626,-9.1682,-0.6808,5.5165,0.4873,-1.3316,1793,2019-08-07 17:05:22:081
-1.1441,17.4589,3.8696,0.6319,-7.8889,-1.5741,5.3471,0.3754,-1.2868,1798,2019-08-07 17:05:22:086
-1.1441,17.4589,3.8696,0.6319,-7.8889,-1.5741,5.3471,0.3754,-1.2868,1803,2019-08-07 17:05:22:091
-2.0483,17.4541,2.3187,0.6319,-7.8889,-1.5741,5.034,0.4628,-1.2432,1808,2019-08-07 17:05:22:096
-2.0483,17.4541,2.3187,0.6319,-7.8889,-1.5741,5.034,0.4628,-1.2432,1812,2019-08-07 17:05:22:100
-2.1392,17.9697,3.1672,1.2531,-8.1977,-1.8818,4.6899,0.5736,-1.1728,1818,2019-08-07 17:05:22:106
-2.1392,17.9697,3.1672,1.2531,-8.1977,-1.8818,4.6899,0.5736,-1.1728,1823,2019-08-07 17:05:22:111
-2.1392,17.9697,3.1672,1.2531,-8.1977,-1.8818,4.2925,0.4969,-1.0716,1828,2019-08-07 17:05:22:116
-1.723,17.5973,3.8036,1.2531,-8.1977,-1.8818,4.2925,0.4969,-1.0716,1832,2019-08-07 17:05:22:120
-1.723,17.5973,3.8036,0.2647,-7.3586,-3.5344,3.957,0.499,-0.9928,1838,2019-08-07 17:05:22:126
-1.723,17.5973,3.8036,0.2647,-7.3586,-3.5344,3.957,0.499,-0.9928,1843,2019-08-07 17:05:22:131
-1.5077,16.5757,3.1955,0.2647,-7.3586,-3.5344,3.5458,0.6769,-0.9065,1848,2019-08-07 17:05:22:136
-1.5077,16.5757,3.1955,0.2647,-7.3586,-3.5344,3.5458,0.6769,-0.9065,1853,2019-08-07 17:05:22:141
-2.1775,16.2463,3.5208,0.6029,-6.5008,-3.9753,3.5458,0.6769,-0.9065,1857,2019-08-07 17:05:22:145
-2.1775,16.2463,3.5208,0.6029,-6.5008,-3.9753,3.0174,0.9294,-0.7073,1863,2019-08-07 17:05:22:151
-2.1775,16.2463,3.5208,0.6029,-6.5008,-3.9753,3.0174,0.9294,-0.7073,1867,2019-08-07 17:05:22:155
-3.407,16.7571,5.1612,0.6029,-6.5008,-3.9753,2.6254,0.9273,-0.5198,1873,2019-08-07 17:05:22:161
-3.407,16.7571,5.1612,2.3052,-7.4169,-6.7671,2.6254,0.9273,-0.5198,1877,2019-08-07 17:05:22:165
-3.407,16.7571,5.1612,2.3052,-7.4169,-6.7671,2.3133,0.6471,-0.2908,1883,2019-08-07 17:05:22:171
-4.1821,17.5066,5.8588,2.3052,-7.4169,-6.7671,2.3133,0.6471,-0.2908,1887,2019-08-07 17:05:22:175
-4.1821,17.5066,5.8588,2.3052,-7.4169,-6.7671,2.0129,0.1528,-0.0724,1893,2019-08-07 17:05:22:181
-4.1821,17.5066,5.8588,2.5997,-8.0571,-6.8878,2.0129,0.1528,-0.0724,1898,2019-08-07 17:05:22:186
-4.1151,17.6069,5.1753,2.5997,-8.0571,-6.8878,1.639,-0.187,0.0362,1902,2019-08-07 17:05:22:190
-4.1151,17.6069,5.1753,2.5997,-8.0571,-6.8878,1.639,-0.187,0.0362,1908,2019-08-07 17:05:22:196
-3.2826,17.3348,5.8871,2.5997,-8.0571,-6.8878,1.2959,-0.4459,0.1289,1913,2019-08-07 17:05:22:201
-3.2826,17.3348,5.8871,1.2455,-7.5181,-8.0271,1.2959,-0.4459,0.1289,1918,2019-08-07 17:05:22:206
-3.2826,17.3348,5.8871,1.2455,-7.5181,-8.0271,0.97,-0.8965,0.1481,1923,2019-08-07 17:05:22:211
-1.8378,16.571,5.6986,1.2455,-7.5181,-8.0271,0.97,-0.8965,0.1481,1928,2019-08-07 17:05:22:216
-1.8378,16.571,5.6986,1.2455,-7.5181,-8.0271,0.97,-0.8965,0.1481,1932,2019-08-07 17:05:22:220
-1.8378,16.571,5.6986,-0.2183,-6.9204,-6.3591,0.6845,-1.068,0.1161,1938,2019-08-07 17:05:22:226
-1.0532,16.3609,3.9639,-0.2183,-6.9204,-6.3591,0.6845,-1.068,0.1161,1942,2019-08-07 17:05:22:230
-1.0532,16.3609,3.9639,-0.2183,-6.9204,-6.3591,0.3585,-0.9306,0.1119,1948,2019-08-07 17:05:22:236
-1.0532,16.3609,3.9639,-0.2183,-6.9204,-6.3591,0.3585,-0.9306,0.1119,1953,2019-08-07 17:05:22:241
-0.1107,15.936,4.3834,-1.6272,-6.2718,-6.4593,0.0656,-0.6994,0.1619,1957,2019-08-07 17:05:22:245
-0.1107,15.936,4.3834,-1.6272,-6.2718,-6.4593,0.0656,-0.6994,0.1619,1963,2019-08-07 17:05:22:251
0.3151,15.2677,4.473,-1.6272,-6.2718,-6.4593,-0.1848,-0.4427,0.261,1969,2019-08-07 17:05:22:257
0.3151,15.2677,4.473,-1.6272,-6.2718,-6.4593,-0.1848,-0.4427,0.261,1973,2019-08-07 17:05:22:261
0.3151,15.2677,4.473,-1.6898,-5.5585,-5.583,-0.5363,-0.0187,0.44,1978,2019-08-07 17:05:22:266
0.1429,15.5255,3.8413,-1.6898,-5.5585,-5.583,-0.5363,-0.0187,0.44,1983,2019-08-07 17:05:22:271
0.1429,15.5255,3.8413,-1.6898,-5.5585,-5.583,-0.5363,-0.0187,0.44,1988,2019-08-07 17:05:22:276
0.1429,15.5255,3.8413,-1.6898,-5.5585,-5.583,-0.9624,0.3382,0.6594,1993,2019-08-07 17:05:22:281
-0.0772,16.6187,4.2137,-1.6898,-5.5585,-5.583,-0.9624,0.3382,0.6594,1998,2019-08-07 17:05:22:286
-0.0772,16.6187,4.2137,-1.2362,-7.2616,-5.9191,-1.2596,0.4777,0.8022,2003,2019-08-07 17:05:22:291
-0.0772,16.6187,4.2137,-1.2362,-7.2616,-5.9191,-1.2596,0.4777,0.8022,2007,2019-08-07 17:05:22:295
-0.4695,17.7549,4.473,-1.2362,-7.2616,-5.9191,-1.4897,0.5331,0.8874,2013,2019-08-07 17:05:22:301
-0.4695,17.7549,4.473,-0.5014,-8.3566,-5.5774,-1.4897,0.5331,0.8874,2018,2019-08-07 17:05:22:306
-0.4695,17.7549,4.473,-0.5014,-8.3566,-5.5774,-1.6644,0.5246,0.9215,2023,2019-08-07 17:05:22:311
-0.7613,17.6642,3.8885,-0.5014,-8.3566,-5.5774,-1.6644,0.5246,0.9215,2027,2019-08-07 17:05:22:315
-0.7613,17.6642,3.8885,-0.5014,-8.3566,-5.5774,-1.7433,0.5203,0.9002,2033,2019-08-07 17:05:22:321
-0.7709,15.2438,4.0676,-0.2111,-5.5335,-5.058,-1.7433,0.5203,0.9002,2038,2019-08-07 17:05:22:326
-0.7709,15.2438,4.0676,-0.2111,-5.5335,-5.058,-1.7433,0.5203,0.9002,2043,2019-08-07 17:05:22:331
-0.7709,15.2438,4.0676,-0.2111,-5.5335,-5.058,-1.8455,0.6226,0.7809,2047,2019-08-07 17:05:22:335
-1.1632,13.3009,4.5767,-0.2111,-5.5335,-5.058,-1.8455,0.6226,0.7809,2052,2019-08-07 17:05:22:340
-1.1632,13.3009,4.5767,0.6535,-2.9956,-5.7211,-1.8221,0.6151,0.653,2058,2019-08-07 17:05:22:346
-1.1632,13.3009,4.5767,0.6535,-2.9956,-5.7211,-1.8221,0.6151,0.653,2063,2019-08-07 17:05:22:351
-1.5985,12.4702,4.9774,0.6535,-2.9956,-5.7211,-1.7188,0.4479,0.5785,2068,2019-08-07 17:05:22:356
-1.5985,12.4702,4.9774,0.6535,-2.9956,-5.7211,-1.7188,0.4479,0.5785,2073,2019-08-07 17:05:22:361
-2.1966,11.9642,3.2191,0.6535,-2.9956,-5.7211,-1.6208,0.2529,0.5412,2078,2019-08-07 17:05:22:366
-2.1966,11.9642,3.2191,1.5794,-2.1355,-3.0706,-1.6208,0.2529,0.5412,2083,2019-08-07 17:05:22:371
-2.1966,11.9642,3.2191,1.5794,-2.1355,-3.0706,-1.5824,0.2252,0.5231,2087,2019-08-07 17:05:22:375
-1.8904,11.4582,1.4609,1.5794,-2.1355,-3.0706,-1.5824,0.2252,0.5231,2093,2019-08-07 17:05:22:381
-1.8904,11.4582,1.4609,0.292,-1.539,-1.2115,-1.5867,0.4202,0.4538,2098,2019-08-07 17:05:22:386
-0.7852,11.4009,1.376,0.292,-1.539,-1.2115,-1.5867,0.4202,0.4538,2103,2019-08-07 17:05:22:391
-0.7852,11.4009,1.376,0.292,-1.539,-1.2115,-1.5867,0.4202,0.4538,2108,2019-08-07 17:05:22:396
-0.7852,11.4009,1.376,-0.1217,-2.0358,-1.1722,-1.5398,0.7206,0.278,2113,2019-08-07 17:05:22:401
-0.479,12.1647,1.3901,-0.1217,-2.0358,-1.1722,-1.5398,0.7206,0.278,2118,2019-08-07 17:05:22:406
-0.479,12.1647,1.3901,-0.1217,-2.0358,-1.1722,-1.3715,0.9912,0.1289,2123,2019-08-07 17:05:22:411
-0.2541,12.6373,0.1928,-0.1217,-2.0358,-1.1722,-1.3715,0.9912,0.1289,2128,2019-08-07 17:05:22:416
-0.2541,12.6373,0.1928,-0.4462,-3.0947,0.3808,-1.3608,1.1563,-0.0128,2133,2019-08-07 17:05:22:421
-0.2541,12.6373,0.1928,-0.4462,-3.0947,0.3808,-1.3608,1.1563,-0.0128,2138,2019-08-07 17:05:22:426
1.2529,11.7637,-4.1486,-0.4462,-3.0947,0.3808,-1.462,0.743,-0.0437,2143,2019-08-07 17:05:22:431
1.2529,11.7637,-4.1486,-0.4462,-3.0947,0.3808,-1.462,0.743,-0.0437,2148,2019-08-07 17:05:22:436
1.2529,11.7637,-4.1486,-2.5157,-5.4119,4.5714,-1.462,0.743,-0.0437,2152,2019-08-07 17:05:22:440
1.6357,16.7237,4.5908,-2.5157,-5.4119,4.5714,-1.5345,0.4117,0.1875,2158,2019-08-07 17:05:22:446
1.6357,16.7237,4.5908,-2.5157,-5.4119,4.5714,-1.5345,0.4117,0.1875,2163,2019-08-07 17:05:22:451
4.3531,7.7728,2.479,-2.5157,-5.4119,4.5714,-1.5952,1.3874,0.3942,2168,2019-08-07 17:05:22:456
4.3531,7.7728,2.479,-4.3885,1.3404,-0.5503,-1.5952,1.3874,0.3942,2173,2019-08-07 17:05:22:461
4.3531,7.7728,2.479,-4.3885,1.3404,-0.5503,-1.4258,1.4151,0.196,2178,2019-08-07 17:05:22:466
0.2865,13.0192,8.1592,-4.3885,1.3404,-0.5503,-1.4258,1.4151,0.196,2183,2019-08-07 17:05:22:471
0.2865,13.0192,8.1592,-4.3885,1.3404,-0.5503,-1.2458,0.8335,0.4847,2188,2019-08-07 17:05:22:476
0.2865,13.0192,8.1592,0.31,0.2088,-5.4629,-1.2458,0.8335,0.4847,2193,2019-08-07 17:05:22:481
-0.9957,8.8756,5.1989,0.31,0.2088,-5.4629,-1.3108,0.5011,0.5699,2198,2019-08-07 17:05:22:486
-0.9957,8.8756,5.1989,0.31,0.2088,-5.4629,-1.3108,0.5011,0.5699,2203,2019-08-07 17:05:22:491
-4.2202,10.513,6.3538,0.31,0.2088,-5.4629,-1.1222,0.4223,0.3388,2208,2019-08-07 17:05:22:496
-4.2202,10.513,6.3538,4.2873,-1.3899,-4.8617,-1.1222,0.4223,0.3388,2213,2019-08-07 17:05:22:501
-4.2202,10.513,6.3538,4.2873,-1.3899,-4.8617,-0.9262,-0.3947,0.3473,2218,2019-08-07 17:05:22:506
-5.311,13.0574,5.4865,4.2873,-1.3899,-4.8617,-0.9262,-0.3947,0.3473,2223,2019-08-07 17:05:22:511
-5.311,13.0574,5.4865,4.2873,-1.3899,-4.8617,-0.4394,-1.2501,0.4538,2228,2019-08-07 17:05:22:516
-4.2442,12.7853,4.8124,3.9243,-3.144,-3.0294,-0.4394,-1.2501,0.4538,2233,2019-08-07 17:05:22:521
-4.2442,12.7853,4.8124,3.9243,-3.144,-3.0294,0.0134,-1.9937,0.4112,2238,2019-08-07 17:05:22:526
-4.2442,12.7853,4.8124,3.9243,-3.144,-3.0294,0.0134,-1.9937,0.4112,2243,2019-08-07 17:05:22:531
-0.6512,11.0429,3.6339,3.9243,-3.144,-3.0294,0.0134,-1.9937,0.4112,2248,2019-08-07 17:05:22:536
-0.6512,11.0429,3.6339,-1.5308,-1.5344,0.4225,0.155,-1.9745,0.2994,2252,2019-08-07 17:05:22:540
3.1571,10.3411,-0.5189,-1.5308,-1.5344,0.4225,0.155,-1.9745,0.2994,2258,2019-08-07 17:05:22:546
3.1571,10.3411,-0.5189,-3.745,-0.3025,2.6583,0.1518,-0.9881,0.1918,2262,2019-08-07 17:05:22:550
3.1571,10.3411,-0.5189,-3.745,-0.3025,2.6583,0.1518,-0.9881,0.1918,2268,2019-08-07 17:05:22:556
4.3005,9.0999,-0.863,-3.745,-0.3025,2.6583,0.1518,-0.9881,0.1918,2272,2019-08-07 17:05:22:560
4.3005,9.0999,-0.863,-3.745,-0.3025,2.6583,0.0517,0.2093,0.1151,2278,2019-08-07 17:05:22:566
4.3005,9.0999,-0.863,-3.2878,0.6921,1.3343,0.0517,0.2093,0.1151,2283,2019-08-07 17:05:22:571
3.2384,8.9615,0.4097,-3.2878,0.6921,1.3343,-0.0378,0.6854,0.0735,2287,2019-08-07 17:05:22:575
3.2384,8.9615,0.4097,-3.2878,0.6921,1.3343,-0.0378,0.6854,0.0735,2293,2019-08-07 17:05:22:581
1.3726,9.4532,1.6447,-3.2878,0.6921,1.3343,-0.1123,0.842,0.016,2298,2019-08-07 17:05:22:586
1.3726,9.4532,1.6447,-1.0927,0.0069,-0.0705,-0.1123,0.842,0.016,2303,2019-08-07 17:05:22:591
1.3726,9.4532,1.6447,-1.0927,0.0069,-0.0705,-0.0047,0.645,-0.0021,2307,2019-08-07 17:05:22:595
0.8319,9.6776,2.1067,-1.0927,0.0069,-0.0705,-0.0047,0.645,-0.0021,2313,2019-08-07 17:05:22:601
0.8319,9.6776,2.1067,-1.0927,0.0069,-0.0705,0.089,0.3723,-0.0266,2318,2019-08-07 17:05:22:606
0.8319,9.6776,2.1067,-0.9238,0.4184,-1.2172,0.089,0.3723,-0.0266,2322,2019-08-07 17:05:22:610
0.942,9.2145,3.0023,-0.9238,0.4184,-1.2172,0.1732,-0.008,0.0043,2328,2019-08-07 17:05:22:616
0.942,9.2145,3.0023,-0.9238,0.4184,-1.2172,0.1732,-0.008,0.0043,2333,2019-08-07 17:05:22:621
1.2625,9.1381,1.4467,-1.3405,0.6307,-0.5267,0.1732,-0.008,0.0043,2337,2019-08-07 17:05:22:625
1.2625,9.1381,1.4467,-1.3405,0.6307,-0.5267,0.2136,-0.0112,-0.0011,2343,2019-08-07 17:05:22:631
1.2625,9.1381,1.4467,-1.3405,0.6307,-0.5267,0.2136,-0.0112,-0.0011,2347,2019-08-07 17:05:22:635
0.32,9.6775,0.5417,-0.0268,-0.2446,0.7487,0.1625,0.3808,-0.0351,2353,2019-08-07 17:05:22:641
0.32,9.6775,0.5417,-0.0268,-0.2446,0.7487,0.1625,0.3808,-0.0351,2357,2019-08-07 17:05:22:645
-0.2636,10.0356,1.5504,-0.0268,-0.2446,0.7487,0.1646,0.6673,-0.0458,2363,2019-08-07 17:05:22:651
-0.2636,10.0356,1.5504,-0.0268,-0.2446,0.7487,0.1646,0.6673,-0.0458,2367,2019-08-07 17:05:22:655
-0.2636,10.0356,1.5504,0.5968,-0.5962,0.3992,0.2371,0.7802,-0.1236,2373,2019-08-07 17:05:22:661
-0.6846,10.2409,1.1592,0.5968,-0.5962,0.3992,0.2371,0.7802,-0.1236,2377,2019-08-07 17:05:22:665
-0.6846,10.2409,1.1592,0.6635,-0.482,0.9412,0.2584,0.825,-0.1427,2383,2019-08-07 17:05:22:671
-0.8186,10.0547,0.3956,0.6635,-0.482,0.9412,0.2584,0.825,-0.1427,2388,2019-08-07 17:05:22:676
-0.8186,10.0547,0.3956,0.6635,-0.482,0.9412,0.2584,0.825,-0.1427,2393,2019-08-07 17:05:22:681
-0.8186,10.0547,0.3956,0.6635,-0.482,0.9412,0.2424,0.9049,-0.1023,2398,2019-08-07 17:05:22:686
-1.1965,9.8971,0.603,1.1617,-0.2725,0.7777,0.2424,0.9049,-0.1023,2403,2019-08-07 17:05:22:691
-1.1965,9.8971,0.603,1.1617,-0.2725,0.7777,0.2019,0.8122,-0.0607,2407,2019-08-07 17:05:22:695
-1.5697,10.26,1.8615,1.1617,-0.2725,0.7777,0.2019,0.8122,-0.0607,2413,2019-08-07 17:05:22:701
-1.5697,10.26,1.8615,1.1617,-0.2725,0.7777,0.2328,0.4298,-0.0277,2418,2019-08-07 17:05:22:706
-1.5697,10.26,1.8615,1.1617,-0.2725,0.7777,0.2328,0.4298,-0.0277,2422,2019-08-07 17:05:22:710
-0.8138,10.2027,1.7296,0.8446,-0.5953,-0.385,0.3127,-0.0784,-0.0042,2428,2019-08-07 17:05:22:716
-0.8138,10.2027,1.7296,0.8446,-0.5953,-0.385,0.3127,-0.0784,-0.0042,2432,2019-08-07 17:05:22:720
-0.8138,10.2027,1.7296,0.8446,-0.5953,-0.385,0.3031,-0.3543,-0.0085,2437,2019-08-07 17:05:22:725
0.8846,9.9687,-0.5236,0.8446,-0.5953,-0.385,0.3031,-0.3543,-0.0085,2443,2019-08-07 17:05:22:731
0.8846,9.9687,-0.5236,-1.2849,-0.2935,2.4555,0.3031,-0.3543,-0.0085,2448,2019-08-07 17:05:22:736
0.8846,9.9687,-0.5236,-1.2849,-0.2935,2.4555,0.1881,-0.089,-0.0351,2453,2019-08-07 17:05:22:741
1.4061,10.4748,-2.1829,-1.2849,-0.2935,2.4555,0.1881,-0.089,-0.0351,2458,2019-08-07 17:05:22:746
1.4061,10.4748,-2.1829,-1.2849,-0.2935,2.4555,0.0421,0.3392,-0.0873,2462,2019-08-07 17:05:22:750
0.0617,10.6944,-1.0422,-0.5895,-0.9878,2.8806,0.0421,0.3392,-0.0873,2467,2019-08-07 17:05:22:755
0.0617,10.6944,-1.0422,-0.5895,-0.9878,2.8806,-0.0814,0.6482,-0.1214,2473,2019-08-07 17:05:22:761
0.0617,10.6944,-1.0422,-0.5895,-0.9878,2.8806,-0.0814,0.6482,-0.1214,2478,2019-08-07 17:05:22:766
-0.9142,10.1454,0.504,-0.5895,-0.9878,2.8806,-0.0814,0.6482,-0.1214,2482,2019-08-07 17:05:22:770
-0.9142,10.1454,0.504,1.0994,-0.2873,0.7466,-0.1113,0.5075,-0.1044,2488,2019-08-07 17:05:22:776
-0.9142,10.1454,0.504,1.0994,-0.2873,0.7466,-0.1113,0.5075,-0.1044,2493,2019-08-07 17:05:22:781
-1.5218,9.6775,1.0649,1.0994,-0.2873,0.7466,-0.1017,0.2583,-0.0596,2497,2019-08-07 17:05:22:785
-1.5218,9.6775,1.0649,1.0994,-0.2873,0.7466,-0.1017,0.2583,-0.0596,2503,2019-08-07 17:05:22:791
-1.6032,10.1454,1.0932,1.3294,-0.2856,0.2722,-0.1049,-0.0421,-0.0106,2508,2019-08-07 17:05:22:796
-1.6032,10.1454,1.0932,1.3294,-0.2856,0.2722,-0.1049,-0.0421,-0.0106,2514,2019-08-07 17:05:22:802
-1.6032,10.1454,1.0932,1.3294,-0.2856,0.2722,-0.0985,-0.2222,0.0394,2518,2019-08-07 17:05:22:806
-1.0291,10.1692,0.7868,1.3294,-0.2856,0.2722,-0.0985,-0.2222,0.0394,2523,2019-08-07 17:05:22:811
-1.0291,10.1692,0.7868,0.6486,-0.474,0.8159,-0.091,-0.2861,0.0416,2528,2019-08-07 17:05:22:816
-0.8425,10.2313,0.5605,0.6486,-0.474,0.8159,-0.091,-0.2861,0.0416,2533,2019-08-07 17:05:22:821
-0.8425,10.2313,0.5605,0.6486,-0.474,0.8159,-0.1038,-0.2754,0.0543,2537,2019-08-07 17:05:22:825
-0.8425,10.2313,0.5605,0.6486,-0.474,0.8159,-0.1038,-0.2754,0.0543,2543,2019-08-07 17:05:22:831
-0.5745,10.2027,0.6548,0.3761,-0.4614,0.7782,-0.0996,-0.2499,0.0618,2548,2019-08-07 17:05:22:836
-0.5745,10.2027,0.6548,0.3761,-0.4614,0.7782,-0.0996,-0.2499,0.0618,2553,2019-08-07 17:05:22:841
-0.5985,9.6203,1.4232,0.3761,-0.4614,0.7782,-0.0921,-0.2147,0.0671,2558,2019-08-07 17:05:22:846
-0.5985,9.6203,1.4232,0.3761,-0.4614,0.7782,-0.0921,-0.2147,0.0671,2563,2019-08-07 17:05:22:851
-0.5985,9.6203,1.4232,-0.0047,-0.0386,0.2433,-0.0846,-0.3202,0.0629,2568,2019-08-07 17:05:22:856
-0.1535,9.8208,0.9235,-0.0047,-0.0386,0.2433,-0.0846,-0.3202,0.0629,2573,2019-08-07 17:05:22:861
-0.1535,9.8208,0.9235,-0.0047,-0.0386,0.2433,-0.0846,-0.3202,0.0629,2578,2019-08-07 17:05:22:866
0.0426,9.668,0.5181,-0.0047,-0.0386,0.2433,-0.0633,-0.3287,0.0639,2583,2019-08-07 17:05:22:871
0.0426,9.668,0.5181,-0.3309,0.0511,0.9229,-0.0633,-0.3287,0.0639,2587,2019-08-07 17:05:22:875
0.0426,9.668,0.5181,-0.3309,0.0511,0.9229,-0.1017,-0.219,0.049,2593,2019-08-07 17:05:22:881
0.0426,9.668,0.5181,-0.3309,0.0511,0.9229,-0.1017,-0.219,0.049,2598,2019-08-07 17:05:22:886
0.0713,9.7539,1.343,-0.3309,0.0511,0.9229,-0.0996,-0.2307,0.0565,2603,2019-08-07 17:05:22:891
0.0713,9.7539,1.343,-0.1049,-0.0655,0.2513,-0.0996,-0.2307,0.0565,2608,2019-08-07 17:05:22:896
-0.1392,9.8017,1.0366,-0.1049,-0.0655,0.2513,-0.0772,-0.2765,0.0661,2613,2019-08-07 17:05:22:901
-0.1392,9.8017,1.0366,-0.1049,-0.0655,0.2513,-0.0772,-0.2765,0.0661,2617,2019-08-07 17:05:22:905
-0.2062,9.8255,1.1215,-0.1049,-0.0655,0.2513,-0.0719,-0.3479,0.0426,2623,2019-08-07 17:05:22:911
-0.2062,9.8255,1.1215,-0.0361,-0.1865,0.3444,-0.0719,-0.3479,0.0426,2628,2019-08-07 17:05:22:916
-0.2062,9.8255,1.1215,-0.0361,-0.1865,0.3444,-0.0495,-0.3756,0.0234,2633,2019-08-07 17:05:22:921
0.0282,9.8733,1.3713,-0.0361,-0.1865,0.3444,-0.0495,-0.3756,0.0234,2637,2019-08-07 17:05:22:925
0.0282,9.8733,1.3713,-0.0361,-0.1865,0.3444,-0.0292,-0.3457,0.0085,2643,2019-08-07 17:05:22:931
0.0282,9.8733,1.3713,-0.2198,-0.259,0.3478,-0.0292,-0.3457,0.0085,2648,2019-08-07 17:05:22:936
0.2005,9.9878,1.1498,-0.2198,-0.259,0.3478,-0.0292,-0.3457,0.0085,2652,2019-08-07 17:05:22:940
0.2005,9.9878,1.1498,-0.2198,-0.259,0.3478,-0.0282,-0.2754,-0.0042,2658,2019-08-07 17:05:22:946
0.5976,9.6919,0.8104,-0.2198,-0.259,0.3478,-0.0282,-0.2754,-0.0042,2662,2019-08-07 17:05:22:950
0.5976,9.6919,0.8104,-0.5203,-0.0871,0.7868,-0.0133,-0.1508,-0.0479,2668,2019-08-07 17:05:22:956
0.5976,9.6919,0.8104,-0.5203,-0.0871,0.7868,-0.0133,-0.1508,-0.0479,2673,2019-08-07 17:05:22:961
0.0426,9.8351,0.7444,-0.5203,-0.0871,0.7868,-0.0207,0.0218,-0.0501,2678,2019-08-07 17:05:22:966
0.0426,9.8351,0.7444,-0.5203,-0.0871,0.7868,-0.0207,0.0218,-0.0501,2682,2019-08-07 17:05:22:970
-0.144,9.9401,1.0932,-0.0209,-0.2494,0.4234,-0.0463,0.0655,-0.0437,2688,2019-08-07 17:05:22:976
-0.144,9.9401,1.0932,-0.0209,-0.2494,0.4234,-0.0463,0.0655,-0.0437,2693,2019-08-07 17:05:22:981
-0.144,9.9401,1.0932,-0.0209,-0.2494,0.4234,-0.0133,0.0346,-0.0511,2697,2019-08-07 17:05:22:985
-0.3497,9.9878,1.2865,-0.0209,-0.2494,0.4234,-0.0133,0.0346,-0.0511,2703,2019-08-07 17:05:22:991
-0.3497,9.9878,1.2865,-0.1221,-0.1155,0.5054,0.0304,-0.0357,-0.0437,2708,2019-08-07 17:05:22:996
0.0904,9.8064,0.7821,-0.1221,-0.1155,0.5054,0.0304,-0.0357,-0.0437,2713,2019-08-07 17:05:23:001
0.0904,9.8064,0.7821,-0.1221,-0.1155,0.5054,0.0283,0.0037,-0.0607,2718,2019-08-07 17:05:23:006
0.0904,9.8064,0.7821,-0.1221,-0.1155,0.5054,0.0283,0.0037,-0.0607,2722,2019-08-07 17:05:23:010
-0.1249,9.9831,0.4804,-0.0614,-0.2904,1.021,0.0059,0.1347,-0.0618,2728,2019-08-07 17:05:23:016
-0.1249,9.9831,0.4804,-0.0614,-0.2904,1.021,0.0059,0.1347,-0.0618,2733,2019-08-07 17:05:23:021
-0.1249,9.9831,0.4804,-0.0614,-0.2904,1.021,-0.0175,0.2338,-0.049,2738,2019-08-07 17:05:23:026
-0.498,9.9115,1.0178,-0.0614,-0.2904,1.021,-0.0175,0.2338,-0.049,2742,2019-08-07 17:05:23:030
-0.498,9.9115,1.0178,0.6378,-0.1901,0.1699,-0.0079,0.1603,-0.0405,2748,2019-08-07 17:05:23:036
-0.919,9.921,1.1781,0.6378,-0.1901,0.1699,-0.0079,0.1603,-0.0405,2753,2019-08-07 17:05:23:041
-0.919,9.921,1.1781,0.6378,-0.1901,0.1699,-0.0079,0.1603,-0.0405,2758,2019-08-07 17:05:23:046
-0.919,9.921,1.1781,0.6378,-0.1901,0.1699,0.0038,0.0399,-0.017,2763,2019-08-07 17:05:23:051
-0.8425,9.8828,1.1168,0.5739,-0.2423,0.3877,0.0038,0.0399,-0.017,2768,2019-08-07 17:05:23:056
-0.8425,9.8828,1.1168,0.5739,-0.2423,0.3877,0.0283,-0.0869,0.0032,2773,2019-08-07 17:05:23:061
-0.5793,9.878,1.0319,0.5739,-0.2423,0.3877,0.0283,-0.0869,0.0032,2778,2019-08-07 17:05:23:066
-0.5793,9.878,1.0319,0.5739,-0.2423,0.3877,0.0283,-0.0869,0.0032,2782,2019-08-07 17:05:23:070
-0.5793,9.878,1.0319,0.1697,-0.174,0.6093,0.0315,-0.1039,0.0213,2788,2019-08-07 17:05:23:076
-0.3353,9.8399,0.7915,0.1697,-0.174,0.6093,0.0315,-0.1039,0.0213,2792,2019-08-07 17:05:23:080
-0.3353,9.8399,0.7915,0.1697,-0.174,0.6093,0.0261,-0.0762,0.0298,2798,2019-08-07 17:05:23:086
-0.3353,9.8399,0.7915,0.1683,-0.1493,0.5901,0.0261,-0.0762,0.0298,2803,2019-08-07 17:05:23:091
-0.254,9.8637,1.0979,0.1683,-0.1493,0.5901,0.0261,-0.0762,0.0298,2807,2019-08-07 17:05:23:095
-0.254,9.8637,1.0979,0.1683,-0.1493,0.5901,0.0325,-0.0794,0.0405,2813,2019-08-07 17:05:23:101
-0.2779,9.8303,0.735,0.0772,-0.1333,0.7361,0.0325,-0.0794,0.0405,2818,2019-08-07 17:05:23:106
-0.2779,9.8303,0.735,0.0772,-0.1333,0.7361,0.0293,-0.0847,0.0469,2822,2019-08-07 17:05:23:110
-0.2779,9.8303,0.735,0.0772,-0.1333,0.7361,0.0293,-0.0847,0.0469,2828,2019-08-07 17:05:23:116
-0.1583,9.9258,0.7208,-0.0368,-0.2278,0.7445,0.0198,-0.0443,0.0416,2833,2019-08-07 17:05:23:121
-0.1583,9.9258,0.7208,-0.0368,-0.2278,0.7445,0.0198,-0.0443,0.0416,2838,2019-08-07 17:05:23:126
-0.1583,9.9258,0.7208,-0.0368,-0.2278,0.7445,0.0198,-0.0443,0.0416,2842,2019-08-07 17:05:23:130
-0.1774,9.9162,0.8858,-0.0368,-0.2278,0.7445,0.0198,-0.0262,0.0405,2848,2019-08-07 17:05:23:136
-0.1774,9.9162,0.8858,-0.0134,-0.1785,0.6601,0.0198,-0.0262,0.0405,2853,2019-08-07 17:05:23:141
-0.144,9.8303,0.7962,-0.0134,-0.1785,0.6601,0.0187,-0.0272,0.033,2858,2019-08-07 17:05:23:146
-0.144,9.8303,0.7962,-0.0134,-0.1785,0.6601,0.0187,-0.0272,0.033,2863,2019-08-07 17:05:23:151
-0.144,9.8303,0.7962,-0.0134,-0.1785,0.6601,0.0208,-0.0187,0.0352,2867,2019-08-07 17:05:23:155
-0.1057,9.8685,0.9848,-0.0726,-0.1676,0.4631,0.0208,-0.0187,0.0352,2873,2019-08-07 17:05:23:161
-0.1057,9.8685,0.9848,-0.0726,-0.1676,0.4631,0.0208,-0.0187,0.0352,2878,2019-08-07 17:05:23:166
-0.1583,9.8112,0.9282,-0.016,-0.1096,0.5158,0.0219,-0.0251,0.0362,2882,2019-08-07 17:05:23:170
-0.1583,9.8112,0.9282,-0.016,-0.1096,0.5158,0.0219,-0.0251,0.0362,2888,2019-08-07 17:05:23:176
-0.1296,9.921,1.0131,-0.016,-0.1096,0.5158,0.0261,-0.04,0.0384,2893,2019-08-07 17:05:23:181
-0.1296,9.921,1.0131,-0.016,-0.1096,0.5158,0.0261,-0.04,0.0384,2898,2019-08-07 17:05:23:186
-0.1296,9.921,1.0131,-0.0216,-0.2753,0.3562,0.0336,-0.0592,0.0373,2903,2019-08-07 17:05:23:191
-0.1009,9.8828,0.8528,-0.0216,-0.2753,0.3562,0.0336,-0.0592,0.0373,2907,2019-08-07 17:05:23:195
-0.1009,9.8828,0.8528,-0.0216,-0.2753,0.3562,0.0411,-0.0677,0.033,2913,2019-08-07 17:05:23:201
-0.1009,9.8828,0.8528,-0.0216,-0.2753,0.3562,0.0411,-0.0677,0.033,2918,2019-08-07 17:05:23:206
-0.1918,9.964,0.7255,0.0349,-0.259,0.6975,0.0379,-0.0294,0.0309,2922,2019-08-07 17:05:23:210
-0.1918,9.964,0.7255,0.0349,-0.259,0.6975,0.0379,-0.0294,0.0309,2928,2019-08-07 17:05:23:216
-0.2061,9.8637,1.0225,0.0349,-0.259,0.6975,0.0357,0.0026,0.0341,2933,2019-08-07 17:05:23:221
-0.2061,9.8637,1.0225,0.0349,-0.259,0.6975,0.0357,0.0026,0.0341,2938,2019-08-07 17:05:23:226
-0.2061,9.8637,1.0225,0.0315,-0.1857,0.2339,0.0357,0.0026,0.0341,2942,2019-08-07 17:05:23:230
-0.1918,9.8589,1.1545,0.0315,-0.1857,0.2339,0.0485,-0.0389,0.0309,2948,2019-08-07 17:05:23:236
-0.1918,9.8589,1.1545,0.0315,-0.1857,0.2339,0.0485,-0.0389,0.0309,2953,2019-08-07 17:05:23:241
-1.029,10.0833,0.7962,0.0315,-0.1857,0.2339,0.0592,-0.0847,0.032,2958,2019-08-07 17:05:23:246
-1.029,10.0833,0.7962,0.9237,-0.2938,-1.4363,0.0592,-0.0847,0.032,2962,2019-08-07 17:05:23:250
-1.029,10.0833,0.7962,0.9237,-0.2938,-1.4363,-0.0665,-0.7303,0.0565,2968,2019-08-07 17:05:23:256
-0.3257,9.8971,-1.4711,0.9237,-0.2938,-1.4363,-0.0665,-0.7303,0.0565,2972,2019-08-07 17:05:23:260
-0.3257,9.8971,-1.4711,0.9237,-0.2938,-1.4363,0.0751,-0.1945,0.0405,2978,2019-08-07 17:05:23:266
-0.3257,9.8971,-1.4711,-0.6133,-0.3529,0.6425,0.0751,-0.1945,0.0405,2982,2019-08-07 17:05:23:270
0.6072,9.8112,0.8481,-0.6133,-0.3529,0.6425,-0.0271,-0.0283,-0.0138,2988,2019-08-07 17:05:23:276
0.6072,9.8112,0.8481,-0.6133,-0.3529,0.6425,-0.0271,-0.0283,-0.0138,2993,2019-08-07 17:05:23:281
-0.0913,10.2886,0.174,-0.6133,-0.3529,0.6425,-0.0271,-0.0283,-0.0138,2998,2019-08-07 17:05:23:286
-0.0913,10.2886,0.174,-0.0075,-0.4283,0.867,0.0475,0.2189,0.0053,3002,2019-08-07 17:05:23:290
-0.0913,10.2886,0.174,-0.0075,-0.4283,0.867,0.0475,0.2189,0.0053,3008,2019-08-07 17:05:23:296
-0.0817,9.8398,0.7208,-0.0075,-0.4283,0.867,-0.0133,0.2444,0.0032,3012,2019-08-07 17:05:23:300
-0.0817,9.8398,0.7208,-0.0075,-0.4283,0.867,-0.0133,0.2444,0.0032,3018,2019-08-07 17:05:23:306
-0.5171,9.9449,1.1074,0.386,-0.2319,0.263,0.0592,0.3105,0.016,3023,2019-08-07 17:05:23:311
-0.5171,9.9449,1.1074,0.386,-0.2319,0.263,0.0592,0.3105,0.016,3028,2019-08-07 17:05:23:316
-0.5171,9.9449,1.1074,0.386,-0.2319,0.263,0.0506,0.3446,0.0362,3033,2019-08-07 17:05:23:321
-0.12,9.9878,0.3531,0.386,-0.2319,0.263,0.0506,0.3446,0.0362,3037,2019-08-07 17:05:23:325
-0.12,9.9878,0.3531,0.5341,-0.316,-0.0522,-0.0388,0.1283,0.0192,3043,2019-08-07 17:05:23:331
-0.6415,9.816,1.8616,0.5341,-0.316,-0.0522,-0.0388,0.1283,0.0192,3048,2019-08-07 17:05:23:336
-0.6415,9.816,1.8616,0.5341,-0.316,-0.0522,-0.0388,0.1283,0.0192,3052,2019-08-07 17:05:23:340
-0.6415,9.816,1.8616,0.5341,-0.316,-0.0522,0.0847,-0.1135,0.0416,3058,2019-08-07 17:05:23:346
-0.431,9.9401,0.8952,0.1468,-0.2864,0.6013,0.0847,-0.1135,0.0416,3062,2019-08-07 17:05:23:350
-0.431,9.9401,0.8952,0.1468,-0.2864,0.6013,0.0549,-0.1902,0.0458,3068,2019-08-07 17:05:23:356
0.258,9.8112,0.4521,0.1468,-0.2864,0.6013,0.0549,-0.1902,0.0458,3072,2019-08-07 17:05:23:360