ACCELEROMETER X (m/s²),ACCELEROMETER Y (m/s²),ACCELEROMETER Z (m/s²),LINEAR ACCELERATION X (m/s²),LINEAR ACCELERATION Y (m/s²),LINEAR ACCELERATION Z (m/s²),GYROSCOPE X (rad/s),GYROSCOPE Y (rad/s),GYROSCOPE Z (rad/s),Time since start in ms ,YYYY-MO-DD HH-MI-SS_SSS
-0.6045,9.9498,-0.4862,0.4195,-0.0995,0.0879,0.1135,-0.0634,0.0533,3,2019-08-07 17:04:27:994
-0.6045,9.9498,-0.4862,0.4195,-0.0995,0.0879,0.1135,-0.0634,0.0533,7,2019-08-07 17:04:27:998
-0.3031,9.9211,-0.3589,0.4195,-0.0995,0.0879,0.1337,-0.1156,0.0607,13,2019-08-07 17:04:28:004
-0.3031,9.9211,-0.3589,0.4195,-0.0995,0.0879,0.1337,-0.1156,0.0607,17,2019-08-07 17:04:28:008
-0.1739,9.9068,-0.538,0.1329,-0.1001,0.2873,0.138,-0.0986,0.0671,23,2019-08-07 17:04:28:014
-0.1739,9.9068,-0.538,0.1329,-0.1001,0.2873,0.138,-0.0986,0.0671,27,2019-08-07 17:04:28:018
-0.1739,9.9068,-0.538,0.1329,-0.1001,0.2873,0.138,-0.0986,0.0671,33,2019-08-07 17:04:28:024
0.0892,9.902,-0.3825,0.1329,-0.1001,0.2873,0.1465,-0.057,0.0639,37,2019-08-07 17:04:28:028
0.0892,9.902,-0.3825,-0.1842,-0.1295,0.384,0.1465,-0.057,0.0639,43,2019-08-07 17:04:28:034
0.0605,9.9211,-0.7926,-0.1842,-0.1295,0.384,0.1636,-0.0858,0.0533,48,2019-08-07 17:04:28:039
0.0605,9.9211,-0.7926,-0.1842,-0.1295,0.384,0.1636,-0.0858,0.0533,53,2019-08-07 17:04:28:044
-0.2074,9.8638,-0.9151,-0.1842,-0.1295,0.384,0.1508,-0.0283,0.049,58,2019-08-07 17:04:28:049
-0.2074,9.8638,-0.9151,-0.1842,-0.1295,0.384,0.1508,-0.0283,0.049,62,2019-08-07 17:04:28:053
-0.2074,9.8638,-0.9151,0.1358,-0.0542,0.4237,0.1465,-0.0304,0.0522,68,2019-08-07 17:04:28:059
-0.2122,9.8829,-0.4956,0.1358,-0.0542,0.4237,0.1465,-0.0304,0.0522,73,2019-08-07 17:04:28:064
-0.2122,9.8829,-0.4956,0.1358,-0.0542,0.4237,0.1668,-0.0997,0.0575,78,2019-08-07 17:04:28:069
-0.2361,9.8638,-0.5098,0.2259,-0.0601,0.1605,0.1668,-0.0997,0.0575,83,2019-08-07 17:04:28:074
-0.2361,9.8638,-0.5098,0.2259,-0.0601,0.1605,0.1668,-0.0997,0.0575,88,2019-08-07 17:04:28:079
-0.2361,9.8638,-0.5098,0.2259,-0.0601,0.1605,0.1891,-0.1369,0.0575,93,2019-08-07 17:04:28:084
-0.1117,9.8018,-0.2976,0.2259,-0.0601,0.1605,0.1891,-0.1369,0.0575,98,2019-08-07 17:04:28:089
-0.1117,9.8018,-0.2976,0.2259,-0.0601,0.1605,0.2104,-0.1391,0.0586,103,2019-08-07 17:04:28:094
-0.1117,9.8018,-0.2976,-0.0276,-0.0472,-0.1944,0.2104,-0.1391,0.0586,107,2019-08-07 17:04:28:098
0.137,9.84,-0.1185,-0.0276,-0.0472,-0.1944,0.2467,-0.1391,0.0522,113,2019-08-07 17:04:28:104
0.137,9.84,-0.1185,-0.0276,-0.0472,-0.1944,0.2818,-0.1391,0.0341,118,2019-08-07 17:04:28:109
0.3093,9.8782,-0.5522,-0.0276,-0.0472,-0.1944,0.2818,-0.1391,0.0341,123,2019-08-07 17:04:28:114
0.3093,9.8782,-0.5522,-0.3243,-0.0732,0.1883,0.2818,-0.1391,0.0341,128,2019-08-07 17:04:28:119
0.3093,9.8782,-0.5522,-0.3243,-0.0732,0.1883,0.3074,-0.0975,0.0181,132,2019-08-07 17:04:28:123
0.4528,9.8543,-0.6889,-0.3243,-0.0732,0.1883,0.3074,-0.0975,0.0181,138,2019-08-07 17:04:28:129
0.4528,9.8543,-0.6889,-0.3243,-0.0732,0.1883,0.3202,-0.0432,0.0085,142,2019-08-07 17:04:28:133
0.3284,9.8495,-1.0094,-0.3762,-0.0381,0.4117,0.3202,-0.0432,0.0085,148,2019-08-07 17:04:28:139
0.3284,9.8495,-1.0094,-0.3762,-0.0381,0.4117,0.3266,-0.008,-0.0117,152,2019-08-07 17:04:28:143
0.3284,9.8495,-1.0094,-0.3762,-0.0381,0.4117,0.3266,-0.008,-0.0117,158,2019-08-07 17:04:28:149
-0.0592,9.9164,-0.934,-0.3762,-0.0381,0.4117,0.3255,0.0207,-0.0106,163,2019-08-07 17:04:28:154
-0.0592,9.9164,-0.934,0.1195,-0.0944,0.2023,0.3255,0.0207,-0.0106,167,2019-08-07 17:04:28:158
-0.0161,9.8973,-0.6465,0.1195,-0.0944,0.2023,0.3383,-0.0048,-0.0128,173,2019-08-07 17:04:28:164
-0.0161,9.8973,-0.6465,0.1195,-0.0944,0.2023,0.3383,-0.0048,-0.0128,179,2019-08-07 17:04:28:170
-0.0161,9.8973,-0.6465,0.1195,-0.0944,0.2023,0.3596,-0.0592,-0.0213,182,2019-08-07 17:04:28:173
0.0939,9.9164,-1.1697,-0.0848,-0.1274,0.5278,0.3596,-0.0592,-0.0213,188,2019-08-07 17:04:28:179
0.0939,9.9164,-1.1697,-0.0848,-0.1274,0.5278,0.3543,-0.0528,-0.0341,193,2019-08-07 17:04:28:184
0.1705,9.9307,-1.6976,-0.1641,-0.1444,1.0166,0.3543,-0.0528,-0.0341,197,2019-08-07 17:04:28:188
0.1705,9.9307,-1.6976,-0.1641,-0.1444,1.0166,0.3223,0.025,-0.0511,203,2019-08-07 17:04:28:194
0.1705,9.9307,-1.6976,-0.1641,-0.1444,1.0166,0.3223,0.025,-0.0511,208,2019-08-07 17:04:28:199
-0.1262,9.9164,-1.5562,-0.1641,-0.1444,1.0166,0.2935,0.0878,-0.0575,213,2019-08-07 17:04:28:204
-0.1262,9.9164,-1.5562,0.2618,-0.1161,0.72,0.2935,0.0878,-0.0575,217,2019-08-07 17:04:28:208
-0.1262,9.9164,-1.5562,0.2618,-0.1161,0.72,0.2935,0.0878,-0.0575,223,2019-08-07 17:04:28:214
-0.5807,9.8973,-1.2216,0.2618,-0.1161,0.72,0.2776,0.091,-0.0533,227,2019-08-07 17:04:28:218
-0.5807,9.8973,-1.2216,0.2618,-0.1161,0.72,0.2776,0.091,-0.0533,233,2019-08-07 17:04:28:224
-0.4515,9.8782,-1.0283,0.4309,-0.1494,0.1994,0.285,0.0378,-0.0394,238,2019-08-07 17:04:28:229
-0.4515,9.8782,-1.0283,0.4309,-0.1494,0.1994,0.285,0.0378,-0.0394,242,2019-08-07 17:04:28:233
-0.4515,9.8782,-1.0283,0.4309,-0.1494,0.1994,0.2935,-0.008,-0.0351,248,2019-08-07 17:04:28:239
-0.1166,9.8782,-1.2074,0.4309,-0.1494,0.1994,0.2935,-0.008,-0.0351,252,2019-08-07 17:04:28:243
-0.1166,9.8782,-1.2074,-0.1234,0.0029,0.6147,0.2935,-0.008,-0.0351,258,2019-08-07 17:04:28:249
0.1226,9.8066,-1.6269,-0.1234,0.0029,0.6147,0.2989,-0.0059,-0.0479,262,2019-08-07 17:04:28:253
0.1226,9.8066,-1.6269,-0.1234,0.0029,0.6147,0.2744,0.0356,-0.0511,268,2019-08-07 17:04:28:259
0.1226,9.8066,-1.6269,-0.1234,0.0029,0.6147,0.2744,0.0356,-0.0511,273,2019-08-07 17:04:28:264
0.1226,9.8257,-1.6175,-0.1123,-0.0935,0.6992,0.252,0.075,-0.0596,279,2019-08-07 17:04:28:270
0.1226,9.8257,-1.6175,-0.1123,-0.0935,0.6992,0.252,0.075,-0.0596,283,2019-08-07 17:04:28:274
-0.1549,9.84,-1.7872,-0.1123,-0.0935,0.6992,0.252,0.075,-0.0596,287,2019-08-07 17:04:28:278
-0.1549,9.84,-1.7872,-0.1123,-0.0935,0.6992,0.2222,0.075,-0.0639,293,2019-08-07 17:04:28:284
-0.1549,9.84,-1.7872,0.3925,-0.113,0.6517,0.2222,0.075,-0.0639,298,2019-08-07 17:04:28:289
-0.3702,9.8495,-1.6411,0.3925,-0.113,0.6517,0.1923,0.0772,-0.0522,303,2019-08-07 17:04:28:294
-0.3702,9.8495,-1.6411,0.3925,-0.113,0.6517,0.1923,0.0772,-0.0522,307,2019-08-07 17:04:28:298
-0.3702,9.8734,-1.528,0.3925,-0.113,0.6517,0.1806,0.0367,-0.0501,313,2019-08-07 17:04:28:304
-0.3702,9.8734,-1.528,0.2855,-0.0982,0.5355,0.1806,0.0367,-0.0501,318,2019-08-07 17:04:28:309
-0.3702,9.8734,-1.528,0.2855,-0.0982,0.5355,0.1678,-0.0059,-0.0415,322,2019-08-07 17:04:28:313
-0.1023,9.8448,-1.4431,0.2855,-0.0982,0.5355,0.1678,-0.0059,-0.0415,328,2019-08-07 17:04:28:319
-0.1023,9.8448,-1.4431,0.2855,-0.0982,0.5355,0.1689,0.0047,-0.049,333,2019-08-07 17:04:28:324
0.2469,9.84,-1.6458,-0.3113,-0.0879,0.5832,0.1689,0.0047,-0.049,338,2019-08-07 17:04:28:329
0.2469,9.84,-1.6458,-0.3113,-0.0879,0.5832,0.1689,0.0047,-0.049,343,2019-08-07 17:04:28:334
0.2469,9.84,-1.6458,-0.3113,-0.0879,0.5832,0.1487,0.0569,-0.0639,348,2019-08-07 17:04:28:339
0.0077,9.8448,-2.1078,-0.3113,-0.0879,0.5832,0.1487,0.0569,-0.0639,353,2019-08-07 17:04:28:344
0.0077,9.8448,-2.1078,0.2902,-0.1348,0.9918,0.0869,0.1475,-0.0746,357,2019-08-07 17:04:28:348
0.0077,9.8448,-2.1078,0.2902,-0.1348,0.9918,0.0869,0.1475,-0.0746,363,2019-08-07 17:04:28:354
-0.7051,9.9307,-1.6222,0.2902,-0.1348,0.9918,0.0464,0.1081,-0.0522,368,2019-08-07 17:04:28:359
-0.7051,9.9307,-1.6222,0.2902,-0.1348,0.9918,0.0464,0.1081,-0.0522,372,2019-08-07 17:04:28:363
-0.82,9.7541,-1.4667,0.731,-0.0077,0.355,0.0368,-0.0176,-0.033,379,2019-08-07 17:04:28:370
-0.82,9.7541,-1.4667,0.731,-0.0077,0.355,0.0368,-0.0176,-0.033,383,2019-08-07 17:04:28:374
-0.82,9.7541,-1.4667,0.731,-0.0077,0.355,0.0347,-0.0922,-0.0138,388,2019-08-07 17:04:28:379
-0.5951,9.8114,-1.8721,0.731,-0.0077,0.355,0.0347,-0.0922,-0.0138,393,2019-08-07 17:04:28:384
-0.5951,9.8114,-1.8721,0.2241,-0.0425,0.7396,0.0347,-0.0922,-0.0138,398,2019-08-07 17:04:28:389
-0.1741,9.7302,-1.6364,0.2241,-0.0425,0.7396,0.0208,-0.0933,-0.0011,402,2019-08-07 17:04:28:393
-0.1741,9.7302,-1.6364,0.2241,-0.0425,0.7396,0.0208,-0.0933,-0.0011,408,2019-08-07 17:04:28:399
-0.1741,9.7302,-1.6364,0.2241,-0.0425,0.7396,0.0293,-0.0602,0.0,412,2019-08-07 17:04:28:403
0.1177,9.7588,-0.9529,-0.2263,-0.0718,-0.195,0.0293,-0.0602,0.0,418,2019-08-07 17:04:28:409
0.1177,9.7588,-0.9529,-0.2263,-0.0718,-0.195,0.0581,-0.0698,0.0021,422,2019-08-07 17:04:28:413
0.1177,9.7588,-0.9529,-0.2263,-0.0718,-0.195,0.0581,-0.0698,0.0021,428,2019-08-07 17:04:28:419
0.1225,9.8639,-1.3818,-0.2214,-0.1202,0.2468,0.0698,-0.0624,-0.0117,432,2019-08-07 17:04:28:423
0.1225,9.8639,-1.3818,-0.2214,-0.1202,0.2468,0.0698,-0.0624,-0.0117,438,2019-08-07 17:04:28:429
0.1225,9.8639,-1.3818,-0.2214,-0.1202,0.2468,0.0634,0.0111,-0.0298,443,2019-08-07 17:04:28:434
0.0459,9.9068,-1.8155,-0.2214,-0.1202,0.2468,0.0634,0.0111,-0.0298,448,2019-08-07 17:04:28:439
0.0459,9.9068,-1.8155,-0.1486,-0.1271,0.7853,0.0379,0.0228,-0.0351,453,2019-08-07 17:04:28:444
0.0459,9.9068,-1.8155,-0.1486,-0.1271,0.7853,0.0379,0.0228,-0.0351,458,2019-08-07 17:04:28:449
-0.4516,9.7254,-2.301,-0.1486,-0.1271,0.7853,0.0016,0.0303,-0.0373,462,2019-08-07 17:04:28:453
-0.4516,9.7254,-2.301,0.5883,-0.0904,0.6848,0.0016,0.0303,-0.0373,468,2019-08-07 17:04:28:459
-0.6334,9.8448,-1.6741,0.5883,-0.0904,0.6848,0.0016,0.0303,-0.0373,473,2019-08-07 17:04:28:464
-0.6334,9.8448,-1.6741,0.5883,-0.0904,0.6848,-0.0303,-0.008,-0.0085,478,2019-08-07 17:04:28:469
-0.6334,9.8448,-1.6741,0.5372,-0.1475,0.3984,-0.0303,-0.008,-0.0085,482,2019-08-07 17:04:28:473
-0.6813,9.8591,-1.7825,0.5372,-0.1475,0.3984,-0.0442,-0.072,0.0085,488,2019-08-07 17:04:28:479
-0.6813,9.8591,-1.7825,0.5372,-0.1475,0.3984,-0.0442,-0.072,0.0085,492,2019-08-07 17:04:28:483
-0.6478,9.8639,-1.7307,0.5372,-0.1475,0.3984,-0.0655,-0.0656,0.017,498,2019-08-07 17:04:28:489
-0.6478,9.8639,-1.7307,0.4763,-0.1231,0.3427,-0.0655,-0.0656,0.017,503,2019-08-07 17:04:28:494
-0.6478,9.8639,-1.7307,0.4763,-0.1231,0.3427,-0.0729,-0.057,0.0256,508,2019-08-07 17:04:28:499
-0.2029,9.9402,-0.7879,0.4763,-0.1231,0.3427,-0.0729,-0.057,0.0256,512,2019-08-07 17:04:28:503
-0.2029,9.9402,-0.7879,0.4763,-0.1231,0.3427,-0.0516,-0.1124,0.0288,518,2019-08-07 17:04:28:509
-0.2029,9.9402,-0.7879,-0.1857,-0.1166,0.1681,-0.0516,-0.1124,0.0288,523,2019-08-07 17:04:28:514
-0.0067,9.8543,-1.5468,-0.1857,-0.1166,0.1681,-0.0367,-0.1124,0.0043,529,2019-08-07 17:04:28:520
-0.0067,9.8543,-1.5468,-0.1857,-0.1166,0.1681,-0.0367,-0.1124,0.0043,533,2019-08-07 17:04:28:524
0.2229,9.7684,-1.2075,-0.1857,-0.1166,0.1681,-0.0505,-0.0453,0.0032,538,2019-08-07 17:04:28:529
0.2229,9.7684,-1.2075,-0.3522,-0.0012,-0.0133,-0.0505,-0.0453,0.0032,542,2019-08-07 17:04:28:533
0.2229,9.7684,-1.2075,-0.3522,-0.0012,-0.0133,-0.0431,-0.023,-0.0181,548,2019-08-07 17:04:28:539
0.3425,9.797,-1.5704,-0.3522,-0.0012,-0.0133,-0.0431,-0.023,-0.0181,552,2019-08-07 17:04:28:543
0.3425,9.797,-1.5704,-0.3522,-0.0012,-0.0133,-0.0399,-0.056,-0.0501,558,2019-08-07 17:04:28:549
0.2133,9.7445,-2.0088,-0.3417,0.0232,0.9433,-0.0399,-0.056,-0.0501,562,2019-08-07 17:04:28:553
0.2133,9.7445,-2.0088,-0.3417,0.0232,0.9433,-0.0665,-0.0315,-0.065,568,2019-08-07 17:04:28:559
0.2133,9.7445,-2.0088,-0.3417,0.0232,0.9433,-0.0665,-0.0315,-0.065,573,2019-08-07 17:04:28:564
-0.0211,9.797,-2.1455,-0.3417,0.0232,0.9433,-0.1123,-0.0123,-0.0746,578,2019-08-07 17:04:28:569
-0.0211,9.797,-2.1455,-0.0049,-0.0762,0.9623,-0.1123,-0.0123,-0.0746,583,2019-08-07 17:04:28:574
-0.2795,9.84,-1.7873,-0.0049,-0.0762,0.9623,-0.1432,-0.0475,-0.0767,588,2019-08-07 17:04:28:579
-0.2795,9.84,-1.7873,-0.0049,-0.0762,0.9623,-0.1432,-0.0475,-0.0767,593,2019-08-07 17:04:28:584
-0.2795,9.84,-1.7873,-0.0049,-0.0762,0.9623,-0.1656,-0.1306,-0.0778,598,2019-08-07 17:04:28:589
-0.1168,9.9784,-1.8297,-0.032,-0.2311,0.7325,-0.1656,-0.1306,-0.0778,602,2019-08-07 17:04:28:593
-0.1168,9.9784,-1.8297,-0.032,-0.2311,0.7325,-0.1741,-0.1881,-0.0969,608,2019-08-07 17:04:28:599
0.0363,10.0644,-1.2546,-0.032,-0.2311,0.7325,-0.1741,-0.1881,-0.0969,613,2019-08-07 17:04:28:604
0.0363,10.0644,-1.2546,-0.032,-0.2311,0.7325,-0.1741,-0.1881,-0.0969,618,2019-08-07 17:04:28:609
0.0363,10.0644,-1.2546,-0.3403,-0.2518,-0.1543,-0.156,-0.171,-0.1065,622,2019-08-07 17:04:28:613
0.1607,9.9307,-0.8681,-0.3403,-0.2518,-0.1543,-0.1432,-0.1551,-0.1363,628,2019-08-07 17:04:28:619
0.1607,9.9307,-0.8681,-0.3403,-0.2518,-0.1543,-0.1432,-0.1551,-0.1363,633,2019-08-07 17:04:28:624
0.1607,9.9307,-0.8681,-0.3403,-0.2518,-0.1543,-0.0996,-0.1007,-0.1822,638,2019-08-07 17:04:28:629
0.0028,10.3508,-0.392,-0.2033,-0.5977,-0.6438,-0.0996,-0.1007,-0.1822,642,2019-08-07 17:04:28:633
0.0028,10.3508,-0.392,-0.2033,-0.5977,-0.6438,-0.0996,-0.1007,-0.1822,648,2019-08-07 17:04:28:639
0.0028,10.3508,-0.392,-0.2033,-0.5977,-0.6438,-0.041,-0.04,-0.2109,652,2019-08-07 17:04:28:643
-0.1264,10.3269,-0.5287,-0.2033,-0.5977,-0.6438,-0.041,-0.04,-0.2109,658,2019-08-07 17:04:28:649
-0.1264,10.3269,-0.5287,0.0068,-0.7787,-0.612,0.0123,-0.0112,-0.2642,663,2019-08-07 17:04:28:654
-0.3704,10.685,-0.095,0.0068,-0.7787,-0.612,0.0123,-0.0112,-0.2642,668,2019-08-07 17:04:28:659
-0.3704,10.685,-0.095,0.0068,-0.7787,-0.612,0.0123,-0.0112,-0.2642,672,2019-08-07 17:04:28:663
-0.3704,10.685,-0.095,0.0068,-0.7787,-0.612,0.106,5.0E-4,-0.2844,678,2019-08-07 17:04:28:669
-0.3417,10.9332,0.0605,0.0417,-1.3109,-1.1093,0.106,5.0E-4,-0.2844,683,2019-08-07 17:04:28:674
-0.3417,10.9332,0.0605,0.0417,-1.3109,-1.1093,0.1806,-0.0496,-0.3185,687,2019-08-07 17:04:28:678
-0.4996,11.7161,0.103,0.0417,-1.3109,-1.1093,0.1806,-0.0496,-0.3185,693,2019-08-07 17:04:28:684
-0.4996,11.7161,0.103,0.0417,-1.3109,-1.1093,0.2584,-0.0347,-0.359,698,2019-08-07 17:04:28:689
-0.4996,11.7161,0.103,0.1064,-3.0502,-0.8963,0.2584,-0.0347,-0.359,702,2019-08-07 17:04:28:693
-0.3991,13.2437,-0.26,0.1064,-3.0502,-0.8963,0.3202,0.0516,-0.425,708,2019-08-07 17:04:28:699
-0.3991,13.2437,-0.26,0.1064,-3.0502,-0.8963,0.3202,0.0516,-0.425,712,2019-08-07 17:04:28:703
-0.1264,14.8334,-0.3307,-0.1538,-4.9835,-0.5805,0.2839,0.303,-0.5348,718,2019-08-07 17:04:28:709
-0.1264,14.8334,-0.3307,-0.1538,-4.9835,-0.5805,0.2839,0.303,-0.5348,722,2019-08-07 17:04:28:713
-0.1264,14.8334,-0.3307,-0.1538,-4.9835,-0.5805,0.2019,0.7739,-0.6136,729,2019-08-07 17:04:28:720
0.1415,12.8857,3.3602,-0.1538,-4.9835,-0.5805,0.2019,0.7739,-0.6136,732,2019-08-07 17:04:28:723
0.1415,12.8857,3.3602,-0.8101,-2.6819,-5.7469,0.4853,0.6993,-0.6562,738,2019-08-07 17:04:28:729
0.1415,12.8857,3.3602,-0.8101,-2.6819,-5.7469,0.4853,0.6993,-0.6562,742,2019-08-07 17:04:28:733
0.2132,11.6111,8.9178,-0.8101,-2.6819,-5.7469,1.1255,-0.7697,-0.5795,748,2019-08-07 17:04:28:739
0.2132,11.6111,8.9178,-1.2752,-1.6114,-10.5537,1.1255,-0.7697,-0.5795,752,2019-08-07 17:04:28:743
0.8208,11.6206,7.4329,-1.2752,-1.6114,-10.5537,1.7913,-2.57,-0.5433,758,2019-08-07 17:04:28:749
0.8208,11.6206,7.4329,-1.2752,-1.6114,-10.5537,1.7913,-2.57,-0.5433,762,2019-08-07 17:04:28:753
0.8208,11.6206,7.4329,-1.2752,-1.6114,-10.5537,2.3037,-2.6147,-0.6019,768,2019-08-07 17:04:28:759
0.7825,12.3367,-0.425,-1.2752,-1.6114,-10.5537,2.3037,-2.6147,-0.6019,773,2019-08-07 17:04:28:764
0.7825,12.3367,-0.425,-1.768,-2.696,1.143,2.1876,-0.8911,-0.6115,778,2019-08-07 17:04:28:769
0.7825,12.3367,-0.425,-1.768,-2.696,1.143,2.1876,-0.8911,-0.6115,783,2019-08-07 17:04:28:774
1.1222,14.9432,-2.8809,-1.768,-2.696,1.143,2.1876,-0.8911,-0.6115,787,2019-08-07 17:04:28:778
1.1222,14.9432,-2.8809,-1.768,-2.696,1.143,2.0406,0.3339,-0.6029,793,2019-08-07 17:04:28:784
0.6486,16.1462,3.7514,-1.7408,-6.7472,-5.2191,2.1876,0.5555,-0.7404,798,2019-08-07 17:04:28:789
0.6486,16.1462,3.7514,-1.7408,-6.7472,-5.2191,2.1876,0.5555,-0.7404,802,2019-08-07 17:04:28:793
0.6486,16.1462,3.7514,-1.7408,-6.7472,-5.2191,2.1876,0.5555,-0.7404,808,2019-08-07 17:04:28:799
-0.8728,17.0819,-0.2883,-1.7408,-6.7472,-5.2191,2.6083,0.0601,-0.8724,812,2019-08-07 17:04:28:803
-0.8728,17.0819,-0.2883,0.4715,-9.3242,0.4034,2.9279,-0.3021,-0.8703,818,2019-08-07 17:04:28:809
-1.3321,20.7005,-6.2937,0.4715,-9.3242,0.4034,2.9279,-0.3021,-0.8703,823,2019-08-07 17:04:28:814
-1.3321,20.7005,-6.2937,0.4715,-9.3242,0.4034,2.9279,-0.3021,-0.8703,828,2019-08-07 17:04:28:819
-1.3321,20.7005,-6.2937,0.4715,-9.3242,0.4034,3.4286,0.1262,-0.7372,833,2019-08-07 17:04:28:824
0.8399,22.5861,-11.3987,-2.041,-13.3189,8.4134,3.4286,0.1262,-0.7372,837,2019-08-07 17:04:28:828
0.8399,22.5861,-11.3987,-2.041,-13.3189,8.4134,3.9506,1.2106,-0.767,843,2019-08-07 17:04:28:834
1.1987,25.3645,-12.8742,-2.041,-13.3189,8.4134,3.9506,1.2106,-0.767,847,2019-08-07 17:04:28:838
1.1987,25.3645,-12.8742,-2.041,-13.3189,8.4134,3.7279,1.4961,-0.9609,853,2019-08-07 17:04:28:844
1.1987,25.3645,-12.8742,-2.4926,-16.3164,4.8973,3.7279,1.4961,-0.9609,857,2019-08-07 17:04:28:848
-0.2748,24.7296,-5.8412,-2.4926,-16.3164,4.8973,3.9303,1.9393,-1.191,864,2019-08-07 17:04:28:855
-0.2748,24.7296,-5.8412,-2.4926,-16.3164,4.8973,3.9303,1.9393,-1.191,868,2019-08-07 17:04:28:859
-0.2748,24.7296,-5.8412,-2.4926,-16.3164,4.8973,4.1775,1.8583,-1.3433,873,2019-08-07 17:04:28:864
-3.4803,25.5507,-7.0196,2.1712,-16.9242,2.5356,4.1775,1.8583,-1.3433,878,2019-08-07 17:04:28:869
-3.4803,25.5507,-7.0196,2.1712,-16.9242,2.5356,4.3011,0.972,-1.3934,883,2019-08-07 17:04:28:874
-5.2265,26.9303,-2.7348,2.1712,-16.9242,2.5356,4.3011,0.972,-1.3934,887,2019-08-07 17:04:28:878
-5.2265,26.9303,-2.7348,2.1712,-16.9242,2.5356,4.6089,-0.6856,-1.2804,893,2019-08-07 17:04:28:884
-5.2265,26.9303,-2.7348,3.0226,-17.7065,-6.0101,4.6089,-0.6856,-1.2804,898,2019-08-07 17:04:28:889
-3.6903,24.7486,0.664,3.0226,-17.7065,-6.0101,4.9679,-2.455,-1.2762,903,2019-08-07 17:04:28:894
-3.6903,24.7486,0.664,3.0226,-17.7065,-6.0101,4.9679,-2.455,-1.2762,908,2019-08-07 17:04:28:899
-3.6903,24.7486,0.664,3.0226,-17.7065,-6.0101,4.9679,-2.455,-1.2762,912,2019-08-07 17:04:28:903
-1.1547,22.1707,-5.2047,-1.546,-14.0989,0.2422,4.9051,-3.3125,-1.2208,918,2019-08-07 17:04:28:909
-1.1547,22.1707,-5.2047,-1.546,-14.0989,0.2422,4.9051,-3.3125,-1.2208,922,2019-08-07 17:04:28:913
1.869,20.2374,-10.6821,-1.546,-14.0989,0.2422,4.2563,-1.4302,-1.2016,928,2019-08-07 17:04:28:919
1.869,20.2374,-10.6821,-1.546,-14.0989,0.2422,4.2563,-1.4302,-1.2016,933,2019-08-07 17:04:28:924
2.9598,18.9627,-6.0155,-5.6623,-12.1038,1.561,3.337,0.3009,-1.1004,937,2019-08-07 17:04:28:928
2.9598,18.9627,-6.0155,-5.6623,-12.1038,1.561,3.337,0.3009,-1.1004,943,2019-08-07 17:04:28:934
2.9598,18.9627,-6.0155,-5.6623,-12.1038,1.561,2.6776,1.3044,-0.8661,948,2019-08-07 17:04:28:939
1.1657,16.7143,0.136,-5.6623,-12.1038,1.561,2.6776,1.3044,-0.8661,953,2019-08-07 17:04:28:944
1.1657,16.7143,0.136,-2.5053,-9.8004,-7.7211,2.0139,1.4567,-0.5976,957,2019-08-07 17:04:28:948
-0.8389,16.318,0.9845,-2.5053,-9.8004,-7.7211,2.0139,1.4567,-0.5976,963,2019-08-07 17:04:28:954
-0.8389,16.318,0.9845,-2.5053,-9.8004,-7.7211,1.2981,1.461,-0.2312,967,2019-08-07 17:04:28:958
-0.8389,16.318,0.9845,-2.5053,-9.8004,-7.7211,1.2981,1.461,-0.2312,973,2019-08-07 17:04:28:964
-0.2361,15.6211,0.5791,-1.8675,-9.1245,-7.6223,1.2981,1.6751,0.0927,978,2019-08-07 17:04:28:969
-0.2361,15.6211,0.5791,-1.8675,-9.1245,-7.6223,0.0869,1.6751,0.0927,983,2019-08-07 17:04:28:974
0.5342,15.9409,3.7751,-1.8675,-9.1245,-7.6223,0.0869,1.6751,0.0927,988,2019-08-07 17:04:28:979
0.5342,15.9409,3.7751,-1.8675,-9.1245,-7.6223,-1.0913,1.7209,0.3899,993,2019-08-07 17:04:28:984
0.5342,15.9409,3.7751,-3.1169,-8.9782,-11.2415,-1.0913,1.7209,0.3899,998,2019-08-07 17:04:28:989
1.4001,15.0864,2.9879,-3.1169,-8.9782,-11.2415,-2.0522,1.3672,0.555,1003,2019-08-07 17:04:28:994
1.4001,15.0864,2.9879,-3.1169,-8.9782,-11.2415,-2.0522,1.3672,0.555,1008,2019-08-07 17:04:28:999
1.4001,15.0864,2.9879,-3.1169,-8.9782,-11.2415,-3.2048,1.2309,0.5902,1013,2019-08-07 17:04:29:004
-0.6523,15.3919,0.4189,-0.767,-8.3399,-7.1802,-3.2048,1.2309,0.5902,1018,2019-08-07 17:04:29:009
-0.6523,15.3919,0.4189,-0.767,-8.3399,-7.1802,-3.2048,1.2309,0.5902,1023,2019-08-07 17:04:29:014
-0.3844,15.1294,1.833,-0.767,-8.3399,-7.1802,-4.7856,1.4066,0.8085,1028,2019-08-07 17:04:29:019
-0.3844,15.1294,1.833,-0.767,-8.3399,-7.1802,-4.7856,1.4066,0.8085,1032,2019-08-07 17:04:29:023
-0.3844,15.1294,1.833,-0.2507,-7.9865,-8.179,-5.6421,1.3874,0.8767,1038,2019-08-07 17:04:29:029
-1.1977,15.855,1.932,-0.2507,-7.9865,-8.179,-5.6421,1.3874,0.8767,1044,2019-08-07 17:04:29:035
-1.1977,15.855,1.932,-0.2507,-7.9865,-8.179,-7.0472,1.1456,0.8746,1048,2019-08-07 17:04:29:039
-2.6856,16.7095,0.2492,-0.2507,-7.9865,-8.179,-7.0472,1.1456,0.8746,1053,2019-08-07 17:04:29:044
-2.6856,16.7095,0.2492,1.775,-8.5859,-4.8191,-8.2755,0.8506,0.947,1057,2019-08-07 17:04:29:048
-2.6856,16.7095,0.2492,1.775,-8.5859,-4.8191,-8.2755,0.8506,0.947,1062,2019-08-07 17:04:29:053
-2.0302,16.91,0.5791,1.775,-8.5859,-4.8191,-9.0914,0.4937,0.996,1068,2019-08-07 17:04:29:059
-2.0302,16.91,0.5791,1.775,-8.5859,-4.8191,-9.0914,0.4937,0.996,1073,2019-08-07 17:04:29:064
-1.59,15.0052,2.4128,0.832,-5.7195,-5.4848,-9.7093,0.2231,0.9108,1078,2019-08-07 17:04:29:069
-1.59,15.0052,2.4128,0.832,-5.7195,-5.4848,-9.7093,0.2231,0.9108,1083,2019-08-07 17:04:29:074
-1.59,15.0052,2.4128,0.832,-5.7195,-5.4848,-9.7093,0.2231,0.9108,1087,2019-08-07 17:04:29:078
-1.8484,13.0957,5.1751,0.832,-5.7195,-5.4848,-10.2323,-0.2147,0.8991,1093,2019-08-07 17:04:29:084
-1.8484,13.0957,5.1751,1.8928,-3.1751,-7.7115,-10.2323,-0.2147,0.8991,1098,2019-08-07 17:04:29:089
-1.8484,13.0957,5.1751,1.8928,-3.1751,-7.7115,-10.7692,-0.7953,0.9928,1102,2019-08-07 17:04:29:093
-2.8627,12.795,7.3199,1.8928,-3.1751,-7.7115,-11.3423,-1.2991,1.1803,1108,2019-08-07 17:04:29:099
-2.8627,12.795,7.3199,1.8928,-3.1751,-7.7115,-11.3423,-1.2991,1.1803,1112,2019-08-07 17:04:29:103
-3.7334,13.511,9.9266,1.8928,-3.1751,-7.7115,-11.3423,-1.2991,1.1803,1117,2019-08-07 17:04:29:108
-3.7334,13.511,9.9266,3.4272,-4.1096,-8.9261,-11.9197,-1.7764,1.4477,1123,2019-08-07 17:04:29:114
-3.7334,13.511,9.9266,3.4272,-4.1096,-8.9261,-11.9197,-1.7764,1.4477,1127,2019-08-07 17:04:29:118
-4.2118,15.0434,8.7906,3.4272,-4.1096,-8.9261,-12.3511,-2.2696,1.7907,1133,2019-08-07 17:04:29:124
-4.2118,15.0434,8.7906,3.4272,-4.1096,-8.9261,-12.3511,-2.2696,1.7907,1137,2019-08-07 17:04:29:128
-4.2118,15.0434,8.7906,3.5613,-5.4414,-2.5699,-12.8646,-2.5668,2.2988,1143,2019-08-07 17:04:29:134
-3.3506,14.5661,5.2458,3.5613,-5.4414,-2.5699,-12.8646,-2.5668,2.2988,1148,2019-08-07 17:04:29:139
-3.3506,14.5661,5.2458,3.5613,-5.4414,-2.5699,-13.3482,-2.3165,2.7026,1152,2019-08-07 17:04:29:143
-3.7334,17.7502,0.8667,3.5613,-5.4414,-2.5699,-13.3482,-2.3165,2.7026,1158,2019-08-07 17:04:29:149
-3.7334,17.7502,0.8667,4.5621,-10.8134,6.3313,-13.7914,-2.1247,3.1127,1162,2019-08-07 17:04:29:153
-3.7334,17.7502,0.8667,4.5621,-10.8134,6.3313,-13.7914,-2.1247,3.1127,1168,2019-08-07 17:04:29:159
-3.0205,21.0394,-4.3279,4.5621,-10.8134,6.3313,-14.2399,-2.0129,3.4419,1173,2019-08-07 17:04:29:164
-3.0205,21.0394,-4.3279,4.5621,-10.8134,6.3313,-14.2399,-2.0129,3.4419,1178,2019-08-07 17:04:29:169
-2.9009,27.7561,-4.5165,4.1328,-19.8632,11.8166,-14.5882,-2.1833,3.8232,1183,2019-08-07 17:04:29:174
-2.9009,27.7561,-4.5165,4.1328,-19.8632,11.8166,-14.5882,-2.1833,3.8232,1188,2019-08-07 17:04:29:179
-2.9009,27.7561,-4.5165,4.1328,-19.8632,11.8166,-14.5882,-2.1833,3.8232,1193,2019-08-07 17:04:29:184
-0.083,46.5506,-8.3582,4.1328,-19.8632,11.8166,-13.9448,-2.5988,4.2067,1197,2019-08-07 17:04:29:188
-0.083,46.5506,-8.3582,0.3558,-54.3484,18.33,-13.9448,-2.5988,4.2067,1202,2019-08-07 17:04:29:193
5.7585,75.5039,-11.0828,0.3558,-54.3484,18.33,-11.8728,-2.0065,4.244,1208,2019-08-07 17:04:29:199
5.7585,75.5039,-11.0828,0.3558,-54.3484,18.33,-11.8728,-2.0065,4.244,1212,2019-08-07 17:04:29:203
5.7585,75.5039,-11.0828,0.3558,-54.3484,18.33,-8.1966,1.2873,3.4461,1218,2019-08-07 17:04:29:209
2.4191,73.327,-41.732,0.1035,-72.0559,51.1265,-8.1966,1.2873,3.4461,1223,2019-08-07 17:04:29:214
2.4191,73.327,-41.732,0.1035,-72.0559,51.1265,-4.7398,10.8108,1.8578,1228,2019-08-07 17:04:29:219
-1.5757,27.6463,-97.1381,0.1035,-72.0559,51.1265,-4.7398,10.8108,1.8578,1233,2019-08-07 17:04:29:224
-1.5757,27.6463,-97.1381,0.1035,-72.0559,51.1265,-4.7398,10.8108,1.8578,1238,2019-08-07 17:04:29:229
-1.5757,27.6463,-97.1381,-0.4908,-10.9715,108.4929,-8.3532,14.2484,0.9822,1242,2019-08-07 17:04:29:233
-0.4849,4.8275,-87.2532,-0.4908,-10.9715,108.4929,-8.3532,14.2484,0.9822,1248,2019-08-07 17:04:29:239
-0.4849,4.8275,-87.2532,-0.4908,-10.9715,108.4929,-11.7653,9.1948,0.1001,1252,2019-08-07 17:04:29:243
-0.4849,4.8275,-87.2532,-0.4908,-10.9715,108.4929,-11.7653,9.1948,0.1001,1258,2019-08-07 17:04:29:249
-20.5069,-21.2949,-37.9562,18.9568,19.2414,47.4228,-12.4523,5.004,-0.3206,1262,2019-08-07 17:04:29:253
-20.5069,-21.2949,-37.9562,18.9568,19.2414,47.4228,-12.4523,5.004,-0.3206,1268,2019-08-07 17:04:29:259
-20.5069,-21.2949,-37.9562,18.9568,19.2414,47.4228,-8.9657,-0.6717,-0.2546,1273,2019-08-07 17:04:29:264
-20.5069,-21.2949,-37.9562,18.9568,19.2414,47.4228,-8.9657,-0.6717,-0.2546,1277,2019-08-07 17:04:29:268
-8.1636,-29.6825,94.5819,0.9473,24.8984,1.822,8.2809,-5.1437,-0.8969,1283,2019-08-07 17:04:29:274
-8.1636,-29.6825,94.5819,0.9473,24.8984,1.822,8.2809,-5.1437,-0.8969,1288,2019-08-07 17:04:29:279
-6.7235,-18.5643,-33.9212,0.9473,24.8984,1.822,8.2809,-5.1437,-0.8969,1293,2019-08-07 17:04:29:284
-6.7235,-18.5643,-33.9212,0.9473,24.8984,1.822,12.706,-9.2087,-1.2144,1297,2019-08-07 17:04:29:288
-7.2594,-1.4406,-56.227,7.5232,4.7774,64.6321,12.706,-9.2087,-1.2144,1303,2019-08-07 17:04:29:294
-7.2594,-1.4406,-56.227,7.5232,4.7774,64.6321,14.5191,-8.3906,-1.7619,1307,2019-08-07 17:04:29:298
-7.2594,-1.4406,-56.227,7.5232,4.7774,64.6321,14.5191,-8.3906,-1.7619,1313,2019-08-07 17:04:29:304
-20.8753,63.8987,-41.9064,7.5232,4.7774,64.6321,5.215,-15.0602,-0.5103,1318,2019-08-07 17:04:29:309
-20.8753,63.8987,-41.9064,6.3766,-30.2752,56.5373,5.215,-15.0602,-0.5103,1322,2019-08-07 17:04:29:313
-20.8753,63.8987,-41.9064,6.3766,-30.2752,56.5373,5.215,-15.0602,-0.5103,1328,2019-08-07 17:04:29:319
21.6326,17.1344,-34.2276,-27.5133,-17.491,24.9844,1.7338,-8.0646,-0.0426,1332,2019-08-07 17:04:29:323
21.6326,17.1344,-34.2276,-27.5133,-17.491,24.9844,1.7338,-8.0646,-0.0426,1338,2019-08-07 17:04:29:329
24.0008,21.4451,-1.2357,-27.5133,-17.491,24.9844,7.532,12.3969,-3.2309,1342,2019-08-07 17:04:29:333
24.0008,21.4451,-1.2357,-27.5133,-17.491,24.9844,7.532,12.3969,-3.2309,1348,2019-08-07 17:04:29:339
-7.7139,27.1594,1.2202,6.0696,-34.1932,6.1883,8.5397,8.5513,-3.052,1353,2019-08-07 17:04:29:344
-7.7139,27.1594,1.2202,6.0696,-34.1932,6.1883,8.5397,8.5513,-3.052,1358,2019-08-07 17:04:29:349
-7.7139,27.1594,1.2202,6.0696,-34.1932,6.1883,5.3205,2.0756,-1.3859,1362,2019-08-07 17:04:29:353
-9.1827,16.1653,-2.2916,6.0696,-34.1932,6.1883,5.3205,2.0756,-1.3859,1368,2019-08-07 17:04:29:359
-9.1827,16.1653,-2.2916,7.0594,-16.6291,16.4767,8.0838,5.5537,-0.8139,1373,2019-08-07 17:04:29:364
-9.1827,16.1653,-2.2916,7.0594,-16.6291,16.4767,8.0838,5.5537,-0.8139,1379,2019-08-07 17:04:29:370
-8.178,24.0803,-6.0909,7.0594,-16.6291,16.4767,6.4944,3.8557,-0.6008,1383,2019-08-07 17:04:29:374
-8.178,24.0803,-6.0909,7.0594,-16.6291,16.4767,6.4944,3.8557,-0.6008,1388,2019-08-07 17:04:29:379
-8.178,24.0803,-6.0909,4.6304,-15.8335,-1.927,6.6287,2.3558,-0.4634,1393,2019-08-07 17:04:29:384
-5.8385,21.364,9.4081,4.6304,-15.8335,-1.927,6.6287,2.3558,-0.4634,1398,2019-08-07 17:04:29:389
-5.8385,21.364,9.4081,4.6304,-15.8335,-1.927,7.0047,1.1882,-0.0032,1403,2019-08-07 17:04:29:394
-5.1017,16.7,0.2586,4.6304,-15.8335,-1.927,7.0047,1.1882,-0.0032,1408,2019-08-07 17:04:29:399
-5.1017,16.7,0.2586,4.5876,-9.8254,6.5682,6.8311,0.5842,-0.0927,1413,2019-08-07 17:04:29:404
-5.1017,16.7,0.2586,4.5876,-9.8254,6.5682,6.8311,0.5842,-0.0927,1417,2019-08-07 17:04:29:408
-6.4078,16.5233,2.4977,4.5876,-9.8254,6.5682,6.8896,0.2455,-0.0522,1423,2019-08-07 17:04:29:414
-6.4078,16.5233,2.4977,4.5876,-9.8254,6.5682,6.8896,0.2455,-0.0522,1428,2019-08-07 17:04:29:419
-5.6662,15.812,5.4862,4.3065,-8.6451,1.1864,6.9663,-0.97,0.033,1433,2019-08-07 17:04:29:424
-5.6662,15.812,5.4862,4.3065,-8.6451,1.1864,6.9663,-0.97,0.033,1438,2019-08-07 17:04:29:429
-5.6662,15.812,5.4862,4.3065,-8.6451,1.1864,6.9663,-0.97,0.033,1443,2019-08-07 17:04:29:434
-4.719,16.2369,2.7899,3.7762,-8.5401,3.219,7.1485,-2.2749,-0.066,1448,2019-08-07 17:04:29:439
-4.719,16.2369,2.7899,3.7762,-8.5401,3.219,7.1485,-2.2749,-0.066,1453,2019-08-07 17:04:29:444
-3.7478,16.8241,-3.4606,3.7762,-8.5401,3.219,7.1506,-2.8502,-0.3419,1458,2019-08-07 17:04:29:449
-3.7478,16.8241,-3.4606,2.4262,-8.6278,9.5496,7.1506,-2.8502,-0.3419,1463,2019-08-07 17:04:29:454
-3.7478,16.8241,-3.4606,2.4262,-8.6278,9.5496,6.9887,-2.4507,-0.5401,1468,2019-08-07 17:04:29:459
-1.9776,17.6977,-4.2667,2.4262,-8.6278,9.5496,6.9887,-2.4507,-0.5401,1473,2019-08-07 17:04:29:464
-1.9776,17.6977,-4.2667,2.4262,-8.6278,9.5496,6.6936,-1.5079,-0.6668,1478,2019-08-07 17:04:29:469
-1.9776,17.6977,-4.2667,0.331,-7.2848,5.7484,6.6936,-1.5079,-0.6668,1483,2019-08-07 17:04:29:474
-0.815,15.4779,-1.6034,0.331,-7.2848,5.7484,6.5626,-0.9934,-0.8075,1488,2019-08-07 17:04:29:479
-0.815,15.4779,-1.6034,0.331,-7.2848,5.7484,6.5626,-0.9934,-0.8075,1493,2019-08-07 17:04:29:484
-0.815,15.4779,-1.6034,1.9191,-9.6913,4.0458,6.4934,-0.7644,-0.9981,1498,2019-08-07 17:04:29:489
-2.2647,16.509,-0.8633,1.9191,-9.6913,4.0458,6.4934,-0.7644,-0.9981,1503,2019-08-07 17:04:29:494
-2.2647,16.509,-0.8633,1.9191,-9.6913,4.0458,6.3346,-0.3085,-0.996,1508,2019-08-07 17:04:29:499
-1.5183,17.0723,-2.3623,1.9191,-9.6913,4.0458,6.3346,-0.3085,-0.996,1513,2019-08-07 17:04:29:504
-1.5183,17.0723,-2.3623,0.4274,-7.5636,4.2155,6.0811,0.0388,-0.9662,1518,2019-08-07 17:04:29:509
-1.5183,17.0723,-2.3623,0.4274,-7.5636,4.2155,6.0811,0.0388,-0.9662,1523,2019-08-07 17:04:29:514
-0.9394,17.6786,-2.6263,0.4274,-7.5636,4.2155,5.7828,0.5022,-0.9587,1528,2019-08-07 17:04:29:519
-0.9394,17.6786,-2.6263,0.4274,-7.5636,4.2155,5.7828,0.5022,-0.9587,1533,2019-08-07 17:04:29:524
-0.9394,17.6786,-2.6263,0.4231,-8.2205,3.0829,5.3557,1.0306,-0.8661,1538,2019-08-07 17:04:29:529
-2.169,17.8457,-2.0559,0.4231,-8.2205,3.0829,5.3557,1.0306,-0.8661,1543,2019-08-07 17:04:29:534
-2.169,17.8457,-2.0559,0.4231,-8.2205,3.0829,5.1213,1.1701,-0.7936,1548,2019-08-07 17:04:29:539
-2.169,17.8457,-2.0559,0.4231,-8.2205,3.0829,5.1213,1.1701,-0.7936,1553,2019-08-07 17:04:29:544
-3.5373,17.6738,-0.8774,2.2968,-7.9561,0.3651,5.1213,1.1701,-0.7936,1557,2019-08-07 17:04:29:548
-3.5373,17.6738,-0.8774,2.2968,-7.9561,0.3651,4.8134,1.0402,-0.621,1563,2019-08-07 17:04:29:554
-3.5373,17.6738,-0.8774,2.2968,-7.9561,0.3651,4.8134,1.0402,-0.621,1567,2019-08-07 17:04:29:558
-4.4176,17.2394,-0.5805,2.2968,-7.9561,0.3651,4.5194,0.6918,-0.4836,1573,2019-08-07 17:04:29:564
-4.4176,17.2394,-0.5805,3.2447,-7.6511,-0.7591,4.5194,0.6918,-0.4836,1578,2019-08-07 17:04:29:569
-4.4989,17.3253,-1.0,3.2447,-7.6511,-0.7591,4.3032,0.4117,-0.4016,1582,2019-08-07 17:04:29:573
-4.4989,17.3253,-1.0,3.2447,-7.6511,-0.7591,4.3032,0.4117,-0.4016,1588,2019-08-07 17:04:29:579
-4.4989,17.3253,-1.0,3.2447,-7.6511,-0.7591,4.0827,0.0974,-0.3558,1593,2019-08-07 17:04:29:584
-3.8291,17.311,-1.3677,2.412,-7.8763,-0.916,4.0827,0.0974,-0.3558,1597,2019-08-07 17:04:29:588
-3.8291,17.311,-1.3677,2.412,-7.8763,-0.916,3.8654,-0.2765,-0.3292,1603,2019-08-07 17:04:29:594
-3.8291,17.311,-1.3677,2.412,-7.8763,-0.916,3.8654,-0.2765,-0.3292,1608,2019-08-07 17:04:29:599
-2.7622,15.9123,-1.4478,2.412,-7.8763,-0.916,3.8654,-0.2765,-0.3292,1612,2019-08-07 17:04:29:603
-2.7622,15.9123,-1.4478,1.146,-5.9493,-1.4583,3.6534,-0.6067,-0.3441,1618,2019-08-07 17:04:29:609
-2.7622,15.9123,-1.4478,1.146,-5.9493,-1.4583,3.6534,-0.6067,-0.3441,1623,2019-08-07 17:04:29:614
-2.6426,14.0839,-1.8532,1.146,-5.9493,-1.4583,3.3242,-0.8869,-0.3984,1627,2019-08-07 17:04:29:618
-2.6426,14.0839,-1.8532,1.146,-5.9493,-1.4583,3.3242,-0.8869,-0.3984,1633,2019-08-07 17:04:29:624
-2.6426,14.0839,-1.8532,0.9192,-4.5464,-1.3701,2.9961,-1.0648,-0.3995,1637,2019-08-07 17:04:29:628
-2.5374,13.5445,-2.136,0.9192,-4.5464,-1.3701,2.9961,-1.0648,-0.3995,1643,2019-08-07 17:04:29:634
-2.5374,13.5445,-2.136,0.9192,-4.5464,-1.3701,2.6478,-1.2033,-0.3984,1648,2019-08-07 17:04:29:639
-1.992,13.5683,-2.6074,0.9192,-4.5464,-1.3701,2.6478,-1.2033,-0.3984,1653,2019-08-07 17:04:29:644
-1.992,13.5683,-2.6074,-0.0602,-4.8839,-1.3229,2.244,-1.2917,-0.3878,1658,2019-08-07 17:04:29:649
-1.992,13.5683,-2.6074,-0.0602,-4.8839,-1.3229,2.244,-1.2917,-0.3878,1663,2019-08-07 17:04:29:654
-1.3748,13.7688,-2.4566,-0.5513,-5.0825,-1.7494,2.244,-1.2917,-0.3878,1668,2019-08-07 17:04:29:659
-1.3748,13.7688,-2.4566,-0.5513,-5.0825,-1.7494,1.9564,-1.2928,-0.3771,1672,2019-08-07 17:04:29:663
-1.4418,13.9264,-2.3199,-0.5513,-5.0825,-1.7494,1.7551,-1.2821,-0.3664,1678,2019-08-07 17:04:29:669
-1.4418,13.9264,-2.3199,-0.5513,-5.0825,-1.7494,1.7551,-1.2821,-0.3664,1683,2019-08-07 17:04:29:674
-1.4418,13.9264,-2.3199,-0.2323,-5.9802,-2.6824,1.7551,-1.2821,-0.3664,1688,2019-08-07 17:04:29:679
-1.7958,14.6186,-1.4478,-0.2323,-5.9802,-2.6824,1.4025,-1.3652,-0.262,1692,2019-08-07 17:04:29:683
-1.7958,14.6186,-1.4478,-0.2323,-5.9802,-2.6824,1.4025,-1.3652,-0.262,1698,2019-08-07 17:04:29:689
-1.7958,14.6186,-1.4478,-0.2323,-5.9802,-2.6824,1.2651,-1.4579,-0.1885,1702,2019-08-07 17:04:29:693
-1.6714,14.1412,-1.1131,-0.5799,-5.594,-3.5405,1.2651,-1.4579,-0.1885,1708,2019-08-07 17:04:29:699
-1.6714,14.1412,-1.1131,-0.5799,-5.594,-3.5405,1.0776,-1.6262,-0.0788,1712,2019-08-07 17:04:29:703
-1.3461,13.492,-0.6417,-1.0255,-4.9765,-4.0546,1.0776,-1.6262,-0.0788,1718,2019-08-07 17:04:29:709
-1.3461,13.492,-0.6417,-1.0255,-4.9765,-4.0546,0.8603,-1.7103,0.0629,1723,2019-08-07 17:04:29:714
-1.3461,13.492,-0.6417,-1.0255,-4.9765,-4.0546,0.8603,-1.7103,0.0629,1727,2019-08-07 17:04:29:718
-0.6763,12.9955,-1.066,-1.0255,-4.9765,-4.0546,0.8603,-1.7103,0.0629,1733,2019-08-07 17:04:29:724
-0.6763,12.9955,-1.066,-2.2654,-4.4664,-3.1972,0.6419,-1.6539,0.1864,1738,2019-08-07 17:04:29:729
-0.0735,12.647,-1.4855,-2.2654,-4.4664,-3.1972,0.6419,-1.6539,0.1864,1742,2019-08-07 17:04:29:733
-0.0735,12.647,-1.4855,-2.2654,-4.4664,-3.1972,0.3042,-1.3492,0.3665,1748,2019-08-07 17:04:29:739
-0.0735,12.647,-1.4855,-2.2654,-4.4664,-3.1972,0.3042,-1.3492,0.3665,1752,2019-08-07 17:04:29:743
-0.0735,12.2842,-1.8249,-2.4824,-3.857,-2.8254,0.3042,-1.3492,0.3665,1758,2019-08-07 17:04:29:749
-0.0735,12.2842,-1.8249,-2.4824,-3.857,-2.8254,-0.1411,-0.7367,0.6221,1762,2019-08-07 17:04:29:753
0.2327,12.0073,-1.0613,-2.4824,-3.857,-2.8254,-0.1411,-0.7367,0.6221,1768,2019-08-07 17:04:29:759
0.2327,12.0073,-1.0613,-2.6755,-3.6281,-3.6439,-0.4127,-0.383,0.7745,1773,2019-08-07 17:04:29:764
0.5054,12.2794,-0.6983,-2.6755,-3.6281,-3.6439,-0.4127,-0.383,0.7745,1778,2019-08-07 17:04:29:769
0.5054,12.2794,-0.6983,-2.6755,-3.6281,-3.6439,-0.4127,-0.383,0.7745,1783,2019-08-07 17:04:29:774
0.5054,12.2794,-0.6983,-2.8071,-4.3075,-3.1128,-0.7717,0.0442,0.9364,1788,2019-08-07 17:04:29:779
0.4767,12.9382,-1.2781,-2.8071,-4.3075,-3.1128,-0.7717,0.0442,0.9364,1793,2019-08-07 17:04:29:784
0.4767,12.9382,-1.2781,-2.8071,-4.3075,-3.1128,-1.1574,0.5033,1.0408,1798,2019-08-07 17:04:29:789
0.4767,12.9382,-1.2781,-2.6704,-4.7414,-3.3396,-1.1574,0.5033,1.0408,1803,2019-08-07 17:04:29:794
0.5485,13.2915,-0.4579,-2.6704,-4.7414,-3.3396,-1.5419,0.8346,1.1036,1808,2019-08-07 17:04:29:799
0.5485,13.2915,-0.4579,-2.6704,-4.7414,-3.3396,-1.5419,0.8346,1.1036,1813,2019-08-07 17:04:29:804
0.6585,13.091,0.5461,-2.484,-4.361,-4.6253,-1.8136,1.0072,1.1228,1818,2019-08-07 17:04:29:809
0.6585,13.091,0.5461,-2.484,-4.361,-4.6253,-1.8136,1.0072,1.1228,1823,2019-08-07 17:04:29:814
0.314,13.2294,0.7488,-2.484,-4.361,-4.6253,-2.0639,1.1147,1.1494,1828,2019-08-07 17:04:29:819
0.314,13.2294,0.7488,-2.484,-4.361,-4.6253,-2.0639,1.1147,1.1494,1833,2019-08-07 17:04:29:824
0.314,13.2294,0.7488,-1.7148,-4.3609,-4.5872,-2.3036,1.135,1.1814,1838,2019-08-07 17:04:29:829
0.1562,13.4251,1.0929,-1.7148,-4.3609,-4.5872,-2.3036,1.135,1.1814,1843,2019-08-07 17:04:29:834
0.1562,13.4251,1.0929,-1.7148,-4.3609,-4.5872,-2.3036,1.135,1.1814,1848,2019-08-07 17:04:29:839
0.1562,13.4251,1.0929,-1.521,-4.6744,-5.0485,-2.5081,1.0562,1.241,1853,2019-08-07 17:04:29:844
0.0222,14.1316,1.8141,-1.521,-4.6744,-5.0485,-2.5081,1.0562,1.241,1857,2019-08-07 17:04:29:848
0.0222,14.1316,1.8141,-1.521,-4.6744,-5.0485,-2.6871,0.8751,1.2922,1863,2019-08-07 17:04:29:854
-0.394,14.5899,1.8094,-0.7115,-5.2985,-4.7563,-2.6871,0.8751,1.2922,1868,2019-08-07 17:04:29:859
-0.394,14.5899,1.8094,-0.7115,-5.2985,-4.7563,-2.7744,0.6684,1.3156,1872,2019-08-07 17:04:29:863
-0.394,14.5899,1.8094,-0.7115,-5.2985,-4.7563,-2.7744,0.6684,1.3156,1878,2019-08-07 17:04:29:869
-0.2362,13.7163,1.6774,-0.7235,-4.327,-4.3524,-2.7893,0.466,1.3326,1883,2019-08-07 17:04:29:874
-0.2362,13.7163,1.6774,-0.7235,-4.327,-4.3524,-2.7893,0.466,1.3326,1888,2019-08-07 17:04:29:879
-0.2362,13.7163,1.6774,-0.7235,-4.327,-4.3524,-2.7893,0.466,1.3326,1893,2019-08-07 17:04:29:884
-1.4843,19.4926,0.7867,-0.7235,-4.327,-4.3524,-2.9225,0.0708,1.2027,1898,2019-08-07 17:04:29:889
-1.4843,19.4926,0.7867,1.3799,-12.5985,-3.0746,-2.9225,0.0708,1.2027,1903,2019-08-07 17:04:29:894
-1.4843,19.4926,0.7867,1.3799,-12.5985,-3.0746,-2.931,-0.4043,1.2858,1908,2019-08-07 17:04:29:899
2.7928,15.9456,-1.7164,1.3799,-12.5985,-3.0746,-2.931,-0.4043,1.2858,1913,2019-08-07 17:04:29:904
2.7928,15.9456,-1.7164,1.3799,-12.5985,-3.0746,-2.4367,-0.1604,1.1952,1918,2019-08-07 17:04:29:909
2.7928,15.9456,-1.7164,-1.7598,-1.6842,-0.2534,-2.4367,-0.1604,1.1952,1922,2019-08-07 17:04:29:913
0.0084,13.0384,-1.0423,-1.7598,-1.6842,-0.2534,-2.229,0.5384,0.8703,1928,2019-08-07 17:04:29:919
0.0084,13.0384,-1.0423,-1.7598,-1.6842,-0.2534,-2.229,0.5384,0.8703,1933,2019-08-07 17:04:29:924
1.8647,13.2818,1.0318,-1.7598,-1.6842,-0.2534,-2.229,0.5384,0.8703,1938,2019-08-07 17:04:29:929
1.8647,13.2818,1.0318,-2.6906,-3.1538,-3.8489,-1.9435,0.4628,0.9119,1942,2019-08-07 17:04:29:933
1.8647,13.2818,1.0318,-2.6906,-3.1538,-3.8489,-1.9435,0.4628,0.9119,1948,2019-08-07 17:04:29:939
2.745,11.8783,8.0695,-2.9009,-2.1133,-8.995,-1.6836,-0.187,0.8597,1952,2019-08-07 17:04:29:943
2.745,11.8783,8.0695,-2.9009,-2.1133,-8.995,-1.6836,-0.187,0.8597,1958,2019-08-07 17:04:29:949
2.745,11.8783,8.0695,-2.9009,-2.1133,-8.995,-1.5749,-0.0144,0.7745,1963,2019-08-07 17:04:29:954
1.726,13.2102,4.3597,-2.9009,-2.1133,-8.995,-1.5749,-0.0144,0.7745,1968,2019-08-07 17:04:29:959
1.726,13.2102,4.3597,-0.9873,-6.105,-2.5863,-1.3885,0.2359,0.6637,1972,2019-08-07 17:04:29:963
1.4676,17.7024,0.6405,-0.9873,-6.105,-2.5863,-1.3885,0.2359,0.6637,1978,2019-08-07 17:04:29:969
1.4676,17.7024,0.6405,-0.9873,-6.105,-2.5863,-0.9784,0.1027,0.8703,1983,2019-08-07 17:04:29:974
0.0945,19.5021,1.2863,-0.9873,-6.105,-2.5863,-0.9784,0.1027,0.8703,1988,2019-08-07 17:04:29:979
0.0945,19.5021,1.2863,1.8861,-6.8972,-3.56,-0.9784,0.1027,0.8703,1992,2019-08-07 17:04:29:983
0.0945,19.5021,1.2863,1.8861,-6.8972,-3.56,-0.9614,1.004,0.3718,1998,2019-08-07 17:04:29:989
-7.0244,8.7038,7.1786,1.8861,-6.8972,-3.56,-0.9614,1.004,0.3718,2003,2019-08-07 17:04:29:994
-7.0244,8.7038,7.1786,1.8861,-6.8972,-3.56,-1.0796,2.6466,0.1491,2008,2019-08-07 17:04:29:999
-3.9194,9.2241,7.3106,6.3018,-0.3517,-8.5896,-1.0796,2.6466,0.1491,2013,2019-08-07 17:04:30:004
-3.9194,9.2241,7.3106,6.3018,-0.3517,-8.5896,-0.2668,0.3009,0.5848,2018,2019-08-07 17:04:30:009
-3.9194,9.2241,7.3106,6.3018,-0.3517,-8.5896,-0.2668,0.3009,0.5848,2023,2019-08-07 17:04:30:014
1.4772,7.7585,4.6661,6.3018,-0.3517,-8.5896,0.1103,-2.2057,0.4911,2029,2019-08-07 17:04:30:020
1.4772,7.7585,4.6661,-3.9493,1.3648,-4.551,0.1103,-2.2057,0.4911,2032,2019-08-07 17:04:30:023
1.4772,7.7585,4.6661,-3.9493,1.3648,-4.551,0.4086,-1.6145,0.4325,2038,2019-08-07 17:04:30:029
6.4576,10.0118,-6.3453,-3.9493,1.3648,-4.551,0.4086,-1.6145,0.4325,2042,2019-08-07 17:04:30:033
6.4576,10.0118,-6.3453,-3.9493,1.3648,-4.551,0.0283,-0.1625,0.2376,2048,2019-08-07 17:04:30:039
8.4814,10.2887,-8.5278,-6.5646,-0.1526,7.3525,0.0283,-0.1625,0.2376,2053,2019-08-07 17:04:30:044
8.4814,10.2887,-8.5278,-6.5646,-0.1526,7.3525,-0.2913,1.6367,-0.1427,2058,2019-08-07 17:04:30:049
8.4814,10.2887,-8.5278,-6.5646,-0.1526,7.3525,-0.2913,1.6367,-0.1427,2063,2019-08-07 17:04:30:054
-0.2738,9.1191,-0.9527,-6.5646,-0.1526,7.3525,-0.2913,1.6367,-0.1427,2067,2019-08-07 17:04:30:058
-0.2738,9.1191,-0.9527,2.8407,0.3735,-2.1357,-0.3339,1.4013,-0.082,2073,2019-08-07 17:04:30:064
-0.2738,9.3673,2.8183,2.8407,0.3735,-2.1357,-0.3339,1.4013,-0.082,2078,2019-08-07 17:04:30:069
-2.7807,9.3673,2.8183,2.8407,0.3735,-2.1357,-0.1283,-0.1263,0.1449,2083,2019-08-07 17:04:30:074
-2.7807,9.3673,2.8183,2.6724,0.0874,-1.7168,-0.1283,-0.1263,0.1449,2088,2019-08-07 17:04:30:079
-0.4986,10.2457,-2.5271,2.6724,0.0874,-1.7168,0.0027,-1.0893,0.2674,2093,2019-08-07 17:04:30:084
-0.4986,10.2457,-2.5271,2.6724,0.0874,-1.7168,0.0027,-1.0893,0.2674,2098,2019-08-07 17:04:30:089
-0.4986,10.2457,-2.5271,-0.5341,-0.3201,3.7195,-0.1336,-0.4746,0.2152,2103,2019-08-07 17:04:30:094
1.1711,10.1454,-3.2106,-0.5341,-0.3201,3.7195,-0.1336,-0.4746,0.2152,2108,2019-08-07 17:04:30:099
1.1711,10.1454,-3.2106,-0.5341,-0.3201,3.7195,-0.1336,-0.4746,0.2152,2113,2019-08-07 17:04:30:104
1.5299,9.4341,1.9274,-0.5341,-0.3201,3.7195,-0.1976,0.1432,0.1555,2118,2019-08-07 17:04:30:109
1.5299,9.4341,1.9274,-1.1439,0.2606,-3.0049,-0.1976,0.1432,0.1555,2122,2019-08-07 17:04:30:113
1.5299,9.4341,1.9274,-1.1439,0.2606,-3.0049,-0.0261,-0.0304,0.1033,2128,2019-08-07 17:04:30:119
1.9174,9.5057,1.5975,-1.1439,0.2606,-3.0049,-0.0261,-0.0304,0.1033,2133,2019-08-07 17:04:30:124
1.9174,9.5057,1.5975,-1.1439,0.2606,-3.0049,0.0975,-0.2275,0.0405,2138,2019-08-07 17:04:30:129
1.9174,9.5057,1.5975,-1.1439,0.2606,-3.0049,0.0975,-0.2275,0.0405,2143,2019-08-07 17:04:30:134
1.2715,10.0977,-3.0551,-0.8007,-0.299,3.0471,0.0368,0.1219,-0.0479,2147,2019-08-07 17:04:30:138
1.2715,10.0977,-3.0551,-0.8007,-0.299,3.0471,0.0368,0.1219,-0.0479,2152,2019-08-07 17:04:30:143
-0.0058,10.0595,-2.6638,-0.8007,-0.299,3.0471,-0.1134,0.5704,-0.1012,2158,2019-08-07 17:04:30:149
-0.0058,10.0595,-2.6638,-0.8007,-0.299,3.0471,-0.1134,0.5704,-0.1012,2162,2019-08-07 17:04:30:153
-0.0058,10.0595,-2.6638,1.0881,-0.2124,1.7267,-0.1241,0.5075,-0.0991,2168,2019-08-07 17:04:30:159
-0.8909,9.9067,-0.3493,1.0881,-0.2124,1.7267,-0.1241,0.5075,-0.0991,2172,2019-08-07 17:04:30:163
-0.8909,9.9067,-0.3493,1.0881,-0.2124,1.7267,-0.1241,0.5075,-0.0991,2178,2019-08-07 17:04:30:169
0.1281,9.7635,0.2399,0.309,0.0367,-0.2333,-0.1038,0.09,-0.0181,2183,2019-08-07 17:04:30:174
0.1281,9.7635,0.2399,0.309,0.0367,-0.2333,-0.1038,0.09,-0.0181,2188,2019-08-07 17:04:30:179
0.1281,9.7635,0.2399,0.309,0.0367,-0.2333,-0.058,-0.1977,0.0053,2193,2019-08-07 17:04:30:184
1.1998,9.7349,-0.2786,-0.7612,0.0653,0.2912,-0.058,-0.1977,0.0053,2198,2019-08-07 17:04:30:189
1.1998,9.7349,-0.2786,-0.7612,0.0653,0.2912,-0.0559,-0.1891,0.0021,2202,2019-08-07 17:04:30:193
0.9032,9.8017,-1.0706,-0.7612,0.0653,0.2912,-0.0559,-0.1891,0.0021,2208,2019-08-07 17:04:30:199
0.9032,9.8017,-1.0706,-0.7612,0.0653,0.2912,-0.0932,-0.0762,-0.0501,2212,2019-08-07 17:04:30:203
0.9032,9.8017,-1.0706,-0.1849,-0.1019,0.7075,-0.0932,-0.0762,-0.0501,2218,2019-08-07 17:04:30:209
0.5731,9.9163,-0.2032,-0.1849,-0.1019,0.7075,-0.0676,-0.1018,-0.049,2222,2019-08-07 17:04:30:213
0.5731,9.9163,-0.2032,-0.1849,-0.1019,0.7075,-0.0676,-0.1018,-0.049,2228,2019-08-07 17:04:30:219
0.5731,9.9163,-0.2032,-0.1849,-0.1019,0.7075,-0.0207,-0.1401,-0.0703,2233,2019-08-07 17:04:30:224
0.6592,9.7444,-0.948,-0.2278,0.056,0.9731,-0.0207,-0.1401,-0.0703,2238,2019-08-07 17:04:30:229
0.6592,9.7444,-0.948,-0.2278,0.056,0.9731,-0.0207,-0.1401,-0.0703,2243,2019-08-07 17:04:30:234
0.6592,9.7444,-0.948,-0.2278,0.056,0.9731,-0.0165,-0.0198,-0.081,2247,2019-08-07 17:04:30:238
0.5731,9.8638,-1.1271,0.1434,-0.1437,1.3586,-0.0165,-0.0198,-0.081,2253,2019-08-07 17:04:30:244
0.5731,9.8638,-1.1271,0.1434,-0.1437,1.3586,-0.0559,0.0974,-0.1097,2257,2019-08-07 17:04:30:248
-0.1972,10.0929,-1.6174,0.1434,-0.1437,1.3586,-0.0559,0.0974,-0.1097,2263,2019-08-07 17:04:30:254
-0.1972,10.0929,-1.6174,0.1434,-0.1437,1.3586,-0.0985,0.1294,-0.1268,2268,2019-08-07 17:04:30:259
-0.1972,10.0929,-1.6174,0.1434,-0.1437,1.3586,-0.0985,0.1294,-0.1268,2273,2019-08-07 17:04:30:264
-0.8,10.1979,-1.3204,1.1842,-0.3955,1.3436,-0.1102,0.1251,-0.1001,2278,2019-08-07 17:04:30:269
-0.8,10.1979,-1.3204,1.1842,-0.3955,1.3436,-0.1102,0.1251,-0.1001,2283,2019-08-07 17:04:30:274
-0.1924,9.9258,0.2729,1.1842,-0.3955,1.3436,-0.0953,0.0484,-0.082,2287,2019-08-07 17:04:30:278
-0.1924,9.9258,0.2729,1.1842,-0.3955,1.3436,-0.0953,0.0484,-0.082,2293,2019-08-07 17:04:30:284
-0.1924,9.9258,0.2729,0.3956,-0.1273,-0.3385,-0.0399,-0.0613,-0.0767,2297,2019-08-07 17:04:30:288
0.0564,9.8829,0.0183,0.3956,-0.1273,-0.3385,-0.0399,-0.0613,-0.0767,2302,2019-08-07 17:04:30:293
0.0564,9.8829,0.0183,0.3956,-0.1273,-0.3385,-0.0101,-0.0901,-0.0852,2308,2019-08-07 17:04:30:299
0.4487,9.8972,-0.0806,0.3956,-0.1273,-0.3385,-0.0101,-0.0901,-0.0852,2313,2019-08-07 17:04:30:304
0.4487,9.8972,-0.0806,-0.2959,-0.079,-0.2743,-0.0101,-0.0901,-0.0852,2317,2019-08-07 17:04:30:308
0.4487,9.8972,-0.0806,-0.2959,-0.079,-0.2743,0.0304,-0.0656,-0.0703,2323,2019-08-07 17:04:30:314
1.0898,9.8447,0.0749,-0.2959,-0.079,-0.2743,0.0304,-0.0656,-0.0703,2328,2019-08-07 17:04:30:319
1.0898,9.8447,0.0749,-0.2959,-0.079,-0.2743,0.057,-0.1838,-0.0863,2333,2019-08-07 17:04:30:324
0.2478,10.0786,-2.7251,-0.13,-0.2409,2.2217,0.057,-0.1838,-0.0863,2338,2019-08-07 17:04:30:329
0.2478,10.0786,-2.7251,-0.13,-0.2409,2.2217,-0.0261,-0.1604,-0.1076,2343,2019-08-07 17:04:30:334
0.2478,10.0786,-2.7251,0.452,-0.2644,3.7423,-0.0261,-0.1604,-0.1076,2348,2019-08-07 17:04:30:339
-0.1588,10.0404,-3.6537,0.452,-0.2644,3.7423,-0.1241,-0.0592,-0.1065,2353,2019-08-07 17:04:30:344
-0.1588,10.0404,-3.6537,0.452,-0.2644,3.7423,-0.1241,-0.0592,-0.1065,2357,2019-08-07 17:04:30:348
-0.1588,10.0404,-3.6537,0.452,-0.2644,3.7423,-0.2157,-0.0688,-0.0767,2363,2019-08-07 17:04:30:354
-0.1349,10.0452,-0.9857,0.4151,-0.2064,0.672,-0.2157,-0.0688,-0.0767,2368,2019-08-07 17:04:30:359
-0.1349,10.0452,-0.9857,0.4151,-0.2064,0.672,-0.2103,-0.2179,-0.065,2372,2019-08-07 17:04:30:363
-0.1397,10.0595,-0.4436,0.4151,-0.2064,0.672,-0.2103,-0.2179,-0.065,2378,2019-08-07 17:04:30:369
-0.1397,10.0595,-0.4436,0.4151,-0.2064,0.672,-0.2103,-0.2179,-0.065,2383,2019-08-07 17:04:30:374
-0.1397,10.0595,-0.4436,0.6234,-0.3446,0.7505,-0.2082,-0.2797,-0.0692,2388,2019-08-07 17:04:30:379
-0.4746,10.1025,-0.4672,0.6234,-0.3446,0.7505,-0.2082,-0.2797,-0.0692,2392,2019-08-07 17:04:30:383
-0.4746,10.1025,-0.4672,1.0116,-0.2395,0.2927,-0.2114,-0.2136,-0.0511,2398,2019-08-07 17:04:30:389
-0.4746,10.1025,-0.4672,1.0116,-0.2395,0.2927,-0.2114,-0.2136,-0.0511,2402,2019-08-07 17:04:30:393
-1.1779,9.9306,0.3342,1.0116,-0.2395,0.2927,-0.1645,-0.2435,-0.0234,2408,2019-08-07 17:04:30:399
-1.1779,9.9306,0.3342,1.0116,-0.2395,0.2927,-0.1645,-0.2435,-0.0234,2413,2019-08-07 17:04:30:404
-1.1061,9.8685,1.0318,1.0931,0.0183,-0.8414,-0.1645,-0.2435,-0.0234,2418,2019-08-07 17:04:30:409
-1.1061,9.8685,1.0318,1.0931,0.0183,-0.8414,-0.0601,-0.4778,0.0661,2423,2019-08-07 17:04:30:414
0.3005,9.6967,-0.2079,-0.0346,0.1088,0.3416,-0.0601,-0.4778,0.0661,2428,2019-08-07 17:04:30:419
0.3005,9.6967,-0.2079,-0.0346,0.1088,0.3416,-5.0E-4,-0.6174,0.081,2433,2019-08-07 17:04:30:424
0.3005,9.6967,-0.2079,-0.0346,0.1088,0.3416,-5.0E-4,-0.6174,0.081,2438,2019-08-07 17:04:30:429
1.176,9.7826,-1.7776,-0.0346,0.1088,0.3416,-0.0261,-0.3596,0.0575,2442,2019-08-07 17:04:30:433
1.176,9.7826,-1.7776,-0.8845,-0.0539,2.0257,-0.0261,-0.3596,0.0575,2448,2019-08-07 17:04:30:439
1.176,9.7826,-1.7776,-0.8845,-0.0539,2.0257,-0.0921,-0.0581,0.016,2453,2019-08-07 17:04:30:444
0.8794,10.0499,-1.4194,-0.8845,-0.0539,2.0257,-0.0921,-0.0581,0.016,2458,2019-08-07 17:04:30:449
0.8794,10.0499,-1.4194,-0.8845,-0.0539,2.0257,-0.0921,-0.0581,0.016,2463,2019-08-07 17:04:30:454
-0.1492,9.9736,-0.7311,0.6532,-0.1973,0.8664,-0.1283,0.0133,-0.0245,2468,2019-08-07 17:04:30:459
-0.1492,9.9736,-0.7311,0.6532,-0.1973,0.8664,-0.1283,0.0133,-0.0245,2472,2019-08-07 17:04:30:463
-0.9147,10.1025,-0.8725,0.6532,-0.1973,0.8664,-0.1358,-0.1103,-0.0106,2478,2019-08-07 17:04:30:469
-0.9147,10.1025,-0.8725,0.6532,-0.1973,0.8664,-0.1358,-0.1103,-0.0106,2483,2019-08-07 17:04:30:474
-0.9147,10.1025,-0.8725,0.9918,-0.3166,0.4476,-0.1358,-0.1103,-0.0106,2488,2019-08-07 17:04:30:479
-0.575,10.1072,-0.156,0.9918,-0.3166,0.4476,-0.1155,-0.2083,0.0192,2492,2019-08-07 17:04:30:483
-0.575,10.1072,-0.156,0.9918,-0.3166,0.4476,-0.1155,-0.2083,0.0192,2498,2019-08-07 17:04:30:489
0.1666,9.816,0.6029,0.9918,-0.3166,0.4476,-0.0431,-0.334,0.0362,2503,2019-08-07 17:04:30:494
0.1666,9.816,0.6029,-0.2051,0.0888,-0.4461,-0.0431,-0.334,0.0362,2507,2019-08-07 17:04:30:498
0.1666,9.816,0.6029,-0.2051,0.0888,-0.4461,-0.0431,-0.334,0.0362,2513,2019-08-07 17:04:30:504
0.9033,9.5535,0.1079,-0.2051,0.0888,-0.4461,0.0251,-0.4001,0.0266,2518,2019-08-07 17:04:30:509
0.9033,9.5535,0.1079,-0.2051,0.0888,-0.4461,0.0251,-0.4001,0.0266,2522,2019-08-07 17:04:30:513
0.9033,9.5535,0.1079,-1.0988,0.103,0.7917,0.0645,-0.3372,-0.0074,2528,2019-08-07 17:04:30:519
1.3913,9.7015,-0.6369,-1.0988,0.103,0.7917,0.0645,-0.3372,-0.0074,2533,2019-08-07 17:04:30:524
1.3913,9.7015,-0.6369,-1.0988,0.103,0.7917,0.0645,-0.3372,-0.0074,2537,2019-08-07 17:04:30:528
1.4201,9.7635,-0.9055,-1.0988,0.103,0.7917,0.0634,-0.1625,-0.0756,2543,2019-08-07 17:04:30:534
1.4201,9.7635,-0.9055,-1.0988,0.103,0.7917,0.0634,-0.1625,-0.0756,2548,2019-08-07 17:04:30:539
1.4201,9.7635,-0.9055,-0.8672,-0.0303,1.0195,0.0613,-0.0123,-0.1118,2552,2019-08-07 17:04:30:543
0.9512,9.8399,-1.0375,-0.8672,-0.0303,1.0195,0.0613,-0.0123,-0.1118,2558,2019-08-07 17:04:30:549
0.9512,9.8399,-1.0375,-0.8672,-0.0303,1.0195,0.0411,0.0623,-0.1704,2562,2019-08-07 17:04:30:553
-0.0343,9.8876,-1.2449,-0.8672,-0.0303,1.0195,0.0411,0.0623,-0.1704,2567,2019-08-07 17:04:30:558
-0.0343,9.8876,-1.2449,0.3482,0.0424,1.3069,0.0411,0.0623,-0.1704,2573,2019-08-07 17:04:30:564
-0.0343,9.8876,-1.2449,0.3482,0.0424,1.3069,0.0144,0.0942,-0.1758,2577,2019-08-07 17:04:30:568
-0.4027,9.8924,-0.9574,0.3482,0.0424,1.3069,0.0144,0.0942,-0.1758,2583,2019-08-07 17:04:30:574
-0.4027,9.8924,-0.9574,0.3482,0.0424,1.3069,-5.0E-4,0.0804,-0.1545,2587,2019-08-07 17:04:30:578
-0.4027,9.8924,-0.9574,0.807,-0.1237,0.7369,-5.0E-4,0.0804,-0.1545,2593,2019-08-07 17:04:30:584
-0.6993,9.9545,-0.5803,0.807,-0.1237,0.7369,0.0048,0.0527,-0.1353,2598,2019-08-07 17:04:30:589
-0.6993,9.9545,-0.5803,0.9809,-0.1185,0.5314,0.0048,0.0527,-0.1353,2603,2019-08-07 17:04:30:594
-0.6993,9.9545,-0.5803,0.9809,-0.1185,0.5314,0.0176,-0.007,-0.0895,2608,2019-08-07 17:04:30:599
-0.4984,9.8924,-0.3776,0.9809,-0.1185,0.5314,0.0176,-0.007,-0.0895,2613,2019-08-07 17:04:30:604
-0.4984,9.8924,-0.3776,0.9809,-0.1185,0.5314,0.0411,-0.0432,-0.0756,2617,2019-08-07 17:04:30:608
0.1618,9.8112,-0.3304,0.0877,-0.032,0.251,0.0411,-0.0432,-0.0756,2623,2019-08-07 17:04:30:614
0.1618,9.8112,-0.3304,0.0877,-0.032,0.251,0.056,-0.0027,-0.0788,2628,2019-08-07 17:04:30:619
0.1618,9.8112,-0.3304,0.0877,-0.032,0.251,0.056,-0.0027,-0.0788,2633,2019-08-07 17:04:30:624
0.2958,9.902,-0.5567,0.0877,-0.032,0.251,0.056,-0.0027,-0.0788,2638,2019-08-07 17:04:30:629
0.2958,9.902,-0.5567,-0.2568,-0.0125,1.0781,0.0538,0.0484,-0.0799,2642,2019-08-07 17:04:30:633
0.1331,9.8494,-1.3156,-0.2568,-0.0125,1.0781,0.0538,0.0484,-0.0799,2648,2019-08-07 17:04:30:639
0.1331,9.8494,-1.3156,0.2416,-0.0744,1.4545,0.0368,0.0825,-0.0884,2652,2019-08-07 17:04:30:643
0.1331,9.8494,-1.3156,0.2416,-0.0744,1.4545,0.0368,0.0825,-0.0884,2658,2019-08-07 17:04:30:649
-0.2496,9.964,-0.9857,0.2416,-0.0744,1.4545,-0.0069,0.1699,-0.0916,2662,2019-08-07 17:04:30:653
-0.2496,9.964,-0.9857,0.2416,-0.0744,1.4545,-0.0069,0.1699,-0.0916,2667,2019-08-07 17:04:30:658
-0.2496,9.964,-0.9857,0.1784,-0.1838,0.8153,-0.0197,0.1251,-0.0724,2673,2019-08-07 17:04:30:664
0.0853,10.0308,-0.8442,0.1784,-0.1838,0.8153,-0.0197,0.1251,-0.0724,2677,2019-08-07 17:04:30:668
0.0853,10.0308,-0.8442,0.1784,-0.1838,0.8153,-0.0356,0.1113,-0.0948,2682,2019-08-07 17:04:30:673
-0.2304,10.007,-1.1742,0.3128,-0.2313,1.2136,-0.0356,0.1113,-0.0948,2689,2019-08-07 17:04:30:680
-0.2304,10.007,-1.1742,0.3128,-0.2313,1.2136,-0.0356,0.1113,-0.0948,2692,2019-08-07 17:04:30:683
-0.2304,10.007,-1.1742,0.3128,-0.2313,1.2136,-0.0729,0.238,-0.1023,2698,2019-08-07 17:04:30:689
-0.173,10.0499,-0.8018,0.2823,-0.2407,0.8631,-0.0729,0.238,-0.1023,2702,2019-08-07 17:04:30:693
-0.173,10.0499,-0.8018,0.2823,-0.2407,0.8631,-0.0793,0.2529,-0.1044,2708,2019-08-07 17:04:30:699
-0.173,10.0499,-0.8018,0.2823,-0.2407,0.8631,-0.0793,0.2529,-0.1044,2712,2019-08-07 17:04:30:703
-0.307,9.9974,-0.2644,0.2823,-0.2407,0.8631,-0.0527,0.1549,-0.0841,2718,2019-08-07 17:04:30:709
-0.307,9.9974,-0.2644,0.3454,-0.2024,0.4973,-0.0527,0.1549,-0.0841,2723,2019-08-07 17:04:30:714
-0.2926,9.9974,-0.7971,0.3454,-0.2024,0.4973,-0.0527,0.1549,-0.0841,2727,2019-08-07 17:04:30:718
-0.2926,9.9974,-0.7971,0.3454,-0.2024,0.4973,-0.0495,0.0857,-0.0788,2733,2019-08-07 17:04:30:724
-0.2926,9.9974,-0.7971,0.3454,-0.2024,0.4973,-0.0495,0.0857,-0.0788,2738,2019-08-07 17:04:30:729
-0.417,9.9545,-0.9149,0.4842,-0.145,0.9902,-0.0612,0.1443,-0.0628,2742,2019-08-07 17:04:30:733
-0.417,9.9545,-0.9149,0.4842,-0.145,0.9902,-0.0612,0.1443,-0.0628,2748,2019-08-07 17:04:30:739
-0.417,9.9545,-0.9149,0.4842,-0.145,0.9902,-0.0623,0.1539,-0.0426,2752,2019-08-07 17:04:30:743
-0.4074,9.921,-0.3964,0.4842,-0.145,0.9902,-0.0623,0.1539,-0.0426,2758,2019-08-07 17:04:30:749
-0.4074,9.921,-0.3964,0.3948,-0.0017,0.2911,-0.0452,0.1145,-0.0277,2762,2019-08-07 17:04:30:753
-0.3022,9.8017,-0.2597,0.3948,-0.0017,0.2911,-0.0452,0.1145,-0.0277,2768,2019-08-07 17:04:30:759
-0.3022,9.8017,-0.2597,0.3948,-0.0017,0.2911,-0.0229,0.0985,-0.0181,2773,2019-08-07 17:04:30:764
-0.3022,9.8017,-0.2597,0.3948,-0.0017,0.2911,-0.0229,0.0985,-0.0181,2778,2019-08-07 17:04:30:769
-0.1778,9.8494,-0.3587,0.1398,-0.0638,0.4819,-0.0111,0.1123,-0.0021,2783,2019-08-07 17:04:30:774
-0.1778,9.8494,-0.3587,0.1398,-0.0638,0.4819,-0.0111,0.1123,-0.0021,2788,2019-08-07 17:04:30:779
0.205,9.8399,-0.486,0.1398,-0.0638,0.4819,-0.0111,0.1123,-0.0021,2792,2019-08-07 17:04:30:783
0.205,9.8399,-0.486,0.1398,-0.0638,0.4819,6.0E-4,0.1464,-0.0149,2798,2019-08-07 17:04:30:789
0.205,9.8399,-0.486,-0.2446,-0.0972,0.6762,6.0E-4,0.1464,-0.0149,2802,2019-08-07 17:04:30:793
0.3581,9.8781,-0.6887,-0.2446,-0.0972,0.6762,0.0166,0.1912,-0.0309,2808,2019-08-07 17:04:30:799
0.3581,9.8781,-0.6887,-0.2446,-0.0972,0.6762,0.0166,0.1912,-0.0309,2813,2019-08-07 17:04:30:804
0.0806,9.8972,-0.8112,-0.2446,-0.0972,0.6762,0.0283,0.221,-0.049,2818,2019-08-07 17:04:30:809
0.0806,9.8972,-0.8112,0.0216,0.008,0.8448,0.0283,0.221,-0.049,2823,2019-08-07 17:04:30:814
0.0806,9.8972,-0.8112,0.0216,0.008,0.8448,0.0315,0.2316,-0.049,2828,2019-08-07 17:04:30:819
0.1476,9.8112,-0.4954,0.0216,0.008,0.8448,0.0315,0.2316,-0.049,2833,2019-08-07 17:04:30:824
0.1476,9.8112,-0.4954,0.0216,0.008,0.8448,0.057,0.188,-0.0692,2838,2019-08-07 17:04:30:829
0.1476,9.8112,-0.4954,0.0216,0.008,0.8448,0.057,0.188,-0.0692,2842,2019-08-07 17:04:30:833
0.0615,9.8494,-0.1372,-0.0325,-0.0396,0.1962,0.057,0.188,-0.0692,2848,2019-08-07 17:04:30:839
0.0615,9.8494,-0.1372,-0.0325,-0.0396,0.1962,0.0996,0.1262,-0.0575,2853,2019-08-07 17:04:30:844
0.0184,9.9449,-0.6133,-0.0325,-0.0396,0.1962,0.0996,0.1262,-0.0575,2858,2019-08-07 17:04:30:849
0.0184,9.9449,-0.6133,-0.016,-0.2161,0.6914,0.105,0.1027,-0.066,2863,2019-08-07 17:04:30:854
0.0184,9.9449,-0.6133,-0.016,-0.2161,0.6914,0.105,0.1027,-0.066,2867,2019-08-07 17:04:30:858
-0.1155,10.0213,-0.8537,-0.016,-0.2161,0.6914,0.1146,0.1145,-0.0607,2873,2019-08-07 17:04:30:864
-0.1155,10.0213,-0.8537,-0.016,-0.2161,0.6914,0.1146,0.1145,-0.0607,2878,2019-08-07 17:04:30:869
-0.3882,9.9258,-0.717,0.3911,-0.1158,0.7241,0.0975,0.1198,-0.0543,2883,2019-08-07 17:04:30:874
-0.3882,9.9258,-0.717,0.3911,-0.1158,0.7241,0.0975,0.1198,-0.0543,2888,2019-08-07 17:04:30:879
-0.3882,9.9258,-0.717,0.3911,-0.1158,0.7241,0.0975,0.1198,-0.0543,2892,2019-08-07 17:04:30:883
-0.5082,9.902,-0.6227,0.3911,-0.1158,0.7241,0.1039,0.0889,-0.0458,2898,2019-08-07 17:04:30:889
-0.5082,9.902,-0.6227,0.4594,-0.0633,0.6559,0.1039,0.0889,-0.0458,2902,2019-08-07 17:04:30:893
-0.5082,9.902,-0.6227,0.4594,-0.0633,0.6559,0.1135,0.0367,-0.0405,2908,2019-08-07 17:04:30:899
-0.2403,9.9211,-0.717,0.4594,-0.0633,0.6559,0.1135,0.0367,-0.0405,2913,2019-08-07 17:04:30:904
-0.2403,9.9211,-0.717,0.4594,-0.0633,0.6559,0.1103,-0.0059,-0.0362,2917,2019-08-07 17:04:30:908
-0.1254,9.9163,-0.8867,0.1058,-0.1064,0.8395,0.1242,-0.0049,-0.0415,2923,2019-08-07 17:04:30:914
-0.1254,9.9163,-0.8867,0.1058,-0.1064,0.8395,0.1242,-0.0049,-0.0415,2928,2019-08-07 17:04:30:919
-0.1254,9.9163,-0.8867,0.1058,-0.1064,0.8395,0.1242,-0.0049,-0.0415,2933,2019-08-07 17:04:30:924
-0.3407,9.9402,-0.9904,0.1058,-0.1064,0.8395,0.1007,0.0143,-0.0256,2937,2019-08-07 17:04:30:928
-0.3407,9.9402,-0.9904,0.1058,-0.1064,0.8395,0.1007,0.0143,-0.0256,2943,2019-08-07 17:04:30:934
-0.4412,10.0547,-0.783,0.4138,-0.1973,0.7033,0.0751,0.0282,-0.0234,2948,2019-08-07 17:04:30:939
-0.4412,10.0547,-0.783,0.4138,-0.1973,0.7033,0.0751,0.0282,-0.0234,2953,2019-08-07 17:04:30:944
-0.4412,10.0547,-0.783,0.4138,-0.1973,0.7033,0.0592,0.0069,-0.0181,2957,2019-08-07 17:04:30:948
-0.3407,10.0691,-0.9574,0.4138,-0.1973,0.7033,0.0592,0.0069,-0.0181,2963,2019-08-07 17:04:30:954
-0.3407,10.0691,-0.9574,0.3736,-0.1736,0.8967,0.0475,-0.0059,-0.0096,2968,2019-08-07 17:04:30:959
-0.3407,10.0691,-0.9574,0.3736,-0.1736,0.8967,0.0475,-0.0059,-0.0096,2972,2019-08-07 17:04:30:963
-0.4699,9.9545,-0.9574,0.3736,-0.1736,0.8967,0.0251,0.0154,0.0,2978,2019-08-07 17:04:30:969
-0.4699,9.9545,-0.9574,0.3736,-0.1736,0.8967,0.0251,0.0154,0.0,2983,2019-08-07 17:04:30:974
-0.3359,9.8876,-0.585,0.3984,-0.1069,0.554,0.0251,0.0154,0.0,2988,2019-08-07 17:04:30:979
-0.3359,9.8876,-0.585,0.3984,-0.1069,0.554,0.024,-0.0144,0.0096,2993,2019-08-07 17:04:30:984
-0.3359,9.8876,-0.585,0.3984,-0.1069,0.554,0.024,-0.0144,0.0096,2997,2019-08-07 17:04:30:988
-0.2068,9.8781,-0.6935,0.3984,-0.1069,0.554,0.0347,-0.0741,0.016,3003,2019-08-07 17:04:30:994
-0.2068,9.8781,-0.6935,0.0836,-0.0736,0.6573,0.0347,-0.0741,0.016,3008,2019-08-07 17:04:30:999
-0.2068,9.8781,-0.6935,0.0836,-0.0736,0.6573,0.0432,-0.0784,0.0107,3013,2019-08-07 17:04:31:004
0.0133,9.9211,-0.75,0.0836,-0.0736,0.6573,0.0432,-0.0784,0.0107,3017,2019-08-07 17:04:31:008
0.0133,9.9211,-0.75,0.0836,-0.0736,0.6573,0.0453,-0.0677,0.0064,3023,2019-08-07 17:04:31:014
0.1473,9.9211,-0.8254,-0.182,-0.112,0.6953,0.0453,-0.0677,0.0064,3028,2019-08-07 17:04:31:019
0.1473,9.9211,-0.8254,-0.182,-0.112,0.6953,0.0432,-0.0379,-0.016,3033,2019-08-07 17:04:31:024
0.1473,9.9211,-0.8254,-0.182,-0.112,0.6953,0.0432,-0.0379,-0.016,3038,2019-08-07 17:04:31:029
0.1138,9.859,-0.8584,-0.182,-0.112,0.6953,0.0432,-0.0379,-0.016,3042,2019-08-07 17:04:31:033
0.1138,9.859,-0.8584,-0.1887,-0.117,0.6421,0.0538,-0.0134,-0.0234,3048,2019-08-07 17:04:31:039
0.0277,9.9497,-0.8066,-0.1887,-0.117,0.6421,0.0538,-0.0134,-0.0234,3053,2019-08-07 17:04:31:044
0.0277,9.9497,-0.8066,-0.1887,-0.117,0.6421,0.0475,-0.0155,-0.0288,3058,2019-08-07 17:04:31:049
0.0277,9.9497,-0.8066,-0.1887,-0.117,0.6421,0.0475,-0.0155,-0.0288,3062,2019-08-07 17:04:31:053
-0.0393,9.9163,-0.9197,-0.0035,-0.1077,0.7584,0.0411,-0.0187,-0.0405,3068,2019-08-07 17:04:31:059
-0.0393,9.9163,-0.9197,-0.0035,-0.1077,0.7584,0.0411,-0.0187,-0.0405,3073,2019-08-07 17:04:31:064
-0.3503,9.9354,-0.7783,-0.0035,-0.1077,0.7584,0.0432,-0.0144,-0.0437,3078,2019-08-07 17:04:31:069
-0.3503,9.9354,-0.7783,-0.0035,-0.1077,0.7584,0.0432,-0.0144,-0.0437,3083,2019-08-07 17:04:31:074
-0.3503,9.9354,-0.7783,0.13,-0.0173,0.5095,0.0421,-0.0464,-0.0394,3088,2019-08-07 17:04:31:079
-0.2115,9.9067,-0.6039,0.13,-0.0173,0.5095,0.0421,-0.0464,-0.0394,3095,2019-08-07 17:04:31:086
-0.2115,9.9067,-0.6039,0.13,-0.0173,0.5095,0.0538,-0.0752,-0.0394,3098,2019-08-07 17:04:31:089
-0.1876,9.9306,-0.7972,0.13,-0.0173,0.5095,0.0538,-0.0752,-0.0394,3103,2019-08-07 17:04:31:094
-0.1876,9.9306,-0.7972,0.1543,-0.1035,0.6796,0.0538,-0.0752,-0.0394,3107,2019-08-07 17:04:31:098
-0.1876,9.9306,-0.7972,0.1543,-0.1035,0.6796,0.057,-0.0869,-0.0405,3113,2019-08-07 17:04:31:104
-0.2737,9.8829,-0.981,0.1543,-0.1035,0.6796,0.057,-0.0869,-0.0405,3117,2019-08-07 17:04:31:108
-0.2737,9.8829,-0.981,0.1543,-0.1035,0.6796,0.0549,-0.0784,-0.0373,3123,2019-08-07 17:04:31:114
-0.2737,9.8829,-0.981,0.1783,-0.0514,0.6114,0.0549,-0.0784,-0.0373,3127,2019-08-07 17:04:31:118
-0.2115,9.8399,-0.8019,0.1783,-0.0514,0.6114,0.0538,-0.0656,-0.0309,3133,2019-08-07 17:04:31:124
-0.2115,9.8399,-0.8019,0.1783,-0.0514,0.6114,0.0538,-0.0656,-0.0309,3138,2019-08-07 17:04:31:129
-0.0489,9.8542,-0.7312,0.1783,-0.0514,0.6114,0.057,-0.089,-0.0351,3144,2019-08-07 17:04:31:135
-0.0489,9.8542,-0.7312,-0.0208,-0.0709,0.6149,0.057,-0.089,-0.0351,3148,2019-08-07 17:04:31:139
-0.0489,9.8542,-0.7312,-0.0208,-0.0709,0.6149,0.0634,-0.089,-0.0415,3153,2019-08-07 17:04:31:144
-0.0632,9.9163,-0.8631,-0.0208,-0.0709,0.6149,0.0634,-0.089,-0.0415,3157,2019-08-07 17:04:31:148
-0.0632,9.9163,-0.8631,-0.0208,-0.0709,0.6149,0.0634,-0.0602,-0.0437,3163,2019-08-07 17:04:31:154
-0.1445,9.9783,-0.816,0.0564,-0.1716,0.5788,0.0634,-0.0602,-0.0437,3168,2019-08-07 17:04:31:159
-0.1445,9.9783,-0.816,0.0564,-0.1716,0.5788,0.057,-0.0187,-0.0437,3173,2019-08-07 17:04:31:164
-0.1445,9.9783,-0.816,0.0564,-0.1716,0.5788,0.057,-0.0187,-0.0437,3178,2019-08-07 17:04:31:169
-0.4746,9.8733,-0.9056,0.0564,-0.1716,0.5788,0.0528,-6.0E-4,-0.0405,3183,2019-08-07 17:04:31:174
-0.4746,9.8733,-0.9056,0.4138,-0.1292,0.5576,0.0528,-6.0E-4,-0.0405,3188,2019-08-07 17:04:31:179
-0.4746,9.8733,-0.9056,0.4138,-0.1292,0.5576,0.0528,-6.0E-4,-0.0405,3192,2019-08-07 17:04:31:183
-0.4746,9.8733,-0.7642,0.4138,-0.1292,0.5576,0.0592,-0.0134,-0.0288,3198,2019-08-07 17:04:31:189
-0.4746,9.8733,-0.7642,0.4138,-0.1292,0.5576,0.0592,-0.0134,-0.0288,3202,2019-08-07 17:04:31:193
-0.4746,9.8733,-0.7642,0.2234,-0.1297,0.6262,0.0645,-0.0411,-0.0256,3208,2019-08-07 17:04:31:199
-0.3024,9.9258,-0.9951,0.2234,-0.1297,0.6262,0.0645,-0.0411,-0.0256,3212,2019-08-07 17:04:31:203
-0.3024,9.9258,-0.9951,0.2234,-0.1297,0.6262,0.057,-0.0325,-0.0245,3218,2019-08-07 17:04:31:209
-0.2546,9.9497,-1.1177,0.2234,-0.1297,0.6262,0.057,-0.0325,-0.0245,3222,2019-08-07 17:04:31:213
-0.2546,9.9497,-1.1177,0.1025,-0.0921,0.8581,0.0464,-0.0038,-0.0202,3228,2019-08-07 17:04:31:219
-0.2546,9.9497,-1.1177,0.1025,-0.0921,0.8581,0.0464,-0.0038,-0.0202,3232,2019-08-07 17:04:31:223
-0.2689,9.8829,-0.9574,0.1025,-0.0921,0.8581,0.0464,-0.0038,-0.0202,3238,2019-08-07 17:04:31:229
-0.2689,9.8829,-0.9574,0.1025,-0.0921,0.8581,0.0357,0.0207,-0.0245,3244,2019-08-07 17:04:31:235
-0.2211,9.8542,-0.9621,0.1013,-0.0496,0.6608,0.0357,0.0207,-0.0245,3248,2019-08-07 17:04:31:239
-0.2211,9.8542,-0.9621,0.1013,-0.0496,0.6608,0.0304,0.0101,-0.0309,3253,2019-08-07 17:04:31:244
-0.2211,9.8542,-0.9621,0.1013,-0.0496,0.6608,0.0304,0.0101,-0.0309,3258,2019-08-07 17:04:31:249
-0.245,9.8924,-0.8867,0.1013,-0.0496,0.6608,0.0272,-0.007,-0.0256,3263,2019-08-07 17:04:31:254
-0.245,9.8924,-0.8867,0.1013,-0.0548,0.5135,0.0272,-0.007,-0.0256,3267,2019-08-07 17:04:31:258
-0.1349,9.8876,-0.981,0.0281,-0.0548,0.5135,0.024,-0.0091,-0.0256,3273,2019-08-07 17:04:31:264
-0.1349,9.8876,-0.981,0.0281,-0.0548,0.5135,0.024,-0.0091,-0.0256,3278,2019-08-07 17:04:31:269
-0.1349,9.8876,-0.981,0.0972,-0.0932,0.6359,0.0208,-0.0038,-0.0266,3283,2019-08-07 17:04:31:274
-0.1924,9.9306,-1.0093,0.0972,-0.0932,0.6359,0.0208,-0.0038,-0.0266,3288,2019-08-07 17:04:31:279
-0.1924,9.9306,-1.0093,0.0972,-0.0932,0.6359,0.0155,0.0058,-0.0245,3293,2019-08-07 17:04:31:284
-0.1924,9.9306,-1.0093,0.0972,-0.0932,0.6359,0.0155,0.0058,-0.0245,3298,2019-08-07 17:04:31:289
-0.4076,9.8447,-1.0187,0.2729,-0.041,0.6931,0.0038,0.0154,-0.0202,3303,2019-08-07 17:04:31:294
-0.4076,9.8447,-1.0187,0.2729,-0.041,0.6931,0.0038,0.0154,-0.0202,3307,2019-08-07 17:04:31:298
-0.4938,9.8781,-0.948,0.3557,-0.0746,0.6192,6.0E-4,0.0143,-0.016,3313,2019-08-07 17:04:31:304
-0.4938,9.8781,-0.948,0.3557,-0.0746,0.6192,6.0E-4,0.0143,-0.016,3317,2019-08-07 17:04:31:308
-0.4938,9.8781,-0.948,0.3557,-0.0746,0.6192,-5.0E-4,-0.0187,-0.0011,3323,2019-08-07 17:04:31:314
-0.3694,9.9163,-0.915,0.3557,-0.0746,0.6192,-5.0E-4,-0.0187,-0.0011,3328,2019-08-07 17:04:31:319
-0.3694,9.9163,-0.915,0.2327,-0.1416,0.676,-5.0E-4,-0.0379,0.0053,3333,2019-08-07 17:04:31:324
-0.4029,9.9306,-1.1083,0.2327,-0.1416,0.676,-5.0E-4,-0.0379,0.0053,3337,2019-08-07 17:04:31:328
-0.4029,9.9306,-1.1083,0.2327,-0.1416,0.676,-0.0079,-0.0198,0.0107,3344,2019-08-07 17:04:31:335
-0.4029,9.9306,-1.1083,0.2327,-0.1416,0.676,-0.0079,-0.0198,0.0107,3348,2019-08-07 17:04:31:339
-0.3981,9.8638,-0.8773,0.2564,-0.0606,0.5398,-0.0111,-0.0166,0.016,3353,2019-08-07 17:04:31:344
-0.3981,9.8638,-0.8773,0.2564,-0.0606,0.5398,-0.0111,-0.0166,0.016,3357,2019-08-07 17:04:31:348
-0.3694,9.8924,-0.8631,0.2564,-0.0606,0.5398,-0.0069,-0.0283,0.0149,3363,2019-08-07 17:04:31:354
-0.3694,9.8924,-0.8631,0.2564,-0.0606,0.5398,-0.0069,-0.0283,0.0149,3368,2019-08-07 17:04:31:359
-0.3694,9.8924,-0.8631,0.0811,-0.0941,0.5753,-0.0079,-0.023,0.0139,3373,2019-08-07 17:04:31:364
-0.2641,9.902,-0.9574,0.0811,-0.0941,0.5753,-0.0079,-0.023,0.0139,3378,2019-08-07 17:04:31:369
-0.2641,9.902,-0.9574,0.0811,-0.0941,0.5753,-0.0122,-0.0049,0.0234,3383,2019-08-07 17:04:31:374
-0.1828,9.8685,-0.7029,0.0811,-0.0941,0.5753,-0.0122,-0.0049,0.0234,3388,2019-08-07 17:04:31:379
-0.1828,9.8685,-0.7029,0.1217,-0.1371,0.2716,6.0E-4,-0.0176,0.0224,3394,2019-08-07 17:04:31:385
-0.1828,9.8685,-0.7029,0.1217,-0.1371,0.2716,6.0E-4,-0.0176,0.0224,3398,2019-08-07 17:04:31:389
-0.288,9.8685,-0.7312,0.1217,-0.1371,0.2716,6.0E-4,-0.0176,0.0224,3403,2019-08-07 17:04:31:394
-0.288,9.8685,-0.7312,0.1217,-0.1371,0.2716,0.0176,-0.0262,0.0234,3407,2019-08-07 17:04:31:398
-0.2689,9.8304,-0.8914,0.149,-0.0513,0.4929,0.0176,-0.0262,0.0234,3413,2019-08-07 17:04:31:404
-0.2689,9.8304,-0.8914,0.149,-0.0513,0.4929,0.024,-0.024,0.0256,3418,2019-08-07 17:04:31:409
-0.2689,9.8304,-0.8914,0.149,-0.0513,0.4929,0.024,-0.024,0.0256,3423,2019-08-07 17:04:31:414
-0.2689,9.8304,-0.8914,0.149,-0.0513,0.4929,0.024,-0.024,0.0256,3427,2019-08-07 17:04:31:418
0.0421,9.8924,-0.9574,-0.1575,-0.1231,0.5497,0.0208,-0.0443,0.0107,3433,2019-08-07 17:04:31:424
0.0421,9.8924,-0.9574,-0.1575,-0.1231,0.5497,0.0208,-0.0443,0.0107,3437,2019-08-07 17:04:31:428
-0.1158,9.8924,-1.2167,-0.1575,-0.1231,0.5497,0.008,-0.0357,0.0064,3443,2019-08-07 17:04:31:434
-0.1158,9.8924,-1.2167,-0.1575,-0.1231,0.5497,0.008,-0.0357,0.0064,3449,2019-08-07 17:04:31:440
-0.0536,9.668,-0.4248,-0.158,-0.7389,-1.4435,0.1359,-0.3532,0.0234,3453,2019-08-07 17:04:31:444
-0.0536,9.668,-0.4248,-0.158,-0.7389,-1.4435,0.1359,-0.3532,0.0234,3458,2019-08-07 17:04:31:449
-0.0536,9.668,-0.4248,-0.158,-0.7389,-1.4435,-5.0E-4,-0.0677,0.0043,3462,2019-08-07 17:04:31:453
-0.2306,10.4939,-1.6315,-0.158,-0.7389,-1.4435,-5.0E-4,-0.0677,0.0043,3468,2019-08-07 17:04:31:459
-0.2306,10.4939,-1.6315,-0.0365,-0.057,0.3701,-5.0E-4,-0.0677,0.0043,3472,2019-08-07 17:04:31:463
-0.1158,9.6824,-0.4436,-0.0365,-0.057,0.3701,0.0016,0.1411,0.0075,3479,2019-08-07 17:04:31:470
-0.1158,9.6824,-0.4436,-0.0365,-0.057,0.3701,0.0016,0.1411,0.0075,3482,2019-08-07 17:04:31:473
-0.1158,9.6824,-0.4436,-0.0365,-0.057,0.3701,-0.0058,0.0974,-0.0085,3488,2019-08-07 17:04:31:479
-0.532,9.9163,-0.8631,0.4024,-0.1144,0.4856,-0.0058,0.0974,-0.0085,3493,2019-08-07 17:04:31:484
-0.532,9.9163,-0.8631,0.4024,-0.1144,0.4856,0.0123,0.0037,0.0139,3497,2019-08-07 17:04:31:488
-0.532,9.9163,-0.8631,0.4024,-0.1144,0.4856,0.0123,0.0037,0.0139,3503,2019-08-07 17:04:31:494
-0.1828,9.8924,-1.2072,0.4024,-0.1144,0.4856,0.0038,0.0271,0.0128,3507,2019-08-07 17:04:31:498
-0.1828,9.8924,-1.2072,0.0602,-0.0956,0.6955,0.0038,0.0271,0.0128,3513,2019-08-07 17:04:31:504
-0.0919,9.8924,-0.9527,0.0602,-0.0956,0.6955,-0.0111,0.1208,0.016,3518,2019-08-07 17:04:31:509
-0.0919,9.8924,-0.9527,0.0602,-0.0956,0.6955,-0.0111,0.1208,0.016,3522,2019-08-07 17:04:31:513
-0.0919,9.8924,-0.9527,0.0602,-0.0956,0.6955,-0.009,0.1081,0.0085,3528,2019-08-07 17:04:31:519
-0.1397,9.902,-0.8678,0.0634,-0.0097,0.476,-0.009,0.1081,0.0085,3532,2019-08-07 17:04:31:523
-0.1397,9.902,-0.8678,0.0634,-0.0097,0.476,-0.0016,0.0015,0.0043,3538,2019-08-07 17:04:31:529
-0.1253,9.8733,-0.7971,0.0014,-0.0718,0.409,-0.0016,0.0015,0.0043,3543,2019-08-07 17:04:31:534
-0.1253,9.8733,-0.7971,0.0014,-0.0718,0.409,0.0091,0.0037,-0.0032,3548,2019-08-07 17:04:31:539
-0.1253,9.8733,-0.7971,0.0014,-0.0718,0.409,0.0091,0.0037,-0.0032,3552,2019-08-07 17:04:31:543
0.0038,9.9449,-1.146,-0.1276,-0.1435,0.7547,-0.0058,0.0473,-0.0117,3559,2019-08-07 17:04:31:550
0.0038,9.9449,-1.146,-0.1276,-0.1435,0.7547,-0.0058,0.0473,-0.0117,3563,2019-08-07 17:04:31:554
-0.3789,9.8829,-1.047,-0.1276,-0.1435,0.7547,-0.0175,0.0846,-0.0117,3568,2019-08-07 17:04:31:559
-0.3789,9.8829,-1.047,0.3905,-0.0817,0.5998,-0.0175,0.0846,-0.0117,3573,2019-08-07 17:04:31:564