ACCELEROMETER X (m/s²),ACCELEROMETER Y (m/s²),ACCELEROMETER Z (m/s²),LINEAR ACCELERATION X (m/s²),LINEAR ACCELERATION Y (m/s²),LINEAR ACCELERATION Z (m/s²),GYROSCOPE X (rad/s),GYROSCOPE Y (rad/s),GYROSCOPE Z (rad/s),Time since start in ms ,YYYY-MO-DD HH-MI-SS_SSS
-0.3678,9.8589,0.853,0.361,-0.14,0.1517,0.0102,-0.1923,0.0096,2,2019-08-07 17:05:24:191
-0.3678,9.8589,0.853,0.361,-0.14,0.1517,0.0229,-0.252,0.0181,8,2019-08-07 17:05:24:197
-0.0904,9.9257,0.7587,0.361,-0.14,0.1517,0.0229,-0.252,0.0181,12,2019-08-07 17:05:24:201
-0.0904,9.9257,0.7587,-0.039,-0.1728,0.2647,0.024,-0.268,0.0171,18,2019-08-07 17:05:24:207
-0.0904,9.8445,0.721,-0.039,-0.1728,0.2647,0.024,-0.268,0.0171,22,2019-08-07 17:05:24:211
0.125,9.8445,0.721,-0.039,-0.1728,0.2647,0.0272,-0.2232,0.016,29,2019-08-07 17:05:24:218
0.125,9.8445,0.721,-0.2257,-0.0383,0.3471,0.0272,-0.2232,0.016,33,2019-08-07 17:05:24:222
0.1728,9.8111,0.6975,-0.2257,-0.0383,0.3471,0.0208,-0.1508,0.0032,38,2019-08-07 17:05:24:227
0.1728,9.8111,0.6975,-0.2257,-0.0383,0.3471,0.0208,-0.1508,0.0032,43,2019-08-07 17:05:24:232
0.1345,9.9114,0.8483,-0.2257,-0.0383,0.3471,0.0315,-0.1444,0.0043,48,2019-08-07 17:05:24:237
0.1345,9.9114,0.8483,-0.1821,-0.1809,0.2935,0.0315,-0.1444,0.0043,52,2019-08-07 17:05:24:241
0.1345,9.9114,0.8483,-0.1821,-0.1809,0.2935,0.0315,-0.1444,0.0043,58,2019-08-07 17:05:24:247
6.0E-4,9.9591,0.4995,-0.1821,-0.1809,0.2935,0.0389,-0.1263,-0.0042,62,2019-08-07 17:05:24:251
6.0E-4,9.9591,0.4995,-0.1821,-0.1809,0.2935,0.0389,-0.1263,-0.0042,68,2019-08-07 17:05:24:257
6.0E-4,9.9591,0.4995,-0.1821,-0.1809,0.2935,0.0474,-0.0624,-0.0117,72,2019-08-07 17:05:24:261
-0.0999,9.8302,0.8106,0.0386,-0.0699,0.1741,0.0474,-0.0624,-0.0117,78,2019-08-07 17:05:24:267
-0.0999,9.8302,0.8106,0.0386,-0.0699,0.1741,0.0634,-0.0869,-0.0149,82,2019-08-07 17:05:24:271
-0.0951,9.8302,1.0133,0.0386,-0.0699,0.1741,0.0634,-0.0869,-0.0149,88,2019-08-07 17:05:24:277
-0.0951,9.8302,1.0133,0.0386,-0.0699,0.1741,0.0805,-0.1401,-0.0234,93,2019-08-07 17:05:24:282
-0.0951,9.8302,1.0133,0.0896,-0.1116,0.1095,0.0805,-0.1401,-0.0234,98,2019-08-07 17:05:24:287
-0.0233,9.9114,0.7305,0.0896,-0.1116,0.1095,0.0805,-0.1401,-0.0234,102,2019-08-07 17:05:24:291
-0.0233,9.9114,0.7305,0.0896,-0.1116,0.1095,0.0986,-0.1412,-0.0383,108,2019-08-07 17:05:24:297
0.1585,9.8827,0.6362,0.0896,-0.1116,0.1095,0.0986,-0.1412,-0.0383,113,2019-08-07 17:05:24:302
0.1585,9.8827,0.6362,-0.2678,-0.143,0.3336,0.1124,-0.1295,-0.0469,118,2019-08-07 17:05:24:307
0.1585,9.8827,0.6362,-0.2678,-0.143,0.3336,0.1124,-0.1295,-0.0469,123,2019-08-07 17:05:24:312
0.2686,9.8159,0.655,-0.2678,-0.143,0.3336,0.1337,-0.1124,-0.0554,128,2019-08-07 17:05:24:317
0.2686,9.8159,0.655,-0.2678,-0.143,0.3336,0.1337,-0.1124,-0.0554,133,2019-08-07 17:05:24:322
0.2686,9.8159,0.655,-0.2552,-0.0545,0.1551,0.1625,-0.0933,-0.0756,137,2019-08-07 17:05:24:326
0.192,9.8588,0.8342,-0.2552,-0.0545,0.1551,0.1625,-0.0933,-0.0756,143,2019-08-07 17:05:24:332
0.192,9.8588,0.8342,-0.2552,-0.0545,0.1551,0.1827,-0.0869,-0.0767,148,2019-08-07 17:05:24:337
0.0916,9.9161,0.9332,-0.2552,-0.0545,0.1551,0.1827,-0.0869,-0.0767,152,2019-08-07 17:05:24:341
0.0916,9.9161,0.9332,-0.1953,-0.1039,-0.021,0.1987,-0.0816,-0.0767,159,2019-08-07 17:05:24:348
0.0916,9.9161,0.9332,-0.1953,-0.1039,-0.021,0.1987,-0.0816,-0.0767,162,2019-08-07 17:05:24:351
0.1586,9.8588,0.6975,-0.1953,-0.1039,-0.021,0.204,-0.0528,-0.0777,168,2019-08-07 17:05:24:357
0.1586,9.8588,0.6975,-0.1953,-0.1039,-0.021,0.204,-0.0528,-0.0777,173,2019-08-07 17:05:24:362
0.0677,9.8588,0.3204,-0.1793,-0.0525,0.4983,0.1945,0.0101,-0.0873,178,2019-08-07 17:05:24:367
0.0677,9.8588,0.3204,-0.1793,-0.0525,0.4983,0.1945,0.0101,-0.0873,182,2019-08-07 17:05:24:371
0.0677,9.8588,0.3204,-0.1793,-0.0525,0.4983,0.1859,0.0441,-0.0873,188,2019-08-07 17:05:24:377
-0.1237,10.0546,0.4335,-0.1793,-0.0525,0.4983,0.1859,0.0441,-0.0873,193,2019-08-07 17:05:24:382
-0.1237,10.0546,0.4335,0.0857,-0.3022,0.4426,0.1827,0.0569,-0.0799,198,2019-08-07 17:05:24:387
-0.4012,10.0211,0.2591,0.0857,-0.3022,0.4426,0.1827,0.0569,-0.0799,202,2019-08-07 17:05:24:391
-0.4012,10.0211,0.2591,0.0857,-0.3022,0.4426,0.1827,0.0569,-0.0799,208,2019-08-07 17:05:24:397
-0.4012,10.0211,0.2591,0.0857,-0.3022,0.4426,0.1742,0.0644,-0.0745,213,2019-08-07 17:05:24:402
-0.5734,9.9018,0.3864,0.4398,-0.1227,0.3796,0.1742,0.0644,-0.0745,217,2019-08-07 17:05:24:406
-0.5734,9.9018,0.3864,0.4398,-0.1227,0.3796,0.1614,0.0154,-0.0671,223,2019-08-07 17:05:24:412
-0.5734,9.9018,0.3864,0.4398,-0.1227,0.3796,0.1614,0.0154,-0.0671,228,2019-08-07 17:05:24:417
-0.5925,9.9591,0.5514,0.4398,-0.1227,0.3796,0.1678,-0.0571,-0.0618,232,2019-08-07 17:05:24:421
-0.5925,9.9591,0.5514,0.39,-0.2491,0.2177,0.1678,-0.0571,-0.0618,238,2019-08-07 17:05:24:427
-0.4681,10.0307,0.4524,0.39,-0.2491,0.2177,0.1732,-0.0933,-0.0607,242,2019-08-07 17:05:24:431
-0.4681,10.0307,0.4524,0.39,-0.2491,0.2177,0.1732,-0.0933,-0.0607,248,2019-08-07 17:05:24:437
-0.4681,10.0307,0.4524,0.39,-0.2491,0.2177,0.1732,-0.0933,-0.0607,253,2019-08-07 17:05:24:442
-0.1858,9.9352,0.4477,-0.0144,-0.1226,0.3098,0.1561,-0.0901,-0.066,258,2019-08-07 17:05:24:447
-0.1858,9.9352,0.4477,-0.0144,-0.1226,0.3098,0.1561,-0.0901,-0.066,263,2019-08-07 17:05:24:452
-0.0854,9.9639,0.344,-0.0144,-0.1226,0.3098,0.1582,-0.0666,-0.066,268,2019-08-07 17:05:24:457
-0.0854,9.9639,0.344,-0.0144,-0.1226,0.3098,0.1582,-0.0666,-0.066,273,2019-08-07 17:05:24:462
-0.0854,9.9639,0.344,-0.0309,-0.0679,0.2566,0.1657,-0.0315,-0.0607,278,2019-08-07 17:05:24:467
-0.1763,9.8541,0.4665,-0.0309,-0.0679,0.2566,0.1657,-0.0315,-0.0607,282,2019-08-07 17:05:24:471
-0.1763,9.8541,0.4665,-0.0309,-0.0679,0.2566,0.1785,-0.0219,-0.0639,288,2019-08-07 17:05:24:477
-0.2337,9.8636,0.8153,-0.0309,-0.0679,0.2566,0.1785,-0.0219,-0.0639,293,2019-08-07 17:05:24:482
-0.2337,9.8636,0.8153,-6.0E-4,-0.1518,-0.193,0.2019,-0.0698,-0.0639,298,2019-08-07 17:05:24:487
-0.2337,9.8636,0.8153,-6.0E-4,-0.1518,-0.193,0.2019,-0.0698,-0.0639,303,2019-08-07 17:05:24:492
-0.1236,10.045,0.5797,-6.0E-4,-0.1518,-0.193,0.2019,-0.0698,-0.0639,307,2019-08-07 17:05:24:496
-0.1236,10.045,0.5797,-0.0632,-0.2031,0.1351,0.2243,-0.0922,-0.0586,313,2019-08-07 17:05:24:502
-0.1236,9.9018,0.2308,-0.0632,-0.2031,0.1351,0.2243,-0.0922,-0.0586,317,2019-08-07 17:05:24:506
-0.1236,9.9018,0.2308,-0.0632,-0.2031,0.1351,0.2062,-0.0091,-0.0628,323,2019-08-07 17:05:24:512
-0.1236,9.9018,0.2308,-0.1744,-0.1004,0.3073,0.2062,-0.0091,-0.0628,327,2019-08-07 17:05:24:516
-0.0088,9.8779,0.2921,-0.1744,-0.1004,0.3073,0.1849,0.0282,-0.065,333,2019-08-07 17:05:24:522
-0.0088,9.8779,0.2921,-0.1744,-0.1004,0.3073,0.1849,0.0282,-0.065,337,2019-08-07 17:05:24:526
-0.1475,9.8111,0.4524,-0.1744,-0.1004,0.3073,0.1913,0.0175,-0.0564,343,2019-08-07 17:05:24:532
-0.1475,9.8111,0.4524,-0.1426,0.0733,0.0894,0.1913,0.0175,-0.0564,348,2019-08-07 17:05:24:537
-0.1475,9.8111,0.4524,-0.1426,0.0733,0.0894,0.2019,-0.0272,-0.0458,352,2019-08-07 17:05:24:541
-0.0279,9.6154,0.1931,-0.1426,0.0733,0.0894,0.2019,-0.0272,-0.0458,358,2019-08-07 17:05:24:547
-0.0279,9.6154,0.1931,-0.1426,0.0733,0.0894,0.1955,-0.0272,-0.0554,363,2019-08-07 17:05:24:552
-0.1858,9.9352,-0.0567,-0.0367,-0.1395,0.5371,0.1955,-0.0272,-0.0554,368,2019-08-07 17:05:24:557
-0.1858,9.9352,-0.0567,-0.0367,-0.1395,0.5371,0.1817,0.0133,-0.0618,373,2019-08-07 17:05:24:562
-0.1858,9.9352,-0.0567,-0.0367,-0.1395,0.5371,0.1817,0.0133,-0.0618,378,2019-08-07 17:05:24:567
-0.2671,10.1071,0.1507,-0.0367,-0.1395,0.5371,0.1753,0.0452,-0.0586,383,2019-08-07 17:05:24:572
-0.2671,10.1071,0.1507,0.0805,-0.3623,0.2913,0.1753,0.0452,-0.0586,387,2019-08-07 17:05:24:576
-0.4202,10.2025,0.0894,0.0805,-0.3623,0.2913,0.1774,0.0484,-0.0618,393,2019-08-07 17:05:24:582
-0.4202,10.2025,0.0894,0.0805,-0.3623,0.2913,0.1774,0.0484,-0.0618,397,2019-08-07 17:05:24:586
-0.4202,10.2025,0.0894,0.0805,-0.3623,0.2913,0.171,0.042,-0.066,403,2019-08-07 17:05:24:592
-0.4776,9.9113,-0.0237,0.0805,-0.3623,0.2913,0.171,0.042,-0.066,407,2019-08-07 17:05:24:596
-0.4776,9.9113,-0.0237,0.2668,-0.0794,0.3333,0.1763,0.0207,-0.0607,413,2019-08-07 17:05:24:602
-0.4776,9.9113,-0.0237,0.2668,-0.0794,0.3333,0.1763,0.0207,-0.0607,418,2019-08-07 17:05:24:607
-0.4297,9.8015,0.2686,0.2668,-0.0794,0.3333,0.1763,0.0207,-0.0607,423,2019-08-07 17:05:24:612
-0.4297,9.8015,0.2686,0.2668,-0.0794,0.3333,0.1838,-0.0475,-0.0607,428,2019-08-07 17:05:24:617
-0.2144,9.9161,0.1272,0.0235,-0.1404,0.1362,0.1838,-0.0475,-0.0607,432,2019-08-07 17:05:24:621
-0.2144,9.9161,0.1272,0.0235,-0.1404,0.1362,0.1881,-0.0443,-0.0618,438,2019-08-07 17:05:24:627
-0.2144,9.9161,0.1272,0.0235,-0.1404,0.1362,0.1881,-0.0443,-0.0618,442,2019-08-07 17:05:24:631
-0.1139,9.897,-0.4762,0.0235,-0.1404,0.1362,0.1593,0.0516,-0.0618,448,2019-08-07 17:05:24:637
-0.1139,9.897,-0.4762,-0.0833,-0.1249,0.845,0.1593,0.0516,-0.0618,452,2019-08-07 17:05:24:641
-0.4297,10.0402,-0.2547,-0.0833,-0.1249,0.845,0.1391,0.1549,-0.065,458,2019-08-07 17:05:24:647
-0.4297,10.0402,-0.2547,-0.0833,-0.1249,0.845,0.1391,0.1549,-0.065,463,2019-08-07 17:05:24:652
-0.4297,10.0402,-0.2547,-0.0833,-0.1249,0.845,0.1401,0.1549,-0.0586,468,2019-08-07 17:05:24:657
-0.7311,10.0689,0.1884,0.4424,-0.2675,0.1056,0.1401,0.1549,-0.0586,473,2019-08-07 17:05:24:662
-0.7311,10.0689,0.1884,0.4424,-0.2675,0.1056,0.1668,0.0665,-0.0575,478,2019-08-07 17:05:24:667
-0.8172,9.9686,0.3299,0.4424,-0.2675,0.1056,0.1668,0.0665,-0.0575,483,2019-08-07 17:05:24:672
-0.8172,9.9686,0.3299,0.4424,-0.2675,0.1056,0.1827,-0.0336,-0.0447,487,2019-08-07 17:05:24:676
-0.8172,9.9686,0.3299,0.3652,-0.2288,0.0578,0.1827,-0.0336,-0.0447,493,2019-08-07 17:05:24:682
-0.5827,10.0259,0.146,0.3652,-0.2288,0.0578,0.1902,-0.0762,-0.0437,498,2019-08-07 17:05:24:687
-0.5827,10.0259,0.146,0.3652,-0.2288,0.0578,0.1902,-0.0762,-0.0437,503,2019-08-07 17:05:24:692
-0.3866,10.0593,-0.0708,0.3652,-0.2288,0.0578,0.1859,-0.0762,-0.0405,508,2019-08-07 17:05:24:697
-0.3866,10.0593,-0.0708,0.0733,-0.2091,0.311,0.1859,-0.0762,-0.0405,513,2019-08-07 17:05:24:702
-0.3866,10.0593,-0.0708,0.0733,-0.2091,0.311,0.1859,-0.0762,-0.0405,518,2019-08-07 17:05:24:707
-0.2239,10.1166,-0.1462,0.0733,-0.2091,0.311,0.1731,-0.0475,-0.0469,522,2019-08-07 17:05:24:711
-0.2239,10.1166,-0.1462,0.0733,-0.2091,0.311,0.1731,-0.0475,-0.0469,528,2019-08-07 17:05:24:717
-0.31,10.1548,-0.2688,-0.026,-0.3709,0.4195,0.1721,-0.0166,-0.0511,533,2019-08-07 17:05:24:722
-0.31,10.1548,-0.2688,-0.026,-0.3709,0.4195,0.1721,-0.0166,-0.0511,537,2019-08-07 17:05:24:726
-0.31,10.1548,-0.2688,-0.026,-0.3709,0.4195,0.1636,0.0175,-0.0596,543,2019-08-07 17:05:24:732
-0.3865,9.9877,-0.3584,-0.026,-0.3709,0.4195,0.1636,0.0175,-0.0596,548,2019-08-07 17:05:24:737
-0.3865,9.9877,-0.3584,0.0341,-0.0556,0.3407,0.1444,0.0164,-0.066,553,2019-08-07 17:05:24:742
-0.2956,10.0068,-0.0614,0.0341,-0.0556,0.3407,0.1444,0.0164,-0.066,558,2019-08-07 17:05:24:747
-0.2956,10.0068,-0.0614,0.0341,-0.0556,0.3407,0.1476,-0.0389,-0.0703,563,2019-08-07 17:05:24:752
-0.2956,10.0068,-0.0614,0.0341,-0.0556,0.3407,0.1476,-0.0389,-0.0703,567,2019-08-07 17:05:24:756
-0.3052,10.5987,-0.1085,-0.0416,-0.7956,0.2251,0.1476,-0.0389,-0.0703,573,2019-08-07 17:05:24:762
-0.3052,10.5987,-0.1085,-0.0416,-0.7956,0.2251,0.1678,-0.0677,-0.0895,577,2019-08-07 17:05:24:766
-0.1856,11.1955,-0.4479,-0.0416,-0.7956,0.2251,0.1678,-0.0677,-0.0895,583,2019-08-07 17:05:24:772
-0.1856,11.1955,-0.4479,-0.0416,-0.7956,0.2251,0.1508,-0.023,-0.1267,587,2019-08-07 17:05:24:776
-0.1856,11.1955,-0.4479,-0.252,-2.314,-0.0396,0.1508,-0.023,-0.1267,593,2019-08-07 17:05:24:782
-0.1856,11.1955,-0.4479,-0.252,-2.314,-0.0396,0.1508,-0.023,-0.1267,597,2019-08-07 17:05:24:786
-0.042,12.513,0.6504,-0.252,-2.314,-0.0396,0.1092,-0.0666,-0.1694,603,2019-08-07 17:05:24:792
-0.042,12.513,0.6504,-0.252,-2.314,-0.0396,0.1092,-0.0666,-0.1694,608,2019-08-07 17:05:24:797
-0.042,12.513,0.6504,-0.7289,-1.0167,-1.0683,0.0677,-0.2776,-0.2045,612,2019-08-07 17:05:24:801
0.3359,10.403,0.9521,-0.7289,-1.0167,-1.0683,0.0677,-0.2776,-0.2045,618,2019-08-07 17:05:24:807
0.3359,10.403,0.9521,-0.7289,-1.0167,-1.0683,0.0677,-0.2776,-0.2045,623,2019-08-07 17:05:24:812
0.489,9.6488,0.9898,-0.7289,-1.0167,-1.0683,0.2594,-0.3159,-0.2077,628,2019-08-07 17:05:24:817
0.489,9.6488,0.9898,-0.9687,-0.321,-1.3575,0.2594,-0.3159,-0.2077,632,2019-08-07 17:05:24:821
0.489,9.6488,0.9898,-0.9687,-0.321,-1.3575,0.481,-0.2083,-0.2205,638,2019-08-07 17:05:24:827
0.5608,10.8804,1.8336,-0.9687,-0.321,-1.3575,0.481,-0.2083,-0.2205,643,2019-08-07 17:05:24:832
0.5608,10.8804,1.8336,-0.9687,-0.321,-1.3575,0.5971,-0.1284,-0.2439,648,2019-08-07 17:05:24:837
0.2594,11.9259,2.4134,-0.73,-2.1273,-2.4596,0.5971,-0.1284,-0.2439,652,2019-08-07 17:05:24:841
0.2594,11.9259,2.4134,-0.73,-2.1273,-2.4596,0.6877,-0.0166,-0.3004,659,2019-08-07 17:05:24:848
-0.2716,12.7374,2.979,-0.2264,-2.9406,-3.0834,0.6877,-0.0166,-0.3004,663,2019-08-07 17:05:24:852
-0.2716,12.7374,2.979,-0.2264,-2.9406,-3.0834,0.6877,-0.0166,-0.3004,668,2019-08-07 17:05:24:857
-0.2716,12.7374,2.979,-0.2264,-2.9406,-3.0834,0.8634,-0.1007,-0.3622,673,2019-08-07 17:05:24:862
-0.6831,12.8615,2.5737,-0.2264,-2.9406,-3.0834,0.8634,-0.1007,-0.3622,678,2019-08-07 17:05:24:867
-0.6831,12.8615,2.5737,0.2473,-3.1672,-1.8725,1.1244,-0.3489,-0.3803,683,2019-08-07 17:05:24:872
-0.6831,12.8615,2.5737,0.2473,-3.1672,-1.8725,1.1244,-0.3489,-0.3803,687,2019-08-07 17:05:24:876
-1.0227,13.864,0.0565,0.2473,-3.1672,-1.8725,1.4397,-0.5652,-0.4069,693,2019-08-07 17:05:24:882
-1.0227,13.864,0.0565,0.2473,-3.1672,-1.8725,1.4397,-0.5652,-0.4069,697,2019-08-07 17:05:24:886
-1.0227,13.864,0.0565,0.269,-4.6634,-0.0048,1.6422,-0.6568,-0.4112,703,2019-08-07 17:05:24:892
-0.9809,14.5802,-0.5518,0.269,-4.6634,-0.0048,1.6422,-0.6568,-0.4112,708,2019-08-07 17:05:24:897
-0.9809,14.5802,-0.5518,0.269,-4.6634,-0.0048,1.8339,-0.8027,-0.4101,713,2019-08-07 17:05:24:902
-0.6795,14.2747,-1.3862,0.269,-4.6634,-0.0048,1.8339,-0.8027,-0.4101,718,2019-08-07 17:05:24:907
-0.6795,14.2747,-1.3862,-0.24,-4.4709,1.4148,1.8339,-0.8027,-0.4101,723,2019-08-07 17:05:24:912
-0.6795,14.2747,-1.3862,-0.24,-4.4709,1.4148,2.0587,-1.0232,-0.457,728,2019-08-07 17:05:24:917
-0.6173,15.4252,-2.97,-0.24,-4.4709,1.4148,2.0587,-1.0232,-0.457,733,2019-08-07 17:05:24:922
-0.6173,15.4252,-2.97,-0.24,-4.4709,1.4148,2.2675,-1.3023,-0.5752,738,2019-08-07 17:05:24:927
-0.646,17.1247,-2.5552,-0.2312,-7.4409,1.2547,2.2675,-1.3023,-0.5752,743,2019-08-07 17:05:24:932
-0.646,17.1247,-2.5552,-0.2312,-7.4409,1.2547,2.3101,-1.2906,-0.6455,748,2019-08-07 17:05:24:937
-0.646,17.1247,-2.5552,-0.2312,-7.4409,1.2547,2.3101,-1.2906,-0.6455,753,2019-08-07 17:05:24:942
-0.2824,17.8503,-2.0131,-0.2312,-7.4409,1.2547,2.3101,-1.2906,-0.6455,758,2019-08-07 17:05:24:947
-0.2824,17.8503,-2.0131,-0.7101,-8.8963,0.0795,2.4134,-1.0999,-0.7616,763,2019-08-07 17:05:24:952
-0.2824,17.8503,-2.0131,-0.7101,-8.8963,0.0795,2.4134,-1.0999,-0.7616,768,2019-08-07 17:05:24:957
-0.469,18.8671,-2.032,-0.7101,-8.8963,0.0795,2.6094,-0.9924,-0.8788,773,2019-08-07 17:05:24:962
-0.469,18.8671,-2.032,-0.7101,-8.8963,0.0795,2.6094,-0.9924,-0.8788,777,2019-08-07 17:05:24:966
-1.0144,19.798,-3.102,-0.2253,-10.4863,1.2238,2.7937,-0.8933,-0.947,783,2019-08-07 17:05:24:972
-1.0144,19.798,-3.102,-0.2253,-10.4863,1.2238,2.7937,-0.8933,-0.947,787,2019-08-07 17:05:24:976
-1.0144,19.798,-3.102,-0.2253,-10.4863,1.2238,2.9471,-0.7186,-0.9747,793,2019-08-07 17:05:24:982
-1.2058,20.3136,-4.3559,-0.2253,-10.4863,1.2238,2.9471,-0.7186,-0.9747,798,2019-08-07 17:05:24:987
-1.2058,20.3136,-4.3559,-0.2253,-10.4863,1.2238,3.0408,-0.5162,-0.9417,802,2019-08-07 17:05:24:991
-1.5981,20.4902,-4.601,0.1084,-11.2327,1.8153,3.0408,-0.5162,-0.9417,808,2019-08-07 17:05:24:997
-1.5981,20.4902,-4.601,0.1084,-11.2327,1.8153,3.108,-0.3393,-0.8948,813,2019-08-07 17:05:25:002
-2.354,20.7623,-4.5539,0.1084,-11.2327,1.8153,3.108,-0.3393,-0.8948,818,2019-08-07 17:05:25:007
-2.354,20.7623,-4.5539,0.1084,-11.2327,1.8153,3.1633,-0.2978,-0.8298,823,2019-08-07 17:05:25:012
-2.354,20.7623,-4.5539,0.874,-11.6259,1.0882,3.1633,-0.2978,-0.8298,828,2019-08-07 17:05:25:017
-2.5502,20.39,-4.6293,0.874,-11.6259,1.0882,3.1825,-0.3553,-0.7531,832,2019-08-07 17:05:25:021
-2.5502,20.39,-4.6293,0.874,-11.6259,1.0882,3.1825,-0.3553,-0.7531,838,2019-08-07 17:05:25:027
-2.5502,20.39,-4.6293,0.874,-11.6259,1.0882,3.1484,-0.284,-0.6818,843,2019-08-07 17:05:25:032
-2.4736,19.736,-5.3364,0.6753,-10.9046,1.4621,3.1484,-0.284,-0.6818,848,2019-08-07 17:05:25:037
-2.4736,19.736,-5.3364,0.6753,-10.9046,1.4621,3.1484,-0.284,-0.6818,852,2019-08-07 17:05:25:041
-2.0287,18.1606,-6.0576,0.6753,-10.9046,1.4621,2.9812,0.2529,-0.5891,858,2019-08-07 17:05:25:047
-2.0287,18.1606,-6.0576,0.6753,-10.9046,1.4621,2.9812,0.2529,-0.5891,863,2019-08-07 17:05:25:052
-2.0287,18.1606,-6.0576,0.1917,-8.7188,1.7179,2.7404,0.9507,-0.5784,867,2019-08-07 17:05:25:056
-2.2009,16.7189,-5.8879,0.1917,-8.7188,1.7179,2.7404,0.9507,-0.5784,873,2019-08-07 17:05:25:062
-2.2009,16.7189,-5.8879,0.1917,-8.7188,1.7179,2.4603,1.609,-0.5592,878,2019-08-07 17:05:25:067
-2.9042,15.7403,-4.7801,0.1917,-8.7188,1.7179,2.4603,1.609,-0.5592,883,2019-08-07 17:05:25:072
-2.9042,15.7403,-4.7801,1.1835,-7.205,-0.2283,2.178,1.9691,-0.4985,888,2019-08-07 17:05:25:077
-2.9042,15.7403,-4.7801,1.1835,-7.205,-0.2283,2.178,1.9691,-0.4985,893,2019-08-07 17:05:25:082
-3.4018,14.5134,-4.2616,1.1835,-7.205,-0.2283,1.9234,2.1065,-0.4442,898,2019-08-07 17:05:25:087
-3.4018,14.5134,-4.2616,1.1835,-7.205,-0.2283,1.9234,2.1065,-0.4442,903,2019-08-07 17:05:25:092
-3.4975,13.3534,-3.9929,1.8258,-5.4732,-1.1475,1.6336,2.1289,-0.3995,909,2019-08-07 17:05:25:098
-3.4975,13.3534,-3.9929,1.8258,-5.4732,-1.1475,1.6336,2.1289,-0.3995,913,2019-08-07 17:05:25:102
-3.4975,13.3534,-3.9929,1.8258,-5.4732,-1.1475,1.3343,2.1225,-0.3952,918,2019-08-07 17:05:25:107
-3.7893,12.1838,-3.5593,1.8258,-5.4732,-1.1475,1.3343,2.1225,-0.3952,923,2019-08-07 17:05:25:112
-3.7893,12.1838,-3.5593,2.3138,-3.8533,-2.3772,0.9742,1.984,-0.3835,928,2019-08-07 17:05:25:117
-4.0668,11.3675,-2.5599,2.3138,-3.8533,-2.3772,0.9742,1.984,-0.3835,933,2019-08-07 17:05:25:122
-4.0668,11.3675,-2.5599,2.3138,-3.8533,-2.3772,0.6845,1.7092,-0.3909,938,2019-08-07 17:05:25:127
-4.0668,11.3675,-2.5599,2.3138,-3.8533,-2.3772,0.6845,1.7092,-0.3909,943,2019-08-07 17:05:25:132
-4.4256,10.9187,-2.1923,3.0103,-2.9614,-3.4569,0.6845,1.7092,-0.3909,947,2019-08-07 17:05:25:136
-4.4256,10.9187,-2.1923,3.0103,-2.9614,-3.4569,0.3457,1.3257,-0.4048,953,2019-08-07 17:05:25:142
-4.3682,10.5798,-2.3243,3.0103,-2.9614,-3.4569,0.3457,1.3257,-0.4048,958,2019-08-07 17:05:25:147
-4.3682,10.5798,-2.3243,3.0103,-2.9614,-3.4569,-0.0644,0.9251,-0.3984,963,2019-08-07 17:05:25:152
-4.3682,10.5798,-2.3243,2.7797,-2.3035,-4.0407,-0.5161,0.7067,-0.359,968,2019-08-07 17:05:25:157
-3.7032,9.8303,-1.094,2.7797,-2.3035,-4.0407,-0.5161,0.7067,-0.359,973,2019-08-07 17:05:25:162
-3.7032,9.8303,-1.094,2.7797,-2.3035,-4.0407,-0.5161,0.7067,-0.359,977,2019-08-07 17:05:25:166
-3.7032,9.8303,-1.094,2.7797,-2.3035,-4.0407,-1.0242,0.6173,-0.3387,983,2019-08-07 17:05:25:172
-2.6268,9.0951,0.702,1.1139,-1.045,-6.6377,-1.0242,0.6173,-0.3387,987,2019-08-07 17:05:25:176
-2.6268,9.0951,0.702,1.1139,-1.045,-6.6377,-1.5153,0.5225,-0.2791,993,2019-08-07 17:05:25:182
-1.7226,8.7705,1.9229,1.1139,-1.045,-6.6377,-1.5153,0.5225,-0.2791,998,2019-08-07 17:05:25:187
-1.7226,8.7705,1.9229,1.1139,-1.045,-6.6377,-2.0959,0.3414,-0.2205,1002,2019-08-07 17:05:25:191
-1.1772,8.6893,3.3653,-0.1887,-0.4863,-8.5692,-2.0959,0.3414,-0.2205,1008,2019-08-07 17:05:25:197
-1.1772,8.6893,3.3653,-0.1887,-0.4863,-8.5692,-2.7521,0.2242,-0.1864,1013,2019-08-07 17:05:25:202
-1.1772,8.6893,3.3653,-0.1887,-0.4863,-8.5692,-2.7521,0.2242,-0.1864,1018,2019-08-07 17:05:25:207
-0.5409,9.0617,5.4299,-0.1887,-0.4863,-8.5692,-3.4764,0.0772,-0.0618,1022,2019-08-07 17:05:25:211
-0.5409,9.0617,5.4299,-1.5223,-0.5269,-10.8301,-3.4764,0.0772,-0.0618,1028,2019-08-07 17:05:25:217
0.2294,9.3815,6.5848,-1.5223,-0.5269,-10.8301,-4.2456,-0.1167,0.065,1032,2019-08-07 17:05:25:221
0.2294,9.3815,6.5848,-1.5223,-0.5269,-10.8301,-4.2456,-0.1167,0.065,1038,2019-08-07 17:05:25:227
0.2294,9.3815,6.5848,-1.5223,-0.5269,-10.8301,-5.0179,-0.2765,0.1907,1043,2019-08-07 17:05:25:232
0.0045,10.2122,7.3579,-1.2928,-1.3259,-11.3437,-5.0179,-0.2765,0.1907,1048,2019-08-07 17:05:25:237
0.0045,10.2122,7.3579,-1.2928,-1.3259,-11.3437,-6.0064,-0.5439,0.3526,1052,2019-08-07 17:05:25:241
-0.6796,10.7851,9.6205,-1.2928,-1.3259,-11.3437,-6.0064,-0.5439,0.3526,1059,2019-08-07 17:05:25:248
-0.6796,10.7851,9.6205,-1.2928,-1.3259,-11.3437,-6.7095,-0.7985,0.4868,1063,2019-08-07 17:05:25:252
-0.6796,10.7851,9.6205,-0.3117,-1.2414,-14.2858,-6.7095,-0.7985,0.4868,1068,2019-08-07 17:05:25:257
-1.1485,10.6371,12.4205,-0.3117,-1.2414,-14.2858,-6.7095,-0.7985,0.4868,1073,2019-08-07 17:05:25:262
-1.1485,10.6371,12.4205,-0.3117,-1.2414,-14.2858,-7.4573,-1.3268,0.701,1078,2019-08-07 17:05:25:267
-1.9283,10.3793,14.3532,-0.3117,-1.2414,-14.2858,-7.4573,-1.3268,0.701,1082,2019-08-07 17:05:25:271
-1.9283,10.3793,14.3532,0.8503,-0.6132,-16.117,-8.236,-1.7551,0.9651,1088,2019-08-07 17:05:25:277
-1.9283,10.3793,14.3532,0.8503,-0.6132,-16.117,-8.236,-1.7551,0.9651,1092,2019-08-07 17:05:25:281
-2.1388,10.2313,16.4744,0.8503,-0.6132,-16.117,-8.6792,-1.9649,1.1324,1097,2019-08-07 17:05:25:286
-2.1388,10.2313,16.4744,0.7715,-0.0663,-17.498,-8.6792,-1.9649,1.1324,1103,2019-08-07 17:05:25:292
-2.1388,10.2313,16.4744,0.7715,-0.0663,-17.498,-8.6792,-1.9649,1.1324,1108,2019-08-07 17:05:25:297
-1.1198,8.9424,19.1613,0.7715,-0.0663,-17.498,-9.3141,-2.2025,1.4648,1112,2019-08-07 17:05:25:301
-1.1198,8.9424,19.1613,-0.521,0.949,-17.4747,-9.3141,-2.2025,1.4648,1118,2019-08-07 17:05:25:307
-1.1198,8.9424,19.1613,-0.521,0.949,-17.4747,-10.0033,-2.0821,1.698,1122,2019-08-07 17:05:25:311
-0.4261,9.1572,19.2508,-0.521,0.949,-17.4747,-10.0033,-2.0821,1.698,1128,2019-08-07 17:05:25:317
-0.4261,9.1572,19.2508,-0.521,0.949,-17.4747,-10.619,-1.8936,1.9612,1133,2019-08-07 17:05:25:322
-0.4261,9.1572,19.2508,-0.521,0.949,-17.4747,-10.619,-1.8936,1.9612,1137,2019-08-07 17:05:25:326
-0.9619,11.5393,13.7592,0.6209,-2.5786,-9.7811,-11.1868,-1.6411,2.1391,1143,2019-08-07 17:05:25:332
-0.9619,11.5393,13.7592,0.6209,-2.5786,-9.7811,-11.1868,-1.6411,2.1391,1148,2019-08-07 17:05:25:337
-2.0192,12.7805,9.6629,0.6209,-2.5786,-9.7811,-11.9027,-1.247,2.3425,1153,2019-08-07 17:05:25:342
-2.0192,12.7805,9.6629,0.6209,-2.5786,-9.7811,-11.9027,-1.247,2.3425,1158,2019-08-07 17:05:25:347
-2.0192,12.7805,9.6629,2.7866,-6.5766,-0.9125,-12.7219,-1.0371,2.5034,1163,2019-08-07 17:05:25:352
-3.0861,16.5089,4.2986,2.7866,-6.5766,-0.9125,-12.7219,-1.0371,2.5034,1168,2019-08-07 17:05:25:357
-3.0861,16.5089,4.2986,2.7866,-6.5766,-0.9125,-13.394,-1.3908,2.5215,1173,2019-08-07 17:05:25:362
-3.4163,24.8201,-1.7492,2.7866,-6.5766,-0.9125,-13.394,-1.3908,2.5215,1178,2019-08-07 17:05:25:367
-3.4163,24.8201,-1.7492,4.0156,-20.4148,10.4924,-13.8585,-1.8787,2.5907,1183,2019-08-07 17:05:25:372
-3.4163,24.8201,-1.7492,4.0156,-20.4148,10.4924,-13.8585,-1.8787,2.5907,1187,2019-08-07 17:05:25:376
-3.2823,38.33,-6.3452,4.0156,-20.4148,10.4924,-13.8265,-2.113,2.6994,1194,2019-08-07 17:05:25:383
-3.2823,38.33,-6.3452,4.0156,-20.4148,10.4924,-13.8265,-2.113,2.6994,1198,2019-08-07 17:05:25:387
-3.2823,38.33,-6.3452,4.0885,-45.7547,18.0729,-13.8265,-2.113,2.6994,1203,2019-08-07 17:05:25:392
-1.3303,56.461,-11.4738,4.0885,-45.7547,18.0729,-12.2723,-1.4834,2.6387,1207,2019-08-07 17:05:25:396
-1.3303,56.461,-11.4738,4.0885,-45.7547,18.0729,-12.2723,-1.4834,2.6387,1213,2019-08-07 17:05:25:402
7.4679,61.0104,-21.8159,4.0885,-45.7547,18.0729,-9.8542,-0.0112,2.3713,1217,2019-08-07 17:05:25:406
7.4679,61.0104,-21.8159,-6.2684,-57.6916,35.8998,-9.8542,-0.0112,2.3713,1223,2019-08-07 17:05:25:412
7.4679,61.0104,-21.8159,-6.2684,-57.6916,35.8998,-7.4392,3.2208,1.3614,1228,2019-08-07 17:05:25:417
3.3821,45.0754,-49.8772,-6.2684,-57.6916,35.8998,-7.4392,3.2208,1.3614,1233,2019-08-07 17:05:25:422
3.3821,45.0754,-49.8772,-6.2684,-57.6916,35.8998,-7.012,8.4469,0.6221,1238,2019-08-07 17:05:25:427
3.3821,45.0754,-49.8772,0.9955,-32.1788,71.4318,-7.012,8.4469,0.6221,1243,2019-08-07 17:05:25:432
-0.785,30.014,-60.9876,0.9955,-32.1788,71.4318,-7.4222,9.966,0.8128,1247,2019-08-07 17:05:25:436
-0.785,30.014,-60.9876,0.9955,-32.1788,71.4318,-7.4222,9.966,0.8128,1253,2019-08-07 17:05:25:442
-5.0094,6.5029,-53.0119,0.9955,-32.1788,71.4318,-7.4222,9.966,0.8128,1257,2019-08-07 17:05:25:446
-5.0094,6.5029,-53.0119,5.8342,3.4578,56.6315,-7.8003,8.3489,1.3902,1262,2019-08-07 17:05:25:451
-9.6549,-15.9054,-32.6671,5.8342,3.4578,56.6315,-7.8003,8.3489,1.3902,1268,2019-08-07 17:05:25:457
-9.6549,-15.9054,-32.6671,5.8342,3.4578,56.6315,-7.501,4.0836,1.6213,1272,2019-08-07 17:05:25:461
-9.6549,-15.9054,-32.6671,5.8342,3.4578,56.6315,-7.501,4.0836,1.6213,1278,2019-08-07 17:05:25:467
1.8799,-25.3002,8.5976,-4.0854,22.5044,0.5432,-4.155,0.319,0.8469,1283,2019-08-07 17:05:25:472
1.8799,-25.3002,8.5976,-4.0854,22.5044,0.5432,-4.155,0.319,0.8469,1287,2019-08-07 17:05:25:476
1.8799,-25.3002,8.5976,-4.0854,22.5044,0.5432,6.2324,-2.4965,-1.1324,1293,2019-08-07 17:05:25:482
4.76,-26.0879,3.8838,-4.0854,22.5044,0.5432,6.2324,-2.4965,-1.1324,1298,2019-08-07 17:05:25:487
4.76,-26.0879,3.8838,1.2978,10.8375,23.414,11.9528,-5.737,-2.3244,1303,2019-08-07 17:05:25:492
4.76,-26.0879,3.8838,1.2978,10.8375,23.414,11.9528,-5.737,-2.3244,1308,2019-08-07 17:05:25:497
-8.4206,-4.9399,-23.5081,1.2978,10.8375,23.414,14.6085,-6.5775,-2.1412,1313,2019-08-07 17:05:25:502
-8.4206,-4.9399,-23.5081,1.2978,10.8375,23.414,14.6085,-6.5775,-2.1412,1318,2019-08-07 17:05:25:507
-24.1895,48.8467,-42.6839,23.7889,-48.3164,52.4714,7.5927,-12.3949,-0.6082,1323,2019-08-07 17:05:25:512
-24.1895,48.8467,-42.6839,23.7889,-48.3164,52.4714,7.5927,-12.3949,-0.6082,1328,2019-08-07 17:05:25:517
-24.1895,48.8467,-42.6839,-0.3897,-21.6781,52.7282,3.9559,-8.9882,0.0075,1332,2019-08-07 17:05:25:521
8.372,22.3282,-38.8233,-0.3897,-21.6781,52.7282,3.9559,-8.9882,0.0075,1338,2019-08-07 17:05:25:527
8.372,22.3282,-38.8233,-0.3897,-21.6781,52.7282,3.9559,-8.9882,0.0075,1342,2019-08-07 17:05:25:531
23.916,21.8412,-6.6327,-0.3897,-21.6781,52.7282,7.8984,6.5753,-2.2583,1348,2019-08-07 17:05:25:537
23.916,21.8412,-6.6327,-14.612,-29.4524,10.0184,7.8984,6.5753,-2.2583,1353,2019-08-07 17:05:25:542
23.916,21.8412,-6.6327,-14.612,-29.4524,10.0184,8.6143,6.5849,-2.7782,1357,2019-08-07 17:05:25:546
3.1763,33.5275,4.0016,-14.612,-29.4524,10.0184,8.6143,6.5849,-2.7782,1363,2019-08-07 17:05:25:552
3.1763,33.5275,4.0016,-14.612,-29.4524,10.0184,6.3996,1.3992,-1.7268,1367,2019-08-07 17:05:25:556
-1.828,18.6046,-4.0307,1.7188,-14.7838,13.0654,6.3996,1.3992,-1.7268,1373,2019-08-07 17:05:25:562
-1.828,18.6046,-4.0307,1.7188,-14.7838,13.0654,8.7901,3.012,-1.5127,1378,2019-08-07 17:05:25:567
-1.828,18.6046,-4.0307,1.7188,-14.7838,13.0654,8.7901,3.012,-1.5127,1383,2019-08-07 17:05:25:572
-8.5259,24.9824,-5.7842,1.7188,-14.7838,13.0654,7.3488,0.8324,-0.8884,1388,2019-08-07 17:05:25:577
-8.5259,24.9824,-5.7842,1.7188,-14.7838,13.0654,7.3488,0.8324,-0.8884,1393,2019-08-07 17:05:25:582
-1.0051,19.9269,2.4366,1.6115,-14.8639,6.8306,8.1765,1.4641,-0.5102,1398,2019-08-07 17:05:25:587
-1.0051,19.9269,2.4366,1.6115,-14.8639,6.8306,8.1765,1.4641,-0.5102,1402,2019-08-07 17:05:25:591
-1.0051,19.9269,2.4366,1.6115,-14.8639,6.8306,8.07,0.5278,-0.3228,1408,2019-08-07 17:05:25:597
-0.919,19.5498,0.8481,0.4069,-12.7096,6.3862,8.07,0.5278,-0.3228,1413,2019-08-07 17:05:25:602
-0.919,19.5498,0.8481,0.4069,-12.7096,6.3862,8.07,0.5278,-0.3228,1418,2019-08-07 17:05:25:607
-0.919,19.5498,0.8481,0.4069,-12.7096,6.3862,7.9858,-0.0602,-0.2418,1422,2019-08-07 17:05:25:611
-2.7848,20.3948,-0.6273,0.4069,-12.7096,6.3862,7.9858,-0.0602,-0.2418,1428,2019-08-07 17:05:25:617
-2.7848,20.3948,-0.6273,1.5336,-12.1408,4.9946,7.6939,-0.2435,-0.0714,1433,2019-08-07 17:05:25:622
-1.9715,19.0486,2.9127,1.5336,-12.1408,4.9946,7.6939,-0.2435,-0.0714,1437,2019-08-07 17:05:25:626
-1.9715,19.0486,2.9127,1.5336,-12.1408,4.9946,7.5821,-0.4107,-0.0202,1443,2019-08-07 17:05:25:632
-1.9715,19.0486,2.9127,1.5336,-12.1408,4.9946,7.5821,-0.4107,-0.0202,1448,2019-08-07 17:05:25:637
-1.7562,16.8956,6.0003,1.5336,-12.1408,4.9946,7.5181,-1.2043,-0.0831,1452,2019-08-07 17:05:25:641
-1.7562,16.8956,6.0003,0.9237,-8.0647,-1.0572,7.5181,-1.2043,-0.0831,1458,2019-08-07 17:05:25:647
-1.7754,16.0983,3.568,0.9237,-8.0647,-1.0572,7.3807,-1.7966,-0.213,1464,2019-08-07 17:05:25:653
-1.7754,16.0983,3.568,0.9237,-8.0647,-1.0572,7.3807,-1.7966,-0.213,1468,2019-08-07 17:05:25:657
-1.7754,16.0983,3.568,0.9237,-8.0647,-1.0572,7.3807,-1.7966,-0.213,1473,2019-08-07 17:05:25:662
-1.1678,16.3132,-0.2125,0.6327,-7.0346,3.1772,7.0121,-1.6784,-0.4016,1478,2019-08-07 17:05:25:667
-1.1678,16.3132,-0.2125,0.6327,-7.0346,3.1772,7.0121,-1.6784,-0.4016,1483,2019-08-07 17:05:25:672
-1.1678,16.3132,-0.2125,0.6327,-7.0346,3.1772,6.4252,-0.6568,-0.6402,1488,2019-08-07 17:05:25:677
-0.6942,16.9433,1.0178,0.6327,-7.0346,3.1772,6.4252,-0.6568,-0.6402,1492,2019-08-07 17:05:25:681
-0.6942,16.9433,1.0178,-0.2844,-7.2556,-0.2076,6.0662,0.0495,-0.6977,1498,2019-08-07 17:05:25:687
-0.6942,16.9433,1.0178,-0.2844,-7.2556,-0.2076,6.0662,0.0495,-0.6977,1503,2019-08-07 17:05:25:692
-1.1056,16.633,3.7376,-0.2844,-7.2556,-0.2076,5.7477,0.254,-0.7744,1508,2019-08-07 17:05:25:697
-1.1056,16.633,3.7376,-0.2844,-7.2556,-0.2076,5.7477,0.254,-0.7744,1513,2019-08-07 17:05:25:702
-1.1056,16.633,3.7376,1.3468,-7.2526,-2.1454,5.7477,0.254,-0.7744,1517,2019-08-07 17:05:25:706
-2.6748,16.886,2.4696,1.3468,-7.2526,-2.1454,5.3152,0.3509,-0.767,1523,2019-08-07 17:05:25:712
-2.6748,16.886,2.4696,1.3468,-7.2526,-2.1454,5.3152,0.3509,-0.767,1528,2019-08-07 17:05:25:717
-2.6748,16.886,2.4696,1.3468,-7.2526,-2.1454,4.8976,0.4926,-0.7403,1533,2019-08-07 17:05:25:722
-2.6701,16.7619,3.535,1.6291,-7.0073,-3.5119,4.8976,0.4926,-0.7403,1538,2019-08-07 17:05:25:727
-2.6701,16.7619,3.535,1.6291,-7.0073,-3.5119,4.4928,0.5193,-0.6807,1543,2019-08-07 17:05:25:732
-2.0816,16.1938,4.3834,1.6291,-7.0073,-3.5119,4.4928,0.5193,-0.6807,1548,2019-08-07 17:05:25:737
-2.0816,16.1938,4.3834,1.6291,-7.0073,-3.5119,4.0081,0.3264,-0.604,1553,2019-08-07 17:05:25:742
-2.0816,16.1938,4.3834,0.9267,-6.035,-4.8856,4.0081,0.3264,-0.604,1557,2019-08-07 17:05:25:746
-2.206,15.6448,3.7801,0.9267,-6.035,-4.8856,3.6811,0.2849,-0.5433,1563,2019-08-07 17:05:25:752
-2.206,15.6448,3.7801,0.9267,-6.035,-4.8856,3.6811,0.2849,-0.5433,1568,2019-08-07 17:05:25:757
-2.9858,14.819,2.8892,0.9267,-6.035,-4.8856,3.0387,0.2913,-0.4378,1573,2019-08-07 17:05:25:762
-2.9858,14.819,2.8892,1.9295,-5.2533,-4.575,3.0387,0.2913,-0.4378,1578,2019-08-07 17:05:25:767
-2.9858,14.819,2.8892,1.9295,-5.2533,-4.575,2.5732,0.0963,-0.3355,1583,2019-08-07 17:05:25:772
-3.6365,14.9431,3.9215,1.9295,-5.2533,-4.575,2.5732,0.0963,-0.3355,1588,2019-08-07 17:05:25:777
-3.6365,14.9431,3.9215,1.9295,-5.2533,-4.575,2.5732,0.0963,-0.3355,1592,2019-08-07 17:05:25:781
-3.7513,15.2677,3.7612,2.4112,-5.747,-5.7096,2.2014,-0.3979,-0.2642,1598,2019-08-07 17:05:25:787
-3.7513,15.2677,3.7612,2.4112,-5.747,-5.7096,2.2014,-0.3979,-0.2642,1603,2019-08-07 17:05:25:792
-3.7513,15.2677,3.7612,2.4112,-5.747,-5.7096,1.835,-0.9924,-0.2258,1607,2019-08-07 17:05:25:796
-3.67,15.9742,2.5922,2.4112,-5.747,-5.7096,1.835,-0.9924,-0.2258,1613,2019-08-07 17:05:25:802
-3.67,15.9742,2.5922,1.7719,-6.8779,-4.2094,1.5537,-1.1564,-0.1864,1618,2019-08-07 17:05:25:807
-2.8041,16.3991,1.6306,1.7719,-6.8779,-4.2094,1.5537,-1.1564,-0.1864,1623,2019-08-07 17:05:25:812
-2.8041,16.3991,1.6306,1.7719,-6.8779,-4.2094,1.3183,-1.1234,-0.1694,1628,2019-08-07 17:05:25:817
-1.9238,16.6473,0.9565,1.7719,-6.8779,-4.2094,1.3183,-1.1234,-0.1694,1633,2019-08-07 17:05:25:822
-1.9238,16.6473,0.9565,0.2849,-7.3231,-3.1131,1.0914,-0.9444,-0.1385,1638,2019-08-07 17:05:25:827
-1.9238,16.6473,0.9565,0.2849,-7.3231,-3.1131,1.0914,-0.9444,-0.1385,1643,2019-08-07 17:05:25:832
-1.565,16.5853,-0.5661,0.2849,-7.3231,-3.1131,0.7814,-0.5694,-0.1065,1648,2019-08-07 17:05:25:837
-1.565,16.5853,-0.5661,0.2849,-7.3231,-3.1131,0.7814,-0.5694,-0.1065,1653,2019-08-07 17:05:25:842
-1.565,16.5853,-0.5661,-0.2123,-7.1621,-2.7925,0.4757,-0.1327,-0.0841,1658,2019-08-07 17:05:25:847
-1.2588,16.4325,0.9848,-0.2123,-7.1621,-2.7925,0.4757,-0.1327,-0.0841,1663,2019-08-07 17:05:25:852
-1.2588,16.4325,0.9848,-0.2123,-7.1621,-2.7925,0.2616,0.1549,-0.0032,1668,2019-08-07 17:05:25:857
-1.2588,16.4325,0.9848,-0.2123,-7.1621,-2.7925,0.2616,0.1549,-0.0032,1673,2019-08-07 17:05:25:862
-0.5698,16.1031,1.7201,-1.0294,-6.7416,-4.1679,0.2616,0.1549,-0.0032,1679,2019-08-07 17:05:25:868
-0.5698,16.1031,1.7201,-1.0294,-6.7416,-4.1679,0.1391,0.2199,0.0607,1682,2019-08-07 17:05:25:871
-0.3546,15.7833,1.0036,-1.0294,-6.7416,-4.1679,0.1391,0.2199,0.0607,1688,2019-08-07 17:05:25:877
-0.3546,15.7833,1.0036,-1.0294,-6.7416,-4.1679,-0.091,0.3946,0.1662,1693,2019-08-07 17:05:25:882
-0.2968,15.6973,1.5034,-1.1837,-6.4062,-3.9637,-0.091,0.3946,0.1662,1698,2019-08-07 17:05:25:887
-0.2968,15.6973,1.5034,-1.1837,-6.4062,-3.9637,-0.2924,0.5278,0.2834,1702,2019-08-07 17:05:25:891
-0.2968,15.6973,1.5034,-1.1837,-6.4062,-3.9637,-0.2924,0.5278,0.2834,1708,2019-08-07 17:05:25:897
-0.4451,15.6925,1.8003,-1.1837,-6.4062,-3.9637,-0.5161,0.548,0.3824,1713,2019-08-07 17:05:25:902
-0.4451,15.6925,1.8003,-0.5989,-6.4874,-4.6054,-0.5161,0.548,0.3824,1718,2019-08-07 17:05:25:907
-0.9761,15.9837,2.3047,-0.5989,-6.4874,-4.6054,-0.7419,0.5374,0.4932,1723,2019-08-07 17:05:25:912
-0.9761,15.9837,2.3047,-0.5989,-6.4874,-4.6054,-0.7419,0.5374,0.4932,1728,2019-08-07 17:05:25:917
-0.9761,15.9837,2.3047,-0.5989,-6.4874,-4.6054,-0.7419,0.5374,0.4932,1733,2019-08-07 17:05:25:922
-1.0048,16.0124,2.7384,-0.2815,-6.5579,-5.1212,-0.9944,0.4628,0.5976,1738,2019-08-07 17:05:25:927
-1.0048,16.0124,2.7384,-0.2815,-6.5579,-5.1212,-0.9944,0.4628,0.5976,1742,2019-08-07 17:05:25:931
-1.0622,15.979,2.5121,-0.1913,-6.4253,-4.7232,-1.1254,0.4127,0.62,1748,2019-08-07 17:05:25:937
-1.0622,15.979,2.5121,-0.1913,-6.4253,-4.7232,-1.1254,0.4127,0.62,1753,2019-08-07 17:05:25:942
-0.8374,15.4013,2.5027,-0.1913,-6.4253,-4.7232,-1.3342,0.4127,0.6115,1758,2019-08-07 17:05:25:947
-0.8374,15.4013,2.5027,-0.1913,-6.4253,-4.7232,-1.3342,0.4127,0.6115,1763,2019-08-07 17:05:25:952
-0.8374,15.4013,2.5027,-0.2752,-4.9965,-4.3323,-1.461,0.5001,0.6019,1768,2019-08-07 17:05:25:957
-0.8422,14.3081,2.3,-0.2752,-4.9965,-4.3323,-1.461,0.5001,0.6019,1773,2019-08-07 17:05:25:962
-0.8422,14.3081,2.3,-0.2752,-4.9965,-4.3323,-1.5536,0.5746,0.5753,1777,2019-08-07 17:05:25:966
-1.2249,13.6255,2.4367,-0.2752,-4.9965,-4.3323,-1.5536,0.5746,0.5753,1783,2019-08-07 17:05:25:972
-1.2249,13.6255,2.4367,0.3269,-3.7431,-4.286,-1.6825,0.6492,0.5529,1788,2019-08-07 17:05:25:977
-1.2249,13.6255,2.4367,0.3269,-3.7431,-4.286,-1.6825,0.6492,0.5529,1793,2019-08-07 17:05:25:982
-1.3062,13.086,2.762,0.3269,-3.7431,-4.286,-1.7092,0.5736,0.5614,1798,2019-08-07 17:05:25:987
-1.3062,13.086,2.762,0.3269,-3.7431,-4.286,-1.7092,0.5736,0.5614,1802,2019-08-07 17:05:25:991
-1.2967,12.0358,2.135,0.4855,-2.3425,-3.4075,-1.7433,0.4777,0.5561,1808,2019-08-07 17:05:25:997
-1.2967,12.0358,2.135,0.4855,-2.3425,-3.4075,-1.7433,0.4777,0.5561,1813,2019-08-07 17:05:26:002
-1.2967,12.0358,2.135,0.4855,-2.3425,-3.4075,-1.7433,0.4777,0.5561,1818,2019-08-07 17:05:26:007
-0.9139,12.1026,1.6731,0.4855,-2.3425,-3.4075,-1.8189,0.466,0.5167,1823,2019-08-07 17:05:26:012
-0.9139,12.1026,1.6731,0.4855,-2.3425,-3.4075,-1.8189,0.466,0.5167,1828,2019-08-07 17:05:26:017
0.062,12.7566,1.6354,-0.383,-2.6983,-2.5155,-1.8753,0.5075,0.4251,1833,2019-08-07 17:05:26:022
0.062,12.7566,1.6354,-0.383,-2.6983,-2.5155,-1.8753,0.5075,0.4251,1838,2019-08-07 17:05:26:027
0.062,12.7566,1.6354,-0.383,-2.6983,-2.5155,-1.8082,0.6311,0.2599,1842,2019-08-07 17:05:26:031
0.7892,13.678,0.7067,-0.383,-2.6983,-2.5155,-1.8082,0.6311,0.2599,1847,2019-08-07 17:05:26:036
0.7892,13.678,0.7067,-1.5391,-3.9978,-0.8652,-1.7805,0.891,0.1566,1853,2019-08-07 17:05:26:042
0.7892,13.678,0.7067,-1.5391,-3.9978,-0.8652,-1.7805,0.891,0.1566,1857,2019-08-07 17:05:26:046
1.2198,14.0742,-1.1882,-1.5391,-3.9978,-0.8652,-1.8658,1.3352,0.0394,1863,2019-08-07 17:05:26:052
1.2198,14.0742,-1.1882,-1.5391,-3.9978,-0.8652,-1.8658,1.3352,0.0394,1868,2019-08-07 17:05:26:057
0.5787,13.8307,-6.7317,-1.4651,-3.4482,5.6499,-1.8658,1.3352,0.0394,1872,2019-08-07 17:05:26:061
0.5787,13.8307,-6.7317,-1.4651,-3.4482,5.6499,-2.0703,1.5749,-0.0575,1878,2019-08-07 17:05:26:067
0.5787,13.8307,-6.7317,-1.4651,-3.4482,5.6499,-2.0703,1.5749,-0.0575,1882,2019-08-07 17:05:26:071
0.5213,15.3966,-0.9761,-1.4651,-3.4482,5.6499,-1.8583,1.6889,0.5486,1888,2019-08-07 17:05:26:077
0.5213,15.3966,-0.9761,-2.7733,-0.5953,-0.4143,-1.8583,1.6889,0.5486,1893,2019-08-07 17:05:26:082
2.6168,7.2142,-3.8562,-2.7733,-0.5953,-0.4143,-1.511,2.7499,0.3185,1898,2019-08-07 17:05:26:087
2.6168,7.2142,-3.8562,-2.7733,-0.5953,-0.4143,-1.511,2.7499,0.3185,1903,2019-08-07 17:05:26:092
2.6168,7.2142,-3.8562,-2.7733,-0.5953,-0.4143,-1.511,2.7499,0.3185,1908,2019-08-07 17:05:26:097
-2.3062,12.031,2.6394,1.8191,-2.242,-2.2225,-1.3321,2.4101,0.0661,1912,2019-08-07 17:05:26:101
-2.3062,12.031,2.6394,1.8191,-2.242,-2.2225,-1.3321,2.4101,0.0661,1917,2019-08-07 17:05:26:106
-2.3062,12.031,2.6394,1.8191,-2.242,-2.2225,-1.1265,1.1115,0.4229,1923,2019-08-07 17:05:26:112
-3.4257,10.0499,5.2508,1.8191,-2.242,-2.2225,-1.1265,1.1115,0.4229,1927,2019-08-07 17:05:26:116
-3.4257,10.0499,5.2508,3.4608,-0.3971,-5.0061,-0.9912,0.3051,0.5156,1932,2019-08-07 17:05:26:121
-4.2868,9.9305,7.6596,3.4608,-0.3971,-5.0061,-0.9912,0.3051,0.5156,1938,2019-08-07 17:05:26:127
-4.2868,9.9305,7.6596,3.4608,-0.3971,-5.0061,-1.0199,-0.2957,0.5497,1942,2019-08-07 17:05:26:131
-4.2868,9.9305,7.6596,3.4608,-0.3971,-5.0061,-1.0199,-0.2957,0.5497,1948,2019-08-07 17:05:26:137
-2.7176,9.2145,4.3741,2.3595,0.5467,-3.4646,-1.0306,-1.362,0.5667,1953,2019-08-07 17:05:26:142
-2.7176,9.2145,4.3741,2.3595,0.5467,-3.4646,-1.0306,-1.362,0.5667,1958,2019-08-07 17:05:26:147
-0.7561,10.1979,1.7061,0.4636,-0.4453,-0.6873,-1.0306,-1.362,0.5667,1962,2019-08-07 17:05:26:151
-0.7561,10.1979,1.7061,0.4636,-0.4453,-0.6873,-0.793,-1.8169,0.5827,1968,2019-08-07 17:05:26:157
-0.7561,10.1979,1.7061,0.4636,-0.4453,-0.6873,-0.793,-1.8169,0.5827,1972,2019-08-07 17:05:26:161
2.2006,11.0906,-1.6549,0.4636,-0.4453,-0.6873,-0.6428,-1.8073,0.522,1978,2019-08-07 17:05:26:167
2.2006,11.0906,-1.6549,-3.9481,-1.7837,3.2494,-0.6428,-1.8073,0.522,1983,2019-08-07 17:05:26:172
5.4347,11.8926,-0.3397,-3.9481,-1.7837,3.2494,-0.4745,-1.4067,0.441,1988,2019-08-07 17:05:26:177
5.4347,11.8926,-0.3397,-3.9481,-1.7837,3.2494,-0.4745,-1.4067,0.441,1993,2019-08-07 17:05:26:182
5.4347,11.8926,-0.3397,-3.9481,-1.7837,3.2494,-0.4106,-0.7473,0.4038,1998,2019-08-07 17:05:26:187
5.7553,13.3008,1.4892,-5.7399,-3.569,-0.2532,-0.4106,-0.7473,0.4038,2003,2019-08-07 17:05:26:192
5.7553,13.3008,1.4892,-5.7399,-3.569,-0.2532,-0.4106,-0.7473,0.4038,2008,2019-08-07 17:05:26:197
5.7553,13.3008,1.4892,-5.7399,-3.569,-0.2532,-0.6056,0.3659,0.359,2013,2019-08-07 17:05:26:202
2.1336,13.5491,0.603,-5.7399,-3.569,-0.2532,-0.6056,0.3659,0.359,2018,2019-08-07 17:05:26:207
2.1336,13.5491,0.603,1.2439,-2.0139,0.0489,-0.6578,1.3842,0.2056,2023,2019-08-07 17:05:26:212
-2.732,10.532,3.0118,1.2439,-2.0139,0.0489,-0.6578,1.3842,0.2056,2028,2019-08-07 17:05:26:217
-2.732,10.532,3.0118,1.2439,-2.0139,0.0489,-0.5054,1.2617,0.13,2033,2019-08-07 17:05:26:222
-4.5787,8.866,6.3256,1.2439,-2.0139,0.0489,-0.5054,1.2617,0.13,2038,2019-08-07 17:05:26:227
-4.5787,8.866,6.3256,4.4617,0.8708,-4.8665,-0.1933,0.1294,0.1278,2043,2019-08-07 17:05:26:232
-4.5787,8.866,6.3256,4.4617,0.8708,-4.8665,-0.1933,0.1294,0.1278,2048,2019-08-07 17:05:26:237
-2.3923,9.2335,4.6616,4.4617,0.8708,-4.8665,-0.1933,0.1294,0.1278,2053,2019-08-07 17:05:26:242
-2.3923,9.2335,4.6616,4.4617,0.8708,-4.8665,0.1092,-1.4952,0.1918,2058,2019-08-07 17:05:26:247
-2.3923,9.2335,4.6616,-0.4039,0.334,0.9906,0.1092,-1.4952,0.1918,2063,2019-08-07 17:05:26:252
1.1194,9.4579,-0.9855,-0.4039,0.334,0.9906,0.252,-1.493,0.1523,2067,2019-08-07 17:05:26:256
1.1194,9.4579,-0.9855,-0.4039,0.334,0.9906,0.252,-1.493,0.1523,2073,2019-08-07 17:05:26:262
3.2292,9.7253,-2.9795,-0.4039,0.334,0.9906,0.0858,-0.464,0.1374,2077,2019-08-07 17:05:26:266
3.2292,9.7253,-2.9795,-3.2116,0.1273,3.1266,0.0858,-0.464,0.1374,2083,2019-08-07 17:05:26:272
3.2292,9.7253,-2.9795,-3.2116,0.1273,3.1266,-0.0047,0.5086,0.1268,2088,2019-08-07 17:05:26:277
2.5929,9.415,0.6077,-3.2116,0.1273,3.1266,-0.0047,0.5086,0.1268,2092,2019-08-07 17:05:26:281
2.5929,9.415,0.6077,-3.2116,0.1273,3.1266,0.0411,0.8537,0.0703,2097,2019-08-07 17:05:26:286
2.5929,9.415,0.6077,0.2062,0.1227,-1.6423,0.0411,0.8537,0.0703,2103,2019-08-07 17:05:26:292
-0.2442,9.5534,3.2003,0.2062,0.1227,-1.6423,0.1689,0.4681,0.0842,2108,2019-08-07 17:05:26:297
-0.2442,9.5534,3.2003,0.8451,0.4579,-1.8659,0.1689,0.4681,0.0842,2113,2019-08-07 17:05:26:302
-0.6891,9.1619,3.0683,0.8451,0.4579,-1.8659,0.1689,0.4681,0.0842,2118,2019-08-07 17:05:26:307
-0.6891,9.1619,3.0683,0.8451,0.4579,-1.8659,0.3745,-0.105,0.1023,2122,2019-08-07 17:05:26:311
0.33,8.9137,2.5404,0.8451,0.4579,-1.8659,0.3745,-0.105,0.1023,2128,2019-08-07 17:05:26:317
0.33,8.9137,2.5404,-0.6157,0.6338,-0.6718,0.497,-0.3969,0.1161,2133,2019-08-07 17:05:26:322
0.33,8.9137,2.5404,-0.6157,0.6338,-0.6718,0.497,-0.3969,0.1161,2138,2019-08-07 17:05:26:327
1.4638,9.3338,0.9377,-0.6157,0.6338,-0.6718,0.5566,-0.3234,0.1012,2143,2019-08-07 17:05:26:332
1.4638,9.3338,0.9377,-1.2935,0.235,0.7114,0.5566,-0.3234,0.1012,2148,2019-08-07 17:05:26:337
1.4638,9.3338,0.9377,-1.2935,0.235,0.7114,0.5226,0.2007,0.0639,2152,2019-08-07 17:05:26:341
1.4542,10.2026,-0.83,-1.2935,0.235,0.7114,0.5226,0.2007,0.0639,2158,2019-08-07 17:05:26:347
1.4542,10.2026,-0.83,-1.2935,0.235,0.7114,0.5226,0.2007,0.0639,2163,2019-08-07 17:05:26:352
1.0237,10.5368,-0.2879,-1.0491,-0.7484,1.7022,0.4789,0.6205,0.0117,2167,2019-08-07 17:05:26:356
1.0237,10.5368,-0.2879,-1.0491,-0.7484,1.7022,0.4789,0.6205,0.0117,2173,2019-08-07 17:05:26:362
1.0237,10.5368,-0.2879,-1.0491,-0.7484,1.7022,0.464,0.7334,-0.0415,2177,2019-08-07 17:05:26:366
0.306,10.4986,-0.4057,0.3385,-0.7124,1.9508,0.464,0.7334,-0.0415,2183,2019-08-07 17:05:26:372
0.306,10.4986,-0.4057,0.3385,-0.7124,1.9508,0.416,0.6141,-0.0532,2188,2019-08-07 17:05:26:377
-0.8757,10.2886,-1.4051,0.3385,-0.7124,1.9508,0.416,0.6141,-0.0532,2193,2019-08-07 17:05:26:382
-0.8757,10.2886,-1.4051,0.3385,-0.7124,1.9508,0.3447,0.5438,-0.0319,2198,2019-08-07 17:05:26:387
-1.1819,10.2408,0.4428,1.3763,-0.4831,0.5498,0.3447,0.5438,-0.0319,2203,2019-08-07 17:05:26:392
-1.1819,10.2408,0.4428,1.3763,-0.4831,0.5498,0.3447,0.5438,-0.0319,2207,2019-08-07 17:05:26:396
-1.1819,10.2408,0.4428,1.3763,-0.4831,0.5498,0.3234,0.2956,-0.0117,2213,2019-08-07 17:05:26:402
0.2247,9.7205,1.4327,0.2312,-0.055,-0.5798,0.3234,0.2956,-0.0117,2217,2019-08-07 17:05:26:406
0.2247,9.7205,1.4327,0.2312,-0.055,-0.5798,0.4267,-0.3894,-0.0181,2223,2019-08-07 17:05:26:412
0.2247,9.7205,1.4327,0.2312,-0.055,-0.5798,0.4267,-0.3894,-0.0181,2228,2019-08-07 17:05:26:417
1.6121,9.4245,-0.8865,0.2312,-0.055,-0.5798,0.4128,-0.3894,-0.0351,2233,2019-08-07 17:05:26:422
1.6121,9.4245,-0.8865,-1.7395,0.2493,2.6768,0.4128,-0.3894,-0.0351,2237,2019-08-07 17:05:26:426
1.9422,9.9974,-2.5505,-1.7395,0.2493,2.6768,0.2658,0.0175,-0.0714,2243,2019-08-07 17:05:26:432
1.9422,9.9974,-2.5505,-1.7395,0.2493,2.6768,0.2658,0.0175,-0.0714,2248,2019-08-07 17:05:26:437
1.9422,9.9974,-2.5505,-1.7395,0.2493,2.6768,0.0517,0.6034,-0.0916,2253,2019-08-07 17:05:26:442
0.2869,10.8328,-2.1875,-0.0988,-1.0579,2.9956,0.0517,0.6034,-0.0916,2258,2019-08-07 17:05:26:447
0.2869,10.8328,-2.1875,-0.0988,-1.0579,2.9956,-0.0612,0.7643,-0.0895,2263,2019-08-07 17:05:26:452
-1.4402,10.8853,-1.2071,-0.0988,-1.0579,2.9956,-0.0612,0.7643,-0.0895,2268,2019-08-07 17:05:26:457
-1.4402,10.8853,-1.2071,-0.0988,-1.0579,2.9956,-0.0612,0.7643,-0.0895,2272,2019-08-07 17:05:26:461
-1.4402,10.8853,-1.2071,2.3503,-0.785,1.3669,-0.0932,0.4575,-0.0607,2278,2019-08-07 17:05:26:467
-2.3349,10.2122,-0.2313,2.3503,-0.785,1.3669,-0.0932,0.4575,-0.0607,2283,2019-08-07 17:05:26:472
-2.3349,10.2122,-0.2313,2.3503,-0.785,1.3669,-0.1155,-0.1551,0.0266,2288,2019-08-07 17:05:26:477
-1.4546,10.1358,-0.731,2.3503,-0.785,1.3669,-0.1155,-0.1551,0.0266,2293,2019-08-07 17:05:26:482
-1.4546,10.1358,-0.731,1.2376,-0.442,1.7604,-0.1528,-0.4725,0.1033,2298,2019-08-07 17:05:26:487
-1.4546,10.1358,-0.731,1.2376,-0.442,1.7604,-0.1528,-0.4725,0.1033,2303,2019-08-07 17:05:26:492
-1.4546,10.1358,-0.731,1.2376,-0.442,1.7604,-0.1528,-0.4725,0.1033,2307,2019-08-07 17:05:26:496
-0.2872,10.4891,-1.6549,1.2376,-0.442,1.7604,-0.2093,-0.4629,0.1129,2313,2019-08-07 17:05:26:502
-0.2872,10.4891,-1.6549,0.0955,-0.6256,1.9517,-0.2093,-0.4629,0.1129,2317,2019-08-07 17:05:26:506
-0.2872,10.4891,-1.6549,0.0955,-0.6256,1.9517,-0.3169,-0.1401,0.1065,2323,2019-08-07 17:05:26:512
0.239,10.2933,0.0232,0.0955,-0.6256,1.9517,-0.3169,-0.1401,0.1065,2328,2019-08-07 17:05:26:517
0.239,10.2933,0.0232,0.0955,-0.6256,1.9517,-0.319,-0.1092,0.0874,2333,2019-08-07 17:05:26:522
0.3395,10.0546,0.9141,-0.1539,-0.2778,-0.0366,-0.319,-0.1092,0.0874,2337,2019-08-07 17:05:26:526
0.3395,10.0546,0.9141,-0.1539,-0.2778,-0.0366,-0.2775,-0.1881,0.0693,2343,2019-08-07 17:05:26:532
0.3395,10.0546,0.9141,-0.1539,-0.2778,-0.0366,-0.2775,-0.1881,0.0693,2348,2019-08-07 17:05:26:537
0.7366,9.9114,0.0374,-0.1539,-0.2778,-0.0366,-0.2636,-0.2094,0.0522,2353,2019-08-07 17:05:26:542
0.7366,9.9114,0.0374,-0.7565,-0.1922,1.1772,-0.2636,-0.2094,0.0522,2358,2019-08-07 17:05:26:547
0.7366,9.9114,0.0374,-0.7565,-0.1922,1.1772,-0.2806,-0.1519,0.0213,2362,2019-08-07 17:05:26:551
0.9328,10.0165,-0.2172,-0.7565,-0.1922,1.1772,-0.2806,-0.1519,0.0213,2368,2019-08-07 17:05:26:557
0.9328,10.0165,-0.2172,-0.7565,-0.1922,1.1772,-0.2753,-0.0613,0.0149,2373,2019-08-07 17:05:26:562
0.9519,9.8303,0.1505,-0.7397,-0.0729,0.8415,-0.2753,-0.0613,0.0149,2377,2019-08-07 17:05:26:566
0.9519,9.8303,0.1505,-0.7397,-0.0729,0.8415,-0.286,-0.0624,0.0032,2383,2019-08-07 17:05:26:572
0.5787,9.6823,0.3673,-0.7397,-0.0729,0.8415,-0.286,-0.0624,0.0032,2388,2019-08-07 17:05:26:577
0.5787,9.6823,0.3673,-0.7397,-0.0729,0.8415,-0.2636,-0.0613,-0.0074,2393,2019-08-07 17:05:26:582
0.5787,9.6823,0.3673,0.1056,0.1129,0.3391,-0.2636,-0.0613,-0.0074,2398,2019-08-07 17:05:26:587
0.5787,9.6823,0.3673,0.1056,0.1129,0.3391,-0.2636,-0.0613,-0.0074,2403,2019-08-07 17:05:26:592
0.0668,9.6011,0.9283,0.1056,0.1129,0.3391,-0.237,-0.0602,0.0139,2408,2019-08-07 17:05:26:597
0.0668,9.6011,0.9283,0.1056,0.1129,0.3391,-0.237,-0.0602,0.0139,2413,2019-08-07 17:05:26:602
0.0668,9.6011,0.9283,0.6293,-0.0304,-0.1585,-0.237,-0.0602,0.0139,2418,2019-08-07 17:05:26:607
-0.5025,9.8112,1.2912,0.6293,-0.0304,-0.1585,-0.1645,-0.0975,0.0405,2423,2019-08-07 17:05:26:612
-0.5025,9.8112,1.2912,0.6293,-0.0304,-0.1585,-0.1645,-0.0975,0.0405,2428,2019-08-07 17:05:26:617
-0.5264,9.6775,1.4892,0.6293,-0.0304,-0.1585,-0.1006,-0.1274,0.0714,2433,2019-08-07 17:05:26:622
-0.5264,9.6775,1.4892,0.628,-0.0098,-0.2636,-0.1006,-0.1274,0.0714,2437,2019-08-07 17:05:26:626
-0.5264,9.6775,1.4892,0.628,-0.0098,-0.2636,-0.0463,-0.1742,0.082,2443,2019-08-07 17:05:26:632
-0.0241,9.816,1.3997,0.628,-0.0098,-0.2636,-0.0463,-0.1742,0.082,2448,2019-08-07 17:05:26:637
-0.0241,9.816,1.3997,0.628,-0.0098,-0.2636,0.0411,-0.235,0.0863,2453,2019-08-07 17:05:26:642
0.8131,9.9067,0.735,-0.5661,-0.1631,0.378,0.0411,-0.235,0.0863,2458,2019-08-07 17:05:26:647
0.8131,9.9067,0.735,-0.5661,-0.1631,0.378,0.0411,-0.235,0.0863,2462,2019-08-07 17:05:26:651
0.8131,9.9067,0.735,-0.5661,-0.1631,0.378,0.0666,-0.219,0.0746,2468,2019-08-07 17:05:26:657
1.1576,9.9162,-0.3492,-0.5661,-0.1631,0.378,0.0666,-0.219,0.0746,2473,2019-08-07 17:05:26:662
1.1576,9.9162,-0.3492,-0.7686,-0.2664,1.3328,0.0293,-0.0187,0.0373,2478,2019-08-07 17:05:26:667
1.0332,9.9687,0.0515,-0.7686,-0.2664,1.3328,0.0293,-0.0187,0.0373,2483,2019-08-07 17:05:26:672
1.0332,9.9687,0.0515,-0.7686,-0.2664,1.3328,0.0123,0.0484,0.0096,2487,2019-08-07 17:05:26:676
1.0332,9.9687,0.0515,-0.7686,-0.2664,1.3328,0.0123,0.0484,0.0096,2493,2019-08-07 17:05:26:682
0.8179,9.6727,0.5983,-0.7686,-0.2664,1.3328,0.0123,0.0484,0.0096,2497,2019-08-07 17:05:26:686
0.8179,9.6727,0.5983,-0.4557,-0.046,0.5229,0.0261,-0.0389,-0.0181,2503,2019-08-07 17:05:26:692
0.4591,10.1167,0.438,-0.4557,-0.046,0.5229,0.0261,-0.0389,-0.0181,2507,2019-08-07 17:05:26:696
0.4591,10.1167,0.438,-0.2597,-0.3031,0.7713,0.0432,-0.0784,-0.0181,2513,2019-08-07 17:05:26:702
0.4591,10.1167,0.438,-0.2597,-0.3031,0.7713,0.0432,-0.0784,-0.0181,2517,2019-08-07 17:05:26:706
0.5404,9.983,-0.1135,-0.2597,-0.3031,0.7713,0.024,-0.0645,-0.049,2523,2019-08-07 17:05:26:712
0.5404,9.983,-0.1135,-0.0911,-0.2537,1.0346,0.024,-0.0645,-0.049,2528,2019-08-07 17:05:26:717
0.5404,9.983,-0.1135,-0.0911,-0.2537,1.0346,0.0048,-0.0134,-0.0458,2532,2019-08-07 17:05:26:721
0.3252,10.069,0.0986,-0.0911,-0.2537,1.0346,0.0048,-0.0134,-0.0458,2538,2019-08-07 17:05:26:727
0.3252,10.069,0.0986,-0.0911,-0.2537,1.0346,-0.0058,0.025,-0.0607,2542,2019-08-07 17:05:26:731
-0.0289,10.2504,-0.1936,-0.0911,-0.2537,1.0346,-0.0058,0.025,-0.0607,2547,2019-08-07 17:05:26:736
-0.0289,10.2504,-0.1936,0.3898,-0.3479,1.2951,-0.0282,0.0633,-0.065,2553,2019-08-07 17:05:26:742
-0.0289,10.2504,-0.1936,0.3898,-0.3479,1.2951,-0.0282,0.0633,-0.065,2557,2019-08-07 17:05:26:746
-0.2298,9.9783,0.1175,0.3898,-0.3479,1.2951,-0.0282,0.0633,-0.065,2563,2019-08-07 17:05:26:752
-0.2298,9.9783,0.1175,0.3898,-0.3479,1.2951,-0.0378,0.0676,-0.0586,2568,2019-08-07 17:05:26:757
-0.2298,9.9783,0.1175,0.4537,-0.271,0.4553,-0.0378,0.0676,-0.0586,2573,2019-08-07 17:05:26:762
-0.1294,10.0356,0.7916,0.4537,-0.271,0.4553,-0.0175,-6.0E-4,-0.0479,2578,2019-08-07 17:05:26:767
-0.1294,10.0356,0.7916,0.4537,-0.271,0.4553,-0.0175,-6.0E-4,-0.0479,2583,2019-08-07 17:05:26:772
-0.1294,10.0356,0.7916,0.4537,-0.271,0.4553,0.007,-0.0602,-0.0309,2588,2019-08-07 17:05:26:777
0.1433,9.8351,0.3249,0.0897,-0.0843,0.7264,0.007,-0.0602,-0.0309,2592,2019-08-07 17:05:26:781
0.1433,9.8351,0.3249,0.0897,-0.0843,0.7264,0.0038,-0.0432,-0.0309,2598,2019-08-07 17:05:26:787
0.1433,9.8351,0.3249,0.0897,-0.0843,0.7264,0.0038,-0.0432,-0.0309,2603,2019-08-07 17:05:26:792
0.3969,9.9019,0.6077,0.0897,-0.0843,0.7264,0.007,-0.0059,-0.0309,2608,2019-08-07 17:05:26:797
0.3969,9.9019,0.6077,-0.159,-0.1361,0.4093,0.007,-0.0059,-0.0309,2613,2019-08-07 17:05:26:802
0.3969,9.9019,0.6077,-0.159,-0.1361,0.4093,0.007,-0.0059,-0.0309,2618,2019-08-07 17:05:26:807
0.3682,9.9878,0.5653,-0.159,-0.1361,0.4093,0.0283,-0.0347,-0.0351,2622,2019-08-07 17:05:26:811
0.3682,9.9878,0.5653,-0.159,-0.1361,0.4093,0.0283,-0.0347,-0.0351,2627,2019-08-07 17:05:26:816
0.3443,9.9639,0.6737,-0.15,-0.2448,0.3437,0.0538,-0.0357,-0.0437,2633,2019-08-07 17:05:26:822
0.3443,9.9639,0.6737,-0.15,-0.2448,0.3437,0.0538,-0.0357,-0.0437,2637,2019-08-07 17:05:26:826
0.3443,9.9639,0.6737,-0.15,-0.2448,0.3437,0.0783,-0.0326,-0.0479,2643,2019-08-07 17:05:26:832
0.6122,9.8303,0.6973,-0.15,-0.2448,0.3437,0.0783,-0.0326,-0.0479,2648,2019-08-07 17:05:26:837
0.6122,9.8303,0.6973,-0.3814,-0.0709,0.4532,0.1039,0.0133,-0.0671,2652,2019-08-07 17:05:26:841
0.6122,9.8303,0.6973,-0.3814,-0.0709,0.4532,0.1039,0.0133,-0.0671,2658,2019-08-07 17:05:26:847
0.44,9.8589,0.438,-0.3814,-0.0709,0.4532,0.1146,0.0601,-0.0724,2662,2019-08-07 17:05:26:851
0.44,9.8589,0.438,-0.3814,-0.0709,0.4532,0.1146,0.0601,-0.0724,2668,2019-08-07 17:05:26:857
0.2725,9.7634,0.4286,-0.1117,-0.0488,0.5586,0.1188,0.0985,-0.0756,2673,2019-08-07 17:05:26:862
0.2725,9.7634,0.4286,-0.1117,-0.0488,0.5586,0.1188,0.0985,-0.0756,2678,2019-08-07 17:05:26:867
0.2725,9.7634,0.4286,-0.1117,-0.0488,0.5586,0.1188,0.0985,-0.0756,2683,2019-08-07 17:05:26:872
0.0285,9.8732,0.3815,-0.1117,-0.0488,0.5586,0.1316,0.0878,-0.0724,2688,2019-08-07 17:05:26:877
0.0285,9.8732,0.3815,0.2203,-0.2174,0.6426,0.1316,0.0878,-0.0724,2693,2019-08-07 17:05:26:882
-0.1051,10.0403,0.3816,0.2203,-0.2174,0.6426,0.1337,0.0857,-0.0714,2698,2019-08-07 17:05:26:887
-0.1051,10.0403,0.3816,0.2203,-0.2174,0.6426,0.1337,0.0857,-0.0714,2702,2019-08-07 17:05:26:891
-0.1051,10.0403,0.3816,0.2203,-0.2174,0.6426,0.1337,0.0857,-0.0714,2708,2019-08-07 17:05:26:897
-0.0142,9.9496,0.4051,0.1265,-0.1901,0.5309,0.1391,0.0697,-0.065,2713,2019-08-07 17:05:26:902
-0.0142,9.9496,0.4051,0.1265,-0.1901,0.5309,0.1391,0.0697,-0.065,2718,2019-08-07 17:05:26:907
0.1533,9.8971,0.3061,0.1265,-0.1901,0.5309,0.1476,0.0388,-0.0575,2723,2019-08-07 17:05:26:912
0.1533,9.8971,0.3061,0.1265,-0.1901,0.5309,0.1476,0.0388,-0.0575,2727,2019-08-07 17:05:26:916
0.1102,10.0498,-0.2642,0.0658,-0.3061,1.1377,0.1273,0.0676,-0.0543,2733,2019-08-07 17:05:26:922
0.1102,10.0498,-0.2642,0.0658,-0.3061,1.1377,0.1273,0.0676,-0.0543,2738,2019-08-07 17:05:26:927
0.1102,10.0498,-0.2642,0.2025,-0.2376,1.0879,0.1039,0.1368,-0.0564,2743,2019-08-07 17:05:26:932
-0.062,10.0212,-0.0474,0.2025,-0.2376,1.0879,0.1039,0.1368,-0.0564,2748,2019-08-07 17:05:26:937
-0.062,10.0212,-0.0474,0.2025,-0.2376,1.0879,0.1039,0.1368,-0.0564,2753,2019-08-07 17:05:26:942
-0.062,10.0212,-0.0474,0.2025,-0.2376,1.0879,0.0901,0.1187,-0.0469,2758,2019-08-07 17:05:26:947
-0.1337,10.0307,0.1836,0.2699,-0.2256,0.662,0.0901,0.1187,-0.0469,2763,2019-08-07 17:05:26:952
-0.1337,10.0307,0.1836,0.2699,-0.2256,0.662,0.0954,0.0463,-0.0415,2767,2019-08-07 17:05:26:956
-0.1337,10.0307,0.1836,0.2699,-0.2256,0.662,0.0954,0.0463,-0.0415,2773,2019-08-07 17:05:26:962
-0.1337,9.9448,-0.0663,0.2699,-0.2256,0.662,0.0922,-6.0E-4,-0.0298,2778,2019-08-07 17:05:26:967
-0.1337,9.9448,-0.0663,0.1654,-0.1374,1.028,0.0922,-6.0E-4,-0.0298,2783,2019-08-07 17:05:26:972
-0.1337,9.9448,-0.0663,0.1654,-0.1374,1.028,0.0677,-0.0134,-0.0117,2787,2019-08-07 17:05:26:976
-0.1002,9.8732,-0.1087,0.1654,-0.1374,1.028,0.0677,-0.0134,-0.0117,2793,2019-08-07 17:05:26:982
-0.1002,9.8732,-0.1087,0.1654,-0.1374,1.028,0.0549,-0.0102,-0.0021,2798,2019-08-07 17:05:26:987
-0.1194,9.9496,0.0563,0.2432,-0.1739,0.7536,0.0549,-0.0102,-0.0021,2803,2019-08-07 17:05:26:992
-0.1194,9.9496,0.0563,0.2432,-0.1739,0.7536,0.0432,-0.0155,0.0,2808,2019-08-07 17:05:26:997
-0.1194,9.9496,0.0563,0.2432,-0.1739,0.7536,0.0432,-0.0155,0.0,2813,2019-08-07 17:05:27:002
2.0E-4,9.9018,0.259,0.185,-0.1303,0.5487,0.0506,-0.0368,-0.0032,2817,2019-08-07 17:05:27:006
2.0E-4,9.9018,0.259,0.185,-0.1303,0.5487,0.0506,-0.0368,-0.0032,2823,2019-08-07 17:05:27:012
0.2347,10.0212,0.0186,0.185,-0.1303,0.5487,0.0528,-0.0432,-0.0042,2828,2019-08-07 17:05:27:017
0.2347,10.0212,0.0186,-0.0923,-0.3152,0.8677,0.0528,-0.0432,-0.0042,2833,2019-08-07 17:05:27:022
0.2347,10.0212,0.0186,-0.0923,-0.3152,0.8677,0.0432,0.0047,0.0011,2838,2019-08-07 17:05:27:027
0.316,10.0928,-0.1228,-0.0923,-0.3152,0.8677,0.0432,0.0047,0.0011,2843,2019-08-07 17:05:27:032
0.316,10.0928,-0.1228,-0.0923,-0.3152,0.8677,0.0251,0.0452,-0.0106,2848,2019-08-07 17:05:27:037
0.206,10.0546,0.0045,-0.0826,-0.2759,0.769,0.0251,0.0452,-0.0106,2853,2019-08-07 17:05:27:042
0.206,10.0546,0.0045,-0.0826,-0.2759,0.769,0.0208,0.058,-0.0149,2857,2019-08-07 17:05:27:046
0.206,10.0546,0.0045,-0.0826,-0.2759,0.769,0.0208,0.058,-0.0149,2863,2019-08-07 17:05:27:052
0.2155,9.9496,0.1836,-0.0826,-0.2759,0.769,0.0187,0.0303,-0.0085,2868,2019-08-07 17:05:27:057
0.2155,9.9496,0.1836,-0.0826,-0.2759,0.769,0.0187,0.0303,-0.0085,2873,2019-08-07 17:05:27:062
0.2155,9.9496,0.1836,0.0534,-0.1845,0.6845,0.0187,0.0303,-0.0085,2878,2019-08-07 17:05:27:067
0.0385,9.9591,0.0045,0.0534,-0.1845,0.6845,0.0208,0.0175,-0.0064,2883,2019-08-07 17:05:27:072
0.0385,9.9591,0.0045,0.0534,-0.1845,0.6845,0.0208,0.0175,-0.0064,2888,2019-08-07 17:05:27:077
0.0385,9.9591,0.0045,0.0534,-0.1845,0.6845,0.008,0.0165,0.0011,2893,2019-08-07 17:05:27:082
-0.1433,10.0116,0.0327,0.2616,-0.2315,0.7225,0.008,0.0165,0.0011,2897,2019-08-07 17:05:27:086
-0.1433,10.0116,0.0327,0.2616,-0.2315,0.7225,0.0048,0.0101,0.0085,2903,2019-08-07 17:05:27:092
-0.1433,10.0116,0.0327,0.2616,-0.2315,0.7225,0.0048,0.0101,0.0085,2907,2019-08-07 17:05:27:096
-0.0093,9.983,0.2072,0.1462,-0.2357,0.4992,0.0134,-0.0091,0.0032,2913,2019-08-07 17:05:27:102
-0.0093,9.983,0.2072,0.1462,-0.2357,0.4992,0.0134,-0.0091,0.0032,2918,2019-08-07 17:05:27:107
0.0051,10.0212,0.1836,0.1462,-0.2357,0.4992,0.0134,-0.0091,0.0032,2922,2019-08-07 17:05:27:111
0.0051,10.0212,0.1836,0.1462,-0.2357,0.4992,0.0187,-0.0198,0.0107,2928,2019-08-07 17:05:27:117
0.0051,10.0212,0.1836,0.1462,-0.2357,0.4992,0.0187,-0.0198,0.0107,2932,2019-08-07 17:05:27:121
0.273,9.94,0.0422,-0.153,-0.1587,0.698,0.0187,5.0E-4,0.0,2938,2019-08-07 17:05:27:127
0.273,9.94,0.0422,-0.153,-0.1587,0.698,0.0187,5.0E-4,0.0,2943,2019-08-07 17:05:27:132
0.2299,9.9734,0.0799,-0.153,-0.1587,0.698,0.0229,0.025,0.0053,2948,2019-08-07 17:05:27:137
0.2299,9.9734,0.0799,-0.153,-0.1587,0.698,0.0229,0.025,0.0053,2952,2019-08-07 17:05:27:141
0.2204,9.9353,-0.0285,-0.1136,-0.1198,0.7216,0.0123,0.0346,0.0,2958,2019-08-07 17:05:27:147
0.2204,9.9353,-0.0285,-0.1136,-0.1198,0.7216,0.0123,0.0346,0.0,2963,2019-08-07 17:05:27:152
0.2204,9.9353,-0.0285,-0.1136,-0.1198,0.7216,0.0123,0.0346,0.0,2967,2019-08-07 17:05:27:156
0.029,9.9305,0.0469,-0.1136,-0.1198,0.7216,0.0112,0.0356,0.0043,2973,2019-08-07 17:05:27:162
0.029,9.9305,0.0469,0.1108,-0.1527,0.7183,0.0112,0.0356,0.0043,2977,2019-08-07 17:05:27:166
-0.1241,10.0403,0.0422,0.1108,-0.1527,0.7183,0.0048,0.0154,0.0064,2982,2019-08-07 17:05:27:171
-0.1241,10.0403,0.0422,0.1108,-0.1527,0.7183,0.0048,0.0154,0.0064,2988,2019-08-07 17:05:27:177
-0.1241,10.0403,0.0422,0.1108,-0.1527,0.7183,0.007,-0.007,0.0181,2992,2019-08-07 17:05:27:181
-0.0475,9.9878,0.1883,0.1686,-0.2047,0.5281,0.007,-0.007,0.0181,2998,2019-08-07 17:05:27:187
-0.0475,9.9878,0.1883,0.1686,-0.2047,0.5281,0.0134,-0.056,0.0149,3003,2019-08-07 17:05:27:192
-0.0475,9.9878,0.1883,0.1686,-0.2047,0.5281,0.0134,-0.056,0.0149,3008,2019-08-07 17:05:27:197
3.0E-4,10.0832,0.2119,0.1686,-0.2047,0.5281,0.0198,-0.0645,0.0245,3013,2019-08-07 17:05:27:202
3.0E-4,10.0832,0.2119,0.0811,-0.2233,0.6246,0.0198,-0.0645,0.0245,3019,2019-08-07 17:05:27:208
0.0769,9.9209,0.0705,0.0811,-0.2233,0.6246,0.0198,-0.0645,0.0245,3022,2019-08-07 17:05:27:211
0.0769,9.9209,0.0705,0.0811,-0.2233,0.6246,0.0166,-0.0421,0.0267,3028,2019-08-07 17:05:27:217
0.1438,9.8589,0.16,0.0811,-0.2233,0.6246,0.0166,-0.0421,0.0267,3032,2019-08-07 17:05:27:221
0.1438,9.8589,0.16,-0.0566,-0.1035,0.541,0.0187,-0.0357,0.0277,3038,2019-08-07 17:05:27:227
0.1438,9.8589,0.16,-0.0566,-0.1035,0.541,0.0187,-0.0357,0.0277,3043,2019-08-07 17:05:27:232
0.1486,9.9782,-0.0521,-0.0566,-0.1035,0.541,0.0166,-0.0539,0.0235,3047,2019-08-07 17:05:27:236
0.1486,9.9782,-0.0521,-0.0566,-0.1035,0.541,0.0166,-0.0539,0.0235,3053,2019-08-07 17:05:27:242
0.1486,9.9782,-0.0521,-0.1128,-0.1888,0.8003,0.0059,-0.0315,0.0171,3057,2019-08-07 17:05:27:246
0.2539,9.94,-0.0851,-0.1128,-0.1888,0.8003,0.0059,-0.0315,0.0171,3063,2019-08-07 17:05:27:252
0.2539,9.94,-0.0851,-0.1128,-0.1888,0.8003,-0.0037,0.0218,0.0096,3068,2019-08-07 17:05:27:257
-0.0092,9.9496,-0.1228,-0.1128,-0.1888,0.8003,-0.0037,0.0218,0.0096,3074,2019-08-07 17:05:27:263
-0.0092,9.9496,-0.1228,-0.0098,-0.093,0.6673,-0.0154,0.0101,0.0117,3078,2019-08-07 17:05:27:267
-0.0188,10.0546,0.2166,-0.0098,-0.093,0.6673,-0.0154,0.0101,0.0117,3083,2019-08-07 17:05:27:272
-0.0188,10.0546,0.2166,-0.0098,-0.093,0.6673,-0.0154,0.0101,0.0117,3088,2019-08-07 17:05:27:277
-0.0188,10.0546,0.2166,-0.0098,-0.093,0.6673,-0.0271,-0.1497,0.0245,3093,2019-08-07 17:05:27:282
0.3496,9.835,0.259,-0.2076,-0.05,0.4265,-0.0271,-0.1497,0.0245,3097,2019-08-07 17:05:27:286
0.3496,9.835,0.259,-0.2076,-0.05,0.4265,-0.0271,-0.1497,0.0245,3103,2019-08-07 17:05:27:292
0.2683,10.0594,-0.3538,-0.2076,-0.05,0.4265,0.0016,-0.0049,0.0171,3108,2019-08-07 17:05:27:297
0.2683,10.0594,-0.3538,-0.2076,-0.05,0.4265,-0.0367,0.0601,0.0171,3113,2019-08-07 17:05:27:302
0.2683,10.0594,-0.3538,-0.1322,-0.0926,0.2079,-0.0367,0.0601,0.0171,3118,2019-08-07 17:05:27:307
0.1678,9.8875,0.5607,-0.1322,-0.0926,0.2079,-0.0367,0.0601,0.0171,3123,2019-08-07 17:05:27:312
0.1678,9.8875,0.5607,-0.0071,-0.2693,0.242,-0.0079,0.0047,0.0064,3128,2019-08-07 17:05:27:317
0.1678,9.8875,0.5607,-0.0071,-0.2693,0.242,-0.0079,0.0047,0.0064,3132,2019-08-07 17:05:27:321
0.1104,10.0546,0.2072,-0.0071,-0.2693,0.242,0.0048,-0.073,0.0107,3138,2019-08-07 17:05:27:327
0.1104,10.0546,0.2072,-0.0071,-0.2693,0.242,0.0048,-0.073,0.0107,3142,2019-08-07 17:05:27:331
0.1534,9.983,0.0846,-0.0043,-0.1974,0.5908,-0.0079,-0.0933,0.016,3148,2019-08-07 17:05:27:337
0.1534,9.983,0.0846,-0.0043,-0.1974,0.5908,-0.0079,-0.0933,0.016,3152,2019-08-07 17:05:27:341
0.1534,9.983,0.0846,-0.0043,-0.1974,0.5908,-0.009,-0.1444,0.0128,3158,2019-08-07 17:05:27:347
0.1104,9.8207,0.4617,-0.0043,-0.1974,0.5908,-0.009,-0.1444,0.0128,3163,2019-08-07 17:05:27:352
0.1104,9.8207,0.4617,-0.0149,-0.1974,0.2271,-0.0101,-0.2829,0.0011,3167,2019-08-07 17:05:27:356
0.1104,10.0976,0.0233,-0.0149,-0.1974,0.2271,-0.0101,-0.2829,0.0011,3173,2019-08-07 17:05:27:362
0.0626,10.0976,0.0233,-0.0149,-0.1974,0.2271,-0.0069,-0.3553,-0.0096,3178,2019-08-07 17:05:27:367
0.0626,10.0976,0.0233,-0.0149,-0.1974,0.2271,-0.0069,-0.3553,-0.0096,3183,2019-08-07 17:05:27:372
0.2444,9.9305,-0.3113,-0.0887,-0.1446,0.9808,-0.0229,-0.2722,-0.0128,3187,2019-08-07 17:05:27:376
0.2444,9.9305,-0.3113,-0.0887,-0.1446,0.9808,-0.0229,-0.2722,-0.0128,3193,2019-08-07 17:05:27:382
0.2444,9.9305,-0.3113,-0.0887,-0.1446,0.9808,-0.0303,-0.1199,-0.0106,3197,2019-08-07 17:05:27:386
0.3688,10.0212,-0.2642,-0.0887,-0.1446,0.9808,-0.0303,-0.1199,-0.0106,3203,2019-08-07 17:05:27:392
0.3688,10.0212,-0.2642,-0.0887,-0.1446,0.9808,-0.0303,-0.1199,-0.0106,3207,2019-08-07 17:05:27:396
0.1917,9.9257,-0.3962,-0.1164,-0.2161,1.0494,-0.0356,0.1027,-0.0064,3213,2019-08-07 17:05:27:402
0.1917,9.9257,-0.3962,-0.1164,-0.2161,1.0494,-0.0356,0.1027,-0.0064,3217,2019-08-07 17:05:27:406
0.1917,9.9257,-0.3962,-0.1164,-0.2161,1.0494,-0.0324,0.3712,0.0021,3223,2019-08-07 17:05:27:412
0.0961,9.8875,-0.382,0.0427,-0.1395,0.9869,-0.0324,0.3712,0.0021,3228,2019-08-07 17:05:27:417
0.0961,9.8875,-0.382,0.0427,-0.1395,0.9869,-0.0431,0.5363,0.0171,3233,2019-08-07 17:05:27:422
0.0195,10.1692,0.4947,0.0427,-0.1395,0.9869,-0.0431,0.5363,0.0171,3237,2019-08-07 17:05:27:426
0.0195,10.1692,0.4947,0.0427,-0.1395,0.9869,-0.1177,0.2263,-0.0042,3243,2019-08-07 17:05:27:432
0.0195,10.1692,0.4947,0.0427,-0.1395,0.9869,-0.1177,0.2263,-0.0042,3247,2019-08-07 17:05:27:436
-0.2484,9.7729,1.3715,0.4205,0.0217,-1.0087,0.0315,-0.1849,0.0021,3253,2019-08-07 17:05:27:442
-0.2484,9.7729,1.3715,0.4205,0.0217,-1.0087,0.0315,-0.1849,0.0021,3257,2019-08-07 17:05:27:446
0.3449,10.0307,-0.7733,0.0093,-0.1549,0.7245,0.0027,-0.2062,0.0,3263,2019-08-07 17:05:27:452
0.3449,10.0307,-0.7733,0.0093,-0.1549,0.7245,0.0027,-0.2062,0.0,3268,2019-08-07 17:05:27:457
0.3449,10.0307,-0.7733,0.0093,-0.1549,0.7245,-0.0495,0.0772,-0.0064,3272,